key_resp.keys,instr_done_touch.x,instr_done_touch.y,instr_done_touch.leftButton,instr_done_touch.midButton,instr_done_touch.rightButton,instr_done_touch.clicked_name,instruction_pages.thisRepN,instruction_pages.thisTrialN,instruction_pages.thisN,instruction_pages.thisIndex,instruction_pages.ran,pageN,phase,instruct_text,has_image,instruct_image,participant,age,date,expName,psychopyVersion,OS,frameRate,key_resp.rt,response.keys,response.corr,response.rt,touch_resp.x,touch_resp.y,touch_resp.leftButton,touch_resp.midButton,touch_resp.rightButton,touch_resp.time,touch_resp.clicked_name,rt,corr,practrials.thisRepN,practrials.thisTrialN,practrials.thisN,practrials.thisIndex,practrials.ran,TrialID,Target,corrAns,end_of_practice_trials_pages.thisRepN,end_of_practice_trials_pages.thisTrialN,end_of_practice_trials_pages.thisN,end_of_practice_trials_pages.thisIndex,end_of_practice_trials_pages.ran,key_resp_2.keys,key_resp_2.corr,key_resp_2.rt,targ_click.x,targ_click.y,targ_click.leftButton,targ_click.midButton,targ_click.rightButton,targ_click.time,targ_click.clicked_name,break_done_touch.x,break_done_touch.y,break_done_touch.leftButton,break_done_touch.midButton,break_done_touch.rightButton,break_done_keyboard.keys,maintrials.thisRepN,maintrials.thisTrialN,maintrials.thisN,maintrials.thisIndex,maintrials.ran,string,blur,study,lex,stim_path,break_done_keyboard.rt,test_instructions.thisRepN,test_instructions.thisTrialN,test_instructions.thisN,test_instructions.thisIndex,test_instructions.ran,key_resp_3.keys,key_resp_3.corr,key_resp_3.rt,test_click.x,test_click.y,test_click.leftButton,test_click.midButton,test_click.rightButton,test_click.time,test_click.clicked_name,test_phase.thisRepN,test_phase.thisTrialN,test_phase.thisN,test_phase.thisIndex,test_phase.ran
,0.118953993,-0.401371528,1,0,0,instr_done_button,0,0,0,0,1,1,instructions,"INSTRUCTIONS
At the start of each trial, look at the plus sign  (+) in the center of the screen.  This tells you that a trial is about to begin and where to look. Second, the plus sign will disappear and a string of letters will appear. Your task is to determine if the string of letters is a word or not. If the item is a word press the M key (on keyboard)  or touch the word button (phone/tablet).  If the item is not a word,  press the  Z key (on keyboard)  or touch the nonword button (on phone/tablet). 
Press the space bar or touch  continue.",0,,199051,19,2022-01-29_12h07.11.386,lexical_decision_task_DD_L2,2021.2.3,MacIntel,60.0024001,,,,,,,,,,,,,,,,,,,,,,,,,,,,,,,,,,,,,,,,,,,,,,,,,,,,,,,,,,,,,,,,,,,,,,,,,
space,0.118953993,-0.401371528,0,0,0,,0,1,1,1,1,2,instructions,"If your device has a keyboard, press the 'Z' key for nonwords and the 'M' key for words.





Press the space bar or touch the button below to continue.",0,keyboard-example.gif,199051,19,2022-01-29_12h07.11.386,lexical_decision_task_DD_L2,2021.2.3,MacIntel,60.0024001,6.4293,,,,,,,,,,,,,,,,,,,,,,,,,,,,,,,,,,,,,,,,,,,,,,,,,,,,,,,,,,,,,,,,,,,,,,,,
space,0.118953993,-0.401371528,0,0,0,,0,2,2,2,1,3,instructions,"If you are using a touchscreen only device, use the buttons on the screen. Do not use the mouse.





Press the space bar or touch the button below to continue.",0,touchscreen-example.gif,199051,19,2022-01-29_12h07.11.386,lexical_decision_task_DD_L2,2021.2.3,MacIntel,60.0024001,2.219,,,,,,,,,,,,,,,,,,,,,,,,,,,,,,,,,,,,,,,,,,,,,,,,,,,,,,,,,,,,,,,,,,,,,,,,
space,0.118953993,-0.401371528,0,0,0,,0,3,3,3,1,4,instructions,"It is very important that you respond as quickly and accurately as possible, as each letter string will only be on the screen for two seconds. If you do not respond within this time, the message 'Too slow!' will be displayed and the experiment will progress to the next letter string. The first 20 trials will be practice trials and you will receive feedback on your answers. 

Press the space bar or touch the button below to start the practice trials.",0,,199051,19,2022-01-29_12h07.11.386,lexical_decision_task_DD_L2,2021.2.3,MacIntel,60.0024001,15.0372,,,,,,,,,,,,,,,,,,,,,,,,,,,,,,,,,,,,,,,,,,,,,,,,,,,,,,,,,,,,,,,,,,,,,,,,
,,,,,,,,,,,,,,,,,199051,19,2022-01-29_12h07.11.386,lexical_decision_task_DD_L2,2021.2.3,MacIntel,60.0024001,,m,1,2.1066,,,,,,,,2.1066,1,0,0,0,1,1,1001,ADJUST,m,,,,,,,,,,,,,,,,,,,,,,,,,,,,,,,,,,,,,,,,,,,,,,,,,,,,
,,,,,,,,,,,,,,,,,199051,19,2022-01-29_12h07.11.386,lexical_decision_task_DD_L2,2021.2.3,MacIntel,60.0024001,,z,1,1.2737,,,,,,,,1.2737,1,0,1,1,10,1,1001,INLADE,z,,,,,,,,,,,,,,,,,,,,,,,,,,,,,,,,,,,,,,,,,,,,,,,,,,,,
,,,,,,,,,,,,,,,,,199051,19,2022-01-29_12h07.11.386,lexical_decision_task_DD_L2,2021.2.3,MacIntel,60.0024001,,m,1,0.5174,,,,,,,,0.5174,1,0,2,2,4,1,1001,SQUEAK,m,,,,,,,,,,,,,,,,,,,,,,,,,,,,,,,,,,,,,,,,,,,,,,,,,,,,
,,,,,,,,,,,,,,,,,199051,19,2022-01-29_12h07.11.386,lexical_decision_task_DD_L2,2021.2.3,MacIntel,60.0024001,,m,1,0.5304,,,,,,,,0.5304,1,0,3,3,5,1,1001,OBTAIN,m,,,,,,,,,,,,,,,,,,,,,,,,,,,,,,,,,,,,,,,,,,,,,,,,,,,,
,,,,,,,,,,,,,,,,,199051,19,2022-01-29_12h07.11.386,lexical_decision_task_DD_L2,2021.2.3,MacIntel,60.0024001,,z,1,0.618,,,,,,,,0.618,1,0,4,4,14,1,1001,THRALE,z,,,,,,,,,,,,,,,,,,,,,,,,,,,,,,,,,,,,,,,,,,,,,,,,,,,,
,,,,,,,,,,,,,,,,,199051,19,2022-01-29_12h07.11.386,lexical_decision_task_DD_L2,2021.2.3,MacIntel,60.0024001,,z,1,0.7622,,,,,,,,0.7622,1,0,5,5,11,1,1001,RASHET,z,,,,,,,,,,,,,,,,,,,,,,,,,,,,,,,,,,,,,,,,,,,,,,,,,,,,
,,,,,,,,,,,,,,,,,199051,19,2022-01-29_12h07.11.386,lexical_decision_task_DD_L2,2021.2.3,MacIntel,60.0024001,,z,1,0.7918,,,,,,,,0.7918,1,0,6,6,8,1,1001,ASLERT,z,,,,,,,,,,,,,,,,,,,,,,,,,,,,,,,,,,,,,,,,,,,,,,,,,,,,
,,,,,,,,,,,,,,,,,199051,19,2022-01-29_12h07.11.386,lexical_decision_task_DD_L2,2021.2.3,MacIntel,60.0024001,,m,1,0.66,,,,,,,,0.66,1,0,7,7,6,1,1001,ZOMBIE,m,,,,,,,,,,,,,,,,,,,,,,,,,,,,,,,,,,,,,,,,,,,,,,,,,,,,
,,,,,,,,,,,,,,,,,199051,19,2022-01-29_12h07.11.386,lexical_decision_task_DD_L2,2021.2.3,MacIntel,60.0024001,,m,1,0.6042,,,,,,,,0.6042,1,0,8,8,3,1,1001,MATRIX,m,,,,,,,,,,,,,,,,,,,,,,,,,,,,,,,,,,,,,,,,,,,,,,,,,,,,
,,,,,,,,,,,,,,,,,199051,19,2022-01-29_12h07.11.386,lexical_decision_task_DD_L2,2021.2.3,MacIntel,60.0024001,,m,0,0.6512,,,,,,,,0.6512,0,0,9,9,13,1,1001,ROUPET,z,,,,,,,,,,,,,,,,,,,,,,,,,,,,,,,,,,,,,,,,,,,,,,,,,,,,
,,,,,,,,,,,,,,,,,199051,19,2022-01-29_12h07.11.386,lexical_decision_task_DD_L2,2021.2.3,MacIntel,60.0024001,,m,1,0.545,,,,,,,,0.545,1,0,10,10,7,1,1001,VOLUME,m,,,,,,,,,,,,,,,,,,,,,,,,,,,,,,,,,,,,,,,,,,,,,,,,,,,,
,,,,,,,,,,,,,,,,,199051,19,2022-01-29_12h07.11.386,lexical_decision_task_DD_L2,2021.2.3,MacIntel,60.0024001,,m,1,0.5165,,,,,,,,0.5165,1,0,11,11,2,1,1001,ALMOND,m,,,,,,,,,,,,,,,,,,,,,,,,,,,,,,,,,,,,,,,,,,,,,,,,,,,,
,,,,,,,,,,,,,,,,,199051,19,2022-01-29_12h07.11.386,lexical_decision_task_DD_L2,2021.2.3,MacIntel,60.0024001,,z,1,0.7143,,,,,,,,0.7143,1,0,12,12,15,1,1001,WHAISE,z,,,,,,,,,,,,,,,,,,,,,,,,,,,,,,,,,,,,,,,,,,,,,,,,,,,,
,,,,,,,,,,,,,,,,,199051,19,2022-01-29_12h07.11.386,lexical_decision_task_DD_L2,2021.2.3,MacIntel,60.0024001,,z,1,0.903,,,,,,,,0.903,1,0,13,13,12,1,1001,SPRINY,z,,,,,,,,,,,,,,,,,,,,,,,,,,,,,,,,,,,,,,,,,,,,,,,,,,,,
,,,,,,,,,,,,,,,,,199051,19,2022-01-29_12h07.11.386,lexical_decision_task_DD_L2,2021.2.3,MacIntel,60.0024001,,z,1,0.648,,,,,,,,0.648,1,0,14,14,9,1,1001,FARINY,z,,,,,,,,,,,,,,,,,,,,,,,,,,,,,,,,,,,,,,,,,,,,,,,,,,,,
,,,,,,,,,,,,,,,,,199051,19,2022-01-29_12h07.11.386,lexical_decision_task_DD_L2,2021.2.3,MacIntel,60.0024001,,m,1,0.4674,,,,,,,,0.4674,1,0,15,15,0,1,1001,UTOPIA,m,,,,,,,,,,,,,,,,,,,,,,,,,,,,,,,,,,,,,,,,,,,,,,,,,,,,
space,0.118953993,-0.401371528,0,0,0,,,,,,,1,end_of_practice,"You have completed the practice trials. During the experimental trials, you will not receive feedback. 
Before you begin, please ensure that you are in a comfortable and quiet location and will not be disturbed for about 15 minutes, as we cannot use your data if you do not complete all the trials. 
 When you are ready to start the experimental trials, please press space or touch the button below.",,,199051,19,2022-01-29_12h07.11.386,lexical_decision_task_DD_L2,2021.2.3,MacIntel,60.0024001,8.4354,,,,,,,,,,,,,,,,,,,,,0,0,0,0,1,,,,,,,,,,,,,,,,,,,,,,,,,,,,,,,,,,,,,,,,,,,,,,,
,,,,,,,,,,,,,,,,,199051,19,2022-01-29_12h07.11.386,lexical_decision_task_DD_L2,2021.2.3,MacIntel,60.0024001,,,,,,,,,,,,0.6945,1,,,,,,,,,,,,,,z,1,0.6945,,,,,,,,0.118953993,-0.401371528,0,0,0,,0,0,0,111,1,HOSSE,C,old,z,./images/HOSSE.png,,,,,,,,,,,,,,,,,,,,,
,,,,,,,,,,,,,,,,,199051,19,2022-01-29_12h07.11.386,lexical_decision_task_DD_L2,2021.2.3,MacIntel,60.0024001,,,,,,,,,,,,0.7314,1,,,,,,,,,,,,,,z,1,0.7314,,,,,,,,0.118953993,-0.401371528,0,0,0,,0,1,1,110,1,CRUNK,LB,old,z,./images/CRUNKLB.png,,,,,,,,,,,,,,,,,,,,,
,,,,,,,,,,,,,,,,,199051,19,2022-01-29_12h07.11.386,lexical_decision_task_DD_L2,2021.2.3,MacIntel,60.0024001,,,,,,,,,,,,0.588,1,,,,,,,,,,,,,,m,1,0.588,,,,,,,,0.118953993,-0.401371528,0,0,0,,0,2,2,77,1,COUCH,C,old,m,./images/COUCH.png,,,,,,,,,,,,,,,,,,,,,
,,,,,,,,,,,,,,,,,199051,19,2022-01-29_12h07.11.386,lexical_decision_task_DD_L2,2021.2.3,MacIntel,60.0024001,,,,,,,,,,,,0.7377,0,,,,,,,,,,,,,,m,0,0.7377,,,,,,,,0.118953993,-0.401371528,0,0,0,,0,3,3,160,1,VEETS,HB,old,z,./images/VEETSHB.png,,,,,,,,,,,,,,,,,,,,,
,,,,,,,,,,,,,,,,,199051,19,2022-01-29_12h07.11.386,lexical_decision_task_DD_L2,2021.2.3,MacIntel,60.0024001,,,,,,,,,,,,0.657,0,,,,,,,,,,,,,,m,0,0.657,,,,,,,,0.118953993,-0.401371528,0,0,0,,0,4,4,139,1,BLEAR,HB,old,z,./images/BLEARHB.png,,,,,,,,,,,,,,,,,,,,,
,,,,,,,,,,,,,,,,,199051,19,2022-01-29_12h07.11.386,lexical_decision_task_DD_L2,2021.2.3,MacIntel,60.0024001,,,,,,,,,,,,0.5832,1,,,,,,,,,,,,,,m,1,0.5832,,,,,,,,0.118953993,-0.401371528,0,0,0,,0,5,5,2,1,BEARD,C,old,m,./images/BEARD.png,,,,,,,,,,,,,,,,,,,,,
,,,,,,,,,,,,,,,,,199051,19,2022-01-29_12h07.11.386,lexical_decision_task_DD_L2,2021.2.3,MacIntel,60.0024001,,,,,,,,,,,,0.6465,1,,,,,,,,,,,,,,z,1,0.6465,,,,,,,,0.118953993,-0.401371528,0,0,0,,0,6,6,114,1,RIKES,C,old,z,./images/RIKES.png,,,,,,,,,,,,,,,,,,,,,
,,,,,,,,,,,,,,,,,199051,19,2022-01-29_12h07.11.386,lexical_decision_task_DD_L2,2021.2.3,MacIntel,60.0024001,,,,,,,,,,,,0.4879,1,,,,,,,,,,,,,,m,1,0.4879,,,,,,,,0.118953993,-0.401371528,0,0,0,,0,7,7,46,1,PEARL,LB,old,m,./images/PEARLLB.png,,,,,,,,,,,,,,,,,,,,,
,,,,,,,,,,,,,,,,,199051,19,2022-01-29_12h07.11.386,lexical_decision_task_DD_L2,2021.2.3,MacIntel,60.0024001,,,,,,,,,,,,0.6151,1,,,,,,,,,,,,,,z,1,0.6151,,,,,,,,0.118953993,-0.401371528,0,0,0,,0,8,8,98,1,BAMPS,LB,old,z,./images/BAMPSLB.png,,,,,,,,,,,,,,,,,,,,,
,,,,,,,,,,,,,,,,,199051,19,2022-01-29_12h07.11.386,lexical_decision_task_DD_L2,2021.2.3,MacIntel,60.0024001,,,,,,,,,,,,0.7838,0,,,,,,,,,,,,,,z,0,0.7838,,,,,,,,0.118953993,-0.401371528,0,0,0,,0,9,9,33,1,MAGGOT,HB,old,m,./images/MAGGOTHB.png,,,,,,,,,,,,,,,,,,,,,
,,,,,,,,,,,,,,,,,199051,19,2022-01-29_12h07.11.386,lexical_decision_task_DD_L2,2021.2.3,MacIntel,60.0024001,,,,,,,,,,,,0.5168,1,,,,,,,,,,,,,,m,1,0.5168,,,,,,,,0.118953993,-0.401371528,0,0,0,,0,10,10,63,1,MIRROR,HB,old,m,./images/MIRRORHB.png,,,,,,,,,,,,,,,,,,,,,
,,,,,,,,,,,,,,,,,199051,19,2022-01-29_12h07.11.386,lexical_decision_task_DD_L2,2021.2.3,MacIntel,60.0024001,,,,,,,,,,,,0.6102,1,,,,,,,,,,,,,,m,1,0.6102,,,,,,,,0.118953993,-0.401371528,0,0,0,,0,11,11,32,1,BARREL,C,old,m,./images/BARREL.png,,,,,,,,,,,,,,,,,,,,,
,,,,,,,,,,,,,,,,,199051,19,2022-01-29_12h07.11.386,lexical_decision_task_DD_L2,2021.2.3,MacIntel,60.0024001,,,,,,,,,,,,0.5406,1,,,,,,,,,,,,,,m,1,0.5406,,,,,,,,0.118953993,-0.401371528,0,0,0,,0,12,12,44,1,LIZARD,C,old,m,./images/LIZARD.png,,,,,,,,,,,,,,,,,,,,,
,,,,,,,,,,,,,,,,,199051,19,2022-01-29_12h07.11.386,lexical_decision_task_DD_L2,2021.2.3,MacIntel,60.0024001,,,,,,,,,,,,0.5799,1,,,,,,,,,,,,,,m,1,0.5799,,,,,,,,0.118953993,-0.401371528,0,0,0,,0,13,13,55,1,MUFFIN,LB,old,m,./images/MUFFINLB.png,,,,,,,,,,,,,,,,,,,,,
,,,,,,,,,,,,,,,,,199051,19,2022-01-29_12h07.11.386,lexical_decision_task_DD_L2,2021.2.3,MacIntel,60.0024001,,,,,,,,,,,,0.4855,1,,,,,,,,,,,,,,m,1,0.4855,,,,,,,,0.118953993,-0.401371528,0,0,0,,0,14,14,25,1,WRIST,LB,old,m,./images/WRISTLB.png,,,,,,,,,,,,,,,,,,,,,
,,,,,,,,,,,,,,,,,199051,19,2022-01-29_12h07.11.386,lexical_decision_task_DD_L2,2021.2.3,MacIntel,60.0024001,,,,,,,,,,,,0.7398,1,,,,,,,,,,,,,,m,1,0.7398,,,,,,,,0.118953993,-0.401371528,0,0,0,,0,15,15,15,1,GREASE,HB,old,m,./images/GREASEHB.png,,,,,,,,,,,,,,,,,,,,,
,,,,,,,,,,,,,,,,,199051,19,2022-01-29_12h07.11.386,lexical_decision_task_DD_L2,2021.2.3,MacIntel,60.0024001,,,,,,,,,,,,0.5892,1,,,,,,,,,,,,,,m,1,0.5892,,,,,,,,0.118953993,-0.401371528,0,0,0,,0,16,16,17,1,SKIING,C,old,m,./images/SKIING.png,,,,,,,,,,,,,,,,,,,,,
,,,,,,,,,,,,,,,,,199051,19,2022-01-29_12h07.11.386,lexical_decision_task_DD_L2,2021.2.3,MacIntel,60.0024001,,,,,,,,,,,,0.8127,0,,,,,,,,,,,,,,m,0,0.8127,,,,,,,,0.118953993,-0.401371528,0,0,0,,0,17,17,97,1,CHIDS,HB,old,z,./images/CHIDSHB.png,,,,,,,,,,,,,,,,,,,,,
,,,,,,,,,,,,,,,,,199051,19,2022-01-29_12h07.11.386,lexical_decision_task_DD_L2,2021.2.3,MacIntel,60.0024001,,,,,,,,,,,,0.5582,0,,,,,,,,,,,,,,m,0,0.5582,,,,,,,,0.118953993,-0.401371528,0,0,0,,0,18,18,134,1,TROSS,LB,old,z,./images/TROSSLB.png,,,,,,,,,,,,,,,,,,,,,
,,,,,,,,,,,,,,,,,199051,19,2022-01-29_12h07.11.386,lexical_decision_task_DD_L2,2021.2.3,MacIntel,60.0024001,,,,,,,,,,,,0.5308,1,,,,,,,,,,,,,,m,1,0.5308,,,,,,,,0.118953993,-0.401371528,0,0,0,,0,19,19,52,1,BANNER,LB,old,m,./images/BANNERLB.png,,,,,,,,,,,,,,,,,,,,,
,,,,,,,,,,,,,,,,,199051,19,2022-01-29_12h07.11.386,lexical_decision_task_DD_L2,2021.2.3,MacIntel,60.0024001,,,,,,,,,,,,0.786,1,,,,,,,,,,,,,,m,1,0.786,,,,,,,,0.118953993,-0.401371528,0,0,0,,0,20,20,9,1,RHINO,HB,old,m,./images/RHINOHB.png,,,,,,,,,,,,,,,,,,,,,
,,,,,,,,,,,,,,,,,199051,19,2022-01-29_12h07.11.386,lexical_decision_task_DD_L2,2021.2.3,MacIntel,60.0024001,,,,,,,,,,,,0.4529,1,,,,,,,,,,,,,,m,1,0.4529,,,,,,,,0.118953993,-0.401371528,0,0,0,,0,21,21,41,1,STRING,C,old,m,./images/STRING.png,,,,,,,,,,,,,,,,,,,,,
,,,,,,,,,,,,,,,,,199051,19,2022-01-29_12h07.11.386,lexical_decision_task_DD_L2,2021.2.3,MacIntel,60.0024001,,,,,,,,,,,,0.6225,1,,,,,,,,,,,,,,z,1,0.6225,,,,,,,,0.118953993,-0.401371528,0,0,0,,0,22,22,87,1,TRING,C,old,z,./images/TRING.png,,,,,,,,,,,,,,,,,,,,,
,,,,,,,,,,,,,,,,,199051,19,2022-01-29_12h07.11.386,lexical_decision_task_DD_L2,2021.2.3,MacIntel,60.0024001,,,,,,,,,,,,0.4754,1,,,,,,,,,,,,,,m,1,0.4754,,,,,,,,0.118953993,-0.401371528,0,0,0,,0,23,23,48,1,SPORT,HB,old,m,./images/SPORTHB.png,,,,,,,,,,,,,,,,,,,,,
,,,,,,,,,,,,,,,,,199051,19,2022-01-29_12h07.11.386,lexical_decision_task_DD_L2,2021.2.3,MacIntel,60.0024001,,,,,,,,,,,,0.5229,1,,,,,,,,,,,,,,m,1,0.5229,,,,,,,,0.118953993,-0.401371528,0,0,0,,0,24,24,26,1,SMOKER,C,old,m,./images/SMOKER.png,,,,,,,,,,,,,,,,,,,,,
,,,,,,,,,,,,,,,,,199051,19,2022-01-29_12h07.11.386,lexical_decision_task_DD_L2,2021.2.3,MacIntel,60.0024001,,,,,,,,,,,,0.6469,1,,,,,,,,,,,,,,z,1,0.6469,,,,,,,,0.118953993,-0.400842014,0,0,0,,0,25,25,159,1,CUDDY,C,old,z,./images/CUDDY.png,,,,,,,,,,,,,,,,,,,,,
,,,,,,,,,,,,,,,,,199051,19,2022-01-29_12h07.11.386,lexical_decision_task_DD_L2,2021.2.3,MacIntel,60.0024001,,,,,,,,,,,,0.5507,1,,,,,,,,,,,,,,m,1,0.5507,,,,,,,,0.118953993,-0.400842014,0,0,0,,0,26,26,78,1,LITTER,HB,old,m,./images/LITTERHB.png,,,,,,,,,,,,,,,,,,,,,
,,,,,,,,,,,,,,,,,199051,19,2022-01-29_12h07.11.386,lexical_decision_task_DD_L2,2021.2.3,MacIntel,60.0024001,,,,,,,,,,,,0.5548,1,,,,,,,,,,,,,,m,1,0.5548,,,,,,,,0.118953993,-0.400842014,0,0,0,,0,27,27,20,1,CRADLE,C,old,m,./images/CRADLE.png,,,,,,,,,,,,,,,,,,,,,
,,,,,,,,,,,,,,,,,199051,19,2022-01-29_12h07.11.386,lexical_decision_task_DD_L2,2021.2.3,MacIntel,60.0024001,,,,,,,,,,,,0.6057,1,,,,,,,,,,,,,,z,1,0.6057,,,,,,,,0.118953993,-0.400842014,0,0,0,,0,28,28,167,1,ZONET,LB,old,z,./images/ZONETLB.png,,,,,,,,,,,,,,,,,,,,,
,,,,,,,,,,,,,,,,,199051,19,2022-01-29_12h07.11.386,lexical_decision_task_DD_L2,2021.2.3,MacIntel,60.0024001,,,,,,,,,,,,1.1185,1,,,,,,,,,,,,,,m,1,1.1185,,,,,,,,0.118953993,-0.400842014,0,0,0,,0,29,29,76,1,INFANT,LB,old,m,./images/INFANTLB.png,,,,,,,,,,,,,,,,,,,,,
,,,,,,,,,,,,,,,,,199051,19,2022-01-29_12h07.11.386,lexical_decision_task_DD_L2,2021.2.3,MacIntel,60.0024001,,,,,,,,,,,,0.6585,1,,,,,,,,,,,,,,z,1,0.6585,,,,,,,,0.118953993,-0.400842014,0,0,0,,0,30,30,116,1,BALGY,LB,old,z,./images/BALGYLB.png,,,,,,,,,,,,,,,,,,,,,
,,,,,,,,,,,,,,,,,199051,19,2022-01-29_12h07.11.386,lexical_decision_task_DD_L2,2021.2.3,MacIntel,60.0024001,,,,,,,,,,,,0.7468,1,,,,,,,,,,,,,,z,1,0.7468,,,,,,,,0.118953993,-0.400842014,0,0,0,,0,31,31,109,1,BURGE,HB,old,z,./images/BURGEHB.png,,,,,,,,,,,,,,,,,,,,,
,,,,,,,,,,,,,,,,,199051,19,2022-01-29_12h07.11.386,lexical_decision_task_DD_L2,2021.2.3,MacIntel,60.0024001,,,,,,,,,,,,0.4988,1,,,,,,,,,,,,,,m,1,0.4988,,,,,,,,0.118953993,-0.400842014,0,0,0,,0,32,32,30,1,STORM,HB,old,m,./images/STORMHB.png,,,,,,,,,,,,,,,,,,,,,
,,,,,,,,,,,,,,,,,199051,19,2022-01-29_12h07.11.386,lexical_decision_task_DD_L2,2021.2.3,MacIntel,60.0024001,,,,,,,,,,,,0.7056,1,,,,,,,,,,,,,,z,1,0.7056,,,,,,,,0.118697917,-0.400842014,0,0,0,,0,33,33,119,1,PAFER,LB,old,z,./images/PAFERLB.png,,,,,,,,,,,,,,,,,,,,,
,,,,,,,,,,,,,,,,,199051,19,2022-01-29_12h07.11.386,lexical_decision_task_DD_L2,2021.2.3,MacIntel,60.0024001,,,,,,,,,,,,0.4305,1,,,,,,,,,,,,,,m,1,0.4305,,,,,,,,0.118697917,-0.398984375,0,0,0,,0,34,34,57,1,MOOSE,HB,old,m,./images/MOOSEHB.png,,,,,,,,,,,,,,,,,,,,,
,,,,,,,,,,,,,,,,,199051,19,2022-01-29_12h07.11.386,lexical_decision_task_DD_L2,2021.2.3,MacIntel,60.0024001,,,,,,,,,,,,0.8319,1,,,,,,,,,,,,,,z,1,0.8319,,,,,,,,0.116310764,-0.394344618,0,0,0,,0,35,35,115,1,MAWNS,HB,old,z,./images/MAWNSHB.png,,,,,,,,,,,,,,,,,,,,,
,,,,,,,,,,,,,,,,,199051,19,2022-01-29_12h07.11.386,lexical_decision_task_DD_L2,2021.2.3,MacIntel,60.0024001,,,,,,,,,,,,0.6711,1,,,,,,,,,,,,,,z,1,0.6711,,,,,,,,0.116310764,-0.394344618,0,0,0,,0,36,36,126,1,GUELS,C,old,z,./images/GUELS.png,,,,,,,,,,,,,,,,,,,,,
,,,,,,,,,,,,,,,,,199051,19,2022-01-29_12h07.11.386,lexical_decision_task_DD_L2,2021.2.3,MacIntel,60.0024001,,,,,,,,,,,,0.6442,0,,,,,,,,,,,,,,m,0,0.6442,,,,,,,,0.116310764,-0.394344618,0,0,0,,0,37,37,157,1,INLER,HB,old,z,./images/INLERHB.png,,,,,,,,,,,,,,,,,,,,,
,,,,,,,,,,,,,,,,,199051,19,2022-01-29_12h07.11.386,lexical_decision_task_DD_L2,2021.2.3,MacIntel,60.0024001,,,,,,,,,,,,0.4736,0,,,,,,,,,,,,,,m,0,0.4736,,,,,,,,0.116310764,-0.394344618,0,0,0,,0,38,38,165,1,TROWN,C,old,z,./images/TROWN.png,,,,,,,,,,,,,,,,,,,,,
,,,,,,,,,,,,,,,,,199051,19,2022-01-29_12h07.11.386,lexical_decision_task_DD_L2,2021.2.3,MacIntel,60.0024001,,,,,,,,,,,,0.5548,1,,,,,,,,,,,,,,m,1,0.5548,,,,,,,,0.116310764,-0.394344618,0,0,0,,0,39,39,62,1,PURSE,C,old,m,./images/PURSE.png,,,,,,,,,,,,,,,,,,,,,
,,,,,,,,,,,,,,,,,199051,19,2022-01-29_12h07.11.386,lexical_decision_task_DD_L2,2021.2.3,MacIntel,60.0024001,,,,,,,,,,,,0.5228,1,,,,,,,,,,,,,,m,1,0.5228,,,,,,,,0.116310764,-0.394344618,0,0,0,,0,40,40,11,1,BONNET,C,old,m,./images/BONNET.png,,,,,,,,,,,,,,,,,,,,,
,,,,,,,,,,,,,,,,,199051,19,2022-01-29_12h07.11.386,lexical_decision_task_DD_L2,2021.2.3,MacIntel,60.0024001,,,,,,,,,,,,0.6248,1,,,,,,,,,,,,,,z,1,0.6248,,,,,,,,0.116310764,-0.394344618,0,0,0,space,0,41,41,150,1,NOOLS,C,old,z,./images/NOOLS.png,2.5995,,,,,,,,,,,,,,,,,,,,
,,,,,,,,,,,,,,,,,199051,19,2022-01-29_12h07.11.386,lexical_decision_task_DD_L2,2021.2.3,MacIntel,60.0024001,,,,,,,,,,,,0.6548,1,,,,,,,,,,,,,,m,1,0.6548,,,,,,,,0.116310764,-0.394344618,0,0,0,,0,42,42,23,1,WALRUS,C,old,m,./images/WALRUS.png,,,,,,,,,,,,,,,,,,,,,
,,,,,,,,,,,,,,,,,199051,19,2022-01-29_12h07.11.386,lexical_decision_task_DD_L2,2021.2.3,MacIntel,60.0024001,,,,,,,,,,,,0.6608,1,,,,,,,,,,,,,,z,1,0.6608,,,,,,,,0.116310764,-0.394344618,0,0,0,,0,43,43,84,1,HAXES,C,old,z,./images/HAXES.png,,,,,,,,,,,,,,,,,,,,,
,,,,,,,,,,,,,,,,,199051,19,2022-01-29_12h07.11.386,lexical_decision_task_DD_L2,2021.2.3,MacIntel,60.0024001,,,,,,,,,,,,0.5632,0,,,,,,,,,,,,,,m,0,0.5632,,,,,,,,0.116310764,-0.394344618,0,0,0,,0,44,44,155,1,CANGY,LB,old,z,./images/CANGYLB.png,,,,,,,,,,,,,,,,,,,,,
,,,,,,,,,,,,,,,,,199051,19,2022-01-29_12h07.11.386,lexical_decision_task_DD_L2,2021.2.3,MacIntel,60.0024001,,,,,,,,,,,,0.6547,1,,,,,,,,,,,,,,z,1,0.6547,,,,,,,,0.116310764,-0.394344618,0,0,0,,0,45,45,105,1,MOKER,C,old,z,./images/MOKER.png,,,,,,,,,,,,,,,,,,,,,
,,,,,,,,,,,,,,,,,199051,19,2022-01-29_12h07.11.386,lexical_decision_task_DD_L2,2021.2.3,MacIntel,60.0024001,,,,,,,,,,,,0.6027,1,,,,,,,,,,,,,,z,1,0.6027,,,,,,,,0.116310764,-0.394344618,0,0,0,,0,46,46,158,1,EGECT,LB,old,z,./images/EGECTLB.png,,,,,,,,,,,,,,,,,,,,,
,,,,,,,,,,,,,,,,,199051,19,2022-01-29_12h07.11.386,lexical_decision_task_DD_L2,2021.2.3,MacIntel,60.0024001,,,,,,,,,,,,0.7233,1,,,,,,,,,,,,,,z,1,0.7233,,,,,,,,0.116310764,-0.394344618,0,0,0,,0,47,47,135,1,JOODY,C,old,z,./images/JOODY.png,,,,,,,,,,,,,,,,,,,,,
,,,,,,,,,,,,,,,,,199051,19,2022-01-29_12h07.11.386,lexical_decision_task_DD_L2,2021.2.3,MacIntel,60.0024001,,,,,,,,,,,,0.4967,1,,,,,,,,,,,,,,m,1,0.4967,,,,,,,,0.116310764,-0.394344618,0,0,0,,0,48,48,29,1,CRUMB,C,old,m,./images/CRUMB.png,,,,,,,,,,,,,,,,,,,,,
,,,,,,,,,,,,,,,,,199051,19,2022-01-29_12h07.11.386,lexical_decision_task_DD_L2,2021.2.3,MacIntel,60.0024001,,,,,,,,,,,,0.5724,1,,,,,,,,,,,,,,z,1,0.5724,,,,,,,,0.116310764,-0.394344618,0,0,0,,0,49,49,101,1,GLEET,LB,old,z,./images/GLEETLB.png,,,,,,,,,,,,,,,,,,,,,
,,,,,,,,,,,,,,,,,199051,19,2022-01-29_12h07.11.386,lexical_decision_task_DD_L2,2021.2.3,MacIntel,60.0024001,,,,,,,,,,,,0.6316,1,,,,,,,,,,,,,,z,1,0.6316,,,,,,,,0.116310764,-0.394344618,0,0,0,,0,50,50,151,1,TINKY,HB,old,z,./images/TINKYHB.png,,,,,,,,,,,,,,,,,,,,,
,,,,,,,,,,,,,,,,,199051,19,2022-01-29_12h07.11.386,lexical_decision_task_DD_L2,2021.2.3,MacIntel,60.0024001,,,,,,,,,,,,0.4626,1,,,,,,,,,,,,,,m,1,0.4626,,,,,,,,0.116310764,-0.394344618,0,0,0,,0,51,51,35,1,PEACH,C,old,m,./images/PEACH.png,,,,,,,,,,,,,,,,,,,,,
,,,,,,,,,,,,,,,,,199051,19,2022-01-29_12h07.11.386,lexical_decision_task_DD_L2,2021.2.3,MacIntel,60.0024001,,,,,,,,,,,,0.6145,1,,,,,,,,,,,,,,z,1,0.6145,,,,,,,,0.116310764,-0.394344618,0,0,0,,0,52,52,85,1,CHULK,HB,old,z,./images/CHULKHB.png,,,,,,,,,,,,,,,,,,,,,
,,,,,,,,,,,,,,,,,199051,19,2022-01-29_12h07.11.386,lexical_decision_task_DD_L2,2021.2.3,MacIntel,60.0024001,,,,,,,,,,,,0.6842,1,,,,,,,,,,,,,,m,1,0.6842,,,,,,,,0.116310764,-0.394344618,0,0,0,,0,53,53,1,1,PLANK,LB,old,m,./images/PLANKLB.png,,,,,,,,,,,,,,,,,,,,,
,,,,,,,,,,,,,,,,,199051,19,2022-01-29_12h07.11.386,lexical_decision_task_DD_L2,2021.2.3,MacIntel,60.0024001,,,,,,,,,,,,0.5196,1,,,,,,,,,,,,,,z,1,0.5196,,,,,,,,0.116310764,-0.394344618,0,0,0,,0,54,54,156,1,HIXES,C,old,z,./images/HIXES.png,,,,,,,,,,,,,,,,,,,,,
,,,,,,,,,,,,,,,,,199051,19,2022-01-29_12h07.11.386,lexical_decision_task_DD_L2,2021.2.3,MacIntel,60.0024001,,,,,,,,,,,,0.6395,1,,,,,,,,,,,,,,z,1,0.6395,,,,,,,,0.116310764,-0.394344618,0,0,0,,0,55,55,108,1,GRUET,C,old,z,./images/GRUET.png,,,,,,,,,,,,,,,,,,,,,
,,,,,,,,,,,,,,,,,199051,19,2022-01-29_12h07.11.386,lexical_decision_task_DD_L2,2021.2.3,MacIntel,60.0024001,,,,,,,,,,,,0.7385,1,,,,,,,,,,,,,,z,1,0.7385,,,,,,,,0.116310764,-0.394344618,0,0,0,,0,56,56,129,1,PRANS,C,old,z,./images/PRANS.png,,,,,,,,,,,,,,,,,,,,,
,,,,,,,,,,,,,,,,,199051,19,2022-01-29_12h07.11.386,lexical_decision_task_DD_L2,2021.2.3,MacIntel,60.0024001,,,,,,,,,,,,0.6585,0,,,,,,,,,,,,,,m,0,0.6585,,,,,,,,0.116310764,-0.394344618,0,0,0,,0,57,57,106,1,CLUMS,HB,old,z,./images/CLUMSHB.png,,,,,,,,,,,,,,,,,,,,,
,,,,,,,,,,,,,,,,,199051,19,2022-01-29_12h07.11.386,lexical_decision_task_DD_L2,2021.2.3,MacIntel,60.0024001,,,,,,,,,,,,0.8003,0,,,,,,,,,,,,,,m,0,0.8003,,,,,,,,0.116310764,-0.394344618,0,0,0,,0,58,58,142,1,PLASK,HB,old,z,./images/PLASKHB.png,,,,,,,,,,,,,,,,,,,,,
,,,,,,,,,,,,,,,,,199051,19,2022-01-29_12h07.11.386,lexical_decision_task_DD_L2,2021.2.3,MacIntel,60.0024001,,,,,,,,,,,,0.7813,1,,,,,,,,,,,,,,m,1,0.7813,,,,,,,,0.116310764,-0.394344618,0,0,0,,0,59,59,39,1,SHELF,HB,old,m,./images/SHELFHB.png,,,,,,,,,,,,,,,,,,,,,
,,,,,,,,,,,,,,,,,199051,19,2022-01-29_12h07.11.386,lexical_decision_task_DD_L2,2021.2.3,MacIntel,60.0024001,,,,,,,,,,,,0.6059,1,,,,,,,,,,,,,,z,1,0.6059,,,,,,,,0.116310764,-0.394344618,0,0,0,,0,60,60,86,1,AIFED,LB,old,z,./images/AIFEDLB.png,,,,,,,,,,,,,,,,,,,,,
,,,,,,,,,,,,,,,,,199051,19,2022-01-29_12h07.11.386,lexical_decision_task_DD_L2,2021.2.3,MacIntel,60.0024001,,,,,,,,,,,,0.6973,0,,,,,,,,,,,,,,m,0,0.6973,,,,,,,,0.116310764,-0.394344618,0,0,0,,0,61,61,91,1,SHENS,HB,old,z,./images/SHENSHB.png,,,,,,,,,,,,,,,,,,,,,
,,,,,,,,,,,,,,,,,199051,19,2022-01-29_12h07.11.386,lexical_decision_task_DD_L2,2021.2.3,MacIntel,60.0024001,,,,,,,,,,,,0.6509,0,,,,,,,,,,,,,,m,0,0.6509,,,,,,,,0.116310764,-0.394344618,0,0,0,,0,62,62,152,1,FRAIN,LB,old,z,./images/FRAINLB.png,,,,,,,,,,,,,,,,,,,,,
,,,,,,,,,,,,,,,,,199051,19,2022-01-29_12h07.11.386,lexical_decision_task_DD_L2,2021.2.3,MacIntel,60.0024001,,,,,,,,,,,,0.706,1,,,,,,,,,,,,,,z,1,0.706,,,,,,,,0.116310764,-0.394344618,0,0,0,,0,63,63,138,1,PLICE,C,old,z,./images/PLICE.png,,,,,,,,,,,,,,,,,,,,,
,,,,,,,,,,,,,,,,,199051,19,2022-01-29_12h07.11.386,lexical_decision_task_DD_L2,2021.2.3,MacIntel,60.0024001,,,,,,,,,,,,0.5201,1,,,,,,,,,,,,,,m,1,0.5201,,,,,,,,0.116310764,-0.394344618,0,0,0,,0,64,64,22,1,MELON,LB,old,m,./images/MELONLB.png,,,,,,,,,,,,,,,,,,,,,
,,,,,,,,,,,,,,,,,199051,19,2022-01-29_12h07.11.386,lexical_decision_task_DD_L2,2021.2.3,MacIntel,60.0024001,,,,,,,,,,,,0.5823,1,,,,,,,,,,,,,,m,1,0.5823,,,,,,,,0.116310764,-0.394344618,0,0,0,,0,65,65,31,1,QUILL,LB,old,m,./images/QUILLLB.png,,,,,,,,,,,,,,,,,,,,,
,,,,,,,,,,,,,,,,,199051,19,2022-01-29_12h07.11.386,lexical_decision_task_DD_L2,2021.2.3,MacIntel,60.0024001,,,,,,,,,,,,0.6661,1,,,,,,,,,,,,,,m,1,0.6661,,,,,,,,0.116310764,-0.394344618,0,0,0,,0,66,66,54,1,TRIPOD,HB,old,m,./images/TRIPODHB.png,,,,,,,,,,,,,,,,,,,,,
,,,,,,,,,,,,,,,,,199051,19,2022-01-29_12h07.11.386,lexical_decision_task_DD_L2,2021.2.3,MacIntel,60.0024001,,,,,,,,,,,,0.5384,1,,,,,,,,,,,,,,m,1,0.5384,,,,,,,,0.116310764,-0.394344618,0,0,0,,0,67,67,53,1,CARPET,C,old,m,./images/CARPET.png,,,,,,,,,,,,,,,,,,,,,
,,,,,,,,,,,,,,,,,199051,19,2022-01-29_12h07.11.386,lexical_decision_task_DD_L2,2021.2.3,MacIntel,60.0024001,,,,,,,,,,,,0.833,1,,,,,,,,,,,,,,z,1,0.833,,,,,,,,0.116310764,-0.394344618,0,0,0,,0,68,68,113,1,LINEW,LB,old,z,./images/LINEWLB.png,,,,,,,,,,,,,,,,,,,,,
,,,,,,,,,,,,,,,,,199051,19,2022-01-29_12h07.11.386,lexical_decision_task_DD_L2,2021.2.3,MacIntel,60.0024001,,,,,,,,,,,,0.7859,0,,,,,,,,,,,,,,z,0,0.7859,,,,,,,,0.116310764,-0.394344618,0,0,0,,0,69,69,43,1,MOSQUE,LB,old,m,./images/MOSQUELB.png,,,,,,,,,,,,,,,,,,,,,
,,,,,,,,,,,,,,,,,199051,19,2022-01-29_12h07.11.386,lexical_decision_task_DD_L2,2021.2.3,MacIntel,60.0024001,,,,,,,,,,,,0.6396,1,,,,,,,,,,,,,,m,1,0.6396,,,,,,,,0.116310764,-0.394344618,0,0,0,,0,70,70,59,1,BURIAL,C,old,m,./images/BURIAL.png,,,,,,,,,,,,,,,,,,,,,
,,,,,,,,,,,,,,,,,199051,19,2022-01-29_12h07.11.386,lexical_decision_task_DD_L2,2021.2.3,MacIntel,60.0024001,,,,,,,,,,,,0.5721,1,,,,,,,,,,,,,,m,1,0.5721,,,,,,,,0.116310764,-0.394344618,0,0,0,,0,71,71,60,1,TWINS,HB,old,m,./images/TWINSHB.png,,,,,,,,,,,,,,,,,,,,,
,,,,,,,,,,,,,,,,,199051,19,2022-01-29_12h07.11.386,lexical_decision_task_DD_L2,2021.2.3,MacIntel,60.0024001,,,,,,,,,,,,0.5154,1,,,,,,,,,,,,,,m,1,0.5154,,,,,,,,0.116310764,-0.394344618,0,0,0,,0,72,72,73,1,SNACK,LB,old,m,./images/SNACKLB.png,,,,,,,,,,,,,,,,,,,,,
,,,,,,,,,,,,,,,,,199051,19,2022-01-29_12h07.11.386,lexical_decision_task_DD_L2,2021.2.3,MacIntel,60.0024001,,,,,,,,,,,,0.511,1,,,,,,,,,,,,,,m,1,0.511,,,,,,,,0.116310764,-0.394344618,0,0,0,,0,73,73,61,1,CANDLE,LB,old,m,./images/CANDLELB.png,,,,,,,,,,,,,,,,,,,,,
,,,,,,,,,,,,,,,,,199051,19,2022-01-29_12h07.11.386,lexical_decision_task_DD_L2,2021.2.3,MacIntel,60.0024001,,,,,,,,,,,,0.7862,1,,,,,,,,,,,,,,z,1,0.7862,,,,,,,,0.116310764,-0.394344618,0,0,0,,0,74,74,99,1,BACKY,C,old,z,./images/BACKY.png,,,,,,,,,,,,,,,,,,,,,
,,,,,,,,,,,,,,,,,199051,19,2022-01-29_12h07.11.386,lexical_decision_task_DD_L2,2021.2.3,MacIntel,60.0024001,,,,,,,,,,,,0.4013,1,,,,,,,,,,,,,,m,1,0.4013,,,,,,,,0.116310764,-0.394344618,0,0,0,,0,75,75,13,1,MOTOR,LB,old,m,./images/MOTORLB.png,,,,,,,,,,,,,,,,,,,,,
,,,,,,,,,,,,,,,,,199051,19,2022-01-29_12h07.11.386,lexical_decision_task_DD_L2,2021.2.3,MacIntel,60.0024001,,,,,,,,,,,,0.4786,1,,,,,,,,,,,,,,m,1,0.4786,,,,,,,,0.116310764,-0.394344618,0,0,0,,0,76,76,5,1,PASTA,C,old,m,./images/PASTA.png,,,,,,,,,,,,,,,,,,,,,
,,,,,,,,,,,,,,,,,199051,19,2022-01-29_12h07.11.386,lexical_decision_task_DD_L2,2021.2.3,MacIntel,60.0024001,,,,,,,,,,,,0.5794,1,,,,,,,,,,,,,,m,1,0.5794,,,,,,,,0.116310764,-0.394344618,0,0,0,,0,77,77,6,1,SQUARE,HB,old,m,./images/SQUAREHB.png,,,,,,,,,,,,,,,,,,,,,
,,,,,,,,,,,,,,,,,199051,19,2022-01-29_12h07.11.386,lexical_decision_task_DD_L2,2021.2.3,MacIntel,60.0024001,,,,,,,,,,,,0.711,1,,,,,,,,,,,,,,z,1,0.711,,,,,,,,0.116310764,-0.394344618,0,0,0,,0,78,78,90,1,NEAST,C,old,z,./images/NEAST.png,,,,,,,,,,,,,,,,,,,,,
,,,,,,,,,,,,,,,,,199051,19,2022-01-29_12h07.11.386,lexical_decision_task_DD_L2,2021.2.3,MacIntel,60.0024001,,,,,,,,,,,,0.5329,1,,,,,,,,,,,,,,m,1,0.5329,,,,,,,,0.116310764,-0.394344618,0,0,0,,0,79,79,66,1,SWEAT,HB,old,m,./images/SWEATHB.png,,,,,,,,,,,,,,,,,,,,,
,,,,,,,,,,,,,,,,,199051,19,2022-01-29_12h07.11.386,lexical_decision_task_DD_L2,2021.2.3,MacIntel,60.0024001,,,,,,,,,,,,0.6009,1,,,,,,,,,,,,,,z,1,0.6009,,,,,,,,0.116310764,-0.394344618,0,0,0,,0,80,80,137,1,JOOST,LB,old,z,./images/JOOSTLB.png,,,,,,,,,,,,,,,,,,,,,
,,,,,,,,,,,,,,,,,199051,19,2022-01-29_12h07.11.386,lexical_decision_task_DD_L2,2021.2.3,MacIntel,60.0024001,,,,,,,,,,,,0.5977,1,,,,,,,,,,,,,,m,1,0.5977,,,,,,,,0.116310764,-0.394344618,0,0,0,,0,81,81,51,1,ONION,HB,old,m,./images/ONIONHB.png,,,,,,,,,,,,,,,,,,,,,
,,,,,,,,,,,,,,,,,199051,19,2022-01-29_12h07.11.386,lexical_decision_task_DD_L2,2021.2.3,MacIntel,60.0024001,,,,,,,,,,,,0.6215,1,,,,,,,,,,,,,,z,1,0.6215,,,,,,,,0.116310764,-0.394344618,0,0,0,,0,82,82,96,1,KEAMS,C,old,z,./images/KEAMS.png,,,,,,,,,,,,,,,,,,,,,
,,,,,,,,,,,,,,,,,199051,19,2022-01-29_12h07.11.386,lexical_decision_task_DD_L2,2021.2.3,MacIntel,60.0024001,,,,,,,,,,,,0.4633,1,,,,,,,,,,,,,,m,1,0.4633,,,,,,,,0.116310764,-0.394344618,0,0,0,space,0,83,83,82,1,SUNSET,LB,old,m,./images/SUNSETLB.png,1.2955,,,,,,,,,,,,,,,,,,,,
,,,,,,,,,,,,,,,,,199051,19,2022-01-29_12h07.11.386,lexical_decision_task_DD_L2,2021.2.3,MacIntel,60.0024001,,,,,,,,,,,,0.5555,1,,,,,,,,,,,,,,m,1,0.5555,,,,,,,,0.116310764,-0.394344618,0,0,0,,0,84,84,28,1,FALCON,LB,old,m,./images/FALCONLB.png,,,,,,,,,,,,,,,,,,,,,
,,,,,,,,,,,,,,,,,199051,19,2022-01-29_12h07.11.386,lexical_decision_task_DD_L2,2021.2.3,MacIntel,60.0024001,,,,,,,,,,,,0.5659,1,,,,,,,,,,,,,,z,1,0.5659,,,,,,,,0.116310764,-0.394344618,0,0,0,,0,85,85,164,1,SGREW,LB,old,z,./images/SGREWLB.png,,,,,,,,,,,,,,,,,,,,,
,,,,,,,,,,,,,,,,,199051,19,2022-01-29_12h07.11.386,lexical_decision_task_DD_L2,2021.2.3,MacIntel,60.0024001,,,,,,,,,,,,0.4785,0,,,,,,,,,,,,,,m,0,0.4785,,,,,,,,0.116310764,-0.394344618,0,0,0,,0,86,86,144,1,NAIRY,C,old,z,./images/NAIRY.png,,,,,,,,,,,,,,,,,,,,,
,,,,,,,,,,,,,,,,,199051,19,2022-01-29_12h07.11.386,lexical_decision_task_DD_L2,2021.2.3,MacIntel,60.0024001,,,,,,,,,,,,0.5676,1,,,,,,,,,,,,,,m,1,0.5676,,,,,,,,0.116310764,-0.394344618,0,0,0,,0,87,87,64,1,JELLY,LB,old,m,./images/JELLYLB.png,,,,,,,,,,,,,,,,,,,,,
,,,,,,,,,,,,,,,,,199051,19,2022-01-29_12h07.11.386,lexical_decision_task_DD_L2,2021.2.3,MacIntel,60.0024001,,,,,,,,,,,,0.6293,1,,,,,,,,,,,,,,m,1,0.6293,,,,,,,,0.116310764,-0.394344618,0,0,0,,0,88,88,70,1,URINE,LB,old,m,./images/URINELB.png,,,,,,,,,,,,,,,,,,,,,
,,,,,,,,,,,,,,,,,199051,19,2022-01-29_12h07.11.386,lexical_decision_task_DD_L2,2021.2.3,MacIntel,60.0024001,,,,,,,,,,,,0.8605,1,,,,,,,,,,,,,,z,1,0.8605,,,,,,,,0.116310764,-0.394344618,0,0,0,,0,89,89,120,1,RINED,C,old,z,./images/RINED.png,,,,,,,,,,,,,,,,,,,,,
,,,,,,,,,,,,,,,,,199051,19,2022-01-29_12h07.11.386,lexical_decision_task_DD_L2,2021.2.3,MacIntel,60.0024001,,,,,,,,,,,,0.654,1,,,,,,,,,,,,,,z,1,0.654,,,,,,,,0.116310764,-0.394344618,0,0,0,,0,90,90,131,1,NACES,LB,old,z,./images/NACESLB.png,,,,,,,,,,,,,,,,,,,,,
,,,,,,,,,,,,,,,,,199051,19,2022-01-29_12h07.11.386,lexical_decision_task_DD_L2,2021.2.3,MacIntel,60.0024001,,,,,,,,,,,,0.652,1,,,,,,,,,,,,,,z,1,0.652,,,,,,,,0.116310764,-0.394344618,0,0,0,,0,91,91,89,1,DRIEK,LB,old,z,./images/DRIEKLB.png,,,,,,,,,,,,,,,,,,,,,
,,,,,,,,,,,,,,,,,199051,19,2022-01-29_12h07.11.386,lexical_decision_task_DD_L2,2021.2.3,MacIntel,60.0024001,,,,,,,,,,,,0.5353,1,,,,,,,,,,,,,,m,1,0.5353,,,,,,,,0.116310764,-0.394596354,0,0,0,,0,92,92,72,1,NOOSE,HB,old,m,./images/NOOSEHB.png,,,,,,,,,,,,,,,,,,,,,
,,,,,,,,,,,,,,,,,199051,19,2022-01-29_12h07.11.386,lexical_decision_task_DD_L2,2021.2.3,MacIntel,60.0024001,,,,,,,,,,,,0.5532,1,,,,,,,,,,,,,,m,1,0.5532,,,,,,,,0.116310764,-0.394335938,0,0,0,,0,93,93,3,1,FINGER,HB,old,m,./images/FINGERHB.png,,,,,,,,,,,,,,,,,,,,,
,,,,,,,,,,,,,,,,,199051,19,2022-01-29_12h07.11.386,lexical_decision_task_DD_L2,2021.2.3,MacIntel,60.0024001,,,,,,,,,,,,0.5052,1,,,,,,,,,,,,,,m,1,0.5052,,,,,,,,0.116310764,-0.394335938,0,0,0,,0,94,94,71,1,PIMPLE,C,old,m,./images/PIMPLE.png,,,,,,,,,,,,,,,,,,,,,
,,,,,,,,,,,,,,,,,199051,19,2022-01-29_12h07.11.386,lexical_decision_task_DD_L2,2021.2.3,MacIntel,60.0024001,,,,,,,,,,,,0.6508,1,,,,,,,,,,,,,,z,1,0.6508,,,,,,,,0.116310764,-0.394335938,0,0,0,,0,95,95,146,1,MOOST,LB,old,z,./images/MOOSTLB.png,,,,,,,,,,,,,,,,,,,,,
,,,,,,,,,,,,,,,,,199051,19,2022-01-29_12h07.11.386,lexical_decision_task_DD_L2,2021.2.3,MacIntel,60.0024001,,,,,,,,,,,,0.6882,1,,,,,,,,,,,,,,z,1,0.6882,,,,,,,,0.116310764,-0.394335938,0,0,0,,0,96,96,136,1,WERVE,HB,old,z,./images/WERVEHB.png,,,,,,,,,,,,,,,,,,,,,
,,,,,,,,,,,,,,,,,199051,19,2022-01-29_12h07.11.386,lexical_decision_task_DD_L2,2021.2.3,MacIntel,60.0024001,,,,,,,,,,,,0.4577,1,,,,,,,,,,,,,,m,1,0.4577,,,,,,,,0.116310764,-0.394335938,0,0,0,,0,97,97,68,1,TORCH,C,old,m,./images/TORCH.png,,,,,,,,,,,,,,,,,,,,,
,,,,,,,,,,,,,,,,,199051,19,2022-01-29_12h07.11.386,lexical_decision_task_DD_L2,2021.2.3,MacIntel,60.0024001,,,,,,,,,,,,0.6399,1,,,,,,,,,,,,,,z,1,0.6399,,,,,,,,0.116310764,-0.394335938,0,0,0,,0,98,98,162,1,LEICH,C,old,z,./images/LEICH.png,,,,,,,,,,,,,,,,,,,,,
,,,,,,,,,,,,,,,,,199051,19,2022-01-29_12h07.11.386,lexical_decision_task_DD_L2,2021.2.3,MacIntel,60.0024001,,,,,,,,,,,,0.5136,1,,,,,,,,,,,,,,m,1,0.5136,,,,,,,,0.116310764,-0.394335938,0,0,0,,0,99,99,45,1,KITTEN,HB,old,m,./images/KITTENHB.png,,,,,,,,,,,,,,,,,,,,,
,,,,,,,,,,,,,,,,,199051,19,2022-01-29_12h07.11.386,lexical_decision_task_DD_L2,2021.2.3,MacIntel,60.0024001,,,,,,,,,,,,0.6324,1,,,,,,,,,,,,,,z,1,0.6324,,,,,,,,0.116310764,-0.394335938,0,0,0,,0,100,100,140,1,DOVET,LB,old,z,./images/DOVETLB.png,,,,,,,,,,,,,,,,,,,,,
,,,,,,,,,,,,,,,,,199051,19,2022-01-29_12h07.11.386,lexical_decision_task_DD_L2,2021.2.3,MacIntel,60.0024001,,,,,,,,,,,,1.1351,1,,,,,,,,,,,,,,z,1,1.1351,,,,,,,,0.116310764,-0.394335938,0,0,0,,0,101,101,128,1,GRIFT,LB,old,z,./images/GRIFTLB.png,,,,,,,,,,,,,,,,,,,,,
,,,,,,,,,,,,,,,,,199051,19,2022-01-29_12h07.11.386,lexical_decision_task_DD_L2,2021.2.3,MacIntel,60.0024001,,,,,,,,,,,,0.9182,0,,,,,,,,,,,,,,m,0,0.9182,,,,,,,,0.116310764,-0.394335938,0,0,0,,0,102,102,133,1,POWDY,HB,old,z,./images/POWDYHB.png,,,,,,,,,,,,,,,,,,,,,
,,,,,,,,,,,,,,,,,199051,19,2022-01-29_12h07.11.386,lexical_decision_task_DD_L2,2021.2.3,MacIntel,60.0024001,,,,,,,,,,,,0.5608,0,,,,,,,,,,,,,,m,0,0.5608,,,,,,,,0.116310764,-0.394335938,0,0,0,,0,103,103,141,1,PLEET,C,old,z,./images/PLEET.png,,,,,,,,,,,,,,,,,,,,,
,,,,,,,,,,,,,,,,,199051,19,2022-01-29_12h07.11.386,lexical_decision_task_DD_L2,2021.2.3,MacIntel,60.0024001,,,,,,,,,,,,0.7656,1,,,,,,,,,,,,,,z,1,0.7656,,,,,,,,0.116310764,-0.394335938,0,0,0,,0,104,104,148,1,JOMS,HB,old,z,./images/JOMSHB.png,,,,,,,,,,,,,,,,,,,,,
,,,,,,,,,,,,,,,,,199051,19,2022-01-29_12h07.11.386,lexical_decision_task_DD_L2,2021.2.3,MacIntel,60.0024001,,,,,,,,,,,,0.4995,1,,,,,,,,,,,,,,m,1,0.4995,,,,,,,,0.116310764,-0.394335938,0,0,0,,0,105,105,4,1,MUSCLE,LB,old,m,./images/MUSCLELB.png,,,,,,,,,,,,,,,,,,,,,
,,,,,,,,,,,,,,,,,199051,19,2022-01-29_12h07.11.386,lexical_decision_task_DD_L2,2021.2.3,MacIntel,60.0024001,,,,,,,,,,,,0.6004,1,,,,,,,,,,,,,,m,1,0.6004,,,,,,,,0.116310764,-0.394335938,0,0,0,,0,106,106,79,1,CRUST,LB,old,m,./images/CRUSTLB.png,,,,,,,,,,,,,,,,,,,,,
,,,,,,,,,,,,,,,,,199051,19,2022-01-29_12h07.11.386,lexical_decision_task_DD_L2,2021.2.3,MacIntel,60.0024001,,,,,,,,,,,,1.0206,1,,,,,,,,,,,,,,z,1,1.0206,,,,,,,,0.116310764,-0.394335938,0,0,0,,0,107,107,112,1,MYING,HB,old,z,./images/MYINGHB.png,,,,,,,,,,,,,,,,,,,,,
,,,,,,,,,,,,,,,,,199051,19,2022-01-29_12h07.11.386,lexical_decision_task_DD_L2,2021.2.3,MacIntel,60.0024001,,,,,,,,,,,,0.516,1,,,,,,,,,,,,,,m,1,0.516,,,,,,,,0.116310764,-0.394335938,0,0,0,,0,108,108,36,1,THROAT,HB,old,m,./images/THROATHB.png,,,,,,,,,,,,,,,,,,,,,
,,,,,,,,,,,,,,,,,199051,19,2022-01-29_12h07.11.386,lexical_decision_task_DD_L2,2021.2.3,MacIntel,60.0024001,,,,,,,,,,,,0.5354,1,,,,,,,,,,,,,,m,1,0.5354,,,,,,,,0.116310764,-0.394335938,0,0,0,,0,109,109,56,1,PACKET,C,old,m,./images/PACKET.png,,,,,,,,,,,,,,,,,,,,,
,,,,,,,,,,,,,,,,,199051,19,2022-01-29_12h07.11.386,lexical_decision_task_DD_L2,2021.2.3,MacIntel,60.0024001,,,,,,,,,,,,0.4859,1,,,,,,,,,,,,,,m,1,0.4859,,,,,,,,0.116310764,-0.394335938,0,0,0,,0,110,110,37,1,BIRTH,LB,old,m,./images/BIRTHLB.png,,,,,,,,,,,,,,,,,,,,,
,,,,,,,,,,,,,,,,,199051,19,2022-01-29_12h07.11.386,lexical_decision_task_DD_L2,2021.2.3,MacIntel,60.0024001,,,,,,,,,,,,0.5735,1,,,,,,,,,,,,,,z,1,0.5735,,,,,,,,0.116310764,-0.394335938,0,0,0,,0,111,111,102,1,DULLE,C,old,z,./images/DULLE.png,,,,,,,,,,,,,,,,,,,,,
,,,,,,,,,,,,,,,,,199051,19,2022-01-29_12h07.11.386,lexical_decision_task_DD_L2,2021.2.3,MacIntel,60.0024001,,,,,,,,,,,,1.0836,1,,,,,,,,,,,,,,m,1,1.0836,,,,,,,,0.116310764,-0.394335938,0,0,0,,0,112,112,69,1,COOKER,HB,old,m,./images/COOKERHB.png,,,,,,,,,,,,,,,,,,,,,
,,,,,,,,,,,,,,,,,199051,19,2022-01-29_12h07.11.386,lexical_decision_task_DD_L2,2021.2.3,MacIntel,60.0024001,,,,,,,,,,,,0.5199,1,,,,,,,,,,,,,,m,1,0.5199,,,,,,,,0.1165625,-0.394335938,0,0,0,,0,113,113,38,1,LADDER,C,old,m,./images/LADDER.png,,,,,,,,,,,,,,,,,,,,,
,,,,,,,,,,,,,,,,,199051,19,2022-01-29_12h07.11.386,lexical_decision_task_DD_L2,2021.2.3,MacIntel,60.0024001,,,,,,,,,,,,0.5807,1,,,,,,,,,,,,,,z,1,0.5807,,,,,,,,0.1165625,-0.394335938,0,0,0,,0,114,114,161,1,BLAPS,LB,old,z,./images/BLAPSLB.png,,,,,,,,,,,,,,,,,,,,,
,,,,,,,,,,,,,,,,,199051,19,2022-01-29_12h07.11.386,lexical_decision_task_DD_L2,2021.2.3,MacIntel,60.0024001,,,,,,,,,,,,0.7444,1,,,,,,,,,,,,,,z,1,0.7444,,,,,,,,0.1165625,-0.394335938,0,0,0,,0,115,115,127,1,NINDY,HB,old,z,./images/NINDYHB.png,,,,,,,,,,,,,,,,,,,,,
,,,,,,,,,,,,,,,,,199051,19,2022-01-29_12h07.11.386,lexical_decision_task_DD_L2,2021.2.3,MacIntel,60.0024001,,,,,,,,,,,,0.5549,1,,,,,,,,,,,,,,m,1,0.5549,,,,,,,,0.1165625,-0.394335938,0,0,0,,0,116,116,40,1,SWING,LB,old,m,./images/SWINGLB.png,,,,,,,,,,,,,,,,,,,,,
,,,,,,,,,,,,,,,,,199051,19,2022-01-29_12h07.11.386,lexical_decision_task_DD_L2,2021.2.3,MacIntel,60.0024001,,,,,,,,,,,,0.6215,0,,,,,,,,,,,,,,z,0,0.6215,,,,,,,,0.1165625,-0.394335938,0,0,0,,0,117,117,19,1,DOUGH,LB,old,m,./images/DOUGHLB.png,,,,,,,,,,,,,,,,,,,,,
,,,,,,,,,,,,,,,,,199051,19,2022-01-29_12h07.11.386,lexical_decision_task_DD_L2,2021.2.3,MacIntel,60.0024001,,,,,,,,,,,,0.6296,1,,,,,,,,,,,,,,m,1,0.6296,,,,,,,,0.1165625,-0.394335938,0,0,0,,0,118,118,81,1,POODLE,HB,old,m,./images/POODLEHB.png,,,,,,,,,,,,,,,,,,,,,
,,,,,,,,,,,,,,,,,199051,19,2022-01-29_12h07.11.386,lexical_decision_task_DD_L2,2021.2.3,MacIntel,60.0024001,,,,,,,,,,,,0.6671,1,,,,,,,,,,,,,,z,1,0.6671,,,,,,,,0.1165625,-0.394335938,0,0,0,,0,119,119,95,1,HANTY,LB,old,z,./images/HANTYLB.png,,,,,,,,,,,,,,,,,,,,,
,,,,,,,,,,,,,,,,,199051,19,2022-01-29_12h07.11.386,lexical_decision_task_DD_L2,2021.2.3,MacIntel,60.0024001,,,,,,,,,,,,0.6252,1,,,,,,,,,,,,,,m,1,0.6252,,,,,,,,0.1165625,-0.394335938,0,0,0,,0,120,120,75,1,GRAIN,HB,old,m,./images/GRAINHB.png,,,,,,,,,,,,,,,,,,,,,
,,,,,,,,,,,,,,,,,199051,19,2022-01-29_12h07.11.386,lexical_decision_task_DD_L2,2021.2.3,MacIntel,60.0024001,,,,,,,,,,,,0.5395,1,,,,,,,,,,,,,,m,1,0.5395,,,,,,,,0.1165625,-0.394335938,0,0,0,,0,121,121,65,1,FARMER,C,old,m,./images/FARMER.png,,,,,,,,,,,,,,,,,,,,,
,,,,,,,,,,,,,,,,,199051,19,2022-01-29_12h07.11.386,lexical_decision_task_DD_L2,2021.2.3,MacIntel,60.0024001,,,,,,,,,,,,0.6651,1,,,,,,,,,,,,,,z,1,0.6651,,,,,,,,0.1165625,-0.394335938,0,0,0,,0,122,122,107,1,FASKS,LB,old,z,./images/FASKSLB.png,,,,,,,,,,,,,,,,,,,,,
,,,,,,,,,,,,,,,,,199051,19,2022-01-29_12h07.11.386,lexical_decision_task_DD_L2,2021.2.3,MacIntel,60.0024001,,,,,,,,,,,,0.8313,1,,,,,,,,,,,,,,z,1,0.8313,,,,,,,,0.1165625,-0.394335938,0,0,0,,0,123,123,123,1,SEDGE,C,old,z,./images/SEDGE.png,,,,,,,,,,,,,,,,,,,,,
,,,,,,,,,,,,,,,,,199051,19,2022-01-29_12h07.11.386,lexical_decision_task_DD_L2,2021.2.3,MacIntel,60.0024001,,,,,,,,,,,,0.605,1,,,,,,,,,,,,,,m,1,0.605,,,,,,,,0.1165625,-0.394335938,0,0,0,,0,124,124,8,1,TULIP,C,old,m,./images/TULIP.png,,,,,,,,,,,,,,,,,,,,,
,,,,,,,,,,,,,,,,,199051,19,2022-01-29_12h07.11.386,lexical_decision_task_DD_L2,2021.2.3,MacIntel,60.0024001,,,,,,,,,,,,0.7696,1,,,,,,,,,,,,,,z,1,0.7696,,,,,,,,0.139019097,-0.384435764,0,0,0,space,0,125,125,132,1,SCIFF,C,old,z,./images/SCIFF.png,1.0863,,,,,,,,,,,,,,,,,,,,
,,,,,,,,,,,,,,,,,199051,19,2022-01-29_12h07.11.386,lexical_decision_task_DD_L2,2021.2.3,MacIntel,60.0024001,,,,,,,,,,,,0.5496,1,,,,,,,,,,,,,,m,1,0.5496,,,,,,,,0.139019097,-0.384435764,0,0,0,,0,126,126,12,1,SHORE,HB,old,m,./images/SHOREHB.png,,,,,,,,,,,,,,,,,,,,,
,,,,,,,,,,,,,,,,,199051,19,2022-01-29_12h07.11.386,lexical_decision_task_DD_L2,2021.2.3,MacIntel,60.0024001,,,,,,,,,,,,0.6819,1,,,,,,,,,,,,,,z,1,0.6819,,,,,,,,0.139019097,-0.384435764,0,0,0,,0,127,127,163,1,GAMBA,HB,old,z,./images/GAMBAHB.png,,,,,,,,,,,,,,,,,,,,,
,,,,,,,,,,,,,,,,,199051,19,2022-01-29_12h07.11.386,lexical_decision_task_DD_L2,2021.2.3,MacIntel,60.0024001,,,,,,,,,,,,0.9152,1,,,,,,,,,,,,,,m,1,0.9152,,,,,,,,0.139019097,-0.384435764,0,0,0,,0,128,128,18,1,JAGUAR,HB,old,m,./images/JAGUARHB.png,,,,,,,,,,,,,,,,,,,,,
,,,,,,,,,,,,,,,,,199051,19,2022-01-29_12h07.11.386,lexical_decision_task_DD_L2,2021.2.3,MacIntel,60.0024001,,,,,,,,,,,,0.5834,1,,,,,,,,,,,,,,m,1,0.5834,,,,,,,,0.139019097,-0.384435764,0,0,0,,0,129,129,27,1,ATTIC,HB,old,m,./images/ATTICHB.png,,,,,,,,,,,,,,,,,,,,,
,,,,,,,,,,,,,,,,,199051,19,2022-01-29_12h07.11.386,lexical_decision_task_DD_L2,2021.2.3,MacIntel,60.0024001,,,,,,,,,,,,0.6799,1,,,,,,,,,,,,,,z,1,0.6799,,,,,,,,0.139019097,-0.384435764,0,0,0,,0,130,130,103,1,FLORT,HB,old,z,./images/FLORTHB.png,,,,,,,,,,,,,,,,,,,,,
,,,,,,,,,,,,,,,,,199051,19,2022-01-29_12h07.11.386,lexical_decision_task_DD_L2,2021.2.3,MacIntel,60.0024001,,,,,,,,,,,,0.5719,0,,,,,,,,,,,,,,m,0,0.5719,,,,,,,,0.139019097,-0.384435764,0,0,0,,0,131,131,130,1,CRILL,HB,old,z,./images/CRILLHB.png,,,,,,,,,,,,,,,,,,,,,
,,,,,,,,,,,,,,,,,199051,19,2022-01-29_12h07.11.386,lexical_decision_task_DD_L2,2021.2.3,MacIntel,60.0024001,,,,,,,,,,,,0.5399,1,,,,,,,,,,,,,,m,1,0.5399,,,,,,,,0.139019097,-0.384435764,0,0,0,,0,132,132,74,1,CEMENT,C,old,m,./images/CEMENT.png,,,,,,,,,,,,,,,,,,,,,
,,,,,,,,,,,,,,,,,199051,19,2022-01-29_12h07.11.386,lexical_decision_task_DD_L2,2021.2.3,MacIntel,60.0024001,,,,,,,,,,,,0.4769,1,,,,,,,,,,,,,,m,1,0.4769,,,,,,,,0.139019097,-0.384435764,0,0,0,,0,133,133,67,1,SAILOR,LB,old,m,./images/SAILORLB.png,,,,,,,,,,,,,,,,,,,,,
,,,,,,,,,,,,,,,,,199051,19,2022-01-29_12h07.11.386,lexical_decision_task_DD_L2,2021.2.3,MacIntel,60.0024001,,,,,,,,,,,,0.6524,1,,,,,,,,,,,,,,z,1,0.6524,,,,,,,,0.139019097,-0.384435764,0,0,0,,0,134,134,145,1,LAMEL,HB,old,z,./images/LAMELHB.png,,,,,,,,,,,,,,,,,,,,,
,,,,,,,,,,,,,,,,,199051,19,2022-01-29_12h07.11.386,lexical_decision_task_DD_L2,2021.2.3,MacIntel,60.0024001,,,,,,,,,,,,0.5856,1,,,,,,,,,,,,,,m,1,0.5856,,,,,,,,0.139019097,-0.384435764,0,0,0,,0,135,135,50,1,MALLET,C,old,m,./images/MALLET.png,,,,,,,,,,,,,,,,,,,,,
,,,,,,,,,,,,,,,,,199051,19,2022-01-29_12h07.11.386,lexical_decision_task_DD_L2,2021.2.3,MacIntel,60.0024001,,,,,,,,,,,,0.6647,1,,,,,,,,,,,,,,z,1,0.6647,,,,,,,,0.139019097,-0.384435764,0,0,0,,0,136,136,149,1,VEASE,LB,old,z,./images/VEASELB.png,,,,,,,,,,,,,,,,,,,,,
,,,,,,,,,,,,,,,,,199051,19,2022-01-29_12h07.11.386,lexical_decision_task_DD_L2,2021.2.3,MacIntel,60.0024001,,,,,,,,,,,,0.6642,1,,,,,,,,,,,,,,z,1,0.6642,,,,,,,,0.139019097,-0.384435764,0,0,0,,0,137,137,92,1,PAIMS,LB,old,z,./images/PAIMSLB.png,,,,,,,,,,,,,,,,,,,,,
,,,,,,,,,,,,,,,,,199051,19,2022-01-29_12h07.11.386,lexical_decision_task_DD_L2,2021.2.3,MacIntel,60.0024001,,,,,,,,,,,,0.6224,1,,,,,,,,,,,,,,z,1,0.6224,,,,,,,,0.139019097,-0.384435764,0,0,0,,0,138,138,117,1,STEEG,C,old,z,./images/STEEG.png,,,,,,,,,,,,,,,,,,,,,
,,,,,,,,,,,,,,,,,199051,19,2022-01-29_12h07.11.386,lexical_decision_task_DD_L2,2021.2.3,MacIntel,60.0024001,,,,,,,,,,,,0.6695,1,,,,,,,,,,,,,,z,1,0.6695,,,,,,,,0.139019097,-0.384435764,0,0,0,,0,139,139,125,1,MOOKY,LB,old,z,./images/MOOKYLB.png,,,,,,,,,,,,,,,,,,,,,
,,,,,,,,,,,,,,,,,199051,19,2022-01-29_12h07.11.386,lexical_decision_task_DD_L2,2021.2.3,MacIntel,60.0024001,,,,,,,,,,,,0.7834,1,,,,,,,,,,,,,,z,1,0.7834,,,,,,,,0.139019097,-0.384435764,0,0,0,,0,140,140,154,1,THINT,HB,old,z,./images/THINTHB.png,,,,,,,,,,,,,,,,,,,,,
,,,,,,,,,,,,,,,,,199051,19,2022-01-29_12h07.11.386,lexical_decision_task_DD_L2,2021.2.3,MacIntel,60.0024001,,,,,,,,,,,,0.8227,0,,,,,,,,,,,,,,m,0,0.8227,,,,,,,,0.139019097,-0.384435764,0,0,0,,0,141,141,121,1,CEERS,HB,old,z,./images/CEERSHB.png,,,,,,,,,,,,,,,,,,,,,
,,,,,,,,,,,,,,,,,199051,19,2022-01-29_12h07.11.386,lexical_decision_task_DD_L2,2021.2.3,MacIntel,60.0024001,,,,,,,,,,,,0.7938,1,,,,,,,,,,,,,,z,1,0.7938,,,,,,,,0.139019097,-0.384435764,0,0,0,,0,142,142,93,1,SMONE,C,old,z,./images/SMONE.png,,,,,,,,,,,,,,,,,,,,,
,,,,,,,,,,,,,,,,,199051,19,2022-01-29_12h07.11.386,lexical_decision_task_DD_L2,2021.2.3,MacIntel,60.0024001,,,,,,,,,,,,0.5764,1,,,,,,,,,,,,,,m,1,0.5764,,,,,,,,0.139019097,-0.384435764,0,0,0,,0,143,143,42,1,FOLDER,HB,old,m,./images/FOLDERHB.png,,,,,,,,,,,,,,,,,,,,,
,,,,,,,,,,,,,,,,,199051,19,2022-01-29_12h07.11.386,lexical_decision_task_DD_L2,2021.2.3,MacIntel,60.0024001,,,,,,,,,,,,0.6066,1,,,,,,,,,,,,,,m,1,0.6066,,,,,,,,0.139019097,-0.384435764,0,0,0,,0,144,144,83,1,JUNGLE,C,old,m,./images/JUNGLE.png,,,,,,,,,,,,,,,,,,,,,
,,,,,,,,,,,,,,,,,199051,19,2022-01-29_12h07.11.386,lexical_decision_task_DD_L2,2021.2.3,MacIntel,60.0024001,,,,,,,,,,,,0.8314,1,,,,,,,,,,,,,,m,1,0.8314,,,,,,,,0.139019097,-0.384435764,0,0,0,,0,145,145,0,1,TOMATO,HB,old,m,./images/TOMATOHB.png,,,,,,,,,,,,,,,,,,,,,
,,,,,,,,,,,,,,,,,199051,19,2022-01-29_12h07.11.386,lexical_decision_task_DD_L2,2021.2.3,MacIntel,60.0024001,,,,,,,,,,,,0.6982,1,,,,,,,,,,,,,,m,1,0.6982,,,,,,,,0.139019097,-0.384435764,0,0,0,,0,146,146,10,1,BELLY,LB,old,m,./images/BELLYLB.png,,,,,,,,,,,,,,,,,,,,,
,,,,,,,,,,,,,,,,,199051,19,2022-01-29_12h07.11.386,lexical_decision_task_DD_L2,2021.2.3,MacIntel,60.0024001,,,,,,,,,,,,0.715,0,,,,,,,,,,,,,,z,0,0.715,,,,,,,,0.139019097,-0.384435764,0,0,0,,0,147,147,16,1,PENCE,LB,old,m,./images/PENCELB.png,,,,,,,,,,,,,,,,,,,,,
,,,,,,,,,,,,,,,,,199051,19,2022-01-29_12h07.11.386,lexical_decision_task_DD_L2,2021.2.3,MacIntel,60.0024001,,,,,,,,,,,,0.5232,1,,,,,,,,,,,,,,m,1,0.5232,,,,,,,,0.139019097,-0.384435764,0,0,0,,0,148,148,7,1,PAINT,LB,old,m,./images/PAINTLB.png,,,,,,,,,,,,,,,,,,,,,
,,,,,,,,,,,,,,,,,199051,19,2022-01-29_12h07.11.386,lexical_decision_task_DD_L2,2021.2.3,MacIntel,60.0024001,,,,,,,,,,,,0.8636,1,,,,,,,,,,,,,,z,1,0.8636,,,,,,,,0.139019097,-0.384435764,0,0,0,,0,149,149,88,1,GLUSH,HB,old,z,./images/GLUSHHB.png,,,,,,,,,,,,,,,,,,,,,
,,,,,,,,,,,,,,,,,199051,19,2022-01-29_12h07.11.386,lexical_decision_task_DD_L2,2021.2.3,MacIntel,60.0024001,,,,,,,,,,,,0.5565,1,,,,,,,,,,,,,,m,1,0.5565,,,,,,,,0.139019097,-0.384435764,0,0,0,,0,150,150,80,1,WEASEL,C,old,m,./images/WEASEL.png,,,,,,,,,,,,,,,,,,,,,
,,,,,,,,,,,,,,,,,199051,19,2022-01-29_12h07.11.386,lexical_decision_task_DD_L2,2021.2.3,MacIntel,60.0024001,,,,,,,,,,,,0.7835,1,,,,,,,,,,,,,,z,1,0.7835,,,,,,,,0.139019097,-0.384435764,0,0,0,,0,151,151,100,1,DRIBS,HB,old,z,./images/DRIBSHB.png,,,,,,,,,,,,,,,,,,,,,
,,,,,,,,,,,,,,,,,199051,19,2022-01-29_12h07.11.386,lexical_decision_task_DD_L2,2021.2.3,MacIntel,60.0024001,,,,,,,,,,,,0.9163,1,,,,,,,,,,,,,,z,1,0.9163,,,,,,,,0.139019097,-0.384435764,0,0,0,,0,152,152,118,1,BAVEL,HB,old,z,./images/BAVELHB.png,,,,,,,,,,,,,,,,,,,,,
,,,,,,,,,,,,,,,,,199051,19,2022-01-29_12h07.11.386,lexical_decision_task_DD_L2,2021.2.3,MacIntel,60.0024001,,,,,,,,,,,,0.6176,1,,,,,,,,,,,,,,m,1,0.6176,,,,,,,,0.139019097,-0.384435764,0,0,0,,0,153,153,34,1,CANYON,LB,old,m,./images/CANYONLB.png,,,,,,,,,,,,,,,,,,,,,
,,,,,,,,,,,,,,,,,199051,19,2022-01-29_12h07.11.386,lexical_decision_task_DD_L2,2021.2.3,MacIntel,60.0024001,,,,,,,,,,,,1.0411,0,,,,,,,,,,,,,,m,0,1.0411,,,,,,,,0.139019097,-0.384435764,0,0,0,,0,154,154,166,1,SHORY,HB,old,z,./images/SHORYHB.png,,,,,,,,,,,,,,,,,,,,,
,,,,,,,,,,,,,,,,,199051,19,2022-01-29_12h07.11.386,lexical_decision_task_DD_L2,2021.2.3,MacIntel,60.0024001,,,,,,,,,,,,0.6201,1,,,,,,,,,,,,,,m,1,0.6201,,,,,,,,0.139019097,-0.384435764,0,0,0,,0,155,155,14,1,PICKLE,C,old,m,./images/PICKLE.png,,,,,,,,,,,,,,,,,,,,,
,,,,,,,,,,,,,,,,,199051,19,2022-01-29_12h07.11.386,lexical_decision_task_DD_L2,2021.2.3,MacIntel,60.0024001,,,,,,,,,,,,0.751,1,,,,,,,,,,,,,,z,1,0.751,,,,,,,,0.139019097,-0.384435764,0,0,0,,0,156,156,122,1,BLOOT,LB,old,z,./images/BLOOTLB.png,,,,,,,,,,,,,,,,,,,,,
,,,,,,,,,,,,,,,,,199051,19,2022-01-29_12h07.11.386,lexical_decision_task_DD_L2,2021.2.3,MacIntel,60.0024001,,,,,,,,,,,,0.5377,1,,,,,,,,,,,,,,m,1,0.5377,,,,,,,,0.139019097,-0.384435764,0,0,0,,0,157,157,47,1,BERRY,C,old,m,./images/BERRY.png,,,,,,,,,,,,,,,,,,,,,
,,,,,,,,,,,,,,,,,199051,19,2022-01-29_12h07.11.386,lexical_decision_task_DD_L2,2021.2.3,MacIntel,60.0024001,,,,,,,,,,,,0.7652,1,,,,,,,,,,,,,,z,1,0.7652,,,,,,,,0.139019097,-0.384435764,0,0,0,,0,158,158,124,1,TUNCH,HB,old,z,./images/TUNCHHB.png,,,,,,,,,,,,,,,,,,,,,
,,,,,,,,,,,,,,,,,199051,19,2022-01-29_12h07.11.386,lexical_decision_task_DD_L2,2021.2.3,MacIntel,60.0024001,,,,,,,,,,,,0.6353,1,,,,,,,,,,,,,,z,1,0.6353,,,,,,,,0.139019097,-0.384435764,0,0,0,,0,159,159,143,1,MONGS,LB,old,z,./images/MONGSLB.png,,,,,,,,,,,,,,,,,,,,,
,,,,,,,,,,,,,,,,,199051,19,2022-01-29_12h07.11.386,lexical_decision_task_DD_L2,2021.2.3,MacIntel,60.0024001,,,,,,,,,,,,1.2794,1,,,,,,,,,,,,,,z,1,1.2794,,,,,,,,0.139019097,-0.384435764,0,0,0,,0,160,160,94,1,BLANS,HB,old,z,./images/BLANSHB.png,,,,,,,,,,,,,,,,,,,,,
,,,,,,,,,,,,,,,,,199051,19,2022-01-29_12h07.11.386,lexical_decision_task_DD_L2,2021.2.3,MacIntel,60.0024001,,,,,,,,,,,,0.5066,1,,,,,,,,,,,,,,m,1,0.5066,,,,,,,,0.139019097,-0.384435764,0,0,0,,0,161,161,49,1,DRUMS,LB,old,m,./images/DRUMSLB.png,,,,,,,,,,,,,,,,,,,,,
,,,,,,,,,,,,,,,,,199051,19,2022-01-29_12h07.11.386,lexical_decision_task_DD_L2,2021.2.3,MacIntel,60.0024001,,,,,,,,,,,,0.7382,1,,,,,,,,,,,,,,m,1,0.7382,,,,,,,,0.139019097,-0.384435764,0,0,0,,0,162,162,58,1,BABOON,LB,old,m,./images/BABOONLB.png,,,,,,,,,,,,,,,,,,,,,
,,,,,,,,,,,,,,,,,199051,19,2022-01-29_12h07.11.386,lexical_decision_task_DD_L2,2021.2.3,MacIntel,60.0024001,,,,,,,,,,,,0.5339,1,,,,,,,,,,,,,,m,1,0.5339,,,,,,,,0.139019097,-0.384435764,0,0,0,,0,163,163,21,1,KIDNEY,HB,old,m,./images/KIDNEYHB.png,,,,,,,,,,,,,,,,,,,,,
,,,,,,,,,,,,,,,,,199051,19,2022-01-29_12h07.11.386,lexical_decision_task_DD_L2,2021.2.3,MacIntel,60.0024001,,,,,,,,,,,,0.581,1,,,,,,,,,,,,,,m,1,0.581,,,,,,,,0.139019097,-0.384435764,0,0,0,,0,164,164,24,1,SCREW,HB,old,m,./images/SCREWHB.png,,,,,,,,,,,,,,,,,,,,,
,,,,,,,,,,,,,,,,,199051,19,2022-01-29_12h07.11.386,lexical_decision_task_DD_L2,2021.2.3,MacIntel,60.0024001,,,,,,,,,,,,0.7067,1,,,,,,,,,,,,,,z,1,0.7067,,,,,,,,0.139019097,-0.384435764,0,0,0,,0,165,165,104,1,GITTY,LB,old,z,./images/GITTYLB.png,,,,,,,,,,,,,,,,,,,,,
,,,,,,,,,,,,,,,,,199051,19,2022-01-29_12h07.11.386,lexical_decision_task_DD_L2,2021.2.3,MacIntel,60.0024001,,,,,,,,,,,,0.692,1,,,,,,,,,,,,,,z,1,0.692,,,,,,,,0.139019097,-0.384435764,0,0,0,,0,166,166,147,1,ZOLES,C,old,z,./images/ZOLES.png,,,,,,,,,,,,,,,,,,,,,
,,,,,,,,,,,,,,,,,199051,19,2022-01-29_12h07.11.386,lexical_decision_task_DD_L2,2021.2.3,MacIntel,60.0024001,,,,,,,,,,,,1.3058,1,,,,,,,,,,,,,,z,1,1.3058,,,,,,,,0.139019097,-0.384435764,0,0,0,,0,167,167,153,1,CLUPS,C,old,z,./images/CLUPS.png,,,,,,,,,,,,,,,,,,,,,
space,0.139019097,-0.384435764,0,0,0,,,,,,,1,test,"In the next phase you will be presented with the words from the the first phase. Your job is to decide whether you remember seeing the word or not. If you remember seeing the word press ""old"" or type ""m"". If you do not remember seeing the word press ""new"" or type ""z"". Please press the space bar or click on continue to begin. ",,,199051,19,2022-01-29_12h07.11.386,lexical_decision_task_DD_L2,2021.2.3,MacIntel,60.0024001,18.7742,,,,,,,,,,,,,,,,,,,,,,,,,,,,,,,,,,,,,,,,,,,,,,,,,,,,,0,0,0,0,1,,,,,,,,,,,,,,,
space,0.139019097,-0.384435764,0,0,0,,,,,,,1,test,"In the next phase you will be presented with the words from the the first phase. Your job is to decide whether you remember seeing the word or not. If you remember seeing the word press ""old"" or type ""m"". If you do not remember seeing the word press ""new"" or type ""z"". Please press the space bar or click on continue to begin. ",,,199051,19,2022-01-29_12h07.11.386,lexical_decision_task_DD_L2,2021.2.3,MacIntel,60.0024001,1.2541,,,,,,,,,,,,,,,,,,,,,,,,,,,,,,,,,,,,,,,,,,,,,,,,,,,,,1,0,1,0,1,,,,,,,,,,,,,,,
,0.139019097,-0.384435764,1,0,0,instr_done_button,,,,,,1,test,"In the next phase you will be presented with the words from the the first phase. Your job is to decide whether you remember seeing the word or not. If you remember seeing the word press ""old"" or type ""m"". If you do not remember seeing the word press ""new"" or type ""z"". Please press the space bar or click on continue to begin. ",,,199051,19,2022-01-29_12h07.11.386,lexical_decision_task_DD_L2,2021.2.3,MacIntel,60.0024001,,,,,,,,,,,,,,,,,,,,,,,,,,,,,,,,,,,,,,,,,,,,,,,,,,,,,,2,0,2,0,1,,,,,,,,,,,,,,,
,0.064079861,-0.410681424,1,0,0,instr_done_button,,,,,,1,test,"In the next phase you will be presented with the words from the the first phase. Your job is to decide whether you remember seeing the word or not. If you remember seeing the word press ""old"" or type ""m"". If you do not remember seeing the word press ""new"" or type ""z"". Please press the space bar or click on continue to begin. ",,,199051,19,2022-01-29_12h07.11.386,lexical_decision_task_DD_L2,2021.2.3,MacIntel,60.0024001,,,,,,,,,,,,,,,,,,,,,,,,,,,,,,,,,,,,,,,,,,,,,,,,,,,,,,3,0,3,0,1,,,,,,,,,,,,,,,
space,0.064079861,-0.410681424,0,0,0,,,,,,,1,test,"In the next phase you will be presented with the words from the the first phase. Your job is to decide whether you remember seeing the word or not. If you remember seeing the word press ""old"" or type ""m"". If you do not remember seeing the word press ""new"" or type ""z"". Please press the space bar or click on continue to begin. ",,,199051,19,2022-01-29_12h07.11.386,lexical_decision_task_DD_L2,2021.2.3,MacIntel,60.0024001,1.1975,,,,,,,,,,,,,,,,,,,,,,,,,,,,,,,,,,,,,,,,,,,,,,,,,,,,,4,0,4,0,1,,,,,,,,,,,,,,,
,,,,,,,,,,,,,,,,,199051,19,2022-01-29_12h07.11.386,lexical_decision_task_DD_L2,2021.2.3,MacIntel,60.0024001,,,,,,,,,,,,0.8865,0,,,,,,,,,,,,,,,,,,,,,,,,0.064079861,-0.410681424,0,0,0,,,,,,,SAILOR,LB,m,y,./images/SAILORLB.png,,,,,,,z,0,0.8865,,,,,,,,0,0,0,67,1
,,,,,,,,,,,,,,,,,199051,19,2022-01-29_12h07.11.386,lexical_decision_task_DD_L2,2021.2.3,MacIntel,60.0024001,,,,,,,,,,,,0.7363,1,,,,,,,,,,,,,,,,,,,,,,,,0.064079861,-0.410681424,0,0,0,,,,,,,PLANET,C,z,y,./images/PLANET.png,,,,,,,z,1,0.7363,,,,,,,,0,1,1,164,1
,,,,,,,,,,,,,,,,,199051,19,2022-01-29_12h07.11.386,lexical_decision_task_DD_L2,2021.2.3,MacIntel,60.0024001,,,,,,,,,,,,0.7663,1,,,,,,,,,,,,,,,,,,,,,,,,0.064079861,-0.410681424,0,0,0,,,,,,,THROAT,HB,m,y,./images/THROATHB.png,,,,,,,m,1,0.7663,,,,,,,,0,2,2,36,1
,,,,,,,,,,,,,,,,,199051,19,2022-01-29_12h07.11.386,lexical_decision_task_DD_L2,2021.2.3,MacIntel,60.0024001,,,,,,,,,,,,0.9623,1,,,,,,,,,,,,,,,,,,,,,,,,0.064079861,-0.410681424,0,0,0,,,,,,,COUCH,C,m,y,./images/COUCH.png,,,,,,,m,1,0.9623,,,,,,,,0,3,3,77,1
,,,,,,,,,,,,,,,,,199051,19,2022-01-29_12h07.11.386,lexical_decision_task_DD_L2,2021.2.3,MacIntel,60.0024001,,,,,,,,,,,,0.7832,1,,,,,,,,,,,,,,,,,,,,,,,,0.064079861,-0.410681424,0,0,0,,,,,,,BUTTER,HB,z,y,./images/BUTTERHB.png,,,,,,,z,1,0.7832,,,,,,,,0,4,4,111,1
,,,,,,,,,,,,,,,,,199051,19,2022-01-29_12h07.11.386,lexical_decision_task_DD_L2,2021.2.3,MacIntel,60.0024001,,,,,,,,,,,,0.6163,0,,,,,,,,,,,,,,,,,,,,,,,,0.064079861,-0.410681424,0,0,0,,,,,,,SHIELD,HB,z,y,./images/SHIELDHB.png,,,,,,,m,0,0.6163,,,,,,,,0,5,5,132,1
,,,,,,,,,,,,,,,,,199051,19,2022-01-29_12h07.11.386,lexical_decision_task_DD_L2,2021.2.3,MacIntel,60.0024001,,,,,,,,,,,,0.8494,1,,,,,,,,,,,,,,,,,,,,,,,,0.064079861,-0.410681424,0,0,0,,,,,,,TIGER,LB,z,y,./images/TIGERLB.png,,,,,,,z,1,0.8494,,,,,,,,0,6,6,121,1
,,,,,,,,,,,,,,,,,199051,19,2022-01-29_12h07.11.386,lexical_decision_task_DD_L2,2021.2.3,MacIntel,60.0024001,,,,,,,,,,,,0.593,1,,,,,,,,,,,,,,,,,,,,,,,,0.064079861,-0.410681424,0,0,0,,,,,,,PLANK,LB,m,y,./images/PLANKLB.png,,,,,,,m,1,0.593,,,,,,,,0,7,7,1,1
,,,,,,,,,,,,,,,,,199051,19,2022-01-29_12h07.11.386,lexical_decision_task_DD_L2,2021.2.3,MacIntel,60.0024001,,,,,,,,,,,,0.9354,0,,,,,,,,,,,,,,,,,,,,,,,,0.064079861,-0.410681424,0,0,0,,,,,,,WRIST,LB,m,y,./images/WRISTLB.png,,,,,,,z,0,0.9354,,,,,,,,0,8,8,25,1
,,,,,,,,,,,,,,,,,199051,19,2022-01-29_12h07.11.386,lexical_decision_task_DD_L2,2021.2.3,MacIntel,60.0024001,,,,,,,,,,,,0.7236,1,,,,,,,,,,,,,,,,,,,,,,,,0.064079861,-0.410681424,0,0,0,,,,,,,MEDAL,C,z,y,./images/MEDAL.png,,,,,,,z,1,0.7236,,,,,,,,0,9,9,95,1
,,,,,,,,,,,,,,,,,199051,19,2022-01-29_12h07.11.386,lexical_decision_task_DD_L2,2021.2.3,MacIntel,60.0024001,,,,,,,,,,,,0.801,1,,,,,,,,,,,,,,,,,,,,,,,,0.064079861,-0.410681424,0,0,0,,,,,,,RULER,LB,z,y,./images/RULERLB.png,,,,,,,z,1,0.801,,,,,,,,0,10,10,163,1
,,,,,,,,,,,,,,,,,199051,19,2022-01-29_12h07.11.386,lexical_decision_task_DD_L2,2021.2.3,MacIntel,60.0024001,,,,,,,,,,,,0.6049,1,,,,,,,,,,,,,,,,,,,,,,,,0.064079861,-0.410681424,0,0,0,,,,,,,BELLY,LB,m,y,./images/BELLYLB.png,,,,,,,m,1,0.6049,,,,,,,,0,11,11,10,1
,,,,,,,,,,,,,,,,,199051,19,2022-01-29_12h07.11.386,lexical_decision_task_DD_L2,2021.2.3,MacIntel,60.0024001,,,,,,,,,,,,1.0183,0,,,,,,,,,,,,,,,,,,,,,,,,0.064079861,-0.410681424,0,0,0,,,,,,,PISTOL,C,z,y,./images/PISTOL.png,,,,,,,m,0,1.0183,,,,,,,,0,12,12,113,1
,,,,,,,,,,,,,,,,,199051,19,2022-01-29_12h07.11.386,lexical_decision_task_DD_L2,2021.2.3,MacIntel,60.0024001,,,,,,,,,,,,0.9689,1,,,,,,,,,,,,,,,,,,,,,,,,0.064079861,-0.410681424,0,0,0,,,,,,,BUNNY,LB,z,y,./images/BUNNYLB.png,,,,,,,z,1,0.9689,,,,,,,,0,13,13,97,1
,,,,,,,,,,,,,,,,,199051,19,2022-01-29_12h07.11.386,lexical_decision_task_DD_L2,2021.2.3,MacIntel,60.0024001,,,,,,,,,,,,0.8656,1,,,,,,,,,,,,,,,,,,,,,,,,0.064079861,-0.410681424,0,0,0,,,,,,,PICKLE,C,m,y,./images/PICKLE.png,,,,,,,m,1,0.8656,,,,,,,,0,14,14,14,1
,,,,,,,,,,,,,,,,,199051,19,2022-01-29_12h07.11.386,lexical_decision_task_DD_L2,2021.2.3,MacIntel,60.0024001,,,,,,,,,,,,0.6903,1,,,,,,,,,,,,,,,,,,,,,,,,0.064079861,-0.410681424,0,0,0,,,,,,,MELON,LB,m,y,./images/MELONLB.png,,,,,,,m,1,0.6903,,,,,,,,0,15,15,22,1
,,,,,,,,,,,,,,,,,199051,19,2022-01-29_12h07.11.386,lexical_decision_task_DD_L2,2021.2.3,MacIntel,60.0024001,,,,,,,,,,,,0.8725,1,,,,,,,,,,,,,,,,,,,,,,,,0.064079861,-0.410681424,0,0,0,,,,,,,VALLEY,C,z,y,./images/VALLEY.png,,,,,,,z,1,0.8725,,,,,,,,0,16,16,152,1
,,,,,,,,,,,,,,,,,199051,19,2022-01-29_12h07.11.386,lexical_decision_task_DD_L2,2021.2.3,MacIntel,60.0024001,,,,,,,,,,,,0.6678,1,,,,,,,,,,,,,,,,,,,,,,,,0.064079861,-0.410681424,0,0,0,,,,,,,SPINE,C,z,y,./images/SPINE.png,,,,,,,z,1,0.6678,,,,,,,,0,17,17,149,1
,,,,,,,,,,,,,,,,,199051,19,2022-01-29_12h07.11.386,lexical_decision_task_DD_L2,2021.2.3,MacIntel,60.0024001,,,,,,,,,,,,1.4472,0,,,,,,,,,,,,,,,,,,,,,,,,0.064079861,-0.410681424,0,0,0,,,,,,,CRATER,HB,z,y,./images/CRATERHB.png,,,,,,,m,0,1.4472,,,,,,,,0,18,18,87,1
,,,,,,,,,,,,,,,,,199051,19,2022-01-29_12h07.11.386,lexical_decision_task_DD_L2,2021.2.3,MacIntel,60.0024001,,,,,,,,,,,,1.3047,1,,,,,,,,,,,,,,,,,,,,,,,,0.064079861,-0.410681424,0,0,0,,,,,,,NOOSE,HB,m,y,./images/NOOSEHB.png,,,,,,,m,1,1.3047,,,,,,,,0,19,19,72,1
,,,,,,,,,,,,,,,,,199051,19,2022-01-29_12h07.11.386,lexical_decision_task_DD_L2,2021.2.3,MacIntel,60.0024001,,,,,,,,,,,,0.9566,1,,,,,,,,,,,,,,,,,,,,,,,,0.064079861,-0.410681424,0,0,0,,,,,,,FARMER,C,m,y,./images/FARMER.png,,,,,,,m,1,0.9566,,,,,,,,0,20,20,65,1
,,,,,,,,,,,,,,,,,199051,19,2022-01-29_12h07.11.386,lexical_decision_task_DD_L2,2021.2.3,MacIntel,60.0024001,,,,,,,,,,,,0.7849,1,,,,,,,,,,,,,,,,,,,,,,,,0.064079861,-0.410681424,0,0,0,,,,,,,DANCER,HB,z,y,./images/DANCERHB.png,,,,,,,z,1,0.7849,,,,,,,,0,21,21,105,1
,,,,,,,,,,,,,,,,,199051,19,2022-01-29_12h07.11.386,lexical_decision_task_DD_L2,2021.2.3,MacIntel,60.0024001,,,,,,,,,,,,1.0347,0,,,,,,,,,,,,,,,,,,,,,,,,0.064079861,-0.410681424,0,0,0,,,,,,,RAZOR,LB,z,y,./images/RAZORLB.png,,,,,,,m,0,1.0347,,,,,,,,0,22,22,118,1
,,,,,,,,,,,,,,,,,199051,19,2022-01-29_12h07.11.386,lexical_decision_task_DD_L2,2021.2.3,MacIntel,60.0024001,,,,,,,,,,,,0.8261,1,,,,,,,,,,,,,,,,,,,,,,,,0.064079861,-0.410681424,0,0,0,,,,,,,JELLY,LB,m,y,./images/JELLYLB.png,,,,,,,m,1,0.8261,,,,,,,,0,23,23,64,1
,,,,,,,,,,,,,,,,,199051,19,2022-01-29_12h07.11.386,lexical_decision_task_DD_L2,2021.2.3,MacIntel,60.0024001,,,,,,,,,,,,0.6251,1,,,,,,,,,,,,,,,,,,,,,,,,0.064079861,-0.410681424,0,0,0,,,,,,,ONION,HB,m,y,./images/ONIONHB.png,,,,,,,m,1,0.6251,,,,,,,,0,24,24,51,1
,,,,,,,,,,,,,,,,,199051,19,2022-01-29_12h07.11.386,lexical_decision_task_DD_L2,2021.2.3,MacIntel,60.0024001,,,,,,,,,,,,1.1162,0,,,,,,,,,,,,,,,,,,,,,,,,0.064079861,-0.410681424,0,0,0,,,,,,,CHAIN,HB,z,y,./images/CHAINHB.png,,,,,,,m,0,1.1162,,,,,,,,0,25,25,126,1
,,,,,,,,,,,,,,,,,199051,19,2022-01-29_12h07.11.386,lexical_decision_task_DD_L2,2021.2.3,MacIntel,60.0024001,,,,,,,,,,,,0.6018,0,,,,,,,,,,,,,,,,,,,,,,,,0.064079861,-0.410681424,0,0,0,,,,,,,CHERRY,HB,z,y,./images/CHERRYHB.png,,,,,,,m,0,0.6018,,,,,,,,0,26,26,138,1
,,,,,,,,,,,,,,,,,199051,19,2022-01-29_12h07.11.386,lexical_decision_task_DD_L2,2021.2.3,MacIntel,60.0024001,,,,,,,,,,,,0.8431,1,,,,,,,,,,,,,,,,,,,,,,,,0.064079861,-0.410681424,0,0,0,,,,,,,STORM,HB,m,y,./images/STORMHB.png,,,,,,,m,1,0.8431,,,,,,,,0,27,27,30,1
,,,,,,,,,,,,,,,,,199051,19,2022-01-29_12h07.11.386,lexical_decision_task_DD_L2,2021.2.3,MacIntel,60.0024001,,,,,,,,,,,,0.8264,0,,,,,,,,,,,,,,,,,,,,,,,,0.064079861,-0.410681424,0,0,0,,,,,,,TOMATO,HB,m,y,./images/TOMATOHB.png,,,,,,,z,0,0.8264,,,,,,,,0,28,28,0,1
,,,,,,,,,,,,,,,,,199051,19,2022-01-29_12h07.11.386,lexical_decision_task_DD_L2,2021.2.3,MacIntel,60.0024001,,,,,,,,,,,,1.0975,1,,,,,,,,,,,,,,,,,,,,,,,,0.064079861,-0.410681424,0,0,0,,,,,,,WALNUT,HB,z,y,./images/WALNUTHB.png,,,,,,,z,1,1.0975,,,,,,,,0,29,29,84,1
,,,,,,,,,,,,,,,,,199051,19,2022-01-29_12h07.11.386,lexical_decision_task_DD_L2,2021.2.3,MacIntel,60.0024001,,,,,,,,,,,,0.8365,1,,,,,,,,,,,,,,,,,,,,,,,,0.064079861,-0.410681424,0,0,0,,,,,,,PARADE,C,z,y,./images/PARADE.png,,,,,,,z,1,0.8365,,,,,,,,0,30,30,101,1
,,,,,,,,,,,,,,,,,199051,19,2022-01-29_12h07.11.386,lexical_decision_task_DD_L2,2021.2.3,MacIntel,60.0024001,,,,,,,,,,,,1.0065,0,,,,,,,,,,,,,,,,,,,,,,,,0.064079861,-0.410681424,0,0,0,,,,,,,DRILL,HB,z,y,./images/DRILLHB.png,,,,,,,m,0,1.0065,,,,,,,,0,31,31,165,1
,,,,,,,,,,,,,,,,,199051,19,2022-01-29_12h07.11.386,lexical_decision_task_DD_L2,2021.2.3,MacIntel,60.0024001,,,,,,,,,,,,1.049,1,,,,,,,,,,,,,,,,,,,,,,,,0.064079861,-0.410681424,0,0,0,,,,,,,LITTER,HB,m,y,./images/LITTERHB.png,,,,,,,m,1,1.049,,,,,,,,0,32,32,78,1
,,,,,,,,,,,,,,,,,199051,19,2022-01-29_12h07.11.386,lexical_decision_task_DD_L2,2021.2.3,MacIntel,60.0024001,,,,,,,,,,,,0.7158,1,,,,,,,,,,,,,,,,,,,,,,,,0.064079861,-0.410681424,0,0,0,,,,,,,BARREL,C,m,y,./images/BARREL.png,,,,,,,m,1,0.7158,,,,,,,,0,33,33,32,1
,,,,,,,,,,,,,,,,,199051,19,2022-01-29_12h07.11.386,lexical_decision_task_DD_L2,2021.2.3,MacIntel,60.0024001,,,,,,,,,,,,0.8915,1,,,,,,,,,,,,,,,,,,,,,,,,0.064079861,-0.410681424,0,0,0,,,,,,,FLASK,HB,z,y,./images/FLASKHB.png,,,,,,,z,1,0.8915,,,,,,,,0,34,34,156,1
,,,,,,,,,,,,,,,,,199051,19,2022-01-29_12h07.11.386,lexical_decision_task_DD_L2,2021.2.3,MacIntel,60.0024001,,,,,,,,,,,,0.6003,1,,,,,,,,,,,,,,,,,,,,,,,,0.064079861,-0.410681424,0,0,0,,,,,,,FINGER,HB,m,y,./images/FINGERHB.png,,,,,,,m,1,0.6003,,,,,,,,0,35,35,3,1
,,,,,,,,,,,,,,,,,199051,19,2022-01-29_12h07.11.386,lexical_decision_task_DD_L2,2021.2.3,MacIntel,60.0024001,,,,,,,,,,,,1.2518,1,,,,,,,,,,,,,,,,,,,,,,,,0.064079861,-0.410681424,0,0,0,,,,,,,LADDER,C,m,y,./images/LADDER.png,,,,,,,m,1,1.2518,,,,,,,,0,36,36,38,1
,,,,,,,,,,,,,,,,,199051,19,2022-01-29_12h07.11.386,lexical_decision_task_DD_L2,2021.2.3,MacIntel,60.0024001,,,,,,,,,,,,0.6363,1,,,,,,,,,,,,,,,,,,,,,,,,0.064079861,-0.410681424,0,0,0,,,,,,,TRIPOD,HB,m,y,./images/TRIPODHB.png,,,,,,,m,1,0.6363,,,,,,,,0,37,37,54,1
,,,,,,,,,,,,,,,,,199051,19,2022-01-29_12h07.11.386,lexical_decision_task_DD_L2,2021.2.3,MacIntel,60.0024001,,,,,,,,,,,,1.0089,0,,,,,,,,,,,,,,,,,,,,,,,,0.064079861,-0.410681424,0,0,0,,,,,,,BROOM,HB,z,y,./images/BROOMHB.png,,,,,,,m,0,1.0089,,,,,,,,0,38,38,162,1
,,,,,,,,,,,,,,,,,199051,19,2022-01-29_12h07.11.386,lexical_decision_task_DD_L2,2021.2.3,MacIntel,60.0024001,,,,,,,,,,,,0.8103,1,,,,,,,,,,,,,,,,,,,,,,,,0.064079861,-0.410681424,0,0,0,,,,,,,BRIDE,LB,z,y,./images/BRIDELB.png,,,,,,,z,1,0.8103,,,,,,,,0,39,39,148,1
,,,,,,,,,,,,,,,,,199051,19,2022-01-29_12h07.11.386,lexical_decision_task_DD_L2,2021.2.3,MacIntel,60.0024001,,,,,,,,,,,,0.584,1,,,,,,,,,,,,,,,,,,,,,,,,0.064079861,-0.410681424,0,0,0,,,,,,,BEARD,C,m,y,./images/BEARD.png,,,,,,,m,1,0.584,,,,,,,,0,40,40,2,1
,,,,,,,,,,,,,,,,,199051,19,2022-01-29_12h07.11.386,lexical_decision_task_DD_L2,2021.2.3,MacIntel,60.0024001,,,,,,,,,,,,0.9165,0,,,,,,,,,,,,,,,,,,,,,,,,0.064079861,-0.410681424,0,0,0,space,,,,,,MAMMAL,C,z,y,./images/MAMMAL.png,1.0465,,,,,,m,0,0.9165,,,,,,,,0,41,41,146,1
,,,,,,,,,,,,,,,,,199051,19,2022-01-29_12h07.11.386,lexical_decision_task_DD_L2,2021.2.3,MacIntel,60.0024001,,,,,,,,,,,,0.6822,1,,,,,,,,,,,,,,,,,,,,,,,,0.064079861,-0.410681424,0,0,0,,,,,,,MIRROR,HB,m,y,./images/MIRRORHB.png,,,,,,,m,1,0.6822,,,,,,,,0,42,42,63,1
,,,,,,,,,,,,,,,,,199051,19,2022-01-29_12h07.11.386,lexical_decision_task_DD_L2,2021.2.3,MacIntel,60.0024001,,,,,,,,,,,,1.2327,1,,,,,,,,,,,,,,,,,,,,,,,,0.064079861,-0.410681424,0,0,0,,,,,,,INFANT,LB,m,y,./images/INFANTLB.png,,,,,,,m,1,1.2327,,,,,,,,0,43,43,76,1
,,,,,,,,,,,,,,,,,199051,19,2022-01-29_12h07.11.386,lexical_decision_task_DD_L2,2021.2.3,MacIntel,60.0024001,,,,,,,,,,,,2.1008,0,,,,,,,,,,,,,,,,,,,,,,,,0.064079861,-0.410681424,0,0,0,,,,,,,ENGINE,C,z,y,./images/ENGINE.png,,,,,,,m,0,2.1008,,,,,,,,0,44,44,122,1
,,,,,,,,,,,,,,,,,199051,19,2022-01-29_12h07.11.386,lexical_decision_task_DD_L2,2021.2.3,MacIntel,60.0024001,,,,,,,,,,,,0.6916,1,,,,,,,,,,,,,,,,,,,,,,,,0.064079861,-0.410681424,0,0,0,,,,,,,ALLEY,LB,z,y,./images/ALLEYLB.png,,,,,,,z,1,0.6916,,,,,,,,0,45,45,139,1
,,,,,,,,,,,,,,,,,199051,19,2022-01-29_12h07.11.386,lexical_decision_task_DD_L2,2021.2.3,MacIntel,60.0024001,,,,,,,,,,,,0.5489,1,,,,,,,,,,,,,,,,,,,,,,,,0.064079861,-0.410681424,0,0,0,,,,,,,ATTIC,HB,m,y,./images/ATTICHB.png,,,,,,,m,1,0.5489,,,,,,,,0,46,46,27,1
,,,,,,,,,,,,,,,,,199051,19,2022-01-29_12h07.11.386,lexical_decision_task_DD_L2,2021.2.3,MacIntel,60.0024001,,,,,,,,,,,,0.6029,1,,,,,,,,,,,,,,,,,,,,,,,,0.064079861,-0.410681424,0,0,0,,,,,,,SUNSET,LB,m,y,./images/SUNSETLB.png,,,,,,,m,1,0.6029,,,,,,,,0,47,47,82,1
,,,,,,,,,,,,,,,,,199051,19,2022-01-29_12h07.11.386,lexical_decision_task_DD_L2,2021.2.3,MacIntel,60.0024001,,,,,,,,,,,,0.7239,0,,,,,,,,,,,,,,,,,,,,,,,,0.064079861,-0.410681424,0,0,0,,,,,,,SPORT,HB,m,y,./images/SPORTHB.png,,,,,,,z,0,0.7239,,,,,,,,0,48,48,48,1
,,,,,,,,,,,,,,,,,199051,19,2022-01-29_12h07.11.386,lexical_decision_task_DD_L2,2021.2.3,MacIntel,60.0024001,,,,,,,,,,,,0.5522,1,,,,,,,,,,,,,,,,,,,,,,,,0.064079861,-0.410681424,0,0,0,,,,,,,MUSCLE,LB,m,y,./images/MUSCLELB.png,,,,,,,m,1,0.5522,,,,,,,,0,49,49,4,1
,,,,,,,,,,,,,,,,,199051,19,2022-01-29_12h07.11.386,lexical_decision_task_DD_L2,2021.2.3,MacIntel,60.0024001,,,,,,,,,,,,0.8148,0,,,,,,,,,,,,,,,,,,,,,,,,0.064079861,-0.410681424,0,0,0,,,,,,,CLOTH,C,z,y,./images/CLOTH.png,,,,,,,m,0,0.8148,,,,,,,,0,50,50,107,1
,,,,,,,,,,,,,,,,,199051,19,2022-01-29_12h07.11.386,lexical_decision_task_DD_L2,2021.2.3,MacIntel,60.0024001,,,,,,,,,,,,0.7035,0,,,,,,,,,,,,,,,,,,,,,,,,0.064079861,-0.409335938,0,0,0,,,,,,,MOSQUE,LB,m,y,./images/MOSQUELB.png,,,,,,,z,0,0.7035,,,,,,,,0,51,51,43,1
,,,,,,,,,,,,,,,,,199051,19,2022-01-29_12h07.11.386,lexical_decision_task_DD_L2,2021.2.3,MacIntel,60.0024001,,,,,,,,,,,,0.8051,0,,,,,,,,,,,,,,,,,,,,,,,,0.064079861,-0.409335938,0,0,0,,,,,,,MALLET,C,m,y,./images/MALLET.png,,,,,,,z,0,0.8051,,,,,,,,0,52,52,50,1
,,,,,,,,,,,,,,,,,199051,19,2022-01-29_12h07.11.386,lexical_decision_task_DD_L2,2021.2.3,MacIntel,60.0024001,,,,,,,,,,,,0.6659,0,,,,,,,,,,,,,,,,,,,,,,,,0.064079861,-0.409335938,0,0,0,,,,,,,STAIN,HB,z,y,./images/STAINHB.png,,,,,,,m,0,0.6659,,,,,,,,0,53,53,90,1
,,,,,,,,,,,,,,,,,199051,19,2022-01-29_12h07.11.386,lexical_decision_task_DD_L2,2021.2.3,MacIntel,60.0024001,,,,,,,,,,,,0.5661,1,,,,,,,,,,,,,,,,,,,,,,,,0.064079861,-0.409335938,0,0,0,,,,,,,SWEAT,HB,m,y,./images/SWEATHB.png,,,,,,,m,1,0.5661,,,,,,,,0,54,54,66,1
,,,,,,,,,,,,,,,,,199051,19,2022-01-29_12h07.11.386,lexical_decision_task_DD_L2,2021.2.3,MacIntel,60.0024001,,,,,,,,,,,,0.6824,0,,,,,,,,,,,,,,,,,,,,,,,,0.064079861,-0.409335938,0,0,0,,,,,,,STATUE,HB,z,y,./images/STATUEHB.png,,,,,,,m,0,0.6824,,,,,,,,0,55,55,150,1
,,,,,,,,,,,,,,,,,199051,19,2022-01-29_12h07.11.386,lexical_decision_task_DD_L2,2021.2.3,MacIntel,60.0024001,,,,,,,,,,,,0.7351,1,,,,,,,,,,,,,,,,,,,,,,,,0.064079861,-0.409335938,0,0,0,,,,,,,QUILL,LB,m,y,./images/QUILLLB.png,,,,,,,m,1,0.7351,,,,,,,,0,56,56,31,1
,,,,,,,,,,,,,,,,,199051,19,2022-01-29_12h07.11.386,lexical_decision_task_DD_L2,2021.2.3,MacIntel,60.0024001,,,,,,,,,,,,0.9506,0,,,,,,,,,,,,,,,,,,,,,,,,0.064079861,-0.409335938,0,0,0,,,,,,,PURSE,C,m,y,./images/PURSE.png,,,,,,,z,0,0.9506,,,,,,,,0,57,57,62,1
,,,,,,,,,,,,,,,,,199051,19,2022-01-29_12h07.11.386,lexical_decision_task_DD_L2,2021.2.3,MacIntel,60.0024001,,,,,,,,,,,,0.9242,1,,,,,,,,,,,,,,,,,,,,,,,,0.064079861,-0.409335938,0,0,0,,,,,,,CURRY,HB,z,y,./images/CURRYHB.png,,,,,,,z,1,0.9242,,,,,,,,0,58,58,144,1
,,,,,,,,,,,,,,,,,199051,19,2022-01-29_12h07.11.386,lexical_decision_task_DD_L2,2021.2.3,MacIntel,60.0024001,,,,,,,,,,,,0.9669,1,,,,,,,,,,,,,,,,,,,,,,,,0.064079861,-0.409335938,0,0,0,,,,,,,BOXER,LB,z,y,./images/BOXERLB.png,,,,,,,z,1,0.9669,,,,,,,,0,59,59,88,1
,,,,,,,,,,,,,,,,,199051,19,2022-01-29_12h07.11.386,lexical_decision_task_DD_L2,2021.2.3,MacIntel,60.0024001,,,,,,,,,,,,0.7013,1,,,,,,,,,,,,,,,,,,,,,,,,0.064079861,-0.409335938,0,0,0,,,,,,,PENCE,LB,m,y,./images/PENCELB.png,,,,,,,m,1,0.7013,,,,,,,,0,60,60,16,1
,,,,,,,,,,,,,,,,,199051,19,2022-01-29_12h07.11.386,lexical_decision_task_DD_L2,2021.2.3,MacIntel,60.0024001,,,,,,,,,,,,0.6246,1,,,,,,,,,,,,,,,,,,,,,,,,0.064079861,-0.409335938,0,0,0,,,,,,,MUFFIN,LB,m,y,./images/MUFFINLB.png,,,,,,,m,1,0.6246,,,,,,,,0,61,61,55,1
,,,,,,,,,,,,,,,,,199051,19,2022-01-29_12h07.11.386,lexical_decision_task_DD_L2,2021.2.3,MacIntel,60.0024001,,,,,,,,,,,,0.856,1,,,,,,,,,,,,,,,,,,,,,,,,0.064079861,-0.409335938,0,0,0,,,,,,,BAKER,HB,z,y,./images/BAKERHB.png,,,,,,,z,1,0.856,,,,,,,,0,62,62,147,1
,,,,,,,,,,,,,,,,,199051,19,2022-01-29_12h07.11.386,lexical_decision_task_DD_L2,2021.2.3,MacIntel,60.0024001,,,,,,,,,,,,1.2175,0,,,,,,,,,,,,,,,,,,,,,,,,0.064079861,-0.409335938,0,0,0,,,,,,,SNAKE,LB,z,y,./images/SNAKELB.png,,,,,,,m,0,1.2175,,,,,,,,0,63,63,124,1
,,,,,,,,,,,,,,,,,199051,19,2022-01-29_12h07.11.386,lexical_decision_task_DD_L2,2021.2.3,MacIntel,60.0024001,,,,,,,,,,,,0.8244,0,,,,,,,,,,,,,,,,,,,,,,,,0.064079861,-0.409335938,0,0,0,,,,,,,PASTA,C,m,y,./images/PASTA.png,,,,,,,z,0,0.8244,,,,,,,,0,64,64,5,1
,,,,,,,,,,,,,,,,,199051,19,2022-01-29_12h07.11.386,lexical_decision_task_DD_L2,2021.2.3,MacIntel,60.0024001,,,,,,,,,,,,1.1243,0,,,,,,,,,,,,,,,,,,,,,,,,0.064079861,-0.409335938,0,0,0,,,,,,,DONKEY,LB,z,y,./images/DONKEYLB.png,,,,,,,m,0,1.1243,,,,,,,,0,65,65,103,1
,,,,,,,,,,,,,,,,,199051,19,2022-01-29_12h07.11.386,lexical_decision_task_DD_L2,2021.2.3,MacIntel,60.0024001,,,,,,,,,,,,0.573,1,,,,,,,,,,,,,,,,,,,,,,,,0.064079861,-0.409335938,0,0,0,,,,,,,CRUMB,C,m,y,./images/CRUMB.png,,,,,,,m,1,0.573,,,,,,,,0,66,66,29,1
,,,,,,,,,,,,,,,,,199051,19,2022-01-29_12h07.11.386,lexical_decision_task_DD_L2,2021.2.3,MacIntel,60.0024001,,,,,,,,,,,,0.8169,1,,,,,,,,,,,,,,,,,,,,,,,,0.064079861,-0.409335938,0,0,0,,,,,,,BISHOP,LB,z,y,./images/BISHOPLB.png,,,,,,,z,1,0.8169,,,,,,,,0,67,67,133,1
,,,,,,,,,,,,,,,,,199051,19,2022-01-29_12h07.11.386,lexical_decision_task_DD_L2,2021.2.3,MacIntel,60.0024001,,,,,,,,,,,,0.6679,0,,,,,,,,,,,,,,,,,,,,,,,,0.064079861,-0.409335938,0,0,0,,,,,,,CANDY,HB,z,y,./images/CANDYHB.png,,,,,,,m,0,0.6679,,,,,,,,0,68,68,123,1
,,,,,,,,,,,,,,,,,199051,19,2022-01-29_12h07.11.386,lexical_decision_task_DD_L2,2021.2.3,MacIntel,60.0024001,,,,,,,,,,,,0.7169,0,,,,,,,,,,,,,,,,,,,,,,,,0.064079861,-0.409335938,0,0,0,,,,,,,MIDGET,LB,z,y,./images/MIDGETLB.png,,,,,,,m,0,0.7169,,,,,,,,0,69,69,160,1
,,,,,,,,,,,,,,,,,199051,19,2022-01-29_12h07.11.386,lexical_decision_task_DD_L2,2021.2.3,MacIntel,60.0024001,,,,,,,,,,,,0.6696,0,,,,,,,,,,,,,,,,,,,,,,,,0.064079861,-0.409335938,0,0,0,,,,,,,CLOUD,C,z,y,./images/CLOUD.png,,,,,,,m,0,0.6696,,,,,,,,0,70,70,110,1
,,,,,,,,,,,,,,,,,199051,19,2022-01-29_12h07.11.386,lexical_decision_task_DD_L2,2021.2.3,MacIntel,60.0024001,,,,,,,,,,,,0.6352,1,,,,,,,,,,,,,,,,,,,,,,,,0.064079861,-0.409335938,0,0,0,,,,,,,DIVER,HB,z,y,./images/DIVERHB.png,,,,,,,z,1,0.6352,,,,,,,,0,71,71,93,1
,,,,,,,,,,,,,,,,,199051,19,2022-01-29_12h07.11.386,lexical_decision_task_DD_L2,2021.2.3,MacIntel,60.0024001,,,,,,,,,,,,0.8494,1,,,,,,,,,,,,,,,,,,,,,,,,0.064079861,-0.409335938,0,0,0,,,,,,,FLESH,HB,z,y,./images/FLESHHB.png,,,,,,,z,1,0.8494,,,,,,,,0,72,72,108,1
,,,,,,,,,,,,,,,,,199051,19,2022-01-29_12h07.11.386,lexical_decision_task_DD_L2,2021.2.3,MacIntel,60.0024001,,,,,,,,,,,,1.2093,0,,,,,,,,,,,,,,,,,,,,,,,,0.064079861,-0.409335938,0,0,0,,,,,,,JUMPER,C,z,y,./images/JUMPER.png,,,,,,,m,0,1.2093,,,,,,,,0,73,73,158,1
,,,,,,,,,,,,,,,,,199051,19,2022-01-29_12h07.11.386,lexical_decision_task_DD_L2,2021.2.3,MacIntel,60.0024001,,,,,,,,,,,,0.5841,1,,,,,,,,,,,,,,,,,,,,,,,,0.064079861,-0.409335938,0,0,0,,,,,,,PAINT,LB,m,y,./images/PAINTLB.png,,,,,,,m,1,0.5841,,,,,,,,0,74,74,7,1
,,,,,,,,,,,,,,,,,199051,19,2022-01-29_12h07.11.386,lexical_decision_task_DD_L2,2021.2.3,MacIntel,60.0024001,,,,,,,,,,,,0.5825,1,,,,,,,,,,,,,,,,,,,,,,,,0.064079861,-0.409335938,0,0,0,,,,,,,SWING,LB,m,y,./images/SWINGLB.png,,,,,,,m,1,0.5825,,,,,,,,0,75,75,40,1
,,,,,,,,,,,,,,,,,199051,19,2022-01-29_12h07.11.386,lexical_decision_task_DD_L2,2021.2.3,MacIntel,60.0024001,,,,,,,,,,,,0.7523,1,,,,,,,,,,,,,,,,,,,,,,,,0.064079861,-0.409335938,0,0,0,,,,,,,CANOE,LB,z,y,./images/CANOELB.png,,,,,,,z,1,0.7523,,,,,,,,0,76,76,142,1
,,,,,,,,,,,,,,,,,199051,19,2022-01-29_12h07.11.386,lexical_decision_task_DD_L2,2021.2.3,MacIntel,60.0024001,,,,,,,,,,,,1.1199,0,,,,,,,,,,,,,,,,,,,,,,,,0.064079861,-0.409335938,0,0,0,,,,,,,DRUMS,LB,m,y,./images/DRUMSLB.png,,,,,,,z,0,1.1199,,,,,,,,0,77,77,49,1
,,,,,,,,,,,,,,,,,199051,19,2022-01-29_12h07.11.386,lexical_decision_task_DD_L2,2021.2.3,MacIntel,60.0024001,,,,,,,,,,,,0.5979,1,,,,,,,,,,,,,,,,,,,,,,,,0.064079861,-0.415642361,0,0,0,,,,,,,TWINS,HB,m,y,./images/TWINSHB.png,,,,,,,m,1,0.5979,,,,,,,,0,78,78,60,1
,,,,,,,,,,,,,,,,,199051,19,2022-01-29_12h07.11.386,lexical_decision_task_DD_L2,2021.2.3,MacIntel,60.0024001,,,,,,,,,,,,0.8317,1,,,,,,,,,,,,,,,,,,,,,,,,0.064079861,-0.420546875,0,0,0,,,,,,,BERRY,C,m,y,./images/BERRY.png,,,,,,,m,1,0.8317,,,,,,,,0,79,79,47,1
,,,,,,,,,,,,,,,,,199051,19,2022-01-29_12h07.11.386,lexical_decision_task_DD_L2,2021.2.3,MacIntel,60.0024001,,,,,,,,,,,,1.0331,0,,,,,,,,,,,,,,,,,,,,,,,,0.064079861,-0.421184896,0,0,0,,,,,,,SNACK,LB,m,y,./images/SNACKLB.png,,,,,,,z,0,1.0331,,,,,,,,0,80,80,73,1
,,,,,,,,,,,,,,,,,199051,19,2022-01-29_12h07.11.386,lexical_decision_task_DD_L2,2021.2.3,MacIntel,60.0024001,,,,,,,,,,,,0.519,1,,,,,,,,,,,,,,,,,,,,,,,,0.064079861,-0.421184896,0,0,0,,,,,,,POODLE,HB,m,y,./images/POODLEHB.png,,,,,,,m,1,0.519,,,,,,,,0,81,81,81,1
,,,,,,,,,,,,,,,,,199051,19,2022-01-29_12h07.11.386,lexical_decision_task_DD_L2,2021.2.3,MacIntel,60.0024001,,,,,,,,,,,,0.5256,0,,,,,,,,,,,,,,,,,,,,,,,,0.064079861,-0.420351562,0,0,0,,,,,,,MONKEY,HB,z,y,./images/MONKEYHB.png,,,,,,,m,0,0.5256,,,,,,,,0,82,82,129,1
,,,,,,,,,,,,,,,,,199051,19,2022-01-29_12h07.11.386,lexical_decision_task_DD_L2,2021.2.3,MacIntel,60.0024001,,,,,,,,,,,,0.6162,0,,,,,,,,,,,,,,,,,,,,,,,,0.064079861,-0.420073785,0,0,0,space,,,,,,GRANNY,C,z,y,./images/GRANNY.png,0.9865,,,,,,m,0,0.6162,,,,,,,,0,83,83,104,1
,,,,,,,,,,,,,,,,,199051,19,2022-01-29_12h07.11.386,lexical_decision_task_DD_L2,2021.2.3,MacIntel,60.0024001,,,,,,,,,,,,0.6322,1,,,,,,,,,,,,,,,,,,,,,,,,0.064079861,-0.413854167,0,0,0,,,,,,,CANYON,LB,m,y,./images/CANYONLB.png,,,,,,,m,1,0.6322,,,,,,,,0,84,84,34,1
,,,,,,,,,,,,,,,,,199051,19,2022-01-29_12h07.11.386,lexical_decision_task_DD_L2,2021.2.3,MacIntel,60.0024001,,,,,,,,,,,,0.8375,0,,,,,,,,,,,,,,,,,,,,,,,,0.064079861,-0.412439236,0,0,0,,,,,,,LIZARD,C,m,y,./images/LIZARD.png,,,,,,,z,0,0.8375,,,,,,,,0,85,85,44,1
,,,,,,,,,,,,,,,,,199051,19,2022-01-29_12h07.11.386,lexical_decision_task_DD_L2,2021.2.3,MacIntel,60.0024001,,,,,,,,,,,,0.7378,1,,,,,,,,,,,,,,,,,,,,,,,,0.064079861,-0.412439236,0,0,0,,,,,,,FOLDER,HB,m,y,./images/FOLDERHB.png,,,,,,,m,1,0.7378,,,,,,,,0,86,86,42,1
,,,,,,,,,,,,,,,,,199051,19,2022-01-29_12h07.11.386,lexical_decision_task_DD_L2,2021.2.3,MacIntel,60.0024001,,,,,,,,,,,,1.1654,0,,,,,,,,,,,,,,,,,,,,,,,,0.064079861,-0.412439236,0,0,0,,,,,,,ARROW,HB,z,y,./images/ARROWHB.png,,,,,,,m,0,1.1654,,,,,,,,0,87,87,153,1
,,,,,,,,,,,,,,,,,199051,19,2022-01-29_12h07.11.386,lexical_decision_task_DD_L2,2021.2.3,MacIntel,60.0024001,,,,,,,,,,,,0.881,0,,,,,,,,,,,,,,,,,,,,,,,,0.064079861,-0.412439236,0,0,0,,,,,,,STOOL,LB,z,y,./images/STOOLLB.png,,,,,,,m,0,0.881,,,,,,,,0,88,88,127,1
,,,,,,,,,,,,,,,,,199051,19,2022-01-29_12h07.11.386,lexical_decision_task_DD_L2,2021.2.3,MacIntel,60.0024001,,,,,,,,,,,,0.6002,1,,,,,,,,,,,,,,,,,,,,,,,,0.064079861,-0.412439236,0,0,0,,,,,,,SKIING,C,m,y,./images/SKIING.png,,,,,,,m,1,0.6002,,,,,,,,0,89,89,17,1
,,,,,,,,,,,,,,,,,199051,19,2022-01-29_12h07.11.386,lexical_decision_task_DD_L2,2021.2.3,MacIntel,60.0024001,,,,,,,,,,,,0.5852,1,,,,,,,,,,,,,,,,,,,,,,,,0.064079861,-0.41218316,0,0,0,,,,,,,STRING,C,m,y,./images/STRING.png,,,,,,,m,1,0.5852,,,,,,,,0,90,90,41,1
,,,,,,,,,,,,,,,,,199051,19,2022-01-29_12h07.11.386,lexical_decision_task_DD_L2,2021.2.3,MacIntel,60.0024001,,,,,,,,,,,,0.8554,1,,,,,,,,,,,,,,,,,,,,,,,,0.064079861,-0.411927083,0,0,0,,,,,,,HEATER,C,z,y,./images/HEATER.png,,,,,,,z,1,0.8554,,,,,,,,0,91,91,140,1
,,,,,,,,,,,,,,,,,199051,19,2022-01-29_12h07.11.386,lexical_decision_task_DD_L2,2021.2.3,MacIntel,60.0024001,,,,,,,,,,,,0.7164,0,,,,,,,,,,,,,,,,,,,,,,,,0.064079861,-0.411927083,0,0,0,,,,,,,SQUARE,HB,m,y,./images/SQUAREHB.png,,,,,,,z,0,0.7164,,,,,,,,0,92,92,6,1
,,,,,,,,,,,,,,,,,199051,19,2022-01-29_12h07.11.386,lexical_decision_task_DD_L2,2021.2.3,MacIntel,60.0024001,,,,,,,,,,,,0.7203,1,,,,,,,,,,,,,,,,,,,,,,,,0.064079861,-0.411927083,0,0,0,,,,,,,PEBBLE,LB,z,y,./images/PEBBLELB.png,,,,,,,z,1,0.7203,,,,,,,,0,93,93,166,1
,,,,,,,,,,,,,,,,,199051,19,2022-01-29_12h07.11.386,lexical_decision_task_DD_L2,2021.2.3,MacIntel,60.0024001,,,,,,,,,,,,0.6192,0,,,,,,,,,,,,,,,,,,,,,,,,0.064079861,-0.411927083,0,0,0,,,,,,,BAMBOO,C,z,y,./images/BAMBOO.png,,,,,,,m,0,0.6192,,,,,,,,0,94,94,89,1
,,,,,,,,,,,,,,,,,199051,19,2022-01-29_12h07.11.386,lexical_decision_task_DD_L2,2021.2.3,MacIntel,60.0024001,,,,,,,,,,,,1.1362,0,,,,,,,,,,,,,,,,,,,,,,,,0.064079861,-0.411927083,0,0,0,,,,,,,WAGON,LB,z,y,./images/WAGONLB.png,,,,,,,m,0,1.1362,,,,,,,,0,95,95,91,1
,,,,,,,,,,,,,,,,,199051,19,2022-01-29_12h07.11.386,lexical_decision_task_DD_L2,2021.2.3,MacIntel,60.0024001,,,,,,,,,,,,0.6662,1,,,,,,,,,,,,,,,,,,,,,,,,0.064079861,-0.411927083,0,0,0,,,,,,,FALCON,LB,m,y,./images/FALCONLB.png,,,,,,,m,1,0.6662,,,,,,,,0,96,96,28,1
,,,,,,,,,,,,,,,,,199051,19,2022-01-29_12h07.11.386,lexical_decision_task_DD_L2,2021.2.3,MacIntel,60.0024001,,,,,,,,,,,,0.7308,0,,,,,,,,,,,,,,,,,,,,,,,,0.064079861,-0.411927083,0,0,0,,,,,,,SAUCE,HB,z,y,./images/SAUCEHB.png,,,,,,,m,0,0.7308,,,,,,,,0,97,97,135,1
,,,,,,,,,,,,,,,,,199051,19,2022-01-29_12h07.11.386,lexical_decision_task_DD_L2,2021.2.3,MacIntel,60.0024001,,,,,,,,,,,,0.6826,0,,,,,,,,,,,,,,,,,,,,,,,,0.064079861,-0.411927083,0,0,0,,,,,,,GLOVE,LB,z,y,./images/GLOVELB.png,,,,,,,m,0,0.6826,,,,,,,,0,98,98,157,1
,,,,,,,,,,,,,,,,,199051,19,2022-01-29_12h07.11.386,lexical_decision_task_DD_L2,2021.2.3,MacIntel,60.0024001,,,,,,,,,,,,0.9477,1,,,,,,,,,,,,,,,,,,,,,,,,0.064079861,-0.411927083,0,0,0,,,,,,,LAGOON,C,z,y,./images/LAGOON.png,,,,,,,z,1,0.9477,,,,,,,,0,99,99,131,1
,,,,,,,,,,,,,,,,,199051,19,2022-01-29_12h07.11.386,lexical_decision_task_DD_L2,2021.2.3,MacIntel,60.0024001,,,,,,,,,,,,0.6503,1,,,,,,,,,,,,,,,,,,,,,,,,0.064079861,-0.411927083,0,0,0,,,,,,,MOTOR,LB,m,y,./images/MOTORLB.png,,,,,,,m,1,0.6503,,,,,,,,0,100,100,13,1
,,,,,,,,,,,,,,,,,199051,19,2022-01-29_12h07.11.386,lexical_decision_task_DD_L2,2021.2.3,MacIntel,60.0024001,,,,,,,,,,,,0.7684,1,,,,,,,,,,,,,,,,,,,,,,,,0.064079861,-0.411927083,0,0,0,,,,,,,SMOKER,C,m,y,./images/SMOKER.png,,,,,,,m,1,0.7684,,,,,,,,0,101,101,26,1
,,,,,,,,,,,,,,,,,199051,19,2022-01-29_12h07.11.386,lexical_decision_task_DD_L2,2021.2.3,MacIntel,60.0024001,,,,,,,,,,,,0.9343,0,,,,,,,,,,,,,,,,,,,,,,,,0.064079861,-0.411927083,0,0,0,,,,,,,DOUGH,LB,m,y,./images/DOUGHLB.png,,,,,,,z,0,0.9343,,,,,,,,0,102,102,19,1
,,,,,,,,,,,,,,,,,199051,19,2022-01-29_12h07.11.386,lexical_decision_task_DD_L2,2021.2.3,MacIntel,60.0024001,,,,,,,,,,,,0.9011,0,,,,,,,,,,,,,,,,,,,,,,,,0.064079861,-0.411927083,0,0,0,,,,,,,BLOKE,HB,z,y,./images/BLOKEHB.png,,,,,,,m,0,0.9011,,,,,,,,0,103,103,96,1
,,,,,,,,,,,,,,,,,199051,19,2022-01-29_12h07.11.386,lexical_decision_task_DD_L2,2021.2.3,MacIntel,60.0024001,,,,,,,,,,,,0.5847,1,,,,,,,,,,,,,,,,,,,,,,,,0.064079861,-0.411414931,0,0,0,,,,,,,SCREW,HB,m,y,./images/SCREWHB.png,,,,,,,m,1,0.5847,,,,,,,,0,104,104,24,1
,,,,,,,,,,,,,,,,,199051,19,2022-01-29_12h07.11.386,lexical_decision_task_DD_L2,2021.2.3,MacIntel,60.0024001,,,,,,,,,,,,1.0975,0,,,,,,,,,,,,,,,,,,,,,,,,0.064079861,-0.411414931,0,0,0,,,,,,,SHORE,HB,m,y,./images/SHOREHB.png,,,,,,,z,0,1.0975,,,,,,,,0,105,105,12,1
,,,,,,,,,,,,,,,,,199051,19,2022-01-29_12h07.11.386,lexical_decision_task_DD_L2,2021.2.3,MacIntel,60.0024001,,,,,,,,,,,,0.867,0,,,,,,,,,,,,,,,,,,,,,,,,0.064335937,-0.410334201,0,0,0,,,,,,,CANDLE,LB,m,y,./images/CANDLELB.png,,,,,,,z,0,0.867,,,,,,,,0,106,106,61,1
,,,,,,,,,,,,,,,,,199051,19,2022-01-29_12h07.11.386,lexical_decision_task_DD_L2,2021.2.3,MacIntel,60.0024001,,,,,,,,,,,,0.9473,1,,,,,,,,,,,,,,,,,,,,,,,,0.064865451,-0.408971354,0,0,0,,,,,,,BANNER,LB,m,y,./images/BANNERLB.png,,,,,,,m,1,0.9473,,,,,,,,0,107,107,52,1
,,,,,,,,,,,,,,,,,199051,19,2022-01-29_12h07.11.386,lexical_decision_task_DD_L2,2021.2.3,MacIntel,60.0024001,,,,,,,,,,,,0.8901,0,,,,,,,,,,,,,,,,,,,,,,,,0.064578993,-0.405763889,0,0,0,,,,,,,BUBBLE,C,z,y,./images/BUBBLE.png,,,,,,,m,0,0.8901,,,,,,,,0,108,108,155,1
,,,,,,,,,,,,,,,,,199051,19,2022-01-29_12h07.11.386,lexical_decision_task_DD_L2,2021.2.3,MacIntel,60.0024001,,,,,,,,,,,,1.0312,0,,,,,,,,,,,,,,,,,,,,,,,,0.064835069,-0.407855903,0,0,0,,,,,,,BRUSH,C,z,y,./images/BRUSH.png,,,,,,,m,0,1.0312,,,,,,,,0,109,109,143,1
,,,,,,,,,,,,,,,,,199051,19,2022-01-29_12h07.11.386,lexical_decision_task_DD_L2,2021.2.3,MacIntel,60.0024001,,,,,,,,,,,,0.6664,1,,,,,,,,,,,,,,,,,,,,,,,,0.064835069,-0.407855903,0,0,0,,,,,,,ARTIST,LB,z,y,./images/ARTISTLB.png,,,,,,,z,1,0.6664,,,,,,,,0,110,110,145,1
,,,,,,,,,,,,,,,,,199051,19,2022-01-29_12h07.11.386,lexical_decision_task_DD_L2,2021.2.3,MacIntel,60.0024001,,,,,,,,,,,,0.8666,1,,,,,,,,,,,,,,,,,,,,,,,,0.064835069,-0.407855903,0,0,0,,,,,,,GRAIN,HB,m,y,./images/GRAINHB.png,,,,,,,m,1,0.8666,,,,,,,,0,111,111,75,1
,,,,,,,,,,,,,,,,,199051,19,2022-01-29_12h07.11.386,lexical_decision_task_DD_L2,2021.2.3,MacIntel,60.0024001,,,,,,,,,,,,0.8661,0,,,,,,,,,,,,,,,,,,,,,,,,0.063988715,-0.409240451,0,0,0,,,,,,,TOWEL,LB,z,y,./images/TOWELLB.png,,,,,,,m,0,0.8661,,,,,,,,0,112,112,85,1
,,,,,,,,,,,,,,,,,199051,19,2022-01-29_12h07.11.386,lexical_decision_task_DD_L2,2021.2.3,MacIntel,60.0024001,,,,,,,,,,,,0.7801,1,,,,,,,,,,,,,,,,,,,,,,,,0.063988715,-0.409240451,0,0,0,,,,,,,POKER,LB,z,y,./images/POKERLB.png,,,,,,,z,1,0.7801,,,,,,,,0,113,113,151,1
,,,,,,,,,,,,,,,,,199051,19,2022-01-29_12h07.11.386,lexical_decision_task_DD_L2,2021.2.3,MacIntel,60.0024001,,,,,,,,,,,,0.6677,0,,,,,,,,,,,,,,,,,,,,,,,,0.063988715,-0.409240451,0,0,0,,,,,,,COLLAR,HB,z,y,./images/COLLARHB.png,,,,,,,m,0,0.6677,,,,,,,,0,114,114,99,1
,,,,,,,,,,,,,,,,,199051,19,2022-01-29_12h07.11.386,lexical_decision_task_DD_L2,2021.2.3,MacIntel,60.0024001,,,,,,,,,,,,0.8744,0,,,,,,,,,,,,,,,,,,,,,,,,0.063988715,-0.409240451,0,0,0,,,,,,,SHELF,HB,m,y,./images/SHELFHB.png,,,,,,,z,0,0.8744,,,,,,,,0,115,115,39,1
,,,,,,,,,,,,,,,,,199051,19,2022-01-29_12h07.11.386,lexical_decision_task_DD_L2,2021.2.3,MacIntel,60.0024001,,,,,,,,,,,,1.2107,0,,,,,,,,,,,,,,,,,,,,,,,,0.063988715,-0.409240451,0,0,0,,,,,,,WALRUS,C,m,y,./images/WALRUS.png,,,,,,,z,0,1.2107,,,,,,,,0,116,116,23,1
,,,,,,,,,,,,,,,,,199051,19,2022-01-29_12h07.11.386,lexical_decision_task_DD_L2,2021.2.3,MacIntel,60.0024001,,,,,,,,,,,,0.6511,0,,,,,,,,,,,,,,,,,,,,,,,,0.063988715,-0.409240451,0,0,0,,,,,,,FERRY,HB,z,y,./images/FERRYHB.png,,,,,,,m,0,0.6511,,,,,,,,0,117,117,141,1
,,,,,,,,,,,,,,,,,199051,19,2022-01-29_12h07.11.386,lexical_decision_task_DD_L2,2021.2.3,MacIntel,60.0024001,,,,,,,,,,,,0.6818,1,,,,,,,,,,,,,,,,,,,,,,,,0.063988715,-0.409240451,0,0,0,,,,,,,MUMMY,LB,z,y,./images/MUMMYLB.png,,,,,,,z,1,0.6818,,,,,,,,0,118,118,130,1
,,,,,,,,,,,,,,,,,199051,19,2022-01-29_12h07.11.386,lexical_decision_task_DD_L2,2021.2.3,MacIntel,60.0024001,,,,,,,,,,,,1.3031,0,,,,,,,,,,,,,,,,,,,,,,,,0.063988715,-0.424739583,0,0,0,,,,,,,DESERT,LB,z,y,./images/DESERTLB.png,,,,,,,m,0,1.3031,,,,,,,,0,119,119,136,1
,,,,,,,,,,,,,,,,,199051,19,2022-01-29_12h07.11.386,lexical_decision_task_DD_L2,2021.2.3,MacIntel,60.0024001,,,,,,,,,,,,0.8161,1,,,,,,,,,,,,,,,,,,,,,,,,0.063988715,-0.428012153,0,0,0,,,,,,,MOOSE,HB,m,y,./images/MOOSEHB.png,,,,,,,m,1,0.8161,,,,,,,,0,120,120,57,1
,,,,,,,,,,,,,,,,,199051,19,2022-01-29_12h07.11.386,lexical_decision_task_DD_L2,2021.2.3,MacIntel,60.0024001,,,,,,,,,,,,0.6348,1,,,,,,,,,,,,,,,,,,,,,,,,0.063988715,-0.428012153,0,0,0,,,,,,,GREASE,HB,m,y,./images/GREASEHB.png,,,,,,,m,1,0.6348,,,,,,,,0,121,121,15,1
,,,,,,,,,,,,,,,,,199051,19,2022-01-29_12h07.11.386,lexical_decision_task_DD_L2,2021.2.3,MacIntel,60.0024001,,,,,,,,,,,,0.7354,1,,,,,,,,,,,,,,,,,,,,,,,,0.063988715,-0.428263889,0,0,0,,,,,,,BONNET,C,m,y,./images/BONNET.png,,,,,,,m,1,0.7354,,,,,,,,0,122,122,11,1
,,,,,,,,,,,,,,,,,199051,19,2022-01-29_12h07.11.386,lexical_decision_task_DD_L2,2021.2.3,MacIntel,60.0024001,,,,,,,,,,,,0.6009,1,,,,,,,,,,,,,,,,,,,,,,,,0.063988715,-0.428263889,0,0,0,,,,,,,LLAMA,C,z,y,./images/LLAMA.png,,,,,,,z,1,0.6009,,,,,,,,0,123,123,119,1
,,,,,,,,,,,,,,,,,199051,19,2022-01-29_12h07.11.386,lexical_decision_task_DD_L2,2021.2.3,MacIntel,60.0024001,,,,,,,,,,,,0.6844,1,,,,,,,,,,,,,,,,,,,,,,,,0.063988715,-0.428263889,0,0,0,,,,,,,CEMENT,C,m,y,./images/CEMENT.png,,,,,,,m,1,0.6844,,,,,,,,0,124,124,74,1
,,,,,,,,,,,,,,,,,199051,19,2022-01-29_12h07.11.386,lexical_decision_task_DD_L2,2021.2.3,MacIntel,60.0024001,,,,,,,,,,,,1.0231,1,,,,,,,,,,,,,,,,,,,,,,,,0.063988715,-0.432947049,0,0,0,space,,,,,,STREAM,C,z,y,./images/STREAM.png,0.7231,,,,,,z,1,1.0231,,,,,,,,0,125,125,125,1
,,,,,,,,,,,,,,,,,199051,19,2022-01-29_12h07.11.386,lexical_decision_task_DD_L2,2021.2.3,MacIntel,60.0024001,,,,,,,,,,,,0.6488,1,,,,,,,,,,,,,,,,,,,,,,,,0.063988715,-0.437118056,0,0,0,,,,,,,PACKET,C,m,y,./images/PACKET.png,,,,,,,m,1,0.6488,,,,,,,,0,126,126,56,1
,,,,,,,,,,,,,,,,,199051,19,2022-01-29_12h07.11.386,lexical_decision_task_DD_L2,2021.2.3,MacIntel,60.0024001,,,,,,,,,,,,0.8343,0,,,,,,,,,,,,,,,,,,,,,,,,0.063988715,-0.437118056,0,0,0,,,,,,,MAGGOT,HB,m,y,./images/MAGGOTHB.png,,,,,,,z,0,0.8343,,,,,,,,0,127,127,33,1
,,,,,,,,,,,,,,,,,199051,19,2022-01-29_12h07.11.386,lexical_decision_task_DD_L2,2021.2.3,MacIntel,60.0024001,,,,,,,,,,,,0.7995,0,,,,,,,,,,,,,,,,,,,,,,,,0.063988715,-0.437118056,0,0,0,,,,,,,PILOT,C,z,y,./images/PILOT.png,,,,,,,m,0,0.7995,,,,,,,,0,128,128,134,1
,,,,,,,,,,,,,,,,,199051,19,2022-01-29_12h07.11.386,lexical_decision_task_DD_L2,2021.2.3,MacIntel,60.0024001,,,,,,,,,,,,0.851,1,,,,,,,,,,,,,,,,,,,,,,,,0.063988715,-0.437118056,0,0,0,,,,,,,STOVE,C,z,y,./images/STOVE.png,,,,,,,z,1,0.851,,,,,,,,0,129,129,86,1
,,,,,,,,,,,,,,,,,199051,19,2022-01-29_12h07.11.386,lexical_decision_task_DD_L2,2021.2.3,MacIntel,60.0024001,,,,,,,,,,,,1.1486,0,,,,,,,,,,,,,,,,,,,,,,,,0.063988715,-0.437118056,0,0,0,,,,,,,FENCE,C,z,y,./images/FENCE.png,,,,,,,m,0,1.1486,,,,,,,,0,130,130,98,1
,,,,,,,,,,,,,,,,,199051,19,2022-01-29_12h07.11.386,lexical_decision_task_DD_L2,2021.2.3,MacIntel,60.0024001,,,,,,,,,,,,0.6698,0,,,,,,,,,,,,,,,,,,,,,,,,0.063988715,-0.437118056,0,0,0,,,,,,,PIMPLE,C,m,y,./images/PIMPLE.png,,,,,,,z,0,0.6698,,,,,,,,0,131,131,71,1
,,,,,,,,,,,,,,,,,199051,19,2022-01-29_12h07.11.386,lexical_decision_task_DD_L2,2021.2.3,MacIntel,60.0024001,,,,,,,,,,,,0.6646,1,,,,,,,,,,,,,,,,,,,,,,,,0.063988715,-0.437118056,0,0,0,,,,,,,TORCH,C,m,y,./images/TORCH.png,,,,,,,m,1,0.6646,,,,,,,,0,132,132,68,1
,,,,,,,,,,,,,,,,,199051,19,2022-01-29_12h07.11.386,lexical_decision_task_DD_L2,2021.2.3,MacIntel,60.0024001,,,,,,,,,,,,0.9841,0,,,,,,,,,,,,,,,,,,,,,,,,0.063988715,-0.437118056,0,0,0,,,,,,,CLIFF,C,z,y,./images/CLIFF.png,,,,,,,m,0,0.9841,,,,,,,,0,133,133,92,1
,,,,,,,,,,,,,,,,,199051,19,2022-01-29_12h07.11.386,lexical_decision_task_DD_L2,2021.2.3,MacIntel,60.0024001,,,,,,,,,,,,0.7058,1,,,,,,,,,,,,,,,,,,,,,,,,0.063988715,-0.437118056,0,0,0,,,,,,,PARCEL,HB,z,y,./images/PARCELHB.png,,,,,,,z,1,0.7058,,,,,,,,0,134,134,102,1
,,,,,,,,,,,,,,,,,199051,19,2022-01-29_12h07.11.386,lexical_decision_task_DD_L2,2021.2.3,MacIntel,60.0024001,,,,,,,,,,,,1.2088,1,,,,,,,,,,,,,,,,,,,,,,,,0.063988715,-0.437118056,0,0,0,,,,,,,JUNGLE,C,m,y,./images/JUNGLE.png,,,,,,,m,1,1.2088,,,,,,,,0,135,135,83,1
,,,,,,,,,,,,,,,,,199051,19,2022-01-29_12h07.11.386,lexical_decision_task_DD_L2,2021.2.3,MacIntel,60.0024001,,,,,,,,,,,,0.8354,0,,,,,,,,,,,,,,,,,,,,,,,,0.063988715,-0.439166667,0,0,0,,,,,,,BASKET,C,z,y,./images/BASKET.png,,,,,,,m,0,0.8354,,,,,,,,0,136,136,128,1
,,,,,,,,,,,,,,,,,199051,19,2022-01-29_12h07.11.386,lexical_decision_task_DD_L2,2021.2.3,MacIntel,60.0024001,,,,,,,,,,,,1.3008,0,,,,,,,,,,,,,,,,,,,,,,,,0.063988715,-0.435082465,0,0,0,,,,,,,BOILER,HB,z,y,./images/BOILERHB.png,,,,,,,m,0,1.3008,,,,,,,,0,137,137,120,1
,,,,,,,,,,,,,,,,,199051,19,2022-01-29_12h07.11.386,lexical_decision_task_DD_L2,2021.2.3,MacIntel,60.0024001,,,,,,,,,,,,0.6382,0,,,,,,,,,,,,,,,,,,,,,,,,0.063988715,-0.435082465,0,0,0,,,,,,,BIRTH,LB,m,y,./images/BIRTHLB.png,,,,,,,z,0,0.6382,,,,,,,,0,138,138,37,1
,,,,,,,,,,,,,,,,,199051,19,2022-01-29_12h07.11.386,lexical_decision_task_DD_L2,2021.2.3,MacIntel,60.0024001,,,,,,,,,,,,0.6368,1,,,,,,,,,,,,,,,,,,,,,,,,0.063988715,-0.435082465,0,0,0,,,,,,,CRUST,LB,m,y,./images/CRUSTLB.png,,,,,,,m,1,0.6368,,,,,,,,0,139,139,79,1
,,,,,,,,,,,,,,,,,199051,19,2022-01-29_12h07.11.386,lexical_decision_task_DD_L2,2021.2.3,MacIntel,60.0024001,,,,,,,,,,,,0.5616,1,,,,,,,,,,,,,,,,,,,,,,,,0.063988715,-0.435082465,0,0,0,,,,,,,BABOON,LB,m,y,./images/BABOONLB.png,,,,,,,m,1,0.5616,,,,,,,,0,140,140,58,1
,,,,,,,,,,,,,,,,,199051,19,2022-01-29_12h07.11.386,lexical_decision_task_DD_L2,2021.2.3,MacIntel,60.0024001,,,,,,,,,,,,0.629,1,,,,,,,,,,,,,,,,,,,,,,,,0.063988715,-0.435082465,0,0,0,,,,,,,CRADLE,C,m,y,./images/CRADLE.png,,,,,,,m,1,0.629,,,,,,,,0,141,141,20,1
,,,,,,,,,,,,,,,,,199051,19,2022-01-29_12h07.11.386,lexical_decision_task_DD_L2,2021.2.3,MacIntel,60.0024001,,,,,,,,,,,,0.9845,1,,,,,,,,,,,,,,,,,,,,,,,,0.063988715,-0.435082465,0,0,0,,,,,,,CARPET,C,m,y,./images/CARPET.png,,,,,,,m,1,0.9845,,,,,,,,0,142,142,53,1
,,,,,,,,,,,,,,,,,199051,19,2022-01-29_12h07.11.386,lexical_decision_task_DD_L2,2021.2.3,MacIntel,60.0024001,,,,,,,,,,,,0.7849,1,,,,,,,,,,,,,,,,,,,,,,,,0.063988715,-0.435082465,0,0,0,,,,,,,CLOWN,LB,z,y,./images/CLOWNLB.png,,,,,,,z,1,0.7849,,,,,,,,0,143,143,106,1
,,,,,,,,,,,,,,,,,199051,19,2022-01-29_12h07.11.386,lexical_decision_task_DD_L2,2021.2.3,MacIntel,60.0024001,,,,,,,,,,,,0.7824,0,,,,,,,,,,,,,,,,,,,,,,,,0.063988715,-0.435082465,0,0,0,,,,,,,URINE,LB,m,y,./images/URINELB.png,,,,,,,z,0,0.7824,,,,,,,,0,144,144,70,1
,,,,,,,,,,,,,,,,,199051,19,2022-01-29_12h07.11.386,lexical_decision_task_DD_L2,2021.2.3,MacIntel,60.0024001,,,,,,,,,,,,1.0175,0,,,,,,,,,,,,,,,,,,,,,,,,0.063988715,-0.435082465,0,0,0,,,,,,,CHALK,LB,z,y,./images/CHALKLB.png,,,,,,,m,0,1.0175,,,,,,,,0,145,145,109,1
,,,,,,,,,,,,,,,,,199051,19,2022-01-29_12h07.11.386,lexical_decision_task_DD_L2,2021.2.3,MacIntel,60.0024001,,,,,,,,,,,,1.0222,0,,,,,,,,,,,,,,,,,,,,,,,,0.063988715,-0.435082465,0,0,0,,,,,,,COOKER,HB,m,y,./images/COOKERHB.png,,,,,,,z,0,1.0222,,,,,,,,0,146,146,69,1
,,,,,,,,,,,,,,,,,199051,19,2022-01-29_12h07.11.386,lexical_decision_task_DD_L2,2021.2.3,MacIntel,60.0024001,,,,,,,,,,,,0.584,1,,,,,,,,,,,,,,,,,,,,,,,,0.063988715,-0.435082465,0,0,0,,,,,,,WEASEL,C,m,y,./images/WEASEL.png,,,,,,,m,1,0.584,,,,,,,,0,147,147,80,1
,,,,,,,,,,,,,,,,,199051,19,2022-01-29_12h07.11.386,lexical_decision_task_DD_L2,2021.2.3,MacIntel,60.0024001,,,,,,,,,,,,0.8451,0,,,,,,,,,,,,,,,,,,,,,,,,0.063988715,-0.435082465,0,0,0,,,,,,,JAGUAR,HB,m,y,./images/JAGUARHB.png,,,,,,,z,0,0.8451,,,,,,,,0,148,148,18,1
,,,,,,,,,,,,,,,,,199051,19,2022-01-29_12h07.11.386,lexical_decision_task_DD_L2,2021.2.3,MacIntel,60.0024001,,,,,,,,,,,,0.6632,1,,,,,,,,,,,,,,,,,,,,,,,,0.063988715,-0.435082465,0,0,0,,,,,,,TULIP,C,m,y,./images/TULIP.png,,,,,,,m,1,0.6632,,,,,,,,0,149,149,8,1
,,,,,,,,,,,,,,,,,199051,19,2022-01-29_12h07.11.386,lexical_decision_task_DD_L2,2021.2.3,MacIntel,60.0024001,,,,,,,,,,,,0.7569,1,,,,,,,,,,,,,,,,,,,,,,,,0.063988715,-0.435082465,0,0,0,,,,,,,WHISKY,C,z,y,./images/WHISKY.png,,,,,,,z,1,0.7569,,,,,,,,0,150,150,167,1
,,,,,,,,,,,,,,,,,199051,19,2022-01-29_12h07.11.386,lexical_decision_task_DD_L2,2021.2.3,MacIntel,60.0024001,,,,,,,,,,,,0.9665,1,,,,,,,,,,,,,,,,,,,,,,,,0.063988715,-0.435082465,0,0,0,,,,,,,HOCKEY,C,z,y,./images/HOCKEY.png,,,,,,,z,1,0.9665,,,,,,,,0,151,151,116,1
,,,,,,,,,,,,,,,,,199051,19,2022-01-29_12h07.11.386,lexical_decision_task_DD_L2,2021.2.3,MacIntel,60.0024001,,,,,,,,,,,,0.7181,1,,,,,,,,,,,,,,,,,,,,,,,,0.063988715,-0.435082465,0,0,0,,,,,,,BANANA,LB,z,y,./images/BANANALB.png,,,,,,,z,1,0.7181,,,,,,,,0,152,152,154,1
,,,,,,,,,,,,,,,,,199051,19,2022-01-29_12h07.11.386,lexical_decision_task_DD_L2,2021.2.3,MacIntel,60.0024001,,,,,,,,,,,,0.6214,1,,,,,,,,,,,,,,,,,,,,,,,,0.063988715,-0.435082465,0,0,0,,,,,,,KIDNEY,HB,m,y,./images/KIDNEYHB.png,,,,,,,m,1,0.6214,,,,,,,,0,153,153,21,1
,,,,,,,,,,,,,,,,,199051,19,2022-01-29_12h07.11.386,lexical_decision_task_DD_L2,2021.2.3,MacIntel,60.0024001,,,,,,,,,,,,1.1047,1,,,,,,,,,,,,,,,,,,,,,,,,0.063988715,-0.435082465,0,0,0,,,,,,,POSTER,C,z,y,./images/POSTER.png,,,,,,,z,1,1.1047,,,,,,,,0,154,154,137,1
,,,,,,,,,,,,,,,,,199051,19,2022-01-29_12h07.11.386,lexical_decision_task_DD_L2,2021.2.3,MacIntel,60.0024001,,,,,,,,,,,,0.7749,1,,,,,,,,,,,,,,,,,,,,,,,,0.063988715,-0.435082465,0,0,0,,,,,,,SLOPE,HB,z,y,./images/SLOPEHB.png,,,,,,,z,1,0.7749,,,,,,,,0,155,155,114,1
,,,,,,,,,,,,,,,,,199051,19,2022-01-29_12h07.11.386,lexical_decision_task_DD_L2,2021.2.3,MacIntel,60.0024001,,,,,,,,,,,,0.8477,1,,,,,,,,,,,,,,,,,,,,,,,,0.063988715,-0.435082465,0,0,0,,,,,,,CASINO,LB,z,y,./images/CASINOLB.png,,,,,,,z,1,0.8477,,,,,,,,0,156,156,112,1
,,,,,,,,,,,,,,,,,199051,19,2022-01-29_12h07.11.386,lexical_decision_task_DD_L2,2021.2.3,MacIntel,60.0024001,,,,,,,,,,,,0.6833,1,,,,,,,,,,,,,,,,,,,,,,,,0.063988715,-0.435082465,0,0,0,,,,,,,RHINO,HB,m,y,./images/RHINOHB.png,,,,,,,m,1,0.6833,,,,,,,,0,157,157,9,1
,,,,,,,,,,,,,,,,,199051,19,2022-01-29_12h07.11.386,lexical_decision_task_DD_L2,2021.2.3,MacIntel,60.0024001,,,,,,,,,,,,0.8204,1,,,,,,,,,,,,,,,,,,,,,,,,0.063988715,-0.435082465,0,0,0,,,,,,,PEARL,LB,m,y,./images/PEARLLB.png,,,,,,,m,1,0.8204,,,,,,,,0,158,158,46,1
,,,,,,,,,,,,,,,,,199051,19,2022-01-29_12h07.11.386,lexical_decision_task_DD_L2,2021.2.3,MacIntel,60.0024001,,,,,,,,,,,,0.7703,0,,,,,,,,,,,,,,,,,,,,,,,,0.063988715,-0.435082465,0,0,0,,,,,,,HAMMER,HB,z,y,./images/HAMMERHB.png,,,,,,,m,0,0.7703,,,,,,,,0,159,159,159,1
,,,,,,,,,,,,,,,,,199051,19,2022-01-29_12h07.11.386,lexical_decision_task_DD_L2,2021.2.3,MacIntel,60.0024001,,,,,,,,,,,,1.6796,1,,,,,,,,,,,,,,,,,,,,,,,,0.063988715,-0.435082465,0,0,0,,,,,,,PEACH,C,m,y,./images/PEACH.png,,,,,,,m,1,1.6796,,,,,,,,0,160,160,35,1
,,,,,,,,,,,,,,,,,199051,19,2022-01-29_12h07.11.386,lexical_decision_task_DD_L2,2021.2.3,MacIntel,60.0024001,,,,,,,,,,,,0.8058,1,,,,,,,,,,,,,,,,,,,,,,,,0.063988715,-0.435082465,0,0,0,,,,,,,STEAK,LB,z,y,./images/STEAKLB.png,,,,,,,z,1,0.8058,,,,,,,,0,161,161,115,1
,,,,,,,,,,,,,,,,,199051,19,2022-01-29_12h07.11.386,lexical_decision_task_DD_L2,2021.2.3,MacIntel,60.0024001,,,,,,,,,,,,0.7401,0,,,,,,,,,,,,,,,,,,,,,,,,0.063988715,-0.435082465,0,0,0,,,,,,,WHEEL,C,z,y,./images/WHEEL.png,,,,,,,m,0,0.7401,,,,,,,,0,162,162,161,1
,,,,,,,,,,,,,,,,,199051,19,2022-01-29_12h07.11.386,lexical_decision_task_DD_L2,2021.2.3,MacIntel,60.0024001,,,,,,,,,,,,0.6356,1,,,,,,,,,,,,,,,,,,,,,,,,0.063988715,-0.435082465,0,0,0,,,,,,,KITTEN,HB,m,y,./images/KITTENHB.png,,,,,,,m,1,0.6356,,,,,,,,0,163,163,45,1
,,,,,,,,,,,,,,,,,199051,19,2022-01-29_12h07.11.386,lexical_decision_task_DD_L2,2021.2.3,MacIntel,60.0024001,,,,,,,,,,,,0.732,0,,,,,,,,,,,,,,,,,,,,,,,,0.063988715,-0.435082465,0,0,0,,,,,,,GARDEN,LB,z,y,./images/GARDENLB.png,,,,,,,m,0,0.732,,,,,,,,0,164,164,94,1
,,,,,,,,,,,,,,,,,199051,19,2022-01-29_12h07.11.386,lexical_decision_task_DD_L2,2021.2.3,MacIntel,60.0024001,,,,,,,,,,,,0.7086,1,,,,,,,,,,,,,,,,,,,,,,,,0.063988715,-0.435082465,0,0,0,,,,,,,GRAPE,LB,z,y,./images/GRAPELB.png,,,,,,,z,1,0.7086,,,,,,,,0,165,165,100,1
,,,,,,,,,,,,,,,,,199051,19,2022-01-29_12h07.11.386,lexical_decision_task_DD_L2,2021.2.3,MacIntel,60.0024001,,,,,,,,,,,,1.0287,1,,,,,,,,,,,,,,,,,,,,,,,,0.063988715,-0.435082465,0,0,0,,,,,,,SAUNA,HB,z,y,./images/SAUNAHB.png,,,,,,,z,1,1.0287,,,,,,,,0,166,166,117,1
,,,,,,,,,,,,,,,,,199051,19,2022-01-29_12h07.11.386,lexical_decision_task_DD_L2,2021.2.3,MacIntel,60.0024001,,,,,,,,,,,,1.1754,0,,,,,,,,,,,,,,,,,,,,,,,,0.063988715,-0.435082465,0,0,0,,,,,,,BURIAL,C,m,y,./images/BURIAL.png,,,,,,,z,0,1.1754,,,,,,,,0,167,167,59,1
