key_resp.keys,instr_done_touch.x,instr_done_touch.y,instr_done_touch.leftButton,instr_done_touch.midButton,instr_done_touch.rightButton,instr_done_touch.clicked_name,instruction_pages.thisRepN,instruction_pages.thisTrialN,instruction_pages.thisN,instruction_pages.thisIndex,instruction_pages.ran,pageN,phase,instruct_text,has_image,instruct_image,participant,age,date,expName,psychopyVersion,OS,frameRate,response.keys,response.corr,touch_resp.x,touch_resp.y,touch_resp.leftButton,touch_resp.midButton,touch_resp.rightButton,touch_resp.time,touch_resp.clicked_name,rt,corr,practrials.thisRepN,practrials.thisTrialN,practrials.thisN,practrials.thisIndex,practrials.ran,TrialID,Target,corrAns,end_of_practice_trials_pages.thisRepN,end_of_practice_trials_pages.thisTrialN,end_of_practice_trials_pages.thisN,end_of_practice_trials_pages.thisIndex,end_of_practice_trials_pages.ran,key_resp_2.keys,key_resp_2.corr,targ_click.x,targ_click.y,targ_click.leftButton,targ_click.midButton,targ_click.rightButton,targ_click.time,targ_click.clicked_name,break_done_touch.x,break_done_touch.y,break_done_touch.leftButton,break_done_touch.midButton,break_done_touch.rightButton,break_done_keyboard.keys,maintrials.thisRepN,maintrials.thisTrialN,maintrials.thisN,maintrials.thisIndex,maintrials.ran,string,blur,study,lex,stim_path,break_done_touch.clicked_name,test_instructions.thisRepN,test_instructions.thisTrialN,test_instructions.thisN,test_instructions.thisIndex,test_instructions.ran,key_resp_3.keys,key_resp_3.corr,test_click.x,test_click.y,test_click.leftButton,test_click.midButton,test_click.rightButton,test_click.time,test_click.clicked_name,test_phase.thisRepN,test_phase.thisTrialN,test_phase.thisN,test_phase.thisIndex,test_phase.ran
,0.084693878,-0.41122449,1,0,0,instr_done_button,0,0,0,0,1,1,instructions,"INSTRUCTIONS
At the start of each trial, look at the plus sign  (+) in the center of the screen.  This tells you that a trial is about to begin and where to look. Second, the plus sign will disappear and a string of letters will appear. Your task is to determine if the string of letters is a word or not. If the item is a word press the M key (on keyboard)  or touch the word button (phone/tablet).  If the item is not a word,  press the  Z key (on keyboard)  or touch the nonword button (on phone/tablet). 
Press the space bar or touch  continue.",0,,199123,19,2022-01-28_15h48.21.363,lexical_decision_task_DD_L5,2021.2.3,iPhone,29.41176471,,,,,,,,,,,,,,,,,,,,,,,,,,,,,,,,,,,,,,,,,,,,,,,,,,,,,,,,,,,,,,,,,,,,,
,0.098979592,-0.410204082,1,0,0,instr_done_button,0,1,1,1,1,2,instructions,"If your device has a keyboard, press the 'Z' key for nonwords and the 'M' key for words.





Press the space bar or touch the button below to continue.",0,keyboard-example.gif,199123,19,2022-01-28_15h48.21.363,lexical_decision_task_DD_L5,2021.2.3,iPhone,29.41176471,,,,,,,,,,,,,,,,,,,,,,,,,,,,,,,,,,,,,,,,,,,,,,,,,,,,,,,,,,,,,,,,,,,,,
,0.120408163,-0.406122449,1,0,0,instr_done_button,0,2,2,2,1,3,instructions,"If you are using a touchscreen only device, use the buttons on the screen. Do not use the mouse.





Press the space bar or touch the button below to continue.",0,touchscreen-example.gif,199123,19,2022-01-28_15h48.21.363,lexical_decision_task_DD_L5,2021.2.3,iPhone,29.41176471,,,,,,,,,,,,,,,,,,,,,,,,,,,,,,,,,,,,,,,,,,,,,,,,,,,,,,,,,,,,,,,,,,,,,
,0.079591837,-0.406122449,1,0,0,instr_done_button,0,3,3,3,1,4,instructions,"It is very important that you respond as quickly and accurately as possible, as each letter string will only be on the screen for two seconds. If you do not respond within this time, the message 'Too slow!' will be displayed and the experiment will progress to the next letter string. The first 20 trials will be practice trials and you will receive feedback on your answers. 

Press the space bar or touch the button below to start the practice trials.",0,,199123,19,2022-01-28_15h48.21.363,lexical_decision_task_DD_L5,2021.2.3,iPhone,29.41176471,,,,,,,,,,,,,,,,,,,,,,,,,,,,,,,,,,,,,,,,,,,,,,,,,,,,,,,,,,,,,,,,,,,,,
,,,,,,,,,,,,,,,,,199123,19,2022-01-28_15h48.21.363,lexical_decision_task_DD_L5,2021.2.3,iPhone,29.41176471,,0,0.43877551,-0.306122449,1,0,0,1.558,button_right,1.558,1,0,0,0,2,1,1001,ALMOND,m,,,,,,,,,,,,,,,,,,,,,,,,,,,,,,,,,,,,,,,,,,,,,,,,,,
,,,,,,,,,,,,,,,,,199123,19,2022-01-28_15h48.21.363,lexical_decision_task_DD_L5,2021.2.3,iPhone,29.41176471,,0,-0.367346939,-0.237755102,1,0,0,1.429,button_left,1.429,1,0,1,1,12,1,1001,SPRINY,z,,,,,,,,,,,,,,,,,,,,,,,,,,,,,,,,,,,,,,,,,,,,,,,,,,
,,,,,,,,,,,,,,,,,199123,19,2022-01-28_15h48.21.363,lexical_decision_task_DD_L5,2021.2.3,iPhone,29.41176471,,0,-0.389795918,-0.303061224,1,0,0,1.627,button_left,1.627,1,0,2,2,11,1,1001,RASHET,z,,,,,,,,,,,,,,,,,,,,,,,,,,,,,,,,,,,,,,,,,,,,,,,,,,
,,,,,,,,,,,,,,,,,199123,19,2022-01-28_15h48.21.363,lexical_decision_task_DD_L5,2021.2.3,iPhone,29.41176471,,0,0.408163265,-0.340816327,1,0,0,1.628,button_right,1.628,1,0,3,3,0,1,1001,UTOPIA,m,,,,,,,,,,,,,,,,,,,,,,,,,,,,,,,,,,,,,,,,,,,,,,,,,,
,,,,,,,,,,,,,,,,,199123,19,2022-01-28_15h48.21.363,lexical_decision_task_DD_L5,2021.2.3,iPhone,29.41176471,,0,0.405102041,-0.323469388,1,0,0,1.157,button_right,1.157,1,0,4,4,3,1,1001,MATRIX,m,,,,,,,,,,,,,,,,,,,,,,,,,,,,,,,,,,,,,,,,,,,,,,,,,,
,,,,,,,,,,,,,,,,,199123,19,2022-01-28_15h48.21.363,lexical_decision_task_DD_L5,2021.2.3,iPhone,29.41176471,,0,-0.393877551,-0.351020408,1,0,0,0.933,button_left,0.933,1,0,5,5,13,1,1001,ROUPET,z,,,,,,,,,,,,,,,,,,,,,,,,,,,,,,,,,,,,,,,,,,,,,,,,,,
,,,,,,,,,,,,,,,,,199123,19,2022-01-28_15h48.21.363,lexical_decision_task_DD_L5,2021.2.3,iPhone,29.41176471,,0,0.404081633,-0.344897959,1,0,0,0.698,button_right,0.698,1,0,6,6,5,1,1001,OBTAIN,m,,,,,,,,,,,,,,,,,,,,,,,,,,,,,,,,,,,,,,,,,,,,,,,,,,
,,,,,,,,,,,,,,,,,199123,19,2022-01-28_15h48.21.363,lexical_decision_task_DD_L5,2021.2.3,iPhone,29.41176471,,0,-0.405102041,-0.358163265,1,0,0,0.9,button_left,0.9,1,0,7,7,15,1,1001,WHAISE,z,,,,,,,,,,,,,,,,,,,,,,,,,,,,,,,,,,,,,,,,,,,,,,,,,,
,,,,,,,,,,,,,,,,,199123,19,2022-01-28_15h48.21.363,lexical_decision_task_DD_L5,2021.2.3,iPhone,29.41176471,,0,0.41122449,-0.310204082,1,0,0,0.797,button_right,0.797,1,0,8,8,1,1,1001,ADJUST,m,,,,,,,,,,,,,,,,,,,,,,,,,,,,,,,,,,,,,,,,,,,,,,,,,,
,,,,,,,,,,,,,,,,,199123,19,2022-01-28_15h48.21.363,lexical_decision_task_DD_L5,2021.2.3,iPhone,29.41176471,,0,0.445918367,-0.363265306,1,0,0,1.135,button_right,1.135,1,0,9,9,4,1,1001,SQUEAK,m,,,,,,,,,,,,,,,,,,,,,,,,,,,,,,,,,,,,,,,,,,,,,,,,,,
,,,,,,,,,,,,,,,,,199123,19,2022-01-28_15h48.21.363,lexical_decision_task_DD_L5,2021.2.3,iPhone,29.41176471,,0,-0.382653061,-0.310204082,1,0,0,0.96,button_left,0.96,1,0,10,10,8,1,1001,ASLERT,z,,,,,,,,,,,,,,,,,,,,,,,,,,,,,,,,,,,,,,,,,,,,,,,,,,
,,,,,,,,,,,,,,,,,199123,19,2022-01-28_15h48.21.363,lexical_decision_task_DD_L5,2021.2.3,iPhone,29.41176471,,0,0.437755102,-0.255102041,1,0,0,0.76,button_right,0.76,1,0,11,11,7,1,1001,VOLUME,m,,,,,,,,,,,,,,,,,,,,,,,,,,,,,,,,,,,,,,,,,,,,,,,,,,
,,,,,,,,,,,,,,,,,199123,19,2022-01-28_15h48.21.363,lexical_decision_task_DD_L5,2021.2.3,iPhone,29.41176471,,0,-0.370408163,-0.335714286,1,0,0,0.961,button_left,0.961,1,0,12,12,14,1,1001,THRALE,z,,,,,,,,,,,,,,,,,,,,,,,,,,,,,,,,,,,,,,,,,,,,,,,,,,
,,,,,,,,,,,,,,,,,199123,19,2022-01-28_15h48.21.363,lexical_decision_task_DD_L5,2021.2.3,iPhone,29.41176471,,0,0.416326531,-0.325510204,1,0,0,0.626,button_right,0.626,1,0,13,13,6,1,1001,ZOMBIE,m,,,,,,,,,,,,,,,,,,,,,,,,,,,,,,,,,,,,,,,,,,,,,,,,,,
,,,,,,,,,,,,,,,,,199123,19,2022-01-28_15h48.21.363,lexical_decision_task_DD_L5,2021.2.3,iPhone,29.41176471,,0,-0.373469388,-0.334693878,1,0,0,0.893,button_left,0.893,1,0,14,14,9,1,1001,FARINY,z,,,,,,,,,,,,,,,,,,,,,,,,,,,,,,,,,,,,,,,,,,,,,,,,,,
,,,,,,,,,,,,,,,,,199123,19,2022-01-28_15h48.21.363,lexical_decision_task_DD_L5,2021.2.3,iPhone,29.41176471,,0,-0.379591837,-0.320408163,1,0,0,0.794,button_left,0.794,1,0,15,15,10,1,1001,INLADE,z,,,,,,,,,,,,,,,,,,,,,,,,,,,,,,,,,,,,,,,,,,,,,,,,,,
,0.142857143,-0.406122449,1,0,0,instr_done_button,,,,,,1,end_of_practice,"You have completed the practice trials. During the experimental trials, you will not receive feedback. 
Before you begin, please ensure that you are in a comfortable and quiet location and will not be disturbed for about 15 minutes, as we cannot use your data if you do not complete all the trials. 
 When you are ready to start the experimental trials, please press space or touch the button below.",,,199123,19,2022-01-28_15h48.21.363,lexical_decision_task_DD_L5,2021.2.3,iPhone,29.41176471,,,,,,,,,,,,,,,,,,,,0,0,0,0,1,,,,,,,,,,,,,,,,,,,,,,,,,,,,,,,,,,,,,,,,,,,,,
,,,,,,,,,,,,,,,,,199123,19,2022-01-28_15h48.21.363,lexical_decision_task_DD_L5,2021.2.3,iPhone,29.41176471,,,,,,,,,,1.851,1,,,,,,,,,,,,,,,0,-0.389795918,-0.273469388,1,0,0,1.851,button_left_main,-0.389795918,-0.273469388,1,0,0,,0,0,0,106,1,CLUMS,HB,old,z,./images/CLUMSHB.png,,,,,,,,,,,,,,,,,,,,
,,,,,,,,,,,,,,,,,199123,19,2022-01-28_15h48.21.363,lexical_decision_task_DD_L5,2021.2.3,iPhone,29.41176471,,,,,,,,,,0.796,1,,,,,,,,,,,,,,,0,0.4,-0.268367347,1,0,0,0.796,button_right_main,0.4,-0.268367347,1,0,0,,0,1,1,55,1,ALLEY,LB,old,m,./images/ALLEYLB.png,,,,,,,,,,,,,,,,,,,,
,,,,,,,,,,,,,,,,,199123,19,2022-01-28_15h48.21.363,lexical_decision_task_DD_L5,2021.2.3,iPhone,29.41176471,,,,,,,,,,1.471,1,,,,,,,,,,,,,,,0,0.393877551,-0.32244898,1,0,0,1.471,button_right_main,0.393877551,-0.32244898,1,0,0,,0,2,2,68,1,VALLEY,C,old,m,./images/VALLEY.png,,,,,,,,,,,,,,,,,,,,
,,,,,,,,,,,,,,,,,199123,19,2022-01-28_15h48.21.363,lexical_decision_task_DD_L5,2021.2.3,iPhone,29.41176471,,,,,,,,,,0.997,1,,,,,,,,,,,,,,,0,0.394897959,-0.286734694,1,0,0,0.997,button_right_main,0.394897959,-0.286734694,1,0,0,,0,3,3,26,1,CLOUD,C,old,m,./images/CLOUD.png,,,,,,,,,,,,,,,,,,,,
,,,,,,,,,,,,,,,,,199123,19,2022-01-28_15h48.21.363,lexical_decision_task_DD_L5,2021.2.3,iPhone,29.41176471,,,,,,,,,,1.07,1,,,,,,,,,,,,,,,0,-0.414285714,-0.319387755,1,0,0,1.07,button_left_main,-0.414285714,-0.319387755,1,0,0,,0,4,4,140,1,DOVET,LB,old,z,./images/DOVETLB.png,,,,,,,,,,,,,,,,,,,,
,,,,,,,,,,,,,,,,,199123,19,2022-01-28_15h48.21.363,lexical_decision_task_DD_L5,2021.2.3,iPhone,29.41176471,,,,,,,,,,1.902,1,,,,,,,,,,,,,,,0,-0.426530612,-0.325510204,1,0,0,1.902,button_left_main,-0.426530612,-0.325510204,1,0,0,,0,5,5,154,1,THINT,HB,old,z,./images/THINTHB.png,,,,,,,,,,,,,,,,,,,,
,,,,,,,,,,,,,,,,,199123,19,2022-01-28_15h48.21.363,lexical_decision_task_DD_L5,2021.2.3,iPhone,29.41176471,,,,,,,,,,0.631,1,,,,,,,,,,,,,,,0,0.392857143,-0.310204082,1,0,0,0.631,button_right_main,0.392857143,-0.310204082,1,0,0,,0,6,6,23,1,CLOTH,C,old,m,./images/CLOTH.png,,,,,,,,,,,,,,,,,,,,
,,,,,,,,,,,,,,,,,199123,19,2022-01-28_15h48.21.363,lexical_decision_task_DD_L5,2021.2.3,iPhone,29.41176471,,,,,,,,,,0.597,1,,,,,,,,,,,,,,,0,0.384693878,-0.305102041,1,0,0,0.597,button_right_main,0.384693878,-0.305102041,1,0,0,,0,7,7,5,1,BAMBOO,C,old,m,./images/BAMBOO.png,,,,,,,,,,,,,,,,,,,,
,,,,,,,,,,,,,,,,,199123,19,2022-01-28_15h48.21.363,lexical_decision_task_DD_L5,2021.2.3,iPhone,29.41176471,,,,,,,,,,0.763,1,,,,,,,,,,,,,,,0,0.434693878,-0.326530612,1,0,0,0.763,button_right_main,0.434693878,-0.326530612,1,0,0,,0,8,8,1,1,TOWEL,LB,old,m,./images/TOWELLB.png,,,,,,,,,,,,,,,,,,,,
,,,,,,,,,,,,,,,,,199123,19,2022-01-28_15h48.21.363,lexical_decision_task_DD_L5,2021.2.3,iPhone,29.41176471,,,,,,,,,,1.164,1,,,,,,,,,,,,,,,0,-0.430612245,-0.309183673,1,0,0,1.164,button_left_main,-0.430612245,-0.309183673,1,0,0,,0,9,9,88,1,GLUSH,HB,old,z,./images/GLUSHHB.png,,,,,,,,,,,,,,,,,,,,
,,,,,,,,,,,,,,,,,199123,19,2022-01-28_15h48.21.363,lexical_decision_task_DD_L5,2021.2.3,iPhone,29.41176471,,,,,,,,,,0.765,1,,,,,,,,,,,,,,,0,0.421428571,-0.340816327,1,0,0,0.765,button_right_main,0.421428571,-0.340816327,1,0,0,,0,10,10,16,1,GRAPE,LB,old,m,./images/GRAPELB.png,,,,,,,,,,,,,,,,,,,,
,,,,,,,,,,,,,,,,,199123,19,2022-01-28_15h48.21.363,lexical_decision_task_DD_L5,2021.2.3,iPhone,29.41176471,,,,,,,,,,0.898,1,,,,,,,,,,,,,,,0,-0.420408163,-0.32244898,1,0,0,0.898,button_left_main,-0.420408163,-0.32244898,1,0,0,,0,11,11,124,1,TUNCH,HB,old,z,./images/TUNCHHB.png,,,,,,,,,,,,,,,,,,,,
,,,,,,,,,,,,,,,,,199123,19,2022-01-28_15h48.21.363,lexical_decision_task_DD_L5,2021.2.3,iPhone,29.41176471,,,,,,,,,,1.739,1,,,,,,,,,,,,,,,0,0.421428571,-0.359183673,1,0,0,1.739,button_right_main,0.421428571,-0.359183673,1,0,0,,0,12,12,11,1,MEDAL,C,old,m,./images/MEDAL.png,,,,,,,,,,,,,,,,,,,,
,,,,,,,,,,,,,,,,,199123,19,2022-01-28_15h48.21.363,lexical_decision_task_DD_L5,2021.2.3,iPhone,29.41176471,,,,,,,,,,0.998,1,,,,,,,,,,,,,,,0,-0.424489796,-0.336734694,1,0,0,0.998,button_left_main,-0.424489796,-0.336734694,1,0,0,,0,13,13,85,1,CHULK,HB,old,z,./images/CHULKHB.png,,,,,,,,,,,,,,,,,,,,
,,,,,,,,,,,,,,,,,199123,19,2022-01-28_15h48.21.363,lexical_decision_task_DD_L5,2021.2.3,iPhone,29.41176471,,,,,,,,,,0.596,1,,,,,,,,,,,,,,,0,0.403061224,-0.291836735,1,0,0,0.596,button_right_main,0.403061224,-0.291836735,1,0,0,,0,14,14,80,1,PLANET,C,old,m,./images/PLANET.png,,,,,,,,,,,,,,,,,,,,
,,,,,,,,,,,,,,,,,199123,19,2022-01-28_15h48.21.363,lexical_decision_task_DD_L5,2021.2.3,iPhone,29.41176471,,,,,,,,,,0.767,1,,,,,,,,,,,,,,,0,0.41122449,-0.329591837,1,0,0,0.767,button_right_main,0.41122449,-0.329591837,1,0,0,,0,15,15,69,1,ARROW,HB,old,m,./images/ARROWHB.png,,,,,,,,,,,,,,,,,,,,
,,,,,,,,,,,,,,,,,199123,19,2022-01-28_15h48.21.363,lexical_decision_task_DD_L5,2021.2.3,iPhone,29.41176471,,,,,,,,,,0.73,1,,,,,,,,,,,,,,,0,0.384693878,-0.325510204,1,0,0,0.73,button_right_main,0.384693878,-0.325510204,1,0,0,,0,16,16,27,1,BUTTER,HB,old,m,./images/BUTTERHB.png,,,,,,,,,,,,,,,,,,,,
,,,,,,,,,,,,,,,,,199123,19,2022-01-28_15h48.21.363,lexical_decision_task_DD_L5,2021.2.3,iPhone,29.41176471,,,,,,,,,,1.465,1,,,,,,,,,,,,,,,0,-0.428571429,-0.328571429,1,0,0,1.465,button_left_main,-0.428571429,-0.328571429,1,0,0,,0,17,17,107,1,FASKS,LB,old,z,./images/FASKSLB.png,,,,,,,,,,,,,,,,,,,,
,,,,,,,,,,,,,,,,,199123,19,2022-01-28_15h48.21.363,lexical_decision_task_DD_L5,2021.2.3,iPhone,29.41176471,,,,,,,,,,0.631,1,,,,,,,,,,,,,,,0,0.4,-0.318367347,1,0,0,0.631,button_right_main,0.4,-0.318367347,1,0,0,,0,18,18,47,1,LAGOON,C,old,m,./images/LAGOON.png,,,,,,,,,,,,,,,,,,,,
,,,,,,,,,,,,,,,,,199123,19,2022-01-28_15h48.21.363,lexical_decision_task_DD_L5,2021.2.3,iPhone,29.41176471,,,,,,,,,,0.998,1,,,,,,,,,,,,,,,0,-0.434693878,-0.336734694,1,0,0,0.998,button_left_main,-0.434693878,-0.336734694,1,0,0,,0,19,19,99,1,BACKY,C,old,z,./images/BACKY.png,,,,,,,,,,,,,,,,,,,,
,,,,,,,,,,,,,,,,,199123,19,2022-01-28_15h48.21.363,lexical_decision_task_DD_L5,2021.2.3,iPhone,29.41176471,,,,,,,,,,0.864,1,,,,,,,,,,,,,,,0,-0.429591837,-0.320408163,1,0,0,0.864,button_left_main,-0.429591837,-0.320408163,1,0,0,,0,20,20,86,1,AIFED,LB,old,z,./images/AIFEDLB.png,,,,,,,,,,,,,,,,,,,,
,,,,,,,,,,,,,,,,,199123,19,2022-01-28_15h48.21.363,lexical_decision_task_DD_L5,2021.2.3,iPhone,29.41176471,,,,,,,,,,1.999,1,,,,,,,,,,,,,,,0,0.419387755,-0.340816327,1,0,0,1.999,button_right_main,0.419387755,-0.340816327,1,0,0,,0,21,21,9,1,DIVER,HB,old,m,./images/DIVERHB.png,,,,,,,,,,,,,,,,,,,,
,,,,,,,,,,,,,,,,,199123,19,2022-01-28_15h48.21.363,lexical_decision_task_DD_L5,2021.2.3,iPhone,29.41176471,,,,,,,,,,1.397,1,,,,,,,,,,,,,,,0,0.416326531,-0.344897959,1,0,0,1.397,button_right_main,0.416326531,-0.344897959,1,0,0,,0,22,22,78,1,BROOM,HB,old,m,./images/BROOMHB.png,,,,,,,,,,,,,,,,,,,,
,,,,,,,,,,,,,,,,,199123,19,2022-01-28_15h48.21.363,lexical_decision_task_DD_L5,2021.2.3,iPhone,29.41176471,,,,,,,,,,0.731,1,,,,,,,,,,,,,,,0,0.430612245,-0.347959184,1,0,0,0.731,button_right_main,0.430612245,-0.347959184,1,0,0,,0,23,23,28,1,CASINO,LB,old,m,./images/CASINOLB.png,,,,,,,,,,,,,,,,,,,,
,,,,,,,,,,,,,,,,,199123,19,2022-01-28_15h48.21.363,lexical_decision_task_DD_L5,2021.2.3,iPhone,29.41176471,,,,,,,,,,0.729,1,,,,,,,,,,,,,,,0,-0.425510204,-0.32244898,1,0,0,0.729,button_left_main,-0.425510204,-0.32244898,1,0,0,,0,24,24,155,1,CANGY,LB,old,z,./images/CANGYLB.png,,,,,,,,,,,,,,,,,,,,
,,,,,,,,,,,,,,,,,199123,19,2022-01-28_15h48.21.363,lexical_decision_task_DD_L5,2021.2.3,iPhone,29.41176471,,,,,,,,,,0.896,1,,,,,,,,,,,,,,,0,0.404081633,-0.336734694,1,0,0,0.896,button_right_main,0.404081633,-0.336734694,1,0,0,,0,25,25,21,1,DANCER,HB,old,m,./images/DANCERHB.png,,,,,,,,,,,,,,,,,,,,
,,,,,,,,,,,,,,,,,199123,19,2022-01-28_15h48.21.363,lexical_decision_task_DD_L5,2021.2.3,iPhone,29.41176471,,,,,,,,,,0.997,1,,,,,,,,,,,,,,,0,0.440816327,-0.340816327,1,0,0,0.997,button_right_main,0.440816327,-0.340816327,1,0,0,,0,26,26,36,1,BOILER,HB,old,m,./images/BOILERHB.png,,,,,,,,,,,,,,,,,,,,
,,,,,,,,,,,,,,,,,199123,19,2022-01-28_15h48.21.363,lexical_decision_task_DD_L5,2021.2.3,iPhone,29.41176471,,,,,,,,,,1.464,1,,,,,,,,,,,,,,,0,-0.428571429,-0.346938776,1,0,0,1.464,button_left_main,-0.428571429,-0.346938776,1,0,0,,0,27,27,163,1,GAMBA,HB,old,z,./images/GAMBAHB.png,,,,,,,,,,,,,,,,,,,,
,,,,,,,,,,,,,,,,,199123,19,2022-01-28_15h48.21.363,lexical_decision_task_DD_L5,2021.2.3,iPhone,29.41176471,,,,,,,,,,0.797,1,,,,,,,,,,,,,,,0,0.423469388,-0.298979592,1,0,0,0.797,button_right_main,0.423469388,-0.298979592,1,0,0,,0,28,28,6,1,STAIN,HB,old,m,./images/STAINHB.png,,,,,,,,,,,,,,,,,,,,
,,,,,,,,,,,,,,,,,199123,19,2022-01-28_15h48.21.363,lexical_decision_task_DD_L5,2021.2.3,iPhone,29.41176471,,,,,,,,,,0.734,1,,,,,,,,,,,,,,,0,-0.431632653,-0.325510204,1,0,0,0.734,button_left_main,-0.431632653,-0.325510204,1,0,0,,0,29,29,116,1,BALGY,LB,old,z,./images/BALGYLB.png,,,,,,,,,,,,,,,,,,,,
,,,,,,,,,,,,,,,,,199123,19,2022-01-28_15h48.21.363,lexical_decision_task_DD_L5,2021.2.3,iPhone,29.41176471,,,,,,,,,,0.631,1,,,,,,,,,,,,,,,0,0.407142857,-0.346938776,1,0,0,0.631,button_right_main,0.407142857,-0.346938776,1,0,0,,0,30,30,70,1,BANANA,LB,old,m,./images/BANANALB.png,,,,,,,,,,,,,,,,,,,,
,,,,,,,,,,,,,,,,,199123,19,2022-01-28_15h48.21.363,lexical_decision_task_DD_L5,2021.2.3,iPhone,29.41176471,,,,,,,,,,0.707,1,,,,,,,,,,,,,,,0,0.442857143,-0.36122449,1,0,0,0.707,button_right_main,0.442857143,-0.36122449,1,0,0,,0,31,31,44,1,BASKET,C,old,m,./images/BASKET.png,,,,,,,,,,,,,,,,,,,,
,,,,,,,,,,,,,,,,,199123,19,2022-01-28_15h48.21.363,lexical_decision_task_DD_L5,2021.2.3,iPhone,29.41176471,,,,,,,,,,0.695,1,,,,,,,,,,,,,,,0,0.412244898,-0.358163265,1,0,0,0.695,button_right_main,0.412244898,-0.358163265,1,0,0,,0,32,32,8,1,CLIFF,C,old,m,./images/CLIFF.png,,,,,,,,,,,,,,,,,,,,
,,,,,,,,,,,,,,,,,199123,19,2022-01-28_15h48.21.363,lexical_decision_task_DD_L5,2021.2.3,iPhone,29.41176471,,,,,,,,,,0.864,1,,,,,,,,,,,,,,,0,0.414285714,-0.370408163,1,0,0,0.864,button_right_main,0.414285714,-0.370408163,1,0,0,,0,33,33,35,1,LLAMA,C,old,m,./images/LLAMA.png,,,,,,,,,,,,,,,,,,,,
,,,,,,,,,,,,,,,,,199123,19,2022-01-28_15h48.21.363,lexical_decision_task_DD_L5,2021.2.3,iPhone,29.41176471,,,,,,,,,,0.604,1,,,,,,,,,,,,,,,0,0.41122449,-0.33877551,1,0,0,0.604,button_right_main,0.41122449,-0.33877551,1,0,0,,0,34,34,38,1,ENGINE,C,old,m,./images/ENGINE.png,,,,,,,,,,,,,,,,,,,,
,,,,,,,,,,,,,,,,,199123,19,2022-01-28_15h48.21.363,lexical_decision_task_DD_L5,2021.2.3,iPhone,29.41176471,,,,,,,,,,0.863,1,,,,,,,,,,,,,,,0,-0.424489796,-0.325510204,1,0,0,0.863,button_left_main,-0.424489796,-0.325510204,1,0,0,,0,35,35,149,1,VEASE,LB,old,z,./images/VEASELB.png,,,,,,,,,,,,,,,,,,,,
,,,,,,,,,,,,,,,,,199123,19,2022-01-28_15h48.21.363,lexical_decision_task_DD_L5,2021.2.3,iPhone,29.41176471,,,,,,,,,,1.062,0,,,,,,,,,,,,,,,0,0.413265306,-0.365306122,1,0,0,1.062,button_right_main,0.413265306,-0.365306122,1,0,0,,0,36,36,160,1,VEETS,HB,old,z,./images/VEETSHB.png,,,,,,,,,,,,,,,,,,,,
,,,,,,,,,,,,,,,,,199123,19,2022-01-28_15h48.21.363,lexical_decision_task_DD_L5,2021.2.3,iPhone,29.41176471,,,,,,,,,,1.898,1,,,,,,,,,,,,,,,0,0.408163265,-0.367346939,1,0,0,1.898,button_right_main,0.408163265,-0.367346939,1,0,0,,0,37,37,30,1,SLOPE,HB,old,m,./images/SLOPEHB.png,,,,,,,,,,,,,,,,,,,,
,,,,,,,,,,,,,,,,,199123,19,2022-01-28_15h48.21.363,lexical_decision_task_DD_L5,2021.2.3,iPhone,29.41176471,,,,,,,,,,0.872,1,,,,,,,,,,,,,,,0,-0.434693878,-0.33877551,1,0,0,0.872,button_left_main,-0.434693878,-0.33877551,1,0,0,,0,38,38,135,1,JOODY,C,old,z,./images/JOODY.png,,,,,,,,,,,,,,,,,,,,
,,,,,,,,,,,,,,,,,199123,19,2022-01-28_15h48.21.363,lexical_decision_task_DD_L5,2021.2.3,iPhone,29.41176471,,,,,,,,,,2.071,1,,,,,,,,,,,,,,,0,-0.425510204,-0.35,1,0,0,2.071,button_left_main,-0.425510204,-0.35,1,0,0,,0,39,39,104,1,GITTY,LB,old,z,./images/GITTYLB.png,,,,,,,,,,,,,,,,,,,,
,,,,,,,,,,,,,,,,,199123,19,2022-01-28_15h48.21.363,lexical_decision_task_DD_L5,2021.2.3,iPhone,29.41176471,,,,,,,,,,0.597,1,,,,,,,,,,,,,,,0,0.412244898,-0.373469388,1,0,0,0.597,button_right_main,0.412244898,-0.373469388,1,0,0,,0,40,40,29,1,PISTOL,C,old,m,./images/PISTOL.png,,,,,,,,,,,,,,,,,,,,
,,,,,,,,,,,,,,,,,199123,19,2022-01-28_15h48.21.363,lexical_decision_task_DD_L5,2021.2.3,iPhone,29.41176471,,,,,,,,,,0.93,1,,,,,,,,,,,,,,,0,0.403061224,-0.354081633,1,0,0,0.93,button_right_main,0.109183673,-0.394897959,1,0,0,,0,41,41,59,1,BRUSH,C,old,m,./images/BRUSH.png,break_done_button,,,,,,,,,,,,,,,,,,,
,,,,,,,,,,,,,,,,,199123,19,2022-01-28_15h48.21.363,lexical_decision_task_DD_L5,2021.2.3,iPhone,29.41176471,,,,,,,,,,0.863,1,,,,,,,,,,,,,,,0,-0.376530612,-0.323469388,1,0,0,0.863,button_left_main,-0.376530612,-0.323469388,1,0,0,,0,42,42,165,1,TROWN,C,old,z,./images/TROWN.png,,,,,,,,,,,,,,,,,,,,
,,,,,,,,,,,,,,,,,199123,19,2022-01-28_15h48.21.363,lexical_decision_task_DD_L5,2021.2.3,iPhone,29.41176471,,,,,,,,,,0.898,1,,,,,,,,,,,,,,,0,-0.38877551,-0.318367347,1,0,0,0.898,button_left_main,-0.38877551,-0.318367347,1,0,0,,0,43,43,95,1,HANTY,LB,old,z,./images/HANTYLB.png,,,,,,,,,,,,,,,,,,,,
,,,,,,,,,,,,,,,,,199123,19,2022-01-28_15h48.21.363,lexical_decision_task_DD_L5,2021.2.3,iPhone,29.41176471,,,,,,,,,,0.83,1,,,,,,,,,,,,,,,0,0.387755102,-0.304081633,1,0,0,0.83,button_right_main,0.387755102,-0.304081633,1,0,0,,0,44,44,51,1,SAUCE,HB,old,m,./images/SAUCEHB.png,,,,,,,,,,,,,,,,,,,,
,,,,,,,,,,,,,,,,,199123,19,2022-01-28_15h48.21.363,lexical_decision_task_DD_L5,2021.2.3,iPhone,29.41176471,,,,,,,,,,1.03,1,,,,,,,,,,,,,,,0,-0.396938776,-0.321428571,1,0,0,1.03,button_left_main,-0.396938776,-0.321428571,1,0,0,,0,45,45,150,1,NOOLS,C,old,z,./images/NOOLS.png,,,,,,,,,,,,,,,,,,,,
,,,,,,,,,,,,,,,,,199123,19,2022-01-28_15h48.21.363,lexical_decision_task_DD_L5,2021.2.3,iPhone,29.41176471,,,,,,,,,,0.864,1,,,,,,,,,,,,,,,0,0.398979592,-0.341836735,1,0,0,0.864,button_right_main,0.398979592,-0.341836735,1,0,0,,0,46,46,39,1,CANDY,HB,old,m,./images/CANDYHB.png,,,,,,,,,,,,,,,,,,,,
,,,,,,,,,,,,,,,,,199123,19,2022-01-28_15h48.21.363,lexical_decision_task_DD_L5,2021.2.3,iPhone,29.41176471,,,,,,,,,,1.663,1,,,,,,,,,,,,,,,0,-0.409183673,-0.325510204,1,0,0,1.663,button_left_main,-0.409183673,-0.325510204,1,0,0,,0,47,47,109,1,BURGE,HB,old,z,./images/BURGEHB.png,,,,,,,,,,,,,,,,,,,,
,,,,,,,,,,,,,,,,,199123,19,2022-01-28_15h48.21.363,lexical_decision_task_DD_L5,2021.2.3,iPhone,29.41176471,,,,,,,,,,0.736,1,,,,,,,,,,,,,,,0,0.406122449,-0.325510204,1,0,0,0.736,button_right_main,0.406122449,-0.325510204,1,0,0,,0,48,48,73,1,GLOVE,LB,old,m,./images/GLOVELB.png,,,,,,,,,,,,,,,,,,,,
,,,,,,,,,,,,,,,,,199123,19,2022-01-28_15h48.21.363,lexical_decision_task_DD_L5,2021.2.3,iPhone,29.41176471,,,,,,,,,,0.795,1,,,,,,,,,,,,,,,0,-0.410204082,-0.31122449,1,0,0,0.795,button_left_main,-0.410204082,-0.31122449,1,0,0,,0,49,49,117,1,STEEG,C,old,z,./images/STEEG.png,,,,,,,,,,,,,,,,,,,,
,,,,,,,,,,,,,,,,,199123,19,2022-01-28_15h48.21.363,lexical_decision_task_DD_L5,2021.2.3,iPhone,29.41176471,,,,,,,,,,1.738,1,,,,,,,,,,,,,,,0,0.374489796,-0.290816327,1,0,0,1.738,button_right_main,0.374489796,-0.290816327,1,0,0,,0,50,50,66,1,STATUE,HB,old,m,./images/STATUEHB.png,,,,,,,,,,,,,,,,,,,,
,,,,,,,,,,,,,,,,,199123,19,2022-01-28_15h48.21.363,lexical_decision_task_DD_L5,2021.2.3,iPhone,29.41176471,,,,,,,,,,1.031,1,,,,,,,,,,,,,,,0,0.390816327,-0.32244898,1,0,0,1.031,button_right_main,0.390816327,-0.32244898,1,0,0,,0,51,51,75,1,HAMMER,HB,old,m,./images/HAMMERHB.png,,,,,,,,,,,,,,,,,,,,
,,,,,,,,,,,,,,,,,199123,19,2022-01-28_15h48.21.363,lexical_decision_task_DD_L5,2021.2.3,iPhone,29.41176471,,,,,,,,,,0.897,1,,,,,,,,,,,,,,,0,-0.405102041,-0.358163265,1,0,0,0.897,button_left_main,-0.405102041,-0.358163265,1,0,0,,0,52,52,161,1,BLAPS,LB,old,z,./images/BLAPSLB.png,,,,,,,,,,,,,,,,,,,,
,,,,,,,,,,,,,,,,,199123,19,2022-01-28_15h48.21.363,lexical_decision_task_DD_L5,2021.2.3,iPhone,29.41176471,,,,,,,,,,2.536,1,,,,,,,,,,,,,,,0,0.373469388,-0.316326531,1,0,0,2.536,button_right_main,0.373469388,-0.316326531,1,0,0,,0,53,53,17,1,PARADE,C,old,m,./images/PARADE.png,,,,,,,,,,,,,,,,,,,,
,,,,,,,,,,,,,,,,,199123,19,2022-01-28_15h48.21.363,lexical_decision_task_DD_L5,2021.2.3,iPhone,29.41176471,,,,,,,,,,3.064,1,,,,,,,,,,,,,,,0,0.398979592,-0.256122449,1,0,0,3.064,button_right_main,0.398979592,-0.256122449,1,0,0,,0,54,54,43,1,STOOL,LB,old,m,./images/STOOLLB.png,,,,,,,,,,,,,,,,,,,,
,,,,,,,,,,,,,,,,,199123,19,2022-01-28_15h48.21.363,lexical_decision_task_DD_L5,2021.2.3,iPhone,29.41176471,,,,,,,,,,0.831,1,,,,,,,,,,,,,,,0,0.404081633,-0.252040816,1,0,0,0.831,button_right_main,0.404081633,-0.252040816,1,0,0,,0,55,55,77,1,WHEEL,C,old,m,./images/WHEEL.png,,,,,,,,,,,,,,,,,,,,
,,,,,,,,,,,,,,,,,199123,19,2022-01-28_15h48.21.363,lexical_decision_task_DD_L5,2021.2.3,iPhone,29.41176471,,,,,,,,,,1.008,1,,,,,,,,,,,,,,,0,0.383673469,-0.283673469,1,0,0,1.008,button_right_main,0.383673469,-0.283673469,1,0,0,,0,56,56,72,1,FLASK,HB,old,m,./images/FLASKHB.png,,,,,,,,,,,,,,,,,,,,
,,,,,,,,,,,,,,,,,199123,19,2022-01-28_15h48.21.363,lexical_decision_task_DD_L5,2021.2.3,iPhone,29.41176471,,,,,,,,,,1.264,1,,,,,,,,,,,,,,,0,-0.352040816,-0.281632653,1,0,0,1.264,button_left_main,-0.352040816,-0.281632653,1,0,0,,0,57,57,141,1,PLEET,C,old,z,./images/PLEET.png,,,,,,,,,,,,,,,,,,,,
,,,,,,,,,,,,,,,,,199123,19,2022-01-28_15h48.21.363,lexical_decision_task_DD_L5,2021.2.3,iPhone,29.41176471,,,,,,,,,,1.096,1,,,,,,,,,,,,,,,0,-0.353061224,-0.23877551,1,0,0,1.096,button_left_main,-0.353061224,-0.23877551,1,0,0,,0,58,58,139,1,BLEAR,HB,old,z,./images/BLEARHB.png,,,,,,,,,,,,,,,,,,,,
,,,,,,,,,,,,,,,,,199123,19,2022-01-28_15h48.21.363,lexical_decision_task_DD_L5,2021.2.3,iPhone,29.41176471,,,,,,,,,,1.764,1,,,,,,,,,,,,,,,0,0.407142857,-0.3,1,0,0,1.764,button_right_main,0.407142857,-0.3,1,0,0,,0,59,59,7,1,WAGON,LB,old,m,./images/WAGONLB.png,,,,,,,,,,,,,,,,,,,,
,,,,,,,,,,,,,,,,,199123,19,2022-01-28_15h48.21.363,lexical_decision_task_DD_L5,2021.2.3,iPhone,29.41176471,,,,,,,,,,1.464,1,,,,,,,,,,,,,,,0,-0.373469388,-0.281632653,1,0,0,1.464,button_left_main,-0.373469388,-0.281632653,1,0,0,,0,60,60,127,1,NINDY,HB,old,z,./images/NINDYHB.png,,,,,,,,,,,,,,,,,,,,
,,,,,,,,,,,,,,,,,199123,19,2022-01-28_15h48.21.363,lexical_decision_task_DD_L5,2021.2.3,iPhone,29.41176471,,,,,,,,,,1.696,1,,,,,,,,,,,,,,,0,-0.384693878,-0.304081633,1,0,0,1.696,button_left_main,-0.384693878,-0.304081633,1,0,0,,0,61,61,157,1,INLER,HB,old,z,./images/INLERHB.png,,,,,,,,,,,,,,,,,,,,
,,,,,,,,,,,,,,,,,199123,19,2022-01-28_15h48.21.363,lexical_decision_task_DD_L5,2021.2.3,iPhone,29.41176471,,,,,,,,,,0.702,1,,,,,,,,,,,,,,,0,0.369387755,-0.294897959,1,0,0,0.702,button_right_main,0.369387755,-0.294897959,1,0,0,,0,62,62,53,1,POSTER,C,old,m,./images/POSTER.png,,,,,,,,,,,,,,,,,,,,
,,,,,,,,,,,,,,,,,199123,19,2022-01-28_15h48.21.363,lexical_decision_task_DD_L5,2021.2.3,iPhone,29.41176471,,,,,,,,,,0.964,1,,,,,,,,,,,,,,,0,0.392857143,-0.293877551,1,0,0,0.964,button_right_main,0.392857143,-0.293877551,1,0,0,,0,63,63,61,1,ARTIST,LB,old,m,./images/ARTISTLB.png,,,,,,,,,,,,,,,,,,,,
,,,,,,,,,,,,,,,,,199123,19,2022-01-28_15h48.21.363,lexical_decision_task_DD_L5,2021.2.3,iPhone,29.41176471,,,,,,,,,,1.634,1,,,,,,,,,,,,,,,0,-0.38877551,-0.318367347,1,0,0,1.634,button_left_main,-0.38877551,-0.318367347,1,0,0,,0,64,64,148,1,JOMS,HB,old,z,./images/JOMSHB.png,,,,,,,,,,,,,,,,,,,,
,,,,,,,,,,,,,,,,,199123,19,2022-01-28_15h48.21.363,lexical_decision_task_DD_L5,2021.2.3,iPhone,29.41176471,,,,,,,,,,1.876,1,,,,,,,,,,,,,,,0,-0.31122449,-0.291836735,1,0,0,1.876,button_left_main,-0.31122449,-0.291836735,1,0,0,,0,65,65,105,1,MOKER,C,old,z,./images/MOKER.png,,,,,,,,,,,,,,,,,,,,
,,,,,,,,,,,,,,,,,199123,19,2022-01-28_15h48.21.363,lexical_decision_task_DD_L5,2021.2.3,iPhone,29.41176471,,,,,,,,,,1.131,1,,,,,,,,,,,,,,,0,-0.384693878,-0.293877551,1,0,0,1.131,button_left_main,-0.384693878,-0.293877551,1,0,0,,0,66,66,137,1,JOOST,LB,old,z,./images/JOOSTLB.png,,,,,,,,,,,,,,,,,,,,
,,,,,,,,,,,,,,,,,199123,19,2022-01-28_15h48.21.363,lexical_decision_task_DD_L5,2021.2.3,iPhone,29.41176471,,,,,,,,,,1.031,1,,,,,,,,,,,,,,,0,0.37755102,-0.356122449,1,0,0,1.031,button_right_main,0.37755102,-0.356122449,1,0,0,,0,67,67,54,1,CHERRY,HB,old,m,./images/CHERRYHB.png,,,,,,,,,,,,,,,,,,,,
,,,,,,,,,,,,,,,,,199123,19,2022-01-28_15h48.21.363,lexical_decision_task_DD_L5,2021.2.3,iPhone,29.41176471,,,,,,,,,,0.83,1,,,,,,,,,,,,,,,0,-0.385714286,-0.298979592,1,0,0,0.83,button_left_main,-0.385714286,-0.298979592,1,0,0,,0,68,68,108,1,GRUET,C,old,z,./images/GRUET.png,,,,,,,,,,,,,,,,,,,,
,,,,,,,,,,,,,,,,,199123,19,2022-01-28_15h48.21.363,lexical_decision_task_DD_L5,2021.2.3,iPhone,29.41176471,,,,,,,,,,0.938,1,,,,,,,,,,,,,,,0,0.38877551,-0.353061224,1,0,0,0.938,button_right_main,0.38877551,-0.353061224,1,0,0,,0,69,69,79,1,RULER,LB,old,m,./images/RULERLB.png,,,,,,,,,,,,,,,,,,,,
,,,,,,,,,,,,,,,,,199123,19,2022-01-28_15h48.21.363,lexical_decision_task_DD_L5,2021.2.3,iPhone,29.41176471,,,,,,,,,,0.704,1,,,,,,,,,,,,,,,0,0.381632653,-0.348979592,1,0,0,0.704,button_right_main,0.381632653,-0.348979592,1,0,0,,0,70,70,13,1,BUNNY,LB,old,m,./images/BUNNYLB.png,,,,,,,,,,,,,,,,,,,,
,,,,,,,,,,,,,,,,,199123,19,2022-01-28_15h48.21.363,lexical_decision_task_DD_L5,2021.2.3,iPhone,29.41176471,,,,,,,,,,0.638,1,,,,,,,,,,,,,,,0,-0.398979592,-0.304081633,1,0,0,0.638,button_left_main,-0.398979592,-0.304081633,1,0,0,,0,71,71,123,1,SEDGE,C,old,z,./images/SEDGE.png,,,,,,,,,,,,,,,,,,,,
,,,,,,,,,,,,,,,,,199123,19,2022-01-28_15h48.21.363,lexical_decision_task_DD_L5,2021.2.3,iPhone,29.41176471,,,,,,,,,,1.204,1,,,,,,,,,,,,,,,0,-0.394897959,-0.318367347,1,0,0,1.204,button_left_main,-0.394897959,-0.318367347,1,0,0,,0,72,72,96,1,KEAMS,C,old,z,./images/KEAMS.png,,,,,,,,,,,,,,,,,,,,
,,,,,,,,,,,,,,,,,199123,19,2022-01-28_15h48.21.363,lexical_decision_task_DD_L5,2021.2.3,iPhone,29.41176471,,,,,,,,,,0.567,1,,,,,,,,,,,,,,,0,0.384693878,-0.35,1,0,0,0.567,button_right_main,0.384693878,-0.35,1,0,0,,0,73,73,65,1,SPINE,C,old,m,./images/SPINE.png,,,,,,,,,,,,,,,,,,,,
,,,,,,,,,,,,,,,,,199123,19,2022-01-28_15h48.21.363,lexical_decision_task_DD_L5,2021.2.3,iPhone,29.41176471,,,,,,,,,,0.634,1,,,,,,,,,,,,,,,0,0.396938776,-0.315306122,1,0,0,0.634,button_right_main,0.396938776,-0.315306122,1,0,0,,0,74,74,19,1,DONKEY,LB,old,m,./images/DONKEYLB.png,,,,,,,,,,,,,,,,,,,,
,,,,,,,,,,,,,,,,,199123,19,2022-01-28_15h48.21.363,lexical_decision_task_DD_L5,2021.2.3,iPhone,29.41176471,,,,,,,,,,0.764,1,,,,,,,,,,,,,,,0,-0.414285714,-0.297959184,1,0,0,0.764,button_left_main,-0.414285714,-0.297959184,1,0,0,,0,75,75,147,1,ZOLES,C,old,z,./images/ZOLES.png,,,,,,,,,,,,,,,,,,,,
,,,,,,,,,,,,,,,,,199123,19,2022-01-28_15h48.21.363,lexical_decision_task_DD_L5,2021.2.3,iPhone,29.41176471,,,,,,,,,,0.63,1,,,,,,,,,,,,,,,0,0.393877551,-0.340816327,1,0,0,0.63,button_right_main,0.393877551,-0.340816327,1,0,0,,0,76,76,71,1,BUBBLE,C,old,m,./images/BUBBLE.png,,,,,,,,,,,,,,,,,,,,
,,,,,,,,,,,,,,,,,199123,19,2022-01-28_15h48.21.363,lexical_decision_task_DD_L5,2021.2.3,iPhone,29.41176471,,,,,,,,,,0.771,0,,,,,,,,,,,,,,,0,-0.405102041,-0.310204082,1,0,0,0.771,button_left_main,-0.405102041,-0.310204082,1,0,0,,0,77,77,76,1,MIDGET,LB,old,m,./images/MIDGETLB.png,,,,,,,,,,,,,,,,,,,,
,,,,,,,,,,,,,,,,,199123,19,2022-01-28_15h48.21.363,lexical_decision_task_DD_L5,2021.2.3,iPhone,29.41176471,,,,,,,,,,0.93,1,,,,,,,,,,,,,,,0,-0.392857143,-0.284693878,1,0,0,0.93,button_left_main,-0.392857143,-0.284693878,1,0,0,,0,78,78,84,1,HAXES,C,old,z,./images/HAXES.png,,,,,,,,,,,,,,,,,,,,
,,,,,,,,,,,,,,,,,199123,19,2022-01-28_15h48.21.363,lexical_decision_task_DD_L5,2021.2.3,iPhone,29.41176471,,,,,,,,,,0.63,1,,,,,,,,,,,,,,,0,0.383673469,-0.340816327,1,0,0,0.63,button_right_main,0.383673469,-0.340816327,1,0,0,,0,79,79,64,1,BRIDE,LB,old,m,./images/BRIDELB.png,,,,,,,,,,,,,,,,,,,,
,,,,,,,,,,,,,,,,,199123,19,2022-01-28_15h48.21.363,lexical_decision_task_DD_L5,2021.2.3,iPhone,29.41176471,,,,,,,,,,0.901,1,,,,,,,,,,,,,,,0,0.389795918,-0.354081633,1,0,0,0.901,button_right_main,0.389795918,-0.354081633,1,0,0,,0,80,80,42,1,CHAIN,HB,old,m,./images/CHAINHB.png,,,,,,,,,,,,,,,,,,,,
,,,,,,,,,,,,,,,,,199123,19,2022-01-28_15h48.21.363,lexical_decision_task_DD_L5,2021.2.3,iPhone,29.41176471,,,,,,,,,,0.929,1,,,,,,,,,,,,,,,0,-0.42755102,-0.308163265,1,0,0,0.929,button_left_main,-0.42755102,-0.308163265,1,0,0,,0,81,81,158,1,EGECT,LB,old,z,./images/EGECTLB.png,,,,,,,,,,,,,,,,,,,,
,,,,,,,,,,,,,,,,,199123,19,2022-01-28_15h48.21.363,lexical_decision_task_DD_L5,2021.2.3,iPhone,29.41176471,,,,,,,,,,1.003,1,,,,,,,,,,,,,,,0,0.386734694,-0.33877551,1,0,0,1.003,button_right_main,0.386734694,-0.33877551,1,0,0,,0,82,82,58,1,CANOE,LB,old,m,./images/CANOELB.png,,,,,,,,,,,,,,,,,,,,
,,,,,,,,,,,,,,,,,199123,19,2022-01-28_15h48.21.363,lexical_decision_task_DD_L5,2021.2.3,iPhone,29.41176471,,,,,,,,,,0.63,1,,,,,,,,,,,,,,,0,0.370408163,-0.333673469,1,0,0,0.63,button_right_main,0.117346939,-0.401020408,1,0,0,,0,83,83,22,1,CLOWN,LB,old,m,./images/CLOWNLB.png,break_done_button,,,,,,,,,,,,,,,,,,,
,,,,,,,,,,,,,,,,,199123,19,2022-01-28_15h48.21.363,lexical_decision_task_DD_L5,2021.2.3,iPhone,29.41176471,,,,,,,,,,0.871,1,,,,,,,,,,,,,,,0,-0.397959184,-0.285714286,1,0,0,0.871,button_left_main,-0.397959184,-0.285714286,1,0,0,,0,84,84,131,1,NACES,LB,old,z,./images/NACESLB.png,,,,,,,,,,,,,,,,,,,,
,,,,,,,,,,,,,,,,,199123,19,2022-01-28_15h48.21.363,lexical_decision_task_DD_L5,2021.2.3,iPhone,29.41176471,,,,,,,,,,0.769,1,,,,,,,,,,,,,,,0,-0.389795918,-0.27755102,1,0,0,0.769,button_left_main,-0.389795918,-0.27755102,1,0,0,,0,85,85,156,1,HIXES,C,old,z,./images/HIXES.png,,,,,,,,,,,,,,,,,,,,
,,,,,,,,,,,,,,,,,199123,19,2022-01-28_15h48.21.363,lexical_decision_task_DD_L5,2021.2.3,iPhone,29.41176471,,,,,,,,,,0.701,1,,,,,,,,,,,,,,,0,-0.38877551,-0.298979592,1,0,0,0.701,button_left_main,-0.38877551,-0.298979592,1,0,0,,0,86,86,162,1,LEICH,C,old,z,./images/LEICH.png,,,,,,,,,,,,,,,,,,,,
,,,,,,,,,,,,,,,,,199123,19,2022-01-28_15h48.21.363,lexical_decision_task_DD_L5,2021.2.3,iPhone,29.41176471,,,,,,,,,,0.698,1,,,,,,,,,,,,,,,0,-0.404081633,-0.294897959,1,0,0,0.698,button_left_main,-0.404081633,-0.294897959,1,0,0,,0,87,87,129,1,PRANS,C,old,z,./images/PRANS.png,,,,,,,,,,,,,,,,,,,,
,,,,,,,,,,,,,,,,,199123,19,2022-01-28_15h48.21.363,lexical_decision_task_DD_L5,2021.2.3,iPhone,29.41176471,,,,,,,,,,0.637,1,,,,,,,,,,,,,,,0,0.358163265,-0.307142857,1,0,0,0.637,button_right_main,0.358163265,-0.307142857,1,0,0,,0,88,88,0,1,WALNUT,HB,old,m,./images/WALNUTHB.png,,,,,,,,,,,,,,,,,,,,
,,,,,,,,,,,,,,,,,199123,19,2022-01-28_15h48.21.363,lexical_decision_task_DD_L5,2021.2.3,iPhone,29.41176471,,,,,,,,,,0.964,1,,,,,,,,,,,,,,,0,0.403061224,-0.313265306,1,0,0,0.964,button_right_main,0.403061224,-0.313265306,1,0,0,,0,89,89,24,1,FLESH,HB,old,m,./images/FLESHHB.png,,,,,,,,,,,,,,,,,,,,
,,,,,,,,,,,,,,,,,199123,19,2022-01-28_15h48.21.363,lexical_decision_task_DD_L5,2021.2.3,iPhone,29.41176471,,,,,,,,,,1.03,1,,,,,,,,,,,,,,,0,-0.433673469,-0.307142857,1,0,0,1.03,button_left_main,-0.433673469,-0.307142857,1,0,0,,0,90,90,136,1,WERVE,HB,old,z,./images/WERVEHB.png,,,,,,,,,,,,,,,,,,,,
,,,,,,,,,,,,,,,,,199123,19,2022-01-28_15h48.21.363,lexical_decision_task_DD_L5,2021.2.3,iPhone,29.41176471,,,,,,,,,,1.768,1,,,,,,,,,,,,,,,0,-0.448979592,-0.32755102,1,0,0,1.768,button_left_main,-0.448979592,-0.32755102,1,0,0,,0,91,91,115,1,MAWNS,HB,old,z,./images/MAWNSHB.png,,,,,,,,,,,,,,,,,,,,
,,,,,,,,,,,,,,,,,199123,19,2022-01-28_15h48.21.363,lexical_decision_task_DD_L5,2021.2.3,iPhone,29.41176471,,,,,,,,,,0.804,1,,,,,,,,,,,,,,,0,-0.443877551,-0.314285714,1,0,0,0.804,button_left_main,-0.443877551,-0.314285714,1,0,0,,0,92,92,126,1,GUELS,C,old,z,./images/GUELS.png,,,,,,,,,,,,,,,,,,,,
,,,,,,,,,,,,,,,,,199123,19,2022-01-28_15h48.21.363,lexical_decision_task_DD_L5,2021.2.3,iPhone,29.41176471,,,,,,,,,,0.797,1,,,,,,,,,,,,,,,0,0.401020408,-0.332653061,1,0,0,0.797,button_right_main,0.401020408,-0.332653061,1,0,0,,0,93,93,41,1,STREAM,C,old,m,./images/STREAM.png,,,,,,,,,,,,,,,,,,,,
,,,,,,,,,,,,,,,,,199123,19,2022-01-28_15h48.21.363,lexical_decision_task_DD_L5,2021.2.3,iPhone,29.41176471,,,,,,,,,,0.835,1,,,,,,,,,,,,,,,0,0.417346939,-0.315306122,1,0,0,0.835,button_right_main,0.417346939,-0.315306122,1,0,0,,0,94,94,34,1,RAZOR,LB,old,m,./images/RAZORLB.png,,,,,,,,,,,,,,,,,,,,
,,,,,,,,,,,,,,,,,199123,19,2022-01-28_15h48.21.363,lexical_decision_task_DD_L5,2021.2.3,iPhone,29.41176471,,,,,,,,,,0.801,1,,,,,,,,,,,,,,,0,-0.435714286,-0.32244898,1,0,0,0.801,button_left_main,-0.435714286,-0.32244898,1,0,0,,0,95,95,167,1,ZONET,LB,old,z,./images/ZONETLB.png,,,,,,,,,,,,,,,,,,,,
,,,,,,,,,,,,,,,,,199123,19,2022-01-28_15h48.21.363,lexical_decision_task_DD_L5,2021.2.3,iPhone,29.41176471,,,,,,,,,,0.77,1,,,,,,,,,,,,,,,0,-0.434693878,-0.303061224,1,0,0,0.77,button_left_main,-0.434693878,-0.303061224,1,0,0,,0,96,96,114,1,RIKES,C,old,z,./images/RIKES.png,,,,,,,,,,,,,,,,,,,,
,,,,,,,,,,,,,,,,,199123,19,2022-01-28_15h48.21.363,lexical_decision_task_DD_L5,2021.2.3,iPhone,29.41176471,,,,,,,,,,0.774,1,,,,,,,,,,,,,,,0,-0.455102041,-0.351020408,1,0,0,0.774,button_left_main,-0.455102041,-0.351020408,1,0,0,,0,97,97,152,1,FRAIN,LB,old,z,./images/FRAINLB.png,,,,,,,,,,,,,,,,,,,,
,,,,,,,,,,,,,,,,,199123,19,2022-01-28_15h48.21.363,lexical_decision_task_DD_L5,2021.2.3,iPhone,29.41176471,,,,,,,,,,1.07,1,,,,,,,,,,,,,,,0,-0.439795918,-0.317346939,1,0,0,1.07,button_left_main,-0.439795918,-0.317346939,1,0,0,,0,98,98,130,1,CRILL,HB,old,z,./images/CRILLHB.png,,,,,,,,,,,,,,,,,,,,
,,,,,,,,,,,,,,,,,199123,19,2022-01-28_15h48.21.363,lexical_decision_task_DD_L5,2021.2.3,iPhone,29.41176471,,,,,,,,,,1.196,1,,,,,,,,,,,,,,,0,-0.435714286,-0.317346939,1,0,0,1.196,button_left_main,-0.435714286,-0.317346939,1,0,0,,0,99,99,98,1,BAMPS,LB,old,z,./images/BAMPSLB.png,,,,,,,,,,,,,,,,,,,,
,,,,,,,,,,,,,,,,,199123,19,2022-01-28_15h48.21.363,lexical_decision_task_DD_L5,2021.2.3,iPhone,29.41176471,,,,,,,,,,0.633,1,,,,,,,,,,,,,,,0,0.37755102,-0.31122449,1,0,0,0.633,button_right_main,0.37755102,-0.31122449,1,0,0,,0,100,100,74,1,JUMPER,C,old,m,./images/JUMPER.png,,,,,,,,,,,,,,,,,,,,
,,,,,,,,,,,,,,,,,199123,19,2022-01-28_15h48.21.363,lexical_decision_task_DD_L5,2021.2.3,iPhone,29.41176471,,,,,,,,,,0.8,1,,,,,,,,,,,,,,,0,0.367346939,-0.320408163,1,0,0,0.8,button_right_main,0.367346939,-0.320408163,1,0,0,,0,101,101,60,1,CURRY,HB,old,m,./images/CURRYHB.png,,,,,,,,,,,,,,,,,,,,
,,,,,,,,,,,,,,,,,199123,19,2022-01-28_15h48.21.363,lexical_decision_task_DD_L5,2021.2.3,iPhone,29.41176471,,,,,,,,,,0.797,1,,,,,,,,,,,,,,,0,-0.453061224,-0.331632653,1,0,0,0.797,button_left_main,-0.453061224,-0.331632653,1,0,0,,0,102,102,113,1,LINEW,LB,old,z,./images/LINEWLB.png,,,,,,,,,,,,,,,,,,,,
,,,,,,,,,,,,,,,,,199123,19,2022-01-28_15h48.21.363,lexical_decision_task_DD_L5,2021.2.3,iPhone,29.41176471,,,,,,,,,,0.864,1,,,,,,,,,,,,,,,0,0.385714286,-0.32244898,1,0,0,0.864,button_right_main,0.385714286,-0.32244898,1,0,0,,0,103,103,45,1,MONKEY,HB,old,m,./images/MONKEYHB.png,,,,,,,,,,,,,,,,,,,,
,,,,,,,,,,,,,,,,,199123,19,2022-01-28_15h48.21.363,lexical_decision_task_DD_L5,2021.2.3,iPhone,29.41176471,,,,,,,,,,0.604,1,,,,,,,,,,,,,,,0,0.393877551,-0.341836735,1,0,0,0.604,button_right_main,0.393877551,-0.341836735,1,0,0,,0,104,104,15,1,COLLAR,HB,old,m,./images/COLLARHB.png,,,,,,,,,,,,,,,,,,,,
,,,,,,,,,,,,,,,,,199123,19,2022-01-28_15h48.21.363,lexical_decision_task_DD_L5,2021.2.3,iPhone,29.41176471,,,,,,,,,,0.73,1,,,,,,,,,,,,,,,0,-0.446938776,-0.325510204,1,0,0,0.73,button_left_main,-0.446938776,-0.325510204,1,0,0,,0,105,105,101,1,GLEET,LB,old,z,./images/GLEETLB.png,,,,,,,,,,,,,,,,,,,,
,,,,,,,,,,,,,,,,,199123,19,2022-01-28_15h48.21.363,lexical_decision_task_DD_L5,2021.2.3,iPhone,29.41176471,,,,,,,,,,0.661,1,,,,,,,,,,,,,,,0,0.390816327,-0.345918367,1,0,0,0.661,button_right_main,0.390816327,-0.345918367,1,0,0,,0,106,106,14,1,FENCE,C,old,m,./images/FENCE.png,,,,,,,,,,,,,,,,,,,,
,,,,,,,,,,,,,,,,,199123,19,2022-01-28_15h48.21.363,lexical_decision_task_DD_L5,2021.2.3,iPhone,29.41176471,,,,,,,,,,1.597,1,,,,,,,,,,,,,,,0,0.4,-0.334693878,1,0,0,1.597,button_right_main,0.4,-0.334693878,1,0,0,,0,107,107,48,1,SHIELD,HB,old,m,./images/SHIELDHB.png,,,,,,,,,,,,,,,,,,,,
,,,,,,,,,,,,,,,,,199123,19,2022-01-28_15h48.21.363,lexical_decision_task_DD_L5,2021.2.3,iPhone,29.41176471,,,,,,,,,,0.997,1,,,,,,,,,,,,,,,0,-0.435714286,-0.305102041,1,0,0,0.997,button_left_main,-0.435714286,-0.305102041,1,0,0,,0,108,108,120,1,RINED,C,old,z,./images/RINED.png,,,,,,,,,,,,,,,,,,,,
,,,,,,,,,,,,,,,,,199123,19,2022-01-28_15h48.21.363,lexical_decision_task_DD_L5,2021.2.3,iPhone,29.41176471,,,,,,,,,,1.664,1,,,,,,,,,,,,,,,0,-0.451020408,-0.335714286,1,0,0,1.664,button_left_main,-0.451020408,-0.335714286,1,0,0,,0,109,109,91,1,SHENS,HB,old,z,./images/SHENSHB.png,,,,,,,,,,,,,,,,,,,,
,,,,,,,,,,,,,,,,,199123,19,2022-01-28_15h48.21.363,lexical_decision_task_DD_L5,2021.2.3,iPhone,29.41176471,,,,,,,,,,0.53,0,,,,,,,,,,,,,,,0,0.398979592,-0.33877551,1,0,0,0.53,button_right_main,0.398979592,-0.33877551,1,0,0,,0,110,110,128,1,GRIFT,LB,old,z,./images/GRIFTLB.png,,,,,,,,,,,,,,,,,,,,
,,,,,,,,,,,,,,,,,199123,19,2022-01-28_15h48.21.363,lexical_decision_task_DD_L5,2021.2.3,iPhone,29.41176471,,,,,,,,,,0.904,1,,,,,,,,,,,,,,,0,-0.451020408,-0.317346939,1,0,0,0.904,button_left_main,-0.451020408,-0.317346939,1,0,0,,0,111,111,112,1,MYING,HB,old,z,./images/MYINGHB.png,,,,,,,,,,,,,,,,,,,,
,,,,,,,,,,,,,,,,,199123,19,2022-01-28_15h48.21.363,lexical_decision_task_DD_L5,2021.2.3,iPhone,29.41176471,,,,,,,,,,1.535,1,,,,,,,,,,,,,,,0,-0.453061224,-0.323469388,1,0,0,1.535,button_left_main,-0.453061224,-0.323469388,1,0,0,,0,112,112,133,1,POWDY,HB,old,z,./images/POWDYHB.png,,,,,,,,,,,,,,,,,,,,
,,,,,,,,,,,,,,,,,199123,19,2022-01-28_15h48.21.363,lexical_decision_task_DD_L5,2021.2.3,iPhone,29.41176471,,,,,,,,,,0.743,1,,,,,,,,,,,,,,,0,0.392857143,-0.333673469,1,0,0,0.743,button_right_main,0.392857143,-0.333673469,1,0,0,,0,113,113,57,1,FERRY,HB,old,m,./images/FERRYHB.png,,,,,,,,,,,,,,,,,,,,
,,,,,,,,,,,,,,,,,199123,19,2022-01-28_15h48.21.363,lexical_decision_task_DD_L5,2021.2.3,iPhone,29.41176471,,,,,,,,,,0.664,1,,,,,,,,,,,,,,,0,0.402040816,-0.354081633,1,0,0,0.664,button_right_main,0.402040816,-0.354081633,1,0,0,,0,114,114,56,1,HEATER,C,old,m,./images/HEATER.png,,,,,,,,,,,,,,,,,,,,
,,,,,,,,,,,,,,,,,199123,19,2022-01-28_15h48.21.363,lexical_decision_task_DD_L5,2021.2.3,iPhone,29.41176471,,,,,,,,,,0.901,1,,,,,,,,,,,,,,,0,0.4,-0.329591837,1,0,0,0.901,button_right_main,0.4,-0.329591837,1,0,0,,0,115,115,67,1,POKER,LB,old,m,./images/POKERLB.png,,,,,,,,,,,,,,,,,,,,
,,,,,,,,,,,,,,,,,199123,19,2022-01-28_15h48.21.363,lexical_decision_task_DD_L5,2021.2.3,iPhone,29.41176471,,,,,,,,,,0.769,1,,,,,,,,,,,,,,,0,-0.453061224,-0.323469388,1,0,0,0.769,button_left_main,-0.453061224,-0.323469388,1,0,0,,0,116,116,90,1,NEAST,C,old,z,./images/NEAST.png,,,,,,,,,,,,,,,,,,,,
,,,,,,,,,,,,,,,,,199123,19,2022-01-28_15h48.21.363,lexical_decision_task_DD_L5,2021.2.3,iPhone,29.41176471,,,,,,,,,,1.13,1,,,,,,,,,,,,,,,0,-0.431632653,-0.3,1,0,0,1.13,button_left_main,-0.431632653,-0.3,1,0,0,,0,117,117,94,1,BLANS,HB,old,z,./images/BLANSHB.png,,,,,,,,,,,,,,,,,,,,
,,,,,,,,,,,,,,,,,199123,19,2022-01-28_15h48.21.363,lexical_decision_task_DD_L5,2021.2.3,iPhone,29.41176471,,,,,,,,,,1.203,1,,,,,,,,,,,,,,,0,-0.456122449,-0.306122449,1,0,0,1.203,button_left_main,-0.456122449,-0.306122449,1,0,0,,0,118,118,92,1,PAIMS,LB,old,z,./images/PAIMSLB.png,,,,,,,,,,,,,,,,,,,,
,,,,,,,,,,,,,,,,,199123,19,2022-01-28_15h48.21.363,lexical_decision_task_DD_L5,2021.2.3,iPhone,29.41176471,,,,,,,,,,0.834,1,,,,,,,,,,,,,,,0,0.392857143,-0.343877551,1,0,0,0.834,button_right_main,0.392857143,-0.343877551,1,0,0,,0,119,119,33,1,SAUNA,HB,old,m,./images/SAUNAHB.png,,,,,,,,,,,,,,,,,,,,
,,,,,,,,,,,,,,,,,199123,19,2022-01-28_15h48.21.363,lexical_decision_task_DD_L5,2021.2.3,iPhone,29.41176471,,,,,,,,,,0.743,0,,,,,,,,,,,,,,,0,0.405102041,-0.352040816,1,0,0,0.743,button_right_main,0.405102041,-0.352040816,1,0,0,,0,120,120,142,1,PLASK,HB,old,z,./images/PLASKHB.png,,,,,,,,,,,,,,,,,,,,
,,,,,,,,,,,,,,,,,199123,19,2022-01-28_15h48.21.363,lexical_decision_task_DD_L5,2021.2.3,iPhone,29.41176471,,,,,,,,,,2.533,1,,,,,,,,,,,,,,,0,-0.439795918,-0.303061224,1,0,0,2.533,button_left_main,-0.439795918,-0.303061224,1,0,0,,0,121,121,145,1,LAMEL,HB,old,z,./images/LAMELHB.png,,,,,,,,,,,,,,,,,,,,
,,,,,,,,,,,,,,,,,199123,19,2022-01-28_15h48.21.363,lexical_decision_task_DD_L5,2021.2.3,iPhone,29.41176471,,,,,,,,,,1.297,1,,,,,,,,,,,,,,,0,-0.45,-0.301020408,1,0,0,1.297,button_left_main,-0.45,-0.301020408,1,0,0,,0,122,122,153,1,CLUPS,C,old,z,./images/CLUPS.png,,,,,,,,,,,,,,,,,,,,
,,,,,,,,,,,,,,,,,199123,19,2022-01-28_15h48.21.363,lexical_decision_task_DD_L5,2021.2.3,iPhone,29.41176471,,,,,,,,,,0.597,1,,,,,,,,,,,,,,,0,0.373469388,-0.348979592,1,0,0,0.597,button_right_main,0.373469388,-0.348979592,1,0,0,,0,123,123,52,1,DESERT,LB,old,m,./images/DESERTLB.png,,,,,,,,,,,,,,,,,,,,
,,,,,,,,,,,,,,,,,199123,19,2022-01-28_15h48.21.363,lexical_decision_task_DD_L5,2021.2.3,iPhone,29.41176471,,,,,,,,,,0.602,1,,,,,,,,,,,,,,,0,0.374489796,-0.343877551,1,0,0,0.602,button_right_main,0.374489796,-0.343877551,1,0,0,,0,124,124,37,1,TIGER,LB,old,m,./images/TIGERLB.png,,,,,,,,,,,,,,,,,,,,
,,,,,,,,,,,,,,,,,199123,19,2022-01-28_15h48.21.363,lexical_decision_task_DD_L5,2021.2.3,iPhone,29.41176471,,,,,,,,,,1.008,1,,,,,,,,,,,,,,,0,0.383673469,-0.362244898,1,0,0,1.008,button_right_main,0.047959184,-0.396938776,1,0,0,,0,125,125,63,1,BAKER,HB,old,m,./images/BAKERHB.png,break_done_button,,,,,,,,,,,,,,,,,,,
,,,,,,,,,,,,,,,,,199123,19,2022-01-28_15h48.21.363,lexical_decision_task_DD_L5,2021.2.3,iPhone,29.41176471,,,,,,,,,,0.764,1,,,,,,,,,,,,,,,0,0.364285714,-0.314285714,1,0,0,0.764,button_right_main,0.364285714,-0.314285714,1,0,0,,0,126,126,4,1,BOXER,LB,old,m,./images/BOXERLB.png,,,,,,,,,,,,,,,,,,,,
,,,,,,,,,,,,,,,,,199123,19,2022-01-28_15h48.21.363,lexical_decision_task_DD_L5,2021.2.3,iPhone,29.41176471,,,,,,,,,,0.431,1,,,,,,,,,,,,,,,0,0.358163265,-0.282653061,1,0,0,0.431,button_right_main,0.358163265,-0.282653061,1,0,0,,0,127,127,49,1,BISHOP,LB,old,m,./images/BISHOPLB.png,,,,,,,,,,,,,,,,,,,,
,,,,,,,,,,,,,,,,,199123,19,2022-01-28_15h48.21.363,lexical_decision_task_DD_L5,2021.2.3,iPhone,29.41176471,,,,,,,,,,0.563,1,,,,,,,,,,,,,,,0,0.362244898,-0.320408163,1,0,0,0.563,button_right_main,0.362244898,-0.320408163,1,0,0,,0,128,128,62,1,MAMMAL,C,old,m,./images/MAMMAL.png,,,,,,,,,,,,,,,,,,,,
,,,,,,,,,,,,,,,,,199123,19,2022-01-28_15h48.21.363,lexical_decision_task_DD_L5,2021.2.3,iPhone,29.41176471,,,,,,,,,,0.765,1,,,,,,,,,,,,,,,0,-0.412244898,-0.307142857,1,0,0,0.765,button_left_main,-0.412244898,-0.307142857,1,0,0,,0,129,129,164,1,SGREW,LB,old,z,./images/SGREWLB.png,,,,,,,,,,,,,,,,,,,,
,,,,,,,,,,,,,,,,,199123,19,2022-01-28_15h48.21.363,lexical_decision_task_DD_L5,2021.2.3,iPhone,29.41176471,,,,,,,,,,0.898,1,,,,,,,,,,,,,,,0,0.391836735,-0.348979592,1,0,0,0.898,button_right_main,0.391836735,-0.348979592,1,0,0,,0,130,130,81,1,DRILL,HB,old,m,./images/DRILLHB.png,,,,,,,,,,,,,,,,,,,,
,,,,,,,,,,,,,,,,,199123,19,2022-01-28_15h48.21.363,lexical_decision_task_DD_L5,2021.2.3,iPhone,29.41176471,,,,,,,,,,0.671,1,,,,,,,,,,,,,,,0,0.419387755,-0.307142857,1,0,0,0.671,button_right_main,0.419387755,-0.307142857,1,0,0,,0,131,131,82,1,PEBBLE,LB,old,m,./images/PEBBLELB.png,,,,,,,,,,,,,,,,,,,,
,,,,,,,,,,,,,,,,,199123,19,2022-01-28_15h48.21.363,lexical_decision_task_DD_L5,2021.2.3,iPhone,29.41176471,,,,,,,,,,1.431,1,,,,,,,,,,,,,,,0,-0.416326531,-0.287755102,1,0,0,1.431,button_left_main,-0.416326531,-0.287755102,1,0,0,,0,132,132,121,1,CEERS,HB,old,z,./images/CEERSHB.png,,,,,,,,,,,,,,,,,,,,
,,,,,,,,,,,,,,,,,199123,19,2022-01-28_15h48.21.363,lexical_decision_task_DD_L5,2021.2.3,iPhone,29.41176471,,,,,,,,,,0.497,0,,,,,,,,,,,,,,,0,0.420408163,-0.330612245,1,0,0,0.497,button_right_main,0.420408163,-0.330612245,1,0,0,,0,133,133,93,1,SMONE,C,old,z,./images/SMONE.png,,,,,,,,,,,,,,,,,,,,
,,,,,,,,,,,,,,,,,199123,19,2022-01-28_15h48.21.363,lexical_decision_task_DD_L5,2021.2.3,iPhone,29.41176471,,,,,,,,,,0.804,1,,,,,,,,,,,,,,,0,0.421428571,-0.331632653,1,0,0,0.804,button_right_main,0.421428571,-0.331632653,1,0,0,,0,134,134,31,1,STEAK,LB,old,m,./images/STEAKLB.png,,,,,,,,,,,,,,,,,,,,
,,,,,,,,,,,,,,,,,199123,19,2022-01-28_15h48.21.363,lexical_decision_task_DD_L5,2021.2.3,iPhone,29.41176471,,,,,,,,,,1.432,1,,,,,,,,,,,,,,,0,-0.414285714,-0.295918367,1,0,0,1.432,button_left_main,-0.414285714,-0.295918367,1,0,0,,0,135,135,122,1,BLOOT,LB,old,z,./images/BLOOTLB.png,,,,,,,,,,,,,,,,,,,,
,,,,,,,,,,,,,,,,,199123,19,2022-01-28_15h48.21.363,lexical_decision_task_DD_L5,2021.2.3,iPhone,29.41176471,,,,,,,,,,1.265,1,,,,,,,,,,,,,,,0,-0.389795918,-0.256122449,1,0,0,1.265,button_left_main,-0.389795918,-0.256122449,1,0,0,,0,136,136,144,1,NAIRY,C,old,z,./images/NAIRY.png,,,,,,,,,,,,,,,,,,,,
,,,,,,,,,,,,,,,,,199123,19,2022-01-28_15h48.21.363,lexical_decision_task_DD_L5,2021.2.3,iPhone,29.41176471,,,,,,,,,,1.098,1,,,,,,,,,,,,,,,0,-0.396938776,-0.294897959,1,0,0,1.098,button_left_main,-0.396938776,-0.294897959,1,0,0,,0,137,137,119,1,PAFER,LB,old,z,./images/PAFERLB.png,,,,,,,,,,,,,,,,,,,,
,,,,,,,,,,,,,,,,,199123,19,2022-01-28_15h48.21.363,lexical_decision_task_DD_L5,2021.2.3,iPhone,29.41176471,,,,,,,,,,0.635,1,,,,,,,,,,,,,,,0,0.381632653,-0.287755102,1,0,0,0.635,button_right_main,0.381632653,-0.287755102,1,0,0,,0,138,138,50,1,PILOT,C,old,m,./images/PILOT.png,,,,,,,,,,,,,,,,,,,,
,,,,,,,,,,,,,,,,,199123,19,2022-01-28_15h48.21.363,lexical_decision_task_DD_L5,2021.2.3,iPhone,29.41176471,,,,,,,,,,0.741,1,,,,,,,,,,,,,,,0,0.401020408,-0.314285714,1,0,0,0.741,button_right_main,0.401020408,-0.314285714,1,0,0,,0,139,139,20,1,GRANNY,C,old,m,./images/GRANNY.png,,,,,,,,,,,,,,,,,,,,
,,,,,,,,,,,,,,,,,199123,19,2022-01-28_15h48.21.363,lexical_decision_task_DD_L5,2021.2.3,iPhone,29.41176471,,,,,,,,,,0.763,1,,,,,,,,,,,,,,,0,0.413265306,-0.314285714,1,0,0,0.763,button_right_main,0.413265306,-0.314285714,1,0,0,,0,140,140,25,1,CHALK,LB,old,m,./images/CHALKLB.png,,,,,,,,,,,,,,,,,,,,
,,,,,,,,,,,,,,,,,199123,19,2022-01-28_15h48.21.363,lexical_decision_task_DD_L5,2021.2.3,iPhone,29.41176471,,,,,,,,,,0.797,0,,,,,,,,,,,,,,,0,-0.387755102,-0.283673469,1,0,0,0.797,button_left_main,-0.387755102,-0.283673469,1,0,0,,0,141,141,12,1,BLOKE,HB,old,m,./images/BLOKEHB.png,,,,,,,,,,,,,,,,,,,,
,,,,,,,,,,,,,,,,,199123,19,2022-01-28_15h48.21.363,lexical_decision_task_DD_L5,2021.2.3,iPhone,29.41176471,,,,,,,,,,0.796,1,,,,,,,,,,,,,,,0,-0.393877551,-0.304081633,1,0,0,0.796,button_left_main,-0.393877551,-0.304081633,1,0,0,,0,142,142,159,1,CUDDY,C,old,z,./images/CUDDY.png,,,,,,,,,,,,,,,,,,,,
,,,,,,,,,,,,,,,,,199123,19,2022-01-28_15h48.21.363,lexical_decision_task_DD_L5,2021.2.3,iPhone,29.41176471,,,,,,,,,,0.596,1,,,,,,,,,,,,,,,0,0.401020408,-0.336734694,1,0,0,0.596,button_right_main,0.401020408,-0.336734694,1,0,0,,0,143,143,2,1,STOVE,C,old,m,./images/STOVE.png,,,,,,,,,,,,,,,,,,,,
,,,,,,,,,,,,,,,,,199123,19,2022-01-28_15h48.21.363,lexical_decision_task_DD_L5,2021.2.3,iPhone,29.41176471,,,,,,,,,,0.864,1,,,,,,,,,,,,,,,0,-0.401020408,-0.307142857,1,0,0,0.864,button_left_main,-0.401020408,-0.307142857,1,0,0,,0,144,144,100,1,DRIBS,HB,old,z,./images/DRIBSHB.png,,,,,,,,,,,,,,,,,,,,
,,,,,,,,,,,,,,,,,199123,19,2022-01-28_15h48.21.363,lexical_decision_task_DD_L5,2021.2.3,iPhone,29.41176471,,,,,,,,,,0.755,1,,,,,,,,,,,,,,,0,-0.404081633,-0.318367347,1,0,0,0.755,button_left_main,-0.404081633,-0.318367347,1,0,0,,0,145,145,143,1,MONGS,LB,old,z,./images/MONGSLB.png,,,,,,,,,,,,,,,,,,,,
,,,,,,,,,,,,,,,,,199123,19,2022-01-28_15h48.21.363,lexical_decision_task_DD_L5,2021.2.3,iPhone,29.41176471,,,,,,,,,,0.57,1,,,,,,,,,,,,,,,0,0.396938776,-0.35,1,0,0,0.57,button_right_main,0.396938776,-0.35,1,0,0,,0,146,146,46,1,MUMMY,LB,old,m,./images/MUMMYLB.png,,,,,,,,,,,,,,,,,,,,
,,,,,,,,,,,,,,,,,199123,19,2022-01-28_15h48.21.363,lexical_decision_task_DD_L5,2021.2.3,iPhone,29.41176471,,,,,,,,,,1.231,1,,,,,,,,,,,,,,,0,-0.404081633,-0.317346939,1,0,0,1.231,button_left_main,-0.404081633,-0.317346939,1,0,0,,0,147,147,118,1,BAVEL,HB,old,z,./images/BAVELHB.png,,,,,,,,,,,,,,,,,,,,
,,,,,,,,,,,,,,,,,199123,19,2022-01-28_15h48.21.363,lexical_decision_task_DD_L5,2021.2.3,iPhone,29.41176471,,,,,,,,,,0.837,1,,,,,,,,,,,,,,,0,-0.397959184,-0.307142857,1,0,0,0.837,button_left_main,-0.397959184,-0.307142857,1,0,0,,0,148,148,111,1,HOSSE,C,old,z,./images/HOSSE.png,,,,,,,,,,,,,,,,,,,,
,,,,,,,,,,,,,,,,,199123,19,2022-01-28_15h48.21.363,lexical_decision_task_DD_L5,2021.2.3,iPhone,29.41176471,,,,,,,,,,0.803,1,,,,,,,,,,,,,,,0,-0.393877551,-0.3,1,0,0,0.803,button_left_main,-0.393877551,-0.3,1,0,0,,0,149,149,146,1,MOOST,LB,old,z,./images/MOOSTLB.png,,,,,,,,,,,,,,,,,,,,
,,,,,,,,,,,,,,,,,199123,19,2022-01-28_15h48.21.363,lexical_decision_task_DD_L5,2021.2.3,iPhone,29.41176471,,,,,,,,,,4.903,1,,,,,,,,,,,,,,,0,-0.389795918,-0.294897959,1,0,0,4.903,button_left_main,-0.389795918,-0.294897959,1,0,0,,0,150,150,110,1,CRUNK,LB,old,z,./images/CRUNKLB.png,,,,,,,,,,,,,,,,,,,,
,,,,,,,,,,,,,,,,,199123,19,2022-01-28_15h48.21.363,lexical_decision_task_DD_L5,2021.2.3,iPhone,29.41176471,,,,,,,,,,2,0,,,,,,,,,,,,,,,0,-0.401020408,-0.302040816,1,0,0,2,button_left_main,-0.401020408,-0.302040816,1,0,0,,0,151,151,3,1,CRATER,HB,old,m,./images/CRATERHB.png,,,,,,,,,,,,,,,,,,,,
,,,,,,,,,,,,,,,,,199123,19,2022-01-28_15h48.21.363,lexical_decision_task_DD_L5,2021.2.3,iPhone,29.41176471,,,,,,,,,,0.569,1,,,,,,,,,,,,,,,0,0.387755102,-0.354081633,1,0,0,0.569,button_right_main,0.387755102,-0.354081633,1,0,0,,0,152,152,10,1,GARDEN,LB,old,m,./images/GARDENLB.png,,,,,,,,,,,,,,,,,,,,
,,,,,,,,,,,,,,,,,199123,19,2022-01-28_15h48.21.363,lexical_decision_task_DD_L5,2021.2.3,iPhone,29.41176471,,,,,,,,,,1.33,1,,,,,,,,,,,,,,,0,-0.398979592,-0.301020408,1,0,0,1.33,button_left_main,-0.398979592,-0.301020408,1,0,0,,0,153,153,125,1,MOOKY,LB,old,z,./images/MOOKYLB.png,,,,,,,,,,,,,,,,,,,,
,,,,,,,,,,,,,,,,,199123,19,2022-01-28_15h48.21.363,lexical_decision_task_DD_L5,2021.2.3,iPhone,29.41176471,,,,,,,,,,1.562,1,,,,,,,,,,,,,,,0,-0.4,-0.285714286,1,0,0,1.562,button_left_main,-0.4,-0.285714286,1,0,0,,0,154,154,151,1,TINKY,HB,old,z,./images/TINKYHB.png,,,,,,,,,,,,,,,,,,,,
,,,,,,,,,,,,,,,,,199123,19,2022-01-28_15h48.21.363,lexical_decision_task_DD_L5,2021.2.3,iPhone,29.41176471,,,,,,,,,,0.801,1,,,,,,,,,,,,,,,0,-0.401020408,-0.312244898,1,0,0,0.801,button_left_main,-0.401020408,-0.312244898,1,0,0,,0,155,155,89,1,DRIEK,LB,old,z,./images/DRIEKLB.png,,,,,,,,,,,,,,,,,,,,
,,,,,,,,,,,,,,,,,199123,19,2022-01-28_15h48.21.363,lexical_decision_task_DD_L5,2021.2.3,iPhone,29.41176471,,,,,,,,,,0.734,0,,,,,,,,,,,,,,,0,0.392857143,-0.362244898,1,0,0,0.734,button_right_main,0.392857143,-0.362244898,1,0,0,,0,156,156,132,1,SCIFF,C,old,z,./images/SCIFF.png,,,,,,,,,,,,,,,,,,,,
,,,,,,,,,,,,,,,,,199123,19,2022-01-28_15h48.21.363,lexical_decision_task_DD_L5,2021.2.3,iPhone,29.41176471,,,,,,,,,,1.63,1,,,,,,,,,,,,,,,0,0.346938776,-0.32755102,1,0,0,1.63,button_right_main,0.346938776,-0.32755102,1,0,0,,0,157,157,32,1,HOCKEY,C,old,m,./images/HOCKEY.png,,,,,,,,,,,,,,,,,,,,
,,,,,,,,,,,,,,,,,199123,19,2022-01-28_15h48.21.363,lexical_decision_task_DD_L5,2021.2.3,iPhone,29.41176471,,,,,,,,,,0.704,1,,,,,,,,,,,,,,,0,-0.392857143,-0.294897959,1,0,0,0.704,button_left_main,-0.392857143,-0.294897959,1,0,0,,0,158,158,87,1,TRING,C,old,z,./images/TRING.png,,,,,,,,,,,,,,,,,,,,
,,,,,,,,,,,,,,,,,199123,19,2022-01-28_15h48.21.363,lexical_decision_task_DD_L5,2021.2.3,iPhone,29.41176471,,,,,,,,,,0.664,1,,,,,,,,,,,,,,,0,0.369387755,-0.344897959,1,0,0,0.664,button_right_main,0.369387755,-0.344897959,1,0,0,,0,159,159,83,1,WHISKY,C,old,m,./images/WHISKY.png,,,,,,,,,,,,,,,,,,,,
,,,,,,,,,,,,,,,,,199123,19,2022-01-28_15h48.21.363,lexical_decision_task_DD_L5,2021.2.3,iPhone,29.41176471,,,,,,,,,,0.83,1,,,,,,,,,,,,,,,0,0.389795918,-0.333673469,1,0,0,0.83,button_right_main,0.389795918,-0.333673469,1,0,0,,0,160,160,40,1,SNAKE,LB,old,m,./images/SNAKELB.png,,,,,,,,,,,,,,,,,,,,
,,,,,,,,,,,,,,,,,199123,19,2022-01-28_15h48.21.363,lexical_decision_task_DD_L5,2021.2.3,iPhone,29.41176471,,,,,,,,,,1.198,1,,,,,,,,,,,,,,,0,-0.398979592,-0.302040816,1,0,0,1.198,button_left_main,-0.398979592,-0.302040816,1,0,0,,0,161,161,97,1,CHIDS,HB,old,z,./images/CHIDSHB.png,,,,,,,,,,,,,,,,,,,,
,,,,,,,,,,,,,,,,,199123,19,2022-01-28_15h48.21.363,lexical_decision_task_DD_L5,2021.2.3,iPhone,29.41176471,,,,,,,,,,0.901,1,,,,,,,,,,,,,,,0,0.381632653,-0.33877551,1,0,0,0.901,button_right_main,0.381632653,-0.33877551,1,0,0,,0,162,162,18,1,PARCEL,HB,old,m,./images/PARCELHB.png,,,,,,,,,,,,,,,,,,,,
,,,,,,,,,,,,,,,,,199123,19,2022-01-28_15h48.21.363,lexical_decision_task_DD_L5,2021.2.3,iPhone,29.41176471,,,,,,,,,,1.064,1,,,,,,,,,,,,,,,0,-0.401020408,-0.295918367,1,0,0,1.064,button_left_main,-0.401020408,-0.295918367,1,0,0,,0,163,163,103,1,FLORT,HB,old,z,./images/FLORTHB.png,,,,,,,,,,,,,,,,,,,,
,,,,,,,,,,,,,,,,,199123,19,2022-01-28_15h48.21.363,lexical_decision_task_DD_L5,2021.2.3,iPhone,29.41176471,,,,,,,,,,2.497,1,,,,,,,,,,,,,,,0,-0.408163265,-0.310204082,1,0,0,2.497,button_left_main,-0.408163265,-0.310204082,1,0,0,,0,164,164,166,1,SHORY,HB,old,z,./images/SHORYHB.png,,,,,,,,,,,,,,,,,,,,
,,,,,,,,,,,,,,,,,199123,19,2022-01-28_15h48.21.363,lexical_decision_task_DD_L5,2021.2.3,iPhone,29.41176471,,,,,,,,,,0.869,1,,,,,,,,,,,,,,,0,-0.404081633,-0.292857143,1,0,0,0.869,button_left_main,-0.404081633,-0.292857143,1,0,0,,0,165,165,134,1,TROSS,LB,old,z,./images/TROSSLB.png,,,,,,,,,,,,,,,,,,,,
,,,,,,,,,,,,,,,,,199123,19,2022-01-28_15h48.21.363,lexical_decision_task_DD_L5,2021.2.3,iPhone,29.41176471,,,,,,,,,,1.964,1,,,,,,,,,,,,,,,0,-0.404081633,-0.305102041,1,0,0,1.964,button_left_main,-0.404081633,-0.305102041,1,0,0,,0,166,166,102,1,DULLE,C,old,z,./images/DULLE.png,,,,,,,,,,,,,,,,,,,,
,,,,,,,,,,,,,,,,,199123,19,2022-01-28_15h48.21.363,lexical_decision_task_DD_L5,2021.2.3,iPhone,29.41176471,,,,,,,,,,0.734,1,,,,,,,,,,,,,,,0,-0.405102041,-0.310204082,1,0,0,0.734,button_left_main,-0.405102041,-0.310204082,1,0,0,,0,167,167,138,1,PLICE,C,old,z,./images/PLICE.png,,,,,,,,,,,,,,,,,,,,
,0.132653061,-0.394897959,1,0,0,instr_done_button,,,,,,1,test,"In the next phase you will be presented with the words from the the first phase. Your job is to decide whether you remember seeing the word or not. If you remember seeing the word press ""old"" or type ""m"". If you do not remember seeing the word press ""new"" or type ""z"". Please press the space bar or click on continue to begin. ",,,199123,19,2022-01-28_15h48.21.363,lexical_decision_task_DD_L5,2021.2.3,iPhone,29.41176471,,,,,,,,,,,,,,,,,,,,,,,,,,,,,,,,,,,,,,,,,,,,,,,,,,,0,0,0,0,1,,,,,,,,,,,,,,
,-0.015306122,-0.395918367,1,0,0,instr_done_button,,,,,,1,test,"In the next phase you will be presented with the words from the the first phase. Your job is to decide whether you remember seeing the word or not. If you remember seeing the word press ""old"" or type ""m"". If you do not remember seeing the word press ""new"" or type ""z"". Please press the space bar or click on continue to begin. ",,,199123,19,2022-01-28_15h48.21.363,lexical_decision_task_DD_L5,2021.2.3,iPhone,29.41176471,,,,,,,,,,,,,,,,,,,,,,,,,,,,,,,,,,,,,,,,,,,,,,,,,,,1,0,1,0,1,,,,,,,,,,,,,,
,-0.024489796,-0.392857143,1,0,0,instr_done_button,,,,,,1,test,"In the next phase you will be presented with the words from the the first phase. Your job is to decide whether you remember seeing the word or not. If you remember seeing the word press ""old"" or type ""m"". If you do not remember seeing the word press ""new"" or type ""z"". Please press the space bar or click on continue to begin. ",,,199123,19,2022-01-28_15h48.21.363,lexical_decision_task_DD_L5,2021.2.3,iPhone,29.41176471,,,,,,,,,,,,,,,,,,,,,,,,,,,,,,,,,,,,,,,,,,,,,,,,,,,2,0,2,0,1,,,,,,,,,,,,,,
,0.02755102,-0.397959184,1,0,0,instr_done_button,,,,,,1,test,"In the next phase you will be presented with the words from the the first phase. Your job is to decide whether you remember seeing the word or not. If you remember seeing the word press ""old"" or type ""m"". If you do not remember seeing the word press ""new"" or type ""z"". Please press the space bar or click on continue to begin. ",,,199123,19,2022-01-28_15h48.21.363,lexical_decision_task_DD_L5,2021.2.3,iPhone,29.41176471,,,,,,,,,,,,,,,,,,,,,,,,,,,,,,,,,,,,,,,,,,,,,,,,,,,3,0,3,0,1,,,,,,,,,,,,,,
,0.010204082,-0.406122449,1,0,0,instr_done_button,,,,,,1,test,"In the next phase you will be presented with the words from the the first phase. Your job is to decide whether you remember seeing the word or not. If you remember seeing the word press ""old"" or type ""m"". If you do not remember seeing the word press ""new"" or type ""z"". Please press the space bar or click on continue to begin. ",,,199123,19,2022-01-28_15h48.21.363,lexical_decision_task_DD_L5,2021.2.3,iPhone,29.41176471,,,,,,,,,,,,,,,,,,,,,,,,,,,,,,,,,,,,,,,,,,,,,,,,,,,4,0,4,0,1,,,,,,,,,,,,,,
,,,,,,,,,,,,,,,,,199123,19,2022-01-28_15h48.21.363,lexical_decision_task_DD_L5,2021.2.3,iPhone,29.41176471,,,,,,,,,,2.458,0,,,,,,,,,,,,,,,,,,,,,,,-0.385714286,-0.296938776,1,0,0,,,,,,,BRUSH,C,m,y,./images/BRUSH.png,,,,,,,,0,-0.385714286,-0.296938776,1,0,0,2.458,button_left_test,0,0,0,59,1
,,,,,,,,,,,,,,,,,199123,19,2022-01-28_15h48.21.363,lexical_decision_task_DD_L5,2021.2.3,iPhone,29.41176471,,,,,,,,,,1.094,1,,,,,,,,,,,,,,,,,,,,,,,0.385714286,-0.310204082,1,0,0,,,,,,,BRIDE,LB,m,y,./images/BRIDELB.png,,,,,,,,0,0.385714286,-0.310204082,1,0,0,1.094,button_right_test,0,1,1,64,1
,,,,,,,,,,,,,,,,,199123,19,2022-01-28_15h48.21.363,lexical_decision_task_DD_L5,2021.2.3,iPhone,29.41176471,,,,,,,,,,1.398,0,,,,,,,,,,,,,,,,,,,,,,,0.38877551,-0.344897959,1,0,0,,,,,,,PIMPLE,C,z,y,./images/PIMPLE.png,,,,,,,,0,0.38877551,-0.344897959,1,0,0,1.398,button_right_test,0,2,2,155,1
,,,,,,,,,,,,,,,,,199123,19,2022-01-28_15h48.21.363,lexical_decision_task_DD_L5,2021.2.3,iPhone,29.41176471,,,,,,,,,,3.865,1,,,,,,,,,,,,,,,,,,,,,,,-0.43877551,-0.332653061,1,0,0,,,,,,,PLANK,LB,z,y,./images/PLANKLB.png,,,,,,,,0,-0.43877551,-0.332653061,1,0,0,3.865,button_left_test,0,3,3,85,1
,,,,,,,,,,,,,,,,,199123,19,2022-01-28_15h48.21.363,lexical_decision_task_DD_L5,2021.2.3,iPhone,29.41176471,,,,,,,,,,1.594,0,,,,,,,,,,,,,,,,,,,,,,,-0.429591837,-0.324489796,1,0,0,,,,,,,MUMMY,LB,m,y,./images/MUMMYLB.png,,,,,,,,0,-0.429591837,-0.324489796,1,0,0,1.594,button_left_test,0,4,4,46,1
,,,,,,,,,,,,,,,,,199123,19,2022-01-28_15h48.21.363,lexical_decision_task_DD_L5,2021.2.3,iPhone,29.41176471,,,,,,,,,,1.598,1,,,,,,,,,,,,,,,,,,,,,,,0.437755102,-0.340816327,1,0,0,,,,,,,CRATER,HB,m,y,./images/CRATERHB.png,,,,,,,,0,0.437755102,-0.340816327,1,0,0,1.598,button_right_test,0,5,5,3,1
,,,,,,,,,,,,,,,,,199123,19,2022-01-28_15h48.21.363,lexical_decision_task_DD_L5,2021.2.3,iPhone,29.41176471,,,,,,,,,,1.494,1,,,,,,,,,,,,,,,,,,,,,,,-0.281632653,-0.298979592,1,0,0,,,,,,,BONNET,C,z,y,./images/BONNET.png,,,,,,,,0,-0.281632653,-0.298979592,1,0,0,1.494,button_left_test,0,6,6,95,1
,,,,,,,,,,,,,,,,,199123,19,2022-01-28_15h48.21.363,lexical_decision_task_DD_L5,2021.2.3,iPhone,29.41176471,,,,,,,,,,3.293,1,,,,,,,,,,,,,,,,,,,,,,,-0.317346939,-0.318367347,1,0,0,,,,,,,SCREW,HB,z,y,./images/SCREWHB.png,,,,,,,,0,-0.317346939,-0.318367347,1,0,0,3.293,button_left_test,0,7,7,108,1
,,,,,,,,,,,,,,,,,199123,19,2022-01-28_15h48.21.363,lexical_decision_task_DD_L5,2021.2.3,iPhone,29.41176471,,,,,,,,,,1.267,1,,,,,,,,,,,,,,,,,,,,,,,0.430612245,-0.286734694,1,0,0,,,,,,,RAZOR,LB,m,y,./images/RAZORLB.png,,,,,,,,0,0.430612245,-0.286734694,1,0,0,1.267,button_right_test,0,8,8,34,1
,,,,,,,,,,,,,,,,,199123,19,2022-01-28_15h48.21.363,lexical_decision_task_DD_L5,2021.2.3,iPhone,29.41176471,,,,,,,,,,1.603,1,,,,,,,,,,,,,,,,,,,,,,,-0.292857143,-0.271428571,1,0,0,,,,,,,MALLET,C,z,y,./images/MALLET.png,,,,,,,,0,-0.292857143,-0.271428571,1,0,0,1.603,button_left_test,0,9,9,134,1
,,,,,,,,,,,,,,,,,199123,19,2022-01-28_15h48.21.363,lexical_decision_task_DD_L5,2021.2.3,iPhone,29.41176471,,,,,,,,,,2.391,1,,,,,,,,,,,,,,,,,,,,,,,0.444897959,-0.301020408,1,0,0,,,,,,,BUNNY,LB,m,y,./images/BUNNYLB.png,,,,,,,,0,0.444897959,-0.301020408,1,0,0,2.391,button_right_test,0,10,10,13,1
,,,,,,,,,,,,,,,,,199123,19,2022-01-28_15h48.21.363,lexical_decision_task_DD_L5,2021.2.3,iPhone,29.41176471,,,,,,,,,,5.695,1,,,,,,,,,,,,,,,,,,,,,,,-0.367346939,-0.292857143,1,0,0,,,,,,,SKIING,C,z,y,./images/SKIING.png,,,,,,,,0,-0.367346939,-0.292857143,1,0,0,5.695,button_left_test,0,11,11,101,1
,,,,,,,,,,,,,,,,,199123,19,2022-01-28_15h48.21.363,lexical_decision_task_DD_L5,2021.2.3,iPhone,29.41176471,,,,,,,,,,4.928,1,,,,,,,,,,,,,,,,,,,,,,,0.443877551,-0.325510204,1,0,0,,,,,,,POKER,LB,m,y,./images/POKERLB.png,,,,,,,,0,0.443877551,-0.325510204,1,0,0,4.928,button_right_test,0,12,12,67,1
,,,,,,,,,,,,,,,,,199123,19,2022-01-28_15h48.21.363,lexical_decision_task_DD_L5,2021.2.3,iPhone,29.41176471,,,,,,,,,,1.195,1,,,,,,,,,,,,,,,,,,,,,,,-0.297959184,-0.334693878,1,0,0,,,,,,,LIZARD,C,z,y,./images/LIZARD.png,,,,,,,,0,-0.297959184,-0.334693878,1,0,0,1.195,button_left_test,0,13,13,128,1
,,,,,,,,,,,,,,,,,199123,19,2022-01-28_15h48.21.363,lexical_decision_task_DD_L5,2021.2.3,iPhone,29.41176471,,,,,,,,,,2.799,0,,,,,,,,,,,,,,,,,,,,,,,-0.267346939,-0.334693878,1,0,0,,,,,,,WAGON,LB,m,y,./images/WAGONLB.png,,,,,,,,0,-0.267346939,-0.334693878,1,0,0,2.799,button_left_test,0,14,14,7,1
,,,,,,,,,,,,,,,,,199123,19,2022-01-28_15h48.21.363,lexical_decision_task_DD_L5,2021.2.3,iPhone,29.41176471,,,,,,,,,,2.167,1,,,,,,,,,,,,,,,,,,,,,,,-0.306122449,-0.352040816,1,0,0,,,,,,,FALCON,LB,z,y,./images/FALCONLB.png,,,,,,,,0,-0.306122449,-0.352040816,1,0,0,2.167,button_left_test,0,15,15,112,1
,,,,,,,,,,,,,,,,,199123,19,2022-01-28_15h48.21.363,lexical_decision_task_DD_L5,2021.2.3,iPhone,29.41176471,,,,,,,,,,1.76,1,,,,,,,,,,,,,,,,,,,,,,,0.364285714,-0.276530612,1,0,0,,,,,,,GLOVE,LB,m,y,./images/GLOVELB.png,,,,,,,,0,0.364285714,-0.276530612,1,0,0,1.76,button_right_test,0,16,16,73,1
,,,,,,,,,,,,,,,,,199123,19,2022-01-28_15h48.21.363,lexical_decision_task_DD_L5,2021.2.3,iPhone,29.41176471,,,,,,,,,,1.867,0,,,,,,,,,,,,,,,,,,,,,,,0.368367347,-0.33877551,1,0,0,,,,,,,STRING,C,z,y,./images/STRING.png,,,,,,,,0,0.441836735,-0.165306122,1,0,0,1.867,button_right_test,0,17,17,125,1
,,,,,,,,,,,,,,,,,199123,19,2022-01-28_15h48.21.363,lexical_decision_task_DD_L5,2021.2.3,iPhone,29.41176471,,,,,,,,,,0.766,1,,,,,,,,,,,,,,,,,,,,,,,0.371428571,-0.331632653,1,0,0,,,,,,,CHERRY,HB,m,y,./images/CHERRYHB.png,,,,,,,,0,0.371428571,-0.331632653,1,0,0,0.766,button_right_test,0,18,18,54,1
,,,,,,,,,,,,,,,,,199123,19,2022-01-28_15h48.21.363,lexical_decision_task_DD_L5,2021.2.3,iPhone,29.41176471,,,,,,,,,,0.834,1,,,,,,,,,,,,,,,,,,,,,,,-0.287755102,-0.331632653,1,0,0,,,,,,,KIDNEY,HB,z,y,./images/KIDNEYHB.png,,,,,,,,0,-0.287755102,-0.331632653,1,0,0,0.834,button_left_test,0,19,19,105,1
,,,,,,,,,,,,,,,,,199123,19,2022-01-28_15h48.21.363,lexical_decision_task_DD_L5,2021.2.3,iPhone,29.41176471,,,,,,,,,,0.861,1,,,,,,,,,,,,,,,,,,,,,,,0.37755102,-0.25,1,0,0,,,,,,,FENCE,C,m,y,./images/FENCE.png,,,,,,,,0,0.37755102,-0.25,1,0,0,0.861,button_right_test,0,20,20,14,1
,,,,,,,,,,,,,,,,,199123,19,2022-01-28_15h48.21.363,lexical_decision_task_DD_L5,2021.2.3,iPhone,29.41176471,,,,,,,,,,0.961,1,,,,,,,,,,,,,,,,,,,,,,,-0.310204082,-0.31122449,1,0,0,,,,,,,SWEAT,HB,z,y,./images/SWEATHB.png,,,,,,,,0,-0.310204082,-0.31122449,1,0,0,0.961,button_left_test,0,21,21,150,1
,,,,,,,,,,,,,,,,,199123,19,2022-01-28_15h48.21.363,lexical_decision_task_DD_L5,2021.2.3,iPhone,29.41176471,,,,,,,,,,1.831,1,,,,,,,,,,,,,,,,,,,,,,,-0.401020408,-0.301020408,1,0,0,,,,,,,MOTOR,LB,z,y,./images/MOTORLB.png,,,,,,,,0,-0.401020408,-0.301020408,1,0,0,1.831,button_left_test,0,22,22,97,1
,,,,,,,,,,,,,,,,,199123,19,2022-01-28_15h48.21.363,lexical_decision_task_DD_L5,2021.2.3,iPhone,29.41176471,,,,,,,,,,0.727,1,,,,,,,,,,,,,,,,,,,,,,,-0.398979592,-0.345918367,1,0,0,,,,,,,INFANT,LB,z,y,./images/INFANTLB.png,,,,,,,,0,-0.398979592,-0.345918367,1,0,0,0.727,button_left_test,0,23,23,160,1
,,,,,,,,,,,,,,,,,199123,19,2022-01-28_15h48.21.363,lexical_decision_task_DD_L5,2021.2.3,iPhone,29.41176471,,,,,,,,,,1.47,1,,,,,,,,,,,,,,,,,,,,,,,0.392857143,-0.351020408,1,0,0,,,,,,,ARROW,HB,m,y,./images/ARROWHB.png,,,,,,,,0,0.392857143,-0.351020408,1,0,0,1.47,button_right_test,0,24,24,69,1
,,,,,,,,,,,,,,,,,199123,19,2022-01-28_15h48.21.363,lexical_decision_task_DD_L5,2021.2.3,iPhone,29.41176471,,,,,,,,,,0.791,1,,,,,,,,,,,,,,,,,,,,,,,-0.37755102,-0.315306122,1,0,0,,,,,,,SHORE,HB,z,y,./images/SHOREHB.png,,,,,,,,0,-0.37755102,-0.315306122,1,0,0,0.791,button_left_test,0,25,25,96,1
,,,,,,,,,,,,,,,,,199123,19,2022-01-28_15h48.21.363,lexical_decision_task_DD_L5,2021.2.3,iPhone,29.41176471,,,,,,,,,,0.765,1,,,,,,,,,,,,,,,,,,,,,,,0.380612245,-0.298979592,1,0,0,,,,,,,DANCER,HB,m,y,./images/DANCERHB.png,,,,,,,,0,0.380612245,-0.298979592,1,0,0,0.765,button_right_test,0,26,26,21,1
,,,,,,,,,,,,,,,,,199123,19,2022-01-28_15h48.21.363,lexical_decision_task_DD_L5,2021.2.3,iPhone,29.41176471,,,,,,,,,,3.728,1,,,,,,,,,,,,,,,,,,,,,,,0.362244898,-0.32755102,1,0,0,,,,,,,TOWEL,LB,m,y,./images/TOWELLB.png,,,,,,,,0,0.362244898,-0.32755102,1,0,0,3.728,button_right_test,0,27,27,1,1
,,,,,,,,,,,,,,,,,199123,19,2022-01-28_15h48.21.363,lexical_decision_task_DD_L5,2021.2.3,iPhone,29.41176471,,,,,,,,,,0.693,1,,,,,,,,,,,,,,,,,,,,,,,0.376530612,-0.364285714,1,0,0,,,,,,,WALNUT,HB,m,y,./images/WALNUTHB.png,,,,,,,,0,0.376530612,-0.364285714,1,0,0,0.693,button_right_test,0,28,28,0,1
,,,,,,,,,,,,,,,,,199123,19,2022-01-28_15h48.21.363,lexical_decision_task_DD_L5,2021.2.3,iPhone,29.41176471,,,,,,,,,,0.668,1,,,,,,,,,,,,,,,,,,,,,,,0.376530612,-0.312244898,1,0,0,,,,,,,SAUNA,HB,m,y,./images/SAUNAHB.png,,,,,,,,0,0.376530612,-0.312244898,1,0,0,0.668,button_right_test,0,29,29,33,1
,,,,,,,,,,,,,,,,,199123,19,2022-01-28_15h48.21.363,lexical_decision_task_DD_L5,2021.2.3,iPhone,29.41176471,,,,,,,,,,1.162,0,,,,,,,,,,,,,,,,,,,,,,,0.419387755,-0.32244898,1,0,0,,,,,,,BANNER,LB,z,y,./images/BANNERLB.png,,,,,,,,0,0.419387755,-0.32244898,1,0,0,1.162,button_right_test,0,30,30,136,1
,,,,,,,,,,,,,,,,,199123,19,2022-01-28_15h48.21.363,lexical_decision_task_DD_L5,2021.2.3,iPhone,29.41176471,,,,,,,,,,0.594,1,,,,,,,,,,,,,,,,,,,,,,,0.415306122,-0.340816327,1,0,0,,,,,,,SHIELD,HB,m,y,./images/SHIELDHB.png,,,,,,,,0,0.415306122,-0.340816327,1,0,0,0.594,button_right_test,0,31,31,48,1
,,,,,,,,,,,,,,,,,199123,19,2022-01-28_15h48.21.363,lexical_decision_task_DD_L5,2021.2.3,iPhone,29.41176471,,,,,,,,,,0.532,1,,,,,,,,,,,,,,,,,,,,,,,0.409183673,-0.325510204,1,0,0,,,,,,,CURRY,HB,m,y,./images/CURRYHB.png,,,,,,,,0,0.409183673,-0.325510204,1,0,0,0.532,button_right_test,0,32,32,60,1
,,,,,,,,,,,,,,,,,199123,19,2022-01-28_15h48.21.363,lexical_decision_task_DD_L5,2021.2.3,iPhone,29.41176471,,,,,,,,,,0.568,1,,,,,,,,,,,,,,,,,,,,,,,0.42244898,-0.32244898,1,0,0,,,,,,,GRAPE,LB,m,y,./images/GRAPELB.png,,,,,,,,0,0.42244898,-0.32244898,1,0,0,0.568,button_right_test,0,33,33,16,1
,,,,,,,,,,,,,,,,,199123,19,2022-01-28_15h48.21.363,lexical_decision_task_DD_L5,2021.2.3,iPhone,29.41176471,,,,,,,,,,0.828,1,,,,,,,,,,,,,,,,,,,,,,,0.392857143,-0.278571429,1,0,0,,,,,,,SAUCE,HB,m,y,./images/SAUCEHB.png,,,,,,,,0,0.392857143,-0.278571429,1,0,0,0.828,button_right_test,0,34,34,51,1
,,,,,,,,,,,,,,,,,199123,19,2022-01-28_15h48.21.363,lexical_decision_task_DD_L5,2021.2.3,iPhone,29.41176471,,,,,,,,,,0.628,1,,,,,,,,,,,,,,,,,,,,,,,0.392857143,-0.306122449,1,0,0,,,,,,,CHAIN,HB,m,y,./images/CHAINHB.png,,,,,,,,0,0.392857143,-0.306122449,1,0,0,0.628,button_right_test,0,35,35,42,1
,,,,,,,,,,,,,,,,,199123,19,2022-01-28_15h48.21.363,lexical_decision_task_DD_L5,2021.2.3,iPhone,29.41176471,,,,,,,,,,0.697,1,,,,,,,,,,,,,,,,,,,,,,,0.408163265,-0.326530612,1,0,0,,,,,,,BROOM,HB,m,y,./images/BROOMHB.png,,,,,,,,0,0.408163265,-0.326530612,1,0,0,0.697,button_right_test,0,36,36,78,1
,,,,,,,,,,,,,,,,,199123,19,2022-01-28_15h48.21.363,lexical_decision_task_DD_L5,2021.2.3,iPhone,29.41176471,,,,,,,,,,0.834,1,,,,,,,,,,,,,,,,,,,,,,,0.444897959,-0.324489796,1,0,0,,,,,,,CHALK,LB,m,y,./images/CHALKLB.png,,,,,,,,0,0.444897959,-0.324489796,1,0,0,0.834,button_right_test,0,37,37,25,1
,,,,,,,,,,,,,,,,,199123,19,2022-01-28_15h48.21.363,lexical_decision_task_DD_L5,2021.2.3,iPhone,29.41176471,,,,,,,,,,0.76,1,,,,,,,,,,,,,,,,,,,,,,,0.433673469,-0.32244898,1,0,0,,,,,,,PILOT,C,m,y,./images/PILOT.png,,,,,,,,0,0.433673469,-0.32244898,1,0,0,0.76,button_right_test,0,38,38,50,1
,,,,,,,,,,,,,,,,,199123,19,2022-01-28_15h48.21.363,lexical_decision_task_DD_L5,2021.2.3,iPhone,29.41176471,,,,,,,,,,0.794,1,,,,,,,,,,,,,,,,,,,,,,,-0.360204082,-0.289795918,1,0,0,,,,,,,JAGUAR,HB,z,y,./images/JAGUARHB.png,,,,,,,,0,-0.360204082,-0.289795918,1,0,0,0.794,button_left_test,0,39,39,102,1
,,,,,,,,,,,,,,,,,199123,19,2022-01-28_15h48.21.363,lexical_decision_task_DD_L5,2021.2.3,iPhone,29.41176471,,,,,,,,,,0.601,1,,,,,,,,,,,,,,,,,,,,,,,0.434693878,-0.287755102,1,0,0,,,,,,,SNAKE,LB,m,y,./images/SNAKELB.png,,,,,,,,0,0.434693878,-0.287755102,1,0,0,0.601,button_right_test,0,40,40,40,1
,,,,,,,,,,,,,,,,,199123,19,2022-01-28_15h48.21.363,lexical_decision_task_DD_L5,2021.2.3,iPhone,29.41176471,,,,,,,,,,4.363,1,,,,,,,,,,,,,,,,,,,,,,,0.115306122,-0.37755102,1,0,0,,,,,,,RULER,LB,m,y,./images/RULERLB.png,break_done_button,,,,,,,0,0.456122449,-0.358163265,1,0,0,4.363,button_right_test,0,41,41,79,1
,,,,,,,,,,,,,,,,,199123,19,2022-01-28_15h48.21.363,lexical_decision_task_DD_L5,2021.2.3,iPhone,29.41176471,,,,,,,,,,3.568,1,,,,,,,,,,,,,,,,,,,,,,,-0.347959184,-0.239795918,1,0,0,,,,,,,MUFFIN,LB,z,y,./images/MUFFINLB.png,,,,,,,,0,-0.347959184,-0.239795918,1,0,0,3.568,button_left_test,0,42,42,139,1
,,,,,,,,,,,,,,,,,199123,19,2022-01-28_15h48.21.363,lexical_decision_task_DD_L5,2021.2.3,iPhone,29.41176471,,,,,,,,,,2.46,0,,,,,,,,,,,,,,,,,,,,,,,-0.398979592,-0.318367347,1,0,0,,,,,,,DRILL,HB,m,y,./images/DRILLHB.png,,,,,,,,0,-0.398979592,-0.318367347,1,0,0,2.46,button_left_test,0,43,43,81,1
,,,,,,,,,,,,,,,,,199123,19,2022-01-28_15h48.21.363,lexical_decision_task_DD_L5,2021.2.3,iPhone,29.41176471,,,,,,,,,,0.675,0,,,,,,,,,,,,,,,,,,,,,,,0.423469388,-0.321428571,1,0,0,,,,,,,PURSE,C,z,y,./images/PURSE.png,,,,,,,,0,0.423469388,-0.321428571,1,0,0,0.675,button_right_test,0,44,44,146,1
,,,,,,,,,,,,,,,,,199123,19,2022-01-28_15h48.21.363,lexical_decision_task_DD_L5,2021.2.3,iPhone,29.41176471,,,,,,,,,,1.261,0,,,,,,,,,,,,,,,,,,,,,,,-0.393877551,-0.32244898,1,0,0,,,,,,,STEAK,LB,m,y,./images/STEAKLB.png,,,,,,,,0,-0.393877551,-0.32244898,1,0,0,1.261,button_left_test,0,45,45,31,1
,,,,,,,,,,,,,,,,,199123,19,2022-01-28_15h48.21.363,lexical_decision_task_DD_L5,2021.2.3,iPhone,29.41176471,,,,,,,,,,0.833,0,,,,,,,,,,,,,,,,,,,,,,,0.43877551,-0.339795918,1,0,0,,,,,,,CRUMB,C,z,y,./images/CRUMB.png,,,,,,,,0,0.43877551,-0.339795918,1,0,0,0.833,button_right_test,0,46,46,113,1
,,,,,,,,,,,,,,,,,199123,19,2022-01-28_15h48.21.363,lexical_decision_task_DD_L5,2021.2.3,iPhone,29.41176471,,,,,,,,,,1.06,1,,,,,,,,,,,,,,,,,,,,,,,-0.397959184,-0.31122449,1,0,0,,,,,,,BELLY,LB,z,y,./images/BELLYLB.png,,,,,,,,0,-0.397959184,-0.31122449,1,0,0,1.06,button_left_test,0,47,47,94,1
,,,,,,,,,,,,,,,,,199123,19,2022-01-28_15h48.21.363,lexical_decision_task_DD_L5,2021.2.3,iPhone,29.41176471,,,,,,,,,,0.56,0,,,,,,,,,,,,,,,,,,,,,,,-0.38877551,-0.32244898,1,0,0,,,,,,,ALLEY,LB,m,y,./images/ALLEYLB.png,,,,,,,,0,-0.38877551,-0.32244898,1,0,0,0.56,button_left_test,0,48,48,55,1
,,,,,,,,,,,,,,,,,199123,19,2022-01-28_15h48.21.363,lexical_decision_task_DD_L5,2021.2.3,iPhone,29.41176471,,,,,,,,,,2.361,1,,,,,,,,,,,,,,,,,,,,,,,0.417346939,-0.268367347,1,0,0,,,,,,,DONKEY,LB,m,y,./images/DONKEYLB.png,,,,,,,,0,0.417346939,-0.268367347,1,0,0,2.361,button_right_test,0,49,49,19,1
,,,,,,,,,,,,,,,,,199123,19,2022-01-28_15h48.21.363,lexical_decision_task_DD_L5,2021.2.3,iPhone,29.41176471,,,,,,,,,,0.902,1,,,,,,,,,,,,,,,,,,,,,,,-0.38877551,-0.336734694,1,0,0,,,,,,,PASTA,C,z,y,./images/PASTA.png,,,,,,,,0,-0.38877551,-0.336734694,1,0,0,0.902,button_left_test,0,50,50,89,1
,,,,,,,,,,,,,,,,,199123,19,2022-01-28_15h48.21.363,lexical_decision_task_DD_L5,2021.2.3,iPhone,29.41176471,,,,,,,,,,1.501,1,,,,,,,,,,,,,,,,,,,,,,,0.345918367,-0.330612245,1,0,0,,,,,,,CLOTH,C,m,y,./images/CLOTH.png,,,,,,,,0,0.345918367,-0.330612245,1,0,0,1.501,button_right_test,0,51,51,23,1
,,,,,,,,,,,,,,,,,199123,19,2022-01-28_15h48.21.363,lexical_decision_task_DD_L5,2021.2.3,iPhone,29.41176471,,,,,,,,,,1.467,1,,,,,,,,,,,,,,,,,,,,,,,-0.332653061,-0.330612245,1,0,0,,,,,,,SQUARE,HB,z,y,./images/SQUAREHB.png,,,,,,,,0,-0.332653061,-0.330612245,1,0,0,1.467,button_left_test,0,52,52,90,1
,,,,,,,,,,,,,,,,,199123,19,2022-01-28_15h48.21.363,lexical_decision_task_DD_L5,2021.2.3,iPhone,29.41176471,,,,,,,,,,1.167,1,,,,,,,,,,,,,,,,,,,,,,,-0.351020408,-0.275510204,1,0,0,,,,,,,CRUST,LB,z,y,./images/CRUSTLB.png,,,,,,,,0,-0.351020408,-0.275510204,1,0,0,1.167,button_left_test,0,53,53,163,1
,,,,,,,,,,,,,,,,,199123,19,2022-01-28_15h48.21.363,lexical_decision_task_DD_L5,2021.2.3,iPhone,29.41176471,,,,,,,,,,3.133,0,,,,,,,,,,,,,,,,,,,,,,,-0.385714286,-0.259183673,1,0,0,,,,,,,CLOWN,LB,m,y,./images/CLOWNLB.png,,,,,,,,0,-0.385714286,-0.259183673,1,0,0,3.133,button_left_test,0,54,54,22,1
,,,,,,,,,,,,,,,,,199123,19,2022-01-28_15h48.21.363,lexical_decision_task_DD_L5,2021.2.3,iPhone,29.41176471,,,,,,,,,,1.059,1,,,,,,,,,,,,,,,,,,,,,,,-0.370408163,-0.283673469,1,0,0,,,,,,,WRIST,LB,z,y,./images/WRISTLB.png,,,,,,,,0,-0.370408163,-0.283673469,1,0,0,1.059,button_left_test,0,55,55,109,1
,,,,,,,,,,,,,,,,,199123,19,2022-01-28_15h48.21.363,lexical_decision_task_DD_L5,2021.2.3,iPhone,29.41176471,,,,,,,,,,1.562,1,,,,,,,,,,,,,,,,,,,,,,,0.325510204,-0.314285714,1,0,0,,,,,,,HAMMER,HB,m,y,./images/HAMMERHB.png,,,,,,,,0,0.325510204,-0.314285714,1,0,0,1.562,button_right_test,0,56,56,75,1
,,,,,,,,,,,,,,,,,199123,19,2022-01-28_15h48.21.363,lexical_decision_task_DD_L5,2021.2.3,iPhone,29.41176471,,,,,,,,,,1.9,1,,,,,,,,,,,,,,,,,,,,,,,0.281632653,-0.27244898,1,0,0,,,,,,,FLESH,HB,m,y,./images/FLESHHB.png,,,,,,,,0,0.281632653,-0.27244898,1,0,0,1.9,button_right_test,0,57,57,24,1
,,,,,,,,,,,,,,,,,199123,19,2022-01-28_15h48.21.363,lexical_decision_task_DD_L5,2021.2.3,iPhone,29.41176471,,,,,,,,,,1.261,1,,,,,,,,,,,,,,,,,,,,,,,-0.367346939,-0.287755102,1,0,0,,,,,,,MOSQUE,LB,z,y,./images/MOSQUELB.png,,,,,,,,0,-0.367346939,-0.287755102,1,0,0,1.261,button_left_test,0,58,58,127,1
,,,,,,,,,,,,,,,,,199123,19,2022-01-28_15h48.21.363,lexical_decision_task_DD_L5,2021.2.3,iPhone,29.41176471,,,,,,,,,,1.694,0,,,,,,,,,,,,,,,,,,,,,,,0.32755102,-0.259183673,1,0,0,,,,,,,PAINT,LB,z,y,./images/PAINTLB.png,,,,,,,,0,0.32755102,-0.259183673,1,0,0,1.694,button_right_test,0,59,59,91,1
,,,,,,,,,,,,,,,,,199123,19,2022-01-28_15h48.21.363,lexical_decision_task_DD_L5,2021.2.3,iPhone,29.41176471,,,,,,,,,,1.167,1,,,,,,,,,,,,,,,,,,,,,,,0.285714286,-0.3,1,0,0,,,,,,,DIVER,HB,m,y,./images/DIVERHB.png,,,,,,,,0,0.285714286,-0.3,1,0,0,1.167,button_right_test,0,60,60,9,1
,,,,,,,,,,,,,,,,,199123,19,2022-01-28_15h48.21.363,lexical_decision_task_DD_L5,2021.2.3,iPhone,29.41176471,,,,,,,,,,0.972,1,,,,,,,,,,,,,,,,,,,,,,,-0.312244898,-0.297959184,1,0,0,,,,,,,MAGGOT,HB,z,y,./images/MAGGOTHB.png,,,,,,,,0,-0.312244898,-0.297959184,1,0,0,0.972,button_left_test,0,61,61,117,1
,,,,,,,,,,,,,,,,,199123,19,2022-01-28_15h48.21.363,lexical_decision_task_DD_L5,2021.2.3,iPhone,29.41176471,,,,,,,,,,3.53,1,,,,,,,,,,,,,,,,,,,,,,,-0.306122449,-0.317346939,1,0,0,,,,,,,CRADLE,C,z,y,./images/CRADLE.png,,,,,,,,0,-0.306122449,-0.317346939,1,0,0,3.53,button_left_test,0,62,62,104,1
,,,,,,,,,,,,,,,,,199123,19,2022-01-28_15h48.21.363,lexical_decision_task_DD_L5,2021.2.3,iPhone,29.41176471,,,,,,,,,,0.827,1,,,,,,,,,,,,,,,,,,,,,,,0.325510204,-0.321428571,1,0,0,,,,,,,PLANET,C,m,y,./images/PLANET.png,,,,,,,,0,0.325510204,-0.321428571,1,0,0,0.827,button_right_test,0,63,63,80,1
,,,,,,,,,,,,,,,,,199123,19,2022-01-28_15h48.21.363,lexical_decision_task_DD_L5,2021.2.3,iPhone,29.41176471,,,,,,,,,,1.361,1,,,,,,,,,,,,,,,,,,,,,,,0.296938776,-0.32755102,1,0,0,,,,,,,CANDY,HB,m,y,./images/CANDYHB.png,,,,,,,,0,0.296938776,-0.32755102,1,0,0,1.361,button_right_test,0,64,64,39,1
,,,,,,,,,,,,,,,,,199123,19,2022-01-28_15h48.21.363,lexical_decision_task_DD_L5,2021.2.3,iPhone,29.41176471,,,,,,,,,,1.866,1,,,,,,,,,,,,,,,,,,,,,,,0.228571429,-0.268367347,1,0,0,,,,,,,WHEEL,C,m,y,./images/WHEEL.png,,,,,,,,0,0.228571429,-0.268367347,1,0,0,1.866,button_right_test,0,65,65,77,1
,,,,,,,,,,,,,,,,,199123,19,2022-01-28_15h48.21.363,lexical_decision_task_DD_L5,2021.2.3,iPhone,29.41176471,,,,,,,,,,0.708,1,,,,,,,,,,,,,,,,,,,,,,,0.252040816,-0.268367347,1,0,0,,,,,,,BAKER,HB,m,y,./images/BAKERHB.png,,,,,,,,0,0.252040816,-0.268367347,1,0,0,0.708,button_right_test,0,66,66,63,1
,,,,,,,,,,,,,,,,,199123,19,2022-01-28_15h48.21.363,lexical_decision_task_DD_L5,2021.2.3,iPhone,29.41176471,,,,,,,,,,0.994,1,,,,,,,,,,,,,,,,,,,,,,,-0.305102041,-0.367346939,1,0,0,,,,,,,DRUMS,LB,z,y,./images/DRUMSLB.png,,,,,,,,0,-0.305102041,-0.367346939,1,0,0,0.994,button_left_test,0,67,67,133,1
,,,,,,,,,,,,,,,,,199123,19,2022-01-28_15h48.21.363,lexical_decision_task_DD_L5,2021.2.3,iPhone,29.41176471,,,,,,,,,,0.828,1,,,,,,,,,,,,,,,,,,,,,,,0.304081633,-0.276530612,1,0,0,,,,,,,COLLAR,HB,m,y,./images/COLLARHB.png,,,,,,,,0,0.304081633,-0.276530612,1,0,0,0.828,button_right_test,0,68,68,15,1
,,,,,,,,,,,,,,,,,199123,19,2022-01-28_15h48.21.363,lexical_decision_task_DD_L5,2021.2.3,iPhone,29.41176471,,,,,,,,,,0.967,1,,,,,,,,,,,,,,,,,,,,,,,-0.375510204,-0.285714286,1,0,0,,,,,,,QUILL,LB,z,y,./images/QUILLLB.png,,,,,,,,0,-0.375510204,-0.285714286,1,0,0,0.967,button_left_test,0,69,69,115,1
,,,,,,,,,,,,,,,,,199123,19,2022-01-28_15h48.21.363,lexical_decision_task_DD_L5,2021.2.3,iPhone,29.41176471,,,,,,,,,,1.206,1,,,,,,,,,,,,,,,,,,,,,,,-0.347959184,-0.329591837,1,0,0,,,,,,,SUNSET,LB,z,y,./images/SUNSETLB.png,,,,,,,,0,-0.347959184,-0.329591837,1,0,0,1.206,button_left_test,0,70,70,166,1
,,,,,,,,,,,,,,,,,199123,19,2022-01-28_15h48.21.363,lexical_decision_task_DD_L5,2021.2.3,iPhone,29.41176471,,,,,,,,,,1.297,1,,,,,,,,,,,,,,,,,,,,,,,-0.329591837,-0.297959184,1,0,0,,,,,,,SHELF,HB,z,y,./images/SHELFHB.png,,,,,,,,0,-0.329591837,-0.297959184,1,0,0,1.297,button_left_test,0,71,71,123,1
,,,,,,,,,,,,,,,,,199123,19,2022-01-28_15h48.21.363,lexical_decision_task_DD_L5,2021.2.3,iPhone,29.41176471,,,,,,,,,,1.694,1,,,,,,,,,,,,,,,,,,,,,,,-0.37244898,-0.286734694,1,0,0,,,,,,,POODLE,HB,z,y,./images/POODLEHB.png,,,,,,,,0,-0.37244898,-0.286734694,1,0,0,1.694,button_left_test,0,72,72,165,1
,,,,,,,,,,,,,,,,,199123,19,2022-01-28_15h48.21.363,lexical_decision_task_DD_L5,2021.2.3,iPhone,29.41176471,,,,,,,,,,2.601,0,,,,,,,,,,,,,,,,,,,,,,,-0.370408163,-0.289795918,1,0,0,,,,,,,STAIN,HB,m,y,./images/STAINHB.png,,,,,,,,0,-0.370408163,-0.289795918,1,0,0,2.601,button_left_test,0,73,73,6,1
,,,,,,,,,,,,,,,,,199123,19,2022-01-28_15h48.21.363,lexical_decision_task_DD_L5,2021.2.3,iPhone,29.41176471,,,,,,,,,,0.798,1,,,,,,,,,,,,,,,,,,,,,,,-0.409183673,-0.318367347,1,0,0,,,,,,,COOKER,HB,z,y,./images/COOKERHB.png,,,,,,,,0,-0.409183673,-0.318367347,1,0,0,0.798,button_left_test,0,74,74,153,1
,,,,,,,,,,,,,,,,,199123,19,2022-01-28_15h48.21.363,lexical_decision_task_DD_L5,2021.2.3,iPhone,29.41176471,,,,,,,,,,1.294,1,,,,,,,,,,,,,,,,,,,,,,,-0.442857143,-0.303061224,1,0,0,,,,,,,GRAIN,HB,z,y,./images/GRAINHB.png,,,,,,,,0,-0.442857143,-0.303061224,1,0,0,1.294,button_left_test,0,75,75,159,1
,,,,,,,,,,,,,,,,,199123,19,2022-01-28_15h48.21.363,lexical_decision_task_DD_L5,2021.2.3,iPhone,29.41176471,,,,,,,,,,1.001,1,,,,,,,,,,,,,,,,,,,,,,,0.439795918,-0.278571429,1,0,0,,,,,,,PARCEL,HB,m,y,./images/PARCELHB.png,,,,,,,,0,0.439795918,-0.278571429,1,0,0,1.001,button_right_test,0,76,76,18,1
,,,,,,,,,,,,,,,,,199123,19,2022-01-28_15h48.21.363,lexical_decision_task_DD_L5,2021.2.3,iPhone,29.41176471,,,,,,,,,,2.227,1,,,,,,,,,,,,,,,,,,,,,,,-0.295918367,-0.201020408,1,0,0,,,,,,,BABOON,LB,z,y,./images/BABOONLB.png,,,,,,,,0,-0.295918367,-0.201020408,1,0,0,2.227,button_left_test,0,77,77,142,1
,,,,,,,,,,,,,,,,,199123,19,2022-01-28_15h48.21.363,lexical_decision_task_DD_L5,2021.2.3,iPhone,29.41176471,,,,,,,,,,3.994,1,,,,,,,,,,,,,,,,,,,,,,,-0.28877551,-0.266326531,1,0,0,,,,,,,MOOSE,HB,z,y,./images/MOOSEHB.png,,,,,,,,0,-0.28877551,-0.266326531,1,0,0,3.994,button_left_test,0,78,78,141,1
,,,,,,,,,,,,,,,,,199123,19,2022-01-28_15h48.21.363,lexical_decision_task_DD_L5,2021.2.3,iPhone,29.41176471,,,,,,,,,,1.864,1,,,,,,,,,,,,,,,,,,,,,,,-0.219387755,-0.275510204,1,0,0,,,,,,,FARMER,C,z,y,./images/FARMER.png,,,,,,,,0,-0.219387755,-0.275510204,1,0,0,1.864,button_left_test,0,79,79,149,1
,,,,,,,,,,,,,,,,,199123,19,2022-01-28_15h48.21.363,lexical_decision_task_DD_L5,2021.2.3,iPhone,29.41176471,,,,,,,,,,6.961,1,,,,,,,,,,,,,,,,,,,,,,,0.377425945,-0.323799796,1,0,0,,,,,,,DESERT,LB,m,y,./images/DESERTLB.png,,,,,,,,0,0.377425945,-0.323799796,1,0,0,6.961,button_right_test,0,80,80,52,1
,,,,,,,,,,,,,,,,,199123,19,2022-01-28_15h48.21.363,lexical_decision_task_DD_L5,2021.2.3,iPhone,29.41176471,,,,,,,,,,2.127,0,,,,,,,,,,,,,,,,,,,,,,,-0.34473953,-0.223697651,1,0,0,,,,,,,MEDAL,C,m,y,./images/MEDAL.png,,,,,,,,0,-0.34473953,-0.223697651,1,0,0,2.127,button_left_test,0,81,81,11,1
,,,,,,,,,,,,,,,,,199123,19,2022-01-28_15h48.21.363,lexical_decision_task_DD_L5,2021.2.3,iPhone,29.41176471,,,,,,,,,,0.96,1,,,,,,,,,,,,,,,,,,,,,,,0.356996936,-0.279877426,1,0,0,,,,,,,GRANNY,C,m,y,./images/GRANNY.png,,,,,,,,0,0.356996936,-0.279877426,1,0,0,0.96,button_right_test,0,82,82,20,1
,,,,,,,,,,,,,,,,,199123,19,2022-01-28_15h48.21.363,lexical_decision_task_DD_L5,2021.2.3,iPhone,29.41176471,,,,,,,,,,1.364,1,,,,,,,,,,,,,,,,,,,,,,,0.116956078,-0.446373851,1,0,0,,,,,,,FOLDER,HB,z,y,./images/FOLDERHB.png,break_done_button,,,,,,,0,-0.2773238,-0.347293156,1,0,0,1.364,button_left_test,0,83,83,126,1
,,,,,,,,,,,,,,,,,199123,19,2022-01-28_15h48.21.363,lexical_decision_task_DD_L5,2021.2.3,iPhone,29.41176471,,,,,,,,,,1.292,1,,,,,,,,,,,,,,,,,,,,,,,0.381511747,-0.299284985,1,0,0,,,,,,,JUMPER,C,m,y,./images/JUMPER.png,,,,,,,,0,0.381511747,-0.299284985,1,0,0,1.292,button_right_test,0,84,84,74,1
,,,,,,,,,,,,,,,,,199123,19,2022-01-28_15h48.21.363,lexical_decision_task_DD_L5,2021.2.3,iPhone,29.41176471,,,,,,,,,,1.062,1,,,,,,,,,,,,,,,,,,,,,,,-0.317160368,-0.335035751,1,0,0,,,,,,,SPORT,HB,z,y,./images/SPORTHB.png,,,,,,,,0,-0.317160368,-0.335035751,1,0,0,1.062,button_left_test,0,85,85,132,1
,,,,,,,,,,,,,,,,,199123,19,2022-01-28_15h48.21.363,lexical_decision_task_DD_L5,2021.2.3,iPhone,29.41176471,,,,,,,,,,1.134,1,,,,,,,,,,,,,,,,,,,,,,,-0.310010215,-0.328907048,1,0,0,,,,,,,PEACH,C,z,y,./images/PEACH.png,,,,,,,,0,-0.317160368,-0.19918284,1,0,0,1.134,button_left_test,0,86,86,119,1
,,,,,,,,,,,,,,,,,199123,19,2022-01-28_15h48.21.363,lexical_decision_task_DD_L5,2021.2.3,iPhone,29.41176471,,,,,,,,,,0.826,1,,,,,,,,,,,,,,,,,,,,,,,-0.32124617,-0.322778345,1,0,0,,,,,,,CEMENT,C,z,y,./images/CEMENT.png,,,,,,,,0,-0.32124617,-0.322778345,1,0,0,0.826,button_left_test,0,87,87,158,1
,,,,,,,,,,,,,,,,,199123,19,2022-01-28_15h48.21.363,lexical_decision_task_DD_L5,2021.2.3,iPhone,29.41176471,,,,,,,,,,1.229,1,,,,,,,,,,,,,,,,,,,,,,,-0.310010215,-0.354443309,1,0,0,,,,,,,MIRROR,HB,z,y,./images/MIRRORHB.png,,,,,,,,0,-0.310010215,-0.354443309,1,0,0,1.229,button_left_test,0,88,88,147,1
,,,,,,,,,,,,,,,,,199123,19,2022-01-28_15h48.21.363,lexical_decision_task_DD_L5,2021.2.3,iPhone,29.41176471,,,,,,,,,,1.26,1,,,,,,,,,,,,,,,,,,,,,,,-0.41113381,-0.349336057,1,0,0,,,,,,,TOMATO,HB,z,y,./images/TOMATOHB.png,,,,,,,,0,-0.41113381,-0.349336057,1,0,0,1.26,button_left_test,0,89,89,84,1
,,,,,,,,,,,,,,,,,199123,19,2022-01-28_15h48.21.363,lexical_decision_task_DD_L5,2021.2.3,iPhone,29.41176471,,,,,,,,,,0.732,1,,,,,,,,,,,,,,,,,,,,,,,0.395812053,-0.320735444,1,0,0,,,,,,,PISTOL,C,m,y,./images/PISTOL.png,,,,,,,,0,0.395812053,-0.320735444,1,0,0,0.732,button_right_test,0,90,90,29,1
,,,,,,,,,,,,,,,,,199123,19,2022-01-28_15h48.21.363,lexical_decision_task_DD_L5,2021.2.3,iPhone,29.41176471,,,,,,,,,,2.104,1,,,,,,,,,,,,,,,,,,,,,,,-0.400919305,-0.346271706,1,0,0,,,,,,,CANDLE,LB,z,y,./images/CANDLELB.png,,,,,,,,0,-0.400919305,-0.346271706,1,0,0,2.104,button_left_test,0,91,91,145,1
,,,,,,,,,,,,,,,,,199123,19,2022-01-28_15h48.21.363,lexical_decision_task_DD_L5,2021.2.3,iPhone,29.41176471,,,,,,,,,,0.726,1,,,,,,,,,,,,,,,,,,,,,,,0.374361593,-0.339121553,1,0,0,,,,,,,LLAMA,C,m,y,./images/LLAMA.png,,,,,,,,0,0.374361593,-0.339121553,1,0,0,0.726,button_right_test,0,92,92,35,1
,,,,,,,,,,,,,,,,,199123,19,2022-01-28_15h48.21.363,lexical_decision_task_DD_L5,2021.2.3,iPhone,29.41176471,,,,,,,,,,0.867,1,,,,,,,,,,,,,,,,,,,,,,,-0.398876404,-0.33299285,1,0,0,,,,,,,TRIPOD,HB,z,y,./images/TRIPODHB.png,,,,,,,,0,-0.398876404,-0.33299285,1,0,0,0.867,button_left_test,0,93,93,138,1
,,,,,,,,,,,,,,,,,199123,19,2022-01-28_15h48.21.363,lexical_decision_task_DD_L5,2021.2.3,iPhone,29.41176471,,,,,,,,,,0.995,0,,,,,,,,,,,,,,,,,,,,,,,-0.423391216,-0.363636364,1,0,0,,,,,,,POSTER,C,m,y,./images/POSTER.png,,,,,,,,0,-0.423391216,-0.363636364,1,0,0,0.995,button_left_test,0,94,94,53,1
,,,,,,,,,,,,,,,,,199123,19,2022-01-28_15h48.21.363,lexical_decision_task_DD_L5,2021.2.3,iPhone,29.41176471,,,,,,,,,,0.839,0,,,,,,,,,,,,,,,,,,,,,,,-0.420326864,-0.351378958,1,0,0,,,,,,,PARADE,C,m,y,./images/PARADE.png,,,,,,,,0,-0.420326864,-0.351378958,1,0,0,0.839,button_left_test,0,95,95,17,1
,,,,,,,,,,,,,,,,,199123,19,2022-01-28_15h48.21.363,lexical_decision_task_DD_L5,2021.2.3,iPhone,29.41176471,,,,,,,,,,0.761,1,,,,,,,,,,,,,,,,,,,,,,,-0.408069459,-0.362614913,1,0,0,,,,,,,NOOSE,HB,z,y,./images/NOOSEHB.png,,,,,,,,0,-0.408069459,-0.362614913,1,0,0,0.761,button_left_test,0,96,96,156,1
,,,,,,,,,,,,,,,,,199123,19,2022-01-28_15h48.21.363,lexical_decision_task_DD_L5,2021.2.3,iPhone,29.41176471,,,,,,,,,,1.314,0,,,,,,,,,,,,,,,,,,,,,,,-0.318181818,-0.235955056,1,0,0,,,,,,,STREAM,C,m,y,./images/STREAM.png,,,,,,,,0,-0.318181818,-0.235955056,1,0,0,1.314,button_left_test,0,97,97,41,1
,,,,,,,,,,,,,,,,,199123,19,2022-01-28_15h48.21.363,lexical_decision_task_DD_L5,2021.2.3,iPhone,29.41176471,,,,,,,,,,0.793,1,,,,,,,,,,,,,,,,,,,,,,,0.417262513,-0.299284985,1,0,0,,,,,,,HOCKEY,C,m,y,./images/HOCKEY.png,,,,,,,,0,0.417262513,-0.299284985,1,0,0,0.793,button_right_test,0,98,98,32,1
,,,,,,,,,,,,,,,,,199123,19,2022-01-28_15h48.21.363,lexical_decision_task_DD_L5,2021.2.3,iPhone,29.41176471,,,,,,,,,,0.829,1,,,,,,,,,,,,,,,,,,,,,,,-0.355975485,-0.322778345,1,0,0,,,,,,,ATTIC,HB,z,y,./images/ATTICHB.png,,,,,,,,0,-0.355975485,-0.322778345,1,0,0,0.829,button_left_test,0,99,99,111,1
,,,,,,,,,,,,,,,,,199123,19,2022-01-28_15h48.21.363,lexical_decision_task_DD_L5,2021.2.3,iPhone,29.41176471,,,,,,,,,,1.035,1,,,,,,,,,,,,,,,,,,,,,,,-0.375383044,-0.358529111,1,0,0,,,,,,,STORM,HB,z,y,./images/STORMHB.png,,,,,,,,0,-0.375383044,-0.358529111,1,0,0,1.035,button_left_test,0,100,100,114,1
,,,,,,,,,,,,,,,,,199123,19,2022-01-28_15h48.21.363,lexical_decision_task_DD_L5,2021.2.3,iPhone,29.41176471,,,,,,,,,,1.064,1,,,,,,,,,,,,,,,,,,,,,,,-0.361082737,-0.31154239,1,0,0,,,,,,,GREASE,HB,z,y,./images/GREASEHB.png,,,,,,,,0,-0.361082737,-0.31154239,1,0,0,1.064,button_left_test,0,101,101,99,1
,,,,,,,,,,,,,,,,,199123,19,2022-01-28_15h48.21.363,lexical_decision_task_DD_L5,2021.2.3,iPhone,29.41176471,,,,,,,,,,0.995,1,,,,,,,,,,,,,,,,,,,,,,,-0.365168539,-0.354443309,1,0,0,,,,,,,COUCH,C,z,y,./images/COUCH.png,,,,,,,,0,-0.365168539,-0.354443309,1,0,0,0.995,button_left_test,0,102,102,161,1
,,,,,,,,,,,,,,,,,199123,19,2022-01-28_15h48.21.363,lexical_decision_task_DD_L5,2021.2.3,iPhone,29.41176471,,,,,,,,,,3.097,1,,,,,,,,,,,,,,,,,,,,,,,-0.361082737,-0.347293156,1,0,0,,,,,,,LADDER,C,z,y,./images/LADDER.png,,,,,,,,0,-0.361082737,-0.347293156,1,0,0,3.097,button_left_test,0,103,103,122,1
,,,,,,,,,,,,,,,,,199123,19,2022-01-28_15h48.21.363,lexical_decision_task_DD_L5,2021.2.3,iPhone,29.41176471,,,,,,,,,,0.968,1,,,,,,,,,,,,,,,,,,,,,,,0.373340143,-0.248212462,1,0,0,,,,,,,BANANA,LB,m,y,./images/BANANALB.png,,,,,,,,0,0.373340143,-0.248212462,1,0,0,0.968,button_right_test,0,104,104,70,1
,,,,,,,,,,,,,,,,,199123,19,2022-01-28_15h48.21.363,lexical_decision_task_DD_L5,2021.2.3,iPhone,29.41176471,,,,,,,,,,0.893,1,,,,,,,,,,,,,,,,,,,,,,,-0.342696629,-0.350357508,1,0,0,,,,,,,BEARD,C,z,y,./images/BEARD.png,,,,,,,,0,-0.342696629,-0.350357508,1,0,0,0.893,button_left_test,0,105,105,86,1
,,,,,,,,,,,,,,,,,199123,19,2022-01-28_15h48.21.363,lexical_decision_task_DD_L5,2021.2.3,iPhone,29.41176471,,,,,,,,,,0.701,1,,,,,,,,,,,,,,,,,,,,,,,-0.353932584,-0.361593463,1,0,0,,,,,,,MELON,LB,z,y,./images/MELONLB.png,,,,,,,,0,-0.353932584,-0.361593463,1,0,0,0.701,button_left_test,0,106,106,106,1
,,,,,,,,,,,,,,,,,199123,19,2022-01-28_15h48.21.363,lexical_decision_task_DD_L5,2021.2.3,iPhone,29.41176471,,,,,,,,,,0.927,1,,,,,,,,,,,,,,,,,,,,,,,-0.359039837,-0.328907048,1,0,0,,,,,,,WEASEL,C,z,y,./images/WEASEL.png,,,,,,,,0,-0.359039837,-0.328907048,1,0,0,0.927,button_left_test,0,107,107,164,1
,,,,,,,,,,,,,,,,,199123,19,2022-01-28_15h48.21.363,lexical_decision_task_DD_L5,2021.2.3,iPhone,29.41176471,,,,,,,,,,2.134,1,,,,,,,,,,,,,,,,,,,,,,,-0.365168539,-0.338100102,1,0,0,,,,,,,JUNGLE,C,z,y,./images/JUNGLE.png,,,,,,,,0,-0.365168539,-0.338100102,1,0,0,2.134,button_left_test,0,108,108,167,1
,,,,,,,,,,,,,,,,,199123,19,2022-01-28_15h48.21.363,lexical_decision_task_DD_L5,2021.2.3,iPhone,29.41176471,,,,,,,,,,0.901,1,,,,,,,,,,,,,,,,,,,,,,,-0.363125638,-0.343207354,1,0,0,,,,,,,BIRTH,LB,z,y,./images/BIRTHLB.png,,,,,,,,0,-0.363125638,-0.343207354,1,0,0,0.901,button_left_test,0,109,109,121,1
,,,,,,,,,,,,,,,,,199123,19,2022-01-28_15h48.21.363,lexical_decision_task_DD_L5,2021.2.3,iPhone,29.41176471,,,,,,,,,,0.868,1,,,,,,,,,,,,,,,,,,,,,,,0.336567926,-0.370786517,1,0,0,,,,,,,BOXER,LB,m,y,./images/BOXERLB.png,,,,,,,,0,0.336567926,-0.370786517,1,0,0,0.868,button_right_test,0,110,110,4,1
,,,,,,,,,,,,,,,,,199123,19,2022-01-28_15h48.21.363,lexical_decision_task_DD_L5,2021.2.3,iPhone,29.41176471,,,,,,,,,,1.128,1,,,,,,,,,,,,,,,,,,,,,,,-0.360061287,-0.346271706,1,0,0,,,,,,,PICKLE,C,z,y,./images/PICKLE.png,,,,,,,,0,-0.360061287,-0.346271706,1,0,0,1.128,button_left_test,0,111,111,98,1
,,,,,,,,,,,,,,,,,199123,19,2022-01-28_15h48.21.363,lexical_decision_task_DD_L5,2021.2.3,iPhone,29.41176471,,,,,,,,,,0.895,1,,,,,,,,,,,,,,,,,,,,,,,-0.359039837,-0.344228805,1,0,0,,,,,,,KITTEN,HB,z,y,./images/KITTENHB.png,,,,,,,,0,-0.359039837,-0.344228805,1,0,0,0.895,button_left_test,0,112,112,129,1
,,,,,,,,,,,,,,,,,199123,19,2022-01-28_15h48.21.363,lexical_decision_task_DD_L5,2021.2.3,iPhone,29.41176471,,,,,,,,,,0.862,1,,,,,,,,,,,,,,,,,,,,,,,0.332482125,-0.319713994,1,0,0,,,,,,,TIGER,LB,m,y,./images/TIGERLB.png,,,,,,,,0,0.332482125,-0.319713994,1,0,0,0.862,button_right_test,0,113,113,37,1
,,,,,,,,,,,,,,,,,199123,19,2022-01-28_15h48.21.363,lexical_decision_task_DD_L5,2021.2.3,iPhone,29.41176471,,,,,,,,,,0.769,1,,,,,,,,,,,,,,,,,,,,,,,0.340653728,-0.302349336,1,0,0,,,,,,,BUBBLE,C,m,y,./images/BUBBLE.png,,,,,,,,0,0.340653728,-0.302349336,1,0,0,0.769,button_right_test,0,114,114,71,1
,,,,,,,,,,,,,,,,,199123,19,2022-01-28_15h48.21.363,lexical_decision_task_DD_L5,2021.2.3,iPhone,29.41176471,,,,,,,,,,0.634,1,,,,,,,,,,,,,,,,,,,,,,,0.331460674,-0.304392237,1,0,0,,,,,,,LAGOON,C,m,y,./images/LAGOON.png,,,,,,,,0,0.331460674,-0.304392237,1,0,0,0.634,button_right_test,0,115,115,47,1
,,,,,,,,,,,,,,,,,199123,19,2022-01-28_15h48.21.363,lexical_decision_task_DD_L5,2021.2.3,iPhone,29.41176471,,,,,,,,,,2.201,1,,,,,,,,,,,,,,,,,,,,,,,-0.352911134,-0.345250255,1,0,0,,,,,,,MUSCLE,LB,z,y,./images/MUSCLELB.png,,,,,,,,0,-0.352911134,-0.345250255,1,0,0,2.201,button_left_test,0,116,116,88,1
,,,,,,,,,,,,,,,,,199123,19,2022-01-28_15h48.21.363,lexical_decision_task_DD_L5,2021.2.3,iPhone,29.41176471,,,,,,,,,,0.738,1,,,,,,,,,,,,,,,,,,,,,,,-0.359039837,-0.346271706,1,0,0,,,,,,,SAILOR,LB,z,y,./images/SAILORLB.png,,,,,,,,0,-0.359039837,-0.346271706,1,0,0,0.738,button_left_test,0,117,117,151,1
,,,,,,,,,,,,,,,,,199123,19,2022-01-28_15h48.21.363,lexical_decision_task_DD_L5,2021.2.3,iPhone,29.41176471,,,,,,,,,,3.127,1,,,,,,,,,,,,,,,,,,,,,,,-0.364147089,-0.348314607,1,0,0,,,,,,,THROAT,HB,z,y,./images/THROATHB.png,,,,,,,,0,-0.364147089,-0.348314607,1,0,0,3.127,button_left_test,0,118,118,120,1
,,,,,,,,,,,,,,,,,199123,19,2022-01-28_15h48.21.363,lexical_decision_task_DD_L5,2021.2.3,iPhone,29.41176471,,,,,,,,,,0.695,1,,,,,,,,,,,,,,,,,,,,,,,0.324310521,-0.309499489,1,0,0,,,,,,,HEATER,C,m,y,./images/HEATER.png,,,,,,,,0,0.324310521,-0.309499489,1,0,0,0.695,button_right_test,0,119,119,56,1
,,,,,,,,,,,,,,,,,199123,19,2022-01-28_15h48.21.363,lexical_decision_task_DD_L5,2021.2.3,iPhone,29.41176471,,,,,,,,,,0.761,1,,,,,,,,,,,,,,,,,,,,,,,0.324310521,-0.307456588,1,0,0,,,,,,,BOILER,HB,m,y,./images/BOILERHB.png,,,,,,,,0,0.324310521,-0.307456588,1,0,0,0.761,button_right_test,0,120,120,36,1
,,,,,,,,,,,,,,,,,199123,19,2022-01-28_15h48.21.363,lexical_decision_task_DD_L5,2021.2.3,iPhone,29.41176471,,,,,,,,,,1.093,1,,,,,,,,,,,,,,,,,,,,,,,-0.36721144,-0.351378958,1,0,0,,,,,,,CARPET,C,z,y,./images/CARPET.png,,,,,,,,0,-0.36721144,-0.351378958,1,0,0,1.093,button_left_test,0,121,121,137,1
,,,,,,,,,,,,,,,,,199123,19,2022-01-28_15h48.21.363,lexical_decision_task_DD_L5,2021.2.3,iPhone,29.41176471,,,,,,,,,,0.767,1,,,,,,,,,,,,,,,,,,,,,,,-0.371297242,-0.343207354,1,0,0,,,,,,,CANYON,LB,z,y,./images/CANYONLB.png,,,,,,,,0,-0.371297242,-0.343207354,1,0,0,0.767,button_left_test,0,122,122,118,1
,,,,,,,,,,,,,,,,,199123,19,2022-01-28_15h48.21.363,lexical_decision_task_DD_L5,2021.2.3,iPhone,29.41176471,,,,,,,,,,0.735,1,,,,,,,,,,,,,,,,,,,,,,,0.378447395,-0.231869254,1,0,0,,,,,,,CASINO,LB,m,y,./images/CASINOLB.png,,,,,,,,0,0.378447395,-0.231869254,1,0,0,0.735,button_right_test,0,123,123,28,1
,,,,,,,,,,,,,,,,,199123,19,2022-01-28_15h48.21.363,lexical_decision_task_DD_L5,2021.2.3,iPhone,29.41176471,,,,,,,,,,1.228,0,,,,,,,,,,,,,,,,,,,,,,,0.34371808,-0.280898876,1,0,0,,,,,,,SNACK,LB,z,y,./images/SNACKLB.png,,,,,,,,0,0.34371808,-0.280898876,1,0,0,1.228,button_right_test,0,124,124,157,1
,,,,,,,,,,,,,,,,,199123,19,2022-01-28_15h48.21.363,lexical_decision_task_DD_L5,2021.2.3,iPhone,29.41176471,,,,,,,,,,0.694,1,,,,,,,,,,,,,,,,,,,,,,,0.140449438,-0.393258427,1,0,0,,,,,,,SLOPE,HB,m,y,./images/SLOPEHB.png,break_done_button,,,,,,,0,0.332482125,-0.287027579,1,0,0,0.694,button_right_test,0,125,125,30,1
,,,,,,,,,,,,,,,,,199123,19,2022-01-28_15h48.21.363,lexical_decision_task_DD_L5,2021.2.3,iPhone,29.41176471,,,,,,,,,,1.663,1,,,,,,,,,,,,,,,,,,,,,,,0.346782431,-0.275791624,1,0,0,,,,,,,MONKEY,HB,m,y,./images/MONKEYHB.png,,,,,,,,0,0.346782431,-0.275791624,1,0,0,1.663,button_right_test,0,126,126,45,1
,,,,,,,,,,,,,,,,,199123,19,2022-01-28_15h48.21.363,lexical_decision_task_DD_L5,2021.2.3,iPhone,29.41176471,,,,,,,,,,0.829,1,,,,,,,,,,,,,,,,,,,,,,,-0.36618999,-0.351378958,1,0,0,,,,,,,DOUGH,LB,z,y,./images/DOUGHLB.png,,,,,,,,0,-0.36618999,-0.351378958,1,0,0,0.829,button_left_test,0,127,127,103,1
,,,,,,,,,,,,,,,,,199123,19,2022-01-28_15h48.21.363,lexical_decision_task_DD_L5,2021.2.3,iPhone,29.41176471,,,,,,,,,,0.895,1,,,,,,,,,,,,,,,,,,,,,,,0.331460674,-0.309499489,1,0,0,,,,,,,BISHOP,LB,m,y,./images/BISHOPLB.png,,,,,,,,0,0.331460674,-0.309499489,1,0,0,0.895,button_right_test,0,128,128,49,1
,,,,,,,,,,,,,,,,,199123,19,2022-01-28_15h48.21.363,lexical_decision_task_DD_L5,2021.2.3,iPhone,29.41176471,,,,,,,,,,1.06,1,,,,,,,,,,,,,,,,,,,,,,,-0.362104188,-0.348314607,1,0,0,,,,,,,LITTER,HB,z,y,./images/LITTERHB.png,,,,,,,,0,-0.362104188,-0.348314607,1,0,0,1.06,button_left_test,0,129,129,162,1
,,,,,,,,,,,,,,,,,199123,19,2022-01-28_15h48.21.363,lexical_decision_task_DD_L5,2021.2.3,iPhone,29.41176471,,,,,,,,,,0.794,1,,,,,,,,,,,,,,,,,,,,,,,-0.363125638,-0.354443309,1,0,0,,,,,,,FINGER,HB,z,y,./images/FINGERHB.png,,,,,,,,0,-0.363125638,-0.354443309,1,0,0,0.794,button_left_test,0,130,130,87,1
,,,,,,,,,,,,,,,,,199123,19,2022-01-28_15h48.21.363,lexical_decision_task_DD_L5,2021.2.3,iPhone,29.41176471,,,,,,,,,,0.601,1,,,,,,,,,,,,,,,,,,,,,,,-0.362104188,-0.353421859,1,0,0,,,,,,,URINE,LB,z,y,./images/URINELB.png,,,,,,,,0,-0.362104188,-0.353421859,1,0,0,0.601,button_left_test,0,131,131,154,1
