key_resp.keys,instr_done_touch.x,instr_done_touch.y,instr_done_touch.leftButton,instr_done_touch.midButton,instr_done_touch.rightButton,instr_done_touch.clicked_name,instruction_pages.thisRepN,instruction_pages.thisTrialN,instruction_pages.thisN,instruction_pages.thisIndex,instruction_pages.ran,pageN,phase,instruct_text,has_image,instruct_image,participant,age,date,expName,psychopyVersion,OS,frameRate,key_resp.rt,response.keys,response.corr,response.rt,touch_resp.x,touch_resp.y,touch_resp.leftButton,touch_resp.midButton,touch_resp.rightButton,touch_resp.time,touch_resp.clicked_name,rt,corr,practrials.thisRepN,practrials.thisTrialN,practrials.thisN,practrials.thisIndex,practrials.ran,TrialID,Target,corrAns,end_of_practice_trials_pages.thisRepN,end_of_practice_trials_pages.thisTrialN,end_of_practice_trials_pages.thisN,end_of_practice_trials_pages.thisIndex,end_of_practice_trials_pages.ran,key_resp_2.keys,key_resp_2.corr,key_resp_2.rt,targ_click.x,targ_click.y,targ_click.leftButton,targ_click.midButton,targ_click.rightButton,targ_click.time,targ_click.clicked_name,break_done_touch.x,break_done_touch.y,break_done_touch.leftButton,break_done_touch.midButton,break_done_touch.rightButton,break_done_keyboard.keys,maintrials.thisRepN,maintrials.thisTrialN,maintrials.thisN,maintrials.thisIndex,maintrials.ran,string,blur,study,lex,stim_path,break_done_keyboard.rt,test_instructions.thisRepN,test_instructions.thisTrialN,test_instructions.thisN,test_instructions.thisIndex,test_instructions.ran,key_resp_3.keys,key_resp_3.corr,key_resp_3.rt,test_click.x,test_click.y,test_click.leftButton,test_click.midButton,test_click.rightButton,test_click.time,test_click.clicked_name,test_phase.thisRepN,test_phase.thisTrialN,test_phase.thisN,test_phase.thisIndex,test_phase.ran
,0.133599229,-0.384014649,1,0,0,instr_done_button,0,0,0,0,1,1,instructions,"INSTRUCTIONS
At the start of each trial, look at the plus sign  (+) in the center of the screen.  This tells you that a trial is about to begin and where to look. Second, the plus sign will disappear and a string of letters will appear. Your task is to determine if the string of letters is a word or not. If the item is a word press the M key (on keyboard)  or touch the word button (phone/tablet).  If the item is not a word,  press the  Z key (on keyboard)  or touch the nonword button (on phone/tablet). 
Press the space bar or touch  continue.",0,,199129,18,2022-01-28_17h12.01.675,lexical_decision_task_DD,2021.2.3,Win32,59.672992,,,,,,,,,,,,,,,,,,,,,,,,,,,,,,,,,,,,,,,,,,,,,,,,,,,,,,,,,,,,,,,,,,,,,,,,,
space,0.133599229,-0.384014649,0,0,0,,0,1,1,1,1,2,instructions,"If your device has a keyboard, press the 'Z' key for nonwords and the 'M' key for words.





Press the space bar or touch the button below to continue.",0,keyboard-example.gif,199129,18,2022-01-28_17h12.01.675,lexical_decision_task_DD,2021.2.3,Win32,59.672992,4.7531,,,,,,,,,,,,,,,,,,,,,,,,,,,,,,,,,,,,,,,,,,,,,,,,,,,,,,,,,,,,,,,,,,,,,,,,
space,0.410103059,-0.354769052,0,0,0,,0,2,2,2,1,3,instructions,"If you are using a touchscreen only device, use the buttons on the screen. Do not use the mouse.





Press the space bar or touch the button below to continue.",0,touchscreen-example.gif,199129,18,2022-01-28_17h12.01.675,lexical_decision_task_DD,2021.2.3,Win32,59.672992,5.0669,,,,,,,,,,,,,,,,,,,,,,,,,,,,,,,,,,,,,,,,,,,,,,,,,,,,,,,,,,,,,,,,,,,,,,,,
space,0.410103059,-0.354769052,0,0,0,,0,3,3,3,1,4,instructions,"It is very important that you respond as quickly and accurately as possible, as each letter string will only be on the screen for two seconds. If you do not respond within this time, the message 'Too slow!' will be displayed and the experiment will progress to the next letter string. The first 20 trials will be practice trials and you will receive feedback on your answers. 

Press the space bar or touch the button below to start the practice trials.",0,,199129,18,2022-01-28_17h12.01.675,lexical_decision_task_DD,2021.2.3,Win32,59.672992,8.2976,,,,,,,,,,,,,,,,,,,,,,,,,,,,,,,,,,,,,,,,,,,,,,,,,,,,,,,,,,,,,,,,,,,,,,,,
,,,,,,,,,,,,,,,,,199129,18,2022-01-28_17h12.01.675,lexical_decision_task_DD,2021.2.3,Win32,59.672992,,z,1,2.5261,,,,,,,,2.5261,1,0,0,0,15,1,1001,WHAISE,z,,,,,,,,,,,,,,,,,,,,,,,,,,,,,,,,,,,,,,,,,,,,,,,,,,,,
,,,,,,,,,,,,,,,,,199129,18,2022-01-28_17h12.01.675,lexical_decision_task_DD,2021.2.3,Win32,59.672992,,z,1,0.8182,,,,,,,,0.8182,1,0,1,1,10,1,1001,INLADE,z,,,,,,,,,,,,,,,,,,,,,,,,,,,,,,,,,,,,,,,,,,,,,,,,,,,,
,,,,,,,,,,,,,,,,,199129,18,2022-01-28_17h12.01.675,lexical_decision_task_DD,2021.2.3,Win32,59.672992,,m,1,0.8602,,,,,,,,0.8602,1,0,2,2,4,1,1001,SQUEAK,m,,,,,,,,,,,,,,,,,,,,,,,,,,,,,,,,,,,,,,,,,,,,,,,,,,,,
,,,,,,,,,,,,,,,,,199129,18,2022-01-28_17h12.01.675,lexical_decision_task_DD,2021.2.3,Win32,59.672992,,z,1,0.8968,,,,,,,,0.8968,1,0,3,3,14,1,1001,THRALE,z,,,,,,,,,,,,,,,,,,,,,,,,,,,,,,,,,,,,,,,,,,,,,,,,,,,,
,,,,,,,,,,,,,,,,,199129,18,2022-01-28_17h12.01.675,lexical_decision_task_DD,2021.2.3,Win32,59.672992,,z,1,0.7815,,,,,,,,0.7815,1,0,4,4,11,1,1001,RASHET,z,,,,,,,,,,,,,,,,,,,,,,,,,,,,,,,,,,,,,,,,,,,,,,,,,,,,
,,,,,,,,,,,,,,,,,199129,18,2022-01-28_17h12.01.675,lexical_decision_task_DD,2021.2.3,Win32,59.672992,,m,1,0.5318,,,,,,,,0.5318,1,0,5,5,0,1,1001,UTOPIA,m,,,,,,,,,,,,,,,,,,,,,,,,,,,,,,,,,,,,,,,,,,,,,,,,,,,,
,,,,,,,,,,,,,,,,,199129,18,2022-01-28_17h12.01.675,lexical_decision_task_DD,2021.2.3,Win32,59.672992,,z,1,0.508,,,,,,,,0.508,1,0,6,6,8,1,1001,ASLERT,z,,,,,,,,,,,,,,,,,,,,,,,,,,,,,,,,,,,,,,,,,,,,,,,,,,,,
,,,,,,,,,,,,,,,,,199129,18,2022-01-28_17h12.01.675,lexical_decision_task_DD,2021.2.3,Win32,59.672992,,m,1,0.4968,,,,,,,,0.4968,1,0,7,7,7,1,1001,VOLUME,m,,,,,,,,,,,,,,,,,,,,,,,,,,,,,,,,,,,,,,,,,,,,,,,,,,,,
,,,,,,,,,,,,,,,,,199129,18,2022-01-28_17h12.01.675,lexical_decision_task_DD,2021.2.3,Win32,59.672992,,m,1,0.596,,,,,,,,0.596,1,0,8,8,6,1,1001,ZOMBIE,m,,,,,,,,,,,,,,,,,,,,,,,,,,,,,,,,,,,,,,,,,,,,,,,,,,,,
,,,,,,,,,,,,,,,,,199129,18,2022-01-28_17h12.01.675,lexical_decision_task_DD,2021.2.3,Win32,59.672992,,m,1,0.5729,,,,,,,,0.5729,1,0,9,9,2,1,1001,ALMOND,m,,,,,,,,,,,,,,,,,,,,,,,,,,,,,,,,,,,,,,,,,,,,,,,,,,,,
,,,,,,,,,,,,,,,,,199129,18,2022-01-28_17h12.01.675,lexical_decision_task_DD,2021.2.3,Win32,59.672992,,z,1,0.8774,,,,,,,,0.8774,1,0,10,10,12,1,1001,SPRINY,z,,,,,,,,,,,,,,,,,,,,,,,,,,,,,,,,,,,,,,,,,,,,,,,,,,,,
,,,,,,,,,,,,,,,,,199129,18,2022-01-28_17h12.01.675,lexical_decision_task_DD,2021.2.3,Win32,59.672992,,z,1,0.599,,,,,,,,0.599,1,0,11,11,13,1,1001,ROUPET,z,,,,,,,,,,,,,,,,,,,,,,,,,,,,,,,,,,,,,,,,,,,,,,,,,,,,
,,,,,,,,,,,,,,,,,199129,18,2022-01-28_17h12.01.675,lexical_decision_task_DD,2021.2.3,Win32,59.672992,,m,1,0.5818,,,,,,,,0.5818,1,0,12,12,3,1,1001,MATRIX,m,,,,,,,,,,,,,,,,,,,,,,,,,,,,,,,,,,,,,,,,,,,,,,,,,,,,
,,,,,,,,,,,,,,,,,199129,18,2022-01-28_17h12.01.675,lexical_decision_task_DD,2021.2.3,Win32,59.672992,,z,1,0.6422,,,,,,,,0.6422,1,0,13,13,9,1,1001,FARINY,z,,,,,,,,,,,,,,,,,,,,,,,,,,,,,,,,,,,,,,,,,,,,,,,,,,,,
,,,,,,,,,,,,,,,,,199129,18,2022-01-28_17h12.01.675,lexical_decision_task_DD,2021.2.3,Win32,59.672992,,m,1,0.6443,,,,,,,,0.6443,1,0,14,14,1,1,1001,ADJUST,m,,,,,,,,,,,,,,,,,,,,,,,,,,,,,,,,,,,,,,,,,,,,,,,,,,,,
,,,,,,,,,,,,,,,,,199129,18,2022-01-28_17h12.01.675,lexical_decision_task_DD,2021.2.3,Win32,59.672992,,m,1,0.778,,,,,,,,0.778,1,0,15,15,5,1,1001,OBTAIN,m,,,,,,,,,,,,,,,,,,,,,,,,,,,,,,,,,,,,,,,,,,,,,,,,,,,,
space,0.410103059,-0.354769052,0,0,0,,,,,,,1,end_of_practice,"You have completed the practice trials. During the experimental trials, you will not receive feedback. 
Before you begin, please ensure that you are in a comfortable and quiet location and will not be disturbed for about 15 minutes, as we cannot use your data if you do not complete all the trials. 
 When you are ready to start the experimental trials, please press space or touch the button below.",,,199129,18,2022-01-28_17h12.01.675,lexical_decision_task_DD,2021.2.3,Win32,59.672992,7.5477,,,,,,,,,,,,,,,,,,,,,0,0,0,0,1,,,,,,,,,,,,,,,,,,,,,,,,,,,,,,,,,,,,,,,,,,,,,,,
,,,,,,,,,,,,,,,,,199129,18,2022-01-28_17h12.01.675,lexical_decision_task_DD,2021.2.3,Win32,59.672992,,,,,,,,,,,,1.5901,0,,,,,,,,,,,,,,m,0,1.5901,,,,,,,,0.410103059,-0.354769052,0,0,0,,0,0,0,121,1,CEERS,HB,old,z,./images/CEERSHB.png,,,,,,,,,,,,,,,,,,,,,
,,,,,,,,,,,,,,,,,199129,18,2022-01-28_17h12.01.675,lexical_decision_task_DD,2021.2.3,Win32,59.672992,,,,,,,,,,,,0.7791,1,,,,,,,,,,,,,,z,1,0.7791,,,,,,,,0.410103059,-0.354769052,0,0,0,,0,1,1,90,1,NEAST,C,old,z,./images/NEAST.png,,,,,,,,,,,,,,,,,,,,,
,,,,,,,,,,,,,,,,,199129,18,2022-01-28_17h12.01.675,lexical_decision_task_DD,2021.2.3,Win32,59.672992,,,,,,,,,,,,0.717,1,,,,,,,,,,,,,,z,1,0.717,,,,,,,,0.410103059,-0.354769052,0,0,0,,0,2,2,117,1,STEEG,C,old,z,./images/STEEG.png,,,,,,,,,,,,,,,,,,,,,
,,,,,,,,,,,,,,,,,199129,18,2022-01-28_17h12.01.675,lexical_decision_task_DD,2021.2.3,Win32,59.672992,,,,,,,,,,,,1.0861,1,,,,,,,,,,,,,,z,1,1.0861,,,,,,,,0.410103059,-0.354769052,0,0,0,,0,3,3,109,1,BURGE,HB,old,z,./images/BURGEHB.png,,,,,,,,,,,,,,,,,,,,,
,,,,,,,,,,,,,,,,,199129,18,2022-01-28_17h12.01.675,lexical_decision_task_DD,2021.2.3,Win32,59.672992,,,,,,,,,,,,0.9535,1,,,,,,,,,,,,,,m,1,0.9535,,,,,,,,0.410103059,-0.354769052,0,0,0,,0,4,4,19,1,DOUGH,HB,old,m,./images/DOUGHHB.png,,,,,,,,,,,,,,,,,,,,,
,,,,,,,,,,,,,,,,,199129,18,2022-01-28_17h12.01.675,lexical_decision_task_DD,2021.2.3,Win32,59.672992,,,,,,,,,,,,0.6664,1,,,,,,,,,,,,,,z,1,0.6664,,,,,,,,0.410103059,-0.354769052,0,0,0,,0,5,5,123,1,SEDGE,C,old,z,./images/SEDGE.png,,,,,,,,,,,,,,,,,,,,,
,,,,,,,,,,,,,,,,,199129,18,2022-01-28_17h12.01.675,lexical_decision_task_DD,2021.2.3,Win32,59.672992,,,,,,,,,,,,0.5545,1,,,,,,,,,,,,,,m,1,0.5545,,,,,,,,0.410103059,-0.354769052,0,0,0,,0,6,6,51,1,ONION,C,old,m,./images/ONION.png,,,,,,,,,,,,,,,,,,,,,
,,,,,,,,,,,,,,,,,199129,18,2022-01-28_17h12.01.675,lexical_decision_task_DD,2021.2.3,Win32,59.672992,,,,,,,,,,,,0.9014,1,,,,,,,,,,,,,,m,1,0.9014,,,,,,,,0.410103059,-0.354769052,0,0,0,,0,7,7,17,1,SKIING,LB,old,m,./images/SKIINGLB.png,,,,,,,,,,,,,,,,,,,,,
,,,,,,,,,,,,,,,,,199129,18,2022-01-28_17h12.01.675,lexical_decision_task_DD,2021.2.3,Win32,59.672992,,,,,,,,,,,,0.5279,1,,,,,,,,,,,,,,m,1,0.5279,,,,,,,,0.410103059,-0.354769052,0,0,0,,0,8,8,29,1,CRUMB,LB,old,m,./images/CRUMBLB.png,,,,,,,,,,,,,,,,,,,,,
,,,,,,,,,,,,,,,,,199129,18,2022-01-28_17h12.01.675,lexical_decision_task_DD,2021.2.3,Win32,59.672992,,,,,,,,,,,,1.0449,1,,,,,,,,,,,,,,m,1,1.0449,,,,,,,,0.410103059,-0.354769052,0,0,0,,0,9,9,61,1,CANDLE,HB,old,m,./images/CANDLEHB.png,,,,,,,,,,,,,,,,,,,,,
,,,,,,,,,,,,,,,,,199129,18,2022-01-28_17h12.01.675,lexical_decision_task_DD,2021.2.3,Win32,59.672992,,,,,,,,,,,,0.6917,1,,,,,,,,,,,,,,z,1,0.6917,,,,,,,,0.410103059,-0.354769052,0,0,0,,0,10,10,93,1,SMONE,C,old,z,./images/SMONE.png,,,,,,,,,,,,,,,,,,,,,
,,,,,,,,,,,,,,,,,199129,18,2022-01-28_17h12.01.675,lexical_decision_task_DD,2021.2.3,Win32,59.672992,,,,,,,,,,,,0.653,0,,,,,,,,,,,,,,m,0,0.653,,,,,,,,0.410103059,-0.354769052,0,0,0,,0,11,11,159,1,CUDDY,C,old,z,./images/CUDDY.png,,,,,,,,,,,,,,,,,,,,,
,,,,,,,,,,,,,,,,,199129,18,2022-01-28_17h12.01.675,lexical_decision_task_DD,2021.2.3,Win32,59.672992,,,,,,,,,,,,0.5875,1,,,,,,,,,,,,,,m,1,0.5875,,,,,,,,0.410103059,-0.354769052,0,0,0,,0,12,12,54,1,TRIPOD,C,old,m,./images/TRIPOD.png,,,,,,,,,,,,,,,,,,,,,
,,,,,,,,,,,,,,,,,199129,18,2022-01-28_17h12.01.675,lexical_decision_task_DD,2021.2.3,Win32,59.672992,,,,,,,,,,,,0.5849,1,,,,,,,,,,,,,,m,1,0.5849,,,,,,,,0.410103059,-0.354769052,0,0,0,,0,13,13,32,1,BARREL,LB,old,m,./images/BARRELLB.png,,,,,,,,,,,,,,,,,,,,,
,,,,,,,,,,,,,,,,,199129,18,2022-01-28_17h12.01.675,lexical_decision_task_DD,2021.2.3,Win32,59.672992,,,,,,,,,,,,0.6687,1,,,,,,,,,,,,,,m,1,0.6687,,,,,,,,0.410103059,-0.354769052,0,0,0,,0,14,14,73,1,SNACK,HB,old,m,./images/SNACKHB.png,,,,,,,,,,,,,,,,,,,,,
,,,,,,,,,,,,,,,,,199129,18,2022-01-28_17h12.01.675,lexical_decision_task_DD,2021.2.3,Win32,59.672992,,,,,,,,,,,,0.4857,1,,,,,,,,,,,,,,m,1,0.4857,,,,,,,,0.410103059,-0.354769052,0,0,0,,0,15,15,65,1,FARMER,LB,old,m,./images/FARMERLB.png,,,,,,,,,,,,,,,,,,,,,
,,,,,,,,,,,,,,,,,199129,18,2022-01-28_17h12.01.675,lexical_decision_task_DD,2021.2.3,Win32,59.672992,,,,,,,,,,,,0.5228,1,,,,,,,,,,,,,,m,1,0.5228,,,,,,,,0.410103059,-0.354769052,0,0,0,,0,16,16,69,1,COOKER,C,old,m,./images/COOKER.png,,,,,,,,,,,,,,,,,,,,,
,,,,,,,,,,,,,,,,,199129,18,2022-01-28_17h12.01.675,lexical_decision_task_DD,2021.2.3,Win32,59.672992,,,,,,,,,,,,0.5531,1,,,,,,,,,,,,,,m,1,0.5531,,,,,,,,0.410103059,-0.354769052,0,0,0,,0,17,17,81,1,POODLE,C,old,m,./images/POODLE.png,,,,,,,,,,,,,,,,,,,,,
,,,,,,,,,,,,,,,,,199129,18,2022-01-28_17h12.01.675,lexical_decision_task_DD,2021.2.3,Win32,59.672992,,,,,,,,,,,,0.9704,1,,,,,,,,,,,,,,m,1,0.9704,,,,,,,,0.410103059,-0.354769052,0,0,0,,0,18,18,52,1,BANNER,HB,old,m,./images/BANNERHB.png,,,,,,,,,,,,,,,,,,,,,
,,,,,,,,,,,,,,,,,199129,18,2022-01-28_17h12.01.675,lexical_decision_task_DD,2021.2.3,Win32,59.672992,,,,,,,,,,,,0.6528,1,,,,,,,,,,,,,,z,1,0.6528,,,,,,,,0.410103059,-0.354769052,0,0,0,,0,19,19,119,1,PAFER,LB,old,z,./images/PAFERLB.png,,,,,,,,,,,,,,,,,,,,,
,,,,,,,,,,,,,,,,,199129,18,2022-01-28_17h12.01.675,lexical_decision_task_DD,2021.2.3,Win32,59.672992,,,,,,,,,,,,0.5666,1,,,,,,,,,,,,,,m,1,0.5666,,,,,,,,0.410103059,-0.354769052,0,0,0,,0,20,20,47,1,BERRY,LB,old,m,./images/BERRYLB.png,,,,,,,,,,,,,,,,,,,,,
,,,,,,,,,,,,,,,,,199129,18,2022-01-28_17h12.01.675,lexical_decision_task_DD,2021.2.3,Win32,59.672992,,,,,,,,,,,,0.8212,1,,,,,,,,,,,,,,z,1,0.8212,,,,,,,,0.410103059,-0.354769052,0,0,0,,0,21,21,105,1,MOKER,C,old,z,./images/MOKER.png,,,,,,,,,,,,,,,,,,,,,
,,,,,,,,,,,,,,,,,199129,18,2022-01-28_17h12.01.675,lexical_decision_task_DD,2021.2.3,Win32,59.672992,,,,,,,,,,,,0.8053,1,,,,,,,,,,,,,,z,1,0.8053,,,,,,,,0.410103059,-0.354769052,0,0,0,,0,22,22,113,1,LINEW,LB,old,z,./images/LINEWLB.png,,,,,,,,,,,,,,,,,,,,,
,,,,,,,,,,,,,,,,,199129,18,2022-01-28_17h12.01.675,lexical_decision_task_DD,2021.2.3,Win32,59.672992,,,,,,,,,,,,0.9837,1,,,,,,,,,,,,,,z,1,0.9837,,,,,,,,0.410103059,-0.354769052,0,0,0,,0,23,23,127,1,NINDY,HB,old,z,./images/NINDYHB.png,,,,,,,,,,,,,,,,,,,,,
,,,,,,,,,,,,,,,,,199129,18,2022-01-28_17h12.01.675,lexical_decision_task_DD,2021.2.3,Win32,59.672992,,,,,,,,,,,,0.569,1,,,,,,,,,,,,,,z,1,0.569,,,,,,,,0.410103059,-0.354769052,0,0,0,,0,24,24,145,1,LAMEL,HB,old,z,./images/LAMELHB.png,,,,,,,,,,,,,,,,,,,,,
,,,,,,,,,,,,,,,,,199129,18,2022-01-28_17h12.01.675,lexical_decision_task_DD,2021.2.3,Win32,59.672992,,,,,,,,,,,,0.8354,1,,,,,,,,,,,,,,m,1,0.8354,,,,,,,,0.410103059,-0.354769052,0,0,0,,0,25,25,49,1,DRUMS,HB,old,m,./images/DRUMSHB.png,,,,,,,,,,,,,,,,,,,,,
,,,,,,,,,,,,,,,,,199129,18,2022-01-28_17h12.01.675,lexical_decision_task_DD,2021.2.3,Win32,59.672992,,,,,,,,,,,,0.5516,1,,,,,,,,,,,,,,m,1,0.5516,,,,,,,,0.410103059,-0.354769052,0,0,0,,0,26,26,45,1,KITTEN,C,old,m,./images/KITTEN.png,,,,,,,,,,,,,,,,,,,,,
,,,,,,,,,,,,,,,,,199129,18,2022-01-28_17h12.01.675,lexical_decision_task_DD,2021.2.3,Win32,59.672992,,,,,,,,,,,,0.5411,1,,,,,,,,,,,,,,m,1,0.5411,,,,,,,,0.410103059,-0.354769052,0,0,0,,0,27,27,74,1,CEMENT,LB,old,m,./images/CEMENTLB.png,,,,,,,,,,,,,,,,,,,,,
,,,,,,,,,,,,,,,,,199129,18,2022-01-28_17h12.01.675,lexical_decision_task_DD,2021.2.3,Win32,59.672992,,,,,,,,,,,,0.7047,0,,,,,,,,,,,,,,z,0,0.7047,,,,,,,,0.410103059,-0.354769052,0,0,0,,0,28,28,82,1,SUNSET,HB,old,m,./images/SUNSETHB.png,,,,,,,,,,,,,,,,,,,,,
,,,,,,,,,,,,,,,,,199129,18,2022-01-28_17h12.01.675,lexical_decision_task_DD,2021.2.3,Win32,59.672992,,,,,,,,,,,,0.6526,1,,,,,,,,,,,,,,z,1,0.6526,,,,,,,,0.410103059,-0.354769052,0,0,0,,0,29,29,104,1,GITTY,LB,old,z,./images/GITTYLB.png,,,,,,,,,,,,,,,,,,,,,
,,,,,,,,,,,,,,,,,199129,18,2022-01-28_17h12.01.675,lexical_decision_task_DD,2021.2.3,Win32,59.672992,,,,,,,,,,,,1.0002,1,,,,,,,,,,,,,,z,1,1.0002,,,,,,,,0.410103059,-0.354769052,0,0,0,,0,30,30,118,1,BAVEL,HB,old,z,./images/BAVELHB.png,,,,,,,,,,,,,,,,,,,,,
,,,,,,,,,,,,,,,,,199129,18,2022-01-28_17h12.01.675,lexical_decision_task_DD,2021.2.3,Win32,59.672992,,,,,,,,,,,,0.6173,1,,,,,,,,,,,,,,z,1,0.6173,,,,,,,,0.410103059,-0.354769052,0,0,0,,0,31,31,134,1,TROSS,LB,old,z,./images/TROSSLB.png,,,,,,,,,,,,,,,,,,,,,
,,,,,,,,,,,,,,,,,199129,18,2022-01-28_17h12.01.675,lexical_decision_task_DD,2021.2.3,Win32,59.672992,,,,,,,,,,,,0.8361,1,,,,,,,,,,,,,,z,1,0.8361,,,,,,,,0.410103059,-0.354769052,0,0,0,,0,32,32,129,1,PRANS,C,old,z,./images/PRANS.png,,,,,,,,,,,,,,,,,,,,,
,,,,,,,,,,,,,,,,,199129,18,2022-01-28_17h12.01.675,lexical_decision_task_DD,2021.2.3,Win32,59.672992,,,,,,,,,,,,0.6831,1,,,,,,,,,,,,,,z,1,0.6831,,,,,,,,0.410103059,-0.354769052,0,0,0,,0,33,33,97,1,CHIDS,HB,old,z,./images/CHIDSHB.png,,,,,,,,,,,,,,,,,,,,,
,,,,,,,,,,,,,,,,,199129,18,2022-01-28_17h12.01.675,lexical_decision_task_DD,2021.2.3,Win32,59.672992,,,,,,,,,,,,0.7202,1,,,,,,,,,,,,,,z,1,0.7202,,,,,,,,0.410103059,-0.354769052,0,0,0,,0,34,34,98,1,BAMPS,LB,old,z,./images/BAMPSLB.png,,,,,,,,,,,,,,,,,,,,,
,,,,,,,,,,,,,,,,,199129,18,2022-01-28_17h12.01.675,lexical_decision_task_DD,2021.2.3,Win32,59.672992,,,,,,,,,,,,0.5546,1,,,,,,,,,,,,,,m,1,0.5546,,,,,,,,0.410103059,-0.354769052,0,0,0,,0,35,35,66,1,SWEAT,C,old,m,./images/SWEAT.png,,,,,,,,,,,,,,,,,,,,,
,,,,,,,,,,,,,,,,,199129,18,2022-01-28_17h12.01.675,lexical_decision_task_DD,2021.2.3,Win32,59.672992,,,,,,,,,,,,0.5042,0,,,,,,,,,,,,,,m,0,0.5042,,,,,,,,0.410103059,-0.354769052,0,0,0,,0,36,36,140,1,DOVET,LB,old,z,./images/DOVETLB.png,,,,,,,,,,,,,,,,,,,,,
,,,,,,,,,,,,,,,,,199129,18,2022-01-28_17h12.01.675,lexical_decision_task_DD,2021.2.3,Win32,59.672992,,,,,,,,,,,,0.756,1,,,,,,,,,,,,,,m,1,0.756,,,,,,,,0.410103059,-0.354769052,0,0,0,,0,37,37,31,1,QUILL,HB,old,m,./images/QUILLHB.png,,,,,,,,,,,,,,,,,,,,,
,,,,,,,,,,,,,,,,,199129,18,2022-01-28_17h12.01.675,lexical_decision_task_DD,2021.2.3,Win32,59.672992,,,,,,,,,,,,1.0501,1,,,,,,,,,,,,,,m,1,1.0501,,,,,,,,0.410103059,-0.354769052,0,0,0,,0,38,38,7,1,PAINT,HB,old,m,./images/PAINTHB.png,,,,,,,,,,,,,,,,,,,,,
,,,,,,,,,,,,,,,,,199129,18,2022-01-28_17h12.01.675,lexical_decision_task_DD,2021.2.3,Win32,59.672992,,,,,,,,,,,,0.7748,1,,,,,,,,,,,,,,z,1,0.7748,,,,,,,,0.410103059,-0.354769052,0,0,0,,0,39,39,124,1,TUNCH,HB,old,z,./images/TUNCHHB.png,,,,,,,,,,,,,,,,,,,,,
,,,,,,,,,,,,,,,,,199129,18,2022-01-28_17h12.01.675,lexical_decision_task_DD,2021.2.3,Win32,59.672992,,,,,,,,,,,,1.05,0,,,,,,,,,,,,,,z,0,1.05,,,,,,,,0.410103059,-0.354769052,0,0,0,,0,40,40,16,1,PENCE,HB,old,m,./images/PENCEHB.png,,,,,,,,,,,,,,,,,,,,,
,,,,,,,,,,,,,,,,,199129,18,2022-01-28_17h12.01.675,lexical_decision_task_DD,2021.2.3,Win32,59.672992,,,,,,,,,,,,0.6096,1,,,,,,,,,,,,,,z,1,0.6096,,,,,,,,0.410103059,-0.354769052,0,0,0,space,0,41,41,141,1,PLEET,C,old,z,./images/PLEET.png,1.8993,,,,,,,,,,,,,,,,,,,,
,,,,,,,,,,,,,,,,,199129,18,2022-01-28_17h12.01.675,lexical_decision_task_DD,2021.2.3,Win32,59.672992,,,,,,,,,,,,1.2358,1,,,,,,,,,,,,,,z,1,1.2358,,,,,,,,0.410103059,-0.354769052,0,0,0,,0,42,42,166,1,SHORY,HB,old,z,./images/SHORYHB.png,,,,,,,,,,,,,,,,,,,,,
,,,,,,,,,,,,,,,,,199129,18,2022-01-28_17h12.01.675,lexical_decision_task_DD,2021.2.3,Win32,59.672992,,,,,,,,,,,,0.7531,1,,,,,,,,,,,,,,z,1,0.7531,,,,,,,,0.410103059,-0.354769052,0,0,0,,0,43,43,126,1,GUELS,C,old,z,./images/GUELS.png,,,,,,,,,,,,,,,,,,,,,
,,,,,,,,,,,,,,,,,199129,18,2022-01-28_17h12.01.675,lexical_decision_task_DD,2021.2.3,Win32,59.672992,,,,,,,,,,,,0.9214,1,,,,,,,,,,,,,,z,1,0.9214,,,,,,,,0.410103059,-0.354769052,0,0,0,,0,44,44,84,1,HAXES,C,old,z,./images/HAXES.png,,,,,,,,,,,,,,,,,,,,,
,,,,,,,,,,,,,,,,,199129,18,2022-01-28_17h12.01.675,lexical_decision_task_DD,2021.2.3,Win32,59.672992,,,,,,,,,,,,1.0215,1,,,,,,,,,,,,,,z,1,1.0215,,,,,,,,0.410103059,-0.354769052,0,0,0,,0,45,45,154,1,THINT,HB,old,z,./images/THINTHB.png,,,,,,,,,,,,,,,,,,,,,
,,,,,,,,,,,,,,,,,199129,18,2022-01-28_17h12.01.675,lexical_decision_task_DD,2021.2.3,Win32,59.672992,,,,,,,,,,,,0.6582,1,,,,,,,,,,,,,,m,1,0.6582,,,,,,,,0.410103059,-0.354769052,0,0,0,,0,46,46,36,1,THROAT,C,old,m,./images/THROAT.png,,,,,,,,,,,,,,,,,,,,,
,,,,,,,,,,,,,,,,,199129,18,2022-01-28_17h12.01.675,lexical_decision_task_DD,2021.2.3,Win32,59.672992,,,,,,,,,,,,0.974,1,,,,,,,,,,,,,,z,1,0.974,,,,,,,,0.410103059,-0.354769052,0,0,0,,0,47,47,85,1,CHULK,HB,old,z,./images/CHULKHB.png,,,,,,,,,,,,,,,,,,,,,
,,,,,,,,,,,,,,,,,199129,18,2022-01-28_17h12.01.675,lexical_decision_task_DD,2021.2.3,Win32,59.672992,,,,,,,,,,,,1.0359,1,,,,,,,,,,,,,,m,1,1.0359,,,,,,,,0.410103059,-0.354769052,0,0,0,,0,48,48,15,1,GREASE,C,old,m,./images/GREASE.png,,,,,,,,,,,,,,,,,,,,,
,,,,,,,,,,,,,,,,,199129,18,2022-01-28_17h12.01.675,lexical_decision_task_DD,2021.2.3,Win32,59.672992,,,,,,,,,,,,1.3092,1,,,,,,,,,,,,,,z,1,1.3092,,,,,,,,0.410103059,-0.354769052,0,0,0,,0,49,49,157,1,INLER,HB,old,z,./images/INLERHB.png,,,,,,,,,,,,,,,,,,,,,
,,,,,,,,,,,,,,,,,199129,18,2022-01-28_17h12.01.675,lexical_decision_task_DD,2021.2.3,Win32,59.672992,,,,,,,,,,,,1.0115,1,,,,,,,,,,,,,,m,1,1.0115,,,,,,,,0.410103059,-0.354769052,0,0,0,,0,50,50,2,1,BEARD,LB,old,m,./images/BEARDLB.png,,,,,,,,,,,,,,,,,,,,,
,,,,,,,,,,,,,,,,,199129,18,2022-01-28_17h12.01.675,lexical_decision_task_DD,2021.2.3,Win32,59.672992,,,,,,,,,,,,0.6501,1,,,,,,,,,,,,,,z,1,0.6501,,,,,,,,0.410103059,-0.354769052,0,0,0,,0,51,51,132,1,SCIFF,C,old,z,./images/SCIFF.png,,,,,,,,,,,,,,,,,,,,,
,,,,,,,,,,,,,,,,,199129,18,2022-01-28_17h12.01.675,lexical_decision_task_DD,2021.2.3,Win32,59.672992,,,,,,,,,,,,0.8336,1,,,,,,,,,,,,,,m,1,0.8336,,,,,,,,0.410103059,-0.354769052,0,0,0,,0,52,52,50,1,MALLET,LB,old,m,./images/MALLETLB.png,,,,,,,,,,,,,,,,,,,,,
,,,,,,,,,,,,,,,,,199129,18,2022-01-28_17h12.01.675,lexical_decision_task_DD,2021.2.3,Win32,59.672992,,,,,,,,,,,,1.0502,1,,,,,,,,,,,,,,z,1,1.0502,,,,,,,,0.410103059,-0.354769052,0,0,0,,0,53,53,151,1,TINKY,HB,old,z,./images/TINKYHB.png,,,,,,,,,,,,,,,,,,,,,
,,,,,,,,,,,,,,,,,199129,18,2022-01-28_17h12.01.675,lexical_decision_task_DD,2021.2.3,Win32,59.672992,,,,,,,,,,,,0.6209,1,,,,,,,,,,,,,,m,1,0.6209,,,,,,,,0.410103059,-0.354769052,0,0,0,,0,54,54,56,1,PACKET,LB,old,m,./images/PACKETLB.png,,,,,,,,,,,,,,,,,,,,,
,,,,,,,,,,,,,,,,,199129,18,2022-01-28_17h12.01.675,lexical_decision_task_DD,2021.2.3,Win32,59.672992,,,,,,,,,,,,1.2093,1,,,,,,,,,,,,,,z,1,1.2093,,,,,,,,0.410103059,-0.354769052,0,0,0,,0,55,55,88,1,GLUSH,HB,old,z,./images/GLUSHHB.png,,,,,,,,,,,,,,,,,,,,,
,,,,,,,,,,,,,,,,,199129,18,2022-01-28_17h12.01.675,lexical_decision_task_DD,2021.2.3,Win32,59.672992,,,,,,,,,,,,0.6194,1,,,,,,,,,,,,,,z,1,0.6194,,,,,,,,0.410103059,-0.354769052,0,0,0,,0,56,56,156,1,HIXES,C,old,z,./images/HIXES.png,,,,,,,,,,,,,,,,,,,,,
,,,,,,,,,,,,,,,,,199129,18,2022-01-28_17h12.01.675,lexical_decision_task_DD,2021.2.3,Win32,59.672992,,,,,,,,,,,,1.1396,1,,,,,,,,,,,,,,m,1,1.1396,,,,,,,,0.410103059,-0.354769052,0,0,0,,0,57,57,13,1,MOTOR,HB,old,m,./images/MOTORHB.png,,,,,,,,,,,,,,,,,,,,,
,,,,,,,,,,,,,,,,,199129,18,2022-01-28_17h12.01.675,lexical_decision_task_DD,2021.2.3,Win32,59.672992,,,,,,,,,,,,1.1186,1,,,,,,,,,,,,,,m,1,1.1186,,,,,,,,0.410103059,-0.354769052,0,0,0,,0,58,58,35,1,PEACH,LB,old,m,./images/PEACHLB.png,,,,,,,,,,,,,,,,,,,,,
,,,,,,,,,,,,,,,,,199129,18,2022-01-28_17h12.01.675,lexical_decision_task_DD,2021.2.3,Win32,59.672992,,,,,,,,,,,,1.0167,1,,,,,,,,,,,,,,z,1,1.0167,,,,,,,,0.410103059,-0.354769052,0,0,0,,0,59,59,163,1,GAMBA,HB,old,z,./images/GAMBAHB.png,,,,,,,,,,,,,,,,,,,,,
,,,,,,,,,,,,,,,,,199129,18,2022-01-28_17h12.01.675,lexical_decision_task_DD,2021.2.3,Win32,59.672992,,,,,,,,,,,,0.6396,1,,,,,,,,,,,,,,z,1,0.6396,,,,,,,,0.410103059,-0.354769052,0,0,0,,0,60,60,138,1,PLICE,C,old,z,./images/PLICE.png,,,,,,,,,,,,,,,,,,,,,
,,,,,,,,,,,,,,,,,199129,18,2022-01-28_17h12.01.675,lexical_decision_task_DD,2021.2.3,Win32,59.672992,,,,,,,,,,,,0.7829,1,,,,,,,,,,,,,,z,1,0.7829,,,,,,,,0.410103059,-0.354769052,0,0,0,,0,61,61,128,1,GRIFT,LB,old,z,./images/GRIFTLB.png,,,,,,,,,,,,,,,,,,,,,
,,,,,,,,,,,,,,,,,199129,18,2022-01-28_17h12.01.675,lexical_decision_task_DD,2021.2.3,Win32,59.672992,,,,,,,,,,,,1.043,1,,,,,,,,,,,,,,m,1,1.043,,,,,,,,0.410103059,-0.354769052,0,0,0,,0,62,62,34,1,CANYON,HB,old,m,./images/CANYONHB.png,,,,,,,,,,,,,,,,,,,,,
,,,,,,,,,,,,,,,,,199129,18,2022-01-28_17h12.01.675,lexical_decision_task_DD,2021.2.3,Win32,59.672992,,,,,,,,,,,,1.2933,1,,,,,,,,,,,,,,z,1,1.2933,,,,,,,,0.410103059,-0.354769052,0,0,0,,0,63,63,115,1,MAWNS,HB,old,z,./images/MAWNSHB.png,,,,,,,,,,,,,,,,,,,,,
,,,,,,,,,,,,,,,,,199129,18,2022-01-28_17h12.01.675,lexical_decision_task_DD,2021.2.3,Win32,59.672992,,,,,,,,,,,,0.835,1,,,,,,,,,,,,,,m,1,0.835,,,,,,,,0.410103059,-0.354769052,0,0,0,,0,64,64,83,1,JUNGLE,LB,old,m,./images/JUNGLELB.png,,,,,,,,,,,,,,,,,,,,,
,,,,,,,,,,,,,,,,,199129,18,2022-01-28_17h12.01.675,lexical_decision_task_DD,2021.2.3,Win32,59.672992,,,,,,,,,,,,1.0286,1,,,,,,,,,,,,,,m,1,1.0286,,,,,,,,0.410103059,-0.354769052,0,0,0,,0,65,65,43,1,MOSQUE,HB,old,m,./images/MOSQUEHB.png,,,,,,,,,,,,,,,,,,,,,
,,,,,,,,,,,,,,,,,199129,18,2022-01-28_17h12.01.675,lexical_decision_task_DD,2021.2.3,Win32,59.672992,,,,,,,,,,,,0.8767,0,,,,,,,,,,,,,,m,0,0.8767,,,,,,,,0.410103059,-0.354769052,0,0,0,,0,66,66,130,1,CRILL,HB,old,z,./images/CRILLHB.png,,,,,,,,,,,,,,,,,,,,,
,,,,,,,,,,,,,,,,,199129,18,2022-01-28_17h12.01.675,lexical_decision_task_DD,2021.2.3,Win32,59.672992,,,,,,,,,,,,0.7536,1,,,,,,,,,,,,,,z,1,0.7536,,,,,,,,0.410103059,-0.354769052,0,0,0,,0,67,67,86,1,AIFED,LB,old,z,./images/AIFEDLB.png,,,,,,,,,,,,,,,,,,,,,
,,,,,,,,,,,,,,,,,199129,18,2022-01-28_17h12.01.675,lexical_decision_task_DD,2021.2.3,Win32,59.672992,,,,,,,,,,,,0.8004,1,,,,,,,,,,,,,,z,1,0.8004,,,,,,,,0.410103059,-0.354769052,0,0,0,,0,68,68,155,1,CANGY,LB,old,z,./images/CANGYLB.png,,,,,,,,,,,,,,,,,,,,,
,,,,,,,,,,,,,,,,,199129,18,2022-01-28_17h12.01.675,lexical_decision_task_DD,2021.2.3,Win32,59.672992,,,,,,,,,,,,0.7606,0,,,,,,,,,,,,,,z,0,0.7606,,,,,,,,0.410103059,-0.354769052,0,0,0,,0,69,69,46,1,PEARL,HB,old,m,./images/PEARLHB.png,,,,,,,,,,,,,,,,,,,,,
,,,,,,,,,,,,,,,,,199129,18,2022-01-28_17h12.01.675,lexical_decision_task_DD,2021.2.3,Win32,59.672992,,,,,,,,,,,,0.7081,1,,,,,,,,,,,,,,m,1,0.7081,,,,,,,,0.410103059,-0.354769052,0,0,0,,0,70,70,10,1,BELLY,HB,old,m,./images/BELLYHB.png,,,,,,,,,,,,,,,,,,,,,
,,,,,,,,,,,,,,,,,199129,18,2022-01-28_17h12.01.675,lexical_decision_task_DD,2021.2.3,Win32,59.672992,,,,,,,,,,,,0.8037,1,,,,,,,,,,,,,,m,1,0.8037,,,,,,,,0.410103059,-0.354769052,0,0,0,,0,71,71,76,1,INFANT,HB,old,m,./images/INFANTHB.png,,,,,,,,,,,,,,,,,,,,,
,,,,,,,,,,,,,,,,,199129,18,2022-01-28_17h12.01.675,lexical_decision_task_DD,2021.2.3,Win32,59.672992,,,,,,,,,,,,0.7674,1,,,,,,,,,,,,,,m,1,0.7674,,,,,,,,0.410103059,-0.354769052,0,0,0,,0,72,72,58,1,BABOON,HB,old,m,./images/BABOONHB.png,,,,,,,,,,,,,,,,,,,,,
,,,,,,,,,,,,,,,,,199129,18,2022-01-28_17h12.01.675,lexical_decision_task_DD,2021.2.3,Win32,59.672992,,,,,,,,,,,,0.6232,1,,,,,,,,,,,,,,m,1,0.6232,,,,,,,,0.410767731,-0.354769052,0,0,0,,0,73,73,20,1,CRADLE,LB,old,m,./images/CRADLELB.png,,,,,,,,,,,,,,,,,,,,,
,,,,,,,,,,,,,,,,,199129,18,2022-01-28_17h12.01.675,lexical_decision_task_DD,2021.2.3,Win32,59.672992,,,,,,,,,,,,0.6936,1,,,,,,,,,,,,,,z,1,0.6936,,,,,,,,0.410767731,-0.354769052,0,0,0,,0,74,74,92,1,PAIMS,LB,old,z,./images/PAIMSLB.png,,,,,,,,,,,,,,,,,,,,,
,,,,,,,,,,,,,,,,,199129,18,2022-01-28_17h12.01.675,lexical_decision_task_DD,2021.2.3,Win32,59.672992,,,,,,,,,,,,0.653,1,,,,,,,,,,,,,,z,1,0.653,,,,,,,,0.410767731,-0.354769052,0,0,0,,0,75,75,114,1,RIKES,C,old,z,./images/RIKES.png,,,,,,,,,,,,,,,,,,,,,
,,,,,,,,,,,,,,,,,199129,18,2022-01-28_17h12.01.675,lexical_decision_task_DD,2021.2.3,Win32,59.672992,,,,,,,,,,,,0.559,1,,,,,,,,,,,,,,z,1,0.559,,,,,,,,0.410767731,-0.354769052,0,0,0,,0,76,76,96,1,KEAMS,C,old,z,./images/KEAMS.png,,,,,,,,,,,,,,,,,,,,,
,,,,,,,,,,,,,,,,,199129,18,2022-01-28_17h12.01.675,lexical_decision_task_DD,2021.2.3,Win32,59.672992,,,,,,,,,,,,0.6167,1,,,,,,,,,,,,,,m,1,0.6167,,,,,,,,0.410767731,-0.354769052,0,0,0,,0,77,77,23,1,WALRUS,LB,old,m,./images/WALRUSLB.png,,,,,,,,,,,,,,,,,,,,,
,,,,,,,,,,,,,,,,,199129,18,2022-01-28_17h12.01.675,lexical_decision_task_DD,2021.2.3,Win32,59.672992,,,,,,,,,,,,0.7035,1,,,,,,,,,,,,,,z,1,0.7035,,,,,,,,0.410767731,-0.354769052,0,0,0,,0,78,78,136,1,WERVE,HB,old,z,./images/WERVEHB.png,,,,,,,,,,,,,,,,,,,,,
,,,,,,,,,,,,,,,,,199129,18,2022-01-28_17h12.01.675,lexical_decision_task_DD,2021.2.3,Win32,59.672992,,,,,,,,,,,,0.656,1,,,,,,,,,,,,,,z,1,0.656,,,,,,,,0.410767731,-0.354769052,0,0,0,,0,79,79,95,1,HANTY,LB,old,z,./images/HANTYLB.png,,,,,,,,,,,,,,,,,,,,,
,,,,,,,,,,,,,,,,,199129,18,2022-01-28_17h12.01.675,lexical_decision_task_DD,2021.2.3,Win32,59.672992,,,,,,,,,,,,0.8344,1,,,,,,,,,,,,,,z,1,0.8344,,,,,,,,0.410767731,-0.354769052,0,0,0,,0,80,80,125,1,MOOKY,LB,old,z,./images/MOOKYLB.png,,,,,,,,,,,,,,,,,,,,,
,,,,,,,,,,,,,,,,,199129,18,2022-01-28_17h12.01.675,lexical_decision_task_DD,2021.2.3,Win32,59.672992,,,,,,,,,,,,0.7906,1,,,,,,,,,,,,,,z,1,0.7906,,,,,,,,0.410767731,-0.354769052,0,0,0,,0,81,81,165,1,TROWN,C,old,z,./images/TROWN.png,,,,,,,,,,,,,,,,,,,,,
,,,,,,,,,,,,,,,,,199129,18,2022-01-28_17h12.01.675,lexical_decision_task_DD,2021.2.3,Win32,59.672992,,,,,,,,,,,,0.74,0,,,,,,,,,,,,,,m,0,0.74,,,,,,,,0.410767731,-0.354769052,0,0,0,,0,82,82,94,1,BLANS,HB,old,z,./images/BLANSHB.png,,,,,,,,,,,,,,,,,,,,,
,,,,,,,,,,,,,,,,,199129,18,2022-01-28_17h12.01.675,lexical_decision_task_DD,2021.2.3,Win32,59.672992,,,,,,,,,,,,0.6778,1,,,,,,,,,,,,,,z,1,0.6778,,,,,,,,0.410767731,-0.354769052,0,0,0,space,0,83,83,158,1,EGECT,LB,old,z,./images/EGECTLB.png,0.872,,,,,,,,,,,,,,,,,,,,
,,,,,,,,,,,,,,,,,199129,18,2022-01-28_17h12.01.675,lexical_decision_task_DD,2021.2.3,Win32,59.672992,,,,,,,,,,,,0.8414,1,,,,,,,,,,,,,,z,1,0.8414,,,,,,,,0.410767731,-0.354769052,0,0,0,,0,84,84,139,1,BLEAR,HB,old,z,./images/BLEARHB.png,,,,,,,,,,,,,,,,,,,,,
,,,,,,,,,,,,,,,,,199129,18,2022-01-28_17h12.01.675,lexical_decision_task_DD,2021.2.3,Win32,59.672992,,,,,,,,,,,,0.8011,1,,,,,,,,,,,,,,m,1,0.8011,,,,,,,,0.410767731,-0.354769052,0,0,0,,0,85,85,1,1,PLANK,HB,old,m,./images/PLANKHB.png,,,,,,,,,,,,,,,,,,,,,
,,,,,,,,,,,,,,,,,199129,18,2022-01-28_17h12.01.675,lexical_decision_task_DD,2021.2.3,Win32,59.672992,,,,,,,,,,,,0.778,1,,,,,,,,,,,,,,z,1,0.778,,,,,,,,0.410767731,-0.354769052,0,0,0,,0,86,86,167,1,ZONET,LB,old,z,./images/ZONETLB.png,,,,,,,,,,,,,,,,,,,,,
,,,,,,,,,,,,,,,,,199129,18,2022-01-28_17h12.01.675,lexical_decision_task_DD,2021.2.3,Win32,59.672992,,,,,,,,,,,,0.6179,1,,,,,,,,,,,,,,m,1,0.6179,,,,,,,,0.410767731,-0.354769052,0,0,0,,0,87,87,42,1,FOLDER,C,old,m,./images/FOLDER.png,,,,,,,,,,,,,,,,,,,,,
,,,,,,,,,,,,,,,,,199129,18,2022-01-28_17h12.01.675,lexical_decision_task_DD,2021.2.3,Win32,59.672992,,,,,,,,,,,,0.5864,1,,,,,,,,,,,,,,z,1,0.5864,,,,,,,,0.410767731,-0.354769052,0,0,0,,0,88,88,162,1,LEICH,C,old,z,./images/LEICH.png,,,,,,,,,,,,,,,,,,,,,
,,,,,,,,,,,,,,,,,199129,18,2022-01-28_17h12.01.675,lexical_decision_task_DD,2021.2.3,Win32,59.672992,,,,,,,,,,,,0.7354,1,,,,,,,,,,,,,,m,1,0.7354,,,,,,,,0.410767731,-0.354769052,0,0,0,,0,89,89,72,1,NOOSE,C,old,m,./images/NOOSE.png,,,,,,,,,,,,,,,,,,,,,
,,,,,,,,,,,,,,,,,199129,18,2022-01-28_17h12.01.675,lexical_decision_task_DD,2021.2.3,Win32,59.672992,,,,,,,,,,,,0.6846,1,,,,,,,,,,,,,,m,1,0.6846,,,,,,,,0.410767731,-0.354769052,0,0,0,,0,90,90,22,1,MELON,HB,old,m,./images/MELONHB.png,,,,,,,,,,,,,,,,,,,,,
,,,,,,,,,,,,,,,,,199129,18,2022-01-28_17h12.01.675,lexical_decision_task_DD,2021.2.3,Win32,59.672992,,,,,,,,,,,,0.6357,1,,,,,,,,,,,,,,z,1,0.6357,,,,,,,,0.410767731,-0.354769052,0,0,0,,0,91,91,150,1,NOOLS,C,old,z,./images/NOOLS.png,,,,,,,,,,,,,,,,,,,,,
,,,,,,,,,,,,,,,,,199129,18,2022-01-28_17h12.01.675,lexical_decision_task_DD,2021.2.3,Win32,59.672992,,,,,,,,,,,,0.684,1,,,,,,,,,,,,,,m,1,0.684,,,,,,,,0.410767731,-0.354769052,0,0,0,,0,92,92,14,1,PICKLE,LB,old,m,./images/PICKLELB.png,,,,,,,,,,,,,,,,,,,,,
,,,,,,,,,,,,,,,,,199129,18,2022-01-28_17h12.01.675,lexical_decision_task_DD,2021.2.3,Win32,59.672992,,,,,,,,,,,,0.8102,1,,,,,,,,,,,,,,m,1,0.8102,,,,,,,,0.410767731,-0.354769052,0,0,0,,0,93,93,9,1,RHINO,C,old,m,./images/RHINO.png,,,,,,,,,,,,,,,,,,,,,
,,,,,,,,,,,,,,,,,199129,18,2022-01-28_17h12.01.675,lexical_decision_task_DD,2021.2.3,Win32,59.672992,,,,,,,,,,,,0.8825,1,,,,,,,,,,,,,,m,1,0.8825,,,,,,,,0.410767731,-0.354769052,0,0,0,,0,94,94,24,1,SCREW,C,old,m,./images/SCREW.png,,,,,,,,,,,,,,,,,,,,,
,,,,,,,,,,,,,,,,,199129,18,2022-01-28_17h12.01.675,lexical_decision_task_DD,2021.2.3,Win32,59.672992,,,,,,,,,,,,0.941,1,,,,,,,,,,,,,,m,1,0.941,,,,,,,,0.410767731,-0.354769052,0,0,0,,0,95,95,28,1,FALCON,HB,old,m,./images/FALCONHB.png,,,,,,,,,,,,,,,,,,,,,
,,,,,,,,,,,,,,,,,199129,18,2022-01-28_17h12.01.675,lexical_decision_task_DD,2021.2.3,Win32,59.672992,,,,,,,,,,,,0.6557,1,,,,,,,,,,,,,,m,1,0.6557,,,,,,,,0.410767731,-0.354769052,0,0,0,,0,96,96,71,1,PIMPLE,LB,old,m,./images/PIMPLELB.png,,,,,,,,,,,,,,,,,,,,,
,,,,,,,,,,,,,,,,,199129,18,2022-01-28_17h12.01.675,lexical_decision_task_DD,2021.2.3,Win32,59.672992,,,,,,,,,,,,0.9365,1,,,,,,,,,,,,,,z,1,0.9365,,,,,,,,0.410767731,-0.354769052,0,0,0,,0,97,97,142,1,PLASK,HB,old,z,./images/PLASKHB.png,,,,,,,,,,,,,,,,,,,,,
,,,,,,,,,,,,,,,,,199129,18,2022-01-28_17h12.01.675,lexical_decision_task_DD,2021.2.3,Win32,59.672992,,,,,,,,,,,,0.5878,1,,,,,,,,,,,,,,m,1,0.5878,,,,,,,,0.410767731,-0.354769052,0,0,0,,0,98,98,63,1,MIRROR,C,old,m,./images/MIRROR.png,,,,,,,,,,,,,,,,,,,,,
,,,,,,,,,,,,,,,,,199129,18,2022-01-28_17h12.01.675,lexical_decision_task_DD,2021.2.3,Win32,59.672992,,,,,,,,,,,,0.8263,1,,,,,,,,,,,,,,m,1,0.8263,,,,,,,,0.410767731,-0.354769052,0,0,0,,0,99,99,12,1,SHORE,C,old,m,./images/SHORE.png,,,,,,,,,,,,,,,,,,,,,
,,,,,,,,,,,,,,,,,199129,18,2022-01-28_17h12.01.675,lexical_decision_task_DD,2021.2.3,Win32,59.672992,,,,,,,,,,,,0.7501,1,,,,,,,,,,,,,,z,1,0.7501,,,,,,,,0.410767731,-0.354769052,0,0,0,,0,100,100,102,1,DULLE,C,old,z,./images/DULLE.png,,,,,,,,,,,,,,,,,,,,,
,,,,,,,,,,,,,,,,,199129,18,2022-01-28_17h12.01.675,lexical_decision_task_DD,2021.2.3,Win32,59.672992,,,,,,,,,,,,0.7333,1,,,,,,,,,,,,,,m,1,0.7333,,,,,,,,0.410767731,-0.354769052,0,0,0,,0,101,101,59,1,BURIAL,LB,old,m,./images/BURIALLB.png,,,,,,,,,,,,,,,,,,,,,
,,,,,,,,,,,,,,,,,199129,18,2022-01-28_17h12.01.675,lexical_decision_task_DD,2021.2.3,Win32,59.672992,,,,,,,,,,,,0.6953,1,,,,,,,,,,,,,,m,1,0.6953,,,,,,,,0.410767731,-0.354769052,0,0,0,,0,102,102,30,1,STORM,C,old,m,./images/STORM.png,,,,,,,,,,,,,,,,,,,,,
,,,,,,,,,,,,,,,,,199129,18,2022-01-28_17h12.01.675,lexical_decision_task_DD,2021.2.3,Win32,59.672992,,,,,,,,,,,,0.3438,1,,,,,,,,,,,,,,z,1,0.3438,,,,,,,,0.410767731,-0.354769052,0,0,0,,0,103,103,110,1,CRUNK,LB,old,z,./images/CRUNKLB.png,,,,,,,,,,,,,,,,,,,,,
,,,,,,,,,,,,,,,,,199129,18,2022-01-28_17h12.01.675,lexical_decision_task_DD,2021.2.3,Win32,59.672992,,,,,,,,,,,,0.7618,1,,,,,,,,,,,,,,z,1,0.7618,,,,,,,,0.410767731,-0.354769052,0,0,0,,0,104,104,160,1,VEETS,HB,old,z,./images/VEETSHB.png,,,,,,,,,,,,,,,,,,,,,
,,,,,,,,,,,,,,,,,199129,18,2022-01-28_17h12.01.675,lexical_decision_task_DD,2021.2.3,Win32,59.672992,,,,,,,,,,,,0.5502,1,,,,,,,,,,,,,,z,1,0.5502,,,,,,,,0.410767731,-0.354769052,0,0,0,,0,105,105,111,1,HOSSE,C,old,z,./images/HOSSE.png,,,,,,,,,,,,,,,,,,,,,
,,,,,,,,,,,,,,,,,199129,18,2022-01-28_17h12.01.675,lexical_decision_task_DD,2021.2.3,Win32,59.672992,,,,,,,,,,,,0.6726,1,,,,,,,,,,,,,,z,1,0.6726,,,,,,,,0.410767731,-0.354769052,0,0,0,,0,106,106,146,1,MOOST,LB,old,z,./images/MOOSTLB.png,,,,,,,,,,,,,,,,,,,,,
,,,,,,,,,,,,,,,,,199129,18,2022-01-28_17h12.01.675,lexical_decision_task_DD,2021.2.3,Win32,59.672992,,,,,,,,,,,,0.8062,1,,,,,,,,,,,,,,z,1,0.8062,,,,,,,,0.410767731,-0.354769052,0,0,0,,0,107,107,112,1,MYING,HB,old,z,./images/MYINGHB.png,,,,,,,,,,,,,,,,,,,,,
,,,,,,,,,,,,,,,,,199129,18,2022-01-28_17h12.01.675,lexical_decision_task_DD,2021.2.3,Win32,59.672992,,,,,,,,,,,,0.6076,1,,,,,,,,,,,,,,m,1,0.6076,,,,,,,,0.410767731,-0.354769052,0,0,0,,0,108,108,39,1,SHELF,C,old,m,./images/SHELF.png,,,,,,,,,,,,,,,,,,,,,
,,,,,,,,,,,,,,,,,199129,18,2022-01-28_17h12.01.675,lexical_decision_task_DD,2021.2.3,Win32,59.672992,,,,,,,,,,,,0.7114,1,,,,,,,,,,,,,,z,1,0.7114,,,,,,,,0.410767731,-0.354769052,0,0,0,,0,109,109,161,1,BLAPS,LB,old,z,./images/BLAPSLB.png,,,,,,,,,,,,,,,,,,,,,
,,,,,,,,,,,,,,,,,199129,18,2022-01-28_17h12.01.675,lexical_decision_task_DD,2021.2.3,Win32,59.672992,,,,,,,,,,,,0.8879,1,,,,,,,,,,,,,,z,1,0.8879,,,,,,,,0.410767731,-0.354769052,0,0,0,,0,110,110,106,1,CLUMS,HB,old,z,./images/CLUMSHB.png,,,,,,,,,,,,,,,,,,,,,
,,,,,,,,,,,,,,,,,199129,18,2022-01-28_17h12.01.675,lexical_decision_task_DD,2021.2.3,Win32,59.672992,,,,,,,,,,,,0.5366,1,,,,,,,,,,,,,,z,1,0.5366,,,,,,,,0.410767731,-0.354769052,0,0,0,,0,111,111,122,1,BLOOT,LB,old,z,./images/BLOOTLB.png,,,,,,,,,,,,,,,,,,,,,
,,,,,,,,,,,,,,,,,199129,18,2022-01-28_17h12.01.675,lexical_decision_task_DD,2021.2.3,Win32,59.672992,,,,,,,,,,,,0.8825,1,,,,,,,,,,,,,,m,1,0.8825,,,,,,,,0.410767731,-0.354769052,0,0,0,,0,112,112,38,1,LADDER,LB,old,m,./images/LADDERLB.png,,,,,,,,,,,,,,,,,,,,,
,,,,,,,,,,,,,,,,,199129,18,2022-01-28_17h12.01.675,lexical_decision_task_DD,2021.2.3,Win32,59.672992,,,,,,,,,,,,0.6569,1,,,,,,,,,,,,,,z,1,0.6569,,,,,,,,0.410767731,-0.354769052,0,0,0,,0,113,113,87,1,TRING,C,old,z,./images/TRING.png,,,,,,,,,,,,,,,,,,,,,
,,,,,,,,,,,,,,,,,199129,18,2022-01-28_17h12.01.675,lexical_decision_task_DD,2021.2.3,Win32,59.672992,,,,,,,,,,,,1.1787,1,,,,,,,,,,,,,,m,1,1.1787,,,,,,,,0.410767731,-0.354769052,0,0,0,,0,114,114,11,1,BONNET,LB,old,m,./images/BONNETLB.png,,,,,,,,,,,,,,,,,,,,,
,,,,,,,,,,,,,,,,,199129,18,2022-01-28_17h12.01.675,lexical_decision_task_DD,2021.2.3,Win32,59.672992,,,,,,,,,,,,1.4115,1,,,,,,,,,,,,,,m,1,1.4115,,,,,,,,0.410767731,-0.354769052,0,0,0,,0,115,115,75,1,GRAIN,C,old,m,./images/GRAIN.png,,,,,,,,,,,,,,,,,,,,,
,,,,,,,,,,,,,,,,,199129,18,2022-01-28_17h12.01.675,lexical_decision_task_DD,2021.2.3,Win32,59.672992,,,,,,,,,,,,1.0192,1,,,,,,,,,,,,,,m,1,1.0192,,,,,,,,0.410767731,-0.354769052,0,0,0,,0,116,116,3,1,FINGER,C,old,m,./images/FINGER.png,,,,,,,,,,,,,,,,,,,,,
,,,,,,,,,,,,,,,,,199129,18,2022-01-28_17h12.01.675,lexical_decision_task_DD,2021.2.3,Win32,59.672992,,,,,,,,,,,,0.6003,1,,,,,,,,,,,,,,m,1,0.6003,,,,,,,,0.410767731,-0.354769052,0,0,0,,0,117,117,8,1,TULIP,LB,old,m,./images/TULIPLB.png,,,,,,,,,,,,,,,,,,,,,
,,,,,,,,,,,,,,,,,199129,18,2022-01-28_17h12.01.675,lexical_decision_task_DD,2021.2.3,Win32,59.672992,,,,,,,,,,,,0.8351,1,,,,,,,,,,,,,,m,1,0.8351,,,,,,,,0.410767731,-0.354769052,0,0,0,,0,118,118,37,1,BIRTH,HB,old,m,./images/BIRTHHB.png,,,,,,,,,,,,,,,,,,,,,
,,,,,,,,,,,,,,,,,199129,18,2022-01-28_17h12.01.675,lexical_decision_task_DD,2021.2.3,Win32,59.672992,,,,,,,,,,,,1.0994,1,,,,,,,,,,,,,,z,1,1.0994,,,,,,,,0.410767731,-0.354769052,0,0,0,,0,119,119,137,1,JOOST,LB,old,z,./images/JOOSTLB.png,,,,,,,,,,,,,,,,,,,,,
,,,,,,,,,,,,,,,,,199129,18,2022-01-28_17h12.01.675,lexical_decision_task_DD,2021.2.3,Win32,59.672992,,,,,,,,,,,,0.7018,1,,,,,,,,,,,,,,m,1,0.7018,,,,,,,,0.410767731,-0.354769052,0,0,0,,0,120,120,80,1,WEASEL,LB,old,m,./images/WEASELLB.png,,,,,,,,,,,,,,,,,,,,,
,,,,,,,,,,,,,,,,,199129,18,2022-01-28_17h12.01.675,lexical_decision_task_DD,2021.2.3,Win32,59.672992,,,,,,,,,,,,1.9336,1,,,,,,,,,,,,,,z,1,1.9336,,,,,,,,0.410767731,-0.354769052,0,0,0,,0,121,121,100,1,DRIBS,HB,old,z,./images/DRIBSHB.png,,,,,,,,,,,,,,,,,,,,,
,,,,,,,,,,,,,,,,,199129,18,2022-01-28_17h12.01.675,lexical_decision_task_DD,2021.2.3,Win32,59.672992,,,,,,,,,,,,0.8212,0,,,,,,,,,,,,,,z,0,0.8212,,,,,,,,0.410767731,-0.354769052,0,0,0,,0,122,122,25,1,WRIST,HB,old,m,./images/WRISTHB.png,,,,,,,,,,,,,,,,,,,,,
,,,,,,,,,,,,,,,,,199129,18,2022-01-28_17h12.01.675,lexical_decision_task_DD,2021.2.3,Win32,59.672992,,,,,,,,,,,,0.7563,1,,,,,,,,,,,,,,z,1,0.7563,,,,,,,,0.410767731,-0.354769052,0,0,0,,0,123,123,164,1,SGREW,LB,old,z,./images/SGREWLB.png,,,,,,,,,,,,,,,,,,,,,
,,,,,,,,,,,,,,,,,199129,18,2022-01-28_17h12.01.675,lexical_decision_task_DD,2021.2.3,Win32,59.672992,,,,,,,,,,,,0.6551,1,,,,,,,,,,,,,,m,1,0.6551,,,,,,,,0.410767731,-0.354769052,0,0,0,,0,124,124,60,1,TWINS,C,old,m,./images/TWINS.png,,,,,,,,,,,,,,,,,,,,,
,,,,,,,,,,,,,,,,,199129,18,2022-01-28_17h12.01.675,lexical_decision_task_DD,2021.2.3,Win32,59.672992,,,,,,,,,,,,0.776,1,,,,,,,,,,,,,,m,1,0.776,,,,,,,,0.410767731,-0.354769052,0,0,0,space,0,125,125,4,1,MUSCLE,HB,old,m,./images/MUSCLEHB.png,0.9457,,,,,,,,,,,,,,,,,,,,
,,,,,,,,,,,,,,,,,199129,18,2022-01-28_17h12.01.675,lexical_decision_task_DD,2021.2.3,Win32,59.672992,,,,,,,,,,,,0.6763,1,,,,,,,,,,,,,,m,1,0.6763,,,,,,,,0.410767731,-0.354769052,0,0,0,,0,126,126,26,1,SMOKER,LB,old,m,./images/SMOKERLB.png,,,,,,,,,,,,,,,,,,,,,
,,,,,,,,,,,,,,,,,199129,18,2022-01-28_17h12.01.675,lexical_decision_task_DD,2021.2.3,Win32,59.672992,,,,,,,,,,,,0.6239,1,,,,,,,,,,,,,,m,1,0.6239,,,,,,,,0.410767731,-0.354769052,0,0,0,,0,127,127,53,1,CARPET,LB,old,m,./images/CARPETLB.png,,,,,,,,,,,,,,,,,,,,,
,,,,,,,,,,,,,,,,,199129,18,2022-01-28_17h12.01.675,lexical_decision_task_DD,2021.2.3,Win32,59.672992,,,,,,,,,,,,0.4679,1,,,,,,,,,,,,,,m,1,0.4679,,,,,,,,0.410767731,-0.354769052,0,0,0,,0,128,128,5,1,PASTA,LB,old,m,./images/PASTALB.png,,,,,,,,,,,,,,,,,,,,,
,,,,,,,,,,,,,,,,,199129,18,2022-01-28_17h12.01.675,lexical_decision_task_DD,2021.2.3,Win32,59.672992,,,,,,,,,,,,0.6582,1,,,,,,,,,,,,,,z,1,0.6582,,,,,,,,0.410767731,-0.354769052,0,0,0,,0,129,129,116,1,BALGY,LB,old,z,./images/BALGYLB.png,,,,,,,,,,,,,,,,,,,,,
,,,,,,,,,,,,,,,,,199129,18,2022-01-28_17h12.01.675,lexical_decision_task_DD,2021.2.3,Win32,59.672992,,,,,,,,,,,,0.8029,1,,,,,,,,,,,,,,m,1,0.8029,,,,,,,,0.410767731,-0.354769052,0,0,0,,0,130,130,64,1,JELLY,HB,old,m,./images/JELLYHB.png,,,,,,,,,,,,,,,,,,,,,
,,,,,,,,,,,,,,,,,199129,18,2022-01-28_17h12.01.675,lexical_decision_task_DD,2021.2.3,Win32,59.672992,,,,,,,,,,,,1.1244,1,,,,,,,,,,,,,,z,1,1.1244,,,,,,,,0.410767731,-0.354769052,0,0,0,,0,131,131,99,1,BACKY,C,old,z,./images/BACKY.png,,,,,,,,,,,,,,,,,,,,,
,,,,,,,,,,,,,,,,,199129,18,2022-01-28_17h12.01.675,lexical_decision_task_DD,2021.2.3,Win32,59.672992,,,,,,,,,,,,0.7166,1,,,,,,,,,,,,,,z,1,0.7166,,,,,,,,0.410767731,-0.354769052,0,0,0,,0,132,132,131,1,NACES,LB,old,z,./images/NACESLB.png,,,,,,,,,,,,,,,,,,,,,
,,,,,,,,,,,,,,,,,199129,18,2022-01-28_17h12.01.675,lexical_decision_task_DD,2021.2.3,Win32,59.672992,,,,,,,,,,,,0.5855,1,,,,,,,,,,,,,,z,1,0.5855,,,,,,,,0.410767731,-0.354769052,0,0,0,,0,133,133,108,1,GRUET,C,old,z,./images/GRUET.png,,,,,,,,,,,,,,,,,,,,,
,,,,,,,,,,,,,,,,,199129,18,2022-01-28_17h12.01.675,lexical_decision_task_DD,2021.2.3,Win32,59.672992,,,,,,,,,,,,0.76,1,,,,,,,,,,,,,,m,1,0.76,,,,,,,,0.410767731,-0.354769052,0,0,0,,0,134,134,78,1,LITTER,C,old,m,./images/LITTER.png,,,,,,,,,,,,,,,,,,,,,
,,,,,,,,,,,,,,,,,199129,18,2022-01-28_17h12.01.675,lexical_decision_task_DD,2021.2.3,Win32,59.672992,,,,,,,,,,,,1.2893,1,,,,,,,,,,,,,,m,1,1.2893,,,,,,,,0.410767731,-0.354769052,0,0,0,,0,135,135,79,1,CRUST,HB,old,m,./images/CRUSTHB.png,,,,,,,,,,,,,,,,,,,,,
,,,,,,,,,,,,,,,,,199129,18,2022-01-28_17h12.01.675,lexical_decision_task_DD,2021.2.3,Win32,59.672992,,,,,,,,,,,,0.6557,1,,,,,,,,,,,,,,z,1,0.6557,,,,,,,,0.410767731,-0.354769052,0,0,0,,0,136,136,147,1,ZOLES,C,old,z,./images/ZOLES.png,,,,,,,,,,,,,,,,,,,,,
,,,,,,,,,,,,,,,,,199129,18,2022-01-28_17h12.01.675,lexical_decision_task_DD,2021.2.3,Win32,59.672992,,,,,,,,,,,,0.8664,1,,,,,,,,,,,,,,m,1,0.8664,,,,,,,,0.410767731,-0.354769052,0,0,0,,0,137,137,62,1,PURSE,LB,old,m,./images/PURSELB.png,,,,,,,,,,,,,,,,,,,,,
,,,,,,,,,,,,,,,,,199129,18,2022-01-28_17h12.01.675,lexical_decision_task_DD,2021.2.3,Win32,59.672992,,,,,,,,,,,,0.854,1,,,,,,,,,,,,,,m,1,0.854,,,,,,,,0.410767731,-0.354769052,0,0,0,,0,138,138,41,1,STRING,LB,old,m,./images/STRINGLB.png,,,,,,,,,,,,,,,,,,,,,
,,,,,,,,,,,,,,,,,199129,18,2022-01-28_17h12.01.675,lexical_decision_task_DD,2021.2.3,Win32,59.672992,,,,,,,,,,,,0.857,1,,,,,,,,,,,,,,z,1,0.857,,,,,,,,0.410767731,-0.354769052,0,0,0,,0,139,139,153,1,CLUPS,C,old,z,./images/CLUPS.png,,,,,,,,,,,,,,,,,,,,,
,,,,,,,,,,,,,,,,,199129,18,2022-01-28_17h12.01.675,lexical_decision_task_DD,2021.2.3,Win32,59.672992,,,,,,,,,,,,0.7686,1,,,,,,,,,,,,,,m,1,0.7686,,,,,,,,0.410767731,-0.354769052,0,0,0,,0,140,140,18,1,JAGUAR,C,old,m,./images/JAGUAR.png,,,,,,,,,,,,,,,,,,,,,
,,,,,,,,,,,,,,,,,199129,18,2022-01-28_17h12.01.675,lexical_decision_task_DD,2021.2.3,Win32,59.672992,,,,,,,,,,,,1.8106,1,,,,,,,,,,,,,,m,1,1.8106,,,,,,,,0.410767731,-0.354769052,0,0,0,,0,141,141,44,1,LIZARD,LB,old,m,./images/LIZARDLB.png,,,,,,,,,,,,,,,,,,,,,
,,,,,,,,,,,,,,,,,199129,18,2022-01-28_17h12.01.675,lexical_decision_task_DD,2021.2.3,Win32,59.672992,,,,,,,,,,,,0.8861,1,,,,,,,,,,,,,,z,1,0.8861,,,,,,,,0.410767731,-0.354769052,0,0,0,,0,142,142,152,1,FRAIN,LB,old,z,./images/FRAINLB.png,,,,,,,,,,,,,,,,,,,,,
,,,,,,,,,,,,,,,,,199129,18,2022-01-28_17h12.01.675,lexical_decision_task_DD,2021.2.3,Win32,59.672992,,,,,,,,,,,,0.5724,1,,,,,,,,,,,,,,z,1,0.5724,,,,,,,,0.410767731,-0.354769052,0,0,0,,0,143,143,135,1,JOODY,C,old,z,./images/JOODY.png,,,,,,,,,,,,,,,,,,,,,
,,,,,,,,,,,,,,,,,199129,18,2022-01-28_17h12.01.675,lexical_decision_task_DD,2021.2.3,Win32,59.672992,,,,,,,,,,,,0.7089,1,,,,,,,,,,,,,,m,1,0.7089,,,,,,,,0.410767731,-0.354769052,0,0,0,,0,144,144,6,1,SQUARE,C,old,m,./images/SQUARE.png,,,,,,,,,,,,,,,,,,,,,
,,,,,,,,,,,,,,,,,199129,18,2022-01-28_17h12.01.675,lexical_decision_task_DD,2021.2.3,Win32,59.672992,,,,,,,,,,,,1.3727,0,,,,,,,,,,,,,,z,0,1.3727,,,,,,,,0.410767731,-0.354769052,0,0,0,,0,145,145,70,1,URINE,HB,old,m,./images/URINEHB.png,,,,,,,,,,,,,,,,,,,,,
,,,,,,,,,,,,,,,,,199129,18,2022-01-28_17h12.01.675,lexical_decision_task_DD,2021.2.3,Win32,59.672992,,,,,,,,,,,,0.5699,1,,,,,,,,,,,,,,m,1,0.5699,,,,,,,,0.410767731,-0.354769052,0,0,0,,0,146,146,68,1,TORCH,LB,old,m,./images/TORCHLB.png,,,,,,,,,,,,,,,,,,,,,
,,,,,,,,,,,,,,,,,199129,18,2022-01-28_17h12.01.675,lexical_decision_task_DD,2021.2.3,Win32,59.672992,,,,,,,,,,,,0.7009,1,,,,,,,,,,,,,,z,1,0.7009,,,,,,,,0.410767731,-0.354769052,0,0,0,,0,147,147,149,1,VEASE,LB,old,z,./images/VEASELB.png,,,,,,,,,,,,,,,,,,,,,
,,,,,,,,,,,,,,,,,199129,18,2022-01-28_17h12.01.675,lexical_decision_task_DD,2021.2.3,Win32,59.672992,,,,,,,,,,,,0.5668,1,,,,,,,,,,,,,,z,1,0.5668,,,,,,,,0.410767731,-0.354769052,0,0,0,,0,148,148,89,1,DRIEK,LB,old,z,./images/DRIEKLB.png,,,,,,,,,,,,,,,,,,,,,
,,,,,,,,,,,,,,,,,199129,18,2022-01-28_17h12.01.675,lexical_decision_task_DD,2021.2.3,Win32,59.672992,,,,,,,,,,,,1.027,1,,,,,,,,,,,,,,m,1,1.027,,,,,,,,0.410767731,-0.354769052,0,0,0,,0,149,149,57,1,MOOSE,C,old,m,./images/MOOSE.png,,,,,,,,,,,,,,,,,,,,,
,,,,,,,,,,,,,,,,,199129,18,2022-01-28_17h12.01.675,lexical_decision_task_DD,2021.2.3,Win32,59.672992,,,,,,,,,,,,1.8061,0,,,,,,,,,,,,,,z,0,1.8061,,,,,,,,0.410767731,-0.354769052,0,0,0,,0,150,150,67,1,SAILOR,HB,old,m,./images/SAILORHB.png,,,,,,,,,,,,,,,,,,,,,
,,,,,,,,,,,,,,,,,199129,18,2022-01-28_17h12.01.675,lexical_decision_task_DD,2021.2.3,Win32,59.672992,,,,,,,,,,,,1.252,1,,,,,,,,,,,,,,m,1,1.252,,,,,,,,0.410767731,-0.354769052,0,0,0,,0,151,151,55,1,MUFFIN,HB,old,m,./images/MUFFINHB.png,,,,,,,,,,,,,,,,,,,,,
,,,,,,,,,,,,,,,,,199129,18,2022-01-28_17h12.01.675,lexical_decision_task_DD,2021.2.3,Win32,59.672992,,,,,,,,,,,,0.7665,1,,,,,,,,,,,,,,z,1,0.7665,,,,,,,,0.410767731,-0.354769052,0,0,0,,0,152,152,103,1,FLORT,HB,old,z,./images/FLORTHB.png,,,,,,,,,,,,,,,,,,,,,
,,,,,,,,,,,,,,,,,199129,18,2022-01-28_17h12.01.675,lexical_decision_task_DD,2021.2.3,Win32,59.672992,,,,,,,,,,,,0.7336,1,,,,,,,,,,,,,,m,1,0.7336,,,,,,,,0.410767731,-0.354769052,0,0,0,,0,153,153,48,1,SPORT,C,old,m,./images/SPORT.png,,,,,,,,,,,,,,,,,,,,,
,,,,,,,,,,,,,,,,,199129,18,2022-01-28_17h12.01.675,lexical_decision_task_DD,2021.2.3,Win32,59.672992,,,,,,,,,,,,0.7524,1,,,,,,,,,,,,,,z,1,0.7524,,,,,,,,0.410767731,-0.354769052,0,0,0,,0,154,154,148,1,JOMS,HB,old,z,./images/JOMSHB.png,,,,,,,,,,,,,,,,,,,,,
,,,,,,,,,,,,,,,,,199129,18,2022-01-28_17h12.01.675,lexical_decision_task_DD,2021.2.3,Win32,59.672992,,,,,,,,,,,,0.7231,1,,,,,,,,,,,,,,z,1,0.7231,,,,,,,,0.410767731,-0.354769052,0,0,0,,0,155,155,107,1,FASKS,LB,old,z,./images/FASKSLB.png,,,,,,,,,,,,,,,,,,,,,
,,,,,,,,,,,,,,,,,199129,18,2022-01-28_17h12.01.675,lexical_decision_task_DD,2021.2.3,Win32,59.672992,,,,,,,,,,,,0.6227,1,,,,,,,,,,,,,,m,1,0.6227,,,,,,,,0.410767731,-0.354769052,0,0,0,,0,156,156,21,1,KIDNEY,C,old,m,./images/KIDNEY.png,,,,,,,,,,,,,,,,,,,,,
,,,,,,,,,,,,,,,,,199129,18,2022-01-28_17h12.01.675,lexical_decision_task_DD,2021.2.3,Win32,59.672992,,,,,,,,,,,,0.7514,1,,,,,,,,,,,,,,m,1,0.7514,,,,,,,,0.410767731,-0.354769052,0,0,0,,0,157,157,33,1,MAGGOT,C,old,m,./images/MAGGOT.png,,,,,,,,,,,,,,,,,,,,,
,,,,,,,,,,,,,,,,,199129,18,2022-01-28_17h12.01.675,lexical_decision_task_DD,2021.2.3,Win32,59.672992,,,,,,,,,,,,0.6186,1,,,,,,,,,,,,,,m,1,0.6186,,,,,,,,0.410767731,-0.354769052,0,0,0,,0,158,158,0,1,TOMATO,C,old,m,./images/TOMATO.png,,,,,,,,,,,,,,,,,,,,,
,,,,,,,,,,,,,,,,,199129,18,2022-01-28_17h12.01.675,lexical_decision_task_DD,2021.2.3,Win32,59.672992,,,,,,,,,,,,1.183,1,,,,,,,,,,,,,,m,1,1.183,,,,,,,,0.410767731,-0.354769052,0,0,0,,0,159,159,40,1,SWING,HB,old,m,./images/SWINGHB.png,,,,,,,,,,,,,,,,,,,,,
,,,,,,,,,,,,,,,,,199129,18,2022-01-28_17h12.01.675,lexical_decision_task_DD,2021.2.3,Win32,59.672992,,,,,,,,,,,,0.7039,1,,,,,,,,,,,,,,m,1,0.7039,,,,,,,,0.410767731,-0.354769052,0,0,0,,0,160,160,77,1,COUCH,LB,old,m,./images/COUCHLB.png,,,,,,,,,,,,,,,,,,,,,
,,,,,,,,,,,,,,,,,199129,18,2022-01-28_17h12.01.675,lexical_decision_task_DD,2021.2.3,Win32,59.672992,,,,,,,,,,,,1.822,1,,,,,,,,,,,,,,z,1,1.822,,,,,,,,0.410767731,-0.354769052,0,0,0,,0,161,161,133,1,POWDY,HB,old,z,./images/POWDYHB.png,,,,,,,,,,,,,,,,,,,,,
,,,,,,,,,,,,,,,,,199129,18,2022-01-28_17h12.01.675,lexical_decision_task_DD,2021.2.3,Win32,59.672992,,,,,,,,,,,,0.6935,1,,,,,,,,,,,,,,z,1,0.6935,,,,,,,,0.410767731,-0.354769052,0,0,0,,0,162,162,144,1,NAIRY,C,old,z,./images/NAIRY.png,,,,,,,,,,,,,,,,,,,,,
,,,,,,,,,,,,,,,,,199129,18,2022-01-28_17h12.01.675,lexical_decision_task_DD,2021.2.3,Win32,59.672992,,,,,,,,,,,,0.6883,1,,,,,,,,,,,,,,z,1,0.6883,,,,,,,,0.410767731,-0.354769052,0,0,0,,0,163,163,101,1,GLEET,LB,old,z,./images/GLEETLB.png,,,,,,,,,,,,,,,,,,,,,
,,,,,,,,,,,,,,,,,199129,18,2022-01-28_17h12.01.675,lexical_decision_task_DD,2021.2.3,Win32,59.672992,,,,,,,,,,,,1.8565,1,,,,,,,,,,,,,,z,1,1.8565,,,,,,,,0.410767731,-0.354769052,0,0,0,,0,164,164,91,1,SHENS,HB,old,z,./images/SHENSHB.png,,,,,,,,,,,,,,,,,,,,,
,,,,,,,,,,,,,,,,,199129,18,2022-01-28_17h12.01.675,lexical_decision_task_DD,2021.2.3,Win32,59.672992,,,,,,,,,,,,0.7342,1,,,,,,,,,,,,,,m,1,0.7342,,,,,,,,0.410767731,-0.354769052,0,0,0,,0,165,165,27,1,ATTIC,C,old,m,./images/ATTIC.png,,,,,,,,,,,,,,,,,,,,,
,,,,,,,,,,,,,,,,,199129,18,2022-01-28_17h12.01.675,lexical_decision_task_DD,2021.2.3,Win32,59.672992,,,,,,,,,,,,0.6547,1,,,,,,,,,,,,,,z,1,0.6547,,,,,,,,0.410767731,-0.354769052,0,0,0,,0,166,166,143,1,MONGS,LB,old,z,./images/MONGSLB.png,,,,,,,,,,,,,,,,,,,,,
,,,,,,,,,,,,,,,,,199129,18,2022-01-28_17h12.01.675,lexical_decision_task_DD,2021.2.3,Win32,59.672992,,,,,,,,,,,,0.5939,1,,,,,,,,,,,,,,z,1,0.5939,,,,,,,,0.410767731,-0.354769052,0,0,0,,0,167,167,120,1,RINED,C,old,z,./images/RINED.png,,,,,,,,,,,,,,,,,,,,,
space,0.410767731,-0.354769052,0,0,0,,,,,,,1,test,"In the next phase you will be presented with the words from the the first phase. Your job is to decide whether you remember seeing the word or not. If you remember seeing the word press ""old"" or type ""m"". If you do not remember seeing the word press ""new"" or type ""z"". Please press the space bar or click on continue to begin. ",,,199129,18,2022-01-28_17h12.01.675,lexical_decision_task_DD,2021.2.3,Win32,59.672992,8.4711,,,,,,,,,,,,,,,,,,,,,,,,,,,,,,,,,,,,,,,,,,,,,,,,,,,,,0,0,0,0,1,,,,,,,,,,,,,,,
space,0.410767731,-0.354769052,0,0,0,,,,,,,1,test,"In the next phase you will be presented with the words from the the first phase. Your job is to decide whether you remember seeing the word or not. If you remember seeing the word press ""old"" or type ""m"". If you do not remember seeing the word press ""new"" or type ""z"". Please press the space bar or click on continue to begin. ",,,199129,18,2022-01-28_17h12.01.675,lexical_decision_task_DD,2021.2.3,Win32,59.672992,1.5334,,,,,,,,,,,,,,,,,,,,,,,,,,,,,,,,,,,,,,,,,,,,,,,,,,,,,1,0,1,0,1,,,,,,,,,,,,,,,
space,0.290461978,-0.308241965,0,0,0,,,,,,,1,test,"In the next phase you will be presented with the words from the the first phase. Your job is to decide whether you remember seeing the word or not. If you remember seeing the word press ""old"" or type ""m"". If you do not remember seeing the word press ""new"" or type ""z"". Please press the space bar or click on continue to begin. ",,,199129,18,2022-01-28_17h12.01.675,lexical_decision_task_DD,2021.2.3,Win32,59.672992,1.8802,,,,,,,,,,,,,,,,,,,,,,,,,,,,,,,,,,,,,,,,,,,,,,,,,,,,,2,0,2,0,1,,,,,,,,,,,,,,,
,0.166168189,-0.395978757,1,0,0,instr_done_button,,,,,,1,test,"In the next phase you will be presented with the words from the the first phase. Your job is to decide whether you remember seeing the word or not. If you remember seeing the word press ""old"" or type ""m"". If you do not remember seeing the word press ""new"" or type ""z"". Please press the space bar or click on continue to begin. ",,,199129,18,2022-01-28_17h12.01.675,lexical_decision_task_DD,2021.2.3,Win32,59.672992,,,,,,,,,,,,,,,,,,,,,,,,,,,,,,,,,,,,,,,,,,,,,,,,,,,,,,3,0,3,0,1,,,,,,,,,,,,,,,
,0.058914756,-0.419767469,1,0,0,instr_done_button,,,,,,1,test,"In the next phase you will be presented with the words from the the first phase. Your job is to decide whether you remember seeing the word or not. If you remember seeing the word press ""old"" or type ""m"". If you do not remember seeing the word press ""new"" or type ""z"". Please press the space bar or click on continue to begin. ",,,199129,18,2022-01-28_17h12.01.675,lexical_decision_task_DD,2021.2.3,Win32,59.672992,,,,,,,,,,,,,,,,,,,,,,,,,,,,,,,,,,,,,,,,,,,,,,,,,,,,,,4,0,4,0,1,,,,,,,,,,,,,,,
,,,,,,,,,,,,,,,,,199129,18,2022-01-28_17h12.01.675,lexical_decision_task_DD,2021.2.3,Win32,59.672992,,,,,,,,,,,,3.6023,1,,,,,,,,,,,,,,,,,,,,,,,,0.163565922,-0.164728702,0,0,0,,,,,,,BEARD,LB,m,m,./images/BEARDLB.png,,,,,,,m,1,3.6023,,,,,,,,0,0,0,2,1
,,,,,,,,,,,,,,,,,199129,18,2022-01-28_17h12.01.675,lexical_decision_task_DD,2021.2.3,Win32,59.672992,,,,,,,,,,,,0.7438,1,,,,,,,,,,,,,,,,,,,,,,,,0.163565922,-0.164728702,0,0,0,,,,,,,WEASEL,LB,m,m,./images/WEASELLB.png,,,,,,,m,1,0.7438,,,,,,,,0,1,1,80,1
,,,,,,,,,,,,,,,,,199129,18,2022-01-28_17h12.01.675,lexical_decision_task_DD,2021.2.3,Win32,59.672992,,,,,,,,,,,,0.6121,1,,,,,,,,,,,,,,,,,,,,,,,,0.163565922,-0.164728702,0,0,0,,,,,,,JUNGLE,LB,m,m,./images/JUNGLELB.png,,,,,,,m,1,0.6121,,,,,,,,0,2,2,83,1
,,,,,,,,,,,,,,,,,199129,18,2022-01-28_17h12.01.675,lexical_decision_task_DD,2021.2.3,Win32,59.672992,,,,,,,,,,,,0.5227,1,,,,,,,,,,,,,,,,,,,,,,,,0.163565922,-0.164728702,0,0,0,,,,,,,PAINT,HB,m,m,./images/PAINTHB.png,,,,,,,m,1,0.5227,,,,,,,,0,3,3,7,1
,,,,,,,,,,,,,,,,,199129,18,2022-01-28_17h12.01.675,lexical_decision_task_DD,2021.2.3,Win32,59.672992,,,,,,,,,,,,0.6924,1,,,,,,,,,,,,,,,,,,,,,,,,0.163565922,-0.164728702,0,0,0,,,,,,,BANANA,HB,z,m,./images/BANANAHB.png,,,,,,,z,1,0.6924,,,,,,,,0,4,4,154,1
,,,,,,,,,,,,,,,,,199129,18,2022-01-28_17h12.01.675,lexical_decision_task_DD,2021.2.3,Win32,59.672992,,,,,,,,,,,,0.916,1,,,,,,,,,,,,,,,,,,,,,,,,0.163565922,-0.164728702,0,0,0,,,,,,,CRUMB,LB,m,m,./images/CRUMBLB.png,,,,,,,m,1,0.916,,,,,,,,0,5,5,29,1
,,,,,,,,,,,,,,,,,199129,18,2022-01-28_17h12.01.675,lexical_decision_task_DD,2021.2.3,Win32,59.672992,,,,,,,,,,,,1.5557,1,,,,,,,,,,,,,,,,,,,,,,,,0.163565922,-0.164728702,0,0,0,,,,,,,COUCH,LB,m,m,./images/COUCHLB.png,,,,,,,m,1,1.5557,,,,,,,,0,6,6,77,1
,,,,,,,,,,,,,,,,,199129,18,2022-01-28_17h12.01.675,lexical_decision_task_DD,2021.2.3,Win32,59.672992,,,,,,,,,,,,0.7043,1,,,,,,,,,,,,,,,,,,,,,,,,0.163565922,-0.164728702,0,0,0,,,,,,,SAUNA,C,z,m,./images/SAUNA.png,,,,,,,z,1,0.7043,,,,,,,,0,7,7,117,1
,,,,,,,,,,,,,,,,,199129,18,2022-01-28_17h12.01.675,lexical_decision_task_DD,2021.2.3,Win32,59.672992,,,,,,,,,,,,0.6237,1,,,,,,,,,,,,,,,,,,,,,,,,0.163565922,-0.164728702,0,0,0,,,,,,,MAGGOT,C,m,m,./images/MAGGOT.png,,,,,,,m,1,0.6237,,,,,,,,0,8,8,33,1
,,,,,,,,,,,,,,,,,199129,18,2022-01-28_17h12.01.675,lexical_decision_task_DD,2021.2.3,Win32,59.672992,,,,,,,,,,,,0.6296,1,,,,,,,,,,,,,,,,,,,,,,,,0.163565922,-0.164728702,0,0,0,,,,,,,MOSQUE,HB,m,m,./images/MOSQUEHB.png,,,,,,,m,1,0.6296,,,,,,,,0,9,9,43,1
,,,,,,,,,,,,,,,,,199129,18,2022-01-28_17h12.01.675,lexical_decision_task_DD,2021.2.3,Win32,59.672992,,,,,,,,,,,,1.2346,0,,,,,,,,,,,,,,,,,,,,,,,,0.163565922,-0.164728702,0,0,0,,,,,,,PEARL,HB,m,m,./images/PEARLHB.png,,,,,,,z,0,1.2346,,,,,,,,0,10,10,46,1
,,,,,,,,,,,,,,,,,199129,18,2022-01-28_17h12.01.675,lexical_decision_task_DD,2021.2.3,Win32,59.672992,,,,,,,,,,,,0.7475,1,,,,,,,,,,,,,,,,,,,,,,,,0.163565922,-0.164728702,0,0,0,,,,,,,POODLE,C,m,m,./images/POODLE.png,,,,,,,m,1,0.7475,,,,,,,,0,11,11,81,1
,,,,,,,,,,,,,,,,,199129,18,2022-01-28_17h12.01.675,lexical_decision_task_DD,2021.2.3,Win32,59.672992,,,,,,,,,,,,0.7999,1,,,,,,,,,,,,,,,,,,,,,,,,0.163565922,-0.164728702,0,0,0,,,,,,,ENGINE,LB,z,m,./images/ENGINELB.png,,,,,,,z,1,0.7999,,,,,,,,0,12,12,122,1
,,,,,,,,,,,,,,,,,199129,18,2022-01-28_17h12.01.675,lexical_decision_task_DD,2021.2.3,Win32,59.672992,,,,,,,,,,,,0.6363,1,,,,,,,,,,,,,,,,,,,,,,,,0.163565922,-0.164728702,0,0,0,,,,,,,MUSCLE,HB,m,m,./images/MUSCLEHB.png,,,,,,,m,1,0.6363,,,,,,,,0,13,13,4,1
,,,,,,,,,,,,,,,,,199129,18,2022-01-28_17h12.01.675,lexical_decision_task_DD,2021.2.3,Win32,59.672992,,,,,,,,,,,,1.9846,1,,,,,,,,,,,,,,,,,,,,,,,,0.163565922,-0.164728702,0,0,0,,,,,,,STREAM,LB,z,m,./images/STREAMLB.png,,,,,,,z,1,1.9846,,,,,,,,0,14,14,125,1
,,,,,,,,,,,,,,,,,199129,18,2022-01-28_17h12.01.675,lexical_decision_task_DD,2021.2.3,Win32,59.672992,,,,,,,,,,,,1.192,1,,,,,,,,,,,,,,,,,,,,,,,,0.163565922,-0.164728702,0,0,0,,,,,,,MOTOR,HB,m,m,./images/MOTORHB.png,,,,,,,m,1,1.192,,,,,,,,0,15,15,13,1
,,,,,,,,,,,,,,,,,199129,18,2022-01-28_17h12.01.675,lexical_decision_task_DD,2021.2.3,Win32,59.672992,,,,,,,,,,,,0.6192,0,,,,,,,,,,,,,,,,,,,,,,,,0.163565922,-0.164728702,0,0,0,,,,,,,RULER,HB,z,m,./images/RULERHB.png,,,,,,,m,0,0.6192,,,,,,,,0,16,16,163,1
,,,,,,,,,,,,,,,,,199129,18,2022-01-28_17h12.01.675,lexical_decision_task_DD,2021.2.3,Win32,59.672992,,,,,,,,,,,,1.0017,1,,,,,,,,,,,,,,,,,,,,,,,,0.163565922,-0.164728702,0,0,0,,,,,,,BURIAL,LB,m,m,./images/BURIALLB.png,,,,,,,m,1,1.0017,,,,,,,,0,17,17,59,1
,,,,,,,,,,,,,,,,,199129,18,2022-01-28_17h12.01.675,lexical_decision_task_DD,2021.2.3,Win32,59.672992,,,,,,,,,,,,0.6671,1,,,,,,,,,,,,,,,,,,,,,,,,0.163565922,-0.164728702,0,0,0,,,,,,,PLANET,LB,z,m,./images/PLANETLB.png,,,,,,,z,1,0.6671,,,,,,,,0,18,18,164,1
,,,,,,,,,,,,,,,,,199129,18,2022-01-28_17h12.01.675,lexical_decision_task_DD,2021.2.3,Win32,59.672992,,,,,,,,,,,,0.7122,1,,,,,,,,,,,,,,,,,,,,,,,,0.163565922,-0.164728702,0,0,0,,,,,,,CRATER,C,z,m,./images/CRATER.png,,,,,,,z,1,0.7122,,,,,,,,0,19,19,87,1
,,,,,,,,,,,,,,,,,199129,18,2022-01-28_17h12.01.675,lexical_decision_task_DD,2021.2.3,Win32,59.672992,,,,,,,,,,,,0.6959,0,,,,,,,,,,,,,,,,,,,,,,,,0.163565922,-0.164728702,0,0,0,,,,,,,RHINO,C,m,m,./images/RHINO.png,,,,,,,z,0,0.6959,,,,,,,,0,20,20,9,1
,,,,,,,,,,,,,,,,,199129,18,2022-01-28_17h12.01.675,lexical_decision_task_DD,2021.2.3,Win32,59.672992,,,,,,,,,,,,1.246,1,,,,,,,,,,,,,,,,,,,,,,,,0.163565922,-0.164728702,0,0,0,,,,,,,PENCE,HB,m,m,./images/PENCEHB.png,,,,,,,m,1,1.246,,,,,,,,0,21,21,16,1
,,,,,,,,,,,,,,,,,199129,18,2022-01-28_17h12.01.675,lexical_decision_task_DD,2021.2.3,Win32,59.672992,,,,,,,,,,,,0.8522,1,,,,,,,,,,,,,,,,,,,,,,,,0.163565922,-0.164728702,0,0,0,,,,,,,SWEAT,C,m,m,./images/SWEAT.png,,,,,,,m,1,0.8522,,,,,,,,0,22,22,66,1
,,,,,,,,,,,,,,,,,199129,18,2022-01-28_17h12.01.675,lexical_decision_task_DD,2021.2.3,Win32,59.672992,,,,,,,,,,,,0.8553,0,,,,,,,,,,,,,,,,,,,,,,,,0.163565922,-0.164728702,0,0,0,,,,,,,SWING,HB,m,m,./images/SWINGHB.png,,,,,,,z,0,0.8553,,,,,,,,0,23,23,40,1
,,,,,,,,,,,,,,,,,199129,18,2022-01-28_17h12.01.675,lexical_decision_task_DD,2021.2.3,Win32,59.672992,,,,,,,,,,,,0.6629,1,,,,,,,,,,,,,,,,,,,,,,,,0.163565922,-0.164728702,0,0,0,,,,,,,SCREW,C,m,m,./images/SCREW.png,,,,,,,m,1,0.6629,,,,,,,,0,24,24,24,1
,,,,,,,,,,,,,,,,,199129,18,2022-01-28_17h12.01.675,lexical_decision_task_DD,2021.2.3,Win32,59.672992,,,,,,,,,,,,0.7803,0,,,,,,,,,,,,,,,,,,,,,,,,0.163565922,-0.164728702,0,0,0,,,,,,,KITTEN,C,m,m,./images/KITTEN.png,,,,,,,z,0,0.7803,,,,,,,,0,25,25,45,1
,,,,,,,,,,,,,,,,,199129,18,2022-01-28_17h12.01.675,lexical_decision_task_DD,2021.2.3,Win32,59.672992,,,,,,,,,,,,0.5534,0,,,,,,,,,,,,,,,,,,,,,,,,0.163565922,-0.164728702,0,0,0,,,,,,,WHEEL,LB,z,m,./images/WHEELLB.png,,,,,,,m,0,0.5534,,,,,,,,0,26,26,161,1
,,,,,,,,,,,,,,,,,199129,18,2022-01-28_17h12.01.675,lexical_decision_task_DD,2021.2.3,Win32,59.672992,,,,,,,,,,,,0.5195,0,,,,,,,,,,,,,,,,,,,,,,,,0.163565922,-0.164728702,0,0,0,,,,,,,CLIFF,LB,z,m,./images/CLIFFLB.png,,,,,,,m,0,0.5195,,,,,,,,0,27,27,92,1
,,,,,,,,,,,,,,,,,199129,18,2022-01-28_17h12.01.675,lexical_decision_task_DD,2021.2.3,Win32,59.672992,,,,,,,,,,,,0.5195,1,,,,,,,,,,,,,,,,,,,,,,,,0.163565922,-0.164728702,0,0,0,,,,,,,THROAT,C,m,m,./images/THROAT.png,,,,,,,m,1,0.5195,,,,,,,,0,28,28,36,1
,,,,,,,,,,,,,,,,,199129,18,2022-01-28_17h12.01.675,lexical_decision_task_DD,2021.2.3,Win32,59.672992,,,,,,,,,,,,0.8824,1,,,,,,,,,,,,,,,,,,,,,,,,0.163565922,-0.164728702,0,0,0,,,,,,,PICKLE,LB,m,m,./images/PICKLELB.png,,,,,,,m,1,0.8824,,,,,,,,0,29,29,14,1
,,,,,,,,,,,,,,,,,199129,18,2022-01-28_17h12.01.675,lexical_decision_task_DD,2021.2.3,Win32,59.672992,,,,,,,,,,,,0.49,1,,,,,,,,,,,,,,,,,,,,,,,,0.163565922,-0.164728702,0,0,0,,,,,,,PEBBLE,HB,z,m,./images/PEBBLEHB.png,,,,,,,z,1,0.49,,,,,,,,0,30,30,166,1
,,,,,,,,,,,,,,,,,199129,18,2022-01-28_17h12.01.675,lexical_decision_task_DD,2021.2.3,Win32,59.672992,,,,,,,,,,,,0.9633,1,,,,,,,,,,,,,,,,,,,,,,,,0.163565922,-0.164728702,0,0,0,,,,,,,GREASE,C,m,m,./images/GREASE.png,,,,,,,m,1,0.9633,,,,,,,,0,31,31,15,1
,,,,,,,,,,,,,,,,,199129,18,2022-01-28_17h12.01.675,lexical_decision_task_DD,2021.2.3,Win32,59.672992,,,,,,,,,,,,0.6963,1,,,,,,,,,,,,,,,,,,,,,,,,0.163565922,-0.164728702,0,0,0,,,,,,,MUMMY,HB,z,m,./images/MUMMYHB.png,,,,,,,z,1,0.6963,,,,,,,,0,32,32,130,1
,,,,,,,,,,,,,,,,,199129,18,2022-01-28_17h12.01.675,lexical_decision_task_DD,2021.2.3,Win32,59.672992,,,,,,,,,,,,1.1172,1,,,,,,,,,,,,,,,,,,,,,,,,0.163565922,-0.164728702,0,0,0,,,,,,,PILOT,LB,z,m,./images/PILOTLB.png,,,,,,,z,1,1.1172,,,,,,,,0,33,33,134,1
,,,,,,,,,,,,,,,,,199129,18,2022-01-28_17h12.01.675,lexical_decision_task_DD,2021.2.3,Win32,59.672992,,,,,,,,,,,,1.6812,1,,,,,,,,,,,,,,,,,,,,,,,,0.163565922,-0.164728702,0,0,0,,,,,,,STAIN,C,z,m,./images/STAIN.png,,,,,,,z,1,1.6812,,,,,,,,0,34,34,90,1
,,,,,,,,,,,,,,,,,199129,18,2022-01-28_17h12.01.675,lexical_decision_task_DD,2021.2.3,Win32,59.672992,,,,,,,,,,,,0.6712,1,,,,,,,,,,,,,,,,,,,,,,,,0.163565922,-0.164728702,0,0,0,,,,,,,JAGUAR,C,m,m,./images/JAGUAR.png,,,,,,,m,1,0.6712,,,,,,,,0,35,35,18,1
,,,,,,,,,,,,,,,,,199129,18,2022-01-28_17h12.01.675,lexical_decision_task_DD,2021.2.3,Win32,59.672992,,,,,,,,,,,,0.6862,1,,,,,,,,,,,,,,,,,,,,,,,,0.163565922,-0.164728702,0,0,0,,,,,,,SNACK,HB,m,m,./images/SNACKHB.png,,,,,,,m,1,0.6862,,,,,,,,0,36,36,73,1
,,,,,,,,,,,,,,,,,199129,18,2022-01-28_17h12.01.675,lexical_decision_task_DD,2021.2.3,Win32,59.672992,,,,,,,,,,,,0.6959,1,,,,,,,,,,,,,,,,,,,,,,,,0.163565922,-0.164728702,0,0,0,,,,,,,COOKER,C,m,m,./images/COOKER.png,,,,,,,m,1,0.6959,,,,,,,,0,37,37,69,1
,,,,,,,,,,,,,,,,,199129,18,2022-01-28_17h12.01.675,lexical_decision_task_DD,2021.2.3,Win32,59.672992,,,,,,,,,,,,0.9666,1,,,,,,,,,,,,,,,,,,,,,,,,0.163565922,-0.164728702,0,0,0,,,,,,,BABOON,HB,m,m,./images/BABOONHB.png,,,,,,,m,1,0.9666,,,,,,,,0,38,38,58,1
,,,,,,,,,,,,,,,,,199129,18,2022-01-28_17h12.01.675,lexical_decision_task_DD,2021.2.3,Win32,59.672992,,,,,,,,,,,,0.2903,0,,,,,,,,,,,,,,,,,,,,,,,,0.163565922,-0.164728702,0,0,0,,,,,,,SLOPE,C,z,m,./images/SLOPE.png,,,,,,,m,0,0.2903,,,,,,,,0,39,39,114,1
,,,,,,,,,,,,,,,,,199129,18,2022-01-28_17h12.01.675,lexical_decision_task_DD,2021.2.3,Win32,59.672992,,,,,,,,,,,,0.0875,1,,,,,,,,,,,,,,,,,,,,,,,,0.163565922,-0.164728702,0,0,0,,,,,,,FOLDER,C,m,m,./images/FOLDER.png,,,,,,,m,1,0.0875,,,,,,,,0,40,40,42,1
,,,,,,,,,,,,,,,,,199129,18,2022-01-28_17h12.01.675,lexical_decision_task_DD,2021.2.3,Win32,59.672992,,,,,,,,,,,,0.0871,1,,,,,,,,,,,,,,,,,,,,,,,,0.163565922,-0.164728702,0,0,0,space,,,,,,GRANNY,LB,z,m,./images/GRANNYLB.png,1.1535,,,,,,z,1,0.0871,,,,,,,,0,41,41,104,1
,,,,,,,,,,,,,,,,,199129,18,2022-01-28_17h12.01.675,lexical_decision_task_DD,2021.2.3,Win32,59.672992,,,,,,,,,,,,0.1014,0,,,,,,,,,,,,,,,,,,,,,,,,0.163565922,-0.164728702,0,0,0,,,,,,,GLOVE,HB,z,m,./images/GLOVEHB.png,,,,,,,m,0,0.1014,,,,,,,,0,42,42,157,1
,,,,,,,,,,,,,,,,,199129,18,2022-01-28_17h12.01.675,lexical_decision_task_DD,2021.2.3,Win32,59.672992,,,,,,,,,,,,0.0243,1,,,,,,,,,,,,,,,,,,,,,,,,0.163565922,-0.164728702,0,0,0,,,,,,,CANOE,HB,z,m,./images/CANOEHB.png,,,,,,,z,1,0.0243,,,,,,,,0,43,43,142,1
,,,,,,,,,,,,,,,,,199129,18,2022-01-28_17h12.01.675,lexical_decision_task_DD,2021.2.3,Win32,59.672992,,,,,,,,,,,,0.0185,1,,,,,,,,,,,,,,,,,,,,,,,,0.163565922,-0.164728702,0,0,0,,,,,,,GARDEN,HB,z,m,./images/GARDENHB.png,,,,,,,z,1,0.0185,,,,,,,,0,44,44,94,1
,,,,,,,,,,,,,,,,,199129,18,2022-01-28_17h12.01.675,lexical_decision_task_DD,2021.2.3,Win32,59.672992,,,,,,,,,,,,0.0294,0,,,,,,,,,,,,,,,,,,,,,,,,0.163565922,-0.164728702,0,0,0,,,,,,,DONKEY,HB,z,m,./images/DONKEYHB.png,,,,,,,m,0,0.0294,,,,,,,,0,45,45,103,1
,,,,,,,,,,,,,,,,,199129,18,2022-01-28_17h12.01.675,lexical_decision_task_DD,2021.2.3,Win32,59.672992,,,,,,,,,,,,0.0714,1,,,,,,,,,,,,,,,,,,,,,,,,0.163565922,-0.164728702,0,0,0,,,,,,,BONNET,LB,m,m,./images/BONNETLB.png,,,,,,,m,1,0.0714,,,,,,,,0,46,46,11,1
,,,,,,,,,,,,,,,,,199129,18,2022-01-28_17h12.01.675,lexical_decision_task_DD,2021.2.3,Win32,59.672992,,,,,,,,,,,,0.182,1,,,,,,,,,,,,,,,,,,,,,,,,0.163565922,-0.164728702,0,0,0,,,,,,,PIMPLE,LB,m,m,./images/PIMPLELB.png,,,,,,,m,1,0.182,,,,,,,,0,47,47,71,1
,,,,,,,,,,,,,,,,,199129,18,2022-01-28_17h12.01.675,lexical_decision_task_DD,2021.2.3,Win32,59.672992,,,,,,,,,,,,0.101,1,,,,,,,,,,,,,,,,,,,,,,,,0.163565922,-0.164728702,0,0,0,,,,,,,MAMMAL,LB,z,m,./images/MAMMALLB.png,,,,,,,z,1,0.101,,,,,,,,0,48,48,146,1
,,,,,,,,,,,,,,,,,199129,18,2022-01-28_17h12.01.675,lexical_decision_task_DD,2021.2.3,Win32,59.672992,,,,,,,,,,,,0.0518,1,,,,,,,,,,,,,,,,,,,,,,,,0.163565922,-0.164728702,0,0,0,,,,,,,COLLAR,C,z,m,./images/COLLAR.png,,,,,,,z,1,0.0518,,,,,,,,0,49,49,99,1
,,,,,,,,,,,,,,,,,199129,18,2022-01-28_17h12.01.675,lexical_decision_task_DD,2021.2.3,Win32,59.672992,,,,,,,,,,,,0.0455,0,,,,,,,,,,,,,,,,,,,,,,,,0.163565922,-0.164728702,0,0,0,,,,,,,CRUST,HB,m,m,./images/CRUSTHB.png,,,,,,,z,0,0.0455,,,,,,,,0,50,50,79,1
,,,,,,,,,,,,,,,,,199129,18,2022-01-28_17h12.01.675,lexical_decision_task_DD,2021.2.3,Win32,59.672992,,,,,,,,,,,,0.6825,1,,,,,,,,,,,,,,,,,,,,,,,,0.163565922,-0.164728702,0,0,0,,,,,,,PLANK,HB,m,m,./images/PLANKHB.png,,,,,,,m,1,0.6825,,,,,,,,0,51,51,1,1
,,,,,,,,,,,,,,,,,199129,18,2022-01-28_17h12.01.675,lexical_decision_task_DD,2021.2.3,Win32,59.672992,,,,,,,,,,,,0.6507,1,,,,,,,,,,,,,,,,,,,,,,,,0.163565922,-0.164728702,0,0,0,,,,,,,BLOKE,C,z,m,./images/BLOKE.png,,,,,,,z,1,0.6507,,,,,,,,0,52,52,96,1
,,,,,,,,,,,,,,,,,199129,18,2022-01-28_17h12.01.675,lexical_decision_task_DD,2021.2.3,Win32,59.672992,,,,,,,,,,,,1.0129,1,,,,,,,,,,,,,,,,,,,,,,,,0.163565922,-0.164728702,0,0,0,,,,,,,DRUMS,HB,m,m,./images/DRUMSHB.png,,,,,,,m,1,1.0129,,,,,,,,0,53,53,49,1
,,,,,,,,,,,,,,,,,199129,18,2022-01-28_17h12.01.675,lexical_decision_task_DD,2021.2.3,Win32,59.672992,,,,,,,,,,,,1.1872,1,,,,,,,,,,,,,,,,,,,,,,,,0.163565922,-0.164728702,0,0,0,,,,,,,ARTIST,HB,z,m,./images/ARTISTHB.png,,,,,,,z,1,1.1872,,,,,,,,0,54,54,145,1
,,,,,,,,,,,,,,,,,199129,18,2022-01-28_17h12.01.675,lexical_decision_task_DD,2021.2.3,Win32,59.672992,,,,,,,,,,,,1.5661,1,,,,,,,,,,,,,,,,,,,,,,,,0.163565922,-0.164728702,0,0,0,,,,,,,URINE,HB,m,m,./images/URINEHB.png,,,,,,,m,1,1.5661,,,,,,,,0,55,55,70,1
,,,,,,,,,,,,,,,,,199129,18,2022-01-28_17h12.01.675,lexical_decision_task_DD,2021.2.3,Win32,59.672992,,,,,,,,,,,,0.638,1,,,,,,,,,,,,,,,,,,,,,,,,0.163565922,-0.164728702,0,0,0,,,,,,,BELLY,HB,m,m,./images/BELLYHB.png,,,,,,,m,1,0.638,,,,,,,,0,56,56,10,1
,,,,,,,,,,,,,,,,,199129,18,2022-01-28_17h12.01.675,lexical_decision_task_DD,2021.2.3,Win32,59.672992,,,,,,,,,,,,1.0118,0,,,,,,,,,,,,,,,,,,,,,,,,0.163565922,-0.164728702,0,0,0,,,,,,,CHAIN,C,z,m,./images/CHAIN.png,,,,,,,m,0,1.0118,,,,,,,,0,57,57,126,1
,,,,,,,,,,,,,,,,,199129,18,2022-01-28_17h12.01.675,lexical_decision_task_DD,2021.2.3,Win32,59.672992,,,,,,,,,,,,0.5646,0,,,,,,,,,,,,,,,,,,,,,,,,0.163565922,-0.164728702,0,0,0,,,,,,,FALCON,HB,m,m,./images/FALCONHB.png,,,,,,,z,0,0.5646,,,,,,,,0,58,58,28,1
,,,,,,,,,,,,,,,,,199129,18,2022-01-28_17h12.01.675,lexical_decision_task_DD,2021.2.3,Win32,59.672992,,,,,,,,,,,,0.6847,0,,,,,,,,,,,,,,,,,,,,,,,,0.163565922,-0.164728702,0,0,0,,,,,,,PEACH,LB,m,m,./images/PEACHLB.png,,,,,,,z,0,0.6847,,,,,,,,0,59,59,35,1
,,,,,,,,,,,,,,,,,199129,18,2022-01-28_17h12.01.675,lexical_decision_task_DD,2021.2.3,Win32,59.672992,,,,,,,,,,,,0.2691,1,,,,,,,,,,,,,,,,,,,,,,,,0.163565922,-0.164728702,0,0,0,,,,,,,SQUARE,C,m,m,./images/SQUARE.png,,,,,,,m,1,0.2691,,,,,,,,0,60,60,6,1
,,,,,,,,,,,,,,,,,199129,18,2022-01-28_17h12.01.675,lexical_decision_task_DD,2021.2.3,Win32,59.672992,,,,,,,,,,,,0.5062,1,,,,,,,,,,,,,,,,,,,,,,,,0.163565922,-0.164728702,0,0,0,,,,,,,KIDNEY,C,m,m,./images/KIDNEY.png,,,,,,,m,1,0.5062,,,,,,,,0,61,61,21,1
,,,,,,,,,,,,,,,,,199129,18,2022-01-28_17h12.01.675,lexical_decision_task_DD,2021.2.3,Win32,59.672992,,,,,,,,,,,,0.2995,0,,,,,,,,,,,,,,,,,,,,,,,,0.163565922,-0.164728702,0,0,0,,,,,,,MIDGET,HB,z,m,./images/MIDGETHB.png,,,,,,,m,0,0.2995,,,,,,,,0,62,62,160,1
,,,,,,,,,,,,,,,,,199129,18,2022-01-28_17h12.01.675,lexical_decision_task_DD,2021.2.3,Win32,59.672992,,,,,,,,,,,,0.0456,1,,,,,,,,,,,,,,,,,,,,,,,,0.163565922,-0.164728702,0,0,0,,,,,,,BANNER,HB,m,m,./images/BANNERHB.png,,,,,,,m,1,0.0456,,,,,,,,0,63,63,52,1
,,,,,,,,,,,,,,,,,199129,18,2022-01-28_17h12.01.675,lexical_decision_task_DD,2021.2.3,Win32,59.672992,,,,,,,,,,,,0.0508,1,,,,,,,,,,,,,,,,,,,,,,,,0.163565922,-0.164728702,0,0,0,,,,,,,JELLY,HB,m,m,./images/JELLYHB.png,,,,,,,m,1,0.0508,,,,,,,,0,64,64,64,1
,,,,,,,,,,,,,,,,,199129,18,2022-01-28_17h12.01.675,lexical_decision_task_DD,2021.2.3,Win32,59.672992,,,,,,,,,,,,0.2506,0,,,,,,,,,,,,,,,,,,,,,,,,0.163565922,-0.164728702,0,0,0,,,,,,,RAZOR,HB,z,m,./images/RAZORHB.png,,,,,,,m,0,0.2506,,,,,,,,0,65,65,118,1
,,,,,,,,,,,,,,,,,199129,18,2022-01-28_17h12.01.675,lexical_decision_task_DD,2021.2.3,Win32,59.672992,,,,,,,,,,,,0.0876,0,,,,,,,,,,,,,,,,,,,,,,,,0.163565922,-0.164728702,0,0,0,,,,,,,STOOL,HB,z,m,./images/STOOLHB.png,,,,,,,m,0,0.0876,,,,,,,,0,66,66,127,1
,,,,,,,,,,,,,,,,,199129,18,2022-01-28_17h12.01.675,lexical_decision_task_DD,2021.2.3,Win32,59.672992,,,,,,,,,,,,0.1659,1,,,,,,,,,,,,,,,,,,,,,,,,0.163565922,-0.164728702,0,0,0,,,,,,,MOOSE,C,m,m,./images/MOOSE.png,,,,,,,m,1,0.1659,,,,,,,,0,67,67,57,1
,,,,,,,,,,,,,,,,,199129,18,2022-01-28_17h12.01.675,lexical_decision_task_DD,2021.2.3,Win32,59.672992,,,,,,,,,,,,0.1168,1,,,,,,,,,,,,,,,,,,,,,,,,0.163565922,-0.164728702,0,0,0,,,,,,,GRAIN,C,m,m,./images/GRAIN.png,,,,,,,m,1,0.1168,,,,,,,,0,68,68,75,1
,,,,,,,,,,,,,,,,,199129,18,2022-01-28_17h12.01.675,lexical_decision_task_DD,2021.2.3,Win32,59.672992,,,,,,,,,,,,0.0207,1,,,,,,,,,,,,,,,,,,,,,,,,0.163565922,-0.164728702,0,0,0,,,,,,,CARPET,LB,m,m,./images/CARPETLB.png,,,,,,,m,1,0.0207,,,,,,,,0,69,69,53,1
,,,,,,,,,,,,,,,,,199129,18,2022-01-28_17h12.01.675,lexical_decision_task_DD,2021.2.3,Win32,59.672992,,,,,,,,,,,,0.0181,1,,,,,,,,,,,,,,,,,,,,,,,,0.163565922,-0.164728702,0,0,0,,,,,,,TULIP,LB,m,m,./images/TULIPLB.png,,,,,,,m,1,0.0181,,,,,,,,0,70,70,8,1
,,,,,,,,,,,,,,,,,199129,18,2022-01-28_17h12.01.675,lexical_decision_task_DD,2021.2.3,Win32,59.672992,,,,,,,,,,,,0.1515,1,,,,,,,,,,,,,,,,,,,,,,,,0.163565922,-0.164728702,0,0,0,,,,,,,TOMATO,C,m,m,./images/TOMATO.png,,,,,,,m,1,0.1515,,,,,,,,0,71,71,0,1
,,,,,,,,,,,,,,,,,199129,18,2022-01-28_17h12.01.675,lexical_decision_task_DD,2021.2.3,Win32,59.672992,,,,,,,,,,,,0.029,0,,,,,,,,,,,,,,,,,,,,,,,,0.163565922,-0.164728702,0,0,0,,,,,,,BUBBLE,LB,z,m,./images/BUBBLELB.png,,,,,,,m,0,0.029,,,,,,,,0,72,72,155,1
,,,,,,,,,,,,,,,,,199129,18,2022-01-28_17h12.01.675,lexical_decision_task_DD,2021.2.3,Win32,59.672992,,,,,,,,,,,,0.3423,1,,,,,,,,,,,,,,,,,,,,,,,,0.163565922,-0.164728702,0,0,0,,,,,,,PURSE,LB,m,m,./images/PURSELB.png,,,,,,,m,1,0.3423,,,,,,,,0,73,73,62,1
,,,,,,,,,,,,,,,,,199129,18,2022-01-28_17h12.01.675,lexical_decision_task_DD,2021.2.3,Win32,59.672992,,,,,,,,,,,,0.7504,1,,,,,,,,,,,,,,,,,,,,,,,,0.163565922,-0.164728702,0,0,0,,,,,,,BUTTER,C,z,m,./images/BUTTER.png,,,,,,,z,1,0.7504,,,,,,,,0,74,74,111,1
,,,,,,,,,,,,,,,,,199129,18,2022-01-28_17h12.01.675,lexical_decision_task_DD,2021.2.3,Win32,59.672992,,,,,,,,,,,,0.1665,1,,,,,,,,,,,,,,,,,,,,,,,,0.163565922,-0.164728702,0,0,0,,,,,,,TRIPOD,C,m,m,./images/TRIPOD.png,,,,,,,m,1,0.1665,,,,,,,,0,75,75,54,1
,,,,,,,,,,,,,,,,,199129,18,2022-01-28_17h12.01.675,lexical_decision_task_DD,2021.2.3,Win32,59.672992,,,,,,,,,,,,0.0591,1,,,,,,,,,,,,,,,,,,,,,,,,0.163565922,-0.164728702,0,0,0,,,,,,,MELON,HB,m,m,./images/MELONHB.png,,,,,,,m,1,0.0591,,,,,,,,0,76,76,22,1
,,,,,,,,,,,,,,,,,199129,18,2022-01-28_17h12.01.675,lexical_decision_task_DD,2021.2.3,Win32,59.672992,,,,,,,,,,,,0.1186,1,,,,,,,,,,,,,,,,,,,,,,,,0.163565922,-0.164728702,0,0,0,,,,,,,CEMENT,LB,m,m,./images/CEMENTLB.png,,,,,,,m,1,0.1186,,,,,,,,0,77,77,74,1
,,,,,,,,,,,,,,,,,199129,18,2022-01-28_17h12.01.675,lexical_decision_task_DD,2021.2.3,Win32,59.672992,,,,,,,,,,,,0.8173,1,,,,,,,,,,,,,,,,,,,,,,,,0.163565922,-0.164728702,0,0,0,,,,,,,VALLEY,LB,z,m,./images/VALLEYLB.png,,,,,,,z,1,0.8173,,,,,,,,0,78,78,152,1
,,,,,,,,,,,,,,,,,199129,18,2022-01-28_17h12.01.675,lexical_decision_task_DD,2021.2.3,Win32,59.672992,,,,,,,,,,,,0.8498,1,,,,,,,,,,,,,,,,,,,,,,,,0.163565922,-0.164728702,0,0,0,,,,,,,LLAMA,LB,z,m,./images/LLAMALB.png,,,,,,,z,1,0.8498,,,,,,,,0,79,79,119,1
,,,,,,,,,,,,,,,,,199129,18,2022-01-28_17h12.01.675,lexical_decision_task_DD,2021.2.3,Win32,59.672992,,,,,,,,,,,,0.7507,0,,,,,,,,,,,,,,,,,,,,,,,,0.163565922,-0.164728702,0,0,0,,,,,,,FARMER,LB,m,m,./images/FARMERLB.png,,,,,,,z,0,0.7507,,,,,,,,0,80,80,65,1
,,,,,,,,,,,,,,,,,199129,18,2022-01-28_17h12.01.675,lexical_decision_task_DD,2021.2.3,Win32,59.672992,,,,,,,,,,,,0.6296,1,,,,,,,,,,,,,,,,,,,,,,,,0.163565922,-0.164728702,0,0,0,,,,,,,FINGER,C,m,m,./images/FINGER.png,,,,,,,m,1,0.6296,,,,,,,,0,81,81,3,1
,,,,,,,,,,,,,,,,,199129,18,2022-01-28_17h12.01.675,lexical_decision_task_DD,2021.2.3,Win32,59.672992,,,,,,,,,,,,0.3561,0,,,,,,,,,,,,,,,,,,,,,,,,0.163565922,-0.164728702,0,0,0,,,,,,,HAMMER,C,z,m,./images/HAMMER.png,,,,,,,m,0,0.3561,,,,,,,,0,82,82,159,1
,,,,,,,,,,,,,,,,,199129,18,2022-01-28_17h12.01.675,lexical_decision_task_DD,2021.2.3,Win32,59.672992,,,,,,,,,,,,0.2691,0,,,,,,,,,,,,,,,,,,,,,,,,0.163565922,-0.164728702,0,0,0,space,,,,,,CURRY,C,z,m,./images/CURRY.png,0.7585,,,,,,m,0,0.2691,,,,,,,,0,83,83,144,1
,,,,,,,,,,,,,,,,,199129,18,2022-01-28_17h12.01.675,lexical_decision_task_DD,2021.2.3,Win32,59.672992,,,,,,,,,,,,1.4502,1,,,,,,,,,,,,,,,,,,,,,,,,0.15503879,-0.165503943,0,0,0,,,,,,,PISTOL,LB,z,m,./images/PISTOLLB.png,,,,,,,z,1,1.4502,,,,,,,,0,84,84,113,1
,,,,,,,,,,,,,,,,,199129,18,2022-01-28_17h12.01.675,lexical_decision_task_DD,2021.2.3,Win32,59.672992,,,,,,,,,,,,1.8802,0,,,,,,,,,,,,,,,,,,,,,,,,0.081395377,-0.153100795,0,0,0,,,,,,,WRIST,HB,m,m,./images/WRISTHB.png,,,,,,,z,0,1.8802,,,,,,,,0,85,85,25,1
,,,,,,,,,,,,,,,,,199129,18,2022-01-28_17h12.01.675,lexical_decision_task_DD,2021.2.3,Win32,59.672992,,,,,,,,,,,,0.7889,0,,,,,,,,,,,,,,,,,,,,,,,,0.081395377,-0.153100795,0,0,0,,,,,,,SUNSET,HB,m,m,./images/SUNSETHB.png,,,,,,,z,0,0.7889,,,,,,,,0,86,86,82,1
,,,,,,,,,,,,,,,,,199129,18,2022-01-28_17h12.01.675,lexical_decision_task_DD,2021.2.3,Win32,59.672992,,,,,,,,,,,,0.7705,0,,,,,,,,,,,,,,,,,,,,,,,,0.081395377,-0.153100795,0,0,0,,,,,,,BERRY,LB,m,m,./images/BERRYLB.png,,,,,,,z,0,0.7705,,,,,,,,0,87,87,47,1
,,,,,,,,,,,,,,,,,199129,18,2022-01-28_17h12.01.675,lexical_decision_task_DD,2021.2.3,Win32,59.672992,,,,,,,,,,,,0.5322,0,,,,,,,,,,,,,,,,,,,,,,,,0.081395377,-0.153100795,0,0,0,,,,,,,CANYON,HB,m,m,./images/CANYONHB.png,,,,,,,z,0,0.5322,,,,,,,,0,88,88,34,1
,,,,,,,,,,,,,,,,,199129,18,2022-01-28_17h12.01.675,lexical_decision_task_DD,2021.2.3,Win32,59.672992,,,,,,,,,,,,0.9214,0,,,,,,,,,,,,,,,,,,,,,,,,0.081395377,-0.153100795,0,0,0,,,,,,,ATTIC,C,m,m,./images/ATTIC.png,,,,,,,z,0,0.9214,,,,,,,,0,89,89,27,1
,,,,,,,,,,,,,,,,,199129,18,2022-01-28_17h12.01.675,lexical_decision_task_DD,2021.2.3,Win32,59.672992,,,,,,,,,,,,1.3036,1,,,,,,,,,,,,,,,,,,,,,,,,0.081395377,-0.153100795,0,0,0,,,,,,,MIRROR,C,m,m,./images/MIRROR.png,,,,,,,m,1,1.3036,,,,,,,,0,90,90,63,1
,,,,,,,,,,,,,,,,,199129,18,2022-01-28_17h12.01.675,lexical_decision_task_DD,2021.2.3,Win32,59.672992,,,,,,,,,,,,0.7137,1,,,,,,,,,,,,,,,,,,,,,,,,0.081395377,-0.153100795,0,0,0,,,,,,,BOILER,C,z,m,./images/BOILER.png,,,,,,,z,1,0.7137,,,,,,,,0,91,91,120,1
,,,,,,,,,,,,,,,,,199129,18,2022-01-28_17h12.01.675,lexical_decision_task_DD,2021.2.3,Win32,59.672992,,,,,,,,,,,,0.4802,0,,,,,,,,,,,,,,,,,,,,,,,,0.081395377,-0.153100795,0,0,0,,,,,,,SMOKER,LB,m,m,./images/SMOKERLB.png,,,,,,,z,0,0.4802,,,,,,,,0,92,92,26,1
,,,,,,,,,,,,,,,,,199129,18,2022-01-28_17h12.01.675,lexical_decision_task_DD,2021.2.3,Win32,59.672992,,,,,,,,,,,,0.5013,0,,,,,,,,,,,,,,,,,,,,,,,,0.081395377,-0.153100795,0,0,0,,,,,,,POSTER,LB,z,m,./images/POSTERLB.png,,,,,,,m,0,0.5013,,,,,,,,0,93,93,137,1
,,,,,,,,,,,,,,,,,199129,18,2022-01-28_17h12.01.675,lexical_decision_task_DD,2021.2.3,Win32,59.672992,,,,,,,,,,,,0.3372,1,,,,,,,,,,,,,,,,,,,,,,,,0.081395377,-0.153100795,0,0,0,,,,,,,SPORT,C,m,m,./images/SPORT.png,,,,,,,m,1,0.3372,,,,,,,,0,94,94,48,1
,,,,,,,,,,,,,,,,,199129,18,2022-01-28_17h12.01.675,lexical_decision_task_DD,2021.2.3,Win32,59.672992,,,,,,,,,,,,0.0796,1,,,,,,,,,,,,,,,,,,,,,,,,0.081395377,-0.153100795,0,0,0,,,,,,,CANDY,C,z,m,./images/CANDY.png,,,,,,,z,1,0.0796,,,,,,,,0,95,95,123,1
,,,,,,,,,,,,,,,,,199129,18,2022-01-28_17h12.01.675,lexical_decision_task_DD,2021.2.3,Win32,59.672992,,,,,,,,,,,,0.0724,1,,,,,,,,,,,,,,,,,,,,,,,,0.081395377,-0.153100795,0,0,0,,,,,,,TWINS,C,m,m,./images/TWINS.png,,,,,,,m,1,0.0724,,,,,,,,0,96,96,60,1
,,,,,,,,,,,,,,,,,199129,18,2022-01-28_17h12.01.675,lexical_decision_task_DD,2021.2.3,Win32,59.672992,,,,,,,,,,,,0.0179,0,,,,,,,,,,,,,,,,,,,,,,,,0.081395377,-0.153100795,0,0,0,,,,,,,DANCER,C,z,m,./images/DANCER.png,,,,,,,m,0,0.0179,,,,,,,,0,97,97,105,1
,,,,,,,,,,,,,,,,,199129,18,2022-01-28_17h12.01.675,lexical_decision_task_DD,2021.2.3,Win32,59.672992,,,,,,,,,,,,0.0709,0,,,,,,,,,,,,,,,,,,,,,,,,0.081395377,-0.153100795,0,0,0,,,,,,,WALNUT,C,z,m,./images/WALNUT.png,,,,,,,m,0,0.0709,,,,,,,,0,98,98,84,1
,,,,,,,,,,,,,,,,,199129,18,2022-01-28_17h12.01.675,lexical_decision_task_DD,2021.2.3,Win32,59.672992,,,,,,,,,,,,0.0008,1,,,,,,,,,,,,,,,,,,,,,,,,0.081395377,-0.153100795,0,0,0,,,,,,,SKIING,LB,m,m,./images/SKIINGLB.png,,,,,,,m,1,0.0008,,,,,,,,0,99,99,17,1
,,,,,,,,,,,,,,,,,199129,18,2022-01-28_17h12.01.675,lexical_decision_task_DD,2021.2.3,Win32,59.672992,,,,,,,,,,,,0.1549,1,,,,,,,,,,,,,,,,,,,,,,,,0.081395377,-0.153100795,0,0,0,,,,,,,DRILL,C,z,m,./images/DRILL.png,,,,,,,z,1,0.1549,,,,,,,,0,100,100,165,1
,,,,,,,,,,,,,,,,,199129,18,2022-01-28_17h12.01.675,lexical_decision_task_DD,2021.2.3,Win32,59.672992,,,,,,,,,,,,0.1059,0,,,,,,,,,,,,,,,,,,,,,,,,0.081395377,-0.153100795,0,0,0,,,,,,,LAGOON,LB,z,m,./images/LAGOONLB.png,,,,,,,m,0,0.1059,,,,,,,,0,101,101,131,1
,,,,,,,,,,,,,,,,,199129,18,2022-01-28_17h12.01.675,lexical_decision_task_DD,2021.2.3,Win32,59.672992,,,,,,,,,,,,0.1274,0,,,,,,,,,,,,,,,,,,,,,,,,0.081395377,-0.153100795,0,0,0,,,,,,,PACKET,LB,m,m,./images/PACKETLB.png,,,,,,,z,0,0.1274,,,,,,,,0,102,102,56,1
,,,,,,,,,,,,,,,,,199129,18,2022-01-28_17h12.01.675,lexical_decision_task_DD,2021.2.3,Win32,59.672992,,,,,,,,,,,,0.0508,0,,,,,,,,,,,,,,,,,,,,,,,,0.081395377,-0.153100795,0,0,0,,,,,,,CLOWN,HB,z,m,./images/CLOWNHB.png,,,,,,,m,0,0.0508,,,,,,,,0,103,103,106,1
,,,,,,,,,,,,,,,,,199129,18,2022-01-28_17h12.01.675,lexical_decision_task_DD,2021.2.3,Win32,59.672992,,,,,,,,,,,,0.0463,1,,,,,,,,,,,,,,,,,,,,,,,,0.081395377,-0.153100795,0,0,0,,,,,,,CRADLE,LB,m,m,./images/CRADLELB.png,,,,,,,m,1,0.0463,,,,,,,,0,104,104,20,1
,,,,,,,,,,,,,,,,,199129,18,2022-01-28_17h12.01.675,lexical_decision_task_DD,2021.2.3,Win32,59.672992,,,,,,,,,,,,0.3811,0,,,,,,,,,,,,,,,,,,,,,,,,0.081395377,-0.153100795,0,0,0,,,,,,,TIGER,HB,z,m,./images/TIGERHB.png,,,,,,,m,0,0.3811,,,,,,,,0,105,105,121,1
,,,,,,,,,,,,,,,,,199129,18,2022-01-28_17h12.01.675,lexical_decision_task_DD,2021.2.3,Win32,59.672992,,,,,,,,,,,,0.3995,1,,,,,,,,,,,,,,,,,,,,,,,,0.081395377,-0.153100795,0,0,0,,,,,,,CLOTH,LB,z,m,./images/CLOTHLB.png,,,,,,,z,1,0.3995,,,,,,,,0,106,106,107,1
,,,,,,,,,,,,,,,,,199129,18,2022-01-28_17h12.01.675,lexical_decision_task_DD,2021.2.3,Win32,59.672992,,,,,,,,,,,,0.339,0,,,,,,,,,,,,,,,,,,,,,,,,0.081395377,-0.153100795,0,0,0,,,,,,,DIVER,C,z,m,./images/DIVER.png,,,,,,,m,0,0.339,,,,,,,,0,107,107,93,1
,,,,,,,,,,,,,,,,,199129,18,2022-01-28_17h12.01.675,lexical_decision_task_DD,2021.2.3,Win32,59.672992,,,,,,,,,,,,0.938,1,,,,,,,,,,,,,,,,,,,,,,,,0.081395377,-0.153100795,0,0,0,,,,,,,PASTA,LB,m,m,./images/PASTALB.png,,,,,,,m,1,0.938,,,,,,,,0,108,108,5,1
,,,,,,,,,,,,,,,,,199129,18,2022-01-28_17h12.01.675,lexical_decision_task_DD,2021.2.3,Win32,59.672992,,,,,,,,,,,,0.4414,0,,,,,,,,,,,,,,,,,,,,,,,,0.081395377,-0.153100795,0,0,0,,,,,,,BIRTH,HB,m,m,./images/BIRTHHB.png,,,,,,,z,0,0.4414,,,,,,,,0,109,109,37,1
,,,,,,,,,,,,,,,,,199129,18,2022-01-28_17h12.01.675,lexical_decision_task_DD,2021.2.3,Win32,59.672992,,,,,,,,,,,,0.4123,0,,,,,,,,,,,,,,,,,,,,,,,,0.081395377,-0.153100795,0,0,0,,,,,,,ARROW,C,z,m,./images/ARROW.png,,,,,,,m,0,0.4123,,,,,,,,0,110,110,153,1
,,,,,,,,,,,,,,,,,199129,18,2022-01-28_17h12.01.675,lexical_decision_task_DD,2021.2.3,Win32,59.672992,,,,,,,,,,,,1.2815,1,,,,,,,,,,,,,,,,,,,,,,,,0.081395377,-0.153100795,0,0,0,,,,,,,MUFFIN,HB,m,m,./images/MUFFINHB.png,,,,,,,m,1,1.2815,,,,,,,,0,111,111,55,1
,,,,,,,,,,,,,,,,,199129,18,2022-01-28_17h12.01.675,lexical_decision_task_DD,2021.2.3,Win32,59.672992,,,,,,,,,,,,0.5685,0,,,,,,,,,,,,,,,,,,,,,,,,0.081395377,-0.153100795,0,0,0,,,,,,,WAGON,HB,z,m,./images/WAGONHB.png,,,,,,,m,0,0.5685,,,,,,,,0,112,112,91,1
,,,,,,,,,,,,,,,,,199129,18,2022-01-28_17h12.01.675,lexical_decision_task_DD,2021.2.3,Win32,59.672992,,,,,,,,,,,,1.0291,1,,,,,,,,,,,,,,,,,,,,,,,,0.081395377,-0.153100795,0,0,0,,,,,,,PARADE,LB,z,m,./images/PARADELB.png,,,,,,,z,1,1.0291,,,,,,,,0,113,113,101,1
,,,,,,,,,,,,,,,,,199129,18,2022-01-28_17h12.01.675,lexical_decision_task_DD,2021.2.3,Win32,59.672992,,,,,,,,,,,,0.8588,1,,,,,,,,,,,,,,,,,,,,,,,,0.081395377,-0.153100795,0,0,0,,,,,,,BASKET,LB,z,m,./images/BASKETLB.png,,,,,,,z,1,0.8588,,,,,,,,0,114,114,128,1
,,,,,,,,,,,,,,,,,199129,18,2022-01-28_17h12.01.675,lexical_decision_task_DD,2021.2.3,Win32,59.672992,,,,,,,,,,,,0.7054,1,,,,,,,,,,,,,,,,,,,,,,,,0.081395377,-0.153100795,0,0,0,,,,,,,STATUE,C,z,m,./images/STATUE.png,,,,,,,z,1,0.7054,,,,,,,,0,115,115,150,1
,,,,,,,,,,,,,,,,,199129,18,2022-01-28_17h12.01.675,lexical_decision_task_DD,2021.2.3,Win32,59.672992,,,,,,,,,,,,0.8735,0,,,,,,,,,,,,,,,,,,,,,,,,0.081395377,-0.153100795,0,0,0,,,,,,,BAMBOO,LB,z,m,./images/BAMBOOLB.png,,,,,,,m,0,0.8735,,,,,,,,0,116,116,89,1
,,,,,,,,,,,,,,,,,199129,18,2022-01-28_17h12.01.675,lexical_decision_task_DD,2021.2.3,Win32,59.672992,,,,,,,,,,,,0.6115,0,,,,,,,,,,,,,,,,,,,,,,,,0.081395377,-0.153100795,0,0,0,,,,,,,BARREL,LB,m,m,./images/BARRELLB.png,,,,,,,z,0,0.6115,,,,,,,,0,117,117,32,1
,,,,,,,,,,,,,,,,,199129,18,2022-01-28_17h12.01.675,lexical_decision_task_DD,2021.2.3,Win32,59.672992,,,,,,,,,,,,0.4205,1,,,,,,,,,,,,,,,,,,,,,,,,0.081395377,-0.153100795,0,0,0,,,,,,,SHIELD,C,z,m,./images/SHIELD.png,,,,,,,z,1,0.4205,,,,,,,,0,118,118,132,1
,,,,,,,,,,,,,,,,,199129,18,2022-01-28_17h12.01.675,lexical_decision_task_DD,2021.2.3,Win32,59.672992,,,,,,,,,,,,0.4673,1,,,,,,,,,,,,,,,,,,,,,,,,0.081395377,-0.153100795,0,0,0,,,,,,,BAKER,C,z,m,./images/BAKER.png,,,,,,,z,1,0.4673,,,,,,,,0,119,119,147,1
,,,,,,,,,,,,,,,,,199129,18,2022-01-28_17h12.01.675,lexical_decision_task_DD,2021.2.3,Win32,59.672992,,,,,,,,,,,,0.3557,0,,,,,,,,,,,,,,,,,,,,,,,,0.081395377,-0.153100795,0,0,0,,,,,,,GRAPE,HB,z,m,./images/GRAPEHB.png,,,,,,,m,0,0.3557,,,,,,,,0,120,120,100,1
,,,,,,,,,,,,,,,,,199129,18,2022-01-28_17h12.01.675,lexical_decision_task_DD,2021.2.3,Win32,59.672992,,,,,,,,,,,,0.3127,0,,,,,,,,,,,,,,,,,,,,,,,,0.081395377,-0.153100795,0,0,0,,,,,,,MALLET,LB,m,m,./images/MALLETLB.png,,,,,,,z,0,0.3127,,,,,,,,0,121,121,50,1
,,,,,,,,,,,,,,,,,199129,18,2022-01-28_17h12.01.675,lexical_decision_task_DD,2021.2.3,Win32,59.672992,,,,,,,,,,,,0.44,1,,,,,,,,,,,,,,,,,,,,,,,,0.081395377,-0.153100795,0,0,0,,,,,,,SAILOR,HB,m,m,./images/SAILORHB.png,,,,,,,m,1,0.44,,,,,,,,0,122,122,67,1
,,,,,,,,,,,,,,,,,199129,18,2022-01-28_17h12.01.675,lexical_decision_task_DD,2021.2.3,Win32,59.672992,,,,,,,,,,,,0.912,0,,,,,,,,,,,,,,,,,,,,,,,,0.081395377,-0.153100795,0,0,0,,,,,,,SPINE,LB,z,m,./images/SPINELB.png,,,,,,,m,0,0.912,,,,,,,,0,123,123,149,1
,,,,,,,,,,,,,,,,,199129,18,2022-01-28_17h12.01.675,lexical_decision_task_DD,2021.2.3,Win32,59.672992,,,,,,,,,,,,0.3234,1,,,,,,,,,,,,,,,,,,,,,,,,0.081395377,-0.153100795,0,0,0,,,,,,,STORM,C,m,m,./images/STORM.png,,,,,,,m,1,0.3234,,,,,,,,0,124,124,30,1
,,,,,,,,,,,,,,,,,199129,18,2022-01-28_17h12.01.675,lexical_decision_task_DD,2021.2.3,Win32,59.672992,,,,,,,,,,,,0.6031,0,,,,,,,,,,,,,,,,,,,,,,,,0.081395377,-0.153100795,0,0,0,space,,,,,,CHERRY,C,z,m,./images/CHERRY.png,0.9381,,,,,,m,0,0.6031,,,,,,,,0,125,125,138,1
,,,,,,,,,,,,,,,,,199129,18,2022-01-28_17h12.01.675,lexical_decision_task_DD,2021.2.3,Win32,59.672992,,,,,,,,,,,,0.339,1,,,,,,,,,,,,,,,,,,,,,,,,0.081395377,-0.153876036,0,0,0,,,,,,,FERRY,C,z,m,./images/FERRY.png,,,,,,,z,1,0.339,,,,,,,,0,126,126,141,1
,,,,,,,,,,,,,,,,,199129,18,2022-01-28_17h12.01.675,lexical_decision_task_DD,2021.2.3,Win32,59.672992,,,,,,,,,,,,0.8015,0,,,,,,,,,,,,,,,,,,,,,,,,0.14883724,-0.171705446,0,0,0,,,,,,,SHELF,C,m,m,./images/SHELF.png,,,,,,,z,0,0.8015,,,,,,,,0,127,127,39,1
,,,,,,,,,,,,,,,,,199129,18,2022-01-28_17h12.01.675,lexical_decision_task_DD,2021.2.3,Win32,59.672992,,,,,,,,,,,,1.296,1,,,,,,,,,,,,,,,,,,,,,,,,0.169767473,-0.164728702,0,0,0,,,,,,,QUILL,HB,m,m,./images/QUILLHB.png,,,,,,,m,1,1.296,,,,,,,,0,128,128,31,1
,,,,,,,,,,,,,,,,,199129,18,2022-01-28_17h12.01.675,lexical_decision_task_DD,2021.2.3,Win32,59.672992,,,,,,,,,,,,1.5843,1,,,,,,,,,,,,,,,,,,,,,,,,0.169767473,-0.164728702,0,0,0,,,,,,,ONION,C,m,m,./images/ONION.png,,,,,,,m,1,1.5843,,,,,,,,0,129,129,51,1
,,,,,,,,,,,,,,,,,199129,18,2022-01-28_17h12.01.675,lexical_decision_task_DD,2021.2.3,Win32,59.672992,,,,,,,,,,,,1.3649,1,,,,,,,,,,,,,,,,,,,,,,,,0.218604684,-0.149224873,0,0,0,,,,,,,BRIDE,HB,z,m,./images/BRIDEHB.png,,,,,,,z,1,1.3649,,,,,,,,0,130,130,148,1
,,,,,,,,,,,,,,,,,199129,18,2022-01-28_17h12.01.675,lexical_decision_task_DD,2021.2.3,Win32,59.672992,,,,,,,,,,,,1.0714,1,,,,,,,,,,,,,,,,,,,,,,,,0.215503908,-0.149224873,0,0,0,,,,,,,WALRUS,LB,m,m,./images/WALRUSLB.png,,,,,,,m,1,1.0714,,,,,,,,0,131,131,23,1
,,,,,,,,,,,,,,,,,199129,18,2022-01-28_17h12.01.675,lexical_decision_task_DD,2021.2.3,Win32,59.672992,,,,,,,,,,,,0.9418,0,,,,,,,,,,,,,,,,,,,,,,,,0.215503908,-0.149224873,0,0,0,,,,,,,DESERT,HB,z,m,./images/DESERTHB.png,,,,,,,m,0,0.9418,,,,,,,,0,132,132,136,1
,,,,,,,,,,,,,,,,,199129,18,2022-01-28_17h12.01.675,lexical_decision_task_DD,2021.2.3,Win32,59.672992,,,,,,,,,,,,1.0579,1,,,,,,,,,,,,,,,,,,,,,,,,-0.288372076,0.461627906,0,0,0,,,,,,,MEDAL,LB,z,m,./images/MEDALLB.png,,,,,,,z,1,1.0579,,,,,,,,0,133,133,95,1
,,,,,,,,,,,,,,,,,199129,18,2022-01-28_17h12.01.675,lexical_decision_task_DD,2021.2.3,Win32,59.672992,,,,,,,,,,,,0.4567,0,,,,,,,,,,,,,,,,,,,,,,,,0.119379875,0.17713175,0,0,0,,,,,,,CLOUD,LB,z,m,./images/CLOUDLB.png,,,,,,,m,0,0.4567,,,,,,,,0,134,134,110,1
,,,,,,,,,,,,,,,,,199129,18,2022-01-28_17h12.01.675,lexical_decision_task_DD,2021.2.3,Win32,59.672992,,,,,,,,,,,,0.1168,0,,,,,,,,,,,,,,,,,,,,,,,,0.119379875,0.17713175,0,0,0,,,,,,,BRUSH,LB,z,m,./images/BRUSHLB.png,,,,,,,m,0,0.1168,,,,,,,,0,135,135,143,1
,,,,,,,,,,,,,,,,,199129,18,2022-01-28_17h12.01.675,lexical_decision_task_DD,2021.2.3,Win32,59.672992,,,,,,,,,,,,0.0736,1,,,,,,,,,,,,,,,,,,,,,,,,0.119379875,0.17713175,0,0,0,,,,,,,NOOSE,C,m,m,./images/NOOSE.png,,,,,,,m,1,0.0736,,,,,,,,0,136,136,72,1
,,,,,,,,,,,,,,,,,199129,18,2022-01-28_17h12.01.675,lexical_decision_task_DD,2021.2.3,Win32,59.672992,,,,,,,,,,,,0.1308,0,,,,,,,,,,,,,,,,,,,,,,,,0.119379875,0.17713175,0,0,0,,,,,,,FENCE,LB,z,m,./images/FENCELB.png,,,,,,,m,0,0.1308,,,,,,,,0,137,137,98,1
,,,,,,,,,,,,,,,,,199129,18,2022-01-28_17h12.01.675,lexical_decision_task_DD,2021.2.3,Win32,59.672992,,,,,,,,,,,,0.4355,0,,,,,,,,,,,,,,,,,,,,,,,,0.119379875,0.17713175,0,0,0,,,,,,,BOXER,HB,z,m,./images/BOXERHB.png,,,,,,,m,0,0.4355,,,,,,,,0,138,138,88,1
,,,,,,,,,,,,,,,,,199129,18,2022-01-28_17h12.01.675,lexical_decision_task_DD,2021.2.3,Win32,59.672992,,,,,,,,,,,,0.6036,0,,,,,,,,,,,,,,,,,,,,,,,,0.119379875,0.17713175,0,0,0,,,,,,,FLESH,C,z,m,./images/FLESH.png,,,,,,,m,0,0.6036,,,,,,,,0,139,139,108,1
,,,,,,,,,,,,,,,,,199129,18,2022-01-28_17h12.01.675,lexical_decision_task_DD,2021.2.3,Win32,59.672992,,,,,,,,,,,,0.4502,1,,,,,,,,,,,,,,,,,,,,,,,,0.119379875,0.17713175,0,0,0,,,,,,,STRING,LB,m,m,./images/STRINGLB.png,,,,,,,m,1,0.4502,,,,,,,,0,140,140,41,1
,,,,,,,,,,,,,,,,,199129,18,2022-01-28_17h12.01.675,lexical_decision_task_DD,2021.2.3,Win32,59.672992,,,,,,,,,,,,0.3062,1,,,,,,,,,,,,,,,,,,,,,,,,0.119379875,0.17713175,0,0,0,,,,,,,TORCH,LB,m,m,./images/TORCHLB.png,,,,,,,m,1,0.3062,,,,,,,,0,141,141,68,1
,,,,,,,,,,,,,,,,,199129,18,2022-01-28_17h12.01.675,lexical_decision_task_DD,2021.2.3,Win32,59.672992,,,,,,,,,,,,0.0019,0,,,,,,,,,,,,,,,,,,,,,,,,0.119379875,0.17713175,0,0,0,,,,,,,FLASK,C,z,m,./images/FLASK.png,,,,,,,m,0,0.0019,,,,,,,,0,142,142,156,1
,,,,,,,,,,,,,,,,,199129,18,2022-01-28_17h12.01.675,lexical_decision_task_DD,2021.2.3,Win32,59.672992,,,,,,,,,,,,0.1083,0,,,,,,,,,,,,,,,,,,,,,,,,0.119379875,0.17713175,0,0,0,,,,,,,CHALK,HB,z,m,./images/CHALKHB.png,,,,,,,m,0,0.1083,,,,,,,,0,143,143,109,1
,,,,,,,,,,,,,,,,,199129,18,2022-01-28_17h12.01.675,lexical_decision_task_DD,2021.2.3,Win32,59.672992,,,,,,,,,,,,0.067,0,,,,,,,,,,,,,,,,,,,,,,,,0.119379875,0.17713175,0,0,0,,,,,,,WHISKY,LB,z,m,./images/WHISKYLB.png,,,,,,,m,0,0.067,,,,,,,,0,144,144,167,1
,,,,,,,,,,,,,,,,,199129,18,2022-01-28_17h12.01.675,lexical_decision_task_DD,2021.2.3,Win32,59.672992,,,,,,,,,,,,0.0312,0,,,,,,,,,,,,,,,,,,,,,,,,0.119379875,0.17713175,0,0,0,,,,,,,TOWEL,HB,z,m,./images/TOWELHB.png,,,,,,,m,0,0.0312,,,,,,,,0,145,145,85,1
,,,,,,,,,,,,,,,,,199129,18,2022-01-28_17h12.01.675,lexical_decision_task_DD,2021.2.3,Win32,59.672992,,,,,,,,,,,,0.906,1,,,,,,,,,,,,,,,,,,,,,,,,0.119379875,0.17713175,0,0,0,,,,,,,BROOM,C,z,m,./images/BROOM.png,,,,,,,z,1,0.906,,,,,,,,0,146,146,162,1
,,,,,,,,,,,,,,,,,199129,18,2022-01-28_17h12.01.675,lexical_decision_task_DD,2021.2.3,Win32,59.672992,,,,,,,,,,,,0.0817,0,,,,,,,,,,,,,,,,,,,,,,,,0.119379875,0.17713175,0,0,0,,,,,,,ALLEY,HB,z,m,./images/ALLEYHB.png,,,,,,,m,0,0.0817,,,,,,,,0,147,147,139,1
,,,,,,,,,,,,,,,,,199129,18,2022-01-28_17h12.01.675,lexical_decision_task_DD,2021.2.3,Win32,59.672992,,,,,,,,,,,,0.0517,0,,,,,,,,,,,,,,,,,,,,,,,,0.119379875,0.17713175,0,0,0,,,,,,,SNAKE,HB,z,m,./images/SNAKEHB.png,,,,,,,m,0,0.0517,,,,,,,,0,148,148,124,1
,,,,,,,,,,,,,,,,,199129,18,2022-01-28_17h12.01.675,lexical_decision_task_DD,2021.2.3,Win32,59.672992,,,,,,,,,,,,0.2201,1,,,,,,,,,,,,,,,,,,,,,,,,0.119379875,0.17713175,0,0,0,,,,,,,LIZARD,LB,m,m,./images/LIZARDLB.png,,,,,,,m,1,0.2201,,,,,,,,0,149,149,44,1
,,,,,,,,,,,,,,,,,199129,18,2022-01-28_17h12.01.675,lexical_decision_task_DD,2021.2.3,Win32,59.672992,,,,,,,,,,,,0.1236,1,,,,,,,,,,,,,,,,,,,,,,,,0.119379875,0.17713175,0,0,0,,,,,,,HEATER,LB,z,m,./images/HEATERLB.png,,,,,,,z,1,0.1236,,,,,,,,0,150,150,140,1
,,,,,,,,,,,,,,,,,199129,18,2022-01-28_17h12.01.675,lexical_decision_task_DD,2021.2.3,Win32,59.672992,,,,,,,,,,,,0.0838,0,,,,,,,,,,,,,,,,,,,,,,,,0.119379875,0.17713175,0,0,0,,,,,,,STEAK,HB,z,m,./images/STEAKHB.png,,,,,,,m,0,0.0838,,,,,,,,0,151,151,115,1
,,,,,,,,,,,,,,,,,199129,18,2022-01-28_17h12.01.675,lexical_decision_task_DD,2021.2.3,Win32,59.672992,,,,,,,,,,,,0.065,1,,,,,,,,,,,,,,,,,,,,,,,,0.119379875,0.17713175,0,0,0,,,,,,,HOCKEY,LB,z,m,./images/HOCKEYLB.png,,,,,,,z,1,0.065,,,,,,,,0,152,152,116,1
,,,,,,,,,,,,,,,,,199129,18,2022-01-28_17h12.01.675,lexical_decision_task_DD,2021.2.3,Win32,59.672992,,,,,,,,,,,,0.0351,0,,,,,,,,,,,,,,,,,,,,,,,,0.119379875,0.17713175,0,0,0,,,,,,,INFANT,HB,m,m,./images/INFANTHB.png,,,,,,,z,0,0.0351,,,,,,,,0,153,153,76,1
,,,,,,,,,,,,,,,,,199129,18,2022-01-28_17h12.01.675,lexical_decision_task_DD,2021.2.3,Win32,59.672992,,,,,,,,,,,,0.119,1,,,,,,,,,,,,,,,,,,,,,,,,0.119379875,0.17713175,0,0,0,,,,,,,MONKEY,C,z,m,./images/MONKEY.png,,,,,,,z,1,0.119,,,,,,,,0,154,154,129,1
,,,,,,,,,,,,,,,,,199129,18,2022-01-28_17h12.01.675,lexical_decision_task_DD,2021.2.3,Win32,59.672992,,,,,,,,,,,,0.1255,1,,,,,,,,,,,,,,,,,,,,,,,,0.119379875,0.17713175,0,0,0,,,,,,,SAUCE,C,z,m,./images/SAUCE.png,,,,,,,z,1,0.1255,,,,,,,,0,155,155,135,1
,,,,,,,,,,,,,,,,,199129,18,2022-01-28_17h12.01.675,lexical_decision_task_DD,2021.2.3,Win32,59.672992,,,,,,,,,,,,0.1322,0,,,,,,,,,,,,,,,,,,,,,,,,0.119379875,0.17713175,0,0,0,,,,,,,BUNNY,HB,z,m,./images/BUNNYHB.png,,,,,,,m,0,0.1322,,,,,,,,0,156,156,97,1
,,,,,,,,,,,,,,,,,199129,18,2022-01-28_17h12.01.675,lexical_decision_task_DD,2021.2.3,Win32,59.672992,,,,,,,,,,,,0.1166,0,,,,,,,,,,,,,,,,,,,,,,,,0.119379875,0.17713175,0,0,0,,,,,,,SHORE,C,m,m,./images/SHORE.png,,,,,,,z,0,0.1166,,,,,,,,0,157,157,12,1
,,,,,,,,,,,,,,,,,199129,18,2022-01-28_17h12.01.675,lexical_decision_task_DD,2021.2.3,Win32,59.672992,,,,,,,,,,,,0.167,1,,,,,,,,,,,,,,,,,,,,,,,,0.119379875,0.17713175,0,0,0,,,,,,,JUMPER,LB,z,m,./images/JUMPERLB.png,,,,,,,z,1,0.167,,,,,,,,0,158,158,158,1
,,,,,,,,,,,,,,,,,199129,18,2022-01-28_17h12.01.675,lexical_decision_task_DD,2021.2.3,Win32,59.672992,,,,,,,,,,,,0.1534,1,,,,,,,,,,,,,,,,,,,,,,,,0.119379875,0.17713175,0,0,0,,,,,,,STOVE,LB,z,m,./images/STOVELB.png,,,,,,,z,1,0.1534,,,,,,,,0,159,159,86,1
,,,,,,,,,,,,,,,,,199129,18,2022-01-28_17h12.01.675,lexical_decision_task_DD,2021.2.3,Win32,59.672992,,,,,,,,,,,,0.786,0,,,,,,,,,,,,,,,,,,,,,,,,0.119379875,0.17713175,0,0,0,,,,,,,POKER,HB,z,m,./images/POKERHB.png,,,,,,,m,0,0.786,,,,,,,,0,160,160,151,1
,,,,,,,,,,,,,,,,,199129,18,2022-01-28_17h12.01.675,lexical_decision_task_DD,2021.2.3,Win32,59.672992,,,,,,,,,,,,0.3551,1,,,,,,,,,,,,,,,,,,,,,,,,0.119379875,0.17713175,0,0,0,,,,,,,PARCEL,C,z,m,./images/PARCEL.png,,,,,,,z,1,0.3551,,,,,,,,0,161,161,102,1
,,,,,,,,,,,,,,,,,199129,18,2022-01-28_17h12.01.675,lexical_decision_task_DD,2021.2.3,Win32,59.672992,,,,,,,,,,,,0.168,0,,,,,,,,,,,,,,,,,,,,,,,,0.119379875,0.17713175,0,0,0,,,,,,,LITTER,C,m,m,./images/LITTER.png,,,,,,,z,0,0.168,,,,,,,,0,162,162,78,1
,,,,,,,,,,,,,,,,,199129,18,2022-01-28_17h12.01.675,lexical_decision_task_DD,2021.2.3,Win32,59.672992,,,,,,,,,,,,0.2166,1,,,,,,,,,,,,,,,,,,,,,,,,0.119379875,0.17713175,0,0,0,,,,,,,DOUGH,HB,m,m,./images/DOUGHHB.png,,,,,,,m,1,0.2166,,,,,,,,0,163,163,19,1
,,,,,,,,,,,,,,,,,199129,18,2022-01-28_17h12.01.675,lexical_decision_task_DD,2021.2.3,Win32,59.672992,,,,,,,,,,,,0.032,1,,,,,,,,,,,,,,,,,,,,,,,,0.119379875,0.17713175,0,0,0,,,,,,,LADDER,LB,m,m,./images/LADDERLB.png,,,,,,,m,1,0.032,,,,,,,,0,164,164,38,1
,,,,,,,,,,,,,,,,,199129,18,2022-01-28_17h12.01.675,lexical_decision_task_DD,2021.2.3,Win32,59.672992,,,,,,,,,,,,0.5363,1,,,,,,,,,,,,,,,,,,,,,,,,0.119379875,0.17713175,0,0,0,,,,,,,CANDLE,HB,m,m,./images/CANDLEHB.png,,,,,,,m,1,0.5363,,,,,,,,0,165,165,61,1
,,,,,,,,,,,,,,,,,199129,18,2022-01-28_17h12.01.675,lexical_decision_task_DD,2021.2.3,Win32,59.672992,,,,,,,,,,,,0.6989,0,,,,,,,,,,,,,,,,,,,,,,,,0.119379875,0.17713175,0,0,0,,,,,,,CASINO,HB,z,m,./images/CASINOHB.png,,,,,,,m,0,0.6989,,,,,,,,0,166,166,112,1
,,,,,,,,,,,,,,,,,199129,18,2022-01-28_17h12.01.675,lexical_decision_task_DD,2021.2.3,Win32,59.672992,,,,,,,,,,,,0.6671,0,,,,,,,,,,,,,,,,,,,,,,,,0.119379875,0.17713175,0,0,0,,,,,,,BISHOP,HB,z,m,./images/BISHOPHB.png,,,,,,,m,0,0.6671,,,,,,,,0,167,167,133,1
