key_resp.keys,key_resp.rt,instr_done_touch.x,instr_done_touch.y,instr_done_touch.leftButton,instr_done_touch.midButton,instr_done_touch.rightButton,instruction_pages.thisRepN,instruction_pages.thisTrialN,instruction_pages.thisN,instruction_pages.thisIndex,instruction_pages.ran,pageN,phase,instruct_text,has_image,instruct_image,participant,age,date,expName,psychopyVersion,OS,frameRate,response.keys,response.corr,response.rt,touch_resp.x,touch_resp.y,touch_resp.leftButton,touch_resp.midButton,touch_resp.rightButton,touch_resp.time,touch_resp.clicked_name,rt,corr,practrials.thisRepN,practrials.thisTrialN,practrials.thisN,practrials.thisIndex,practrials.ran,TrialID,Target,corrAns,end_of_practice_trials_pages.thisRepN,end_of_practice_trials_pages.thisTrialN,end_of_practice_trials_pages.thisN,end_of_practice_trials_pages.thisIndex,end_of_practice_trials_pages.ran,key_resp_2.keys,key_resp_2.corr,key_resp_2.rt,targ_click.x,targ_click.y,targ_click.leftButton,targ_click.midButton,targ_click.rightButton,targ_click.time,targ_click.clicked_name,break_done_touch.x,break_done_touch.y,break_done_touch.leftButton,break_done_touch.midButton,break_done_touch.rightButton,break_done_keyboard.keys,maintrials.thisRepN,maintrials.thisTrialN,maintrials.thisN,maintrials.thisIndex,maintrials.ran,string,blur,study,lex,stim_path,break_done_keyboard.rt,test_instructions.thisRepN,test_instructions.thisTrialN,test_instructions.thisN,test_instructions.thisIndex,test_instructions.ran,instr_done_touch.clicked_name,key_resp_3.keys,key_resp_3.corr,key_resp_3.rt,test_click.x,test_click.y,test_click.leftButton,test_click.midButton,test_click.rightButton,test_click.time,test_click.clicked_name,test_phase.thisRepN,test_phase.thisTrialN,test_phase.thisN,test_phase.thisIndex,test_phase.ran
space,2.635,0,-0.391111111,0,0,0,0,0,0,0,1,1,instructions,"INSTRUCTIONS
At the start of each trial, look at the plus sign  (+) in the center of the screen.  This tells you that a trial is about to begin and where to look. Second, the plus sign will disappear and a string of letters will appear. Your task is to determine if the string of letters is a word or not. If the item is a word press the M key (on keyboard)  or touch the word button (phone/tablet).  If the item is not a word,  press the  Z key (on keyboard)  or touch the nonword button (on phone/tablet). 
Press the space bar or touch  continue.",0,,199108,20,2022-01-28_17h39.29.928,lexical_decision_task_DD_L3,2021.2.3,MacIntel,58.82352941,,,,,,,,,,,,,,,,,,,,,,,,,,,,,,,,,,,,,,,,,,,,,,,,,,,,,,,,,,,,,,,,,,,,,,,,,
space,12.581,0,-0.391111111,0,0,0,0,1,1,1,1,2,instructions,"If your device has a keyboard, press the 'Z' key for nonwords and the 'M' key for words.





Press the space bar or touch the button below to continue.",0,keyboard-example.gif,199108,20,2022-01-28_17h39.29.928,lexical_decision_task_DD_L3,2021.2.3,MacIntel,58.82352941,,,,,,,,,,,,,,,,,,,,,,,,,,,,,,,,,,,,,,,,,,,,,,,,,,,,,,,,,,,,,,,,,,,,,,,,,
space,2.608,0,-0.391111111,0,0,0,0,2,2,2,1,3,instructions,"If you are using a touchscreen only device, use the buttons on the screen. Do not use the mouse.





Press the space bar or touch the button below to continue.",0,touchscreen-example.gif,199108,20,2022-01-28_17h39.29.928,lexical_decision_task_DD_L3,2021.2.3,MacIntel,58.82352941,,,,,,,,,,,,,,,,,,,,,,,,,,,,,,,,,,,,,,,,,,,,,,,,,,,,,,,,,,,,,,,,,,,,,,,,,
space,5.128,0,-0.391111111,0,0,0,0,3,3,3,1,4,instructions,"It is very important that you respond as quickly and accurately as possible, as each letter string will only be on the screen for two seconds. If you do not respond within this time, the message 'Too slow!' will be displayed and the experiment will progress to the next letter string. The first 20 trials will be practice trials and you will receive feedback on your answers. 

Press the space bar or touch the button below to start the practice trials.",0,,199108,20,2022-01-28_17h39.29.928,lexical_decision_task_DD_L3,2021.2.3,MacIntel,58.82352941,,,,,,,,,,,,,,,,,,,,,,,,,,,,,,,,,,,,,,,,,,,,,,,,,,,,,,,,,,,,,,,,,,,,,,,,,
,,,,,,,,,,,,,,,,,199108,20,2022-01-28_17h39.29.928,lexical_decision_task_DD_L3,2021.2.3,MacIntel,58.82352941,m,1,1.917,,,,,,,,1.917,1,0,0,0,4,1,1001,SQUEAK,m,,,,,,,,,,,,,,,,,,,,,,,,,,,,,,,,,,,,,,,,,,,,,,,,,,,,,
,,,,,,,,,,,,,,,,,199108,20,2022-01-28_17h39.29.928,lexical_decision_task_DD_L3,2021.2.3,MacIntel,58.82352941,z,1,1.105,,,,,,,,1.105,1,0,1,1,14,1,1001,THRALE,z,,,,,,,,,,,,,,,,,,,,,,,,,,,,,,,,,,,,,,,,,,,,,,,,,,,,,
,,,,,,,,,,,,,,,,,199108,20,2022-01-28_17h39.29.928,lexical_decision_task_DD_L3,2021.2.3,MacIntel,58.82352941,m,1,0.763,,,,,,,,0.763,1,0,2,2,3,1,1001,MATRIX,m,,,,,,,,,,,,,,,,,,,,,,,,,,,,,,,,,,,,,,,,,,,,,,,,,,,,,
,,,,,,,,,,,,,,,,,199108,20,2022-01-28_17h39.29.928,lexical_decision_task_DD_L3,2021.2.3,MacIntel,58.82352941,z,1,0.745,,,,,,,,0.745,1,0,3,3,13,1,1001,ROUPET,z,,,,,,,,,,,,,,,,,,,,,,,,,,,,,,,,,,,,,,,,,,,,,,,,,,,,,
,,,,,,,,,,,,,,,,,199108,20,2022-01-28_17h39.29.928,lexical_decision_task_DD_L3,2021.2.3,MacIntel,58.82352941,z,1,0.662,,,,,,,,0.662,1,0,4,4,11,1,1001,RASHET,z,,,,,,,,,,,,,,,,,,,,,,,,,,,,,,,,,,,,,,,,,,,,,,,,,,,,,
,,,,,,,,,,,,,,,,,199108,20,2022-01-28_17h39.29.928,lexical_decision_task_DD_L3,2021.2.3,MacIntel,58.82352941,z,1,0.647,,,,,,,,0.647,1,0,5,5,9,1,1001,FARINY,z,,,,,,,,,,,,,,,,,,,,,,,,,,,,,,,,,,,,,,,,,,,,,,,,,,,,,
,,,,,,,,,,,,,,,,,199108,20,2022-01-28_17h39.29.928,lexical_decision_task_DD_L3,2021.2.3,MacIntel,58.82352941,m,1,0.811,,,,,,,,0.811,1,0,6,6,0,1,1001,UTOPIA,m,,,,,,,,,,,,,,,,,,,,,,,,,,,,,,,,,,,,,,,,,,,,,,,,,,,,,
,,,,,,,,,,,,,,,,,199108,20,2022-01-28_17h39.29.928,lexical_decision_task_DD_L3,2021.2.3,MacIntel,58.82352941,z,1,0.784,,,,,,,,0.784,1,0,7,7,15,1,1001,WHAISE,z,,,,,,,,,,,,,,,,,,,,,,,,,,,,,,,,,,,,,,,,,,,,,,,,,,,,,
,,,,,,,,,,,,,,,,,199108,20,2022-01-28_17h39.29.928,lexical_decision_task_DD_L3,2021.2.3,MacIntel,58.82352941,m,1,0.617,,,,,,,,0.617,1,0,8,8,7,1,1001,VOLUME,m,,,,,,,,,,,,,,,,,,,,,,,,,,,,,,,,,,,,,,,,,,,,,,,,,,,,,
,,,,,,,,,,,,,,,,,199108,20,2022-01-28_17h39.29.928,lexical_decision_task_DD_L3,2021.2.3,MacIntel,58.82352941,m,1,0.678,,,,,,,,0.678,1,0,9,9,1,1,1001,ADJUST,m,,,,,,,,,,,,,,,,,,,,,,,,,,,,,,,,,,,,,,,,,,,,,,,,,,,,,
,,,,,,,,,,,,,,,,,199108,20,2022-01-28_17h39.29.928,lexical_decision_task_DD_L3,2021.2.3,MacIntel,58.82352941,m,1,0.549,,,,,,,,0.549,1,0,10,10,2,1,1001,ALMOND,m,,,,,,,,,,,,,,,,,,,,,,,,,,,,,,,,,,,,,,,,,,,,,,,,,,,,,
,,,,,,,,,,,,,,,,,199108,20,2022-01-28_17h39.29.928,lexical_decision_task_DD_L3,2021.2.3,MacIntel,58.82352941,z,1,0.95,,,,,,,,0.95,1,0,11,11,10,1,1001,INLADE,z,,,,,,,,,,,,,,,,,,,,,,,,,,,,,,,,,,,,,,,,,,,,,,,,,,,,,
,,,,,,,,,,,,,,,,,199108,20,2022-01-28_17h39.29.928,lexical_decision_task_DD_L3,2021.2.3,MacIntel,58.82352941,z,1,0.665,,,,,,,,0.665,1,0,12,12,12,1,1001,SPRINY,z,,,,,,,,,,,,,,,,,,,,,,,,,,,,,,,,,,,,,,,,,,,,,,,,,,,,,
,,,,,,,,,,,,,,,,,199108,20,2022-01-28_17h39.29.928,lexical_decision_task_DD_L3,2021.2.3,MacIntel,58.82352941,m,1,0.68,,,,,,,,0.68,1,0,13,13,5,1,1001,OBTAIN,m,,,,,,,,,,,,,,,,,,,,,,,,,,,,,,,,,,,,,,,,,,,,,,,,,,,,,
,,,,,,,,,,,,,,,,,199108,20,2022-01-28_17h39.29.928,lexical_decision_task_DD_L3,2021.2.3,MacIntel,58.82352941,m,1,0.601,,,,,,,,0.601,1,0,14,14,6,1,1001,ZOMBIE,m,,,,,,,,,,,,,,,,,,,,,,,,,,,,,,,,,,,,,,,,,,,,,,,,,,,,,
,,,,,,,,,,,,,,,,,199108,20,2022-01-28_17h39.29.928,lexical_decision_task_DD_L3,2021.2.3,MacIntel,58.82352941,z,1,0.782,,,,,,,,0.782,1,0,15,15,8,1,1001,ASLERT,z,,,,,,,,,,,,,,,,,,,,,,,,,,,,,,,,,,,,,,,,,,,,,,,,,,,,,
space,2.748,0,-0.391111111,0,0,0,,,,,,1,end_of_practice,"You have completed the practice trials. During the experimental trials, you will not receive feedback. 
Before you begin, please ensure that you are in a comfortable and quiet location and will not be disturbed for about 15 minutes, as we cannot use your data if you do not complete all the trials. 
 When you are ready to start the experimental trials, please press space or touch the button below.",,,199108,20,2022-01-28_17h39.29.928,lexical_decision_task_DD_L3,2021.2.3,MacIntel,58.82352941,,,,,,,,,,,,,,,,,,,,,0,0,0,0,1,,,,,,,,,,,,,,,,,,,,,,,,,,,,,,,,,,,,,,,,,,,,,,,,
,,,,,,,,,,,,,,,,,199108,20,2022-01-28_17h39.29.928,lexical_decision_task_DD_L3,2021.2.3,MacIntel,58.82352941,,,,,,,,,,,3.268,1,,,,,,,,,,,,,,m,1,3.268,,,,,,,,0,-0.391111111,0,0,0,,0,0,0,41,1,STRING,HB,old,m,./images/STRINGHB.png,,,,,,,,,,,,,,,,,,,,,,
,,,,,,,,,,,,,,,,,199108,20,2022-01-28_17h39.29.928,lexical_decision_task_DD_L3,2021.2.3,MacIntel,58.82352941,,,,,,,,,,,0.901,1,,,,,,,,,,,,,,z,1,0.901,,,,,,,,0,-0.391111111,0,0,0,,0,1,1,161,1,BLAPS,LB,old,z,./images/BLAPSLB.png,,,,,,,,,,,,,,,,,,,,,,
,,,,,,,,,,,,,,,,,199108,20,2022-01-28_17h39.29.928,lexical_decision_task_DD_L3,2021.2.3,MacIntel,58.82352941,,,,,,,,,,,0.898,1,,,,,,,,,,,,,,z,1,0.898,,,,,,,,0,-0.391111111,0,0,0,,0,2,2,112,1,MYING,HB,old,z,./images/MYINGHB.png,,,,,,,,,,,,,,,,,,,,,,
,,,,,,,,,,,,,,,,,199108,20,2022-01-28_17h39.29.928,lexical_decision_task_DD_L3,2021.2.3,MacIntel,58.82352941,,,,,,,,,,,0.769,1,,,,,,,,,,,,,,m,1,0.769,,,,,,,,0,-0.391111111,0,0,0,,0,3,3,54,1,TRIPOD,LB,old,m,./images/TRIPODLB.png,,,,,,,,,,,,,,,,,,,,,,
,,,,,,,,,,,,,,,,,199108,20,2022-01-28_17h39.29.928,lexical_decision_task_DD_L3,2021.2.3,MacIntel,58.82352941,,,,,,,,,,,0.821,1,,,,,,,,,,,,,,z,1,0.821,,,,,,,,0,-0.391111111,0,0,0,,0,4,4,163,1,GAMBA,HB,old,z,./images/GAMBAHB.png,,,,,,,,,,,,,,,,,,,,,,
,,,,,,,,,,,,,,,,,199108,20,2022-01-28_17h39.29.928,lexical_decision_task_DD_L3,2021.2.3,MacIntel,58.82352941,,,,,,,,,,,0.783,1,,,,,,,,,,,,,,m,1,0.783,,,,,,,,0,-0.391111111,0,0,0,,0,5,5,62,1,PURSE,HB,old,m,./images/PURSEHB.png,,,,,,,,,,,,,,,,,,,,,,
,,,,,,,,,,,,,,,,,199108,20,2022-01-28_17h39.29.928,lexical_decision_task_DD_L3,2021.2.3,MacIntel,58.82352941,,,,,,,,,,,1.198,1,,,,,,,,,,,,,,z,1,1.198,,,,,,,,0,-0.391111111,0,0,0,,0,6,6,130,1,CRILL,HB,old,z,./images/CRILLHB.png,,,,,,,,,,,,,,,,,,,,,,
,,,,,,,,,,,,,,,,,199108,20,2022-01-28_17h39.29.928,lexical_decision_task_DD_L3,2021.2.3,MacIntel,58.82352941,,,,,,,,,,,0.732,1,,,,,,,,,,,,,,m,1,0.732,,,,,,,,0,-0.391111111,0,0,0,,0,7,7,72,1,NOOSE,LB,old,m,./images/NOOSELB.png,,,,,,,,,,,,,,,,,,,,,,
,,,,,,,,,,,,,,,,,199108,20,2022-01-28_17h39.29.928,lexical_decision_task_DD_L3,2021.2.3,MacIntel,58.82352941,,,,,,,,,,,0.651,1,,,,,,,,,,,,,,m,1,0.651,,,,,,,,0,-0.391111111,0,0,0,,0,8,8,51,1,ONION,LB,old,m,./images/ONIONLB.png,,,,,,,,,,,,,,,,,,,,,,
,,,,,,,,,,,,,,,,,199108,20,2022-01-28_17h39.29.928,lexical_decision_task_DD_L3,2021.2.3,MacIntel,58.82352941,,,,,,,,,,,0.834,1,,,,,,,,,,,,,,z,1,0.834,,,,,,,,0,-0.391111111,0,0,0,,0,9,9,114,1,RIKES,C,old,z,./images/RIKES.png,,,,,,,,,,,,,,,,,,,,,,
,,,,,,,,,,,,,,,,,199108,20,2022-01-28_17h39.29.928,lexical_decision_task_DD_L3,2021.2.3,MacIntel,58.82352941,,,,,,,,,,,1.05,1,,,,,,,,,,,,,,m,1,1.05,,,,,,,,0,-0.391111111,0,0,0,,0,10,10,53,1,CARPET,HB,old,m,./images/CARPETHB.png,,,,,,,,,,,,,,,,,,,,,,
,,,,,,,,,,,,,,,,,199108,20,2022-01-28_17h39.29.928,lexical_decision_task_DD_L3,2021.2.3,MacIntel,58.82352941,,,,,,,,,,,0.838,1,,,,,,,,,,,,,,z,1,0.838,,,,,,,,0,-0.391111111,0,0,0,,0,11,11,160,1,VEETS,HB,old,z,./images/VEETSHB.png,,,,,,,,,,,,,,,,,,,,,,
,,,,,,,,,,,,,,,,,199108,20,2022-01-28_17h39.29.928,lexical_decision_task_DD_L3,2021.2.3,MacIntel,58.82352941,,,,,,,,,,,0.816,1,,,,,,,,,,,,,,m,1,0.816,,,,,,,,0,-0.391111111,0,0,0,,0,12,12,58,1,BABOON,C,old,m,./images/BABOON.png,,,,,,,,,,,,,,,,,,,,,,
,,,,,,,,,,,,,,,,,199108,20,2022-01-28_17h39.29.928,lexical_decision_task_DD_L3,2021.2.3,MacIntel,58.82352941,,,,,,,,,,,0.601,1,,,,,,,,,,,,,,z,1,0.601,,,,,,,,0,-0.391111111,0,0,0,,0,13,13,99,1,BACKY,C,old,z,./images/BACKY.png,,,,,,,,,,,,,,,,,,,,,,
,,,,,,,,,,,,,,,,,199108,20,2022-01-28_17h39.29.928,lexical_decision_task_DD_L3,2021.2.3,MacIntel,58.82352941,,,,,,,,,,,0.606,1,,,,,,,,,,,,,,m,1,0.606,,,,,,,,0,-0.391111111,0,0,0,,0,14,14,24,1,SCREW,LB,old,m,./images/SCREWLB.png,,,,,,,,,,,,,,,,,,,,,,
,,,,,,,,,,,,,,,,,199108,20,2022-01-28_17h39.29.928,lexical_decision_task_DD_L3,2021.2.3,MacIntel,58.82352941,,,,,,,,,,,0.548,1,,,,,,,,,,,,,,z,1,0.548,,,,,,,,0,-0.391111111,0,0,0,,0,15,15,155,1,CANGY,LB,old,z,./images/CANGYLB.png,,,,,,,,,,,,,,,,,,,,,,
,,,,,,,,,,,,,,,,,199108,20,2022-01-28_17h39.29.928,lexical_decision_task_DD_L3,2021.2.3,MacIntel,58.82352941,,,,,,,,,,,0.799,1,,,,,,,,,,,,,,z,1,0.799,,,,,,,,0,-0.391111111,0,0,0,,0,16,16,124,1,TUNCH,HB,old,z,./images/TUNCHHB.png,,,,,,,,,,,,,,,,,,,,,,
,,,,,,,,,,,,,,,,,199108,20,2022-01-28_17h39.29.928,lexical_decision_task_DD_L3,2021.2.3,MacIntel,58.82352941,,,,,,,,,,,0.736,1,,,,,,,,,,,,,,m,1,0.736,,,,,,,,0,-0.391111111,0,0,0,,0,17,17,13,1,MOTOR,C,old,m,./images/MOTOR.png,,,,,,,,,,,,,,,,,,,,,,
,,,,,,,,,,,,,,,,,199108,20,2022-01-28_17h39.29.928,lexical_decision_task_DD_L3,2021.2.3,MacIntel,58.82352941,,,,,,,,,,,0.796,1,,,,,,,,,,,,,,z,1,0.796,,,,,,,,0,-0.391111111,0,0,0,,0,18,18,87,1,TRING,C,old,z,./images/TRING.png,,,,,,,,,,,,,,,,,,,,,,
,,,,,,,,,,,,,,,,,199108,20,2022-01-28_17h39.29.928,lexical_decision_task_DD_L3,2021.2.3,MacIntel,58.82352941,,,,,,,,,,,0.848,1,,,,,,,,,,,,,,z,1,0.848,,,,,,,,0,-0.391111111,0,0,0,,0,19,19,139,1,BLEAR,HB,old,z,./images/BLEARHB.png,,,,,,,,,,,,,,,,,,,,,,
,,,,,,,,,,,,,,,,,199108,20,2022-01-28_17h39.29.928,lexical_decision_task_DD_L3,2021.2.3,MacIntel,58.82352941,,,,,,,,,,,0.784,1,,,,,,,,,,,,,,z,1,0.784,,,,,,,,0,-0.391111111,0,0,0,,0,20,20,153,1,CLUPS,C,old,z,./images/CLUPS.png,,,,,,,,,,,,,,,,,,,,,,
,,,,,,,,,,,,,,,,,199108,20,2022-01-28_17h39.29.928,lexical_decision_task_DD_L3,2021.2.3,MacIntel,58.82352941,,,,,,,,,,,0.616,1,,,,,,,,,,,,,,m,1,0.616,,,,,,,,0,-0.391111111,0,0,0,,0,21,21,37,1,BIRTH,C,old,m,./images/BIRTH.png,,,,,,,,,,,,,,,,,,,,,,
,,,,,,,,,,,,,,,,,199108,20,2022-01-28_17h39.29.928,lexical_decision_task_DD_L3,2021.2.3,MacIntel,58.82352941,,,,,,,,,,,0.417,1,,,,,,,,,,,,,,z,1,0.417,,,,,,,,0,-0.391111111,0,0,0,,0,22,22,146,1,MOOST,LB,old,z,./images/MOOSTLB.png,,,,,,,,,,,,,,,,,,,,,,
,,,,,,,,,,,,,,,,,199108,20,2022-01-28_17h39.29.928,lexical_decision_task_DD_L3,2021.2.3,MacIntel,58.82352941,,,,,,,,,,,0.65,1,,,,,,,,,,,,,,z,1,0.65,,,,,,,,0,-0.391111111,0,0,0,,0,23,23,165,1,TROWN,C,old,z,./images/TROWN.png,,,,,,,,,,,,,,,,,,,,,,
,,,,,,,,,,,,,,,,,199108,20,2022-01-28_17h39.29.928,lexical_decision_task_DD_L3,2021.2.3,MacIntel,58.82352941,,,,,,,,,,,0.512,1,,,,,,,,,,,,,,z,1,0.512,,,,,,,,0,-0.391111111,0,0,0,,0,24,24,105,1,MOKER,C,old,z,./images/MOKER.png,,,,,,,,,,,,,,,,,,,,,,
,,,,,,,,,,,,,,,,,199108,20,2022-01-28_17h39.29.928,lexical_decision_task_DD_L3,2021.2.3,MacIntel,58.82352941,,,,,,,,,,,0.687,1,,,,,,,,,,,,,,z,1,0.687,,,,,,,,0,-0.391111111,0,0,0,,0,25,25,111,1,HOSSE,C,old,z,./images/HOSSE.png,,,,,,,,,,,,,,,,,,,,,,
,,,,,,,,,,,,,,,,,199108,20,2022-01-28_17h39.29.928,lexical_decision_task_DD_L3,2021.2.3,MacIntel,58.82352941,,,,,,,,,,,0.6,1,,,,,,,,,,,,,,m,1,0.6,,,,,,,,0,-0.391111111,0,0,0,,0,26,26,39,1,SHELF,LB,old,m,./images/SHELFLB.png,,,,,,,,,,,,,,,,,,,,,,
,,,,,,,,,,,,,,,,,199108,20,2022-01-28_17h39.29.928,lexical_decision_task_DD_L3,2021.2.3,MacIntel,58.82352941,,,,,,,,,,,0.632,1,,,,,,,,,,,,,,z,1,0.632,,,,,,,,0,-0.391111111,0,0,0,,0,27,27,113,1,LINEW,LB,old,z,./images/LINEWLB.png,,,,,,,,,,,,,,,,,,,,,,
,,,,,,,,,,,,,,,,,199108,20,2022-01-28_17h39.29.928,lexical_decision_task_DD_L3,2021.2.3,MacIntel,58.82352941,,,,,,,,,,,0.501,1,,,,,,,,,,,,,,m,1,0.501,,,,,,,,0,-0.391111111,0,0,0,,0,28,28,61,1,CANDLE,C,old,m,./images/CANDLE.png,,,,,,,,,,,,,,,,,,,,,,
,,,,,,,,,,,,,,,,,199108,20,2022-01-28_17h39.29.928,lexical_decision_task_DD_L3,2021.2.3,MacIntel,58.82352941,,,,,,,,,,,0.534,1,,,,,,,,,,,,,,z,1,0.534,,,,,,,,0,-0.391111111,0,0,0,,0,29,29,96,1,KEAMS,C,old,z,./images/KEAMS.png,,,,,,,,,,,,,,,,,,,,,,
,,,,,,,,,,,,,,,,,199108,20,2022-01-28_17h39.29.928,lexical_decision_task_DD_L3,2021.2.3,MacIntel,58.82352941,,,,,,,,,,,0.472,1,,,,,,,,,,,,,,z,1,0.472,,,,,,,,0,-0.391111111,0,0,0,,0,30,30,94,1,BLANS,HB,old,z,./images/BLANSHB.png,,,,,,,,,,,,,,,,,,,,,,
,,,,,,,,,,,,,,,,,199108,20,2022-01-28_17h39.29.928,lexical_decision_task_DD_L3,2021.2.3,MacIntel,58.82352941,,,,,,,,,,,0.549,1,,,,,,,,,,,,,,m,1,0.549,,,,,,,,0,-0.391111111,0,0,0,,0,31,31,73,1,SNACK,C,old,m,./images/SNACK.png,,,,,,,,,,,,,,,,,,,,,,
,,,,,,,,,,,,,,,,,199108,20,2022-01-28_17h39.29.928,lexical_decision_task_DD_L3,2021.2.3,MacIntel,58.82352941,,,,,,,,,,,0.704,1,,,,,,,,,,,,,,m,1,0.704,,,,,,,,0,-0.391111111,0,0,0,,0,32,32,52,1,BANNER,C,old,m,./images/BANNER.png,,,,,,,,,,,,,,,,,,,,,,
,,,,,,,,,,,,,,,,,199108,20,2022-01-28_17h39.29.928,lexical_decision_task_DD_L3,2021.2.3,MacIntel,58.82352941,,,,,,,,,,,0.465,0,,,,,,,,,,,,,,z,0,0.465,,,,,,,,0,-0.391111111,0,0,0,,0,33,33,9,1,RHINO,LB,old,m,./images/RHINOLB.png,,,,,,,,,,,,,,,,,,,,,,
,,,,,,,,,,,,,,,,,199108,20,2022-01-28_17h39.29.928,lexical_decision_task_DD_L3,2021.2.3,MacIntel,58.82352941,,,,,,,,,,,0.773,1,,,,,,,,,,,,,,z,1,0.773,,,,,,,,0,-0.391111111,0,0,0,,0,34,34,122,1,BLOOT,LB,old,z,./images/BLOOTLB.png,,,,,,,,,,,,,,,,,,,,,,
,,,,,,,,,,,,,,,,,199108,20,2022-01-28_17h39.29.928,lexical_decision_task_DD_L3,2021.2.3,MacIntel,58.82352941,,,,,,,,,,,0.85,0,,,,,,,,,,,,,,z,0,0.85,,,,,,,,0,-0.391111111,0,0,0,,0,35,35,50,1,MALLET,HB,old,m,./images/MALLETHB.png,,,,,,,,,,,,,,,,,,,,,,
,,,,,,,,,,,,,,,,,199108,20,2022-01-28_17h39.29.928,lexical_decision_task_DD_L3,2021.2.3,MacIntel,58.82352941,,,,,,,,,,,0.984,1,,,,,,,,,,,,,,z,1,0.984,,,,,,,,0,-0.391111111,0,0,0,,0,36,36,136,1,WERVE,HB,old,z,./images/WERVEHB.png,,,,,,,,,,,,,,,,,,,,,,
,,,,,,,,,,,,,,,,,199108,20,2022-01-28_17h39.29.928,lexical_decision_task_DD_L3,2021.2.3,MacIntel,58.82352941,,,,,,,,,,,0.637,1,,,,,,,,,,,,,,z,1,0.637,,,,,,,,0,-0.391111111,0,0,0,,0,37,37,101,1,GLEET,LB,old,z,./images/GLEETLB.png,,,,,,,,,,,,,,,,,,,,,,
,,,,,,,,,,,,,,,,,199108,20,2022-01-28_17h39.29.928,lexical_decision_task_DD_L3,2021.2.3,MacIntel,58.82352941,,,,,,,,,,,0.685,1,,,,,,,,,,,,,,z,1,0.685,,,,,,,,0,-0.391111111,0,0,0,,0,38,38,123,1,SEDGE,C,old,z,./images/SEDGE.png,,,,,,,,,,,,,,,,,,,,,,
,,,,,,,,,,,,,,,,,199108,20,2022-01-28_17h39.29.928,lexical_decision_task_DD_L3,2021.2.3,MacIntel,58.82352941,,,,,,,,,,,0.616,1,,,,,,,,,,,,,,m,1,0.616,,,,,,,,0,-0.391111111,0,0,0,,0,39,39,1,1,PLANK,C,old,m,./images/PLANK.png,,,,,,,,,,,,,,,,,,,,,,
,,,,,,,,,,,,,,,,,199108,20,2022-01-28_17h39.29.928,lexical_decision_task_DD_L3,2021.2.3,MacIntel,58.82352941,,,,,,,,,,,0.936,1,,,,,,,,,,,,,,z,1,0.936,,,,,,,,0,-0.391111111,0,0,0,,0,40,40,119,1,PAFER,LB,old,z,./images/PAFERLB.png,,,,,,,,,,,,,,,,,,,,,,
,,,,,,,,,,,,,,,,,199108,20,2022-01-28_17h39.29.928,lexical_decision_task_DD_L3,2021.2.3,MacIntel,58.82352941,,,,,,,,,,,0.618,1,,,,,,,,,,,,,,m,1,0.618,,,,,,,,0,-0.391111111,0,0,0,space,0,41,41,70,1,URINE,C,old,m,./images/URINE.png,4.62,,,,,,,,,,,,,,,,,,,,,
,,,,,,,,,,,,,,,,,199108,20,2022-01-28_17h39.29.928,lexical_decision_task_DD_L3,2021.2.3,MacIntel,58.82352941,,,,,,,,,,,0.62,1,,,,,,,,,,,,,,z,1,0.62,,,,,,,,0,-0.391111111,0,0,0,,0,42,42,88,1,GLUSH,HB,old,z,./images/GLUSHHB.png,,,,,,,,,,,,,,,,,,,,,,
,,,,,,,,,,,,,,,,,199108,20,2022-01-28_17h39.29.928,lexical_decision_task_DD_L3,2021.2.3,MacIntel,58.82352941,,,,,,,,,,,0.551,1,,,,,,,,,,,,,,z,1,0.551,,,,,,,,0,-0.391111111,0,0,0,,0,43,43,164,1,SGREW,LB,old,z,./images/SGREWLB.png,,,,,,,,,,,,,,,,,,,,,,
,,,,,,,,,,,,,,,,,199108,20,2022-01-28_17h39.29.928,lexical_decision_task_DD_L3,2021.2.3,MacIntel,58.82352941,,,,,,,,,,,0.848,1,,,,,,,,,,,,,,z,1,0.848,,,,,,,,0,-0.391111111,0,0,0,,0,44,44,109,1,BURGE,HB,old,z,./images/BURGEHB.png,,,,,,,,,,,,,,,,,,,,,,
,,,,,,,,,,,,,,,,,199108,20,2022-01-28_17h39.29.928,lexical_decision_task_DD_L3,2021.2.3,MacIntel,58.82352941,,,,,,,,,,,0.699,1,,,,,,,,,,,,,,m,1,0.699,,,,,,,,0,-0.391111111,0,0,0,,0,45,45,78,1,LITTER,LB,old,m,./images/LITTERLB.png,,,,,,,,,,,,,,,,,,,,,,
,,,,,,,,,,,,,,,,,199108,20,2022-01-28_17h39.29.928,lexical_decision_task_DD_L3,2021.2.3,MacIntel,58.82352941,,,,,,,,,,,1.05,1,,,,,,,,,,,,,,m,1,1.05,,,,,,,,0,-0.391111111,0,0,0,,0,46,46,31,1,QUILL,C,old,m,./images/QUILL.png,,,,,,,,,,,,,,,,,,,,,,
,,,,,,,,,,,,,,,,,199108,20,2022-01-28_17h39.29.928,lexical_decision_task_DD_L3,2021.2.3,MacIntel,58.82352941,,,,,,,,,,,0.568,1,,,,,,,,,,,,,,m,1,0.568,,,,,,,,0,-0.391111111,0,0,0,,0,47,47,10,1,BELLY,C,old,m,./images/BELLY.png,,,,,,,,,,,,,,,,,,,,,,
,,,,,,,,,,,,,,,,,199108,20,2022-01-28_17h39.29.928,lexical_decision_task_DD_L3,2021.2.3,MacIntel,58.82352941,,,,,,,,,,,0.78,1,,,,,,,,,,,,,,m,1,0.78,,,,,,,,0,-0.391111111,0,0,0,,0,48,48,83,1,JUNGLE,HB,old,m,./images/JUNGLEHB.png,,,,,,,,,,,,,,,,,,,,,,
,,,,,,,,,,,,,,,,,199108,20,2022-01-28_17h39.29.928,lexical_decision_task_DD_L3,2021.2.3,MacIntel,58.82352941,,,,,,,,,,,0.536,1,,,,,,,,,,,,,,z,1,0.536,,,,,,,,0,-0.391111111,0,0,0,,0,49,49,132,1,SCIFF,C,old,z,./images/SCIFF.png,,,,,,,,,,,,,,,,,,,,,,
,,,,,,,,,,,,,,,,,199108,20,2022-01-28_17h39.29.928,lexical_decision_task_DD_L3,2021.2.3,MacIntel,58.82352941,,,,,,,,,,,0.736,1,,,,,,,,,,,,,,z,1,0.736,,,,,,,,0,-0.391111111,0,0,0,,0,50,50,137,1,JOOST,LB,old,z,./images/JOOSTLB.png,,,,,,,,,,,,,,,,,,,,,,
,,,,,,,,,,,,,,,,,199108,20,2022-01-28_17h39.29.928,lexical_decision_task_DD_L3,2021.2.3,MacIntel,58.82352941,,,,,,,,,,,0.669,0,,,,,,,,,,,,,,z,0,0.669,,,,,,,,0,-0.391111111,0,0,0,,0,51,51,17,1,SKIING,HB,old,m,./images/SKIINGHB.png,,,,,,,,,,,,,,,,,,,,,,
,,,,,,,,,,,,,,,,,199108,20,2022-01-28_17h39.29.928,lexical_decision_task_DD_L3,2021.2.3,MacIntel,58.82352941,,,,,,,,,,,0.596,1,,,,,,,,,,,,,,m,1,0.596,,,,,,,,0,-0.391111111,0,0,0,,0,52,52,0,1,TOMATO,LB,old,m,./images/TOMATOLB.png,,,,,,,,,,,,,,,,,,,,,,
,,,,,,,,,,,,,,,,,199108,20,2022-01-28_17h39.29.928,lexical_decision_task_DD_L3,2021.2.3,MacIntel,58.82352941,,,,,,,,,,,0.662,1,,,,,,,,,,,,,,z,1,0.662,,,,,,,,0,-0.391111111,0,0,0,,0,53,53,167,1,ZONET,LB,old,z,./images/ZONETLB.png,,,,,,,,,,,,,,,,,,,,,,
,,,,,,,,,,,,,,,,,199108,20,2022-01-28_17h39.29.928,lexical_decision_task_DD_L3,2021.2.3,MacIntel,58.82352941,,,,,,,,,,,0.619,1,,,,,,,,,,,,,,m,1,0.619,,,,,,,,0,-0.391111111,0,0,0,,0,54,54,55,1,MUFFIN,C,old,m,./images/MUFFIN.png,,,,,,,,,,,,,,,,,,,,,,
,,,,,,,,,,,,,,,,,199108,20,2022-01-28_17h39.29.928,lexical_decision_task_DD_L3,2021.2.3,MacIntel,58.82352941,,,,,,,,,,,0.562,1,,,,,,,,,,,,,,m,1,0.562,,,,,,,,0,-0.391111111,0,0,0,,0,55,55,16,1,PENCE,C,old,m,./images/PENCE.png,,,,,,,,,,,,,,,,,,,,,,
,,,,,,,,,,,,,,,,,199108,20,2022-01-28_17h39.29.928,lexical_decision_task_DD_L3,2021.2.3,MacIntel,58.82352941,,,,,,,,,,,0.649,1,,,,,,,,,,,,,,z,1,0.649,,,,,,,,0,-0.391111111,0,0,0,,0,56,56,158,1,EGECT,LB,old,z,./images/EGECTLB.png,,,,,,,,,,,,,,,,,,,,,,
,,,,,,,,,,,,,,,,,199108,20,2022-01-28_17h39.29.928,lexical_decision_task_DD_L3,2021.2.3,MacIntel,58.82352941,,,,,,,,,,,0.918,1,,,,,,,,,,,,,,m,1,0.918,,,,,,,,0,-0.391111111,0,0,0,,0,57,57,38,1,LADDER,HB,old,m,./images/LADDERHB.png,,,,,,,,,,,,,,,,,,,,,,
,,,,,,,,,,,,,,,,,199108,20,2022-01-28_17h39.29.928,lexical_decision_task_DD_L3,2021.2.3,MacIntel,58.82352941,,,,,,,,,,,0.6,1,,,,,,,,,,,,,,m,1,0.6,,,,,,,,0,-0.391111111,0,0,0,,0,58,58,14,1,PICKLE,HB,old,m,./images/PICKLEHB.png,,,,,,,,,,,,,,,,,,,,,,
,,,,,,,,,,,,,,,,,199108,20,2022-01-28_17h39.29.928,lexical_decision_task_DD_L3,2021.2.3,MacIntel,58.82352941,,,,,,,,,,,0.583,1,,,,,,,,,,,,,,m,1,0.583,,,,,,,,0,-0.391111111,0,0,0,,0,59,59,15,1,GREASE,LB,old,m,./images/GREASELB.png,,,,,,,,,,,,,,,,,,,,,,
,,,,,,,,,,,,,,,,,199108,20,2022-01-28_17h39.29.928,lexical_decision_task_DD_L3,2021.2.3,MacIntel,58.82352941,,,,,,,,,,,0.849,1,,,,,,,,,,,,,,m,1,0.849,,,,,,,,0,-0.391111111,0,0,0,,0,60,60,47,1,BERRY,HB,old,m,./images/BERRYHB.png,,,,,,,,,,,,,,,,,,,,,,
,,,,,,,,,,,,,,,,,199108,20,2022-01-28_17h39.29.928,lexical_decision_task_DD_L3,2021.2.3,MacIntel,58.82352941,,,,,,,,,,,0.649,1,,,,,,,,,,,,,,z,1,0.649,,,,,,,,0,-0.391111111,0,0,0,,0,61,61,98,1,BAMPS,LB,old,z,./images/BAMPSLB.png,,,,,,,,,,,,,,,,,,,,,,
,,,,,,,,,,,,,,,,,199108,20,2022-01-28_17h39.29.928,lexical_decision_task_DD_L3,2021.2.3,MacIntel,58.82352941,,,,,,,,,,,1.034,1,,,,,,,,,,,,,,m,1,1.034,,,,,,,,0,-0.391111111,0,0,0,,0,62,62,65,1,FARMER,HB,old,m,./images/FARMERHB.png,,,,,,,,,,,,,,,,,,,,,,
,,,,,,,,,,,,,,,,,199108,20,2022-01-28_17h39.29.928,lexical_decision_task_DD_L3,2021.2.3,MacIntel,58.82352941,,,,,,,,,,,0.686,1,,,,,,,,,,,,,,z,1,0.686,,,,,,,,0,-0.391111111,0,0,0,,0,63,63,159,1,CUDDY,C,old,z,./images/CUDDY.png,,,,,,,,,,,,,,,,,,,,,,
,,,,,,,,,,,,,,,,,199108,20,2022-01-28_17h39.29.928,lexical_decision_task_DD_L3,2021.2.3,MacIntel,58.82352941,,,,,,,,,,,0.583,1,,,,,,,,,,,,,,m,1,0.583,,,,,,,,0,-0.391111111,0,0,0,,0,64,64,22,1,MELON,C,old,m,./images/MELON.png,,,,,,,,,,,,,,,,,,,,,,
,,,,,,,,,,,,,,,,,199108,20,2022-01-28_17h39.29.928,lexical_decision_task_DD_L3,2021.2.3,MacIntel,58.82352941,,,,,,,,,,,0.602,1,,,,,,,,,,,,,,m,1,0.602,,,,,,,,0,-0.391111111,0,0,0,,0,65,65,35,1,PEACH,HB,old,m,./images/PEACHHB.png,,,,,,,,,,,,,,,,,,,,,,
,,,,,,,,,,,,,,,,,199108,20,2022-01-28_17h39.29.928,lexical_decision_task_DD_L3,2021.2.3,MacIntel,58.82352941,,,,,,,,,,,0.768,0,,,,,,,,,,,,,,z,0,0.768,,,,,,,,0,-0.391111111,0,0,0,,0,66,66,34,1,CANYON,C,old,m,./images/CANYON.png,,,,,,,,,,,,,,,,,,,,,,
,,,,,,,,,,,,,,,,,199108,20,2022-01-28_17h39.29.928,lexical_decision_task_DD_L3,2021.2.3,MacIntel,58.82352941,,,,,,,,,,,0.833,1,,,,,,,,,,,,,,z,1,0.833,,,,,,,,0,-0.391111111,0,0,0,,0,67,67,142,1,PLASK,HB,old,z,./images/PLASKHB.png,,,,,,,,,,,,,,,,,,,,,,
,,,,,,,,,,,,,,,,,199108,20,2022-01-28_17h39.29.928,lexical_decision_task_DD_L3,2021.2.3,MacIntel,58.82352941,,,,,,,,,,,0.517,1,,,,,,,,,,,,,,m,1,0.517,,,,,,,,0,-0.391111111,0,0,0,,0,68,68,36,1,THROAT,LB,old,m,./images/THROATLB.png,,,,,,,,,,,,,,,,,,,,,,
,,,,,,,,,,,,,,,,,199108,20,2022-01-28_17h39.29.928,lexical_decision_task_DD_L3,2021.2.3,MacIntel,58.82352941,,,,,,,,,,,0.631,1,,,,,,,,,,,,,,m,1,0.631,,,,,,,,0,-0.391111111,0,0,0,,0,69,69,32,1,BARREL,HB,old,m,./images/BARRELHB.png,,,,,,,,,,,,,,,,,,,,,,
,,,,,,,,,,,,,,,,,199108,20,2022-01-28_17h39.29.928,lexical_decision_task_DD_L3,2021.2.3,MacIntel,58.82352941,,,,,,,,,,,0.599,1,,,,,,,,,,,,,,m,1,0.599,,,,,,,,0,-0.391111111,0,0,0,,0,70,70,42,1,FOLDER,LB,old,m,./images/FOLDERLB.png,,,,,,,,,,,,,,,,,,,,,,
,,,,,,,,,,,,,,,,,199108,20,2022-01-28_17h39.29.928,lexical_decision_task_DD_L3,2021.2.3,MacIntel,58.82352941,,,,,,,,,,,0.816,1,,,,,,,,,,,,,,z,1,0.816,,,,,,,,0,-0.391111111,0,0,0,,0,71,71,133,1,POWDY,HB,old,z,./images/POWDYHB.png,,,,,,,,,,,,,,,,,,,,,,
,,,,,,,,,,,,,,,,,199108,20,2022-01-28_17h39.29.928,lexical_decision_task_DD_L3,2021.2.3,MacIntel,58.82352941,,,,,,,,,,,0.565,1,,,,,,,,,,,,,,z,1,0.565,,,,,,,,0,-0.391111111,0,0,0,,0,72,72,108,1,GRUET,C,old,z,./images/GRUET.png,,,,,,,,,,,,,,,,,,,,,,
,,,,,,,,,,,,,,,,,199108,20,2022-01-28_17h39.29.928,lexical_decision_task_DD_L3,2021.2.3,MacIntel,58.82352941,,,,,,,,,,,0.634,1,,,,,,,,,,,,,,m,1,0.634,,,,,,,,0,-0.391111111,0,0,0,,0,73,73,7,1,PAINT,C,old,m,./images/PAINT.png,,,,,,,,,,,,,,,,,,,,,,
,,,,,,,,,,,,,,,,,199108,20,2022-01-28_17h39.29.928,lexical_decision_task_DD_L3,2021.2.3,MacIntel,58.82352941,,,,,,,,,,,0.582,1,,,,,,,,,,,,,,z,1,0.582,,,,,,,,0,-0.391111111,0,0,0,,0,74,74,86,1,AIFED,LB,old,z,./images/AIFEDLB.png,,,,,,,,,,,,,,,,,,,,,,
,,,,,,,,,,,,,,,,,199108,20,2022-01-28_17h39.29.928,lexical_decision_task_DD_L3,2021.2.3,MacIntel,58.82352941,,,,,,,,,,,0.803,1,,,,,,,,,,,,,,m,1,0.803,,,,,,,,0,-0.391111111,0,0,0,,0,75,75,44,1,LIZARD,HB,old,m,./images/LIZARDHB.png,,,,,,,,,,,,,,,,,,,,,,
,,,,,,,,,,,,,,,,,199108,20,2022-01-28_17h39.29.928,lexical_decision_task_DD_L3,2021.2.3,MacIntel,58.82352941,,,,,,,,,,,0.95,1,,,,,,,,,,,,,,m,1,0.95,,,,,,,,0,-0.391111111,0,0,0,,0,76,76,8,1,TULIP,HB,old,m,./images/TULIPHB.png,,,,,,,,,,,,,,,,,,,,,,
,,,,,,,,,,,,,,,,,199108,20,2022-01-28_17h39.29.928,lexical_decision_task_DD_L3,2021.2.3,MacIntel,58.82352941,,,,,,,,,,,0.741,0,,,,,,,,,,,,,,z,0,0.741,,,,,,,,0,-0.391111111,0,0,0,,0,77,77,20,1,CRADLE,HB,old,m,./images/CRADLEHB.png,,,,,,,,,,,,,,,,,,,,,,
,,,,,,,,,,,,,,,,,199108,20,2022-01-28_17h39.29.928,lexical_decision_task_DD_L3,2021.2.3,MacIntel,58.82352941,,,,,,,,,,,0.651,1,,,,,,,,,,,,,,m,1,0.651,,,,,,,,0,-0.391111111,0,0,0,,0,78,78,75,1,GRAIN,LB,old,m,./images/GRAINLB.png,,,,,,,,,,,,,,,,,,,,,,
,,,,,,,,,,,,,,,,,199108,20,2022-01-28_17h39.29.928,lexical_decision_task_DD_L3,2021.2.3,MacIntel,58.82352941,,,,,,,,,,,0.831,1,,,,,,,,,,,,,,m,1,0.831,,,,,,,,0,-0.391111111,0,0,0,,0,79,79,43,1,MOSQUE,C,old,m,./images/MOSQUE.png,,,,,,,,,,,,,,,,,,,,,,
,,,,,,,,,,,,,,,,,199108,20,2022-01-28_17h39.29.928,lexical_decision_task_DD_L3,2021.2.3,MacIntel,58.82352941,,,,,,,,,,,0.632,1,,,,,,,,,,,,,,z,1,0.632,,,,,,,,0,-0.391111111,0,0,0,,0,80,80,117,1,STEEG,C,old,z,./images/STEEG.png,,,,,,,,,,,,,,,,,,,,,,
,,,,,,,,,,,,,,,,,199108,20,2022-01-28_17h39.29.928,lexical_decision_task_DD_L3,2021.2.3,MacIntel,58.82352941,,,,,,,,,,,0.729,1,,,,,,,,,,,,,,z,1,0.729,,,,,,,,0,-0.391111111,0,0,0,,0,81,81,100,1,DRIBS,HB,old,z,./images/DRIBSHB.png,,,,,,,,,,,,,,,,,,,,,,
,,,,,,,,,,,,,,,,,199108,20,2022-01-28_17h39.29.928,lexical_decision_task_DD_L3,2021.2.3,MacIntel,58.82352941,,,,,,,,,,,0.633,1,,,,,,,,,,,,,,z,1,0.633,,,,,,,,0,-0.391111111,0,0,0,,0,82,82,156,1,HIXES,C,old,z,./images/HIXES.png,,,,,,,,,,,,,,,,,,,,,,
,,,,,,,,,,,,,,,,,199108,20,2022-01-28_17h39.29.928,lexical_decision_task_DD_L3,2021.2.3,MacIntel,58.82352941,,,,,,,,,,,0.817,1,,,,,,,,,,,,,,z,1,0.817,,,,,,,,0,-0.391111111,0,0,0,space,0,83,83,151,1,TINKY,HB,old,z,./images/TINKYHB.png,1.654,,,,,,,,,,,,,,,,,,,,,
,,,,,,,,,,,,,,,,,199108,20,2022-01-28_17h39.29.928,lexical_decision_task_DD_L3,2021.2.3,MacIntel,58.82352941,,,,,,,,,,,0.6,1,,,,,,,,,,,,,,m,1,0.6,,,,,,,,0,-0.391111111,0,0,0,,0,84,84,12,1,SHORE,LB,old,m,./images/SHORELB.png,,,,,,,,,,,,,,,,,,,,,,
,,,,,,,,,,,,,,,,,199108,20,2022-01-28_17h39.29.928,lexical_decision_task_DD_L3,2021.2.3,MacIntel,58.82352941,,,,,,,,,,,0.583,1,,,,,,,,,,,,,,m,1,0.583,,,,,,,,0,-0.391111111,0,0,0,,0,85,85,67,1,SAILOR,C,old,m,./images/SAILOR.png,,,,,,,,,,,,,,,,,,,,,,
,,,,,,,,,,,,,,,,,199108,20,2022-01-28_17h39.29.928,lexical_decision_task_DD_L3,2021.2.3,MacIntel,58.82352941,,,,,,,,,,,0.599,1,,,,,,,,,,,,,,m,1,0.599,,,,,,,,0,-0.391111111,0,0,0,,0,86,86,11,1,BONNET,HB,old,m,./images/BONNETHB.png,,,,,,,,,,,,,,,,,,,,,,
,,,,,,,,,,,,,,,,,199108,20,2022-01-28_17h39.29.928,lexical_decision_task_DD_L3,2021.2.3,MacIntel,58.82352941,,,,,,,,,,,0.582,1,,,,,,,,,,,,,,m,1,0.582,,,,,,,,0,-0.391111111,0,0,0,,0,87,87,82,1,SUNSET,C,old,m,./images/SUNSET.png,,,,,,,,,,,,,,,,,,,,,,
,,,,,,,,,,,,,,,,,199108,20,2022-01-28_17h39.29.928,lexical_decision_task_DD_L3,2021.2.3,MacIntel,58.82352941,,,,,,,,,,,0.847,1,,,,,,,,,,,,,,z,1,0.847,,,,,,,,0,-0.391111111,0,0,0,,0,88,88,127,1,NINDY,HB,old,z,./images/NINDYHB.png,,,,,,,,,,,,,,,,,,,,,,
,,,,,,,,,,,,,,,,,199108,20,2022-01-28_17h39.29.928,lexical_decision_task_DD_L3,2021.2.3,MacIntel,58.82352941,,,,,,,,,,,0.498,1,,,,,,,,,,,,,,m,1,0.498,,,,,,,,0,-0.391111111,0,0,0,,0,89,89,46,1,PEARL,C,old,m,./images/PEARL.png,,,,,,,,,,,,,,,,,,,,,,
,,,,,,,,,,,,,,,,,199108,20,2022-01-28_17h39.29.928,lexical_decision_task_DD_L3,2021.2.3,MacIntel,58.82352941,,,,,,,,,,,0.567,1,,,,,,,,,,,,,,m,1,0.567,,,,,,,,0,-0.391111111,0,0,0,,0,90,90,27,1,ATTIC,LB,old,m,./images/ATTICLB.png,,,,,,,,,,,,,,,,,,,,,,
,,,,,,,,,,,,,,,,,199108,20,2022-01-28_17h39.29.928,lexical_decision_task_DD_L3,2021.2.3,MacIntel,58.82352941,,,,,,,,,,,0.604,1,,,,,,,,,,,,,,z,1,0.604,,,,,,,,0,-0.391111111,0,0,0,,0,91,91,91,1,SHENS,HB,old,z,./images/SHENSHB.png,,,,,,,,,,,,,,,,,,,,,,
,,,,,,,,,,,,,,,,,199108,20,2022-01-28_17h39.29.928,lexical_decision_task_DD_L3,2021.2.3,MacIntel,58.82352941,,,,,,,,,,,0.571,1,,,,,,,,,,,,,,z,1,0.571,,,,,,,,0,-0.391111111,0,0,0,,0,92,92,97,1,CHIDS,HB,old,z,./images/CHIDSHB.png,,,,,,,,,,,,,,,,,,,,,,
,,,,,,,,,,,,,,,,,199108,20,2022-01-28_17h39.29.928,lexical_decision_task_DD_L3,2021.2.3,MacIntel,58.82352941,,,,,,,,,,,0.551,0,,,,,,,,,,,,,,m,0,0.551,,,,,,,,0,-0.391111111,0,0,0,,0,93,93,162,1,LEICH,C,old,z,./images/LEICH.png,,,,,,,,,,,,,,,,,,,,,,
,,,,,,,,,,,,,,,,,199108,20,2022-01-28_17h39.29.928,lexical_decision_task_DD_L3,2021.2.3,MacIntel,58.82352941,,,,,,,,,,,0.549,1,,,,,,,,,,,,,,m,1,0.549,,,,,,,,0,-0.391111111,0,0,0,,0,94,94,76,1,INFANT,C,old,m,./images/INFANT.png,,,,,,,,,,,,,,,,,,,,,,
,,,,,,,,,,,,,,,,,199108,20,2022-01-28_17h39.29.928,lexical_decision_task_DD_L3,2021.2.3,MacIntel,58.82352941,,,,,,,,,,,0.536,1,,,,,,,,,,,,,,m,1,0.536,,,,,,,,0,-0.391111111,0,0,0,,0,95,95,40,1,SWING,C,old,m,./images/SWING.png,,,,,,,,,,,,,,,,,,,,,,
,,,,,,,,,,,,,,,,,199108,20,2022-01-28_17h39.29.928,lexical_decision_task_DD_L3,2021.2.3,MacIntel,58.82352941,,,,,,,,,,,0.684,1,,,,,,,,,,,,,,z,1,0.684,,,,,,,,0,-0.391111111,0,0,0,,0,96,96,120,1,RINED,C,old,z,./images/RINED.png,,,,,,,,,,,,,,,,,,,,,,
,,,,,,,,,,,,,,,,,199108,20,2022-01-28_17h39.29.928,lexical_decision_task_DD_L3,2021.2.3,MacIntel,58.82352941,,,,,,,,,,,0.521,1,,,,,,,,,,,,,,z,1,0.521,,,,,,,,0,-0.391111111,0,0,0,,0,97,97,84,1,HAXES,C,old,z,./images/HAXES.png,,,,,,,,,,,,,,,,,,,,,,
,,,,,,,,,,,,,,,,,199108,20,2022-01-28_17h39.29.928,lexical_decision_task_DD_L3,2021.2.3,MacIntel,58.82352941,,,,,,,,,,,0.821,0,,,,,,,,,,,,,,z,0,0.821,,,,,,,,0,-0.391111111,0,0,0,,0,98,98,69,1,COOKER,LB,old,m,./images/COOKERLB.png,,,,,,,,,,,,,,,,,,,,,,
,,,,,,,,,,,,,,,,,199108,20,2022-01-28_17h39.29.928,lexical_decision_task_DD_L3,2021.2.3,MacIntel,58.82352941,,,,,,,,,,,0.568,1,,,,,,,,,,,,,,m,1,0.568,,,,,,,,0,-0.391111111,0,0,0,,0,99,99,63,1,MIRROR,LB,old,m,./images/MIRRORLB.png,,,,,,,,,,,,,,,,,,,,,,
,,,,,,,,,,,,,,,,,199108,20,2022-01-28_17h39.29.928,lexical_decision_task_DD_L3,2021.2.3,MacIntel,58.82352941,,,,,,,,,,,0.601,1,,,,,,,,,,,,,,z,1,0.601,,,,,,,,0,-0.391111111,0,0,0,,0,100,100,102,1,DULLE,C,old,z,./images/DULLE.png,,,,,,,,,,,,,,,,,,,,,,
,,,,,,,,,,,,,,,,,199108,20,2022-01-28_17h39.29.928,lexical_decision_task_DD_L3,2021.2.3,MacIntel,58.82352941,,,,,,,,,,,0.521,1,,,,,,,,,,,,,,z,1,0.521,,,,,,,,0,-0.391111111,0,0,0,,0,101,101,147,1,ZOLES,C,old,z,./images/ZOLES.png,,,,,,,,,,,,,,,,,,,,,,
,,,,,,,,,,,,,,,,,199108,20,2022-01-28_17h39.29.928,lexical_decision_task_DD_L3,2021.2.3,MacIntel,58.82352941,,,,,,,,,,,0.666,1,,,,,,,,,,,,,,z,1,0.666,,,,,,,,0,-0.391111111,0,0,0,,0,102,102,110,1,CRUNK,LB,old,z,./images/CRUNKLB.png,,,,,,,,,,,,,,,,,,,,,,
,,,,,,,,,,,,,,,,,199108,20,2022-01-28_17h39.29.928,lexical_decision_task_DD_L3,2021.2.3,MacIntel,58.82352941,,,,,,,,,,,0.532,1,,,,,,,,,,,,,,z,1,0.532,,,,,,,,0,-0.391111111,0,0,0,,0,103,103,129,1,PRANS,C,old,z,./images/PRANS.png,,,,,,,,,,,,,,,,,,,,,,
,,,,,,,,,,,,,,,,,199108,20,2022-01-28_17h39.29.928,lexical_decision_task_DD_L3,2021.2.3,MacIntel,58.82352941,,,,,,,,,,,0.6,1,,,,,,,,,,,,,,z,1,0.6,,,,,,,,0,-0.391111111,0,0,0,,0,104,104,121,1,CEERS,HB,old,z,./images/CEERSHB.png,,,,,,,,,,,,,,,,,,,,,,
,,,,,,,,,,,,,,,,,199108,20,2022-01-28_17h39.29.928,lexical_decision_task_DD_L3,2021.2.3,MacIntel,58.82352941,,,,,,,,,,,0.667,1,,,,,,,,,,,,,,m,1,0.667,,,,,,,,0,-0.391111111,0,0,0,,0,105,105,49,1,DRUMS,C,old,m,./images/DRUMS.png,,,,,,,,,,,,,,,,,,,,,,
,,,,,,,,,,,,,,,,,199108,20,2022-01-28_17h39.29.928,lexical_decision_task_DD_L3,2021.2.3,MacIntel,58.82352941,,,,,,,,,,,0.815,1,,,,,,,,,,,,,,z,1,0.815,,,,,,,,0,-0.391111111,0,0,0,,0,106,106,107,1,FASKS,LB,old,z,./images/FASKSLB.png,,,,,,,,,,,,,,,,,,,,,,
,,,,,,,,,,,,,,,,,199108,20,2022-01-28_17h39.29.928,lexical_decision_task_DD_L3,2021.2.3,MacIntel,58.82352941,,,,,,,,,,,0.551,1,,,,,,,,,,,,,,m,1,0.551,,,,,,,,0,-0.391111111,0,0,0,,0,107,107,3,1,FINGER,LB,old,m,./images/FINGERLB.png,,,,,,,,,,,,,,,,,,,,,,
,,,,,,,,,,,,,,,,,199108,20,2022-01-28_17h39.29.928,lexical_decision_task_DD_L3,2021.2.3,MacIntel,58.82352941,,,,,,,,,,,0.681,1,,,,,,,,,,,,,,m,1,0.681,,,,,,,,0,-0.391111111,0,0,0,,0,108,108,81,1,POODLE,LB,old,m,./images/POODLELB.png,,,,,,,,,,,,,,,,,,,,,,
,,,,,,,,,,,,,,,,,199108,20,2022-01-28_17h39.29.928,lexical_decision_task_DD_L3,2021.2.3,MacIntel,58.82352941,,,,,,,,,,,0.548,1,,,,,,,,,,,,,,z,1,0.548,,,,,,,,0,-0.391111111,0,0,0,,0,109,109,118,1,BAVEL,HB,old,z,./images/BAVELHB.png,,,,,,,,,,,,,,,,,,,,,,
,,,,,,,,,,,,,,,,,199108,20,2022-01-28_17h39.29.928,lexical_decision_task_DD_L3,2021.2.3,MacIntel,58.82352941,,,,,,,,,,,0.784,1,,,,,,,,,,,,,,z,1,0.784,,,,,,,,0,-0.391111111,0,0,0,,0,110,110,103,1,FLORT,HB,old,z,./images/FLORTHB.png,,,,,,,,,,,,,,,,,,,,,,
,,,,,,,,,,,,,,,,,199108,20,2022-01-28_17h39.29.928,lexical_decision_task_DD_L3,2021.2.3,MacIntel,58.82352941,,,,,,,,,,,0.619,1,,,,,,,,,,,,,,z,1,0.619,,,,,,,,0,-0.391111111,0,0,0,,0,111,111,141,1,PLEET,C,old,z,./images/PLEET.png,,,,,,,,,,,,,,,,,,,,,,
,,,,,,,,,,,,,,,,,199108,20,2022-01-28_17h39.29.928,lexical_decision_task_DD_L3,2021.2.3,MacIntel,58.82352941,,,,,,,,,,,0.582,1,,,,,,,,,,,,,,m,1,0.582,,,,,,,,0,-0.391111111,0,0,0,,0,112,112,21,1,KIDNEY,LB,old,m,./images/KIDNEYLB.png,,,,,,,,,,,,,,,,,,,,,,
,,,,,,,,,,,,,,,,,199108,20,2022-01-28_17h39.29.928,lexical_decision_task_DD_L3,2021.2.3,MacIntel,58.82352941,,,,,,,,,,,0.589,1,,,,,,,,,,,,,,z,1,0.589,,,,,,,,0,-0.391111111,0,0,0,,0,113,113,131,1,NACES,LB,old,z,./images/NACESLB.png,,,,,,,,,,,,,,,,,,,,,,
,,,,,,,,,,,,,,,,,199108,20,2022-01-28_17h39.29.928,lexical_decision_task_DD_L3,2021.2.3,MacIntel,58.82352941,,,,,,,,,,,0.682,0,,,,,,,,,,,,,,z,0,0.682,,,,,,,,0,-0.391111111,0,0,0,,0,114,114,77,1,COUCH,HB,old,m,./images/COUCHHB.png,,,,,,,,,,,,,,,,,,,,,,
,,,,,,,,,,,,,,,,,199108,20,2022-01-28_17h39.29.928,lexical_decision_task_DD_L3,2021.2.3,MacIntel,58.82352941,,,,,,,,,,,0.982,1,,,,,,,,,,,,,,m,1,0.982,,,,,,,,0,-0.391111111,0,0,0,,0,115,115,79,1,CRUST,C,old,m,./images/CRUST.png,,,,,,,,,,,,,,,,,,,,,,
,,,,,,,,,,,,,,,,,199108,20,2022-01-28_17h39.29.928,lexical_decision_task_DD_L3,2021.2.3,MacIntel,58.82352941,,,,,,,,,,,0.621,1,,,,,,,,,,,,,,z,1,0.621,,,,,,,,0,-0.391111111,0,0,0,,0,116,116,95,1,HANTY,LB,old,z,./images/HANTYLB.png,,,,,,,,,,,,,,,,,,,,,,
,,,,,,,,,,,,,,,,,199108,20,2022-01-28_17h39.29.928,lexical_decision_task_DD_L3,2021.2.3,MacIntel,58.82352941,,,,,,,,,,,0.614,1,,,,,,,,,,,,,,m,1,0.614,,,,,,,,0,-0.391111111,0,0,0,,0,117,117,66,1,SWEAT,LB,old,m,./images/SWEATLB.png,,,,,,,,,,,,,,,,,,,,,,
,,,,,,,,,,,,,,,,,199108,20,2022-01-28_17h39.29.928,lexical_decision_task_DD_L3,2021.2.3,MacIntel,58.82352941,,,,,,,,,,,0.8,1,,,,,,,,,,,,,,z,1,0.8,,,,,,,,0,-0.391111111,0,0,0,,0,118,118,92,1,PAIMS,LB,old,z,./images/PAIMSLB.png,,,,,,,,,,,,,,,,,,,,,,
,,,,,,,,,,,,,,,,,199108,20,2022-01-28_17h39.29.928,lexical_decision_task_DD_L3,2021.2.3,MacIntel,58.82352941,,,,,,,,,,,0.75,1,,,,,,,,,,,,,,m,1,0.75,,,,,,,,0,-0.391111111,0,0,0,,0,119,119,68,1,TORCH,HB,old,m,./images/TORCHHB.png,,,,,,,,,,,,,,,,,,,,,,
,,,,,,,,,,,,,,,,,199108,20,2022-01-28_17h39.29.928,lexical_decision_task_DD_L3,2021.2.3,MacIntel,58.82352941,,,,,,,,,,,0.633,1,,,,,,,,,,,,,,z,1,0.633,,,,,,,,0,-0.391111111,0,0,0,,0,120,120,152,1,FRAIN,LB,old,z,./images/FRAINLB.png,,,,,,,,,,,,,,,,,,,,,,
,,,,,,,,,,,,,,,,,199108,20,2022-01-28_17h39.29.928,lexical_decision_task_DD_L3,2021.2.3,MacIntel,58.82352941,,,,,,,,,,,0.536,1,,,,,,,,,,,,,,z,1,0.536,,,,,,,,0,-0.391111111,0,0,0,,0,121,121,143,1,MONGS,LB,old,z,./images/MONGSLB.png,,,,,,,,,,,,,,,,,,,,,,
,,,,,,,,,,,,,,,,,199108,20,2022-01-28_17h39.29.928,lexical_decision_task_DD_L3,2021.2.3,MacIntel,58.82352941,,,,,,,,,,,0.634,1,,,,,,,,,,,,,,z,1,0.634,,,,,,,,0,-0.391111111,0,0,0,,0,122,122,154,1,THINT,HB,old,z,./images/THINTHB.png,,,,,,,,,,,,,,,,,,,,,,
,,,,,,,,,,,,,,,,,199108,20,2022-01-28_17h39.29.928,lexical_decision_task_DD_L3,2021.2.3,MacIntel,58.82352941,,,,,,,,,,,0.511,0,,,,,,,,,,,,,,z,0,0.511,,,,,,,,0,-0.391111111,0,0,0,,0,123,123,23,1,WALRUS,HB,old,m,./images/WALRUSHB.png,,,,,,,,,,,,,,,,,,,,,,
,,,,,,,,,,,,,,,,,199108,20,2022-01-28_17h39.29.928,lexical_decision_task_DD_L3,2021.2.3,MacIntel,58.82352941,,,,,,,,,,,0.583,1,,,,,,,,,,,,,,z,1,0.583,,,,,,,,0,-0.391111111,0,0,0,,0,124,124,90,1,NEAST,C,old,z,./images/NEAST.png,,,,,,,,,,,,,,,,,,,,,,
,,,,,,,,,,,,,,,,,199108,20,2022-01-28_17h39.29.928,lexical_decision_task_DD_L3,2021.2.3,MacIntel,58.82352941,,,,,,,,,,,0.732,1,,,,,,,,,,,,,,z,1,0.732,,,,,,,,0,-0.391111111,0,0,0,space,0,125,125,149,1,VEASE,LB,old,z,./images/VEASELB.png,1.385,,,,,,,,,,,,,,,,,,,,,
,,,,,,,,,,,,,,,,,199108,20,2022-01-28_17h39.29.928,lexical_decision_task_DD_L3,2021.2.3,MacIntel,58.82352941,,,,,,,,,,,0.604,1,,,,,,,,,,,,,,z,1,0.604,,,,,,,,0,-0.391111111,0,0,0,,0,126,126,145,1,LAMEL,HB,old,z,./images/LAMELHB.png,,,,,,,,,,,,,,,,,,,,,,
,,,,,,,,,,,,,,,,,199108,20,2022-01-28_17h39.29.928,lexical_decision_task_DD_L3,2021.2.3,MacIntel,58.82352941,,,,,,,,,,,0.54,1,,,,,,,,,,,,,,z,1,0.54,,,,,,,,0,-0.391111111,0,0,0,,0,127,127,135,1,JOODY,C,old,z,./images/JOODY.png,,,,,,,,,,,,,,,,,,,,,,
,,,,,,,,,,,,,,,,,199108,20,2022-01-28_17h39.29.928,lexical_decision_task_DD_L3,2021.2.3,MacIntel,58.82352941,,,,,,,,,,,0.49,1,,,,,,,,,,,,,,z,1,0.49,,,,,,,,0,-0.391111111,0,0,0,,0,128,128,144,1,NAIRY,C,old,z,./images/NAIRY.png,,,,,,,,,,,,,,,,,,,,,,
,,,,,,,,,,,,,,,,,199108,20,2022-01-28_17h39.29.928,lexical_decision_task_DD_L3,2021.2.3,MacIntel,58.82352941,,,,,,,,,,,0.882,0,,,,,,,,,,,,,,m,0,0.882,,,,,,,,0,-0.391111111,0,0,0,,0,129,129,166,1,SHORY,HB,old,z,./images/SHORYHB.png,,,,,,,,,,,,,,,,,,,,,,
,,,,,,,,,,,,,,,,,199108,20,2022-01-28_17h39.29.928,lexical_decision_task_DD_L3,2021.2.3,MacIntel,58.82352941,,,,,,,,,,,0.583,1,,,,,,,,,,,,,,z,1,0.583,,,,,,,,0,-0.391111111,0,0,0,,0,130,130,157,1,INLER,HB,old,z,./images/INLERHB.png,,,,,,,,,,,,,,,,,,,,,,
,,,,,,,,,,,,,,,,,199108,20,2022-01-28_17h39.29.928,lexical_decision_task_DD_L3,2021.2.3,MacIntel,58.82352941,,,,,,,,,,,0.596,1,,,,,,,,,,,,,,z,1,0.596,,,,,,,,0,-0.391111111,0,0,0,,0,131,131,128,1,GRIFT,LB,old,z,./images/GRIFTLB.png,,,,,,,,,,,,,,,,,,,,,,
,,,,,,,,,,,,,,,,,199108,20,2022-01-28_17h39.29.928,lexical_decision_task_DD_L3,2021.2.3,MacIntel,58.82352941,,,,,,,,,,,1.122,1,,,,,,,,,,,,,,z,1,1.122,,,,,,,,0,-0.391111111,0,0,0,,0,132,132,85,1,CHULK,HB,old,z,./images/CHULKHB.png,,,,,,,,,,,,,,,,,,,,,,
,,,,,,,,,,,,,,,,,199108,20,2022-01-28_17h39.29.928,lexical_decision_task_DD_L3,2021.2.3,MacIntel,58.82352941,,,,,,,,,,,0.8,0,,,,,,,,,,,,,,z,0,0.8,,,,,,,,0,-0.391111111,0,0,0,,0,133,133,33,1,MAGGOT,LB,old,m,./images/MAGGOTLB.png,,,,,,,,,,,,,,,,,,,,,,
,,,,,,,,,,,,,,,,,199108,20,2022-01-28_17h39.29.928,lexical_decision_task_DD_L3,2021.2.3,MacIntel,58.82352941,,,,,,,,,,,0.733,1,,,,,,,,,,,,,,m,1,0.733,,,,,,,,0,-0.391111111,0,0,0,,0,134,134,57,1,MOOSE,LB,old,m,./images/MOOSELB.png,,,,,,,,,,,,,,,,,,,,,,
,,,,,,,,,,,,,,,,,199108,20,2022-01-28_17h39.29.928,lexical_decision_task_DD_L3,2021.2.3,MacIntel,58.82352941,,,,,,,,,,,0.77,1,,,,,,,,,,,,,,m,1,0.77,,,,,,,,0,-0.391111111,0,0,0,,0,135,135,29,1,CRUMB,HB,old,m,./images/CRUMBHB.png,,,,,,,,,,,,,,,,,,,,,,
,,,,,,,,,,,,,,,,,199108,20,2022-01-28_17h39.29.928,lexical_decision_task_DD_L3,2021.2.3,MacIntel,58.82352941,,,,,,,,,,,0.548,1,,,,,,,,,,,,,,m,1,0.548,,,,,,,,0,-0.391111111,0,0,0,,0,136,136,45,1,KITTEN,LB,old,m,./images/KITTENLB.png,,,,,,,,,,,,,,,,,,,,,,
,,,,,,,,,,,,,,,,,199108,20,2022-01-28_17h39.29.928,lexical_decision_task_DD_L3,2021.2.3,MacIntel,58.82352941,,,,,,,,,,,1.087,1,,,,,,,,,,,,,,z,1,1.087,,,,,,,,0,-0.391111111,0,0,0,,0,137,137,106,1,CLUMS,HB,old,z,./images/CLUMSHB.png,,,,,,,,,,,,,,,,,,,,,,
,,,,,,,,,,,,,,,,,199108,20,2022-01-28_17h39.29.928,lexical_decision_task_DD_L3,2021.2.3,MacIntel,58.82352941,,,,,,,,,,,0.677,1,,,,,,,,,,,,,,z,1,0.677,,,,,,,,0,-0.391111111,0,0,0,,0,138,138,134,1,TROSS,LB,old,z,./images/TROSSLB.png,,,,,,,,,,,,,,,,,,,,,,
,,,,,,,,,,,,,,,,,199108,20,2022-01-28_17h39.29.928,lexical_decision_task_DD_L3,2021.2.3,MacIntel,58.82352941,,,,,,,,,,,0.662,1,,,,,,,,,,,,,,z,1,0.662,,,,,,,,0,-0.391111111,0,0,0,,0,139,139,140,1,DOVET,LB,old,z,./images/DOVETLB.png,,,,,,,,,,,,,,,,,,,,,,
,,,,,,,,,,,,,,,,,199108,20,2022-01-28_17h39.29.928,lexical_decision_task_DD_L3,2021.2.3,MacIntel,58.82352941,,,,,,,,,,,0.504,0,,,,,,,,,,,,,,z,0,0.504,,,,,,,,0,-0.391111111,0,0,0,,0,140,140,19,1,DOUGH,C,old,m,./images/DOUGH.png,,,,,,,,,,,,,,,,,,,,,,
,,,,,,,,,,,,,,,,,199108,20,2022-01-28_17h39.29.928,lexical_decision_task_DD_L3,2021.2.3,MacIntel,58.82352941,,,,,,,,,,,0.565,0,,,,,,,,,,,,,,z,0,0.565,,,,,,,,0,-0.391111111,0,0,0,,0,141,141,59,1,BURIAL,HB,old,m,./images/BURIALHB.png,,,,,,,,,,,,,,,,,,,,,,
,,,,,,,,,,,,,,,,,199108,20,2022-01-28_17h39.29.928,lexical_decision_task_DD_L3,2021.2.3,MacIntel,58.82352941,,,,,,,,,,,0.594,1,,,,,,,,,,,,,,m,1,0.594,,,,,,,,0,-0.391111111,0,0,0,,0,142,142,18,1,JAGUAR,LB,old,m,./images/JAGUARLB.png,,,,,,,,,,,,,,,,,,,,,,
,,,,,,,,,,,,,,,,,199108,20,2022-01-28_17h39.29.928,lexical_decision_task_DD_L3,2021.2.3,MacIntel,58.82352941,,,,,,,,,,,0.665,1,,,,,,,,,,,,,,m,1,0.665,,,,,,,,0,-0.391111111,0,0,0,,0,143,143,26,1,SMOKER,HB,old,m,./images/SMOKERHB.png,,,,,,,,,,,,,,,,,,,,,,
,,,,,,,,,,,,,,,,,199108,20,2022-01-28_17h39.29.928,lexical_decision_task_DD_L3,2021.2.3,MacIntel,58.82352941,,,,,,,,,,,0.657,1,,,,,,,,,,,,,,z,1,0.657,,,,,,,,0,-0.391111111,0,0,0,,0,144,144,126,1,GUELS,C,old,z,./images/GUELS.png,,,,,,,,,,,,,,,,,,,,,,
,,,,,,,,,,,,,,,,,199108,20,2022-01-28_17h39.29.928,lexical_decision_task_DD_L3,2021.2.3,MacIntel,58.82352941,,,,,,,,,,,0.6,1,,,,,,,,,,,,,,z,1,0.6,,,,,,,,0,-0.391111111,0,0,0,,0,145,145,148,1,JOMS,HB,old,z,./images/JOMSHB.png,,,,,,,,,,,,,,,,,,,,,,
,,,,,,,,,,,,,,,,,199108,20,2022-01-28_17h39.29.928,lexical_decision_task_DD_L3,2021.2.3,MacIntel,58.82352941,,,,,,,,,,,0.621,1,,,,,,,,,,,,,,m,1,0.621,,,,,,,,0,-0.391111111,0,0,0,,0,146,146,4,1,MUSCLE,C,old,m,./images/MUSCLE.png,,,,,,,,,,,,,,,,,,,,,,
,,,,,,,,,,,,,,,,,199108,20,2022-01-28_17h39.29.928,lexical_decision_task_DD_L3,2021.2.3,MacIntel,58.82352941,,,,,,,,,,,0.706,1,,,,,,,,,,,,,,m,1,0.706,,,,,,,,0,-0.391111111,0,0,0,,0,147,147,5,1,PASTA,HB,old,m,./images/PASTAHB.png,,,,,,,,,,,,,,,,,,,,,,
,,,,,,,,,,,,,,,,,199108,20,2022-01-28_17h39.29.928,lexical_decision_task_DD_L3,2021.2.3,MacIntel,58.82352941,,,,,,,,,,,0.849,1,,,,,,,,,,,,,,m,1,0.849,,,,,,,,0,-0.391111111,0,0,0,,0,148,148,80,1,WEASEL,HB,old,m,./images/WEASELHB.png,,,,,,,,,,,,,,,,,,,,,,
,,,,,,,,,,,,,,,,,199108,20,2022-01-28_17h39.29.928,lexical_decision_task_DD_L3,2021.2.3,MacIntel,58.82352941,,,,,,,,,,,0.715,1,,,,,,,,,,,,,,m,1,0.715,,,,,,,,0,-0.391111111,0,0,0,,0,149,149,71,1,PIMPLE,HB,old,m,./images/PIMPLEHB.png,,,,,,,,,,,,,,,,,,,,,,
,,,,,,,,,,,,,,,,,199108,20,2022-01-28_17h39.29.928,lexical_decision_task_DD_L3,2021.2.3,MacIntel,58.82352941,,,,,,,,,,,0.606,1,,,,,,,,,,,,,,z,1,0.606,,,,,,,,0,-0.391111111,0,0,0,,0,150,150,138,1,PLICE,C,old,z,./images/PLICE.png,,,,,,,,,,,,,,,,,,,,,,
,,,,,,,,,,,,,,,,,199108,20,2022-01-28_17h39.29.928,lexical_decision_task_DD_L3,2021.2.3,MacIntel,58.82352941,,,,,,,,,,,0.598,1,,,,,,,,,,,,,,z,1,0.598,,,,,,,,0,-0.391111111,0,0,0,,0,151,151,116,1,BALGY,LB,old,z,./images/BALGYLB.png,,,,,,,,,,,,,,,,,,,,,,
,,,,,,,,,,,,,,,,,199108,20,2022-01-28_17h39.29.928,lexical_decision_task_DD_L3,2021.2.3,MacIntel,58.82352941,,,,,,,,,,,0.772,1,,,,,,,,,,,,,,m,1,0.772,,,,,,,,0,-0.391111111,0,0,0,,0,152,152,2,1,BEARD,HB,old,m,./images/BEARDHB.png,,,,,,,,,,,,,,,,,,,,,,
,,,,,,,,,,,,,,,,,199108,20,2022-01-28_17h39.29.928,lexical_decision_task_DD_L3,2021.2.3,MacIntel,58.82352941,,,,,,,,,,,0.985,1,,,,,,,,,,,,,,z,1,0.985,,,,,,,,0,-0.391111111,0,0,0,,0,153,153,115,1,MAWNS,HB,old,z,./images/MAWNSHB.png,,,,,,,,,,,,,,,,,,,,,,
,,,,,,,,,,,,,,,,,199108,20,2022-01-28_17h39.29.928,lexical_decision_task_DD_L3,2021.2.3,MacIntel,58.82352941,,,,,,,,,,,0.738,1,,,,,,,,,,,,,,z,1,0.738,,,,,,,,0,-0.391111111,0,0,0,,0,154,154,104,1,GITTY,LB,old,z,./images/GITTYLB.png,,,,,,,,,,,,,,,,,,,,,,
,,,,,,,,,,,,,,,,,199108,20,2022-01-28_17h39.29.928,lexical_decision_task_DD_L3,2021.2.3,MacIntel,58.82352941,,,,,,,,,,,0.553,1,,,,,,,,,,,,,,z,1,0.553,,,,,,,,0,-0.391111111,0,0,0,,0,155,155,89,1,DRIEK,LB,old,z,./images/DRIEKLB.png,,,,,,,,,,,,,,,,,,,,,,
,,,,,,,,,,,,,,,,,199108,20,2022-01-28_17h39.29.928,lexical_decision_task_DD_L3,2021.2.3,MacIntel,58.82352941,,,,,,,,,,,0.584,1,,,,,,,,,,,,,,m,1,0.584,,,,,,,,0,-0.391111111,0,0,0,,0,156,156,25,1,WRIST,C,old,m,./images/WRIST.png,,,,,,,,,,,,,,,,,,,,,,
,,,,,,,,,,,,,,,,,199108,20,2022-01-28_17h39.29.928,lexical_decision_task_DD_L3,2021.2.3,MacIntel,58.82352941,,,,,,,,,,,0.571,1,,,,,,,,,,,,,,m,1,0.571,,,,,,,,0,-0.391111111,0,0,0,,0,157,157,60,1,TWINS,LB,old,m,./images/TWINSLB.png,,,,,,,,,,,,,,,,,,,,,,
,,,,,,,,,,,,,,,,,199108,20,2022-01-28_17h39.29.928,lexical_decision_task_DD_L3,2021.2.3,MacIntel,58.82352941,,,,,,,,,,,0.629,1,,,,,,,,,,,,,,z,1,0.629,,,,,,,,0,-0.391111111,0,0,0,,0,158,158,125,1,MOOKY,LB,old,z,./images/MOOKYLB.png,,,,,,,,,,,,,,,,,,,,,,
,,,,,,,,,,,,,,,,,199108,20,2022-01-28_17h39.29.928,lexical_decision_task_DD_L3,2021.2.3,MacIntel,58.82352941,,,,,,,,,,,0.583,1,,,,,,,,,,,,,,m,1,0.583,,,,,,,,0,-0.391111111,0,0,0,,0,159,159,6,1,SQUARE,LB,old,m,./images/SQUARELB.png,,,,,,,,,,,,,,,,,,,,,,
,,,,,,,,,,,,,,,,,199108,20,2022-01-28_17h39.29.928,lexical_decision_task_DD_L3,2021.2.3,MacIntel,58.82352941,,,,,,,,,,,0.433,1,,,,,,,,,,,,,,m,1,0.433,,,,,,,,0,-0.391111111,0,0,0,,0,160,160,48,1,SPORT,LB,old,m,./images/SPORTLB.png,,,,,,,,,,,,,,,,,,,,,,
,,,,,,,,,,,,,,,,,199108,20,2022-01-28_17h39.29.928,lexical_decision_task_DD_L3,2021.2.3,MacIntel,58.82352941,,,,,,,,,,,0.463,1,,,,,,,,,,,,,,m,1,0.463,,,,,,,,0,-0.391111111,0,0,0,,0,161,161,30,1,STORM,LB,old,m,./images/STORMLB.png,,,,,,,,,,,,,,,,,,,,,,
,,,,,,,,,,,,,,,,,199108,20,2022-01-28_17h39.29.928,lexical_decision_task_DD_L3,2021.2.3,MacIntel,58.82352941,,,,,,,,,,,0.636,1,,,,,,,,,,,,,,z,1,0.636,,,,,,,,0,-0.391111111,0,0,0,,0,162,162,93,1,SMONE,C,old,z,./images/SMONE.png,,,,,,,,,,,,,,,,,,,,,,
,,,,,,,,,,,,,,,,,199108,20,2022-01-28_17h39.29.928,lexical_decision_task_DD_L3,2021.2.3,MacIntel,58.82352941,,,,,,,,,,,0.532,1,,,,,,,,,,,,,,z,1,0.532,,,,,,,,0,-0.391111111,0,0,0,,0,163,163,150,1,NOOLS,C,old,z,./images/NOOLS.png,,,,,,,,,,,,,,,,,,,,,,
,,,,,,,,,,,,,,,,,199108,20,2022-01-28_17h39.29.928,lexical_decision_task_DD_L3,2021.2.3,MacIntel,58.82352941,,,,,,,,,,,0.548,1,,,,,,,,,,,,,,m,1,0.548,,,,,,,,0,-0.391111111,0,0,0,,0,164,164,64,1,JELLY,C,old,m,./images/JELLY.png,,,,,,,,,,,,,,,,,,,,,,
,,,,,,,,,,,,,,,,,199108,20,2022-01-28_17h39.29.928,lexical_decision_task_DD_L3,2021.2.3,MacIntel,58.82352941,,,,,,,,,,,0.771,1,,,,,,,,,,,,,,m,1,0.771,,,,,,,,0,-0.391111111,0,0,0,,0,165,165,74,1,CEMENT,HB,old,m,./images/CEMENTHB.png,,,,,,,,,,,,,,,,,,,,,,
,,,,,,,,,,,,,,,,,199108,20,2022-01-28_17h39.29.928,lexical_decision_task_DD_L3,2021.2.3,MacIntel,58.82352941,,,,,,,,,,,0.52,1,,,,,,,,,,,,,,m,1,0.52,,,,,,,,0,-0.391111111,0,0,0,,0,166,166,28,1,FALCON,C,old,m,./images/FALCON.png,,,,,,,,,,,,,,,,,,,,,,
,,,,,,,,,,,,,,,,,199108,20,2022-01-28_17h39.29.928,lexical_decision_task_DD_L3,2021.2.3,MacIntel,58.82352941,,,,,,,,,,,0.598,1,,,,,,,,,,,,,,m,1,0.598,,,,,,,,0,-0.391111111,0,0,0,,0,167,167,56,1,PACKET,HB,old,m,./images/PACKETHB.png,,,,,,,,,,,,,,,,,,,,,,
space,96.33,0.212222222,-0.016666667,0,0,0,,,,,,1,test,"In the next phase you will be presented with the words from the the first phase. Your job is to decide whether you remember seeing the word or not. If you remember seeing the word press ""old"" or type ""m"". If you do not remember seeing the word press ""new"" or type ""z"". Please press the space bar or click on continue to begin. ",,,199108,20,2022-01-28_17h39.29.928,lexical_decision_task_DD_L3,2021.2.3,MacIntel,58.82352941,,,,,,,,,,,,,,,,,,,,,,,,,,,,,,,,,,,,,,,,,,,,,,,,,,,,,0,0,0,0,1,,,,,,,,,,,,,,,,
,,0.093333333,-0.382222222,1,0,0,,,,,,1,test,"In the next phase you will be presented with the words from the the first phase. Your job is to decide whether you remember seeing the word or not. If you remember seeing the word press ""old"" or type ""m"". If you do not remember seeing the word press ""new"" or type ""z"". Please press the space bar or click on continue to begin. ",,,199108,20,2022-01-28_17h39.29.928,lexical_decision_task_DD_L3,2021.2.3,MacIntel,58.82352941,,,,,,,,,,,,,,,,,,,,,,,,,,,,,,,,,,,,,,,,,,,,,,,,,,,,,1,0,1,0,1,instr_done_button,,,,,,,,,,,,,,,
,,0.022222222,-0.394444444,1,0,0,,,,,,1,test,"In the next phase you will be presented with the words from the the first phase. Your job is to decide whether you remember seeing the word or not. If you remember seeing the word press ""old"" or type ""m"". If you do not remember seeing the word press ""new"" or type ""z"". Please press the space bar or click on continue to begin. ",,,199108,20,2022-01-28_17h39.29.928,lexical_decision_task_DD_L3,2021.2.3,MacIntel,58.82352941,,,,,,,,,,,,,,,,,,,,,,,,,,,,,,,,,,,,,,,,,,,,,,,,,,,,,2,0,2,0,1,instr_done_button,,,,,,,,,,,,,,,
space,0.85,0.032222222,-0.225555556,0,0,0,,,,,,1,test,"In the next phase you will be presented with the words from the the first phase. Your job is to decide whether you remember seeing the word or not. If you remember seeing the word press ""old"" or type ""m"". If you do not remember seeing the word press ""new"" or type ""z"". Please press the space bar or click on continue to begin. ",,,199108,20,2022-01-28_17h39.29.928,lexical_decision_task_DD_L3,2021.2.3,MacIntel,58.82352941,,,,,,,,,,,,,,,,,,,,,,,,,,,,,,,,,,,,,,,,,,,,,,,,,,,,,3,0,3,0,1,,,,,,,,,,,,,,,,
space,0.483,0.032222222,-0.225555556,0,0,0,,,,,,1,test,"In the next phase you will be presented with the words from the the first phase. Your job is to decide whether you remember seeing the word or not. If you remember seeing the word press ""old"" or type ""m"". If you do not remember seeing the word press ""new"" or type ""z"". Please press the space bar or click on continue to begin. ",,,199108,20,2022-01-28_17h39.29.928,lexical_decision_task_DD_L3,2021.2.3,MacIntel,58.82352941,,,,,,,,,,,,,,,,,,,,,,,,,,,,,,,,,,,,,,,,,,,,,,,,,,,,,4,0,4,0,1,,,,,,,,,,,,,,,,
,,,,,,,,,,,,,,,,,199108,20,2022-01-28_17h39.29.928,lexical_decision_task_DD_L3,2021.2.3,MacIntel,58.82352941,,,,,,,,,,,3.787,1,,,,,,,,,,,,,,,,,,,,,,,,0.032222222,-0.225555556,0,0,0,,,,,,,BLOKE,LB,z,m,./images/BLOKELB.png,,,,,,,,z,1,3.787,,,,,,,,0,0,0,96,1
,,,,,,,,,,,,,,,,,199108,20,2022-01-28_17h39.29.928,lexical_decision_task_DD_L3,2021.2.3,MacIntel,58.82352941,,,,,,,,,,,0.82,1,,,,,,,,,,,,,,,,,,,,,,,,0.032222222,-0.225555556,0,0,0,,,,,,,INFANT,C,m,m,./images/INFANT.png,,,,,,,,m,1,0.82,,,,,,,,0,1,1,76,1
,,,,,,,,,,,,,,,,,199108,20,2022-01-28_17h39.29.928,lexical_decision_task_DD_L3,2021.2.3,MacIntel,58.82352941,,,,,,,,,,,0.979,1,,,,,,,,,,,,,,,,,,,,,,,,0.032222222,-0.225555556,0,0,0,,,,,,,WHISKY,HB,z,m,./images/WHISKYHB.png,,,,,,,,z,1,0.979,,,,,,,,0,2,2,167,1
,,,,,,,,,,,,,,,,,199108,20,2022-01-28_17h39.29.928,lexical_decision_task_DD_L3,2021.2.3,MacIntel,58.82352941,,,,,,,,,,,0.918,0,,,,,,,,,,,,,,,,,,,,,,,,0.032222222,-0.225555556,0,0,0,,,,,,,BAMBOO,HB,z,m,./images/BAMBOOHB.png,,,,,,,,m,0,0.918,,,,,,,,0,3,3,89,1
,,,,,,,,,,,,,,,,,199108,20,2022-01-28_17h39.29.928,lexical_decision_task_DD_L3,2021.2.3,MacIntel,58.82352941,,,,,,,,,,,0.228,1,,,,,,,,,,,,,,,,,,,,,,,,0.032222222,-0.225555556,0,0,0,,,,,,,STOOL,C,z,m,./images/STOOL.png,,,,,,,,z,1,0.228,,,,,,,,0,4,4,127,1
,,,,,,,,,,,,,,,,,199108,20,2022-01-28_17h39.29.928,lexical_decision_task_DD_L3,2021.2.3,MacIntel,58.82352941,,,,,,,,,,,0.062,0,,,,,,,,,,,,,,,,,,,,,,,,0.032222222,-0.225555556,0,0,0,,,,,,,STAIN,LB,z,m,./images/STAINLB.png,,,,,,,,m,0,0.062,,,,,,,,0,5,5,90,1
,,,,,,,,,,,,,,,,,199108,20,2022-01-28_17h39.29.928,lexical_decision_task_DD_L3,2021.2.3,MacIntel,58.82352941,,,,,,,,,,,0.109,0,,,,,,,,,,,,,,,,,,,,,,,,0.032222222,-0.225555556,0,0,0,,,,,,,CRATER,LB,z,m,./images/CRATERLB.png,,,,,,,,m,0,0.109,,,,,,,,0,6,6,87,1
,,,,,,,,,,,,,,,,,199108,20,2022-01-28_17h39.29.928,lexical_decision_task_DD_L3,2021.2.3,MacIntel,58.82352941,,,,,,,,,,,0.149,0,,,,,,,,,,,,,,,,,,,,,,,,0.032222222,-0.225555556,0,0,0,,,,,,,FLESH,LB,z,m,./images/FLESHLB.png,,,,,,,,m,0,0.149,,,,,,,,0,7,7,108,1
,,,,,,,,,,,,,,,,,199108,20,2022-01-28_17h39.29.928,lexical_decision_task_DD_L3,2021.2.3,MacIntel,58.82352941,,,,,,,,,,,0.013,0,,,,,,,,,,,,,,,,,,,,,,,,0.032222222,-0.225555556,0,0,0,,,,,,,TRIPOD,LB,m,m,./images/TRIPODLB.png,,,,,,,,z,0,0.013,,,,,,,,0,8,8,54,1
,,,,,,,,,,,,,,,,,199108,20,2022-01-28_17h39.29.928,lexical_decision_task_DD_L3,2021.2.3,MacIntel,58.82352941,,,,,,,,,,,0.096,0,,,,,,,,,,,,,,,,,,,,,,,,0.032222222,-0.225555556,0,0,0,,,,,,,LITTER,LB,m,m,./images/LITTERLB.png,,,,,,,,z,0,0.096,,,,,,,,0,9,9,78,1
,,,,,,,,,,,,,,,,,199108,20,2022-01-28_17h39.29.928,lexical_decision_task_DD_L3,2021.2.3,MacIntel,58.82352941,,,,,,,,,,,0.179,0,,,,,,,,,,,,,,,,,,,,,,,,0.032222222,-0.225555556,0,0,0,,,,,,,SWEAT,LB,m,m,./images/SWEATLB.png,,,,,,,,z,0,0.179,,,,,,,,0,10,10,66,1
,,,,,,,,,,,,,,,,,199108,20,2022-01-28_17h39.29.928,lexical_decision_task_DD_L3,2021.2.3,MacIntel,58.82352941,,,,,,,,,,,0.143,0,,,,,,,,,,,,,,,,,,,,,,,,0.032222222,-0.225555556,0,0,0,,,,,,,DRUMS,C,m,m,./images/DRUMS.png,,,,,,,,z,0,0.143,,,,,,,,0,11,11,49,1
,,,,,,,,,,,,,,,,,199108,20,2022-01-28_17h39.29.928,lexical_decision_task_DD_L3,2021.2.3,MacIntel,58.82352941,,,,,,,,,,,0.247,0,,,,,,,,,,,,,,,,,,,,,,,,0.032222222,-0.225555556,0,0,0,,,,,,,MIDGET,C,z,m,./images/MIDGET.png,,,,,,,,m,0,0.247,,,,,,,,0,12,12,160,1
,,,,,,,,,,,,,,,,,199108,20,2022-01-28_17h39.29.928,lexical_decision_task_DD_L3,2021.2.3,MacIntel,58.82352941,,,,,,,,,,,0.128,1,,,,,,,,,,,,,,,,,,,,,,,,0.032222222,-0.225555556,0,0,0,,,,,,,CARPET,HB,m,m,./images/CARPETHB.png,,,,,,,,m,1,0.128,,,,,,,,0,13,13,53,1
,,,,,,,,,,,,,,,,,199108,20,2022-01-28_17h39.29.928,lexical_decision_task_DD_L3,2021.2.3,MacIntel,58.82352941,,,,,,,,,,,0.151,0,,,,,,,,,,,,,,,,,,,,,,,,0.032222222,-0.225555556,0,0,0,,,,,,,ALLEY,C,z,m,./images/ALLEY.png,,,,,,,,m,0,0.151,,,,,,,,0,14,14,139,1
,,,,,,,,,,,,,,,,,199108,20,2022-01-28_17h39.29.928,lexical_decision_task_DD_L3,2021.2.3,MacIntel,58.82352941,,,,,,,,,,,0.029,1,,,,,,,,,,,,,,,,,,,,,,,,0.032222222,-0.225555556,0,0,0,,,,,,,CANDLE,C,m,m,./images/CANDLE.png,,,,,,,,m,1,0.029,,,,,,,,0,15,15,61,1
,,,,,,,,,,,,,,,,,199108,20,2022-01-28_17h39.29.928,lexical_decision_task_DD_L3,2021.2.3,MacIntel,58.82352941,,,,,,,,,,,0.062,1,,,,,,,,,,,,,,,,,,,,,,,,0.032222222,-0.225555556,0,0,0,,,,,,,THROAT,LB,m,m,./images/THROATLB.png,,,,,,,,m,1,0.062,,,,,,,,0,16,16,36,1
,,,,,,,,,,,,,,,,,199108,20,2022-01-28_17h39.29.928,lexical_decision_task_DD_L3,2021.2.3,MacIntel,58.82352941,,,,,,,,,,,0.042,0,,,,,,,,,,,,,,,,,,,,,,,,0.032222222,-0.225555556,0,0,0,,,,,,,BONNET,HB,m,m,./images/BONNETHB.png,,,,,,,,z,0,0.042,,,,,,,,0,17,17,11,1
,,,,,,,,,,,,,,,,,199108,20,2022-01-28_17h39.29.928,lexical_decision_task_DD_L3,2021.2.3,MacIntel,58.82352941,,,,,,,,,,,0.167,0,,,,,,,,,,,,,,,,,,,,,,,,0.032222222,-0.225555556,0,0,0,,,,,,,COLLAR,LB,z,m,./images/COLLARLB.png,,,,,,,,m,0,0.167,,,,,,,,0,18,18,99,1
,,,,,,,,,,,,,,,,,199108,20,2022-01-28_17h39.29.928,lexical_decision_task_DD_L3,2021.2.3,MacIntel,58.82352941,,,,,,,,,,,0.027,0,,,,,,,,,,,,,,,,,,,,,,,,0.032222222,-0.225555556,0,0,0,,,,,,,QUILL,C,m,m,./images/QUILL.png,,,,,,,,z,0,0.027,,,,,,,,0,19,19,31,1
,,,,,,,,,,,,,,,,,199108,20,2022-01-28_17h39.29.928,lexical_decision_task_DD_L3,2021.2.3,MacIntel,58.82352941,,,,,,,,,,,0.231,1,,,,,,,,,,,,,,,,,,,,,,,,0.032222222,-0.225555556,0,0,0,,,,,,,DONKEY,C,z,m,./images/DONKEY.png,,,,,,,,z,1,0.231,,,,,,,,0,20,20,103,1
,,,,,,,,,,,,,,,,,199108,20,2022-01-28_17h39.29.928,lexical_decision_task_DD_L3,2021.2.3,MacIntel,58.82352941,,,,,,,,,,,0.049,1,,,,,,,,,,,,,,,,,,,,,,,,0.032222222,-0.225555556,0,0,0,,,,,,,SHIELD,LB,z,m,./images/SHIELDLB.png,,,,,,,,z,1,0.049,,,,,,,,0,21,21,132,1
,,,,,,,,,,,,,,,,,199108,20,2022-01-28_17h39.29.928,lexical_decision_task_DD_L3,2021.2.3,MacIntel,58.82352941,,,,,,,,,,,0.147,0,,,,,,,,,,,,,,,,,,,,,,,,0.032222222,-0.225555556,0,0,0,,,,,,,PEARL,C,m,m,./images/PEARL.png,,,,,,,,z,0,0.147,,,,,,,,0,22,22,46,1
,,,,,,,,,,,,,,,,,199108,20,2022-01-28_17h39.29.928,lexical_decision_task_DD_L3,2021.2.3,MacIntel,58.82352941,,,,,,,,,,,0.062,0,,,,,,,,,,,,,,,,,,,,,,,,0.032222222,-0.225555556,0,0,0,,,,,,,FALCON,C,m,m,./images/FALCON.png,,,,,,,,z,0,0.062,,,,,,,,0,23,23,28,1
,,,,,,,,,,,,,,,,,199108,20,2022-01-28_17h39.29.928,lexical_decision_task_DD_L3,2021.2.3,MacIntel,58.82352941,,,,,,,,,,,0.017,1,,,,,,,,,,,,,,,,,,,,,,,,0.032222222,-0.225555556,0,0,0,,,,,,,STATUE,LB,z,m,./images/STATUELB.png,,,,,,,,z,1,0.017,,,,,,,,0,24,24,150,1
,,,,,,,,,,,,,,,,,199108,20,2022-01-28_17h39.29.928,lexical_decision_task_DD_L3,2021.2.3,MacIntel,58.82352941,,,,,,,,,,,0.077,0,,,,,,,,,,,,,,,,,,,,,,,,0.032222222,-0.225555556,0,0,0,,,,,,,TULIP,HB,m,m,./images/TULIPHB.png,,,,,,,,z,0,0.077,,,,,,,,0,25,25,8,1
,,,,,,,,,,,,,,,,,199108,20,2022-01-28_17h39.29.928,lexical_decision_task_DD_L3,2021.2.3,MacIntel,58.82352941,,,,,,,,,,,0.074,0,,,,,,,,,,,,,,,,,,,,,,,,0.032222222,-0.225555556,0,0,0,,,,,,,FINGER,LB,m,m,./images/FINGERLB.png,,,,,,,,z,0,0.074,,,,,,,,0,26,26,3,1
,,,,,,,,,,,,,,,,,199108,20,2022-01-28_17h39.29.928,lexical_decision_task_DD_L3,2021.2.3,MacIntel,58.82352941,,,,,,,,,,,0.044,1,,,,,,,,,,,,,,,,,,,,,,,,0.032222222,-0.225555556,0,0,0,,,,,,,MAMMAL,HB,z,m,./images/MAMMALHB.png,,,,,,,,z,1,0.044,,,,,,,,0,27,27,146,1
,,,,,,,,,,,,,,,,,199108,20,2022-01-28_17h39.29.928,lexical_decision_task_DD_L3,2021.2.3,MacIntel,58.82352941,,,,,,,,,,,0.031,1,,,,,,,,,,,,,,,,,,,,,,,,0.032222222,-0.225555556,0,0,0,,,,,,,ENGINE,HB,z,m,./images/ENGINEHB.png,,,,,,,,z,1,0.031,,,,,,,,0,28,28,122,1
,,,,,,,,,,,,,,,,,199108,20,2022-01-28_17h39.29.928,lexical_decision_task_DD_L3,2021.2.3,MacIntel,58.82352941,,,,,,,,,,,0.074,0,,,,,,,,,,,,,,,,,,,,,,,,0.032222222,-0.225555556,0,0,0,,,,,,,SQUARE,LB,m,m,./images/SQUARELB.png,,,,,,,,z,0,0.074,,,,,,,,0,29,29,6,1
,,,,,,,,,,,,,,,,,199108,20,2022-01-28_17h39.29.928,lexical_decision_task_DD_L3,2021.2.3,MacIntel,58.82352941,,,,,,,,,,,0.001,1,,,,,,,,,,,,,,,,,,,,,,,,0.032222222,-0.225555556,0,0,0,,,,,,,BUTTER,LB,z,m,./images/BUTTERLB.png,,,,,,,,z,1,0.001,,,,,,,,0,30,30,111,1
,,,,,,,,,,,,,,,,,199108,20,2022-01-28_17h39.29.928,lexical_decision_task_DD_L3,2021.2.3,MacIntel,58.82352941,,,,,,,,,,,0.298,1,,,,,,,,,,,,,,,,,,,,,,,,0.032222222,-0.225555556,0,0,0,,,,,,,LIZARD,HB,m,m,./images/LIZARDHB.png,,,,,,,,m,1,0.298,,,,,,,,0,31,31,44,1
,,,,,,,,,,,,,,,,,199108,20,2022-01-28_17h39.29.928,lexical_decision_task_DD_L3,2021.2.3,MacIntel,58.82352941,,,,,,,,,,,0.135,1,,,,,,,,,,,,,,,,,,,,,,,,0.032222222,-0.225555556,0,0,0,,,,,,,BAKER,LB,z,m,./images/BAKERLB.png,,,,,,,,z,1,0.135,,,,,,,,0,32,32,147,1
,,,,,,,,,,,,,,,,,199108,20,2022-01-28_17h39.29.928,lexical_decision_task_DD_L3,2021.2.3,MacIntel,58.82352941,,,,,,,,,,,0.266,0,,,,,,,,,,,,,,,,,,,,,,,,0.032222222,-0.225555556,0,0,0,,,,,,,GRAPE,C,z,m,./images/GRAPE.png,,,,,,,,m,0,0.266,,,,,,,,0,33,33,100,1
,,,,,,,,,,,,,,,,,199108,20,2022-01-28_17h39.29.928,lexical_decision_task_DD_L3,2021.2.3,MacIntel,58.82352941,,,,,,,,,,,0.113,1,,,,,,,,,,,,,,,,,,,,,,,,0.032222222,-0.225555556,0,0,0,,,,,,,LLAMA,HB,z,m,./images/LLAMAHB.png,,,,,,,,z,1,0.113,,,,,,,,0,34,34,119,1
,,,,,,,,,,,,,,,,,199108,20,2022-01-28_17h39.29.928,lexical_decision_task_DD_L3,2021.2.3,MacIntel,58.82352941,,,,,,,,,,,0.38,1,,,,,,,,,,,,,,,,,,,,,,,,0.032222222,-0.225555556,0,0,0,,,,,,,STRING,HB,m,m,./images/STRINGHB.png,,,,,,,,m,1,0.38,,,,,,,,0,35,35,41,1
,,,,,,,,,,,,,,,,,199108,20,2022-01-28_17h39.29.928,lexical_decision_task_DD_L3,2021.2.3,MacIntel,58.82352941,,,,,,,,,,,0.595,0,,,,,,,,,,,,,,,,,,,,,,,,0.032222222,-0.225555556,0,0,0,,,,,,,MUFFIN,C,m,m,./images/MUFFIN.png,,,,,,,,z,0,0.595,,,,,,,,0,36,36,55,1
,,,,,,,,,,,,,,,,,199108,20,2022-01-28_17h39.29.928,lexical_decision_task_DD_L3,2021.2.3,MacIntel,58.82352941,,,,,,,,,,,0.28,0,,,,,,,,,,,,,,,,,,,,,,,,0.032222222,-0.225555556,0,0,0,,,,,,,GREASE,LB,m,m,./images/GREASELB.png,,,,,,,,z,0,0.28,,,,,,,,0,37,37,15,1
,,,,,,,,,,,,,,,,,199108,20,2022-01-28_17h39.29.928,lexical_decision_task_DD_L3,2021.2.3,MacIntel,58.82352941,,,,,,,,,,,0.249,1,,,,,,,,,,,,,,,,,,,,,,,,0.032222222,-0.225555556,0,0,0,,,,,,,GARDEN,C,z,m,./images/GARDEN.png,,,,,,,,z,1,0.249,,,,,,,,0,38,38,94,1
,,,,,,,,,,,,,,,,,199108,20,2022-01-28_17h39.29.928,lexical_decision_task_DD_L3,2021.2.3,MacIntel,58.82352941,,,,,,,,,,,0.112,1,,,,,,,,,,,,,,,,,,,,,,,,0.032222222,-0.225555556,0,0,0,,,,,,,SAILOR,C,m,m,./images/SAILOR.png,,,,,,,,m,1,0.112,,,,,,,,0,39,39,67,1
,,,,,,,,,,,,,,,,,199108,20,2022-01-28_17h39.29.928,lexical_decision_task_DD_L3,2021.2.3,MacIntel,58.82352941,,,,,,,,,,,0.13,1,,,,,,,,,,,,,,,,,,,,,,,,0.032222222,-0.225555556,0,0,0,,,,,,,BEARD,HB,m,m,./images/BEARDHB.png,,,,,,,,m,1,0.13,,,,,,,,0,40,40,2,1
,,,,,,,,,,,,,,,,,199108,20,2022-01-28_17h39.29.928,lexical_decision_task_DD_L3,2021.2.3,MacIntel,58.82352941,,,,,,,,,,,0.018,1,,,,,,,,,,,,,,,,,,,,,,,,0.032222222,-0.225555556,0,0,0,space,,,,,,PIMPLE,HB,m,m,./images/PIMPLEHB.png,2.403,,,,,,,m,1,0.018,,,,,,,,0,41,41,71,1
,,,,,,,,,,,,,,,,,199108,20,2022-01-28_17h39.29.928,lexical_decision_task_DD_L3,2021.2.3,MacIntel,58.82352941,,,,,,,,,,,0.075,1,,,,,,,,,,,,,,,,,,,,,,,,0.032222222,-0.225555556,0,0,0,,,,,,,CLOWN,C,z,m,./images/CLOWN.png,,,,,,,,z,1,0.075,,,,,,,,0,42,42,106,1
,,,,,,,,,,,,,,,,,199108,20,2022-01-28_17h39.29.928,lexical_decision_task_DD_L3,2021.2.3,MacIntel,58.82352941,,,,,,,,,,,0.081,1,,,,,,,,,,,,,,,,,,,,,,,,0.032222222,-0.225555556,0,0,0,,,,,,,JELLY,C,m,m,./images/JELLY.png,,,,,,,,m,1,0.081,,,,,,,,0,43,43,64,1
,,,,,,,,,,,,,,,,,199108,20,2022-01-28_17h39.29.928,lexical_decision_task_DD_L3,2021.2.3,MacIntel,58.82352941,,,,,,,,,,,0.001,1,,,,,,,,,,,,,,,,,,,,,,,,0.032222222,-0.225555556,0,0,0,,,,,,,TORCH,HB,m,m,./images/TORCHHB.png,,,,,,,,m,1,0.001,,,,,,,,0,44,44,68,1
,,,,,,,,,,,,,,,,,199108,20,2022-01-28_17h39.29.928,lexical_decision_task_DD_L3,2021.2.3,MacIntel,58.82352941,,,,,,,,,,,0.152,1,,,,,,,,,,,,,,,,,,,,,,,,0.032222222,-0.225555556,0,0,0,,,,,,,NOOSE,LB,m,m,./images/NOOSELB.png,,,,,,,,m,1,0.152,,,,,,,,0,45,45,72,1
,,,,,,,,,,,,,,,,,199108,20,2022-01-28_17h39.29.928,lexical_decision_task_DD_L3,2021.2.3,MacIntel,58.82352941,,,,,,,,,,,0.076,1,,,,,,,,,,,,,,,,,,,,,,,,0.032222222,-0.225555556,0,0,0,,,,,,,BISHOP,C,z,m,./images/BISHOP.png,,,,,,,,z,1,0.076,,,,,,,,0,46,46,133,1
,,,,,,,,,,,,,,,,,199108,20,2022-01-28_17h39.29.928,lexical_decision_task_DD_L3,2021.2.3,MacIntel,58.82352941,,,,,,,,,,,0.115,1,,,,,,,,,,,,,,,,,,,,,,,,0.032222222,-0.225555556,0,0,0,,,,,,,MOOSE,LB,m,m,./images/MOOSELB.png,,,,,,,,m,1,0.115,,,,,,,,0,47,47,57,1
,,,,,,,,,,,,,,,,,199108,20,2022-01-28_17h39.29.928,lexical_decision_task_DD_L3,2021.2.3,MacIntel,58.82352941,,,,,,,,,,,0.112,1,,,,,,,,,,,,,,,,,,,,,,,,0.032222222,-0.225555556,0,0,0,,,,,,,SMOKER,HB,m,m,./images/SMOKERHB.png,,,,,,,,m,1,0.112,,,,,,,,0,48,48,26,1
,,,,,,,,,,,,,,,,,199108,20,2022-01-28_17h39.29.928,lexical_decision_task_DD_L3,2021.2.3,MacIntel,58.82352941,,,,,,,,,,,0.029,0,,,,,,,,,,,,,,,,,,,,,,,,0.032222222,-0.225555556,0,0,0,,,,,,,PICKLE,HB,m,m,./images/PICKLEHB.png,,,,,,,,z,0,0.029,,,,,,,,0,49,49,14,1
,,,,,,,,,,,,,,,,,199108,20,2022-01-28_17h39.29.928,lexical_decision_task_DD_L3,2021.2.3,MacIntel,58.82352941,,,,,,,,,,,0.032,0,,,,,,,,,,,,,,,,,,,,,,,,0.032222222,-0.225555556,0,0,0,,,,,,,MEDAL,HB,z,m,./images/MEDALHB.png,,,,,,,,m,0,0.032,,,,,,,,0,50,50,95,1
,,,,,,,,,,,,,,,,,199108,20,2022-01-28_17h39.29.928,lexical_decision_task_DD_L3,2021.2.3,MacIntel,58.82352941,,,,,,,,,,,0.014,1,,,,,,,,,,,,,,,,,,,,,,,,0.032222222,-0.225555556,0,0,0,,,,,,,BURIAL,HB,m,m,./images/BURIALHB.png,,,,,,,,m,1,0.014,,,,,,,,0,51,51,59,1
,,,,,,,,,,,,,,,,,199108,20,2022-01-28_17h39.29.928,lexical_decision_task_DD_L3,2021.2.3,MacIntel,58.82352941,,,,,,,,,,,0.06,0,,,,,,,,,,,,,,,,,,,,,,,,0.032222222,-0.225555556,0,0,0,,,,,,,BASKET,HB,z,m,./images/BASKETHB.png,,,,,,,,m,0,0.06,,,,,,,,0,52,52,128,1
,,,,,,,,,,,,,,,,,199108,20,2022-01-28_17h39.29.928,lexical_decision_task_DD_L3,2021.2.3,MacIntel,58.82352941,,,,,,,,,,,0.062,0,,,,,,,,,,,,,,,,,,,,,,,,0.032222222,-0.225555556,0,0,0,,,,,,,SPORT,LB,m,m,./images/SPORTLB.png,,,,,,,,z,0,0.062,,,,,,,,0,53,53,48,1
,,,,,,,,,,,,,,,,,199108,20,2022-01-28_17h39.29.928,lexical_decision_task_DD_L3,2021.2.3,MacIntel,58.82352941,,,,,,,,,,,0.109,1,,,,,,,,,,,,,,,,,,,,,,,,0.032222222,-0.225555556,0,0,0,,,,,,,STEAK,C,z,m,./images/STEAK.png,,,,,,,,z,1,0.109,,,,,,,,0,54,54,115,1
,,,,,,,,,,,,,,,,,199108,20,2022-01-28_17h39.29.928,lexical_decision_task_DD_L3,2021.2.3,MacIntel,58.82352941,,,,,,,,,,,0.032,1,,,,,,,,,,,,,,,,,,,,,,,,0.032222222,-0.225555556,0,0,0,,,,,,,CLIFF,HB,z,m,./images/CLIFFHB.png,,,,,,,,z,1,0.032,,,,,,,,0,55,55,92,1
,,,,,,,,,,,,,,,,,199108,20,2022-01-28_17h39.29.928,lexical_decision_task_DD_L3,2021.2.3,MacIntel,58.82352941,,,,,,,,,,,0.096,1,,,,,,,,,,,,,,,,,,,,,,,,0.032222222,-0.225555556,0,0,0,,,,,,,WALRUS,HB,m,m,./images/WALRUSHB.png,,,,,,,,m,1,0.096,,,,,,,,0,56,56,23,1
,,,,,,,,,,,,,,,,,199108,20,2022-01-28_17h39.29.928,lexical_decision_task_DD_L3,2021.2.3,MacIntel,58.82352941,,,,,,,,,,,0.167,1,,,,,,,,,,,,,,,,,,,,,,,,0.032222222,-0.225555556,0,0,0,,,,,,,ARTIST,C,z,m,./images/ARTIST.png,,,,,,,,z,1,0.167,,,,,,,,0,57,57,145,1
,,,,,,,,,,,,,,,,,199108,20,2022-01-28_17h39.29.928,lexical_decision_task_DD_L3,2021.2.3,MacIntel,58.82352941,,,,,,,,,,,0.167,0,,,,,,,,,,,,,,,,,,,,,,,,0.032222222,-0.225555556,0,0,0,,,,,,,SPINE,HB,z,m,./images/SPINEHB.png,,,,,,,,m,0,0.167,,,,,,,,0,58,58,149,1
,,,,,,,,,,,,,,,,,199108,20,2022-01-28_17h39.29.928,lexical_decision_task_DD_L3,2021.2.3,MacIntel,58.82352941,,,,,,,,,,,0.01,1,,,,,,,,,,,,,,,,,,,,,,,,0.032222222,-0.225555556,0,0,0,,,,,,,BIRTH,C,m,m,./images/BIRTH.png,,,,,,,,m,1,0.01,,,,,,,,0,59,59,37,1
,,,,,,,,,,,,,,,,,199108,20,2022-01-28_17h39.29.928,lexical_decision_task_DD_L3,2021.2.3,MacIntel,58.82352941,,,,,,,,,,,0.12,0,,,,,,,,,,,,,,,,,,,,,,,,0.032222222,-0.225555556,0,0,0,,,,,,,POKER,C,z,m,./images/POKER.png,,,,,,,,m,0,0.12,,,,,,,,0,60,60,151,1
,,,,,,,,,,,,,,,,,199108,20,2022-01-28_17h39.29.928,lexical_decision_task_DD_L3,2021.2.3,MacIntel,58.82352941,,,,,,,,,,,0.094,1,,,,,,,,,,,,,,,,,,,,,,,,0.032222222,-0.225555556,0,0,0,,,,,,,CLOTH,HB,z,m,./images/CLOTHHB.png,,,,,,,,z,1,0.094,,,,,,,,0,61,61,107,1
,,,,,,,,,,,,,,,,,199108,20,2022-01-28_17h39.29.928,lexical_decision_task_DD_L3,2021.2.3,MacIntel,58.82352941,,,,,,,,,,,0.146,1,,,,,,,,,,,,,,,,,,,,,,,,0.032222222,-0.225555556,0,0,0,,,,,,,MAGGOT,LB,m,m,./images/MAGGOTLB.png,,,,,,,,m,1,0.146,,,,,,,,0,62,62,33,1
,,,,,,,,,,,,,,,,,199108,20,2022-01-28_17h39.29.928,lexical_decision_task_DD_L3,2021.2.3,MacIntel,58.82352941,,,,,,,,,,,0.009,0,,,,,,,,,,,,,,,,,,,,,,,,0.032222222,-0.225555556,0,0,0,,,,,,,CEMENT,HB,m,m,./images/CEMENTHB.png,,,,,,,,z,0,0.009,,,,,,,,0,63,63,74,1
,,,,,,,,,,,,,,,,,199108,20,2022-01-28_17h39.29.928,lexical_decision_task_DD_L3,2021.2.3,MacIntel,58.82352941,,,,,,,,,,,0.008,1,,,,,,,,,,,,,,,,,,,,,,,,0.032222222,-0.225555556,0,0,0,,,,,,,CANYON,C,m,m,./images/CANYON.png,,,,,,,,m,1,0.008,,,,,,,,0,64,64,34,1
,,,,,,,,,,,,,,,,,199108,20,2022-01-28_17h39.29.928,lexical_decision_task_DD_L3,2021.2.3,MacIntel,58.82352941,,,,,,,,,,,0.112,0,,,,,,,,,,,,,,,,,,,,,,,,0.032222222,-0.225555556,0,0,0,,,,,,,VALLEY,HB,z,m,./images/VALLEYHB.png,,,,,,,,m,0,0.112,,,,,,,,0,65,65,152,1
,,,,,,,,,,,,,,,,,199108,20,2022-01-28_17h39.29.928,lexical_decision_task_DD_L3,2021.2.3,MacIntel,58.82352941,,,,,,,,,,,0.152,1,,,,,,,,,,,,,,,,,,,,,,,,0.032222222,-0.225555556,0,0,0,,,,,,,MOSQUE,C,m,m,./images/MOSQUE.png,,,,,,,,m,1,0.152,,,,,,,,0,66,66,43,1
,,,,,,,,,,,,,,,,,199108,20,2022-01-28_17h39.29.928,lexical_decision_task_DD_L3,2021.2.3,MacIntel,58.82352941,,,,,,,,,,,0.076,1,,,,,,,,,,,,,,,,,,,,,,,,0.032222222,-0.225555556,0,0,0,,,,,,,MELON,C,m,m,./images/MELON.png,,,,,,,,m,1,0.076,,,,,,,,0,67,67,22,1
,,,,,,,,,,,,,,,,,199108,20,2022-01-28_17h39.29.928,lexical_decision_task_DD_L3,2021.2.3,MacIntel,58.82352941,,,,,,,,,,,0.002,1,,,,,,,,,,,,,,,,,,,,,,,,0.032222222,-0.225555556,0,0,0,,,,,,,SAUNA,LB,z,m,./images/SAUNALB.png,,,,,,,,z,1,0.002,,,,,,,,0,68,68,117,1
,,,,,,,,,,,,,,,,,199108,20,2022-01-28_17h39.29.928,lexical_decision_task_DD_L3,2021.2.3,MacIntel,58.82352941,,,,,,,,,,,0.166,0,,,,,,,,,,,,,,,,,,,,,,,,0.032222222,-0.225555556,0,0,0,,,,,,,JAGUAR,LB,m,m,./images/JAGUARLB.png,,,,,,,,z,0,0.166,,,,,,,,0,69,69,18,1
,,,,,,,,,,,,,,,,,199108,20,2022-01-28_17h39.29.928,lexical_decision_task_DD_L3,2021.2.3,MacIntel,58.82352941,,,,,,,,,,,0.184,1,,,,,,,,,,,,,,,,,,,,,,,,0.032222222,-0.225555556,0,0,0,,,,,,,KIDNEY,LB,m,m,./images/KIDNEYLB.png,,,,,,,,m,1,0.184,,,,,,,,0,70,70,21,1
,,,,,,,,,,,,,,,,,199108,20,2022-01-28_17h39.29.928,lexical_decision_task_DD_L3,2021.2.3,MacIntel,58.82352941,,,,,,,,,,,0.016,0,,,,,,,,,,,,,,,,,,,,,,,,0.032222222,-0.225555556,0,0,0,,,,,,,JUMPER,HB,z,m,./images/JUMPERHB.png,,,,,,,,m,0,0.016,,,,,,,,0,71,71,158,1
,,,,,,,,,,,,,,,,,199108,20,2022-01-28_17h39.29.928,lexical_decision_task_DD_L3,2021.2.3,MacIntel,58.82352941,,,,,,,,,,,0.053,0,,,,,,,,,,,,,,,,,,,,,,,,0.032222222,-0.225555556,0,0,0,,,,,,,STORM,LB,m,m,./images/STORMLB.png,,,,,,,,z,0,0.053,,,,,,,,0,72,72,30,1
,,,,,,,,,,,,,,,,,199108,20,2022-01-28_17h39.29.928,lexical_decision_task_DD_L3,2021.2.3,MacIntel,58.82352941,,,,,,,,,,,0.081,0,,,,,,,,,,,,,,,,,,,,,,,,0.032222222,-0.225555556,0,0,0,,,,,,,STOVE,HB,z,m,./images/STOVEHB.png,,,,,,,,m,0,0.081,,,,,,,,0,73,73,86,1
,,,,,,,,,,,,,,,,,199108,20,2022-01-28_17h39.29.928,lexical_decision_task_DD_L3,2021.2.3,MacIntel,58.82352941,,,,,,,,,,,0.048,0,,,,,,,,,,,,,,,,,,,,,,,,0.032222222,-0.225555556,0,0,0,,,,,,,BERRY,HB,m,m,./images/BERRYHB.png,,,,,,,,z,0,0.048,,,,,,,,0,74,74,47,1
,,,,,,,,,,,,,,,,,199108,20,2022-01-28_17h39.29.928,lexical_decision_task_DD_L3,2021.2.3,MacIntel,58.82352941,,,,,,,,,,,0.094,1,,,,,,,,,,,,,,,,,,,,,,,,0.032222222,-0.225555556,0,0,0,,,,,,,LADDER,HB,m,m,./images/LADDERHB.png,,,,,,,,m,1,0.094,,,,,,,,0,75,75,38,1
,,,,,,,,,,,,,,,,,199108,20,2022-01-28_17h39.29.928,lexical_decision_task_DD_L3,2021.2.3,MacIntel,58.82352941,,,,,,,,,,,0.041,1,,,,,,,,,,,,,,,,,,,,,,,,0.032222222,-0.225555556,0,0,0,,,,,,,CANDY,LB,z,m,./images/CANDYLB.png,,,,,,,,z,1,0.041,,,,,,,,0,76,76,123,1
,,,,,,,,,,,,,,,,,199108,20,2022-01-28_17h39.29.928,lexical_decision_task_DD_L3,2021.2.3,MacIntel,58.82352941,,,,,,,,,,,0.01,1,,,,,,,,,,,,,,,,,,,,,,,,0.032222222,-0.225555556,0,0,0,,,,,,,CURRY,LB,z,m,./images/CURRYLB.png,,,,,,,,z,1,0.01,,,,,,,,0,77,77,144,1
,,,,,,,,,,,,,,,,,199108,20,2022-01-28_17h39.29.928,lexical_decision_task_DD_L3,2021.2.3,MacIntel,58.82352941,,,,,,,,,,,0.032,0,,,,,,,,,,,,,,,,,,,,,,,,0.032222222,-0.225555556,0,0,0,,,,,,,URINE,C,m,m,./images/URINE.png,,,,,,,,z,0,0.032,,,,,,,,0,78,78,70,1
,,,,,,,,,,,,,,,,,199108,20,2022-01-28_17h39.29.928,lexical_decision_task_DD_L3,2021.2.3,MacIntel,58.82352941,,,,,,,,,,,0.015,0,,,,,,,,,,,,,,,,,,,,,,,,0.032222222,-0.225555556,0,0,0,,,,,,,WEASEL,HB,m,m,./images/WEASELHB.png,,,,,,,,z,0,0.015,,,,,,,,0,79,79,80,1
,,,,,,,,,,,,,,,,,199108,20,2022-01-28_17h39.29.928,lexical_decision_task_DD_L3,2021.2.3,MacIntel,58.82352941,,,,,,,,,,,0.009,1,,,,,,,,,,,,,,,,,,,,,,,,0.032222222,-0.225555556,0,0,0,,,,,,,SNAKE,C,z,m,./images/SNAKE.png,,,,,,,,z,1,0.009,,,,,,,,0,80,80,124,1
,,,,,,,,,,,,,,,,,199108,20,2022-01-28_17h39.29.928,lexical_decision_task_DD_L3,2021.2.3,MacIntel,58.82352941,,,,,,,,,,,0.08,0,,,,,,,,,,,,,,,,,,,,,,,,0.032222222,-0.225555556,0,0,0,,,,,,,DESERT,C,z,m,./images/DESERT.png,,,,,,,,m,0,0.08,,,,,,,,0,81,81,136,1
,,,,,,,,,,,,,,,,,199108,20,2022-01-28_17h39.29.928,lexical_decision_task_DD_L3,2021.2.3,MacIntel,58.82352941,,,,,,,,,,,0.128,1,,,,,,,,,,,,,,,,,,,,,,,,0.032222222,-0.225555556,0,0,0,,,,,,,MOTOR,C,m,m,./images/MOTOR.png,,,,,,,,m,1,0.128,,,,,,,,0,82,82,13,1
,,,,,,,,,,,,,,,,,199108,20,2022-01-28_17h39.29.928,lexical_decision_task_DD_L3,2021.2.3,MacIntel,58.82352941,,,,,,,,,,,0.166,1,,,,,,,,,,,,,,,,,,,,,,,,0.032222222,-0.225555556,0,0,0,space,,,,,,GRAIN,LB,m,m,./images/GRAINLB.png,3.285,,,,,,,m,1,0.166,,,,,,,,0,83,83,75,1
,,,,,,,,,,,,,,,,,199108,20,2022-01-28_17h39.29.928,lexical_decision_task_DD_L3,2021.2.3,MacIntel,58.82352941,,,,,,,,,,,0.063,0,,,,,,,,,,,,,,,,,,,,,,,,0.032222222,-0.225555556,0,0,0,,,,,,,SLOPE,LB,z,m,./images/SLOPELB.png,,,,,,,,m,0,0.063,,,,,,,,0,84,84,114,1
,,,,,,,,,,,,,,,,,199108,20,2022-01-28_17h39.29.928,lexical_decision_task_DD_L3,2021.2.3,MacIntel,58.82352941,,,,,,,,,,,0.001,0,,,,,,,,,,,,,,,,,,,,,,,,0.032222222,-0.225555556,0,0,0,,,,,,,ARROW,LB,z,m,./images/ARROWLB.png,,,,,,,,m,0,0.001,,,,,,,,0,85,85,153,1
,,,,,,,,,,,,,,,,,199108,20,2022-01-28_17h39.29.928,lexical_decision_task_DD_L3,2021.2.3,MacIntel,58.82352941,,,,,,,,,,,0.12,0,,,,,,,,,,,,,,,,,,,,,,,,0.032222222,-0.225555556,0,0,0,,,,,,,CHERRY,LB,z,m,./images/CHERRYLB.png,,,,,,,,m,0,0.12,,,,,,,,0,86,86,138,1
,,,,,,,,,,,,,,,,,199108,20,2022-01-28_17h39.29.928,lexical_decision_task_DD_L3,2021.2.3,MacIntel,58.82352941,,,,,,,,,,,0.001,1,,,,,,,,,,,,,,,,,,,,,,,,0.032222222,-0.225555556,0,0,0,,,,,,,RAZOR,C,z,m,./images/RAZOR.png,,,,,,,,z,1,0.001,,,,,,,,0,87,87,118,1
,,,,,,,,,,,,,,,,,199108,20,2022-01-28_17h39.29.928,lexical_decision_task_DD_L3,2021.2.3,MacIntel,58.82352941,,,,,,,,,,,0.01,0,,,,,,,,,,,,,,,,,,,,,,,,0.032222222,-0.225555556,0,0,0,,,,,,,JUNGLE,HB,m,m,./images/JUNGLEHB.png,,,,,,,,z,0,0.01,,,,,,,,0,88,88,83,1
,,,,,,,,,,,,,,,,,199108,20,2022-01-28_17h39.29.928,lexical_decision_task_DD_L3,2021.2.3,MacIntel,58.82352941,,,,,,,,,,,0.078,1,,,,,,,,,,,,,,,,,,,,,,,,0.032222222,-0.225555556,0,0,0,,,,,,,DIVER,LB,z,m,./images/DIVERLB.png,,,,,,,,z,1,0.078,,,,,,,,0,89,89,93,1
,,,,,,,,,,,,,,,,,199108,20,2022-01-28_17h39.29.928,lexical_decision_task_DD_L3,2021.2.3,MacIntel,58.82352941,,,,,,,,,,,0.001,1,,,,,,,,,,,,,,,,,,,,,,,,0.032222222,-0.225555556,0,0,0,,,,,,,DRILL,LB,z,m,./images/DRILLLB.png,,,,,,,,z,1,0.001,,,,,,,,0,90,90,165,1
,,,,,,,,,,,,,,,,,199108,20,2022-01-28_17h39.29.928,lexical_decision_task_DD_L3,2021.2.3,MacIntel,58.82352941,,,,,,,,,,,0.084,1,,,,,,,,,,,,,,,,,,,,,,,,0.032222222,-0.225555556,0,0,0,,,,,,,STREAM,HB,z,m,./images/STREAMHB.png,,,,,,,,z,1,0.084,,,,,,,,0,91,91,125,1
,,,,,,,,,,,,,,,,,199108,20,2022-01-28_17h39.29.928,lexical_decision_task_DD_L3,2021.2.3,MacIntel,58.82352941,,,,,,,,,,,0.03,1,,,,,,,,,,,,,,,,,,,,,,,,0.032222222,-0.225555556,0,0,0,,,,,,,SCREW,LB,m,m,./images/SCREWLB.png,,,,,,,,m,1,0.03,,,,,,,,0,92,92,24,1
,,,,,,,,,,,,,,,,,199108,20,2022-01-28_17h39.29.928,lexical_decision_task_DD_L3,2021.2.3,MacIntel,58.82352941,,,,,,,,,,,0.144,0,,,,,,,,,,,,,,,,,,,,,,,,0.032222222,-0.225555556,0,0,0,,,,,,,CASINO,C,z,m,./images/CASINO.png,,,,,,,,m,0,0.144,,,,,,,,0,93,93,112,1
,,,,,,,,,,,,,,,,,199108,20,2022-01-28_17h39.29.928,lexical_decision_task_DD_L3,2021.2.3,MacIntel,58.82352941,,,,,,,,,,,0.117,0,,,,,,,,,,,,,,,,,,,,,,,,0.032222222,-0.225555556,0,0,0,,,,,,,HEATER,HB,z,m,./images/HEATERHB.png,,,,,,,,m,0,0.117,,,,,,,,0,94,94,140,1
,,,,,,,,,,,,,,,,,199108,20,2022-01-28_17h39.29.928,lexical_decision_task_DD_L3,2021.2.3,MacIntel,58.82352941,,,,,,,,,,,0.001,1,,,,,,,,,,,,,,,,,,,,,,,,0.032222222,-0.225555556,0,0,0,,,,,,,SAUCE,LB,z,m,./images/SAUCELB.png,,,,,,,,z,1,0.001,,,,,,,,0,95,95,135,1
,,,,,,,,,,,,,,,,,199108,20,2022-01-28_17h39.29.928,lexical_decision_task_DD_L3,2021.2.3,MacIntel,58.82352941,,,,,,,,,,,0.012,0,,,,,,,,,,,,,,,,,,,,,,,,0.032222222,-0.225555556,0,0,0,,,,,,,PASTA,HB,m,m,./images/PASTAHB.png,,,,,,,,z,0,0.012,,,,,,,,0,96,96,5,1
,,,,,,,,,,,,,,,,,199108,20,2022-01-28_17h39.29.928,lexical_decision_task_DD_L3,2021.2.3,MacIntel,58.82352941,,,,,,,,,,,0.01,0,,,,,,,,,,,,,,,,,,,,,,,,0.032222222,-0.225555556,0,0,0,,,,,,,ONION,LB,m,m,./images/ONIONLB.png,,,,,,,,z,0,0.01,,,,,,,,0,97,97,51,1
,,,,,,,,,,,,,,,,,199108,20,2022-01-28_17h39.29.928,lexical_decision_task_DD_L3,2021.2.3,MacIntel,58.82352941,,,,,,,,,,,0.063,1,,,,,,,,,,,,,,,,,,,,,,,,0.032222222,-0.225555556,0,0,0,,,,,,,FARMER,HB,m,m,./images/FARMERHB.png,,,,,,,,m,1,0.063,,,,,,,,0,98,98,65,1
,,,,,,,,,,,,,,,,,199108,20,2022-01-28_17h39.29.928,lexical_decision_task_DD_L3,2021.2.3,MacIntel,58.82352941,,,,,,,,,,,0.001,1,,,,,,,,,,,,,,,,,,,,,,,,0.032222222,-0.225555556,0,0,0,,,,,,,CLOUD,HB,z,m,./images/CLOUDHB.png,,,,,,,,z,1,0.001,,,,,,,,0,99,99,110,1
,,,,,,,,,,,,,,,,,199108,20,2022-01-28_17h39.29.928,lexical_decision_task_DD_L3,2021.2.3,MacIntel,58.82352941,,,,,,,,,,,0.2,0,,,,,,,,,,,,,,,,,,,,,,,,0.032222222,-0.225555556,0,0,0,,,,,,,TOWEL,C,z,m,./images/TOWEL.png,,,,,,,,m,0,0.2,,,,,,,,0,100,100,85,1
,,,,,,,,,,,,,,,,,199108,20,2022-01-28_17h39.29.928,lexical_decision_task_DD_L3,2021.2.3,MacIntel,58.82352941,,,,,,,,,,,0.102,0,,,,,,,,,,,,,,,,,,,,,,,,0.032222222,-0.225555556,0,0,0,,,,,,,BANNER,C,m,m,./images/BANNER.png,,,,,,,,z,0,0.102,,,,,,,,0,101,101,52,1
,,,,,,,,,,,,,,,,,199108,20,2022-01-28_17h39.29.928,lexical_decision_task_DD_L3,2021.2.3,MacIntel,58.82352941,,,,,,,,,,,0.015,1,,,,,,,,,,,,,,,,,,,,,,,,0.032222222,-0.225555556,0,0,0,,,,,,,MUSCLE,C,m,m,./images/MUSCLE.png,,,,,,,,m,1,0.015,,,,,,,,0,102,102,4,1
,,,,,,,,,,,,,,,,,199108,20,2022-01-28_17h39.29.928,lexical_decision_task_DD_L3,2021.2.3,MacIntel,58.82352941,,,,,,,,,,,0.118,0,,,,,,,,,,,,,,,,,,,,,,,,0.032222222,-0.225555556,0,0,0,,,,,,,KITTEN,LB,m,m,./images/KITTENLB.png,,,,,,,,z,0,0.118,,,,,,,,0,103,103,45,1
,,,,,,,,,,,,,,,,,199108,20,2022-01-28_17h39.29.928,lexical_decision_task_DD_L3,2021.2.3,MacIntel,58.82352941,,,,,,,,,,,0.05,1,,,,,,,,,,,,,,,,,,,,,,,,0.032222222,-0.225555556,0,0,0,,,,,,,SNACK,C,m,m,./images/SNACK.png,,,,,,,,m,1,0.05,,,,,,,,0,104,104,73,1
,,,,,,,,,,,,,,,,,199108,20,2022-01-28_17h39.29.928,lexical_decision_task_DD_L3,2021.2.3,MacIntel,58.82352941,,,,,,,,,,,0.01,1,,,,,,,,,,,,,,,,,,,,,,,,0.032222222,-0.225555556,0,0,0,,,,,,,POSTER,HB,z,m,./images/POSTERHB.png,,,,,,,,z,1,0.01,,,,,,,,0,105,105,137,1
,,,,,,,,,,,,,,,,,199108,20,2022-01-28_17h39.29.928,lexical_decision_task_DD_L3,2021.2.3,MacIntel,58.82352941,,,,,,,,,,,0.031,0,,,,,,,,,,,,,,,,,,,,,,,,0.032222222,-0.225555556,0,0,0,,,,,,,PEACH,HB,m,m,./images/PEACHHB.png,,,,,,,,z,0,0.031,,,,,,,,0,106,106,35,1
,,,,,,,,,,,,,,,,,199108,20,2022-01-28_17h39.29.928,lexical_decision_task_DD_L3,2021.2.3,MacIntel,58.82352941,,,,,,,,,,,0.013,0,,,,,,,,,,,,,,,,,,,,,,,,0.032222222,-0.225555556,0,0,0,,,,,,,SUNSET,C,m,m,./images/SUNSET.png,,,,,,,,z,0,0.013,,,,,,,,0,107,107,82,1
,,,,,,,,,,,,,,,,,199108,20,2022-01-28_17h39.29.928,lexical_decision_task_DD_L3,2021.2.3,MacIntel,58.82352941,,,,,,,,,,,0.043,1,,,,,,,,,,,,,,,,,,,,,,,,0.032222222,-0.225555556,0,0,0,,,,,,,WHEEL,HB,z,m,./images/WHEELHB.png,,,,,,,,z,1,0.043,,,,,,,,0,108,108,161,1
,,,,,,,,,,,,,,,,,199108,20,2022-01-28_17h39.29.928,lexical_decision_task_DD_L3,2021.2.3,MacIntel,58.82352941,,,,,,,,,,,0.002,0,,,,,,,,,,,,,,,,,,,,,,,,0.032222222,-0.225555556,0,0,0,,,,,,,MONKEY,LB,z,m,./images/MONKEYLB.png,,,,,,,,m,0,0.002,,,,,,,,0,109,109,129,1
,,,,,,,,,,,,,,,,,199108,20,2022-01-28_17h39.29.928,lexical_decision_task_DD_L3,2021.2.3,MacIntel,58.82352941,,,,,,,,,,,0.065,1,,,,,,,,,,,,,,,,,,,,,,,,0.032222222,-0.225555556,0,0,0,,,,,,,BELLY,C,m,m,./images/BELLY.png,,,,,,,,m,1,0.065,,,,,,,,0,110,110,10,1
,,,,,,,,,,,,,,,,,199108,20,2022-01-28_17h39.29.928,lexical_decision_task_DD_L3,2021.2.3,MacIntel,58.82352941,,,,,,,,,,,0.029,0,,,,,,,,,,,,,,,,,,,,,,,,0.032222222,-0.225555556,0,0,0,,,,,,,CRUST,C,m,m,./images/CRUST.png,,,,,,,,z,0,0.029,,,,,,,,0,111,111,79,1
,,,,,,,,,,,,,,,,,199108,20,2022-01-28_17h39.29.928,lexical_decision_task_DD_L3,2021.2.3,MacIntel,58.82352941,,,,,,,,,,,0.098,0,,,,,,,,,,,,,,,,,,,,,,,,0.032222222,-0.225555556,0,0,0,,,,,,,BABOON,C,m,m,./images/BABOON.png,,,,,,,,z,0,0.098,,,,,,,,0,112,112,58,1
,,,,,,,,,,,,,,,,,199108,20,2022-01-28_17h39.29.928,lexical_decision_task_DD_L3,2021.2.3,MacIntel,58.82352941,,,,,,,,,,,0.115,0,,,,,,,,,,,,,,,,,,,,,,,,0.032222222,-0.225555556,0,0,0,,,,,,,FOLDER,LB,m,m,./images/FOLDERLB.png,,,,,,,,z,0,0.115,,,,,,,,0,113,113,42,1
,,,,,,,,,,,,,,,,,199108,20,2022-01-28_17h39.29.928,lexical_decision_task_DD_L3,2021.2.3,MacIntel,58.82352941,,,,,,,,,,,0.084,1,,,,,,,,,,,,,,,,,,,,,,,,0.032222222,-0.225555556,0,0,0,,,,,,,POODLE,LB,m,m,./images/POODLELB.png,,,,,,,,m,1,0.084,,,,,,,,0,114,114,81,1
,,,,,,,,,,,,,,,,,199108,20,2022-01-28_17h39.29.928,lexical_decision_task_DD_L3,2021.2.3,MacIntel,58.82352941,,,,,,,,,,,0.117,1,,,,,,,,,,,,,,,,,,,,,,,,0.032222222,-0.225555556,0,0,0,,,,,,,PARADE,HB,z,m,./images/PARADEHB.png,,,,,,,,z,1,0.117,,,,,,,,0,115,115,101,1
,,,,,,,,,,,,,,,,,199108,20,2022-01-28_17h39.29.928,lexical_decision_task_DD_L3,2021.2.3,MacIntel,58.82352941,,,,,,,,,,,0.06,1,,,,,,,,,,,,,,,,,,,,,,,,0.032222222,-0.225555556,0,0,0,,,,,,,BANANA,C,z,m,./images/BANANA.png,,,,,,,,z,1,0.06,,,,,,,,0,116,116,154,1
,,,,,,,,,,,,,,,,,199108,20,2022-01-28_17h39.29.928,lexical_decision_task_DD_L3,2021.2.3,MacIntel,58.82352941,,,,,,,,,,,0.084,0,,,,,,,,,,,,,,,,,,,,,,,,0.032222222,-0.225555556,0,0,0,,,,,,,RULER,C,z,m,./images/RULER.png,,,,,,,,m,0,0.084,,,,,,,,0,117,117,163,1
,,,,,,,,,,,,,,,,,199108,20,2022-01-28_17h39.29.928,lexical_decision_task_DD_L3,2021.2.3,MacIntel,58.82352941,,,,,,,,,,,0.077,0,,,,,,,,,,,,,,,,,,,,,,,,0.032222222,-0.225555556,0,0,0,,,,,,,CHALK,C,z,m,./images/CHALK.png,,,,,,,,m,0,0.077,,,,,,,,0,118,118,109,1
,,,,,,,,,,,,,,,,,199108,20,2022-01-28_17h39.29.928,lexical_decision_task_DD_L3,2021.2.3,MacIntel,58.82352941,,,,,,,,,,,0.082,1,,,,,,,,,,,,,,,,,,,,,,,,0.032222222,-0.225555556,0,0,0,,,,,,,RHINO,LB,m,m,./images/RHINOLB.png,,,,,,,,m,1,0.082,,,,,,,,0,119,119,9,1
,,,,,,,,,,,,,,,,,199108,20,2022-01-28_17h39.29.928,lexical_decision_task_DD_L3,2021.2.3,MacIntel,58.82352941,,,,,,,,,,,0.017,1,,,,,,,,,,,,,,,,,,,,,,,,0.032222222,-0.225555556,0,0,0,,,,,,,BUBBLE,HB,z,m,./images/BUBBLEHB.png,,,,,,,,z,1,0.017,,,,,,,,0,120,120,155,1
,,,,,,,,,,,,,,,,,199108,20,2022-01-28_17h39.29.928,lexical_decision_task_DD_L3,2021.2.3,MacIntel,58.82352941,,,,,,,,,,,0.119,1,,,,,,,,,,,,,,,,,,,,,,,,0.032222222,-0.225555556,0,0,0,,,,,,,MUMMY,C,z,m,./images/MUMMY.png,,,,,,,,z,1,0.119,,,,,,,,0,121,121,130,1
,,,,,,,,,,,,,,,,,199108,20,2022-01-28_17h39.29.928,lexical_decision_task_DD_L3,2021.2.3,MacIntel,58.82352941,,,,,,,,,,,0.029,0,,,,,,,,,,,,,,,,,,,,,,,,0.032222222,-0.225555556,0,0,0,,,,,,,WAGON,C,z,m,./images/WAGON.png,,,,,,,,m,0,0.029,,,,,,,,0,122,122,91,1
,,,,,,,,,,,,,,,,,199108,20,2022-01-28_17h39.29.928,lexical_decision_task_DD_L3,2021.2.3,MacIntel,58.82352941,,,,,,,,,,,0.046,0,,,,,,,,,,,,,,,,,,,,,,,,0.032222222,-0.225555556,0,0,0,,,,,,,PISTOL,HB,z,m,./images/PISTOLHB.png,,,,,,,,m,0,0.046,,,,,,,,0,123,123,113,1
,,,,,,,,,,,,,,,,,199108,20,2022-01-28_17h39.29.928,lexical_decision_task_DD_L3,2021.2.3,MacIntel,58.82352941,,,,,,,,,,,0.028,1,,,,,,,,,,,,,,,,,,,,,,,,0.032222222,-0.225555556,0,0,0,,,,,,,CRADLE,HB,m,m,./images/CRADLEHB.png,,,,,,,,m,1,0.028,,,,,,,,0,124,124,20,1
,,,,,,,,,,,,,,,,,199108,20,2022-01-28_17h39.29.928,lexical_decision_task_DD_L3,2021.2.3,MacIntel,58.82352941,,,,,,,,,,,0.062,0,,,,,,,,,,,,,,,,,,,,,,,,0.032222222,-0.225555556,0,0,0,space,,,,,,TWINS,LB,m,m,./images/TWINSLB.png,4.938,,,,,,,z,0,0.062,,,,,,,,0,125,125,60,1
,,,,,,,,,,,,,,,,,199108,20,2022-01-28_17h39.29.928,lexical_decision_task_DD_L3,2021.2.3,MacIntel,58.82352941,,,,,,,,,,,0.059,0,,,,,,,,,,,,,,,,,,,,,,,,0.032222222,-0.225555556,0,0,0,,,,,,,PARCEL,LB,z,m,./images/PARCELLB.png,,,,,,,,m,0,0.059,,,,,,,,0,126,126,102,1
,,,,,,,,,,,,,,,,,199108,20,2022-01-28_17h39.29.928,lexical_decision_task_DD_L3,2021.2.3,MacIntel,58.82352941,,,,,,,,,,,0.098,0,,,,,,,,,,,,,,,,,,,,,,,,0.032222222,-0.225555556,0,0,0,,,,,,,CRUMB,HB,m,m,./images/CRUMBHB.png,,,,,,,,z,0,0.098,,,,,,,,0,127,127,29,1
,,,,,,,,,,,,,,,,,199108,20,2022-01-28_17h39.29.928,lexical_decision_task_DD_L3,2021.2.3,MacIntel,58.82352941,,,,,,,,,,,0.018,1,,,,,,,,,,,,,,,,,,,,,,,,0.032222222,-0.225555556,0,0,0,,,,,,,BARREL,HB,m,m,./images/BARRELHB.png,,,,,,,,m,1,0.018,,,,,,,,0,128,128,32,1
,,,,,,,,,,,,,,,,,199108,20,2022-01-28_17h39.29.928,lexical_decision_task_DD_L3,2021.2.3,MacIntel,58.82352941,,,,,,,,,,,0.038,0,,,,,,,,,,,,,,,,,,,,,,,,0.032222222,-0.225555556,0,0,0,,,,,,,PACKET,HB,m,m,./images/PACKETHB.png,,,,,,,,z,0,0.038,,,,,,,,0,129,129,56,1
,,,,,,,,,,,,,,,,,199108,20,2022-01-28_17h39.29.928,lexical_decision_task_DD_L3,2021.2.3,MacIntel,58.82352941,,,,,,,,,,,0.032,0,,,,,,,,,,,,,,,,,,,,,,,,0.032222222,-0.225555556,0,0,0,,,,,,,TOMATO,LB,m,m,./images/TOMATOLB.png,,,,,,,,z,0,0.032,,,,,,,,0,130,130,0,1
,,,,,,,,,,,,,,,,,199108,20,2022-01-28_17h39.29.928,lexical_decision_task_DD_L3,2021.2.3,MacIntel,58.82352941,,,,,,,,,,,0.035,0,,,,,,,,,,,,,,,,,,,,,,,,0.032222222,-0.225555556,0,0,0,,,,,,,WALNUT,LB,z,m,./images/WALNUTLB.png,,,,,,,,m,0,0.035,,,,,,,,0,131,131,84,1
,,,,,,,,,,,,,,,,,199108,20,2022-01-28_17h39.29.928,lexical_decision_task_DD_L3,2021.2.3,MacIntel,58.82352941,,,,,,,,,,,0.001,1,,,,,,,,,,,,,,,,,,,,,,,,0.032222222,-0.225555556,0,0,0,,,,,,,PAINT,C,m,m,./images/PAINT.png,,,,,,,,m,1,0.001,,,,,,,,0,132,132,7,1
,,,,,,,,,,,,,,,,,199108,20,2022-01-28_17h39.29.928,lexical_decision_task_DD_L3,2021.2.3,MacIntel,58.82352941,,,,,,,,,,,0.001,0,,,,,,,,,,,,,,,,,,,,,,,,0.032222222,-0.225555556,0,0,0,,,,,,,MIRROR,LB,m,m,./images/MIRRORLB.png,,,,,,,,z,0,0.001,,,,,,,,0,133,133,63,1
,,,,,,,,,,,,,,,,,199108,20,2022-01-28_17h39.29.928,lexical_decision_task_DD_L3,2021.2.3,MacIntel,58.82352941,,,,,,,,,,,0.041,0,,,,,,,,,,,,,,,,,,,,,,,,0.032222222,-0.225555556,0,0,0,,,,,,,PLANET,HB,z,m,./images/PLANETHB.png,,,,,,,,m,0,0.041,,,,,,,,0,134,134,164,1
,,,,,,,,,,,,,,,,,199108,20,2022-01-28_17h39.29.928,lexical_decision_task_DD_L3,2021.2.3,MacIntel,58.82352941,,,,,,,,,,,0.001,0,,,,,,,,,,,,,,,,,,,,,,,,0.032222222,-0.225555556,0,0,0,,,,,,,PURSE,HB,m,m,./images/PURSEHB.png,,,,,,,,z,0,0.001,,,,,,,,0,135,135,62,1
,,,,,,,,,,,,,,,,,199108,20,2022-01-28_17h39.29.928,lexical_decision_task_DD_L3,2021.2.3,MacIntel,58.82352941,,,,,,,,,,,0.133,1,,,,,,,,,,,,,,,,,,,,,,,,0.032222222,-0.225555556,0,0,0,,,,,,,FENCE,HB,z,m,./images/FENCEHB.png,,,,,,,,z,1,0.133,,,,,,,,0,136,136,98,1
,,,,,,,,,,,,,,,,,199108,20,2022-01-28_17h39.29.928,lexical_decision_task_DD_L3,2021.2.3,MacIntel,58.82352941,,,,,,,,,,,0.018,0,,,,,,,,,,,,,,,,,,,,,,,,0.032222222,-0.225555556,0,0,0,,,,,,,SKIING,HB,m,m,./images/SKIINGHB.png,,,,,,,,z,0,0.018,,,,,,,,0,137,137,17,1
,,,,,,,,,,,,,,,,,199108,20,2022-01-28_17h39.29.928,lexical_decision_task_DD_L3,2021.2.3,MacIntel,58.82352941,,,,,,,,,,,0.009,1,,,,,,,,,,,,,,,,,,,,,,,,0.032222222,-0.225555556,0,0,0,,,,,,,GRANNY,HB,z,m,./images/GRANNYHB.png,,,,,,,,z,1,0.009,,,,,,,,0,138,138,104,1
,,,,,,,,,,,,,,,,,199108,20,2022-01-28_17h39.29.928,lexical_decision_task_DD_L3,2021.2.3,MacIntel,58.82352941,,,,,,,,,,,0.068,1,,,,,,,,,,,,,,,,,,,,,,,,0.032222222,-0.225555556,0,0,0,,,,,,,DOUGH,C,m,m,./images/DOUGH.png,,,,,,,,m,1,0.068,,,,,,,,0,139,139,19,1
,,,,,,,,,,,,,,,,,199108,20,2022-01-28_17h39.29.928,lexical_decision_task_DD_L3,2021.2.3,MacIntel,58.82352941,,,,,,,,,,,0.061,0,,,,,,,,,,,,,,,,,,,,,,,,0.032222222,-0.225555556,0,0,0,,,,,,,BRIDE,C,z,m,./images/BRIDE.png,,,,,,,,m,0,0.061,,,,,,,,0,140,140,148,1
,,,,,,,,,,,,,,,,,199108,20,2022-01-28_17h39.29.928,lexical_decision_task_DD_L3,2021.2.3,MacIntel,58.82352941,,,,,,,,,,,0.002,0,,,,,,,,,,,,,,,,,,,,,,,,0.032222222,-0.225555556,0,0,0,,,,,,,COOKER,LB,m,m,./images/COOKERLB.png,,,,,,,,z,0,0.002,,,,,,,,0,141,141,69,1
,,,,,,,,,,,,,,,,,199108,20,2022-01-28_17h39.29.928,lexical_decision_task_DD_L3,2021.2.3,MacIntel,58.82352941,,,,,,,,,,,0.028,1,,,,,,,,,,,,,,,,,,,,,,,,0.032222222,-0.225555556,0,0,0,,,,,,,TIGER,C,z,m,./images/TIGER.png,,,,,,,,z,1,0.028,,,,,,,,0,142,142,121,1
,,,,,,,,,,,,,,,,,199108,20,2022-01-28_17h39.29.928,lexical_decision_task_DD_L3,2021.2.3,MacIntel,58.82352941,,,,,,,,,,,0.128,0,,,,,,,,,,,,,,,,,,,,,,,,0.032222222,-0.225555556,0,0,0,,,,,,,PEBBLE,C,z,m,./images/PEBBLE.png,,,,,,,,m,0,0.128,,,,,,,,0,143,143,166,1
,,,,,,,,,,,,,,,,,199108,20,2022-01-28_17h39.29.928,lexical_decision_task_DD_L3,2021.2.3,MacIntel,58.82352941,,,,,,,,,,,0.033,1,,,,,,,,,,,,,,,,,,,,,,,,0.032222222,-0.225555556,0,0,0,,,,,,,FLASK,LB,z,m,./images/FLASKLB.png,,,,,,,,z,1,0.033,,,,,,,,0,144,144,156,1
,,,,,,,,,,,,,,,,,199108,20,2022-01-28_17h39.29.928,lexical_decision_task_DD_L3,2021.2.3,MacIntel,58.82352941,,,,,,,,,,,0.075,1,,,,,,,,,,,,,,,,,,,,,,,,0.032222222,-0.225555556,0,0,0,,,,,,,PILOT,HB,z,m,./images/PILOTHB.png,,,,,,,,z,1,0.075,,,,,,,,0,145,145,134,1
,,,,,,,,,,,,,,,,,199108,20,2022-01-28_17h39.29.928,lexical_decision_task_DD_L3,2021.2.3,MacIntel,58.82352941,,,,,,,,,,,0.027,1,,,,,,,,,,,,,,,,,,,,,,,,0.032222222,-0.225555556,0,0,0,,,,,,,PLANK,C,m,m,./images/PLANK.png,,,,,,,,m,1,0.027,,,,,,,,0,146,146,1,1
,,,,,,,,,,,,,,,,,199108,20,2022-01-28_17h39.29.928,lexical_decision_task_DD_L3,2021.2.3,MacIntel,58.82352941,,,,,,,,,,,0.05,0,,,,,,,,,,,,,,,,,,,,,,,,0.032222222,-0.225555556,0,0,0,,,,,,,PENCE,C,m,m,./images/PENCE.png,,,,,,,,z,0,0.05,,,,,,,,0,147,147,16,1
,,,,,,,,,,,,,,,,,199108,20,2022-01-28_17h39.29.928,lexical_decision_task_DD_L3,2021.2.3,MacIntel,58.82352941,,,,,,,,,,,0.001,0,,,,,,,,,,,,,,,,,,,,,,,,0.032222222,-0.225555556,0,0,0,,,,,,,COUCH,HB,m,m,./images/COUCHHB.png,,,,,,,,z,0,0.001,,,,,,,,0,148,148,77,1
,,,,,,,,,,,,,,,,,199108,20,2022-01-28_17h39.29.928,lexical_decision_task_DD_L3,2021.2.3,MacIntel,58.82352941,,,,,,,,,,,0.047,0,,,,,,,,,,,,,,,,,,,,,,,,0.032222222,-0.225555556,0,0,0,,,,,,,DANCER,LB,z,m,./images/DANCERLB.png,,,,,,,,m,0,0.047,,,,,,,,0,149,149,105,1
,,,,,,,,,,,,,,,,,199108,20,2022-01-28_17h39.29.928,lexical_decision_task_DD_L3,2021.2.3,MacIntel,58.82352941,,,,,,,,,,,0.001,0,,,,,,,,,,,,,,,,,,,,,,,,0.032222222,-0.225555556,0,0,0,,,,,,,CANOE,C,z,m,./images/CANOE.png,,,,,,,,m,0,0.001,,,,,,,,0,150,150,142,1
,,,,,,,,,,,,,,,,,199108,20,2022-01-28_17h39.29.928,lexical_decision_task_DD_L3,2021.2.3,MacIntel,58.82352941,,,,,,,,,,,0.043,1,,,,,,,,,,,,,,,,,,,,,,,,0.032222222,-0.225555556,0,0,0,,,,,,,BOILER,LB,z,m,./images/BOILERLB.png,,,,,,,,z,1,0.043,,,,,,,,0,151,151,120,1
,,,,,,,,,,,,,,,,,199108,20,2022-01-28_17h39.29.928,lexical_decision_task_DD_L3,2021.2.3,MacIntel,58.82352941,,,,,,,,,,,0.049,0,,,,,,,,,,,,,,,,,,,,,,,,0.032222222,-0.225555556,0,0,0,,,,,,,GLOVE,C,z,m,./images/GLOVE.png,,,,,,,,m,0,0.049,,,,,,,,0,152,152,157,1
,,,,,,,,,,,,,,,,,199108,20,2022-01-28_17h39.29.928,lexical_decision_task_DD_L3,2021.2.3,MacIntel,58.82352941,,,,,,,,,,,0.01,1,,,,,,,,,,,,,,,,,,,,,,,,0.032222222,-0.225555556,0,0,0,,,,,,,BRUSH,HB,z,m,./images/BRUSHHB.png,,,,,,,,z,1,0.01,,,,,,,,0,153,153,143,1
,,,,,,,,,,,,,,,,,199108,20,2022-01-28_17h39.29.928,lexical_decision_task_DD_L3,2021.2.3,MacIntel,58.82352941,,,,,,,,,,,0.03,0,,,,,,,,,,,,,,,,,,,,,,,,0.032222222,-0.225555556,0,0,0,,,,,,,BROOM,LB,z,m,./images/BROOMLB.png,,,,,,,,m,0,0.03,,,,,,,,0,154,154,162,1
,,,,,,,,,,,,,,,,,199108,20,2022-01-28_17h39.29.928,lexical_decision_task_DD_L3,2021.2.3,MacIntel,58.82352941,,,,,,,,,,,0.099,0,,,,,,,,,,,,,,,,,,,,,,,,0.032222222,-0.225555556,0,0,0,,,,,,,WRIST,C,m,m,./images/WRIST.png,,,,,,,,z,0,0.099,,,,,,,,0,155,155,25,1
,,,,,,,,,,,,,,,,,199108,20,2022-01-28_17h39.29.928,lexical_decision_task_DD_L3,2021.2.3,MacIntel,58.82352941,,,,,,,,,,,0.05,1,,,,,,,,,,,,,,,,,,,,,,,,0.032222222,-0.225555556,0,0,0,,,,,,,CHAIN,LB,z,m,./images/CHAINLB.png,,,,,,,,z,1,0.05,,,,,,,,0,156,156,126,1
,,,,,,,,,,,,,,,,,199108,20,2022-01-28_17h39.29.928,lexical_decision_task_DD_L3,2021.2.3,MacIntel,58.82352941,,,,,,,,,,,0.03,1,,,,,,,,,,,,,,,,,,,,,,,,0.032222222,-0.225555556,0,0,0,,,,,,,FERRY,LB,z,m,./images/FERRYLB.png,,,,,,,,z,1,0.03,,,,,,,,0,157,157,141,1
,,,,,,,,,,,,,,,,,199108,20,2022-01-28_17h39.29.928,lexical_decision_task_DD_L3,2021.2.3,MacIntel,58.82352941,,,,,,,,,,,0.011,0,,,,,,,,,,,,,,,,,,,,,,,,0.032222222,-0.225555556,0,0,0,,,,,,,SWING,C,m,m,./images/SWING.png,,,,,,,,z,0,0.011,,,,,,,,0,158,158,40,1
,,,,,,,,,,,,,,,,,199108,20,2022-01-28_17h39.29.928,lexical_decision_task_DD_L3,2021.2.3,MacIntel,58.82352941,,,,,,,,,,,0.051,1,,,,,,,,,,,,,,,,,,,,,,,,0.032222222,-0.225555556,0,0,0,,,,,,,HOCKEY,HB,z,m,./images/HOCKEYHB.png,,,,,,,,z,1,0.051,,,,,,,,0,159,159,116,1
,,,,,,,,,,,,,,,,,199108,20,2022-01-28_17h39.29.928,lexical_decision_task_DD_L3,2021.2.3,MacIntel,58.82352941,,,,,,,,,,,0.044,1,,,,,,,,,,,,,,,,,,,,,,,,0.032222222,-0.225555556,0,0,0,,,,,,,ATTIC,LB,m,m,./images/ATTICLB.png,,,,,,,,m,1,0.044,,,,,,,,0,160,160,27,1
,,,,,,,,,,,,,,,,,199108,20,2022-01-28_17h39.29.928,lexical_decision_task_DD_L3,2021.2.3,MacIntel,58.82352941,,,,,,,,,,,0.051,0,,,,,,,,,,,,,,,,,,,,,,,,0.032222222,-0.225555556,0,0,0,,,,,,,LAGOON,HB,z,m,./images/LAGOONHB.png,,,,,,,,m,0,0.051,,,,,,,,0,161,161,131,1
,,,,,,,,,,,,,,,,,199108,20,2022-01-28_17h39.29.928,lexical_decision_task_DD_L3,2021.2.3,MacIntel,58.82352941,,,,,,,,,,,0.029,0,,,,,,,,,,,,,,,,,,,,,,,,0.032222222,-0.225555556,0,0,0,,,,,,,BUNNY,C,z,m,./images/BUNNY.png,,,,,,,,m,0,0.029,,,,,,,,0,162,162,97,1
,,,,,,,,,,,,,,,,,199108,20,2022-01-28_17h39.29.928,lexical_decision_task_DD_L3,2021.2.3,MacIntel,58.82352941,,,,,,,,,,,0.009,1,,,,,,,,,,,,,,,,,,,,,,,,0.032222222,-0.225555556,0,0,0,,,,,,,HAMMER,LB,z,m,./images/HAMMERLB.png,,,,,,,,z,1,0.009,,,,,,,,0,163,163,159,1
,,,,,,,,,,,,,,,,,199108,20,2022-01-28_17h39.29.928,lexical_decision_task_DD_L3,2021.2.3,MacIntel,58.82352941,,,,,,,,,,,0.051,1,,,,,,,,,,,,,,,,,,,,,,,,0.032222222,-0.225555556,0,0,0,,,,,,,SHELF,LB,m,m,./images/SHELFLB.png,,,,,,,,m,1,0.051,,,,,,,,0,164,164,39,1
,,,,,,,,,,,,,,,,,199108,20,2022-01-28_17h39.29.928,lexical_decision_task_DD_L3,2021.2.3,MacIntel,58.82352941,,,,,,,,,,,0.044,0,,,,,,,,,,,,,,,,,,,,,,,,0.032222222,-0.225555556,0,0,0,,,,,,,SHORE,LB,m,m,./images/SHORELB.png,,,,,,,,z,0,0.044,,,,,,,,0,165,165,12,1
,,,,,,,,,,,,,,,,,199108,20,2022-01-28_17h39.29.928,lexical_decision_task_DD_L3,2021.2.3,MacIntel,58.82352941,,,,,,,,,,,0.084,1,,,,,,,,,,,,,,,,,,,,,,,,0.032222222,-0.225555556,0,0,0,,,,,,,BOXER,C,z,m,./images/BOXER.png,,,,,,,,z,1,0.084,,,,,,,,0,166,166,88,1
,,,,,,,,,,,,,,,,,199108,20,2022-01-28_17h39.29.928,lexical_decision_task_DD_L3,2021.2.3,MacIntel,58.82352941,,,,,,,,,,,0.114,0,,,,,,,,,,,,,,,,,,,,,,,,0.032222222,-0.225555556,0,0,0,,,,,,,MALLET,HB,m,m,./images/MALLETHB.png,,,,,,,,z,0,0.114,,,,,,,,0,167,167,50,1
