key_resp.keys,key_resp.rt,instr_done_touch.x,instr_done_touch.y,instr_done_touch.leftButton,instr_done_touch.midButton,instr_done_touch.rightButton,instruction_pages.thisRepN,instruction_pages.thisTrialN,instruction_pages.thisN,instruction_pages.thisIndex,instruction_pages.ran,pageN,phase,instruct_text,has_image,instruct_image,participant,age,date,expName,psychopyVersion,OS,frameRate,response.keys,response.corr,response.rt,touch_resp.x,touch_resp.y,touch_resp.leftButton,touch_resp.midButton,touch_resp.rightButton,touch_resp.time,touch_resp.clicked_name,rt,corr,practrials.thisRepN,practrials.thisTrialN,practrials.thisN,practrials.thisIndex,practrials.ran,TrialID,Target,corrAns,end_of_practice_trials_pages.thisRepN,end_of_practice_trials_pages.thisTrialN,end_of_practice_trials_pages.thisN,end_of_practice_trials_pages.thisIndex,end_of_practice_trials_pages.ran,key_resp_2.keys,key_resp_2.corr,key_resp_2.rt,targ_click.x,targ_click.y,targ_click.leftButton,targ_click.midButton,targ_click.rightButton,targ_click.time,targ_click.clicked_name,break_done_touch.x,break_done_touch.y,break_done_touch.leftButton,break_done_touch.midButton,break_done_touch.rightButton,break_done_keyboard.keys,maintrials.thisRepN,maintrials.thisTrialN,maintrials.thisN,maintrials.thisIndex,maintrials.ran,string,blur,study,lex,stim_path,break_done_keyboard.rt,test_instructions.thisRepN,test_instructions.thisTrialN,test_instructions.thisN,test_instructions.thisIndex,test_instructions.ran,instr_done_touch.clicked_name,key_resp_3.keys,key_resp_3.corr,key_resp_3.rt,test_click.x,test_click.y,test_click.leftButton,test_click.midButton,test_click.rightButton,test_click.time,test_click.clicked_name,test_phase.thisRepN,test_phase.thisTrialN,test_phase.thisN,test_phase.thisIndex,test_phase.ran,break_done_touch.clicked_name
space,25.4258,0.125234375,-0.014322917,0,0,0,0,0,0,0,1,1,instructions,"INSTRUCTIONS
At the start of each trial, look at the plus sign  (+) in the center of the screen.  This tells you that a trial is about to begin and where to look. Second, the plus sign will disappear and a string of letters will appear. Your task is to determine if the string of letters is a word or not. If the item is a word press the M key (on keyboard)  or touch the word button (phone/tablet).  If the item is not a word,  press the  Z key (on keyboard)  or touch the nonword button (on phone/tablet). 
Press the space bar or touch  continue.",0,,199138,,2022-01-29_14h56.41.287,lexical_decision_task_DD_L3,2021.2.3,MacIntel,59.99880002,,,,,,,,,,,,,,,,,,,,,,,,,,,,,,,,,,,,,,,,,,,,,,,,,,,,,,,,,,,,,,,,,,,,,,,,,,
space,6.7226,0.125234375,-0.014322917,0,0,0,0,1,1,1,1,2,instructions,"If your device has a keyboard, press the 'Z' key for nonwords and the 'M' key for words.





Press the space bar or touch the button below to continue.",0,keyboard-example.gif,199138,,2022-01-29_14h56.41.287,lexical_decision_task_DD_L3,2021.2.3,MacIntel,59.99880002,,,,,,,,,,,,,,,,,,,,,,,,,,,,,,,,,,,,,,,,,,,,,,,,,,,,,,,,,,,,,,,,,,,,,,,,,,
space,2.8244,0.125234375,-0.014322917,0,0,0,0,2,2,2,1,3,instructions,"If you are using a touchscreen only device, use the buttons on the screen. Do not use the mouse.





Press the space bar or touch the button below to continue.",0,touchscreen-example.gif,199138,,2022-01-29_14h56.41.287,lexical_decision_task_DD_L3,2021.2.3,MacIntel,59.99880002,,,,,,,,,,,,,,,,,,,,,,,,,,,,,,,,,,,,,,,,,,,,,,,,,,,,,,,,,,,,,,,,,,,,,,,,,,
space,20.8299,0.125234375,-0.014322917,0,0,0,0,3,3,3,1,4,instructions,"It is very important that you respond as quickly and accurately as possible, as each letter string will only be on the screen for two seconds. If you do not respond within this time, the message 'Too slow!' will be displayed and the experiment will progress to the next letter string. The first 20 trials will be practice trials and you will receive feedback on your answers. 

Press the space bar or touch the button below to start the practice trials.",0,,199138,,2022-01-29_14h56.41.287,lexical_decision_task_DD_L3,2021.2.3,MacIntel,59.99880002,,,,,,,,,,,,,,,,,,,,,,,,,,,,,,,,,,,,,,,,,,,,,,,,,,,,,,,,,,,,,,,,,,,,,,,,,,
,,,,,,,,,,,,,,,,,199138,,2022-01-29_14h56.41.287,lexical_decision_task_DD_L3,2021.2.3,MacIntel,59.99880002,m,1,1.2058,,,,,,,,1.2058,1,0,0,0,2,1,1001,ALMOND,m,,,,,,,,,,,,,,,,,,,,,,,,,,,,,,,,,,,,,,,,,,,,,,,,,,,,,,
,,,,,,,,,,,,,,,,,199138,,2022-01-29_14h56.41.287,lexical_decision_task_DD_L3,2021.2.3,MacIntel,59.99880002,m,1,1.2648,,,,,,,,1.2648,1,0,1,1,1,1,1001,ADJUST,m,,,,,,,,,,,,,,,,,,,,,,,,,,,,,,,,,,,,,,,,,,,,,,,,,,,,,,
,,,,,,,,,,,,,,,,,199138,,2022-01-29_14h56.41.287,lexical_decision_task_DD_L3,2021.2.3,MacIntel,59.99880002,z,1,1.2573,,,,,,,,1.2573,1,0,2,2,14,1,1001,THRALE,z,,,,,,,,,,,,,,,,,,,,,,,,,,,,,,,,,,,,,,,,,,,,,,,,,,,,,,
,,,,,,,,,,,,,,,,,199138,,2022-01-29_14h56.41.287,lexical_decision_task_DD_L3,2021.2.3,MacIntel,59.99880002,z,1,1.7449,,,,,,,,1.7449,1,0,3,3,9,1,1001,FARINY,z,,,,,,,,,,,,,,,,,,,,,,,,,,,,,,,,,,,,,,,,,,,,,,,,,,,,,,
,,,,,,,,,,,,,,,,,199138,,2022-01-29_14h56.41.287,lexical_decision_task_DD_L3,2021.2.3,MacIntel,59.99880002,m,1,0.7633,,,,,,,,0.7633,1,0,4,4,5,1,1001,OBTAIN,m,,,,,,,,,,,,,,,,,,,,,,,,,,,,,,,,,,,,,,,,,,,,,,,,,,,,,,
,,,,,,,,,,,,,,,,,199138,,2022-01-29_14h56.41.287,lexical_decision_task_DD_L3,2021.2.3,MacIntel,59.99880002,z,1,1.5071,,,,,,,,1.5071,1,0,5,5,8,1,1001,ASLERT,z,,,,,,,,,,,,,,,,,,,,,,,,,,,,,,,,,,,,,,,,,,,,,,,,,,,,,,
,,,,,,,,,,,,,,,,,199138,,2022-01-29_14h56.41.287,lexical_decision_task_DD_L3,2021.2.3,MacIntel,59.99880002,z,1,0.9039,,,,,,,,0.9039,1,0,6,6,13,1,1001,ROUPET,z,,,,,,,,,,,,,,,,,,,,,,,,,,,,,,,,,,,,,,,,,,,,,,,,,,,,,,
,,,,,,,,,,,,,,,,,199138,,2022-01-29_14h56.41.287,lexical_decision_task_DD_L3,2021.2.3,MacIntel,59.99880002,z,1,1.59,,,,,,,,1.59,1,0,7,7,12,1,1001,SPRINY,z,,,,,,,,,,,,,,,,,,,,,,,,,,,,,,,,,,,,,,,,,,,,,,,,,,,,,,
,,,,,,,,,,,,,,,,,199138,,2022-01-29_14h56.41.287,lexical_decision_task_DD_L3,2021.2.3,MacIntel,59.99880002,m,1,0.9106,,,,,,,,0.9106,1,0,8,8,4,1,1001,SQUEAK,m,,,,,,,,,,,,,,,,,,,,,,,,,,,,,,,,,,,,,,,,,,,,,,,,,,,,,,
,,,,,,,,,,,,,,,,,199138,,2022-01-29_14h56.41.287,lexical_decision_task_DD_L3,2021.2.3,MacIntel,59.99880002,m,1,0.6473,,,,,,,,0.6473,1,0,9,9,7,1,1001,VOLUME,m,,,,,,,,,,,,,,,,,,,,,,,,,,,,,,,,,,,,,,,,,,,,,,,,,,,,,,
,,,,,,,,,,,,,,,,,199138,,2022-01-29_14h56.41.287,lexical_decision_task_DD_L3,2021.2.3,MacIntel,59.99880002,z,1,1.1771,,,,,,,,1.1771,1,0,10,10,15,1,1001,WHAISE,z,,,,,,,,,,,,,,,,,,,,,,,,,,,,,,,,,,,,,,,,,,,,,,,,,,,,,,
,,,,,,,,,,,,,,,,,199138,,2022-01-29_14h56.41.287,lexical_decision_task_DD_L3,2021.2.3,MacIntel,59.99880002,m,1,1.1545,,,,,,,,1.1545,1,0,11,11,3,1,1001,MATRIX,m,,,,,,,,,,,,,,,,,,,,,,,,,,,,,,,,,,,,,,,,,,,,,,,,,,,,,,
,,,,,,,,,,,,,,,,,199138,,2022-01-29_14h56.41.287,lexical_decision_task_DD_L3,2021.2.3,MacIntel,59.99880002,m,1,0.825,,,,,,,,0.825,1,0,12,12,0,1,1001,UTOPIA,m,,,,,,,,,,,,,,,,,,,,,,,,,,,,,,,,,,,,,,,,,,,,,,,,,,,,,,
,,,,,,,,,,,,,,,,,199138,,2022-01-29_14h56.41.287,lexical_decision_task_DD_L3,2021.2.3,MacIntel,59.99880002,z,1,1.1535,,,,,,,,1.1535,1,0,13,13,11,1,1001,RASHET,z,,,,,,,,,,,,,,,,,,,,,,,,,,,,,,,,,,,,,,,,,,,,,,,,,,,,,,
,,,,,,,,,,,,,,,,,199138,,2022-01-29_14h56.41.287,lexical_decision_task_DD_L3,2021.2.3,MacIntel,59.99880002,z,1,1.4733,,,,,,,,1.4733,1,0,14,14,10,1,1001,INLADE,z,,,,,,,,,,,,,,,,,,,,,,,,,,,,,,,,,,,,,,,,,,,,,,,,,,,,,,
,,,,,,,,,,,,,,,,,199138,,2022-01-29_14h56.41.287,lexical_decision_task_DD_L3,2021.2.3,MacIntel,59.99880002,m,1,0.7301,,,,,,,,0.7301,1,0,15,15,6,1,1001,ZOMBIE,m,,,,,,,,,,,,,,,,,,,,,,,,,,,,,,,,,,,,,,,,,,,,,,,,,,,,,,
space,8.3387,0.125234375,-0.014322917,0,0,0,,,,,,1,end_of_practice,"You have completed the practice trials. During the experimental trials, you will not receive feedback. 
Before you begin, please ensure that you are in a comfortable and quiet location and will not be disturbed for about 15 minutes, as we cannot use your data if you do not complete all the trials. 
 When you are ready to start the experimental trials, please press space or touch the button below.",,,199138,,2022-01-29_14h56.41.287,lexical_decision_task_DD_L3,2021.2.3,MacIntel,59.99880002,,,,,,,,,,,,,,,,,,,,,0,0,0,0,1,,,,,,,,,,,,,,,,,,,,,,,,,,,,,,,,,,,,,,,,,,,,,,,,,
,,,,,,,,,,,,,,,,,199138,,2022-01-29_14h56.41.287,lexical_decision_task_DD_L3,2021.2.3,MacIntel,59.99880002,,,,,,,,,,,1.7094,1,,,,,,,,,,,,,,m,1,1.7094,,,,,,,,0.125234375,-0.014322917,0,0,0,,0,0,0,8,1,TULIP,HB,old,m,./images/TULIPHB.png,,,,,,,,,,,,,,,,,,,,,,,
,,,,,,,,,,,,,,,,,199138,,2022-01-29_14h56.41.287,lexical_decision_task_DD_L3,2021.2.3,MacIntel,59.99880002,,,,,,,,,,,1.4746,1,,,,,,,,,,,,,,m,1,1.4746,,,,,,,,0.125234375,-0.014322917,0,0,0,,0,1,1,25,1,WRIST,C,old,m,./images/WRIST.png,,,,,,,,,,,,,,,,,,,,,,,
,,,,,,,,,,,,,,,,,199138,,2022-01-29_14h56.41.287,lexical_decision_task_DD_L3,2021.2.3,MacIntel,59.99880002,,,,,,,,,,,0.792,1,,,,,,,,,,,,,,m,1,0.792,,,,,,,,0.125234375,-0.014322917,0,0,0,,0,2,2,24,1,SCREW,LB,old,m,./images/SCREWLB.png,,,,,,,,,,,,,,,,,,,,,,,
,,,,,,,,,,,,,,,,,199138,,2022-01-29_14h56.41.287,lexical_decision_task_DD_L3,2021.2.3,MacIntel,59.99880002,,,,,,,,,,,0.7983,1,,,,,,,,,,,,,,m,1,0.7983,,,,,,,,0.125234375,-0.014322917,0,0,0,,0,3,3,51,1,ONION,LB,old,m,./images/ONIONLB.png,,,,,,,,,,,,,,,,,,,,,,,
,,,,,,,,,,,,,,,,,199138,,2022-01-29_14h56.41.287,lexical_decision_task_DD_L3,2021.2.3,MacIntel,59.99880002,,,,,,,,,,,1.6494,1,,,,,,,,,,,,,,z,1,1.6494,,,,,,,,0.125234375,-0.014322917,0,0,0,,0,4,4,122,1,BLOOT,LB,old,z,./images/BLOOTLB.png,,,,,,,,,,,,,,,,,,,,,,,
,,,,,,,,,,,,,,,,,199138,,2022-01-29_14h56.41.287,lexical_decision_task_DD_L3,2021.2.3,MacIntel,59.99880002,,,,,,,,,,,1.6411,1,,,,,,,,,,,,,,z,1,1.6411,,,,,,,,0.125234375,-0.014322917,0,0,0,,0,5,5,138,1,PLICE,C,old,z,./images/PLICE.png,,,,,,,,,,,,,,,,,,,,,,,
,,,,,,,,,,,,,,,,,199138,,2022-01-29_14h56.41.287,lexical_decision_task_DD_L3,2021.2.3,MacIntel,59.99880002,,,,,,,,,,,1.3055,0,,,,,,,,,,,,,,z,0,1.3055,,,,,,,,0.125234375,-0.014322917,0,0,0,,0,6,6,43,1,MOSQUE,C,old,m,./images/MOSQUE.png,,,,,,,,,,,,,,,,,,,,,,,
,,,,,,,,,,,,,,,,,199138,,2022-01-29_14h56.41.287,lexical_decision_task_DD_L3,2021.2.3,MacIntel,59.99880002,,,,,,,,,,,1.4058,1,,,,,,,,,,,,,,z,1,1.4058,,,,,,,,0.125234375,-0.014322917,0,0,0,,0,7,7,153,1,CLUPS,C,old,z,./images/CLUPS.png,,,,,,,,,,,,,,,,,,,,,,,
,,,,,,,,,,,,,,,,,199138,,2022-01-29_14h56.41.287,lexical_decision_task_DD_L3,2021.2.3,MacIntel,59.99880002,,,,,,,,,,,0.7487,1,,,,,,,,,,,,,,m,1,0.7487,,,,,,,,0.125234375,-0.014322917,0,0,0,,0,8,8,36,1,THROAT,LB,old,m,./images/THROATLB.png,,,,,,,,,,,,,,,,,,,,,,,
,,,,,,,,,,,,,,,,,199138,,2022-01-29_14h56.41.287,lexical_decision_task_DD_L3,2021.2.3,MacIntel,59.99880002,,,,,,,,,,,0.7708,1,,,,,,,,,,,,,,m,1,0.7708,,,,,,,,0.125234375,-0.014322917,0,0,0,,0,9,9,15,1,GREASE,LB,old,m,./images/GREASELB.png,,,,,,,,,,,,,,,,,,,,,,,
,,,,,,,,,,,,,,,,,199138,,2022-01-29_14h56.41.287,lexical_decision_task_DD_L3,2021.2.3,MacIntel,59.99880002,,,,,,,,,,,0.7804,1,,,,,,,,,,,,,,m,1,0.7804,,,,,,,,0.125234375,-0.014322917,0,0,0,,0,10,10,9,1,RHINO,LB,old,m,./images/RHINOLB.png,,,,,,,,,,,,,,,,,,,,,,,
,,,,,,,,,,,,,,,,,199138,,2022-01-29_14h56.41.287,lexical_decision_task_DD_L3,2021.2.3,MacIntel,59.99880002,,,,,,,,,,,0.9311,1,,,,,,,,,,,,,,z,1,0.9311,,,,,,,,0.125234375,-0.014322917,0,0,0,,0,11,11,125,1,MOOKY,LB,old,z,./images/MOOKYLB.png,,,,,,,,,,,,,,,,,,,,,,,
,,,,,,,,,,,,,,,,,199138,,2022-01-29_14h56.41.287,lexical_decision_task_DD_L3,2021.2.3,MacIntel,59.99880002,,,,,,,,,,,1.1162,1,,,,,,,,,,,,,,m,1,1.1162,,,,,,,,0.125234375,-0.014322917,0,0,0,,0,12,12,62,1,PURSE,HB,old,m,./images/PURSEHB.png,,,,,,,,,,,,,,,,,,,,,,,
,,,,,,,,,,,,,,,,,199138,,2022-01-29_14h56.41.287,lexical_decision_task_DD_L3,2021.2.3,MacIntel,59.99880002,,,,,,,,,,,2.0647,1,,,,,,,,,,,,,,m,1,2.0647,,,,,,,,0.125234375,-0.014322917,0,0,0,,0,13,13,11,1,BONNET,HB,old,m,./images/BONNETHB.png,,,,,,,,,,,,,,,,,,,,,,,
,,,,,,,,,,,,,,,,,199138,,2022-01-29_14h56.41.287,lexical_decision_task_DD_L3,2021.2.3,MacIntel,59.99880002,,,,,,,,,,,1.5901,1,,,,,,,,,,,,,,z,1,1.5901,,,,,,,,0.125234375,-0.014322917,0,0,0,,0,14,14,150,1,NOOLS,C,old,z,./images/NOOLS.png,,,,,,,,,,,,,,,,,,,,,,,
,,,,,,,,,,,,,,,,,199138,,2022-01-29_14h56.41.287,lexical_decision_task_DD_L3,2021.2.3,MacIntel,59.99880002,,,,,,,,,,,2.1654,1,,,,,,,,,,,,,,z,1,2.1654,,,,,,,,0.125234375,-0.014322917,0,0,0,,0,15,15,112,1,MYING,HB,old,z,./images/MYINGHB.png,,,,,,,,,,,,,,,,,,,,,,,
,,,,,,,,,,,,,,,,,199138,,2022-01-29_14h56.41.287,lexical_decision_task_DD_L3,2021.2.3,MacIntel,59.99880002,,,,,,,,,,,1.2035,1,,,,,,,,,,,,,,m,1,1.2035,,,,,,,,0.125234375,-0.014322917,0,0,0,,0,16,16,79,1,CRUST,C,old,m,./images/CRUST.png,,,,,,,,,,,,,,,,,,,,,,,
,,,,,,,,,,,,,,,,,199138,,2022-01-29_14h56.41.287,lexical_decision_task_DD_L3,2021.2.3,MacIntel,59.99880002,,,,,,,,,,,6.2665,1,,,,,,,,,,,,,,z,1,6.2665,,,,,,,,0.125234375,-0.014322917,0,0,0,,0,17,17,100,1,DRIBS,HB,old,z,./images/DRIBSHB.png,,,,,,,,,,,,,,,,,,,,,,,
,,,,,,,,,,,,,,,,,199138,,2022-01-29_14h56.41.287,lexical_decision_task_DD_L3,2021.2.3,MacIntel,59.99880002,,,,,,,,,,,3.1238,0,,,,,,,,,,,,,,m,0,3.1238,,,,,,,,0.125234375,-0.014322917,0,0,0,,0,18,18,154,1,THINT,HB,old,z,./images/THINTHB.png,,,,,,,,,,,,,,,,,,,,,,,
,,,,,,,,,,,,,,,,,199138,,2022-01-29_14h56.41.287,lexical_decision_task_DD_L3,2021.2.3,MacIntel,59.99880002,,,,,,,,,,,9.1402,1,,,,,,,,,,,,,,m,1,9.1402,,,,,,,,0.240690104,-0.170759549,0,0,0,,0,19,19,10,1,BELLY,C,old,m,./images/BELLY.png,,,,,,,,,,,,,,,,,,,,,,,
,,,,,,,,,,,,,,,,,199138,,2022-01-29_14h56.41.287,lexical_decision_task_DD_L3,2021.2.3,MacIntel,59.99880002,,,,,,,,,,,2.6994,1,,,,,,,,,,,,,,z,1,2.6994,,,,,,,,0.240690104,-0.170759549,0,0,0,,0,20,20,134,1,TROSS,LB,old,z,./images/TROSSLB.png,,,,,,,,,,,,,,,,,,,,,,,
,,,,,,,,,,,,,,,,,199138,,2022-01-29_14h56.41.287,lexical_decision_task_DD_L3,2021.2.3,MacIntel,59.99880002,,,,,,,,,,,1.6797,1,,,,,,,,,,,,,,m,1,1.6797,,,,,,,,0.240690104,-0.170759549,0,0,0,,0,21,21,55,1,MUFFIN,C,old,m,./images/MUFFIN.png,,,,,,,,,,,,,,,,,,,,,,,
,,,,,,,,,,,,,,,,,199138,,2022-01-29_14h56.41.287,lexical_decision_task_DD_L3,2021.2.3,MacIntel,59.99880002,,,,,,,,,,,2.6969,1,,,,,,,,,,,,,,z,1,2.6969,,,,,,,,0.240690104,-0.170759549,0,0,0,,0,22,22,111,1,HOSSE,C,old,z,./images/HOSSE.png,,,,,,,,,,,,,,,,,,,,,,,
,,,,,,,,,,,,,,,,,199138,,2022-01-29_14h56.41.287,lexical_decision_task_DD_L3,2021.2.3,MacIntel,59.99880002,,,,,,,,,,,2.9462,1,,,,,,,,,,,,,,m,1,2.9462,,,,,,,,0.240690104,-0.170759549,0,0,0,,0,23,23,18,1,JAGUAR,LB,old,m,./images/JAGUARLB.png,,,,,,,,,,,,,,,,,,,,,,,
,,,,,,,,,,,,,,,,,199138,,2022-01-29_14h56.41.287,lexical_decision_task_DD_L3,2021.2.3,MacIntel,59.99880002,,,,,,,,,,,2.1435,1,,,,,,,,,,,,,,z,1,2.1435,,,,,,,,0.240690104,-0.170759549,0,0,0,,0,24,24,130,1,CRILL,HB,old,z,./images/CRILLHB.png,,,,,,,,,,,,,,,,,,,,,,,
,,,,,,,,,,,,,,,,,199138,,2022-01-29_14h56.41.287,lexical_decision_task_DD_L3,2021.2.3,MacIntel,59.99880002,,,,,,,,,,,1.9564,1,,,,,,,,,,,,,,z,1,1.9564,,,,,,,,0.240690104,-0.170759549,0,0,0,,0,25,25,155,1,CANGY,LB,old,z,./images/CANGYLB.png,,,,,,,,,,,,,,,,,,,,,,,
,,,,,,,,,,,,,,,,,199138,,2022-01-29_14h56.41.287,lexical_decision_task_DD_L3,2021.2.3,MacIntel,59.99880002,,,,,,,,,,,1.0661,0,,,,,,,,,,,,,,z,0,1.0661,,,,,,,,0.240690104,-0.170759549,0,0,0,,0,26,26,72,1,NOOSE,LB,old,m,./images/NOOSELB.png,,,,,,,,,,,,,,,,,,,,,,,
,,,,,,,,,,,,,,,,,199138,,2022-01-29_14h56.41.287,lexical_decision_task_DD_L3,2021.2.3,MacIntel,59.99880002,,,,,,,,,,,2.5858,0,,,,,,,,,,,,,,z,0,2.5858,,,,,,,,0.240690104,-0.170759549,0,0,0,,0,27,27,80,1,WEASEL,HB,old,m,./images/WEASELHB.png,,,,,,,,,,,,,,,,,,,,,,,
,,,,,,,,,,,,,,,,,199138,,2022-01-29_14h56.41.287,lexical_decision_task_DD_L3,2021.2.3,MacIntel,59.99880002,,,,,,,,,,,1.5224,1,,,,,,,,,,,,,,z,1,1.5224,,,,,,,,0.240690104,-0.170759549,0,0,0,,0,28,28,118,1,BAVEL,HB,old,z,./images/BAVELHB.png,,,,,,,,,,,,,,,,,,,,,,,
,,,,,,,,,,,,,,,,,199138,,2022-01-29_14h56.41.287,lexical_decision_task_DD_L3,2021.2.3,MacIntel,59.99880002,,,,,,,,,,,1.0384,1,,,,,,,,,,,,,,m,1,1.0384,,,,,,,,0.240690104,-0.170759549,0,0,0,,0,29,29,32,1,BARREL,HB,old,m,./images/BARRELHB.png,,,,,,,,,,,,,,,,,,,,,,,
,,,,,,,,,,,,,,,,,199138,,2022-01-29_14h56.41.287,lexical_decision_task_DD_L3,2021.2.3,MacIntel,59.99880002,,,,,,,,,,,1.3837,1,,,,,,,,,,,,,,z,1,1.3837,,,,,,,,0.240690104,-0.170759549,0,0,0,,0,30,30,143,1,MONGS,LB,old,z,./images/MONGSLB.png,,,,,,,,,,,,,,,,,,,,,,,
,,,,,,,,,,,,,,,,,199138,,2022-01-29_14h56.41.287,lexical_decision_task_DD_L3,2021.2.3,MacIntel,59.99880002,,,,,,,,,,,0.641,1,,,,,,,,,,,,,,m,1,0.641,,,,,,,,0.240690104,-0.170759549,0,0,0,,0,31,31,13,1,MOTOR,C,old,m,./images/MOTOR.png,,,,,,,,,,,,,,,,,,,,,,,
,,,,,,,,,,,,,,,,,199138,,2022-01-29_14h56.41.287,lexical_decision_task_DD_L3,2021.2.3,MacIntel,59.99880002,,,,,,,,,,,1.0513,1,,,,,,,,,,,,,,z,1,1.0513,,,,,,,,0.240690104,-0.170759549,0,0,0,,0,32,32,120,1,RINED,C,old,z,./images/RINED.png,,,,,,,,,,,,,,,,,,,,,,,
,,,,,,,,,,,,,,,,,199138,,2022-01-29_14h56.41.287,lexical_decision_task_DD_L3,2021.2.3,MacIntel,59.99880002,,,,,,,,,,,0.9377,1,,,,,,,,,,,,,,z,1,0.9377,,,,,,,,0.240690104,-0.170759549,0,0,0,,0,33,33,114,1,RIKES,C,old,z,./images/RIKES.png,,,,,,,,,,,,,,,,,,,,,,,
,,,,,,,,,,,,,,,,,199138,,2022-01-29_14h56.41.287,lexical_decision_task_DD_L3,2021.2.3,MacIntel,59.99880002,,,,,,,,,,,0.9493,0,,,,,,,,,,,,,,z,0,0.9493,,,,,,,,0.240690104,-0.170759549,0,0,0,,0,34,34,44,1,LIZARD,HB,old,m,./images/LIZARDHB.png,,,,,,,,,,,,,,,,,,,,,,,
,,,,,,,,,,,,,,,,,199138,,2022-01-29_14h56.41.287,lexical_decision_task_DD_L3,2021.2.3,MacIntel,59.99880002,,,,,,,,,,,2.6318,1,,,,,,,,,,,,,,z,1,2.6318,,,,,,,,0.240690104,-0.170759549,0,0,0,,0,35,35,103,1,FLORT,HB,old,z,./images/FLORTHB.png,,,,,,,,,,,,,,,,,,,,,,,
,,,,,,,,,,,,,,,,,199138,,2022-01-29_14h56.41.287,lexical_decision_task_DD_L3,2021.2.3,MacIntel,59.99880002,,,,,,,,,,,2.2994,0,,,,,,,,,,,,,,m,0,2.2994,,,,,,,,0.240690104,-0.170759549,0,0,0,,0,36,36,91,1,SHENS,HB,old,z,./images/SHENSHB.png,,,,,,,,,,,,,,,,,,,,,,,
,,,,,,,,,,,,,,,,,199138,,2022-01-29_14h56.41.287,lexical_decision_task_DD_L3,2021.2.3,MacIntel,59.99880002,,,,,,,,,,,1.1626,1,,,,,,,,,,,,,,z,1,1.1626,,,,,,,,0.240690104,-0.170759549,0,0,0,,0,37,37,167,1,ZONET,LB,old,z,./images/ZONETLB.png,,,,,,,,,,,,,,,,,,,,,,,
,,,,,,,,,,,,,,,,,199138,,2022-01-29_14h56.41.287,lexical_decision_task_DD_L3,2021.2.3,MacIntel,59.99880002,,,,,,,,,,,0.9644,1,,,,,,,,,,,,,,m,1,0.9644,,,,,,,,0.240690104,-0.170759549,0,0,0,,0,38,38,30,1,STORM,LB,old,m,./images/STORMLB.png,,,,,,,,,,,,,,,,,,,,,,,
,,,,,,,,,,,,,,,,,199138,,2022-01-29_14h56.41.287,lexical_decision_task_DD_L3,2021.2.3,MacIntel,59.99880002,,,,,,,,,,,0.6152,1,,,,,,,,,,,,,,m,1,0.6152,,,,,,,,0.240690104,-0.170759549,0,0,0,,0,39,39,63,1,MIRROR,LB,old,m,./images/MIRRORLB.png,,,,,,,,,,,,,,,,,,,,,,,
,,,,,,,,,,,,,,,,,199138,,2022-01-29_14h56.41.287,lexical_decision_task_DD_L3,2021.2.3,MacIntel,59.99880002,,,,,,,,,,,0.8523,0,,,,,,,,,,,,,,m,0,0.8523,,,,,,,,0.240690104,-0.170759549,0,0,0,,0,40,40,139,1,BLEAR,HB,old,z,./images/BLEARHB.png,,,,,,,,,,,,,,,,,,,,,,,
,,,,,,,,,,,,,,,,,199138,,2022-01-29_14h56.41.287,lexical_decision_task_DD_L3,2021.2.3,MacIntel,59.99880002,,,,,,,,,,,1.3025,1,,,,,,,,,,,,,,z,1,1.3025,,,,,,,,0.240690104,-0.170759549,0,0,0,space,0,41,41,95,1,HANTY,LB,old,z,./images/HANTYLB.png,12.2169,,,,,,,,,,,,,,,,,,,,,,
,,,,,,,,,,,,,,,,,199138,,2022-01-29_14h56.41.287,lexical_decision_task_DD_L3,2021.2.3,MacIntel,59.99880002,,,,,,,,,,,0.8879,1,,,,,,,,,,,,,,z,1,0.8879,,,,,,,,0.240690104,-0.170759549,0,0,0,,0,42,42,93,1,SMONE,C,old,z,./images/SMONE.png,,,,,,,,,,,,,,,,,,,,,,,
,,,,,,,,,,,,,,,,,199138,,2022-01-29_14h56.41.287,lexical_decision_task_DD_L3,2021.2.3,MacIntel,59.99880002,,,,,,,,,,,0.7865,1,,,,,,,,,,,,,,m,1,0.7865,,,,,,,,0.240690104,-0.170759549,0,0,0,,0,43,43,57,1,MOOSE,LB,old,m,./images/MOOSELB.png,,,,,,,,,,,,,,,,,,,,,,,
,,,,,,,,,,,,,,,,,199138,,2022-01-29_14h56.41.287,lexical_decision_task_DD_L3,2021.2.3,MacIntel,59.99880002,,,,,,,,,,,1.1069,1,,,,,,,,,,,,,,m,1,1.1069,,,,,,,,0.240690104,-0.170759549,0,0,0,,0,44,44,75,1,GRAIN,LB,old,m,./images/GRAINLB.png,,,,,,,,,,,,,,,,,,,,,,,
,,,,,,,,,,,,,,,,,199138,,2022-01-29_14h56.41.287,lexical_decision_task_DD_L3,2021.2.3,MacIntel,59.99880002,,,,,,,,,,,0.9497,1,,,,,,,,,,,,,,m,1,0.9497,,,,,,,,0.240690104,-0.170759549,0,0,0,,0,45,45,59,1,BURIAL,HB,old,m,./images/BURIALHB.png,,,,,,,,,,,,,,,,,,,,,,,
,,,,,,,,,,,,,,,,,199138,,2022-01-29_14h56.41.287,lexical_decision_task_DD_L3,2021.2.3,MacIntel,59.99880002,,,,,,,,,,,1.3224,1,,,,,,,,,,,,,,m,1,1.3224,,,,,,,,0.240690104,-0.170759549,0,0,0,,0,46,46,53,1,CARPET,HB,old,m,./images/CARPETHB.png,,,,,,,,,,,,,,,,,,,,,,,
,,,,,,,,,,,,,,,,,199138,,2022-01-29_14h56.41.287,lexical_decision_task_DD_L3,2021.2.3,MacIntel,59.99880002,,,,,,,,,,,0.8395,1,,,,,,,,,,,,,,m,1,0.8395,,,,,,,,0.240690104,-0.170759549,0,0,0,,0,47,47,70,1,URINE,C,old,m,./images/URINE.png,,,,,,,,,,,,,,,,,,,,,,,
,,,,,,,,,,,,,,,,,199138,,2022-01-29_14h56.41.287,lexical_decision_task_DD_L3,2021.2.3,MacIntel,59.99880002,,,,,,,,,,,1.4639,1,,,,,,,,,,,,,,m,1,1.4639,,,,,,,,0.240690104,-0.170759549,0,0,0,,0,48,48,23,1,WALRUS,HB,old,m,./images/WALRUSHB.png,,,,,,,,,,,,,,,,,,,,,,,
,,,,,,,,,,,,,,,,,199138,,2022-01-29_14h56.41.287,lexical_decision_task_DD_L3,2021.2.3,MacIntel,59.99880002,,,,,,,,,,,0.8979,1,,,,,,,,,,,,,,z,1,0.8979,,,,,,,,0.240690104,-0.170759549,0,0,0,,0,49,49,146,1,MOOST,LB,old,z,./images/MOOSTLB.png,,,,,,,,,,,,,,,,,,,,,,,
,,,,,,,,,,,,,,,,,199138,,2022-01-29_14h56.41.287,lexical_decision_task_DD_L3,2021.2.3,MacIntel,59.99880002,,,,,,,,,,,0.9852,1,,,,,,,,,,,,,,z,1,0.9852,,,,,,,,0.240690104,-0.170759549,0,0,0,,0,50,50,147,1,ZOLES,C,old,z,./images/ZOLES.png,,,,,,,,,,,,,,,,,,,,,,,
,,,,,,,,,,,,,,,,,199138,,2022-01-29_14h56.41.287,lexical_decision_task_DD_L3,2021.2.3,MacIntel,59.99880002,,,,,,,,,,,0.7985,1,,,,,,,,,,,,,,m,1,0.7985,,,,,,,,0.240690104,-0.170759549,0,0,0,,0,51,51,5,1,PASTA,HB,old,m,./images/PASTAHB.png,,,,,,,,,,,,,,,,,,,,,,,
,,,,,,,,,,,,,,,,,199138,,2022-01-29_14h56.41.287,lexical_decision_task_DD_L3,2021.2.3,MacIntel,59.99880002,,,,,,,,,,,0.967,1,,,,,,,,,,,,,,z,1,0.967,,,,,,,,0.240690104,-0.170759549,0,0,0,,0,52,52,92,1,PAIMS,LB,old,z,./images/PAIMSLB.png,,,,,,,,,,,,,,,,,,,,,,,
,,,,,,,,,,,,,,,,,199138,,2022-01-29_14h56.41.287,lexical_decision_task_DD_L3,2021.2.3,MacIntel,59.99880002,,,,,,,,,,,1.072,1,,,,,,,,,,,,,,z,1,1.072,,,,,,,,0.240690104,-0.170759549,0,0,0,,0,53,53,151,1,TINKY,HB,old,z,./images/TINKYHB.png,,,,,,,,,,,,,,,,,,,,,,,
,,,,,,,,,,,,,,,,,199138,,2022-01-29_14h56.41.287,lexical_decision_task_DD_L3,2021.2.3,MacIntel,59.99880002,,,,,,,,,,,0.671,1,,,,,,,,,,,,,,m,1,0.671,,,,,,,,0.240690104,-0.170759549,0,0,0,,0,54,54,40,1,SWING,C,old,m,./images/SWING.png,,,,,,,,,,,,,,,,,,,,,,,
,,,,,,,,,,,,,,,,,199138,,2022-01-29_14h56.41.287,lexical_decision_task_DD_L3,2021.2.3,MacIntel,59.99880002,,,,,,,,,,,1.133,1,,,,,,,,,,,,,,m,1,1.133,,,,,,,,0.240690104,-0.170759549,0,0,0,,0,55,55,26,1,SMOKER,HB,old,m,./images/SMOKERHB.png,,,,,,,,,,,,,,,,,,,,,,,
,,,,,,,,,,,,,,,,,199138,,2022-01-29_14h56.41.287,lexical_decision_task_DD_L3,2021.2.3,MacIntel,59.99880002,,,,,,,,,,,0.9001,1,,,,,,,,,,,,,,z,1,0.9001,,,,,,,,0.240690104,-0.170759549,0,0,0,,0,56,56,107,1,FASKS,LB,old,z,./images/FASKSLB.png,,,,,,,,,,,,,,,,,,,,,,,
,,,,,,,,,,,,,,,,,199138,,2022-01-29_14h56.41.287,lexical_decision_task_DD_L3,2021.2.3,MacIntel,59.99880002,,,,,,,,,,,1.4532,1,,,,,,,,,,,,,,m,1,1.4532,,,,,,,,0.240690104,-0.170759549,0,0,0,,0,57,57,74,1,CEMENT,HB,old,m,./images/CEMENTHB.png,,,,,,,,,,,,,,,,,,,,,,,
,,,,,,,,,,,,,,,,,199138,,2022-01-29_14h56.41.287,lexical_decision_task_DD_L3,2021.2.3,MacIntel,59.99880002,,,,,,,,,,,1.0137,1,,,,,,,,,,,,,,z,1,1.0137,,,,,,,,0.240690104,-0.170759549,0,0,0,,0,58,58,126,1,GUELS,C,old,z,./images/GUELS.png,,,,,,,,,,,,,,,,,,,,,,,
,,,,,,,,,,,,,,,,,199138,,2022-01-29_14h56.41.287,lexical_decision_task_DD_L3,2021.2.3,MacIntel,59.99880002,,,,,,,,,,,2.1249,1,,,,,,,,,,,,,,z,1,2.1249,,,,,,,,0.240690104,-0.170759549,0,0,0,,0,59,59,136,1,WERVE,HB,old,z,./images/WERVEHB.png,,,,,,,,,,,,,,,,,,,,,,,
,,,,,,,,,,,,,,,,,199138,,2022-01-29_14h56.41.287,lexical_decision_task_DD_L3,2021.2.3,MacIntel,59.99880002,,,,,,,,,,,0.5563,0,,,,,,,,,,,,,,m,0,0.5563,,,,,,,,0.240690104,-0.170759549,0,0,0,,0,60,60,159,1,CUDDY,C,old,z,./images/CUDDY.png,,,,,,,,,,,,,,,,,,,,,,,
,,,,,,,,,,,,,,,,,199138,,2022-01-29_14h56.41.287,lexical_decision_task_DD_L3,2021.2.3,MacIntel,59.99880002,,,,,,,,,,,0.7978,1,,,,,,,,,,,,,,m,1,0.7978,,,,,,,,0.240690104,-0.170759549,0,0,0,,0,61,61,4,1,MUSCLE,C,old,m,./images/MUSCLE.png,,,,,,,,,,,,,,,,,,,,,,,
,,,,,,,,,,,,,,,,,199138,,2022-01-29_14h56.41.287,lexical_decision_task_DD_L3,2021.2.3,MacIntel,59.99880002,,,,,,,,,,,0.6074,1,,,,,,,,,,,,,,m,1,0.6074,,,,,,,,0.240690104,-0.170759549,0,0,0,,0,62,62,37,1,BIRTH,C,old,m,./images/BIRTH.png,,,,,,,,,,,,,,,,,,,,,,,
,,,,,,,,,,,,,,,,,199138,,2022-01-29_14h56.41.287,lexical_decision_task_DD_L3,2021.2.3,MacIntel,59.99880002,,,,,,,,,,,1.3403,0,,,,,,,,,,,,,,z,0,1.3403,,,,,,,,0.240690104,-0.170759549,0,0,0,,0,63,63,81,1,POODLE,LB,old,m,./images/POODLELB.png,,,,,,,,,,,,,,,,,,,,,,,
,,,,,,,,,,,,,,,,,199138,,2022-01-29_14h56.41.287,lexical_decision_task_DD_L3,2021.2.3,MacIntel,59.99880002,,,,,,,,,,,1.3632,1,,,,,,,,,,,,,,z,1,1.3632,,,,,,,,0.240690104,-0.170759549,0,0,0,,0,64,64,149,1,VEASE,LB,old,z,./images/VEASELB.png,,,,,,,,,,,,,,,,,,,,,,,
,,,,,,,,,,,,,,,,,199138,,2022-01-29_14h56.41.287,lexical_decision_task_DD_L3,2021.2.3,MacIntel,59.99880002,,,,,,,,,,,0.9495,1,,,,,,,,,,,,,,m,1,0.9495,,,,,,,,0.240690104,-0.170759549,0,0,0,,0,65,65,54,1,TRIPOD,LB,old,m,./images/TRIPODLB.png,,,,,,,,,,,,,,,,,,,,,,,
,,,,,,,,,,,,,,,,,199138,,2022-01-29_14h56.41.287,lexical_decision_task_DD_L3,2021.2.3,MacIntel,59.99880002,,,,,,,,,,,0.8159,1,,,,,,,,,,,,,,z,1,0.8159,,,,,,,,0.240690104,-0.170759549,0,0,0,,0,66,66,101,1,GLEET,LB,old,z,./images/GLEETLB.png,,,,,,,,,,,,,,,,,,,,,,,
,,,,,,,,,,,,,,,,,199138,,2022-01-29_14h56.41.287,lexical_decision_task_DD_L3,2021.2.3,MacIntel,59.99880002,,,,,,,,,,,0.99,1,,,,,,,,,,,,,,m,1,0.99,,,,,,,,0.240690104,-0.170759549,0,0,0,,0,67,67,76,1,INFANT,C,old,m,./images/INFANT.png,,,,,,,,,,,,,,,,,,,,,,,
,,,,,,,,,,,,,,,,,199138,,2022-01-29_14h56.41.287,lexical_decision_task_DD_L3,2021.2.3,MacIntel,59.99880002,,,,,,,,,,,0.5706,1,,,,,,,,,,,,,,m,1,0.5706,,,,,,,,0.240690104,-0.170759549,0,0,0,,0,68,68,67,1,SAILOR,C,old,m,./images/SAILOR.png,,,,,,,,,,,,,,,,,,,,,,,
,,,,,,,,,,,,,,,,,199138,,2022-01-29_14h56.41.287,lexical_decision_task_DD_L3,2021.2.3,MacIntel,59.99880002,,,,,,,,,,,1.6799,1,,,,,,,,,,,,,,m,1,1.6799,,,,,,,,0.240690104,-0.170759549,0,0,0,,0,69,69,27,1,ATTIC,LB,old,m,./images/ATTICLB.png,,,,,,,,,,,,,,,,,,,,,,,
,,,,,,,,,,,,,,,,,199138,,2022-01-29_14h56.41.287,lexical_decision_task_DD_L3,2021.2.3,MacIntel,59.99880002,,,,,,,,,,,0.8333,1,,,,,,,,,,,,,,z,1,0.8333,,,,,,,,0.240690104,-0.170759549,0,0,0,,0,70,70,98,1,BAMPS,LB,old,z,./images/BAMPSLB.png,,,,,,,,,,,,,,,,,,,,,,,
,,,,,,,,,,,,,,,,,199138,,2022-01-29_14h56.41.287,lexical_decision_task_DD_L3,2021.2.3,MacIntel,59.99880002,,,,,,,,,,,0.8409,0,,,,,,,,,,,,,,m,0,0.8409,,,,,,,,0.240690104,-0.170759549,0,0,0,,0,71,71,109,1,BURGE,HB,old,z,./images/BURGEHB.png,,,,,,,,,,,,,,,,,,,,,,,
,,,,,,,,,,,,,,,,,199138,,2022-01-29_14h56.41.287,lexical_decision_task_DD_L3,2021.2.3,MacIntel,59.99880002,,,,,,,,,,,1.3514,0,,,,,,,,,,,,,,m,0,1.3514,,,,,,,,0.240690104,-0.170759549,0,0,0,,0,72,72,158,1,EGECT,LB,old,z,./images/EGECTLB.png,,,,,,,,,,,,,,,,,,,,,,,
,,,,,,,,,,,,,,,,,199138,,2022-01-29_14h56.41.287,lexical_decision_task_DD_L3,2021.2.3,MacIntel,59.99880002,,,,,,,,,,,1.3784,0,,,,,,,,,,,,,,m,0,1.3784,,,,,,,,0.240690104,-0.170759549,0,0,0,,0,73,73,166,1,SHORY,HB,old,z,./images/SHORYHB.png,,,,,,,,,,,,,,,,,,,,,,,
,,,,,,,,,,,,,,,,,199138,,2022-01-29_14h56.41.287,lexical_decision_task_DD_L3,2021.2.3,MacIntel,59.99880002,,,,,,,,,,,0.9364,1,,,,,,,,,,,,,,m,1,0.9364,,,,,,,,0.240690104,-0.170759549,0,0,0,,0,74,74,28,1,FALCON,C,old,m,./images/FALCON.png,,,,,,,,,,,,,,,,,,,,,,,
,,,,,,,,,,,,,,,,,199138,,2022-01-29_14h56.41.287,lexical_decision_task_DD_L3,2021.2.3,MacIntel,59.99880002,,,,,,,,,,,0.9831,1,,,,,,,,,,,,,,z,1,0.9831,,,,,,,,0.240690104,-0.170759549,0,0,0,,0,75,75,113,1,LINEW,LB,old,z,./images/LINEWLB.png,,,,,,,,,,,,,,,,,,,,,,,
,,,,,,,,,,,,,,,,,199138,,2022-01-29_14h56.41.287,lexical_decision_task_DD_L3,2021.2.3,MacIntel,59.99880002,,,,,,,,,,,1.0823,1,,,,,,,,,,,,,,z,1,1.0823,,,,,,,,0.240690104,-0.170759549,0,0,0,,0,76,76,86,1,AIFED,LB,old,z,./images/AIFEDLB.png,,,,,,,,,,,,,,,,,,,,,,,
,,,,,,,,,,,,,,,,,199138,,2022-01-29_14h56.41.287,lexical_decision_task_DD_L3,2021.2.3,MacIntel,59.99880002,,,,,,,,,,,0.729,1,,,,,,,,,,,,,,m,1,0.729,,,,,,,,0.240690104,-0.170759549,0,0,0,,0,77,77,22,1,MELON,C,old,m,./images/MELON.png,,,,,,,,,,,,,,,,,,,,,,,
,,,,,,,,,,,,,,,,,199138,,2022-01-29_14h56.41.287,lexical_decision_task_DD_L3,2021.2.3,MacIntel,59.99880002,,,,,,,,,,,0.6354,1,,,,,,,,,,,,,,m,1,0.6354,,,,,,,,0.240690104,-0.170759549,0,0,0,,0,78,78,69,1,COOKER,LB,old,m,./images/COOKERLB.png,,,,,,,,,,,,,,,,,,,,,,,
,,,,,,,,,,,,,,,,,199138,,2022-01-29_14h56.41.287,lexical_decision_task_DD_L3,2021.2.3,MacIntel,59.99880002,,,,,,,,,,,1.3982,1,,,,,,,,,,,,,,m,1,1.3982,,,,,,,,0.240690104,-0.170759549,0,0,0,,0,79,79,65,1,FARMER,HB,old,m,./images/FARMERHB.png,,,,,,,,,,,,,,,,,,,,,,,
,,,,,,,,,,,,,,,,,199138,,2022-01-29_14h56.41.287,lexical_decision_task_DD_L3,2021.2.3,MacIntel,59.99880002,,,,,,,,,,,0.5635,1,,,,,,,,,,,,,,m,1,0.5635,,,,,,,,0.240690104,-0.170759549,0,0,0,,0,80,80,3,1,FINGER,LB,old,m,./images/FINGERLB.png,,,,,,,,,,,,,,,,,,,,,,,
,,,,,,,,,,,,,,,,,199138,,2022-01-29_14h56.41.287,lexical_decision_task_DD_L3,2021.2.3,MacIntel,59.99880002,,,,,,,,,,,2.3382,0,,,,,,,,,,,,,,z,0,2.3382,,,,,,,,0.240690104,-0.170759549,0,0,0,,0,81,81,17,1,SKIING,HB,old,m,./images/SKIINGHB.png,,,,,,,,,,,,,,,,,,,,,,,
,,,,,,,,,,,,,,,,,199138,,2022-01-29_14h56.41.287,lexical_decision_task_DD_L3,2021.2.3,MacIntel,59.99880002,,,,,,,,,,,0.4853,1,,,,,,,,,,,,,,m,1,0.4853,,,,,,,,0.240690104,-0.170759549,0,0,0,,0,82,82,45,1,KITTEN,LB,old,m,./images/KITTENLB.png,,,,,,,,,,,,,,,,,,,,,,,
,,,,,,,,,,,,,,,,,199138,,2022-01-29_14h56.41.287,lexical_decision_task_DD_L3,2021.2.3,MacIntel,59.99880002,,,,,,,,,,,1.5467,1,,,,,,,,,,,,,,z,1,1.5467,,,,,,,,0.240690104,-0.170759549,0,0,0,space,0,83,83,140,1,DOVET,LB,old,z,./images/DOVETLB.png,10.9875,,,,,,,,,,,,,,,,,,,,,,
,,,,,,,,,,,,,,,,,199138,,2022-01-29_14h56.41.287,lexical_decision_task_DD_L3,2021.2.3,MacIntel,59.99880002,,,,,,,,,,,2.1001,1,,,,,,,,,,,,,,z,1,2.1001,,,,,,,,0.240690104,-0.170759549,0,0,0,,0,84,84,106,1,CLUMS,HB,old,z,./images/CLUMSHB.png,,,,,,,,,,,,,,,,,,,,,,,
,,,,,,,,,,,,,,,,,199138,,2022-01-29_14h56.41.287,lexical_decision_task_DD_L3,2021.2.3,MacIntel,59.99880002,,,,,,,,,,,0.7824,1,,,,,,,,,,,,,,m,1,0.7824,,,,,,,,0.240690104,-0.170759549,0,0,0,,0,85,85,39,1,SHELF,LB,old,m,./images/SHELFLB.png,,,,,,,,,,,,,,,,,,,,,,,
,,,,,,,,,,,,,,,,,199138,,2022-01-29_14h56.41.287,lexical_decision_task_DD_L3,2021.2.3,MacIntel,59.99880002,,,,,,,,,,,0.5651,1,,,,,,,,,,,,,,m,1,0.5651,,,,,,,,0.240690104,-0.170759549,0,0,0,,0,86,86,6,1,SQUARE,LB,old,m,./images/SQUARELB.png,,,,,,,,,,,,,,,,,,,,,,,
,,,,,,,,,,,,,,,,,199138,,2022-01-29_14h56.41.287,lexical_decision_task_DD_L3,2021.2.3,MacIntel,59.99880002,,,,,,,,,,,0.9391,1,,,,,,,,,,,,,,m,1,0.9391,,,,,,,,0.240690104,-0.170759549,0,0,0,,0,87,87,71,1,PIMPLE,HB,old,m,./images/PIMPLEHB.png,,,,,,,,,,,,,,,,,,,,,,,
,,,,,,,,,,,,,,,,,199138,,2022-01-29_14h56.41.287,lexical_decision_task_DD_L3,2021.2.3,MacIntel,59.99880002,,,,,,,,,,,0.7531,1,,,,,,,,,,,,,,z,1,0.7531,,,,,,,,0.240690104,-0.170759549,0,0,0,,0,88,88,90,1,NEAST,C,old,z,./images/NEAST.png,,,,,,,,,,,,,,,,,,,,,,,
,,,,,,,,,,,,,,,,,199138,,2022-01-29_14h56.41.287,lexical_decision_task_DD_L3,2021.2.3,MacIntel,59.99880002,,,,,,,,,,,1.2366,1,,,,,,,,,,,,,,m,1,1.2366,,,,,,,,0.240690104,-0.170759549,0,0,0,,0,89,89,52,1,BANNER,C,old,m,./images/BANNER.png,,,,,,,,,,,,,,,,,,,,,,,
,,,,,,,,,,,,,,,,,199138,,2022-01-29_14h56.41.287,lexical_decision_task_DD_L3,2021.2.3,MacIntel,59.99880002,,,,,,,,,,,1.3693,1,,,,,,,,,,,,,,z,1,1.3693,,,,,,,,0.240690104,-0.170759549,0,0,0,,0,90,90,133,1,POWDY,HB,old,z,./images/POWDYHB.png,,,,,,,,,,,,,,,,,,,,,,,
,,,,,,,,,,,,,,,,,199138,,2022-01-29_14h56.41.287,lexical_decision_task_DD_L3,2021.2.3,MacIntel,59.99880002,,,,,,,,,,,1.0461,1,,,,,,,,,,,,,,m,1,1.0461,,,,,,,,0.240690104,-0.170759549,0,0,0,,0,91,91,2,1,BEARD,HB,old,m,./images/BEARDHB.png,,,,,,,,,,,,,,,,,,,,,,,
,,,,,,,,,,,,,,,,,199138,,2022-01-29_14h56.41.287,lexical_decision_task_DD_L3,2021.2.3,MacIntel,59.99880002,,,,,,,,,,,0.9157,1,,,,,,,,,,,,,,z,1,0.9157,,,,,,,,0.240690104,-0.170759549,0,0,0,,0,92,92,116,1,BALGY,LB,old,z,./images/BALGYLB.png,,,,,,,,,,,,,,,,,,,,,,,
,,,,,,,,,,,,,,,,,199138,,2022-01-29_14h56.41.287,lexical_decision_task_DD_L3,2021.2.3,MacIntel,59.99880002,,,,,,,,,,,0.6938,1,,,,,,,,,,,,,,m,1,0.6938,,,,,,,,0.240690104,-0.170759549,0,0,0,,0,93,93,1,1,PLANK,C,old,m,./images/PLANK.png,,,,,,,,,,,,,,,,,,,,,,,
,,,,,,,,,,,,,,,,,199138,,2022-01-29_14h56.41.287,lexical_decision_task_DD_L3,2021.2.3,MacIntel,59.99880002,,,,,,,,,,,0.6535,1,,,,,,,,,,,,,,m,1,0.6535,,,,,,,,0.240690104,-0.170759549,0,0,0,,0,94,94,19,1,DOUGH,C,old,m,./images/DOUGH.png,,,,,,,,,,,,,,,,,,,,,,,
,,,,,,,,,,,,,,,,,199138,,2022-01-29_14h56.41.287,lexical_decision_task_DD_L3,2021.2.3,MacIntel,59.99880002,,,,,,,,,,,0.8491,1,,,,,,,,,,,,,,m,1,0.8491,,,,,,,,0.240690104,-0.170759549,0,0,0,,0,95,95,35,1,PEACH,HB,old,m,./images/PEACHHB.png,,,,,,,,,,,,,,,,,,,,,,,
,,,,,,,,,,,,,,,,,199138,,2022-01-29_14h56.41.287,lexical_decision_task_DD_L3,2021.2.3,MacIntel,59.99880002,,,,,,,,,,,2.2009,1,,,,,,,,,,,,,,z,1,2.2009,,,,,,,,0.240690104,-0.170759549,0,0,0,,0,96,96,121,1,CEERS,HB,old,z,./images/CEERSHB.png,,,,,,,,,,,,,,,,,,,,,,,
,,,,,,,,,,,,,,,,,199138,,2022-01-29_14h56.41.287,lexical_decision_task_DD_L3,2021.2.3,MacIntel,59.99880002,,,,,,,,,,,1.3361,1,,,,,,,,,,,,,,z,1,1.3361,,,,,,,,0.240690104,-0.170759549,0,0,0,,0,97,97,104,1,GITTY,LB,old,z,./images/GITTYLB.png,,,,,,,,,,,,,,,,,,,,,,,
,,,,,,,,,,,,,,,,,199138,,2022-01-29_14h56.41.287,lexical_decision_task_DD_L3,2021.2.3,MacIntel,59.99880002,,,,,,,,,,,1.6169,1,,,,,,,,,,,,,,z,1,1.6169,,,,,,,,0.240690104,-0.170759549,0,0,0,,0,98,98,85,1,CHULK,HB,old,z,./images/CHULKHB.png,,,,,,,,,,,,,,,,,,,,,,,
,,,,,,,,,,,,,,,,,199138,,2022-01-29_14h56.41.287,lexical_decision_task_DD_L3,2021.2.3,MacIntel,59.99880002,,,,,,,,,,,1.9321,1,,,,,,,,,,,,,,z,1,1.9321,,,,,,,,0.240690104,-0.170759549,0,0,0,,0,99,99,163,1,GAMBA,HB,old,z,./images/GAMBAHB.png,,,,,,,,,,,,,,,,,,,,,,,
,,,,,,,,,,,,,,,,,199138,,2022-01-29_14h56.41.287,lexical_decision_task_DD_L3,2021.2.3,MacIntel,59.99880002,,,,,,,,,,,1.0042,1,,,,,,,,,,,,,,m,1,1.0042,,,,,,,,0.240690104,-0.170759549,0,0,0,,0,100,100,58,1,BABOON,C,old,m,./images/BABOON.png,,,,,,,,,,,,,,,,,,,,,,,
,,,,,,,,,,,,,,,,,199138,,2022-01-29_14h56.41.287,lexical_decision_task_DD_L3,2021.2.3,MacIntel,59.99880002,,,,,,,,,,,0.6152,1,,,,,,,,,,,,,,m,1,0.6152,,,,,,,,0.240690104,-0.170759549,0,0,0,,0,101,101,42,1,FOLDER,LB,old,m,./images/FOLDERLB.png,,,,,,,,,,,,,,,,,,,,,,,
,,,,,,,,,,,,,,,,,199138,,2022-01-29_14h56.41.287,lexical_decision_task_DD_L3,2021.2.3,MacIntel,59.99880002,,,,,,,,,,,0.7855,1,,,,,,,,,,,,,,z,1,0.7855,,,,,,,,0.240690104,-0.170759549,0,0,0,,0,102,102,137,1,JOOST,LB,old,z,./images/JOOSTLB.png,,,,,,,,,,,,,,,,,,,,,,,
,,,,,,,,,,,,,,,,,199138,,2022-01-29_14h56.41.287,lexical_decision_task_DD_L3,2021.2.3,MacIntel,59.99880002,,,,,,,,,,,1.5327,1,,,,,,,,,,,,,,z,1,1.5327,,,,,,,,0.240690104,-0.170759549,0,0,0,,0,103,103,94,1,BLANS,HB,old,z,./images/BLANSHB.png,,,,,,,,,,,,,,,,,,,,,,,
,,,,,,,,,,,,,,,,,199138,,2022-01-29_14h56.41.287,lexical_decision_task_DD_L3,2021.2.3,MacIntel,59.99880002,,,,,,,,,,,0.545,1,,,,,,,,,,,,,,m,1,0.545,,,,,,,,0.240690104,-0.170759549,0,0,0,,0,104,104,73,1,SNACK,C,old,m,./images/SNACK.png,,,,,,,,,,,,,,,,,,,,,,,
,,,,,,,,,,,,,,,,,199138,,2022-01-29_14h56.41.287,lexical_decision_task_DD_L3,2021.2.3,MacIntel,59.99880002,,,,,,,,,,,1.6841,1,,,,,,,,,,,,,,z,1,1.6841,,,,,,,,0.240690104,-0.170759549,0,0,0,,0,105,105,156,1,HIXES,C,old,z,./images/HIXES.png,,,,,,,,,,,,,,,,,,,,,,,
,,,,,,,,,,,,,,,,,199138,,2022-01-29_14h56.41.287,lexical_decision_task_DD_L3,2021.2.3,MacIntel,59.99880002,,,,,,,,,,,1.0312,1,,,,,,,,,,,,,,z,1,1.0312,,,,,,,,0.240690104,-0.170759549,0,0,0,,0,106,106,96,1,KEAMS,C,old,z,./images/KEAMS.png,,,,,,,,,,,,,,,,,,,,,,,
,,,,,,,,,,,,,,,,,199138,,2022-01-29_14h56.41.287,lexical_decision_task_DD_L3,2021.2.3,MacIntel,59.99880002,,,,,,,,,,,0.9828,1,,,,,,,,,,,,,,z,1,0.9828,,,,,,,,0.240690104,-0.170759549,0,0,0,,0,107,107,161,1,BLAPS,LB,old,z,./images/BLAPSLB.png,,,,,,,,,,,,,,,,,,,,,,,
,,,,,,,,,,,,,,,,,199138,,2022-01-29_14h56.41.287,lexical_decision_task_DD_L3,2021.2.3,MacIntel,59.99880002,,,,,,,,,,,0.5541,1,,,,,,,,,,,,,,z,1,0.5541,,,,,,,,0.240690104,-0.170759549,0,0,0,,0,108,108,129,1,PRANS,C,old,z,./images/PRANS.png,,,,,,,,,,,,,,,,,,,,,,,
,,,,,,,,,,,,,,,,,199138,,2022-01-29_14h56.41.287,lexical_decision_task_DD_L3,2021.2.3,MacIntel,59.99880002,,,,,,,,,,,1.0161,1,,,,,,,,,,,,,,z,1,1.0161,,,,,,,,0.240690104,-0.170759549,0,0,0,,0,109,109,152,1,FRAIN,LB,old,z,./images/FRAINLB.png,,,,,,,,,,,,,,,,,,,,,,,
,,,,,,,,,,,,,,,,,199138,,2022-01-29_14h56.41.287,lexical_decision_task_DD_L3,2021.2.3,MacIntel,59.99880002,,,,,,,,,,,0.7538,1,,,,,,,,,,,,,,m,1,0.7538,,,,,,,,0.240690104,-0.170759549,0,0,0,,0,110,110,46,1,PEARL,C,old,m,./images/PEARL.png,,,,,,,,,,,,,,,,,,,,,,,
,,,,,,,,,,,,,,,,,199138,,2022-01-29_14h56.41.287,lexical_decision_task_DD_L3,2021.2.3,MacIntel,59.99880002,,,,,,,,,,,1.5224,1,,,,,,,,,,,,,,z,1,1.5224,,,,,,,,0.240690104,-0.170759549,0,0,0,,0,111,111,148,1,JOMS,HB,old,z,./images/JOMSHB.png,,,,,,,,,,,,,,,,,,,,,,,
,,,,,,,,,,,,,,,,,199138,,2022-01-29_14h56.41.287,lexical_decision_task_DD_L3,2021.2.3,MacIntel,59.99880002,,,,,,,,,,,0.5318,1,,,,,,,,,,,,,,m,1,0.5318,,,,,,,,0.240690104,-0.170759549,0,0,0,,0,112,112,48,1,SPORT,LB,old,m,./images/SPORTLB.png,,,,,,,,,,,,,,,,,,,,,,,
,,,,,,,,,,,,,,,,,199138,,2022-01-29_14h56.41.287,lexical_decision_task_DD_L3,2021.2.3,MacIntel,59.99880002,,,,,,,,,,,0.9938,1,,,,,,,,,,,,,,m,1,0.9938,,,,,,,,0.240690104,-0.170759549,0,0,0,,0,113,113,31,1,QUILL,C,old,m,./images/QUILL.png,,,,,,,,,,,,,,,,,,,,,,,
,,,,,,,,,,,,,,,,,199138,,2022-01-29_14h56.41.287,lexical_decision_task_DD_L3,2021.2.3,MacIntel,59.99880002,,,,,,,,,,,0.9831,1,,,,,,,,,,,,,,z,1,0.9831,,,,,,,,0.240690104,-0.170759549,0,0,0,,0,114,114,124,1,TUNCH,HB,old,z,./images/TUNCHHB.png,,,,,,,,,,,,,,,,,,,,,,,
,,,,,,,,,,,,,,,,,199138,,2022-01-29_14h56.41.287,lexical_decision_task_DD_L3,2021.2.3,MacIntel,59.99880002,,,,,,,,,,,1.4295,0,,,,,,,,,,,,,,z,0,1.4295,,,,,,,,0.240690104,-0.170759549,0,0,0,,0,115,115,47,1,BERRY,HB,old,m,./images/BERRYHB.png,,,,,,,,,,,,,,,,,,,,,,,
,,,,,,,,,,,,,,,,,199138,,2022-01-29_14h56.41.287,lexical_decision_task_DD_L3,2021.2.3,MacIntel,59.99880002,,,,,,,,,,,1.0063,0,,,,,,,,,,,,,,m,0,1.0063,,,,,,,,0.240690104,-0.170759549,0,0,0,,0,116,116,162,1,LEICH,C,old,z,./images/LEICH.png,,,,,,,,,,,,,,,,,,,,,,,
,,,,,,,,,,,,,,,,,199138,,2022-01-29_14h56.41.287,lexical_decision_task_DD_L3,2021.2.3,MacIntel,59.99880002,,,,,,,,,,,1.6228,1,,,,,,,,,,,,,,z,1,1.6228,,,,,,,,0.240690104,-0.170759549,0,0,0,,0,117,117,144,1,NAIRY,C,old,z,./images/NAIRY.png,,,,,,,,,,,,,,,,,,,,,,,
,,,,,,,,,,,,,,,,,199138,,2022-01-29_14h56.41.287,lexical_decision_task_DD_L3,2021.2.3,MacIntel,59.99880002,,,,,,,,,,,1.4296,1,,,,,,,,,,,,,,z,1,1.4296,,,,,,,,0.240690104,-0.170759549,0,0,0,,0,118,118,97,1,CHIDS,HB,old,z,./images/CHIDSHB.png,,,,,,,,,,,,,,,,,,,,,,,
,,,,,,,,,,,,,,,,,199138,,2022-01-29_14h56.41.287,lexical_decision_task_DD_L3,2021.2.3,MacIntel,59.99880002,,,,,,,,,,,0.7169,1,,,,,,,,,,,,,,m,1,0.7169,,,,,,,,0.240690104,-0.170759549,0,0,0,,0,119,119,83,1,JUNGLE,HB,old,m,./images/JUNGLEHB.png,,,,,,,,,,,,,,,,,,,,,,,
,,,,,,,,,,,,,,,,,199138,,2022-01-29_14h56.41.287,lexical_decision_task_DD_L3,2021.2.3,MacIntel,59.99880002,,,,,,,,,,,0.9497,1,,,,,,,,,,,,,,z,1,0.9497,,,,,,,,0.240690104,-0.170759549,0,0,0,,0,120,120,119,1,PAFER,LB,old,z,./images/PAFERLB.png,,,,,,,,,,,,,,,,,,,,,,,
,,,,,,,,,,,,,,,,,199138,,2022-01-29_14h56.41.287,lexical_decision_task_DD_L3,2021.2.3,MacIntel,59.99880002,,,,,,,,,,,0.5408,1,,,,,,,,,,,,,,m,1,0.5408,,,,,,,,0.240690104,-0.170759549,0,0,0,,0,121,121,0,1,TOMATO,LB,old,m,./images/TOMATOLB.png,,,,,,,,,,,,,,,,,,,,,,,
,,,,,,,,,,,,,,,,,199138,,2022-01-29_14h56.41.287,lexical_decision_task_DD_L3,2021.2.3,MacIntel,59.99880002,,,,,,,,,,,5.1002,1,,,,,,,,,,,,,,z,1,5.1002,,,,,,,,0.240690104,-0.170759549,0,0,0,,0,122,122,127,1,NINDY,HB,old,z,./images/NINDYHB.png,,,,,,,,,,,,,,,,,,,,,,,
,,,,,,,,,,,,,,,,,199138,,2022-01-29_14h56.41.287,lexical_decision_task_DD_L3,2021.2.3,MacIntel,59.99880002,,,,,,,,,,,1.2404,1,,,,,,,,,,,,,,z,1,1.2404,,,,,,,,0.240690104,-0.170759549,0,0,0,,0,123,123,105,1,MOKER,C,old,z,./images/MOKER.png,,,,,,,,,,,,,,,,,,,,,,,
,,,,,,,,,,,,,,,,,199138,,2022-01-29_14h56.41.287,lexical_decision_task_DD_L3,2021.2.3,MacIntel,59.99880002,,,,,,,,,,,2.1151,1,,,,,,,,,,,,,,z,1,2.1151,,,,,,,,0.240690104,-0.170759549,0,0,0,,0,124,124,145,1,LAMEL,HB,old,z,./images/LAMELHB.png,,,,,,,,,,,,,,,,,,,,,,,
,,,,,,,,,,,,,,,,,199138,,2022-01-29_14h56.41.287,lexical_decision_task_DD_L3,2021.2.3,MacIntel,59.99880002,,,,,,,,,,,1.1503,1,,,,,,,,,,,,,,z,1,1.1503,,,,,,,,0.240690104,-0.170759549,0,0,0,space,0,125,125,164,1,SGREW,LB,old,z,./images/SGREWLB.png,24.848,,,,,,,,,,,,,,,,,,,,,,
,,,,,,,,,,,,,,,,,199138,,2022-01-29_14h56.41.287,lexical_decision_task_DD_L3,2021.2.3,MacIntel,59.99880002,,,,,,,,,,,1.3306,1,,,,,,,,,,,,,,m,1,1.3306,,,,,,,,0.240690104,-0.170759549,0,0,0,,0,126,126,77,1,COUCH,HB,old,m,./images/COUCHHB.png,,,,,,,,,,,,,,,,,,,,,,,
,,,,,,,,,,,,,,,,,199138,,2022-01-29_14h56.41.287,lexical_decision_task_DD_L3,2021.2.3,MacIntel,59.99880002,,,,,,,,,,,1.1869,1,,,,,,,,,,,,,,z,1,1.1869,,,,,,,,0.240690104,-0.170759549,0,0,0,,0,127,127,102,1,DULLE,C,old,z,./images/DULLE.png,,,,,,,,,,,,,,,,,,,,,,,
,,,,,,,,,,,,,,,,,199138,,2022-01-29_14h56.41.287,lexical_decision_task_DD_L3,2021.2.3,MacIntel,59.99880002,,,,,,,,,,,1.4555,0,,,,,,,,,,,,,,z,0,1.4555,,,,,,,,0.240690104,-0.170759549,0,0,0,,0,128,128,56,1,PACKET,HB,old,m,./images/PACKETHB.png,,,,,,,,,,,,,,,,,,,,,,,
,,,,,,,,,,,,,,,,,199138,,2022-01-29_14h56.41.287,lexical_decision_task_DD_L3,2021.2.3,MacIntel,59.99880002,,,,,,,,,,,0.6677,1,,,,,,,,,,,,,,m,1,0.6677,,,,,,,,0.240690104,-0.170759549,0,0,0,,0,129,129,33,1,MAGGOT,LB,old,m,./images/MAGGOTLB.png,,,,,,,,,,,,,,,,,,,,,,,
,,,,,,,,,,,,,,,,,199138,,2022-01-29_14h56.41.287,lexical_decision_task_DD_L3,2021.2.3,MacIntel,59.99880002,,,,,,,,,,,0.4979,1,,,,,,,,,,,,,,m,1,0.4979,,,,,,,,0.240690104,-0.170759549,0,0,0,,0,130,130,61,1,CANDLE,C,old,m,./images/CANDLE.png,,,,,,,,,,,,,,,,,,,,,,,
,,,,,,,,,,,,,,,,,199138,,2022-01-29_14h56.41.287,lexical_decision_task_DD_L3,2021.2.3,MacIntel,59.99880002,,,,,,,,,,,0.8601,1,,,,,,,,,,,,,,z,1,0.8601,,,,,,,,0.240690104,-0.170759549,0,0,0,,0,131,131,87,1,TRING,C,old,z,./images/TRING.png,,,,,,,,,,,,,,,,,,,,,,,
,,,,,,,,,,,,,,,,,199138,,2022-01-29_14h56.41.287,lexical_decision_task_DD_L3,2021.2.3,MacIntel,59.99880002,,,,,,,,,,,0.7509,1,,,,,,,,,,,,,,z,1,0.7509,,,,,,,,0.240690104,-0.170759549,0,0,0,,0,132,132,128,1,GRIFT,LB,old,z,./images/GRIFTLB.png,,,,,,,,,,,,,,,,,,,,,,,
,,,,,,,,,,,,,,,,,199138,,2022-01-29_14h56.41.287,lexical_decision_task_DD_L3,2021.2.3,MacIntel,59.99880002,,,,,,,,,,,0.4535,1,,,,,,,,,,,,,,m,1,0.4535,,,,,,,,0.240690104,-0.170759549,0,0,0,,0,133,133,49,1,DRUMS,C,old,m,./images/DRUMS.png,,,,,,,,,,,,,,,,,,,,,,,
,,,,,,,,,,,,,,,,,199138,,2022-01-29_14h56.41.287,lexical_decision_task_DD_L3,2021.2.3,MacIntel,59.99880002,,,,,,,,,,,0.7768,0,,,,,,,,,,,,,,m,0,0.7768,,,,,,,,0.240690104,-0.170759549,0,0,0,,0,134,134,108,1,GRUET,C,old,z,./images/GRUET.png,,,,,,,,,,,,,,,,,,,,,,,
,,,,,,,,,,,,,,,,,199138,,2022-01-29_14h56.41.287,lexical_decision_task_DD_L3,2021.2.3,MacIntel,59.99880002,,,,,,,,,,,1.167,1,,,,,,,,,,,,,,m,1,1.167,,,,,,,,0.240690104,-0.170759549,0,0,0,,0,135,135,68,1,TORCH,HB,old,m,./images/TORCHHB.png,,,,,,,,,,,,,,,,,,,,,,,
,,,,,,,,,,,,,,,,,199138,,2022-01-29_14h56.41.287,lexical_decision_task_DD_L3,2021.2.3,MacIntel,59.99880002,,,,,,,,,,,0.7993,1,,,,,,,,,,,,,,z,1,0.7993,,,,,,,,0.240690104,-0.170759549,0,0,0,,0,136,136,89,1,DRIEK,LB,old,z,./images/DRIEKLB.png,,,,,,,,,,,,,,,,,,,,,,,
,,,,,,,,,,,,,,,,,199138,,2022-01-29_14h56.41.287,lexical_decision_task_DD_L3,2021.2.3,MacIntel,59.99880002,,,,,,,,,,,1.0228,1,,,,,,,,,,,,,,z,1,1.0228,,,,,,,,0.240690104,-0.170759549,0,0,0,,0,137,137,123,1,SEDGE,C,old,z,./images/SEDGE.png,,,,,,,,,,,,,,,,,,,,,,,
,,,,,,,,,,,,,,,,,199138,,2022-01-29_14h56.41.287,lexical_decision_task_DD_L3,2021.2.3,MacIntel,59.99880002,,,,,,,,,,,0.8623,1,,,,,,,,,,,,,,z,1,0.8623,,,,,,,,0.240690104,-0.170759549,0,0,0,,0,138,138,115,1,MAWNS,HB,old,z,./images/MAWNSHB.png,,,,,,,,,,,,,,,,,,,,,,,
,,,,,,,,,,,,,,,,,199138,,2022-01-29_14h56.41.287,lexical_decision_task_DD_L3,2021.2.3,MacIntel,59.99880002,,,,,,,,,,,0.5231,1,,,,,,,,,,,,,,m,1,0.5231,,,,,,,,0.240690104,-0.170759549,0,0,0,,0,139,139,64,1,JELLY,C,old,m,./images/JELLY.png,,,,,,,,,,,,,,,,,,,,,,,
,,,,,,,,,,,,,,,,,199138,,2022-01-29_14h56.41.287,lexical_decision_task_DD_L3,2021.2.3,MacIntel,59.99880002,,,,,,,,,,,0.8906,1,,,,,,,,,,,,,,z,1,0.8906,,,,,,,,0.240690104,-0.170759549,0,0,0,,0,140,140,135,1,JOODY,C,old,z,./images/JOODY.png,,,,,,,,,,,,,,,,,,,,,,,
,,,,,,,,,,,,,,,,,199138,,2022-01-29_14h56.41.287,lexical_decision_task_DD_L3,2021.2.3,MacIntel,59.99880002,,,,,,,,,,,0.5654,1,,,,,,,,,,,,,,m,1,0.5654,,,,,,,,0.240690104,-0.170759549,0,0,0,,0,141,141,66,1,SWEAT,LB,old,m,./images/SWEATLB.png,,,,,,,,,,,,,,,,,,,,,,,
,,,,,,,,,,,,,,,,,199138,,2022-01-29_14h56.41.287,lexical_decision_task_DD_L3,2021.2.3,MacIntel,59.99880002,,,,,,,,,,,1.9459,1,,,,,,,,,,,,,,m,1,1.9459,,,,,,,,0.240690104,-0.170759549,0,0,0,,0,142,142,7,1,PAINT,C,old,m,./images/PAINT.png,,,,,,,,,,,,,,,,,,,,,,,
,,,,,,,,,,,,,,,,,199138,,2022-01-29_14h56.41.287,lexical_decision_task_DD_L3,2021.2.3,MacIntel,59.99880002,,,,,,,,,,,1.0359,1,,,,,,,,,,,,,,z,1,1.0359,,,,,,,,0.240690104,-0.170759549,0,0,0,,0,143,143,157,1,INLER,HB,old,z,./images/INLERHB.png,,,,,,,,,,,,,,,,,,,,,,,
,,,,,,,,,,,,,,,,,199138,,2022-01-29_14h56.41.287,lexical_decision_task_DD_L3,2021.2.3,MacIntel,59.99880002,,,,,,,,,,,1.6557,1,,,,,,,,,,,,,,m,1,1.6557,,,,,,,,0.240690104,-0.170759549,0,0,0,,0,144,144,20,1,CRADLE,HB,old,m,./images/CRADLEHB.png,,,,,,,,,,,,,,,,,,,,,,,
,,,,,,,,,,,,,,,,,199138,,2022-01-29_14h56.41.287,lexical_decision_task_DD_L3,2021.2.3,MacIntel,59.99880002,,,,,,,,,,,0.637,0,,,,,,,,,,,,,,m,0,0.637,,,,,,,,0.240690104,-0.170759549,0,0,0,,0,145,145,165,1,TROWN,C,old,z,./images/TROWN.png,,,,,,,,,,,,,,,,,,,,,,,
,,,,,,,,,,,,,,,,,199138,,2022-01-29_14h56.41.287,lexical_decision_task_DD_L3,2021.2.3,MacIntel,59.99880002,,,,,,,,,,,1.4409,1,,,,,,,,,,,,,,z,1,1.4409,,,,,,,,0.240690104,-0.170759549,0,0,0,,0,146,146,132,1,SCIFF,C,old,z,./images/SCIFF.png,,,,,,,,,,,,,,,,,,,,,,,
,,,,,,,,,,,,,,,,,199138,,2022-01-29_14h56.41.287,lexical_decision_task_DD_L3,2021.2.3,MacIntel,59.99880002,,,,,,,,,,,1.5389,0,,,,,,,,,,,,,,m,0,1.5389,,,,,,,,0.240690104,-0.170759549,0,0,0,,0,147,147,110,1,CRUNK,LB,old,z,./images/CRUNKLB.png,,,,,,,,,,,,,,,,,,,,,,,
,,,,,,,,,,,,,,,,,199138,,2022-01-29_14h56.41.287,lexical_decision_task_DD_L3,2021.2.3,MacIntel,59.99880002,,,,,,,,,,,0.7854,1,,,,,,,,,,,,,,m,1,0.7854,,,,,,,,0.240690104,-0.170759549,0,0,0,,0,148,148,78,1,LITTER,LB,old,m,./images/LITTERLB.png,,,,,,,,,,,,,,,,,,,,,,,
,,,,,,,,,,,,,,,,,199138,,2022-01-29_14h56.41.287,lexical_decision_task_DD_L3,2021.2.3,MacIntel,59.99880002,,,,,,,,,,,0.7475,1,,,,,,,,,,,,,,m,1,0.7475,,,,,,,,0.240690104,-0.170759549,0,0,0,,0,149,149,14,1,PICKLE,HB,old,m,./images/PICKLEHB.png,,,,,,,,,,,,,,,,,,,,,,,
,,,,,,,,,,,,,,,,,199138,,2022-01-29_14h56.41.287,lexical_decision_task_DD_L3,2021.2.3,MacIntel,59.99880002,,,,,,,,,,,0.7148,1,,,,,,,,,,,,,,m,1,0.7148,,,,,,,,0.240690104,-0.170759549,0,0,0,,0,150,150,38,1,LADDER,HB,old,m,./images/LADDERHB.png,,,,,,,,,,,,,,,,,,,,,,,
,,,,,,,,,,,,,,,,,199138,,2022-01-29_14h56.41.287,lexical_decision_task_DD_L3,2021.2.3,MacIntel,59.99880002,,,,,,,,,,,0.5854,1,,,,,,,,,,,,,,m,1,0.5854,,,,,,,,0.240690104,-0.170759549,0,0,0,,0,151,151,12,1,SHORE,LB,old,m,./images/SHORELB.png,,,,,,,,,,,,,,,,,,,,,,,
,,,,,,,,,,,,,,,,,199138,,2022-01-29_14h56.41.287,lexical_decision_task_DD_L3,2021.2.3,MacIntel,59.99880002,,,,,,,,,,,0.9848,1,,,,,,,,,,,,,,z,1,0.9848,,,,,,,,0.240690104,-0.170759549,0,0,0,,0,152,152,88,1,GLUSH,HB,old,z,./images/GLUSHHB.png,,,,,,,,,,,,,,,,,,,,,,,
,,,,,,,,,,,,,,,,,199138,,2022-01-29_14h56.41.287,lexical_decision_task_DD_L3,2021.2.3,MacIntel,59.99880002,,,,,,,,,,,0.6007,1,,,,,,,,,,,,,,m,1,0.6007,,,,,,,,0.240690104,-0.170759549,0,0,0,,0,153,153,21,1,KIDNEY,LB,old,m,./images/KIDNEYLB.png,,,,,,,,,,,,,,,,,,,,,,,
,,,,,,,,,,,,,,,,,199138,,2022-01-29_14h56.41.287,lexical_decision_task_DD_L3,2021.2.3,MacIntel,59.99880002,,,,,,,,,,,1.1986,1,,,,,,,,,,,,,,m,1,1.1986,,,,,,,,0.240690104,-0.170759549,0,0,0,,0,154,154,82,1,SUNSET,C,old,m,./images/SUNSET.png,,,,,,,,,,,,,,,,,,,,,,,
,,,,,,,,,,,,,,,,,199138,,2022-01-29_14h56.41.287,lexical_decision_task_DD_L3,2021.2.3,MacIntel,59.99880002,,,,,,,,,,,0.8082,1,,,,,,,,,,,,,,z,1,0.8082,,,,,,,,0.240690104,-0.170759549,0,0,0,,0,155,155,84,1,HAXES,C,old,z,./images/HAXES.png,,,,,,,,,,,,,,,,,,,,,,,
,,,,,,,,,,,,,,,,,199138,,2022-01-29_14h56.41.287,lexical_decision_task_DD_L3,2021.2.3,MacIntel,59.99880002,,,,,,,,,,,1.3237,1,,,,,,,,,,,,,,z,1,1.3237,,,,,,,,0.240690104,-0.170759549,0,0,0,,0,156,156,131,1,NACES,LB,old,z,./images/NACESLB.png,,,,,,,,,,,,,,,,,,,,,,,
,,,,,,,,,,,,,,,,,199138,,2022-01-29_14h56.41.287,lexical_decision_task_DD_L3,2021.2.3,MacIntel,59.99880002,,,,,,,,,,,1.0723,1,,,,,,,,,,,,,,m,1,1.0723,,,,,,,,0.240690104,-0.170759549,0,0,0,,0,157,157,29,1,CRUMB,HB,old,m,./images/CRUMBHB.png,,,,,,,,,,,,,,,,,,,,,,,
,,,,,,,,,,,,,,,,,199138,,2022-01-29_14h56.41.287,lexical_decision_task_DD_L3,2021.2.3,MacIntel,59.99880002,,,,,,,,,,,1.1479,1,,,,,,,,,,,,,,m,1,1.1479,,,,,,,,0.240690104,-0.170759549,0,0,0,,0,158,158,60,1,TWINS,LB,old,m,./images/TWINSLB.png,,,,,,,,,,,,,,,,,,,,,,,
,,,,,,,,,,,,,,,,,199138,,2022-01-29_14h56.41.287,lexical_decision_task_DD_L3,2021.2.3,MacIntel,59.99880002,,,,,,,,,,,0.7657,0,,,,,,,,,,,,,,m,0,0.7657,,,,,,,,0.240690104,-0.170759549,0,0,0,,0,159,159,142,1,PLASK,HB,old,z,./images/PLASKHB.png,,,,,,,,,,,,,,,,,,,,,,,
,,,,,,,,,,,,,,,,,199138,,2022-01-29_14h56.41.287,lexical_decision_task_DD_L3,2021.2.3,MacIntel,59.99880002,,,,,,,,,,,0.7155,1,,,,,,,,,,,,,,z,1,0.7155,,,,,,,,0.240690104,-0.170759549,0,0,0,,0,160,160,141,1,PLEET,C,old,z,./images/PLEET.png,,,,,,,,,,,,,,,,,,,,,,,
,,,,,,,,,,,,,,,,,199138,,2022-01-29_14h56.41.287,lexical_decision_task_DD_L3,2021.2.3,MacIntel,59.99880002,,,,,,,,,,,1.4792,1,,,,,,,,,,,,,,m,1,1.4792,,,,,,,,0.240690104,-0.170759549,0,0,0,,0,161,161,50,1,MALLET,HB,old,m,./images/MALLETHB.png,,,,,,,,,,,,,,,,,,,,,,,
,,,,,,,,,,,,,,,,,199138,,2022-01-29_14h56.41.287,lexical_decision_task_DD_L3,2021.2.3,MacIntel,59.99880002,,,,,,,,,,,0.6549,1,,,,,,,,,,,,,,m,1,0.6549,,,,,,,,0.240690104,-0.170759549,0,0,0,,0,162,162,34,1,CANYON,C,old,m,./images/CANYON.png,,,,,,,,,,,,,,,,,,,,,,,
,,,,,,,,,,,,,,,,,199138,,2022-01-29_14h56.41.287,lexical_decision_task_DD_L3,2021.2.3,MacIntel,59.99880002,,,,,,,,,,,0.9152,1,,,,,,,,,,,,,,z,1,0.9152,,,,,,,,0.240690104,-0.170759549,0,0,0,,0,163,163,160,1,VEETS,HB,old,z,./images/VEETSHB.png,,,,,,,,,,,,,,,,,,,,,,,
,,,,,,,,,,,,,,,,,199138,,2022-01-29_14h56.41.287,lexical_decision_task_DD_L3,2021.2.3,MacIntel,59.99880002,,,,,,,,,,,0.9542,1,,,,,,,,,,,,,,z,1,0.9542,,,,,,,,0.240690104,-0.170759549,0,0,0,,0,164,164,99,1,BACKY,C,old,z,./images/BACKY.png,,,,,,,,,,,,,,,,,,,,,,,
,,,,,,,,,,,,,,,,,199138,,2022-01-29_14h56.41.287,lexical_decision_task_DD_L3,2021.2.3,MacIntel,59.99880002,,,,,,,,,,,1.5136,1,,,,,,,,,,,,,,m,1,1.5136,,,,,,,,0.240690104,-0.170759549,0,0,0,,0,165,165,41,1,STRING,HB,old,m,./images/STRINGHB.png,,,,,,,,,,,,,,,,,,,,,,,
,,,,,,,,,,,,,,,,,199138,,2022-01-29_14h56.41.287,lexical_decision_task_DD_L3,2021.2.3,MacIntel,59.99880002,,,,,,,,,,,0.7567,1,,,,,,,,,,,,,,z,1,0.7567,,,,,,,,0.240690104,-0.170759549,0,0,0,,0,166,166,117,1,STEEG,C,old,z,./images/STEEG.png,,,,,,,,,,,,,,,,,,,,,,,
,,,,,,,,,,,,,,,,,199138,,2022-01-29_14h56.41.287,lexical_decision_task_DD_L3,2021.2.3,MacIntel,59.99880002,,,,,,,,,,,3.5235,0,,,,,,,,,,,,,,z,0,3.5235,,,,,,,,0.240690104,-0.170759549,0,0,0,,0,167,167,16,1,PENCE,C,old,m,./images/PENCE.png,,,,,,,,,,,,,,,,,,,,,,,
space,44.0012,0.240690104,-0.170759549,0,0,0,,,,,,1,test,"In the next phase you will be presented with the words from the the first phase. Your job is to decide whether you remember seeing the word or not. If you remember seeing the word press ""old"" or type ""m"". If you do not remember seeing the word press ""new"" or type ""z"". Please press the space bar or click on continue to begin. ",,,199138,,2022-01-29_14h56.41.287,lexical_decision_task_DD_L3,2021.2.3,MacIntel,59.99880002,,,,,,,,,,,,,,,,,,,,,,,,,,,,,,,,,,,,,,,,,,,,,,,,,,,,,0,0,0,0,1,,,,,,,,,,,,,,,,,
space,0.9986,0.240690104,-0.170759549,0,0,0,,,,,,1,test,"In the next phase you will be presented with the words from the the first phase. Your job is to decide whether you remember seeing the word or not. If you remember seeing the word press ""old"" or type ""m"". If you do not remember seeing the word press ""new"" or type ""z"". Please press the space bar or click on continue to begin. ",,,199138,,2022-01-29_14h56.41.287,lexical_decision_task_DD_L3,2021.2.3,MacIntel,59.99880002,,,,,,,,,,,,,,,,,,,,,,,,,,,,,,,,,,,,,,,,,,,,,,,,,,,,,1,0,1,0,1,,,,,,,,,,,,,,,,,
,,0.074830729,-0.379618056,1,0,0,,,,,,1,test,"In the next phase you will be presented with the words from the the first phase. Your job is to decide whether you remember seeing the word or not. If you remember seeing the word press ""old"" or type ""m"". If you do not remember seeing the word press ""new"" or type ""z"". Please press the space bar or click on continue to begin. ",,,199138,,2022-01-29_14h56.41.287,lexical_decision_task_DD_L3,2021.2.3,MacIntel,59.99880002,,,,,,,,,,,,,,,,,,,,,,,,,,,,,,,,,,,,,,,,,,,,,,,,,,,,,2,0,2,0,1,instr_done_button,,,,,,,,,,,,,,,,
,,-0.010065104,-0.40187934,1,0,0,,,,,,1,test,"In the next phase you will be presented with the words from the the first phase. Your job is to decide whether you remember seeing the word or not. If you remember seeing the word press ""old"" or type ""m"". If you do not remember seeing the word press ""new"" or type ""z"". Please press the space bar or click on continue to begin. ",,,199138,,2022-01-29_14h56.41.287,lexical_decision_task_DD_L3,2021.2.3,MacIntel,59.99880002,,,,,,,,,,,,,,,,,,,,,,,,,,,,,,,,,,,,,,,,,,,,,,,,,,,,,3,0,3,0,1,instr_done_button,,,,,,,,,,,,,,,,
space,0.3952,-0.010065104,-0.401618924,0,0,0,,,,,,1,test,"In the next phase you will be presented with the words from the the first phase. Your job is to decide whether you remember seeing the word or not. If you remember seeing the word press ""old"" or type ""m"". If you do not remember seeing the word press ""new"" or type ""z"". Please press the space bar or click on continue to begin. ",,,199138,,2022-01-29_14h56.41.287,lexical_decision_task_DD_L3,2021.2.3,MacIntel,59.99880002,,,,,,,,,,,,,,,,,,,,,,,,,,,,,,,,,,,,,,,,,,,,,,,,,,,,,4,0,4,0,1,,,,,,,,,,,,,,,,,
,,,,,,,,,,,,,,,,,199138,,2022-01-29_14h56.41.287,lexical_decision_task_DD_L3,2021.2.3,MacIntel,59.99880002,,,,,,,,,,,2.1243,1,,,,,,,,,,,,,,,,,,,,,,,,-0.010065104,-0.401618924,0,0,0,,,,,,,COUCH,HB,m,m,./images/COUCHHB.png,,,,,,,,m,1,2.1243,,,,,,,,0,0,0,77,1,
,,,,,,,,,,,,,,,,,199138,,2022-01-29_14h56.41.287,lexical_decision_task_DD_L3,2021.2.3,MacIntel,59.99880002,,,,,,,,,,,2.0834,1,,,,,,,,,,,,,,,,,,,,,,,,-0.010065104,-0.401618924,0,0,0,,,,,,,MOTOR,C,m,m,./images/MOTOR.png,,,,,,,,m,1,2.0834,,,,,,,,0,1,1,13,1,
,,,,,,,,,,,,,,,,,199138,,2022-01-29_14h56.41.287,lexical_decision_task_DD_L3,2021.2.3,MacIntel,59.99880002,,,,,,,,,,,1.3688,1,,,,,,,,,,,,,,,,,,,,,,,,-0.010065104,-0.401618924,0,0,0,,,,,,,SNACK,C,m,m,./images/SNACK.png,,,,,,,,m,1,1.3688,,,,,,,,0,2,2,73,1,
,,,,,,,,,,,,,,,,,199138,,2022-01-29_14h56.41.287,lexical_decision_task_DD_L3,2021.2.3,MacIntel,59.99880002,,,,,,,,,,,0.9393,1,,,,,,,,,,,,,,,,,,,,,,,,-0.010065104,-0.401618924,0,0,0,,,,,,,CANYON,C,m,m,./images/CANYON.png,,,,,,,,m,1,0.9393,,,,,,,,0,3,3,34,1,
,,,,,,,,,,,,,,,,,199138,,2022-01-29_14h56.41.287,lexical_decision_task_DD_L3,2021.2.3,MacIntel,59.99880002,,,,,,,,,,,1.3961,1,,,,,,,,,,,,,,,,,,,,,,,,-0.010065104,-0.401618924,0,0,0,,,,,,,KIDNEY,LB,m,m,./images/KIDNEYLB.png,,,,,,,,m,1,1.3961,,,,,,,,0,4,4,21,1,
,,,,,,,,,,,,,,,,,199138,,2022-01-29_14h56.41.287,lexical_decision_task_DD_L3,2021.2.3,MacIntel,59.99880002,,,,,,,,,,,0.8657,1,,,,,,,,,,,,,,,,,,,,,,,,-0.010065104,-0.401618924,0,0,0,,,,,,,GRAPE,C,z,m,./images/GRAPE.png,,,,,,,,z,1,0.8657,,,,,,,,0,5,5,100,1,
,,,,,,,,,,,,,,,,,199138,,2022-01-29_14h56.41.287,lexical_decision_task_DD_L3,2021.2.3,MacIntel,59.99880002,,,,,,,,,,,1.3008,1,,,,,,,,,,,,,,,,,,,,,,,,-0.010065104,-0.401618924,0,0,0,,,,,,,CANDLE,C,m,m,./images/CANDLE.png,,,,,,,,m,1,1.3008,,,,,,,,0,6,6,61,1,
,,,,,,,,,,,,,,,,,199138,,2022-01-29_14h56.41.287,lexical_decision_task_DD_L3,2021.2.3,MacIntel,59.99880002,,,,,,,,,,,1.3489,1,,,,,,,,,,,,,,,,,,,,,,,,-0.010065104,-0.401618924,0,0,0,,,,,,,TIGER,C,z,m,./images/TIGER.png,,,,,,,,z,1,1.3489,,,,,,,,0,7,7,121,1,
,,,,,,,,,,,,,,,,,199138,,2022-01-29_14h56.41.287,lexical_decision_task_DD_L3,2021.2.3,MacIntel,59.99880002,,,,,,,,,,,0.9493,1,,,,,,,,,,,,,,,,,,,,,,,,-0.010065104,-0.401618924,0,0,0,,,,,,,DESERT,C,z,m,./images/DESERT.png,,,,,,,,z,1,0.9493,,,,,,,,0,8,8,136,1,
,,,,,,,,,,,,,,,,,199138,,2022-01-29_14h56.41.287,lexical_decision_task_DD_L3,2021.2.3,MacIntel,59.99880002,,,,,,,,,,,2.1069,1,,,,,,,,,,,,,,,,,,,,,,,,-0.010065104,-0.401618924,0,0,0,,,,,,,BANNER,C,m,m,./images/BANNER.png,,,,,,,,m,1,2.1069,,,,,,,,0,9,9,52,1,
,,,,,,,,,,,,,,,,,199138,,2022-01-29_14h56.41.287,lexical_decision_task_DD_L3,2021.2.3,MacIntel,59.99880002,,,,,,,,,,,0.8364,0,,,,,,,,,,,,,,,,,,,,,,,,-0.010065104,-0.401618924,0,0,0,,,,,,,CLOTH,HB,z,m,./images/CLOTHHB.png,,,,,,,,m,0,0.8364,,,,,,,,0,10,10,107,1,
,,,,,,,,,,,,,,,,,199138,,2022-01-29_14h56.41.287,lexical_decision_task_DD_L3,2021.2.3,MacIntel,59.99880002,,,,,,,,,,,1.1151,1,,,,,,,,,,,,,,,,,,,,,,,,-0.010065104,-0.401618924,0,0,0,,,,,,,GLOVE,C,z,m,./images/GLOVE.png,,,,,,,,z,1,1.1151,,,,,,,,0,11,11,157,1,
,,,,,,,,,,,,,,,,,199138,,2022-01-29_14h56.41.287,lexical_decision_task_DD_L3,2021.2.3,MacIntel,59.99880002,,,,,,,,,,,1.6337,1,,,,,,,,,,,,,,,,,,,,,,,,-0.010065104,-0.401618924,0,0,0,,,,,,,STOOL,C,z,m,./images/STOOL.png,,,,,,,,z,1,1.6337,,,,,,,,0,12,12,127,1,
,,,,,,,,,,,,,,,,,199138,,2022-01-29_14h56.41.287,lexical_decision_task_DD_L3,2021.2.3,MacIntel,59.99880002,,,,,,,,,,,1.6157,0,,,,,,,,,,,,,,,,,,,,,,,,-0.010065104,-0.401618924,0,0,0,,,,,,,CRATER,LB,z,m,./images/CRATERLB.png,,,,,,,,m,0,1.6157,,,,,,,,0,13,13,87,1,
,,,,,,,,,,,,,,,,,199138,,2022-01-29_14h56.41.287,lexical_decision_task_DD_L3,2021.2.3,MacIntel,59.99880002,,,,,,,,,,,1.2376,1,,,,,,,,,,,,,,,,,,,,,,,,-0.010065104,-0.401618924,0,0,0,,,,,,,BAKER,LB,z,m,./images/BAKERLB.png,,,,,,,,z,1,1.2376,,,,,,,,0,14,14,147,1,
,,,,,,,,,,,,,,,,,199138,,2022-01-29_14h56.41.287,lexical_decision_task_DD_L3,2021.2.3,MacIntel,59.99880002,,,,,,,,,,,0.7204,1,,,,,,,,,,,,,,,,,,,,,,,,-0.010065104,-0.401618924,0,0,0,,,,,,,TWINS,LB,m,m,./images/TWINSLB.png,,,,,,,,m,1,0.7204,,,,,,,,0,15,15,60,1,
,,,,,,,,,,,,,,,,,199138,,2022-01-29_14h56.41.287,lexical_decision_task_DD_L3,2021.2.3,MacIntel,59.99880002,,,,,,,,,,,0.8171,1,,,,,,,,,,,,,,,,,,,,,,,,-0.010065104,-0.401618924,0,0,0,,,,,,,SHELF,LB,m,m,./images/SHELFLB.png,,,,,,,,m,1,0.8171,,,,,,,,0,16,16,39,1,
,,,,,,,,,,,,,,,,,199138,,2022-01-29_14h56.41.287,lexical_decision_task_DD_L3,2021.2.3,MacIntel,59.99880002,,,,,,,,,,,0.5833,0,,,,,,,,,,,,,,,,,,,,,,,,-0.010065104,-0.401618924,0,0,0,,,,,,,TOWEL,C,z,m,./images/TOWEL.png,,,,,,,,m,0,0.5833,,,,,,,,0,17,17,85,1,
,,,,,,,,,,,,,,,,,199138,,2022-01-29_14h56.41.287,lexical_decision_task_DD_L3,2021.2.3,MacIntel,59.99880002,,,,,,,,,,,0.8847,1,,,,,,,,,,,,,,,,,,,,,,,,-0.010065104,-0.401618924,0,0,0,,,,,,,BABOON,C,m,m,./images/BABOON.png,,,,,,,,m,1,0.8847,,,,,,,,0,18,18,58,1,
,,,,,,,,,,,,,,,,,199138,,2022-01-29_14h56.41.287,lexical_decision_task_DD_L3,2021.2.3,MacIntel,59.99880002,,,,,,,,,,,1.0068,0,,,,,,,,,,,,,,,,,,,,,,,,-0.010065104,-0.401618924,0,0,0,,,,,,,CLOWN,C,z,m,./images/CLOWN.png,,,,,,,,m,0,1.0068,,,,,,,,0,19,19,106,1,
,,,,,,,,,,,,,,,,,199138,,2022-01-29_14h56.41.287,lexical_decision_task_DD_L3,2021.2.3,MacIntel,59.99880002,,,,,,,,,,,1.2853,1,,,,,,,,,,,,,,,,,,,,,,,,-0.010065104,-0.401618924,0,0,0,,,,,,,BONNET,HB,m,m,./images/BONNETHB.png,,,,,,,,m,1,1.2853,,,,,,,,0,20,20,11,1,
,,,,,,,,,,,,,,,,,199138,,2022-01-29_14h56.41.287,lexical_decision_task_DD_L3,2021.2.3,MacIntel,59.99880002,,,,,,,,,,,0.6816,1,,,,,,,,,,,,,,,,,,,,,,,,-0.010065104,-0.401618924,0,0,0,,,,,,,PASTA,HB,m,m,./images/PASTAHB.png,,,,,,,,m,1,0.6816,,,,,,,,0,21,21,5,1,
,,,,,,,,,,,,,,,,,199138,,2022-01-29_14h56.41.287,lexical_decision_task_DD_L3,2021.2.3,MacIntel,59.99880002,,,,,,,,,,,0.8093,1,,,,,,,,,,,,,,,,,,,,,,,,-0.010065104,-0.401618924,0,0,0,,,,,,,MUMMY,C,z,m,./images/MUMMY.png,,,,,,,,z,1,0.8093,,,,,,,,0,22,22,130,1,
,,,,,,,,,,,,,,,,,199138,,2022-01-29_14h56.41.287,lexical_decision_task_DD_L3,2021.2.3,MacIntel,59.99880002,,,,,,,,,,,0.773,1,,,,,,,,,,,,,,,,,,,,,,,,-0.010065104,-0.401618924,0,0,0,,,,,,,PAINT,C,m,m,./images/PAINT.png,,,,,,,,m,1,0.773,,,,,,,,0,23,23,7,1,
,,,,,,,,,,,,,,,,,199138,,2022-01-29_14h56.41.287,lexical_decision_task_DD_L3,2021.2.3,MacIntel,59.99880002,,,,,,,,,,,3.9739,0,,,,,,,,,,,,,,,,,,,,,,,,-0.010065104,-0.401618924,0,0,0,,,,,,,STATUE,LB,z,m,./images/STATUELB.png,,,,,,,,m,0,3.9739,,,,,,,,0,24,24,150,1,
,,,,,,,,,,,,,,,,,199138,,2022-01-29_14h56.41.287,lexical_decision_task_DD_L3,2021.2.3,MacIntel,59.99880002,,,,,,,,,,,0.9166,1,,,,,,,,,,,,,,,,,,,,,,,,-0.010065104,-0.401618924,0,0,0,,,,,,,CHERRY,LB,z,m,./images/CHERRYLB.png,,,,,,,,z,1,0.9166,,,,,,,,0,25,25,138,1,
,,,,,,,,,,,,,,,,,199138,,2022-01-29_14h56.41.287,lexical_decision_task_DD_L3,2021.2.3,MacIntel,59.99880002,,,,,,,,,,,0.9005,1,,,,,,,,,,,,,,,,,,,,,,,,-0.010065104,-0.401618924,0,0,0,,,,,,,PEARL,C,m,m,./images/PEARL.png,,,,,,,,m,1,0.9005,,,,,,,,0,26,26,46,1,
,,,,,,,,,,,,,,,,,199138,,2022-01-29_14h56.41.287,lexical_decision_task_DD_L3,2021.2.3,MacIntel,59.99880002,,,,,,,,,,,2.0352,1,,,,,,,,,,,,,,,,,,,,,,,,-0.010065104,-0.401618924,0,0,0,,,,,,,MOOSE,LB,m,m,./images/MOOSELB.png,,,,,,,,m,1,2.0352,,,,,,,,0,27,27,57,1,
,,,,,,,,,,,,,,,,,199138,,2022-01-29_14h56.41.287,lexical_decision_task_DD_L3,2021.2.3,MacIntel,59.99880002,,,,,,,,,,,1.4828,1,,,,,,,,,,,,,,,,,,,,,,,,-0.010065104,-0.401618924,0,0,0,,,,,,,GARDEN,C,z,m,./images/GARDEN.png,,,,,,,,z,1,1.4828,,,,,,,,0,28,28,94,1,
,,,,,,,,,,,,,,,,,199138,,2022-01-29_14h56.41.287,lexical_decision_task_DD_L3,2021.2.3,MacIntel,59.99880002,,,,,,,,,,,1.2833,1,,,,,,,,,,,,,,,,,,,,,,,,-0.010065104,-0.401618924,0,0,0,,,,,,,KITTEN,LB,m,m,./images/KITTENLB.png,,,,,,,,m,1,1.2833,,,,,,,,0,29,29,45,1,
,,,,,,,,,,,,,,,,,199138,,2022-01-29_14h56.41.287,lexical_decision_task_DD_L3,2021.2.3,MacIntel,59.99880002,,,,,,,,,,,1.2883,1,,,,,,,,,,,,,,,,,,,,,,,,-0.010065104,-0.401618924,0,0,0,,,,,,,STAIN,LB,z,m,./images/STAINLB.png,,,,,,,,z,1,1.2883,,,,,,,,0,30,30,90,1,
,,,,,,,,,,,,,,,,,199138,,2022-01-29_14h56.41.287,lexical_decision_task_DD_L3,2021.2.3,MacIntel,59.99880002,,,,,,,,,,,0.9746,1,,,,,,,,,,,,,,,,,,,,,,,,-0.010065104,-0.401618924,0,0,0,,,,,,,RAZOR,C,z,m,./images/RAZOR.png,,,,,,,,z,1,0.9746,,,,,,,,0,31,31,118,1,
,,,,,,,,,,,,,,,,,199138,,2022-01-29_14h56.41.287,lexical_decision_task_DD_L3,2021.2.3,MacIntel,59.99880002,,,,,,,,,,,1.3699,0,,,,,,,,,,,,,,,,,,,,,,,,-0.010065104,-0.401618924,0,0,0,,,,,,,CLIFF,HB,z,m,./images/CLIFFHB.png,,,,,,,,m,0,1.3699,,,,,,,,0,32,32,92,1,
,,,,,,,,,,,,,,,,,199138,,2022-01-29_14h56.41.287,lexical_decision_task_DD_L3,2021.2.3,MacIntel,59.99880002,,,,,,,,,,,0.9337,0,,,,,,,,,,,,,,,,,,,,,,,,-0.010065104,-0.401618924,0,0,0,,,,,,,PACKET,HB,m,m,./images/PACKETHB.png,,,,,,,,z,0,0.9337,,,,,,,,0,33,33,56,1,
,,,,,,,,,,,,,,,,,199138,,2022-01-29_14h56.41.287,lexical_decision_task_DD_L3,2021.2.3,MacIntel,59.99880002,,,,,,,,,,,1.5598,1,,,,,,,,,,,,,,,,,,,,,,,,-0.010065104,-0.401618924,0,0,0,,,,,,,BUBBLE,HB,z,m,./images/BUBBLEHB.png,,,,,,,,z,1,1.5598,,,,,,,,0,34,34,155,1,
,,,,,,,,,,,,,,,,,199138,,2022-01-29_14h56.41.287,lexical_decision_task_DD_L3,2021.2.3,MacIntel,59.99880002,,,,,,,,,,,0.8923,1,,,,,,,,,,,,,,,,,,,,,,,,-0.010065104,-0.401618924,0,0,0,,,,,,,WALNUT,LB,z,m,./images/WALNUTLB.png,,,,,,,,z,1,0.8923,,,,,,,,0,35,35,84,1,
,,,,,,,,,,,,,,,,,199138,,2022-01-29_14h56.41.287,lexical_decision_task_DD_L3,2021.2.3,MacIntel,59.99880002,,,,,,,,,,,0.7258,1,,,,,,,,,,,,,,,,,,,,,,,,-0.010065104,-0.401618924,0,0,0,,,,,,,FARMER,HB,m,m,./images/FARMERHB.png,,,,,,,,m,1,0.7258,,,,,,,,0,36,36,65,1,
,,,,,,,,,,,,,,,,,199138,,2022-01-29_14h56.41.287,lexical_decision_task_DD_L3,2021.2.3,MacIntel,59.99880002,,,,,,,,,,,1.5832,0,,,,,,,,,,,,,,,,,,,,,,,,-0.010065104,-0.401618924,0,0,0,,,,,,,WAGON,C,z,m,./images/WAGON.png,,,,,,,,m,0,1.5832,,,,,,,,0,37,37,91,1,
,,,,,,,,,,,,,,,,,199138,,2022-01-29_14h56.41.287,lexical_decision_task_DD_L3,2021.2.3,MacIntel,59.99880002,,,,,,,,,,,1.3145,0,,,,,,,,,,,,,,,,,,,,,,,,-0.010065104,-0.401618924,0,0,0,,,,,,,CHALK,C,z,m,./images/CHALK.png,,,,,,,,m,0,1.3145,,,,,,,,0,38,38,109,1,
,,,,,,,,,,,,,,,,,199138,,2022-01-29_14h56.41.287,lexical_decision_task_DD_L3,2021.2.3,MacIntel,59.99880002,,,,,,,,,,,1.1012,0,,,,,,,,,,,,,,,,,,,,,,,,-0.010065104,-0.401618924,0,0,0,,,,,,,HAMMER,LB,z,m,./images/HAMMERLB.png,,,,,,,,m,0,1.1012,,,,,,,,0,39,39,159,1,
,,,,,,,,,,,,,,,,,199138,,2022-01-29_14h56.41.287,lexical_decision_task_DD_L3,2021.2.3,MacIntel,59.99880002,,,,,,,,,,,1.1758,1,,,,,,,,,,,,,,,,,,,,,,,,-0.010065104,-0.401618924,0,0,0,,,,,,,MIRROR,LB,m,m,./images/MIRRORLB.png,,,,,,,,m,1,1.1758,,,,,,,,0,40,40,63,1,
,,,,,,,,,,,,,,,,,199138,,2022-01-29_14h56.41.287,lexical_decision_task_DD_L3,2021.2.3,MacIntel,59.99880002,,,,,,,,,,,0.7218,0,,,,,,,,,,,,,,,,,,,,,,,,-0.010065104,-0.401618924,0,0,0,space,,,,,,BAMBOO,HB,z,m,./images/BAMBOOHB.png,45.5257,,,,,,,m,0,0.7218,,,,,,,,0,41,41,89,1,
,,,,,,,,,,,,,,,,,199138,,2022-01-29_14h56.41.287,lexical_decision_task_DD_L3,2021.2.3,MacIntel,59.99880002,,,,,,,,,,,1.6502,1,,,,,,,,,,,,,,,,,,,,,,,,-0.010065104,-0.401618924,0,0,0,,,,,,,PARCEL,LB,z,m,./images/PARCELLB.png,,,,,,,,z,1,1.6502,,,,,,,,0,42,42,102,1,
,,,,,,,,,,,,,,,,,199138,,2022-01-29_14h56.41.287,lexical_decision_task_DD_L3,2021.2.3,MacIntel,59.99880002,,,,,,,,,,,0.8257,1,,,,,,,,,,,,,,,,,,,,,,,,-0.010065104,-0.401618924,0,0,0,,,,,,,GREASE,LB,m,m,./images/GREASELB.png,,,,,,,,m,1,0.8257,,,,,,,,0,43,43,15,1,
,,,,,,,,,,,,,,,,,199138,,2022-01-29_14h56.41.287,lexical_decision_task_DD_L3,2021.2.3,MacIntel,59.99880002,,,,,,,,,,,0.924,0,,,,,,,,,,,,,,,,,,,,,,,,-0.010065104,-0.401618924,0,0,0,,,,,,,LIZARD,HB,m,m,./images/LIZARDHB.png,,,,,,,,z,0,0.924,,,,,,,,0,44,44,44,1,
,,,,,,,,,,,,,,,,,199138,,2022-01-29_14h56.41.287,lexical_decision_task_DD_L3,2021.2.3,MacIntel,59.99880002,,,,,,,,,,,0.983,1,,,,,,,,,,,,,,,,,,,,,,,,-0.010065104,-0.401618924,0,0,0,,,,,,,STREAM,HB,z,m,./images/STREAMHB.png,,,,,,,,z,1,0.983,,,,,,,,0,45,45,125,1,
,,,,,,,,,,,,,,,,,199138,,2022-01-29_14h56.41.287,lexical_decision_task_DD_L3,2021.2.3,MacIntel,59.99880002,,,,,,,,,,,0.8333,1,,,,,,,,,,,,,,,,,,,,,,,,-0.010065104,-0.401618924,0,0,0,,,,,,,SAUNA,LB,z,m,./images/SAUNALB.png,,,,,,,,z,1,0.8333,,,,,,,,0,46,46,117,1,
,,,,,,,,,,,,,,,,,199138,,2022-01-29_14h56.41.287,lexical_decision_task_DD_L3,2021.2.3,MacIntel,59.99880002,,,,,,,,,,,1.015,1,,,,,,,,,,,,,,,,,,,,,,,,-0.010065104,-0.401618924,0,0,0,,,,,,,COOKER,LB,m,m,./images/COOKERLB.png,,,,,,,,m,1,1.015,,,,,,,,0,47,47,69,1,
,,,,,,,,,,,,,,,,,199138,,2022-01-29_14h56.41.287,lexical_decision_task_DD_L3,2021.2.3,MacIntel,59.99880002,,,,,,,,,,,0.7642,1,,,,,,,,,,,,,,,,,,,,,,,,-0.010065104,-0.401618924,0,0,0,,,,,,,LITTER,LB,m,m,./images/LITTERLB.png,,,,,,,,m,1,0.7642,,,,,,,,0,48,48,78,1,
,,,,,,,,,,,,,,,,,199138,,2022-01-29_14h56.41.287,lexical_decision_task_DD_L3,2021.2.3,MacIntel,59.99880002,,,,,,,,,,,1.3249,1,,,,,,,,,,,,,,,,,,,,,,,,-0.010065104,-0.401618924,0,0,0,,,,,,,ENGINE,HB,z,m,./images/ENGINEHB.png,,,,,,,,z,1,1.3249,,,,,,,,0,49,49,122,1,
,,,,,,,,,,,,,,,,,199138,,2022-01-29_14h56.41.287,lexical_decision_task_DD_L3,2021.2.3,MacIntel,59.99880002,,,,,,,,,,,1.3934,1,,,,,,,,,,,,,,,,,,,,,,,,-0.010065104,-0.401618924,0,0,0,,,,,,,SMOKER,HB,m,m,./images/SMOKERHB.png,,,,,,,,m,1,1.3934,,,,,,,,0,50,50,26,1,
,,,,,,,,,,,,,,,,,199138,,2022-01-29_14h56.41.287,lexical_decision_task_DD_L3,2021.2.3,MacIntel,59.99880002,,,,,,,,,,,1.1518,1,,,,,,,,,,,,,,,,,,,,,,,,-0.010065104,-0.401618924,0,0,0,,,,,,,ATTIC,LB,m,m,./images/ATTICLB.png,,,,,,,,m,1,1.1518,,,,,,,,0,51,51,27,1,
,,,,,,,,,,,,,,,,,199138,,2022-01-29_14h56.41.287,lexical_decision_task_DD_L3,2021.2.3,MacIntel,59.99880002,,,,,,,,,,,1.641,1,,,,,,,,,,,,,,,,,,,,,,,,-0.010065104,-0.401618924,0,0,0,,,,,,,CRADLE,HB,m,m,./images/CRADLEHB.png,,,,,,,,m,1,1.641,,,,,,,,0,52,52,20,1,
,,,,,,,,,,,,,,,,,199138,,2022-01-29_14h56.41.287,lexical_decision_task_DD_L3,2021.2.3,MacIntel,59.99880002,,,,,,,,,,,1.6004,0,,,,,,,,,,,,,,,,,,,,,,,,-0.010065104,-0.401618924,0,0,0,,,,,,,CLOUD,HB,z,m,./images/CLOUDHB.png,,,,,,,,m,0,1.6004,,,,,,,,0,53,53,110,1,
,,,,,,,,,,,,,,,,,199138,,2022-01-29_14h56.41.287,lexical_decision_task_DD_L3,2021.2.3,MacIntel,59.99880002,,,,,,,,,,,2.2713,1,,,,,,,,,,,,,,,,,,,,,,,,-0.010065104,-0.401618924,0,0,0,,,,,,,SWEAT,LB,m,m,./images/SWEATLB.png,,,,,,,,m,1,2.2713,,,,,,,,0,54,54,66,1,
,,,,,,,,,,,,,,,,,199138,,2022-01-29_14h56.41.287,lexical_decision_task_DD_L3,2021.2.3,MacIntel,59.99880002,,,,,,,,,,,2.5009,1,,,,,,,,,,,,,,,,,,,,,,,,-0.010065104,-0.401618924,0,0,0,,,,,,,STRING,HB,m,m,./images/STRINGHB.png,,,,,,,,m,1,2.5009,,,,,,,,0,55,55,41,1,
,,,,,,,,,,,,,,,,,199138,,2022-01-29_14h56.41.287,lexical_decision_task_DD_L3,2021.2.3,MacIntel,59.99880002,,,,,,,,,,,0.7488,1,,,,,,,,,,,,,,,,,,,,,,,,-0.010065104,-0.401618924,0,0,0,,,,,,,MELON,C,m,m,./images/MELON.png,,,,,,,,m,1,0.7488,,,,,,,,0,56,56,22,1,
,,,,,,,,,,,,,,,,,199138,,2022-01-29_14h56.41.287,lexical_decision_task_DD_L3,2021.2.3,MacIntel,59.99880002,,,,,,,,,,,0.7868,1,,,,,,,,,,,,,,,,,,,,,,,,-0.010065104,-0.401618924,0,0,0,,,,,,,JUMPER,HB,z,m,./images/JUMPERHB.png,,,,,,,,z,1,0.7868,,,,,,,,0,57,57,158,1,
,,,,,,,,,,,,,,,,,199138,,2022-01-29_14h56.41.287,lexical_decision_task_DD_L3,2021.2.3,MacIntel,59.99880002,,,,,,,,,,,3.4318,1,,,,,,,,,,,,,,,,,,,,,,,,-0.010065104,-0.401618924,0,0,0,,,,,,,FALCON,C,m,m,./images/FALCON.png,,,,,,,,m,1,3.4318,,,,,,,,0,58,58,28,1,
,,,,,,,,,,,,,,,,,199138,,2022-01-29_14h56.41.287,lexical_decision_task_DD_L3,2021.2.3,MacIntel,59.99880002,,,,,,,,,,,2.3832,1,,,,,,,,,,,,,,,,,,,,,,,,-0.010065104,-0.401618924,0,0,0,,,,,,,TORCH,HB,m,m,./images/TORCHHB.png,,,,,,,,m,1,2.3832,,,,,,,,0,59,59,68,1,
,,,,,,,,,,,,,,,,,199138,,2022-01-29_14h56.41.287,lexical_decision_task_DD_L3,2021.2.3,MacIntel,59.99880002,,,,,,,,,,,0.9668,1,,,,,,,,,,,,,,,,,,,,,,,,-0.010065104,-0.401618924,0,0,0,,,,,,,SPINE,HB,z,m,./images/SPINEHB.png,,,,,,,,z,1,0.9668,,,,,,,,0,60,60,149,1,
,,,,,,,,,,,,,,,,,199138,,2022-01-29_14h56.41.287,lexical_decision_task_DD_L3,2021.2.3,MacIntel,59.99880002,,,,,,,,,,,2.5489,1,,,,,,,,,,,,,,,,,,,,,,,,-0.010065104,-0.401618924,0,0,0,,,,,,,PENCE,C,m,m,./images/PENCE.png,,,,,,,,m,1,2.5489,,,,,,,,0,61,61,16,1,
,,,,,,,,,,,,,,,,,199138,,2022-01-29_14h56.41.287,lexical_decision_task_DD_L3,2021.2.3,MacIntel,59.99880002,,,,,,,,,,,1.0023,1,,,,,,,,,,,,,,,,,,,,,,,,-0.010065104,-0.401618924,0,0,0,,,,,,,DIVER,LB,z,m,./images/DIVERLB.png,,,,,,,,z,1,1.0023,,,,,,,,0,62,62,93,1,
,,,,,,,,,,,,,,,,,199138,,2022-01-29_14h56.41.287,lexical_decision_task_DD_L3,2021.2.3,MacIntel,59.99880002,,,,,,,,,,,1.0194,1,,,,,,,,,,,,,,,,,,,,,,,,-0.010065104,-0.401618924,0,0,0,,,,,,,HEATER,HB,z,m,./images/HEATERHB.png,,,,,,,,z,1,1.0194,,,,,,,,0,63,63,140,1,
,,,,,,,,,,,,,,,,,199138,,2022-01-29_14h56.41.287,lexical_decision_task_DD_L3,2021.2.3,MacIntel,59.99880002,,,,,,,,,,,0.9176,0,,,,,,,,,,,,,,,,,,,,,,,,-0.010065104,-0.401618924,0,0,0,,,,,,,FLASK,LB,z,m,./images/FLASKLB.png,,,,,,,,m,0,0.9176,,,,,,,,0,64,64,156,1,
,,,,,,,,,,,,,,,,,199138,,2022-01-29_14h56.41.287,lexical_decision_task_DD_L3,2021.2.3,MacIntel,59.99880002,,,,,,,,,,,0.8158,1,,,,,,,,,,,,,,,,,,,,,,,,-0.010065104,-0.401618924,0,0,0,,,,,,,CEMENT,HB,m,m,./images/CEMENTHB.png,,,,,,,,m,1,0.8158,,,,,,,,0,65,65,74,1,
,,,,,,,,,,,,,,,,,199138,,2022-01-29_14h56.41.287,lexical_decision_task_DD_L3,2021.2.3,MacIntel,59.99880002,,,,,,,,,,,2.606,1,,,,,,,,,,,,,,,,,,,,,,,,-0.010065104,-0.401618924,0,0,0,,,,,,,MUSCLE,C,m,m,./images/MUSCLE.png,,,,,,,,m,1,2.606,,,,,,,,0,66,66,4,1,
,,,,,,,,,,,,,,,,,199138,,2022-01-29_14h56.41.287,lexical_decision_task_DD_L3,2021.2.3,MacIntel,59.99880002,,,,,,,,,,,0.7171,0,,,,,,,,,,,,,,,,,,,,,,,,-0.010065104,-0.401618924,0,0,0,,,,,,,BASKET,HB,z,m,./images/BASKETHB.png,,,,,,,,m,0,0.7171,,,,,,,,0,67,67,128,1,
,,,,,,,,,,,,,,,,,199138,,2022-01-29_14h56.41.287,lexical_decision_task_DD_L3,2021.2.3,MacIntel,59.99880002,,,,,,,,,,,1.156,0,,,,,,,,,,,,,,,,,,,,,,,,-0.010065104,-0.401618924,0,0,0,,,,,,,FENCE,HB,z,m,./images/FENCEHB.png,,,,,,,,m,0,1.156,,,,,,,,0,68,68,98,1,
,,,,,,,,,,,,,,,,,199138,,2022-01-29_14h56.41.287,lexical_decision_task_DD_L3,2021.2.3,MacIntel,59.99880002,,,,,,,,,,,0.8855,1,,,,,,,,,,,,,,,,,,,,,,,,-0.010065104,-0.401618924,0,0,0,,,,,,,BANANA,C,z,m,./images/BANANA.png,,,,,,,,z,1,0.8855,,,,,,,,0,69,69,154,1,
,,,,,,,,,,,,,,,,,199138,,2022-01-29_14h56.41.287,lexical_decision_task_DD_L3,2021.2.3,MacIntel,59.99880002,,,,,,,,,,,0.7749,1,,,,,,,,,,,,,,,,,,,,,,,,-0.010065104,-0.401618924,0,0,0,,,,,,,BISHOP,C,z,m,./images/BISHOP.png,,,,,,,,z,1,0.7749,,,,,,,,0,70,70,133,1,
,,,,,,,,,,,,,,,,,199138,,2022-01-29_14h56.41.287,lexical_decision_task_DD_L3,2021.2.3,MacIntel,59.99880002,,,,,,,,,,,0.8331,1,,,,,,,,,,,,,,,,,,,,,,,,-0.010065104,-0.401618924,0,0,0,,,,,,,CURRY,LB,z,m,./images/CURRYLB.png,,,,,,,,z,1,0.8331,,,,,,,,0,71,71,144,1,
,,,,,,,,,,,,,,,,,199138,,2022-01-29_14h56.41.287,lexical_decision_task_DD_L3,2021.2.3,MacIntel,59.99880002,,,,,,,,,,,1.3335,1,,,,,,,,,,,,,,,,,,,,,,,,-0.010065104,-0.401618924,0,0,0,,,,,,,PILOT,HB,z,m,./images/PILOTHB.png,,,,,,,,z,1,1.3335,,,,,,,,0,72,72,134,1,
,,,,,,,,,,,,,,,,,199138,,2022-01-29_14h56.41.287,lexical_decision_task_DD_L3,2021.2.3,MacIntel,59.99880002,,,,,,,,,,,0.8362,0,,,,,,,,,,,,,,,,,,,,,,,,-0.010065104,-0.401618924,0,0,0,,,,,,,SUNSET,C,m,m,./images/SUNSET.png,,,,,,,,z,0,0.8362,,,,,,,,0,73,73,82,1,
,,,,,,,,,,,,,,,,,199138,,2022-01-29_14h56.41.287,lexical_decision_task_DD_L3,2021.2.3,MacIntel,59.99880002,,,,,,,,,,,0.7836,1,,,,,,,,,,,,,,,,,,,,,,,,-0.010065104,-0.401618924,0,0,0,,,,,,,BRIDE,C,z,m,./images/BRIDE.png,,,,,,,,z,1,0.7836,,,,,,,,0,74,74,148,1,
,,,,,,,,,,,,,,,,,199138,,2022-01-29_14h56.41.287,lexical_decision_task_DD_L3,2021.2.3,MacIntel,59.99880002,,,,,,,,,,,1.5149,0,,,,,,,,,,,,,,,,,,,,,,,,-0.010065104,-0.401618924,0,0,0,,,,,,,CANDY,LB,z,m,./images/CANDYLB.png,,,,,,,,m,0,1.5149,,,,,,,,0,75,75,123,1,
,,,,,,,,,,,,,,,,,199138,,2022-01-29_14h56.41.287,lexical_decision_task_DD_L3,2021.2.3,MacIntel,59.99880002,,,,,,,,,,,2.0655,0,,,,,,,,,,,,,,,,,,,,,,,,-0.010065104,-0.401618924,0,0,0,,,,,,,STOVE,HB,z,m,./images/STOVEHB.png,,,,,,,,m,0,2.0655,,,,,,,,0,76,76,86,1,
,,,,,,,,,,,,,,,,,199138,,2022-01-29_14h56.41.287,lexical_decision_task_DD_L3,2021.2.3,MacIntel,59.99880002,,,,,,,,,,,1.0322,1,,,,,,,,,,,,,,,,,,,,,,,,-0.010065104,-0.401618924,0,0,0,,,,,,,MONKEY,LB,z,m,./images/MONKEYLB.png,,,,,,,,z,1,1.0322,,,,,,,,0,77,77,129,1,
,,,,,,,,,,,,,,,,,199138,,2022-01-29_14h56.41.287,lexical_decision_task_DD_L3,2021.2.3,MacIntel,59.99880002,,,,,,,,,,,0.9984,1,,,,,,,,,,,,,,,,,,,,,,,,-0.010065104,-0.401618924,0,0,0,,,,,,,CASINO,C,z,m,./images/CASINO.png,,,,,,,,z,1,0.9984,,,,,,,,0,78,78,112,1,
,,,,,,,,,,,,,,,,,199138,,2022-01-29_14h56.41.287,lexical_decision_task_DD_L3,2021.2.3,MacIntel,59.99880002,,,,,,,,,,,0.8498,1,,,,,,,,,,,,,,,,,,,,,,,,-0.010065104,-0.401618924,0,0,0,,,,,,,BUTTER,LB,z,m,./images/BUTTERLB.png,,,,,,,,z,1,0.8498,,,,,,,,0,79,79,111,1,
,,,,,,,,,,,,,,,,,199138,,2022-01-29_14h56.41.287,lexical_decision_task_DD_L3,2021.2.3,MacIntel,59.99880002,,,,,,,,,,,1.6499,0,,,,,,,,,,,,,,,,,,,,,,,,-0.010065104,-0.401618924,0,0,0,,,,,,,BIRTH,C,m,m,./images/BIRTH.png,,,,,,,,z,0,1.6499,,,,,,,,0,80,80,37,1,
,,,,,,,,,,,,,,,,,199138,,2022-01-29_14h56.41.287,lexical_decision_task_DD_L3,2021.2.3,MacIntel,59.99880002,,,,,,,,,,,0.9987,0,,,,,,,,,,,,,,,,,,,,,,,,-0.010065104,-0.401618924,0,0,0,,,,,,,ALLEY,C,z,m,./images/ALLEY.png,,,,,,,,m,0,0.9987,,,,,,,,0,81,81,139,1,
,,,,,,,,,,,,,,,,,199138,,2022-01-29_14h56.41.287,lexical_decision_task_DD_L3,2021.2.3,MacIntel,59.99880002,,,,,,,,,,,0.8,1,,,,,,,,,,,,,,,,,,,,,,,,-0.010065104,-0.401618924,0,0,0,,,,,,,LADDER,HB,m,m,./images/LADDERHB.png,,,,,,,,m,1,0.8,,,,,,,,0,82,82,38,1,
,,,,,,,,,,,,,,,,,199138,,2022-01-29_14h56.41.287,lexical_decision_task_DD_L3,2021.2.3,MacIntel,59.99880002,,,,,,,,,,,0.7322,1,,,,,,,,,,,,,,,,,,,,,,,,-0.005668403,-0.427243924,1,0,0,,,,,,,JELLY,C,m,m,./images/JELLY.png,,,,,,,,m,1,0.7322,,,,,,,,0,83,83,64,1,break_done_button
,,,,,,,,,,,,,,,,,199138,,2022-01-29_14h56.41.287,lexical_decision_task_DD_L3,2021.2.3,MacIntel,59.99880002,,,,,,,,,,,1.1821,1,,,,,,,,,,,,,,,,,,,,,,,,-0.005668403,-0.427243924,0,0,0,,,,,,,URINE,C,m,m,./images/URINE.png,,,,,,,,m,1,1.1821,,,,,,,,0,84,84,70,1,
,,,,,,,,,,,,,,,,,199138,,2022-01-29_14h56.41.287,lexical_decision_task_DD_L3,2021.2.3,MacIntel,59.99880002,,,,,,,,,,,1.4655,1,,,,,,,,,,,,,,,,,,,,,,,,-0.005668403,-0.427243924,0,0,0,,,,,,,WALRUS,HB,m,m,./images/WALRUSHB.png,,,,,,,,m,1,1.4655,,,,,,,,0,85,85,23,1,
,,,,,,,,,,,,,,,,,199138,,2022-01-29_14h56.41.287,lexical_decision_task_DD_L3,2021.2.3,MacIntel,59.99880002,,,,,,,,,,,0.8906,0,,,,,,,,,,,,,,,,,,,,,,,,-0.005668403,-0.427243924,0,0,0,,,,,,,FINGER,LB,m,m,./images/FINGERLB.png,,,,,,,,z,0,0.8906,,,,,,,,0,86,86,3,1,
,,,,,,,,,,,,,,,,,199138,,2022-01-29_14h56.41.287,lexical_decision_task_DD_L3,2021.2.3,MacIntel,59.99880002,,,,,,,,,,,1.1912,1,,,,,,,,,,,,,,,,,,,,,,,,-0.005668403,-0.427243924,0,0,0,,,,,,,STEAK,C,z,m,./images/STEAK.png,,,,,,,,z,1,1.1912,,,,,,,,0,87,87,115,1,
,,,,,,,,,,,,,,,,,199138,,2022-01-29_14h56.41.287,lexical_decision_task_DD_L3,2021.2.3,MacIntel,59.99880002,,,,,,,,,,,0.935,1,,,,,,,,,,,,,,,,,,,,,,,,-0.005668403,-0.427243924,0,0,0,,,,,,,ARROW,LB,z,m,./images/ARROWLB.png,,,,,,,,z,1,0.935,,,,,,,,0,88,88,153,1,
,,,,,,,,,,,,,,,,,199138,,2022-01-29_14h56.41.287,lexical_decision_task_DD_L3,2021.2.3,MacIntel,59.99880002,,,,,,,,,,,1.4332,1,,,,,,,,,,,,,,,,,,,,,,,,-0.005668403,-0.427243924,0,0,0,,,,,,,SLOPE,LB,z,m,./images/SLOPELB.png,,,,,,,,z,1,1.4332,,,,,,,,0,89,89,114,1,
,,,,,,,,,,,,,,,,,199138,,2022-01-29_14h56.41.287,lexical_decision_task_DD_L3,2021.2.3,MacIntel,59.99880002,,,,,,,,,,,0.792,1,,,,,,,,,,,,,,,,,,,,,,,,-0.005668403,-0.427243924,0,0,0,,,,,,,PISTOL,HB,z,m,./images/PISTOLHB.png,,,,,,,,z,1,0.792,,,,,,,,0,90,90,113,1,
,,,,,,,,,,,,,,,,,199138,,2022-01-29_14h56.41.287,lexical_decision_task_DD_L3,2021.2.3,MacIntel,59.99880002,,,,,,,,,,,0.9322,0,,,,,,,,,,,,,,,,,,,,,,,,-0.005668403,-0.427243924,0,0,0,,,,,,,INFANT,C,m,m,./images/INFANT.png,,,,,,,,z,0,0.9322,,,,,,,,0,91,91,76,1,
,,,,,,,,,,,,,,,,,199138,,2022-01-29_14h56.41.287,lexical_decision_task_DD_L3,2021.2.3,MacIntel,59.99880002,,,,,,,,,,,1.0576,0,,,,,,,,,,,,,,,,,,,,,,,,-0.005668403,-0.427243924,0,0,0,,,,,,,CHAIN,LB,z,m,./images/CHAINLB.png,,,,,,,,m,0,1.0576,,,,,,,,0,92,92,126,1,
,,,,,,,,,,,,,,,,,199138,,2022-01-29_14h56.41.287,lexical_decision_task_DD_L3,2021.2.3,MacIntel,59.99880002,,,,,,,,,,,0.6828,0,,,,,,,,,,,,,,,,,,,,,,,,-0.005668403,-0.427243924,0,0,0,,,,,,,SHIELD,LB,z,m,./images/SHIELDLB.png,,,,,,,,m,0,0.6828,,,,,,,,0,93,93,132,1,
,,,,,,,,,,,,,,,,,199138,,2022-01-29_14h56.41.287,lexical_decision_task_DD_L3,2021.2.3,MacIntel,59.99880002,,,,,,,,,,,0.8183,1,,,,,,,,,,,,,,,,,,,,,,,,-0.005668403,-0.427243924,0,0,0,,,,,,,POKER,C,z,m,./images/POKER.png,,,,,,,,z,1,0.8183,,,,,,,,0,94,94,151,1,
,,,,,,,,,,,,,,,,,199138,,2022-01-29_14h56.41.287,lexical_decision_task_DD_L3,2021.2.3,MacIntel,59.99880002,,,,,,,,,,,1.4346,0,,,,,,,,,,,,,,,,,,,,,,,,-0.005668403,-0.427243924,0,0,0,,,,,,,ONION,LB,m,m,./images/ONIONLB.png,,,,,,,,z,0,1.4346,,,,,,,,0,95,95,51,1,
,,,,,,,,,,,,,,,,,199138,,2022-01-29_14h56.41.287,lexical_decision_task_DD_L3,2021.2.3,MacIntel,59.99880002,,,,,,,,,,,0.6664,1,,,,,,,,,,,,,,,,,,,,,,,,-0.005668403,-0.427243924,0,0,0,,,,,,,BARREL,HB,m,m,./images/BARRELHB.png,,,,,,,,m,1,0.6664,,,,,,,,0,96,96,32,1,
,,,,,,,,,,,,,,,,,199138,,2022-01-29_14h56.41.287,lexical_decision_task_DD_L3,2021.2.3,MacIntel,59.99880002,,,,,,,,,,,1.0162,0,,,,,,,,,,,,,,,,,,,,,,,,-0.005668403,-0.427243924,0,0,0,,,,,,,STORM,LB,m,m,./images/STORMLB.png,,,,,,,,z,0,1.0162,,,,,,,,0,97,97,30,1,
,,,,,,,,,,,,,,,,,199138,,2022-01-29_14h56.41.287,lexical_decision_task_DD_L3,2021.2.3,MacIntel,59.99880002,,,,,,,,,,,0.5823,0,,,,,,,,,,,,,,,,,,,,,,,,-0.005668403,-0.427243924,0,0,0,,,,,,,BOXER,C,z,m,./images/BOXER.png,,,,,,,,m,0,0.5823,,,,,,,,0,98,98,88,1,
,,,,,,,,,,,,,,,,,199138,,2022-01-29_14h56.41.287,lexical_decision_task_DD_L3,2021.2.3,MacIntel,59.99880002,,,,,,,,,,,1.3191,1,,,,,,,,,,,,,,,,,,,,,,,,-0.005668403,-0.427243924,0,0,0,,,,,,,PLANK,C,m,m,./images/PLANK.png,,,,,,,,m,1,1.3191,,,,,,,,0,99,99,1,1,
,,,,,,,,,,,,,,,,,199138,,2022-01-29_14h56.41.287,lexical_decision_task_DD_L3,2021.2.3,MacIntel,59.99880002,,,,,,,,,,,1.3336,1,,,,,,,,,,,,,,,,,,,,,,,,-0.005668403,-0.427243924,0,0,0,,,,,,,PEBBLE,C,z,m,./images/PEBBLE.png,,,,,,,,z,1,1.3336,,,,,,,,0,100,100,166,1,
,,,,,,,,,,,,,,,,,199138,,2022-01-29_14h56.41.287,lexical_decision_task_DD_L3,2021.2.3,MacIntel,59.99880002,,,,,,,,,,,0.7663,1,,,,,,,,,,,,,,,,,,,,,,,,-0.005668403,-0.427243924,0,0,0,,,,,,,LLAMA,HB,z,m,./images/LLAMAHB.png,,,,,,,,z,1,0.7663,,,,,,,,0,101,101,119,1,
,,,,,,,,,,,,,,,,,199138,,2022-01-29_14h56.41.287,lexical_decision_task_DD_L3,2021.2.3,MacIntel,59.99880002,,,,,,,,,,,0.9079,1,,,,,,,,,,,,,,,,,,,,,,,,-0.005668403,-0.427243924,0,0,0,,,,,,,BURIAL,HB,m,m,./images/BURIALHB.png,,,,,,,,m,1,0.9079,,,,,,,,0,102,102,59,1,
,,,,,,,,,,,,,,,,,199138,,2022-01-29_14h56.41.287,lexical_decision_task_DD_L3,2021.2.3,MacIntel,59.99880002,,,,,,,,,,,0.7005,0,,,,,,,,,,,,,,,,,,,,,,,,-0.005668403,-0.427243924,0,0,0,,,,,,,WRIST,C,m,m,./images/WRIST.png,,,,,,,,z,0,0.7005,,,,,,,,0,103,103,25,1,
,,,,,,,,,,,,,,,,,199138,,2022-01-29_14h56.41.287,lexical_decision_task_DD_L3,2021.2.3,MacIntel,59.99880002,,,,,,,,,,,1.0171,0,,,,,,,,,,,,,,,,,,,,,,,,-0.005668403,-0.427243924,0,0,0,,,,,,,BRUSH,HB,z,m,./images/BRUSHHB.png,,,,,,,,m,0,1.0171,,,,,,,,0,104,104,143,1,
,,,,,,,,,,,,,,,,,199138,,2022-01-29_14h56.41.287,lexical_decision_task_DD_L3,2021.2.3,MacIntel,59.99880002,,,,,,,,,,,0.7164,1,,,,,,,,,,,,,,,,,,,,,,,,-0.005668403,-0.427243924,0,0,0,,,,,,,FERRY,LB,z,m,./images/FERRYLB.png,,,,,,,,z,1,0.7164,,,,,,,,0,105,105,141,1,
,,,,,,,,,,,,,,,,,199138,,2022-01-29_14h56.41.287,lexical_decision_task_DD_L3,2021.2.3,MacIntel,59.99880002,,,,,,,,,,,1.067,1,,,,,,,,,,,,,,,,,,,,,,,,-0.005668403,-0.427243924,0,0,0,,,,,,,ARTIST,C,z,m,./images/ARTIST.png,,,,,,,,z,1,1.067,,,,,,,,0,106,106,145,1,
,,,,,,,,,,,,,,,,,199138,,2022-01-29_14h56.41.287,lexical_decision_task_DD_L3,2021.2.3,MacIntel,59.99880002,,,,,,,,,,,0.7664,1,,,,,,,,,,,,,,,,,,,,,,,,-0.005668403,-0.427243924,0,0,0,,,,,,,RHINO,LB,m,m,./images/RHINOLB.png,,,,,,,,m,1,0.7664,,,,,,,,0,107,107,9,1,
,,,,,,,,,,,,,,,,,199138,,2022-01-29_14h56.41.287,lexical_decision_task_DD_L3,2021.2.3,MacIntel,59.99880002,,,,,,,,,,,0.8668,1,,,,,,,,,,,,,,,,,,,,,,,,-0.005668403,-0.427243924,0,0,0,,,,,,,JUNGLE,HB,m,m,./images/JUNGLEHB.png,,,,,,,,m,1,0.8668,,,,,,,,0,108,108,83,1,
,,,,,,,,,,,,,,,,,199138,,2022-01-29_14h56.41.287,lexical_decision_task_DD_L3,2021.2.3,MacIntel,59.99880002,,,,,,,,,,,0.7767,0,,,,,,,,,,,,,,,,,,,,,,,,-0.005668403,-0.427243924,0,0,0,,,,,,,MALLET,HB,m,m,./images/MALLETHB.png,,,,,,,,z,0,0.7767,,,,,,,,0,109,109,50,1,
,,,,,,,,,,,,,,,,,199138,,2022-01-29_14h56.41.287,lexical_decision_task_DD_L3,2021.2.3,MacIntel,59.99880002,,,,,,,,,,,1.0219,1,,,,,,,,,,,,,,,,,,,,,,,,-0.005668403,-0.427243924,0,0,0,,,,,,,BUNNY,C,z,m,./images/BUNNY.png,,,,,,,,z,1,1.0219,,,,,,,,0,110,110,97,1,
,,,,,,,,,,,,,,,,,199138,,2022-01-29_14h56.41.287,lexical_decision_task_DD_L3,2021.2.3,MacIntel,59.99880002,,,,,,,,,,,1.3252,0,,,,,,,,,,,,,,,,,,,,,,,,-0.005668403,-0.427243924,0,0,0,,,,,,,SNAKE,C,z,m,./images/SNAKE.png,,,,,,,,m,0,1.3252,,,,,,,,0,111,111,124,1,
,,,,,,,,,,,,,,,,,199138,,2022-01-29_14h56.41.287,lexical_decision_task_DD_L3,2021.2.3,MacIntel,59.99880002,,,,,,,,,,,1.9345,1,,,,,,,,,,,,,,,,,,,,,,,,-0.005668403,-0.427243924,0,0,0,,,,,,,PIMPLE,HB,m,m,./images/PIMPLEHB.png,,,,,,,,m,1,1.9345,,,,,,,,0,112,112,71,1,
,,,,,,,,,,,,,,,,,199138,,2022-01-29_14h56.41.287,lexical_decision_task_DD_L3,2021.2.3,MacIntel,59.99880002,,,,,,,,,,,0.8077,1,,,,,,,,,,,,,,,,,,,,,,,,-0.005668403,-0.427243924,0,0,0,,,,,,,DRILL,LB,z,m,./images/DRILLLB.png,,,,,,,,z,1,0.8077,,,,,,,,0,113,113,165,1,
,,,,,,,,,,,,,,,,,199138,,2022-01-29_14h56.41.287,lexical_decision_task_DD_L3,2021.2.3,MacIntel,59.99880002,,,,,,,,,,,0.8226,0,,,,,,,,,,,,,,,,,,,,,,,,-0.005668403,-0.427243924,0,0,0,,,,,,,LAGOON,HB,z,m,./images/LAGOONHB.png,,,,,,,,m,0,0.8226,,,,,,,,0,114,114,131,1,
,,,,,,,,,,,,,,,,,199138,,2022-01-29_14h56.41.287,lexical_decision_task_DD_L3,2021.2.3,MacIntel,59.99880002,,,,,,,,,,,1.0173,0,,,,,,,,,,,,,,,,,,,,,,,,-0.005668403,-0.427243924,0,0,0,,,,,,,SAILOR,C,m,m,./images/SAILOR.png,,,,,,,,z,0,1.0173,,,,,,,,0,115,115,67,1,
,,,,,,,,,,,,,,,,,199138,,2022-01-29_14h56.41.287,lexical_decision_task_DD_L3,2021.2.3,MacIntel,59.99880002,,,,,,,,,,,1.3996,0,,,,,,,,,,,,,,,,,,,,,,,,-0.005668403,-0.427243924,0,0,0,,,,,,,SHORE,LB,m,m,./images/SHORELB.png,,,,,,,,z,0,1.3996,,,,,,,,0,116,116,12,1,
,,,,,,,,,,,,,,,,,199138,,2022-01-29_14h56.41.287,lexical_decision_task_DD_L3,2021.2.3,MacIntel,59.99880002,,,,,,,,,,,1.8156,0,,,,,,,,,,,,,,,,,,,,,,,,-0.005668403,-0.427243924,0,0,0,,,,,,,PARADE,HB,z,m,./images/PARADEHB.png,,,,,,,,m,0,1.8156,,,,,,,,0,117,117,101,1,
,,,,,,,,,,,,,,,,,199138,,2022-01-29_14h56.41.287,lexical_decision_task_DD_L3,2021.2.3,MacIntel,59.99880002,,,,,,,,,,,1.1343,1,,,,,,,,,,,,,,,,,,,,,,,,-0.005668403,-0.427243924,0,0,0,,,,,,,DOUGH,C,m,m,./images/DOUGH.png,,,,,,,,m,1,1.1343,,,,,,,,0,118,118,19,1,
,,,,,,,,,,,,,,,,,199138,,2022-01-29_14h56.41.287,lexical_decision_task_DD_L3,2021.2.3,MacIntel,59.99880002,,,,,,,,,,,0.8668,1,,,,,,,,,,,,,,,,,,,,,,,,-0.005668403,-0.427243924,0,0,0,,,,,,,BROOM,LB,z,m,./images/BROOMLB.png,,,,,,,,z,1,0.8668,,,,,,,,0,119,119,162,1,
,,,,,,,,,,,,,,,,,199138,,2022-01-29_14h56.41.287,lexical_decision_task_DD_L3,2021.2.3,MacIntel,59.99880002,,,,,,,,,,,1.4291,1,,,,,,,,,,,,,,,,,,,,,,,,-0.005668403,-0.427243924,0,0,0,,,,,,,SAUCE,LB,z,m,./images/SAUCELB.png,,,,,,,,z,1,1.4291,,,,,,,,0,120,120,135,1,
,,,,,,,,,,,,,,,,,199138,,2022-01-29_14h56.41.287,lexical_decision_task_DD_L3,2021.2.3,MacIntel,59.99880002,,,,,,,,,,,1.2026,1,,,,,,,,,,,,,,,,,,,,,,,,-0.005668403,-0.427243924,0,0,0,,,,,,,DONKEY,C,z,m,./images/DONKEY.png,,,,,,,,z,1,1.2026,,,,,,,,0,121,121,103,1,
,,,,,,,,,,,,,,,,,199138,,2022-01-29_14h56.41.287,lexical_decision_task_DD_L3,2021.2.3,MacIntel,59.99880002,,,,,,,,,,,0.7843,1,,,,,,,,,,,,,,,,,,,,,,,,-0.005668403,-0.427243924,0,0,0,,,,,,,MAGGOT,LB,m,m,./images/MAGGOTLB.png,,,,,,,,m,1,0.7843,,,,,,,,0,122,122,33,1,
,,,,,,,,,,,,,,,,,199138,,2022-01-29_14h56.41.287,lexical_decision_task_DD_L3,2021.2.3,MacIntel,59.99880002,,,,,,,,,,,0.9821,0,,,,,,,,,,,,,,,,,,,,,,,,-0.005668403,-0.427243924,0,0,0,,,,,,,SQUARE,LB,m,m,./images/SQUARELB.png,,,,,,,,z,0,0.9821,,,,,,,,0,123,123,6,1,
,,,,,,,,,,,,,,,,,199138,,2022-01-29_14h56.41.287,lexical_decision_task_DD_L3,2021.2.3,MacIntel,59.99880002,,,,,,,,,,,0.934,1,,,,,,,,,,,,,,,,,,,,,,,,-0.005668403,-0.427243924,0,0,0,,,,,,,TRIPOD,LB,m,m,./images/TRIPODLB.png,,,,,,,,m,1,0.934,,,,,,,,0,124,124,54,1,
,,,,,,,,,,,,,,,,,199138,,2022-01-29_14h56.41.287,lexical_decision_task_DD_L3,2021.2.3,MacIntel,59.99880002,,,,,,,,,,,1.2166,0,,,,,,,,,,,,,,,,,,,,,,,,-0.005668403,-0.427243924,0,0,0,space,,,,,,CANOE,C,z,m,./images/CANOE.png,30.1522,,,,,,,m,0,1.2166,,,,,,,,0,125,125,142,1,
,,,,,,,,,,,,,,,,,199138,,2022-01-29_14h56.41.287,lexical_decision_task_DD_L3,2021.2.3,MacIntel,59.99880002,,,,,,,,,,,1.1667,1,,,,,,,,,,,,,,,,,,,,,,,,-0.005668403,-0.427243924,0,0,0,,,,,,,FLESH,LB,z,m,./images/FLESHLB.png,,,,,,,,z,1,1.1667,,,,,,,,0,126,126,108,1,
,,,,,,,,,,,,,,,,,199138,,2022-01-29_14h56.41.287,lexical_decision_task_DD_L3,2021.2.3,MacIntel,59.99880002,,,,,,,,,,,1.0363,1,,,,,,,,,,,,,,,,,,,,,,,,-0.005668403,-0.427243924,0,0,0,,,,,,,VALLEY,HB,z,m,./images/VALLEYHB.png,,,,,,,,z,1,1.0363,,,,,,,,0,127,127,152,1,
,,,,,,,,,,,,,,,,,199138,,2022-01-29_14h56.41.287,lexical_decision_task_DD_L3,2021.2.3,MacIntel,59.99880002,,,,,,,,,,,0.7677,1,,,,,,,,,,,,,,,,,,,,,,,,-0.005668403,-0.427243924,0,0,0,,,,,,,DRUMS,C,m,m,./images/DRUMS.png,,,,,,,,m,1,0.7677,,,,,,,,0,128,128,49,1,
,,,,,,,,,,,,,,,,,199138,,2022-01-29_14h56.41.287,lexical_decision_task_DD_L3,2021.2.3,MacIntel,59.99880002,,,,,,,,,,,1.0221,1,,,,,,,,,,,,,,,,,,,,,,,,-0.005668403,-0.427243924,0,0,0,,,,,,,BLOKE,LB,z,m,./images/BLOKELB.png,,,,,,,,z,1,1.0221,,,,,,,,0,129,129,96,1,
,,,,,,,,,,,,,,,,,199138,,2022-01-29_14h56.41.287,lexical_decision_task_DD_L3,2021.2.3,MacIntel,59.99880002,,,,,,,,,,,2.132,1,,,,,,,,,,,,,,,,,,,,,,,,-0.005668403,-0.427243924,0,0,0,,,,,,,PEACH,HB,m,m,./images/PEACHHB.png,,,,,,,,m,1,2.132,,,,,,,,0,130,130,35,1,
,,,,,,,,,,,,,,,,,199138,,2022-01-29_14h56.41.287,lexical_decision_task_DD_L3,2021.2.3,MacIntel,59.99880002,,,,,,,,,,,0.7344,0,,,,,,,,,,,,,,,,,,,,,,,,-0.005668403,-0.427243924,0,0,0,,,,,,,NOOSE,LB,m,m,./images/NOOSELB.png,,,,,,,,z,0,0.7344,,,,,,,,0,131,131,72,1,
,,,,,,,,,,,,,,,,,199138,,2022-01-29_14h56.41.287,lexical_decision_task_DD_L3,2021.2.3,MacIntel,59.99880002,,,,,,,,,,,1.4817,1,,,,,,,,,,,,,,,,,,,,,,,,-0.005668403,-0.427243924,0,0,0,,,,,,,POSTER,HB,z,m,./images/POSTERHB.png,,,,,,,,z,1,1.4817,,,,,,,,0,132,132,137,1,
,,,,,,,,,,,,,,,,,199138,,2022-01-29_14h56.41.287,lexical_decision_task_DD_L3,2021.2.3,MacIntel,59.99880002,,,,,,,,,,,1.1838,1,,,,,,,,,,,,,,,,,,,,,,,,-0.005668403,-0.427243924,0,0,0,,,,,,,MAMMAL,HB,z,m,./images/MAMMALHB.png,,,,,,,,z,1,1.1838,,,,,,,,0,133,133,146,1,
,,,,,,,,,,,,,,,,,199138,,2022-01-29_14h56.41.287,lexical_decision_task_DD_L3,2021.2.3,MacIntel,59.99880002,,,,,,,,,,,0.9204,1,,,,,,,,,,,,,,,,,,,,,,,,-0.005668403,-0.427243924,0,0,0,,,,,,,POODLE,LB,m,m,./images/POODLELB.png,,,,,,,,m,1,0.9204,,,,,,,,0,134,134,81,1,
,,,,,,,,,,,,,,,,,199138,,2022-01-29_14h56.41.287,lexical_decision_task_DD_L3,2021.2.3,MacIntel,59.99880002,,,,,,,,,,,1.1157,1,,,,,,,,,,,,,,,,,,,,,,,,-0.005668403,-0.427243924,0,0,0,,,,,,,WHISKY,HB,z,m,./images/WHISKYHB.png,,,,,,,,z,1,1.1157,,,,,,,,0,135,135,167,1,
,,,,,,,,,,,,,,,,,199138,,2022-01-29_14h56.41.287,lexical_decision_task_DD_L3,2021.2.3,MacIntel,59.99880002,,,,,,,,,,,1.1326,0,,,,,,,,,,,,,,,,,,,,,,,,-0.005668403,-0.427243924,0,0,0,,,,,,,WEASEL,HB,m,m,./images/WEASELHB.png,,,,,,,,z,0,1.1326,,,,,,,,0,136,136,80,1,
,,,,,,,,,,,,,,,,,199138,,2022-01-29_14h56.41.287,lexical_decision_task_DD_L3,2021.2.3,MacIntel,59.99880002,,,,,,,,,,,0.7505,1,,,,,,,,,,,,,,,,,,,,,,,,-0.005668403,-0.427243924,0,0,0,,,,,,,FOLDER,LB,m,m,./images/FOLDERLB.png,,,,,,,,m,1,0.7505,,,,,,,,0,137,137,42,1,
,,,,,,,,,,,,,,,,,199138,,2022-01-29_14h56.41.287,lexical_decision_task_DD_L3,2021.2.3,MacIntel,59.99880002,,,,,,,,,,,0.906,1,,,,,,,,,,,,,,,,,,,,,,,,-0.005668403,-0.427243924,0,0,0,,,,,,,MOSQUE,C,m,m,./images/MOSQUE.png,,,,,,,,m,1,0.906,,,,,,,,0,138,138,43,1,
,,,,,,,,,,,,,,,,,199138,,2022-01-29_14h56.41.287,lexical_decision_task_DD_L3,2021.2.3,MacIntel,59.99880002,,,,,,,,,,,1.0328,1,,,,,,,,,,,,,,,,,,,,,,,,-0.005668403,-0.427243924,0,0,0,,,,,,,BERRY,HB,m,m,./images/BERRYHB.png,,,,,,,,m,1,1.0328,,,,,,,,0,139,139,47,1,
,,,,,,,,,,,,,,,,,199138,,2022-01-29_14h56.41.287,lexical_decision_task_DD_L3,2021.2.3,MacIntel,59.99880002,,,,,,,,,,,0.7558,0,,,,,,,,,,,,,,,,,,,,,,,,-0.005668403,-0.427243924,0,0,0,,,,,,,TULIP,HB,m,m,./images/TULIPHB.png,,,,,,,,z,0,0.7558,,,,,,,,0,140,140,8,1,
,,,,,,,,,,,,,,,,,199138,,2022-01-29_14h56.41.287,lexical_decision_task_DD_L3,2021.2.3,MacIntel,59.99880002,,,,,,,,,,,0.9693,0,,,,,,,,,,,,,,,,,,,,,,,,-0.005668403,-0.427243924,0,0,0,,,,,,,QUILL,C,m,m,./images/QUILL.png,,,,,,,,z,0,0.9693,,,,,,,,0,141,141,31,1,
,,,,,,,,,,,,,,,,,199138,,2022-01-29_14h56.41.287,lexical_decision_task_DD_L3,2021.2.3,MacIntel,59.99880002,,,,,,,,,,,1.1845,1,,,,,,,,,,,,,,,,,,,,,,,,-0.005668403,-0.427243924,0,0,0,,,,,,,PLANET,HB,z,m,./images/PLANETHB.png,,,,,,,,z,1,1.1845,,,,,,,,0,142,142,164,1,
,,,,,,,,,,,,,,,,,199138,,2022-01-29_14h56.41.287,lexical_decision_task_DD_L3,2021.2.3,MacIntel,59.99880002,,,,,,,,,,,0.9666,0,,,,,,,,,,,,,,,,,,,,,,,,-0.005668403,-0.427243924,0,0,0,,,,,,,PICKLE,HB,m,m,./images/PICKLEHB.png,,,,,,,,z,0,0.9666,,,,,,,,0,143,143,14,1,
,,,,,,,,,,,,,,,,,199138,,2022-01-29_14h56.41.287,lexical_decision_task_DD_L3,2021.2.3,MacIntel,59.99880002,,,,,,,,,,,0.6215,0,,,,,,,,,,,,,,,,,,,,,,,,-0.005668403,-0.427243924,0,0,0,,,,,,,CRUST,C,m,m,./images/CRUST.png,,,,,,,,z,0,0.6215,,,,,,,,0,144,144,79,1,
,,,,,,,,,,,,,,,,,199138,,2022-01-29_14h56.41.287,lexical_decision_task_DD_L3,2021.2.3,MacIntel,59.99880002,,,,,,,,,,,1.2678,0,,,,,,,,,,,,,,,,,,,,,,,,-0.005668403,-0.427243924,0,0,0,,,,,,,WHEEL,HB,z,m,./images/WHEELHB.png,,,,,,,,m,0,1.2678,,,,,,,,0,145,145,161,1,
,,,,,,,,,,,,,,,,,199138,,2022-01-29_14h56.41.287,lexical_decision_task_DD_L3,2021.2.3,MacIntel,59.99880002,,,,,,,,,,,0.9169,0,,,,,,,,,,,,,,,,,,,,,,,,-0.005668403,-0.427243924,0,0,0,,,,,,,SPORT,LB,m,m,./images/SPORTLB.png,,,,,,,,z,0,0.9169,,,,,,,,0,146,146,48,1,
,,,,,,,,,,,,,,,,,199138,,2022-01-29_14h56.41.287,lexical_decision_task_DD_L3,2021.2.3,MacIntel,59.99880002,,,,,,,,,,,0.7827,1,,,,,,,,,,,,,,,,,,,,,,,,-0.005668403,-0.427243924,0,0,0,,,,,,,CRUMB,HB,m,m,./images/CRUMBHB.png,,,,,,,,m,1,0.7827,,,,,,,,0,147,147,29,1,
,,,,,,,,,,,,,,,,,199138,,2022-01-29_14h56.41.287,lexical_decision_task_DD_L3,2021.2.3,MacIntel,59.99880002,,,,,,,,,,,0.7343,1,,,,,,,,,,,,,,,,,,,,,,,,-0.005668403,-0.427243924,0,0,0,,,,,,,BELLY,C,m,m,./images/BELLY.png,,,,,,,,m,1,0.7343,,,,,,,,0,148,148,10,1,
,,,,,,,,,,,,,,,,,199138,,2022-01-29_14h56.41.287,lexical_decision_task_DD_L3,2021.2.3,MacIntel,59.99880002,,,,,,,,,,,0.5841,1,,,,,,,,,,,,,,,,,,,,,,,,-0.005668403,-0.427243924,0,0,0,,,,,,,TOMATO,LB,m,m,./images/TOMATOLB.png,,,,,,,,m,1,0.5841,,,,,,,,0,149,149,0,1,
,,,,,,,,,,,,,,,,,199138,,2022-01-29_14h56.41.287,lexical_decision_task_DD_L3,2021.2.3,MacIntel,59.99880002,,,,,,,,,,,0.7498,1,,,,,,,,,,,,,,,,,,,,,,,,-0.005668403,-0.427243924,0,0,0,,,,,,,SWING,C,m,m,./images/SWING.png,,,,,,,,m,1,0.7498,,,,,,,,0,150,150,40,1,
,,,,,,,,,,,,,,,,,199138,,2022-01-29_14h56.41.287,lexical_decision_task_DD_L3,2021.2.3,MacIntel,59.99880002,,,,,,,,,,,0.8561,1,,,,,,,,,,,,,,,,,,,,,,,,-0.005668403,-0.427243924,0,0,0,,,,,,,CARPET,HB,m,m,./images/CARPETHB.png,,,,,,,,m,1,0.8561,,,,,,,,0,151,151,53,1,
,,,,,,,,,,,,,,,,,199138,,2022-01-29_14h56.41.287,lexical_decision_task_DD_L3,2021.2.3,MacIntel,59.99880002,,,,,,,,,,,2.1394,0,,,,,,,,,,,,,,,,,,,,,,,,-0.005668403,-0.427243924,0,0,0,,,,,,,JAGUAR,LB,m,m,./images/JAGUARLB.png,,,,,,,,z,0,2.1394,,,,,,,,0,152,152,18,1,
,,,,,,,,,,,,,,,,,199138,,2022-01-29_14h56.41.287,lexical_decision_task_DD_L3,2021.2.3,MacIntel,59.99880002,,,,,,,,,,,0.8955,1,,,,,,,,,,,,,,,,,,,,,,,,-0.005668403,-0.427243924,0,0,0,,,,,,,BOILER,LB,z,m,./images/BOILERLB.png,,,,,,,,z,1,0.8955,,,,,,,,0,153,153,120,1,
,,,,,,,,,,,,,,,,,199138,,2022-01-29_14h56.41.287,lexical_decision_task_DD_L3,2021.2.3,MacIntel,59.99880002,,,,,,,,,,,0.8008,1,,,,,,,,,,,,,,,,,,,,,,,,-0.005668403,-0.427243924,0,0,0,,,,,,,THROAT,LB,m,m,./images/THROATLB.png,,,,,,,,m,1,0.8008,,,,,,,,0,154,154,36,1,
,,,,,,,,,,,,,,,,,199138,,2022-01-29_14h56.41.287,lexical_decision_task_DD_L3,2021.2.3,MacIntel,59.99880002,,,,,,,,,,,0.8722,1,,,,,,,,,,,,,,,,,,,,,,,,-0.005668403,-0.427243924,0,0,0,,,,,,,PURSE,HB,m,m,./images/PURSEHB.png,,,,,,,,m,1,0.8722,,,,,,,,0,155,155,62,1,
,,,,,,,,,,,,,,,,,199138,,2022-01-29_14h56.41.287,lexical_decision_task_DD_L3,2021.2.3,MacIntel,59.99880002,,,,,,,,,,,0.7914,1,,,,,,,,,,,,,,,,,,,,,,,,-0.005668403,-0.427243924,0,0,0,,,,,,,SCREW,LB,m,m,./images/SCREWLB.png,,,,,,,,m,1,0.7914,,,,,,,,0,156,156,24,1,
,,,,,,,,,,,,,,,,,199138,,2022-01-29_14h56.41.287,lexical_decision_task_DD_L3,2021.2.3,MacIntel,59.99880002,,,,,,,,,,,1.0338,0,,,,,,,,,,,,,,,,,,,,,,,,-0.005668403,-0.427243924,0,0,0,,,,,,,COLLAR,LB,z,m,./images/COLLARLB.png,,,,,,,,m,0,1.0338,,,,,,,,0,157,157,99,1,
,,,,,,,,,,,,,,,,,199138,,2022-01-29_14h56.41.287,lexical_decision_task_DD_L3,2021.2.3,MacIntel,59.99880002,,,,,,,,,,,0.8051,1,,,,,,,,,,,,,,,,,,,,,,,,-0.005668403,-0.427243924,0,0,0,,,,,,,HOCKEY,HB,z,m,./images/HOCKEYHB.png,,,,,,,,z,1,0.8051,,,,,,,,0,158,158,116,1,
,,,,,,,,,,,,,,,,,199138,,2022-01-29_14h56.41.287,lexical_decision_task_DD_L3,2021.2.3,MacIntel,59.99880002,,,,,,,,,,,0.8507,1,,,,,,,,,,,,,,,,,,,,,,,,-0.005668403,-0.427243924,0,0,0,,,,,,,RULER,C,z,m,./images/RULER.png,,,,,,,,z,1,0.8507,,,,,,,,0,159,159,163,1,
,,,,,,,,,,,,,,,,,199138,,2022-01-29_14h56.41.287,lexical_decision_task_DD_L3,2021.2.3,MacIntel,59.99880002,,,,,,,,,,,0.907,1,,,,,,,,,,,,,,,,,,,,,,,,-0.005668403,-0.427243924,0,0,0,,,,,,,GRANNY,HB,z,m,./images/GRANNYHB.png,,,,,,,,z,1,0.907,,,,,,,,0,160,160,104,1,
,,,,,,,,,,,,,,,,,199138,,2022-01-29_14h56.41.287,lexical_decision_task_DD_L3,2021.2.3,MacIntel,59.99880002,,,,,,,,,,,0.7164,1,,,,,,,,,,,,,,,,,,,,,,,,-0.005668403,-0.427243924,0,0,0,,,,,,,MUFFIN,C,m,m,./images/MUFFIN.png,,,,,,,,m,1,0.7164,,,,,,,,0,161,161,55,1,
,,,,,,,,,,,,,,,,,199138,,2022-01-29_14h56.41.287,lexical_decision_task_DD_L3,2021.2.3,MacIntel,59.99880002,,,,,,,,,,,1.2515,1,,,,,,,,,,,,,,,,,,,,,,,,-0.005668403,-0.427243924,0,0,0,,,,,,,MIDGET,C,z,m,./images/MIDGET.png,,,,,,,,z,1,1.2515,,,,,,,,0,162,162,160,1,
,,,,,,,,,,,,,,,,,199138,,2022-01-29_14h56.41.287,lexical_decision_task_DD_L3,2021.2.3,MacIntel,59.99880002,,,,,,,,,,,0.94,0,,,,,,,,,,,,,,,,,,,,,,,,-0.005668403,-0.427243924,0,0,0,,,,,,,SKIING,HB,m,m,./images/SKIINGHB.png,,,,,,,,z,0,0.94,,,,,,,,0,163,163,17,1,
,,,,,,,,,,,,,,,,,199138,,2022-01-29_14h56.41.287,lexical_decision_task_DD_L3,2021.2.3,MacIntel,59.99880002,,,,,,,,,,,0.6971,0,,,,,,,,,,,,,,,,,,,,,,,,-0.005668403,-0.427243924,0,0,0,,,,,,,GRAIN,LB,m,m,./images/GRAINLB.png,,,,,,,,z,0,0.6971,,,,,,,,0,164,164,75,1,
,,,,,,,,,,,,,,,,,199138,,2022-01-29_14h56.41.287,lexical_decision_task_DD_L3,2021.2.3,MacIntel,59.99880002,,,,,,,,,,,0.8478,0,,,,,,,,,,,,,,,,,,,,,,,,-0.005668403,-0.427243924,0,0,0,,,,,,,BEARD,HB,m,m,./images/BEARDHB.png,,,,,,,,z,0,0.8478,,,,,,,,0,165,165,2,1,
,,,,,,,,,,,,,,,,,199138,,2022-01-29_14h56.41.287,lexical_decision_task_DD_L3,2021.2.3,MacIntel,59.99880002,,,,,,,,,,,1.1044,1,,,,,,,,,,,,,,,,,,,,,,,,-0.005668403,-0.427243924,0,0,0,,,,,,,MEDAL,HB,z,m,./images/MEDALHB.png,,,,,,,,z,1,1.1044,,,,,,,,0,166,166,95,1,
,,,,,,,,,,,,,,,,,199138,,2022-01-29_14h56.41.287,lexical_decision_task_DD_L3,2021.2.3,MacIntel,59.99880002,,,,,,,,,,,1.5008,1,,,,,,,,,,,,,,,,,,,,,,,,-0.005668403,-0.427243924,0,0,0,,,,,,,DANCER,LB,z,m,./images/DANCERLB.png,,,,,,,,z,1,1.5008,,,,,,,,0,167,167,105,1,
