key_resp.keys,instr_done_touch.x,instr_done_touch.y,instr_done_touch.leftButton,instr_done_touch.midButton,instr_done_touch.rightButton,instr_done_touch.clicked_name,instruction_pages.thisRepN,instruction_pages.thisTrialN,instruction_pages.thisN,instruction_pages.thisIndex,instruction_pages.ran,pageN,phase,instruct_text,has_image,instruct_image,participant,age,date,expName,psychopyVersion,OS,frameRate,response.keys,response.corr,response.rt,touch_resp.x,touch_resp.y,touch_resp.leftButton,touch_resp.midButton,touch_resp.rightButton,touch_resp.time,touch_resp.clicked_name,rt,corr,practrials.thisRepN,practrials.thisTrialN,practrials.thisN,practrials.thisIndex,practrials.ran,TrialID,Target,corrAns,end_of_practice_trials_pages.thisRepN,end_of_practice_trials_pages.thisTrialN,end_of_practice_trials_pages.thisN,end_of_practice_trials_pages.thisIndex,end_of_practice_trials_pages.ran,key_resp_2.keys,key_resp_2.corr,key_resp_2.rt,targ_click.x,targ_click.y,targ_click.leftButton,targ_click.midButton,targ_click.rightButton,targ_click.time,targ_click.clicked_name,break_done_touch.x,break_done_touch.y,break_done_touch.leftButton,break_done_touch.midButton,break_done_touch.rightButton,break_done_keyboard.keys,maintrials.thisRepN,maintrials.thisTrialN,maintrials.thisN,maintrials.thisIndex,maintrials.ran,string,blur,study,lex,stim_path,break_done_keyboard.rt,break_done_touch.clicked_name,test_instructions.thisRepN,test_instructions.thisTrialN,test_instructions.thisN,test_instructions.thisIndex,test_instructions.ran,key_resp.rt,key_resp_3.keys,key_resp_3.corr,key_resp_3.rt,test_click.x,test_click.y,test_click.leftButton,test_click.midButton,test_click.rightButton,test_click.time,test_click.clicked_name,test_phase.thisRepN,test_phase.thisTrialN,test_phase.thisN,test_phase.thisIndex,test_phase.ran
,0.036345486,-0.406336806,1,0,0,instr_done_button,0,0,0,0,1,1,instructions,"INSTRUCTIONS
At the start of each trial, look at the plus sign  (+) in the center of the screen.  This tells you that a trial is about to begin and where to look. Second, the plus sign will disappear and a string of letters will appear. Your task is to determine if the string of letters is a word or not. If the item is a word press the M key (on keyboard)  or touch the word button (phone/tablet).  If the item is not a word,  press the  Z key (on keyboard)  or touch the nonword button (on phone/tablet). 
Press the space bar or touch  continue.",0,,199162,18,2022-01-28_17h28.12.733,lexical_decision_task_DD_L6,2021.2.3,MacIntel,60.0024001,,,,,,,,,,,,,,,,,,,,,,,,,,,,,,,,,,,,,,,,,,,,,,,,,,,,,,,,,,,,,,,,,,,,,,,,,,
,-0.017365451,-0.357912326,1,0,0,instr_done_button,0,1,1,1,1,2,instructions,"If your device has a keyboard, press the 'Z' key for nonwords and the 'M' key for words.





Press the space bar or touch the button below to continue.",0,keyboard-example.gif,199162,18,2022-01-28_17h28.12.733,lexical_decision_task_DD_L6,2021.2.3,MacIntel,60.0024001,,,,,,,,,,,,,,,,,,,,,,,,,,,,,,,,,,,,,,,,,,,,,,,,,,,,,,,,,,,,,,,,,,,,,,,,,,
,-0.004361979,-0.37500434,1,0,0,instr_done_button,0,2,2,2,1,3,instructions,"If you are using a touchscreen only device, use the buttons on the screen. Do not use the mouse.





Press the space bar or touch the button below to continue.",0,touchscreen-example.gif,199162,18,2022-01-28_17h28.12.733,lexical_decision_task_DD_L6,2021.2.3,MacIntel,60.0024001,,,,,,,,,,,,,,,,,,,,,,,,,,,,,,,,,,,,,,,,,,,,,,,,,,,,,,,,,,,,,,,,,,,,,,,,,,
,0.004205729,-0.395859375,1,0,0,instr_done_button,0,3,3,3,1,4,instructions,"It is very important that you respond as quickly and accurately as possible, as each letter string will only be on the screen for two seconds. If you do not respond within this time, the message 'Too slow!' will be displayed and the experiment will progress to the next letter string. The first 20 trials will be practice trials and you will receive feedback on your answers. 

Press the space bar or touch the button below to start the practice trials.",0,,199162,18,2022-01-28_17h28.12.733,lexical_decision_task_DD_L6,2021.2.3,MacIntel,60.0024001,,,,,,,,,,,,,,,,,,,,,,,,,,,,,,,,,,,,,,,,,,,,,,,,,,,,,,,,,,,,,,,,,,,,,,,,,,
,,,,,,,,,,,,,,,,,199162,18,2022-01-28_17h28.12.733,lexical_decision_task_DD_L6,2021.2.3,MacIntel,60.0024001,m,1,1.3315,,,,,,,,1.3315,1,0,0,0,0,1,1001,UTOPIA,m,,,,,,,,,,,,,,,,,,,,,,,,,,,,,,,,,,,,,,,,,,,,,,,,,,,,,,
,,,,,,,,,,,,,,,,,199162,18,2022-01-28_17h28.12.733,lexical_decision_task_DD_L6,2021.2.3,MacIntel,60.0024001,z,1,0.9091,,,,,,,,0.9091,1,0,1,1,8,1,1001,ASLERT,z,,,,,,,,,,,,,,,,,,,,,,,,,,,,,,,,,,,,,,,,,,,,,,,,,,,,,,
,,,,,,,,,,,,,,,,,199162,18,2022-01-28_17h28.12.733,lexical_decision_task_DD_L6,2021.2.3,MacIntel,60.0024001,z,1,0.7798,,,,,,,,0.7798,1,0,2,2,12,1,1001,SPRINY,z,,,,,,,,,,,,,,,,,,,,,,,,,,,,,,,,,,,,,,,,,,,,,,,,,,,,,,
,,,,,,,,,,,,,,,,,199162,18,2022-01-28_17h28.12.733,lexical_decision_task_DD_L6,2021.2.3,MacIntel,60.0024001,z,1,0.6845,,,,,,,,0.6845,1,0,3,3,13,1,1001,ROUPET,z,,,,,,,,,,,,,,,,,,,,,,,,,,,,,,,,,,,,,,,,,,,,,,,,,,,,,,
,,,,,,,,,,,,,,,,,199162,18,2022-01-28_17h28.12.733,lexical_decision_task_DD_L6,2021.2.3,MacIntel,60.0024001,m,1,0.5675,,,,,,,,0.5675,1,0,4,4,5,1,1001,OBTAIN,m,,,,,,,,,,,,,,,,,,,,,,,,,,,,,,,,,,,,,,,,,,,,,,,,,,,,,,
,,,,,,,,,,,,,,,,,199162,18,2022-01-28_17h28.12.733,lexical_decision_task_DD_L6,2021.2.3,MacIntel,60.0024001,z,1,0.7159,,,,,,,,0.7159,1,0,5,5,11,1,1001,RASHET,z,,,,,,,,,,,,,,,,,,,,,,,,,,,,,,,,,,,,,,,,,,,,,,,,,,,,,,
,,,,,,,,,,,,,,,,,199162,18,2022-01-28_17h28.12.733,lexical_decision_task_DD_L6,2021.2.3,MacIntel,60.0024001,m,1,0.5631,,,,,,,,0.5631,1,0,6,6,2,1,1001,ALMOND,m,,,,,,,,,,,,,,,,,,,,,,,,,,,,,,,,,,,,,,,,,,,,,,,,,,,,,,
,,,,,,,,,,,,,,,,,199162,18,2022-01-28_17h28.12.733,lexical_decision_task_DD_L6,2021.2.3,MacIntel,60.0024001,m,1,0.5655,,,,,,,,0.5655,1,0,7,7,7,1,1001,VOLUME,m,,,,,,,,,,,,,,,,,,,,,,,,,,,,,,,,,,,,,,,,,,,,,,,,,,,,,,
,,,,,,,,,,,,,,,,,199162,18,2022-01-28_17h28.12.733,lexical_decision_task_DD_L6,2021.2.3,MacIntel,60.0024001,m,1,0.5949,,,,,,,,0.5949,1,0,8,8,4,1,1001,SQUEAK,m,,,,,,,,,,,,,,,,,,,,,,,,,,,,,,,,,,,,,,,,,,,,,,,,,,,,,,
,,,,,,,,,,,,,,,,,199162,18,2022-01-28_17h28.12.733,lexical_decision_task_DD_L6,2021.2.3,MacIntel,60.0024001,z,1,0.7518,,,,,,,,0.7518,1,0,9,9,10,1,1001,INLADE,z,,,,,,,,,,,,,,,,,,,,,,,,,,,,,,,,,,,,,,,,,,,,,,,,,,,,,,
,,,,,,,,,,,,,,,,,199162,18,2022-01-28_17h28.12.733,lexical_decision_task_DD_L6,2021.2.3,MacIntel,60.0024001,m,1,0.5838,,,,,,,,0.5838,1,0,10,10,1,1,1001,ADJUST,m,,,,,,,,,,,,,,,,,,,,,,,,,,,,,,,,,,,,,,,,,,,,,,,,,,,,,,
,,,,,,,,,,,,,,,,,199162,18,2022-01-28_17h28.12.733,lexical_decision_task_DD_L6,2021.2.3,MacIntel,60.0024001,z,1,0.7004,,,,,,,,0.7004,1,0,11,11,9,1,1001,FARINY,z,,,,,,,,,,,,,,,,,,,,,,,,,,,,,,,,,,,,,,,,,,,,,,,,,,,,,,
,,,,,,,,,,,,,,,,,199162,18,2022-01-28_17h28.12.733,lexical_decision_task_DD_L6,2021.2.3,MacIntel,60.0024001,m,1,0.5833,,,,,,,,0.5833,1,0,12,12,6,1,1001,ZOMBIE,m,,,,,,,,,,,,,,,,,,,,,,,,,,,,,,,,,,,,,,,,,,,,,,,,,,,,,,
,,,,,,,,,,,,,,,,,199162,18,2022-01-28_17h28.12.733,lexical_decision_task_DD_L6,2021.2.3,MacIntel,60.0024001,z,1,0.6174,,,,,,,,0.6174,1,0,13,13,14,1,1001,THRALE,z,,,,,,,,,,,,,,,,,,,,,,,,,,,,,,,,,,,,,,,,,,,,,,,,,,,,,,
,,,,,,,,,,,,,,,,,199162,18,2022-01-28_17h28.12.733,lexical_decision_task_DD_L6,2021.2.3,MacIntel,60.0024001,z,1,0.6491,,,,,,,,0.6491,1,0,14,14,15,1,1001,WHAISE,z,,,,,,,,,,,,,,,,,,,,,,,,,,,,,,,,,,,,,,,,,,,,,,,,,,,,,,
,,,,,,,,,,,,,,,,,199162,18,2022-01-28_17h28.12.733,lexical_decision_task_DD_L6,2021.2.3,MacIntel,60.0024001,m,1,0.6321,,,,,,,,0.6321,1,0,15,15,3,1,1001,MATRIX,m,,,,,,,,,,,,,,,,,,,,,,,,,,,,,,,,,,,,,,,,,,,,,,,,,,,,,,
,0.049865451,-0.41234375,1,0,0,instr_done_button,,,,,,1,end_of_practice,"You have completed the practice trials. During the experimental trials, you will not receive feedback. 
Before you begin, please ensure that you are in a comfortable and quiet location and will not be disturbed for about 15 minutes, as we cannot use your data if you do not complete all the trials. 
 When you are ready to start the experimental trials, please press space or touch the button below.",,,199162,18,2022-01-28_17h28.12.733,lexical_decision_task_DD_L6,2021.2.3,MacIntel,60.0024001,,,,,,,,,,,,,,,,,,,,,0,0,0,0,1,,,,,,,,,,,,,,,,,,,,,,,,,,,,,,,,,,,,,,,,,,,,,,,,,
,,,,,,,,,,,,,,,,,199162,18,2022-01-28_17h28.12.733,lexical_decision_task_DD_L6,2021.2.3,MacIntel,60.0024001,,,,,,,,,,,2.9628,1,,,,,,,,,,,,,,m,1,2.9628,,,,,,,,0.049865451,-0.41234375,0,0,0,,0,0,0,14,1,FENCE,HB,old,m,./images/FENCEHB.png,,,,,,,,,,,,,,,,,,,,,,,
,,,,,,,,,,,,,,,,,199162,18,2022-01-28_17h28.12.733,lexical_decision_task_DD_L6,2021.2.3,MacIntel,60.0024001,,,,,,,,,,,0.9117,1,,,,,,,,,,,,,,z,1,0.9117,,,,,,,,0.049865451,-0.41234375,0,0,0,,0,1,1,87,1,TRING,C,old,z,./images/TRING.png,,,,,,,,,,,,,,,,,,,,,,,
,,,,,,,,,,,,,,,,,199162,18,2022-01-28_17h28.12.733,lexical_decision_task_DD_L6,2021.2.3,MacIntel,60.0024001,,,,,,,,,,,0.7768,1,,,,,,,,,,,,,,z,1,0.7768,,,,,,,,0.049865451,-0.41234375,0,0,0,,0,2,2,141,1,PLEET,C,old,z,./images/PLEET.png,,,,,,,,,,,,,,,,,,,,,,,
,,,,,,,,,,,,,,,,,199162,18,2022-01-28_17h28.12.733,lexical_decision_task_DD_L6,2021.2.3,MacIntel,60.0024001,,,,,,,,,,,1.0831,1,,,,,,,,,,,,,,z,1,1.0831,,,,,,,,0.049865451,-0.41234375,0,0,0,,0,3,3,134,1,TROSS,LB,old,z,./images/TROSSLB.png,,,,,,,,,,,,,,,,,,,,,,,
,,,,,,,,,,,,,,,,,199162,18,2022-01-28_17h28.12.733,lexical_decision_task_DD_L6,2021.2.3,MacIntel,60.0024001,,,,,,,,,,,2.6984,1,,,,,,,,,,,,,,z,1,2.6984,,,,,,,,0.049865451,-0.41234375,0,0,0,,0,4,4,154,1,THINT,HB,old,z,./images/THINTHB.png,,,,,,,,,,,,,,,,,,,,,,,
,,,,,,,,,,,,,,,,,199162,18,2022-01-28_17h28.12.733,lexical_decision_task_DD_L6,2021.2.3,MacIntel,60.0024001,,,,,,,,,,,3.0992,1,,,,,,,,,,,,,,m,1,3.0992,,,,,,,,0.049865451,-0.41234375,0,0,0,,0,5,5,41,1,STREAM,HB,old,m,./images/STREAMHB.png,,,,,,,,,,,,,,,,,,,,,,,
,,,,,,,,,,,,,,,,,199162,18,2022-01-28_17h28.12.733,lexical_decision_task_DD_L6,2021.2.3,MacIntel,60.0024001,,,,,,,,,,,0.7983,1,,,,,,,,,,,,,,m,1,0.7983,,,,,,,,0.049865451,-0.41234375,0,0,0,,0,6,6,42,1,CHAIN,LB,old,m,./images/CHAINLB.png,,,,,,,,,,,,,,,,,,,,,,,
,,,,,,,,,,,,,,,,,199162,18,2022-01-28_17h28.12.733,lexical_decision_task_DD_L6,2021.2.3,MacIntel,60.0024001,,,,,,,,,,,0.8017,1,,,,,,,,,,,,,,z,1,0.8017,,,,,,,,0.049865451,-0.41234375,0,0,0,,0,7,7,140,1,DOVET,LB,old,z,./images/DOVETLB.png,,,,,,,,,,,,,,,,,,,,,,,
,,,,,,,,,,,,,,,,,199162,18,2022-01-28_17h28.12.733,lexical_decision_task_DD_L6,2021.2.3,MacIntel,60.0024001,,,,,,,,,,,1.8481,0,,,,,,,,,,,,,,z,0,1.8481,,,,,,,,0.049865451,-0.41234375,0,0,0,,0,8,8,32,1,HOCKEY,HB,old,m,./images/HOCKEYHB.png,,,,,,,,,,,,,,,,,,,,,,,
,,,,,,,,,,,,,,,,,199162,18,2022-01-28_17h28.12.733,lexical_decision_task_DD_L6,2021.2.3,MacIntel,60.0024001,,,,,,,,,,,0.9449,1,,,,,,,,,,,,,,z,1,0.9449,,,,,,,,0.049865451,-0.41234375,0,0,0,,0,9,9,114,1,RIKES,C,old,z,./images/RIKES.png,,,,,,,,,,,,,,,,,,,,,,,
,,,,,,,,,,,,,,,,,199162,18,2022-01-28_17h28.12.733,lexical_decision_task_DD_L6,2021.2.3,MacIntel,60.0024001,,,,,,,,,,,0.7987,1,,,,,,,,,,,,,,z,1,0.7987,,,,,,,,0.049865451,-0.41234375,0,0,0,,0,10,10,128,1,GRIFT,LB,old,z,./images/GRIFTLB.png,,,,,,,,,,,,,,,,,,,,,,,
,,,,,,,,,,,,,,,,,199162,18,2022-01-28_17h28.12.733,lexical_decision_task_DD_L6,2021.2.3,MacIntel,60.0024001,,,,,,,,,,,0.4963,1,,,,,,,,,,,,,,m,1,0.4963,,,,,,,,0.049865451,-0.41234375,0,0,0,,0,11,11,73,1,GLOVE,C,old,m,./images/GLOVE.png,,,,,,,,,,,,,,,,,,,,,,,
,,,,,,,,,,,,,,,,,199162,18,2022-01-28_17h28.12.733,lexical_decision_task_DD_L6,2021.2.3,MacIntel,60.0024001,,,,,,,,,,,1.2813,1,,,,,,,,,,,,,,z,1,1.2813,,,,,,,,0.049865451,-0.41234375,0,0,0,,0,12,12,88,1,GLUSH,HB,old,z,./images/GLUSHHB.png,,,,,,,,,,,,,,,,,,,,,,,
,,,,,,,,,,,,,,,,,199162,18,2022-01-28_17h28.12.733,lexical_decision_task_DD_L6,2021.2.3,MacIntel,60.0024001,,,,,,,,,,,0.5785,1,,,,,,,,,,,,,,z,1,0.5785,,,,,,,,0.049865451,-0.41234375,0,0,0,,0,13,13,144,1,NAIRY,C,old,z,./images/NAIRY.png,,,,,,,,,,,,,,,,,,,,,,,
,,,,,,,,,,,,,,,,,199162,18,2022-01-28_17h28.12.733,lexical_decision_task_DD_L6,2021.2.3,MacIntel,60.0024001,,,,,,,,,,,0.6452,1,,,,,,,,,,,,,,z,1,0.6452,,,,,,,,0.049865451,-0.41234375,0,0,0,,0,14,14,99,1,BACKY,C,old,z,./images/BACKY.png,,,,,,,,,,,,,,,,,,,,,,,
,,,,,,,,,,,,,,,,,199162,18,2022-01-28_17h28.12.733,lexical_decision_task_DD_L6,2021.2.3,MacIntel,60.0024001,,,,,,,,,,,1.5155,1,,,,,,,,,,,,,,m,1,1.5155,,,,,,,,0.049865451,-0.41234375,0,0,0,,0,15,15,69,1,ARROW,LB,old,m,./images/ARROWLB.png,,,,,,,,,,,,,,,,,,,,,,,
,,,,,,,,,,,,,,,,,199162,18,2022-01-28_17h28.12.733,lexical_decision_task_DD_L6,2021.2.3,MacIntel,60.0024001,,,,,,,,,,,0.7331,1,,,,,,,,,,,,,,m,1,0.7331,,,,,,,,0.049865451,-0.41234375,0,0,0,,0,16,16,23,1,CLOTH,HB,old,m,./images/CLOTHHB.png,,,,,,,,,,,,,,,,,,,,,,,
,,,,,,,,,,,,,,,,,199162,18,2022-01-28_17h28.12.733,lexical_decision_task_DD_L6,2021.2.3,MacIntel,60.0024001,,,,,,,,,,,0.6119,1,,,,,,,,,,,,,,m,1,0.6119,,,,,,,,0.049865451,-0.41234375,0,0,0,,0,17,17,7,1,WAGON,C,old,m,./images/WAGON.png,,,,,,,,,,,,,,,,,,,,,,,
,,,,,,,,,,,,,,,,,199162,18,2022-01-28_17h28.12.733,lexical_decision_task_DD_L6,2021.2.3,MacIntel,60.0024001,,,,,,,,,,,0.7784,1,,,,,,,,,,,,,,m,1,0.7784,,,,,,,,0.049865451,-0.41234375,0,0,0,,0,18,18,55,1,ALLEY,C,old,m,./images/ALLEY.png,,,,,,,,,,,,,,,,,,,,,,,
,,,,,,,,,,,,,,,,,199162,18,2022-01-28_17h28.12.733,lexical_decision_task_DD_L6,2021.2.3,MacIntel,60.0024001,,,,,,,,,,,1.5659,1,,,,,,,,,,,,,,z,1,1.5659,,,,,,,,0.049865451,-0.41234375,0,0,0,,0,19,19,94,1,BLANS,HB,old,z,./images/BLANSHB.png,,,,,,,,,,,,,,,,,,,,,,,
,,,,,,,,,,,,,,,,,199162,18,2022-01-28_17h28.12.733,lexical_decision_task_DD_L6,2021.2.3,MacIntel,60.0024001,,,,,,,,,,,0.4951,1,,,,,,,,,,,,,,m,1,0.4951,,,,,,,,0.049865451,-0.41234375,0,0,0,,0,20,20,22,1,CLOWN,C,old,m,./images/CLOWN.png,,,,,,,,,,,,,,,,,,,,,,,
,,,,,,,,,,,,,,,,,199162,18,2022-01-28_17h28.12.733,lexical_decision_task_DD_L6,2021.2.3,MacIntel,60.0024001,,,,,,,,,,,0.6546,1,,,,,,,,,,,,,,z,1,0.6546,,,,,,,,0.049865451,-0.41234375,0,0,0,,0,21,21,105,1,MOKER,C,old,z,./images/MOKER.png,,,,,,,,,,,,,,,,,,,,,,,
,,,,,,,,,,,,,,,,,199162,18,2022-01-28_17h28.12.733,lexical_decision_task_DD_L6,2021.2.3,MacIntel,60.0024001,,,,,,,,,,,0.7158,1,,,,,,,,,,,,,,m,1,0.7158,,,,,,,,0.049865451,-0.41234375,0,0,0,,0,22,22,9,1,DIVER,LB,old,m,./images/DIVERLB.png,,,,,,,,,,,,,,,,,,,,,,,
,,,,,,,,,,,,,,,,,199162,18,2022-01-28_17h28.12.733,lexical_decision_task_DD_L6,2021.2.3,MacIntel,60.0024001,,,,,,,,,,,0.5994,1,,,,,,,,,,,,,,m,1,0.5994,,,,,,,,0.049865451,-0.41234375,0,0,0,,0,23,23,81,1,DRILL,LB,old,m,./images/DRILLLB.png,,,,,,,,,,,,,,,,,,,,,,,
,,,,,,,,,,,,,,,,,199162,18,2022-01-28_17h28.12.733,lexical_decision_task_DD_L6,2021.2.3,MacIntel,60.0024001,,,,,,,,,,,0.6328,1,,,,,,,,,,,,,,m,1,0.6328,,,,,,,,0.049865451,-0.41234375,0,0,0,,0,24,24,77,1,WHEEL,HB,old,m,./images/WHEELHB.png,,,,,,,,,,,,,,,,,,,,,,,
,,,,,,,,,,,,,,,,,199162,18,2022-01-28_17h28.12.733,lexical_decision_task_DD_L6,2021.2.3,MacIntel,60.0024001,,,,,,,,,,,0.8284,1,,,,,,,,,,,,,,z,1,0.8284,,,,,,,,0.049865451,-0.41234375,0,0,0,,0,25,25,159,1,CUDDY,C,old,z,./images/CUDDY.png,,,,,,,,,,,,,,,,,,,,,,,
,,,,,,,,,,,,,,,,,199162,18,2022-01-28_17h28.12.733,lexical_decision_task_DD_L6,2021.2.3,MacIntel,60.0024001,,,,,,,,,,,0.6666,1,,,,,,,,,,,,,,z,1,0.6666,,,,,,,,0.049865451,-0.41234375,0,0,0,,0,26,26,125,1,MOOKY,LB,old,z,./images/MOOKYLB.png,,,,,,,,,,,,,,,,,,,,,,,
,,,,,,,,,,,,,,,,,199162,18,2022-01-28_17h28.12.733,lexical_decision_task_DD_L6,2021.2.3,MacIntel,60.0024001,,,,,,,,,,,0.5986,1,,,,,,,,,,,,,,z,1,0.5986,,,,,,,,0.049865451,-0.41234375,0,0,0,,0,27,27,167,1,ZONET,LB,old,z,./images/ZONETLB.png,,,,,,,,,,,,,,,,,,,,,,,
,,,,,,,,,,,,,,,,,199162,18,2022-01-28_17h28.12.733,lexical_decision_task_DD_L6,2021.2.3,MacIntel,60.0024001,,,,,,,,,,,0.5644,1,,,,,,,,,,,,,,m,1,0.5644,,,,,,,,0.049865451,-0.41234375,0,0,0,,0,28,28,54,1,CHERRY,LB,old,m,./images/CHERRYLB.png,,,,,,,,,,,,,,,,,,,,,,,
,,,,,,,,,,,,,,,,,199162,18,2022-01-28_17h28.12.733,lexical_decision_task_DD_L6,2021.2.3,MacIntel,60.0024001,,,,,,,,,,,0.6221,1,,,,,,,,,,,,,,z,1,0.6221,,,,,,,,0.049865451,-0.41234375,0,0,0,,0,29,29,120,1,RINED,C,old,z,./images/RINED.png,,,,,,,,,,,,,,,,,,,,,,,
,,,,,,,,,,,,,,,,,199162,18,2022-01-28_17h28.12.733,lexical_decision_task_DD_L6,2021.2.3,MacIntel,60.0024001,,,,,,,,,,,1.427,1,,,,,,,,,,,,,,m,1,1.427,,,,,,,,0.049865451,-0.41234375,0,0,0,,0,30,30,17,1,PARADE,HB,old,m,./images/PARADEHB.png,,,,,,,,,,,,,,,,,,,,,,,
,,,,,,,,,,,,,,,,,199162,18,2022-01-28_17h28.12.733,lexical_decision_task_DD_L6,2021.2.3,MacIntel,60.0024001,,,,,,,,,,,0.6327,1,,,,,,,,,,,,,,z,1,0.6327,,,,,,,,0.049865451,-0.41234375,0,0,0,,0,31,31,143,1,MONGS,LB,old,z,./images/MONGSLB.png,,,,,,,,,,,,,,,,,,,,,,,
,,,,,,,,,,,,,,,,,199162,18,2022-01-28_17h28.12.733,lexical_decision_task_DD_L6,2021.2.3,MacIntel,60.0024001,,,,,,,,,,,0.9476,1,,,,,,,,,,,,,,z,1,0.9476,,,,,,,,0.049865451,-0.41234375,0,0,0,,0,32,32,139,1,BLEAR,HB,old,z,./images/BLEARHB.png,,,,,,,,,,,,,,,,,,,,,,,
,,,,,,,,,,,,,,,,,199162,18,2022-01-28_17h28.12.733,lexical_decision_task_DD_L6,2021.2.3,MacIntel,60.0024001,,,,,,,,,,,1.277,1,,,,,,,,,,,,,,z,1,1.277,,,,,,,,0.049865451,-0.41234375,0,0,0,,0,33,33,115,1,MAWNS,HB,old,z,./images/MAWNSHB.png,,,,,,,,,,,,,,,,,,,,,,,
,,,,,,,,,,,,,,,,,199162,18,2022-01-28_17h28.12.733,lexical_decision_task_DD_L6,2021.2.3,MacIntel,60.0024001,,,,,,,,,,,0.7316,1,,,,,,,,,,,,,,z,1,0.7316,,,,,,,,0.049865451,-0.41234375,0,0,0,,0,34,34,95,1,HANTY,LB,old,z,./images/HANTYLB.png,,,,,,,,,,,,,,,,,,,,,,,
,,,,,,,,,,,,,,,,,199162,18,2022-01-28_17h28.12.733,lexical_decision_task_DD_L6,2021.2.3,MacIntel,60.0024001,,,,,,,,,,,0.5621,1,,,,,,,,,,,,,,m,1,0.5621,,,,,,,,0.049865451,-0.41234375,0,0,0,,0,35,35,31,1,STEAK,C,old,m,./images/STEAK.png,,,,,,,,,,,,,,,,,,,,,,,
,,,,,,,,,,,,,,,,,199162,18,2022-01-28_17h28.12.733,lexical_decision_task_DD_L6,2021.2.3,MacIntel,60.0024001,,,,,,,,,,,0.6497,1,,,,,,,,,,,,,,m,1,0.6497,,,,,,,,0.049865451,-0.41234375,0,0,0,,0,36,36,30,1,SLOPE,LB,old,m,./images/SLOPELB.png,,,,,,,,,,,,,,,,,,,,,,,
,,,,,,,,,,,,,,,,,199162,18,2022-01-28_17h28.12.733,lexical_decision_task_DD_L6,2021.2.3,MacIntel,60.0024001,,,,,,,,,,,1.3819,1,,,,,,,,,,,,,,m,1,1.3819,,,,,,,,0.049865451,-0.41234375,0,0,0,,0,37,37,74,1,JUMPER,HB,old,m,./images/JUMPERHB.png,,,,,,,,,,,,,,,,,,,,,,,
,,,,,,,,,,,,,,,,,199162,18,2022-01-28_17h28.12.733,lexical_decision_task_DD_L6,2021.2.3,MacIntel,60.0024001,,,,,,,,,,,0.5613,1,,,,,,,,,,,,,,z,1,0.5613,,,,,,,,0.049865451,-0.41234375,0,0,0,,0,38,38,84,1,HAXES,C,old,z,./images/HAXES.png,,,,,,,,,,,,,,,,,,,,,,,
,,,,,,,,,,,,,,,,,199162,18,2022-01-28_17h28.12.733,lexical_decision_task_DD_L6,2021.2.3,MacIntel,60.0024001,,,,,,,,,,,0.4962,1,,,,,,,,,,,,,,m,1,0.4962,,,,,,,,0.049865451,-0.41234375,0,0,0,,0,39,39,40,1,SNAKE,C,old,m,./images/SNAKE.png,,,,,,,,,,,,,,,,,,,,,,,
,,,,,,,,,,,,,,,,,199162,18,2022-01-28_17h28.12.733,lexical_decision_task_DD_L6,2021.2.3,MacIntel,60.0024001,,,,,,,,,,,0.5887,1,,,,,,,,,,,,,,z,1,0.5887,,,,,,,,0.049865451,-0.41234375,0,0,0,,0,40,40,156,1,HIXES,C,old,z,./images/HIXES.png,,,,,,,,,,,,,,,,,,,,,,,
,,,,,,,,,,,,,,,,,199162,18,2022-01-28_17h28.12.733,lexical_decision_task_DD_L6,2021.2.3,MacIntel,60.0024001,,,,,,,,,,,1.0997,1,,,,,,,,,,,,,,m,1,1.0997,,,,,,,,0.054136285,-0.402369792,0,0,0,space,0,41,41,12,1,BLOKE,LB,old,m,./images/BLOKELB.png,14.0489,,,,,,,,,,,,,,,,,,,,,,
,,,,,,,,,,,,,,,,,199162,18,2022-01-28_17h28.12.733,lexical_decision_task_DD_L6,2021.2.3,MacIntel,60.0024001,,,,,,,,,,,1.2448,1,,,,,,,,,,,,,,z,1,1.2448,,,,,,,,0.054136285,-0.402369792,0,0,0,,0,42,42,108,1,GRUET,C,old,z,./images/GRUET.png,,,,,,,,,,,,,,,,,,,,,,,
,,,,,,,,,,,,,,,,,199162,18,2022-01-28_17h28.12.733,lexical_decision_task_DD_L6,2021.2.3,MacIntel,60.0024001,,,,,,,,,,,0.6519,1,,,,,,,,,,,,,,z,1,0.6519,,,,,,,,0.054136285,-0.402369792,0,0,0,,0,43,43,119,1,PAFER,LB,old,z,./images/PAFERLB.png,,,,,,,,,,,,,,,,,,,,,,,
,,,,,,,,,,,,,,,,,199162,18,2022-01-28_17h28.12.733,lexical_decision_task_DD_L6,2021.2.3,MacIntel,60.0024001,,,,,,,,,,,0.916,1,,,,,,,,,,,,,,m,1,0.916,,,,,,,,0.054136285,-0.402369792,0,0,0,,0,44,44,62,1,MAMMAL,HB,old,m,./images/MAMMALHB.png,,,,,,,,,,,,,,,,,,,,,,,
,,,,,,,,,,,,,,,,,199162,18,2022-01-28_17h28.12.733,lexical_decision_task_DD_L6,2021.2.3,MacIntel,60.0024001,,,,,,,,,,,0.601,1,,,,,,,,,,,,,,m,1,0.601,,,,,,,,0.054136285,-0.402369792,0,0,0,,0,45,45,24,1,FLESH,LB,old,m,./images/FLESHLB.png,,,,,,,,,,,,,,,,,,,,,,,
,,,,,,,,,,,,,,,,,199162,18,2022-01-28_17h28.12.733,lexical_decision_task_DD_L6,2021.2.3,MacIntel,60.0024001,,,,,,,,,,,0.578,1,,,,,,,,,,,,,,z,1,0.578,,,,,,,,0.054136285,-0.402369792,0,0,0,,0,46,46,132,1,SCIFF,C,old,z,./images/SCIFF.png,,,,,,,,,,,,,,,,,,,,,,,
,,,,,,,,,,,,,,,,,199162,18,2022-01-28_17h28.12.733,lexical_decision_task_DD_L6,2021.2.3,MacIntel,60.0024001,,,,,,,,,,,0.5939,1,,,,,,,,,,,,,,m,1,0.5939,,,,,,,,0.054136285,-0.402369792,0,0,0,,0,47,47,78,1,BROOM,LB,old,m,./images/BROOMLB.png,,,,,,,,,,,,,,,,,,,,,,,
,,,,,,,,,,,,,,,,,199162,18,2022-01-28_17h28.12.733,lexical_decision_task_DD_L6,2021.2.3,MacIntel,60.0024001,,,,,,,,,,,0.4913,1,,,,,,,,,,,,,,m,1,0.4913,,,,,,,,0.054136285,-0.402369792,0,0,0,,0,48,48,45,1,MONKEY,LB,old,m,./images/MONKEYLB.png,,,,,,,,,,,,,,,,,,,,,,,
,,,,,,,,,,,,,,,,,199162,18,2022-01-28_17h28.12.733,lexical_decision_task_DD_L6,2021.2.3,MacIntel,60.0024001,,,,,,,,,,,0.4781,1,,,,,,,,,,,,,,z,1,0.4781,,,,,,,,0.054136285,-0.402369792,0,0,0,,0,49,49,117,1,STEEG,C,old,z,./images/STEEG.png,,,,,,,,,,,,,,,,,,,,,,,
,,,,,,,,,,,,,,,,,199162,18,2022-01-28_17h28.12.733,lexical_decision_task_DD_L6,2021.2.3,MacIntel,60.0024001,,,,,,,,,,,0.8785,1,,,,,,,,,,,,,,m,1,0.8785,,,,,,,,0.054136285,-0.402369792,0,0,0,,0,50,50,52,1,DESERT,C,old,m,./images/DESERT.png,,,,,,,,,,,,,,,,,,,,,,,
,,,,,,,,,,,,,,,,,199162,18,2022-01-28_17h28.12.733,lexical_decision_task_DD_L6,2021.2.3,MacIntel,60.0024001,,,,,,,,,,,0.6102,1,,,,,,,,,,,,,,m,1,0.6102,,,,,,,,0.054136285,-0.402369792,0,0,0,,0,51,51,66,1,STATUE,LB,old,m,./images/STATUELB.png,,,,,,,,,,,,,,,,,,,,,,,
,,,,,,,,,,,,,,,,,199162,18,2022-01-28_17h28.12.733,lexical_decision_task_DD_L6,2021.2.3,MacIntel,60.0024001,,,,,,,,,,,1.0818,1,,,,,,,,,,,,,,z,1,1.0818,,,,,,,,0.054136285,-0.402369792,0,0,0,,0,52,52,91,1,SHENS,HB,old,z,./images/SHENSHB.png,,,,,,,,,,,,,,,,,,,,,,,
,,,,,,,,,,,,,,,,,199162,18,2022-01-28_17h28.12.733,lexical_decision_task_DD_L6,2021.2.3,MacIntel,60.0024001,,,,,,,,,,,0.6666,1,,,,,,,,,,,,,,z,1,0.6666,,,,,,,,0.054136285,-0.402369792,0,0,0,,0,53,53,101,1,GLEET,LB,old,z,./images/GLEETLB.png,,,,,,,,,,,,,,,,,,,,,,,
,,,,,,,,,,,,,,,,,199162,18,2022-01-28_17h28.12.733,lexical_decision_task_DD_L6,2021.2.3,MacIntel,60.0024001,,,,,,,,,,,0.7181,1,,,,,,,,,,,,,,m,1,0.7181,,,,,,,,0.054136285,-0.402369792,0,0,0,,0,54,54,5,1,BAMBOO,HB,old,m,./images/BAMBOOHB.png,,,,,,,,,,,,,,,,,,,,,,,
,,,,,,,,,,,,,,,,,199162,18,2022-01-28_17h28.12.733,lexical_decision_task_DD_L6,2021.2.3,MacIntel,60.0024001,,,,,,,,,,,0.4617,1,,,,,,,,,,,,,,z,1,0.4617,,,,,,,,0.054136285,-0.402369792,0,0,0,,0,55,55,147,1,ZOLES,C,old,z,./images/ZOLES.png,,,,,,,,,,,,,,,,,,,,,,,
,,,,,,,,,,,,,,,,,199162,18,2022-01-28_17h28.12.733,lexical_decision_task_DD_L6,2021.2.3,MacIntel,60.0024001,,,,,,,,,,,0.6326,1,,,,,,,,,,,,,,z,1,0.6326,,,,,,,,0.054136285,-0.402369792,0,0,0,,0,56,56,149,1,VEASE,LB,old,z,./images/VEASELB.png,,,,,,,,,,,,,,,,,,,,,,,
,,,,,,,,,,,,,,,,,199162,18,2022-01-28_17h28.12.733,lexical_decision_task_DD_L6,2021.2.3,MacIntel,60.0024001,,,,,,,,,,,0.8684,1,,,,,,,,,,,,,,m,1,0.8684,,,,,,,,0.054136285,-0.402369792,0,0,0,,0,57,57,57,1,FERRY,LB,old,m,./images/FERRYLB.png,,,,,,,,,,,,,,,,,,,,,,,
,,,,,,,,,,,,,,,,,199162,18,2022-01-28_17h28.12.733,lexical_decision_task_DD_L6,2021.2.3,MacIntel,60.0024001,,,,,,,,,,,0.506,1,,,,,,,,,,,,,,z,1,0.506,,,,,,,,0.054136285,-0.402369792,0,0,0,,0,58,58,111,1,HOSSE,C,old,z,./images/HOSSE.png,,,,,,,,,,,,,,,,,,,,,,,
,,,,,,,,,,,,,,,,,199162,18,2022-01-28_17h28.12.733,lexical_decision_task_DD_L6,2021.2.3,MacIntel,60.0024001,,,,,,,,,,,0.6341,1,,,,,,,,,,,,,,m,1,0.6341,,,,,,,,0.054136285,-0.402369792,0,0,0,,0,59,59,68,1,VALLEY,HB,old,m,./images/VALLEYHB.png,,,,,,,,,,,,,,,,,,,,,,,
,,,,,,,,,,,,,,,,,199162,18,2022-01-28_17h28.12.733,lexical_decision_task_DD_L6,2021.2.3,MacIntel,60.0024001,,,,,,,,,,,2.3984,1,,,,,,,,,,,,,,z,1,2.3984,,,,,,,,0.054136285,-0.402369792,0,0,0,,0,60,60,85,1,CHULK,HB,old,z,./images/CHULKHB.png,,,,,,,,,,,,,,,,,,,,,,,
,,,,,,,,,,,,,,,,,199162,18,2022-01-28_17h28.12.733,lexical_decision_task_DD_L6,2021.2.3,MacIntel,60.0024001,,,,,,,,,,,0.9468,1,,,,,,,,,,,,,,z,1,0.9468,,,,,,,,0.054136285,-0.402369792,0,0,0,,0,61,61,153,1,CLUPS,C,old,z,./images/CLUPS.png,,,,,,,,,,,,,,,,,,,,,,,
,,,,,,,,,,,,,,,,,199162,18,2022-01-28_17h28.12.733,lexical_decision_task_DD_L6,2021.2.3,MacIntel,60.0024001,,,,,,,,,,,0.5121,1,,,,,,,,,,,,,,m,1,0.5121,,,,,,,,0.054136285,-0.402369792,0,0,0,,0,62,62,64,1,BRIDE,C,old,m,./images/BRIDE.png,,,,,,,,,,,,,,,,,,,,,,,
,,,,,,,,,,,,,,,,,199162,18,2022-01-28_17h28.12.733,lexical_decision_task_DD_L6,2021.2.3,MacIntel,60.0024001,,,,,,,,,,,0.8634,1,,,,,,,,,,,,,,m,1,0.8634,,,,,,,,0.054136285,-0.402369792,0,0,0,,0,63,63,60,1,CURRY,LB,old,m,./images/CURRYLB.png,,,,,,,,,,,,,,,,,,,,,,,
,,,,,,,,,,,,,,,,,199162,18,2022-01-28_17h28.12.733,lexical_decision_task_DD_L6,2021.2.3,MacIntel,60.0024001,,,,,,,,,,,1.4677,1,,,,,,,,,,,,,,z,1,1.4677,,,,,,,,0.054136285,-0.402369792,0,0,0,,0,64,64,127,1,NINDY,HB,old,z,./images/NINDYHB.png,,,,,,,,,,,,,,,,,,,,,,,
,,,,,,,,,,,,,,,,,199162,18,2022-01-28_17h28.12.733,lexical_decision_task_DD_L6,2021.2.3,MacIntel,60.0024001,,,,,,,,,,,1.0113,1,,,,,,,,,,,,,,z,1,1.0113,,,,,,,,0.054136285,-0.402369792,0,0,0,,0,65,65,142,1,PLASK,HB,old,z,./images/PLASKHB.png,,,,,,,,,,,,,,,,,,,,,,,
,,,,,,,,,,,,,,,,,199162,18,2022-01-28_17h28.12.733,lexical_decision_task_DD_L6,2021.2.3,MacIntel,60.0024001,,,,,,,,,,,0.5639,1,,,,,,,,,,,,,,m,1,0.5639,,,,,,,,0.054136285,-0.402369792,0,0,0,,0,66,66,27,1,BUTTER,LB,old,m,./images/BUTTERLB.png,,,,,,,,,,,,,,,,,,,,,,,
,,,,,,,,,,,,,,,,,199162,18,2022-01-28_17h28.12.733,lexical_decision_task_DD_L6,2021.2.3,MacIntel,60.0024001,,,,,,,,,,,0.716,1,,,,,,,,,,,,,,m,1,0.716,,,,,,,,0.054136285,-0.402369792,0,0,0,,0,67,67,75,1,HAMMER,LB,old,m,./images/HAMMERLB.png,,,,,,,,,,,,,,,,,,,,,,,
,,,,,,,,,,,,,,,,,199162,18,2022-01-28_17h28.12.733,lexical_decision_task_DD_L6,2021.2.3,MacIntel,60.0024001,,,,,,,,,,,0.7837,1,,,,,,,,,,,,,,m,1,0.7837,,,,,,,,0.054136285,-0.402369792,0,0,0,,0,68,68,44,1,BASKET,HB,old,m,./images/BASKETHB.png,,,,,,,,,,,,,,,,,,,,,,,
,,,,,,,,,,,,,,,,,199162,18,2022-01-28_17h28.12.733,lexical_decision_task_DD_L6,2021.2.3,MacIntel,60.0024001,,,,,,,,,,,1.2488,1,,,,,,,,,,,,,,z,1,1.2488,,,,,,,,0.054136285,-0.402369792,0,0,0,,0,69,69,133,1,POWDY,HB,old,z,./images/POWDYHB.png,,,,,,,,,,,,,,,,,,,,,,,
,,,,,,,,,,,,,,,,,199162,18,2022-01-28_17h28.12.733,lexical_decision_task_DD_L6,2021.2.3,MacIntel,60.0024001,,,,,,,,,,,0.5683,1,,,,,,,,,,,,,,m,1,0.5683,,,,,,,,0.054136285,-0.402369792,0,0,0,,0,70,70,36,1,BOILER,LB,old,m,./images/BOILERLB.png,,,,,,,,,,,,,,,,,,,,,,,
,,,,,,,,,,,,,,,,,199162,18,2022-01-28_17h28.12.733,lexical_decision_task_DD_L6,2021.2.3,MacIntel,60.0024001,,,,,,,,,,,0.5261,1,,,,,,,,,,,,,,m,1,0.5261,,,,,,,,0.054136285,-0.402369792,0,0,0,,0,71,71,48,1,SHIELD,LB,old,m,./images/SHIELDLB.png,,,,,,,,,,,,,,,,,,,,,,,
,,,,,,,,,,,,,,,,,199162,18,2022-01-28_17h28.12.733,lexical_decision_task_DD_L6,2021.2.3,MacIntel,60.0024001,,,,,,,,,,,1.3822,1,,,,,,,,,,,,,,z,1,1.3822,,,,,,,,0.054136285,-0.402369792,0,0,0,,0,72,72,118,1,BAVEL,HB,old,z,./images/BAVELHB.png,,,,,,,,,,,,,,,,,,,,,,,
,,,,,,,,,,,,,,,,,199162,18,2022-01-28_17h28.12.733,lexical_decision_task_DD_L6,2021.2.3,MacIntel,60.0024001,,,,,,,,,,,0.7115,1,,,,,,,,,,,,,,z,1,0.7115,,,,,,,,0.054136285,-0.402369792,0,0,0,,0,73,73,129,1,PRANS,C,old,z,./images/PRANS.png,,,,,,,,,,,,,,,,,,,,,,,
,,,,,,,,,,,,,,,,,199162,18,2022-01-28_17h28.12.733,lexical_decision_task_DD_L6,2021.2.3,MacIntel,60.0024001,,,,,,,,,,,0.5113,1,,,,,,,,,,,,,,m,1,0.5113,,,,,,,,0.054136285,-0.402369792,0,0,0,,0,74,74,46,1,MUMMY,C,old,m,./images/MUMMY.png,,,,,,,,,,,,,,,,,,,,,,,
,,,,,,,,,,,,,,,,,199162,18,2022-01-28_17h28.12.733,lexical_decision_task_DD_L6,2021.2.3,MacIntel,60.0024001,,,,,,,,,,,0.743,1,,,,,,,,,,,,,,m,1,0.743,,,,,,,,0.054136285,-0.402369792,0,0,0,,0,75,75,59,1,BRUSH,HB,old,m,./images/BRUSHHB.png,,,,,,,,,,,,,,,,,,,,,,,
,,,,,,,,,,,,,,,,,199162,18,2022-01-28_17h28.12.733,lexical_decision_task_DD_L6,2021.2.3,MacIntel,60.0024001,,,,,,,,,,,0.566,1,,,,,,,,,,,,,,m,1,0.566,,,,,,,,0.054136285,-0.402369792,0,0,0,,0,76,76,72,1,FLASK,LB,old,m,./images/FLASKLB.png,,,,,,,,,,,,,,,,,,,,,,,
,,,,,,,,,,,,,,,,,199162,18,2022-01-28_17h28.12.733,lexical_decision_task_DD_L6,2021.2.3,MacIntel,60.0024001,,,,,,,,,,,0.528,1,,,,,,,,,,,,,,z,1,0.528,,,,,,,,0.054136285,-0.402369792,0,0,0,,0,77,77,96,1,KEAMS,C,old,z,./images/KEAMS.png,,,,,,,,,,,,,,,,,,,,,,,
,,,,,,,,,,,,,,,,,199162,18,2022-01-28_17h28.12.733,lexical_decision_task_DD_L6,2021.2.3,MacIntel,60.0024001,,,,,,,,,,,0.6343,1,,,,,,,,,,,,,,m,1,0.6343,,,,,,,,0.054136285,-0.402369792,0,0,0,,0,78,78,53,1,POSTER,HB,old,m,./images/POSTERHB.png,,,,,,,,,,,,,,,,,,,,,,,
,,,,,,,,,,,,,,,,,199162,18,2022-01-28_17h28.12.733,lexical_decision_task_DD_L6,2021.2.3,MacIntel,60.0024001,,,,,,,,,,,2.8479,1,,,,,,,,,,,,,,z,1,2.8479,,,,,,,,0.054136285,-0.402369792,0,0,0,,0,79,79,157,1,INLER,HB,old,z,./images/INLERHB.png,,,,,,,,,,,,,,,,,,,,,,,
,,,,,,,,,,,,,,,,,199162,18,2022-01-28_17h28.12.733,lexical_decision_task_DD_L6,2021.2.3,MacIntel,60.0024001,,,,,,,,,,,0.7488,1,,,,,,,,,,,,,,z,1,0.7488,,,,,,,,0.054136285,-0.402369792,0,0,0,,0,80,80,122,1,BLOOT,LB,old,z,./images/BLOOTLB.png,,,,,,,,,,,,,,,,,,,,,,,
,,,,,,,,,,,,,,,,,199162,18,2022-01-28_17h28.12.733,lexical_decision_task_DD_L6,2021.2.3,MacIntel,60.0024001,,,,,,,,,,,1.2994,1,,,,,,,,,,,,,,z,1,1.2994,,,,,,,,0.054136285,-0.402369792,0,0,0,,0,81,81,130,1,CRILL,HB,old,z,./images/CRILLHB.png,,,,,,,,,,,,,,,,,,,,,,,
,,,,,,,,,,,,,,,,,199162,18,2022-01-28_17h28.12.733,lexical_decision_task_DD_L6,2021.2.3,MacIntel,60.0024001,,,,,,,,,,,1.7508,1,,,,,,,,,,,,,,z,1,1.7508,,,,,,,,0.054136285,-0.402369792,0,0,0,,0,82,82,106,1,CLUMS,HB,old,z,./images/CLUMSHB.png,,,,,,,,,,,,,,,,,,,,,,,
,,,,,,,,,,,,,,,,,199162,18,2022-01-28_17h28.12.733,lexical_decision_task_DD_L6,2021.2.3,MacIntel,60.0024001,,,,,,,,,,,0.6271,1,,,,,,,,,,,,,,z,1,0.6271,,,,,,,,0.061679687,-0.385347222,1,0,0,,0,83,83,135,1,JOODY,C,old,z,./images/JOODY.png,,break_done_button,,,,,,,,,,,,,,,,,,,,,
,,,,,,,,,,,,,,,,,199162,18,2022-01-28_17h28.12.733,lexical_decision_task_DD_L6,2021.2.3,MacIntel,60.0024001,,,,,,,,,,,0.9147,0,,,,,,,,,,,,,,z,0,0.9147,,,,,,,,0.028033854,-0.288446181,0,0,0,,0,84,84,71,1,BUBBLE,HB,old,m,./images/BUBBLEHB.png,,,,,,,,,,,,,,,,,,,,,,,
,,,,,,,,,,,,,,,,,199162,18,2022-01-28_17h28.12.733,lexical_decision_task_DD_L6,2021.2.3,MacIntel,60.0024001,,,,,,,,,,,0.9001,1,,,,,,,,,,,,,,z,1,0.9001,,,,,,,,0.028033854,-0.288446181,0,0,0,,0,85,85,160,1,VEETS,HB,old,z,./images/VEETSHB.png,,,,,,,,,,,,,,,,,,,,,,,
,,,,,,,,,,,,,,,,,199162,18,2022-01-28_17h28.12.733,lexical_decision_task_DD_L6,2021.2.3,MacIntel,60.0024001,,,,,,,,,,,0.8821,1,,,,,,,,,,,,,,z,1,0.8821,,,,,,,,0.028033854,-0.288446181,0,0,0,,0,86,86,158,1,EGECT,LB,old,z,./images/EGECTLB.png,,,,,,,,,,,,,,,,,,,,,,,
,,,,,,,,,,,,,,,,,199162,18,2022-01-28_17h28.12.733,lexical_decision_task_DD_L6,2021.2.3,MacIntel,60.0024001,,,,,,,,,,,1.1155,1,,,,,,,,,,,,,,m,1,1.1155,,,,,,,,0.028033854,-0.288446181,0,0,0,,0,87,87,35,1,LLAMA,HB,old,m,./images/LLAMAHB.png,,,,,,,,,,,,,,,,,,,,,,,
,,,,,,,,,,,,,,,,,199162,18,2022-01-28_17h28.12.733,lexical_decision_task_DD_L6,2021.2.3,MacIntel,60.0024001,,,,,,,,,,,0.5822,1,,,,,,,,,,,,,,z,1,0.5822,,,,,,,,0.028033854,-0.288446181,0,0,0,,0,88,88,104,1,GITTY,LB,old,z,./images/GITTYLB.png,,,,,,,,,,,,,,,,,,,,,,,
,,,,,,,,,,,,,,,,,199162,18,2022-01-28_17h28.12.733,lexical_decision_task_DD_L6,2021.2.3,MacIntel,60.0024001,,,,,,,,,,,0.4837,1,,,,,,,,,,,,,,m,1,0.4837,,,,,,,,0.028033854,-0.288446181,0,0,0,,0,89,89,0,1,WALNUT,LB,old,m,./images/WALNUTLB.png,,,,,,,,,,,,,,,,,,,,,,,
,,,,,,,,,,,,,,,,,199162,18,2022-01-28_17h28.12.733,lexical_decision_task_DD_L6,2021.2.3,MacIntel,60.0024001,,,,,,,,,,,0.5991,1,,,,,,,,,,,,,,z,1,0.5991,,,,,,,,0.028033854,-0.288446181,0,0,0,,0,90,90,155,1,CANGY,LB,old,z,./images/CANGYLB.png,,,,,,,,,,,,,,,,,,,,,,,
,,,,,,,,,,,,,,,,,199162,18,2022-01-28_17h28.12.733,lexical_decision_task_DD_L6,2021.2.3,MacIntel,60.0024001,,,,,,,,,,,0.8876,1,,,,,,,,,,,,,,m,1,0.8876,,,,,,,,0.028033854,-0.288446181,0,0,0,,0,91,91,80,1,PLANET,HB,old,m,./images/PLANETHB.png,,,,,,,,,,,,,,,,,,,,,,,
,,,,,,,,,,,,,,,,,199162,18,2022-01-28_17h28.12.733,lexical_decision_task_DD_L6,2021.2.3,MacIntel,60.0024001,,,,,,,,,,,0.6481,1,,,,,,,,,,,,,,m,1,0.6481,,,,,,,,0.028033854,-0.288446181,0,0,0,,0,92,92,61,1,ARTIST,C,old,m,./images/ARTIST.png,,,,,,,,,,,,,,,,,,,,,,,
,,,,,,,,,,,,,,,,,199162,18,2022-01-28_17h28.12.733,lexical_decision_task_DD_L6,2021.2.3,MacIntel,60.0024001,,,,,,,,,,,0.482,1,,,,,,,,,,,,,,m,1,0.482,,,,,,,,0.028033854,-0.288446181,0,0,0,,0,93,93,21,1,DANCER,LB,old,m,./images/DANCERLB.png,,,,,,,,,,,,,,,,,,,,,,,
,,,,,,,,,,,,,,,,,199162,18,2022-01-28_17h28.12.733,lexical_decision_task_DD_L6,2021.2.3,MacIntel,60.0024001,,,,,,,,,,,0.532,1,,,,,,,,,,,,,,z,1,0.532,,,,,,,,0.028033854,-0.288446181,0,0,0,,0,94,94,98,1,BAMPS,LB,old,z,./images/BAMPSLB.png,,,,,,,,,,,,,,,,,,,,,,,
,,,,,,,,,,,,,,,,,199162,18,2022-01-28_17h28.12.733,lexical_decision_task_DD_L6,2021.2.3,MacIntel,60.0024001,,,,,,,,,,,0.6987,1,,,,,,,,,,,,,,m,1,0.6987,,,,,,,,0.028033854,-0.288446181,0,0,0,,0,95,95,43,1,STOOL,C,old,m,./images/STOOL.png,,,,,,,,,,,,,,,,,,,,,,,
,,,,,,,,,,,,,,,,,199162,18,2022-01-28_17h28.12.733,lexical_decision_task_DD_L6,2021.2.3,MacIntel,60.0024001,,,,,,,,,,,0.4763,1,,,,,,,,,,,,,,z,1,0.4763,,,,,,,,0.028033854,-0.288446181,0,0,0,,0,96,96,102,1,DULLE,C,old,z,./images/DULLE.png,,,,,,,,,,,,,,,,,,,,,,,
,,,,,,,,,,,,,,,,,199162,18,2022-01-28_17h28.12.733,lexical_decision_task_DD_L6,2021.2.3,MacIntel,60.0024001,,,,,,,,,,,1.2157,1,,,,,,,,,,,,,,z,1,1.2157,,,,,,,,0.028033854,-0.288446181,0,0,0,,0,97,97,100,1,DRIBS,HB,old,z,./images/DRIBSHB.png,,,,,,,,,,,,,,,,,,,,,,,
,,,,,,,,,,,,,,,,,199162,18,2022-01-28_17h28.12.733,lexical_decision_task_DD_L6,2021.2.3,MacIntel,60.0024001,,,,,,,,,,,1.0487,1,,,,,,,,,,,,,,z,1,1.0487,,,,,,,,0.028033854,-0.288446181,0,0,0,,0,98,98,121,1,CEERS,HB,old,z,./images/CEERSHB.png,,,,,,,,,,,,,,,,,,,,,,,
,,,,,,,,,,,,,,,,,199162,18,2022-01-28_17h28.12.733,lexical_decision_task_DD_L6,2021.2.3,MacIntel,60.0024001,,,,,,,,,,,0.8317,1,,,,,,,,,,,,,,z,1,0.8317,,,,,,,,0.028033854,-0.288446181,0,0,0,,0,99,99,163,1,GAMBA,HB,old,z,./images/GAMBAHB.png,,,,,,,,,,,,,,,,,,,,,,,
,,,,,,,,,,,,,,,,,199162,18,2022-01-28_17h28.12.733,lexical_decision_task_DD_L6,2021.2.3,MacIntel,60.0024001,,,,,,,,,,,0.8172,1,,,,,,,,,,,,,,z,1,0.8172,,,,,,,,0.028033854,-0.288446181,0,0,0,,0,100,100,124,1,TUNCH,HB,old,z,./images/TUNCHHB.png,,,,,,,,,,,,,,,,,,,,,,,
,,,,,,,,,,,,,,,,,199162,18,2022-01-28_17h28.12.733,lexical_decision_task_DD_L6,2021.2.3,MacIntel,60.0024001,,,,,,,,,,,0.5783,1,,,,,,,,,,,,,,m,1,0.5783,,,,,,,,0.028033854,-0.288446181,0,0,0,,0,101,101,70,1,BANANA,C,old,m,./images/BANANA.png,,,,,,,,,,,,,,,,,,,,,,,
,,,,,,,,,,,,,,,,,199162,18,2022-01-28_17h28.12.733,lexical_decision_task_DD_L6,2021.2.3,MacIntel,60.0024001,,,,,,,,,,,0.576,1,,,,,,,,,,,,,,z,1,0.576,,,,,,,,0.028033854,-0.288446181,0,0,0,,0,102,102,137,1,JOOST,LB,old,z,./images/JOOSTLB.png,,,,,,,,,,,,,,,,,,,,,,,
,,,,,,,,,,,,,,,,,199162,18,2022-01-28_17h28.12.733,lexical_decision_task_DD_L6,2021.2.3,MacIntel,60.0024001,,,,,,,,,,,0.8495,1,,,,,,,,,,,,,,z,1,0.8495,,,,,,,,0.028033854,-0.288446181,0,0,0,,0,103,103,112,1,MYING,HB,old,z,./images/MYINGHB.png,,,,,,,,,,,,,,,,,,,,,,,
,,,,,,,,,,,,,,,,,199162,18,2022-01-28_17h28.12.733,lexical_decision_task_DD_L6,2021.2.3,MacIntel,60.0024001,,,,,,,,,,,0.5654,1,,,,,,,,,,,,,,m,1,0.5654,,,,,,,,0.028033854,-0.288446181,0,0,0,,0,104,104,63,1,BAKER,LB,old,m,./images/BAKERLB.png,,,,,,,,,,,,,,,,,,,,,,,
,,,,,,,,,,,,,,,,,199162,18,2022-01-28_17h28.12.733,lexical_decision_task_DD_L6,2021.2.3,MacIntel,60.0024001,,,,,,,,,,,0.7821,1,,,,,,,,,,,,,,z,1,0.7821,,,,,,,,0.028033854,-0.288446181,0,0,0,,0,105,105,151,1,TINKY,HB,old,z,./images/TINKYHB.png,,,,,,,,,,,,,,,,,,,,,,,
,,,,,,,,,,,,,,,,,199162,18,2022-01-28_17h28.12.733,lexical_decision_task_DD_L6,2021.2.3,MacIntel,60.0024001,,,,,,,,,,,0.6678,1,,,,,,,,,,,,,,m,1,0.6678,,,,,,,,0.028033854,-0.288446181,0,0,0,,0,106,106,33,1,SAUNA,LB,old,m,./images/SAUNALB.png,,,,,,,,,,,,,,,,,,,,,,,
,,,,,,,,,,,,,,,,,199162,18,2022-01-28_17h28.12.733,lexical_decision_task_DD_L6,2021.2.3,MacIntel,60.0024001,,,,,,,,,,,0.6808,0,,,,,,,,,,,,,,z,0,0.6808,,,,,,,,0.028033854,-0.288446181,0,0,0,,0,107,107,11,1,MEDAL,HB,old,m,./images/MEDALHB.png,,,,,,,,,,,,,,,,,,,,,,,
,,,,,,,,,,,,,,,,,199162,18,2022-01-28_17h28.12.733,lexical_decision_task_DD_L6,2021.2.3,MacIntel,60.0024001,,,,,,,,,,,1.0171,1,,,,,,,,,,,,,,z,1,1.0171,,,,,,,,0.028033854,-0.288446181,0,0,0,,0,108,108,103,1,FLORT,HB,old,z,./images/FLORTHB.png,,,,,,,,,,,,,,,,,,,,,,,
,,,,,,,,,,,,,,,,,199162,18,2022-01-28_17h28.12.733,lexical_decision_task_DD_L6,2021.2.3,MacIntel,60.0024001,,,,,,,,,,,0.5501,1,,,,,,,,,,,,,,z,1,0.5501,,,,,,,,0.028033854,-0.288446181,0,0,0,,0,109,109,131,1,NACES,LB,old,z,./images/NACESLB.png,,,,,,,,,,,,,,,,,,,,,,,
,,,,,,,,,,,,,,,,,199162,18,2022-01-28_17h28.12.733,lexical_decision_task_DD_L6,2021.2.3,MacIntel,60.0024001,,,,,,,,,,,0.6165,1,,,,,,,,,,,,,,z,1,0.6165,,,,,,,,0.028033854,-0.288446181,0,0,0,,0,110,110,136,1,WERVE,HB,old,z,./images/WERVEHB.png,,,,,,,,,,,,,,,,,,,,,,,
,,,,,,,,,,,,,,,,,199162,18,2022-01-28_17h28.12.733,lexical_decision_task_DD_L6,2021.2.3,MacIntel,60.0024001,,,,,,,,,,,0.5777,1,,,,,,,,,,,,,,m,1,0.5777,,,,,,,,0.028033854,-0.288446181,0,0,0,,0,111,111,25,1,CHALK,C,old,m,./images/CHALK.png,,,,,,,,,,,,,,,,,,,,,,,
,,,,,,,,,,,,,,,,,199162,18,2022-01-28_17h28.12.733,lexical_decision_task_DD_L6,2021.2.3,MacIntel,60.0024001,,,,,,,,,,,0.7492,1,,,,,,,,,,,,,,m,1,0.7492,,,,,,,,0.028033854,-0.288446181,0,0,0,,0,112,112,82,1,PEBBLE,C,old,m,./images/PEBBLE.png,,,,,,,,,,,,,,,,,,,,,,,
,,,,,,,,,,,,,,,,,199162,18,2022-01-28_17h28.12.733,lexical_decision_task_DD_L6,2021.2.3,MacIntel,60.0024001,,,,,,,,,,,0.6679,1,,,,,,,,,,,,,,m,1,0.6679,,,,,,,,0.028033854,-0.288446181,0,0,0,,0,113,113,47,1,LAGOON,HB,old,m,./images/LAGOONHB.png,,,,,,,,,,,,,,,,,,,,,,,
,,,,,,,,,,,,,,,,,199162,18,2022-01-28_17h28.12.733,lexical_decision_task_DD_L6,2021.2.3,MacIntel,60.0024001,,,,,,,,,,,0.4283,1,,,,,,,,,,,,,,m,1,0.4283,,,,,,,,0.028033854,-0.288446181,0,0,0,,0,114,114,16,1,GRAPE,C,old,m,./images/GRAPE.png,,,,,,,,,,,,,,,,,,,,,,,
,,,,,,,,,,,,,,,,,199162,18,2022-01-28_17h28.12.733,lexical_decision_task_DD_L6,2021.2.3,MacIntel,60.0024001,,,,,,,,,,,1.05,1,,,,,,,,,,,,,,m,1,1.05,,,,,,,,0.028033854,-0.288446181,0,0,0,,0,115,115,65,1,SPINE,HB,old,m,./images/SPINEHB.png,,,,,,,,,,,,,,,,,,,,,,,
,,,,,,,,,,,,,,,,,199162,18,2022-01-28_17h28.12.733,lexical_decision_task_DD_L6,2021.2.3,MacIntel,60.0024001,,,,,,,,,,,0.6537,1,,,,,,,,,,,,,,m,1,0.6537,,,,,,,,0.028033854,-0.288446181,0,0,0,,0,116,116,38,1,ENGINE,HB,old,m,./images/ENGINEHB.png,,,,,,,,,,,,,,,,,,,,,,,
,,,,,,,,,,,,,,,,,199162,18,2022-01-28_17h28.12.733,lexical_decision_task_DD_L6,2021.2.3,MacIntel,60.0024001,,,,,,,,,,,1.2499,1,,,,,,,,,,,,,,z,1,1.2499,,,,,,,,0.028033854,-0.288446181,0,0,0,,0,117,117,166,1,SHORY,HB,old,z,./images/SHORYHB.png,,,,,,,,,,,,,,,,,,,,,,,
,,,,,,,,,,,,,,,,,199162,18,2022-01-28_17h28.12.733,lexical_decision_task_DD_L6,2021.2.3,MacIntel,60.0024001,,,,,,,,,,,0.6613,1,,,,,,,,,,,,,,m,1,0.6613,,,,,,,,0.028033854,-0.288446181,0,0,0,,0,118,118,58,1,CANOE,C,old,m,./images/CANOE.png,,,,,,,,,,,,,,,,,,,,,,,
,,,,,,,,,,,,,,,,,199162,18,2022-01-28_17h28.12.733,lexical_decision_task_DD_L6,2021.2.3,MacIntel,60.0024001,,,,,,,,,,,0.7153,1,,,,,,,,,,,,,,z,1,0.7153,,,,,,,,0.028033854,-0.288446181,0,0,0,,0,119,119,92,1,PAIMS,LB,old,z,./images/PAIMSLB.png,,,,,,,,,,,,,,,,,,,,,,,
,,,,,,,,,,,,,,,,,199162,18,2022-01-28_17h28.12.733,lexical_decision_task_DD_L6,2021.2.3,MacIntel,60.0024001,,,,,,,,,,,0.5494,1,,,,,,,,,,,,,,m,1,0.5494,,,,,,,,0.028033854,-0.288446181,0,0,0,,0,120,120,39,1,CANDY,LB,old,m,./images/CANDYLB.png,,,,,,,,,,,,,,,,,,,,,,,
,,,,,,,,,,,,,,,,,199162,18,2022-01-28_17h28.12.733,lexical_decision_task_DD_L6,2021.2.3,MacIntel,60.0024001,,,,,,,,,,,0.7469,1,,,,,,,,,,,,,,m,1,0.7469,,,,,,,,0.028033854,-0.288446181,0,0,0,,0,121,121,49,1,BISHOP,C,old,m,./images/BISHOP.png,,,,,,,,,,,,,,,,,,,,,,,
,,,,,,,,,,,,,,,,,199162,18,2022-01-28_17h28.12.733,lexical_decision_task_DD_L6,2021.2.3,MacIntel,60.0024001,,,,,,,,,,,0.4994,1,,,,,,,,,,,,,,m,1,0.4994,,,,,,,,0.028033854,-0.288446181,0,0,0,,0,122,122,6,1,STAIN,LB,old,m,./images/STAINLB.png,,,,,,,,,,,,,,,,,,,,,,,
,,,,,,,,,,,,,,,,,199162,18,2022-01-28_17h28.12.733,lexical_decision_task_DD_L6,2021.2.3,MacIntel,60.0024001,,,,,,,,,,,1.3665,1,,,,,,,,,,,,,,m,1,1.3665,,,,,,,,0.028033854,-0.288446181,0,0,0,,0,123,123,83,1,WHISKY,HB,old,m,./images/WHISKYHB.png,,,,,,,,,,,,,,,,,,,,,,,
,,,,,,,,,,,,,,,,,199162,18,2022-01-28_17h28.12.733,lexical_decision_task_DD_L6,2021.2.3,MacIntel,60.0024001,,,,,,,,,,,0.5782,1,,,,,,,,,,,,,,z,1,0.5782,,,,,,,,0.028033854,-0.288446181,0,0,0,,0,124,124,90,1,NEAST,C,old,z,./images/NEAST.png,,,,,,,,,,,,,,,,,,,,,,,
,,,,,,,,,,,,,,,,,199162,18,2022-01-28_17h28.12.733,lexical_decision_task_DD_L6,2021.2.3,MacIntel,60.0024001,,,,,,,,,,,0.678,1,,,,,,,,,,,,,,z,1,0.678,,,,,,,,0.013884549,-0.351540799,1,0,0,,0,125,125,93,1,SMONE,C,old,z,./images/SMONE.png,,break_done_button,,,,,,,,,,,,,,,,,,,,,
,,,,,,,,,,,,,,,,,199162,18,2022-01-28_17h28.12.733,lexical_decision_task_DD_L6,2021.2.3,MacIntel,60.0024001,,,,,,,,,,,0.4954,1,,,,,,,,,,,,,,z,1,0.4954,,,,,,,,0.013884549,-0.351540799,0,0,0,,0,126,126,150,1,NOOLS,C,old,z,./images/NOOLS.png,,,,,,,,,,,,,,,,,,,,,,,
,,,,,,,,,,,,,,,,,199162,18,2022-01-28_17h28.12.733,lexical_decision_task_DD_L6,2021.2.3,MacIntel,60.0024001,,,,,,,,,,,0.4446,0,,,,,,,,,,,,,,z,0,0.4446,,,,,,,,0.013884549,-0.351540799,0,0,0,,0,127,127,79,1,RULER,C,old,m,./images/RULER.png,,,,,,,,,,,,,,,,,,,,,,,
,,,,,,,,,,,,,,,,,199162,18,2022-01-28_17h28.12.733,lexical_decision_task_DD_L6,2021.2.3,MacIntel,60.0024001,,,,,,,,,,,0.982,1,,,,,,,,,,,,,,m,1,0.982,,,,,,,,0.013884549,-0.351540799,0,0,0,,0,128,128,29,1,PISTOL,HB,old,m,./images/PISTOLHB.png,,,,,,,,,,,,,,,,,,,,,,,
,,,,,,,,,,,,,,,,,199162,18,2022-01-28_17h28.12.733,lexical_decision_task_DD_L6,2021.2.3,MacIntel,60.0024001,,,,,,,,,,,0.5482,1,,,,,,,,,,,,,,m,1,0.5482,,,,,,,,0.013884549,-0.351540799,0,0,0,,0,129,129,51,1,SAUCE,LB,old,m,./images/SAUCELB.png,,,,,,,,,,,,,,,,,,,,,,,
,,,,,,,,,,,,,,,,,199162,18,2022-01-28_17h28.12.733,lexical_decision_task_DD_L6,2021.2.3,MacIntel,60.0024001,,,,,,,,,,,0.5283,1,,,,,,,,,,,,,,m,1,0.5283,,,,,,,,0.013884549,-0.351540799,0,0,0,,0,130,130,19,1,DONKEY,C,old,m,./images/DONKEY.png,,,,,,,,,,,,,,,,,,,,,,,
,,,,,,,,,,,,,,,,,199162,18,2022-01-28_17h28.12.733,lexical_decision_task_DD_L6,2021.2.3,MacIntel,60.0024001,,,,,,,,,,,0.5604,0,,,,,,,,,,,,,,m,0,0.5604,,,,,,,,0.013884549,-0.351540799,0,0,0,,0,131,131,107,1,FASKS,LB,old,z,./images/FASKSLB.png,,,,,,,,,,,,,,,,,,,,,,,
,,,,,,,,,,,,,,,,,199162,18,2022-01-28_17h28.12.733,lexical_decision_task_DD_L6,2021.2.3,MacIntel,60.0024001,,,,,,,,,,,1.0829,1,,,,,,,,,,,,,,z,1,1.0829,,,,,,,,0.013884549,-0.351540799,0,0,0,,0,132,132,146,1,MOOST,LB,old,z,./images/MOOSTLB.png,,,,,,,,,,,,,,,,,,,,,,,
,,,,,,,,,,,,,,,,,199162,18,2022-01-28_17h28.12.733,lexical_decision_task_DD_L6,2021.2.3,MacIntel,60.0024001,,,,,,,,,,,0.5699,1,,,,,,,,,,,,,,z,1,0.5699,,,,,,,,0.013884549,-0.351540799,0,0,0,,0,133,133,162,1,LEICH,C,old,z,./images/LEICH.png,,,,,,,,,,,,,,,,,,,,,,,
,,,,,,,,,,,,,,,,,199162,18,2022-01-28_17h28.12.733,lexical_decision_task_DD_L6,2021.2.3,MacIntel,60.0024001,,,,,,,,,,,0.6296,1,,,,,,,,,,,,,,m,1,0.6296,,,,,,,,0.013884549,-0.351540799,0,0,0,,0,134,134,37,1,TIGER,C,old,m,./images/TIGER.png,,,,,,,,,,,,,,,,,,,,,,,
,,,,,,,,,,,,,,,,,199162,18,2022-01-28_17h28.12.733,lexical_decision_task_DD_L6,2021.2.3,MacIntel,60.0024001,,,,,,,,,,,1.0503,1,,,,,,,,,,,,,,m,1,1.0503,,,,,,,,0.013884549,-0.351540799,0,0,0,,0,135,135,8,1,CLIFF,HB,old,m,./images/CLIFFHB.png,,,,,,,,,,,,,,,,,,,,,,,
,,,,,,,,,,,,,,,,,199162,18,2022-01-28_17h28.12.733,lexical_decision_task_DD_L6,2021.2.3,MacIntel,60.0024001,,,,,,,,,,,0.6777,1,,,,,,,,,,,,,,m,1,0.6777,,,,,,,,0.013884549,-0.351540799,0,0,0,,0,136,136,34,1,RAZOR,C,old,m,./images/RAZOR.png,,,,,,,,,,,,,,,,,,,,,,,
,,,,,,,,,,,,,,,,,199162,18,2022-01-28_17h28.12.733,lexical_decision_task_DD_L6,2021.2.3,MacIntel,60.0024001,,,,,,,,,,,1.1156,1,,,,,,,,,,,,,,m,1,1.1156,,,,,,,,0.013884549,-0.351540799,0,0,0,,0,137,137,2,1,STOVE,HB,old,m,./images/STOVEHB.png,,,,,,,,,,,,,,,,,,,,,,,
,,,,,,,,,,,,,,,,,199162,18,2022-01-28_17h28.12.733,lexical_decision_task_DD_L6,2021.2.3,MacIntel,60.0024001,,,,,,,,,,,0.478,1,,,,,,,,,,,,,,m,1,0.478,,,,,,,,0.013884549,-0.351540799,0,0,0,,0,138,138,1,1,TOWEL,C,old,m,./images/TOWEL.png,,,,,,,,,,,,,,,,,,,,,,,
,,,,,,,,,,,,,,,,,199162,18,2022-01-28_17h28.12.733,lexical_decision_task_DD_L6,2021.2.3,MacIntel,60.0024001,,,,,,,,,,,1.0997,1,,,,,,,,,,,,,,m,1,1.0997,,,,,,,,0.013884549,-0.351540799,0,0,0,,0,139,139,20,1,GRANNY,HB,old,m,./images/GRANNYHB.png,,,,,,,,,,,,,,,,,,,,,,,
,,,,,,,,,,,,,,,,,199162,18,2022-01-28_17h28.12.733,lexical_decision_task_DD_L6,2021.2.3,MacIntel,60.0024001,,,,,,,,,,,0.5945,1,,,,,,,,,,,,,,z,1,0.5945,,,,,,,,0.013884549,-0.351540799,0,0,0,,0,140,140,123,1,SEDGE,C,old,z,./images/SEDGE.png,,,,,,,,,,,,,,,,,,,,,,,
,,,,,,,,,,,,,,,,,199162,18,2022-01-28_17h28.12.733,lexical_decision_task_DD_L6,2021.2.3,MacIntel,60.0024001,,,,,,,,,,,0.599,1,,,,,,,,,,,,,,z,1,0.599,,,,,,,,0.013884549,-0.351540799,0,0,0,,0,141,141,116,1,BALGY,LB,old,z,./images/BALGYLB.png,,,,,,,,,,,,,,,,,,,,,,,
,,,,,,,,,,,,,,,,,199162,18,2022-01-28_17h28.12.733,lexical_decision_task_DD_L6,2021.2.3,MacIntel,60.0024001,,,,,,,,,,,0.6462,1,,,,,,,,,,,,,,m,1,0.6462,,,,,,,,0.013884549,-0.351540799,0,0,0,,0,142,142,67,1,POKER,C,old,m,./images/POKER.png,,,,,,,,,,,,,,,,,,,,,,,
,,,,,,,,,,,,,,,,,199162,18,2022-01-28_17h28.12.733,lexical_decision_task_DD_L6,2021.2.3,MacIntel,60.0024001,,,,,,,,,,,0.7491,1,,,,,,,,,,,,,,z,1,0.7491,,,,,,,,0.0165625,-0.351210937,0,0,0,,0,143,143,164,1,SGREW,LB,old,z,./images/SGREWLB.png,,,,,,,,,,,,,,,,,,,,,,,
,,,,,,,,,,,,,,,,,199162,18,2022-01-28_17h28.12.733,lexical_decision_task_DD_L6,2021.2.3,MacIntel,60.0024001,,,,,,,,,,,0.5114,1,,,,,,,,,,,,,,z,1,0.5114,,,,,,,,0.0165625,-0.351210937,0,0,0,,0,144,144,126,1,GUELS,C,old,z,./images/GUELS.png,,,,,,,,,,,,,,,,,,,,,,,
,,,,,,,,,,,,,,,,,199162,18,2022-01-28_17h28.12.733,lexical_decision_task_DD_L6,2021.2.3,MacIntel,60.0024001,,,,,,,,,,,0.5322,1,,,,,,,,,,,,,,m,1,0.5322,,,,,,,,0.0165625,-0.351210937,0,0,0,,0,145,145,10,1,GARDEN,C,old,m,./images/GARDEN.png,,,,,,,,,,,,,,,,,,,,,,,
,,,,,,,,,,,,,,,,,199162,18,2022-01-28_17h28.12.733,lexical_decision_task_DD_L6,2021.2.3,MacIntel,60.0024001,,,,,,,,,,,0.7335,1,,,,,,,,,,,,,,m,1,0.7335,,,,,,,,0.0165625,-0.351210937,0,0,0,,0,146,146,56,1,HEATER,HB,old,m,./images/HEATERHB.png,,,,,,,,,,,,,,,,,,,,,,,
,,,,,,,,,,,,,,,,,199162,18,2022-01-28_17h28.12.733,lexical_decision_task_DD_L6,2021.2.3,MacIntel,60.0024001,,,,,,,,,,,0.568,1,,,,,,,,,,,,,,z,1,0.568,,,,,,,,0.0165625,-0.351210937,0,0,0,,0,147,147,86,1,AIFED,LB,old,z,./images/AIFEDLB.png,,,,,,,,,,,,,,,,,,,,,,,
,,,,,,,,,,,,,,,,,199162,18,2022-01-28_17h28.12.733,lexical_decision_task_DD_L6,2021.2.3,MacIntel,60.0024001,,,,,,,,,,,1.0492,1,,,,,,,,,,,,,,z,1,1.0492,,,,,,,,0.0165625,-0.351210937,0,0,0,,0,148,148,110,1,CRUNK,LB,old,z,./images/CRUNKLB.png,,,,,,,,,,,,,,,,,,,,,,,
,,,,,,,,,,,,,,,,,199162,18,2022-01-28_17h28.12.733,lexical_decision_task_DD_L6,2021.2.3,MacIntel,60.0024001,,,,,,,,,,,0.6537,1,,,,,,,,,,,,,,z,1,0.6537,,,,,,,,0.0165625,-0.351210937,0,0,0,,0,149,149,89,1,DRIEK,LB,old,z,./images/DRIEKLB.png,,,,,,,,,,,,,,,,,,,,,,,
,,,,,,,,,,,,,,,,,199162,18,2022-01-28_17h28.12.733,lexical_decision_task_DD_L6,2021.2.3,MacIntel,60.0024001,,,,,,,,,,,0.8008,1,,,,,,,,,,,,,,z,1,0.8008,,,,,,,,0.0165625,-0.351210937,0,0,0,,0,150,150,113,1,LINEW,LB,old,z,./images/LINEWLB.png,,,,,,,,,,,,,,,,,,,,,,,
,,,,,,,,,,,,,,,,,199162,18,2022-01-28_17h28.12.733,lexical_decision_task_DD_L6,2021.2.3,MacIntel,60.0024001,,,,,,,,,,,0.7152,1,,,,,,,,,,,,,,m,1,0.7152,,,,,,,,0.0165625,-0.351210937,0,0,0,,0,151,151,18,1,PARCEL,LB,old,m,./images/PARCELLB.png,,,,,,,,,,,,,,,,,,,,,,,
,,,,,,,,,,,,,,,,,199162,18,2022-01-28_17h28.12.733,lexical_decision_task_DD_L6,2021.2.3,MacIntel,60.0024001,,,,,,,,,,,1.1159,1,,,,,,,,,,,,,,z,1,1.1159,,,,,,,,0.0165625,-0.351210937,0,0,0,,0,152,152,161,1,BLAPS,LB,old,z,./images/BLAPSLB.png,,,,,,,,,,,,,,,,,,,,,,,
,,,,,,,,,,,,,,,,,199162,18,2022-01-28_17h28.12.733,lexical_decision_task_DD_L6,2021.2.3,MacIntel,60.0024001,,,,,,,,,,,0.7663,1,,,,,,,,,,,,,,z,1,0.7663,,,,,,,,0.0165625,-0.351210937,0,0,0,,0,153,153,152,1,FRAIN,LB,old,z,./images/FRAINLB.png,,,,,,,,,,,,,,,,,,,,,,,
,,,,,,,,,,,,,,,,,199162,18,2022-01-28_17h28.12.733,lexical_decision_task_DD_L6,2021.2.3,MacIntel,60.0024001,,,,,,,,,,,0.5321,1,,,,,,,,,,,,,,m,1,0.5321,,,,,,,,0.0165625,-0.351210937,0,0,0,,0,154,154,26,1,CLOUD,HB,old,m,./images/CLOUDHB.png,,,,,,,,,,,,,,,,,,,,,,,
,,,,,,,,,,,,,,,,,199162,18,2022-01-28_17h28.12.733,lexical_decision_task_DD_L6,2021.2.3,MacIntel,60.0024001,,,,,,,,,,,1.2318,1,,,,,,,,,,,,,,z,1,1.2318,,,,,,,,0.0165625,-0.351210937,0,0,0,,0,155,155,109,1,BURGE,HB,old,z,./images/BURGEHB.png,,,,,,,,,,,,,,,,,,,,,,,
,,,,,,,,,,,,,,,,,199162,18,2022-01-28_17h28.12.733,lexical_decision_task_DD_L6,2021.2.3,MacIntel,60.0024001,,,,,,,,,,,0.5945,1,,,,,,,,,,,,,,z,1,0.5945,,,,,,,,0.0165625,-0.351210937,0,0,0,,0,156,156,165,1,TROWN,C,old,z,./images/TROWN.png,,,,,,,,,,,,,,,,,,,,,,,
,,,,,,,,,,,,,,,,,199162,18,2022-01-28_17h28.12.733,lexical_decision_task_DD_L6,2021.2.3,MacIntel,60.0024001,,,,,,,,,,,0.9016,1,,,,,,,,,,,,,,m,1,0.9016,,,,,,,,0.0165625,-0.351210937,0,0,0,,0,157,157,3,1,CRATER,LB,old,m,./images/CRATERLB.png,,,,,,,,,,,,,,,,,,,,,,,
,,,,,,,,,,,,,,,,,199162,18,2022-01-28_17h28.12.733,lexical_decision_task_DD_L6,2021.2.3,MacIntel,60.0024001,,,,,,,,,,,0.5104,1,,,,,,,,,,,,,,m,1,0.5104,,,,,,,,0.0165625,-0.351210937,0,0,0,,0,158,158,13,1,BUNNY,C,old,m,./images/BUNNY.png,,,,,,,,,,,,,,,,,,,,,,,
,,,,,,,,,,,,,,,,,199162,18,2022-01-28_17h28.12.733,lexical_decision_task_DD_L6,2021.2.3,MacIntel,60.0024001,,,,,,,,,,,0.9823,1,,,,,,,,,,,,,,z,1,0.9823,,,,,,,,0.0165625,-0.351210937,0,0,0,,0,159,159,145,1,LAMEL,HB,old,z,./images/LAMELHB.png,,,,,,,,,,,,,,,,,,,,,,,
,,,,,,,,,,,,,,,,,199162,18,2022-01-28_17h28.12.733,lexical_decision_task_DD_L6,2021.2.3,MacIntel,60.0024001,,,,,,,,,,,0.5525,1,,,,,,,,,,,,,,m,1,0.5525,,,,,,,,0.0165625,-0.351210937,0,0,0,,0,160,160,28,1,CASINO,C,old,m,./images/CASINO.png,,,,,,,,,,,,,,,,,,,,,,,
,,,,,,,,,,,,,,,,,199162,18,2022-01-28_17h28.12.733,lexical_decision_task_DD_L6,2021.2.3,MacIntel,60.0024001,,,,,,,,,,,0.5446,1,,,,,,,,,,,,,,m,1,0.5446,,,,,,,,0.0165625,-0.351210937,0,0,0,,0,161,161,4,1,BOXER,C,old,m,./images/BOXER.png,,,,,,,,,,,,,,,,,,,,,,,
,,,,,,,,,,,,,,,,,199162,18,2022-01-28_17h28.12.733,lexical_decision_task_DD_L6,2021.2.3,MacIntel,60.0024001,,,,,,,,,,,0.7,1,,,,,,,,,,,,,,z,1,0.7,,,,,,,,0.0165625,-0.351210937,0,0,0,,0,162,162,97,1,CHIDS,HB,old,z,./images/CHIDSHB.png,,,,,,,,,,,,,,,,,,,,,,,
,,,,,,,,,,,,,,,,,199162,18,2022-01-28_17h28.12.733,lexical_decision_task_DD_L6,2021.2.3,MacIntel,60.0024001,,,,,,,,,,,0.6446,1,,,,,,,,,,,,,,m,1,0.6446,,,,,,,,0.0165625,-0.351210937,0,0,0,,0,163,163,76,1,MIDGET,C,old,m,./images/MIDGET.png,,,,,,,,,,,,,,,,,,,,,,,
,,,,,,,,,,,,,,,,,199162,18,2022-01-28_17h28.12.733,lexical_decision_task_DD_L6,2021.2.3,MacIntel,60.0024001,,,,,,,,,,,0.6154,1,,,,,,,,,,,,,,m,1,0.6154,,,,,,,,0.0165625,-0.351210937,0,0,0,,0,164,164,50,1,PILOT,HB,old,m,./images/PILOTHB.png,,,,,,,,,,,,,,,,,,,,,,,
,,,,,,,,,,,,,,,,,199162,18,2022-01-28_17h28.12.733,lexical_decision_task_DD_L6,2021.2.3,MacIntel,60.0024001,,,,,,,,,,,0.685,1,,,,,,,,,,,,,,z,1,0.685,,,,,,,,0.0165625,-0.351210937,0,0,0,,0,165,165,148,1,JOMS,HB,old,z,./images/JOMSHB.png,,,,,,,,,,,,,,,,,,,,,,,
,,,,,,,,,,,,,,,,,199162,18,2022-01-28_17h28.12.733,lexical_decision_task_DD_L6,2021.2.3,MacIntel,60.0024001,,,,,,,,,,,0.7335,1,,,,,,,,,,,,,,m,1,0.7335,,,,,,,,0.0165625,-0.351210937,0,0,0,,0,166,166,15,1,COLLAR,LB,old,m,./images/COLLARLB.png,,,,,,,,,,,,,,,,,,,,,,,
,,,,,,,,,,,,,,,,,199162,18,2022-01-28_17h28.12.733,lexical_decision_task_DD_L6,2021.2.3,MacIntel,60.0024001,,,,,,,,,,,0.9403,1,,,,,,,,,,,,,,z,1,0.9403,,,,,,,,0.0165625,-0.351210937,0,0,0,,0,167,167,138,1,PLICE,C,old,z,./images/PLICE.png,,,,,,,,,,,,,,,,,,,,,,,
,-0.000533854,-0.400017361,1,0,0,instr_done_button,,,,,,1,test,"In the next phase you will be presented with the words from the the first phase. Your job is to decide whether you remember seeing the word or not. If you remember seeing the word press ""old"" or type ""m"". If you do not remember seeing the word press ""new"" or type ""z"". Please press the space bar or click on continue to begin. ",,,199162,18,2022-01-28_17h28.12.733,lexical_decision_task_DD_L6,2021.2.3,MacIntel,60.0024001,,,,,,,,,,,,,,,,,,,,,,,,,,,,,,,,,,,,,,,,,,,,,,,,,,,,,,0,0,0,0,1,,,,,,,,,,,,,,,,
,0.009092882,-0.390946181,1,0,0,instr_done_button,,,,,,1,test,"In the next phase you will be presented with the words from the the first phase. Your job is to decide whether you remember seeing the word or not. If you remember seeing the word press ""old"" or type ""m"". If you do not remember seeing the word press ""new"" or type ""z"". Please press the space bar or click on continue to begin. ",,,199162,18,2022-01-28_17h28.12.733,lexical_decision_task_DD_L6,2021.2.3,MacIntel,60.0024001,,,,,,,,,,,,,,,,,,,,,,,,,,,,,,,,,,,,,,,,,,,,,,,,,,,,,,1,0,1,0,1,,,,,,,,,,,,,,,,
space,0.009092882,-0.389900174,0,0,0,,,,,,,1,test,"In the next phase you will be presented with the words from the the first phase. Your job is to decide whether you remember seeing the word or not. If you remember seeing the word press ""old"" or type ""m"". If you do not remember seeing the word press ""new"" or type ""z"". Please press the space bar or click on continue to begin. ",,,199162,18,2022-01-28_17h28.12.733,lexical_decision_task_DD_L6,2021.2.3,MacIntel,60.0024001,,,,,,,,,,,,,,,,,,,,,,,,,,,,,,,,,,,,,,,,,,,,,,,,,,,,,,2,0,2,0,1,1.7368,,,,,,,,,,,,,,,
space,0.010894097,-0.386037326,0,0,0,,,,,,,1,test,"In the next phase you will be presented with the words from the the first phase. Your job is to decide whether you remember seeing the word or not. If you remember seeing the word press ""old"" or type ""m"". If you do not remember seeing the word press ""new"" or type ""z"". Please press the space bar or click on continue to begin. ",,,199162,18,2022-01-28_17h28.12.733,lexical_decision_task_DD_L6,2021.2.3,MacIntel,60.0024001,,,,,,,,,,,,,,,,,,,,,,,,,,,,,,,,,,,,,,,,,,,,,,,,,,,,,,3,0,3,0,1,1.5507,,,,,,,,,,,,,,,
,0.014809028,-0.398776042,1,0,0,instr_done_button,,,,,,1,test,"In the next phase you will be presented with the words from the the first phase. Your job is to decide whether you remember seeing the word or not. If you remember seeing the word press ""old"" or type ""m"". If you do not remember seeing the word press ""new"" or type ""z"". Please press the space bar or click on continue to begin. ",,,199162,18,2022-01-28_17h28.12.733,lexical_decision_task_DD_L6,2021.2.3,MacIntel,60.0024001,,,,,,,,,,,,,,,,,,,,,,,,,,,,,,,,,,,,,,,,,,,,,,,,,,,,,,4,0,4,0,1,,,,,,,,,,,,,,,,
,,,,,,,,,,,,,,,,,199162,18,2022-01-28_17h28.12.733,lexical_decision_task_DD_L6,2021.2.3,MacIntel,60.0024001,,,,,,,,,,,9.6426,1,,,,,,,,,,,,,,,,,,,,,,,,0.011536458,-0.39672309,0,0,0,,,,,,,BANNER,C,z,y,./images/BANNER.png,,,,,,,,,z,1,9.6426,,,,,,,,0,0,0,136,1
,,,,,,,,,,,,,,,,,199162,18,2022-01-28_17h28.12.733,lexical_decision_task_DD_L6,2021.2.3,MacIntel,60.0024001,,,,,,,,,,,0.6667,1,,,,,,,,,,,,,,,,,,,,,,,,0.011536458,-0.39672309,0,0,0,,,,,,,BIRTH,C,z,y,./images/BIRTH.png,,,,,,,,,z,1,0.6667,,,,,,,,0,1,1,121,1
,,,,,,,,,,,,,,,,,199162,18,2022-01-28_17h28.12.733,lexical_decision_task_DD_L6,2021.2.3,MacIntel,60.0024001,,,,,,,,,,,0.8668,1,,,,,,,,,,,,,,,,,,,,,,,,0.011536458,-0.39672309,0,0,0,,,,,,,DRUMS,C,z,y,./images/DRUMS.png,,,,,,,,,z,1,0.8668,,,,,,,,0,2,2,133,1
,,,,,,,,,,,,,,,,,199162,18,2022-01-28_17h28.12.733,lexical_decision_task_DD_L6,2021.2.3,MacIntel,60.0024001,,,,,,,,,,,0.9662,1,,,,,,,,,,,,,,,,,,,,,,,,0.011536458,-0.39672309,0,0,0,,,,,,,JAGUAR,LB,z,y,./images/JAGUARLB.png,,,,,,,,,z,1,0.9662,,,,,,,,0,3,3,102,1
,,,,,,,,,,,,,,,,,199162,18,2022-01-28_17h28.12.733,lexical_decision_task_DD_L6,2021.2.3,MacIntel,60.0024001,,,,,,,,,,,1.6994,1,,,,,,,,,,,,,,,,,,,,,,,,0.011536458,-0.39672309,0,0,0,,,,,,,RAZOR,C,m,y,./images/RAZOR.png,,,,,,,,,m,1,1.6994,,,,,,,,0,4,4,34,1
,,,,,,,,,,,,,,,,,199162,18,2022-01-28_17h28.12.733,lexical_decision_task_DD_L6,2021.2.3,MacIntel,60.0024001,,,,,,,,,,,0.6343,1,,,,,,,,,,,,,,,,,,,,,,,,0.011536458,-0.39672309,0,0,0,,,,,,,BAKER,LB,m,y,./images/BAKERLB.png,,,,,,,,,m,1,0.6343,,,,,,,,0,5,5,63,1
,,,,,,,,,,,,,,,,,199162,18,2022-01-28_17h28.12.733,lexical_decision_task_DD_L6,2021.2.3,MacIntel,60.0024001,,,,,,,,,,,1.1702,0,,,,,,,,,,,,,,,,,,,,,,,,0.011536458,-0.39672309,0,0,0,,,,,,,DRILL,LB,m,y,./images/DRILLLB.png,,,,,,,,,z,0,1.1702,,,,,,,,0,6,6,81,1
,,,,,,,,,,,,,,,,,199162,18,2022-01-28_17h28.12.733,lexical_decision_task_DD_L6,2021.2.3,MacIntel,60.0024001,,,,,,,,,,,0.6502,1,,,,,,,,,,,,,,,,,,,,,,,,0.011536458,-0.39672309,0,0,0,,,,,,,TRIPOD,LB,z,y,./images/TRIPODLB.png,,,,,,,,,z,1,0.6502,,,,,,,,0,7,7,138,1
,,,,,,,,,,,,,,,,,199162,18,2022-01-28_17h28.12.733,lexical_decision_task_DD_L6,2021.2.3,MacIntel,60.0024001,,,,,,,,,,,0.7005,1,,,,,,,,,,,,,,,,,,,,,,,,0.011536458,-0.39672309,0,0,0,,,,,,,FOLDER,LB,z,y,./images/FOLDERLB.png,,,,,,,,,z,1,0.7005,,,,,,,,0,8,8,126,1
,,,,,,,,,,,,,,,,,199162,18,2022-01-28_17h28.12.733,lexical_decision_task_DD_L6,2021.2.3,MacIntel,60.0024001,,,,,,,,,,,2.0858,1,,,,,,,,,,,,,,,,,,,,,,,,0.011536458,-0.39672309,0,0,0,,,,,,,STATUE,LB,m,y,./images/STATUELB.png,,,,,,,,,m,1,2.0858,,,,,,,,0,9,9,66,1
,,,,,,,,,,,,,,,,,199162,18,2022-01-28_17h28.12.733,lexical_decision_task_DD_L6,2021.2.3,MacIntel,60.0024001,,,,,,,,,,,0.8004,1,,,,,,,,,,,,,,,,,,,,,,,,0.011536458,-0.39672309,0,0,0,,,,,,,SPORT,LB,z,y,./images/SPORTLB.png,,,,,,,,,z,1,0.8004,,,,,,,,0,10,10,132,1
,,,,,,,,,,,,,,,,,199162,18,2022-01-28_17h28.12.733,lexical_decision_task_DD_L6,2021.2.3,MacIntel,60.0024001,,,,,,,,,,,0.5842,1,,,,,,,,,,,,,,,,,,,,,,,,0.011536458,-0.39672309,0,0,0,,,,,,,CRATER,LB,m,y,./images/CRATERLB.png,,,,,,,,,m,1,0.5842,,,,,,,,0,11,11,3,1
,,,,,,,,,,,,,,,,,199162,18,2022-01-28_17h28.12.733,lexical_decision_task_DD_L6,2021.2.3,MacIntel,60.0024001,,,,,,,,,,,0.6172,1,,,,,,,,,,,,,,,,,,,,,,,,0.011536458,-0.39672309,0,0,0,,,,,,,MOOSE,LB,z,y,./images/MOOSELB.png,,,,,,,,,z,1,0.6172,,,,,,,,0,12,12,141,1
,,,,,,,,,,,,,,,,,199162,18,2022-01-28_17h28.12.733,lexical_decision_task_DD_L6,2021.2.3,MacIntel,60.0024001,,,,,,,,,,,2.1097,1,,,,,,,,,,,,,,,,,,,,,,,,0.011536458,-0.39672309,0,0,0,,,,,,,PENCE,C,z,y,./images/PENCE.png,,,,,,,,,z,1,2.1097,,,,,,,,0,13,13,100,1
,,,,,,,,,,,,,,,,,199162,18,2022-01-28_17h28.12.733,lexical_decision_task_DD_L6,2021.2.3,MacIntel,60.0024001,,,,,,,,,,,0.5667,1,,,,,,,,,,,,,,,,,,,,,,,,0.011536458,-0.39672309,0,0,0,,,,,,,CLOWN,C,m,y,./images/CLOWN.png,,,,,,,,,m,1,0.5667,,,,,,,,0,14,14,22,1
,,,,,,,,,,,,,,,,,199162,18,2022-01-28_17h28.12.733,lexical_decision_task_DD_L6,2021.2.3,MacIntel,60.0024001,,,,,,,,,,,1.0198,1,,,,,,,,,,,,,,,,,,,,,,,,0.011536458,-0.39672309,0,0,0,,,,,,,MAGGOT,LB,z,y,./images/MAGGOTLB.png,,,,,,,,,z,1,1.0198,,,,,,,,0,15,15,117,1
,,,,,,,,,,,,,,,,,199162,18,2022-01-28_17h28.12.733,lexical_decision_task_DD_L6,2021.2.3,MacIntel,60.0024001,,,,,,,,,,,0.9001,1,,,,,,,,,,,,,,,,,,,,,,,,0.011536458,-0.39672309,0,0,0,,,,,,,BAMBOO,HB,m,y,./images/BAMBOOHB.png,,,,,,,,,m,1,0.9001,,,,,,,,0,16,16,5,1
,,,,,,,,,,,,,,,,,199162,18,2022-01-28_17h28.12.733,lexical_decision_task_DD_L6,2021.2.3,MacIntel,60.0024001,,,,,,,,,,,0.6176,1,,,,,,,,,,,,,,,,,,,,,,,,0.011536458,-0.39672309,0,0,0,,,,,,,COLLAR,LB,m,y,./images/COLLARLB.png,,,,,,,,,m,1,0.6176,,,,,,,,0,17,17,15,1
,,,,,,,,,,,,,,,,,199162,18,2022-01-28_17h28.12.733,lexical_decision_task_DD_L6,2021.2.3,MacIntel,60.0024001,,,,,,,,,,,0.6004,1,,,,,,,,,,,,,,,,,,,,,,,,0.011536458,-0.39672309,0,0,0,,,,,,,ONION,LB,z,y,./images/ONIONLB.png,,,,,,,,,z,1,0.6004,,,,,,,,0,18,18,135,1
,,,,,,,,,,,,,,,,,199162,18,2022-01-28_17h28.12.733,lexical_decision_task_DD_L6,2021.2.3,MacIntel,60.0024001,,,,,,,,,,,0.8836,1,,,,,,,,,,,,,,,,,,,,,,,,0.011536458,-0.39672309,0,0,0,,,,,,,SAUNA,LB,m,y,./images/SAUNALB.png,,,,,,,,,m,1,0.8836,,,,,,,,0,19,19,33,1
,,,,,,,,,,,,,,,,,199162,18,2022-01-28_17h28.12.733,lexical_decision_task_DD_L6,2021.2.3,MacIntel,60.0024001,,,,,,,,,,,0.6357,1,,,,,,,,,,,,,,,,,,,,,,,,0.011536458,-0.39672309,0,0,0,,,,,,,INFANT,C,z,y,./images/INFANT.png,,,,,,,,,z,1,0.6357,,,,,,,,0,20,20,160,1
,,,,,,,,,,,,,,,,,199162,18,2022-01-28_17h28.12.733,lexical_decision_task_DD_L6,2021.2.3,MacIntel,60.0024001,,,,,,,,,,,0.5506,1,,,,,,,,,,,,,,,,,,,,,,,,0.011536458,-0.39672309,0,0,0,,,,,,,WRIST,C,z,y,./images/WRIST.png,,,,,,,,,z,1,0.5506,,,,,,,,0,21,21,109,1
,,,,,,,,,,,,,,,,,199162,18,2022-01-28_17h28.12.733,lexical_decision_task_DD_L6,2021.2.3,MacIntel,60.0024001,,,,,,,,,,,0.7366,1,,,,,,,,,,,,,,,,,,,,,,,,0.011536458,-0.39672309,0,0,0,,,,,,,BASKET,HB,m,y,./images/BASKETHB.png,,,,,,,,,m,1,0.7366,,,,,,,,0,22,22,44,1
,,,,,,,,,,,,,,,,,199162,18,2022-01-28_17h28.12.733,lexical_decision_task_DD_L6,2021.2.3,MacIntel,60.0024001,,,,,,,,,,,0.7347,1,,,,,,,,,,,,,,,,,,,,,,,,0.011536458,-0.39672309,0,0,0,,,,,,,PISTOL,HB,m,y,./images/PISTOLHB.png,,,,,,,,,m,1,0.7347,,,,,,,,0,23,23,29,1
,,,,,,,,,,,,,,,,,199162,18,2022-01-28_17h28.12.733,lexical_decision_task_DD_L6,2021.2.3,MacIntel,60.0024001,,,,,,,,,,,0.6004,1,,,,,,,,,,,,,,,,,,,,,,,,0.011536458,-0.39672309,0,0,0,,,,,,,LITTER,LB,z,y,./images/LITTERLB.png,,,,,,,,,z,1,0.6004,,,,,,,,0,24,24,162,1
,,,,,,,,,,,,,,,,,199162,18,2022-01-28_17h28.12.733,lexical_decision_task_DD_L6,2021.2.3,MacIntel,60.0024001,,,,,,,,,,,0.7502,1,,,,,,,,,,,,,,,,,,,,,,,,0.011536458,-0.39672309,0,0,0,,,,,,,FERRY,LB,m,y,./images/FERRYLB.png,,,,,,,,,m,1,0.7502,,,,,,,,0,25,25,57,1
,,,,,,,,,,,,,,,,,199162,18,2022-01-28_17h28.12.733,lexical_decision_task_DD_L6,2021.2.3,MacIntel,60.0024001,,,,,,,,,,,2.0003,1,,,,,,,,,,,,,,,,,,,,,,,,0.011536458,-0.39672309,0,0,0,,,,,,,JUNGLE,HB,z,y,./images/JUNGLEHB.png,,,,,,,,,z,1,2.0003,,,,,,,,0,26,26,167,1
,,,,,,,,,,,,,,,,,199162,18,2022-01-28_17h28.12.733,lexical_decision_task_DD_L6,2021.2.3,MacIntel,60.0024001,,,,,,,,,,,0.6172,1,,,,,,,,,,,,,,,,,,,,,,,,0.011536458,-0.39672309,0,0,0,,,,,,,SLOPE,LB,m,y,./images/SLOPELB.png,,,,,,,,,m,1,0.6172,,,,,,,,0,27,27,30,1
,,,,,,,,,,,,,,,,,199162,18,2022-01-28_17h28.12.733,lexical_decision_task_DD_L6,2021.2.3,MacIntel,60.0024001,,,,,,,,,,,0.7017,1,,,,,,,,,,,,,,,,,,,,,,,,0.011536458,-0.39672309,0,0,0,,,,,,,GLOVE,C,m,y,./images/GLOVE.png,,,,,,,,,m,1,0.7017,,,,,,,,0,28,28,73,1
,,,,,,,,,,,,,,,,,199162,18,2022-01-28_17h28.12.733,lexical_decision_task_DD_L6,2021.2.3,MacIntel,60.0024001,,,,,,,,,,,0.6837,1,,,,,,,,,,,,,,,,,,,,,,,,0.011536458,-0.39672309,0,0,0,,,,,,,BOXER,C,m,y,./images/BOXER.png,,,,,,,,,m,1,0.6837,,,,,,,,0,29,29,4,1
,,,,,,,,,,,,,,,,,199162,18,2022-01-28_17h28.12.733,lexical_decision_task_DD_L6,2021.2.3,MacIntel,60.0024001,,,,,,,,,,,0.834,1,,,,,,,,,,,,,,,,,,,,,,,,0.011536458,-0.39672309,0,0,0,,,,,,,STORM,LB,z,y,./images/STORMLB.png,,,,,,,,,z,1,0.834,,,,,,,,0,30,30,114,1
,,,,,,,,,,,,,,,,,199162,18,2022-01-28_17h28.12.733,lexical_decision_task_DD_L6,2021.2.3,MacIntel,60.0024001,,,,,,,,,,,0.7005,1,,,,,,,,,,,,,,,,,,,,,,,,0.011536458,-0.39672309,0,0,0,,,,,,,SHORE,LB,z,y,./images/SHORELB.png,,,,,,,,,z,1,0.7005,,,,,,,,0,31,31,96,1
,,,,,,,,,,,,,,,,,199162,18,2022-01-28_17h28.12.733,lexical_decision_task_DD_L6,2021.2.3,MacIntel,60.0024001,,,,,,,,,,,0.7671,1,,,,,,,,,,,,,,,,,,,,,,,,0.011536458,-0.39672309,0,0,0,,,,,,,POSTER,HB,m,y,./images/POSTERHB.png,,,,,,,,,m,1,0.7671,,,,,,,,0,32,32,53,1
,,,,,,,,,,,,,,,,,199162,18,2022-01-28_17h28.12.733,lexical_decision_task_DD_L6,2021.2.3,MacIntel,60.0024001,,,,,,,,,,,0.8003,1,,,,,,,,,,,,,,,,,,,,,,,,0.011536458,-0.39672309,0,0,0,,,,,,,CANDLE,C,z,y,./images/CANDLE.png,,,,,,,,,z,1,0.8003,,,,,,,,0,33,33,145,1
,,,,,,,,,,,,,,,,,199162,18,2022-01-28_17h28.12.733,lexical_decision_task_DD_L6,2021.2.3,MacIntel,60.0024001,,,,,,,,,,,1.0852,0,,,,,,,,,,,,,,,,,,,,,,,,0.011536458,-0.39672309,0,0,0,,,,,,,BROOM,LB,m,y,./images/BROOMLB.png,,,,,,,,,z,0,1.0852,,,,,,,,0,34,34,78,1
,,,,,,,,,,,,,,,,,199162,18,2022-01-28_17h28.12.733,lexical_decision_task_DD_L6,2021.2.3,MacIntel,60.0024001,,,,,,,,,,,0.7503,1,,,,,,,,,,,,,,,,,,,,,,,,0.011536458,-0.39672309,0,0,0,,,,,,,BRIDE,C,m,y,./images/BRIDE.png,,,,,,,,,m,1,0.7503,,,,,,,,0,35,35,64,1
,,,,,,,,,,,,,,,,,199162,18,2022-01-28_17h28.12.733,lexical_decision_task_DD_L6,2021.2.3,MacIntel,60.0024001,,,,,,,,,,,0.7021,1,,,,,,,,,,,,,,,,,,,,,,,,0.011536458,-0.39672309,0,0,0,,,,,,,FLESH,LB,m,y,./images/FLESHLB.png,,,,,,,,,m,1,0.7021,,,,,,,,0,36,36,24,1
,,,,,,,,,,,,,,,,,199162,18,2022-01-28_17h28.12.733,lexical_decision_task_DD_L6,2021.2.3,MacIntel,60.0024001,,,,,,,,,,,0.6028,1,,,,,,,,,,,,,,,,,,,,,,,,0.011536458,-0.39672309,0,0,0,,,,,,,COOKER,LB,z,y,./images/COOKERLB.png,,,,,,,,,z,1,0.6028,,,,,,,,0,37,37,153,1
,,,,,,,,,,,,,,,,,199162,18,2022-01-28_17h28.12.733,lexical_decision_task_DD_L6,2021.2.3,MacIntel,60.0024001,,,,,,,,,,,0.8179,0,,,,,,,,,,,,,,,,,,,,,,,,0.011536458,-0.39672309,0,0,0,,,,,,,CHAIN,LB,m,y,./images/CHAINLB.png,,,,,,,,,z,0,0.8179,,,,,,,,0,38,38,42,1
,,,,,,,,,,,,,,,,,199162,18,2022-01-28_17h28.12.733,lexical_decision_task_DD_L6,2021.2.3,MacIntel,60.0024001,,,,,,,,,,,0.6186,1,,,,,,,,,,,,,,,,,,,,,,,,0.011536458,-0.39672309,0,0,0,,,,,,,SPINE,HB,m,y,./images/SPINEHB.png,,,,,,,,,m,1,0.6186,,,,,,,,0,39,39,65,1
,,,,,,,,,,,,,,,,,199162,18,2022-01-28_17h28.12.733,lexical_decision_task_DD_L6,2021.2.3,MacIntel,60.0024001,,,,,,,,,,,0.6684,1,,,,,,,,,,,,,,,,,,,,,,,,0.011536458,-0.39672309,0,0,0,,,,,,,SAUCE,LB,m,y,./images/SAUCELB.png,,,,,,,,,m,1,0.6684,,,,,,,,0,40,40,51,1
,,,,,,,,,,,,,,,,,199162,18,2022-01-28_17h28.12.733,lexical_decision_task_DD_L6,2021.2.3,MacIntel,60.0024001,,,,,,,,,,,0.6676,1,,,,,,,,,,,,,,,,,,,,,,,,0.01327691,-0.40952691,1,0,0,,,,,,,SQUARE,LB,z,y,./images/SQUARELB.png,,break_done_button,,,,,,,z,1,0.6676,,,,,,,,0,41,41,90,1
,,,,,,,,,,,,,,,,,199162,18,2022-01-28_17h28.12.733,lexical_decision_task_DD_L6,2021.2.3,MacIntel,60.0024001,,,,,,,,,,,0.734,1,,,,,,,,,,,,,,,,,,,,,,,,0.01327691,-0.40952691,0,0,0,,,,,,,MAMMAL,HB,m,y,./images/MAMMALHB.png,,,,,,,,,m,1,0.734,,,,,,,,0,42,42,62,1
,,,,,,,,,,,,,,,,,199162,18,2022-01-28_17h28.12.733,lexical_decision_task_DD_L6,2021.2.3,MacIntel,60.0024001,,,,,,,,,,,0.6338,1,,,,,,,,,,,,,,,,,,,,,,,,0.01327691,-0.40952691,0,0,0,,,,,,,SKIING,HB,z,y,./images/SKIINGHB.png,,,,,,,,,z,1,0.6338,,,,,,,,0,43,43,101,1
,,,,,,,,,,,,,,,,,199162,18,2022-01-28_17h28.12.733,lexical_decision_task_DD_L6,2021.2.3,MacIntel,60.0024001,,,,,,,,,,,1.1666,1,,,,,,,,,,,,,,,,,,,,,,,,0.01327691,-0.40952691,0,0,0,,,,,,,TOMATO,LB,z,y,./images/TOMATOLB.png,,,,,,,,,z,1,1.1666,,,,,,,,0,44,44,84,1
,,,,,,,,,,,,,,,,,199162,18,2022-01-28_17h28.12.733,lexical_decision_task_DD_L6,2021.2.3,MacIntel,60.0024001,,,,,,,,,,,0.7337,1,,,,,,,,,,,,,,,,,,,,,,,,0.01327691,-0.40952691,0,0,0,,,,,,,CANOE,C,m,y,./images/CANOE.png,,,,,,,,,m,1,0.7337,,,,,,,,0,45,45,58,1
,,,,,,,,,,,,,,,,,199162,18,2022-01-28_17h28.12.733,lexical_decision_task_DD_L6,2021.2.3,MacIntel,60.0024001,,,,,,,,,,,0.752,1,,,,,,,,,,,,,,,,,,,,,,,,0.01327691,-0.40952691,0,0,0,,,,,,,BARREL,HB,z,y,./images/BARRELHB.png,,,,,,,,,z,1,0.752,,,,,,,,0,46,46,116,1
,,,,,,,,,,,,,,,,,199162,18,2022-01-28_17h28.12.733,lexical_decision_task_DD_L6,2021.2.3,MacIntel,60.0024001,,,,,,,,,,,0.7006,1,,,,,,,,,,,,,,,,,,,,,,,,0.01327691,-0.40952691,0,0,0,,,,,,,TULIP,HB,z,y,./images/TULIPHB.png,,,,,,,,,z,1,0.7006,,,,,,,,0,47,47,92,1
,,,,,,,,,,,,,,,,,199162,18,2022-01-28_17h28.12.733,lexical_decision_task_DD_L6,2021.2.3,MacIntel,60.0024001,,,,,,,,,,,0.7172,1,,,,,,,,,,,,,,,,,,,,,,,,0.01327691,-0.40952691,0,0,0,,,,,,,HEATER,HB,m,y,./images/HEATERHB.png,,,,,,,,,m,1,0.7172,,,,,,,,0,48,48,56,1
,,,,,,,,,,,,,,,,,199162,18,2022-01-28_17h28.12.733,lexical_decision_task_DD_L6,2021.2.3,MacIntel,60.0024001,,,,,,,,,,,0.8193,1,,,,,,,,,,,,,,,,,,,,,,,,0.01327691,-0.40952691,0,0,0,,,,,,,COUCH,HB,z,y,./images/COUCHHB.png,,,,,,,,,z,1,0.8193,,,,,,,,0,49,49,161,1
,,,,,,,,,,,,,,,,,199162,18,2022-01-28_17h28.12.733,lexical_decision_task_DD_L6,2021.2.3,MacIntel,60.0024001,,,,,,,,,,,0.6008,1,,,,,,,,,,,,,,,,,,,,,,,,0.01327691,-0.40952691,0,0,0,,,,,,,TORCH,HB,z,y,./images/TORCHHB.png,,,,,,,,,z,1,0.6008,,,,,,,,0,50,50,152,1
,,,,,,,,,,,,,,,,,199162,18,2022-01-28_17h28.12.733,lexical_decision_task_DD_L6,2021.2.3,MacIntel,60.0024001,,,,,,,,,,,0.6506,1,,,,,,,,,,,,,,,,,,,,,,,,0.01327691,-0.40952691,0,0,0,,,,,,,ARTIST,C,m,y,./images/ARTIST.png,,,,,,,,,m,1,0.6506,,,,,,,,0,51,51,61,1
,,,,,,,,,,,,,,,,,199162,18,2022-01-28_17h28.12.733,lexical_decision_task_DD_L6,2021.2.3,MacIntel,60.0024001,,,,,,,,,,,0.5347,1,,,,,,,,,,,,,,,,,,,,,,,,0.01327691,-0.40952691,0,0,0,,,,,,,CANDY,LB,m,y,./images/CANDYLB.png,,,,,,,,,m,1,0.5347,,,,,,,,0,52,52,39,1
,,,,,,,,,,,,,,,,,199162,18,2022-01-28_17h28.12.733,lexical_decision_task_DD_L6,2021.2.3,MacIntel,60.0024001,,,,,,,,,,,0.7503,1,,,,,,,,,,,,,,,,,,,,,,,,0.01327691,-0.40952691,0,0,0,,,,,,,QUILL,C,z,y,./images/QUILL.png,,,,,,,,,z,1,0.7503,,,,,,,,0,53,53,115,1
,,,,,,,,,,,,,,,,,199162,18,2022-01-28_17h28.12.733,lexical_decision_task_DD_L6,2021.2.3,MacIntel,60.0024001,,,,,,,,,,,0.8509,1,,,,,,,,,,,,,,,,,,,,,,,,0.01327691,-0.40952691,0,0,0,,,,,,,SWING,C,z,y,./images/SWING.png,,,,,,,,,z,1,0.8509,,,,,,,,0,54,54,124,1
,,,,,,,,,,,,,,,,,199162,18,2022-01-28_17h28.12.733,lexical_decision_task_DD_L6,2021.2.3,MacIntel,60.0024001,,,,,,,,,,,0.6169,1,,,,,,,,,,,,,,,,,,,,,,,,0.01327691,-0.40952691,0,0,0,,,,,,,STEAK,C,m,y,./images/STEAK.png,,,,,,,,,m,1,0.6169,,,,,,,,0,55,55,31,1
,,,,,,,,,,,,,,,,,199162,18,2022-01-28_17h28.12.733,lexical_decision_task_DD_L6,2021.2.3,MacIntel,60.0024001,,,,,,,,,,,0.5342,1,,,,,,,,,,,,,,,,,,,,,,,,0.01327691,-0.40952691,0,0,0,,,,,,,CLOUD,HB,m,y,./images/CLOUDHB.png,,,,,,,,,m,1,0.5342,,,,,,,,0,56,56,26,1
,,,,,,,,,,,,,,,,,199162,18,2022-01-28_17h28.12.733,lexical_decision_task_DD_L6,2021.2.3,MacIntel,60.0024001,,,,,,,,,,,0.6007,1,,,,,,,,,,,,,,,,,,,,,,,,0.01327691,-0.40952691,0,0,0,,,,,,,CLIFF,HB,m,y,./images/CLIFFHB.png,,,,,,,,,m,1,0.6007,,,,,,,,0,57,57,8,1
,,,,,,,,,,,,,,,,,199162,18,2022-01-28_17h28.12.733,lexical_decision_task_DD_L6,2021.2.3,MacIntel,60.0024001,,,,,,,,,,,0.6507,1,,,,,,,,,,,,,,,,,,,,,,,,0.01327691,-0.40952691,0,0,0,,,,,,,CASINO,C,m,y,./images/CASINO.png,,,,,,,,,m,1,0.6507,,,,,,,,0,58,58,28,1
,,,,,,,,,,,,,,,,,199162,18,2022-01-28_17h28.12.733,lexical_decision_task_DD_L6,2021.2.3,MacIntel,60.0024001,,,,,,,,,,,2.0671,1,,,,,,,,,,,,,,,,,,,,,,,,0.01327691,-0.40952691,0,0,0,,,,,,,BLOKE,LB,m,y,./images/BLOKELB.png,,,,,,,,,m,1,2.0671,,,,,,,,0,59,59,12,1
,,,,,,,,,,,,,,,,,199162,18,2022-01-28_17h28.12.733,lexical_decision_task_DD_L6,2021.2.3,MacIntel,60.0024001,,,,,,,,,,,0.6166,1,,,,,,,,,,,,,,,,,,,,,,,,0.01327691,-0.40952691,0,0,0,,,,,,,MUMMY,C,m,y,./images/MUMMY.png,,,,,,,,,m,1,0.6166,,,,,,,,0,60,60,46,1
,,,,,,,,,,,,,,,,,199162,18,2022-01-28_17h28.12.733,lexical_decision_task_DD_L6,2021.2.3,MacIntel,60.0024001,,,,,,,,,,,0.8005,1,,,,,,,,,,,,,,,,,,,,,,,,0.01327691,-0.40952691,0,0,0,,,,,,,PEBBLE,C,m,y,./images/PEBBLE.png,,,,,,,,,m,1,0.8005,,,,,,,,0,61,61,82,1
,,,,,,,,,,,,,,,,,199162,18,2022-01-28_17h28.12.733,lexical_decision_task_DD_L6,2021.2.3,MacIntel,60.0024001,,,,,,,,,,,0.9174,1,,,,,,,,,,,,,,,,,,,,,,,,0.01327691,-0.40952691,0,0,0,,,,,,,DONKEY,C,m,y,./images/DONKEY.png,,,,,,,,,m,1,0.9174,,,,,,,,0,62,62,19,1
,,,,,,,,,,,,,,,,,199162,18,2022-01-28_17h28.12.733,lexical_decision_task_DD_L6,2021.2.3,MacIntel,60.0024001,,,,,,,,,,,0.6683,1,,,,,,,,,,,,,,,,,,,,,,,,0.01327691,-0.40952691,0,0,0,,,,,,,JUMPER,HB,m,y,./images/JUMPERHB.png,,,,,,,,,m,1,0.6683,,,,,,,,0,63,63,74,1
,,,,,,,,,,,,,,,,,199162,18,2022-01-28_17h28.12.733,lexical_decision_task_DD_L6,2021.2.3,MacIntel,60.0024001,,,,,,,,,,,1.1172,0,,,,,,,,,,,,,,,,,,,,,,,,0.01327691,-0.40952691,0,0,0,,,,,,,SNACK,C,z,y,./images/SNACK.png,,,,,,,,,m,0,1.1172,,,,,,,,0,64,64,157,1
,,,,,,,,,,,,,,,,,199162,18,2022-01-28_17h28.12.733,lexical_decision_task_DD_L6,2021.2.3,MacIntel,60.0024001,,,,,,,,,,,0.5838,1,,,,,,,,,,,,,,,,,,,,,,,,0.01327691,-0.40952691,0,0,0,,,,,,,SUNSET,C,z,y,./images/SUNSET.png,,,,,,,,,z,1,0.5838,,,,,,,,0,65,65,166,1
,,,,,,,,,,,,,,,,,199162,18,2022-01-28_17h28.12.733,lexical_decision_task_DD_L6,2021.2.3,MacIntel,60.0024001,,,,,,,,,,,0.5839,1,,,,,,,,,,,,,,,,,,,,,,,,0.01327691,-0.40952691,0,0,0,,,,,,,POKER,C,m,y,./images/POKER.png,,,,,,,,,m,1,0.5839,,,,,,,,0,66,66,67,1
,,,,,,,,,,,,,,,,,199162,18,2022-01-28_17h28.12.733,lexical_decision_task_DD_L6,2021.2.3,MacIntel,60.0024001,,,,,,,,,,,1.2837,1,,,,,,,,,,,,,,,,,,,,,,,,0.01327691,-0.40952691,0,0,0,,,,,,,PLANK,C,z,y,./images/PLANK.png,,,,,,,,,z,1,1.2837,,,,,,,,0,67,67,85,1
,,,,,,,,,,,,,,,,,199162,18,2022-01-28_17h28.12.733,lexical_decision_task_DD_L6,2021.2.3,MacIntel,60.0024001,,,,,,,,,,,0.7006,1,,,,,,,,,,,,,,,,,,,,,,,,0.01327691,-0.40952691,0,0,0,,,,,,,KITTEN,LB,z,y,./images/KITTENLB.png,,,,,,,,,z,1,0.7006,,,,,,,,0,68,68,129,1
,,,,,,,,,,,,,,,,,199162,18,2022-01-28_17h28.12.733,lexical_decision_task_DD_L6,2021.2.3,MacIntel,60.0024001,,,,,,,,,,,0.6171,1,,,,,,,,,,,,,,,,,,,,,,,,0.01327691,-0.40952691,0,0,0,,,,,,,HAMMER,LB,m,y,./images/HAMMERLB.png,,,,,,,,,m,1,0.6171,,,,,,,,0,69,69,75,1
,,,,,,,,,,,,,,,,,199162,18,2022-01-28_17h28.12.733,lexical_decision_task_DD_L6,2021.2.3,MacIntel,60.0024001,,,,,,,,,,,1.2337,0,,,,,,,,,,,,,,,,,,,,,,,,0.01327691,-0.40952691,0,0,0,,,,,,,CRADLE,HB,z,y,./images/CRADLEHB.png,,,,,,,,,m,0,1.2337,,,,,,,,0,70,70,104,1
,,,,,,,,,,,,,,,,,199162,18,2022-01-28_17h28.12.733,lexical_decision_task_DD_L6,2021.2.3,MacIntel,60.0024001,,,,,,,,,,,0.7172,1,,,,,,,,,,,,,,,,,,,,,,,,0.01327691,-0.40952691,0,0,0,,,,,,,PLANET,HB,m,y,./images/PLANETHB.png,,,,,,,,,m,1,0.7172,,,,,,,,0,71,71,80,1
,,,,,,,,,,,,,,,,,199162,18,2022-01-28_17h28.12.733,lexical_decision_task_DD_L6,2021.2.3,MacIntel,60.0024001,,,,,,,,,,,0.6324,1,,,,,,,,,,,,,,,,,,,,,,,,0.01327691,-0.40952691,0,0,0,,,,,,,PICKLE,HB,z,y,./images/PICKLEHB.png,,,,,,,,,z,1,0.6324,,,,,,,,0,72,72,98,1
,,,,,,,,,,,,,,,,,199162,18,2022-01-28_17h28.12.733,lexical_decision_task_DD_L6,2021.2.3,MacIntel,60.0024001,,,,,,,,,,,0.7688,1,,,,,,,,,,,,,,,,,,,,,,,,0.01327691,-0.40952691,0,0,0,,,,,,,WEASEL,HB,z,y,./images/WEASELHB.png,,,,,,,,,z,1,0.7688,,,,,,,,0,73,73,164,1
,,,,,,,,,,,,,,,,,199162,18,2022-01-28_17h28.12.733,lexical_decision_task_DD_L6,2021.2.3,MacIntel,60.0024001,,,,,,,,,,,0.7008,0,,,,,,,,,,,,,,,,,,,,,,,,0.01327691,-0.40952691,0,0,0,,,,,,,FENCE,HB,m,y,./images/FENCEHB.png,,,,,,,,,z,0,0.7008,,,,,,,,0,74,74,14,1
,,,,,,,,,,,,,,,,,199162,18,2022-01-28_17h28.12.733,lexical_decision_task_DD_L6,2021.2.3,MacIntel,60.0024001,,,,,,,,,,,0.7839,1,,,,,,,,,,,,,,,,,,,,,,,,0.01327691,-0.40952691,0,0,0,,,,,,,LIZARD,HB,z,y,./images/LIZARDHB.png,,,,,,,,,z,1,0.7839,,,,,,,,0,75,75,128,1
,,,,,,,,,,,,,,,,,199162,18,2022-01-28_17h28.12.733,lexical_decision_task_DD_L6,2021.2.3,MacIntel,60.0024001,,,,,,,,,,,0.6815,0,,,,,,,,,,,,,,,,,,,,,,,,0.01327691,-0.40952691,0,0,0,,,,,,,PURSE,HB,z,y,./images/PURSEHB.png,,,,,,,,,m,0,0.6815,,,,,,,,0,76,76,146,1
,,,,,,,,,,,,,,,,,199162,18,2022-01-28_17h28.12.733,lexical_decision_task_DD_L6,2021.2.3,MacIntel,60.0024001,,,,,,,,,,,0.7174,1,,,,,,,,,,,,,,,,,,,,,,,,0.01327691,-0.40952691,0,0,0,,,,,,,RHINO,LB,z,y,./images/RHINOLB.png,,,,,,,,,z,1,0.7174,,,,,,,,0,77,77,93,1
,,,,,,,,,,,,,,,,,199162,18,2022-01-28_17h28.12.733,lexical_decision_task_DD_L6,2021.2.3,MacIntel,60.0024001,,,,,,,,,,,0.7339,1,,,,,,,,,,,,,,,,,,,,,,,,0.01327691,-0.40952691,0,0,0,,,,,,,TIGER,C,m,y,./images/TIGER.png,,,,,,,,,m,1,0.7339,,,,,,,,0,78,78,37,1
,,,,,,,,,,,,,,,,,199162,18,2022-01-28_17h28.12.733,lexical_decision_task_DD_L6,2021.2.3,MacIntel,60.0024001,,,,,,,,,,,0.7837,1,,,,,,,,,,,,,,,,,,,,,,,,0.01327691,-0.40952691,0,0,0,,,,,,,PIMPLE,HB,z,y,./images/PIMPLEHB.png,,,,,,,,,z,1,0.7837,,,,,,,,0,79,79,155,1
,,,,,,,,,,,,,,,,,199162,18,2022-01-28_17h28.12.733,lexical_decision_task_DD_L6,2021.2.3,MacIntel,60.0024001,,,,,,,,,,,0.5669,1,,,,,,,,,,,,,,,,,,,,,,,,0.01327691,-0.40952691,0,0,0,,,,,,,LAGOON,HB,m,y,./images/LAGOONHB.png,,,,,,,,,m,1,0.5669,,,,,,,,0,80,80,47,1
,,,,,,,,,,,,,,,,,199162,18,2022-01-28_17h28.12.733,lexical_decision_task_DD_L6,2021.2.3,MacIntel,60.0024001,,,,,,,,,,,0.6008,1,,,,,,,,,,,,,,,,,,,,,,,,0.01327691,-0.40952691,0,0,0,,,,,,,FALCON,C,z,y,./images/FALCON.png,,,,,,,,,z,1,0.6008,,,,,,,,0,81,81,112,1
,,,,,,,,,,,,,,,,,199162,18,2022-01-28_17h28.12.733,lexical_decision_task_DD_L6,2021.2.3,MacIntel,60.0024001,,,,,,,,,,,0.6506,0,,,,,,,,,,,,,,,,,,,,,,,,0.01327691,-0.40952691,0,0,0,,,,,,,KIDNEY,LB,z,y,./images/KIDNEYLB.png,,,,,,,,,m,0,0.6506,,,,,,,,0,82,82,105,1
,,,,,,,,,,,,,,,,,199162,18,2022-01-28_17h28.12.733,lexical_decision_task_DD_L6,2021.2.3,MacIntel,60.0024001,,,,,,,,,,,0.7328,0,,,,,,,,,,,,,,,,,,,,,,,,0.010533854,-0.397994792,1,0,0,,,,,,,JELLY,C,z,y,./images/JELLY.png,,break_done_button,,,,,,,m,0,0.7328,,,,,,,,0,83,83,148,1
,,,,,,,,,,,,,,,,,199162,18,2022-01-28_17h28.12.733,lexical_decision_task_DD_L6,2021.2.3,MacIntel,60.0024001,,,,,,,,,,,0.6004,1,,,,,,,,,,,,,,,,,,,,,,,,0.010533854,-0.397994792,0,0,0,,,,,,,DESERT,C,m,y,./images/DESERT.png,,,,,,,,,m,1,0.6004,,,,,,,,0,84,84,52,1
,,,,,,,,,,,,,,,,,199162,18,2022-01-28_17h28.12.733,lexical_decision_task_DD_L6,2021.2.3,MacIntel,60.0024001,,,,,,,,,,,0.5836,0,,,,,,,,,,,,,,,,,,,,,,,,0.010533854,-0.397994792,0,0,0,,,,,,,WHEEL,HB,m,y,./images/WHEELHB.png,,,,,,,,,z,0,0.5836,,,,,,,,0,85,85,77,1
,,,,,,,,,,,,,,,,,199162,18,2022-01-28_17h28.12.733,lexical_decision_task_DD_L6,2021.2.3,MacIntel,60.0024001,,,,,,,,,,,0.8179,1,,,,,,,,,,,,,,,,,,,,,,,,0.010533854,-0.397994792,0,0,0,,,,,,,HOCKEY,HB,m,y,./images/HOCKEYHB.png,,,,,,,,,m,1,0.8179,,,,,,,,0,86,86,32,1
,,,,,,,,,,,,,,,,,199162,18,2022-01-28_17h28.12.733,lexical_decision_task_DD_L6,2021.2.3,MacIntel,60.0024001,,,,,,,,,,,1.0494,1,,,,,,,,,,,,,,,,,,,,,,,,0.010533854,-0.397994792,0,0,0,,,,,,,BABOON,C,z,y,./images/BABOON.png,,,,,,,,,z,1,1.0494,,,,,,,,0,87,87,142,1
,,,,,,,,,,,,,,,,,199162,18,2022-01-28_17h28.12.733,lexical_decision_task_DD_L6,2021.2.3,MacIntel,60.0024001,,,,,,,,,,,0.5839,1,,,,,,,,,,,,,,,,,,,,,,,,0.010533854,-0.397994792,0,0,0,,,,,,,MOTOR,C,z,y,./images/MOTOR.png,,,,,,,,,z,1,0.5839,,,,,,,,0,88,88,97,1
,,,,,,,,,,,,,,,,,199162,18,2022-01-28_17h28.12.733,lexical_decision_task_DD_L6,2021.2.3,MacIntel,60.0024001,,,,,,,,,,,0.6334,1,,,,,,,,,,,,,,,,,,,,,,,,0.010533854,-0.397994792,0,0,0,,,,,,,NOOSE,LB,z,y,./images/NOOSELB.png,,,,,,,,,z,1,0.6334,,,,,,,,0,89,89,156,1
,,,,,,,,,,,,,,,,,199162,18,2022-01-28_17h28.12.733,lexical_decision_task_DD_L6,2021.2.3,MacIntel,60.0024001,,,,,,,,,,,0.551,1,,,,,,,,,,,,,,,,,,,,,,,,0.010533854,-0.397994792,0,0,0,,,,,,,BUNNY,C,m,y,./images/BUNNY.png,,,,,,,,,m,1,0.551,,,,,,,,0,90,90,13,1
,,,,,,,,,,,,,,,,,199162,18,2022-01-28_17h28.12.733,lexical_decision_task_DD_L6,2021.2.3,MacIntel,60.0024001,,,,,,,,,,,0.0507,0,,,,,,,,,,,,,,,,,,,,,,,,0.010533854,-0.397994792,0,0,0,,,,,,,GRAPE,C,m,y,./images/GRAPE.png,,,,,,,,,z,0,0.0507,,,,,,,,0,91,91,16,1
,,,,,,,,,,,,,,,,,199162,18,2022-01-28_17h28.12.733,lexical_decision_task_DD_L6,2021.2.3,MacIntel,60.0024001,,,,,,,,,,,0.9007,1,,,,,,,,,,,,,,,,,,,,,,,,0.010533854,-0.397994792,0,0,0,,,,,,,GRAIN,LB,z,y,./images/GRAINLB.png,,,,,,,,,z,1,0.9007,,,,,,,,0,92,92,159,1
,,,,,,,,,,,,,,,,,199162,18,2022-01-28_17h28.12.733,lexical_decision_task_DD_L6,2021.2.3,MacIntel,60.0024001,,,,,,,,,,,0.8191,1,,,,,,,,,,,,,,,,,,,,,,,,0.010533854,-0.397994792,0,0,0,,,,,,,GRANNY,HB,m,y,./images/GRANNYHB.png,,,,,,,,,m,1,0.8191,,,,,,,,0,93,93,20,1
,,,,,,,,,,,,,,,,,199162,18,2022-01-28_17h28.12.733,lexical_decision_task_DD_L6,2021.2.3,MacIntel,60.0024001,,,,,,,,,,,0.7464,1,,,,,,,,,,,,,,,,,,,,,,,,0.010533854,-0.397994792,0,0,0,,,,,,,MEDAL,HB,m,y,./images/MEDALHB.png,,,,,,,,,m,1,0.7464,,,,,,,,0,94,94,11,1
,,,,,,,,,,,,,,,,,199162,18,2022-01-28_17h28.12.733,lexical_decision_task_DD_L6,2021.2.3,MacIntel,60.0024001,,,,,,,,,,,0.5699,1,,,,,,,,,,,,,,,,,,,,,,,,0.010533854,-0.397994792,0,0,0,,,,,,,CURRY,LB,m,y,./images/CURRYLB.png,,,,,,,,,m,1,0.5699,,,,,,,,0,95,95,60,1
,,,,,,,,,,,,,,,,,199162,18,2022-01-28_17h28.12.733,lexical_decision_task_DD_L6,2021.2.3,MacIntel,60.0024001,,,,,,,,,,,0.7533,1,,,,,,,,,,,,,,,,,,,,,,,,0.010533854,-0.397994792,0,0,0,,,,,,,TOWEL,C,m,y,./images/TOWEL.png,,,,,,,,,m,1,0.7533,,,,,,,,0,96,96,1,1
,,,,,,,,,,,,,,,,,199162,18,2022-01-28_17h28.12.733,lexical_decision_task_DD_L6,2021.2.3,MacIntel,60.0024001,,,,,,,,,,,0.667,1,,,,,,,,,,,,,,,,,,,,,,,,0.010533854,-0.397994792,0,0,0,,,,,,,BURIAL,HB,z,y,./images/BURIALHB.png,,,,,,,,,z,1,0.667,,,,,,,,0,97,97,143,1
,,,,,,,,,,,,,,,,,199162,18,2022-01-28_17h28.12.733,lexical_decision_task_DD_L6,2021.2.3,MacIntel,60.0024001,,,,,,,,,,,0.6516,1,,,,,,,,,,,,,,,,,,,,,,,,0.010533854,-0.397994792,0,0,0,,,,,,,BOILER,LB,m,y,./images/BOILERLB.png,,,,,,,,,m,1,0.6516,,,,,,,,0,98,98,36,1
,,,,,,,,,,,,,,,,,199162,18,2022-01-28_17h28.12.733,lexical_decision_task_DD_L6,2021.2.3,MacIntel,60.0024001,,,,,,,,,,,0.7339,1,,,,,,,,,,,,,,,,,,,,,,,,0.010533854,-0.397994792,0,0,0,,,,,,,PARCEL,LB,m,y,./images/PARCELLB.png,,,,,,,,,m,1,0.7339,,,,,,,,0,99,99,18,1
,,,,,,,,,,,,,,,,,199162,18,2022-01-28_17h28.12.733,lexical_decision_task_DD_L6,2021.2.3,MacIntel,60.0024001,,,,,,,,,,,0.65,1,,,,,,,,,,,,,,,,,,,,,,,,0.010533854,-0.397994792,0,0,0,,,,,,,MONKEY,LB,m,y,./images/MONKEYLB.png,,,,,,,,,m,1,0.65,,,,,,,,0,100,100,45,1
,,,,,,,,,,,,,,,,,199162,18,2022-01-28_17h28.12.733,lexical_decision_task_DD_L6,2021.2.3,MacIntel,60.0024001,,,,,,,,,,,1.0332,1,,,,,,,,,,,,,,,,,,,,,,,,0.010533854,-0.397994792,0,0,0,,,,,,,PILOT,HB,m,y,./images/PILOTHB.png,,,,,,,,,m,1,1.0332,,,,,,,,0,101,101,50,1
,,,,,,,,,,,,,,,,,199162,18,2022-01-28_17h28.12.733,lexical_decision_task_DD_L6,2021.2.3,MacIntel,60.0024001,,,,,,,,,,,0.6099,1,,,,,,,,,,,,,,,,,,,,,,,,0.010533854,-0.397994792,0,0,0,,,,,,,CRUST,C,z,y,./images/CRUST.png,,,,,,,,,z,1,0.6099,,,,,,,,0,102,102,163,1
,,,,,,,,,,,,,,,,,199162,18,2022-01-28_17h28.12.733,lexical_decision_task_DD_L6,2021.2.3,MacIntel,60.0024001,,,,,,,,,,,0.711,1,,,,,,,,,,,,,,,,,,,,,,,,0.010533854,-0.397994792,0,0,0,,,,,,,WALNUT,LB,m,y,./images/WALNUTLB.png,,,,,,,,,m,1,0.711,,,,,,,,0,103,103,0,1
,,,,,,,,,,,,,,,,,199162,18,2022-01-28_17h28.12.733,lexical_decision_task_DD_L6,2021.2.3,MacIntel,60.0024001,,,,,,,,,,,0.634,1,,,,,,,,,,,,,,,,,,,,,,,,0.010533854,-0.397994792,0,0,0,,,,,,,PEACH,HB,z,y,./images/PEACHHB.png,,,,,,,,,z,1,0.634,,,,,,,,0,104,104,119,1
,,,,,,,,,,,,,,,,,199162,18,2022-01-28_17h28.12.733,lexical_decision_task_DD_L6,2021.2.3,MacIntel,60.0024001,,,,,,,,,,,0.9235,1,,,,,,,,,,,,,,,,,,,,,,,,0.010533854,-0.397994792,0,0,0,,,,,,,MIDGET,C,m,y,./images/MIDGET.png,,,,,,,,,m,1,0.9235,,,,,,,,0,105,105,76,1
,,,,,,,,,,,,,,,,,199162,18,2022-01-28_17h28.12.733,lexical_decision_task_DD_L6,2021.2.3,MacIntel,60.0024001,,,,,,,,,,,0.834,1,,,,,,,,,,,,,,,,,,,,,,,,0.010533854,-0.397994792,0,0,0,,,,,,,RULER,C,m,y,./images/RULER.png,,,,,,,,,m,1,0.834,,,,,,,,0,106,106,79,1
,,,,,,,,,,,,,,,,,199162,18,2022-01-28_17h28.12.733,lexical_decision_task_DD_L6,2021.2.3,MacIntel,60.0024001,,,,,,,,,,,1.561,1,,,,,,,,,,,,,,,,,,,,,,,,0.010533854,-0.397994792,0,0,0,,,,,,,LADDER,HB,z,y,./images/LADDERHB.png,,,,,,,,,z,1,1.561,,,,,,,,0,107,107,122,1
,,,,,,,,,,,,,,,,,199162,18,2022-01-28_17h28.12.733,lexical_decision_task_DD_L6,2021.2.3,MacIntel,60.0024001,,,,,,,,,,,0.7342,1,,,,,,,,,,,,,,,,,,,,,,,,0.010533854,-0.397994792,0,0,0,,,,,,,GARDEN,C,m,y,./images/GARDEN.png,,,,,,,,,m,1,0.7342,,,,,,,,0,108,108,10,1
,,,,,,,,,,,,,,,,,199162,18,2022-01-28_17h28.12.733,lexical_decision_task_DD_L6,2021.2.3,MacIntel,60.0024001,,,,,,,,,,,0.6164,1,,,,,,,,,,,,,,,,,,,,,,,,0.010533854,-0.397994792,0,0,0,,,,,,,BISHOP,C,m,y,./images/BISHOP.png,,,,,,,,,m,1,0.6164,,,,,,,,0,109,109,49,1
,,,,,,,,,,,,,,,,,199162,18,2022-01-28_17h28.12.733,lexical_decision_task_DD_L6,2021.2.3,MacIntel,60.0024001,,,,,,,,,,,0.6005,1,,,,,,,,,,,,,,,,,,,,,,,,0.010533854,-0.397994792,0,0,0,,,,,,,MALLET,HB,z,y,./images/MALLETHB.png,,,,,,,,,z,1,0.6005,,,,,,,,0,110,110,134,1
,,,,,,,,,,,,,,,,,199162,18,2022-01-28_17h28.12.733,lexical_decision_task_DD_L6,2021.2.3,MacIntel,60.0024001,,,,,,,,,,,2.1507,0,,,,,,,,,,,,,,,,,,,,,,,,0.010533854,-0.397994792,0,0,0,,,,,,,PAINT,C,z,y,./images/PAINT.png,,,,,,,,,m,0,2.1507,,,,,,,,0,111,111,91,1
,,,,,,,,,,,,,,,,,199162,18,2022-01-28_17h28.12.733,lexical_decision_task_DD_L6,2021.2.3,MacIntel,60.0024001,,,,,,,,,,,0.8836,1,,,,,,,,,,,,,,,,,,,,,,,,0.010533854,-0.397994792,0,0,0,,,,,,,STAIN,LB,m,y,./images/STAINLB.png,,,,,,,,,m,1,0.8836,,,,,,,,0,112,112,6,1
,,,,,,,,,,,,,,,,,199162,18,2022-01-28_17h28.12.733,lexical_decision_task_DD_L6,2021.2.3,MacIntel,60.0024001,,,,,,,,,,,0.6518,1,,,,,,,,,,,,,,,,,,,,,,,,0.010533854,-0.397994792,0,0,0,,,,,,,BUTTER,LB,m,y,./images/BUTTERLB.png,,,,,,,,,m,1,0.6518,,,,,,,,0,113,113,27,1
,,,,,,,,,,,,,,,,,199162,18,2022-01-28_17h28.12.733,lexical_decision_task_DD_L6,2021.2.3,MacIntel,60.0024001,,,,,,,,,,,1.0006,1,,,,,,,,,,,,,,,,,,,,,,,,0.010533854,-0.397994792,0,0,0,,,,,,,MIRROR,LB,z,y,./images/MIRRORLB.png,,,,,,,,,z,1,1.0006,,,,,,,,0,114,114,147,1
,,,,,,,,,,,,,,,,,199162,18,2022-01-28_17h28.12.733,lexical_decision_task_DD_L6,2021.2.3,MacIntel,60.0024001,,,,,,,,,,,0.917,0,,,,,,,,,,,,,,,,,,,,,,,,0.010533854,-0.397994792,0,0,0,,,,,,,SAILOR,C,z,y,./images/SAILOR.png,,,,,,,,,m,0,0.917,,,,,,,,0,115,115,151,1
,,,,,,,,,,,,,,,,,199162,18,2022-01-28_17h28.12.733,lexical_decision_task_DD_L6,2021.2.3,MacIntel,60.0024001,,,,,,,,,,,0.7172,1,,,,,,,,,,,,,,,,,,,,,,,,0.010533854,-0.397994792,0,0,0,,,,,,,FARMER,HB,z,y,./images/FARMERHB.png,,,,,,,,,z,1,0.7172,,,,,,,,0,116,116,149,1
,,,,,,,,,,,,,,,,,199162,18,2022-01-28_17h28.12.733,lexical_decision_task_DD_L6,2021.2.3,MacIntel,60.0024001,,,,,,,,,,,0.7673,1,,,,,,,,,,,,,,,,,,,,,,,,0.010533854,-0.397994792,0,0,0,,,,,,,VALLEY,HB,m,y,./images/VALLEYHB.png,,,,,,,,,m,1,0.7673,,,,,,,,0,117,117,68,1
,,,,,,,,,,,,,,,,,199162,18,2022-01-28_17h28.12.733,lexical_decision_task_DD_L6,2021.2.3,MacIntel,60.0024001,,,,,,,,,,,0.5875,1,,,,,,,,,,,,,,,,,,,,,,,,0.010533854,-0.397994792,0,0,0,,,,,,,CLOTH,HB,m,y,./images/CLOTHHB.png,,,,,,,,,m,1,0.5875,,,,,,,,0,118,118,23,1
,,,,,,,,,,,,,,,,,199162,18,2022-01-28_17h28.12.733,lexical_decision_task_DD_L6,2021.2.3,MacIntel,60.0024001,,,,,,,,,,,0.7528,1,,,,,,,,,,,,,,,,,,,,,,,,0.010533854,-0.397994792,0,0,0,,,,,,,STOOL,C,m,y,./images/STOOL.png,,,,,,,,,m,1,0.7528,,,,,,,,0,119,119,43,1
,,,,,,,,,,,,,,,,,199162,18,2022-01-28_17h28.12.733,lexical_decision_task_DD_L6,2021.2.3,MacIntel,60.0024001,,,,,,,,,,,1.0282,1,,,,,,,,,,,,,,,,,,,,,,,,0.010533854,-0.397994792,0,0,0,,,,,,,CANYON,C,z,y,./images/CANYON.png,,,,,,,,,z,1,1.0282,,,,,,,,0,120,120,118,1
,,,,,,,,,,,,,,,,,199162,18,2022-01-28_17h28.12.733,lexical_decision_task_DD_L6,2021.2.3,MacIntel,60.0024001,,,,,,,,,,,0.7033,1,,,,,,,,,,,,,,,,,,,,,,,,0.010533854,-0.397994792,0,0,0,,,,,,,MUSCLE,C,z,y,./images/MUSCLE.png,,,,,,,,,z,1,0.7033,,,,,,,,0,121,121,88,1
,,,,,,,,,,,,,,,,,199162,18,2022-01-28_17h28.12.733,lexical_decision_task_DD_L6,2021.2.3,MacIntel,60.0024001,,,,,,,,,,,0.6186,1,,,,,,,,,,,,,,,,,,,,,,,,0.010533854,-0.397994792,0,0,0,,,,,,,LLAMA,HB,m,y,./images/LLAMAHB.png,,,,,,,,,m,1,0.6186,,,,,,,,0,122,122,35,1
,,,,,,,,,,,,,,,,,199162,18,2022-01-28_17h28.12.733,lexical_decision_task_DD_L6,2021.2.3,MacIntel,60.0024001,,,,,,,,,,,0.9854,1,,,,,,,,,,,,,,,,,,,,,,,,0.010533854,-0.397994792,0,0,0,,,,,,,BRUSH,HB,m,y,./images/BRUSHHB.png,,,,,,,,,m,1,0.9854,,,,,,,,0,123,123,59,1
,,,,,,,,,,,,,,,,,199162,18,2022-01-28_17h28.12.733,lexical_decision_task_DD_L6,2021.2.3,MacIntel,60.0024001,,,,,,,,,,,0.5942,1,,,,,,,,,,,,,,,,,,,,,,,,0.010533854,-0.397994792,0,0,0,,,,,,,CEMENT,HB,z,y,./images/CEMENTHB.png,,,,,,,,,z,1,0.5942,,,,,,,,0,124,124,158,1
,,,,,,,,,,,,,,,,,199162,18,2022-01-28_17h28.12.733,lexical_decision_task_DD_L6,2021.2.3,MacIntel,60.0024001,,,,,,,,,,,0.9837,1,,,,,,,,,,,,,,,,,,,,,,,,0.044696181,-0.375842014,1,0,0,,,,,,,PACKET,HB,z,y,./images/PACKETHB.png,,break_done_button,,,,,,,z,1,0.9837,,,,,,,,0,125,125,140,1
,,,,,,,,,,,,,,,,,199162,18,2022-01-28_17h28.12.733,lexical_decision_task_DD_L6,2021.2.3,MacIntel,60.0024001,,,,,,,,,,,0.7509,1,,,,,,,,,,,,,,,,,,,,,,,,0.043637153,-0.375842014,0,0,0,,,,,,,PEARL,C,z,y,./images/PEARL.png,,,,,,,,,z,1,0.7509,,,,,,,,0,126,126,130,1
,,,,,,,,,,,,,,,,,199162,18,2022-01-28_17h28.12.733,lexical_decision_task_DD_L6,2021.2.3,MacIntel,60.0024001,,,,,,,,,,,0.5531,1,,,,,,,,,,,,,,,,,,,,,,,,0.043637153,-0.375842014,0,0,0,,,,,,,SWEAT,LB,z,y,./images/SWEATLB.png,,,,,,,,,z,1,0.5531,,,,,,,,0,127,127,150,1
,,,,,,,,,,,,,,,,,199162,18,2022-01-28_17h28.12.733,lexical_decision_task_DD_L6,2021.2.3,MacIntel,60.0024001,,,,,,,,,,,0.6506,1,,,,,,,,,,,,,,,,,,,,,,,,0.043637153,-0.375842014,0,0,0,,,,,,,DOUGH,C,z,y,./images/DOUGH.png,,,,,,,,,z,1,0.6506,,,,,,,,0,128,128,103,1
,,,,,,,,,,,,,,,,,199162,18,2022-01-28_17h28.12.733,lexical_decision_task_DD_L6,2021.2.3,MacIntel,60.0024001,,,,,,,,,,,0.734,1,,,,,,,,,,,,,,,,,,,,,,,,0.043637153,-0.375842014,0,0,0,,,,,,,SHIELD,LB,m,y,./images/SHIELDLB.png,,,,,,,,,m,1,0.734,,,,,,,,0,129,129,48,1
,,,,,,,,,,,,,,,,,199162,18,2022-01-28_17h28.12.733,lexical_decision_task_DD_L6,2021.2.3,MacIntel,60.0024001,,,,,,,,,,,1.0871,0,,,,,,,,,,,,,,,,,,,,,,,,0.043637153,-0.375842014,0,0,0,,,,,,,BANANA,C,m,y,./images/BANANA.png,,,,,,,,,z,0,1.0871,,,,,,,,0,130,130,70,1
,,,,,,,,,,,,,,,,,199162,18,2022-01-28_17h28.12.733,lexical_decision_task_DD_L6,2021.2.3,MacIntel,60.0024001,,,,,,,,,,,0.7115,1,,,,,,,,,,,,,,,,,,,,,,,,0.043637153,-0.375842014,0,0,0,,,,,,,MUFFIN,C,z,y,./images/MUFFIN.png,,,,,,,,,z,1,0.7115,,,,,,,,0,131,131,139,1
,,,,,,,,,,,,,,,,,199162,18,2022-01-28_17h28.12.733,lexical_decision_task_DD_L6,2021.2.3,MacIntel,60.0024001,,,,,,,,,,,0.6006,1,,,,,,,,,,,,,,,,,,,,,,,,0.043637153,-0.375842014,0,0,0,,,,,,,BERRY,HB,z,y,./images/BERRYHB.png,,,,,,,,,z,1,0.6006,,,,,,,,0,132,132,131,1
,,,,,,,,,,,,,,,,,199162,18,2022-01-28_17h28.12.733,lexical_decision_task_DD_L6,2021.2.3,MacIntel,60.0024001,,,,,,,,,,,0.7167,1,,,,,,,,,,,,,,,,,,,,,,,,0.043637153,-0.375842014,0,0,0,,,,,,,POODLE,LB,z,y,./images/POODLELB.png,,,,,,,,,z,1,0.7167,,,,,,,,0,133,133,165,1
,,,,,,,,,,,,,,,,,199162,18,2022-01-28_17h28.12.733,lexical_decision_task_DD_L6,2021.2.3,MacIntel,60.0024001,,,,,,,,,,,0.7336,1,,,,,,,,,,,,,,,,,,,,,,,,0.043637153,-0.375842014,0,0,0,,,,,,,PASTA,HB,z,y,./images/PASTAHB.png,,,,,,,,,z,1,0.7336,,,,,,,,0,134,134,89,1
,,,,,,,,,,,,,,,,,199162,18,2022-01-28_17h28.12.733,lexical_decision_task_DD_L6,2021.2.3,MacIntel,60.0024001,,,,,,,,,,,0.7172,0,,,,,,,,,,,,,,,,,,,,,,,,0.043637153,-0.375842014,0,0,0,,,,,,,SMOKER,HB,z,y,./images/SMOKERHB.png,,,,,,,,,m,0,0.7172,,,,,,,,0,135,135,110,1
,,,,,,,,,,,,,,,,,199162,18,2022-01-28_17h28.12.733,lexical_decision_task_DD_L6,2021.2.3,MacIntel,60.0024001,,,,,,,,,,,0.6174,1,,,,,,,,,,,,,,,,,,,,,,,,0.043637153,-0.375842014,0,0,0,,,,,,,BONNET,HB,z,y,./images/BONNETHB.png,,,,,,,,,z,1,0.6174,,,,,,,,0,136,136,95,1
,,,,,,,,,,,,,,,,,199162,18,2022-01-28_17h28.12.733,lexical_decision_task_DD_L6,2021.2.3,MacIntel,60.0024001,,,,,,,,,,,0.6333,1,,,,,,,,,,,,,,,,,,,,,,,,0.043637153,-0.375842014,0,0,0,,,,,,,TWINS,LB,z,y,./images/TWINSLB.png,,,,,,,,,z,1,0.6333,,,,,,,,0,137,137,144,1
,,,,,,,,,,,,,,,,,199162,18,2022-01-28_17h28.12.733,lexical_decision_task_DD_L6,2021.2.3,MacIntel,60.0024001,,,,,,,,,,,0.9371,1,,,,,,,,,,,,,,,,,,,,,,,,0.043637153,-0.375842014,0,0,0,,,,,,,CHERRY,LB,m,y,./images/CHERRYLB.png,,,,,,,,,m,1,0.9371,,,,,,,,0,138,138,54,1
,,,,,,,,,,,,,,,,,199162,18,2022-01-28_17h28.12.733,lexical_decision_task_DD_L6,2021.2.3,MacIntel,60.0024001,,,,,,,,,,,0.7339,1,,,,,,,,,,,,,,,,,,,,,,,,0.043637153,-0.375842014,0,0,0,,,,,,,CHALK,C,m,y,./images/CHALK.png,,,,,,,,,m,1,0.7339,,,,,,,,0,139,139,25,1
,,,,,,,,,,,,,,,,,199162,18,2022-01-28_17h28.12.733,lexical_decision_task_DD_L6,2021.2.3,MacIntel,60.0024001,,,,,,,,,,,1.0839,1,,,,,,,,,,,,,,,,,,,,,,,,0.043637153,-0.375842014,0,0,0,,,,,,,STRING,HB,z,y,./images/STRINGHB.png,,,,,,,,,z,1,1.0839,,,,,,,,0,140,140,125,1
,,,,,,,,,,,,,,,,,199162,18,2022-01-28_17h28.12.733,lexical_decision_task_DD_L6,2021.2.3,MacIntel,60.0024001,,,,,,,,,,,0.4837,1,,,,,,,,,,,,,,,,,,,,,,,,0.043637153,-0.375842014,0,0,0,,,,,,,BEARD,HB,z,y,./images/BEARDHB.png,,,,,,,,,z,1,0.4837,,,,,,,,0,141,141,86,1
,,,,,,,,,,,,,,,,,199162,18,2022-01-28_17h28.12.733,lexical_decision_task_DD_L6,2021.2.3,MacIntel,60.0024001,,,,,,,,,,,0.8836,0,,,,,,,,,,,,,,,,,,,,,,,,0.043637153,-0.375842014,0,0,0,,,,,,,WAGON,C,m,y,./images/WAGON.png,,,,,,,,,z,0,0.8836,,,,,,,,0,142,142,7,1
,,,,,,,,,,,,,,,,,199162,18,2022-01-28_17h28.12.733,lexical_decision_task_DD_L6,2021.2.3,MacIntel,60.0024001,,,,,,,,,,,0.9678,1,,,,,,,,,,,,,,,,,,,,,,,,0.043637153,-0.375842014,0,0,0,,,,,,,WALRUS,HB,z,y,./images/WALRUSHB.png,,,,,,,,,z,1,0.9678,,,,,,,,0,143,143,107,1
,,,,,,,,,,,,,,,,,199162,18,2022-01-28_17h28.12.733,lexical_decision_task_DD_L6,2021.2.3,MacIntel,60.0024001,,,,,,,,,,,0.8203,1,,,,,,,,,,,,,,,,,,,,,,,,0.043637153,-0.375842014,0,0,0,,,,,,,CARPET,HB,z,y,./images/CARPETHB.png,,,,,,,,,z,1,0.8203,,,,,,,,0,144,144,137,1
,,,,,,,,,,,,,,,,,199162,18,2022-01-28_17h28.12.733,lexical_decision_task_DD_L6,2021.2.3,MacIntel,60.0024001,,,,,,,,,,,0.7013,1,,,,,,,,,,,,,,,,,,,,,,,,0.043637153,-0.375842014,0,0,0,,,,,,,CRUMB,HB,z,y,./images/CRUMBHB.png,,,,,,,,,z,1,0.7013,,,,,,,,0,145,145,113,1
,,,,,,,,,,,,,,,,,199162,18,2022-01-28_17h28.12.733,lexical_decision_task_DD_L6,2021.2.3,MacIntel,60.0024001,,,,,,,,,,,0.9505,1,,,,,,,,,,,,,,,,,,,,,,,,0.043637153,-0.375842014,0,0,0,,,,,,,SHELF,LB,z,y,./images/SHELFLB.png,,,,,,,,,z,1,0.9505,,,,,,,,0,146,146,123,1
,,,,,,,,,,,,,,,,,199162,18,2022-01-28_17h28.12.733,lexical_decision_task_DD_L6,2021.2.3,MacIntel,60.0024001,,,,,,,,,,,0.6512,1,,,,,,,,,,,,,,,,,,,,,,,,0.043637153,-0.375842014,0,0,0,,,,,,,ARROW,LB,m,y,./images/ARROWLB.png,,,,,,,,,m,1,0.6512,,,,,,,,0,147,147,69,1
,,,,,,,,,,,,,,,,,199162,18,2022-01-28_17h28.12.733,lexical_decision_task_DD_L6,2021.2.3,MacIntel,60.0024001,,,,,,,,,,,0.8197,1,,,,,,,,,,,,,,,,,,,,,,,,0.043637153,-0.375842014,0,0,0,,,,,,,DIVER,LB,m,y,./images/DIVERLB.png,,,,,,,,,m,1,0.8197,,,,,,,,0,148,148,9,1
,,,,,,,,,,,,,,,,,199162,18,2022-01-28_17h28.12.733,lexical_decision_task_DD_L6,2021.2.3,MacIntel,60.0024001,,,,,,,,,,,0.8341,1,,,,,,,,,,,,,,,,,,,,,,,,0.043637153,-0.375842014,0,0,0,,,,,,,DANCER,LB,m,y,./images/DANCERLB.png,,,,,,,,,m,1,0.8341,,,,,,,,0,149,149,21,1
,,,,,,,,,,,,,,,,,199162,18,2022-01-28_17h28.12.733,lexical_decision_task_DD_L6,2021.2.3,MacIntel,60.0024001,,,,,,,,,,,0.6673,1,,,,,,,,,,,,,,,,,,,,,,,,0.043637153,-0.375842014,0,0,0,,,,,,,MOSQUE,C,z,y,./images/MOSQUE.png,,,,,,,,,z,1,0.6673,,,,,,,,0,150,150,127,1
,,,,,,,,,,,,,,,,,199162,18,2022-01-28_17h28.12.733,lexical_decision_task_DD_L6,2021.2.3,MacIntel,60.0024001,,,,,,,,,,,0.7196,1,,,,,,,,,,,,,,,,,,,,,,,,0.043637153,-0.375842014,0,0,0,,,,,,,ALLEY,C,m,y,./images/ALLEY.png,,,,,,,,,m,1,0.7196,,,,,,,,0,151,151,55,1
,,,,,,,,,,,,,,,,,199162,18,2022-01-28_17h28.12.733,lexical_decision_task_DD_L6,2021.2.3,MacIntel,60.0024001,,,,,,,,,,,0.6325,1,,,,,,,,,,,,,,,,,,,,,,,,0.043637153,-0.375842014,0,0,0,,,,,,,MELON,C,z,y,./images/MELON.png,,,,,,,,,z,1,0.6325,,,,,,,,0,152,152,106,1
,,,,,,,,,,,,,,,,,199162,18,2022-01-28_17h28.12.733,lexical_decision_task_DD_L6,2021.2.3,MacIntel,60.0024001,,,,,,,,,,,0.7839,1,,,,,,,,,,,,,,,,,,,,,,,,0.043637153,-0.375842014,0,0,0,,,,,,,PARADE,HB,m,y,./images/PARADEHB.png,,,,,,,,,m,1,0.7839,,,,,,,,0,153,153,17,1
,,,,,,,,,,,,,,,,,199162,18,2022-01-28_17h28.12.733,lexical_decision_task_DD_L6,2021.2.3,MacIntel,60.0024001,,,,,,,,,,,0.867,1,,,,,,,,,,,,,,,,,,,,,,,,0.043637153,-0.375842014,0,0,0,,,,,,,STREAM,HB,m,y,./images/STREAMHB.png,,,,,,,,,m,1,0.867,,,,,,,,0,154,154,41,1
,,,,,,,,,,,,,,,,,199162,18,2022-01-28_17h28.12.733,lexical_decision_task_DD_L6,2021.2.3,MacIntel,60.0024001,,,,,,,,,,,0.567,1,,,,,,,,,,,,,,,,,,,,,,,,0.043637153,-0.375842014,0,0,0,,,,,,,BELLY,C,z,y,./images/BELLY.png,,,,,,,,,z,1,0.567,,,,,,,,0,155,155,94,1
,,,,,,,,,,,,,,,,,199162,18,2022-01-28_17h28.12.733,lexical_decision_task_DD_L6,2021.2.3,MacIntel,60.0024001,,,,,,,,,,,0.7509,1,,,,,,,,,,,,,,,,,,,,,,,,0.043637153,-0.375842014,0,0,0,,,,,,,THROAT,LB,z,y,./images/THROATLB.png,,,,,,,,,z,1,0.7509,,,,,,,,0,156,156,120,1
,,,,,,,,,,,,,,,,,199162,18,2022-01-28_17h28.12.733,lexical_decision_task_DD_L6,2021.2.3,MacIntel,60.0024001,,,,,,,,,,,0.7844,1,,,,,,,,,,,,,,,,,,,,,,,,0.043637153,-0.375842014,0,0,0,,,,,,,ATTIC,LB,z,y,./images/ATTICLB.png,,,,,,,,,z,1,0.7844,,,,,,,,0,157,157,111,1
,,,,,,,,,,,,,,,,,199162,18,2022-01-28_17h28.12.733,lexical_decision_task_DD_L6,2021.2.3,MacIntel,60.0024001,,,,,,,,,,,0.6508,1,,,,,,,,,,,,,,,,,,,,,,,,0.043637153,-0.375842014,0,0,0,,,,,,,SNAKE,C,m,y,./images/SNAKE.png,,,,,,,,,m,1,0.6508,,,,,,,,0,158,158,40,1
,,,,,,,,,,,,,,,,,199162,18,2022-01-28_17h28.12.733,lexical_decision_task_DD_L6,2021.2.3,MacIntel,60.0024001,,,,,,,,,,,0.5502,1,,,,,,,,,,,,,,,,,,,,,,,,0.043637153,-0.375842014,0,0,0,,,,,,,GREASE,LB,z,y,./images/GREASELB.png,,,,,,,,,z,1,0.5502,,,,,,,,0,159,159,99,1
,,,,,,,,,,,,,,,,,199162,18,2022-01-28_17h28.12.733,lexical_decision_task_DD_L6,2021.2.3,MacIntel,60.0024001,,,,,,,,,,,0.5999,1,,,,,,,,,,,,,,,,,,,,,,,,0.043637153,-0.375842014,0,0,0,,,,,,,STOVE,HB,m,y,./images/STOVEHB.png,,,,,,,,,m,1,0.5999,,,,,,,,0,160,160,2,1
,,,,,,,,,,,,,,,,,199162,18,2022-01-28_17h28.12.733,lexical_decision_task_DD_L6,2021.2.3,MacIntel,60.0024001,,,,,,,,,,,0.617,1,,,,,,,,,,,,,,,,,,,,,,,,0.043637153,-0.375842014,0,0,0,,,,,,,SCREW,LB,z,y,./images/SCREWLB.png,,,,,,,,,z,1,0.617,,,,,,,,0,161,161,108,1
,,,,,,,,,,,,,,,,,199162,18,2022-01-28_17h28.12.733,lexical_decision_task_DD_L6,2021.2.3,MacIntel,60.0024001,,,,,,,,,,,0.5168,0,,,,,,,,,,,,,,,,,,,,,,,,0.043637153,-0.375842014,0,0,0,,,,,,,WHISKY,HB,m,y,./images/WHISKYHB.png,,,,,,,,,z,0,0.5168,,,,,,,,0,162,162,83,1
,,,,,,,,,,,,,,,,,199162,18,2022-01-28_17h28.12.733,lexical_decision_task_DD_L6,2021.2.3,MacIntel,60.0024001,,,,,,,,,,,0.6835,1,,,,,,,,,,,,,,,,,,,,,,,,0.043637153,-0.375842014,0,0,0,,,,,,,FLASK,LB,m,y,./images/FLASKLB.png,,,,,,,,,m,1,0.6835,,,,,,,,0,163,163,72,1
,,,,,,,,,,,,,,,,,199162,18,2022-01-28_17h28.12.733,lexical_decision_task_DD_L6,2021.2.3,MacIntel,60.0024001,,,,,,,,,,,0.7338,1,,,,,,,,,,,,,,,,,,,,,,,,0.043637153,-0.375842014,0,0,0,,,,,,,ENGINE,HB,m,y,./images/ENGINEHB.png,,,,,,,,,m,1,0.7338,,,,,,,,0,164,164,38,1
,,,,,,,,,,,,,,,,,199162,18,2022-01-28_17h28.12.733,lexical_decision_task_DD_L6,2021.2.3,MacIntel,60.0024001,,,,,,,,,,,0.7338,1,,,,,,,,,,,,,,,,,,,,,,,,0.043637153,-0.375842014,0,0,0,,,,,,,URINE,C,z,y,./images/URINE.png,,,,,,,,,z,1,0.7338,,,,,,,,0,165,165,154,1
,,,,,,,,,,,,,,,,,199162,18,2022-01-28_17h28.12.733,lexical_decision_task_DD_L6,2021.2.3,MacIntel,60.0024001,,,,,,,,,,,0.6839,1,,,,,,,,,,,,,,,,,,,,,,,,0.043637153,-0.375842014,0,0,0,,,,,,,FINGER,LB,z,y,./images/FINGERLB.png,,,,,,,,,z,1,0.6839,,,,,,,,0,166,166,87,1
,,,,,,,,,,,,,,,,,199162,18,2022-01-28_17h28.12.733,lexical_decision_task_DD_L6,2021.2.3,MacIntel,60.0024001,,,,,,,,,,,0.884,1,,,,,,,,,,,,,,,,,,,,,,,,0.043637153,-0.375842014,0,0,0,,,,,,,BUBBLE,HB,m,y,./images/BUBBLEHB.png,,,,,,,,,m,1,0.884,,,,,,,,0,167,167,71,1
