key_resp.keys,instr_done_touch.x,instr_done_touch.y,instr_done_touch.leftButton,instr_done_touch.midButton,instr_done_touch.rightButton,instr_done_touch.clicked_name,instruction_pages.thisRepN,instruction_pages.thisTrialN,instruction_pages.thisN,instruction_pages.thisIndex,instruction_pages.ran,pageN,phase,instruct_text,has_image,instruct_image,participant,age,date,expName,psychopyVersion,OS,frameRate,key_resp.rt,response.keys,response.corr,response.rt,touch_resp.x,touch_resp.y,touch_resp.leftButton,touch_resp.midButton,touch_resp.rightButton,touch_resp.time,touch_resp.clicked_name,rt,corr,practrials.thisRepN,practrials.thisTrialN,practrials.thisN,practrials.thisIndex,practrials.ran,TrialID,Target,corrAns,end_of_practice_trials_pages.thisRepN,end_of_practice_trials_pages.thisTrialN,end_of_practice_trials_pages.thisN,end_of_practice_trials_pages.thisIndex,end_of_practice_trials_pages.ran,key_resp_2.keys,key_resp_2.corr,key_resp_2.rt,targ_click.x,targ_click.y,targ_click.leftButton,targ_click.midButton,targ_click.rightButton,targ_click.time,targ_click.clicked_name,break_done_touch.x,break_done_touch.y,break_done_touch.leftButton,break_done_touch.midButton,break_done_touch.rightButton,break_done_keyboard.keys,maintrials.thisRepN,maintrials.thisTrialN,maintrials.thisN,maintrials.thisIndex,maintrials.ran,string,blur,study,lex,stim_path,break_done_keyboard.rt,test_instructions.thisRepN,test_instructions.thisTrialN,test_instructions.thisN,test_instructions.thisIndex,test_instructions.ran,key_resp_3.keys,key_resp_3.corr,key_resp_3.rt,test_click.x,test_click.y,test_click.leftButton,test_click.midButton,test_click.rightButton,test_click.time,test_click.clicked_name,test_phase.thisRepN,test_phase.thisTrialN,test_phase.thisN,test_phase.thisIndex,test_phase.ran
,0.07,-0.366666667,1,0,0,instr_done_button,0,0,0,0,1,1,instructions,"INSTRUCTIONS
At the start of each trial, look at the plus sign  (+) in the center of the screen.  This tells you that a trial is about to begin and where to look. Second, the plus sign will disappear and a string of letters will appear. Your task is to determine if the string of letters is a word or not. If the item is a word press the M key (on keyboard)  or touch the word button (phone/tablet).  If the item is not a word,  press the  Z key (on keyboard)  or touch the nonword button (on phone/tablet). 
Press the space bar or touch  continue.",0,,199126,19,2022-01-25_21h03.38.872,lexical_decision_task_DD_L2,2021.2.3,MacIntel,62.5,,,,,,,,,,,,,,,,,,,,,,,,,,,,,,,,,,,,,,,,,,,,,,,,,,,,,,,,,,,,,,,,,,,,,,,,,
space,0.07,-0.366666667,0,0,0,,0,1,1,1,1,2,instructions,"If your device has a keyboard, press the 'Z' key for nonwords and the 'M' key for words.





Press the space bar or touch the button below to continue.",0,keyboard-example.gif,199126,19,2022-01-25_21h03.38.872,lexical_decision_task_DD_L2,2021.2.3,MacIntel,62.5,6.47,,,,,,,,,,,,,,,,,,,,,,,,,,,,,,,,,,,,,,,,,,,,,,,,,,,,,,,,,,,,,,,,,,,,,,,,
space,0.07,-0.366666667,0,0,0,,0,2,2,2,1,3,instructions,"If you are using a touchscreen only device, use the buttons on the screen. Do not use the mouse.





Press the space bar or touch the button below to continue.",0,touchscreen-example.gif,199126,19,2022-01-25_21h03.38.872,lexical_decision_task_DD_L2,2021.2.3,MacIntel,62.5,2.456,,,,,,,,,,,,,,,,,,,,,,,,,,,,,,,,,,,,,,,,,,,,,,,,,,,,,,,,,,,,,,,,,,,,,,,,
space,0.07,-0.366666667,0,0,0,,0,3,3,3,1,4,instructions,"It is very important that you respond as quickly and accurately as possible, as each letter string will only be on the screen for two seconds. If you do not respond within this time, the message 'Too slow!' will be displayed and the experiment will progress to the next letter string. The first 20 trials will be practice trials and you will receive feedback on your answers. 

Press the space bar or touch the button below to start the practice trials.",0,,199126,19,2022-01-25_21h03.38.872,lexical_decision_task_DD_L2,2021.2.3,MacIntel,62.5,18.383,,,,,,,,,,,,,,,,,,,,,,,,,,,,,,,,,,,,,,,,,,,,,,,,,,,,,,,,,,,,,,,,,,,,,,,,
,,,,,,,,,,,,,,,,,199126,19,2022-01-25_21h03.38.872,lexical_decision_task_DD_L2,2021.2.3,MacIntel,62.5,,m,1,1.006,,,,,,,,1.006,1,0,0,0,0,1,1001,UTOPIA,m,,,,,,,,,,,,,,,,,,,,,,,,,,,,,,,,,,,,,,,,,,,,,,,,,,,,
,,,,,,,,,,,,,,,,,199126,19,2022-01-25_21h03.38.872,lexical_decision_task_DD_L2,2021.2.3,MacIntel,62.5,,z,1,0.912,,,,,,,,0.912,1,0,1,1,14,1,1001,THRALE,z,,,,,,,,,,,,,,,,,,,,,,,,,,,,,,,,,,,,,,,,,,,,,,,,,,,,
,,,,,,,,,,,,,,,,,199126,19,2022-01-25_21h03.38.872,lexical_decision_task_DD_L2,2021.2.3,MacIntel,62.5,,m,1,0.744,,,,,,,,0.744,1,0,2,2,4,1,1001,SQUEAK,m,,,,,,,,,,,,,,,,,,,,,,,,,,,,,,,,,,,,,,,,,,,,,,,,,,,,
,,,,,,,,,,,,,,,,,199126,19,2022-01-25_21h03.38.872,lexical_decision_task_DD_L2,2021.2.3,MacIntel,62.5,,m,0,0.903,,,,,,,,0.903,0,0,3,3,11,1,1001,RASHET,z,,,,,,,,,,,,,,,,,,,,,,,,,,,,,,,,,,,,,,,,,,,,,,,,,,,,
,,,,,,,,,,,,,,,,,199126,19,2022-01-25_21h03.38.872,lexical_decision_task_DD_L2,2021.2.3,MacIntel,62.5,,z,1,0.871,,,,,,,,0.871,1,0,4,4,10,1,1001,INLADE,z,,,,,,,,,,,,,,,,,,,,,,,,,,,,,,,,,,,,,,,,,,,,,,,,,,,,
,,,,,,,,,,,,,,,,,199126,19,2022-01-25_21h03.38.872,lexical_decision_task_DD_L2,2021.2.3,MacIntel,62.5,,m,1,0.644,,,,,,,,0.644,1,0,5,5,7,1,1001,VOLUME,m,,,,,,,,,,,,,,,,,,,,,,,,,,,,,,,,,,,,,,,,,,,,,,,,,,,,
,,,,,,,,,,,,,,,,,199126,19,2022-01-25_21h03.38.872,lexical_decision_task_DD_L2,2021.2.3,MacIntel,62.5,,m,1,0.661,,,,,,,,0.661,1,0,6,6,3,1,1001,MATRIX,m,,,,,,,,,,,,,,,,,,,,,,,,,,,,,,,,,,,,,,,,,,,,,,,,,,,,
,,,,,,,,,,,,,,,,,199126,19,2022-01-25_21h03.38.872,lexical_decision_task_DD_L2,2021.2.3,MacIntel,62.5,,m,1,0.634,,,,,,,,0.634,1,0,7,7,5,1,1001,OBTAIN,m,,,,,,,,,,,,,,,,,,,,,,,,,,,,,,,,,,,,,,,,,,,,,,,,,,,,
,,,,,,,,,,,,,,,,,199126,19,2022-01-25_21h03.38.872,lexical_decision_task_DD_L2,2021.2.3,MacIntel,62.5,,m,0,1.582,,,,,,,,1.582,0,0,8,8,13,1,1001,ROUPET,z,,,,,,,,,,,,,,,,,,,,,,,,,,,,,,,,,,,,,,,,,,,,,,,,,,,,
,,,,,,,,,,,,,,,,,199126,19,2022-01-25_21h03.38.872,lexical_decision_task_DD_L2,2021.2.3,MacIntel,62.5,,m,1,0.679,,,,,,,,0.679,1,0,9,9,1,1,1001,ADJUST,m,,,,,,,,,,,,,,,,,,,,,,,,,,,,,,,,,,,,,,,,,,,,,,,,,,,,
,,,,,,,,,,,,,,,,,199126,19,2022-01-25_21h03.38.872,lexical_decision_task_DD_L2,2021.2.3,MacIntel,62.5,,m,1,0.621,,,,,,,,0.621,1,0,10,10,6,1,1001,ZOMBIE,m,,,,,,,,,,,,,,,,,,,,,,,,,,,,,,,,,,,,,,,,,,,,,,,,,,,,
,,,,,,,,,,,,,,,,,199126,19,2022-01-25_21h03.38.872,lexical_decision_task_DD_L2,2021.2.3,MacIntel,62.5,,m,1,0.763,,,,,,,,0.763,1,0,11,11,2,1,1001,ALMOND,m,,,,,,,,,,,,,,,,,,,,,,,,,,,,,,,,,,,,,,,,,,,,,,,,,,,,
,,,,,,,,,,,,,,,,,199126,19,2022-01-25_21h03.38.872,lexical_decision_task_DD_L2,2021.2.3,MacIntel,62.5,,z,1,1.053,,,,,,,,1.053,1,0,12,12,9,1,1001,FARINY,z,,,,,,,,,,,,,,,,,,,,,,,,,,,,,,,,,,,,,,,,,,,,,,,,,,,,
,,,,,,,,,,,,,,,,,199126,19,2022-01-25_21h03.38.872,lexical_decision_task_DD_L2,2021.2.3,MacIntel,62.5,,z,1,1.127,,,,,,,,1.127,1,0,13,13,15,1,1001,WHAISE,z,,,,,,,,,,,,,,,,,,,,,,,,,,,,,,,,,,,,,,,,,,,,,,,,,,,,
,,,,,,,,,,,,,,,,,199126,19,2022-01-25_21h03.38.872,lexical_decision_task_DD_L2,2021.2.3,MacIntel,62.5,,z,1,0.763,,,,,,,,0.763,1,0,14,14,8,1,1001,ASLERT,z,,,,,,,,,,,,,,,,,,,,,,,,,,,,,,,,,,,,,,,,,,,,,,,,,,,,
,,,,,,,,,,,,,,,,,199126,19,2022-01-25_21h03.38.872,lexical_decision_task_DD_L2,2021.2.3,MacIntel,62.5,,m,0,1.1,,,,,,,,1.1,0,0,15,15,12,1,1001,SPRINY,z,,,,,,,,,,,,,,,,,,,,,,,,,,,,,,,,,,,,,,,,,,,,,,,,,,,,
,-0.027777778,-0.37,1,0,0,instr_done_button,,,,,,1,end_of_practice,"You have completed the practice trials. During the experimental trials, you will not receive feedback. 
Before you begin, please ensure that you are in a comfortable and quiet location and will not be disturbed for about 15 minutes, as we cannot use your data if you do not complete all the trials. 
 When you are ready to start the experimental trials, please press space or touch the button below.",,,199126,19,2022-01-25_21h03.38.872,lexical_decision_task_DD_L2,2021.2.3,MacIntel,62.5,,,,,,,,,,,,,,,,,,,,,,0,0,0,0,1,,,,,,,,,,,,,,,,,,,,,,,,,,,,,,,,,,,,,,,,,,,,,,,
,,,,,,,,,,,,,,,,,199126,19,2022-01-25_21h03.38.872,lexical_decision_task_DD_L2,2021.2.3,MacIntel,62.5,,,,,,,,,,,,0.602,0,,,,,,,,,,,,,,m,0,0.602,,,,,,,,-0.027777778,-0.37,0,0,0,,0,0,0,13,1,MOTOR,LB,old,y,./images/MOTORLB.png,,,,,,,,,,,,,,,,,,,,,
,,,,,,,,,,,,,,,,,199126,19,2022-01-25_21h03.38.872,lexical_decision_task_DD_L2,2021.2.3,MacIntel,62.5,,,,,,,,,,,,0.728,0,,,,,,,,,,,,,,m,0,0.728,,,,,,,,-0.027777778,-0.37,0,0,0,,0,1,1,32,1,BARREL,C,old,y,./images/BARREL.png,,,,,,,,,,,,,,,,,,,,,
,,,,,,,,,,,,,,,,,199126,19,2022-01-25_21h03.38.872,lexical_decision_task_DD_L2,2021.2.3,MacIntel,62.5,,,,,,,,,,,,0.979,0,,,,,,,,,,,,,,z,0,0.979,,,,,,,,-0.027777778,-0.37,0,0,0,,0,2,2,158,1,EGECT,LB,old,n,./images/EGECTLB.png,,,,,,,,,,,,,,,,,,,,,
,,,,,,,,,,,,,,,,,199126,19,2022-01-25_21h03.38.872,lexical_decision_task_DD_L2,2021.2.3,MacIntel,62.5,,,,,,,,,,,,0.854,0,,,,,,,,,,,,,,m,0,0.854,,,,,,,,-0.027777778,-0.37,0,0,0,,0,3,3,30,1,STORM,HB,old,y,./images/STORMHB.png,,,,,,,,,,,,,,,,,,,,,
,,,,,,,,,,,,,,,,,199126,19,2022-01-25_21h03.38.872,lexical_decision_task_DD_L2,2021.2.3,MacIntel,62.5,,,,,,,,,,,,0.723,0,,,,,,,,,,,,,,m,0,0.723,,,,,,,,-0.027777778,-0.37,0,0,0,,0,4,4,14,1,PICKLE,C,old,y,./images/PICKLE.png,,,,,,,,,,,,,,,,,,,,,
,,,,,,,,,,,,,,,,,199126,19,2022-01-25_21h03.38.872,lexical_decision_task_DD_L2,2021.2.3,MacIntel,62.5,,,,,,,,,,,,0.672,0,,,,,,,,,,,,,,m,0,0.672,,,,,,,,-0.027777778,-0.37,0,0,0,,0,5,5,37,1,BIRTH,LB,old,y,./images/BIRTHLB.png,,,,,,,,,,,,,,,,,,,,,
,,,,,,,,,,,,,,,,,199126,19,2022-01-25_21h03.38.872,lexical_decision_task_DD_L2,2021.2.3,MacIntel,62.5,,,,,,,,,,,,0.929,0,,,,,,,,,,,,,,z,0,0.929,,,,,,,,-0.027777778,-0.37,0,0,0,,0,6,6,129,1,PRANS,C,old,n,./images/PRANS.png,,,,,,,,,,,,,,,,,,,,,
,,,,,,,,,,,,,,,,,199126,19,2022-01-25_21h03.38.872,lexical_decision_task_DD_L2,2021.2.3,MacIntel,62.5,,,,,,,,,,,,1.146,0,,,,,,,,,,,,,,m,0,1.146,,,,,,,,-0.027777778,-0.37,0,0,0,,0,7,7,68,1,TORCH,C,old,y,./images/TORCH.png,,,,,,,,,,,,,,,,,,,,,
,,,,,,,,,,,,,,,,,199126,19,2022-01-25_21h03.38.872,lexical_decision_task_DD_L2,2021.2.3,MacIntel,62.5,,,,,,,,,,,,0.8,0,,,,,,,,,,,,,,z,0,0.8,,,,,,,,-0.027777778,-0.37,0,0,0,,0,8,8,87,1,TRING,C,old,n,./images/TRING.png,,,,,,,,,,,,,,,,,,,,,
,,,,,,,,,,,,,,,,,199126,19,2022-01-25_21h03.38.872,lexical_decision_task_DD_L2,2021.2.3,MacIntel,62.5,,,,,,,,,,,,0.911,0,,,,,,,,,,,,,,z,0,0.911,,,,,,,,-0.027777778,-0.37,0,0,0,,0,9,9,58,1,BABOON,LB,old,y,./images/BABOONLB.png,,,,,,,,,,,,,,,,,,,,,
,,,,,,,,,,,,,,,,,199126,19,2022-01-25_21h03.38.872,lexical_decision_task_DD_L2,2021.2.3,MacIntel,62.5,,,,,,,,,,,,1.127,0,,,,,,,,,,,,,,m,0,1.127,,,,,,,,-0.027777778,-0.37,0,0,0,,0,10,10,69,1,COOKER,HB,old,y,./images/COOKERHB.png,,,,,,,,,,,,,,,,,,,,,
,,,,,,,,,,,,,,,,,199126,19,2022-01-25_21h03.38.872,lexical_decision_task_DD_L2,2021.2.3,MacIntel,62.5,,,,,,,,,,,,0.762,0,,,,,,,,,,,,,,z,0,0.762,,,,,,,,-0.027777778,-0.37,0,0,0,,0,11,11,137,1,JOOST,LB,old,n,./images/JOOSTLB.png,,,,,,,,,,,,,,,,,,,,,
,,,,,,,,,,,,,,,,,199126,19,2022-01-25_21h03.38.872,lexical_decision_task_DD_L2,2021.2.3,MacIntel,62.5,,,,,,,,,,,,0.804,0,,,,,,,,,,,,,,z,0,0.804,,,,,,,,-0.027777778,-0.37,0,0,0,,0,12,12,86,1,AIFED,LB,old,n,./images/AIFEDLB.png,,,,,,,,,,,,,,,,,,,,,
,,,,,,,,,,,,,,,,,199126,19,2022-01-25_21h03.38.872,lexical_decision_task_DD_L2,2021.2.3,MacIntel,62.5,,,,,,,,,,,,0.586,0,,,,,,,,,,,,,,m,0,0.586,,,,,,,,-0.027777778,-0.37,0,0,0,,0,13,13,55,1,MUFFIN,LB,old,y,./images/MUFFINLB.png,,,,,,,,,,,,,,,,,,,,,
,,,,,,,,,,,,,,,,,199126,19,2022-01-25_21h03.38.872,lexical_decision_task_DD_L2,2021.2.3,MacIntel,62.5,,,,,,,,,,,,0.865,0,,,,,,,,,,,,,,m,0,0.865,,,,,,,,-0.027777778,-0.37,0,0,0,,0,14,14,12,1,SHORE,HB,old,y,./images/SHOREHB.png,,,,,,,,,,,,,,,,,,,,,
,,,,,,,,,,,,,,,,,199126,19,2022-01-25_21h03.38.872,lexical_decision_task_DD_L2,2021.2.3,MacIntel,62.5,,,,,,,,,,,,0.98,0,,,,,,,,,,,,,,z,0,0.98,,,,,,,,-0.027777778,-0.37,0,0,0,,0,15,15,90,1,NEAST,C,old,n,./images/NEAST.png,,,,,,,,,,,,,,,,,,,,,
,,,,,,,,,,,,,,,,,199126,19,2022-01-25_21h03.38.872,lexical_decision_task_DD_L2,2021.2.3,MacIntel,62.5,,,,,,,,,,,,1.301,0,,,,,,,,,,,,,,z,0,1.301,,,,,,,,-0.027777778,-0.37,0,0,0,,0,16,16,160,1,VEETS,HB,old,n,./images/VEETSHB.png,,,,,,,,,,,,,,,,,,,,,
,,,,,,,,,,,,,,,,,199126,19,2022-01-25_21h03.38.872,lexical_decision_task_DD_L2,2021.2.3,MacIntel,62.5,,,,,,,,,,,,2.067,0,,,,,,,,,,,,,,z,0,2.067,,,,,,,,-0.027777778,-0.37,0,0,0,,0,17,17,157,1,INLER,HB,old,n,./images/INLERHB.png,,,,,,,,,,,,,,,,,,,,,
,,,,,,,,,,,,,,,,,199126,19,2022-01-25_21h03.38.872,lexical_decision_task_DD_L2,2021.2.3,MacIntel,62.5,,,,,,,,,,,,1.055,0,,,,,,,,,,,,,,z,0,1.055,,,,,,,,-0.027777778,-0.37,0,0,0,,0,18,18,119,1,PAFER,LB,old,n,./images/PAFERLB.png,,,,,,,,,,,,,,,,,,,,,
,,,,,,,,,,,,,,,,,199126,19,2022-01-25_21h03.38.872,lexical_decision_task_DD_L2,2021.2.3,MacIntel,62.5,,,,,,,,,,,,0.768,0,,,,,,,,,,,,,,m,0,0.768,,,,,,,,-0.027777778,-0.37,0,0,0,,0,19,19,79,1,CRUST,LB,old,y,./images/CRUSTLB.png,,,,,,,,,,,,,,,,,,,,,
,,,,,,,,,,,,,,,,,199126,19,2022-01-25_21h03.38.872,lexical_decision_task_DD_L2,2021.2.3,MacIntel,62.5,,,,,,,,,,,,0.747,0,,,,,,,,,,,,,,m,0,0.747,,,,,,,,-0.027777778,-0.37,0,0,0,,0,20,20,57,1,MOOSE,HB,old,y,./images/MOOSEHB.png,,,,,,,,,,,,,,,,,,,,,
,,,,,,,,,,,,,,,,,199126,19,2022-01-25_21h03.38.872,lexical_decision_task_DD_L2,2021.2.3,MacIntel,62.5,,,,,,,,,,,,0.678,0,,,,,,,,,,,,,,m,0,0.678,,,,,,,,-0.027777778,-0.37,0,0,0,,0,21,21,73,1,SNACK,LB,old,y,./images/SNACKLB.png,,,,,,,,,,,,,,,,,,,,,
,,,,,,,,,,,,,,,,,199126,19,2022-01-25_21h03.38.872,lexical_decision_task_DD_L2,2021.2.3,MacIntel,62.5,,,,,,,,,,,,1.529,0,,,,,,,,,,,,,,z,0,1.529,,,,,,,,-0.027777778,-0.37,0,0,0,,0,22,22,110,1,CRUNK,LB,old,n,./images/CRUNKLB.png,,,,,,,,,,,,,,,,,,,,,
,,,,,,,,,,,,,,,,,199126,19,2022-01-25_21h03.38.872,lexical_decision_task_DD_L2,2021.2.3,MacIntel,62.5,,,,,,,,,,,,1.055,0,,,,,,,,,,,,,,z,0,1.055,,,,,,,,-0.027777778,-0.37,0,0,0,,0,23,23,92,1,PAIMS,LB,old,n,./images/PAIMSLB.png,,,,,,,,,,,,,,,,,,,,,
,,,,,,,,,,,,,,,,,199126,19,2022-01-25_21h03.38.872,lexical_decision_task_DD_L2,2021.2.3,MacIntel,62.5,,,,,,,,,,,,1.762,0,,,,,,,,,,,,,,m,0,1.762,,,,,,,,-0.027777778,-0.37,0,0,0,,0,24,24,106,1,CLUMS,HB,old,n,./images/CLUMSHB.png,,,,,,,,,,,,,,,,,,,,,
,,,,,,,,,,,,,,,,,199126,19,2022-01-25_21h03.38.872,lexical_decision_task_DD_L2,2021.2.3,MacIntel,62.5,,,,,,,,,,,,3.297,0,,,,,,,,,,,,,,m,0,3.297,,,,,,,,-0.027777778,-0.37,0,0,0,,0,25,25,166,1,SHORY,HB,old,n,./images/SHORYHB.png,,,,,,,,,,,,,,,,,,,,,
,,,,,,,,,,,,,,,,,199126,19,2022-01-25_21h03.38.872,lexical_decision_task_DD_L2,2021.2.3,MacIntel,62.5,,,,,,,,,,,,0.746,0,,,,,,,,,,,,,,z,0,0.746,,,,,,,,-0.027777778,-0.37,0,0,0,,0,26,26,150,1,NOOLS,C,old,n,./images/NOOLS.png,,,,,,,,,,,,,,,,,,,,,
,,,,,,,,,,,,,,,,,199126,19,2022-01-25_21h03.38.872,lexical_decision_task_DD_L2,2021.2.3,MacIntel,62.5,,,,,,,,,,,,0.98,0,,,,,,,,,,,,,,m,0,0.98,,,,,,,,-0.027777778,-0.37,0,0,0,,0,27,27,8,1,TULIP,C,old,y,./images/TULIP.png,,,,,,,,,,,,,,,,,,,,,
,,,,,,,,,,,,,,,,,199126,19,2022-01-25_21h03.38.872,lexical_decision_task_DD_L2,2021.2.3,MacIntel,62.5,,,,,,,,,,,,0.812,0,,,,,,,,,,,,,,m,0,0.812,,,,,,,,-0.027777778,-0.37,0,0,0,,0,28,28,9,1,RHINO,HB,old,y,./images/RHINOHB.png,,,,,,,,,,,,,,,,,,,,,
,,,,,,,,,,,,,,,,,199126,19,2022-01-25_21h03.38.872,lexical_decision_task_DD_L2,2021.2.3,MacIntel,62.5,,,,,,,,,,,,0.833,0,,,,,,,,,,,,,,m,0,0.833,,,,,,,,-0.027777778,-0.37,0,0,0,,0,29,29,11,1,BONNET,C,old,y,./images/BONNET.png,,,,,,,,,,,,,,,,,,,,,
,,,,,,,,,,,,,,,,,199126,19,2022-01-25_21h03.38.872,lexical_decision_task_DD_L2,2021.2.3,MacIntel,62.5,,,,,,,,,,,,0.72,0,,,,,,,,,,,,,,m,0,0.72,,,,,,,,-0.027777778,-0.37,0,0,0,,0,30,30,67,1,SAILOR,LB,old,y,./images/SAILORLB.png,,,,,,,,,,,,,,,,,,,,,
,,,,,,,,,,,,,,,,,199126,19,2022-01-25_21h03.38.872,lexical_decision_task_DD_L2,2021.2.3,MacIntel,62.5,,,,,,,,,,,,1.381,0,,,,,,,,,,,,,,m,0,1.381,,,,,,,,-0.027777778,-0.37,0,0,0,,0,31,31,20,1,CRADLE,C,old,y,./images/CRADLE.png,,,,,,,,,,,,,,,,,,,,,
,,,,,,,,,,,,,,,,,199126,19,2022-01-25_21h03.38.872,lexical_decision_task_DD_L2,2021.2.3,MacIntel,62.5,,,,,,,,,,,,3.018,0,,,,,,,,,,,,,,z,0,3.018,,,,,,,,-0.027777778,-0.37,0,0,0,,0,32,32,95,1,HANTY,LB,old,n,./images/HANTYLB.png,,,,,,,,,,,,,,,,,,,,,
,,,,,,,,,,,,,,,,,199126,19,2022-01-25_21h03.38.872,lexical_decision_task_DD_L2,2021.2.3,MacIntel,62.5,,,,,,,,,,,,0.745,0,,,,,,,,,,,,,,m,0,0.745,,,,,,,,-0.027777778,-0.37,0,0,0,,0,33,33,48,1,SPORT,HB,old,y,./images/SPORTHB.png,,,,,,,,,,,,,,,,,,,,,
,,,,,,,,,,,,,,,,,199126,19,2022-01-25_21h03.38.872,lexical_decision_task_DD_L2,2021.2.3,MacIntel,62.5,,,,,,,,,,,,0.947,0,,,,,,,,,,,,,,m,0,0.947,,,,,,,,-0.027777778,-0.37,0,0,0,,0,34,34,34,1,CANYON,LB,old,y,./images/CANYONLB.png,,,,,,,,,,,,,,,,,,,,,
,,,,,,,,,,,,,,,,,199126,19,2022-01-25_21h03.38.872,lexical_decision_task_DD_L2,2021.2.3,MacIntel,62.5,,,,,,,,,,,,0.732,0,,,,,,,,,,,,,,z,0,0.732,,,,,,,,-0.027777778,-0.37,0,0,0,,0,35,35,149,1,VEASE,LB,old,n,./images/VEASELB.png,,,,,,,,,,,,,,,,,,,,,
,,,,,,,,,,,,,,,,,199126,19,2022-01-25_21h03.38.872,lexical_decision_task_DD_L2,2021.2.3,MacIntel,62.5,,,,,,,,,,,,0.873,0,,,,,,,,,,,,,,z,0,0.873,,,,,,,,-0.027777778,-0.37,0,0,0,,0,36,36,121,1,CEERS,HB,old,n,./images/CEERSHB.png,,,,,,,,,,,,,,,,,,,,,
,,,,,,,,,,,,,,,,,199126,19,2022-01-25_21h03.38.872,lexical_decision_task_DD_L2,2021.2.3,MacIntel,62.5,,,,,,,,,,,,0.729,0,,,,,,,,,,,,,,m,0,0.729,,,,,,,,-0.027777778,-0.37,0,0,0,,0,37,37,42,1,FOLDER,HB,old,y,./images/FOLDERHB.png,,,,,,,,,,,,,,,,,,,,,
,,,,,,,,,,,,,,,,,199126,19,2022-01-25_21h03.38.872,lexical_decision_task_DD_L2,2021.2.3,MacIntel,62.5,,,,,,,,,,,,1.297,0,,,,,,,,,,,,,,z,0,1.297,,,,,,,,-0.027777778,-0.37,0,0,0,,0,38,38,152,1,FRAIN,LB,old,n,./images/FRAINLB.png,,,,,,,,,,,,,,,,,,,,,
,,,,,,,,,,,,,,,,,199126,19,2022-01-25_21h03.38.872,lexical_decision_task_DD_L2,2021.2.3,MacIntel,62.5,,,,,,,,,,,,1.213,0,,,,,,,,,,,,,,z,0,1.213,,,,,,,,-0.027777778,-0.37,0,0,0,,0,39,39,127,1,NINDY,HB,old,n,./images/NINDYHB.png,,,,,,,,,,,,,,,,,,,,,
,,,,,,,,,,,,,,,,,199126,19,2022-01-25_21h03.38.872,lexical_decision_task_DD_L2,2021.2.3,MacIntel,62.5,,,,,,,,,,,,1.013,0,,,,,,,,,,,,,,m,0,1.013,,,,,,,,-0.027777778,-0.37,0,0,0,,0,40,40,78,1,LITTER,HB,old,y,./images/LITTERHB.png,,,,,,,,,,,,,,,,,,,,,
,,,,,,,,,,,,,,,,,199126,19,2022-01-25_21h03.38.872,lexical_decision_task_DD_L2,2021.2.3,MacIntel,62.5,,,,,,,,,,,,1.023,0,,,,,,,,,,,,,,z,0,1.023,,,,,,,,-0.027777778,-0.37,0,0,0,space,0,41,41,135,1,JOODY,C,old,n,./images/JOODY.png,3.909,,,,,,,,,,,,,,,,,,,,
,,,,,,,,,,,,,,,,,199126,19,2022-01-25_21h03.38.872,lexical_decision_task_DD_L2,2021.2.3,MacIntel,62.5,,,,,,,,,,,,0.701,0,,,,,,,,,,,,,,m,0,0.701,,,,,,,,-0.027777778,-0.37,0,0,0,,0,42,42,52,1,BANNER,LB,old,y,./images/BANNERLB.png,,,,,,,,,,,,,,,,,,,,,
,,,,,,,,,,,,,,,,,199126,19,2022-01-25_21h03.38.872,lexical_decision_task_DD_L2,2021.2.3,MacIntel,62.5,,,,,,,,,,,,0.9,0,,,,,,,,,,,,,,z,0,0.9,,,,,,,,-0.027777778,-0.37,0,0,0,,0,43,43,148,1,JOMS,HB,old,n,./images/JOMSHB.png,,,,,,,,,,,,,,,,,,,,,
,,,,,,,,,,,,,,,,,199126,19,2022-01-25_21h03.38.872,lexical_decision_task_DD_L2,2021.2.3,MacIntel,62.5,,,,,,,,,,,,1.183,0,,,,,,,,,,,,,,z,0,1.183,,,,,,,,-0.027777778,-0.37,0,0,0,,0,44,44,133,1,POWDY,HB,old,n,./images/POWDYHB.png,,,,,,,,,,,,,,,,,,,,,
,,,,,,,,,,,,,,,,,199126,19,2022-01-25_21h03.38.872,lexical_decision_task_DD_L2,2021.2.3,MacIntel,62.5,,,,,,,,,,,,0.833,0,,,,,,,,,,,,,,z,0,0.833,,,,,,,,-0.027777778,-0.37,0,0,0,,0,45,45,89,1,DRIEK,LB,old,n,./images/DRIEKLB.png,,,,,,,,,,,,,,,,,,,,,
,,,,,,,,,,,,,,,,,199126,19,2022-01-25_21h03.38.872,lexical_decision_task_DD_L2,2021.2.3,MacIntel,62.5,,,,,,,,,,,,0.598,0,,,,,,,,,,,,,,m,0,0.598,,,,,,,,-0.027777778,-0.37,0,0,0,,0,46,46,35,1,PEACH,C,old,y,./images/PEACH.png,,,,,,,,,,,,,,,,,,,,,
,,,,,,,,,,,,,,,,,199126,19,2022-01-25_21h03.38.872,lexical_decision_task_DD_L2,2021.2.3,MacIntel,62.5,,,,,,,,,,,,0.863,0,,,,,,,,,,,,,,z,0,0.863,,,,,,,,-0.027777778,-0.37,0,0,0,,0,47,47,98,1,BAMPS,LB,old,n,./images/BAMPSLB.png,,,,,,,,,,,,,,,,,,,,,
,,,,,,,,,,,,,,,,,199126,19,2022-01-25_21h03.38.872,lexical_decision_task_DD_L2,2021.2.3,MacIntel,62.5,,,,,,,,,,,,1.713,0,,,,,,,,,,,,,,z,0,1.713,,,,,,,,-0.027777778,-0.37,0,0,0,,0,48,48,31,1,QUILL,LB,old,y,./images/QUILLLB.png,,,,,,,,,,,,,,,,,,,,,
,,,,,,,,,,,,,,,,,199126,19,2022-01-25_21h03.38.872,lexical_decision_task_DD_L2,2021.2.3,MacIntel,62.5,,,,,,,,,,,,0.847,0,,,,,,,,,,,,,,z,0,0.847,,,,,,,,-0.027777778,-0.37,0,0,0,,0,49,49,123,1,SEDGE,C,old,n,./images/SEDGE.png,,,,,,,,,,,,,,,,,,,,,
,,,,,,,,,,,,,,,,,199126,19,2022-01-25_21h03.38.872,lexical_decision_task_DD_L2,2021.2.3,MacIntel,62.5,,,,,,,,,,,,1.146,0,,,,,,,,,,,,,,z,0,1.146,,,,,,,,-0.027777778,-0.37,0,0,0,,0,50,50,155,1,CANGY,LB,old,n,./images/CANGYLB.png,,,,,,,,,,,,,,,,,,,,,
,,,,,,,,,,,,,,,,,199126,19,2022-01-25_21h03.38.872,lexical_decision_task_DD_L2,2021.2.3,MacIntel,62.5,,,,,,,,,,,,0.723,0,,,,,,,,,,,,,,m,0,0.723,,,,,,,,-0.027777778,-0.37,0,0,0,,0,51,51,70,1,URINE,LB,old,y,./images/URINELB.png,,,,,,,,,,,,,,,,,,,,,
,,,,,,,,,,,,,,,,,199126,19,2022-01-25_21h03.38.872,lexical_decision_task_DD_L2,2021.2.3,MacIntel,62.5,,,,,,,,,,,,0.729,0,,,,,,,,,,,,,,m,0,0.729,,,,,,,,-0.027777778,-0.37,0,0,0,,0,52,52,40,1,SWING,LB,old,y,./images/SWINGLB.png,,,,,,,,,,,,,,,,,,,,,
,,,,,,,,,,,,,,,,,199126,19,2022-01-25_21h03.38.872,lexical_decision_task_DD_L2,2021.2.3,MacIntel,62.5,,,,,,,,,,,,0.563,0,,,,,,,,,,,,,,m,0,0.563,,,,,,,,-0.027777778,-0.37,0,0,0,,0,53,53,56,1,PACKET,C,old,y,./images/PACKET.png,,,,,,,,,,,,,,,,,,,,,
,,,,,,,,,,,,,,,,,199126,19,2022-01-25_21h03.38.872,lexical_decision_task_DD_L2,2021.2.3,MacIntel,62.5,,,,,,,,,,,,0.597,0,,,,,,,,,,,,,,m,0,0.597,,,,,,,,-0.027777778,-0.37,0,0,0,,0,54,54,62,1,PURSE,C,old,y,./images/PURSE.png,,,,,,,,,,,,,,,,,,,,,
,,,,,,,,,,,,,,,,,199126,19,2022-01-25_21h03.38.872,lexical_decision_task_DD_L2,2021.2.3,MacIntel,62.5,,,,,,,,,,,,0.937,0,,,,,,,,,,,,,,z,0,0.937,,,,,,,,-0.027777778,-0.37,0,0,0,,0,55,55,114,1,RIKES,C,old,n,./images/RIKES.png,,,,,,,,,,,,,,,,,,,,,
,,,,,,,,,,,,,,,,,199126,19,2022-01-25_21h03.38.872,lexical_decision_task_DD_L2,2021.2.3,MacIntel,62.5,,,,,,,,,,,,0.58,0,,,,,,,,,,,,,,m,0,0.58,,,,,,,,-0.027777778,-0.37,0,0,0,,0,56,56,41,1,STRING,C,old,y,./images/STRING.png,,,,,,,,,,,,,,,,,,,,,
,,,,,,,,,,,,,,,,,199126,19,2022-01-25_21h03.38.872,lexical_decision_task_DD_L2,2021.2.3,MacIntel,62.5,,,,,,,,,,,,1.046,0,,,,,,,,,,,,,,m,0,1.046,,,,,,,,-0.027777778,-0.37,0,0,0,,0,57,57,76,1,INFANT,LB,old,y,./images/INFANTLB.png,,,,,,,,,,,,,,,,,,,,,
,,,,,,,,,,,,,,,,,199126,19,2022-01-25_21h03.38.872,lexical_decision_task_DD_L2,2021.2.3,MacIntel,62.5,,,,,,,,,,,,0.754,0,,,,,,,,,,,,,,z,0,0.754,,,,,,,,-0.027777778,-0.37,0,0,0,,0,58,58,131,1,NACES,LB,old,n,./images/NACESLB.png,,,,,,,,,,,,,,,,,,,,,
,,,,,,,,,,,,,,,,,199126,19,2022-01-25_21h03.38.872,lexical_decision_task_DD_L2,2021.2.3,MacIntel,62.5,,,,,,,,,,,,0.736,0,,,,,,,,,,,,,,m,0,0.736,,,,,,,,-0.027777778,-0.37,0,0,0,,0,59,59,63,1,MIRROR,HB,old,y,./images/MIRRORHB.png,,,,,,,,,,,,,,,,,,,,,
,,,,,,,,,,,,,,,,,199126,19,2022-01-25_21h03.38.872,lexical_decision_task_DD_L2,2021.2.3,MacIntel,62.5,,,,,,,,,,,,0.765,0,,,,,,,,,,,,,,m,0,0.765,,,,,,,,-0.027777778,-0.37,0,0,0,,0,60,60,59,1,BURIAL,C,old,y,./images/BURIAL.png,,,,,,,,,,,,,,,,,,,,,
,,,,,,,,,,,,,,,,,199126,19,2022-01-25_21h03.38.872,lexical_decision_task_DD_L2,2021.2.3,MacIntel,62.5,,,,,,,,,,,,0.645,0,,,,,,,,,,,,,,m,0,0.645,,,,,,,,-0.027777778,-0.37,0,0,0,,0,61,61,83,1,JUNGLE,C,old,y,./images/JUNGLE.png,,,,,,,,,,,,,,,,,,,,,
,,,,,,,,,,,,,,,,,199126,19,2022-01-25_21h03.38.872,lexical_decision_task_DD_L2,2021.2.3,MacIntel,62.5,,,,,,,,,,,,1.103,0,,,,,,,,,,,,,,m,0,1.103,,,,,,,,-0.027777778,-0.37,0,0,0,,0,62,62,33,1,MAGGOT,HB,old,y,./images/MAGGOTHB.png,,,,,,,,,,,,,,,,,,,,,
,,,,,,,,,,,,,,,,,199126,19,2022-01-25_21h03.38.872,lexical_decision_task_DD_L2,2021.2.3,MacIntel,62.5,,,,,,,,,,,,1.013,0,,,,,,,,,,,,,,z,0,1.013,,,,,,,,-0.027777778,-0.37,0,0,0,,0,63,63,144,1,NAIRY,C,old,n,./images/NAIRY.png,,,,,,,,,,,,,,,,,,,,,
,,,,,,,,,,,,,,,,,199126,19,2022-01-25_21h03.38.872,lexical_decision_task_DD_L2,2021.2.3,MacIntel,62.5,,,,,,,,,,,,0.872,0,,,,,,,,,,,,,,z,0,0.872,,,,,,,,-0.027777778,-0.37,0,0,0,,0,64,64,132,1,SCIFF,C,old,n,./images/SCIFF.png,,,,,,,,,,,,,,,,,,,,,
,,,,,,,,,,,,,,,,,199126,19,2022-01-25_21h03.38.872,lexical_decision_task_DD_L2,2021.2.3,MacIntel,62.5,,,,,,,,,,,,0.813,0,,,,,,,,,,,,,,m,0,0.813,,,,,,,,-0.027777778,-0.37,0,0,0,,0,65,65,54,1,TRIPOD,HB,old,y,./images/TRIPODHB.png,,,,,,,,,,,,,,,,,,,,,
,,,,,,,,,,,,,,,,,199126,19,2022-01-25_21h03.38.872,lexical_decision_task_DD_L2,2021.2.3,MacIntel,62.5,,,,,,,,,,,,0.697,0,,,,,,,,,,,,,,m,0,0.697,,,,,,,,-0.027777778,-0.37,0,0,0,,0,66,66,24,1,SCREW,HB,old,y,./images/SCREWHB.png,,,,,,,,,,,,,,,,,,,,,
,,,,,,,,,,,,,,,,,199126,19,2022-01-25_21h03.38.872,lexical_decision_task_DD_L2,2021.2.3,MacIntel,62.5,,,,,,,,,,,,0.546,0,,,,,,,,,,,,,,m,0,0.546,,,,,,,,-0.027777778,-0.37,0,0,0,,0,67,67,7,1,PAINT,LB,old,y,./images/PAINTLB.png,,,,,,,,,,,,,,,,,,,,,
,,,,,,,,,,,,,,,,,199126,19,2022-01-25_21h03.38.872,lexical_decision_task_DD_L2,2021.2.3,MacIntel,62.5,,,,,,,,,,,,0.678,0,,,,,,,,,,,,,,m,0,0.678,,,,,,,,-0.027777778,-0.37,0,0,0,,0,68,68,146,1,MOOST,LB,old,n,./images/MOOSTLB.png,,,,,,,,,,,,,,,,,,,,,
,,,,,,,,,,,,,,,,,199126,19,2022-01-25_21h03.38.872,lexical_decision_task_DD_L2,2021.2.3,MacIntel,62.5,,,,,,,,,,,,0.696,0,,,,,,,,,,,,,,m,0,0.696,,,,,,,,-0.027777778,-0.37,0,0,0,,0,69,69,29,1,CRUMB,C,old,y,./images/CRUMB.png,,,,,,,,,,,,,,,,,,,,,
,,,,,,,,,,,,,,,,,199126,19,2022-01-25_21h03.38.872,lexical_decision_task_DD_L2,2021.2.3,MacIntel,62.5,,,,,,,,,,,,0.815,0,,,,,,,,,,,,,,m,0,0.815,,,,,,,,-0.027777778,-0.37,0,0,0,,0,70,70,80,1,WEASEL,C,old,y,./images/WEASEL.png,,,,,,,,,,,,,,,,,,,,,
,,,,,,,,,,,,,,,,,199126,19,2022-01-25_21h03.38.872,lexical_decision_task_DD_L2,2021.2.3,MacIntel,62.5,,,,,,,,,,,,1.646,0,,,,,,,,,,,,,,z,0,1.646,,,,,,,,-0.027777778,-0.37,0,0,0,,0,71,71,117,1,STEEG,C,old,n,./images/STEEG.png,,,,,,,,,,,,,,,,,,,,,
,,,,,,,,,,,,,,,,,199126,19,2022-01-25_21h03.38.872,lexical_decision_task_DD_L2,2021.2.3,MacIntel,62.5,,,,,,,,,,,,0.862,0,,,,,,,,,,,,,,m,0,0.862,,,,,,,,-0.027777778,-0.37,0,0,0,,0,72,72,27,1,ATTIC,HB,old,y,./images/ATTICHB.png,,,,,,,,,,,,,,,,,,,,,
,,,,,,,,,,,,,,,,,199126,19,2022-01-25_21h03.38.872,lexical_decision_task_DD_L2,2021.2.3,MacIntel,62.5,,,,,,,,,,,,0.654,0,,,,,,,,,,,,,,m,0,0.654,,,,,,,,-0.027777778,-0.37,0,0,0,,0,73,73,2,1,BEARD,C,old,y,./images/BEARD.png,,,,,,,,,,,,,,,,,,,,,
,,,,,,,,,,,,,,,,,199126,19,2022-01-25_21h03.38.872,lexical_decision_task_DD_L2,2021.2.3,MacIntel,62.5,,,,,,,,,,,,0.615,0,,,,,,,,,,,,,,m,0,0.615,,,,,,,,-0.027777778,-0.37,0,0,0,,0,74,74,44,1,LIZARD,C,old,y,./images/LIZARD.png,,,,,,,,,,,,,,,,,,,,,
,,,,,,,,,,,,,,,,,199126,19,2022-01-25_21h03.38.872,lexical_decision_task_DD_L2,2021.2.3,MacIntel,62.5,,,,,,,,,,,,1.28,0,,,,,,,,,,,,,,z,0,1.28,,,,,,,,-0.027777778,-0.37,0,0,0,,0,75,75,93,1,SMONE,C,old,n,./images/SMONE.png,,,,,,,,,,,,,,,,,,,,,
,,,,,,,,,,,,,,,,,199126,19,2022-01-25_21h03.38.872,lexical_decision_task_DD_L2,2021.2.3,MacIntel,62.5,,,,,,,,,,,,0.53,0,,,,,,,,,,,,,,m,0,0.53,,,,,,,,-0.027777778,-0.37,0,0,0,,0,76,76,19,1,DOUGH,LB,old,y,./images/DOUGHLB.png,,,,,,,,,,,,,,,,,,,,,
,,,,,,,,,,,,,,,,,199126,19,2022-01-25_21h03.38.872,lexical_decision_task_DD_L2,2021.2.3,MacIntel,62.5,,,,,,,,,,,,0.863,0,,,,,,,,,,,,,,z,0,0.863,,,,,,,,-0.027777778,-0.37,0,0,0,,0,77,77,153,1,CLUPS,C,old,n,./images/CLUPS.png,,,,,,,,,,,,,,,,,,,,,
,,,,,,,,,,,,,,,,,199126,19,2022-01-25_21h03.38.872,lexical_decision_task_DD_L2,2021.2.3,MacIntel,62.5,,,,,,,,,,,,0.981,0,,,,,,,,,,,,,,m,0,0.981,,,,,,,,-0.027777778,-0.37,0,0,0,,0,78,78,77,1,COUCH,C,old,y,./images/COUCH.png,,,,,,,,,,,,,,,,,,,,,
,,,,,,,,,,,,,,,,,199126,19,2022-01-25_21h03.38.872,lexical_decision_task_DD_L2,2021.2.3,MacIntel,62.5,,,,,,,,,,,,0.728,0,,,,,,,,,,,,,,m,0,0.728,,,,,,,,-0.027777778,-0.37,0,0,0,,0,79,79,1,1,PLANK,LB,old,y,./images/PLANKLB.png,,,,,,,,,,,,,,,,,,,,,
,,,,,,,,,,,,,,,,,199126,19,2022-01-25_21h03.38.872,lexical_decision_task_DD_L2,2021.2.3,MacIntel,62.5,,,,,,,,,,,,0.639,0,,,,,,,,,,,,,,m,0,0.639,,,,,,,,-0.027777778,-0.37,0,0,0,,0,80,80,28,1,FALCON,LB,old,y,./images/FALCONLB.png,,,,,,,,,,,,,,,,,,,,,
,,,,,,,,,,,,,,,,,199126,19,2022-01-25_21h03.38.872,lexical_decision_task_DD_L2,2021.2.3,MacIntel,62.5,,,,,,,,,,,,1.311,0,,,,,,,,,,,,,,z,0,1.311,,,,,,,,-0.027777778,-0.37,0,0,0,,0,81,81,43,1,MOSQUE,LB,old,y,./images/MOSQUELB.png,,,,,,,,,,,,,,,,,,,,,
,,,,,,,,,,,,,,,,,199126,19,2022-01-25_21h03.38.872,lexical_decision_task_DD_L2,2021.2.3,MacIntel,62.5,,,,,,,,,,,,0.84,0,,,,,,,,,,,,,,z,0,0.84,,,,,,,,-0.027777778,-0.37,0,0,0,,0,82,82,126,1,GUELS,C,old,n,./images/GUELS.png,,,,,,,,,,,,,,,,,,,,,
,,,,,,,,,,,,,,,,,199126,19,2022-01-25_21h03.38.872,lexical_decision_task_DD_L2,2021.2.3,MacIntel,62.5,,,,,,,,,,,,1.17,0,,,,,,,,,,,,,,z,0,1.17,,,,,,,,-0.027777778,-0.37,0,0,0,space,0,83,83,136,1,WERVE,HB,old,n,./images/WERVEHB.png,12.848,,,,,,,,,,,,,,,,,,,,
,,,,,,,,,,,,,,,,,199126,19,2022-01-25_21h03.38.872,lexical_decision_task_DD_L2,2021.2.3,MacIntel,62.5,,,,,,,,,,,,0.74,0,,,,,,,,,,,,,,z,0,0.74,,,,,,,,-0.027777778,-0.37,0,0,0,,0,84,84,23,1,WALRUS,C,old,y,./images/WALRUS.png,,,,,,,,,,,,,,,,,,,,,
,,,,,,,,,,,,,,,,,199126,19,2022-01-25_21h03.38.872,lexical_decision_task_DD_L2,2021.2.3,MacIntel,62.5,,,,,,,,,,,,1.115,0,,,,,,,,,,,,,,z,0,1.115,,,,,,,,-0.027777778,-0.37,0,0,0,,0,85,85,143,1,MONGS,LB,old,n,./images/MONGSLB.png,,,,,,,,,,,,,,,,,,,,,
,,,,,,,,,,,,,,,,,199126,19,2022-01-25_21h03.38.872,lexical_decision_task_DD_L2,2021.2.3,MacIntel,62.5,,,,,,,,,,,,0.615,0,,,,,,,,,,,,,,m,0,0.615,,,,,,,,-0.027777778,-0.37,0,0,0,,0,86,86,10,1,BELLY,LB,old,y,./images/BELLYLB.png,,,,,,,,,,,,,,,,,,,,,
,,,,,,,,,,,,,,,,,199126,19,2022-01-25_21h03.38.872,lexical_decision_task_DD_L2,2021.2.3,MacIntel,62.5,,,,,,,,,,,,1.054,0,,,,,,,,,,,,,,z,0,1.054,,,,,,,,-0.027777778,-0.37,0,0,0,,0,87,87,105,1,MOKER,C,old,n,./images/MOKER.png,,,,,,,,,,,,,,,,,,,,,
,,,,,,,,,,,,,,,,,199126,19,2022-01-25_21h03.38.872,lexical_decision_task_DD_L2,2021.2.3,MacIntel,62.5,,,,,,,,,,,,1.853,0,,,,,,,,,,,,,,z,0,1.853,,,,,,,,-0.027777778,-0.37,0,0,0,,0,88,88,163,1,GAMBA,HB,old,n,./images/GAMBAHB.png,,,,,,,,,,,,,,,,,,,,,
,,,,,,,,,,,,,,,,,199126,19,2022-01-25_21h03.38.872,lexical_decision_task_DD_L2,2021.2.3,MacIntel,62.5,,,,,,,,,,,,0.854,0,,,,,,,,,,,,,,z,0,0.854,,,,,,,,-0.027777778,-0.37,0,0,0,,0,89,89,108,1,GRUET,C,old,n,./images/GRUET.png,,,,,,,,,,,,,,,,,,,,,
,,,,,,,,,,,,,,,,,199126,19,2022-01-25_21h03.38.872,lexical_decision_task_DD_L2,2021.2.3,MacIntel,62.5,,,,,,,,,,,,1.865,0,,,,,,,,,,,,,,z,0,1.865,,,,,,,,-0.027777778,-0.37,0,0,0,,0,90,90,91,1,SHENS,HB,old,n,./images/SHENSHB.png,,,,,,,,,,,,,,,,,,,,,
,,,,,,,,,,,,,,,,,199126,19,2022-01-25_21h03.38.872,lexical_decision_task_DD_L2,2021.2.3,MacIntel,62.5,,,,,,,,,,,,0.683,0,,,,,,,,,,,,,,m,0,0.683,,,,,,,,-0.027777778,-0.37,0,0,0,,0,91,91,47,1,BERRY,C,old,y,./images/BERRY.png,,,,,,,,,,,,,,,,,,,,,
,,,,,,,,,,,,,,,,,199126,19,2022-01-25_21h03.38.872,lexical_decision_task_DD_L2,2021.2.3,MacIntel,62.5,,,,,,,,,,,,1.22,0,,,,,,,,,,,,,,z,0,1.22,,,,,,,,-0.027777778,-0.37,0,0,0,,0,92,92,50,1,MALLET,C,old,y,./images/MALLET.png,,,,,,,,,,,,,,,,,,,,,
,,,,,,,,,,,,,,,,,199126,19,2022-01-25_21h03.38.872,lexical_decision_task_DD_L2,2021.2.3,MacIntel,62.5,,,,,,,,,,,,1.034,0,,,,,,,,,,,,,,z,0,1.034,,,,,,,,-0.027777778,-0.37,0,0,0,,0,93,93,125,1,MOOKY,LB,old,n,./images/MOOKYLB.png,,,,,,,,,,,,,,,,,,,,,
,,,,,,,,,,,,,,,,,199126,19,2022-01-25_21h03.38.872,lexical_decision_task_DD_L2,2021.2.3,MacIntel,62.5,,,,,,,,,,,,0.645,0,,,,,,,,,,,,,,m,0,0.645,,,,,,,,-0.027777778,-0.37,0,0,0,,0,94,94,36,1,THROAT,HB,old,y,./images/THROATHB.png,,,,,,,,,,,,,,,,,,,,,
,,,,,,,,,,,,,,,,,199126,19,2022-01-25_21h03.38.872,lexical_decision_task_DD_L2,2021.2.3,MacIntel,62.5,,,,,,,,,,,,1.163,0,,,,,,,,,,,,,,z,0,1.163,,,,,,,,-0.027777778,-0.37,0,0,0,,0,95,95,116,1,BALGY,LB,old,n,./images/BALGYLB.png,,,,,,,,,,,,,,,,,,,,,
,,,,,,,,,,,,,,,,,199126,19,2022-01-25_21h03.38.872,lexical_decision_task_DD_L2,2021.2.3,MacIntel,62.5,,,,,,,,,,,,1.061,0,,,,,,,,,,,,,,z,0,1.061,,,,,,,,-0.027777778,-0.37,0,0,0,,0,96,96,140,1,DOVET,LB,old,n,./images/DOVETLB.png,,,,,,,,,,,,,,,,,,,,,
,,,,,,,,,,,,,,,,,199126,19,2022-01-25_21h03.38.872,lexical_decision_task_DD_L2,2021.2.3,MacIntel,62.5,,,,,,,,,,,,0.713,0,,,,,,,,,,,,,,m,0,0.713,,,,,,,,-0.027777778,-0.37,0,0,0,,0,97,97,38,1,LADDER,C,old,y,./images/LADDER.png,,,,,,,,,,,,,,,,,,,,,
,,,,,,,,,,,,,,,,,199126,19,2022-01-25_21h03.38.872,lexical_decision_task_DD_L2,2021.2.3,MacIntel,62.5,,,,,,,,,,,,1.447,0,,,,,,,,,,,,,,z,0,1.447,,,,,,,,-0.027777778,-0.37,0,0,0,,0,98,98,164,1,SGREW,LB,old,n,./images/SGREWLB.png,,,,,,,,,,,,,,,,,,,,,
,,,,,,,,,,,,,,,,,199126,19,2022-01-25_21h03.38.872,lexical_decision_task_DD_L2,2021.2.3,MacIntel,62.5,,,,,,,,,,,,0.928,0,,,,,,,,,,,,,,m,0,0.928,,,,,,,,-0.027777778,-0.37,0,0,0,,0,99,99,25,1,WRIST,LB,old,y,./images/WRISTLB.png,,,,,,,,,,,,,,,,,,,,,
,,,,,,,,,,,,,,,,,199126,19,2022-01-25_21h03.38.872,lexical_decision_task_DD_L2,2021.2.3,MacIntel,62.5,,,,,,,,,,,,1.021,0,,,,,,,,,,,,,,z,0,1.021,,,,,,,,-0.027777778,-0.37,0,0,0,,0,100,100,159,1,CUDDY,C,old,n,./images/CUDDY.png,,,,,,,,,,,,,,,,,,,,,
,,,,,,,,,,,,,,,,,199126,19,2022-01-25_21h03.38.872,lexical_decision_task_DD_L2,2021.2.3,MacIntel,62.5,,,,,,,,,,,,0.821,0,,,,,,,,,,,,,,m,0,0.821,,,,,,,,-0.027777778,-0.37,0,0,0,,0,101,101,3,1,FINGER,HB,old,y,./images/FINGERHB.png,,,,,,,,,,,,,,,,,,,,,
,,,,,,,,,,,,,,,,,199126,19,2022-01-25_21h03.38.872,lexical_decision_task_DD_L2,2021.2.3,MacIntel,62.5,,,,,,,,,,,,1.099,0,,,,,,,,,,,,,,z,0,1.099,,,,,,,,-0.027777778,-0.37,0,0,0,,0,102,102,103,1,FLORT,HB,old,n,./images/FLORTHB.png,,,,,,,,,,,,,,,,,,,,,
,,,,,,,,,,,,,,,,,199126,19,2022-01-25_21h03.38.872,lexical_decision_task_DD_L2,2021.2.3,MacIntel,62.5,,,,,,,,,,,,0.96,0,,,,,,,,,,,,,,m,0,0.96,,,,,,,,-0.027777778,-0.37,0,0,0,,0,103,103,81,1,POODLE,HB,old,y,./images/POODLEHB.png,,,,,,,,,,,,,,,,,,,,,
,,,,,,,,,,,,,,,,,199126,19,2022-01-25_21h03.38.872,lexical_decision_task_DD_L2,2021.2.3,MacIntel,62.5,,,,,,,,,,,,0.813,0,,,,,,,,,,,,,,m,0,0.813,,,,,,,,-0.027777778,-0.37,0,0,0,,0,104,104,74,1,CEMENT,C,old,y,./images/CEMENT.png,,,,,,,,,,,,,,,,,,,,,
,,,,,,,,,,,,,,,,,199126,19,2022-01-25_21h03.38.872,lexical_decision_task_DD_L2,2021.2.3,MacIntel,62.5,,,,,,,,,,,,1.234,0,,,,,,,,,,,,,,z,0,1.234,,,,,,,,-0.027777778,-0.37,0,0,0,,0,105,105,145,1,LAMEL,HB,old,n,./images/LAMELHB.png,,,,,,,,,,,,,,,,,,,,,
,,,,,,,,,,,,,,,,,199126,19,2022-01-25_21h03.38.872,lexical_decision_task_DD_L2,2021.2.3,MacIntel,62.5,,,,,,,,,,,,0.813,0,,,,,,,,,,,,,,z,0,0.813,,,,,,,,-0.027777778,-0.37,0,0,0,,0,106,106,111,1,HOSSE,C,old,n,./images/HOSSE.png,,,,,,,,,,,,,,,,,,,,,
,,,,,,,,,,,,,,,,,199126,19,2022-01-25_21h03.38.872,lexical_decision_task_DD_L2,2021.2.3,MacIntel,62.5,,,,,,,,,,,,0.669,0,,,,,,,,,,,,,,m,0,0.669,,,,,,,,-0.027777778,-0.37,0,0,0,,0,107,107,49,1,DRUMS,LB,old,y,./images/DRUMSLB.png,,,,,,,,,,,,,,,,,,,,,
,,,,,,,,,,,,,,,,,199126,19,2022-01-25_21h03.38.872,lexical_decision_task_DD_L2,2021.2.3,MacIntel,62.5,,,,,,,,,,,,0.635,0,,,,,,,,,,,,,,m,0,0.635,,,,,,,,-0.027777778,-0.37,0,0,0,,0,108,108,65,1,FARMER,C,old,y,./images/FARMER.png,,,,,,,,,,,,,,,,,,,,,
,,,,,,,,,,,,,,,,,199126,19,2022-01-25_21h03.38.872,lexical_decision_task_DD_L2,2021.2.3,MacIntel,62.5,,,,,,,,,,,,0.777,0,,,,,,,,,,,,,,m,0,0.777,,,,,,,,-0.027777778,-0.37,0,0,0,,0,109,109,45,1,KITTEN,HB,old,y,./images/KITTENHB.png,,,,,,,,,,,,,,,,,,,,,
,,,,,,,,,,,,,,,,,199126,19,2022-01-25_21h03.38.872,lexical_decision_task_DD_L2,2021.2.3,MacIntel,62.5,,,,,,,,,,,,1.082,0,,,,,,,,,,,,,,z,0,1.082,,,,,,,,-0.027777778,-0.37,0,0,0,,0,110,110,88,1,GLUSH,HB,old,n,./images/GLUSHHB.png,,,,,,,,,,,,,,,,,,,,,
,,,,,,,,,,,,,,,,,199126,19,2022-01-25_21h03.38.872,lexical_decision_task_DD_L2,2021.2.3,MacIntel,62.5,,,,,,,,,,,,1.305,0,,,,,,,,,,,,,,m,0,1.305,,,,,,,,-0.027777778,-0.37,0,0,0,,0,111,111,16,1,PENCE,LB,old,y,./images/PENCELB.png,,,,,,,,,,,,,,,,,,,,,
,,,,,,,,,,,,,,,,,199126,19,2022-01-25_21h03.38.872,lexical_decision_task_DD_L2,2021.2.3,MacIntel,62.5,,,,,,,,,,,,0.898,0,,,,,,,,,,,,,,z,0,0.898,,,,,,,,-0.027777778,-0.37,0,0,0,,0,112,112,101,1,GLEET,LB,old,n,./images/GLEETLB.png,,,,,,,,,,,,,,,,,,,,,
,,,,,,,,,,,,,,,,,199126,19,2022-01-25_21h03.38.872,lexical_decision_task_DD_L2,2021.2.3,MacIntel,62.5,,,,,,,,,,,,1.238,0,,,,,,,,,,,,,,z,0,1.238,,,,,,,,-0.027777778,-0.37,0,0,0,,0,113,113,94,1,BLANS,HB,old,n,./images/BLANSHB.png,,,,,,,,,,,,,,,,,,,,,
,,,,,,,,,,,,,,,,,199126,19,2022-01-25_21h03.38.872,lexical_decision_task_DD_L2,2021.2.3,MacIntel,62.5,,,,,,,,,,,,1.454,0,,,,,,,,,,,,,,z,0,1.454,,,,,,,,-0.027777778,-0.37,0,0,0,,0,114,114,85,1,CHULK,HB,old,n,./images/CHULKHB.png,,,,,,,,,,,,,,,,,,,,,
,,,,,,,,,,,,,,,,,199126,19,2022-01-25_21h03.38.872,lexical_decision_task_DD_L2,2021.2.3,MacIntel,62.5,,,,,,,,,,,,2.236,0,,,,,,,,,,,,,,m,0,2.236,,,,,,,,-0.027777778,-0.37,0,0,0,,0,115,115,128,1,GRIFT,LB,old,n,./images/GRIFTLB.png,,,,,,,,,,,,,,,,,,,,,
,,,,,,,,,,,,,,,,,199126,19,2022-01-25_21h03.38.872,lexical_decision_task_DD_L2,2021.2.3,MacIntel,62.5,,,,,,,,,,,,1.313,0,,,,,,,,,,,,,,z,0,1.313,,,,,,,,-0.027777778,-0.37,0,0,0,,0,116,116,115,1,MAWNS,HB,old,n,./images/MAWNSHB.png,,,,,,,,,,,,,,,,,,,,,
,,,,,,,,,,,,,,,,,199126,19,2022-01-25_21h03.38.872,lexical_decision_task_DD_L2,2021.2.3,MacIntel,62.5,,,,,,,,,,,,1.061,0,,,,,,,,,,,,,,z,0,1.061,,,,,,,,-0.027777778,-0.37,0,0,0,,0,117,117,72,1,NOOSE,HB,old,y,./images/NOOSEHB.png,,,,,,,,,,,,,,,,,,,,,
,,,,,,,,,,,,,,,,,199126,19,2022-01-25_21h03.38.872,lexical_decision_task_DD_L2,2021.2.3,MacIntel,62.5,,,,,,,,,,,,0.683,0,,,,,,,,,,,,,,m,0,0.683,,,,,,,,-0.027777778,-0.37,0,0,0,,0,118,118,5,1,PASTA,C,old,y,./images/PASTA.png,,,,,,,,,,,,,,,,,,,,,
,,,,,,,,,,,,,,,,,199126,19,2022-01-25_21h03.38.872,lexical_decision_task_DD_L2,2021.2.3,MacIntel,62.5,,,,,,,,,,,,0.813,0,,,,,,,,,,,,,,z,0,0.813,,,,,,,,-0.027777778,-0.37,0,0,0,,0,119,119,84,1,HAXES,C,old,n,./images/HAXES.png,,,,,,,,,,,,,,,,,,,,,
,,,,,,,,,,,,,,,,,199126,19,2022-01-25_21h03.38.872,lexical_decision_task_DD_L2,2021.2.3,MacIntel,62.5,,,,,,,,,,,,2.029,0,,,,,,,,,,,,,,z,0,2.029,,,,,,,,-0.027777778,-0.37,0,0,0,,0,120,120,100,1,DRIBS,HB,old,n,./images/DRIBSHB.png,,,,,,,,,,,,,,,,,,,,,
,,,,,,,,,,,,,,,,,199126,19,2022-01-25_21h03.38.872,lexical_decision_task_DD_L2,2021.2.3,MacIntel,62.5,,,,,,,,,,,,0.854,0,,,,,,,,,,,,,,z,0,0.854,,,,,,,,-0.027777778,-0.37,0,0,0,,0,121,121,162,1,LEICH,C,old,n,./images/LEICH.png,,,,,,,,,,,,,,,,,,,,,
,,,,,,,,,,,,,,,,,199126,19,2022-01-25_21h03.38.872,lexical_decision_task_DD_L2,2021.2.3,MacIntel,62.5,,,,,,,,,,,,0.9,0,,,,,,,,,,,,,,z,0,0.9,,,,,,,,-0.027777778,-0.37,0,0,0,,0,122,122,96,1,KEAMS,C,old,n,./images/KEAMS.png,,,,,,,,,,,,,,,,,,,,,
,,,,,,,,,,,,,,,,,199126,19,2022-01-25_21h03.38.872,lexical_decision_task_DD_L2,2021.2.3,MacIntel,62.5,,,,,,,,,,,,2.049,0,,,,,,,,,,,,,,z,0,2.049,,,,,,,,-0.027777778,-0.37,0,0,0,,0,123,123,139,1,BLEAR,HB,old,n,./images/BLEARHB.png,,,,,,,,,,,,,,,,,,,,,
,,,,,,,,,,,,,,,,,199126,19,2022-01-25_21h03.38.872,lexical_decision_task_DD_L2,2021.2.3,MacIntel,62.5,,,,,,,,,,,,0.816,0,,,,,,,,,,,,,,m,0,0.816,,,,,,,,-0.027777778,-0.37,0,0,0,,0,124,124,75,1,GRAIN,HB,old,y,./images/GRAINHB.png,,,,,,,,,,,,,,,,,,,,,
,,,,,,,,,,,,,,,,,199126,19,2022-01-25_21h03.38.872,lexical_decision_task_DD_L2,2021.2.3,MacIntel,62.5,,,,,,,,,,,,0.997,0,,,,,,,,,,,,,,m,0,0.997,,,,,,,,-0.027777778,-0.37,0,0,0,space,0,125,125,26,1,SMOKER,C,old,y,./images/SMOKER.png,3.564,,,,,,,,,,,,,,,,,,,,
,,,,,,,,,,,,,,,,,199126,19,2022-01-25_21h03.38.872,lexical_decision_task_DD_L2,2021.2.3,MacIntel,62.5,,,,,,,,,,,,0.714,0,,,,,,,,,,,,,,m,0,0.714,,,,,,,,-0.027777778,-0.37,0,0,0,,0,126,126,53,1,CARPET,C,old,y,./images/CARPET.png,,,,,,,,,,,,,,,,,,,,,
,,,,,,,,,,,,,,,,,199126,19,2022-01-25_21h03.38.872,lexical_decision_task_DD_L2,2021.2.3,MacIntel,62.5,,,,,,,,,,,,0.83,0,,,,,,,,,,,,,,z,0,0.83,,,,,,,,-0.027777778,-0.37,0,0,0,,0,127,127,109,1,BURGE,HB,old,n,./images/BURGEHB.png,,,,,,,,,,,,,,,,,,,,,
,,,,,,,,,,,,,,,,,199126,19,2022-01-25_21h03.38.872,lexical_decision_task_DD_L2,2021.2.3,MacIntel,62.5,,,,,,,,,,,,0.863,0,,,,,,,,,,,,,,m,0,0.863,,,,,,,,-0.027777778,-0.37,0,0,0,,0,128,128,39,1,SHELF,HB,old,y,./images/SHELFHB.png,,,,,,,,,,,,,,,,,,,,,
,,,,,,,,,,,,,,,,,199126,19,2022-01-25_21h03.38.872,lexical_decision_task_DD_L2,2021.2.3,MacIntel,62.5,,,,,,,,,,,,0.799,0,,,,,,,,,,,,,,m,0,0.799,,,,,,,,-0.027777778,-0.37,0,0,0,,0,129,129,71,1,PIMPLE,C,old,y,./images/PIMPLE.png,,,,,,,,,,,,,,,,,,,,,
,,,,,,,,,,,,,,,,,199126,19,2022-01-25_21h03.38.872,lexical_decision_task_DD_L2,2021.2.3,MacIntel,62.5,,,,,,,,,,,,0.731,0,,,,,,,,,,,,,,z,0,0.731,,,,,,,,-0.027777778,-0.37,0,0,0,,0,130,130,156,1,HIXES,C,old,n,./images/HIXES.png,,,,,,,,,,,,,,,,,,,,,
,,,,,,,,,,,,,,,,,199126,19,2022-01-25_21h03.38.872,lexical_decision_task_DD_L2,2021.2.3,MacIntel,62.5,,,,,,,,,,,,1.695,0,,,,,,,,,,,,,,m,0,1.695,,,,,,,,-0.027777778,-0.37,0,0,0,,0,131,131,142,1,PLASK,HB,old,n,./images/PLASKHB.png,,,,,,,,,,,,,,,,,,,,,
,,,,,,,,,,,,,,,,,199126,19,2022-01-25_21h03.38.872,lexical_decision_task_DD_L2,2021.2.3,MacIntel,62.5,,,,,,,,,,,,0.695,0,,,,,,,,,,,,,,m,0,0.695,,,,,,,,-0.027777778,-0.37,0,0,0,,0,132,132,4,1,MUSCLE,LB,old,y,./images/MUSCLELB.png,,,,,,,,,,,,,,,,,,,,,
,,,,,,,,,,,,,,,,,199126,19,2022-01-25_21h03.38.872,lexical_decision_task_DD_L2,2021.2.3,MacIntel,62.5,,,,,,,,,,,,0.628,0,,,,,,,,,,,,,,m,0,0.628,,,,,,,,-0.027777778,-0.37,0,0,0,,0,133,133,21,1,KIDNEY,HB,old,y,./images/KIDNEYHB.png,,,,,,,,,,,,,,,,,,,,,
,,,,,,,,,,,,,,,,,199126,19,2022-01-25_21h03.38.872,lexical_decision_task_DD_L2,2021.2.3,MacIntel,62.5,,,,,,,,,,,,0.995,0,,,,,,,,,,,,,,z,0,0.995,,,,,,,,-0.027777778,-0.37,0,0,0,,0,134,134,124,1,TUNCH,HB,old,n,./images/TUNCHHB.png,,,,,,,,,,,,,,,,,,,,,
,,,,,,,,,,,,,,,,,199126,19,2022-01-25_21h03.38.872,lexical_decision_task_DD_L2,2021.2.3,MacIntel,62.5,,,,,,,,,,,,0.687,0,,,,,,,,,,,,,,m,0,0.687,,,,,,,,-0.027777778,-0.37,0,0,0,,0,135,135,60,1,TWINS,HB,old,y,./images/TWINSHB.png,,,,,,,,,,,,,,,,,,,,,
,,,,,,,,,,,,,,,,,199126,19,2022-01-25_21h03.38.872,lexical_decision_task_DD_L2,2021.2.3,MacIntel,62.5,,,,,,,,,,,,1.813,0,,,,,,,,,,,,,,z,0,1.813,,,,,,,,-0.027777778,-0.37,0,0,0,,0,136,136,151,1,TINKY,HB,old,n,./images/TINKYHB.png,,,,,,,,,,,,,,,,,,,,,
,,,,,,,,,,,,,,,,,199126,19,2022-01-25_21h03.38.872,lexical_decision_task_DD_L2,2021.2.3,MacIntel,62.5,,,,,,,,,,,,0.971,0,,,,,,,,,,,,,,z,0,0.971,,,,,,,,-0.027777778,-0.37,0,0,0,,0,137,137,154,1,THINT,HB,old,n,./images/THINTHB.png,,,,,,,,,,,,,,,,,,,,,
,,,,,,,,,,,,,,,,,199126,19,2022-01-25_21h03.38.872,lexical_decision_task_DD_L2,2021.2.3,MacIntel,62.5,,,,,,,,,,,,1.262,0,,,,,,,,,,,,,,z,0,1.262,,,,,,,,-0.027777778,-0.37,0,0,0,,0,138,138,134,1,TROSS,LB,old,n,./images/TROSSLB.png,,,,,,,,,,,,,,,,,,,,,
,,,,,,,,,,,,,,,,,199126,19,2022-01-25_21h03.38.872,lexical_decision_task_DD_L2,2021.2.3,MacIntel,62.5,,,,,,,,,,,,0.866,0,,,,,,,,,,,,,,z,0,0.866,,,,,,,,-0.027777778,-0.37,0,0,0,,0,139,139,141,1,PLEET,C,old,n,./images/PLEET.png,,,,,,,,,,,,,,,,,,,,,
,,,,,,,,,,,,,,,,,199126,19,2022-01-25_21h03.38.872,lexical_decision_task_DD_L2,2021.2.3,MacIntel,62.5,,,,,,,,,,,,0.696,0,,,,,,,,,,,,,,m,0,0.696,,,,,,,,-0.027777778,-0.37,0,0,0,,0,140,140,0,1,TOMATO,HB,old,y,./images/TOMATOHB.png,,,,,,,,,,,,,,,,,,,,,
,,,,,,,,,,,,,,,,,199126,19,2022-01-25_21h03.38.872,lexical_decision_task_DD_L2,2021.2.3,MacIntel,62.5,,,,,,,,,,,,0.916,0,,,,,,,,,,,,,,z,0,0.916,,,,,,,,-0.027777778,-0.37,0,0,0,,0,141,141,147,1,ZOLES,C,old,n,./images/ZOLES.png,,,,,,,,,,,,,,,,,,,,,
,,,,,,,,,,,,,,,,,199126,19,2022-01-25_21h03.38.872,lexical_decision_task_DD_L2,2021.2.3,MacIntel,62.5,,,,,,,,,,,,1.278,0,,,,,,,,,,,,,,z,0,1.278,,,,,,,,-0.027777778,-0.37,0,0,0,,0,142,142,165,1,TROWN,C,old,n,./images/TROWN.png,,,,,,,,,,,,,,,,,,,,,
,,,,,,,,,,,,,,,,,199126,19,2022-01-25_21h03.38.872,lexical_decision_task_DD_L2,2021.2.3,MacIntel,62.5,,,,,,,,,,,,0.921,0,,,,,,,,,,,,,,m,0,0.921,,,,,,,,-0.027777778,-0.37,0,0,0,,0,143,143,15,1,GREASE,HB,old,y,./images/GREASEHB.png,,,,,,,,,,,,,,,,,,,,,
,,,,,,,,,,,,,,,,,199126,19,2022-01-25_21h03.38.872,lexical_decision_task_DD_L2,2021.2.3,MacIntel,62.5,,,,,,,,,,,,1.08,0,,,,,,,,,,,,,,z,0,1.08,,,,,,,,-0.027777778,-0.37,0,0,0,,0,144,144,99,1,BACKY,C,old,n,./images/BACKY.png,,,,,,,,,,,,,,,,,,,,,
,,,,,,,,,,,,,,,,,199126,19,2022-01-25_21h03.38.872,lexical_decision_task_DD_L2,2021.2.3,MacIntel,62.5,,,,,,,,,,,,1.234,0,,,,,,,,,,,,,,z,0,1.234,,,,,,,,-0.027777778,-0.37,0,0,0,,0,145,145,107,1,FASKS,LB,old,n,./images/FASKSLB.png,,,,,,,,,,,,,,,,,,,,,
,,,,,,,,,,,,,,,,,199126,19,2022-01-25_21h03.38.872,lexical_decision_task_DD_L2,2021.2.3,MacIntel,62.5,,,,,,,,,,,,0.778,0,,,,,,,,,,,,,,m,0,0.778,,,,,,,,-0.027777778,-0.37,0,0,0,,0,146,146,64,1,JELLY,LB,old,y,./images/JELLYLB.png,,,,,,,,,,,,,,,,,,,,,
,,,,,,,,,,,,,,,,,199126,19,2022-01-25_21h03.38.872,lexical_decision_task_DD_L2,2021.2.3,MacIntel,62.5,,,,,,,,,,,,1.33,0,,,,,,,,,,,,,,z,0,1.33,,,,,,,,-0.027777778,-0.37,0,0,0,,0,147,147,118,1,BAVEL,HB,old,n,./images/BAVELHB.png,,,,,,,,,,,,,,,,,,,,,
,,,,,,,,,,,,,,,,,199126,19,2022-01-25_21h03.38.872,lexical_decision_task_DD_L2,2021.2.3,MacIntel,62.5,,,,,,,,,,,,1.171,0,,,,,,,,,,,,,,z,0,1.171,,,,,,,,-0.027777778,-0.37,0,0,0,,0,148,148,122,1,BLOOT,LB,old,n,./images/BLOOTLB.png,,,,,,,,,,,,,,,,,,,,,
,,,,,,,,,,,,,,,,,199126,19,2022-01-25_21h03.38.872,lexical_decision_task_DD_L2,2021.2.3,MacIntel,62.5,,,,,,,,,,,,1.514,0,,,,,,,,,,,,,,m,0,1.514,,,,,,,,-0.027777778,-0.37,0,0,0,,0,149,149,6,1,SQUARE,HB,old,y,./images/SQUAREHB.png,,,,,,,,,,,,,,,,,,,,,
,,,,,,,,,,,,,,,,,199126,19,2022-01-25_21h03.38.872,lexical_decision_task_DD_L2,2021.2.3,MacIntel,62.5,,,,,,,,,,,,0.746,0,,,,,,,,,,,,,,z,0,0.746,,,,,,,,-0.027777778,-0.37,0,0,0,,0,150,150,120,1,RINED,C,old,n,./images/RINED.png,,,,,,,,,,,,,,,,,,,,,
,,,,,,,,,,,,,,,,,199126,19,2022-01-25_21h03.38.872,lexical_decision_task_DD_L2,2021.2.3,MacIntel,62.5,,,,,,,,,,,,0.582,0,,,,,,,,,,,,,,z,0,0.582,,,,,,,,-0.027777778,-0.37,0,0,0,,0,151,151,102,1,DULLE,C,old,n,./images/DULLE.png,,,,,,,,,,,,,,,,,,,,,
,,,,,,,,,,,,,,,,,199126,19,2022-01-25_21h03.38.872,lexical_decision_task_DD_L2,2021.2.3,MacIntel,62.5,,,,,,,,,,,,0.704,0,,,,,,,,,,,,,,m,0,0.704,,,,,,,,-0.027777778,-0.37,0,0,0,,0,152,152,22,1,MELON,LB,old,y,./images/MELONLB.png,,,,,,,,,,,,,,,,,,,,,
,,,,,,,,,,,,,,,,,199126,19,2022-01-25_21h03.38.872,lexical_decision_task_DD_L2,2021.2.3,MacIntel,62.5,,,,,,,,,,,,0.612,0,,,,,,,,,,,,,,m,0,0.612,,,,,,,,-0.027777778,-0.37,0,0,0,,0,153,153,82,1,SUNSET,LB,old,y,./images/SUNSETLB.png,,,,,,,,,,,,,,,,,,,,,
,,,,,,,,,,,,,,,,,199126,19,2022-01-25_21h03.38.872,lexical_decision_task_DD_L2,2021.2.3,MacIntel,62.5,,,,,,,,,,,,0.563,0,,,,,,,,,,,,,,m,0,0.563,,,,,,,,-0.027777778,-0.37,0,0,0,,0,154,154,61,1,CANDLE,LB,old,y,./images/CANDLELB.png,,,,,,,,,,,,,,,,,,,,,
,,,,,,,,,,,,,,,,,199126,19,2022-01-25_21h03.38.872,lexical_decision_task_DD_L2,2021.2.3,MacIntel,62.5,,,,,,,,,,,,0.681,0,,,,,,,,,,,,,,m,0,0.681,,,,,,,,-0.027777778,-0.37,0,0,0,,0,155,155,66,1,SWEAT,HB,old,y,./images/SWEATHB.png,,,,,,,,,,,,,,,,,,,,,
,,,,,,,,,,,,,,,,,199126,19,2022-01-25_21h03.38.872,lexical_decision_task_DD_L2,2021.2.3,MacIntel,62.5,,,,,,,,,,,,0.633,0,,,,,,,,,,,,,,z,0,0.633,,,,,,,,-0.027777778,-0.37,0,0,0,,0,156,156,104,1,GITTY,LB,old,n,./images/GITTYLB.png,,,,,,,,,,,,,,,,,,,,,
,,,,,,,,,,,,,,,,,199126,19,2022-01-25_21h03.38.872,lexical_decision_task_DD_L2,2021.2.3,MacIntel,62.5,,,,,,,,,,,,0.986,0,,,,,,,,,,,,,,m,0,0.986,,,,,,,,-0.027777778,-0.37,0,0,0,,0,157,157,130,1,CRILL,HB,old,n,./images/CRILLHB.png,,,,,,,,,,,,,,,,,,,,,
,,,,,,,,,,,,,,,,,199126,19,2022-01-25_21h03.38.872,lexical_decision_task_DD_L2,2021.2.3,MacIntel,62.5,,,,,,,,,,,,1.11,0,,,,,,,,,,,,,,z,0,1.11,,,,,,,,-0.027777778,-0.37,0,0,0,,0,158,158,112,1,MYING,HB,old,n,./images/MYINGHB.png,,,,,,,,,,,,,,,,,,,,,
,,,,,,,,,,,,,,,,,199126,19,2022-01-25_21h03.38.872,lexical_decision_task_DD_L2,2021.2.3,MacIntel,62.5,,,,,,,,,,,,0.829,0,,,,,,,,,,,,,,m,0,0.829,,,,,,,,-0.027777778,-0.37,0,0,0,,0,159,159,18,1,JAGUAR,HB,old,y,./images/JAGUARHB.png,,,,,,,,,,,,,,,,,,,,,
,,,,,,,,,,,,,,,,,199126,19,2022-01-25_21h03.38.872,lexical_decision_task_DD_L2,2021.2.3,MacIntel,62.5,,,,,,,,,,,,0.902,0,,,,,,,,,,,,,,z,0,0.902,,,,,,,,-0.027777778,-0.37,0,0,0,,0,160,160,161,1,BLAPS,LB,old,n,./images/BLAPSLB.png,,,,,,,,,,,,,,,,,,,,,
,,,,,,,,,,,,,,,,,199126,19,2022-01-25_21h03.38.872,lexical_decision_task_DD_L2,2021.2.3,MacIntel,62.5,,,,,,,,,,,,0.821,0,,,,,,,,,,,,,,z,0,0.821,,,,,,,,-0.027777778,-0.37,0,0,0,,0,161,161,113,1,LINEW,LB,old,n,./images/LINEWLB.png,,,,,,,,,,,,,,,,,,,,,
,,,,,,,,,,,,,,,,,199126,19,2022-01-25_21h03.38.872,lexical_decision_task_DD_L2,2021.2.3,MacIntel,62.5,,,,,,,,,,,,0.995,0,,,,,,,,,,,,,,z,0,0.995,,,,,,,,-0.027777778,-0.37,0,0,0,,0,162,162,167,1,ZONET,LB,old,n,./images/ZONETLB.png,,,,,,,,,,,,,,,,,,,,,
,,,,,,,,,,,,,,,,,199126,19,2022-01-25_21h03.38.872,lexical_decision_task_DD_L2,2021.2.3,MacIntel,62.5,,,,,,,,,,,,1.001,0,,,,,,,,,,,,,,m,0,1.001,,,,,,,,-0.027777778,-0.37,0,0,0,,0,163,163,51,1,ONION,HB,old,y,./images/ONIONHB.png,,,,,,,,,,,,,,,,,,,,,
,,,,,,,,,,,,,,,,,199126,19,2022-01-25_21h03.38.872,lexical_decision_task_DD_L2,2021.2.3,MacIntel,62.5,,,,,,,,,,,,0.681,0,,,,,,,,,,,,,,m,0,0.681,,,,,,,,-0.027777778,-0.37,0,0,0,,0,164,164,46,1,PEARL,LB,old,y,./images/PEARLLB.png,,,,,,,,,,,,,,,,,,,,,
,,,,,,,,,,,,,,,,,199126,19,2022-01-25_21h03.38.872,lexical_decision_task_DD_L2,2021.2.3,MacIntel,62.5,,,,,,,,,,,,0.831,0,,,,,,,,,,,,,,z,0,0.831,,,,,,,,-0.027777778,-0.37,0,0,0,,0,165,165,97,1,CHIDS,HB,old,n,./images/CHIDSHB.png,,,,,,,,,,,,,,,,,,,,,
,,,,,,,,,,,,,,,,,199126,19,2022-01-25_21h03.38.872,lexical_decision_task_DD_L2,2021.2.3,MacIntel,62.5,,,,,,,,,,,,1.206,0,,,,,,,,,,,,,,z,0,1.206,,,,,,,,-0.027777778,-0.37,0,0,0,,0,166,166,17,1,SKIING,C,old,y,./images/SKIING.png,,,,,,,,,,,,,,,,,,,,,
,,,,,,,,,,,,,,,,,199126,19,2022-01-25_21h03.38.872,lexical_decision_task_DD_L2,2021.2.3,MacIntel,62.5,,,,,,,,,,,,0.713,0,,,,,,,,,,,,,,z,0,0.713,,,,,,,,-0.027777778,-0.37,0,0,0,,0,167,167,138,1,PLICE,C,old,n,./images/PLICE.png,,,,,,,,,,,,,,,,,,,,,
space,-0.027777778,-0.37,0,0,0,,,,,,,1,test,"In the next phase you will be presented with the words from the the first phase. Your job is to decide whether you remember seeing the word or not. If you remember seeing the word press ""old"" or type ""m"". If you do not remember seeing the word press ""new"" or type ""z"". Please press the space bar or click on continue to begin. ",,,199126,19,2022-01-25_21h03.38.872,lexical_decision_task_DD_L2,2021.2.3,MacIntel,62.5,17.391,,,,,,,,,,,,,,,,,,,,,,,,,,,,,,,,,,,,,,,,,,,,,,,,,,,,,0,0,0,0,1,,,,,,,,,,,,,,,
space,-0.027777778,-0.37,0,0,0,,,,,,,1,test,"In the next phase you will be presented with the words from the the first phase. Your job is to decide whether you remember seeing the word or not. If you remember seeing the word press ""old"" or type ""m"". If you do not remember seeing the word press ""new"" or type ""z"". Please press the space bar or click on continue to begin. ",,,199126,19,2022-01-25_21h03.38.872,lexical_decision_task_DD_L2,2021.2.3,MacIntel,62.5,1.816,,,,,,,,,,,,,,,,,,,,,,,,,,,,,,,,,,,,,,,,,,,,,,,,,,,,,1,0,1,0,1,,,,,,,,,,,,,,,
,-0.016666667,-0.415555556,1,0,0,instr_done_button,,,,,,1,test,"In the next phase you will be presented with the words from the the first phase. Your job is to decide whether you remember seeing the word or not. If you remember seeing the word press ""old"" or type ""m"". If you do not remember seeing the word press ""new"" or type ""z"". Please press the space bar or click on continue to begin. ",,,199126,19,2022-01-25_21h03.38.872,lexical_decision_task_DD_L2,2021.2.3,MacIntel,62.5,,,,,,,,,,,,,,,,,,,,,,,,,,,,,,,,,,,,,,,,,,,,,,,,,,,,,,2,0,2,0,1,,,,,,,,,,,,,,,
,0.003333333,-0.384444444,1,0,0,instr_done_button,,,,,,1,test,"In the next phase you will be presented with the words from the the first phase. Your job is to decide whether you remember seeing the word or not. If you remember seeing the word press ""old"" or type ""m"". If you do not remember seeing the word press ""new"" or type ""z"". Please press the space bar or click on continue to begin. ",,,199126,19,2022-01-25_21h03.38.872,lexical_decision_task_DD_L2,2021.2.3,MacIntel,62.5,,,,,,,,,,,,,,,,,,,,,,,,,,,,,,,,,,,,,,,,,,,,,,,,,,,,,,3,0,3,0,1,,,,,,,,,,,,,,,
space,-0.042222222,0.006666667,0,0,0,,,,,,,1,test,"In the next phase you will be presented with the words from the the first phase. Your job is to decide whether you remember seeing the word or not. If you remember seeing the word press ""old"" or type ""m"". If you do not remember seeing the word press ""new"" or type ""z"". Please press the space bar or click on continue to begin. ",,,199126,19,2022-01-25_21h03.38.872,lexical_decision_task_DD_L2,2021.2.3,MacIntel,62.5,2.385,,,,,,,,,,,,,,,,,,,,,,,,,,,,,,,,,,,,,,,,,,,,,,,,,,,,,4,0,4,0,1,,,,,,,,,,,,,,,
,,,,,,,,,,,,,,,,,199126,19,2022-01-25_21h03.38.872,lexical_decision_task_DD_L2,2021.2.3,MacIntel,62.5,,,,,,,,,,,,2.574,0,,,,,,,,,,,,,,,,,,,,,,,,-0.042222222,0.006666667,0,0,0,,,,,,,SAILOR,LB,old,y,./images/SAILORLB.png,,,,,,,m,0,2.574,,,,,,,,0,0,0,67,1
,,,,,,,,,,,,,,,,,199126,19,2022-01-25_21h03.38.872,lexical_decision_task_DD_L2,2021.2.3,MacIntel,62.5,,,,,,,,,,,,0.696,0,,,,,,,,,,,,,,,,,,,,,,,,-0.042222222,0.006666667,0,0,0,,,,,,,FARMER,C,old,y,./images/FARMER.png,,,,,,,m,0,0.696,,,,,,,,0,1,1,65,1
,,,,,,,,,,,,,,,,,199126,19,2022-01-25_21h03.38.872,lexical_decision_task_DD_L2,2021.2.3,MacIntel,62.5,,,,,,,,,,,,0.649,0,,,,,,,,,,,,,,,,,,,,,,,,-0.042222222,0.006666667,0,0,0,,,,,,,MOTOR,LB,old,y,./images/MOTORLB.png,,,,,,,m,0,0.649,,,,,,,,0,2,2,13,1
,,,,,,,,,,,,,,,,,199126,19,2022-01-25_21h03.38.872,lexical_decision_task_DD_L2,2021.2.3,MacIntel,62.5,,,,,,,,,,,,0.729,0,,,,,,,,,,,,,,,,,,,,,,,,-0.042222222,0.006666667,0,0,0,,,,,,,ARROW,HB,new,y,./images/ARROWHB.png,,,,,,,m,0,0.729,,,,,,,,0,3,3,153,1
,,,,,,,,,,,,,,,,,199126,19,2022-01-25_21h03.38.872,lexical_decision_task_DD_L2,2021.2.3,MacIntel,62.5,,,,,,,,,,,,0.898,0,,,,,,,,,,,,,,,,,,,,,,,,-0.042222222,0.006666667,0,0,0,,,,,,,WHEEL,C,new,y,./images/WHEEL.png,,,,,,,z,0,0.898,,,,,,,,0,4,4,161,1
,,,,,,,,,,,,,,,,,199126,19,2022-01-25_21h03.38.872,lexical_decision_task_DD_L2,2021.2.3,MacIntel,62.5,,,,,,,,,,,,1.038,0,,,,,,,,,,,,,,,,,,,,,,,,-0.042222222,0.006666667,0,0,0,,,,,,,PISTOL,C,new,y,./images/PISTOL.png,,,,,,,z,0,1.038,,,,,,,,0,5,5,113,1
,,,,,,,,,,,,,,,,,199126,19,2022-01-25_21h03.38.872,lexical_decision_task_DD_L2,2021.2.3,MacIntel,62.5,,,,,,,,,,,,0.788,0,,,,,,,,,,,,,,,,,,,,,,,,-0.042222222,0.006666667,0,0,0,,,,,,,LIZARD,C,old,y,./images/LIZARD.png,,,,,,,m,0,0.788,,,,,,,,0,6,6,44,1
,,,,,,,,,,,,,,,,,199126,19,2022-01-25_21h03.38.872,lexical_decision_task_DD_L2,2021.2.3,MacIntel,62.5,,,,,,,,,,,,0.732,0,,,,,,,,,,,,,,,,,,,,,,,,-0.042222222,0.006666667,0,0,0,,,,,,,CANDLE,LB,old,y,./images/CANDLELB.png,,,,,,,m,0,0.732,,,,,,,,0,7,7,61,1
,,,,,,,,,,,,,,,,,199126,19,2022-01-25_21h03.38.872,lexical_decision_task_DD_L2,2021.2.3,MacIntel,62.5,,,,,,,,,,,,1.102,0,,,,,,,,,,,,,,,,,,,,,,,,-0.042222222,0.006666667,0,0,0,,,,,,,BIRTH,LB,old,y,./images/BIRTHLB.png,,,,,,,m,0,1.102,,,,,,,,0,8,8,37,1
,,,,,,,,,,,,,,,,,199126,19,2022-01-25_21h03.38.872,lexical_decision_task_DD_L2,2021.2.3,MacIntel,62.5,,,,,,,,,,,,0.796,0,,,,,,,,,,,,,,,,,,,,,,,,-0.042222222,0.006666667,0,0,0,,,,,,,BUTTER,HB,new,y,./images/BUTTERHB.png,,,,,,,z,0,0.796,,,,,,,,0,9,9,111,1
,,,,,,,,,,,,,,,,,199126,19,2022-01-25_21h03.38.872,lexical_decision_task_DD_L2,2021.2.3,MacIntel,62.5,,,,,,,,,,,,1.012,0,,,,,,,,,,,,,,,,,,,,,,,,-0.042222222,0.006666667,0,0,0,,,,,,,SKIING,C,old,y,./images/SKIING.png,,,,,,,m,0,1.012,,,,,,,,0,10,10,17,1
,,,,,,,,,,,,,,,,,199126,19,2022-01-25_21h03.38.872,lexical_decision_task_DD_L2,2021.2.3,MacIntel,62.5,,,,,,,,,,,,1.012,0,,,,,,,,,,,,,,,,,,,,,,,,-0.042222222,0.006666667,0,0,0,,,,,,,FOLDER,HB,old,y,./images/FOLDERHB.png,,,,,,,m,0,1.012,,,,,,,,0,11,11,42,1
,,,,,,,,,,,,,,,,,199126,19,2022-01-25_21h03.38.872,lexical_decision_task_DD_L2,2021.2.3,MacIntel,62.5,,,,,,,,,,,,0.863,0,,,,,,,,,,,,,,,,,,,,,,,,-0.042222222,0.006666667,0,0,0,,,,,,,MONKEY,HB,new,y,./images/MONKEYHB.png,,,,,,,z,0,0.863,,,,,,,,0,12,12,129,1
,,,,,,,,,,,,,,,,,199126,19,2022-01-25_21h03.38.872,lexical_decision_task_DD_L2,2021.2.3,MacIntel,62.5,,,,,,,,,,,,0.845,0,,,,,,,,,,,,,,,,,,,,,,,,-0.042222222,0.006666667,0,0,0,,,,,,,WEASEL,C,old,y,./images/WEASEL.png,,,,,,,m,0,0.845,,,,,,,,0,13,13,80,1
,,,,,,,,,,,,,,,,,199126,19,2022-01-25_21h03.38.872,lexical_decision_task_DD_L2,2021.2.3,MacIntel,62.5,,,,,,,,,,,,1.381,0,,,,,,,,,,,,,,,,,,,,,,,,-0.042222222,0.006666667,0,0,0,,,,,,,SPINE,C,new,y,./images/SPINE.png,,,,,,,z,0,1.381,,,,,,,,0,14,14,149,1
,,,,,,,,,,,,,,,,,199126,19,2022-01-25_21h03.38.872,lexical_decision_task_DD_L2,2021.2.3,MacIntel,62.5,,,,,,,,,,,,0.978,0,,,,,,,,,,,,,,,,,,,,,,,,-0.042222222,0.006666667,0,0,0,,,,,,,CRATER,HB,new,y,./images/CRATERHB.png,,,,,,,z,0,0.978,,,,,,,,0,15,15,87,1
,,,,,,,,,,,,,,,,,199126,19,2022-01-25_21h03.38.872,lexical_decision_task_DD_L2,2021.2.3,MacIntel,62.5,,,,,,,,,,,,1.187,0,,,,,,,,,,,,,,,,,,,,,,,,-0.042222222,0.006666667,0,0,0,,,,,,,BANNER,LB,old,y,./images/BANNERLB.png,,,,,,,m,0,1.187,,,,,,,,0,16,16,52,1
,,,,,,,,,,,,,,,,,199126,19,2022-01-25_21h03.38.872,lexical_decision_task_DD_L2,2021.2.3,MacIntel,62.5,,,,,,,,,,,,0.999,0,,,,,,,,,,,,,,,,,,,,,,,,-0.042222222,0.006666667,0,0,0,,,,,,,CHERRY,HB,new,y,./images/CHERRYHB.png,,,,,,,z,0,0.999,,,,,,,,0,17,17,138,1
,,,,,,,,,,,,,,,,,199126,19,2022-01-25_21h03.38.872,lexical_decision_task_DD_L2,2021.2.3,MacIntel,62.5,,,,,,,,,,,,0.831,0,,,,,,,,,,,,,,,,,,,,,,,,-0.042222222,0.006666667,0,0,0,,,,,,,GREASE,HB,old,y,./images/GREASEHB.png,,,,,,,m,0,0.831,,,,,,,,0,18,18,15,1
,,,,,,,,,,,,,,,,,199126,19,2022-01-25_21h03.38.872,lexical_decision_task_DD_L2,2021.2.3,MacIntel,62.5,,,,,,,,,,,,1.098,0,,,,,,,,,,,,,,,,,,,,,,,,-0.042222222,0.006666667,0,0,0,,,,,,,STRING,C,old,y,./images/STRING.png,,,,,,,m,0,1.098,,,,,,,,0,19,19,41,1
,,,,,,,,,,,,,,,,,199126,19,2022-01-25_21h03.38.872,lexical_decision_task_DD_L2,2021.2.3,MacIntel,62.5,,,,,,,,,,,,0.861,0,,,,,,,,,,,,,,,,,,,,,,,,-0.042222222,0.006666667,0,0,0,,,,,,,PEACH,C,old,y,./images/PEACH.png,,,,,,,m,0,0.861,,,,,,,,0,20,20,35,1
,,,,,,,,,,,,,,,,,199126,19,2022-01-25_21h03.38.872,lexical_decision_task_DD_L2,2021.2.3,MacIntel,62.5,,,,,,,,,,,,0.978,0,,,,,,,,,,,,,,,,,,,,,,,,-0.042222222,0.006666667,0,0,0,,,,,,,RULER,LB,new,y,./images/RULERLB.png,,,,,,,z,0,0.978,,,,,,,,0,21,21,163,1
,,,,,,,,,,,,,,,,,199126,19,2022-01-25_21h03.38.872,lexical_decision_task_DD_L2,2021.2.3,MacIntel,62.5,,,,,,,,,,,,0.852,0,,,,,,,,,,,,,,,,,,,,,,,,-0.042222222,0.006666667,0,0,0,,,,,,,SWING,LB,old,y,./images/SWINGLB.png,,,,,,,m,0,0.852,,,,,,,,0,22,22,40,1
,,,,,,,,,,,,,,,,,199126,19,2022-01-25_21h03.38.872,lexical_decision_task_DD_L2,2021.2.3,MacIntel,62.5,,,,,,,,,,,,0.881,0,,,,,,,,,,,,,,,,,,,,,,,,-0.042222222,0.006666667,0,0,0,,,,,,,FERRY,HB,new,y,./images/FERRYHB.png,,,,,,,z,0,0.881,,,,,,,,0,23,23,141,1
,,,,,,,,,,,,,,,,,199126,19,2022-01-25_21h03.38.872,lexical_decision_task_DD_L2,2021.2.3,MacIntel,62.5,,,,,,,,,,,,0.73,0,,,,,,,,,,,,,,,,,,,,,,,,-0.042222222,0.006666667,0,0,0,,,,,,,KITTEN,HB,old,y,./images/KITTENHB.png,,,,,,,m,0,0.73,,,,,,,,0,24,24,45,1
,,,,,,,,,,,,,,,,,199126,19,2022-01-25_21h03.38.872,lexical_decision_task_DD_L2,2021.2.3,MacIntel,62.5,,,,,,,,,,,,0.911,0,,,,,,,,,,,,,,,,,,,,,,,,-0.042222222,0.006666667,0,0,0,,,,,,,ENGINE,C,new,y,./images/ENGINE.png,,,,,,,m,0,0.911,,,,,,,,0,25,25,122,1
,,,,,,,,,,,,,,,,,199126,19,2022-01-25_21h03.38.872,lexical_decision_task_DD_L2,2021.2.3,MacIntel,62.5,,,,,,,,,,,,1.328,0,,,,,,,,,,,,,,,,,,,,,,,,-0.042222222,0.006666667,0,0,0,,,,,,,BOILER,HB,new,y,./images/BOILERHB.png,,,,,,,m,0,1.328,,,,,,,,0,26,26,120,1
,,,,,,,,,,,,,,,,,199126,19,2022-01-25_21h03.38.872,lexical_decision_task_DD_L2,2021.2.3,MacIntel,62.5,,,,,,,,,,,,1.263,0,,,,,,,,,,,,,,,,,,,,,,,,-0.042222222,0.006666667,0,0,0,,,,,,,COOKER,HB,old,y,./images/COOKERHB.png,,,,,,,m,0,1.263,,,,,,,,0,27,27,69,1
,,,,,,,,,,,,,,,,,199126,19,2022-01-25_21h03.38.872,lexical_decision_task_DD_L2,2021.2.3,MacIntel,62.5,,,,,,,,,,,,1.005,0,,,,,,,,,,,,,,,,,,,,,,,,-0.042222222,0.006666667,0,0,0,,,,,,,POSTER,C,new,y,./images/POSTER.png,,,,,,,z,0,1.005,,,,,,,,0,28,28,137,1
,,,,,,,,,,,,,,,,,199126,19,2022-01-25_21h03.38.872,lexical_decision_task_DD_L2,2021.2.3,MacIntel,62.5,,,,,,,,,,,,1.002,0,,,,,,,,,,,,,,,,,,,,,,,,-0.042222222,0.006666667,0,0,0,,,,,,,CASINO,LB,new,y,./images/CASINOLB.png,,,,,,,z,0,1.002,,,,,,,,0,29,29,112,1
,,,,,,,,,,,,,,,,,199126,19,2022-01-25_21h03.38.872,lexical_decision_task_DD_L2,2021.2.3,MacIntel,62.5,,,,,,,,,,,,1.296,0,,,,,,,,,,,,,,,,,,,,,,,,-0.042222222,0.006666667,0,0,0,,,,,,,MAGGOT,HB,old,y,./images/MAGGOTHB.png,,,,,,,m,0,1.296,,,,,,,,0,30,30,33,1
,,,,,,,,,,,,,,,,,199126,19,2022-01-25_21h03.38.872,lexical_decision_task_DD_L2,2021.2.3,MacIntel,62.5,,,,,,,,,,,,1.02,0,,,,,,,,,,,,,,,,,,,,,,,,-0.042222222,0.006666667,0,0,0,,,,,,,BISHOP,LB,new,y,./images/BISHOPLB.png,,,,,,,z,0,1.02,,,,,,,,0,31,31,133,1
,,,,,,,,,,,,,,,,,199126,19,2022-01-25_21h03.38.872,lexical_decision_task_DD_L2,2021.2.3,MacIntel,62.5,,,,,,,,,,,,0.995,0,,,,,,,,,,,,,,,,,,,,,,,,-0.042222222,0.006666667,0,0,0,,,,,,,CRUMB,C,old,y,./images/CRUMB.png,,,,,,,z,0,0.995,,,,,,,,0,32,32,29,1
,,,,,,,,,,,,,,,,,199126,19,2022-01-25_21h03.38.872,lexical_decision_task_DD_L2,2021.2.3,MacIntel,62.5,,,,,,,,,,,,0.893,0,,,,,,,,,,,,,,,,,,,,,,,,-0.042222222,0.006666667,0,0,0,,,,,,,WALNUT,HB,new,y,./images/WALNUTHB.png,,,,,,,z,0,0.893,,,,,,,,0,33,33,84,1
,,,,,,,,,,,,,,,,,199126,19,2022-01-25_21h03.38.872,lexical_decision_task_DD_L2,2021.2.3,MacIntel,62.5,,,,,,,,,,,,1.211,0,,,,,,,,,,,,,,,,,,,,,,,,-0.042222222,0.006666667,0,0,0,,,,,,,JUNGLE,C,old,y,./images/JUNGLE.png,,,,,,,m,0,1.211,,,,,,,,0,34,34,83,1
,,,,,,,,,,,,,,,,,199126,19,2022-01-25_21h03.38.872,lexical_decision_task_DD_L2,2021.2.3,MacIntel,62.5,,,,,,,,,,,,1.08,0,,,,,,,,,,,,,,,,,,,,,,,,-0.042222222,0.006666667,0,0,0,,,,,,,BAKER,HB,new,y,./images/BAKERHB.png,,,,,,,z,0,1.08,,,,,,,,0,35,35,147,1
,,,,,,,,,,,,,,,,,199126,19,2022-01-25_21h03.38.872,lexical_decision_task_DD_L2,2021.2.3,MacIntel,62.5,,,,,,,,,,,,0.863,0,,,,,,,,,,,,,,,,,,,,,,,,-0.042222222,0.006666667,0,0,0,,,,,,,GRAIN,HB,old,y,./images/GRAINHB.png,,,,,,,m,0,0.863,,,,,,,,0,36,36,75,1
,,,,,,,,,,,,,,,,,199126,19,2022-01-25_21h03.38.872,lexical_decision_task_DD_L2,2021.2.3,MacIntel,62.5,,,,,,,,,,,,0.861,0,,,,,,,,,,,,,,,,,,,,,,,,-0.043333333,0.006666667,0,0,0,,,,,,,DANCER,HB,new,y,./images/DANCERHB.png,,,,,,,z,0,0.861,,,,,,,,0,37,37,105,1
,,,,,,,,,,,,,,,,,199126,19,2022-01-25_21h03.38.872,lexical_decision_task_DD_L2,2021.2.3,MacIntel,62.5,,,,,,,,,,,,0.763,0,,,,,,,,,,,,,,,,,,,,,,,,-0.043333333,0.006666667,0,0,0,,,,,,,DRUMS,LB,old,y,./images/DRUMSLB.png,,,,,,,m,0,0.763,,,,,,,,0,38,38,49,1
,,,,,,,,,,,,,,,,,199126,19,2022-01-25_21h03.38.872,lexical_decision_task_DD_L2,2021.2.3,MacIntel,62.5,,,,,,,,,,,,0.788,0,,,,,,,,,,,,,,,,,,,,,,,,-0.043333333,0.006666667,0,0,0,,,,,,,CARPET,C,old,y,./images/CARPET.png,,,,,,,m,0,0.788,,,,,,,,0,39,39,53,1
,,,,,,,,,,,,,,,,,199126,19,2022-01-25_21h03.38.872,lexical_decision_task_DD_L2,2021.2.3,MacIntel,62.5,,,,,,,,,,,,1.595,0,,,,,,,,,,,,,,,,,,,,,,,,-0.043333333,0.006666667,0,0,0,,,,,,,SHIELD,HB,new,y,./images/SHIELDHB.png,,,,,,,z,0,1.595,,,,,,,,0,40,40,132,1
,,,,,,,,,,,,,,,,,199126,19,2022-01-25_21h03.38.872,lexical_decision_task_DD_L2,2021.2.3,MacIntel,62.5,,,,,,,,,,,,0.955,0,,,,,,,,,,,,,,,,,,,,,,,,-0.043333333,0.006666667,0,0,0,space,,,,,,STOVE,C,new,y,./images/STOVE.png,10,,,,,,z,0,0.955,,,,,,,,0,41,41,86,1
,,,,,,,,,,,,,,,,,199126,19,2022-01-25_21h03.38.872,lexical_decision_task_DD_L2,2021.2.3,MacIntel,62.5,,,,,,,,,,,,0.919,0,,,,,,,,,,,,,,,,,,,,,,,,-0.043333333,0.006666667,0,0,0,,,,,,,BURIAL,C,old,y,./images/BURIAL.png,,,,,,,z,0,0.919,,,,,,,,0,42,42,59,1
,,,,,,,,,,,,,,,,,199126,19,2022-01-25_21h03.38.872,lexical_decision_task_DD_L2,2021.2.3,MacIntel,62.5,,,,,,,,,,,,0.83,0,,,,,,,,,,,,,,,,,,,,,,,,-0.043333333,0.006666667,0,0,0,,,,,,,MUMMY,LB,new,y,./images/MUMMYLB.png,,,,,,,z,0,0.83,,,,,,,,0,43,43,130,1
,,,,,,,,,,,,,,,,,199126,19,2022-01-25_21h03.38.872,lexical_decision_task_DD_L2,2021.2.3,MacIntel,62.5,,,,,,,,,,,,1.179,0,,,,,,,,,,,,,,,,,,,,,,,,-0.043333333,0.006666667,0,0,0,,,,,,,PLANET,C,new,y,./images/PLANET.png,,,,,,,z,0,1.179,,,,,,,,0,44,44,164,1
,,,,,,,,,,,,,,,,,199126,19,2022-01-25_21h03.38.872,lexical_decision_task_DD_L2,2021.2.3,MacIntel,62.5,,,,,,,,,,,,0.803,0,,,,,,,,,,,,,,,,,,,,,,,,-0.043333333,0.006666667,0,0,0,,,,,,,TOMATO,HB,old,y,./images/TOMATOHB.png,,,,,,,m,0,0.803,,,,,,,,0,45,45,0,1
,,,,,,,,,,,,,,,,,199126,19,2022-01-25_21h03.38.872,lexical_decision_task_DD_L2,2021.2.3,MacIntel,62.5,,,,,,,,,,,,0.779,0,,,,,,,,,,,,,,,,,,,,,,,,-0.043333333,0.006666667,0,0,0,,,,,,,MIRROR,HB,old,y,./images/MIRRORHB.png,,,,,,,m,0,0.779,,,,,,,,0,46,46,63,1
,,,,,,,,,,,,,,,,,199126,19,2022-01-25_21h03.38.872,lexical_decision_task_DD_L2,2021.2.3,MacIntel,62.5,,,,,,,,,,,,0.863,0,,,,,,,,,,,,,,,,,,,,,,,,-0.043333333,0.006666667,0,0,0,,,,,,,COUCH,C,old,y,./images/COUCH.png,,,,,,,m,0,0.863,,,,,,,,0,47,47,77,1
,,,,,,,,,,,,,,,,,199126,19,2022-01-25_21h03.38.872,lexical_decision_task_DD_L2,2021.2.3,MacIntel,62.5,,,,,,,,,,,,0.785,0,,,,,,,,,,,,,,,,,,,,,,,,-0.043333333,0.006666667,0,0,0,,,,,,,FINGER,HB,old,y,./images/FINGERHB.png,,,,,,,m,0,0.785,,,,,,,,0,48,48,3,1
,,,,,,,,,,,,,,,,,199126,19,2022-01-25_21h03.38.872,lexical_decision_task_DD_L2,2021.2.3,MacIntel,62.5,,,,,,,,,,,,1.265,0,,,,,,,,,,,,,,,,,,,,,,,,-0.043333333,0.006666667,0,0,0,,,,,,,DESERT,LB,new,y,./images/DESERTLB.png,,,,,,,z,0,1.265,,,,,,,,0,49,49,136,1
,,,,,,,,,,,,,,,,,199126,19,2022-01-25_21h03.38.872,lexical_decision_task_DD_L2,2021.2.3,MacIntel,62.5,,,,,,,,,,,,0.846,0,,,,,,,,,,,,,,,,,,,,,,,,-0.043333333,0.006666667,0,0,0,,,,,,,SCREW,HB,old,y,./images/SCREWHB.png,,,,,,,m,0,0.846,,,,,,,,0,50,50,24,1
,,,,,,,,,,,,,,,,,199126,19,2022-01-25_21h03.38.872,lexical_decision_task_DD_L2,2021.2.3,MacIntel,62.5,,,,,,,,,,,,0.897,0,,,,,,,,,,,,,,,,,,,,,,,,-0.043333333,0.006666667,0,0,0,,,,,,,GLOVE,LB,new,y,./images/GLOVELB.png,,,,,,,z,0,0.897,,,,,,,,0,51,51,157,1
,,,,,,,,,,,,,,,,,199126,19,2022-01-25_21h03.38.872,lexical_decision_task_DD_L2,2021.2.3,MacIntel,62.5,,,,,,,,,,,,0.86,0,,,,,,,,,,,,,,,,,,,,,,,,-0.043333333,0.006666667,0,0,0,,,,,,,LLAMA,C,new,y,./images/LLAMA.png,,,,,,,z,0,0.86,,,,,,,,0,52,52,119,1
,,,,,,,,,,,,,,,,,199126,19,2022-01-25_21h03.38.872,lexical_decision_task_DD_L2,2021.2.3,MacIntel,62.5,,,,,,,,,,,,0.946,0,,,,,,,,,,,,,,,,,,,,,,,,-0.043333333,0.006666667,0,0,0,,,,,,,PIMPLE,C,old,y,./images/PIMPLE.png,,,,,,,m,0,0.946,,,,,,,,0,53,53,71,1
,,,,,,,,,,,,,,,,,199126,19,2022-01-25_21h03.38.872,lexical_decision_task_DD_L2,2021.2.3,MacIntel,62.5,,,,,,,,,,,,0.921,0,,,,,,,,,,,,,,,,,,,,,,,,-0.043333333,0.006666667,0,0,0,,,,,,,CRADLE,C,old,y,./images/CRADLE.png,,,,,,,m,0,0.921,,,,,,,,0,54,54,20,1
,,,,,,,,,,,,,,,,,199126,19,2022-01-25_21h03.38.872,lexical_decision_task_DD_L2,2021.2.3,MacIntel,62.5,,,,,,,,,,,,0.862,0,,,,,,,,,,,,,,,,,,,,,,,,-0.043333333,0.006666667,0,0,0,,,,,,,SAUNA,HB,new,y,./images/SAUNAHB.png,,,,,,,z,0,0.862,,,,,,,,0,55,55,117,1
,,,,,,,,,,,,,,,,,199126,19,2022-01-25_21h03.38.872,lexical_decision_task_DD_L2,2021.2.3,MacIntel,62.5,,,,,,,,,,,,0.754,0,,,,,,,,,,,,,,,,,,,,,,,,-0.043333333,0.006666667,0,0,0,,,,,,,WRIST,LB,old,y,./images/WRISTLB.png,,,,,,,m,0,0.754,,,,,,,,0,56,56,25,1
,,,,,,,,,,,,,,,,,199126,19,2022-01-25_21h03.38.872,lexical_decision_task_DD_L2,2021.2.3,MacIntel,62.5,,,,,,,,,,,,0.915,0,,,,,,,,,,,,,,,,,,,,,,,,-0.043333333,0.006666667,0,0,0,,,,,,,GRANNY,C,new,y,./images/GRANNY.png,,,,,,,z,0,0.915,,,,,,,,0,57,57,104,1
,,,,,,,,,,,,,,,,,199126,19,2022-01-25_21h03.38.872,lexical_decision_task_DD_L2,2021.2.3,MacIntel,62.5,,,,,,,,,,,,0.911,0,,,,,,,,,,,,,,,,,,,,,,,,-0.043333333,0.006666667,0,0,0,,,,,,,JAGUAR,HB,old,y,./images/JAGUARHB.png,,,,,,,m,0,0.911,,,,,,,,0,58,58,18,1
,,,,,,,,,,,,,,,,,199126,19,2022-01-25_21h03.38.872,lexical_decision_task_DD_L2,2021.2.3,MacIntel,62.5,,,,,,,,,,,,1.127,0,,,,,,,,,,,,,,,,,,,,,,,,-0.043333333,0.006666667,0,0,0,,,,,,,PICKLE,C,old,y,./images/PICKLE.png,,,,,,,m,0,1.127,,,,,,,,0,59,59,14,1
,,,,,,,,,,,,,,,,,199126,19,2022-01-25_21h03.38.872,lexical_decision_task_DD_L2,2021.2.3,MacIntel,62.5,,,,,,,,,,,,0.947,0,,,,,,,,,,,,,,,,,,,,,,,,-0.043333333,0.006666667,0,0,0,,,,,,,TRIPOD,HB,old,y,./images/TRIPODHB.png,,,,,,,m,0,0.947,,,,,,,,0,60,60,54,1
,,,,,,,,,,,,,,,,,199126,19,2022-01-25_21h03.38.872,lexical_decision_task_DD_L2,2021.2.3,MacIntel,62.5,,,,,,,,,,,,1.147,0,,,,,,,,,,,,,,,,,,,,,,,,-0.043333333,0.006666667,0,0,0,,,,,,,CHALK,LB,new,y,./images/CHALKLB.png,,,,,,,m,0,1.147,,,,,,,,0,61,61,109,1
,,,,,,,,,,,,,,,,,199126,19,2022-01-25_21h03.38.872,lexical_decision_task_DD_L2,2021.2.3,MacIntel,62.5,,,,,,,,,,,,1.312,0,,,,,,,,,,,,,,,,,,,,,,,,-0.043333333,0.006666667,0,0,0,,,,,,,SLOPE,HB,new,y,./images/SLOPEHB.png,,,,,,,z,0,1.312,,,,,,,,0,62,62,114,1
,,,,,,,,,,,,,,,,,199126,19,2022-01-25_21h03.38.872,lexical_decision_task_DD_L2,2021.2.3,MacIntel,62.5,,,,,,,,,,,,1.38,0,,,,,,,,,,,,,,,,,,,,,,,,-0.043333333,0.006666667,0,0,0,,,,,,,BAMBOO,C,new,y,./images/BAMBOO.png,,,,,,,m,0,1.38,,,,,,,,0,63,63,89,1
,,,,,,,,,,,,,,,,,199126,19,2022-01-25_21h03.38.872,lexical_decision_task_DD_L2,2021.2.3,MacIntel,62.5,,,,,,,,,,,,1.165,0,,,,,,,,,,,,,,,,,,,,,,,,-0.043333333,0.006666667,0,0,0,,,,,,,BOXER,LB,new,y,./images/BOXERLB.png,,,,,,,z,0,1.165,,,,,,,,0,64,64,88,1
,,,,,,,,,,,,,,,,,199126,19,2022-01-25_21h03.38.872,lexical_decision_task_DD_L2,2021.2.3,MacIntel,62.5,,,,,,,,,,,,1.097,0,,,,,,,,,,,,,,,,,,,,,,,,-0.043333333,0.006666667,0,0,0,,,,,,,MAMMAL,C,new,y,./images/MAMMAL.png,,,,,,,z,0,1.097,,,,,,,,0,65,65,146,1
,,,,,,,,,,,,,,,,,199126,19,2022-01-25_21h03.38.872,lexical_decision_task_DD_L2,2021.2.3,MacIntel,62.5,,,,,,,,,,,,0.686,0,,,,,,,,,,,,,,,,,,,,,,,,-0.043333333,0.006666667,0,0,0,,,,,,,BUBBLE,C,new,y,./images/BUBBLE.png,,,,,,,z,0,0.686,,,,,,,,0,66,66,155,1
,,,,,,,,,,,,,,,,,199126,19,2022-01-25_21h03.38.872,lexical_decision_task_DD_L2,2021.2.3,MacIntel,62.5,,,,,,,,,,,,0.983,0,,,,,,,,,,,,,,,,,,,,,,,,-0.043333333,0.006666667,0,0,0,,,,,,,PARCEL,HB,new,y,./images/PARCELHB.png,,,,,,,z,0,0.983,,,,,,,,0,67,67,102,1
,,,,,,,,,,,,,,,,,199126,19,2022-01-25_21h03.38.872,lexical_decision_task_DD_L2,2021.2.3,MacIntel,62.5,,,,,,,,,,,,0.871,0,,,,,,,,,,,,,,,,,,,,,,,,-0.043333333,0.006666667,0,0,0,,,,,,,RAZOR,LB,new,y,./images/RAZORLB.png,,,,,,,z,0,0.871,,,,,,,,0,68,68,118,1
,,,,,,,,,,,,,,,,,199126,19,2022-01-25_21h03.38.872,lexical_decision_task_DD_L2,2021.2.3,MacIntel,62.5,,,,,,,,,,,,1.052,0,,,,,,,,,,,,,,,,,,,,,,,,-0.043333333,0.006666667,0,0,0,,,,,,,CLOTH,C,new,y,./images/CLOTH.png,,,,,,,m,0,1.052,,,,,,,,0,69,69,107,1
,,,,,,,,,,,,,,,,,199126,19,2022-01-25_21h03.38.872,lexical_decision_task_DD_L2,2021.2.3,MacIntel,62.5,,,,,,,,,,,,0.897,0,,,,,,,,,,,,,,,,,,,,,,,,-0.043333333,0.006666667,0,0,0,,,,,,,CANYON,LB,old,y,./images/CANYONLB.png,,,,,,,m,0,0.897,,,,,,,,0,70,70,34,1
,,,,,,,,,,,,,,,,,199126,19,2022-01-25_21h03.38.872,lexical_decision_task_DD_L2,2021.2.3,MacIntel,62.5,,,,,,,,,,,,0.915,0,,,,,,,,,,,,,,,,,,,,,,,,-0.043333333,0.006666667,0,0,0,,,,,,,PEARL,LB,old,y,./images/PEARLLB.png,,,,,,,m,0,0.915,,,,,,,,0,71,71,46,1
,,,,,,,,,,,,,,,,,199126,19,2022-01-25_21h03.38.872,lexical_decision_task_DD_L2,2021.2.3,MacIntel,62.5,,,,,,,,,,,,0.904,0,,,,,,,,,,,,,,,,,,,,,,,,-0.043333333,0.006666667,0,0,0,,,,,,,THROAT,HB,old,y,./images/THROATHB.png,,,,,,,m,0,0.904,,,,,,,,0,72,72,36,1
,,,,,,,,,,,,,,,,,199126,19,2022-01-25_21h03.38.872,lexical_decision_task_DD_L2,2021.2.3,MacIntel,62.5,,,,,,,,,,,,0.994,0,,,,,,,,,,,,,,,,,,,,,,,,-0.043333333,0.006666667,0,0,0,,,,,,,GRAPE,LB,new,y,./images/GRAPELB.png,,,,,,,z,0,0.994,,,,,,,,0,73,73,100,1
,,,,,,,,,,,,,,,,,199126,19,2022-01-25_21h03.38.872,lexical_decision_task_DD_L2,2021.2.3,MacIntel,62.5,,,,,,,,,,,,1.062,0,,,,,,,,,,,,,,,,,,,,,,,,-0.043333333,0.006666667,0,0,0,,,,,,,ATTIC,HB,old,y,./images/ATTICHB.png,,,,,,,m,0,1.062,,,,,,,,0,74,74,27,1
,,,,,,,,,,,,,,,,,199126,19,2022-01-25_21h03.38.872,lexical_decision_task_DD_L2,2021.2.3,MacIntel,62.5,,,,,,,,,,,,1.212,0,,,,,,,,,,,,,,,,,,,,,,,,-0.043333333,0.006666667,0,0,0,,,,,,,WALRUS,C,old,y,./images/WALRUS.png,,,,,,,z,0,1.212,,,,,,,,0,75,75,23,1
,,,,,,,,,,,,,,,,,199126,19,2022-01-25_21h03.38.872,lexical_decision_task_DD_L2,2021.2.3,MacIntel,62.5,,,,,,,,,,,,1.113,0,,,,,,,,,,,,,,,,,,,,,,,,-0.043333333,0.006666667,0,0,0,,,,,,,TULIP,C,old,y,./images/TULIP.png,,,,,,,m,0,1.113,,,,,,,,0,76,76,8,1
,,,,,,,,,,,,,,,,,199126,19,2022-01-25_21h03.38.872,lexical_decision_task_DD_L2,2021.2.3,MacIntel,62.5,,,,,,,,,,,,0.76,0,,,,,,,,,,,,,,,,,,,,,,,,-0.043333333,0.006666667,0,0,0,,,,,,,BERRY,C,old,y,./images/BERRY.png,,,,,,,m,0,0.76,,,,,,,,0,77,77,47,1
,,,,,,,,,,,,,,,,,199126,19,2022-01-25_21h03.38.872,lexical_decision_task_DD_L2,2021.2.3,MacIntel,62.5,,,,,,,,,,,,1.312,0,,,,,,,,,,,,,,,,,,,,,,,,-0.043333333,0.006666667,0,0,0,,,,,,,SNAKE,LB,new,y,./images/SNAKELB.png,,,,,,,z,0,1.312,,,,,,,,0,78,78,124,1
,,,,,,,,,,,,,,,,,199126,19,2022-01-25_21h03.38.872,lexical_decision_task_DD_L2,2021.2.3,MacIntel,62.5,,,,,,,,,,,,0.879,0,,,,,,,,,,,,,,,,,,,,,,,,-0.043333333,0.006666667,0,0,0,,,,,,,PASTA,C,old,y,./images/PASTA.png,,,,,,,m,0,0.879,,,,,,,,0,79,79,5,1
,,,,,,,,,,,,,,,,,199126,19,2022-01-25_21h03.38.872,lexical_decision_task_DD_L2,2021.2.3,MacIntel,62.5,,,,,,,,,,,,0.944,0,,,,,,,,,,,,,,,,,,,,,,,,-0.043333333,0.006666667,0,0,0,,,,,,,SHELF,HB,old,y,./images/SHELFHB.png,,,,,,,m,0,0.944,,,,,,,,0,80,80,39,1
,,,,,,,,,,,,,,,,,199126,19,2022-01-25_21h03.38.872,lexical_decision_task_DD_L2,2021.2.3,MacIntel,62.5,,,,,,,,,,,,0.929,0,,,,,,,,,,,,,,,,,,,,,,,,-0.043333333,0.006666667,0,0,0,,,,,,,PENCE,LB,old,y,./images/PENCELB.png,,,,,,,m,0,0.929,,,,,,,,0,81,81,16,1
,,,,,,,,,,,,,,,,,199126,19,2022-01-25_21h03.38.872,lexical_decision_task_DD_L2,2021.2.3,MacIntel,62.5,,,,,,,,,,,,0.832,0,,,,,,,,,,,,,,,,,,,,,,,,-0.043333333,0.006666667,0,0,0,,,,,,,RHINO,HB,old,y,./images/RHINOHB.png,,,,,,,m,0,0.832,,,,,,,,0,82,82,9,1
,,,,,,,,,,,,,,,,,199126,19,2022-01-25_21h03.38.872,lexical_decision_task_DD_L2,2021.2.3,MacIntel,62.5,,,,,,,,,,,,0.911,0,,,,,,,,,,,,,,,,,,,,,,,,-0.043333333,0.006666667,0,0,0,space,,,,,,CLOWN,LB,new,y,./images/CLOWNLB.png,5.731,,,,,,z,0,0.911,,,,,,,,0,83,83,106,1
,,,,,,,,,,,,,,,,,199126,19,2022-01-25_21h03.38.872,lexical_decision_task_DD_L2,2021.2.3,MacIntel,62.5,,,,,,,,,,,,0.813,0,,,,,,,,,,,,,,,,,,,,,,,,-0.043333333,0.006666667,0,0,0,,,,,,,MOOSE,HB,old,y,./images/MOOSEHB.png,,,,,,,z,0,0.813,,,,,,,,0,84,84,57,1
,,,,,,,,,,,,,,,,,199126,19,2022-01-25_21h03.38.872,lexical_decision_task_DD_L2,2021.2.3,MacIntel,62.5,,,,,,,,,,,,0.916,0,,,,,,,,,,,,,,,,,,,,,,,,-0.043333333,0.006666667,0,0,0,,,,,,,SUNSET,LB,old,y,./images/SUNSETLB.png,,,,,,,m,0,0.916,,,,,,,,0,85,85,82,1
,,,,,,,,,,,,,,,,,199126,19,2022-01-25_21h03.38.872,lexical_decision_task_DD_L2,2021.2.3,MacIntel,62.5,,,,,,,,,,,,0.814,0,,,,,,,,,,,,,,,,,,,,,,,,-0.043333333,0.006666667,0,0,0,,,,,,,TORCH,C,old,y,./images/TORCH.png,,,,,,,m,0,0.814,,,,,,,,0,86,86,68,1
,,,,,,,,,,,,,,,,,199126,19,2022-01-25_21h03.38.872,lexical_decision_task_DD_L2,2021.2.3,MacIntel,62.5,,,,,,,,,,,,0.804,0,,,,,,,,,,,,,,,,,,,,,,,,-0.043333333,0.006666667,0,0,0,,,,,,,ARTIST,LB,new,y,./images/ARTISTLB.png,,,,,,,z,0,0.804,,,,,,,,0,87,87,145,1
,,,,,,,,,,,,,,,,,199126,19,2022-01-25_21h03.38.872,lexical_decision_task_DD_L2,2021.2.3,MacIntel,62.5,,,,,,,,,,,,1.136,0,,,,,,,,,,,,,,,,,,,,,,,,-0.043333333,0.006666667,0,0,0,,,,,,,BABOON,LB,old,y,./images/BABOONLB.png,,,,,,,m,0,1.136,,,,,,,,0,88,88,58,1
,,,,,,,,,,,,,,,,,199126,19,2022-01-25_21h03.38.872,lexical_decision_task_DD_L2,2021.2.3,MacIntel,62.5,,,,,,,,,,,,1.029,0,,,,,,,,,,,,,,,,,,,,,,,,-0.043333333,0.006666667,0,0,0,,,,,,,LAGOON,C,new,y,./images/LAGOON.png,,,,,,,z,0,1.029,,,,,,,,0,89,89,131,1
,,,,,,,,,,,,,,,,,199126,19,2022-01-25_21h03.38.872,lexical_decision_task_DD_L2,2021.2.3,MacIntel,62.5,,,,,,,,,,,,0.813,0,,,,,,,,,,,,,,,,,,,,,,,,-0.043333333,0.006666667,0,0,0,,,,,,,SHORE,HB,old,y,./images/SHOREHB.png,,,,,,,m,0,0.813,,,,,,,,0,90,90,12,1
,,,,,,,,,,,,,,,,,199126,19,2022-01-25_21h03.38.872,lexical_decision_task_DD_L2,2021.2.3,MacIntel,62.5,,,,,,,,,,,,0.931,0,,,,,,,,,,,,,,,,,,,,,,,,-0.043333333,0.006666667,0,0,0,,,,,,,BRUSH,C,new,y,./images/BRUSH.png,,,,,,,z,0,0.931,,,,,,,,0,91,91,143,1
,,,,,,,,,,,,,,,,,199126,19,2022-01-25_21h03.38.872,lexical_decision_task_DD_L2,2021.2.3,MacIntel,62.5,,,,,,,,,,,,0.895,0,,,,,,,,,,,,,,,,,,,,,,,,-0.043333333,0.006666667,0,0,0,,,,,,,DOUGH,LB,old,y,./images/DOUGHLB.png,,,,,,,m,0,0.895,,,,,,,,0,92,92,19,1
,,,,,,,,,,,,,,,,,199126,19,2022-01-25_21h03.38.872,lexical_decision_task_DD_L2,2021.2.3,MacIntel,62.5,,,,,,,,,,,,0.945,0,,,,,,,,,,,,,,,,,,,,,,,,-0.043333333,0.006666667,0,0,0,,,,,,,DONKEY,LB,new,y,./images/DONKEYLB.png,,,,,,,z,0,0.945,,,,,,,,0,93,93,103,1
,,,,,,,,,,,,,,,,,199126,19,2022-01-25_21h03.38.872,lexical_decision_task_DD_L2,2021.2.3,MacIntel,62.5,,,,,,,,,,,,0.978,0,,,,,,,,,,,,,,,,,,,,,,,,-0.043333333,0.006666667,0,0,0,,,,,,,BUNNY,LB,new,y,./images/BUNNYLB.png,,,,,,,m,0,0.978,,,,,,,,0,94,94,97,1
,,,,,,,,,,,,,,,,,199126,19,2022-01-25_21h03.38.872,lexical_decision_task_DD_L2,2021.2.3,MacIntel,62.5,,,,,,,,,,,,1.178,0,,,,,,,,,,,,,,,,,,,,,,,,-0.043333333,0.006666667,0,0,0,,,,,,,STAIN,HB,new,y,./images/STAINHB.png,,,,,,,z,0,1.178,,,,,,,,0,95,95,90,1
,,,,,,,,,,,,,,,,,199126,19,2022-01-25_21h03.38.872,lexical_decision_task_DD_L2,2021.2.3,MacIntel,62.5,,,,,,,,,,,,0.895,0,,,,,,,,,,,,,,,,,,,,,,,,-0.043333333,0.006666667,0,0,0,,,,,,,FENCE,C,new,y,./images/FENCE.png,,,,,,,m,0,0.895,,,,,,,,0,96,96,98,1
,,,,,,,,,,,,,,,,,199126,19,2022-01-25_21h03.38.872,lexical_decision_task_DD_L2,2021.2.3,MacIntel,62.5,,,,,,,,,,,,1.078,0,,,,,,,,,,,,,,,,,,,,,,,,-0.043333333,0.006666667,0,0,0,,,,,,,SQUARE,HB,old,y,./images/SQUAREHB.png,,,,,,,m,0,1.078,,,,,,,,0,97,97,6,1
,,,,,,,,,,,,,,,,,199126,19,2022-01-25_21h03.38.872,lexical_decision_task_DD_L2,2021.2.3,MacIntel,62.5,,,,,,,,,,,,0.763,0,,,,,,,,,,,,,,,,,,,,,,,,-0.043333333,0.006666667,0,0,0,,,,,,,SMOKER,C,old,y,./images/SMOKER.png,,,,,,,m,0,0.763,,,,,,,,0,98,98,26,1
,,,,,,,,,,,,,,,,,199126,19,2022-01-25_21h03.38.872,lexical_decision_task_DD_L2,2021.2.3,MacIntel,62.5,,,,,,,,,,,,0.765,0,,,,,,,,,,,,,,,,,,,,,,,,-0.043333333,0.006666667,0,0,0,,,,,,,PLANK,LB,old,y,./images/PLANKLB.png,,,,,,,m,0,0.765,,,,,,,,0,99,99,1,1
,,,,,,,,,,,,,,,,,199126,19,2022-01-25_21h03.38.872,lexical_decision_task_DD_L2,2021.2.3,MacIntel,62.5,,,,,,,,,,,,0.972,0,,,,,,,,,,,,,,,,,,,,,,,,-0.043333333,0.006666667,0,0,0,,,,,,,BARREL,C,old,y,./images/BARREL.png,,,,,,,m,0,0.972,,,,,,,,0,100,100,32,1
,,,,,,,,,,,,,,,,,199126,19,2022-01-25_21h03.38.872,lexical_decision_task_DD_L2,2021.2.3,MacIntel,62.5,,,,,,,,,,,,0.844,0,,,,,,,,,,,,,,,,,,,,,,,,-0.043333333,0.006666667,0,0,0,,,,,,,SPORT,HB,old,y,./images/SPORTHB.png,,,,,,,m,0,0.844,,,,,,,,0,101,101,48,1
,,,,,,,,,,,,,,,,,199126,19,2022-01-25_21h03.38.872,lexical_decision_task_DD_L2,2021.2.3,MacIntel,62.5,,,,,,,,,,,,0.929,0,,,,,,,,,,,,,,,,,,,,,,,,-0.043333333,0.006666667,0,0,0,,,,,,,CANOE,LB,new,y,./images/CANOELB.png,,,,,,,z,0,0.929,,,,,,,,0,102,102,142,1
,,,,,,,,,,,,,,,,,199126,19,2022-01-25_21h03.38.872,lexical_decision_task_DD_L2,2021.2.3,MacIntel,62.5,,,,,,,,,,,,0.8,0,,,,,,,,,,,,,,,,,,,,,,,,-0.043333333,0.006666667,0,0,0,,,,,,,PAINT,LB,old,y,./images/PAINTLB.png,,,,,,,m,0,0.8,,,,,,,,0,103,103,7,1
,,,,,,,,,,,,,,,,,199126,19,2022-01-25_21h03.38.872,lexical_decision_task_DD_L2,2021.2.3,MacIntel,62.5,,,,,,,,,,,,1.83,0,,,,,,,,,,,,,,,,,,,,,,,,-0.043333333,0.006666667,0,0,0,,,,,,,STORM,HB,old,y,./images/STORMHB.png,,,,,,,z,0,1.83,,,,,,,,0,104,104,30,1
,,,,,,,,,,,,,,,,,199126,19,2022-01-25_21h03.38.872,lexical_decision_task_DD_L2,2021.2.3,MacIntel,62.5,,,,,,,,,,,,1.096,0,,,,,,,,,,,,,,,,,,,,,,,,-0.043333333,0.006666667,0,0,0,,,,,,,COLLAR,HB,new,y,./images/COLLARHB.png,,,,,,,z,0,1.096,,,,,,,,0,105,105,99,1
,,,,,,,,,,,,,,,,,199126,19,2022-01-25_21h03.38.872,lexical_decision_task_DD_L2,2021.2.3,MacIntel,62.5,,,,,,,,,,,,0.813,0,,,,,,,,,,,,,,,,,,,,,,,,-0.043333333,0.006666667,0,0,0,,,,,,,MELON,LB,old,y,./images/MELONLB.png,,,,,,,m,0,0.813,,,,,,,,0,106,106,22,1
,,,,,,,,,,,,,,,,,199126,19,2022-01-25_21h03.38.872,lexical_decision_task_DD_L2,2021.2.3,MacIntel,62.5,,,,,,,,,,,,0.886,0,,,,,,,,,,,,,,,,,,,,,,,,-0.043333333,0.006666667,0,0,0,,,,,,,WHISKY,C,new,y,./images/WHISKY.png,,,,,,,z,0,0.886,,,,,,,,0,107,107,167,1
,,,,,,,,,,,,,,,,,199126,19,2022-01-25_21h03.38.872,lexical_decision_task_DD_L2,2021.2.3,MacIntel,62.5,,,,,,,,,,,,1.829,0,,,,,,,,,,,,,,,,,,,,,,,,-0.043333333,0.006666667,0,0,0,,,,,,,TOWEL,LB,new,y,./images/TOWELLB.png,,,,,,,z,0,1.829,,,,,,,,0,108,108,85,1
,,,,,,,,,,,,,,,,,199126,19,2022-01-25_21h03.38.872,lexical_decision_task_DD_L2,2021.2.3,MacIntel,62.5,,,,,,,,,,,,1.082,0,,,,,,,,,,,,,,,,,,,,,,,,-0.043333333,0.006666667,0,0,0,,,,,,,POODLE,HB,old,y,./images/POODLEHB.png,,,,,,,m,0,1.082,,,,,,,,0,109,109,81,1
,,,,,,,,,,,,,,,,,199126,19,2022-01-25_21h03.38.872,lexical_decision_task_DD_L2,2021.2.3,MacIntel,62.5,,,,,,,,,,,,0.986,0,,,,,,,,,,,,,,,,,,,,,,,,-0.043333333,0.006666667,0,0,0,,,,,,,PACKET,C,old,y,./images/PACKET.png,,,,,,,m,0,0.986,,,,,,,,0,110,110,56,1
,,,,,,,,,,,,,,,,,199126,19,2022-01-25_21h03.38.872,lexical_decision_task_DD_L2,2021.2.3,MacIntel,62.5,,,,,,,,,,,,1.367,0,,,,,,,,,,,,,,,,,,,,,,,,-0.043333333,0.006666667,0,0,0,,,,,,,PARADE,C,new,y,./images/PARADE.png,,,,,,,z,0,1.367,,,,,,,,0,111,111,101,1
,,,,,,,,,,,,,,,,,199126,19,2022-01-25_21h03.38.872,lexical_decision_task_DD_L2,2021.2.3,MacIntel,62.5,,,,,,,,,,,,1.078,0,,,,,,,,,,,,,,,,,,,,,,,,-0.043333333,0.006666667,0,0,0,,,,,,,MOSQUE,LB,old,y,./images/MOSQUELB.png,,,,,,,m,0,1.078,,,,,,,,0,112,112,43,1
,,,,,,,,,,,,,,,,,199126,19,2022-01-25_21h03.38.872,lexical_decision_task_DD_L2,2021.2.3,MacIntel,62.5,,,,,,,,,,,,1.262,0,,,,,,,,,,,,,,,,,,,,,,,,-0.043333333,0.006666667,0,0,0,,,,,,,DIVER,HB,new,y,./images/DIVERHB.png,,,,,,,z,0,1.262,,,,,,,,0,113,113,93,1
,,,,,,,,,,,,,,,,,199126,19,2022-01-25_21h03.38.872,lexical_decision_task_DD_L2,2021.2.3,MacIntel,62.5,,,,,,,,,,,,1.064,0,,,,,,,,,,,,,,,,,,,,,,,,-0.043333333,0.006666667,0,0,0,,,,,,,CRUST,LB,old,y,./images/CRUSTLB.png,,,,,,,m,0,1.064,,,,,,,,0,114,114,79,1
,,,,,,,,,,,,,,,,,199126,19,2022-01-25_21h03.38.872,lexical_decision_task_DD_L2,2021.2.3,MacIntel,62.5,,,,,,,,,,,,1.235,0,,,,,,,,,,,,,,,,,,,,,,,,-0.043333333,0.006666667,0,0,0,,,,,,,STOOL,LB,new,y,./images/STOOLLB.png,,,,,,,z,0,1.235,,,,,,,,0,115,115,127,1
,,,,,,,,,,,,,,,,,199126,19,2022-01-25_21h03.38.872,lexical_decision_task_DD_L2,2021.2.3,MacIntel,62.5,,,,,,,,,,,,0.913,0,,,,,,,,,,,,,,,,,,,,,,,,-0.043333333,0.006666667,0,0,0,,,,,,,GARDEN,LB,new,y,./images/GARDENLB.png,,,,,,,z,0,0.913,,,,,,,,0,116,116,94,1
,,,,,,,,,,,,,,,,,199126,19,2022-01-25_21h03.38.872,lexical_decision_task_DD_L2,2021.2.3,MacIntel,62.5,,,,,,,,,,,,1.002,0,,,,,,,,,,,,,,,,,,,,,,,,-0.043333333,0.006666667,0,0,0,,,,,,,QUILL,LB,old,y,./images/QUILLLB.png,,,,,,,m,0,1.002,,,,,,,,0,117,117,31,1
,,,,,,,,,,,,,,,,,199126,19,2022-01-25_21h03.38.872,lexical_decision_task_DD_L2,2021.2.3,MacIntel,62.5,,,,,,,,,,,,1.578,0,,,,,,,,,,,,,,,,,,,,,,,,-0.043333333,0.006666667,0,0,0,,,,,,,BROOM,HB,new,y,./images/BROOMHB.png,,,,,,,z,0,1.578,,,,,,,,0,118,118,162,1
,,,,,,,,,,,,,,,,,199126,19,2022-01-25_21h03.38.872,lexical_decision_task_DD_L2,2021.2.3,MacIntel,62.5,,,,,,,,,,,,1.262,0,,,,,,,,,,,,,,,,,,,,,,,,-0.043333333,0.006666667,0,0,0,,,,,,,VALLEY,C,new,y,./images/VALLEY.png,,,,,,,z,0,1.262,,,,,,,,0,119,119,152,1
,,,,,,,,,,,,,,,,,199126,19,2022-01-25_21h03.38.872,lexical_decision_task_DD_L2,2021.2.3,MacIntel,62.5,,,,,,,,,,,,0.912,0,,,,,,,,,,,,,,,,,,,,,,,,-0.043333333,0.006666667,0,0,0,,,,,,,INFANT,LB,old,y,./images/INFANTLB.png,,,,,,,m,0,0.912,,,,,,,,0,120,120,76,1
,,,,,,,,,,,,,,,,,199126,19,2022-01-25_21h03.38.872,lexical_decision_task_DD_L2,2021.2.3,MacIntel,62.5,,,,,,,,,,,,0.929,0,,,,,,,,,,,,,,,,,,,,,,,,-0.043333333,0.006666667,0,0,0,,,,,,,JUMPER,C,new,y,./images/JUMPER.png,,,,,,,z,0,0.929,,,,,,,,0,121,121,158,1
,,,,,,,,,,,,,,,,,199126,19,2022-01-25_21h03.38.872,lexical_decision_task_DD_L2,2021.2.3,MacIntel,62.5,,,,,,,,,,,,0.844,0,,,,,,,,,,,,,,,,,,,,,,,,-0.043333333,0.006666667,0,0,0,,,,,,,KIDNEY,HB,old,y,./images/KIDNEYHB.png,,,,,,,m,0,0.844,,,,,,,,0,122,122,21,1
,,,,,,,,,,,,,,,,,199126,19,2022-01-25_21h03.38.872,lexical_decision_task_DD_L2,2021.2.3,MacIntel,62.5,,,,,,,,,,,,1.328,0,,,,,,,,,,,,,,,,,,,,,,,,-0.043333333,0.006666667,0,0,0,,,,,,,BEARD,C,old,y,./images/BEARD.png,,,,,,,m,0,1.328,,,,,,,,0,123,123,2,1
,,,,,,,,,,,,,,,,,199126,19,2022-01-25_21h03.38.872,lexical_decision_task_DD_L2,2021.2.3,MacIntel,62.5,,,,,,,,,,,,0.864,0,,,,,,,,,,,,,,,,,,,,,,,,-0.043333333,0.006666667,0,0,0,,,,,,,MUSCLE,LB,old,y,./images/MUSCLELB.png,,,,,,,m,0,0.864,,,,,,,,0,124,124,4,1
,,,,,,,,,,,,,,,,,199126,19,2022-01-25_21h03.38.872,lexical_decision_task_DD_L2,2021.2.3,MacIntel,62.5,,,,,,,,,,,,0.829,0,,,,,,,,,,,,,,,,,,,,,,,,-0.043333333,0.006666667,0,0,0,space,,,,,,JELLY,LB,old,y,./images/JELLYLB.png,2.138,,,,,,m,0,0.829,,,,,,,,0,125,125,64,1
,,,,,,,,,,,,,,,,,199126,19,2022-01-25_21h03.38.872,lexical_decision_task_DD_L2,2021.2.3,MacIntel,62.5,,,,,,,,,,,,1.079,0,,,,,,,,,,,,,,,,,,,,,,,,-0.043333333,0.006666667,0,0,0,,,,,,,CANDY,HB,new,y,./images/CANDYHB.png,,,,,,,z,0,1.079,,,,,,,,0,126,126,123,1
,,,,,,,,,,,,,,,,,199126,19,2022-01-25_21h03.38.872,lexical_decision_task_DD_L2,2021.2.3,MacIntel,62.5,,,,,,,,,,,,0.913,0,,,,,,,,,,,,,,,,,,,,,,,,-0.043333333,0.006666667,0,0,0,,,,,,,URINE,LB,old,y,./images/URINELB.png,,,,,,,m,0,0.913,,,,,,,,0,127,127,70,1
,,,,,,,,,,,,,,,,,199126,19,2022-01-25_21h03.38.872,lexical_decision_task_DD_L2,2021.2.3,MacIntel,62.5,,,,,,,,,,,,1.013,0,,,,,,,,,,,,,,,,,,,,,,,,-0.043333333,0.006666667,0,0,0,,,,,,,MALLET,C,old,y,./images/MALLET.png,,,,,,,m,0,1.013,,,,,,,,0,128,128,50,1
,,,,,,,,,,,,,,,,,199126,19,2022-01-25_21h03.38.872,lexical_decision_task_DD_L2,2021.2.3,MacIntel,62.5,,,,,,,,,,,,1.084,0,,,,,,,,,,,,,,,,,,,,,,,,-0.043333333,0.006666667,0,0,0,,,,,,,STEAK,LB,new,y,./images/STEAKLB.png,,,,,,,z,0,1.084,,,,,,,,0,129,129,115,1
,,,,,,,,,,,,,,,,,199126,19,2022-01-25_21h03.38.872,lexical_decision_task_DD_L2,2021.2.3,MacIntel,62.5,,,,,,,,,,,,1.336,0,,,,,,,,,,,,,,,,,,,,,,,,-0.043333333,0.006666667,0,0,0,,,,,,,HAMMER,HB,new,y,./images/HAMMERHB.png,,,,,,,z,0,1.336,,,,,,,,0,130,130,159,1
,,,,,,,,,,,,,,,,,199126,19,2022-01-25_21h03.38.872,lexical_decision_task_DD_L2,2021.2.3,MacIntel,62.5,,,,,,,,,,,,1.381,0,,,,,,,,,,,,,,,,,,,,,,,,-0.043333333,0.006666667,0,0,0,,,,,,,CLIFF,C,new,y,./images/CLIFF.png,,,,,,,z,0,1.381,,,,,,,,0,131,131,92,1
,,,,,,,,,,,,,,,,,199126,19,2022-01-25_21h03.38.872,lexical_decision_task_DD_L2,2021.2.3,MacIntel,62.5,,,,,,,,,,,,1.094,0,,,,,,,,,,,,,,,,,,,,,,,,-0.043333333,0.006666667,0,0,0,,,,,,,BASKET,C,new,y,./images/BASKET.png,,,,,,,z,0,1.094,,,,,,,,0,132,132,128,1
,,,,,,,,,,,,,,,,,199126,19,2022-01-25_21h03.38.872,lexical_decision_task_DD_L2,2021.2.3,MacIntel,62.5,,,,,,,,,,,,1,0,,,,,,,,,,,,,,,,,,,,,,,,-0.043333333,0.006666667,0,0,0,,,,,,,ONION,HB,old,y,./images/ONIONHB.png,,,,,,,m,0,1,,,,,,,,0,133,133,51,1
,,,,,,,,,,,,,,,,,199126,19,2022-01-25_21h03.38.872,lexical_decision_task_DD_L2,2021.2.3,MacIntel,62.5,,,,,,,,,,,,0.896,0,,,,,,,,,,,,,,,,,,,,,,,,-0.043333333,0.006666667,0,0,0,,,,,,,ALLEY,LB,new,y,./images/ALLEYLB.png,,,,,,,z,0,0.896,,,,,,,,0,134,134,139,1
,,,,,,,,,,,,,,,,,199126,19,2022-01-25_21h03.38.872,lexical_decision_task_DD_L2,2021.2.3,MacIntel,62.5,,,,,,,,,,,,1.038,0,,,,,,,,,,,,,,,,,,,,,,,,-0.043333333,0.006666667,0,0,0,,,,,,,PEBBLE,LB,new,y,./images/PEBBLELB.png,,,,,,,z,0,1.038,,,,,,,,0,135,135,166,1
,,,,,,,,,,,,,,,,,199126,19,2022-01-25_21h03.38.872,lexical_decision_task_DD_L2,2021.2.3,MacIntel,62.5,,,,,,,,,,,,1.065,0,,,,,,,,,,,,,,,,,,,,,,,,-0.043333333,0.006666667,0,0,0,,,,,,,HEATER,C,new,y,./images/HEATER.png,,,,,,,z,0,1.065,,,,,,,,0,136,136,140,1
,,,,,,,,,,,,,,,,,199126,19,2022-01-25_21h03.38.872,lexical_decision_task_DD_L2,2021.2.3,MacIntel,62.5,,,,,,,,,,,,0.885,0,,,,,,,,,,,,,,,,,,,,,,,,-0.043333333,0.006666667,0,0,0,,,,,,,STATUE,HB,new,y,./images/STATUEHB.png,,,,,,,z,0,0.885,,,,,,,,0,137,137,150,1
,,,,,,,,,,,,,,,,,199126,19,2022-01-25_21h03.38.872,lexical_decision_task_DD_L2,2021.2.3,MacIntel,62.5,,,,,,,,,,,,0.85,0,,,,,,,,,,,,,,,,,,,,,,,,-0.043333333,0.006666667,0,0,0,,,,,,,BELLY,LB,old,y,./images/BELLYLB.png,,,,,,,m,0,0.85,,,,,,,,0,138,138,10,1
,,,,,,,,,,,,,,,,,199126,19,2022-01-25_21h03.38.872,lexical_decision_task_DD_L2,2021.2.3,MacIntel,62.5,,,,,,,,,,,,0.838,0,,,,,,,,,,,,,,,,,,,,,,,,-0.043333333,0.006666667,0,0,0,,,,,,,SNACK,LB,old,y,./images/SNACKLB.png,,,,,,,m,0,0.838,,,,,,,,0,139,139,73,1
,,,,,,,,,,,,,,,,,199126,19,2022-01-25_21h03.38.872,lexical_decision_task_DD_L2,2021.2.3,MacIntel,62.5,,,,,,,,,,,,0.997,0,,,,,,,,,,,,,,,,,,,,,,,,-0.043333333,0.006666667,0,0,0,,,,,,,MIDGET,LB,new,y,./images/MIDGETLB.png,,,,,,,z,0,0.997,,,,,,,,0,140,140,160,1
,,,,,,,,,,,,,,,,,199126,19,2022-01-25_21h03.38.872,lexical_decision_task_DD_L2,2021.2.3,MacIntel,62.5,,,,,,,,,,,,0.927,0,,,,,,,,,,,,,,,,,,,,,,,,-0.043333333,0.006666667,0,0,0,,,,,,,MUFFIN,LB,old,y,./images/MUFFINLB.png,,,,,,,m,0,0.927,,,,,,,,0,141,141,55,1
,,,,,,,,,,,,,,,,,199126,19,2022-01-25_21h03.38.872,lexical_decision_task_DD_L2,2021.2.3,MacIntel,62.5,,,,,,,,,,,,1.52,0,,,,,,,,,,,,,,,,,,,,,,,,-0.043333333,0.006666667,0,0,0,,,,,,,LITTER,HB,old,y,./images/LITTERHB.png,,,,,,,z,0,1.52,,,,,,,,0,142,142,78,1
,,,,,,,,,,,,,,,,,199126,19,2022-01-25_21h03.38.872,lexical_decision_task_DD_L2,2021.2.3,MacIntel,62.5,,,,,,,,,,,,1.772,0,,,,,,,,,,,,,,,,,,,,,,,,-0.043333333,0.006666667,0,0,0,,,,,,,PURSE,C,old,y,./images/PURSE.png,,,,,,,z,0,1.772,,,,,,,,0,143,143,62,1
,,,,,,,,,,,,,,,,,199126,19,2022-01-25_21h03.38.872,lexical_decision_task_DD_L2,2021.2.3,MacIntel,62.5,,,,,,,,,,,,1.102,0,,,,,,,,,,,,,,,,,,,,,,,,-0.043333333,0.006666667,0,0,0,,,,,,,FALCON,LB,old,y,./images/FALCONLB.png,,,,,,,m,0,1.102,,,,,,,,0,144,144,28,1
,,,,,,,,,,,,,,,,,199126,19,2022-01-25_21h03.38.872,lexical_decision_task_DD_L2,2021.2.3,MacIntel,62.5,,,,,,,,,,,,0.923,0,,,,,,,,,,,,,,,,,,,,,,,,-0.043333333,0.006666667,0,0,0,,,,,,,BONNET,C,old,y,./images/BONNET.png,,,,,,,m,0,0.923,,,,,,,,0,145,145,11,1
,,,,,,,,,,,,,,,,,199126,19,2022-01-25_21h03.38.872,lexical_decision_task_DD_L2,2021.2.3,MacIntel,62.5,,,,,,,,,,,,0.968,0,,,,,,,,,,,,,,,,,,,,,,,,-0.043333333,0.006666667,0,0,0,,,,,,,BANANA,LB,new,y,./images/BANANALB.png,,,,,,,z,0,0.968,,,,,,,,0,146,146,154,1
,,,,,,,,,,,,,,,,,199126,19,2022-01-25_21h03.38.872,lexical_decision_task_DD_L2,2021.2.3,MacIntel,62.5,,,,,,,,,,,,1.37,0,,,,,,,,,,,,,,,,,,,,,,,,-0.043333333,0.006666667,0,0,0,,,,,,,TIGER,LB,new,y,./images/TIGERLB.png,,,,,,,z,0,1.37,,,,,,,,0,147,147,121,1
,,,,,,,,,,,,,,,,,199126,19,2022-01-25_21h03.38.872,lexical_decision_task_DD_L2,2021.2.3,MacIntel,62.5,,,,,,,,,,,,1.128,0,,,,,,,,,,,,,,,,,,,,,,,,-0.043333333,0.006666667,0,0,0,,,,,,,BLOKE,HB,new,y,./images/BLOKEHB.png,,,,,,,z,0,1.128,,,,,,,,0,148,148,96,1
,,,,,,,,,,,,,,,,,199126,19,2022-01-25_21h03.38.872,lexical_decision_task_DD_L2,2021.2.3,MacIntel,62.5,,,,,,,,,,,,1.331,0,,,,,,,,,,,,,,,,,,,,,,,,-0.043333333,0.006666667,0,0,0,,,,,,,PILOT,C,new,y,./images/PILOT.png,,,,,,,z,0,1.331,,,,,,,,0,149,149,134,1
,,,,,,,,,,,,,,,,,199126,19,2022-01-25_21h03.38.872,lexical_decision_task_DD_L2,2021.2.3,MacIntel,62.5,,,,,,,,,,,,1.095,0,,,,,,,,,,,,,,,,,,,,,,,,-0.043333333,0.006666667,0,0,0,,,,,,,HOCKEY,C,new,y,./images/HOCKEY.png,,,,,,,z,0,1.095,,,,,,,,0,150,150,116,1
,,,,,,,,,,,,,,,,,199126,19,2022-01-25_21h03.38.872,lexical_decision_task_DD_L2,2021.2.3,MacIntel,62.5,,,,,,,,,,,,0.983,0,,,,,,,,,,,,,,,,,,,,,,,,-0.043333333,0.006666667,0,0,0,,,,,,,CURRY,HB,new,y,./images/CURRYHB.png,,,,,,,z,0,0.983,,,,,,,,0,151,151,144,1
,,,,,,,,,,,,,,,,,199126,19,2022-01-25_21h03.38.872,lexical_decision_task_DD_L2,2021.2.3,MacIntel,62.5,,,,,,,,,,,,0.964,0,,,,,,,,,,,,,,,,,,,,,,,,-0.043333333,0.006666667,0,0,0,,,,,,,WAGON,LB,new,y,./images/WAGONLB.png,,,,,,,z,0,0.964,,,,,,,,0,152,152,91,1
,,,,,,,,,,,,,,,,,199126,19,2022-01-25_21h03.38.872,lexical_decision_task_DD_L2,2021.2.3,MacIntel,62.5,,,,,,,,,,,,0.996,0,,,,,,,,,,,,,,,,,,,,,,,,-0.043333333,0.006666667,0,0,0,,,,,,,FLESH,HB,new,y,./images/FLESHHB.png,,,,,,,z,0,0.996,,,,,,,,0,153,153,108,1
,,,,,,,,,,,,,,,,,199126,19,2022-01-25_21h03.38.872,lexical_decision_task_DD_L2,2021.2.3,MacIntel,62.5,,,,,,,,,,,,0.93,0,,,,,,,,,,,,,,,,,,,,,,,,-0.043333333,0.006666667,0,0,0,,,,,,,MEDAL,C,new,y,./images/MEDAL.png,,,,,,,z,0,0.93,,,,,,,,0,154,154,95,1
,,,,,,,,,,,,,,,,,199126,19,2022-01-25_21h03.38.872,lexical_decision_task_DD_L2,2021.2.3,MacIntel,62.5,,,,,,,,,,,,0.889,0,,,,,,,,,,,,,,,,,,,,,,,,-0.043333333,0.006666667,0,0,0,,,,,,,SWEAT,HB,old,y,./images/SWEATHB.png,,,,,,,m,0,0.889,,,,,,,,0,155,155,66,1
,,,,,,,,,,,,,,,,,199126,19,2022-01-25_21h03.38.872,lexical_decision_task_DD_L2,2021.2.3,MacIntel,62.5,,,,,,,,,,,,0.895,0,,,,,,,,,,,,,,,,,,,,,,,,-0.043333333,0.006666667,0,0,0,,,,,,,STREAM,C,new,y,./images/STREAM.png,,,,,,,z,0,0.895,,,,,,,,0,156,156,125,1
,,,,,,,,,,,,,,,,,199126,19,2022-01-25_21h03.38.872,lexical_decision_task_DD_L2,2021.2.3,MacIntel,62.5,,,,,,,,,,,,0.867,0,,,,,,,,,,,,,,,,,,,,,,,,-0.043333333,0.006666667,0,0,0,,,,,,,TWINS,HB,old,y,./images/TWINSHB.png,,,,,,,m,0,0.867,,,,,,,,0,157,157,60,1
,,,,,,,,,,,,,,,,,199126,19,2022-01-25_21h03.38.872,lexical_decision_task_DD_L2,2021.2.3,MacIntel,62.5,,,,,,,,,,,,0.785,0,,,,,,,,,,,,,,,,,,,,,,,,-0.043333333,0.006666667,0,0,0,,,,,,,CLOUD,C,new,y,./images/CLOUD.png,,,,,,,z,0,0.785,,,,,,,,0,158,158,110,1
,,,,,,,,,,,,,,,,,199126,19,2022-01-25_21h03.38.872,lexical_decision_task_DD_L2,2021.2.3,MacIntel,62.5,,,,,,,,,,,,1.047,0,,,,,,,,,,,,,,,,,,,,,,,,-0.043333333,0.006666667,0,0,0,,,,,,,FLASK,HB,new,y,./images/FLASKHB.png,,,,,,,m,0,1.047,,,,,,,,0,159,159,156,1
,,,,,,,,,,,,,,,,,199126,19,2022-01-25_21h03.38.872,lexical_decision_task_DD_L2,2021.2.3,MacIntel,62.5,,,,,,,,,,,,1.034,0,,,,,,,,,,,,,,,,,,,,,,,,-0.043333333,0.006666667,0,0,0,,,,,,,POKER,LB,new,y,./images/POKERLB.png,,,,,,,z,0,1.034,,,,,,,,0,160,160,151,1
,,,,,,,,,,,,,,,,,199126,19,2022-01-25_21h03.38.872,lexical_decision_task_DD_L2,2021.2.3,MacIntel,62.5,,,,,,,,,,,,1.029,0,,,,,,,,,,,,,,,,,,,,,,,,-0.043333333,0.006666667,0,0,0,,,,,,,NOOSE,HB,old,y,./images/NOOSEHB.png,,,,,,,m,0,1.029,,,,,,,,0,161,161,72,1
,,,,,,,,,,,,,,,,,199126,19,2022-01-25_21h03.38.872,lexical_decision_task_DD_L2,2021.2.3,MacIntel,62.5,,,,,,,,,,,,0.997,0,,,,,,,,,,,,,,,,,,,,,,,,-0.043333333,0.006666667,0,0,0,,,,,,,LADDER,C,old,y,./images/LADDER.png,,,,,,,m,0,0.997,,,,,,,,0,162,162,38,1
,,,,,,,,,,,,,,,,,199126,19,2022-01-25_21h03.38.872,lexical_decision_task_DD_L2,2021.2.3,MacIntel,62.5,,,,,,,,,,,,1.029,0,,,,,,,,,,,,,,,,,,,,,,,,-0.043333333,0.006666667,0,0,0,,,,,,,CEMENT,C,old,y,./images/CEMENT.png,,,,,,,m,0,1.029,,,,,,,,0,163,163,74,1
,,,,,,,,,,,,,,,,,199126,19,2022-01-25_21h03.38.872,lexical_decision_task_DD_L2,2021.2.3,MacIntel,62.5,,,,,,,,,,,,0.97,0,,,,,,,,,,,,,,,,,,,,,,,,-0.043333333,0.006666667,0,0,0,,,,,,,DRILL,HB,new,y,./images/DRILLHB.png,,,,,,,z,0,0.97,,,,,,,,0,164,164,165,1
,,,,,,,,,,,,,,,,,199126,19,2022-01-25_21h03.38.872,lexical_decision_task_DD_L2,2021.2.3,MacIntel,62.5,,,,,,,,,,,,0.963,0,,,,,,,,,,,,,,,,,,,,,,,,-0.043333333,0.006666667,0,0,0,,,,,,,CHAIN,HB,new,y,./images/CHAINHB.png,,,,,,,z,0,0.963,,,,,,,,0,165,165,126,1
,,,,,,,,,,,,,,,,,199126,19,2022-01-25_21h03.38.872,lexical_decision_task_DD_L2,2021.2.3,MacIntel,62.5,,,,,,,,,,,,0.782,0,,,,,,,,,,,,,,,,,,,,,,,,-0.043333333,0.006666667,0,0,0,,,,,,,BRIDE,LB,new,y,./images/BRIDELB.png,,,,,,,z,0,0.782,,,,,,,,0,166,166,148,1
,,,,,,,,,,,,,,,,,199126,19,2022-01-25_21h03.38.872,lexical_decision_task_DD_L2,2021.2.3,MacIntel,62.5,,,,,,,,,,,,0.833,0,,,,,,,,,,,,,,,,,,,,,,,,-0.043333333,0.006666667,0,0,0,,,,,,,SAUCE,HB,new,y,./images/SAUCEHB.png,,,,,,,z,0,0.833,,,,,,,,0,167,167,135,1
