key_resp.keys,instr_done_touch.x,instr_done_touch.y,instr_done_touch.leftButton,instr_done_touch.midButton,instr_done_touch.rightButton,instr_done_touch.clicked_name,instruction_pages.thisRepN,instruction_pages.thisTrialN,instruction_pages.thisN,instruction_pages.thisIndex,instruction_pages.ran,pageN,phase,instruct_text,has_image,instruct_image,participant,age,date,expName,psychopyVersion,OS,frameRate,key_resp.rt,response.keys,response.corr,response.rt,touch_resp.x,touch_resp.y,touch_resp.leftButton,touch_resp.midButton,touch_resp.rightButton,touch_resp.time,touch_resp.clicked_name,rt,corr,practrials.thisRepN,practrials.thisTrialN,practrials.thisN,practrials.thisIndex,practrials.ran,TrialID,Target,corrAns,end_of_practice_trials_pages.thisRepN,end_of_practice_trials_pages.thisTrialN,end_of_practice_trials_pages.thisN,end_of_practice_trials_pages.thisIndex,end_of_practice_trials_pages.ran,key_resp_2.keys,key_resp_2.corr,key_resp_2.rt,targ_click.x,targ_click.y,targ_click.leftButton,targ_click.midButton,targ_click.rightButton,targ_click.time,targ_click.clicked_name,break_done_touch.x,break_done_touch.y,break_done_touch.leftButton,break_done_touch.midButton,break_done_touch.rightButton,break_done_keyboard.keys,maintrials.thisRepN,maintrials.thisTrialN,maintrials.thisN,maintrials.thisIndex,maintrials.ran,string,blur,study,lex,stim_path,break_done_keyboard.rt,test_instructions.thisRepN,test_instructions.thisTrialN,test_instructions.thisN,test_instructions.thisIndex,test_instructions.ran,key_resp_3.keys,key_resp_3.corr,key_resp_3.rt,test_click.x,test_click.y,test_click.leftButton,test_click.midButton,test_click.rightButton,test_click.time,test_click.clicked_name,test_phase.thisRepN,test_phase.thisTrialN,test_phase.thisN,test_phase.thisIndex,test_phase.ran
,0.16114936,-0.363692084,1,0,0,instr_done_button,0,0,0,0,1,1,instructions,"INSTRUCTIONS
At the start of each trial, look at the plus sign  (+) in the center of the screen.  This tells you that a trial is about to begin and where to look. Second, the plus sign will disappear and a string of letters will appear. Your task is to determine if the string of letters is a word or not. If the item is a word press the M key (on keyboard)  or touch the word button (phone/tablet).  If the item is not a word,  press the  Z key (on keyboard)  or touch the nonword button (on phone/tablet). 
Press the space bar or touch  continue.",0,,199183,19,2022-02-02_19h34.25.687,lexical_decision_task_DD,2021.2.3,MacIntel,60.04202942,,,,,,,,,,,,,,,,,,,,,,,,,,,,,,,,,,,,,,,,,,,,,,,,,,,,,,,,,,,,,,,,,,,,,,,,,
space,0.183165554,-0.229173991,0,0,0,,0,1,1,1,1,2,instructions,"If your device has a keyboard, press the 'Z' key for nonwords and the 'M' key for words.





Press the space bar or touch the button below to continue.",0,keyboard-example.gif,199183,19,2022-02-02_19h34.25.687,lexical_decision_task_DD,2021.2.3,MacIntel,60.04202942,10.5423,,,,,,,,,,,,,,,,,,,,,,,,,,,,,,,,,,,,,,,,,,,,,,,,,,,,,,,,,,,,,,,,,,,,,,,,
space,0.183165554,-0.229173991,0,0,0,,0,2,2,2,1,3,instructions,"If you are using a touchscreen only device, use the buttons on the screen. Do not use the mouse.





Press the space bar or touch the button below to continue.",0,touchscreen-example.gif,199183,19,2022-02-02_19h34.25.687,lexical_decision_task_DD,2021.2.3,MacIntel,60.04202942,7.107,,,,,,,,,,,,,,,,,,,,,,,,,,,,,,,,,,,,,,,,,,,,,,,,,,,,,,,,,,,,,,,,,,,,,,,,
space,0.183165554,-0.229173991,0,0,0,,0,3,3,3,1,4,instructions,"It is very important that you respond as quickly and accurately as possible, as each letter string will only be on the screen for two seconds. If you do not respond within this time, the message 'Too slow!' will be displayed and the experiment will progress to the next letter string. The first 20 trials will be practice trials and you will receive feedback on your answers. 

Press the space bar or touch the button below to start the practice trials.",0,,199183,19,2022-02-02_19h34.25.687,lexical_decision_task_DD,2021.2.3,MacIntel,60.04202942,16.2228,,,,,,,,,,,,,,,,,,,,,,,,,,,,,,,,,,,,,,,,,,,,,,,,,,,,,,,,,,,,,,,,,,,,,,,,
,,,,,,,,,,,,,,,,,199183,19,2022-02-02_19h34.25.687,lexical_decision_task_DD,2021.2.3,MacIntel,60.04202942,,m,1,1.0609,,,,,,,,1.0609,1,0,0,0,0,1,1001,UTOPIA,m,,,,,,,,,,,,,,,,,,,,,,,,,,,,,,,,,,,,,,,,,,,,,,,,,,,,
,,,,,,,,,,,,,,,,,199183,19,2022-02-02_19h34.25.687,lexical_decision_task_DD,2021.2.3,MacIntel,60.04202942,,m,1,0.5205,,,,,,,,0.5205,1,0,1,1,6,1,1001,ZOMBIE,m,,,,,,,,,,,,,,,,,,,,,,,,,,,,,,,,,,,,,,,,,,,,,,,,,,,,
,,,,,,,,,,,,,,,,,199183,19,2022-02-02_19h34.25.687,lexical_decision_task_DD,2021.2.3,MacIntel,60.04202942,,z,1,1.0016,,,,,,,,1.0016,1,0,2,2,10,1,1001,INLADE,z,,,,,,,,,,,,,,,,,,,,,,,,,,,,,,,,,,,,,,,,,,,,,,,,,,,,
,,,,,,,,,,,,,,,,,199183,19,2022-02-02_19h34.25.687,lexical_decision_task_DD,2021.2.3,MacIntel,60.04202942,,z,1,0.7626,,,,,,,,0.7626,1,0,3,3,13,1,1001,ROUPET,z,,,,,,,,,,,,,,,,,,,,,,,,,,,,,,,,,,,,,,,,,,,,,,,,,,,,
,,,,,,,,,,,,,,,,,199183,19,2022-02-02_19h34.25.687,lexical_decision_task_DD,2021.2.3,MacIntel,60.04202942,,z,1,0.7483,,,,,,,,0.7483,1,0,4,4,8,1,1001,ASLERT,z,,,,,,,,,,,,,,,,,,,,,,,,,,,,,,,,,,,,,,,,,,,,,,,,,,,,
,,,,,,,,,,,,,,,,,199183,19,2022-02-02_19h34.25.687,lexical_decision_task_DD,2021.2.3,MacIntel,60.04202942,,m,1,0.9603,,,,,,,,0.9603,1,0,5,5,4,1,1001,SQUEAK,m,,,,,,,,,,,,,,,,,,,,,,,,,,,,,,,,,,,,,,,,,,,,,,,,,,,,
,,,,,,,,,,,,,,,,,199183,19,2022-02-02_19h34.25.687,lexical_decision_task_DD,2021.2.3,MacIntel,60.04202942,,z,1,0.6956,,,,,,,,0.6956,1,0,6,6,14,1,1001,THRALE,z,,,,,,,,,,,,,,,,,,,,,,,,,,,,,,,,,,,,,,,,,,,,,,,,,,,,
,,,,,,,,,,,,,,,,,199183,19,2022-02-02_19h34.25.687,lexical_decision_task_DD,2021.2.3,MacIntel,60.04202942,,m,1,0.61,,,,,,,,0.61,1,0,7,7,5,1,1001,OBTAIN,m,,,,,,,,,,,,,,,,,,,,,,,,,,,,,,,,,,,,,,,,,,,,,,,,,,,,
,,,,,,,,,,,,,,,,,199183,19,2022-02-02_19h34.25.687,lexical_decision_task_DD,2021.2.3,MacIntel,60.04202942,,m,1,0.5019,,,,,,,,0.5019,1,0,8,8,2,1,1001,ALMOND,m,,,,,,,,,,,,,,,,,,,,,,,,,,,,,,,,,,,,,,,,,,,,,,,,,,,,
,,,,,,,,,,,,,,,,,199183,19,2022-02-02_19h34.25.687,lexical_decision_task_DD,2021.2.3,MacIntel,60.04202942,,z,1,0.604,,,,,,,,0.604,1,0,9,9,12,1,1001,SPRINY,z,,,,,,,,,,,,,,,,,,,,,,,,,,,,,,,,,,,,,,,,,,,,,,,,,,,,
,,,,,,,,,,,,,,,,,199183,19,2022-02-02_19h34.25.687,lexical_decision_task_DD,2021.2.3,MacIntel,60.04202942,,m,1,0.4933,,,,,,,,0.4933,1,0,10,10,7,1,1001,VOLUME,m,,,,,,,,,,,,,,,,,,,,,,,,,,,,,,,,,,,,,,,,,,,,,,,,,,,,
,,,,,,,,,,,,,,,,,199183,19,2022-02-02_19h34.25.687,lexical_decision_task_DD,2021.2.3,MacIntel,60.04202942,,z,1,0.5734,,,,,,,,0.5734,1,0,11,11,11,1,1001,RASHET,z,,,,,,,,,,,,,,,,,,,,,,,,,,,,,,,,,,,,,,,,,,,,,,,,,,,,
,,,,,,,,,,,,,,,,,199183,19,2022-02-02_19h34.25.687,lexical_decision_task_DD,2021.2.3,MacIntel,60.04202942,,m,1,0.7265,,,,,,,,0.7265,1,0,12,12,1,1,1001,ADJUST,m,,,,,,,,,,,,,,,,,,,,,,,,,,,,,,,,,,,,,,,,,,,,,,,,,,,,
,,,,,,,,,,,,,,,,,199183,19,2022-02-02_19h34.25.687,lexical_decision_task_DD,2021.2.3,MacIntel,60.04202942,,z,1,0.6794,,,,,,,,0.6794,1,0,13,13,9,1,1001,FARINY,z,,,,,,,,,,,,,,,,,,,,,,,,,,,,,,,,,,,,,,,,,,,,,,,,,,,,
,,,,,,,,,,,,,,,,,199183,19,2022-02-02_19h34.25.687,lexical_decision_task_DD,2021.2.3,MacIntel,60.04202942,,m,1,0.7104,,,,,,,,0.7104,1,0,14,14,3,1,1001,MATRIX,m,,,,,,,,,,,,,,,,,,,,,,,,,,,,,,,,,,,,,,,,,,,,,,,,,,,,
,,,,,,,,,,,,,,,,,199183,19,2022-02-02_19h34.25.687,lexical_decision_task_DD,2021.2.3,MacIntel,60.04202942,,m,0,0.6577,,,,,,,,0.6577,0,0,15,15,15,1,1001,WHAISE,z,,,,,,,,,,,,,,,,,,,,,,,,,,,,,,,,,,,,,,,,,,,,,,,,,,,,
space,0.183165554,-0.229173991,0,0,0,,,,,,,1,end_of_practice,"You have completed the practice trials. During the experimental trials, you will not receive feedback. 
Before you begin, please ensure that you are in a comfortable and quiet location and will not be disturbed for about 15 minutes, as we cannot use your data if you do not complete all the trials. 
 When you are ready to start the experimental trials, please press space or touch the button below.",,,199183,19,2022-02-02_19h34.25.687,lexical_decision_task_DD,2021.2.3,MacIntel,60.04202942,11.4982,,,,,,,,,,,,,,,,,,,,,0,0,0,0,1,,,,,,,,,,,,,,,,,,,,,,,,,,,,,,,,,,,,,,,,,,,,,,,
,,,,,,,,,,,,,,,,,199183,19,2022-02-02_19h34.25.687,lexical_decision_task_DD,2021.2.3,MacIntel,60.04202942,,,,,,,,,,,,1.4463,1,,,,,,,,,,,,,,z,1,1.4463,,,,,,,,0.183165554,-0.229173991,0,0,0,,0,0,0,116,1,BALGY,LB,old,z,./images/BALGYLB.png,,,,,,,,,,,,,,,,,,,,,
,,,,,,,,,,,,,,,,,199183,19,2022-02-02_19h34.25.687,lexical_decision_task_DD,2021.2.3,MacIntel,60.04202942,,,,,,,,,,,,0.7238,1,,,,,,,,,,,,,,m,1,0.7238,,,,,,,,0.183165554,-0.229173991,0,0,0,,0,1,1,54,1,TRIPOD,C,old,m,./images/TRIPOD.png,,,,,,,,,,,,,,,,,,,,,
,,,,,,,,,,,,,,,,,199183,19,2022-02-02_19h34.25.687,lexical_decision_task_DD,2021.2.3,MacIntel,60.04202942,,,,,,,,,,,,1.1359,1,,,,,,,,,,,,,,m,1,1.1359,,,,,,,,0.183165554,-0.229173991,0,0,0,,0,2,2,59,1,BURIAL,LB,old,m,./images/BURIALLB.png,,,,,,,,,,,,,,,,,,,,,
,,,,,,,,,,,,,,,,,199183,19,2022-02-02_19h34.25.687,lexical_decision_task_DD,2021.2.3,MacIntel,60.04202942,,,,,,,,,,,,3.5657,1,,,,,,,,,,,,,,z,1,3.5657,,,,,,,,0.183165554,-0.229173991,0,0,0,,0,3,3,121,1,CEERS,HB,old,z,./images/CEERSHB.png,,,,,,,,,,,,,,,,,,,,,
,,,,,,,,,,,,,,,,,199183,19,2022-02-02_19h34.25.687,lexical_decision_task_DD,2021.2.3,MacIntel,60.04202942,,,,,,,,,,,,1.0377,1,,,,,,,,,,,,,,z,1,1.0377,,,,,,,,0.183165554,-0.229173991,0,0,0,,0,4,4,114,1,RIKES,C,old,z,./images/RIKES.png,,,,,,,,,,,,,,,,,,,,,
,,,,,,,,,,,,,,,,,199183,19,2022-02-02_19h34.25.687,lexical_decision_task_DD,2021.2.3,MacIntel,60.04202942,,,,,,,,,,,,0.832,1,,,,,,,,,,,,,,z,1,0.832,,,,,,,,0.183165554,-0.229173991,0,0,0,,0,5,5,104,1,GITTY,LB,old,z,./images/GITTYLB.png,,,,,,,,,,,,,,,,,,,,,
,,,,,,,,,,,,,,,,,199183,19,2022-02-02_19h34.25.687,lexical_decision_task_DD,2021.2.3,MacIntel,60.04202942,,,,,,,,,,,,0.6732,1,,,,,,,,,,,,,,m,1,0.6732,,,,,,,,0.183165554,-0.229173991,0,0,0,,0,6,6,81,1,POODLE,C,old,m,./images/POODLE.png,,,,,,,,,,,,,,,,,,,,,
,,,,,,,,,,,,,,,,,199183,19,2022-02-02_19h34.25.687,lexical_decision_task_DD,2021.2.3,MacIntel,60.04202942,,,,,,,,,,,,0.6848,1,,,,,,,,,,,,,,m,1,0.6848,,,,,,,,0.183165554,-0.229173991,0,0,0,,0,7,7,27,1,ATTIC,C,old,m,./images/ATTIC.png,,,,,,,,,,,,,,,,,,,,,
,,,,,,,,,,,,,,,,,199183,19,2022-02-02_19h34.25.687,lexical_decision_task_DD,2021.2.3,MacIntel,60.04202942,,,,,,,,,,,,1.13,0,,,,,,,,,,,,,,m,0,1.13,,,,,,,,0.183165554,-0.229173991,0,0,0,,0,8,8,106,1,CLUMS,HB,old,z,./images/CLUMSHB.png,,,,,,,,,,,,,,,,,,,,,
,,,,,,,,,,,,,,,,,199183,19,2022-02-02_19h34.25.687,lexical_decision_task_DD,2021.2.3,MacIntel,60.04202942,,,,,,,,,,,,0.8805,1,,,,,,,,,,,,,,m,1,0.8805,,,,,,,,0.183165554,-0.229173991,0,0,0,,0,9,9,20,1,CRADLE,LB,old,m,./images/CRADLELB.png,,,,,,,,,,,,,,,,,,,,,
,,,,,,,,,,,,,,,,,199183,19,2022-02-02_19h34.25.687,lexical_decision_task_DD,2021.2.3,MacIntel,60.04202942,,,,,,,,,,,,0.6477,1,,,,,,,,,,,,,,m,1,0.6477,,,,,,,,0.183165554,-0.229173991,0,0,0,,0,10,10,77,1,COUCH,LB,old,m,./images/COUCHLB.png,,,,,,,,,,,,,,,,,,,,,
,,,,,,,,,,,,,,,,,199183,19,2022-02-02_19h34.25.687,lexical_decision_task_DD,2021.2.3,MacIntel,60.04202942,,,,,,,,,,,,0.6209,1,,,,,,,,,,,,,,m,1,0.6209,,,,,,,,0.183165554,-0.229173991,0,0,0,,0,11,11,53,1,CARPET,LB,old,m,./images/CARPETLB.png,,,,,,,,,,,,,,,,,,,,,
,,,,,,,,,,,,,,,,,199183,19,2022-02-02_19h34.25.687,lexical_decision_task_DD,2021.2.3,MacIntel,60.04202942,,,,,,,,,,,,0.7149,1,,,,,,,,,,,,,,z,1,0.7149,,,,,,,,0.183165554,-0.229173991,0,0,0,,0,12,12,90,1,NEAST,C,old,z,./images/NEAST.png,,,,,,,,,,,,,,,,,,,,,
,,,,,,,,,,,,,,,,,199183,19,2022-02-02_19h34.25.687,lexical_decision_task_DD,2021.2.3,MacIntel,60.04202942,,,,,,,,,,,,1.0443,1,,,,,,,,,,,,,,m,1,1.0443,,,,,,,,0.183165554,-0.229173991,0,0,0,,0,13,13,37,1,BIRTH,HB,old,m,./images/BIRTHHB.png,,,,,,,,,,,,,,,,,,,,,
,,,,,,,,,,,,,,,,,199183,19,2022-02-02_19h34.25.687,lexical_decision_task_DD,2021.2.3,MacIntel,60.04202942,,,,,,,,,,,,0.5294,1,,,,,,,,,,,,,,m,1,0.5294,,,,,,,,0.183165554,-0.229173991,0,0,0,,0,14,14,41,1,STRING,LB,old,m,./images/STRINGLB.png,,,,,,,,,,,,,,,,,,,,,
,,,,,,,,,,,,,,,,,199183,19,2022-02-02_19h34.25.687,lexical_decision_task_DD,2021.2.3,MacIntel,60.04202942,,,,,,,,,,,,2.1297,1,,,,,,,,,,,,,,z,1,2.1297,,,,,,,,0.183165554,-0.229173991,0,0,0,,0,15,15,148,1,JOMS,HB,old,z,./images/JOMSHB.png,,,,,,,,,,,,,,,,,,,,,
,,,,,,,,,,,,,,,,,199183,19,2022-02-02_19h34.25.687,lexical_decision_task_DD,2021.2.3,MacIntel,60.04202942,,,,,,,,,,,,0.7074,1,,,,,,,,,,,,,,m,1,0.7074,,,,,,,,0.183165554,-0.229173991,0,0,0,,0,16,16,1,1,PLANK,HB,old,m,./images/PLANKHB.png,,,,,,,,,,,,,,,,,,,,,
,,,,,,,,,,,,,,,,,199183,19,2022-02-02_19h34.25.687,lexical_decision_task_DD,2021.2.3,MacIntel,60.04202942,,,,,,,,,,,,1.7301,1,,,,,,,,,,,,,,m,1,1.7301,,,,,,,,0.183165554,-0.229173991,0,0,0,,0,17,17,67,1,SAILOR,HB,old,m,./images/SAILORHB.png,,,,,,,,,,,,,,,,,,,,,
,,,,,,,,,,,,,,,,,199183,19,2022-02-02_19h34.25.687,lexical_decision_task_DD,2021.2.3,MacIntel,60.04202942,,,,,,,,,,,,0.7394,1,,,,,,,,,,,,,,z,1,0.7394,,,,,,,,0.183165554,-0.229173991,0,0,0,,0,18,18,84,1,HAXES,C,old,z,./images/HAXES.png,,,,,,,,,,,,,,,,,,,,,
,,,,,,,,,,,,,,,,,199183,19,2022-02-02_19h34.25.687,lexical_decision_task_DD,2021.2.3,MacIntel,60.04202942,,,,,,,,,,,,0.8934,1,,,,,,,,,,,,,,z,1,0.8934,,,,,,,,0.183165554,-0.229173991,0,0,0,,0,19,19,136,1,WERVE,HB,old,z,./images/WERVEHB.png,,,,,,,,,,,,,,,,,,,,,
,,,,,,,,,,,,,,,,,199183,19,2022-02-02_19h34.25.687,lexical_decision_task_DD,2021.2.3,MacIntel,60.04202942,,,,,,,,,,,,1.2496,1,,,,,,,,,,,,,,m,1,1.2496,,,,,,,,0.183165554,-0.229173991,0,0,0,,0,20,20,58,1,BABOON,HB,old,m,./images/BABOONHB.png,,,,,,,,,,,,,,,,,,,,,
,,,,,,,,,,,,,,,,,199183,19,2022-02-02_19h34.25.687,lexical_decision_task_DD,2021.2.3,MacIntel,60.04202942,,,,,,,,,,,,1.1227,1,,,,,,,,,,,,,,m,1,1.1227,,,,,,,,0.183165554,-0.229173991,0,0,0,,0,21,21,82,1,SUNSET,HB,old,m,./images/SUNSETHB.png,,,,,,,,,,,,,,,,,,,,,
,,,,,,,,,,,,,,,,,199183,19,2022-02-02_19h34.25.687,lexical_decision_task_DD,2021.2.3,MacIntel,60.04202942,,,,,,,,,,,,0.6766,1,,,,,,,,,,,,,,m,1,0.6766,,,,,,,,0.183165554,-0.229173991,0,0,0,,0,22,22,8,1,TULIP,LB,old,m,./images/TULIPLB.png,,,,,,,,,,,,,,,,,,,,,
,,,,,,,,,,,,,,,,,199183,19,2022-02-02_19h34.25.687,lexical_decision_task_DD,2021.2.3,MacIntel,60.04202942,,,,,,,,,,,,0.8981,1,,,,,,,,,,,,,,m,1,0.8981,,,,,,,,0.183165554,-0.229173991,0,0,0,,0,23,23,61,1,CANDLE,HB,old,m,./images/CANDLEHB.png,,,,,,,,,,,,,,,,,,,,,
,,,,,,,,,,,,,,,,,199183,19,2022-02-02_19h34.25.687,lexical_decision_task_DD,2021.2.3,MacIntel,60.04202942,,,,,,,,,,,,0.9666,1,,,,,,,,,,,,,,z,1,0.9666,,,,,,,,0.183165554,-0.229173991,0,0,0,,0,24,24,163,1,GAMBA,HB,old,z,./images/GAMBAHB.png,,,,,,,,,,,,,,,,,,,,,
,,,,,,,,,,,,,,,,,199183,19,2022-02-02_19h34.25.687,lexical_decision_task_DD,2021.2.3,MacIntel,60.04202942,,,,,,,,,,,,0.5795,1,,,,,,,,,,,,,,m,1,0.5795,,,,,,,,0.183165554,-0.229173991,0,0,0,,0,25,25,5,1,PASTA,LB,old,m,./images/PASTALB.png,,,,,,,,,,,,,,,,,,,,,
,,,,,,,,,,,,,,,,,199183,19,2022-02-02_19h34.25.687,lexical_decision_task_DD,2021.2.3,MacIntel,60.04202942,,,,,,,,,,,,0.5621,0,,,,,,,,,,,,,,m,0,0.5621,,,,,,,,0.183165554,-0.229173991,0,0,0,,0,26,26,128,1,GRIFT,LB,old,z,./images/GRIFTLB.png,,,,,,,,,,,,,,,,,,,,,
,,,,,,,,,,,,,,,,,199183,19,2022-02-02_19h34.25.687,lexical_decision_task_DD,2021.2.3,MacIntel,60.04202942,,,,,,,,,,,,1.6822,0,,,,,,,,,,,,,,z,0,1.6822,,,,,,,,0.183165554,-0.229173991,0,0,0,,0,27,27,34,1,CANYON,HB,old,m,./images/CANYONHB.png,,,,,,,,,,,,,,,,,,,,,
,,,,,,,,,,,,,,,,,199183,19,2022-02-02_19h34.25.687,lexical_decision_task_DD,2021.2.3,MacIntel,60.04202942,,,,,,,,,,,,1.1822,1,,,,,,,,,,,,,,m,1,1.1822,,,,,,,,0.183165554,-0.229173991,0,0,0,,0,28,28,55,1,MUFFIN,HB,old,m,./images/MUFFINHB.png,,,,,,,,,,,,,,,,,,,,,
,,,,,,,,,,,,,,,,,199183,19,2022-02-02_19h34.25.687,lexical_decision_task_DD,2021.2.3,MacIntel,60.04202942,,,,,,,,,,,,0.8477,0,,,,,,,,,,,,,,m,0,0.8477,,,,,,,,0.183165554,-0.229173991,0,0,0,,0,29,29,166,1,SHORY,HB,old,z,./images/SHORYHB.png,,,,,,,,,,,,,,,,,,,,,
,,,,,,,,,,,,,,,,,199183,19,2022-02-02_19h34.25.687,lexical_decision_task_DD,2021.2.3,MacIntel,60.04202942,,,,,,,,,,,,0.5925,1,,,,,,,,,,,,,,m,1,0.5925,,,,,,,,0.183165554,-0.229173991,0,0,0,,0,30,30,83,1,JUNGLE,LB,old,m,./images/JUNGLELB.png,,,,,,,,,,,,,,,,,,,,,
,,,,,,,,,,,,,,,,,199183,19,2022-02-02_19h34.25.687,lexical_decision_task_DD,2021.2.3,MacIntel,60.04202942,,,,,,,,,,,,0.5785,1,,,,,,,,,,,,,,m,1,0.5785,,,,,,,,0.183165554,-0.229173991,0,0,0,,0,31,31,60,1,TWINS,C,old,m,./images/TWINS.png,,,,,,,,,,,,,,,,,,,,,
,,,,,,,,,,,,,,,,,199183,19,2022-02-02_19h34.25.687,lexical_decision_task_DD,2021.2.3,MacIntel,60.04202942,,,,,,,,,,,,1.1134,1,,,,,,,,,,,,,,z,1,1.1134,,,,,,,,0.183165554,-0.229173991,0,0,0,,0,32,32,92,1,PAIMS,LB,old,z,./images/PAIMSLB.png,,,,,,,,,,,,,,,,,,,,,
,,,,,,,,,,,,,,,,,199183,19,2022-02-02_19h34.25.687,lexical_decision_task_DD,2021.2.3,MacIntel,60.04202942,,,,,,,,,,,,0.568,0,,,,,,,,,,,,,,m,0,0.568,,,,,,,,0.183165554,-0.229173991,0,0,0,,0,33,33,146,1,MOOST,LB,old,z,./images/MOOSTLB.png,,,,,,,,,,,,,,,,,,,,,
,,,,,,,,,,,,,,,,,199183,19,2022-02-02_19h34.25.687,lexical_decision_task_DD,2021.2.3,MacIntel,60.04202942,,,,,,,,,,,,0.8583,1,,,,,,,,,,,,,,z,1,0.8583,,,,,,,,0.183165554,-0.229173991,0,0,0,,0,34,34,161,1,BLAPS,LB,old,z,./images/BLAPSLB.png,,,,,,,,,,,,,,,,,,,,,
,,,,,,,,,,,,,,,,,199183,19,2022-02-02_19h34.25.687,lexical_decision_task_DD,2021.2.3,MacIntel,60.04202942,,,,,,,,,,,,0.629,1,,,,,,,,,,,,,,z,1,0.629,,,,,,,,0.183165554,-0.229173991,0,0,0,,0,35,35,95,1,HANTY,LB,old,z,./images/HANTYLB.png,,,,,,,,,,,,,,,,,,,,,
,,,,,,,,,,,,,,,,,199183,19,2022-02-02_19h34.25.687,lexical_decision_task_DD,2021.2.3,MacIntel,60.04202942,,,,,,,,,,,,0.6556,1,,,,,,,,,,,,,,m,1,0.6556,,,,,,,,0.183165554,-0.229173991,0,0,0,,0,36,36,75,1,GRAIN,C,old,m,./images/GRAIN.png,,,,,,,,,,,,,,,,,,,,,
,,,,,,,,,,,,,,,,,199183,19,2022-02-02_19h34.25.687,lexical_decision_task_DD,2021.2.3,MacIntel,60.04202942,,,,,,,,,,,,0.9316,1,,,,,,,,,,,,,,z,1,0.9316,,,,,,,,0.183165554,-0.229173991,0,0,0,,0,37,37,101,1,GLEET,LB,old,z,./images/GLEETLB.png,,,,,,,,,,,,,,,,,,,,,
,,,,,,,,,,,,,,,,,199183,19,2022-02-02_19h34.25.687,lexical_decision_task_DD,2021.2.3,MacIntel,60.04202942,,,,,,,,,,,,1.9115,1,,,,,,,,,,,,,,m,1,1.9115,,,,,,,,0.183165554,-0.229173991,0,0,0,,0,38,38,70,1,URINE,HB,old,m,./images/URINEHB.png,,,,,,,,,,,,,,,,,,,,,
,,,,,,,,,,,,,,,,,199183,19,2022-02-02_19h34.25.687,lexical_decision_task_DD,2021.2.3,MacIntel,60.04202942,,,,,,,,,,,,1.0774,1,,,,,,,,,,,,,,z,1,1.0774,,,,,,,,0.183165554,-0.229173991,0,0,0,,0,39,39,99,1,BACKY,C,old,z,./images/BACKY.png,,,,,,,,,,,,,,,,,,,,,
,,,,,,,,,,,,,,,,,199183,19,2022-02-02_19h34.25.687,lexical_decision_task_DD,2021.2.3,MacIntel,60.04202942,,,,,,,,,,,,1.4394,1,,,,,,,,,,,,,,z,1,1.4394,,,,,,,,0.183165554,-0.229173991,0,0,0,,0,40,40,115,1,MAWNS,HB,old,z,./images/MAWNSHB.png,,,,,,,,,,,,,,,,,,,,,
,,,,,,,,,,,,,,,,,199183,19,2022-02-02_19h34.25.687,lexical_decision_task_DD,2021.2.3,MacIntel,60.04202942,,,,,,,,,,,,0.7675,1,,,,,,,,,,,,,,z,1,0.7675,,,,,,,,0.183165554,-0.229173991,0,0,0,space,0,41,41,120,1,RINED,C,old,z,./images/RINED.png,4.8969,,,,,,,,,,,,,,,,,,,,
,,,,,,,,,,,,,,,,,199183,19,2022-02-02_19h34.25.687,lexical_decision_task_DD,2021.2.3,MacIntel,60.04202942,,,,,,,,,,,,0.6119,1,,,,,,,,,,,,,,z,1,0.6119,,,,,,,,0.183165554,-0.229173991,0,0,0,,0,42,42,102,1,DULLE,C,old,z,./images/DULLE.png,,,,,,,,,,,,,,,,,,,,,
,,,,,,,,,,,,,,,,,199183,19,2022-02-02_19h34.25.687,lexical_decision_task_DD,2021.2.3,MacIntel,60.04202942,,,,,,,,,,,,1.4586,1,,,,,,,,,,,,,,z,1,1.4586,,,,,,,,0.183165554,-0.229173991,0,0,0,,0,43,43,86,1,AIFED,LB,old,z,./images/AIFEDLB.png,,,,,,,,,,,,,,,,,,,,,
,,,,,,,,,,,,,,,,,199183,19,2022-02-02_19h34.25.687,lexical_decision_task_DD,2021.2.3,MacIntel,60.04202942,,,,,,,,,,,,0.7108,1,,,,,,,,,,,,,,z,1,0.7108,,,,,,,,0.183165554,-0.229173991,0,0,0,,0,44,44,93,1,SMONE,C,old,z,./images/SMONE.png,,,,,,,,,,,,,,,,,,,,,
,,,,,,,,,,,,,,,,,199183,19,2022-02-02_19h34.25.687,lexical_decision_task_DD,2021.2.3,MacIntel,60.04202942,,,,,,,,,,,,1.9974,1,,,,,,,,,,,,,,m,1,1.9974,,,,,,,,0.183165554,-0.229173991,0,0,0,,0,45,45,76,1,INFANT,HB,old,m,./images/INFANTHB.png,,,,,,,,,,,,,,,,,,,,,
,,,,,,,,,,,,,,,,,199183,19,2022-02-02_19h34.25.687,lexical_decision_task_DD,2021.2.3,MacIntel,60.04202942,,,,,,,,,,,,0.7621,1,,,,,,,,,,,,,,z,1,0.7621,,,,,,,,0.183165554,-0.229173991,0,0,0,,0,46,46,133,1,POWDY,HB,old,z,./images/POWDYHB.png,,,,,,,,,,,,,,,,,,,,,
,,,,,,,,,,,,,,,,,199183,19,2022-02-02_19h34.25.687,lexical_decision_task_DD,2021.2.3,MacIntel,60.04202942,,,,,,,,,,,,0.4748,1,,,,,,,,,,,,,,m,1,0.4748,,,,,,,,0.183165554,-0.229173991,0,0,0,,0,47,47,69,1,COOKER,C,old,m,./images/COOKER.png,,,,,,,,,,,,,,,,,,,,,
,,,,,,,,,,,,,,,,,199183,19,2022-02-02_19h34.25.687,lexical_decision_task_DD,2021.2.3,MacIntel,60.04202942,,,,,,,,,,,,0.6816,1,,,,,,,,,,,,,,m,1,0.6816,,,,,,,,0.183165554,-0.229173991,0,0,0,,0,48,48,9,1,RHINO,C,old,m,./images/RHINO.png,,,,,,,,,,,,,,,,,,,,,
,,,,,,,,,,,,,,,,,199183,19,2022-02-02_19h34.25.687,lexical_decision_task_DD,2021.2.3,MacIntel,60.04202942,,,,,,,,,,,,0.6828,1,,,,,,,,,,,,,,z,1,0.6828,,,,,,,,0.183165554,-0.229173991,0,0,0,,0,49,49,147,1,ZOLES,C,old,z,./images/ZOLES.png,,,,,,,,,,,,,,,,,,,,,
,,,,,,,,,,,,,,,,,199183,19,2022-02-02_19h34.25.687,lexical_decision_task_DD,2021.2.3,MacIntel,60.04202942,,,,,,,,,,,,0.5469,1,,,,,,,,,,,,,,m,1,0.5469,,,,,,,,0.183165554,-0.229173991,0,0,0,,0,50,50,12,1,SHORE,C,old,m,./images/SHORE.png,,,,,,,,,,,,,,,,,,,,,
,,,,,,,,,,,,,,,,,199183,19,2022-02-02_19h34.25.687,lexical_decision_task_DD,2021.2.3,MacIntel,60.04202942,,,,,,,,,,,,0.6395,1,,,,,,,,,,,,,,m,1,0.6395,,,,,,,,0.183165554,-0.229173991,0,0,0,,0,51,51,36,1,THROAT,C,old,m,./images/THROAT.png,,,,,,,,,,,,,,,,,,,,,
,,,,,,,,,,,,,,,,,199183,19,2022-02-02_19h34.25.687,lexical_decision_task_DD,2021.2.3,MacIntel,60.04202942,,,,,,,,,,,,0.7783,1,,,,,,,,,,,,,,m,1,0.7783,,,,,,,,0.183165554,-0.229173991,0,0,0,,0,52,52,47,1,BERRY,LB,old,m,./images/BERRYLB.png,,,,,,,,,,,,,,,,,,,,,
,,,,,,,,,,,,,,,,,199183,19,2022-02-02_19h34.25.687,lexical_decision_task_DD,2021.2.3,MacIntel,60.04202942,,,,,,,,,,,,0.7466,1,,,,,,,,,,,,,,z,1,0.7466,,,,,,,,0.183165554,-0.229173991,0,0,0,,0,53,53,122,1,BLOOT,LB,old,z,./images/BLOOTLB.png,,,,,,,,,,,,,,,,,,,,,
,,,,,,,,,,,,,,,,,199183,19,2022-02-02_19h34.25.687,lexical_decision_task_DD,2021.2.3,MacIntel,60.04202942,,,,,,,,,,,,1.5573,1,,,,,,,,,,,,,,m,1,1.5573,,,,,,,,0.183165554,-0.229173991,0,0,0,,0,54,54,43,1,MOSQUE,HB,old,m,./images/MOSQUEHB.png,,,,,,,,,,,,,,,,,,,,,
,,,,,,,,,,,,,,,,,199183,19,2022-02-02_19h34.25.687,lexical_decision_task_DD,2021.2.3,MacIntel,60.04202942,,,,,,,,,,,,0.5432,1,,,,,,,,,,,,,,m,1,0.5432,,,,,,,,0.183165554,-0.229173991,0,0,0,,0,55,55,44,1,LIZARD,LB,old,m,./images/LIZARDLB.png,,,,,,,,,,,,,,,,,,,,,
,,,,,,,,,,,,,,,,,199183,19,2022-02-02_19h34.25.687,lexical_decision_task_DD,2021.2.3,MacIntel,60.04202942,,,,,,,,,,,,0.4956,1,,,,,,,,,,,,,,m,1,0.4956,,,,,,,,0.183165554,-0.229173991,0,0,0,,0,56,56,24,1,SCREW,C,old,m,./images/SCREW.png,,,,,,,,,,,,,,,,,,,,,
,,,,,,,,,,,,,,,,,199183,19,2022-02-02_19h34.25.687,lexical_decision_task_DD,2021.2.3,MacIntel,60.04202942,,,,,,,,,,,,0.485,1,,,,,,,,,,,,,,m,1,0.485,,,,,,,,0.183165554,-0.229173991,0,0,0,,0,57,57,0,1,TOMATO,C,old,m,./images/TOMATO.png,,,,,,,,,,,,,,,,,,,,,
,,,,,,,,,,,,,,,,,199183,19,2022-02-02_19h34.25.687,lexical_decision_task_DD,2021.2.3,MacIntel,60.04202942,,,,,,,,,,,,0.7413,1,,,,,,,,,,,,,,z,1,0.7413,,,,,,,,0.183165554,-0.229173991,0,0,0,,0,58,58,157,1,INLER,HB,old,z,./images/INLERHB.png,,,,,,,,,,,,,,,,,,,,,
,,,,,,,,,,,,,,,,,199183,19,2022-02-02_19h34.25.687,lexical_decision_task_DD,2021.2.3,MacIntel,60.04202942,,,,,,,,,,,,0.8621,1,,,,,,,,,,,,,,z,1,0.8621,,,,,,,,0.183165554,-0.229173991,0,0,0,,0,59,59,150,1,NOOLS,C,old,z,./images/NOOLS.png,,,,,,,,,,,,,,,,,,,,,
,,,,,,,,,,,,,,,,,199183,19,2022-02-02_19h34.25.687,lexical_decision_task_DD,2021.2.3,MacIntel,60.04202942,,,,,,,,,,,,0.9979,1,,,,,,,,,,,,,,z,1,0.9979,,,,,,,,0.183165554,-0.229173991,0,0,0,,0,60,60,140,1,DOVET,LB,old,z,./images/DOVETLB.png,,,,,,,,,,,,,,,,,,,,,
,,,,,,,,,,,,,,,,,199183,19,2022-02-02_19h34.25.687,lexical_decision_task_DD,2021.2.3,MacIntel,60.04202942,,,,,,,,,,,,0.4842,1,,,,,,,,,,,,,,m,1,0.4842,,,,,,,,0.183165554,-0.229173991,0,0,0,,0,61,61,63,1,MIRROR,C,old,m,./images/MIRROR.png,,,,,,,,,,,,,,,,,,,,,
,,,,,,,,,,,,,,,,,199183,19,2022-02-02_19h34.25.687,lexical_decision_task_DD,2021.2.3,MacIntel,60.04202942,,,,,,,,,,,,1.1589,1,,,,,,,,,,,,,,m,1,1.1589,,,,,,,,0.183165554,-0.229173991,0,0,0,,0,62,62,25,1,WRIST,HB,old,m,./images/WRISTHB.png,,,,,,,,,,,,,,,,,,,,,
,,,,,,,,,,,,,,,,,199183,19,2022-02-02_19h34.25.687,lexical_decision_task_DD,2021.2.3,MacIntel,60.04202942,,,,,,,,,,,,0.5246,1,,,,,,,,,,,,,,m,1,0.5246,,,,,,,,0.183165554,-0.229173991,0,0,0,,0,63,63,45,1,KITTEN,C,old,m,./images/KITTEN.png,,,,,,,,,,,,,,,,,,,,,
,,,,,,,,,,,,,,,,,199183,19,2022-02-02_19h34.25.687,lexical_decision_task_DD,2021.2.3,MacIntel,60.04202942,,,,,,,,,,,,0.4327,1,,,,,,,,,,,,,,m,1,0.4327,,,,,,,,0.183165554,-0.229173991,0,0,0,,0,64,64,48,1,SPORT,C,old,m,./images/SPORT.png,,,,,,,,,,,,,,,,,,,,,
,,,,,,,,,,,,,,,,,199183,19,2022-02-02_19h34.25.687,lexical_decision_task_DD,2021.2.3,MacIntel,60.04202942,,,,,,,,,,,,2.0007,0,,,,,,,,,,,,,,m,0,2.0007,,,,,,,,0.183165554,-0.229173991,0,0,0,,0,65,65,109,1,BURGE,HB,old,z,./images/BURGEHB.png,,,,,,,,,,,,,,,,,,,,,
,,,,,,,,,,,,,,,,,199183,19,2022-02-02_19h34.25.687,lexical_decision_task_DD,2021.2.3,MacIntel,60.04202942,,,,,,,,,,,,0.9674,1,,,,,,,,,,,,,,z,1,0.9674,,,,,,,,0.183165554,-0.229173991,0,0,0,,0,66,66,151,1,TINKY,HB,old,z,./images/TINKYHB.png,,,,,,,,,,,,,,,,,,,,,
,,,,,,,,,,,,,,,,,199183,19,2022-02-02_19h34.25.687,lexical_decision_task_DD,2021.2.3,MacIntel,60.04202942,,,,,,,,,,,,0.7058,1,,,,,,,,,,,,,,m,1,0.7058,,,,,,,,0.183165554,-0.229173991,0,0,0,,0,67,67,32,1,BARREL,LB,old,m,./images/BARRELLB.png,,,,,,,,,,,,,,,,,,,,,
,,,,,,,,,,,,,,,,,199183,19,2022-02-02_19h34.25.687,lexical_decision_task_DD,2021.2.3,MacIntel,60.04202942,,,,,,,,,,,,0.7758,1,,,,,,,,,,,,,,z,1,0.7758,,,,,,,,0.183165554,-0.229173991,0,0,0,,0,68,68,88,1,GLUSH,HB,old,z,./images/GLUSHHB.png,,,,,,,,,,,,,,,,,,,,,
,,,,,,,,,,,,,,,,,199183,19,2022-02-02_19h34.25.687,lexical_decision_task_DD,2021.2.3,MacIntel,60.04202942,,,,,,,,,,,,0.658,1,,,,,,,,,,,,,,z,1,0.658,,,,,,,,0.183165554,-0.229173991,0,0,0,,0,69,69,108,1,GRUET,C,old,z,./images/GRUET.png,,,,,,,,,,,,,,,,,,,,,
,,,,,,,,,,,,,,,,,199183,19,2022-02-02_19h34.25.687,lexical_decision_task_DD,2021.2.3,MacIntel,60.04202942,,,,,,,,,,,,0.6318,1,,,,,,,,,,,,,,m,1,0.6318,,,,,,,,0.183165554,-0.229173991,0,0,0,,0,70,70,65,1,FARMER,LB,old,m,./images/FARMERLB.png,,,,,,,,,,,,,,,,,,,,,
,,,,,,,,,,,,,,,,,199183,19,2022-02-02_19h34.25.687,lexical_decision_task_DD,2021.2.3,MacIntel,60.04202942,,,,,,,,,,,,0.7621,0,,,,,,,,,,,,,,z,0,0.7621,,,,,,,,0.183165554,-0.229173991,0,0,0,,0,71,71,19,1,DOUGH,HB,old,m,./images/DOUGHHB.png,,,,,,,,,,,,,,,,,,,,,
,,,,,,,,,,,,,,,,,199183,19,2022-02-02_19h34.25.687,lexical_decision_task_DD,2021.2.3,MacIntel,60.04202942,,,,,,,,,,,,0.997,1,,,,,,,,,,,,,,z,1,0.997,,,,,,,,0.183165554,-0.229173991,0,0,0,,0,72,72,142,1,PLASK,HB,old,z,./images/PLASKHB.png,,,,,,,,,,,,,,,,,,,,,
,,,,,,,,,,,,,,,,,199183,19,2022-02-02_19h34.25.687,lexical_decision_task_DD,2021.2.3,MacIntel,60.04202942,,,,,,,,,,,,0.9303,1,,,,,,,,,,,,,,z,1,0.9303,,,,,,,,0.183165554,-0.229173991,0,0,0,,0,73,73,87,1,TRING,C,old,z,./images/TRING.png,,,,,,,,,,,,,,,,,,,,,
,,,,,,,,,,,,,,,,,199183,19,2022-02-02_19h34.25.687,lexical_decision_task_DD,2021.2.3,MacIntel,60.04202942,,,,,,,,,,,,0.5961,1,,,,,,,,,,,,,,z,1,0.5961,,,,,,,,0.183165554,-0.229173991,0,0,0,,0,74,74,126,1,GUELS,C,old,z,./images/GUELS.png,,,,,,,,,,,,,,,,,,,,,
,,,,,,,,,,,,,,,,,199183,19,2022-02-02_19h34.25.687,lexical_decision_task_DD,2021.2.3,MacIntel,60.04202942,,,,,,,,,,,,0.6908,1,,,,,,,,,,,,,,m,1,0.6908,,,,,,,,0.183165554,-0.229173991,0,0,0,,0,75,75,7,1,PAINT,HB,old,m,./images/PAINTHB.png,,,,,,,,,,,,,,,,,,,,,
,,,,,,,,,,,,,,,,,199183,19,2022-02-02_19h34.25.687,lexical_decision_task_DD,2021.2.3,MacIntel,60.04202942,,,,,,,,,,,,0.9171,0,,,,,,,,,,,,,,m,0,0.9171,,,,,,,,0.183165554,-0.229173991,0,0,0,,0,76,76,110,1,CRUNK,LB,old,z,./images/CRUNKLB.png,,,,,,,,,,,,,,,,,,,,,
,,,,,,,,,,,,,,,,,199183,19,2022-02-02_19h34.25.687,lexical_decision_task_DD,2021.2.3,MacIntel,60.04202942,,,,,,,,,,,,0.6318,1,,,,,,,,,,,,,,z,1,0.6318,,,,,,,,0.183165554,-0.229173991,0,0,0,,0,77,77,135,1,JOODY,C,old,z,./images/JOODY.png,,,,,,,,,,,,,,,,,,,,,
,,,,,,,,,,,,,,,,,199183,19,2022-02-02_19h34.25.687,lexical_decision_task_DD,2021.2.3,MacIntel,60.04202942,,,,,,,,,,,,1.1171,1,,,,,,,,,,,,,,m,1,1.1171,,,,,,,,0.183165554,-0.229173991,0,0,0,,0,78,78,28,1,FALCON,HB,old,m,./images/FALCONHB.png,,,,,,,,,,,,,,,,,,,,,
,,,,,,,,,,,,,,,,,199183,19,2022-02-02_19h34.25.687,lexical_decision_task_DD,2021.2.3,MacIntel,60.04202942,,,,,,,,,,,,0.9568,0,,,,,,,,,,,,,,z,0,0.9568,,,,,,,,0.183165554,-0.229173991,0,0,0,,0,79,79,31,1,QUILL,HB,old,m,./images/QUILLHB.png,,,,,,,,,,,,,,,,,,,,,
,,,,,,,,,,,,,,,,,199183,19,2022-02-02_19h34.25.687,lexical_decision_task_DD,2021.2.3,MacIntel,60.04202942,,,,,,,,,,,,1.8911,1,,,,,,,,,,,,,,z,1,1.8911,,,,,,,,0.183165554,-0.229173991,0,0,0,,0,80,80,124,1,TUNCH,HB,old,z,./images/TUNCHHB.png,,,,,,,,,,,,,,,,,,,,,
,,,,,,,,,,,,,,,,,199183,19,2022-02-02_19h34.25.687,lexical_decision_task_DD,2021.2.3,MacIntel,60.04202942,,,,,,,,,,,,0.8458,1,,,,,,,,,,,,,,m,1,0.8458,,,,,,,,0.183165554,-0.229173991,0,0,0,,0,81,81,22,1,MELON,HB,old,m,./images/MELONHB.png,,,,,,,,,,,,,,,,,,,,,
,,,,,,,,,,,,,,,,,199183,19,2022-02-02_19h34.25.687,lexical_decision_task_DD,2021.2.3,MacIntel,60.04202942,,,,,,,,,,,,0.7135,1,,,,,,,,,,,,,,m,1,0.7135,,,,,,,,0.183165554,-0.229173991,0,0,0,,0,82,82,56,1,PACKET,LB,old,m,./images/PACKETLB.png,,,,,,,,,,,,,,,,,,,,,
,,,,,,,,,,,,,,,,,199183,19,2022-02-02_19h34.25.687,lexical_decision_task_DD,2021.2.3,MacIntel,60.04202942,,,,,,,,,,,,0.5322,1,,,,,,,,,,,,,,m,1,0.5322,,,,,,,,0.183165554,-0.229173991,0,0,0,space,0,83,83,62,1,PURSE,LB,old,m,./images/PURSELB.png,0.7565,,,,,,,,,,,,,,,,,,,,
,,,,,,,,,,,,,,,,,199183,19,2022-02-02_19h34.25.687,lexical_decision_task_DD,2021.2.3,MacIntel,60.04202942,,,,,,,,,,,,0.6623,1,,,,,,,,,,,,,,z,1,0.6623,,,,,,,,0.183165554,-0.229173991,0,0,0,,0,84,84,158,1,EGECT,LB,old,z,./images/EGECTLB.png,,,,,,,,,,,,,,,,,,,,,
,,,,,,,,,,,,,,,,,199183,19,2022-02-02_19h34.25.687,lexical_decision_task_DD,2021.2.3,MacIntel,60.04202942,,,,,,,,,,,,0.5736,1,,,,,,,,,,,,,,z,1,0.5736,,,,,,,,0.183165554,-0.229173991,0,0,0,,0,85,85,141,1,PLEET,C,old,z,./images/PLEET.png,,,,,,,,,,,,,,,,,,,,,
,,,,,,,,,,,,,,,,,199183,19,2022-02-02_19h34.25.687,lexical_decision_task_DD,2021.2.3,MacIntel,60.04202942,,,,,,,,,,,,2.2428,1,,,,,,,,,,,,,,z,1,2.2428,,,,,,,,0.183165554,-0.229173991,0,0,0,,0,86,86,127,1,NINDY,HB,old,z,./images/NINDYHB.png,,,,,,,,,,,,,,,,,,,,,
,,,,,,,,,,,,,,,,,199183,19,2022-02-02_19h34.25.687,lexical_decision_task_DD,2021.2.3,MacIntel,60.04202942,,,,,,,,,,,,0.6428,1,,,,,,,,,,,,,,m,1,0.6428,,,,,,,,0.183165554,-0.229173991,0,0,0,,0,87,87,15,1,GREASE,C,old,m,./images/GREASE.png,,,,,,,,,,,,,,,,,,,,,
,,,,,,,,,,,,,,,,,199183,19,2022-02-02_19h34.25.687,lexical_decision_task_DD,2021.2.3,MacIntel,60.04202942,,,,,,,,,,,,0.6917,1,,,,,,,,,,,,,,z,1,0.6917,,,,,,,,0.183165554,-0.229173991,0,0,0,,0,88,88,129,1,PRANS,C,old,z,./images/PRANS.png,,,,,,,,,,,,,,,,,,,,,
,,,,,,,,,,,,,,,,,199183,19,2022-02-02_19h34.25.687,lexical_decision_task_DD,2021.2.3,MacIntel,60.04202942,,,,,,,,,,,,0.5127,0,,,,,,,,,,,,,,z,0,0.5127,,,,,,,,0.183165554,-0.229173991,0,0,0,,0,89,89,35,1,PEACH,LB,old,m,./images/PEACHLB.png,,,,,,,,,,,,,,,,,,,,,
,,,,,,,,,,,,,,,,,199183,19,2022-02-02_19h34.25.687,lexical_decision_task_DD,2021.2.3,MacIntel,60.04202942,,,,,,,,,,,,0.5461,1,,,,,,,,,,,,,,m,1,0.5461,,,,,,,,0.183165554,-0.229173991,0,0,0,,0,90,90,38,1,LADDER,LB,old,m,./images/LADDERLB.png,,,,,,,,,,,,,,,,,,,,,
,,,,,,,,,,,,,,,,,199183,19,2022-02-02_19h34.25.687,lexical_decision_task_DD,2021.2.3,MacIntel,60.04202942,,,,,,,,,,,,0.682,1,,,,,,,,,,,,,,z,1,0.682,,,,,,,,0.183165554,-0.229173991,0,0,0,,0,91,91,98,1,BAMPS,LB,old,z,./images/BAMPSLB.png,,,,,,,,,,,,,,,,,,,,,
,,,,,,,,,,,,,,,,,199183,19,2022-02-02_19h34.25.687,lexical_decision_task_DD,2021.2.3,MacIntel,60.04202942,,,,,,,,,,,,0.8642,0,,,,,,,,,,,,,,m,0,0.8642,,,,,,,,0.183165554,-0.229173991,0,0,0,,0,92,92,100,1,DRIBS,HB,old,z,./images/DRIBSHB.png,,,,,,,,,,,,,,,,,,,,,
,,,,,,,,,,,,,,,,,199183,19,2022-02-02_19h34.25.687,lexical_decision_task_DD,2021.2.3,MacIntel,60.04202942,,,,,,,,,,,,0.9116,1,,,,,,,,,,,,,,z,1,0.9116,,,,,,,,0.183165554,-0.229173991,0,0,0,,0,93,93,139,1,BLEAR,HB,old,z,./images/BLEARHB.png,,,,,,,,,,,,,,,,,,,,,
,,,,,,,,,,,,,,,,,199183,19,2022-02-02_19h34.25.687,lexical_decision_task_DD,2021.2.3,MacIntel,60.04202942,,,,,,,,,,,,0.7286,1,,,,,,,,,,,,,,z,1,0.7286,,,,,,,,0.183165554,-0.229173991,0,0,0,,0,94,94,167,1,ZONET,LB,old,z,./images/ZONETLB.png,,,,,,,,,,,,,,,,,,,,,
,,,,,,,,,,,,,,,,,199183,19,2022-02-02_19h34.25.687,lexical_decision_task_DD,2021.2.3,MacIntel,60.04202942,,,,,,,,,,,,1.4899,1,,,,,,,,,,,,,,z,1,1.4899,,,,,,,,0.183165554,-0.229173991,0,0,0,,0,95,95,160,1,VEETS,HB,old,z,./images/VEETSHB.png,,,,,,,,,,,,,,,,,,,,,
,,,,,,,,,,,,,,,,,199183,19,2022-02-02_19h34.25.687,lexical_decision_task_DD,2021.2.3,MacIntel,60.04202942,,,,,,,,,,,,0.5422,1,,,,,,,,,,,,,,m,1,0.5422,,,,,,,,0.183165554,-0.229173991,0,0,0,,0,96,96,3,1,FINGER,C,old,m,./images/FINGER.png,,,,,,,,,,,,,,,,,,,,,
,,,,,,,,,,,,,,,,,199183,19,2022-02-02_19h34.25.687,lexical_decision_task_DD,2021.2.3,MacIntel,60.04202942,,,,,,,,,,,,0.7402,1,,,,,,,,,,,,,,z,1,0.7402,,,,,,,,0.183165554,-0.229173991,0,0,0,,0,97,97,156,1,HIXES,C,old,z,./images/HIXES.png,,,,,,,,,,,,,,,,,,,,,
,,,,,,,,,,,,,,,,,199183,19,2022-02-02_19h34.25.687,lexical_decision_task_DD,2021.2.3,MacIntel,60.04202942,,,,,,,,,,,,1.0954,1,,,,,,,,,,,,,,z,1,1.0954,,,,,,,,0.183165554,-0.229173991,0,0,0,,0,98,98,103,1,FLORT,HB,old,z,./images/FLORTHB.png,,,,,,,,,,,,,,,,,,,,,
,,,,,,,,,,,,,,,,,199183,19,2022-02-02_19h34.25.687,lexical_decision_task_DD,2021.2.3,MacIntel,60.04202942,,,,,,,,,,,,0.5918,1,,,,,,,,,,,,,,m,1,0.5918,,,,,,,,0.183165554,-0.229173991,0,0,0,,0,99,99,66,1,SWEAT,C,old,m,./images/SWEAT.png,,,,,,,,,,,,,,,,,,,,,
,,,,,,,,,,,,,,,,,199183,19,2022-02-02_19h34.25.687,lexical_decision_task_DD,2021.2.3,MacIntel,60.04202942,,,,,,,,,,,,1.1958,1,,,,,,,,,,,,,,m,1,1.1958,,,,,,,,0.183165554,-0.229173991,0,0,0,,0,100,100,4,1,MUSCLE,HB,old,m,./images/MUSCLEHB.png,,,,,,,,,,,,,,,,,,,,,
,,,,,,,,,,,,,,,,,199183,19,2022-02-02_19h34.25.687,lexical_decision_task_DD,2021.2.3,MacIntel,60.04202942,,,,,,,,,,,,0.6161,0,,,,,,,,,,,,,,z,0,0.6161,,,,,,,,0.183165554,-0.229173991,0,0,0,,0,101,101,18,1,JAGUAR,C,old,m,./images/JAGUAR.png,,,,,,,,,,,,,,,,,,,,,
,,,,,,,,,,,,,,,,,199183,19,2022-02-02_19h34.25.687,lexical_decision_task_DD,2021.2.3,MacIntel,60.04202942,,,,,,,,,,,,0.9917,1,,,,,,,,,,,,,,z,1,0.9917,,,,,,,,0.183165554,-0.229173991,0,0,0,,0,102,102,159,1,CUDDY,C,old,z,./images/CUDDY.png,,,,,,,,,,,,,,,,,,,,,
,,,,,,,,,,,,,,,,,199183,19,2022-02-02_19h34.25.687,lexical_decision_task_DD,2021.2.3,MacIntel,60.04202942,,,,,,,,,,,,0.9802,1,,,,,,,,,,,,,,z,1,0.9802,,,,,,,,0.183165554,-0.229173991,0,0,0,,0,103,103,118,1,BAVEL,HB,old,z,./images/BAVELHB.png,,,,,,,,,,,,,,,,,,,,,
,,,,,,,,,,,,,,,,,199183,19,2022-02-02_19h34.25.687,lexical_decision_task_DD,2021.2.3,MacIntel,60.04202942,,,,,,,,,,,,0.8309,1,,,,,,,,,,,,,,z,1,0.8309,,,,,,,,0.183165554,-0.229173991,0,0,0,,0,104,104,89,1,DRIEK,LB,old,z,./images/DRIEKLB.png,,,,,,,,,,,,,,,,,,,,,
,,,,,,,,,,,,,,,,,199183,19,2022-02-02_19h34.25.687,lexical_decision_task_DD,2021.2.3,MacIntel,60.04202942,,,,,,,,,,,,0.6955,1,,,,,,,,,,,,,,z,1,0.6955,,,,,,,,0.183165554,-0.229173991,0,0,0,,0,105,105,138,1,PLICE,C,old,z,./images/PLICE.png,,,,,,,,,,,,,,,,,,,,,
,,,,,,,,,,,,,,,,,199183,19,2022-02-02_19h34.25.687,lexical_decision_task_DD,2021.2.3,MacIntel,60.04202942,,,,,,,,,,,,1.7102,1,,,,,,,,,,,,,,z,1,1.7102,,,,,,,,0.183165554,-0.229173991,0,0,0,,0,106,106,154,1,THINT,HB,old,z,./images/THINTHB.png,,,,,,,,,,,,,,,,,,,,,
,,,,,,,,,,,,,,,,,199183,19,2022-02-02_19h34.25.687,lexical_decision_task_DD,2021.2.3,MacIntel,60.04202942,,,,,,,,,,,,0.5249,1,,,,,,,,,,,,,,m,1,0.5249,,,,,,,,0.183165554,-0.229173991,0,0,0,,0,107,107,42,1,FOLDER,C,old,m,./images/FOLDER.png,,,,,,,,,,,,,,,,,,,,,
,,,,,,,,,,,,,,,,,199183,19,2022-02-02_19h34.25.687,lexical_decision_task_DD,2021.2.3,MacIntel,60.04202942,,,,,,,,,,,,0.9248,1,,,,,,,,,,,,,,m,1,0.9248,,,,,,,,0.183165554,-0.229173991,0,0,0,,0,108,108,52,1,BANNER,HB,old,m,./images/BANNERHB.png,,,,,,,,,,,,,,,,,,,,,
,,,,,,,,,,,,,,,,,199183,19,2022-02-02_19h34.25.687,lexical_decision_task_DD,2021.2.3,MacIntel,60.04202942,,,,,,,,,,,,0.7055,1,,,,,,,,,,,,,,z,1,0.7055,,,,,,,,0.183165554,-0.229173991,0,0,0,,0,109,109,162,1,LEICH,C,old,z,./images/LEICH.png,,,,,,,,,,,,,,,,,,,,,
,,,,,,,,,,,,,,,,,199183,19,2022-02-02_19h34.25.687,lexical_decision_task_DD,2021.2.3,MacIntel,60.04202942,,,,,,,,,,,,0.911,1,,,,,,,,,,,,,,m,1,0.911,,,,,,,,0.183165554,-0.229173991,0,0,0,,0,110,110,79,1,CRUST,HB,old,m,./images/CRUSTHB.png,,,,,,,,,,,,,,,,,,,,,
,,,,,,,,,,,,,,,,,199183,19,2022-02-02_19h34.25.687,lexical_decision_task_DD,2021.2.3,MacIntel,60.04202942,,,,,,,,,,,,0.6562,1,,,,,,,,,,,,,,z,1,0.6562,,,,,,,,0.183165554,-0.229173991,0,0,0,,0,111,111,111,1,HOSSE,C,old,z,./images/HOSSE.png,,,,,,,,,,,,,,,,,,,,,
,,,,,,,,,,,,,,,,,199183,19,2022-02-02_19h34.25.687,lexical_decision_task_DD,2021.2.3,MacIntel,60.04202942,,,,,,,,,,,,1.0333,1,,,,,,,,,,,,,,z,1,1.0333,,,,,,,,0.183165554,-0.229173991,0,0,0,,0,112,112,112,1,MYING,HB,old,z,./images/MYINGHB.png,,,,,,,,,,,,,,,,,,,,,
,,,,,,,,,,,,,,,,,199183,19,2022-02-02_19h34.25.687,lexical_decision_task_DD,2021.2.3,MacIntel,60.04202942,,,,,,,,,,,,0.6681,1,,,,,,,,,,,,,,z,1,0.6681,,,,,,,,0.183165554,-0.229173991,0,0,0,,0,113,113,132,1,SCIFF,C,old,z,./images/SCIFF.png,,,,,,,,,,,,,,,,,,,,,
,,,,,,,,,,,,,,,,,199183,19,2022-02-02_19h34.25.687,lexical_decision_task_DD,2021.2.3,MacIntel,60.04202942,,,,,,,,,,,,0.7988,1,,,,,,,,,,,,,,m,1,0.7988,,,,,,,,0.183165554,-0.229173991,0,0,0,,0,114,114,46,1,PEARL,HB,old,m,./images/PEARLHB.png,,,,,,,,,,,,,,,,,,,,,
,,,,,,,,,,,,,,,,,199183,19,2022-02-02_19h34.25.687,lexical_decision_task_DD,2021.2.3,MacIntel,60.04202942,,,,,,,,,,,,1.5537,1,,,,,,,,,,,,,,z,1,1.5537,,,,,,,,0.183165554,-0.229173991,0,0,0,,0,115,115,97,1,CHIDS,HB,old,z,./images/CHIDSHB.png,,,,,,,,,,,,,,,,,,,,,
,,,,,,,,,,,,,,,,,199183,19,2022-02-02_19h34.25.687,lexical_decision_task_DD,2021.2.3,MacIntel,60.04202942,,,,,,,,,,,,0.4896,1,,,,,,,,,,,,,,m,1,0.4896,,,,,,,,0.183165554,-0.229173991,0,0,0,,0,116,116,57,1,MOOSE,C,old,m,./images/MOOSE.png,,,,,,,,,,,,,,,,,,,,,
,,,,,,,,,,,,,,,,,199183,19,2022-02-02_19h34.25.687,lexical_decision_task_DD,2021.2.3,MacIntel,60.04202942,,,,,,,,,,,,1.4968,1,,,,,,,,,,,,,,m,1,1.4968,,,,,,,,0.183165554,-0.229173991,0,0,0,,0,117,117,73,1,SNACK,HB,old,m,./images/SNACKHB.png,,,,,,,,,,,,,,,,,,,,,
,,,,,,,,,,,,,,,,,199183,19,2022-02-02_19h34.25.687,lexical_decision_task_DD,2021.2.3,MacIntel,60.04202942,,,,,,,,,,,,0.6767,1,,,,,,,,,,,,,,z,1,0.6767,,,,,,,,0.183165554,-0.229173991,0,0,0,,0,118,118,143,1,MONGS,LB,old,z,./images/MONGSLB.png,,,,,,,,,,,,,,,,,,,,,
,,,,,,,,,,,,,,,,,199183,19,2022-02-02_19h34.25.687,lexical_decision_task_DD,2021.2.3,MacIntel,60.04202942,,,,,,,,,,,,0.9153,1,,,,,,,,,,,,,,z,1,0.9153,,,,,,,,0.183165554,-0.229173991,0,0,0,,0,119,119,117,1,STEEG,C,old,z,./images/STEEG.png,,,,,,,,,,,,,,,,,,,,,
,,,,,,,,,,,,,,,,,199183,19,2022-02-02_19h34.25.687,lexical_decision_task_DD,2021.2.3,MacIntel,60.04202942,,,,,,,,,,,,0.5986,1,,,,,,,,,,,,,,m,1,0.5986,,,,,,,,0.183165554,-0.229173991,0,0,0,,0,120,120,14,1,PICKLE,LB,old,m,./images/PICKLELB.png,,,,,,,,,,,,,,,,,,,,,
,,,,,,,,,,,,,,,,,199183,19,2022-02-02_19h34.25.687,lexical_decision_task_DD,2021.2.3,MacIntel,60.04202942,,,,,,,,,,,,0.5075,1,,,,,,,,,,,,,,m,1,0.5075,,,,,,,,0.183165554,-0.229173991,0,0,0,,0,121,121,2,1,BEARD,LB,old,m,./images/BEARDLB.png,,,,,,,,,,,,,,,,,,,,,
,,,,,,,,,,,,,,,,,199183,19,2022-02-02_19h34.25.687,lexical_decision_task_DD,2021.2.3,MacIntel,60.04202942,,,,,,,,,,,,1.0779,1,,,,,,,,,,,,,,z,1,1.0779,,,,,,,,0.183165554,-0.229173991,0,0,0,,0,122,122,91,1,SHENS,HB,old,z,./images/SHENSHB.png,,,,,,,,,,,,,,,,,,,,,
,,,,,,,,,,,,,,,,,199183,19,2022-02-02_19h34.25.687,lexical_decision_task_DD,2021.2.3,MacIntel,60.04202942,,,,,,,,,,,,0.7157,1,,,,,,,,,,,,,,z,1,0.7157,,,,,,,,0.183165554,-0.229173991,0,0,0,,0,123,123,134,1,TROSS,LB,old,z,./images/TROSSLB.png,,,,,,,,,,,,,,,,,,,,,
,,,,,,,,,,,,,,,,,199183,19,2022-02-02_19h34.25.687,lexical_decision_task_DD,2021.2.3,MacIntel,60.04202942,,,,,,,,,,,,0.9116,1,,,,,,,,,,,,,,m,1,0.9116,,,,,,,,0.183165554,-0.229173991,0,0,0,,0,124,124,49,1,DRUMS,HB,old,m,./images/DRUMSHB.png,,,,,,,,,,,,,,,,,,,,,
,,,,,,,,,,,,,,,,,199183,19,2022-02-02_19h34.25.687,lexical_decision_task_DD,2021.2.3,MacIntel,60.04202942,,,,,,,,,,,,0.5477,1,,,,,,,,,,,,,,m,1,0.5477,,,,,,,,0.183165554,-0.229173991,0,0,0,space,0,125,125,6,1,SQUARE,C,old,m,./images/SQUARE.png,0.9502,,,,,,,,,,,,,,,,,,,,
,,,,,,,,,,,,,,,,,199183,19,2022-02-02_19h34.25.687,lexical_decision_task_DD,2021.2.3,MacIntel,60.04202942,,,,,,,,,,,,0.6149,1,,,,,,,,,,,,,,z,1,0.6149,,,,,,,,0.183165554,-0.229173991,0,0,0,,0,126,126,137,1,JOOST,LB,old,z,./images/JOOSTLB.png,,,,,,,,,,,,,,,,,,,,,
,,,,,,,,,,,,,,,,,199183,19,2022-02-02_19h34.25.687,lexical_decision_task_DD,2021.2.3,MacIntel,60.04202942,,,,,,,,,,,,0.7461,1,,,,,,,,,,,,,,m,1,0.7461,,,,,,,,0.183165554,-0.229173991,0,0,0,,0,127,127,50,1,MALLET,LB,old,m,./images/MALLETLB.png,,,,,,,,,,,,,,,,,,,,,
,,,,,,,,,,,,,,,,,199183,19,2022-02-02_19h34.25.687,lexical_decision_task_DD,2021.2.3,MacIntel,60.04202942,,,,,,,,,,,,0.8608,1,,,,,,,,,,,,,,z,1,0.8608,,,,,,,,0.183165554,-0.229173991,0,0,0,,0,128,128,164,1,SGREW,LB,old,z,./images/SGREWLB.png,,,,,,,,,,,,,,,,,,,,,
,,,,,,,,,,,,,,,,,199183,19,2022-02-02_19h34.25.687,lexical_decision_task_DD,2021.2.3,MacIntel,60.04202942,,,,,,,,,,,,0.6429,1,,,,,,,,,,,,,,z,1,0.6429,,,,,,,,0.183165554,-0.229173991,0,0,0,,0,129,129,96,1,KEAMS,C,old,z,./images/KEAMS.png,,,,,,,,,,,,,,,,,,,,,
,,,,,,,,,,,,,,,,,199183,19,2022-02-02_19h34.25.687,lexical_decision_task_DD,2021.2.3,MacIntel,60.04202942,,,,,,,,,,,,0.864,1,,,,,,,,,,,,,,m,1,0.864,,,,,,,,0.183165554,-0.229173991,0,0,0,,0,130,130,17,1,SKIING,LB,old,m,./images/SKIINGLB.png,,,,,,,,,,,,,,,,,,,,,
,,,,,,,,,,,,,,,,,199183,19,2022-02-02_19h34.25.687,lexical_decision_task_DD,2021.2.3,MacIntel,60.04202942,,,,,,,,,,,,0.6983,1,,,,,,,,,,,,,,m,1,0.6983,,,,,,,,0.183165554,-0.229173991,0,0,0,,0,131,131,23,1,WALRUS,LB,old,m,./images/WALRUSLB.png,,,,,,,,,,,,,,,,,,,,,
,,,,,,,,,,,,,,,,,199183,19,2022-02-02_19h34.25.687,lexical_decision_task_DD,2021.2.3,MacIntel,60.04202942,,,,,,,,,,,,0.6396,1,,,,,,,,,,,,,,m,1,0.6396,,,,,,,,0.183165554,-0.229173991,0,0,0,,0,132,132,11,1,BONNET,LB,old,m,./images/BONNETLB.png,,,,,,,,,,,,,,,,,,,,,
,,,,,,,,,,,,,,,,,199183,19,2022-02-02_19h34.25.687,lexical_decision_task_DD,2021.2.3,MacIntel,60.04202942,,,,,,,,,,,,1.0745,1,,,,,,,,,,,,,,z,1,1.0745,,,,,,,,0.183165554,-0.229173991,0,0,0,,0,133,133,130,1,CRILL,HB,old,z,./images/CRILLHB.png,,,,,,,,,,,,,,,,,,,,,
,,,,,,,,,,,,,,,,,199183,19,2022-02-02_19h34.25.687,lexical_decision_task_DD,2021.2.3,MacIntel,60.04202942,,,,,,,,,,,,0.6808,1,,,,,,,,,,,,,,z,1,0.6808,,,,,,,,0.183165554,-0.229173991,0,0,0,,0,134,134,113,1,LINEW,LB,old,z,./images/LINEWLB.png,,,,,,,,,,,,,,,,,,,,,
,,,,,,,,,,,,,,,,,199183,19,2022-02-02_19h34.25.687,lexical_decision_task_DD,2021.2.3,MacIntel,60.04202942,,,,,,,,,,,,0.6576,1,,,,,,,,,,,,,,m,1,0.6576,,,,,,,,0.183165554,-0.229173991,0,0,0,,0,135,135,21,1,KIDNEY,C,old,m,./images/KIDNEY.png,,,,,,,,,,,,,,,,,,,,,
,,,,,,,,,,,,,,,,,199183,19,2022-02-02_19h34.25.687,lexical_decision_task_DD,2021.2.3,MacIntel,60.04202942,,,,,,,,,,,,0.695,1,,,,,,,,,,,,,,z,1,0.695,,,,,,,,0.183165554,-0.229173991,0,0,0,,0,136,136,107,1,FASKS,LB,old,z,./images/FASKSLB.png,,,,,,,,,,,,,,,,,,,,,
,,,,,,,,,,,,,,,,,199183,19,2022-02-02_19h34.25.687,lexical_decision_task_DD,2021.2.3,MacIntel,60.04202942,,,,,,,,,,,,0.6579,1,,,,,,,,,,,,,,z,1,0.6579,,,,,,,,0.183165554,-0.229173991,0,0,0,,0,137,137,123,1,SEDGE,C,old,z,./images/SEDGE.png,,,,,,,,,,,,,,,,,,,,,
,,,,,,,,,,,,,,,,,199183,19,2022-02-02_19h34.25.687,lexical_decision_task_DD,2021.2.3,MacIntel,60.04202942,,,,,,,,,,,,0.6599,1,,,,,,,,,,,,,,z,1,0.6599,,,,,,,,0.183165554,-0.229173991,0,0,0,,0,138,138,144,1,NAIRY,C,old,z,./images/NAIRY.png,,,,,,,,,,,,,,,,,,,,,
,,,,,,,,,,,,,,,,,199183,19,2022-02-02_19h34.25.687,lexical_decision_task_DD,2021.2.3,MacIntel,60.04202942,,,,,,,,,,,,0.7778,1,,,,,,,,,,,,,,m,1,0.7778,,,,,,,,0.183165554,-0.229173991,0,0,0,,0,139,139,72,1,NOOSE,C,old,m,./images/NOOSE.png,,,,,,,,,,,,,,,,,,,,,
,,,,,,,,,,,,,,,,,199183,19,2022-02-02_19h34.25.687,lexical_decision_task_DD,2021.2.3,MacIntel,60.04202942,,,,,,,,,,,,0.6584,1,,,,,,,,,,,,,,z,1,0.6584,,,,,,,,0.183165554,-0.229173991,0,0,0,,0,140,140,149,1,VEASE,LB,old,z,./images/VEASELB.png,,,,,,,,,,,,,,,,,,,,,
,,,,,,,,,,,,,,,,,199183,19,2022-02-02_19h34.25.687,lexical_decision_task_DD,2021.2.3,MacIntel,60.04202942,,,,,,,,,,,,0.7283,1,,,,,,,,,,,,,,m,1,0.7283,,,,,,,,0.183165554,-0.229173991,0,0,0,,0,141,141,78,1,LITTER,C,old,m,./images/LITTER.png,,,,,,,,,,,,,,,,,,,,,
,,,,,,,,,,,,,,,,,199183,19,2022-02-02_19h34.25.687,lexical_decision_task_DD,2021.2.3,MacIntel,60.04202942,,,,,,,,,,,,0.6298,1,,,,,,,,,,,,,,m,1,0.6298,,,,,,,,0.183165554,-0.229173991,0,0,0,,0,142,142,80,1,WEASEL,LB,old,m,./images/WEASELLB.png,,,,,,,,,,,,,,,,,,,,,
,,,,,,,,,,,,,,,,,199183,19,2022-02-02_19h34.25.687,lexical_decision_task_DD,2021.2.3,MacIntel,60.04202942,,,,,,,,,,,,0.9511,1,,,,,,,,,,,,,,m,1,0.9511,,,,,,,,0.183165554,-0.229173991,0,0,0,,0,143,143,40,1,SWING,HB,old,m,./images/SWINGHB.png,,,,,,,,,,,,,,,,,,,,,
,,,,,,,,,,,,,,,,,199183,19,2022-02-02_19h34.25.687,lexical_decision_task_DD,2021.2.3,MacIntel,60.04202942,,,,,,,,,,,,0.7603,1,,,,,,,,,,,,,,m,1,0.7603,,,,,,,,0.183165554,-0.229173991,0,0,0,,0,144,144,13,1,MOTOR,HB,old,m,./images/MOTORHB.png,,,,,,,,,,,,,,,,,,,,,
,,,,,,,,,,,,,,,,,199183,19,2022-02-02_19h34.25.687,lexical_decision_task_DD,2021.2.3,MacIntel,60.04202942,,,,,,,,,,,,0.5953,1,,,,,,,,,,,,,,m,1,0.5953,,,,,,,,0.183165554,-0.229173991,0,0,0,,0,145,145,33,1,MAGGOT,C,old,m,./images/MAGGOT.png,,,,,,,,,,,,,,,,,,,,,
,,,,,,,,,,,,,,,,,199183,19,2022-02-02_19h34.25.687,lexical_decision_task_DD,2021.2.3,MacIntel,60.04202942,,,,,,,,,,,,0.6848,1,,,,,,,,,,,,,,z,1,0.6848,,,,,,,,0.183165554,-0.229173991,0,0,0,,0,146,146,131,1,NACES,LB,old,z,./images/NACESLB.png,,,,,,,,,,,,,,,,,,,,,
,,,,,,,,,,,,,,,,,199183,19,2022-02-02_19h34.25.687,lexical_decision_task_DD,2021.2.3,MacIntel,60.04202942,,,,,,,,,,,,0.6445,1,,,,,,,,,,,,,,z,1,0.6445,,,,,,,,0.183165554,-0.229173991,0,0,0,,0,147,147,152,1,FRAIN,LB,old,z,./images/FRAINLB.png,,,,,,,,,,,,,,,,,,,,,
,,,,,,,,,,,,,,,,,199183,19,2022-02-02_19h34.25.687,lexical_decision_task_DD,2021.2.3,MacIntel,60.04202942,,,,,,,,,,,,0.7493,1,,,,,,,,,,,,,,z,1,0.7493,,,,,,,,0.183165554,-0.229173991,0,0,0,,0,148,148,153,1,CLUPS,C,old,z,./images/CLUPS.png,,,,,,,,,,,,,,,,,,,,,
,,,,,,,,,,,,,,,,,199183,19,2022-02-02_19h34.25.687,lexical_decision_task_DD,2021.2.3,MacIntel,60.04202942,,,,,,,,,,,,0.7426,1,,,,,,,,,,,,,,z,1,0.7426,,,,,,,,0.183165554,-0.229173991,0,0,0,,0,149,149,119,1,PAFER,LB,old,z,./images/PAFERLB.png,,,,,,,,,,,,,,,,,,,,,
,,,,,,,,,,,,,,,,,199183,19,2022-02-02_19h34.25.687,lexical_decision_task_DD,2021.2.3,MacIntel,60.04202942,,,,,,,,,,,,1.0768,1,,,,,,,,,,,,,,z,1,1.0768,,,,,,,,0.183165554,-0.229173991,0,0,0,,0,150,150,145,1,LAMEL,HB,old,z,./images/LAMELHB.png,,,,,,,,,,,,,,,,,,,,,
,,,,,,,,,,,,,,,,,199183,19,2022-02-02_19h34.25.687,lexical_decision_task_DD,2021.2.3,MacIntel,60.04202942,,,,,,,,,,,,0.5436,1,,,,,,,,,,,,,,m,1,0.5436,,,,,,,,0.183165554,-0.229173991,0,0,0,,0,151,151,26,1,SMOKER,LB,old,m,./images/SMOKERLB.png,,,,,,,,,,,,,,,,,,,,,
,,,,,,,,,,,,,,,,,199183,19,2022-02-02_19h34.25.687,lexical_decision_task_DD,2021.2.3,MacIntel,60.04202942,,,,,,,,,,,,0.7283,0,,,,,,,,,,,,,,z,0,0.7283,,,,,,,,0.183165554,-0.229173991,0,0,0,,0,152,152,39,1,SHELF,C,old,m,./images/SHELF.png,,,,,,,,,,,,,,,,,,,,,
,,,,,,,,,,,,,,,,,199183,19,2022-02-02_19h34.25.687,lexical_decision_task_DD,2021.2.3,MacIntel,60.04202942,,,,,,,,,,,,0.8458,1,,,,,,,,,,,,,,z,1,0.8458,,,,,,,,0.183165554,-0.229173991,0,0,0,,0,153,153,125,1,MOOKY,LB,old,z,./images/MOOKYLB.png,,,,,,,,,,,,,,,,,,,,,
,,,,,,,,,,,,,,,,,199183,19,2022-02-02_19h34.25.687,lexical_decision_task_DD,2021.2.3,MacIntel,60.04202942,,,,,,,,,,,,0.6123,1,,,,,,,,,,,,,,z,1,0.6123,,,,,,,,0.183165554,-0.229173991,0,0,0,,0,154,154,105,1,MOKER,C,old,z,./images/MOKER.png,,,,,,,,,,,,,,,,,,,,,
,,,,,,,,,,,,,,,,,199183,19,2022-02-02_19h34.25.687,lexical_decision_task_DD,2021.2.3,MacIntel,60.04202942,,,,,,,,,,,,0.6303,1,,,,,,,,,,,,,,m,1,0.6303,,,,,,,,0.183165554,-0.229173991,0,0,0,,0,155,155,71,1,PIMPLE,LB,old,m,./images/PIMPLELB.png,,,,,,,,,,,,,,,,,,,,,
,,,,,,,,,,,,,,,,,199183,19,2022-02-02_19h34.25.687,lexical_decision_task_DD,2021.2.3,MacIntel,60.04202942,,,,,,,,,,,,0.6285,1,,,,,,,,,,,,,,m,1,0.6285,,,,,,,,0.183165554,-0.229173991,0,0,0,,0,156,156,29,1,CRUMB,LB,old,m,./images/CRUMBLB.png,,,,,,,,,,,,,,,,,,,,,
,,,,,,,,,,,,,,,,,199183,19,2022-02-02_19h34.25.687,lexical_decision_task_DD,2021.2.3,MacIntel,60.04202942,,,,,,,,,,,,0.6964,1,,,,,,,,,,,,,,z,1,0.6964,,,,,,,,0.183165554,-0.229173991,0,0,0,,0,157,157,155,1,CANGY,LB,old,z,./images/CANGYLB.png,,,,,,,,,,,,,,,,,,,,,
,,,,,,,,,,,,,,,,,199183,19,2022-02-02_19h34.25.687,lexical_decision_task_DD,2021.2.3,MacIntel,60.04202942,,,,,,,,,,,,0.6807,1,,,,,,,,,,,,,,m,1,0.6807,,,,,,,,0.183165554,-0.229173991,0,0,0,,0,158,158,30,1,STORM,C,old,m,./images/STORM.png,,,,,,,,,,,,,,,,,,,,,
,,,,,,,,,,,,,,,,,199183,19,2022-02-02_19h34.25.687,lexical_decision_task_DD,2021.2.3,MacIntel,60.04202942,,,,,,,,,,,,0.7331,1,,,,,,,,,,,,,,m,1,0.7331,,,,,,,,0.183165554,-0.229173991,0,0,0,,0,159,159,68,1,TORCH,LB,old,m,./images/TORCHLB.png,,,,,,,,,,,,,,,,,,,,,
,,,,,,,,,,,,,,,,,199183,19,2022-02-02_19h34.25.687,lexical_decision_task_DD,2021.2.3,MacIntel,60.04202942,,,,,,,,,,,,1.22,1,,,,,,,,,,,,,,z,1,1.22,,,,,,,,0.183165554,-0.229173991,0,0,0,,0,160,160,94,1,BLANS,HB,old,z,./images/BLANSHB.png,,,,,,,,,,,,,,,,,,,,,
,,,,,,,,,,,,,,,,,199183,19,2022-02-02_19h34.25.687,lexical_decision_task_DD,2021.2.3,MacIntel,60.04202942,,,,,,,,,,,,1.5647,0,,,,,,,,,,,,,,z,0,1.5647,,,,,,,,0.183165554,-0.229173991,0,0,0,,0,161,161,16,1,PENCE,HB,old,m,./images/PENCEHB.png,,,,,,,,,,,,,,,,,,,,,
,,,,,,,,,,,,,,,,,199183,19,2022-02-02_19h34.25.687,lexical_decision_task_DD,2021.2.3,MacIntel,60.04202942,,,,,,,,,,,,0.9752,1,,,,,,,,,,,,,,m,1,0.9752,,,,,,,,0.183165554,-0.229173991,0,0,0,,0,162,162,10,1,BELLY,HB,old,m,./images/BELLYHB.png,,,,,,,,,,,,,,,,,,,,,
,,,,,,,,,,,,,,,,,199183,19,2022-02-02_19h34.25.687,lexical_decision_task_DD,2021.2.3,MacIntel,60.04202942,,,,,,,,,,,,0.7772,1,,,,,,,,,,,,,,m,1,0.7772,,,,,,,,0.183165554,-0.229173991,0,0,0,,0,163,163,64,1,JELLY,HB,old,m,./images/JELLYHB.png,,,,,,,,,,,,,,,,,,,,,
,,,,,,,,,,,,,,,,,199183,19,2022-02-02_19h34.25.687,lexical_decision_task_DD,2021.2.3,MacIntel,60.04202942,,,,,,,,,,,,1.5643,1,,,,,,,,,,,,,,z,1,1.5643,,,,,,,,0.183165554,-0.229173991,0,0,0,,0,164,164,85,1,CHULK,HB,old,z,./images/CHULKHB.png,,,,,,,,,,,,,,,,,,,,,
,,,,,,,,,,,,,,,,,199183,19,2022-02-02_19h34.25.687,lexical_decision_task_DD,2021.2.3,MacIntel,60.04202942,,,,,,,,,,,,0.6563,1,,,,,,,,,,,,,,m,1,0.6563,,,,,,,,0.183165554,-0.229173991,0,0,0,,0,165,165,51,1,ONION,C,old,m,./images/ONION.png,,,,,,,,,,,,,,,,,,,,,
,,,,,,,,,,,,,,,,,199183,19,2022-02-02_19h34.25.687,lexical_decision_task_DD,2021.2.3,MacIntel,60.04202942,,,,,,,,,,,,0.6268,1,,,,,,,,,,,,,,m,1,0.6268,,,,,,,,0.183165554,-0.229173991,0,0,0,,0,166,166,74,1,CEMENT,LB,old,m,./images/CEMENTLB.png,,,,,,,,,,,,,,,,,,,,,
,,,,,,,,,,,,,,,,,199183,19,2022-02-02_19h34.25.687,lexical_decision_task_DD,2021.2.3,MacIntel,60.04202942,,,,,,,,,,,,0.6456,0,,,,,,,,,,,,,,m,0,0.6456,,,,,,,,0.183165554,-0.229173991,0,0,0,,0,167,167,165,1,TROWN,C,old,z,./images/TROWN.png,,,,,,,,,,,,,,,,,,,,,
space,0.183165554,-0.229173991,0,0,0,,,,,,,1,test,"In the next phase you will be presented with the words from the the first phase. Your job is to decide whether you remember seeing the word or not. If you remember seeing the word press ""old"" or type ""m"". If you do not remember seeing the word press ""new"" or type ""z"". Please press the space bar or click on continue to begin. ",,,199183,19,2022-02-02_19h34.25.687,lexical_decision_task_DD,2021.2.3,MacIntel,60.04202942,18.2821,,,,,,,,,,,,,,,,,,,,,,,,,,,,,,,,,,,,,,,,,,,,,,,,,,,,,0,0,0,0,1,,,,,,,,,,,,,,,
,0.132871908,-0.373610501,1,0,0,instr_done_button,,,,,,1,test,"In the next phase you will be presented with the words from the the first phase. Your job is to decide whether you remember seeing the word or not. If you remember seeing the word press ""old"" or type ""m"". If you do not remember seeing the word press ""new"" or type ""z"". Please press the space bar or click on continue to begin. ",,,199183,19,2022-02-02_19h34.25.687,lexical_decision_task_DD,2021.2.3,MacIntel,60.04202942,,,,,,,,,,,,,,,,,,,,,,,,,,,,,,,,,,,,,,,,,,,,,,,,,,,,,,1,0,1,0,1,,,,,,,,,,,,,,,
space,0.151105075,-0.255457086,0,0,0,,,,,,,1,test,"In the next phase you will be presented with the words from the the first phase. Your job is to decide whether you remember seeing the word or not. If you remember seeing the word press ""old"" or type ""m"". If you do not remember seeing the word press ""new"" or type ""z"". Please press the space bar or click on continue to begin. ",,,199183,19,2022-02-02_19h34.25.687,lexical_decision_task_DD,2021.2.3,MacIntel,60.04202942,1.2007,,,,,,,,,,,,,,,,,,,,,,,,,,,,,,,,,,,,,,,,,,,,,,,,,,,,,2,0,2,0,1,,,,,,,,,,,,,,,
space,0.163027276,-0.134958225,0,0,0,,,,,,,1,test,"In the next phase you will be presented with the words from the the first phase. Your job is to decide whether you remember seeing the word or not. If you remember seeing the word press ""old"" or type ""m"". If you do not remember seeing the word press ""new"" or type ""z"". Please press the space bar or click on continue to begin. ",,,199183,19,2022-02-02_19h34.25.687,lexical_decision_task_DD,2021.2.3,MacIntel,60.04202942,3.6813,,,,,,,,,,,,,,,,,,,,,,,,,,,,,,,,,,,,,,,,,,,,,,,,,,,,,3,0,3,0,1,,,,,,,,,,,,,,,
,0.05127455,-0.407637533,1,0,0,instr_done_button,,,,,,1,test,"In the next phase you will be presented with the words from the the first phase. Your job is to decide whether you remember seeing the word or not. If you remember seeing the word press ""old"" or type ""m"". If you do not remember seeing the word press ""new"" or type ""z"". Please press the space bar or click on continue to begin. ",,,199183,19,2022-02-02_19h34.25.687,lexical_decision_task_DD,2021.2.3,MacIntel,60.04202942,,,,,,,,,,,,,,,,,,,,,,,,,,,,,,,,,,,,,,,,,,,,,,,,,,,,,,4,0,4,0,1,,,,,,,,,,,,,,,
,,,,,,,,,,,,,,,,,199183,19,2022-02-02_19h34.25.687,lexical_decision_task_DD,2021.2.3,MacIntel,60.04202942,,,,,,,,,,,,2.621,1,,,,,,,,,,,,,,,,,,,,,,,,0.074155816,-0.295887926,0,0,0,,,,,,,FARMER,LB,m,m,./images/FARMERLB.png,,,,,,,m,1,2.621,,,,,,,,0,0,0,65,1
,,,,,,,,,,,,,,,,,199183,19,2022-02-02_19h34.25.687,lexical_decision_task_DD,2021.2.3,MacIntel,60.04202942,,,,,,,,,,,,0.8136,1,,,,,,,,,,,,,,,,,,,,,,,,0.074155816,-0.295887926,0,0,0,,,,,,,DONKEY,HB,z,m,./images/DONKEYHB.png,,,,,,,z,1,0.8136,,,,,,,,0,1,1,103,1
,,,,,,,,,,,,,,,,,199183,19,2022-02-02_19h34.25.687,lexical_decision_task_DD,2021.2.3,MacIntel,60.04202942,,,,,,,,,,,,0.6641,1,,,,,,,,,,,,,,,,,,,,,,,,0.074155816,-0.295887926,0,0,0,,,,,,,WEASEL,LB,m,m,./images/WEASELLB.png,,,,,,,m,1,0.6641,,,,,,,,0,2,2,80,1
,,,,,,,,,,,,,,,,,199183,19,2022-02-02_19h34.25.687,lexical_decision_task_DD,2021.2.3,MacIntel,60.04202942,,,,,,,,,,,,0.6187,1,,,,,,,,,,,,,,,,,,,,,,,,0.074155816,-0.295887926,0,0,0,,,,,,,RHINO,C,m,m,./images/RHINO.png,,,,,,,m,1,0.6187,,,,,,,,0,3,3,9,1
,,,,,,,,,,,,,,,,,199183,19,2022-02-02_19h34.25.687,lexical_decision_task_DD,2021.2.3,MacIntel,60.04202942,,,,,,,,,,,,0.5446,1,,,,,,,,,,,,,,,,,,,,,,,,0.074155816,-0.295887926,0,0,0,,,,,,,MOOSE,C,m,m,./images/MOOSE.png,,,,,,,m,1,0.5446,,,,,,,,0,4,4,57,1
,,,,,,,,,,,,,,,,,199183,19,2022-02-02_19h34.25.687,lexical_decision_task_DD,2021.2.3,MacIntel,60.04202942,,,,,,,,,,,,0.5584,0,,,,,,,,,,,,,,,,,,,,,,,,0.074155816,-0.295887926,0,0,0,,,,,,,CLIFF,LB,z,m,./images/CLIFFLB.png,,,,,,,m,0,0.5584,,,,,,,,0,5,5,92,1
,,,,,,,,,,,,,,,,,199183,19,2022-02-02_19h34.25.687,lexical_decision_task_DD,2021.2.3,MacIntel,60.04202942,,,,,,,,,,,,0.5496,1,,,,,,,,,,,,,,,,,,,,,,,,0.074155816,-0.295887926,0,0,0,,,,,,,SMOKER,LB,m,m,./images/SMOKERLB.png,,,,,,,m,1,0.5496,,,,,,,,0,6,6,26,1
,,,,,,,,,,,,,,,,,199183,19,2022-02-02_19h34.25.687,lexical_decision_task_DD,2021.2.3,MacIntel,60.04202942,,,,,,,,,,,,0.941,1,,,,,,,,,,,,,,,,,,,,,,,,0.074155816,-0.295887926,0,0,0,,,,,,,ENGINE,LB,z,m,./images/ENGINELB.png,,,,,,,z,1,0.941,,,,,,,,0,7,7,122,1
,,,,,,,,,,,,,,,,,199183,19,2022-02-02_19h34.25.687,lexical_decision_task_DD,2021.2.3,MacIntel,60.04202942,,,,,,,,,,,,0.6522,1,,,,,,,,,,,,,,,,,,,,,,,,0.074155816,-0.295887926,0,0,0,,,,,,,RAZOR,HB,z,m,./images/RAZORHB.png,,,,,,,z,1,0.6522,,,,,,,,0,8,8,118,1
,,,,,,,,,,,,,,,,,199183,19,2022-02-02_19h34.25.687,lexical_decision_task_DD,2021.2.3,MacIntel,60.04202942,,,,,,,,,,,,0.8506,1,,,,,,,,,,,,,,,,,,,,,,,,0.074155816,-0.295887926,0,0,0,,,,,,,GLOVE,HB,z,m,./images/GLOVEHB.png,,,,,,,z,1,0.8506,,,,,,,,0,9,9,157,1
,,,,,,,,,,,,,,,,,199183,19,2022-02-02_19h34.25.687,lexical_decision_task_DD,2021.2.3,MacIntel,60.04202942,,,,,,,,,,,,0.635,1,,,,,,,,,,,,,,,,,,,,,,,,0.074155816,-0.295887926,0,0,0,,,,,,,JAGUAR,C,m,m,./images/JAGUAR.png,,,,,,,m,1,0.635,,,,,,,,0,10,10,18,1
,,,,,,,,,,,,,,,,,199183,19,2022-02-02_19h34.25.687,lexical_decision_task_DD,2021.2.3,MacIntel,60.04202942,,,,,,,,,,,,0.7516,1,,,,,,,,,,,,,,,,,,,,,,,,0.074155816,-0.295887926,0,0,0,,,,,,,STEAK,HB,z,m,./images/STEAKHB.png,,,,,,,z,1,0.7516,,,,,,,,0,11,11,115,1
,,,,,,,,,,,,,,,,,199183,19,2022-02-02_19h34.25.687,lexical_decision_task_DD,2021.2.3,MacIntel,60.04202942,,,,,,,,,,,,0.6248,0,,,,,,,,,,,,,,,,,,,,,,,,0.074155816,-0.295887926,0,0,0,,,,,,,BIRTH,HB,m,m,./images/BIRTHHB.png,,,,,,,z,0,0.6248,,,,,,,,0,12,12,37,1
,,,,,,,,,,,,,,,,,199183,19,2022-02-02_19h34.25.687,lexical_decision_task_DD,2021.2.3,MacIntel,60.04202942,,,,,,,,,,,,0.7822,0,,,,,,,,,,,,,,,,,,,,,,,,0.074155816,-0.295887926,0,0,0,,,,,,,CANYON,HB,m,m,./images/CANYONHB.png,,,,,,,z,0,0.7822,,,,,,,,0,13,13,34,1
,,,,,,,,,,,,,,,,,199183,19,2022-02-02_19h34.25.687,lexical_decision_task_DD,2021.2.3,MacIntel,60.04202942,,,,,,,,,,,,0.8173,1,,,,,,,,,,,,,,,,,,,,,,,,0.074155816,-0.295887926,0,0,0,,,,,,,MELON,HB,m,m,./images/MELONHB.png,,,,,,,m,1,0.8173,,,,,,,,0,14,14,22,1
,,,,,,,,,,,,,,,,,199183,19,2022-02-02_19h34.25.687,lexical_decision_task_DD,2021.2.3,MacIntel,60.04202942,,,,,,,,,,,,0.5842,0,,,,,,,,,,,,,,,,,,,,,,,,0.074155816,-0.295887926,0,0,0,,,,,,,WHEEL,LB,z,m,./images/WHEELLB.png,,,,,,,m,0,0.5842,,,,,,,,0,15,15,161,1
,,,,,,,,,,,,,,,,,199183,19,2022-02-02_19h34.25.687,lexical_decision_task_DD,2021.2.3,MacIntel,60.04202942,,,,,,,,,,,,0.8804,0,,,,,,,,,,,,,,,,,,,,,,,,0.074155816,-0.295887926,0,0,0,,,,,,,JUNGLE,LB,m,m,./images/JUNGLELB.png,,,,,,,z,0,0.8804,,,,,,,,0,16,16,83,1
,,,,,,,,,,,,,,,,,199183,19,2022-02-02_19h34.25.687,lexical_decision_task_DD,2021.2.3,MacIntel,60.04202942,,,,,,,,,,,,0.8583,1,,,,,,,,,,,,,,,,,,,,,,,,0.074155816,-0.295887926,0,0,0,,,,,,,MIDGET,HB,z,m,./images/MIDGETHB.png,,,,,,,z,1,0.8583,,,,,,,,0,17,17,160,1
,,,,,,,,,,,,,,,,,199183,19,2022-02-02_19h34.25.687,lexical_decision_task_DD,2021.2.3,MacIntel,60.04202942,,,,,,,,,,,,0.7519,1,,,,,,,,,,,,,,,,,,,,,,,,0.074155816,-0.295887926,0,0,0,,,,,,,WALNUT,C,z,m,./images/WALNUT.png,,,,,,,z,1,0.7519,,,,,,,,0,18,18,84,1
,,,,,,,,,,,,,,,,,199183,19,2022-02-02_19h34.25.687,lexical_decision_task_DD,2021.2.3,MacIntel,60.04202942,,,,,,,,,,,,1.0576,1,,,,,,,,,,,,,,,,,,,,,,,,0.074155816,-0.295887926,0,0,0,,,,,,,POKER,HB,z,m,./images/POKERHB.png,,,,,,,z,1,1.0576,,,,,,,,0,19,19,151,1
,,,,,,,,,,,,,,,,,199183,19,2022-02-02_19h34.25.687,lexical_decision_task_DD,2021.2.3,MacIntel,60.04202942,,,,,,,,,,,,0.6837,1,,,,,,,,,,,,,,,,,,,,,,,,0.074155816,-0.295887926,0,0,0,,,,,,,BELLY,HB,m,m,./images/BELLYHB.png,,,,,,,m,1,0.6837,,,,,,,,0,20,20,10,1
,,,,,,,,,,,,,,,,,199183,19,2022-02-02_19h34.25.687,lexical_decision_task_DD,2021.2.3,MacIntel,60.04202942,,,,,,,,,,,,0.7636,1,,,,,,,,,,,,,,,,,,,,,,,,0.074155816,-0.295887926,0,0,0,,,,,,,STOOL,HB,z,m,./images/STOOLHB.png,,,,,,,z,1,0.7636,,,,,,,,0,21,21,127,1
,,,,,,,,,,,,,,,,,199183,19,2022-02-02_19h34.25.687,lexical_decision_task_DD,2021.2.3,MacIntel,60.04202942,,,,,,,,,,,,0.6479,0,,,,,,,,,,,,,,,,,,,,,,,,0.074155816,-0.295887926,0,0,0,,,,,,,INFANT,HB,m,m,./images/INFANTHB.png,,,,,,,z,0,0.6479,,,,,,,,0,22,22,76,1
,,,,,,,,,,,,,,,,,199183,19,2022-02-02_19h34.25.687,lexical_decision_task_DD,2021.2.3,MacIntel,60.04202942,,,,,,,,,,,,1.0461,1,,,,,,,,,,,,,,,,,,,,,,,,0.074155816,-0.295887926,0,0,0,,,,,,,BRUSH,LB,z,m,./images/BRUSHLB.png,,,,,,,z,1,1.0461,,,,,,,,0,23,23,143,1
,,,,,,,,,,,,,,,,,199183,19,2022-02-02_19h34.25.687,lexical_decision_task_DD,2021.2.3,MacIntel,60.04202942,,,,,,,,,,,,0.7032,1,,,,,,,,,,,,,,,,,,,,,,,,0.074155816,-0.295887926,0,0,0,,,,,,,POSTER,LB,z,m,./images/POSTERLB.png,,,,,,,z,1,0.7032,,,,,,,,0,24,24,137,1
,,,,,,,,,,,,,,,,,199183,19,2022-02-02_19h34.25.687,lexical_decision_task_DD,2021.2.3,MacIntel,60.04202942,,,,,,,,,,,,0.7618,1,,,,,,,,,,,,,,,,,,,,,,,,0.074155816,-0.295887926,0,0,0,,,,,,,STRING,LB,m,m,./images/STRINGLB.png,,,,,,,m,1,0.7618,,,,,,,,0,25,25,41,1
,,,,,,,,,,,,,,,,,199183,19,2022-02-02_19h34.25.687,lexical_decision_task_DD,2021.2.3,MacIntel,60.04202942,,,,,,,,,,,,0.5199,1,,,,,,,,,,,,,,,,,,,,,,,,0.074155816,-0.295887926,0,0,0,,,,,,,JELLY,HB,m,m,./images/JELLYHB.png,,,,,,,m,1,0.5199,,,,,,,,0,26,26,64,1
,,,,,,,,,,,,,,,,,199183,19,2022-02-02_19h34.25.687,lexical_decision_task_DD,2021.2.3,MacIntel,60.04202942,,,,,,,,,,,,0.6326,1,,,,,,,,,,,,,,,,,,,,,,,,0.074155816,-0.295887926,0,0,0,,,,,,,PASTA,LB,m,m,./images/PASTALB.png,,,,,,,m,1,0.6326,,,,,,,,0,27,27,5,1
,,,,,,,,,,,,,,,,,199183,19,2022-02-02_19h34.25.687,lexical_decision_task_DD,2021.2.3,MacIntel,60.04202942,,,,,,,,,,,,1.1145,1,,,,,,,,,,,,,,,,,,,,,,,,0.074155816,-0.295887926,0,0,0,,,,,,,ALLEY,HB,z,m,./images/ALLEYHB.png,,,,,,,z,1,1.1145,,,,,,,,0,28,28,139,1
,,,,,,,,,,,,,,,,,199183,19,2022-02-02_19h34.25.687,lexical_decision_task_DD,2021.2.3,MacIntel,60.04202942,,,,,,,,,,,,0.8275,1,,,,,,,,,,,,,,,,,,,,,,,,0.074155816,-0.295887926,0,0,0,,,,,,,CANDLE,HB,m,m,./images/CANDLEHB.png,,,,,,,m,1,0.8275,,,,,,,,0,29,29,61,1
,,,,,,,,,,,,,,,,,199183,19,2022-02-02_19h34.25.687,lexical_decision_task_DD,2021.2.3,MacIntel,60.04202942,,,,,,,,,,,,0.7984,1,,,,,,,,,,,,,,,,,,,,,,,,0.074155816,-0.295887926,0,0,0,,,,,,,GRANNY,LB,z,m,./images/GRANNYLB.png,,,,,,,z,1,0.7984,,,,,,,,0,30,30,104,1
,,,,,,,,,,,,,,,,,199183,19,2022-02-02_19h34.25.687,lexical_decision_task_DD,2021.2.3,MacIntel,60.04202942,,,,,,,,,,,,0.9472,1,,,,,,,,,,,,,,,,,,,,,,,,0.074155816,-0.295887926,0,0,0,,,,,,,BOXER,HB,z,m,./images/BOXERHB.png,,,,,,,z,1,0.9472,,,,,,,,0,31,31,88,1
,,,,,,,,,,,,,,,,,199183,19,2022-02-02_19h34.25.687,lexical_decision_task_DD,2021.2.3,MacIntel,60.04202942,,,,,,,,,,,,0.7954,1,,,,,,,,,,,,,,,,,,,,,,,,0.074155816,-0.295887926,0,0,0,,,,,,,DRILL,C,z,m,./images/DRILL.png,,,,,,,z,1,0.7954,,,,,,,,0,32,32,165,1
,,,,,,,,,,,,,,,,,199183,19,2022-02-02_19h34.25.687,lexical_decision_task_DD,2021.2.3,MacIntel,60.04202942,,,,,,,,,,,,0.8477,1,,,,,,,,,,,,,,,,,,,,,,,,0.074155816,-0.295887926,0,0,0,,,,,,,DANCER,C,z,m,./images/DANCER.png,,,,,,,z,1,0.8477,,,,,,,,0,33,33,105,1
,,,,,,,,,,,,,,,,,199183,19,2022-02-02_19h34.25.687,lexical_decision_task_DD,2021.2.3,MacIntel,60.04202942,,,,,,,,,,,,0.7696,1,,,,,,,,,,,,,,,,,,,,,,,,0.074155816,-0.295887926,0,0,0,,,,,,,SAUNA,C,z,m,./images/SAUNA.png,,,,,,,z,1,0.7696,,,,,,,,0,34,34,117,1
,,,,,,,,,,,,,,,,,199183,19,2022-02-02_19h34.25.687,lexical_decision_task_DD,2021.2.3,MacIntel,60.04202942,,,,,,,,,,,,0.8076,1,,,,,,,,,,,,,,,,,,,,,,,,0.074155816,-0.295887926,0,0,0,,,,,,,CHALK,HB,z,m,./images/CHALKHB.png,,,,,,,z,1,0.8076,,,,,,,,0,35,35,109,1
,,,,,,,,,,,,,,,,,199183,19,2022-02-02_19h34.25.687,lexical_decision_task_DD,2021.2.3,MacIntel,60.04202942,,,,,,,,,,,,0.5904,0,,,,,,,,,,,,,,,,,,,,,,,,0.074155816,-0.295887926,0,0,0,,,,,,,BROOM,C,z,m,./images/BROOM.png,,,,,,,m,0,0.5904,,,,,,,,0,36,36,162,1
,,,,,,,,,,,,,,,,,199183,19,2022-02-02_19h34.25.687,lexical_decision_task_DD,2021.2.3,MacIntel,60.04202942,,,,,,,,,,,,0.7014,0,,,,,,,,,,,,,,,,,,,,,,,,0.074155816,-0.295887926,0,0,0,,,,,,,DOUGH,HB,m,m,./images/DOUGHHB.png,,,,,,,z,0,0.7014,,,,,,,,0,37,37,19,1
,,,,,,,,,,,,,,,,,199183,19,2022-02-02_19h34.25.687,lexical_decision_task_DD,2021.2.3,MacIntel,60.04202942,,,,,,,,,,,,0.6802,0,,,,,,,,,,,,,,,,,,,,,,,,0.074155816,-0.295887926,0,0,0,,,,,,,FENCE,LB,z,m,./images/FENCELB.png,,,,,,,m,0,0.6802,,,,,,,,0,38,38,98,1
,,,,,,,,,,,,,,,,,199183,19,2022-02-02_19h34.25.687,lexical_decision_task_DD,2021.2.3,MacIntel,60.04202942,,,,,,,,,,,,1.1532,0,,,,,,,,,,,,,,,,,,,,,,,,0.074155816,-0.295887926,0,0,0,,,,,,,CHAIN,C,z,m,./images/CHAIN.png,,,,,,,m,0,1.1532,,,,,,,,0,39,39,126,1
,,,,,,,,,,,,,,,,,199183,19,2022-02-02_19h34.25.687,lexical_decision_task_DD,2021.2.3,MacIntel,60.04202942,,,,,,,,,,,,0.8843,1,,,,,,,,,,,,,,,,,,,,,,,,0.074155816,-0.295887926,0,0,0,,,,,,,MAMMAL,LB,z,m,./images/MAMMALLB.png,,,,,,,z,1,0.8843,,,,,,,,0,40,40,146,1
,,,,,,,,,,,,,,,,,199183,19,2022-02-02_19h34.25.687,lexical_decision_task_DD,2021.2.3,MacIntel,60.04202942,,,,,,,,,,,,1.0986,1,,,,,,,,,,,,,,,,,,,,,,,,0.074155816,-0.295887926,0,0,0,space,,,,,,PARADE,LB,z,m,./images/PARADELB.png,1.2103,,,,,,z,1,1.0986,,,,,,,,0,41,41,101,1
,,,,,,,,,,,,,,,,,199183,19,2022-02-02_19h34.25.687,lexical_decision_task_DD,2021.2.3,MacIntel,60.04202942,,,,,,,,,,,,0.6582,1,,,,,,,,,,,,,,,,,,,,,,,,0.074155816,-0.295887926,0,0,0,,,,,,,MIRROR,C,m,m,./images/MIRROR.png,,,,,,,m,1,0.6582,,,,,,,,0,42,42,63,1
,,,,,,,,,,,,,,,,,199183,19,2022-02-02_19h34.25.687,lexical_decision_task_DD,2021.2.3,MacIntel,60.04202942,,,,,,,,,,,,0.585,1,,,,,,,,,,,,,,,,,,,,,,,,0.074155816,-0.295887926,0,0,0,,,,,,,GRAIN,C,m,m,./images/GRAIN.png,,,,,,,m,1,0.585,,,,,,,,0,43,43,75,1
,,,,,,,,,,,,,,,,,199183,19,2022-02-02_19h34.25.687,lexical_decision_task_DD,2021.2.3,MacIntel,60.04202942,,,,,,,,,,,,0.7454,1,,,,,,,,,,,,,,,,,,,,,,,,0.074155816,-0.295887926,0,0,0,,,,,,,TULIP,LB,m,m,./images/TULIPLB.png,,,,,,,m,1,0.7454,,,,,,,,0,44,44,8,1
,,,,,,,,,,,,,,,,,199183,19,2022-02-02_19h34.25.687,lexical_decision_task_DD,2021.2.3,MacIntel,60.04202942,,,,,,,,,,,,1.0603,1,,,,,,,,,,,,,,,,,,,,,,,,0.074155816,-0.295887926,0,0,0,,,,,,,MUMMY,HB,z,m,./images/MUMMYHB.png,,,,,,,z,1,1.0603,,,,,,,,0,45,45,130,1
,,,,,,,,,,,,,,,,,199183,19,2022-02-02_19h34.25.687,lexical_decision_task_DD,2021.2.3,MacIntel,60.04202942,,,,,,,,,,,,0.9756,1,,,,,,,,,,,,,,,,,,,,,,,,0.074155816,-0.295887926,0,0,0,,,,,,,PACKET,LB,m,m,./images/PACKETLB.png,,,,,,,m,1,0.9756,,,,,,,,0,46,46,56,1
,,,,,,,,,,,,,,,,,199183,19,2022-02-02_19h34.25.687,lexical_decision_task_DD,2021.2.3,MacIntel,60.04202942,,,,,,,,,,,,0.7772,1,,,,,,,,,,,,,,,,,,,,,,,,0.074155816,-0.295887926,0,0,0,,,,,,,ARROW,C,z,m,./images/ARROW.png,,,,,,,z,1,0.7772,,,,,,,,0,47,47,153,1
,,,,,,,,,,,,,,,,,199183,19,2022-02-02_19h34.25.687,lexical_decision_task_DD,2021.2.3,MacIntel,60.04202942,,,,,,,,,,,,1.2609,1,,,,,,,,,,,,,,,,,,,,,,,,0.074155816,-0.295887926,0,0,0,,,,,,,MUFFIN,HB,m,m,./images/MUFFINHB.png,,,,,,,m,1,1.2609,,,,,,,,0,48,48,55,1
,,,,,,,,,,,,,,,,,199183,19,2022-02-02_19h34.25.687,lexical_decision_task_DD,2021.2.3,MacIntel,60.04202942,,,,,,,,,,,,1.1852,1,,,,,,,,,,,,,,,,,,,,,,,,0.074155816,-0.295887926,0,0,0,,,,,,,JUMPER,LB,z,m,./images/JUMPERLB.png,,,,,,,z,1,1.1852,,,,,,,,0,49,49,158,1
,,,,,,,,,,,,,,,,,199183,19,2022-02-02_19h34.25.687,lexical_decision_task_DD,2021.2.3,MacIntel,60.04202942,,,,,,,,,,,,0.9651,1,,,,,,,,,,,,,,,,,,,,,,,,0.074155816,-0.295887926,0,0,0,,,,,,,TIGER,HB,z,m,./images/TIGERHB.png,,,,,,,z,1,0.9651,,,,,,,,0,50,50,121,1
,,,,,,,,,,,,,,,,,199183,19,2022-02-02_19h34.25.687,lexical_decision_task_DD,2021.2.3,MacIntel,60.04202942,,,,,,,,,,,,0.7129,1,,,,,,,,,,,,,,,,,,,,,,,,0.074155816,-0.295887926,0,0,0,,,,,,,PARCEL,C,z,m,./images/PARCEL.png,,,,,,,z,1,0.7129,,,,,,,,0,51,51,102,1
,,,,,,,,,,,,,,,,,199183,19,2022-02-02_19h34.25.687,lexical_decision_task_DD,2021.2.3,MacIntel,60.04202942,,,,,,,,,,,,0.846,0,,,,,,,,,,,,,,,,,,,,,,,,0.074155816,-0.295887926,0,0,0,,,,,,,URINE,HB,m,m,./images/URINEHB.png,,,,,,,z,0,0.846,,,,,,,,0,52,52,70,1
,,,,,,,,,,,,,,,,,199183,19,2022-02-02_19h34.25.687,lexical_decision_task_DD,2021.2.3,MacIntel,60.04202942,,,,,,,,,,,,0.8155,1,,,,,,,,,,,,,,,,,,,,,,,,0.074155816,-0.295887926,0,0,0,,,,,,,MEDAL,LB,z,m,./images/MEDALLB.png,,,,,,,z,1,0.8155,,,,,,,,0,53,53,95,1
,,,,,,,,,,,,,,,,,199183,19,2022-02-02_19h34.25.687,lexical_decision_task_DD,2021.2.3,MacIntel,60.04202942,,,,,,,,,,,,0.6131,1,,,,,,,,,,,,,,,,,,,,,,,,0.074155816,-0.295887926,0,0,0,,,,,,,SQUARE,C,m,m,./images/SQUARE.png,,,,,,,m,1,0.6131,,,,,,,,0,54,54,6,1
,,,,,,,,,,,,,,,,,199183,19,2022-02-02_19h34.25.687,lexical_decision_task_DD,2021.2.3,MacIntel,60.04202942,,,,,,,,,,,,0.6581,1,,,,,,,,,,,,,,,,,,,,,,,,0.074155816,-0.295887926,0,0,0,,,,,,,SAILOR,HB,m,m,./images/SAILORHB.png,,,,,,,m,1,0.6581,,,,,,,,0,55,55,67,1
,,,,,,,,,,,,,,,,,199183,19,2022-02-02_19h34.25.687,lexical_decision_task_DD,2021.2.3,MacIntel,60.04202942,,,,,,,,,,,,0.8583,0,,,,,,,,,,,,,,,,,,,,,,,,0.074155816,-0.295887926,0,0,0,,,,,,,BARREL,LB,m,m,./images/BARRELLB.png,,,,,,,z,0,0.8583,,,,,,,,0,56,56,32,1
,,,,,,,,,,,,,,,,,199183,19,2022-02-02_19h34.25.687,lexical_decision_task_DD,2021.2.3,MacIntel,60.04202942,,,,,,,,,,,,0.9197,1,,,,,,,,,,,,,,,,,,,,,,,,0.074155816,-0.295887926,0,0,0,,,,,,,MOTOR,HB,m,m,./images/MOTORHB.png,,,,,,,m,1,0.9197,,,,,,,,0,57,57,13,1
,,,,,,,,,,,,,,,,,199183,19,2022-02-02_19h34.25.687,lexical_decision_task_DD,2021.2.3,MacIntel,60.04202942,,,,,,,,,,,,0.5898,1,,,,,,,,,,,,,,,,,,,,,,,,0.074155816,-0.295887926,0,0,0,,,,,,,TORCH,LB,m,m,./images/TORCHLB.png,,,,,,,m,1,0.5898,,,,,,,,0,58,58,68,1
,,,,,,,,,,,,,,,,,199183,19,2022-02-02_19h34.25.687,lexical_decision_task_DD,2021.2.3,MacIntel,60.04202942,,,,,,,,,,,,0.5751,1,,,,,,,,,,,,,,,,,,,,,,,,0.074155816,-0.295887926,0,0,0,,,,,,,SWEAT,C,m,m,./images/SWEAT.png,,,,,,,m,1,0.5751,,,,,,,,0,59,59,66,1
,,,,,,,,,,,,,,,,,199183,19,2022-02-02_19h34.25.687,lexical_decision_task_DD,2021.2.3,MacIntel,60.04202942,,,,,,,,,,,,1.0427,0,,,,,,,,,,,,,,,,,,,,,,,,0.074155816,-0.295887926,0,0,0,,,,,,,SHIELD,C,z,m,./images/SHIELD.png,,,,,,,m,0,1.0427,,,,,,,,0,60,60,132,1
,,,,,,,,,,,,,,,,,199183,19,2022-02-02_19h34.25.687,lexical_decision_task_DD,2021.2.3,MacIntel,60.04202942,,,,,,,,,,,,0.8651,0,,,,,,,,,,,,,,,,,,,,,,,,0.074155816,-0.295887926,0,0,0,,,,,,,CLOTH,LB,z,m,./images/CLOTHLB.png,,,,,,,m,0,0.8651,,,,,,,,0,61,61,107,1
,,,,,,,,,,,,,,,,,199183,19,2022-02-02_19h34.25.687,lexical_decision_task_DD,2021.2.3,MacIntel,60.04202942,,,,,,,,,,,,0.5974,1,,,,,,,,,,,,,,,,,,,,,,,,0.074155816,-0.295887926,0,0,0,,,,,,,LITTER,C,m,m,./images/LITTER.png,,,,,,,m,1,0.5974,,,,,,,,0,62,62,78,1
,,,,,,,,,,,,,,,,,199183,19,2022-02-02_19h34.25.687,lexical_decision_task_DD,2021.2.3,MacIntel,60.04202942,,,,,,,,,,,,0.5168,1,,,,,,,,,,,,,,,,,,,,,,,,0.074155816,-0.295887926,0,0,0,,,,,,,FINGER,C,m,m,./images/FINGER.png,,,,,,,m,1,0.5168,,,,,,,,0,63,63,3,1
,,,,,,,,,,,,,,,,,199183,19,2022-02-02_19h34.25.687,lexical_decision_task_DD,2021.2.3,MacIntel,60.04202942,,,,,,,,,,,,0.7992,1,,,,,,,,,,,,,,,,,,,,,,,,0.074155816,-0.295887926,0,0,0,,,,,,,SHELF,C,m,m,./images/SHELF.png,,,,,,,m,1,0.7992,,,,,,,,0,64,64,39,1
,,,,,,,,,,,,,,,,,199183,19,2022-02-02_19h34.25.687,lexical_decision_task_DD,2021.2.3,MacIntel,60.04202942,,,,,,,,,,,,1.0123,1,,,,,,,,,,,,,,,,,,,,,,,,0.074155816,-0.295887926,0,0,0,,,,,,,BONNET,LB,m,m,./images/BONNETLB.png,,,,,,,m,1,1.0123,,,,,,,,0,65,65,11,1
,,,,,,,,,,,,,,,,,199183,19,2022-02-02_19h34.25.687,lexical_decision_task_DD,2021.2.3,MacIntel,60.04202942,,,,,,,,,,,,0.9279,1,,,,,,,,,,,,,,,,,,,,,,,,0.074155816,-0.295887926,0,0,0,,,,,,,TOWEL,HB,z,m,./images/TOWELHB.png,,,,,,,z,1,0.9279,,,,,,,,0,66,66,85,1
,,,,,,,,,,,,,,,,,199183,19,2022-02-02_19h34.25.687,lexical_decision_task_DD,2021.2.3,MacIntel,60.04202942,,,,,,,,,,,,0.9907,1,,,,,,,,,,,,,,,,,,,,,,,,0.074155816,-0.295887926,0,0,0,,,,,,,CHERRY,C,z,m,./images/CHERRY.png,,,,,,,z,1,0.9907,,,,,,,,0,67,67,138,1
,,,,,,,,,,,,,,,,,199183,19,2022-02-02_19h34.25.687,lexical_decision_task_DD,2021.2.3,MacIntel,60.04202942,,,,,,,,,,,,0.8805,1,,,,,,,,,,,,,,,,,,,,,,,,0.074155816,-0.295887926,0,0,0,,,,,,,SPINE,LB,z,m,./images/SPINELB.png,,,,,,,z,1,0.8805,,,,,,,,0,68,68,149,1
,,,,,,,,,,,,,,,,,199183,19,2022-02-02_19h34.25.687,lexical_decision_task_DD,2021.2.3,MacIntel,60.04202942,,,,,,,,,,,,0.7108,1,,,,,,,,,,,,,,,,,,,,,,,,0.074155816,-0.295887926,0,0,0,,,,,,,SKIING,LB,m,m,./images/SKIINGLB.png,,,,,,,m,1,0.7108,,,,,,,,0,69,69,17,1
,,,,,,,,,,,,,,,,,199183,19,2022-02-02_19h34.25.687,lexical_decision_task_DD,2021.2.3,MacIntel,60.04202942,,,,,,,,,,,,0.7354,1,,,,,,,,,,,,,,,,,,,,,,,,0.074155816,-0.295887926,0,0,0,,,,,,,CANDY,C,z,m,./images/CANDY.png,,,,,,,z,1,0.7354,,,,,,,,0,70,70,123,1
,,,,,,,,,,,,,,,,,199183,19,2022-02-02_19h34.25.687,lexical_decision_task_DD,2021.2.3,MacIntel,60.04202942,,,,,,,,,,,,0.7177,1,,,,,,,,,,,,,,,,,,,,,,,,0.074155816,-0.295887926,0,0,0,,,,,,,DRUMS,HB,m,m,./images/DRUMSHB.png,,,,,,,m,1,0.7177,,,,,,,,0,71,71,49,1
,,,,,,,,,,,,,,,,,199183,19,2022-02-02_19h34.25.687,lexical_decision_task_DD,2021.2.3,MacIntel,60.04202942,,,,,,,,,,,,0.8356,1,,,,,,,,,,,,,,,,,,,,,,,,0.074155816,-0.295887926,0,0,0,,,,,,,HOCKEY,LB,z,m,./images/HOCKEYLB.png,,,,,,,z,1,0.8356,,,,,,,,0,72,72,116,1
,,,,,,,,,,,,,,,,,199183,19,2022-02-02_19h34.25.687,lexical_decision_task_DD,2021.2.3,MacIntel,60.04202942,,,,,,,,,,,,0.7162,1,,,,,,,,,,,,,,,,,,,,,,,,0.074155816,-0.295887926,0,0,0,,,,,,,QUILL,HB,m,m,./images/QUILLHB.png,,,,,,,m,1,0.7162,,,,,,,,0,73,73,31,1
,,,,,,,,,,,,,,,,,199183,19,2022-02-02_19h34.25.687,lexical_decision_task_DD,2021.2.3,MacIntel,60.04202942,,,,,,,,,,,,0.7368,1,,,,,,,,,,,,,,,,,,,,,,,,0.074155816,-0.295887926,0,0,0,,,,,,,BUTTER,C,z,m,./images/BUTTER.png,,,,,,,z,1,0.7368,,,,,,,,0,74,74,111,1
,,,,,,,,,,,,,,,,,199183,19,2022-02-02_19h34.25.687,lexical_decision_task_DD,2021.2.3,MacIntel,60.04202942,,,,,,,,,,,,0.7144,0,,,,,,,,,,,,,,,,,,,,,,,,0.074155816,-0.295887926,0,0,0,,,,,,,SLOPE,C,z,m,./images/SLOPE.png,,,,,,,m,0,0.7144,,,,,,,,0,75,75,114,1
,,,,,,,,,,,,,,,,,199183,19,2022-02-02_19h34.25.687,lexical_decision_task_DD,2021.2.3,MacIntel,60.04202942,,,,,,,,,,,,0.6175,1,,,,,,,,,,,,,,,,,,,,,,,,0.074155816,-0.295887926,0,0,0,,,,,,,NOOSE,C,m,m,./images/NOOSE.png,,,,,,,m,1,0.6175,,,,,,,,0,76,76,72,1
,,,,,,,,,,,,,,,,,199183,19,2022-02-02_19h34.25.687,lexical_decision_task_DD,2021.2.3,MacIntel,60.04202942,,,,,,,,,,,,0.7145,1,,,,,,,,,,,,,,,,,,,,,,,,0.074155816,-0.295887926,0,0,0,,,,,,,PILOT,LB,z,m,./images/PILOTLB.png,,,,,,,z,1,0.7145,,,,,,,,0,77,77,134,1
,,,,,,,,,,,,,,,,,199183,19,2022-02-02_19h34.25.687,lexical_decision_task_DD,2021.2.3,MacIntel,60.04202942,,,,,,,,,,,,1.0792,1,,,,,,,,,,,,,,,,,,,,,,,,0.074155816,-0.295887926,0,0,0,,,,,,,BERRY,LB,m,m,./images/BERRYLB.png,,,,,,,m,1,1.0792,,,,,,,,0,78,78,47,1
,,,,,,,,,,,,,,,,,199183,19,2022-02-02_19h34.25.687,lexical_decision_task_DD,2021.2.3,MacIntel,60.04202942,,,,,,,,,,,,0.6482,1,,,,,,,,,,,,,,,,,,,,,,,,0.074155816,-0.295887926,0,0,0,,,,,,,COUCH,LB,m,m,./images/COUCHLB.png,,,,,,,m,1,0.6482,,,,,,,,0,79,79,77,1
,,,,,,,,,,,,,,,,,199183,19,2022-02-02_19h34.25.687,lexical_decision_task_DD,2021.2.3,MacIntel,60.04202942,,,,,,,,,,,,0.568,1,,,,,,,,,,,,,,,,,,,,,,,,0.074155816,-0.295887926,0,0,0,,,,,,,MAGGOT,C,m,m,./images/MAGGOT.png,,,,,,,m,1,0.568,,,,,,,,0,80,80,33,1
,,,,,,,,,,,,,,,,,199183,19,2022-02-02_19h34.25.687,lexical_decision_task_DD,2021.2.3,MacIntel,60.04202942,,,,,,,,,,,,1.4651,0,,,,,,,,,,,,,,,,,,,,,,,,0.074155816,-0.295887926,0,0,0,,,,,,,PEACH,LB,m,m,./images/PEACHLB.png,,,,,,,z,0,1.4651,,,,,,,,0,81,81,35,1
,,,,,,,,,,,,,,,,,199183,19,2022-02-02_19h34.25.687,lexical_decision_task_DD,2021.2.3,MacIntel,60.04202942,,,,,,,,,,,,0.6288,1,,,,,,,,,,,,,,,,,,,,,,,,0.074155816,-0.295887926,0,0,0,,,,,,,LLAMA,LB,z,m,./images/LLAMALB.png,,,,,,,z,1,0.6288,,,,,,,,0,82,82,119,1
,,,,,,,,,,,,,,,,,199183,19,2022-02-02_19h34.25.687,lexical_decision_task_DD,2021.2.3,MacIntel,60.04202942,,,,,,,,,,,,0.7215,1,,,,,,,,,,,,,,,,,,,,,,,,0.074155816,-0.295887926,0,0,0,space,,,,,,STOVE,LB,z,m,./images/STOVELB.png,0.8899,,,,,,z,1,0.7215,,,,,,,,0,83,83,86,1
,,,,,,,,,,,,,,,,,199183,19,2022-02-02_19h34.25.687,lexical_decision_task_DD,2021.2.3,MacIntel,60.04202942,,,,,,,,,,,,0.6002,1,,,,,,,,,,,,,,,,,,,,,,,,0.074155816,-0.295887926,0,0,0,,,,,,,ARTIST,HB,z,m,./images/ARTISTHB.png,,,,,,,z,1,0.6002,,,,,,,,0,84,84,145,1
,,,,,,,,,,,,,,,,,199183,19,2022-02-02_19h34.25.687,lexical_decision_task_DD,2021.2.3,MacIntel,60.04202942,,,,,,,,,,,,0.7675,1,,,,,,,,,,,,,,,,,,,,,,,,0.074155816,-0.295887926,0,0,0,,,,,,,FALCON,HB,m,m,./images/FALCONHB.png,,,,,,,m,1,0.7675,,,,,,,,0,85,85,28,1
,,,,,,,,,,,,,,,,,199183,19,2022-02-02_19h34.25.687,lexical_decision_task_DD,2021.2.3,MacIntel,60.04202942,,,,,,,,,,,,0.8753,1,,,,,,,,,,,,,,,,,,,,,,,,0.074155816,-0.295887926,0,0,0,,,,,,,BOILER,C,z,m,./images/BOILER.png,,,,,,,z,1,0.8753,,,,,,,,0,86,86,120,1
,,,,,,,,,,,,,,,,,199183,19,2022-02-02_19h34.25.687,lexical_decision_task_DD,2021.2.3,MacIntel,60.04202942,,,,,,,,,,,,0.7497,1,,,,,,,,,,,,,,,,,,,,,,,,0.074155816,-0.295887926,0,0,0,,,,,,,PLANET,LB,z,m,./images/PLANETLB.png,,,,,,,z,1,0.7497,,,,,,,,0,87,87,164,1
,,,,,,,,,,,,,,,,,199183,19,2022-02-02_19h34.25.687,lexical_decision_task_DD,2021.2.3,MacIntel,60.04202942,,,,,,,,,,,,0.7977,0,,,,,,,,,,,,,,,,,,,,,,,,0.074155816,-0.295887926,0,0,0,,,,,,,BLOKE,C,z,m,./images/BLOKE.png,,,,,,,m,0,0.7977,,,,,,,,0,88,88,96,1
,,,,,,,,,,,,,,,,,199183,19,2022-02-02_19h34.25.687,lexical_decision_task_DD,2021.2.3,MacIntel,60.04202942,,,,,,,,,,,,0.72,1,,,,,,,,,,,,,,,,,,,,,,,,0.074155816,-0.295887926,0,0,0,,,,,,,CASINO,HB,z,m,./images/CASINOHB.png,,,,,,,z,1,0.72,,,,,,,,0,89,89,112,1
,,,,,,,,,,,,,,,,,199183,19,2022-02-02_19h34.25.687,lexical_decision_task_DD,2021.2.3,MacIntel,60.04202942,,,,,,,,,,,,1.1112,1,,,,,,,,,,,,,,,,,,,,,,,,0.074155816,-0.295887926,0,0,0,,,,,,,WALRUS,LB,m,m,./images/WALRUSLB.png,,,,,,,m,1,1.1112,,,,,,,,0,90,90,23,1
,,,,,,,,,,,,,,,,,199183,19,2022-02-02_19h34.25.687,lexical_decision_task_DD,2021.2.3,MacIntel,60.04202942,,,,,,,,,,,,0.6663,1,,,,,,,,,,,,,,,,,,,,,,,,0.074155816,-0.295887926,0,0,0,,,,,,,VALLEY,LB,z,m,./images/VALLEYLB.png,,,,,,,z,1,0.6663,,,,,,,,0,91,91,152,1
,,,,,,,,,,,,,,,,,199183,19,2022-02-02_19h34.25.687,lexical_decision_task_DD,2021.2.3,MacIntel,60.04202942,,,,,,,,,,,,0.5982,1,,,,,,,,,,,,,,,,,,,,,,,,0.074155816,-0.295887926,0,0,0,,,,,,,WHISKY,LB,z,m,./images/WHISKYLB.png,,,,,,,z,1,0.5982,,,,,,,,0,92,92,167,1
,,,,,,,,,,,,,,,,,199183,19,2022-02-02_19h34.25.687,lexical_decision_task_DD,2021.2.3,MacIntel,60.04202942,,,,,,,,,,,,1.3955,1,,,,,,,,,,,,,,,,,,,,,,,,0.074155816,-0.295887926,0,0,0,,,,,,,CLOWN,HB,z,m,./images/CLOWNHB.png,,,,,,,z,1,1.3955,,,,,,,,0,93,93,106,1
,,,,,,,,,,,,,,,,,199183,19,2022-02-02_19h34.25.687,lexical_decision_task_DD,2021.2.3,MacIntel,60.04202942,,,,,,,,,,,,0.6804,1,,,,,,,,,,,,,,,,,,,,,,,,0.074155816,-0.295887926,0,0,0,,,,,,,FERRY,C,z,m,./images/FERRY.png,,,,,,,z,1,0.6804,,,,,,,,0,94,94,141,1
,,,,,,,,,,,,,,,,,199183,19,2022-02-02_19h34.25.687,lexical_decision_task_DD,2021.2.3,MacIntel,60.04202942,,,,,,,,,,,,0.612,1,,,,,,,,,,,,,,,,,,,,,,,,0.074155816,-0.295887926,0,0,0,,,,,,,SAUCE,C,z,m,./images/SAUCE.png,,,,,,,z,1,0.612,,,,,,,,0,95,95,135,1
,,,,,,,,,,,,,,,,,199183,19,2022-02-02_19h34.25.687,lexical_decision_task_DD,2021.2.3,MacIntel,60.04202942,,,,,,,,,,,,0.9919,1,,,,,,,,,,,,,,,,,,,,,,,,0.074155816,-0.295887926,0,0,0,,,,,,,BURIAL,LB,m,m,./images/BURIALLB.png,,,,,,,m,1,0.9919,,,,,,,,0,96,96,59,1
,,,,,,,,,,,,,,,,,199183,19,2022-02-02_19h34.25.687,lexical_decision_task_DD,2021.2.3,MacIntel,60.04202942,,,,,,,,,,,,0.7002,1,,,,,,,,,,,,,,,,,,,,,,,,0.074155816,-0.295887926,0,0,0,,,,,,,PICKLE,LB,m,m,./images/PICKLELB.png,,,,,,,m,1,0.7002,,,,,,,,0,97,97,14,1
,,,,,,,,,,,,,,,,,199183,19,2022-02-02_19h34.25.687,lexical_decision_task_DD,2021.2.3,MacIntel,60.04202942,,,,,,,,,,,,0.7606,1,,,,,,,,,,,,,,,,,,,,,,,,0.074155816,-0.295887926,0,0,0,,,,,,,STAIN,C,z,m,./images/STAIN.png,,,,,,,z,1,0.7606,,,,,,,,0,98,98,90,1
,,,,,,,,,,,,,,,,,199183,19,2022-02-02_19h34.25.687,lexical_decision_task_DD,2021.2.3,MacIntel,60.04202942,,,,,,,,,,,,0.6326,1,,,,,,,,,,,,,,,,,,,,,,,,0.074155816,-0.295887926,0,0,0,,,,,,,CURRY,C,z,m,./images/CURRY.png,,,,,,,z,1,0.6326,,,,,,,,0,99,99,144,1
,,,,,,,,,,,,,,,,,199183,19,2022-02-02_19h34.25.687,lexical_decision_task_DD,2021.2.3,MacIntel,60.04202942,,,,,,,,,,,,0.792,1,,,,,,,,,,,,,,,,,,,,,,,,0.074155816,-0.295887926,0,0,0,,,,,,,MALLET,LB,m,m,./images/MALLETLB.png,,,,,,,m,1,0.792,,,,,,,,0,100,100,50,1
,,,,,,,,,,,,,,,,,199183,19,2022-02-02_19h34.25.687,lexical_decision_task_DD,2021.2.3,MacIntel,60.04202942,,,,,,,,,,,,0.7206,1,,,,,,,,,,,,,,,,,,,,,,,,0.074155816,-0.295887926,0,0,0,,,,,,,PIMPLE,LB,m,m,./images/PIMPLELB.png,,,,,,,m,1,0.7206,,,,,,,,0,101,101,71,1
,,,,,,,,,,,,,,,,,199183,19,2022-02-02_19h34.25.687,lexical_decision_task_DD,2021.2.3,MacIntel,60.04202942,,,,,,,,,,,,0.6838,1,,,,,,,,,,,,,,,,,,,,,,,,0.074155816,-0.295887926,0,0,0,,,,,,,WAGON,HB,z,m,./images/WAGONHB.png,,,,,,,z,1,0.6838,,,,,,,,0,102,102,91,1
,,,,,,,,,,,,,,,,,199183,19,2022-02-02_19h34.25.687,lexical_decision_task_DD,2021.2.3,MacIntel,60.04202942,,,,,,,,,,,,0.8518,0,,,,,,,,,,,,,,,,,,,,,,,,0.074155816,-0.295887926,0,0,0,,,,,,,SNACK,HB,m,m,./images/SNACKHB.png,,,,,,,z,0,0.8518,,,,,,,,0,103,103,73,1
,,,,,,,,,,,,,,,,,199183,19,2022-02-02_19h34.25.687,lexical_decision_task_DD,2021.2.3,MacIntel,60.04202942,,,,,,,,,,,,0.7143,1,,,,,,,,,,,,,,,,,,,,,,,,0.074155816,-0.295887926,0,0,0,,,,,,,TOMATO,C,m,m,./images/TOMATO.png,,,,,,,m,1,0.7143,,,,,,,,0,104,104,0,1
,,,,,,,,,,,,,,,,,199183,19,2022-02-02_19h34.25.687,lexical_decision_task_DD,2021.2.3,MacIntel,60.04202942,,,,,,,,,,,,0.7955,0,,,,,,,,,,,,,,,,,,,,,,,,0.074155816,-0.295887926,0,0,0,,,,,,,FOLDER,C,m,m,./images/FOLDER.png,,,,,,,z,0,0.7955,,,,,,,,0,105,105,42,1
,,,,,,,,,,,,,,,,,199183,19,2022-02-02_19h34.25.687,lexical_decision_task_DD,2021.2.3,MacIntel,60.04202942,,,,,,,,,,,,0.8736,1,,,,,,,,,,,,,,,,,,,,,,,,0.074155816,-0.295887926,0,0,0,,,,,,,CARPET,LB,m,m,./images/CARPETLB.png,,,,,,,m,1,0.8736,,,,,,,,0,106,106,53,1
,,,,,,,,,,,,,,,,,199183,19,2022-02-02_19h34.25.687,lexical_decision_task_DD,2021.2.3,MacIntel,60.04202942,,,,,,,,,,,,0.6446,1,,,,,,,,,,,,,,,,,,,,,,,,0.074155816,-0.295887926,0,0,0,,,,,,,BRIDE,HB,z,m,./images/BRIDEHB.png,,,,,,,z,1,0.6446,,,,,,,,0,107,107,148,1
,,,,,,,,,,,,,,,,,199183,19,2022-02-02_19h34.25.687,lexical_decision_task_DD,2021.2.3,MacIntel,60.04202942,,,,,,,,,,,,0.7035,0,,,,,,,,,,,,,,,,,,,,,,,,0.074155816,-0.295887926,0,0,0,,,,,,,TWINS,C,m,m,./images/TWINS.png,,,,,,,z,0,0.7035,,,,,,,,0,108,108,60,1
,,,,,,,,,,,,,,,,,199183,19,2022-02-02_19h34.25.687,lexical_decision_task_DD,2021.2.3,MacIntel,60.04202942,,,,,,,,,,,,1.2262,1,,,,,,,,,,,,,,,,,,,,,,,,0.074155816,-0.295887926,0,0,0,,,,,,,MUSCLE,HB,m,m,./images/MUSCLEHB.png,,,,,,,m,1,1.2262,,,,,,,,0,109,109,4,1
,,,,,,,,,,,,,,,,,199183,19,2022-02-02_19h34.25.687,lexical_decision_task_DD,2021.2.3,MacIntel,60.04202942,,,,,,,,,,,,0.5738,0,,,,,,,,,,,,,,,,,,,,,,,,0.074155816,-0.295887926,0,0,0,,,,,,,SNAKE,HB,z,m,./images/SNAKEHB.png,,,,,,,m,0,0.5738,,,,,,,,0,110,110,124,1
,,,,,,,,,,,,,,,,,199183,19,2022-02-02_19h34.25.687,lexical_decision_task_DD,2021.2.3,MacIntel,60.04202942,,,,,,,,,,,,0.5112,1,,,,,,,,,,,,,,,,,,,,,,,,0.074155816,-0.295887926,0,0,0,,,,,,,FLASK,C,z,m,./images/FLASK.png,,,,,,,z,1,0.5112,,,,,,,,0,111,111,156,1
,,,,,,,,,,,,,,,,,199183,19,2022-02-02_19h34.25.687,lexical_decision_task_DD,2021.2.3,MacIntel,60.04202942,,,,,,,,,,,,0.6619,1,,,,,,,,,,,,,,,,,,,,,,,,0.074155816,-0.295887926,0,0,0,,,,,,,BUBBLE,LB,z,m,./images/BUBBLELB.png,,,,,,,z,1,0.6619,,,,,,,,0,112,112,155,1
,,,,,,,,,,,,,,,,,199183,19,2022-02-02_19h34.25.687,lexical_decision_task_DD,2021.2.3,MacIntel,60.04202942,,,,,,,,,,,,0.6167,1,,,,,,,,,,,,,,,,,,,,,,,,0.074155816,-0.295887926,0,0,0,,,,,,,BAKER,C,z,m,./images/BAKER.png,,,,,,,z,1,0.6167,,,,,,,,0,113,113,147,1
,,,,,,,,,,,,,,,,,199183,19,2022-02-02_19h34.25.687,lexical_decision_task_DD,2021.2.3,MacIntel,60.04202942,,,,,,,,,,,,0.7482,1,,,,,,,,,,,,,,,,,,,,,,,,0.074155816,-0.295887926,0,0,0,,,,,,,COOKER,C,m,m,./images/COOKER.png,,,,,,,m,1,0.7482,,,,,,,,0,114,114,69,1
,,,,,,,,,,,,,,,,,199183,19,2022-02-02_19h34.25.687,lexical_decision_task_DD,2021.2.3,MacIntel,60.04202942,,,,,,,,,,,,0.6513,0,,,,,,,,,,,,,,,,,,,,,,,,0.074155816,-0.295887926,0,0,0,,,,,,,BEARD,LB,m,m,./images/BEARDLB.png,,,,,,,z,0,0.6513,,,,,,,,0,115,115,2,1
,,,,,,,,,,,,,,,,,199183,19,2022-02-02_19h34.25.687,lexical_decision_task_DD,2021.2.3,MacIntel,60.04202942,,,,,,,,,,,,0.8812,1,,,,,,,,,,,,,,,,,,,,,,,,0.074155816,-0.295887926,0,0,0,,,,,,,BUNNY,HB,z,m,./images/BUNNYHB.png,,,,,,,z,1,0.8812,,,,,,,,0,116,116,97,1
,,,,,,,,,,,,,,,,,199183,19,2022-02-02_19h34.25.687,lexical_decision_task_DD,2021.2.3,MacIntel,60.04202942,,,,,,,,,,,,0.6008,1,,,,,,,,,,,,,,,,,,,,,,,,0.074155816,-0.295887926,0,0,0,,,,,,,CRADLE,LB,m,m,./images/CRADLELB.png,,,,,,,m,1,0.6008,,,,,,,,0,117,117,20,1
,,,,,,,,,,,,,,,,,199183,19,2022-02-02_19h34.25.687,lexical_decision_task_DD,2021.2.3,MacIntel,60.04202942,,,,,,,,,,,,0.6804,1,,,,,,,,,,,,,,,,,,,,,,,,0.074155816,-0.295887926,0,0,0,,,,,,,RULER,HB,z,m,./images/RULERHB.png,,,,,,,z,1,0.6804,,,,,,,,0,118,118,163,1
,,,,,,,,,,,,,,,,,199183,19,2022-02-02_19h34.25.687,lexical_decision_task_DD,2021.2.3,MacIntel,60.04202942,,,,,,,,,,,,0.7121,1,,,,,,,,,,,,,,,,,,,,,,,,0.074155816,-0.295887926,0,0,0,,,,,,,TRIPOD,C,m,m,./images/TRIPOD.png,,,,,,,m,1,0.7121,,,,,,,,0,119,119,54,1
,,,,,,,,,,,,,,,,,199183,19,2022-02-02_19h34.25.687,lexical_decision_task_DD,2021.2.3,MacIntel,60.04202942,,,,,,,,,,,,0.7053,1,,,,,,,,,,,,,,,,,,,,,,,,0.074155816,-0.295887926,0,0,0,,,,,,,ONION,C,m,m,./images/ONION.png,,,,,,,m,1,0.7053,,,,,,,,0,120,120,51,1
,,,,,,,,,,,,,,,,,199183,19,2022-02-02_19h34.25.687,lexical_decision_task_DD,2021.2.3,MacIntel,60.04202942,,,,,,,,,,,,0.7362,0,,,,,,,,,,,,,,,,,,,,,,,,0.074155816,-0.295887926,0,0,0,,,,,,,CRATER,C,z,m,./images/CRATER.png,,,,,,,m,0,0.7362,,,,,,,,0,121,121,87,1
,,,,,,,,,,,,,,,,,199183,19,2022-02-02_19h34.25.687,lexical_decision_task_DD,2021.2.3,MacIntel,60.04202942,,,,,,,,,,,,0.616,1,,,,,,,,,,,,,,,,,,,,,,,,0.074155816,-0.295887926,0,0,0,,,,,,,SHORE,C,m,m,./images/SHORE.png,,,,,,,m,1,0.616,,,,,,,,0,122,122,12,1
,,,,,,,,,,,,,,,,,199183,19,2022-02-02_19h34.25.687,lexical_decision_task_DD,2021.2.3,MacIntel,60.04202942,,,,,,,,,,,,0.6994,1,,,,,,,,,,,,,,,,,,,,,,,,0.074155816,-0.295887926,0,0,0,,,,,,,DIVER,C,z,m,./images/DIVER.png,,,,,,,z,1,0.6994,,,,,,,,0,123,123,93,1
,,,,,,,,,,,,,,,,,199183,19,2022-02-02_19h34.25.687,lexical_decision_task_DD,2021.2.3,MacIntel,60.04202942,,,,,,,,,,,,0.5685,0,,,,,,,,,,,,,,,,,,,,,,,,0.074155816,-0.295887926,0,0,0,,,,,,,BANNER,HB,m,m,./images/BANNERHB.png,,,,,,,z,0,0.5685,,,,,,,,0,124,124,52,1
,,,,,,,,,,,,,,,,,199183,19,2022-02-02_19h34.25.687,lexical_decision_task_DD,2021.2.3,MacIntel,60.04202942,,,,,,,,,,,,0.9857,1,,,,,,,,,,,,,,,,,,,,,,,,0.074155816,-0.295887926,0,0,0,space,,,,,,BAMBOO,LB,z,m,./images/BAMBOOLB.png,1.1138,,,,,,z,1,0.9857,,,,,,,,0,125,125,89,1
,,,,,,,,,,,,,,,,,199183,19,2022-02-02_19h34.25.687,lexical_decision_task_DD,2021.2.3,MacIntel,60.04202942,,,,,,,,,,,,0.6818,1,,,,,,,,,,,,,,,,,,,,,,,,0.074155816,-0.295887926,0,0,0,,,,,,,LAGOON,LB,z,m,./images/LAGOONLB.png,,,,,,,z,1,0.6818,,,,,,,,0,126,126,131,1
,,,,,,,,,,,,,,,,,199183,19,2022-02-02_19h34.25.687,lexical_decision_task_DD,2021.2.3,MacIntel,60.04202942,,,,,,,,,,,,1.4942,1,,,,,,,,,,,,,,,,,,,,,,,,0.074155816,-0.295887926,0,0,0,,,,,,,CLOUD,LB,z,m,./images/CLOUDLB.png,,,,,,,z,1,1.4942,,,,,,,,0,127,127,110,1
,,,,,,,,,,,,,,,,,199183,19,2022-02-02_19h34.25.687,lexical_decision_task_DD,2021.2.3,MacIntel,60.04202942,,,,,,,,,,,,0.6655,1,,,,,,,,,,,,,,,,,,,,,,,,0.074155816,-0.295887926,0,0,0,,,,,,,PISTOL,LB,z,m,./images/PISTOLLB.png,,,,,,,z,1,0.6655,,,,,,,,0,128,128,113,1
,,,,,,,,,,,,,,,,,199183,19,2022-02-02_19h34.25.687,lexical_decision_task_DD,2021.2.3,MacIntel,60.04202942,,,,,,,,,,,,0.6488,1,,,,,,,,,,,,,,,,,,,,,,,,0.074155816,-0.295887926,0,0,0,,,,,,,SCREW,C,m,m,./images/SCREW.png,,,,,,,m,1,0.6488,,,,,,,,0,129,129,24,1
,,,,,,,,,,,,,,,,,199183,19,2022-02-02_19h34.25.687,lexical_decision_task_DD,2021.2.3,MacIntel,60.04202942,,,,,,,,,,,,0.627,1,,,,,,,,,,,,,,,,,,,,,,,,0.074155816,-0.295887926,0,0,0,,,,,,,PEARL,HB,m,m,./images/PEARLHB.png,,,,,,,m,1,0.627,,,,,,,,0,130,130,46,1
,,,,,,,,,,,,,,,,,199183,19,2022-02-02_19h34.25.687,lexical_decision_task_DD,2021.2.3,MacIntel,60.04202942,,,,,,,,,,,,0.4958,1,,,,,,,,,,,,,,,,,,,,,,,,0.074155816,-0.295887926,0,0,0,,,,,,,LIZARD,LB,m,m,./images/LIZARDLB.png,,,,,,,m,1,0.4958,,,,,,,,0,131,131,44,1
,,,,,,,,,,,,,,,,,199183,19,2022-02-02_19h34.25.687,lexical_decision_task_DD,2021.2.3,MacIntel,60.04202942,,,,,,,,,,,,0.7075,1,,,,,,,,,,,,,,,,,,,,,,,,0.074155816,-0.295887926,0,0,0,,,,,,,GARDEN,HB,z,m,./images/GARDENHB.png,,,,,,,z,1,0.7075,,,,,,,,0,132,132,94,1
,,,,,,,,,,,,,,,,,199183,19,2022-02-02_19h34.25.687,lexical_decision_task_DD,2021.2.3,MacIntel,60.04202942,,,,,,,,,,,,0.6057,1,,,,,,,,,,,,,,,,,,,,,,,,0.074155816,-0.295887926,0,0,0,,,,,,,HEATER,LB,z,m,./images/HEATERLB.png,,,,,,,z,1,0.6057,,,,,,,,0,133,133,140,1
,,,,,,,,,,,,,,,,,199183,19,2022-02-02_19h34.25.687,lexical_decision_task_DD,2021.2.3,MacIntel,60.04202942,,,,,,,,,,,,0.645,1,,,,,,,,,,,,,,,,,,,,,,,,0.074155816,-0.295887926,0,0,0,,,,,,,SUNSET,HB,m,m,./images/SUNSETHB.png,,,,,,,m,1,0.645,,,,,,,,0,134,134,82,1
,,,,,,,,,,,,,,,,,199183,19,2022-02-02_19h34.25.687,lexical_decision_task_DD,2021.2.3,MacIntel,60.04202942,,,,,,,,,,,,0.5518,1,,,,,,,,,,,,,,,,,,,,,,,,0.074155816,-0.295887926,0,0,0,,,,,,,ATTIC,C,m,m,./images/ATTIC.png,,,,,,,m,1,0.5518,,,,,,,,0,135,135,27,1
,,,,,,,,,,,,,,,,,199183,19,2022-02-02_19h34.25.687,lexical_decision_task_DD,2021.2.3,MacIntel,60.04202942,,,,,,,,,,,,0.5849,1,,,,,,,,,,,,,,,,,,,,,,,,0.074155816,-0.295887926,0,0,0,,,,,,,PEBBLE,HB,z,m,./images/PEBBLEHB.png,,,,,,,z,1,0.5849,,,,,,,,0,136,136,166,1
,,,,,,,,,,,,,,,,,199183,19,2022-02-02_19h34.25.687,lexical_decision_task_DD,2021.2.3,MacIntel,60.04202942,,,,,,,,,,,,0.7173,1,,,,,,,,,,,,,,,,,,,,,,,,0.074155816,-0.295887926,0,0,0,,,,,,,COLLAR,C,z,m,./images/COLLAR.png,,,,,,,z,1,0.7173,,,,,,,,0,137,137,99,1
,,,,,,,,,,,,,,,,,199183,19,2022-02-02_19h34.25.687,lexical_decision_task_DD,2021.2.3,MacIntel,60.04202942,,,,,,,,,,,,0.7598,1,,,,,,,,,,,,,,,,,,,,,,,,0.074155816,-0.295887926,0,0,0,,,,,,,SWING,HB,m,m,./images/SWINGHB.png,,,,,,,m,1,0.7598,,,,,,,,0,138,138,40,1
,,,,,,,,,,,,,,,,,199183,19,2022-02-02_19h34.25.687,lexical_decision_task_DD,2021.2.3,MacIntel,60.04202942,,,,,,,,,,,,0.653,1,,,,,,,,,,,,,,,,,,,,,,,,0.074155816,-0.295887926,0,0,0,,,,,,,KIDNEY,C,m,m,./images/KIDNEY.png,,,,,,,m,1,0.653,,,,,,,,0,139,139,21,1
,,,,,,,,,,,,,,,,,199183,19,2022-02-02_19h34.25.687,lexical_decision_task_DD,2021.2.3,MacIntel,60.04202942,,,,,,,,,,,,0.6095,1,,,,,,,,,,,,,,,,,,,,,,,,0.074155816,-0.295887926,0,0,0,,,,,,,CEMENT,LB,m,m,./images/CEMENTLB.png,,,,,,,m,1,0.6095,,,,,,,,0,140,140,74,1
,,,,,,,,,,,,,,,,,199183,19,2022-02-02_19h34.25.687,lexical_decision_task_DD,2021.2.3,MacIntel,60.04202942,,,,,,,,,,,,0.5327,1,,,,,,,,,,,,,,,,,,,,,,,,0.074155816,-0.295887926,0,0,0,,,,,,,THROAT,C,m,m,./images/THROAT.png,,,,,,,m,1,0.5327,,,,,,,,0,141,141,36,1
,,,,,,,,,,,,,,,,,199183,19,2022-02-02_19h34.25.687,lexical_decision_task_DD,2021.2.3,MacIntel,60.04202942,,,,,,,,,,,,0.8064,1,,,,,,,,,,,,,,,,,,,,,,,,0.074155816,-0.295887926,0,0,0,,,,,,,CRUMB,LB,m,m,./images/CRUMBLB.png,,,,,,,m,1,0.8064,,,,,,,,0,142,142,29,1
,,,,,,,,,,,,,,,,,199183,19,2022-02-02_19h34.25.687,lexical_decision_task_DD,2021.2.3,MacIntel,60.04202942,,,,,,,,,,,,0.7514,1,,,,,,,,,,,,,,,,,,,,,,,,0.074155816,-0.295887926,0,0,0,,,,,,,BISHOP,HB,z,m,./images/BISHOPHB.png,,,,,,,z,1,0.7514,,,,,,,,0,143,143,133,1
,,,,,,,,,,,,,,,,,199183,19,2022-02-02_19h34.25.687,lexical_decision_task_DD,2021.2.3,MacIntel,60.04202942,,,,,,,,,,,,0.781,0,,,,,,,,,,,,,,,,,,,,,,,,0.074155816,-0.295887926,0,0,0,,,,,,,BASKET,LB,z,m,./images/BASKETLB.png,,,,,,,m,0,0.781,,,,,,,,0,144,144,128,1
,,,,,,,,,,,,,,,,,199183,19,2022-02-02_19h34.25.687,lexical_decision_task_DD,2021.2.3,MacIntel,60.04202942,,,,,,,,,,,,0.6653,1,,,,,,,,,,,,,,,,,,,,,,,,0.074155816,-0.295887926,0,0,0,,,,,,,KITTEN,C,m,m,./images/KITTEN.png,,,,,,,m,1,0.6653,,,,,,,,0,145,145,45,1
,,,,,,,,,,,,,,,,,199183,19,2022-02-02_19h34.25.687,lexical_decision_task_DD,2021.2.3,MacIntel,60.04202942,,,,,,,,,,,,0.8183,0,,,,,,,,,,,,,,,,,,,,,,,,0.074155816,-0.295887926,0,0,0,,,,,,,SPORT,C,m,m,./images/SPORT.png,,,,,,,z,0,0.8183,,,,,,,,0,146,146,48,1
,,,,,,,,,,,,,,,,,199183,19,2022-02-02_19h34.25.687,lexical_decision_task_DD,2021.2.3,MacIntel,60.04202942,,,,,,,,,,,,0.5606,1,,,,,,,,,,,,,,,,,,,,,,,,0.074155816,-0.295887926,0,0,0,,,,,,,STREAM,LB,z,m,./images/STREAMLB.png,,,,,,,z,1,0.5606,,,,,,,,0,147,147,125,1
,,,,,,,,,,,,,,,,,199183,19,2022-02-02_19h34.25.687,lexical_decision_task_DD,2021.2.3,MacIntel,60.04202942,,,,,,,,,,,,0.6842,1,,,,,,,,,,,,,,,,,,,,,,,,0.074155816,-0.295887926,0,0,0,,,,,,,GRAPE,HB,z,m,./images/GRAPEHB.png,,,,,,,z,1,0.6842,,,,,,,,0,148,148,100,1
,,,,,,,,,,,,,,,,,199183,19,2022-02-02_19h34.25.687,lexical_decision_task_DD,2021.2.3,MacIntel,60.04202942,,,,,,,,,,,,0.632,1,,,,,,,,,,,,,,,,,,,,,,,,0.074155816,-0.295887926,0,0,0,,,,,,,FLESH,C,z,m,./images/FLESH.png,,,,,,,z,1,0.632,,,,,,,,0,149,149,108,1
,,,,,,,,,,,,,,,,,199183,19,2022-02-02_19h34.25.687,lexical_decision_task_DD,2021.2.3,MacIntel,60.04202942,,,,,,,,,,,,0.5103,1,,,,,,,,,,,,,,,,,,,,,,,,0.074155816,-0.295887926,0,0,0,,,,,,,DESERT,HB,z,m,./images/DESERTHB.png,,,,,,,z,1,0.5103,,,,,,,,0,150,150,136,1
,,,,,,,,,,,,,,,,,199183,19,2022-02-02_19h34.25.687,lexical_decision_task_DD,2021.2.3,MacIntel,60.04202942,,,,,,,,,,,,0.7065,0,,,,,,,,,,,,,,,,,,,,,,,,0.074155816,-0.295887926,0,0,0,,,,,,,MONKEY,C,z,m,./images/MONKEY.png,,,,,,,m,0,0.7065,,,,,,,,0,151,151,129,1
,,,,,,,,,,,,,,,,,199183,19,2022-02-02_19h34.25.687,lexical_decision_task_DD,2021.2.3,MacIntel,60.04202942,,,,,,,,,,,,0.5263,1,,,,,,,,,,,,,,,,,,,,,,,,0.074155816,-0.295887926,0,0,0,,,,,,,STORM,C,m,m,./images/STORM.png,,,,,,,m,1,0.5263,,,,,,,,0,152,152,30,1
,,,,,,,,,,,,,,,,,199183,19,2022-02-02_19h34.25.687,lexical_decision_task_DD,2021.2.3,MacIntel,60.04202942,,,,,,,,,,,,0.5577,0,,,,,,,,,,,,,,,,,,,,,,,,0.074155816,-0.295887926,0,0,0,,,,,,,PURSE,LB,m,m,./images/PURSELB.png,,,,,,,z,0,0.5577,,,,,,,,0,153,153,62,1
,,,,,,,,,,,,,,,,,199183,19,2022-02-02_19h34.25.687,lexical_decision_task_DD,2021.2.3,MacIntel,60.04202942,,,,,,,,,,,,0.7587,1,,,,,,,,,,,,,,,,,,,,,,,,0.074155816,-0.295887926,0,0,0,,,,,,,CANOE,HB,z,m,./images/CANOEHB.png,,,,,,,z,1,0.7587,,,,,,,,0,154,154,142,1
,,,,,,,,,,,,,,,,,199183,19,2022-02-02_19h34.25.687,lexical_decision_task_DD,2021.2.3,MacIntel,60.04202942,,,,,,,,,,,,1.0086,1,,,,,,,,,,,,,,,,,,,,,,,,0.074155816,-0.295887926,0,0,0,,,,,,,STATUE,C,z,m,./images/STATUE.png,,,,,,,z,1,1.0086,,,,,,,,0,155,155,150,1
,,,,,,,,,,,,,,,,,199183,19,2022-02-02_19h34.25.687,lexical_decision_task_DD,2021.2.3,MacIntel,60.04202942,,,,,,,,,,,,0.8994,1,,,,,,,,,,,,,,,,,,,,,,,,0.074155816,-0.295887926,0,0,0,,,,,,,BANANA,HB,z,m,./images/BANANAHB.png,,,,,,,z,1,0.8994,,,,,,,,0,156,156,154,1
,,,,,,,,,,,,,,,,,199183,19,2022-02-02_19h34.25.687,lexical_decision_task_DD,2021.2.3,MacIntel,60.04202942,,,,,,,,,,,,1.5953,0,,,,,,,,,,,,,,,,,,,,,,,,0.074155816,-0.295887926,0,0,0,,,,,,,CRUST,HB,m,m,./images/CRUSTHB.png,,,,,,,z,0,1.5953,,,,,,,,0,157,157,79,1
,,,,,,,,,,,,,,,,,199183,19,2022-02-02_19h34.25.687,lexical_decision_task_DD,2021.2.3,MacIntel,60.04202942,,,,,,,,,,,,0.8967,1,,,,,,,,,,,,,,,,,,,,,,,,0.074155816,-0.295887926,0,0,0,,,,,,,MOSQUE,HB,m,m,./images/MOSQUEHB.png,,,,,,,m,1,0.8967,,,,,,,,0,158,158,43,1
,,,,,,,,,,,,,,,,,199183,19,2022-02-02_19h34.25.687,lexical_decision_task_DD,2021.2.3,MacIntel,60.04202942,,,,,,,,,,,,0.5492,1,,,,,,,,,,,,,,,,,,,,,,,,0.074155816,-0.295887926,0,0,0,,,,,,,GREASE,C,m,m,./images/GREASE.png,,,,,,,m,1,0.5492,,,,,,,,0,159,159,15,1
,,,,,,,,,,,,,,,,,199183,19,2022-02-02_19h34.25.687,lexical_decision_task_DD,2021.2.3,MacIntel,60.04202942,,,,,,,,,,,,1.3208,0,,,,,,,,,,,,,,,,,,,,,,,,0.074155816,-0.295887926,0,0,0,,,,,,,PLANK,HB,m,m,./images/PLANKHB.png,,,,,,,z,0,1.3208,,,,,,,,0,160,160,1,1
,,,,,,,,,,,,,,,,,199183,19,2022-02-02_19h34.25.687,lexical_decision_task_DD,2021.2.3,MacIntel,60.04202942,,,,,,,,,,,,0.5939,1,,,,,,,,,,,,,,,,,,,,,,,,0.074155816,-0.295887926,0,0,0,,,,,,,POODLE,C,m,m,./images/POODLE.png,,,,,,,m,1,0.5939,,,,,,,,0,161,161,81,1
,,,,,,,,,,,,,,,,,199183,19,2022-02-02_19h34.25.687,lexical_decision_task_DD,2021.2.3,MacIntel,60.04202942,,,,,,,,,,,,0.6814,0,,,,,,,,,,,,,,,,,,,,,,,,0.074155816,-0.295887926,0,0,0,,,,,,,PAINT,HB,m,m,./images/PAINTHB.png,,,,,,,z,0,0.6814,,,,,,,,0,162,162,7,1
,,,,,,,,,,,,,,,,,199183,19,2022-02-02_19h34.25.687,lexical_decision_task_DD,2021.2.3,MacIntel,60.04202942,,,,,,,,,,,,0.5574,1,,,,,,,,,,,,,,,,,,,,,,,,0.074155816,-0.295887926,0,0,0,,,,,,,LADDER,LB,m,m,./images/LADDERLB.png,,,,,,,m,1,0.5574,,,,,,,,0,163,163,38,1
,,,,,,,,,,,,,,,,,199183,19,2022-02-02_19h34.25.687,lexical_decision_task_DD,2021.2.3,MacIntel,60.04202942,,,,,,,,,,,,0.7985,0,,,,,,,,,,,,,,,,,,,,,,,,0.074155816,-0.295887926,0,0,0,,,,,,,PENCE,HB,m,m,./images/PENCEHB.png,,,,,,,z,0,0.7985,,,,,,,,0,164,164,16,1
,,,,,,,,,,,,,,,,,199183,19,2022-02-02_19h34.25.687,lexical_decision_task_DD,2021.2.3,MacIntel,60.04202942,,,,,,,,,,,,0.7172,0,,,,,,,,,,,,,,,,,,,,,,,,0.074155816,-0.295887926,0,0,0,,,,,,,BABOON,HB,m,m,./images/BABOONHB.png,,,,,,,z,0,0.7172,,,,,,,,0,165,165,58,1
,,,,,,,,,,,,,,,,,199183,19,2022-02-02_19h34.25.687,lexical_decision_task_DD,2021.2.3,MacIntel,60.04202942,,,,,,,,,,,,0.6789,0,,,,,,,,,,,,,,,,,,,,,,,,0.074155816,-0.295887926,0,0,0,,,,,,,HAMMER,C,z,m,./images/HAMMER.png,,,,,,,m,0,0.6789,,,,,,,,0,166,166,159,1
,,,,,,,,,,,,,,,,,199183,19,2022-02-02_19h34.25.687,lexical_decision_task_DD,2021.2.3,MacIntel,60.04202942,,,,,,,,,,,,1.0678,0,,,,,,,,,,,,,,,,,,,,,,,,0.074155816,-0.295887926,0,0,0,,,,,,,WRIST,HB,m,m,./images/WRISTHB.png,,,,,,,z,0,1.0678,,,,,,,,0,167,167,25,1
