key_resp.keys,key_resp.rt,instr_done_touch.x,instr_done_touch.y,instr_done_touch.leftButton,instr_done_touch.midButton,instr_done_touch.rightButton,instruction_pages.thisRepN,instruction_pages.thisTrialN,instruction_pages.thisN,instruction_pages.thisIndex,instruction_pages.ran,pageN,phase,instruct_text,has_image,instruct_image,participant,age,date,expName,psychopyVersion,OS,frameRate,response.keys,response.corr,response.rt,touch_resp.x,touch_resp.y,touch_resp.leftButton,touch_resp.midButton,touch_resp.rightButton,touch_resp.time,touch_resp.clicked_name,rt,corr,practrials.thisRepN,practrials.thisTrialN,practrials.thisN,practrials.thisIndex,practrials.ran,TrialID,Target,corrAns,end_of_practice_trials_pages.thisRepN,end_of_practice_trials_pages.thisTrialN,end_of_practice_trials_pages.thisN,end_of_practice_trials_pages.thisIndex,end_of_practice_trials_pages.ran,key_resp_2.keys,key_resp_2.corr,key_resp_2.rt,targ_click.x,targ_click.y,targ_click.leftButton,targ_click.midButton,targ_click.rightButton,targ_click.time,targ_click.clicked_name,break_done_touch.x,break_done_touch.y,break_done_touch.leftButton,break_done_touch.midButton,break_done_touch.rightButton,break_done_keyboard.keys,maintrials.thisRepN,maintrials.thisTrialN,maintrials.thisN,maintrials.thisIndex,maintrials.ran,string,blur,study,lex,stim_path,break_done_keyboard.rt,test_instructions.thisRepN,test_instructions.thisTrialN,test_instructions.thisN,test_instructions.thisIndex,test_instructions.ran,key_resp_3.keys,key_resp_3.corr,key_resp_3.rt,test_click.x,test_click.y,test_click.leftButton,test_click.midButton,test_click.rightButton,test_click.time,test_click.clicked_name,test_phase.thisRepN,test_phase.thisTrialN,test_phase.thisN,test_phase.thisIndex,test_phase.ran
space,64.8037,-0.8,0.5,0,0,0,0,0,0,0,1,1,instructions,"INSTRUCTIONS
At the start of each trial, look at the plus sign  (+) in the center of the screen.  This tells you that a trial is about to begin and where to look. Second, the plus sign will disappear and a string of letters will appear. Your task is to determine if the string of letters is a word or not. If the item is a word press the M key (on keyboard)  or touch the word button (phone/tablet).  If the item is not a word,  press the  Z key (on keyboard)  or touch the nonword button (on phone/tablet). 
Press the space bar or touch  continue.",0,,199171,18,2022-01-29_24h16.20.330,lexical_decision_task_DD_L5,2021.2.3,MacIntel,60.0024001,,,,,,,,,,,,,,,,,,,,,,,,,,,,,,,,,,,,,,,,,,,,,,,,,,,,,,,,,,,,,,,,,,,,,,,,
space,8.7936,-0.8,0.5,0,0,0,0,1,1,1,1,2,instructions,"If your device has a keyboard, press the 'Z' key for nonwords and the 'M' key for words.





Press the space bar or touch the button below to continue.",0,keyboard-example.gif,199171,18,2022-01-29_24h16.20.330,lexical_decision_task_DD_L5,2021.2.3,MacIntel,60.0024001,,,,,,,,,,,,,,,,,,,,,,,,,,,,,,,,,,,,,,,,,,,,,,,,,,,,,,,,,,,,,,,,,,,,,,,,
space,12.7876,-0.8,0.5,0,0,0,0,2,2,2,1,3,instructions,"If you are using a touchscreen only device, use the buttons on the screen. Do not use the mouse.





Press the space bar or touch the button below to continue.",0,touchscreen-example.gif,199171,18,2022-01-29_24h16.20.330,lexical_decision_task_DD_L5,2021.2.3,MacIntel,60.0024001,,,,,,,,,,,,,,,,,,,,,,,,,,,,,,,,,,,,,,,,,,,,,,,,,,,,,,,,,,,,,,,,,,,,,,,,
space,13.9682,-0.8,0.5,0,0,0,0,3,3,3,1,4,instructions,"It is very important that you respond as quickly and accurately as possible, as each letter string will only be on the screen for two seconds. If you do not respond within this time, the message 'Too slow!' will be displayed and the experiment will progress to the next letter string. The first 20 trials will be practice trials and you will receive feedback on your answers. 

Press the space bar or touch the button below to start the practice trials.",0,,199171,18,2022-01-29_24h16.20.330,lexical_decision_task_DD_L5,2021.2.3,MacIntel,60.0024001,,,,,,,,,,,,,,,,,,,,,,,,,,,,,,,,,,,,,,,,,,,,,,,,,,,,,,,,,,,,,,,,,,,,,,,,
,,,,,,,,,,,,,,,,,199171,18,2022-01-29_24h16.20.330,lexical_decision_task_DD_L5,2021.2.3,MacIntel,60.0024001,m,0,1.5468,,,,,,,,1.5468,0,0,0,0,14,1,1001,THRALE,z,,,,,,,,,,,,,,,,,,,,,,,,,,,,,,,,,,,,,,,,,,,,,,,,,,,,
,,,,,,,,,,,,,,,,,199171,18,2022-01-29_24h16.20.330,lexical_decision_task_DD_L5,2021.2.3,MacIntel,60.0024001,m,0,1.0578,,,,,,,,1.0578,0,0,1,1,10,1,1001,INLADE,z,,,,,,,,,,,,,,,,,,,,,,,,,,,,,,,,,,,,,,,,,,,,,,,,,,,,
,,,,,,,,,,,,,,,,,199171,18,2022-01-29_24h16.20.330,lexical_decision_task_DD_L5,2021.2.3,MacIntel,60.0024001,z,1,1.3933,,,,,,,,1.3933,1,0,2,2,12,1,1001,SPRINY,z,,,,,,,,,,,,,,,,,,,,,,,,,,,,,,,,,,,,,,,,,,,,,,,,,,,,
,,,,,,,,,,,,,,,,,199171,18,2022-01-29_24h16.20.330,lexical_decision_task_DD_L5,2021.2.3,MacIntel,60.0024001,m,0,1.1632,,,,,,,,1.1632,0,0,3,3,13,1,1001,ROUPET,z,,,,,,,,,,,,,,,,,,,,,,,,,,,,,,,,,,,,,,,,,,,,,,,,,,,,
,,,,,,,,,,,,,,,,,199171,18,2022-01-29_24h16.20.330,lexical_decision_task_DD_L5,2021.2.3,MacIntel,60.0024001,m,1,1.2927,,,,,,,,1.2927,1,0,4,4,6,1,1001,ZOMBIE,m,,,,,,,,,,,,,,,,,,,,,,,,,,,,,,,,,,,,,,,,,,,,,,,,,,,,
,,,,,,,,,,,,,,,,,199171,18,2022-01-29_24h16.20.330,lexical_decision_task_DD_L5,2021.2.3,MacIntel,60.0024001,m,0,1.2484,,,,,,,,1.2484,0,0,5,5,9,1,1001,FARINY,z,,,,,,,,,,,,,,,,,,,,,,,,,,,,,,,,,,,,,,,,,,,,,,,,,,,,
,,,,,,,,,,,,,,,,,199171,18,2022-01-29_24h16.20.330,lexical_decision_task_DD_L5,2021.2.3,MacIntel,60.0024001,m,1,0.8791,,,,,,,,0.8791,1,0,6,6,3,1,1001,MATRIX,m,,,,,,,,,,,,,,,,,,,,,,,,,,,,,,,,,,,,,,,,,,,,,,,,,,,,
,,,,,,,,,,,,,,,,,199171,18,2022-01-29_24h16.20.330,lexical_decision_task_DD_L5,2021.2.3,MacIntel,60.0024001,z,1,1.8012,,,,,,,,1.8012,1,0,7,7,8,1,1001,ASLERT,z,,,,,,,,,,,,,,,,,,,,,,,,,,,,,,,,,,,,,,,,,,,,,,,,,,,,
,,,,,,,,,,,,,,,,,199171,18,2022-01-29_24h16.20.330,lexical_decision_task_DD_L5,2021.2.3,MacIntel,60.0024001,m,1,0.8138,,,,,,,,0.8138,1,0,8,8,1,1,1001,ADJUST,m,,,,,,,,,,,,,,,,,,,,,,,,,,,,,,,,,,,,,,,,,,,,,,,,,,,,
,,,,,,,,,,,,,,,,,199171,18,2022-01-29_24h16.20.330,lexical_decision_task_DD_L5,2021.2.3,MacIntel,60.0024001,m,1,0.7121,,,,,,,,0.7121,1,0,9,9,4,1,1001,SQUEAK,m,,,,,,,,,,,,,,,,,,,,,,,,,,,,,,,,,,,,,,,,,,,,,,,,,,,,
,,,,,,,,,,,,,,,,,199171,18,2022-01-29_24h16.20.330,lexical_decision_task_DD_L5,2021.2.3,MacIntel,60.0024001,z,1,1.0008,,,,,,,,1.0008,1,0,10,10,11,1,1001,RASHET,z,,,,,,,,,,,,,,,,,,,,,,,,,,,,,,,,,,,,,,,,,,,,,,,,,,,,
,,,,,,,,,,,,,,,,,199171,18,2022-01-29_24h16.20.330,lexical_decision_task_DD_L5,2021.2.3,MacIntel,60.0024001,m,1,0.7357,,,,,,,,0.7357,1,0,11,11,2,1,1001,ALMOND,m,,,,,,,,,,,,,,,,,,,,,,,,,,,,,,,,,,,,,,,,,,,,,,,,,,,,
,,,,,,,,,,,,,,,,,199171,18,2022-01-29_24h16.20.330,lexical_decision_task_DD_L5,2021.2.3,MacIntel,60.0024001,m,1,0.6649,,,,,,,,0.6649,1,0,12,12,7,1,1001,VOLUME,m,,,,,,,,,,,,,,,,,,,,,,,,,,,,,,,,,,,,,,,,,,,,,,,,,,,,
,,,,,,,,,,,,,,,,,199171,18,2022-01-29_24h16.20.330,lexical_decision_task_DD_L5,2021.2.3,MacIntel,60.0024001,z,1,0.8772,,,,,,,,0.8772,1,0,13,13,15,1,1001,WHAISE,z,,,,,,,,,,,,,,,,,,,,,,,,,,,,,,,,,,,,,,,,,,,,,,,,,,,,
,,,,,,,,,,,,,,,,,199171,18,2022-01-29_24h16.20.330,lexical_decision_task_DD_L5,2021.2.3,MacIntel,60.0024001,m,1,0.5901,,,,,,,,0.5901,1,0,14,14,5,1,1001,OBTAIN,m,,,,,,,,,,,,,,,,,,,,,,,,,,,,,,,,,,,,,,,,,,,,,,,,,,,,
,,,,,,,,,,,,,,,,,199171,18,2022-01-29_24h16.20.330,lexical_decision_task_DD_L5,2021.2.3,MacIntel,60.0024001,m,1,0.8032,,,,,,,,0.8032,1,0,15,15,0,1,1001,UTOPIA,m,,,,,,,,,,,,,,,,,,,,,,,,,,,,,,,,,,,,,,,,,,,,,,,,,,,,
space,13.0691,-0.8,0.5,0,0,0,,,,,,1,end_of_practice,"You have completed the practice trials. During the experimental trials, you will not receive feedback. 
Before you begin, please ensure that you are in a comfortable and quiet location and will not be disturbed for about 15 minutes, as we cannot use your data if you do not complete all the trials. 
 When you are ready to start the experimental trials, please press space or touch the button below.",,,199171,18,2022-01-29_24h16.20.330,lexical_decision_task_DD_L5,2021.2.3,MacIntel,60.0024001,,,,,,,,,,,,,,,,,,,,,0,0,0,0,1,,,,,,,,,,,,,,,,,,,,,,,,,,,,,,,,,,,,,,,,,,,,,,,
,,,,,,,,,,,,,,,,,199171,18,2022-01-29_24h16.20.330,lexical_decision_task_DD_L5,2021.2.3,MacIntel,60.0024001,,,,,,,,,,,2.3713,0,,,,,,,,,,,,,,m,0,2.3713,,,,,,,,-0.8,0.5,0,0,0,,0,0,0,115,1,MAWNS,HB,old,z,./images/MAWNSHB.png,,,,,,,,,,,,,,,,,,,,,
,,,,,,,,,,,,,,,,,199171,18,2022-01-29_24h16.20.330,lexical_decision_task_DD_L5,2021.2.3,MacIntel,60.0024001,,,,,,,,,,,0.9818,1,,,,,,,,,,,,,,m,1,0.9818,,,,,,,,-0.8,0.5,0,0,0,,0,1,1,31,1,STEAK,LB,old,m,./images/STEAKLB.png,,,,,,,,,,,,,,,,,,,,,
,,,,,,,,,,,,,,,,,199171,18,2022-01-29_24h16.20.330,lexical_decision_task_DD_L5,2021.2.3,MacIntel,60.0024001,,,,,,,,,,,0.9839,1,,,,,,,,,,,,,,m,1,0.9839,,,,,,,,-0.8,0.5,0,0,0,,0,2,2,78,1,BROOM,HB,old,m,./images/BROOMHB.png,,,,,,,,,,,,,,,,,,,,,
,,,,,,,,,,,,,,,,,199171,18,2022-01-29_24h16.20.330,lexical_decision_task_DD_L5,2021.2.3,MacIntel,60.0024001,,,,,,,,,,,1.1293,1,,,,,,,,,,,,,,z,1,1.1293,,,,,,,,-0.8,0.5,0,0,0,,0,3,3,153,1,CLUPS,C,old,z,./images/CLUPS.png,,,,,,,,,,,,,,,,,,,,,
,,,,,,,,,,,,,,,,,199171,18,2022-01-29_24h16.20.330,lexical_decision_task_DD_L5,2021.2.3,MacIntel,60.0024001,,,,,,,,,,,0.77,1,,,,,,,,,,,,,,m,1,0.77,,,,,,,,-0.8,0.5,0,0,0,,0,4,4,54,1,CHERRY,HB,old,m,./images/CHERRYHB.png,,,,,,,,,,,,,,,,,,,,,
,,,,,,,,,,,,,,,,,199171,18,2022-01-29_24h16.20.330,lexical_decision_task_DD_L5,2021.2.3,MacIntel,60.0024001,,,,,,,,,,,0.9148,1,,,,,,,,,,,,,,m,1,0.9148,,,,,,,,-0.8,0.5,0,0,0,,0,5,5,42,1,CHAIN,HB,old,m,./images/CHAINHB.png,,,,,,,,,,,,,,,,,,,,,
,,,,,,,,,,,,,,,,,199171,18,2022-01-29_24h16.20.330,lexical_decision_task_DD_L5,2021.2.3,MacIntel,60.0024001,,,,,,,,,,,1.021,1,,,,,,,,,,,,,,z,1,1.021,,,,,,,,-0.8,0.5,0,0,0,,0,6,6,91,1,SHENS,HB,old,z,./images/SHENSHB.png,,,,,,,,,,,,,,,,,,,,,
,,,,,,,,,,,,,,,,,199171,18,2022-01-29_24h16.20.330,lexical_decision_task_DD_L5,2021.2.3,MacIntel,60.0024001,,,,,,,,,,,0.9509,1,,,,,,,,,,,,,,z,1,0.9509,,,,,,,,-0.8,0.5,0,0,0,,0,7,7,162,1,LEICH,C,old,z,./images/LEICH.png,,,,,,,,,,,,,,,,,,,,,
,,,,,,,,,,,,,,,,,199171,18,2022-01-29_24h16.20.330,lexical_decision_task_DD_L5,2021.2.3,MacIntel,60.0024001,,,,,,,,,,,0.9628,1,,,,,,,,,,,,,,m,1,0.9628,,,,,,,,-0.8,0.5,0,0,0,,0,8,8,49,1,BISHOP,LB,old,m,./images/BISHOPLB.png,,,,,,,,,,,,,,,,,,,,,
,,,,,,,,,,,,,,,,,199171,18,2022-01-29_24h16.20.330,lexical_decision_task_DD_L5,2021.2.3,MacIntel,60.0024001,,,,,,,,,,,0.7125,1,,,,,,,,,,,,,,m,1,0.7125,,,,,,,,-0.8,0.5,0,0,0,,0,9,9,34,1,RAZOR,LB,old,m,./images/RAZORLB.png,,,,,,,,,,,,,,,,,,,,,
,,,,,,,,,,,,,,,,,199171,18,2022-01-29_24h16.20.330,lexical_decision_task_DD_L5,2021.2.3,MacIntel,60.0024001,,,,,,,,,,,0.9817,1,,,,,,,,,,,,,,m,1,0.9817,,,,,,,,-0.8,0.5,0,0,0,,0,10,10,0,1,WALNUT,HB,old,m,./images/WALNUTHB.png,,,,,,,,,,,,,,,,,,,,,
,,,,,,,,,,,,,,,,,199171,18,2022-01-29_24h16.20.330,lexical_decision_task_DD_L5,2021.2.3,MacIntel,60.0024001,,,,,,,,,,,1.5532,1,,,,,,,,,,,,,,z,1,1.5532,,,,,,,,-0.8,0.5,0,0,0,,0,11,11,128,1,GRIFT,LB,old,z,./images/GRIFTLB.png,,,,,,,,,,,,,,,,,,,,,
,,,,,,,,,,,,,,,,,199171,18,2022-01-29_24h16.20.330,lexical_decision_task_DD_L5,2021.2.3,MacIntel,60.0024001,,,,,,,,,,,0.7527,1,,,,,,,,,,,,,,z,1,0.7527,,,,,,,,-0.8,0.5,0,0,0,,0,12,12,137,1,JOOST,LB,old,z,./images/JOOSTLB.png,,,,,,,,,,,,,,,,,,,,,
,,,,,,,,,,,,,,,,,199171,18,2022-01-29_24h16.20.330,lexical_decision_task_DD_L5,2021.2.3,MacIntel,60.0024001,,,,,,,,,,,0.8963,1,,,,,,,,,,,,,,z,1,0.8963,,,,,,,,-0.8,0.5,0,0,0,,0,13,13,93,1,SMONE,C,old,z,./images/SMONE.png,,,,,,,,,,,,,,,,,,,,,
,,,,,,,,,,,,,,,,,199171,18,2022-01-29_24h16.20.330,lexical_decision_task_DD_L5,2021.2.3,MacIntel,60.0024001,,,,,,,,,,,1.6638,1,,,,,,,,,,,,,,z,1,1.6638,,,,,,,,-0.8,0.5,0,0,0,,0,14,14,118,1,BAVEL,HB,old,z,./images/BAVELHB.png,,,,,,,,,,,,,,,,,,,,,
,,,,,,,,,,,,,,,,,199171,18,2022-01-29_24h16.20.330,lexical_decision_task_DD_L5,2021.2.3,MacIntel,60.0024001,,,,,,,,,,,0.9329,1,,,,,,,,,,,,,,m,1,0.9329,,,,,,,,-0.8,0.5,0,0,0,,0,15,15,57,1,FERRY,HB,old,m,./images/FERRYHB.png,,,,,,,,,,,,,,,,,,,,,
,,,,,,,,,,,,,,,,,199171,18,2022-01-29_24h16.20.330,lexical_decision_task_DD_L5,2021.2.3,MacIntel,60.0024001,,,,,,,,,,,0.8158,1,,,,,,,,,,,,,,z,1,0.8158,,,,,,,,-0.8,0.5,0,0,0,,0,16,16,114,1,RIKES,C,old,z,./images/RIKES.png,,,,,,,,,,,,,,,,,,,,,
,,,,,,,,,,,,,,,,,199171,18,2022-01-29_24h16.20.330,lexical_decision_task_DD_L5,2021.2.3,MacIntel,60.0024001,,,,,,,,,,,0.7818,1,,,,,,,,,,,,,,m,1,0.7818,,,,,,,,-0.8,0.5,0,0,0,,0,17,17,18,1,PARCEL,HB,old,m,./images/PARCELHB.png,,,,,,,,,,,,,,,,,,,,,
,,,,,,,,,,,,,,,,,199171,18,2022-01-29_24h16.20.330,lexical_decision_task_DD_L5,2021.2.3,MacIntel,60.0024001,,,,,,,,,,,1.1819,1,,,,,,,,,,,,,,m,1,1.1819,,,,,,,,-0.8,0.5,0,0,0,,0,18,18,39,1,CANDY,HB,old,m,./images/CANDYHB.png,,,,,,,,,,,,,,,,,,,,,
,,,,,,,,,,,,,,,,,199171,18,2022-01-29_24h16.20.330,lexical_decision_task_DD_L5,2021.2.3,MacIntel,60.0024001,,,,,,,,,,,0.732,1,,,,,,,,,,,,,,m,1,0.732,,,,,,,,-0.8,0.5,0,0,0,,0,19,19,7,1,WAGON,LB,old,m,./images/WAGONLB.png,,,,,,,,,,,,,,,,,,,,,
,,,,,,,,,,,,,,,,,199171,18,2022-01-29_24h16.20.330,lexical_decision_task_DD_L5,2021.2.3,MacIntel,60.0024001,,,,,,,,,,,0.7849,1,,,,,,,,,,,,,,z,1,0.7849,,,,,,,,-0.8,0.5,0,0,0,,0,20,20,158,1,EGECT,LB,old,z,./images/EGECTLB.png,,,,,,,,,,,,,,,,,,,,,
,,,,,,,,,,,,,,,,,199171,18,2022-01-29_24h16.20.330,lexical_decision_task_DD_L5,2021.2.3,MacIntel,60.0024001,,,,,,,,,,,0.8158,1,,,,,,,,,,,,,,m,1,0.8158,,,,,,,,-0.8,0.5,0,0,0,,0,21,21,6,1,STAIN,HB,old,m,./images/STAINHB.png,,,,,,,,,,,,,,,,,,,,,
,,,,,,,,,,,,,,,,,199171,18,2022-01-29_24h16.20.330,lexical_decision_task_DD_L5,2021.2.3,MacIntel,60.0024001,,,,,,,,,,,0.8182,1,,,,,,,,,,,,,,z,1,0.8182,,,,,,,,-0.8,0.5,0,0,0,,0,22,22,116,1,BALGY,LB,old,z,./images/BALGYLB.png,,,,,,,,,,,,,,,,,,,,,
,,,,,,,,,,,,,,,,,199171,18,2022-01-29_24h16.20.330,lexical_decision_task_DD_L5,2021.2.3,MacIntel,60.0024001,,,,,,,,,,,0.8848,1,,,,,,,,,,,,,,m,1,0.8848,,,,,,,,-0.8,0.5,0,0,0,,0,23,23,51,1,SAUCE,HB,old,m,./images/SAUCEHB.png,,,,,,,,,,,,,,,,,,,,,
,,,,,,,,,,,,,,,,,199171,18,2022-01-29_24h16.20.330,lexical_decision_task_DD_L5,2021.2.3,MacIntel,60.0024001,,,,,,,,,,,2.0832,1,,,,,,,,,,,,,,z,1,2.0832,,,,,,,,-0.8,0.5,0,0,0,,0,24,24,94,1,BLANS,HB,old,z,./images/BLANSHB.png,,,,,,,,,,,,,,,,,,,,,
,,,,,,,,,,,,,,,,,199171,18,2022-01-29_24h16.20.330,lexical_decision_task_DD_L5,2021.2.3,MacIntel,60.0024001,,,,,,,,,,,0.8179,1,,,,,,,,,,,,,,z,1,0.8179,,,,,,,,-0.8,0.5,0,0,0,,0,25,25,167,1,ZONET,LB,old,z,./images/ZONETLB.png,,,,,,,,,,,,,,,,,,,,,
,,,,,,,,,,,,,,,,,199171,18,2022-01-29_24h16.20.330,lexical_decision_task_DD_L5,2021.2.3,MacIntel,60.0024001,,,,,,,,,,,0.7287,1,,,,,,,,,,,,,,m,1,0.7287,,,,,,,,-0.8,0.5,0,0,0,,0,26,26,25,1,CHALK,LB,old,m,./images/CHALKLB.png,,,,,,,,,,,,,,,,,,,,,
,,,,,,,,,,,,,,,,,199171,18,2022-01-29_24h16.20.330,lexical_decision_task_DD_L5,2021.2.3,MacIntel,60.0024001,,,,,,,,,,,1.696,1,,,,,,,,,,,,,,z,1,1.696,,,,,,,,-0.8,0.5,0,0,0,,0,27,27,134,1,TROSS,LB,old,z,./images/TROSSLB.png,,,,,,,,,,,,,,,,,,,,,
,,,,,,,,,,,,,,,,,199171,18,2022-01-29_24h16.20.330,lexical_decision_task_DD_L5,2021.2.3,MacIntel,60.0024001,,,,,,,,,,,0.8103,1,,,,,,,,,,,,,,m,1,0.8103,,,,,,,,-0.8,0.5,0,0,0,,0,28,28,68,1,VALLEY,C,old,m,./images/VALLEY.png,,,,,,,,,,,,,,,,,,,,,
,,,,,,,,,,,,,,,,,199171,18,2022-01-29_24h16.20.330,lexical_decision_task_DD_L5,2021.2.3,MacIntel,60.0024001,,,,,,,,,,,2.1321,1,,,,,,,,,,,,,,z,1,2.1321,,,,,,,,-0.8,0.5,0,0,0,,0,29,29,166,1,SHORY,HB,old,z,./images/SHORYHB.png,,,,,,,,,,,,,,,,,,,,,
,,,,,,,,,,,,,,,,,199171,18,2022-01-29_24h16.20.330,lexical_decision_task_DD_L5,2021.2.3,MacIntel,60.0024001,,,,,,,,,,,0.7705,0,,,,,,,,,,,,,,z,0,0.7705,,,,,,,,-0.8,0.5,0,0,0,,0,30,30,55,1,ALLEY,LB,old,m,./images/ALLEYLB.png,,,,,,,,,,,,,,,,,,,,,
,,,,,,,,,,,,,,,,,199171,18,2022-01-29_24h16.20.330,lexical_decision_task_DD_L5,2021.2.3,MacIntel,60.0024001,,,,,,,,,,,1.8822,1,,,,,,,,,,,,,,z,1,1.8822,,,,,,,,-0.8,0.5,0,0,0,,0,31,31,140,1,DOVET,LB,old,z,./images/DOVETLB.png,,,,,,,,,,,,,,,,,,,,,
,,,,,,,,,,,,,,,,,199171,18,2022-01-29_24h16.20.330,lexical_decision_task_DD_L5,2021.2.3,MacIntel,60.0024001,,,,,,,,,,,2.6492,1,,,,,,,,,,,,,,z,1,2.6492,,,,,,,,-0.8,0.5,0,0,0,,0,32,32,92,1,PAIMS,LB,old,z,./images/PAIMSLB.png,,,,,,,,,,,,,,,,,,,,,
,,,,,,,,,,,,,,,,,199171,18,2022-01-29_24h16.20.330,lexical_decision_task_DD_L5,2021.2.3,MacIntel,60.0024001,,,,,,,,,,,0.6494,1,,,,,,,,,,,,,,m,1,0.6494,,,,,,,,-0.8,0.5,0,0,0,,0,33,33,80,1,PLANET,C,old,m,./images/PLANET.png,,,,,,,,,,,,,,,,,,,,,
,,,,,,,,,,,,,,,,,199171,18,2022-01-29_24h16.20.330,lexical_decision_task_DD_L5,2021.2.3,MacIntel,60.0024001,,,,,,,,,,,1.1178,1,,,,,,,,,,,,,,z,1,1.1178,,,,,,,,-0.8,0.5,0,0,0,,0,34,34,105,1,MOKER,C,old,z,./images/MOKER.png,,,,,,,,,,,,,,,,,,,,,
,,,,,,,,,,,,,,,,,199171,18,2022-01-29_24h16.20.330,lexical_decision_task_DD_L5,2021.2.3,MacIntel,60.0024001,,,,,,,,,,,0.8813,1,,,,,,,,,,,,,,m,1,0.8813,,,,,,,,-0.8,0.5,0,0,0,,0,35,35,52,1,DESERT,LB,old,m,./images/DESERTLB.png,,,,,,,,,,,,,,,,,,,,,
,,,,,,,,,,,,,,,,,199171,18,2022-01-29_24h16.20.330,lexical_decision_task_DD_L5,2021.2.3,MacIntel,60.0024001,,,,,,,,,,,1.1329,0,,,,,,,,,,,,,,m,0,1.1329,,,,,,,,-0.8,0.5,0,0,0,,0,36,36,121,1,CEERS,HB,old,z,./images/CEERSHB.png,,,,,,,,,,,,,,,,,,,,,
,,,,,,,,,,,,,,,,,199171,18,2022-01-29_24h16.20.330,lexical_decision_task_DD_L5,2021.2.3,MacIntel,60.0024001,,,,,,,,,,,1.3006,0,,,,,,,,,,,,,,z,0,1.3006,,,,,,,,-0.8,0.5,0,0,0,,0,37,37,36,1,BOILER,HB,old,m,./images/BOILERHB.png,,,,,,,,,,,,,,,,,,,,,
,,,,,,,,,,,,,,,,,199171,18,2022-01-29_24h16.20.330,lexical_decision_task_DD_L5,2021.2.3,MacIntel,60.0024001,,,,,,,,,,,0.8819,1,,,,,,,,,,,,,,m,1,0.8819,,,,,,,,-0.8,0.5,0,0,0,,0,38,38,63,1,BAKER,HB,old,m,./images/BAKERHB.png,,,,,,,,,,,,,,,,,,,,,
,,,,,,,,,,,,,,,,,199171,18,2022-01-29_24h16.20.330,lexical_decision_task_DD_L5,2021.2.3,MacIntel,60.0024001,,,,,,,,,,,0.7137,1,,,,,,,,,,,,,,m,1,0.7137,,,,,,,,-0.8,0.5,0,0,0,,0,39,39,50,1,PILOT,C,old,m,./images/PILOT.png,,,,,,,,,,,,,,,,,,,,,
,,,,,,,,,,,,,,,,,199171,18,2022-01-29_24h16.20.330,lexical_decision_task_DD_L5,2021.2.3,MacIntel,60.0024001,,,,,,,,,,,0.6936,1,,,,,,,,,,,,,,m,1,0.6936,,,,,,,,-0.8,0.5,0,0,0,,0,40,40,38,1,ENGINE,C,old,m,./images/ENGINE.png,,,,,,,,,,,,,,,,,,,,,
,,,,,,,,,,,,,,,,,199171,18,2022-01-29_24h16.20.330,lexical_decision_task_DD_L5,2021.2.3,MacIntel,60.0024001,,,,,,,,,,,0.6383,1,,,,,,,,,,,,,,m,1,0.6383,,,,,,,,-0.8,0.5,0,0,0,space,0,41,41,79,1,RULER,LB,old,m,./images/RULERLB.png,15.284,,,,,,,,,,,,,,,,,,,,
,,,,,,,,,,,,,,,,,199171,18,2022-01-29_24h16.20.330,lexical_decision_task_DD_L5,2021.2.3,MacIntel,60.0024001,,,,,,,,,,,1.3782,1,,,,,,,,,,,,,,z,1,1.3782,,,,,,,,-0.8,0.5,0,0,0,,0,42,42,147,1,ZOLES,C,old,z,./images/ZOLES.png,,,,,,,,,,,,,,,,,,,,,
,,,,,,,,,,,,,,,,,199171,18,2022-01-29_24h16.20.330,lexical_decision_task_DD_L5,2021.2.3,MacIntel,60.0024001,,,,,,,,,,,1.4322,1,,,,,,,,,,,,,,m,1,1.4322,,,,,,,,-0.8,0.5,0,0,0,,0,43,43,45,1,MONKEY,HB,old,m,./images/MONKEYHB.png,,,,,,,,,,,,,,,,,,,,,
,,,,,,,,,,,,,,,,,199171,18,2022-01-29_24h16.20.330,lexical_decision_task_DD_L5,2021.2.3,MacIntel,60.0024001,,,,,,,,,,,1.1024,1,,,,,,,,,,,,,,z,1,1.1024,,,,,,,,-0.8,0.5,0,0,0,,0,44,44,160,1,VEETS,HB,old,z,./images/VEETSHB.png,,,,,,,,,,,,,,,,,,,,,
,,,,,,,,,,,,,,,,,199171,18,2022-01-29_24h16.20.330,lexical_decision_task_DD_L5,2021.2.3,MacIntel,60.0024001,,,,,,,,,,,0.8037,1,,,,,,,,,,,,,,m,1,0.8037,,,,,,,,-0.8,0.5,0,0,0,,0,45,45,4,1,BOXER,LB,old,m,./images/BOXERLB.png,,,,,,,,,,,,,,,,,,,,,
,,,,,,,,,,,,,,,,,199171,18,2022-01-29_24h16.20.330,lexical_decision_task_DD_L5,2021.2.3,MacIntel,60.0024001,,,,,,,,,,,1.4053,1,,,,,,,,,,,,,,z,1,1.4053,,,,,,,,-0.8,0.5,0,0,0,,0,46,46,130,1,CRILL,HB,old,z,./images/CRILLHB.png,,,,,,,,,,,,,,,,,,,,,
,,,,,,,,,,,,,,,,,199171,18,2022-01-29_24h16.20.330,lexical_decision_task_DD_L5,2021.2.3,MacIntel,60.0024001,,,,,,,,,,,0.9175,1,,,,,,,,,,,,,,m,1,0.9175,,,,,,,,-0.8,0.5,0,0,0,,0,47,47,24,1,FLESH,HB,old,m,./images/FLESHHB.png,,,,,,,,,,,,,,,,,,,,,
,,,,,,,,,,,,,,,,,199171,18,2022-01-29_24h16.20.330,lexical_decision_task_DD_L5,2021.2.3,MacIntel,60.0024001,,,,,,,,,,,2.9122,1,,,,,,,,,,,,,,z,1,2.9122,,,,,,,,-0.8,0.5,0,0,0,,0,48,48,100,1,DRIBS,HB,old,z,./images/DRIBSHB.png,,,,,,,,,,,,,,,,,,,,,
,,,,,,,,,,,,,,,,,199171,18,2022-01-29_24h16.20.330,lexical_decision_task_DD_L5,2021.2.3,MacIntel,60.0024001,,,,,,,,,,,1.5118,1,,,,,,,,,,,,,,z,1,1.5118,,,,,,,,-0.8,0.5,0,0,0,,0,49,49,165,1,TROWN,C,old,z,./images/TROWN.png,,,,,,,,,,,,,,,,,,,,,
,,,,,,,,,,,,,,,,,199171,18,2022-01-29_24h16.20.330,lexical_decision_task_DD_L5,2021.2.3,MacIntel,60.0024001,,,,,,,,,,,0.6153,1,,,,,,,,,,,,,,m,1,0.6153,,,,,,,,-0.8,0.5,0,0,0,,0,50,50,22,1,CLOWN,LB,old,m,./images/CLOWNLB.png,,,,,,,,,,,,,,,,,,,,,
,,,,,,,,,,,,,,,,,199171,18,2022-01-29_24h16.20.330,lexical_decision_task_DD_L5,2021.2.3,MacIntel,60.0024001,,,,,,,,,,,1.8479,1,,,,,,,,,,,,,,z,1,1.8479,,,,,,,,-0.8,0.5,0,0,0,,0,51,51,85,1,CHULK,HB,old,z,./images/CHULKHB.png,,,,,,,,,,,,,,,,,,,,,
,,,,,,,,,,,,,,,,,199171,18,2022-01-29_24h16.20.330,lexical_decision_task_DD_L5,2021.2.3,MacIntel,60.0024001,,,,,,,,,,,1.2982,0,,,,,,,,,,,,,,m,0,1.2982,,,,,,,,-0.8,0.5,0,0,0,,0,52,52,123,1,SEDGE,C,old,z,./images/SEDGE.png,,,,,,,,,,,,,,,,,,,,,
,,,,,,,,,,,,,,,,,199171,18,2022-01-29_24h16.20.330,lexical_decision_task_DD_L5,2021.2.3,MacIntel,60.0024001,,,,,,,,,,,1.1974,1,,,,,,,,,,,,,,z,1,1.1974,,,,,,,,-0.8,0.5,0,0,0,,0,53,53,96,1,KEAMS,C,old,z,./images/KEAMS.png,,,,,,,,,,,,,,,,,,,,,
,,,,,,,,,,,,,,,,,199171,18,2022-01-29_24h16.20.330,lexical_decision_task_DD_L5,2021.2.3,MacIntel,60.0024001,,,,,,,,,,,5.1002,1,,,,,,,,,,,,,,z,1,5.1002,,,,,,,,-0.8,0.5,0,0,0,,0,54,54,106,1,CLUMS,HB,old,z,./images/CLUMSHB.png,,,,,,,,,,,,,,,,,,,,,
,,,,,,,,,,,,,,,,,199171,18,2022-01-29_24h16.20.330,lexical_decision_task_DD_L5,2021.2.3,MacIntel,60.0024001,,,,,,,,,,,0.749,1,,,,,,,,,,,,,,m,1,0.749,,,,,,,,-0.8,0.5,0,0,0,,0,55,55,19,1,DONKEY,LB,old,m,./images/DONKEYLB.png,,,,,,,,,,,,,,,,,,,,,
,,,,,,,,,,,,,,,,,199171,18,2022-01-29_24h16.20.330,lexical_decision_task_DD_L5,2021.2.3,MacIntel,60.0024001,,,,,,,,,,,0.7147,1,,,,,,,,,,,,,,m,1,0.7147,,,,,,,,-0.8,0.5,0,0,0,,0,56,56,77,1,WHEEL,C,old,m,./images/WHEEL.png,,,,,,,,,,,,,,,,,,,,,
,,,,,,,,,,,,,,,,,199171,18,2022-01-29_24h16.20.330,lexical_decision_task_DD_L5,2021.2.3,MacIntel,60.0024001,,,,,,,,,,,1.2318,1,,,,,,,,,,,,,,m,1,1.2318,,,,,,,,-0.8,0.5,0,0,0,,0,57,57,5,1,BAMBOO,C,old,m,./images/BAMBOO.png,,,,,,,,,,,,,,,,,,,,,
,,,,,,,,,,,,,,,,,199171,18,2022-01-29_24h16.20.330,lexical_decision_task_DD_L5,2021.2.3,MacIntel,60.0024001,,,,,,,,,,,0.8765,1,,,,,,,,,,,,,,z,1,0.8765,,,,,,,,-0.8,0.5,0,0,0,,0,58,58,102,1,DULLE,C,old,z,./images/DULLE.png,,,,,,,,,,,,,,,,,,,,,
,,,,,,,,,,,,,,,,,199171,18,2022-01-29_24h16.20.330,lexical_decision_task_DD_L5,2021.2.3,MacIntel,60.0024001,,,,,,,,,,,0.6455,1,,,,,,,,,,,,,,m,1,0.6455,,,,,,,,-0.8,0.5,0,0,0,,0,59,59,35,1,LLAMA,C,old,m,./images/LLAMA.png,,,,,,,,,,,,,,,,,,,,,
,,,,,,,,,,,,,,,,,199171,18,2022-01-29_24h16.20.330,lexical_decision_task_DD_L5,2021.2.3,MacIntel,60.0024001,,,,,,,,,,,1.8196,1,,,,,,,,,,,,,,m,1,1.8196,,,,,,,,-0.8,0.5,0,0,0,,0,60,60,60,1,CURRY,HB,old,m,./images/CURRYHB.png,,,,,,,,,,,,,,,,,,,,,
,,,,,,,,,,,,,,,,,199171,18,2022-01-29_24h16.20.330,lexical_decision_task_DD_L5,2021.2.3,MacIntel,60.0024001,,,,,,,,,,,1.1456,1,,,,,,,,,,,,,,z,1,1.1456,,,,,,,,-0.8,0.5,0,0,0,,0,61,61,120,1,RINED,C,old,z,./images/RINED.png,,,,,,,,,,,,,,,,,,,,,
,,,,,,,,,,,,,,,,,199171,18,2022-01-29_24h16.20.330,lexical_decision_task_DD_L5,2021.2.3,MacIntel,60.0024001,,,,,,,,,,,1.5997,1,,,,,,,,,,,,,,z,1,1.5997,,,,,,,,-0.8,0.5,0,0,0,,0,62,62,112,1,MYING,HB,old,z,./images/MYINGHB.png,,,,,,,,,,,,,,,,,,,,,
,,,,,,,,,,,,,,,,,199171,18,2022-01-29_24h16.20.330,lexical_decision_task_DD_L5,2021.2.3,MacIntel,60.0024001,,,,,,,,,,,0.6642,1,,,,,,,,,,,,,,m,1,0.6642,,,,,,,,-0.8,0.5,0,0,0,,0,63,63,43,1,STOOL,LB,old,m,./images/STOOLLB.png,,,,,,,,,,,,,,,,,,,,,
,,,,,,,,,,,,,,,,,199171,18,2022-01-29_24h16.20.330,lexical_decision_task_DD_L5,2021.2.3,MacIntel,60.0024001,,,,,,,,,,,0.5662,1,,,,,,,,,,,,,,m,1,0.5662,,,,,,,,-0.8,0.5,0,0,0,,0,64,64,1,1,TOWEL,LB,old,m,./images/TOWELLB.png,,,,,,,,,,,,,,,,,,,,,
,,,,,,,,,,,,,,,,,199171,18,2022-01-29_24h16.20.330,lexical_decision_task_DD_L5,2021.2.3,MacIntel,60.0024001,,,,,,,,,,,0.6301,1,,,,,,,,,,,,,,m,1,0.6301,,,,,,,,-0.8,0.5,0,0,0,,0,65,65,29,1,PISTOL,C,old,m,./images/PISTOL.png,,,,,,,,,,,,,,,,,,,,,
,,,,,,,,,,,,,,,,,199171,18,2022-01-29_24h16.20.330,lexical_decision_task_DD_L5,2021.2.3,MacIntel,60.0024001,,,,,,,,,,,1.4611,1,,,,,,,,,,,,,,z,1,1.4611,,,,,,,,-0.8,0.5,0,0,0,,0,66,66,98,1,BAMPS,LB,old,z,./images/BAMPSLB.png,,,,,,,,,,,,,,,,,,,,,
,,,,,,,,,,,,,,,,,199171,18,2022-01-29_24h16.20.330,lexical_decision_task_DD_L5,2021.2.3,MacIntel,60.0024001,,,,,,,,,,,1.5345,1,,,,,,,,,,,,,,z,1,1.5345,,,,,,,,-0.8,0.5,0,0,0,,0,67,67,141,1,PLEET,C,old,z,./images/PLEET.png,,,,,,,,,,,,,,,,,,,,,
,,,,,,,,,,,,,,,,,199171,18,2022-01-29_24h16.20.330,lexical_decision_task_DD_L5,2021.2.3,MacIntel,60.0024001,,,,,,,,,,,1.0475,0,,,,,,,,,,,,,,m,0,1.0475,,,,,,,,-0.8,0.5,0,0,0,,0,68,68,136,1,WERVE,HB,old,z,./images/WERVEHB.png,,,,,,,,,,,,,,,,,,,,,
,,,,,,,,,,,,,,,,,199171,18,2022-01-29_24h16.20.330,lexical_decision_task_DD_L5,2021.2.3,MacIntel,60.0024001,,,,,,,,,,,0.8448,1,,,,,,,,,,,,,,z,1,0.8448,,,,,,,,-0.8,0.5,0,0,0,,0,69,69,95,1,HANTY,LB,old,z,./images/HANTYLB.png,,,,,,,,,,,,,,,,,,,,,
,,,,,,,,,,,,,,,,,199171,18,2022-01-29_24h16.20.330,lexical_decision_task_DD_L5,2021.2.3,MacIntel,60.0024001,,,,,,,,,,,1.0813,1,,,,,,,,,,,,,,z,1,1.0813,,,,,,,,-0.8,0.5,0,0,0,,0,70,70,117,1,STEEG,C,old,z,./images/STEEG.png,,,,,,,,,,,,,,,,,,,,,
,,,,,,,,,,,,,,,,,199171,18,2022-01-29_24h16.20.330,lexical_decision_task_DD_L5,2021.2.3,MacIntel,60.0024001,,,,,,,,,,,0.8317,1,,,,,,,,,,,,,,m,1,0.8317,,,,,,,,-0.8,0.5,0,0,0,,0,71,71,58,1,CANOE,LB,old,m,./images/CANOELB.png,,,,,,,,,,,,,,,,,,,,,
,,,,,,,,,,,,,,,,,199171,18,2022-01-29_24h16.20.330,lexical_decision_task_DD_L5,2021.2.3,MacIntel,60.0024001,,,,,,,,,,,0.7123,1,,,,,,,,,,,,,,m,1,0.7123,,,,,,,,-0.8,0.5,0,0,0,,0,72,72,65,1,SPINE,C,old,m,./images/SPINE.png,,,,,,,,,,,,,,,,,,,,,
,,,,,,,,,,,,,,,,,199171,18,2022-01-29_24h16.20.330,lexical_decision_task_DD_L5,2021.2.3,MacIntel,60.0024001,,,,,,,,,,,0.9525,1,,,,,,,,,,,,,,z,1,0.9525,,,,,,,,-0.8,0.5,0,0,0,,0,73,73,131,1,NACES,LB,old,z,./images/NACESLB.png,,,,,,,,,,,,,,,,,,,,,
,,,,,,,,,,,,,,,,,199171,18,2022-01-29_24h16.20.330,lexical_decision_task_DD_L5,2021.2.3,MacIntel,60.0024001,,,,,,,,,,,0.5978,1,,,,,,,,,,,,,,m,1,0.5978,,,,,,,,-0.8,0.5,0,0,0,,0,74,74,17,1,PARADE,C,old,m,./images/PARADE.png,,,,,,,,,,,,,,,,,,,,,
,,,,,,,,,,,,,,,,,199171,18,2022-01-29_24h16.20.330,lexical_decision_task_DD_L5,2021.2.3,MacIntel,60.0024001,,,,,,,,,,,0.9519,1,,,,,,,,,,,,,,z,1,0.9519,,,,,,,,-0.8,0.5,0,0,0,,0,75,75,101,1,GLEET,LB,old,z,./images/GLEETLB.png,,,,,,,,,,,,,,,,,,,,,
,,,,,,,,,,,,,,,,,199171,18,2022-01-29_24h16.20.330,lexical_decision_task_DD_L5,2021.2.3,MacIntel,60.0024001,,,,,,,,,,,0.6288,1,,,,,,,,,,,,,,m,1,0.6288,,,,,,,,-0.8,0.5,0,0,0,,0,76,76,67,1,POKER,LB,old,m,./images/POKERLB.png,,,,,,,,,,,,,,,,,,,,,
,,,,,,,,,,,,,,,,,199171,18,2022-01-29_24h16.20.330,lexical_decision_task_DD_L5,2021.2.3,MacIntel,60.0024001,,,,,,,,,,,0.9482,1,,,,,,,,,,,,,,z,1,0.9482,,,,,,,,-0.8,0.5,0,0,0,,0,77,77,125,1,MOOKY,LB,old,z,./images/MOOKYLB.png,,,,,,,,,,,,,,,,,,,,,
,,,,,,,,,,,,,,,,,199171,18,2022-01-29_24h16.20.330,lexical_decision_task_DD_L5,2021.2.3,MacIntel,60.0024001,,,,,,,,,,,0.829,1,,,,,,,,,,,,,,m,1,0.829,,,,,,,,-0.8,0.5,0,0,0,,0,78,78,16,1,GRAPE,LB,old,m,./images/GRAPELB.png,,,,,,,,,,,,,,,,,,,,,
,,,,,,,,,,,,,,,,,199171,18,2022-01-29_24h16.20.330,lexical_decision_task_DD_L5,2021.2.3,MacIntel,60.0024001,,,,,,,,,,,0.569,1,,,,,,,,,,,,,,m,1,0.569,,,,,,,,-0.8,0.5,0,0,0,,0,79,79,10,1,GARDEN,LB,old,m,./images/GARDENLB.png,,,,,,,,,,,,,,,,,,,,,
,,,,,,,,,,,,,,,,,199171,18,2022-01-29_24h16.20.330,lexical_decision_task_DD_L5,2021.2.3,MacIntel,60.0024001,,,,,,,,,,,0.5454,1,,,,,,,,,,,,,,m,1,0.5454,,,,,,,,-0.8,0.5,0,0,0,,0,80,80,74,1,JUMPER,C,old,m,./images/JUMPER.png,,,,,,,,,,,,,,,,,,,,,
,,,,,,,,,,,,,,,,,199171,18,2022-01-29_24h16.20.330,lexical_decision_task_DD_L5,2021.2.3,MacIntel,60.0024001,,,,,,,,,,,0.6963,1,,,,,,,,,,,,,,z,1,0.6963,,,,,,,,-0.8,0.5,0,0,0,,0,81,81,126,1,GUELS,C,old,z,./images/GUELS.png,,,,,,,,,,,,,,,,,,,,,
,,,,,,,,,,,,,,,,,199171,18,2022-01-29_24h16.20.330,lexical_decision_task_DD_L5,2021.2.3,MacIntel,60.0024001,,,,,,,,,,,1.4506,1,,,,,,,,,,,,,,z,1,1.4506,,,,,,,,-0.8,0.5,0,0,0,,0,82,82,139,1,BLEAR,HB,old,z,./images/BLEARHB.png,,,,,,,,,,,,,,,,,,,,,
,,,,,,,,,,,,,,,,,199171,18,2022-01-29_24h16.20.330,lexical_decision_task_DD_L5,2021.2.3,MacIntel,60.0024001,,,,,,,,,,,1.6633,1,,,,,,,,,,,,,,m,1,1.6633,,,,,,,,-0.8,0.5,0,0,0,space,0,83,83,27,1,BUTTER,HB,old,m,./images/BUTTERHB.png,7.9539,,,,,,,,,,,,,,,,,,,,
,,,,,,,,,,,,,,,,,199171,18,2022-01-29_24h16.20.330,lexical_decision_task_DD_L5,2021.2.3,MacIntel,60.0024001,,,,,,,,,,,0.6651,1,,,,,,,,,,,,,,m,1,0.6651,,,,,,,,-0.8,0.5,0,0,0,,0,84,84,46,1,MUMMY,LB,old,m,./images/MUMMYLB.png,,,,,,,,,,,,,,,,,,,,,
,,,,,,,,,,,,,,,,,199171,18,2022-01-29_24h16.20.330,lexical_decision_task_DD_L5,2021.2.3,MacIntel,60.0024001,,,,,,,,,,,1.3873,1,,,,,,,,,,,,,,m,1,1.3873,,,,,,,,-0.8,0.5,0,0,0,,0,85,85,75,1,HAMMER,HB,old,m,./images/HAMMERHB.png,,,,,,,,,,,,,,,,,,,,,
,,,,,,,,,,,,,,,,,199171,18,2022-01-29_24h16.20.330,lexical_decision_task_DD_L5,2021.2.3,MacIntel,60.0024001,,,,,,,,,,,0.8324,1,,,,,,,,,,,,,,z,1,0.8324,,,,,,,,-0.8,0.5,0,0,0,,0,86,86,164,1,SGREW,LB,old,z,./images/SGREWLB.png,,,,,,,,,,,,,,,,,,,,,
,,,,,,,,,,,,,,,,,199171,18,2022-01-29_24h16.20.330,lexical_decision_task_DD_L5,2021.2.3,MacIntel,60.0024001,,,,,,,,,,,1.047,1,,,,,,,,,,,,,,z,1,1.047,,,,,,,,-0.8,0.5,0,0,0,,0,87,87,142,1,PLASK,HB,old,z,./images/PLASKHB.png,,,,,,,,,,,,,,,,,,,,,
,,,,,,,,,,,,,,,,,199171,18,2022-01-29_24h16.20.330,lexical_decision_task_DD_L5,2021.2.3,MacIntel,60.0024001,,,,,,,,,,,0.6461,1,,,,,,,,,,,,,,m,1,0.6461,,,,,,,,-0.8,0.5,0,0,0,,0,88,88,47,1,LAGOON,C,old,m,./images/LAGOON.png,,,,,,,,,,,,,,,,,,,,,
,,,,,,,,,,,,,,,,,199171,18,2022-01-29_24h16.20.330,lexical_decision_task_DD_L5,2021.2.3,MacIntel,60.0024001,,,,,,,,,,,1.5147,1,,,,,,,,,,,,,,z,1,1.5147,,,,,,,,-0.8,0.5,0,0,0,,0,89,89,163,1,GAMBA,HB,old,z,./images/GAMBAHB.png,,,,,,,,,,,,,,,,,,,,,
,,,,,,,,,,,,,,,,,199171,18,2022-01-29_24h16.20.330,lexical_decision_task_DD_L5,2021.2.3,MacIntel,60.0024001,,,,,,,,,,,0.8213,1,,,,,,,,,,,,,,z,1,0.8213,,,,,,,,-0.8,0.5,0,0,0,,0,90,90,122,1,BLOOT,LB,old,z,./images/BLOOTLB.png,,,,,,,,,,,,,,,,,,,,,
,,,,,,,,,,,,,,,,,199171,18,2022-01-29_24h16.20.330,lexical_decision_task_DD_L5,2021.2.3,MacIntel,60.0024001,,,,,,,,,,,0.7537,1,,,,,,,,,,,,,,m,1,0.7537,,,,,,,,-0.8,0.5,0,0,0,,0,91,91,66,1,STATUE,HB,old,m,./images/STATUEHB.png,,,,,,,,,,,,,,,,,,,,,
,,,,,,,,,,,,,,,,,199171,18,2022-01-29_24h16.20.330,lexical_decision_task_DD_L5,2021.2.3,MacIntel,60.0024001,,,,,,,,,,,0.863,1,,,,,,,,,,,,,,z,1,0.863,,,,,,,,-0.8,0.5,0,0,0,,0,92,92,90,1,NEAST,C,old,z,./images/NEAST.png,,,,,,,,,,,,,,,,,,,,,
,,,,,,,,,,,,,,,,,199171,18,2022-01-29_24h16.20.330,lexical_decision_task_DD_L5,2021.2.3,MacIntel,60.0024001,,,,,,,,,,,2.7315,1,,,,,,,,,,,,,,z,1,2.7315,,,,,,,,-0.8,0.5,0,0,0,,0,93,93,127,1,NINDY,HB,old,z,./images/NINDYHB.png,,,,,,,,,,,,,,,,,,,,,
,,,,,,,,,,,,,,,,,199171,18,2022-01-29_24h16.20.330,lexical_decision_task_DD_L5,2021.2.3,MacIntel,60.0024001,,,,,,,,,,,0.7286,1,,,,,,,,,,,,,,m,1,0.7286,,,,,,,,-0.8,0.5,0,0,0,,0,94,94,72,1,FLASK,HB,old,m,./images/FLASKHB.png,,,,,,,,,,,,,,,,,,,,,
,,,,,,,,,,,,,,,,,199171,18,2022-01-29_24h16.20.330,lexical_decision_task_DD_L5,2021.2.3,MacIntel,60.0024001,,,,,,,,,,,0.7949,1,,,,,,,,,,,,,,z,1,0.7949,,,,,,,,-0.8,0.5,0,0,0,,0,95,95,135,1,JOODY,C,old,z,./images/JOODY.png,,,,,,,,,,,,,,,,,,,,,
,,,,,,,,,,,,,,,,,199171,18,2022-01-29_24h16.20.330,lexical_decision_task_DD_L5,2021.2.3,MacIntel,60.0024001,,,,,,,,,,,0.5339,1,,,,,,,,,,,,,,m,1,0.5339,,,,,,,,-0.8,0.5,0,0,0,,0,96,96,59,1,BRUSH,C,old,m,./images/BRUSH.png,,,,,,,,,,,,,,,,,,,,,
,,,,,,,,,,,,,,,,,199171,18,2022-01-29_24h16.20.330,lexical_decision_task_DD_L5,2021.2.3,MacIntel,60.0024001,,,,,,,,,,,0.948,1,,,,,,,,,,,,,,m,1,0.948,,,,,,,,-0.8,0.5,0,0,0,,0,97,97,33,1,SAUNA,HB,old,m,./images/SAUNAHB.png,,,,,,,,,,,,,,,,,,,,,
,,,,,,,,,,,,,,,,,199171,18,2022-01-29_24h16.20.330,lexical_decision_task_DD_L5,2021.2.3,MacIntel,60.0024001,,,,,,,,,,,1.532,1,,,,,,,,,,,,,,m,1,1.532,,,,,,,,-0.8,0.5,0,0,0,,0,98,98,3,1,CRATER,HB,old,m,./images/CRATERHB.png,,,,,,,,,,,,,,,,,,,,,
,,,,,,,,,,,,,,,,,199171,18,2022-01-29_24h16.20.330,lexical_decision_task_DD_L5,2021.2.3,MacIntel,60.0024001,,,,,,,,,,,0.5621,1,,,,,,,,,,,,,,m,1,0.5621,,,,,,,,-0.8,0.5,0,0,0,,0,99,99,62,1,MAMMAL,C,old,m,./images/MAMMAL.png,,,,,,,,,,,,,,,,,,,,,
,,,,,,,,,,,,,,,,,199171,18,2022-01-29_24h16.20.330,lexical_decision_task_DD_L5,2021.2.3,MacIntel,60.0024001,,,,,,,,,,,0.679,1,,,,,,,,,,,,,,m,1,0.679,,,,,,,,-0.8,0.5,0,0,0,,0,100,100,83,1,WHISKY,C,old,m,./images/WHISKY.png,,,,,,,,,,,,,,,,,,,,,
,,,,,,,,,,,,,,,,,199171,18,2022-01-29_24h16.20.330,lexical_decision_task_DD_L5,2021.2.3,MacIntel,60.0024001,,,,,,,,,,,0.865,1,,,,,,,,,,,,,,m,1,0.865,,,,,,,,-0.8,0.5,0,0,0,,0,101,101,9,1,DIVER,HB,old,m,./images/DIVERHB.png,,,,,,,,,,,,,,,,,,,,,
,,,,,,,,,,,,,,,,,199171,18,2022-01-29_24h16.20.330,lexical_decision_task_DD_L5,2021.2.3,MacIntel,60.0024001,,,,,,,,,,,0.8286,1,,,,,,,,,,,,,,m,1,0.8286,,,,,,,,-0.8,0.5,0,0,0,,0,102,102,81,1,DRILL,HB,old,m,./images/DRILLHB.png,,,,,,,,,,,,,,,,,,,,,
,,,,,,,,,,,,,,,,,199171,18,2022-01-29_24h16.20.330,lexical_decision_task_DD_L5,2021.2.3,MacIntel,60.0024001,,,,,,,,,,,0.5664,1,,,,,,,,,,,,,,m,1,0.5664,,,,,,,,-0.8,0.5,0,0,0,,0,103,103,64,1,BRIDE,LB,old,m,./images/BRIDELB.png,,,,,,,,,,,,,,,,,,,,,
,,,,,,,,,,,,,,,,,199171,18,2022-01-29_24h16.20.330,lexical_decision_task_DD_L5,2021.2.3,MacIntel,60.0024001,,,,,,,,,,,0.5024,1,,,,,,,,,,,,,,m,1,0.5024,,,,,,,,-0.8,0.5,0,0,0,,0,104,104,13,1,BUNNY,LB,old,m,./images/BUNNYLB.png,,,,,,,,,,,,,,,,,,,,,
,,,,,,,,,,,,,,,,,199171,18,2022-01-29_24h16.20.330,lexical_decision_task_DD_L5,2021.2.3,MacIntel,60.0024001,,,,,,,,,,,0.536,1,,,,,,,,,,,,,,m,1,0.536,,,,,,,,-0.8,0.5,0,0,0,,0,105,105,23,1,CLOTH,C,old,m,./images/CLOTH.png,,,,,,,,,,,,,,,,,,,,,
,,,,,,,,,,,,,,,,,199171,18,2022-01-29_24h16.20.330,lexical_decision_task_DD_L5,2021.2.3,MacIntel,60.0024001,,,,,,,,,,,0.8791,1,,,,,,,,,,,,,,z,1,0.8791,,,,,,,,-0.8,0.5,0,0,0,,0,106,106,154,1,THINT,HB,old,z,./images/THINTHB.png,,,,,,,,,,,,,,,,,,,,,
,,,,,,,,,,,,,,,,,199171,18,2022-01-29_24h16.20.330,lexical_decision_task_DD_L5,2021.2.3,MacIntel,60.0024001,,,,,,,,,,,0.6635,1,,,,,,,,,,,,,,m,1,0.6635,,,,,,,,-0.8,0.5,0,0,0,,0,107,107,37,1,TIGER,LB,old,m,./images/TIGERLB.png,,,,,,,,,,,,,,,,,,,,,
,,,,,,,,,,,,,,,,,199171,18,2022-01-29_24h16.20.330,lexical_decision_task_DD_L5,2021.2.3,MacIntel,60.0024001,,,,,,,,,,,0.5622,1,,,,,,,,,,,,,,m,1,0.5622,,,,,,,,-0.8,0.5,0,0,0,,0,108,108,28,1,CASINO,LB,old,m,./images/CASINOLB.png,,,,,,,,,,,,,,,,,,,,,
,,,,,,,,,,,,,,,,,199171,18,2022-01-29_24h16.20.330,lexical_decision_task_DD_L5,2021.2.3,MacIntel,60.0024001,,,,,,,,,,,1.0793,1,,,,,,,,,,,,,,z,1,1.0793,,,,,,,,-0.8,0.5,0,0,0,,0,109,109,159,1,CUDDY,C,old,z,./images/CUDDY.png,,,,,,,,,,,,,,,,,,,,,
,,,,,,,,,,,,,,,,,199171,18,2022-01-29_24h16.20.330,lexical_decision_task_DD_L5,2021.2.3,MacIntel,60.0024001,,,,,,,,,,,0.7168,1,,,,,,,,,,,,,,z,1,0.7168,,,,,,,,-0.8,0.5,0,0,0,,0,110,110,119,1,PAFER,LB,old,z,./images/PAFERLB.png,,,,,,,,,,,,,,,,,,,,,
,,,,,,,,,,,,,,,,,199171,18,2022-01-29_24h16.20.330,lexical_decision_task_DD_L5,2021.2.3,MacIntel,60.0024001,,,,,,,,,,,0.4994,1,,,,,,,,,,,,,,m,1,0.4994,,,,,,,,-0.8,0.5,0,0,0,,0,111,111,61,1,ARTIST,LB,old,m,./images/ARTISTLB.png,,,,,,,,,,,,,,,,,,,,,
,,,,,,,,,,,,,,,,,199171,18,2022-01-29_24h16.20.330,lexical_decision_task_DD_L5,2021.2.3,MacIntel,60.0024001,,,,,,,,,,,1.5644,1,,,,,,,,,,,,,,z,1,1.5644,,,,,,,,-0.8,0.5,0,0,0,,0,112,112,145,1,LAMEL,HB,old,z,./images/LAMELHB.png,,,,,,,,,,,,,,,,,,,,,
,,,,,,,,,,,,,,,,,199171,18,2022-01-29_24h16.20.330,lexical_decision_task_DD_L5,2021.2.3,MacIntel,60.0024001,,,,,,,,,,,0.7456,1,,,,,,,,,,,,,,z,1,0.7456,,,,,,,,-0.8,0.5,0,0,0,,0,113,113,89,1,DRIEK,LB,old,z,./images/DRIEKLB.png,,,,,,,,,,,,,,,,,,,,,
,,,,,,,,,,,,,,,,,199171,18,2022-01-29_24h16.20.330,lexical_decision_task_DD_L5,2021.2.3,MacIntel,60.0024001,,,,,,,,,,,0.7692,1,,,,,,,,,,,,,,z,1,0.7692,,,,,,,,-0.8,0.5,0,0,0,,0,114,114,149,1,VEASE,LB,old,z,./images/VEASELB.png,,,,,,,,,,,,,,,,,,,,,
,,,,,,,,,,,,,,,,,199171,18,2022-01-29_24h16.20.330,lexical_decision_task_DD_L5,2021.2.3,MacIntel,60.0024001,,,,,,,,,,,0.7695,1,,,,,,,,,,,,,,z,1,0.7695,,,,,,,,-0.8,0.5,0,0,0,,0,115,115,161,1,BLAPS,LB,old,z,./images/BLAPSLB.png,,,,,,,,,,,,,,,,,,,,,
,,,,,,,,,,,,,,,,,199171,18,2022-01-29_24h16.20.330,lexical_decision_task_DD_L5,2021.2.3,MacIntel,60.0024001,,,,,,,,,,,0.8627,1,,,,,,,,,,,,,,z,1,0.8627,,,,,,,,-0.8,0.5,0,0,0,,0,116,116,132,1,SCIFF,C,old,z,./images/SCIFF.png,,,,,,,,,,,,,,,,,,,,,
,,,,,,,,,,,,,,,,,199171,18,2022-01-29_24h16.20.330,lexical_decision_task_DD_L5,2021.2.3,MacIntel,60.0024001,,,,,,,,,,,1.6893,1,,,,,,,,,,,,,,z,1,1.6893,,,,,,,,-0.8,0.5,0,0,0,,0,117,117,97,1,CHIDS,HB,old,z,./images/CHIDSHB.png,,,,,,,,,,,,,,,,,,,,,
,,,,,,,,,,,,,,,,,199171,18,2022-01-29_24h16.20.330,lexical_decision_task_DD_L5,2021.2.3,MacIntel,60.0024001,,,,,,,,,,,3.4475,0,,,,,,,,,,,,,,m,0,3.4475,,,,,,,,-0.8,0.5,0,0,0,,0,118,118,109,1,BURGE,HB,old,z,./images/BURGEHB.png,,,,,,,,,,,,,,,,,,,,,
,,,,,,,,,,,,,,,,,199171,18,2022-01-29_24h16.20.330,lexical_decision_task_DD_L5,2021.2.3,MacIntel,60.0024001,,,,,,,,,,,0.5774,1,,,,,,,,,,,,,,m,1,0.5774,,,,,,,,-0.8,0.5,0,0,0,,0,119,119,41,1,STREAM,C,old,m,./images/STREAM.png,,,,,,,,,,,,,,,,,,,,,
,,,,,,,,,,,,,,,,,199171,18,2022-01-29_24h16.20.330,lexical_decision_task_DD_L5,2021.2.3,MacIntel,60.0024001,,,,,,,,,,,0.8824,1,,,,,,,,,,,,,,m,1,0.8824,,,,,,,,-0.8,0.5,0,0,0,,0,120,120,73,1,GLOVE,LB,old,m,./images/GLOVELB.png,,,,,,,,,,,,,,,,,,,,,
,,,,,,,,,,,,,,,,,199171,18,2022-01-29_24h16.20.330,lexical_decision_task_DD_L5,2021.2.3,MacIntel,60.0024001,,,,,,,,,,,0.4444,1,,,,,,,,,,,,,,m,1,0.4444,,,,,,,,-0.8,0.5,0,0,0,,0,121,121,14,1,FENCE,C,old,m,./images/FENCE.png,,,,,,,,,,,,,,,,,,,,,
,,,,,,,,,,,,,,,,,199171,18,2022-01-29_24h16.20.330,lexical_decision_task_DD_L5,2021.2.3,MacIntel,60.0024001,,,,,,,,,,,0.4479,0,,,,,,,,,,,,,,m,0,0.4479,,,,,,,,-0.8,0.5,0,0,0,,0,122,122,138,1,PLICE,C,old,z,./images/PLICE.png,,,,,,,,,,,,,,,,,,,,,
,,,,,,,,,,,,,,,,,199171,18,2022-01-29_24h16.20.330,lexical_decision_task_DD_L5,2021.2.3,MacIntel,60.0024001,,,,,,,,,,,1.1327,1,,,,,,,,,,,,,,m,1,1.1327,,,,,,,,-0.8,0.5,0,0,0,,0,123,123,48,1,SHIELD,HB,old,m,./images/SHIELDHB.png,,,,,,,,,,,,,,,,,,,,,
,,,,,,,,,,,,,,,,,199171,18,2022-01-29_24h16.20.330,lexical_decision_task_DD_L5,2021.2.3,MacIntel,60.0024001,,,,,,,,,,,0.7652,1,,,,,,,,,,,,,,z,1,0.7652,,,,,,,,-0.8,0.5,0,0,0,,0,124,124,113,1,LINEW,LB,old,z,./images/LINEWLB.png,,,,,,,,,,,,,,,,,,,,,
,,,,,,,,,,,,,,,,,199171,18,2022-01-29_24h16.20.330,lexical_decision_task_DD_L5,2021.2.3,MacIntel,60.0024001,,,,,,,,,,,0.6687,1,,,,,,,,,,,,,,m,1,0.6687,,,,,,,,-0.8,0.5,0,0,0,space,0,125,125,82,1,PEBBLE,LB,old,m,./images/PEBBLELB.png,4.0514,,,,,,,,,,,,,,,,,,,,
,,,,,,,,,,,,,,,,,199171,18,2022-01-29_24h16.20.330,lexical_decision_task_DD_L5,2021.2.3,MacIntel,60.0024001,,,,,,,,,,,0.7347,1,,,,,,,,,,,,,,z,1,0.7347,,,,,,,,-0.8,0.5,0,0,0,,0,126,126,84,1,HAXES,C,old,z,./images/HAXES.png,,,,,,,,,,,,,,,,,,,,,
,,,,,,,,,,,,,,,,,199171,18,2022-01-29_24h16.20.330,lexical_decision_task_DD_L5,2021.2.3,MacIntel,60.0024001,,,,,,,,,,,0.76,1,,,,,,,,,,,,,,z,1,0.76,,,,,,,,-0.8,0.5,0,0,0,,0,127,127,156,1,HIXES,C,old,z,./images/HIXES.png,,,,,,,,,,,,,,,,,,,,,
,,,,,,,,,,,,,,,,,199171,18,2022-01-29_24h16.20.330,lexical_decision_task_DD_L5,2021.2.3,MacIntel,60.0024001,,,,,,,,,,,0.5954,1,,,,,,,,,,,,,,m,1,0.5954,,,,,,,,-0.8,0.5,0,0,0,,0,128,128,2,1,STOVE,C,old,m,./images/STOVE.png,,,,,,,,,,,,,,,,,,,,,
,,,,,,,,,,,,,,,,,199171,18,2022-01-29_24h16.20.330,lexical_decision_task_DD_L5,2021.2.3,MacIntel,60.0024001,,,,,,,,,,,0.5133,1,,,,,,,,,,,,,,m,1,0.5133,,,,,,,,-0.8,0.5,0,0,0,,0,129,129,53,1,POSTER,C,old,m,./images/POSTER.png,,,,,,,,,,,,,,,,,,,,,
,,,,,,,,,,,,,,,,,199171,18,2022-01-29_24h16.20.330,lexical_decision_task_DD_L5,2021.2.3,MacIntel,60.0024001,,,,,,,,,,,1.4453,1,,,,,,,,,,,,,,z,1,1.4453,,,,,,,,-0.8,0.5,0,0,0,,0,130,130,103,1,FLORT,HB,old,z,./images/FLORTHB.png,,,,,,,,,,,,,,,,,,,,,
,,,,,,,,,,,,,,,,,199171,18,2022-01-29_24h16.20.330,lexical_decision_task_DD_L5,2021.2.3,MacIntel,60.0024001,,,,,,,,,,,0.798,1,,,,,,,,,,,,,,z,1,0.798,,,,,,,,-0.8,0.5,0,0,0,,0,131,131,104,1,GITTY,LB,old,z,./images/GITTYLB.png,,,,,,,,,,,,,,,,,,,,,
,,,,,,,,,,,,,,,,,199171,18,2022-01-29_24h16.20.330,lexical_decision_task_DD_L5,2021.2.3,MacIntel,60.0024001,,,,,,,,,,,0.6104,1,,,,,,,,,,,,,,m,1,0.6104,,,,,,,,-0.8,0.5,0,0,0,,0,132,132,44,1,BASKET,C,old,m,./images/BASKET.png,,,,,,,,,,,,,,,,,,,,,
,,,,,,,,,,,,,,,,,199171,18,2022-01-29_24h16.20.330,lexical_decision_task_DD_L5,2021.2.3,MacIntel,60.0024001,,,,,,,,,,,1.1611,1,,,,,,,,,,,,,,z,1,1.1611,,,,,,,,-0.8,0.5,0,0,0,,0,133,133,107,1,FASKS,LB,old,z,./images/FASKSLB.png,,,,,,,,,,,,,,,,,,,,,
,,,,,,,,,,,,,,,,,199171,18,2022-01-29_24h16.20.330,lexical_decision_task_DD_L5,2021.2.3,MacIntel,60.0024001,,,,,,,,,,,0.6303,1,,,,,,,,,,,,,,m,1,0.6303,,,,,,,,-0.8,0.5,0,0,0,,0,134,134,32,1,HOCKEY,C,old,m,./images/HOCKEY.png,,,,,,,,,,,,,,,,,,,,,
,,,,,,,,,,,,,,,,,199171,18,2022-01-29_24h16.20.330,lexical_decision_task_DD_L5,2021.2.3,MacIntel,60.0024001,,,,,,,,,,,1.3484,1,,,,,,,,,,,,,,z,1,1.3484,,,,,,,,-0.8,0.5,0,0,0,,0,135,135,124,1,TUNCH,HB,old,z,./images/TUNCHHB.png,,,,,,,,,,,,,,,,,,,,,
,,,,,,,,,,,,,,,,,199171,18,2022-01-29_24h16.20.330,lexical_decision_task_DD_L5,2021.2.3,MacIntel,60.0024001,,,,,,,,,,,0.8639,1,,,,,,,,,,,,,,z,1,0.8639,,,,,,,,-0.8,0.5,0,0,0,,0,136,136,87,1,TRING,C,old,z,./images/TRING.png,,,,,,,,,,,,,,,,,,,,,
,,,,,,,,,,,,,,,,,199171,18,2022-01-29_24h16.20.330,lexical_decision_task_DD_L5,2021.2.3,MacIntel,60.0024001,,,,,,,,,,,0.8287,1,,,,,,,,,,,,,,m,1,0.8287,,,,,,,,-0.8,0.5,0,0,0,,0,137,137,20,1,GRANNY,C,old,m,./images/GRANNY.png,,,,,,,,,,,,,,,,,,,,,
,,,,,,,,,,,,,,,,,199171,18,2022-01-29_24h16.20.330,lexical_decision_task_DD_L5,2021.2.3,MacIntel,60.0024001,,,,,,,,,,,0.9146,1,,,,,,,,,,,,,,z,1,0.9146,,,,,,,,-0.8,0.5,0,0,0,,0,138,138,88,1,GLUSH,HB,old,z,./images/GLUSHHB.png,,,,,,,,,,,,,,,,,,,,,
,,,,,,,,,,,,,,,,,199171,18,2022-01-29_24h16.20.330,lexical_decision_task_DD_L5,2021.2.3,MacIntel,60.0024001,,,,,,,,,,,1.8322,1,,,,,,,,,,,,,,z,1,1.8322,,,,,,,,-0.8,0.5,0,0,0,,0,139,139,133,1,POWDY,HB,old,z,./images/POWDYHB.png,,,,,,,,,,,,,,,,,,,,,
,,,,,,,,,,,,,,,,,199171,18,2022-01-29_24h16.20.330,lexical_decision_task_DD_L5,2021.2.3,MacIntel,60.0024001,,,,,,,,,,,0.8536,1,,,,,,,,,,,,,,z,1,0.8536,,,,,,,,-0.8,0.5,0,0,0,,0,140,140,152,1,FRAIN,LB,old,z,./images/FRAINLB.png,,,,,,,,,,,,,,,,,,,,,
,,,,,,,,,,,,,,,,,199171,18,2022-01-29_24h16.20.330,lexical_decision_task_DD_L5,2021.2.3,MacIntel,60.0024001,,,,,,,,,,,0.6847,1,,,,,,,,,,,,,,m,1,0.6847,,,,,,,,-0.8,0.5,0,0,0,,0,141,141,56,1,HEATER,C,old,m,./images/HEATER.png,,,,,,,,,,,,,,,,,,,,,
,,,,,,,,,,,,,,,,,199171,18,2022-01-29_24h16.20.330,lexical_decision_task_DD_L5,2021.2.3,MacIntel,60.0024001,,,,,,,,,,,0.7767,1,,,,,,,,,,,,,,z,1,0.7767,,,,,,,,-0.8,0.5,0,0,0,,0,142,142,111,1,HOSSE,C,old,z,./images/HOSSE.png,,,,,,,,,,,,,,,,,,,,,
,,,,,,,,,,,,,,,,,199171,18,2022-01-29_24h16.20.330,lexical_decision_task_DD_L5,2021.2.3,MacIntel,60.0024001,,,,,,,,,,,2.1295,1,,,,,,,,,,,,,,z,1,2.1295,,,,,,,,-0.8,0.5,0,0,0,,0,143,143,151,1,TINKY,HB,old,z,./images/TINKYHB.png,,,,,,,,,,,,,,,,,,,,,
,,,,,,,,,,,,,,,,,199171,18,2022-01-29_24h16.20.330,lexical_decision_task_DD_L5,2021.2.3,MacIntel,60.0024001,,,,,,,,,,,1.0631,1,,,,,,,,,,,,,,m,1,1.0631,,,,,,,,-0.8,0.5,0,0,0,,0,144,144,12,1,BLOKE,HB,old,m,./images/BLOKEHB.png,,,,,,,,,,,,,,,,,,,,,
,,,,,,,,,,,,,,,,,199171,18,2022-01-29_24h16.20.330,lexical_decision_task_DD_L5,2021.2.3,MacIntel,60.0024001,,,,,,,,,,,0.5992,1,,,,,,,,,,,,,,m,1,0.5992,,,,,,,,-0.8,0.5,0,0,0,,0,145,145,70,1,BANANA,LB,old,m,./images/BANANALB.png,,,,,,,,,,,,,,,,,,,,,
,,,,,,,,,,,,,,,,,199171,18,2022-01-29_24h16.20.330,lexical_decision_task_DD_L5,2021.2.3,MacIntel,60.0024001,,,,,,,,,,,0.8528,1,,,,,,,,,,,,,,z,1,0.8528,,,,,,,,-0.8,0.5,0,0,0,,0,146,146,150,1,NOOLS,C,old,z,./images/NOOLS.png,,,,,,,,,,,,,,,,,,,,,
,,,,,,,,,,,,,,,,,199171,18,2022-01-29_24h16.20.330,lexical_decision_task_DD_L5,2021.2.3,MacIntel,60.0024001,,,,,,,,,,,0.8019,1,,,,,,,,,,,,,,z,1,0.8019,,,,,,,,-0.8,0.5,0,0,0,,0,147,147,144,1,NAIRY,C,old,z,./images/NAIRY.png,,,,,,,,,,,,,,,,,,,,,
,,,,,,,,,,,,,,,,,199171,18,2022-01-29_24h16.20.330,lexical_decision_task_DD_L5,2021.2.3,MacIntel,60.0024001,,,,,,,,,,,0.8166,1,,,,,,,,,,,,,,z,1,0.8166,,,,,,,,-0.8,0.5,0,0,0,,0,148,148,155,1,CANGY,LB,old,z,./images/CANGYLB.png,,,,,,,,,,,,,,,,,,,,,
,,,,,,,,,,,,,,,,,199171,18,2022-01-29_24h16.20.330,lexical_decision_task_DD_L5,2021.2.3,MacIntel,60.0024001,,,,,,,,,,,0.6486,1,,,,,,,,,,,,,,m,1,0.6486,,,,,,,,-0.8,0.5,0,0,0,,0,149,149,21,1,DANCER,HB,old,m,./images/DANCERHB.png,,,,,,,,,,,,,,,,,,,,,
,,,,,,,,,,,,,,,,,199171,18,2022-01-29_24h16.20.330,lexical_decision_task_DD_L5,2021.2.3,MacIntel,60.0024001,,,,,,,,,,,1.4813,1,,,,,,,,,,,,,,z,1,1.4813,,,,,,,,-0.8,0.5,0,0,0,,0,150,150,148,1,JOMS,HB,old,z,./images/JOMSHB.png,,,,,,,,,,,,,,,,,,,,,
,,,,,,,,,,,,,,,,,199171,18,2022-01-29_24h16.20.330,lexical_decision_task_DD_L5,2021.2.3,MacIntel,60.0024001,,,,,,,,,,,0.8997,1,,,,,,,,,,,,,,z,1,0.8997,,,,,,,,-0.8,0.5,0,0,0,,0,151,151,86,1,AIFED,LB,old,z,./images/AIFEDLB.png,,,,,,,,,,,,,,,,,,,,,
,,,,,,,,,,,,,,,,,199171,18,2022-01-29_24h16.20.330,lexical_decision_task_DD_L5,2021.2.3,MacIntel,60.0024001,,,,,,,,,,,0.6286,1,,,,,,,,,,,,,,m,1,0.6286,,,,,,,,-0.8,0.5,0,0,0,,0,152,152,71,1,BUBBLE,C,old,m,./images/BUBBLE.png,,,,,,,,,,,,,,,,,,,,,
,,,,,,,,,,,,,,,,,199171,18,2022-01-29_24h16.20.330,lexical_decision_task_DD_L5,2021.2.3,MacIntel,60.0024001,,,,,,,,,,,0.782,1,,,,,,,,,,,,,,m,1,0.782,,,,,,,,-0.8,0.5,0,0,0,,0,153,153,15,1,COLLAR,HB,old,m,./images/COLLARHB.png,,,,,,,,,,,,,,,,,,,,,
,,,,,,,,,,,,,,,,,199171,18,2022-01-29_24h16.20.330,lexical_decision_task_DD_L5,2021.2.3,MacIntel,60.0024001,,,,,,,,,,,0.4981,1,,,,,,,,,,,,,,m,1,0.4981,,,,,,,,-0.8,0.5,0,0,0,,0,154,154,40,1,SNAKE,LB,old,m,./images/SNAKELB.png,,,,,,,,,,,,,,,,,,,,,
,,,,,,,,,,,,,,,,,199171,18,2022-01-29_24h16.20.330,lexical_decision_task_DD_L5,2021.2.3,MacIntel,60.0024001,,,,,,,,,,,0.6296,1,,,,,,,,,,,,,,m,1,0.6296,,,,,,,,-0.8,0.5,0,0,0,,0,155,155,8,1,CLIFF,C,old,m,./images/CLIFF.png,,,,,,,,,,,,,,,,,,,,,
,,,,,,,,,,,,,,,,,199171,18,2022-01-29_24h16.20.330,lexical_decision_task_DD_L5,2021.2.3,MacIntel,60.0024001,,,,,,,,,,,3.0812,1,,,,,,,,,,,,,,z,1,3.0812,,,,,,,,-0.8,0.5,0,0,0,,0,156,156,157,1,INLER,HB,old,z,./images/INLERHB.png,,,,,,,,,,,,,,,,,,,,,
,,,,,,,,,,,,,,,,,199171,18,2022-01-29_24h16.20.330,lexical_decision_task_DD_L5,2021.2.3,MacIntel,60.0024001,,,,,,,,,,,0.7997,1,,,,,,,,,,,,,,z,1,0.7997,,,,,,,,-0.8,0.5,0,0,0,,0,157,157,143,1,MONGS,LB,old,z,./images/MONGSLB.png,,,,,,,,,,,,,,,,,,,,,
,,,,,,,,,,,,,,,,,199171,18,2022-01-29_24h16.20.330,lexical_decision_task_DD_L5,2021.2.3,MacIntel,60.0024001,,,,,,,,,,,1.0333,1,,,,,,,,,,,,,,z,1,1.0333,,,,,,,,-0.8,0.5,0,0,0,,0,158,158,129,1,PRANS,C,old,z,./images/PRANS.png,,,,,,,,,,,,,,,,,,,,,
,,,,,,,,,,,,,,,,,199171,18,2022-01-29_24h16.20.330,lexical_decision_task_DD_L5,2021.2.3,MacIntel,60.0024001,,,,,,,,,,,0.6963,1,,,,,,,,,,,,,,m,1,0.6963,,,,,,,,-0.8,0.5,0,0,0,,0,159,159,11,1,MEDAL,C,old,m,./images/MEDAL.png,,,,,,,,,,,,,,,,,,,,,
,,,,,,,,,,,,,,,,,199171,18,2022-01-29_24h16.20.330,lexical_decision_task_DD_L5,2021.2.3,MacIntel,60.0024001,,,,,,,,,,,0.9166,1,,,,,,,,,,,,,,m,1,0.9166,,,,,,,,-0.8,0.5,0,0,0,,0,160,160,76,1,MIDGET,LB,old,m,./images/MIDGETLB.png,,,,,,,,,,,,,,,,,,,,,
,,,,,,,,,,,,,,,,,199171,18,2022-01-29_24h16.20.330,lexical_decision_task_DD_L5,2021.2.3,MacIntel,60.0024001,,,,,,,,,,,0.6642,1,,,,,,,,,,,,,,m,1,0.6642,,,,,,,,-0.8,0.5,0,0,0,,0,161,161,26,1,CLOUD,C,old,m,./images/CLOUD.png,,,,,,,,,,,,,,,,,,,,,
,,,,,,,,,,,,,,,,,199171,18,2022-01-29_24h16.20.330,lexical_decision_task_DD_L5,2021.2.3,MacIntel,60.0024001,,,,,,,,,,,2.3492,1,,,,,,,,,,,,,,z,1,2.3492,,,,,,,,-0.8,0.5,0,0,0,,0,162,162,110,1,CRUNK,LB,old,z,./images/CRUNKLB.png,,,,,,,,,,,,,,,,,,,,,
,,,,,,,,,,,,,,,,,199171,18,2022-01-29_24h16.20.330,lexical_decision_task_DD_L5,2021.2.3,MacIntel,60.0024001,,,,,,,,,,,0.5959,0,,,,,,,,,,,,,,m,0,0.5959,,,,,,,,-0.8,0.5,0,0,0,,0,163,163,99,1,BACKY,C,old,z,./images/BACKY.png,,,,,,,,,,,,,,,,,,,,,
,,,,,,,,,,,,,,,,,199171,18,2022-01-29_24h16.20.330,lexical_decision_task_DD_L5,2021.2.3,MacIntel,60.0024001,,,,,,,,,,,0.9453,1,,,,,,,,,,,,,,z,1,0.9453,,,,,,,,-0.8,0.5,0,0,0,,0,164,164,108,1,GRUET,C,old,z,./images/GRUET.png,,,,,,,,,,,,,,,,,,,,,
,,,,,,,,,,,,,,,,,199171,18,2022-01-29_24h16.20.330,lexical_decision_task_DD_L5,2021.2.3,MacIntel,60.0024001,,,,,,,,,,,0.8658,1,,,,,,,,,,,,,,z,1,0.8658,,,,,,,,-0.8,0.5,0,0,0,,0,165,165,146,1,MOOST,LB,old,z,./images/MOOSTLB.png,,,,,,,,,,,,,,,,,,,,,
,,,,,,,,,,,,,,,,,199171,18,2022-01-29_24h16.20.330,lexical_decision_task_DD_L5,2021.2.3,MacIntel,60.0024001,,,,,,,,,,,0.836,1,,,,,,,,,,,,,,m,1,0.836,,,,,,,,-0.8,0.5,0,0,0,,0,166,166,69,1,ARROW,HB,old,m,./images/ARROWHB.png,,,,,,,,,,,,,,,,,,,,,
,,,,,,,,,,,,,,,,,199171,18,2022-01-29_24h16.20.330,lexical_decision_task_DD_L5,2021.2.3,MacIntel,60.0024001,,,,,,,,,,,0.7322,1,,,,,,,,,,,,,,m,1,0.7322,,,,,,,,-0.8,0.5,0,0,0,,0,167,167,30,1,SLOPE,HB,old,m,./images/SLOPEHB.png,,,,,,,,,,,,,,,,,,,,,
space,32.0075,-0.8,0.5,0,0,0,,,,,,1,test,"In the next phase you will be presented with the words from the the first phase. Your job is to decide whether you remember seeing the word or not. If you remember seeing the word press ""old"" or type ""m"". If you do not remember seeing the word press ""new"" or type ""z"". Please press the space bar or click on continue to begin. ",,,199171,18,2022-01-29_24h16.20.330,lexical_decision_task_DD_L5,2021.2.3,MacIntel,60.0024001,,,,,,,,,,,,,,,,,,,,,,,,,,,,,,,,,,,,,,,,,,,,,,,,,,,,,0,0,0,0,1,,,,,,,,,,,,,,,
space,1.8602,-0.8,0.5,0,0,0,,,,,,1,test,"In the next phase you will be presented with the words from the the first phase. Your job is to decide whether you remember seeing the word or not. If you remember seeing the word press ""old"" or type ""m"". If you do not remember seeing the word press ""new"" or type ""z"". Please press the space bar or click on continue to begin. ",,,199171,18,2022-01-29_24h16.20.330,lexical_decision_task_DD_L5,2021.2.3,MacIntel,60.0024001,,,,,,,,,,,,,,,,,,,,,,,,,,,,,,,,,,,,,,,,,,,,,,,,,,,,,1,0,1,0,1,,,,,,,,,,,,,,,
space,0.6988,-0.8,0.5,0,0,0,,,,,,1,test,"In the next phase you will be presented with the words from the the first phase. Your job is to decide whether you remember seeing the word or not. If you remember seeing the word press ""old"" or type ""m"". If you do not remember seeing the word press ""new"" or type ""z"". Please press the space bar or click on continue to begin. ",,,199171,18,2022-01-29_24h16.20.330,lexical_decision_task_DD_L5,2021.2.3,MacIntel,60.0024001,,,,,,,,,,,,,,,,,,,,,,,,,,,,,,,,,,,,,,,,,,,,,,,,,,,,,2,0,2,0,1,,,,,,,,,,,,,,,
space,3.4315,0.152491319,-0.361284722,0,0,0,,,,,,1,test,"In the next phase you will be presented with the words from the the first phase. Your job is to decide whether you remember seeing the word or not. If you remember seeing the word press ""old"" or type ""m"". If you do not remember seeing the word press ""new"" or type ""z"". Please press the space bar or click on continue to begin. ",,,199171,18,2022-01-29_24h16.20.330,lexical_decision_task_DD_L5,2021.2.3,MacIntel,60.0024001,,,,,,,,,,,,,,,,,,,,,,,,,,,,,,,,,,,,,,,,,,,,,,,,,,,,,3,0,3,0,1,,,,,,,,,,,,,,,
space,1.0811,0.249509549,-0.145920139,0,0,0,,,,,,1,test,"In the next phase you will be presented with the words from the the first phase. Your job is to decide whether you remember seeing the word or not. If you remember seeing the word press ""old"" or type ""m"". If you do not remember seeing the word press ""new"" or type ""z"". Please press the space bar or click on continue to begin. ",,,199171,18,2022-01-29_24h16.20.330,lexical_decision_task_DD_L5,2021.2.3,MacIntel,60.0024001,,,,,,,,,,,,,,,,,,,,,,,,,,,,,,,,,,,,,,,,,,,,,,,,,,,,,4,0,4,0,1,,,,,,,,,,,,,,,
,,,,,,,,,,,,,,,,,199171,18,2022-01-29_24h16.20.330,lexical_decision_task_DD_L5,2021.2.3,MacIntel,60.0024001,,,,,,,,,,,4.9942,1,,,,,,,,,,,,,,,,,,,,,,,,0.249509549,-0.145920139,0,0,0,,,,,,,BUNNY,LB,m,y,./images/BUNNYLB.png,,,,,,,m,1,4.9942,,,,,,,,0,0,0,13,1
,,,,,,,,,,,,,,,,,199171,18,2022-01-29_24h16.20.330,lexical_decision_task_DD_L5,2021.2.3,MacIntel,60.0024001,,,,,,,,,,,4.6338,0,,,,,,,,,,,,,,,,,,,,,,,,0.249509549,-0.145920139,0,0,0,,,,,,,BANANA,LB,m,y,./images/BANANALB.png,,,,,,,z,0,4.6338,,,,,,,,0,1,1,70,1
,,,,,,,,,,,,,,,,,199171,18,2022-01-29_24h16.20.330,lexical_decision_task_DD_L5,2021.2.3,MacIntel,60.0024001,,,,,,,,,,,4.2006,1,,,,,,,,,,,,,,,,,,,,,,,,0.249509549,-0.145920139,0,0,0,,,,,,,MALLET,C,z,y,./images/MALLET.png,,,,,,,z,1,4.2006,,,,,,,,0,2,2,134,1
,,,,,,,,,,,,,,,,,199171,18,2022-01-29_24h16.20.330,lexical_decision_task_DD_L5,2021.2.3,MacIntel,60.0024001,,,,,,,,,,,2.2859,0,,,,,,,,,,,,,,,,,,,,,,,,0.249509549,-0.145920139,0,0,0,,,,,,,BUTTER,HB,m,y,./images/BUTTERHB.png,,,,,,,z,0,2.2859,,,,,,,,0,3,3,27,1
,,,,,,,,,,,,,,,,,199171,18,2022-01-29_24h16.20.330,lexical_decision_task_DD_L5,2021.2.3,MacIntel,60.0024001,,,,,,,,,,,0.9482,0,,,,,,,,,,,,,,,,,,,,,,,,0.249509549,-0.145920139,0,0,0,,,,,,,BROOM,HB,m,y,./images/BROOMHB.png,,,,,,,z,0,0.9482,,,,,,,,0,4,4,78,1
,,,,,,,,,,,,,,,,,199171,18,2022-01-29_24h16.20.330,lexical_decision_task_DD_L5,2021.2.3,MacIntel,60.0024001,,,,,,,,,,,1.5171,0,,,,,,,,,,,,,,,,,,,,,,,,0.249509549,-0.145920139,0,0,0,,,,,,,SHORE,HB,z,y,./images/SHOREHB.png,,,,,,,m,0,1.5171,,,,,,,,0,5,5,96,1
,,,,,,,,,,,,,,,,,199171,18,2022-01-29_24h16.20.330,lexical_decision_task_DD_L5,2021.2.3,MacIntel,60.0024001,,,,,,,,,,,0.9151,1,,,,,,,,,,,,,,,,,,,,,,,,0.249509549,-0.145920139,0,0,0,,,,,,,FLESH,HB,m,y,./images/FLESHHB.png,,,,,,,m,1,0.9151,,,,,,,,0,6,6,24,1
,,,,,,,,,,,,,,,,,199171,18,2022-01-29_24h16.20.330,lexical_decision_task_DD_L5,2021.2.3,MacIntel,60.0024001,,,,,,,,,,,1.8174,0,,,,,,,,,,,,,,,,,,,,,,,,0.249509549,-0.145920139,0,0,0,,,,,,,PIMPLE,C,z,y,./images/PIMPLE.png,,,,,,,m,0,1.8174,,,,,,,,0,7,7,155,1
,,,,,,,,,,,,,,,,,199171,18,2022-01-29_24h16.20.330,lexical_decision_task_DD_L5,2021.2.3,MacIntel,60.0024001,,,,,,,,,,,1.1336,1,,,,,,,,,,,,,,,,,,,,,,,,0.249509549,-0.145920139,0,0,0,,,,,,,FALCON,LB,z,y,./images/FALCONLB.png,,,,,,,z,1,1.1336,,,,,,,,0,8,8,112,1
,,,,,,,,,,,,,,,,,199171,18,2022-01-29_24h16.20.330,lexical_decision_task_DD_L5,2021.2.3,MacIntel,60.0024001,,,,,,,,,,,1.3371,1,,,,,,,,,,,,,,,,,,,,,,,,0.249509549,-0.145920139,0,0,0,,,,,,,COUCH,C,z,y,./images/COUCH.png,,,,,,,z,1,1.3371,,,,,,,,0,9,9,161,1
,,,,,,,,,,,,,,,,,199171,18,2022-01-29_24h16.20.330,lexical_decision_task_DD_L5,2021.2.3,MacIntel,60.0024001,,,,,,,,,,,1.7486,0,,,,,,,,,,,,,,,,,,,,,,,,0.249509549,-0.145920139,0,0,0,,,,,,,GARDEN,LB,m,y,./images/GARDENLB.png,,,,,,,z,0,1.7486,,,,,,,,0,10,10,10,1
,,,,,,,,,,,,,,,,,199171,18,2022-01-29_24h16.20.330,lexical_decision_task_DD_L5,2021.2.3,MacIntel,60.0024001,,,,,,,,,,,3.8151,1,,,,,,,,,,,,,,,,,,,,,,,,0.249509549,-0.145920139,0,0,0,,,,,,,INFANT,LB,z,y,./images/INFANTLB.png,,,,,,,z,1,3.8151,,,,,,,,0,11,11,160,1
,,,,,,,,,,,,,,,,,199171,18,2022-01-29_24h16.20.330,lexical_decision_task_DD_L5,2021.2.3,MacIntel,60.0024001,,,,,,,,,,,1.7842,1,,,,,,,,,,,,,,,,,,,,,,,,0.249509549,-0.145920139,0,0,0,,,,,,,CRATER,HB,m,y,./images/CRATERHB.png,,,,,,,m,1,1.7842,,,,,,,,0,12,12,3,1
,,,,,,,,,,,,,,,,,199171,18,2022-01-29_24h16.20.330,lexical_decision_task_DD_L5,2021.2.3,MacIntel,60.0024001,,,,,,,,,,,8.2665,0,,,,,,,,,,,,,,,,,,,,,,,,0.249509549,-0.145920139,0,0,0,,,,,,,STATUE,HB,m,y,./images/STATUEHB.png,,,,,,,z,0,8.2665,,,,,,,,0,13,13,66,1
,,,,,,,,,,,,,,,,,199171,18,2022-01-29_24h16.20.330,lexical_decision_task_DD_L5,2021.2.3,MacIntel,60.0024001,,,,,,,,,,,0.822,0,,,,,,,,,,,,,,,,,,,,,,,,0.249509549,-0.145920139,0,0,0,,,,,,,DRILL,HB,m,y,./images/DRILLHB.png,,,,,,,z,0,0.822,,,,,,,,0,14,14,81,1
,,,,,,,,,,,,,,,,,199171,18,2022-01-29_24h16.20.330,lexical_decision_task_DD_L5,2021.2.3,MacIntel,60.0024001,,,,,,,,,,,1.6721,0,,,,,,,,,,,,,,,,,,,,,,,,0.249509549,-0.145920139,0,0,0,,,,,,,PICKLE,C,z,y,./images/PICKLE.png,,,,,,,m,0,1.6721,,,,,,,,0,15,15,98,1
,,,,,,,,,,,,,,,,,199171,18,2022-01-29_24h16.20.330,lexical_decision_task_DD_L5,2021.2.3,MacIntel,60.0024001,,,,,,,,,,,1.2024,0,,,,,,,,,,,,,,,,,,,,,,,,0.249509549,-0.145920139,0,0,0,,,,,,,BISHOP,LB,m,y,./images/BISHOPLB.png,,,,,,,z,0,1.2024,,,,,,,,0,16,16,49,1
,,,,,,,,,,,,,,,,,199171,18,2022-01-29_24h16.20.330,lexical_decision_task_DD_L5,2021.2.3,MacIntel,60.0024001,,,,,,,,,,,1.7507,0,,,,,,,,,,,,,,,,,,,,,,,,0.249509549,-0.145920139,0,0,0,,,,,,,TORCH,C,z,y,./images/TORCH.png,,,,,,,m,0,1.7507,,,,,,,,0,17,17,152,1
,,,,,,,,,,,,,,,,,199171,18,2022-01-29_24h16.20.330,lexical_decision_task_DD_L5,2021.2.3,MacIntel,60.0024001,,,,,,,,,,,1.2998,0,,,,,,,,,,,,,,,,,,,,,,,,0.249509549,-0.145920139,0,0,0,,,,,,,BUBBLE,C,m,y,./images/BUBBLE.png,,,,,,,z,0,1.2998,,,,,,,,0,18,18,71,1
,,,,,,,,,,,,,,,,,199171,18,2022-01-29_24h16.20.330,lexical_decision_task_DD_L5,2021.2.3,MacIntel,60.0024001,,,,,,,,,,,2.6842,1,,,,,,,,,,,,,,,,,,,,,,,,0.249509549,-0.145920139,0,0,0,,,,,,,BOXER,LB,m,y,./images/BOXERLB.png,,,,,,,m,1,2.6842,,,,,,,,0,19,19,4,1
,,,,,,,,,,,,,,,,,199171,18,2022-01-29_24h16.20.330,lexical_decision_task_DD_L5,2021.2.3,MacIntel,60.0024001,,,,,,,,,,,2.3662,0,,,,,,,,,,,,,,,,,,,,,,,,0.249509549,-0.145920139,0,0,0,,,,,,,PEARL,LB,z,y,./images/PEARLLB.png,,,,,,,m,0,2.3662,,,,,,,,0,20,20,130,1
,,,,,,,,,,,,,,,,,199171,18,2022-01-29_24h16.20.330,lexical_decision_task_DD_L5,2021.2.3,MacIntel,60.0024001,,,,,,,,,,,7.148,0,,,,,,,,,,,,,,,,,,,,,,,,0.249509549,-0.145920139,0,0,0,,,,,,,SWING,LB,z,y,./images/SWINGLB.png,,,,,,,m,0,7.148,,,,,,,,0,21,21,124,1
,,,,,,,,,,,,,,,,,199171,18,2022-01-29_24h16.20.330,lexical_decision_task_DD_L5,2021.2.3,MacIntel,60.0024001,,,,,,,,,,,1.2551,1,,,,,,,,,,,,,,,,,,,,,,,,0.249509549,-0.145920139,0,0,0,,,,,,,CRADLE,C,z,y,./images/CRADLE.png,,,,,,,z,1,1.2551,,,,,,,,0,22,22,104,1
,,,,,,,,,,,,,,,,,199171,18,2022-01-29_24h16.20.330,lexical_decision_task_DD_L5,2021.2.3,MacIntel,60.0024001,,,,,,,,,,,0.6651,0,,,,,,,,,,,,,,,,,,,,,,,,0.249509549,-0.145920139,0,0,0,,,,,,,TIGER,LB,m,y,./images/TIGERLB.png,,,,,,,z,0,0.6651,,,,,,,,0,23,23,37,1
,,,,,,,,,,,,,,,,,199171,18,2022-01-29_24h16.20.330,lexical_decision_task_DD_L5,2021.2.3,MacIntel,60.0024001,,,,,,,,,,,0.6346,1,,,,,,,,,,,,,,,,,,,,,,,,0.249509549,-0.145920139,0,0,0,,,,,,,CRUMB,C,z,y,./images/CRUMB.png,,,,,,,z,1,0.6346,,,,,,,,0,24,24,113,1
,,,,,,,,,,,,,,,,,199171,18,2022-01-29_24h16.20.330,lexical_decision_task_DD_L5,2021.2.3,MacIntel,60.0024001,,,,,,,,,,,0.7966,0,,,,,,,,,,,,,,,,,,,,,,,,0.249509549,-0.145920139,0,0,0,,,,,,,PISTOL,C,m,y,./images/PISTOL.png,,,,,,,z,0,0.7966,,,,,,,,0,25,25,29,1
,,,,,,,,,,,,,,,,,199171,18,2022-01-29_24h16.20.330,lexical_decision_task_DD_L5,2021.2.3,MacIntel,60.0024001,,,,,,,,,,,1.0333,0,,,,,,,,,,,,,,,,,,,,,,,,0.249509549,-0.145920139,0,0,0,,,,,,,STOOL,LB,m,y,./images/STOOLLB.png,,,,,,,z,0,1.0333,,,,,,,,0,26,26,43,1
,,,,,,,,,,,,,,,,,199171,18,2022-01-29_24h16.20.330,lexical_decision_task_DD_L5,2021.2.3,MacIntel,60.0024001,,,,,,,,,,,0.6485,1,,,,,,,,,,,,,,,,,,,,,,,,0.249509549,-0.145920139,0,0,0,,,,,,,BELLY,LB,z,y,./images/BELLYLB.png,,,,,,,z,1,0.6485,,,,,,,,0,27,27,94,1
,,,,,,,,,,,,,,,,,199171,18,2022-01-29_24h16.20.330,lexical_decision_task_DD_L5,2021.2.3,MacIntel,60.0024001,,,,,,,,,,,0.6976,1,,,,,,,,,,,,,,,,,,,,,,,,0.249509549,-0.145920139,0,0,0,,,,,,,LADDER,C,z,y,./images/LADDER.png,,,,,,,z,1,0.6976,,,,,,,,0,28,28,122,1
,,,,,,,,,,,,,,,,,199171,18,2022-01-29_24h16.20.330,lexical_decision_task_DD_L5,2021.2.3,MacIntel,60.0024001,,,,,,,,,,,3.5978,1,,,,,,,,,,,,,,,,,,,,,,,,0.249509549,-0.145920139,0,0,0,,,,,,,THROAT,HB,z,y,./images/THROATHB.png,,,,,,,z,1,3.5978,,,,,,,,0,29,29,120,1
,,,,,,,,,,,,,,,,,199171,18,2022-01-29_24h16.20.330,lexical_decision_task_DD_L5,2021.2.3,MacIntel,60.0024001,,,,,,,,,,,0.7851,1,,,,,,,,,,,,,,,,,,,,,,,,0.249509549,-0.145920139,0,0,0,,,,,,,BONNET,C,z,y,./images/BONNET.png,,,,,,,z,1,0.7851,,,,,,,,0,30,30,95,1
,,,,,,,,,,,,,,,,,199171,18,2022-01-29_24h16.20.330,lexical_decision_task_DD_L5,2021.2.3,MacIntel,60.0024001,,,,,,,,,,,0.9816,0,,,,,,,,,,,,,,,,,,,,,,,,0.249509549,-0.145920139,0,0,0,,,,,,,CURRY,HB,m,y,./images/CURRYHB.png,,,,,,,z,0,0.9816,,,,,,,,0,31,31,60,1
,,,,,,,,,,,,,,,,,199171,18,2022-01-29_24h16.20.330,lexical_decision_task_DD_L5,2021.2.3,MacIntel,60.0024001,,,,,,,,,,,0.8338,1,,,,,,,,,,,,,,,,,,,,,,,,0.249509549,-0.145920139,0,0,0,,,,,,,RHINO,HB,z,y,./images/RHINOHB.png,,,,,,,z,1,0.8338,,,,,,,,0,32,32,93,1
,,,,,,,,,,,,,,,,,199171,18,2022-01-29_24h16.20.330,lexical_decision_task_DD_L5,2021.2.3,MacIntel,60.0024001,,,,,,,,,,,0.8995,0,,,,,,,,,,,,,,,,,,,,,,,,0.249509549,-0.145920139,0,0,0,,,,,,,DONKEY,LB,m,y,./images/DONKEYLB.png,,,,,,,z,0,0.8995,,,,,,,,0,33,33,19,1
,,,,,,,,,,,,,,,,,199171,18,2022-01-29_24h16.20.330,lexical_decision_task_DD_L5,2021.2.3,MacIntel,60.0024001,,,,,,,,,,,16.8497,0,,,,,,,,,,,,,,,,,,,,,,,,0.249509549,-0.145920139,0,0,0,,,,,,,POSTER,C,m,y,./images/POSTER.png,,,,,,,z,0,16.8497,,,,,,,,0,34,34,53,1
,,,,,,,,,,,,,,,,,199171,18,2022-01-29_24h16.20.330,lexical_decision_task_DD_L5,2021.2.3,MacIntel,60.0024001,,,,,,,,,,,4.7501,1,,,,,,,,,,,,,,,,,,,,,,,,0.249509549,-0.145920139,0,0,0,,,,,,,SUNSET,LB,z,y,./images/SUNSETLB.png,,,,,,,z,1,4.7501,,,,,,,,0,35,35,166,1
,,,,,,,,,,,,,,,,,199171,18,2022-01-29_24h16.20.330,lexical_decision_task_DD_L5,2021.2.3,MacIntel,60.0024001,,,,,,,,,,,3.251,1,,,,,,,,,,,,,,,,,,,,,,,,0.249509549,-0.145920139,0,0,0,,,,,,,PENCE,LB,z,y,./images/PENCELB.png,,,,,,,z,1,3.251,,,,,,,,0,36,36,100,1
,,,,,,,,,,,,,,,,,199171,18,2022-01-29_24h16.20.330,lexical_decision_task_DD_L5,2021.2.3,MacIntel,60.0024001,,,,,,,,,,,4.3656,1,,,,,,,,,,,,,,,,,,,,,,,,0.249509549,-0.145920139,0,0,0,,,,,,,SNAKE,LB,m,y,./images/SNAKELB.png,,,,,,,m,1,4.3656,,,,,,,,0,37,37,40,1
,,,,,,,,,,,,,,,,,199171,18,2022-01-29_24h16.20.330,lexical_decision_task_DD_L5,2021.2.3,MacIntel,60.0024001,,,,,,,,,,,1.0977,1,,,,,,,,,,,,,,,,,,,,,,,,0.249509549,-0.145920139,0,0,0,,,,,,,PLANK,LB,z,y,./images/PLANKLB.png,,,,,,,z,1,1.0977,,,,,,,,0,38,38,85,1
,,,,,,,,,,,,,,,,,199171,18,2022-01-29_24h16.20.330,lexical_decision_task_DD_L5,2021.2.3,MacIntel,60.0024001,,,,,,,,,,,0.8659,0,,,,,,,,,,,,,,,,,,,,,,,,0.249509549,-0.145920139,0,0,0,,,,,,,MUMMY,LB,m,y,./images/MUMMYLB.png,,,,,,,z,0,0.8659,,,,,,,,0,39,39,46,1
,,,,,,,,,,,,,,,,,199171,18,2022-01-29_24h16.20.330,lexical_decision_task_DD_L5,2021.2.3,MacIntel,60.0024001,,,,,,,,,,,0.8533,0,,,,,,,,,,,,,,,,,,,,,,,,0.249509549,-0.145920139,0,0,0,,,,,,,CLOWN,LB,m,y,./images/CLOWNLB.png,,,,,,,z,0,0.8533,,,,,,,,0,40,40,22,1
,,,,,,,,,,,,,,,,,199171,18,2022-01-29_24h16.20.330,lexical_decision_task_DD_L5,2021.2.3,MacIntel,60.0024001,,,,,,,,,,,0.9369,0,,,,,,,,,,,,,,,,,,,,,,,,0.249509549,-0.145920139,0,0,0,space,,,,,,CASINO,LB,m,y,./images/CASINOLB.png,2.8344,,,,,,z,0,0.9369,,,,,,,,0,41,41,28,1
,,,,,,,,,,,,,,,,,199171,18,2022-01-29_24h16.20.330,lexical_decision_task_DD_L5,2021.2.3,MacIntel,60.0024001,,,,,,,,,,,1.8011,0,,,,,,,,,,,,,,,,,,,,,,,,0.249509549,-0.145920139,0,0,0,,,,,,,STAIN,HB,m,y,./images/STAINHB.png,,,,,,,z,0,1.8011,,,,,,,,0,42,42,6,1
,,,,,,,,,,,,,,,,,199171,18,2022-01-29_24h16.20.330,lexical_decision_task_DD_L5,2021.2.3,MacIntel,60.0024001,,,,,,,,,,,0.7832,0,,,,,,,,,,,,,,,,,,,,,,,,0.249509549,-0.145920139,0,0,0,,,,,,,MAMMAL,C,m,y,./images/MAMMAL.png,,,,,,,z,0,0.7832,,,,,,,,0,43,43,62,1
,,,,,,,,,,,,,,,,,199171,18,2022-01-29_24h16.20.330,lexical_decision_task_DD_L5,2021.2.3,MacIntel,60.0024001,,,,,,,,,,,1.0468,1,,,,,,,,,,,,,,,,,,,,,,,,0.249509549,-0.145920139,0,0,0,,,,,,,CARPET,C,z,y,./images/CARPET.png,,,,,,,z,1,1.0468,,,,,,,,0,44,44,137,1
,,,,,,,,,,,,,,,,,199171,18,2022-01-29_24h16.20.330,lexical_decision_task_DD_L5,2021.2.3,MacIntel,60.0024001,,,,,,,,,,,6.5497,0,,,,,,,,,,,,,,,,,,,,,,,,0.249509549,-0.145920139,0,0,0,,,,,,,JAGUAR,HB,z,y,./images/JAGUARHB.png,,,,,,,m,0,6.5497,,,,,,,,0,45,45,102,1
,,,,,,,,,,,,,,,,,199171,18,2022-01-29_24h16.20.330,lexical_decision_task_DD_L5,2021.2.3,MacIntel,60.0024001,,,,,,,,,,,1.3164,1,,,,,,,,,,,,,,,,,,,,,,,,0.249509549,-0.145920139,0,0,0,,,,,,,BURIAL,C,z,y,./images/BURIAL.png,,,,,,,z,1,1.3164,,,,,,,,0,46,46,143,1
,,,,,,,,,,,,,,,,,199171,18,2022-01-29_24h16.20.330,lexical_decision_task_DD_L5,2021.2.3,MacIntel,60.0024001,,,,,,,,,,,1.2831,0,,,,,,,,,,,,,,,,,,,,,,,,0.249509549,-0.145920139,0,0,0,,,,,,,PARADE,C,m,y,./images/PARADE.png,,,,,,,z,0,1.2831,,,,,,,,0,47,47,17,1
,,,,,,,,,,,,,,,,,199171,18,2022-01-29_24h16.20.330,lexical_decision_task_DD_L5,2021.2.3,MacIntel,60.0024001,,,,,,,,,,,1.4006,0,,,,,,,,,,,,,,,,,,,,,,,,0.249509549,-0.145920139,0,0,0,,,,,,,BASKET,C,m,y,./images/BASKET.png,,,,,,,z,0,1.4006,,,,,,,,0,48,48,44,1
,,,,,,,,,,,,,,,,,199171,18,2022-01-29_24h16.20.330,lexical_decision_task_DD_L5,2021.2.3,MacIntel,60.0024001,,,,,,,,,,,1.1159,0,,,,,,,,,,,,,,,,,,,,,,,,0.249509549,-0.145920139,0,0,0,,,,,,,DANCER,HB,m,y,./images/DANCERHB.png,,,,,,,z,0,1.1159,,,,,,,,0,49,49,21,1
,,,,,,,,,,,,,,,,,199171,18,2022-01-29_24h16.20.330,lexical_decision_task_DD_L5,2021.2.3,MacIntel,60.0024001,,,,,,,,,,,0.8501,0,,,,,,,,,,,,,,,,,,,,,,,,0.249509549,-0.145920139,0,0,0,,,,,,,FERRY,HB,m,y,./images/FERRYHB.png,,,,,,,z,0,0.8501,,,,,,,,0,50,50,57,1
,,,,,,,,,,,,,,,,,199171,18,2022-01-29_24h16.20.330,lexical_decision_task_DD_L5,2021.2.3,MacIntel,60.0024001,,,,,,,,,,,1.057,0,,,,,,,,,,,,,,,,,,,,,,,,0.249509549,-0.145920139,0,0,0,,,,,,,CHERRY,HB,m,y,./images/CHERRYHB.png,,,,,,,z,0,1.057,,,,,,,,0,51,51,54,1
,,,,,,,,,,,,,,,,,199171,18,2022-01-29_24h16.20.330,lexical_decision_task_DD_L5,2021.2.3,MacIntel,60.0024001,,,,,,,,,,,0.7338,0,,,,,,,,,,,,,,,,,,,,,,,,0.249509549,-0.145920139,0,0,0,,,,,,,CLIFF,C,m,y,./images/CLIFF.png,,,,,,,z,0,0.7338,,,,,,,,0,52,52,8,1
,,,,,,,,,,,,,,,,,199171,18,2022-01-29_24h16.20.330,lexical_decision_task_DD_L5,2021.2.3,MacIntel,60.0024001,,,,,,,,,,,3.7064,0,,,,,,,,,,,,,,,,,,,,,,,,0.249509549,-0.145920139,0,0,0,,,,,,,QUILL,LB,z,y,./images/QUILLLB.png,,,,,,,m,0,3.7064,,,,,,,,0,53,53,115,1
,,,,,,,,,,,,,,,,,199171,18,2022-01-29_24h16.20.330,lexical_decision_task_DD_L5,2021.2.3,MacIntel,60.0024001,,,,,,,,,,,1.0648,0,,,,,,,,,,,,,,,,,,,,,,,,0.249509549,-0.145920139,0,0,0,,,,,,,SAILOR,LB,z,y,./images/SAILORLB.png,,,,,,,m,0,1.0648,,,,,,,,0,54,54,151,1
,,,,,,,,,,,,,,,,,199171,18,2022-01-29_24h16.20.330,lexical_decision_task_DD_L5,2021.2.3,MacIntel,60.0024001,,,,,,,,,,,1.5967,0,,,,,,,,,,,,,,,,,,,,,,,,0.249509549,-0.145920139,0,0,0,,,,,,,DOUGH,LB,z,y,./images/DOUGHLB.png,,,,,,,m,0,1.5967,,,,,,,,0,55,55,103,1
,,,,,,,,,,,,,,,,,199171,18,2022-01-29_24h16.20.330,lexical_decision_task_DD_L5,2021.2.3,MacIntel,60.0024001,,,,,,,,,,,3.7338,0,,,,,,,,,,,,,,,,,,,,,,,,0.249509549,-0.145920139,0,0,0,,,,,,,WRIST,LB,z,y,./images/WRISTLB.png,,,,,,,m,0,3.7338,,,,,,,,0,56,56,109,1
,,,,,,,,,,,,,,,,,199171,18,2022-01-29_24h16.20.330,lexical_decision_task_DD_L5,2021.2.3,MacIntel,60.0024001,,,,,,,,,,,1.0009,1,,,,,,,,,,,,,,,,,,,,,,,,0.249509549,-0.145920139,0,0,0,,,,,,,SNACK,LB,z,y,./images/SNACKLB.png,,,,,,,z,1,1.0009,,,,,,,,0,57,57,157,1
,,,,,,,,,,,,,,,,,199171,18,2022-01-29_24h16.20.330,lexical_decision_task_DD_L5,2021.2.3,MacIntel,60.0024001,,,,,,,,,,,0.5688,0,,,,,,,,,,,,,,,,,,,,,,,,0.249509549,-0.145920139,0,0,0,,,,,,,CANDY,HB,m,y,./images/CANDYHB.png,,,,,,,z,0,0.5688,,,,,,,,0,58,58,39,1
,,,,,,,,,,,,,,,,,199171,18,2022-01-29_24h16.20.330,lexical_decision_task_DD_L5,2021.2.3,MacIntel,60.0024001,,,,,,,,,,,0.8323,0,,,,,,,,,,,,,,,,,,,,,,,,0.249509549,-0.145920139,0,0,0,,,,,,,CHAIN,HB,m,y,./images/CHAINHB.png,,,,,,,z,0,0.8323,,,,,,,,0,59,59,42,1
,,,,,,,,,,,,,,,,,199171,18,2022-01-29_24h16.20.330,lexical_decision_task_DD_L5,2021.2.3,MacIntel,60.0024001,,,,,,,,,,,1.2659,0,,,,,,,,,,,,,,,,,,,,,,,,0.249509549,-0.145920139,0,0,0,,,,,,,PEBBLE,LB,m,y,./images/PEBBLELB.png,,,,,,,z,0,1.2659,,,,,,,,0,60,60,82,1
,,,,,,,,,,,,,,,,,199171,18,2022-01-29_24h16.20.330,lexical_decision_task_DD_L5,2021.2.3,MacIntel,60.0024001,,,,,,,,,,,0.649,0,,,,,,,,,,,,,,,,,,,,,,,,0.249509549,-0.145920139,0,0,0,,,,,,,ALLEY,LB,m,y,./images/ALLEYLB.png,,,,,,,z,0,0.649,,,,,,,,0,61,61,55,1
,,,,,,,,,,,,,,,,,199171,18,2022-01-29_24h16.20.330,lexical_decision_task_DD_L5,2021.2.3,MacIntel,60.0024001,,,,,,,,,,,3.2879,0,,,,,,,,,,,,,,,,,,,,,,,,0.249509549,-0.145920139,0,0,0,,,,,,,SHELF,HB,z,y,./images/SHELFHB.png,,,,,,,m,0,3.2879,,,,,,,,0,62,62,123,1
,,,,,,,,,,,,,,,,,199171,18,2022-01-29_24h16.20.330,lexical_decision_task_DD_L5,2021.2.3,MacIntel,60.0024001,,,,,,,,,,,0.801,0,,,,,,,,,,,,,,,,,,,,,,,,0.249509549,-0.145920139,0,0,0,,,,,,,LLAMA,C,m,y,./images/LLAMA.png,,,,,,,z,0,0.801,,,,,,,,0,63,63,35,1
,,,,,,,,,,,,,,,,,199171,18,2022-01-29_24h16.20.330,lexical_decision_task_DD_L5,2021.2.3,MacIntel,60.0024001,,,,,,,,,,,1.5305,1,,,,,,,,,,,,,,,,,,,,,,,,0.249509549,-0.145920139,0,0,0,,,,,,,NOOSE,HB,z,y,./images/NOOSEHB.png,,,,,,,z,1,1.5305,,,,,,,,0,64,64,156,1
,,,,,,,,,,,,,,,,,199171,18,2022-01-29_24h16.20.330,lexical_decision_task_DD_L5,2021.2.3,MacIntel,60.0024001,,,,,,,,,,,0.7151,0,,,,,,,,,,,,,,,,,,,,,,,,0.249509549,-0.145920139,0,0,0,,,,,,,BOILER,HB,m,y,./images/BOILERHB.png,,,,,,,z,0,0.7151,,,,,,,,0,65,65,36,1
,,,,,,,,,,,,,,,,,199171,18,2022-01-29_24h16.20.330,lexical_decision_task_DD_L5,2021.2.3,MacIntel,60.0024001,,,,,,,,,,,0.7494,0,,,,,,,,,,,,,,,,,,,,,,,,0.249509549,-0.145920139,0,0,0,,,,,,,PILOT,C,m,y,./images/PILOT.png,,,,,,,z,0,0.7494,,,,,,,,0,66,66,50,1
,,,,,,,,,,,,,,,,,199171,18,2022-01-29_24h16.20.330,lexical_decision_task_DD_L5,2021.2.3,MacIntel,60.0024001,,,,,,,,,,,0.6216,0,,,,,,,,,,,,,,,,,,,,,,,,0.249509549,-0.145920139,0,0,0,,,,,,,FENCE,C,m,y,./images/FENCE.png,,,,,,,z,0,0.6216,,,,,,,,0,67,67,14,1
,,,,,,,,,,,,,,,,,199171,18,2022-01-29_24h16.20.330,lexical_decision_task_DD_L5,2021.2.3,MacIntel,60.0024001,,,,,,,,,,,0.8393,0,,,,,,,,,,,,,,,,,,,,,,,,0.249509549,-0.145920139,0,0,0,,,,,,,STEAK,LB,m,y,./images/STEAKLB.png,,,,,,,z,0,0.8393,,,,,,,,0,68,68,31,1
,,,,,,,,,,,,,,,,,199171,18,2022-01-29_24h16.20.330,lexical_decision_task_DD_L5,2021.2.3,MacIntel,60.0024001,,,,,,,,,,,1.9305,0,,,,,,,,,,,,,,,,,,,,,,,,0.249509549,-0.145920139,0,0,0,,,,,,,FOLDER,HB,z,y,./images/FOLDERHB.png,,,,,,,m,0,1.9305,,,,,,,,0,69,69,126,1
,,,,,,,,,,,,,,,,,199171,18,2022-01-29_24h16.20.330,lexical_decision_task_DD_L5,2021.2.3,MacIntel,60.0024001,,,,,,,,,,,0.8641,0,,,,,,,,,,,,,,,,,,,,,,,,0.249509549,-0.145920139,0,0,0,,,,,,,HOCKEY,C,m,y,./images/HOCKEY.png,,,,,,,z,0,0.8641,,,,,,,,0,70,70,32,1
,,,,,,,,,,,,,,,,,199171,18,2022-01-29_24h16.20.330,lexical_decision_task_DD_L5,2021.2.3,MacIntel,60.0024001,,,,,,,,,,,0.8313,0,,,,,,,,,,,,,,,,,,,,,,,,0.249509549,-0.145920139,0,0,0,,,,,,,COLLAR,HB,m,y,./images/COLLARHB.png,,,,,,,z,0,0.8313,,,,,,,,0,71,71,15,1
,,,,,,,,,,,,,,,,,199171,18,2022-01-29_24h16.20.330,lexical_decision_task_DD_L5,2021.2.3,MacIntel,60.0024001,,,,,,,,,,,0.4991,1,,,,,,,,,,,,,,,,,,,,,,,,0.249509549,-0.145920139,0,0,0,,,,,,,LITTER,HB,z,y,./images/LITTERHB.png,,,,,,,z,1,0.4991,,,,,,,,0,72,72,162,1
,,,,,,,,,,,,,,,,,199171,18,2022-01-29_24h16.20.330,lexical_decision_task_DD_L5,2021.2.3,MacIntel,60.0024001,,,,,,,,,,,0.6164,1,,,,,,,,,,,,,,,,,,,,,,,,0.249509549,-0.145920139,0,0,0,,,,,,,BERRY,C,z,y,./images/BERRY.png,,,,,,,z,1,0.6164,,,,,,,,0,73,73,131,1
,,,,,,,,,,,,,,,,,199171,18,2022-01-29_24h16.20.330,lexical_decision_task_DD_L5,2021.2.3,MacIntel,60.0024001,,,,,,,,,,,1.113,1,,,,,,,,,,,,,,,,,,,,,,,,0.249509549,-0.145920139,0,0,0,,,,,,,BEARD,C,z,y,./images/BEARD.png,,,,,,,z,1,1.113,,,,,,,,0,74,74,86,1
,,,,,,,,,,,,,,,,,199171,18,2022-01-29_24h16.20.330,lexical_decision_task_DD_L5,2021.2.3,MacIntel,60.0024001,,,,,,,,,,,2.0161,1,,,,,,,,,,,,,,,,,,,,,,,,0.249509549,-0.145920139,0,0,0,,,,,,,STRING,C,z,y,./images/STRING.png,,,,,,,z,1,2.0161,,,,,,,,0,75,75,125,1
,,,,,,,,,,,,,,,,,199171,18,2022-01-29_24h16.20.330,lexical_decision_task_DD_L5,2021.2.3,MacIntel,60.0024001,,,,,,,,,,,4.1206,1,,,,,,,,,,,,,,,,,,,,,,,,0.249509549,-0.145920139,0,0,0,,,,,,,TOWEL,LB,m,y,./images/TOWELLB.png,,,,,,,m,1,4.1206,,,,,,,,0,76,76,1,1
,,,,,,,,,,,,,,,,,199171,18,2022-01-29_24h16.20.330,lexical_decision_task_DD_L5,2021.2.3,MacIntel,60.0024001,,,,,,,,,,,1.2161,0,,,,,,,,,,,,,,,,,,,,,,,,0.249509549,-0.145920139,0,0,0,,,,,,,BLOKE,HB,m,y,./images/BLOKEHB.png,,,,,,,z,0,1.2161,,,,,,,,0,77,77,12,1
,,,,,,,,,,,,,,,,,199171,18,2022-01-29_24h16.20.330,lexical_decision_task_DD_L5,2021.2.3,MacIntel,60.0024001,,,,,,,,,,,0.8686,0,,,,,,,,,,,,,,,,,,,,,,,,0.249509549,-0.145920139,0,0,0,,,,,,,SHIELD,HB,m,y,./images/SHIELDHB.png,,,,,,,z,0,0.8686,,,,,,,,0,78,78,48,1
,,,,,,,,,,,,,,,,,199171,18,2022-01-29_24h16.20.330,lexical_decision_task_DD_L5,2021.2.3,MacIntel,60.0024001,,,,,,,,,,,4.8571,0,,,,,,,,,,,,,,,,,,,,,,,,0.249509549,-0.145920139,0,0,0,,,,,,,TOMATO,HB,z,y,./images/TOMATOHB.png,,,,,,,m,0,4.8571,,,,,,,,0,79,79,84,1
,,,,,,,,,,,,,,,,,199171,18,2022-01-29_24h16.20.330,lexical_decision_task_DD_L5,2021.2.3,MacIntel,60.0024001,,,,,,,,,,,1.2334,1,,,,,,,,,,,,,,,,,,,,,,,,0.249509549,-0.145920139,0,0,0,,,,,,,SWEAT,HB,z,y,./images/SWEATHB.png,,,,,,,z,1,1.2334,,,,,,,,0,80,80,150,1
,,,,,,,,,,,,,,,,,199171,18,2022-01-29_24h16.20.330,lexical_decision_task_DD_L5,2021.2.3,MacIntel,60.0024001,,,,,,,,,,,1.3855,1,,,,,,,,,,,,,,,,,,,,,,,,0.249509549,-0.145920139,0,0,0,,,,,,,JUMPER,C,m,y,./images/JUMPER.png,,,,,,,m,1,1.3855,,,,,,,,0,81,81,74,1
,,,,,,,,,,,,,,,,,199171,18,2022-01-29_24h16.20.330,lexical_decision_task_DD_L5,2021.2.3,MacIntel,60.0024001,,,,,,,,,,,2.6855,0,,,,,,,,,,,,,,,,,,,,,,,,0.249509549,-0.145920139,0,0,0,,,,,,,FARMER,C,z,y,./images/FARMER.png,,,,,,,m,0,2.6855,,,,,,,,0,82,82,149,1
,,,,,,,,,,,,,,,,,199171,18,2022-01-29_24h16.20.330,lexical_decision_task_DD_L5,2021.2.3,MacIntel,60.0024001,,,,,,,,,,,0.8164,1,,,,,,,,,,,,,,,,,,,,,,,,0.249509549,-0.145920139,0,0,0,space,,,,,,SKIING,C,z,y,./images/SKIING.png,2.0035,,,,,,z,1,0.8164,,,,,,,,0,83,83,101,1
,,,,,,,,,,,,,,,,,199171,18,2022-01-29_24h16.20.330,lexical_decision_task_DD_L5,2021.2.3,MacIntel,60.0024001,,,,,,,,,,,2.265,1,,,,,,,,,,,,,,,,,,,,,,,,0.249509549,-0.145920139,0,0,0,,,,,,,COOKER,HB,z,y,./images/COOKERHB.png,,,,,,,z,1,2.265,,,,,,,,0,84,84,153,1
,,,,,,,,,,,,,,,,,199171,18,2022-01-29_24h16.20.330,lexical_decision_task_DD_L5,2021.2.3,MacIntel,60.0024001,,,,,,,,,,,0.9888,1,,,,,,,,,,,,,,,,,,,,,,,,0.249509549,-0.145920139,0,0,0,,,,,,,WALRUS,C,z,y,./images/WALRUS.png,,,,,,,z,1,0.9888,,,,,,,,0,85,85,107,1
,,,,,,,,,,,,,,,,,199171,18,2022-01-29_24h16.20.330,lexical_decision_task_DD_L5,2021.2.3,MacIntel,60.0024001,,,,,,,,,,,1.02,1,,,,,,,,,,,,,,,,,,,,,,,,0.249509549,-0.145920139,0,0,0,,,,,,,WEASEL,C,z,y,./images/WEASEL.png,,,,,,,z,1,1.02,,,,,,,,0,86,86,164,1
,,,,,,,,,,,,,,,,,199171,18,2022-01-29_24h16.20.330,lexical_decision_task_DD_L5,2021.2.3,MacIntel,60.0024001,,,,,,,,,,,1.4507,1,,,,,,,,,,,,,,,,,,,,,,,,0.249509549,-0.145920139,0,0,0,,,,,,,JELLY,LB,z,y,./images/JELLYLB.png,,,,,,,z,1,1.4507,,,,,,,,0,87,87,148,1
,,,,,,,,,,,,,,,,,199171,18,2022-01-29_24h16.20.330,lexical_decision_task_DD_L5,2021.2.3,MacIntel,60.0024001,,,,,,,,,,,5.5672,0,,,,,,,,,,,,,,,,,,,,,,,,0.249509549,-0.145920139,0,0,0,,,,,,,ENGINE,C,m,y,./images/ENGINE.png,,,,,,,z,0,5.5672,,,,,,,,0,88,88,38,1
,,,,,,,,,,,,,,,,,199171,18,2022-01-29_24h16.20.330,lexical_decision_task_DD_L5,2021.2.3,MacIntel,60.0024001,,,,,,,,,,,0.8152,0,,,,,,,,,,,,,,,,,,,,,,,,0.249509549,-0.145920139,0,0,0,,,,,,,RAZOR,LB,m,y,./images/RAZORLB.png,,,,,,,z,0,0.8152,,,,,,,,0,89,89,34,1
,,,,,,,,,,,,,,,,,199171,18,2022-01-29_24h16.20.330,lexical_decision_task_DD_L5,2021.2.3,MacIntel,60.0024001,,,,,,,,,,,1.4477,1,,,,,,,,,,,,,,,,,,,,,,,,0.249509549,-0.145920139,0,0,0,,,,,,,LIZARD,C,z,y,./images/LIZARD.png,,,,,,,z,1,1.4477,,,,,,,,0,90,90,128,1
,,,,,,,,,,,,,,,,,199171,18,2022-01-29_24h16.20.330,lexical_decision_task_DD_L5,2021.2.3,MacIntel,60.0024001,,,,,,,,,,,0.8007,1,,,,,,,,,,,,,,,,,,,,,,,,0.249509549,-0.145920139,0,0,0,,,,,,,CANYON,LB,z,y,./images/CANYONLB.png,,,,,,,z,1,0.8007,,,,,,,,0,91,91,118,1
,,,,,,,,,,,,,,,,,199171,18,2022-01-29_24h16.20.330,lexical_decision_task_DD_L5,2021.2.3,MacIntel,60.0024001,,,,,,,,,,,0.8187,1,,,,,,,,,,,,,,,,,,,,,,,,0.249509549,-0.145920139,0,0,0,,,,,,,JUNGLE,C,z,y,./images/JUNGLE.png,,,,,,,z,1,0.8187,,,,,,,,0,92,92,167,1
,,,,,,,,,,,,,,,,,199171,18,2022-01-29_24h16.20.330,lexical_decision_task_DD_L5,2021.2.3,MacIntel,60.0024001,,,,,,,,,,,1.6637,1,,,,,,,,,,,,,,,,,,,,,,,,0.249509549,-0.145920139,0,0,0,,,,,,,CRUST,LB,z,y,./images/CRUSTLB.png,,,,,,,z,1,1.6637,,,,,,,,0,93,93,163,1
,,,,,,,,,,,,,,,,,199171,18,2022-01-29_24h16.20.330,lexical_decision_task_DD_L5,2021.2.3,MacIntel,60.0024001,,,,,,,,,,,3.4206,0,,,,,,,,,,,,,,,,,,,,,,,,0.249509549,-0.145920139,0,0,0,,,,,,,STREAM,C,m,y,./images/STREAM.png,,,,,,,z,0,3.4206,,,,,,,,0,94,94,41,1
,,,,,,,,,,,,,,,,,199171,18,2022-01-29_24h16.20.330,lexical_decision_task_DD_L5,2021.2.3,MacIntel,60.0024001,,,,,,,,,,,0.8167,1,,,,,,,,,,,,,,,,,,,,,,,,0.249509549,-0.145920139,0,0,0,,,,,,,BANNER,LB,z,y,./images/BANNERLB.png,,,,,,,z,1,0.8167,,,,,,,,0,95,95,136,1
,,,,,,,,,,,,,,,,,199171,18,2022-01-29_24h16.20.330,lexical_decision_task_DD_L5,2021.2.3,MacIntel,60.0024001,,,,,,,,,,,1.6133,1,,,,,,,,,,,,,,,,,,,,,,,,0.249509549,-0.145920139,0,0,0,,,,,,,FINGER,HB,z,y,./images/FINGERHB.png,,,,,,,z,1,1.6133,,,,,,,,0,96,96,87,1
,,,,,,,,,,,,,,,,,199171,18,2022-01-29_24h16.20.330,lexical_decision_task_DD_L5,2021.2.3,MacIntel,60.0024001,,,,,,,,,,,2.0175,1,,,,,,,,,,,,,,,,,,,,,,,,0.249509549,-0.145920139,0,0,0,,,,,,,BABOON,LB,z,y,./images/BABOONLB.png,,,,,,,z,1,2.0175,,,,,,,,0,97,97,142,1
,,,,,,,,,,,,,,,,,199171,18,2022-01-29_24h16.20.330,lexical_decision_task_DD_L5,2021.2.3,MacIntel,60.0024001,,,,,,,,,,,1.0895,0,,,,,,,,,,,,,,,,,,,,,,,,0.249509549,-0.145920139,0,0,0,,,,,,,GRANNY,C,m,y,./images/GRANNY.png,,,,,,,z,0,1.0895,,,,,,,,0,98,98,20,1
,,,,,,,,,,,,,,,,,199171,18,2022-01-29_24h16.20.330,lexical_decision_task_DD_L5,2021.2.3,MacIntel,60.0024001,,,,,,,,,,,1.5497,0,,,,,,,,,,,,,,,,,,,,,,,,0.249509549,-0.145920139,0,0,0,,,,,,,ARROW,HB,m,y,./images/ARROWHB.png,,,,,,,z,0,1.5497,,,,,,,,0,99,99,69,1
,,,,,,,,,,,,,,,,,199171,18,2022-01-29_24h16.20.330,lexical_decision_task_DD_L5,2021.2.3,MacIntel,60.0024001,,,,,,,,,,,4.7982,1,,,,,,,,,,,,,,,,,,,,,,,,0.249509549,-0.145920139,0,0,0,,,,,,,SPINE,C,m,y,./images/SPINE.png,,,,,,,m,1,4.7982,,,,,,,,0,100,100,65,1
,,,,,,,,,,,,,,,,,199171,18,2022-01-29_24h16.20.330,lexical_decision_task_DD_L5,2021.2.3,MacIntel,60.0024001,,,,,,,,,,,6.0667,1,,,,,,,,,,,,,,,,,,,,,,,,0.249509549,-0.145920139,0,0,0,,,,,,,STORM,HB,z,y,./images/STORMHB.png,,,,,,,z,1,6.0667,,,,,,,,0,101,101,114,1
,,,,,,,,,,,,,,,,,199171,18,2022-01-29_24h16.20.330,lexical_decision_task_DD_L5,2021.2.3,MacIntel,60.0024001,,,,,,,,,,,1.084,0,,,,,,,,,,,,,,,,,,,,,,,,0.249509549,-0.145920139,0,0,0,,,,,,,MEDAL,C,m,y,./images/MEDAL.png,,,,,,,z,0,1.084,,,,,,,,0,102,102,11,1
,,,,,,,,,,,,,,,,,199171,18,2022-01-29_24h16.20.330,lexical_decision_task_DD_L5,2021.2.3,MacIntel,60.0024001,,,,,,,,,,,3.2539,1,,,,,,,,,,,,,,,,,,,,,,,,0.249509549,-0.145920139,0,0,0,,,,,,,BARREL,C,z,y,./images/BARREL.png,,,,,,,z,1,3.2539,,,,,,,,0,103,103,116,1
,,,,,,,,,,,,,,,,,199171,18,2022-01-29_24h16.20.330,lexical_decision_task_DD_L5,2021.2.3,MacIntel,60.0024001,,,,,,,,,,,0.8172,0,,,,,,,,,,,,,,,,,,,,,,,,0.249509549,-0.145920139,0,0,0,,,,,,,WHISKY,C,m,y,./images/WHISKY.png,,,,,,,z,0,0.8172,,,,,,,,0,104,104,83,1
,,,,,,,,,,,,,,,,,199171,18,2022-01-29_24h16.20.330,lexical_decision_task_DD_L5,2021.2.3,MacIntel,60.0024001,,,,,,,,,,,1.1552,0,,,,,,,,,,,,,,,,,,,,,,,,0.249509549,-0.145920139,0,0,0,,,,,,,DESERT,LB,m,y,./images/DESERTLB.png,,,,,,,z,0,1.1552,,,,,,,,0,105,105,52,1
,,,,,,,,,,,,,,,,,199171,18,2022-01-29_24h16.20.330,lexical_decision_task_DD_L5,2021.2.3,MacIntel,60.0024001,,,,,,,,,,,0.8012,0,,,,,,,,,,,,,,,,,,,,,,,,0.249509549,-0.145920139,0,0,0,,,,,,,FLASK,HB,m,y,./images/FLASKHB.png,,,,,,,z,0,0.8012,,,,,,,,0,106,106,72,1
,,,,,,,,,,,,,,,,,199171,18,2022-01-29_24h16.20.330,lexical_decision_task_DD_L5,2021.2.3,MacIntel,60.0024001,,,,,,,,,,,0.6995,0,,,,,,,,,,,,,,,,,,,,,,,,0.249509549,-0.145920139,0,0,0,,,,,,,WHEEL,C,m,y,./images/WHEEL.png,,,,,,,z,0,0.6995,,,,,,,,0,107,107,77,1
,,,,,,,,,,,,,,,,,199171,18,2022-01-29_24h16.20.330,lexical_decision_task_DD_L5,2021.2.3,MacIntel,60.0024001,,,,,,,,,,,8.6164,0,,,,,,,,,,,,,,,,,,,,,,,,0.249509549,-0.145920139,0,0,0,,,,,,,BIRTH,LB,z,y,./images/BIRTHLB.png,,,,,,,m,0,8.6164,,,,,,,,0,108,108,121,1
,,,,,,,,,,,,,,,,,199171,18,2022-01-29_24h16.20.330,lexical_decision_task_DD_L5,2021.2.3,MacIntel,60.0024001,,,,,,,,,,,0.932,0,,,,,,,,,,,,,,,,,,,,,,,,0.249509549,-0.145920139,0,0,0,,,,,,,CANOE,LB,m,y,./images/CANOELB.png,,,,,,,z,0,0.932,,,,,,,,0,109,109,58,1
,,,,,,,,,,,,,,,,,199171,18,2022-01-29_24h16.20.330,lexical_decision_task_DD_L5,2021.2.3,MacIntel,60.0024001,,,,,,,,,,,1.6884,0,,,,,,,,,,,,,,,,,,,,,,,,0.249509549,-0.145920139,0,0,0,,,,,,,MIRROR,HB,z,y,./images/MIRRORHB.png,,,,,,,m,0,1.6884,,,,,,,,0,110,110,147,1
,,,,,,,,,,,,,,,,,199171,18,2022-01-29_24h16.20.330,lexical_decision_task_DD_L5,2021.2.3,MacIntel,60.0024001,,,,,,,,,,,2.3015,1,,,,,,,,,,,,,,,,,,,,,,,,0.249509549,-0.145920139,0,0,0,,,,,,,ATTIC,HB,z,y,./images/ATTICHB.png,,,,,,,z,1,2.3015,,,,,,,,0,111,111,111,1
,,,,,,,,,,,,,,,,,199171,18,2022-01-29_24h16.20.330,lexical_decision_task_DD_L5,2021.2.3,MacIntel,60.0024001,,,,,,,,,,,1.0333,1,,,,,,,,,,,,,,,,,,,,,,,,0.249509549,-0.145920139,0,0,0,,,,,,,SCREW,HB,z,y,./images/SCREWHB.png,,,,,,,z,1,1.0333,,,,,,,,0,112,112,108,1
,,,,,,,,,,,,,,,,,199171,18,2022-01-29_24h16.20.330,lexical_decision_task_DD_L5,2021.2.3,MacIntel,60.0024001,,,,,,,,,,,0.9988,1,,,,,,,,,,,,,,,,,,,,,,,,0.249509549,-0.145920139,0,0,0,,,,,,,TULIP,C,z,y,./images/TULIP.png,,,,,,,z,1,0.9988,,,,,,,,0,113,113,92,1
,,,,,,,,,,,,,,,,,199171,18,2022-01-29_24h16.20.330,lexical_decision_task_DD_L5,2021.2.3,MacIntel,60.0024001,,,,,,,,,,,0.5841,0,,,,,,,,,,,,,,,,,,,,,,,,0.249509549,-0.145920139,0,0,0,,,,,,,PARCEL,HB,m,y,./images/PARCELHB.png,,,,,,,z,0,0.5841,,,,,,,,0,114,114,18,1
,,,,,,,,,,,,,,,,,199171,18,2022-01-29_24h16.20.330,lexical_decision_task_DD_L5,2021.2.3,MacIntel,60.0024001,,,,,,,,,,,0.469,1,,,,,,,,,,,,,,,,,,,,,,,,0.249509549,-0.145920139,0,0,0,,,,,,,CEMENT,C,z,y,./images/CEMENT.png,,,,,,,z,1,0.469,,,,,,,,0,115,115,158,1
,,,,,,,,,,,,,,,,,199171,18,2022-01-29_24h16.20.330,lexical_decision_task_DD_L5,2021.2.3,MacIntel,60.0024001,,,,,,,,,,,0.6979,1,,,,,,,,,,,,,,,,,,,,,,,,0.249509549,-0.145920139,0,0,0,,,,,,,MELON,LB,z,y,./images/MELONLB.png,,,,,,,z,1,0.6979,,,,,,,,0,116,116,106,1
,,,,,,,,,,,,,,,,,199171,18,2022-01-29_24h16.20.330,lexical_decision_task_DD_L5,2021.2.3,MacIntel,60.0024001,,,,,,,,,,,0.4669,0,,,,,,,,,,,,,,,,,,,,,,,,0.249509549,-0.145920139,0,0,0,,,,,,,CLOTH,C,m,y,./images/CLOTH.png,,,,,,,z,0,0.4669,,,,,,,,0,117,117,23,1
,,,,,,,,,,,,,,,,,199171,18,2022-01-29_24h16.20.330,lexical_decision_task_DD_L5,2021.2.3,MacIntel,60.0024001,,,,,,,,,,,0.6471,1,,,,,,,,,,,,,,,,,,,,,,,,0.249509549,-0.145920139,0,0,0,,,,,,,SMOKER,C,z,y,./images/SMOKER.png,,,,,,,z,1,0.6471,,,,,,,,0,118,118,110,1
,,,,,,,,,,,,,,,,,199171,18,2022-01-29_24h16.20.330,lexical_decision_task_DD_L5,2021.2.3,MacIntel,60.0024001,,,,,,,,,,,0.4316,0,,,,,,,,,,,,,,,,,,,,,,,,0.249509549,-0.145920139,0,0,0,,,,,,,POKER,LB,m,y,./images/POKERLB.png,,,,,,,z,0,0.4316,,,,,,,,0,119,119,67,1
,,,,,,,,,,,,,,,,,199171,18,2022-01-29_24h16.20.330,lexical_decision_task_DD_L5,2021.2.3,MacIntel,60.0024001,,,,,,,,,,,0.6991,1,,,,,,,,,,,,,,,,,,,,,,,,0.249509549,-0.145920139,0,0,0,,,,,,,PACKET,C,z,y,./images/PACKET.png,,,,,,,z,1,0.6991,,,,,,,,0,120,120,140,1
,,,,,,,,,,,,,,,,,199171,18,2022-01-29_24h16.20.330,lexical_decision_task_DD_L5,2021.2.3,MacIntel,60.0024001,,,,,,,,,,,1.8498,1,,,,,,,,,,,,,,,,,,,,,,,,0.249509549,-0.145920139,0,0,0,,,,,,,MAGGOT,HB,z,y,./images/MAGGOTHB.png,,,,,,,z,1,1.8498,,,,,,,,0,121,121,117,1
,,,,,,,,,,,,,,,,,199171,18,2022-01-29_24h16.20.330,lexical_decision_task_DD_L5,2021.2.3,MacIntel,60.0024001,,,,,,,,,,,2.1316,0,,,,,,,,,,,,,,,,,,,,,,,,0.249509549,-0.145920139,0,0,0,,,,,,,STOVE,C,m,y,./images/STOVE.png,,,,,,,z,0,2.1316,,,,,,,,0,122,122,2,1
,,,,,,,,,,,,,,,,,199171,18,2022-01-29_24h16.20.330,lexical_decision_task_DD_L5,2021.2.3,MacIntel,60.0024001,,,,,,,,,,,0.8875,0,,,,,,,,,,,,,,,,,,,,,,,,0.249509549,-0.145920139,0,0,0,,,,,,,SLOPE,HB,m,y,./images/SLOPEHB.png,,,,,,,z,0,0.8875,,,,,,,,0,123,123,30,1
,,,,,,,,,,,,,,,,,199171,18,2022-01-29_24h16.20.330,lexical_decision_task_DD_L5,2021.2.3,MacIntel,60.0024001,,,,,,,,,,,0.765,1,,,,,,,,,,,,,,,,,,,,,,,,0.249509549,-0.145920139,0,0,0,,,,,,,MOSQUE,LB,z,y,./images/MOSQUELB.png,,,,,,,z,1,0.765,,,,,,,,0,124,124,127,1
,,,,,,,,,,,,,,,,,199171,18,2022-01-29_24h16.20.330,lexical_decision_task_DD_L5,2021.2.3,MacIntel,60.0024001,,,,,,,,,,,0.5835,1,,,,,,,,,,,,,,,,,,,,,,,,0.249509549,-0.145920139,0,0,0,space,,,,,,SQUARE,HB,z,y,./images/SQUAREHB.png,1.631,,,,,,z,1,0.5835,,,,,,,,0,125,125,90,1
,,,,,,,,,,,,,,,,,199171,18,2022-01-29_24h16.20.330,lexical_decision_task_DD_L5,2021.2.3,MacIntel,60.0024001,,,,,,,,,,,1.3344,0,,,,,,,,,,,,,,,,,,,,,,,,0.249509549,-0.145920139,0,0,0,,,,,,,HEATER,C,m,y,./images/HEATER.png,,,,,,,z,0,1.3344,,,,,,,,0,126,126,56,1
,,,,,,,,,,,,,,,,,199171,18,2022-01-29_24h16.20.330,lexical_decision_task_DD_L5,2021.2.3,MacIntel,60.0024001,,,,,,,,,,,1.5485,1,,,,,,,,,,,,,,,,,,,,,,,,0.249509549,-0.145920139,0,0,0,,,,,,,GLOVE,LB,m,y,./images/GLOVELB.png,,,,,,,m,1,1.5485,,,,,,,,0,127,127,73,1
,,,,,,,,,,,,,,,,,199171,18,2022-01-29_24h16.20.330,lexical_decision_task_DD_L5,2021.2.3,MacIntel,60.0024001,,,,,,,,,,,1.1176,1,,,,,,,,,,,,,,,,,,,,,,,,0.249509549,-0.145920139,0,0,0,,,,,,,MUSCLE,LB,z,y,./images/MUSCLELB.png,,,,,,,z,1,1.1176,,,,,,,,0,128,128,88,1
,,,,,,,,,,,,,,,,,199171,18,2022-01-29_24h16.20.330,lexical_decision_task_DD_L5,2021.2.3,MacIntel,60.0024001,,,,,,,,,,,4.7169,0,,,,,,,,,,,,,,,,,,,,,,,,0.249509549,-0.145920139,0,0,0,,,,,,,ARTIST,LB,m,y,./images/ARTISTLB.png,,,,,,,z,0,4.7169,,,,,,,,0,129,129,61,1
,,,,,,,,,,,,,,,,,199171,18,2022-01-29_24h16.20.330,lexical_decision_task_DD_L5,2021.2.3,MacIntel,60.0024001,,,,,,,,,,,1.5648,0,,,,,,,,,,,,,,,,,,,,,,,,0.249509549,-0.145920139,0,0,0,,,,,,,DIVER,HB,m,y,./images/DIVERHB.png,,,,,,,z,0,1.5648,,,,,,,,0,130,130,9,1
,,,,,,,,,,,,,,,,,199171,18,2022-01-29_24h16.20.330,lexical_decision_task_DD_L5,2021.2.3,MacIntel,60.0024001,,,,,,,,,,,6.7373,1,,,,,,,,,,,,,,,,,,,,,,,,0.249509549,-0.145920139,0,0,0,,,,,,,CHALK,LB,m,y,./images/CHALKLB.png,,,,,,,m,1,6.7373,,,,,,,,0,131,131,25,1
,,,,,,,,,,,,,,,,,199171,18,2022-01-29_24h16.20.330,lexical_decision_task_DD_L5,2021.2.3,MacIntel,60.0024001,,,,,,,,,,,0.6313,1,,,,,,,,,,,,,,,,,,,,,,,,0.249509549,-0.145920139,0,0,0,,,,,,,MOOSE,HB,z,y,./images/MOOSEHB.png,,,,,,,z,1,0.6313,,,,,,,,0,132,132,141,1
,,,,,,,,,,,,,,,,,199171,18,2022-01-29_24h16.20.330,lexical_decision_task_DD_L5,2021.2.3,MacIntel,60.0024001,,,,,,,,,,,1.6991,0,,,,,,,,,,,,,,,,,,,,,,,,0.249509549,-0.145920139,0,0,0,,,,,,,LAGOON,C,m,y,./images/LAGOON.png,,,,,,,z,0,1.6991,,,,,,,,0,133,133,47,1
,,,,,,,,,,,,,,,,,199171,18,2022-01-29_24h16.20.330,lexical_decision_task_DD_L5,2021.2.3,MacIntel,60.0024001,,,,,,,,,,,1.7662,1,,,,,,,,,,,,,,,,,,,,,,,,0.249509549,-0.145920139,0,0,0,,,,,,,MUFFIN,LB,z,y,./images/MUFFINLB.png,,,,,,,z,1,1.7662,,,,,,,,0,134,134,139,1
,,,,,,,,,,,,,,,,,199171,18,2022-01-29_24h16.20.330,lexical_decision_task_DD_L5,2021.2.3,MacIntel,60.0024001,,,,,,,,,,,1.0147,1,,,,,,,,,,,,,,,,,,,,,,,,0.249509549,-0.145920139,0,0,0,,,,,,,KITTEN,HB,z,y,./images/KITTENHB.png,,,,,,,z,1,1.0147,,,,,,,,0,135,135,129,1
,,,,,,,,,,,,,,,,,199171,18,2022-01-29_24h16.20.330,lexical_decision_task_DD_L5,2021.2.3,MacIntel,60.0024001,,,,,,,,,,,2.8152,0,,,,,,,,,,,,,,,,,,,,,,,,0.249509549,-0.145920139,0,0,0,,,,,,,BAMBOO,C,m,y,./images/BAMBOO.png,,,,,,,z,0,2.8152,,,,,,,,0,136,136,5,1
,,,,,,,,,,,,,,,,,199171,18,2022-01-29_24h16.20.330,lexical_decision_task_DD_L5,2021.2.3,MacIntel,60.0024001,,,,,,,,,,,1.2392,1,,,,,,,,,,,,,,,,,,,,,,,,0.249509549,-0.145920139,0,0,0,,,,,,,KIDNEY,HB,z,y,./images/KIDNEYHB.png,,,,,,,z,1,1.2392,,,,,,,,0,137,137,105,1
,,,,,,,,,,,,,,,,,199171,18,2022-01-29_24h16.20.330,lexical_decision_task_DD_L5,2021.2.3,MacIntel,60.0024001,,,,,,,,,,,0.8308,0,,,,,,,,,,,,,,,,,,,,,,,,0.249509549,-0.145920139,0,0,0,,,,,,,GRAPE,LB,m,y,./images/GRAPELB.png,,,,,,,z,0,0.8308,,,,,,,,0,138,138,16,1
,,,,,,,,,,,,,,,,,199171,18,2022-01-29_24h16.20.330,lexical_decision_task_DD_L5,2021.2.3,MacIntel,60.0024001,,,,,,,,,,,1.1178,0,,,,,,,,,,,,,,,,,,,,,,,,0.249509549,-0.145920139,0,0,0,,,,,,,SAUNA,HB,m,y,./images/SAUNAHB.png,,,,,,,z,0,1.1178,,,,,,,,0,139,139,33,1
,,,,,,,,,,,,,,,,,199171,18,2022-01-29_24h16.20.330,lexical_decision_task_DD_L5,2021.2.3,MacIntel,60.0024001,,,,,,,,,,,2.5983,1,,,,,,,,,,,,,,,,,,,,,,,,0.249509549,-0.145920139,0,0,0,,,,,,,PEACH,C,z,y,./images/PEACH.png,,,,,,,z,1,2.5983,,,,,,,,0,140,140,119,1
,,,,,,,,,,,,,,,,,199171,18,2022-01-29_24h16.20.330,lexical_decision_task_DD_L5,2021.2.3,MacIntel,60.0024001,,,,,,,,,,,0.8331,0,,,,,,,,,,,,,,,,,,,,,,,,0.249509549,-0.145920139,0,0,0,,,,,,,MIDGET,LB,m,y,./images/MIDGETLB.png,,,,,,,z,0,0.8331,,,,,,,,0,141,141,76,1
,,,,,,,,,,,,,,,,,199171,18,2022-01-29_24h16.20.330,lexical_decision_task_DD_L5,2021.2.3,MacIntel,60.0024001,,,,,,,,,,,0.9307,0,,,,,,,,,,,,,,,,,,,,,,,,0.249509549,-0.145920139,0,0,0,,,,,,,WALNUT,HB,m,y,./images/WALNUTHB.png,,,,,,,z,0,0.9307,,,,,,,,0,142,142,0,1
,,,,,,,,,,,,,,,,,199171,18,2022-01-29_24h16.20.330,lexical_decision_task_DD_L5,2021.2.3,MacIntel,60.0024001,,,,,,,,,,,1.0148,0,,,,,,,,,,,,,,,,,,,,,,,,0.249509549,-0.145920139,0,0,0,,,,,,,DRUMS,LB,z,y,./images/DRUMSLB.png,,,,,,,m,0,1.0148,,,,,,,,0,143,143,133,1
,,,,,,,,,,,,,,,,,199171,18,2022-01-29_24h16.20.330,lexical_decision_task_DD_L5,2021.2.3,MacIntel,60.0024001,,,,,,,,,,,6.2502,1,,,,,,,,,,,,,,,,,,,,,,,,0.249509549,-0.145920139,0,0,0,,,,,,,GREASE,HB,z,y,./images/GREASEHB.png,,,,,,,z,1,6.2502,,,,,,,,0,144,144,99,1
,,,,,,,,,,,,,,,,,199171,18,2022-01-29_24h16.20.330,lexical_decision_task_DD_L5,2021.2.3,MacIntel,60.0024001,,,,,,,,,,,1.4483,0,,,,,,,,,,,,,,,,,,,,,,,,0.249509549,-0.145920139,0,0,0,,,,,,,WAGON,LB,m,y,./images/WAGONLB.png,,,,,,,z,0,1.4483,,,,,,,,0,145,145,7,1
,,,,,,,,,,,,,,,,,199171,18,2022-01-29_24h16.20.330,lexical_decision_task_DD_L5,2021.2.3,MacIntel,60.0024001,,,,,,,,,,,0.9483,1,,,,,,,,,,,,,,,,,,,,,,,,0.249509549,-0.145920139,0,0,0,,,,,,,URINE,LB,z,y,./images/URINELB.png,,,,,,,z,1,0.9483,,,,,,,,0,146,146,154,1
,,,,,,,,,,,,,,,,,199171,18,2022-01-29_24h16.20.330,lexical_decision_task_DD_L5,2021.2.3,MacIntel,60.0024001,,,,,,,,,,,1.3164,0,,,,,,,,,,,,,,,,,,,,,,,,0.249509549,-0.145920139,0,0,0,,,,,,,BRUSH,C,m,y,./images/BRUSH.png,,,,,,,z,0,1.3164,,,,,,,,0,147,147,59,1
,,,,,,,,,,,,,,,,,199171,18,2022-01-29_24h16.20.330,lexical_decision_task_DD_L5,2021.2.3,MacIntel,60.0024001,,,,,,,,,,,1.031,0,,,,,,,,,,,,,,,,,,,,,,,,0.249509549,-0.145920139,0,0,0,,,,,,,MONKEY,HB,m,y,./images/MONKEYHB.png,,,,,,,z,0,1.031,,,,,,,,0,148,148,45,1
,,,,,,,,,,,,,,,,,199171,18,2022-01-29_24h16.20.330,lexical_decision_task_DD_L5,2021.2.3,MacIntel,60.0024001,,,,,,,,,,,0.9997,1,,,,,,,,,,,,,,,,,,,,,,,,0.249509549,-0.145920139,0,0,0,,,,,,,ONION,HB,z,y,./images/ONIONHB.png,,,,,,,z,1,0.9997,,,,,,,,0,149,149,135,1
,,,,,,,,,,,,,,,,,199171,18,2022-01-29_24h16.20.330,lexical_decision_task_DD_L5,2021.2.3,MacIntel,60.0024001,,,,,,,,,,,1.3321,0,,,,,,,,,,,,,,,,,,,,,,,,0.249509549,-0.145920139,0,0,0,,,,,,,SPORT,HB,z,y,./images/SPORTHB.png,,,,,,,m,0,1.3321,,,,,,,,0,150,150,132,1
,,,,,,,,,,,,,,,,,199171,18,2022-01-29_24h16.20.330,lexical_decision_task_DD_L5,2021.2.3,MacIntel,60.0024001,,,,,,,,,,,0.882,1,,,,,,,,,,,,,,,,,,,,,,,,0.249509549,-0.145920139,0,0,0,,,,,,,CANDLE,LB,z,y,./images/CANDLELB.png,,,,,,,z,1,0.882,,,,,,,,0,151,151,145,1
,,,,,,,,,,,,,,,,,199171,18,2022-01-29_24h16.20.330,lexical_decision_task_DD_L5,2021.2.3,MacIntel,60.0024001,,,,,,,,,,,0.7705,1,,,,,,,,,,,,,,,,,,,,,,,,0.249509549,-0.145920139,0,0,0,,,,,,,PASTA,C,z,y,./images/PASTA.png,,,,,,,z,1,0.7705,,,,,,,,0,152,152,89,1
,,,,,,,,,,,,,,,,,199171,18,2022-01-29_24h16.20.330,lexical_decision_task_DD_L5,2021.2.3,MacIntel,60.0024001,,,,,,,,,,,0.7052,1,,,,,,,,,,,,,,,,,,,,,,,,0.249509549,-0.145920139,0,0,0,,,,,,,TRIPOD,HB,z,y,./images/TRIPODHB.png,,,,,,,z,1,0.7052,,,,,,,,0,153,153,138,1
,,,,,,,,,,,,,,,,,199171,18,2022-01-29_24h16.20.330,lexical_decision_task_DD_L5,2021.2.3,MacIntel,60.0024001,,,,,,,,,,,0.931,1,,,,,,,,,,,,,,,,,,,,,,,,0.249509549,-0.145920139,0,0,0,,,,,,,POODLE,HB,z,y,./images/POODLEHB.png,,,,,,,z,1,0.931,,,,,,,,0,154,154,165,1
,,,,,,,,,,,,,,,,,199171,18,2022-01-29_24h16.20.330,lexical_decision_task_DD_L5,2021.2.3,MacIntel,60.0024001,,,,,,,,,,,0.7356,0,,,,,,,,,,,,,,,,,,,,,,,,0.249509549,-0.145920139,0,0,0,,,,,,,SAUCE,HB,m,y,./images/SAUCEHB.png,,,,,,,z,0,0.7356,,,,,,,,0,155,155,51,1
,,,,,,,,,,,,,,,,,199171,18,2022-01-29_24h16.20.330,lexical_decision_task_DD_L5,2021.2.3,MacIntel,60.0024001,,,,,,,,,,,0.9848,1,,,,,,,,,,,,,,,,,,,,,,,,0.249509549,-0.145920139,0,0,0,,,,,,,TWINS,HB,z,y,./images/TWINSHB.png,,,,,,,z,1,0.9848,,,,,,,,0,156,156,144,1
,,,,,,,,,,,,,,,,,199171,18,2022-01-29_24h16.20.330,lexical_decision_task_DD_L5,2021.2.3,MacIntel,60.0024001,,,,,,,,,,,1.5538,1,,,,,,,,,,,,,,,,,,,,,,,,0.249509549,-0.145920139,0,0,0,,,,,,,PURSE,C,z,y,./images/PURSE.png,,,,,,,z,1,1.5538,,,,,,,,0,157,157,146,1
,,,,,,,,,,,,,,,,,199171,18,2022-01-29_24h16.20.330,lexical_decision_task_DD_L5,2021.2.3,MacIntel,60.0024001,,,,,,,,,,,0.7815,1,,,,,,,,,,,,,,,,,,,,,,,,0.249509549,-0.145920139,0,0,0,,,,,,,MOTOR,LB,z,y,./images/MOTORLB.png,,,,,,,z,1,0.7815,,,,,,,,0,158,158,97,1
,,,,,,,,,,,,,,,,,199171,18,2022-01-29_24h16.20.330,lexical_decision_task_DD_L5,2021.2.3,MacIntel,60.0024001,,,,,,,,,,,2.4064,0,,,,,,,,,,,,,,,,,,,,,,,,0.249509549,-0.145920139,0,0,0,,,,,,,PAINT,LB,z,y,./images/PAINTLB.png,,,,,,,m,0,2.4064,,,,,,,,0,159,159,91,1
,,,,,,,,,,,,,,,,,199171,18,2022-01-29_24h16.20.330,lexical_decision_task_DD_L5,2021.2.3,MacIntel,60.0024001,,,,,,,,,,,1.2699,1,,,,,,,,,,,,,,,,,,,,,,,,0.249509549,-0.145920139,0,0,0,,,,,,,BAKER,HB,m,y,./images/BAKERHB.png,,,,,,,m,1,1.2699,,,,,,,,0,160,160,63,1
,,,,,,,,,,,,,,,,,199171,18,2022-01-29_24h16.20.330,lexical_decision_task_DD_L5,2021.2.3,MacIntel,60.0024001,,,,,,,,,,,4.6985,0,,,,,,,,,,,,,,,,,,,,,,,,0.249509549,-0.145920139,0,0,0,,,,,,,CLOUD,C,m,y,./images/CLOUD.png,,,,,,,z,0,4.6985,,,,,,,,0,161,161,26,1
,,,,,,,,,,,,,,,,,199171,18,2022-01-29_24h16.20.330,lexical_decision_task_DD_L5,2021.2.3,MacIntel,60.0024001,,,,,,,,,,,1.1665,0,,,,,,,,,,,,,,,,,,,,,,,,0.249509549,-0.145920139,0,0,0,,,,,,,RULER,LB,m,y,./images/RULERLB.png,,,,,,,z,0,1.1665,,,,,,,,0,162,162,79,1
,,,,,,,,,,,,,,,,,199171,18,2022-01-29_24h16.20.330,lexical_decision_task_DD_L5,2021.2.3,MacIntel,60.0024001,,,,,,,,,,,0.6667,0,,,,,,,,,,,,,,,,,,,,,,,,0.249509549,-0.145920139,0,0,0,,,,,,,PLANET,C,m,y,./images/PLANET.png,,,,,,,z,0,0.6667,,,,,,,,0,163,163,80,1
,,,,,,,,,,,,,,,,,199171,18,2022-01-29_24h16.20.330,lexical_decision_task_DD_L5,2021.2.3,MacIntel,60.0024001,,,,,,,,,,,0.6983,0,,,,,,,,,,,,,,,,,,,,,,,,0.249509549,-0.145920139,0,0,0,,,,,,,BRIDE,LB,m,y,./images/BRIDELB.png,,,,,,,z,0,0.6983,,,,,,,,0,164,164,64,1
,,,,,,,,,,,,,,,,,199171,18,2022-01-29_24h16.20.330,lexical_decision_task_DD_L5,2021.2.3,MacIntel,60.0024001,,,,,,,,,,,1.5645,1,,,,,,,,,,,,,,,,,,,,,,,,0.249509549,-0.145920139,0,0,0,,,,,,,GRAIN,HB,z,y,./images/GRAINHB.png,,,,,,,z,1,1.5645,,,,,,,,0,165,165,159,1
,,,,,,,,,,,,,,,,,199171,18,2022-01-29_24h16.20.330,lexical_decision_task_DD_L5,2021.2.3,MacIntel,60.0024001,,,,,,,,,,,1.0325,0,,,,,,,,,,,,,,,,,,,,,,,,0.249509549,-0.145920139,0,0,0,,,,,,,VALLEY,C,m,y,./images/VALLEY.png,,,,,,,z,0,1.0325,,,,,,,,0,166,166,68,1
,,,,,,,,,,,,,,,,,199171,18,2022-01-29_24h16.20.330,lexical_decision_task_DD_L5,2021.2.3,MacIntel,60.0024001,,,,,,,,,,,2.367,0,,,,,,,,,,,,,,,,,,,,,,,,0.249509549,-0.145920139,0,0,0,,,,,,,HAMMER,HB,m,y,./images/HAMMERHB.png,,,,,,,z,0,2.367,,,,,,,,0,167,167,75,1
