key_resp.keys,instr_done_touch.x,instr_done_touch.y,instr_done_touch.leftButton,instr_done_touch.midButton,instr_done_touch.rightButton,instr_done_touch.clicked_name,instruction_pages.thisRepN,instruction_pages.thisTrialN,instruction_pages.thisN,instruction_pages.thisIndex,instruction_pages.ran,pageN,phase,instruct_text,has_image,instruct_image,participant,age,date,expName,psychopyVersion,OS,frameRate,key_resp.rt,response.keys,response.corr,response.rt,touch_resp.x,touch_resp.y,touch_resp.leftButton,touch_resp.midButton,touch_resp.rightButton,touch_resp.time,touch_resp.clicked_name,rt,corr,practrials.thisRepN,practrials.thisTrialN,practrials.thisN,practrials.thisIndex,practrials.ran,TrialID,Target,corrAns,end_of_practice_trials_pages.thisRepN,end_of_practice_trials_pages.thisTrialN,end_of_practice_trials_pages.thisN,end_of_practice_trials_pages.thisIndex,end_of_practice_trials_pages.ran,key_resp_2.keys,key_resp_2.corr,key_resp_2.rt,targ_click.x,targ_click.y,targ_click.leftButton,targ_click.midButton,targ_click.rightButton,targ_click.time,targ_click.clicked_name,break_done_touch.x,break_done_touch.y,break_done_touch.leftButton,break_done_touch.midButton,break_done_touch.rightButton,break_done_keyboard.keys,maintrials.thisRepN,maintrials.thisTrialN,maintrials.thisN,maintrials.thisIndex,maintrials.ran,string,blur,study,lex,stim_path,break_done_keyboard.rt,test_instructions.thisRepN,test_instructions.thisTrialN,test_instructions.thisN,test_instructions.thisIndex,test_instructions.ran,key_resp_3.keys,key_resp_3.corr,key_resp_3.rt,test_click.x,test_click.y,test_click.leftButton,test_click.midButton,test_click.rightButton,test_click.time,test_click.clicked_name,test_phase.thisRepN,test_phase.thisTrialN,test_phase.thisN,test_phase.thisIndex,test_phase.ran
,0.093693719,-0.414714742,1,0,0,instr_done_button,0,0,0,0,1,1,instructions,"INSTRUCTIONS
At the start of each trial, look at the plus sign  (+) in the center of the screen.  This tells you that a trial is about to begin and where to look. Second, the plus sign will disappear and a string of letters will appear. Your task is to determine if the string of letters is a word or not. If the item is a word press the M key (on keyboard)  or touch the word button (phone/tablet).  If the item is not a word,  press the  Z key (on keyboard)  or touch the nonword button (on phone/tablet). 
Press the space bar or touch  continue.",0,,199198,18,2022-01-28_19h37.47.336,lexical_decision_task_DD_L6,2021.2.3,Win32,59.99520038,,,,,,,,,,,,,,,,,,,,,,,,,,,,,,,,,,,,,,,,,,,,,,,,,,,,,,,,,,,,,,,,,,,,,,,,,
space,0.563964003,-0.089189207,0,0,0,,0,1,1,1,1,2,instructions,"If your device has a keyboard, press the 'Z' key for nonwords and the 'M' key for words.





Press the space bar or touch the button below to continue.",0,keyboard-example.gif,199198,18,2022-01-28_19h37.47.336,lexical_decision_task_DD_L6,2021.2.3,Win32,59.99520038,7.4115,,,,,,,,,,,,,,,,,,,,,,,,,,,,,,,,,,,,,,,,,,,,,,,,,,,,,,,,,,,,,,,,,,,,,,,,
space,0.563964003,-0.089189207,0,0,0,,0,2,2,2,1,3,instructions,"If you are using a touchscreen only device, use the buttons on the screen. Do not use the mouse.





Press the space bar or touch the button below to continue.",0,touchscreen-example.gif,199198,18,2022-01-28_19h37.47.336,lexical_decision_task_DD_L6,2021.2.3,Win32,59.99520038,2.483,,,,,,,,,,,,,,,,,,,,,,,,,,,,,,,,,,,,,,,,,,,,,,,,,,,,,,,,,,,,,,,,,,,,,,,,
space,0.563964003,-0.089189207,0,0,0,,0,3,3,3,1,4,instructions,"It is very important that you respond as quickly and accurately as possible, as each letter string will only be on the screen for two seconds. If you do not respond within this time, the message 'Too slow!' will be displayed and the experiment will progress to the next letter string. The first 20 trials will be practice trials and you will receive feedback on your answers. 

Press the space bar or touch the button below to start the practice trials.",0,,199198,18,2022-01-28_19h37.47.336,lexical_decision_task_DD_L6,2021.2.3,Win32,59.99520038,14.5603,,,,,,,,,,,,,,,,,,,,,,,,,,,,,,,,,,,,,,,,,,,,,,,,,,,,,,,,,,,,,,,,,,,,,,,,
,,,,,,,,,,,,,,,,,199198,18,2022-01-28_19h37.47.336,lexical_decision_task_DD_L6,2021.2.3,Win32,59.99520038,,z,1,1.7564,,,,,,,,1.7564,1,0,0,0,14,1,1001,THRALE,z,,,,,,,,,,,,,,,,,,,,,,,,,,,,,,,,,,,,,,,,,,,,,,,,,,,,
,,,,,,,,,,,,,,,,,199198,18,2022-01-28_19h37.47.336,lexical_decision_task_DD_L6,2021.2.3,Win32,59.99520038,,m,1,1.0354,,,,,,,,1.0354,1,0,1,1,4,1,1001,SQUEAK,m,,,,,,,,,,,,,,,,,,,,,,,,,,,,,,,,,,,,,,,,,,,,,,,,,,,,
,,,,,,,,,,,,,,,,,199198,18,2022-01-28_19h37.47.336,lexical_decision_task_DD_L6,2021.2.3,Win32,59.99520038,,m,0,1.3692,,,,,,,,1.3692,0,0,2,2,8,1,1001,ASLERT,z,,,,,,,,,,,,,,,,,,,,,,,,,,,,,,,,,,,,,,,,,,,,,,,,,,,,
,,,,,,,,,,,,,,,,,199198,18,2022-01-28_19h37.47.336,lexical_decision_task_DD_L6,2021.2.3,Win32,59.99520038,,m,1,0.6181,,,,,,,,0.6181,1,0,3,3,7,1,1001,VOLUME,m,,,,,,,,,,,,,,,,,,,,,,,,,,,,,,,,,,,,,,,,,,,,,,,,,,,,
,,,,,,,,,,,,,,,,,199198,18,2022-01-28_19h37.47.336,lexical_decision_task_DD_L6,2021.2.3,Win32,59.99520038,,z,1,0.8667,,,,,,,,0.8667,1,0,4,4,10,1,1001,INLADE,z,,,,,,,,,,,,,,,,,,,,,,,,,,,,,,,,,,,,,,,,,,,,,,,,,,,,
,,,,,,,,,,,,,,,,,199198,18,2022-01-28_19h37.47.336,lexical_decision_task_DD_L6,2021.2.3,Win32,59.99520038,,z,1,0.7889,,,,,,,,0.7889,1,0,5,5,15,1,1001,WHAISE,z,,,,,,,,,,,,,,,,,,,,,,,,,,,,,,,,,,,,,,,,,,,,,,,,,,,,
,,,,,,,,,,,,,,,,,199198,18,2022-01-28_19h37.47.336,lexical_decision_task_DD_L6,2021.2.3,Win32,59.99520038,,m,1,0.7627,,,,,,,,0.7627,1,0,6,6,5,1,1001,OBTAIN,m,,,,,,,,,,,,,,,,,,,,,,,,,,,,,,,,,,,,,,,,,,,,,,,,,,,,
,,,,,,,,,,,,,,,,,199198,18,2022-01-28_19h37.47.336,lexical_decision_task_DD_L6,2021.2.3,Win32,59.99520038,,z,1,1.6598,,,,,,,,1.6598,1,0,7,7,12,1,1001,SPRINY,z,,,,,,,,,,,,,,,,,,,,,,,,,,,,,,,,,,,,,,,,,,,,,,,,,,,,
,,,,,,,,,,,,,,,,,199198,18,2022-01-28_19h37.47.336,lexical_decision_task_DD_L6,2021.2.3,Win32,59.99520038,,m,1,0.7784,,,,,,,,0.7784,1,0,8,8,3,1,1001,MATRIX,m,,,,,,,,,,,,,,,,,,,,,,,,,,,,,,,,,,,,,,,,,,,,,,,,,,,,
,,,,,,,,,,,,,,,,,199198,18,2022-01-28_19h37.47.336,lexical_decision_task_DD_L6,2021.2.3,Win32,59.99520038,,m,1,0.6119,,,,,,,,0.6119,1,0,9,9,1,1,1001,ADJUST,m,,,,,,,,,,,,,,,,,,,,,,,,,,,,,,,,,,,,,,,,,,,,,,,,,,,,
,,,,,,,,,,,,,,,,,199198,18,2022-01-28_19h37.47.336,lexical_decision_task_DD_L6,2021.2.3,Win32,59.99520038,,m,1,0.6044,,,,,,,,0.6044,1,0,10,10,6,1,1001,ZOMBIE,m,,,,,,,,,,,,,,,,,,,,,,,,,,,,,,,,,,,,,,,,,,,,,,,,,,,,
,,,,,,,,,,,,,,,,,199198,18,2022-01-28_19h37.47.336,lexical_decision_task_DD_L6,2021.2.3,Win32,59.99520038,,z,1,0.7966,,,,,,,,0.7966,1,0,11,11,9,1,1001,FARINY,z,,,,,,,,,,,,,,,,,,,,,,,,,,,,,,,,,,,,,,,,,,,,,,,,,,,,
,,,,,,,,,,,,,,,,,199198,18,2022-01-28_19h37.47.336,lexical_decision_task_DD_L6,2021.2.3,Win32,59.99520038,,m,1,0.8507,,,,,,,,0.8507,1,0,12,12,0,1,1001,UTOPIA,m,,,,,,,,,,,,,,,,,,,,,,,,,,,,,,,,,,,,,,,,,,,,,,,,,,,,
,,,,,,,,,,,,,,,,,199198,18,2022-01-28_19h37.47.336,lexical_decision_task_DD_L6,2021.2.3,Win32,59.99520038,,m,1,0.5977,,,,,,,,0.5977,1,0,13,13,2,1,1001,ALMOND,m,,,,,,,,,,,,,,,,,,,,,,,,,,,,,,,,,,,,,,,,,,,,,,,,,,,,
,,,,,,,,,,,,,,,,,199198,18,2022-01-28_19h37.47.336,lexical_decision_task_DD_L6,2021.2.3,Win32,59.99520038,,z,1,0.6068,,,,,,,,0.6068,1,0,14,14,13,1,1001,ROUPET,z,,,,,,,,,,,,,,,,,,,,,,,,,,,,,,,,,,,,,,,,,,,,,,,,,,,,
,,,,,,,,,,,,,,,,,199198,18,2022-01-28_19h37.47.336,lexical_decision_task_DD_L6,2021.2.3,Win32,59.99520038,,z,1,0.6453,,,,,,,,0.6453,1,0,15,15,11,1,1001,RASHET,z,,,,,,,,,,,,,,,,,,,,,,,,,,,,,,,,,,,,,,,,,,,,,,,,,,,,
space,0.563964003,-0.089189207,0,0,0,,,,,,,1,end_of_practice,"You have completed the practice trials. During the experimental trials, you will not receive feedback. 
Before you begin, please ensure that you are in a comfortable and quiet location and will not be disturbed for about 15 minutes, as we cannot use your data if you do not complete all the trials. 
 When you are ready to start the experimental trials, please press space or touch the button below.",,,199198,18,2022-01-28_19h37.47.336,lexical_decision_task_DD_L6,2021.2.3,Win32,59.99520038,76.7231,,,,,,,,,,,,,,,,,,,,,0,0,0,0,1,,,,,,,,,,,,,,,,,,,,,,,,,,,,,,,,,,,,,,,,,,,,,,,
,,,,,,,,,,,,,,,,,199198,18,2022-01-28_19h37.47.336,lexical_decision_task_DD_L6,2021.2.3,Win32,59.99520038,,,,,,,,,,,,1.4229,1,,,,,,,,,,,,,,m,1,1.4229,,,,,,,,0.563964003,-0.089189207,0,0,0,,0,0,0,80,1,PLANET,HB,old,m,./images/PLANETHB.png,,,,,,,,,,,,,,,,,,,,,
,,,,,,,,,,,,,,,,,199198,18,2022-01-28_19h37.47.336,lexical_decision_task_DD_L6,2021.2.3,Win32,59.99520038,,,,,,,,,,,,0.7326,1,,,,,,,,,,,,,,z,1,0.7326,,,,,,,,0.563964003,-0.089189207,0,0,0,,0,1,1,155,1,CANGY,LB,old,z,./images/CANGYLB.png,,,,,,,,,,,,,,,,,,,,,
,,,,,,,,,,,,,,,,,199198,18,2022-01-28_19h37.47.336,lexical_decision_task_DD_L6,2021.2.3,Win32,59.99520038,,,,,,,,,,,,0.8511,1,,,,,,,,,,,,,,z,1,0.8511,,,,,,,,0.563964003,-0.089189207,0,0,0,,0,2,2,93,1,SMONE,C,old,z,./images/SMONE.png,,,,,,,,,,,,,,,,,,,,,
,,,,,,,,,,,,,,,,,199198,18,2022-01-28_19h37.47.336,lexical_decision_task_DD_L6,2021.2.3,Win32,59.99520038,,,,,,,,,,,,1.0568,0,,,,,,,,,,,,,,z,0,1.0568,,,,,,,,0.563964003,-0.089189207,0,0,0,,0,3,3,38,1,ENGINE,HB,old,m,./images/ENGINEHB.png,,,,,,,,,,,,,,,,,,,,,
,,,,,,,,,,,,,,,,,199198,18,2022-01-28_19h37.47.336,lexical_decision_task_DD_L6,2021.2.3,Win32,59.99520038,,,,,,,,,,,,0.7323,1,,,,,,,,,,,,,,m,1,0.7323,,,,,,,,0.563964003,-0.089189207,0,0,0,,0,4,4,83,1,WHISKY,HB,old,m,./images/WHISKYHB.png,,,,,,,,,,,,,,,,,,,,,
,,,,,,,,,,,,,,,,,199198,18,2022-01-28_19h37.47.336,lexical_decision_task_DD_L6,2021.2.3,Win32,59.99520038,,,,,,,,,,,,0.9912,1,,,,,,,,,,,,,,m,1,0.9912,,,,,,,,0.563964003,-0.089189207,0,0,0,,0,5,5,55,1,ALLEY,C,old,m,./images/ALLEY.png,,,,,,,,,,,,,,,,,,,,,
,,,,,,,,,,,,,,,,,199198,18,2022-01-28_19h37.47.336,lexical_decision_task_DD_L6,2021.2.3,Win32,59.99520038,,,,,,,,,,,,0.8304,1,,,,,,,,,,,,,,z,1,0.8304,,,,,,,,0.563964003,-0.089189207,0,0,0,,0,6,6,141,1,PLEET,C,old,z,./images/PLEET.png,,,,,,,,,,,,,,,,,,,,,
,,,,,,,,,,,,,,,,,199198,18,2022-01-28_19h37.47.336,lexical_decision_task_DD_L6,2021.2.3,Win32,59.99520038,,,,,,,,,,,,0.6306,1,,,,,,,,,,,,,,m,1,0.6306,,,,,,,,0.563964003,-0.089189207,0,0,0,,0,7,7,46,1,MUMMY,C,old,m,./images/MUMMY.png,,,,,,,,,,,,,,,,,,,,,
,,,,,,,,,,,,,,,,,199198,18,2022-01-28_19h37.47.336,lexical_decision_task_DD_L6,2021.2.3,Win32,59.99520038,,,,,,,,,,,,1.018,1,,,,,,,,,,,,,,z,1,1.018,,,,,,,,0.563964003,-0.089189207,0,0,0,,0,8,8,133,1,POWDY,HB,old,z,./images/POWDYHB.png,,,,,,,,,,,,,,,,,,,,,
,,,,,,,,,,,,,,,,,199198,18,2022-01-28_19h37.47.336,lexical_decision_task_DD_L6,2021.2.3,Win32,59.99520038,,,,,,,,,,,,0.745,1,,,,,,,,,,,,,,m,1,0.745,,,,,,,,0.563964003,-0.089189207,0,0,0,,0,9,9,4,1,BOXER,C,old,m,./images/BOXER.png,,,,,,,,,,,,,,,,,,,,,
,,,,,,,,,,,,,,,,,199198,18,2022-01-28_19h37.47.336,lexical_decision_task_DD_L6,2021.2.3,Win32,59.99520038,,,,,,,,,,,,1.0613,1,,,,,,,,,,,,,,z,1,1.0613,,,,,,,,0.563964003,-0.089189207,0,0,0,,0,10,10,88,1,GLUSH,HB,old,z,./images/GLUSHHB.png,,,,,,,,,,,,,,,,,,,,,
,,,,,,,,,,,,,,,,,199198,18,2022-01-28_19h37.47.336,lexical_decision_task_DD_L6,2021.2.3,Win32,59.99520038,,,,,,,,,,,,0.8045,1,,,,,,,,,,,,,,z,1,0.8045,,,,,,,,0.563964003,-0.089189207,0,0,0,,0,11,11,112,1,MYING,HB,old,z,./images/MYINGHB.png,,,,,,,,,,,,,,,,,,,,,
,,,,,,,,,,,,,,,,,199198,18,2022-01-28_19h37.47.336,lexical_decision_task_DD_L6,2021.2.3,Win32,59.99520038,,,,,,,,,,,,0.9177,1,,,,,,,,,,,,,,z,1,0.9177,,,,,,,,0.563964003,-0.089189207,0,0,0,,0,12,12,101,1,GLEET,LB,old,z,./images/GLEETLB.png,,,,,,,,,,,,,,,,,,,,,
,,,,,,,,,,,,,,,,,199198,18,2022-01-28_19h37.47.336,lexical_decision_task_DD_L6,2021.2.3,Win32,59.99520038,,,,,,,,,,,,0.7364,1,,,,,,,,,,,,,,m,1,0.7364,,,,,,,,0.563964003,-0.089189207,0,0,0,,0,13,13,42,1,CHAIN,LB,old,m,./images/CHAINLB.png,,,,,,,,,,,,,,,,,,,,,
,,,,,,,,,,,,,,,,,199198,18,2022-01-28_19h37.47.336,lexical_decision_task_DD_L6,2021.2.3,Win32,59.99520038,,,,,,,,,,,,1.0161,1,,,,,,,,,,,,,,z,1,1.0161,,,,,,,,0.563964003,-0.089189207,0,0,0,,0,14,14,160,1,VEETS,HB,old,z,./images/VEETSHB.png,,,,,,,,,,,,,,,,,,,,,
,,,,,,,,,,,,,,,,,199198,18,2022-01-28_19h37.47.336,lexical_decision_task_DD_L6,2021.2.3,Win32,59.99520038,,,,,,,,,,,,0.6762,1,,,,,,,,,,,,,,z,1,0.6762,,,,,,,,0.563964003,-0.089189207,0,0,0,,0,15,15,120,1,RINED,C,old,z,./images/RINED.png,,,,,,,,,,,,,,,,,,,,,
,,,,,,,,,,,,,,,,,199198,18,2022-01-28_19h37.47.336,lexical_decision_task_DD_L6,2021.2.3,Win32,59.99520038,,,,,,,,,,,,1.0473,1,,,,,,,,,,,,,,z,1,1.0473,,,,,,,,0.563964003,-0.089189207,0,0,0,,0,16,16,109,1,BURGE,HB,old,z,./images/BURGEHB.png,,,,,,,,,,,,,,,,,,,,,
,,,,,,,,,,,,,,,,,199198,18,2022-01-28_19h37.47.336,lexical_decision_task_DD_L6,2021.2.3,Win32,59.99520038,,,,,,,,,,,,1.1949,1,,,,,,,,,,,,,,z,1,1.1949,,,,,,,,0.563964003,-0.089189207,0,0,0,,0,17,17,154,1,THINT,HB,old,z,./images/THINTHB.png,,,,,,,,,,,,,,,,,,,,,
,,,,,,,,,,,,,,,,,199198,18,2022-01-28_19h37.47.336,lexical_decision_task_DD_L6,2021.2.3,Win32,59.99520038,,,,,,,,,,,,0.8622,1,,,,,,,,,,,,,,m,1,0.8622,,,,,,,,0.563964003,-0.089189207,0,0,0,,0,18,18,17,1,PARADE,HB,old,m,./images/PARADEHB.png,,,,,,,,,,,,,,,,,,,,,
,,,,,,,,,,,,,,,,,199198,18,2022-01-28_19h37.47.336,lexical_decision_task_DD_L6,2021.2.3,Win32,59.99520038,,,,,,,,,,,,1.1141,1,,,,,,,,,,,,,,z,1,1.1141,,,,,,,,0.563964003,-0.089189207,0,0,0,,0,19,19,136,1,WERVE,HB,old,z,./images/WERVEHB.png,,,,,,,,,,,,,,,,,,,,,
,,,,,,,,,,,,,,,,,199198,18,2022-01-28_19h37.47.336,lexical_decision_task_DD_L6,2021.2.3,Win32,59.99520038,,,,,,,,,,,,0.5717,0,,,,,,,,,,,,,,m,0,0.5717,,,,,,,,0.563964003,-0.089189207,0,0,0,,0,20,20,110,1,CRUNK,LB,old,z,./images/CRUNKLB.png,,,,,,,,,,,,,,,,,,,,,
,,,,,,,,,,,,,,,,,199198,18,2022-01-28_19h37.47.336,lexical_decision_task_DD_L6,2021.2.3,Win32,59.99520038,,,,,,,,,,,,0.5994,1,,,,,,,,,,,,,,m,1,0.5994,,,,,,,,0.563964003,-0.089189207,0,0,0,,0,21,21,60,1,CURRY,LB,old,m,./images/CURRYLB.png,,,,,,,,,,,,,,,,,,,,,
,,,,,,,,,,,,,,,,,199198,18,2022-01-28_19h37.47.336,lexical_decision_task_DD_L6,2021.2.3,Win32,59.99520038,,,,,,,,,,,,0.8224,1,,,,,,,,,,,,,,z,1,0.8224,,,,,,,,0.563964003,-0.089189207,0,0,0,,0,22,22,131,1,NACES,LB,old,z,./images/NACESLB.png,,,,,,,,,,,,,,,,,,,,,
,,,,,,,,,,,,,,,,,199198,18,2022-01-28_19h37.47.336,lexical_decision_task_DD_L6,2021.2.3,Win32,59.99520038,,,,,,,,,,,,0.7111,1,,,,,,,,,,,,,,z,1,0.7111,,,,,,,,0.563964003,-0.089189207,0,0,0,,0,23,23,113,1,LINEW,LB,old,z,./images/LINEWLB.png,,,,,,,,,,,,,,,,,,,,,
,,,,,,,,,,,,,,,,,199198,18,2022-01-28_19h37.47.336,lexical_decision_task_DD_L6,2021.2.3,Win32,59.99520038,,,,,,,,,,,,1.0017,1,,,,,,,,,,,,,,z,1,1.0017,,,,,,,,0.563964003,-0.089189207,0,0,0,,0,24,24,107,1,FASKS,LB,old,z,./images/FASKSLB.png,,,,,,,,,,,,,,,,,,,,,
,,,,,,,,,,,,,,,,,199198,18,2022-01-28_19h37.47.336,lexical_decision_task_DD_L6,2021.2.3,Win32,59.99520038,,,,,,,,,,,,1.0777,1,,,,,,,,,,,,,,m,1,1.0777,,,,,,,,0.563964003,-0.089189207,0,0,0,,0,25,25,62,1,MAMMAL,HB,old,m,./images/MAMMALHB.png,,,,,,,,,,,,,,,,,,,,,
,,,,,,,,,,,,,,,,,199198,18,2022-01-28_19h37.47.336,lexical_decision_task_DD_L6,2021.2.3,Win32,59.99520038,,,,,,,,,,,,0.962,1,,,,,,,,,,,,,,z,1,0.962,,,,,,,,0.563964003,-0.089189207,0,0,0,,0,26,26,94,1,BLANS,HB,old,z,./images/BLANSHB.png,,,,,,,,,,,,,,,,,,,,,
,,,,,,,,,,,,,,,,,199198,18,2022-01-28_19h37.47.336,lexical_decision_task_DD_L6,2021.2.3,Win32,59.99520038,,,,,,,,,,,,0.8237,1,,,,,,,,,,,,,,m,1,0.8237,,,,,,,,0.563964003,-0.089189207,0,0,0,,0,27,27,7,1,WAGON,C,old,m,./images/WAGON.png,,,,,,,,,,,,,,,,,,,,,
,,,,,,,,,,,,,,,,,199198,18,2022-01-28_19h37.47.336,lexical_decision_task_DD_L6,2021.2.3,Win32,59.99520038,,,,,,,,,,,,1.1328,1,,,,,,,,,,,,,,z,1,1.1328,,,,,,,,0.563964003,-0.089189207,0,0,0,,0,28,28,140,1,DOVET,LB,old,z,./images/DOVETLB.png,,,,,,,,,,,,,,,,,,,,,
,,,,,,,,,,,,,,,,,199198,18,2022-01-28_19h37.47.336,lexical_decision_task_DD_L6,2021.2.3,Win32,59.99520038,,,,,,,,,,,,0.744,1,,,,,,,,,,,,,,z,1,0.744,,,,,,,,0.563964003,-0.089189207,0,0,0,,0,29,29,125,1,MOOKY,LB,old,z,./images/MOOKYLB.png,,,,,,,,,,,,,,,,,,,,,
,,,,,,,,,,,,,,,,,199198,18,2022-01-28_19h37.47.336,lexical_decision_task_DD_L6,2021.2.3,Win32,59.99520038,,,,,,,,,,,,0.8291,1,,,,,,,,,,,,,,z,1,0.8291,,,,,,,,0.563964003,-0.089189207,0,0,0,,0,30,30,118,1,BAVEL,HB,old,z,./images/BAVELHB.png,,,,,,,,,,,,,,,,,,,,,
,,,,,,,,,,,,,,,,,199198,18,2022-01-28_19h37.47.336,lexical_decision_task_DD_L6,2021.2.3,Win32,59.99520038,,,,,,,,,,,,0.7684,1,,,,,,,,,,,,,,m,1,0.7684,,,,,,,,0.563964003,-0.089189207,0,0,0,,0,31,31,40,1,SNAKE,C,old,m,./images/SNAKE.png,,,,,,,,,,,,,,,,,,,,,
,,,,,,,,,,,,,,,,,199198,18,2022-01-28_19h37.47.336,lexical_decision_task_DD_L6,2021.2.3,Win32,59.99520038,,,,,,,,,,,,0.7458,1,,,,,,,,,,,,,,z,1,0.7458,,,,,,,,0.563964003,-0.089189207,0,0,0,,0,32,32,102,1,DULLE,C,old,z,./images/DULLE.png,,,,,,,,,,,,,,,,,,,,,
,,,,,,,,,,,,,,,,,199198,18,2022-01-28_19h37.47.336,lexical_decision_task_DD_L6,2021.2.3,Win32,59.99520038,,,,,,,,,,,,0.5882,1,,,,,,,,,,,,,,m,1,0.5882,,,,,,,,0.563964003,-0.089189207,0,0,0,,0,33,33,6,1,STAIN,LB,old,m,./images/STAINLB.png,,,,,,,,,,,,,,,,,,,,,
,,,,,,,,,,,,,,,,,199198,18,2022-01-28_19h37.47.336,lexical_decision_task_DD_L6,2021.2.3,Win32,59.99520038,,,,,,,,,,,,0.5785,1,,,,,,,,,,,,,,m,1,0.5785,,,,,,,,0.563964003,-0.089189207,0,0,0,,0,34,34,1,1,TOWEL,C,old,m,./images/TOWEL.png,,,,,,,,,,,,,,,,,,,,,
,,,,,,,,,,,,,,,,,199198,18,2022-01-28_19h37.47.336,lexical_decision_task_DD_L6,2021.2.3,Win32,59.99520038,,,,,,,,,,,,0.7699,1,,,,,,,,,,,,,,m,1,0.7699,,,,,,,,0.563964003,-0.089189207,0,0,0,,0,35,35,41,1,STREAM,HB,old,m,./images/STREAMHB.png,,,,,,,,,,,,,,,,,,,,,
,,,,,,,,,,,,,,,,,199198,18,2022-01-28_19h37.47.336,lexical_decision_task_DD_L6,2021.2.3,Win32,59.99520038,,,,,,,,,,,,0.7158,1,,,,,,,,,,,,,,z,1,0.7158,,,,,,,,0.563964003,-0.089189207,0,0,0,,0,36,36,89,1,DRIEK,LB,old,z,./images/DRIEKLB.png,,,,,,,,,,,,,,,,,,,,,
,,,,,,,,,,,,,,,,,199198,18,2022-01-28_19h37.47.336,lexical_decision_task_DD_L6,2021.2.3,Win32,59.99520038,,,,,,,,,,,,0.7097,0,,,,,,,,,,,,,,m,0,0.7097,,,,,,,,0.563964003,-0.089189207,0,0,0,,0,37,37,146,1,MOOST,LB,old,z,./images/MOOSTLB.png,,,,,,,,,,,,,,,,,,,,,
,,,,,,,,,,,,,,,,,199198,18,2022-01-28_19h37.47.336,lexical_decision_task_DD_L6,2021.2.3,Win32,59.99520038,,,,,,,,,,,,1.0902,1,,,,,,,,,,,,,,z,1,1.0902,,,,,,,,0.563964003,-0.089189207,0,0,0,,0,38,38,84,1,HAXES,C,old,z,./images/HAXES.png,,,,,,,,,,,,,,,,,,,,,
,,,,,,,,,,,,,,,,,199198,18,2022-01-28_19h37.47.336,lexical_decision_task_DD_L6,2021.2.3,Win32,59.99520038,,,,,,,,,,,,1.2547,1,,,,,,,,,,,,,,z,1,1.2547,,,,,,,,0.563964003,-0.089189207,0,0,0,,0,39,39,163,1,GAMBA,HB,old,z,./images/GAMBAHB.png,,,,,,,,,,,,,,,,,,,,,
,,,,,,,,,,,,,,,,,199198,18,2022-01-28_19h37.47.336,lexical_decision_task_DD_L6,2021.2.3,Win32,59.99520038,,,,,,,,,,,,0.5587,1,,,,,,,,,,,,,,m,1,0.5587,,,,,,,,0.563964003,-0.089189207,0,0,0,,0,40,40,61,1,ARTIST,C,old,m,./images/ARTIST.png,,,,,,,,,,,,,,,,,,,,,
,,,,,,,,,,,,,,,,,199198,18,2022-01-28_19h37.47.336,lexical_decision_task_DD_L6,2021.2.3,Win32,59.99520038,,,,,,,,,,,,0.7913,1,,,,,,,,,,,,,,m,1,0.7913,,,,,,,,0.563964003,-0.089189207,0,0,0,space,0,41,41,58,1,CANOE,C,old,m,./images/CANOE.png,15.413,,,,,,,,,,,,,,,,,,,,
,,,,,,,,,,,,,,,,,199198,18,2022-01-28_19h37.47.336,lexical_decision_task_DD_L6,2021.2.3,Win32,59.99520038,,,,,,,,,,,,0.6153,1,,,,,,,,,,,,,,m,1,0.6153,,,,,,,,0.563964003,-0.089189207,0,0,0,,0,42,42,70,1,BANANA,C,old,m,./images/BANANA.png,,,,,,,,,,,,,,,,,,,,,
,,,,,,,,,,,,,,,,,199198,18,2022-01-28_19h37.47.336,lexical_decision_task_DD_L6,2021.2.3,Win32,59.99520038,,,,,,,,,,,,0.5385,1,,,,,,,,,,,,,,m,1,0.5385,,,,,,,,0.563964003,-0.089189207,0,0,0,,0,43,43,67,1,POKER,C,old,m,./images/POKER.png,,,,,,,,,,,,,,,,,,,,,
,,,,,,,,,,,,,,,,,199198,18,2022-01-28_19h37.47.336,lexical_decision_task_DD_L6,2021.2.3,Win32,59.99520038,,,,,,,,,,,,0.8116,1,,,,,,,,,,,,,,z,1,0.8116,,,,,,,,0.563964003,-0.089189207,0,0,0,,0,44,44,119,1,PAFER,LB,old,z,./images/PAFERLB.png,,,,,,,,,,,,,,,,,,,,,
,,,,,,,,,,,,,,,,,199198,18,2022-01-28_19h37.47.336,lexical_decision_task_DD_L6,2021.2.3,Win32,59.99520038,,,,,,,,,,,,0.6729,1,,,,,,,,,,,,,,m,1,0.6729,,,,,,,,0.563964003,-0.089189207,0,0,0,,0,45,45,43,1,STOOL,C,old,m,./images/STOOL.png,,,,,,,,,,,,,,,,,,,,,
,,,,,,,,,,,,,,,,,199198,18,2022-01-28_19h37.47.336,lexical_decision_task_DD_L6,2021.2.3,Win32,59.99520038,,,,,,,,,,,,0.8772,0,,,,,,,,,,,,,,m,0,0.8772,,,,,,,,0.563964003,-0.089189207,0,0,0,,0,46,46,162,1,LEICH,C,old,z,./images/LEICH.png,,,,,,,,,,,,,,,,,,,,,
,,,,,,,,,,,,,,,,,199198,18,2022-01-28_19h37.47.336,lexical_decision_task_DD_L6,2021.2.3,Win32,59.99520038,,,,,,,,,,,,0.6417,1,,,,,,,,,,,,,,z,1,0.6417,,,,,,,,0.563964003,-0.089189207,0,0,0,,0,47,47,135,1,JOODY,C,old,z,./images/JOODY.png,,,,,,,,,,,,,,,,,,,,,
,,,,,,,,,,,,,,,,,199198,18,2022-01-28_19h37.47.336,lexical_decision_task_DD_L6,2021.2.3,Win32,59.99520038,,,,,,,,,,,,0.6411,1,,,,,,,,,,,,,,m,1,0.6411,,,,,,,,0.563964003,-0.089189207,0,0,0,,0,48,48,22,1,CLOWN,C,old,m,./images/CLOWN.png,,,,,,,,,,,,,,,,,,,,,
,,,,,,,,,,,,,,,,,199198,18,2022-01-28_19h37.47.336,lexical_decision_task_DD_L6,2021.2.3,Win32,59.99520038,,,,,,,,,,,,0.7426,1,,,,,,,,,,,,,,z,1,0.7426,,,,,,,,0.563964003,-0.089189207,0,0,0,,0,49,49,96,1,KEAMS,C,old,z,./images/KEAMS.png,,,,,,,,,,,,,,,,,,,,,
,,,,,,,,,,,,,,,,,199198,18,2022-01-28_19h37.47.336,lexical_decision_task_DD_L6,2021.2.3,Win32,59.99520038,,,,,,,,,,,,0.867,1,,,,,,,,,,,,,,z,1,0.867,,,,,,,,0.563964003,-0.089189207,0,0,0,,0,50,50,134,1,TROSS,LB,old,z,./images/TROSSLB.png,,,,,,,,,,,,,,,,,,,,,
,,,,,,,,,,,,,,,,,199198,18,2022-01-28_19h37.47.336,lexical_decision_task_DD_L6,2021.2.3,Win32,59.99520038,,,,,,,,,,,,0.7306,1,,,,,,,,,,,,,,z,1,0.7306,,,,,,,,0.563964003,-0.089189207,0,0,0,,0,51,51,152,1,FRAIN,LB,old,z,./images/FRAINLB.png,,,,,,,,,,,,,,,,,,,,,
,,,,,,,,,,,,,,,,,199198,18,2022-01-28_19h37.47.336,lexical_decision_task_DD_L6,2021.2.3,Win32,59.99520038,,,,,,,,,,,,0.9781,1,,,,,,,,,,,,,,z,1,0.9781,,,,,,,,0.563964003,-0.089189207,0,0,0,,0,52,52,148,1,JOMS,HB,old,z,./images/JOMSHB.png,,,,,,,,,,,,,,,,,,,,,
,,,,,,,,,,,,,,,,,199198,18,2022-01-28_19h37.47.336,lexical_decision_task_DD_L6,2021.2.3,Win32,59.99520038,,,,,,,,,,,,0.8131,1,,,,,,,,,,,,,,z,1,0.8131,,,,,,,,0.563964003,-0.089189207,0,0,0,,0,53,53,129,1,PRANS,C,old,z,./images/PRANS.png,,,,,,,,,,,,,,,,,,,,,
,,,,,,,,,,,,,,,,,199198,18,2022-01-28_19h37.47.336,lexical_decision_task_DD_L6,2021.2.3,Win32,59.99520038,,,,,,,,,,,,0.6408,1,,,,,,,,,,,,,,m,1,0.6408,,,,,,,,0.563964003,-0.089189207,0,0,0,,0,54,54,57,1,FERRY,LB,old,m,./images/FERRYLB.png,,,,,,,,,,,,,,,,,,,,,
,,,,,,,,,,,,,,,,,199198,18,2022-01-28_19h37.47.336,lexical_decision_task_DD_L6,2021.2.3,Win32,59.99520038,,,,,,,,,,,,0.7587,1,,,,,,,,,,,,,,z,1,0.7587,,,,,,,,0.563964003,-0.089189207,0,0,0,,0,55,55,137,1,JOOST,LB,old,z,./images/JOOSTLB.png,,,,,,,,,,,,,,,,,,,,,
,,,,,,,,,,,,,,,,,199198,18,2022-01-28_19h37.47.336,lexical_decision_task_DD_L6,2021.2.3,Win32,59.99520038,,,,,,,,,,,,0.6622,1,,,,,,,,,,,,,,m,1,0.6622,,,,,,,,0.563964003,-0.089189207,0,0,0,,0,56,56,30,1,SLOPE,LB,old,m,./images/SLOPELB.png,,,,,,,,,,,,,,,,,,,,,
,,,,,,,,,,,,,,,,,199198,18,2022-01-28_19h37.47.336,lexical_decision_task_DD_L6,2021.2.3,Win32,59.99520038,,,,,,,,,,,,1.0043,1,,,,,,,,,,,,,,m,1,1.0043,,,,,,,,0.563964003,-0.089189207,0,0,0,,0,57,57,56,1,HEATER,HB,old,m,./images/HEATERHB.png,,,,,,,,,,,,,,,,,,,,,
,,,,,,,,,,,,,,,,,199198,18,2022-01-28_19h37.47.336,lexical_decision_task_DD_L6,2021.2.3,Win32,59.99520038,,,,,,,,,,,,0.7311,1,,,,,,,,,,,,,,m,1,0.7311,,,,,,,,0.563964003,-0.089189207,0,0,0,,0,58,58,24,1,FLESH,LB,old,m,./images/FLESHLB.png,,,,,,,,,,,,,,,,,,,,,
,,,,,,,,,,,,,,,,,199198,18,2022-01-28_19h37.47.336,lexical_decision_task_DD_L6,2021.2.3,Win32,59.99520038,,,,,,,,,,,,0.7804,1,,,,,,,,,,,,,,m,1,0.7804,,,,,,,,0.563964003,-0.089189207,0,0,0,,0,59,59,59,1,BRUSH,HB,old,m,./images/BRUSHHB.png,,,,,,,,,,,,,,,,,,,,,
,,,,,,,,,,,,,,,,,199198,18,2022-01-28_19h37.47.336,lexical_decision_task_DD_L6,2021.2.3,Win32,59.99520038,,,,,,,,,,,,1.6628,0,,,,,,,,,,,,,,z,0,1.6628,,,,,,,,0.563964003,-0.089189207,0,0,0,,0,60,60,54,1,CHERRY,LB,old,m,./images/CHERRYLB.png,,,,,,,,,,,,,,,,,,,,,
,,,,,,,,,,,,,,,,,199198,18,2022-01-28_19h37.47.336,lexical_decision_task_DD_L6,2021.2.3,Win32,59.99520038,,,,,,,,,,,,1.4442,1,,,,,,,,,,,,,,z,1,1.4442,,,,,,,,0.563964003,-0.089189207,0,0,0,,0,61,61,159,1,CUDDY,C,old,z,./images/CUDDY.png,,,,,,,,,,,,,,,,,,,,,
,,,,,,,,,,,,,,,,,199198,18,2022-01-28_19h37.47.336,lexical_decision_task_DD_L6,2021.2.3,Win32,59.99520038,,,,,,,,,,,,1.3425,1,,,,,,,,,,,,,,m,1,1.3425,,,,,,,,0.563964003,-0.089189207,0,0,0,,0,62,62,52,1,DESERT,C,old,m,./images/DESERT.png,,,,,,,,,,,,,,,,,,,,,
,,,,,,,,,,,,,,,,,199198,18,2022-01-28_19h37.47.336,lexical_decision_task_DD_L6,2021.2.3,Win32,59.99520038,,,,,,,,,,,,1.1152,1,,,,,,,,,,,,,,z,1,1.1152,,,,,,,,0.563964003,-0.089189207,0,0,0,,0,63,63,85,1,CHULK,HB,old,z,./images/CHULKHB.png,,,,,,,,,,,,,,,,,,,,,
,,,,,,,,,,,,,,,,,199198,18,2022-01-28_19h37.47.336,lexical_decision_task_DD_L6,2021.2.3,Win32,59.99520038,,,,,,,,,,,,0.546,1,,,,,,,,,,,,,,m,1,0.546,,,,,,,,0.563964003,-0.089189207,0,0,0,,0,64,64,10,1,GARDEN,C,old,m,./images/GARDEN.png,,,,,,,,,,,,,,,,,,,,,
,,,,,,,,,,,,,,,,,199198,18,2022-01-28_19h37.47.336,lexical_decision_task_DD_L6,2021.2.3,Win32,59.99520038,,,,,,,,,,,,1.41,1,,,,,,,,,,,,,,z,1,1.41,,,,,,,,0.563964003,-0.089189207,0,0,0,,0,65,65,97,1,CHIDS,HB,old,z,./images/CHIDSHB.png,,,,,,,,,,,,,,,,,,,,,
,,,,,,,,,,,,,,,,,199198,18,2022-01-28_19h37.47.336,lexical_decision_task_DD_L6,2021.2.3,Win32,59.99520038,,,,,,,,,,,,0.8289,1,,,,,,,,,,,,,,m,1,0.8289,,,,,,,,0.563964003,-0.089189207,0,0,0,,0,66,66,51,1,SAUCE,LB,old,m,./images/SAUCELB.png,,,,,,,,,,,,,,,,,,,,,
,,,,,,,,,,,,,,,,,199198,18,2022-01-28_19h37.47.336,lexical_decision_task_DD_L6,2021.2.3,Win32,59.99520038,,,,,,,,,,,,0.5329,1,,,,,,,,,,,,,,m,1,0.5329,,,,,,,,0.563964003,-0.089189207,0,0,0,,0,67,67,13,1,BUNNY,C,old,m,./images/BUNNY.png,,,,,,,,,,,,,,,,,,,,,
,,,,,,,,,,,,,,,,,199198,18,2022-01-28_19h37.47.336,lexical_decision_task_DD_L6,2021.2.3,Win32,59.99520038,,,,,,,,,,,,0.7782,1,,,,,,,,,,,,,,z,1,0.7782,,,,,,,,0.563964003,-0.089189207,0,0,0,,0,68,68,105,1,MOKER,C,old,z,./images/MOKER.png,,,,,,,,,,,,,,,,,,,,,
,,,,,,,,,,,,,,,,,199198,18,2022-01-28_19h37.47.336,lexical_decision_task_DD_L6,2021.2.3,Win32,59.99520038,,,,,,,,,,,,1.2975,1,,,,,,,,,,,,,,z,1,1.2975,,,,,,,,0.563964003,-0.089189207,0,0,0,,0,69,69,91,1,SHENS,HB,old,z,./images/SHENSHB.png,,,,,,,,,,,,,,,,,,,,,
,,,,,,,,,,,,,,,,,199198,18,2022-01-28_19h37.47.336,lexical_decision_task_DD_L6,2021.2.3,Win32,59.99520038,,,,,,,,,,,,1.2399,1,,,,,,,,,,,,,,z,1,1.2399,,,,,,,,0.563964003,-0.089189207,0,0,0,,0,70,70,157,1,INLER,HB,old,z,./images/INLERHB.png,,,,,,,,,,,,,,,,,,,,,
,,,,,,,,,,,,,,,,,199198,18,2022-01-28_19h37.47.336,lexical_decision_task_DD_L6,2021.2.3,Win32,59.99520038,,,,,,,,,,,,0.945,1,,,,,,,,,,,,,,m,1,0.945,,,,,,,,0.563964003,-0.089189207,0,0,0,,0,71,71,66,1,STATUE,LB,old,m,./images/STATUELB.png,,,,,,,,,,,,,,,,,,,,,
,,,,,,,,,,,,,,,,,199198,18,2022-01-28_19h37.47.336,lexical_decision_task_DD_L6,2021.2.3,Win32,59.99520038,,,,,,,,,,,,1.3864,1,,,,,,,,,,,,,,z,1,1.3864,,,,,,,,0.563964003,-0.089189207,0,0,0,,0,72,72,130,1,CRILL,HB,old,z,./images/CRILLHB.png,,,,,,,,,,,,,,,,,,,,,
,,,,,,,,,,,,,,,,,199198,18,2022-01-28_19h37.47.336,lexical_decision_task_DD_L6,2021.2.3,Win32,59.99520038,,,,,,,,,,,,0.6854,1,,,,,,,,,,,,,,z,1,0.6854,,,,,,,,0.563964003,-0.089189207,0,0,0,,0,73,73,138,1,PLICE,C,old,z,./images/PLICE.png,,,,,,,,,,,,,,,,,,,,,
,,,,,,,,,,,,,,,,,199198,18,2022-01-28_19h37.47.336,lexical_decision_task_DD_L6,2021.2.3,Win32,59.99520038,,,,,,,,,,,,1.4117,1,,,,,,,,,,,,,,m,1,1.4117,,,,,,,,0.563964003,-0.089189207,0,0,0,,0,74,74,32,1,HOCKEY,HB,old,m,./images/HOCKEYHB.png,,,,,,,,,,,,,,,,,,,,,
,,,,,,,,,,,,,,,,,199198,18,2022-01-28_19h37.47.336,lexical_decision_task_DD_L6,2021.2.3,Win32,59.99520038,,,,,,,,,,,,0.6614,1,,,,,,,,,,,,,,m,1,0.6614,,,,,,,,0.563964003,-0.089189207,0,0,0,,0,75,75,47,1,LAGOON,HB,old,m,./images/LAGOONHB.png,,,,,,,,,,,,,,,,,,,,,
,,,,,,,,,,,,,,,,,199198,18,2022-01-28_19h37.47.336,lexical_decision_task_DD_L6,2021.2.3,Win32,59.99520038,,,,,,,,,,,,0.626,1,,,,,,,,,,,,,,z,1,0.626,,,,,,,,0.563964003,-0.089189207,0,0,0,,0,76,76,117,1,STEEG,C,old,z,./images/STEEG.png,,,,,,,,,,,,,,,,,,,,,
,,,,,,,,,,,,,,,,,199198,18,2022-01-28_19h37.47.336,lexical_decision_task_DD_L6,2021.2.3,Win32,59.99520038,,,,,,,,,,,,0.7406,1,,,,,,,,,,,,,,m,1,0.7406,,,,,,,,0.563964003,-0.089189207,0,0,0,,0,77,77,53,1,POSTER,HB,old,m,./images/POSTERHB.png,,,,,,,,,,,,,,,,,,,,,
,,,,,,,,,,,,,,,,,199198,18,2022-01-28_19h37.47.336,lexical_decision_task_DD_L6,2021.2.3,Win32,59.99520038,,,,,,,,,,,,0.5459,1,,,,,,,,,,,,,,m,1,0.5459,,,,,,,,0.563964003,-0.089189207,0,0,0,,0,78,78,69,1,ARROW,LB,old,m,./images/ARROWLB.png,,,,,,,,,,,,,,,,,,,,,
,,,,,,,,,,,,,,,,,199198,18,2022-01-28_19h37.47.336,lexical_decision_task_DD_L6,2021.2.3,Win32,59.99520038,,,,,,,,,,,,0.5692,1,,,,,,,,,,,,,,m,1,0.5692,,,,,,,,0.563964003,-0.089189207,0,0,0,,0,79,79,15,1,COLLAR,LB,old,m,./images/COLLARLB.png,,,,,,,,,,,,,,,,,,,,,
,,,,,,,,,,,,,,,,,199198,18,2022-01-28_19h37.47.336,lexical_decision_task_DD_L6,2021.2.3,Win32,59.99520038,,,,,,,,,,,,0.9309,1,,,,,,,,,,,,,,m,1,0.9309,,,,,,,,0.563964003,-0.089189207,0,0,0,,0,80,80,21,1,DANCER,LB,old,m,./images/DANCERLB.png,,,,,,,,,,,,,,,,,,,,,
,,,,,,,,,,,,,,,,,199198,18,2022-01-28_19h37.47.336,lexical_decision_task_DD_L6,2021.2.3,Win32,59.99520038,,,,,,,,,,,,0.7963,1,,,,,,,,,,,,,,m,1,0.7963,,,,,,,,0.563964003,-0.089189207,0,0,0,,0,81,81,18,1,PARCEL,LB,old,m,./images/PARCELLB.png,,,,,,,,,,,,,,,,,,,,,
,,,,,,,,,,,,,,,,,199198,18,2022-01-28_19h37.47.336,lexical_decision_task_DD_L6,2021.2.3,Win32,59.99520038,,,,,,,,,,,,0.7555,1,,,,,,,,,,,,,,z,1,0.7555,,,,,,,,0.563964003,-0.089189207,0,0,0,,0,82,82,122,1,BLOOT,LB,old,z,./images/BLOOTLB.png,,,,,,,,,,,,,,,,,,,,,
,,,,,,,,,,,,,,,,,199198,18,2022-01-28_19h37.47.336,lexical_decision_task_DD_L6,2021.2.3,Win32,59.99520038,,,,,,,,,,,,0.8447,1,,,,,,,,,,,,,,z,1,0.8447,,,,,,,,0.563964003,-0.089189207,0,0,0,space,0,83,83,167,1,ZONET,LB,old,z,./images/ZONETLB.png,104.1003,,,,,,,,,,,,,,,,,,,,
,,,,,,,,,,,,,,,,,199198,18,2022-01-28_19h37.47.336,lexical_decision_task_DD_L6,2021.2.3,Win32,59.99520038,,,,,,,,,,,,0.6766,1,,,,,,,,,,,,,,z,1,0.6766,,,,,,,,0.563964003,-0.089189207,0,0,0,,0,84,84,161,1,BLAPS,LB,old,z,./images/BLAPSLB.png,,,,,,,,,,,,,,,,,,,,,
,,,,,,,,,,,,,,,,,199198,18,2022-01-28_19h37.47.336,lexical_decision_task_DD_L6,2021.2.3,Win32,59.99520038,,,,,,,,,,,,0.5621,1,,,,,,,,,,,,,,m,1,0.5621,,,,,,,,0.563964003,-0.089189207,0,0,0,,0,85,85,31,1,STEAK,C,old,m,./images/STEAK.png,,,,,,,,,,,,,,,,,,,,,
,,,,,,,,,,,,,,,,,199198,18,2022-01-28_19h37.47.336,lexical_decision_task_DD_L6,2021.2.3,Win32,59.99520038,,,,,,,,,,,,1.0538,1,,,,,,,,,,,,,,m,1,1.0538,,,,,,,,0.563964003,-0.089189207,0,0,0,,0,86,86,23,1,CLOTH,HB,old,m,./images/CLOTHHB.png,,,,,,,,,,,,,,,,,,,,,
,,,,,,,,,,,,,,,,,199198,18,2022-01-28_19h37.47.336,lexical_decision_task_DD_L6,2021.2.3,Win32,59.99520038,,,,,,,,,,,,0.9587,1,,,,,,,,,,,,,,z,1,0.9587,,,,,,,,0.563964003,-0.089189207,0,0,0,,0,87,87,144,1,NAIRY,C,old,z,./images/NAIRY.png,,,,,,,,,,,,,,,,,,,,,
,,,,,,,,,,,,,,,,,199198,18,2022-01-28_19h37.47.336,lexical_decision_task_DD_L6,2021.2.3,Win32,59.99520038,,,,,,,,,,,,0.589,1,,,,,,,,,,,,,,m,1,0.589,,,,,,,,0.563964003,-0.089189207,0,0,0,,0,88,88,64,1,BRIDE,C,old,m,./images/BRIDE.png,,,,,,,,,,,,,,,,,,,,,
,,,,,,,,,,,,,,,,,199198,18,2022-01-28_19h37.47.336,lexical_decision_task_DD_L6,2021.2.3,Win32,59.99520038,,,,,,,,,,,,0.9821,0,,,,,,,,,,,,,,m,0,0.9821,,,,,,,,0.563964003,-0.089189207,0,0,0,,0,89,89,142,1,PLASK,HB,old,z,./images/PLASKHB.png,,,,,,,,,,,,,,,,,,,,,
,,,,,,,,,,,,,,,,,199198,18,2022-01-28_19h37.47.336,lexical_decision_task_DD_L6,2021.2.3,Win32,59.99520038,,,,,,,,,,,,0.7248,1,,,,,,,,,,,,,,m,1,0.7248,,,,,,,,0.563964003,-0.089189207,0,0,0,,0,90,90,16,1,GRAPE,C,old,m,./images/GRAPE.png,,,,,,,,,,,,,,,,,,,,,
,,,,,,,,,,,,,,,,,199198,18,2022-01-28_19h37.47.336,lexical_decision_task_DD_L6,2021.2.3,Win32,59.99520038,,,,,,,,,,,,0.7455,1,,,,,,,,,,,,,,m,1,0.7455,,,,,,,,0.563964003,-0.089189207,0,0,0,,0,91,91,50,1,PILOT,HB,old,m,./images/PILOTHB.png,,,,,,,,,,,,,,,,,,,,,
,,,,,,,,,,,,,,,,,199198,18,2022-01-28_19h37.47.336,lexical_decision_task_DD_L6,2021.2.3,Win32,59.99520038,,,,,,,,,,,,0.7207,1,,,,,,,,,,,,,,z,1,0.7207,,,,,,,,0.563964003,-0.089189207,0,0,0,,0,92,92,90,1,NEAST,C,old,z,./images/NEAST.png,,,,,,,,,,,,,,,,,,,,,
,,,,,,,,,,,,,,,,,199198,18,2022-01-28_19h37.47.336,lexical_decision_task_DD_L6,2021.2.3,Win32,59.99520038,,,,,,,,,,,,1.2122,0,,,,,,,,,,,,,,m,0,1.2122,,,,,,,,0.563964003,-0.089189207,0,0,0,,0,93,93,103,1,FLORT,HB,old,z,./images/FLORTHB.png,,,,,,,,,,,,,,,,,,,,,
,,,,,,,,,,,,,,,,,199198,18,2022-01-28_19h37.47.336,lexical_decision_task_DD_L6,2021.2.3,Win32,59.99520038,,,,,,,,,,,,0.686,1,,,,,,,,,,,,,,m,1,0.686,,,,,,,,0.563964003,-0.089189207,0,0,0,,0,94,94,49,1,BISHOP,C,old,m,./images/BISHOP.png,,,,,,,,,,,,,,,,,,,,,
,,,,,,,,,,,,,,,,,199198,18,2022-01-28_19h37.47.336,lexical_decision_task_DD_L6,2021.2.3,Win32,59.99520038,,,,,,,,,,,,0.9288,1,,,,,,,,,,,,,,m,1,0.9288,,,,,,,,0.563964003,-0.089189207,0,0,0,,0,95,95,65,1,SPINE,HB,old,m,./images/SPINEHB.png,,,,,,,,,,,,,,,,,,,,,
,,,,,,,,,,,,,,,,,199198,18,2022-01-28_19h37.47.336,lexical_decision_task_DD_L6,2021.2.3,Win32,59.99520038,,,,,,,,,,,,1.0192,1,,,,,,,,,,,,,,m,1,1.0192,,,,,,,,0.563964003,-0.089189207,0,0,0,,0,96,96,19,1,DONKEY,C,old,m,./images/DONKEY.png,,,,,,,,,,,,,,,,,,,,,
,,,,,,,,,,,,,,,,,199198,18,2022-01-28_19h37.47.336,lexical_decision_task_DD_L6,2021.2.3,Win32,59.99520038,,,,,,,,,,,,0.5939,1,,,,,,,,,,,,,,m,1,0.5939,,,,,,,,0.563964003,-0.089189207,0,0,0,,0,97,97,73,1,GLOVE,C,old,m,./images/GLOVE.png,,,,,,,,,,,,,,,,,,,,,
,,,,,,,,,,,,,,,,,199198,18,2022-01-28_19h37.47.336,lexical_decision_task_DD_L6,2021.2.3,Win32,59.99520038,,,,,,,,,,,,1.2328,1,,,,,,,,,,,,,,z,1,1.2328,,,,,,,,0.563964003,-0.089189207,0,0,0,,0,98,98,158,1,EGECT,LB,old,z,./images/EGECTLB.png,,,,,,,,,,,,,,,,,,,,,
,,,,,,,,,,,,,,,,,199198,18,2022-01-28_19h37.47.336,lexical_decision_task_DD_L6,2021.2.3,Win32,59.99520038,,,,,,,,,,,,1.0015,1,,,,,,,,,,,,,,m,1,1.0015,,,,,,,,0.563964003,-0.089189207,0,0,0,,0,99,99,27,1,BUTTER,LB,old,m,./images/BUTTERLB.png,,,,,,,,,,,,,,,,,,,,,
,,,,,,,,,,,,,,,,,199198,18,2022-01-28_19h37.47.336,lexical_decision_task_DD_L6,2021.2.3,Win32,59.99520038,,,,,,,,,,,,0.7952,1,,,,,,,,,,,,,,z,1,0.7952,,,,,,,,0.563964003,-0.089189207,0,0,0,,0,100,100,92,1,PAIMS,LB,old,z,./images/PAIMSLB.png,,,,,,,,,,,,,,,,,,,,,
,,,,,,,,,,,,,,,,,199198,18,2022-01-28_19h37.47.336,lexical_decision_task_DD_L6,2021.2.3,Win32,59.99520038,,,,,,,,,,,,0.6674,1,,,,,,,,,,,,,,m,1,0.6674,,,,,,,,0.563964003,-0.089189207,0,0,0,,0,101,101,35,1,LLAMA,HB,old,m,./images/LLAMAHB.png,,,,,,,,,,,,,,,,,,,,,
,,,,,,,,,,,,,,,,,199198,18,2022-01-28_19h37.47.336,lexical_decision_task_DD_L6,2021.2.3,Win32,59.99520038,,,,,,,,,,,,0.6642,1,,,,,,,,,,,,,,z,1,0.6642,,,,,,,,0.563964003,-0.089189207,0,0,0,,0,102,102,86,1,AIFED,LB,old,z,./images/AIFEDLB.png,,,,,,,,,,,,,,,,,,,,,
,,,,,,,,,,,,,,,,,199198,18,2022-01-28_19h37.47.336,lexical_decision_task_DD_L6,2021.2.3,Win32,59.99520038,,,,,,,,,,,,0.5668,1,,,,,,,,,,,,,,m,1,0.5668,,,,,,,,0.563964003,-0.089189207,0,0,0,,0,103,103,9,1,DIVER,LB,old,m,./images/DIVERLB.png,,,,,,,,,,,,,,,,,,,,,
,,,,,,,,,,,,,,,,,199198,18,2022-01-28_19h37.47.336,lexical_decision_task_DD_L6,2021.2.3,Win32,59.99520038,,,,,,,,,,,,0.645,1,,,,,,,,,,,,,,z,1,0.645,,,,,,,,0.563964003,-0.089189207,0,0,0,,0,104,104,132,1,SCIFF,C,old,z,./images/SCIFF.png,,,,,,,,,,,,,,,,,,,,,
,,,,,,,,,,,,,,,,,199198,18,2022-01-28_19h37.47.336,lexical_decision_task_DD_L6,2021.2.3,Win32,59.99520038,,,,,,,,,,,,1.1329,1,,,,,,,,,,,,,,z,1,1.1329,,,,,,,,0.563964003,-0.089189207,0,0,0,,0,105,105,156,1,HIXES,C,old,z,./images/HIXES.png,,,,,,,,,,,,,,,,,,,,,
,,,,,,,,,,,,,,,,,199198,18,2022-01-28_19h37.47.336,lexical_decision_task_DD_L6,2021.2.3,Win32,59.99520038,,,,,,,,,,,,0.6765,1,,,,,,,,,,,,,,z,1,0.6765,,,,,,,,0.563964003,-0.089189207,0,0,0,,0,106,106,114,1,RIKES,C,old,z,./images/RIKES.png,,,,,,,,,,,,,,,,,,,,,
,,,,,,,,,,,,,,,,,199198,18,2022-01-28_19h37.47.336,lexical_decision_task_DD_L6,2021.2.3,Win32,59.99520038,,,,,,,,,,,,0.8789,1,,,,,,,,,,,,,,z,1,0.8789,,,,,,,,0.563964003,-0.089189207,0,0,0,,0,107,107,116,1,BALGY,LB,old,z,./images/BALGYLB.png,,,,,,,,,,,,,,,,,,,,,
,,,,,,,,,,,,,,,,,199198,18,2022-01-28_19h37.47.336,lexical_decision_task_DD_L6,2021.2.3,Win32,59.99520038,,,,,,,,,,,,0.865,1,,,,,,,,,,,,,,m,1,0.865,,,,,,,,0.563964003,-0.089189207,0,0,0,,0,108,108,44,1,BASKET,HB,old,m,./images/BASKETHB.png,,,,,,,,,,,,,,,,,,,,,
,,,,,,,,,,,,,,,,,199198,18,2022-01-28_19h37.47.336,lexical_decision_task_DD_L6,2021.2.3,Win32,59.99520038,,,,,,,,,,,,1.7147,1,,,,,,,,,,,,,,z,1,1.7147,,,,,,,,0.563964003,-0.089189207,0,0,0,,0,109,109,104,1,GITTY,LB,old,z,./images/GITTYLB.png,,,,,,,,,,,,,,,,,,,,,
,,,,,,,,,,,,,,,,,199198,18,2022-01-28_19h37.47.336,lexical_decision_task_DD_L6,2021.2.3,Win32,59.99520038,,,,,,,,,,,,0.7283,1,,,,,,,,,,,,,,z,1,0.7283,,,,,,,,0.563964003,-0.089189207,0,0,0,,0,110,110,128,1,GRIFT,LB,old,z,./images/GRIFTLB.png,,,,,,,,,,,,,,,,,,,,,
,,,,,,,,,,,,,,,,,199198,18,2022-01-28_19h37.47.336,lexical_decision_task_DD_L6,2021.2.3,Win32,59.99520038,,,,,,,,,,,,1.0365,1,,,,,,,,,,,,,,z,1,1.0365,,,,,,,,0.563964003,-0.089189207,0,0,0,,0,111,111,95,1,HANTY,LB,old,z,./images/HANTYLB.png,,,,,,,,,,,,,,,,,,,,,
,,,,,,,,,,,,,,,,,199198,18,2022-01-28_19h37.47.336,lexical_decision_task_DD_L6,2021.2.3,Win32,59.99520038,,,,,,,,,,,,0.7236,1,,,,,,,,,,,,,,m,1,0.7236,,,,,,,,0.563964003,-0.089189207,0,0,0,,0,112,112,28,1,CASINO,C,old,m,./images/CASINO.png,,,,,,,,,,,,,,,,,,,,,
,,,,,,,,,,,,,,,,,199198,18,2022-01-28_19h37.47.336,lexical_decision_task_DD_L6,2021.2.3,Win32,59.99520038,,,,,,,,,,,,1.0999,1,,,,,,,,,,,,,,m,1,1.0999,,,,,,,,0.563964003,-0.089189207,0,0,0,,0,113,113,0,1,WALNUT,LB,old,m,./images/WALNUTLB.png,,,,,,,,,,,,,,,,,,,,,
,,,,,,,,,,,,,,,,,199198,18,2022-01-28_19h37.47.336,lexical_decision_task_DD_L6,2021.2.3,Win32,59.99520038,,,,,,,,,,,,1.4102,0,,,,,,,,,,,,,,m,0,1.4102,,,,,,,,0.563964003,-0.089189207,0,0,0,,0,114,114,123,1,SEDGE,C,old,z,./images/SEDGE.png,,,,,,,,,,,,,,,,,,,,,
,,,,,,,,,,,,,,,,,199198,18,2022-01-28_19h37.47.336,lexical_decision_task_DD_L6,2021.2.3,Win32,59.99520038,,,,,,,,,,,,0.8398,1,,,,,,,,,,,,,,z,1,0.8398,,,,,,,,0.563964003,-0.089189207,0,0,0,,0,115,115,98,1,BAMPS,LB,old,z,./images/BAMPSLB.png,,,,,,,,,,,,,,,,,,,,,
,,,,,,,,,,,,,,,,,199198,18,2022-01-28_19h37.47.336,lexical_decision_task_DD_L6,2021.2.3,Win32,59.99520038,,,,,,,,,,,,1.119,1,,,,,,,,,,,,,,m,1,1.119,,,,,,,,0.563964003,-0.089189207,0,0,0,,0,116,116,8,1,CLIFF,HB,old,m,./images/CLIFFHB.png,,,,,,,,,,,,,,,,,,,,,
,,,,,,,,,,,,,,,,,199198,18,2022-01-28_19h37.47.336,lexical_decision_task_DD_L6,2021.2.3,Win32,59.99520038,,,,,,,,,,,,1.3214,1,,,,,,,,,,,,,,z,1,1.3214,,,,,,,,0.563964003,-0.089189207,0,0,0,,0,117,117,106,1,CLUMS,HB,old,z,./images/CLUMSHB.png,,,,,,,,,,,,,,,,,,,,,
,,,,,,,,,,,,,,,,,199198,18,2022-01-28_19h37.47.336,lexical_decision_task_DD_L6,2021.2.3,Win32,59.99520038,,,,,,,,,,,,1.6579,1,,,,,,,,,,,,,,z,1,1.6579,,,,,,,,0.563964003,-0.089189207,0,0,0,,0,118,118,121,1,CEERS,HB,old,z,./images/CEERSHB.png,,,,,,,,,,,,,,,,,,,,,
,,,,,,,,,,,,,,,,,199198,18,2022-01-28_19h37.47.336,lexical_decision_task_DD_L6,2021.2.3,Win32,59.99520038,,,,,,,,,,,,0.6989,1,,,,,,,,,,,,,,z,1,0.6989,,,,,,,,0.563964003,-0.089189207,0,0,0,,0,119,119,124,1,TUNCH,HB,old,z,./images/TUNCHHB.png,,,,,,,,,,,,,,,,,,,,,
,,,,,,,,,,,,,,,,,199198,18,2022-01-28_19h37.47.336,lexical_decision_task_DD_L6,2021.2.3,Win32,59.99520038,,,,,,,,,,,,0.891,1,,,,,,,,,,,,,,z,1,0.891,,,,,,,,0.563964003,-0.089189207,0,0,0,,0,120,120,99,1,BACKY,C,old,z,./images/BACKY.png,,,,,,,,,,,,,,,,,,,,,
,,,,,,,,,,,,,,,,,199198,18,2022-01-28_19h37.47.336,lexical_decision_task_DD_L6,2021.2.3,Win32,59.99520038,,,,,,,,,,,,1.6104,1,,,,,,,,,,,,,,m,1,1.6104,,,,,,,,0.563964003,-0.089189207,0,0,0,,0,121,121,33,1,SAUNA,LB,old,m,./images/SAUNALB.png,,,,,,,,,,,,,,,,,,,,,
,,,,,,,,,,,,,,,,,199198,18,2022-01-28_19h37.47.336,lexical_decision_task_DD_L6,2021.2.3,Win32,59.99520038,,,,,,,,,,,,0.9041,1,,,,,,,,,,,,,,z,1,0.9041,,,,,,,,0.563964003,-0.089189207,0,0,0,,0,122,122,111,1,HOSSE,C,old,z,./images/HOSSE.png,,,,,,,,,,,,,,,,,,,,,
,,,,,,,,,,,,,,,,,199198,18,2022-01-28_19h37.47.336,lexical_decision_task_DD_L6,2021.2.3,Win32,59.99520038,,,,,,,,,,,,0.913,1,,,,,,,,,,,,,,m,1,0.913,,,,,,,,0.563964003,-0.089189207,0,0,0,,0,123,123,63,1,BAKER,LB,old,m,./images/BAKERLB.png,,,,,,,,,,,,,,,,,,,,,
,,,,,,,,,,,,,,,,,199198,18,2022-01-28_19h37.47.336,lexical_decision_task_DD_L6,2021.2.3,Win32,59.99520038,,,,,,,,,,,,0.9268,1,,,,,,,,,,,,,,m,1,0.9268,,,,,,,,0.563964003,-0.089189207,0,0,0,,0,124,124,14,1,FENCE,HB,old,m,./images/FENCEHB.png,,,,,,,,,,,,,,,,,,,,,
,,,,,,,,,,,,,,,,,199198,18,2022-01-28_19h37.47.336,lexical_decision_task_DD_L6,2021.2.3,Win32,59.99520038,,,,,,,,,,,,1.0061,1,,,,,,,,,,,,,,z,1,1.0061,,,,,,,,0.563964003,-0.089189207,0,0,0,space,0,125,125,143,1,MONGS,LB,old,z,./images/MONGSLB.png,4.5015,,,,,,,,,,,,,,,,,,,,
,,,,,,,,,,,,,,,,,199198,18,2022-01-28_19h37.47.336,lexical_decision_task_DD_L6,2021.2.3,Win32,59.99520038,,,,,,,,,,,,0.5836,1,,,,,,,,,,,,,,m,1,0.5836,,,,,,,,0.563964003,-0.089189207,0,0,0,,0,126,126,82,1,PEBBLE,C,old,m,./images/PEBBLE.png,,,,,,,,,,,,,,,,,,,,,
,,,,,,,,,,,,,,,,,199198,18,2022-01-28_19h37.47.336,lexical_decision_task_DD_L6,2021.2.3,Win32,59.99520038,,,,,,,,,,,,0.6009,1,,,,,,,,,,,,,,m,1,0.6009,,,,,,,,0.563964003,-0.089189207,0,0,0,,0,127,127,2,1,STOVE,HB,old,m,./images/STOVEHB.png,,,,,,,,,,,,,,,,,,,,,
,,,,,,,,,,,,,,,,,199198,18,2022-01-28_19h37.47.336,lexical_decision_task_DD_L6,2021.2.3,Win32,59.99520038,,,,,,,,,,,,1.1443,1,,,,,,,,,,,,,,z,1,1.1443,,,,,,,,0.563964003,-0.089189207,0,0,0,,0,128,128,151,1,TINKY,HB,old,z,./images/TINKYHB.png,,,,,,,,,,,,,,,,,,,,,
,,,,,,,,,,,,,,,,,199198,18,2022-01-28_19h37.47.336,lexical_decision_task_DD_L6,2021.2.3,Win32,59.99520038,,,,,,,,,,,,1.184,1,,,,,,,,,,,,,,m,1,1.184,,,,,,,,0.563964003,-0.089189207,0,0,0,,0,129,129,11,1,MEDAL,HB,old,m,./images/MEDALHB.png,,,,,,,,,,,,,,,,,,,,,
,,,,,,,,,,,,,,,,,199198,18,2022-01-28_19h37.47.336,lexical_decision_task_DD_L6,2021.2.3,Win32,59.99520038,,,,,,,,,,,,1.6063,1,,,,,,,,,,,,,,z,1,1.6063,,,,,,,,0.563964003,-0.089189207,0,0,0,,0,130,130,166,1,SHORY,HB,old,z,./images/SHORYHB.png,,,,,,,,,,,,,,,,,,,,,
,,,,,,,,,,,,,,,,,199198,18,2022-01-28_19h37.47.336,lexical_decision_task_DD_L6,2021.2.3,Win32,59.99520038,,,,,,,,,,,,1.438,1,,,,,,,,,,,,,,z,1,1.438,,,,,,,,0.563964003,-0.089189207,0,0,0,,0,131,131,100,1,DRIBS,HB,old,z,./images/DRIBSHB.png,,,,,,,,,,,,,,,,,,,,,
,,,,,,,,,,,,,,,,,199198,18,2022-01-28_19h37.47.336,lexical_decision_task_DD_L6,2021.2.3,Win32,59.99520038,,,,,,,,,,,,1.0503,1,,,,,,,,,,,,,,m,1,1.0503,,,,,,,,0.563964003,-0.089189207,0,0,0,,0,132,132,75,1,HAMMER,LB,old,m,./images/HAMMERLB.png,,,,,,,,,,,,,,,,,,,,,
,,,,,,,,,,,,,,,,,199198,18,2022-01-28_19h37.47.336,lexical_decision_task_DD_L6,2021.2.3,Win32,59.99520038,,,,,,,,,,,,1.0334,1,,,,,,,,,,,,,,m,1,1.0334,,,,,,,,0.563964003,-0.089189207,0,0,0,,0,133,133,26,1,CLOUD,HB,old,m,./images/CLOUDHB.png,,,,,,,,,,,,,,,,,,,,,
,,,,,,,,,,,,,,,,,199198,18,2022-01-28_19h37.47.336,lexical_decision_task_DD_L6,2021.2.3,Win32,59.99520038,,,,,,,,,,,,1.0502,1,,,,,,,,,,,,,,z,1,1.0502,,,,,,,,0.563964003,-0.089189207,0,0,0,,0,134,134,145,1,LAMEL,HB,old,z,./images/LAMELHB.png,,,,,,,,,,,,,,,,,,,,,
,,,,,,,,,,,,,,,,,199198,18,2022-01-28_19h37.47.336,lexical_decision_task_DD_L6,2021.2.3,Win32,59.99520038,,,,,,,,,,,,0.6625,1,,,,,,,,,,,,,,m,1,0.6625,,,,,,,,0.563964003,-0.089189207,0,0,0,,0,135,135,76,1,MIDGET,C,old,m,./images/MIDGET.png,,,,,,,,,,,,,,,,,,,,,
,,,,,,,,,,,,,,,,,199198,18,2022-01-28_19h37.47.336,lexical_decision_task_DD_L6,2021.2.3,Win32,59.99520038,,,,,,,,,,,,0.7084,1,,,,,,,,,,,,,,z,1,0.7084,,,,,,,,0.563964003,-0.089189207,0,0,0,,0,136,136,147,1,ZOLES,C,old,z,./images/ZOLES.png,,,,,,,,,,,,,,,,,,,,,
,,,,,,,,,,,,,,,,,199198,18,2022-01-28_19h37.47.336,lexical_decision_task_DD_L6,2021.2.3,Win32,59.99520038,,,,,,,,,,,,0.7831,1,,,,,,,,,,,,,,m,1,0.7831,,,,,,,,0.563964003,-0.089189207,0,0,0,,0,137,137,5,1,BAMBOO,HB,old,m,./images/BAMBOOHB.png,,,,,,,,,,,,,,,,,,,,,
,,,,,,,,,,,,,,,,,199198,18,2022-01-28_19h37.47.336,lexical_decision_task_DD_L6,2021.2.3,Win32,59.99520038,,,,,,,,,,,,0.6888,1,,,,,,,,,,,,,,m,1,0.6888,,,,,,,,0.563964003,-0.089189207,0,0,0,,0,138,138,34,1,RAZOR,C,old,m,./images/RAZOR.png,,,,,,,,,,,,,,,,,,,,,
,,,,,,,,,,,,,,,,,199198,18,2022-01-28_19h37.47.336,lexical_decision_task_DD_L6,2021.2.3,Win32,59.99520038,,,,,,,,,,,,1.079,1,,,,,,,,,,,,,,m,1,1.079,,,,,,,,0.563964003,-0.089189207,0,0,0,,0,139,139,45,1,MONKEY,LB,old,m,./images/MONKEYLB.png,,,,,,,,,,,,,,,,,,,,,
,,,,,,,,,,,,,,,,,199198,18,2022-01-28_19h37.47.336,lexical_decision_task_DD_L6,2021.2.3,Win32,59.99520038,,,,,,,,,,,,1.5034,1,,,,,,,,,,,,,,z,1,1.5034,,,,,,,,0.563964003,-0.089189207,0,0,0,,0,140,140,149,1,VEASE,LB,old,z,./images/VEASELB.png,,,,,,,,,,,,,,,,,,,,,
,,,,,,,,,,,,,,,,,199198,18,2022-01-28_19h37.47.336,lexical_decision_task_DD_L6,2021.2.3,Win32,59.99520038,,,,,,,,,,,,0.6721,1,,,,,,,,,,,,,,m,1,0.6721,,,,,,,,0.563964003,-0.089189207,0,0,0,,0,141,141,74,1,JUMPER,HB,old,m,./images/JUMPERHB.png,,,,,,,,,,,,,,,,,,,,,
,,,,,,,,,,,,,,,,,199198,18,2022-01-28_19h37.47.336,lexical_decision_task_DD_L6,2021.2.3,Win32,59.99520038,,,,,,,,,,,,0.6402,1,,,,,,,,,,,,,,z,1,0.6402,,,,,,,,0.563964003,-0.089189207,0,0,0,,0,142,142,150,1,NOOLS,C,old,z,./images/NOOLS.png,,,,,,,,,,,,,,,,,,,,,
,,,,,,,,,,,,,,,,,199198,18,2022-01-28_19h37.47.336,lexical_decision_task_DD_L6,2021.2.3,Win32,59.99520038,,,,,,,,,,,,1.0943,1,,,,,,,,,,,,,,z,1,1.0943,,,,,,,,0.563964003,-0.089189207,0,0,0,,0,143,143,115,1,MAWNS,HB,old,z,./images/MAWNSHB.png,,,,,,,,,,,,,,,,,,,,,
,,,,,,,,,,,,,,,,,199198,18,2022-01-28_19h37.47.336,lexical_decision_task_DD_L6,2021.2.3,Win32,59.99520038,,,,,,,,,,,,0.7397,1,,,,,,,,,,,,,,m,1,0.7397,,,,,,,,0.563964003,-0.089189207,0,0,0,,0,144,144,12,1,BLOKE,LB,old,m,./images/BLOKELB.png,,,,,,,,,,,,,,,,,,,,,
,,,,,,,,,,,,,,,,,199198,18,2022-01-28_19h37.47.336,lexical_decision_task_DD_L6,2021.2.3,Win32,59.99520038,,,,,,,,,,,,0.9069,1,,,,,,,,,,,,,,m,1,0.9069,,,,,,,,0.563964003,-0.089189207,0,0,0,,0,145,145,78,1,BROOM,LB,old,m,./images/BROOMLB.png,,,,,,,,,,,,,,,,,,,,,
,,,,,,,,,,,,,,,,,199198,18,2022-01-28_19h37.47.336,lexical_decision_task_DD_L6,2021.2.3,Win32,59.99520038,,,,,,,,,,,,0.6415,1,,,,,,,,,,,,,,m,1,0.6415,,,,,,,,0.563964003,-0.089189207,0,0,0,,0,146,146,81,1,DRILL,LB,old,m,./images/DRILLLB.png,,,,,,,,,,,,,,,,,,,,,
,,,,,,,,,,,,,,,,,199198,18,2022-01-28_19h37.47.336,lexical_decision_task_DD_L6,2021.2.3,Win32,59.99520038,,,,,,,,,,,,0.807,1,,,,,,,,,,,,,,m,1,0.807,,,,,,,,0.563964003,-0.089189207,0,0,0,,0,147,147,3,1,CRATER,LB,old,m,./images/CRATERLB.png,,,,,,,,,,,,,,,,,,,,,
,,,,,,,,,,,,,,,,,199198,18,2022-01-28_19h37.47.336,lexical_decision_task_DD_L6,2021.2.3,Win32,59.99520038,,,,,,,,,,,,0.7688,1,,,,,,,,,,,,,,m,1,0.7688,,,,,,,,0.563964003,-0.089189207,0,0,0,,0,148,148,72,1,FLASK,LB,old,m,./images/FLASKLB.png,,,,,,,,,,,,,,,,,,,,,
,,,,,,,,,,,,,,,,,199198,18,2022-01-28_19h37.47.336,lexical_decision_task_DD_L6,2021.2.3,Win32,59.99520038,,,,,,,,,,,,0.6933,1,,,,,,,,,,,,,,z,1,0.6933,,,,,,,,0.563964003,-0.089189207,0,0,0,,0,149,149,108,1,GRUET,C,old,z,./images/GRUET.png,,,,,,,,,,,,,,,,,,,,,
,,,,,,,,,,,,,,,,,199198,18,2022-01-28_19h37.47.336,lexical_decision_task_DD_L6,2021.2.3,Win32,59.99520038,,,,,,,,,,,,0.6176,1,,,,,,,,,,,,,,m,1,0.6176,,,,,,,,0.563964003,-0.089189207,0,0,0,,0,150,150,48,1,SHIELD,LB,old,m,./images/SHIELDLB.png,,,,,,,,,,,,,,,,,,,,,
,,,,,,,,,,,,,,,,,199198,18,2022-01-28_19h37.47.336,lexical_decision_task_DD_L6,2021.2.3,Win32,59.99520038,,,,,,,,,,,,0.7378,1,,,,,,,,,,,,,,m,1,0.7378,,,,,,,,0.563964003,-0.089189207,0,0,0,,0,151,151,71,1,BUBBLE,HB,old,m,./images/BUBBLEHB.png,,,,,,,,,,,,,,,,,,,,,
,,,,,,,,,,,,,,,,,199198,18,2022-01-28_19h37.47.336,lexical_decision_task_DD_L6,2021.2.3,Win32,59.99520038,,,,,,,,,,,,0.6505,1,,,,,,,,,,,,,,m,1,0.6505,,,,,,,,0.563964003,-0.089189207,0,0,0,,0,152,152,79,1,RULER,C,old,m,./images/RULER.png,,,,,,,,,,,,,,,,,,,,,
,,,,,,,,,,,,,,,,,199198,18,2022-01-28_19h37.47.336,lexical_decision_task_DD_L6,2021.2.3,Win32,59.99520038,,,,,,,,,,,,0.6619,1,,,,,,,,,,,,,,z,1,0.6619,,,,,,,,0.563964003,-0.089189207,0,0,0,,0,153,153,164,1,SGREW,LB,old,z,./images/SGREWLB.png,,,,,,,,,,,,,,,,,,,,,
,,,,,,,,,,,,,,,,,199198,18,2022-01-28_19h37.47.336,lexical_decision_task_DD_L6,2021.2.3,Win32,59.99520038,,,,,,,,,,,,1.1945,1,,,,,,,,,,,,,,z,1,1.1945,,,,,,,,0.563964003,-0.089189207,0,0,0,,0,154,154,165,1,TROWN,C,old,z,./images/TROWN.png,,,,,,,,,,,,,,,,,,,,,
,,,,,,,,,,,,,,,,,199198,18,2022-01-28_19h37.47.336,lexical_decision_task_DD_L6,2021.2.3,Win32,59.99520038,,,,,,,,,,,,0.9049,1,,,,,,,,,,,,,,m,1,0.9049,,,,,,,,0.563964003,-0.089189207,0,0,0,,0,155,155,29,1,PISTOL,HB,old,m,./images/PISTOLHB.png,,,,,,,,,,,,,,,,,,,,,
,,,,,,,,,,,,,,,,,199198,18,2022-01-28_19h37.47.336,lexical_decision_task_DD_L6,2021.2.3,Win32,59.99520038,,,,,,,,,,,,0.6666,1,,,,,,,,,,,,,,m,1,0.6666,,,,,,,,0.563964003,-0.089189207,0,0,0,,0,156,156,25,1,CHALK,C,old,m,./images/CHALK.png,,,,,,,,,,,,,,,,,,,,,
,,,,,,,,,,,,,,,,,199198,18,2022-01-28_19h37.47.336,lexical_decision_task_DD_L6,2021.2.3,Win32,59.99520038,,,,,,,,,,,,0.7565,1,,,,,,,,,,,,,,m,1,0.7565,,,,,,,,0.563964003,-0.089189207,0,0,0,,0,157,157,77,1,WHEEL,HB,old,m,./images/WHEELHB.png,,,,,,,,,,,,,,,,,,,,,
,,,,,,,,,,,,,,,,,199198,18,2022-01-28_19h37.47.336,lexical_decision_task_DD_L6,2021.2.3,Win32,59.99520038,,,,,,,,,,,,0.9391,1,,,,,,,,,,,,,,z,1,0.9391,,,,,,,,0.563964003,-0.089189207,0,0,0,,0,158,158,153,1,CLUPS,C,old,z,./images/CLUPS.png,,,,,,,,,,,,,,,,,,,,,
,,,,,,,,,,,,,,,,,199198,18,2022-01-28_19h37.47.336,lexical_decision_task_DD_L6,2021.2.3,Win32,59.99520038,,,,,,,,,,,,1.311,1,,,,,,,,,,,,,,m,1,1.311,,,,,,,,0.563964003,-0.089189207,0,0,0,,0,159,159,20,1,GRANNY,HB,old,m,./images/GRANNYHB.png,,,,,,,,,,,,,,,,,,,,,
,,,,,,,,,,,,,,,,,199198,18,2022-01-28_19h37.47.336,lexical_decision_task_DD_L6,2021.2.3,Win32,59.99520038,,,,,,,,,,,,0.7647,1,,,,,,,,,,,,,,z,1,0.7647,,,,,,,,0.563964003,-0.089189207,0,0,0,,0,160,160,87,1,TRING,C,old,z,./images/TRING.png,,,,,,,,,,,,,,,,,,,,,
,,,,,,,,,,,,,,,,,199198,18,2022-01-28_19h37.47.336,lexical_decision_task_DD_L6,2021.2.3,Win32,59.99520038,,,,,,,,,,,,1.0347,1,,,,,,,,,,,,,,z,1,1.0347,,,,,,,,0.563964003,-0.089189207,0,0,0,,0,161,161,139,1,BLEAR,HB,old,z,./images/BLEARHB.png,,,,,,,,,,,,,,,,,,,,,
,,,,,,,,,,,,,,,,,199198,18,2022-01-28_19h37.47.336,lexical_decision_task_DD_L6,2021.2.3,Win32,59.99520038,,,,,,,,,,,,1.4909,1,,,,,,,,,,,,,,m,1,1.4909,,,,,,,,0.563964003,-0.089189207,0,0,0,,0,162,162,37,1,TIGER,C,old,m,./images/TIGER.png,,,,,,,,,,,,,,,,,,,,,
,,,,,,,,,,,,,,,,,199198,18,2022-01-28_19h37.47.336,lexical_decision_task_DD_L6,2021.2.3,Win32,59.99520038,,,,,,,,,,,,0.7166,1,,,,,,,,,,,,,,m,1,0.7166,,,,,,,,0.563964003,-0.089189207,0,0,0,,0,163,163,36,1,BOILER,LB,old,m,./images/BOILERLB.png,,,,,,,,,,,,,,,,,,,,,
,,,,,,,,,,,,,,,,,199198,18,2022-01-28_19h37.47.336,lexical_decision_task_DD_L6,2021.2.3,Win32,59.99520038,,,,,,,,,,,,1.1419,1,,,,,,,,,,,,,,z,1,1.1419,,,,,,,,0.563964003,-0.089189207,0,0,0,,0,164,164,127,1,NINDY,HB,old,z,./images/NINDYHB.png,,,,,,,,,,,,,,,,,,,,,
,,,,,,,,,,,,,,,,,199198,18,2022-01-28_19h37.47.336,lexical_decision_task_DD_L6,2021.2.3,Win32,59.99520038,,,,,,,,,,,,0.7834,1,,,,,,,,,,,,,,m,1,0.7834,,,,,,,,0.563964003,-0.089189207,0,0,0,,0,165,165,39,1,CANDY,LB,old,m,./images/CANDYLB.png,,,,,,,,,,,,,,,,,,,,,
,,,,,,,,,,,,,,,,,199198,18,2022-01-28_19h37.47.336,lexical_decision_task_DD_L6,2021.2.3,Win32,59.99520038,,,,,,,,,,,,0.9395,1,,,,,,,,,,,,,,m,1,0.9395,,,,,,,,0.563964003,-0.089189207,0,0,0,,0,166,166,68,1,VALLEY,HB,old,m,./images/VALLEYHB.png,,,,,,,,,,,,,,,,,,,,,
,,,,,,,,,,,,,,,,,199198,18,2022-01-28_19h37.47.336,lexical_decision_task_DD_L6,2021.2.3,Win32,59.99520038,,,,,,,,,,,,1.3507,1,,,,,,,,,,,,,,z,1,1.3507,,,,,,,,0.563964003,-0.089189207,0,0,0,,0,167,167,126,1,GUELS,C,old,z,./images/GUELS.png,,,,,,,,,,,,,,,,,,,,,
space,0.563964003,-0.089189207,0,0,0,,,,,,,1,test,"In the next phase you will be presented with the words from the the first phase. Your job is to decide whether you remember seeing the word or not. If you remember seeing the word press ""old"" or type ""m"". If you do not remember seeing the word press ""new"" or type ""z"". Please press the space bar or click on continue to begin. ",,,199198,18,2022-01-28_19h37.47.336,lexical_decision_task_DD_L6,2021.2.3,Win32,59.99520038,118.9141,,,,,,,,,,,,,,,,,,,,,,,,,,,,,,,,,,,,,,,,,,,,,,,,,,,,,0,0,0,0,1,,,,,,,,,,,,,,,
space,0.563964003,-0.089189207,0,0,0,,,,,,,1,test,"In the next phase you will be presented with the words from the the first phase. Your job is to decide whether you remember seeing the word or not. If you remember seeing the word press ""old"" or type ""m"". If you do not remember seeing the word press ""new"" or type ""z"". Please press the space bar or click on continue to begin. ",,,199198,18,2022-01-28_19h37.47.336,lexical_decision_task_DD_L6,2021.2.3,Win32,59.99520038,1.4517,,,,,,,,,,,,,,,,,,,,,,,,,,,,,,,,,,,,,,,,,,,,,,,,,,,,,1,0,1,0,1,,,,,,,,,,,,,,,
,0.070270295,-0.355255281,1,0,0,instr_done_button,,,,,,1,test,"In the next phase you will be presented with the words from the the first phase. Your job is to decide whether you remember seeing the word or not. If you remember seeing the word press ""old"" or type ""m"". If you do not remember seeing the word press ""new"" or type ""z"". Please press the space bar or click on continue to begin. ",,,199198,18,2022-01-28_19h37.47.336,lexical_decision_task_DD_L6,2021.2.3,Win32,59.99520038,,,,,,,,,,,,,,,,,,,,,,,,,,,,,,,,,,,,,,,,,,,,,,,,,,,,,,2,0,2,0,1,,,,,,,,,,,,,,,
,0.035435459,-0.390690717,1,0,0,instr_done_button,,,,,,1,test,"In the next phase you will be presented with the words from the the first phase. Your job is to decide whether you remember seeing the word or not. If you remember seeing the word press ""old"" or type ""m"". If you do not remember seeing the word press ""new"" or type ""z"". Please press the space bar or click on continue to begin. ",,,199198,18,2022-01-28_19h37.47.336,lexical_decision_task_DD_L6,2021.2.3,Win32,59.99520038,,,,,,,,,,,,,,,,,,,,,,,,,,,,,,,,,,,,,,,,,,,,,,,,,,,,,,3,0,3,0,1,,,,,,,,,,,,,,,
,0.035435459,-0.390690717,1,0,0,instr_done_button,,,,,,1,test,"In the next phase you will be presented with the words from the the first phase. Your job is to decide whether you remember seeing the word or not. If you remember seeing the word press ""old"" or type ""m"". If you do not remember seeing the word press ""new"" or type ""z"". Please press the space bar or click on continue to begin. ",,,199198,18,2022-01-28_19h37.47.336,lexical_decision_task_DD_L6,2021.2.3,Win32,59.99520038,,,,,,,,,,,,,,,,,,,,,,,,,,,,,,,,,,,,,,,,,,,,,,,,,,,,,,4,0,4,0,1,,,,,,,,,,,,,,,
,,,,,,,,,,,,,,,,,199198,18,2022-01-28_19h37.47.336,lexical_decision_task_DD_L6,2021.2.3,Win32,59.99520038,,,,,,,,,,,,2.6915,1,,,,,,,,,,,,,,,,,,,,,,,,0.035435459,-0.390690717,0,0,0,,,,,,,MIDGET,C,m,y,./images/MIDGET.png,,,,,,,m,1,2.6915,,,,,,,,0,0,0,76,1
,,,,,,,,,,,,,,,,,199198,18,2022-01-28_19h37.47.336,lexical_decision_task_DD_L6,2021.2.3,Win32,59.99520038,,,,,,,,,,,,1.8005,0,,,,,,,,,,,,,,,,,,,,,,,,0.035435459,-0.390690717,0,0,0,,,,,,,SWEAT,LB,z,y,./images/SWEATLB.png,,,,,,,m,0,1.8005,,,,,,,,0,1,1,150,1
,,,,,,,,,,,,,,,,,199198,18,2022-01-28_19h37.47.336,lexical_decision_task_DD_L6,2021.2.3,Win32,59.99520038,,,,,,,,,,,,0.9561,1,,,,,,,,,,,,,,,,,,,,,,,,0.035435459,-0.390690717,0,0,0,,,,,,,ARROW,LB,m,y,./images/ARROWLB.png,,,,,,,m,1,0.9561,,,,,,,,0,2,2,69,1
,,,,,,,,,,,,,,,,,199198,18,2022-01-28_19h37.47.336,lexical_decision_task_DD_L6,2021.2.3,Win32,59.99520038,,,,,,,,,,,,3.4191,0,,,,,,,,,,,,,,,,,,,,,,,,0.035435459,-0.390690717,0,0,0,,,,,,,DONKEY,C,m,y,./images/DONKEY.png,,,,,,,z,0,3.4191,,,,,,,,0,3,3,19,1
,,,,,,,,,,,,,,,,,199198,18,2022-01-28_19h37.47.336,lexical_decision_task_DD_L6,2021.2.3,Win32,59.99520038,,,,,,,,,,,,4.6519,0,,,,,,,,,,,,,,,,,,,,,,,,0.035435459,-0.390690717,0,0,0,,,,,,,SHIELD,LB,m,y,./images/SHIELDLB.png,,,,,,,z,0,4.6519,,,,,,,,0,4,4,48,1
,,,,,,,,,,,,,,,,,199198,18,2022-01-28_19h37.47.336,lexical_decision_task_DD_L6,2021.2.3,Win32,59.99520038,,,,,,,,,,,,3.2079,1,,,,,,,,,,,,,,,,,,,,,,,,0.035435459,-0.390690717,0,0,0,,,,,,,SNACK,C,z,y,./images/SNACK.png,,,,,,,z,1,3.2079,,,,,,,,0,5,5,157,1
,,,,,,,,,,,,,,,,,199198,18,2022-01-28_19h37.47.336,lexical_decision_task_DD_L6,2021.2.3,Win32,59.99520038,,,,,,,,,,,,2.6843,1,,,,,,,,,,,,,,,,,,,,,,,,0.035435459,-0.390690717,0,0,0,,,,,,,STREAM,HB,m,y,./images/STREAMHB.png,,,,,,,m,1,2.6843,,,,,,,,0,6,6,41,1
,,,,,,,,,,,,,,,,,199198,18,2022-01-28_19h37.47.336,lexical_decision_task_DD_L6,2021.2.3,Win32,59.99520038,,,,,,,,,,,,1.7439,1,,,,,,,,,,,,,,,,,,,,,,,,0.035435459,-0.390690717,0,0,0,,,,,,,DANCER,LB,m,y,./images/DANCERLB.png,,,,,,,m,1,1.7439,,,,,,,,0,7,7,21,1
,,,,,,,,,,,,,,,,,199198,18,2022-01-28_19h37.47.336,lexical_decision_task_DD_L6,2021.2.3,Win32,59.99520038,,,,,,,,,,,,0.9085,0,,,,,,,,,,,,,,,,,,,,,,,,0.035435459,-0.390690717,0,0,0,,,,,,,SKIING,HB,z,y,./images/SKIINGHB.png,,,,,,,m,0,0.9085,,,,,,,,0,8,8,101,1
,,,,,,,,,,,,,,,,,199198,18,2022-01-28_19h37.47.336,lexical_decision_task_DD_L6,2021.2.3,Win32,59.99520038,,,,,,,,,,,,0.6337,1,,,,,,,,,,,,,,,,,,,,,,,,0.035435459,-0.390690717,0,0,0,,,,,,,STEAK,C,m,y,./images/STEAK.png,,,,,,,m,1,0.6337,,,,,,,,0,9,9,31,1
,,,,,,,,,,,,,,,,,199198,18,2022-01-28_19h37.47.336,lexical_decision_task_DD_L6,2021.2.3,Win32,59.99520038,,,,,,,,,,,,0.7669,1,,,,,,,,,,,,,,,,,,,,,,,,0.035435459,-0.390690717,0,0,0,,,,,,,TRIPOD,LB,z,y,./images/TRIPODLB.png,,,,,,,z,1,0.7669,,,,,,,,0,10,10,138,1
,,,,,,,,,,,,,,,,,199198,18,2022-01-28_19h37.47.336,lexical_decision_task_DD_L6,2021.2.3,Win32,59.99520038,,,,,,,,,,,,0.9533,1,,,,,,,,,,,,,,,,,,,,,,,,0.035435459,-0.390690717,0,0,0,,,,,,,JELLY,C,z,y,./images/JELLY.png,,,,,,,z,1,0.9533,,,,,,,,0,11,11,148,1
,,,,,,,,,,,,,,,,,199198,18,2022-01-28_19h37.47.336,lexical_decision_task_DD_L6,2021.2.3,Win32,59.99520038,,,,,,,,,,,,0.7181,0,,,,,,,,,,,,,,,,,,,,,,,,0.035435459,-0.390690717,0,0,0,,,,,,,SHELF,LB,z,y,./images/SHELFLB.png,,,,,,,m,0,0.7181,,,,,,,,0,12,12,123,1
,,,,,,,,,,,,,,,,,199198,18,2022-01-28_19h37.47.336,lexical_decision_task_DD_L6,2021.2.3,Win32,59.99520038,,,,,,,,,,,,0.8503,0,,,,,,,,,,,,,,,,,,,,,,,,0.035435459,-0.390690717,0,0,0,,,,,,,GLOVE,C,m,y,./images/GLOVE.png,,,,,,,z,0,0.8503,,,,,,,,0,13,13,73,1
,,,,,,,,,,,,,,,,,199198,18,2022-01-28_19h37.47.336,lexical_decision_task_DD_L6,2021.2.3,Win32,59.99520038,,,,,,,,,,,,1.0002,1,,,,,,,,,,,,,,,,,,,,,,,,0.035435459,-0.390690717,0,0,0,,,,,,,MOSQUE,C,z,y,./images/MOSQUE.png,,,,,,,z,1,1.0002,,,,,,,,0,14,14,127,1
,,,,,,,,,,,,,,,,,199198,18,2022-01-28_19h37.47.336,lexical_decision_task_DD_L6,2021.2.3,Win32,59.99520038,,,,,,,,,,,,1.2673,1,,,,,,,,,,,,,,,,,,,,,,,,0.035435459,-0.390690717,0,0,0,,,,,,,RULER,C,m,y,./images/RULER.png,,,,,,,m,1,1.2673,,,,,,,,0,15,15,79,1
,,,,,,,,,,,,,,,,,199198,18,2022-01-28_19h37.47.336,lexical_decision_task_DD_L6,2021.2.3,Win32,59.99520038,,,,,,,,,,,,0.9743,1,,,,,,,,,,,,,,,,,,,,,,,,0.035435459,-0.390690717,0,0,0,,,,,,,PURSE,HB,z,y,./images/PURSEHB.png,,,,,,,z,1,0.9743,,,,,,,,0,16,16,146,1
,,,,,,,,,,,,,,,,,199198,18,2022-01-28_19h37.47.336,lexical_decision_task_DD_L6,2021.2.3,Win32,59.99520038,,,,,,,,,,,,0.7732,1,,,,,,,,,,,,,,,,,,,,,,,,0.035435459,-0.390690717,0,0,0,,,,,,,CRUMB,HB,z,y,./images/CRUMBHB.png,,,,,,,z,1,0.7732,,,,,,,,0,17,17,113,1
,,,,,,,,,,,,,,,,,199198,18,2022-01-28_19h37.47.336,lexical_decision_task_DD_L6,2021.2.3,Win32,59.99520038,,,,,,,,,,,,1.2421,0,,,,,,,,,,,,,,,,,,,,,,,,0.035435459,-0.390690717,0,0,0,,,,,,,LADDER,HB,z,y,./images/LADDERHB.png,,,,,,,m,0,1.2421,,,,,,,,0,18,18,122,1
,,,,,,,,,,,,,,,,,199198,18,2022-01-28_19h37.47.336,lexical_decision_task_DD_L6,2021.2.3,Win32,59.99520038,,,,,,,,,,,,0.8733,1,,,,,,,,,,,,,,,,,,,,,,,,0.035435459,-0.390690717,0,0,0,,,,,,,BROOM,LB,m,y,./images/BROOMLB.png,,,,,,,m,1,0.8733,,,,,,,,0,19,19,78,1
,,,,,,,,,,,,,,,,,199198,18,2022-01-28_19h37.47.336,lexical_decision_task_DD_L6,2021.2.3,Win32,59.99520038,,,,,,,,,,,,0.7169,1,,,,,,,,,,,,,,,,,,,,,,,,0.035435459,-0.390690717,0,0,0,,,,,,,ONION,LB,z,y,./images/ONIONLB.png,,,,,,,z,1,0.7169,,,,,,,,0,20,20,135,1
,,,,,,,,,,,,,,,,,199198,18,2022-01-28_19h37.47.336,lexical_decision_task_DD_L6,2021.2.3,Win32,59.99520038,,,,,,,,,,,,1.026,1,,,,,,,,,,,,,,,,,,,,,,,,0.035435459,-0.390690717,0,0,0,,,,,,,GRANNY,HB,m,y,./images/GRANNYHB.png,,,,,,,m,1,1.026,,,,,,,,0,21,21,20,1
,,,,,,,,,,,,,,,,,199198,18,2022-01-28_19h37.47.336,lexical_decision_task_DD_L6,2021.2.3,Win32,59.99520038,,,,,,,,,,,,0.6572,1,,,,,,,,,,,,,,,,,,,,,,,,0.035435459,-0.390690717,0,0,0,,,,,,,CASINO,C,m,y,./images/CASINO.png,,,,,,,m,1,0.6572,,,,,,,,0,22,22,28,1
,,,,,,,,,,,,,,,,,199198,18,2022-01-28_19h37.47.336,lexical_decision_task_DD_L6,2021.2.3,Win32,59.99520038,,,,,,,,,,,,0.6332,1,,,,,,,,,,,,,,,,,,,,,,,,0.035435459,-0.390690717,0,0,0,,,,,,,BUBBLE,HB,m,y,./images/BUBBLEHB.png,,,,,,,m,1,0.6332,,,,,,,,0,23,23,71,1
,,,,,,,,,,,,,,,,,199198,18,2022-01-28_19h37.47.336,lexical_decision_task_DD_L6,2021.2.3,Win32,59.99520038,,,,,,,,,,,,0.8506,1,,,,,,,,,,,,,,,,,,,,,,,,0.035435459,-0.390690717,0,0,0,,,,,,,TWINS,LB,z,y,./images/TWINSLB.png,,,,,,,z,1,0.8506,,,,,,,,0,24,24,144,1
,,,,,,,,,,,,,,,,,199198,18,2022-01-28_19h37.47.336,lexical_decision_task_DD_L6,2021.2.3,Win32,59.99520038,,,,,,,,,,,,0.6781,0,,,,,,,,,,,,,,,,,,,,,,,,0.035435459,-0.390690717,0,0,0,,,,,,,MOOSE,LB,z,y,./images/MOOSELB.png,,,,,,,m,0,0.6781,,,,,,,,0,25,25,141,1
,,,,,,,,,,,,,,,,,199198,18,2022-01-28_19h37.47.336,lexical_decision_task_DD_L6,2021.2.3,Win32,59.99520038,,,,,,,,,,,,1.1385,0,,,,,,,,,,,,,,,,,,,,,,,,0.035435459,-0.390690717,0,0,0,,,,,,,GREASE,LB,z,y,./images/GREASELB.png,,,,,,,m,0,1.1385,,,,,,,,0,26,26,99,1
,,,,,,,,,,,,,,,,,199198,18,2022-01-28_19h37.47.336,lexical_decision_task_DD_L6,2021.2.3,Win32,59.99520038,,,,,,,,,,,,0.6003,1,,,,,,,,,,,,,,,,,,,,,,,,0.035435459,-0.390690717,0,0,0,,,,,,,WHISKY,HB,m,y,./images/WHISKYHB.png,,,,,,,m,1,0.6003,,,,,,,,0,27,27,83,1
,,,,,,,,,,,,,,,,,199198,18,2022-01-28_19h37.47.336,lexical_decision_task_DD_L6,2021.2.3,Win32,59.99520038,,,,,,,,,,,,0.686,0,,,,,,,,,,,,,,,,,,,,,,,,0.035435459,-0.390690717,0,0,0,,,,,,,PASTA,HB,z,y,./images/PASTAHB.png,,,,,,,m,0,0.686,,,,,,,,0,28,28,89,1
,,,,,,,,,,,,,,,,,199198,18,2022-01-28_19h37.47.336,lexical_decision_task_DD_L6,2021.2.3,Win32,59.99520038,,,,,,,,,,,,0.5932,1,,,,,,,,,,,,,,,,,,,,,,,,0.035435459,-0.390690717,0,0,0,,,,,,,SNAKE,C,m,y,./images/SNAKE.png,,,,,,,m,1,0.5932,,,,,,,,0,29,29,40,1
,,,,,,,,,,,,,,,,,199198,18,2022-01-28_19h37.47.336,lexical_decision_task_DD_L6,2021.2.3,Win32,59.99520038,,,,,,,,,,,,0.8261,1,,,,,,,,,,,,,,,,,,,,,,,,0.035435459,-0.390690717,0,0,0,,,,,,,FARMER,HB,z,y,./images/FARMERHB.png,,,,,,,z,1,0.8261,,,,,,,,0,30,30,149,1
,,,,,,,,,,,,,,,,,199198,18,2022-01-28_19h37.47.336,lexical_decision_task_DD_L6,2021.2.3,Win32,59.99520038,,,,,,,,,,,,0.706,1,,,,,,,,,,,,,,,,,,,,,,,,0.035435459,-0.390690717,0,0,0,,,,,,,MUMMY,C,m,y,./images/MUMMY.png,,,,,,,m,1,0.706,,,,,,,,0,31,31,46,1
,,,,,,,,,,,,,,,,,199198,18,2022-01-28_19h37.47.336,lexical_decision_task_DD_L6,2021.2.3,Win32,59.99520038,,,,,,,,,,,,0.818,1,,,,,,,,,,,,,,,,,,,,,,,,0.035435459,-0.390690717,0,0,0,,,,,,,POSTER,HB,m,y,./images/POSTERHB.png,,,,,,,m,1,0.818,,,,,,,,0,32,32,53,1
,,,,,,,,,,,,,,,,,199198,18,2022-01-28_19h37.47.336,lexical_decision_task_DD_L6,2021.2.3,Win32,59.99520038,,,,,,,,,,,,0.8072,0,,,,,,,,,,,,,,,,,,,,,,,,0.035435459,-0.390690717,0,0,0,,,,,,,HOCKEY,HB,m,y,./images/HOCKEYHB.png,,,,,,,z,0,0.8072,,,,,,,,0,33,33,32,1
,,,,,,,,,,,,,,,,,199198,18,2022-01-28_19h37.47.336,lexical_decision_task_DD_L6,2021.2.3,Win32,59.99520038,,,,,,,,,,,,1.5671,0,,,,,,,,,,,,,,,,,,,,,,,,0.035435459,-0.390690717,0,0,0,,,,,,,MUSCLE,C,z,y,./images/MUSCLE.png,,,,,,,m,0,1.5671,,,,,,,,0,34,34,88,1
,,,,,,,,,,,,,,,,,199198,18,2022-01-28_19h37.47.336,lexical_decision_task_DD_L6,2021.2.3,Win32,59.99520038,,,,,,,,,,,,1.1268,0,,,,,,,,,,,,,,,,,,,,,,,,0.035435459,-0.390690717,0,0,0,,,,,,,CRUST,C,z,y,./images/CRUST.png,,,,,,,m,0,1.1268,,,,,,,,0,35,35,163,1
,,,,,,,,,,,,,,,,,199198,18,2022-01-28_19h37.47.336,lexical_decision_task_DD_L6,2021.2.3,Win32,59.99520038,,,,,,,,,,,,0.6727,1,,,,,,,,,,,,,,,,,,,,,,,,0.035435459,-0.390690717,0,0,0,,,,,,,FERRY,LB,m,y,./images/FERRYLB.png,,,,,,,m,1,0.6727,,,,,,,,0,36,36,57,1
,,,,,,,,,,,,,,,,,199198,18,2022-01-28_19h37.47.336,lexical_decision_task_DD_L6,2021.2.3,Win32,59.99520038,,,,,,,,,,,,0.9506,1,,,,,,,,,,,,,,,,,,,,,,,,0.035435459,-0.390690717,0,0,0,,,,,,,TULIP,HB,z,y,./images/TULIPHB.png,,,,,,,z,1,0.9506,,,,,,,,0,37,37,92,1
,,,,,,,,,,,,,,,,,199198,18,2022-01-28_19h37.47.336,lexical_decision_task_DD_L6,2021.2.3,Win32,59.99520038,,,,,,,,,,,,1.1008,1,,,,,,,,,,,,,,,,,,,,,,,,0.035435459,-0.390690717,0,0,0,,,,,,,BIRTH,C,z,y,./images/BIRTH.png,,,,,,,z,1,1.1008,,,,,,,,0,38,38,121,1
,,,,,,,,,,,,,,,,,199198,18,2022-01-28_19h37.47.336,lexical_decision_task_DD_L6,2021.2.3,Win32,59.99520038,,,,,,,,,,,,0.9837,1,,,,,,,,,,,,,,,,,,,,,,,,0.035435459,-0.390690717,0,0,0,,,,,,,PEARL,C,z,y,./images/PEARL.png,,,,,,,z,1,0.9837,,,,,,,,0,39,39,130,1
,,,,,,,,,,,,,,,,,199198,18,2022-01-28_19h37.47.336,lexical_decision_task_DD_L6,2021.2.3,Win32,59.99520038,,,,,,,,,,,,0.9096,1,,,,,,,,,,,,,,,,,,,,,,,,0.035435459,-0.390690717,0,0,0,,,,,,,PISTOL,HB,m,y,./images/PISTOLHB.png,,,,,,,m,1,0.9096,,,,,,,,0,40,40,29,1
,,,,,,,,,,,,,,,,,199198,18,2022-01-28_19h37.47.336,lexical_decision_task_DD_L6,2021.2.3,Win32,59.99520038,,,,,,,,,,,,2.0841,0,,,,,,,,,,,,,,,,,,,,,,,,-0.095238072,0.49131039,0,0,0,space,,,,,,BRUSH,HB,m,y,./images/BRUSHHB.png,249.7011,,,,,,z,0,2.0841,,,,,,,,0,41,41,59,1
,,,,,,,,,,,,,,,,,199198,18,2022-01-28_19h37.47.336,lexical_decision_task_DD_L6,2021.2.3,Win32,59.99520038,,,,,,,,,,,,1.0446,0,,,,,,,,,,,,,,,,,,,,,,,,-0.095238072,0.49131039,0,0,0,,,,,,,COUCH,HB,z,y,./images/COUCHHB.png,,,,,,,m,0,1.0446,,,,,,,,0,42,42,161,1
,,,,,,,,,,,,,,,,,199198,18,2022-01-28_19h37.47.336,lexical_decision_task_DD_L6,2021.2.3,Win32,59.99520038,,,,,,,,,,,,0.6753,0,,,,,,,,,,,,,,,,,,,,,,,,-0.095238072,0.49131039,0,0,0,,,,,,,PEACH,HB,z,y,./images/PEACHHB.png,,,,,,,m,0,0.6753,,,,,,,,0,43,43,119,1
,,,,,,,,,,,,,,,,,199198,18,2022-01-28_19h37.47.336,lexical_decision_task_DD_L6,2021.2.3,Win32,59.99520038,,,,,,,,,,,,0.9853,1,,,,,,,,,,,,,,,,,,,,,,,,-0.095238072,0.49131039,0,0,0,,,,,,,SMOKER,HB,z,y,./images/SMOKERHB.png,,,,,,,z,1,0.9853,,,,,,,,0,44,44,110,1
,,,,,,,,,,,,,,,,,199198,18,2022-01-28_19h37.47.336,lexical_decision_task_DD_L6,2021.2.3,Win32,59.99520038,,,,,,,,,,,,0.8504,1,,,,,,,,,,,,,,,,,,,,,,,,-0.095238072,0.49131039,0,0,0,,,,,,,KITTEN,LB,z,y,./images/KITTENLB.png,,,,,,,z,1,0.8504,,,,,,,,0,45,45,129,1
,,,,,,,,,,,,,,,,,199198,18,2022-01-28_19h37.47.336,lexical_decision_task_DD_L6,2021.2.3,Win32,59.99520038,,,,,,,,,,,,1.3855,1,,,,,,,,,,,,,,,,,,,,,,,,-0.095238072,0.49131039,0,0,0,,,,,,,SHORE,LB,z,y,./images/SHORELB.png,,,,,,,z,1,1.3855,,,,,,,,0,46,46,96,1
,,,,,,,,,,,,,,,,,199198,18,2022-01-28_19h37.47.336,lexical_decision_task_DD_L6,2021.2.3,Win32,59.99520038,,,,,,,,,,,,0.8506,1,,,,,,,,,,,,,,,,,,,,,,,,-0.095238072,0.49131039,0,0,0,,,,,,,BRIDE,C,m,y,./images/BRIDE.png,,,,,,,m,1,0.8506,,,,,,,,0,47,47,64,1
,,,,,,,,,,,,,,,,,199198,18,2022-01-28_19h37.47.336,lexical_decision_task_DD_L6,2021.2.3,Win32,59.99520038,,,,,,,,,,,,1.0431,0,,,,,,,,,,,,,,,,,,,,,,,,-0.095238072,0.49131039,0,0,0,,,,,,,WALRUS,HB,z,y,./images/WALRUSHB.png,,,,,,,m,0,1.0431,,,,,,,,0,48,48,107,1
,,,,,,,,,,,,,,,,,199198,18,2022-01-28_19h37.47.336,lexical_decision_task_DD_L6,2021.2.3,Win32,59.99520038,,,,,,,,,,,,1.2104,1,,,,,,,,,,,,,,,,,,,,,,,,-0.095238072,0.49131039,0,0,0,,,,,,,STOVE,HB,m,y,./images/STOVEHB.png,,,,,,,m,1,1.2104,,,,,,,,0,49,49,2,1
,,,,,,,,,,,,,,,,,199198,18,2022-01-28_19h37.47.336,lexical_decision_task_DD_L6,2021.2.3,Win32,59.99520038,,,,,,,,,,,,0.8675,1,,,,,,,,,,,,,,,,,,,,,,,,-0.095238072,0.49131039,0,0,0,,,,,,,SUNSET,C,z,y,./images/SUNSET.png,,,,,,,z,1,0.8675,,,,,,,,0,50,50,166,1
,,,,,,,,,,,,,,,,,199198,18,2022-01-28_19h37.47.336,lexical_decision_task_DD_L6,2021.2.3,Win32,59.99520038,,,,,,,,,,,,1.0091,1,,,,,,,,,,,,,,,,,,,,,,,,-0.095238072,0.49131039,0,0,0,,,,,,,STORM,LB,z,y,./images/STORMLB.png,,,,,,,z,1,1.0091,,,,,,,,0,51,51,114,1
,,,,,,,,,,,,,,,,,199198,18,2022-01-28_19h37.47.336,lexical_decision_task_DD_L6,2021.2.3,Win32,59.99520038,,,,,,,,,,,,0.6999,1,,,,,,,,,,,,,,,,,,,,,,,,-0.095238072,0.49131039,0,0,0,,,,,,,WHEEL,HB,m,y,./images/WHEELHB.png,,,,,,,m,1,0.6999,,,,,,,,0,52,52,77,1
,,,,,,,,,,,,,,,,,199198,18,2022-01-28_19h37.47.336,lexical_decision_task_DD_L6,2021.2.3,Win32,59.99520038,,,,,,,,,,,,0.789,1,,,,,,,,,,,,,,,,,,,,,,,,-0.095238072,0.49131039,0,0,0,,,,,,,CHALK,C,m,y,./images/CHALK.png,,,,,,,m,1,0.789,,,,,,,,0,53,53,25,1
,,,,,,,,,,,,,,,,,199198,18,2022-01-28_19h37.47.336,lexical_decision_task_DD_L6,2021.2.3,Win32,59.99520038,,,,,,,,,,,,0.6835,1,,,,,,,,,,,,,,,,,,,,,,,,-0.095238072,0.49131039,0,0,0,,,,,,,POKER,C,m,y,./images/POKER.png,,,,,,,m,1,0.6835,,,,,,,,0,54,54,67,1
,,,,,,,,,,,,,,,,,199198,18,2022-01-28_19h37.47.336,lexical_decision_task_DD_L6,2021.2.3,Win32,59.99520038,,,,,,,,,,,,0.8836,0,,,,,,,,,,,,,,,,,,,,,,,,-0.095238072,0.49131039,0,0,0,,,,,,,SCREW,LB,z,y,./images/SCREWLB.png,,,,,,,m,0,0.8836,,,,,,,,0,55,55,108,1
,,,,,,,,,,,,,,,,,199198,18,2022-01-28_19h37.47.336,lexical_decision_task_DD_L6,2021.2.3,Win32,59.99520038,,,,,,,,,,,,0.8905,1,,,,,,,,,,,,,,,,,,,,,,,,-0.095238072,0.49131039,0,0,0,,,,,,,FENCE,HB,m,y,./images/FENCEHB.png,,,,,,,m,1,0.8905,,,,,,,,0,56,56,14,1
,,,,,,,,,,,,,,,,,199198,18,2022-01-28_19h37.47.336,lexical_decision_task_DD_L6,2021.2.3,Win32,59.99520038,,,,,,,,,,,,0.8277,0,,,,,,,,,,,,,,,,,,,,,,,,-0.095238072,0.49131039,0,0,0,,,,,,,SPORT,LB,z,y,./images/SPORTLB.png,,,,,,,m,0,0.8277,,,,,,,,0,57,57,132,1
,,,,,,,,,,,,,,,,,199198,18,2022-01-28_19h37.47.336,lexical_decision_task_DD_L6,2021.2.3,Win32,59.99520038,,,,,,,,,,,,0.9171,1,,,,,,,,,,,,,,,,,,,,,,,,-0.095238072,0.49131039,0,0,0,,,,,,,DESERT,C,m,y,./images/DESERT.png,,,,,,,m,1,0.9171,,,,,,,,0,58,58,52,1
,,,,,,,,,,,,,,,,,199198,18,2022-01-28_19h37.47.336,lexical_decision_task_DD_L6,2021.2.3,Win32,59.99520038,,,,,,,,,,,,0.8391,1,,,,,,,,,,,,,,,,,,,,,,,,-0.095238072,0.49131039,0,0,0,,,,,,,JUMPER,HB,m,y,./images/JUMPERHB.png,,,,,,,m,1,0.8391,,,,,,,,0,59,59,74,1
,,,,,,,,,,,,,,,,,199198,18,2022-01-28_19h37.47.336,lexical_decision_task_DD_L6,2021.2.3,Win32,59.99520038,,,,,,,,,,,,0.7228,1,,,,,,,,,,,,,,,,,,,,,,,,-0.095238072,0.49131039,0,0,0,,,,,,,CRATER,LB,m,y,./images/CRATERLB.png,,,,,,,m,1,0.7228,,,,,,,,0,60,60,3,1
,,,,,,,,,,,,,,,,,199198,18,2022-01-28_19h37.47.336,lexical_decision_task_DD_L6,2021.2.3,Win32,59.99520038,,,,,,,,,,,,0.6503,1,,,,,,,,,,,,,,,,,,,,,,,,-0.095238072,0.49131039,0,0,0,,,,,,,CHAIN,LB,m,y,./images/CHAINLB.png,,,,,,,m,1,0.6503,,,,,,,,0,61,61,42,1
,,,,,,,,,,,,,,,,,199198,18,2022-01-28_19h37.47.336,lexical_decision_task_DD_L6,2021.2.3,Win32,59.99520038,,,,,,,,,,,,1.0663,1,,,,,,,,,,,,,,,,,,,,,,,,-0.095238072,0.49131039,0,0,0,,,,,,,CANYON,C,z,y,./images/CANYON.png,,,,,,,z,1,1.0663,,,,,,,,0,62,62,118,1
,,,,,,,,,,,,,,,,,199198,18,2022-01-28_19h37.47.336,lexical_decision_task_DD_L6,2021.2.3,Win32,59.99520038,,,,,,,,,,,,0.7262,1,,,,,,,,,,,,,,,,,,,,,,,,-0.095238072,0.49131039,0,0,0,,,,,,,BLOKE,LB,m,y,./images/BLOKELB.png,,,,,,,m,1,0.7262,,,,,,,,0,63,63,12,1
,,,,,,,,,,,,,,,,,199198,18,2022-01-28_19h37.47.336,lexical_decision_task_DD_L6,2021.2.3,Win32,59.99520038,,,,,,,,,,,,0.7398,1,,,,,,,,,,,,,,,,,,,,,,,,-0.095238072,0.49131039,0,0,0,,,,,,,SPINE,HB,m,y,./images/SPINEHB.png,,,,,,,m,1,0.7398,,,,,,,,0,64,64,65,1
,,,,,,,,,,,,,,,,,199198,18,2022-01-28_19h37.47.336,lexical_decision_task_DD_L6,2021.2.3,Win32,59.99520038,,,,,,,,,,,,1.1235,1,,,,,,,,,,,,,,,,,,,,,,,,-0.095238072,0.49131039,0,0,0,,,,,,,ARTIST,C,m,y,./images/ARTIST.png,,,,,,,m,1,1.1235,,,,,,,,0,65,65,61,1
,,,,,,,,,,,,,,,,,199198,18,2022-01-28_19h37.47.336,lexical_decision_task_DD_L6,2021.2.3,Win32,59.99520038,,,,,,,,,,,,0.7192,1,,,,,,,,,,,,,,,,,,,,,,,,-0.095238072,0.49131039,0,0,0,,,,,,,LITTER,LB,z,y,./images/LITTERLB.png,,,,,,,z,1,0.7192,,,,,,,,0,66,66,162,1
,,,,,,,,,,,,,,,,,199198,18,2022-01-28_19h37.47.336,lexical_decision_task_DD_L6,2021.2.3,Win32,59.99520038,,,,,,,,,,,,1.6373,1,,,,,,,,,,,,,,,,,,,,,,,,-0.095238072,0.49131039,0,0,0,,,,,,,MAGGOT,LB,z,y,./images/MAGGOTLB.png,,,,,,,z,1,1.6373,,,,,,,,0,67,67,117,1
,,,,,,,,,,,,,,,,,199198,18,2022-01-28_19h37.47.336,lexical_decision_task_DD_L6,2021.2.3,Win32,59.99520038,,,,,,,,,,,,0.6761,1,,,,,,,,,,,,,,,,,,,,,,,,-0.095238072,0.49131039,0,0,0,,,,,,,CURRY,LB,m,y,./images/CURRYLB.png,,,,,,,m,1,0.6761,,,,,,,,0,68,68,60,1
,,,,,,,,,,,,,,,,,199198,18,2022-01-28_19h37.47.336,lexical_decision_task_DD_L6,2021.2.3,Win32,59.99520038,,,,,,,,,,,,1.0036,1,,,,,,,,,,,,,,,,,,,,,,,,-0.095238072,0.49131039,0,0,0,,,,,,,DRUMS,C,z,y,./images/DRUMS.png,,,,,,,z,1,1.0036,,,,,,,,0,69,69,133,1
,,,,,,,,,,,,,,,,,199198,18,2022-01-28_19h37.47.336,lexical_decision_task_DD_L6,2021.2.3,Win32,59.99520038,,,,,,,,,,,,0.7502,1,,,,,,,,,,,,,,,,,,,,,,,,-0.095238072,0.49131039,0,0,0,,,,,,,MAMMAL,HB,m,y,./images/MAMMALHB.png,,,,,,,m,1,0.7502,,,,,,,,0,70,70,62,1
,,,,,,,,,,,,,,,,,199198,18,2022-01-28_19h37.47.336,lexical_decision_task_DD_L6,2021.2.3,Win32,59.99520038,,,,,,,,,,,,1.027,1,,,,,,,,,,,,,,,,,,,,,,,,-0.095238072,0.49131039,0,0,0,,,,,,,MOTOR,C,z,y,./images/MOTOR.png,,,,,,,z,1,1.027,,,,,,,,0,71,71,97,1
,,,,,,,,,,,,,,,,,199198,18,2022-01-28_19h37.47.336,lexical_decision_task_DD_L6,2021.2.3,Win32,59.99520038,,,,,,,,,,,,0.7686,1,,,,,,,,,,,,,,,,,,,,,,,,-0.095238072,0.49131039,0,0,0,,,,,,,CHERRY,LB,m,y,./images/CHERRYLB.png,,,,,,,m,1,0.7686,,,,,,,,0,72,72,54,1
,,,,,,,,,,,,,,,,,199198,18,2022-01-28_19h37.47.336,lexical_decision_task_DD_L6,2021.2.3,Win32,59.99520038,,,,,,,,,,,,1.1352,1,,,,,,,,,,,,,,,,,,,,,,,,-0.095238072,0.49131039,0,0,0,,,,,,,CANOE,C,m,y,./images/CANOE.png,,,,,,,m,1,1.1352,,,,,,,,0,73,73,58,1
,,,,,,,,,,,,,,,,,199198,18,2022-01-28_19h37.47.336,lexical_decision_task_DD_L6,2021.2.3,Win32,59.99520038,,,,,,,,,,,,0.6336,1,,,,,,,,,,,,,,,,,,,,,,,,-0.095238072,0.49131039,0,0,0,,,,,,,MONKEY,LB,m,y,./images/MONKEYLB.png,,,,,,,m,1,0.6336,,,,,,,,0,74,74,45,1
,,,,,,,,,,,,,,,,,199198,18,2022-01-28_19h37.47.336,lexical_decision_task_DD_L6,2021.2.3,Win32,59.99520038,,,,,,,,,,,,0.718,1,,,,,,,,,,,,,,,,,,,,,,,,-0.095238072,0.49131039,0,0,0,,,,,,,PLANET,HB,m,y,./images/PLANETHB.png,,,,,,,m,1,0.718,,,,,,,,0,75,75,80,1
,,,,,,,,,,,,,,,,,199198,18,2022-01-28_19h37.47.336,lexical_decision_task_DD_L6,2021.2.3,Win32,59.99520038,,,,,,,,,,,,1.1668,1,,,,,,,,,,,,,,,,,,,,,,,,-0.095238072,0.49131039,0,0,0,,,,,,,PICKLE,HB,z,y,./images/PICKLEHB.png,,,,,,,z,1,1.1668,,,,,,,,0,76,76,98,1
,,,,,,,,,,,,,,,,,199198,18,2022-01-28_19h37.47.336,lexical_decision_task_DD_L6,2021.2.3,Win32,59.99520038,,,,,,,,,,,,0.6675,1,,,,,,,,,,,,,,,,,,,,,,,,-0.095238072,0.49131039,0,0,0,,,,,,,STAIN,LB,m,y,./images/STAINLB.png,,,,,,,m,1,0.6675,,,,,,,,0,77,77,6,1
,,,,,,,,,,,,,,,,,199198,18,2022-01-28_19h37.47.336,lexical_decision_task_DD_L6,2021.2.3,Win32,59.99520038,,,,,,,,,,,,1.224,0,,,,,,,,,,,,,,,,,,,,,,,,-0.095238072,0.49131039,0,0,0,,,,,,,WRIST,C,z,y,./images/WRIST.png,,,,,,,m,0,1.224,,,,,,,,0,78,78,109,1
,,,,,,,,,,,,,,,,,199198,18,2022-01-28_19h37.47.336,lexical_decision_task_DD_L6,2021.2.3,Win32,59.99520038,,,,,,,,,,,,0.7509,1,,,,,,,,,,,,,,,,,,,,,,,,-0.095238072,0.49131039,0,0,0,,,,,,,FALCON,C,z,y,./images/FALCON.png,,,,,,,z,1,0.7509,,,,,,,,0,79,79,112,1
,,,,,,,,,,,,,,,,,199198,18,2022-01-28_19h37.47.336,lexical_decision_task_DD_L6,2021.2.3,Win32,59.99520038,,,,,,,,,,,,1.8171,0,,,,,,,,,,,,,,,,,,,,,,,,-0.095238072,0.49131039,0,0,0,,,,,,,SQUARE,LB,z,y,./images/SQUARELB.png,,,,,,,m,0,1.8171,,,,,,,,0,80,80,90,1
,,,,,,,,,,,,,,,,,199198,18,2022-01-28_19h37.47.336,lexical_decision_task_DD_L6,2021.2.3,Win32,59.99520038,,,,,,,,,,,,0.7234,0,,,,,,,,,,,,,,,,,,,,,,,,-0.095238072,0.49131039,0,0,0,,,,,,,JUNGLE,HB,z,y,./images/JUNGLEHB.png,,,,,,,m,0,0.7234,,,,,,,,0,81,81,167,1
,,,,,,,,,,,,,,,,,199198,18,2022-01-28_19h37.47.336,lexical_decision_task_DD_L6,2021.2.3,Win32,59.99520038,,,,,,,,,,,,0.8169,0,,,,,,,,,,,,,,,,,,,,,,,,-0.095238072,0.49131039,0,0,0,,,,,,,BABOON,C,z,y,./images/BABOON.png,,,,,,,m,0,0.8169,,,,,,,,0,82,82,142,1
,,,,,,,,,,,,,,,,,199198,18,2022-01-28_19h37.47.336,lexical_decision_task_DD_L6,2021.2.3,Win32,59.99520038,,,,,,,,,,,,1.3499,0,,,,,,,,,,,,,,,,,,,,,,,,-0.095238072,0.49131039,0,0,0,space,,,,,,LIZARD,HB,z,y,./images/LIZARDHB.png,18.6052,,,,,,m,0,1.3499,,,,,,,,0,83,83,128,1
,,,,,,,,,,,,,,,,,199198,18,2022-01-28_19h37.47.336,lexical_decision_task_DD_L6,2021.2.3,Win32,59.99520038,,,,,,,,,,,,1.0098,1,,,,,,,,,,,,,,,,,,,,,,,,-0.095238072,0.49131039,0,0,0,,,,,,,BASKET,HB,m,y,./images/BASKETHB.png,,,,,,,m,1,1.0098,,,,,,,,0,84,84,44,1
,,,,,,,,,,,,,,,,,199198,18,2022-01-28_19h37.47.336,lexical_decision_task_DD_L6,2021.2.3,Win32,59.99520038,,,,,,,,,,,,1.3186,0,,,,,,,,,,,,,,,,,,,,,,,,-0.095238072,0.49131039,0,0,0,,,,,,,MELON,C,z,y,./images/MELON.png,,,,,,,m,0,1.3186,,,,,,,,0,85,85,106,1
,,,,,,,,,,,,,,,,,199198,18,2022-01-28_19h37.47.336,lexical_decision_task_DD_L6,2021.2.3,Win32,59.99520038,,,,,,,,,,,,0.6201,0,,,,,,,,,,,,,,,,,,,,,,,,-0.095238072,0.49131039,0,0,0,,,,,,,CANDLE,C,z,y,./images/CANDLE.png,,,,,,,m,0,0.6201,,,,,,,,0,86,86,145,1
,,,,,,,,,,,,,,,,,199198,18,2022-01-28_19h37.47.336,lexical_decision_task_DD_L6,2021.2.3,Win32,59.99520038,,,,,,,,,,,,0.6712,0,,,,,,,,,,,,,,,,,,,,,,,,-0.095238072,0.49131039,0,0,0,,,,,,,MUFFIN,C,z,y,./images/MUFFIN.png,,,,,,,m,0,0.6712,,,,,,,,0,87,87,139,1
,,,,,,,,,,,,,,,,,199198,18,2022-01-28_19h37.47.336,lexical_decision_task_DD_L6,2021.2.3,Win32,59.99520038,,,,,,,,,,,,0.6689,0,,,,,,,,,,,,,,,,,,,,,,,,-0.095238072,0.49131039,0,0,0,,,,,,,BURIAL,HB,z,y,./images/BURIALHB.png,,,,,,,m,0,0.6689,,,,,,,,0,88,88,143,1
,,,,,,,,,,,,,,,,,199198,18,2022-01-28_19h37.47.336,lexical_decision_task_DD_L6,2021.2.3,Win32,59.99520038,,,,,,,,,,,,0.6836,1,,,,,,,,,,,,,,,,,,,,,,,,-0.095238072,0.49131039,0,0,0,,,,,,,STATUE,LB,m,y,./images/STATUELB.png,,,,,,,m,1,0.6836,,,,,,,,0,89,89,66,1
,,,,,,,,,,,,,,,,,199198,18,2022-01-28_19h37.47.336,lexical_decision_task_DD_L6,2021.2.3,Win32,59.99520038,,,,,,,,,,,,0.5835,1,,,,,,,,,,,,,,,,,,,,,,,,-0.095238072,0.49131039,0,0,0,,,,,,,SLOPE,LB,m,y,./images/SLOPELB.png,,,,,,,m,1,0.5835,,,,,,,,0,90,90,30,1
,,,,,,,,,,,,,,,,,199198,18,2022-01-28_19h37.47.336,lexical_decision_task_DD_L6,2021.2.3,Win32,59.99520038,,,,,,,,,,,,0.5903,1,,,,,,,,,,,,,,,,,,,,,,,,-0.095238072,0.49131039,0,0,0,,,,,,,FLASK,LB,m,y,./images/FLASKLB.png,,,,,,,m,1,0.5903,,,,,,,,0,91,91,72,1
,,,,,,,,,,,,,,,,,199198,18,2022-01-28_19h37.47.336,lexical_decision_task_DD_L6,2021.2.3,Win32,59.99520038,,,,,,,,,,,,0.5668,1,,,,,,,,,,,,,,,,,,,,,,,,-0.095238072,0.49131039,0,0,0,,,,,,,VALLEY,HB,m,y,./images/VALLEYHB.png,,,,,,,m,1,0.5668,,,,,,,,0,92,92,68,1
,,,,,,,,,,,,,,,,,199198,18,2022-01-28_19h37.47.336,lexical_decision_task_DD_L6,2021.2.3,Win32,59.99520038,,,,,,,,,,,,0.8339,1,,,,,,,,,,,,,,,,,,,,,,,,-0.095238072,0.49131039,0,0,0,,,,,,,DRILL,LB,m,y,./images/DRILLLB.png,,,,,,,m,1,0.8339,,,,,,,,0,93,93,81,1
,,,,,,,,,,,,,,,,,199198,18,2022-01-28_19h37.47.336,lexical_decision_task_DD_L6,2021.2.3,Win32,59.99520038,,,,,,,,,,,,0.6197,0,,,,,,,,,,,,,,,,,,,,,,,,-0.095238072,0.49131039,0,0,0,,,,,,,WEASEL,HB,z,y,./images/WEASELHB.png,,,,,,,m,0,0.6197,,,,,,,,0,94,94,164,1
,,,,,,,,,,,,,,,,,199198,18,2022-01-28_19h37.47.336,lexical_decision_task_DD_L6,2021.2.3,Win32,59.99520038,,,,,,,,,,,,1.1508,0,,,,,,,,,,,,,,,,,,,,,,,,-0.095238072,0.49131039,0,0,0,,,,,,,SWING,C,z,y,./images/SWING.png,,,,,,,m,0,1.1508,,,,,,,,0,95,95,124,1
,,,,,,,,,,,,,,,,,199198,18,2022-01-28_19h37.47.336,lexical_decision_task_DD_L6,2021.2.3,Win32,59.99520038,,,,,,,,,,,,0.6181,1,,,,,,,,,,,,,,,,,,,,,,,,-0.095238072,0.49131039,0,0,0,,,,,,,MALLET,HB,z,y,./images/MALLETHB.png,,,,,,,z,1,0.6181,,,,,,,,0,96,96,134,1
,,,,,,,,,,,,,,,,,199198,18,2022-01-28_19h37.47.336,lexical_decision_task_DD_L6,2021.2.3,Win32,59.99520038,,,,,,,,,,,,0.5796,1,,,,,,,,,,,,,,,,,,,,,,,,-0.095238072,0.49131039,0,0,0,,,,,,,TOWEL,C,m,y,./images/TOWEL.png,,,,,,,m,1,0.5796,,,,,,,,0,97,97,1,1
,,,,,,,,,,,,,,,,,199198,18,2022-01-28_19h37.47.336,lexical_decision_task_DD_L6,2021.2.3,Win32,59.99520038,,,,,,,,,,,,0.5859,1,,,,,,,,,,,,,,,,,,,,,,,,-0.095238072,0.49131039,0,0,0,,,,,,,HEATER,HB,m,y,./images/HEATERHB.png,,,,,,,m,1,0.5859,,,,,,,,0,98,98,56,1
,,,,,,,,,,,,,,,,,199198,18,2022-01-28_19h37.47.336,lexical_decision_task_DD_L6,2021.2.3,Win32,59.99520038,,,,,,,,,,,,0.5001,0,,,,,,,,,,,,,,,,,,,,,,,,-0.095238072,0.49131039,0,0,0,,,,,,,STRING,HB,z,y,./images/STRINGHB.png,,,,,,,m,0,0.5001,,,,,,,,0,99,99,125,1
,,,,,,,,,,,,,,,,,199198,18,2022-01-28_19h37.47.336,lexical_decision_task_DD_L6,2021.2.3,Win32,59.99520038,,,,,,,,,,,,0.5366,1,,,,,,,,,,,,,,,,,,,,,,,,-0.095238072,0.49131039,0,0,0,,,,,,,BUNNY,C,m,y,./images/BUNNY.png,,,,,,,m,1,0.5366,,,,,,,,0,100,100,13,1
,,,,,,,,,,,,,,,,,199198,18,2022-01-28_19h37.47.336,lexical_decision_task_DD_L6,2021.2.3,Win32,59.99520038,,,,,,,,,,,,0.5499,0,,,,,,,,,,,,,,,,,,,,,,,,-0.095238072,0.49131039,0,0,0,,,,,,,KIDNEY,LB,z,y,./images/KIDNEYLB.png,,,,,,,m,0,0.5499,,,,,,,,0,101,101,105,1
,,,,,,,,,,,,,,,,,199198,18,2022-01-28_19h37.47.336,lexical_decision_task_DD_L6,2021.2.3,Win32,59.99520038,,,,,,,,,,,,0.5667,1,,,,,,,,,,,,,,,,,,,,,,,,-0.095238072,0.49131039,0,0,0,,,,,,,SAUCE,LB,m,y,./images/SAUCELB.png,,,,,,,m,1,0.5667,,,,,,,,0,102,102,51,1
,,,,,,,,,,,,,,,,,199198,18,2022-01-28_19h37.47.336,lexical_decision_task_DD_L6,2021.2.3,Win32,59.99520038,,,,,,,,,,,,0.7867,1,,,,,,,,,,,,,,,,,,,,,,,,-0.095238072,0.49131039,0,0,0,,,,,,,CLIFF,HB,m,y,./images/CLIFFHB.png,,,,,,,m,1,0.7867,,,,,,,,0,103,103,8,1
,,,,,,,,,,,,,,,,,199198,18,2022-01-28_19h37.47.336,lexical_decision_task_DD_L6,2021.2.3,Win32,59.99520038,,,,,,,,,,,,0.7252,0,,,,,,,,,,,,,,,,,,,,,,,,-0.095238072,0.49131039,0,0,0,,,,,,,MIRROR,LB,z,y,./images/MIRRORLB.png,,,,,,,m,0,0.7252,,,,,,,,0,104,104,147,1
,,,,,,,,,,,,,,,,,199198,18,2022-01-28_19h37.47.336,lexical_decision_task_DD_L6,2021.2.3,Win32,59.99520038,,,,,,,,,,,,0.3821,1,,,,,,,,,,,,,,,,,,,,,,,,-0.095238072,0.49131039,0,0,0,,,,,,,BOILER,LB,m,y,./images/BOILERLB.png,,,,,,,m,1,0.3821,,,,,,,,0,105,105,36,1
,,,,,,,,,,,,,,,,,199198,18,2022-01-28_19h37.47.336,lexical_decision_task_DD_L6,2021.2.3,Win32,59.99520038,,,,,,,,,,,,0.4988,0,,,,,,,,,,,,,,,,,,,,,,,,-0.095238072,0.49131039,0,0,0,,,,,,,BANNER,C,z,y,./images/BANNER.png,,,,,,,m,0,0.4988,,,,,,,,0,106,106,136,1
,,,,,,,,,,,,,,,,,199198,18,2022-01-28_19h37.47.336,lexical_decision_task_DD_L6,2021.2.3,Win32,59.99520038,,,,,,,,,,,,0.6836,1,,,,,,,,,,,,,,,,,,,,,,,,-0.095238072,0.49131039,0,0,0,,,,,,,LLAMA,HB,m,y,./images/LLAMAHB.png,,,,,,,m,1,0.6836,,,,,,,,0,107,107,35,1
,,,,,,,,,,,,,,,,,199198,18,2022-01-28_19h37.47.336,lexical_decision_task_DD_L6,2021.2.3,Win32,59.99520038,,,,,,,,,,,,0.6994,1,,,,,,,,,,,,,,,,,,,,,,,,-0.095238072,0.49131039,0,0,0,,,,,,,INFANT,C,z,y,./images/INFANT.png,,,,,,,z,1,0.6994,,,,,,,,0,108,108,160,1
,,,,,,,,,,,,,,,,,199198,18,2022-01-28_19h37.47.336,lexical_decision_task_DD_L6,2021.2.3,Win32,59.99520038,,,,,,,,,,,,0.6168,1,,,,,,,,,,,,,,,,,,,,,,,,-0.095238072,0.49131039,0,0,0,,,,,,,NOOSE,LB,z,y,./images/NOOSELB.png,,,,,,,z,1,0.6168,,,,,,,,0,109,109,156,1
,,,,,,,,,,,,,,,,,199198,18,2022-01-28_19h37.47.336,lexical_decision_task_DD_L6,2021.2.3,Win32,59.99520038,,,,,,,,,,,,0.7059,1,,,,,,,,,,,,,,,,,,,,,,,,-0.095238072,0.49131039,0,0,0,,,,,,,PARADE,HB,m,y,./images/PARADEHB.png,,,,,,,m,1,0.7059,,,,,,,,0,110,110,17,1
,,,,,,,,,,,,,,,,,199198,18,2022-01-28_19h37.47.336,lexical_decision_task_DD_L6,2021.2.3,Win32,59.99520038,,,,,,,,,,,,0.6085,1,,,,,,,,,,,,,,,,,,,,,,,,-0.095238072,0.49131039,0,0,0,,,,,,,DIVER,LB,m,y,./images/DIVERLB.png,,,,,,,m,1,0.6085,,,,,,,,0,111,111,9,1
,,,,,,,,,,,,,,,,,199198,18,2022-01-28_19h37.47.336,lexical_decision_task_DD_L6,2021.2.3,Win32,59.99520038,,,,,,,,,,,,0.7335,1,,,,,,,,,,,,,,,,,,,,,,,,-0.095238072,0.49131039,0,0,0,,,,,,,SAUNA,LB,m,y,./images/SAUNALB.png,,,,,,,m,1,0.7335,,,,,,,,0,112,112,33,1
,,,,,,,,,,,,,,,,,199198,18,2022-01-28_19h37.47.336,lexical_decision_task_DD_L6,2021.2.3,Win32,59.99520038,,,,,,,,,,,,0.5837,0,,,,,,,,,,,,,,,,,,,,,,,,-0.095238072,0.49131039,0,0,0,,,,,,,BEARD,HB,z,y,./images/BEARDHB.png,,,,,,,m,0,0.5837,,,,,,,,0,113,113,86,1
,,,,,,,,,,,,,,,,,199198,18,2022-01-28_19h37.47.336,lexical_decision_task_DD_L6,2021.2.3,Win32,59.99520038,,,,,,,,,,,,0.7833,1,,,,,,,,,,,,,,,,,,,,,,,,-0.095238072,0.49131039,0,0,0,,,,,,,QUILL,C,z,y,./images/QUILL.png,,,,,,,z,1,0.7833,,,,,,,,0,114,114,115,1
,,,,,,,,,,,,,,,,,199198,18,2022-01-28_19h37.47.336,lexical_decision_task_DD_L6,2021.2.3,Win32,59.99520038,,,,,,,,,,,,0.6042,1,,,,,,,,,,,,,,,,,,,,,,,,-0.095238072,0.49131039,0,0,0,,,,,,,BISHOP,C,m,y,./images/BISHOP.png,,,,,,,m,1,0.6042,,,,,,,,0,115,115,49,1
,,,,,,,,,,,,,,,,,199198,18,2022-01-28_19h37.47.336,lexical_decision_task_DD_L6,2021.2.3,Win32,59.99520038,,,,,,,,,,,,0.6002,1,,,,,,,,,,,,,,,,,,,,,,,,-0.095238072,0.49131039,0,0,0,,,,,,,CANDY,LB,m,y,./images/CANDYLB.png,,,,,,,m,1,0.6002,,,,,,,,0,116,116,39,1
,,,,,,,,,,,,,,,,,199198,18,2022-01-28_19h37.47.336,lexical_decision_task_DD_L6,2021.2.3,Win32,59.99520038,,,,,,,,,,,,0.5388,1,,,,,,,,,,,,,,,,,,,,,,,,-0.095238072,0.49131039,0,0,0,,,,,,,BOXER,C,m,y,./images/BOXER.png,,,,,,,m,1,0.5388,,,,,,,,0,117,117,4,1
,,,,,,,,,,,,,,,,,199198,18,2022-01-28_19h37.47.336,lexical_decision_task_DD_L6,2021.2.3,Win32,59.99520038,,,,,,,,,,,,0.6057,0,,,,,,,,,,,,,,,,,,,,,,,,-0.095238072,0.49131039,0,0,0,,,,,,,PAINT,C,z,y,./images/PAINT.png,,,,,,,m,0,0.6057,,,,,,,,0,118,118,91,1
,,,,,,,,,,,,,,,,,199198,18,2022-01-28_19h37.47.336,lexical_decision_task_DD_L6,2021.2.3,Win32,59.99520038,,,,,,,,,,,,0.6101,1,,,,,,,,,,,,,,,,,,,,,,,,-0.095238072,0.49131039,0,0,0,,,,,,,COLLAR,LB,m,y,./images/COLLARLB.png,,,,,,,m,1,0.6101,,,,,,,,0,119,119,15,1
,,,,,,,,,,,,,,,,,199198,18,2022-01-28_19h37.47.336,lexical_decision_task_DD_L6,2021.2.3,Win32,59.99520038,,,,,,,,,,,,1.0523,1,,,,,,,,,,,,,,,,,,,,,,,,-0.095238072,0.49131039,0,0,0,,,,,,,ALLEY,C,m,y,./images/ALLEY.png,,,,,,,m,1,1.0523,,,,,,,,0,120,120,55,1
,,,,,,,,,,,,,,,,,199198,18,2022-01-28_19h37.47.336,lexical_decision_task_DD_L6,2021.2.3,Win32,59.99520038,,,,,,,,,,,,0.6668,1,,,,,,,,,,,,,,,,,,,,,,,,-0.095238072,0.49131039,0,0,0,,,,,,,BAKER,LB,m,y,./images/BAKERLB.png,,,,,,,m,1,0.6668,,,,,,,,0,121,121,63,1
,,,,,,,,,,,,,,,,,199198,18,2022-01-28_19h37.47.336,lexical_decision_task_DD_L6,2021.2.3,Win32,59.99520038,,,,,,,,,,,,0.5675,1,,,,,,,,,,,,,,,,,,,,,,,,-0.095238072,0.49131039,0,0,0,,,,,,,BAMBOO,HB,m,y,./images/BAMBOOHB.png,,,,,,,m,1,0.5675,,,,,,,,0,122,122,5,1
,,,,,,,,,,,,,,,,,199198,18,2022-01-28_19h37.47.336,lexical_decision_task_DD_L6,2021.2.3,Win32,59.99520038,,,,,,,,,,,,0.5498,0,,,,,,,,,,,,,,,,,,,,,,,,-0.095238072,0.49131039,0,0,0,,,,,,,ATTIC,LB,z,y,./images/ATTICLB.png,,,,,,,m,0,0.5498,,,,,,,,0,123,123,111,1
,,,,,,,,,,,,,,,,,199198,18,2022-01-28_19h37.47.336,lexical_decision_task_DD_L6,2021.2.3,Win32,59.99520038,,,,,,,,,,,,0.5242,0,,,,,,,,,,,,,,,,,,,,,,,,-0.095238072,0.49131039,0,0,0,,,,,,,COOKER,LB,z,y,./images/COOKERLB.png,,,,,,,m,0,0.5242,,,,,,,,0,124,124,153,1
,,,,,,,,,,,,,,,,,199198,18,2022-01-28_19h37.47.336,lexical_decision_task_DD_L6,2021.2.3,Win32,59.99520038,,,,,,,,,,,,0.6273,0,,,,,,,,,,,,,,,,,,,,,,,,-0.095238072,0.49131039,0,0,0,space,,,,,,DOUGH,C,z,y,./images/DOUGH.png,222.9093,,,,,,m,0,0.6273,,,,,,,,0,125,125,103,1
,,,,,,,,,,,,,,,,,199198,18,2022-01-28_19h37.47.336,lexical_decision_task_DD_L6,2021.2.3,Win32,59.99520038,,,,,,,,,,,,0.6507,0,,,,,,,,,,,,,,,,,,,,,,,,-0.095238072,0.49131039,0,0,0,,,,,,,FINGER,LB,z,y,./images/FINGERLB.png,,,,,,,m,0,0.6507,,,,,,,,0,126,126,87,1
,,,,,,,,,,,,,,,,,199198,18,2022-01-28_19h37.47.336,lexical_decision_task_DD_L6,2021.2.3,Win32,59.99520038,,,,,,,,,,,,0.8002,0,,,,,,,,,,,,,,,,,,,,,,,,-0.095238072,0.49131039,0,0,0,,,,,,,RHINO,LB,z,y,./images/RHINOLB.png,,,,,,,m,0,0.8002,,,,,,,,0,127,127,93,1
,,,,,,,,,,,,,,,,,199198,18,2022-01-28_19h37.47.336,lexical_decision_task_DD_L6,2021.2.3,Win32,59.99520038,,,,,,,,,,,,0.5841,1,,,,,,,,,,,,,,,,,,,,,,,,-0.095238072,0.49131039,0,0,0,,,,,,,PILOT,HB,m,y,./images/PILOTHB.png,,,,,,,m,1,0.5841,,,,,,,,0,128,128,50,1
,,,,,,,,,,,,,,,,,199198,18,2022-01-28_19h37.47.336,lexical_decision_task_DD_L6,2021.2.3,Win32,59.99520038,,,,,,,,,,,,0.8262,1,,,,,,,,,,,,,,,,,,,,,,,,-0.095238072,0.49131039,0,0,0,,,,,,,POODLE,LB,z,y,./images/POODLELB.png,,,,,,,z,1,0.8262,,,,,,,,0,129,129,165,1
,,,,,,,,,,,,,,,,,199198,18,2022-01-28_19h37.47.336,lexical_decision_task_DD_L6,2021.2.3,Win32,59.99520038,,,,,,,,,,,,0.656,0,,,,,,,,,,,,,,,,,,,,,,,,-0.095238072,0.49131039,0,0,0,,,,,,,SAILOR,C,z,y,./images/SAILOR.png,,,,,,,m,0,0.656,,,,,,,,0,130,130,151,1
,,,,,,,,,,,,,,,,,199198,18,2022-01-28_19h37.47.336,lexical_decision_task_DD_L6,2021.2.3,Win32,59.99520038,,,,,,,,,,,,0.9836,1,,,,,,,,,,,,,,,,,,,,,,,,-0.095238072,0.49131039,0,0,0,,,,,,,GRAIN,LB,z,y,./images/GRAINLB.png,,,,,,,z,1,0.9836,,,,,,,,0,131,131,159,1
,,,,,,,,,,,,,,,,,199198,18,2022-01-28_19h37.47.336,lexical_decision_task_DD_L6,2021.2.3,Win32,59.99520038,,,,,,,,,,,,1.3001,1,,,,,,,,,,,,,,,,,,,,,,,,-0.095238072,0.49131039,0,0,0,,,,,,,HAMMER,LB,m,y,./images/HAMMERLB.png,,,,,,,m,1,1.3001,,,,,,,,0,132,132,75,1
,,,,,,,,,,,,,,,,,199198,18,2022-01-28_19h37.47.336,lexical_decision_task_DD_L6,2021.2.3,Win32,59.99520038,,,,,,,,,,,,0.7008,1,,,,,,,,,,,,,,,,,,,,,,,,-0.095238072,0.49131039,0,0,0,,,,,,,STOOL,C,m,y,./images/STOOL.png,,,,,,,m,1,0.7008,,,,,,,,0,133,133,43,1
,,,,,,,,,,,,,,,,,199198,18,2022-01-28_19h37.47.336,lexical_decision_task_DD_L6,2021.2.3,Win32,59.99520038,,,,,,,,,,,,1.5061,0,,,,,,,,,,,,,,,,,,,,,,,,-0.095238072,0.49131039,0,0,0,,,,,,,WALNUT,LB,m,y,./images/WALNUTLB.png,,,,,,,z,0,1.5061,,,,,,,,0,134,134,0,1
,,,,,,,,,,,,,,,,,199198,18,2022-01-28_19h37.47.336,lexical_decision_task_DD_L6,2021.2.3,Win32,59.99520038,,,,,,,,,,,,1.0674,1,,,,,,,,,,,,,,,,,,,,,,,,-0.095238072,0.49131039,0,0,0,,,,,,,ENGINE,HB,m,y,./images/ENGINEHB.png,,,,,,,m,1,1.0674,,,,,,,,0,135,135,38,1
,,,,,,,,,,,,,,,,,199198,18,2022-01-28_19h37.47.336,lexical_decision_task_DD_L6,2021.2.3,Win32,59.99520038,,,,,,,,,,,,0.8724,1,,,,,,,,,,,,,,,,,,,,,,,,-0.095238072,0.49131039,0,0,0,,,,,,,CLOUD,HB,m,y,./images/CLOUDHB.png,,,,,,,m,1,0.8724,,,,,,,,0,136,136,26,1
,,,,,,,,,,,,,,,,,199198,18,2022-01-28_19h37.47.336,lexical_decision_task_DD_L6,2021.2.3,Win32,59.99520038,,,,,,,,,,,,0.9561,0,,,,,,,,,,,,,,,,,,,,,,,,-0.095238072,0.49131039,0,0,0,,,,,,,CEMENT,HB,z,y,./images/CEMENTHB.png,,,,,,,m,0,0.9561,,,,,,,,0,137,137,158,1
,,,,,,,,,,,,,,,,,199198,18,2022-01-28_19h37.47.336,lexical_decision_task_DD_L6,2021.2.3,Win32,59.99520038,,,,,,,,,,,,0.5673,1,,,,,,,,,,,,,,,,,,,,,,,,-0.095238072,0.49131039,0,0,0,,,,,,,BANANA,C,m,y,./images/BANANA.png,,,,,,,m,1,0.5673,,,,,,,,0,138,138,70,1
,,,,,,,,,,,,,,,,,199198,18,2022-01-28_19h37.47.336,lexical_decision_task_DD_L6,2021.2.3,Win32,59.99520038,,,,,,,,,,,,1.0728,0,,,,,,,,,,,,,,,,,,,,,,,,-0.095238072,0.49131039,0,0,0,,,,,,,CARPET,HB,z,y,./images/CARPETHB.png,,,,,,,m,0,1.0728,,,,,,,,0,139,139,137,1
,,,,,,,,,,,,,,,,,199198,18,2022-01-28_19h37.47.336,lexical_decision_task_DD_L6,2021.2.3,Win32,59.99520038,,,,,,,,,,,,1.4509,1,,,,,,,,,,,,,,,,,,,,,,,,-0.095238072,0.49131039,0,0,0,,,,,,,FLESH,LB,m,y,./images/FLESHLB.png,,,,,,,m,1,1.4509,,,,,,,,0,140,140,24,1
,,,,,,,,,,,,,,,,,199198,18,2022-01-28_19h37.47.336,lexical_decision_task_DD_L6,2021.2.3,Win32,59.99520038,,,,,,,,,,,,0.8376,1,,,,,,,,,,,,,,,,,,,,,,,,-0.095238072,0.49131039,0,0,0,,,,,,,GRAPE,C,m,y,./images/GRAPE.png,,,,,,,m,1,0.8376,,,,,,,,0,141,141,16,1
,,,,,,,,,,,,,,,,,199198,18,2022-01-28_19h37.47.336,lexical_decision_task_DD_L6,2021.2.3,Win32,59.99520038,,,,,,,,,,,,0.5338,0,,,,,,,,,,,,,,,,,,,,,,,,-0.095238072,0.49131039,0,0,0,,,,,,,PLANK,C,z,y,./images/PLANK.png,,,,,,,m,0,0.5338,,,,,,,,0,142,142,85,1
,,,,,,,,,,,,,,,,,199198,18,2022-01-28_19h37.47.336,lexical_decision_task_DD_L6,2021.2.3,Win32,59.99520038,,,,,,,,,,,,0.6999,1,,,,,,,,,,,,,,,,,,,,,,,,-0.095238072,0.49131039,0,0,0,,,,,,,URINE,C,z,y,./images/URINE.png,,,,,,,z,1,0.6999,,,,,,,,0,143,143,154,1
,,,,,,,,,,,,,,,,,199198,18,2022-01-28_19h37.47.336,lexical_decision_task_DD_L6,2021.2.3,Win32,59.99520038,,,,,,,,,,,,0.9222,1,,,,,,,,,,,,,,,,,,,,,,,,-0.095238072,0.49131039,0,0,0,,,,,,,MEDAL,HB,m,y,./images/MEDALHB.png,,,,,,,m,1,0.9222,,,,,,,,0,144,144,11,1
,,,,,,,,,,,,,,,,,199198,18,2022-01-28_19h37.47.336,lexical_decision_task_DD_L6,2021.2.3,Win32,59.99520038,,,,,,,,,,,,0.7426,1,,,,,,,,,,,,,,,,,,,,,,,,-0.095238072,0.49131039,0,0,0,,,,,,,RAZOR,C,m,y,./images/RAZOR.png,,,,,,,m,1,0.7426,,,,,,,,0,145,145,34,1
,,,,,,,,,,,,,,,,,199198,18,2022-01-28_19h37.47.336,lexical_decision_task_DD_L6,2021.2.3,Win32,59.99520038,,,,,,,,,,,,1.0337,1,,,,,,,,,,,,,,,,,,,,,,,,-0.095238072,0.49131039,0,0,0,,,,,,,PACKET,HB,z,y,./images/PACKETHB.png,,,,,,,z,1,1.0337,,,,,,,,0,146,146,140,1
,,,,,,,,,,,,,,,,,199198,18,2022-01-28_19h37.47.336,lexical_decision_task_DD_L6,2021.2.3,Win32,59.99520038,,,,,,,,,,,,0.9058,1,,,,,,,,,,,,,,,,,,,,,,,,-0.095238072,0.49131039,0,0,0,,,,,,,TIGER,C,m,y,./images/TIGER.png,,,,,,,m,1,0.9058,,,,,,,,0,147,147,37,1
,,,,,,,,,,,,,,,,,199198,18,2022-01-28_19h37.47.336,lexical_decision_task_DD_L6,2021.2.3,Win32,59.99520038,,,,,,,,,,,,1.1506,1,,,,,,,,,,,,,,,,,,,,,,,,-0.095238072,0.49131039,0,0,0,,,,,,,FOLDER,LB,z,y,./images/FOLDERLB.png,,,,,,,z,1,1.1506,,,,,,,,0,148,148,126,1
,,,,,,,,,,,,,,,,,199198,18,2022-01-28_19h37.47.336,lexical_decision_task_DD_L6,2021.2.3,Win32,59.99520038,,,,,,,,,,,,1.1874,0,,,,,,,,,,,,,,,,,,,,,,,,-0.095238072,0.49131039,0,0,0,,,,,,,TOMATO,LB,z,y,./images/TOMATOLB.png,,,,,,,m,0,1.1874,,,,,,,,0,149,149,84,1
,,,,,,,,,,,,,,,,,199198,18,2022-01-28_19h37.47.336,lexical_decision_task_DD_L6,2021.2.3,Win32,59.99520038,,,,,,,,,,,,1.0519,0,,,,,,,,,,,,,,,,,,,,,,,,-0.095238072,0.49131039,0,0,0,,,,,,,BUTTER,LB,m,y,./images/BUTTERLB.png,,,,,,,z,0,1.0519,,,,,,,,0,150,150,27,1
,,,,,,,,,,,,,,,,,199198,18,2022-01-28_19h37.47.336,lexical_decision_task_DD_L6,2021.2.3,Win32,59.99520038,,,,,,,,,,,,1.1556,1,,,,,,,,,,,,,,,,,,,,,,,,-0.095238072,0.49131039,0,0,0,,,,,,,JAGUAR,LB,z,y,./images/JAGUARLB.png,,,,,,,z,1,1.1556,,,,,,,,0,151,151,102,1
,,,,,,,,,,,,,,,,,199198,18,2022-01-28_19h37.47.336,lexical_decision_task_DD_L6,2021.2.3,Win32,59.99520038,,,,,,,,,,,,0.8335,1,,,,,,,,,,,,,,,,,,,,,,,,-0.095238072,0.49131039,0,0,0,,,,,,,BARREL,HB,z,y,./images/BARRELHB.png,,,,,,,z,1,0.8335,,,,,,,,0,152,152,116,1
,,,,,,,,,,,,,,,,,199198,18,2022-01-28_19h37.47.336,lexical_decision_task_DD_L6,2021.2.3,Win32,59.99520038,,,,,,,,,,,,0.9666,0,,,,,,,,,,,,,,,,,,,,,,,,-0.095238072,0.49131039,0,0,0,,,,,,,CRADLE,HB,z,y,./images/CRADLEHB.png,,,,,,,m,0,0.9666,,,,,,,,0,153,153,104,1
,,,,,,,,,,,,,,,,,199198,18,2022-01-28_19h37.47.336,lexical_decision_task_DD_L6,2021.2.3,Win32,59.99520038,,,,,,,,,,,,0.8237,1,,,,,,,,,,,,,,,,,,,,,,,,-0.095238072,0.49131039,0,0,0,,,,,,,GARDEN,C,m,y,./images/GARDEN.png,,,,,,,m,1,0.8237,,,,,,,,0,154,154,10,1
,,,,,,,,,,,,,,,,,199198,18,2022-01-28_19h37.47.336,lexical_decision_task_DD_L6,2021.2.3,Win32,59.99520038,,,,,,,,,,,,1.3337,0,,,,,,,,,,,,,,,,,,,,,,,,-0.095238072,0.49131039,0,0,0,,,,,,,CLOWN,C,m,y,./images/CLOWN.png,,,,,,,z,0,1.3337,,,,,,,,0,155,155,22,1
,,,,,,,,,,,,,,,,,199198,18,2022-01-28_19h37.47.336,lexical_decision_task_DD_L6,2021.2.3,Win32,59.99520038,,,,,,,,,,,,0.5899,1,,,,,,,,,,,,,,,,,,,,,,,,-0.095238072,0.49131039,0,0,0,,,,,,,WAGON,C,m,y,./images/WAGON.png,,,,,,,m,1,0.5899,,,,,,,,0,156,156,7,1
,,,,,,,,,,,,,,,,,199198,18,2022-01-28_19h37.47.336,lexical_decision_task_DD_L6,2021.2.3,Win32,59.99520038,,,,,,,,,,,,0.5668,0,,,,,,,,,,,,,,,,,,,,,,,,-0.095238072,0.49131039,0,0,0,,,,,,,BELLY,C,z,y,./images/BELLY.png,,,,,,,m,0,0.5668,,,,,,,,0,157,157,94,1
,,,,,,,,,,,,,,,,,199198,18,2022-01-28_19h37.47.336,lexical_decision_task_DD_L6,2021.2.3,Win32,59.99520038,,,,,,,,,,,,0.8507,0,,,,,,,,,,,,,,,,,,,,,,,,-0.095238072,0.49131039,0,0,0,,,,,,,PEBBLE,C,m,y,./images/PEBBLE.png,,,,,,,z,0,0.8507,,,,,,,,0,158,158,82,1
,,,,,,,,,,,,,,,,,199198,18,2022-01-28_19h37.47.336,lexical_decision_task_DD_L6,2021.2.3,Win32,59.99520038,,,,,,,,,,,,2.4344,1,,,,,,,,,,,,,,,,,,,,,,,,-0.095238072,0.49131039,0,0,0,,,,,,,TORCH,HB,z,y,./images/TORCHHB.png,,,,,,,z,1,2.4344,,,,,,,,0,159,159,152,1
,,,,,,,,,,,,,,,,,199198,18,2022-01-28_19h37.47.336,lexical_decision_task_DD_L6,2021.2.3,Win32,59.99520038,,,,,,,,,,,,1.1668,1,,,,,,,,,,,,,,,,,,,,,,,,-0.095238072,0.49131039,0,0,0,,,,,,,CLOTH,HB,m,y,./images/CLOTHHB.png,,,,,,,m,1,1.1668,,,,,,,,0,160,160,23,1
,,,,,,,,,,,,,,,,,199198,18,2022-01-28_19h37.47.336,lexical_decision_task_DD_L6,2021.2.3,Win32,59.99520038,,,,,,,,,,,,3.7174,1,,,,,,,,,,,,,,,,,,,,,,,,-0.095238072,0.49131039,0,0,0,,,,,,,THROAT,LB,z,y,./images/THROATLB.png,,,,,,,z,1,3.7174,,,,,,,,0,161,161,120,1
,,,,,,,,,,,,,,,,,199198,18,2022-01-28_19h37.47.336,lexical_decision_task_DD_L6,2021.2.3,Win32,59.99520038,,,,,,,,,,,,0.9509,1,,,,,,,,,,,,,,,,,,,,,,,,-0.095238072,0.49131039,0,0,0,,,,,,,PENCE,C,z,y,./images/PENCE.png,,,,,,,z,1,0.9509,,,,,,,,0,162,162,100,1
,,,,,,,,,,,,,,,,,199198,18,2022-01-28_19h37.47.336,lexical_decision_task_DD_L6,2021.2.3,Win32,59.99520038,,,,,,,,,,,,0.8432,1,,,,,,,,,,,,,,,,,,,,,,,,-0.095238072,0.49131039,0,0,0,,,,,,,PIMPLE,HB,z,y,./images/PIMPLEHB.png,,,,,,,z,1,0.8432,,,,,,,,0,163,163,155,1
,,,,,,,,,,,,,,,,,199198,18,2022-01-28_19h37.47.336,lexical_decision_task_DD_L6,2021.2.3,Win32,59.99520038,,,,,,,,,,,,0.7172,1,,,,,,,,,,,,,,,,,,,,,,,,-0.095238072,0.49131039,0,0,0,,,,,,,LAGOON,HB,m,y,./images/LAGOONHB.png,,,,,,,m,1,0.7172,,,,,,,,0,164,164,47,1
,,,,,,,,,,,,,,,,,199198,18,2022-01-28_19h37.47.336,lexical_decision_task_DD_L6,2021.2.3,Win32,59.99520038,,,,,,,,,,,,0.764,0,,,,,,,,,,,,,,,,,,,,,,,,-0.095238072,0.49131039,0,0,0,,,,,,,BONNET,HB,z,y,./images/BONNETHB.png,,,,,,,m,0,0.764,,,,,,,,0,165,165,95,1
,,,,,,,,,,,,,,,,,199198,18,2022-01-28_19h37.47.336,lexical_decision_task_DD_L6,2021.2.3,Win32,59.99520038,,,,,,,,,,,,0.7505,1,,,,,,,,,,,,,,,,,,,,,,,,-0.095238072,0.49131039,0,0,0,,,,,,,PARCEL,LB,m,y,./images/PARCELLB.png,,,,,,,m,1,0.7505,,,,,,,,0,166,166,18,1
,,,,,,,,,,,,,,,,,199198,18,2022-01-28_19h37.47.336,lexical_decision_task_DD_L6,2021.2.3,Win32,59.99520038,,,,,,,,,,,,0.8168,0,,,,,,,,,,,,,,,,,,,,,,,,-0.095238072,0.49131039,0,0,0,,,,,,,BERRY,HB,z,y,./images/BERRYHB.png,,,,,,,m,0,0.8168,,,,,,,,0,167,167,131,1
