key_resp.keys,instr_done_touch.x,instr_done_touch.y,instr_done_touch.leftButton,instr_done_touch.midButton,instr_done_touch.rightButton,instr_done_touch.clicked_name,instruction_pages.thisRepN,instruction_pages.thisTrialN,instruction_pages.thisN,instruction_pages.thisIndex,instruction_pages.ran,pageN,phase,instruct_text,has_image,instruct_image,participant,age,date,expName,psychopyVersion,OS,frameRate,response.keys,response.corr,response.rt,touch_resp.x,touch_resp.y,touch_resp.leftButton,touch_resp.midButton,touch_resp.rightButton,touch_resp.time,touch_resp.clicked_name,rt,corr,practrials.thisRepN,practrials.thisTrialN,practrials.thisN,practrials.thisIndex,practrials.ran,TrialID,Target,corrAns,end_of_practice_trials_pages.thisRepN,end_of_practice_trials_pages.thisTrialN,end_of_practice_trials_pages.thisN,end_of_practice_trials_pages.thisIndex,end_of_practice_trials_pages.ran,key_resp_2.keys,key_resp_2.corr,key_resp_2.rt,targ_click.x,targ_click.y,targ_click.leftButton,targ_click.midButton,targ_click.rightButton,targ_click.time,targ_click.clicked_name,break_done_touch.x,break_done_touch.y,break_done_touch.leftButton,break_done_touch.midButton,break_done_touch.rightButton,break_done_keyboard.keys,maintrials.thisRepN,maintrials.thisTrialN,maintrials.thisN,maintrials.thisIndex,maintrials.ran,string,blur,study,lex,stim_path,break_done_keyboard.rt,test_instructions.thisRepN,test_instructions.thisTrialN,test_instructions.thisN,test_instructions.thisIndex,test_instructions.ran,key_resp.rt,key_resp_3.keys,key_resp_3.corr,key_resp_3.rt,test_click.x,test_click.y,test_click.leftButton,test_click.midButton,test_click.rightButton,test_click.time,test_click.clicked_name,test_phase.thisRepN,test_phase.thisTrialN,test_phase.thisN,test_phase.thisIndex,test_phase.ran
,0.058888889,-0.372222222,1,0,0,instr_done_button,0,0,0,0,1,1,instructions,"INSTRUCTIONS
At the start of each trial, look at the plus sign  (+) in the center of the screen.  This tells you that a trial is about to begin and where to look. Second, the plus sign will disappear and a string of letters will appear. Your task is to determine if the string of letters is a word or not. If the item is a word press the M key (on keyboard)  or touch the word button (phone/tablet).  If the item is not a word,  press the  Z key (on keyboard)  or touch the nonword button (on phone/tablet). 
Press the space bar or touch  continue.",0,,199150,19,2022-01-29_15h45.13.800,lexical_decision_task_DD,2021.2.3,MacIntel,62.5,,,,,,,,,,,,,,,,,,,,,,,,,,,,,,,,,,,,,,,,,,,,,,,,,,,,,,,,,,,,,,,,,,,,,,,,,
,0.055555556,-0.387777778,1,0,0,instr_done_button,0,1,1,1,1,2,instructions,"If your device has a keyboard, press the 'Z' key for nonwords and the 'M' key for words.





Press the space bar or touch the button below to continue.",0,keyboard-example.gif,199150,19,2022-01-29_15h45.13.800,lexical_decision_task_DD,2021.2.3,MacIntel,62.5,,,,,,,,,,,,,,,,,,,,,,,,,,,,,,,,,,,,,,,,,,,,,,,,,,,,,,,,,,,,,,,,,,,,,,,,,
,0.055555556,-0.388888889,1,0,0,instr_done_button,0,2,2,2,1,3,instructions,"If you are using a touchscreen only device, use the buttons on the screen. Do not use the mouse.





Press the space bar or touch the button below to continue.",0,touchscreen-example.gif,199150,19,2022-01-29_15h45.13.800,lexical_decision_task_DD,2021.2.3,MacIntel,62.5,,,,,,,,,,,,,,,,,,,,,,,,,,,,,,,,,,,,,,,,,,,,,,,,,,,,,,,,,,,,,,,,,,,,,,,,,
,0.055555556,-0.388888889,1,0,0,instr_done_button,0,3,3,3,1,4,instructions,"It is very important that you respond as quickly and accurately as possible, as each letter string will only be on the screen for two seconds. If you do not respond within this time, the message 'Too slow!' will be displayed and the experiment will progress to the next letter string. The first 20 trials will be practice trials and you will receive feedback on your answers. 

Press the space bar or touch the button below to start the practice trials.",0,,199150,19,2022-01-29_15h45.13.800,lexical_decision_task_DD,2021.2.3,MacIntel,62.5,,,,,,,,,,,,,,,,,,,,,,,,,,,,,,,,,,,,,,,,,,,,,,,,,,,,,,,,,,,,,,,,,,,,,,,,,
,,,,,,,,,,,,,,,,,199150,19,2022-01-29_15h45.13.800,lexical_decision_task_DD,2021.2.3,MacIntel,62.5,m,1,2.827,,,,,,,,2.827,1,0,0,0,0,1,1001,UTOPIA,m,,,,,,,,,,,,,,,,,,,,,,,,,,,,,,,,,,,,,,,,,,,,,,,,,,,,,
,,,,,,,,,,,,,,,,,199150,19,2022-01-29_15h45.13.800,lexical_decision_task_DD,2021.2.3,MacIntel,62.5,z,1,2.078,,,,,,,,2.078,1,0,1,1,11,1,1001,RASHET,z,,,,,,,,,,,,,,,,,,,,,,,,,,,,,,,,,,,,,,,,,,,,,,,,,,,,,
,,,,,,,,,,,,,,,,,199150,19,2022-01-29_15h45.13.800,lexical_decision_task_DD,2021.2.3,MacIntel,62.5,z,1,1.077,,,,,,,,1.077,1,0,2,2,15,1,1001,WHAISE,z,,,,,,,,,,,,,,,,,,,,,,,,,,,,,,,,,,,,,,,,,,,,,,,,,,,,,
,,,,,,,,,,,,,,,,,199150,19,2022-01-29_15h45.13.800,lexical_decision_task_DD,2021.2.3,MacIntel,62.5,z,1,1.312,,,,,,,,1.312,1,0,3,3,8,1,1001,ASLERT,z,,,,,,,,,,,,,,,,,,,,,,,,,,,,,,,,,,,,,,,,,,,,,,,,,,,,,
,,,,,,,,,,,,,,,,,199150,19,2022-01-29_15h45.13.800,lexical_decision_task_DD,2021.2.3,MacIntel,62.5,m,1,0.642,,,,,,,,0.642,1,0,4,4,3,1,1001,MATRIX,m,,,,,,,,,,,,,,,,,,,,,,,,,,,,,,,,,,,,,,,,,,,,,,,,,,,,,
,,,,,,,,,,,,,,,,,199150,19,2022-01-29_15h45.13.800,lexical_decision_task_DD,2021.2.3,MacIntel,62.5,z,1,0.865,,,,,,,,0.865,1,0,5,5,14,1,1001,THRALE,z,,,,,,,,,,,,,,,,,,,,,,,,,,,,,,,,,,,,,,,,,,,,,,,,,,,,,
,,,,,,,,,,,,,,,,,199150,19,2022-01-29_15h45.13.800,lexical_decision_task_DD,2021.2.3,MacIntel,62.5,m,0,0.881,,,,,,,,0.881,0,0,6,6,13,1,1001,ROUPET,z,,,,,,,,,,,,,,,,,,,,,,,,,,,,,,,,,,,,,,,,,,,,,,,,,,,,,
,,,,,,,,,,,,,,,,,199150,19,2022-01-29_15h45.13.800,lexical_decision_task_DD,2021.2.3,MacIntel,62.5,m,1,0.736,,,,,,,,0.736,1,0,7,7,1,1,1001,ADJUST,m,,,,,,,,,,,,,,,,,,,,,,,,,,,,,,,,,,,,,,,,,,,,,,,,,,,,,
,,,,,,,,,,,,,,,,,199150,19,2022-01-29_15h45.13.800,lexical_decision_task_DD,2021.2.3,MacIntel,62.5,z,1,0.968,,,,,,,,0.968,1,0,8,8,12,1,1001,SPRINY,z,,,,,,,,,,,,,,,,,,,,,,,,,,,,,,,,,,,,,,,,,,,,,,,,,,,,,
,,,,,,,,,,,,,,,,,199150,19,2022-01-29_15h45.13.800,lexical_decision_task_DD,2021.2.3,MacIntel,62.5,m,1,0.643,,,,,,,,0.643,1,0,9,9,4,1,1001,SQUEAK,m,,,,,,,,,,,,,,,,,,,,,,,,,,,,,,,,,,,,,,,,,,,,,,,,,,,,,
,,,,,,,,,,,,,,,,,199150,19,2022-01-29_15h45.13.800,lexical_decision_task_DD,2021.2.3,MacIntel,62.5,z,1,1.152,,,,,,,,1.152,1,0,10,10,9,1,1001,FARINY,z,,,,,,,,,,,,,,,,,,,,,,,,,,,,,,,,,,,,,,,,,,,,,,,,,,,,,
,,,,,,,,,,,,,,,,,199150,19,2022-01-29_15h45.13.800,lexical_decision_task_DD,2021.2.3,MacIntel,62.5,m,1,0.731,,,,,,,,0.731,1,0,11,11,6,1,1001,ZOMBIE,m,,,,,,,,,,,,,,,,,,,,,,,,,,,,,,,,,,,,,,,,,,,,,,,,,,,,,
,,,,,,,,,,,,,,,,,199150,19,2022-01-29_15h45.13.800,lexical_decision_task_DD,2021.2.3,MacIntel,62.5,m,1,0.627,,,,,,,,0.627,1,0,12,12,7,1,1001,VOLUME,m,,,,,,,,,,,,,,,,,,,,,,,,,,,,,,,,,,,,,,,,,,,,,,,,,,,,,
,,,,,,,,,,,,,,,,,199150,19,2022-01-29_15h45.13.800,lexical_decision_task_DD,2021.2.3,MacIntel,62.5,m,1,0.851,,,,,,,,0.851,1,0,13,13,2,1,1001,ALMOND,m,,,,,,,,,,,,,,,,,,,,,,,,,,,,,,,,,,,,,,,,,,,,,,,,,,,,,
,,,,,,,,,,,,,,,,,199150,19,2022-01-29_15h45.13.800,lexical_decision_task_DD,2021.2.3,MacIntel,62.5,m,0,1.066,,,,,,,,1.066,0,0,14,14,10,1,1001,INLADE,z,,,,,,,,,,,,,,,,,,,,,,,,,,,,,,,,,,,,,,,,,,,,,,,,,,,,,
,,,,,,,,,,,,,,,,,199150,19,2022-01-29_15h45.13.800,lexical_decision_task_DD,2021.2.3,MacIntel,62.5,m,1,0.869,,,,,,,,0.869,1,0,15,15,5,1,1001,OBTAIN,m,,,,,,,,,,,,,,,,,,,,,,,,,,,,,,,,,,,,,,,,,,,,,,,,,,,,,
,0.075555556,-0.383333333,1,0,0,instr_done_button,,,,,,1,end_of_practice,"You have completed the practice trials. During the experimental trials, you will not receive feedback. 
Before you begin, please ensure that you are in a comfortable and quiet location and will not be disturbed for about 15 minutes, as we cannot use your data if you do not complete all the trials. 
 When you are ready to start the experimental trials, please press space or touch the button below.",,,199150,19,2022-01-29_15h45.13.800,lexical_decision_task_DD,2021.2.3,MacIntel,62.5,,,,,,,,,,,,,,,,,,,,,0,0,0,0,1,,,,,,,,,,,,,,,,,,,,,,,,,,,,,,,,,,,,,,,,,,,,,,,,
,,,,,,,,,,,,,,,,,199150,19,2022-01-29_15h45.13.800,lexical_decision_task_DD,2021.2.3,MacIntel,62.5,,,,,,,,,,,1.725,0,,,,,,,,,,,,,,m,0,1.725,,,,,,,,0.075555556,-0.382222222,0,0,0,,0,0,0,121,1,CEERS,HB,old,z,./images/CEERSHB.png,,,,,,,,,,,,,,,,,,,,,,
,,,,,,,,,,,,,,,,,199150,19,2022-01-29_15h45.13.800,lexical_decision_task_DD,2021.2.3,MacIntel,62.5,,,,,,,,,,,0.911,1,,,,,,,,,,,,,,z,1,0.911,,,,,,,,0.075555556,-0.382222222,0,0,0,,0,1,1,86,1,AIFED,LB,old,z,./images/AIFEDLB.png,,,,,,,,,,,,,,,,,,,,,,
,,,,,,,,,,,,,,,,,199150,19,2022-01-29_15h45.13.800,lexical_decision_task_DD,2021.2.3,MacIntel,62.5,,,,,,,,,,,0.727,1,,,,,,,,,,,,,,m,1,0.727,,,,,,,,0.075555556,-0.382222222,0,0,0,,0,2,2,3,1,FINGER,C,old,m,./images/FINGER.png,,,,,,,,,,,,,,,,,,,,,,
,,,,,,,,,,,,,,,,,199150,19,2022-01-29_15h45.13.800,lexical_decision_task_DD,2021.2.3,MacIntel,62.5,,,,,,,,,,,1.452,1,,,,,,,,,,,,,,z,1,1.452,,,,,,,,0.075555556,-0.382222222,0,0,0,,0,3,3,136,1,WERVE,HB,old,z,./images/WERVEHB.png,,,,,,,,,,,,,,,,,,,,,,
,,,,,,,,,,,,,,,,,199150,19,2022-01-29_15h45.13.800,lexical_decision_task_DD,2021.2.3,MacIntel,62.5,,,,,,,,,,,0.863,1,,,,,,,,,,,,,,m,1,0.863,,,,,,,,0.075555556,-0.382222222,0,0,0,,0,4,4,76,1,INFANT,HB,old,m,./images/INFANTHB.png,,,,,,,,,,,,,,,,,,,,,,
,,,,,,,,,,,,,,,,,199150,19,2022-01-29_15h45.13.800,lexical_decision_task_DD,2021.2.3,MacIntel,62.5,,,,,,,,,,,1.104,1,,,,,,,,,,,,,,z,1,1.104,,,,,,,,0.075555556,-0.382222222,0,0,0,,0,5,5,124,1,TUNCH,HB,old,z,./images/TUNCHHB.png,,,,,,,,,,,,,,,,,,,,,,
,,,,,,,,,,,,,,,,,199150,19,2022-01-29_15h45.13.800,lexical_decision_task_DD,2021.2.3,MacIntel,62.5,,,,,,,,,,,0.865,1,,,,,,,,,,,,,,m,1,0.865,,,,,,,,0.075555556,-0.382222222,0,0,0,,0,6,6,64,1,JELLY,HB,old,m,./images/JELLYHB.png,,,,,,,,,,,,,,,,,,,,,,
,,,,,,,,,,,,,,,,,199150,19,2022-01-29_15h45.13.800,lexical_decision_task_DD,2021.2.3,MacIntel,62.5,,,,,,,,,,,0.849,1,,,,,,,,,,,,,,m,1,0.849,,,,,,,,0.075555556,-0.382222222,0,0,0,,0,7,7,68,1,TORCH,LB,old,m,./images/TORCHLB.png,,,,,,,,,,,,,,,,,,,,,,
,,,,,,,,,,,,,,,,,199150,19,2022-01-29_15h45.13.800,lexical_decision_task_DD,2021.2.3,MacIntel,62.5,,,,,,,,,,,1.126,1,,,,,,,,,,,,,,z,1,1.126,,,,,,,,0.075555556,-0.382222222,0,0,0,,0,8,8,163,1,GAMBA,HB,old,z,./images/GAMBAHB.png,,,,,,,,,,,,,,,,,,,,,,
,,,,,,,,,,,,,,,,,199150,19,2022-01-29_15h45.13.800,lexical_decision_task_DD,2021.2.3,MacIntel,62.5,,,,,,,,,,,0.913,1,,,,,,,,,,,,,,z,1,0.913,,,,,,,,0.075555556,-0.382222222,0,0,0,,0,9,9,122,1,BLOOT,LB,old,z,./images/BLOOTLB.png,,,,,,,,,,,,,,,,,,,,,,
,,,,,,,,,,,,,,,,,199150,19,2022-01-29_15h45.13.800,lexical_decision_task_DD,2021.2.3,MacIntel,62.5,,,,,,,,,,,0.617,1,,,,,,,,,,,,,,m,1,0.617,,,,,,,,0.075555556,-0.382222222,0,0,0,,0,10,10,30,1,STORM,C,old,m,./images/STORM.png,,,,,,,,,,,,,,,,,,,,,,
,,,,,,,,,,,,,,,,,199150,19,2022-01-29_15h45.13.800,lexical_decision_task_DD,2021.2.3,MacIntel,62.5,,,,,,,,,,,0.779,1,,,,,,,,,,,,,,z,1,0.779,,,,,,,,0.075555556,-0.382222222,0,0,0,,0,11,11,101,1,GLEET,LB,old,z,./images/GLEETLB.png,,,,,,,,,,,,,,,,,,,,,,
,,,,,,,,,,,,,,,,,199150,19,2022-01-29_15h45.13.800,lexical_decision_task_DD,2021.2.3,MacIntel,62.5,,,,,,,,,,,0.58,1,,,,,,,,,,,,,,m,1,0.58,,,,,,,,0.075555556,-0.382222222,0,0,0,,0,12,12,35,1,PEACH,LB,old,m,./images/PEACHLB.png,,,,,,,,,,,,,,,,,,,,,,
,,,,,,,,,,,,,,,,,199150,19,2022-01-29_15h45.13.800,lexical_decision_task_DD,2021.2.3,MacIntel,62.5,,,,,,,,,,,0.702,1,,,,,,,,,,,,,,z,1,0.702,,,,,,,,0.075555556,-0.382222222,0,0,0,,0,13,13,125,1,MOOKY,LB,old,z,./images/MOOKYLB.png,,,,,,,,,,,,,,,,,,,,,,
,,,,,,,,,,,,,,,,,199150,19,2022-01-29_15h45.13.800,lexical_decision_task_DD,2021.2.3,MacIntel,62.5,,,,,,,,,,,1.881,0,,,,,,,,,,,,,,z,0,1.881,,,,,,,,0.075555556,-0.382222222,0,0,0,,0,14,14,31,1,QUILL,HB,old,m,./images/QUILLHB.png,,,,,,,,,,,,,,,,,,,,,,
,,,,,,,,,,,,,,,,,199150,19,2022-01-29_15h45.13.800,lexical_decision_task_DD,2021.2.3,MacIntel,62.5,,,,,,,,,,,0.797,0,,,,,,,,,,,,,,m,0,0.797,,,,,,,,0.075555556,-0.382222222,0,0,0,,0,15,15,166,1,SHORY,HB,old,z,./images/SHORYHB.png,,,,,,,,,,,,,,,,,,,,,,
,,,,,,,,,,,,,,,,,199150,19,2022-01-29_15h45.13.800,lexical_decision_task_DD,2021.2.3,MacIntel,62.5,,,,,,,,,,,1.551,1,,,,,,,,,,,,,,m,1,1.551,,,,,,,,0.075555556,-0.382222222,0,0,0,,0,16,16,66,1,SWEAT,C,old,m,./images/SWEAT.png,,,,,,,,,,,,,,,,,,,,,,
,,,,,,,,,,,,,,,,,199150,19,2022-01-29_15h45.13.800,lexical_decision_task_DD,2021.2.3,MacIntel,62.5,,,,,,,,,,,0.809,1,,,,,,,,,,,,,,m,1,0.809,,,,,,,,0.075555556,-0.382222222,0,0,0,,0,17,17,75,1,GRAIN,C,old,m,./images/GRAIN.png,,,,,,,,,,,,,,,,,,,,,,
,,,,,,,,,,,,,,,,,199150,19,2022-01-29_15h45.13.800,lexical_decision_task_DD,2021.2.3,MacIntel,62.5,,,,,,,,,,,0.666,1,,,,,,,,,,,,,,m,1,0.666,,,,,,,,0.075555556,-0.382222222,0,0,0,,0,18,18,36,1,THROAT,C,old,m,./images/THROAT.png,,,,,,,,,,,,,,,,,,,,,,
,,,,,,,,,,,,,,,,,199150,19,2022-01-29_15h45.13.800,lexical_decision_task_DD,2021.2.3,MacIntel,62.5,,,,,,,,,,,0.914,1,,,,,,,,,,,,,,z,1,0.914,,,,,,,,0.075555556,-0.382222222,0,0,0,,0,19,19,109,1,BURGE,HB,old,z,./images/BURGEHB.png,,,,,,,,,,,,,,,,,,,,,,
,,,,,,,,,,,,,,,,,199150,19,2022-01-29_15h45.13.800,lexical_decision_task_DD,2021.2.3,MacIntel,62.5,,,,,,,,,,,0.739,1,,,,,,,,,,,,,,z,1,0.739,,,,,,,,0.075555556,-0.382222222,0,0,0,,0,20,20,147,1,ZOLES,C,old,z,./images/ZOLES.png,,,,,,,,,,,,,,,,,,,,,,
,,,,,,,,,,,,,,,,,199150,19,2022-01-29_15h45.13.800,lexical_decision_task_DD,2021.2.3,MacIntel,62.5,,,,,,,,,,,0.867,1,,,,,,,,,,,,,,z,1,0.867,,,,,,,,0.075555556,-0.382222222,0,0,0,,0,21,21,133,1,POWDY,HB,old,z,./images/POWDYHB.png,,,,,,,,,,,,,,,,,,,,,,
,,,,,,,,,,,,,,,,,199150,19,2022-01-29_15h45.13.800,lexical_decision_task_DD,2021.2.3,MacIntel,62.5,,,,,,,,,,,0.638,1,,,,,,,,,,,,,,m,1,0.638,,,,,,,,0.075555556,-0.382222222,0,0,0,,0,22,22,56,1,PACKET,LB,old,m,./images/PACKETLB.png,,,,,,,,,,,,,,,,,,,,,,
,,,,,,,,,,,,,,,,,199150,19,2022-01-29_15h45.13.800,lexical_decision_task_DD,2021.2.3,MacIntel,62.5,,,,,,,,,,,0.565,1,,,,,,,,,,,,,,m,1,0.565,,,,,,,,0.075555556,-0.382222222,0,0,0,,0,23,23,12,1,SHORE,C,old,m,./images/SHORE.png,,,,,,,,,,,,,,,,,,,,,,
,,,,,,,,,,,,,,,,,199150,19,2022-01-29_15h45.13.800,lexical_decision_task_DD,2021.2.3,MacIntel,62.5,,,,,,,,,,,1.01,1,,,,,,,,,,,,,,m,1,1.01,,,,,,,,0.075555556,-0.382222222,0,0,0,,0,24,24,58,1,BABOON,HB,old,m,./images/BABOONHB.png,,,,,,,,,,,,,,,,,,,,,,
,,,,,,,,,,,,,,,,,199150,19,2022-01-29_15h45.13.800,lexical_decision_task_DD,2021.2.3,MacIntel,62.5,,,,,,,,,,,1.354,1,,,,,,,,,,,,,,z,1,1.354,,,,,,,,0.075555556,-0.382222222,0,0,0,,0,25,25,106,1,CLUMS,HB,old,z,./images/CLUMSHB.png,,,,,,,,,,,,,,,,,,,,,,
,,,,,,,,,,,,,,,,,199150,19,2022-01-29_15h45.13.800,lexical_decision_task_DD,2021.2.3,MacIntel,62.5,,,,,,,,,,,0.787,1,,,,,,,,,,,,,,m,1,0.787,,,,,,,,0.075555556,-0.382222222,0,0,0,,0,26,26,29,1,CRUMB,LB,old,m,./images/CRUMBLB.png,,,,,,,,,,,,,,,,,,,,,,
,,,,,,,,,,,,,,,,,199150,19,2022-01-29_15h45.13.800,lexical_decision_task_DD,2021.2.3,MacIntel,62.5,,,,,,,,,,,0.703,1,,,,,,,,,,,,,,m,1,0.703,,,,,,,,0.075555556,-0.382222222,0,0,0,,0,27,27,59,1,BURIAL,LB,old,m,./images/BURIALLB.png,,,,,,,,,,,,,,,,,,,,,,
,,,,,,,,,,,,,,,,,199150,19,2022-01-29_15h45.13.800,lexical_decision_task_DD,2021.2.3,MacIntel,62.5,,,,,,,,,,,0.715,1,,,,,,,,,,,,,,m,1,0.715,,,,,,,,0.075555556,-0.382222222,0,0,0,,0,28,28,71,1,PIMPLE,LB,old,m,./images/PIMPLELB.png,,,,,,,,,,,,,,,,,,,,,,
,,,,,,,,,,,,,,,,,199150,19,2022-01-29_15h45.13.800,lexical_decision_task_DD,2021.2.3,MacIntel,62.5,,,,,,,,,,,1.299,1,,,,,,,,,,,,,,m,1,1.299,,,,,,,,0.075555556,-0.382222222,0,0,0,,0,29,29,54,1,TRIPOD,C,old,m,./images/TRIPOD.png,,,,,,,,,,,,,,,,,,,,,,
,,,,,,,,,,,,,,,,,199150,19,2022-01-29_15h45.13.800,lexical_decision_task_DD,2021.2.3,MacIntel,62.5,,,,,,,,,,,0.903,1,,,,,,,,,,,,,,z,1,0.903,,,,,,,,0.075555556,-0.382222222,0,0,0,,0,30,30,128,1,GRIFT,LB,old,z,./images/GRIFTLB.png,,,,,,,,,,,,,,,,,,,,,,
,,,,,,,,,,,,,,,,,199150,19,2022-01-29_15h45.13.800,lexical_decision_task_DD,2021.2.3,MacIntel,62.5,,,,,,,,,,,0.847,1,,,,,,,,,,,,,,z,1,0.847,,,,,,,,0.075555556,-0.382222222,0,0,0,,0,31,31,103,1,FLORT,HB,old,z,./images/FLORTHB.png,,,,,,,,,,,,,,,,,,,,,,
,,,,,,,,,,,,,,,,,199150,19,2022-01-29_15h45.13.800,lexical_decision_task_DD,2021.2.3,MacIntel,62.5,,,,,,,,,,,1.198,1,,,,,,,,,,,,,,z,1,1.198,,,,,,,,0.075555556,-0.382222222,0,0,0,,0,32,32,100,1,DRIBS,HB,old,z,./images/DRIBSHB.png,,,,,,,,,,,,,,,,,,,,,,
,,,,,,,,,,,,,,,,,199150,19,2022-01-29_15h45.13.800,lexical_decision_task_DD,2021.2.3,MacIntel,62.5,,,,,,,,,,,0.684,1,,,,,,,,,,,,,,m,1,0.684,,,,,,,,0.075555556,-0.382222222,0,0,0,,0,33,33,39,1,SHELF,C,old,m,./images/SHELF.png,,,,,,,,,,,,,,,,,,,,,,
,,,,,,,,,,,,,,,,,199150,19,2022-01-29_15h45.13.800,lexical_decision_task_DD,2021.2.3,MacIntel,62.5,,,,,,,,,,,0.731,1,,,,,,,,,,,,,,m,1,0.731,,,,,,,,0.075555556,-0.382222222,0,0,0,,0,34,34,60,1,TWINS,C,old,m,./images/TWINS.png,,,,,,,,,,,,,,,,,,,,,,
,,,,,,,,,,,,,,,,,199150,19,2022-01-29_15h45.13.800,lexical_decision_task_DD,2021.2.3,MacIntel,62.5,,,,,,,,,,,0.772,1,,,,,,,,,,,,,,z,1,0.772,,,,,,,,0.075555556,-0.382222222,0,0,0,,0,35,35,164,1,SGREW,LB,old,z,./images/SGREWLB.png,,,,,,,,,,,,,,,,,,,,,,
,,,,,,,,,,,,,,,,,199150,19,2022-01-29_15h45.13.800,lexical_decision_task_DD,2021.2.3,MacIntel,62.5,,,,,,,,,,,0.794,1,,,,,,,,,,,,,,m,1,0.794,,,,,,,,0.075555556,-0.382222222,0,0,0,,0,36,36,13,1,MOTOR,HB,old,m,./images/MOTORHB.png,,,,,,,,,,,,,,,,,,,,,,
,,,,,,,,,,,,,,,,,199150,19,2022-01-29_15h45.13.800,lexical_decision_task_DD,2021.2.3,MacIntel,62.5,,,,,,,,,,,1.048,1,,,,,,,,,,,,,,z,1,1.048,,,,,,,,0.075555556,-0.382222222,0,0,0,,0,37,37,154,1,THINT,HB,old,z,./images/THINTHB.png,,,,,,,,,,,,,,,,,,,,,,
,,,,,,,,,,,,,,,,,199150,19,2022-01-29_15h45.13.800,lexical_decision_task_DD,2021.2.3,MacIntel,62.5,,,,,,,,,,,0.639,1,,,,,,,,,,,,,,m,1,0.639,,,,,,,,0.075555556,-0.382222222,0,0,0,,0,38,38,81,1,POODLE,C,old,m,./images/POODLE.png,,,,,,,,,,,,,,,,,,,,,,
,,,,,,,,,,,,,,,,,199150,19,2022-01-29_15h45.13.800,lexical_decision_task_DD,2021.2.3,MacIntel,62.5,,,,,,,,,,,0.721,1,,,,,,,,,,,,,,m,1,0.721,,,,,,,,0.075555556,-0.382222222,0,0,0,,0,39,39,41,1,STRING,LB,old,m,./images/STRINGLB.png,,,,,,,,,,,,,,,,,,,,,,
,,,,,,,,,,,,,,,,,199150,19,2022-01-29_15h45.13.800,lexical_decision_task_DD,2021.2.3,MacIntel,62.5,,,,,,,,,,,0.711,0,,,,,,,,,,,,,,z,0,0.711,,,,,,,,0.075555556,-0.382222222,0,0,0,,0,40,40,72,1,NOOSE,C,old,m,./images/NOOSE.png,,,,,,,,,,,,,,,,,,,,,,
,,,,,,,,,,,,,,,,,199150,19,2022-01-29_15h45.13.800,lexical_decision_task_DD,2021.2.3,MacIntel,62.5,,,,,,,,,,,0.931,1,,,,,,,,,,,,,,z,1,0.931,,,,,,,,0.075555556,-0.382222222,0,0,0,space,0,41,41,114,1,RIKES,C,old,z,./images/RIKES.png,144.877,,,,,,,,,,,,,,,,,,,,,
,,,,,,,,,,,,,,,,,199150,19,2022-01-29_15h45.13.800,lexical_decision_task_DD,2021.2.3,MacIntel,62.5,,,,,,,,,,,1.327,1,,,,,,,,,,,,,,m,1,1.327,,,,,,,,0.075555556,-0.382222222,0,0,0,,0,42,42,53,1,CARPET,LB,old,m,./images/CARPETLB.png,,,,,,,,,,,,,,,,,,,,,,
,,,,,,,,,,,,,,,,,199150,19,2022-01-29_15h45.13.800,lexical_decision_task_DD,2021.2.3,MacIntel,62.5,,,,,,,,,,,1.103,1,,,,,,,,,,,,,,z,1,1.103,,,,,,,,0.075555556,-0.382222222,0,0,0,,0,43,43,92,1,PAIMS,LB,old,z,./images/PAIMSLB.png,,,,,,,,,,,,,,,,,,,,,,
,,,,,,,,,,,,,,,,,199150,19,2022-01-29_15h45.13.800,lexical_decision_task_DD,2021.2.3,MacIntel,62.5,,,,,,,,,,,0.704,1,,,,,,,,,,,,,,m,1,0.704,,,,,,,,0.075555556,-0.382222222,0,0,0,,0,44,44,32,1,BARREL,LB,old,m,./images/BARRELLB.png,,,,,,,,,,,,,,,,,,,,,,
,,,,,,,,,,,,,,,,,199150,19,2022-01-29_15h45.13.800,lexical_decision_task_DD,2021.2.3,MacIntel,62.5,,,,,,,,,,,0.812,1,,,,,,,,,,,,,,z,1,0.812,,,,,,,,0.075555556,-0.382222222,0,0,0,,0,45,45,165,1,TROWN,C,old,z,./images/TROWN.png,,,,,,,,,,,,,,,,,,,,,,
,,,,,,,,,,,,,,,,,199150,19,2022-01-29_15h45.13.800,lexical_decision_task_DD,2021.2.3,MacIntel,62.5,,,,,,,,,,,0.662,0,,,,,,,,,,,,,,m,0,0.662,,,,,,,,0.075555556,-0.382222222,0,0,0,,0,46,46,156,1,HIXES,C,old,z,./images/HIXES.png,,,,,,,,,,,,,,,,,,,,,,
,,,,,,,,,,,,,,,,,199150,19,2022-01-29_15h45.13.800,lexical_decision_task_DD,2021.2.3,MacIntel,62.5,,,,,,,,,,,0.864,0,,,,,,,,,,,,,,z,0,0.864,,,,,,,,0.075555556,-0.382222222,0,0,0,,0,47,47,50,1,MALLET,LB,old,m,./images/MALLETLB.png,,,,,,,,,,,,,,,,,,,,,,
,,,,,,,,,,,,,,,,,199150,19,2022-01-29_15h45.13.800,lexical_decision_task_DD,2021.2.3,MacIntel,62.5,,,,,,,,,,,0.52,1,,,,,,,,,,,,,,m,1,0.52,,,,,,,,0.075555556,-0.382222222,0,0,0,,0,48,48,45,1,KITTEN,C,old,m,./images/KITTEN.png,,,,,,,,,,,,,,,,,,,,,,
,,,,,,,,,,,,,,,,,199150,19,2022-01-29_15h45.13.800,lexical_decision_task_DD,2021.2.3,MacIntel,62.5,,,,,,,,,,,0.867,1,,,,,,,,,,,,,,m,1,0.867,,,,,,,,0.075555556,-0.382222222,0,0,0,,0,49,49,19,1,DOUGH,HB,old,m,./images/DOUGHHB.png,,,,,,,,,,,,,,,,,,,,,,
,,,,,,,,,,,,,,,,,199150,19,2022-01-29_15h45.13.800,lexical_decision_task_DD,2021.2.3,MacIntel,62.5,,,,,,,,,,,0.73,1,,,,,,,,,,,,,,z,1,0.73,,,,,,,,0.075555556,-0.382222222,0,0,0,,0,50,50,84,1,HAXES,C,old,z,./images/HAXES.png,,,,,,,,,,,,,,,,,,,,,,
,,,,,,,,,,,,,,,,,199150,19,2022-01-29_15h45.13.800,lexical_decision_task_DD,2021.2.3,MacIntel,62.5,,,,,,,,,,,1.209,1,,,,,,,,,,,,,,m,1,1.209,,,,,,,,0.075555556,-0.382222222,0,0,0,,0,51,51,40,1,SWING,HB,old,m,./images/SWINGHB.png,,,,,,,,,,,,,,,,,,,,,,
,,,,,,,,,,,,,,,,,199150,19,2022-01-29_15h45.13.800,lexical_decision_task_DD,2021.2.3,MacIntel,62.5,,,,,,,,,,,0.67,1,,,,,,,,,,,,,,m,1,0.67,,,,,,,,0.075555556,-0.382222222,0,0,0,,0,52,52,25,1,WRIST,HB,old,m,./images/WRISTHB.png,,,,,,,,,,,,,,,,,,,,,,
,,,,,,,,,,,,,,,,,199150,19,2022-01-29_15h45.13.800,lexical_decision_task_DD,2021.2.3,MacIntel,62.5,,,,,,,,,,,0.787,1,,,,,,,,,,,,,,z,1,0.787,,,,,,,,0.075555556,-0.382222222,0,0,0,,0,53,53,141,1,PLEET,C,old,z,./images/PLEET.png,,,,,,,,,,,,,,,,,,,,,,
,,,,,,,,,,,,,,,,,199150,19,2022-01-29_15h45.13.800,lexical_decision_task_DD,2021.2.3,MacIntel,62.5,,,,,,,,,,,0.803,1,,,,,,,,,,,,,,z,1,0.803,,,,,,,,0.075555556,-0.382222222,0,0,0,,0,54,54,127,1,NINDY,HB,old,z,./images/NINDYHB.png,,,,,,,,,,,,,,,,,,,,,,
,,,,,,,,,,,,,,,,,199150,19,2022-01-29_15h45.13.800,lexical_decision_task_DD,2021.2.3,MacIntel,62.5,,,,,,,,,,,0.728,1,,,,,,,,,,,,,,z,1,0.728,,,,,,,,0.075555556,-0.382222222,0,0,0,,0,55,55,162,1,LEICH,C,old,z,./images/LEICH.png,,,,,,,,,,,,,,,,,,,,,,
,,,,,,,,,,,,,,,,,199150,19,2022-01-29_15h45.13.800,lexical_decision_task_DD,2021.2.3,MacIntel,62.5,,,,,,,,,,,0.632,1,,,,,,,,,,,,,,m,1,0.632,,,,,,,,0.075555556,-0.382222222,0,0,0,,0,56,56,10,1,BELLY,HB,old,m,./images/BELLYHB.png,,,,,,,,,,,,,,,,,,,,,,
,,,,,,,,,,,,,,,,,199150,19,2022-01-29_15h45.13.800,lexical_decision_task_DD,2021.2.3,MacIntel,62.5,,,,,,,,,,,0.764,1,,,,,,,,,,,,,,z,1,0.764,,,,,,,,0.075555556,-0.382222222,0,0,0,,0,57,57,96,1,KEAMS,C,old,z,./images/KEAMS.png,,,,,,,,,,,,,,,,,,,,,,
,,,,,,,,,,,,,,,,,199150,19,2022-01-29_15h45.13.800,lexical_decision_task_DD,2021.2.3,MacIntel,62.5,,,,,,,,,,,0.697,1,,,,,,,,,,,,,,m,1,0.697,,,,,,,,0.075555556,-0.382222222,0,0,0,,0,58,58,74,1,CEMENT,LB,old,m,./images/CEMENTLB.png,,,,,,,,,,,,,,,,,,,,,,
,,,,,,,,,,,,,,,,,199150,19,2022-01-29_15h45.13.800,lexical_decision_task_DD,2021.2.3,MacIntel,62.5,,,,,,,,,,,1.046,1,,,,,,,,,,,,,,z,1,1.046,,,,,,,,0.075555556,-0.382222222,0,0,0,,0,59,59,129,1,PRANS,C,old,z,./images/PRANS.png,,,,,,,,,,,,,,,,,,,,,,
,,,,,,,,,,,,,,,,,199150,19,2022-01-29_15h45.13.800,lexical_decision_task_DD,2021.2.3,MacIntel,62.5,,,,,,,,,,,1.023,1,,,,,,,,,,,,,,m,1,1.023,,,,,,,,0.075555556,-0.382222222,0,0,0,,0,60,60,77,1,COUCH,LB,old,m,./images/COUCHLB.png,,,,,,,,,,,,,,,,,,,,,,
,,,,,,,,,,,,,,,,,199150,19,2022-01-29_15h45.13.800,lexical_decision_task_DD,2021.2.3,MacIntel,62.5,,,,,,,,,,,0.754,1,,,,,,,,,,,,,,z,1,0.754,,,,,,,,0.075555556,-0.382222222,0,0,0,,0,61,61,126,1,GUELS,C,old,z,./images/GUELS.png,,,,,,,,,,,,,,,,,,,,,,
,,,,,,,,,,,,,,,,,199150,19,2022-01-29_15h45.13.800,lexical_decision_task_DD,2021.2.3,MacIntel,62.5,,,,,,,,,,,0.561,0,,,,,,,,,,,,,,m,0,0.561,,,,,,,,0.075555556,-0.382222222,0,0,0,,0,62,62,89,1,DRIEK,LB,old,z,./images/DRIEKLB.png,,,,,,,,,,,,,,,,,,,,,,
,,,,,,,,,,,,,,,,,199150,19,2022-01-29_15h45.13.800,lexical_decision_task_DD,2021.2.3,MacIntel,62.5,,,,,,,,,,,1.014,1,,,,,,,,,,,,,,z,1,1.014,,,,,,,,0.075555556,-0.382222222,0,0,0,,0,63,63,143,1,MONGS,LB,old,z,./images/MONGSLB.png,,,,,,,,,,,,,,,,,,,,,,
,,,,,,,,,,,,,,,,,199150,19,2022-01-29_15h45.13.800,lexical_decision_task_DD,2021.2.3,MacIntel,62.5,,,,,,,,,,,0.736,1,,,,,,,,,,,,,,z,1,0.736,,,,,,,,0.075555556,-0.382222222,0,0,0,,0,64,64,120,1,RINED,C,old,z,./images/RINED.png,,,,,,,,,,,,,,,,,,,,,,
,,,,,,,,,,,,,,,,,199150,19,2022-01-29_15h45.13.800,lexical_decision_task_DD,2021.2.3,MacIntel,62.5,,,,,,,,,,,0.671,1,,,,,,,,,,,,,,z,1,0.671,,,,,,,,0.075555556,-0.382222222,0,0,0,,0,65,65,161,1,BLAPS,LB,old,z,./images/BLAPSLB.png,,,,,,,,,,,,,,,,,,,,,,
,,,,,,,,,,,,,,,,,199150,19,2022-01-29_15h45.13.800,lexical_decision_task_DD,2021.2.3,MacIntel,62.5,,,,,,,,,,,0.664,1,,,,,,,,,,,,,,m,1,0.664,,,,,,,,0.075555556,-0.382222222,0,0,0,,0,66,66,27,1,ATTIC,C,old,m,./images/ATTIC.png,,,,,,,,,,,,,,,,,,,,,,
,,,,,,,,,,,,,,,,,199150,19,2022-01-29_15h45.13.800,lexical_decision_task_DD,2021.2.3,MacIntel,62.5,,,,,,,,,,,0.617,1,,,,,,,,,,,,,,m,1,0.617,,,,,,,,0.075555556,-0.382222222,0,0,0,,0,67,67,14,1,PICKLE,LB,old,m,./images/PICKLELB.png,,,,,,,,,,,,,,,,,,,,,,
,,,,,,,,,,,,,,,,,199150,19,2022-01-29_15h45.13.800,lexical_decision_task_DD,2021.2.3,MacIntel,62.5,,,,,,,,,,,0.728,1,,,,,,,,,,,,,,m,1,0.728,,,,,,,,0.075555556,-0.382222222,0,0,0,,0,68,68,8,1,TULIP,LB,old,m,./images/TULIPLB.png,,,,,,,,,,,,,,,,,,,,,,
,,,,,,,,,,,,,,,,,199150,19,2022-01-29_15h45.13.800,lexical_decision_task_DD,2021.2.3,MacIntel,62.5,,,,,,,,,,,1.297,1,,,,,,,,,,,,,,z,1,1.297,,,,,,,,0.075555556,-0.382222222,0,0,0,,0,69,69,112,1,MYING,HB,old,z,./images/MYINGHB.png,,,,,,,,,,,,,,,,,,,,,,
,,,,,,,,,,,,,,,,,199150,19,2022-01-29_15h45.13.800,lexical_decision_task_DD,2021.2.3,MacIntel,62.5,,,,,,,,,,,2.315,1,,,,,,,,,,,,,,m,1,2.315,,,,,,,,0.075555556,-0.382222222,0,0,0,,0,70,70,55,1,MUFFIN,HB,old,m,./images/MUFFINHB.png,,,,,,,,,,,,,,,,,,,,,,
,,,,,,,,,,,,,,,,,199150,19,2022-01-29_15h45.13.800,lexical_decision_task_DD,2021.2.3,MacIntel,62.5,,,,,,,,,,,3.43,1,,,,,,,,,,,,,,z,1,3.43,,,,,,,,0.075555556,-0.382222222,0,0,0,,0,71,71,90,1,NEAST,C,old,z,./images/NEAST.png,,,,,,,,,,,,,,,,,,,,,,
,,,,,,,,,,,,,,,,,199150,19,2022-01-29_15h45.13.800,lexical_decision_task_DD,2021.2.3,MacIntel,62.5,,,,,,,,,,,1.032,0,,,,,,,,,,,,,,z,0,1.032,,,,,,,,0.075555556,-0.382222222,0,0,0,,0,72,72,16,1,PENCE,HB,old,m,./images/PENCEHB.png,,,,,,,,,,,,,,,,,,,,,,
,,,,,,,,,,,,,,,,,199150,19,2022-01-29_15h45.13.800,lexical_decision_task_DD,2021.2.3,MacIntel,62.5,,,,,,,,,,,0.631,1,,,,,,,,,,,,,,z,1,0.631,,,,,,,,0.075555556,-0.382222222,0,0,0,,0,73,73,155,1,CANGY,LB,old,z,./images/CANGYLB.png,,,,,,,,,,,,,,,,,,,,,,
,,,,,,,,,,,,,,,,,199150,19,2022-01-29_15h45.13.800,lexical_decision_task_DD,2021.2.3,MacIntel,62.5,,,,,,,,,,,0.648,1,,,,,,,,,,,,,,z,1,0.648,,,,,,,,0.075555556,-0.382222222,0,0,0,,0,74,74,111,1,HOSSE,C,old,z,./images/HOSSE.png,,,,,,,,,,,,,,,,,,,,,,
,,,,,,,,,,,,,,,,,199150,19,2022-01-29_15h45.13.800,lexical_decision_task_DD,2021.2.3,MacIntel,62.5,,,,,,,,,,,0.598,1,,,,,,,,,,,,,,z,1,0.598,,,,,,,,0.075555556,-0.382222222,0,0,0,,0,75,75,135,1,JOODY,C,old,z,./images/JOODY.png,,,,,,,,,,,,,,,,,,,,,,
,,,,,,,,,,,,,,,,,199150,19,2022-01-29_15h45.13.800,lexical_decision_task_DD,2021.2.3,MacIntel,62.5,,,,,,,,,,,0.797,1,,,,,,,,,,,,,,m,1,0.797,,,,,,,,0.075555556,-0.382222222,0,0,0,,0,76,76,73,1,SNACK,HB,old,m,./images/SNACKHB.png,,,,,,,,,,,,,,,,,,,,,,
,,,,,,,,,,,,,,,,,199150,19,2022-01-29_15h45.13.800,lexical_decision_task_DD,2021.2.3,MacIntel,62.5,,,,,,,,,,,0.886,1,,,,,,,,,,,,,,z,1,0.886,,,,,,,,0.075555556,-0.382222222,0,0,0,,0,77,77,146,1,MOOST,LB,old,z,./images/MOOSTLB.png,,,,,,,,,,,,,,,,,,,,,,
,,,,,,,,,,,,,,,,,199150,19,2022-01-29_15h45.13.800,lexical_decision_task_DD,2021.2.3,MacIntel,62.5,,,,,,,,,,,0.661,1,,,,,,,,,,,,,,z,1,0.661,,,,,,,,0.075555556,-0.382222222,0,0,0,,0,78,78,152,1,FRAIN,LB,old,z,./images/FRAINLB.png,,,,,,,,,,,,,,,,,,,,,,
,,,,,,,,,,,,,,,,,199150,19,2022-01-29_15h45.13.800,lexical_decision_task_DD,2021.2.3,MacIntel,62.5,,,,,,,,,,,0.797,1,,,,,,,,,,,,,,z,1,0.797,,,,,,,,0.075555556,-0.382222222,0,0,0,,0,79,79,145,1,LAMEL,HB,old,z,./images/LAMELHB.png,,,,,,,,,,,,,,,,,,,,,,
,,,,,,,,,,,,,,,,,199150,19,2022-01-29_15h45.13.800,lexical_decision_task_DD,2021.2.3,MacIntel,62.5,,,,,,,,,,,0.597,1,,,,,,,,,,,,,,m,1,0.597,,,,,,,,0.075555556,-0.382222222,0,0,0,,0,80,80,15,1,GREASE,C,old,m,./images/GREASE.png,,,,,,,,,,,,,,,,,,,,,,
,,,,,,,,,,,,,,,,,199150,19,2022-01-29_15h45.13.800,lexical_decision_task_DD,2021.2.3,MacIntel,62.5,,,,,,,,,,,0.584,1,,,,,,,,,,,,,,m,1,0.584,,,,,,,,0.075555556,-0.382222222,0,0,0,,0,81,81,0,1,TOMATO,C,old,m,./images/TOMATO.png,,,,,,,,,,,,,,,,,,,,,,
,,,,,,,,,,,,,,,,,199150,19,2022-01-29_15h45.13.800,lexical_decision_task_DD,2021.2.3,MacIntel,62.5,,,,,,,,,,,0.534,1,,,,,,,,,,,,,,m,1,0.534,,,,,,,,0.075555556,-0.382222222,0,0,0,,0,82,82,26,1,SMOKER,LB,old,m,./images/SMOKERLB.png,,,,,,,,,,,,,,,,,,,,,,
,,,,,,,,,,,,,,,,,199150,19,2022-01-29_15h45.13.800,lexical_decision_task_DD,2021.2.3,MacIntel,62.5,,,,,,,,,,,2.064,1,,,,,,,,,,,,,,z,1,2.064,,,,,,,,0.075555556,-0.382222222,0,0,0,space,0,83,83,91,1,SHENS,HB,old,z,./images/SHENSHB.png,52.658,,,,,,,,,,,,,,,,,,,,,
,,,,,,,,,,,,,,,,,199150,19,2022-01-29_15h45.13.800,lexical_decision_task_DD,2021.2.3,MacIntel,62.5,,,,,,,,,,,1.019,1,,,,,,,,,,,,,,z,1,1.019,,,,,,,,0.075555556,-0.382222222,0,0,0,,0,84,84,123,1,SEDGE,C,old,z,./images/SEDGE.png,,,,,,,,,,,,,,,,,,,,,,
,,,,,,,,,,,,,,,,,199150,19,2022-01-29_15h45.13.800,lexical_decision_task_DD,2021.2.3,MacIntel,62.5,,,,,,,,,,,0.687,1,,,,,,,,,,,,,,m,1,0.687,,,,,,,,0.075555556,-0.382222222,0,0,0,,0,85,85,22,1,MELON,HB,old,m,./images/MELONHB.png,,,,,,,,,,,,,,,,,,,,,,
,,,,,,,,,,,,,,,,,199150,19,2022-01-29_15h45.13.800,lexical_decision_task_DD,2021.2.3,MacIntel,62.5,,,,,,,,,,,0.661,1,,,,,,,,,,,,,,z,1,0.661,,,,,,,,0.075555556,-0.382222222,0,0,0,,0,86,86,131,1,NACES,LB,old,z,./images/NACESLB.png,,,,,,,,,,,,,,,,,,,,,,
,,,,,,,,,,,,,,,,,199150,19,2022-01-29_15h45.13.800,lexical_decision_task_DD,2021.2.3,MacIntel,62.5,,,,,,,,,,,0.848,1,,,,,,,,,,,,,,z,1,0.848,,,,,,,,0.075555556,-0.382222222,0,0,0,,0,87,87,158,1,EGECT,LB,old,z,./images/EGECTLB.png,,,,,,,,,,,,,,,,,,,,,,
,,,,,,,,,,,,,,,,,199150,19,2022-01-29_15h45.13.800,lexical_decision_task_DD,2021.2.3,MacIntel,62.5,,,,,,,,,,,0.849,1,,,,,,,,,,,,,,m,1,0.849,,,,,,,,0.075555556,-0.382222222,0,0,0,,0,88,88,34,1,CANYON,HB,old,m,./images/CANYONHB.png,,,,,,,,,,,,,,,,,,,,,,
,,,,,,,,,,,,,,,,,199150,19,2022-01-29_15h45.13.800,lexical_decision_task_DD,2021.2.3,MacIntel,62.5,,,,,,,,,,,0.833,1,,,,,,,,,,,,,,z,1,0.833,,,,,,,,0.075555556,-0.382222222,0,0,0,,0,89,89,115,1,MAWNS,HB,old,z,./images/MAWNSHB.png,,,,,,,,,,,,,,,,,,,,,,
,,,,,,,,,,,,,,,,,199150,19,2022-01-29_15h45.13.800,lexical_decision_task_DD,2021.2.3,MacIntel,62.5,,,,,,,,,,,0.664,1,,,,,,,,,,,,,,m,1,0.664,,,,,,,,0.075555556,-0.382222222,0,0,0,,0,90,90,11,1,BONNET,LB,old,m,./images/BONNETLB.png,,,,,,,,,,,,,,,,,,,,,,
,,,,,,,,,,,,,,,,,199150,19,2022-01-29_15h45.13.800,lexical_decision_task_DD,2021.2.3,MacIntel,62.5,,,,,,,,,,,0.614,1,,,,,,,,,,,,,,m,1,0.614,,,,,,,,0.075555556,-0.382222222,0,0,0,,0,91,91,42,1,FOLDER,C,old,m,./images/FOLDER.png,,,,,,,,,,,,,,,,,,,,,,
,,,,,,,,,,,,,,,,,199150,19,2022-01-29_15h45.13.800,lexical_decision_task_DD,2021.2.3,MacIntel,62.5,,,,,,,,,,,1.003,1,,,,,,,,,,,,,,z,1,1.003,,,,,,,,0.075555556,-0.382222222,0,0,0,,0,92,92,160,1,VEETS,HB,old,z,./images/VEETSHB.png,,,,,,,,,,,,,,,,,,,,,,
,,,,,,,,,,,,,,,,,199150,19,2022-01-29_15h45.13.800,lexical_decision_task_DD,2021.2.3,MacIntel,62.5,,,,,,,,,,,0.66,1,,,,,,,,,,,,,,m,1,0.66,,,,,,,,0.075555556,-0.382222222,0,0,0,,0,93,93,62,1,PURSE,LB,old,m,./images/PURSELB.png,,,,,,,,,,,,,,,,,,,,,,
,,,,,,,,,,,,,,,,,199150,19,2022-01-29_15h45.13.800,lexical_decision_task_DD,2021.2.3,MacIntel,62.5,,,,,,,,,,,0.596,1,,,,,,,,,,,,,,m,1,0.596,,,,,,,,0.075555556,-0.382222222,0,0,0,,0,94,94,79,1,CRUST,HB,old,m,./images/CRUSTHB.png,,,,,,,,,,,,,,,,,,,,,,
,,,,,,,,,,,,,,,,,199150,19,2022-01-29_15h45.13.800,lexical_decision_task_DD,2021.2.3,MacIntel,62.5,,,,,,,,,,,0.607,1,,,,,,,,,,,,,,m,1,0.607,,,,,,,,0.075555556,-0.382222222,0,0,0,,0,95,95,82,1,SUNSET,HB,old,m,./images/SUNSETHB.png,,,,,,,,,,,,,,,,,,,,,,
,,,,,,,,,,,,,,,,,199150,19,2022-01-29_15h45.13.800,lexical_decision_task_DD,2021.2.3,MacIntel,62.5,,,,,,,,,,,0.578,1,,,,,,,,,,,,,,z,1,0.578,,,,,,,,0.075555556,-0.382222222,0,0,0,,0,96,96,167,1,ZONET,LB,old,z,./images/ZONETLB.png,,,,,,,,,,,,,,,,,,,,,,
,,,,,,,,,,,,,,,,,199150,19,2022-01-29_15h45.13.800,lexical_decision_task_DD,2021.2.3,MacIntel,62.5,,,,,,,,,,,0.678,1,,,,,,,,,,,,,,m,1,0.678,,,,,,,,0.075555556,-0.382222222,0,0,0,,0,97,97,67,1,SAILOR,HB,old,m,./images/SAILORHB.png,,,,,,,,,,,,,,,,,,,,,,
,,,,,,,,,,,,,,,,,199150,19,2022-01-29_15h45.13.800,lexical_decision_task_DD,2021.2.3,MacIntel,62.5,,,,,,,,,,,0.656,1,,,,,,,,,,,,,,m,1,0.656,,,,,,,,0.075555556,-0.382222222,0,0,0,,0,98,98,63,1,MIRROR,C,old,m,./images/MIRROR.png,,,,,,,,,,,,,,,,,,,,,,
,,,,,,,,,,,,,,,,,199150,19,2022-01-29_15h45.13.800,lexical_decision_task_DD,2021.2.3,MacIntel,62.5,,,,,,,,,,,0.53,1,,,,,,,,,,,,,,m,1,0.53,,,,,,,,0.075555556,-0.382222222,0,0,0,,0,99,99,18,1,JAGUAR,C,old,m,./images/JAGUAR.png,,,,,,,,,,,,,,,,,,,,,,
,,,,,,,,,,,,,,,,,199150,19,2022-01-29_15h45.13.800,lexical_decision_task_DD,2021.2.3,MacIntel,62.5,,,,,,,,,,,0.712,1,,,,,,,,,,,,,,m,1,0.712,,,,,,,,0.075555556,-0.382222222,0,0,0,,0,100,100,52,1,BANNER,HB,old,m,./images/BANNERHB.png,,,,,,,,,,,,,,,,,,,,,,
,,,,,,,,,,,,,,,,,199150,19,2022-01-29_15h45.13.800,lexical_decision_task_DD,2021.2.3,MacIntel,62.5,,,,,,,,,,,0.544,1,,,,,,,,,,,,,,z,1,0.544,,,,,,,,0.075555556,-0.382222222,0,0,0,,0,101,101,97,1,CHIDS,HB,old,z,./images/CHIDSHB.png,,,,,,,,,,,,,,,,,,,,,,
,,,,,,,,,,,,,,,,,199150,19,2022-01-29_15h45.13.800,lexical_decision_task_DD,2021.2.3,MacIntel,62.5,,,,,,,,,,,0.436,0,,,,,,,,,,,,,,m,0,0.436,,,,,,,,0.075555556,-0.382222222,0,0,0,,0,102,102,93,1,SMONE,C,old,z,./images/SMONE.png,,,,,,,,,,,,,,,,,,,,,,
,,,,,,,,,,,,,,,,,199150,19,2022-01-29_15h45.13.800,lexical_decision_task_DD,2021.2.3,MacIntel,62.5,,,,,,,,,,,0.512,1,,,,,,,,,,,,,,z,1,0.512,,,,,,,,0.075555556,-0.382222222,0,0,0,,0,103,103,150,1,NOOLS,C,old,z,./images/NOOLS.png,,,,,,,,,,,,,,,,,,,,,,
,,,,,,,,,,,,,,,,,199150,19,2022-01-29_15h45.13.800,lexical_decision_task_DD,2021.2.3,MacIntel,62.5,,,,,,,,,,,0.498,1,,,,,,,,,,,,,,m,1,0.498,,,,,,,,0.075555556,-0.382222222,0,0,0,,0,104,104,48,1,SPORT,C,old,m,./images/SPORT.png,,,,,,,,,,,,,,,,,,,,,,
,,,,,,,,,,,,,,,,,199150,19,2022-01-29_15h45.13.800,lexical_decision_task_DD,2021.2.3,MacIntel,62.5,,,,,,,,,,,0.565,1,,,,,,,,,,,,,,m,1,0.565,,,,,,,,0.075555556,-0.382222222,0,0,0,,0,105,105,6,1,SQUARE,C,old,m,./images/SQUARE.png,,,,,,,,,,,,,,,,,,,,,,
,,,,,,,,,,,,,,,,,199150,19,2022-01-29_15h45.13.800,lexical_decision_task_DD,2021.2.3,MacIntel,62.5,,,,,,,,,,,0.6,1,,,,,,,,,,,,,,m,1,0.6,,,,,,,,0.075555556,-0.382222222,0,0,0,,0,106,106,21,1,KIDNEY,C,old,m,./images/KIDNEY.png,,,,,,,,,,,,,,,,,,,,,,
,,,,,,,,,,,,,,,,,199150,19,2022-01-29_15h45.13.800,lexical_decision_task_DD,2021.2.3,MacIntel,62.5,,,,,,,,,,,0.731,1,,,,,,,,,,,,,,m,1,0.731,,,,,,,,0.075555556,-0.382222222,0,0,0,,0,107,107,33,1,MAGGOT,C,old,m,./images/MAGGOT.png,,,,,,,,,,,,,,,,,,,,,,
,,,,,,,,,,,,,,,,,199150,19,2022-01-29_15h45.13.800,lexical_decision_task_DD,2021.2.3,MacIntel,62.5,,,,,,,,,,,0.979,1,,,,,,,,,,,,,,z,1,0.979,,,,,,,,0.075555556,-0.382222222,0,0,0,,0,108,108,140,1,DOVET,LB,old,z,./images/DOVETLB.png,,,,,,,,,,,,,,,,,,,,,,
,,,,,,,,,,,,,,,,,199150,19,2022-01-29_15h45.13.800,lexical_decision_task_DD,2021.2.3,MacIntel,62.5,,,,,,,,,,,0.647,1,,,,,,,,,,,,,,m,1,0.647,,,,,,,,0.075555556,-0.382222222,0,0,0,,0,109,109,9,1,RHINO,C,old,m,./images/RHINO.png,,,,,,,,,,,,,,,,,,,,,,
,,,,,,,,,,,,,,,,,199150,19,2022-01-29_15h45.13.800,lexical_decision_task_DD,2021.2.3,MacIntel,62.5,,,,,,,,,,,0.898,1,,,,,,,,,,,,,,z,1,0.898,,,,,,,,0.075555556,-0.382222222,0,0,0,,0,110,110,153,1,CLUPS,C,old,z,./images/CLUPS.png,,,,,,,,,,,,,,,,,,,,,,
,,,,,,,,,,,,,,,,,199150,19,2022-01-29_15h45.13.800,lexical_decision_task_DD,2021.2.3,MacIntel,62.5,,,,,,,,,,,0.603,1,,,,,,,,,,,,,,m,1,0.603,,,,,,,,0.075555556,-0.382222222,0,0,0,,0,111,111,28,1,FALCON,HB,old,m,./images/FALCONHB.png,,,,,,,,,,,,,,,,,,,,,,
,,,,,,,,,,,,,,,,,199150,19,2022-01-29_15h45.13.800,lexical_decision_task_DD,2021.2.3,MacIntel,62.5,,,,,,,,,,,0.584,1,,,,,,,,,,,,,,m,1,0.584,,,,,,,,0.075555556,-0.382222222,0,0,0,,0,112,112,38,1,LADDER,LB,old,m,./images/LADDERLB.png,,,,,,,,,,,,,,,,,,,,,,
,,,,,,,,,,,,,,,,,199150,19,2022-01-29_15h45.13.800,lexical_decision_task_DD,2021.2.3,MacIntel,62.5,,,,,,,,,,,0.98,1,,,,,,,,,,,,,,m,1,0.98,,,,,,,,0.075555556,-0.382222222,0,0,0,,0,113,113,37,1,BIRTH,HB,old,m,./images/BIRTHHB.png,,,,,,,,,,,,,,,,,,,,,,
,,,,,,,,,,,,,,,,,199150,19,2022-01-29_15h45.13.800,lexical_decision_task_DD,2021.2.3,MacIntel,62.5,,,,,,,,,,,1.744,1,,,,,,,,,,,,,,m,1,1.744,,,,,,,,0.075555556,-0.382222222,0,0,0,,0,114,114,44,1,LIZARD,LB,old,m,./images/LIZARDLB.png,,,,,,,,,,,,,,,,,,,,,,
,,,,,,,,,,,,,,,,,199150,19,2022-01-29_15h45.13.800,lexical_decision_task_DD,2021.2.3,MacIntel,62.5,,,,,,,,,,,0.829,1,,,,,,,,,,,,,,m,1,0.829,,,,,,,,0.075555556,-0.382222222,0,0,0,,0,115,115,61,1,CANDLE,HB,old,m,./images/CANDLEHB.png,,,,,,,,,,,,,,,,,,,,,,
,,,,,,,,,,,,,,,,,199150,19,2022-01-29_15h45.13.800,lexical_decision_task_DD,2021.2.3,MacIntel,62.5,,,,,,,,,,,0.666,1,,,,,,,,,,,,,,m,1,0.666,,,,,,,,0.075555556,-0.382222222,0,0,0,,0,116,116,70,1,URINE,HB,old,m,./images/URINEHB.png,,,,,,,,,,,,,,,,,,,,,,
,,,,,,,,,,,,,,,,,199150,19,2022-01-29_15h45.13.800,lexical_decision_task_DD,2021.2.3,MacIntel,62.5,,,,,,,,,,,0.513,1,,,,,,,,,,,,,,m,1,0.513,,,,,,,,0.075555556,-0.382222222,0,0,0,,0,117,117,5,1,PASTA,LB,old,m,./images/PASTALB.png,,,,,,,,,,,,,,,,,,,,,,
,,,,,,,,,,,,,,,,,199150,19,2022-01-29_15h45.13.800,lexical_decision_task_DD,2021.2.3,MacIntel,62.5,,,,,,,,,,,0.539,1,,,,,,,,,,,,,,m,1,0.539,,,,,,,,0.075555556,-0.382222222,0,0,0,,0,118,118,57,1,MOOSE,C,old,m,./images/MOOSE.png,,,,,,,,,,,,,,,,,,,,,,
,,,,,,,,,,,,,,,,,199150,19,2022-01-29_15h45.13.800,lexical_decision_task_DD,2021.2.3,MacIntel,62.5,,,,,,,,,,,0.748,1,,,,,,,,,,,,,,z,1,0.748,,,,,,,,0.075555556,-0.382222222,0,0,0,,0,119,119,118,1,BAVEL,HB,old,z,./images/BAVELHB.png,,,,,,,,,,,,,,,,,,,,,,
,,,,,,,,,,,,,,,,,199150,19,2022-01-29_15h45.13.800,lexical_decision_task_DD,2021.2.3,MacIntel,62.5,,,,,,,,,,,0.911,1,,,,,,,,,,,,,,z,1,0.911,,,,,,,,0.075555556,-0.382222222,0,0,0,,0,120,120,144,1,NAIRY,C,old,z,./images/NAIRY.png,,,,,,,,,,,,,,,,,,,,,,
,,,,,,,,,,,,,,,,,199150,19,2022-01-29_15h45.13.800,lexical_decision_task_DD,2021.2.3,MacIntel,62.5,,,,,,,,,,,0.558,1,,,,,,,,,,,,,,m,1,0.558,,,,,,,,0.075555556,-0.382222222,0,0,0,,0,121,121,78,1,LITTER,C,old,m,./images/LITTER.png,,,,,,,,,,,,,,,,,,,,,,
,,,,,,,,,,,,,,,,,199150,19,2022-01-29_15h45.13.800,lexical_decision_task_DD,2021.2.3,MacIntel,62.5,,,,,,,,,,,0.763,1,,,,,,,,,,,,,,z,1,0.763,,,,,,,,0.075555556,-0.382222222,0,0,0,,0,122,122,104,1,GITTY,LB,old,z,./images/GITTYLB.png,,,,,,,,,,,,,,,,,,,,,,
,,,,,,,,,,,,,,,,,199150,19,2022-01-29_15h45.13.800,lexical_decision_task_DD,2021.2.3,MacIntel,62.5,,,,,,,,,,,0.577,1,,,,,,,,,,,,,,m,1,0.577,,,,,,,,0.075555556,-0.382222222,0,0,0,,0,123,123,20,1,CRADLE,LB,old,m,./images/CRADLELB.png,,,,,,,,,,,,,,,,,,,,,,
,,,,,,,,,,,,,,,,,199150,19,2022-01-29_15h45.13.800,lexical_decision_task_DD,2021.2.3,MacIntel,62.5,,,,,,,,,,,0.613,0,,,,,,,,,,,,,,m,0,0.613,,,,,,,,0.075555556,-0.382222222,0,0,0,,0,124,124,159,1,CUDDY,C,old,z,./images/CUDDY.png,,,,,,,,,,,,,,,,,,,,,,
,,,,,,,,,,,,,,,,,199150,19,2022-01-29_15h45.13.800,lexical_decision_task_DD,2021.2.3,MacIntel,62.5,,,,,,,,,,,1.114,1,,,,,,,,,,,,,,m,1,1.114,,,,,,,,0.075555556,-0.382222222,0,0,0,space,0,125,125,83,1,JUNGLE,LB,old,m,./images/JUNGLELB.png,38.498,,,,,,,,,,,,,,,,,,,,,
,,,,,,,,,,,,,,,,,199150,19,2022-01-29_15h45.13.800,lexical_decision_task_DD,2021.2.3,MacIntel,62.5,,,,,,,,,,,0.963,1,,,,,,,,,,,,,,z,1,0.963,,,,,,,,0.075555556,-0.382222222,0,0,0,,0,126,126,134,1,TROSS,LB,old,z,./images/TROSSLB.png,,,,,,,,,,,,,,,,,,,,,,
,,,,,,,,,,,,,,,,,199150,19,2022-01-29_15h45.13.800,lexical_decision_task_DD,2021.2.3,MacIntel,62.5,,,,,,,,,,,0.563,1,,,,,,,,,,,,,,m,1,0.563,,,,,,,,0.075555556,-0.382222222,0,0,0,,0,127,127,51,1,ONION,C,old,m,./images/ONION.png,,,,,,,,,,,,,,,,,,,,,,
,,,,,,,,,,,,,,,,,199150,19,2022-01-29_15h45.13.800,lexical_decision_task_DD,2021.2.3,MacIntel,62.5,,,,,,,,,,,0.535,1,,,,,,,,,,,,,,m,1,0.535,,,,,,,,0.075555556,-0.382222222,0,0,0,,0,128,128,65,1,FARMER,LB,old,m,./images/FARMERLB.png,,,,,,,,,,,,,,,,,,,,,,
,,,,,,,,,,,,,,,,,199150,19,2022-01-29_15h45.13.800,lexical_decision_task_DD,2021.2.3,MacIntel,62.5,,,,,,,,,,,0.745,1,,,,,,,,,,,,,,m,1,0.745,,,,,,,,0.075555556,-0.382222222,0,0,0,,0,129,129,1,1,PLANK,HB,old,m,./images/PLANKHB.png,,,,,,,,,,,,,,,,,,,,,,
,,,,,,,,,,,,,,,,,199150,19,2022-01-29_15h45.13.800,lexical_decision_task_DD,2021.2.3,MacIntel,62.5,,,,,,,,,,,0.664,1,,,,,,,,,,,,,,m,1,0.664,,,,,,,,0.075555556,-0.382222222,0,0,0,,0,130,130,4,1,MUSCLE,HB,old,m,./images/MUSCLEHB.png,,,,,,,,,,,,,,,,,,,,,,
,,,,,,,,,,,,,,,,,199150,19,2022-01-29_15h45.13.800,lexical_decision_task_DD,2021.2.3,MacIntel,62.5,,,,,,,,,,,0.703,1,,,,,,,,,,,,,,z,1,0.703,,,,,,,,0.075555556,-0.382222222,0,0,0,,0,131,131,116,1,BALGY,LB,old,z,./images/BALGYLB.png,,,,,,,,,,,,,,,,,,,,,,
,,,,,,,,,,,,,,,,,199150,19,2022-01-29_15h45.13.800,lexical_decision_task_DD,2021.2.3,MacIntel,62.5,,,,,,,,,,,0.563,1,,,,,,,,,,,,,,m,1,0.563,,,,,,,,0.075555556,-0.382222222,0,0,0,,0,132,132,2,1,BEARD,LB,old,m,./images/BEARDLB.png,,,,,,,,,,,,,,,,,,,,,,
,,,,,,,,,,,,,,,,,199150,19,2022-01-29_15h45.13.800,lexical_decision_task_DD,2021.2.3,MacIntel,62.5,,,,,,,,,,,0.647,1,,,,,,,,,,,,,,z,1,0.647,,,,,,,,0.075555556,-0.382222222,0,0,0,,0,133,133,108,1,GRUET,C,old,z,./images/GRUET.png,,,,,,,,,,,,,,,,,,,,,,
,,,,,,,,,,,,,,,,,199150,19,2022-01-29_15h45.13.800,lexical_decision_task_DD,2021.2.3,MacIntel,62.5,,,,,,,,,,,0.797,1,,,,,,,,,,,,,,z,1,0.797,,,,,,,,0.075555556,-0.382222222,0,0,0,,0,134,134,110,1,CRUNK,LB,old,z,./images/CRUNKLB.png,,,,,,,,,,,,,,,,,,,,,,
,,,,,,,,,,,,,,,,,199150,19,2022-01-29_15h45.13.800,lexical_decision_task_DD,2021.2.3,MacIntel,62.5,,,,,,,,,,,0.632,0,,,,,,,,,,,,,,m,0,0.632,,,,,,,,0.075555556,-0.382222222,0,0,0,,0,135,135,99,1,BACKY,C,old,z,./images/BACKY.png,,,,,,,,,,,,,,,,,,,,,,
,,,,,,,,,,,,,,,,,199150,19,2022-01-29_15h45.13.800,lexical_decision_task_DD,2021.2.3,MacIntel,62.5,,,,,,,,,,,1.047,1,,,,,,,,,,,,,,z,1,1.047,,,,,,,,0.075555556,-0.382222222,0,0,0,,0,136,136,85,1,CHULK,HB,old,z,./images/CHULKHB.png,,,,,,,,,,,,,,,,,,,,,,
,,,,,,,,,,,,,,,,,199150,19,2022-01-29_15h45.13.800,lexical_decision_task_DD,2021.2.3,MacIntel,62.5,,,,,,,,,,,0.928,1,,,,,,,,,,,,,,z,1,0.928,,,,,,,,0.075555556,-0.382222222,0,0,0,,0,137,137,139,1,BLEAR,HB,old,z,./images/BLEARHB.png,,,,,,,,,,,,,,,,,,,,,,
,,,,,,,,,,,,,,,,,199150,19,2022-01-29_15h45.13.800,lexical_decision_task_DD,2021.2.3,MacIntel,62.5,,,,,,,,,,,0.98,1,,,,,,,,,,,,,,z,1,0.98,,,,,,,,0.075555556,-0.382222222,0,0,0,,0,138,138,94,1,BLANS,HB,old,z,./images/BLANSHB.png,,,,,,,,,,,,,,,,,,,,,,
,,,,,,,,,,,,,,,,,199150,19,2022-01-29_15h45.13.800,lexical_decision_task_DD,2021.2.3,MacIntel,62.5,,,,,,,,,,,0.882,1,,,,,,,,,,,,,,z,1,0.882,,,,,,,,0.075555556,-0.382222222,0,0,0,,0,139,139,88,1,GLUSH,HB,old,z,./images/GLUSHHB.png,,,,,,,,,,,,,,,,,,,,,,
,,,,,,,,,,,,,,,,,199150,19,2022-01-29_15h45.13.800,lexical_decision_task_DD,2021.2.3,MacIntel,62.5,,,,,,,,,,,1.647,1,,,,,,,,,,,,,,m,1,1.647,,,,,,,,0.075555556,-0.382222222,0,0,0,,0,140,140,43,1,MOSQUE,HB,old,m,./images/MOSQUEHB.png,,,,,,,,,,,,,,,,,,,,,,
,,,,,,,,,,,,,,,,,199150,19,2022-01-29_15h45.13.800,lexical_decision_task_DD,2021.2.3,MacIntel,62.5,,,,,,,,,,,0.862,1,,,,,,,,,,,,,,z,1,0.862,,,,,,,,0.075555556,-0.382222222,0,0,0,,0,141,141,119,1,PAFER,LB,old,z,./images/PAFERLB.png,,,,,,,,,,,,,,,,,,,,,,
,,,,,,,,,,,,,,,,,199150,19,2022-01-29_15h45.13.800,lexical_decision_task_DD,2021.2.3,MacIntel,62.5,,,,,,,,,,,0.681,1,,,,,,,,,,,,,,z,1,0.681,,,,,,,,0.075555556,-0.382222222,0,0,0,,0,142,142,138,1,PLICE,C,old,z,./images/PLICE.png,,,,,,,,,,,,,,,,,,,,,,
,,,,,,,,,,,,,,,,,199150,19,2022-01-29_15h45.13.800,lexical_decision_task_DD,2021.2.3,MacIntel,62.5,,,,,,,,,,,0.613,1,,,,,,,,,,,,,,m,1,0.613,,,,,,,,0.075555556,-0.382222222,0,0,0,,0,143,143,69,1,COOKER,C,old,m,./images/COOKER.png,,,,,,,,,,,,,,,,,,,,,,
,,,,,,,,,,,,,,,,,199150,19,2022-01-29_15h45.13.800,lexical_decision_task_DD,2021.2.3,MacIntel,62.5,,,,,,,,,,,0.614,1,,,,,,,,,,,,,,m,1,0.614,,,,,,,,0.075555556,-0.382222222,0,0,0,,0,144,144,80,1,WEASEL,LB,old,m,./images/WEASELLB.png,,,,,,,,,,,,,,,,,,,,,,
,,,,,,,,,,,,,,,,,199150,19,2022-01-29_15h45.13.800,lexical_decision_task_DD,2021.2.3,MacIntel,62.5,,,,,,,,,,,1.788,1,,,,,,,,,,,,,,z,1,1.788,,,,,,,,0.075555556,-0.382222222,0,0,0,,0,145,145,98,1,BAMPS,LB,old,z,./images/BAMPSLB.png,,,,,,,,,,,,,,,,,,,,,,
,,,,,,,,,,,,,,,,,199150,19,2022-01-29_15h45.13.800,lexical_decision_task_DD,2021.2.3,MacIntel,62.5,,,,,,,,,,,0.88,1,,,,,,,,,,,,,,z,1,0.88,,,,,,,,0.075555556,-0.382222222,0,0,0,,0,146,146,95,1,HANTY,LB,old,z,./images/HANTYLB.png,,,,,,,,,,,,,,,,,,,,,,
,,,,,,,,,,,,,,,,,199150,19,2022-01-29_15h45.13.800,lexical_decision_task_DD,2021.2.3,MacIntel,62.5,,,,,,,,,,,0.717,1,,,,,,,,,,,,,,m,1,0.717,,,,,,,,0.075555556,-0.382222222,0,0,0,,0,147,147,23,1,WALRUS,LB,old,m,./images/WALRUSLB.png,,,,,,,,,,,,,,,,,,,,,,
,,,,,,,,,,,,,,,,,199150,19,2022-01-29_15h45.13.800,lexical_decision_task_DD,2021.2.3,MacIntel,62.5,,,,,,,,,,,0.679,1,,,,,,,,,,,,,,z,1,0.679,,,,,,,,0.075555556,-0.382222222,0,0,0,,0,148,148,87,1,TRING,C,old,z,./images/TRING.png,,,,,,,,,,,,,,,,,,,,,,
,,,,,,,,,,,,,,,,,199150,19,2022-01-29_15h45.13.800,lexical_decision_task_DD,2021.2.3,MacIntel,62.5,,,,,,,,,,,0.868,1,,,,,,,,,,,,,,z,1,0.868,,,,,,,,0.075555556,-0.382222222,0,0,0,,0,149,149,105,1,MOKER,C,old,z,./images/MOKER.png,,,,,,,,,,,,,,,,,,,,,,
,,,,,,,,,,,,,,,,,199150,19,2022-01-29_15h45.13.800,lexical_decision_task_DD,2021.2.3,MacIntel,62.5,,,,,,,,,,,1.435,1,,,,,,,,,,,,,,z,1,1.435,,,,,,,,0.075555556,-0.382222222,0,0,0,,0,150,150,148,1,JOMS,HB,old,z,./images/JOMSHB.png,,,,,,,,,,,,,,,,,,,,,,
,,,,,,,,,,,,,,,,,199150,19,2022-01-29_15h45.13.800,lexical_decision_task_DD,2021.2.3,MacIntel,62.5,,,,,,,,,,,0.746,1,,,,,,,,,,,,,,z,1,0.746,,,,,,,,0.075555556,-0.382222222,0,0,0,,0,151,151,132,1,SCIFF,C,old,z,./images/SCIFF.png,,,,,,,,,,,,,,,,,,,,,,
,,,,,,,,,,,,,,,,,199150,19,2022-01-29_15h45.13.800,lexical_decision_task_DD,2021.2.3,MacIntel,62.5,,,,,,,,,,,1.233,0,,,,,,,,,,,,,,m,0,1.233,,,,,,,,0.075555556,-0.382222222,0,0,0,,0,152,152,130,1,CRILL,HB,old,z,./images/CRILLHB.png,,,,,,,,,,,,,,,,,,,,,,
,,,,,,,,,,,,,,,,,199150,19,2022-01-29_15h45.13.800,lexical_decision_task_DD,2021.2.3,MacIntel,62.5,,,,,,,,,,,0.982,1,,,,,,,,,,,,,,z,1,0.982,,,,,,,,0.075555556,-0.382222222,0,0,0,,0,153,153,107,1,FASKS,LB,old,z,./images/FASKSLB.png,,,,,,,,,,,,,,,,,,,,,,
,,,,,,,,,,,,,,,,,199150,19,2022-01-29_15h45.13.800,lexical_decision_task_DD,2021.2.3,MacIntel,62.5,,,,,,,,,,,0.747,1,,,,,,,,,,,,,,m,1,0.747,,,,,,,,0.075555556,-0.382222222,0,0,0,,0,154,154,46,1,PEARL,HB,old,m,./images/PEARLHB.png,,,,,,,,,,,,,,,,,,,,,,
,,,,,,,,,,,,,,,,,199150,19,2022-01-29_15h45.13.800,lexical_decision_task_DD,2021.2.3,MacIntel,62.5,,,,,,,,,,,0.629,1,,,,,,,,,,,,,,z,1,0.629,,,,,,,,0.075555556,-0.382222222,0,0,0,,0,155,155,137,1,JOOST,LB,old,z,./images/JOOSTLB.png,,,,,,,,,,,,,,,,,,,,,,
,,,,,,,,,,,,,,,,,199150,19,2022-01-29_15h45.13.800,lexical_decision_task_DD,2021.2.3,MacIntel,62.5,,,,,,,,,,,1.427,1,,,,,,,,,,,,,,z,1,1.427,,,,,,,,0.075555556,-0.382222222,0,0,0,,0,156,156,157,1,INLER,HB,old,z,./images/INLERHB.png,,,,,,,,,,,,,,,,,,,,,,
,,,,,,,,,,,,,,,,,199150,19,2022-01-29_15h45.13.800,lexical_decision_task_DD,2021.2.3,MacIntel,62.5,,,,,,,,,,,0.772,1,,,,,,,,,,,,,,z,1,0.772,,,,,,,,0.075555556,-0.382222222,0,0,0,,0,157,157,149,1,VEASE,LB,old,z,./images/VEASELB.png,,,,,,,,,,,,,,,,,,,,,,
,,,,,,,,,,,,,,,,,199150,19,2022-01-29_15h45.13.800,lexical_decision_task_DD,2021.2.3,MacIntel,62.5,,,,,,,,,,,0.614,1,,,,,,,,,,,,,,z,1,0.614,,,,,,,,0.075555556,-0.382222222,0,0,0,,0,158,158,102,1,DULLE,C,old,z,./images/DULLE.png,,,,,,,,,,,,,,,,,,,,,,
,,,,,,,,,,,,,,,,,199150,19,2022-01-29_15h45.13.800,lexical_decision_task_DD,2021.2.3,MacIntel,62.5,,,,,,,,,,,0.708,1,,,,,,,,,,,,,,m,1,0.708,,,,,,,,0.075555556,-0.382222222,0,0,0,,0,159,159,47,1,BERRY,LB,old,m,./images/BERRYLB.png,,,,,,,,,,,,,,,,,,,,,,
,,,,,,,,,,,,,,,,,199150,19,2022-01-29_15h45.13.800,lexical_decision_task_DD,2021.2.3,MacIntel,62.5,,,,,,,,,,,0.563,1,,,,,,,,,,,,,,m,1,0.563,,,,,,,,0.075555556,-0.382222222,0,0,0,,0,160,160,24,1,SCREW,C,old,m,./images/SCREW.png,,,,,,,,,,,,,,,,,,,,,,
,,,,,,,,,,,,,,,,,199150,19,2022-01-29_15h45.13.800,lexical_decision_task_DD,2021.2.3,MacIntel,62.5,,,,,,,,,,,0.639,1,,,,,,,,,,,,,,m,1,0.639,,,,,,,,0.075555556,-0.382222222,0,0,0,,0,161,161,7,1,PAINT,HB,old,m,./images/PAINTHB.png,,,,,,,,,,,,,,,,,,,,,,
,,,,,,,,,,,,,,,,,199150,19,2022-01-29_15h45.13.800,lexical_decision_task_DD,2021.2.3,MacIntel,62.5,,,,,,,,,,,0.665,1,,,,,,,,,,,,,,m,1,0.665,,,,,,,,0.075555556,-0.382222222,0,0,0,,0,162,162,49,1,DRUMS,HB,old,m,./images/DRUMSHB.png,,,,,,,,,,,,,,,,,,,,,,
,,,,,,,,,,,,,,,,,199150,19,2022-01-29_15h45.13.800,lexical_decision_task_DD,2021.2.3,MacIntel,62.5,,,,,,,,,,,0.77,1,,,,,,,,,,,,,,z,1,0.77,,,,,,,,0.075555556,-0.382222222,0,0,0,,0,163,163,151,1,TINKY,HB,old,z,./images/TINKYHB.png,,,,,,,,,,,,,,,,,,,,,,
,,,,,,,,,,,,,,,,,199150,19,2022-01-29_15h45.13.800,lexical_decision_task_DD,2021.2.3,MacIntel,62.5,,,,,,,,,,,0.95,1,,,,,,,,,,,,,,z,1,0.95,,,,,,,,0.075555556,-0.382222222,0,0,0,,0,164,164,142,1,PLASK,HB,old,z,./images/PLASKHB.png,,,,,,,,,,,,,,,,,,,,,,
,,,,,,,,,,,,,,,,,199150,19,2022-01-29_15h45.13.800,lexical_decision_task_DD,2021.2.3,MacIntel,62.5,,,,,,,,,,,0.991,1,,,,,,,,,,,,,,m,1,0.991,,,,,,,,0.075555556,-0.382222222,0,0,0,,0,165,165,17,1,SKIING,LB,old,m,./images/SKIINGLB.png,,,,,,,,,,,,,,,,,,,,,,
,,,,,,,,,,,,,,,,,199150,19,2022-01-29_15h45.13.800,lexical_decision_task_DD,2021.2.3,MacIntel,62.5,,,,,,,,,,,0.731,1,,,,,,,,,,,,,,z,1,0.731,,,,,,,,0.075555556,-0.382222222,0,0,0,,0,166,166,113,1,LINEW,LB,old,z,./images/LINEWLB.png,,,,,,,,,,,,,,,,,,,,,,
,,,,,,,,,,,,,,,,,199150,19,2022-01-29_15h45.13.800,lexical_decision_task_DD,2021.2.3,MacIntel,62.5,,,,,,,,,,,1.261,1,,,,,,,,,,,,,,z,1,1.261,,,,,,,,0.075555556,-0.382222222,0,0,0,,0,167,167,117,1,STEEG,C,old,z,./images/STEEG.png,,,,,,,,,,,,,,,,,,,,,,
,0.086666667,-0.373333333,1,0,0,instr_done_button,,,,,,1,test,"In the next phase you will be presented with the words from the the first phase. Your job is to decide whether you remember seeing the word or not. If you remember seeing the word press ""old"" or type ""m"". If you do not remember seeing the word press ""new"" or type ""z"". Please press the space bar or click on continue to begin. ",,,199150,19,2022-01-29_15h45.13.800,lexical_decision_task_DD,2021.2.3,MacIntel,62.5,,,,,,,,,,,,,,,,,,,,,,,,,,,,,,,,,,,,,,,,,,,,,,,,,,,,,0,0,0,0,1,,,,,,,,,,,,,,,,
,0.082222222,-0.373333333,1,0,0,instr_done_button,,,,,,1,test,"In the next phase you will be presented with the words from the the first phase. Your job is to decide whether you remember seeing the word or not. If you remember seeing the word press ""old"" or type ""m"". If you do not remember seeing the word press ""new"" or type ""z"". Please press the space bar or click on continue to begin. ",,,199150,19,2022-01-29_15h45.13.800,lexical_decision_task_DD,2021.2.3,MacIntel,62.5,,,,,,,,,,,,,,,,,,,,,,,,,,,,,,,,,,,,,,,,,,,,,,,,,,,,,1,0,1,0,1,,,,,,,,,,,,,,,,
,0.063333333,-0.381111111,1,0,0,instr_done_button,,,,,,1,test,"In the next phase you will be presented with the words from the the first phase. Your job is to decide whether you remember seeing the word or not. If you remember seeing the word press ""old"" or type ""m"". If you do not remember seeing the word press ""new"" or type ""z"". Please press the space bar or click on continue to begin. ",,,199150,19,2022-01-29_15h45.13.800,lexical_decision_task_DD,2021.2.3,MacIntel,62.5,,,,,,,,,,,,,,,,,,,,,,,,,,,,,,,,,,,,,,,,,,,,,,,,,,,,,2,0,2,0,1,,,,,,,,,,,,,,,,
space,0.062222222,-0.381111111,0,0,0,,,,,,,1,test,"In the next phase you will be presented with the words from the the first phase. Your job is to decide whether you remember seeing the word or not. If you remember seeing the word press ""old"" or type ""m"". If you do not remember seeing the word press ""new"" or type ""z"". Please press the space bar or click on continue to begin. ",,,199150,19,2022-01-29_15h45.13.800,lexical_decision_task_DD,2021.2.3,MacIntel,62.5,,,,,,,,,,,,,,,,,,,,,,,,,,,,,,,,,,,,,,,,,,,,,,,,,,,,,3,0,3,0,1,0.404,,,,,,,,,,,,,,,
,-0.013333333,-0.428888889,1,0,0,instr_done_button,,,,,,1,test,"In the next phase you will be presented with the words from the the first phase. Your job is to decide whether you remember seeing the word or not. If you remember seeing the word press ""old"" or type ""m"". If you do not remember seeing the word press ""new"" or type ""z"". Please press the space bar or click on continue to begin. ",,,199150,19,2022-01-29_15h45.13.800,lexical_decision_task_DD,2021.2.3,MacIntel,62.5,,,,,,,,,,,,,,,,,,,,,,,,,,,,,,,,,,,,,,,,,,,,,,,,,,,,,4,0,4,0,1,,,,,,,,,,,,,,,,
,,,,,,,,,,,,,,,,,199150,19,2022-01-29_15h45.13.800,lexical_decision_task_DD,2021.2.3,MacIntel,62.5,,,,,,,,,,,1.575,1,,,,,,,,,,,,,,,,,,,,,,,,-0.013333333,-0.424444444,0,0,0,,,,,,,FENCE,LB,z,m,./images/FENCELB.png,,,,,,,,z,1,1.575,,,,,,,,0,0,0,98,1
,,,,,,,,,,,,,,,,,199150,19,2022-01-29_15h45.13.800,lexical_decision_task_DD,2021.2.3,MacIntel,62.5,,,,,,,,,,,1.262,0,,,,,,,,,,,,,,,,,,,,,,,,-0.013333333,-0.424444444,0,0,0,,,,,,,CANDY,C,z,m,./images/CANDY.png,,,,,,,,m,0,1.262,,,,,,,,0,1,1,123,1
,,,,,,,,,,,,,,,,,199150,19,2022-01-29_15h45.13.800,lexical_decision_task_DD,2021.2.3,MacIntel,62.5,,,,,,,,,,,0.873,1,,,,,,,,,,,,,,,,,,,,,,,,-0.013333333,-0.424444444,0,0,0,,,,,,,RAZOR,HB,z,m,./images/RAZORHB.png,,,,,,,,z,1,0.873,,,,,,,,0,2,2,118,1
,,,,,,,,,,,,,,,,,199150,19,2022-01-29_15h45.13.800,lexical_decision_task_DD,2021.2.3,MacIntel,62.5,,,,,,,,,,,0.94,0,,,,,,,,,,,,,,,,,,,,,,,,-0.013333333,-0.424444444,0,0,0,,,,,,,GRAIN,C,m,m,./images/GRAIN.png,,,,,,,,z,0,0.94,,,,,,,,0,3,3,75,1
,,,,,,,,,,,,,,,,,199150,19,2022-01-29_15h45.13.800,lexical_decision_task_DD,2021.2.3,MacIntel,62.5,,,,,,,,,,,0.704,1,,,,,,,,,,,,,,,,,,,,,,,,-0.013333333,-0.424444444,0,0,0,,,,,,,DIVER,C,z,m,./images/DIVER.png,,,,,,,,z,1,0.704,,,,,,,,0,4,4,93,1
,,,,,,,,,,,,,,,,,199150,19,2022-01-29_15h45.13.800,lexical_decision_task_DD,2021.2.3,MacIntel,62.5,,,,,,,,,,,1.037,1,,,,,,,,,,,,,,,,,,,,,,,,-0.013333333,-0.424444444,0,0,0,,,,,,,STAIN,C,z,m,./images/STAIN.png,,,,,,,,z,1,1.037,,,,,,,,0,5,5,90,1
,,,,,,,,,,,,,,,,,199150,19,2022-01-29_15h45.13.800,lexical_decision_task_DD,2021.2.3,MacIntel,62.5,,,,,,,,,,,0.763,1,,,,,,,,,,,,,,,,,,,,,,,,-0.013333333,-0.424444444,0,0,0,,,,,,,CEMENT,LB,m,m,./images/CEMENTLB.png,,,,,,,,m,1,0.763,,,,,,,,0,6,6,74,1
,,,,,,,,,,,,,,,,,199150,19,2022-01-29_15h45.13.800,lexical_decision_task_DD,2021.2.3,MacIntel,62.5,,,,,,,,,,,1.535,1,,,,,,,,,,,,,,,,,,,,,,,,-0.013333333,-0.424444444,0,0,0,,,,,,,STOVE,LB,z,m,./images/STOVELB.png,,,,,,,,z,1,1.535,,,,,,,,0,7,7,86,1
,,,,,,,,,,,,,,,,,199150,19,2022-01-29_15h45.13.800,lexical_decision_task_DD,2021.2.3,MacIntel,62.5,,,,,,,,,,,0.754,1,,,,,,,,,,,,,,,,,,,,,,,,-0.013333333,-0.424444444,0,0,0,,,,,,,JELLY,HB,m,m,./images/JELLYHB.png,,,,,,,,m,1,0.754,,,,,,,,0,8,8,64,1
,,,,,,,,,,,,,,,,,199150,19,2022-01-29_15h45.13.800,lexical_decision_task_DD,2021.2.3,MacIntel,62.5,,,,,,,,,,,0.763,1,,,,,,,,,,,,,,,,,,,,,,,,-0.013333333,-0.424444444,0,0,0,,,,,,,PLANET,LB,z,m,./images/PLANETLB.png,,,,,,,,z,1,0.763,,,,,,,,0,9,9,164,1
,,,,,,,,,,,,,,,,,199150,19,2022-01-29_15h45.13.800,lexical_decision_task_DD,2021.2.3,MacIntel,62.5,,,,,,,,,,,0.982,1,,,,,,,,,,,,,,,,,,,,,,,,-0.013333333,-0.424444444,0,0,0,,,,,,,INFANT,HB,m,m,./images/INFANTHB.png,,,,,,,,m,1,0.982,,,,,,,,0,10,10,76,1
,,,,,,,,,,,,,,,,,199150,19,2022-01-29_15h45.13.800,lexical_decision_task_DD,2021.2.3,MacIntel,62.5,,,,,,,,,,,1.048,1,,,,,,,,,,,,,,,,,,,,,,,,-0.013333333,-0.424444444,0,0,0,,,,,,,FERRY,C,z,m,./images/FERRY.png,,,,,,,,z,1,1.048,,,,,,,,0,11,11,141,1
,,,,,,,,,,,,,,,,,199150,19,2022-01-29_15h45.13.800,lexical_decision_task_DD,2021.2.3,MacIntel,62.5,,,,,,,,,,,0.947,1,,,,,,,,,,,,,,,,,,,,,,,,-0.013333333,-0.424444444,0,0,0,,,,,,,DONKEY,HB,z,m,./images/DONKEYHB.png,,,,,,,,z,1,0.947,,,,,,,,0,12,12,103,1
,,,,,,,,,,,,,,,,,199150,19,2022-01-29_15h45.13.800,lexical_decision_task_DD,2021.2.3,MacIntel,62.5,,,,,,,,,,,1.259,0,,,,,,,,,,,,,,,,,,,,,,,,-0.013333333,-0.424444444,0,0,0,,,,,,,SWING,HB,m,m,./images/SWINGHB.png,,,,,,,,z,0,1.259,,,,,,,,0,13,13,40,1
,,,,,,,,,,,,,,,,,199150,19,2022-01-29_15h45.13.800,lexical_decision_task_DD,2021.2.3,MacIntel,62.5,,,,,,,,,,,1.097,1,,,,,,,,,,,,,,,,,,,,,,,,-0.013333333,-0.424444444,0,0,0,,,,,,,VALLEY,LB,z,m,./images/VALLEYLB.png,,,,,,,,z,1,1.097,,,,,,,,0,14,14,152,1
,,,,,,,,,,,,,,,,,199150,19,2022-01-29_15h45.13.800,lexical_decision_task_DD,2021.2.3,MacIntel,62.5,,,,,,,,,,,1.629,1,,,,,,,,,,,,,,,,,,,,,,,,-0.013333333,-0.424444444,0,0,0,,,,,,,BRUSH,LB,z,m,./images/BRUSHLB.png,,,,,,,,z,1,1.629,,,,,,,,0,15,15,143,1
,,,,,,,,,,,,,,,,,199150,19,2022-01-29_15h45.13.800,lexical_decision_task_DD,2021.2.3,MacIntel,62.5,,,,,,,,,,,0.65,1,,,,,,,,,,,,,,,,,,,,,,,,-0.013333333,-0.424444444,0,0,0,,,,,,,SCREW,C,m,m,./images/SCREW.png,,,,,,,,m,1,0.65,,,,,,,,0,16,16,24,1
,,,,,,,,,,,,,,,,,199150,19,2022-01-29_15h45.13.800,lexical_decision_task_DD,2021.2.3,MacIntel,62.5,,,,,,,,,,,1.102,0,,,,,,,,,,,,,,,,,,,,,,,,-0.013333333,-0.424444444,0,0,0,,,,,,,ARROW,C,z,m,./images/ARROW.png,,,,,,,,m,0,1.102,,,,,,,,0,17,17,153,1
,,,,,,,,,,,,,,,,,199150,19,2022-01-29_15h45.13.800,lexical_decision_task_DD,2021.2.3,MacIntel,62.5,,,,,,,,,,,0.87,0,,,,,,,,,,,,,,,,,,,,,,,,-0.013333333,-0.424444444,0,0,0,,,,,,,FOLDER,C,m,m,./images/FOLDER.png,,,,,,,,z,0,0.87,,,,,,,,0,18,18,42,1
,,,,,,,,,,,,,,,,,199150,19,2022-01-29_15h45.13.800,lexical_decision_task_DD,2021.2.3,MacIntel,62.5,,,,,,,,,,,1.593,1,,,,,,,,,,,,,,,,,,,,,,,,-0.013333333,-0.424444444,0,0,0,,,,,,,PARCEL,C,z,m,./images/PARCEL.png,,,,,,,,z,1,1.593,,,,,,,,0,19,19,102,1
,,,,,,,,,,,,,,,,,199150,19,2022-01-29_15h45.13.800,lexical_decision_task_DD,2021.2.3,MacIntel,62.5,,,,,,,,,,,1.078,1,,,,,,,,,,,,,,,,,,,,,,,,-0.013333333,-0.424444444,0,0,0,,,,,,,POODLE,C,m,m,./images/POODLE.png,,,,,,,,m,1,1.078,,,,,,,,0,20,20,81,1
,,,,,,,,,,,,,,,,,199150,19,2022-01-29_15h45.13.800,lexical_decision_task_DD,2021.2.3,MacIntel,62.5,,,,,,,,,,,1.194,0,,,,,,,,,,,,,,,,,,,,,,,,-0.013333333,-0.424444444,0,0,0,,,,,,,CLOUD,LB,z,m,./images/CLOUDLB.png,,,,,,,,m,0,1.194,,,,,,,,0,21,21,110,1
,,,,,,,,,,,,,,,,,199150,19,2022-01-29_15h45.13.800,lexical_decision_task_DD,2021.2.3,MacIntel,62.5,,,,,,,,,,,1.035,1,,,,,,,,,,,,,,,,,,,,,,,,-0.013333333,-0.424444444,0,0,0,,,,,,,SHIELD,C,z,m,./images/SHIELD.png,,,,,,,,z,1,1.035,,,,,,,,0,22,22,132,1
,,,,,,,,,,,,,,,,,199150,19,2022-01-29_15h45.13.800,lexical_decision_task_DD,2021.2.3,MacIntel,62.5,,,,,,,,,,,0.777,1,,,,,,,,,,,,,,,,,,,,,,,,-0.013333333,-0.424444444,0,0,0,,,,,,,TOMATO,C,m,m,./images/TOMATO.png,,,,,,,,m,1,0.777,,,,,,,,0,23,23,0,1
,,,,,,,,,,,,,,,,,199150,19,2022-01-29_15h45.13.800,lexical_decision_task_DD,2021.2.3,MacIntel,62.5,,,,,,,,,,,0.964,1,,,,,,,,,,,,,,,,,,,,,,,,-0.013333333,-0.424444444,0,0,0,,,,,,,TIGER,HB,z,m,./images/TIGERHB.png,,,,,,,,z,1,0.964,,,,,,,,0,24,24,121,1
,,,,,,,,,,,,,,,,,199150,19,2022-01-29_15h45.13.800,lexical_decision_task_DD,2021.2.3,MacIntel,62.5,,,,,,,,,,,1.095,0,,,,,,,,,,,,,,,,,,,,,,,,-0.013333333,-0.424444444,0,0,0,,,,,,,BANANA,HB,z,m,./images/BANANAHB.png,,,,,,,,m,0,1.095,,,,,,,,0,25,25,154,1
,,,,,,,,,,,,,,,,,199150,19,2022-01-29_15h45.13.800,lexical_decision_task_DD,2021.2.3,MacIntel,62.5,,,,,,,,,,,1.098,1,,,,,,,,,,,,,,,,,,,,,,,,-0.013333333,-0.424444444,0,0,0,,,,,,,LADDER,LB,m,m,./images/LADDERLB.png,,,,,,,,m,1,1.098,,,,,,,,0,26,26,38,1
,,,,,,,,,,,,,,,,,199150,19,2022-01-29_15h45.13.800,lexical_decision_task_DD,2021.2.3,MacIntel,62.5,,,,,,,,,,,0.152,0,,,,,,,,,,,,,,,,,,,,,,,,-0.013333333,-0.424444444,0,0,0,,,,,,,TOWEL,HB,z,m,./images/TOWELHB.png,,,,,,,,m,0,0.152,,,,,,,,0,27,27,85,1
,,,,,,,,,,,,,,,,,199150,19,2022-01-29_15h45.13.800,lexical_decision_task_DD,2021.2.3,MacIntel,62.5,,,,,,,,,,,0.921,1,,,,,,,,,,,,,,,,,,,,,,,,-0.013333333,-0.424444444,0,0,0,,,,,,,CANDLE,HB,m,m,./images/CANDLEHB.png,,,,,,,,m,1,0.921,,,,,,,,0,28,28,61,1
,,,,,,,,,,,,,,,,,199150,19,2022-01-29_15h45.13.800,lexical_decision_task_DD,2021.2.3,MacIntel,62.5,,,,,,,,,,,0.769,1,,,,,,,,,,,,,,,,,,,,,,,,-0.013333333,-0.424444444,0,0,0,,,,,,,FLESH,C,z,m,./images/FLESH.png,,,,,,,,z,1,0.769,,,,,,,,0,29,29,108,1
,,,,,,,,,,,,,,,,,199150,19,2022-01-29_15h45.13.800,lexical_decision_task_DD,2021.2.3,MacIntel,62.5,,,,,,,,,,,0.978,1,,,,,,,,,,,,,,,,,,,,,,,,-0.013333333,-0.424444444,0,0,0,,,,,,,BROOM,C,z,m,./images/BROOM.png,,,,,,,,z,1,0.978,,,,,,,,0,30,30,162,1
,,,,,,,,,,,,,,,,,199150,19,2022-01-29_15h45.13.800,lexical_decision_task_DD,2021.2.3,MacIntel,62.5,,,,,,,,,,,0.648,1,,,,,,,,,,,,,,,,,,,,,,,,-0.013333333,-0.424444444,0,0,0,,,,,,,BEARD,LB,m,m,./images/BEARDLB.png,,,,,,,,m,1,0.648,,,,,,,,0,31,31,2,1
,,,,,,,,,,,,,,,,,199150,19,2022-01-29_15h45.13.800,lexical_decision_task_DD,2021.2.3,MacIntel,62.5,,,,,,,,,,,0.586,1,,,,,,,,,,,,,,,,,,,,,,,,-0.013333333,-0.424444444,0,0,0,,,,,,,FARMER,LB,m,m,./images/FARMERLB.png,,,,,,,,m,1,0.586,,,,,,,,0,32,32,65,1
,,,,,,,,,,,,,,,,,199150,19,2022-01-29_15h45.13.800,lexical_decision_task_DD,2021.2.3,MacIntel,62.5,,,,,,,,,,,0.652,1,,,,,,,,,,,,,,,,,,,,,,,,-0.013333333,-0.424444444,0,0,0,,,,,,,BARREL,LB,m,m,./images/BARRELLB.png,,,,,,,,m,1,0.652,,,,,,,,0,33,33,32,1
,,,,,,,,,,,,,,,,,199150,19,2022-01-29_15h45.13.800,lexical_decision_task_DD,2021.2.3,MacIntel,62.5,,,,,,,,,,,0.811,1,,,,,,,,,,,,,,,,,,,,,,,,-0.013333333,-0.424444444,0,0,0,,,,,,,BOILER,C,z,m,./images/BOILER.png,,,,,,,,z,1,0.811,,,,,,,,0,34,34,120,1
,,,,,,,,,,,,,,,,,199150,19,2022-01-29_15h45.13.800,lexical_decision_task_DD,2021.2.3,MacIntel,62.5,,,,,,,,,,,0.671,1,,,,,,,,,,,,,,,,,,,,,,,,-0.013333333,-0.424444444,0,0,0,,,,,,,SHORE,C,m,m,./images/SHORE.png,,,,,,,,m,1,0.671,,,,,,,,0,35,35,12,1
,,,,,,,,,,,,,,,,,199150,19,2022-01-29_15h45.13.800,lexical_decision_task_DD,2021.2.3,MacIntel,62.5,,,,,,,,,,,0.635,1,,,,,,,,,,,,,,,,,,,,,,,,-0.013333333,-0.424444444,0,0,0,,,,,,,LIZARD,LB,m,m,./images/LIZARDLB.png,,,,,,,,m,1,0.635,,,,,,,,0,36,36,44,1
,,,,,,,,,,,,,,,,,199150,19,2022-01-29_15h45.13.800,lexical_decision_task_DD,2021.2.3,MacIntel,62.5,,,,,,,,,,,0.831,1,,,,,,,,,,,,,,,,,,,,,,,,-0.013333333,-0.424444444,0,0,0,,,,,,,SQUARE,C,m,m,./images/SQUARE.png,,,,,,,,m,1,0.831,,,,,,,,0,37,37,6,1
,,,,,,,,,,,,,,,,,199150,19,2022-01-29_15h45.13.800,lexical_decision_task_DD,2021.2.3,MacIntel,62.5,,,,,,,,,,,0.96,1,,,,,,,,,,,,,,,,,,,,,,,,-0.013333333,-0.424444444,0,0,0,,,,,,,SMOKER,LB,m,m,./images/SMOKERLB.png,,,,,,,,m,1,0.96,,,,,,,,0,38,38,26,1
,,,,,,,,,,,,,,,,,199150,19,2022-01-29_15h45.13.800,lexical_decision_task_DD,2021.2.3,MacIntel,62.5,,,,,,,,,,,1.251,1,,,,,,,,,,,,,,,,,,,,,,,,-0.013333333,-0.424444444,0,0,0,,,,,,,STRING,LB,m,m,./images/STRINGLB.png,,,,,,,,m,1,1.251,,,,,,,,0,39,39,41,1
,,,,,,,,,,,,,,,,,199150,19,2022-01-29_15h45.13.800,lexical_decision_task_DD,2021.2.3,MacIntel,62.5,,,,,,,,,,,1.946,1,,,,,,,,,,,,,,,,,,,,,,,,-0.013333333,-0.424444444,0,0,0,,,,,,,BUTTER,C,z,m,./images/BUTTER.png,,,,,,,,z,1,1.946,,,,,,,,0,40,40,111,1
,,,,,,,,,,,,,,,,,199150,19,2022-01-29_15h45.13.800,lexical_decision_task_DD,2021.2.3,MacIntel,62.5,,,,,,,,,,,0.902,1,,,,,,,,,,,,,,,,,,,,,,,,-0.004444444,-0.344444444,0,0,0,space,,,,,,BUNNY,HB,z,m,./images/BUNNYHB.png,2,,,,,,,z,1,0.902,,,,,,,,0,41,41,97,1
,,,,,,,,,,,,,,,,,199150,19,2022-01-29_15h45.13.800,lexical_decision_task_DD,2021.2.3,MacIntel,62.5,,,,,,,,,,,0.779,1,,,,,,,,,,,,,,,,,,,,,,,,-0.004444444,-0.344444444,0,0,0,,,,,,,WRIST,HB,m,m,./images/WRISTHB.png,,,,,,,,m,1,0.779,,,,,,,,0,42,42,25,1
,,,,,,,,,,,,,,,,,199150,19,2022-01-29_15h45.13.800,lexical_decision_task_DD,2021.2.3,MacIntel,62.5,,,,,,,,,,,0.762,1,,,,,,,,,,,,,,,,,,,,,,,,-0.004444444,-0.344444444,0,0,0,,,,,,,SAUNA,C,z,m,./images/SAUNA.png,,,,,,,,z,1,0.762,,,,,,,,0,43,43,117,1
,,,,,,,,,,,,,,,,,199150,19,2022-01-29_15h45.13.800,lexical_decision_task_DD,2021.2.3,MacIntel,62.5,,,,,,,,,,,1.229,1,,,,,,,,,,,,,,,,,,,,,,,,-0.004444444,-0.344444444,0,0,0,,,,,,,MAMMAL,LB,z,m,./images/MAMMALLB.png,,,,,,,,z,1,1.229,,,,,,,,0,44,44,146,1
,,,,,,,,,,,,,,,,,199150,19,2022-01-29_15h45.13.800,lexical_decision_task_DD,2021.2.3,MacIntel,62.5,,,,,,,,,,,0.916,1,,,,,,,,,,,,,,,,,,,,,,,,-0.004444444,-0.344444444,0,0,0,,,,,,,KIDNEY,C,m,m,./images/KIDNEY.png,,,,,,,,m,1,0.916,,,,,,,,0,45,45,21,1
,,,,,,,,,,,,,,,,,199150,19,2022-01-29_15h45.13.800,lexical_decision_task_DD,2021.2.3,MacIntel,62.5,,,,,,,,,,,1.047,1,,,,,,,,,,,,,,,,,,,,,,,,-0.004444444,-0.344444444,0,0,0,,,,,,,CHAIN,C,z,m,./images/CHAIN.png,,,,,,,,z,1,1.047,,,,,,,,0,46,46,126,1
,,,,,,,,,,,,,,,,,199150,19,2022-01-29_15h45.13.800,lexical_decision_task_DD,2021.2.3,MacIntel,62.5,,,,,,,,,,,0.596,1,,,,,,,,,,,,,,,,,,,,,,,,-0.004444444,-0.344444444,0,0,0,,,,,,,JAGUAR,C,m,m,./images/JAGUAR.png,,,,,,,,m,1,0.596,,,,,,,,0,47,47,18,1
,,,,,,,,,,,,,,,,,199150,19,2022-01-29_15h45.13.800,lexical_decision_task_DD,2021.2.3,MacIntel,62.5,,,,,,,,,,,0.744,1,,,,,,,,,,,,,,,,,,,,,,,,-0.004444444,-0.344444444,0,0,0,,,,,,,GRANNY,LB,z,m,./images/GRANNYLB.png,,,,,,,,z,1,0.744,,,,,,,,0,48,48,104,1
,,,,,,,,,,,,,,,,,199150,19,2022-01-29_15h45.13.800,lexical_decision_task_DD,2021.2.3,MacIntel,62.5,,,,,,,,,,,0.898,1,,,,,,,,,,,,,,,,,,,,,,,,-0.004444444,-0.344444444,0,0,0,,,,,,,WHEEL,LB,z,m,./images/WHEELLB.png,,,,,,,,z,1,0.898,,,,,,,,0,49,49,161,1
,,,,,,,,,,,,,,,,,199150,19,2022-01-29_15h45.13.800,lexical_decision_task_DD,2021.2.3,MacIntel,62.5,,,,,,,,,,,0.81,1,,,,,,,,,,,,,,,,,,,,,,,,-0.004444444,-0.344444444,0,0,0,,,,,,,BRIDE,HB,z,m,./images/BRIDEHB.png,,,,,,,,z,1,0.81,,,,,,,,0,50,50,148,1
,,,,,,,,,,,,,,,,,199150,19,2022-01-29_15h45.13.800,lexical_decision_task_DD,2021.2.3,MacIntel,62.5,,,,,,,,,,,1.017,1,,,,,,,,,,,,,,,,,,,,,,,,-0.004444444,-0.344444444,0,0,0,,,,,,,CLOWN,HB,z,m,./images/CLOWNHB.png,,,,,,,,z,1,1.017,,,,,,,,0,51,51,106,1
,,,,,,,,,,,,,,,,,199150,19,2022-01-29_15h45.13.800,lexical_decision_task_DD,2021.2.3,MacIntel,62.5,,,,,,,,,,,0.844,1,,,,,,,,,,,,,,,,,,,,,,,,-0.004444444,-0.344444444,0,0,0,,,,,,,MUSCLE,HB,m,m,./images/MUSCLEHB.png,,,,,,,,m,1,0.844,,,,,,,,0,52,52,4,1
,,,,,,,,,,,,,,,,,199150,19,2022-01-29_15h45.13.800,lexical_decision_task_DD,2021.2.3,MacIntel,62.5,,,,,,,,,,,1.364,0,,,,,,,,,,,,,,,,,,,,,,,,-0.004444444,-0.344444444,0,0,0,,,,,,,BUBBLE,LB,z,m,./images/BUBBLELB.png,,,,,,,,m,0,1.364,,,,,,,,0,53,53,155,1
,,,,,,,,,,,,,,,,,199150,19,2022-01-29_15h45.13.800,lexical_decision_task_DD,2021.2.3,MacIntel,62.5,,,,,,,,,,,0.681,1,,,,,,,,,,,,,,,,,,,,,,,,-0.004444444,-0.344444444,0,0,0,,,,,,,TULIP,LB,m,m,./images/TULIPLB.png,,,,,,,,m,1,0.681,,,,,,,,0,54,54,8,1
,,,,,,,,,,,,,,,,,199150,19,2022-01-29_15h45.13.800,lexical_decision_task_DD,2021.2.3,MacIntel,62.5,,,,,,,,,,,0.865,1,,,,,,,,,,,,,,,,,,,,,,,,-0.004444444,-0.344444444,0,0,0,,,,,,,BABOON,HB,m,m,./images/BABOONHB.png,,,,,,,,m,1,0.865,,,,,,,,0,55,55,58,1
,,,,,,,,,,,,,,,,,199150,19,2022-01-29_15h45.13.800,lexical_decision_task_DD,2021.2.3,MacIntel,62.5,,,,,,,,,,,0.567,1,,,,,,,,,,,,,,,,,,,,,,,,-0.004444444,-0.344444444,0,0,0,,,,,,,MOOSE,C,m,m,./images/MOOSE.png,,,,,,,,m,1,0.567,,,,,,,,0,56,56,57,1
,,,,,,,,,,,,,,,,,199150,19,2022-01-29_15h45.13.800,lexical_decision_task_DD,2021.2.3,MacIntel,62.5,,,,,,,,,,,0.836,1,,,,,,,,,,,,,,,,,,,,,,,,-0.004444444,-0.344444444,0,0,0,,,,,,,TWINS,C,m,m,./images/TWINS.png,,,,,,,,m,1,0.836,,,,,,,,0,57,57,60,1
,,,,,,,,,,,,,,,,,199150,19,2022-01-29_15h45.13.800,lexical_decision_task_DD,2021.2.3,MacIntel,62.5,,,,,,,,,,,2.348,1,,,,,,,,,,,,,,,,,,,,,,,,-0.004444444,-0.344444444,0,0,0,,,,,,,GLOVE,HB,z,m,./images/GLOVEHB.png,,,,,,,,z,1,2.348,,,,,,,,0,58,58,157,1
,,,,,,,,,,,,,,,,,199150,19,2022-01-29_15h45.13.800,lexical_decision_task_DD,2021.2.3,MacIntel,62.5,,,,,,,,,,,0.888,0,,,,,,,,,,,,,,,,,,,,,,,,-0.004444444,-0.344444444,0,0,0,,,,,,,BURIAL,LB,m,m,./images/BURIALLB.png,,,,,,,,z,0,0.888,,,,,,,,0,59,59,59,1
,,,,,,,,,,,,,,,,,199150,19,2022-01-29_15h45.13.800,lexical_decision_task_DD,2021.2.3,MacIntel,62.5,,,,,,,,,,,0.609,0,,,,,,,,,,,,,,,,,,,,,,,,-0.004444444,-0.344444444,0,0,0,,,,,,,BAMBOO,LB,z,m,./images/BAMBOOLB.png,,,,,,,,m,0,0.609,,,,,,,,0,60,60,89,1
,,,,,,,,,,,,,,,,,199150,19,2022-01-29_15h45.13.800,lexical_decision_task_DD,2021.2.3,MacIntel,62.5,,,,,,,,,,,0.66,0,,,,,,,,,,,,,,,,,,,,,,,,-0.004444444,-0.344444444,0,0,0,,,,,,,CHERRY,C,z,m,./images/CHERRY.png,,,,,,,,m,0,0.66,,,,,,,,0,61,61,138,1
,,,,,,,,,,,,,,,,,199150,19,2022-01-29_15h45.13.800,lexical_decision_task_DD,2021.2.3,MacIntel,62.5,,,,,,,,,,,0.664,1,,,,,,,,,,,,,,,,,,,,,,,,-0.004444444,-0.344444444,0,0,0,,,,,,,MIRROR,C,m,m,./images/MIRROR.png,,,,,,,,m,1,0.664,,,,,,,,0,62,62,63,1
,,,,,,,,,,,,,,,,,199150,19,2022-01-29_15h45.13.800,lexical_decision_task_DD,2021.2.3,MacIntel,62.5,,,,,,,,,,,0.75,0,,,,,,,,,,,,,,,,,,,,,,,,-0.004444444,-0.344444444,0,0,0,,,,,,,PASTA,LB,m,m,./images/PASTALB.png,,,,,,,,z,0,0.75,,,,,,,,0,63,63,5,1
,,,,,,,,,,,,,,,,,199150,19,2022-01-29_15h45.13.800,lexical_decision_task_DD,2021.2.3,MacIntel,62.5,,,,,,,,,,,0.897,0,,,,,,,,,,,,,,,,,,,,,,,,-0.004444444,-0.344444444,0,0,0,,,,,,,JUNGLE,LB,m,m,./images/JUNGLELB.png,,,,,,,,z,0,0.897,,,,,,,,0,64,64,83,1
,,,,,,,,,,,,,,,,,199150,19,2022-01-29_15h45.13.800,lexical_decision_task_DD,2021.2.3,MacIntel,62.5,,,,,,,,,,,0.631,1,,,,,,,,,,,,,,,,,,,,,,,,-0.004444444,-0.344444444,0,0,0,,,,,,,SUNSET,HB,m,m,./images/SUNSETHB.png,,,,,,,,m,1,0.631,,,,,,,,0,65,65,82,1
,,,,,,,,,,,,,,,,,199150,19,2022-01-29_15h45.13.800,lexical_decision_task_DD,2021.2.3,MacIntel,62.5,,,,,,,,,,,1.182,1,,,,,,,,,,,,,,,,,,,,,,,,-0.004444444,-0.344444444,0,0,0,,,,,,,CRATER,C,z,m,./images/CRATER.png,,,,,,,,z,1,1.182,,,,,,,,0,66,66,87,1
,,,,,,,,,,,,,,,,,199150,19,2022-01-29_15h45.13.800,lexical_decision_task_DD,2021.2.3,MacIntel,62.5,,,,,,,,,,,0.896,1,,,,,,,,,,,,,,,,,,,,,,,,-0.004444444,-0.344444444,0,0,0,,,,,,,COOKER,C,m,m,./images/COOKER.png,,,,,,,,m,1,0.896,,,,,,,,0,67,67,69,1
,,,,,,,,,,,,,,,,,199150,19,2022-01-29_15h45.13.800,lexical_decision_task_DD,2021.2.3,MacIntel,62.5,,,,,,,,,,,0.986,0,,,,,,,,,,,,,,,,,,,,,,,,-0.004444444,-0.344444444,0,0,0,,,,,,,BELLY,HB,m,m,./images/BELLYHB.png,,,,,,,,z,0,0.986,,,,,,,,0,68,68,10,1
,,,,,,,,,,,,,,,,,199150,19,2022-01-29_15h45.13.800,lexical_decision_task_DD,2021.2.3,MacIntel,62.5,,,,,,,,,,,1.604,1,,,,,,,,,,,,,,,,,,,,,,,,-0.004444444,-0.344444444,0,0,0,,,,,,,STOOL,HB,z,m,./images/STOOLHB.png,,,,,,,,z,1,1.604,,,,,,,,0,69,69,127,1
,,,,,,,,,,,,,,,,,199150,19,2022-01-29_15h45.13.800,lexical_decision_task_DD,2021.2.3,MacIntel,62.5,,,,,,,,,,,2.094,1,,,,,,,,,,,,,,,,,,,,,,,,-0.004444444,-0.344444444,0,0,0,,,,,,,RHINO,C,m,m,./images/RHINO.png,,,,,,,,m,1,2.094,,,,,,,,0,70,70,9,1
,,,,,,,,,,,,,,,,,199150,19,2022-01-29_15h45.13.800,lexical_decision_task_DD,2021.2.3,MacIntel,62.5,,,,,,,,,,,1.764,1,,,,,,,,,,,,,,,,,,,,,,,,-0.004444444,-0.344444444,0,0,0,,,,,,,PAINT,HB,m,m,./images/PAINTHB.png,,,,,,,,m,1,1.764,,,,,,,,0,71,71,7,1
,,,,,,,,,,,,,,,,,199150,19,2022-01-29_15h45.13.800,lexical_decision_task_DD,2021.2.3,MacIntel,62.5,,,,,,,,,,,3.214,1,,,,,,,,,,,,,,,,,,,,,,,,-0.004444444,-0.344444444,0,0,0,,,,,,,BASKET,LB,z,m,./images/BASKETLB.png,,,,,,,,z,1,3.214,,,,,,,,0,72,72,128,1
,,,,,,,,,,,,,,,,,199150,19,2022-01-29_15h45.13.800,lexical_decision_task_DD,2021.2.3,MacIntel,62.5,,,,,,,,,,,1.93,0,,,,,,,,,,,,,,,,,,,,,,,,-0.004444444,-0.344444444,0,0,0,,,,,,,SAUCE,C,z,m,./images/SAUCE.png,,,,,,,,m,0,1.93,,,,,,,,0,73,73,135,1
,,,,,,,,,,,,,,,,,199150,19,2022-01-29_15h45.13.800,lexical_decision_task_DD,2021.2.3,MacIntel,62.5,,,,,,,,,,,0.855,1,,,,,,,,,,,,,,,,,,,,,,,,-0.004444444,-0.344444444,0,0,0,,,,,,,WHISKY,LB,z,m,./images/WHISKYLB.png,,,,,,,,z,1,0.855,,,,,,,,0,74,74,167,1
,,,,,,,,,,,,,,,,,199150,19,2022-01-29_15h45.13.800,lexical_decision_task_DD,2021.2.3,MacIntel,62.5,,,,,,,,,,,0.745,1,,,,,,,,,,,,,,,,,,,,,,,,-0.004444444,-0.344444444,0,0,0,,,,,,,GREASE,C,m,m,./images/GREASE.png,,,,,,,,m,1,0.745,,,,,,,,0,75,75,15,1
,,,,,,,,,,,,,,,,,199150,19,2022-01-29_15h45.13.800,lexical_decision_task_DD,2021.2.3,MacIntel,62.5,,,,,,,,,,,0.964,1,,,,,,,,,,,,,,,,,,,,,,,,-0.004444444,-0.344444444,0,0,0,,,,,,,STORM,C,m,m,./images/STORM.png,,,,,,,,m,1,0.964,,,,,,,,0,76,76,30,1
,,,,,,,,,,,,,,,,,199150,19,2022-01-29_15h45.13.800,lexical_decision_task_DD,2021.2.3,MacIntel,62.5,,,,,,,,,,,2.514,1,,,,,,,,,,,,,,,,,,,,,,,,-0.004444444,-0.344444444,0,0,0,,,,,,,ONION,C,m,m,./images/ONION.png,,,,,,,,m,1,2.514,,,,,,,,0,77,77,51,1
,,,,,,,,,,,,,,,,,199150,19,2022-01-29_15h45.13.800,lexical_decision_task_DD,2021.2.3,MacIntel,62.5,,,,,,,,,,,1.768,1,,,,,,,,,,,,,,,,,,,,,,,,-0.004444444,-0.344444444,0,0,0,,,,,,,ARTIST,HB,z,m,./images/ARTISTHB.png,,,,,,,,z,1,1.768,,,,,,,,0,78,78,145,1
,,,,,,,,,,,,,,,,,199150,19,2022-01-29_15h45.13.800,lexical_decision_task_DD,2021.2.3,MacIntel,62.5,,,,,,,,,,,1.642,1,,,,,,,,,,,,,,,,,,,,,,,,-0.004444444,-0.344444444,0,0,0,,,,,,,THROAT,C,m,m,./images/THROAT.png,,,,,,,,m,1,1.642,,,,,,,,0,79,79,36,1
,,,,,,,,,,,,,,,,,199150,19,2022-01-29_15h45.13.800,lexical_decision_task_DD,2021.2.3,MacIntel,62.5,,,,,,,,,,,0.845,0,,,,,,,,,,,,,,,,,,,,,,,,-0.004444444,-0.344444444,0,0,0,,,,,,,FINGER,C,m,m,./images/FINGER.png,,,,,,,,z,0,0.845,,,,,,,,0,80,80,3,1
,,,,,,,,,,,,,,,,,199150,19,2022-01-29_15h45.13.800,lexical_decision_task_DD,2021.2.3,MacIntel,62.5,,,,,,,,,,,1.601,0,,,,,,,,,,,,,,,,,,,,,,,,-0.004444444,-0.344444444,0,0,0,,,,,,,GRAPE,HB,z,m,./images/GRAPEHB.png,,,,,,,,m,0,1.601,,,,,,,,0,81,81,100,1
,,,,,,,,,,,,,,,,,199150,19,2022-01-29_15h45.13.800,lexical_decision_task_DD,2021.2.3,MacIntel,62.5,,,,,,,,,,,0.783,1,,,,,,,,,,,,,,,,,,,,,,,,-0.004444444,-0.344444444,0,0,0,,,,,,,CANYON,HB,m,m,./images/CANYONHB.png,,,,,,,,m,1,0.783,,,,,,,,0,82,82,34,1
,,,,,,,,,,,,,,,,,199150,19,2022-01-29_15h45.13.800,lexical_decision_task_DD,2021.2.3,MacIntel,62.5,,,,,,,,,,,0.623,1,,,,,,,,,,,,,,,,,,,,,,,,-0.004444444,-0.344444444,0,0,0,space,,,,,,PICKLE,LB,m,m,./images/PICKLELB.png,1.227,,,,,,,m,1,0.623,,,,,,,,0,83,83,14,1
,,,,,,,,,,,,,,,,,199150,19,2022-01-29_15h45.13.800,lexical_decision_task_DD,2021.2.3,MacIntel,62.5,,,,,,,,,,,0.752,1,,,,,,,,,,,,,,,,,,,,,,,,-0.004444444,-0.344444444,0,0,0,,,,,,,BLOKE,C,z,m,./images/BLOKE.png,,,,,,,,z,1,0.752,,,,,,,,0,84,84,96,1
,,,,,,,,,,,,,,,,,199150,19,2022-01-29_15h45.13.800,lexical_decision_task_DD,2021.2.3,MacIntel,62.5,,,,,,,,,,,0.684,1,,,,,,,,,,,,,,,,,,,,,,,,-0.003333333,-0.344444444,0,0,0,,,,,,,BONNET,LB,m,m,./images/BONNETLB.png,,,,,,,,m,1,0.684,,,,,,,,0,85,85,11,1
,,,,,,,,,,,,,,,,,199150,19,2022-01-29_15h45.13.800,lexical_decision_task_DD,2021.2.3,MacIntel,62.5,,,,,,,,,,,0.711,1,,,,,,,,,,,,,,,,,,,,,,,,-0.003333333,-0.344444444,0,0,0,,,,,,,RULER,HB,z,m,./images/RULERHB.png,,,,,,,,z,1,0.711,,,,,,,,0,86,86,163,1
,,,,,,,,,,,,,,,,,199150,19,2022-01-29_15h45.13.800,lexical_decision_task_DD,2021.2.3,MacIntel,62.5,,,,,,,,,,,0.796,0,,,,,,,,,,,,,,,,,,,,,,,,-0.003333333,-0.344444444,0,0,0,,,,,,,NOOSE,C,m,m,./images/NOOSE.png,,,,,,,,z,0,0.796,,,,,,,,0,87,87,72,1
,,,,,,,,,,,,,,,,,199150,19,2022-01-29_15h45.13.800,lexical_decision_task_DD,2021.2.3,MacIntel,62.5,,,,,,,,,,,0.838,1,,,,,,,,,,,,,,,,,,,,,,,,-0.003333333,-0.344444444,0,0,0,,,,,,,ENGINE,LB,z,m,./images/ENGINELB.png,,,,,,,,z,1,0.838,,,,,,,,0,88,88,122,1
,,,,,,,,,,,,,,,,,199150,19,2022-01-29_15h45.13.800,lexical_decision_task_DD,2021.2.3,MacIntel,62.5,,,,,,,,,,,0.8,1,,,,,,,,,,,,,,,,,,,,,,,,-0.003333333,-0.344444444,0,0,0,,,,,,,GARDEN,HB,z,m,./images/GARDENHB.png,,,,,,,,z,1,0.8,,,,,,,,0,89,89,94,1
,,,,,,,,,,,,,,,,,199150,19,2022-01-29_15h45.13.800,lexical_decision_task_DD,2021.2.3,MacIntel,62.5,,,,,,,,,,,0.978,1,,,,,,,,,,,,,,,,,,,,,,,,-0.003333333,-0.344444444,0,0,0,,,,,,,PENCE,HB,m,m,./images/PENCEHB.png,,,,,,,,m,1,0.978,,,,,,,,0,90,90,16,1
,,,,,,,,,,,,,,,,,199150,19,2022-01-29_15h45.13.800,lexical_decision_task_DD,2021.2.3,MacIntel,62.5,,,,,,,,,,,1.131,1,,,,,,,,,,,,,,,,,,,,,,,,-0.003333333,-0.344444444,0,0,0,,,,,,,MOSQUE,HB,m,m,./images/MOSQUEHB.png,,,,,,,,m,1,1.131,,,,,,,,0,91,91,43,1
,,,,,,,,,,,,,,,,,199150,19,2022-01-29_15h45.13.800,lexical_decision_task_DD,2021.2.3,MacIntel,62.5,,,,,,,,,,,0.748,1,,,,,,,,,,,,,,,,,,,,,,,,-0.003333333,-0.344444444,0,0,0,,,,,,,BOXER,HB,z,m,./images/BOXERHB.png,,,,,,,,z,1,0.748,,,,,,,,0,92,92,88,1
,,,,,,,,,,,,,,,,,199150,19,2022-01-29_15h45.13.800,lexical_decision_task_DD,2021.2.3,MacIntel,62.5,,,,,,,,,,,1.202,1,,,,,,,,,,,,,,,,,,,,,,,,-0.003333333,-0.344444444,0,0,0,,,,,,,SLOPE,C,z,m,./images/SLOPE.png,,,,,,,,z,1,1.202,,,,,,,,0,93,93,114,1
,,,,,,,,,,,,,,,,,199150,19,2022-01-29_15h45.13.800,lexical_decision_task_DD,2021.2.3,MacIntel,62.5,,,,,,,,,,,0.931,0,,,,,,,,,,,,,,,,,,,,,,,,-0.003333333,-0.344444444,0,0,0,,,,,,,SPINE,LB,z,m,./images/SPINELB.png,,,,,,,,m,0,0.931,,,,,,,,0,94,94,149,1
,,,,,,,,,,,,,,,,,199150,19,2022-01-29_15h45.13.800,lexical_decision_task_DD,2021.2.3,MacIntel,62.5,,,,,,,,,,,0.765,0,,,,,,,,,,,,,,,,,,,,,,,,-0.003333333,-0.344444444,0,0,0,,,,,,,SHELF,C,m,m,./images/SHELF.png,,,,,,,,z,0,0.765,,,,,,,,0,95,95,39,1
,,,,,,,,,,,,,,,,,199150,19,2022-01-29_15h45.13.800,lexical_decision_task_DD,2021.2.3,MacIntel,62.5,,,,,,,,,,,0.867,1,,,,,,,,,,,,,,,,,,,,,,,,-0.003333333,-0.344444444,0,0,0,,,,,,,COUCH,LB,m,m,./images/COUCHLB.png,,,,,,,,m,1,0.867,,,,,,,,0,96,96,77,1
,,,,,,,,,,,,,,,,,199150,19,2022-01-29_15h45.13.800,lexical_decision_task_DD,2021.2.3,MacIntel,62.5,,,,,,,,,,,0.83,1,,,,,,,,,,,,,,,,,,,,,,,,-0.003333333,-0.344444444,0,0,0,,,,,,,BIRTH,HB,m,m,./images/BIRTHHB.png,,,,,,,,m,1,0.83,,,,,,,,0,97,97,37,1
,,,,,,,,,,,,,,,,,199150,19,2022-01-29_15h45.13.800,lexical_decision_task_DD,2021.2.3,MacIntel,62.5,,,,,,,,,,,0.91,0,,,,,,,,,,,,,,,,,,,,,,,,-0.003333333,-0.344444444,0,0,0,,,,,,,POKER,HB,z,m,./images/POKERHB.png,,,,,,,,m,0,0.91,,,,,,,,0,98,98,151,1
,,,,,,,,,,,,,,,,,199150,19,2022-01-29_15h45.13.800,lexical_decision_task_DD,2021.2.3,MacIntel,62.5,,,,,,,,,,,0.794,1,,,,,,,,,,,,,,,,,,,,,,,,-0.003333333,-0.344444444,0,0,0,,,,,,,WALRUS,LB,m,m,./images/WALRUSLB.png,,,,,,,,m,1,0.794,,,,,,,,0,99,99,23,1
,,,,,,,,,,,,,,,,,199150,19,2022-01-29_15h45.13.800,lexical_decision_task_DD,2021.2.3,MacIntel,62.5,,,,,,,,,,,0.663,1,,,,,,,,,,,,,,,,,,,,,,,,-0.003333333,-0.344444444,0,0,0,,,,,,,MAGGOT,C,m,m,./images/MAGGOT.png,,,,,,,,m,1,0.663,,,,,,,,0,100,100,33,1
,,,,,,,,,,,,,,,,,199150,19,2022-01-29_15h45.13.800,lexical_decision_task_DD,2021.2.3,MacIntel,62.5,,,,,,,,,,,1.094,1,,,,,,,,,,,,,,,,,,,,,,,,-0.003333333,-0.344444444,0,0,0,,,,,,,MALLET,LB,m,m,./images/MALLETLB.png,,,,,,,,m,1,1.094,,,,,,,,0,101,101,50,1
,,,,,,,,,,,,,,,,,199150,19,2022-01-29_15h45.13.800,lexical_decision_task_DD,2021.2.3,MacIntel,62.5,,,,,,,,,,,0.647,1,,,,,,,,,,,,,,,,,,,,,,,,-0.003333333,-0.344444444,0,0,0,,,,,,,FALCON,HB,m,m,./images/FALCONHB.png,,,,,,,,m,1,0.647,,,,,,,,0,102,102,28,1
,,,,,,,,,,,,,,,,,199150,19,2022-01-29_15h45.13.800,lexical_decision_task_DD,2021.2.3,MacIntel,62.5,,,,,,,,,,,0.73,1,,,,,,,,,,,,,,,,,,,,,,,,-0.003333333,-0.344444444,0,0,0,,,,,,,MELON,HB,m,m,./images/MELONHB.png,,,,,,,,m,1,0.73,,,,,,,,0,103,103,22,1
,,,,,,,,,,,,,,,,,199150,19,2022-01-29_15h45.13.800,lexical_decision_task_DD,2021.2.3,MacIntel,62.5,,,,,,,,,,,0.845,1,,,,,,,,,,,,,,,,,,,,,,,,-0.003333333,-0.344444444,0,0,0,,,,,,,HEATER,LB,z,m,./images/HEATERLB.png,,,,,,,,z,1,0.845,,,,,,,,0,104,104,140,1
,,,,,,,,,,,,,,,,,199150,19,2022-01-29_15h45.13.800,lexical_decision_task_DD,2021.2.3,MacIntel,62.5,,,,,,,,,,,0.651,0,,,,,,,,,,,,,,,,,,,,,,,,-0.003333333,-0.343333333,0,0,0,,,,,,,MONKEY,C,z,m,./images/MONKEY.png,,,,,,,,m,0,0.651,,,,,,,,0,105,105,129,1
,,,,,,,,,,,,,,,,,199150,19,2022-01-29_15h45.13.800,lexical_decision_task_DD,2021.2.3,MacIntel,62.5,,,,,,,,,,,0.709,0,,,,,,,,,,,,,,,,,,,,,,,,-0.003333333,-0.343333333,0,0,0,,,,,,,FLASK,C,z,m,./images/FLASK.png,,,,,,,,m,0,0.709,,,,,,,,0,106,106,156,1
,,,,,,,,,,,,,,,,,199150,19,2022-01-29_15h45.13.800,lexical_decision_task_DD,2021.2.3,MacIntel,62.5,,,,,,,,,,,1.121,1,,,,,,,,,,,,,,,,,,,,,,,,-0.003333333,-0.343333333,0,0,0,,,,,,,MIDGET,HB,z,m,./images/MIDGETHB.png,,,,,,,,z,1,1.121,,,,,,,,0,107,107,160,1
,,,,,,,,,,,,,,,,,199150,19,2022-01-29_15h45.13.800,lexical_decision_task_DD,2021.2.3,MacIntel,62.5,,,,,,,,,,,0.999,1,,,,,,,,,,,,,,,,,,,,,,,,-0.003333333,-0.343333333,0,0,0,,,,,,,LAGOON,LB,z,m,./images/LAGOONLB.png,,,,,,,,z,1,0.999,,,,,,,,0,108,108,131,1
,,,,,,,,,,,,,,,,,199150,19,2022-01-29_15h45.13.800,lexical_decision_task_DD,2021.2.3,MacIntel,62.5,,,,,,,,,,,0.832,0,,,,,,,,,,,,,,,,,,,,,,,,-0.003333333,-0.343333333,0,0,0,,,,,,,LITTER,C,m,m,./images/LITTER.png,,,,,,,,z,0,0.832,,,,,,,,0,109,109,78,1
,,,,,,,,,,,,,,,,,199150,19,2022-01-29_15h45.13.800,lexical_decision_task_DD,2021.2.3,MacIntel,62.5,,,,,,,,,,,0.879,1,,,,,,,,,,,,,,,,,,,,,,,,-0.003333333,-0.343333333,0,0,0,,,,,,,DRILL,C,z,m,./images/DRILL.png,,,,,,,,z,1,0.879,,,,,,,,0,110,110,165,1
,,,,,,,,,,,,,,,,,199150,19,2022-01-29_15h45.13.800,lexical_decision_task_DD,2021.2.3,MacIntel,62.5,,,,,,,,,,,0.735,1,,,,,,,,,,,,,,,,,,,,,,,,-0.003333333,-0.343333333,0,0,0,,,,,,,SNAKE,HB,z,m,./images/SNAKEHB.png,,,,,,,,z,1,0.735,,,,,,,,0,111,111,124,1
,,,,,,,,,,,,,,,,,199150,19,2022-01-29_15h45.13.800,lexical_decision_task_DD,2021.2.3,MacIntel,62.5,,,,,,,,,,,0.832,1,,,,,,,,,,,,,,,,,,,,,,,,-0.003333333,-0.343333333,0,0,0,,,,,,,URINE,HB,m,m,./images/URINEHB.png,,,,,,,,m,1,0.832,,,,,,,,0,112,112,70,1
,,,,,,,,,,,,,,,,,199150,19,2022-01-29_15h45.13.800,lexical_decision_task_DD,2021.2.3,MacIntel,62.5,,,,,,,,,,,0.931,0,,,,,,,,,,,,,,,,,,,,,,,,-0.003333333,-0.343333333,0,0,0,,,,,,,JUMPER,LB,z,m,./images/JUMPERLB.png,,,,,,,,m,0,0.931,,,,,,,,0,113,113,158,1
,,,,,,,,,,,,,,,,,199150,19,2022-01-29_15h45.13.800,lexical_decision_task_DD,2021.2.3,MacIntel,62.5,,,,,,,,,,,0.931,0,,,,,,,,,,,,,,,,,,,,,,,,-0.003333333,-0.343333333,0,0,0,,,,,,,CARPET,LB,m,m,./images/CARPETLB.png,,,,,,,,z,0,0.931,,,,,,,,0,114,114,53,1
,,,,,,,,,,,,,,,,,199150,19,2022-01-29_15h45.13.800,lexical_decision_task_DD,2021.2.3,MacIntel,62.5,,,,,,,,,,,0.694,1,,,,,,,,,,,,,,,,,,,,,,,,-0.003333333,-0.343333333,0,0,0,,,,,,,WEASEL,LB,m,m,./images/WEASELLB.png,,,,,,,,m,1,0.694,,,,,,,,0,115,115,80,1
,,,,,,,,,,,,,,,,,199150,19,2022-01-29_15h45.13.800,lexical_decision_task_DD,2021.2.3,MacIntel,62.5,,,,,,,,,,,0.764,1,,,,,,,,,,,,,,,,,,,,,,,,-0.003333333,-0.343333333,0,0,0,,,,,,,MUMMY,HB,z,m,./images/MUMMYHB.png,,,,,,,,z,1,0.764,,,,,,,,0,116,116,130,1
,,,,,,,,,,,,,,,,,199150,19,2022-01-29_15h45.13.800,lexical_decision_task_DD,2021.2.3,MacIntel,62.5,,,,,,,,,,,0.896,1,,,,,,,,,,,,,,,,,,,,,,,,-0.003333333,-0.343333333,0,0,0,,,,,,,QUILL,HB,m,m,./images/QUILLHB.png,,,,,,,,m,1,0.896,,,,,,,,0,117,117,31,1
,,,,,,,,,,,,,,,,,199150,19,2022-01-29_15h45.13.800,lexical_decision_task_DD,2021.2.3,MacIntel,62.5,,,,,,,,,,,0.814,1,,,,,,,,,,,,,,,,,,,,,,,,-0.003333333,-0.343333333,0,0,0,,,,,,,SPORT,C,m,m,./images/SPORT.png,,,,,,,,m,1,0.814,,,,,,,,0,118,118,48,1
,,,,,,,,,,,,,,,,,199150,19,2022-01-29_15h45.13.800,lexical_decision_task_DD,2021.2.3,MacIntel,62.5,,,,,,,,,,,0.718,1,,,,,,,,,,,,,,,,,,,,,,,,-0.003333333,-0.343333333,0,0,0,,,,,,,SNACK,HB,m,m,./images/SNACKHB.png,,,,,,,,m,1,0.718,,,,,,,,0,119,119,73,1
,,,,,,,,,,,,,,,,,199150,19,2022-01-29_15h45.13.800,lexical_decision_task_DD,2021.2.3,MacIntel,62.5,,,,,,,,,,,0.969,1,,,,,,,,,,,,,,,,,,,,,,,,-0.003333333,-0.343333333,0,0,0,,,,,,,BAKER,C,z,m,./images/BAKER.png,,,,,,,,z,1,0.969,,,,,,,,0,120,120,147,1
,,,,,,,,,,,,,,,,,199150,19,2022-01-29_15h45.13.800,lexical_decision_task_DD,2021.2.3,MacIntel,62.5,,,,,,,,,,,1.184,1,,,,,,,,,,,,,,,,,,,,,,,,-0.003333333,-0.343333333,0,0,0,,,,,,,STATUE,C,z,m,./images/STATUE.png,,,,,,,,z,1,1.184,,,,,,,,0,121,121,150,1
,,,,,,,,,,,,,,,,,199150,19,2022-01-29_15h45.13.800,lexical_decision_task_DD,2021.2.3,MacIntel,62.5,,,,,,,,,,,2.514,1,,,,,,,,,,,,,,,,,,,,,,,,-0.003333333,-0.343333333,0,0,0,,,,,,,DANCER,C,z,m,./images/DANCER.png,,,,,,,,z,1,2.514,,,,,,,,0,122,122,105,1
,,,,,,,,,,,,,,,,,199150,19,2022-01-29_15h45.13.800,lexical_decision_task_DD,2021.2.3,MacIntel,62.5,,,,,,,,,,,1.226,1,,,,,,,,,,,,,,,,,,,,,,,,-0.003333333,-0.343333333,0,0,0,,,,,,,HOCKEY,LB,z,m,./images/HOCKEYLB.png,,,,,,,,z,1,1.226,,,,,,,,0,123,123,116,1
,,,,,,,,,,,,,,,,,199150,19,2022-01-29_15h45.13.800,lexical_decision_task_DD,2021.2.3,MacIntel,62.5,,,,,,,,,,,0.905,1,,,,,,,,,,,,,,,,,,,,,,,,-0.003333333,-0.343333333,0,0,0,,,,,,,MOTOR,HB,m,m,./images/MOTORHB.png,,,,,,,,m,1,0.905,,,,,,,,0,124,124,13,1
,,,,,,,,,,,,,,,,,199150,19,2022-01-29_15h45.13.800,lexical_decision_task_DD,2021.2.3,MacIntel,62.5,,,,,,,,,,,1.099,0,,,,,,,,,,,,,,,,,,,,,,,,-0.003333333,-0.343333333,0,0,0,space,,,,,,BANNER,HB,m,m,./images/BANNERHB.png,202.683,,,,,,,z,0,1.099,,,,,,,,0,125,125,52,1
,,,,,,,,,,,,,,,,,199150,19,2022-01-29_15h45.13.800,lexical_decision_task_DD,2021.2.3,MacIntel,62.5,,,,,,,,,,,0.71,0,,,,,,,,,,,,,,,,,,,,,,,,-0.003333333,-0.343333333,0,0,0,,,,,,,DESERT,HB,z,m,./images/DESERTHB.png,,,,,,,,m,0,0.71,,,,,,,,0,126,126,136,1
,,,,,,,,,,,,,,,,,199150,19,2022-01-29_15h45.13.800,lexical_decision_task_DD,2021.2.3,MacIntel,62.5,,,,,,,,,,,1.063,1,,,,,,,,,,,,,,,,,,,,,,,,-0.003333333,-0.343333333,0,0,0,,,,,,,CURRY,C,z,m,./images/CURRY.png,,,,,,,,z,1,1.063,,,,,,,,0,127,127,144,1
,,,,,,,,,,,,,,,,,199150,19,2022-01-29_15h45.13.800,lexical_decision_task_DD,2021.2.3,MacIntel,62.5,,,,,,,,,,,0.746,1,,,,,,,,,,,,,,,,,,,,,,,,-0.003333333,-0.343333333,0,0,0,,,,,,,MUFFIN,HB,m,m,./images/MUFFINHB.png,,,,,,,,m,1,0.746,,,,,,,,0,128,128,55,1
,,,,,,,,,,,,,,,,,199150,19,2022-01-29_15h45.13.800,lexical_decision_task_DD,2021.2.3,MacIntel,62.5,,,,,,,,,,,1.177,1,,,,,,,,,,,,,,,,,,,,,,,,-0.003333333,-0.343333333,0,0,0,,,,,,,CRADLE,LB,m,m,./images/CRADLELB.png,,,,,,,,m,1,1.177,,,,,,,,0,129,129,20,1
,,,,,,,,,,,,,,,,,199150,19,2022-01-29_15h45.13.800,lexical_decision_task_DD,2021.2.3,MacIntel,62.5,,,,,,,,,,,0.762,1,,,,,,,,,,,,,,,,,,,,,,,,-0.003333333,-0.343333333,0,0,0,,,,,,,CRUMB,LB,m,m,./images/CRUMBLB.png,,,,,,,,m,1,0.762,,,,,,,,0,130,130,29,1
,,,,,,,,,,,,,,,,,199150,19,2022-01-29_15h45.13.800,lexical_decision_task_DD,2021.2.3,MacIntel,62.5,,,,,,,,,,,2.497,1,,,,,,,,,,,,,,,,,,,,,,,,-0.003333333,-0.343333333,0,0,0,,,,,,,PEBBLE,HB,z,m,./images/PEBBLEHB.png,,,,,,,,z,1,2.497,,,,,,,,0,131,131,166,1
,,,,,,,,,,,,,,,,,199150,19,2022-01-29_15h45.13.800,lexical_decision_task_DD,2021.2.3,MacIntel,62.5,,,,,,,,,,,0.832,1,,,,,,,,,,,,,,,,,,,,,,,,-0.003333333,-0.343333333,0,0,0,,,,,,,BISHOP,HB,z,m,./images/BISHOPHB.png,,,,,,,,z,1,0.832,,,,,,,,0,132,132,133,1
,,,,,,,,,,,,,,,,,199150,19,2022-01-29_15h45.13.800,lexical_decision_task_DD,2021.2.3,MacIntel,62.5,,,,,,,,,,,3.383,1,,,,,,,,,,,,,,,,,,,,,,,,-0.003333333,-0.343333333,0,0,0,,,,,,,TORCH,LB,m,m,./images/TORCHLB.png,,,,,,,,m,1,3.383,,,,,,,,0,133,133,68,1
,,,,,,,,,,,,,,,,,199150,19,2022-01-29_15h45.13.800,lexical_decision_task_DD,2021.2.3,MacIntel,62.5,,,,,,,,,,,0.629,1,,,,,,,,,,,,,,,,,,,,,,,,-0.003333333,-0.343333333,0,0,0,,,,,,,PEACH,LB,m,m,./images/PEACHLB.png,,,,,,,,m,1,0.629,,,,,,,,0,134,134,35,1
,,,,,,,,,,,,,,,,,199150,19,2022-01-29_15h45.13.800,lexical_decision_task_DD,2021.2.3,MacIntel,62.5,,,,,,,,,,,0.794,1,,,,,,,,,,,,,,,,,,,,,,,,-0.003333333,-0.343333333,0,0,0,,,,,,,PLANK,HB,m,m,./images/PLANKHB.png,,,,,,,,m,1,0.794,,,,,,,,0,135,135,1,1
,,,,,,,,,,,,,,,,,199150,19,2022-01-29_15h45.13.800,lexical_decision_task_DD,2021.2.3,MacIntel,62.5,,,,,,,,,,,0.764,1,,,,,,,,,,,,,,,,,,,,,,,,-0.003333333,-0.343333333,0,0,0,,,,,,,COLLAR,C,z,m,./images/COLLAR.png,,,,,,,,z,1,0.764,,,,,,,,0,136,136,99,1
,,,,,,,,,,,,,,,,,199150,19,2022-01-29_15h45.13.800,lexical_decision_task_DD,2021.2.3,MacIntel,62.5,,,,,,,,,,,1.563,1,,,,,,,,,,,,,,,,,,,,,,,,-0.003333333,-0.343333333,0,0,0,,,,,,,MEDAL,LB,z,m,./images/MEDALLB.png,,,,,,,,z,1,1.563,,,,,,,,0,137,137,95,1
,,,,,,,,,,,,,,,,,199150,19,2022-01-29_15h45.13.800,lexical_decision_task_DD,2021.2.3,MacIntel,62.5,,,,,,,,,,,0.83,1,,,,,,,,,,,,,,,,,,,,,,,,-0.003333333,-0.343333333,0,0,0,,,,,,,DRUMS,HB,m,m,./images/DRUMSHB.png,,,,,,,,m,1,0.83,,,,,,,,0,138,138,49,1
,,,,,,,,,,,,,,,,,199150,19,2022-01-29_15h45.13.800,lexical_decision_task_DD,2021.2.3,MacIntel,62.5,,,,,,,,,,,0.747,1,,,,,,,,,,,,,,,,,,,,,,,,-0.003333333,-0.343333333,0,0,0,,,,,,,POSTER,LB,z,m,./images/POSTERLB.png,,,,,,,,z,1,0.747,,,,,,,,0,139,139,137,1
,,,,,,,,,,,,,,,,,199150,19,2022-01-29_15h45.13.800,lexical_decision_task_DD,2021.2.3,MacIntel,62.5,,,,,,,,,,,0.637,1,,,,,,,,,,,,,,,,,,,,,,,,-0.003333333,-0.343333333,0,0,0,,,,,,,DOUGH,HB,m,m,./images/DOUGHHB.png,,,,,,,,m,1,0.637,,,,,,,,0,140,140,19,1
,,,,,,,,,,,,,,,,,199150,19,2022-01-29_15h45.13.800,lexical_decision_task_DD,2021.2.3,MacIntel,62.5,,,,,,,,,,,0.847,0,,,,,,,,,,,,,,,,,,,,,,,,-0.003333333,-0.343333333,0,0,0,,,,,,,PACKET,LB,m,m,./images/PACKETLB.png,,,,,,,,z,0,0.847,,,,,,,,0,141,141,56,1
,,,,,,,,,,,,,,,,,199150,19,2022-01-29_15h45.13.800,lexical_decision_task_DD,2021.2.3,MacIntel,62.5,,,,,,,,,,,1.031,1,,,,,,,,,,,,,,,,,,,,,,,,-0.003333333,-0.343333333,0,0,0,,,,,,,KITTEN,C,m,m,./images/KITTEN.png,,,,,,,,m,1,1.031,,,,,,,,0,142,142,45,1
,,,,,,,,,,,,,,,,,199150,19,2022-01-29_15h45.13.800,lexical_decision_task_DD,2021.2.3,MacIntel,62.5,,,,,,,,,,,1.347,1,,,,,,,,,,,,,,,,,,,,,,,,-0.003333333,-0.343333333,0,0,0,,,,,,,SAILOR,HB,m,m,./images/SAILORHB.png,,,,,,,,m,1,1.347,,,,,,,,0,143,143,67,1
,,,,,,,,,,,,,,,,,199150,19,2022-01-29_15h45.13.800,lexical_decision_task_DD,2021.2.3,MacIntel,62.5,,,,,,,,,,,0.778,1,,,,,,,,,,,,,,,,,,,,,,,,-0.003333333,-0.343333333,0,0,0,,,,,,,ATTIC,C,m,m,./images/ATTIC.png,,,,,,,,m,1,0.778,,,,,,,,0,144,144,27,1
,,,,,,,,,,,,,,,,,199150,19,2022-01-29_15h45.13.800,lexical_decision_task_DD,2021.2.3,MacIntel,62.5,,,,,,,,,,,0.827,1,,,,,,,,,,,,,,,,,,,,,,,,-0.003333333,-0.343333333,0,0,0,,,,,,,STEAK,HB,z,m,./images/STEAKHB.png,,,,,,,,z,1,0.827,,,,,,,,0,145,145,115,1
,,,,,,,,,,,,,,,,,199150,19,2022-01-29_15h45.13.800,lexical_decision_task_DD,2021.2.3,MacIntel,62.5,,,,,,,,,,,0.663,1,,,,,,,,,,,,,,,,,,,,,,,,-0.003333333,-0.343333333,0,0,0,,,,,,,PIMPLE,LB,m,m,./images/PIMPLELB.png,,,,,,,,m,1,0.663,,,,,,,,0,146,146,71,1
,,,,,,,,,,,,,,,,,199150,19,2022-01-29_15h45.13.800,lexical_decision_task_DD,2021.2.3,MacIntel,62.5,,,,,,,,,,,1.004,1,,,,,,,,,,,,,,,,,,,,,,,,-0.003333333,-0.343333333,0,0,0,,,,,,,CLIFF,LB,z,m,./images/CLIFFLB.png,,,,,,,,z,1,1.004,,,,,,,,0,147,147,92,1
,,,,,,,,,,,,,,,,,199150,19,2022-01-29_15h45.13.800,lexical_decision_task_DD,2021.2.3,MacIntel,62.5,,,,,,,,,,,0.894,1,,,,,,,,,,,,,,,,,,,,,,,,-0.003333333,-0.343333333,0,0,0,,,,,,,CLOTH,LB,z,m,./images/CLOTHLB.png,,,,,,,,z,1,0.894,,,,,,,,0,148,148,107,1
,,,,,,,,,,,,,,,,,199150,19,2022-01-29_15h45.13.800,lexical_decision_task_DD,2021.2.3,MacIntel,62.5,,,,,,,,,,,1.179,0,,,,,,,,,,,,,,,,,,,,,,,,-0.003333333,-0.343333333,0,0,0,,,,,,,WAGON,HB,z,m,./images/WAGONHB.png,,,,,,,,m,0,1.179,,,,,,,,0,149,149,91,1
,,,,,,,,,,,,,,,,,199150,19,2022-01-29_15h45.13.800,lexical_decision_task_DD,2021.2.3,MacIntel,62.5,,,,,,,,,,,0.862,1,,,,,,,,,,,,,,,,,,,,,,,,-0.003333333,-0.343333333,0,0,0,,,,,,,PARADE,LB,z,m,./images/PARADELB.png,,,,,,,,z,1,0.862,,,,,,,,0,150,150,101,1
,,,,,,,,,,,,,,,,,199150,19,2022-01-29_15h45.13.800,lexical_decision_task_DD,2021.2.3,MacIntel,62.5,,,,,,,,,,,0.828,1,,,,,,,,,,,,,,,,,,,,,,,,-0.003333333,-0.343333333,0,0,0,,,,,,,STREAM,LB,z,m,./images/STREAMLB.png,,,,,,,,z,1,0.828,,,,,,,,0,151,151,125,1
,,,,,,,,,,,,,,,,,199150,19,2022-01-29_15h45.13.800,lexical_decision_task_DD,2021.2.3,MacIntel,62.5,,,,,,,,,,,0.713,1,,,,,,,,,,,,,,,,,,,,,,,,-0.003333333,-0.343333333,0,0,0,,,,,,,PEARL,HB,m,m,./images/PEARLHB.png,,,,,,,,m,1,0.713,,,,,,,,0,152,152,46,1
,,,,,,,,,,,,,,,,,199150,19,2022-01-29_15h45.13.800,lexical_decision_task_DD,2021.2.3,MacIntel,62.5,,,,,,,,,,,0.748,1,,,,,,,,,,,,,,,,,,,,,,,,-0.003333333,-0.343333333,0,0,0,,,,,,,CRUST,HB,m,m,./images/CRUSTHB.png,,,,,,,,m,1,0.748,,,,,,,,0,153,153,79,1
,,,,,,,,,,,,,,,,,199150,19,2022-01-29_15h45.13.800,lexical_decision_task_DD,2021.2.3,MacIntel,62.5,,,,,,,,,,,0.901,1,,,,,,,,,,,,,,,,,,,,,,,,-0.003333333,-0.343333333,0,0,0,,,,,,,PURSE,LB,m,m,./images/PURSELB.png,,,,,,,,m,1,0.901,,,,,,,,0,154,154,62,1
,,,,,,,,,,,,,,,,,199150,19,2022-01-29_15h45.13.800,lexical_decision_task_DD,2021.2.3,MacIntel,62.5,,,,,,,,,,,1.147,0,,,,,,,,,,,,,,,,,,,,,,,,-0.003333333,-0.343333333,0,0,0,,,,,,,HAMMER,C,z,m,./images/HAMMER.png,,,,,,,,m,0,1.147,,,,,,,,0,155,155,159,1
,,,,,,,,,,,,,,,,,199150,19,2022-01-29_15h45.13.800,lexical_decision_task_DD,2021.2.3,MacIntel,62.5,,,,,,,,,,,0.744,1,,,,,,,,,,,,,,,,,,,,,,,,-0.003333333,-0.343333333,0,0,0,,,,,,,CASINO,HB,z,m,./images/CASINOHB.png,,,,,,,,z,1,0.744,,,,,,,,0,156,156,112,1
,,,,,,,,,,,,,,,,,199150,19,2022-01-29_15h45.13.800,lexical_decision_task_DD,2021.2.3,MacIntel,62.5,,,,,,,,,,,0.863,1,,,,,,,,,,,,,,,,,,,,,,,,-0.003333333,-0.343333333,0,0,0,,,,,,,CANOE,HB,z,m,./images/CANOEHB.png,,,,,,,,z,1,0.863,,,,,,,,0,157,157,142,1
,,,,,,,,,,,,,,,,,199150,19,2022-01-29_15h45.13.800,lexical_decision_task_DD,2021.2.3,MacIntel,62.5,,,,,,,,,,,1.212,0,,,,,,,,,,,,,,,,,,,,,,,,-0.003333333,-0.343333333,0,0,0,,,,,,,WALNUT,C,z,m,./images/WALNUT.png,,,,,,,,m,0,1.212,,,,,,,,0,158,158,84,1
,,,,,,,,,,,,,,,,,199150,19,2022-01-29_15h45.13.800,lexical_decision_task_DD,2021.2.3,MacIntel,62.5,,,,,,,,,,,0.683,1,,,,,,,,,,,,,,,,,,,,,,,,-0.003333333,-0.343333333,0,0,0,,,,,,,TRIPOD,C,m,m,./images/TRIPOD.png,,,,,,,,m,1,0.683,,,,,,,,0,159,159,54,1
,,,,,,,,,,,,,,,,,199150,19,2022-01-29_15h45.13.800,lexical_decision_task_DD,2021.2.3,MacIntel,62.5,,,,,,,,,,,0.688,1,,,,,,,,,,,,,,,,,,,,,,,,-0.003333333,-0.343333333,0,0,0,,,,,,,SKIING,LB,m,m,./images/SKIINGLB.png,,,,,,,,m,1,0.688,,,,,,,,0,160,160,17,1
,,,,,,,,,,,,,,,,,199150,19,2022-01-29_15h45.13.800,lexical_decision_task_DD,2021.2.3,MacIntel,62.5,,,,,,,,,,,0.8,1,,,,,,,,,,,,,,,,,,,,,,,,-0.003333333,-0.343333333,0,0,0,,,,,,,LLAMA,LB,z,m,./images/LLAMALB.png,,,,,,,,z,1,0.8,,,,,,,,0,161,161,119,1
,,,,,,,,,,,,,,,,,199150,19,2022-01-29_15h45.13.800,lexical_decision_task_DD,2021.2.3,MacIntel,62.5,,,,,,,,,,,0.754,1,,,,,,,,,,,,,,,,,,,,,,,,-0.003333333,-0.343333333,0,0,0,,,,,,,BERRY,LB,m,m,./images/BERRYLB.png,,,,,,,,m,1,0.754,,,,,,,,0,162,162,47,1
,,,,,,,,,,,,,,,,,199150,19,2022-01-29_15h45.13.800,lexical_decision_task_DD,2021.2.3,MacIntel,62.5,,,,,,,,,,,0.929,1,,,,,,,,,,,,,,,,,,,,,,,,-0.003333333,-0.343333333,0,0,0,,,,,,,PISTOL,LB,z,m,./images/PISTOLLB.png,,,,,,,,z,1,0.929,,,,,,,,0,163,163,113,1
,,,,,,,,,,,,,,,,,199150,19,2022-01-29_15h45.13.800,lexical_decision_task_DD,2021.2.3,MacIntel,62.5,,,,,,,,,,,1.02,1,,,,,,,,,,,,,,,,,,,,,,,,-0.003333333,-0.343333333,0,0,0,,,,,,,ALLEY,HB,z,m,./images/ALLEYHB.png,,,,,,,,z,1,1.02,,,,,,,,0,164,164,139,1
,,,,,,,,,,,,,,,,,199150,19,2022-01-29_15h45.13.800,lexical_decision_task_DD,2021.2.3,MacIntel,62.5,,,,,,,,,,,0.671,0,,,,,,,,,,,,,,,,,,,,,,,,-0.003333333,-0.343333333,0,0,0,,,,,,,PILOT,LB,z,m,./images/PILOTLB.png,,,,,,,,m,0,0.671,,,,,,,,0,165,165,134,1
,,,,,,,,,,,,,,,,,199150,19,2022-01-29_15h45.13.800,lexical_decision_task_DD,2021.2.3,MacIntel,62.5,,,,,,,,,,,1.464,1,,,,,,,,,,,,,,,,,,,,,,,,-0.003333333,-0.343333333,0,0,0,,,,,,,SWEAT,C,m,m,./images/SWEAT.png,,,,,,,,m,1,1.464,,,,,,,,0,166,166,66,1
,,,,,,,,,,,,,,,,,199150,19,2022-01-29_15h45.13.800,lexical_decision_task_DD,2021.2.3,MacIntel,62.5,,,,,,,,,,,0.763,1,,,,,,,,,,,,,,,,,,,,,,,,-0.003333333,-0.343333333,0,0,0,,,,,,,CHALK,HB,z,m,./images/CHALKHB.png,,,,,,,,z,1,0.763,,,,,,,,0,167,167,109,1
