key_resp.keys,key_resp.rt,instr_done_touch.x,instr_done_touch.y,instr_done_touch.leftButton,instr_done_touch.midButton,instr_done_touch.rightButton,instruction_pages.thisRepN,instruction_pages.thisTrialN,instruction_pages.thisN,instruction_pages.thisIndex,instruction_pages.ran,pageN,phase,instruct_text,has_image,instruct_image,participant,age,date,expName,psychopyVersion,OS,frameRate,response.keys,response.corr,response.rt,touch_resp.x,touch_resp.y,touch_resp.leftButton,touch_resp.midButton,touch_resp.rightButton,touch_resp.time,touch_resp.clicked_name,rt,corr,practrials.thisRepN,practrials.thisTrialN,practrials.thisN,practrials.thisIndex,practrials.ran,TrialID,Target,corrAns,end_of_practice_trials_pages.thisRepN,end_of_practice_trials_pages.thisTrialN,end_of_practice_trials_pages.thisN,end_of_practice_trials_pages.thisIndex,end_of_practice_trials_pages.ran,key_resp_2.keys,key_resp_2.corr,key_resp_2.rt,targ_click.x,targ_click.y,targ_click.leftButton,targ_click.midButton,targ_click.rightButton,targ_click.time,targ_click.clicked_name,break_done_touch.x,break_done_touch.y,break_done_touch.leftButton,break_done_touch.midButton,break_done_touch.rightButton,break_done_keyboard.keys,maintrials.thisRepN,maintrials.thisTrialN,maintrials.thisN,maintrials.thisIndex,maintrials.ran,string,blur,study,lex,stim_path,break_done_keyboard.rt,test_instructions.thisRepN,test_instructions.thisTrialN,test_instructions.thisN,test_instructions.thisIndex,test_instructions.ran,instr_done_touch.clicked_name,key_resp_3.keys,key_resp_3.corr,key_resp_3.rt,test_click.x,test_click.y,test_click.leftButton,test_click.midButton,test_click.rightButton,test_click.time,test_click.clicked_name,test_phase.thisRepN,test_phase.thisTrialN,test_phase.thisN,test_phase.thisIndex,test_phase.ran
space,17.6165,-0.022113715,-0.373643663,0,0,0,0,0,0,0,1,1,instructions,"INSTRUCTIONS
At the start of each trial, look at the plus sign  (+) in the center of the screen.  This tells you that a trial is about to begin and where to look. Second, the plus sign will disappear and a string of letters will appear. Your task is to determine if the string of letters is a word or not. If the item is a word press the M key (on keyboard)  or touch the word button (phone/tablet).  If the item is not a word,  press the  Z key (on keyboard)  or touch the nonword button (on phone/tablet). 
Press the space bar or touch  continue.",0,,199111,18,2022-01-29_05h02.18.618,lexical_decision_task_DD_L2,2021.2.3,MacIntel,47.95243119,,,,,,,,,,,,,,,,,,,,,,,,,,,,,,,,,,,,,,,,,,,,,,,,,,,,,,,,,,,,,,,,,,,,,,,,,
space,5.3784,-0.022113715,-0.373643663,0,0,0,0,1,1,1,1,2,instructions,"If your device has a keyboard, press the 'Z' key for nonwords and the 'M' key for words.





Press the space bar or touch the button below to continue.",0,keyboard-example.gif,199111,18,2022-01-29_05h02.18.618,lexical_decision_task_DD_L2,2021.2.3,MacIntel,47.95243119,,,,,,,,,,,,,,,,,,,,,,,,,,,,,,,,,,,,,,,,,,,,,,,,,,,,,,,,,,,,,,,,,,,,,,,,,
space,1.7893,-0.028468605,-0.374565972,0,0,0,0,2,2,2,1,3,instructions,"If you are using a touchscreen only device, use the buttons on the screen. Do not use the mouse.





Press the space bar or touch the button below to continue.",0,touchscreen-example.gif,199111,18,2022-01-29_05h02.18.618,lexical_decision_task_DD_L2,2021.2.3,MacIntel,47.95243119,,,,,,,,,,,,,,,,,,,,,,,,,,,,,,,,,,,,,,,,,,,,,,,,,,,,,,,,,,,,,,,,,,,,,,,,,
space,10.8699,-0.028468605,-0.374565972,0,0,0,0,3,3,3,1,4,instructions,"It is very important that you respond as quickly and accurately as possible, as each letter string will only be on the screen for two seconds. If you do not respond within this time, the message 'Too slow!' will be displayed and the experiment will progress to the next letter string. The first 20 trials will be practice trials and you will receive feedback on your answers. 

Press the space bar or touch the button below to start the practice trials.",0,,199111,18,2022-01-29_05h02.18.618,lexical_decision_task_DD_L2,2021.2.3,MacIntel,47.95243119,,,,,,,,,,,,,,,,,,,,,,,,,,,,,,,,,,,,,,,,,,,,,,,,,,,,,,,,,,,,,,,,,,,,,,,,,
,,,,,,,,,,,,,,,,,199111,18,2022-01-29_05h02.18.618,lexical_decision_task_DD_L2,2021.2.3,MacIntel,47.95243119,m,0,1.0779,,,,,,,,1.0779,0,0,0,0,10,1,1001,INLADE,z,,,,,,,,,,,,,,,,,,,,,,,,,,,,,,,,,,,,,,,,,,,,,,,,,,,,,
,,,,,,,,,,,,,,,,,199111,18,2022-01-29_05h02.18.618,lexical_decision_task_DD_L2,2021.2.3,MacIntel,47.95243119,z,1,0.8297,,,,,,,,0.8297,1,0,1,1,8,1,1001,ASLERT,z,,,,,,,,,,,,,,,,,,,,,,,,,,,,,,,,,,,,,,,,,,,,,,,,,,,,,
,,,,,,,,,,,,,,,,,199111,18,2022-01-29_05h02.18.618,lexical_decision_task_DD_L2,2021.2.3,MacIntel,47.95243119,z,1,0.6104,,,,,,,,0.6104,1,0,2,2,15,1,1001,WHAISE,z,,,,,,,,,,,,,,,,,,,,,,,,,,,,,,,,,,,,,,,,,,,,,,,,,,,,,
,,,,,,,,,,,,,,,,,199111,18,2022-01-29_05h02.18.618,lexical_decision_task_DD_L2,2021.2.3,MacIntel,47.95243119,m,1,0.5612,,,,,,,,0.5612,1,0,3,3,2,1,1001,ALMOND,m,,,,,,,,,,,,,,,,,,,,,,,,,,,,,,,,,,,,,,,,,,,,,,,,,,,,,
,,,,,,,,,,,,,,,,,199111,18,2022-01-29_05h02.18.618,lexical_decision_task_DD_L2,2021.2.3,MacIntel,47.95243119,z,1,0.5458,,,,,,,,0.5458,1,0,4,4,11,1,1001,RASHET,z,,,,,,,,,,,,,,,,,,,,,,,,,,,,,,,,,,,,,,,,,,,,,,,,,,,,,
,,,,,,,,,,,,,,,,,199111,18,2022-01-29_05h02.18.618,lexical_decision_task_DD_L2,2021.2.3,MacIntel,47.95243119,m,1,0.5014,,,,,,,,0.5014,1,0,5,5,5,1,1001,OBTAIN,m,,,,,,,,,,,,,,,,,,,,,,,,,,,,,,,,,,,,,,,,,,,,,,,,,,,,,
,,,,,,,,,,,,,,,,,199111,18,2022-01-29_05h02.18.618,lexical_decision_task_DD_L2,2021.2.3,MacIntel,47.95243119,z,1,0.5067,,,,,,,,0.5067,1,0,6,6,13,1,1001,ROUPET,z,,,,,,,,,,,,,,,,,,,,,,,,,,,,,,,,,,,,,,,,,,,,,,,,,,,,,
,,,,,,,,,,,,,,,,,199111,18,2022-01-29_05h02.18.618,lexical_decision_task_DD_L2,2021.2.3,MacIntel,47.95243119,m,1,0.5047,,,,,,,,0.5047,1,0,7,7,6,1,1001,ZOMBIE,m,,,,,,,,,,,,,,,,,,,,,,,,,,,,,,,,,,,,,,,,,,,,,,,,,,,,,
,,,,,,,,,,,,,,,,,199111,18,2022-01-29_05h02.18.618,lexical_decision_task_DD_L2,2021.2.3,MacIntel,47.95243119,m,1,0.6077,,,,,,,,0.6077,1,0,8,8,0,1,1001,UTOPIA,m,,,,,,,,,,,,,,,,,,,,,,,,,,,,,,,,,,,,,,,,,,,,,,,,,,,,,
,,,,,,,,,,,,,,,,,199111,18,2022-01-29_05h02.18.618,lexical_decision_task_DD_L2,2021.2.3,MacIntel,47.95243119,m,1,0.5901,,,,,,,,0.5901,1,0,9,9,3,1,1001,MATRIX,m,,,,,,,,,,,,,,,,,,,,,,,,,,,,,,,,,,,,,,,,,,,,,,,,,,,,,
,,,,,,,,,,,,,,,,,199111,18,2022-01-29_05h02.18.618,lexical_decision_task_DD_L2,2021.2.3,MacIntel,47.95243119,m,1,0.4421,,,,,,,,0.4421,1,0,10,10,1,1,1001,ADJUST,m,,,,,,,,,,,,,,,,,,,,,,,,,,,,,,,,,,,,,,,,,,,,,,,,,,,,,
,,,,,,,,,,,,,,,,,199111,18,2022-01-29_05h02.18.618,lexical_decision_task_DD_L2,2021.2.3,MacIntel,47.95243119,z,1,0.5703,,,,,,,,0.5703,1,0,11,11,9,1,1001,FARINY,z,,,,,,,,,,,,,,,,,,,,,,,,,,,,,,,,,,,,,,,,,,,,,,,,,,,,,
,,,,,,,,,,,,,,,,,199111,18,2022-01-29_05h02.18.618,lexical_decision_task_DD_L2,2021.2.3,MacIntel,47.95243119,z,1,0.4431,,,,,,,,0.4431,1,0,12,12,12,1,1001,SPRINY,z,,,,,,,,,,,,,,,,,,,,,,,,,,,,,,,,,,,,,,,,,,,,,,,,,,,,,
,,,,,,,,,,,,,,,,,199111,18,2022-01-29_05h02.18.618,lexical_decision_task_DD_L2,2021.2.3,MacIntel,47.95243119,m,1,0.4963,,,,,,,,0.4963,1,0,13,13,4,1,1001,SQUEAK,m,,,,,,,,,,,,,,,,,,,,,,,,,,,,,,,,,,,,,,,,,,,,,,,,,,,,,
,,,,,,,,,,,,,,,,,199111,18,2022-01-29_05h02.18.618,lexical_decision_task_DD_L2,2021.2.3,MacIntel,47.95243119,m,1,0.4182,,,,,,,,0.4182,1,0,14,14,7,1,1001,VOLUME,m,,,,,,,,,,,,,,,,,,,,,,,,,,,,,,,,,,,,,,,,,,,,,,,,,,,,,
,,,,,,,,,,,,,,,,,199111,18,2022-01-29_05h02.18.618,lexical_decision_task_DD_L2,2021.2.3,MacIntel,47.95243119,z,1,0.517,,,,,,,,0.517,1,0,15,15,14,1,1001,THRALE,z,,,,,,,,,,,,,,,,,,,,,,,,,,,,,,,,,,,,,,,,,,,,,,,,,,,,,
space,13.3609,-0.028468605,-0.374565972,0,0,0,,,,,,1,end_of_practice,"You have completed the practice trials. During the experimental trials, you will not receive feedback. 
Before you begin, please ensure that you are in a comfortable and quiet location and will not be disturbed for about 15 minutes, as we cannot use your data if you do not complete all the trials. 
 When you are ready to start the experimental trials, please press space or touch the button below.",,,199111,18,2022-01-29_05h02.18.618,lexical_decision_task_DD_L2,2021.2.3,MacIntel,47.95243119,,,,,,,,,,,,,,,,,,,,,0,0,0,0,1,,,,,,,,,,,,,,,,,,,,,,,,,,,,,,,,,,,,,,,,,,,,,,,,
,,,,,,,,,,,,,,,,,199111,18,2022-01-29_05h02.18.618,lexical_decision_task_DD_L2,2021.2.3,MacIntel,47.95243119,,,,,,,,,,,0.7794,1,,,,,,,,,,,,,,m,1,0.7794,,,,,,,,-0.028468605,-0.374565972,0,0,0,,0,0,0,78,1,LITTER,HB,old,m,./images/LITTERHB.png,,,,,,,,,,,,,,,,,,,,,,
,,,,,,,,,,,,,,,,,199111,18,2022-01-29_05h02.18.618,lexical_decision_task_DD_L2,2021.2.3,MacIntel,47.95243119,,,,,,,,,,,0.5113,1,,,,,,,,,,,,,,m,1,0.5113,,,,,,,,-0.028468605,-0.374565972,0,0,0,,0,1,1,14,1,PICKLE,C,old,m,./images/PICKLE.png,,,,,,,,,,,,,,,,,,,,,,
,,,,,,,,,,,,,,,,,199111,18,2022-01-29_05h02.18.618,lexical_decision_task_DD_L2,2021.2.3,MacIntel,47.95243119,,,,,,,,,,,1.0845,1,,,,,,,,,,,,,,z,1,1.0845,,,,,,,,-0.028468605,-0.374565972,0,0,0,,0,2,2,100,1,DRIBS,HB,old,z,./images/DRIBSHB.png,,,,,,,,,,,,,,,,,,,,,,
,,,,,,,,,,,,,,,,,199111,18,2022-01-29_05h02.18.618,lexical_decision_task_DD_L2,2021.2.3,MacIntel,47.95243119,,,,,,,,,,,0.935,1,,,,,,,,,,,,,,z,1,0.935,,,,,,,,-0.028468605,-0.374565972,0,0,0,,0,3,3,151,1,TINKY,HB,old,z,./images/TINKYHB.png,,,,,,,,,,,,,,,,,,,,,,
,,,,,,,,,,,,,,,,,199111,18,2022-01-29_05h02.18.618,lexical_decision_task_DD_L2,2021.2.3,MacIntel,47.95243119,,,,,,,,,,,0.7489,1,,,,,,,,,,,,,,z,1,0.7489,,,,,,,,-0.028468605,-0.374565972,0,0,0,,0,4,4,125,1,MOOKY,LB,old,z,./images/MOOKYLB.png,,,,,,,,,,,,,,,,,,,,,,
,,,,,,,,,,,,,,,,,199111,18,2022-01-29_05h02.18.618,lexical_decision_task_DD_L2,2021.2.3,MacIntel,47.95243119,,,,,,,,,,,0.6672,1,,,,,,,,,,,,,,m,1,0.6672,,,,,,,,-0.028468605,-0.374565972,0,0,0,,0,5,5,1,1,PLANK,LB,old,m,./images/PLANKLB.png,,,,,,,,,,,,,,,,,,,,,,
,,,,,,,,,,,,,,,,,199111,18,2022-01-29_05h02.18.618,lexical_decision_task_DD_L2,2021.2.3,MacIntel,47.95243119,,,,,,,,,,,0.5353,1,,,,,,,,,,,,,,m,1,0.5353,,,,,,,,-0.028468605,-0.374565972,0,0,0,,0,6,6,11,1,BONNET,C,old,m,./images/BONNET.png,,,,,,,,,,,,,,,,,,,,,,
,,,,,,,,,,,,,,,,,199111,18,2022-01-29_05h02.18.618,lexical_decision_task_DD_L2,2021.2.3,MacIntel,47.95243119,,,,,,,,,,,0.6129,0,,,,,,,,,,,,,,m,0,0.6129,,,,,,,,-0.028468605,-0.374565972,0,0,0,,0,7,7,110,1,CRUNK,LB,old,z,./images/CRUNKLB.png,,,,,,,,,,,,,,,,,,,,,,
,,,,,,,,,,,,,,,,,199111,18,2022-01-29_05h02.18.618,lexical_decision_task_DD_L2,2021.2.3,MacIntel,47.95243119,,,,,,,,,,,0.8346,1,,,,,,,,,,,,,,m,1,0.8346,,,,,,,,-0.028468605,-0.374565972,0,0,0,,0,8,8,9,1,RHINO,HB,old,m,./images/RHINOHB.png,,,,,,,,,,,,,,,,,,,,,,
,,,,,,,,,,,,,,,,,199111,18,2022-01-29_05h02.18.618,lexical_decision_task_DD_L2,2021.2.3,MacIntel,47.95243119,,,,,,,,,,,1.0423,0,,,,,,,,,,,,,,z,0,1.0423,,,,,,,,-0.028468605,-0.374565972,0,0,0,,0,9,9,33,1,MAGGOT,HB,old,m,./images/MAGGOTHB.png,,,,,,,,,,,,,,,,,,,,,,
,,,,,,,,,,,,,,,,,199111,18,2022-01-29_05h02.18.618,lexical_decision_task_DD_L2,2021.2.3,MacIntel,47.95243119,,,,,,,,,,,0.7461,1,,,,,,,,,,,,,,z,1,0.7461,,,,,,,,-0.028468605,-0.374565972,0,0,0,,0,10,10,165,1,TROWN,C,old,z,./images/TROWN.png,,,,,,,,,,,,,,,,,,,,,,
,,,,,,,,,,,,,,,,,199111,18,2022-01-29_05h02.18.618,lexical_decision_task_DD_L2,2021.2.3,MacIntel,47.95243119,,,,,,,,,,,0.5716,1,,,,,,,,,,,,,,z,1,0.5716,,,,,,,,-0.028468605,-0.374565972,0,0,0,,0,11,11,147,1,ZOLES,C,old,z,./images/ZOLES.png,,,,,,,,,,,,,,,,,,,,,,
,,,,,,,,,,,,,,,,,199111,18,2022-01-29_05h02.18.618,lexical_decision_task_DD_L2,2021.2.3,MacIntel,47.95243119,,,,,,,,,,,0.6592,1,,,,,,,,,,,,,,z,1,0.6592,,,,,,,,-0.028468605,-0.374565972,0,0,0,,0,12,12,135,1,JOODY,C,old,z,./images/JOODY.png,,,,,,,,,,,,,,,,,,,,,,
,,,,,,,,,,,,,,,,,199111,18,2022-01-29_05h02.18.618,lexical_decision_task_DD_L2,2021.2.3,MacIntel,47.95243119,,,,,,,,,,,0.554,1,,,,,,,,,,,,,,z,1,0.554,,,,,,,,-0.028468605,-0.374565972,0,0,0,,0,13,13,108,1,GRUET,C,old,z,./images/GRUET.png,,,,,,,,,,,,,,,,,,,,,,
,,,,,,,,,,,,,,,,,199111,18,2022-01-29_05h02.18.618,lexical_decision_task_DD_L2,2021.2.3,MacIntel,47.95243119,,,,,,,,,,,0.6574,1,,,,,,,,,,,,,,m,1,0.6574,,,,,,,,-0.028468605,-0.374565972,0,0,0,,0,14,14,8,1,TULIP,C,old,m,./images/TULIP.png,,,,,,,,,,,,,,,,,,,,,,
,,,,,,,,,,,,,,,,,199111,18,2022-01-29_05h02.18.618,lexical_decision_task_DD_L2,2021.2.3,MacIntel,47.95243119,,,,,,,,,,,0.5626,1,,,,,,,,,,,,,,m,1,0.5626,,,,,,,,-0.028468605,-0.374565972,0,0,0,,0,15,15,28,1,FALCON,LB,old,m,./images/FALCONLB.png,,,,,,,,,,,,,,,,,,,,,,
,,,,,,,,,,,,,,,,,199111,18,2022-01-29_05h02.18.618,lexical_decision_task_DD_L2,2021.2.3,MacIntel,47.95243119,,,,,,,,,,,0.4518,1,,,,,,,,,,,,,,m,1,0.4518,,,,,,,,-0.028468605,-0.374565972,0,0,0,,0,16,16,5,1,PASTA,C,old,m,./images/PASTA.png,,,,,,,,,,,,,,,,,,,,,,
,,,,,,,,,,,,,,,,,199111,18,2022-01-29_05h02.18.618,lexical_decision_task_DD_L2,2021.2.3,MacIntel,47.95243119,,,,,,,,,,,0.6802,1,,,,,,,,,,,,,,z,1,0.6802,,,,,,,,-0.028468605,-0.374565972,0,0,0,,0,17,17,162,1,LEICH,C,old,z,./images/LEICH.png,,,,,,,,,,,,,,,,,,,,,,
,,,,,,,,,,,,,,,,,199111,18,2022-01-29_05h02.18.618,lexical_decision_task_DD_L2,2021.2.3,MacIntel,47.95243119,,,,,,,,,,,0.5357,1,,,,,,,,,,,,,,m,1,0.5357,,,,,,,,-0.028468605,-0.374565972,0,0,0,,0,18,18,39,1,SHELF,HB,old,m,./images/SHELFHB.png,,,,,,,,,,,,,,,,,,,,,,
,,,,,,,,,,,,,,,,,199111,18,2022-01-29_05h02.18.618,lexical_decision_task_DD_L2,2021.2.3,MacIntel,47.95243119,,,,,,,,,,,0.5203,1,,,,,,,,,,,,,,m,1,0.5203,,,,,,,,-0.028468605,-0.374565972,0,0,0,,0,19,19,62,1,PURSE,C,old,m,./images/PURSE.png,,,,,,,,,,,,,,,,,,,,,,
,,,,,,,,,,,,,,,,,199111,18,2022-01-29_05h02.18.618,lexical_decision_task_DD_L2,2021.2.3,MacIntel,47.95243119,,,,,,,,,,,0.6973,1,,,,,,,,,,,,,,z,1,0.6973,,,,,,,,-0.028468605,-0.374565972,0,0,0,,0,20,20,141,1,PLEET,C,old,z,./images/PLEET.png,,,,,,,,,,,,,,,,,,,,,,
,,,,,,,,,,,,,,,,,199111,18,2022-01-29_05h02.18.618,lexical_decision_task_DD_L2,2021.2.3,MacIntel,47.95243119,,,,,,,,,,,0.9128,1,,,,,,,,,,,,,,m,1,0.9128,,,,,,,,-0.028468605,-0.374565972,0,0,0,,0,21,21,72,1,NOOSE,HB,old,m,./images/NOOSEHB.png,,,,,,,,,,,,,,,,,,,,,,
,,,,,,,,,,,,,,,,,199111,18,2022-01-29_05h02.18.618,lexical_decision_task_DD_L2,2021.2.3,MacIntel,47.95243119,,,,,,,,,,,0.6401,1,,,,,,,,,,,,,,z,1,0.6401,,,,,,,,-0.028468605,-0.374565972,0,0,0,,0,22,22,164,1,SGREW,LB,old,z,./images/SGREWLB.png,,,,,,,,,,,,,,,,,,,,,,
,,,,,,,,,,,,,,,,,199111,18,2022-01-29_05h02.18.618,lexical_decision_task_DD_L2,2021.2.3,MacIntel,47.95243119,,,,,,,,,,,1.0598,1,,,,,,,,,,,,,,m,1,1.0598,,,,,,,,-0.028468605,-0.374565972,0,0,0,,0,23,23,43,1,MOSQUE,LB,old,m,./images/MOSQUELB.png,,,,,,,,,,,,,,,,,,,,,,
,,,,,,,,,,,,,,,,,199111,18,2022-01-29_05h02.18.618,lexical_decision_task_DD_L2,2021.2.3,MacIntel,47.95243119,,,,,,,,,,,0.9119,1,,,,,,,,,,,,,,z,1,0.9119,,,,,,,,-0.028468605,-0.374565972,0,0,0,,0,24,24,103,1,FLORT,HB,old,z,./images/FLORTHB.png,,,,,,,,,,,,,,,,,,,,,,
,,,,,,,,,,,,,,,,,199111,18,2022-01-29_05h02.18.618,lexical_decision_task_DD_L2,2021.2.3,MacIntel,47.95243119,,,,,,,,,,,0.6049,1,,,,,,,,,,,,,,m,1,0.6049,,,,,,,,-0.028468605,-0.374565972,0,0,0,,0,25,25,58,1,BABOON,LB,old,m,./images/BABOONLB.png,,,,,,,,,,,,,,,,,,,,,,
,,,,,,,,,,,,,,,,,199111,18,2022-01-29_05h02.18.618,lexical_decision_task_DD_L2,2021.2.3,MacIntel,47.95243119,,,,,,,,,,,0.6956,1,,,,,,,,,,,,,,m,1,0.6956,,,,,,,,-0.028468605,-0.374565972,0,0,0,,0,26,26,56,1,PACKET,C,old,m,./images/PACKET.png,,,,,,,,,,,,,,,,,,,,,,
,,,,,,,,,,,,,,,,,199111,18,2022-01-29_05h02.18.618,lexical_decision_task_DD_L2,2021.2.3,MacIntel,47.95243119,,,,,,,,,,,0.6844,1,,,,,,,,,,,,,,z,1,0.6844,,,,,,,,-0.028468605,-0.374565972,0,0,0,,0,27,27,91,1,SHENS,HB,old,z,./images/SHENSHB.png,,,,,,,,,,,,,,,,,,,,,,
,,,,,,,,,,,,,,,,,199111,18,2022-01-29_05h02.18.618,lexical_decision_task_DD_L2,2021.2.3,MacIntel,47.95243119,,,,,,,,,,,0.7274,1,,,,,,,,,,,,,,z,1,0.7274,,,,,,,,-0.028468605,-0.374565972,0,0,0,,0,28,28,131,1,NACES,LB,old,z,./images/NACESLB.png,,,,,,,,,,,,,,,,,,,,,,
,,,,,,,,,,,,,,,,,199111,18,2022-01-29_05h02.18.618,lexical_decision_task_DD_L2,2021.2.3,MacIntel,47.95243119,,,,,,,,,,,0.6614,1,,,,,,,,,,,,,,m,1,0.6614,,,,,,,,-0.028468605,-0.374565972,0,0,0,,0,29,29,15,1,GREASE,HB,old,m,./images/GREASEHB.png,,,,,,,,,,,,,,,,,,,,,,
,,,,,,,,,,,,,,,,,199111,18,2022-01-29_05h02.18.618,lexical_decision_task_DD_L2,2021.2.3,MacIntel,47.95243119,,,,,,,,,,,0.6988,0,,,,,,,,,,,,,,z,0,0.6988,,,,,,,,-0.028468605,-0.374565972,0,0,0,,0,30,30,34,1,CANYON,LB,old,m,./images/CANYONLB.png,,,,,,,,,,,,,,,,,,,,,,
,,,,,,,,,,,,,,,,,199111,18,2022-01-29_05h02.18.618,lexical_decision_task_DD_L2,2021.2.3,MacIntel,47.95243119,,,,,,,,,,,0.7656,1,,,,,,,,,,,,,,z,1,0.7656,,,,,,,,-0.028468605,-0.374565972,0,0,0,,0,31,31,140,1,DOVET,LB,old,z,./images/DOVETLB.png,,,,,,,,,,,,,,,,,,,,,,
,,,,,,,,,,,,,,,,,199111,18,2022-01-29_05h02.18.618,lexical_decision_task_DD_L2,2021.2.3,MacIntel,47.95243119,,,,,,,,,,,0.8522,1,,,,,,,,,,,,,,z,1,0.8522,,,,,,,,-0.028468605,-0.374565972,0,0,0,,0,32,32,95,1,HANTY,LB,old,z,./images/HANTYLB.png,,,,,,,,,,,,,,,,,,,,,,
,,,,,,,,,,,,,,,,,199111,18,2022-01-29_05h02.18.618,lexical_decision_task_DD_L2,2021.2.3,MacIntel,47.95243119,,,,,,,,,,,0.6598,1,,,,,,,,,,,,,,m,1,0.6598,,,,,,,,-0.028468605,-0.374565972,0,0,0,,0,33,33,83,1,JUNGLE,C,old,m,./images/JUNGLE.png,,,,,,,,,,,,,,,,,,,,,,
,,,,,,,,,,,,,,,,,199111,18,2022-01-29_05h02.18.618,lexical_decision_task_DD_L2,2021.2.3,MacIntel,47.95243119,,,,,,,,,,,0.6428,1,,,,,,,,,,,,,,z,1,0.6428,,,,,,,,-0.028468605,-0.374565972,0,0,0,,0,34,34,114,1,RIKES,C,old,z,./images/RIKES.png,,,,,,,,,,,,,,,,,,,,,,
,,,,,,,,,,,,,,,,,199111,18,2022-01-29_05h02.18.618,lexical_decision_task_DD_L2,2021.2.3,MacIntel,47.95243119,,,,,,,,,,,0.5967,1,,,,,,,,,,,,,,z,1,0.5967,,,,,,,,-0.028468605,-0.374565972,0,0,0,,0,35,35,105,1,MOKER,C,old,z,./images/MOKER.png,,,,,,,,,,,,,,,,,,,,,,
,,,,,,,,,,,,,,,,,199111,18,2022-01-29_05h02.18.618,lexical_decision_task_DD_L2,2021.2.3,MacIntel,47.95243119,,,,,,,,,,,0.5379,1,,,,,,,,,,,,,,m,1,0.5379,,,,,,,,-0.028468605,-0.374565972,0,0,0,,0,36,36,74,1,CEMENT,C,old,m,./images/CEMENT.png,,,,,,,,,,,,,,,,,,,,,,
,,,,,,,,,,,,,,,,,199111,18,2022-01-29_05h02.18.618,lexical_decision_task_DD_L2,2021.2.3,MacIntel,47.95243119,,,,,,,,,,,1.0189,1,,,,,,,,,,,,,,z,1,1.0189,,,,,,,,-0.028468605,-0.374565972,0,0,0,,0,37,37,118,1,BAVEL,HB,old,z,./images/BAVELHB.png,,,,,,,,,,,,,,,,,,,,,,
,,,,,,,,,,,,,,,,,199111,18,2022-01-29_05h02.18.618,lexical_decision_task_DD_L2,2021.2.3,MacIntel,47.95243119,,,,,,,,,,,0.5556,1,,,,,,,,,,,,,,m,1,0.5556,,,,,,,,-0.028468605,-0.374565972,0,0,0,,0,38,38,63,1,MIRROR,HB,old,m,./images/MIRRORHB.png,,,,,,,,,,,,,,,,,,,,,,
,,,,,,,,,,,,,,,,,199111,18,2022-01-29_05h02.18.618,lexical_decision_task_DD_L2,2021.2.3,MacIntel,47.95243119,,,,,,,,,,,0.4866,1,,,,,,,,,,,,,,m,1,0.4866,,,,,,,,-0.028468605,-0.374565972,0,0,0,,0,39,39,37,1,BIRTH,LB,old,m,./images/BIRTHLB.png,,,,,,,,,,,,,,,,,,,,,,
,,,,,,,,,,,,,,,,,199111,18,2022-01-29_05h02.18.618,lexical_decision_task_DD_L2,2021.2.3,MacIntel,47.95243119,,,,,,,,,,,0.8388,1,,,,,,,,,,,,,,z,1,0.8388,,,,,,,,-0.028468605,-0.374565972,0,0,0,,0,40,40,85,1,CHULK,HB,old,z,./images/CHULKHB.png,,,,,,,,,,,,,,,,,,,,,,
,,,,,,,,,,,,,,,,,199111,18,2022-01-29_05h02.18.618,lexical_decision_task_DD_L2,2021.2.3,MacIntel,47.95243119,,,,,,,,,,,0.7181,1,,,,,,,,,,,,,,z,1,0.7181,,,,,,,,-0.028468605,-0.374565972,0,0,0,space,0,41,41,143,1,MONGS,LB,old,z,./images/MONGSLB.png,3.0847,,,,,,,,,,,,,,,,,,,,,
,,,,,,,,,,,,,,,,,199111,18,2022-01-29_05h02.18.618,lexical_decision_task_DD_L2,2021.2.3,MacIntel,47.95243119,,,,,,,,,,,1.2486,1,,,,,,,,,,,,,,z,1,1.2486,,,,,,,,-0.028468605,-0.374565972,0,0,0,,0,42,42,112,1,MYING,HB,old,z,./images/MYINGHB.png,,,,,,,,,,,,,,,,,,,,,,
,,,,,,,,,,,,,,,,,199111,18,2022-01-29_05h02.18.618,lexical_decision_task_DD_L2,2021.2.3,MacIntel,47.95243119,,,,,,,,,,,0.7171,1,,,,,,,,,,,,,,z,1,0.7171,,,,,,,,-0.028468605,-0.374565972,0,0,0,,0,43,43,121,1,CEERS,HB,old,z,./images/CEERSHB.png,,,,,,,,,,,,,,,,,,,,,,
,,,,,,,,,,,,,,,,,199111,18,2022-01-29_05h02.18.618,lexical_decision_task_DD_L2,2021.2.3,MacIntel,47.95243119,,,,,,,,,,,0.5572,1,,,,,,,,,,,,,,m,1,0.5572,,,,,,,,-0.028468605,-0.374565972,0,0,0,,0,44,44,7,1,PAINT,LB,old,m,./images/PAINTLB.png,,,,,,,,,,,,,,,,,,,,,,
,,,,,,,,,,,,,,,,,199111,18,2022-01-29_05h02.18.618,lexical_decision_task_DD_L2,2021.2.3,MacIntel,47.95243119,,,,,,,,,,,0.4935,1,,,,,,,,,,,,,,m,1,0.4935,,,,,,,,-0.028468605,-0.374565972,0,0,0,,0,45,45,48,1,SPORT,HB,old,m,./images/SPORTHB.png,,,,,,,,,,,,,,,,,,,,,,
,,,,,,,,,,,,,,,,,199111,18,2022-01-29_05h02.18.618,lexical_decision_task_DD_L2,2021.2.3,MacIntel,47.95243119,,,,,,,,,,,0.5945,1,,,,,,,,,,,,,,z,1,0.5945,,,,,,,,-0.028468605,-0.374565972,0,0,0,,0,46,46,107,1,FASKS,LB,old,z,./images/FASKSLB.png,,,,,,,,,,,,,,,,,,,,,,
,,,,,,,,,,,,,,,,,199111,18,2022-01-29_05h02.18.618,lexical_decision_task_DD_L2,2021.2.3,MacIntel,47.95243119,,,,,,,,,,,0.9321,1,,,,,,,,,,,,,,m,1,0.9321,,,,,,,,-0.028468605,-0.374565972,0,0,0,,0,47,47,57,1,MOOSE,HB,old,m,./images/MOOSEHB.png,,,,,,,,,,,,,,,,,,,,,,
,,,,,,,,,,,,,,,,,199111,18,2022-01-29_05h02.18.618,lexical_decision_task_DD_L2,2021.2.3,MacIntel,47.95243119,,,,,,,,,,,0.6008,1,,,,,,,,,,,,,,z,1,0.6008,,,,,,,,-0.028468605,-0.374565972,0,0,0,,0,48,48,155,1,CANGY,LB,old,z,./images/CANGYLB.png,,,,,,,,,,,,,,,,,,,,,,
,,,,,,,,,,,,,,,,,199111,18,2022-01-29_05h02.18.618,lexical_decision_task_DD_L2,2021.2.3,MacIntel,47.95243119,,,,,,,,,,,0.5479,0,,,,,,,,,,,,,,z,0,0.5479,,,,,,,,-0.028468605,-0.374565972,0,0,0,,0,49,49,66,1,SWEAT,HB,old,m,./images/SWEATHB.png,,,,,,,,,,,,,,,,,,,,,,
,,,,,,,,,,,,,,,,,199111,18,2022-01-29_05h02.18.618,lexical_decision_task_DD_L2,2021.2.3,MacIntel,47.95243119,,,,,,,,,,,0.6146,1,,,,,,,,,,,,,,m,1,0.6146,,,,,,,,-0.028468605,-0.374565972,0,0,0,,0,50,50,40,1,SWING,LB,old,m,./images/SWINGLB.png,,,,,,,,,,,,,,,,,,,,,,
,,,,,,,,,,,,,,,,,199111,18,2022-01-29_05h02.18.618,lexical_decision_task_DD_L2,2021.2.3,MacIntel,47.95243119,,,,,,,,,,,0.7218,1,,,,,,,,,,,,,,m,1,0.7218,,,,,,,,-0.028468605,-0.374565972,0,0,0,,0,51,51,50,1,MALLET,C,old,m,./images/MALLET.png,,,,,,,,,,,,,,,,,,,,,,
,,,,,,,,,,,,,,,,,199111,18,2022-01-29_05h02.18.618,lexical_decision_task_DD_L2,2021.2.3,MacIntel,47.95243119,,,,,,,,,,,0.9143,1,,,,,,,,,,,,,,z,1,0.9143,,,,,,,,-0.028468605,-0.374565972,0,0,0,,0,52,52,148,1,JOMS,HB,old,z,./images/JOMSHB.png,,,,,,,,,,,,,,,,,,,,,,
,,,,,,,,,,,,,,,,,199111,18,2022-01-29_05h02.18.618,lexical_decision_task_DD_L2,2021.2.3,MacIntel,47.95243119,,,,,,,,,,,0.652,1,,,,,,,,,,,,,,m,1,0.652,,,,,,,,-0.028468605,-0.374565972,0,0,0,,0,53,53,25,1,WRIST,LB,old,m,./images/WRISTLB.png,,,,,,,,,,,,,,,,,,,,,,
,,,,,,,,,,,,,,,,,199111,18,2022-01-29_05h02.18.618,lexical_decision_task_DD_L2,2021.2.3,MacIntel,47.95243119,,,,,,,,,,,0.8829,1,,,,,,,,,,,,,,z,1,0.8829,,,,,,,,-0.028468605,-0.374565972,0,0,0,,0,54,54,145,1,LAMEL,HB,old,z,./images/LAMELHB.png,,,,,,,,,,,,,,,,,,,,,,
,,,,,,,,,,,,,,,,,199111,18,2022-01-29_05h02.18.618,lexical_decision_task_DD_L2,2021.2.3,MacIntel,47.95243119,,,,,,,,,,,1.1073,1,,,,,,,,,,,,,,z,1,1.1073,,,,,,,,-0.028468605,-0.374565972,0,0,0,,0,55,55,139,1,BLEAR,HB,old,z,./images/BLEARHB.png,,,,,,,,,,,,,,,,,,,,,,
,,,,,,,,,,,,,,,,,199111,18,2022-01-29_05h02.18.618,lexical_decision_task_DD_L2,2021.2.3,MacIntel,47.95243119,,,,,,,,,,,0.6102,1,,,,,,,,,,,,,,m,1,0.6102,,,,,,,,-0.028468605,-0.374565972,0,0,0,,0,56,56,19,1,DOUGH,LB,old,m,./images/DOUGHLB.png,,,,,,,,,,,,,,,,,,,,,,
,,,,,,,,,,,,,,,,,199111,18,2022-01-29_05h02.18.618,lexical_decision_task_DD_L2,2021.2.3,MacIntel,47.95243119,,,,,,,,,,,0.5829,1,,,,,,,,,,,,,,z,1,0.5829,,,,,,,,-0.028468605,-0.374565972,0,0,0,,0,57,57,137,1,JOOST,LB,old,z,./images/JOOSTLB.png,,,,,,,,,,,,,,,,,,,,,,
,,,,,,,,,,,,,,,,,199111,18,2022-01-29_05h02.18.618,lexical_decision_task_DD_L2,2021.2.3,MacIntel,47.95243119,,,,,,,,,,,0.5805,1,,,,,,,,,,,,,,m,1,0.5805,,,,,,,,-0.028468605,-0.374565972,0,0,0,,0,58,58,3,1,FINGER,HB,old,m,./images/FINGERHB.png,,,,,,,,,,,,,,,,,,,,,,
,,,,,,,,,,,,,,,,,199111,18,2022-01-29_05h02.18.618,lexical_decision_task_DD_L2,2021.2.3,MacIntel,47.95243119,,,,,,,,,,,0.5677,1,,,,,,,,,,,,,,m,1,0.5677,,,,,,,,-0.028468605,-0.374565972,0,0,0,,0,59,59,31,1,QUILL,LB,old,m,./images/QUILLLB.png,,,,,,,,,,,,,,,,,,,,,,
,,,,,,,,,,,,,,,,,199111,18,2022-01-29_05h02.18.618,lexical_decision_task_DD_L2,2021.2.3,MacIntel,47.95243119,,,,,,,,,,,0.7567,1,,,,,,,,,,,,,,z,1,0.7567,,,,,,,,-0.028468605,-0.374565972,0,0,0,,0,60,60,104,1,GITTY,LB,old,z,./images/GITTYLB.png,,,,,,,,,,,,,,,,,,,,,,
,,,,,,,,,,,,,,,,,199111,18,2022-01-29_05h02.18.618,lexical_decision_task_DD_L2,2021.2.3,MacIntel,47.95243119,,,,,,,,,,,0.6177,0,,,,,,,,,,,,,,z,0,0.6177,,,,,,,,-0.028468605,-0.374565972,0,0,0,,0,61,61,44,1,LIZARD,C,old,m,./images/LIZARD.png,,,,,,,,,,,,,,,,,,,,,,
,,,,,,,,,,,,,,,,,199111,18,2022-01-29_05h02.18.618,lexical_decision_task_DD_L2,2021.2.3,MacIntel,47.95243119,,,,,,,,,,,1.0711,0,,,,,,,,,,,,,,z,0,1.0711,,,,,,,,-0.028468605,-0.374565972,0,0,0,,0,62,62,16,1,PENCE,LB,old,m,./images/PENCELB.png,,,,,,,,,,,,,,,,,,,,,,
,,,,,,,,,,,,,,,,,199111,18,2022-01-29_05h02.18.618,lexical_decision_task_DD_L2,2021.2.3,MacIntel,47.95243119,,,,,,,,,,,0.4853,1,,,,,,,,,,,,,,m,1,0.4853,,,,,,,,-0.028468605,-0.374565972,0,0,0,,0,63,63,35,1,PEACH,C,old,m,./images/PEACH.png,,,,,,,,,,,,,,,,,,,,,,
,,,,,,,,,,,,,,,,,199111,18,2022-01-29_05h02.18.618,lexical_decision_task_DD_L2,2021.2.3,MacIntel,47.95243119,,,,,,,,,,,1.023,1,,,,,,,,,,,,,,z,1,1.023,,,,,,,,-0.028468605,-0.374565972,0,0,0,,0,64,64,157,1,INLER,HB,old,z,./images/INLERHB.png,,,,,,,,,,,,,,,,,,,,,,
,,,,,,,,,,,,,,,,,199111,18,2022-01-29_05h02.18.618,lexical_decision_task_DD_L2,2021.2.3,MacIntel,47.95243119,,,,,,,,,,,0.6001,1,,,,,,,,,,,,,,m,1,0.6001,,,,,,,,-0.028468605,-0.374565972,0,0,0,,0,65,65,76,1,INFANT,LB,old,m,./images/INFANTLB.png,,,,,,,,,,,,,,,,,,,,,,
,,,,,,,,,,,,,,,,,199111,18,2022-01-29_05h02.18.618,lexical_decision_task_DD_L2,2021.2.3,MacIntel,47.95243119,,,,,,,,,,,0.6259,1,,,,,,,,,,,,,,z,1,0.6259,,,,,,,,-0.028468605,-0.374565972,0,0,0,,0,66,66,111,1,HOSSE,C,old,z,./images/HOSSE.png,,,,,,,,,,,,,,,,,,,,,,
,,,,,,,,,,,,,,,,,199111,18,2022-01-29_05h02.18.618,lexical_decision_task_DD_L2,2021.2.3,MacIntel,47.95243119,,,,,,,,,,,0.7835,1,,,,,,,,,,,,,,z,1,0.7835,,,,,,,,-0.028468605,-0.374565972,0,0,0,,0,67,67,161,1,BLAPS,LB,old,z,./images/BLAPSLB.png,,,,,,,,,,,,,,,,,,,,,,
,,,,,,,,,,,,,,,,,199111,18,2022-01-29_05h02.18.618,lexical_decision_task_DD_L2,2021.2.3,MacIntel,47.95243119,,,,,,,,,,,0.5398,1,,,,,,,,,,,,,,m,1,0.5398,,,,,,,,-0.028468605,-0.374565972,0,0,0,,0,68,68,68,1,TORCH,C,old,m,./images/TORCH.png,,,,,,,,,,,,,,,,,,,,,,
,,,,,,,,,,,,,,,,,199111,18,2022-01-29_05h02.18.618,lexical_decision_task_DD_L2,2021.2.3,MacIntel,47.95243119,,,,,,,,,,,1.0849,1,,,,,,,,,,,,,,z,1,1.0849,,,,,,,,-0.028468605,-0.374565972,0,0,0,,0,69,69,166,1,SHORY,HB,old,z,./images/SHORYHB.png,,,,,,,,,,,,,,,,,,,,,,
,,,,,,,,,,,,,,,,,199111,18,2022-01-29_05h02.18.618,lexical_decision_task_DD_L2,2021.2.3,MacIntel,47.95243119,,,,,,,,,,,0.7944,1,,,,,,,,,,,,,,z,1,0.7944,,,,,,,,-0.028468605,-0.374565972,0,0,0,,0,70,70,93,1,SMONE,C,old,z,./images/SMONE.png,,,,,,,,,,,,,,,,,,,,,,
,,,,,,,,,,,,,,,,,199111,18,2022-01-29_05h02.18.618,lexical_decision_task_DD_L2,2021.2.3,MacIntel,47.95243119,,,,,,,,,,,0.549,1,,,,,,,,,,,,,,m,1,0.549,,,,,,,,-0.028468605,-0.374565972,0,0,0,,0,71,71,55,1,MUFFIN,LB,old,m,./images/MUFFINLB.png,,,,,,,,,,,,,,,,,,,,,,
,,,,,,,,,,,,,,,,,199111,18,2022-01-29_05h02.18.618,lexical_decision_task_DD_L2,2021.2.3,MacIntel,47.95243119,,,,,,,,,,,1.0479,1,,,,,,,,,,,,,,m,1,1.0479,,,,,,,,-0.028468605,-0.374565972,0,0,0,,0,72,72,69,1,COOKER,HB,old,m,./images/COOKERHB.png,,,,,,,,,,,,,,,,,,,,,,
,,,,,,,,,,,,,,,,,199111,18,2022-01-29_05h02.18.618,lexical_decision_task_DD_L2,2021.2.3,MacIntel,47.95243119,,,,,,,,,,,0.6673,1,,,,,,,,,,,,,,m,1,0.6673,,,,,,,,-0.028468605,-0.374565972,0,0,0,,0,73,73,64,1,JELLY,LB,old,m,./images/JELLYLB.png,,,,,,,,,,,,,,,,,,,,,,
,,,,,,,,,,,,,,,,,199111,18,2022-01-29_05h02.18.618,lexical_decision_task_DD_L2,2021.2.3,MacIntel,47.95243119,,,,,,,,,,,0.8365,1,,,,,,,,,,,,,,z,1,0.8365,,,,,,,,-0.028468605,-0.374565972,0,0,0,,0,74,74,127,1,NINDY,HB,old,z,./images/NINDYHB.png,,,,,,,,,,,,,,,,,,,,,,
,,,,,,,,,,,,,,,,,199111,18,2022-01-29_05h02.18.618,lexical_decision_task_DD_L2,2021.2.3,MacIntel,47.95243119,,,,,,,,,,,0.9786,1,,,,,,,,,,,,,,z,1,0.9786,,,,,,,,-0.028468605,-0.374565972,0,0,0,,0,75,75,133,1,POWDY,HB,old,z,./images/POWDYHB.png,,,,,,,,,,,,,,,,,,,,,,
,,,,,,,,,,,,,,,,,199111,18,2022-01-29_05h02.18.618,lexical_decision_task_DD_L2,2021.2.3,MacIntel,47.95243119,,,,,,,,,,,0.5807,1,,,,,,,,,,,,,,z,1,0.5807,,,,,,,,-0.028468605,-0.374565972,0,0,0,,0,76,76,96,1,KEAMS,C,old,z,./images/KEAMS.png,,,,,,,,,,,,,,,,,,,,,,
,,,,,,,,,,,,,,,,,199111,18,2022-01-29_05h02.18.618,lexical_decision_task_DD_L2,2021.2.3,MacIntel,47.95243119,,,,,,,,,,,0.9649,1,,,,,,,,,,,,,,m,1,0.9649,,,,,,,,-0.028468605,-0.374565972,0,0,0,,0,77,77,75,1,GRAIN,HB,old,m,./images/GRAINHB.png,,,,,,,,,,,,,,,,,,,,,,
,,,,,,,,,,,,,,,,,199111,18,2022-01-29_05h02.18.618,lexical_decision_task_DD_L2,2021.2.3,MacIntel,47.95243119,,,,,,,,,,,0.765,1,,,,,,,,,,,,,,z,1,0.765,,,,,,,,-0.028468605,-0.374565972,0,0,0,,0,78,78,92,1,PAIMS,LB,old,z,./images/PAIMSLB.png,,,,,,,,,,,,,,,,,,,,,,
,,,,,,,,,,,,,,,,,199111,18,2022-01-29_05h02.18.618,lexical_decision_task_DD_L2,2021.2.3,MacIntel,47.95243119,,,,,,,,,,,0.7068,1,,,,,,,,,,,,,,z,1,0.7068,,,,,,,,-0.028468605,-0.374565972,0,0,0,,0,79,79,89,1,DRIEK,LB,old,z,./images/DRIEKLB.png,,,,,,,,,,,,,,,,,,,,,,
,,,,,,,,,,,,,,,,,199111,18,2022-01-29_05h02.18.618,lexical_decision_task_DD_L2,2021.2.3,MacIntel,47.95243119,,,,,,,,,,,0.7272,1,,,,,,,,,,,,,,m,1,0.7272,,,,,,,,-0.028468605,-0.374565972,0,0,0,,0,80,80,41,1,STRING,C,old,m,./images/STRING.png,,,,,,,,,,,,,,,,,,,,,,
,,,,,,,,,,,,,,,,,199111,18,2022-01-29_05h02.18.618,lexical_decision_task_DD_L2,2021.2.3,MacIntel,47.95243119,,,,,,,,,,,0.6805,1,,,,,,,,,,,,,,z,1,0.6805,,,,,,,,-0.028468605,-0.374565972,0,0,0,,0,81,81,150,1,NOOLS,C,old,z,./images/NOOLS.png,,,,,,,,,,,,,,,,,,,,,,
,,,,,,,,,,,,,,,,,199111,18,2022-01-29_05h02.18.618,lexical_decision_task_DD_L2,2021.2.3,MacIntel,47.95243119,,,,,,,,,,,0.5289,1,,,,,,,,,,,,,,m,1,0.5289,,,,,,,,-0.028468605,-0.374565972,0,0,0,,0,82,82,82,1,SUNSET,LB,old,m,./images/SUNSETLB.png,,,,,,,,,,,,,,,,,,,,,,
,,,,,,,,,,,,,,,,,199111,18,2022-01-29_05h02.18.618,lexical_decision_task_DD_L2,2021.2.3,MacIntel,47.95243119,,,,,,,,,,,0.6847,1,,,,,,,,,,,,,,m,1,0.6847,,,,,,,,-0.028468605,-0.374565972,0,0,0,space,0,83,83,47,1,BERRY,C,old,m,./images/BERRY.png,1.0053,,,,,,,,,,,,,,,,,,,,,
,,,,,,,,,,,,,,,,,199111,18,2022-01-29_05h02.18.618,lexical_decision_task_DD_L2,2021.2.3,MacIntel,47.95243119,,,,,,,,,,,0.4861,1,,,,,,,,,,,,,,m,1,0.4861,,,,,,,,-0.028468605,-0.374565972,0,0,0,,0,84,84,46,1,PEARL,LB,old,m,./images/PEARLLB.png,,,,,,,,,,,,,,,,,,,,,,
,,,,,,,,,,,,,,,,,199111,18,2022-01-29_05h02.18.618,lexical_decision_task_DD_L2,2021.2.3,MacIntel,47.95243119,,,,,,,,,,,0.4942,1,,,,,,,,,,,,,,m,1,0.4942,,,,,,,,-0.028468605,-0.374565972,0,0,0,,0,85,85,53,1,CARPET,C,old,m,./images/CARPET.png,,,,,,,,,,,,,,,,,,,,,,
,,,,,,,,,,,,,,,,,199111,18,2022-01-29_05h02.18.618,lexical_decision_task_DD_L2,2021.2.3,MacIntel,47.95243119,,,,,,,,,,,0.6847,1,,,,,,,,,,,,,,z,1,0.6847,,,,,,,,-0.028468605,-0.374565972,0,0,0,,0,86,86,163,1,GAMBA,HB,old,z,./images/GAMBAHB.png,,,,,,,,,,,,,,,,,,,,,,
,,,,,,,,,,,,,,,,,199111,18,2022-01-29_05h02.18.618,lexical_decision_task_DD_L2,2021.2.3,MacIntel,47.95243119,,,,,,,,,,,0.6271,1,,,,,,,,,,,,,,z,1,0.6271,,,,,,,,-0.028468605,-0.374565972,0,0,0,,0,87,87,86,1,AIFED,LB,old,z,./images/AIFEDLB.png,,,,,,,,,,,,,,,,,,,,,,
,,,,,,,,,,,,,,,,,199111,18,2022-01-29_05h02.18.618,lexical_decision_task_DD_L2,2021.2.3,MacIntel,47.95243119,,,,,,,,,,,0.5647,1,,,,,,,,,,,,,,m,1,0.5647,,,,,,,,-0.028468605,-0.374565972,0,0,0,,0,88,88,70,1,URINE,LB,old,m,./images/URINELB.png,,,,,,,,,,,,,,,,,,,,,,
,,,,,,,,,,,,,,,,,199111,18,2022-01-29_05h02.18.618,lexical_decision_task_DD_L2,2021.2.3,MacIntel,47.95243119,,,,,,,,,,,0.709,1,,,,,,,,,,,,,,z,1,0.709,,,,,,,,-0.028468605,-0.374565972,0,0,0,,0,89,89,128,1,GRIFT,LB,old,z,./images/GRIFTLB.png,,,,,,,,,,,,,,,,,,,,,,
,,,,,,,,,,,,,,,,,199111,18,2022-01-29_05h02.18.618,lexical_decision_task_DD_L2,2021.2.3,MacIntel,47.95243119,,,,,,,,,,,0.5743,1,,,,,,,,,,,,,,z,1,0.5743,,,,,,,,-0.028468605,-0.374565972,0,0,0,,0,90,90,84,1,HAXES,C,old,z,./images/HAXES.png,,,,,,,,,,,,,,,,,,,,,,
,,,,,,,,,,,,,,,,,199111,18,2022-01-29_05h02.18.618,lexical_decision_task_DD_L2,2021.2.3,MacIntel,47.95243119,,,,,,,,,,,0.7121,1,,,,,,,,,,,,,,m,1,0.7121,,,,,,,,-0.028468605,-0.374565972,0,0,0,,0,91,91,23,1,WALRUS,C,old,m,./images/WALRUS.png,,,,,,,,,,,,,,,,,,,,,,
,,,,,,,,,,,,,,,,,199111,18,2022-01-29_05h02.18.618,lexical_decision_task_DD_L2,2021.2.3,MacIntel,47.95243119,,,,,,,,,,,0.6347,0,,,,,,,,,,,,,,m,0,0.6347,,,,,,,,-0.028468605,-0.374565972,0,0,0,,0,92,92,159,1,CUDDY,C,old,z,./images/CUDDY.png,,,,,,,,,,,,,,,,,,,,,,
,,,,,,,,,,,,,,,,,199111,18,2022-01-29_05h02.18.618,lexical_decision_task_DD_L2,2021.2.3,MacIntel,47.95243119,,,,,,,,,,,0.7849,1,,,,,,,,,,,,,,z,1,0.7849,,,,,,,,-0.028468605,-0.374565972,0,0,0,,0,93,93,99,1,BACKY,C,old,z,./images/BACKY.png,,,,,,,,,,,,,,,,,,,,,,
,,,,,,,,,,,,,,,,,199111,18,2022-01-29_05h02.18.618,lexical_decision_task_DD_L2,2021.2.3,MacIntel,47.95243119,,,,,,,,,,,0.8062,1,,,,,,,,,,,,,,z,1,0.8062,,,,,,,,-0.028468605,-0.374565972,0,0,0,,0,94,94,123,1,SEDGE,C,old,z,./images/SEDGE.png,,,,,,,,,,,,,,,,,,,,,,
,,,,,,,,,,,,,,,,,199111,18,2022-01-29_05h02.18.618,lexical_decision_task_DD_L2,2021.2.3,MacIntel,47.95243119,,,,,,,,,,,0.6653,1,,,,,,,,,,,,,,m,1,0.6653,,,,,,,,-0.028468605,-0.374565972,0,0,0,,0,95,95,77,1,COUCH,C,old,m,./images/COUCH.png,,,,,,,,,,,,,,,,,,,,,,
,,,,,,,,,,,,,,,,,199111,18,2022-01-29_05h02.18.618,lexical_decision_task_DD_L2,2021.2.3,MacIntel,47.95243119,,,,,,,,,,,1.0483,1,,,,,,,,,,,,,,z,1,1.0483,,,,,,,,-0.028468605,-0.374565972,0,0,0,,0,96,96,142,1,PLASK,HB,old,z,./images/PLASKHB.png,,,,,,,,,,,,,,,,,,,,,,
,,,,,,,,,,,,,,,,,199111,18,2022-01-29_05h02.18.618,lexical_decision_task_DD_L2,2021.2.3,MacIntel,47.95243119,,,,,,,,,,,0.7175,1,,,,,,,,,,,,,,m,1,0.7175,,,,,,,,-0.028468605,-0.374565972,0,0,0,,0,97,97,21,1,KIDNEY,HB,old,m,./images/KIDNEYHB.png,,,,,,,,,,,,,,,,,,,,,,
,,,,,,,,,,,,,,,,,199111,18,2022-01-29_05h02.18.618,lexical_decision_task_DD_L2,2021.2.3,MacIntel,47.95243119,,,,,,,,,,,0.8786,1,,,,,,,,,,,,,,z,1,0.8786,,,,,,,,-0.028468605,-0.374565972,0,0,0,,0,98,98,109,1,BURGE,HB,old,z,./images/BURGEHB.png,,,,,,,,,,,,,,,,,,,,,,
,,,,,,,,,,,,,,,,,199111,18,2022-01-29_05h02.18.618,lexical_decision_task_DD_L2,2021.2.3,MacIntel,47.95243119,,,,,,,,,,,1.0605,1,,,,,,,,,,,,,,z,1,1.0605,,,,,,,,-0.028468605,-0.374565972,0,0,0,,0,99,99,88,1,GLUSH,HB,old,z,./images/GLUSHHB.png,,,,,,,,,,,,,,,,,,,,,,
,,,,,,,,,,,,,,,,,199111,18,2022-01-29_05h02.18.618,lexical_decision_task_DD_L2,2021.2.3,MacIntel,47.95243119,,,,,,,,,,,0.6898,1,,,,,,,,,,,,,,z,1,0.6898,,,,,,,,-0.028468605,-0.374565972,0,0,0,,0,100,100,102,1,DULLE,C,old,z,./images/DULLE.png,,,,,,,,,,,,,,,,,,,,,,
,,,,,,,,,,,,,,,,,199111,18,2022-01-29_05h02.18.618,lexical_decision_task_DD_L2,2021.2.3,MacIntel,47.95243119,,,,,,,,,,,0.8104,1,,,,,,,,,,,,,,z,1,0.8104,,,,,,,,-0.028468605,-0.374565972,0,0,0,,0,101,101,94,1,BLANS,HB,old,z,./images/BLANSHB.png,,,,,,,,,,,,,,,,,,,,,,
,,,,,,,,,,,,,,,,,199111,18,2022-01-29_05h02.18.618,lexical_decision_task_DD_L2,2021.2.3,MacIntel,47.95243119,,,,,,,,,,,0.8442,1,,,,,,,,,,,,,,m,1,0.8442,,,,,,,,-0.028468605,-0.374565972,0,0,0,,0,102,102,38,1,LADDER,C,old,m,./images/LADDER.png,,,,,,,,,,,,,,,,,,,,,,
,,,,,,,,,,,,,,,,,199111,18,2022-01-29_05h02.18.618,lexical_decision_task_DD_L2,2021.2.3,MacIntel,47.95243119,,,,,,,,,,,1.3462,1,,,,,,,,,,,,,,m,1,1.3462,,,,,,,,-0.028468605,-0.374565972,0,0,0,,0,103,103,61,1,CANDLE,LB,old,m,./images/CANDLELB.png,,,,,,,,,,,,,,,,,,,,,,
,,,,,,,,,,,,,,,,,199111,18,2022-01-29_05h02.18.618,lexical_decision_task_DD_L2,2021.2.3,MacIntel,47.95243119,,,,,,,,,,,0.5476,1,,,,,,,,,,,,,,m,1,0.5476,,,,,,,,-0.028468605,-0.374565972,0,0,0,,0,104,104,60,1,TWINS,HB,old,m,./images/TWINSHB.png,,,,,,,,,,,,,,,,,,,,,,
,,,,,,,,,,,,,,,,,199111,18,2022-01-29_05h02.18.618,lexical_decision_task_DD_L2,2021.2.3,MacIntel,47.95243119,,,,,,,,,,,0.5819,1,,,,,,,,,,,,,,z,1,0.5819,,,,,,,,-0.028468605,-0.374565972,0,0,0,,0,105,105,138,1,PLICE,C,old,z,./images/PLICE.png,,,,,,,,,,,,,,,,,,,,,,
,,,,,,,,,,,,,,,,,199111,18,2022-01-29_05h02.18.618,lexical_decision_task_DD_L2,2021.2.3,MacIntel,47.95243119,,,,,,,,,,,0.5017,1,,,,,,,,,,,,,,m,1,0.5017,,,,,,,,-0.028468605,-0.374565972,0,0,0,,0,106,106,36,1,THROAT,HB,old,m,./images/THROATHB.png,,,,,,,,,,,,,,,,,,,,,,
,,,,,,,,,,,,,,,,,199111,18,2022-01-29_05h02.18.618,lexical_decision_task_DD_L2,2021.2.3,MacIntel,47.95243119,,,,,,,,,,,0.5965,1,,,,,,,,,,,,,,z,1,0.5965,,,,,,,,-0.028468605,-0.374565972,0,0,0,,0,107,107,153,1,CLUPS,C,old,z,./images/CLUPS.png,,,,,,,,,,,,,,,,,,,,,,
,,,,,,,,,,,,,,,,,199111,18,2022-01-29_05h02.18.618,lexical_decision_task_DD_L2,2021.2.3,MacIntel,47.95243119,,,,,,,,,,,0.8341,1,,,,,,,,,,,,,,m,1,0.8341,,,,,,,,-0.028468605,-0.374565972,0,0,0,,0,108,108,30,1,STORM,HB,old,m,./images/STORMHB.png,,,,,,,,,,,,,,,,,,,,,,
,,,,,,,,,,,,,,,,,199111,18,2022-01-29_05h02.18.618,lexical_decision_task_DD_L2,2021.2.3,MacIntel,47.95243119,,,,,,,,,,,0.7299,1,,,,,,,,,,,,,,z,1,0.7299,,,,,,,,-0.028468605,-0.374565972,0,0,0,,0,109,109,146,1,MOOST,LB,old,z,./images/MOOSTLB.png,,,,,,,,,,,,,,,,,,,,,,
,,,,,,,,,,,,,,,,,199111,18,2022-01-29_05h02.18.618,lexical_decision_task_DD_L2,2021.2.3,MacIntel,47.95243119,,,,,,,,,,,0.7058,1,,,,,,,,,,,,,,m,1,0.7058,,,,,,,,-0.028468605,-0.374565972,0,0,0,,0,110,110,12,1,SHORE,HB,old,m,./images/SHOREHB.png,,,,,,,,,,,,,,,,,,,,,,
,,,,,,,,,,,,,,,,,199111,18,2022-01-29_05h02.18.618,lexical_decision_task_DD_L2,2021.2.3,MacIntel,47.95243119,,,,,,,,,,,0.5331,1,,,,,,,,,,,,,,m,1,0.5331,,,,,,,,-0.028468605,-0.374565972,0,0,0,,0,111,111,52,1,BANNER,LB,old,m,./images/BANNERLB.png,,,,,,,,,,,,,,,,,,,,,,
,,,,,,,,,,,,,,,,,199111,18,2022-01-29_05h02.18.618,lexical_decision_task_DD_L2,2021.2.3,MacIntel,47.95243119,,,,,,,,,,,0.6122,1,,,,,,,,,,,,,,m,1,0.6122,,,,,,,,-0.028468605,-0.374565972,0,0,0,,0,112,112,27,1,ATTIC,HB,old,m,./images/ATTICHB.png,,,,,,,,,,,,,,,,,,,,,,
,,,,,,,,,,,,,,,,,199111,18,2022-01-29_05h02.18.618,lexical_decision_task_DD_L2,2021.2.3,MacIntel,47.95243119,,,,,,,,,,,0.5361,1,,,,,,,,,,,,,,z,1,0.5361,,,,,,,,-0.028468605,-0.374565972,0,0,0,,0,113,113,119,1,PAFER,LB,old,z,./images/PAFERLB.png,,,,,,,,,,,,,,,,,,,,,,
,,,,,,,,,,,,,,,,,199111,18,2022-01-29_05h02.18.618,lexical_decision_task_DD_L2,2021.2.3,MacIntel,47.95243119,,,,,,,,,,,0.6221,1,,,,,,,,,,,,,,m,1,0.6221,,,,,,,,-0.028468605,-0.374565972,0,0,0,,0,114,114,29,1,CRUMB,C,old,m,./images/CRUMB.png,,,,,,,,,,,,,,,,,,,,,,
,,,,,,,,,,,,,,,,,199111,18,2022-01-29_05h02.18.618,lexical_decision_task_DD_L2,2021.2.3,MacIntel,47.95243119,,,,,,,,,,,0.4987,1,,,,,,,,,,,,,,m,1,0.4987,,,,,,,,-0.028468605,-0.374565972,0,0,0,,0,115,115,71,1,PIMPLE,C,old,m,./images/PIMPLE.png,,,,,,,,,,,,,,,,,,,,,,
,,,,,,,,,,,,,,,,,199111,18,2022-01-29_05h02.18.618,lexical_decision_task_DD_L2,2021.2.3,MacIntel,47.95243119,,,,,,,,,,,0.6373,1,,,,,,,,,,,,,,m,1,0.6373,,,,,,,,-0.028468605,-0.374565972,0,0,0,,0,116,116,20,1,CRADLE,C,old,m,./images/CRADLE.png,,,,,,,,,,,,,,,,,,,,,,
,,,,,,,,,,,,,,,,,199111,18,2022-01-29_05h02.18.618,lexical_decision_task_DD_L2,2021.2.3,MacIntel,47.95243119,,,,,,,,,,,0.5612,1,,,,,,,,,,,,,,m,1,0.5612,,,,,,,,-0.028468605,-0.374565972,0,0,0,,0,117,117,51,1,ONION,HB,old,m,./images/ONIONHB.png,,,,,,,,,,,,,,,,,,,,,,
,,,,,,,,,,,,,,,,,199111,18,2022-01-29_05h02.18.618,lexical_decision_task_DD_L2,2021.2.3,MacIntel,47.95243119,,,,,,,,,,,1.1046,1,,,,,,,,,,,,,,z,1,1.1046,,,,,,,,-0.028468605,-0.374565972,0,0,0,,0,118,118,130,1,CRILL,HB,old,z,./images/CRILLHB.png,,,,,,,,,,,,,,,,,,,,,,
,,,,,,,,,,,,,,,,,199111,18,2022-01-29_05h02.18.618,lexical_decision_task_DD_L2,2021.2.3,MacIntel,47.95243119,,,,,,,,,,,0.5343,1,,,,,,,,,,,,,,m,1,0.5343,,,,,,,,-0.028468605,-0.374565972,0,0,0,,0,119,119,13,1,MOTOR,LB,old,m,./images/MOTORLB.png,,,,,,,,,,,,,,,,,,,,,,
,,,,,,,,,,,,,,,,,199111,18,2022-01-29_05h02.18.618,lexical_decision_task_DD_L2,2021.2.3,MacIntel,47.95243119,,,,,,,,,,,0.4658,1,,,,,,,,,,,,,,m,1,0.4658,,,,,,,,-0.028468605,-0.374565972,0,0,0,,0,120,120,24,1,SCREW,HB,old,m,./images/SCREWHB.png,,,,,,,,,,,,,,,,,,,,,,
,,,,,,,,,,,,,,,,,199111,18,2022-01-29_05h02.18.618,lexical_decision_task_DD_L2,2021.2.3,MacIntel,47.95243119,,,,,,,,,,,1.1851,1,,,,,,,,,,,,,,z,1,1.1851,,,,,,,,-0.028468605,-0.374565972,0,0,0,,0,121,121,154,1,THINT,HB,old,z,./images/THINTHB.png,,,,,,,,,,,,,,,,,,,,,,
,,,,,,,,,,,,,,,,,199111,18,2022-01-29_05h02.18.618,lexical_decision_task_DD_L2,2021.2.3,MacIntel,47.95243119,,,,,,,,,,,0.5947,1,,,,,,,,,,,,,,z,1,0.5947,,,,,,,,-0.028468605,-0.374565972,0,0,0,,0,122,122,132,1,SCIFF,C,old,z,./images/SCIFF.png,,,,,,,,,,,,,,,,,,,,,,
,,,,,,,,,,,,,,,,,199111,18,2022-01-29_05h02.18.618,lexical_decision_task_DD_L2,2021.2.3,MacIntel,47.95243119,,,,,,,,,,,0.6088,1,,,,,,,,,,,,,,z,1,0.6088,,,,,,,,-0.028468605,-0.374565972,0,0,0,,0,123,123,152,1,FRAIN,LB,old,z,./images/FRAINLB.png,,,,,,,,,,,,,,,,,,,,,,
,,,,,,,,,,,,,,,,,199111,18,2022-01-29_05h02.18.618,lexical_decision_task_DD_L2,2021.2.3,MacIntel,47.95243119,,,,,,,,,,,0.4768,1,,,,,,,,,,,,,,z,1,0.4768,,,,,,,,-0.028468605,-0.374565972,0,0,0,,0,124,124,167,1,ZONET,LB,old,z,./images/ZONETLB.png,,,,,,,,,,,,,,,,,,,,,,
,,,,,,,,,,,,,,,,,199111,18,2022-01-29_05h02.18.618,lexical_decision_task_DD_L2,2021.2.3,MacIntel,47.95243119,,,,,,,,,,,0.6283,1,,,,,,,,,,,,,,m,1,0.6283,,,,,,,,-0.028468605,-0.374565972,0,0,0,space,0,125,125,22,1,MELON,LB,old,m,./images/MELONLB.png,3.5365,,,,,,,,,,,,,,,,,,,,,
,,,,,,,,,,,,,,,,,199111,18,2022-01-29_05h02.18.618,lexical_decision_task_DD_L2,2021.2.3,MacIntel,47.95243119,,,,,,,,,,,0.5205,1,,,,,,,,,,,,,,m,1,0.5205,,,,,,,,-0.028468605,-0.374565972,0,0,0,,0,126,126,32,1,BARREL,C,old,m,./images/BARREL.png,,,,,,,,,,,,,,,,,,,,,,
,,,,,,,,,,,,,,,,,199111,18,2022-01-29_05h02.18.618,lexical_decision_task_DD_L2,2021.2.3,MacIntel,47.95243119,,,,,,,,,,,0.6015,1,,,,,,,,,,,,,,z,1,0.6015,,,,,,,,-0.028468605,-0.374565972,0,0,0,,0,127,127,134,1,TROSS,LB,old,z,./images/TROSSLB.png,,,,,,,,,,,,,,,,,,,,,,
,,,,,,,,,,,,,,,,,199111,18,2022-01-29_05h02.18.618,lexical_decision_task_DD_L2,2021.2.3,MacIntel,47.95243119,,,,,,,,,,,0.7026,1,,,,,,,,,,,,,,z,1,0.7026,,,,,,,,-0.028468605,-0.374565972,0,0,0,,0,128,128,160,1,VEETS,HB,old,z,./images/VEETSHB.png,,,,,,,,,,,,,,,,,,,,,,
,,,,,,,,,,,,,,,,,199111,18,2022-01-29_05h02.18.618,lexical_decision_task_DD_L2,2021.2.3,MacIntel,47.95243119,,,,,,,,,,,0.5316,1,,,,,,,,,,,,,,m,1,0.5316,,,,,,,,-0.028468605,-0.374565972,0,0,0,,0,129,129,45,1,KITTEN,HB,old,m,./images/KITTENHB.png,,,,,,,,,,,,,,,,,,,,,,
,,,,,,,,,,,,,,,,,199111,18,2022-01-29_05h02.18.618,lexical_decision_task_DD_L2,2021.2.3,MacIntel,47.95243119,,,,,,,,,,,0.6917,1,,,,,,,,,,,,,,m,1,0.6917,,,,,,,,-0.028468605,-0.374565972,0,0,0,,0,130,130,42,1,FOLDER,HB,old,m,./images/FOLDERHB.png,,,,,,,,,,,,,,,,,,,,,,
,,,,,,,,,,,,,,,,,199111,18,2022-01-29_05h02.18.618,lexical_decision_task_DD_L2,2021.2.3,MacIntel,47.95243119,,,,,,,,,,,0.5729,1,,,,,,,,,,,,,,m,1,0.5729,,,,,,,,-0.028468605,-0.374565972,0,0,0,,0,131,131,73,1,SNACK,LB,old,m,./images/SNACKLB.png,,,,,,,,,,,,,,,,,,,,,,
,,,,,,,,,,,,,,,,,199111,18,2022-01-29_05h02.18.618,lexical_decision_task_DD_L2,2021.2.3,MacIntel,47.95243119,,,,,,,,,,,0.6059,1,,,,,,,,,,,,,,z,1,0.6059,,,,,,,,-0.028468605,-0.374565972,0,0,0,,0,132,132,126,1,GUELS,C,old,z,./images/GUELS.png,,,,,,,,,,,,,,,,,,,,,,
,,,,,,,,,,,,,,,,,199111,18,2022-01-29_05h02.18.618,lexical_decision_task_DD_L2,2021.2.3,MacIntel,47.95243119,,,,,,,,,,,0.5719,1,,,,,,,,,,,,,,z,1,0.5719,,,,,,,,-0.028468605,-0.374565972,0,0,0,,0,133,133,129,1,PRANS,C,old,z,./images/PRANS.png,,,,,,,,,,,,,,,,,,,,,,
,,,,,,,,,,,,,,,,,199111,18,2022-01-29_05h02.18.618,lexical_decision_task_DD_L2,2021.2.3,MacIntel,47.95243119,,,,,,,,,,,0.5965,1,,,,,,,,,,,,,,m,1,0.5965,,,,,,,,-0.028468605,-0.374565972,0,0,0,,0,134,134,6,1,SQUARE,HB,old,m,./images/SQUAREHB.png,,,,,,,,,,,,,,,,,,,,,,
,,,,,,,,,,,,,,,,,199111,18,2022-01-29_05h02.18.618,lexical_decision_task_DD_L2,2021.2.3,MacIntel,47.95243119,,,,,,,,,,,0.8057,1,,,,,,,,,,,,,,z,1,0.8057,,,,,,,,-0.028468605,-0.374565972,0,0,0,,0,135,135,136,1,WERVE,HB,old,z,./images/WERVEHB.png,,,,,,,,,,,,,,,,,,,,,,
,,,,,,,,,,,,,,,,,199111,18,2022-01-29_05h02.18.618,lexical_decision_task_DD_L2,2021.2.3,MacIntel,47.95243119,,,,,,,,,,,0.4978,1,,,,,,,,,,,,,,m,1,0.4978,,,,,,,,-0.028468605,-0.374565972,0,0,0,,0,136,136,59,1,BURIAL,C,old,m,./images/BURIAL.png,,,,,,,,,,,,,,,,,,,,,,
,,,,,,,,,,,,,,,,,199111,18,2022-01-29_05h02.18.618,lexical_decision_task_DD_L2,2021.2.3,MacIntel,47.95243119,,,,,,,,,,,0.8604,1,,,,,,,,,,,,,,z,1,0.8604,,,,,,,,-0.028468605,-0.374565972,0,0,0,,0,137,137,106,1,CLUMS,HB,old,z,./images/CLUMSHB.png,,,,,,,,,,,,,,,,,,,,,,
,,,,,,,,,,,,,,,,,199111,18,2022-01-29_05h02.18.618,lexical_decision_task_DD_L2,2021.2.3,MacIntel,47.95243119,,,,,,,,,,,0.546,1,,,,,,,,,,,,,,z,1,0.546,,,,,,,,-0.028468605,-0.374565972,0,0,0,,0,138,138,158,1,EGECT,LB,old,z,./images/EGECTLB.png,,,,,,,,,,,,,,,,,,,,,,
,,,,,,,,,,,,,,,,,199111,18,2022-01-29_05h02.18.618,lexical_decision_task_DD_L2,2021.2.3,MacIntel,47.95243119,,,,,,,,,,,0.6252,1,,,,,,,,,,,,,,z,1,0.6252,,,,,,,,-0.028468605,-0.374565972,0,0,0,,0,139,139,116,1,BALGY,LB,old,z,./images/BALGYLB.png,,,,,,,,,,,,,,,,,,,,,,
,,,,,,,,,,,,,,,,,199111,18,2022-01-29_05h02.18.618,lexical_decision_task_DD_L2,2021.2.3,MacIntel,47.95243119,,,,,,,,,,,0.5217,1,,,,,,,,,,,,,,m,1,0.5217,,,,,,,,-0.028468605,-0.374565972,0,0,0,,0,140,140,2,1,BEARD,C,old,m,./images/BEARD.png,,,,,,,,,,,,,,,,,,,,,,
,,,,,,,,,,,,,,,,,199111,18,2022-01-29_05h02.18.618,lexical_decision_task_DD_L2,2021.2.3,MacIntel,47.95243119,,,,,,,,,,,0.5043,1,,,,,,,,,,,,,,m,1,0.5043,,,,,,,,-0.028468605,-0.374565972,0,0,0,,0,141,141,80,1,WEASEL,C,old,m,./images/WEASEL.png,,,,,,,,,,,,,,,,,,,,,,
,,,,,,,,,,,,,,,,,199111,18,2022-01-29_05h02.18.618,lexical_decision_task_DD_L2,2021.2.3,MacIntel,47.95243119,,,,,,,,,,,0.6402,1,,,,,,,,,,,,,,m,1,0.6402,,,,,,,,-0.028468605,-0.374565972,0,0,0,,0,142,142,26,1,SMOKER,C,old,m,./images/SMOKER.png,,,,,,,,,,,,,,,,,,,,,,
,,,,,,,,,,,,,,,,,199111,18,2022-01-29_05h02.18.618,lexical_decision_task_DD_L2,2021.2.3,MacIntel,47.95243119,,,,,,,,,,,0.9559,0,,,,,,,,,,,,,,z,0,0.9559,,,,,,,,-0.028468605,-0.374565972,0,0,0,,0,143,143,0,1,TOMATO,HB,old,m,./images/TOMATOHB.png,,,,,,,,,,,,,,,,,,,,,,
,,,,,,,,,,,,,,,,,199111,18,2022-01-29_05h02.18.618,lexical_decision_task_DD_L2,2021.2.3,MacIntel,47.95243119,,,,,,,,,,,0.7304,1,,,,,,,,,,,,,,z,1,0.7304,,,,,,,,-0.028468605,-0.374565972,0,0,0,,0,144,144,144,1,NAIRY,C,old,z,./images/NAIRY.png,,,,,,,,,,,,,,,,,,,,,,
,,,,,,,,,,,,,,,,,199111,18,2022-01-29_05h02.18.618,lexical_decision_task_DD_L2,2021.2.3,MacIntel,47.95243119,,,,,,,,,,,0.7152,1,,,,,,,,,,,,,,m,1,0.7152,,,,,,,,-0.028468605,-0.374565972,0,0,0,,0,145,145,54,1,TRIPOD,HB,old,m,./images/TRIPODHB.png,,,,,,,,,,,,,,,,,,,,,,
,,,,,,,,,,,,,,,,,199111,18,2022-01-29_05h02.18.618,lexical_decision_task_DD_L2,2021.2.3,MacIntel,47.95243119,,,,,,,,,,,0.662,1,,,,,,,,,,,,,,z,1,0.662,,,,,,,,-0.028468605,-0.374565972,0,0,0,,0,146,146,101,1,GLEET,LB,old,z,./images/GLEETLB.png,,,,,,,,,,,,,,,,,,,,,,
,,,,,,,,,,,,,,,,,199111,18,2022-01-29_05h02.18.618,lexical_decision_task_DD_L2,2021.2.3,MacIntel,47.95243119,,,,,,,,,,,0.7428,1,,,,,,,,,,,,,,z,1,0.7428,,,,,,,,-0.028468605,-0.374565972,0,0,0,,0,147,147,117,1,STEEG,C,old,z,./images/STEEG.png,,,,,,,,,,,,,,,,,,,,,,
,,,,,,,,,,,,,,,,,199111,18,2022-01-29_05h02.18.618,lexical_decision_task_DD_L2,2021.2.3,MacIntel,47.95243119,,,,,,,,,,,0.7591,1,,,,,,,,,,,,,,m,1,0.7591,,,,,,,,-0.028468605,-0.374565972,0,0,0,,0,148,148,10,1,BELLY,LB,old,m,./images/BELLYLB.png,,,,,,,,,,,,,,,,,,,,,,
,,,,,,,,,,,,,,,,,199111,18,2022-01-29_05h02.18.618,lexical_decision_task_DD_L2,2021.2.3,MacIntel,47.95243119,,,,,,,,,,,0.5285,1,,,,,,,,,,,,,,m,1,0.5285,,,,,,,,-0.028468605,-0.374565972,0,0,0,,0,149,149,49,1,DRUMS,LB,old,m,./images/DRUMSLB.png,,,,,,,,,,,,,,,,,,,,,,
,,,,,,,,,,,,,,,,,199111,18,2022-01-29_05h02.18.618,lexical_decision_task_DD_L2,2021.2.3,MacIntel,47.95243119,,,,,,,,,,,0.5687,1,,,,,,,,,,,,,,z,1,0.5687,,,,,,,,-0.028468605,-0.374565972,0,0,0,,0,150,150,87,1,TRING,C,old,z,./images/TRING.png,,,,,,,,,,,,,,,,,,,,,,
,,,,,,,,,,,,,,,,,199111,18,2022-01-29_05h02.18.618,lexical_decision_task_DD_L2,2021.2.3,MacIntel,47.95243119,,,,,,,,,,,0.8748,1,,,,,,,,,,,,,,z,1,0.8748,,,,,,,,-0.028468605,-0.374565972,0,0,0,,0,151,151,124,1,TUNCH,HB,old,z,./images/TUNCHHB.png,,,,,,,,,,,,,,,,,,,,,,
,,,,,,,,,,,,,,,,,199111,18,2022-01-29_05h02.18.618,lexical_decision_task_DD_L2,2021.2.3,MacIntel,47.95243119,,,,,,,,,,,0.5685,1,,,,,,,,,,,,,,z,1,0.5685,,,,,,,,-0.028468605,-0.374565972,0,0,0,,0,152,152,113,1,LINEW,LB,old,z,./images/LINEWLB.png,,,,,,,,,,,,,,,,,,,,,,
,,,,,,,,,,,,,,,,,199111,18,2022-01-29_05h02.18.618,lexical_decision_task_DD_L2,2021.2.3,MacIntel,47.95243119,,,,,,,,,,,0.5801,1,,,,,,,,,,,,,,m,1,0.5801,,,,,,,,-0.028468605,-0.374565972,0,0,0,,0,153,153,65,1,FARMER,C,old,m,./images/FARMER.png,,,,,,,,,,,,,,,,,,,,,,
,,,,,,,,,,,,,,,,,199111,18,2022-01-29_05h02.18.618,lexical_decision_task_DD_L2,2021.2.3,MacIntel,47.95243119,,,,,,,,,,,0.5392,1,,,,,,,,,,,,,,z,1,0.5392,,,,,,,,-0.028468605,-0.374565972,0,0,0,,0,154,154,90,1,NEAST,C,old,z,./images/NEAST.png,,,,,,,,,,,,,,,,,,,,,,
,,,,,,,,,,,,,,,,,199111,18,2022-01-29_05h02.18.618,lexical_decision_task_DD_L2,2021.2.3,MacIntel,47.95243119,,,,,,,,,,,0.6341,1,,,,,,,,,,,,,,m,1,0.6341,,,,,,,,-0.028468605,-0.374565972,0,0,0,,0,155,155,18,1,JAGUAR,HB,old,m,./images/JAGUARHB.png,,,,,,,,,,,,,,,,,,,,,,
,,,,,,,,,,,,,,,,,199111,18,2022-01-29_05h02.18.618,lexical_decision_task_DD_L2,2021.2.3,MacIntel,47.95243119,,,,,,,,,,,0.6717,1,,,,,,,,,,,,,,z,1,0.6717,,,,,,,,-0.028468605,-0.374565972,0,0,0,,0,156,156,122,1,BLOOT,LB,old,z,./images/BLOOTLB.png,,,,,,,,,,,,,,,,,,,,,,
,,,,,,,,,,,,,,,,,199111,18,2022-01-29_05h02.18.618,lexical_decision_task_DD_L2,2021.2.3,MacIntel,47.95243119,,,,,,,,,,,0.7138,1,,,,,,,,,,,,,,m,1,0.7138,,,,,,,,-0.028468605,-0.374565972,0,0,0,,0,157,157,81,1,POODLE,HB,old,m,./images/POODLEHB.png,,,,,,,,,,,,,,,,,,,,,,
,,,,,,,,,,,,,,,,,199111,18,2022-01-29_05h02.18.618,lexical_decision_task_DD_L2,2021.2.3,MacIntel,47.95243119,,,,,,,,,,,0.6606,1,,,,,,,,,,,,,,m,1,0.6606,,,,,,,,-0.028468605,-0.374565972,0,0,0,,0,158,158,4,1,MUSCLE,LB,old,m,./images/MUSCLELB.png,,,,,,,,,,,,,,,,,,,,,,
,,,,,,,,,,,,,,,,,199111,18,2022-01-29_05h02.18.618,lexical_decision_task_DD_L2,2021.2.3,MacIntel,47.95243119,,,,,,,,,,,0.641,1,,,,,,,,,,,,,,z,1,0.641,,,,,,,,-0.028468605,-0.374565972,0,0,0,,0,159,159,98,1,BAMPS,LB,old,z,./images/BAMPSLB.png,,,,,,,,,,,,,,,,,,,,,,
,,,,,,,,,,,,,,,,,199111,18,2022-01-29_05h02.18.618,lexical_decision_task_DD_L2,2021.2.3,MacIntel,47.95243119,,,,,,,,,,,0.6948,1,,,,,,,,,,,,,,m,1,0.6948,,,,,,,,-0.028468605,-0.374565972,0,0,0,,0,160,160,17,1,SKIING,C,old,m,./images/SKIING.png,,,,,,,,,,,,,,,,,,,,,,
,,,,,,,,,,,,,,,,,199111,18,2022-01-29_05h02.18.618,lexical_decision_task_DD_L2,2021.2.3,MacIntel,47.95243119,,,,,,,,,,,0.5684,1,,,,,,,,,,,,,,z,1,0.5684,,,,,,,,-0.028468605,-0.374565972,0,0,0,,0,161,161,149,1,VEASE,LB,old,z,./images/VEASELB.png,,,,,,,,,,,,,,,,,,,,,,
,,,,,,,,,,,,,,,,,199111,18,2022-01-29_05h02.18.618,lexical_decision_task_DD_L2,2021.2.3,MacIntel,47.95243119,,,,,,,,,,,0.7825,1,,,,,,,,,,,,,,z,1,0.7825,,,,,,,,-0.028468605,-0.374565972,0,0,0,,0,162,162,97,1,CHIDS,HB,old,z,./images/CHIDSHB.png,,,,,,,,,,,,,,,,,,,,,,
,,,,,,,,,,,,,,,,,199111,18,2022-01-29_05h02.18.618,lexical_decision_task_DD_L2,2021.2.3,MacIntel,47.95243119,,,,,,,,,,,0.5369,1,,,,,,,,,,,,,,m,1,0.5369,,,,,,,,-0.028468605,-0.374565972,0,0,0,,0,163,163,67,1,SAILOR,LB,old,m,./images/SAILORLB.png,,,,,,,,,,,,,,,,,,,,,,
,,,,,,,,,,,,,,,,,199111,18,2022-01-29_05h02.18.618,lexical_decision_task_DD_L2,2021.2.3,MacIntel,47.95243119,,,,,,,,,,,0.5737,1,,,,,,,,,,,,,,z,1,0.5737,,,,,,,,-0.028468605,-0.374565972,0,0,0,,0,164,164,120,1,RINED,C,old,z,./images/RINED.png,,,,,,,,,,,,,,,,,,,,,,
,,,,,,,,,,,,,,,,,199111,18,2022-01-29_05h02.18.618,lexical_decision_task_DD_L2,2021.2.3,MacIntel,47.95243119,,,,,,,,,,,0.5428,1,,,,,,,,,,,,,,z,1,0.5428,,,,,,,,-0.028468605,-0.374565972,0,0,0,,0,165,165,156,1,HIXES,C,old,z,./images/HIXES.png,,,,,,,,,,,,,,,,,,,,,,
,,,,,,,,,,,,,,,,,199111,18,2022-01-29_05h02.18.618,lexical_decision_task_DD_L2,2021.2.3,MacIntel,47.95243119,,,,,,,,,,,1.0961,1,,,,,,,,,,,,,,z,1,1.0961,,,,,,,,-0.028468605,-0.374565972,0,0,0,,0,166,166,115,1,MAWNS,HB,old,z,./images/MAWNSHB.png,,,,,,,,,,,,,,,,,,,,,,
,,,,,,,,,,,,,,,,,199111,18,2022-01-29_05h02.18.618,lexical_decision_task_DD_L2,2021.2.3,MacIntel,47.95243119,,,,,,,,,,,1.2562,1,,,,,,,,,,,,,,m,1,1.2562,,,,,,,,-0.028468605,-0.374565972,0,0,0,,0,167,167,79,1,CRUST,LB,old,m,./images/CRUSTLB.png,,,,,,,,,,,,,,,,,,,,,,
space,12.2076,-0.028468605,-0.374565972,0,0,0,,,,,,1,test,"In the next phase you will be presented with the words from the the first phase. Your job is to decide whether you remember seeing the word or not. If you remember seeing the word press ""old"" or type ""m"". If you do not remember seeing the word press ""new"" or type ""z"". Please press the space bar or click on continue to begin. ",,,199111,18,2022-01-29_05h02.18.618,lexical_decision_task_DD_L2,2021.2.3,MacIntel,47.95243119,,,,,,,,,,,,,,,,,,,,,,,,,,,,,,,,,,,,,,,,,,,,,,,,,,,,,0,0,0,0,1,,,,,,,,,,,,,,,,
space,1.3581,-0.028468605,-0.374565972,0,0,0,,,,,,1,test,"In the next phase you will be presented with the words from the the first phase. Your job is to decide whether you remember seeing the word or not. If you remember seeing the word press ""old"" or type ""m"". If you do not remember seeing the word press ""new"" or type ""z"". Please press the space bar or click on continue to begin. ",,,199111,18,2022-01-29_05h02.18.618,lexical_decision_task_DD_L2,2021.2.3,MacIntel,47.95243119,,,,,,,,,,,,,,,,,,,,,,,,,,,,,,,,,,,,,,,,,,,,,,,,,,,,,1,0,1,0,1,,,,,,,,,,,,,,,,
space,1.649,-0.097873264,-0.433622685,0,0,0,,,,,,1,test,"In the next phase you will be presented with the words from the the first phase. Your job is to decide whether you remember seeing the word or not. If you remember seeing the word press ""old"" or type ""m"". If you do not remember seeing the word press ""new"" or type ""z"". Please press the space bar or click on continue to begin. ",,,199111,18,2022-01-29_05h02.18.618,lexical_decision_task_DD_L2,2021.2.3,MacIntel,47.95243119,,,,,,,,,,,,,,,,,,,,,,,,,,,,,,,,,,,,,,,,,,,,,,,,,,,,,2,0,2,0,1,,,,,,,,,,,,,,,,
,,-0.097873264,-0.433622685,1,0,0,,,,,,1,test,"In the next phase you will be presented with the words from the the first phase. Your job is to decide whether you remember seeing the word or not. If you remember seeing the word press ""old"" or type ""m"". If you do not remember seeing the word press ""new"" or type ""z"". Please press the space bar or click on continue to begin. ",,,199111,18,2022-01-29_05h02.18.618,lexical_decision_task_DD_L2,2021.2.3,MacIntel,47.95243119,,,,,,,,,,,,,,,,,,,,,,,,,,,,,,,,,,,,,,,,,,,,,,,,,,,,,3,0,3,0,1,instr_done_button,,,,,,,,,,,,,,,
,,-0.047732205,-0.375499132,1,0,0,,,,,,1,test,"In the next phase you will be presented with the words from the the first phase. Your job is to decide whether you remember seeing the word or not. If you remember seeing the word press ""old"" or type ""m"". If you do not remember seeing the word press ""new"" or type ""z"". Please press the space bar or click on continue to begin. ",,,199111,18,2022-01-29_05h02.18.618,lexical_decision_task_DD_L2,2021.2.3,MacIntel,47.95243119,,,,,,,,,,,,,,,,,,,,,,,,,,,,,,,,,,,,,,,,,,,,,,,,,,,,,4,0,4,0,1,instr_done_button,,,,,,,,,,,,,,,
,,,,,,,,,,,,,,,,,199111,18,2022-01-29_05h02.18.618,lexical_decision_task_DD_L2,2021.2.3,MacIntel,47.95243119,,,,,,,,,,,3.4166,1,,,,,,,,,,,,,,,,,,,,,,,,-0.046806279,-0.375499132,0,0,0,,,,,,,SHORE,HB,m,y,./images/SHOREHB.png,,,,,,,,m,1,3.4166,,,,,,,,0,0,0,12,1
,,,,,,,,,,,,,,,,,199111,18,2022-01-29_05h02.18.618,lexical_decision_task_DD_L2,2021.2.3,MacIntel,47.95243119,,,,,,,,,,,0.7518,1,,,,,,,,,,,,,,,,,,,,,,,,-0.046806279,-0.375499132,0,0,0,,,,,,,PLANK,LB,m,y,./images/PLANKLB.png,,,,,,,,m,1,0.7518,,,,,,,,0,1,1,1,1
,,,,,,,,,,,,,,,,,199111,18,2022-01-29_05h02.18.618,lexical_decision_task_DD_L2,2021.2.3,MacIntel,47.95243119,,,,,,,,,,,1.0229,1,,,,,,,,,,,,,,,,,,,,,,,,-0.046806279,-0.375499132,0,0,0,,,,,,,LADDER,C,m,y,./images/LADDER.png,,,,,,,,m,1,1.0229,,,,,,,,0,2,2,38,1
,,,,,,,,,,,,,,,,,199111,18,2022-01-29_05h02.18.618,lexical_decision_task_DD_L2,2021.2.3,MacIntel,47.95243119,,,,,,,,,,,1.0276,1,,,,,,,,,,,,,,,,,,,,,,,,-0.046806279,-0.375499132,0,0,0,,,,,,,BROOM,HB,z,y,./images/BROOMHB.png,,,,,,,,z,1,1.0276,,,,,,,,0,3,3,162,1
,,,,,,,,,,,,,,,,,199111,18,2022-01-29_05h02.18.618,lexical_decision_task_DD_L2,2021.2.3,MacIntel,47.95243119,,,,,,,,,,,1.2071,1,,,,,,,,,,,,,,,,,,,,,,,,-0.046806279,-0.375499132,0,0,0,,,,,,,BAMBOO,C,z,y,./images/BAMBOO.png,,,,,,,,z,1,1.2071,,,,,,,,0,4,4,89,1
,,,,,,,,,,,,,,,,,199111,18,2022-01-29_05h02.18.618,lexical_decision_task_DD_L2,2021.2.3,MacIntel,47.95243119,,,,,,,,,,,0.6903,1,,,,,,,,,,,,,,,,,,,,,,,,-0.046806279,-0.375499132,0,0,0,,,,,,,SMOKER,C,m,y,./images/SMOKER.png,,,,,,,,m,1,0.6903,,,,,,,,0,5,5,26,1
,,,,,,,,,,,,,,,,,199111,18,2022-01-29_05h02.18.618,lexical_decision_task_DD_L2,2021.2.3,MacIntel,47.95243119,,,,,,,,,,,1.6442,1,,,,,,,,,,,,,,,,,,,,,,,,-0.046806279,-0.375499132,0,0,0,,,,,,,MONKEY,HB,z,y,./images/MONKEYHB.png,,,,,,,,z,1,1.6442,,,,,,,,0,6,6,129,1
,,,,,,,,,,,,,,,,,199111,18,2022-01-29_05h02.18.618,lexical_decision_task_DD_L2,2021.2.3,MacIntel,47.95243119,,,,,,,,,,,2.4579,1,,,,,,,,,,,,,,,,,,,,,,,,-0.046806279,-0.375499132,0,0,0,,,,,,,BOILER,HB,z,y,./images/BOILERHB.png,,,,,,,,z,1,2.4579,,,,,,,,0,7,7,120,1
,,,,,,,,,,,,,,,,,199111,18,2022-01-29_05h02.18.618,lexical_decision_task_DD_L2,2021.2.3,MacIntel,47.95243119,,,,,,,,,,,0.9156,1,,,,,,,,,,,,,,,,,,,,,,,,-0.046806279,-0.375499132,0,0,0,,,,,,,MAGGOT,HB,m,y,./images/MAGGOTHB.png,,,,,,,,m,1,0.9156,,,,,,,,0,8,8,33,1
,,,,,,,,,,,,,,,,,199111,18,2022-01-29_05h02.18.618,lexical_decision_task_DD_L2,2021.2.3,MacIntel,47.95243119,,,,,,,,,,,0.5953,1,,,,,,,,,,,,,,,,,,,,,,,,-0.046806279,-0.375499132,0,0,0,,,,,,,TULIP,C,m,y,./images/TULIP.png,,,,,,,,m,1,0.5953,,,,,,,,0,9,9,8,1
,,,,,,,,,,,,,,,,,199111,18,2022-01-29_05h02.18.618,lexical_decision_task_DD_L2,2021.2.3,MacIntel,47.95243119,,,,,,,,,,,1.6924,0,,,,,,,,,,,,,,,,,,,,,,,,-0.046806279,-0.375499132,0,0,0,,,,,,,CEMENT,C,m,y,./images/CEMENT.png,,,,,,,,z,0,1.6924,,,,,,,,0,10,10,74,1
,,,,,,,,,,,,,,,,,199111,18,2022-01-29_05h02.18.618,lexical_decision_task_DD_L2,2021.2.3,MacIntel,47.95243119,,,,,,,,,,,0.6939,1,,,,,,,,,,,,,,,,,,,,,,,,-0.046806279,-0.375499132,0,0,0,,,,,,,BONNET,C,m,y,./images/BONNET.png,,,,,,,,m,1,0.6939,,,,,,,,0,11,11,11,1
,,,,,,,,,,,,,,,,,199111,18,2022-01-29_05h02.18.618,lexical_decision_task_DD_L2,2021.2.3,MacIntel,47.95243119,,,,,,,,,,,2.0401,1,,,,,,,,,,,,,,,,,,,,,,,,-0.046806279,-0.375499132,0,0,0,,,,,,,MALLET,C,m,y,./images/MALLET.png,,,,,,,,m,1,2.0401,,,,,,,,0,12,12,50,1
,,,,,,,,,,,,,,,,,199111,18,2022-01-29_05h02.18.618,lexical_decision_task_DD_L2,2021.2.3,MacIntel,47.95243119,,,,,,,,,,,1.2476,1,,,,,,,,,,,,,,,,,,,,,,,,-0.046806279,-0.375499132,0,0,0,,,,,,,WAGON,LB,z,y,./images/WAGONLB.png,,,,,,,,z,1,1.2476,,,,,,,,0,13,13,91,1
,,,,,,,,,,,,,,,,,199111,18,2022-01-29_05h02.18.618,lexical_decision_task_DD_L2,2021.2.3,MacIntel,47.95243119,,,,,,,,,,,0.6952,1,,,,,,,,,,,,,,,,,,,,,,,,-0.046806279,-0.375499132,0,0,0,,,,,,,SWEAT,HB,m,y,./images/SWEATHB.png,,,,,,,,m,1,0.6952,,,,,,,,0,14,14,66,1
,,,,,,,,,,,,,,,,,199111,18,2022-01-29_05h02.18.618,lexical_decision_task_DD_L2,2021.2.3,MacIntel,47.95243119,,,,,,,,,,,2.1902,0,,,,,,,,,,,,,,,,,,,,,,,,-0.046806279,-0.375499132,0,0,0,,,,,,,STRING,C,m,y,./images/STRING.png,,,,,,,,z,0,2.1902,,,,,,,,0,15,15,41,1
,,,,,,,,,,,,,,,,,199111,18,2022-01-29_05h02.18.618,lexical_decision_task_DD_L2,2021.2.3,MacIntel,47.95243119,,,,,,,,,,,0.8936,1,,,,,,,,,,,,,,,,,,,,,,,,-0.046806279,-0.375499132,0,0,0,,,,,,,ALLEY,LB,z,y,./images/ALLEYLB.png,,,,,,,,z,1,0.8936,,,,,,,,0,16,16,139,1
,,,,,,,,,,,,,,,,,199111,18,2022-01-29_05h02.18.618,lexical_decision_task_DD_L2,2021.2.3,MacIntel,47.95243119,,,,,,,,,,,0.708,1,,,,,,,,,,,,,,,,,,,,,,,,-0.046806279,-0.375499132,0,0,0,,,,,,,DRUMS,LB,m,y,./images/DRUMSLB.png,,,,,,,,m,1,0.708,,,,,,,,0,17,17,49,1
,,,,,,,,,,,,,,,,,199111,18,2022-01-29_05h02.18.618,lexical_decision_task_DD_L2,2021.2.3,MacIntel,47.95243119,,,,,,,,,,,0.7341,1,,,,,,,,,,,,,,,,,,,,,,,,-0.046806279,-0.375499132,0,0,0,,,,,,,CLOWN,LB,z,y,./images/CLOWNLB.png,,,,,,,,z,1,0.7341,,,,,,,,0,18,18,106,1
,,,,,,,,,,,,,,,,,199111,18,2022-01-29_05h02.18.618,lexical_decision_task_DD_L2,2021.2.3,MacIntel,47.95243119,,,,,,,,,,,0.9143,1,,,,,,,,,,,,,,,,,,,,,,,,-0.046806279,-0.375499132,0,0,0,,,,,,,ENGINE,C,z,y,./images/ENGINE.png,,,,,,,,z,1,0.9143,,,,,,,,0,19,19,122,1
,,,,,,,,,,,,,,,,,199111,18,2022-01-29_05h02.18.618,lexical_decision_task_DD_L2,2021.2.3,MacIntel,47.95243119,,,,,,,,,,,1.5088,1,,,,,,,,,,,,,,,,,,,,,,,,-0.046806279,-0.375499132,0,0,0,,,,,,,SLOPE,HB,z,y,./images/SLOPEHB.png,,,,,,,,z,1,1.5088,,,,,,,,0,20,20,114,1
,,,,,,,,,,,,,,,,,199111,18,2022-01-29_05h02.18.618,lexical_decision_task_DD_L2,2021.2.3,MacIntel,47.95243119,,,,,,,,,,,1.519,1,,,,,,,,,,,,,,,,,,,,,,,,-0.046806279,-0.375499132,0,0,0,,,,,,,SAUCE,HB,z,y,./images/SAUCEHB.png,,,,,,,,z,1,1.519,,,,,,,,0,21,21,135,1
,,,,,,,,,,,,,,,,,199111,18,2022-01-29_05h02.18.618,lexical_decision_task_DD_L2,2021.2.3,MacIntel,47.95243119,,,,,,,,,,,1.4678,0,,,,,,,,,,,,,,,,,,,,,,,,-0.046806279,-0.375499132,0,0,0,,,,,,,DOUGH,LB,m,y,./images/DOUGHLB.png,,,,,,,,z,0,1.4678,,,,,,,,0,22,22,19,1
,,,,,,,,,,,,,,,,,199111,18,2022-01-29_05h02.18.618,lexical_decision_task_DD_L2,2021.2.3,MacIntel,47.95243119,,,,,,,,,,,1.6035,1,,,,,,,,,,,,,,,,,,,,,,,,-0.046806279,-0.375499132,0,0,0,,,,,,,STOOL,LB,z,y,./images/STOOLLB.png,,,,,,,,z,1,1.6035,,,,,,,,0,23,23,127,1
,,,,,,,,,,,,,,,,,199111,18,2022-01-29_05h02.18.618,lexical_decision_task_DD_L2,2021.2.3,MacIntel,47.95243119,,,,,,,,,,,0.6895,1,,,,,,,,,,,,,,,,,,,,,,,,-0.046806279,-0.375499132,0,0,0,,,,,,,SPINE,C,z,y,./images/SPINE.png,,,,,,,,z,1,0.6895,,,,,,,,0,24,24,149,1
,,,,,,,,,,,,,,,,,199111,18,2022-01-29_05h02.18.618,lexical_decision_task_DD_L2,2021.2.3,MacIntel,47.95243119,,,,,,,,,,,2.3242,0,,,,,,,,,,,,,,,,,,,,,,,,-0.046806279,-0.375499132,0,0,0,,,,,,,DONKEY,LB,z,y,./images/DONKEYLB.png,,,,,,,,m,0,2.3242,,,,,,,,0,25,25,103,1
,,,,,,,,,,,,,,,,,199111,18,2022-01-29_05h02.18.618,lexical_decision_task_DD_L2,2021.2.3,MacIntel,47.95243119,,,,,,,,,,,0.8684,0,,,,,,,,,,,,,,,,,,,,,,,,-0.046806279,-0.375499132,0,0,0,,,,,,,BANNER,LB,m,y,./images/BANNERLB.png,,,,,,,,z,0,0.8684,,,,,,,,0,26,26,52,1
,,,,,,,,,,,,,,,,,199111,18,2022-01-29_05h02.18.618,lexical_decision_task_DD_L2,2021.2.3,MacIntel,47.95243119,,,,,,,,,,,1.174,1,,,,,,,,,,,,,,,,,,,,,,,,-0.046806279,-0.375499132,0,0,0,,,,,,,DESERT,LB,z,y,./images/DESERTLB.png,,,,,,,,z,1,1.174,,,,,,,,0,27,27,136,1
,,,,,,,,,,,,,,,,,199111,18,2022-01-29_05h02.18.618,lexical_decision_task_DD_L2,2021.2.3,MacIntel,47.95243119,,,,,,,,,,,0.9785,1,,,,,,,,,,,,,,,,,,,,,,,,-0.046806279,-0.375499132,0,0,0,,,,,,,INFANT,LB,m,y,./images/INFANTLB.png,,,,,,,,m,1,0.9785,,,,,,,,0,28,28,76,1
,,,,,,,,,,,,,,,,,199111,18,2022-01-29_05h02.18.618,lexical_decision_task_DD_L2,2021.2.3,MacIntel,47.95243119,,,,,,,,,,,0.7943,1,,,,,,,,,,,,,,,,,,,,,,,,-0.046806279,-0.375499132,0,0,0,,,,,,,GARDEN,LB,z,y,./images/GARDENLB.png,,,,,,,,z,1,0.7943,,,,,,,,0,29,29,94,1
,,,,,,,,,,,,,,,,,199111,18,2022-01-29_05h02.18.618,lexical_decision_task_DD_L2,2021.2.3,MacIntel,47.95243119,,,,,,,,,,,1.0327,1,,,,,,,,,,,,,,,,,,,,,,,,-0.046806279,-0.375499132,0,0,0,,,,,,,SCREW,HB,m,y,./images/SCREWHB.png,,,,,,,,m,1,1.0327,,,,,,,,0,30,30,24,1
,,,,,,,,,,,,,,,,,199111,18,2022-01-29_05h02.18.618,lexical_decision_task_DD_L2,2021.2.3,MacIntel,47.95243119,,,,,,,,,,,0.7363,1,,,,,,,,,,,,,,,,,,,,,,,,-0.046806279,-0.375499132,0,0,0,,,,,,,CHAIN,HB,z,y,./images/CHAINHB.png,,,,,,,,z,1,0.7363,,,,,,,,0,31,31,126,1
,,,,,,,,,,,,,,,,,199111,18,2022-01-29_05h02.18.618,lexical_decision_task_DD_L2,2021.2.3,MacIntel,47.95243119,,,,,,,,,,,0.6446,1,,,,,,,,,,,,,,,,,,,,,,,,-0.046806279,-0.375499132,0,0,0,,,,,,,ONION,HB,m,y,./images/ONIONHB.png,,,,,,,,m,1,0.6446,,,,,,,,0,32,32,51,1
,,,,,,,,,,,,,,,,,199111,18,2022-01-29_05h02.18.618,lexical_decision_task_DD_L2,2021.2.3,MacIntel,47.95243119,,,,,,,,,,,1.4171,0,,,,,,,,,,,,,,,,,,,,,,,,-0.046806279,-0.375499132,0,0,0,,,,,,,JUNGLE,C,m,y,./images/JUNGLE.png,,,,,,,,z,0,1.4171,,,,,,,,0,33,33,83,1
,,,,,,,,,,,,,,,,,199111,18,2022-01-29_05h02.18.618,lexical_decision_task_DD_L2,2021.2.3,MacIntel,47.95243119,,,,,,,,,,,0.6156,1,,,,,,,,,,,,,,,,,,,,,,,,-0.046806279,-0.375499132,0,0,0,,,,,,,MOOSE,HB,m,y,./images/MOOSEHB.png,,,,,,,,m,1,0.6156,,,,,,,,0,34,34,57,1
,,,,,,,,,,,,,,,,,199111,18,2022-01-29_05h02.18.618,lexical_decision_task_DD_L2,2021.2.3,MacIntel,47.95243119,,,,,,,,,,,0.9152,1,,,,,,,,,,,,,,,,,,,,,,,,-0.046806279,-0.375499132,0,0,0,,,,,,,DRILL,HB,z,y,./images/DRILLHB.png,,,,,,,,z,1,0.9152,,,,,,,,0,35,35,165,1
,,,,,,,,,,,,,,,,,199111,18,2022-01-29_05h02.18.618,lexical_decision_task_DD_L2,2021.2.3,MacIntel,47.95243119,,,,,,,,,,,0.8288,1,,,,,,,,,,,,,,,,,,,,,,,,-0.046806279,-0.375499132,0,0,0,,,,,,,DIVER,HB,z,y,./images/DIVERHB.png,,,,,,,,z,1,0.8288,,,,,,,,0,36,36,93,1
,,,,,,,,,,,,,,,,,199111,18,2022-01-29_05h02.18.618,lexical_decision_task_DD_L2,2021.2.3,MacIntel,47.95243119,,,,,,,,,,,0.6039,1,,,,,,,,,,,,,,,,,,,,,,,,-0.046806279,-0.375499132,0,0,0,,,,,,,CRUMB,C,m,y,./images/CRUMB.png,,,,,,,,m,1,0.6039,,,,,,,,0,37,37,29,1
,,,,,,,,,,,,,,,,,199111,18,2022-01-29_05h02.18.618,lexical_decision_task_DD_L2,2021.2.3,MacIntel,47.95243119,,,,,,,,,,,0.8468,1,,,,,,,,,,,,,,,,,,,,,,,,-0.046806279,-0.375499132,0,0,0,,,,,,,JELLY,LB,m,y,./images/JELLYLB.png,,,,,,,,m,1,0.8468,,,,,,,,0,38,38,64,1
,,,,,,,,,,,,,,,,,199111,18,2022-01-29_05h02.18.618,lexical_decision_task_DD_L2,2021.2.3,MacIntel,47.95243119,,,,,,,,,,,0.9275,1,,,,,,,,,,,,,,,,,,,,,,,,-0.046806279,-0.375499132,0,0,0,,,,,,,JUMPER,C,z,y,./images/JUMPER.png,,,,,,,,z,1,0.9275,,,,,,,,0,39,39,158,1
,,,,,,,,,,,,,,,,,199111,18,2022-01-29_05h02.18.618,lexical_decision_task_DD_L2,2021.2.3,MacIntel,47.95243119,,,,,,,,,,,0.728,1,,,,,,,,,,,,,,,,,,,,,,,,-0.046806279,-0.375499132,0,0,0,,,,,,,CANOE,LB,z,y,./images/CANOELB.png,,,,,,,,z,1,0.728,,,,,,,,0,40,40,142,1
,,,,,,,,,,,,,,,,,199111,18,2022-01-29_05h02.18.618,lexical_decision_task_DD_L2,2021.2.3,MacIntel,47.95243119,,,,,,,,,,,0.6316,1,,,,,,,,,,,,,,,,,,,,,,,,-0.046806279,-0.375499132,0,0,0,space,,,,,,JAGUAR,HB,m,y,./images/JAGUARHB.png,1.2403,,,,,,,m,1,0.6316,,,,,,,,0,41,41,18,1
,,,,,,,,,,,,,,,,,199111,18,2022-01-29_05h02.18.618,lexical_decision_task_DD_L2,2021.2.3,MacIntel,47.95243119,,,,,,,,,,,0.7845,1,,,,,,,,,,,,,,,,,,,,,,,,-0.046806279,-0.375499132,0,0,0,,,,,,,TOWEL,LB,z,y,./images/TOWELLB.png,,,,,,,,z,1,0.7845,,,,,,,,0,42,42,85,1
,,,,,,,,,,,,,,,,,199111,18,2022-01-29_05h02.18.618,lexical_decision_task_DD_L2,2021.2.3,MacIntel,47.95243119,,,,,,,,,,,0.867,1,,,,,,,,,,,,,,,,,,,,,,,,-0.046806279,-0.375499132,0,0,0,,,,,,,TORCH,C,m,y,./images/TORCH.png,,,,,,,,m,1,0.867,,,,,,,,0,43,43,68,1
,,,,,,,,,,,,,,,,,199111,18,2022-01-29_05h02.18.618,lexical_decision_task_DD_L2,2021.2.3,MacIntel,47.95243119,,,,,,,,,,,0.689,1,,,,,,,,,,,,,,,,,,,,,,,,-0.046806279,-0.375499132,0,0,0,,,,,,,CLOUD,C,z,y,./images/CLOUD.png,,,,,,,,z,1,0.689,,,,,,,,0,44,44,110,1
,,,,,,,,,,,,,,,,,199111,18,2022-01-29_05h02.18.618,lexical_decision_task_DD_L2,2021.2.3,MacIntel,47.95243119,,,,,,,,,,,0.6721,1,,,,,,,,,,,,,,,,,,,,,,,,-0.046806279,-0.375499132,0,0,0,,,,,,,PARCEL,HB,z,y,./images/PARCELHB.png,,,,,,,,z,1,0.6721,,,,,,,,0,45,45,102,1
,,,,,,,,,,,,,,,,,199111,18,2022-01-29_05h02.18.618,lexical_decision_task_DD_L2,2021.2.3,MacIntel,47.95243119,,,,,,,,,,,0.5592,1,,,,,,,,,,,,,,,,,,,,,,,,-0.046806279,-0.375499132,0,0,0,,,,,,,CRUST,LB,m,y,./images/CRUSTLB.png,,,,,,,,m,1,0.5592,,,,,,,,0,46,46,79,1
,,,,,,,,,,,,,,,,,199111,18,2022-01-29_05h02.18.618,lexical_decision_task_DD_L2,2021.2.3,MacIntel,47.95243119,,,,,,,,,,,0.7728,1,,,,,,,,,,,,,,,,,,,,,,,,-0.046806279,-0.375499132,0,0,0,,,,,,,POSTER,C,z,y,./images/POSTER.png,,,,,,,,z,1,0.7728,,,,,,,,0,47,47,137,1
,,,,,,,,,,,,,,,,,199111,18,2022-01-29_05h02.18.618,lexical_decision_task_DD_L2,2021.2.3,MacIntel,47.95243119,,,,,,,,,,,0.6201,1,,,,,,,,,,,,,,,,,,,,,,,,-0.046806279,-0.375499132,0,0,0,,,,,,,SAILOR,LB,m,y,./images/SAILORLB.png,,,,,,,,m,1,0.6201,,,,,,,,0,48,48,67,1
,,,,,,,,,,,,,,,,,199111,18,2022-01-29_05h02.18.618,lexical_decision_task_DD_L2,2021.2.3,MacIntel,47.95243119,,,,,,,,,,,1.2222,0,,,,,,,,,,,,,,,,,,,,,,,,-0.046806279,-0.375499132,0,0,0,,,,,,,SWING,LB,m,y,./images/SWINGLB.png,,,,,,,,z,0,1.2222,,,,,,,,0,49,49,40,1
,,,,,,,,,,,,,,,,,199111,18,2022-01-29_05h02.18.618,lexical_decision_task_DD_L2,2021.2.3,MacIntel,47.95243119,,,,,,,,,,,0.63,1,,,,,,,,,,,,,,,,,,,,,,,,-0.046806279,-0.375499132,0,0,0,,,,,,,ATTIC,HB,m,y,./images/ATTICHB.png,,,,,,,,m,1,0.63,,,,,,,,0,50,50,27,1
,,,,,,,,,,,,,,,,,199111,18,2022-01-29_05h02.18.618,lexical_decision_task_DD_L2,2021.2.3,MacIntel,47.95243119,,,,,,,,,,,0.6039,1,,,,,,,,,,,,,,,,,,,,,,,,-0.046806279,-0.375499132,0,0,0,,,,,,,CANYON,LB,m,y,./images/CANYONLB.png,,,,,,,,m,1,0.6039,,,,,,,,0,51,51,34,1
,,,,,,,,,,,,,,,,,199111,18,2022-01-29_05h02.18.618,lexical_decision_task_DD_L2,2021.2.3,MacIntel,47.95243119,,,,,,,,,,,0.7449,1,,,,,,,,,,,,,,,,,,,,,,,,-0.046806279,-0.375499132,0,0,0,,,,,,,BANANA,LB,z,y,./images/BANANALB.png,,,,,,,,z,1,0.7449,,,,,,,,0,52,52,154,1
,,,,,,,,,,,,,,,,,199111,18,2022-01-29_05h02.18.618,lexical_decision_task_DD_L2,2021.2.3,MacIntel,47.95243119,,,,,,,,,,,0.6739,1,,,,,,,,,,,,,,,,,,,,,,,,-0.046806279,-0.375499132,0,0,0,,,,,,,LIZARD,C,m,y,./images/LIZARD.png,,,,,,,,m,1,0.6739,,,,,,,,0,53,53,44,1
,,,,,,,,,,,,,,,,,199111,18,2022-01-29_05h02.18.618,lexical_decision_task_DD_L2,2021.2.3,MacIntel,47.95243119,,,,,,,,,,,0.5735,1,,,,,,,,,,,,,,,,,,,,,,,,-0.046806279,-0.375499132,0,0,0,,,,,,,FERRY,HB,z,y,./images/FERRYHB.png,,,,,,,,z,1,0.5735,,,,,,,,0,54,54,141,1
,,,,,,,,,,,,,,,,,199111,18,2022-01-29_05h02.18.618,lexical_decision_task_DD_L2,2021.2.3,MacIntel,47.95243119,,,,,,,,,,,0.6237,1,,,,,,,,,,,,,,,,,,,,,,,,-0.046806279,-0.375499132,0,0,0,,,,,,,GRAPE,LB,z,y,./images/GRAPELB.png,,,,,,,,z,1,0.6237,,,,,,,,0,55,55,100,1
,,,,,,,,,,,,,,,,,199111,18,2022-01-29_05h02.18.618,lexical_decision_task_DD_L2,2021.2.3,MacIntel,47.95243119,,,,,,,,,,,2.1684,0,,,,,,,,,,,,,,,,,,,,,,,,-0.046806279,-0.375499132,0,0,0,,,,,,,WALNUT,HB,z,y,./images/WALNUTHB.png,,,,,,,,m,0,2.1684,,,,,,,,0,56,56,84,1
,,,,,,,,,,,,,,,,,199111,18,2022-01-29_05h02.18.618,lexical_decision_task_DD_L2,2021.2.3,MacIntel,47.95243119,,,,,,,,,,,0.6996,1,,,,,,,,,,,,,,,,,,,,,,,,-0.046806279,-0.375499132,0,0,0,,,,,,,FINGER,HB,m,y,./images/FINGERHB.png,,,,,,,,m,1,0.6996,,,,,,,,0,57,57,3,1
,,,,,,,,,,,,,,,,,199111,18,2022-01-29_05h02.18.618,lexical_decision_task_DD_L2,2021.2.3,MacIntel,47.95243119,,,,,,,,,,,0.8652,1,,,,,,,,,,,,,,,,,,,,,,,,-0.046806279,-0.375499132,0,0,0,,,,,,,STREAM,C,z,y,./images/STREAM.png,,,,,,,,z,1,0.8652,,,,,,,,0,58,58,125,1
,,,,,,,,,,,,,,,,,199111,18,2022-01-29_05h02.18.618,lexical_decision_task_DD_L2,2021.2.3,MacIntel,47.95243119,,,,,,,,,,,0.7529,0,,,,,,,,,,,,,,,,,,,,,,,,-0.046806279,-0.375499132,0,0,0,,,,,,,POODLE,HB,m,y,./images/POODLEHB.png,,,,,,,,z,0,0.7529,,,,,,,,0,59,59,81,1
,,,,,,,,,,,,,,,,,199111,18,2022-01-29_05h02.18.618,lexical_decision_task_DD_L2,2021.2.3,MacIntel,47.95243119,,,,,,,,,,,0.6614,1,,,,,,,,,,,,,,,,,,,,,,,,-0.046806279,-0.375499132,0,0,0,,,,,,,POKER,LB,z,y,./images/POKERLB.png,,,,,,,,z,1,0.6614,,,,,,,,0,60,60,151,1
,,,,,,,,,,,,,,,,,199111,18,2022-01-29_05h02.18.618,lexical_decision_task_DD_L2,2021.2.3,MacIntel,47.95243119,,,,,,,,,,,0.6235,1,,,,,,,,,,,,,,,,,,,,,,,,-0.046806279,-0.375499132,0,0,0,,,,,,,HOCKEY,C,z,y,./images/HOCKEY.png,,,,,,,,z,1,0.6235,,,,,,,,0,61,61,116,1
,,,,,,,,,,,,,,,,,199111,18,2022-01-29_05h02.18.618,lexical_decision_task_DD_L2,2021.2.3,MacIntel,47.95243119,,,,,,,,,,,1.4396,0,,,,,,,,,,,,,,,,,,,,,,,,-0.046806279,-0.375499132,0,0,0,,,,,,,SHELF,HB,m,y,./images/SHELFHB.png,,,,,,,,z,0,1.4396,,,,,,,,0,62,62,39,1
,,,,,,,,,,,,,,,,,199111,18,2022-01-29_05h02.18.618,lexical_decision_task_DD_L2,2021.2.3,MacIntel,47.95243119,,,,,,,,,,,0.6179,1,,,,,,,,,,,,,,,,,,,,,,,,-0.046806279,-0.375499132,0,0,0,,,,,,,COUCH,C,m,y,./images/COUCH.png,,,,,,,,m,1,0.6179,,,,,,,,0,63,63,77,1
,,,,,,,,,,,,,,,,,199111,18,2022-01-29_05h02.18.618,lexical_decision_task_DD_L2,2021.2.3,MacIntel,47.95243119,,,,,,,,,,,0.917,1,,,,,,,,,,,,,,,,,,,,,,,,-0.046806279,-0.375499132,0,0,0,,,,,,,MAMMAL,C,z,y,./images/MAMMAL.png,,,,,,,,z,1,0.917,,,,,,,,0,64,64,146,1
,,,,,,,,,,,,,,,,,199111,18,2022-01-29_05h02.18.618,lexical_decision_task_DD_L2,2021.2.3,MacIntel,47.95243119,,,,,,,,,,,0.6574,1,,,,,,,,,,,,,,,,,,,,,,,,-0.046806279,-0.375499132,0,0,0,,,,,,,BRIDE,LB,z,y,./images/BRIDELB.png,,,,,,,,z,1,0.6574,,,,,,,,0,65,65,148,1
,,,,,,,,,,,,,,,,,199111,18,2022-01-29_05h02.18.618,lexical_decision_task_DD_L2,2021.2.3,MacIntel,47.95243119,,,,,,,,,,,0.934,0,,,,,,,,,,,,,,,,,,,,,,,,-0.046806279,-0.375499132,0,0,0,,,,,,,BELLY,LB,m,y,./images/BELLYLB.png,,,,,,,,z,0,0.934,,,,,,,,0,66,66,10,1
,,,,,,,,,,,,,,,,,199111,18,2022-01-29_05h02.18.618,lexical_decision_task_DD_L2,2021.2.3,MacIntel,47.95243119,,,,,,,,,,,0.8647,1,,,,,,,,,,,,,,,,,,,,,,,,-0.046806279,-0.375499132,0,0,0,,,,,,,CLIFF,C,z,y,./images/CLIFF.png,,,,,,,,z,1,0.8647,,,,,,,,0,67,67,92,1
,,,,,,,,,,,,,,,,,199111,18,2022-01-29_05h02.18.618,lexical_decision_task_DD_L2,2021.2.3,MacIntel,47.95243119,,,,,,,,,,,0.6455,1,,,,,,,,,,,,,,,,,,,,,,,,-0.046806279,-0.375499132,0,0,0,,,,,,,PEBBLE,LB,z,y,./images/PEBBLELB.png,,,,,,,,z,1,0.6455,,,,,,,,0,68,68,166,1
,,,,,,,,,,,,,,,,,199111,18,2022-01-29_05h02.18.618,lexical_decision_task_DD_L2,2021.2.3,MacIntel,47.95243119,,,,,,,,,,,1.0402,1,,,,,,,,,,,,,,,,,,,,,,,,-0.046806279,-0.375499132,0,0,0,,,,,,,RHINO,HB,m,y,./images/RHINOHB.png,,,,,,,,m,1,1.0402,,,,,,,,0,69,69,9,1
,,,,,,,,,,,,,,,,,199111,18,2022-01-29_05h02.18.618,lexical_decision_task_DD_L2,2021.2.3,MacIntel,47.95243119,,,,,,,,,,,0.7541,1,,,,,,,,,,,,,,,,,,,,,,,,-0.046806279,-0.375499132,0,0,0,,,,,,,BUTTER,HB,z,y,./images/BUTTERHB.png,,,,,,,,z,1,0.7541,,,,,,,,0,70,70,111,1
,,,,,,,,,,,,,,,,,199111,18,2022-01-29_05h02.18.618,lexical_decision_task_DD_L2,2021.2.3,MacIntel,47.95243119,,,,,,,,,,,0.6776,1,,,,,,,,,,,,,,,,,,,,,,,,-0.046806279,-0.375499132,0,0,0,,,,,,,LLAMA,C,z,y,./images/LLAMA.png,,,,,,,,z,1,0.6776,,,,,,,,0,71,71,119,1
,,,,,,,,,,,,,,,,,199111,18,2022-01-29_05h02.18.618,lexical_decision_task_DD_L2,2021.2.3,MacIntel,47.95243119,,,,,,,,,,,0.8098,1,,,,,,,,,,,,,,,,,,,,,,,,-0.046806279,-0.375499132,0,0,0,,,,,,,PURSE,C,m,y,./images/PURSE.png,,,,,,,,m,1,0.8098,,,,,,,,0,72,72,62,1
,,,,,,,,,,,,,,,,,199111,18,2022-01-29_05h02.18.618,lexical_decision_task_DD_L2,2021.2.3,MacIntel,47.95243119,,,,,,,,,,,0.6284,0,,,,,,,,,,,,,,,,,,,,,,,,-0.046806279,-0.375499132,0,0,0,,,,,,,FALCON,LB,m,y,./images/FALCONLB.png,,,,,,,,z,0,0.6284,,,,,,,,0,73,73,28,1
,,,,,,,,,,,,,,,,,199111,18,2022-01-29_05h02.18.618,lexical_decision_task_DD_L2,2021.2.3,MacIntel,47.95243119,,,,,,,,,,,0.6884,1,,,,,,,,,,,,,,,,,,,,,,,,-0.046806279,-0.375499132,0,0,0,,,,,,,CARPET,C,m,y,./images/CARPET.png,,,,,,,,m,1,0.6884,,,,,,,,0,74,74,53,1
,,,,,,,,,,,,,,,,,199111,18,2022-01-29_05h02.18.618,lexical_decision_task_DD_L2,2021.2.3,MacIntel,47.95243119,,,,,,,,,,,0.691,1,,,,,,,,,,,,,,,,,,,,,,,,-0.046806279,-0.375499132,0,0,0,,,,,,,THROAT,HB,m,y,./images/THROATHB.png,,,,,,,,m,1,0.691,,,,,,,,0,75,75,36,1
,,,,,,,,,,,,,,,,,199111,18,2022-01-29_05h02.18.618,lexical_decision_task_DD_L2,2021.2.3,MacIntel,47.95243119,,,,,,,,,,,0.8316,1,,,,,,,,,,,,,,,,,,,,,,,,-0.046806279,-0.375499132,0,0,0,,,,,,,PLANET,C,z,y,./images/PLANET.png,,,,,,,,z,1,0.8316,,,,,,,,0,76,76,164,1
,,,,,,,,,,,,,,,,,199111,18,2022-01-29_05h02.18.618,lexical_decision_task_DD_L2,2021.2.3,MacIntel,47.95243119,,,,,,,,,,,0.6462,1,,,,,,,,,,,,,,,,,,,,,,,,-0.046806279,-0.375499132,0,0,0,,,,,,,TRIPOD,HB,m,y,./images/TRIPODHB.png,,,,,,,,m,1,0.6462,,,,,,,,0,77,77,54,1
,,,,,,,,,,,,,,,,,199111,18,2022-01-29_05h02.18.618,lexical_decision_task_DD_L2,2021.2.3,MacIntel,47.95243119,,,,,,,,,,,0.7071,1,,,,,,,,,,,,,,,,,,,,,,,,-0.046806279,-0.375499132,0,0,0,,,,,,,WHEEL,C,z,y,./images/WHEEL.png,,,,,,,,z,1,0.7071,,,,,,,,0,78,78,161,1
,,,,,,,,,,,,,,,,,199111,18,2022-01-29_05h02.18.618,lexical_decision_task_DD_L2,2021.2.3,MacIntel,47.95243119,,,,,,,,,,,0.9202,1,,,,,,,,,,,,,,,,,,,,,,,,-0.046806279,-0.375499132,0,0,0,,,,,,,MOSQUE,LB,m,y,./images/MOSQUELB.png,,,,,,,,m,1,0.9202,,,,,,,,0,79,79,43,1
,,,,,,,,,,,,,,,,,199111,18,2022-01-29_05h02.18.618,lexical_decision_task_DD_L2,2021.2.3,MacIntel,47.95243119,,,,,,,,,,,0.8649,0,,,,,,,,,,,,,,,,,,,,,,,,-0.046806279,-0.375499132,0,0,0,,,,,,,BERRY,C,m,y,./images/BERRY.png,,,,,,,,z,0,0.8649,,,,,,,,0,80,80,47,1
,,,,,,,,,,,,,,,,,199111,18,2022-01-29_05h02.18.618,lexical_decision_task_DD_L2,2021.2.3,MacIntel,47.95243119,,,,,,,,,,,0.769,0,,,,,,,,,,,,,,,,,,,,,,,,-0.046806279,-0.375499132,0,0,0,,,,,,,PACKET,C,m,y,./images/PACKET.png,,,,,,,,z,0,0.769,,,,,,,,0,81,81,56,1
,,,,,,,,,,,,,,,,,199111,18,2022-01-29_05h02.18.618,lexical_decision_task_DD_L2,2021.2.3,MacIntel,47.95243119,,,,,,,,,,,0.7714,1,,,,,,,,,,,,,,,,,,,,,,,,-0.046806279,-0.375499132,0,0,0,,,,,,,SAUNA,HB,z,y,./images/SAUNAHB.png,,,,,,,,z,1,0.7714,,,,,,,,0,82,82,117,1
,,,,,,,,,,,,,,,,,199111,18,2022-01-29_05h02.18.618,lexical_decision_task_DD_L2,2021.2.3,MacIntel,47.95243119,,,,,,,,,,,0.77,1,,,,,,,,,,,,,,,,,,,,,,,,-0.046806279,-0.375499132,0,0,0,space,,,,,,CRADLE,C,m,y,./images/CRADLE.png,1.088,,,,,,,m,1,0.77,,,,,,,,0,83,83,20,1
,,,,,,,,,,,,,,,,,199111,18,2022-01-29_05h02.18.618,lexical_decision_task_DD_L2,2021.2.3,MacIntel,47.95243119,,,,,,,,,,,0.9984,1,,,,,,,,,,,,,,,,,,,,,,,,-0.046806279,-0.375499132,0,0,0,,,,,,,GREASE,HB,m,y,./images/GREASEHB.png,,,,,,,,m,1,0.9984,,,,,,,,0,84,84,15,1
,,,,,,,,,,,,,,,,,199111,18,2022-01-29_05h02.18.618,lexical_decision_task_DD_L2,2021.2.3,MacIntel,47.95243119,,,,,,,,,,,1.0149,0,,,,,,,,,,,,,,,,,,,,,,,,-0.046806279,-0.375499132,0,0,0,,,,,,,WALRUS,C,m,y,./images/WALRUS.png,,,,,,,,z,0,1.0149,,,,,,,,0,85,85,23,1
,,,,,,,,,,,,,,,,,199111,18,2022-01-29_05h02.18.618,lexical_decision_task_DD_L2,2021.2.3,MacIntel,47.95243119,,,,,,,,,,,1.5345,1,,,,,,,,,,,,,,,,,,,,,,,,-0.046806279,-0.375499132,0,0,0,,,,,,,DANCER,HB,z,y,./images/DANCERHB.png,,,,,,,,z,1,1.5345,,,,,,,,0,86,86,105,1
,,,,,,,,,,,,,,,,,199111,18,2022-01-29_05h02.18.618,lexical_decision_task_DD_L2,2021.2.3,MacIntel,47.95243119,,,,,,,,,,,0.8213,1,,,,,,,,,,,,,,,,,,,,,,,,-0.046806279,-0.375499132,0,0,0,,,,,,,MEDAL,C,z,y,./images/MEDAL.png,,,,,,,,z,1,0.8213,,,,,,,,0,87,87,95,1
,,,,,,,,,,,,,,,,,199111,18,2022-01-29_05h02.18.618,lexical_decision_task_DD_L2,2021.2.3,MacIntel,47.95243119,,,,,,,,,,,0.5608,1,,,,,,,,,,,,,,,,,,,,,,,,-0.046806279,-0.375499132,0,0,0,,,,,,,SHIELD,HB,z,y,./images/SHIELDHB.png,,,,,,,,z,1,0.5608,,,,,,,,0,88,88,132,1
,,,,,,,,,,,,,,,,,199111,18,2022-01-29_05h02.18.618,lexical_decision_task_DD_L2,2021.2.3,MacIntel,47.95243119,,,,,,,,,,,0.8632,1,,,,,,,,,,,,,,,,,,,,,,,,-0.046806279,-0.375499132,0,0,0,,,,,,,BAKER,HB,z,y,./images/BAKERHB.png,,,,,,,,z,1,0.8632,,,,,,,,0,89,89,147,1
,,,,,,,,,,,,,,,,,199111,18,2022-01-29_05h02.18.618,lexical_decision_task_DD_L2,2021.2.3,MacIntel,47.95243119,,,,,,,,,,,0.8568,1,,,,,,,,,,,,,,,,,,,,,,,,-0.046806279,-0.375499132,0,0,0,,,,,,,STAIN,HB,z,y,./images/STAINHB.png,,,,,,,,z,1,0.8568,,,,,,,,0,90,90,90,1
,,,,,,,,,,,,,,,,,199111,18,2022-01-29_05h02.18.618,lexical_decision_task_DD_L2,2021.2.3,MacIntel,47.95243119,,,,,,,,,,,1.6855,0,,,,,,,,,,,,,,,,,,,,,,,,-0.046806279,-0.375499132,0,0,0,,,,,,,BEARD,C,m,y,./images/BEARD.png,,,,,,,,z,0,1.6855,,,,,,,,0,91,91,2,1
,,,,,,,,,,,,,,,,,199111,18,2022-01-29_05h02.18.618,lexical_decision_task_DD_L2,2021.2.3,MacIntel,47.95243119,,,,,,,,,,,0.7581,0,,,,,,,,,,,,,,,,,,,,,,,,-0.046806279,-0.375499132,0,0,0,,,,,,,PICKLE,C,m,y,./images/PICKLE.png,,,,,,,,z,0,0.7581,,,,,,,,0,92,92,14,1
,,,,,,,,,,,,,,,,,199111,18,2022-01-29_05h02.18.618,lexical_decision_task_DD_L2,2021.2.3,MacIntel,47.95243119,,,,,,,,,,,0.717,0,,,,,,,,,,,,,,,,,,,,,,,,-0.046806279,-0.375499132,0,0,0,,,,,,,SUNSET,LB,m,y,./images/SUNSETLB.png,,,,,,,,z,0,0.717,,,,,,,,0,93,93,82,1
,,,,,,,,,,,,,,,,,199111,18,2022-01-29_05h02.18.618,lexical_decision_task_DD_L2,2021.2.3,MacIntel,47.95243119,,,,,,,,,,,0.6682,1,,,,,,,,,,,,,,,,,,,,,,,,-0.046806279,-0.375499132,0,0,0,,,,,,,CANDY,HB,z,y,./images/CANDYHB.png,,,,,,,,z,1,0.6682,,,,,,,,0,94,94,123,1
,,,,,,,,,,,,,,,,,199111,18,2022-01-29_05h02.18.618,lexical_decision_task_DD_L2,2021.2.3,MacIntel,47.95243119,,,,,,,,,,,1.2183,1,,,,,,,,,,,,,,,,,,,,,,,,-0.046806279,-0.375499132,0,0,0,,,,,,,BASKET,C,z,y,./images/BASKET.png,,,,,,,,z,1,1.2183,,,,,,,,0,95,95,128,1
,,,,,,,,,,,,,,,,,199111,18,2022-01-29_05h02.18.618,lexical_decision_task_DD_L2,2021.2.3,MacIntel,47.95243119,,,,,,,,,,,0.9004,1,,,,,,,,,,,,,,,,,,,,,,,,-0.046806279,-0.375499132,0,0,0,,,,,,,PEACH,C,m,y,./images/PEACH.png,,,,,,,,m,1,0.9004,,,,,,,,0,96,96,35,1
,,,,,,,,,,,,,,,,,199111,18,2022-01-29_05h02.18.618,lexical_decision_task_DD_L2,2021.2.3,MacIntel,47.95243119,,,,,,,,,,,0.7504,0,,,,,,,,,,,,,,,,,,,,,,,,-0.046806279,-0.375499132,0,0,0,,,,,,,WEASEL,C,m,y,./images/WEASEL.png,,,,,,,,z,0,0.7504,,,,,,,,0,97,97,80,1
,,,,,,,,,,,,,,,,,199111,18,2022-01-29_05h02.18.618,lexical_decision_task_DD_L2,2021.2.3,MacIntel,47.95243119,,,,,,,,,,,0.6319,1,,,,,,,,,,,,,,,,,,,,,,,,-0.046806279,-0.375499132,0,0,0,,,,,,,BUNNY,LB,z,y,./images/BUNNYLB.png,,,,,,,,z,1,0.6319,,,,,,,,0,98,98,97,1
,,,,,,,,,,,,,,,,,199111,18,2022-01-29_05h02.18.618,lexical_decision_task_DD_L2,2021.2.3,MacIntel,47.95243119,,,,,,,,,,,0.7569,1,,,,,,,,,,,,,,,,,,,,,,,,-0.046806279,-0.375499132,0,0,0,,,,,,,MUSCLE,LB,m,y,./images/MUSCLELB.png,,,,,,,,m,1,0.7569,,,,,,,,0,99,99,4,1
,,,,,,,,,,,,,,,,,199111,18,2022-01-29_05h02.18.618,lexical_decision_task_DD_L2,2021.2.3,MacIntel,47.95243119,,,,,,,,,,,0.7413,1,,,,,,,,,,,,,,,,,,,,,,,,-0.046806279,-0.375499132,0,0,0,,,,,,,SNAKE,LB,z,y,./images/SNAKELB.png,,,,,,,,z,1,0.7413,,,,,,,,0,100,100,124,1
,,,,,,,,,,,,,,,,,199111,18,2022-01-29_05h02.18.618,lexical_decision_task_DD_L2,2021.2.3,MacIntel,47.95243119,,,,,,,,,,,0.9215,1,,,,,,,,,,,,,,,,,,,,,,,,-0.046806279,-0.375499132,0,0,0,,,,,,,CASINO,LB,z,y,./images/CASINOLB.png,,,,,,,,z,1,0.9215,,,,,,,,0,101,101,112,1
,,,,,,,,,,,,,,,,,199111,18,2022-01-29_05h02.18.618,lexical_decision_task_DD_L2,2021.2.3,MacIntel,47.95243119,,,,,,,,,,,1.2744,1,,,,,,,,,,,,,,,,,,,,,,,,-0.046806279,-0.375499132,0,0,0,,,,,,,PENCE,LB,m,y,./images/PENCELB.png,,,,,,,,m,1,1.2744,,,,,,,,0,102,102,16,1
,,,,,,,,,,,,,,,,,199111,18,2022-01-29_05h02.18.618,lexical_decision_task_DD_L2,2021.2.3,MacIntel,47.95243119,,,,,,,,,,,0.7929,1,,,,,,,,,,,,,,,,,,,,,,,,-0.046806279,-0.375499132,0,0,0,,,,,,,HEATER,C,z,y,./images/HEATER.png,,,,,,,,z,1,0.7929,,,,,,,,0,103,103,140,1
,,,,,,,,,,,,,,,,,199111,18,2022-01-29_05h02.18.618,lexical_decision_task_DD_L2,2021.2.3,MacIntel,47.95243119,,,,,,,,,,,0.7607,1,,,,,,,,,,,,,,,,,,,,,,,,-0.046806279,-0.375499132,0,0,0,,,,,,,PISTOL,C,z,y,./images/PISTOL.png,,,,,,,,z,1,0.7607,,,,,,,,0,104,104,113,1
,,,,,,,,,,,,,,,,,199111,18,2022-01-29_05h02.18.618,lexical_decision_task_DD_L2,2021.2.3,MacIntel,47.95243119,,,,,,,,,,,0.7647,1,,,,,,,,,,,,,,,,,,,,,,,,-0.046806279,-0.375499132,0,0,0,,,,,,,MIDGET,LB,z,y,./images/MIDGETLB.png,,,,,,,,z,1,0.7647,,,,,,,,0,105,105,160,1
,,,,,,,,,,,,,,,,,199111,18,2022-01-29_05h02.18.618,lexical_decision_task_DD_L2,2021.2.3,MacIntel,47.95243119,,,,,,,,,,,0.7093,1,,,,,,,,,,,,,,,,,,,,,,,,-0.046806279,-0.375499132,0,0,0,,,,,,,STORM,HB,m,y,./images/STORMHB.png,,,,,,,,m,1,0.7093,,,,,,,,0,106,106,30,1
,,,,,,,,,,,,,,,,,199111,18,2022-01-29_05h02.18.618,lexical_decision_task_DD_L2,2021.2.3,MacIntel,47.95243119,,,,,,,,,,,0.778,1,,,,,,,,,,,,,,,,,,,,,,,,-0.046806279,-0.375499132,0,0,0,,,,,,,PARADE,C,z,y,./images/PARADE.png,,,,,,,,z,1,0.778,,,,,,,,0,107,107,101,1
,,,,,,,,,,,,,,,,,199111,18,2022-01-29_05h02.18.618,lexical_decision_task_DD_L2,2021.2.3,MacIntel,47.95243119,,,,,,,,,,,0.6065,1,,,,,,,,,,,,,,,,,,,,,,,,-0.046806279,-0.375499132,0,0,0,,,,,,,FLESH,HB,z,y,./images/FLESHHB.png,,,,,,,,z,1,0.6065,,,,,,,,0,108,108,108,1
,,,,,,,,,,,,,,,,,199111,18,2022-01-29_05h02.18.618,lexical_decision_task_DD_L2,2021.2.3,MacIntel,47.95243119,,,,,,,,,,,1.1662,1,,,,,,,,,,,,,,,,,,,,,,,,-0.046806279,-0.375499132,0,0,0,,,,,,,NOOSE,HB,m,y,./images/NOOSEHB.png,,,,,,,,m,1,1.1662,,,,,,,,0,109,109,72,1
,,,,,,,,,,,,,,,,,199111,18,2022-01-29_05h02.18.618,lexical_decision_task_DD_L2,2021.2.3,MacIntel,47.95243119,,,,,,,,,,,0.6975,1,,,,,,,,,,,,,,,,,,,,,,,,-0.046806279,-0.375499132,0,0,0,,,,,,,CLOTH,C,z,y,./images/CLOTH.png,,,,,,,,z,1,0.6975,,,,,,,,0,110,110,107,1
,,,,,,,,,,,,,,,,,199111,18,2022-01-29_05h02.18.618,lexical_decision_task_DD_L2,2021.2.3,MacIntel,47.95243119,,,,,,,,,,,0.8644,0,,,,,,,,,,,,,,,,,,,,,,,,-0.046806279,-0.375499132,0,0,0,,,,,,,BARREL,C,m,y,./images/BARREL.png,,,,,,,,z,0,0.8644,,,,,,,,0,111,111,32,1
,,,,,,,,,,,,,,,,,199111,18,2022-01-29_05h02.18.618,lexical_decision_task_DD_L2,2021.2.3,MacIntel,47.95243119,,,,,,,,,,,2.5378,0,,,,,,,,,,,,,,,,,,,,,,,,-0.046806279,-0.375499132,0,0,0,,,,,,,PASTA,C,m,y,./images/PASTA.png,,,,,,,,z,0,2.5378,,,,,,,,0,112,112,5,1
,,,,,,,,,,,,,,,,,199111,18,2022-01-29_05h02.18.618,lexical_decision_task_DD_L2,2021.2.3,MacIntel,47.95243119,,,,,,,,,,,0.6667,1,,,,,,,,,,,,,,,,,,,,,,,,-0.046806279,-0.375499132,0,0,0,,,,,,,SKIING,C,m,y,./images/SKIING.png,,,,,,,,m,1,0.6667,,,,,,,,0,113,113,17,1
,,,,,,,,,,,,,,,,,199111,18,2022-01-29_05h02.18.618,lexical_decision_task_DD_L2,2021.2.3,MacIntel,47.95243119,,,,,,,,,,,1.4503,1,,,,,,,,,,,,,,,,,,,,,,,,-0.046806279,-0.375499132,0,0,0,,,,,,,BABOON,LB,m,y,./images/BABOONLB.png,,,,,,,,m,1,1.4503,,,,,,,,0,114,114,58,1
,,,,,,,,,,,,,,,,,199111,18,2022-01-29_05h02.18.618,lexical_decision_task_DD_L2,2021.2.3,MacIntel,47.95243119,,,,,,,,,,,0.7683,0,,,,,,,,,,,,,,,,,,,,,,,,-0.046806279,-0.375499132,0,0,0,,,,,,,KITTEN,HB,m,y,./images/KITTENHB.png,,,,,,,,z,0,0.7683,,,,,,,,0,115,115,45,1
,,,,,,,,,,,,,,,,,199111,18,2022-01-29_05h02.18.618,lexical_decision_task_DD_L2,2021.2.3,MacIntel,47.95243119,,,,,,,,,,,0.7101,1,,,,,,,,,,,,,,,,,,,,,,,,-0.046806279,-0.375499132,0,0,0,,,,,,,MUMMY,LB,z,y,./images/MUMMYLB.png,,,,,,,,z,1,0.7101,,,,,,,,0,116,116,130,1
,,,,,,,,,,,,,,,,,199111,18,2022-01-29_05h02.18.618,lexical_decision_task_DD_L2,2021.2.3,MacIntel,47.95243119,,,,,,,,,,,0.6813,0,,,,,,,,,,,,,,,,,,,,,,,,-0.046806279,-0.375499132,0,0,0,,,,,,,PEARL,LB,m,y,./images/PEARLLB.png,,,,,,,,z,0,0.6813,,,,,,,,0,117,117,46,1
,,,,,,,,,,,,,,,,,199111,18,2022-01-29_05h02.18.618,lexical_decision_task_DD_L2,2021.2.3,MacIntel,47.95243119,,,,,,,,,,,0.6076,1,,,,,,,,,,,,,,,,,,,,,,,,-0.046806279,-0.375499132,0,0,0,,,,,,,COLLAR,HB,z,y,./images/COLLARHB.png,,,,,,,,z,1,0.6076,,,,,,,,0,118,118,99,1
,,,,,,,,,,,,,,,,,199111,18,2022-01-29_05h02.18.618,lexical_decision_task_DD_L2,2021.2.3,MacIntel,47.95243119,,,,,,,,,,,2.461,0,,,,,,,,,,,,,,,,,,,,,,,,-0.046806279,-0.375499132,0,0,0,,,,,,,ARTIST,LB,z,y,./images/ARTISTLB.png,,,,,,,,m,0,2.461,,,,,,,,0,119,119,145,1
,,,,,,,,,,,,,,,,,199111,18,2022-01-29_05h02.18.618,lexical_decision_task_DD_L2,2021.2.3,MacIntel,47.95243119,,,,,,,,,,,1.1894,1,,,,,,,,,,,,,,,,,,,,,,,,-0.046806279,-0.375499132,0,0,0,,,,,,,BISHOP,LB,z,y,./images/BISHOPLB.png,,,,,,,,z,1,1.1894,,,,,,,,0,120,120,133,1
,,,,,,,,,,,,,,,,,199111,18,2022-01-29_05h02.18.618,lexical_decision_task_DD_L2,2021.2.3,MacIntel,47.95243119,,,,,,,,,,,1.2102,1,,,,,,,,,,,,,,,,,,,,,,,,-0.046806279,-0.375499132,0,0,0,,,,,,,GRAIN,HB,m,y,./images/GRAINHB.png,,,,,,,,m,1,1.2102,,,,,,,,0,121,121,75,1
,,,,,,,,,,,,,,,,,199111,18,2022-01-29_05h02.18.618,lexical_decision_task_DD_L2,2021.2.3,MacIntel,47.95243119,,,,,,,,,,,0.8802,1,,,,,,,,,,,,,,,,,,,,,,,,-0.046806279,-0.375499132,0,0,0,,,,,,,ARROW,HB,z,y,./images/ARROWHB.png,,,,,,,,z,1,0.8802,,,,,,,,0,122,122,153,1
,,,,,,,,,,,,,,,,,199111,18,2022-01-29_05h02.18.618,lexical_decision_task_DD_L2,2021.2.3,MacIntel,47.95243119,,,,,,,,,,,0.7089,1,,,,,,,,,,,,,,,,,,,,,,,,-0.046806279,-0.375499132,0,0,0,,,,,,,STATUE,HB,z,y,./images/STATUEHB.png,,,,,,,,z,1,0.7089,,,,,,,,0,123,123,150,1
,,,,,,,,,,,,,,,,,199111,18,2022-01-29_05h02.18.618,lexical_decision_task_DD_L2,2021.2.3,MacIntel,47.95243119,,,,,,,,,,,0.8451,1,,,,,,,,,,,,,,,,,,,,,,,,-0.046806279,-0.375499132,0,0,0,,,,,,,SQUARE,HB,m,y,./images/SQUAREHB.png,,,,,,,,m,1,0.8451,,,,,,,,0,124,124,6,1
,,,,,,,,,,,,,,,,,199111,18,2022-01-29_05h02.18.618,lexical_decision_task_DD_L2,2021.2.3,MacIntel,47.95243119,,,,,,,,,,,0.9178,1,,,,,,,,,,,,,,,,,,,,,,,,-0.046806279,-0.375499132,0,0,0,space,,,,,,BOXER,LB,z,y,./images/BOXERLB.png,0.7605,,,,,,,z,1,0.9178,,,,,,,,0,125,125,88,1
,,,,,,,,,,,,,,,,,199111,18,2022-01-29_05h02.18.618,lexical_decision_task_DD_L2,2021.2.3,MacIntel,47.95243119,,,,,,,,,,,0.7058,1,,,,,,,,,,,,,,,,,,,,,,,,-0.046806279,-0.375499132,0,0,0,,,,,,,CHALK,LB,z,y,./images/CHALKLB.png,,,,,,,,z,1,0.7058,,,,,,,,0,126,126,109,1
,,,,,,,,,,,,,,,,,199111,18,2022-01-29_05h02.18.618,lexical_decision_task_DD_L2,2021.2.3,MacIntel,47.95243119,,,,,,,,,,,0.5992,1,,,,,,,,,,,,,,,,,,,,,,,,-0.046806279,-0.375499132,0,0,0,,,,,,,RAZOR,LB,z,y,./images/RAZORLB.png,,,,,,,,z,1,0.5992,,,,,,,,0,127,127,118,1
,,,,,,,,,,,,,,,,,199111,18,2022-01-29_05h02.18.618,lexical_decision_task_DD_L2,2021.2.3,MacIntel,47.95243119,,,,,,,,,,,0.4842,1,,,,,,,,,,,,,,,,,,,,,,,,-0.046806279,-0.375499132,0,0,0,,,,,,,WHISKY,C,z,y,./images/WHISKY.png,,,,,,,,z,1,0.4842,,,,,,,,0,128,128,167,1
,,,,,,,,,,,,,,,,,199111,18,2022-01-29_05h02.18.618,lexical_decision_task_DD_L2,2021.2.3,MacIntel,47.95243119,,,,,,,,,,,0.6864,1,,,,,,,,,,,,,,,,,,,,,,,,-0.046806279,-0.375499132,0,0,0,,,,,,,GRANNY,C,z,y,./images/GRANNY.png,,,,,,,,z,1,0.6864,,,,,,,,0,129,129,104,1
,,,,,,,,,,,,,,,,,199111,18,2022-01-29_05h02.18.618,lexical_decision_task_DD_L2,2021.2.3,MacIntel,47.95243119,,,,,,,,,,,0.5655,1,,,,,,,,,,,,,,,,,,,,,,,,-0.046806279,-0.375499132,0,0,0,,,,,,,CHERRY,HB,z,y,./images/CHERRYHB.png,,,,,,,,z,1,0.5655,,,,,,,,0,130,130,138,1
,,,,,,,,,,,,,,,,,199111,18,2022-01-29_05h02.18.618,lexical_decision_task_DD_L2,2021.2.3,MacIntel,47.95243119,,,,,,,,,,,0.721,1,,,,,,,,,,,,,,,,,,,,,,,,-0.046806279,-0.375499132,0,0,0,,,,,,,QUILL,LB,m,y,./images/QUILLLB.png,,,,,,,,m,1,0.721,,,,,,,,0,131,131,31,1
,,,,,,,,,,,,,,,,,199111,18,2022-01-29_05h02.18.618,lexical_decision_task_DD_L2,2021.2.3,MacIntel,47.95243119,,,,,,,,,,,0.6026,1,,,,,,,,,,,,,,,,,,,,,,,,-0.046806279,-0.375499132,0,0,0,,,,,,,TWINS,HB,m,y,./images/TWINSHB.png,,,,,,,,m,1,0.6026,,,,,,,,0,132,132,60,1
,,,,,,,,,,,,,,,,,199111,18,2022-01-29_05h02.18.618,lexical_decision_task_DD_L2,2021.2.3,MacIntel,47.95243119,,,,,,,,,,,0.9837,1,,,,,,,,,,,,,,,,,,,,,,,,-0.046806279,-0.375499132,0,0,0,,,,,,,MOTOR,LB,m,y,./images/MOTORLB.png,,,,,,,,m,1,0.9837,,,,,,,,0,133,133,13,1
,,,,,,,,,,,,,,,,,199111,18,2022-01-29_05h02.18.618,lexical_decision_task_DD_L2,2021.2.3,MacIntel,47.95243119,,,,,,,,,,,1.2621,0,,,,,,,,,,,,,,,,,,,,,,,,-0.046806279,-0.375499132,0,0,0,,,,,,,CANDLE,LB,m,y,./images/CANDLELB.png,,,,,,,,z,0,1.2621,,,,,,,,0,134,134,61,1
,,,,,,,,,,,,,,,,,199111,18,2022-01-29_05h02.18.618,lexical_decision_task_DD_L2,2021.2.3,MacIntel,47.95243119,,,,,,,,,,,0.6679,1,,,,,,,,,,,,,,,,,,,,,,,,-0.046806279,-0.375499132,0,0,0,,,,,,,PIMPLE,C,m,y,./images/PIMPLE.png,,,,,,,,m,1,0.6679,,,,,,,,0,135,135,71,1
,,,,,,,,,,,,,,,,,199111,18,2022-01-29_05h02.18.618,lexical_decision_task_DD_L2,2021.2.3,MacIntel,47.95243119,,,,,,,,,,,0.125,0,,,,,,,,,,,,,,,,,,,,,,,,-0.046806279,-0.375499132,0,0,0,,,,,,,PAINT,LB,m,y,./images/PAINTLB.png,,,,,,,,z,0,0.125,,,,,,,,0,136,136,7,1
,,,,,,,,,,,,,,,,,199111,18,2022-01-29_05h02.18.618,lexical_decision_task_DD_L2,2021.2.3,MacIntel,47.95243119,,,,,,,,,,,1.0215,1,,,,,,,,,,,,,,,,,,,,,,,,-0.046806279,-0.375499132,0,0,0,,,,,,,RULER,LB,z,y,./images/RULERLB.png,,,,,,,,z,1,1.0215,,,,,,,,0,137,137,163,1
,,,,,,,,,,,,,,,,,199111,18,2022-01-29_05h02.18.618,lexical_decision_task_DD_L2,2021.2.3,MacIntel,47.95243119,,,,,,,,,,,0.7786,1,,,,,,,,,,,,,,,,,,,,,,,,-0.046806279,-0.375499132,0,0,0,,,,,,,GLOVE,LB,z,y,./images/GLOVELB.png,,,,,,,,z,1,0.7786,,,,,,,,0,138,138,157,1
,,,,,,,,,,,,,,,,,199111,18,2022-01-29_05h02.18.618,lexical_decision_task_DD_L2,2021.2.3,MacIntel,47.95243119,,,,,,,,,,,0.7385,1,,,,,,,,,,,,,,,,,,,,,,,,-0.046806279,-0.375499132,0,0,0,,,,,,,FARMER,C,m,y,./images/FARMER.png,,,,,,,,m,1,0.7385,,,,,,,,0,139,139,65,1
,,,,,,,,,,,,,,,,,199111,18,2022-01-29_05h02.18.618,lexical_decision_task_DD_L2,2021.2.3,MacIntel,47.95243119,,,,,,,,,,,0.7459,0,,,,,,,,,,,,,,,,,,,,,,,,-0.046806279,-0.375499132,0,0,0,,,,,,,SPORT,HB,m,y,./images/SPORTHB.png,,,,,,,,z,0,0.7459,,,,,,,,0,140,140,48,1
,,,,,,,,,,,,,,,,,199111,18,2022-01-29_05h02.18.618,lexical_decision_task_DD_L2,2021.2.3,MacIntel,47.95243119,,,,,,,,,,,0.5543,1,,,,,,,,,,,,,,,,,,,,,,,,-0.046806279,-0.375499132,0,0,0,,,,,,,STEAK,LB,z,y,./images/STEAKLB.png,,,,,,,,z,1,0.5543,,,,,,,,0,141,141,115,1
,,,,,,,,,,,,,,,,,199111,18,2022-01-29_05h02.18.618,lexical_decision_task_DD_L2,2021.2.3,MacIntel,47.95243119,,,,,,,,,,,1.0145,0,,,,,,,,,,,,,,,,,,,,,,,,-0.046806279,-0.375499132,0,0,0,,,,,,,FOLDER,HB,m,y,./images/FOLDERHB.png,,,,,,,,z,0,1.0145,,,,,,,,0,142,142,42,1
,,,,,,,,,,,,,,,,,199111,18,2022-01-29_05h02.18.618,lexical_decision_task_DD_L2,2021.2.3,MacIntel,47.95243119,,,,,,,,,,,0.5974,0,,,,,,,,,,,,,,,,,,,,,,,,-0.046806279,-0.375499132,0,0,0,,,,,,,SNACK,LB,m,y,./images/SNACKLB.png,,,,,,,,z,0,0.5974,,,,,,,,0,143,143,73,1
,,,,,,,,,,,,,,,,,199111,18,2022-01-29_05h02.18.618,lexical_decision_task_DD_L2,2021.2.3,MacIntel,47.95243119,,,,,,,,,,,0.5835,1,,,,,,,,,,,,,,,,,,,,,,,,-0.046806279,-0.375499132,0,0,0,,,,,,,HAMMER,HB,z,y,./images/HAMMERHB.png,,,,,,,,z,1,0.5835,,,,,,,,0,144,144,159,1
,,,,,,,,,,,,,,,,,199111,18,2022-01-29_05h02.18.618,lexical_decision_task_DD_L2,2021.2.3,MacIntel,47.95243119,,,,,,,,,,,0.5114,1,,,,,,,,,,,,,,,,,,,,,,,,-0.046806279,-0.375499132,0,0,0,,,,,,,VALLEY,C,z,y,./images/VALLEY.png,,,,,,,,z,1,0.5114,,,,,,,,0,145,145,152,1
,,,,,,,,,,,,,,,,,199111,18,2022-01-29_05h02.18.618,lexical_decision_task_DD_L2,2021.2.3,MacIntel,47.95243119,,,,,,,,,,,1.078,1,,,,,,,,,,,,,,,,,,,,,,,,-0.046806279,-0.375499132,0,0,0,,,,,,,BIRTH,LB,m,y,./images/BIRTHLB.png,,,,,,,,m,1,1.078,,,,,,,,0,146,146,37,1
,,,,,,,,,,,,,,,,,199111,18,2022-01-29_05h02.18.618,lexical_decision_task_DD_L2,2021.2.3,MacIntel,47.95243119,,,,,,,,,,,0.8458,1,,,,,,,,,,,,,,,,,,,,,,,,-0.046806279,-0.375499132,0,0,0,,,,,,,STOVE,C,z,y,./images/STOVE.png,,,,,,,,z,1,0.8458,,,,,,,,0,147,147,86,1
,,,,,,,,,,,,,,,,,199111,18,2022-01-29_05h02.18.618,lexical_decision_task_DD_L2,2021.2.3,MacIntel,47.95243119,,,,,,,,,,,1.2503,1,,,,,,,,,,,,,,,,,,,,,,,,-0.046806279,-0.375499132,0,0,0,,,,,,,COOKER,HB,m,y,./images/COOKERHB.png,,,,,,,,m,1,1.2503,,,,,,,,0,148,148,69,1
,,,,,,,,,,,,,,,,,199111,18,2022-01-29_05h02.18.618,lexical_decision_task_DD_L2,2021.2.3,MacIntel,47.95243119,,,,,,,,,,,1.7369,0,,,,,,,,,,,,,,,,,,,,,,,,-0.046806279,-0.375499132,0,0,0,,,,,,,KIDNEY,HB,m,y,./images/KIDNEYHB.png,,,,,,,,z,0,1.7369,,,,,,,,0,149,149,21,1
,,,,,,,,,,,,,,,,,199111,18,2022-01-29_05h02.18.618,lexical_decision_task_DD_L2,2021.2.3,MacIntel,47.95243119,,,,,,,,,,,0.8409,1,,,,,,,,,,,,,,,,,,,,,,,,-0.046806279,-0.375499132,0,0,0,,,,,,,LAGOON,C,z,y,./images/LAGOON.png,,,,,,,,z,1,0.8409,,,,,,,,0,150,150,131,1
,,,,,,,,,,,,,,,,,199111,18,2022-01-29_05h02.18.618,lexical_decision_task_DD_L2,2021.2.3,MacIntel,47.95243119,,,,,,,,,,,0.7904,1,,,,,,,,,,,,,,,,,,,,,,,,-0.046806279,-0.375499132,0,0,0,,,,,,,BRUSH,C,z,y,./images/BRUSH.png,,,,,,,,z,1,0.7904,,,,,,,,0,151,151,143,1
,,,,,,,,,,,,,,,,,199111,18,2022-01-29_05h02.18.618,lexical_decision_task_DD_L2,2021.2.3,MacIntel,47.95243119,,,,,,,,,,,1.2917,1,,,,,,,,,,,,,,,,,,,,,,,,-0.046806279,-0.375499132,0,0,0,,,,,,,FENCE,C,z,y,./images/FENCE.png,,,,,,,,z,1,1.2917,,,,,,,,0,152,152,98,1
,,,,,,,,,,,,,,,,,199111,18,2022-01-29_05h02.18.618,lexical_decision_task_DD_L2,2021.2.3,MacIntel,47.95243119,,,,,,,,,,,1.2442,1,,,,,,,,,,,,,,,,,,,,,,,,-0.046806279,-0.375499132,0,0,0,,,,,,,FLASK,HB,z,y,./images/FLASKHB.png,,,,,,,,z,1,1.2442,,,,,,,,0,153,153,156,1
,,,,,,,,,,,,,,,,,199111,18,2022-01-29_05h02.18.618,lexical_decision_task_DD_L2,2021.2.3,MacIntel,47.95243119,,,,,,,,,,,0.6058,1,,,,,,,,,,,,,,,,,,,,,,,,-0.046806279,-0.375499132,0,0,0,,,,,,,PILOT,C,z,y,./images/PILOT.png,,,,,,,,z,1,0.6058,,,,,,,,0,154,154,134,1
,,,,,,,,,,,,,,,,,199111,18,2022-01-29_05h02.18.618,lexical_decision_task_DD_L2,2021.2.3,MacIntel,47.95243119,,,,,,,,,,,0.6718,1,,,,,,,,,,,,,,,,,,,,,,,,-0.046806279,-0.375499132,0,0,0,,,,,,,TIGER,LB,z,y,./images/TIGERLB.png,,,,,,,,z,1,0.6718,,,,,,,,0,155,155,121,1
,,,,,,,,,,,,,,,,,199111,18,2022-01-29_05h02.18.618,lexical_decision_task_DD_L2,2021.2.3,MacIntel,47.95243119,,,,,,,,,,,0.8982,1,,,,,,,,,,,,,,,,,,,,,,,,-0.046806279,-0.375499132,0,0,0,,,,,,,TOMATO,HB,m,y,./images/TOMATOHB.png,,,,,,,,m,1,0.8982,,,,,,,,0,156,156,0,1
,,,,,,,,,,,,,,,,,199111,18,2022-01-29_05h02.18.618,lexical_decision_task_DD_L2,2021.2.3,MacIntel,47.95243119,,,,,,,,,,,0.9442,1,,,,,,,,,,,,,,,,,,,,,,,,-0.046806279,-0.375499132,0,0,0,,,,,,,MIRROR,HB,m,y,./images/MIRRORHB.png,,,,,,,,m,1,0.9442,,,,,,,,0,157,157,63,1
,,,,,,,,,,,,,,,,,199111,18,2022-01-29_05h02.18.618,lexical_decision_task_DD_L2,2021.2.3,MacIntel,47.95243119,,,,,,,,,,,1.8623,1,,,,,,,,,,,,,,,,,,,,,,,,-0.046806279,-0.375499132,0,0,0,,,,,,,CRATER,HB,z,y,./images/CRATERHB.png,,,,,,,,z,1,1.8623,,,,,,,,0,158,158,87,1
,,,,,,,,,,,,,,,,,199111,18,2022-01-29_05h02.18.618,lexical_decision_task_DD_L2,2021.2.3,MacIntel,47.95243119,,,,,,,,,,,0.5931,1,,,,,,,,,,,,,,,,,,,,,,,,-0.046806279,-0.375499132,0,0,0,,,,,,,URINE,LB,m,y,./images/URINELB.png,,,,,,,,m,1,0.5931,,,,,,,,0,159,159,70,1
,,,,,,,,,,,,,,,,,199111,18,2022-01-29_05h02.18.618,lexical_decision_task_DD_L2,2021.2.3,MacIntel,47.95243119,,,,,,,,,,,1.8974,0,,,,,,,,,,,,,,,,,,,,,,,,-0.046806279,-0.375499132,0,0,0,,,,,,,MELON,LB,m,y,./images/MELONLB.png,,,,,,,,z,0,1.8974,,,,,,,,0,160,160,22,1
,,,,,,,,,,,,,,,,,199111,18,2022-01-29_05h02.18.618,lexical_decision_task_DD_L2,2021.2.3,MacIntel,47.95243119,,,,,,,,,,,0.9886,1,,,,,,,,,,,,,,,,,,,,,,,,-0.046806279,-0.375499132,0,0,0,,,,,,,BUBBLE,C,z,y,./images/BUBBLE.png,,,,,,,,z,1,0.9886,,,,,,,,0,161,161,155,1
,,,,,,,,,,,,,,,,,199111,18,2022-01-29_05h02.18.618,lexical_decision_task_DD_L2,2021.2.3,MacIntel,47.95243119,,,,,,,,,,,0.7114,1,,,,,,,,,,,,,,,,,,,,,,,,-0.046806279,-0.375499132,0,0,0,,,,,,,BLOKE,HB,z,y,./images/BLOKEHB.png,,,,,,,,z,1,0.7114,,,,,,,,0,162,162,96,1
,,,,,,,,,,,,,,,,,199111,18,2022-01-29_05h02.18.618,lexical_decision_task_DD_L2,2021.2.3,MacIntel,47.95243119,,,,,,,,,,,0.6516,0,,,,,,,,,,,,,,,,,,,,,,,,-0.046806279,-0.375499132,0,0,0,,,,,,,MUFFIN,LB,m,y,./images/MUFFINLB.png,,,,,,,,z,0,0.6516,,,,,,,,0,163,163,55,1
,,,,,,,,,,,,,,,,,199111,18,2022-01-29_05h02.18.618,lexical_decision_task_DD_L2,2021.2.3,MacIntel,47.95243119,,,,,,,,,,,1.2754,0,,,,,,,,,,,,,,,,,,,,,,,,-0.046806279,-0.375499132,0,0,0,,,,,,,LITTER,HB,m,y,./images/LITTERHB.png,,,,,,,,z,0,1.2754,,,,,,,,0,164,164,78,1
,,,,,,,,,,,,,,,,,199111,18,2022-01-29_05h02.18.618,lexical_decision_task_DD_L2,2021.2.3,MacIntel,47.95243119,,,,,,,,,,,1.1967,0,,,,,,,,,,,,,,,,,,,,,,,,-0.046806279,-0.375499132,0,0,0,,,,,,,BURIAL,C,m,y,./images/BURIAL.png,,,,,,,,z,0,1.1967,,,,,,,,0,165,165,59,1
,,,,,,,,,,,,,,,,,199111,18,2022-01-29_05h02.18.618,lexical_decision_task_DD_L2,2021.2.3,MacIntel,47.95243119,,,,,,,,,,,0.6517,1,,,,,,,,,,,,,,,,,,,,,,,,-0.046806279,-0.375499132,0,0,0,,,,,,,WRIST,LB,m,y,./images/WRISTLB.png,,,,,,,,m,1,0.6517,,,,,,,,0,166,166,25,1
,,,,,,,,,,,,,,,,,199111,18,2022-01-29_05h02.18.618,lexical_decision_task_DD_L2,2021.2.3,MacIntel,47.95243119,,,,,,,,,,,3.7641,1,,,,,,,,,,,,,,,,,,,,,,,,-0.046806279,-0.375499132,0,0,0,,,,,,,CURRY,HB,z,y,./images/CURRYHB.png,,,,,,,,z,1,3.7641,,,,,,,,0,167,167,144,1
