key_resp.keys,instr_done_touch.x,instr_done_touch.y,instr_done_touch.leftButton,instr_done_touch.midButton,instr_done_touch.rightButton,instr_done_touch.clicked_name,instruction_pages.thisRepN,instruction_pages.thisTrialN,instruction_pages.thisN,instruction_pages.thisIndex,instruction_pages.ran,pageN,phase,instruct_text,has_image,instruct_image,participant,age,date,expName,psychopyVersion,OS,frameRate,response.keys,response.corr,response.rt,touch_resp.x,touch_resp.y,touch_resp.leftButton,touch_resp.midButton,touch_resp.rightButton,touch_resp.time,touch_resp.clicked_name,rt,corr,practrials.thisRepN,practrials.thisTrialN,practrials.thisN,practrials.thisIndex,practrials.ran,TrialID,Target,corrAns,end_of_practice_trials_pages.thisRepN,end_of_practice_trials_pages.thisTrialN,end_of_practice_trials_pages.thisN,end_of_practice_trials_pages.thisIndex,end_of_practice_trials_pages.ran,key_resp_2.keys,key_resp_2.corr,key_resp_2.rt,targ_click.x,targ_click.y,targ_click.leftButton,targ_click.midButton,targ_click.rightButton,targ_click.time,targ_click.clicked_name,break_done_touch.x,break_done_touch.y,break_done_touch.leftButton,break_done_touch.midButton,break_done_touch.rightButton,break_done_keyboard.keys,maintrials.thisRepN,maintrials.thisTrialN,maintrials.thisN,maintrials.thisIndex,maintrials.ran,string,blur,study,lex,stim_path,break_done_touch.clicked_name,test_instructions.thisRepN,test_instructions.thisTrialN,test_instructions.thisN,test_instructions.thisIndex,test_instructions.ran,key_resp_3.keys,key_resp_3.corr,key_resp_3.rt,test_click.x,test_click.y,test_click.leftButton,test_click.midButton,test_click.rightButton,test_click.time,test_click.clicked_name,test_phase.thisRepN,test_phase.thisTrialN,test_phase.thisN,test_phase.thisIndex,test_phase.ran
,-0.053107639,-0.409053819,1,0,0,instr_done_button,0,0,0,0,1,1,instructions,"INSTRUCTIONS
At the start of each trial, look at the plus sign  (+) in the center of the screen.  This tells you that a trial is about to begin and where to look. Second, the plus sign will disappear and a string of letters will appear. Your task is to determine if the string of letters is a word or not. If the item is a word press the M key (on keyboard)  or touch the word button (phone/tablet).  If the item is not a word,  press the  Z key (on keyboard)  or touch the nonword button (on phone/tablet). 
Press the space bar or touch  continue.",0,,199120,18,2022-01-25_21h35.23.007,lexical_decision_task_DD_L6,2021.2.3,MacIntel,60.0024001,,,,,,,,,,,,,,,,,,,,,,,,,,,,,,,,,,,,,,,,,,,,,,,,,,,,,,,,,,,,,,,,,,,,,,,,
,-0.017790799,-0.395143229,1,0,0,instr_done_button,0,1,1,1,1,2,instructions,"If your device has a keyboard, press the 'Z' key for nonwords and the 'M' key for words.





Press the space bar or touch the button below to continue.",0,keyboard-example.gif,199120,18,2022-01-25_21h35.23.007,lexical_decision_task_DD_L6,2021.2.3,MacIntel,60.0024001,,,,,,,,,,,,,,,,,,,,,,,,,,,,,,,,,,,,,,,,,,,,,,,,,,,,,,,,,,,,,,,,,,,,,,,,
,-0.028680556,-0.410690104,1,0,0,instr_done_button,0,2,2,2,1,3,instructions,"If you are using a touchscreen only device, use the buttons on the screen. Do not use the mouse.





Press the space bar or touch the button below to continue.",0,touchscreen-example.gif,199120,18,2022-01-25_21h35.23.007,lexical_decision_task_DD_L6,2021.2.3,MacIntel,60.0024001,,,,,,,,,,,,,,,,,,,,,,,,,,,,,,,,,,,,,,,,,,,,,,,,,,,,,,,,,,,,,,,,,,,,,,,,
,-0.024092882,-0.404131944,1,0,0,instr_done_button,0,3,3,3,1,4,instructions,"It is very important that you respond as quickly and accurately as possible, as each letter string will only be on the screen for two seconds. If you do not respond within this time, the message 'Too slow!' will be displayed and the experiment will progress to the next letter string. The first 20 trials will be practice trials and you will receive feedback on your answers. 

Press the space bar or touch the button below to start the practice trials.",0,,199120,18,2022-01-25_21h35.23.007,lexical_decision_task_DD_L6,2021.2.3,MacIntel,60.0024001,,,,,,,,,,,,,,,,,,,,,,,,,,,,,,,,,,,,,,,,,,,,,,,,,,,,,,,,,,,,,,,,,,,,,,,,
,,,,,,,,,,,,,,,,,199120,18,2022-01-25_21h35.23.007,lexical_decision_task_DD_L6,2021.2.3,MacIntel,60.0024001,m,1,2.0812,,,,,,,,2.0812,1,0,0,0,3,1,1001,MATRIX,m,,,,,,,,,,,,,,,,,,,,,,,,,,,,,,,,,,,,,,,,,,,,,,,,,,,,
,,,,,,,,,,,,,,,,,199120,18,2022-01-25_21h35.23.007,lexical_decision_task_DD_L6,2021.2.3,MacIntel,60.0024001,m,1,1.0342,,,,,,,,1.0342,1,0,1,1,2,1,1001,ALMOND,m,,,,,,,,,,,,,,,,,,,,,,,,,,,,,,,,,,,,,,,,,,,,,,,,,,,,
,,,,,,,,,,,,,,,,,199120,18,2022-01-25_21h35.23.007,lexical_decision_task_DD_L6,2021.2.3,MacIntel,60.0024001,z,1,1.1261,,,,,,,,1.1261,1,0,2,2,11,1,1001,RASHET,z,,,,,,,,,,,,,,,,,,,,,,,,,,,,,,,,,,,,,,,,,,,,,,,,,,,,
,,,,,,,,,,,,,,,,,199120,18,2022-01-25_21h35.23.007,lexical_decision_task_DD_L6,2021.2.3,MacIntel,60.0024001,z,1,0.9824,,,,,,,,0.9824,1,0,3,3,15,1,1001,WHAISE,z,,,,,,,,,,,,,,,,,,,,,,,,,,,,,,,,,,,,,,,,,,,,,,,,,,,,
,,,,,,,,,,,,,,,,,199120,18,2022-01-25_21h35.23.007,lexical_decision_task_DD_L6,2021.2.3,MacIntel,60.0024001,m,1,0.7577,,,,,,,,0.7577,1,0,4,4,7,1,1001,VOLUME,m,,,,,,,,,,,,,,,,,,,,,,,,,,,,,,,,,,,,,,,,,,,,,,,,,,,,
,,,,,,,,,,,,,,,,,199120,18,2022-01-25_21h35.23.007,lexical_decision_task_DD_L6,2021.2.3,MacIntel,60.0024001,z,1,0.9035,,,,,,,,0.9035,1,0,5,5,12,1,1001,SPRINY,z,,,,,,,,,,,,,,,,,,,,,,,,,,,,,,,,,,,,,,,,,,,,,,,,,,,,
,,,,,,,,,,,,,,,,,199120,18,2022-01-25_21h35.23.007,lexical_decision_task_DD_L6,2021.2.3,MacIntel,60.0024001,z,1,1.3628,,,,,,,,1.3628,1,0,6,6,10,1,1001,INLADE,z,,,,,,,,,,,,,,,,,,,,,,,,,,,,,,,,,,,,,,,,,,,,,,,,,,,,
,,,,,,,,,,,,,,,,,199120,18,2022-01-25_21h35.23.007,lexical_decision_task_DD_L6,2021.2.3,MacIntel,60.0024001,z,1,1.6382,,,,,,,,1.6382,1,0,7,7,9,1,1001,FARINY,z,,,,,,,,,,,,,,,,,,,,,,,,,,,,,,,,,,,,,,,,,,,,,,,,,,,,
,,,,,,,,,,,,,,,,,199120,18,2022-01-25_21h35.23.007,lexical_decision_task_DD_L6,2021.2.3,MacIntel,60.0024001,z,1,1.0328,,,,,,,,1.0328,1,0,8,8,13,1,1001,ROUPET,z,,,,,,,,,,,,,,,,,,,,,,,,,,,,,,,,,,,,,,,,,,,,,,,,,,,,
,,,,,,,,,,,,,,,,,199120,18,2022-01-25_21h35.23.007,lexical_decision_task_DD_L6,2021.2.3,MacIntel,60.0024001,m,1,0.7444,,,,,,,,0.7444,1,0,9,9,6,1,1001,ZOMBIE,m,,,,,,,,,,,,,,,,,,,,,,,,,,,,,,,,,,,,,,,,,,,,,,,,,,,,
,,,,,,,,,,,,,,,,,199120,18,2022-01-25_21h35.23.007,lexical_decision_task_DD_L6,2021.2.3,MacIntel,60.0024001,m,1,0.7247,,,,,,,,0.7247,1,0,10,10,4,1,1001,SQUEAK,m,,,,,,,,,,,,,,,,,,,,,,,,,,,,,,,,,,,,,,,,,,,,,,,,,,,,
,,,,,,,,,,,,,,,,,199120,18,2022-01-25_21h35.23.007,lexical_decision_task_DD_L6,2021.2.3,MacIntel,60.0024001,m,1,1.0045,,,,,,,,1.0045,1,0,11,11,0,1,1001,UTOPIA,m,,,,,,,,,,,,,,,,,,,,,,,,,,,,,,,,,,,,,,,,,,,,,,,,,,,,
,,,,,,,,,,,,,,,,,199120,18,2022-01-25_21h35.23.007,lexical_decision_task_DD_L6,2021.2.3,MacIntel,60.0024001,z,1,0.95,,,,,,,,0.95,1,0,12,12,8,1,1001,ASLERT,z,,,,,,,,,,,,,,,,,,,,,,,,,,,,,,,,,,,,,,,,,,,,,,,,,,,,
,,,,,,,,,,,,,,,,,199120,18,2022-01-25_21h35.23.007,lexical_decision_task_DD_L6,2021.2.3,MacIntel,60.0024001,m,1,0.9764,,,,,,,,0.9764,1,0,13,13,5,1,1001,OBTAIN,m,,,,,,,,,,,,,,,,,,,,,,,,,,,,,,,,,,,,,,,,,,,,,,,,,,,,
,,,,,,,,,,,,,,,,,199120,18,2022-01-25_21h35.23.007,lexical_decision_task_DD_L6,2021.2.3,MacIntel,60.0024001,m,1,0.8878,,,,,,,,0.8878,1,0,14,14,1,1,1001,ADJUST,m,,,,,,,,,,,,,,,,,,,,,,,,,,,,,,,,,,,,,,,,,,,,,,,,,,,,
,,,,,,,,,,,,,,,,,199120,18,2022-01-25_21h35.23.007,lexical_decision_task_DD_L6,2021.2.3,MacIntel,60.0024001,z,1,0.8291,,,,,,,,0.8291,1,0,15,15,14,1,1001,THRALE,z,,,,,,,,,,,,,,,,,,,,,,,,,,,,,,,,,,,,,,,,,,,,,,,,,,,,
,0.02609375,-0.415338542,1,0,0,instr_done_button,,,,,,1,end_of_practice,"You have completed the practice trials. During the experimental trials, you will not receive feedback. 
Before you begin, please ensure that you are in a comfortable and quiet location and will not be disturbed for about 15 minutes, as we cannot use your data if you do not complete all the trials. 
 When you are ready to start the experimental trials, please press space or touch the button below.",,,199120,18,2022-01-25_21h35.23.007,lexical_decision_task_DD_L6,2021.2.3,MacIntel,60.0024001,,,,,,,,,,,,,,,,,,,,,0,0,0,0,1,,,,,,,,,,,,,,,,,,,,,,,,,,,,,,,,,,,,,,,,,,,,,,,
,,,,,,,,,,,,,,,,,199120,18,2022-01-25_21h35.23.007,lexical_decision_task_DD_L6,2021.2.3,MacIntel,60.0024001,,,,,,,,,,,0.825,0,,,,,,,,,,,,,,z,0,0.825,,,,,,,,0.02609375,-0.415338542,0,0,0,,0,0,0,150,1,NOOLS,C,old,n,./images/NOOLS.png,,,,,,,,,,,,,,,,,,,,,
,,,,,,,,,,,,,,,,,199120,18,2022-01-25_21h35.23.007,lexical_decision_task_DD_L6,2021.2.3,MacIntel,60.0024001,,,,,,,,,,,3.3853,0,,,,,,,,,,,,,,z,0,3.3853,,,,,,,,0.02609375,-0.415338542,0,0,0,,0,1,1,91,1,SHENS,HB,old,n,./images/SHENSHB.png,,,,,,,,,,,,,,,,,,,,,
,,,,,,,,,,,,,,,,,199120,18,2022-01-25_21h35.23.007,lexical_decision_task_DD_L6,2021.2.3,MacIntel,60.0024001,,,,,,,,,,,0.8722,0,,,,,,,,,,,,,,m,0,0.8722,,,,,,,,0.02609375,-0.415338542,0,0,0,,0,2,2,143,1,MONGS,LB,old,n,./images/MONGSLB.png,,,,,,,,,,,,,,,,,,,,,
,,,,,,,,,,,,,,,,,199120,18,2022-01-25_21h35.23.007,lexical_decision_task_DD_L6,2021.2.3,MacIntel,60.0024001,,,,,,,,,,,0.914,0,,,,,,,,,,,,,,m,0,0.914,,,,,,,,0.02609375,-0.415338542,0,0,0,,0,3,3,48,1,SHIELD,LB,old,y,./images/SHIELDLB.png,,,,,,,,,,,,,,,,,,,,,
,,,,,,,,,,,,,,,,,199120,18,2022-01-25_21h35.23.007,lexical_decision_task_DD_L6,2021.2.3,MacIntel,60.0024001,,,,,,,,,,,1.7963,0,,,,,,,,,,,,,,z,0,1.7963,,,,,,,,0.02609375,-0.415338542,0,0,0,,0,4,4,110,1,CRUNK,LB,old,n,./images/CRUNKLB.png,,,,,,,,,,,,,,,,,,,,,
,,,,,,,,,,,,,,,,,199120,18,2022-01-25_21h35.23.007,lexical_decision_task_DD_L6,2021.2.3,MacIntel,60.0024001,,,,,,,,,,,1.3618,0,,,,,,,,,,,,,,m,0,1.3618,,,,,,,,0.02609375,-0.415338542,0,0,0,,0,5,5,47,1,LAGOON,HB,old,y,./images/LAGOONHB.png,,,,,,,,,,,,,,,,,,,,,
,,,,,,,,,,,,,,,,,199120,18,2022-01-25_21h35.23.007,lexical_decision_task_DD_L6,2021.2.3,MacIntel,60.0024001,,,,,,,,,,,1.8797,0,,,,,,,,,,,,,,m,0,1.8797,,,,,,,,0.02609375,-0.415338542,0,0,0,,0,6,6,41,1,STREAM,HB,old,y,./images/STREAMHB.png,,,,,,,,,,,,,,,,,,,,,
,,,,,,,,,,,,,,,,,199120,18,2022-01-25_21h35.23.007,lexical_decision_task_DD_L6,2021.2.3,MacIntel,60.0024001,,,,,,,,,,,1.0475,0,,,,,,,,,,,,,,m,0,1.0475,,,,,,,,0.02609375,-0.415338542,0,0,0,,0,7,7,66,1,STATUE,LB,old,y,./images/STATUELB.png,,,,,,,,,,,,,,,,,,,,,
,,,,,,,,,,,,,,,,,199120,18,2022-01-25_21h35.23.007,lexical_decision_task_DD_L6,2021.2.3,MacIntel,60.0024001,,,,,,,,,,,1.6196,0,,,,,,,,,,,,,,m,0,1.6196,,,,,,,,0.02609375,-0.415338542,0,0,0,,0,8,8,2,1,STOVE,HB,old,y,./images/STOVEHB.png,,,,,,,,,,,,,,,,,,,,,
,,,,,,,,,,,,,,,,,199120,18,2022-01-25_21h35.23.007,lexical_decision_task_DD_L6,2021.2.3,MacIntel,60.0024001,,,,,,,,,,,1.1313,0,,,,,,,,,,,,,,m,0,1.1313,,,,,,,,0.02609375,-0.415338542,0,0,0,,0,9,9,18,1,PARCEL,LB,old,y,./images/PARCELLB.png,,,,,,,,,,,,,,,,,,,,,
,,,,,,,,,,,,,,,,,199120,18,2022-01-25_21h35.23.007,lexical_decision_task_DD_L6,2021.2.3,MacIntel,60.0024001,,,,,,,,,,,1.0378,0,,,,,,,,,,,,,,z,0,1.0378,,,,,,,,0.02609375,-0.415338542,0,0,0,,0,10,10,113,1,LINEW,LB,old,n,./images/LINEWLB.png,,,,,,,,,,,,,,,,,,,,,
,,,,,,,,,,,,,,,,,199120,18,2022-01-25_21h35.23.007,lexical_decision_task_DD_L6,2021.2.3,MacIntel,60.0024001,,,,,,,,,,,1.6061,0,,,,,,,,,,,,,,m,0,1.6061,,,,,,,,0.02609375,-0.415338542,0,0,0,,0,11,11,56,1,HEATER,HB,old,y,./images/HEATERHB.png,,,,,,,,,,,,,,,,,,,,,
,,,,,,,,,,,,,,,,,199120,18,2022-01-25_21h35.23.007,lexical_decision_task_DD_L6,2021.2.3,MacIntel,60.0024001,,,,,,,,,,,3.4315,0,,,,,,,,,,,,,,z,0,3.4315,,,,,,,,0.02609375,-0.415338542,0,0,0,,0,12,12,130,1,CRILL,HB,old,n,./images/CRILLHB.png,,,,,,,,,,,,,,,,,,,,,
,,,,,,,,,,,,,,,,,199120,18,2022-01-25_21h35.23.007,lexical_decision_task_DD_L6,2021.2.3,MacIntel,60.0024001,,,,,,,,,,,0.7711,0,,,,,,,,,,,,,,m,0,0.7711,,,,,,,,0.02609375,-0.415338542,0,0,0,,0,13,13,19,1,DONKEY,C,old,y,./images/DONKEY.png,,,,,,,,,,,,,,,,,,,,,
,,,,,,,,,,,,,,,,,199120,18,2022-01-25_21h35.23.007,lexical_decision_task_DD_L6,2021.2.3,MacIntel,60.0024001,,,,,,,,,,,1.7353,0,,,,,,,,,,,,,,z,0,1.7353,,,,,,,,0.02609375,-0.415338542,0,0,0,,0,14,14,146,1,MOOST,LB,old,n,./images/MOOSTLB.png,,,,,,,,,,,,,,,,,,,,,
,,,,,,,,,,,,,,,,,199120,18,2022-01-25_21h35.23.007,lexical_decision_task_DD_L6,2021.2.3,MacIntel,60.0024001,,,,,,,,,,,2.3809,0,,,,,,,,,,,,,,z,0,2.3809,,,,,,,,0.02609375,-0.415338542,0,0,0,,0,15,15,160,1,VEETS,HB,old,n,./images/VEETSHB.png,,,,,,,,,,,,,,,,,,,,,
,,,,,,,,,,,,,,,,,199120,18,2022-01-25_21h35.23.007,lexical_decision_task_DD_L6,2021.2.3,MacIntel,60.0024001,,,,,,,,,,,1.4386,0,,,,,,,,,,,,,,z,0,1.4386,,,,,,,,0.02609375,-0.415338542,0,0,0,,0,16,16,131,1,NACES,LB,old,n,./images/NACESLB.png,,,,,,,,,,,,,,,,,,,,,
,,,,,,,,,,,,,,,,,199120,18,2022-01-25_21h35.23.007,lexical_decision_task_DD_L6,2021.2.3,MacIntel,60.0024001,,,,,,,,,,,0.9854,0,,,,,,,,,,,,,,m,0,0.9854,,,,,,,,0.02609375,-0.415338542,0,0,0,,0,17,17,76,1,MIDGET,C,old,y,./images/MIDGET.png,,,,,,,,,,,,,,,,,,,,,
,,,,,,,,,,,,,,,,,199120,18,2022-01-25_21h35.23.007,lexical_decision_task_DD_L6,2021.2.3,MacIntel,60.0024001,,,,,,,,,,,2.9573,0,,,,,,,,,,,,,,m,0,2.9573,,,,,,,,0.02609375,-0.415338542,0,0,0,,0,18,18,35,1,LLAMA,HB,old,y,./images/LLAMAHB.png,,,,,,,,,,,,,,,,,,,,,
,,,,,,,,,,,,,,,,,199120,18,2022-01-25_21h35.23.007,lexical_decision_task_DD_L6,2021.2.3,MacIntel,60.0024001,,,,,,,,,,,2.012,0,,,,,,,,,,,,,,z,0,2.012,,,,,,,,0.02609375,-0.415338542,0,0,0,,0,19,19,100,1,DRIBS,HB,old,n,./images/DRIBSHB.png,,,,,,,,,,,,,,,,,,,,,
,,,,,,,,,,,,,,,,,199120,18,2022-01-25_21h35.23.007,lexical_decision_task_DD_L6,2021.2.3,MacIntel,60.0024001,,,,,,,,,,,0.6979,0,,,,,,,,,,,,,,m,0,0.6979,,,,,,,,0.02609375,-0.415338542,0,0,0,,0,20,20,0,1,WALNUT,LB,old,y,./images/WALNUTLB.png,,,,,,,,,,,,,,,,,,,,,
,,,,,,,,,,,,,,,,,199120,18,2022-01-25_21h35.23.007,lexical_decision_task_DD_L6,2021.2.3,MacIntel,60.0024001,,,,,,,,,,,1.7071,0,,,,,,,,,,,,,,z,0,1.7071,,,,,,,,0.02609375,-0.415338542,0,0,0,,0,21,21,132,1,SCIFF,C,old,n,./images/SCIFF.png,,,,,,,,,,,,,,,,,,,,,
,,,,,,,,,,,,,,,,,199120,18,2022-01-25_21h35.23.007,lexical_decision_task_DD_L6,2021.2.3,MacIntel,60.0024001,,,,,,,,,,,0.7209,0,,,,,,,,,,,,,,m,0,0.7209,,,,,,,,0.02609375,-0.415338542,0,0,0,,0,22,22,75,1,HAMMER,LB,old,y,./images/HAMMERLB.png,,,,,,,,,,,,,,,,,,,,,
,,,,,,,,,,,,,,,,,199120,18,2022-01-25_21h35.23.007,lexical_decision_task_DD_L6,2021.2.3,MacIntel,60.0024001,,,,,,,,,,,0.7641,0,,,,,,,,,,,,,,m,0,0.7641,,,,,,,,0.02609375,-0.415338542,0,0,0,,0,23,23,25,1,CHALK,C,old,y,./images/CHALK.png,,,,,,,,,,,,,,,,,,,,,
,,,,,,,,,,,,,,,,,199120,18,2022-01-25_21h35.23.007,lexical_decision_task_DD_L6,2021.2.3,MacIntel,60.0024001,,,,,,,,,,,0.7154,0,,,,,,,,,,,,,,m,0,0.7154,,,,,,,,0.02609375,-0.415338542,0,0,0,,0,24,24,22,1,CLOWN,C,old,y,./images/CLOWN.png,,,,,,,,,,,,,,,,,,,,,
,,,,,,,,,,,,,,,,,199120,18,2022-01-25_21h35.23.007,lexical_decision_task_DD_L6,2021.2.3,MacIntel,60.0024001,,,,,,,,,,,0.7819,0,,,,,,,,,,,,,,m,0,0.7819,,,,,,,,0.02609375,-0.415338542,0,0,0,,0,25,25,51,1,SAUCE,LB,old,y,./images/SAUCELB.png,,,,,,,,,,,,,,,,,,,,,
,,,,,,,,,,,,,,,,,199120,18,2022-01-25_21h35.23.007,lexical_decision_task_DD_L6,2021.2.3,MacIntel,60.0024001,,,,,,,,,,,1.112,0,,,,,,,,,,,,,,z,0,1.112,,,,,,,,0.02609375,-0.415338542,0,0,0,,0,26,26,126,1,GUELS,C,old,n,./images/GUELS.png,,,,,,,,,,,,,,,,,,,,,
,,,,,,,,,,,,,,,,,199120,18,2022-01-25_21h35.23.007,lexical_decision_task_DD_L6,2021.2.3,MacIntel,60.0024001,,,,,,,,,,,1.0801,0,,,,,,,,,,,,,,m,0,1.0801,,,,,,,,0.02609375,-0.415338542,0,0,0,,0,27,27,12,1,BLOKE,LB,old,y,./images/BLOKELB.png,,,,,,,,,,,,,,,,,,,,,
,,,,,,,,,,,,,,,,,199120,18,2022-01-25_21h35.23.007,lexical_decision_task_DD_L6,2021.2.3,MacIntel,60.0024001,,,,,,,,,,,2.2612,0,,,,,,,,,,,,,,z,0,2.2612,,,,,,,,0.02609375,-0.415338542,0,0,0,,0,28,28,148,1,JOMS,HB,old,n,./images/JOMSHB.png,,,,,,,,,,,,,,,,,,,,,
,,,,,,,,,,,,,,,,,199120,18,2022-01-25_21h35.23.007,lexical_decision_task_DD_L6,2021.2.3,MacIntel,60.0024001,,,,,,,,,,,1.0953,0,,,,,,,,,,,,,,z,0,1.0953,,,,,,,,0.02609375,-0.415338542,0,0,0,,0,29,29,129,1,PRANS,C,old,n,./images/PRANS.png,,,,,,,,,,,,,,,,,,,,,
,,,,,,,,,,,,,,,,,199120,18,2022-01-25_21h35.23.007,lexical_decision_task_DD_L6,2021.2.3,MacIntel,60.0024001,,,,,,,,,,,1.2706,0,,,,,,,,,,,,,,z,0,1.2706,,,,,,,,0.02609375,-0.415338542,0,0,0,,0,30,30,149,1,VEASE,LB,old,n,./images/VEASELB.png,,,,,,,,,,,,,,,,,,,,,
,,,,,,,,,,,,,,,,,199120,18,2022-01-25_21h35.23.007,lexical_decision_task_DD_L6,2021.2.3,MacIntel,60.0024001,,,,,,,,,,,0.7725,0,,,,,,,,,,,,,,m,0,0.7725,,,,,,,,0.02609375,-0.415338542,0,0,0,,0,31,31,90,1,NEAST,C,old,n,./images/NEAST.png,,,,,,,,,,,,,,,,,,,,,
,,,,,,,,,,,,,,,,,199120,18,2022-01-25_21h35.23.007,lexical_decision_task_DD_L6,2021.2.3,MacIntel,60.0024001,,,,,,,,,,,1.361,0,,,,,,,,,,,,,,z,0,1.361,,,,,,,,0.02609375,-0.415338542,0,0,0,,0,32,32,93,1,SMONE,C,old,n,./images/SMONE.png,,,,,,,,,,,,,,,,,,,,,
,,,,,,,,,,,,,,,,,199120,18,2022-01-25_21h35.23.007,lexical_decision_task_DD_L6,2021.2.3,MacIntel,60.0024001,,,,,,,,,,,2.0705,0,,,,,,,,,,,,,,z,0,2.0705,,,,,,,,0.02609375,-0.415338542,0,0,0,,0,33,33,107,1,FASKS,LB,old,n,./images/FASKSLB.png,,,,,,,,,,,,,,,,,,,,,
,,,,,,,,,,,,,,,,,199120,18,2022-01-25_21h35.23.007,lexical_decision_task_DD_L6,2021.2.3,MacIntel,60.0024001,,,,,,,,,,,0.7374,0,,,,,,,,,,,,,,m,0,0.7374,,,,,,,,0.02609375,-0.415338542,0,0,0,,0,34,34,79,1,RULER,C,old,y,./images/RULER.png,,,,,,,,,,,,,,,,,,,,,
,,,,,,,,,,,,,,,,,199120,18,2022-01-25_21h35.23.007,lexical_decision_task_DD_L6,2021.2.3,MacIntel,60.0024001,,,,,,,,,,,0.8569,0,,,,,,,,,,,,,,m,0,0.8569,,,,,,,,0.02609375,-0.415338542,0,0,0,,0,35,35,36,1,BOILER,LB,old,y,./images/BOILERLB.png,,,,,,,,,,,,,,,,,,,,,
,,,,,,,,,,,,,,,,,199120,18,2022-01-25_21h35.23.007,lexical_decision_task_DD_L6,2021.2.3,MacIntel,60.0024001,,,,,,,,,,,2.3317,0,,,,,,,,,,,,,,z,0,2.3317,,,,,,,,0.02609375,-0.415338542,0,0,0,,0,36,36,133,1,POWDY,HB,old,n,./images/POWDYHB.png,,,,,,,,,,,,,,,,,,,,,
,,,,,,,,,,,,,,,,,199120,18,2022-01-25_21h35.23.007,lexical_decision_task_DD_L6,2021.2.3,MacIntel,60.0024001,,,,,,,,,,,1.1788,0,,,,,,,,,,,,,,m,0,1.1788,,,,,,,,0.02609375,-0.415338542,0,0,0,,0,37,37,141,1,PLEET,C,old,n,./images/PLEET.png,,,,,,,,,,,,,,,,,,,,,
,,,,,,,,,,,,,,,,,199120,18,2022-01-25_21h35.23.007,lexical_decision_task_DD_L6,2021.2.3,MacIntel,60.0024001,,,,,,,,,,,2.5771,0,,,,,,,,,,,,,,m,0,2.5771,,,,,,,,0.02609375,-0.415338542,0,0,0,,0,38,38,163,1,GAMBA,HB,old,n,./images/GAMBAHB.png,,,,,,,,,,,,,,,,,,,,,
,,,,,,,,,,,,,,,,,199120,18,2022-01-25_21h35.23.007,lexical_decision_task_DD_L6,2021.2.3,MacIntel,60.0024001,,,,,,,,,,,0.6791,0,,,,,,,,,,,,,,m,0,0.6791,,,,,,,,0.02609375,-0.415338542,0,0,0,,0,39,39,73,1,GLOVE,C,old,y,./images/GLOVE.png,,,,,,,,,,,,,,,,,,,,,
,,,,,,,,,,,,,,,,,199120,18,2022-01-25_21h35.23.007,lexical_decision_task_DD_L6,2021.2.3,MacIntel,60.0024001,,,,,,,,,,,1.4213,0,,,,,,,,,,,,,,z,0,1.4213,,,,,,,,0.02609375,-0.415338542,0,0,0,,0,40,40,162,1,LEICH,C,old,n,./images/LEICH.png,,,,,,,,,,,,,,,,,,,,,
,,,,,,,,,,,,,,,,,199120,18,2022-01-25_21h35.23.007,lexical_decision_task_DD_L6,2021.2.3,MacIntel,60.0024001,,,,,,,,,,,1.3631,0,,,,,,,,,,,,,,z,0,1.3631,,,,,,,,0.039435764,-0.401514757,1,0,0,,0,41,41,87,1,TRING,C,old,n,./images/TRING.png,break_done_button,,,,,,,,,,,,,,,,,,,,
,,,,,,,,,,,,,,,,,199120,18,2022-01-25_21h35.23.007,lexical_decision_task_DD_L6,2021.2.3,MacIntel,60.0024001,,,,,,,,,,,1.7415,0,,,,,,,,,,,,,,z,0,1.7415,,,,,,,,0.039435764,-0.401514757,0,0,0,,0,42,42,164,1,SGREW,LB,old,n,./images/SGREWLB.png,,,,,,,,,,,,,,,,,,,,,
,,,,,,,,,,,,,,,,,199120,18,2022-01-25_21h35.23.007,lexical_decision_task_DD_L6,2021.2.3,MacIntel,60.0024001,,,,,,,,,,,1.5651,0,,,,,,,,,,,,,,m,0,1.5651,,,,,,,,0.039435764,-0.401514757,0,0,0,,0,43,43,45,1,MONKEY,LB,old,y,./images/MONKEYLB.png,,,,,,,,,,,,,,,,,,,,,
,,,,,,,,,,,,,,,,,199120,18,2022-01-25_21h35.23.007,lexical_decision_task_DD_L6,2021.2.3,MacIntel,60.0024001,,,,,,,,,,,0.936,0,,,,,,,,,,,,,,m,0,0.936,,,,,,,,0.039435764,-0.401514757,0,0,0,,0,44,44,15,1,COLLAR,LB,old,y,./images/COLLARLB.png,,,,,,,,,,,,,,,,,,,,,
,,,,,,,,,,,,,,,,,199120,18,2022-01-25_21h35.23.007,lexical_decision_task_DD_L6,2021.2.3,MacIntel,60.0024001,,,,,,,,,,,1.4817,0,,,,,,,,,,,,,,m,0,1.4817,,,,,,,,0.039435764,-0.401514757,0,0,0,,0,45,45,83,1,WHISKY,HB,old,y,./images/WHISKYHB.png,,,,,,,,,,,,,,,,,,,,,
,,,,,,,,,,,,,,,,,199120,18,2022-01-25_21h35.23.007,lexical_decision_task_DD_L6,2021.2.3,MacIntel,60.0024001,,,,,,,,,,,1.2017,0,,,,,,,,,,,,,,m,0,1.2017,,,,,,,,0.039435764,-0.401514757,0,0,0,,0,46,46,44,1,BASKET,HB,old,y,./images/BASKETHB.png,,,,,,,,,,,,,,,,,,,,,
,,,,,,,,,,,,,,,,,199120,18,2022-01-25_21h35.23.007,lexical_decision_task_DD_L6,2021.2.3,MacIntel,60.0024001,,,,,,,,,,,0.8373,0,,,,,,,,,,,,,,m,0,0.8373,,,,,,,,0.039435764,-0.401514757,0,0,0,,0,47,47,24,1,FLESH,LB,old,y,./images/FLESHLB.png,,,,,,,,,,,,,,,,,,,,,
,,,,,,,,,,,,,,,,,199120,18,2022-01-25_21h35.23.007,lexical_decision_task_DD_L6,2021.2.3,MacIntel,60.0024001,,,,,,,,,,,2.7629,0,,,,,,,,,,,,,,z,0,2.7629,,,,,,,,0.039435764,-0.401514757,0,0,0,,0,48,48,127,1,NINDY,HB,old,n,./images/NINDYHB.png,,,,,,,,,,,,,,,,,,,,,
,,,,,,,,,,,,,,,,,199120,18,2022-01-25_21h35.23.007,lexical_decision_task_DD_L6,2021.2.3,MacIntel,60.0024001,,,,,,,,,,,1.5635,0,,,,,,,,,,,,,,z,0,1.5635,,,,,,,,0.039435764,-0.401514757,0,0,0,,0,49,49,140,1,DOVET,LB,old,n,./images/DOVETLB.png,,,,,,,,,,,,,,,,,,,,,
,,,,,,,,,,,,,,,,,199120,18,2022-01-25_21h35.23.007,lexical_decision_task_DD_L6,2021.2.3,MacIntel,60.0024001,,,,,,,,,,,1.3461,0,,,,,,,,,,,,,,m,0,1.3461,,,,,,,,0.039435764,-0.401514757,0,0,0,,0,50,50,32,1,HOCKEY,HB,old,y,./images/HOCKEYHB.png,,,,,,,,,,,,,,,,,,,,,
,,,,,,,,,,,,,,,,,199120,18,2022-01-25_21h35.23.007,lexical_decision_task_DD_L6,2021.2.3,MacIntel,60.0024001,,,,,,,,,,,2.8874,0,,,,,,,,,,,,,,z,0,2.8874,,,,,,,,0.039435764,-0.401514757,0,0,0,,0,51,51,118,1,BAVEL,HB,old,n,./images/BAVELHB.png,,,,,,,,,,,,,,,,,,,,,
,,,,,,,,,,,,,,,,,199120,18,2022-01-25_21h35.23.007,lexical_decision_task_DD_L6,2021.2.3,MacIntel,60.0024001,,,,,,,,,,,0.9434,0,,,,,,,,,,,,,,m,0,0.9434,,,,,,,,0.039435764,-0.401514757,0,0,0,,0,52,52,7,1,WAGON,C,old,y,./images/WAGON.png,,,,,,,,,,,,,,,,,,,,,
,,,,,,,,,,,,,,,,,199120,18,2022-01-25_21h35.23.007,lexical_decision_task_DD_L6,2021.2.3,MacIntel,60.0024001,,,,,,,,,,,2.5268,0,,,,,,,,,,,,,,z,0,2.5268,,,,,,,,0.039435764,-0.401514757,0,0,0,,0,53,53,154,1,THINT,HB,old,n,./images/THINTHB.png,,,,,,,,,,,,,,,,,,,,,
,,,,,,,,,,,,,,,,,199120,18,2022-01-25_21h35.23.007,lexical_decision_task_DD_L6,2021.2.3,MacIntel,60.0024001,,,,,,,,,,,0.8045,0,,,,,,,,,,,,,,m,0,0.8045,,,,,,,,0.039435764,-0.401514757,0,0,0,,0,54,54,58,1,CANOE,C,old,y,./images/CANOE.png,,,,,,,,,,,,,,,,,,,,,
,,,,,,,,,,,,,,,,,199120,18,2022-01-25_21h35.23.007,lexical_decision_task_DD_L6,2021.2.3,MacIntel,60.0024001,,,,,,,,,,,0.6804,0,,,,,,,,,,,,,,m,0,0.6804,,,,,,,,0.039435764,-0.401514757,0,0,0,,0,55,55,1,1,TOWEL,C,old,y,./images/TOWEL.png,,,,,,,,,,,,,,,,,,,,,
,,,,,,,,,,,,,,,,,199120,18,2022-01-25_21h35.23.007,lexical_decision_task_DD_L6,2021.2.3,MacIntel,60.0024001,,,,,,,,,,,4.3626,0,,,,,,,,,,,,,,z,0,4.3626,,,,,,,,0.039435764,-0.401514757,0,0,0,,0,56,56,109,1,BURGE,HB,old,n,./images/BURGEHB.png,,,,,,,,,,,,,,,,,,,,,
,,,,,,,,,,,,,,,,,199120,18,2022-01-25_21h35.23.007,lexical_decision_task_DD_L6,2021.2.3,MacIntel,60.0024001,,,,,,,,,,,3.4916,0,,,,,,,,,,,,,,z,0,3.4916,,,,,,,,0.039435764,-0.401514757,0,0,0,,0,57,57,115,1,MAWNS,HB,old,n,./images/MAWNSHB.png,,,,,,,,,,,,,,,,,,,,,
,,,,,,,,,,,,,,,,,199120,18,2022-01-25_21h35.23.007,lexical_decision_task_DD_L6,2021.2.3,MacIntel,60.0024001,,,,,,,,,,,0.8018,0,,,,,,,,,,,,,,m,0,0.8018,,,,,,,,0.039435764,-0.401514757,0,0,0,,0,58,58,57,1,FERRY,LB,old,y,./images/FERRYLB.png,,,,,,,,,,,,,,,,,,,,,
,,,,,,,,,,,,,,,,,199120,18,2022-01-25_21h35.23.007,lexical_decision_task_DD_L6,2021.2.3,MacIntel,60.0024001,,,,,,,,,,,0.694,0,,,,,,,,,,,,,,m,0,0.694,,,,,,,,0.039435764,-0.401514757,0,0,0,,0,59,59,39,1,CANDY,LB,old,y,./images/CANDYLB.png,,,,,,,,,,,,,,,,,,,,,
,,,,,,,,,,,,,,,,,199120,18,2022-01-25_21h35.23.007,lexical_decision_task_DD_L6,2021.2.3,MacIntel,60.0024001,,,,,,,,,,,1.0469,0,,,,,,,,,,,,,,z,0,1.0469,,,,,,,,0.039435764,-0.401514757,0,0,0,,0,60,60,116,1,BALGY,LB,old,n,./images/BALGYLB.png,,,,,,,,,,,,,,,,,,,,,
,,,,,,,,,,,,,,,,,199120,18,2022-01-25_21h35.23.007,lexical_decision_task_DD_L6,2021.2.3,MacIntel,60.0024001,,,,,,,,,,,2.3645,0,,,,,,,,,,,,,,z,0,2.3645,,,,,,,,0.039435764,-0.401514757,0,0,0,,0,61,61,166,1,SHORY,HB,old,n,./images/SHORYHB.png,,,,,,,,,,,,,,,,,,,,,
,,,,,,,,,,,,,,,,,199120,18,2022-01-25_21h35.23.007,lexical_decision_task_DD_L6,2021.2.3,MacIntel,60.0024001,,,,,,,,,,,0.8155,0,,,,,,,,,,,,,,m,0,0.8155,,,,,,,,0.039435764,-0.401514757,0,0,0,,0,62,62,62,1,MAMMAL,HB,old,y,./images/MAMMALHB.png,,,,,,,,,,,,,,,,,,,,,
,,,,,,,,,,,,,,,,,199120,18,2022-01-25_21h35.23.007,lexical_decision_task_DD_L6,2021.2.3,MacIntel,60.0024001,,,,,,,,,,,0.5984,0,,,,,,,,,,,,,,m,0,0.5984,,,,,,,,0.039435764,-0.401514757,0,0,0,,0,63,63,54,1,CHERRY,LB,old,y,./images/CHERRYLB.png,,,,,,,,,,,,,,,,,,,,,
,,,,,,,,,,,,,,,,,199120,18,2022-01-25_21h35.23.007,lexical_decision_task_DD_L6,2021.2.3,MacIntel,60.0024001,,,,,,,,,,,1.1885,0,,,,,,,,,,,,,,z,0,1.1885,,,,,,,,0.039435764,-0.401514757,0,0,0,,0,64,64,138,1,PLICE,C,old,n,./images/PLICE.png,,,,,,,,,,,,,,,,,,,,,
,,,,,,,,,,,,,,,,,199120,18,2022-01-25_21h35.23.007,lexical_decision_task_DD_L6,2021.2.3,MacIntel,60.0024001,,,,,,,,,,,1.0525,0,,,,,,,,,,,,,,z,0,1.0525,,,,,,,,0.039435764,-0.401514757,0,0,0,,0,65,65,89,1,DRIEK,LB,old,n,./images/DRIEKLB.png,,,,,,,,,,,,,,,,,,,,,
,,,,,,,,,,,,,,,,,199120,18,2022-01-25_21h35.23.007,lexical_decision_task_DD_L6,2021.2.3,MacIntel,60.0024001,,,,,,,,,,,1.0616,0,,,,,,,,,,,,,,z,0,1.0616,,,,,,,,0.039435764,-0.401514757,0,0,0,,0,66,66,137,1,JOOST,LB,old,n,./images/JOOSTLB.png,,,,,,,,,,,,,,,,,,,,,
,,,,,,,,,,,,,,,,,199120,18,2022-01-25_21h35.23.007,lexical_decision_task_DD_L6,2021.2.3,MacIntel,60.0024001,,,,,,,,,,,2.1612,0,,,,,,,,,,,,,,z,0,2.1612,,,,,,,,0.039435764,-0.401514757,0,0,0,,0,67,67,142,1,PLASK,HB,old,n,./images/PLASKHB.png,,,,,,,,,,,,,,,,,,,,,
,,,,,,,,,,,,,,,,,199120,18,2022-01-25_21h35.23.007,lexical_decision_task_DD_L6,2021.2.3,MacIntel,60.0024001,,,,,,,,,,,1.1966,0,,,,,,,,,,,,,,z,0,1.1966,,,,,,,,0.039435764,-0.401514757,0,0,0,,0,68,68,98,1,BAMPS,LB,old,n,./images/BAMPSLB.png,,,,,,,,,,,,,,,,,,,,,
,,,,,,,,,,,,,,,,,199120,18,2022-01-25_21h35.23.007,lexical_decision_task_DD_L6,2021.2.3,MacIntel,60.0024001,,,,,,,,,,,1.1976,0,,,,,,,,,,,,,,z,0,1.1976,,,,,,,,0.039435764,-0.401514757,0,0,0,,0,69,69,92,1,PAIMS,LB,old,n,./images/PAIMSLB.png,,,,,,,,,,,,,,,,,,,,,
,,,,,,,,,,,,,,,,,199120,18,2022-01-25_21h35.23.007,lexical_decision_task_DD_L6,2021.2.3,MacIntel,60.0024001,,,,,,,,,,,1.3144,0,,,,,,,,,,,,,,z,0,1.3144,,,,,,,,0.039435764,-0.401514757,0,0,0,,0,70,70,112,1,MYING,HB,old,n,./images/MYINGHB.png,,,,,,,,,,,,,,,,,,,,,
,,,,,,,,,,,,,,,,,199120,18,2022-01-25_21h35.23.007,lexical_decision_task_DD_L6,2021.2.3,MacIntel,60.0024001,,,,,,,,,,,2.9386,0,,,,,,,,,,,,,,z,0,2.9386,,,,,,,,0.039435764,-0.401514757,0,0,0,,0,71,71,151,1,TINKY,HB,old,n,./images/TINKYHB.png,,,,,,,,,,,,,,,,,,,,,
,,,,,,,,,,,,,,,,,199120,18,2022-01-25_21h35.23.007,lexical_decision_task_DD_L6,2021.2.3,MacIntel,60.0024001,,,,,,,,,,,0.6352,0,,,,,,,,,,,,,,m,0,0.6352,,,,,,,,0.039435764,-0.401514757,0,0,0,,0,72,72,30,1,SLOPE,LB,old,y,./images/SLOPELB.png,,,,,,,,,,,,,,,,,,,,,
,,,,,,,,,,,,,,,,,199120,18,2022-01-25_21h35.23.007,lexical_decision_task_DD_L6,2021.2.3,MacIntel,60.0024001,,,,,,,,,,,0.5634,0,,,,,,,,,,,,,,m,0,0.5634,,,,,,,,0.039435764,-0.401514757,0,0,0,,0,73,73,37,1,TIGER,C,old,y,./images/TIGER.png,,,,,,,,,,,,,,,,,,,,,
,,,,,,,,,,,,,,,,,199120,18,2022-01-25_21h35.23.007,lexical_decision_task_DD_L6,2021.2.3,MacIntel,60.0024001,,,,,,,,,,,0.6137,0,,,,,,,,,,,,,,m,0,0.6137,,,,,,,,0.039435764,-0.401514757,0,0,0,,0,74,74,6,1,STAIN,LB,old,y,./images/STAINLB.png,,,,,,,,,,,,,,,,,,,,,
,,,,,,,,,,,,,,,,,199120,18,2022-01-25_21h35.23.007,lexical_decision_task_DD_L6,2021.2.3,MacIntel,60.0024001,,,,,,,,,,,1.2643,0,,,,,,,,,,,,,,z,0,1.2643,,,,,,,,0.039435764,-0.401514757,0,0,0,,0,75,75,125,1,MOOKY,LB,old,n,./images/MOOKYLB.png,,,,,,,,,,,,,,,,,,,,,
,,,,,,,,,,,,,,,,,199120,18,2022-01-25_21h35.23.007,lexical_decision_task_DD_L6,2021.2.3,MacIntel,60.0024001,,,,,,,,,,,0.9199,0,,,,,,,,,,,,,,z,0,0.9199,,,,,,,,0.039435764,-0.401514757,0,0,0,,0,76,76,111,1,HOSSE,C,old,n,./images/HOSSE.png,,,,,,,,,,,,,,,,,,,,,
,,,,,,,,,,,,,,,,,199120,18,2022-01-25_21h35.23.007,lexical_decision_task_DD_L6,2021.2.3,MacIntel,60.0024001,,,,,,,,,,,0.6794,0,,,,,,,,,,,,,,m,0,0.6794,,,,,,,,0.039435764,-0.401514757,0,0,0,,0,77,77,63,1,BAKER,LB,old,y,./images/BAKERLB.png,,,,,,,,,,,,,,,,,,,,,
,,,,,,,,,,,,,,,,,199120,18,2022-01-25_21h35.23.007,lexical_decision_task_DD_L6,2021.2.3,MacIntel,60.0024001,,,,,,,,,,,1.4968,0,,,,,,,,,,,,,,z,0,1.4968,,,,,,,,0.039435764,-0.401514757,0,0,0,,0,78,78,155,1,CANGY,LB,old,n,./images/CANGYLB.png,,,,,,,,,,,,,,,,,,,,,
,,,,,,,,,,,,,,,,,199120,18,2022-01-25_21h35.23.007,lexical_decision_task_DD_L6,2021.2.3,MacIntel,60.0024001,,,,,,,,,,,0.9427,0,,,,,,,,,,,,,,m,0,0.9427,,,,,,,,0.039435764,-0.401514757,0,0,0,,0,79,79,40,1,SNAKE,C,old,y,./images/SNAKE.png,,,,,,,,,,,,,,,,,,,,,
,,,,,,,,,,,,,,,,,199120,18,2022-01-25_21h35.23.007,lexical_decision_task_DD_L6,2021.2.3,MacIntel,60.0024001,,,,,,,,,,,1.2474,0,,,,,,,,,,,,,,m,0,1.2474,,,,,,,,0.039435764,-0.401514757,0,0,0,,0,80,80,11,1,MEDAL,HB,old,y,./images/MEDALHB.png,,,,,,,,,,,,,,,,,,,,,
,,,,,,,,,,,,,,,,,199120,18,2022-01-25_21h35.23.007,lexical_decision_task_DD_L6,2021.2.3,MacIntel,60.0024001,,,,,,,,,,,0.9485,0,,,,,,,,,,,,,,z,0,0.9485,,,,,,,,0.039435764,-0.401514757,0,0,0,,0,81,81,114,1,RIKES,C,old,n,./images/RIKES.png,,,,,,,,,,,,,,,,,,,,,
,,,,,,,,,,,,,,,,,199120,18,2022-01-25_21h35.23.007,lexical_decision_task_DD_L6,2021.2.3,MacIntel,60.0024001,,,,,,,,,,,0.6316,0,,,,,,,,,,,,,,m,0,0.6316,,,,,,,,0.039435764,-0.401514757,0,0,0,,0,82,82,27,1,BUTTER,LB,old,y,./images/BUTTERLB.png,,,,,,,,,,,,,,,,,,,,,
,,,,,,,,,,,,,,,,,199120,18,2022-01-25_21h35.23.007,lexical_decision_task_DD_L6,2021.2.3,MacIntel,60.0024001,,,,,,,,,,,1.822,0,,,,,,,,,,,,,,z,0,1.822,,,,,,,,0.040295139,-0.409861111,1,0,0,,0,83,83,165,1,TROWN,C,old,n,./images/TROWN.png,break_done_button,,,,,,,,,,,,,,,,,,,,
,,,,,,,,,,,,,,,,,199120,18,2022-01-25_21h35.23.007,lexical_decision_task_DD_L6,2021.2.3,MacIntel,60.0024001,,,,,,,,,,,1.003,0,,,,,,,,,,,,,,m,0,1.003,,,,,,,,0.040295139,-0.397803819,0,0,0,,0,84,84,9,1,DIVER,LB,old,y,./images/DIVERLB.png,,,,,,,,,,,,,,,,,,,,,
,,,,,,,,,,,,,,,,,199120,18,2022-01-25_21h35.23.007,lexical_decision_task_DD_L6,2021.2.3,MacIntel,60.0024001,,,,,,,,,,,2.5148,0,,,,,,,,,,,,,,z,0,2.5148,,,,,,,,0.040295139,-0.397803819,0,0,0,,0,85,85,95,1,HANTY,LB,old,n,./images/HANTYLB.png,,,,,,,,,,,,,,,,,,,,,
,,,,,,,,,,,,,,,,,199120,18,2022-01-25_21h35.23.007,lexical_decision_task_DD_L6,2021.2.3,MacIntel,60.0024001,,,,,,,,,,,2.7641,0,,,,,,,,,,,,,,z,0,2.7641,,,,,,,,0.040295139,-0.397803819,0,0,0,,0,86,86,117,1,STEEG,C,old,n,./images/STEEG.png,,,,,,,,,,,,,,,,,,,,,
,,,,,,,,,,,,,,,,,199120,18,2022-01-25_21h35.23.007,lexical_decision_task_DD_L6,2021.2.3,MacIntel,60.0024001,,,,,,,,,,,0.7416,0,,,,,,,,,,,,,,m,0,0.7416,,,,,,,,0.040295139,-0.397803819,0,0,0,,0,87,87,21,1,DANCER,LB,old,y,./images/DANCERLB.png,,,,,,,,,,,,,,,,,,,,,
,,,,,,,,,,,,,,,,,199120,18,2022-01-25_21h35.23.007,lexical_decision_task_DD_L6,2021.2.3,MacIntel,60.0024001,,,,,,,,,,,1.9892,0,,,,,,,,,,,,,,z,0,1.9892,,,,,,,,0.040295139,-0.397803819,0,0,0,,0,88,88,121,1,CEERS,HB,old,n,./images/CEERSHB.png,,,,,,,,,,,,,,,,,,,,,
,,,,,,,,,,,,,,,,,199120,18,2022-01-25_21h35.23.007,lexical_decision_task_DD_L6,2021.2.3,MacIntel,60.0024001,,,,,,,,,,,0.7717,0,,,,,,,,,,,,,,z,0,0.7717,,,,,,,,0.040295139,-0.397803819,0,0,0,,0,89,89,147,1,ZOLES,C,old,n,./images/ZOLES.png,,,,,,,,,,,,,,,,,,,,,
,,,,,,,,,,,,,,,,,199120,18,2022-01-25_21h35.23.007,lexical_decision_task_DD_L6,2021.2.3,MacIntel,60.0024001,,,,,,,,,,,2.6298,0,,,,,,,,,,,,,,m,0,2.6298,,,,,,,,0.040295139,-0.397803819,0,0,0,,0,90,90,65,1,SPINE,HB,old,y,./images/SPINEHB.png,,,,,,,,,,,,,,,,,,,,,
,,,,,,,,,,,,,,,,,199120,18,2022-01-25_21h35.23.007,lexical_decision_task_DD_L6,2021.2.3,MacIntel,60.0024001,,,,,,,,,,,1.1648,0,,,,,,,,,,,,,,m,0,1.1648,,,,,,,,0.040295139,-0.397803819,0,0,0,,0,91,91,71,1,BUBBLE,HB,old,y,./images/BUBBLEHB.png,,,,,,,,,,,,,,,,,,,,,
,,,,,,,,,,,,,,,,,199120,18,2022-01-25_21h35.23.007,lexical_decision_task_DD_L6,2021.2.3,MacIntel,60.0024001,,,,,,,,,,,0.7103,0,,,,,,,,,,,,,,z,0,0.7103,,,,,,,,0.040295139,-0.397803819,0,0,0,,0,92,92,108,1,GRUET,C,old,n,./images/GRUET.png,,,,,,,,,,,,,,,,,,,,,
,,,,,,,,,,,,,,,,,199120,18,2022-01-25_21h35.23.007,lexical_decision_task_DD_L6,2021.2.3,MacIntel,60.0024001,,,,,,,,,,,1.0811,0,,,,,,,,,,,,,,z,0,1.0811,,,,,,,,0.040295139,-0.397803819,0,0,0,,0,93,93,96,1,KEAMS,C,old,n,./images/KEAMS.png,,,,,,,,,,,,,,,,,,,,,
,,,,,,,,,,,,,,,,,199120,18,2022-01-25_21h35.23.007,lexical_decision_task_DD_L6,2021.2.3,MacIntel,60.0024001,,,,,,,,,,,1.9838,0,,,,,,,,,,,,,,z,0,1.9838,,,,,,,,0.040295139,-0.397803819,0,0,0,,0,94,94,85,1,CHULK,HB,old,n,./images/CHULKHB.png,,,,,,,,,,,,,,,,,,,,,
,,,,,,,,,,,,,,,,,199120,18,2022-01-25_21h35.23.007,lexical_decision_task_DD_L6,2021.2.3,MacIntel,60.0024001,,,,,,,,,,,3.4454,0,,,,,,,,,,,,,,z,0,3.4454,,,,,,,,0.040295139,-0.397803819,0,0,0,,0,95,95,152,1,FRAIN,LB,old,n,./images/FRAINLB.png,,,,,,,,,,,,,,,,,,,,,
,,,,,,,,,,,,,,,,,199120,18,2022-01-25_21h35.23.007,lexical_decision_task_DD_L6,2021.2.3,MacIntel,60.0024001,,,,,,,,,,,1.6589,0,,,,,,,,,,,,,,z,0,1.6589,,,,,,,,0.040295139,-0.397803819,0,0,0,,0,96,96,99,1,BACKY,C,old,n,./images/BACKY.png,,,,,,,,,,,,,,,,,,,,,
,,,,,,,,,,,,,,,,,199120,18,2022-01-25_21h35.23.007,lexical_decision_task_DD_L6,2021.2.3,MacIntel,60.0024001,,,,,,,,,,,1.8986,0,,,,,,,,,,,,,,z,0,1.8986,,,,,,,,0.040295139,-0.397803819,0,0,0,,0,97,97,139,1,BLEAR,HB,old,n,./images/BLEARHB.png,,,,,,,,,,,,,,,,,,,,,
,,,,,,,,,,,,,,,,,199120,18,2022-01-25_21h35.23.007,lexical_decision_task_DD_L6,2021.2.3,MacIntel,60.0024001,,,,,,,,,,,0.5665,0,,,,,,,,,,,,,,m,0,0.5665,,,,,,,,0.040295139,-0.397803819,0,0,0,,0,98,98,67,1,POKER,C,old,y,./images/POKER.png,,,,,,,,,,,,,,,,,,,,,
,,,,,,,,,,,,,,,,,199120,18,2022-01-25_21h35.23.007,lexical_decision_task_DD_L6,2021.2.3,MacIntel,60.0024001,,,,,,,,,,,1.2344,0,,,,,,,,,,,,,,m,0,1.2344,,,,,,,,0.040295139,-0.397803819,0,0,0,,0,99,99,72,1,FLASK,LB,old,y,./images/FLASKLB.png,,,,,,,,,,,,,,,,,,,,,
,,,,,,,,,,,,,,,,,199120,18,2022-01-25_21h35.23.007,lexical_decision_task_DD_L6,2021.2.3,MacIntel,60.0024001,,,,,,,,,,,0.8462,0,,,,,,,,,,,,,,z,0,0.8462,,,,,,,,0.040295139,-0.397803819,0,0,0,,0,100,100,86,1,AIFED,LB,old,n,./images/AIFEDLB.png,,,,,,,,,,,,,,,,,,,,,
,,,,,,,,,,,,,,,,,199120,18,2022-01-25_21h35.23.007,lexical_decision_task_DD_L6,2021.2.3,MacIntel,60.0024001,,,,,,,,,,,1.0006,0,,,,,,,,,,,,,,m,0,1.0006,,,,,,,,0.040295139,-0.397803819,0,0,0,,0,101,101,77,1,WHEEL,HB,old,y,./images/WHEELHB.png,,,,,,,,,,,,,,,,,,,,,
,,,,,,,,,,,,,,,,,199120,18,2022-01-25_21h35.23.007,lexical_decision_task_DD_L6,2021.2.3,MacIntel,60.0024001,,,,,,,,,,,2.0533,0,,,,,,,,,,,,,,z,0,2.0533,,,,,,,,0.040295139,-0.397803819,0,0,0,,0,102,102,145,1,LAMEL,HB,old,n,./images/LAMELHB.png,,,,,,,,,,,,,,,,,,,,,
,,,,,,,,,,,,,,,,,199120,18,2022-01-25_21h35.23.007,lexical_decision_task_DD_L6,2021.2.3,MacIntel,60.0024001,,,,,,,,,,,1.0149,0,,,,,,,,,,,,,,m,0,1.0149,,,,,,,,0.040295139,-0.397803819,0,0,0,,0,103,103,17,1,PARADE,HB,old,y,./images/PARADEHB.png,,,,,,,,,,,,,,,,,,,,,
,,,,,,,,,,,,,,,,,199120,18,2022-01-25_21h35.23.007,lexical_decision_task_DD_L6,2021.2.3,MacIntel,60.0024001,,,,,,,,,,,1.0874,0,,,,,,,,,,,,,,m,0,1.0874,,,,,,,,0.040295139,-0.397803819,0,0,0,,0,104,104,16,1,GRAPE,C,old,y,./images/GRAPE.png,,,,,,,,,,,,,,,,,,,,,
,,,,,,,,,,,,,,,,,199120,18,2022-01-25_21h35.23.007,lexical_decision_task_DD_L6,2021.2.3,MacIntel,60.0024001,,,,,,,,,,,0.7027,0,,,,,,,,,,,,,,m,0,0.7027,,,,,,,,0.040295139,-0.397803819,0,0,0,,0,105,105,28,1,CASINO,C,old,y,./images/CASINO.png,,,,,,,,,,,,,,,,,,,,,
,,,,,,,,,,,,,,,,,199120,18,2022-01-25_21h35.23.007,lexical_decision_task_DD_L6,2021.2.3,MacIntel,60.0024001,,,,,,,,,,,3.2852,0,,,,,,,,,,,,,,z,0,3.2852,,,,,,,,0.040295139,-0.397803819,0,0,0,,0,106,106,88,1,GLUSH,HB,old,n,./images/GLUSHHB.png,,,,,,,,,,,,,,,,,,,,,
,,,,,,,,,,,,,,,,,199120,18,2022-01-25_21h35.23.007,lexical_decision_task_DD_L6,2021.2.3,MacIntel,60.0024001,,,,,,,,,,,1.0101,0,,,,,,,,,,,,,,z,0,1.0101,,,,,,,,0.040295139,-0.397803819,0,0,0,,0,107,107,144,1,NAIRY,C,old,n,./images/NAIRY.png,,,,,,,,,,,,,,,,,,,,,
,,,,,,,,,,,,,,,,,199120,18,2022-01-25_21h35.23.007,lexical_decision_task_DD_L6,2021.2.3,MacIntel,60.0024001,,,,,,,,,,,1.1622,0,,,,,,,,,,,,,,z,0,1.1622,,,,,,,,0.040295139,-0.397803819,0,0,0,,0,108,108,156,1,HIXES,C,old,n,./images/HIXES.png,,,,,,,,,,,,,,,,,,,,,
,,,,,,,,,,,,,,,,,199120,18,2022-01-25_21h35.23.007,lexical_decision_task_DD_L6,2021.2.3,MacIntel,60.0024001,,,,,,,,,,,0.7129,0,,,,,,,,,,,,,,m,0,0.7129,,,,,,,,0.040295139,-0.397803819,0,0,0,,0,109,109,34,1,RAZOR,C,old,y,./images/RAZOR.png,,,,,,,,,,,,,,,,,,,,,
,,,,,,,,,,,,,,,,,199120,18,2022-01-25_21h35.23.007,lexical_decision_task_DD_L6,2021.2.3,MacIntel,60.0024001,,,,,,,,,,,1.0531,0,,,,,,,,,,,,,,m,0,1.0531,,,,,,,,0.040295139,-0.397803819,0,0,0,,0,110,110,59,1,BRUSH,HB,old,y,./images/BRUSHHB.png,,,,,,,,,,,,,,,,,,,,,
,,,,,,,,,,,,,,,,,199120,18,2022-01-25_21h35.23.007,lexical_decision_task_DD_L6,2021.2.3,MacIntel,60.0024001,,,,,,,,,,,0.6635,0,,,,,,,,,,,,,,m,0,0.6635,,,,,,,,0.040295139,-0.397803819,0,0,0,,0,111,111,5,1,BAMBOO,HB,old,y,./images/BAMBOOHB.png,,,,,,,,,,,,,,,,,,,,,
,,,,,,,,,,,,,,,,,199120,18,2022-01-25_21h35.23.007,lexical_decision_task_DD_L6,2021.2.3,MacIntel,60.0024001,,,,,,,,,,,0.6586,0,,,,,,,,,,,,,,z,0,0.6586,,,,,,,,0.040295139,-0.397803819,0,0,0,,0,112,112,135,1,JOODY,C,old,n,./images/JOODY.png,,,,,,,,,,,,,,,,,,,,,
,,,,,,,,,,,,,,,,,199120,18,2022-01-25_21h35.23.007,lexical_decision_task_DD_L6,2021.2.3,MacIntel,60.0024001,,,,,,,,,,,0.6227,0,,,,,,,,,,,,,,m,0,0.6227,,,,,,,,0.040295139,-0.397803819,0,0,0,,0,113,113,26,1,CLOUD,HB,old,y,./images/CLOUDHB.png,,,,,,,,,,,,,,,,,,,,,
,,,,,,,,,,,,,,,,,199120,18,2022-01-25_21h35.23.007,lexical_decision_task_DD_L6,2021.2.3,MacIntel,60.0024001,,,,,,,,,,,0.5267,0,,,,,,,,,,,,,,z,0,0.5267,,,,,,,,0.040295139,-0.397803819,0,0,0,,0,114,114,10,1,GARDEN,C,old,y,./images/GARDEN.png,,,,,,,,,,,,,,,,,,,,,
,,,,,,,,,,,,,,,,,199120,18,2022-01-25_21h35.23.007,lexical_decision_task_DD_L6,2021.2.3,MacIntel,60.0024001,,,,,,,,,,,6.3127,0,,,,,,,,,,,,,,z,0,6.3127,,,,,,,,0.040295139,-0.397803819,0,0,0,,0,115,115,104,1,GITTY,LB,old,n,./images/GITTYLB.png,,,,,,,,,,,,,,,,,,,,,
,,,,,,,,,,,,,,,,,199120,18,2022-01-25_21h35.23.007,lexical_decision_task_DD_L6,2021.2.3,MacIntel,60.0024001,,,,,,,,,,,3.0052,0,,,,,,,,,,,,,,z,0,3.0052,,,,,,,,0.040295139,-0.397803819,0,0,0,,0,116,116,158,1,EGECT,LB,old,n,./images/EGECTLB.png,,,,,,,,,,,,,,,,,,,,,
,,,,,,,,,,,,,,,,,199120,18,2022-01-25_21h35.23.007,lexical_decision_task_DD_L6,2021.2.3,MacIntel,60.0024001,,,,,,,,,,,1.2174,0,,,,,,,,,,,,,,m,0,1.2174,,,,,,,,0.040295139,-0.397803819,0,0,0,,0,117,117,29,1,PISTOL,HB,old,y,./images/PISTOLHB.png,,,,,,,,,,,,,,,,,,,,,
,,,,,,,,,,,,,,,,,199120,18,2022-01-25_21h35.23.007,lexical_decision_task_DD_L6,2021.2.3,MacIntel,60.0024001,,,,,,,,,,,0.7482,0,,,,,,,,,,,,,,m,0,0.7482,,,,,,,,0.040295139,-0.397803819,0,0,0,,0,118,118,3,1,CRATER,LB,old,y,./images/CRATERLB.png,,,,,,,,,,,,,,,,,,,,,
,,,,,,,,,,,,,,,,,199120,18,2022-01-25_21h35.23.007,lexical_decision_task_DD_L6,2021.2.3,MacIntel,60.0024001,,,,,,,,,,,1.8963,0,,,,,,,,,,,,,,z,0,1.8963,,,,,,,,0.040295139,-0.397803819,0,0,0,,0,119,119,106,1,CLUMS,HB,old,n,./images/CLUMSHB.png,,,,,,,,,,,,,,,,,,,,,
,,,,,,,,,,,,,,,,,199120,18,2022-01-25_21h35.23.007,lexical_decision_task_DD_L6,2021.2.3,MacIntel,60.0024001,,,,,,,,,,,0.7213,0,,,,,,,,,,,,,,m,0,0.7213,,,,,,,,0.040295139,-0.397803819,0,0,0,,0,120,120,14,1,FENCE,HB,old,y,./images/FENCEHB.png,,,,,,,,,,,,,,,,,,,,,
,,,,,,,,,,,,,,,,,199120,18,2022-01-25_21h35.23.007,lexical_decision_task_DD_L6,2021.2.3,MacIntel,60.0024001,,,,,,,,,,,0.9306,0,,,,,,,,,,,,,,m,0,0.9306,,,,,,,,0.040295139,-0.397803819,0,0,0,,0,121,121,33,1,SAUNA,LB,old,y,./images/SAUNALB.png,,,,,,,,,,,,,,,,,,,,,
,,,,,,,,,,,,,,,,,199120,18,2022-01-25_21h35.23.007,lexical_decision_task_DD_L6,2021.2.3,MacIntel,60.0024001,,,,,,,,,,,1.1653,0,,,,,,,,,,,,,,z,0,1.1653,,,,,,,,0.040295139,-0.397803819,0,0,0,,0,122,122,159,1,CUDDY,C,old,n,./images/CUDDY.png,,,,,,,,,,,,,,,,,,,,,
,,,,,,,,,,,,,,,,,199120,18,2022-01-25_21h35.23.007,lexical_decision_task_DD_L6,2021.2.3,MacIntel,60.0024001,,,,,,,,,,,1.1205,0,,,,,,,,,,,,,,m,0,1.1205,,,,,,,,0.040295139,-0.397803819,0,0,0,,0,123,123,74,1,JUMPER,HB,old,y,./images/JUMPERHB.png,,,,,,,,,,,,,,,,,,,,,
,,,,,,,,,,,,,,,,,199120,18,2022-01-25_21h35.23.007,lexical_decision_task_DD_L6,2021.2.3,MacIntel,60.0024001,,,,,,,,,,,1.7852,0,,,,,,,,,,,,,,z,0,1.7852,,,,,,,,0.040295139,-0.397803819,0,0,0,,0,124,124,97,1,CHIDS,HB,old,n,./images/CHIDSHB.png,,,,,,,,,,,,,,,,,,,,,
,,,,,,,,,,,,,,,,,199120,18,2022-01-25_21h35.23.007,lexical_decision_task_DD_L6,2021.2.3,MacIntel,60.0024001,,,,,,,,,,,0.9508,0,,,,,,,,,,,,,,z,0,0.9508,,,,,,,,0.055321181,-0.404869792,1,0,0,,0,125,125,120,1,RINED,C,old,n,./images/RINED.png,break_done_button,,,,,,,,,,,,,,,,,,,,
,,,,,,,,,,,,,,,,,199120,18,2022-01-25_21h35.23.007,lexical_decision_task_DD_L6,2021.2.3,MacIntel,60.0024001,,,,,,,,,,,1.6538,0,,,,,,,,,,,,,,m,0,1.6538,,,,,,,,0.055321181,-0.404869792,0,0,0,,0,126,126,82,1,PEBBLE,C,old,y,./images/PEBBLE.png,,,,,,,,,,,,,,,,,,,,,
,,,,,,,,,,,,,,,,,199120,18,2022-01-25_21h35.23.007,lexical_decision_task_DD_L6,2021.2.3,MacIntel,60.0024001,,,,,,,,,,,1.2352,0,,,,,,,,,,,,,,z,0,1.2352,,,,,,,,0.055321181,-0.404869792,0,0,0,,0,127,127,94,1,BLANS,HB,old,n,./images/BLANSHB.png,,,,,,,,,,,,,,,,,,,,,
,,,,,,,,,,,,,,,,,199120,18,2022-01-25_21h35.23.007,lexical_decision_task_DD_L6,2021.2.3,MacIntel,60.0024001,,,,,,,,,,,1.48,0,,,,,,,,,,,,,,z,0,1.48,,,,,,,,0.055321181,-0.404869792,0,0,0,,0,128,128,136,1,WERVE,HB,old,n,./images/WERVEHB.png,,,,,,,,,,,,,,,,,,,,,
,,,,,,,,,,,,,,,,,199120,18,2022-01-25_21h35.23.007,lexical_decision_task_DD_L6,2021.2.3,MacIntel,60.0024001,,,,,,,,,,,1.0125,0,,,,,,,,,,,,,,m,0,1.0125,,,,,,,,0.055321181,-0.404869792,0,0,0,,0,129,129,38,1,ENGINE,HB,old,y,./images/ENGINEHB.png,,,,,,,,,,,,,,,,,,,,,
,,,,,,,,,,,,,,,,,199120,18,2022-01-25_21h35.23.007,lexical_decision_task_DD_L6,2021.2.3,MacIntel,60.0024001,,,,,,,,,,,0.9377,0,,,,,,,,,,,,,,m,0,0.9377,,,,,,,,0.055321181,-0.404869792,0,0,0,,0,130,130,64,1,BRIDE,C,old,y,./images/BRIDE.png,,,,,,,,,,,,,,,,,,,,,
,,,,,,,,,,,,,,,,,199120,18,2022-01-25_21h35.23.007,lexical_decision_task_DD_L6,2021.2.3,MacIntel,60.0024001,,,,,,,,,,,0.6381,0,,,,,,,,,,,,,,m,0,0.6381,,,,,,,,0.055321181,-0.404869792,0,0,0,,0,131,131,13,1,BUNNY,C,old,y,./images/BUNNY.png,,,,,,,,,,,,,,,,,,,,,
,,,,,,,,,,,,,,,,,199120,18,2022-01-25_21h35.23.007,lexical_decision_task_DD_L6,2021.2.3,MacIntel,60.0024001,,,,,,,,,,,1.5637,0,,,,,,,,,,,,,,z,0,1.5637,,,,,,,,0.055321181,-0.404869792,0,0,0,,0,132,132,102,1,DULLE,C,old,n,./images/DULLE.png,,,,,,,,,,,,,,,,,,,,,
,,,,,,,,,,,,,,,,,199120,18,2022-01-25_21h35.23.007,lexical_decision_task_DD_L6,2021.2.3,MacIntel,60.0024001,,,,,,,,,,,2.6972,0,,,,,,,,,,,,,,z,0,2.6972,,,,,,,,0.055321181,-0.404869792,0,0,0,,0,133,133,103,1,FLORT,HB,old,n,./images/FLORTHB.png,,,,,,,,,,,,,,,,,,,,,
,,,,,,,,,,,,,,,,,199120,18,2022-01-25_21h35.23.007,lexical_decision_task_DD_L6,2021.2.3,MacIntel,60.0024001,,,,,,,,,,,1.5284,0,,,,,,,,,,,,,,m,0,1.5284,,,,,,,,0.055321181,-0.404869792,0,0,0,,0,134,134,84,1,HAXES,C,old,n,./images/HAXES.png,,,,,,,,,,,,,,,,,,,,,
,,,,,,,,,,,,,,,,,199120,18,2022-01-25_21h35.23.007,lexical_decision_task_DD_L6,2021.2.3,MacIntel,60.0024001,,,,,,,,,,,0.8209,0,,,,,,,,,,,,,,m,0,0.8209,,,,,,,,0.055321181,-0.404869792,0,0,0,,0,135,135,60,1,CURRY,LB,old,y,./images/CURRYLB.png,,,,,,,,,,,,,,,,,,,,,
,,,,,,,,,,,,,,,,,199120,18,2022-01-25_21h35.23.007,lexical_decision_task_DD_L6,2021.2.3,MacIntel,60.0024001,,,,,,,,,,,3.7305,0,,,,,,,,,,,,,,z,0,3.7305,,,,,,,,0.055321181,-0.404869792,0,0,0,,0,136,136,157,1,INLER,HB,old,n,./images/INLERHB.png,,,,,,,,,,,,,,,,,,,,,
,,,,,,,,,,,,,,,,,199120,18,2022-01-25_21h35.23.007,lexical_decision_task_DD_L6,2021.2.3,MacIntel,60.0024001,,,,,,,,,,,0.8511,0,,,,,,,,,,,,,,m,0,0.8511,,,,,,,,0.055321181,-0.404869792,0,0,0,,0,137,137,49,1,BISHOP,C,old,y,./images/BISHOP.png,,,,,,,,,,,,,,,,,,,,,
,,,,,,,,,,,,,,,,,199120,18,2022-01-25_21h35.23.007,lexical_decision_task_DD_L6,2021.2.3,MacIntel,60.0024001,,,,,,,,,,,0.955,0,,,,,,,,,,,,,,z,0,0.955,,,,,,,,0.055321181,-0.404869792,0,0,0,,0,138,138,153,1,CLUPS,C,old,n,./images/CLUPS.png,,,,,,,,,,,,,,,,,,,,,
,,,,,,,,,,,,,,,,,199120,18,2022-01-25_21h35.23.007,lexical_decision_task_DD_L6,2021.2.3,MacIntel,60.0024001,,,,,,,,,,,1.1724,0,,,,,,,,,,,,,,m,0,1.1724,,,,,,,,0.055321181,-0.404869792,0,0,0,,0,139,139,68,1,VALLEY,HB,old,y,./images/VALLEYHB.png,,,,,,,,,,,,,,,,,,,,,
,,,,,,,,,,,,,,,,,199120,18,2022-01-25_21h35.23.007,lexical_decision_task_DD_L6,2021.2.3,MacIntel,60.0024001,,,,,,,,,,,1.4092,0,,,,,,,,,,,,,,z,0,1.4092,,,,,,,,0.055321181,-0.404869792,0,0,0,,0,140,140,167,1,ZONET,LB,old,n,./images/ZONETLB.png,,,,,,,,,,,,,,,,,,,,,
,,,,,,,,,,,,,,,,,199120,18,2022-01-25_21h35.23.007,lexical_decision_task_DD_L6,2021.2.3,MacIntel,60.0024001,,,,,,,,,,,1.1003,0,,,,,,,,,,,,,,z,0,1.1003,,,,,,,,0.055321181,-0.404869792,0,0,0,,0,141,141,119,1,PAFER,LB,old,n,./images/PAFERLB.png,,,,,,,,,,,,,,,,,,,,,
,,,,,,,,,,,,,,,,,199120,18,2022-01-25_21h35.23.007,lexical_decision_task_DD_L6,2021.2.3,MacIntel,60.0024001,,,,,,,,,,,0.6525,0,,,,,,,,,,,,,,m,0,0.6525,,,,,,,,0.055321181,-0.404869792,0,0,0,,0,142,142,31,1,STEAK,C,old,y,./images/STEAK.png,,,,,,,,,,,,,,,,,,,,,
,,,,,,,,,,,,,,,,,199120,18,2022-01-25_21h35.23.007,lexical_decision_task_DD_L6,2021.2.3,MacIntel,60.0024001,,,,,,,,,,,1.1969,0,,,,,,,,,,,,,,m,0,1.1969,,,,,,,,0.055321181,-0.404869792,0,0,0,,0,143,143,8,1,CLIFF,HB,old,y,./images/CLIFFHB.png,,,,,,,,,,,,,,,,,,,,,
,,,,,,,,,,,,,,,,,199120,18,2022-01-25_21h35.23.007,lexical_decision_task_DD_L6,2021.2.3,MacIntel,60.0024001,,,,,,,,,,,0.9166,0,,,,,,,,,,,,,,z,0,0.9166,,,,,,,,0.055321181,-0.404869792,0,0,0,,0,144,144,101,1,GLEET,LB,old,n,./images/GLEETLB.png,,,,,,,,,,,,,,,,,,,,,
,,,,,,,,,,,,,,,,,199120,18,2022-01-25_21h35.23.007,lexical_decision_task_DD_L6,2021.2.3,MacIntel,60.0024001,,,,,,,,,,,0.6373,0,,,,,,,,,,,,,,m,0,0.6373,,,,,,,,0.055321181,-0.404869792,0,0,0,,0,145,145,46,1,MUMMY,C,old,y,./images/MUMMY.png,,,,,,,,,,,,,,,,,,,,,
,,,,,,,,,,,,,,,,,199120,18,2022-01-25_21h35.23.007,lexical_decision_task_DD_L6,2021.2.3,MacIntel,60.0024001,,,,,,,,,,,1.0544,0,,,,,,,,,,,,,,z,0,1.0544,,,,,,,,0.055321181,-0.404869792,0,0,0,,0,146,146,123,1,SEDGE,C,old,n,./images/SEDGE.png,,,,,,,,,,,,,,,,,,,,,
,,,,,,,,,,,,,,,,,199120,18,2022-01-25_21h35.23.007,lexical_decision_task_DD_L6,2021.2.3,MacIntel,60.0024001,,,,,,,,,,,1.4256,0,,,,,,,,,,,,,,z,0,1.4256,,,,,,,,0.055321181,-0.404869792,0,0,0,,0,147,147,134,1,TROSS,LB,old,n,./images/TROSSLB.png,,,,,,,,,,,,,,,,,,,,,
,,,,,,,,,,,,,,,,,199120,18,2022-01-25_21h35.23.007,lexical_decision_task_DD_L6,2021.2.3,MacIntel,60.0024001,,,,,,,,,,,0.8126,0,,,,,,,,,,,,,,m,0,0.8126,,,,,,,,0.055321181,-0.404869792,0,0,0,,0,148,148,78,1,BROOM,LB,old,y,./images/BROOMLB.png,,,,,,,,,,,,,,,,,,,,,
,,,,,,,,,,,,,,,,,199120,18,2022-01-25_21h35.23.007,lexical_decision_task_DD_L6,2021.2.3,MacIntel,60.0024001,,,,,,,,,,,0.7383,0,,,,,,,,,,,,,,m,0,0.7383,,,,,,,,0.055321181,-0.404869792,0,0,0,,0,149,149,55,1,ALLEY,C,old,y,./images/ALLEY.png,,,,,,,,,,,,,,,,,,,,,
,,,,,,,,,,,,,,,,,199120,18,2022-01-25_21h35.23.007,lexical_decision_task_DD_L6,2021.2.3,MacIntel,60.0024001,,,,,,,,,,,1.9316,0,,,,,,,,,,,,,,m,0,1.9316,,,,,,,,0.055321181,-0.404869792,0,0,0,,0,150,150,53,1,POSTER,HB,old,y,./images/POSTERHB.png,,,,,,,,,,,,,,,,,,,,,
,,,,,,,,,,,,,,,,,199120,18,2022-01-25_21h35.23.007,lexical_decision_task_DD_L6,2021.2.3,MacIntel,60.0024001,,,,,,,,,,,0.7268,0,,,,,,,,,,,,,,m,0,0.7268,,,,,,,,0.055321181,-0.404869792,0,0,0,,0,151,151,43,1,STOOL,C,old,y,./images/STOOL.png,,,,,,,,,,,,,,,,,,,,,
,,,,,,,,,,,,,,,,,199120,18,2022-01-25_21h35.23.007,lexical_decision_task_DD_L6,2021.2.3,MacIntel,60.0024001,,,,,,,,,,,0.9478,0,,,,,,,,,,,,,,m,0,0.9478,,,,,,,,0.055321181,-0.404869792,0,0,0,,0,152,152,81,1,DRILL,LB,old,y,./images/DRILLLB.png,,,,,,,,,,,,,,,,,,,,,
,,,,,,,,,,,,,,,,,199120,18,2022-01-25_21h35.23.007,lexical_decision_task_DD_L6,2021.2.3,MacIntel,60.0024001,,,,,,,,,,,0.7202,0,,,,,,,,,,,,,,m,0,0.7202,,,,,,,,0.055321181,-0.404869792,0,0,0,,0,153,153,70,1,BANANA,C,old,y,./images/BANANA.png,,,,,,,,,,,,,,,,,,,,,
,,,,,,,,,,,,,,,,,199120,18,2022-01-25_21h35.23.007,lexical_decision_task_DD_L6,2021.2.3,MacIntel,60.0024001,,,,,,,,,,,0.9713,0,,,,,,,,,,,,,,m,0,0.9713,,,,,,,,0.055321181,-0.404869792,0,0,0,,0,154,154,23,1,CLOTH,HB,old,y,./images/CLOTHHB.png,,,,,,,,,,,,,,,,,,,,,
,,,,,,,,,,,,,,,,,199120,18,2022-01-25_21h35.23.007,lexical_decision_task_DD_L6,2021.2.3,MacIntel,60.0024001,,,,,,,,,,,0.6608,0,,,,,,,,,,,,,,m,0,0.6608,,,,,,,,0.055321181,-0.404869792,0,0,0,,0,155,155,52,1,DESERT,C,old,y,./images/DESERT.png,,,,,,,,,,,,,,,,,,,,,
,,,,,,,,,,,,,,,,,199120,18,2022-01-25_21h35.23.007,lexical_decision_task_DD_L6,2021.2.3,MacIntel,60.0024001,,,,,,,,,,,0.9974,0,,,,,,,,,,,,,,z,0,0.9974,,,,,,,,0.055321181,-0.404869792,0,0,0,,0,156,156,124,1,TUNCH,HB,old,n,./images/TUNCHHB.png,,,,,,,,,,,,,,,,,,,,,
,,,,,,,,,,,,,,,,,199120,18,2022-01-25_21h35.23.007,lexical_decision_task_DD_L6,2021.2.3,MacIntel,60.0024001,,,,,,,,,,,1.5166,0,,,,,,,,,,,,,,m,0,1.5166,,,,,,,,0.055321181,-0.404869792,0,0,0,,0,157,157,20,1,GRANNY,HB,old,y,./images/GRANNYHB.png,,,,,,,,,,,,,,,,,,,,,
,,,,,,,,,,,,,,,,,199120,18,2022-01-25_21h35.23.007,lexical_decision_task_DD_L6,2021.2.3,MacIntel,60.0024001,,,,,,,,,,,0.9474,0,,,,,,,,,,,,,,z,0,0.9474,,,,,,,,0.055321181,-0.404869792,0,0,0,,0,158,158,122,1,BLOOT,LB,old,n,./images/BLOOTLB.png,,,,,,,,,,,,,,,,,,,,,
,,,,,,,,,,,,,,,,,199120,18,2022-01-25_21h35.23.007,lexical_decision_task_DD_L6,2021.2.3,MacIntel,60.0024001,,,,,,,,,,,0.9192,0,,,,,,,,,,,,,,z,0,0.9192,,,,,,,,0.055321181,-0.404869792,0,0,0,,0,159,159,161,1,BLAPS,LB,old,n,./images/BLAPSLB.png,,,,,,,,,,,,,,,,,,,,,
,,,,,,,,,,,,,,,,,199120,18,2022-01-25_21h35.23.007,lexical_decision_task_DD_L6,2021.2.3,MacIntel,60.0024001,,,,,,,,,,,0.6858,0,,,,,,,,,,,,,,m,0,0.6858,,,,,,,,0.055321181,-0.404869792,0,0,0,,0,160,160,69,1,ARROW,LB,old,y,./images/ARROWLB.png,,,,,,,,,,,,,,,,,,,,,
,,,,,,,,,,,,,,,,,199120,18,2022-01-25_21h35.23.007,lexical_decision_task_DD_L6,2021.2.3,MacIntel,60.0024001,,,,,,,,,,,1.4739,0,,,,,,,,,,,,,,z,0,1.4739,,,,,,,,0.055321181,-0.404869792,0,0,0,,0,161,161,128,1,GRIFT,LB,old,n,./images/GRIFTLB.png,,,,,,,,,,,,,,,,,,,,,
,,,,,,,,,,,,,,,,,199120,18,2022-01-25_21h35.23.007,lexical_decision_task_DD_L6,2021.2.3,MacIntel,60.0024001,,,,,,,,,,,0.6174,0,,,,,,,,,,,,,,m,0,0.6174,,,,,,,,0.055321181,-0.404869792,0,0,0,,0,162,162,61,1,ARTIST,C,old,y,./images/ARTIST.png,,,,,,,,,,,,,,,,,,,,,
,,,,,,,,,,,,,,,,,199120,18,2022-01-25_21h35.23.007,lexical_decision_task_DD_L6,2021.2.3,MacIntel,60.0024001,,,,,,,,,,,1.3639,0,,,,,,,,,,,,,,m,0,1.3639,,,,,,,,0.055321181,-0.404869792,0,0,0,,0,163,163,80,1,PLANET,HB,old,y,./images/PLANETHB.png,,,,,,,,,,,,,,,,,,,,,
,,,,,,,,,,,,,,,,,199120,18,2022-01-25_21h35.23.007,lexical_decision_task_DD_L6,2021.2.3,MacIntel,60.0024001,,,,,,,,,,,0.6817,0,,,,,,,,,,,,,,m,0,0.6817,,,,,,,,0.055321181,-0.404869792,0,0,0,,0,164,164,42,1,CHAIN,LB,old,y,./images/CHAINLB.png,,,,,,,,,,,,,,,,,,,,,
,,,,,,,,,,,,,,,,,199120,18,2022-01-25_21h35.23.007,lexical_decision_task_DD_L6,2021.2.3,MacIntel,60.0024001,,,,,,,,,,,1.3061,0,,,,,,,,,,,,,,m,0,1.3061,,,,,,,,0.055321181,-0.404869792,0,0,0,,0,165,165,50,1,PILOT,HB,old,y,./images/PILOTHB.png,,,,,,,,,,,,,,,,,,,,,
,,,,,,,,,,,,,,,,,199120,18,2022-01-25_21h35.23.007,lexical_decision_task_DD_L6,2021.2.3,MacIntel,60.0024001,,,,,,,,,,,0.7847,0,,,,,,,,,,,,,,m,0,0.7847,,,,,,,,0.055321181,-0.404869792,0,0,0,,0,166,166,4,1,BOXER,C,old,y,./images/BOXER.png,,,,,,,,,,,,,,,,,,,,,
,,,,,,,,,,,,,,,,,199120,18,2022-01-25_21h35.23.007,lexical_decision_task_DD_L6,2021.2.3,MacIntel,60.0024001,,,,,,,,,,,1.6185,0,,,,,,,,,,,,,,z,0,1.6185,,,,,,,,0.055321181,-0.404869792,0,0,0,,0,167,167,105,1,MOKER,C,old,n,./images/MOKER.png,,,,,,,,,,,,,,,,,,,,,
,0.046388889,-0.408815104,1,0,0,instr_done_button,,,,,,1,test,"In the next phase you will be presented with the words from the the first phase. Your job is to decide whether you remember seeing the word or not. If you remember seeing the word press ""old"" or type ""m"". If you do not remember seeing the word press ""new"" or type ""z"". Please press the space bar or click on continue to begin. ",,,199120,18,2022-01-25_21h35.23.007,lexical_decision_task_DD_L6,2021.2.3,MacIntel,60.0024001,,,,,,,,,,,,,,,,,,,,,,,,,,,,,,,,,,,,,,,,,,,,,,,,,,,,,0,0,0,0,1,,,,,,,,,,,,,,,
,0.051367188,-0.398463542,1,0,0,instr_done_button,,,,,,1,test,"In the next phase you will be presented with the words from the the first phase. Your job is to decide whether you remember seeing the word or not. If you remember seeing the word press ""old"" or type ""m"". If you do not remember seeing the word press ""new"" or type ""z"". Please press the space bar or click on continue to begin. ",,,199120,18,2022-01-25_21h35.23.007,lexical_decision_task_DD_L6,2021.2.3,MacIntel,60.0024001,,,,,,,,,,,,,,,,,,,,,,,,,,,,,,,,,,,,,,,,,,,,,,,,,,,,,1,0,1,0,1,,,,,,,,,,,,,,,
,0.051367188,-0.398463542,1,0,0,instr_done_button,,,,,,1,test,"In the next phase you will be presented with the words from the the first phase. Your job is to decide whether you remember seeing the word or not. If you remember seeing the word press ""old"" or type ""m"". If you do not remember seeing the word press ""new"" or type ""z"". Please press the space bar or click on continue to begin. ",,,199120,18,2022-01-25_21h35.23.007,lexical_decision_task_DD_L6,2021.2.3,MacIntel,60.0024001,,,,,,,,,,,,,,,,,,,,,,,,,,,,,,,,,,,,,,,,,,,,,,,,,,,,,2,0,2,0,1,,,,,,,,,,,,,,,
,0.052382813,-0.392760417,1,0,0,instr_done_button,,,,,,1,test,"In the next phase you will be presented with the words from the the first phase. Your job is to decide whether you remember seeing the word or not. If you remember seeing the word press ""old"" or type ""m"". If you do not remember seeing the word press ""new"" or type ""z"". Please press the space bar or click on continue to begin. ",,,199120,18,2022-01-25_21h35.23.007,lexical_decision_task_DD_L6,2021.2.3,MacIntel,60.0024001,,,,,,,,,,,,,,,,,,,,,,,,,,,,,,,,,,,,,,,,,,,,,,,,,,,,,3,0,3,0,1,,,,,,,,,,,,,,,
,-0.098736979,-0.431445313,1,0,0,instr_done_button,,,,,,1,test,"In the next phase you will be presented with the words from the the first phase. Your job is to decide whether you remember seeing the word or not. If you remember seeing the word press ""old"" or type ""m"". If you do not remember seeing the word press ""new"" or type ""z"". Please press the space bar or click on continue to begin. ",,,199120,18,2022-01-25_21h35.23.007,lexical_decision_task_DD_L6,2021.2.3,MacIntel,60.0024001,,,,,,,,,,,,,,,,,,,,,,,,,,,,,,,,,,,,,,,,,,,,,,,,,,,,,4,0,4,0,1,,,,,,,,,,,,,,,
,,,,,,,,,,,,,,,,,199120,18,2022-01-25_21h35.23.007,lexical_decision_task_DD_L6,2021.2.3,MacIntel,60.0024001,,,,,,,,,,,5.0833,0,,,,,,,,,,,,,,,,,,,,,,,,-0.060173611,-0.360507813,0,0,0,,,,,,,INFANT,C,new,y,./images/INFANT.png,,,,,,,z,0,5.0833,,,,,,,,0,0,0,160,1
,,,,,,,,,,,,,,,,,199120,18,2022-01-25_21h35.23.007,lexical_decision_task_DD_L6,2021.2.3,MacIntel,60.0024001,,,,,,,,,,,1.9793,0,,,,,,,,,,,,,,,,,,,,,,,,-0.060173611,-0.360507813,0,0,0,,,,,,,CRUST,C,new,y,./images/CRUST.png,,,,,,,z,0,1.9793,,,,,,,,0,1,1,163,1
,,,,,,,,,,,,,,,,,199120,18,2022-01-25_21h35.23.007,lexical_decision_task_DD_L6,2021.2.3,MacIntel,60.0024001,,,,,,,,,,,1.6481,0,,,,,,,,,,,,,,,,,,,,,,,,-0.060173611,-0.360507813,0,0,0,,,,,,,TWINS,LB,new,y,./images/TWINSLB.png,,,,,,,z,0,1.6481,,,,,,,,0,2,2,144,1
,,,,,,,,,,,,,,,,,199120,18,2022-01-25_21h35.23.007,lexical_decision_task_DD_L6,2021.2.3,MacIntel,60.0024001,,,,,,,,,,,1.4654,0,,,,,,,,,,,,,,,,,,,,,,,,-0.060173611,-0.360507813,0,0,0,,,,,,,WHEEL,HB,old,y,./images/WHEELHB.png,,,,,,,m,0,1.4654,,,,,,,,0,3,3,77,1
,,,,,,,,,,,,,,,,,199120,18,2022-01-25_21h35.23.007,lexical_decision_task_DD_L6,2021.2.3,MacIntel,60.0024001,,,,,,,,,,,1.3401,0,,,,,,,,,,,,,,,,,,,,,,,,-0.060173611,-0.360507813,0,0,0,,,,,,,WRIST,C,new,y,./images/WRIST.png,,,,,,,z,0,1.3401,,,,,,,,0,4,4,109,1
,,,,,,,,,,,,,,,,,199120,18,2022-01-25_21h35.23.007,lexical_decision_task_DD_L6,2021.2.3,MacIntel,60.0024001,,,,,,,,,,,0.9984,0,,,,,,,,,,,,,,,,,,,,,,,,-0.060173611,-0.360507813,0,0,0,,,,,,,BOXER,C,old,y,./images/BOXER.png,,,,,,,m,0,0.9984,,,,,,,,0,5,5,4,1
,,,,,,,,,,,,,,,,,199120,18,2022-01-25_21h35.23.007,lexical_decision_task_DD_L6,2021.2.3,MacIntel,60.0024001,,,,,,,,,,,1.7286,0,,,,,,,,,,,,,,,,,,,,,,,,-0.060173611,-0.360507813,0,0,0,,,,,,,JUNGLE,HB,new,y,./images/JUNGLEHB.png,,,,,,,z,0,1.7286,,,,,,,,0,6,6,167,1
,,,,,,,,,,,,,,,,,199120,18,2022-01-25_21h35.23.007,lexical_decision_task_DD_L6,2021.2.3,MacIntel,60.0024001,,,,,,,,,,,1.2198,0,,,,,,,,,,,,,,,,,,,,,,,,-0.060173611,-0.360507813,0,0,0,,,,,,,PILOT,HB,old,y,./images/PILOTHB.png,,,,,,,m,0,1.2198,,,,,,,,0,7,7,50,1
,,,,,,,,,,,,,,,,,199120,18,2022-01-25_21h35.23.007,lexical_decision_task_DD_L6,2021.2.3,MacIntel,60.0024001,,,,,,,,,,,1.1669,0,,,,,,,,,,,,,,,,,,,,,,,,-0.060173611,-0.360507813,0,0,0,,,,,,,STORM,LB,new,y,./images/STORMLB.png,,,,,,,z,0,1.1669,,,,,,,,0,8,8,114,1
,,,,,,,,,,,,,,,,,199120,18,2022-01-25_21h35.23.007,lexical_decision_task_DD_L6,2021.2.3,MacIntel,60.0024001,,,,,,,,,,,1.032,0,,,,,,,,,,,,,,,,,,,,,,,,-0.060173611,-0.360507813,0,0,0,,,,,,,LLAMA,HB,old,y,./images/LLAMAHB.png,,,,,,,m,0,1.032,,,,,,,,0,9,9,35,1
,,,,,,,,,,,,,,,,,199120,18,2022-01-25_21h35.23.007,lexical_decision_task_DD_L6,2021.2.3,MacIntel,60.0024001,,,,,,,,,,,2.3651,0,,,,,,,,,,,,,,,,,,,,,,,,-0.060173611,-0.360507813,0,0,0,,,,,,,FARMER,HB,new,y,./images/FARMERHB.png,,,,,,,m,0,2.3651,,,,,,,,0,10,10,149,1
,,,,,,,,,,,,,,,,,199120,18,2022-01-25_21h35.23.007,lexical_decision_task_DD_L6,2021.2.3,MacIntel,60.0024001,,,,,,,,,,,1.0881,0,,,,,,,,,,,,,,,,,,,,,,,,-0.060173611,-0.360507813,0,0,0,,,,,,,BUBBLE,HB,old,y,./images/BUBBLEHB.png,,,,,,,m,0,1.0881,,,,,,,,0,11,11,71,1
,,,,,,,,,,,,,,,,,199120,18,2022-01-25_21h35.23.007,lexical_decision_task_DD_L6,2021.2.3,MacIntel,60.0024001,,,,,,,,,,,0.9988,0,,,,,,,,,,,,,,,,,,,,,,,,-0.060173611,-0.360507813,0,0,0,,,,,,,POSTER,HB,old,y,./images/POSTERHB.png,,,,,,,m,0,0.9988,,,,,,,,0,12,12,53,1
,,,,,,,,,,,,,,,,,199120,18,2022-01-25_21h35.23.007,lexical_decision_task_DD_L6,2021.2.3,MacIntel,60.0024001,,,,,,,,,,,1.4254,0,,,,,,,,,,,,,,,,,,,,,,,,-0.060173611,-0.360507813,0,0,0,,,,,,,TRIPOD,LB,new,y,./images/TRIPODLB.png,,,,,,,z,0,1.4254,,,,,,,,0,13,13,138,1
,,,,,,,,,,,,,,,,,199120,18,2022-01-25_21h35.23.007,lexical_decision_task_DD_L6,2021.2.3,MacIntel,60.0024001,,,,,,,,,,,1.1423,0,,,,,,,,,,,,,,,,,,,,,,,,-0.060173611,-0.360507813,0,0,0,,,,,,,KITTEN,LB,new,y,./images/KITTENLB.png,,,,,,,z,0,1.1423,,,,,,,,0,14,14,129,1
,,,,,,,,,,,,,,,,,199120,18,2022-01-25_21h35.23.007,lexical_decision_task_DD_L6,2021.2.3,MacIntel,60.0024001,,,,,,,,,,,1.5321,0,,,,,,,,,,,,,,,,,,,,,,,,-0.060173611,-0.360507813,0,0,0,,,,,,,POODLE,LB,new,y,./images/POODLELB.png,,,,,,,z,0,1.5321,,,,,,,,0,15,15,165,1
,,,,,,,,,,,,,,,,,199120,18,2022-01-25_21h35.23.007,lexical_decision_task_DD_L6,2021.2.3,MacIntel,60.0024001,,,,,,,,,,,0.9831,0,,,,,,,,,,,,,,,,,,,,,,,,-0.060173611,-0.360507813,0,0,0,,,,,,,GRANNY,HB,old,y,./images/GRANNYHB.png,,,,,,,m,0,0.9831,,,,,,,,0,16,16,20,1
,,,,,,,,,,,,,,,,,199120,18,2022-01-25_21h35.23.007,lexical_decision_task_DD_L6,2021.2.3,MacIntel,60.0024001,,,,,,,,,,,3.2001,0,,,,,,,,,,,,,,,,,,,,,,,,-0.060173611,-0.360507813,0,0,0,,,,,,,CARPET,HB,new,y,./images/CARPETHB.png,,,,,,,z,0,3.2001,,,,,,,,0,17,17,137,1
,,,,,,,,,,,,,,,,,199120,18,2022-01-25_21h35.23.007,lexical_decision_task_DD_L6,2021.2.3,MacIntel,60.0024001,,,,,,,,,,,0.8474,0,,,,,,,,,,,,,,,,,,,,,,,,-0.060173611,-0.360507813,0,0,0,,,,,,,ARROW,LB,old,y,./images/ARROWLB.png,,,,,,,m,0,0.8474,,,,,,,,0,18,18,69,1
,,,,,,,,,,,,,,,,,199120,18,2022-01-25_21h35.23.007,lexical_decision_task_DD_L6,2021.2.3,MacIntel,60.0024001,,,,,,,,,,,1.1303,0,,,,,,,,,,,,,,,,,,,,,,,,-0.060173611,-0.360507813,0,0,0,,,,,,,MIRROR,LB,new,y,./images/MIRRORLB.png,,,,,,,m,0,1.1303,,,,,,,,0,19,19,147,1
,,,,,,,,,,,,,,,,,199120,18,2022-01-25_21h35.23.007,lexical_decision_task_DD_L6,2021.2.3,MacIntel,60.0024001,,,,,,,,,,,0.7323,0,,,,,,,,,,,,,,,,,,,,,,,,-0.060173611,-0.360507813,0,0,0,,,,,,,MONKEY,LB,old,y,./images/MONKEYLB.png,,,,,,,m,0,0.7323,,,,,,,,0,20,20,45,1
,,,,,,,,,,,,,,,,,199120,18,2022-01-25_21h35.23.007,lexical_decision_task_DD_L6,2021.2.3,MacIntel,60.0024001,,,,,,,,,,,0.6985,0,,,,,,,,,,,,,,,,,,,,,,,,-0.060173611,-0.360507813,0,0,0,,,,,,,PEBBLE,C,old,y,./images/PEBBLE.png,,,,,,,m,0,0.6985,,,,,,,,0,21,21,82,1
,,,,,,,,,,,,,,,,,199120,18,2022-01-25_21h35.23.007,lexical_decision_task_DD_L6,2021.2.3,MacIntel,60.0024001,,,,,,,,,,,0.6248,0,,,,,,,,,,,,,,,,,,,,,,,,-0.060173611,-0.360507813,0,0,0,,,,,,,PLANET,HB,old,y,./images/PLANETHB.png,,,,,,,m,0,0.6248,,,,,,,,0,22,22,80,1
,,,,,,,,,,,,,,,,,199120,18,2022-01-25_21h35.23.007,lexical_decision_task_DD_L6,2021.2.3,MacIntel,60.0024001,,,,,,,,,,,0.8324,0,,,,,,,,,,,,,,,,,,,,,,,,-0.060173611,-0.360507813,0,0,0,,,,,,,DOUGH,C,new,y,./images/DOUGH.png,,,,,,,z,0,0.8324,,,,,,,,0,23,23,103,1
,,,,,,,,,,,,,,,,,199120,18,2022-01-25_21h35.23.007,lexical_decision_task_DD_L6,2021.2.3,MacIntel,60.0024001,,,,,,,,,,,1.1173,0,,,,,,,,,,,,,,,,,,,,,,,,-0.060173611,-0.360507813,0,0,0,,,,,,,RULER,C,old,y,./images/RULER.png,,,,,,,m,0,1.1173,,,,,,,,0,24,24,79,1
,,,,,,,,,,,,,,,,,199120,18,2022-01-25_21h35.23.007,lexical_decision_task_DD_L6,2021.2.3,MacIntel,60.0024001,,,,,,,,,,,2.2257,0,,,,,,,,,,,,,,,,,,,,,,,,-0.060173611,-0.360507813,0,0,0,,,,,,,BONNET,HB,new,y,./images/BONNETHB.png,,,,,,,m,0,2.2257,,,,,,,,0,25,25,95,1
,,,,,,,,,,,,,,,,,199120,18,2022-01-25_21h35.23.007,lexical_decision_task_DD_L6,2021.2.3,MacIntel,60.0024001,,,,,,,,,,,0.9654,0,,,,,,,,,,,,,,,,,,,,,,,,-0.060173611,-0.360507813,0,0,0,,,,,,,BIRTH,C,new,y,./images/BIRTH.png,,,,,,,z,0,0.9654,,,,,,,,0,26,26,121,1
,,,,,,,,,,,,,,,,,199120,18,2022-01-25_21h35.23.007,lexical_decision_task_DD_L6,2021.2.3,MacIntel,60.0024001,,,,,,,,,,,1.0827,0,,,,,,,,,,,,,,,,,,,,,,,,-0.060173611,-0.360507813,0,0,0,,,,,,,GREASE,LB,new,y,./images/GREASELB.png,,,,,,,z,0,1.0827,,,,,,,,0,27,27,99,1
,,,,,,,,,,,,,,,,,199120,18,2022-01-25_21h35.23.007,lexical_decision_task_DD_L6,2021.2.3,MacIntel,60.0024001,,,,,,,,,,,2.6588,0,,,,,,,,,,,,,,,,,,,,,,,,-0.060173611,-0.360507813,0,0,0,,,,,,,SAILOR,C,new,y,./images/SAILOR.png,,,,,,,m,0,2.6588,,,,,,,,0,28,28,151,1
,,,,,,,,,,,,,,,,,199120,18,2022-01-25_21h35.23.007,lexical_decision_task_DD_L6,2021.2.3,MacIntel,60.0024001,,,,,,,,,,,1.1564,0,,,,,,,,,,,,,,,,,,,,,,,,-0.060173611,-0.360507813,0,0,0,,,,,,,MOOSE,LB,new,y,./images/MOOSELB.png,,,,,,,m,0,1.1564,,,,,,,,0,29,29,141,1
,,,,,,,,,,,,,,,,,199120,18,2022-01-25_21h35.23.007,lexical_decision_task_DD_L6,2021.2.3,MacIntel,60.0024001,,,,,,,,,,,1.2012,0,,,,,,,,,,,,,,,,,,,,,,,,-0.060173611,-0.360507813,0,0,0,,,,,,,WEASEL,HB,new,y,./images/WEASELHB.png,,,,,,,z,0,1.2012,,,,,,,,0,30,30,164,1
,,,,,,,,,,,,,,,,,199120,18,2022-01-25_21h35.23.007,lexical_decision_task_DD_L6,2021.2.3,MacIntel,60.0024001,,,,,,,,,,,1.1993,0,,,,,,,,,,,,,,,,,,,,,,,,-0.060173611,-0.360507813,0,0,0,,,,,,,TOMATO,LB,new,y,./images/TOMATOLB.png,,,,,,,z,0,1.1993,,,,,,,,0,31,31,84,1
,,,,,,,,,,,,,,,,,199120,18,2022-01-25_21h35.23.007,lexical_decision_task_DD_L6,2021.2.3,MacIntel,60.0024001,,,,,,,,,,,1.4653,0,,,,,,,,,,,,,,,,,,,,,,,,-0.060173611,-0.360507813,0,0,0,,,,,,,STAIN,LB,old,y,./images/STAINLB.png,,,,,,,m,0,1.4653,,,,,,,,0,32,32,6,1
,,,,,,,,,,,,,,,,,199120,18,2022-01-25_21h35.23.007,lexical_decision_task_DD_L6,2021.2.3,MacIntel,60.0024001,,,,,,,,,,,1.483,0,,,,,,,,,,,,,,,,,,,,,,,,-0.060173611,-0.360507813,0,0,0,,,,,,,PACKET,HB,new,y,./images/PACKETHB.png,,,,,,,m,0,1.483,,,,,,,,0,33,33,140,1
,,,,,,,,,,,,,,,,,199120,18,2022-01-25_21h35.23.007,lexical_decision_task_DD_L6,2021.2.3,MacIntel,60.0024001,,,,,,,,,,,1.2684,0,,,,,,,,,,,,,,,,,,,,,,,,-0.060173611,-0.360507813,0,0,0,,,,,,,GRAIN,LB,new,y,./images/GRAINLB.png,,,,,,,z,0,1.2684,,,,,,,,0,34,34,159,1
,,,,,,,,,,,,,,,,,199120,18,2022-01-25_21h35.23.007,lexical_decision_task_DD_L6,2021.2.3,MacIntel,60.0024001,,,,,,,,,,,0.8898,0,,,,,,,,,,,,,,,,,,,,,,,,-0.060173611,-0.360507813,0,0,0,,,,,,,CLOTH,HB,old,y,./images/CLOTHHB.png,,,,,,,m,0,0.8898,,,,,,,,0,35,35,23,1
,,,,,,,,,,,,,,,,,199120,18,2022-01-25_21h35.23.007,lexical_decision_task_DD_L6,2021.2.3,MacIntel,60.0024001,,,,,,,,,,,0.9218,0,,,,,,,,,,,,,,,,,,,,,,,,-0.060173611,-0.360507813,0,0,0,,,,,,,BARREL,HB,new,y,./images/BARRELHB.png,,,,,,,m,0,0.9218,,,,,,,,0,36,36,116,1
,,,,,,,,,,,,,,,,,199120,18,2022-01-25_21h35.23.007,lexical_decision_task_DD_L6,2021.2.3,MacIntel,60.0024001,,,,,,,,,,,0.7666,0,,,,,,,,,,,,,,,,,,,,,,,,-0.060173611,-0.360507813,0,0,0,,,,,,,LAGOON,HB,old,y,./images/LAGOONHB.png,,,,,,,m,0,0.7666,,,,,,,,0,37,37,47,1
,,,,,,,,,,,,,,,,,199120,18,2022-01-25_21h35.23.007,lexical_decision_task_DD_L6,2021.2.3,MacIntel,60.0024001,,,,,,,,,,,0.7567,0,,,,,,,,,,,,,,,,,,,,,,,,-0.060173611,-0.360507813,0,0,0,,,,,,,FLESH,LB,old,y,./images/FLESHLB.png,,,,,,,m,0,0.7567,,,,,,,,0,38,38,24,1
,,,,,,,,,,,,,,,,,199120,18,2022-01-25_21h35.23.007,lexical_decision_task_DD_L6,2021.2.3,MacIntel,60.0024001,,,,,,,,,,,0.8983,0,,,,,,,,,,,,,,,,,,,,,,,,-0.060173611,-0.360507813,0,0,0,,,,,,,BROOM,LB,old,y,./images/BROOMLB.png,,,,,,,m,0,0.8983,,,,,,,,0,39,39,78,1
,,,,,,,,,,,,,,,,,199120,18,2022-01-25_21h35.23.007,lexical_decision_task_DD_L6,2021.2.3,MacIntel,60.0024001,,,,,,,,,,,1.4704,0,,,,,,,,,,,,,,,,,,,,,,,,-0.060173611,-0.360507813,0,0,0,,,,,,,CANYON,C,new,y,./images/CANYON.png,,,,,,,z,0,1.4704,,,,,,,,0,40,40,118,1
,,,,,,,,,,,,,,,,,199120,18,2022-01-25_21h35.23.007,lexical_decision_task_DD_L6,2021.2.3,MacIntel,60.0024001,,,,,,,,,,,0.9958,0,,,,,,,,,,,,,,,,,,,,,,,,-0.059461806,-0.412213542,1,0,0,,,,,,,MOSQUE,C,new,y,./images/MOSQUE.png,break_done_button,,,,,,z,0,0.9958,,,,,,,,0,41,41,127,1
,,,,,,,,,,,,,,,,,199120,18,2022-01-25_21h35.23.007,lexical_decision_task_DD_L6,2021.2.3,MacIntel,60.0024001,,,,,,,,,,,1.0718,0,,,,,,,,,,,,,,,,,,,,,,,,-0.059461806,-0.412769097,0,0,0,,,,,,,BASKET,HB,old,y,./images/BASKETHB.png,,,,,,,m,0,1.0718,,,,,,,,0,42,42,44,1
,,,,,,,,,,,,,,,,,199120,18,2022-01-25_21h35.23.007,lexical_decision_task_DD_L6,2021.2.3,MacIntel,60.0024001,,,,,,,,,,,1.4626,0,,,,,,,,,,,,,,,,,,,,,,,,-0.059461806,-0.412769097,0,0,0,,,,,,,TORCH,HB,new,y,./images/TORCHHB.png,,,,,,,m,0,1.4626,,,,,,,,0,43,43,152,1
,,,,,,,,,,,,,,,,,199120,18,2022-01-25_21h35.23.007,lexical_decision_task_DD_L6,2021.2.3,MacIntel,60.0024001,,,,,,,,,,,1.065,0,,,,,,,,,,,,,,,,,,,,,,,,-0.059461806,-0.412769097,0,0,0,,,,,,,CLOUD,HB,old,y,./images/CLOUDHB.png,,,,,,,m,0,1.065,,,,,,,,0,44,44,26,1
,,,,,,,,,,,,,,,,,199120,18,2022-01-25_21h35.23.007,lexical_decision_task_DD_L6,2021.2.3,MacIntel,60.0024001,,,,,,,,,,,0.7551,0,,,,,,,,,,,,,,,,,,,,,,,,-0.059461806,-0.412769097,0,0,0,,,,,,,BANANA,C,old,y,./images/BANANA.png,,,,,,,m,0,0.7551,,,,,,,,0,45,45,70,1
,,,,,,,,,,,,,,,,,199120,18,2022-01-25_21h35.23.007,lexical_decision_task_DD_L6,2021.2.3,MacIntel,60.0024001,,,,,,,,,,,1.1876,0,,,,,,,,,,,,,,,,,,,,,,,,-0.059461806,-0.412769097,0,0,0,,,,,,,NOOSE,LB,new,y,./images/NOOSELB.png,,,,,,,z,0,1.1876,,,,,,,,0,46,46,156,1
,,,,,,,,,,,,,,,,,199120,18,2022-01-25_21h35.23.007,lexical_decision_task_DD_L6,2021.2.3,MacIntel,60.0024001,,,,,,,,,,,0.9657,0,,,,,,,,,,,,,,,,,,,,,,,,-0.059461806,-0.412769097,0,0,0,,,,,,,BUNNY,C,old,y,./images/BUNNY.png,,,,,,,z,0,0.9657,,,,,,,,0,47,47,13,1
,,,,,,,,,,,,,,,,,199120,18,2022-01-25_21h35.23.007,lexical_decision_task_DD_L6,2021.2.3,MacIntel,60.0024001,,,,,,,,,,,0.807,0,,,,,,,,,,,,,,,,,,,,,,,,-0.059461806,-0.412769097,0,0,0,,,,,,,SQUARE,LB,new,y,./images/SQUARELB.png,,,,,,,z,0,0.807,,,,,,,,0,48,48,90,1
,,,,,,,,,,,,,,,,,199120,18,2022-01-25_21h35.23.007,lexical_decision_task_DD_L6,2021.2.3,MacIntel,60.0024001,,,,,,,,,,,1.2326,0,,,,,,,,,,,,,,,,,,,,,,,,-0.059461806,-0.412769097,0,0,0,,,,,,,MALLET,HB,new,y,./images/MALLETHB.png,,,,,,,z,0,1.2326,,,,,,,,0,49,49,134,1
,,,,,,,,,,,,,,,,,199120,18,2022-01-25_21h35.23.007,lexical_decision_task_DD_L6,2021.2.3,MacIntel,60.0024001,,,,,,,,,,,0.9082,0,,,,,,,,,,,,,,,,,,,,,,,,-0.059461806,-0.412769097,0,0,0,,,,,,,SPINE,HB,old,y,./images/SPINEHB.png,,,,,,,m,0,0.9082,,,,,,,,0,50,50,65,1
,,,,,,,,,,,,,,,,,199120,18,2022-01-25_21h35.23.007,lexical_decision_task_DD_L6,2021.2.3,MacIntel,60.0024001,,,,,,,,,,,0.9247,0,,,,,,,,,,,,,,,,,,,,,,,,-0.059461806,-0.412769097,0,0,0,,,,,,,DANCER,LB,old,y,./images/DANCERLB.png,,,,,,,m,0,0.9247,,,,,,,,0,51,51,21,1
,,,,,,,,,,,,,,,,,199120,18,2022-01-25_21h35.23.007,lexical_decision_task_DD_L6,2021.2.3,MacIntel,60.0024001,,,,,,,,,,,0.856,0,,,,,,,,,,,,,,,,,,,,,,,,-0.059461806,-0.412769097,0,0,0,,,,,,,BERRY,HB,new,y,./images/BERRYHB.png,,,,,,,z,0,0.856,,,,,,,,0,52,52,131,1
,,,,,,,,,,,,,,,,,199120,18,2022-01-25_21h35.23.007,lexical_decision_task_DD_L6,2021.2.3,MacIntel,60.0024001,,,,,,,,,,,0.8152,0,,,,,,,,,,,,,,,,,,,,,,,,-0.059461806,-0.412769097,0,0,0,,,,,,,PARCEL,LB,old,y,./images/PARCELLB.png,,,,,,,m,0,0.8152,,,,,,,,0,53,53,18,1
,,,,,,,,,,,,,,,,,199120,18,2022-01-25_21h35.23.007,lexical_decision_task_DD_L6,2021.2.3,MacIntel,60.0024001,,,,,,,,,,,0.9491,0,,,,,,,,,,,,,,,,,,,,,,,,-0.059461806,-0.412769097,0,0,0,,,,,,,CRUMB,HB,new,y,./images/CRUMBHB.png,,,,,,,m,0,0.9491,,,,,,,,0,54,54,113,1
,,,,,,,,,,,,,,,,,199120,18,2022-01-25_21h35.23.007,lexical_decision_task_DD_L6,2021.2.3,MacIntel,60.0024001,,,,,,,,,,,0.8002,0,,,,,,,,,,,,,,,,,,,,,,,,-0.059461806,-0.412769097,0,0,0,,,,,,,HOCKEY,HB,old,y,./images/HOCKEYHB.png,,,,,,,m,0,0.8002,,,,,,,,0,55,55,32,1
,,,,,,,,,,,,,,,,,199120,18,2022-01-25_21h35.23.007,lexical_decision_task_DD_L6,2021.2.3,MacIntel,60.0024001,,,,,,,,,,,0.7373,0,,,,,,,,,,,,,,,,,,,,,,,,-0.059461806,-0.412769097,0,0,0,,,,,,,BRIDE,C,old,y,./images/BRIDE.png,,,,,,,m,0,0.7373,,,,,,,,0,56,56,64,1
,,,,,,,,,,,,,,,,,199120,18,2022-01-25_21h35.23.007,lexical_decision_task_DD_L6,2021.2.3,MacIntel,60.0024001,,,,,,,,,,,0.7364,0,,,,,,,,,,,,,,,,,,,,,,,,-0.059461806,-0.412769097,0,0,0,,,,,,,CANDY,LB,old,y,./images/CANDYLB.png,,,,,,,m,0,0.7364,,,,,,,,0,57,57,39,1
,,,,,,,,,,,,,,,,,199120,18,2022-01-25_21h35.23.007,lexical_decision_task_DD_L6,2021.2.3,MacIntel,60.0024001,,,,,,,,,,,1.6511,0,,,,,,,,,,,,,,,,,,,,,,,,-0.059461806,-0.412769097,0,0,0,,,,,,,STRING,HB,new,y,./images/STRINGHB.png,,,,,,,z,0,1.6511,,,,,,,,0,58,58,125,1
,,,,,,,,,,,,,,,,,199120,18,2022-01-25_21h35.23.007,lexical_decision_task_DD_L6,2021.2.3,MacIntel,60.0024001,,,,,,,,,,,1.1709,0,,,,,,,,,,,,,,,,,,,,,,,,-0.059461806,-0.412769097,0,0,0,,,,,,,CANOE,C,old,y,./images/CANOE.png,,,,,,,m,0,1.1709,,,,,,,,0,59,59,58,1
,,,,,,,,,,,,,,,,,199120,18,2022-01-25_21h35.23.007,lexical_decision_task_DD_L6,2021.2.3,MacIntel,60.0024001,,,,,,,,,,,0.9999,0,,,,,,,,,,,,,,,,,,,,,,,,-0.059461806,-0.412769097,0,0,0,,,,,,,LITTER,LB,new,y,./images/LITTERLB.png,,,,,,,z,0,0.9999,,,,,,,,0,60,60,162,1
,,,,,,,,,,,,,,,,,199120,18,2022-01-25_21h35.23.007,lexical_decision_task_DD_L6,2021.2.3,MacIntel,60.0024001,,,,,,,,,,,1.9502,0,,,,,,,,,,,,,,,,,,,,,,,,-0.059461806,-0.412769097,0,0,0,,,,,,,BLOKE,LB,old,y,./images/BLOKELB.png,,,,,,,z,0,1.9502,,,,,,,,0,61,61,12,1
,,,,,,,,,,,,,,,,,199120,18,2022-01-25_21h35.23.007,lexical_decision_task_DD_L6,2021.2.3,MacIntel,60.0024001,,,,,,,,,,,0.8931,0,,,,,,,,,,,,,,,,,,,,,,,,-0.059461806,-0.412769097,0,0,0,,,,,,,PASTA,HB,new,y,./images/PASTAHB.png,,,,,,,z,0,0.8931,,,,,,,,0,62,62,89,1
,,,,,,,,,,,,,,,,,199120,18,2022-01-25_21h35.23.007,lexical_decision_task_DD_L6,2021.2.3,MacIntel,60.0024001,,,,,,,,,,,2.7169,0,,,,,,,,,,,,,,,,,,,,,,,,-0.059461806,-0.412769097,0,0,0,,,,,,,SWEAT,LB,new,y,./images/SWEATLB.png,,,,,,,z,0,2.7169,,,,,,,,0,63,63,150,1
,,,,,,,,,,,,,,,,,199120,18,2022-01-25_21h35.23.007,lexical_decision_task_DD_L6,2021.2.3,MacIntel,60.0024001,,,,,,,,,,,0.6647,0,,,,,,,,,,,,,,,,,,,,,,,,-0.059461806,-0.412769097,0,0,0,,,,,,,GARDEN,C,old,y,./images/GARDEN.png,,,,,,,m,0,0.6647,,,,,,,,0,64,64,10,1
,,,,,,,,,,,,,,,,,199120,18,2022-01-25_21h35.23.007,lexical_decision_task_DD_L6,2021.2.3,MacIntel,60.0024001,,,,,,,,,,,1.2055,0,,,,,,,,,,,,,,,,,,,,,,,,-0.059461806,-0.412769097,0,0,0,,,,,,,BOILER,LB,old,y,./images/BOILERLB.png,,,,,,,m,0,1.2055,,,,,,,,0,65,65,36,1
,,,,,,,,,,,,,,,,,199120,18,2022-01-25_21h35.23.007,lexical_decision_task_DD_L6,2021.2.3,MacIntel,60.0024001,,,,,,,,,,,0.9358,0,,,,,,,,,,,,,,,,,,,,,,,,-0.059461806,-0.412769097,0,0,0,,,,,,,MELON,C,new,y,./images/MELON.png,,,,,,,z,0,0.9358,,,,,,,,0,66,66,106,1
,,,,,,,,,,,,,,,,,199120,18,2022-01-25_21h35.23.007,lexical_decision_task_DD_L6,2021.2.3,MacIntel,60.0024001,,,,,,,,,,,0.8898,0,,,,,,,,,,,,,,,,,,,,,,,,-0.059461806,-0.412769097,0,0,0,,,,,,,FOLDER,LB,new,y,./images/FOLDERLB.png,,,,,,,m,0,0.8898,,,,,,,,0,67,67,126,1
,,,,,,,,,,,,,,,,,199120,18,2022-01-25_21h35.23.007,lexical_decision_task_DD_L6,2021.2.3,MacIntel,60.0024001,,,,,,,,,,,2.3699,0,,,,,,,,,,,,,,,,,,,,,,,,-0.059461806,-0.412769097,0,0,0,,,,,,,CEMENT,HB,new,y,./images/CEMENTHB.png,,,,,,,z,0,2.3699,,,,,,,,0,68,68,158,1
,,,,,,,,,,,,,,,,,199120,18,2022-01-25_21h35.23.007,lexical_decision_task_DD_L6,2021.2.3,MacIntel,60.0024001,,,,,,,,,,,0.9488,0,,,,,,,,,,,,,,,,,,,,,,,,-0.059461806,-0.412769097,0,0,0,,,,,,,FINGER,LB,new,y,./images/FINGERLB.png,,,,,,,z,0,0.9488,,,,,,,,0,69,69,87,1
,,,,,,,,,,,,,,,,,199120,18,2022-01-25_21h35.23.007,lexical_decision_task_DD_L6,2021.2.3,MacIntel,60.0024001,,,,,,,,,,,1.0831,0,,,,,,,,,,,,,,,,,,,,,,,,-0.059461806,-0.412769097,0,0,0,,,,,,,LADDER,HB,new,y,./images/LADDERHB.png,,,,,,,m,0,1.0831,,,,,,,,0,70,70,122,1
,,,,,,,,,,,,,,,,,199120,18,2022-01-25_21h35.23.007,lexical_decision_task_DD_L6,2021.2.3,MacIntel,60.0024001,,,,,,,,,,,0.9536,0,,,,,,,,,,,,,,,,,,,,,,,,-0.059461806,-0.412769097,0,0,0,,,,,,,STEAK,C,old,y,./images/STEAK.png,,,,,,,m,0,0.9536,,,,,,,,0,71,71,31,1
,,,,,,,,,,,,,,,,,199120,18,2022-01-25_21h35.23.007,lexical_decision_task_DD_L6,2021.2.3,MacIntel,60.0024001,,,,,,,,,,,0.9826,0,,,,,,,,,,,,,,,,,,,,,,,,-0.059461806,-0.412769097,0,0,0,,,,,,,JELLY,C,new,y,./images/JELLY.png,,,,,,,z,0,0.9826,,,,,,,,0,72,72,148,1
,,,,,,,,,,,,,,,,,199120,18,2022-01-25_21h35.23.007,lexical_decision_task_DD_L6,2021.2.3,MacIntel,60.0024001,,,,,,,,,,,1.1236,0,,,,,,,,,,,,,,,,,,,,,,,,-0.059461806,-0.412769097,0,0,0,,,,,,,JUMPER,HB,old,y,./images/JUMPERHB.png,,,,,,,m,0,1.1236,,,,,,,,0,73,73,74,1
,,,,,,,,,,,,,,,,,199120,18,2022-01-25_21h35.23.007,lexical_decision_task_DD_L6,2021.2.3,MacIntel,60.0024001,,,,,,,,,,,0.9071,0,,,,,,,,,,,,,,,,,,,,,,,,-0.059461806,-0.412769097,0,0,0,,,,,,,PEACH,HB,new,y,./images/PEACHHB.png,,,,,,,z,0,0.9071,,,,,,,,0,74,74,119,1
,,,,,,,,,,,,,,,,,199120,18,2022-01-25_21h35.23.007,lexical_decision_task_DD_L6,2021.2.3,MacIntel,60.0024001,,,,,,,,,,,0.7993,0,,,,,,,,,,,,,,,,,,,,,,,,-0.059461806,-0.412769097,0,0,0,,,,,,,CASINO,C,old,y,./images/CASINO.png,,,,,,,m,0,0.7993,,,,,,,,0,75,75,28,1
,,,,,,,,,,,,,,,,,199120,18,2022-01-25_21h35.23.007,lexical_decision_task_DD_L6,2021.2.3,MacIntel,60.0024001,,,,,,,,,,,0.9695,0,,,,,,,,,,,,,,,,,,,,,,,,-0.059461806,-0.412769097,0,0,0,,,,,,,BUTTER,LB,old,y,./images/BUTTERLB.png,,,,,,,m,0,0.9695,,,,,,,,0,76,76,27,1
,,,,,,,,,,,,,,,,,199120,18,2022-01-25_21h35.23.007,lexical_decision_task_DD_L6,2021.2.3,MacIntel,60.0024001,,,,,,,,,,,1.0159,0,,,,,,,,,,,,,,,,,,,,,,,,-0.059461806,-0.412769097,0,0,0,,,,,,,URINE,C,new,y,./images/URINE.png,,,,,,,z,0,1.0159,,,,,,,,0,77,77,154,1
,,,,,,,,,,,,,,,,,199120,18,2022-01-25_21h35.23.007,lexical_decision_task_DD_L6,2021.2.3,MacIntel,60.0024001,,,,,,,,,,,0.8732,0,,,,,,,,,,,,,,,,,,,,,,,,-0.059461806,-0.412769097,0,0,0,,,,,,,SUNSET,C,new,y,./images/SUNSET.png,,,,,,,z,0,0.8732,,,,,,,,0,78,78,166,1
,,,,,,,,,,,,,,,,,199120,18,2022-01-25_21h35.23.007,lexical_decision_task_DD_L6,2021.2.3,MacIntel,60.0024001,,,,,,,,,,,1.0649,0,,,,,,,,,,,,,,,,,,,,,,,,-0.059461806,-0.412769097,0,0,0,,,,,,,SKIING,HB,new,y,./images/SKIINGHB.png,,,,,,,z,0,1.0649,,,,,,,,0,79,79,101,1
,,,,,,,,,,,,,,,,,199120,18,2022-01-25_21h35.23.007,lexical_decision_task_DD_L6,2021.2.3,MacIntel,60.0024001,,,,,,,,,,,0.7826,0,,,,,,,,,,,,,,,,,,,,,,,,-0.059461806,-0.412769097,0,0,0,,,,,,,CLIFF,HB,old,y,./images/CLIFFHB.png,,,,,,,m,0,0.7826,,,,,,,,0,80,80,8,1
,,,,,,,,,,,,,,,,,199120,18,2022-01-25_21h35.23.007,lexical_decision_task_DD_L6,2021.2.3,MacIntel,60.0024001,,,,,,,,,,,0.7155,0,,,,,,,,,,,,,,,,,,,,,,,,-0.059461806,-0.412769097,0,0,0,,,,,,,BISHOP,C,old,y,./images/BISHOP.png,,,,,,,m,0,0.7155,,,,,,,,0,81,81,49,1
,,,,,,,,,,,,,,,,,199120,18,2022-01-25_21h35.23.007,lexical_decision_task_DD_L6,2021.2.3,MacIntel,60.0024001,,,,,,,,,,,0.7017,0,,,,,,,,,,,,,,,,,,,,,,,,-0.059461806,-0.412769097,0,0,0,,,,,,,FLASK,LB,old,y,./images/FLASKLB.png,,,,,,,m,0,0.7017,,,,,,,,0,82,82,72,1
,,,,,,,,,,,,,,,,,199120,18,2022-01-25_21h35.23.007,lexical_decision_task_DD_L6,2021.2.3,MacIntel,60.0024001,,,,,,,,,,,2.426,0,,,,,,,,,,,,,,,,,,,,,,,,-0.026636285,-0.393528646,1,0,0,,,,,,,MAGGOT,LB,new,y,./images/MAGGOTLB.png,break_done_button,,,,,,z,0,2.426,,,,,,,,0,83,83,117,1
,,,,,,,,,,,,,,,,,199120,18,2022-01-25_21h35.23.007,lexical_decision_task_DD_L6,2021.2.3,MacIntel,60.0024001,,,,,,,,,,,0.8985,0,,,,,,,,,,,,,,,,,,,,,,,,-0.026636285,-0.393528646,0,0,0,,,,,,,RAZOR,C,old,y,./images/RAZOR.png,,,,,,,m,0,0.8985,,,,,,,,0,84,84,34,1
,,,,,,,,,,,,,,,,,199120,18,2022-01-25_21h35.23.007,lexical_decision_task_DD_L6,2021.2.3,MacIntel,60.0024001,,,,,,,,,,,3.016,0,,,,,,,,,,,,,,,,,,,,,,,,-0.026636285,-0.393528646,0,0,0,,,,,,,ONION,LB,new,y,./images/ONIONLB.png,,,,,,,z,0,3.016,,,,,,,,0,85,85,135,1
,,,,,,,,,,,,,,,,,199120,18,2022-01-25_21h35.23.007,lexical_decision_task_DD_L6,2021.2.3,MacIntel,60.0024001,,,,,,,,,,,1.5382,0,,,,,,,,,,,,,,,,,,,,,,,,-0.026636285,-0.393528646,0,0,0,,,,,,,CRATER,LB,old,y,./images/CRATERLB.png,,,,,,,m,0,1.5382,,,,,,,,0,86,86,3,1
,,,,,,,,,,,,,,,,,199120,18,2022-01-25_21h35.23.007,lexical_decision_task_DD_L6,2021.2.3,MacIntel,60.0024001,,,,,,,,,,,1.8986,0,,,,,,,,,,,,,,,,,,,,,,,,-0.026636285,-0.393528646,0,0,0,,,,,,,PAINT,C,new,y,./images/PAINT.png,,,,,,,z,0,1.8986,,,,,,,,0,87,87,91,1
,,,,,,,,,,,,,,,,,199120,18,2022-01-25_21h35.23.007,lexical_decision_task_DD_L6,2021.2.3,MacIntel,60.0024001,,,,,,,,,,,1.4819,0,,,,,,,,,,,,,,,,,,,,,,,,-0.026636285,-0.393528646,0,0,0,,,,,,,PEARL,C,new,y,./images/PEARL.png,,,,,,,m,0,1.4819,,,,,,,,0,88,88,130,1
,,,,,,,,,,,,,,,,,199120,18,2022-01-25_21h35.23.007,lexical_decision_task_DD_L6,2021.2.3,MacIntel,60.0024001,,,,,,,,,,,0.739,0,,,,,,,,,,,,,,,,,,,,,,,,-0.026636285,-0.393528646,0,0,0,,,,,,,FENCE,HB,old,y,./images/FENCEHB.png,,,,,,,m,0,0.739,,,,,,,,0,89,89,14,1
,,,,,,,,,,,,,,,,,199120,18,2022-01-25_21h35.23.007,lexical_decision_task_DD_L6,2021.2.3,MacIntel,60.0024001,,,,,,,,,,,1.3995,0,,,,,,,,,,,,,,,,,,,,,,,,-0.026636285,-0.393528646,0,0,0,,,,,,,MEDAL,HB,old,y,./images/MEDALHB.png,,,,,,,m,0,1.3995,,,,,,,,0,90,90,11,1
,,,,,,,,,,,,,,,,,199120,18,2022-01-25_21h35.23.007,lexical_decision_task_DD_L6,2021.2.3,MacIntel,60.0024001,,,,,,,,,,,0.6851,0,,,,,,,,,,,,,,,,,,,,,,,,-0.026636285,-0.393528646,0,0,0,,,,,,,CLOWN,C,old,y,./images/CLOWN.png,,,,,,,m,0,0.6851,,,,,,,,0,91,91,22,1
,,,,,,,,,,,,,,,,,199120,18,2022-01-25_21h35.23.007,lexical_decision_task_DD_L6,2021.2.3,MacIntel,60.0024001,,,,,,,,,,,0.9375,0,,,,,,,,,,,,,,,,,,,,,,,,-0.026636285,-0.393528646,0,0,0,,,,,,,CANDLE,C,new,y,./images/CANDLE.png,,,,,,,m,0,0.9375,,,,,,,,0,92,92,145,1
,,,,,,,,,,,,,,,,,199120,18,2022-01-25_21h35.23.007,lexical_decision_task_DD_L6,2021.2.3,MacIntel,60.0024001,,,,,,,,,,,1.0992,0,,,,,,,,,,,,,,,,,,,,,,,,-0.026636285,-0.393528646,0,0,0,,,,,,,STREAM,HB,old,y,./images/STREAMHB.png,,,,,,,m,0,1.0992,,,,,,,,0,93,93,41,1
,,,,,,,,,,,,,,,,,199120,18,2022-01-25_21h35.23.007,lexical_decision_task_DD_L6,2021.2.3,MacIntel,60.0024001,,,,,,,,,,,1.7542,0,,,,,,,,,,,,,,,,,,,,,,,,-0.026636285,-0.393528646,0,0,0,,,,,,,CHAIN,LB,old,y,./images/CHAINLB.png,,,,,,,m,0,1.7542,,,,,,,,0,94,94,42,1
,,,,,,,,,,,,,,,,,199120,18,2022-01-25_21h35.23.007,lexical_decision_task_DD_L6,2021.2.3,MacIntel,60.0024001,,,,,,,,,,,0.8231,0,,,,,,,,,,,,,,,,,,,,,,,,-0.026636285,-0.393528646,0,0,0,,,,,,,DRILL,LB,old,y,./images/DRILLLB.png,,,,,,,m,0,0.8231,,,,,,,,0,95,95,81,1
,,,,,,,,,,,,,,,,,199120,18,2022-01-25_21h35.23.007,lexical_decision_task_DD_L6,2021.2.3,MacIntel,60.0024001,,,,,,,,,,,0.7904,0,,,,,,,,,,,,,,,,,,,,,,,,-0.026636285,-0.393528646,0,0,0,,,,,,,MUFFIN,C,new,y,./images/MUFFIN.png,,,,,,,z,0,0.7904,,,,,,,,0,96,96,139,1
,,,,,,,,,,,,,,,,,199120,18,2022-01-25_21h35.23.007,lexical_decision_task_DD_L6,2021.2.3,MacIntel,60.0024001,,,,,,,,,,,0.8412,0,,,,,,,,,,,,,,,,,,,,,,,,-0.026636285,-0.393528646,0,0,0,,,,,,,WHISKY,HB,old,y,./images/WHISKYHB.png,,,,,,,m,0,0.8412,,,,,,,,0,97,97,83,1
,,,,,,,,,,,,,,,,,199120,18,2022-01-25_21h35.23.007,lexical_decision_task_DD_L6,2021.2.3,MacIntel,60.0024001,,,,,,,,,,,1.6031,0,,,,,,,,,,,,,,,,,,,,,,,,-0.026636285,-0.393528646,0,0,0,,,,,,,PICKLE,HB,new,y,./images/PICKLEHB.png,,,,,,,z,0,1.6031,,,,,,,,0,98,98,98,1
,,,,,,,,,,,,,,,,,199120,18,2022-01-25_21h35.23.007,lexical_decision_task_DD_L6,2021.2.3,MacIntel,60.0024001,,,,,,,,,,,1.6159,0,,,,,,,,,,,,,,,,,,,,,,,,-0.026636285,-0.393528646,0,0,0,,,,,,,COUCH,HB,new,y,./images/COUCHHB.png,,,,,,,z,0,1.6159,,,,,,,,0,99,99,161,1
,,,,,,,,,,,,,,,,,199120,18,2022-01-25_21h35.23.007,lexical_decision_task_DD_L6,2021.2.3,MacIntel,60.0024001,,,,,,,,,,,0.8208,0,,,,,,,,,,,,,,,,,,,,,,,,-0.026636285,-0.393528646,0,0,0,,,,,,,SLOPE,LB,old,y,./images/SLOPELB.png,,,,,,,m,0,0.8208,,,,,,,,0,100,100,30,1
,,,,,,,,,,,,,,,,,199120,18,2022-01-25_21h35.23.007,lexical_decision_task_DD_L6,2021.2.3,MacIntel,60.0024001,,,,,,,,,,,0.7821,0,,,,,,,,,,,,,,,,,,,,,,,,-0.026636285,-0.393528646,0,0,0,,,,,,,GLOVE,C,old,y,./images/GLOVE.png,,,,,,,z,0,0.7821,,,,,,,,0,101,101,73,1
,,,,,,,,,,,,,,,,,199120,18,2022-01-25_21h35.23.007,lexical_decision_task_DD_L6,2021.2.3,MacIntel,60.0024001,,,,,,,,,,,0.7056,0,,,,,,,,,,,,,,,,,,,,,,,,-0.026636285,-0.393528646,0,0,0,,,,,,,WAGON,C,old,y,./images/WAGON.png,,,,,,,m,0,0.7056,,,,,,,,0,102,102,7,1
,,,,,,,,,,,,,,,,,199120,18,2022-01-25_21h35.23.007,lexical_decision_task_DD_L6,2021.2.3,MacIntel,60.0024001,,,,,,,,,,,0.9139,0,,,,,,,,,,,,,,,,,,,,,,,,-0.026636285,-0.393528646,0,0,0,,,,,,,STATUE,LB,old,y,./images/STATUELB.png,,,,,,,m,0,0.9139,,,,,,,,0,103,103,66,1
,,,,,,,,,,,,,,,,,199120,18,2022-01-25_21h35.23.007,lexical_decision_task_DD_L6,2021.2.3,MacIntel,60.0024001,,,,,,,,,,,1,0,,,,,,,,,,,,,,,,,,,,,,,,-0.026636285,-0.393528646,0,0,0,,,,,,,STOVE,HB,old,y,./images/STOVEHB.png,,,,,,,m,0,1,,,,,,,,0,104,104,2,1
,,,,,,,,,,,,,,,,,199120,18,2022-01-25_21h35.23.007,lexical_decision_task_DD_L6,2021.2.3,MacIntel,60.0024001,,,,,,,,,,,1.032,0,,,,,,,,,,,,,,,,,,,,,,,,-0.026636285,-0.393528646,0,0,0,,,,,,,SHELF,LB,new,y,./images/SHELFLB.png,,,,,,,m,0,1.032,,,,,,,,0,105,105,123,1
,,,,,,,,,,,,,,,,,199120,18,2022-01-25_21h35.23.007,lexical_decision_task_DD_L6,2021.2.3,MacIntel,60.0024001,,,,,,,,,,,0.7646,0,,,,,,,,,,,,,,,,,,,,,,,,-0.026636285,-0.393528646,0,0,0,,,,,,,BURIAL,HB,new,y,./images/BURIALHB.png,,,,,,,z,0,0.7646,,,,,,,,0,106,106,143,1
,,,,,,,,,,,,,,,,,199120,18,2022-01-25_21h35.23.007,lexical_decision_task_DD_L6,2021.2.3,MacIntel,60.0024001,,,,,,,,,,,0.9481,0,,,,,,,,,,,,,,,,,,,,,,,,-0.026636285,-0.393528646,0,0,0,,,,,,,SCREW,LB,new,y,./images/SCREWLB.png,,,,,,,z,0,0.9481,,,,,,,,0,107,107,108,1
,,,,,,,,,,,,,,,,,199120,18,2022-01-25_21h35.23.007,lexical_decision_task_DD_L6,2021.2.3,MacIntel,60.0024001,,,,,,,,,,,0.8145,0,,,,,,,,,,,,,,,,,,,,,,,,-0.026636285,-0.393528646,0,0,0,,,,,,,HAMMER,LB,old,y,./images/HAMMERLB.png,,,,,,,m,0,0.8145,,,,,,,,0,108,108,75,1
,,,,,,,,,,,,,,,,,199120,18,2022-01-25_21h35.23.007,lexical_decision_task_DD_L6,2021.2.3,MacIntel,60.0024001,,,,,,,,,,,0.9505,0,,,,,,,,,,,,,,,,,,,,,,,,-0.026636285,-0.393528646,0,0,0,,,,,,,COLLAR,LB,old,y,./images/COLLARLB.png,,,,,,,m,0,0.9505,,,,,,,,0,109,109,15,1
,,,,,,,,,,,,,,,,,199120,18,2022-01-25_21h35.23.007,lexical_decision_task_DD_L6,2021.2.3,MacIntel,60.0024001,,,,,,,,,,,0.7715,0,,,,,,,,,,,,,,,,,,,,,,,,-0.026636285,-0.393528646,0,0,0,,,,,,,BRUSH,HB,old,y,./images/BRUSHHB.png,,,,,,,m,0,0.7715,,,,,,,,0,110,110,59,1
,,,,,,,,,,,,,,,,,199120,18,2022-01-25_21h35.23.007,lexical_decision_task_DD_L6,2021.2.3,MacIntel,60.0024001,,,,,,,,,,,0.7685,0,,,,,,,,,,,,,,,,,,,,,,,,-0.026636285,-0.393528646,0,0,0,,,,,,,MAMMAL,HB,old,y,./images/MAMMALHB.png,,,,,,,m,0,0.7685,,,,,,,,0,111,111,62,1
,,,,,,,,,,,,,,,,,199120,18,2022-01-25_21h35.23.007,lexical_decision_task_DD_L6,2021.2.3,MacIntel,60.0024001,,,,,,,,,,,0.7817,0,,,,,,,,,,,,,,,,,,,,,,,,-0.026636285,-0.393528646,0,0,0,,,,,,,PARADE,HB,old,y,./images/PARADEHB.png,,,,,,,m,0,0.7817,,,,,,,,0,112,112,17,1
,,,,,,,,,,,,,,,,,199120,18,2022-01-25_21h35.23.007,lexical_decision_task_DD_L6,2021.2.3,MacIntel,60.0024001,,,,,,,,,,,2.0178,0,,,,,,,,,,,,,,,,,,,,,,,,-0.026636285,-0.393528646,0,0,0,,,,,,,COOKER,LB,new,y,./images/COOKERLB.png,,,,,,,z,0,2.0178,,,,,,,,0,113,113,153,1
,,,,,,,,,,,,,,,,,199120,18,2022-01-25_21h35.23.007,lexical_decision_task_DD_L6,2021.2.3,MacIntel,60.0024001,,,,,,,,,,,0.8979,0,,,,,,,,,,,,,,,,,,,,,,,,-0.026636285,-0.393528646,0,0,0,,,,,,,HEATER,HB,old,y,./images/HEATERHB.png,,,,,,,m,0,0.8979,,,,,,,,0,114,114,56,1
,,,,,,,,,,,,,,,,,199120,18,2022-01-25_21h35.23.007,lexical_decision_task_DD_L6,2021.2.3,MacIntel,60.0024001,,,,,,,,,,,0.6508,0,,,,,,,,,,,,,,,,,,,,,,,,-0.026636285,-0.393528646,0,0,0,,,,,,,TOWEL,C,old,y,./images/TOWEL.png,,,,,,,m,0,0.6508,,,,,,,,0,115,115,1,1
,,,,,,,,,,,,,,,,,199120,18,2022-01-25_21h35.23.007,lexical_decision_task_DD_L6,2021.2.3,MacIntel,60.0024001,,,,,,,,,,,1.2477,0,,,,,,,,,,,,,,,,,,,,,,,,-0.026636285,-0.393528646,0,0,0,,,,,,,TIGER,C,old,y,./images/TIGER.png,,,,,,,m,0,1.2477,,,,,,,,0,116,116,37,1
,,,,,,,,,,,,,,,,,199120,18,2022-01-25_21h35.23.007,lexical_decision_task_DD_L6,2021.2.3,MacIntel,60.0024001,,,,,,,,,,,0.834,0,,,,,,,,,,,,,,,,,,,,,,,,-0.026636285,-0.393528646,0,0,0,,,,,,,STOOL,C,old,y,./images/STOOL.png,,,,,,,m,0,0.834,,,,,,,,0,117,117,43,1
,,,,,,,,,,,,,,,,,199120,18,2022-01-25_21h35.23.007,lexical_decision_task_DD_L6,2021.2.3,MacIntel,60.0024001,,,,,,,,,,,0.6678,0,,,,,,,,,,,,,,,,,,,,,,,,-0.026636285,-0.393528646,0,0,0,,,,,,,TULIP,HB,new,y,./images/TULIPHB.png,,,,,,,z,0,0.6678,,,,,,,,0,118,118,92,1
,,,,,,,,,,,,,,,,,199120,18,2022-01-25_21h35.23.007,lexical_decision_task_DD_L6,2021.2.3,MacIntel,60.0024001,,,,,,,,,,,0.8159,0,,,,,,,,,,,,,,,,,,,,,,,,-0.026636285,-0.393528646,0,0,0,,,,,,,ALLEY,C,old,y,./images/ALLEY.png,,,,,,,m,0,0.8159,,,,,,,,0,119,119,55,1
,,,,,,,,,,,,,,,,,199120,18,2022-01-25_21h35.23.007,lexical_decision_task_DD_L6,2021.2.3,MacIntel,60.0024001,,,,,,,,,,,0.7422,0,,,,,,,,,,,,,,,,,,,,,,,,-0.026636285,-0.393528646,0,0,0,,,,,,,PIMPLE,HB,new,y,./images/PIMPLEHB.png,,,,,,,z,0,0.7422,,,,,,,,0,120,120,155,1
,,,,,,,,,,,,,,,,,199120,18,2022-01-25_21h35.23.007,lexical_decision_task_DD_L6,2021.2.3,MacIntel,60.0024001,,,,,,,,,,,1.534,0,,,,,,,,,,,,,,,,,,,,,,,,-0.026636285,-0.393528646,0,0,0,,,,,,,FERRY,LB,old,y,./images/FERRYLB.png,,,,,,,z,0,1.534,,,,,,,,0,121,121,57,1
,,,,,,,,,,,,,,,,,199120,18,2022-01-25_21h35.23.007,lexical_decision_task_DD_L6,2021.2.3,MacIntel,60.0024001,,,,,,,,,,,0.8168,0,,,,,,,,,,,,,,,,,,,,,,,,-0.026636285,-0.393528646,0,0,0,,,,,,,CHALK,C,old,y,./images/CHALK.png,,,,,,,m,0,0.8168,,,,,,,,0,122,122,25,1
,,,,,,,,,,,,,,,,,199120,18,2022-01-25_21h35.23.007,lexical_decision_task_DD_L6,2021.2.3,MacIntel,60.0024001,,,,,,,,,,,0.7324,0,,,,,,,,,,,,,,,,,,,,,,,,-0.026636285,-0.393528646,0,0,0,,,,,,,SNACK,C,new,y,./images/SNACK.png,,,,,,,z,0,0.7324,,,,,,,,0,123,123,157,1
,,,,,,,,,,,,,,,,,199120,18,2022-01-25_21h35.23.007,lexical_decision_task_DD_L6,2021.2.3,MacIntel,60.0024001,,,,,,,,,,,0.6822,0,,,,,,,,,,,,,,,,,,,,,,,,-0.026636285,-0.393528646,0,0,0,,,,,,,BANNER,C,new,y,./images/BANNER.png,,,,,,,m,0,0.6822,,,,,,,,0,124,124,136,1
,,,,,,,,,,,,,,,,,199120,18,2022-01-25_21h35.23.007,lexical_decision_task_DD_L6,2021.2.3,MacIntel,60.0024001,,,,,,,,,,,0.8415,0,,,,,,,,,,,,,,,,,,,,,,,,0.002408854,-0.397834201,1,0,0,,,,,,,CRADLE,HB,new,y,./images/CRADLEHB.png,break_done_button,,,,,,m,0,0.8415,,,,,,,,0,125,125,104,1
,,,,,,,,,,,,,,,,,199120,18,2022-01-25_21h35.23.007,lexical_decision_task_DD_L6,2021.2.3,MacIntel,60.0024001,,,,,,,,,,,3.1243,0,,,,,,,,,,,,,,,,,,,,,,,,0.002408854,-0.397834201,0,0,0,,,,,,,ARTIST,C,old,y,./images/ARTIST.png,,,,,,,m,0,3.1243,,,,,,,,0,126,126,61,1
,,,,,,,,,,,,,,,,,199120,18,2022-01-25_21h35.23.007,lexical_decision_task_DD_L6,2021.2.3,MacIntel,60.0024001,,,,,,,,,,,3.915,0,,,,,,,,,,,,,,,,,,,,,,,,0.002408854,-0.397834201,0,0,0,,,,,,,SWING,C,new,y,./images/SWING.png,,,,,,,z,0,3.915,,,,,,,,0,127,127,124,1
,,,,,,,,,,,,,,,,,199120,18,2022-01-25_21h35.23.007,lexical_decision_task_DD_L6,2021.2.3,MacIntel,60.0024001,,,,,,,,,,,0.8253,0,,,,,,,,,,,,,,,,,,,,,,,,0.002408854,-0.397834201,0,0,0,,,,,,,SHORE,LB,new,y,./images/SHORELB.png,,,,,,,z,0,0.8253,,,,,,,,0,128,128,96,1
,,,,,,,,,,,,,,,,,199120,18,2022-01-25_21h35.23.007,lexical_decision_task_DD_L6,2021.2.3,MacIntel,60.0024001,,,,,,,,,,,0.9029,0,,,,,,,,,,,,,,,,,,,,,,,,0.002408854,-0.397834201,0,0,0,,,,,,,QUILL,C,new,y,./images/QUILL.png,,,,,,,z,0,0.9029,,,,,,,,0,129,129,115,1
,,,,,,,,,,,,,,,,,199120,18,2022-01-25_21h35.23.007,lexical_decision_task_DD_L6,2021.2.3,MacIntel,60.0024001,,,,,,,,,,,0.6841,0,,,,,,,,,,,,,,,,,,,,,,,,0.002408854,-0.397834201,0,0,0,,,,,,,MUSCLE,C,new,y,./images/MUSCLE.png,,,,,,,z,0,0.6841,,,,,,,,0,130,130,88,1
,,,,,,,,,,,,,,,,,199120,18,2022-01-25_21h35.23.007,lexical_decision_task_DD_L6,2021.2.3,MacIntel,60.0024001,,,,,,,,,,,0.6494,0,,,,,,,,,,,,,,,,,,,,,,,,0.002408854,-0.397834201,0,0,0,,,,,,,DONKEY,C,old,y,./images/DONKEY.png,,,,,,,m,0,0.6494,,,,,,,,0,131,131,19,1
,,,,,,,,,,,,,,,,,199120,18,2022-01-25_21h35.23.007,lexical_decision_task_DD_L6,2021.2.3,MacIntel,60.0024001,,,,,,,,,,,0.8074,0,,,,,,,,,,,,,,,,,,,,,,,,0.002408854,-0.397834201,0,0,0,,,,,,,WALRUS,HB,new,y,./images/WALRUSHB.png,,,,,,,z,0,0.8074,,,,,,,,0,132,132,107,1
,,,,,,,,,,,,,,,,,199120,18,2022-01-25_21h35.23.007,lexical_decision_task_DD_L6,2021.2.3,MacIntel,60.0024001,,,,,,,,,,,0.9325,0,,,,,,,,,,,,,,,,,,,,,,,,0.002408854,-0.397834201,0,0,0,,,,,,,ATTIC,LB,new,y,./images/ATTICLB.png,,,,,,,m,0,0.9325,,,,,,,,0,133,133,111,1
,,,,,,,,,,,,,,,,,199120,18,2022-01-25_21h35.23.007,lexical_decision_task_DD_L6,2021.2.3,MacIntel,60.0024001,,,,,,,,,,,0.9218,0,,,,,,,,,,,,,,,,,,,,,,,,0.002408854,-0.397834201,0,0,0,,,,,,,SAUCE,LB,old,y,./images/SAUCELB.png,,,,,,,m,0,0.9218,,,,,,,,0,134,134,51,1
,,,,,,,,,,,,,,,,,199120,18,2022-01-25_21h35.23.007,lexical_decision_task_DD_L6,2021.2.3,MacIntel,60.0024001,,,,,,,,,,,0.8828,0,,,,,,,,,,,,,,,,,,,,,,,,0.002408854,-0.397834201,0,0,0,,,,,,,VALLEY,HB,old,y,./images/VALLEYHB.png,,,,,,,m,0,0.8828,,,,,,,,0,135,135,68,1
,,,,,,,,,,,,,,,,,199120,18,2022-01-25_21h35.23.007,lexical_decision_task_DD_L6,2021.2.3,MacIntel,60.0024001,,,,,,,,,,,1.8897,0,,,,,,,,,,,,,,,,,,,,,,,,0.002408854,-0.397834201,0,0,0,,,,,,,DRUMS,C,new,y,./images/DRUMS.png,,,,,,,z,0,1.8897,,,,,,,,0,136,136,133,1
,,,,,,,,,,,,,,,,,199120,18,2022-01-25_21h35.23.007,lexical_decision_task_DD_L6,2021.2.3,MacIntel,60.0024001,,,,,,,,,,,1.0152,0,,,,,,,,,,,,,,,,,,,,,,,,0.002408854,-0.397834201,0,0,0,,,,,,,MOTOR,C,new,y,./images/MOTOR.png,,,,,,,z,0,1.0152,,,,,,,,0,137,137,97,1
,,,,,,,,,,,,,,,,,199120,18,2022-01-25_21h35.23.007,lexical_decision_task_DD_L6,2021.2.3,MacIntel,60.0024001,,,,,,,,,,,0.9988,0,,,,,,,,,,,,,,,,,,,,,,,,0.002408854,-0.397834201,0,0,0,,,,,,,PISTOL,HB,old,y,./images/PISTOLHB.png,,,,,,,z,0,0.9988,,,,,,,,0,138,138,29,1
,,,,,,,,,,,,,,,,,199120,18,2022-01-25_21h35.23.007,lexical_decision_task_DD_L6,2021.2.3,MacIntel,60.0024001,,,,,,,,,,,0.6812,0,,,,,,,,,,,,,,,,,,,,,,,,0.002408854,-0.397834201,0,0,0,,,,,,,MUMMY,C,old,y,./images/MUMMY.png,,,,,,,m,0,0.6812,,,,,,,,0,139,139,46,1
,,,,,,,,,,,,,,,,,199120,18,2022-01-25_21h35.23.007,lexical_decision_task_DD_L6,2021.2.3,MacIntel,60.0024001,,,,,,,,,,,0.7094,0,,,,,,,,,,,,,,,,,,,,,,,,0.002408854,-0.397834201,0,0,0,,,,,,,SNAKE,C,old,y,./images/SNAKE.png,,,,,,,m,0,0.7094,,,,,,,,0,140,140,40,1
,,,,,,,,,,,,,,,,,199120,18,2022-01-25_21h35.23.007,lexical_decision_task_DD_L6,2021.2.3,MacIntel,60.0024001,,,,,,,,,,,0.8657,0,,,,,,,,,,,,,,,,,,,,,,,,0.002408854,-0.397834201,0,0,0,,,,,,,SMOKER,HB,new,y,./images/SMOKERHB.png,,,,,,,z,0,0.8657,,,,,,,,0,141,141,110,1
,,,,,,,,,,,,,,,,,199120,18,2022-01-25_21h35.23.007,lexical_decision_task_DD_L6,2021.2.3,MacIntel,60.0024001,,,,,,,,,,,0.8068,0,,,,,,,,,,,,,,,,,,,,,,,,0.002408854,-0.397834201,0,0,0,,,,,,,SHIELD,LB,old,y,./images/SHIELDLB.png,,,,,,,m,0,0.8068,,,,,,,,0,142,142,48,1
,,,,,,,,,,,,,,,,,199120,18,2022-01-25_21h35.23.007,lexical_decision_task_DD_L6,2021.2.3,MacIntel,60.0024001,,,,,,,,,,,0.7631,0,,,,,,,,,,,,,,,,,,,,,,,,0.002408854,-0.397834201,0,0,0,,,,,,,POKER,C,old,y,./images/POKER.png,,,,,,,m,0,0.7631,,,,,,,,0,143,143,67,1
,,,,,,,,,,,,,,,,,199120,18,2022-01-25_21h35.23.007,lexical_decision_task_DD_L6,2021.2.3,MacIntel,60.0024001,,,,,,,,,,,1.2897,0,,,,,,,,,,,,,,,,,,,,,,,,0.002408854,-0.397834201,0,0,0,,,,,,,BEARD,HB,new,y,./images/BEARDHB.png,,,,,,,z,0,1.2897,,,,,,,,0,144,144,86,1
,,,,,,,,,,,,,,,,,199120,18,2022-01-25_21h35.23.007,lexical_decision_task_DD_L6,2021.2.3,MacIntel,60.0024001,,,,,,,,,,,0.7995,0,,,,,,,,,,,,,,,,,,,,,,,,0.002408854,-0.397834201,0,0,0,,,,,,,KIDNEY,LB,new,y,./images/KIDNEYLB.png,,,,,,,z,0,0.7995,,,,,,,,0,145,145,105,1
,,,,,,,,,,,,,,,,,199120,18,2022-01-25_21h35.23.007,lexical_decision_task_DD_L6,2021.2.3,MacIntel,60.0024001,,,,,,,,,,,0.723,0,,,,,,,,,,,,,,,,,,,,,,,,0.002408854,-0.397834201,0,0,0,,,,,,,DESERT,C,old,y,./images/DESERT.png,,,,,,,m,0,0.723,,,,,,,,0,146,146,52,1
,,,,,,,,,,,,,,,,,199120,18,2022-01-25_21h35.23.007,lexical_decision_task_DD_L6,2021.2.3,MacIntel,60.0024001,,,,,,,,,,,0.8045,0,,,,,,,,,,,,,,,,,,,,,,,,0.002408854,-0.397834201,0,0,0,,,,,,,PLANK,C,new,y,./images/PLANK.png,,,,,,,m,0,0.8045,,,,,,,,0,147,147,85,1
,,,,,,,,,,,,,,,,,199120,18,2022-01-25_21h35.23.007,lexical_decision_task_DD_L6,2021.2.3,MacIntel,60.0024001,,,,,,,,,,,0.7153,0,,,,,,,,,,,,,,,,,,,,,,,,0.002408854,-0.397834201,0,0,0,,,,,,,SAUNA,LB,old,y,./images/SAUNALB.png,,,,,,,m,0,0.7153,,,,,,,,0,148,148,33,1
,,,,,,,,,,,,,,,,,199120,18,2022-01-25_21h35.23.007,lexical_decision_task_DD_L6,2021.2.3,MacIntel,60.0024001,,,,,,,,,,,0.7739,0,,,,,,,,,,,,,,,,,,,,,,,,0.002408854,-0.397834201,0,0,0,,,,,,,JAGUAR,LB,new,y,./images/JAGUARLB.png,,,,,,,m,0,0.7739,,,,,,,,0,149,149,102,1
,,,,,,,,,,,,,,,,,199120,18,2022-01-25_21h35.23.007,lexical_decision_task_DD_L6,2021.2.3,MacIntel,60.0024001,,,,,,,,,,,0.8833,0,,,,,,,,,,,,,,,,,,,,,,,,0.002408854,-0.397834201,0,0,0,,,,,,,ENGINE,HB,old,y,./images/ENGINEHB.png,,,,,,,z,0,0.8833,,,,,,,,0,150,150,38,1
,,,,,,,,,,,,,,,,,199120,18,2022-01-25_21h35.23.007,lexical_decision_task_DD_L6,2021.2.3,MacIntel,60.0024001,,,,,,,,,,,1.3971,0,,,,,,,,,,,,,,,,,,,,,,,,0.002408854,-0.397834201,0,0,0,,,,,,,BABOON,C,new,y,./images/BABOON.png,,,,,,,m,0,1.3971,,,,,,,,0,151,151,142,1
,,,,,,,,,,,,,,,,,199120,18,2022-01-25_21h35.23.007,lexical_decision_task_DD_L6,2021.2.3,MacIntel,60.0024001,,,,,,,,,,,0.874,0,,,,,,,,,,,,,,,,,,,,,,,,0.002408854,-0.397834201,0,0,0,,,,,,,BELLY,C,new,y,./images/BELLY.png,,,,,,,z,0,0.874,,,,,,,,0,152,152,94,1
,,,,,,,,,,,,,,,,,199120,18,2022-01-25_21h35.23.007,lexical_decision_task_DD_L6,2021.2.3,MacIntel,60.0024001,,,,,,,,,,,1.916,0,,,,,,,,,,,,,,,,,,,,,,,,0.002408854,-0.397834201,0,0,0,,,,,,,BAMBOO,HB,old,y,./images/BAMBOOHB.png,,,,,,,m,0,1.916,,,,,,,,0,153,153,5,1
,,,,,,,,,,,,,,,,,199120,18,2022-01-25_21h35.23.007,lexical_decision_task_DD_L6,2021.2.3,MacIntel,60.0024001,,,,,,,,,,,1.3083,0,,,,,,,,,,,,,,,,,,,,,,,,0.002408854,-0.397834201,0,0,0,,,,,,,CURRY,LB,old,y,./images/CURRYLB.png,,,,,,,z,0,1.3083,,,,,,,,0,154,154,60,1
,,,,,,,,,,,,,,,,,199120,18,2022-01-25_21h35.23.007,lexical_decision_task_DD_L6,2021.2.3,MacIntel,60.0024001,,,,,,,,,,,1.4026,0,,,,,,,,,,,,,,,,,,,,,,,,0.002408854,-0.397834201,0,0,0,,,,,,,PENCE,C,new,y,./images/PENCE.png,,,,,,,z,0,1.4026,,,,,,,,0,155,155,100,1
,,,,,,,,,,,,,,,,,199120,18,2022-01-25_21h35.23.007,lexical_decision_task_DD_L6,2021.2.3,MacIntel,60.0024001,,,,,,,,,,,1.3487,0,,,,,,,,,,,,,,,,,,,,,,,,0.002408854,-0.397834201,0,0,0,,,,,,,FALCON,C,new,y,./images/FALCON.png,,,,,,,z,0,1.3487,,,,,,,,0,156,156,112,1
,,,,,,,,,,,,,,,,,199120,18,2022-01-25_21h35.23.007,lexical_decision_task_DD_L6,2021.2.3,MacIntel,60.0024001,,,,,,,,,,,1.0232,0,,,,,,,,,,,,,,,,,,,,,,,,0.002408854,-0.397834201,0,0,0,,,,,,,WALNUT,LB,old,y,./images/WALNUTLB.png,,,,,,,m,0,1.0232,,,,,,,,0,157,157,0,1
,,,,,,,,,,,,,,,,,199120,18,2022-01-25_21h35.23.007,lexical_decision_task_DD_L6,2021.2.3,MacIntel,60.0024001,,,,,,,,,,,1.1825,0,,,,,,,,,,,,,,,,,,,,,,,,0.002408854,-0.397834201,0,0,0,,,,,,,CHERRY,LB,old,y,./images/CHERRYLB.png,,,,,,,z,0,1.1825,,,,,,,,0,158,158,54,1
,,,,,,,,,,,,,,,,,199120,18,2022-01-25_21h35.23.007,lexical_decision_task_DD_L6,2021.2.3,MacIntel,60.0024001,,,,,,,,,,,1.1654,0,,,,,,,,,,,,,,,,,,,,,,,,0.002408854,-0.397834201,0,0,0,,,,,,,BAKER,LB,old,y,./images/BAKERLB.png,,,,,,,m,0,1.1654,,,,,,,,0,159,159,63,1
,,,,,,,,,,,,,,,,,199120,18,2022-01-25_21h35.23.007,lexical_decision_task_DD_L6,2021.2.3,MacIntel,60.0024001,,,,,,,,,,,1.0754,0,,,,,,,,,,,,,,,,,,,,,,,,0.002408854,-0.397834201,0,0,0,,,,,,,GRAPE,C,old,y,./images/GRAPE.png,,,,,,,m,0,1.0754,,,,,,,,0,160,160,16,1
,,,,,,,,,,,,,,,,,199120,18,2022-01-25_21h35.23.007,lexical_decision_task_DD_L6,2021.2.3,MacIntel,60.0024001,,,,,,,,,,,0.7496,0,,,,,,,,,,,,,,,,,,,,,,,,0.002408854,-0.397834201,0,0,0,,,,,,,LIZARD,HB,new,y,./images/LIZARDHB.png,,,,,,,z,0,0.7496,,,,,,,,0,161,161,128,1
,,,,,,,,,,,,,,,,,199120,18,2022-01-25_21h35.23.007,lexical_decision_task_DD_L6,2021.2.3,MacIntel,60.0024001,,,,,,,,,,,1.4519,0,,,,,,,,,,,,,,,,,,,,,,,,0.002408854,-0.397834201,0,0,0,,,,,,,SPORT,LB,new,y,./images/SPORTLB.png,,,,,,,z,0,1.4519,,,,,,,,0,162,162,132,1
,,,,,,,,,,,,,,,,,199120,18,2022-01-25_21h35.23.007,lexical_decision_task_DD_L6,2021.2.3,MacIntel,60.0024001,,,,,,,,,,,1.2155,0,,,,,,,,,,,,,,,,,,,,,,,,0.002408854,-0.397834201,0,0,0,,,,,,,PURSE,HB,new,y,./images/PURSEHB.png,,,,,,,m,0,1.2155,,,,,,,,0,163,163,146,1
,,,,,,,,,,,,,,,,,199120,18,2022-01-25_21h35.23.007,lexical_decision_task_DD_L6,2021.2.3,MacIntel,60.0024001,,,,,,,,,,,1.0418,0,,,,,,,,,,,,,,,,,,,,,,,,0.002408854,-0.397834201,0,0,0,,,,,,,MIDGET,C,old,y,./images/MIDGET.png,,,,,,,m,0,1.0418,,,,,,,,0,164,164,76,1
,,,,,,,,,,,,,,,,,199120,18,2022-01-25_21h35.23.007,lexical_decision_task_DD_L6,2021.2.3,MacIntel,60.0024001,,,,,,,,,,,0.7991,0,,,,,,,,,,,,,,,,,,,,,,,,0.002408854,-0.397834201,0,0,0,,,,,,,RHINO,LB,new,y,./images/RHINOLB.png,,,,,,,z,0,0.7991,,,,,,,,0,165,165,93,1
,,,,,,,,,,,,,,,,,199120,18,2022-01-25_21h35.23.007,lexical_decision_task_DD_L6,2021.2.3,MacIntel,60.0024001,,,,,,,,,,,0.8879,0,,,,,,,,,,,,,,,,,,,,,,,,0.002408854,-0.397834201,0,0,0,,,,,,,DIVER,LB,old,y,./images/DIVERLB.png,,,,,,,z,0,0.8879,,,,,,,,0,166,166,9,1
,,,,,,,,,,,,,,,,,199120,18,2022-01-25_21h35.23.007,lexical_decision_task_DD_L6,2021.2.3,MacIntel,60.0024001,,,,,,,,,,,1.1488,0,,,,,,,,,,,,,,,,,,,,,,,,0.002408854,-0.397834201,0,0,0,,,,,,,THROAT,LB,new,y,./images/THROATLB.png,,,,,,,z,0,1.1488,,,,,,,,0,167,167,120,1
