key_resp.keys,instr_done_touch.x,instr_done_touch.y,instr_done_touch.leftButton,instr_done_touch.midButton,instr_done_touch.rightButton,instr_done_touch.clicked_name,instruction_pages.thisRepN,instruction_pages.thisTrialN,instruction_pages.thisN,instruction_pages.thisIndex,instruction_pages.ran,pageN,phase,instruct_text,has_image,instruct_image,participant,age,date,expName,psychopyVersion,OS,frameRate,key_resp.rt,response.keys,response.corr,response.rt,touch_resp.x,touch_resp.y,touch_resp.leftButton,touch_resp.midButton,touch_resp.rightButton,touch_resp.time,touch_resp.clicked_name,rt,corr,practrials.thisRepN,practrials.thisTrialN,practrials.thisN,practrials.thisIndex,practrials.ran,TrialID,Target,corrAns,end_of_practice_trials_pages.thisRepN,end_of_practice_trials_pages.thisTrialN,end_of_practice_trials_pages.thisN,end_of_practice_trials_pages.thisIndex,end_of_practice_trials_pages.ran,key_resp_2.keys,key_resp_2.corr,key_resp_2.rt,targ_click.x,targ_click.y,targ_click.leftButton,targ_click.midButton,targ_click.rightButton,targ_click.time,targ_click.clicked_name,break_done_touch.x,break_done_touch.y,break_done_touch.leftButton,break_done_touch.midButton,break_done_touch.rightButton,break_done_keyboard.keys,maintrials.thisRepN,maintrials.thisTrialN,maintrials.thisN,maintrials.thisIndex,maintrials.ran,string,blur,study,lex,stim_path,break_done_keyboard.rt,test_instructions.thisRepN,test_instructions.thisTrialN,test_instructions.thisN,test_instructions.thisIndex,test_instructions.ran,key_resp_3.keys,key_resp_3.corr,key_resp_3.rt,test_click.x,test_click.y,test_click.leftButton,test_click.midButton,test_click.rightButton,test_click.time,test_click.clicked_name,test_phase.thisRepN,test_phase.thisTrialN,test_phase.thisN,test_phase.thisIndex,test_phase.ran
,-0.036111111,-0.389814815,1,0,0,instr_done_button,0,0,0,0,1,1,instructions,"INSTRUCTIONS
At the start of each trial, look at the plus sign  (+) in the center of the screen.  This tells you that a trial is about to begin and where to look. Second, the plus sign will disappear and a string of letters will appear. Your task is to determine if the string of letters is a word or not. If the item is a word press the M key (on keyboard)  or touch the word button (phone/tablet).  If the item is not a word,  press the  Z key (on keyboard)  or touch the nonword button (on phone/tablet). 
Press the space bar or touch  continue.",0,,199147,19,2022-01-28_23h58.04.134,lexical_decision_task_DD_L3,2021.2.3,Win32,60.09615385,,,,,,,,,,,,,,,,,,,,,,,,,,,,,,,,,,,,,,,,,,,,,,,,,,,,,,,,,,,,,,,,,,,,,,,,,
space,0.112962963,-0.196296296,0,0,0,,0,1,1,1,1,2,instructions,"If your device has a keyboard, press the 'Z' key for nonwords and the 'M' key for words.





Press the space bar or touch the button below to continue.",0,keyboard-example.gif,199147,19,2022-01-28_23h58.04.134,lexical_decision_task_DD_L3,2021.2.3,Win32,60.09615385,6.9289,,,,,,,,,,,,,,,,,,,,,,,,,,,,,,,,,,,,,,,,,,,,,,,,,,,,,,,,,,,,,,,,,,,,,,,,
space,0.112962963,-0.196296296,0,0,0,,0,2,2,2,1,3,instructions,"If you are using a touchscreen only device, use the buttons on the screen. Do not use the mouse.





Press the space bar or touch the button below to continue.",0,touchscreen-example.gif,199147,19,2022-01-28_23h58.04.134,lexical_decision_task_DD_L3,2021.2.3,Win32,60.09615385,3.3291,,,,,,,,,,,,,,,,,,,,,,,,,,,,,,,,,,,,,,,,,,,,,,,,,,,,,,,,,,,,,,,,,,,,,,,,
space,0.112962963,-0.196296296,0,0,0,,0,3,3,3,1,4,instructions,"It is very important that you respond as quickly and accurately as possible, as each letter string will only be on the screen for two seconds. If you do not respond within this time, the message 'Too slow!' will be displayed and the experiment will progress to the next letter string. The first 20 trials will be practice trials and you will receive feedback on your answers. 

Press the space bar or touch the button below to start the practice trials.",0,,199147,19,2022-01-28_23h58.04.134,lexical_decision_task_DD_L3,2021.2.3,Win32,60.09615385,20.6134,,,,,,,,,,,,,,,,,,,,,,,,,,,,,,,,,,,,,,,,,,,,,,,,,,,,,,,,,,,,,,,,,,,,,,,,
,,,,,,,,,,,,,,,,,199147,19,2022-01-28_23h58.04.134,lexical_decision_task_DD_L3,2021.2.3,Win32,60.09615385,,m,1,1.0684,,,,,,,,1.0684,1,0,0,0,3,1,1001,MATRIX,m,,,,,,,,,,,,,,,,,,,,,,,,,,,,,,,,,,,,,,,,,,,,,,,,,,,,
,,,,,,,,,,,,,,,,,199147,19,2022-01-28_23h58.04.134,lexical_decision_task_DD_L3,2021.2.3,Win32,60.09615385,,m,1,0.6609,,,,,,,,0.6609,1,0,1,1,6,1,1001,ZOMBIE,m,,,,,,,,,,,,,,,,,,,,,,,,,,,,,,,,,,,,,,,,,,,,,,,,,,,,
,,,,,,,,,,,,,,,,,199147,19,2022-01-28_23h58.04.134,lexical_decision_task_DD_L3,2021.2.3,Win32,60.09615385,,z,1,0.8986,,,,,,,,0.8986,1,0,2,2,10,1,1001,INLADE,z,,,,,,,,,,,,,,,,,,,,,,,,,,,,,,,,,,,,,,,,,,,,,,,,,,,,
,,,,,,,,,,,,,,,,,199147,19,2022-01-28_23h58.04.134,lexical_decision_task_DD_L3,2021.2.3,Win32,60.09615385,,z,1,0.7906,,,,,,,,0.7906,1,0,3,3,11,1,1001,RASHET,z,,,,,,,,,,,,,,,,,,,,,,,,,,,,,,,,,,,,,,,,,,,,,,,,,,,,
,,,,,,,,,,,,,,,,,199147,19,2022-01-28_23h58.04.134,lexical_decision_task_DD_L3,2021.2.3,Win32,60.09615385,,z,1,0.7748,,,,,,,,0.7748,1,0,4,4,8,1,1001,ASLERT,z,,,,,,,,,,,,,,,,,,,,,,,,,,,,,,,,,,,,,,,,,,,,,,,,,,,,
,,,,,,,,,,,,,,,,,199147,19,2022-01-28_23h58.04.134,lexical_decision_task_DD_L3,2021.2.3,Win32,60.09615385,,z,1,0.8906,,,,,,,,0.8906,1,0,5,5,12,1,1001,SPRINY,z,,,,,,,,,,,,,,,,,,,,,,,,,,,,,,,,,,,,,,,,,,,,,,,,,,,,
,,,,,,,,,,,,,,,,,199147,19,2022-01-28_23h58.04.134,lexical_decision_task_DD_L3,2021.2.3,Win32,60.09615385,,z,1,0.7198,,,,,,,,0.7198,1,0,6,6,13,1,1001,ROUPET,z,,,,,,,,,,,,,,,,,,,,,,,,,,,,,,,,,,,,,,,,,,,,,,,,,,,,
,,,,,,,,,,,,,,,,,199147,19,2022-01-28_23h58.04.134,lexical_decision_task_DD_L3,2021.2.3,Win32,60.09615385,,z,1,0.6652,,,,,,,,0.6652,1,0,7,7,15,1,1001,WHAISE,z,,,,,,,,,,,,,,,,,,,,,,,,,,,,,,,,,,,,,,,,,,,,,,,,,,,,
,,,,,,,,,,,,,,,,,199147,19,2022-01-28_23h58.04.134,lexical_decision_task_DD_L3,2021.2.3,Win32,60.09615385,,m,1,0.5669,,,,,,,,0.5669,1,0,8,8,7,1,1001,VOLUME,m,,,,,,,,,,,,,,,,,,,,,,,,,,,,,,,,,,,,,,,,,,,,,,,,,,,,
,,,,,,,,,,,,,,,,,199147,19,2022-01-28_23h58.04.134,lexical_decision_task_DD_L3,2021.2.3,Win32,60.09615385,,m,1,0.6293,,,,,,,,0.6293,1,0,9,9,4,1,1001,SQUEAK,m,,,,,,,,,,,,,,,,,,,,,,,,,,,,,,,,,,,,,,,,,,,,,,,,,,,,
,,,,,,,,,,,,,,,,,199147,19,2022-01-28_23h58.04.134,lexical_decision_task_DD_L3,2021.2.3,Win32,60.09615385,,z,1,0.6383,,,,,,,,0.6383,1,0,10,10,14,1,1001,THRALE,z,,,,,,,,,,,,,,,,,,,,,,,,,,,,,,,,,,,,,,,,,,,,,,,,,,,,
,,,,,,,,,,,,,,,,,199147,19,2022-01-28_23h58.04.134,lexical_decision_task_DD_L3,2021.2.3,Win32,60.09615385,,z,0,0.5808,,,,,,,,0.5808,0,0,11,11,0,1,1001,UTOPIA,m,,,,,,,,,,,,,,,,,,,,,,,,,,,,,,,,,,,,,,,,,,,,,,,,,,,,
,,,,,,,,,,,,,,,,,199147,19,2022-01-28_23h58.04.134,lexical_decision_task_DD_L3,2021.2.3,Win32,60.09615385,,m,1,0.7955,,,,,,,,0.7955,1,0,12,12,1,1,1001,ADJUST,m,,,,,,,,,,,,,,,,,,,,,,,,,,,,,,,,,,,,,,,,,,,,,,,,,,,,
,,,,,,,,,,,,,,,,,199147,19,2022-01-28_23h58.04.134,lexical_decision_task_DD_L3,2021.2.3,Win32,60.09615385,,m,1,0.6378,,,,,,,,0.6378,1,0,13,13,2,1,1001,ALMOND,m,,,,,,,,,,,,,,,,,,,,,,,,,,,,,,,,,,,,,,,,,,,,,,,,,,,,
,,,,,,,,,,,,,,,,,199147,19,2022-01-28_23h58.04.134,lexical_decision_task_DD_L3,2021.2.3,Win32,60.09615385,,m,1,0.628,,,,,,,,0.628,1,0,14,14,5,1,1001,OBTAIN,m,,,,,,,,,,,,,,,,,,,,,,,,,,,,,,,,,,,,,,,,,,,,,,,,,,,,
,,,,,,,,,,,,,,,,,199147,19,2022-01-28_23h58.04.134,lexical_decision_task_DD_L3,2021.2.3,Win32,60.09615385,,z,1,0.6923,,,,,,,,0.6923,1,0,15,15,9,1,1001,FARINY,z,,,,,,,,,,,,,,,,,,,,,,,,,,,,,,,,,,,,,,,,,,,,,,,,,,,,
space,0.112962963,-0.196296296,0,0,0,,,,,,,1,end_of_practice,"You have completed the practice trials. During the experimental trials, you will not receive feedback. 
Before you begin, please ensure that you are in a comfortable and quiet location and will not be disturbed for about 15 minutes, as we cannot use your data if you do not complete all the trials. 
 When you are ready to start the experimental trials, please press space or touch the button below.",,,199147,19,2022-01-28_23h58.04.134,lexical_decision_task_DD_L3,2021.2.3,Win32,60.09615385,15.3304,,,,,,,,,,,,,,,,,,,,,0,0,0,0,1,,,,,,,,,,,,,,,,,,,,,,,,,,,,,,,,,,,,,,,,,,,,,,,
,,,,,,,,,,,,,,,,,199147,19,2022-01-28_23h58.04.134,lexical_decision_task_DD_L3,2021.2.3,Win32,60.09615385,,,,,,,,,,,,0.9478,1,,,,,,,,,,,,,,z,1,0.9478,,,,,,,,0.112962963,-0.196296296,0,0,0,,0,0,0,123,1,SEDGE,C,old,z,./images/SEDGE.png,,,,,,,,,,,,,,,,,,,,,
,,,,,,,,,,,,,,,,,199147,19,2022-01-28_23h58.04.134,lexical_decision_task_DD_L3,2021.2.3,Win32,60.09615385,,,,,,,,,,,,1.0095,1,,,,,,,,,,,,,,z,1,1.0095,,,,,,,,0.112962963,-0.196296296,0,0,0,,0,1,1,150,1,NOOLS,C,old,z,./images/NOOLS.png,,,,,,,,,,,,,,,,,,,,,
,,,,,,,,,,,,,,,,,199147,19,2022-01-28_23h58.04.134,lexical_decision_task_DD_L3,2021.2.3,Win32,60.09615385,,,,,,,,,,,,0.9554,1,,,,,,,,,,,,,,z,1,0.9554,,,,,,,,0.112962963,-0.196296296,0,0,0,,0,2,2,131,1,NACES,LB,old,z,./images/NACESLB.png,,,,,,,,,,,,,,,,,,,,,
,,,,,,,,,,,,,,,,,199147,19,2022-01-28_23h58.04.134,lexical_decision_task_DD_L3,2021.2.3,Win32,60.09615385,,,,,,,,,,,,1.5999,1,,,,,,,,,,,,,,z,1,1.5999,,,,,,,,0.112962963,-0.196296296,0,0,0,,0,3,3,124,1,TUNCH,HB,old,z,./images/TUNCHHB.png,,,,,,,,,,,,,,,,,,,,,
,,,,,,,,,,,,,,,,,199147,19,2022-01-28_23h58.04.134,lexical_decision_task_DD_L3,2021.2.3,Win32,60.09615385,,,,,,,,,,,,1.2611,1,,,,,,,,,,,,,,z,1,1.2611,,,,,,,,0.112962963,-0.196296296,0,0,0,,0,4,4,141,1,PLEET,C,old,z,./images/PLEET.png,,,,,,,,,,,,,,,,,,,,,
,,,,,,,,,,,,,,,,,199147,19,2022-01-28_23h58.04.134,lexical_decision_task_DD_L3,2021.2.3,Win32,60.09615385,,,,,,,,,,,,0.6947,1,,,,,,,,,,,,,,z,1,0.6947,,,,,,,,0.112962963,-0.196296296,0,0,0,,0,5,5,120,1,RINED,C,old,z,./images/RINED.png,,,,,,,,,,,,,,,,,,,,,
,,,,,,,,,,,,,,,,,199147,19,2022-01-28_23h58.04.134,lexical_decision_task_DD_L3,2021.2.3,Win32,60.09615385,,,,,,,,,,,,0.9563,1,,,,,,,,,,,,,,z,1,0.9563,,,,,,,,0.112962963,-0.196296296,0,0,0,,0,6,6,148,1,JOMS,HB,old,z,./images/JOMSHB.png,,,,,,,,,,,,,,,,,,,,,
,,,,,,,,,,,,,,,,,199147,19,2022-01-28_23h58.04.134,lexical_decision_task_DD_L3,2021.2.3,Win32,60.09615385,,,,,,,,,,,,0.7056,1,,,,,,,,,,,,,,m,1,0.7056,,,,,,,,0.112962963,-0.196296296,0,0,0,,0,7,7,10,1,BELLY,C,old,m,./images/BELLY.png,,,,,,,,,,,,,,,,,,,,,
,,,,,,,,,,,,,,,,,199147,19,2022-01-28_23h58.04.134,lexical_decision_task_DD_L3,2021.2.3,Win32,60.09615385,,,,,,,,,,,,0.8039,1,,,,,,,,,,,,,,z,1,0.8039,,,,,,,,0.112962963,-0.196296296,0,0,0,,0,8,8,114,1,RIKES,C,old,z,./images/RIKES.png,,,,,,,,,,,,,,,,,,,,,
,,,,,,,,,,,,,,,,,199147,19,2022-01-28_23h58.04.134,lexical_decision_task_DD_L3,2021.2.3,Win32,60.09615385,,,,,,,,,,,,0.7004,1,,,,,,,,,,,,,,m,1,0.7004,,,,,,,,0.112962963,-0.196296296,0,0,0,,0,9,9,49,1,DRUMS,C,old,m,./images/DRUMS.png,,,,,,,,,,,,,,,,,,,,,
,,,,,,,,,,,,,,,,,199147,19,2022-01-28_23h58.04.134,lexical_decision_task_DD_L3,2021.2.3,Win32,60.09615385,,,,,,,,,,,,0.8188,1,,,,,,,,,,,,,,m,1,0.8188,,,,,,,,0.112962963,-0.196296296,0,0,0,,0,10,10,9,1,RHINO,LB,old,m,./images/RHINOLB.png,,,,,,,,,,,,,,,,,,,,,
,,,,,,,,,,,,,,,,,199147,19,2022-01-28_23h58.04.134,lexical_decision_task_DD_L3,2021.2.3,Win32,60.09615385,,,,,,,,,,,,1.1077,1,,,,,,,,,,,,,,m,1,1.1077,,,,,,,,0.112962963,-0.196296296,0,0,0,,0,11,11,23,1,WALRUS,HB,old,m,./images/WALRUSHB.png,,,,,,,,,,,,,,,,,,,,,
,,,,,,,,,,,,,,,,,199147,19,2022-01-28_23h58.04.134,lexical_decision_task_DD_L3,2021.2.3,Win32,60.09615385,,,,,,,,,,,,0.7535,1,,,,,,,,,,,,,,m,1,0.7535,,,,,,,,0.112962963,-0.196296296,0,0,0,,0,12,12,76,1,INFANT,C,old,m,./images/INFANT.png,,,,,,,,,,,,,,,,,,,,,
,,,,,,,,,,,,,,,,,199147,19,2022-01-28_23h58.04.134,lexical_decision_task_DD_L3,2021.2.3,Win32,60.09615385,,,,,,,,,,,,0.7266,1,,,,,,,,,,,,,,z,1,0.7266,,,,,,,,0.112962963,-0.196296296,0,0,0,,0,13,13,164,1,SGREW,LB,old,z,./images/SGREWLB.png,,,,,,,,,,,,,,,,,,,,,
,,,,,,,,,,,,,,,,,199147,19,2022-01-28_23h58.04.134,lexical_decision_task_DD_L3,2021.2.3,Win32,60.09615385,,,,,,,,,,,,0.9368,1,,,,,,,,,,,,,,m,1,0.9368,,,,,,,,0.112962963,-0.196296296,0,0,0,,0,14,14,65,1,FARMER,HB,old,m,./images/FARMERHB.png,,,,,,,,,,,,,,,,,,,,,
,,,,,,,,,,,,,,,,,199147,19,2022-01-28_23h58.04.134,lexical_decision_task_DD_L3,2021.2.3,Win32,60.09615385,,,,,,,,,,,,2.1742,0,,,,,,,,,,,,,,z,0,2.1742,,,,,,,,0.112962963,-0.196296296,0,0,0,,0,15,15,56,1,PACKET,HB,old,m,./images/PACKETHB.png,,,,,,,,,,,,,,,,,,,,,
,,,,,,,,,,,,,,,,,199147,19,2022-01-28_23h58.04.134,lexical_decision_task_DD_L3,2021.2.3,Win32,60.09615385,,,,,,,,,,,,0.6862,1,,,,,,,,,,,,,,m,1,0.6862,,,,,,,,0.112962963,-0.196296296,0,0,0,,0,16,16,22,1,MELON,C,old,m,./images/MELON.png,,,,,,,,,,,,,,,,,,,,,
,,,,,,,,,,,,,,,,,199147,19,2022-01-28_23h58.04.134,lexical_decision_task_DD_L3,2021.2.3,Win32,60.09615385,,,,,,,,,,,,1.3922,1,,,,,,,,,,,,,,z,1,1.3922,,,,,,,,0.112962963,-0.196296296,0,0,0,,0,17,17,143,1,MONGS,LB,old,z,./images/MONGSLB.png,,,,,,,,,,,,,,,,,,,,,
,,,,,,,,,,,,,,,,,199147,19,2022-01-28_23h58.04.134,lexical_decision_task_DD_L3,2021.2.3,Win32,60.09615385,,,,,,,,,,,,1.1734,1,,,,,,,,,,,,,,m,1,1.1734,,,,,,,,0.112962963,-0.196296296,0,0,0,,0,18,18,11,1,BONNET,HB,old,m,./images/BONNETHB.png,,,,,,,,,,,,,,,,,,,,,
,,,,,,,,,,,,,,,,,199147,19,2022-01-28_23h58.04.134,lexical_decision_task_DD_L3,2021.2.3,Win32,60.09615385,,,,,,,,,,,,1.5749,1,,,,,,,,,,,,,,z,1,1.5749,,,,,,,,0.112962963,-0.196296296,0,0,0,,0,19,19,111,1,HOSSE,C,old,z,./images/HOSSE.png,,,,,,,,,,,,,,,,,,,,,
,,,,,,,,,,,,,,,,,199147,19,2022-01-28_23h58.04.134,lexical_decision_task_DD_L3,2021.2.3,Win32,60.09615385,,,,,,,,,,,,0.6859,1,,,,,,,,,,,,,,m,1,0.6859,,,,,,,,0.112962963,-0.196296296,0,0,0,,0,20,20,0,1,TOMATO,LB,old,m,./images/TOMATOLB.png,,,,,,,,,,,,,,,,,,,,,
,,,,,,,,,,,,,,,,,199147,19,2022-01-28_23h58.04.134,lexical_decision_task_DD_L3,2021.2.3,Win32,60.09615385,,,,,,,,,,,,1.9322,1,,,,,,,,,,,,,,z,1,1.9322,,,,,,,,0.112962963,-0.196296296,0,0,0,,0,21,21,94,1,BLANS,HB,old,z,./images/BLANSHB.png,,,,,,,,,,,,,,,,,,,,,
,,,,,,,,,,,,,,,,,199147,19,2022-01-28_23h58.04.134,lexical_decision_task_DD_L3,2021.2.3,Win32,60.09615385,,,,,,,,,,,,2.7022,1,,,,,,,,,,,,,,z,1,2.7022,,,,,,,,0.112962963,-0.196296296,0,0,0,,0,22,22,157,1,INLER,HB,old,z,./images/INLERHB.png,,,,,,,,,,,,,,,,,,,,,
,,,,,,,,,,,,,,,,,199147,19,2022-01-28_23h58.04.134,lexical_decision_task_DD_L3,2021.2.3,Win32,60.09615385,,,,,,,,,,,,0.775,1,,,,,,,,,,,,,,m,1,0.775,,,,,,,,0.112962963,-0.196296296,0,0,0,,0,23,23,31,1,QUILL,C,old,m,./images/QUILL.png,,,,,,,,,,,,,,,,,,,,,
,,,,,,,,,,,,,,,,,199147,19,2022-01-28_23h58.04.134,lexical_decision_task_DD_L3,2021.2.3,Win32,60.09615385,,,,,,,,,,,,1.7601,1,,,,,,,,,,,,,,z,1,1.7601,,,,,,,,0.112962963,-0.196296296,0,0,0,,0,24,24,91,1,SHENS,HB,old,z,./images/SHENSHB.png,,,,,,,,,,,,,,,,,,,,,
,,,,,,,,,,,,,,,,,199147,19,2022-01-28_23h58.04.134,lexical_decision_task_DD_L3,2021.2.3,Win32,60.09615385,,,,,,,,,,,,0.621,1,,,,,,,,,,,,,,m,1,0.621,,,,,,,,0.112962963,-0.196296296,0,0,0,,0,25,25,70,1,URINE,C,old,m,./images/URINE.png,,,,,,,,,,,,,,,,,,,,,
,,,,,,,,,,,,,,,,,199147,19,2022-01-28_23h58.04.134,lexical_decision_task_DD_L3,2021.2.3,Win32,60.09615385,,,,,,,,,,,,1.4755,1,,,,,,,,,,,,,,z,1,1.4755,,,,,,,,0.112962963,-0.196296296,0,0,0,,0,26,26,113,1,LINEW,LB,old,z,./images/LINEWLB.png,,,,,,,,,,,,,,,,,,,,,
,,,,,,,,,,,,,,,,,199147,19,2022-01-28_23h58.04.134,lexical_decision_task_DD_L3,2021.2.3,Win32,60.09615385,,,,,,,,,,,,1.4106,1,,,,,,,,,,,,,,z,1,1.4106,,,,,,,,0.112962963,-0.196296296,0,0,0,,0,27,27,154,1,THINT,HB,old,z,./images/THINTHB.png,,,,,,,,,,,,,,,,,,,,,
,,,,,,,,,,,,,,,,,199147,19,2022-01-28_23h58.04.134,lexical_decision_task_DD_L3,2021.2.3,Win32,60.09615385,,,,,,,,,,,,1.9055,0,,,,,,,,,,,,,,z,0,1.9055,,,,,,,,0.112962963,-0.196296296,0,0,0,,0,28,28,17,1,SKIING,HB,old,m,./images/SKIINGHB.png,,,,,,,,,,,,,,,,,,,,,
,,,,,,,,,,,,,,,,,199147,19,2022-01-28_23h58.04.134,lexical_decision_task_DD_L3,2021.2.3,Win32,60.09615385,,,,,,,,,,,,1.0308,1,,,,,,,,,,,,,,z,1,1.0308,,,,,,,,0.112962963,-0.196296296,0,0,0,,0,29,29,98,1,BAMPS,LB,old,z,./images/BAMPSLB.png,,,,,,,,,,,,,,,,,,,,,
,,,,,,,,,,,,,,,,,199147,19,2022-01-28_23h58.04.134,lexical_decision_task_DD_L3,2021.2.3,Win32,60.09615385,,,,,,,,,,,,0.6428,1,,,,,,,,,,,,,,m,1,0.6428,,,,,,,,0.112962963,-0.196296296,0,0,0,,0,30,30,3,1,FINGER,LB,old,m,./images/FINGERLB.png,,,,,,,,,,,,,,,,,,,,,
,,,,,,,,,,,,,,,,,199147,19,2022-01-28_23h58.04.134,lexical_decision_task_DD_L3,2021.2.3,Win32,60.09615385,,,,,,,,,,,,0.5931,1,,,,,,,,,,,,,,m,1,0.5931,,,,,,,,0.112962963,-0.196296296,0,0,0,,0,31,31,61,1,CANDLE,C,old,m,./images/CANDLE.png,,,,,,,,,,,,,,,,,,,,,
,,,,,,,,,,,,,,,,,199147,19,2022-01-28_23h58.04.134,lexical_decision_task_DD_L3,2021.2.3,Win32,60.09615385,,,,,,,,,,,,1.2526,1,,,,,,,,,,,,,,m,1,1.2526,,,,,,,,0.112962963,-0.196296296,0,0,0,,0,32,32,72,1,NOOSE,LB,old,m,./images/NOOSELB.png,,,,,,,,,,,,,,,,,,,,,
,,,,,,,,,,,,,,,,,199147,19,2022-01-28_23h58.04.134,lexical_decision_task_DD_L3,2021.2.3,Win32,60.09615385,,,,,,,,,,,,1.2576,1,,,,,,,,,,,,,,z,1,1.2576,,,,,,,,0.112962963,-0.196296296,0,0,0,,0,33,33,127,1,NINDY,HB,old,z,./images/NINDYHB.png,,,,,,,,,,,,,,,,,,,,,
,,,,,,,,,,,,,,,,,199147,19,2022-01-28_23h58.04.134,lexical_decision_task_DD_L3,2021.2.3,Win32,60.09615385,,,,,,,,,,,,2.2288,1,,,,,,,,,,,,,,z,1,2.2288,,,,,,,,0.112962963,-0.196296296,0,0,0,,0,34,34,100,1,DRIBS,HB,old,z,./images/DRIBSHB.png,,,,,,,,,,,,,,,,,,,,,
,,,,,,,,,,,,,,,,,199147,19,2022-01-28_23h58.04.134,lexical_decision_task_DD_L3,2021.2.3,Win32,60.09615385,,,,,,,,,,,,0.8692,1,,,,,,,,,,,,,,m,1,0.8692,,,,,,,,0.112962963,-0.196296296,0,0,0,,0,35,35,35,1,PEACH,HB,old,m,./images/PEACHHB.png,,,,,,,,,,,,,,,,,,,,,
,,,,,,,,,,,,,,,,,199147,19,2022-01-28_23h58.04.134,lexical_decision_task_DD_L3,2021.2.3,Win32,60.09615385,,,,,,,,,,,,0.7474,1,,,,,,,,,,,,,,z,1,0.7474,,,,,,,,0.112962963,-0.196296296,0,0,0,,0,36,36,93,1,SMONE,C,old,z,./images/SMONE.png,,,,,,,,,,,,,,,,,,,,,
,,,,,,,,,,,,,,,,,199147,19,2022-01-28_23h58.04.134,lexical_decision_task_DD_L3,2021.2.3,Win32,60.09615385,,,,,,,,,,,,0.8256,1,,,,,,,,,,,,,,m,1,0.8256,,,,,,,,0.112962963,-0.196296296,0,0,0,,0,37,37,43,1,MOSQUE,C,old,m,./images/MOSQUE.png,,,,,,,,,,,,,,,,,,,,,
,,,,,,,,,,,,,,,,,199147,19,2022-01-28_23h58.04.134,lexical_decision_task_DD_L3,2021.2.3,Win32,60.09615385,,,,,,,,,,,,1.5547,0,,,,,,,,,,,,,,m,0,1.5547,,,,,,,,0.112962963,-0.196296296,0,0,0,,0,38,38,166,1,SHORY,HB,old,z,./images/SHORYHB.png,,,,,,,,,,,,,,,,,,,,,
,,,,,,,,,,,,,,,,,199147,19,2022-01-28_23h58.04.134,lexical_decision_task_DD_L3,2021.2.3,Win32,60.09615385,,,,,,,,,,,,1.0365,1,,,,,,,,,,,,,,z,1,1.0365,,,,,,,,0.112962963,-0.196296296,0,0,0,,0,39,39,152,1,FRAIN,LB,old,z,./images/FRAINLB.png,,,,,,,,,,,,,,,,,,,,,
,,,,,,,,,,,,,,,,,199147,19,2022-01-28_23h58.04.134,lexical_decision_task_DD_L3,2021.2.3,Win32,60.09615385,,,,,,,,,,,,0.7402,1,,,,,,,,,,,,,,m,1,0.7402,,,,,,,,0.112962963,-0.196296296,0,0,0,,0,40,40,14,1,PICKLE,HB,old,m,./images/PICKLEHB.png,,,,,,,,,,,,,,,,,,,,,
,,,,,,,,,,,,,,,,,199147,19,2022-01-28_23h58.04.134,lexical_decision_task_DD_L3,2021.2.3,Win32,60.09615385,,,,,,,,,,,,1.8887,1,,,,,,,,,,,,,,m,1,1.8887,,,,,,,,0.112962963,-0.196296296,0,0,0,space,0,41,41,29,1,CRUMB,HB,old,m,./images/CRUMBHB.png,3.4984,,,,,,,,,,,,,,,,,,,,
,,,,,,,,,,,,,,,,,199147,19,2022-01-28_23h58.04.134,lexical_decision_task_DD_L3,2021.2.3,Win32,60.09615385,,,,,,,,,,,,1.3916,0,,,,,,,,,,,,,,z,0,1.3916,,,,,,,,0.112962963,-0.196296296,0,0,0,,0,42,42,38,1,LADDER,HB,old,m,./images/LADDERHB.png,,,,,,,,,,,,,,,,,,,,,
,,,,,,,,,,,,,,,,,199147,19,2022-01-28_23h58.04.134,lexical_decision_task_DD_L3,2021.2.3,Win32,60.09615385,,,,,,,,,,,,0.6555,1,,,,,,,,,,,,,,m,1,0.6555,,,,,,,,0.112962963,-0.196296296,0,0,0,,0,43,43,6,1,SQUARE,LB,old,m,./images/SQUARELB.png,,,,,,,,,,,,,,,,,,,,,
,,,,,,,,,,,,,,,,,199147,19,2022-01-28_23h58.04.134,lexical_decision_task_DD_L3,2021.2.3,Win32,60.09615385,,,,,,,,,,,,0.6048,1,,,,,,,,,,,,,,m,1,0.6048,,,,,,,,0.112962963,-0.196296296,0,0,0,,0,44,44,36,1,THROAT,LB,old,m,./images/THROATLB.png,,,,,,,,,,,,,,,,,,,,,
,,,,,,,,,,,,,,,,,199147,19,2022-01-28_23h58.04.134,lexical_decision_task_DD_L3,2021.2.3,Win32,60.09615385,,,,,,,,,,,,1.5924,0,,,,,,,,,,,,,,m,0,1.5924,,,,,,,,0.112962963,-0.196296296,0,0,0,,0,45,45,122,1,BLOOT,LB,old,z,./images/BLOOTLB.png,,,,,,,,,,,,,,,,,,,,,
,,,,,,,,,,,,,,,,,199147,19,2022-01-28_23h58.04.134,lexical_decision_task_DD_L3,2021.2.3,Win32,60.09615385,,,,,,,,,,,,0.8101,1,,,,,,,,,,,,,,z,1,0.8101,,,,,,,,0.112962963,-0.196296296,0,0,0,,0,46,46,147,1,ZOLES,C,old,z,./images/ZOLES.png,,,,,,,,,,,,,,,,,,,,,
,,,,,,,,,,,,,,,,,199147,19,2022-01-28_23h58.04.134,lexical_decision_task_DD_L3,2021.2.3,Win32,60.09615385,,,,,,,,,,,,2.1725,1,,,,,,,,,,,,,,z,1,2.1725,,,,,,,,0.112962963,-0.196296296,0,0,0,,0,47,47,160,1,VEETS,HB,old,z,./images/VEETSHB.png,,,,,,,,,,,,,,,,,,,,,
,,,,,,,,,,,,,,,,,199147,19,2022-01-28_23h58.04.134,lexical_decision_task_DD_L3,2021.2.3,Win32,60.09615385,,,,,,,,,,,,0.7758,1,,,,,,,,,,,,,,z,1,0.7758,,,,,,,,0.112962963,-0.196296296,0,0,0,,0,48,48,119,1,PAFER,LB,old,z,./images/PAFERLB.png,,,,,,,,,,,,,,,,,,,,,
,,,,,,,,,,,,,,,,,199147,19,2022-01-28_23h58.04.134,lexical_decision_task_DD_L3,2021.2.3,Win32,60.09615385,,,,,,,,,,,,0.7707,1,,,,,,,,,,,,,,z,1,0.7707,,,,,,,,0.112962963,-0.196296296,0,0,0,,0,49,49,167,1,ZONET,LB,old,z,./images/ZONETLB.png,,,,,,,,,,,,,,,,,,,,,
,,,,,,,,,,,,,,,,,199147,19,2022-01-28_23h58.04.134,lexical_decision_task_DD_L3,2021.2.3,Win32,60.09615385,,,,,,,,,,,,1.1713,1,,,,,,,,,,,,,,m,1,1.1713,,,,,,,,0.112962963,-0.196296296,0,0,0,,0,50,50,26,1,SMOKER,HB,old,m,./images/SMOKERHB.png,,,,,,,,,,,,,,,,,,,,,
,,,,,,,,,,,,,,,,,199147,19,2022-01-28_23h58.04.134,lexical_decision_task_DD_L3,2021.2.3,Win32,60.09615385,,,,,,,,,,,,1.0034,1,,,,,,,,,,,,,,m,1,1.0034,,,,,,,,0.112962963,-0.196296296,0,0,0,,0,51,51,24,1,SCREW,LB,old,m,./images/SCREWLB.png,,,,,,,,,,,,,,,,,,,,,
,,,,,,,,,,,,,,,,,199147,19,2022-01-28_23h58.04.134,lexical_decision_task_DD_L3,2021.2.3,Win32,60.09615385,,,,,,,,,,,,2.235,0,,,,,,,,,,,,,,m,0,2.235,,,,,,,,0.112962963,-0.196296296,0,0,0,,0,52,52,106,1,CLUMS,HB,old,z,./images/CLUMSHB.png,,,,,,,,,,,,,,,,,,,,,
,,,,,,,,,,,,,,,,,199147,19,2022-01-28_23h58.04.134,lexical_decision_task_DD_L3,2021.2.3,Win32,60.09615385,,,,,,,,,,,,1.8593,1,,,,,,,,,,,,,,z,1,1.8593,,,,,,,,0.112962963,-0.196296296,0,0,0,,0,53,53,156,1,HIXES,C,old,z,./images/HIXES.png,,,,,,,,,,,,,,,,,,,,,
,,,,,,,,,,,,,,,,,199147,19,2022-01-28_23h58.04.134,lexical_decision_task_DD_L3,2021.2.3,Win32,60.09615385,,,,,,,,,,,,0.7919,1,,,,,,,,,,,,,,m,1,0.7919,,,,,,,,0.112962963,-0.196296296,0,0,0,,0,54,54,39,1,SHELF,LB,old,m,./images/SHELFLB.png,,,,,,,,,,,,,,,,,,,,,
,,,,,,,,,,,,,,,,,199147,19,2022-01-28_23h58.04.134,lexical_decision_task_DD_L3,2021.2.3,Win32,60.09615385,,,,,,,,,,,,0.7334,1,,,,,,,,,,,,,,m,1,0.7334,,,,,,,,0.112962963,-0.196296296,0,0,0,,0,55,55,40,1,SWING,C,old,m,./images/SWING.png,,,,,,,,,,,,,,,,,,,,,
,,,,,,,,,,,,,,,,,199147,19,2022-01-28_23h58.04.134,lexical_decision_task_DD_L3,2021.2.3,Win32,60.09615385,,,,,,,,,,,,2.3353,1,,,,,,,,,,,,,,m,1,2.3353,,,,,,,,0.112962963,-0.196296296,0,0,0,,0,56,56,16,1,PENCE,C,old,m,./images/PENCE.png,,,,,,,,,,,,,,,,,,,,,
,,,,,,,,,,,,,,,,,199147,19,2022-01-28_23h58.04.134,lexical_decision_task_DD_L3,2021.2.3,Win32,60.09615385,,,,,,,,,,,,0.8238,1,,,,,,,,,,,,,,m,1,0.8238,,,,,,,,0.112962963,-0.196296296,0,0,0,,0,57,57,67,1,SAILOR,C,old,m,./images/SAILOR.png,,,,,,,,,,,,,,,,,,,,,
,,,,,,,,,,,,,,,,,199147,19,2022-01-28_23h58.04.134,lexical_decision_task_DD_L3,2021.2.3,Win32,60.09615385,,,,,,,,,,,,0.7783,1,,,,,,,,,,,,,,z,1,0.7783,,,,,,,,0.112962963,-0.196296296,0,0,0,,0,58,58,137,1,JOOST,LB,old,z,./images/JOOSTLB.png,,,,,,,,,,,,,,,,,,,,,
,,,,,,,,,,,,,,,,,199147,19,2022-01-28_23h58.04.134,lexical_decision_task_DD_L3,2021.2.3,Win32,60.09615385,,,,,,,,,,,,0.6987,1,,,,,,,,,,,,,,z,1,0.6987,,,,,,,,0.112962963,-0.196296296,0,0,0,,0,59,59,138,1,PLICE,C,old,z,./images/PLICE.png,,,,,,,,,,,,,,,,,,,,,
,,,,,,,,,,,,,,,,,199147,19,2022-01-28_23h58.04.134,lexical_decision_task_DD_L3,2021.2.3,Win32,60.09615385,,,,,,,,,,,,1.6256,1,,,,,,,,,,,,,,z,1,1.6256,,,,,,,,0.112962963,-0.196296296,0,0,0,,0,60,60,136,1,WERVE,HB,old,z,./images/WERVEHB.png,,,,,,,,,,,,,,,,,,,,,
,,,,,,,,,,,,,,,,,199147,19,2022-01-28_23h58.04.134,lexical_decision_task_DD_L3,2021.2.3,Win32,60.09615385,,,,,,,,,,,,0.9043,1,,,,,,,,,,,,,,m,1,0.9043,,,,,,,,0.112962963,-0.196296296,0,0,0,,0,61,61,54,1,TRIPOD,LB,old,m,./images/TRIPODLB.png,,,,,,,,,,,,,,,,,,,,,
,,,,,,,,,,,,,,,,,199147,19,2022-01-28_23h58.04.134,lexical_decision_task_DD_L3,2021.2.3,Win32,60.09615385,,,,,,,,,,,,0.7032,1,,,,,,,,,,,,,,z,1,0.7032,,,,,,,,0.112962963,-0.196296296,0,0,0,,0,62,62,126,1,GUELS,C,old,z,./images/GUELS.png,,,,,,,,,,,,,,,,,,,,,
,,,,,,,,,,,,,,,,,199147,19,2022-01-28_23h58.04.134,lexical_decision_task_DD_L3,2021.2.3,Win32,60.09615385,,,,,,,,,,,,0.6424,1,,,,,,,,,,,,,,m,1,0.6424,,,,,,,,0.112962963,-0.196296296,0,0,0,,0,63,63,7,1,PAINT,C,old,m,./images/PAINT.png,,,,,,,,,,,,,,,,,,,,,
,,,,,,,,,,,,,,,,,199147,19,2022-01-28_23h58.04.134,lexical_decision_task_DD_L3,2021.2.3,Win32,60.09615385,,,,,,,,,,,,1.3183,1,,,,,,,,,,,,,,z,1,1.3183,,,,,,,,0.112962963,-0.196296296,0,0,0,,0,64,64,115,1,MAWNS,HB,old,z,./images/MAWNSHB.png,,,,,,,,,,,,,,,,,,,,,
,,,,,,,,,,,,,,,,,199147,19,2022-01-28_23h58.04.134,lexical_decision_task_DD_L3,2021.2.3,Win32,60.09615385,,,,,,,,,,,,0.6946,1,,,,,,,,,,,,,,z,1,0.6946,,,,,,,,0.112962963,-0.196296296,0,0,0,,0,65,65,162,1,LEICH,C,old,z,./images/LEICH.png,,,,,,,,,,,,,,,,,,,,,
,,,,,,,,,,,,,,,,,199147,19,2022-01-28_23h58.04.134,lexical_decision_task_DD_L3,2021.2.3,Win32,60.09615385,,,,,,,,,,,,1.2842,1,,,,,,,,,,,,,,z,1,1.2842,,,,,,,,0.112962963,-0.196296296,0,0,0,,0,66,66,134,1,TROSS,LB,old,z,./images/TROSSLB.png,,,,,,,,,,,,,,,,,,,,,
,,,,,,,,,,,,,,,,,199147,19,2022-01-28_23h58.04.134,lexical_decision_task_DD_L3,2021.2.3,Win32,60.09615385,,,,,,,,,,,,0.6368,1,,,,,,,,,,,,,,m,1,0.6368,,,,,,,,0.112962963,-0.196296296,0,0,0,,0,67,67,55,1,MUFFIN,C,old,m,./images/MUFFIN.png,,,,,,,,,,,,,,,,,,,,,
,,,,,,,,,,,,,,,,,199147,19,2022-01-28_23h58.04.134,lexical_decision_task_DD_L3,2021.2.3,Win32,60.09615385,,,,,,,,,,,,0.6045,1,,,,,,,,,,,,,,m,1,0.6045,,,,,,,,0.112962963,-0.196296296,0,0,0,,0,68,68,48,1,SPORT,LB,old,m,./images/SPORTLB.png,,,,,,,,,,,,,,,,,,,,,
,,,,,,,,,,,,,,,,,199147,19,2022-01-28_23h58.04.134,lexical_decision_task_DD_L3,2021.2.3,Win32,60.09615385,,,,,,,,,,,,0.8543,1,,,,,,,,,,,,,,m,1,0.8543,,,,,,,,0.112962963,-0.196296296,0,0,0,,0,69,69,33,1,MAGGOT,LB,old,m,./images/MAGGOTLB.png,,,,,,,,,,,,,,,,,,,,,
,,,,,,,,,,,,,,,,,199147,19,2022-01-28_23h58.04.134,lexical_decision_task_DD_L3,2021.2.3,Win32,60.09615385,,,,,,,,,,,,0.7974,1,,,,,,,,,,,,,,z,1,0.7974,,,,,,,,0.112962963,-0.196296296,0,0,0,,0,70,70,153,1,CLUPS,C,old,z,./images/CLUPS.png,,,,,,,,,,,,,,,,,,,,,
,,,,,,,,,,,,,,,,,199147,19,2022-01-28_23h58.04.134,lexical_decision_task_DD_L3,2021.2.3,Win32,60.09615385,,,,,,,,,,,,1.0452,1,,,,,,,,,,,,,,m,1,1.0452,,,,,,,,0.112962963,-0.196296296,0,0,0,,0,71,71,44,1,LIZARD,HB,old,m,./images/LIZARDHB.png,,,,,,,,,,,,,,,,,,,,,
,,,,,,,,,,,,,,,,,199147,19,2022-01-28_23h58.04.134,lexical_decision_task_DD_L3,2021.2.3,Win32,60.09615385,,,,,,,,,,,,0.9963,1,,,,,,,,,,,,,,z,1,0.9963,,,,,,,,0.112962963,-0.196296296,0,0,0,,0,72,72,86,1,AIFED,LB,old,z,./images/AIFEDLB.png,,,,,,,,,,,,,,,,,,,,,
,,,,,,,,,,,,,,,,,199147,19,2022-01-28_23h58.04.134,lexical_decision_task_DD_L3,2021.2.3,Win32,60.09615385,,,,,,,,,,,,0.6683,1,,,,,,,,,,,,,,m,1,0.6683,,,,,,,,0.112962963,-0.196296296,0,0,0,,0,73,73,78,1,LITTER,LB,old,m,./images/LITTERLB.png,,,,,,,,,,,,,,,,,,,,,
,,,,,,,,,,,,,,,,,199147,19,2022-01-28_23h58.04.134,lexical_decision_task_DD_L3,2021.2.3,Win32,60.09615385,,,,,,,,,,,,1.4641,1,,,,,,,,,,,,,,z,1,1.4641,,,,,,,,0.112962963,-0.196296296,0,0,0,,0,74,74,139,1,BLEAR,HB,old,z,./images/BLEARHB.png,,,,,,,,,,,,,,,,,,,,,
,,,,,,,,,,,,,,,,,199147,19,2022-01-28_23h58.04.134,lexical_decision_task_DD_L3,2021.2.3,Win32,60.09615385,,,,,,,,,,,,1.236,1,,,,,,,,,,,,,,z,1,1.236,,,,,,,,0.112962963,-0.196296296,0,0,0,,0,75,75,103,1,FLORT,HB,old,z,./images/FLORTHB.png,,,,,,,,,,,,,,,,,,,,,
,,,,,,,,,,,,,,,,,199147,19,2022-01-28_23h58.04.134,lexical_decision_task_DD_L3,2021.2.3,Win32,60.09615385,,,,,,,,,,,,0.8117,1,,,,,,,,,,,,,,z,1,0.8117,,,,,,,,0.112962963,-0.196296296,0,0,0,,0,76,76,116,1,BALGY,LB,old,z,./images/BALGYLB.png,,,,,,,,,,,,,,,,,,,,,
,,,,,,,,,,,,,,,,,199147,19,2022-01-28_23h58.04.134,lexical_decision_task_DD_L3,2021.2.3,Win32,60.09615385,,,,,,,,,,,,0.7517,1,,,,,,,,,,,,,,z,1,0.7517,,,,,,,,0.112962963,-0.196296296,0,0,0,,0,77,77,132,1,SCIFF,C,old,z,./images/SCIFF.png,,,,,,,,,,,,,,,,,,,,,
,,,,,,,,,,,,,,,,,199147,19,2022-01-28_23h58.04.134,lexical_decision_task_DD_L3,2021.2.3,Win32,60.09615385,,,,,,,,,,,,1.2609,1,,,,,,,,,,,,,,z,1,1.2609,,,,,,,,0.112962963,-0.196296296,0,0,0,,0,78,78,109,1,BURGE,HB,old,z,./images/BURGEHB.png,,,,,,,,,,,,,,,,,,,,,
,,,,,,,,,,,,,,,,,199147,19,2022-01-28_23h58.04.134,lexical_decision_task_DD_L3,2021.2.3,Win32,60.09615385,,,,,,,,,,,,0.8563,1,,,,,,,,,,,,,,m,1,0.8563,,,,,,,,0.112962963,-0.196296296,0,0,0,,0,79,79,8,1,TULIP,HB,old,m,./images/TULIPHB.png,,,,,,,,,,,,,,,,,,,,,
,,,,,,,,,,,,,,,,,199147,19,2022-01-28_23h58.04.134,lexical_decision_task_DD_L3,2021.2.3,Win32,60.09615385,,,,,,,,,,,,1.2611,1,,,,,,,,,,,,,,m,1,1.2611,,,,,,,,0.112962963,-0.196296296,0,0,0,,0,80,80,71,1,PIMPLE,HB,old,m,./images/PIMPLEHB.png,,,,,,,,,,,,,,,,,,,,,
,,,,,,,,,,,,,,,,,199147,19,2022-01-28_23h58.04.134,lexical_decision_task_DD_L3,2021.2.3,Win32,60.09615385,,,,,,,,,,,,1.4136,1,,,,,,,,,,,,,,z,1,1.4136,,,,,,,,0.112962963,-0.196296296,0,0,0,,0,81,81,118,1,BAVEL,HB,old,z,./images/BAVELHB.png,,,,,,,,,,,,,,,,,,,,,
,,,,,,,,,,,,,,,,,199147,19,2022-01-28_23h58.04.134,lexical_decision_task_DD_L3,2021.2.3,Win32,60.09615385,,,,,,,,,,,,0.8947,1,,,,,,,,,,,,,,z,1,0.8947,,,,,,,,0.112962963,-0.196296296,0,0,0,,0,82,82,89,1,DRIEK,LB,old,z,./images/DRIEKLB.png,,,,,,,,,,,,,,,,,,,,,
,,,,,,,,,,,,,,,,,199147,19,2022-01-28_23h58.04.134,lexical_decision_task_DD_L3,2021.2.3,Win32,60.09615385,,,,,,,,,,,,0.6371,1,,,,,,,,,,,,,,m,1,0.6371,,,,,,,,0.112962963,-0.196296296,0,0,0,space,0,83,83,64,1,JELLY,C,old,m,./images/JELLY.png,2.9575,,,,,,,,,,,,,,,,,,,,
,,,,,,,,,,,,,,,,,199147,19,2022-01-28_23h58.04.134,lexical_decision_task_DD_L3,2021.2.3,Win32,60.09615385,,,,,,,,,,,,1.0825,1,,,,,,,,,,,,,,m,1,1.0825,,,,,,,,0.112962963,-0.196296296,0,0,0,,0,84,84,2,1,BEARD,HB,old,m,./images/BEARDHB.png,,,,,,,,,,,,,,,,,,,,,
,,,,,,,,,,,,,,,,,199147,19,2022-01-28_23h58.04.134,lexical_decision_task_DD_L3,2021.2.3,Win32,60.09615385,,,,,,,,,,,,1.3393,1,,,,,,,,,,,,,,z,1,1.3393,,,,,,,,0.112962963,-0.196296296,0,0,0,,0,85,85,142,1,PLASK,HB,old,z,./images/PLASKHB.png,,,,,,,,,,,,,,,,,,,,,
,,,,,,,,,,,,,,,,,199147,19,2022-01-28_23h58.04.134,lexical_decision_task_DD_L3,2021.2.3,Win32,60.09615385,,,,,,,,,,,,0.8879,1,,,,,,,,,,,,,,m,1,0.8879,,,,,,,,0.112962963,-0.196296296,0,0,0,,0,86,86,80,1,WEASEL,HB,old,m,./images/WEASELHB.png,,,,,,,,,,,,,,,,,,,,,
,,,,,,,,,,,,,,,,,199147,19,2022-01-28_23h58.04.134,lexical_decision_task_DD_L3,2021.2.3,Win32,60.09615385,,,,,,,,,,,,0.7688,1,,,,,,,,,,,,,,m,1,0.7688,,,,,,,,0.112962963,-0.196296296,0,0,0,,0,87,87,60,1,TWINS,LB,old,m,./images/TWINSLB.png,,,,,,,,,,,,,,,,,,,,,
,,,,,,,,,,,,,,,,,199147,19,2022-01-28_23h58.04.134,lexical_decision_task_DD_L3,2021.2.3,Win32,60.09615385,,,,,,,,,,,,0.7722,1,,,,,,,,,,,,,,m,1,0.7722,,,,,,,,0.112962963,-0.196296296,0,0,0,,0,88,88,79,1,CRUST,C,old,m,./images/CRUST.png,,,,,,,,,,,,,,,,,,,,,
,,,,,,,,,,,,,,,,,199147,19,2022-01-28_23h58.04.134,lexical_decision_task_DD_L3,2021.2.3,Win32,60.09615385,,,,,,,,,,,,0.6483,1,,,,,,,,,,,,,,m,1,0.6483,,,,,,,,0.112962963,-0.196296296,0,0,0,,0,89,89,19,1,DOUGH,C,old,m,./images/DOUGH.png,,,,,,,,,,,,,,,,,,,,,
,,,,,,,,,,,,,,,,,199147,19,2022-01-28_23h58.04.134,lexical_decision_task_DD_L3,2021.2.3,Win32,60.09615385,,,,,,,,,,,,1.2126,1,,,,,,,,,,,,,,z,1,1.2126,,,,,,,,0.112962963,-0.196296296,0,0,0,,0,90,90,85,1,CHULK,HB,old,z,./images/CHULKHB.png,,,,,,,,,,,,,,,,,,,,,
,,,,,,,,,,,,,,,,,199147,19,2022-01-28_23h58.04.134,lexical_decision_task_DD_L3,2021.2.3,Win32,60.09615385,,,,,,,,,,,,2.0267,1,,,,,,,,,,,,,,z,1,2.0267,,,,,,,,0.112962963,-0.196296296,0,0,0,,0,91,91,163,1,GAMBA,HB,old,z,./images/GAMBAHB.png,,,,,,,,,,,,,,,,,,,,,
,,,,,,,,,,,,,,,,,199147,19,2022-01-28_23h58.04.134,lexical_decision_task_DD_L3,2021.2.3,Win32,60.09615385,,,,,,,,,,,,1.1925,1,,,,,,,,,,,,,,m,1,1.1925,,,,,,,,0.112962963,-0.196296296,0,0,0,,0,92,92,27,1,ATTIC,LB,old,m,./images/ATTICLB.png,,,,,,,,,,,,,,,,,,,,,
,,,,,,,,,,,,,,,,,199147,19,2022-01-28_23h58.04.134,lexical_decision_task_DD_L3,2021.2.3,Win32,60.09615385,,,,,,,,,,,,0.8663,1,,,,,,,,,,,,,,m,1,0.8663,,,,,,,,0.112962963,-0.196296296,0,0,0,,0,93,93,32,1,BARREL,HB,old,m,./images/BARRELHB.png,,,,,,,,,,,,,,,,,,,,,
,,,,,,,,,,,,,,,,,199147,19,2022-01-28_23h58.04.134,lexical_decision_task_DD_L3,2021.2.3,Win32,60.09615385,,,,,,,,,,,,0.8847,1,,,,,,,,,,,,,,m,1,0.8847,,,,,,,,0.112962963,-0.196296296,0,0,0,,0,94,94,74,1,CEMENT,HB,old,m,./images/CEMENTHB.png,,,,,,,,,,,,,,,,,,,,,
,,,,,,,,,,,,,,,,,199147,19,2022-01-28_23h58.04.134,lexical_decision_task_DD_L3,2021.2.3,Win32,60.09615385,,,,,,,,,,,,0.9193,1,,,,,,,,,,,,,,z,1,0.9193,,,,,,,,0.112962963,-0.196296296,0,0,0,,0,95,95,84,1,HAXES,C,old,z,./images/HAXES.png,,,,,,,,,,,,,,,,,,,,,
,,,,,,,,,,,,,,,,,199147,19,2022-01-28_23h58.04.134,lexical_decision_task_DD_L3,2021.2.3,Win32,60.09615385,,,,,,,,,,,,0.8814,1,,,,,,,,,,,,,,z,1,0.8814,,,,,,,,0.112962963,-0.196296296,0,0,0,,0,96,96,117,1,STEEG,C,old,z,./images/STEEG.png,,,,,,,,,,,,,,,,,,,,,
,,,,,,,,,,,,,,,,,199147,19,2022-01-28_23h58.04.134,lexical_decision_task_DD_L3,2021.2.3,Win32,60.09615385,,,,,,,,,,,,1.0317,1,,,,,,,,,,,,,,m,1,1.0317,,,,,,,,0.112962963,-0.196296296,0,0,0,,0,97,97,42,1,FOLDER,LB,old,m,./images/FOLDERLB.png,,,,,,,,,,,,,,,,,,,,,
,,,,,,,,,,,,,,,,,199147,19,2022-01-28_23h58.04.134,lexical_decision_task_DD_L3,2021.2.3,Win32,60.09615385,,,,,,,,,,,,0.9667,1,,,,,,,,,,,,,,m,1,0.9667,,,,,,,,0.112962963,-0.196296296,0,0,0,,0,98,98,82,1,SUNSET,C,old,m,./images/SUNSET.png,,,,,,,,,,,,,,,,,,,,,
,,,,,,,,,,,,,,,,,199147,19,2022-01-28_23h58.04.134,lexical_decision_task_DD_L3,2021.2.3,Win32,60.09615385,,,,,,,,,,,,0.6633,1,,,,,,,,,,,,,,m,1,0.6633,,,,,,,,0.112962963,-0.196296296,0,0,0,,0,99,99,45,1,KITTEN,LB,old,m,./images/KITTENLB.png,,,,,,,,,,,,,,,,,,,,,
,,,,,,,,,,,,,,,,,199147,19,2022-01-28_23h58.04.134,lexical_decision_task_DD_L3,2021.2.3,Win32,60.09615385,,,,,,,,,,,,1.654,1,,,,,,,,,,,,,,z,1,1.654,,,,,,,,0.112962963,-0.196296296,0,0,0,,0,100,100,140,1,DOVET,LB,old,z,./images/DOVETLB.png,,,,,,,,,,,,,,,,,,,,,
,,,,,,,,,,,,,,,,,199147,19,2022-01-28_23h58.04.134,lexical_decision_task_DD_L3,2021.2.3,Win32,60.09615385,,,,,,,,,,,,0.7422,1,,,,,,,,,,,,,,m,1,0.7422,,,,,,,,0.112962963,-0.196296296,0,0,0,,0,101,101,34,1,CANYON,C,old,m,./images/CANYON.png,,,,,,,,,,,,,,,,,,,,,
,,,,,,,,,,,,,,,,,199147,19,2022-01-28_23h58.04.134,lexical_decision_task_DD_L3,2021.2.3,Win32,60.09615385,,,,,,,,,,,,0.948,1,,,,,,,,,,,,,,m,1,0.948,,,,,,,,0.112962963,-0.196296296,0,0,0,,0,102,102,5,1,PASTA,HB,old,m,./images/PASTAHB.png,,,,,,,,,,,,,,,,,,,,,
,,,,,,,,,,,,,,,,,199147,19,2022-01-28_23h58.04.134,lexical_decision_task_DD_L3,2021.2.3,Win32,60.09615385,,,,,,,,,,,,0.819,1,,,,,,,,,,,,,,z,1,0.819,,,,,,,,0.112962963,-0.196296296,0,0,0,,0,103,103,144,1,NAIRY,C,old,z,./images/NAIRY.png,,,,,,,,,,,,,,,,,,,,,
,,,,,,,,,,,,,,,,,199147,19,2022-01-28_23h58.04.134,lexical_decision_task_DD_L3,2021.2.3,Win32,60.09615385,,,,,,,,,,,,1.1005,1,,,,,,,,,,,,,,m,1,1.1005,,,,,,,,0.112962963,-0.196296296,0,0,0,,0,104,104,50,1,MALLET,HB,old,m,./images/MALLETHB.png,,,,,,,,,,,,,,,,,,,,,
,,,,,,,,,,,,,,,,,199147,19,2022-01-28_23h58.04.134,lexical_decision_task_DD_L3,2021.2.3,Win32,60.09615385,,,,,,,,,,,,1.0687,1,,,,,,,,,,,,,,z,1,1.0687,,,,,,,,0.112962963,-0.196296296,0,0,0,,0,105,105,159,1,CUDDY,C,old,z,./images/CUDDY.png,,,,,,,,,,,,,,,,,,,,,
,,,,,,,,,,,,,,,,,199147,19,2022-01-28_23h58.04.134,lexical_decision_task_DD_L3,2021.2.3,Win32,60.09615385,,,,,,,,,,,,1.0531,1,,,,,,,,,,,,,,z,1,1.0531,,,,,,,,0.112962963,-0.196296296,0,0,0,,0,106,106,102,1,DULLE,C,old,z,./images/DULLE.png,,,,,,,,,,,,,,,,,,,,,
,,,,,,,,,,,,,,,,,199147,19,2022-01-28_23h58.04.134,lexical_decision_task_DD_L3,2021.2.3,Win32,60.09615385,,,,,,,,,,,,0.609,1,,,,,,,,,,,,,,m,1,0.609,,,,,,,,0.112962963,-0.196296296,0,0,0,,0,107,107,30,1,STORM,LB,old,m,./images/STORMLB.png,,,,,,,,,,,,,,,,,,,,,
,,,,,,,,,,,,,,,,,199147,19,2022-01-28_23h58.04.134,lexical_decision_task_DD_L3,2021.2.3,Win32,60.09615385,,,,,,,,,,,,0.8096,1,,,,,,,,,,,,,,z,1,0.8096,,,,,,,,0.112962963,-0.196296296,0,0,0,,0,108,108,92,1,PAIMS,LB,old,z,./images/PAIMSLB.png,,,,,,,,,,,,,,,,,,,,,
,,,,,,,,,,,,,,,,,199147,19,2022-01-28_23h58.04.134,lexical_decision_task_DD_L3,2021.2.3,Win32,60.09615385,,,,,,,,,,,,0.6708,1,,,,,,,,,,,,,,m,1,0.6708,,,,,,,,0.112962963,-0.196296296,0,0,0,,0,109,109,41,1,STRING,HB,old,m,./images/STRINGHB.png,,,,,,,,,,,,,,,,,,,,,
,,,,,,,,,,,,,,,,,199147,19,2022-01-28_23h58.04.134,lexical_decision_task_DD_L3,2021.2.3,Win32,60.09615385,,,,,,,,,,,,0.6547,0,,,,,,,,,,,,,,z,0,0.6547,,,,,,,,0.112962963,-0.196296296,0,0,0,,0,110,110,18,1,JAGUAR,LB,old,m,./images/JAGUARLB.png,,,,,,,,,,,,,,,,,,,,,
,,,,,,,,,,,,,,,,,199147,19,2022-01-28_23h58.04.134,lexical_decision_task_DD_L3,2021.2.3,Win32,60.09615385,,,,,,,,,,,,0.7223,1,,,,,,,,,,,,,,z,1,0.7223,,,,,,,,0.112962963,-0.196296296,0,0,0,,0,111,111,135,1,JOODY,C,old,z,./images/JOODY.png,,,,,,,,,,,,,,,,,,,,,
,,,,,,,,,,,,,,,,,199147,19,2022-01-28_23h58.04.134,lexical_decision_task_DD_L3,2021.2.3,Win32,60.09615385,,,,,,,,,,,,0.6499,1,,,,,,,,,,,,,,m,1,0.6499,,,,,,,,0.112962963,-0.196296296,0,0,0,,0,112,112,73,1,SNACK,C,old,m,./images/SNACK.png,,,,,,,,,,,,,,,,,,,,,
,,,,,,,,,,,,,,,,,199147,19,2022-01-28_23h58.04.134,lexical_decision_task_DD_L3,2021.2.3,Win32,60.09615385,,,,,,,,,,,,1.2464,1,,,,,,,,,,,,,,z,1,1.2464,,,,,,,,0.112962963,-0.196296296,0,0,0,,0,113,113,161,1,BLAPS,LB,old,z,./images/BLAPSLB.png,,,,,,,,,,,,,,,,,,,,,
,,,,,,,,,,,,,,,,,199147,19,2022-01-28_23h58.04.134,lexical_decision_task_DD_L3,2021.2.3,Win32,60.09615385,,,,,,,,,,,,0.6346,1,,,,,,,,,,,,,,m,1,0.6346,,,,,,,,0.112962963,-0.196296296,0,0,0,,0,114,114,37,1,BIRTH,C,old,m,./images/BIRTH.png,,,,,,,,,,,,,,,,,,,,,
,,,,,,,,,,,,,,,,,199147,19,2022-01-28_23h58.04.134,lexical_decision_task_DD_L3,2021.2.3,Win32,60.09615385,,,,,,,,,,,,1.0087,1,,,,,,,,,,,,,,z,1,1.0087,,,,,,,,0.112962963,-0.196296296,0,0,0,,0,115,115,146,1,MOOST,LB,old,z,./images/MOOSTLB.png,,,,,,,,,,,,,,,,,,,,,
,,,,,,,,,,,,,,,,,199147,19,2022-01-28_23h58.04.134,lexical_decision_task_DD_L3,2021.2.3,Win32,60.09615385,,,,,,,,,,,,0.606,1,,,,,,,,,,,,,,z,1,0.606,,,,,,,,0.112962963,-0.196296296,0,0,0,,0,116,116,108,1,GRUET,C,old,z,./images/GRUET.png,,,,,,,,,,,,,,,,,,,,,
,,,,,,,,,,,,,,,,,199147,19,2022-01-28_23h58.04.134,lexical_decision_task_DD_L3,2021.2.3,Win32,60.09615385,,,,,,,,,,,,1.0829,1,,,,,,,,,,,,,,z,1,1.0829,,,,,,,,0.112962963,-0.196296296,0,0,0,,0,117,117,88,1,GLUSH,HB,old,z,./images/GLUSHHB.png,,,,,,,,,,,,,,,,,,,,,
,,,,,,,,,,,,,,,,,199147,19,2022-01-28_23h58.04.134,lexical_decision_task_DD_L3,2021.2.3,Win32,60.09615385,,,,,,,,,,,,1.1133,1,,,,,,,,,,,,,,z,1,1.1133,,,,,,,,0.112962963,-0.196296296,0,0,0,,0,118,118,97,1,CHIDS,HB,old,z,./images/CHIDSHB.png,,,,,,,,,,,,,,,,,,,,,
,,,,,,,,,,,,,,,,,199147,19,2022-01-28_23h58.04.134,lexical_decision_task_DD_L3,2021.2.3,Win32,60.09615385,,,,,,,,,,,,0.7051,1,,,,,,,,,,,,,,z,1,0.7051,,,,,,,,0.112962963,-0.196296296,0,0,0,,0,119,119,158,1,EGECT,LB,old,z,./images/EGECTLB.png,,,,,,,,,,,,,,,,,,,,,
,,,,,,,,,,,,,,,,,199147,19,2022-01-28_23h58.04.134,lexical_decision_task_DD_L3,2021.2.3,Win32,60.09615385,,,,,,,,,,,,0.7248,1,,,,,,,,,,,,,,z,1,0.7248,,,,,,,,0.112962963,-0.196296296,0,0,0,,0,120,120,95,1,HANTY,LB,old,z,./images/HANTYLB.png,,,,,,,,,,,,,,,,,,,,,
,,,,,,,,,,,,,,,,,199147,19,2022-01-28_23h58.04.134,lexical_decision_task_DD_L3,2021.2.3,Win32,60.09615385,,,,,,,,,,,,0.5717,1,,,,,,,,,,,,,,z,1,0.5717,,,,,,,,0.112962963,-0.196296296,0,0,0,,0,121,121,96,1,KEAMS,C,old,z,./images/KEAMS.png,,,,,,,,,,,,,,,,,,,,,
,,,,,,,,,,,,,,,,,199147,19,2022-01-28_23h58.04.134,lexical_decision_task_DD_L3,2021.2.3,Win32,60.09615385,,,,,,,,,,,,0.8442,1,,,,,,,,,,,,,,z,1,0.8442,,,,,,,,0.112962963,-0.196296296,0,0,0,,0,122,122,121,1,CEERS,HB,old,z,./images/CEERSHB.png,,,,,,,,,,,,,,,,,,,,,
,,,,,,,,,,,,,,,,,199147,19,2022-01-28_23h58.04.134,lexical_decision_task_DD_L3,2021.2.3,Win32,60.09615385,,,,,,,,,,,,0.7854,1,,,,,,,,,,,,,,m,1,0.7854,,,,,,,,0.112962963,-0.196296296,0,0,0,,0,123,123,1,1,PLANK,C,old,m,./images/PLANK.png,,,,,,,,,,,,,,,,,,,,,
,,,,,,,,,,,,,,,,,199147,19,2022-01-28_23h58.04.134,lexical_decision_task_DD_L3,2021.2.3,Win32,60.09615385,,,,,,,,,,,,0.7541,1,,,,,,,,,,,,,,m,1,0.7541,,,,,,,,0.112962963,-0.196296296,0,0,0,,0,124,124,62,1,PURSE,HB,old,m,./images/PURSEHB.png,,,,,,,,,,,,,,,,,,,,,
,,,,,,,,,,,,,,,,,199147,19,2022-01-28_23h58.04.134,lexical_decision_task_DD_L3,2021.2.3,Win32,60.09615385,,,,,,,,,,,,2.1136,1,,,,,,,,,,,,,,z,1,2.1136,,,,,,,,0.112962963,-0.196296296,0,0,0,space,0,125,125,165,1,TROWN,C,old,z,./images/TROWN.png,2.1854,,,,,,,,,,,,,,,,,,,,
,,,,,,,,,,,,,,,,,199147,19,2022-01-28_23h58.04.134,lexical_decision_task_DD_L3,2021.2.3,Win32,60.09615385,,,,,,,,,,,,0.7507,1,,,,,,,,,,,,,,m,1,0.7507,,,,,,,,0.112962963,-0.196296296,0,0,0,,0,126,126,81,1,POODLE,LB,old,m,./images/POODLELB.png,,,,,,,,,,,,,,,,,,,,,
,,,,,,,,,,,,,,,,,199147,19,2022-01-28_23h58.04.134,lexical_decision_task_DD_L3,2021.2.3,Win32,60.09615385,,,,,,,,,,,,0.6027,1,,,,,,,,,,,,,,m,1,0.6027,,,,,,,,0.112962963,-0.196296296,0,0,0,,0,127,127,57,1,MOOSE,LB,old,m,./images/MOOSELB.png,,,,,,,,,,,,,,,,,,,,,
,,,,,,,,,,,,,,,,,199147,19,2022-01-28_23h58.04.134,lexical_decision_task_DD_L3,2021.2.3,Win32,60.09615385,,,,,,,,,,,,1.5264,1,,,,,,,,,,,,,,z,1,1.5264,,,,,,,,0.112962963,-0.196296296,0,0,0,,0,128,128,133,1,POWDY,HB,old,z,./images/POWDYHB.png,,,,,,,,,,,,,,,,,,,,,
,,,,,,,,,,,,,,,,,199147,19,2022-01-28_23h58.04.134,lexical_decision_task_DD_L3,2021.2.3,Win32,60.09615385,,,,,,,,,,,,0.9559,1,,,,,,,,,,,,,,z,1,0.9559,,,,,,,,0.112962963,-0.196296296,0,0,0,,0,129,129,129,1,PRANS,C,old,z,./images/PRANS.png,,,,,,,,,,,,,,,,,,,,,
,,,,,,,,,,,,,,,,,199147,19,2022-01-28_23h58.04.134,lexical_decision_task_DD_L3,2021.2.3,Win32,60.09615385,,,,,,,,,,,,0.577,1,,,,,,,,,,,,,,m,1,0.577,,,,,,,,0.112962963,-0.196296296,0,0,0,,0,130,130,46,1,PEARL,C,old,m,./images/PEARL.png,,,,,,,,,,,,,,,,,,,,,
,,,,,,,,,,,,,,,,,199147,19,2022-01-28_23h58.04.134,lexical_decision_task_DD_L3,2021.2.3,Win32,60.09615385,,,,,,,,,,,,1.3911,1,,,,,,,,,,,,,,z,1,1.3911,,,,,,,,0.112962963,-0.196296296,0,0,0,,0,131,131,112,1,MYING,HB,old,z,./images/MYINGHB.png,,,,,,,,,,,,,,,,,,,,,
,,,,,,,,,,,,,,,,,199147,19,2022-01-28_23h58.04.134,lexical_decision_task_DD_L3,2021.2.3,Win32,60.09615385,,,,,,,,,,,,2.5596,1,,,,,,,,,,,,,,z,1,2.5596,,,,,,,,0.112962963,-0.196296296,0,0,0,,0,132,132,151,1,TINKY,HB,old,z,./images/TINKYHB.png,,,,,,,,,,,,,,,,,,,,,
,,,,,,,,,,,,,,,,,199147,19,2022-01-28_23h58.04.134,lexical_decision_task_DD_L3,2021.2.3,Win32,60.09615385,,,,,,,,,,,,0.7242,1,,,,,,,,,,,,,,m,1,0.7242,,,,,,,,0.112962963,-0.196296296,0,0,0,,0,133,133,21,1,KIDNEY,LB,old,m,./images/KIDNEYLB.png,,,,,,,,,,,,,,,,,,,,,
,,,,,,,,,,,,,,,,,199147,19,2022-01-28_23h58.04.134,lexical_decision_task_DD_L3,2021.2.3,Win32,60.09615385,,,,,,,,,,,,0.7361,1,,,,,,,,,,,,,,m,1,0.7361,,,,,,,,0.112962963,-0.196296296,0,0,0,,0,134,134,13,1,MOTOR,C,old,m,./images/MOTOR.png,,,,,,,,,,,,,,,,,,,,,
,,,,,,,,,,,,,,,,,199147,19,2022-01-28_23h58.04.134,lexical_decision_task_DD_L3,2021.2.3,Win32,60.09615385,,,,,,,,,,,,0.6402,1,,,,,,,,,,,,,,m,1,0.6402,,,,,,,,0.112962963,-0.196296296,0,0,0,,0,135,135,51,1,ONION,LB,old,m,./images/ONIONLB.png,,,,,,,,,,,,,,,,,,,,,
,,,,,,,,,,,,,,,,,199147,19,2022-01-28_23h58.04.134,lexical_decision_task_DD_L3,2021.2.3,Win32,60.09615385,,,,,,,,,,,,0.8952,1,,,,,,,,,,,,,,z,1,0.8952,,,,,,,,0.112962963,-0.196296296,0,0,0,,0,136,136,99,1,BACKY,C,old,z,./images/BACKY.png,,,,,,,,,,,,,,,,,,,,,
,,,,,,,,,,,,,,,,,199147,19,2022-01-28_23h58.04.134,lexical_decision_task_DD_L3,2021.2.3,Win32,60.09615385,,,,,,,,,,,,1.7563,1,,,,,,,,,,,,,,z,1,1.7563,,,,,,,,0.112962963,-0.196296296,0,0,0,,0,137,137,145,1,LAMEL,HB,old,z,./images/LAMELHB.png,,,,,,,,,,,,,,,,,,,,,
,,,,,,,,,,,,,,,,,199147,19,2022-01-28_23h58.04.134,lexical_decision_task_DD_L3,2021.2.3,Win32,60.09615385,,,,,,,,,,,,0.8867,1,,,,,,,,,,,,,,z,1,0.8867,,,,,,,,0.112962963,-0.196296296,0,0,0,,0,138,138,104,1,GITTY,LB,old,z,./images/GITTYLB.png,,,,,,,,,,,,,,,,,,,,,
,,,,,,,,,,,,,,,,,199147,19,2022-01-28_23h58.04.134,lexical_decision_task_DD_L3,2021.2.3,Win32,60.09615385,,,,,,,,,,,,1.8419,1,,,,,,,,,,,,,,m,1,1.8419,,,,,,,,0.112962963,-0.196296296,0,0,0,,0,139,139,28,1,FALCON,C,old,m,./images/FALCON.png,,,,,,,,,,,,,,,,,,,,,
,,,,,,,,,,,,,,,,,199147,19,2022-01-28_23h58.04.134,lexical_decision_task_DD_L3,2021.2.3,Win32,60.09615385,,,,,,,,,,,,1.4471,1,,,,,,,,,,,,,,m,1,1.4471,,,,,,,,0.112962963,-0.196296296,0,0,0,,0,140,140,15,1,GREASE,LB,old,m,./images/GREASELB.png,,,,,,,,,,,,,,,,,,,,,
,,,,,,,,,,,,,,,,,199147,19,2022-01-28_23h58.04.134,lexical_decision_task_DD_L3,2021.2.3,Win32,60.09615385,,,,,,,,,,,,0.7006,1,,,,,,,,,,,,,,m,1,0.7006,,,,,,,,0.112962963,-0.196296296,0,0,0,,0,141,141,4,1,MUSCLE,C,old,m,./images/MUSCLE.png,,,,,,,,,,,,,,,,,,,,,
,,,,,,,,,,,,,,,,,199147,19,2022-01-28_23h58.04.134,lexical_decision_task_DD_L3,2021.2.3,Win32,60.09615385,,,,,,,,,,,,0.8904,0,,,,,,,,,,,,,,z,0,0.8904,,,,,,,,0.112962963,-0.196296296,0,0,0,,0,142,142,59,1,BURIAL,HB,old,m,./images/BURIALHB.png,,,,,,,,,,,,,,,,,,,,,
,,,,,,,,,,,,,,,,,199147,19,2022-01-28_23h58.04.134,lexical_decision_task_DD_L3,2021.2.3,Win32,60.09615385,,,,,,,,,,,,1.1114,1,,,,,,,,,,,,,,m,1,1.1114,,,,,,,,0.112962963,-0.196296296,0,0,0,,0,143,143,20,1,CRADLE,HB,old,m,./images/CRADLEHB.png,,,,,,,,,,,,,,,,,,,,,
,,,,,,,,,,,,,,,,,199147,19,2022-01-28_23h58.04.134,lexical_decision_task_DD_L3,2021.2.3,Win32,60.09615385,,,,,,,,,,,,0.7712,1,,,,,,,,,,,,,,m,1,0.7712,,,,,,,,0.112962963,-0.196296296,0,0,0,,0,144,144,83,1,JUNGLE,HB,old,m,./images/JUNGLEHB.png,,,,,,,,,,,,,,,,,,,,,
,,,,,,,,,,,,,,,,,199147,19,2022-01-28_23h58.04.134,lexical_decision_task_DD_L3,2021.2.3,Win32,60.09615385,,,,,,,,,,,,0.7295,1,,,,,,,,,,,,,,z,1,0.7295,,,,,,,,0.112962963,-0.196296296,0,0,0,,0,145,145,125,1,MOOKY,LB,old,z,./images/MOOKYLB.png,,,,,,,,,,,,,,,,,,,,,
,,,,,,,,,,,,,,,,,199147,19,2022-01-28_23h58.04.134,lexical_decision_task_DD_L3,2021.2.3,Win32,60.09615385,,,,,,,,,,,,1.6303,1,,,,,,,,,,,,,,z,1,1.6303,,,,,,,,0.112962963,-0.196296296,0,0,0,,0,146,146,130,1,CRILL,HB,old,z,./images/CRILLHB.png,,,,,,,,,,,,,,,,,,,,,
,,,,,,,,,,,,,,,,,199147,19,2022-01-28_23h58.04.134,lexical_decision_task_DD_L3,2021.2.3,Win32,60.09615385,,,,,,,,,,,,0.6473,1,,,,,,,,,,,,,,m,1,0.6473,,,,,,,,0.112962963,-0.196296296,0,0,0,,0,147,147,75,1,GRAIN,LB,old,m,./images/GRAINLB.png,,,,,,,,,,,,,,,,,,,,,
,,,,,,,,,,,,,,,,,199147,19,2022-01-28_23h58.04.134,lexical_decision_task_DD_L3,2021.2.3,Win32,60.09615385,,,,,,,,,,,,0.6796,1,,,,,,,,,,,,,,z,1,0.6796,,,,,,,,0.112962963,-0.196296296,0,0,0,,0,148,148,105,1,MOKER,C,old,z,./images/MOKER.png,,,,,,,,,,,,,,,,,,,,,
,,,,,,,,,,,,,,,,,199147,19,2022-01-28_23h58.04.134,lexical_decision_task_DD_L3,2021.2.3,Win32,60.09615385,,,,,,,,,,,,0.8651,1,,,,,,,,,,,,,,m,1,0.8651,,,,,,,,0.112962963,-0.196296296,0,0,0,,0,149,149,12,1,SHORE,LB,old,m,./images/SHORELB.png,,,,,,,,,,,,,,,,,,,,,
,,,,,,,,,,,,,,,,,199147,19,2022-01-28_23h58.04.134,lexical_decision_task_DD_L3,2021.2.3,Win32,60.09615385,,,,,,,,,,,,0.7752,1,,,,,,,,,,,,,,m,1,0.7752,,,,,,,,0.112962963,-0.196296296,0,0,0,,0,150,150,68,1,TORCH,HB,old,m,./images/TORCHHB.png,,,,,,,,,,,,,,,,,,,,,
,,,,,,,,,,,,,,,,,199147,19,2022-01-28_23h58.04.134,lexical_decision_task_DD_L3,2021.2.3,Win32,60.09615385,,,,,,,,,,,,1.256,1,,,,,,,,,,,,,,z,1,1.256,,,,,,,,0.112962963,-0.196296296,0,0,0,,0,151,151,149,1,VEASE,LB,old,z,./images/VEASELB.png,,,,,,,,,,,,,,,,,,,,,
,,,,,,,,,,,,,,,,,199147,19,2022-01-28_23h58.04.134,lexical_decision_task_DD_L3,2021.2.3,Win32,60.09615385,,,,,,,,,,,,0.9883,1,,,,,,,,,,,,,,z,1,0.9883,,,,,,,,0.112962963,-0.196296296,0,0,0,,0,152,152,128,1,GRIFT,LB,old,z,./images/GRIFTLB.png,,,,,,,,,,,,,,,,,,,,,
,,,,,,,,,,,,,,,,,199147,19,2022-01-28_23h58.04.134,lexical_decision_task_DD_L3,2021.2.3,Win32,60.09615385,,,,,,,,,,,,0.7759,1,,,,,,,,,,,,,,m,1,0.7759,,,,,,,,0.112962963,-0.196296296,0,0,0,,0,153,153,69,1,COOKER,LB,old,m,./images/COOKERLB.png,,,,,,,,,,,,,,,,,,,,,
,,,,,,,,,,,,,,,,,199147,19,2022-01-28_23h58.04.134,lexical_decision_task_DD_L3,2021.2.3,Win32,60.09615385,,,,,,,,,,,,0.6999,1,,,,,,,,,,,,,,z,1,0.6999,,,,,,,,0.112962963,-0.196296296,0,0,0,,0,154,154,90,1,NEAST,C,old,z,./images/NEAST.png,,,,,,,,,,,,,,,,,,,,,
,,,,,,,,,,,,,,,,,199147,19,2022-01-28_23h58.04.134,lexical_decision_task_DD_L3,2021.2.3,Win32,60.09615385,,,,,,,,,,,,0.6237,0,,,,,,,,,,,,,,z,0,0.6237,,,,,,,,0.112962963,-0.196296296,0,0,0,,0,155,155,52,1,BANNER,C,old,m,./images/BANNER.png,,,,,,,,,,,,,,,,,,,,,
,,,,,,,,,,,,,,,,,199147,19,2022-01-28_23h58.04.134,lexical_decision_task_DD_L3,2021.2.3,Win32,60.09615385,,,,,,,,,,,,0.8394,1,,,,,,,,,,,,,,z,1,0.8394,,,,,,,,0.112962963,-0.196296296,0,0,0,,0,156,156,155,1,CANGY,LB,old,z,./images/CANGYLB.png,,,,,,,,,,,,,,,,,,,,,
,,,,,,,,,,,,,,,,,199147,19,2022-01-28_23h58.04.134,lexical_decision_task_DD_L3,2021.2.3,Win32,60.09615385,,,,,,,,,,,,0.6323,1,,,,,,,,,,,,,,m,1,0.6323,,,,,,,,0.112962963,-0.196296296,0,0,0,,0,157,157,66,1,SWEAT,LB,old,m,./images/SWEATLB.png,,,,,,,,,,,,,,,,,,,,,
,,,,,,,,,,,,,,,,,199147,19,2022-01-28_23h58.04.134,lexical_decision_task_DD_L3,2021.2.3,Win32,60.09615385,,,,,,,,,,,,1.4509,1,,,,,,,,,,,,,,m,1,1.4509,,,,,,,,0.112962963,-0.196296296,0,0,0,,0,158,158,47,1,BERRY,HB,old,m,./images/BERRYHB.png,,,,,,,,,,,,,,,,,,,,,
,,,,,,,,,,,,,,,,,199147,19,2022-01-28_23h58.04.134,lexical_decision_task_DD_L3,2021.2.3,Win32,60.09615385,,,,,,,,,,,,0.745,1,,,,,,,,,,,,,,m,1,0.745,,,,,,,,0.112962963,-0.196296296,0,0,0,,0,159,159,58,1,BABOON,C,old,m,./images/BABOON.png,,,,,,,,,,,,,,,,,,,,,
,,,,,,,,,,,,,,,,,199147,19,2022-01-28_23h58.04.134,lexical_decision_task_DD_L3,2021.2.3,Win32,60.09615385,,,,,,,,,,,,0.8895,1,,,,,,,,,,,,,,m,1,0.8895,,,,,,,,0.112962963,-0.196296296,0,0,0,,0,160,160,53,1,CARPET,HB,old,m,./images/CARPETHB.png,,,,,,,,,,,,,,,,,,,,,
,,,,,,,,,,,,,,,,,199147,19,2022-01-28_23h58.04.134,lexical_decision_task_DD_L3,2021.2.3,Win32,60.09615385,,,,,,,,,,,,1.3209,1,,,,,,,,,,,,,,z,1,1.3209,,,,,,,,0.112962963,-0.196296296,0,0,0,,0,161,161,107,1,FASKS,LB,old,z,./images/FASKSLB.png,,,,,,,,,,,,,,,,,,,,,
,,,,,,,,,,,,,,,,,199147,19,2022-01-28_23h58.04.134,lexical_decision_task_DD_L3,2021.2.3,Win32,60.09615385,,,,,,,,,,,,0.6858,1,,,,,,,,,,,,,,m,1,0.6858,,,,,,,,0.112962963,-0.196296296,0,0,0,,0,162,162,77,1,COUCH,HB,old,m,./images/COUCHHB.png,,,,,,,,,,,,,,,,,,,,,
,,,,,,,,,,,,,,,,,199147,19,2022-01-28_23h58.04.134,lexical_decision_task_DD_L3,2021.2.3,Win32,60.09615385,,,,,,,,,,,,0.6827,1,,,,,,,,,,,,,,z,1,0.6827,,,,,,,,0.112962963,-0.196296296,0,0,0,,0,163,163,87,1,TRING,C,old,z,./images/TRING.png,,,,,,,,,,,,,,,,,,,,,
,,,,,,,,,,,,,,,,,199147,19,2022-01-28_23h58.04.134,lexical_decision_task_DD_L3,2021.2.3,Win32,60.09615385,,,,,,,,,,,,2.5075,1,,,,,,,,,,,,,,z,1,2.5075,,,,,,,,0.112962963,-0.196296296,0,0,0,,0,164,164,110,1,CRUNK,LB,old,z,./images/CRUNKLB.png,,,,,,,,,,,,,,,,,,,,,
,,,,,,,,,,,,,,,,,199147,19,2022-01-28_23h58.04.134,lexical_decision_task_DD_L3,2021.2.3,Win32,60.09615385,,,,,,,,,,,,0.6139,1,,,,,,,,,,,,,,m,1,0.6139,,,,,,,,0.112962963,-0.196296296,0,0,0,,0,165,165,63,1,MIRROR,LB,old,m,./images/MIRRORLB.png,,,,,,,,,,,,,,,,,,,,,
,,,,,,,,,,,,,,,,,199147,19,2022-01-28_23h58.04.134,lexical_decision_task_DD_L3,2021.2.3,Win32,60.09615385,,,,,,,,,,,,0.7755,1,,,,,,,,,,,,,,z,1,0.7755,,,,,,,,0.112962963,-0.196296296,0,0,0,,0,166,166,101,1,GLEET,LB,old,z,./images/GLEETLB.png,,,,,,,,,,,,,,,,,,,,,
,,,,,,,,,,,,,,,,,199147,19,2022-01-28_23h58.04.134,lexical_decision_task_DD_L3,2021.2.3,Win32,60.09615385,,,,,,,,,,,,0.629,1,,,,,,,,,,,,,,m,1,0.629,,,,,,,,0.112962963,-0.196296296,0,0,0,,0,167,167,25,1,WRIST,C,old,m,./images/WRIST.png,,,,,,,,,,,,,,,,,,,,,
space,0.112962963,-0.196296296,0,0,0,,,,,,,1,test,"In the next phase you will be presented with the words from the the first phase. Your job is to decide whether you remember seeing the word or not. If you remember seeing the word press ""old"" or type ""m"". If you do not remember seeing the word press ""new"" or type ""z"". Please press the space bar or click on continue to begin. ",,,199147,19,2022-01-28_23h58.04.134,lexical_decision_task_DD_L3,2021.2.3,Win32,60.09615385,16.9774,,,,,,,,,,,,,,,,,,,,,,,,,,,,,,,,,,,,,,,,,,,,,,,,,,,,,0,0,0,0,1,,,,,,,,,,,,,,,
space,0.112962963,-0.196296296,0,0,0,,,,,,,1,test,"In the next phase you will be presented with the words from the the first phase. Your job is to decide whether you remember seeing the word or not. If you remember seeing the word press ""old"" or type ""m"". If you do not remember seeing the word press ""new"" or type ""z"". Please press the space bar or click on continue to begin. ",,,199147,19,2022-01-28_23h58.04.134,lexical_decision_task_DD_L3,2021.2.3,Win32,60.09615385,1.2795,,,,,,,,,,,,,,,,,,,,,,,,,,,,,,,,,,,,,,,,,,,,,,,,,,,,,1,0,1,0,1,,,,,,,,,,,,,,,
space,0.112962963,-0.196296296,0,0,0,,,,,,,1,test,"In the next phase you will be presented with the words from the the first phase. Your job is to decide whether you remember seeing the word or not. If you remember seeing the word press ""old"" or type ""m"". If you do not remember seeing the word press ""new"" or type ""z"". Please press the space bar or click on continue to begin. ",,,199147,19,2022-01-28_23h58.04.134,lexical_decision_task_DD_L3,2021.2.3,Win32,60.09615385,1.8921,,,,,,,,,,,,,,,,,,,,,,,,,,,,,,,,,,,,,,,,,,,,,,,,,,,,,2,0,2,0,1,,,,,,,,,,,,,,,
space,0.112962963,-0.196296296,0,0,0,,,,,,,1,test,"In the next phase you will be presented with the words from the the first phase. Your job is to decide whether you remember seeing the word or not. If you remember seeing the word press ""old"" or type ""m"". If you do not remember seeing the word press ""new"" or type ""z"". Please press the space bar or click on continue to begin. ",,,199147,19,2022-01-28_23h58.04.134,lexical_decision_task_DD_L3,2021.2.3,Win32,60.09615385,0.3703,,,,,,,,,,,,,,,,,,,,,,,,,,,,,,,,,,,,,,,,,,,,,,,,,,,,,3,0,3,0,1,,,,,,,,,,,,,,,
space,0.112962963,-0.196296296,0,0,0,,,,,,,1,test,"In the next phase you will be presented with the words from the the first phase. Your job is to decide whether you remember seeing the word or not. If you remember seeing the word press ""old"" or type ""m"". If you do not remember seeing the word press ""new"" or type ""z"". Please press the space bar or click on continue to begin. ",,,199147,19,2022-01-28_23h58.04.134,lexical_decision_task_DD_L3,2021.2.3,Win32,60.09615385,0.7284,,,,,,,,,,,,,,,,,,,,,,,,,,,,,,,,,,,,,,,,,,,,,,,,,,,,,4,0,4,0,1,,,,,,,,,,,,,,,
,,,,,,,,,,,,,,,,,199147,19,2022-01-28_23h58.04.134,lexical_decision_task_DD_L3,2021.2.3,Win32,60.09615385,,,,,,,,,,,,5.4704,1,,,,,,,,,,,,,,,,,,,,,,,,0.112962963,-0.196296296,0,0,0,,,,,,,CASINO,C,z,m,./images/CASINO.png,,,,,,,z,1,5.4704,,,,,,,,0,0,0,112,1
,,,,,,,,,,,,,,,,,199147,19,2022-01-28_23h58.04.134,lexical_decision_task_DD_L3,2021.2.3,Win32,60.09615385,,,,,,,,,,,,1.24,1,,,,,,,,,,,,,,,,,,,,,,,,0.112962963,-0.196296296,0,0,0,,,,,,,MALLET,HB,m,m,./images/MALLETHB.png,,,,,,,m,1,1.24,,,,,,,,0,1,1,50,1
,,,,,,,,,,,,,,,,,199147,19,2022-01-28_23h58.04.134,lexical_decision_task_DD_L3,2021.2.3,Win32,60.09615385,,,,,,,,,,,,1.0657,1,,,,,,,,,,,,,,,,,,,,,,,,0.112962963,-0.196296296,0,0,0,,,,,,,MUSCLE,C,m,m,./images/MUSCLE.png,,,,,,,m,1,1.0657,,,,,,,,0,2,2,4,1
,,,,,,,,,,,,,,,,,199147,19,2022-01-28_23h58.04.134,lexical_decision_task_DD_L3,2021.2.3,Win32,60.09615385,,,,,,,,,,,,1.4272,1,,,,,,,,,,,,,,,,,,,,,,,,0.112962963,-0.196296296,0,0,0,,,,,,,FALCON,C,m,m,./images/FALCON.png,,,,,,,m,1,1.4272,,,,,,,,0,3,3,28,1
,,,,,,,,,,,,,,,,,199147,19,2022-01-28_23h58.04.134,lexical_decision_task_DD_L3,2021.2.3,Win32,60.09615385,,,,,,,,,,,,0.7319,1,,,,,,,,,,,,,,,,,,,,,,,,0.112962963,-0.196296296,0,0,0,,,,,,,COOKER,LB,m,m,./images/COOKERLB.png,,,,,,,m,1,0.7319,,,,,,,,0,4,4,69,1
,,,,,,,,,,,,,,,,,199147,19,2022-01-28_23h58.04.134,lexical_decision_task_DD_L3,2021.2.3,Win32,60.09615385,,,,,,,,,,,,0.7836,1,,,,,,,,,,,,,,,,,,,,,,,,0.112962963,-0.196296296,0,0,0,,,,,,,POODLE,LB,m,m,./images/POODLELB.png,,,,,,,m,1,0.7836,,,,,,,,0,5,5,81,1
,,,,,,,,,,,,,,,,,199147,19,2022-01-28_23h58.04.134,lexical_decision_task_DD_L3,2021.2.3,Win32,60.09615385,,,,,,,,,,,,0.863,0,,,,,,,,,,,,,,,,,,,,,,,,0.112962963,-0.196296296,0,0,0,,,,,,,ENGINE,HB,z,m,./images/ENGINEHB.png,,,,,,,m,0,0.863,,,,,,,,0,6,6,122,1
,,,,,,,,,,,,,,,,,199147,19,2022-01-28_23h58.04.134,lexical_decision_task_DD_L3,2021.2.3,Win32,60.09615385,,,,,,,,,,,,0.8884,1,,,,,,,,,,,,,,,,,,,,,,,,0.112962963,-0.196296296,0,0,0,,,,,,,WHEEL,HB,z,m,./images/WHEELHB.png,,,,,,,z,1,0.8884,,,,,,,,0,7,7,161,1
,,,,,,,,,,,,,,,,,199147,19,2022-01-28_23h58.04.134,lexical_decision_task_DD_L3,2021.2.3,Win32,60.09615385,,,,,,,,,,,,1.4163,1,,,,,,,,,,,,,,,,,,,,,,,,0.112962963,-0.196296296,0,0,0,,,,,,,STATUE,LB,z,m,./images/STATUELB.png,,,,,,,z,1,1.4163,,,,,,,,0,8,8,150,1
,,,,,,,,,,,,,,,,,199147,19,2022-01-28_23h58.04.134,lexical_decision_task_DD_L3,2021.2.3,Win32,60.09615385,,,,,,,,,,,,2.0726,0,,,,,,,,,,,,,,,,,,,,,,,,0.112962963,-0.196296296,0,0,0,,,,,,,CANDY,LB,z,m,./images/CANDYLB.png,,,,,,,m,0,2.0726,,,,,,,,0,9,9,123,1
,,,,,,,,,,,,,,,,,199147,19,2022-01-28_23h58.04.134,lexical_decision_task_DD_L3,2021.2.3,Win32,60.09615385,,,,,,,,,,,,0.977,1,,,,,,,,,,,,,,,,,,,,,,,,0.112962963,-0.196296296,0,0,0,,,,,,,TORCH,HB,m,m,./images/TORCHHB.png,,,,,,,m,1,0.977,,,,,,,,0,10,10,68,1
,,,,,,,,,,,,,,,,,199147,19,2022-01-28_23h58.04.134,lexical_decision_task_DD_L3,2021.2.3,Win32,60.09615385,,,,,,,,,,,,0.7972,1,,,,,,,,,,,,,,,,,,,,,,,,0.112962963,-0.196296296,0,0,0,,,,,,,BANNER,C,m,m,./images/BANNER.png,,,,,,,m,1,0.7972,,,,,,,,0,11,11,52,1
,,,,,,,,,,,,,,,,,199147,19,2022-01-28_23h58.04.134,lexical_decision_task_DD_L3,2021.2.3,Win32,60.09615385,,,,,,,,,,,,0.7462,1,,,,,,,,,,,,,,,,,,,,,,,,0.112962963,-0.196296296,0,0,0,,,,,,,PLANET,HB,z,m,./images/PLANETHB.png,,,,,,,z,1,0.7462,,,,,,,,0,12,12,164,1
,,,,,,,,,,,,,,,,,199147,19,2022-01-28_23h58.04.134,lexical_decision_task_DD_L3,2021.2.3,Win32,60.09615385,,,,,,,,,,,,0.7778,1,,,,,,,,,,,,,,,,,,,,,,,,0.112962963,-0.196296296,0,0,0,,,,,,,ARTIST,C,z,m,./images/ARTIST.png,,,,,,,z,1,0.7778,,,,,,,,0,13,13,145,1
,,,,,,,,,,,,,,,,,199147,19,2022-01-28_23h58.04.134,lexical_decision_task_DD_L3,2021.2.3,Win32,60.09615385,,,,,,,,,,,,1.6119,1,,,,,,,,,,,,,,,,,,,,,,,,0.112962963,-0.196296296,0,0,0,,,,,,,PENCE,C,m,m,./images/PENCE.png,,,,,,,m,1,1.6119,,,,,,,,0,14,14,16,1
,,,,,,,,,,,,,,,,,199147,19,2022-01-28_23h58.04.134,lexical_decision_task_DD_L3,2021.2.3,Win32,60.09615385,,,,,,,,,,,,1.9794,1,,,,,,,,,,,,,,,,,,,,,,,,0.112962963,-0.196296296,0,0,0,,,,,,,STAIN,LB,z,m,./images/STAINLB.png,,,,,,,z,1,1.9794,,,,,,,,0,15,15,90,1
,,,,,,,,,,,,,,,,,199147,19,2022-01-28_23h58.04.134,lexical_decision_task_DD_L3,2021.2.3,Win32,60.09615385,,,,,,,,,,,,1.1141,1,,,,,,,,,,,,,,,,,,,,,,,,0.112962963,-0.196296296,0,0,0,,,,,,,ALLEY,C,z,m,./images/ALLEY.png,,,,,,,z,1,1.1141,,,,,,,,0,16,16,139,1
,,,,,,,,,,,,,,,,,199147,19,2022-01-28_23h58.04.134,lexical_decision_task_DD_L3,2021.2.3,Win32,60.09615385,,,,,,,,,,,,0.7125,1,,,,,,,,,,,,,,,,,,,,,,,,0.112962963,-0.196296296,0,0,0,,,,,,,SLOPE,LB,z,m,./images/SLOPELB.png,,,,,,,z,1,0.7125,,,,,,,,0,17,17,114,1
,,,,,,,,,,,,,,,,,199147,19,2022-01-28_23h58.04.134,lexical_decision_task_DD_L3,2021.2.3,Win32,60.09615385,,,,,,,,,,,,1.0716,1,,,,,,,,,,,,,,,,,,,,,,,,0.112962963,-0.196296296,0,0,0,,,,,,,FERRY,LB,z,m,./images/FERRYLB.png,,,,,,,z,1,1.0716,,,,,,,,0,18,18,141,1
,,,,,,,,,,,,,,,,,199147,19,2022-01-28_23h58.04.134,lexical_decision_task_DD_L3,2021.2.3,Win32,60.09615385,,,,,,,,,,,,0.7757,1,,,,,,,,,,,,,,,,,,,,,,,,0.112962963,-0.196296296,0,0,0,,,,,,,PEARL,C,m,m,./images/PEARL.png,,,,,,,m,1,0.7757,,,,,,,,0,19,19,46,1
,,,,,,,,,,,,,,,,,199147,19,2022-01-28_23h58.04.134,lexical_decision_task_DD_L3,2021.2.3,Win32,60.09615385,,,,,,,,,,,,0.7334,1,,,,,,,,,,,,,,,,,,,,,,,,0.112962963,-0.196296296,0,0,0,,,,,,,ARROW,LB,z,m,./images/ARROWLB.png,,,,,,,z,1,0.7334,,,,,,,,0,20,20,153,1
,,,,,,,,,,,,,,,,,199147,19,2022-01-28_23h58.04.134,lexical_decision_task_DD_L3,2021.2.3,Win32,60.09615385,,,,,,,,,,,,1.0196,0,,,,,,,,,,,,,,,,,,,,,,,,0.112962963,-0.196296296,0,0,0,,,,,,,WHISKY,HB,z,m,./images/WHISKYHB.png,,,,,,,m,0,1.0196,,,,,,,,0,21,21,167,1
,,,,,,,,,,,,,,,,,199147,19,2022-01-28_23h58.04.134,lexical_decision_task_DD_L3,2021.2.3,Win32,60.09615385,,,,,,,,,,,,2.3515,1,,,,,,,,,,,,,,,,,,,,,,,,0.112962963,-0.196296296,0,0,0,,,,,,,MAMMAL,HB,z,m,./images/MAMMALHB.png,,,,,,,z,1,2.3515,,,,,,,,0,22,22,146,1
,,,,,,,,,,,,,,,,,199147,19,2022-01-28_23h58.04.134,lexical_decision_task_DD_L3,2021.2.3,Win32,60.09615385,,,,,,,,,,,,1.246,0,,,,,,,,,,,,,,,,,,,,,,,,0.112962963,-0.196296296,0,0,0,,,,,,,WRIST,C,m,m,./images/WRIST.png,,,,,,,z,0,1.246,,,,,,,,0,23,23,25,1
,,,,,,,,,,,,,,,,,199147,19,2022-01-28_23h58.04.134,lexical_decision_task_DD_L3,2021.2.3,Win32,60.09615385,,,,,,,,,,,,2.2119,1,,,,,,,,,,,,,,,,,,,,,,,,0.112962963,-0.196296296,0,0,0,,,,,,,BUTTER,LB,z,m,./images/BUTTERLB.png,,,,,,,z,1,2.2119,,,,,,,,0,24,24,111,1
,,,,,,,,,,,,,,,,,199147,19,2022-01-28_23h58.04.134,lexical_decision_task_DD_L3,2021.2.3,Win32,60.09615385,,,,,,,,,,,,0.8398,1,,,,,,,,,,,,,,,,,,,,,,,,0.112962963,-0.196296296,0,0,0,,,,,,,FARMER,HB,m,m,./images/FARMERHB.png,,,,,,,m,1,0.8398,,,,,,,,0,25,25,65,1
,,,,,,,,,,,,,,,,,199147,19,2022-01-28_23h58.04.134,lexical_decision_task_DD_L3,2021.2.3,Win32,60.09615385,,,,,,,,,,,,2.1863,1,,,,,,,,,,,,,,,,,,,,,,,,0.112962963,-0.196296296,0,0,0,,,,,,,DESERT,C,z,m,./images/DESERT.png,,,,,,,z,1,2.1863,,,,,,,,0,26,26,136,1
,,,,,,,,,,,,,,,,,199147,19,2022-01-28_23h58.04.134,lexical_decision_task_DD_L3,2021.2.3,Win32,60.09615385,,,,,,,,,,,,0.6672,1,,,,,,,,,,,,,,,,,,,,,,,,0.112962963,-0.196296296,0,0,0,,,,,,,BABOON,C,m,m,./images/BABOON.png,,,,,,,m,1,0.6672,,,,,,,,0,27,27,58,1
,,,,,,,,,,,,,,,,,199147,19,2022-01-28_23h58.04.134,lexical_decision_task_DD_L3,2021.2.3,Win32,60.09615385,,,,,,,,,,,,1.8993,1,,,,,,,,,,,,,,,,,,,,,,,,0.112962963,-0.196296296,0,0,0,,,,,,,CRADLE,HB,m,m,./images/CRADLEHB.png,,,,,,,m,1,1.8993,,,,,,,,0,28,28,20,1
,,,,,,,,,,,,,,,,,199147,19,2022-01-28_23h58.04.134,lexical_decision_task_DD_L3,2021.2.3,Win32,60.09615385,,,,,,,,,,,,1.1278,1,,,,,,,,,,,,,,,,,,,,,,,,0.112962963,-0.196296296,0,0,0,,,,,,,TIGER,C,z,m,./images/TIGER.png,,,,,,,z,1,1.1278,,,,,,,,0,29,29,121,1
,,,,,,,,,,,,,,,,,199147,19,2022-01-28_23h58.04.134,lexical_decision_task_DD_L3,2021.2.3,Win32,60.09615385,,,,,,,,,,,,1.2469,1,,,,,,,,,,,,,,,,,,,,,,,,0.112962963,-0.196296296,0,0,0,,,,,,,SQUARE,LB,m,m,./images/SQUARELB.png,,,,,,,m,1,1.2469,,,,,,,,0,30,30,6,1
,,,,,,,,,,,,,,,,,199147,19,2022-01-28_23h58.04.134,lexical_decision_task_DD_L3,2021.2.3,Win32,60.09615385,,,,,,,,,,,,0.8072,0,,,,,,,,,,,,,,,,,,,,,,,,0.112962963,-0.196296296,0,0,0,,,,,,,SKIING,HB,m,m,./images/SKIINGHB.png,,,,,,,z,0,0.8072,,,,,,,,0,31,31,17,1
,,,,,,,,,,,,,,,,,199147,19,2022-01-28_23h58.04.134,lexical_decision_task_DD_L3,2021.2.3,Win32,60.09615385,,,,,,,,,,,,2.6932,1,,,,,,,,,,,,,,,,,,,,,,,,0.112962963,-0.196296296,0,0,0,,,,,,,JELLY,C,m,m,./images/JELLY.png,,,,,,,m,1,2.6932,,,,,,,,0,32,32,64,1
,,,,,,,,,,,,,,,,,199147,19,2022-01-28_23h58.04.134,lexical_decision_task_DD_L3,2021.2.3,Win32,60.09615385,,,,,,,,,,,,1.9164,1,,,,,,,,,,,,,,,,,,,,,,,,0.112962963,-0.196296296,0,0,0,,,,,,,GRANNY,HB,z,m,./images/GRANNYHB.png,,,,,,,z,1,1.9164,,,,,,,,0,33,33,104,1
,,,,,,,,,,,,,,,,,199147,19,2022-01-28_23h58.04.134,lexical_decision_task_DD_L3,2021.2.3,Win32,60.09615385,,,,,,,,,,,,2.76,1,,,,,,,,,,,,,,,,,,,,,,,,0.112962963,-0.196296296,0,0,0,,,,,,,DANCER,LB,z,m,./images/DANCERLB.png,,,,,,,z,1,2.76,,,,,,,,0,34,34,105,1
,,,,,,,,,,,,,,,,,199147,19,2022-01-28_23h58.04.134,lexical_decision_task_DD_L3,2021.2.3,Win32,60.09615385,,,,,,,,,,,,1.0311,1,,,,,,,,,,,,,,,,,,,,,,,,0.112962963,-0.196296296,0,0,0,,,,,,,SWING,C,m,m,./images/SWING.png,,,,,,,m,1,1.0311,,,,,,,,0,35,35,40,1
,,,,,,,,,,,,,,,,,199147,19,2022-01-28_23h58.04.134,lexical_decision_task_DD_L3,2021.2.3,Win32,60.09615385,,,,,,,,,,,,0.7957,1,,,,,,,,,,,,,,,,,,,,,,,,0.112962963,-0.196296296,0,0,0,,,,,,,THROAT,LB,m,m,./images/THROATLB.png,,,,,,,m,1,0.7957,,,,,,,,0,36,36,36,1
,,,,,,,,,,,,,,,,,199147,19,2022-01-28_23h58.04.134,lexical_decision_task_DD_L3,2021.2.3,Win32,60.09615385,,,,,,,,,,,,0.7924,1,,,,,,,,,,,,,,,,,,,,,,,,0.112962963,-0.196296296,0,0,0,,,,,,,BONNET,HB,m,m,./images/BONNETHB.png,,,,,,,m,1,0.7924,,,,,,,,0,37,37,11,1
,,,,,,,,,,,,,,,,,199147,19,2022-01-28_23h58.04.134,lexical_decision_task_DD_L3,2021.2.3,Win32,60.09615385,,,,,,,,,,,,1.3418,1,,,,,,,,,,,,,,,,,,,,,,,,0.112962963,-0.196296296,0,0,0,,,,,,,CLIFF,HB,z,m,./images/CLIFFHB.png,,,,,,,z,1,1.3418,,,,,,,,0,38,38,92,1
,,,,,,,,,,,,,,,,,199147,19,2022-01-28_23h58.04.134,lexical_decision_task_DD_L3,2021.2.3,Win32,60.09615385,,,,,,,,,,,,0.723,1,,,,,,,,,,,,,,,,,,,,,,,,0.112962963,-0.196296296,0,0,0,,,,,,,SMOKER,HB,m,m,./images/SMOKERHB.png,,,,,,,m,1,0.723,,,,,,,,0,39,39,26,1
,,,,,,,,,,,,,,,,,199147,19,2022-01-28_23h58.04.134,lexical_decision_task_DD_L3,2021.2.3,Win32,60.09615385,,,,,,,,,,,,1.061,1,,,,,,,,,,,,,,,,,,,,,,,,0.112962963,-0.196296296,0,0,0,,,,,,,STREAM,HB,z,m,./images/STREAMHB.png,,,,,,,z,1,1.061,,,,,,,,0,40,40,125,1
,,,,,,,,,,,,,,,,,199147,19,2022-01-28_23h58.04.134,lexical_decision_task_DD_L3,2021.2.3,Win32,60.09615385,,,,,,,,,,,,1.6537,0,,,,,,,,,,,,,,,,,,,,,,,,0.112962963,-0.196296296,0,0,0,space,,,,,,TOWEL,C,z,m,./images/TOWEL.png,1.0278,,,,,,m,0,1.6537,,,,,,,,0,41,41,85,1
,,,,,,,,,,,,,,,,,199147,19,2022-01-28_23h58.04.134,lexical_decision_task_DD_L3,2021.2.3,Win32,60.09615385,,,,,,,,,,,,0.8462,0,,,,,,,,,,,,,,,,,,,,,,,,0.112962963,-0.196296296,0,0,0,,,,,,,HAMMER,LB,z,m,./images/HAMMERLB.png,,,,,,,m,0,0.8462,,,,,,,,0,42,42,159,1
,,,,,,,,,,,,,,,,,199147,19,2022-01-28_23h58.04.134,lexical_decision_task_DD_L3,2021.2.3,Win32,60.09615385,,,,,,,,,,,,0.7715,1,,,,,,,,,,,,,,,,,,,,,,,,0.112962963,-0.196296296,0,0,0,,,,,,,MUFFIN,C,m,m,./images/MUFFIN.png,,,,,,,m,1,0.7715,,,,,,,,0,43,43,55,1
,,,,,,,,,,,,,,,,,199147,19,2022-01-28_23h58.04.134,lexical_decision_task_DD_L3,2021.2.3,Win32,60.09615385,,,,,,,,,,,,0.8621,0,,,,,,,,,,,,,,,,,,,,,,,,0.112962963,-0.196296296,0,0,0,,,,,,,CANYON,C,m,m,./images/CANYON.png,,,,,,,z,0,0.8621,,,,,,,,0,44,44,34,1
,,,,,,,,,,,,,,,,,199147,19,2022-01-28_23h58.04.134,lexical_decision_task_DD_L3,2021.2.3,Win32,60.09615385,,,,,,,,,,,,0.9737,0,,,,,,,,,,,,,,,,,,,,,,,,0.112962963,-0.196296296,0,0,0,,,,,,,RHINO,LB,m,m,./images/RHINOLB.png,,,,,,,z,0,0.9737,,,,,,,,0,45,45,9,1
,,,,,,,,,,,,,,,,,199147,19,2022-01-28_23h58.04.134,lexical_decision_task_DD_L3,2021.2.3,Win32,60.09615385,,,,,,,,,,,,1.0798,0,,,,,,,,,,,,,,,,,,,,,,,,0.112962963,-0.196296296,0,0,0,,,,,,,BELLY,C,m,m,./images/BELLY.png,,,,,,,z,0,1.0798,,,,,,,,0,46,46,10,1
,,,,,,,,,,,,,,,,,199147,19,2022-01-28_23h58.04.134,lexical_decision_task_DD_L3,2021.2.3,Win32,60.09615385,,,,,,,,,,,,0.9959,1,,,,,,,,,,,,,,,,,,,,,,,,0.112962963,-0.196296296,0,0,0,,,,,,,WEASEL,HB,m,m,./images/WEASELHB.png,,,,,,,m,1,0.9959,,,,,,,,0,47,47,80,1
,,,,,,,,,,,,,,,,,199147,19,2022-01-28_23h58.04.134,lexical_decision_task_DD_L3,2021.2.3,Win32,60.09615385,,,,,,,,,,,,0.9094,0,,,,,,,,,,,,,,,,,,,,,,,,0.112962963,-0.196296296,0,0,0,,,,,,,BEARD,HB,m,m,./images/BEARDHB.png,,,,,,,z,0,0.9094,,,,,,,,0,48,48,2,1
,,,,,,,,,,,,,,,,,199147,19,2022-01-28_23h58.04.134,lexical_decision_task_DD_L3,2021.2.3,Win32,60.09615385,,,,,,,,,,,,1.8028,0,,,,,,,,,,,,,,,,,,,,,,,,0.112962963,-0.196296296,0,0,0,,,,,,,SAILOR,C,m,m,./images/SAILOR.png,,,,,,,z,0,1.8028,,,,,,,,0,49,49,67,1
,,,,,,,,,,,,,,,,,199147,19,2022-01-28_23h58.04.134,lexical_decision_task_DD_L3,2021.2.3,Win32,60.09615385,,,,,,,,,,,,0.7573,1,,,,,,,,,,,,,,,,,,,,,,,,0.112962963,-0.196296296,0,0,0,,,,,,,DRILL,LB,z,m,./images/DRILLLB.png,,,,,,,z,1,0.7573,,,,,,,,0,50,50,165,1
,,,,,,,,,,,,,,,,,199147,19,2022-01-28_23h58.04.134,lexical_decision_task_DD_L3,2021.2.3,Win32,60.09615385,,,,,,,,,,,,0.9245,1,,,,,,,,,,,,,,,,,,,,,,,,0.112962963,-0.196296296,0,0,0,,,,,,,DIVER,LB,z,m,./images/DIVERLB.png,,,,,,,z,1,0.9245,,,,,,,,0,51,51,93,1
,,,,,,,,,,,,,,,,,199147,19,2022-01-28_23h58.04.134,lexical_decision_task_DD_L3,2021.2.3,Win32,60.09615385,,,,,,,,,,,,1.0584,1,,,,,,,,,,,,,,,,,,,,,,,,0.112962963,-0.196296296,0,0,0,,,,,,,WAGON,C,z,m,./images/WAGON.png,,,,,,,z,1,1.0584,,,,,,,,0,52,52,91,1
,,,,,,,,,,,,,,,,,199147,19,2022-01-28_23h58.04.134,lexical_decision_task_DD_L3,2021.2.3,Win32,60.09615385,,,,,,,,,,,,0.7357,1,,,,,,,,,,,,,,,,,,,,,,,,0.112962963,-0.196296296,0,0,0,,,,,,,URINE,C,m,m,./images/URINE.png,,,,,,,m,1,0.7357,,,,,,,,0,53,53,70,1
,,,,,,,,,,,,,,,,,199147,19,2022-01-28_23h58.04.134,lexical_decision_task_DD_L3,2021.2.3,Win32,60.09615385,,,,,,,,,,,,0.9613,1,,,,,,,,,,,,,,,,,,,,,,,,0.112962963,-0.196296296,0,0,0,,,,,,,FLESH,LB,z,m,./images/FLESHLB.png,,,,,,,z,1,0.9613,,,,,,,,0,54,54,108,1
,,,,,,,,,,,,,,,,,199147,19,2022-01-28_23h58.04.134,lexical_decision_task_DD_L3,2021.2.3,Win32,60.09615385,,,,,,,,,,,,0.9603,1,,,,,,,,,,,,,,,,,,,,,,,,0.112962963,-0.196296296,0,0,0,,,,,,,WALNUT,LB,z,m,./images/WALNUTLB.png,,,,,,,z,1,0.9603,,,,,,,,0,55,55,84,1
,,,,,,,,,,,,,,,,,199147,19,2022-01-28_23h58.04.134,lexical_decision_task_DD_L3,2021.2.3,Win32,60.09615385,,,,,,,,,,,,0.8996,1,,,,,,,,,,,,,,,,,,,,,,,,0.112962963,-0.196296296,0,0,0,,,,,,,PLANK,C,m,m,./images/PLANK.png,,,,,,,m,1,0.8996,,,,,,,,0,56,56,1,1
,,,,,,,,,,,,,,,,,199147,19,2022-01-28_23h58.04.134,lexical_decision_task_DD_L3,2021.2.3,Win32,60.09615385,,,,,,,,,,,,0.7859,1,,,,,,,,,,,,,,,,,,,,,,,,0.112962963,-0.196296296,0,0,0,,,,,,,BISHOP,C,z,m,./images/BISHOP.png,,,,,,,z,1,0.7859,,,,,,,,0,57,57,133,1
,,,,,,,,,,,,,,,,,199147,19,2022-01-28_23h58.04.134,lexical_decision_task_DD_L3,2021.2.3,Win32,60.09615385,,,,,,,,,,,,0.7851,1,,,,,,,,,,,,,,,,,,,,,,,,0.112962963,-0.196296296,0,0,0,,,,,,,WALRUS,HB,m,m,./images/WALRUSHB.png,,,,,,,m,1,0.7851,,,,,,,,0,58,58,23,1
,,,,,,,,,,,,,,,,,199147,19,2022-01-28_23h58.04.134,lexical_decision_task_DD_L3,2021.2.3,Win32,60.09615385,,,,,,,,,,,,0.6564,1,,,,,,,,,,,,,,,,,,,,,,,,0.112962963,-0.196296296,0,0,0,,,,,,,JAGUAR,LB,m,m,./images/JAGUARLB.png,,,,,,,m,1,0.6564,,,,,,,,0,59,59,18,1
,,,,,,,,,,,,,,,,,199147,19,2022-01-28_23h58.04.134,lexical_decision_task_DD_L3,2021.2.3,Win32,60.09615385,,,,,,,,,,,,0.7361,1,,,,,,,,,,,,,,,,,,,,,,,,0.112962963,-0.196296296,0,0,0,,,,,,,BARREL,HB,m,m,./images/BARRELHB.png,,,,,,,m,1,0.7361,,,,,,,,0,60,60,32,1
,,,,,,,,,,,,,,,,,199147,19,2022-01-28_23h58.04.134,lexical_decision_task_DD_L3,2021.2.3,Win32,60.09615385,,,,,,,,,,,,0.625,1,,,,,,,,,,,,,,,,,,,,,,,,0.112962963,-0.196296296,0,0,0,,,,,,,DOUGH,C,m,m,./images/DOUGH.png,,,,,,,m,1,0.625,,,,,,,,0,61,61,19,1
,,,,,,,,,,,,,,,,,199147,19,2022-01-28_23h58.04.134,lexical_decision_task_DD_L3,2021.2.3,Win32,60.09615385,,,,,,,,,,,,0.7104,1,,,,,,,,,,,,,,,,,,,,,,,,0.112962963,-0.196296296,0,0,0,,,,,,,VALLEY,HB,z,m,./images/VALLEYHB.png,,,,,,,z,1,0.7104,,,,,,,,0,62,62,152,1
,,,,,,,,,,,,,,,,,199147,19,2022-01-28_23h58.04.134,lexical_decision_task_DD_L3,2021.2.3,Win32,60.09615385,,,,,,,,,,,,0.6546,0,,,,,,,,,,,,,,,,,,,,,,,,0.112962963,-0.196296296,0,0,0,,,,,,,QUILL,C,m,m,./images/QUILL.png,,,,,,,z,0,0.6546,,,,,,,,0,63,63,31,1
,,,,,,,,,,,,,,,,,199147,19,2022-01-28_23h58.04.134,lexical_decision_task_DD_L3,2021.2.3,Win32,60.09615385,,,,,,,,,,,,1.0189,0,,,,,,,,,,,,,,,,,,,,,,,,0.112962963,-0.196296296,0,0,0,,,,,,,GRAPE,C,z,m,./images/GRAPE.png,,,,,,,m,0,1.0189,,,,,,,,0,64,64,100,1
,,,,,,,,,,,,,,,,,199147,19,2022-01-28_23h58.04.134,lexical_decision_task_DD_L3,2021.2.3,Win32,60.09615385,,,,,,,,,,,,0.8303,1,,,,,,,,,,,,,,,,,,,,,,,,0.112962963,-0.196296296,0,0,0,,,,,,,STEAK,C,z,m,./images/STEAK.png,,,,,,,z,1,0.8303,,,,,,,,0,65,65,115,1
,,,,,,,,,,,,,,,,,199147,19,2022-01-28_23h58.04.134,lexical_decision_task_DD_L3,2021.2.3,Win32,60.09615385,,,,,,,,,,,,0.8315,1,,,,,,,,,,,,,,,,,,,,,,,,0.112962963,-0.196296296,0,0,0,,,,,,,PEACH,HB,m,m,./images/PEACHHB.png,,,,,,,m,1,0.8315,,,,,,,,0,66,66,35,1
,,,,,,,,,,,,,,,,,199147,19,2022-01-28_23h58.04.134,lexical_decision_task_DD_L3,2021.2.3,Win32,60.09615385,,,,,,,,,,,,1.0356,0,,,,,,,,,,,,,,,,,,,,,,,,0.112962963,-0.196296296,0,0,0,,,,,,,BURIAL,HB,m,m,./images/BURIALHB.png,,,,,,,z,0,1.0356,,,,,,,,0,67,67,59,1
,,,,,,,,,,,,,,,,,199147,19,2022-01-28_23h58.04.134,lexical_decision_task_DD_L3,2021.2.3,Win32,60.09615385,,,,,,,,,,,,0.7604,1,,,,,,,,,,,,,,,,,,,,,,,,0.112962963,-0.196296296,0,0,0,,,,,,,CLOWN,C,z,m,./images/CLOWN.png,,,,,,,z,1,0.7604,,,,,,,,0,68,68,106,1
,,,,,,,,,,,,,,,,,199147,19,2022-01-28_23h58.04.134,lexical_decision_task_DD_L3,2021.2.3,Win32,60.09615385,,,,,,,,,,,,1.6056,1,,,,,,,,,,,,,,,,,,,,,,,,0.112962963,-0.196296296,0,0,0,,,,,,,FLASK,LB,z,m,./images/FLASKLB.png,,,,,,,z,1,1.6056,,,,,,,,0,69,69,156,1
,,,,,,,,,,,,,,,,,199147,19,2022-01-28_23h58.04.134,lexical_decision_task_DD_L3,2021.2.3,Win32,60.09615385,,,,,,,,,,,,0.8225,1,,,,,,,,,,,,,,,,,,,,,,,,0.112962963,-0.196296296,0,0,0,,,,,,,SNAKE,C,z,m,./images/SNAKE.png,,,,,,,z,1,0.8225,,,,,,,,0,70,70,124,1
,,,,,,,,,,,,,,,,,199147,19,2022-01-28_23h58.04.134,lexical_decision_task_DD_L3,2021.2.3,Win32,60.09615385,,,,,,,,,,,,0.8565,1,,,,,,,,,,,,,,,,,,,,,,,,0.112962963,-0.196296296,0,0,0,,,,,,,BRUSH,HB,z,m,./images/BRUSHHB.png,,,,,,,z,1,0.8565,,,,,,,,0,71,71,143,1
,,,,,,,,,,,,,,,,,199147,19,2022-01-28_23h58.04.134,lexical_decision_task_DD_L3,2021.2.3,Win32,60.09615385,,,,,,,,,,,,0.693,1,,,,,,,,,,,,,,,,,,,,,,,,0.112962963,-0.196296296,0,0,0,,,,,,,ONION,LB,m,m,./images/ONIONLB.png,,,,,,,m,1,0.693,,,,,,,,0,72,72,51,1
,,,,,,,,,,,,,,,,,199147,19,2022-01-28_23h58.04.134,lexical_decision_task_DD_L3,2021.2.3,Win32,60.09615385,,,,,,,,,,,,0.8255,1,,,,,,,,,,,,,,,,,,,,,,,,0.112962963,-0.196296296,0,0,0,,,,,,,PARCEL,LB,z,m,./images/PARCELLB.png,,,,,,,z,1,0.8255,,,,,,,,0,73,73,102,1
,,,,,,,,,,,,,,,,,199147,19,2022-01-28_23h58.04.134,lexical_decision_task_DD_L3,2021.2.3,Win32,60.09615385,,,,,,,,,,,,0.8843,1,,,,,,,,,,,,,,,,,,,,,,,,0.112962963,-0.196296296,0,0,0,,,,,,,SHIELD,LB,z,m,./images/SHIELDLB.png,,,,,,,z,1,0.8843,,,,,,,,0,74,74,132,1
,,,,,,,,,,,,,,,,,199147,19,2022-01-28_23h58.04.134,lexical_decision_task_DD_L3,2021.2.3,Win32,60.09615385,,,,,,,,,,,,1.4627,0,,,,,,,,,,,,,,,,,,,,,,,,0.112962963,-0.196296296,0,0,0,,,,,,,STOOL,C,z,m,./images/STOOL.png,,,,,,,m,0,1.4627,,,,,,,,0,75,75,127,1
,,,,,,,,,,,,,,,,,199147,19,2022-01-28_23h58.04.134,lexical_decision_task_DD_L3,2021.2.3,Win32,60.09615385,,,,,,,,,,,,1.0992,1,,,,,,,,,,,,,,,,,,,,,,,,0.112962963,-0.196296296,0,0,0,,,,,,,CLOUD,HB,z,m,./images/CLOUDHB.png,,,,,,,z,1,1.0992,,,,,,,,0,76,76,110,1
,,,,,,,,,,,,,,,,,199147,19,2022-01-28_23h58.04.134,lexical_decision_task_DD_L3,2021.2.3,Win32,60.09615385,,,,,,,,,,,,1.0029,1,,,,,,,,,,,,,,,,,,,,,,,,0.112962963,-0.196296296,0,0,0,,,,,,,PILOT,HB,z,m,./images/PILOTHB.png,,,,,,,z,1,1.0029,,,,,,,,0,77,77,134,1
,,,,,,,,,,,,,,,,,199147,19,2022-01-28_23h58.04.134,lexical_decision_task_DD_L3,2021.2.3,Win32,60.09615385,,,,,,,,,,,,0.8497,1,,,,,,,,,,,,,,,,,,,,,,,,0.112962963,-0.196296296,0,0,0,,,,,,,MAGGOT,LB,m,m,./images/MAGGOTLB.png,,,,,,,m,1,0.8497,,,,,,,,0,78,78,33,1
,,,,,,,,,,,,,,,,,199147,19,2022-01-28_23h58.04.134,lexical_decision_task_DD_L3,2021.2.3,Win32,60.09615385,,,,,,,,,,,,0.9742,1,,,,,,,,,,,,,,,,,,,,,,,,0.112962963,-0.196296296,0,0,0,,,,,,,DRUMS,C,m,m,./images/DRUMS.png,,,,,,,m,1,0.9742,,,,,,,,0,79,79,49,1
,,,,,,,,,,,,,,,,,199147,19,2022-01-28_23h58.04.134,lexical_decision_task_DD_L3,2021.2.3,Win32,60.09615385,,,,,,,,,,,,2.6969,1,,,,,,,,,,,,,,,,,,,,,,,,0.112962963,-0.196296296,0,0,0,,,,,,,TWINS,LB,m,m,./images/TWINSLB.png,,,,,,,m,1,2.6969,,,,,,,,0,80,80,60,1
,,,,,,,,,,,,,,,,,199147,19,2022-01-28_23h58.04.134,lexical_decision_task_DD_L3,2021.2.3,Win32,60.09615385,,,,,,,,,,,,0.8134,1,,,,,,,,,,,,,,,,,,,,,,,,0.112962963,-0.196296296,0,0,0,,,,,,,PASTA,HB,m,m,./images/PASTAHB.png,,,,,,,m,1,0.8134,,,,,,,,0,81,81,5,1
,,,,,,,,,,,,,,,,,199147,19,2022-01-28_23h58.04.134,lexical_decision_task_DD_L3,2021.2.3,Win32,60.09615385,,,,,,,,,,,,1.4112,1,,,,,,,,,,,,,,,,,,,,,,,,0.112962963,-0.196296296,0,0,0,,,,,,,MUMMY,C,z,m,./images/MUMMY.png,,,,,,,z,1,1.4112,,,,,,,,0,82,82,130,1
,,,,,,,,,,,,,,,,,199147,19,2022-01-28_23h58.04.134,lexical_decision_task_DD_L3,2021.2.3,Win32,60.09615385,,,,,,,,,,,,1.853,1,,,,,,,,,,,,,,,,,,,,,,,,0.112962963,-0.196296296,0,0,0,space,,,,,,MONKEY,LB,z,m,./images/MONKEYLB.png,3.0602,,,,,,z,1,1.853,,,,,,,,0,83,83,129,1
,,,,,,,,,,,,,,,,,199147,19,2022-01-28_23h58.04.134,lexical_decision_task_DD_L3,2021.2.3,Win32,60.09615385,,,,,,,,,,,,1.7613,1,,,,,,,,,,,,,,,,,,,,,,,,0.112962963,-0.196296296,0,0,0,,,,,,,MOSQUE,C,m,m,./images/MOSQUE.png,,,,,,,m,1,1.7613,,,,,,,,0,84,84,43,1
,,,,,,,,,,,,,,,,,199147,19,2022-01-28_23h58.04.134,lexical_decision_task_DD_L3,2021.2.3,Win32,60.09615385,,,,,,,,,,,,0.8348,1,,,,,,,,,,,,,,,,,,,,,,,,0.112962963,-0.196296296,0,0,0,,,,,,,LIZARD,HB,m,m,./images/LIZARDHB.png,,,,,,,m,1,0.8348,,,,,,,,0,85,85,44,1
,,,,,,,,,,,,,,,,,199147,19,2022-01-28_23h58.04.134,lexical_decision_task_DD_L3,2021.2.3,Win32,60.09615385,,,,,,,,,,,,0.7489,1,,,,,,,,,,,,,,,,,,,,,,,,0.112962963,-0.196296296,0,0,0,,,,,,,RULER,C,z,m,./images/RULER.png,,,,,,,z,1,0.7489,,,,,,,,0,86,86,163,1
,,,,,,,,,,,,,,,,,199147,19,2022-01-28_23h58.04.134,lexical_decision_task_DD_L3,2021.2.3,Win32,60.09615385,,,,,,,,,,,,1.6596,0,,,,,,,,,,,,,,,,,,,,,,,,0.112962963,-0.196296296,0,0,0,,,,,,,CHALK,C,z,m,./images/CHALK.png,,,,,,,m,0,1.6596,,,,,,,,0,87,87,109,1
,,,,,,,,,,,,,,,,,199147,19,2022-01-28_23h58.04.134,lexical_decision_task_DD_L3,2021.2.3,Win32,60.09615385,,,,,,,,,,,,1.0111,1,,,,,,,,,,,,,,,,,,,,,,,,0.112962963,-0.196296296,0,0,0,,,,,,,CRATER,LB,z,m,./images/CRATERLB.png,,,,,,,z,1,1.0111,,,,,,,,0,88,88,87,1
,,,,,,,,,,,,,,,,,199147,19,2022-01-28_23h58.04.134,lexical_decision_task_DD_L3,2021.2.3,Win32,60.09615385,,,,,,,,,,,,0.8383,1,,,,,,,,,,,,,,,,,,,,,,,,0.112962963,-0.196296296,0,0,0,,,,,,,FENCE,HB,z,m,./images/FENCEHB.png,,,,,,,z,1,0.8383,,,,,,,,0,89,89,98,1
,,,,,,,,,,,,,,,,,199147,19,2022-01-28_23h58.04.134,lexical_decision_task_DD_L3,2021.2.3,Win32,60.09615385,,,,,,,,,,,,0.6959,1,,,,,,,,,,,,,,,,,,,,,,,,0.112962963,-0.196296296,0,0,0,,,,,,,BERRY,HB,m,m,./images/BERRYHB.png,,,,,,,m,1,0.6959,,,,,,,,0,90,90,47,1
,,,,,,,,,,,,,,,,,199147,19,2022-01-28_23h58.04.134,lexical_decision_task_DD_L3,2021.2.3,Win32,60.09615385,,,,,,,,,,,,2.021,0,,,,,,,,,,,,,,,,,,,,,,,,0.112962963,-0.196296296,0,0,0,,,,,,,CLOTH,HB,z,m,./images/CLOTHHB.png,,,,,,,m,0,2.021,,,,,,,,0,91,91,107,1
,,,,,,,,,,,,,,,,,199147,19,2022-01-28_23h58.04.134,lexical_decision_task_DD_L3,2021.2.3,Win32,60.09615385,,,,,,,,,,,,1.3136,1,,,,,,,,,,,,,,,,,,,,,,,,0.112962963,-0.196296296,0,0,0,,,,,,,GLOVE,C,z,m,./images/GLOVE.png,,,,,,,z,1,1.3136,,,,,,,,0,92,92,157,1
,,,,,,,,,,,,,,,,,199147,19,2022-01-28_23h58.04.134,lexical_decision_task_DD_L3,2021.2.3,Win32,60.09615385,,,,,,,,,,,,0.8914,1,,,,,,,,,,,,,,,,,,,,,,,,0.112962963,-0.196296296,0,0,0,,,,,,,LITTER,LB,m,m,./images/LITTERLB.png,,,,,,,m,1,0.8914,,,,,,,,0,93,93,78,1
,,,,,,,,,,,,,,,,,199147,19,2022-01-28_23h58.04.134,lexical_decision_task_DD_L3,2021.2.3,Win32,60.09615385,,,,,,,,,,,,0.734,0,,,,,,,,,,,,,,,,,,,,,,,,0.112962963,-0.196296296,0,0,0,,,,,,,DONKEY,C,z,m,./images/DONKEY.png,,,,,,,m,0,0.734,,,,,,,,0,94,94,103,1
,,,,,,,,,,,,,,,,,199147,19,2022-01-28_23h58.04.134,lexical_decision_task_DD_L3,2021.2.3,Win32,60.09615385,,,,,,,,,,,,0.7656,1,,,,,,,,,,,,,,,,,,,,,,,,0.112962963,-0.196296296,0,0,0,,,,,,,MOOSE,LB,m,m,./images/MOOSELB.png,,,,,,,m,1,0.7656,,,,,,,,0,95,95,57,1
,,,,,,,,,,,,,,,,,199147,19,2022-01-28_23h58.04.134,lexical_decision_task_DD_L3,2021.2.3,Win32,60.09615385,,,,,,,,,,,,0.8907,1,,,,,,,,,,,,,,,,,,,,,,,,0.112962963,-0.196296296,0,0,0,,,,,,,LAGOON,HB,z,m,./images/LAGOONHB.png,,,,,,,z,1,0.8907,,,,,,,,0,96,96,131,1
,,,,,,,,,,,,,,,,,199147,19,2022-01-28_23h58.04.134,lexical_decision_task_DD_L3,2021.2.3,Win32,60.09615385,,,,,,,,,,,,1.237,1,,,,,,,,,,,,,,,,,,,,,,,,0.112962963,-0.196296296,0,0,0,,,,,,,PARADE,HB,z,m,./images/PARADEHB.png,,,,,,,z,1,1.237,,,,,,,,0,97,97,101,1
,,,,,,,,,,,,,,,,,199147,19,2022-01-28_23h58.04.134,lexical_decision_task_DD_L3,2021.2.3,Win32,60.09615385,,,,,,,,,,,,0.8333,1,,,,,,,,,,,,,,,,,,,,,,,,0.112962963,-0.196296296,0,0,0,,,,,,,CANDLE,C,m,m,./images/CANDLE.png,,,,,,,m,1,0.8333,,,,,,,,0,98,98,61,1
,,,,,,,,,,,,,,,,,199147,19,2022-01-28_23h58.04.134,lexical_decision_task_DD_L3,2021.2.3,Win32,60.09615385,,,,,,,,,,,,0.681,1,,,,,,,,,,,,,,,,,,,,,,,,0.112962963,-0.196296296,0,0,0,,,,,,,POKER,C,z,m,./images/POKER.png,,,,,,,z,1,0.681,,,,,,,,0,99,99,151,1
,,,,,,,,,,,,,,,,,199147,19,2022-01-28_23h58.04.134,lexical_decision_task_DD_L3,2021.2.3,Win32,60.09615385,,,,,,,,,,,,0.786,1,,,,,,,,,,,,,,,,,,,,,,,,0.112962963,-0.196296296,0,0,0,,,,,,,BANANA,C,z,m,./images/BANANA.png,,,,,,,z,1,0.786,,,,,,,,0,100,100,154,1
,,,,,,,,,,,,,,,,,199147,19,2022-01-28_23h58.04.134,lexical_decision_task_DD_L3,2021.2.3,Win32,60.09615385,,,,,,,,,,,,1.0539,1,,,,,,,,,,,,,,,,,,,,,,,,0.112962963,-0.196296296,0,0,0,,,,,,,NOOSE,LB,m,m,./images/NOOSELB.png,,,,,,,m,1,1.0539,,,,,,,,0,101,101,72,1
,,,,,,,,,,,,,,,,,199147,19,2022-01-28_23h58.04.134,lexical_decision_task_DD_L3,2021.2.3,Win32,60.09615385,,,,,,,,,,,,0.705,0,,,,,,,,,,,,,,,,,,,,,,,,0.112962963,-0.196296296,0,0,0,,,,,,,FOLDER,LB,m,m,./images/FOLDERLB.png,,,,,,,z,0,0.705,,,,,,,,0,102,102,42,1
,,,,,,,,,,,,,,,,,199147,19,2022-01-28_23h58.04.134,lexical_decision_task_DD_L3,2021.2.3,Win32,60.09615385,,,,,,,,,,,,0.7931,1,,,,,,,,,,,,,,,,,,,,,,,,0.112962963,-0.196296296,0,0,0,,,,,,,MIRROR,LB,m,m,./images/MIRRORLB.png,,,,,,,m,1,0.7931,,,,,,,,0,103,103,63,1
,,,,,,,,,,,,,,,,,199147,19,2022-01-28_23h58.04.134,lexical_decision_task_DD_L3,2021.2.3,Win32,60.09615385,,,,,,,,,,,,0.8918,1,,,,,,,,,,,,,,,,,,,,,,,,0.112962963,-0.196296296,0,0,0,,,,,,,COUCH,HB,m,m,./images/COUCHHB.png,,,,,,,m,1,0.8918,,,,,,,,0,104,104,77,1
,,,,,,,,,,,,,,,,,199147,19,2022-01-28_23h58.04.134,lexical_decision_task_DD_L3,2021.2.3,Win32,60.09615385,,,,,,,,,,,,0.7379,1,,,,,,,,,,,,,,,,,,,,,,,,0.112962963,-0.196296296,0,0,0,,,,,,,BUNNY,C,z,m,./images/BUNNY.png,,,,,,,z,1,0.7379,,,,,,,,0,105,105,97,1
,,,,,,,,,,,,,,,,,199147,19,2022-01-28_23h58.04.134,lexical_decision_task_DD_L3,2021.2.3,Win32,60.09615385,,,,,,,,,,,,0.9156,0,,,,,,,,,,,,,,,,,,,,,,,,0.112962963,-0.196296296,0,0,0,,,,,,,MELON,C,m,m,./images/MELON.png,,,,,,,z,0,0.9156,,,,,,,,0,106,106,22,1
,,,,,,,,,,,,,,,,,199147,19,2022-01-28_23h58.04.134,lexical_decision_task_DD_L3,2021.2.3,Win32,60.09615385,,,,,,,,,,,,2.0648,0,,,,,,,,,,,,,,,,,,,,,,,,0.112962963,-0.196296296,0,0,0,,,,,,,SPORT,LB,m,m,./images/SPORTLB.png,,,,,,,z,0,2.0648,,,,,,,,0,107,107,48,1
,,,,,,,,,,,,,,,,,199147,19,2022-01-28_23h58.04.134,lexical_decision_task_DD_L3,2021.2.3,Win32,60.09615385,,,,,,,,,,,,0.9221,1,,,,,,,,,,,,,,,,,,,,,,,,0.112962963,-0.196296296,0,0,0,,,,,,,POSTER,HB,z,m,./images/POSTERHB.png,,,,,,,z,1,0.9221,,,,,,,,0,108,108,137,1
,,,,,,,,,,,,,,,,,199147,19,2022-01-28_23h58.04.134,lexical_decision_task_DD_L3,2021.2.3,Win32,60.09615385,,,,,,,,,,,,0.838,1,,,,,,,,,,,,,,,,,,,,,,,,0.112962963,-0.196296296,0,0,0,,,,,,,BROOM,LB,z,m,./images/BROOMLB.png,,,,,,,z,1,0.838,,,,,,,,0,109,109,162,1
,,,,,,,,,,,,,,,,,199147,19,2022-01-28_23h58.04.134,lexical_decision_task_DD_L3,2021.2.3,Win32,60.09615385,,,,,,,,,,,,1.0384,0,,,,,,,,,,,,,,,,,,,,,,,,0.112962963,-0.196296296,0,0,0,,,,,,,BAKER,LB,z,m,./images/BAKERLB.png,,,,,,,m,0,1.0384,,,,,,,,0,110,110,147,1
,,,,,,,,,,,,,,,,,199147,19,2022-01-28_23h58.04.134,lexical_decision_task_DD_L3,2021.2.3,Win32,60.09615385,,,,,,,,,,,,0.9692,1,,,,,,,,,,,,,,,,,,,,,,,,0.112962963,-0.196296296,0,0,0,,,,,,,SHELF,LB,m,m,./images/SHELFLB.png,,,,,,,m,1,0.9692,,,,,,,,0,111,111,39,1
,,,,,,,,,,,,,,,,,199147,19,2022-01-28_23h58.04.134,lexical_decision_task_DD_L3,2021.2.3,Win32,60.09615385,,,,,,,,,,,,1.9285,1,,,,,,,,,,,,,,,,,,,,,,,,0.112962963,-0.196296296,0,0,0,,,,,,,CEMENT,HB,m,m,./images/CEMENTHB.png,,,,,,,m,1,1.9285,,,,,,,,0,112,112,74,1
,,,,,,,,,,,,,,,,,199147,19,2022-01-28_23h58.04.134,lexical_decision_task_DD_L3,2021.2.3,Win32,60.09615385,,,,,,,,,,,,1.9001,1,,,,,,,,,,,,,,,,,,,,,,,,0.112962963,-0.196296296,0,0,0,,,,,,,PACKET,HB,m,m,./images/PACKETHB.png,,,,,,,m,1,1.9001,,,,,,,,0,113,113,56,1
,,,,,,,,,,,,,,,,,199147,19,2022-01-28_23h58.04.134,lexical_decision_task_DD_L3,2021.2.3,Win32,60.09615385,,,,,,,,,,,,0.8065,1,,,,,,,,,,,,,,,,,,,,,,,,0.112962963,-0.196296296,0,0,0,,,,,,,TULIP,HB,m,m,./images/TULIPHB.png,,,,,,,m,1,0.8065,,,,,,,,0,114,114,8,1
,,,,,,,,,,,,,,,,,199147,19,2022-01-28_23h58.04.134,lexical_decision_task_DD_L3,2021.2.3,Win32,60.09615385,,,,,,,,,,,,1.4401,1,,,,,,,,,,,,,,,,,,,,,,,,0.112962963,-0.196296296,0,0,0,,,,,,,JUNGLE,HB,m,m,./images/JUNGLEHB.png,,,,,,,m,1,1.4401,,,,,,,,0,115,115,83,1
,,,,,,,,,,,,,,,,,199147,19,2022-01-28_23h58.04.134,lexical_decision_task_DD_L3,2021.2.3,Win32,60.09615385,,,,,,,,,,,,1.0592,1,,,,,,,,,,,,,,,,,,,,,,,,0.112962963,-0.196296296,0,0,0,,,,,,,CARPET,HB,m,m,./images/CARPETHB.png,,,,,,,m,1,1.0592,,,,,,,,0,116,116,53,1
,,,,,,,,,,,,,,,,,199147,19,2022-01-28_23h58.04.134,lexical_decision_task_DD_L3,2021.2.3,Win32,60.09615385,,,,,,,,,,,,0.7901,1,,,,,,,,,,,,,,,,,,,,,,,,0.112962963,-0.196296296,0,0,0,,,,,,,SNACK,C,m,m,./images/SNACK.png,,,,,,,m,1,0.7901,,,,,,,,0,117,117,73,1
,,,,,,,,,,,,,,,,,199147,19,2022-01-28_23h58.04.134,lexical_decision_task_DD_L3,2021.2.3,Win32,60.09615385,,,,,,,,,,,,0.842,1,,,,,,,,,,,,,,,,,,,,,,,,0.112962963,-0.196296296,0,0,0,,,,,,,CURRY,LB,z,m,./images/CURRYLB.png,,,,,,,z,1,0.842,,,,,,,,0,118,118,144,1
,,,,,,,,,,,,,,,,,199147,19,2022-01-28_23h58.04.134,lexical_decision_task_DD_L3,2021.2.3,Win32,60.09615385,,,,,,,,,,,,1.2141,0,,,,,,,,,,,,,,,,,,,,,,,,0.112962963,-0.196296296,0,0,0,,,,,,,STOVE,HB,z,m,./images/STOVEHB.png,,,,,,,m,0,1.2141,,,,,,,,0,119,119,86,1
,,,,,,,,,,,,,,,,,199147,19,2022-01-28_23h58.04.134,lexical_decision_task_DD_L3,2021.2.3,Win32,60.09615385,,,,,,,,,,,,0.778,1,,,,,,,,,,,,,,,,,,,,,,,,0.112962963,-0.196296296,0,0,0,,,,,,,KIDNEY,LB,m,m,./images/KIDNEYLB.png,,,,,,,m,1,0.778,,,,,,,,0,120,120,21,1
,,,,,,,,,,,,,,,,,199147,19,2022-01-28_23h58.04.134,lexical_decision_task_DD_L3,2021.2.3,Win32,60.09615385,,,,,,,,,,,,0.7212,1,,,,,,,,,,,,,,,,,,,,,,,,0.112962963,-0.196296296,0,0,0,,,,,,,HOCKEY,HB,z,m,./images/HOCKEYHB.png,,,,,,,z,1,0.7212,,,,,,,,0,121,121,116,1
,,,,,,,,,,,,,,,,,199147,19,2022-01-28_23h58.04.134,lexical_decision_task_DD_L3,2021.2.3,Win32,60.09615385,,,,,,,,,,,,0.7248,1,,,,,,,,,,,,,,,,,,,,,,,,0.112962963,-0.196296296,0,0,0,,,,,,,LLAMA,HB,z,m,./images/LLAMAHB.png,,,,,,,z,1,0.7248,,,,,,,,0,122,122,119,1
,,,,,,,,,,,,,,,,,199147,19,2022-01-28_23h58.04.134,lexical_decision_task_DD_L3,2021.2.3,Win32,60.09615385,,,,,,,,,,,,2.3897,1,,,,,,,,,,,,,,,,,,,,,,,,0.112962963,-0.196296296,0,0,0,,,,,,,PAINT,C,m,m,./images/PAINT.png,,,,,,,m,1,2.3897,,,,,,,,0,123,123,7,1
,,,,,,,,,,,,,,,,,199147,19,2022-01-28_23h58.04.134,lexical_decision_task_DD_L3,2021.2.3,Win32,60.09615385,,,,,,,,,,,,0.8284,0,,,,,,,,,,,,,,,,,,,,,,,,0.112962963,-0.196296296,0,0,0,,,,,,,BAMBOO,HB,z,m,./images/BAMBOOHB.png,,,,,,,m,0,0.8284,,,,,,,,0,124,124,89,1
,,,,,,,,,,,,,,,,,199147,19,2022-01-28_23h58.04.134,lexical_decision_task_DD_L3,2021.2.3,Win32,60.09615385,,,,,,,,,,,,1.9255,0,,,,,,,,,,,,,,,,,,,,,,,,0.112962963,-0.196296296,0,0,0,space,,,,,,LADDER,HB,m,m,./images/LADDERHB.png,1.3344,,,,,,z,0,1.9255,,,,,,,,0,125,125,38,1
,,,,,,,,,,,,,,,,,199147,19,2022-01-28_23h58.04.134,lexical_decision_task_DD_L3,2021.2.3,Win32,60.09615385,,,,,,,,,,,,0.8883,1,,,,,,,,,,,,,,,,,,,,,,,,0.112962963,-0.196296296,0,0,0,,,,,,,JUMPER,HB,z,m,./images/JUMPERHB.png,,,,,,,z,1,0.8883,,,,,,,,0,126,126,158,1
,,,,,,,,,,,,,,,,,199147,19,2022-01-28_23h58.04.134,lexical_decision_task_DD_L3,2021.2.3,Win32,60.09615385,,,,,,,,,,,,0.8191,1,,,,,,,,,,,,,,,,,,,,,,,,0.112962963,-0.196296296,0,0,0,,,,,,,CHERRY,LB,z,m,./images/CHERRYLB.png,,,,,,,z,1,0.8191,,,,,,,,0,127,127,138,1
,,,,,,,,,,,,,,,,,199147,19,2022-01-28_23h58.04.134,lexical_decision_task_DD_L3,2021.2.3,Win32,60.09615385,,,,,,,,,,,,1.0086,0,,,,,,,,,,,,,,,,,,,,,,,,0.112962963,-0.196296296,0,0,0,,,,,,,GREASE,LB,m,m,./images/GREASELB.png,,,,,,,z,0,1.0086,,,,,,,,0,128,128,15,1
,,,,,,,,,,,,,,,,,199147,19,2022-01-28_23h58.04.134,lexical_decision_task_DD_L3,2021.2.3,Win32,60.09615385,,,,,,,,,,,,1.9199,0,,,,,,,,,,,,,,,,,,,,,,,,0.112962963,-0.196296296,0,0,0,,,,,,,ATTIC,LB,m,m,./images/ATTICLB.png,,,,,,,z,0,1.9199,,,,,,,,0,129,129,27,1
,,,,,,,,,,,,,,,,,199147,19,2022-01-28_23h58.04.134,lexical_decision_task_DD_L3,2021.2.3,Win32,60.09615385,,,,,,,,,,,,1.7831,1,,,,,,,,,,,,,,,,,,,,,,,,0.112962963,-0.196296296,0,0,0,,,,,,,GARDEN,C,z,m,./images/GARDEN.png,,,,,,,z,1,1.7831,,,,,,,,0,130,130,94,1
,,,,,,,,,,,,,,,,,199147,19,2022-01-28_23h58.04.134,lexical_decision_task_DD_L3,2021.2.3,Win32,60.09615385,,,,,,,,,,,,0.6584,1,,,,,,,,,,,,,,,,,,,,,,,,0.112962963,-0.196296296,0,0,0,,,,,,,PISTOL,HB,z,m,./images/PISTOLHB.png,,,,,,,z,1,0.6584,,,,,,,,0,131,131,113,1
,,,,,,,,,,,,,,,,,199147,19,2022-01-28_23h58.04.134,lexical_decision_task_DD_L3,2021.2.3,Win32,60.09615385,,,,,,,,,,,,1.04,1,,,,,,,,,,,,,,,,,,,,,,,,0.112962963,-0.196296296,0,0,0,,,,,,,STRING,HB,m,m,./images/STRINGHB.png,,,,,,,m,1,1.04,,,,,,,,0,132,132,41,1
,,,,,,,,,,,,,,,,,199147,19,2022-01-28_23h58.04.134,lexical_decision_task_DD_L3,2021.2.3,Win32,60.09615385,,,,,,,,,,,,0.9924,1,,,,,,,,,,,,,,,,,,,,,,,,0.112962963,-0.196296296,0,0,0,,,,,,,TRIPOD,LB,m,m,./images/TRIPODLB.png,,,,,,,m,1,0.9924,,,,,,,,0,133,133,54,1
,,,,,,,,,,,,,,,,,199147,19,2022-01-28_23h58.04.134,lexical_decision_task_DD_L3,2021.2.3,Win32,60.09615385,,,,,,,,,,,,2.3136,1,,,,,,,,,,,,,,,,,,,,,,,,0.112962963,-0.196296296,0,0,0,,,,,,,PURSE,HB,m,m,./images/PURSEHB.png,,,,,,,m,1,2.3136,,,,,,,,0,134,134,62,1
,,,,,,,,,,,,,,,,,199147,19,2022-01-28_23h58.04.134,lexical_decision_task_DD_L3,2021.2.3,Win32,60.09615385,,,,,,,,,,,,0.7988,1,,,,,,,,,,,,,,,,,,,,,,,,0.112962963,-0.196296296,0,0,0,,,,,,,SPINE,HB,z,m,./images/SPINEHB.png,,,,,,,z,1,0.7988,,,,,,,,0,135,135,149,1
,,,,,,,,,,,,,,,,,199147,19,2022-01-28_23h58.04.134,lexical_decision_task_DD_L3,2021.2.3,Win32,60.09615385,,,,,,,,,,,,0.7666,1,,,,,,,,,,,,,,,,,,,,,,,,0.112962963,-0.196296296,0,0,0,,,,,,,SAUNA,LB,z,m,./images/SAUNALB.png,,,,,,,z,1,0.7666,,,,,,,,0,136,136,117,1
,,,,,,,,,,,,,,,,,199147,19,2022-01-28_23h58.04.134,lexical_decision_task_DD_L3,2021.2.3,Win32,60.09615385,,,,,,,,,,,,1.4759,1,,,,,,,,,,,,,,,,,,,,,,,,0.112962963,-0.196296296,0,0,0,,,,,,,COLLAR,LB,z,m,./images/COLLARLB.png,,,,,,,z,1,1.4759,,,,,,,,0,137,137,99,1
,,,,,,,,,,,,,,,,,199147,19,2022-01-28_23h58.04.134,lexical_decision_task_DD_L3,2021.2.3,Win32,60.09615385,,,,,,,,,,,,2.0147,1,,,,,,,,,,,,,,,,,,,,,,,,0.112962963,-0.196296296,0,0,0,,,,,,,GRAIN,LB,m,m,./images/GRAINLB.png,,,,,,,m,1,2.0147,,,,,,,,0,138,138,75,1
,,,,,,,,,,,,,,,,,199147,19,2022-01-28_23h58.04.134,lexical_decision_task_DD_L3,2021.2.3,Win32,60.09615385,,,,,,,,,,,,1.5156,1,,,,,,,,,,,,,,,,,,,,,,,,0.112962963,-0.196296296,0,0,0,,,,,,,BIRTH,C,m,m,./images/BIRTH.png,,,,,,,m,1,1.5156,,,,,,,,0,139,139,37,1
,,,,,,,,,,,,,,,,,199147,19,2022-01-28_23h58.04.134,lexical_decision_task_DD_L3,2021.2.3,Win32,60.09615385,,,,,,,,,,,,2.0334,1,,,,,,,,,,,,,,,,,,,,,,,,0.112962963,-0.196296296,0,0,0,,,,,,,SUNSET,C,m,m,./images/SUNSET.png,,,,,,,m,1,2.0334,,,,,,,,0,140,140,82,1
,,,,,,,,,,,,,,,,,199147,19,2022-01-28_23h58.04.134,lexical_decision_task_DD_L3,2021.2.3,Win32,60.09615385,,,,,,,,,,,,0.763,1,,,,,,,,,,,,,,,,,,,,,,,,0.112962963,-0.196296296,0,0,0,,,,,,,BOILER,LB,z,m,./images/BOILERLB.png,,,,,,,z,1,0.763,,,,,,,,0,141,141,120,1
,,,,,,,,,,,,,,,,,199147,19,2022-01-28_23h58.04.134,lexical_decision_task_DD_L3,2021.2.3,Win32,60.09615385,,,,,,,,,,,,1.2486,1,,,,,,,,,,,,,,,,,,,,,,,,0.112962963,-0.196296296,0,0,0,,,,,,,CANOE,C,z,m,./images/CANOE.png,,,,,,,z,1,1.2486,,,,,,,,0,142,142,142,1
,,,,,,,,,,,,,,,,,199147,19,2022-01-28_23h58.04.134,lexical_decision_task_DD_L3,2021.2.3,Win32,60.09615385,,,,,,,,,,,,1.8272,0,,,,,,,,,,,,,,,,,,,,,,,,0.112962963,-0.196296296,0,0,0,,,,,,,BASKET,HB,z,m,./images/BASKETHB.png,,,,,,,m,0,1.8272,,,,,,,,0,143,143,128,1
,,,,,,,,,,,,,,,,,199147,19,2022-01-28_23h58.04.134,lexical_decision_task_DD_L3,2021.2.3,Win32,60.09615385,,,,,,,,,,,,1.1682,1,,,,,,,,,,,,,,,,,,,,,,,,0.112962963,-0.196296296,0,0,0,,,,,,,PEBBLE,C,z,m,./images/PEBBLE.png,,,,,,,z,1,1.1682,,,,,,,,0,144,144,166,1
,,,,,,,,,,,,,,,,,199147,19,2022-01-28_23h58.04.134,lexical_decision_task_DD_L3,2021.2.3,Win32,60.09615385,,,,,,,,,,,,0.7578,1,,,,,,,,,,,,,,,,,,,,,,,,0.112962963,-0.196296296,0,0,0,,,,,,,BRIDE,C,z,m,./images/BRIDE.png,,,,,,,z,1,0.7578,,,,,,,,0,145,145,148,1
,,,,,,,,,,,,,,,,,199147,19,2022-01-28_23h58.04.134,lexical_decision_task_DD_L3,2021.2.3,Win32,60.09615385,,,,,,,,,,,,1.8883,0,,,,,,,,,,,,,,,,,,,,,,,,0.112962963,-0.196296296,0,0,0,,,,,,,STORM,LB,m,m,./images/STORMLB.png,,,,,,,z,0,1.8883,,,,,,,,0,146,146,30,1
,,,,,,,,,,,,,,,,,199147,19,2022-01-28_23h58.04.134,lexical_decision_task_DD_L3,2021.2.3,Win32,60.09615385,,,,,,,,,,,,0.881,1,,,,,,,,,,,,,,,,,,,,,,,,0.112962963,-0.196296296,0,0,0,,,,,,,BUBBLE,HB,z,m,./images/BUBBLEHB.png,,,,,,,z,1,0.881,,,,,,,,0,147,147,155,1
,,,,,,,,,,,,,,,,,199147,19,2022-01-28_23h58.04.134,lexical_decision_task_DD_L3,2021.2.3,Win32,60.09615385,,,,,,,,,,,,0.7188,1,,,,,,,,,,,,,,,,,,,,,,,,0.112962963,-0.196296296,0,0,0,,,,,,,SWEAT,LB,m,m,./images/SWEATLB.png,,,,,,,m,1,0.7188,,,,,,,,0,148,148,66,1
,,,,,,,,,,,,,,,,,199147,19,2022-01-28_23h58.04.134,lexical_decision_task_DD_L3,2021.2.3,Win32,60.09615385,,,,,,,,,,,,1.0236,1,,,,,,,,,,,,,,,,,,,,,,,,0.112962963,-0.196296296,0,0,0,,,,,,,TOMATO,LB,m,m,./images/TOMATOLB.png,,,,,,,m,1,1.0236,,,,,,,,0,149,149,0,1
,,,,,,,,,,,,,,,,,199147,19,2022-01-28_23h58.04.134,lexical_decision_task_DD_L3,2021.2.3,Win32,60.09615385,,,,,,,,,,,,0.8673,1,,,,,,,,,,,,,,,,,,,,,,,,0.112962963,-0.196296296,0,0,0,,,,,,,SAUCE,LB,z,m,./images/SAUCELB.png,,,,,,,z,1,0.8673,,,,,,,,0,150,150,135,1
,,,,,,,,,,,,,,,,,199147,19,2022-01-28_23h58.04.134,lexical_decision_task_DD_L3,2021.2.3,Win32,60.09615385,,,,,,,,,,,,0.8074,1,,,,,,,,,,,,,,,,,,,,,,,,0.112962963,-0.196296296,0,0,0,,,,,,,KITTEN,LB,m,m,./images/KITTENLB.png,,,,,,,m,1,0.8074,,,,,,,,0,151,151,45,1
,,,,,,,,,,,,,,,,,199147,19,2022-01-28_23h58.04.134,lexical_decision_task_DD_L3,2021.2.3,Win32,60.09615385,,,,,,,,,,,,0.7328,1,,,,,,,,,,,,,,,,,,,,,,,,0.112962963,-0.196296296,0,0,0,,,,,,,PICKLE,HB,m,m,./images/PICKLEHB.png,,,,,,,m,1,0.7328,,,,,,,,0,152,152,14,1
,,,,,,,,,,,,,,,,,199147,19,2022-01-28_23h58.04.134,lexical_decision_task_DD_L3,2021.2.3,Win32,60.09615385,,,,,,,,,,,,0.8308,0,,,,,,,,,,,,,,,,,,,,,,,,0.112962963,-0.196296296,0,0,0,,,,,,,FINGER,LB,m,m,./images/FINGERLB.png,,,,,,,z,0,0.8308,,,,,,,,0,153,153,3,1
,,,,,,,,,,,,,,,,,199147,19,2022-01-28_23h58.04.134,lexical_decision_task_DD_L3,2021.2.3,Win32,60.09615385,,,,,,,,,,,,0.872,1,,,,,,,,,,,,,,,,,,,,,,,,0.112962963,-0.196296296,0,0,0,,,,,,,RAZOR,C,z,m,./images/RAZOR.png,,,,,,,z,1,0.872,,,,,,,,0,154,154,118,1
,,,,,,,,,,,,,,,,,199147,19,2022-01-28_23h58.04.134,lexical_decision_task_DD_L3,2021.2.3,Win32,60.09615385,,,,,,,,,,,,0.7773,1,,,,,,,,,,,,,,,,,,,,,,,,0.112962963,-0.196296296,0,0,0,,,,,,,MOTOR,C,m,m,./images/MOTOR.png,,,,,,,m,1,0.7773,,,,,,,,0,155,155,13,1
,,,,,,,,,,,,,,,,,199147,19,2022-01-28_23h58.04.134,lexical_decision_task_DD_L3,2021.2.3,Win32,60.09615385,,,,,,,,,,,,2.0824,1,,,,,,,,,,,,,,,,,,,,,,,,0.112962963,-0.196296296,0,0,0,,,,,,,MEDAL,HB,z,m,./images/MEDALHB.png,,,,,,,z,1,2.0824,,,,,,,,0,156,156,95,1
,,,,,,,,,,,,,,,,,199147,19,2022-01-28_23h58.04.134,lexical_decision_task_DD_L3,2021.2.3,Win32,60.09615385,,,,,,,,,,,,1.4546,1,,,,,,,,,,,,,,,,,,,,,,,,0.112962963,-0.196296296,0,0,0,,,,,,,MIDGET,C,z,m,./images/MIDGET.png,,,,,,,z,1,1.4546,,,,,,,,0,157,157,160,1
,,,,,,,,,,,,,,,,,199147,19,2022-01-28_23h58.04.134,lexical_decision_task_DD_L3,2021.2.3,Win32,60.09615385,,,,,,,,,,,,0.7357,1,,,,,,,,,,,,,,,,,,,,,,,,0.112962963,-0.196296296,0,0,0,,,,,,,PIMPLE,HB,m,m,./images/PIMPLEHB.png,,,,,,,m,1,0.7357,,,,,,,,0,158,158,71,1
,,,,,,,,,,,,,,,,,199147,19,2022-01-28_23h58.04.134,lexical_decision_task_DD_L3,2021.2.3,Win32,60.09615385,,,,,,,,,,,,0.9955,1,,,,,,,,,,,,,,,,,,,,,,,,0.112962963,-0.196296296,0,0,0,,,,,,,CHAIN,LB,z,m,./images/CHAINLB.png,,,,,,,z,1,0.9955,,,,,,,,0,159,159,126,1
,,,,,,,,,,,,,,,,,199147,19,2022-01-28_23h58.04.134,lexical_decision_task_DD_L3,2021.2.3,Win32,60.09615385,,,,,,,,,,,,1.9724,1,,,,,,,,,,,,,,,,,,,,,,,,0.112962963,-0.196296296,0,0,0,,,,,,,CRUMB,HB,m,m,./images/CRUMBHB.png,,,,,,,m,1,1.9724,,,,,,,,0,160,160,29,1
,,,,,,,,,,,,,,,,,199147,19,2022-01-28_23h58.04.134,lexical_decision_task_DD_L3,2021.2.3,Win32,60.09615385,,,,,,,,,,,,0.8932,1,,,,,,,,,,,,,,,,,,,,,,,,0.112962963,-0.196296296,0,0,0,,,,,,,CRUST,C,m,m,./images/CRUST.png,,,,,,,m,1,0.8932,,,,,,,,0,161,161,79,1
,,,,,,,,,,,,,,,,,199147,19,2022-01-28_23h58.04.134,lexical_decision_task_DD_L3,2021.2.3,Win32,60.09615385,,,,,,,,,,,,0.6328,1,,,,,,,,,,,,,,,,,,,,,,,,0.112962963,-0.196296296,0,0,0,,,,,,,HEATER,HB,z,m,./images/HEATERHB.png,,,,,,,z,1,0.6328,,,,,,,,0,162,162,140,1
,,,,,,,,,,,,,,,,,199147,19,2022-01-28_23h58.04.134,lexical_decision_task_DD_L3,2021.2.3,Win32,60.09615385,,,,,,,,,,,,0.8042,1,,,,,,,,,,,,,,,,,,,,,,,,0.112962963,-0.196296296,0,0,0,,,,,,,BOXER,C,z,m,./images/BOXER.png,,,,,,,z,1,0.8042,,,,,,,,0,163,163,88,1
,,,,,,,,,,,,,,,,,199147,19,2022-01-28_23h58.04.134,lexical_decision_task_DD_L3,2021.2.3,Win32,60.09615385,,,,,,,,,,,,1.2798,0,,,,,,,,,,,,,,,,,,,,,,,,0.112962963,-0.196296296,0,0,0,,,,,,,INFANT,C,m,m,./images/INFANT.png,,,,,,,z,0,1.2798,,,,,,,,0,164,164,76,1
,,,,,,,,,,,,,,,,,199147,19,2022-01-28_23h58.04.134,lexical_decision_task_DD_L3,2021.2.3,Win32,60.09615385,,,,,,,,,,,,0.9446,1,,,,,,,,,,,,,,,,,,,,,,,,0.112962963,-0.196296296,0,0,0,,,,,,,SHORE,LB,m,m,./images/SHORELB.png,,,,,,,m,1,0.9446,,,,,,,,0,165,165,12,1
,,,,,,,,,,,,,,,,,199147,19,2022-01-28_23h58.04.134,lexical_decision_task_DD_L3,2021.2.3,Win32,60.09615385,,,,,,,,,,,,0.8886,0,,,,,,,,,,,,,,,,,,,,,,,,0.112962963,-0.196296296,0,0,0,,,,,,,SCREW,LB,m,m,./images/SCREWLB.png,,,,,,,z,0,0.8886,,,,,,,,0,166,166,24,1
,,,,,,,,,,,,,,,,,199147,19,2022-01-28_23h58.04.134,lexical_decision_task_DD_L3,2021.2.3,Win32,60.09615385,,,,,,,,,,,,1.8374,1,,,,,,,,,,,,,,,,,,,,,,,,0.112962963,-0.196296296,0,0,0,,,,,,,BLOKE,LB,z,m,./images/BLOKELB.png,,,,,,,z,1,1.8374,,,,,,,,0,167,167,96,1
