key_resp.keys,key_resp.rt,instr_done_touch.x,instr_done_touch.y,instr_done_touch.leftButton,instr_done_touch.midButton,instr_done_touch.rightButton,instruction_pages.thisRepN,instruction_pages.thisTrialN,instruction_pages.thisN,instruction_pages.thisIndex,instruction_pages.ran,pageN,phase,instruct_text,has_image,instruct_image,participant,age,date,expName,psychopyVersion,OS,frameRate,response.keys,response.corr,response.rt,touch_resp.x,touch_resp.y,touch_resp.leftButton,touch_resp.midButton,touch_resp.rightButton,touch_resp.time,touch_resp.clicked_name,rt,corr,practrials.thisRepN,practrials.thisTrialN,practrials.thisN,practrials.thisIndex,practrials.ran,TrialID,Target,corrAns,end_of_practice_trials_pages.thisRepN,end_of_practice_trials_pages.thisTrialN,end_of_practice_trials_pages.thisN,end_of_practice_trials_pages.thisIndex,end_of_practice_trials_pages.ran,key_resp_2.keys,key_resp_2.corr,key_resp_2.rt,targ_click.x,targ_click.y,targ_click.leftButton,targ_click.midButton,targ_click.rightButton,targ_click.time,targ_click.clicked_name,break_done_touch.x,break_done_touch.y,break_done_touch.leftButton,break_done_touch.midButton,break_done_touch.rightButton,break_done_keyboard.keys,maintrials.thisRepN,maintrials.thisTrialN,maintrials.thisN,maintrials.thisIndex,maintrials.ran,string,blur,study,lex,stim_path,break_done_keyboard.rt,test_instructions.thisRepN,test_instructions.thisTrialN,test_instructions.thisN,test_instructions.thisIndex,test_instructions.ran,instr_done_touch.clicked_name,key_resp_3.keys,key_resp_3.corr,key_resp_3.rt,test_click.x,test_click.y,test_click.leftButton,test_click.midButton,test_click.rightButton,test_click.time,test_click.clicked_name,test_phase.thisRepN,test_phase.thisTrialN,test_phase.thisN,test_phase.thisIndex,test_phase.ran
space,2.475,-0.005555542,-0.381481551,0,0,0,0,0,0,0,1,1,instructions,"INSTRUCTIONS
At the start of each trial, look at the plus sign  (+) in the center of the screen.  This tells you that a trial is about to begin and where to look. Second, the plus sign will disappear and a string of letters will appear. Your task is to determine if the string of letters is a word or not. If the item is a word press the M key (on keyboard)  or touch the word button (phone/tablet).  If the item is not a word,  press the  Z key (on keyboard)  or touch the nonword button (on phone/tablet). 
Press the space bar or touch  continue.",0,,199285,18,2022-01-25_21h16.10.365,lexical_decision_task_DD_L3,2021.2.3,Win32,59.59830741,,,,,,,,,,,,,,,,,,,,,,,,,,,,,,,,,,,,,,,,,,,,,,,,,,,,,,,,,,,,,,,,,,,,,,,,,
space,1.6342,-0.005555542,-0.381481551,0,0,0,0,1,1,1,1,2,instructions,"If your device has a keyboard, press the 'Z' key for nonwords and the 'M' key for words.





Press the space bar or touch the button below to continue.",0,keyboard-example.gif,199285,18,2022-01-25_21h16.10.365,lexical_decision_task_DD_L3,2021.2.3,Win32,59.59830741,,,,,,,,,,,,,,,,,,,,,,,,,,,,,,,,,,,,,,,,,,,,,,,,,,,,,,,,,,,,,,,,,,,,,,,,,
space,1.0914,-0.005555542,-0.381481551,0,0,0,0,2,2,2,1,3,instructions,"If you are using a touchscreen only device, use the buttons on the screen. Do not use the mouse.





Press the space bar or touch the button below to continue.",0,touchscreen-example.gif,199285,18,2022-01-25_21h16.10.365,lexical_decision_task_DD_L3,2021.2.3,Win32,59.59830741,,,,,,,,,,,,,,,,,,,,,,,,,,,,,,,,,,,,,,,,,,,,,,,,,,,,,,,,,,,,,,,,,,,,,,,,,
space,1.9682,-0.005555542,-0.381481551,0,0,0,0,3,3,3,1,4,instructions,"It is very important that you respond as quickly and accurately as possible, as each letter string will only be on the screen for two seconds. If you do not respond within this time, the message 'Too slow!' will be displayed and the experiment will progress to the next letter string. The first 20 trials will be practice trials and you will receive feedback on your answers. 

Press the space bar or touch the button below to start the practice trials.",0,,199285,18,2022-01-25_21h16.10.365,lexical_decision_task_DD_L3,2021.2.3,Win32,59.59830741,,,,,,,,,,,,,,,,,,,,,,,,,,,,,,,,,,,,,,,,,,,,,,,,,,,,,,,,,,,,,,,,,,,,,,,,,
,,,,,,,,,,,,,,,,,199285,18,2022-01-25_21h16.10.365,lexical_decision_task_DD_L3,2021.2.3,Win32,59.59830741,m,1,8.2408,,,,,,,,8.2408,1,0,0,0,1,1,1001,ADJUST,m,,,,,,,,,,,,,,,,,,,,,,,,,,,,,,,,,,,,,,,,,,,,,,,,,,,,,
,,,,,,,,,,,,,,,,,199285,18,2022-01-25_21h16.10.365,lexical_decision_task_DD_L3,2021.2.3,Win32,59.59830741,m,1,1.2883,,,,,,,,1.2883,1,0,1,1,6,1,1001,ZOMBIE,m,,,,,,,,,,,,,,,,,,,,,,,,,,,,,,,,,,,,,,,,,,,,,,,,,,,,,
,,,,,,,,,,,,,,,,,199285,18,2022-01-25_21h16.10.365,lexical_decision_task_DD_L3,2021.2.3,Win32,59.59830741,z,1,1.4261,,,,,,,,1.4261,1,0,2,2,12,1,1001,SPRINY,z,,,,,,,,,,,,,,,,,,,,,,,,,,,,,,,,,,,,,,,,,,,,,,,,,,,,,
,,,,,,,,,,,,,,,,,199285,18,2022-01-25_21h16.10.365,lexical_decision_task_DD_L3,2021.2.3,Win32,59.59830741,z,1,1.0711,,,,,,,,1.0711,1,0,3,3,8,1,1001,ASLERT,z,,,,,,,,,,,,,,,,,,,,,,,,,,,,,,,,,,,,,,,,,,,,,,,,,,,,,
,,,,,,,,,,,,,,,,,199285,18,2022-01-25_21h16.10.365,lexical_decision_task_DD_L3,2021.2.3,Win32,59.59830741,m,1,0.6418,,,,,,,,0.6418,1,0,4,4,5,1,1001,OBTAIN,m,,,,,,,,,,,,,,,,,,,,,,,,,,,,,,,,,,,,,,,,,,,,,,,,,,,,,
,,,,,,,,,,,,,,,,,199285,18,2022-01-25_21h16.10.365,lexical_decision_task_DD_L3,2021.2.3,Win32,59.59830741,m,1,0.8056,,,,,,,,0.8056,1,0,5,5,4,1,1001,SQUEAK,m,,,,,,,,,,,,,,,,,,,,,,,,,,,,,,,,,,,,,,,,,,,,,,,,,,,,,
,,,,,,,,,,,,,,,,,199285,18,2022-01-25_21h16.10.365,lexical_decision_task_DD_L3,2021.2.3,Win32,59.59830741,m,1,1.9203,,,,,,,,1.9203,1,0,6,6,0,1,1001,UTOPIA,m,,,,,,,,,,,,,,,,,,,,,,,,,,,,,,,,,,,,,,,,,,,,,,,,,,,,,
,,,,,,,,,,,,,,,,,199285,18,2022-01-25_21h16.10.365,lexical_decision_task_DD_L3,2021.2.3,Win32,59.59830741,z,1,1.0677,,,,,,,,1.0677,1,0,7,7,10,1,1001,INLADE,z,,,,,,,,,,,,,,,,,,,,,,,,,,,,,,,,,,,,,,,,,,,,,,,,,,,,,
,,,,,,,,,,,,,,,,,199285,18,2022-01-25_21h16.10.365,lexical_decision_task_DD_L3,2021.2.3,Win32,59.59830741,m,1,0.7013,,,,,,,,0.7013,1,0,8,8,3,1,1001,MATRIX,m,,,,,,,,,,,,,,,,,,,,,,,,,,,,,,,,,,,,,,,,,,,,,,,,,,,,,
,,,,,,,,,,,,,,,,,199285,18,2022-01-25_21h16.10.365,lexical_decision_task_DD_L3,2021.2.3,Win32,59.59830741,z,1,0.8877,,,,,,,,0.8877,1,0,9,9,11,1,1001,RASHET,z,,,,,,,,,,,,,,,,,,,,,,,,,,,,,,,,,,,,,,,,,,,,,,,,,,,,,
,,,,,,,,,,,,,,,,,199285,18,2022-01-25_21h16.10.365,lexical_decision_task_DD_L3,2021.2.3,Win32,59.59830741,z,1,0.9124,,,,,,,,0.9124,1,0,10,10,13,1,1001,ROUPET,z,,,,,,,,,,,,,,,,,,,,,,,,,,,,,,,,,,,,,,,,,,,,,,,,,,,,,
,,,,,,,,,,,,,,,,,199285,18,2022-01-25_21h16.10.365,lexical_decision_task_DD_L3,2021.2.3,Win32,59.59830741,m,1,0.6097,,,,,,,,0.6097,1,0,11,11,7,1,1001,VOLUME,m,,,,,,,,,,,,,,,,,,,,,,,,,,,,,,,,,,,,,,,,,,,,,,,,,,,,,
,,,,,,,,,,,,,,,,,199285,18,2022-01-25_21h16.10.365,lexical_decision_task_DD_L3,2021.2.3,Win32,59.59830741,z,1,0.858,,,,,,,,0.858,1,0,12,12,14,1,1001,THRALE,z,,,,,,,,,,,,,,,,,,,,,,,,,,,,,,,,,,,,,,,,,,,,,,,,,,,,,
,,,,,,,,,,,,,,,,,199285,18,2022-01-25_21h16.10.365,lexical_decision_task_DD_L3,2021.2.3,Win32,59.59830741,m,1,0.6005,,,,,,,,0.6005,1,0,13,13,2,1,1001,ALMOND,m,,,,,,,,,,,,,,,,,,,,,,,,,,,,,,,,,,,,,,,,,,,,,,,,,,,,,
,,,,,,,,,,,,,,,,,199285,18,2022-01-25_21h16.10.365,lexical_decision_task_DD_L3,2021.2.3,Win32,59.59830741,z,1,1.1405,,,,,,,,1.1405,1,0,14,14,15,1,1001,WHAISE,z,,,,,,,,,,,,,,,,,,,,,,,,,,,,,,,,,,,,,,,,,,,,,,,,,,,,,
,,,,,,,,,,,,,,,,,199285,18,2022-01-25_21h16.10.365,lexical_decision_task_DD_L3,2021.2.3,Win32,59.59830741,z,1,0.8915,,,,,,,,0.8915,1,0,15,15,9,1,1001,FARINY,z,,,,,,,,,,,,,,,,,,,,,,,,,,,,,,,,,,,,,,,,,,,,,,,,,,,,,
space,2.6126,-0.01296295,-0.100000009,0,0,0,,,,,,1,end_of_practice,"You have completed the practice trials. During the experimental trials, you will not receive feedback. 
Before you begin, please ensure that you are in a comfortable and quiet location and will not be disturbed for about 15 minutes, as we cannot use your data if you do not complete all the trials. 
 When you are ready to start the experimental trials, please press space or touch the button below.",,,199285,18,2022-01-25_21h16.10.365,lexical_decision_task_DD_L3,2021.2.3,Win32,59.59830741,,,,,,,,,,,,,,,,,,,,,0,0,0,0,1,,,,,,,,,,,,,,,,,,,,,,,,,,,,,,,,,,,,,,,,,,,,,,,,
,,,,,,,,,,,,,,,,,199285,18,2022-01-25_21h16.10.365,lexical_decision_task_DD_L3,2021.2.3,Win32,59.59830741,,,,,,,,,,,0.9819,0,,,,,,,,,,,,,,z,0,0.9819,,,,,,,,-0.01296295,-0.100000009,0,0,0,,0,0,0,84,1,HAXES,C,old,n,./images/HAXES.png,,,,,,,,,,,,,,,,,,,,,,
,,,,,,,,,,,,,,,,,199285,18,2022-01-25_21h16.10.365,lexical_decision_task_DD_L3,2021.2.3,Win32,59.59830741,,,,,,,,,,,2.0365,0,,,,,,,,,,,,,,m,0,2.0365,,,,,,,,-0.01296295,-0.100000009,0,0,0,,0,1,1,29,1,CRUMB,HB,old,y,./images/CRUMBHB.png,,,,,,,,,,,,,,,,,,,,,,
,,,,,,,,,,,,,,,,,199285,18,2022-01-25_21h16.10.365,lexical_decision_task_DD_L3,2021.2.3,Win32,59.59830741,,,,,,,,,,,1.0019,0,,,,,,,,,,,,,,m,0,1.0019,,,,,,,,-0.01296295,-0.100000009,0,0,0,,0,2,2,83,1,JUNGLE,HB,old,y,./images/JUNGLEHB.png,,,,,,,,,,,,,,,,,,,,,,
,,,,,,,,,,,,,,,,,199285,18,2022-01-25_21h16.10.365,lexical_decision_task_DD_L3,2021.2.3,Win32,59.59830741,,,,,,,,,,,0.7116,0,,,,,,,,,,,,,,m,0,0.7116,,,,,,,,0.000925939,-0.100000009,0,0,0,,0,3,3,28,1,FALCON,C,old,y,./images/FALCON.png,,,,,,,,,,,,,,,,,,,,,,
,,,,,,,,,,,,,,,,,199285,18,2022-01-25_21h16.10.365,lexical_decision_task_DD_L3,2021.2.3,Win32,59.59830741,,,,,,,,,,,1.3352,0,,,,,,,,,,,,,,z,0,1.3352,,,,,,,,0.000925939,-0.100000009,0,0,0,,0,4,4,160,1,VEETS,HB,old,n,./images/VEETSHB.png,,,,,,,,,,,,,,,,,,,,,,
,,,,,,,,,,,,,,,,,199285,18,2022-01-25_21h16.10.365,lexical_decision_task_DD_L3,2021.2.3,Win32,59.59830741,,,,,,,,,,,1.3549,0,,,,,,,,,,,,,,m,0,1.3549,,,,,,,,0.000925939,-0.100000009,0,0,0,,0,5,5,62,1,PURSE,HB,old,y,./images/PURSEHB.png,,,,,,,,,,,,,,,,,,,,,,
,,,,,,,,,,,,,,,,,199285,18,2022-01-25_21h16.10.365,lexical_decision_task_DD_L3,2021.2.3,Win32,59.59830741,,,,,,,,,,,0.7172,0,,,,,,,,,,,,,,m,0,0.7172,,,,,,,,0.000925939,-0.100000009,0,0,0,,0,6,6,63,1,MIRROR,LB,old,y,./images/MIRRORLB.png,,,,,,,,,,,,,,,,,,,,,,
,,,,,,,,,,,,,,,,,199285,18,2022-01-25_21h16.10.365,lexical_decision_task_DD_L3,2021.2.3,Win32,59.59830741,,,,,,,,,,,0.6598,0,,,,,,,,,,,,,,m,0,0.6598,,,,,,,,0.000925939,-0.100000009,0,0,0,,0,7,7,0,1,TOMATO,LB,old,y,./images/TOMATOLB.png,,,,,,,,,,,,,,,,,,,,,,
,,,,,,,,,,,,,,,,,199285,18,2022-01-25_21h16.10.365,lexical_decision_task_DD_L3,2021.2.3,Win32,59.59830741,,,,,,,,,,,0.8843,0,,,,,,,,,,,,,,m,0,0.8843,,,,,,,,0.000925939,-0.100000009,0,0,0,,0,8,8,58,1,BABOON,C,old,y,./images/BABOON.png,,,,,,,,,,,,,,,,,,,,,,
,,,,,,,,,,,,,,,,,199285,18,2022-01-25_21h16.10.365,lexical_decision_task_DD_L3,2021.2.3,Win32,59.59830741,,,,,,,,,,,0.4008,0,,,,,,,,,,,,,,m,0,0.4008,,,,,,,,0.000925939,-0.100000009,0,0,0,,0,9,9,66,1,SWEAT,LB,old,y,./images/SWEATLB.png,,,,,,,,,,,,,,,,,,,,,,
,,,,,,,,,,,,,,,,,199285,18,2022-01-25_21h16.10.365,lexical_decision_task_DD_L3,2021.2.3,Win32,59.59830741,,,,,,,,,,,0.9193,0,,,,,,,,,,,,,,z,0,0.9193,,,,,,,,0.000925939,-0.100000009,0,0,0,,0,10,10,116,1,BALGY,LB,old,n,./images/BALGYLB.png,,,,,,,,,,,,,,,,,,,,,,
,,,,,,,,,,,,,,,,,199285,18,2022-01-25_21h16.10.365,lexical_decision_task_DD_L3,2021.2.3,Win32,59.59830741,,,,,,,,,,,0.503,0,,,,,,,,,,,,,,m,0,0.503,,,,,,,,0.000925939,-0.100000009,0,0,0,,0,11,11,82,1,SUNSET,C,old,y,./images/SUNSET.png,,,,,,,,,,,,,,,,,,,,,,
,,,,,,,,,,,,,,,,,199285,18,2022-01-25_21h16.10.365,lexical_decision_task_DD_L3,2021.2.3,Win32,59.59830741,,,,,,,,,,,0.8068,0,,,,,,,,,,,,,,z,0,0.8068,,,,,,,,0.000925939,-0.100000009,0,0,0,,0,12,12,102,1,DULLE,C,old,n,./images/DULLE.png,,,,,,,,,,,,,,,,,,,,,,
,,,,,,,,,,,,,,,,,199285,18,2022-01-25_21h16.10.365,lexical_decision_task_DD_L3,2021.2.3,Win32,59.59830741,,,,,,,,,,,3.0689,0,,,,,,,,,,,,,,z,0,3.0689,,,,,,,,0.000925939,-0.100000009,0,0,0,,0,13,13,127,1,NINDY,HB,old,n,./images/NINDYHB.png,,,,,,,,,,,,,,,,,,,,,,
,,,,,,,,,,,,,,,,,199285,18,2022-01-25_21h16.10.365,lexical_decision_task_DD_L3,2021.2.3,Win32,59.59830741,,,,,,,,,,,1.0624,0,,,,,,,,,,,,,,m,0,1.0624,,,,,,,,0.000925939,-0.103703769,0,0,0,,0,14,14,78,1,LITTER,LB,old,y,./images/LITTERLB.png,,,,,,,,,,,,,,,,,,,,,,
,,,,,,,,,,,,,,,,,199285,18,2022-01-25_21h16.10.365,lexical_decision_task_DD_L3,2021.2.3,Win32,59.59830741,,,,,,,,,,,0.6755,0,,,,,,,,,,,,,,z,0,0.6755,,,,,,,,-0.003703691,-0.102777787,0,0,0,,0,15,15,117,1,STEEG,C,old,n,./images/STEEG.png,,,,,,,,,,,,,,,,,,,,,,
,,,,,,,,,,,,,,,,,199285,18,2022-01-25_21h16.10.365,lexical_decision_task_DD_L3,2021.2.3,Win32,59.59830741,,,,,,,,,,,0.7337,0,,,,,,,,,,,,,,m,0,0.7337,,,,,,,,-0.003703691,-0.102777787,0,0,0,,0,16,16,34,1,CANYON,C,old,y,./images/CANYON.png,,,,,,,,,,,,,,,,,,,,,,
,,,,,,,,,,,,,,,,,199285,18,2022-01-25_21h16.10.365,lexical_decision_task_DD_L3,2021.2.3,Win32,59.59830741,,,,,,,,,,,0.8589,0,,,,,,,,,,,,,,m,0,0.8589,,,,,,,,-0.003703691,-0.102777787,0,0,0,,0,17,17,15,1,GREASE,LB,old,y,./images/GREASELB.png,,,,,,,,,,,,,,,,,,,,,,
,,,,,,,,,,,,,,,,,199285,18,2022-01-25_21h16.10.365,lexical_decision_task_DD_L3,2021.2.3,Win32,59.59830741,,,,,,,,,,,0.8444,0,,,,,,,,,,,,,,m,0,0.8444,,,,,,,,-0.003703691,-0.102777787,0,0,0,,0,18,18,35,1,PEACH,HB,old,y,./images/PEACHHB.png,,,,,,,,,,,,,,,,,,,,,,
,,,,,,,,,,,,,,,,,199285,18,2022-01-25_21h16.10.365,lexical_decision_task_DD_L3,2021.2.3,Win32,59.59830741,,,,,,,,,,,0.5703,0,,,,,,,,,,,,,,m,0,0.5703,,,,,,,,-0.003703691,-0.102777787,0,0,0,,0,19,19,36,1,THROAT,LB,old,y,./images/THROATLB.png,,,,,,,,,,,,,,,,,,,,,,
,,,,,,,,,,,,,,,,,199285,18,2022-01-25_21h16.10.365,lexical_decision_task_DD_L3,2021.2.3,Win32,59.59830741,,,,,,,,,,,0.5689,0,,,,,,,,,,,,,,z,0,0.5689,,,,,,,,-0.003703691,-0.102777787,0,0,0,,0,20,20,96,1,KEAMS,C,old,n,./images/KEAMS.png,,,,,,,,,,,,,,,,,,,,,,
,,,,,,,,,,,,,,,,,199285,18,2022-01-25_21h16.10.365,lexical_decision_task_DD_L3,2021.2.3,Win32,59.59830741,,,,,,,,,,,0.8134,0,,,,,,,,,,,,,,z,0,0.8134,,,,,,,,-0.003703691,-0.102777787,0,0,0,,0,21,21,72,1,NOOSE,LB,old,y,./images/NOOSELB.png,,,,,,,,,,,,,,,,,,,,,,
,,,,,,,,,,,,,,,,,199285,18,2022-01-25_21h16.10.365,lexical_decision_task_DD_L3,2021.2.3,Win32,59.59830741,,,,,,,,,,,0.6677,0,,,,,,,,,,,,,,m,0,0.6677,,,,,,,,-0.003703691,-0.102777787,0,0,0,,0,22,22,113,1,LINEW,LB,old,n,./images/LINEWLB.png,,,,,,,,,,,,,,,,,,,,,,
,,,,,,,,,,,,,,,,,199285,18,2022-01-25_21h16.10.365,lexical_decision_task_DD_L3,2021.2.3,Win32,59.59830741,,,,,,,,,,,1.1797,0,,,,,,,,,,,,,,m,0,1.1797,,,,,,,,-0.003703691,-0.102777787,0,0,0,,0,23,23,26,1,SMOKER,HB,old,y,./images/SMOKERHB.png,,,,,,,,,,,,,,,,,,,,,,
,,,,,,,,,,,,,,,,,199285,18,2022-01-25_21h16.10.365,lexical_decision_task_DD_L3,2021.2.3,Win32,59.59830741,,,,,,,,,,,0.8774,0,,,,,,,,,,,,,,m,0,0.8774,,,,,,,,-0.003703691,-0.102777787,0,0,0,,0,24,24,99,1,BACKY,C,old,n,./images/BACKY.png,,,,,,,,,,,,,,,,,,,,,,
,,,,,,,,,,,,,,,,,199285,18,2022-01-25_21h16.10.365,lexical_decision_task_DD_L3,2021.2.3,Win32,59.59830741,,,,,,,,,,,0.6461,0,,,,,,,,,,,,,,z,0,0.6461,,,,,,,,-0.003703691,-0.102777787,0,0,0,,0,25,25,135,1,JOODY,C,old,n,./images/JOODY.png,,,,,,,,,,,,,,,,,,,,,,
,,,,,,,,,,,,,,,,,199285,18,2022-01-25_21h16.10.365,lexical_decision_task_DD_L3,2021.2.3,Win32,59.59830741,,,,,,,,,,,0.8467,0,,,,,,,,,,,,,,z,0,0.8467,,,,,,,,0.008333347,-0.104629639,0,0,0,,0,26,26,114,1,RIKES,C,old,n,./images/RIKES.png,,,,,,,,,,,,,,,,,,,,,,
,,,,,,,,,,,,,,,,,199285,18,2022-01-25_21h16.10.365,lexical_decision_task_DD_L3,2021.2.3,Win32,59.59830741,,,,,,,,,,,1.1112,0,,,,,,,,,,,,,,z,0,1.1112,,,,,,,,0.008333347,-0.104629639,0,0,0,,0,27,27,130,1,CRILL,HB,old,n,./images/CRILLHB.png,,,,,,,,,,,,,,,,,,,,,,
,,,,,,,,,,,,,,,,,199285,18,2022-01-25_21h16.10.365,lexical_decision_task_DD_L3,2021.2.3,Win32,59.59830741,,,,,,,,,,,0.7107,0,,,,,,,,,,,,,,z,0,0.7107,,,,,,,,0.008333347,-0.104629639,0,0,0,,0,28,28,87,1,TRING,C,old,n,./images/TRING.png,,,,,,,,,,,,,,,,,,,,,,
,,,,,,,,,,,,,,,,,199285,18,2022-01-25_21h16.10.365,lexical_decision_task_DD_L3,2021.2.3,Win32,59.59830741,,,,,,,,,,,0.7079,0,,,,,,,,,,,,,,z,0,0.7079,,,,,,,,0.008333347,-0.104629639,0,0,0,,0,29,29,33,1,MAGGOT,LB,old,y,./images/MAGGOTLB.png,,,,,,,,,,,,,,,,,,,,,,
,,,,,,,,,,,,,,,,,199285,18,2022-01-25_21h16.10.365,lexical_decision_task_DD_L3,2021.2.3,Win32,59.59830741,,,,,,,,,,,0.7306,0,,,,,,,,,,,,,,m,0,0.7306,,,,,,,,0.008333347,-0.104629639,0,0,0,,0,30,30,38,1,LADDER,HB,old,y,./images/LADDERHB.png,,,,,,,,,,,,,,,,,,,,,,
,,,,,,,,,,,,,,,,,199285,18,2022-01-25_21h16.10.365,lexical_decision_task_DD_L3,2021.2.3,Win32,59.59830741,,,,,,,,,,,1.2419,0,,,,,,,,,,,,,,z,0,1.2419,,,,,,,,0.008333347,-0.104629639,0,0,0,,0,31,31,107,1,FASKS,LB,old,n,./images/FASKSLB.png,,,,,,,,,,,,,,,,,,,,,,
,,,,,,,,,,,,,,,,,199285,18,2022-01-25_21h16.10.365,lexical_decision_task_DD_L3,2021.2.3,Win32,59.59830741,,,,,,,,,,,1.4254,0,,,,,,,,,,,,,,m,0,1.4254,,,,,,,,0.008333347,-0.104629639,0,0,0,,0,32,32,65,1,FARMER,HB,old,y,./images/FARMERHB.png,,,,,,,,,,,,,,,,,,,,,,
,,,,,,,,,,,,,,,,,199285,18,2022-01-25_21h16.10.365,lexical_decision_task_DD_L3,2021.2.3,Win32,59.59830741,,,,,,,,,,,0.9111,0,,,,,,,,,,,,,,z,0,0.9111,,,,,,,,0.008333347,-0.104629639,0,0,0,,0,33,33,152,1,FRAIN,LB,old,n,./images/FRAINLB.png,,,,,,,,,,,,,,,,,,,,,,
,,,,,,,,,,,,,,,,,199285,18,2022-01-25_21h16.10.365,lexical_decision_task_DD_L3,2021.2.3,Win32,59.59830741,,,,,,,,,,,0.5497,0,,,,,,,,,,,,,,m,0,0.5497,,,,,,,,0.008333347,-0.104629639,0,0,0,,0,34,34,30,1,STORM,LB,old,y,./images/STORMLB.png,,,,,,,,,,,,,,,,,,,,,,
,,,,,,,,,,,,,,,,,199285,18,2022-01-25_21h16.10.365,lexical_decision_task_DD_L3,2021.2.3,Win32,59.59830741,,,,,,,,,,,0.8344,0,,,,,,,,,,,,,,z,0,0.8344,,,,,,,,0.008333347,-0.104629639,0,0,0,,0,35,35,155,1,CANGY,LB,old,n,./images/CANGYLB.png,,,,,,,,,,,,,,,,,,,,,,
,,,,,,,,,,,,,,,,,199285,18,2022-01-25_21h16.10.365,lexical_decision_task_DD_L3,2021.2.3,Win32,59.59830741,,,,,,,,,,,0.6585,0,,,,,,,,,,,,,,m,0,0.6585,,,,,,,,0.008333347,-0.104629639,0,0,0,,0,36,36,70,1,URINE,C,old,y,./images/URINE.png,,,,,,,,,,,,,,,,,,,,,,
,,,,,,,,,,,,,,,,,199285,18,2022-01-25_21h16.10.365,lexical_decision_task_DD_L3,2021.2.3,Win32,59.59830741,,,,,,,,,,,0.5957,0,,,,,,,,,,,,,,m,0,0.5957,,,,,,,,0.008333347,-0.104629639,0,0,0,,0,37,37,71,1,PIMPLE,HB,old,y,./images/PIMPLEHB.png,,,,,,,,,,,,,,,,,,,,,,
,,,,,,,,,,,,,,,,,199285,18,2022-01-25_21h16.10.365,lexical_decision_task_DD_L3,2021.2.3,Win32,59.59830741,,,,,,,,,,,0.6186,0,,,,,,,,,,,,,,m,0,0.6186,,,,,,,,0.008333347,-0.104629639,0,0,0,,0,38,38,76,1,INFANT,C,old,y,./images/INFANT.png,,,,,,,,,,,,,,,,,,,,,,
,,,,,,,,,,,,,,,,,199285,18,2022-01-25_21h16.10.365,lexical_decision_task_DD_L3,2021.2.3,Win32,59.59830741,,,,,,,,,,,0.5128,0,,,,,,,,,,,,,,m,0,0.5128,,,,,,,,0.008333347,-0.104629639,0,0,0,,0,39,39,21,1,KIDNEY,LB,old,y,./images/KIDNEYLB.png,,,,,,,,,,,,,,,,,,,,,,
,,,,,,,,,,,,,,,,,199285,18,2022-01-25_21h16.10.365,lexical_decision_task_DD_L3,2021.2.3,Win32,59.59830741,,,,,,,,,,,0.4581,0,,,,,,,,,,,,,,m,0,0.4581,,,,,,,,0.008333347,-0.104629639,0,0,0,,0,40,40,19,1,DOUGH,C,old,y,./images/DOUGH.png,,,,,,,,,,,,,,,,,,,,,,
,,,,,,,,,,,,,,,,,199285,18,2022-01-25_21h16.10.365,lexical_decision_task_DD_L3,2021.2.3,Win32,59.59830741,,,,,,,,,,,0.5186,0,,,,,,,,,,,,,,m,0,0.5186,,,,,,,,0.008333347,-0.104629639,0,0,0,space,0,41,41,77,1,COUCH,HB,old,y,./images/COUCHHB.png,3.0943,,,,,,,,,,,,,,,,,,,,,
,,,,,,,,,,,,,,,,,199285,18,2022-01-25_21h16.10.365,lexical_decision_task_DD_L3,2021.2.3,Win32,59.59830741,,,,,,,,,,,0.8807,0,,,,,,,,,,,,,,m,0,0.8807,,,,,,,,0.008333347,-0.104629639,0,0,0,,0,42,42,23,1,WALRUS,HB,old,y,./images/WALRUSHB.png,,,,,,,,,,,,,,,,,,,,,,
,,,,,,,,,,,,,,,,,199285,18,2022-01-25_21h16.10.365,lexical_decision_task_DD_L3,2021.2.3,Win32,59.59830741,,,,,,,,,,,0.5181,0,,,,,,,,,,,,,,m,0,0.5181,,,,,,,,0.008333347,-0.104629639,0,0,0,,0,43,43,90,1,NEAST,C,old,n,./images/NEAST.png,,,,,,,,,,,,,,,,,,,,,,
,,,,,,,,,,,,,,,,,199285,18,2022-01-25_21h16.10.365,lexical_decision_task_DD_L3,2021.2.3,Win32,59.59830741,,,,,,,,,,,0.8335,0,,,,,,,,,,,,,,z,0,0.8335,,,,,,,,0.008333347,-0.104629639,0,0,0,,0,44,44,123,1,SEDGE,C,old,n,./images/SEDGE.png,,,,,,,,,,,,,,,,,,,,,,
,,,,,,,,,,,,,,,,,199285,18,2022-01-25_21h16.10.365,lexical_decision_task_DD_L3,2021.2.3,Win32,59.59830741,,,,,,,,,,,0.7581,0,,,,,,,,,,,,,,z,0,0.7581,,,,,,,,0.008333347,-0.104629639,0,0,0,,0,45,45,122,1,BLOOT,LB,old,n,./images/BLOOTLB.png,,,,,,,,,,,,,,,,,,,,,,
,,,,,,,,,,,,,,,,,199285,18,2022-01-25_21h16.10.365,lexical_decision_task_DD_L3,2021.2.3,Win32,59.59830741,,,,,,,,,,,0.6419,0,,,,,,,,,,,,,,z,0,0.6419,,,,,,,,0.008333347,-0.104629639,0,0,0,,0,46,46,143,1,MONGS,LB,old,n,./images/MONGSLB.png,,,,,,,,,,,,,,,,,,,,,,
,,,,,,,,,,,,,,,,,199285,18,2022-01-25_21h16.10.365,lexical_decision_task_DD_L3,2021.2.3,Win32,59.59830741,,,,,,,,,,,0.6121,0,,,,,,,,,,,,,,m,0,0.6121,,,,,,,,0.008333347,-0.104629639,0,0,0,,0,47,47,60,1,TWINS,LB,old,y,./images/TWINSLB.png,,,,,,,,,,,,,,,,,,,,,,
,,,,,,,,,,,,,,,,,199285,18,2022-01-25_21h16.10.365,lexical_decision_task_DD_L3,2021.2.3,Win32,59.59830741,,,,,,,,,,,1.0409,0,,,,,,,,,,,,,,m,0,1.0409,,,,,,,,0.008333347,-0.104629639,0,0,0,,0,48,48,32,1,BARREL,HB,old,y,./images/BARRELHB.png,,,,,,,,,,,,,,,,,,,,,,
,,,,,,,,,,,,,,,,,199285,18,2022-01-25_21h16.10.365,lexical_decision_task_DD_L3,2021.2.3,Win32,59.59830741,,,,,,,,,,,1.035,0,,,,,,,,,,,,,,m,0,1.035,,,,,,,,0.008333347,-0.104629639,0,0,0,,0,49,49,80,1,WEASEL,HB,old,y,./images/WEASELHB.png,,,,,,,,,,,,,,,,,,,,,,
,,,,,,,,,,,,,,,,,199285,18,2022-01-25_21h16.10.365,lexical_decision_task_DD_L3,2021.2.3,Win32,59.59830741,,,,,,,,,,,2.9368,0,,,,,,,,,,,,,,z,0,2.9368,,,,,,,,0.008333347,-0.104629639,0,0,0,,0,50,50,115,1,MAWNS,HB,old,n,./images/MAWNSHB.png,,,,,,,,,,,,,,,,,,,,,,
,,,,,,,,,,,,,,,,,199285,18,2022-01-25_21h16.10.365,lexical_decision_task_DD_L3,2021.2.3,Win32,59.59830741,,,,,,,,,,,0.6525,0,,,,,,,,,,,,,,z,0,0.6525,,,,,,,,0.008333347,-0.104629639,0,0,0,,0,51,51,86,1,AIFED,LB,old,n,./images/AIFEDLB.png,,,,,,,,,,,,,,,,,,,,,,
,,,,,,,,,,,,,,,,,199285,18,2022-01-25_21h16.10.365,lexical_decision_task_DD_L3,2021.2.3,Win32,59.59830741,,,,,,,,,,,0.9624,0,,,,,,,,,,,,,,m,0,0.9624,,,,,,,,0.008333347,-0.104629639,0,0,0,,0,52,52,85,1,CHULK,HB,old,n,./images/CHULKHB.png,,,,,,,,,,,,,,,,,,,,,,
,,,,,,,,,,,,,,,,,199285,18,2022-01-25_21h16.10.365,lexical_decision_task_DD_L3,2021.2.3,Win32,59.59830741,,,,,,,,,,,0.7361,0,,,,,,,,,,,,,,z,0,0.7361,,,,,,,,0.008333347,-0.104629639,0,0,0,,0,53,53,95,1,HANTY,LB,old,n,./images/HANTYLB.png,,,,,,,,,,,,,,,,,,,,,,
,,,,,,,,,,,,,,,,,199285,18,2022-01-25_21h16.10.365,lexical_decision_task_DD_L3,2021.2.3,Win32,59.59830741,,,,,,,,,,,0.898,0,,,,,,,,,,,,,,m,0,0.898,,,,,,,,0.008333347,-0.104629639,0,0,0,,0,54,54,14,1,PICKLE,HB,old,y,./images/PICKLEHB.png,,,,,,,,,,,,,,,,,,,,,,
,,,,,,,,,,,,,,,,,199285,18,2022-01-25_21h16.10.365,lexical_decision_task_DD_L3,2021.2.3,Win32,59.59830741,,,,,,,,,,,0.5968,0,,,,,,,,,,,,,,m,0,0.5968,,,,,,,,0.008333347,-0.104629639,0,0,0,,0,55,55,64,1,JELLY,C,old,y,./images/JELLY.png,,,,,,,,,,,,,,,,,,,,,,
,,,,,,,,,,,,,,,,,199285,18,2022-01-25_21h16.10.365,lexical_decision_task_DD_L3,2021.2.3,Win32,59.59830741,,,,,,,,,,,1.1732,0,,,,,,,,,,,,,,m,0,1.1732,,,,,,,,0.008333347,-0.104629639,0,0,0,,0,56,56,54,1,TRIPOD,LB,old,y,./images/TRIPODLB.png,,,,,,,,,,,,,,,,,,,,,,
,,,,,,,,,,,,,,,,,199285,18,2022-01-25_21h16.10.365,lexical_decision_task_DD_L3,2021.2.3,Win32,59.59830741,,,,,,,,,,,0.5918,0,,,,,,,,,,,,,,m,0,0.5918,,,,,,,,0.008333347,-0.104629639,0,0,0,,0,57,57,13,1,MOTOR,C,old,y,./images/MOTOR.png,,,,,,,,,,,,,,,,,,,,,,
,,,,,,,,,,,,,,,,,199285,18,2022-01-25_21h16.10.365,lexical_decision_task_DD_L3,2021.2.3,Win32,59.59830741,,,,,,,,,,,0.6186,0,,,,,,,,,,,,,,m,0,0.6186,,,,,,,,0.008333347,-0.104629639,0,0,0,,0,58,58,25,1,WRIST,C,old,y,./images/WRIST.png,,,,,,,,,,,,,,,,,,,,,,
,,,,,,,,,,,,,,,,,199285,18,2022-01-25_21h16.10.365,lexical_decision_task_DD_L3,2021.2.3,Win32,59.59830741,,,,,,,,,,,0.8009,0,,,,,,,,,,,,,,z,0,0.8009,,,,,,,,0.008333347,-0.104629639,0,0,0,,0,59,59,111,1,HOSSE,C,old,n,./images/HOSSE.png,,,,,,,,,,,,,,,,,,,,,,
,,,,,,,,,,,,,,,,,199285,18,2022-01-25_21h16.10.365,lexical_decision_task_DD_L3,2021.2.3,Win32,59.59830741,,,,,,,,,,,1.7187,0,,,,,,,,,,,,,,z,0,1.7187,,,,,,,,0.008333347,-0.104629639,0,0,0,,0,60,60,97,1,CHIDS,HB,old,n,./images/CHIDSHB.png,,,,,,,,,,,,,,,,,,,,,,
,,,,,,,,,,,,,,,,,199285,18,2022-01-25_21h16.10.365,lexical_decision_task_DD_L3,2021.2.3,Win32,59.59830741,,,,,,,,,,,1.2845,0,,,,,,,,,,,,,,m,0,1.2845,,,,,,,,0.008333347,-0.104629639,0,0,0,,0,61,61,109,1,BURGE,HB,old,n,./images/BURGEHB.png,,,,,,,,,,,,,,,,,,,,,,
,,,,,,,,,,,,,,,,,199285,18,2022-01-25_21h16.10.365,lexical_decision_task_DD_L3,2021.2.3,Win32,59.59830741,,,,,,,,,,,0.9255,0,,,,,,,,,,,,,,z,0,0.9255,,,,,,,,0.008333347,-0.104629639,0,0,0,,0,62,62,104,1,GITTY,LB,old,n,./images/GITTYLB.png,,,,,,,,,,,,,,,,,,,,,,
,,,,,,,,,,,,,,,,,199285,18,2022-01-25_21h16.10.365,lexical_decision_task_DD_L3,2021.2.3,Win32,59.59830741,,,,,,,,,,,0.5582,0,,,,,,,,,,,,,,z,0,0.5582,,,,,,,,0.008333347,-0.104629639,0,0,0,,0,63,63,126,1,GUELS,C,old,n,./images/GUELS.png,,,,,,,,,,,,,,,,,,,,,,
,,,,,,,,,,,,,,,,,199285,18,2022-01-25_21h16.10.365,lexical_decision_task_DD_L3,2021.2.3,Win32,59.59830741,,,,,,,,,,,1.305,0,,,,,,,,,,,,,,z,0,1.305,,,,,,,,0.008333347,-0.104629639,0,0,0,,0,64,64,129,1,PRANS,C,old,n,./images/PRANS.png,,,,,,,,,,,,,,,,,,,,,,
,,,,,,,,,,,,,,,,,199285,18,2022-01-25_21h16.10.365,lexical_decision_task_DD_L3,2021.2.3,Win32,59.59830741,,,,,,,,,,,1.1423,0,,,,,,,,,,,,,,m,0,1.1423,,,,,,,,0.008333347,-0.104629639,0,0,0,,0,65,65,2,1,BEARD,HB,old,y,./images/BEARDHB.png,,,,,,,,,,,,,,,,,,,,,,
,,,,,,,,,,,,,,,,,199285,18,2022-01-25_21h16.10.365,lexical_decision_task_DD_L3,2021.2.3,Win32,59.59830741,,,,,,,,,,,2.1131,0,,,,,,,,,,,,,,z,0,2.1131,,,,,,,,0.008333347,-0.104629639,0,0,0,,0,66,66,154,1,THINT,HB,old,n,./images/THINTHB.png,,,,,,,,,,,,,,,,,,,,,,
,,,,,,,,,,,,,,,,,199285,18,2022-01-25_21h16.10.365,lexical_decision_task_DD_L3,2021.2.3,Win32,59.59830741,,,,,,,,,,,1.2294,0,,,,,,,,,,,,,,z,0,1.2294,,,,,,,,0.008333347,-0.104629639,0,0,0,,0,67,67,94,1,BLANS,HB,old,n,./images/BLANSHB.png,,,,,,,,,,,,,,,,,,,,,,
,,,,,,,,,,,,,,,,,199285,18,2022-01-25_21h16.10.365,lexical_decision_task_DD_L3,2021.2.3,Win32,59.59830741,,,,,,,,,,,0.6503,0,,,,,,,,,,,,,,m,0,0.6503,,,,,,,,0.008333347,-0.104629639,0,0,0,,0,68,68,51,1,ONION,LB,old,y,./images/ONIONLB.png,,,,,,,,,,,,,,,,,,,,,,
,,,,,,,,,,,,,,,,,199285,18,2022-01-25_21h16.10.365,lexical_decision_task_DD_L3,2021.2.3,Win32,59.59830741,,,,,,,,,,,0.5282,0,,,,,,,,,,,,,,m,0,0.5282,,,,,,,,0.008333347,-0.104629639,0,0,0,,0,69,69,52,1,BANNER,C,old,y,./images/BANNER.png,,,,,,,,,,,,,,,,,,,,,,
,,,,,,,,,,,,,,,,,199285,18,2022-01-25_21h16.10.365,lexical_decision_task_DD_L3,2021.2.3,Win32,59.59830741,,,,,,,,,,,0.5466,0,,,,,,,,,,,,,,m,0,0.5466,,,,,,,,0.008333347,-0.104629639,0,0,0,,0,70,70,24,1,SCREW,LB,old,y,./images/SCREWLB.png,,,,,,,,,,,,,,,,,,,,,,
,,,,,,,,,,,,,,,,,199285,18,2022-01-25_21h16.10.365,lexical_decision_task_DD_L3,2021.2.3,Win32,59.59830741,,,,,,,,,,,0.6688,0,,,,,,,,,,,,,,z,0,0.6688,,,,,,,,0.008333347,-0.104629639,0,0,0,,0,71,71,153,1,CLUPS,C,old,n,./images/CLUPS.png,,,,,,,,,,,,,,,,,,,,,,
,,,,,,,,,,,,,,,,,199285,18,2022-01-25_21h16.10.365,lexical_decision_task_DD_L3,2021.2.3,Win32,59.59830741,,,,,,,,,,,0.6096,0,,,,,,,,,,,,,,z,0,0.6096,,,,,,,,0.008333347,-0.104629639,0,0,0,,0,72,72,131,1,NACES,LB,old,n,./images/NACESLB.png,,,,,,,,,,,,,,,,,,,,,,
,,,,,,,,,,,,,,,,,199285,18,2022-01-25_21h16.10.365,lexical_decision_task_DD_L3,2021.2.3,Win32,59.59830741,,,,,,,,,,,0.8358,0,,,,,,,,,,,,,,z,0,0.8358,,,,,,,,0.008333347,-0.104629639,0,0,0,,0,73,73,157,1,INLER,HB,old,n,./images/INLERHB.png,,,,,,,,,,,,,,,,,,,,,,
,,,,,,,,,,,,,,,,,199285,18,2022-01-25_21h16.10.365,lexical_decision_task_DD_L3,2021.2.3,Win32,59.59830741,,,,,,,,,,,0.8847,0,,,,,,,,,,,,,,z,0,0.8847,,,,,,,,0.008333347,-0.104629639,0,0,0,,0,74,74,124,1,TUNCH,HB,old,n,./images/TUNCHHB.png,,,,,,,,,,,,,,,,,,,,,,
,,,,,,,,,,,,,,,,,199285,18,2022-01-25_21h16.10.365,lexical_decision_task_DD_L3,2021.2.3,Win32,59.59830741,,,,,,,,,,,0.5933,0,,,,,,,,,,,,,,m,0,0.5933,,,,,,,,0.008333347,-0.104629639,0,0,0,,0,75,75,16,1,PENCE,C,old,y,./images/PENCE.png,,,,,,,,,,,,,,,,,,,,,,
,,,,,,,,,,,,,,,,,199285,18,2022-01-25_21h16.10.365,lexical_decision_task_DD_L3,2021.2.3,Win32,59.59830741,,,,,,,,,,,0.6711,0,,,,,,,,,,,,,,z,0,0.6711,,,,,,,,0.008333347,-0.104629639,0,0,0,,0,76,76,68,1,TORCH,HB,old,y,./images/TORCHHB.png,,,,,,,,,,,,,,,,,,,,,,
,,,,,,,,,,,,,,,,,199285,18,2022-01-25_21h16.10.365,lexical_decision_task_DD_L3,2021.2.3,Win32,59.59830741,,,,,,,,,,,0.5233,0,,,,,,,,,,,,,,m,0,0.5233,,,,,,,,0.008333347,-0.104629639,0,0,0,,0,77,77,81,1,POODLE,LB,old,y,./images/POODLELB.png,,,,,,,,,,,,,,,,,,,,,,
,,,,,,,,,,,,,,,,,199285,18,2022-01-25_21h16.10.365,lexical_decision_task_DD_L3,2021.2.3,Win32,59.59830741,,,,,,,,,,,1.0945,0,,,,,,,,,,,,,,m,0,1.0945,,,,,,,,0.008333347,-0.104629639,0,0,0,,0,78,78,8,1,TULIP,HB,old,y,./images/TULIPHB.png,,,,,,,,,,,,,,,,,,,,,,
,,,,,,,,,,,,,,,,,199285,18,2022-01-25_21h16.10.365,lexical_decision_task_DD_L3,2021.2.3,Win32,59.59830741,,,,,,,,,,,1.3367,0,,,,,,,,,,,,,,m,0,1.3367,,,,,,,,0.008333347,-0.104629639,0,0,0,,0,79,79,74,1,CEMENT,HB,old,y,./images/CEMENTHB.png,,,,,,,,,,,,,,,,,,,,,,
,,,,,,,,,,,,,,,,,199285,18,2022-01-25_21h16.10.365,lexical_decision_task_DD_L3,2021.2.3,Win32,59.59830741,,,,,,,,,,,0.5282,0,,,,,,,,,,,,,,m,0,0.5282,,,,,,,,0.008333347,-0.104629639,0,0,0,,0,80,80,22,1,MELON,C,old,y,./images/MELON.png,,,,,,,,,,,,,,,,,,,,,,
,,,,,,,,,,,,,,,,,199285,18,2022-01-25_21h16.10.365,lexical_decision_task_DD_L3,2021.2.3,Win32,59.59830741,,,,,,,,,,,0.9688,0,,,,,,,,,,,,,,m,0,0.9688,,,,,,,,0.008333347,-0.104629639,0,0,0,,0,81,81,100,1,DRIBS,HB,old,n,./images/DRIBSHB.png,,,,,,,,,,,,,,,,,,,,,,
,,,,,,,,,,,,,,,,,199285,18,2022-01-25_21h16.10.365,lexical_decision_task_DD_L3,2021.2.3,Win32,59.59830741,,,,,,,,,,,0.6524,0,,,,,,,,,,,,,,z,0,0.6524,,,,,,,,0.008333347,-0.104629639,0,0,0,,0,82,82,159,1,CUDDY,C,old,n,./images/CUDDY.png,,,,,,,,,,,,,,,,,,,,,,
,,,,,,,,,,,,,,,,,199285,18,2022-01-25_21h16.10.365,lexical_decision_task_DD_L3,2021.2.3,Win32,59.59830741,,,,,,,,,,,0.7672,0,,,,,,,,,,,,,,m,0,0.7672,,,,,,,,0.008333347,-0.104629639,0,0,0,space,0,83,83,27,1,ATTIC,LB,old,y,./images/ATTICLB.png,306.7025,,,,,,,,,,,,,,,,,,,,,
,,,,,,,,,,,,,,,,,199285,18,2022-01-25_21h16.10.365,lexical_decision_task_DD_L3,2021.2.3,Win32,59.59830741,,,,,,,,,,,3.0952,0,,,,,,,,,,,,,,m,0,3.0952,,,,,,,,0.008333347,-0.104629639,0,0,0,,0,84,84,17,1,SKIING,HB,old,y,./images/SKIINGHB.png,,,,,,,,,,,,,,,,,,,,,,
,,,,,,,,,,,,,,,,,199285,18,2022-01-25_21h16.10.365,lexical_decision_task_DD_L3,2021.2.3,Win32,59.59830741,,,,,,,,,,,1.2071,0,,,,,,,,,,,,,,z,0,1.2071,,,,,,,,0.008333347,-0.104629639,0,0,0,,0,85,85,162,1,LEICH,C,old,n,./images/LEICH.png,,,,,,,,,,,,,,,,,,,,,,
,,,,,,,,,,,,,,,,,199285,18,2022-01-25_21h16.10.365,lexical_decision_task_DD_L3,2021.2.3,Win32,59.59830741,,,,,,,,,,,0.578,0,,,,,,,,,,,,,,m,0,0.578,,,,,,,,0.008333347,-0.104629639,0,0,0,,0,86,86,18,1,JAGUAR,LB,old,y,./images/JAGUARLB.png,,,,,,,,,,,,,,,,,,,,,,
,,,,,,,,,,,,,,,,,199285,18,2022-01-25_21h16.10.365,lexical_decision_task_DD_L3,2021.2.3,Win32,59.59830741,,,,,,,,,,,0.7689,0,,,,,,,,,,,,,,z,0,0.7689,,,,,,,,0.008333347,-0.104629639,0,0,0,,0,87,87,119,1,PAFER,LB,old,n,./images/PAFERLB.png,,,,,,,,,,,,,,,,,,,,,,
,,,,,,,,,,,,,,,,,199285,18,2022-01-25_21h16.10.365,lexical_decision_task_DD_L3,2021.2.3,Win32,59.59830741,,,,,,,,,,,0.7843,0,,,,,,,,,,,,,,z,0,0.7843,,,,,,,,0.008333347,-0.104629639,0,0,0,,0,88,88,167,1,ZONET,LB,old,n,./images/ZONETLB.png,,,,,,,,,,,,,,,,,,,,,,
,,,,,,,,,,,,,,,,,199285,18,2022-01-25_21h16.10.365,lexical_decision_task_DD_L3,2021.2.3,Win32,59.59830741,,,,,,,,,,,1.7681,0,,,,,,,,,,,,,,z,0,1.7681,,,,,,,,0.008333347,-0.104629639,0,0,0,,0,89,89,132,1,SCIFF,C,old,n,./images/SCIFF.png,,,,,,,,,,,,,,,,,,,,,,
,,,,,,,,,,,,,,,,,199285,18,2022-01-25_21h16.10.365,lexical_decision_task_DD_L3,2021.2.3,Win32,59.59830741,,,,,,,,,,,0.8053,0,,,,,,,,,,,,,,z,0,0.8053,,,,,,,,0.008333347,-0.104629639,0,0,0,,0,90,90,156,1,HIXES,C,old,n,./images/HIXES.png,,,,,,,,,,,,,,,,,,,,,,
,,,,,,,,,,,,,,,,,199285,18,2022-01-25_21h16.10.365,lexical_decision_task_DD_L3,2021.2.3,Win32,59.59830741,,,,,,,,,,,0.6679,0,,,,,,,,,,,,,,m,0,0.6679,,,,,,,,0.008333347,-0.104629639,0,0,0,,0,91,91,73,1,SNACK,C,old,y,./images/SNACK.png,,,,,,,,,,,,,,,,,,,,,,
,,,,,,,,,,,,,,,,,199285,18,2022-01-25_21h16.10.365,lexical_decision_task_DD_L3,2021.2.3,Win32,59.59830741,,,,,,,,,,,0.7182,0,,,,,,,,,,,,,,z,0,0.7182,,,,,,,,0.008333347,-0.104629639,0,0,0,,0,92,92,125,1,MOOKY,LB,old,n,./images/MOOKYLB.png,,,,,,,,,,,,,,,,,,,,,,
,,,,,,,,,,,,,,,,,199285,18,2022-01-25_21h16.10.365,lexical_decision_task_DD_L3,2021.2.3,Win32,59.59830741,,,,,,,,,,,1.0476,0,,,,,,,,,,,,,,m,0,1.0476,,,,,,,,0.008333347,-0.104629639,0,0,0,,0,93,93,4,1,MUSCLE,C,old,y,./images/MUSCLE.png,,,,,,,,,,,,,,,,,,,,,,
,,,,,,,,,,,,,,,,,199285,18,2022-01-25_21h16.10.365,lexical_decision_task_DD_L3,2021.2.3,Win32,59.59830741,,,,,,,,,,,1.4872,0,,,,,,,,,,,,,,z,0,1.4872,,,,,,,,0.008333347,-0.104629639,0,0,0,,0,94,94,163,1,GAMBA,HB,old,n,./images/GAMBAHB.png,,,,,,,,,,,,,,,,,,,,,,
,,,,,,,,,,,,,,,,,199285,18,2022-01-25_21h16.10.365,lexical_decision_task_DD_L3,2021.2.3,Win32,59.59830741,,,,,,,,,,,0.6225,0,,,,,,,,,,,,,,z,0,0.6225,,,,,,,,0.008333347,-0.104629639,0,0,0,,0,95,95,141,1,PLEET,C,old,n,./images/PLEET.png,,,,,,,,,,,,,,,,,,,,,,
,,,,,,,,,,,,,,,,,199285,18,2022-01-25_21h16.10.365,lexical_decision_task_DD_L3,2021.2.3,Win32,59.59830741,,,,,,,,,,,0.6848,0,,,,,,,,,,,,,,z,0,0.6848,,,,,,,,0.008333347,-0.104629639,0,0,0,,0,96,96,150,1,NOOLS,C,old,n,./images/NOOLS.png,,,,,,,,,,,,,,,,,,,,,,
,,,,,,,,,,,,,,,,,199285,18,2022-01-25_21h16.10.365,lexical_decision_task_DD_L3,2021.2.3,Win32,59.59830741,,,,,,,,,,,0.9866,0,,,,,,,,,,,,,,z,0,0.9866,,,,,,,,0.008333347,-0.104629639,0,0,0,,0,97,97,118,1,BAVEL,HB,old,n,./images/BAVELHB.png,,,,,,,,,,,,,,,,,,,,,,
,,,,,,,,,,,,,,,,,199285,18,2022-01-25_21h16.10.365,lexical_decision_task_DD_L3,2021.2.3,Win32,59.59830741,,,,,,,,,,,0.6009,0,,,,,,,,,,,,,,m,0,0.6009,,,,,,,,0.008333347,-0.104629639,0,0,0,,0,98,98,69,1,COOKER,LB,old,y,./images/COOKERLB.png,,,,,,,,,,,,,,,,,,,,,,
,,,,,,,,,,,,,,,,,199285,18,2022-01-25_21h16.10.365,lexical_decision_task_DD_L3,2021.2.3,Win32,59.59830741,,,,,,,,,,,0.7013,0,,,,,,,,,,,,,,z,0,0.7013,,,,,,,,0.008333347,-0.104629639,0,0,0,,0,99,99,146,1,MOOST,LB,old,n,./images/MOOSTLB.png,,,,,,,,,,,,,,,,,,,,,,
,,,,,,,,,,,,,,,,,199285,18,2022-01-25_21h16.10.365,lexical_decision_task_DD_L3,2021.2.3,Win32,59.59830741,,,,,,,,,,,0.6864,0,,,,,,,,,,,,,,z,0,0.6864,,,,,,,,0.008333347,-0.104629639,0,0,0,,0,100,100,144,1,NAIRY,C,old,n,./images/NAIRY.png,,,,,,,,,,,,,,,,,,,,,,
,,,,,,,,,,,,,,,,,199285,18,2022-01-25_21h16.10.365,lexical_decision_task_DD_L3,2021.2.3,Win32,59.59830741,,,,,,,,,,,1.0919,0,,,,,,,,,,,,,,z,0,1.0919,,,,,,,,0.008333347,-0.104629639,0,0,0,,0,101,101,164,1,SGREW,LB,old,n,./images/SGREWLB.png,,,,,,,,,,,,,,,,,,,,,,
,,,,,,,,,,,,,,,,,199285,18,2022-01-25_21h16.10.365,lexical_decision_task_DD_L3,2021.2.3,Win32,59.59830741,,,,,,,,,,,0.763,0,,,,,,,,,,,,,,m,0,0.763,,,,,,,,0.008333347,-0.104629639,0,0,0,,0,102,102,67,1,SAILOR,C,old,y,./images/SAILOR.png,,,,,,,,,,,,,,,,,,,,,,
,,,,,,,,,,,,,,,,,199285,18,2022-01-25_21h16.10.365,lexical_decision_task_DD_L3,2021.2.3,Win32,59.59830741,,,,,,,,,,,0.6772,0,,,,,,,,,,,,,,z,0,0.6772,,,,,,,,0.008333347,-0.104629639,0,0,0,,0,103,103,120,1,RINED,C,old,n,./images/RINED.png,,,,,,,,,,,,,,,,,,,,,,
,,,,,,,,,,,,,,,,,199285,18,2022-01-25_21h16.10.365,lexical_decision_task_DD_L3,2021.2.3,Win32,59.59830741,,,,,,,,,,,0.9912,0,,,,,,,,,,,,,,m,0,0.9912,,,,,,,,0.008333347,-0.104629639,0,0,0,,0,104,104,46,1,PEARL,C,old,y,./images/PEARL.png,,,,,,,,,,,,,,,,,,,,,,
,,,,,,,,,,,,,,,,,199285,18,2022-01-25_21h16.10.365,lexical_decision_task_DD_L3,2021.2.3,Win32,59.59830741,,,,,,,,,,,0.8472,0,,,,,,,,,,,,,,z,0,0.8472,,,,,,,,0.008333347,-0.104629639,0,0,0,,0,105,105,92,1,PAIMS,LB,old,n,./images/PAIMSLB.png,,,,,,,,,,,,,,,,,,,,,,
,,,,,,,,,,,,,,,,,199285,18,2022-01-25_21h16.10.365,lexical_decision_task_DD_L3,2021.2.3,Win32,59.59830741,,,,,,,,,,,1.3527,0,,,,,,,,,,,,,,z,0,1.3527,,,,,,,,0.008333347,-0.104629639,0,0,0,,0,106,106,103,1,FLORT,HB,old,n,./images/FLORTHB.png,,,,,,,,,,,,,,,,,,,,,,
,,,,,,,,,,,,,,,,,199285,18,2022-01-25_21h16.10.365,lexical_decision_task_DD_L3,2021.2.3,Win32,59.59830741,,,,,,,,,,,0.6401,0,,,,,,,,,,,,,,z,0,0.6401,,,,,,,,0.008333347,-0.104629639,0,0,0,,0,107,107,108,1,GRUET,C,old,n,./images/GRUET.png,,,,,,,,,,,,,,,,,,,,,,
,,,,,,,,,,,,,,,,,199285,18,2022-01-25_21h16.10.365,lexical_decision_task_DD_L3,2021.2.3,Win32,59.59830741,,,,,,,,,,,0.7716,0,,,,,,,,,,,,,,z,0,0.7716,,,,,,,,0.008333347,-0.104629639,0,0,0,,0,108,108,20,1,CRADLE,HB,old,y,./images/CRADLEHB.png,,,,,,,,,,,,,,,,,,,,,,
,,,,,,,,,,,,,,,,,199285,18,2022-01-25_21h16.10.365,lexical_decision_task_DD_L3,2021.2.3,Win32,59.59830741,,,,,,,,,,,2.2907,0,,,,,,,,,,,,,,z,0,2.2907,,,,,,,,0.008333347,-0.104629639,0,0,0,,0,109,109,50,1,MALLET,HB,old,y,./images/MALLETHB.png,,,,,,,,,,,,,,,,,,,,,,
,,,,,,,,,,,,,,,,,199285,18,2022-01-25_21h16.10.365,lexical_decision_task_DD_L3,2021.2.3,Win32,59.59830741,,,,,,,,,,,0.6848,0,,,,,,,,,,,,,,m,0,0.6848,,,,,,,,0.008333347,-0.104629639,0,0,0,,0,110,110,39,1,SHELF,LB,old,y,./images/SHELFLB.png,,,,,,,,,,,,,,,,,,,,,,
,,,,,,,,,,,,,,,,,199285,18,2022-01-25_21h16.10.365,lexical_decision_task_DD_L3,2021.2.3,Win32,59.59830741,,,,,,,,,,,0.9482,0,,,,,,,,,,,,,,z,0,0.9482,,,,,,,,0.008333347,-0.104629639,0,0,0,,0,111,111,165,1,TROWN,C,old,n,./images/TROWN.png,,,,,,,,,,,,,,,,,,,,,,
,,,,,,,,,,,,,,,,,199285,18,2022-01-25_21h16.10.365,lexical_decision_task_DD_L3,2021.2.3,Win32,59.59830741,,,,,,,,,,,0.9178,0,,,,,,,,,,,,,,z,0,0.9178,,,,,,,,0.008333347,-0.104629639,0,0,0,,0,112,112,91,1,SHENS,HB,old,n,./images/SHENSHB.png,,,,,,,,,,,,,,,,,,,,,,
,,,,,,,,,,,,,,,,,199285,18,2022-01-25_21h16.10.365,lexical_decision_task_DD_L3,2021.2.3,Win32,59.59830741,,,,,,,,,,,0.7454,0,,,,,,,,,,,,,,z,0,0.7454,,,,,,,,0.008333347,-0.104629639,0,0,0,,0,113,113,136,1,WERVE,HB,old,n,./images/WERVEHB.png,,,,,,,,,,,,,,,,,,,,,,
,,,,,,,,,,,,,,,,,199285,18,2022-01-25_21h16.10.365,lexical_decision_task_DD_L3,2021.2.3,Win32,59.59830741,,,,,,,,,,,0.7856,0,,,,,,,,,,,,,,m,0,0.7856,,,,,,,,0.008333347,-0.104629639,0,0,0,,0,114,114,12,1,SHORE,LB,old,y,./images/SHORELB.png,,,,,,,,,,,,,,,,,,,,,,
,,,,,,,,,,,,,,,,,199285,18,2022-01-25_21h16.10.365,lexical_decision_task_DD_L3,2021.2.3,Win32,59.59830741,,,,,,,,,,,0.885,0,,,,,,,,,,,,,,z,0,0.885,,,,,,,,0.008333347,-0.104629639,0,0,0,,0,115,115,148,1,JOMS,HB,old,n,./images/JOMSHB.png,,,,,,,,,,,,,,,,,,,,,,
,,,,,,,,,,,,,,,,,199285,18,2022-01-25_21h16.10.365,lexical_decision_task_DD_L3,2021.2.3,Win32,59.59830741,,,,,,,,,,,0.6939,0,,,,,,,,,,,,,,m,0,0.6939,,,,,,,,0.008333347,-0.104629639,0,0,0,,0,116,116,9,1,RHINO,LB,old,y,./images/RHINOLB.png,,,,,,,,,,,,,,,,,,,,,,
,,,,,,,,,,,,,,,,,199285,18,2022-01-25_21h16.10.365,lexical_decision_task_DD_L3,2021.2.3,Win32,59.59830741,,,,,,,,,,,0.6676,0,,,,,,,,,,,,,,m,0,0.6676,,,,,,,,0.008333347,-0.104629639,0,0,0,,0,117,117,37,1,BIRTH,C,old,y,./images/BIRTH.png,,,,,,,,,,,,,,,,,,,,,,
,,,,,,,,,,,,,,,,,199285,18,2022-01-25_21h16.10.365,lexical_decision_task_DD_L3,2021.2.3,Win32,59.59830741,,,,,,,,,,,1.0708,0,,,,,,,,,,,,,,z,0,1.0708,,,,,,,,0.008333347,-0.104629639,0,0,0,,0,118,118,11,1,BONNET,HB,old,y,./images/BONNETHB.png,,,,,,,,,,,,,,,,,,,,,,
,,,,,,,,,,,,,,,,,199285,18,2022-01-25_21h16.10.365,lexical_decision_task_DD_L3,2021.2.3,Win32,59.59830741,,,,,,,,,,,0.5921,0,,,,,,,,,,,,,,m,0,0.5921,,,,,,,,0.008333347,-0.104629639,0,0,0,,0,119,119,61,1,CANDLE,C,old,y,./images/CANDLE.png,,,,,,,,,,,,,,,,,,,,,,
,,,,,,,,,,,,,,,,,199285,18,2022-01-25_21h16.10.365,lexical_decision_task_DD_L3,2021.2.3,Win32,59.59830741,,,,,,,,,,,0.5621,0,,,,,,,,,,,,,,m,0,0.5621,,,,,,,,0.008333347,-0.104629639,0,0,0,,0,120,120,48,1,SPORT,LB,old,y,./images/SPORTLB.png,,,,,,,,,,,,,,,,,,,,,,
,,,,,,,,,,,,,,,,,199285,18,2022-01-25_21h16.10.365,lexical_decision_task_DD_L3,2021.2.3,Win32,59.59830741,,,,,,,,,,,0.7344,0,,,,,,,,,,,,,,z,0,0.7344,,,,,,,,0.008333347,-0.104629639,0,0,0,,0,121,121,31,1,QUILL,C,old,y,./images/QUILL.png,,,,,,,,,,,,,,,,,,,,,,
,,,,,,,,,,,,,,,,,199285,18,2022-01-25_21h16.10.365,lexical_decision_task_DD_L3,2021.2.3,Win32,59.59830741,,,,,,,,,,,1.0361,0,,,,,,,,,,,,,,m,0,1.0361,,,,,,,,0.008333347,-0.104629639,0,0,0,,0,122,122,47,1,BERRY,HB,old,y,./images/BERRYHB.png,,,,,,,,,,,,,,,,,,,,,,
,,,,,,,,,,,,,,,,,199285,18,2022-01-25_21h16.10.365,lexical_decision_task_DD_L3,2021.2.3,Win32,59.59830741,,,,,,,,,,,0.8524,0,,,,,,,,,,,,,,m,0,0.8524,,,,,,,,0.008333347,-0.104629639,0,0,0,,0,123,123,57,1,MOOSE,LB,old,y,./images/MOOSELB.png,,,,,,,,,,,,,,,,,,,,,,
,,,,,,,,,,,,,,,,,199285,18,2022-01-25_21h16.10.365,lexical_decision_task_DD_L3,2021.2.3,Win32,59.59830741,,,,,,,,,,,0.6979,0,,,,,,,,,,,,,,z,0,0.6979,,,,,,,,0.008333347,-0.104629639,0,0,0,,0,124,124,101,1,GLEET,LB,old,n,./images/GLEETLB.png,,,,,,,,,,,,,,,,,,,,,,
,,,,,,,,,,,,,,,,,199285,18,2022-01-25_21h16.10.365,lexical_decision_task_DD_L3,2021.2.3,Win32,59.59830741,,,,,,,,,,,1.2047,0,,,,,,,,,,,,,,z,0,1.2047,,,,,,,,0.008333347,-0.104629639,0,0,0,space,0,125,125,112,1,MYING,HB,old,n,./images/MYINGHB.png,1.5595,,,,,,,,,,,,,,,,,,,,,
,,,,,,,,,,,,,,,,,199285,18,2022-01-25_21h16.10.365,lexical_decision_task_DD_L3,2021.2.3,Win32,59.59830741,,,,,,,,,,,0.6839,0,,,,,,,,,,,,,,z,0,0.6839,,,,,,,,0.008333347,-0.104629639,0,0,0,,0,126,126,89,1,DRIEK,LB,old,n,./images/DRIEKLB.png,,,,,,,,,,,,,,,,,,,,,,
,,,,,,,,,,,,,,,,,199285,18,2022-01-25_21h16.10.365,lexical_decision_task_DD_L3,2021.2.3,Win32,59.59830741,,,,,,,,,,,0.6782,0,,,,,,,,,,,,,,m,0,0.6782,,,,,,,,0.008333347,-0.104629639,0,0,0,,0,127,127,40,1,SWING,C,old,y,./images/SWING.png,,,,,,,,,,,,,,,,,,,,,,
,,,,,,,,,,,,,,,,,199285,18,2022-01-25_21h16.10.365,lexical_decision_task_DD_L3,2021.2.3,Win32,59.59830741,,,,,,,,,,,0.9863,0,,,,,,,,,,,,,,m,0,0.9863,,,,,,,,0.008333347,-0.104629639,0,0,0,,0,128,128,44,1,LIZARD,HB,old,y,./images/LIZARDHB.png,,,,,,,,,,,,,,,,,,,,,,
,,,,,,,,,,,,,,,,,199285,18,2022-01-25_21h16.10.365,lexical_decision_task_DD_L3,2021.2.3,Win32,59.59830741,,,,,,,,,,,0.7909,0,,,,,,,,,,,,,,z,0,0.7909,,,,,,,,0.008333347,-0.104629639,0,0,0,,0,129,129,134,1,TROSS,LB,old,n,./images/TROSSLB.png,,,,,,,,,,,,,,,,,,,,,,
,,,,,,,,,,,,,,,,,199285,18,2022-01-25_21h16.10.365,lexical_decision_task_DD_L3,2021.2.3,Win32,59.59830741,,,,,,,,,,,0.7051,0,,,,,,,,,,,,,,m,0,0.7051,,,,,,,,0.008333347,-0.104629639,0,0,0,,0,130,130,1,1,PLANK,C,old,y,./images/PLANK.png,,,,,,,,,,,,,,,,,,,,,,
,,,,,,,,,,,,,,,,,199285,18,2022-01-25_21h16.10.365,lexical_decision_task_DD_L3,2021.2.3,Win32,59.59830741,,,,,,,,,,,0.885,0,,,,,,,,,,,,,,m,0,0.885,,,,,,,,0.008333347,-0.104629639,0,0,0,,0,131,131,43,1,MOSQUE,C,old,y,./images/MOSQUE.png,,,,,,,,,,,,,,,,,,,,,,
,,,,,,,,,,,,,,,,,199285,18,2022-01-25_21h16.10.365,lexical_decision_task_DD_L3,2021.2.3,Win32,59.59830741,,,,,,,,,,,2.3252,0,,,,,,,,,,,,,,z,0,2.3252,,,,,,,,0.008333347,-0.104629639,0,0,0,,0,132,132,106,1,CLUMS,HB,old,n,./images/CLUMSHB.png,,,,,,,,,,,,,,,,,,,,,,
,,,,,,,,,,,,,,,,,199285,18,2022-01-25_21h16.10.365,lexical_decision_task_DD_L3,2021.2.3,Win32,59.59830741,,,,,,,,,,,0.652,0,,,,,,,,,,,,,,z,0,0.652,,,,,,,,0.008333347,-0.104629639,0,0,0,,0,133,133,128,1,GRIFT,LB,old,n,./images/GRIFTLB.png,,,,,,,,,,,,,,,,,,,,,,
,,,,,,,,,,,,,,,,,199285,18,2022-01-25_21h16.10.365,lexical_decision_task_DD_L3,2021.2.3,Win32,59.59830741,,,,,,,,,,,0.5748,0,,,,,,,,,,,,,,z,0,0.5748,,,,,,,,0.008333347,-0.104629639,0,0,0,,0,134,134,149,1,VEASE,LB,old,n,./images/VEASELB.png,,,,,,,,,,,,,,,,,,,,,,
,,,,,,,,,,,,,,,,,199285,18,2022-01-25_21h16.10.365,lexical_decision_task_DD_L3,2021.2.3,Win32,59.59830741,,,,,,,,,,,0.9027,0,,,,,,,,,,,,,,m,0,0.9027,,,,,,,,0.008333347,-0.104629639,0,0,0,,0,135,135,53,1,CARPET,HB,old,y,./images/CARPETHB.png,,,,,,,,,,,,,,,,,,,,,,
,,,,,,,,,,,,,,,,,199285,18,2022-01-25_21h16.10.365,lexical_decision_task_DD_L3,2021.2.3,Win32,59.59830741,,,,,,,,,,,1.2957,0,,,,,,,,,,,,,,m,0,1.2957,,,,,,,,0.008333347,-0.104629639,0,0,0,,0,136,136,142,1,PLASK,HB,old,n,./images/PLASKHB.png,,,,,,,,,,,,,,,,,,,,,,
,,,,,,,,,,,,,,,,,199285,18,2022-01-25_21h16.10.365,lexical_decision_task_DD_L3,2021.2.3,Win32,59.59830741,,,,,,,,,,,0.5939,0,,,,,,,,,,,,,,z,0,0.5939,,,,,,,,0.008333347,-0.104629639,0,0,0,,0,137,137,137,1,JOOST,LB,old,n,./images/JOOSTLB.png,,,,,,,,,,,,,,,,,,,,,,
,,,,,,,,,,,,,,,,,199285,18,2022-01-25_21h16.10.365,lexical_decision_task_DD_L3,2021.2.3,Win32,59.59830741,,,,,,,,,,,0.9276,0,,,,,,,,,,,,,,m,0,0.9276,,,,,,,,0.008333347,-0.104629639,0,0,0,,0,138,138,75,1,GRAIN,LB,old,y,./images/GRAINLB.png,,,,,,,,,,,,,,,,,,,,,,
,,,,,,,,,,,,,,,,,199285,18,2022-01-25_21h16.10.365,lexical_decision_task_DD_L3,2021.2.3,Win32,59.59830741,,,,,,,,,,,1.0746,0,,,,,,,,,,,,,,m,0,1.0746,,,,,,,,0.008333347,-0.104629639,0,0,0,,0,139,139,56,1,PACKET,HB,old,y,./images/PACKETHB.png,,,,,,,,,,,,,,,,,,,,,,
,,,,,,,,,,,,,,,,,199285,18,2022-01-25_21h16.10.365,lexical_decision_task_DD_L3,2021.2.3,Win32,59.59830741,,,,,,,,,,,0.6045,0,,,,,,,,,,,,,,z,0,0.6045,,,,,,,,0.008333347,-0.104629639,0,0,0,,0,140,140,161,1,BLAPS,LB,old,n,./images/BLAPSLB.png,,,,,,,,,,,,,,,,,,,,,,
,,,,,,,,,,,,,,,,,199285,18,2022-01-25_21h16.10.365,lexical_decision_task_DD_L3,2021.2.3,Win32,59.59830741,,,,,,,,,,,0.6869,0,,,,,,,,,,,,,,z,0,0.6869,,,,,,,,0.008333347,-0.104629639,0,0,0,,0,141,141,140,1,DOVET,LB,old,n,./images/DOVETLB.png,,,,,,,,,,,,,,,,,,,,,,
,,,,,,,,,,,,,,,,,199285,18,2022-01-25_21h16.10.365,lexical_decision_task_DD_L3,2021.2.3,Win32,59.59830741,,,,,,,,,,,0.5737,0,,,,,,,,,,,,,,z,0,0.5737,,,,,,,,0.008333347,-0.104629639,0,0,0,,0,142,142,79,1,CRUST,C,old,y,./images/CRUST.png,,,,,,,,,,,,,,,,,,,,,,
,,,,,,,,,,,,,,,,,199285,18,2022-01-25_21h16.10.365,lexical_decision_task_DD_L3,2021.2.3,Win32,59.59830741,,,,,,,,,,,0.8353,0,,,,,,,,,,,,,,z,0,0.8353,,,,,,,,0.008333347,-0.104629639,0,0,0,,0,143,143,105,1,MOKER,C,old,n,./images/MOKER.png,,,,,,,,,,,,,,,,,,,,,,
,,,,,,,,,,,,,,,,,199285,18,2022-01-25_21h16.10.365,lexical_decision_task_DD_L3,2021.2.3,Win32,59.59830741,,,,,,,,,,,1.1458,0,,,,,,,,,,,,,,z,0,1.1458,,,,,,,,0.008333347,-0.104629639,0,0,0,,0,144,144,88,1,GLUSH,HB,old,n,./images/GLUSHHB.png,,,,,,,,,,,,,,,,,,,,,,
,,,,,,,,,,,,,,,,,199285,18,2022-01-25_21h16.10.365,lexical_decision_task_DD_L3,2021.2.3,Win32,59.59830741,,,,,,,,,,,6.6067,0,,,,,,,,,,,,,,z,0,6.6067,,,,,,,,0.008333347,-0.104629639,0,0,0,,0,145,145,145,1,LAMEL,HB,old,n,./images/LAMELHB.png,,,,,,,,,,,,,,,,,,,,,,
,,,,,,,,,,,,,,,,,199285,18,2022-01-25_21h16.10.365,lexical_decision_task_DD_L3,2021.2.3,Win32,59.59830741,,,,,,,,,,,1.384,0,,,,,,,,,,,,,,m,0,1.384,,,,,,,,0.008333347,-0.104629639,0,0,0,,0,146,146,41,1,STRING,HB,old,y,./images/STRINGHB.png,,,,,,,,,,,,,,,,,,,,,,
,,,,,,,,,,,,,,,,,199285,18,2022-01-25_21h16.10.365,lexical_decision_task_DD_L3,2021.2.3,Win32,59.59830741,,,,,,,,,,,2.5606,0,,,,,,,,,,,,,,z,0,2.5606,,,,,,,,0.008333347,-0.104629639,0,0,0,,0,147,147,166,1,SHORY,HB,old,n,./images/SHORYHB.png,,,,,,,,,,,,,,,,,,,,,,
,,,,,,,,,,,,,,,,,199285,18,2022-01-25_21h16.10.365,lexical_decision_task_DD_L3,2021.2.3,Win32,59.59830741,,,,,,,,,,,0.7368,0,,,,,,,,,,,,,,z,0,0.7368,,,,,,,,0.008333347,-0.104629639,0,0,0,,0,148,148,110,1,CRUNK,LB,old,n,./images/CRUNKLB.png,,,,,,,,,,,,,,,,,,,,,,
,,,,,,,,,,,,,,,,,199285,18,2022-01-25_21h16.10.365,lexical_decision_task_DD_L3,2021.2.3,Win32,59.59830741,,,,,,,,,,,1.0837,0,,,,,,,,,,,,,,z,0,1.0837,,,,,,,,0.008333347,-0.104629639,0,0,0,,0,149,149,98,1,BAMPS,LB,old,n,./images/BAMPSLB.png,,,,,,,,,,,,,,,,,,,,,,
,,,,,,,,,,,,,,,,,199285,18,2022-01-25_21h16.10.365,lexical_decision_task_DD_L3,2021.2.3,Win32,59.59830741,,,,,,,,,,,0.6416,0,,,,,,,,,,,,,,m,0,0.6416,,,,,,,,0.008333347,-0.104629639,0,0,0,,0,150,150,10,1,BELLY,C,old,y,./images/BELLY.png,,,,,,,,,,,,,,,,,,,,,,
,,,,,,,,,,,,,,,,,199285,18,2022-01-25_21h16.10.365,lexical_decision_task_DD_L3,2021.2.3,Win32,59.59830741,,,,,,,,,,,1.6913,0,,,,,,,,,,,,,,z,0,1.6913,,,,,,,,0.008333347,-0.104629639,0,0,0,,0,151,151,151,1,TINKY,HB,old,n,./images/TINKYHB.png,,,,,,,,,,,,,,,,,,,,,,
,,,,,,,,,,,,,,,,,199285,18,2022-01-25_21h16.10.365,lexical_decision_task_DD_L3,2021.2.3,Win32,59.59830741,,,,,,,,,,,2.7569,0,,,,,,,,,,,,,,z,0,2.7569,,,,,,,,0.008333347,-0.104629639,0,0,0,,0,152,152,133,1,POWDY,HB,old,n,./images/POWDYHB.png,,,,,,,,,,,,,,,,,,,,,,
,,,,,,,,,,,,,,,,,199285,18,2022-01-25_21h16.10.365,lexical_decision_task_DD_L3,2021.2.3,Win32,59.59830741,,,,,,,,,,,2.1415,0,,,,,,,,,,,,,,m,0,2.1415,,,,,,,,0.008333347,-0.104629639,0,0,0,,0,153,153,6,1,SQUARE,LB,old,y,./images/SQUARELB.png,,,,,,,,,,,,,,,,,,,,,,
,,,,,,,,,,,,,,,,,199285,18,2022-01-25_21h16.10.365,lexical_decision_task_DD_L3,2021.2.3,Win32,59.59830741,,,,,,,,,,,0.6381,0,,,,,,,,,,,,,,z,0,0.6381,,,,,,,,0.008333347,-0.104629639,0,0,0,,0,154,154,158,1,EGECT,LB,old,n,./images/EGECTLB.png,,,,,,,,,,,,,,,,,,,,,,
,,,,,,,,,,,,,,,,,199285,18,2022-01-25_21h16.10.365,lexical_decision_task_DD_L3,2021.2.3,Win32,59.59830741,,,,,,,,,,,0.6181,0,,,,,,,,,,,,,,m,0,0.6181,,,,,,,,0.008333347,-0.104629639,0,0,0,,0,155,155,55,1,MUFFIN,C,old,y,./images/MUFFIN.png,,,,,,,,,,,,,,,,,,,,,,
,,,,,,,,,,,,,,,,,199285,18,2022-01-25_21h16.10.365,lexical_decision_task_DD_L3,2021.2.3,Win32,59.59830741,,,,,,,,,,,0.6681,0,,,,,,,,,,,,,,m,0,0.6681,,,,,,,,0.008333347,-0.104629639,0,0,0,,0,156,156,49,1,DRUMS,C,old,y,./images/DRUMS.png,,,,,,,,,,,,,,,,,,,,,,
,,,,,,,,,,,,,,,,,199285,18,2022-01-25_21h16.10.365,lexical_decision_task_DD_L3,2021.2.3,Win32,59.59830741,,,,,,,,,,,0.5776,0,,,,,,,,,,,,,,m,0,0.5776,,,,,,,,0.008333347,-0.104629639,0,0,0,,0,157,157,45,1,KITTEN,LB,old,y,./images/KITTENLB.png,,,,,,,,,,,,,,,,,,,,,,
,,,,,,,,,,,,,,,,,199285,18,2022-01-25_21h16.10.365,lexical_decision_task_DD_L3,2021.2.3,Win32,59.59830741,,,,,,,,,,,1.2245,0,,,,,,,,,,,,,,z,0,1.2245,,,,,,,,0.008333347,-0.104629639,0,0,0,,0,158,158,139,1,BLEAR,HB,old,n,./images/BLEARHB.png,,,,,,,,,,,,,,,,,,,,,,
,,,,,,,,,,,,,,,,,199285,18,2022-01-25_21h16.10.365,lexical_decision_task_DD_L3,2021.2.3,Win32,59.59830741,,,,,,,,,,,0.7942,0,,,,,,,,,,,,,,z,0,0.7942,,,,,,,,0.008333347,-0.104629639,0,0,0,,0,159,159,138,1,PLICE,C,old,n,./images/PLICE.png,,,,,,,,,,,,,,,,,,,,,,
,,,,,,,,,,,,,,,,,199285,18,2022-01-25_21h16.10.365,lexical_decision_task_DD_L3,2021.2.3,Win32,59.59830741,,,,,,,,,,,0.5806,0,,,,,,,,,,,,,,m,0,0.5806,,,,,,,,0.008333347,-0.104629639,0,0,0,,0,160,160,42,1,FOLDER,LB,old,y,./images/FOLDERLB.png,,,,,,,,,,,,,,,,,,,,,,
,,,,,,,,,,,,,,,,,199285,18,2022-01-25_21h16.10.365,lexical_decision_task_DD_L3,2021.2.3,Win32,59.59830741,,,,,,,,,,,0.5866,0,,,,,,,,,,,,,,m,0,0.5866,,,,,,,,0.008333347,-0.104629639,0,0,0,,0,161,161,3,1,FINGER,LB,old,y,./images/FINGERLB.png,,,,,,,,,,,,,,,,,,,,,,
,,,,,,,,,,,,,,,,,199285,18,2022-01-25_21h16.10.365,lexical_decision_task_DD_L3,2021.2.3,Win32,59.59830741,,,,,,,,,,,1.2007,0,,,,,,,,,,,,,,z,0,1.2007,,,,,,,,0.008333347,-0.104629639,0,0,0,,0,162,162,121,1,CEERS,HB,old,n,./images/CEERSHB.png,,,,,,,,,,,,,,,,,,,,,,
,,,,,,,,,,,,,,,,,199285,18,2022-01-25_21h16.10.365,lexical_decision_task_DD_L3,2021.2.3,Win32,59.59830741,,,,,,,,,,,1.379,0,,,,,,,,,,,,,,z,0,1.379,,,,,,,,0.008333347,-0.104629639,0,0,0,,0,163,163,59,1,BURIAL,HB,old,y,./images/BURIALHB.png,,,,,,,,,,,,,,,,,,,,,,
,,,,,,,,,,,,,,,,,199285,18,2022-01-25_21h16.10.365,lexical_decision_task_DD_L3,2021.2.3,Win32,59.59830741,,,,,,,,,,,0.5884,0,,,,,,,,,,,,,,z,0,0.5884,,,,,,,,0.008333347,-0.104629639,0,0,0,,0,164,164,147,1,ZOLES,C,old,n,./images/ZOLES.png,,,,,,,,,,,,,,,,,,,,,,
,,,,,,,,,,,,,,,,,199285,18,2022-01-25_21h16.10.365,lexical_decision_task_DD_L3,2021.2.3,Win32,59.59830741,,,,,,,,,,,0.7212,0,,,,,,,,,,,,,,m,0,0.7212,,,,,,,,0.008333347,-0.104629639,0,0,0,,0,165,165,7,1,PAINT,C,old,y,./images/PAINT.png,,,,,,,,,,,,,,,,,,,,,,
,,,,,,,,,,,,,,,,,199285,18,2022-01-25_21h16.10.365,lexical_decision_task_DD_L3,2021.2.3,Win32,59.59830741,,,,,,,,,,,0.7135,0,,,,,,,,,,,,,,z,0,0.7135,,,,,,,,0.008333347,-0.104629639,0,0,0,,0,166,166,93,1,SMONE,C,old,n,./images/SMONE.png,,,,,,,,,,,,,,,,,,,,,,
,,,,,,,,,,,,,,,,,199285,18,2022-01-25_21h16.10.365,lexical_decision_task_DD_L3,2021.2.3,Win32,59.59830741,,,,,,,,,,,0.7724,0,,,,,,,,,,,,,,m,0,0.7724,,,,,,,,0.008333347,-0.104629639,0,0,0,,0,167,167,5,1,PASTA,HB,old,y,./images/PASTAHB.png,,,,,,,,,,,,,,,,,,,,,,
space,2.256,0.008333347,-0.104629639,0,0,0,,,,,,1,test,"In the next phase you will be presented with the words from the the first phase. Your job is to decide whether you remember seeing the word or not. If you remember seeing the word press ""old"" or type ""m"". If you do not remember seeing the word press ""new"" or type ""z"". Please press the space bar or click on continue to begin. ",,,199285,18,2022-01-25_21h16.10.365,lexical_decision_task_DD_L3,2021.2.3,Win32,59.59830741,,,,,,,,,,,,,,,,,,,,,,,,,,,,,,,,,,,,,,,,,,,,,,,,,,,,,0,0,0,0,1,,,,,,,,,,,,,,,,
space,1.1108,0.008333347,-0.104629639,0,0,0,,,,,,1,test,"In the next phase you will be presented with the words from the the first phase. Your job is to decide whether you remember seeing the word or not. If you remember seeing the word press ""old"" or type ""m"". If you do not remember seeing the word press ""new"" or type ""z"". Please press the space bar or click on continue to begin. ",,,199285,18,2022-01-25_21h16.10.365,lexical_decision_task_DD_L3,2021.2.3,Win32,59.59830741,,,,,,,,,,,,,,,,,,,,,,,,,,,,,,,,,,,,,,,,,,,,,,,,,,,,,1,0,1,0,1,,,,,,,,,,,,,,,,
space,2.1914,-0.014814802,-0.32777779,0,0,0,,,,,,1,test,"In the next phase you will be presented with the words from the the first phase. Your job is to decide whether you remember seeing the word or not. If you remember seeing the word press ""old"" or type ""m"". If you do not remember seeing the word press ""new"" or type ""z"". Please press the space bar or click on continue to begin. ",,,199285,18,2022-01-25_21h16.10.365,lexical_decision_task_DD_L3,2021.2.3,Win32,59.59830741,,,,,,,,,,,,,,,,,,,,,,,,,,,,,,,,,,,,,,,,,,,,,,,,,,,,,2,0,2,0,1,,,,,,,,,,,,,,,,
space,12.9469,-0.014814802,-0.32777779,0,0,0,,,,,,1,test,"In the next phase you will be presented with the words from the the first phase. Your job is to decide whether you remember seeing the word or not. If you remember seeing the word press ""old"" or type ""m"". If you do not remember seeing the word press ""new"" or type ""z"". Please press the space bar or click on continue to begin. ",,,199285,18,2022-01-25_21h16.10.365,lexical_decision_task_DD_L3,2021.2.3,Win32,59.59830741,,,,,,,,,,,,,,,,,,,,,,,,,,,,,,,,,,,,,,,,,,,,,,,,,,,,,3,0,3,0,1,,,,,,,,,,,,,,,,
,,-0.010185172,-0.437962977,1,0,0,,,,,,1,test,"In the next phase you will be presented with the words from the the first phase. Your job is to decide whether you remember seeing the word or not. If you remember seeing the word press ""old"" or type ""m"". If you do not remember seeing the word press ""new"" or type ""z"". Please press the space bar or click on continue to begin. ",,,199285,18,2022-01-25_21h16.10.365,lexical_decision_task_DD_L3,2021.2.3,Win32,59.59830741,,,,,,,,,,,,,,,,,,,,,,,,,,,,,,,,,,,,,,,,,,,,,,,,,,,,,4,0,4,0,1,instr_done_button,,,,,,,,,,,,,,,
,,,,,,,,,,,,,,,,,199285,18,2022-01-25_21h16.10.365,lexical_decision_task_DD_L3,2021.2.3,Win32,59.59830741,,,,,,,,,,,8.1272,0,,,,,,,,,,,,,,,,,,,,,,,,-0.010185172,-0.437962977,0,0,0,,,,,,,BAKER,LB,new,y,./images/BAKERLB.png,,,,,,,,m,0,8.1272,,,,,,,,0,0,0,147,1
,,,,,,,,,,,,,,,,,199285,18,2022-01-25_21h16.10.365,lexical_decision_task_DD_L3,2021.2.3,Win32,59.59830741,,,,,,,,,,,3.4031,0,,,,,,,,,,,,,,,,,,,,,,,,-0.010185172,-0.437962977,0,0,0,,,,,,,BOILER,LB,new,y,./images/BOILERLB.png,,,,,,,,m,0,3.4031,,,,,,,,0,1,1,120,1
,,,,,,,,,,,,,,,,,199285,18,2022-01-25_21h16.10.365,lexical_decision_task_DD_L3,2021.2.3,Win32,59.59830741,,,,,,,,,,,2.1385,0,,,,,,,,,,,,,,,,,,,,,,,,-0.010185172,-0.437962977,0,0,0,,,,,,,CANDLE,C,old,y,./images/CANDLE.png,,,,,,,,m,0,2.1385,,,,,,,,0,2,2,61,1
,,,,,,,,,,,,,,,,,199285,18,2022-01-25_21h16.10.365,lexical_decision_task_DD_L3,2021.2.3,Win32,59.59830741,,,,,,,,,,,0.6671,0,,,,,,,,,,,,,,,,,,,,,,,,-0.010185172,-0.437962977,0,0,0,,,,,,,WALRUS,HB,old,y,./images/WALRUSHB.png,,,,,,,,m,0,0.6671,,,,,,,,0,3,3,23,1
,,,,,,,,,,,,,,,,,199285,18,2022-01-25_21h16.10.365,lexical_decision_task_DD_L3,2021.2.3,Win32,59.59830741,,,,,,,,,,,1.3374,0,,,,,,,,,,,,,,,,,,,,,,,,-0.010185172,-0.437962977,0,0,0,,,,,,,GLOVE,C,new,y,./images/GLOVE.png,,,,,,,,m,0,1.3374,,,,,,,,0,4,4,157,1
,,,,,,,,,,,,,,,,,199285,18,2022-01-25_21h16.10.365,lexical_decision_task_DD_L3,2021.2.3,Win32,59.59830741,,,,,,,,,,,0.568,0,,,,,,,,,,,,,,,,,,,,,,,,-0.010185172,-0.437962977,0,0,0,,,,,,,KITTEN,LB,old,y,./images/KITTENLB.png,,,,,,,,m,0,0.568,,,,,,,,0,5,5,45,1
,,,,,,,,,,,,,,,,,199285,18,2022-01-25_21h16.10.365,lexical_decision_task_DD_L3,2021.2.3,Win32,59.59830741,,,,,,,,,,,0.5508,0,,,,,,,,,,,,,,,,,,,,,,,,-0.010185172,-0.437962977,0,0,0,,,,,,,THROAT,LB,old,y,./images/THROATLB.png,,,,,,,,m,0,0.5508,,,,,,,,0,6,6,36,1
,,,,,,,,,,,,,,,,,199285,18,2022-01-25_21h16.10.365,lexical_decision_task_DD_L3,2021.2.3,Win32,59.59830741,,,,,,,,,,,0.538,0,,,,,,,,,,,,,,,,,,,,,,,,-0.010185172,-0.437962977,0,0,0,,,,,,,WALNUT,LB,new,y,./images/WALNUTLB.png,,,,,,,,m,0,0.538,,,,,,,,0,7,7,84,1
,,,,,,,,,,,,,,,,,199285,18,2022-01-25_21h16.10.365,lexical_decision_task_DD_L3,2021.2.3,Win32,59.59830741,,,,,,,,,,,0.6793,0,,,,,,,,,,,,,,,,,,,,,,,,-0.010185172,-0.437962977,0,0,0,,,,,,,STOVE,HB,new,y,./images/STOVEHB.png,,,,,,,,m,0,0.6793,,,,,,,,0,8,8,86,1
,,,,,,,,,,,,,,,,,199285,18,2022-01-25_21h16.10.365,lexical_decision_task_DD_L3,2021.2.3,Win32,59.59830741,,,,,,,,,,,0.7413,0,,,,,,,,,,,,,,,,,,,,,,,,-0.010185172,-0.437962977,0,0,0,,,,,,,SAUNA,LB,new,y,./images/SAUNALB.png,,,,,,,,z,0,0.7413,,,,,,,,0,9,9,117,1
,,,,,,,,,,,,,,,,,199285,18,2022-01-25_21h16.10.365,lexical_decision_task_DD_L3,2021.2.3,Win32,59.59830741,,,,,,,,,,,0.7907,0,,,,,,,,,,,,,,,,,,,,,,,,-0.010185172,-0.437962977,0,0,0,,,,,,,SNACK,C,old,y,./images/SNACK.png,,,,,,,,m,0,0.7907,,,,,,,,0,10,10,73,1
,,,,,,,,,,,,,,,,,199285,18,2022-01-25_21h16.10.365,lexical_decision_task_DD_L3,2021.2.3,Win32,59.59830741,,,,,,,,,,,0.7886,0,,,,,,,,,,,,,,,,,,,,,,,,-0.010185172,-0.437962977,0,0,0,,,,,,,GRAPE,C,new,y,./images/GRAPE.png,,,,,,,,z,0,0.7886,,,,,,,,0,11,11,100,1
,,,,,,,,,,,,,,,,,199285,18,2022-01-25_21h16.10.365,lexical_decision_task_DD_L3,2021.2.3,Win32,59.59830741,,,,,,,,,,,0.7679,0,,,,,,,,,,,,,,,,,,,,,,,,-0.010185172,-0.437962977,0,0,0,,,,,,,STOOL,C,new,y,./images/STOOL.png,,,,,,,,z,0,0.7679,,,,,,,,0,12,12,127,1
,,,,,,,,,,,,,,,,,199285,18,2022-01-25_21h16.10.365,lexical_decision_task_DD_L3,2021.2.3,Win32,59.59830741,,,,,,,,,,,0.7215,0,,,,,,,,,,,,,,,,,,,,,,,,-0.010185172,-0.437962977,0,0,0,,,,,,,MIRROR,LB,old,y,./images/MIRRORLB.png,,,,,,,,m,0,0.7215,,,,,,,,0,13,13,63,1
,,,,,,,,,,,,,,,,,199285,18,2022-01-25_21h16.10.365,lexical_decision_task_DD_L3,2021.2.3,Win32,59.59830741,,,,,,,,,,,0.6382,0,,,,,,,,,,,,,,,,,,,,,,,,-0.010185172,-0.437962977,0,0,0,,,,,,,MUSCLE,C,old,y,./images/MUSCLE.png,,,,,,,,m,0,0.6382,,,,,,,,0,14,14,4,1
,,,,,,,,,,,,,,,,,199285,18,2022-01-25_21h16.10.365,lexical_decision_task_DD_L3,2021.2.3,Win32,59.59830741,,,,,,,,,,,0.7899,0,,,,,,,,,,,,,,,,,,,,,,,,-0.010185172,-0.437962977,0,0,0,,,,,,,BIRTH,C,old,y,./images/BIRTH.png,,,,,,,,m,0,0.7899,,,,,,,,0,15,15,37,1
,,,,,,,,,,,,,,,,,199285,18,2022-01-25_21h16.10.365,lexical_decision_task_DD_L3,2021.2.3,Win32,59.59830741,,,,,,,,,,,0.5797,0,,,,,,,,,,,,,,,,,,,,,,,,-0.010185172,-0.437962977,0,0,0,,,,,,,PLANET,HB,new,y,./images/PLANETHB.png,,,,,,,,m,0,0.5797,,,,,,,,0,16,16,164,1
,,,,,,,,,,,,,,,,,199285,18,2022-01-25_21h16.10.365,lexical_decision_task_DD_L3,2021.2.3,Win32,59.59830741,,,,,,,,,,,0.6782,0,,,,,,,,,,,,,,,,,,,,,,,,-0.010185172,-0.437962977,0,0,0,,,,,,,STRING,HB,old,y,./images/STRINGHB.png,,,,,,,,m,0,0.6782,,,,,,,,0,17,17,41,1
,,,,,,,,,,,,,,,,,199285,18,2022-01-25_21h16.10.365,lexical_decision_task_DD_L3,2021.2.3,Win32,59.59830741,,,,,,,,,,,0.6857,0,,,,,,,,,,,,,,,,,,,,,,,,-0.010185172,-0.437962977,0,0,0,,,,,,,GRANNY,HB,new,y,./images/GRANNYHB.png,,,,,,,,z,0,0.6857,,,,,,,,0,18,18,104,1
,,,,,,,,,,,,,,,,,199285,18,2022-01-25_21h16.10.365,lexical_decision_task_DD_L3,2021.2.3,Win32,59.59830741,,,,,,,,,,,0.605,0,,,,,,,,,,,,,,,,,,,,,,,,-0.010185172,-0.437962977,0,0,0,,,,,,,COLLAR,LB,new,y,./images/COLLARLB.png,,,,,,,,z,0,0.605,,,,,,,,0,19,19,99,1
,,,,,,,,,,,,,,,,,199285,18,2022-01-25_21h16.10.365,lexical_decision_task_DD_L3,2021.2.3,Win32,59.59830741,,,,,,,,,,,0.8677,0,,,,,,,,,,,,,,,,,,,,,,,,-0.010185172,-0.437962977,0,0,0,,,,,,,DONKEY,C,new,y,./images/DONKEY.png,,,,,,,,z,0,0.8677,,,,,,,,0,20,20,103,1
,,,,,,,,,,,,,,,,,199285,18,2022-01-25_21h16.10.365,lexical_decision_task_DD_L3,2021.2.3,Win32,59.59830741,,,,,,,,,,,0.8864,0,,,,,,,,,,,,,,,,,,,,,,,,-0.010185172,-0.437962977,0,0,0,,,,,,,GARDEN,C,new,y,./images/GARDEN.png,,,,,,,,z,0,0.8864,,,,,,,,0,21,21,94,1
,,,,,,,,,,,,,,,,,199285,18,2022-01-25_21h16.10.365,lexical_decision_task_DD_L3,2021.2.3,Win32,59.59830741,,,,,,,,,,,2.0506,0,,,,,,,,,,,,,,,,,,,,,,,,-0.010185172,-0.437962977,0,0,0,,,,,,,FLESH,LB,new,y,./images/FLESHLB.png,,,,,,,,m,0,2.0506,,,,,,,,0,22,22,108,1
,,,,,,,,,,,,,,,,,199285,18,2022-01-25_21h16.10.365,lexical_decision_task_DD_L3,2021.2.3,Win32,59.59830741,,,,,,,,,,,1.6617,0,,,,,,,,,,,,,,,,,,,,,,,,-0.010185172,-0.437962977,0,0,0,,,,,,,MEDAL,HB,new,y,./images/MEDALHB.png,,,,,,,,z,0,1.6617,,,,,,,,0,23,23,95,1
,,,,,,,,,,,,,,,,,199285,18,2022-01-25_21h16.10.365,lexical_decision_task_DD_L3,2021.2.3,Win32,59.59830741,,,,,,,,,,,0.5718,0,,,,,,,,,,,,,,,,,,,,,,,,-0.010185172,-0.437962977,0,0,0,,,,,,,STORM,LB,old,y,./images/STORMLB.png,,,,,,,,m,0,0.5718,,,,,,,,0,24,24,30,1
,,,,,,,,,,,,,,,,,199285,18,2022-01-25_21h16.10.365,lexical_decision_task_DD_L3,2021.2.3,Win32,59.59830741,,,,,,,,,,,1.0514,0,,,,,,,,,,,,,,,,,,,,,,,,-0.010185172,-0.437962977,0,0,0,,,,,,,PEBBLE,C,new,y,./images/PEBBLE.png,,,,,,,,z,0,1.0514,,,,,,,,0,25,25,166,1
,,,,,,,,,,,,,,,,,199285,18,2022-01-25_21h16.10.365,lexical_decision_task_DD_L3,2021.2.3,Win32,59.59830741,,,,,,,,,,,1.3625,0,,,,,,,,,,,,,,,,,,,,,,,,-0.010185172,-0.437962977,0,0,0,,,,,,,CARPET,HB,old,y,./images/CARPETHB.png,,,,,,,,m,0,1.3625,,,,,,,,0,26,26,53,1
,,,,,,,,,,,,,,,,,199285,18,2022-01-25_21h16.10.365,lexical_decision_task_DD_L3,2021.2.3,Win32,59.59830741,,,,,,,,,,,1.1511,0,,,,,,,,,,,,,,,,,,,,,,,,-0.010185172,-0.437962977,0,0,0,,,,,,,CLOUD,HB,new,y,./images/CLOUDHB.png,,,,,,,,z,0,1.1511,,,,,,,,0,27,27,110,1
,,,,,,,,,,,,,,,,,199285,18,2022-01-25_21h16.10.365,lexical_decision_task_DD_L3,2021.2.3,Win32,59.59830741,,,,,,,,,,,0.8187,0,,,,,,,,,,,,,,,,,,,,,,,,-0.010185172,-0.437962977,0,0,0,,,,,,,BOXER,C,new,y,./images/BOXER.png,,,,,,,,m,0,0.8187,,,,,,,,0,28,28,88,1
,,,,,,,,,,,,,,,,,199285,18,2022-01-25_21h16.10.365,lexical_decision_task_DD_L3,2021.2.3,Win32,59.59830741,,,,,,,,,,,0.9853,0,,,,,,,,,,,,,,,,,,,,,,,,-0.010185172,-0.437962977,0,0,0,,,,,,,TRIPOD,LB,old,y,./images/TRIPODLB.png,,,,,,,,m,0,0.9853,,,,,,,,0,29,29,54,1
,,,,,,,,,,,,,,,,,199285,18,2022-01-25_21h16.10.365,lexical_decision_task_DD_L3,2021.2.3,Win32,59.59830741,,,,,,,,,,,1.4012,0,,,,,,,,,,,,,,,,,,,,,,,,-0.010185172,-0.437962977,0,0,0,,,,,,,SWEAT,LB,old,y,./images/SWEATLB.png,,,,,,,,m,0,1.4012,,,,,,,,0,30,30,66,1
,,,,,,,,,,,,,,,,,199285,18,2022-01-25_21h16.10.365,lexical_decision_task_DD_L3,2021.2.3,Win32,59.59830741,,,,,,,,,,,0.634,0,,,,,,,,,,,,,,,,,,,,,,,,-0.010185172,-0.437962977,0,0,0,,,,,,,URINE,C,old,y,./images/URINE.png,,,,,,,,m,0,0.634,,,,,,,,0,31,31,70,1
,,,,,,,,,,,,,,,,,199285,18,2022-01-25_21h16.10.365,lexical_decision_task_DD_L3,2021.2.3,Win32,59.59830741,,,,,,,,,,,0.647,0,,,,,,,,,,,,,,,,,,,,,,,,-0.010185172,-0.437962977,0,0,0,,,,,,,PACKET,HB,old,y,./images/PACKETHB.png,,,,,,,,m,0,0.647,,,,,,,,0,32,32,56,1
,,,,,,,,,,,,,,,,,199285,18,2022-01-25_21h16.10.365,lexical_decision_task_DD_L3,2021.2.3,Win32,59.59830741,,,,,,,,,,,0.6887,0,,,,,,,,,,,,,,,,,,,,,,,,-0.010185172,-0.437962977,0,0,0,,,,,,,PURSE,HB,old,y,./images/PURSEHB.png,,,,,,,,m,0,0.6887,,,,,,,,0,33,33,62,1
,,,,,,,,,,,,,,,,,199285,18,2022-01-25_21h16.10.365,lexical_decision_task_DD_L3,2021.2.3,Win32,59.59830741,,,,,,,,,,,0.734,0,,,,,,,,,,,,,,,,,,,,,,,,-0.010185172,-0.437962977,0,0,0,,,,,,,BUTTER,LB,new,y,./images/BUTTERLB.png,,,,,,,,m,0,0.734,,,,,,,,0,34,34,111,1
,,,,,,,,,,,,,,,,,199285,18,2022-01-25_21h16.10.365,lexical_decision_task_DD_L3,2021.2.3,Win32,59.59830741,,,,,,,,,,,0.6757,0,,,,,,,,,,,,,,,,,,,,,,,,-0.010185172,-0.437962977,0,0,0,,,,,,,MOOSE,LB,old,y,./images/MOOSELB.png,,,,,,,,m,0,0.6757,,,,,,,,0,35,35,57,1
,,,,,,,,,,,,,,,,,199285,18,2022-01-25_21h16.10.365,lexical_decision_task_DD_L3,2021.2.3,Win32,59.59830741,,,,,,,,,,,0.6559,0,,,,,,,,,,,,,,,,,,,,,,,,-0.010185172,-0.437962977,0,0,0,,,,,,,ATTIC,LB,old,y,./images/ATTICLB.png,,,,,,,,m,0,0.6559,,,,,,,,0,36,36,27,1
,,,,,,,,,,,,,,,,,199285,18,2022-01-25_21h16.10.365,lexical_decision_task_DD_L3,2021.2.3,Win32,59.59830741,,,,,,,,,,,1.5091,0,,,,,,,,,,,,,,,,,,,,,,,,-0.010185172,-0.437962977,0,0,0,,,,,,,BLOKE,LB,new,y,./images/BLOKELB.png,,,,,,,,m,0,1.5091,,,,,,,,0,37,37,96,1
,,,,,,,,,,,,,,,,,199285,18,2022-01-25_21h16.10.365,lexical_decision_task_DD_L3,2021.2.3,Win32,59.59830741,,,,,,,,,,,0.561,0,,,,,,,,,,,,,,,,,,,,,,,,-0.010185172,-0.437962977,0,0,0,,,,,,,CRUMB,HB,old,y,./images/CRUMBHB.png,,,,,,,,m,0,0.561,,,,,,,,0,38,38,29,1
,,,,,,,,,,,,,,,,,199285,18,2022-01-25_21h16.10.365,lexical_decision_task_DD_L3,2021.2.3,Win32,59.59830741,,,,,,,,,,,0.5958,0,,,,,,,,,,,,,,,,,,,,,,,,-0.010185172,-0.437962977,0,0,0,,,,,,,BRUSH,HB,new,y,./images/BRUSHHB.png,,,,,,,,m,0,0.5958,,,,,,,,0,39,39,143,1
,,,,,,,,,,,,,,,,,199285,18,2022-01-25_21h16.10.365,lexical_decision_task_DD_L3,2021.2.3,Win32,59.59830741,,,,,,,,,,,0.5964,0,,,,,,,,,,,,,,,,,,,,,,,,-0.010185172,-0.437962977,0,0,0,,,,,,,BABOON,C,old,y,./images/BABOON.png,,,,,,,,z,0,0.5964,,,,,,,,0,40,40,58,1
,,,,,,,,,,,,,,,,,199285,18,2022-01-25_21h16.10.365,lexical_decision_task_DD_L3,2021.2.3,Win32,59.59830741,,,,,,,,,,,0.8365,0,,,,,,,,,,,,,,,,,,,,,,,,-0.010185172,-0.437962977,0,0,0,space,,,,,,GREASE,LB,old,y,./images/GREASELB.png,1.0113,,,,,,,m,0,0.8365,,,,,,,,0,41,41,15,1
,,,,,,,,,,,,,,,,,199285,18,2022-01-25_21h16.10.365,lexical_decision_task_DD_L3,2021.2.3,Win32,59.59830741,,,,,,,,,,,0.5586,0,,,,,,,,,,,,,,,,,,,,,,,,-0.010185172,-0.437962977,0,0,0,,,,,,,FOLDER,LB,old,y,./images/FOLDERLB.png,,,,,,,,m,0,0.5586,,,,,,,,0,42,42,42,1
,,,,,,,,,,,,,,,,,199285,18,2022-01-25_21h16.10.365,lexical_decision_task_DD_L3,2021.2.3,Win32,59.59830741,,,,,,,,,,,0.7016,0,,,,,,,,,,,,,,,,,,,,,,,,-0.010185172,-0.437962977,0,0,0,,,,,,,STATUE,LB,new,y,./images/STATUELB.png,,,,,,,,z,0,0.7016,,,,,,,,0,43,43,150,1
,,,,,,,,,,,,,,,,,199285,18,2022-01-25_21h16.10.365,lexical_decision_task_DD_L3,2021.2.3,Win32,59.59830741,,,,,,,,,,,1.3925,0,,,,,,,,,,,,,,,,,,,,,,,,-0.010185172,-0.437962977,0,0,0,,,,,,,MOSQUE,C,old,y,./images/MOSQUE.png,,,,,,,,m,0,1.3925,,,,,,,,0,44,44,43,1
,,,,,,,,,,,,,,,,,199285,18,2022-01-25_21h16.10.365,lexical_decision_task_DD_L3,2021.2.3,Win32,59.59830741,,,,,,,,,,,0.7401,0,,,,,,,,,,,,,,,,,,,,,,,,-0.010185172,-0.437962977,0,0,0,,,,,,,SKIING,HB,old,y,./images/SKIINGHB.png,,,,,,,,m,0,0.7401,,,,,,,,0,45,45,17,1
,,,,,,,,,,,,,,,,,199285,18,2022-01-25_21h16.10.365,lexical_decision_task_DD_L3,2021.2.3,Win32,59.59830741,,,,,,,,,,,0.5766,0,,,,,,,,,,,,,,,,,,,,,,,,-0.010185172,-0.437962977,0,0,0,,,,,,,DRILL,LB,new,y,./images/DRILLLB.png,,,,,,,,m,0,0.5766,,,,,,,,0,46,46,165,1
,,,,,,,,,,,,,,,,,199285,18,2022-01-25_21h16.10.365,lexical_decision_task_DD_L3,2021.2.3,Win32,59.59830741,,,,,,,,,,,0.8173,0,,,,,,,,,,,,,,,,,,,,,,,,-0.010185172,-0.437962977,0,0,0,,,,,,,VALLEY,HB,new,y,./images/VALLEYHB.png,,,,,,,,m,0,0.8173,,,,,,,,0,47,47,152,1
,,,,,,,,,,,,,,,,,199285,18,2022-01-25_21h16.10.365,lexical_decision_task_DD_L3,2021.2.3,Win32,59.59830741,,,,,,,,,,,0.8761,0,,,,,,,,,,,,,,,,,,,,,,,,-0.010185172,-0.437962977,0,0,0,,,,,,,RAZOR,C,new,y,./images/RAZOR.png,,,,,,,,z,0,0.8761,,,,,,,,0,48,48,118,1
,,,,,,,,,,,,,,,,,199285,18,2022-01-25_21h16.10.365,lexical_decision_task_DD_L3,2021.2.3,Win32,59.59830741,,,,,,,,,,,0.821,0,,,,,,,,,,,,,,,,,,,,,,,,-0.010185172,-0.437962977,0,0,0,,,,,,,SWING,C,old,y,./images/SWING.png,,,,,,,,m,0,0.821,,,,,,,,0,49,49,40,1
,,,,,,,,,,,,,,,,,199285,18,2022-01-25_21h16.10.365,lexical_decision_task_DD_L3,2021.2.3,Win32,59.59830741,,,,,,,,,,,0.56,0,,,,,,,,,,,,,,,,,,,,,,,,-0.010185172,-0.437962977,0,0,0,,,,,,,KIDNEY,LB,old,y,./images/KIDNEYLB.png,,,,,,,,m,0,0.56,,,,,,,,0,50,50,21,1
,,,,,,,,,,,,,,,,,199285,18,2022-01-25_21h16.10.365,lexical_decision_task_DD_L3,2021.2.3,Win32,59.59830741,,,,,,,,,,,1.2121,0,,,,,,,,,,,,,,,,,,,,,,,,-0.010185172,-0.437962977,0,0,0,,,,,,,BARREL,HB,old,y,./images/BARRELHB.png,,,,,,,,m,0,1.2121,,,,,,,,0,51,51,32,1
,,,,,,,,,,,,,,,,,199285,18,2022-01-25_21h16.10.365,lexical_decision_task_DD_L3,2021.2.3,Win32,59.59830741,,,,,,,,,,,0.6942,0,,,,,,,,,,,,,,,,,,,,,,,,-0.010185172,-0.437962977,0,0,0,,,,,,,COOKER,LB,old,y,./images/COOKERLB.png,,,,,,,,m,0,0.6942,,,,,,,,0,52,52,69,1
,,,,,,,,,,,,,,,,,199285,18,2022-01-25_21h16.10.365,lexical_decision_task_DD_L3,2021.2.3,Win32,59.59830741,,,,,,,,,,,0.7957,0,,,,,,,,,,,,,,,,,,,,,,,,-0.010185172,-0.437962977,0,0,0,,,,,,,ENGINE,HB,new,y,./images/ENGINEHB.png,,,,,,,,z,0,0.7957,,,,,,,,0,53,53,122,1
,,,,,,,,,,,,,,,,,199285,18,2022-01-25_21h16.10.365,lexical_decision_task_DD_L3,2021.2.3,Win32,59.59830741,,,,,,,,,,,0.7011,0,,,,,,,,,,,,,,,,,,,,,,,,-0.010185172,-0.437962977,0,0,0,,,,,,,TOWEL,C,new,y,./images/TOWEL.png,,,,,,,,m,0,0.7011,,,,,,,,0,54,54,85,1
,,,,,,,,,,,,,,,,,199285,18,2022-01-25_21h16.10.365,lexical_decision_task_DD_L3,2021.2.3,Win32,59.59830741,,,,,,,,,,,1.3523,0,,,,,,,,,,,,,,,,,,,,,,,,-0.010185172,-0.437962977,0,0,0,,,,,,,BURIAL,HB,old,y,./images/BURIALHB.png,,,,,,,,z,0,1.3523,,,,,,,,0,55,55,59,1
,,,,,,,,,,,,,,,,,199285,18,2022-01-25_21h16.10.365,lexical_decision_task_DD_L3,2021.2.3,Win32,59.59830741,,,,,,,,,,,0.7349,0,,,,,,,,,,,,,,,,,,,,,,,,-0.010185172,-0.437962977,0,0,0,,,,,,,SAILOR,C,old,y,./images/SAILOR.png,,,,,,,,m,0,0.7349,,,,,,,,0,56,56,67,1
,,,,,,,,,,,,,,,,,199285,18,2022-01-25_21h16.10.365,lexical_decision_task_DD_L3,2021.2.3,Win32,59.59830741,,,,,,,,,,,0.9365,0,,,,,,,,,,,,,,,,,,,,,,,,-0.010185172,-0.437962977,0,0,0,,,,,,,TIGER,C,new,y,./images/TIGER.png,,,,,,,,z,0,0.9365,,,,,,,,0,57,57,121,1
,,,,,,,,,,,,,,,,,199285,18,2022-01-25_21h16.10.365,lexical_decision_task_DD_L3,2021.2.3,Win32,59.59830741,,,,,,,,,,,0.668,0,,,,,,,,,,,,,,,,,,,,,,,,-0.010185172,-0.437962977,0,0,0,,,,,,,PENCE,C,old,y,./images/PENCE.png,,,,,,,,m,0,0.668,,,,,,,,0,58,58,16,1
,,,,,,,,,,,,,,,,,199285,18,2022-01-25_21h16.10.365,lexical_decision_task_DD_L3,2021.2.3,Win32,59.59830741,,,,,,,,,,,0.7075,0,,,,,,,,,,,,,,,,,,,,,,,,-0.010185172,-0.437962977,0,0,0,,,,,,,LAGOON,HB,new,y,./images/LAGOONHB.png,,,,,,,,m,0,0.7075,,,,,,,,0,59,59,131,1
,,,,,,,,,,,,,,,,,199285,18,2022-01-25_21h16.10.365,lexical_decision_task_DD_L3,2021.2.3,Win32,59.59830741,,,,,,,,,,,0.7297,0,,,,,,,,,,,,,,,,,,,,,,,,-0.010185172,-0.437962977,0,0,0,,,,,,,BRIDE,C,new,y,./images/BRIDE.png,,,,,,,,m,0,0.7297,,,,,,,,0,60,60,148,1
,,,,,,,,,,,,,,,,,199285,18,2022-01-25_21h16.10.365,lexical_decision_task_DD_L3,2021.2.3,Win32,59.59830741,,,,,,,,,,,0.6437,0,,,,,,,,,,,,,,,,,,,,,,,,-0.010185172,-0.437962977,0,0,0,,,,,,,LIZARD,HB,old,y,./images/LIZARDHB.png,,,,,,,,m,0,0.6437,,,,,,,,0,61,61,44,1
,,,,,,,,,,,,,,,,,199285,18,2022-01-25_21h16.10.365,lexical_decision_task_DD_L3,2021.2.3,Win32,59.59830741,,,,,,,,,,,0.6525,0,,,,,,,,,,,,,,,,,,,,,,,,-0.010185172,-0.437962977,0,0,0,,,,,,,POSTER,HB,new,y,./images/POSTERHB.png,,,,,,,,m,0,0.6525,,,,,,,,0,62,62,137,1
,,,,,,,,,,,,,,,,,199285,18,2022-01-25_21h16.10.365,lexical_decision_task_DD_L3,2021.2.3,Win32,59.59830741,,,,,,,,,,,1.6779,0,,,,,,,,,,,,,,,,,,,,,,,,-0.010185172,-0.437962977,0,0,0,,,,,,,CRATER,LB,new,y,./images/CRATERLB.png,,,,,,,,z,0,1.6779,,,,,,,,0,63,63,87,1
,,,,,,,,,,,,,,,,,199285,18,2022-01-25_21h16.10.365,lexical_decision_task_DD_L3,2021.2.3,Win32,59.59830741,,,,,,,,,,,1.2367,0,,,,,,,,,,,,,,,,,,,,,,,,-0.010185172,-0.437962977,0,0,0,,,,,,,MAMMAL,HB,new,y,./images/MAMMALHB.png,,,,,,,,m,0,1.2367,,,,,,,,0,64,64,146,1
,,,,,,,,,,,,,,,,,199285,18,2022-01-25_21h16.10.365,lexical_decision_task_DD_L3,2021.2.3,Win32,59.59830741,,,,,,,,,,,1.0688,0,,,,,,,,,,,,,,,,,,,,,,,,-0.010185172,-0.437962977,0,0,0,,,,,,,ARROW,LB,new,y,./images/ARROWLB.png,,,,,,,,z,0,1.0688,,,,,,,,0,65,65,153,1
,,,,,,,,,,,,,,,,,199285,18,2022-01-25_21h16.10.365,lexical_decision_task_DD_L3,2021.2.3,Win32,59.59830741,,,,,,,,,,,0.8619,0,,,,,,,,,,,,,,,,,,,,,,,,-0.010185172,-0.437962977,0,0,0,,,,,,,FERRY,LB,new,y,./images/FERRYLB.png,,,,,,,,m,0,0.8619,,,,,,,,0,66,66,141,1
,,,,,,,,,,,,,,,,,199285,18,2022-01-25_21h16.10.365,lexical_decision_task_DD_L3,2021.2.3,Win32,59.59830741,,,,,,,,,,,0.8114,0,,,,,,,,,,,,,,,,,,,,,,,,-0.010185172,-0.437962977,0,0,0,,,,,,,HEATER,HB,new,y,./images/HEATERHB.png,,,,,,,,z,0,0.8114,,,,,,,,0,67,67,140,1
,,,,,,,,,,,,,,,,,199285,18,2022-01-25_21h16.10.365,lexical_decision_task_DD_L3,2021.2.3,Win32,59.59830741,,,,,,,,,,,0.6009,0,,,,,,,,,,,,,,,,,,,,,,,,-0.010185172,-0.437962977,0,0,0,,,,,,,PARCEL,LB,new,y,./images/PARCELLB.png,,,,,,,,z,0,0.6009,,,,,,,,0,68,68,102,1
,,,,,,,,,,,,,,,,,199285,18,2022-01-25_21h16.10.365,lexical_decision_task_DD_L3,2021.2.3,Win32,59.59830741,,,,,,,,,,,0.7361,0,,,,,,,,,,,,,,,,,,,,,,,,-0.010185172,-0.437962977,0,0,0,,,,,,,MUMMY,C,new,y,./images/MUMMY.png,,,,,,,,z,0,0.7361,,,,,,,,0,69,69,130,1
,,,,,,,,,,,,,,,,,199285,18,2022-01-25_21h16.10.365,lexical_decision_task_DD_L3,2021.2.3,Win32,59.59830741,,,,,,,,,,,0.8061,0,,,,,,,,,,,,,,,,,,,,,,,,-0.010185172,-0.437962977,0,0,0,,,,,,,LLAMA,HB,new,y,./images/LLAMAHB.png,,,,,,,,z,0,0.8061,,,,,,,,0,70,70,119,1
,,,,,,,,,,,,,,,,,199285,18,2022-01-25_21h16.10.365,lexical_decision_task_DD_L3,2021.2.3,Win32,59.59830741,,,,,,,,,,,1.0511,0,,,,,,,,,,,,,,,,,,,,,,,,-0.010185172,-0.437962977,0,0,0,,,,,,,GRAIN,LB,old,y,./images/GRAINLB.png,,,,,,,,m,0,1.0511,,,,,,,,0,71,71,75,1
,,,,,,,,,,,,,,,,,199285,18,2022-01-25_21h16.10.365,lexical_decision_task_DD_L3,2021.2.3,Win32,59.59830741,,,,,,,,,,,0.8591,0,,,,,,,,,,,,,,,,,,,,,,,,-0.010185172,-0.437962977,0,0,0,,,,,,,WRIST,C,old,y,./images/WRIST.png,,,,,,,,z,0,0.8591,,,,,,,,0,72,72,25,1
,,,,,,,,,,,,,,,,,199285,18,2022-01-25_21h16.10.365,lexical_decision_task_DD_L3,2021.2.3,Win32,59.59830741,,,,,,,,,,,0.6776,0,,,,,,,,,,,,,,,,,,,,,,,,-0.010185172,-0.437962977,0,0,0,,,,,,,MUFFIN,C,old,y,./images/MUFFIN.png,,,,,,,,m,0,0.6776,,,,,,,,0,73,73,55,1
,,,,,,,,,,,,,,,,,199285,18,2022-01-25_21h16.10.365,lexical_decision_task_DD_L3,2021.2.3,Win32,59.59830741,,,,,,,,,,,1.0812,0,,,,,,,,,,,,,,,,,,,,,,,,-0.010185172,-0.437962977,0,0,0,,,,,,,POKER,C,new,y,./images/POKER.png,,,,,,,,m,0,1.0812,,,,,,,,0,74,74,151,1
,,,,,,,,,,,,,,,,,199285,18,2022-01-25_21h16.10.365,lexical_decision_task_DD_L3,2021.2.3,Win32,59.59830741,,,,,,,,,,,1.3181,0,,,,,,,,,,,,,,,,,,,,,,,,-0.010185172,-0.437962977,0,0,0,,,,,,,PARADE,HB,new,y,./images/PARADEHB.png,,,,,,,,m,0,1.3181,,,,,,,,0,75,75,101,1
,,,,,,,,,,,,,,,,,199285,18,2022-01-25_21h16.10.365,lexical_decision_task_DD_L3,2021.2.3,Win32,59.59830741,,,,,,,,,,,2.1595,0,,,,,,,,,,,,,,,,,,,,,,,,-0.010185172,-0.437962977,0,0,0,,,,,,,SHELF,LB,old,y,./images/SHELFLB.png,,,,,,,,m,0,2.1595,,,,,,,,0,76,76,39,1
,,,,,,,,,,,,,,,,,199285,18,2022-01-25_21h16.10.365,lexical_decision_task_DD_L3,2021.2.3,Win32,59.59830741,,,,,,,,,,,0.5532,0,,,,,,,,,,,,,,,,,,,,,,,,-0.010185172,-0.437962977,0,0,0,,,,,,,HAMMER,LB,new,y,./images/HAMMERLB.png,,,,,,,,m,0,0.5532,,,,,,,,0,77,77,159,1
,,,,,,,,,,,,,,,,,199285,18,2022-01-25_21h16.10.365,lexical_decision_task_DD_L3,2021.2.3,Win32,59.59830741,,,,,,,,,,,1.1461,0,,,,,,,,,,,,,,,,,,,,,,,,-0.010185172,-0.437962977,0,0,0,,,,,,,INFANT,C,old,y,./images/INFANT.png,,,,,,,,m,0,1.1461,,,,,,,,0,78,78,76,1
,,,,,,,,,,,,,,,,,199285,18,2022-01-25_21h16.10.365,lexical_decision_task_DD_L3,2021.2.3,Win32,59.59830741,,,,,,,,,,,0.8556,0,,,,,,,,,,,,,,,,,,,,,,,,-0.010185172,-0.437962977,0,0,0,,,,,,,JUNGLE,HB,old,y,./images/JUNGLEHB.png,,,,,,,,m,0,0.8556,,,,,,,,0,79,79,83,1
,,,,,,,,,,,,,,,,,199285,18,2022-01-25_21h16.10.365,lexical_decision_task_DD_L3,2021.2.3,Win32,59.59830741,,,,,,,,,,,1.1075,0,,,,,,,,,,,,,,,,,,,,,,,,-0.010185172,-0.437962977,0,0,0,,,,,,,STEAK,C,new,y,./images/STEAK.png,,,,,,,,z,0,1.1075,,,,,,,,0,80,80,115,1
,,,,,,,,,,,,,,,,,199285,18,2022-01-25_21h16.10.365,lexical_decision_task_DD_L3,2021.2.3,Win32,59.59830741,,,,,,,,,,,0.7224,0,,,,,,,,,,,,,,,,,,,,,,,,-0.010185172,-0.437962977,0,0,0,,,,,,,CLIFF,HB,new,y,./images/CLIFFHB.png,,,,,,,,m,0,0.7224,,,,,,,,0,81,81,92,1
,,,,,,,,,,,,,,,,,199285,18,2022-01-25_21h16.10.365,lexical_decision_task_DD_L3,2021.2.3,Win32,59.59830741,,,,,,,,,,,0.9042,0,,,,,,,,,,,,,,,,,,,,,,,,-0.010185172,-0.437962977,0,0,0,,,,,,,LITTER,LB,old,y,./images/LITTERLB.png,,,,,,,,m,0,0.9042,,,,,,,,0,82,82,78,1
,,,,,,,,,,,,,,,,,199285,18,2022-01-25_21h16.10.365,lexical_decision_task_DD_L3,2021.2.3,Win32,59.59830741,,,,,,,,,,,0.7748,0,,,,,,,,,,,,,,,,,,,,,,,,-0.010185172,-0.437962977,0,0,0,space,,,,,,PIMPLE,HB,old,y,./images/PIMPLEHB.png,100.8759,,,,,,,m,0,0.7748,,,,,,,,0,83,83,71,1
,,,,,,,,,,,,,,,,,199285,18,2022-01-25_21h16.10.365,lexical_decision_task_DD_L3,2021.2.3,Win32,59.59830741,,,,,,,,,,,1.6025,0,,,,,,,,,,,,,,,,,,,,,,,,-0.010185172,-0.437962977,0,0,0,,,,,,,BONNET,HB,old,y,./images/BONNETHB.png,,,,,,,,m,0,1.6025,,,,,,,,0,84,84,11,1
,,,,,,,,,,,,,,,,,199285,18,2022-01-25_21h16.10.365,lexical_decision_task_DD_L3,2021.2.3,Win32,59.59830741,,,,,,,,,,,1.1008,0,,,,,,,,,,,,,,,,,,,,,,,,-0.010185172,-0.437962977,0,0,0,,,,,,,CURRY,LB,new,y,./images/CURRYLB.png,,,,,,,,z,0,1.1008,,,,,,,,0,85,85,144,1
,,,,,,,,,,,,,,,,,199285,18,2022-01-25_21h16.10.365,lexical_decision_task_DD_L3,2021.2.3,Win32,59.59830741,,,,,,,,,,,0.5445,0,,,,,,,,,,,,,,,,,,,,,,,,-0.010185172,-0.437962977,0,0,0,,,,,,,RULER,C,new,y,./images/RULER.png,,,,,,,,m,0,0.5445,,,,,,,,0,86,86,163,1
,,,,,,,,,,,,,,,,,199285,18,2022-01-25_21h16.10.365,lexical_decision_task_DD_L3,2021.2.3,Win32,59.59830741,,,,,,,,,,,0.5928,0,,,,,,,,,,,,,,,,,,,,,,,,-0.010185172,-0.437962977,0,0,0,,,,,,,MELON,C,old,y,./images/MELON.png,,,,,,,,m,0,0.5928,,,,,,,,0,87,87,22,1
,,,,,,,,,,,,,,,,,199285,18,2022-01-25_21h16.10.365,lexical_decision_task_DD_L3,2021.2.3,Win32,59.59830741,,,,,,,,,,,0.9358,0,,,,,,,,,,,,,,,,,,,,,,,,-0.010185172,-0.437962977,0,0,0,,,,,,,STAIN,LB,new,y,./images/STAINLB.png,,,,,,,,z,0,0.9358,,,,,,,,0,88,88,90,1
,,,,,,,,,,,,,,,,,199285,18,2022-01-25_21h16.10.365,lexical_decision_task_DD_L3,2021.2.3,Win32,59.59830741,,,,,,,,,,,0.6577,0,,,,,,,,,,,,,,,,,,,,,,,,-0.010185172,-0.437962977,0,0,0,,,,,,,CEMENT,HB,old,y,./images/CEMENTHB.png,,,,,,,,m,0,0.6577,,,,,,,,0,89,89,74,1
,,,,,,,,,,,,,,,,,199285,18,2022-01-25_21h16.10.365,lexical_decision_task_DD_L3,2021.2.3,Win32,59.59830741,,,,,,,,,,,0.6869,0,,,,,,,,,,,,,,,,,,,,,,,,-0.010185172,-0.437962977,0,0,0,,,,,,,CHAIN,LB,new,y,./images/CHAINLB.png,,,,,,,,m,0,0.6869,,,,,,,,0,90,90,126,1
,,,,,,,,,,,,,,,,,199285,18,2022-01-25_21h16.10.365,lexical_decision_task_DD_L3,2021.2.3,Win32,59.59830741,,,,,,,,,,,0.7674,0,,,,,,,,,,,,,,,,,,,,,,,,-0.010185172,-0.437962977,0,0,0,,,,,,,BERRY,HB,old,y,./images/BERRYHB.png,,,,,,,,m,0,0.7674,,,,,,,,0,91,91,47,1
,,,,,,,,,,,,,,,,,199285,18,2022-01-25_21h16.10.365,lexical_decision_task_DD_L3,2021.2.3,Win32,59.59830741,,,,,,,,,,,0.6695,0,,,,,,,,,,,,,,,,,,,,,,,,-0.010185172,-0.437962977,0,0,0,,,,,,,FENCE,HB,new,y,./images/FENCEHB.png,,,,,,,,m,0,0.6695,,,,,,,,0,92,92,98,1
,,,,,,,,,,,,,,,,,199285,18,2022-01-25_21h16.10.365,lexical_decision_task_DD_L3,2021.2.3,Win32,59.59830741,,,,,,,,,,,0.6286,0,,,,,,,,,,,,,,,,,,,,,,,,-0.010185172,-0.437962977,0,0,0,,,,,,,CHALK,C,new,y,./images/CHALK.png,,,,,,,,m,0,0.6286,,,,,,,,0,93,93,109,1
,,,,,,,,,,,,,,,,,199285,18,2022-01-25_21h16.10.365,lexical_decision_task_DD_L3,2021.2.3,Win32,59.59830741,,,,,,,,,,,0.9704,0,,,,,,,,,,,,,,,,,,,,,,,,-0.010185172,-0.437962977,0,0,0,,,,,,,MALLET,HB,old,y,./images/MALLETHB.png,,,,,,,,z,0,0.9704,,,,,,,,0,94,94,50,1
,,,,,,,,,,,,,,,,,199285,18,2022-01-25_21h16.10.365,lexical_decision_task_DD_L3,2021.2.3,Win32,59.59830741,,,,,,,,,,,2.3767,0,,,,,,,,,,,,,,,,,,,,,,,,-0.010185172,-0.437962977,0,0,0,,,,,,,PEARL,C,old,y,./images/PEARL.png,,,,,,,,z,0,2.3767,,,,,,,,0,95,95,46,1
,,,,,,,,,,,,,,,,,199285,18,2022-01-25_21h16.10.365,lexical_decision_task_DD_L3,2021.2.3,Win32,59.59830741,,,,,,,,,,,0.9446,0,,,,,,,,,,,,,,,,,,,,,,,,-0.010185172,-0.437962977,0,0,0,,,,,,,BASKET,HB,new,y,./images/BASKETHB.png,,,,,,,,m,0,0.9446,,,,,,,,0,96,96,128,1
,,,,,,,,,,,,,,,,,199285,18,2022-01-25_21h16.10.365,lexical_decision_task_DD_L3,2021.2.3,Win32,59.59830741,,,,,,,,,,,0.9917,0,,,,,,,,,,,,,,,,,,,,,,,,-0.010185172,-0.437962977,0,0,0,,,,,,,SQUARE,LB,old,y,./images/SQUARELB.png,,,,,,,,z,0,0.9917,,,,,,,,0,97,97,6,1
,,,,,,,,,,,,,,,,,199285,18,2022-01-25_21h16.10.365,lexical_decision_task_DD_L3,2021.2.3,Win32,59.59830741,,,,,,,,,,,0.5435,0,,,,,,,,,,,,,,,,,,,,,,,,-0.010185172,-0.437962977,0,0,0,,,,,,,DRUMS,C,old,y,./images/DRUMS.png,,,,,,,,m,0,0.5435,,,,,,,,0,98,98,49,1
,,,,,,,,,,,,,,,,,199285,18,2022-01-25_21h16.10.365,lexical_decision_task_DD_L3,2021.2.3,Win32,59.59830741,,,,,,,,,,,0.3708,0,,,,,,,,,,,,,,,,,,,,,,,,-0.010185172,-0.437962977,0,0,0,,,,,,,CLOTH,HB,new,y,./images/CLOTHHB.png,,,,,,,,z,0,0.3708,,,,,,,,0,99,99,107,1
,,,,,,,,,,,,,,,,,199285,18,2022-01-25_21h16.10.365,lexical_decision_task_DD_L3,2021.2.3,Win32,59.59830741,,,,,,,,,,,0.2751,0,,,,,,,,,,,,,,,,,,,,,,,,-0.010185172,-0.437962977,0,0,0,,,,,,,CLOWN,C,new,y,./images/CLOWN.png,,,,,,,,m,0,0.2751,,,,,,,,0,100,100,106,1
,,,,,,,,,,,,,,,,,199285,18,2022-01-25_21h16.10.365,lexical_decision_task_DD_L3,2021.2.3,Win32,59.59830741,,,,,,,,,,,0.3673,0,,,,,,,,,,,,,,,,,,,,,,,,-0.010185172,-0.437962977,0,0,0,,,,,,,CASINO,C,new,y,./images/CASINO.png,,,,,,,,z,0,0.3673,,,,,,,,0,101,101,112,1
,,,,,,,,,,,,,,,,,199285,18,2022-01-25_21h16.10.365,lexical_decision_task_DD_L3,2021.2.3,Win32,59.59830741,,,,,,,,,,,0.8438,0,,,,,,,,,,,,,,,,,,,,,,,,-0.010185172,-0.437962977,0,0,0,,,,,,,TULIP,HB,old,y,./images/TULIPHB.png,,,,,,,,m,0,0.8438,,,,,,,,0,102,102,8,1
,,,,,,,,,,,,,,,,,199285,18,2022-01-25_21h16.10.365,lexical_decision_task_DD_L3,2021.2.3,Win32,59.59830741,,,,,,,,,,,0.9538,0,,,,,,,,,,,,,,,,,,,,,,,,-0.010185172,-0.437962977,0,0,0,,,,,,,PISTOL,HB,new,y,./images/PISTOLHB.png,,,,,,,,z,0,0.9538,,,,,,,,0,103,103,113,1
,,,,,,,,,,,,,,,,,199285,18,2022-01-25_21h16.10.365,lexical_decision_task_DD_L3,2021.2.3,Win32,59.59830741,,,,,,,,,,,0.6179,0,,,,,,,,,,,,,,,,,,,,,,,,-0.010185172,-0.437962977,0,0,0,,,,,,,BELLY,C,old,y,./images/BELLY.png,,,,,,,,m,0,0.6179,,,,,,,,0,104,104,10,1
,,,,,,,,,,,,,,,,,199285,18,2022-01-25_21h16.10.365,lexical_decision_task_DD_L3,2021.2.3,Win32,59.59830741,,,,,,,,,,,1.0616,0,,,,,,,,,,,,,,,,,,,,,,,,-0.010185172,-0.437962977,0,0,0,,,,,,,CRUST,C,old,y,./images/CRUST.png,,,,,,,,z,0,1.0616,,,,,,,,0,105,105,79,1
,,,,,,,,,,,,,,,,,199285,18,2022-01-25_21h16.10.365,lexical_decision_task_DD_L3,2021.2.3,Win32,59.59830741,,,,,,,,,,,0.6006,0,,,,,,,,,,,,,,,,,,,,,,,,-0.010185172,-0.437962977,0,0,0,,,,,,,PICKLE,HB,old,y,./images/PICKLEHB.png,,,,,,,,m,0,0.6006,,,,,,,,0,106,106,14,1
,,,,,,,,,,,,,,,,,199285,18,2022-01-25_21h16.10.365,lexical_decision_task_DD_L3,2021.2.3,Win32,59.59830741,,,,,,,,,,,1.0211,0,,,,,,,,,,,,,,,,,,,,,,,,-0.010185172,-0.437962977,0,0,0,,,,,,,TOMATO,LB,old,y,./images/TOMATOLB.png,,,,,,,,m,0,1.0211,,,,,,,,0,107,107,0,1
,,,,,,,,,,,,,,,,,199285,18,2022-01-25_21h16.10.365,lexical_decision_task_DD_L3,2021.2.3,Win32,59.59830741,,,,,,,,,,,0.8423,0,,,,,,,,,,,,,,,,,,,,,,,,-0.010185172,-0.437962977,0,0,0,,,,,,,PLANK,C,old,y,./images/PLANK.png,,,,,,,,m,0,0.8423,,,,,,,,0,108,108,1,1
,,,,,,,,,,,,,,,,,199285,18,2022-01-25_21h16.10.365,lexical_decision_task_DD_L3,2021.2.3,Win32,59.59830741,,,,,,,,,,,0.8936,0,,,,,,,,,,,,,,,,,,,,,,,,-0.010185172,-0.437962977,0,0,0,,,,,,,JUMPER,HB,new,y,./images/JUMPERHB.png,,,,,,,,z,0,0.8936,,,,,,,,0,109,109,158,1
,,,,,,,,,,,,,,,,,199285,18,2022-01-25_21h16.10.365,lexical_decision_task_DD_L3,2021.2.3,Win32,59.59830741,,,,,,,,,,,0.8508,0,,,,,,,,,,,,,,,,,,,,,,,,-0.010185172,-0.437962977,0,0,0,,,,,,,WAGON,C,new,y,./images/WAGON.png,,,,,,,,m,0,0.8508,,,,,,,,0,110,110,91,1
,,,,,,,,,,,,,,,,,199285,18,2022-01-25_21h16.10.365,lexical_decision_task_DD_L3,2021.2.3,Win32,59.59830741,,,,,,,,,,,0.6016,0,,,,,,,,,,,,,,,,,,,,,,,,-0.010185172,-0.437962977,0,0,0,,,,,,,DANCER,LB,new,y,./images/DANCERLB.png,,,,,,,,z,0,0.6016,,,,,,,,0,111,111,105,1
,,,,,,,,,,,,,,,,,199285,18,2022-01-25_21h16.10.365,lexical_decision_task_DD_L3,2021.2.3,Win32,59.59830741,,,,,,,,,,,0.5845,0,,,,,,,,,,,,,,,,,,,,,,,,-0.010185172,-0.437962977,0,0,0,,,,,,,MOTOR,C,old,y,./images/MOTOR.png,,,,,,,,m,0,0.5845,,,,,,,,0,112,112,13,1
,,,,,,,,,,,,,,,,,199285,18,2022-01-25_21h16.10.365,lexical_decision_task_DD_L3,2021.2.3,Win32,59.59830741,,,,,,,,,,,1.3519,0,,,,,,,,,,,,,,,,,,,,,,,,-0.010185172,-0.437962977,0,0,0,,,,,,,PILOT,HB,new,y,./images/PILOTHB.png,,,,,,,,z,0,1.3519,,,,,,,,0,113,113,134,1
,,,,,,,,,,,,,,,,,199285,18,2022-01-25_21h16.10.365,lexical_decision_task_DD_L3,2021.2.3,Win32,59.59830741,,,,,,,,,,,1.0014,0,,,,,,,,,,,,,,,,,,,,,,,,-0.010185172,-0.437962977,0,0,0,,,,,,,NOOSE,LB,old,y,./images/NOOSELB.png,,,,,,,,m,0,1.0014,,,,,,,,0,114,114,72,1
,,,,,,,,,,,,,,,,,199285,18,2022-01-25_21h16.10.365,lexical_decision_task_DD_L3,2021.2.3,Win32,59.59830741,,,,,,,,,,,2.5033,0,,,,,,,,,,,,,,,,,,,,,,,,-0.010185172,-0.437962977,0,0,0,,,,,,,SHIELD,LB,new,y,./images/SHIELDLB.png,,,,,,,,m,0,2.5033,,,,,,,,0,115,115,132,1
,,,,,,,,,,,,,,,,,199285,18,2022-01-25_21h16.10.365,lexical_decision_task_DD_L3,2021.2.3,Win32,59.59830741,,,,,,,,,,,0.8048,0,,,,,,,,,,,,,,,,,,,,,,,,-0.010185172,-0.437962977,0,0,0,,,,,,,JAGUAR,LB,old,y,./images/JAGUARLB.png,,,,,,,,m,0,0.8048,,,,,,,,0,116,116,18,1
,,,,,,,,,,,,,,,,,199285,18,2022-01-25_21h16.10.365,lexical_decision_task_DD_L3,2021.2.3,Win32,59.59830741,,,,,,,,,,,0.5695,0,,,,,,,,,,,,,,,,,,,,,,,,-0.010185172,-0.437962977,0,0,0,,,,,,,SHORE,LB,old,y,./images/SHORELB.png,,,,,,,,m,0,0.5695,,,,,,,,0,117,117,12,1
,,,,,,,,,,,,,,,,,199285,18,2022-01-25_21h16.10.365,lexical_decision_task_DD_L3,2021.2.3,Win32,59.59830741,,,,,,,,,,,0.6351,0,,,,,,,,,,,,,,,,,,,,,,,,-0.010185172,-0.437962977,0,0,0,,,,,,,BANANA,C,new,y,./images/BANANA.png,,,,,,,,m,0,0.6351,,,,,,,,0,118,118,154,1
,,,,,,,,,,,,,,,,,199285,18,2022-01-25_21h16.10.365,lexical_decision_task_DD_L3,2021.2.3,Win32,59.59830741,,,,,,,,,,,1.2445,0,,,,,,,,,,,,,,,,,,,,,,,,-0.010185172,-0.437962977,0,0,0,,,,,,,BUNNY,C,new,y,./images/BUNNY.png,,,,,,,,z,0,1.2445,,,,,,,,0,119,119,97,1
,,,,,,,,,,,,,,,,,199285,18,2022-01-25_21h16.10.365,lexical_decision_task_DD_L3,2021.2.3,Win32,59.59830741,,,,,,,,,,,0.7678,0,,,,,,,,,,,,,,,,,,,,,,,,-0.010185172,-0.437962977,0,0,0,,,,,,,DOUGH,C,old,y,./images/DOUGH.png,,,,,,,,m,0,0.7678,,,,,,,,0,120,120,19,1
,,,,,,,,,,,,,,,,,199285,18,2022-01-25_21h16.10.365,lexical_decision_task_DD_L3,2021.2.3,Win32,59.59830741,,,,,,,,,,,0.7079,0,,,,,,,,,,,,,,,,,,,,,,,,-0.010185172,-0.437962977,0,0,0,,,,,,,PAINT,C,old,y,./images/PAINT.png,,,,,,,,m,0,0.7079,,,,,,,,0,121,121,7,1
,,,,,,,,,,,,,,,,,199285,18,2022-01-25_21h16.10.365,lexical_decision_task_DD_L3,2021.2.3,Win32,59.59830741,,,,,,,,,,,0.5845,0,,,,,,,,,,,,,,,,,,,,,,,,-0.010185172,-0.437962977,0,0,0,,,,,,,COUCH,HB,old,y,./images/COUCHHB.png,,,,,,,,m,0,0.5845,,,,,,,,0,122,122,77,1
,,,,,,,,,,,,,,,,,199285,18,2022-01-25_21h16.10.365,lexical_decision_task_DD_L3,2021.2.3,Win32,59.59830741,,,,,,,,,,,0.8005,0,,,,,,,,,,,,,,,,,,,,,,,,-0.010185172,-0.437962977,0,0,0,,,,,,,MIDGET,C,new,y,./images/MIDGET.png,,,,,,,,z,0,0.8005,,,,,,,,0,123,123,160,1
,,,,,,,,,,,,,,,,,199285,18,2022-01-25_21h16.10.365,lexical_decision_task_DD_L3,2021.2.3,Win32,59.59830741,,,,,,,,,,,1.0097,0,,,,,,,,,,,,,,,,,,,,,,,,-0.010185172,-0.437962977,0,0,0,,,,,,,SCREW,LB,old,y,./images/SCREWLB.png,,,,,,,,m,0,1.0097,,,,,,,,0,124,124,24,1
,,,,,,,,,,,,,,,,,199285,18,2022-01-25_21h16.10.365,lexical_decision_task_DD_L3,2021.2.3,Win32,59.59830741,,,,,,,,,,,0.7367,0,,,,,,,,,,,,,,,,,,,,,,,,-0.010185172,-0.437962977,0,0,0,space,,,,,,SPORT,LB,old,y,./images/SPORTLB.png,0.8072,,,,,,,z,0,0.7367,,,,,,,,0,125,125,48,1
,,,,,,,,,,,,,,,,,199285,18,2022-01-25_21h16.10.365,lexical_decision_task_DD_L3,2021.2.3,Win32,59.59830741,,,,,,,,,,,1.0973,0,,,,,,,,,,,,,,,,,,,,,,,,-0.010185172,-0.437962977,0,0,0,,,,,,,RHINO,LB,old,y,./images/RHINOLB.png,,,,,,,,m,0,1.0973,,,,,,,,0,126,126,9,1
,,,,,,,,,,,,,,,,,199285,18,2022-01-25_21h16.10.365,lexical_decision_task_DD_L3,2021.2.3,Win32,59.59830741,,,,,,,,,,,1.2743,0,,,,,,,,,,,,,,,,,,,,,,,,-0.010185172,-0.437962977,0,0,0,,,,,,,SPINE,HB,new,y,./images/SPINEHB.png,,,,,,,,m,0,1.2743,,,,,,,,0,127,127,149,1
,,,,,,,,,,,,,,,,,199285,18,2022-01-25_21h16.10.365,lexical_decision_task_DD_L3,2021.2.3,Win32,59.59830741,,,,,,,,,,,0.8606,0,,,,,,,,,,,,,,,,,,,,,,,,-0.010185172,-0.437962977,0,0,0,,,,,,,BUBBLE,HB,new,y,./images/BUBBLEHB.png,,,,,,,,z,0,0.8606,,,,,,,,0,128,128,155,1
,,,,,,,,,,,,,,,,,199285,18,2022-01-25_21h16.10.365,lexical_decision_task_DD_L3,2021.2.3,Win32,59.59830741,,,,,,,,,,,0.5342,0,,,,,,,,,,,,,,,,,,,,,,,,-0.010185172,-0.437962977,0,0,0,,,,,,,PEACH,HB,old,y,./images/PEACHHB.png,,,,,,,,m,0,0.5342,,,,,,,,0,129,129,35,1
,,,,,,,,,,,,,,,,,199285,18,2022-01-25_21h16.10.365,lexical_decision_task_DD_L3,2021.2.3,Win32,59.59830741,,,,,,,,,,,1.7235,0,,,,,,,,,,,,,,,,,,,,,,,,-0.010185172,-0.437962977,0,0,0,,,,,,,BANNER,C,old,y,./images/BANNER.png,,,,,,,,m,0,1.7235,,,,,,,,0,130,130,52,1
,,,,,,,,,,,,,,,,,199285,18,2022-01-25_21h16.10.365,lexical_decision_task_DD_L3,2021.2.3,Win32,59.59830741,,,,,,,,,,,0.6508,0,,,,,,,,,,,,,,,,,,,,,,,,-0.010185172,-0.437962977,0,0,0,,,,,,,ALLEY,C,new,y,./images/ALLEY.png,,,,,,,,z,0,0.6508,,,,,,,,0,131,131,139,1
,,,,,,,,,,,,,,,,,199285,18,2022-01-25_21h16.10.365,lexical_decision_task_DD_L3,2021.2.3,Win32,59.59830741,,,,,,,,,,,0.6021,0,,,,,,,,,,,,,,,,,,,,,,,,-0.010185172,-0.437962977,0,0,0,,,,,,,WEASEL,HB,old,y,./images/WEASELHB.png,,,,,,,,m,0,0.6021,,,,,,,,0,132,132,80,1
,,,,,,,,,,,,,,,,,199285,18,2022-01-25_21h16.10.365,lexical_decision_task_DD_L3,2021.2.3,Win32,59.59830741,,,,,,,,,,,0.6944,0,,,,,,,,,,,,,,,,,,,,,,,,-0.010185172,-0.437962977,0,0,0,,,,,,,CANOE,C,new,y,./images/CANOE.png,,,,,,,,z,0,0.6944,,,,,,,,0,133,133,142,1
,,,,,,,,,,,,,,,,,199285,18,2022-01-25_21h16.10.365,lexical_decision_task_DD_L3,2021.2.3,Win32,59.59830741,,,,,,,,,,,0.6231,0,,,,,,,,,,,,,,,,,,,,,,,,-0.010185172,-0.437962977,0,0,0,,,,,,,QUILL,C,old,y,./images/QUILL.png,,,,,,,,z,0,0.6231,,,,,,,,0,134,134,31,1
,,,,,,,,,,,,,,,,,199285,18,2022-01-25_21h16.10.365,lexical_decision_task_DD_L3,2021.2.3,Win32,59.59830741,,,,,,,,,,,0.8494,0,,,,,,,,,,,,,,,,,,,,,,,,-0.010185172,-0.437962977,0,0,0,,,,,,,BEARD,HB,old,y,./images/BEARDHB.png,,,,,,,,m,0,0.8494,,,,,,,,0,135,135,2,1
,,,,,,,,,,,,,,,,,199285,18,2022-01-25_21h16.10.365,lexical_decision_task_DD_L3,2021.2.3,Win32,59.59830741,,,,,,,,,,,9.2814,0,,,,,,,,,,,,,,,,,,,,,,,,-0.010185172,-0.437962977,0,0,0,,,,,,,LADDER,HB,old,y,./images/LADDERHB.png,,,,,,,,z,0,9.2814,,,,,,,,0,136,136,38,1
,,,,,,,,,,,,,,,,,199285,18,2022-01-25_21h16.10.365,lexical_decision_task_DD_L3,2021.2.3,Win32,59.59830741,,,,,,,,,,,1.0191,0,,,,,,,,,,,,,,,,,,,,,,,,-0.010185172,-0.437962977,0,0,0,,,,,,,SMOKER,HB,old,y,./images/SMOKERHB.png,,,,,,,,z,0,1.0191,,,,,,,,0,137,137,26,1
,,,,,,,,,,,,,,,,,199285,18,2022-01-25_21h16.10.365,lexical_decision_task_DD_L3,2021.2.3,Win32,59.59830741,,,,,,,,,,,1.1846,0,,,,,,,,,,,,,,,,,,,,,,,,-0.010185172,-0.437962977,0,0,0,,,,,,,FARMER,HB,old,y,./images/FARMERHB.png,,,,,,,,z,0,1.1846,,,,,,,,0,138,138,65,1
,,,,,,,,,,,,,,,,,199285,18,2022-01-25_21h16.10.365,lexical_decision_task_DD_L3,2021.2.3,Win32,59.59830741,,,,,,,,,,,1.0078,0,,,,,,,,,,,,,,,,,,,,,,,,-0.010185172,-0.437962977,0,0,0,,,,,,,CRADLE,HB,old,y,./images/CRADLEHB.png,,,,,,,,m,0,1.0078,,,,,,,,0,139,139,20,1
,,,,,,,,,,,,,,,,,199285,18,2022-01-25_21h16.10.365,lexical_decision_task_DD_L3,2021.2.3,Win32,59.59830741,,,,,,,,,,,0.8473,0,,,,,,,,,,,,,,,,,,,,,,,,-0.010185172,-0.437962977,0,0,0,,,,,,,TORCH,HB,old,y,./images/TORCHHB.png,,,,,,,,z,0,0.8473,,,,,,,,0,140,140,68,1
,,,,,,,,,,,,,,,,,199285,18,2022-01-25_21h16.10.365,lexical_decision_task_DD_L3,2021.2.3,Win32,59.59830741,,,,,,,,,,,0.8908,0,,,,,,,,,,,,,,,,,,,,,,,,-0.010185172,-0.437962977,0,0,0,,,,,,,HOCKEY,HB,new,y,./images/HOCKEYHB.png,,,,,,,,z,0,0.8908,,,,,,,,0,141,141,116,1
,,,,,,,,,,,,,,,,,199285,18,2022-01-25_21h16.10.365,lexical_decision_task_DD_L3,2021.2.3,Win32,59.59830741,,,,,,,,,,,0.9532,0,,,,,,,,,,,,,,,,,,,,,,,,-0.010185172,-0.437962977,0,0,0,,,,,,,ARTIST,C,new,y,./images/ARTIST.png,,,,,,,,z,0,0.9532,,,,,,,,0,142,142,145,1
,,,,,,,,,,,,,,,,,199285,18,2022-01-25_21h16.10.365,lexical_decision_task_DD_L3,2021.2.3,Win32,59.59830741,,,,,,,,,,,1.0524,0,,,,,,,,,,,,,,,,,,,,,,,,-0.010185172,-0.437962977,0,0,0,,,,,,,JELLY,C,old,y,./images/JELLY.png,,,,,,,,m,0,1.0524,,,,,,,,0,143,143,64,1
,,,,,,,,,,,,,,,,,199285,18,2022-01-25_21h16.10.365,lexical_decision_task_DD_L3,2021.2.3,Win32,59.59830741,,,,,,,,,,,0.653,0,,,,,,,,,,,,,,,,,,,,,,,,-0.010185172,-0.437962977,0,0,0,,,,,,,DESERT,C,new,y,./images/DESERT.png,,,,,,,,m,0,0.653,,,,,,,,0,144,144,136,1
,,,,,,,,,,,,,,,,,199285,18,2022-01-25_21h16.10.365,lexical_decision_task_DD_L3,2021.2.3,Win32,59.59830741,,,,,,,,,,,0.7345,0,,,,,,,,,,,,,,,,,,,,,,,,-0.010185172,-0.437962977,0,0,0,,,,,,,BROOM,LB,new,y,./images/BROOMLB.png,,,,,,,,m,0,0.7345,,,,,,,,0,145,145,162,1
,,,,,,,,,,,,,,,,,199285,18,2022-01-25_21h16.10.365,lexical_decision_task_DD_L3,2021.2.3,Win32,59.59830741,,,,,,,,,,,0.8105,0,,,,,,,,,,,,,,,,,,,,,,,,-0.010185172,-0.437962977,0,0,0,,,,,,,FLASK,LB,new,y,./images/FLASKLB.png,,,,,,,,z,0,0.8105,,,,,,,,0,146,146,156,1
,,,,,,,,,,,,,,,,,199285,18,2022-01-25_21h16.10.365,lexical_decision_task_DD_L3,2021.2.3,Win32,59.59830741,,,,,,,,,,,2.3698,0,,,,,,,,,,,,,,,,,,,,,,,,-0.010185172,-0.437962977,0,0,0,,,,,,,PASTA,HB,old,y,./images/PASTAHB.png,,,,,,,,m,0,2.3698,,,,,,,,0,147,147,5,1
,,,,,,,,,,,,,,,,,199285,18,2022-01-25_21h16.10.365,lexical_decision_task_DD_L3,2021.2.3,Win32,59.59830741,,,,,,,,,,,0.7381,0,,,,,,,,,,,,,,,,,,,,,,,,-0.010185172,-0.437962977,0,0,0,,,,,,,STREAM,HB,new,y,./images/STREAMHB.png,,,,,,,,z,0,0.7381,,,,,,,,0,148,148,125,1
,,,,,,,,,,,,,,,,,199285,18,2022-01-25_21h16.10.365,lexical_decision_task_DD_L3,2021.2.3,Win32,59.59830741,,,,,,,,,,,0.7108,0,,,,,,,,,,,,,,,,,,,,,,,,-0.010185172,-0.437962977,0,0,0,,,,,,,MONKEY,LB,new,y,./images/MONKEYLB.png,,,,,,,,z,0,0.7108,,,,,,,,0,149,149,129,1
,,,,,,,,,,,,,,,,,199285,18,2022-01-25_21h16.10.365,lexical_decision_task_DD_L3,2021.2.3,Win32,59.59830741,,,,,,,,,,,0.7181,0,,,,,,,,,,,,,,,,,,,,,,,,-0.010185172,-0.437962977,0,0,0,,,,,,,BISHOP,C,new,y,./images/BISHOP.png,,,,,,,,z,0,0.7181,,,,,,,,0,150,150,133,1
,,,,,,,,,,,,,,,,,199285,18,2022-01-25_21h16.10.365,lexical_decision_task_DD_L3,2021.2.3,Win32,59.59830741,,,,,,,,,,,0.64,0,,,,,,,,,,,,,,,,,,,,,,,,-0.010185172,-0.437962977,0,0,0,,,,,,,TWINS,LB,old,y,./images/TWINSLB.png,,,,,,,,z,0,0.64,,,,,,,,0,151,151,60,1
,,,,,,,,,,,,,,,,,199285,18,2022-01-25_21h16.10.365,lexical_decision_task_DD_L3,2021.2.3,Win32,59.59830741,,,,,,,,,,,0.7442,0,,,,,,,,,,,,,,,,,,,,,,,,-0.010185172,-0.437962977,0,0,0,,,,,,,CANYON,C,old,y,./images/CANYON.png,,,,,,,,z,0,0.7442,,,,,,,,0,152,152,34,1
,,,,,,,,,,,,,,,,,199285,18,2022-01-25_21h16.10.365,lexical_decision_task_DD_L3,2021.2.3,Win32,59.59830741,,,,,,,,,,,0.6417,0,,,,,,,,,,,,,,,,,,,,,,,,-0.010185172,-0.437962977,0,0,0,,,,,,,CANDY,LB,new,y,./images/CANDYLB.png,,,,,,,,z,0,0.6417,,,,,,,,0,153,153,123,1
,,,,,,,,,,,,,,,,,199285,18,2022-01-25_21h16.10.365,lexical_decision_task_DD_L3,2021.2.3,Win32,59.59830741,,,,,,,,,,,0.5687,0,,,,,,,,,,,,,,,,,,,,,,,,-0.010185172,-0.437962977,0,0,0,,,,,,,WHISKY,HB,new,y,./images/WHISKYHB.png,,,,,,,,z,0,0.5687,,,,,,,,0,154,154,167,1
,,,,,,,,,,,,,,,,,199285,18,2022-01-25_21h16.10.365,lexical_decision_task_DD_L3,2021.2.3,Win32,59.59830741,,,,,,,,,,,0.6346,0,,,,,,,,,,,,,,,,,,,,,,,,-0.010185172,-0.437962977,0,0,0,,,,,,,MAGGOT,LB,old,y,./images/MAGGOTLB.png,,,,,,,,z,0,0.6346,,,,,,,,0,155,155,33,1
,,,,,,,,,,,,,,,,,199285,18,2022-01-25_21h16.10.365,lexical_decision_task_DD_L3,2021.2.3,Win32,59.59830741,,,,,,,,,,,0.652,0,,,,,,,,,,,,,,,,,,,,,,,,-0.010185172,-0.437962977,0,0,0,,,,,,,SNAKE,C,new,y,./images/SNAKE.png,,,,,,,,z,0,0.652,,,,,,,,0,156,156,124,1
,,,,,,,,,,,,,,,,,199285,18,2022-01-25_21h16.10.365,lexical_decision_task_DD_L3,2021.2.3,Win32,59.59830741,,,,,,,,,,,0.7528,0,,,,,,,,,,,,,,,,,,,,,,,,-0.010185172,-0.437962977,0,0,0,,,,,,,CHERRY,LB,new,y,./images/CHERRYLB.png,,,,,,,,z,0,0.7528,,,,,,,,0,157,157,138,1
,,,,,,,,,,,,,,,,,199285,18,2022-01-25_21h16.10.365,lexical_decision_task_DD_L3,2021.2.3,Win32,59.59830741,,,,,,,,,,,0.8038,0,,,,,,,,,,,,,,,,,,,,,,,,-0.010185172,-0.437962977,0,0,0,,,,,,,FINGER,LB,old,y,./images/FINGERLB.png,,,,,,,,m,0,0.8038,,,,,,,,0,158,158,3,1
,,,,,,,,,,,,,,,,,199285,18,2022-01-25_21h16.10.365,lexical_decision_task_DD_L3,2021.2.3,Win32,59.59830741,,,,,,,,,,,0.731,0,,,,,,,,,,,,,,,,,,,,,,,,-0.010185172,-0.437962977,0,0,0,,,,,,,FALCON,C,old,y,./images/FALCON.png,,,,,,,,z,0,0.731,,,,,,,,0,159,159,28,1
,,,,,,,,,,,,,,,,,199285,18,2022-01-25_21h16.10.365,lexical_decision_task_DD_L3,2021.2.3,Win32,59.59830741,,,,,,,,,,,0.62,0,,,,,,,,,,,,,,,,,,,,,,,,-0.010185172,-0.437962977,0,0,0,,,,,,,POODLE,LB,old,y,./images/POODLELB.png,,,,,,,,z,0,0.62,,,,,,,,0,160,160,81,1
,,,,,,,,,,,,,,,,,199285,18,2022-01-25_21h16.10.365,lexical_decision_task_DD_L3,2021.2.3,Win32,59.59830741,,,,,,,,,,,0.8343,0,,,,,,,,,,,,,,,,,,,,,,,,-0.010185172,-0.437962977,0,0,0,,,,,,,SUNSET,C,old,y,./images/SUNSET.png,,,,,,,,z,0,0.8343,,,,,,,,0,161,161,82,1
,,,,,,,,,,,,,,,,,199285,18,2022-01-25_21h16.10.365,lexical_decision_task_DD_L3,2021.2.3,Win32,59.59830741,,,,,,,,,,,0.6927,0,,,,,,,,,,,,,,,,,,,,,,,,-0.010185172,-0.437962977,0,0,0,,,,,,,BAMBOO,HB,new,y,./images/BAMBOOHB.png,,,,,,,,m,0,0.6927,,,,,,,,0,162,162,89,1
,,,,,,,,,,,,,,,,,199285,18,2022-01-25_21h16.10.365,lexical_decision_task_DD_L3,2021.2.3,Win32,59.59830741,,,,,,,,,,,0.5672,0,,,,,,,,,,,,,,,,,,,,,,,,-0.010185172,-0.437962977,0,0,0,,,,,,,ONION,LB,old,y,./images/ONIONLB.png,,,,,,,,z,0,0.5672,,,,,,,,0,163,163,51,1
,,,,,,,,,,,,,,,,,199285,18,2022-01-25_21h16.10.365,lexical_decision_task_DD_L3,2021.2.3,Win32,59.59830741,,,,,,,,,,,0.6431,0,,,,,,,,,,,,,,,,,,,,,,,,-0.010185172,-0.437962977,0,0,0,,,,,,,SAUCE,LB,new,y,./images/SAUCELB.png,,,,,,,,z,0,0.6431,,,,,,,,0,164,164,135,1
,,,,,,,,,,,,,,,,,199285,18,2022-01-25_21h16.10.365,lexical_decision_task_DD_L3,2021.2.3,Win32,59.59830741,,,,,,,,,,,0.7561,0,,,,,,,,,,,,,,,,,,,,,,,,-0.010185172,-0.437962977,0,0,0,,,,,,,WHEEL,HB,new,y,./images/WHEELHB.png,,,,,,,,z,0,0.7561,,,,,,,,0,165,165,161,1
,,,,,,,,,,,,,,,,,199285,18,2022-01-25_21h16.10.365,lexical_decision_task_DD_L3,2021.2.3,Win32,59.59830741,,,,,,,,,,,0.6349,0,,,,,,,,,,,,,,,,,,,,,,,,-0.010185172,-0.437962977,0,0,0,,,,,,,SLOPE,LB,new,y,./images/SLOPELB.png,,,,,,,,m,0,0.6349,,,,,,,,0,166,166,114,1
,,,,,,,,,,,,,,,,,199285,18,2022-01-25_21h16.10.365,lexical_decision_task_DD_L3,2021.2.3,Win32,59.59830741,,,,,,,,,,,2.1607,0,,,,,,,,,,,,,,,,,,,,,,,,-0.010185172,-0.437962977,0,0,0,,,,,,,DIVER,LB,new,y,./images/DIVERLB.png,,,,,,,,z,0,2.1607,,,,,,,,0,167,167,93,1
