key_resp.keys,instr_done_touch.x,instr_done_touch.y,instr_done_touch.leftButton,instr_done_touch.midButton,instr_done_touch.rightButton,instr_done_touch.clicked_name,instruction_pages.thisRepN,instruction_pages.thisTrialN,instruction_pages.thisN,instruction_pages.thisIndex,instruction_pages.ran,pageN,phase,instruct_text,has_image,instruct_image,participant,age,date,expName,psychopyVersion,OS,frameRate,key_resp.rt,response.keys,response.corr,response.rt,touch_resp.x,touch_resp.y,touch_resp.leftButton,touch_resp.midButton,touch_resp.rightButton,touch_resp.time,touch_resp.clicked_name,rt,corr,practrials.thisRepN,practrials.thisTrialN,practrials.thisN,practrials.thisIndex,practrials.ran,TrialID,Target,corrAns,end_of_practice_trials_pages.thisRepN,end_of_practice_trials_pages.thisTrialN,end_of_practice_trials_pages.thisN,end_of_practice_trials_pages.thisIndex,end_of_practice_trials_pages.ran,key_resp_2.keys,key_resp_2.corr,key_resp_2.rt,targ_click.x,targ_click.y,targ_click.leftButton,targ_click.midButton,targ_click.rightButton,targ_click.time,targ_click.clicked_name,break_done_touch.x,break_done_touch.y,break_done_touch.leftButton,break_done_touch.midButton,break_done_touch.rightButton,break_done_keyboard.keys,maintrials.thisRepN,maintrials.thisTrialN,maintrials.thisN,maintrials.thisIndex,maintrials.ran,string,blur,study,lex,stim_path,break_done_keyboard.rt,test_instructions.thisRepN,test_instructions.thisTrialN,test_instructions.thisN,test_instructions.thisIndex,test_instructions.ran,key_resp_3.keys,key_resp_3.corr,key_resp_3.rt,test_click.x,test_click.y,test_click.leftButton,test_click.midButton,test_click.rightButton,test_click.time,test_click.clicked_name,test_phase.thisRepN,test_phase.thisTrialN,test_phase.thisN,test_phase.thisIndex,test_phase.ran
,0.043762998,-0.384684075,1,0,0,instr_done_button,0,0,0,0,1,1,instructions,"INSTRUCTIONS
At the start of each trial, look at the plus sign  (+) in the center of the screen.  This tells you that a trial is about to begin and where to look. Second, the plus sign will disappear and a string of letters will appear. Your task is to determine if the string of letters is a word or not. If the item is a word press the M key (on keyboard)  or touch the word button (phone/tablet).  If the item is not a word,  press the  Z key (on keyboard)  or touch the nonword button (on phone/tablet). 
Press the space bar or touch  continue.",0,,199204,18,2022-01-29_12h45.57.449,lexical_decision_task_DD,2021.2.3,MacIntel,59.94125757,,,,,,,,,,,,,,,,,,,,,,,,,,,,,,,,,,,,,,,,,,,,,,,,,,,,,,,,,,,,,,,,,,,,,,,,,
space,-0.025345018,-0.301431161,0,0,0,,0,1,1,1,1,2,instructions,"If your device has a keyboard, press the 'Z' key for nonwords and the 'M' key for words.





Press the space bar or touch the button below to continue.",0,keyboard-example.gif,199204,18,2022-01-29_12h45.57.449,lexical_decision_task_DD,2021.2.3,MacIntel,59.94125757,4.7921,,,,,,,,,,,,,,,,,,,,,,,,,,,,,,,,,,,,,,,,,,,,,,,,,,,,,,,,,,,,,,,,,,,,,,,,
space,-0.039840642,-0.266987666,0,0,0,,0,2,2,2,1,3,instructions,"If you are using a touchscreen only device, use the buttons on the screen. Do not use the mouse.





Press the space bar or touch the button below to continue.",0,touchscreen-example.gif,199204,18,2022-01-29_12h45.57.449,lexical_decision_task_DD,2021.2.3,MacIntel,59.94125757,5.0839,,,,,,,,,,,,,,,,,,,,,,,,,,,,,,,,,,,,,,,,,,,,,,,,,,,,,,,,,,,,,,,,,,,,,,,,
space,-0.039840642,-0.266987666,0,0,0,,0,3,3,3,1,4,instructions,"It is very important that you respond as quickly and accurately as possible, as each letter string will only be on the screen for two seconds. If you do not respond within this time, the message 'Too slow!' will be displayed and the experiment will progress to the next letter string. The first 20 trials will be practice trials and you will receive feedback on your answers. 

Press the space bar or touch the button below to start the practice trials.",0,,199204,18,2022-01-29_12h45.57.449,lexical_decision_task_DD,2021.2.3,MacIntel,59.94125757,11.0964,,,,,,,,,,,,,,,,,,,,,,,,,,,,,,,,,,,,,,,,,,,,,,,,,,,,,,,,,,,,,,,,,,,,,,,,
,,,,,,,,,,,,,,,,,199204,18,2022-01-29_12h45.57.449,lexical_decision_task_DD,2021.2.3,MacIntel,59.94125757,,z,1,1.2602,,,,,,,,1.2602,1,0,0,0,14,1,1001,THRALE,z,,,,,,,,,,,,,,,,,,,,,,,,,,,,,,,,,,,,,,,,,,,,,,,,,,,,
,,,,,,,,,,,,,,,,,199204,18,2022-01-29_12h45.57.449,lexical_decision_task_DD,2021.2.3,MacIntel,59.94125757,,z,1,0.9478,,,,,,,,0.9478,1,0,1,1,9,1,1001,FARINY,z,,,,,,,,,,,,,,,,,,,,,,,,,,,,,,,,,,,,,,,,,,,,,,,,,,,,
,,,,,,,,,,,,,,,,,199204,18,2022-01-29_12h45.57.449,lexical_decision_task_DD,2021.2.3,MacIntel,59.94125757,,m,1,1.2138,,,,,,,,1.2138,1,0,2,2,6,1,1001,ZOMBIE,m,,,,,,,,,,,,,,,,,,,,,,,,,,,,,,,,,,,,,,,,,,,,,,,,,,,,
,,,,,,,,,,,,,,,,,199204,18,2022-01-29_12h45.57.449,lexical_decision_task_DD,2021.2.3,MacIntel,59.94125757,,z,1,0.9609,,,,,,,,0.9609,1,0,3,3,15,1,1001,WHAISE,z,,,,,,,,,,,,,,,,,,,,,,,,,,,,,,,,,,,,,,,,,,,,,,,,,,,,
,,,,,,,,,,,,,,,,,199204,18,2022-01-29_12h45.57.449,lexical_decision_task_DD,2021.2.3,MacIntel,59.94125757,,m,1,0.8024,,,,,,,,0.8024,1,0,4,4,1,1,1001,ADJUST,m,,,,,,,,,,,,,,,,,,,,,,,,,,,,,,,,,,,,,,,,,,,,,,,,,,,,
,,,,,,,,,,,,,,,,,199204,18,2022-01-29_12h45.57.449,lexical_decision_task_DD,2021.2.3,MacIntel,59.94125757,,z,1,1.4389,,,,,,,,1.4389,1,0,5,5,10,1,1001,INLADE,z,,,,,,,,,,,,,,,,,,,,,,,,,,,,,,,,,,,,,,,,,,,,,,,,,,,,
,,,,,,,,,,,,,,,,,199204,18,2022-01-29_12h45.57.449,lexical_decision_task_DD,2021.2.3,MacIntel,59.94125757,,z,1,1.1894,,,,,,,,1.1894,1,0,6,6,13,1,1001,ROUPET,z,,,,,,,,,,,,,,,,,,,,,,,,,,,,,,,,,,,,,,,,,,,,,,,,,,,,
,,,,,,,,,,,,,,,,,199204,18,2022-01-29_12h45.57.449,lexical_decision_task_DD,2021.2.3,MacIntel,59.94125757,,m,1,0.7941,,,,,,,,0.7941,1,0,7,7,4,1,1001,SQUEAK,m,,,,,,,,,,,,,,,,,,,,,,,,,,,,,,,,,,,,,,,,,,,,,,,,,,,,
,,,,,,,,,,,,,,,,,199204,18,2022-01-29_12h45.57.449,lexical_decision_task_DD,2021.2.3,MacIntel,59.94125757,,m,1,0.7599,,,,,,,,0.7599,1,0,8,8,0,1,1001,UTOPIA,m,,,,,,,,,,,,,,,,,,,,,,,,,,,,,,,,,,,,,,,,,,,,,,,,,,,,
,,,,,,,,,,,,,,,,,199204,18,2022-01-29_12h45.57.449,lexical_decision_task_DD,2021.2.3,MacIntel,59.94125757,,z,1,1.0023,,,,,,,,1.0023,1,0,9,9,12,1,1001,SPRINY,z,,,,,,,,,,,,,,,,,,,,,,,,,,,,,,,,,,,,,,,,,,,,,,,,,,,,
,,,,,,,,,,,,,,,,,199204,18,2022-01-29_12h45.57.449,lexical_decision_task_DD,2021.2.3,MacIntel,59.94125757,,m,1,0.7323,,,,,,,,0.7323,1,0,10,10,5,1,1001,OBTAIN,m,,,,,,,,,,,,,,,,,,,,,,,,,,,,,,,,,,,,,,,,,,,,,,,,,,,,
,,,,,,,,,,,,,,,,,199204,18,2022-01-29_12h45.57.449,lexical_decision_task_DD,2021.2.3,MacIntel,59.94125757,,m,1,0.7337,,,,,,,,0.7337,1,0,11,11,3,1,1001,MATRIX,m,,,,,,,,,,,,,,,,,,,,,,,,,,,,,,,,,,,,,,,,,,,,,,,,,,,,
,,,,,,,,,,,,,,,,,199204,18,2022-01-29_12h45.57.449,lexical_decision_task_DD,2021.2.3,MacIntel,59.94125757,,z,1,1.0108,,,,,,,,1.0108,1,0,12,12,11,1,1001,RASHET,z,,,,,,,,,,,,,,,,,,,,,,,,,,,,,,,,,,,,,,,,,,,,,,,,,,,,
,,,,,,,,,,,,,,,,,199204,18,2022-01-29_12h45.57.449,lexical_decision_task_DD,2021.2.3,MacIntel,59.94125757,,m,1,0.5897,,,,,,,,0.5897,1,0,13,13,2,1,1001,ALMOND,m,,,,,,,,,,,,,,,,,,,,,,,,,,,,,,,,,,,,,,,,,,,,,,,,,,,,
,,,,,,,,,,,,,,,,,199204,18,2022-01-29_12h45.57.449,lexical_decision_task_DD,2021.2.3,MacIntel,59.94125757,,z,1,1.0327,,,,,,,,1.0327,1,0,14,14,8,1,1001,ASLERT,z,,,,,,,,,,,,,,,,,,,,,,,,,,,,,,,,,,,,,,,,,,,,,,,,,,,,
,,,,,,,,,,,,,,,,,199204,18,2022-01-29_12h45.57.449,lexical_decision_task_DD,2021.2.3,MacIntel,59.94125757,,m,1,0.6348,,,,,,,,0.6348,1,0,15,15,7,1,1001,VOLUME,m,,,,,,,,,,,,,,,,,,,,,,,,,,,,,,,,,,,,,,,,,,,,,,,,,,,,
space,-0.008070995,-0.025635218,0,0,0,,,,,,,1,end_of_practice,"You have completed the practice trials. During the experimental trials, you will not receive feedback. 
Before you begin, please ensure that you are in a comfortable and quiet location and will not be disturbed for about 15 minutes, as we cannot use your data if you do not complete all the trials. 
 When you are ready to start the experimental trials, please press space or touch the button below.",,,199204,18,2022-01-29_12h45.57.449,lexical_decision_task_DD,2021.2.3,MacIntel,59.94125757,13.5184,,,,,,,,,,,,,,,,,,,,,0,0,0,0,1,,,,,,,,,,,,,,,,,,,,,,,,,,,,,,,,,,,,,,,,,,,,,,,
,,,,,,,,,,,,,,,,,199204,18,2022-01-29_12h45.57.449,lexical_decision_task_DD,2021.2.3,MacIntel,59.94125757,,,,,,,,,,,,2.002,0,,,,,,,,,,,,,,z,0,2.002,,,,,,,,-0.008070995,-0.025635218,0,0,0,,0,0,0,31,1,QUILL,HB,old,m,./images/QUILLHB.png,,,,,,,,,,,,,,,,,,,,,
,,,,,,,,,,,,,,,,,199204,18,2022-01-29_12h45.57.449,lexical_decision_task_DD,2021.2.3,MacIntel,59.94125757,,,,,,,,,,,,2.3897,0,,,,,,,,,,,,,,m,0,2.3897,,,,,,,,-0.008070995,-0.025635218,0,0,0,,0,1,1,134,1,TROSS,LB,old,z,./images/TROSSLB.png,,,,,,,,,,,,,,,,,,,,,
,,,,,,,,,,,,,,,,,199204,18,2022-01-29_12h45.57.449,lexical_decision_task_DD,2021.2.3,MacIntel,59.94125757,,,,,,,,,,,,1.208,1,,,,,,,,,,,,,,z,1,1.208,,,,,,,,-0.008070995,-0.025635218,0,0,0,,0,2,2,147,1,ZOLES,C,old,z,./images/ZOLES.png,,,,,,,,,,,,,,,,,,,,,
,,,,,,,,,,,,,,,,,199204,18,2022-01-29_12h45.57.449,lexical_decision_task_DD,2021.2.3,MacIntel,59.94125757,,,,,,,,,,,,1.1681,1,,,,,,,,,,,,,,z,1,1.1681,,,,,,,,-0.008070995,-0.025635218,0,0,0,,0,3,3,143,1,MONGS,LB,old,z,./images/MONGSLB.png,,,,,,,,,,,,,,,,,,,,,
,,,,,,,,,,,,,,,,,199204,18,2022-01-29_12h45.57.449,lexical_decision_task_DD,2021.2.3,MacIntel,59.94125757,,,,,,,,,,,,0.8157,1,,,,,,,,,,,,,,m,1,0.8157,,,,,,,,-0.008070995,-0.025635218,0,0,0,,0,4,4,19,1,DOUGH,HB,old,m,./images/DOUGHHB.png,,,,,,,,,,,,,,,,,,,,,
,,,,,,,,,,,,,,,,,199204,18,2022-01-29_12h45.57.449,lexical_decision_task_DD,2021.2.3,MacIntel,59.94125757,,,,,,,,,,,,0.9782,1,,,,,,,,,,,,,,z,1,0.9782,,,,,,,,-0.008070995,-0.025635218,0,0,0,,0,5,5,89,1,DRIEK,LB,old,z,./images/DRIEKLB.png,,,,,,,,,,,,,,,,,,,,,
,,,,,,,,,,,,,,,,,199204,18,2022-01-29_12h45.57.449,lexical_decision_task_DD,2021.2.3,MacIntel,59.94125757,,,,,,,,,,,,0.6845,1,,,,,,,,,,,,,,m,1,0.6845,,,,,,,,-0.008070995,-0.025635218,0,0,0,,0,6,6,70,1,URINE,HB,old,m,./images/URINEHB.png,,,,,,,,,,,,,,,,,,,,,
,,,,,,,,,,,,,,,,,199204,18,2022-01-29_12h45.57.449,lexical_decision_task_DD,2021.2.3,MacIntel,59.94125757,,,,,,,,,,,,1.0336,1,,,,,,,,,,,,,,m,1,1.0336,,,,,,,,-0.008070995,-0.025635218,0,0,0,,0,7,7,52,1,BANNER,HB,old,m,./images/BANNERHB.png,,,,,,,,,,,,,,,,,,,,,
,,,,,,,,,,,,,,,,,199204,18,2022-01-29_12h45.57.449,lexical_decision_task_DD,2021.2.3,MacIntel,59.94125757,,,,,,,,,,,,0.9063,1,,,,,,,,,,,,,,z,1,0.9063,,,,,,,,-0.008070995,-0.025635218,0,0,0,,0,8,8,129,1,PRANS,C,old,z,./images/PRANS.png,,,,,,,,,,,,,,,,,,,,,
,,,,,,,,,,,,,,,,,199204,18,2022-01-29_12h45.57.449,lexical_decision_task_DD,2021.2.3,MacIntel,59.94125757,,,,,,,,,,,,0.9675,1,,,,,,,,,,,,,,z,1,0.9675,,,,,,,,-0.008070995,-0.025635218,0,0,0,,0,9,9,86,1,AIFED,LB,old,z,./images/AIFEDLB.png,,,,,,,,,,,,,,,,,,,,,
,,,,,,,,,,,,,,,,,199204,18,2022-01-29_12h45.57.449,lexical_decision_task_DD,2021.2.3,MacIntel,59.94125757,,,,,,,,,,,,0.7337,1,,,,,,,,,,,,,,m,1,0.7337,,,,,,,,-0.008070995,-0.025635218,0,0,0,,0,10,10,40,1,SWING,HB,old,m,./images/SWINGHB.png,,,,,,,,,,,,,,,,,,,,,
,,,,,,,,,,,,,,,,,199204,18,2022-01-29_12h45.57.449,lexical_decision_task_DD,2021.2.3,MacIntel,59.94125757,,,,,,,,,,,,0.6845,1,,,,,,,,,,,,,,m,1,0.6845,,,,,,,,-0.008070995,-0.025635218,0,0,0,,0,11,11,54,1,TRIPOD,C,old,m,./images/TRIPOD.png,,,,,,,,,,,,,,,,,,,,,
,,,,,,,,,,,,,,,,,199204,18,2022-01-29_12h45.57.449,lexical_decision_task_DD,2021.2.3,MacIntel,59.94125757,,,,,,,,,,,,1.2396,1,,,,,,,,,,,,,,m,1,1.2396,,,,,,,,-0.008070995,-0.025635218,0,0,0,,0,12,12,4,1,MUSCLE,HB,old,m,./images/MUSCLEHB.png,,,,,,,,,,,,,,,,,,,,,
,,,,,,,,,,,,,,,,,199204,18,2022-01-29_12h45.57.449,lexical_decision_task_DD,2021.2.3,MacIntel,59.94125757,,,,,,,,,,,,0.757,0,,,,,,,,,,,,,,z,0,0.757,,,,,,,,-0.008070995,-0.025635218,0,0,0,,0,13,13,8,1,TULIP,LB,old,m,./images/TULIPLB.png,,,,,,,,,,,,,,,,,,,,,
,,,,,,,,,,,,,,,,,199204,18,2022-01-29_12h45.57.449,lexical_decision_task_DD,2021.2.3,MacIntel,59.94125757,,,,,,,,,,,,1.04,1,,,,,,,,,,,,,,m,1,1.04,,,,,,,,-0.008070995,-0.025635218,0,0,0,,0,14,14,22,1,MELON,HB,old,m,./images/MELONHB.png,,,,,,,,,,,,,,,,,,,,,
,,,,,,,,,,,,,,,,,199204,18,2022-01-29_12h45.57.449,lexical_decision_task_DD,2021.2.3,MacIntel,59.94125757,,,,,,,,,,,,0.8297,1,,,,,,,,,,,,,,z,1,0.8297,,,,,,,,-0.008070995,-0.025635218,0,0,0,,0,15,15,119,1,PAFER,LB,old,z,./images/PAFERLB.png,,,,,,,,,,,,,,,,,,,,,
,,,,,,,,,,,,,,,,,199204,18,2022-01-29_12h45.57.449,lexical_decision_task_DD,2021.2.3,MacIntel,59.94125757,,,,,,,,,,,,1.0203,1,,,,,,,,,,,,,,z,1,1.0203,,,,,,,,-0.008070995,-0.025635218,0,0,0,,0,16,16,152,1,FRAIN,LB,old,z,./images/FRAINLB.png,,,,,,,,,,,,,,,,,,,,,
,,,,,,,,,,,,,,,,,199204,18,2022-01-29_12h45.57.449,lexical_decision_task_DD,2021.2.3,MacIntel,59.94125757,,,,,,,,,,,,1.7773,1,,,,,,,,,,,,,,z,1,1.7773,,,,,,,,-0.008070995,-0.025635218,0,0,0,,0,17,17,130,1,CRILL,HB,old,z,./images/CRILLHB.png,,,,,,,,,,,,,,,,,,,,,
,,,,,,,,,,,,,,,,,199204,18,2022-01-29_12h45.57.449,lexical_decision_task_DD,2021.2.3,MacIntel,59.94125757,,,,,,,,,,,,0.7785,1,,,,,,,,,,,,,,m,1,0.7785,,,,,,,,-0.008070995,-0.025635218,0,0,0,,0,18,18,10,1,BELLY,HB,old,m,./images/BELLYHB.png,,,,,,,,,,,,,,,,,,,,,
,,,,,,,,,,,,,,,,,199204,18,2022-01-29_12h45.57.449,lexical_decision_task_DD,2021.2.3,MacIntel,59.94125757,,,,,,,,,,,,1.6083,1,,,,,,,,,,,,,,z,1,1.6083,,,,,,,,-0.008070995,-0.025635218,0,0,0,,0,19,19,159,1,CUDDY,C,old,z,./images/CUDDY.png,,,,,,,,,,,,,,,,,,,,,
,,,,,,,,,,,,,,,,,199204,18,2022-01-29_12h45.57.449,lexical_decision_task_DD,2021.2.3,MacIntel,59.94125757,,,,,,,,,,,,0.966,1,,,,,,,,,,,,,,z,1,0.966,,,,,,,,-0.008070995,-0.025635218,0,0,0,,0,20,20,161,1,BLAPS,LB,old,z,./images/BLAPSLB.png,,,,,,,,,,,,,,,,,,,,,
,,,,,,,,,,,,,,,,,199204,18,2022-01-29_12h45.57.449,lexical_decision_task_DD,2021.2.3,MacIntel,59.94125757,,,,,,,,,,,,0.8924,1,,,,,,,,,,,,,,m,1,0.8924,,,,,,,,-0.008070995,-0.025635218,0,0,0,,0,21,21,75,1,GRAIN,C,old,m,./images/GRAIN.png,,,,,,,,,,,,,,,,,,,,,
,,,,,,,,,,,,,,,,,199204,18,2022-01-29_12h45.57.449,lexical_decision_task_DD,2021.2.3,MacIntel,59.94125757,,,,,,,,,,,,0.8255,1,,,,,,,,,,,,,,m,1,0.8255,,,,,,,,-0.008070995,-0.025635218,0,0,0,,0,22,22,72,1,NOOSE,C,old,m,./images/NOOSE.png,,,,,,,,,,,,,,,,,,,,,
,,,,,,,,,,,,,,,,,199204,18,2022-01-29_12h45.57.449,lexical_decision_task_DD,2021.2.3,MacIntel,59.94125757,,,,,,,,,,,,0.7594,1,,,,,,,,,,,,,,m,1,0.7594,,,,,,,,-0.008070995,-0.025635218,0,0,0,,0,23,23,18,1,JAGUAR,C,old,m,./images/JAGUAR.png,,,,,,,,,,,,,,,,,,,,,
,,,,,,,,,,,,,,,,,199204,18,2022-01-29_12h45.57.449,lexical_decision_task_DD,2021.2.3,MacIntel,59.94125757,,,,,,,,,,,,1.4072,1,,,,,,,,,,,,,,z,1,1.4072,,,,,,,,-0.008070995,-0.025635218,0,0,0,,0,24,24,148,1,JOMS,HB,old,z,./images/JOMSHB.png,,,,,,,,,,,,,,,,,,,,,
,,,,,,,,,,,,,,,,,199204,18,2022-01-29_12h45.57.449,lexical_decision_task_DD,2021.2.3,MacIntel,59.94125757,,,,,,,,,,,,0.9272,1,,,,,,,,,,,,,,z,1,0.9272,,,,,,,,-0.008070995,-0.025635218,0,0,0,,0,25,25,105,1,MOKER,C,old,z,./images/MOKER.png,,,,,,,,,,,,,,,,,,,,,
,,,,,,,,,,,,,,,,,199204,18,2022-01-29_12h45.57.449,lexical_decision_task_DD,2021.2.3,MacIntel,59.94125757,,,,,,,,,,,,0.8388,1,,,,,,,,,,,,,,m,1,0.8388,,,,,,,,-0.008070995,-0.025635218,0,0,0,,0,26,26,49,1,DRUMS,HB,old,m,./images/DRUMSHB.png,,,,,,,,,,,,,,,,,,,,,
,,,,,,,,,,,,,,,,,199204,18,2022-01-29_12h45.57.449,lexical_decision_task_DD,2021.2.3,MacIntel,59.94125757,,,,,,,,,,,,1.0431,1,,,,,,,,,,,,,,m,1,1.0431,,,,,,,,-0.008070995,-0.025635218,0,0,0,,0,27,27,55,1,MUFFIN,HB,old,m,./images/MUFFINHB.png,,,,,,,,,,,,,,,,,,,,,
,,,,,,,,,,,,,,,,,199204,18,2022-01-29_12h45.57.449,lexical_decision_task_DD,2021.2.3,MacIntel,59.94125757,,,,,,,,,,,,0.8201,1,,,,,,,,,,,,,,m,1,0.8201,,,,,,,,-0.008070995,-0.025635218,0,0,0,,0,28,28,33,1,MAGGOT,C,old,m,./images/MAGGOT.png,,,,,,,,,,,,,,,,,,,,,
,,,,,,,,,,,,,,,,,199204,18,2022-01-29_12h45.57.449,lexical_decision_task_DD,2021.2.3,MacIntel,59.94125757,,,,,,,,,,,,0.6714,1,,,,,,,,,,,,,,m,1,0.6714,,,,,,,,-0.008070995,-0.025635218,0,0,0,,0,29,29,80,1,WEASEL,LB,old,m,./images/WEASELLB.png,,,,,,,,,,,,,,,,,,,,,
,,,,,,,,,,,,,,,,,199204,18,2022-01-29_12h45.57.449,lexical_decision_task_DD,2021.2.3,MacIntel,59.94125757,,,,,,,,,,,,0.6297,1,,,,,,,,,,,,,,m,1,0.6297,,,,,,,,-0.008070995,-0.025635218,0,0,0,,0,30,30,57,1,MOOSE,C,old,m,./images/MOOSE.png,,,,,,,,,,,,,,,,,,,,,
,,,,,,,,,,,,,,,,,199204,18,2022-01-29_12h45.57.449,lexical_decision_task_DD,2021.2.3,MacIntel,59.94125757,,,,,,,,,,,,0.7528,1,,,,,,,,,,,,,,z,1,0.7528,,,,,,,,-0.008070995,-0.025635218,0,0,0,,0,31,31,102,1,DULLE,C,old,z,./images/DULLE.png,,,,,,,,,,,,,,,,,,,,,
,,,,,,,,,,,,,,,,,199204,18,2022-01-29_12h45.57.449,lexical_decision_task_DD,2021.2.3,MacIntel,59.94125757,,,,,,,,,,,,1.3156,1,,,,,,,,,,,,,,z,1,1.3156,,,,,,,,-0.008070995,-0.025635218,0,0,0,,0,32,32,136,1,WERVE,HB,old,z,./images/WERVEHB.png,,,,,,,,,,,,,,,,,,,,,
,,,,,,,,,,,,,,,,,199204,18,2022-01-29_12h45.57.449,lexical_decision_task_DD,2021.2.3,MacIntel,59.94125757,,,,,,,,,,,,0.6668,1,,,,,,,,,,,,,,m,1,0.6668,,,,,,,,-0.008070995,-0.025635218,0,0,0,,0,33,33,7,1,PAINT,HB,old,m,./images/PAINTHB.png,,,,,,,,,,,,,,,,,,,,,
,,,,,,,,,,,,,,,,,199204,18,2022-01-29_12h45.57.449,lexical_decision_task_DD,2021.2.3,MacIntel,59.94125757,,,,,,,,,,,,0.698,1,,,,,,,,,,,,,,m,1,0.698,,,,,,,,-0.008070995,-0.025635218,0,0,0,,0,34,34,48,1,SPORT,C,old,m,./images/SPORT.png,,,,,,,,,,,,,,,,,,,,,
,,,,,,,,,,,,,,,,,199204,18,2022-01-29_12h45.57.449,lexical_decision_task_DD,2021.2.3,MacIntel,59.94125757,,,,,,,,,,,,0.8335,1,,,,,,,,,,,,,,z,1,0.8335,,,,,,,,-0.008070995,-0.025635218,0,0,0,,0,35,35,111,1,HOSSE,C,old,z,./images/HOSSE.png,,,,,,,,,,,,,,,,,,,,,
,,,,,,,,,,,,,,,,,199204,18,2022-01-29_12h45.57.449,lexical_decision_task_DD,2021.2.3,MacIntel,59.94125757,,,,,,,,,,,,0.9738,1,,,,,,,,,,,,,,m,1,0.9738,,,,,,,,-0.008070995,-0.025635218,0,0,0,,0,36,36,50,1,MALLET,LB,old,m,./images/MALLETLB.png,,,,,,,,,,,,,,,,,,,,,
,,,,,,,,,,,,,,,,,199204,18,2022-01-29_12h45.57.449,lexical_decision_task_DD,2021.2.3,MacIntel,59.94125757,,,,,,,,,,,,1.1417,1,,,,,,,,,,,,,,z,1,1.1417,,,,,,,,-0.008070995,-0.025635218,0,0,0,,0,37,37,138,1,PLICE,C,old,z,./images/PLICE.png,,,,,,,,,,,,,,,,,,,,,
,,,,,,,,,,,,,,,,,199204,18,2022-01-29_12h45.57.449,lexical_decision_task_DD,2021.2.3,MacIntel,59.94125757,,,,,,,,,,,,0.7904,1,,,,,,,,,,,,,,m,1,0.7904,,,,,,,,-0.008070995,-0.025635218,0,0,0,,0,38,38,36,1,THROAT,C,old,m,./images/THROAT.png,,,,,,,,,,,,,,,,,,,,,
,,,,,,,,,,,,,,,,,199204,18,2022-01-29_12h45.57.449,lexical_decision_task_DD,2021.2.3,MacIntel,59.94125757,,,,,,,,,,,,0.6318,1,,,,,,,,,,,,,,m,1,0.6318,,,,,,,,-0.008070995,-0.025635218,0,0,0,,0,39,39,60,1,TWINS,C,old,m,./images/TWINS.png,,,,,,,,,,,,,,,,,,,,,
,,,,,,,,,,,,,,,,,199204,18,2022-01-29_12h45.57.449,lexical_decision_task_DD,2021.2.3,MacIntel,59.94125757,,,,,,,,,,,,0.6774,1,,,,,,,,,,,,,,m,1,0.6774,,,,,,,,-0.008070995,-0.025635218,0,0,0,,0,40,40,21,1,KIDNEY,C,old,m,./images/KIDNEY.png,,,,,,,,,,,,,,,,,,,,,
,,,,,,,,,,,,,,,,,199204,18,2022-01-29_12h45.57.449,lexical_decision_task_DD,2021.2.3,MacIntel,59.94125757,,,,,,,,,,,,0.6735,1,,,,,,,,,,,,,,m,1,0.6735,,,,,,,,-0.008070995,-0.025635218,0,0,0,space,0,41,41,9,1,RHINO,C,old,m,./images/RHINO.png,11.3351,,,,,,,,,,,,,,,,,,,,
,,,,,,,,,,,,,,,,,199204,18,2022-01-29_12h45.57.449,lexical_decision_task_DD,2021.2.3,MacIntel,59.94125757,,,,,,,,,,,,0.9008,1,,,,,,,,,,,,,,z,1,0.9008,,,,,,,,-0.008070995,-0.025635218,0,0,0,,0,42,42,128,1,GRIFT,LB,old,z,./images/GRIFTLB.png,,,,,,,,,,,,,,,,,,,,,
,,,,,,,,,,,,,,,,,199204,18,2022-01-29_12h45.57.449,lexical_decision_task_DD,2021.2.3,MacIntel,59.94125757,,,,,,,,,,,,1.1638,1,,,,,,,,,,,,,,z,1,1.1638,,,,,,,,-0.008070995,-0.025635218,0,0,0,,0,43,43,145,1,LAMEL,HB,old,z,./images/LAMELHB.png,,,,,,,,,,,,,,,,,,,,,
,,,,,,,,,,,,,,,,,199204,18,2022-01-29_12h45.57.449,lexical_decision_task_DD,2021.2.3,MacIntel,59.94125757,,,,,,,,,,,,0.8825,1,,,,,,,,,,,,,,m,1,0.8825,,,,,,,,-0.008070995,-0.025635218,0,0,0,,0,44,44,53,1,CARPET,LB,old,m,./images/CARPETLB.png,,,,,,,,,,,,,,,,,,,,,
,,,,,,,,,,,,,,,,,199204,18,2022-01-29_12h45.57.449,lexical_decision_task_DD,2021.2.3,MacIntel,59.94125757,,,,,,,,,,,,1.0656,1,,,,,,,,,,,,,,z,1,1.0656,,,,,,,,-0.008070995,-0.025635218,0,0,0,,0,45,45,160,1,VEETS,HB,old,z,./images/VEETSHB.png,,,,,,,,,,,,,,,,,,,,,
,,,,,,,,,,,,,,,,,199204,18,2022-01-29_12h45.57.449,lexical_decision_task_DD,2021.2.3,MacIntel,59.94125757,,,,,,,,,,,,0.9947,1,,,,,,,,,,,,,,m,1,0.9947,,,,,,,,-0.008070995,-0.025635218,0,0,0,,0,46,46,32,1,BARREL,LB,old,m,./images/BARRELLB.png,,,,,,,,,,,,,,,,,,,,,
,,,,,,,,,,,,,,,,,199204,18,2022-01-29_12h45.57.449,lexical_decision_task_DD,2021.2.3,MacIntel,59.94125757,,,,,,,,,,,,0.9346,1,,,,,,,,,,,,,,z,1,0.9346,,,,,,,,-0.008070995,-0.025635218,0,0,0,,0,47,47,133,1,POWDY,HB,old,z,./images/POWDYHB.png,,,,,,,,,,,,,,,,,,,,,
,,,,,,,,,,,,,,,,,199204,18,2022-01-29_12h45.57.449,lexical_decision_task_DD,2021.2.3,MacIntel,59.94125757,,,,,,,,,,,,0.8165,1,,,,,,,,,,,,,,m,1,0.8165,,,,,,,,-0.008070995,-0.025635218,0,0,0,,0,48,48,61,1,CANDLE,HB,old,m,./images/CANDLEHB.png,,,,,,,,,,,,,,,,,,,,,
,,,,,,,,,,,,,,,,,199204,18,2022-01-29_12h45.57.449,lexical_decision_task_DD,2021.2.3,MacIntel,59.94125757,,,,,,,,,,,,1.3334,1,,,,,,,,,,,,,,z,1,1.3334,,,,,,,,-0.008070995,-0.025635218,0,0,0,,0,49,49,121,1,CEERS,HB,old,z,./images/CEERSHB.png,,,,,,,,,,,,,,,,,,,,,
,,,,,,,,,,,,,,,,,199204,18,2022-01-29_12h45.57.449,lexical_decision_task_DD,2021.2.3,MacIntel,59.94125757,,,,,,,,,,,,0.6146,1,,,,,,,,,,,,,,m,1,0.6146,,,,,,,,-0.008070995,-0.025635218,0,0,0,,0,50,50,74,1,CEMENT,LB,old,m,./images/CEMENTLB.png,,,,,,,,,,,,,,,,,,,,,
,,,,,,,,,,,,,,,,,199204,18,2022-01-29_12h45.57.449,lexical_decision_task_DD,2021.2.3,MacIntel,59.94125757,,,,,,,,,,,,0.8988,1,,,,,,,,,,,,,,m,1,0.8988,,,,,,,,-0.008070995,-0.025635218,0,0,0,,0,51,51,56,1,PACKET,LB,old,m,./images/PACKETLB.png,,,,,,,,,,,,,,,,,,,,,
,,,,,,,,,,,,,,,,,199204,18,2022-01-29_12h45.57.449,lexical_decision_task_DD,2021.2.3,MacIntel,59.94125757,,,,,,,,,,,,0.7609,1,,,,,,,,,,,,,,m,1,0.7609,,,,,,,,-0.008070995,-0.025635218,0,0,0,,0,52,52,71,1,PIMPLE,LB,old,m,./images/PIMPLELB.png,,,,,,,,,,,,,,,,,,,,,
,,,,,,,,,,,,,,,,,199204,18,2022-01-29_12h45.57.449,lexical_decision_task_DD,2021.2.3,MacIntel,59.94125757,,,,,,,,,,,,0.7092,1,,,,,,,,,,,,,,m,1,0.7092,,,,,,,,-0.008070995,-0.025635218,0,0,0,,0,53,53,14,1,PICKLE,LB,old,m,./images/PICKLELB.png,,,,,,,,,,,,,,,,,,,,,
,,,,,,,,,,,,,,,,,199204,18,2022-01-29_12h45.57.449,lexical_decision_task_DD,2021.2.3,MacIntel,59.94125757,,,,,,,,,,,,0.9569,1,,,,,,,,,,,,,,z,1,0.9569,,,,,,,,-0.008070995,-0.025635218,0,0,0,,0,54,54,99,1,BACKY,C,old,z,./images/BACKY.png,,,,,,,,,,,,,,,,,,,,,
,,,,,,,,,,,,,,,,,199204,18,2022-01-29_12h45.57.449,lexical_decision_task_DD,2021.2.3,MacIntel,59.94125757,,,,,,,,,,,,0.8223,1,,,,,,,,,,,,,,z,1,0.8223,,,,,,,,-0.008070995,-0.025635218,0,0,0,,0,55,55,167,1,ZONET,LB,old,z,./images/ZONETLB.png,,,,,,,,,,,,,,,,,,,,,
,,,,,,,,,,,,,,,,,199204,18,2022-01-29_12h45.57.449,lexical_decision_task_DD,2021.2.3,MacIntel,59.94125757,,,,,,,,,,,,0.6944,1,,,,,,,,,,,,,,m,1,0.6944,,,,,,,,-0.008070995,-0.025635218,0,0,0,,0,56,56,82,1,SUNSET,HB,old,m,./images/SUNSETHB.png,,,,,,,,,,,,,,,,,,,,,
,,,,,,,,,,,,,,,,,199204,18,2022-01-29_12h45.57.449,lexical_decision_task_DD,2021.2.3,MacIntel,59.94125757,,,,,,,,,,,,0.884,1,,,,,,,,,,,,,,z,1,0.884,,,,,,,,-0.008070995,-0.025635218,0,0,0,,0,57,57,109,1,BURGE,HB,old,z,./images/BURGEHB.png,,,,,,,,,,,,,,,,,,,,,
,,,,,,,,,,,,,,,,,199204,18,2022-01-29_12h45.57.449,lexical_decision_task_DD,2021.2.3,MacIntel,59.94125757,,,,,,,,,,,,0.771,1,,,,,,,,,,,,,,m,1,0.771,,,,,,,,-0.008070995,-0.025635218,0,0,0,,0,58,58,28,1,FALCON,HB,old,m,./images/FALCONHB.png,,,,,,,,,,,,,,,,,,,,,
,,,,,,,,,,,,,,,,,199204,18,2022-01-29_12h45.57.449,lexical_decision_task_DD,2021.2.3,MacIntel,59.94125757,,,,,,,,,,,,1.4526,1,,,,,,,,,,,,,,z,1,1.4526,,,,,,,,-0.008070995,-0.025635218,0,0,0,,0,59,59,127,1,NINDY,HB,old,z,./images/NINDYHB.png,,,,,,,,,,,,,,,,,,,,,
,,,,,,,,,,,,,,,,,199204,18,2022-01-29_12h45.57.449,lexical_decision_task_DD,2021.2.3,MacIntel,59.94125757,,,,,,,,,,,,0.8369,1,,,,,,,,,,,,,,z,1,0.8369,,,,,,,,-0.008070995,-0.025635218,0,0,0,,0,60,60,98,1,BAMPS,LB,old,z,./images/BAMPSLB.png,,,,,,,,,,,,,,,,,,,,,
,,,,,,,,,,,,,,,,,199204,18,2022-01-29_12h45.57.449,lexical_decision_task_DD,2021.2.3,MacIntel,59.94125757,,,,,,,,,,,,0.9334,1,,,,,,,,,,,,,,z,1,0.9334,,,,,,,,-0.008070995,-0.025635218,0,0,0,,0,61,61,87,1,TRING,C,old,z,./images/TRING.png,,,,,,,,,,,,,,,,,,,,,
,,,,,,,,,,,,,,,,,199204,18,2022-01-29_12h45.57.449,lexical_decision_task_DD,2021.2.3,MacIntel,59.94125757,,,,,,,,,,,,0.6621,1,,,,,,,,,,,,,,m,1,0.6621,,,,,,,,-0.008070995,-0.025635218,0,0,0,,0,62,62,81,1,POODLE,C,old,m,./images/POODLE.png,,,,,,,,,,,,,,,,,,,,,
,,,,,,,,,,,,,,,,,199204,18,2022-01-29_12h45.57.449,lexical_decision_task_DD,2021.2.3,MacIntel,59.94125757,,,,,,,,,,,,0.7989,1,,,,,,,,,,,,,,z,1,0.7989,,,,,,,,-0.008070995,-0.025635218,0,0,0,,0,63,63,140,1,DOVET,LB,old,z,./images/DOVETLB.png,,,,,,,,,,,,,,,,,,,,,
,,,,,,,,,,,,,,,,,199204,18,2022-01-29_12h45.57.449,lexical_decision_task_DD,2021.2.3,MacIntel,59.94125757,,,,,,,,,,,,0.7493,1,,,,,,,,,,,,,,z,1,0.7493,,,,,,,,-0.008070995,-0.025635218,0,0,0,,0,64,64,93,1,SMONE,C,old,z,./images/SMONE.png,,,,,,,,,,,,,,,,,,,,,
,,,,,,,,,,,,,,,,,199204,18,2022-01-29_12h45.57.449,lexical_decision_task_DD,2021.2.3,MacIntel,59.94125757,,,,,,,,,,,,0.8531,1,,,,,,,,,,,,,,m,1,0.8531,,,,,,,,-0.008070995,-0.025635218,0,0,0,,0,65,65,2,1,BEARD,LB,old,m,./images/BEARDLB.png,,,,,,,,,,,,,,,,,,,,,
,,,,,,,,,,,,,,,,,199204,18,2022-01-29_12h45.57.449,lexical_decision_task_DD,2021.2.3,MacIntel,59.94125757,,,,,,,,,,,,0.7243,1,,,,,,,,,,,,,,z,1,0.7243,,,,,,,,-0.008070995,-0.025635218,0,0,0,,0,66,66,113,1,LINEW,LB,old,z,./images/LINEWLB.png,,,,,,,,,,,,,,,,,,,,,
,,,,,,,,,,,,,,,,,199204,18,2022-01-29_12h45.57.449,lexical_decision_task_DD,2021.2.3,MacIntel,59.94125757,,,,,,,,,,,,1.0092,1,,,,,,,,,,,,,,z,1,1.0092,,,,,,,,-0.008070995,-0.025635218,0,0,0,,0,67,67,112,1,MYING,HB,old,z,./images/MYINGHB.png,,,,,,,,,,,,,,,,,,,,,
,,,,,,,,,,,,,,,,,199204,18,2022-01-29_12h45.57.449,lexical_decision_task_DD,2021.2.3,MacIntel,59.94125757,,,,,,,,,,,,0.7609,1,,,,,,,,,,,,,,z,1,0.7609,,,,,,,,-0.008070995,-0.025635218,0,0,0,,0,68,68,149,1,VEASE,LB,old,z,./images/VEASELB.png,,,,,,,,,,,,,,,,,,,,,
,,,,,,,,,,,,,,,,,199204,18,2022-01-29_12h45.57.449,lexical_decision_task_DD,2021.2.3,MacIntel,59.94125757,,,,,,,,,,,,0.7282,1,,,,,,,,,,,,,,m,1,0.7282,,,,,,,,-0.008070995,-0.025635218,0,0,0,,0,69,69,77,1,COUCH,LB,old,m,./images/COUCHLB.png,,,,,,,,,,,,,,,,,,,,,
,,,,,,,,,,,,,,,,,199204,18,2022-01-29_12h45.57.449,lexical_decision_task_DD,2021.2.3,MacIntel,59.94125757,,,,,,,,,,,,0.8476,1,,,,,,,,,,,,,,m,1,0.8476,,,,,,,,-0.008070995,-0.025635218,0,0,0,,0,70,70,11,1,BONNET,LB,old,m,./images/BONNETLB.png,,,,,,,,,,,,,,,,,,,,,
,,,,,,,,,,,,,,,,,199204,18,2022-01-29_12h45.57.449,lexical_decision_task_DD,2021.2.3,MacIntel,59.94125757,,,,,,,,,,,,0.8738,1,,,,,,,,,,,,,,z,1,0.8738,,,,,,,,-0.008070995,-0.025635218,0,0,0,,0,71,71,91,1,SHENS,HB,old,z,./images/SHENSHB.png,,,,,,,,,,,,,,,,,,,,,
,,,,,,,,,,,,,,,,,199204,18,2022-01-29_12h45.57.449,lexical_decision_task_DD,2021.2.3,MacIntel,59.94125757,,,,,,,,,,,,0.9389,1,,,,,,,,,,,,,,m,1,0.9389,,,,,,,,-0.008070995,-0.025635218,0,0,0,,0,72,72,59,1,BURIAL,LB,old,m,./images/BURIALLB.png,,,,,,,,,,,,,,,,,,,,,
,,,,,,,,,,,,,,,,,199204,18,2022-01-29_12h45.57.449,lexical_decision_task_DD,2021.2.3,MacIntel,59.94125757,,,,,,,,,,,,1.1268,1,,,,,,,,,,,,,,m,1,1.1268,,,,,,,,-0.008070995,-0.025635218,0,0,0,,0,73,73,73,1,SNACK,HB,old,m,./images/SNACKHB.png,,,,,,,,,,,,,,,,,,,,,
,,,,,,,,,,,,,,,,,199204,18,2022-01-29_12h45.57.449,lexical_decision_task_DD,2021.2.3,MacIntel,59.94125757,,,,,,,,,,,,1.0952,1,,,,,,,,,,,,,,z,1,1.0952,,,,,,,,-0.008070995,-0.025635218,0,0,0,,0,74,74,88,1,GLUSH,HB,old,z,./images/GLUSHHB.png,,,,,,,,,,,,,,,,,,,,,
,,,,,,,,,,,,,,,,,199204,18,2022-01-29_12h45.57.449,lexical_decision_task_DD,2021.2.3,MacIntel,59.94125757,,,,,,,,,,,,0.6487,1,,,,,,,,,,,,,,m,1,0.6487,,,,,,,,-0.008070995,-0.025635218,0,0,0,,0,75,75,20,1,CRADLE,LB,old,m,./images/CRADLELB.png,,,,,,,,,,,,,,,,,,,,,
,,,,,,,,,,,,,,,,,199204,18,2022-01-29_12h45.57.449,lexical_decision_task_DD,2021.2.3,MacIntel,59.94125757,,,,,,,,,,,,0.8483,1,,,,,,,,,,,,,,z,1,0.8483,,,,,,,,-0.008070995,-0.025635218,0,0,0,,0,76,76,107,1,FASKS,LB,old,z,./images/FASKSLB.png,,,,,,,,,,,,,,,,,,,,,
,,,,,,,,,,,,,,,,,199204,18,2022-01-29_12h45.57.449,lexical_decision_task_DD,2021.2.3,MacIntel,59.94125757,,,,,,,,,,,,0.5943,1,,,,,,,,,,,,,,m,1,0.5943,,,,,,,,-0.008070995,-0.025635218,0,0,0,,0,77,77,63,1,MIRROR,C,old,m,./images/MIRROR.png,,,,,,,,,,,,,,,,,,,,,
,,,,,,,,,,,,,,,,,199204,18,2022-01-29_12h45.57.449,lexical_decision_task_DD,2021.2.3,MacIntel,59.94125757,,,,,,,,,,,,0.8222,1,,,,,,,,,,,,,,z,1,0.8222,,,,,,,,-0.008070995,-0.025635218,0,0,0,,0,78,78,116,1,BALGY,LB,old,z,./images/BALGYLB.png,,,,,,,,,,,,,,,,,,,,,
,,,,,,,,,,,,,,,,,199204,18,2022-01-29_12h45.57.449,lexical_decision_task_DD,2021.2.3,MacIntel,59.94125757,,,,,,,,,,,,1.3791,1,,,,,,,,,,,,,,z,1,1.3791,,,,,,,,-0.008070995,-0.025635218,0,0,0,,0,79,79,139,1,BLEAR,HB,old,z,./images/BLEARHB.png,,,,,,,,,,,,,,,,,,,,,
,,,,,,,,,,,,,,,,,199204,18,2022-01-29_12h45.57.449,lexical_decision_task_DD,2021.2.3,MacIntel,59.94125757,,,,,,,,,,,,0.8027,1,,,,,,,,,,,,,,z,1,0.8027,,,,,,,,-0.008070995,-0.025635218,0,0,0,,0,80,80,132,1,SCIFF,C,old,z,./images/SCIFF.png,,,,,,,,,,,,,,,,,,,,,
,,,,,,,,,,,,,,,,,199204,18,2022-01-29_12h45.57.449,lexical_decision_task_DD,2021.2.3,MacIntel,59.94125757,,,,,,,,,,,,0.8768,1,,,,,,,,,,,,,,z,1,0.8768,,,,,,,,-0.008070995,-0.025635218,0,0,0,,0,81,81,150,1,NOOLS,C,old,z,./images/NOOLS.png,,,,,,,,,,,,,,,,,,,,,
,,,,,,,,,,,,,,,,,199204,18,2022-01-29_12h45.57.449,lexical_decision_task_DD,2021.2.3,MacIntel,59.94125757,,,,,,,,,,,,0.6827,1,,,,,,,,,,,,,,m,1,0.6827,,,,,,,,-0.008070995,-0.025635218,0,0,0,,0,82,82,42,1,FOLDER,C,old,m,./images/FOLDER.png,,,,,,,,,,,,,,,,,,,,,
,,,,,,,,,,,,,,,,,199204,18,2022-01-29_12h45.57.449,lexical_decision_task_DD,2021.2.3,MacIntel,59.94125757,,,,,,,,,,,,0.7803,1,,,,,,,,,,,,,,z,1,0.7803,,,,,,,,-0.049272834,-0.330714812,0,0,0,space,0,83,83,135,1,JOODY,C,old,z,./images/JOODY.png,4.0411,,,,,,,,,,,,,,,,,,,,
,,,,,,,,,,,,,,,,,199204,18,2022-01-29_12h45.57.449,lexical_decision_task_DD,2021.2.3,MacIntel,59.94125757,,,,,,,,,,,,0.7069,1,,,,,,,,,,,,,,m,1,0.7069,,,,,,,,-0.055455808,-0.319279423,0,0,0,,0,84,84,62,1,PURSE,LB,old,m,./images/PURSELB.png,,,,,,,,,,,,,,,,,,,,,
,,,,,,,,,,,,,,,,,199204,18,2022-01-29_12h45.57.449,lexical_decision_task_DD,2021.2.3,MacIntel,59.94125757,,,,,,,,,,,,0.7372,1,,,,,,,,,,,,,,z,1,0.7372,,,,,,,,-0.055455808,-0.319279423,0,0,0,,0,85,85,154,1,THINT,HB,old,z,./images/THINTHB.png,,,,,,,,,,,,,,,,,,,,,
,,,,,,,,,,,,,,,,,199204,18,2022-01-29_12h45.57.449,lexical_decision_task_DD,2021.2.3,MacIntel,59.94125757,,,,,,,,,,,,0.8027,1,,,,,,,,,,,,,,m,1,0.8027,,,,,,,,-0.055455808,-0.319279423,0,0,0,,0,86,86,66,1,SWEAT,C,old,m,./images/SWEAT.png,,,,,,,,,,,,,,,,,,,,,
,,,,,,,,,,,,,,,,,199204,18,2022-01-29_12h45.57.449,lexical_decision_task_DD,2021.2.3,MacIntel,59.94125757,,,,,,,,,,,,0.6966,1,,,,,,,,,,,,,,m,1,0.6966,,,,,,,,-0.055455808,-0.319279423,0,0,0,,0,87,87,6,1,SQUARE,C,old,m,./images/SQUARE.png,,,,,,,,,,,,,,,,,,,,,
,,,,,,,,,,,,,,,,,199204,18,2022-01-29_12h45.57.449,lexical_decision_task_DD,2021.2.3,MacIntel,59.94125757,,,,,,,,,,,,0.9409,1,,,,,,,,,,,,,,z,1,0.9409,,,,,,,,-0.055455808,-0.319279423,0,0,0,,0,88,88,157,1,INLER,HB,old,z,./images/INLERHB.png,,,,,,,,,,,,,,,,,,,,,
,,,,,,,,,,,,,,,,,199204,18,2022-01-29_12h45.57.449,lexical_decision_task_DD,2021.2.3,MacIntel,59.94125757,,,,,,,,,,,,0.7326,1,,,,,,,,,,,,,,z,1,0.7326,,,,,,,,-0.055455808,-0.319279423,0,0,0,,0,89,89,114,1,RIKES,C,old,z,./images/RIKES.png,,,,,,,,,,,,,,,,,,,,,
,,,,,,,,,,,,,,,,,199204,18,2022-01-29_12h45.57.449,lexical_decision_task_DD,2021.2.3,MacIntel,59.94125757,,,,,,,,,,,,0.5953,1,,,,,,,,,,,,,,m,1,0.5953,,,,,,,,-0.055455808,-0.319279423,0,0,0,,0,90,90,23,1,WALRUS,LB,old,m,./images/WALRUSLB.png,,,,,,,,,,,,,,,,,,,,,
,,,,,,,,,,,,,,,,,199204,18,2022-01-29_12h45.57.449,lexical_decision_task_DD,2021.2.3,MacIntel,59.94125757,,,,,,,,,,,,0.7244,1,,,,,,,,,,,,,,z,1,0.7244,,,,,,,,-0.055455808,-0.319279423,0,0,0,,0,91,91,164,1,SGREW,LB,old,z,./images/SGREWLB.png,,,,,,,,,,,,,,,,,,,,,
,,,,,,,,,,,,,,,,,199204,18,2022-01-29_12h45.57.449,lexical_decision_task_DD,2021.2.3,MacIntel,59.94125757,,,,,,,,,,,,0.8074,1,,,,,,,,,,,,,,m,1,0.8074,,,,,,,,-0.055455808,-0.319279423,0,0,0,,0,92,92,69,1,COOKER,C,old,m,./images/COOKER.png,,,,,,,,,,,,,,,,,,,,,
,,,,,,,,,,,,,,,,,199204,18,2022-01-29_12h45.57.449,lexical_decision_task_DD,2021.2.3,MacIntel,59.94125757,,,,,,,,,,,,0.7152,1,,,,,,,,,,,,,,z,1,0.7152,,,,,,,,-0.055455808,-0.319279423,0,0,0,,0,93,93,144,1,NAIRY,C,old,z,./images/NAIRY.png,,,,,,,,,,,,,,,,,,,,,
,,,,,,,,,,,,,,,,,199204,18,2022-01-29_12h45.57.449,lexical_decision_task_DD,2021.2.3,MacIntel,59.94125757,,,,,,,,,,,,0.9128,1,,,,,,,,,,,,,,z,1,0.9128,,,,,,,,-0.055455808,-0.319279423,0,0,0,,0,94,94,90,1,NEAST,C,old,z,./images/NEAST.png,,,,,,,,,,,,,,,,,,,,,
,,,,,,,,,,,,,,,,,199204,18,2022-01-29_12h45.57.449,lexical_decision_task_DD,2021.2.3,MacIntel,59.94125757,,,,,,,,,,,,0.7915,1,,,,,,,,,,,,,,m,1,0.7915,,,,,,,,-0.055455808,-0.319279423,0,0,0,,0,95,95,78,1,LITTER,C,old,m,./images/LITTER.png,,,,,,,,,,,,,,,,,,,,,
,,,,,,,,,,,,,,,,,199204,18,2022-01-29_12h45.57.449,lexical_decision_task_DD,2021.2.3,MacIntel,59.94125757,,,,,,,,,,,,0.6928,1,,,,,,,,,,,,,,z,1,0.6928,,,,,,,,-0.055455808,-0.319279423,0,0,0,,0,96,96,124,1,TUNCH,HB,old,z,./images/TUNCHHB.png,,,,,,,,,,,,,,,,,,,,,
,,,,,,,,,,,,,,,,,199204,18,2022-01-29_12h45.57.449,lexical_decision_task_DD,2021.2.3,MacIntel,59.94125757,,,,,,,,,,,,0.8519,1,,,,,,,,,,,,,,z,1,0.8519,,,,,,,,-0.055455808,-0.319279423,0,0,0,,0,97,97,146,1,MOOST,LB,old,z,./images/MOOSTLB.png,,,,,,,,,,,,,,,,,,,,,
,,,,,,,,,,,,,,,,,199204,18,2022-01-29_12h45.57.449,lexical_decision_task_DD,2021.2.3,MacIntel,59.94125757,,,,,,,,,,,,0.7961,1,,,,,,,,,,,,,,z,1,0.7961,,,,,,,,-0.055455808,-0.319279423,0,0,0,,0,98,98,141,1,PLEET,C,old,z,./images/PLEET.png,,,,,,,,,,,,,,,,,,,,,
,,,,,,,,,,,,,,,,,199204,18,2022-01-29_12h45.57.449,lexical_decision_task_DD,2021.2.3,MacIntel,59.94125757,,,,,,,,,,,,1.135,1,,,,,,,,,,,,,,z,1,1.135,,,,,,,,-0.055455808,-0.319279423,0,0,0,,0,99,99,151,1,TINKY,HB,old,z,./images/TINKYHB.png,,,,,,,,,,,,,,,,,,,,,
,,,,,,,,,,,,,,,,,199204,18,2022-01-29_12h45.57.449,lexical_decision_task_DD,2021.2.3,MacIntel,59.94125757,,,,,,,,,,,,0.9216,1,,,,,,,,,,,,,,z,1,0.9216,,,,,,,,-0.055455808,-0.319279423,0,0,0,,0,100,100,97,1,CHIDS,HB,old,z,./images/CHIDSHB.png,,,,,,,,,,,,,,,,,,,,,
,,,,,,,,,,,,,,,,,199204,18,2022-01-29_12h45.57.449,lexical_decision_task_DD,2021.2.3,MacIntel,59.94125757,,,,,,,,,,,,0.8132,1,,,,,,,,,,,,,,z,1,0.8132,,,,,,,,-0.055455808,-0.319279423,0,0,0,,0,101,101,155,1,CANGY,LB,old,z,./images/CANGYLB.png,,,,,,,,,,,,,,,,,,,,,
,,,,,,,,,,,,,,,,,199204,18,2022-01-29_12h45.57.449,lexical_decision_task_DD,2021.2.3,MacIntel,59.94125757,,,,,,,,,,,,0.7949,1,,,,,,,,,,,,,,z,1,0.7949,,,,,,,,-0.055455808,-0.319279423,0,0,0,,0,102,102,131,1,NACES,LB,old,z,./images/NACESLB.png,,,,,,,,,,,,,,,,,,,,,
,,,,,,,,,,,,,,,,,199204,18,2022-01-29_12h45.57.449,lexical_decision_task_DD,2021.2.3,MacIntel,59.94125757,,,,,,,,,,,,0.8515,1,,,,,,,,,,,,,,m,1,0.8515,,,,,,,,-0.055455808,-0.319279423,0,0,0,,0,103,103,17,1,SKIING,LB,old,m,./images/SKIINGLB.png,,,,,,,,,,,,,,,,,,,,,
,,,,,,,,,,,,,,,,,199204,18,2022-01-29_12h45.57.449,lexical_decision_task_DD,2021.2.3,MacIntel,59.94125757,,,,,,,,,,,,0.9056,1,,,,,,,,,,,,,,m,1,0.9056,,,,,,,,-0.055455808,-0.319279423,0,0,0,,0,104,104,41,1,STRING,LB,old,m,./images/STRINGLB.png,,,,,,,,,,,,,,,,,,,,,
,,,,,,,,,,,,,,,,,199204,18,2022-01-29_12h45.57.449,lexical_decision_task_DD,2021.2.3,MacIntel,59.94125757,,,,,,,,,,,,0.9085,1,,,,,,,,,,,,,,m,1,0.9085,,,,,,,,-0.055455808,-0.319279423,0,0,0,,0,105,105,68,1,TORCH,LB,old,m,./images/TORCHLB.png,,,,,,,,,,,,,,,,,,,,,
,,,,,,,,,,,,,,,,,199204,18,2022-01-29_12h45.57.449,lexical_decision_task_DD,2021.2.3,MacIntel,59.94125757,,,,,,,,,,,,0.9403,1,,,,,,,,,,,,,,z,1,0.9403,,,,,,,,-0.055455808,-0.319279423,0,0,0,,0,106,106,100,1,DRIBS,HB,old,z,./images/DRIBSHB.png,,,,,,,,,,,,,,,,,,,,,
,,,,,,,,,,,,,,,,,199204,18,2022-01-29_12h45.57.449,lexical_decision_task_DD,2021.2.3,MacIntel,59.94125757,,,,,,,,,,,,0.6926,1,,,,,,,,,,,,,,z,1,0.6926,,,,,,,,-0.055455808,-0.319279423,0,0,0,,0,107,107,108,1,GRUET,C,old,z,./images/GRUET.png,,,,,,,,,,,,,,,,,,,,,
,,,,,,,,,,,,,,,,,199204,18,2022-01-29_12h45.57.449,lexical_decision_task_DD,2021.2.3,MacIntel,59.94125757,,,,,,,,,,,,0.7549,1,,,,,,,,,,,,,,z,1,0.7549,,,,,,,,-0.055455808,-0.319279423,0,0,0,,0,108,108,156,1,HIXES,C,old,z,./images/HIXES.png,,,,,,,,,,,,,,,,,,,,,
,,,,,,,,,,,,,,,,,199204,18,2022-01-29_12h45.57.449,lexical_decision_task_DD,2021.2.3,MacIntel,59.94125757,,,,,,,,,,,,0.9088,1,,,,,,,,,,,,,,m,1,0.9088,,,,,,,,-0.055455808,-0.319279423,0,0,0,,0,109,109,43,1,MOSQUE,HB,old,m,./images/MOSQUEHB.png,,,,,,,,,,,,,,,,,,,,,
,,,,,,,,,,,,,,,,,199204,18,2022-01-29_12h45.57.449,lexical_decision_task_DD,2021.2.3,MacIntel,59.94125757,,,,,,,,,,,,0.7024,1,,,,,,,,,,,,,,m,1,0.7024,,,,,,,,-0.055455808,-0.319279423,0,0,0,,0,110,110,38,1,LADDER,LB,old,m,./images/LADDERLB.png,,,,,,,,,,,,,,,,,,,,,
,,,,,,,,,,,,,,,,,199204,18,2022-01-29_12h45.57.449,lexical_decision_task_DD,2021.2.3,MacIntel,59.94125757,,,,,,,,,,,,0.9477,1,,,,,,,,,,,,,,m,1,0.9477,,,,,,,,-0.055455808,-0.319279423,0,0,0,,0,111,111,29,1,CRUMB,LB,old,m,./images/CRUMBLB.png,,,,,,,,,,,,,,,,,,,,,
,,,,,,,,,,,,,,,,,199204,18,2022-01-29_12h45.57.449,lexical_decision_task_DD,2021.2.3,MacIntel,59.94125757,,,,,,,,,,,,0.9328,1,,,,,,,,,,,,,,z,1,0.9328,,,,,,,,-0.055455808,-0.319279423,0,0,0,,0,112,112,110,1,CRUNK,LB,old,z,./images/CRUNKLB.png,,,,,,,,,,,,,,,,,,,,,
,,,,,,,,,,,,,,,,,199204,18,2022-01-29_12h45.57.449,lexical_decision_task_DD,2021.2.3,MacIntel,59.94125757,,,,,,,,,,,,0.7128,1,,,,,,,,,,,,,,m,1,0.7128,,,,,,,,-0.055455808,-0.319279423,0,0,0,,0,113,113,39,1,SHELF,C,old,m,./images/SHELF.png,,,,,,,,,,,,,,,,,,,,,
,,,,,,,,,,,,,,,,,199204,18,2022-01-29_12h45.57.449,lexical_decision_task_DD,2021.2.3,MacIntel,59.94125757,,,,,,,,,,,,1.1154,0,,,,,,,,,,,,,,z,0,1.1154,,,,,,,,-0.055455808,-0.319279423,0,0,0,,0,114,114,16,1,PENCE,HB,old,m,./images/PENCEHB.png,,,,,,,,,,,,,,,,,,,,,
,,,,,,,,,,,,,,,,,199204,18,2022-01-29_12h45.57.449,lexical_decision_task_DD,2021.2.3,MacIntel,59.94125757,,,,,,,,,,,,1.138,1,,,,,,,,,,,,,,z,1,1.138,,,,,,,,-0.055455808,-0.319279423,0,0,0,,0,115,115,165,1,TROWN,C,old,z,./images/TROWN.png,,,,,,,,,,,,,,,,,,,,,
,,,,,,,,,,,,,,,,,199204,18,2022-01-29_12h45.57.449,lexical_decision_task_DD,2021.2.3,MacIntel,59.94125757,,,,,,,,,,,,0.8712,1,,,,,,,,,,,,,,z,1,0.8712,,,,,,,,-0.055455808,-0.319279423,0,0,0,,0,116,116,117,1,STEEG,C,old,z,./images/STEEG.png,,,,,,,,,,,,,,,,,,,,,
,,,,,,,,,,,,,,,,,199204,18,2022-01-29_12h45.57.449,lexical_decision_task_DD,2021.2.3,MacIntel,59.94125757,,,,,,,,,,,,0.9658,1,,,,,,,,,,,,,,z,1,0.9658,,,,,,,,-0.055455808,-0.319279423,0,0,0,,0,117,117,103,1,FLORT,HB,old,z,./images/FLORTHB.png,,,,,,,,,,,,,,,,,,,,,
,,,,,,,,,,,,,,,,,199204,18,2022-01-29_12h45.57.449,lexical_decision_task_DD,2021.2.3,MacIntel,59.94125757,,,,,,,,,,,,1.2394,1,,,,,,,,,,,,,,z,1,1.2394,,,,,,,,-0.055455808,-0.319279423,0,0,0,,0,118,118,166,1,SHORY,HB,old,z,./images/SHORYHB.png,,,,,,,,,,,,,,,,,,,,,
,,,,,,,,,,,,,,,,,199204,18,2022-01-29_12h45.57.449,lexical_decision_task_DD,2021.2.3,MacIntel,59.94125757,,,,,,,,,,,,0.7792,1,,,,,,,,,,,,,,z,1,0.7792,,,,,,,,-0.055455808,-0.319279423,0,0,0,,0,119,119,84,1,HAXES,C,old,z,./images/HAXES.png,,,,,,,,,,,,,,,,,,,,,
,,,,,,,,,,,,,,,,,199204,18,2022-01-29_12h45.57.449,lexical_decision_task_DD,2021.2.3,MacIntel,59.94125757,,,,,,,,,,,,0.5966,1,,,,,,,,,,,,,,m,1,0.5966,,,,,,,,-0.055455808,-0.319279423,0,0,0,,0,120,120,12,1,SHORE,C,old,m,./images/SHORE.png,,,,,,,,,,,,,,,,,,,,,
,,,,,,,,,,,,,,,,,199204,18,2022-01-29_12h45.57.449,lexical_decision_task_DD,2021.2.3,MacIntel,59.94125757,,,,,,,,,,,,0.765,1,,,,,,,,,,,,,,m,1,0.765,,,,,,,,-0.055455808,-0.319279423,0,0,0,,0,121,121,83,1,JUNGLE,LB,old,m,./images/JUNGLELB.png,,,,,,,,,,,,,,,,,,,,,
,,,,,,,,,,,,,,,,,199204,18,2022-01-29_12h45.57.449,lexical_decision_task_DD,2021.2.3,MacIntel,59.94125757,,,,,,,,,,,,0.7501,1,,,,,,,,,,,,,,z,1,0.7501,,,,,,,,-0.055455808,-0.319279423,0,0,0,,0,122,122,153,1,CLUPS,C,old,z,./images/CLUPS.png,,,,,,,,,,,,,,,,,,,,,
,,,,,,,,,,,,,,,,,199204,18,2022-01-29_12h45.57.449,lexical_decision_task_DD,2021.2.3,MacIntel,59.94125757,,,,,,,,,,,,0.6369,1,,,,,,,,,,,,,,z,1,0.6369,,,,,,,,-0.055455808,-0.319279423,0,0,0,,0,123,123,126,1,GUELS,C,old,z,./images/GUELS.png,,,,,,,,,,,,,,,,,,,,,
,,,,,,,,,,,,,,,,,199204,18,2022-01-29_12h45.57.449,lexical_decision_task_DD,2021.2.3,MacIntel,59.94125757,,,,,,,,,,,,0.7511,1,,,,,,,,,,,,,,z,1,0.7511,,,,,,,,-0.055455808,-0.319279423,0,0,0,,0,124,124,123,1,SEDGE,C,old,z,./images/SEDGE.png,,,,,,,,,,,,,,,,,,,,,
,,,,,,,,,,,,,,,,,199204,18,2022-01-29_12h45.57.449,lexical_decision_task_DD,2021.2.3,MacIntel,59.94125757,,,,,,,,,,,,1.2007,1,,,,,,,,,,,,,,m,1,1.2007,,,,,,,,-0.036462176,-0.273049701,0,0,0,space,0,125,125,79,1,CRUST,HB,old,m,./images/CRUSTHB.png,8.1101,,,,,,,,,,,,,,,,,,,,
,,,,,,,,,,,,,,,,,199204,18,2022-01-29_12h45.57.449,lexical_decision_task_DD,2021.2.3,MacIntel,59.94125757,,,,,,,,,,,,0.7868,1,,,,,,,,,,,,,,m,1,0.7868,,,,,,,,-0.036462176,-0.273049701,0,0,0,,0,126,126,34,1,CANYON,HB,old,m,./images/CANYONHB.png,,,,,,,,,,,,,,,,,,,,,
,,,,,,,,,,,,,,,,,199204,18,2022-01-29_12h45.57.449,lexical_decision_task_DD,2021.2.3,MacIntel,59.94125757,,,,,,,,,,,,0.7355,1,,,,,,,,,,,,,,m,1,0.7355,,,,,,,,-0.036462176,-0.273049701,0,0,0,,0,127,127,45,1,KITTEN,C,old,m,./images/KITTEN.png,,,,,,,,,,,,,,,,,,,,,
,,,,,,,,,,,,,,,,,199204,18,2022-01-29_12h45.57.449,lexical_decision_task_DD,2021.2.3,MacIntel,59.94125757,,,,,,,,,,,,0.74,1,,,,,,,,,,,,,,m,1,0.74,,,,,,,,-0.036462176,-0.273049701,0,0,0,,0,128,128,58,1,BABOON,HB,old,m,./images/BABOONHB.png,,,,,,,,,,,,,,,,,,,,,
,,,,,,,,,,,,,,,,,199204,18,2022-01-29_12h45.57.449,lexical_decision_task_DD,2021.2.3,MacIntel,59.94125757,,,,,,,,,,,,0.6986,1,,,,,,,,,,,,,,z,1,0.6986,,,,,,,,-0.036462176,-0.273049701,0,0,0,,0,129,129,92,1,PAIMS,LB,old,z,./images/PAIMSLB.png,,,,,,,,,,,,,,,,,,,,,
,,,,,,,,,,,,,,,,,199204,18,2022-01-29_12h45.57.449,lexical_decision_task_DD,2021.2.3,MacIntel,59.94125757,,,,,,,,,,,,0.8989,1,,,,,,,,,,,,,,z,1,0.8989,,,,,,,,-0.036462176,-0.273049701,0,0,0,,0,130,130,85,1,CHULK,HB,old,z,./images/CHULKHB.png,,,,,,,,,,,,,,,,,,,,,
,,,,,,,,,,,,,,,,,199204,18,2022-01-29_12h45.57.449,lexical_decision_task_DD,2021.2.3,MacIntel,59.94125757,,,,,,,,,,,,1.042,1,,,,,,,,,,,,,,z,1,1.042,,,,,,,,-0.036462176,-0.273049701,0,0,0,,0,131,131,106,1,CLUMS,HB,old,z,./images/CLUMSHB.png,,,,,,,,,,,,,,,,,,,,,
,,,,,,,,,,,,,,,,,199204,18,2022-01-29_12h45.57.449,lexical_decision_task_DD,2021.2.3,MacIntel,59.94125757,,,,,,,,,,,,1.0973,1,,,,,,,,,,,,,,z,1,1.0973,,,,,,,,-0.036462176,-0.273049701,0,0,0,,0,132,132,115,1,MAWNS,HB,old,z,./images/MAWNSHB.png,,,,,,,,,,,,,,,,,,,,,
,,,,,,,,,,,,,,,,,199204,18,2022-01-29_12h45.57.449,lexical_decision_task_DD,2021.2.3,MacIntel,59.94125757,,,,,,,,,,,,0.8891,1,,,,,,,,,,,,,,z,1,0.8891,,,,,,,,-0.036462176,-0.273049701,0,0,0,,0,133,133,118,1,BAVEL,HB,old,z,./images/BAVELHB.png,,,,,,,,,,,,,,,,,,,,,
,,,,,,,,,,,,,,,,,199204,18,2022-01-29_12h45.57.449,lexical_decision_task_DD,2021.2.3,MacIntel,59.94125757,,,,,,,,,,,,0.677,1,,,,,,,,,,,,,,m,1,0.677,,,,,,,,-0.036462176,-0.273049701,0,0,0,,0,134,134,64,1,JELLY,HB,old,m,./images/JELLYHB.png,,,,,,,,,,,,,,,,,,,,,
,,,,,,,,,,,,,,,,,199204,18,2022-01-29_12h45.57.449,lexical_decision_task_DD,2021.2.3,MacIntel,59.94125757,,,,,,,,,,,,0.7464,1,,,,,,,,,,,,,,z,1,0.7464,,,,,,,,-0.036462176,-0.273049701,0,0,0,,0,135,135,158,1,EGECT,LB,old,z,./images/EGECTLB.png,,,,,,,,,,,,,,,,,,,,,
,,,,,,,,,,,,,,,,,199204,18,2022-01-29_12h45.57.449,lexical_decision_task_DD,2021.2.3,MacIntel,59.94125757,,,,,,,,,,,,0.7003,1,,,,,,,,,,,,,,m,1,0.7003,,,,,,,,-0.036462176,-0.273049701,0,0,0,,0,136,136,76,1,INFANT,HB,old,m,./images/INFANTHB.png,,,,,,,,,,,,,,,,,,,,,
,,,,,,,,,,,,,,,,,199204,18,2022-01-29_12h45.57.449,lexical_decision_task_DD,2021.2.3,MacIntel,59.94125757,,,,,,,,,,,,0.7329,0,,,,,,,,,,,,,,z,0,0.7329,,,,,,,,-0.036462176,-0.273049701,0,0,0,,0,137,137,46,1,PEARL,HB,old,m,./images/PEARLHB.png,,,,,,,,,,,,,,,,,,,,,
,,,,,,,,,,,,,,,,,199204,18,2022-01-29_12h45.57.449,lexical_decision_task_DD,2021.2.3,MacIntel,59.94125757,,,,,,,,,,,,0.8165,1,,,,,,,,,,,,,,z,1,0.8165,,,,,,,,-0.036462176,-0.273049701,0,0,0,,0,138,138,137,1,JOOST,LB,old,z,./images/JOOSTLB.png,,,,,,,,,,,,,,,,,,,,,
,,,,,,,,,,,,,,,,,199204,18,2022-01-29_12h45.57.449,lexical_decision_task_DD,2021.2.3,MacIntel,59.94125757,,,,,,,,,,,,0.922,1,,,,,,,,,,,,,,m,1,0.922,,,,,,,,-0.036462176,-0.273049701,0,0,0,,0,139,139,35,1,PEACH,LB,old,m,./images/PEACHLB.png,,,,,,,,,,,,,,,,,,,,,
,,,,,,,,,,,,,,,,,199204,18,2022-01-29_12h45.57.449,lexical_decision_task_DD,2021.2.3,MacIntel,59.94125757,,,,,,,,,,,,0.7646,1,,,,,,,,,,,,,,m,1,0.7646,,,,,,,,-0.036462176,-0.273049701,0,0,0,,0,140,140,1,1,PLANK,HB,old,m,./images/PLANKHB.png,,,,,,,,,,,,,,,,,,,,,
,,,,,,,,,,,,,,,,,199204,18,2022-01-29_12h45.57.449,lexical_decision_task_DD,2021.2.3,MacIntel,59.94125757,,,,,,,,,,,,0.6238,1,,,,,,,,,,,,,,m,1,0.6238,,,,,,,,-0.036462176,-0.273049701,0,0,0,,0,141,141,0,1,TOMATO,C,old,m,./images/TOMATO.png,,,,,,,,,,,,,,,,,,,,,
,,,,,,,,,,,,,,,,,199204,18,2022-01-29_12h45.57.449,lexical_decision_task_DD,2021.2.3,MacIntel,59.94125757,,,,,,,,,,,,0.6791,1,,,,,,,,,,,,,,z,1,0.6791,,,,,,,,-0.036462176,-0.273049701,0,0,0,,0,142,142,104,1,GITTY,LB,old,z,./images/GITTYLB.png,,,,,,,,,,,,,,,,,,,,,
,,,,,,,,,,,,,,,,,199204,18,2022-01-29_12h45.57.449,lexical_decision_task_DD,2021.2.3,MacIntel,59.94125757,,,,,,,,,,,,0.7745,1,,,,,,,,,,,,,,m,1,0.7745,,,,,,,,-0.036462176,-0.273049701,0,0,0,,0,143,143,37,1,BIRTH,HB,old,m,./images/BIRTHHB.png,,,,,,,,,,,,,,,,,,,,,
,,,,,,,,,,,,,,,,,199204,18,2022-01-29_12h45.57.449,lexical_decision_task_DD,2021.2.3,MacIntel,59.94125757,,,,,,,,,,,,0.6984,1,,,,,,,,,,,,,,z,1,0.6984,,,,,,,,-0.036462176,-0.273049701,0,0,0,,0,144,144,96,1,KEAMS,C,old,z,./images/KEAMS.png,,,,,,,,,,,,,,,,,,,,,
,,,,,,,,,,,,,,,,,199204,18,2022-01-29_12h45.57.449,lexical_decision_task_DD,2021.2.3,MacIntel,59.94125757,,,,,,,,,,,,0.7483,1,,,,,,,,,,,,,,z,1,0.7483,,,,,,,,-0.036462176,-0.273049701,0,0,0,,0,145,145,101,1,GLEET,LB,old,z,./images/GLEETLB.png,,,,,,,,,,,,,,,,,,,,,
,,,,,,,,,,,,,,,,,199204,18,2022-01-29_12h45.57.449,lexical_decision_task_DD,2021.2.3,MacIntel,59.94125757,,,,,,,,,,,,0.9062,1,,,,,,,,,,,,,,z,1,0.9062,,,,,,,,-0.036462176,-0.273049701,0,0,0,,0,146,146,94,1,BLANS,HB,old,z,./images/BLANSHB.png,,,,,,,,,,,,,,,,,,,,,
,,,,,,,,,,,,,,,,,199204,18,2022-01-29_12h45.57.449,lexical_decision_task_DD,2021.2.3,MacIntel,59.94125757,,,,,,,,,,,,0.7625,1,,,,,,,,,,,,,,z,1,0.7625,,,,,,,,-0.036462176,-0.273049701,0,0,0,,0,147,147,125,1,MOOKY,LB,old,z,./images/MOOKYLB.png,,,,,,,,,,,,,,,,,,,,,
,,,,,,,,,,,,,,,,,199204,18,2022-01-29_12h45.57.449,lexical_decision_task_DD,2021.2.3,MacIntel,59.94125757,,,,,,,,,,,,0.79,1,,,,,,,,,,,,,,z,1,0.79,,,,,,,,-0.036462176,-0.273049701,0,0,0,,0,148,148,142,1,PLASK,HB,old,z,./images/PLASKHB.png,,,,,,,,,,,,,,,,,,,,,
,,,,,,,,,,,,,,,,,199204,18,2022-01-29_12h45.57.449,lexical_decision_task_DD,2021.2.3,MacIntel,59.94125757,,,,,,,,,,,,0.6993,1,,,,,,,,,,,,,,m,1,0.6993,,,,,,,,-0.036462176,-0.273049701,0,0,0,,0,149,149,5,1,PASTA,LB,old,m,./images/PASTALB.png,,,,,,,,,,,,,,,,,,,,,
,,,,,,,,,,,,,,,,,199204,18,2022-01-29_12h45.57.449,lexical_decision_task_DD,2021.2.3,MacIntel,59.94125757,,,,,,,,,,,,0.7532,1,,,,,,,,,,,,,,z,1,0.7532,,,,,,,,-0.036462176,-0.273049701,0,0,0,,0,150,150,95,1,HANTY,LB,old,z,./images/HANTYLB.png,,,,,,,,,,,,,,,,,,,,,
,,,,,,,,,,,,,,,,,199204,18,2022-01-29_12h45.57.449,lexical_decision_task_DD,2021.2.3,MacIntel,59.94125757,,,,,,,,,,,,0.7669,1,,,,,,,,,,,,,,m,1,0.7669,,,,,,,,-0.036462176,-0.273049701,0,0,0,,0,151,151,26,1,SMOKER,LB,old,m,./images/SMOKERLB.png,,,,,,,,,,,,,,,,,,,,,
,,,,,,,,,,,,,,,,,199204,18,2022-01-29_12h45.57.449,lexical_decision_task_DD,2021.2.3,MacIntel,59.94125757,,,,,,,,,,,,0.9112,1,,,,,,,,,,,,,,m,1,0.9112,,,,,,,,-0.036462176,-0.273049701,0,0,0,,0,152,152,67,1,SAILOR,HB,old,m,./images/SAILORHB.png,,,,,,,,,,,,,,,,,,,,,
,,,,,,,,,,,,,,,,,199204,18,2022-01-29_12h45.57.449,lexical_decision_task_DD,2021.2.3,MacIntel,59.94125757,,,,,,,,,,,,0.8056,1,,,,,,,,,,,,,,m,1,0.8056,,,,,,,,-0.036462176,-0.273049701,0,0,0,,0,153,153,27,1,ATTIC,C,old,m,./images/ATTIC.png,,,,,,,,,,,,,,,,,,,,,
,,,,,,,,,,,,,,,,,199204,18,2022-01-29_12h45.57.449,lexical_decision_task_DD,2021.2.3,MacIntel,59.94125757,,,,,,,,,,,,0.892,1,,,,,,,,,,,,,,m,1,0.892,,,,,,,,-0.036462176,-0.273049701,0,0,0,,0,154,154,3,1,FINGER,C,old,m,./images/FINGER.png,,,,,,,,,,,,,,,,,,,,,
,,,,,,,,,,,,,,,,,199204,18,2022-01-29_12h45.57.449,lexical_decision_task_DD,2021.2.3,MacIntel,59.94125757,,,,,,,,,,,,0.8956,1,,,,,,,,,,,,,,m,1,0.8956,,,,,,,,-0.036462176,-0.273049701,0,0,0,,0,155,155,15,1,GREASE,C,old,m,./images/GREASE.png,,,,,,,,,,,,,,,,,,,,,
,,,,,,,,,,,,,,,,,199204,18,2022-01-29_12h45.57.449,lexical_decision_task_DD,2021.2.3,MacIntel,59.94125757,,,,,,,,,,,,0.7298,1,,,,,,,,,,,,,,z,1,0.7298,,,,,,,,-0.036462176,-0.273049701,0,0,0,,0,156,156,162,1,LEICH,C,old,z,./images/LEICH.png,,,,,,,,,,,,,,,,,,,,,
,,,,,,,,,,,,,,,,,199204,18,2022-01-29_12h45.57.449,lexical_decision_task_DD,2021.2.3,MacIntel,59.94125757,,,,,,,,,,,,0.7985,1,,,,,,,,,,,,,,z,1,0.7985,,,,,,,,-0.036462176,-0.273049701,0,0,0,,0,157,157,163,1,GAMBA,HB,old,z,./images/GAMBAHB.png,,,,,,,,,,,,,,,,,,,,,
,,,,,,,,,,,,,,,,,199204,18,2022-01-29_12h45.57.449,lexical_decision_task_DD,2021.2.3,MacIntel,59.94125757,,,,,,,,,,,,0.9806,1,,,,,,,,,,,,,,m,1,0.9806,,,,,,,,-0.036462176,-0.273049701,0,0,0,,0,158,158,51,1,ONION,C,old,m,./images/ONION.png,,,,,,,,,,,,,,,,,,,,,
,,,,,,,,,,,,,,,,,199204,18,2022-01-29_12h45.57.449,lexical_decision_task_DD,2021.2.3,MacIntel,59.94125757,,,,,,,,,,,,0.6975,1,,,,,,,,,,,,,,m,1,0.6975,,,,,,,,-0.036462176,-0.273049701,0,0,0,,0,159,159,24,1,SCREW,C,old,m,./images/SCREW.png,,,,,,,,,,,,,,,,,,,,,
,,,,,,,,,,,,,,,,,199204,18,2022-01-29_12h45.57.449,lexical_decision_task_DD,2021.2.3,MacIntel,59.94125757,,,,,,,,,,,,0.7954,1,,,,,,,,,,,,,,m,1,0.7954,,,,,,,,-0.036462176,-0.273049701,0,0,0,,0,160,160,25,1,WRIST,HB,old,m,./images/WRISTHB.png,,,,,,,,,,,,,,,,,,,,,
,,,,,,,,,,,,,,,,,199204,18,2022-01-29_12h45.57.449,lexical_decision_task_DD,2021.2.3,MacIntel,59.94125757,,,,,,,,,,,,0.6491,1,,,,,,,,,,,,,,m,1,0.6491,,,,,,,,-0.036462176,-0.273049701,0,0,0,,0,161,161,65,1,FARMER,LB,old,m,./images/FARMERLB.png,,,,,,,,,,,,,,,,,,,,,
,,,,,,,,,,,,,,,,,199204,18,2022-01-29_12h45.57.449,lexical_decision_task_DD,2021.2.3,MacIntel,59.94125757,,,,,,,,,,,,0.7465,1,,,,,,,,,,,,,,m,1,0.7465,,,,,,,,-0.036462176,-0.273049701,0,0,0,,0,162,162,44,1,LIZARD,LB,old,m,./images/LIZARDLB.png,,,,,,,,,,,,,,,,,,,,,
,,,,,,,,,,,,,,,,,199204,18,2022-01-29_12h45.57.449,lexical_decision_task_DD,2021.2.3,MacIntel,59.94125757,,,,,,,,,,,,0.6692,1,,,,,,,,,,,,,,z,1,0.6692,,,,,,,,-0.036462176,-0.273049701,0,0,0,,0,163,163,122,1,BLOOT,LB,old,z,./images/BLOOTLB.png,,,,,,,,,,,,,,,,,,,,,
,,,,,,,,,,,,,,,,,199204,18,2022-01-29_12h45.57.449,lexical_decision_task_DD,2021.2.3,MacIntel,59.94125757,,,,,,,,,,,,0.6745,1,,,,,,,,,,,,,,z,1,0.6745,,,,,,,,-0.036462176,-0.273049701,0,0,0,,0,164,164,120,1,RINED,C,old,z,./images/RINED.png,,,,,,,,,,,,,,,,,,,,,
,,,,,,,,,,,,,,,,,199204,18,2022-01-29_12h45.57.449,lexical_decision_task_DD,2021.2.3,MacIntel,59.94125757,,,,,,,,,,,,0.594,1,,,,,,,,,,,,,,m,1,0.594,,,,,,,,-0.036462176,-0.273049701,0,0,0,,0,165,165,47,1,BERRY,LB,old,m,./images/BERRYLB.png,,,,,,,,,,,,,,,,,,,,,
,,,,,,,,,,,,,,,,,199204,18,2022-01-29_12h45.57.449,lexical_decision_task_DD,2021.2.3,MacIntel,59.94125757,,,,,,,,,,,,0.6715,1,,,,,,,,,,,,,,m,1,0.6715,,,,,,,,-0.036462176,-0.273049701,0,0,0,,0,166,166,13,1,MOTOR,HB,old,m,./images/MOTORHB.png,,,,,,,,,,,,,,,,,,,,,
,,,,,,,,,,,,,,,,,199204,18,2022-01-29_12h45.57.449,lexical_decision_task_DD,2021.2.3,MacIntel,59.94125757,,,,,,,,,,,,0.6652,1,,,,,,,,,,,,,,m,1,0.6652,,,,,,,,-0.036462176,-0.273049701,0,0,0,,0,167,167,30,1,STORM,C,old,m,./images/STORM.png,,,,,,,,,,,,,,,,,,,,,
,-0.054042957,-0.36275194,1,0,0,instr_done_button,,,,,,1,test,"In the next phase you will be presented with the words from the the first phase. Your job is to decide whether you remember seeing the word or not. If you remember seeing the word press ""old"" or type ""m"". If you do not remember seeing the word press ""new"" or type ""z"". Please press the space bar or click on continue to begin. ",,,199204,18,2022-01-29_12h45.57.449,lexical_decision_task_DD,2021.2.3,MacIntel,59.94125757,,,,,,,,,,,,,,,,,,,,,,,,,,,,,,,,,,,,,,,,,,,,,,,,,,,,,,0,0,0,0,1,,,,,,,,,,,,,,,
space,-0.110680192,-0.245016819,0,0,0,,,,,,,1,test,"In the next phase you will be presented with the words from the the first phase. Your job is to decide whether you remember seeing the word or not. If you remember seeing the word press ""old"" or type ""m"". If you do not remember seeing the word press ""new"" or type ""z"". Please press the space bar or click on continue to begin. ",,,199204,18,2022-01-29_12h45.57.449,lexical_decision_task_DD,2021.2.3,MacIntel,59.94125757,4.7062,,,,,,,,,,,,,,,,,,,,,,,,,,,,,,,,,,,,,,,,,,,,,,,,,,,,,1,0,1,0,1,,,,,,,,,,,,,,,
,-0.006915679,-0.413778347,1,0,0,instr_done_button,,,,,,1,test,"In the next phase you will be presented with the words from the the first phase. Your job is to decide whether you remember seeing the word or not. If you remember seeing the word press ""old"" or type ""m"". If you do not remember seeing the word press ""new"" or type ""z"". Please press the space bar or click on continue to begin. ",,,199204,18,2022-01-29_12h45.57.449,lexical_decision_task_DD,2021.2.3,MacIntel,59.94125757,,,,,,,,,,,,,,,,,,,,,,,,,,,,,,,,,,,,,,,,,,,,,,,,,,,,,,2,0,2,0,1,,,,,,,,,,,,,,,
space,-0.029134567,-0.398251738,0,0,0,,,,,,,1,test,"In the next phase you will be presented with the words from the the first phase. Your job is to decide whether you remember seeing the word or not. If you remember seeing the word press ""old"" or type ""m"". If you do not remember seeing the word press ""new"" or type ""z"". Please press the space bar or click on continue to begin. ",,,199204,18,2022-01-29_12h45.57.449,lexical_decision_task_DD,2021.2.3,MacIntel,59.94125757,3.7153,,,,,,,,,,,,,,,,,,,,,,,,,,,,,,,,,,,,,,,,,,,,,,,,,,,,,3,0,3,0,1,,,,,,,,,,,,,,,
,0.042135507,-0.42470884,1,0,0,instr_done_button,,,,,,1,test,"In the next phase you will be presented with the words from the the first phase. Your job is to decide whether you remember seeing the word or not. If you remember seeing the word press ""old"" or type ""m"". If you do not remember seeing the word press ""new"" or type ""z"". Please press the space bar or click on continue to begin. ",,,199204,18,2022-01-29_12h45.57.449,lexical_decision_task_DD,2021.2.3,MacIntel,59.94125757,,,,,,,,,,,,,,,,,,,,,,,,,,,,,,,,,,,,,,,,,,,,,,,,,,,,,,4,0,4,0,1,,,,,,,,,,,,,,,
,,,,,,,,,,,,,,,,,199204,18,2022-01-29_12h45.57.449,lexical_decision_task_DD,2021.2.3,MacIntel,59.94125757,,,,,,,,,,,,2.5585,1,,,,,,,,,,,,,,,,,,,,,,,,0.024893923,-0.342183601,0,0,0,,,,,,,BLOKE,C,z,m,./images/BLOKE.png,,,,,,,z,1,2.5585,,,,,,,,0,0,0,96,1
,,,,,,,,,,,,,,,,,199204,18,2022-01-29_12h45.57.449,lexical_decision_task_DD,2021.2.3,MacIntel,59.94125757,,,,,,,,,,,,1.3014,1,,,,,,,,,,,,,,,,,,,,,,,,0.024893923,-0.342183601,0,0,0,,,,,,,BABOON,HB,m,m,./images/BABOONHB.png,,,,,,,m,1,1.3014,,,,,,,,0,1,1,58,1
,,,,,,,,,,,,,,,,,199204,18,2022-01-29_12h45.57.449,lexical_decision_task_DD,2021.2.3,MacIntel,59.94125757,,,,,,,,,,,,11.3802,0,,,,,,,,,,,,,,,,,,,,,,,,0.024893923,-0.342183601,0,0,0,,,,,,,STREAM,LB,z,m,./images/STREAMLB.png,,,,,,,m,0,11.3802,,,,,,,,0,2,2,125,1
,,,,,,,,,,,,,,,,,199204,18,2022-01-29_12h45.57.449,lexical_decision_task_DD,2021.2.3,MacIntel,59.94125757,,,,,,,,,,,,3.0418,1,,,,,,,,,,,,,,,,,,,,,,,,0.024893923,-0.342183601,0,0,0,,,,,,,CHAIN,C,z,m,./images/CHAIN.png,,,,,,,z,1,3.0418,,,,,,,,0,3,3,126,1
,,,,,,,,,,,,,,,,,199204,18,2022-01-29_12h45.57.449,lexical_decision_task_DD,2021.2.3,MacIntel,59.94125757,,,,,,,,,,,,0.8377,1,,,,,,,,,,,,,,,,,,,,,,,,0.024893923,-0.342183601,0,0,0,,,,,,,MOSQUE,HB,m,m,./images/MOSQUEHB.png,,,,,,,m,1,0.8377,,,,,,,,0,4,4,43,1
,,,,,,,,,,,,,,,,,199204,18,2022-01-29_12h45.57.449,lexical_decision_task_DD,2021.2.3,MacIntel,59.94125757,,,,,,,,,,,,1.3446,0,,,,,,,,,,,,,,,,,,,,,,,,0.024893923,-0.342183601,0,0,0,,,,,,,PACKET,LB,m,m,./images/PACKETLB.png,,,,,,,z,0,1.3446,,,,,,,,0,5,5,56,1
,,,,,,,,,,,,,,,,,199204,18,2022-01-29_12h45.57.449,lexical_decision_task_DD,2021.2.3,MacIntel,59.94125757,,,,,,,,,,,,0.9858,1,,,,,,,,,,,,,,,,,,,,,,,,0.024893923,-0.342183601,0,0,0,,,,,,,NOOSE,C,m,m,./images/NOOSE.png,,,,,,,m,1,0.9858,,,,,,,,0,6,6,72,1
,,,,,,,,,,,,,,,,,199204,18,2022-01-29_12h45.57.449,lexical_decision_task_DD,2021.2.3,MacIntel,59.94125757,,,,,,,,,,,,2.057,0,,,,,,,,,,,,,,,,,,,,,,,,0.024893923,-0.342183601,0,0,0,,,,,,,HAMMER,C,z,m,./images/HAMMER.png,,,,,,,m,0,2.057,,,,,,,,0,7,7,159,1
,,,,,,,,,,,,,,,,,199204,18,2022-01-29_12h45.57.449,lexical_decision_task_DD,2021.2.3,MacIntel,59.94125757,,,,,,,,,,,,0.9588,1,,,,,,,,,,,,,,,,,,,,,,,,0.024893923,-0.342183601,0,0,0,,,,,,,SAILOR,HB,m,m,./images/SAILORHB.png,,,,,,,m,1,0.9588,,,,,,,,0,8,8,67,1
,,,,,,,,,,,,,,,,,199204,18,2022-01-29_12h45.57.449,lexical_decision_task_DD,2021.2.3,MacIntel,59.94125757,,,,,,,,,,,,1.0138,1,,,,,,,,,,,,,,,,,,,,,,,,0.024893923,-0.342183601,0,0,0,,,,,,,CASINO,HB,z,m,./images/CASINOHB.png,,,,,,,z,1,1.0138,,,,,,,,0,9,9,112,1
,,,,,,,,,,,,,,,,,199204,18,2022-01-29_12h45.57.449,lexical_decision_task_DD,2021.2.3,MacIntel,59.94125757,,,,,,,,,,,,0.9352,1,,,,,,,,,,,,,,,,,,,,,,,,0.024893923,-0.342183601,0,0,0,,,,,,,KITTEN,C,m,m,./images/KITTEN.png,,,,,,,m,1,0.9352,,,,,,,,0,10,10,45,1
,,,,,,,,,,,,,,,,,199204,18,2022-01-29_12h45.57.449,lexical_decision_task_DD,2021.2.3,MacIntel,59.94125757,,,,,,,,,,,,1.035,1,,,,,,,,,,,,,,,,,,,,,,,,0.024893923,-0.342183601,0,0,0,,,,,,,DONKEY,HB,z,m,./images/DONKEYHB.png,,,,,,,z,1,1.035,,,,,,,,0,11,11,103,1
,,,,,,,,,,,,,,,,,199204,18,2022-01-29_12h45.57.449,lexical_decision_task_DD,2021.2.3,MacIntel,59.94125757,,,,,,,,,,,,1.0922,1,,,,,,,,,,,,,,,,,,,,,,,,0.024893923,-0.342183601,0,0,0,,,,,,,POODLE,C,m,m,./images/POODLE.png,,,,,,,m,1,1.0922,,,,,,,,0,12,12,81,1
,,,,,,,,,,,,,,,,,199204,18,2022-01-29_12h45.57.449,lexical_decision_task_DD,2021.2.3,MacIntel,59.94125757,,,,,,,,,,,,1.1531,1,,,,,,,,,,,,,,,,,,,,,,,,0.024893923,-0.342183601,0,0,0,,,,,,,WALNUT,C,z,m,./images/WALNUT.png,,,,,,,z,1,1.1531,,,,,,,,0,13,13,84,1
,,,,,,,,,,,,,,,,,199204,18,2022-01-29_12h45.57.449,lexical_decision_task_DD,2021.2.3,MacIntel,59.94125757,,,,,,,,,,,,2.0823,0,,,,,,,,,,,,,,,,,,,,,,,,0.024893923,-0.342183601,0,0,0,,,,,,,SWING,HB,m,m,./images/SWINGHB.png,,,,,,,z,0,2.0823,,,,,,,,0,14,14,40,1
,,,,,,,,,,,,,,,,,199204,18,2022-01-29_12h45.57.449,lexical_decision_task_DD,2021.2.3,MacIntel,59.94125757,,,,,,,,,,,,2.922,1,,,,,,,,,,,,,,,,,,,,,,,,0.024893923,-0.342183601,0,0,0,,,,,,,FERRY,C,z,m,./images/FERRY.png,,,,,,,z,1,2.922,,,,,,,,0,15,15,141,1
,,,,,,,,,,,,,,,,,199204,18,2022-01-29_12h45.57.449,lexical_decision_task_DD,2021.2.3,MacIntel,59.94125757,,,,,,,,,,,,2.4459,1,,,,,,,,,,,,,,,,,,,,,,,,0.024893923,-0.342183601,0,0,0,,,,,,,VALLEY,LB,z,m,./images/VALLEYLB.png,,,,,,,z,1,2.4459,,,,,,,,0,16,16,152,1
,,,,,,,,,,,,,,,,,199204,18,2022-01-29_12h45.57.449,lexical_decision_task_DD,2021.2.3,MacIntel,59.94125757,,,,,,,,,,,,0.6981,1,,,,,,,,,,,,,,,,,,,,,,,,0.024893923,-0.342183601,0,0,0,,,,,,,MOOSE,C,m,m,./images/MOOSE.png,,,,,,,m,1,0.6981,,,,,,,,0,17,17,57,1
,,,,,,,,,,,,,,,,,199204,18,2022-01-29_12h45.57.449,lexical_decision_task_DD,2021.2.3,MacIntel,59.94125757,,,,,,,,,,,,0.7186,1,,,,,,,,,,,,,,,,,,,,,,,,0.024893923,-0.342183601,0,0,0,,,,,,,PEARL,HB,m,m,./images/PEARLHB.png,,,,,,,m,1,0.7186,,,,,,,,0,18,18,46,1
,,,,,,,,,,,,,,,,,199204,18,2022-01-29_12h45.57.449,lexical_decision_task_DD,2021.2.3,MacIntel,59.94125757,,,,,,,,,,,,1.0809,1,,,,,,,,,,,,,,,,,,,,,,,,0.024893923,-0.342183601,0,0,0,,,,,,,BARREL,LB,m,m,./images/BARRELLB.png,,,,,,,m,1,1.0809,,,,,,,,0,19,19,32,1
,,,,,,,,,,,,,,,,,199204,18,2022-01-29_12h45.57.449,lexical_decision_task_DD,2021.2.3,MacIntel,59.94125757,,,,,,,,,,,,0.7939,1,,,,,,,,,,,,,,,,,,,,,,,,0.024893923,-0.342183601,0,0,0,,,,,,,MIRROR,C,m,m,./images/MIRROR.png,,,,,,,m,1,0.7939,,,,,,,,0,20,20,63,1
,,,,,,,,,,,,,,,,,199204,18,2022-01-29_12h45.57.449,lexical_decision_task_DD,2021.2.3,MacIntel,59.94125757,,,,,,,,,,,,1.602,1,,,,,,,,,,,,,,,,,,,,,,,,0.024893923,-0.342183601,0,0,0,,,,,,,GRAIN,C,m,m,./images/GRAIN.png,,,,,,,m,1,1.602,,,,,,,,0,21,21,75,1
,,,,,,,,,,,,,,,,,199204,18,2022-01-29_12h45.57.449,lexical_decision_task_DD,2021.2.3,MacIntel,59.94125757,,,,,,,,,,,,1.0942,1,,,,,,,,,,,,,,,,,,,,,,,,0.024893923,-0.342183601,0,0,0,,,,,,,PISTOL,LB,z,m,./images/PISTOLLB.png,,,,,,,z,1,1.0942,,,,,,,,0,22,22,113,1
,,,,,,,,,,,,,,,,,199204,18,2022-01-29_12h45.57.449,lexical_decision_task_DD,2021.2.3,MacIntel,59.94125757,,,,,,,,,,,,1.3365,0,,,,,,,,,,,,,,,,,,,,,,,,0.024893923,-0.342183601,0,0,0,,,,,,,SHELF,C,m,m,./images/SHELF.png,,,,,,,z,0,1.3365,,,,,,,,0,23,23,39,1
,,,,,,,,,,,,,,,,,199204,18,2022-01-29_12h45.57.449,lexical_decision_task_DD,2021.2.3,MacIntel,59.94125757,,,,,,,,,,,,3.0095,1,,,,,,,,,,,,,,,,,,,,,,,,0.024893923,-0.342183601,0,0,0,,,,,,,LAGOON,LB,z,m,./images/LAGOONLB.png,,,,,,,z,1,3.0095,,,,,,,,0,24,24,131,1
,,,,,,,,,,,,,,,,,199204,18,2022-01-29_12h45.57.449,lexical_decision_task_DD,2021.2.3,MacIntel,59.94125757,,,,,,,,,,,,1.0687,0,,,,,,,,,,,,,,,,,,,,,,,,0.024893923,-0.342183601,0,0,0,,,,,,,COOKER,C,m,m,./images/COOKER.png,,,,,,,z,0,1.0687,,,,,,,,0,25,25,69,1
,,,,,,,,,,,,,,,,,199204,18,2022-01-29_12h45.57.449,lexical_decision_task_DD,2021.2.3,MacIntel,59.94125757,,,,,,,,,,,,0.8655,0,,,,,,,,,,,,,,,,,,,,,,,,0.024893923,-0.342183601,0,0,0,,,,,,,BRIDE,HB,z,m,./images/BRIDEHB.png,,,,,,,m,0,0.8655,,,,,,,,0,26,26,148,1
,,,,,,,,,,,,,,,,,199204,18,2022-01-29_12h45.57.449,lexical_decision_task_DD,2021.2.3,MacIntel,59.94125757,,,,,,,,,,,,1.2902,1,,,,,,,,,,,,,,,,,,,,,,,,0.024893923,-0.342183601,0,0,0,,,,,,,PIMPLE,LB,m,m,./images/PIMPLELB.png,,,,,,,m,1,1.2902,,,,,,,,0,27,27,71,1
,,,,,,,,,,,,,,,,,199204,18,2022-01-29_12h45.57.449,lexical_decision_task_DD,2021.2.3,MacIntel,59.94125757,,,,,,,,,,,,4.6619,1,,,,,,,,,,,,,,,,,,,,,,,,0.024893923,-0.342183601,0,0,0,,,,,,,SPORT,C,m,m,./images/SPORT.png,,,,,,,m,1,4.6619,,,,,,,,0,28,28,48,1
,,,,,,,,,,,,,,,,,199204,18,2022-01-29_12h45.57.449,lexical_decision_task_DD,2021.2.3,MacIntel,59.94125757,,,,,,,,,,,,1.6018,1,,,,,,,,,,,,,,,,,,,,,,,,0.024893923,-0.342183601,0,0,0,,,,,,,CRATER,C,z,m,./images/CRATER.png,,,,,,,z,1,1.6018,,,,,,,,0,29,29,87,1
,,,,,,,,,,,,,,,,,199204,18,2022-01-29_12h45.57.449,lexical_decision_task_DD,2021.2.3,MacIntel,59.94125757,,,,,,,,,,,,2.071,1,,,,,,,,,,,,,,,,,,,,,,,,0.024893923,-0.342183601,0,0,0,,,,,,,CANOE,HB,z,m,./images/CANOEHB.png,,,,,,,z,1,2.071,,,,,,,,0,30,30,142,1
,,,,,,,,,,,,,,,,,199204,18,2022-01-29_12h45.57.449,lexical_decision_task_DD,2021.2.3,MacIntel,59.94125757,,,,,,,,,,,,2.6749,0,,,,,,,,,,,,,,,,,,,,,,,,0.024893923,-0.342183601,0,0,0,,,,,,,CHALK,HB,z,m,./images/CHALKHB.png,,,,,,,m,0,2.6749,,,,,,,,0,31,31,109,1
,,,,,,,,,,,,,,,,,199204,18,2022-01-29_12h45.57.449,lexical_decision_task_DD,2021.2.3,MacIntel,59.94125757,,,,,,,,,,,,1.0225,1,,,,,,,,,,,,,,,,,,,,,,,,0.024893923,-0.342183601,0,0,0,,,,,,,MAGGOT,C,m,m,./images/MAGGOT.png,,,,,,,m,1,1.0225,,,,,,,,0,32,32,33,1
,,,,,,,,,,,,,,,,,199204,18,2022-01-29_12h45.57.449,lexical_decision_task_DD,2021.2.3,MacIntel,59.94125757,,,,,,,,,,,,1.3305,1,,,,,,,,,,,,,,,,,,,,,,,,0.024893923,-0.342183601,0,0,0,,,,,,,POKER,HB,z,m,./images/POKERHB.png,,,,,,,z,1,1.3305,,,,,,,,0,33,33,151,1
,,,,,,,,,,,,,,,,,199204,18,2022-01-29_12h45.57.449,lexical_decision_task_DD,2021.2.3,MacIntel,59.94125757,,,,,,,,,,,,2.5162,1,,,,,,,,,,,,,,,,,,,,,,,,0.024893923,-0.342183601,0,0,0,,,,,,,BELLY,HB,m,m,./images/BELLYHB.png,,,,,,,m,1,2.5162,,,,,,,,0,34,34,10,1
,,,,,,,,,,,,,,,,,199204,18,2022-01-29_12h45.57.449,lexical_decision_task_DD,2021.2.3,MacIntel,59.94125757,,,,,,,,,,,,2.6577,1,,,,,,,,,,,,,,,,,,,,,,,,0.024893923,-0.342183601,0,0,0,,,,,,,CANDY,C,z,m,./images/CANDY.png,,,,,,,z,1,2.6577,,,,,,,,0,35,35,123,1
,,,,,,,,,,,,,,,,,199204,18,2022-01-29_12h45.57.449,lexical_decision_task_DD,2021.2.3,MacIntel,59.94125757,,,,,,,,,,,,0.9865,1,,,,,,,,,,,,,,,,,,,,,,,,0.024893923,-0.342183601,0,0,0,,,,,,,CEMENT,LB,m,m,./images/CEMENTLB.png,,,,,,,m,1,0.9865,,,,,,,,0,36,36,74,1
,,,,,,,,,,,,,,,,,199204,18,2022-01-29_12h45.57.449,lexical_decision_task_DD,2021.2.3,MacIntel,59.94125757,,,,,,,,,,,,1.8853,1,,,,,,,,,,,,,,,,,,,,,,,,0.024893923,-0.342183601,0,0,0,,,,,,,TWINS,C,m,m,./images/TWINS.png,,,,,,,m,1,1.8853,,,,,,,,0,37,37,60,1
,,,,,,,,,,,,,,,,,199204,18,2022-01-29_12h45.57.449,lexical_decision_task_DD,2021.2.3,MacIntel,59.94125757,,,,,,,,,,,,1.2764,0,,,,,,,,,,,,,,,,,,,,,,,,0.024893923,-0.342183601,0,0,0,,,,,,,GRAPE,HB,z,m,./images/GRAPEHB.png,,,,,,,m,0,1.2764,,,,,,,,0,38,38,100,1
,,,,,,,,,,,,,,,,,199204,18,2022-01-29_12h45.57.449,lexical_decision_task_DD,2021.2.3,MacIntel,59.94125757,,,,,,,,,,,,0.8365,1,,,,,,,,,,,,,,,,,,,,,,,,0.024893923,-0.342183601,0,0,0,,,,,,,JELLY,HB,m,m,./images/JELLYHB.png,,,,,,,m,1,0.8365,,,,,,,,0,39,39,64,1
,,,,,,,,,,,,,,,,,199204,18,2022-01-29_12h45.57.449,lexical_decision_task_DD,2021.2.3,MacIntel,59.94125757,,,,,,,,,,,,2.3878,1,,,,,,,,,,,,,,,,,,,,,,,,0.024893923,-0.342183601,0,0,0,,,,,,,DIVER,C,z,m,./images/DIVER.png,,,,,,,z,1,2.3878,,,,,,,,0,40,40,93,1
,,,,,,,,,,,,,,,,,199204,18,2022-01-29_12h45.57.449,lexical_decision_task_DD,2021.2.3,MacIntel,59.94125757,,,,,,,,,,,,3.5428,1,,,,,,,,,,,,,,,,,,,,,,,,0.024893923,-0.342183601,0,0,0,space,,,,,,COLLAR,C,z,m,./images/COLLAR.png,1.9887,,,,,,z,1,3.5428,,,,,,,,0,41,41,99,1
,,,,,,,,,,,,,,,,,199204,18,2022-01-29_12h45.57.449,lexical_decision_task_DD,2021.2.3,MacIntel,59.94125757,,,,,,,,,,,,1.3763,1,,,,,,,,,,,,,,,,,,,,,,,,0.024893923,-0.342183601,0,0,0,,,,,,,MIDGET,HB,z,m,./images/MIDGETHB.png,,,,,,,z,1,1.3763,,,,,,,,0,42,42,160,1
,,,,,,,,,,,,,,,,,199204,18,2022-01-29_12h45.57.449,lexical_decision_task_DD,2021.2.3,MacIntel,59.94125757,,,,,,,,,,,,1.0611,0,,,,,,,,,,,,,,,,,,,,,,,,0.024893923,-0.342183601,0,0,0,,,,,,,CHERRY,C,z,m,./images/CHERRY.png,,,,,,,m,0,1.0611,,,,,,,,0,43,43,138,1
,,,,,,,,,,,,,,,,,199204,18,2022-01-29_12h45.57.449,lexical_decision_task_DD,2021.2.3,MacIntel,59.94125757,,,,,,,,,,,,0.963,1,,,,,,,,,,,,,,,,,,,,,,,,0.024893923,-0.342183601,0,0,0,,,,,,,MUMMY,HB,z,m,./images/MUMMYHB.png,,,,,,,z,1,0.963,,,,,,,,0,44,44,130,1
,,,,,,,,,,,,,,,,,199204,18,2022-01-29_12h45.57.449,lexical_decision_task_DD,2021.2.3,MacIntel,59.94125757,,,,,,,,,,,,0.857,1,,,,,,,,,,,,,,,,,,,,,,,,0.024893923,-0.342183601,0,0,0,,,,,,,BEARD,LB,m,m,./images/BEARDLB.png,,,,,,,m,1,0.857,,,,,,,,0,45,45,2,1
,,,,,,,,,,,,,,,,,199204,18,2022-01-29_12h45.57.449,lexical_decision_task_DD,2021.2.3,MacIntel,59.94125757,,,,,,,,,,,,0.9015,1,,,,,,,,,,,,,,,,,,,,,,,,0.024893923,-0.342183601,0,0,0,,,,,,,THROAT,C,m,m,./images/THROAT.png,,,,,,,m,1,0.9015,,,,,,,,0,46,46,36,1
,,,,,,,,,,,,,,,,,199204,18,2022-01-29_12h45.57.449,lexical_decision_task_DD,2021.2.3,MacIntel,59.94125757,,,,,,,,,,,,0.7613,1,,,,,,,,,,,,,,,,,,,,,,,,0.024893923,-0.342183601,0,0,0,,,,,,,DRUMS,HB,m,m,./images/DRUMSHB.png,,,,,,,m,1,0.7613,,,,,,,,0,47,47,49,1
,,,,,,,,,,,,,,,,,199204,18,2022-01-29_12h45.57.449,lexical_decision_task_DD,2021.2.3,MacIntel,59.94125757,,,,,,,,,,,,0.8945,1,,,,,,,,,,,,,,,,,,,,,,,,0.024893923,-0.342183601,0,0,0,,,,,,,PARADE,LB,z,m,./images/PARADELB.png,,,,,,,z,1,0.8945,,,,,,,,0,48,48,101,1
,,,,,,,,,,,,,,,,,199204,18,2022-01-29_12h45.57.449,lexical_decision_task_DD,2021.2.3,MacIntel,59.94125757,,,,,,,,,,,,2.8854,1,,,,,,,,,,,,,,,,,,,,,,,,0.024893923,-0.342183601,0,0,0,,,,,,,LITTER,C,m,m,./images/LITTER.png,,,,,,,m,1,2.8854,,,,,,,,0,49,49,78,1
,,,,,,,,,,,,,,,,,199204,18,2022-01-29_12h45.57.449,lexical_decision_task_DD,2021.2.3,MacIntel,59.94125757,,,,,,,,,,,,0.9065,1,,,,,,,,,,,,,,,,,,,,,,,,0.024893923,-0.342183601,0,0,0,,,,,,,CANDLE,HB,m,m,./images/CANDLEHB.png,,,,,,,m,1,0.9065,,,,,,,,0,50,50,61,1
,,,,,,,,,,,,,,,,,199204,18,2022-01-29_12h45.57.449,lexical_decision_task_DD,2021.2.3,MacIntel,59.94125757,,,,,,,,,,,,0.9297,1,,,,,,,,,,,,,,,,,,,,,,,,0.024893923,-0.342183601,0,0,0,,,,,,,URINE,HB,m,m,./images/URINEHB.png,,,,,,,m,1,0.9297,,,,,,,,0,51,51,70,1
,,,,,,,,,,,,,,,,,199204,18,2022-01-29_12h45.57.449,lexical_decision_task_DD,2021.2.3,MacIntel,59.94125757,,,,,,,,,,,,1.4617,0,,,,,,,,,,,,,,,,,,,,,,,,0.024893923,-0.342183601,0,0,0,,,,,,,POSTER,LB,z,m,./images/POSTERLB.png,,,,,,,m,0,1.4617,,,,,,,,0,52,52,137,1
,,,,,,,,,,,,,,,,,199204,18,2022-01-29_12h45.57.449,lexical_decision_task_DD,2021.2.3,MacIntel,59.94125757,,,,,,,,,,,,2.307,0,,,,,,,,,,,,,,,,,,,,,,,,0.024893923,-0.342183601,0,0,0,,,,,,,BROOM,C,z,m,./images/BROOM.png,,,,,,,m,0,2.307,,,,,,,,0,53,53,162,1
,,,,,,,,,,,,,,,,,199204,18,2022-01-29_12h45.57.449,lexical_decision_task_DD,2021.2.3,MacIntel,59.94125757,,,,,,,,,,,,1.6034,0,,,,,,,,,,,,,,,,,,,,,,,,0.024893923,-0.342183601,0,0,0,,,,,,,FLASK,C,z,m,./images/FLASK.png,,,,,,,m,0,1.6034,,,,,,,,0,54,54,156,1
,,,,,,,,,,,,,,,,,199204,18,2022-01-29_12h45.57.449,lexical_decision_task_DD,2021.2.3,MacIntel,59.94125757,,,,,,,,,,,,0.7632,1,,,,,,,,,,,,,,,,,,,,,,,,0.024893923,-0.342183601,0,0,0,,,,,,,TIGER,HB,z,m,./images/TIGERHB.png,,,,,,,z,1,0.7632,,,,,,,,0,55,55,121,1
,,,,,,,,,,,,,,,,,199204,18,2022-01-29_12h45.57.449,lexical_decision_task_DD,2021.2.3,MacIntel,59.94125757,,,,,,,,,,,,1.2157,0,,,,,,,,,,,,,,,,,,,,,,,,0.024893923,-0.342183601,0,0,0,,,,,,,PENCE,HB,m,m,./images/PENCEHB.png,,,,,,,z,0,1.2157,,,,,,,,0,56,56,16,1
,,,,,,,,,,,,,,,,,199204,18,2022-01-29_12h45.57.449,lexical_decision_task_DD,2021.2.3,MacIntel,59.94125757,,,,,,,,,,,,2.365,0,,,,,,,,,,,,,,,,,,,,,,,,0.024893923,-0.342183601,0,0,0,,,,,,,ONION,C,m,m,./images/ONION.png,,,,,,,z,0,2.365,,,,,,,,0,57,57,51,1
,,,,,,,,,,,,,,,,,199204,18,2022-01-29_12h45.57.449,lexical_decision_task_DD,2021.2.3,MacIntel,59.94125757,,,,,,,,,,,,1.4078,1,,,,,,,,,,,,,,,,,,,,,,,,0.024893923,-0.342183601,0,0,0,,,,,,,PLANK,HB,m,m,./images/PLANKHB.png,,,,,,,m,1,1.4078,,,,,,,,0,58,58,1,1
,,,,,,,,,,,,,,,,,199204,18,2022-01-29_12h45.57.449,lexical_decision_task_DD,2021.2.3,MacIntel,59.94125757,,,,,,,,,,,,2.5298,0,,,,,,,,,,,,,,,,,,,,,,,,0.024893923,-0.342183601,0,0,0,,,,,,,BUTTER,C,z,m,./images/BUTTER.png,,,,,,,m,0,2.5298,,,,,,,,0,59,59,111,1
,,,,,,,,,,,,,,,,,199204,18,2022-01-29_12h45.57.449,lexical_decision_task_DD,2021.2.3,MacIntel,59.94125757,,,,,,,,,,,,3.8889,0,,,,,,,,,,,,,,,,,,,,,,,,0.024893923,-0.342183601,0,0,0,,,,,,,CLOWN,HB,z,m,./images/CLOWNHB.png,,,,,,,m,0,3.8889,,,,,,,,0,60,60,106,1
,,,,,,,,,,,,,,,,,199204,18,2022-01-29_12h45.57.449,lexical_decision_task_DD,2021.2.3,MacIntel,59.94125757,,,,,,,,,,,,1.219,1,,,,,,,,,,,,,,,,,,,,,,,,0.024893923,-0.342183601,0,0,0,,,,,,,WHISKY,LB,z,m,./images/WHISKYLB.png,,,,,,,z,1,1.219,,,,,,,,0,61,61,167,1
,,,,,,,,,,,,,,,,,199204,18,2022-01-29_12h45.57.449,lexical_decision_task_DD,2021.2.3,MacIntel,59.94125757,,,,,,,,,,,,2.0548,0,,,,,,,,,,,,,,,,,,,,,,,,0.024893923,-0.342183601,0,0,0,,,,,,,BURIAL,LB,m,m,./images/BURIALLB.png,,,,,,,z,0,2.0548,,,,,,,,0,62,62,59,1
,,,,,,,,,,,,,,,,,199204,18,2022-01-29_12h45.57.449,lexical_decision_task_DD,2021.2.3,MacIntel,59.94125757,,,,,,,,,,,,2.3473,0,,,,,,,,,,,,,,,,,,,,,,,,0.024893923,-0.342183601,0,0,0,,,,,,,CRUST,HB,m,m,./images/CRUSTHB.png,,,,,,,z,0,2.3473,,,,,,,,0,63,63,79,1
,,,,,,,,,,,,,,,,,199204,18,2022-01-29_12h45.57.449,lexical_decision_task_DD,2021.2.3,MacIntel,59.94125757,,,,,,,,,,,,2.0207,1,,,,,,,,,,,,,,,,,,,,,,,,0.024893923,-0.342183601,0,0,0,,,,,,,PAINT,HB,m,m,./images/PAINTHB.png,,,,,,,m,1,2.0207,,,,,,,,0,64,64,7,1
,,,,,,,,,,,,,,,,,199204,18,2022-01-29_12h45.57.449,lexical_decision_task_DD,2021.2.3,MacIntel,59.94125757,,,,,,,,,,,,0.923,1,,,,,,,,,,,,,,,,,,,,,,,,0.024893923,-0.342183601,0,0,0,,,,,,,JUMPER,LB,z,m,./images/JUMPERLB.png,,,,,,,z,1,0.923,,,,,,,,0,65,65,158,1
,,,,,,,,,,,,,,,,,199204,18,2022-01-29_12h45.57.449,lexical_decision_task_DD,2021.2.3,MacIntel,59.94125757,,,,,,,,,,,,1.3832,0,,,,,,,,,,,,,,,,,,,,,,,,0.024893923,-0.342183601,0,0,0,,,,,,,BIRTH,HB,m,m,./images/BIRTHHB.png,,,,,,,z,0,1.3832,,,,,,,,0,66,66,37,1
,,,,,,,,,,,,,,,,,199204,18,2022-01-29_12h45.57.449,lexical_decision_task_DD,2021.2.3,MacIntel,59.94125757,,,,,,,,,,,,2.1586,0,,,,,,,,,,,,,,,,,,,,,,,,0.024893923,-0.342183601,0,0,0,,,,,,,BASKET,LB,z,m,./images/BASKETLB.png,,,,,,,m,0,2.1586,,,,,,,,0,67,67,128,1
,,,,,,,,,,,,,,,,,199204,18,2022-01-29_12h45.57.449,lexical_decision_task_DD,2021.2.3,MacIntel,59.94125757,,,,,,,,,,,,2.8068,0,,,,,,,,,,,,,,,,,,,,,,,,0.024893923,-0.342183601,0,0,0,,,,,,,CLIFF,LB,z,m,./images/CLIFFLB.png,,,,,,,m,0,2.8068,,,,,,,,0,68,68,92,1
,,,,,,,,,,,,,,,,,199204,18,2022-01-29_12h45.57.449,lexical_decision_task_DD,2021.2.3,MacIntel,59.94125757,,,,,,,,,,,,1.0602,1,,,,,,,,,,,,,,,,,,,,,,,,0.024893923,-0.342183601,0,0,0,,,,,,,SNAKE,HB,z,m,./images/SNAKEHB.png,,,,,,,z,1,1.0602,,,,,,,,0,69,69,124,1
,,,,,,,,,,,,,,,,,199204,18,2022-01-29_12h45.57.449,lexical_decision_task_DD,2021.2.3,MacIntel,59.94125757,,,,,,,,,,,,0.9043,1,,,,,,,,,,,,,,,,,,,,,,,,0.024893923,-0.342183601,0,0,0,,,,,,,GREASE,C,m,m,./images/GREASE.png,,,,,,,m,1,0.9043,,,,,,,,0,70,70,15,1
,,,,,,,,,,,,,,,,,199204,18,2022-01-29_12h45.57.449,lexical_decision_task_DD,2021.2.3,MacIntel,59.94125757,,,,,,,,,,,,1.04,1,,,,,,,,,,,,,,,,,,,,,,,,0.024893923,-0.342183601,0,0,0,,,,,,,DRILL,C,z,m,./images/DRILL.png,,,,,,,z,1,1.04,,,,,,,,0,71,71,165,1
,,,,,,,,,,,,,,,,,199204,18,2022-01-29_12h45.57.449,lexical_decision_task_DD,2021.2.3,MacIntel,59.94125757,,,,,,,,,,,,0.7803,1,,,,,,,,,,,,,,,,,,,,,,,,0.024893923,-0.342183601,0,0,0,,,,,,,MUSCLE,HB,m,m,./images/MUSCLEHB.png,,,,,,,m,1,0.7803,,,,,,,,0,72,72,4,1
,,,,,,,,,,,,,,,,,199204,18,2022-01-29_12h45.57.449,lexical_decision_task_DD,2021.2.3,MacIntel,59.94125757,,,,,,,,,,,,1.4028,0,,,,,,,,,,,,,,,,,,,,,,,,0.024893923,-0.342183601,0,0,0,,,,,,,BAKER,C,z,m,./images/BAKER.png,,,,,,,m,0,1.4028,,,,,,,,0,73,73,147,1
,,,,,,,,,,,,,,,,,199204,18,2022-01-29_12h45.57.449,lexical_decision_task_DD,2021.2.3,MacIntel,59.94125757,,,,,,,,,,,,1.7133,1,,,,,,,,,,,,,,,,,,,,,,,,0.024893923,-0.342183601,0,0,0,,,,,,,GLOVE,HB,z,m,./images/GLOVEHB.png,,,,,,,z,1,1.7133,,,,,,,,0,74,74,157,1
,,,,,,,,,,,,,,,,,199204,18,2022-01-29_12h45.57.449,lexical_decision_task_DD,2021.2.3,MacIntel,59.94125757,,,,,,,,,,,,2.4017,1,,,,,,,,,,,,,,,,,,,,,,,,0.024893923,-0.342183601,0,0,0,,,,,,,WHEEL,LB,z,m,./images/WHEELLB.png,,,,,,,z,1,2.4017,,,,,,,,0,75,75,161,1
,,,,,,,,,,,,,,,,,199204,18,2022-01-29_12h45.57.449,lexical_decision_task_DD,2021.2.3,MacIntel,59.94125757,,,,,,,,,,,,1.7182,0,,,,,,,,,,,,,,,,,,,,,,,,0.024893923,-0.342183601,0,0,0,,,,,,,RHINO,C,m,m,./images/RHINO.png,,,,,,,z,0,1.7182,,,,,,,,0,76,76,9,1
,,,,,,,,,,,,,,,,,199204,18,2022-01-29_12h45.57.449,lexical_decision_task_DD,2021.2.3,MacIntel,59.94125757,,,,,,,,,,,,0.8419,1,,,,,,,,,,,,,,,,,,,,,,,,0.024893923,-0.342183601,0,0,0,,,,,,,SAUCE,C,z,m,./images/SAUCE.png,,,,,,,z,1,0.8419,,,,,,,,0,77,77,135,1
,,,,,,,,,,,,,,,,,199204,18,2022-01-29_12h45.57.449,lexical_decision_task_DD,2021.2.3,MacIntel,59.94125757,,,,,,,,,,,,2.4349,1,,,,,,,,,,,,,,,,,,,,,,,,0.024893923,-0.342183601,0,0,0,,,,,,,TOWEL,HB,z,m,./images/TOWELHB.png,,,,,,,z,1,2.4349,,,,,,,,0,78,78,85,1
,,,,,,,,,,,,,,,,,199204,18,2022-01-29_12h45.57.449,lexical_decision_task_DD,2021.2.3,MacIntel,59.94125757,,,,,,,,,,,,2.1401,1,,,,,,,,,,,,,,,,,,,,,,,,0.024893923,-0.342183601,0,0,0,,,,,,,PARCEL,C,z,m,./images/PARCEL.png,,,,,,,z,1,2.1401,,,,,,,,0,79,79,102,1
,,,,,,,,,,,,,,,,,199204,18,2022-01-29_12h45.57.449,lexical_decision_task_DD,2021.2.3,MacIntel,59.94125757,,,,,,,,,,,,1.3749,0,,,,,,,,,,,,,,,,,,,,,,,,0.024893923,-0.342183601,0,0,0,,,,,,,DOUGH,HB,m,m,./images/DOUGHHB.png,,,,,,,z,0,1.3749,,,,,,,,0,80,80,19,1
,,,,,,,,,,,,,,,,,199204,18,2022-01-29_12h45.57.449,lexical_decision_task_DD,2021.2.3,MacIntel,59.94125757,,,,,,,,,,,,1.0021,1,,,,,,,,,,,,,,,,,,,,,,,,0.024893923,-0.342183601,0,0,0,,,,,,,FLESH,C,z,m,./images/FLESH.png,,,,,,,z,1,1.0021,,,,,,,,0,81,81,108,1
,,,,,,,,,,,,,,,,,199204,18,2022-01-29_12h45.57.449,lexical_decision_task_DD,2021.2.3,MacIntel,59.94125757,,,,,,,,,,,,0.8699,1,,,,,,,,,,,,,,,,,,,,,,,,0.024893923,-0.342183601,0,0,0,,,,,,,BUNNY,HB,z,m,./images/BUNNYHB.png,,,,,,,z,1,0.8699,,,,,,,,0,82,82,97,1
,,,,,,,,,,,,,,,,,199204,18,2022-01-29_12h45.57.449,lexical_decision_task_DD,2021.2.3,MacIntel,59.94125757,,,,,,,,,,,,1.2176,1,,,,,,,,,,,,,,,,,,,,,,,,0.024893923,-0.342183601,0,0,0,space,,,,,,MALLET,LB,m,m,./images/MALLETLB.png,1.2664,,,,,,m,1,1.2176,,,,,,,,0,83,83,50,1
,,,,,,,,,,,,,,,,,199204,18,2022-01-29_12h45.57.449,lexical_decision_task_DD,2021.2.3,MacIntel,59.94125757,,,,,,,,,,,,0.9279,0,,,,,,,,,,,,,,,,,,,,,,,,0.024893923,-0.342183601,0,0,0,,,,,,,MONKEY,C,z,m,./images/MONKEY.png,,,,,,,m,0,0.9279,,,,,,,,0,84,84,129,1
,,,,,,,,,,,,,,,,,199204,18,2022-01-29_12h45.57.449,lexical_decision_task_DD,2021.2.3,MacIntel,59.94125757,,,,,,,,,,,,5.2421,1,,,,,,,,,,,,,,,,,,,,,,,,0.024893923,-0.342183601,0,0,0,,,,,,,SWEAT,C,m,m,./images/SWEAT.png,,,,,,,m,1,5.2421,,,,,,,,0,85,85,66,1
,,,,,,,,,,,,,,,,,199204,18,2022-01-29_12h45.57.449,lexical_decision_task_DD,2021.2.3,MacIntel,59.94125757,,,,,,,,,,,,2.5419,1,,,,,,,,,,,,,,,,,,,,,,,,0.024893923,-0.342183601,0,0,0,,,,,,,MUFFIN,HB,m,m,./images/MUFFINHB.png,,,,,,,m,1,2.5419,,,,,,,,0,86,86,55,1
,,,,,,,,,,,,,,,,,199204,18,2022-01-29_12h45.57.449,lexical_decision_task_DD,2021.2.3,MacIntel,59.94125757,,,,,,,,,,,,1.0384,1,,,,,,,,,,,,,,,,,,,,,,,,0.024893923,-0.342183601,0,0,0,,,,,,,CRADLE,LB,m,m,./images/CRADLELB.png,,,,,,,m,1,1.0384,,,,,,,,0,87,87,20,1
,,,,,,,,,,,,,,,,,199204,18,2022-01-29_12h45.57.449,lexical_decision_task_DD,2021.2.3,MacIntel,59.94125757,,,,,,,,,,,,0.7827,1,,,,,,,,,,,,,,,,,,,,,,,,0.024893923,-0.342183601,0,0,0,,,,,,,ARROW,C,z,m,./images/ARROW.png,,,,,,,z,1,0.7827,,,,,,,,0,88,88,153,1
,,,,,,,,,,,,,,,,,199204,18,2022-01-29_12h45.57.449,lexical_decision_task_DD,2021.2.3,MacIntel,59.94125757,,,,,,,,,,,,0.9242,1,,,,,,,,,,,,,,,,,,,,,,,,0.024893923,-0.342183601,0,0,0,,,,,,,TORCH,LB,m,m,./images/TORCHLB.png,,,,,,,m,1,0.9242,,,,,,,,0,89,89,68,1
,,,,,,,,,,,,,,,,,199204,18,2022-01-29_12h45.57.449,lexical_decision_task_DD,2021.2.3,MacIntel,59.94125757,,,,,,,,,,,,1.017,1,,,,,,,,,,,,,,,,,,,,,,,,0.024893923,-0.342183601,0,0,0,,,,,,,BOXER,HB,z,m,./images/BOXERHB.png,,,,,,,z,1,1.017,,,,,,,,0,90,90,88,1
,,,,,,,,,,,,,,,,,199204,18,2022-01-29_12h45.57.449,lexical_decision_task_DD,2021.2.3,MacIntel,59.94125757,,,,,,,,,,,,0.8322,1,,,,,,,,,,,,,,,,,,,,,,,,0.024893923,-0.342183601,0,0,0,,,,,,,STATUE,C,z,m,./images/STATUE.png,,,,,,,z,1,0.8322,,,,,,,,0,91,91,150,1
,,,,,,,,,,,,,,,,,199204,18,2022-01-29_12h45.57.449,lexical_decision_task_DD,2021.2.3,MacIntel,59.94125757,,,,,,,,,,,,1.0421,0,,,,,,,,,,,,,,,,,,,,,,,,0.024893923,-0.342183601,0,0,0,,,,,,,TULIP,LB,m,m,./images/TULIPLB.png,,,,,,,z,0,1.0421,,,,,,,,0,92,92,8,1
,,,,,,,,,,,,,,,,,199204,18,2022-01-29_12h45.57.449,lexical_decision_task_DD,2021.2.3,MacIntel,59.94125757,,,,,,,,,,,,0.9134,1,,,,,,,,,,,,,,,,,,,,,,,,0.024893923,-0.342183601,0,0,0,,,,,,,FALCON,HB,m,m,./images/FALCONHB.png,,,,,,,m,1,0.9134,,,,,,,,0,93,93,28,1
,,,,,,,,,,,,,,,,,199204,18,2022-01-29_12h45.57.449,lexical_decision_task_DD,2021.2.3,MacIntel,59.94125757,,,,,,,,,,,,1.5231,0,,,,,,,,,,,,,,,,,,,,,,,,0.024893923,-0.342183601,0,0,0,,,,,,,FOLDER,C,m,m,./images/FOLDER.png,,,,,,,z,0,1.5231,,,,,,,,0,94,94,42,1
,,,,,,,,,,,,,,,,,199204,18,2022-01-29_12h45.57.449,lexical_decision_task_DD,2021.2.3,MacIntel,59.94125757,,,,,,,,,,,,1.8845,0,,,,,,,,,,,,,,,,,,,,,,,,0.024893923,-0.342183601,0,0,0,,,,,,,MOTOR,HB,m,m,./images/MOTORHB.png,,,,,,,z,0,1.8845,,,,,,,,0,95,95,13,1
,,,,,,,,,,,,,,,,,199204,18,2022-01-29_12h45.57.449,lexical_decision_task_DD,2021.2.3,MacIntel,59.94125757,,,,,,,,,,,,0.8839,0,,,,,,,,,,,,,,,,,,,,,,,,0.024893923,-0.342183601,0,0,0,,,,,,,WALRUS,LB,m,m,./images/WALRUSLB.png,,,,,,,z,0,0.8839,,,,,,,,0,96,96,23,1
,,,,,,,,,,,,,,,,,199204,18,2022-01-29_12h45.57.449,lexical_decision_task_DD,2021.2.3,MacIntel,59.94125757,,,,,,,,,,,,0.849,1,,,,,,,,,,,,,,,,,,,,,,,,0.024893923,-0.342183601,0,0,0,,,,,,,PEACH,LB,m,m,./images/PEACHLB.png,,,,,,,m,1,0.849,,,,,,,,0,97,97,35,1
,,,,,,,,,,,,,,,,,199204,18,2022-01-29_12h45.57.449,lexical_decision_task_DD,2021.2.3,MacIntel,59.94125757,,,,,,,,,,,,0.9072,0,,,,,,,,,,,,,,,,,,,,,,,,0.024893923,-0.342183601,0,0,0,,,,,,,FENCE,LB,z,m,./images/FENCELB.png,,,,,,,m,0,0.9072,,,,,,,,0,98,98,98,1
,,,,,,,,,,,,,,,,,199204,18,2022-01-29_12h45.57.449,lexical_decision_task_DD,2021.2.3,MacIntel,59.94125757,,,,,,,,,,,,0.9556,1,,,,,,,,,,,,,,,,,,,,,,,,0.024893923,-0.342183601,0,0,0,,,,,,,PLANET,LB,z,m,./images/PLANETLB.png,,,,,,,z,1,0.9556,,,,,,,,0,99,99,164,1
,,,,,,,,,,,,,,,,,199204,18,2022-01-29_12h45.57.449,lexical_decision_task_DD,2021.2.3,MacIntel,59.94125757,,,,,,,,,,,,0.7998,1,,,,,,,,,,,,,,,,,,,,,,,,0.024893923,-0.342183601,0,0,0,,,,,,,HEATER,LB,z,m,./images/HEATERLB.png,,,,,,,z,1,0.7998,,,,,,,,0,100,100,140,1
,,,,,,,,,,,,,,,,,199204,18,2022-01-29_12h45.57.449,lexical_decision_task_DD,2021.2.3,MacIntel,59.94125757,,,,,,,,,,,,0.8496,1,,,,,,,,,,,,,,,,,,,,,,,,0.024893923,-0.342183601,0,0,0,,,,,,,PEBBLE,HB,z,m,./images/PEBBLEHB.png,,,,,,,z,1,0.8496,,,,,,,,0,101,101,166,1
,,,,,,,,,,,,,,,,,199204,18,2022-01-29_12h45.57.449,lexical_decision_task_DD,2021.2.3,MacIntel,59.94125757,,,,,,,,,,,,0.8459,1,,,,,,,,,,,,,,,,,,,,,,,,0.024893923,-0.342183601,0,0,0,,,,,,,TOMATO,C,m,m,./images/TOMATO.png,,,,,,,m,1,0.8459,,,,,,,,0,102,102,0,1
,,,,,,,,,,,,,,,,,199204,18,2022-01-29_12h45.57.449,lexical_decision_task_DD,2021.2.3,MacIntel,59.94125757,,,,,,,,,,,,3.3206,0,,,,,,,,,,,,,,,,,,,,,,,,0.024893923,-0.342183601,0,0,0,,,,,,,CLOTH,LB,z,m,./images/CLOTHLB.png,,,,,,,m,0,3.3206,,,,,,,,0,103,103,107,1
,,,,,,,,,,,,,,,,,199204,18,2022-01-29_12h45.57.449,lexical_decision_task_DD,2021.2.3,MacIntel,59.94125757,,,,,,,,,,,,1.395,1,,,,,,,,,,,,,,,,,,,,,,,,0.024893923,-0.342183601,0,0,0,,,,,,,LLAMA,LB,z,m,./images/LLAMALB.png,,,,,,,z,1,1.395,,,,,,,,0,104,104,119,1
,,,,,,,,,,,,,,,,,199204,18,2022-01-29_12h45.57.449,lexical_decision_task_DD,2021.2.3,MacIntel,59.94125757,,,,,,,,,,,,0.7495,0,,,,,,,,,,,,,,,,,,,,,,,,0.024893923,-0.342183601,0,0,0,,,,,,,PILOT,LB,z,m,./images/PILOTLB.png,,,,,,,m,0,0.7495,,,,,,,,0,105,105,134,1
,,,,,,,,,,,,,,,,,199204,18,2022-01-29_12h45.57.449,lexical_decision_task_DD,2021.2.3,MacIntel,59.94125757,,,,,,,,,,,,1.2146,1,,,,,,,,,,,,,,,,,,,,,,,,0.024893923,-0.342183601,0,0,0,,,,,,,SQUARE,C,m,m,./images/SQUARE.png,,,,,,,m,1,1.2146,,,,,,,,0,106,106,6,1
,,,,,,,,,,,,,,,,,199204,18,2022-01-29_12h45.57.449,lexical_decision_task_DD,2021.2.3,MacIntel,59.94125757,,,,,,,,,,,,0.8741,1,,,,,,,,,,,,,,,,,,,,,,,,0.024893923,-0.342183601,0,0,0,,,,,,,JAGUAR,C,m,m,./images/JAGUAR.png,,,,,,,m,1,0.8741,,,,,,,,0,107,107,18,1
,,,,,,,,,,,,,,,,,199204,18,2022-01-29_12h45.57.449,lexical_decision_task_DD,2021.2.3,MacIntel,59.94125757,,,,,,,,,,,,1.0158,0,,,,,,,,,,,,,,,,,,,,,,,,0.024893923,-0.342183601,0,0,0,,,,,,,COUCH,LB,m,m,./images/COUCHLB.png,,,,,,,z,0,1.0158,,,,,,,,0,108,108,77,1
,,,,,,,,,,,,,,,,,199204,18,2022-01-29_12h45.57.449,lexical_decision_task_DD,2021.2.3,MacIntel,59.94125757,,,,,,,,,,,,0.8634,1,,,,,,,,,,,,,,,,,,,,,,,,0.024893923,-0.342183601,0,0,0,,,,,,,BANANA,HB,z,m,./images/BANANAHB.png,,,,,,,z,1,0.8634,,,,,,,,0,109,109,154,1
,,,,,,,,,,,,,,,,,199204,18,2022-01-29_12h45.57.449,lexical_decision_task_DD,2021.2.3,MacIntel,59.94125757,,,,,,,,,,,,0.8434,1,,,,,,,,,,,,,,,,,,,,,,,,0.024893923,-0.342183601,0,0,0,,,,,,,LADDER,LB,m,m,./images/LADDERLB.png,,,,,,,m,1,0.8434,,,,,,,,0,110,110,38,1
,,,,,,,,,,,,,,,,,199204,18,2022-01-29_12h45.57.449,lexical_decision_task_DD,2021.2.3,MacIntel,59.94125757,,,,,,,,,,,,1.0316,0,,,,,,,,,,,,,,,,,,,,,,,,0.024893923,-0.342183601,0,0,0,,,,,,,QUILL,HB,m,m,./images/QUILLHB.png,,,,,,,z,0,1.0316,,,,,,,,0,111,111,31,1
,,,,,,,,,,,,,,,,,199204,18,2022-01-29_12h45.57.449,lexical_decision_task_DD,2021.2.3,MacIntel,59.94125757,,,,,,,,,,,,1.007,1,,,,,,,,,,,,,,,,,,,,,,,,0.024893923,-0.342183601,0,0,0,,,,,,,STOOL,HB,z,m,./images/STOOLHB.png,,,,,,,z,1,1.007,,,,,,,,0,112,112,127,1
,,,,,,,,,,,,,,,,,199204,18,2022-01-29_12h45.57.449,lexical_decision_task_DD,2021.2.3,MacIntel,59.94125757,,,,,,,,,,,,1.1883,1,,,,,,,,,,,,,,,,,,,,,,,,0.024893923,-0.342183601,0,0,0,,,,,,,GARDEN,HB,z,m,./images/GARDENHB.png,,,,,,,z,1,1.1883,,,,,,,,0,113,113,94,1
,,,,,,,,,,,,,,,,,199204,18,2022-01-29_12h45.57.449,lexical_decision_task_DD,2021.2.3,MacIntel,59.94125757,,,,,,,,,,,,1.7762,0,,,,,,,,,,,,,,,,,,,,,,,,0.024893923,-0.342183601,0,0,0,,,,,,,SNACK,HB,m,m,./images/SNACKHB.png,,,,,,,z,0,1.7762,,,,,,,,0,114,114,73,1
,,,,,,,,,,,,,,,,,199204,18,2022-01-29_12h45.57.449,lexical_decision_task_DD,2021.2.3,MacIntel,59.94125757,,,,,,,,,,,,2.8717,1,,,,,,,,,,,,,,,,,,,,,,,,0.024893923,-0.342183601,0,0,0,,,,,,,ALLEY,HB,z,m,./images/ALLEYHB.png,,,,,,,z,1,2.8717,,,,,,,,0,115,115,139,1
,,,,,,,,,,,,,,,,,199204,18,2022-01-29_12h45.57.449,lexical_decision_task_DD,2021.2.3,MacIntel,59.94125757,,,,,,,,,,,,0.7543,1,,,,,,,,,,,,,,,,,,,,,,,,0.024893923,-0.342183601,0,0,0,,,,,,,SKIING,LB,m,m,./images/SKIINGLB.png,,,,,,,m,1,0.7543,,,,,,,,0,116,116,17,1
,,,,,,,,,,,,,,,,,199204,18,2022-01-29_12h45.57.449,lexical_decision_task_DD,2021.2.3,MacIntel,59.94125757,,,,,,,,,,,,1.2127,1,,,,,,,,,,,,,,,,,,,,,,,,0.024893923,-0.342183601,0,0,0,,,,,,,RAZOR,HB,z,m,./images/RAZORHB.png,,,,,,,z,1,1.2127,,,,,,,,0,117,117,118,1
,,,,,,,,,,,,,,,,,199204,18,2022-01-29_12h45.57.449,lexical_decision_task_DD,2021.2.3,MacIntel,59.94125757,,,,,,,,,,,,6.1533,1,,,,,,,,,,,,,,,,,,,,,,,,0.024893923,-0.342183601,0,0,0,,,,,,,SCREW,C,m,m,./images/SCREW.png,,,,,,,m,1,6.1533,,,,,,,,0,118,118,24,1
,,,,,,,,,,,,,,,,,199204,18,2022-01-29_12h45.57.449,lexical_decision_task_DD,2021.2.3,MacIntel,59.94125757,,,,,,,,,,,,0.9472,1,,,,,,,,,,,,,,,,,,,,,,,,0.024893923,-0.342183601,0,0,0,,,,,,,PICKLE,LB,m,m,./images/PICKLELB.png,,,,,,,m,1,0.9472,,,,,,,,0,119,119,14,1
,,,,,,,,,,,,,,,,,199204,18,2022-01-29_12h45.57.449,lexical_decision_task_DD,2021.2.3,MacIntel,59.94125757,,,,,,,,,,,,1.1156,1,,,,,,,,,,,,,,,,,,,,,,,,0.024893923,-0.342183601,0,0,0,,,,,,,ENGINE,LB,z,m,./images/ENGINELB.png,,,,,,,z,1,1.1156,,,,,,,,0,120,120,122,1
,,,,,,,,,,,,,,,,,199204,18,2022-01-29_12h45.57.449,lexical_decision_task_DD,2021.2.3,MacIntel,59.94125757,,,,,,,,,,,,1.1658,0,,,,,,,,,,,,,,,,,,,,,,,,0.024893923,-0.342183601,0,0,0,,,,,,,BOILER,C,z,m,./images/BOILER.png,,,,,,,m,0,1.1658,,,,,,,,0,121,121,120,1
,,,,,,,,,,,,,,,,,199204,18,2022-01-29_12h45.57.449,lexical_decision_task_DD,2021.2.3,MacIntel,59.94125757,,,,,,,,,,,,0.7585,1,,,,,,,,,,,,,,,,,,,,,,,,0.024893923,-0.342183601,0,0,0,,,,,,,SHIELD,C,z,m,./images/SHIELD.png,,,,,,,z,1,0.7585,,,,,,,,0,122,122,132,1
,,,,,,,,,,,,,,,,,199204,18,2022-01-29_12h45.57.449,lexical_decision_task_DD,2021.2.3,MacIntel,59.94125757,,,,,,,,,,,,1.1328,0,,,,,,,,,,,,,,,,,,,,,,,,0.024893923,-0.342183601,0,0,0,,,,,,,MELON,HB,m,m,./images/MELONHB.png,,,,,,,z,0,1.1328,,,,,,,,0,123,123,22,1
,,,,,,,,,,,,,,,,,199204,18,2022-01-29_12h45.57.449,lexical_decision_task_DD,2021.2.3,MacIntel,59.94125757,,,,,,,,,,,,0.9995,0,,,,,,,,,,,,,,,,,,,,,,,,0.024893923,-0.342183601,0,0,0,,,,,,,STRING,LB,m,m,./images/STRINGLB.png,,,,,,,z,0,0.9995,,,,,,,,0,124,124,41,1
,,,,,,,,,,,,,,,,,199204,18,2022-01-29_12h45.57.449,lexical_decision_task_DD,2021.2.3,MacIntel,59.94125757,,,,,,,,,,,,1.3689,1,,,,,,,,,,,,,,,,,,,,,,,,0.024893923,-0.342183601,0,0,0,space,,,,,,DANCER,C,z,m,./images/DANCER.png,0.9349,,,,,,z,1,1.3689,,,,,,,,0,125,125,105,1
,,,,,,,,,,,,,,,,,199204,18,2022-01-29_12h45.57.449,lexical_decision_task_DD,2021.2.3,MacIntel,59.94125757,,,,,,,,,,,,1.0726,0,,,,,,,,,,,,,,,,,,,,,,,,0.024893923,-0.342183601,0,0,0,,,,,,,CURRY,C,z,m,./images/CURRY.png,,,,,,,m,0,1.0726,,,,,,,,0,126,126,144,1
,,,,,,,,,,,,,,,,,199204,18,2022-01-29_12h45.57.449,lexical_decision_task_DD,2021.2.3,MacIntel,59.94125757,,,,,,,,,,,,1.0512,1,,,,,,,,,,,,,,,,,,,,,,,,0.024893923,-0.342183601,0,0,0,,,,,,,SLOPE,C,z,m,./images/SLOPE.png,,,,,,,z,1,1.0512,,,,,,,,0,127,127,114,1
,,,,,,,,,,,,,,,,,199204,18,2022-01-29_12h45.57.449,lexical_decision_task_DD,2021.2.3,MacIntel,59.94125757,,,,,,,,,,,,1.1231,0,,,,,,,,,,,,,,,,,,,,,,,,0.024893923,-0.342183601,0,0,0,,,,,,,STAIN,C,z,m,./images/STAIN.png,,,,,,,m,0,1.1231,,,,,,,,0,128,128,90,1
,,,,,,,,,,,,,,,,,199204,18,2022-01-29_12h45.57.449,lexical_decision_task_DD,2021.2.3,MacIntel,59.94125757,,,,,,,,,,,,0.8295,1,,,,,,,,,,,,,,,,,,,,,,,,0.024893923,-0.342183601,0,0,0,,,,,,,GRANNY,LB,z,m,./images/GRANNYLB.png,,,,,,,z,1,0.8295,,,,,,,,0,129,129,104,1
,,,,,,,,,,,,,,,,,199204,18,2022-01-29_12h45.57.449,lexical_decision_task_DD,2021.2.3,MacIntel,59.94125757,,,,,,,,,,,,4.277,1,,,,,,,,,,,,,,,,,,,,,,,,0.024893923,-0.342183601,0,0,0,,,,,,,ARTIST,HB,z,m,./images/ARTISTHB.png,,,,,,,z,1,4.277,,,,,,,,0,130,130,145,1
,,,,,,,,,,,,,,,,,199204,18,2022-01-29_12h45.57.449,lexical_decision_task_DD,2021.2.3,MacIntel,59.94125757,,,,,,,,,,,,0.8638,0,,,,,,,,,,,,,,,,,,,,,,,,0.024893923,-0.342183601,0,0,0,,,,,,,WRIST,HB,m,m,./images/WRISTHB.png,,,,,,,z,0,0.8638,,,,,,,,0,131,131,25,1
,,,,,,,,,,,,,,,,,199204,18,2022-01-29_12h45.57.449,lexical_decision_task_DD,2021.2.3,MacIntel,59.94125757,,,,,,,,,,,,1.2278,0,,,,,,,,,,,,,,,,,,,,,,,,0.024893923,-0.342183601,0,0,0,,,,,,,FINGER,C,m,m,./images/FINGER.png,,,,,,,z,0,1.2278,,,,,,,,0,132,132,3,1
,,,,,,,,,,,,,,,,,199204,18,2022-01-29_12h45.57.449,lexical_decision_task_DD,2021.2.3,MacIntel,59.94125757,,,,,,,,,,,,0.8103,1,,,,,,,,,,,,,,,,,,,,,,,,0.024893923,-0.342183601,0,0,0,,,,,,,MAMMAL,LB,z,m,./images/MAMMALLB.png,,,,,,,z,1,0.8103,,,,,,,,0,133,133,146,1
,,,,,,,,,,,,,,,,,199204,18,2022-01-29_12h45.57.449,lexical_decision_task_DD,2021.2.3,MacIntel,59.94125757,,,,,,,,,,,,0.9092,1,,,,,,,,,,,,,,,,,,,,,,,,0.024893923,-0.342183601,0,0,0,,,,,,,BONNET,LB,m,m,./images/BONNETLB.png,,,,,,,m,1,0.9092,,,,,,,,0,134,134,11,1
,,,,,,,,,,,,,,,,,199204,18,2022-01-29_12h45.57.449,lexical_decision_task_DD,2021.2.3,MacIntel,59.94125757,,,,,,,,,,,,1.5916,1,,,,,,,,,,,,,,,,,,,,,,,,0.024893923,-0.342183601,0,0,0,,,,,,,BERRY,LB,m,m,./images/BERRYLB.png,,,,,,,m,1,1.5916,,,,,,,,0,135,135,47,1
,,,,,,,,,,,,,,,,,199204,18,2022-01-29_12h45.57.449,lexical_decision_task_DD,2021.2.3,MacIntel,59.94125757,,,,,,,,,,,,0.9369,0,,,,,,,,,,,,,,,,,,,,,,,,0.024893923,-0.342183601,0,0,0,,,,,,,SUNSET,HB,m,m,./images/SUNSETHB.png,,,,,,,z,0,0.9369,,,,,,,,0,136,136,82,1
,,,,,,,,,,,,,,,,,199204,18,2022-01-29_12h45.57.449,lexical_decision_task_DD,2021.2.3,MacIntel,59.94125757,,,,,,,,,,,,0.7966,0,,,,,,,,,,,,,,,,,,,,,,,,0.024893923,-0.342183601,0,0,0,,,,,,,FARMER,LB,m,m,./images/FARMERLB.png,,,,,,,z,0,0.7966,,,,,,,,0,137,137,65,1
,,,,,,,,,,,,,,,,,199204,18,2022-01-29_12h45.57.449,lexical_decision_task_DD,2021.2.3,MacIntel,59.94125757,,,,,,,,,,,,1.2395,1,,,,,,,,,,,,,,,,,,,,,,,,0.024893923,-0.342183601,0,0,0,,,,,,,RULER,HB,z,m,./images/RULERHB.png,,,,,,,z,1,1.2395,,,,,,,,0,138,138,163,1
,,,,,,,,,,,,,,,,,199204,18,2022-01-29_12h45.57.449,lexical_decision_task_DD,2021.2.3,MacIntel,59.94125757,,,,,,,,,,,,0.8534,1,,,,,,,,,,,,,,,,,,,,,,,,0.024893923,-0.342183601,0,0,0,,,,,,,HOCKEY,LB,z,m,./images/HOCKEYLB.png,,,,,,,z,1,0.8534,,,,,,,,0,139,139,116,1
,,,,,,,,,,,,,,,,,199204,18,2022-01-29_12h45.57.449,lexical_decision_task_DD,2021.2.3,MacIntel,59.94125757,,,,,,,,,,,,0.8013,1,,,,,,,,,,,,,,,,,,,,,,,,0.024893923,-0.342183601,0,0,0,,,,,,,CRUMB,LB,m,m,./images/CRUMBLB.png,,,,,,,m,1,0.8013,,,,,,,,0,140,140,29,1
,,,,,,,,,,,,,,,,,199204,18,2022-01-29_12h45.57.449,lexical_decision_task_DD,2021.2.3,MacIntel,59.94125757,,,,,,,,,,,,0.9102,1,,,,,,,,,,,,,,,,,,,,,,,,0.024893923,-0.342183601,0,0,0,,,,,,,DESERT,HB,z,m,./images/DESERTHB.png,,,,,,,z,1,0.9102,,,,,,,,0,141,141,136,1
,,,,,,,,,,,,,,,,,199204,18,2022-01-29_12h45.57.449,lexical_decision_task_DD,2021.2.3,MacIntel,59.94125757,,,,,,,,,,,,2.1988,1,,,,,,,,,,,,,,,,,,,,,,,,0.024893923,-0.342183601,0,0,0,,,,,,,SHORE,C,m,m,./images/SHORE.png,,,,,,,m,1,2.1988,,,,,,,,0,142,142,12,1
,,,,,,,,,,,,,,,,,199204,18,2022-01-29_12h45.57.449,lexical_decision_task_DD,2021.2.3,MacIntel,59.94125757,,,,,,,,,,,,0.9254,1,,,,,,,,,,,,,,,,,,,,,,,,0.024893923,-0.342183601,0,0,0,,,,,,,BISHOP,HB,z,m,./images/BISHOPHB.png,,,,,,,z,1,0.9254,,,,,,,,0,143,143,133,1
,,,,,,,,,,,,,,,,,199204,18,2022-01-29_12h45.57.449,lexical_decision_task_DD,2021.2.3,MacIntel,59.94125757,,,,,,,,,,,,0.8198,0,,,,,,,,,,,,,,,,,,,,,,,,0.024893923,-0.342183601,0,0,0,,,,,,,ATTIC,C,m,m,./images/ATTIC.png,,,,,,,z,0,0.8198,,,,,,,,0,144,144,27,1
,,,,,,,,,,,,,,,,,199204,18,2022-01-29_12h45.57.449,lexical_decision_task_DD,2021.2.3,MacIntel,59.94125757,,,,,,,,,,,,2.5282,0,,,,,,,,,,,,,,,,,,,,,,,,0.024893923,-0.342183601,0,0,0,,,,,,,BUBBLE,LB,z,m,./images/BUBBLELB.png,,,,,,,m,0,2.5282,,,,,,,,0,145,145,155,1
,,,,,,,,,,,,,,,,,199204,18,2022-01-29_12h45.57.449,lexical_decision_task_DD,2021.2.3,MacIntel,59.94125757,,,,,,,,,,,,1.4475,1,,,,,,,,,,,,,,,,,,,,,,,,0.024893923,-0.342183601,0,0,0,,,,,,,INFANT,HB,m,m,./images/INFANTHB.png,,,,,,,m,1,1.4475,,,,,,,,0,146,146,76,1
,,,,,,,,,,,,,,,,,199204,18,2022-01-29_12h45.57.449,lexical_decision_task_DD,2021.2.3,MacIntel,59.94125757,,,,,,,,,,,,1.2199,1,,,,,,,,,,,,,,,,,,,,,,,,0.024893923,-0.342183601,0,0,0,,,,,,,SMOKER,LB,m,m,./images/SMOKERLB.png,,,,,,,m,1,1.2199,,,,,,,,0,147,147,26,1
,,,,,,,,,,,,,,,,,199204,18,2022-01-29_12h45.57.449,lexical_decision_task_DD,2021.2.3,MacIntel,59.94125757,,,,,,,,,,,,1.1457,1,,,,,,,,,,,,,,,,,,,,,,,,0.024893923,-0.342183601,0,0,0,,,,,,,KIDNEY,C,m,m,./images/KIDNEY.png,,,,,,,m,1,1.1457,,,,,,,,0,148,148,21,1
,,,,,,,,,,,,,,,,,199204,18,2022-01-29_12h45.57.449,lexical_decision_task_DD,2021.2.3,MacIntel,59.94125757,,,,,,,,,,,,0.767,1,,,,,,,,,,,,,,,,,,,,,,,,0.024893923,-0.342183601,0,0,0,,,,,,,SAUNA,C,z,m,./images/SAUNA.png,,,,,,,z,1,0.767,,,,,,,,0,149,149,117,1
,,,,,,,,,,,,,,,,,199204,18,2022-01-29_12h45.57.449,lexical_decision_task_DD,2021.2.3,MacIntel,59.94125757,,,,,,,,,,,,1.6758,1,,,,,,,,,,,,,,,,,,,,,,,,0.024893923,-0.342183601,0,0,0,,,,,,,MEDAL,LB,z,m,./images/MEDALLB.png,,,,,,,z,1,1.6758,,,,,,,,0,150,150,95,1
,,,,,,,,,,,,,,,,,199204,18,2022-01-29_12h45.57.449,lexical_decision_task_DD,2021.2.3,MacIntel,59.94125757,,,,,,,,,,,,1.2211,1,,,,,,,,,,,,,,,,,,,,,,,,0.024893923,-0.342183601,0,0,0,,,,,,,PURSE,LB,m,m,./images/PURSELB.png,,,,,,,m,1,1.2211,,,,,,,,0,151,151,62,1
,,,,,,,,,,,,,,,,,199204,18,2022-01-29_12h45.57.449,lexical_decision_task_DD,2021.2.3,MacIntel,59.94125757,,,,,,,,,,,,0.9014,1,,,,,,,,,,,,,,,,,,,,,,,,0.024893923,-0.342183601,0,0,0,,,,,,,BRUSH,LB,z,m,./images/BRUSHLB.png,,,,,,,z,1,0.9014,,,,,,,,0,152,152,143,1
,,,,,,,,,,,,,,,,,199204,18,2022-01-29_12h45.57.449,lexical_decision_task_DD,2021.2.3,MacIntel,59.94125757,,,,,,,,,,,,2.2293,0,,,,,,,,,,,,,,,,,,,,,,,,0.024893923,-0.342183601,0,0,0,,,,,,,WEASEL,LB,m,m,./images/WEASELLB.png,,,,,,,z,0,2.2293,,,,,,,,0,153,153,80,1
,,,,,,,,,,,,,,,,,199204,18,2022-01-29_12h45.57.449,lexical_decision_task_DD,2021.2.3,MacIntel,59.94125757,,,,,,,,,,,,0.9353,1,,,,,,,,,,,,,,,,,,,,,,,,0.024893923,-0.342183601,0,0,0,,,,,,,WAGON,HB,z,m,./images/WAGONHB.png,,,,,,,z,1,0.9353,,,,,,,,0,154,154,91,1
,,,,,,,,,,,,,,,,,199204,18,2022-01-29_12h45.57.449,lexical_decision_task_DD,2021.2.3,MacIntel,59.94125757,,,,,,,,,,,,1.048,1,,,,,,,,,,,,,,,,,,,,,,,,0.024893923,-0.342183601,0,0,0,,,,,,,BANNER,HB,m,m,./images/BANNERHB.png,,,,,,,m,1,1.048,,,,,,,,0,155,155,52,1
,,,,,,,,,,,,,,,,,199204,18,2022-01-29_12h45.57.449,lexical_decision_task_DD,2021.2.3,MacIntel,59.94125757,,,,,,,,,,,,0.7948,0,,,,,,,,,,,,,,,,,,,,,,,,0.024893923,-0.342183601,0,0,0,,,,,,,CANYON,HB,m,m,./images/CANYONHB.png,,,,,,,z,0,0.7948,,,,,,,,0,156,156,34,1
,,,,,,,,,,,,,,,,,199204,18,2022-01-29_12h45.57.449,lexical_decision_task_DD,2021.2.3,MacIntel,59.94125757,,,,,,,,,,,,0.9215,1,,,,,,,,,,,,,,,,,,,,,,,,0.024893923,-0.342183601,0,0,0,,,,,,,STOVE,LB,z,m,./images/STOVELB.png,,,,,,,z,1,0.9215,,,,,,,,0,157,157,86,1
,,,,,,,,,,,,,,,,,199204,18,2022-01-29_12h45.57.449,lexical_decision_task_DD,2021.2.3,MacIntel,59.94125757,,,,,,,,,,,,1.3411,0,,,,,,,,,,,,,,,,,,,,,,,,0.024893923,-0.342183601,0,0,0,,,,,,,LIZARD,LB,m,m,./images/LIZARDLB.png,,,,,,,z,0,1.3411,,,,,,,,0,158,158,44,1
,,,,,,,,,,,,,,,,,199204,18,2022-01-29_12h45.57.449,lexical_decision_task_DD,2021.2.3,MacIntel,59.94125757,,,,,,,,,,,,0.9138,0,,,,,,,,,,,,,,,,,,,,,,,,0.024893923,-0.342183601,0,0,0,,,,,,,PASTA,LB,m,m,./images/PASTALB.png,,,,,,,z,0,0.9138,,,,,,,,0,159,159,5,1
,,,,,,,,,,,,,,,,,199204,18,2022-01-29_12h45.57.449,lexical_decision_task_DD,2021.2.3,MacIntel,59.94125757,,,,,,,,,,,,0.9601,1,,,,,,,,,,,,,,,,,,,,,,,,0.024893923,-0.342183601,0,0,0,,,,,,,JUNGLE,LB,m,m,./images/JUNGLELB.png,,,,,,,m,1,0.9601,,,,,,,,0,160,160,83,1
,,,,,,,,,,,,,,,,,199204,18,2022-01-29_12h45.57.449,lexical_decision_task_DD,2021.2.3,MacIntel,59.94125757,,,,,,,,,,,,0.8959,1,,,,,,,,,,,,,,,,,,,,,,,,0.024893923,-0.342183601,0,0,0,,,,,,,STORM,C,m,m,./images/STORM.png,,,,,,,m,1,0.8959,,,,,,,,0,161,161,30,1
,,,,,,,,,,,,,,,,,199204,18,2022-01-29_12h45.57.449,lexical_decision_task_DD,2021.2.3,MacIntel,59.94125757,,,,,,,,,,,,1.3538,1,,,,,,,,,,,,,,,,,,,,,,,,0.024893923,-0.342183601,0,0,0,,,,,,,CLOUD,LB,z,m,./images/CLOUDLB.png,,,,,,,z,1,1.3538,,,,,,,,0,162,162,110,1
,,,,,,,,,,,,,,,,,199204,18,2022-01-29_12h45.57.449,lexical_decision_task_DD,2021.2.3,MacIntel,59.94125757,,,,,,,,,,,,1.519,1,,,,,,,,,,,,,,,,,,,,,,,,0.024893923,-0.342183601,0,0,0,,,,,,,BAMBOO,LB,z,m,./images/BAMBOOLB.png,,,,,,,z,1,1.519,,,,,,,,0,163,163,89,1
,,,,,,,,,,,,,,,,,199204,18,2022-01-29_12h45.57.449,lexical_decision_task_DD,2021.2.3,MacIntel,59.94125757,,,,,,,,,,,,0.9212,1,,,,,,,,,,,,,,,,,,,,,,,,0.024893923,-0.342183601,0,0,0,,,,,,,TRIPOD,C,m,m,./images/TRIPOD.png,,,,,,,m,1,0.9212,,,,,,,,0,164,164,54,1
,,,,,,,,,,,,,,,,,199204,18,2022-01-29_12h45.57.449,lexical_decision_task_DD,2021.2.3,MacIntel,59.94125757,,,,,,,,,,,,1.2032,1,,,,,,,,,,,,,,,,,,,,,,,,0.024893923,-0.342183601,0,0,0,,,,,,,SPINE,LB,z,m,./images/SPINELB.png,,,,,,,z,1,1.2032,,,,,,,,0,165,165,149,1
,,,,,,,,,,,,,,,,,199204,18,2022-01-29_12h45.57.449,lexical_decision_task_DD,2021.2.3,MacIntel,59.94125757,,,,,,,,,,,,1.0088,1,,,,,,,,,,,,,,,,,,,,,,,,0.024893923,-0.342183601,0,0,0,,,,,,,CARPET,LB,m,m,./images/CARPETLB.png,,,,,,,m,1,1.0088,,,,,,,,0,166,166,53,1
,,,,,,,,,,,,,,,,,199204,18,2022-01-29_12h45.57.449,lexical_decision_task_DD,2021.2.3,MacIntel,59.94125757,,,,,,,,,,,,0.8783,1,,,,,,,,,,,,,,,,,,,,,,,,0.024893923,-0.342183601,0,0,0,,,,,,,STEAK,HB,z,m,./images/STEAKHB.png,,,,,,,z,1,0.8783,,,,,,,,0,167,167,115,1
