key_resp.keys,key_resp.rt,instr_done_touch.x,instr_done_touch.y,instr_done_touch.leftButton,instr_done_touch.midButton,instr_done_touch.rightButton,instruction_pages.thisRepN,instruction_pages.thisTrialN,instruction_pages.thisN,instruction_pages.thisIndex,instruction_pages.ran,pageN,phase,instruct_text,has_image,instruct_image,participant,age,date,expName,psychopyVersion,OS,frameRate,response.keys,response.corr,response.rt,touch_resp.x,touch_resp.y,touch_resp.leftButton,touch_resp.midButton,touch_resp.rightButton,touch_resp.time,touch_resp.clicked_name,rt,corr,practrials.thisRepN,practrials.thisTrialN,practrials.thisN,practrials.thisIndex,practrials.ran,TrialID,Target,corrAns,end_of_practice_trials_pages.thisRepN,end_of_practice_trials_pages.thisTrialN,end_of_practice_trials_pages.thisN,end_of_practice_trials_pages.thisIndex,end_of_practice_trials_pages.ran,key_resp_2.keys,key_resp_2.corr,key_resp_2.rt,targ_click.x,targ_click.y,targ_click.leftButton,targ_click.midButton,targ_click.rightButton,targ_click.time,targ_click.clicked_name,break_done_touch.x,break_done_touch.y,break_done_touch.leftButton,break_done_touch.midButton,break_done_touch.rightButton,break_done_keyboard.keys,maintrials.thisRepN,maintrials.thisTrialN,maintrials.thisN,maintrials.thisIndex,maintrials.ran,string,blur,study,lex,stim_path,break_done_keyboard.rt,test_instructions.thisRepN,test_instructions.thisTrialN,test_instructions.thisN,test_instructions.thisIndex,test_instructions.ran,instr_done_touch.clicked_name,key_resp_3.keys,key_resp_3.corr,key_resp_3.rt,test_click.x,test_click.y,test_click.leftButton,test_click.midButton,test_click.rightButton,test_click.time,test_click.clicked_name,test_phase.thisRepN,test_phase.thisTrialN,test_phase.thisN,test_phase.thisIndex,test_phase.ran,break_done_touch.clicked_name
space,66.2941,0.743995122,-0.163157263,0,0,0,0,0,0,0,1,1,instructions,"INSTRUCTIONS
At the start of each trial, look at the plus sign  (+) in the center of the screen.  This tells you that a trial is about to begin and where to look. Second, the plus sign will disappear and a string of letters will appear. Your task is to determine if the string of letters is a word or not. If the item is a word press the M key (on keyboard)  or touch the word button (phone/tablet).  If the item is not a word,  press the  Z key (on keyboard)  or touch the nonword button (on phone/tablet). 
Press the space bar or touch  continue.",0,,199243,18,2022-01-29_12h15.32.350,lexical_decision_task_DD_L3,2021.2.3,Linux x86_64,60.09615385,,,,,,,,,,,,,,,,,,,,,,,,,,,,,,,,,,,,,,,,,,,,,,,,,,,,,,,,,,,,,,,,,,,,,,,,,,
space,8.8245,0.743995122,-0.163157263,0,0,0,0,1,1,1,1,2,instructions,"If your device has a keyboard, press the 'Z' key for nonwords and the 'M' key for words.





Press the space bar or touch the button below to continue.",0,keyboard-example.gif,199243,18,2022-01-29_12h15.32.350,lexical_decision_task_DD_L3,2021.2.3,Linux x86_64,60.09615385,,,,,,,,,,,,,,,,,,,,,,,,,,,,,,,,,,,,,,,,,,,,,,,,,,,,,,,,,,,,,,,,,,,,,,,,,,
space,11.1657,0.743995122,-0.163157263,0,0,0,0,2,2,2,1,3,instructions,"If you are using a touchscreen only device, use the buttons on the screen. Do not use the mouse.





Press the space bar or touch the button below to continue.",0,touchscreen-example.gif,199243,18,2022-01-29_12h15.32.350,lexical_decision_task_DD_L3,2021.2.3,Linux x86_64,60.09615385,,,,,,,,,,,,,,,,,,,,,,,,,,,,,,,,,,,,,,,,,,,,,,,,,,,,,,,,,,,,,,,,,,,,,,,,,,
space,23.4553,0.743995122,-0.163157263,0,0,0,0,3,3,3,1,4,instructions,"It is very important that you respond as quickly and accurately as possible, as each letter string will only be on the screen for two seconds. If you do not respond within this time, the message 'Too slow!' will be displayed and the experiment will progress to the next letter string. The first 20 trials will be practice trials and you will receive feedback on your answers. 

Press the space bar or touch the button below to start the practice trials.",0,,199243,18,2022-01-29_12h15.32.350,lexical_decision_task_DD_L3,2021.2.3,Linux x86_64,60.09615385,,,,,,,,,,,,,,,,,,,,,,,,,,,,,,,,,,,,,,,,,,,,,,,,,,,,,,,,,,,,,,,,,,,,,,,,,,
,,,,,,,,,,,,,,,,,199243,18,2022-01-29_12h15.32.350,lexical_decision_task_DD_L3,2021.2.3,Linux x86_64,60.09615385,z,1,5.1318,,,,,,,,5.1318,1,0,0,0,11,1,1001,RASHET,z,,,,,,,,,,,,,,,,,,,,,,,,,,,,,,,,,,,,,,,,,,,,,,,,,,,,,,
,,,,,,,,,,,,,,,,,199243,18,2022-01-29_12h15.32.350,lexical_decision_task_DD_L3,2021.2.3,Linux x86_64,60.09615385,m,1,2.036,,,,,,,,2.036,1,0,1,1,7,1,1001,VOLUME,m,,,,,,,,,,,,,,,,,,,,,,,,,,,,,,,,,,,,,,,,,,,,,,,,,,,,,,
,,,,,,,,,,,,,,,,,199243,18,2022-01-29_12h15.32.350,lexical_decision_task_DD_L3,2021.2.3,Linux x86_64,60.09615385,z,1,1.9936,,,,,,,,1.9936,1,0,2,2,13,1,1001,ROUPET,z,,,,,,,,,,,,,,,,,,,,,,,,,,,,,,,,,,,,,,,,,,,,,,,,,,,,,,
,,,,,,,,,,,,,,,,,199243,18,2022-01-29_12h15.32.350,lexical_decision_task_DD_L3,2021.2.3,Linux x86_64,60.09615385,m,1,1.456,,,,,,,,1.456,1,0,3,3,3,1,1001,MATRIX,m,,,,,,,,,,,,,,,,,,,,,,,,,,,,,,,,,,,,,,,,,,,,,,,,,,,,,,
,,,,,,,,,,,,,,,,,199243,18,2022-01-29_12h15.32.350,lexical_decision_task_DD_L3,2021.2.3,Linux x86_64,60.09615385,m,1,1.5939,,,,,,,,1.5939,1,0,4,4,2,1,1001,ALMOND,m,,,,,,,,,,,,,,,,,,,,,,,,,,,,,,,,,,,,,,,,,,,,,,,,,,,,,,
,,,,,,,,,,,,,,,,,199243,18,2022-01-29_12h15.32.350,lexical_decision_task_DD_L3,2021.2.3,Linux x86_64,60.09615385,z,1,3.927,,,,,,,,3.927,1,0,5,5,8,1,1001,ASLERT,z,,,,,,,,,,,,,,,,,,,,,,,,,,,,,,,,,,,,,,,,,,,,,,,,,,,,,,
,,,,,,,,,,,,,,,,,199243,18,2022-01-29_12h15.32.350,lexical_decision_task_DD_L3,2021.2.3,Linux x86_64,60.09615385,m,1,0.8451,,,,,,,,0.8451,1,0,6,6,5,1,1001,OBTAIN,m,,,,,,,,,,,,,,,,,,,,,,,,,,,,,,,,,,,,,,,,,,,,,,,,,,,,,,
,,,,,,,,,,,,,,,,,199243,18,2022-01-29_12h15.32.350,lexical_decision_task_DD_L3,2021.2.3,Linux x86_64,60.09615385,z,1,2.0111,,,,,,,,2.0111,1,0,7,7,15,1,1001,WHAISE,z,,,,,,,,,,,,,,,,,,,,,,,,,,,,,,,,,,,,,,,,,,,,,,,,,,,,,,
,,,,,,,,,,,,,,,,,199243,18,2022-01-29_12h15.32.350,lexical_decision_task_DD_L3,2021.2.3,Linux x86_64,60.09615385,z,1,3.6936,,,,,,,,3.6936,1,0,8,8,9,1,1001,FARINY,z,,,,,,,,,,,,,,,,,,,,,,,,,,,,,,,,,,,,,,,,,,,,,,,,,,,,,,
,,,,,,,,,,,,,,,,,199243,18,2022-01-29_12h15.32.350,lexical_decision_task_DD_L3,2021.2.3,Linux x86_64,60.09615385,m,1,0.9578,,,,,,,,0.9578,1,0,9,9,0,1,1001,UTOPIA,m,,,,,,,,,,,,,,,,,,,,,,,,,,,,,,,,,,,,,,,,,,,,,,,,,,,,,,
,,,,,,,,,,,,,,,,,199243,18,2022-01-29_12h15.32.350,lexical_decision_task_DD_L3,2021.2.3,Linux x86_64,60.09615385,z,1,1.8001,,,,,,,,1.8001,1,0,10,10,12,1,1001,SPRINY,z,,,,,,,,,,,,,,,,,,,,,,,,,,,,,,,,,,,,,,,,,,,,,,,,,,,,,,
,,,,,,,,,,,,,,,,,199243,18,2022-01-29_12h15.32.350,lexical_decision_task_DD_L3,2021.2.3,Linux x86_64,60.09615385,m,1,0.7977,,,,,,,,0.7977,1,0,11,11,1,1,1001,ADJUST,m,,,,,,,,,,,,,,,,,,,,,,,,,,,,,,,,,,,,,,,,,,,,,,,,,,,,,,
,,,,,,,,,,,,,,,,,199243,18,2022-01-29_12h15.32.350,lexical_decision_task_DD_L3,2021.2.3,Linux x86_64,60.09615385,m,1,0.699,,,,,,,,0.699,1,0,12,12,4,1,1001,SQUEAK,m,,,,,,,,,,,,,,,,,,,,,,,,,,,,,,,,,,,,,,,,,,,,,,,,,,,,,,
,,,,,,,,,,,,,,,,,199243,18,2022-01-29_12h15.32.350,lexical_decision_task_DD_L3,2021.2.3,Linux x86_64,60.09615385,m,1,0.6489,,,,,,,,0.6489,1,0,13,13,6,1,1001,ZOMBIE,m,,,,,,,,,,,,,,,,,,,,,,,,,,,,,,,,,,,,,,,,,,,,,,,,,,,,,,
,,,,,,,,,,,,,,,,,199243,18,2022-01-29_12h15.32.350,lexical_decision_task_DD_L3,2021.2.3,Linux x86_64,60.09615385,z,1,1.6702,,,,,,,,1.6702,1,0,14,14,14,1,1001,THRALE,z,,,,,,,,,,,,,,,,,,,,,,,,,,,,,,,,,,,,,,,,,,,,,,,,,,,,,,
,,,,,,,,,,,,,,,,,199243,18,2022-01-29_12h15.32.350,lexical_decision_task_DD_L3,2021.2.3,Linux x86_64,60.09615385,z,1,2.4024,,,,,,,,2.4024,1,0,15,15,10,1,1001,INLADE,z,,,,,,,,,,,,,,,,,,,,,,,,,,,,,,,,,,,,,,,,,,,,,,,,,,,,,,
space,23.1396,0.299493716,0.004557937,0,0,0,,,,,,1,end_of_practice,"You have completed the practice trials. During the experimental trials, you will not receive feedback. 
Before you begin, please ensure that you are in a comfortable and quiet location and will not be disturbed for about 15 minutes, as we cannot use your data if you do not complete all the trials. 
 When you are ready to start the experimental trials, please press space or touch the button below.",,,199243,18,2022-01-29_12h15.32.350,lexical_decision_task_DD_L3,2021.2.3,Linux x86_64,60.09615385,,,,,,,,,,,,,,,,,,,,,0,0,0,0,1,,,,,,,,,,,,,,,,,,,,,,,,,,,,,,,,,,,,,,,,,,,,,,,,,
,,,,,,,,,,,,,,,,,199243,18,2022-01-29_12h15.32.350,lexical_decision_task_DD_L3,2021.2.3,Linux x86_64,60.09615385,,,,,,,,,,,1.5145,1,,,,,,,,,,,,,,z,1,1.5145,,,,,,,,0.299493716,0.004557937,0,0,0,,0,0,0,95,1,HANTY,LB,old,z,./images/HANTYLB.png,,,,,,,,,,,,,,,,,,,,,,,
,,,,,,,,,,,,,,,,,199243,18,2022-01-29_12h15.32.350,lexical_decision_task_DD_L3,2021.2.3,Linux x86_64,60.09615385,,,,,,,,,,,1.496,1,,,,,,,,,,,,,,m,1,1.496,,,,,,,,0.299493716,0.004557937,0,0,0,,0,1,1,37,1,BIRTH,C,old,m,./images/BIRTH.png,,,,,,,,,,,,,,,,,,,,,,,
,,,,,,,,,,,,,,,,,199243,18,2022-01-29_12h15.32.350,lexical_decision_task_DD_L3,2021.2.3,Linux x86_64,60.09615385,,,,,,,,,,,2.3526,1,,,,,,,,,,,,,,z,1,2.3526,,,,,,,,0.299493716,0.004557937,0,0,0,,0,2,2,167,1,ZONET,LB,old,z,./images/ZONETLB.png,,,,,,,,,,,,,,,,,,,,,,,
,,,,,,,,,,,,,,,,,199243,18,2022-01-29_12h15.32.350,lexical_decision_task_DD_L3,2021.2.3,Linux x86_64,60.09615385,,,,,,,,,,,1.0323,1,,,,,,,,,,,,,,z,1,1.0323,,,,,,,,0.299493716,0.004557937,0,0,0,,0,3,3,84,1,HAXES,C,old,z,./images/HAXES.png,,,,,,,,,,,,,,,,,,,,,,,
,,,,,,,,,,,,,,,,,199243,18,2022-01-29_12h15.32.350,lexical_decision_task_DD_L3,2021.2.3,Linux x86_64,60.09615385,,,,,,,,,,,2.2611,0,,,,,,,,,,,,,,m,0,2.2611,,,,,,,,0.299493716,0.004557937,0,0,0,,0,4,4,163,1,GAMBA,HB,old,z,./images/GAMBAHB.png,,,,,,,,,,,,,,,,,,,,,,,
,,,,,,,,,,,,,,,,,199243,18,2022-01-29_12h15.32.350,lexical_decision_task_DD_L3,2021.2.3,Linux x86_64,60.09615385,,,,,,,,,,,1.3266,1,,,,,,,,,,,,,,m,1,1.3266,,,,,,,,0.299493716,0.004557937,0,0,0,,0,5,5,40,1,SWING,C,old,m,./images/SWING.png,,,,,,,,,,,,,,,,,,,,,,,
,,,,,,,,,,,,,,,,,199243,18,2022-01-29_12h15.32.350,lexical_decision_task_DD_L3,2021.2.3,Linux x86_64,60.09615385,,,,,,,,,,,1.4608,1,,,,,,,,,,,,,,z,1,1.4608,,,,,,,,0.299493716,0.004557937,0,0,0,,0,6,6,161,1,BLAPS,LB,old,z,./images/BLAPSLB.png,,,,,,,,,,,,,,,,,,,,,,,
,,,,,,,,,,,,,,,,,199243,18,2022-01-29_12h15.32.350,lexical_decision_task_DD_L3,2021.2.3,Linux x86_64,60.09615385,,,,,,,,,,,1.2,1,,,,,,,,,,,,,,z,1,1.2,,,,,,,,0.299493716,0.004557937,0,0,0,,0,7,7,144,1,NAIRY,C,old,z,./images/NAIRY.png,,,,,,,,,,,,,,,,,,,,,,,
,,,,,,,,,,,,,,,,,199243,18,2022-01-29_12h15.32.350,lexical_decision_task_DD_L3,2021.2.3,Linux x86_64,60.09615385,,,,,,,,,,,2.6403,0,,,,,,,,,,,,,,m,0,2.6403,,,,,,,,0.299493716,0.004557937,0,0,0,,0,8,8,130,1,CRILL,HB,old,z,./images/CRILLHB.png,,,,,,,,,,,,,,,,,,,,,,,
,,,,,,,,,,,,,,,,,199243,18,2022-01-29_12h15.32.350,lexical_decision_task_DD_L3,2021.2.3,Linux x86_64,60.09615385,,,,,,,,,,,0.9893,1,,,,,,,,,,,,,,m,1,0.9893,,,,,,,,0.299493716,0.004557937,0,0,0,,0,9,9,14,1,PICKLE,HB,old,m,./images/PICKLEHB.png,,,,,,,,,,,,,,,,,,,,,,,
,,,,,,,,,,,,,,,,,199243,18,2022-01-29_12h15.32.350,lexical_decision_task_DD_L3,2021.2.3,Linux x86_64,60.09615385,,,,,,,,,,,1.3314,1,,,,,,,,,,,,,,m,1,1.3314,,,,,,,,0.299493716,0.004557937,0,0,0,,0,10,10,13,1,MOTOR,C,old,m,./images/MOTOR.png,,,,,,,,,,,,,,,,,,,,,,,
,,,,,,,,,,,,,,,,,199243,18,2022-01-29_12h15.32.350,lexical_decision_task_DD_L3,2021.2.3,Linux x86_64,60.09615385,,,,,,,,,,,0.6589,1,,,,,,,,,,,,,,m,1,0.6589,,,,,,,,0.299493716,0.004557937,0,0,0,,0,11,11,21,1,KIDNEY,LB,old,m,./images/KIDNEYLB.png,,,,,,,,,,,,,,,,,,,,,,,
,,,,,,,,,,,,,,,,,199243,18,2022-01-29_12h15.32.350,lexical_decision_task_DD_L3,2021.2.3,Linux x86_64,60.09615385,,,,,,,,,,,1.4689,1,,,,,,,,,,,,,,m,1,1.4689,,,,,,,,0.299493716,0.004557937,0,0,0,,0,12,12,58,1,BABOON,C,old,m,./images/BABOON.png,,,,,,,,,,,,,,,,,,,,,,,
,,,,,,,,,,,,,,,,,199243,18,2022-01-29_12h15.32.350,lexical_decision_task_DD_L3,2021.2.3,Linux x86_64,60.09615385,,,,,,,,,,,1.254,1,,,,,,,,,,,,,,m,1,1.254,,,,,,,,0.299493716,0.004557937,0,0,0,,0,13,13,32,1,BARREL,HB,old,m,./images/BARRELHB.png,,,,,,,,,,,,,,,,,,,,,,,
,,,,,,,,,,,,,,,,,199243,18,2022-01-29_12h15.32.350,lexical_decision_task_DD_L3,2021.2.3,Linux x86_64,60.09615385,,,,,,,,,,,1.0354,1,,,,,,,,,,,,,,m,1,1.0354,,,,,,,,0.299493716,0.004557937,0,0,0,,0,14,14,30,1,STORM,LB,old,m,./images/STORMLB.png,,,,,,,,,,,,,,,,,,,,,,,
,,,,,,,,,,,,,,,,,199243,18,2022-01-29_12h15.32.350,lexical_decision_task_DD_L3,2021.2.3,Linux x86_64,60.09615385,,,,,,,,,,,1.2985,1,,,,,,,,,,,,,,z,1,1.2985,,,,,,,,0.299493716,0.004557937,0,0,0,,0,15,15,128,1,GRIFT,LB,old,z,./images/GRIFTLB.png,,,,,,,,,,,,,,,,,,,,,,,
,,,,,,,,,,,,,,,,,199243,18,2022-01-29_12h15.32.350,lexical_decision_task_DD_L3,2021.2.3,Linux x86_64,60.09615385,,,,,,,,,,,0.5961,1,,,,,,,,,,,,,,m,1,0.5961,,,,,,,,0.299493716,0.004557937,0,0,0,,0,16,16,73,1,SNACK,C,old,m,./images/SNACK.png,,,,,,,,,,,,,,,,,,,,,,,
,,,,,,,,,,,,,,,,,199243,18,2022-01-29_12h15.32.350,lexical_decision_task_DD_L3,2021.2.3,Linux x86_64,60.09615385,,,,,,,,,,,1.6975,1,,,,,,,,,,,,,,z,1,1.6975,,,,,,,,0.299493716,0.004557937,0,0,0,,0,17,17,165,1,TROWN,C,old,z,./images/TROWN.png,,,,,,,,,,,,,,,,,,,,,,,
,,,,,,,,,,,,,,,,,199243,18,2022-01-29_12h15.32.350,lexical_decision_task_DD_L3,2021.2.3,Linux x86_64,60.09615385,,,,,,,,,,,0.9655,1,,,,,,,,,,,,,,m,1,0.9655,,,,,,,,0.299493716,0.004557937,0,0,0,,0,18,18,41,1,STRING,HB,old,m,./images/STRINGHB.png,,,,,,,,,,,,,,,,,,,,,,,
,,,,,,,,,,,,,,,,,199243,18,2022-01-29_12h15.32.350,lexical_decision_task_DD_L3,2021.2.3,Linux x86_64,60.09615385,,,,,,,,,,,1.2889,1,,,,,,,,,,,,,,m,1,1.2889,,,,,,,,0.299493716,0.004557937,0,0,0,,0,19,19,23,1,WALRUS,HB,old,m,./images/WALRUSHB.png,,,,,,,,,,,,,,,,,,,,,,,
,,,,,,,,,,,,,,,,,199243,18,2022-01-29_12h15.32.350,lexical_decision_task_DD_L3,2021.2.3,Linux x86_64,60.09615385,,,,,,,,,,,1.7592,1,,,,,,,,,,,,,,z,1,1.7592,,,,,,,,0.299493716,0.004557937,0,0,0,,0,20,20,88,1,GLUSH,HB,old,z,./images/GLUSHHB.png,,,,,,,,,,,,,,,,,,,,,,,
,,,,,,,,,,,,,,,,,199243,18,2022-01-29_12h15.32.350,lexical_decision_task_DD_L3,2021.2.3,Linux x86_64,60.09615385,,,,,,,,,,,1.1648,1,,,,,,,,,,,,,,m,1,1.1648,,,,,,,,0.299493716,0.004557937,0,0,0,,0,21,21,34,1,CANYON,C,old,m,./images/CANYON.png,,,,,,,,,,,,,,,,,,,,,,,
,,,,,,,,,,,,,,,,,199243,18,2022-01-29_12h15.32.350,lexical_decision_task_DD_L3,2021.2.3,Linux x86_64,60.09615385,,,,,,,,,,,1.0127,1,,,,,,,,,,,,,,m,1,1.0127,,,,,,,,0.299493716,0.004557937,0,0,0,,0,22,22,67,1,SAILOR,C,old,m,./images/SAILOR.png,,,,,,,,,,,,,,,,,,,,,,,
,,,,,,,,,,,,,,,,,199243,18,2022-01-29_12h15.32.350,lexical_decision_task_DD_L3,2021.2.3,Linux x86_64,60.09615385,,,,,,,,,,,1.8714,1,,,,,,,,,,,,,,z,1,1.8714,,,,,,,,0.299493716,0.004557937,0,0,0,,0,23,23,157,1,INLER,HB,old,z,./images/INLERHB.png,,,,,,,,,,,,,,,,,,,,,,,
,,,,,,,,,,,,,,,,,199243,18,2022-01-29_12h15.32.350,lexical_decision_task_DD_L3,2021.2.3,Linux x86_64,60.09615385,,,,,,,,,,,0.8187,1,,,,,,,,,,,,,,m,1,0.8187,,,,,,,,0.299493716,0.004557937,0,0,0,,0,24,24,10,1,BELLY,C,old,m,./images/BELLY.png,,,,,,,,,,,,,,,,,,,,,,,
,,,,,,,,,,,,,,,,,199243,18,2022-01-29_12h15.32.350,lexical_decision_task_DD_L3,2021.2.3,Linux x86_64,60.09615385,,,,,,,,,,,0.9471,1,,,,,,,,,,,,,,z,1,0.9471,,,,,,,,0.299493716,0.004557937,0,0,0,,0,25,25,117,1,STEEG,C,old,z,./images/STEEG.png,,,,,,,,,,,,,,,,,,,,,,,
,,,,,,,,,,,,,,,,,199243,18,2022-01-29_12h15.32.350,lexical_decision_task_DD_L3,2021.2.3,Linux x86_64,60.09615385,,,,,,,,,,,1.223,1,,,,,,,,,,,,,,m,1,1.223,,,,,,,,0.299493716,0.004557937,0,0,0,,0,26,26,82,1,SUNSET,C,old,m,./images/SUNSET.png,,,,,,,,,,,,,,,,,,,,,,,
,,,,,,,,,,,,,,,,,199243,18,2022-01-29_12h15.32.350,lexical_decision_task_DD_L3,2021.2.3,Linux x86_64,60.09615385,,,,,,,,,,,1.0714,1,,,,,,,,,,,,,,m,1,1.0714,,,,,,,,0.299493716,0.004557937,0,0,0,,0,27,27,8,1,TULIP,HB,old,m,./images/TULIPHB.png,,,,,,,,,,,,,,,,,,,,,,,
,,,,,,,,,,,,,,,,,199243,18,2022-01-29_12h15.32.350,lexical_decision_task_DD_L3,2021.2.3,Linux x86_64,60.09615385,,,,,,,,,,,1.3797,1,,,,,,,,,,,,,,z,1,1.3797,,,,,,,,0.299493716,0.004557937,0,0,0,,0,28,28,120,1,RINED,C,old,z,./images/RINED.png,,,,,,,,,,,,,,,,,,,,,,,
,,,,,,,,,,,,,,,,,199243,18,2022-01-29_12h15.32.350,lexical_decision_task_DD_L3,2021.2.3,Linux x86_64,60.09615385,,,,,,,,,,,1.0543,1,,,,,,,,,,,,,,m,1,1.0543,,,,,,,,0.299493716,0.004557937,0,0,0,,0,29,29,79,1,CRUST,C,old,m,./images/CRUST.png,,,,,,,,,,,,,,,,,,,,,,,
,,,,,,,,,,,,,,,,,199243,18,2022-01-29_12h15.32.350,lexical_decision_task_DD_L3,2021.2.3,Linux x86_64,60.09615385,,,,,,,,,,,0.7407,1,,,,,,,,,,,,,,z,1,0.7407,,,,,,,,0.299493716,0.004557937,0,0,0,,0,30,30,137,1,JOOST,LB,old,z,./images/JOOSTLB.png,,,,,,,,,,,,,,,,,,,,,,,
,,,,,,,,,,,,,,,,,199243,18,2022-01-29_12h15.32.350,lexical_decision_task_DD_L3,2021.2.3,Linux x86_64,60.09615385,,,,,,,,,,,1.0434,0,,,,,,,,,,,,,,m,0,1.0434,,,,,,,,0.299493716,0.004557937,0,0,0,,0,31,31,162,1,LEICH,C,old,z,./images/LEICH.png,,,,,,,,,,,,,,,,,,,,,,,
,,,,,,,,,,,,,,,,,199243,18,2022-01-29_12h15.32.350,lexical_decision_task_DD_L3,2021.2.3,Linux x86_64,60.09615385,,,,,,,,,,,1.038,1,,,,,,,,,,,,,,m,1,1.038,,,,,,,,0.299493716,0.004557937,0,0,0,,0,32,32,27,1,ATTIC,LB,old,m,./images/ATTICLB.png,,,,,,,,,,,,,,,,,,,,,,,
,,,,,,,,,,,,,,,,,199243,18,2022-01-29_12h15.32.350,lexical_decision_task_DD_L3,2021.2.3,Linux x86_64,60.09615385,,,,,,,,,,,2.1195,1,,,,,,,,,,,,,,z,1,2.1195,,,,,,,,0.299493716,0.004557937,0,0,0,,0,33,33,97,1,CHIDS,HB,old,z,./images/CHIDSHB.png,,,,,,,,,,,,,,,,,,,,,,,
,,,,,,,,,,,,,,,,,199243,18,2022-01-29_12h15.32.350,lexical_decision_task_DD_L3,2021.2.3,Linux x86_64,60.09615385,,,,,,,,,,,0.8361,1,,,,,,,,,,,,,,z,1,0.8361,,,,,,,,0.299493716,0.004557937,0,0,0,,0,34,34,122,1,BLOOT,LB,old,z,./images/BLOOTLB.png,,,,,,,,,,,,,,,,,,,,,,,
,,,,,,,,,,,,,,,,,199243,18,2022-01-29_12h15.32.350,lexical_decision_task_DD_L3,2021.2.3,Linux x86_64,60.09615385,,,,,,,,,,,0.7183,1,,,,,,,,,,,,,,m,1,0.7183,,,,,,,,0.299493716,0.004557937,0,0,0,,0,35,35,49,1,DRUMS,C,old,m,./images/DRUMS.png,,,,,,,,,,,,,,,,,,,,,,,
,,,,,,,,,,,,,,,,,199243,18,2022-01-29_12h15.32.350,lexical_decision_task_DD_L3,2021.2.3,Linux x86_64,60.09615385,,,,,,,,,,,2.9573,1,,,,,,,,,,,,,,z,1,2.9573,,,,,,,,0.299493716,0.004557937,0,0,0,,0,36,36,85,1,CHULK,HB,old,z,./images/CHULKHB.png,,,,,,,,,,,,,,,,,,,,,,,
,,,,,,,,,,,,,,,,,199243,18,2022-01-29_12h15.32.350,lexical_decision_task_DD_L3,2021.2.3,Linux x86_64,60.09615385,,,,,,,,,,,2.8571,1,,,,,,,,,,,,,,z,1,2.8571,,,,,,,,0.299493716,0.004557937,0,0,0,,0,37,37,136,1,WERVE,HB,old,z,./images/WERVEHB.png,,,,,,,,,,,,,,,,,,,,,,,
,,,,,,,,,,,,,,,,,199243,18,2022-01-29_12h15.32.350,lexical_decision_task_DD_L3,2021.2.3,Linux x86_64,60.09615385,,,,,,,,,,,2.4878,1,,,,,,,,,,,,,,z,1,2.4878,,,,,,,,0.299493716,0.004557937,0,0,0,,0,38,38,110,1,CRUNK,LB,old,z,./images/CRUNKLB.png,,,,,,,,,,,,,,,,,,,,,,,
,,,,,,,,,,,,,,,,,199243,18,2022-01-29_12h15.32.350,lexical_decision_task_DD_L3,2021.2.3,Linux x86_64,60.09615385,,,,,,,,,,,0.8114,1,,,,,,,,,,,,,,m,1,0.8114,,,,,,,,0.299493716,0.004557937,0,0,0,,0,39,39,5,1,PASTA,HB,old,m,./images/PASTAHB.png,,,,,,,,,,,,,,,,,,,,,,,
,,,,,,,,,,,,,,,,,199243,18,2022-01-29_12h15.32.350,lexical_decision_task_DD_L3,2021.2.3,Linux x86_64,60.09615385,,,,,,,,,,,0.6531,1,,,,,,,,,,,,,,m,1,0.6531,,,,,,,,0.299493716,0.004557937,0,0,0,,0,40,40,75,1,GRAIN,LB,old,m,./images/GRAINLB.png,,,,,,,,,,,,,,,,,,,,,,,
,,,,,,,,,,,,,,,,,199243,18,2022-01-29_12h15.32.350,lexical_decision_task_DD_L3,2021.2.3,Linux x86_64,60.09615385,,,,,,,,,,,1.8433,1,,,,,,,,,,,,,,z,1,1.8433,,,,,,,,0.299493716,0.004557937,0,0,0,space,0,41,41,89,1,DRIEK,LB,old,z,./images/DRIEKLB.png,6.8732,,,,,,,,,,,,,,,,,,,,,,
,,,,,,,,,,,,,,,,,199243,18,2022-01-29_12h15.32.350,lexical_decision_task_DD_L3,2021.2.3,Linux x86_64,60.09615385,,,,,,,,,,,2.4406,1,,,,,,,,,,,,,,z,1,2.4406,,,,,,,,0.299493716,0.004557937,0,0,0,,0,42,42,145,1,LAMEL,HB,old,z,./images/LAMELHB.png,,,,,,,,,,,,,,,,,,,,,,,
,,,,,,,,,,,,,,,,,199243,18,2022-01-29_12h15.32.350,lexical_decision_task_DD_L3,2021.2.3,Linux x86_64,60.09615385,,,,,,,,,,,0.8272,1,,,,,,,,,,,,,,m,1,0.8272,,,,,,,,0.299493716,0.004557937,0,0,0,,0,43,43,12,1,SHORE,LB,old,m,./images/SHORELB.png,,,,,,,,,,,,,,,,,,,,,,,
,,,,,,,,,,,,,,,,,199243,18,2022-01-29_12h15.32.350,lexical_decision_task_DD_L3,2021.2.3,Linux x86_64,60.09615385,,,,,,,,,,,2.4398,1,,,,,,,,,,,,,,z,1,2.4398,,,,,,,,0.299493716,0.004557937,0,0,0,,0,44,44,112,1,MYING,HB,old,z,./images/MYINGHB.png,,,,,,,,,,,,,,,,,,,,,,,
,,,,,,,,,,,,,,,,,199243,18,2022-01-29_12h15.32.350,lexical_decision_task_DD_L3,2021.2.3,Linux x86_64,60.09615385,,,,,,,,,,,0.976,1,,,,,,,,,,,,,,m,1,0.976,,,,,,,,0.299493716,0.004557937,0,0,0,,0,45,45,56,1,PACKET,HB,old,m,./images/PACKETHB.png,,,,,,,,,,,,,,,,,,,,,,,
,,,,,,,,,,,,,,,,,199243,18,2022-01-29_12h15.32.350,lexical_decision_task_DD_L3,2021.2.3,Linux x86_64,60.09615385,,,,,,,,,,,0.7713,1,,,,,,,,,,,,,,z,1,0.7713,,,,,,,,0.299493716,0.004557937,0,0,0,,0,46,46,132,1,SCIFF,C,old,z,./images/SCIFF.png,,,,,,,,,,,,,,,,,,,,,,,
,,,,,,,,,,,,,,,,,199243,18,2022-01-29_12h15.32.350,lexical_decision_task_DD_L3,2021.2.3,Linux x86_64,60.09615385,,,,,,,,,,,1.8827,1,,,,,,,,,,,,,,z,1,1.8827,,,,,,,,0.299493716,0.004557937,0,0,0,,0,47,47,94,1,BLANS,HB,old,z,./images/BLANSHB.png,,,,,,,,,,,,,,,,,,,,,,,
,,,,,,,,,,,,,,,,,199243,18,2022-01-29_12h15.32.350,lexical_decision_task_DD_L3,2021.2.3,Linux x86_64,60.09615385,,,,,,,,,,,0.6886,1,,,,,,,,,,,,,,m,1,0.6886,,,,,,,,0.299493716,0.004557937,0,0,0,,0,48,48,60,1,TWINS,LB,old,m,./images/TWINSLB.png,,,,,,,,,,,,,,,,,,,,,,,
,,,,,,,,,,,,,,,,,199243,18,2022-01-29_12h15.32.350,lexical_decision_task_DD_L3,2021.2.3,Linux x86_64,60.09615385,,,,,,,,,,,1.1447,1,,,,,,,,,,,,,,z,1,1.1447,,,,,,,,0.299493716,0.004557937,0,0,0,,0,49,49,138,1,PLICE,C,old,z,./images/PLICE.png,,,,,,,,,,,,,,,,,,,,,,,
,,,,,,,,,,,,,,,,,199243,18,2022-01-29_12h15.32.350,lexical_decision_task_DD_L3,2021.2.3,Linux x86_64,60.09615385,,,,,,,,,,,0.9227,1,,,,,,,,,,,,,,m,1,0.9227,,,,,,,,0.299493716,0.004557937,0,0,0,,0,50,50,33,1,MAGGOT,LB,old,m,./images/MAGGOTLB.png,,,,,,,,,,,,,,,,,,,,,,,
,,,,,,,,,,,,,,,,,199243,18,2022-01-29_12h15.32.350,lexical_decision_task_DD_L3,2021.2.3,Linux x86_64,60.09615385,,,,,,,,,,,2.002,1,,,,,,,,,,,,,,z,1,2.002,,,,,,,,0.299493716,0.004557937,0,0,0,,0,51,51,154,1,THINT,HB,old,z,./images/THINTHB.png,,,,,,,,,,,,,,,,,,,,,,,
,,,,,,,,,,,,,,,,,199243,18,2022-01-29_12h15.32.350,lexical_decision_task_DD_L3,2021.2.3,Linux x86_64,60.09615385,,,,,,,,,,,0.8512,1,,,,,,,,,,,,,,z,1,0.8512,,,,,,,,0.299493716,0.004557937,0,0,0,,0,52,52,135,1,JOODY,C,old,z,./images/JOODY.png,,,,,,,,,,,,,,,,,,,,,,,
,,,,,,,,,,,,,,,,,199243,18,2022-01-29_12h15.32.350,lexical_decision_task_DD_L3,2021.2.3,Linux x86_64,60.09615385,,,,,,,,,,,0.9244,1,,,,,,,,,,,,,,m,1,0.9244,,,,,,,,0.299493716,0.004557937,0,0,0,,0,53,53,71,1,PIMPLE,HB,old,m,./images/PIMPLEHB.png,,,,,,,,,,,,,,,,,,,,,,,
,,,,,,,,,,,,,,,,,199243,18,2022-01-29_12h15.32.350,lexical_decision_task_DD_L3,2021.2.3,Linux x86_64,60.09615385,,,,,,,,,,,0.9121,1,,,,,,,,,,,,,,m,1,0.9121,,,,,,,,0.299493716,0.004557937,0,0,0,,0,54,54,28,1,FALCON,C,old,m,./images/FALCON.png,,,,,,,,,,,,,,,,,,,,,,,
,,,,,,,,,,,,,,,,,199243,18,2022-01-29_12h15.32.350,lexical_decision_task_DD_L3,2021.2.3,Linux x86_64,60.09615385,,,,,,,,,,,1.4772,1,,,,,,,,,,,,,,m,1,1.4772,,,,,,,,0.299493716,0.004557937,0,0,0,,0,55,55,43,1,MOSQUE,C,old,m,./images/MOSQUE.png,,,,,,,,,,,,,,,,,,,,,,,
,,,,,,,,,,,,,,,,,199243,18,2022-01-29_12h15.32.350,lexical_decision_task_DD_L3,2021.2.3,Linux x86_64,60.09615385,,,,,,,,,,,0.8789,1,,,,,,,,,,,,,,z,1,0.8789,,,,,,,,0.299493716,0.004557937,0,0,0,,0,56,56,164,1,SGREW,LB,old,z,./images/SGREWLB.png,,,,,,,,,,,,,,,,,,,,,,,
,,,,,,,,,,,,,,,,,199243,18,2022-01-29_12h15.32.350,lexical_decision_task_DD_L3,2021.2.3,Linux x86_64,60.09615385,,,,,,,,,,,1.5971,1,,,,,,,,,,,,,,m,1,1.5971,,,,,,,,0.299493716,0.004557937,0,0,0,,0,57,57,65,1,FARMER,HB,old,m,./images/FARMERHB.png,,,,,,,,,,,,,,,,,,,,,,,
,,,,,,,,,,,,,,,,,199243,18,2022-01-29_12h15.32.350,lexical_decision_task_DD_L3,2021.2.3,Linux x86_64,60.09615385,,,,,,,,,,,0.756,1,,,,,,,,,,,,,,m,1,0.756,,,,,,,,0.299493716,0.004557937,0,0,0,,0,58,58,26,1,SMOKER,HB,old,m,./images/SMOKERHB.png,,,,,,,,,,,,,,,,,,,,,,,
,,,,,,,,,,,,,,,,,199243,18,2022-01-29_12h15.32.350,lexical_decision_task_DD_L3,2021.2.3,Linux x86_64,60.09615385,,,,,,,,,,,0.6391,1,,,,,,,,,,,,,,m,1,0.6391,,,,,,,,0.299493716,0.004557937,0,0,0,,0,59,59,45,1,KITTEN,LB,old,m,./images/KITTENLB.png,,,,,,,,,,,,,,,,,,,,,,,
,,,,,,,,,,,,,,,,,199243,18,2022-01-29_12h15.32.350,lexical_decision_task_DD_L3,2021.2.3,Linux x86_64,60.09615385,,,,,,,,,,,0.5808,1,,,,,,,,,,,,,,m,1,0.5808,,,,,,,,0.299493716,0.004557937,0,0,0,,0,60,60,69,1,COOKER,LB,old,m,./images/COOKERLB.png,,,,,,,,,,,,,,,,,,,,,,,
,,,,,,,,,,,,,,,,,199243,18,2022-01-29_12h15.32.350,lexical_decision_task_DD_L3,2021.2.3,Linux x86_64,60.09615385,,,,,,,,,,,2.1251,1,,,,,,,,,,,,,,m,1,2.1251,,,,,,,,0.299493716,0.004557937,0,0,0,,0,61,61,20,1,CRADLE,HB,old,m,./images/CRADLEHB.png,,,,,,,,,,,,,,,,,,,,,,,
,,,,,,,,,,,,,,,,,199243,18,2022-01-29_12h15.32.350,lexical_decision_task_DD_L3,2021.2.3,Linux x86_64,60.09615385,,,,,,,,,,,0.9507,1,,,,,,,,,,,,,,m,1,0.9507,,,,,,,,0.299493716,0.004557937,0,0,0,,0,62,62,83,1,JUNGLE,HB,old,m,./images/JUNGLEHB.png,,,,,,,,,,,,,,,,,,,,,,,
,,,,,,,,,,,,,,,,,199243,18,2022-01-29_12h15.32.350,lexical_decision_task_DD_L3,2021.2.3,Linux x86_64,60.09615385,,,,,,,,,,,0.9807,1,,,,,,,,,,,,,,z,1,0.9807,,,,,,,,0.299493716,0.004557937,0,0,0,,0,63,63,111,1,HOSSE,C,old,z,./images/HOSSE.png,,,,,,,,,,,,,,,,,,,,,,,
,,,,,,,,,,,,,,,,,199243,18,2022-01-29_12h15.32.350,lexical_decision_task_DD_L3,2021.2.3,Linux x86_64,60.09615385,,,,,,,,,,,1.2907,1,,,,,,,,,,,,,,m,1,1.2907,,,,,,,,0.299493716,0.004557937,0,0,0,,0,64,64,39,1,SHELF,LB,old,m,./images/SHELFLB.png,,,,,,,,,,,,,,,,,,,,,,,
,,,,,,,,,,,,,,,,,199243,18,2022-01-29_12h15.32.350,lexical_decision_task_DD_L3,2021.2.3,Linux x86_64,60.09615385,,,,,,,,,,,0.6452,1,,,,,,,,,,,,,,m,1,0.6452,,,,,,,,0.299493716,0.004557937,0,0,0,,0,65,65,24,1,SCREW,LB,old,m,./images/SCREWLB.png,,,,,,,,,,,,,,,,,,,,,,,
,,,,,,,,,,,,,,,,,199243,18,2022-01-29_12h15.32.350,lexical_decision_task_DD_L3,2021.2.3,Linux x86_64,60.09615385,,,,,,,,,,,2.2167,1,,,,,,,,,,,,,,z,1,2.2167,,,,,,,,0.299493716,0.004557937,0,0,0,,0,66,66,113,1,LINEW,LB,old,z,./images/LINEWLB.png,,,,,,,,,,,,,,,,,,,,,,,
,,,,,,,,,,,,,,,,,199243,18,2022-01-29_12h15.32.350,lexical_decision_task_DD_L3,2021.2.3,Linux x86_64,60.09615385,,,,,,,,,,,0.9303,1,,,,,,,,,,,,,,z,1,0.9303,,,,,,,,0.299493716,0.004557937,0,0,0,,0,67,67,150,1,NOOLS,C,old,z,./images/NOOLS.png,,,,,,,,,,,,,,,,,,,,,,,
,,,,,,,,,,,,,,,,,199243,18,2022-01-29_12h15.32.350,lexical_decision_task_DD_L3,2021.2.3,Linux x86_64,60.09615385,,,,,,,,,,,1.5079,1,,,,,,,,,,,,,,z,1,1.5079,,,,,,,,0.299493716,0.004557937,0,0,0,,0,68,68,119,1,PAFER,LB,old,z,./images/PAFERLB.png,,,,,,,,,,,,,,,,,,,,,,,
,,,,,,,,,,,,,,,,,199243,18,2022-01-29_12h15.32.350,lexical_decision_task_DD_L3,2021.2.3,Linux x86_64,60.09615385,,,,,,,,,,,1.1521,1,,,,,,,,,,,,,,z,1,1.1521,,,,,,,,0.299493716,0.004557937,0,0,0,,0,69,69,152,1,FRAIN,LB,old,z,./images/FRAINLB.png,,,,,,,,,,,,,,,,,,,,,,,
,,,,,,,,,,,,,,,,,199243,18,2022-01-29_12h15.32.350,lexical_decision_task_DD_L3,2021.2.3,Linux x86_64,60.09615385,,,,,,,,,,,2.7556,1,,,,,,,,,,,,,,z,1,2.7556,,,,,,,,0.299493716,0.004557937,0,0,0,,0,70,70,109,1,BURGE,HB,old,z,./images/BURGEHB.png,,,,,,,,,,,,,,,,,,,,,,,
,,,,,,,,,,,,,,,,,199243,18,2022-01-29_12h15.32.350,lexical_decision_task_DD_L3,2021.2.3,Linux x86_64,60.09615385,,,,,,,,,,,0.7745,1,,,,,,,,,,,,,,m,1,0.7745,,,,,,,,0.299493716,0.004557937,0,0,0,,0,71,71,29,1,CRUMB,HB,old,m,./images/CRUMBHB.png,,,,,,,,,,,,,,,,,,,,,,,
,,,,,,,,,,,,,,,,,199243,18,2022-01-29_12h15.32.350,lexical_decision_task_DD_L3,2021.2.3,Linux x86_64,60.09615385,,,,,,,,,,,0.6066,1,,,,,,,,,,,,,,m,1,0.6066,,,,,,,,0.299493716,0.004557937,0,0,0,,0,72,72,63,1,MIRROR,LB,old,m,./images/MIRRORLB.png,,,,,,,,,,,,,,,,,,,,,,,
,,,,,,,,,,,,,,,,,199243,18,2022-01-29_12h15.32.350,lexical_decision_task_DD_L3,2021.2.3,Linux x86_64,60.09615385,,,,,,,,,,,0.6493,1,,,,,,,,,,,,,,m,1,0.6493,,,,,,,,0.299493716,0.004557937,0,0,0,,0,73,73,42,1,FOLDER,LB,old,m,./images/FOLDERLB.png,,,,,,,,,,,,,,,,,,,,,,,
,,,,,,,,,,,,,,,,,199243,18,2022-01-29_12h15.32.350,lexical_decision_task_DD_L3,2021.2.3,Linux x86_64,60.09615385,,,,,,,,,,,0.7537,1,,,,,,,,,,,,,,m,1,0.7537,,,,,,,,0.299493716,0.004557937,0,0,0,,0,74,74,53,1,CARPET,HB,old,m,./images/CARPETHB.png,,,,,,,,,,,,,,,,,,,,,,,
,,,,,,,,,,,,,,,,,199243,18,2022-01-29_12h15.32.350,lexical_decision_task_DD_L3,2021.2.3,Linux x86_64,60.09615385,,,,,,,,,,,0.7379,1,,,,,,,,,,,,,,m,1,0.7379,,,,,,,,0.299493716,0.004557937,0,0,0,,0,75,75,68,1,TORCH,HB,old,m,./images/TORCHHB.png,,,,,,,,,,,,,,,,,,,,,,,
,,,,,,,,,,,,,,,,,199243,18,2022-01-29_12h15.32.350,lexical_decision_task_DD_L3,2021.2.3,Linux x86_64,60.09615385,,,,,,,,,,,0.805,1,,,,,,,,,,,,,,m,1,0.805,,,,,,,,0.299493716,0.004557937,0,0,0,,0,76,76,47,1,BERRY,HB,old,m,./images/BERRYHB.png,,,,,,,,,,,,,,,,,,,,,,,
,,,,,,,,,,,,,,,,,199243,18,2022-01-29_12h15.32.350,lexical_decision_task_DD_L3,2021.2.3,Linux x86_64,60.09615385,,,,,,,,,,,1.0063,1,,,,,,,,,,,,,,m,1,1.0063,,,,,,,,0.299493716,0.004557937,0,0,0,,0,77,77,50,1,MALLET,HB,old,m,./images/MALLETHB.png,,,,,,,,,,,,,,,,,,,,,,,
,,,,,,,,,,,,,,,,,199243,18,2022-01-29_12h15.32.350,lexical_decision_task_DD_L3,2021.2.3,Linux x86_64,60.09615385,,,,,,,,,,,1.2205,1,,,,,,,,,,,,,,z,1,1.2205,,,,,,,,0.299493716,0.004557937,0,0,0,,0,78,78,103,1,FLORT,HB,old,z,./images/FLORTHB.png,,,,,,,,,,,,,,,,,,,,,,,
,,,,,,,,,,,,,,,,,199243,18,2022-01-29_12h15.32.350,lexical_decision_task_DD_L3,2021.2.3,Linux x86_64,60.09615385,,,,,,,,,,,0.8549,1,,,,,,,,,,,,,,z,1,0.8549,,,,,,,,0.299493716,0.004557937,0,0,0,,0,79,79,87,1,TRING,C,old,z,./images/TRING.png,,,,,,,,,,,,,,,,,,,,,,,
,,,,,,,,,,,,,,,,,199243,18,2022-01-29_12h15.32.350,lexical_decision_task_DD_L3,2021.2.3,Linux x86_64,60.09615385,,,,,,,,,,,3.0385,0,,,,,,,,,,,,,,m,0,3.0385,,,,,,,,0.299493716,0.004557937,0,0,0,,0,80,80,104,1,GITTY,LB,old,z,./images/GITTYLB.png,,,,,,,,,,,,,,,,,,,,,,,
,,,,,,,,,,,,,,,,,199243,18,2022-01-29_12h15.32.350,lexical_decision_task_DD_L3,2021.2.3,Linux x86_64,60.09615385,,,,,,,,,,,0.8779,1,,,,,,,,,,,,,,m,1,0.8779,,,,,,,,0.299493716,0.004557937,0,0,0,,0,81,81,46,1,PEARL,C,old,m,./images/PEARL.png,,,,,,,,,,,,,,,,,,,,,,,
,,,,,,,,,,,,,,,,,199243,18,2022-01-29_12h15.32.350,lexical_decision_task_DD_L3,2021.2.3,Linux x86_64,60.09615385,,,,,,,,,,,0.8142,1,,,,,,,,,,,,,,z,1,0.8142,,,,,,,,0.299493716,0.004557937,0,0,0,,0,82,82,126,1,GUELS,C,old,z,./images/GUELS.png,,,,,,,,,,,,,,,,,,,,,,,
,,,,,,,,,,,,,,,,,199243,18,2022-01-29_12h15.32.350,lexical_decision_task_DD_L3,2021.2.3,Linux x86_64,60.09615385,,,,,,,,,,,1.168,1,,,,,,,,,,,,,,m,1,1.168,,,,,,,,0.299493716,0.004557937,0,0,0,space,0,83,83,61,1,CANDLE,C,old,m,./images/CANDLE.png,24.7313,,,,,,,,,,,,,,,,,,,,,,
,,,,,,,,,,,,,,,,,199243,18,2022-01-29_12h15.32.350,lexical_decision_task_DD_L3,2021.2.3,Linux x86_64,60.09615385,,,,,,,,,,,0.7732,1,,,,,,,,,,,,,,m,1,0.7732,,,,,,,,0.299493716,0.004557937,0,0,0,,0,84,84,6,1,SQUARE,LB,old,m,./images/SQUARELB.png,,,,,,,,,,,,,,,,,,,,,,,
,,,,,,,,,,,,,,,,,199243,18,2022-01-29_12h15.32.350,lexical_decision_task_DD_L3,2021.2.3,Linux x86_64,60.09615385,,,,,,,,,,,2.0806,0,,,,,,,,,,,,,,m,0,2.0806,,,,,,,,0.299493716,0.004557937,0,0,0,,0,85,85,141,1,PLEET,C,old,z,./images/PLEET.png,,,,,,,,,,,,,,,,,,,,,,,
,,,,,,,,,,,,,,,,,199243,18,2022-01-29_12h15.32.350,lexical_decision_task_DD_L3,2021.2.3,Linux x86_64,60.09615385,,,,,,,,,,,1.2813,1,,,,,,,,,,,,,,z,1,1.2813,,,,,,,,0.299493716,0.004557937,0,0,0,,0,86,86,98,1,BAMPS,LB,old,z,./images/BAMPSLB.png,,,,,,,,,,,,,,,,,,,,,,,
,,,,,,,,,,,,,,,,,199243,18,2022-01-29_12h15.32.350,lexical_decision_task_DD_L3,2021.2.3,Linux x86_64,60.09615385,,,,,,,,,,,0.8083,1,,,,,,,,,,,,,,m,1,0.8083,,,,,,,,0.299493716,0.004557937,0,0,0,,0,87,87,55,1,MUFFIN,C,old,m,./images/MUFFIN.png,,,,,,,,,,,,,,,,,,,,,,,
,,,,,,,,,,,,,,,,,199243,18,2022-01-29_12h15.32.350,lexical_decision_task_DD_L3,2021.2.3,Linux x86_64,60.09615385,,,,,,,,,,,0.8575,1,,,,,,,,,,,,,,m,1,0.8575,,,,,,,,0.299493716,0.004557937,0,0,0,,0,88,88,66,1,SWEAT,LB,old,m,./images/SWEATLB.png,,,,,,,,,,,,,,,,,,,,,,,
,,,,,,,,,,,,,,,,,199243,18,2022-01-29_12h15.32.350,lexical_decision_task_DD_L3,2021.2.3,Linux x86_64,60.09615385,,,,,,,,,,,0.7879,1,,,,,,,,,,,,,,m,1,0.7879,,,,,,,,0.299493716,0.004557937,0,0,0,,0,89,89,2,1,BEARD,HB,old,m,./images/BEARDHB.png,,,,,,,,,,,,,,,,,,,,,,,
,,,,,,,,,,,,,,,,,199243,18,2022-01-29_12h15.32.350,lexical_decision_task_DD_L3,2021.2.3,Linux x86_64,60.09615385,,,,,,,,,,,1.6597,0,,,,,,,,,,,,,,z,0,1.6597,,,,,,,,0.299493716,0.004557937,0,0,0,,0,90,90,72,1,NOOSE,LB,old,m,./images/NOOSELB.png,,,,,,,,,,,,,,,,,,,,,,,
,,,,,,,,,,,,,,,,,199243,18,2022-01-29_12h15.32.350,lexical_decision_task_DD_L3,2021.2.3,Linux x86_64,60.09615385,,,,,,,,,,,1.9679,1,,,,,,,,,,,,,,z,1,1.9679,,,,,,,,0.299493716,0.004557937,0,0,0,,0,91,91,91,1,SHENS,HB,old,z,./images/SHENSHB.png,,,,,,,,,,,,,,,,,,,,,,,
,,,,,,,,,,,,,,,,,199243,18,2022-01-29_12h15.32.350,lexical_decision_task_DD_L3,2021.2.3,Linux x86_64,60.09615385,,,,,,,,,,,1.0358,1,,,,,,,,,,,,,,z,1,1.0358,,,,,,,,0.299493716,0.004557937,0,0,0,,0,92,92,156,1,HIXES,C,old,z,./images/HIXES.png,,,,,,,,,,,,,,,,,,,,,,,
,,,,,,,,,,,,,,,,,199243,18,2022-01-29_12h15.32.350,lexical_decision_task_DD_L3,2021.2.3,Linux x86_64,60.09615385,,,,,,,,,,,0.6331,1,,,,,,,,,,,,,,m,1,0.6331,,,,,,,,0.299493716,0.004557937,0,0,0,,0,93,93,64,1,JELLY,C,old,m,./images/JELLY.png,,,,,,,,,,,,,,,,,,,,,,,
,,,,,,,,,,,,,,,,,199243,18,2022-01-29_12h15.32.350,lexical_decision_task_DD_L3,2021.2.3,Linux x86_64,60.09615385,,,,,,,,,,,0.9324,1,,,,,,,,,,,,,,z,1,0.9324,,,,,,,,0.299493716,0.004557937,0,0,0,,0,94,94,93,1,SMONE,C,old,z,./images/SMONE.png,,,,,,,,,,,,,,,,,,,,,,,
,,,,,,,,,,,,,,,,,199243,18,2022-01-29_12h15.32.350,lexical_decision_task_DD_L3,2021.2.3,Linux x86_64,60.09615385,,,,,,,,,,,1.2722,1,,,,,,,,,,,,,,m,1,1.2722,,,,,,,,0.299493716,0.004557937,0,0,0,,0,95,95,78,1,LITTER,LB,old,m,./images/LITTERLB.png,,,,,,,,,,,,,,,,,,,,,,,
,,,,,,,,,,,,,,,,,199243,18,2022-01-29_12h15.32.350,lexical_decision_task_DD_L3,2021.2.3,Linux x86_64,60.09615385,,,,,,,,,,,0.9656,1,,,,,,,,,,,,,,m,1,0.9656,,,,,,,,0.299493716,0.004557937,0,0,0,,0,96,96,7,1,PAINT,C,old,m,./images/PAINT.png,,,,,,,,,,,,,,,,,,,,,,,
,,,,,,,,,,,,,,,,,199243,18,2022-01-29_12h15.32.350,lexical_decision_task_DD_L3,2021.2.3,Linux x86_64,60.09615385,,,,,,,,,,,0.6019,1,,,,,,,,,,,,,,m,1,0.6019,,,,,,,,0.299493716,0.004557937,0,0,0,,0,97,97,25,1,WRIST,C,old,m,./images/WRIST.png,,,,,,,,,,,,,,,,,,,,,,,
,,,,,,,,,,,,,,,,,199243,18,2022-01-29_12h15.32.350,lexical_decision_task_DD_L3,2021.2.3,Linux x86_64,60.09615385,,,,,,,,,,,0.9172,1,,,,,,,,,,,,,,m,1,0.9172,,,,,,,,0.299493716,0.004557937,0,0,0,,0,98,98,77,1,COUCH,HB,old,m,./images/COUCHHB.png,,,,,,,,,,,,,,,,,,,,,,,
,,,,,,,,,,,,,,,,,199243,18,2022-01-29_12h15.32.350,lexical_decision_task_DD_L3,2021.2.3,Linux x86_64,60.09615385,,,,,,,,,,,1.1602,1,,,,,,,,,,,,,,z,1,1.1602,,,,,,,,0.299493716,0.004557937,0,0,0,,0,99,99,142,1,PLASK,HB,old,z,./images/PLASKHB.png,,,,,,,,,,,,,,,,,,,,,,,
,,,,,,,,,,,,,,,,,199243,18,2022-01-29_12h15.32.350,lexical_decision_task_DD_L3,2021.2.3,Linux x86_64,60.09615385,,,,,,,,,,,1.0045,1,,,,,,,,,,,,,,z,1,1.0045,,,,,,,,0.299493716,0.004557937,0,0,0,,0,100,100,116,1,BALGY,LB,old,z,./images/BALGYLB.png,,,,,,,,,,,,,,,,,,,,,,,
,,,,,,,,,,,,,,,,,199243,18,2022-01-29_12h15.32.350,lexical_decision_task_DD_L3,2021.2.3,Linux x86_64,60.09615385,,,,,,,,,,,1.2559,1,,,,,,,,,,,,,,z,1,1.2559,,,,,,,,0.299493716,0.004557937,0,0,0,,0,101,101,99,1,BACKY,C,old,z,./images/BACKY.png,,,,,,,,,,,,,,,,,,,,,,,
,,,,,,,,,,,,,,,,,199243,18,2022-01-29_12h15.32.350,lexical_decision_task_DD_L3,2021.2.3,Linux x86_64,60.09615385,,,,,,,,,,,0.9114,1,,,,,,,,,,,,,,m,1,0.9114,,,,,,,,0.299493716,0.004557937,0,0,0,,0,102,102,54,1,TRIPOD,LB,old,m,./images/TRIPODLB.png,,,,,,,,,,,,,,,,,,,,,,,
,,,,,,,,,,,,,,,,,199243,18,2022-01-29_12h15.32.350,lexical_decision_task_DD_L3,2021.2.3,Linux x86_64,60.09615385,,,,,,,,,,,0.9761,1,,,,,,,,,,,,,,m,1,0.9761,,,,,,,,0.299493716,0.004557937,0,0,0,,0,103,103,59,1,BURIAL,HB,old,m,./images/BURIALHB.png,,,,,,,,,,,,,,,,,,,,,,,
,,,,,,,,,,,,,,,,,199243,18,2022-01-29_12h15.32.350,lexical_decision_task_DD_L3,2021.2.3,Linux x86_64,60.09615385,,,,,,,,,,,0.9186,1,,,,,,,,,,,,,,m,1,0.9186,,,,,,,,0.299493716,0.004557937,0,0,0,,0,104,104,31,1,QUILL,C,old,m,./images/QUILL.png,,,,,,,,,,,,,,,,,,,,,,,
,,,,,,,,,,,,,,,,,199243,18,2022-01-29_12h15.32.350,lexical_decision_task_DD_L3,2021.2.3,Linux x86_64,60.09615385,,,,,,,,,,,0.9011,1,,,,,,,,,,,,,,z,1,0.9011,,,,,,,,0.299493716,0.004557937,0,0,0,,0,105,105,149,1,VEASE,LB,old,z,./images/VEASELB.png,,,,,,,,,,,,,,,,,,,,,,,
,,,,,,,,,,,,,,,,,199243,18,2022-01-29_12h15.32.350,lexical_decision_task_DD_L3,2021.2.3,Linux x86_64,60.09615385,,,,,,,,,,,0.9,1,,,,,,,,,,,,,,m,1,0.9,,,,,,,,0.299493716,0.004557937,0,0,0,,0,106,106,80,1,WEASEL,HB,old,m,./images/WEASELHB.png,,,,,,,,,,,,,,,,,,,,,,,
,,,,,,,,,,,,,,,,,199243,18,2022-01-29_12h15.32.350,lexical_decision_task_DD_L3,2021.2.3,Linux x86_64,60.09615385,,,,,,,,,,,1.0265,1,,,,,,,,,,,,,,z,1,1.0265,,,,,,,,0.299493716,0.004557937,0,0,0,,0,107,107,107,1,FASKS,LB,old,z,./images/FASKSLB.png,,,,,,,,,,,,,,,,,,,,,,,
,,,,,,,,,,,,,,,,,199243,18,2022-01-29_12h15.32.350,lexical_decision_task_DD_L3,2021.2.3,Linux x86_64,60.09615385,,,,,,,,,,,1.3952,0,,,,,,,,,,,,,,m,0,1.3952,,,,,,,,0.299493716,0.004557937,0,0,0,,0,108,108,114,1,RIKES,C,old,z,./images/RIKES.png,,,,,,,,,,,,,,,,,,,,,,,
,,,,,,,,,,,,,,,,,199243,18,2022-01-29_12h15.32.350,lexical_decision_task_DD_L3,2021.2.3,Linux x86_64,60.09615385,,,,,,,,,,,1.1896,1,,,,,,,,,,,,,,z,1,1.1896,,,,,,,,0.299493716,0.004557937,0,0,0,,0,109,109,101,1,GLEET,LB,old,z,./images/GLEETLB.png,,,,,,,,,,,,,,,,,,,,,,,
,,,,,,,,,,,,,,,,,199243,18,2022-01-29_12h15.32.350,lexical_decision_task_DD_L3,2021.2.3,Linux x86_64,60.09615385,,,,,,,,,,,0.9459,1,,,,,,,,,,,,,,z,1,0.9459,,,,,,,,0.299493716,0.004557937,0,0,0,,0,110,110,146,1,MOOST,LB,old,z,./images/MOOSTLB.png,,,,,,,,,,,,,,,,,,,,,,,
,,,,,,,,,,,,,,,,,199243,18,2022-01-29_12h15.32.350,lexical_decision_task_DD_L3,2021.2.3,Linux x86_64,60.09615385,,,,,,,,,,,1.2267,1,,,,,,,,,,,,,,m,1,1.2267,,,,,,,,0.299493716,0.004557937,0,0,0,,0,111,111,81,1,POODLE,LB,old,m,./images/POODLELB.png,,,,,,,,,,,,,,,,,,,,,,,
,,,,,,,,,,,,,,,,,199243,18,2022-01-29_12h15.32.350,lexical_decision_task_DD_L3,2021.2.3,Linux x86_64,60.09615385,,,,,,,,,,,3.1561,1,,,,,,,,,,,,,,z,1,3.1561,,,,,,,,0.299493716,0.004557937,0,0,0,,0,112,112,121,1,CEERS,HB,old,z,./images/CEERSHB.png,,,,,,,,,,,,,,,,,,,,,,,
,,,,,,,,,,,,,,,,,199243,18,2022-01-29_12h15.32.350,lexical_decision_task_DD_L3,2021.2.3,Linux x86_64,60.09615385,,,,,,,,,,,1.7904,1,,,,,,,,,,,,,,z,1,1.7904,,,,,,,,0.299493716,0.004557937,0,0,0,,0,113,113,124,1,TUNCH,HB,old,z,./images/TUNCHHB.png,,,,,,,,,,,,,,,,,,,,,,,
,,,,,,,,,,,,,,,,,199243,18,2022-01-29_12h15.32.350,lexical_decision_task_DD_L3,2021.2.3,Linux x86_64,60.09615385,,,,,,,,,,,0.876,1,,,,,,,,,,,,,,m,1,0.876,,,,,,,,0.299493716,0.004557937,0,0,0,,0,114,114,48,1,SPORT,LB,old,m,./images/SPORTLB.png,,,,,,,,,,,,,,,,,,,,,,,
,,,,,,,,,,,,,,,,,199243,18,2022-01-29_12h15.32.350,lexical_decision_task_DD_L3,2021.2.3,Linux x86_64,60.09615385,,,,,,,,,,,2.3414,1,,,,,,,,,,,,,,m,1,2.3414,,,,,,,,0.299493716,0.004557937,0,0,0,,0,115,115,17,1,SKIING,HB,old,m,./images/SKIINGHB.png,,,,,,,,,,,,,,,,,,,,,,,
,,,,,,,,,,,,,,,,,199243,18,2022-01-29_12h15.32.350,lexical_decision_task_DD_L3,2021.2.3,Linux x86_64,60.09615385,,,,,,,,,,,1.4029,0,,,,,,,,,,,,,,z,0,1.4029,,,,,,,,0.299493716,0.004557937,0,0,0,,0,116,116,15,1,GREASE,LB,old,m,./images/GREASELB.png,,,,,,,,,,,,,,,,,,,,,,,
,,,,,,,,,,,,,,,,,199243,18,2022-01-29_12h15.32.350,lexical_decision_task_DD_L3,2021.2.3,Linux x86_64,60.09615385,,,,,,,,,,,0.917,1,,,,,,,,,,,,,,m,1,0.917,,,,,,,,0.299493716,0.004557937,0,0,0,,0,117,117,76,1,INFANT,C,old,m,./images/INFANT.png,,,,,,,,,,,,,,,,,,,,,,,
,,,,,,,,,,,,,,,,,199243,18,2022-01-29_12h15.32.350,lexical_decision_task_DD_L3,2021.2.3,Linux x86_64,60.09615385,,,,,,,,,,,1.6409,1,,,,,,,,,,,,,,z,1,1.6409,,,,,,,,0.299493716,0.004557937,0,0,0,,0,118,118,134,1,TROSS,LB,old,z,./images/TROSSLB.png,,,,,,,,,,,,,,,,,,,,,,,
,,,,,,,,,,,,,,,,,199243,18,2022-01-29_12h15.32.350,lexical_decision_task_DD_L3,2021.2.3,Linux x86_64,60.09615385,,,,,,,,,,,0.8046,1,,,,,,,,,,,,,,m,1,0.8046,,,,,,,,0.299493716,0.004557937,0,0,0,,0,119,119,18,1,JAGUAR,LB,old,m,./images/JAGUARLB.png,,,,,,,,,,,,,,,,,,,,,,,
,,,,,,,,,,,,,,,,,199243,18,2022-01-29_12h15.32.350,lexical_decision_task_DD_L3,2021.2.3,Linux x86_64,60.09615385,,,,,,,,,,,1.5415,1,,,,,,,,,,,,,,z,1,1.5415,,,,,,,,0.299493716,0.004557937,0,0,0,,0,120,120,151,1,TINKY,HB,old,z,./images/TINKYHB.png,,,,,,,,,,,,,,,,,,,,,,,
,,,,,,,,,,,,,,,,,199243,18,2022-01-29_12h15.32.350,lexical_decision_task_DD_L3,2021.2.3,Linux x86_64,60.09615385,,,,,,,,,,,0.7539,1,,,,,,,,,,,,,,m,1,0.7539,,,,,,,,0.299493716,0.004557937,0,0,0,,0,121,121,36,1,THROAT,LB,old,m,./images/THROATLB.png,,,,,,,,,,,,,,,,,,,,,,,
,,,,,,,,,,,,,,,,,199243,18,2022-01-29_12h15.32.350,lexical_decision_task_DD_L3,2021.2.3,Linux x86_64,60.09615385,,,,,,,,,,,1.0617,1,,,,,,,,,,,,,,z,1,1.0617,,,,,,,,0.299493716,0.004557937,0,0,0,,0,122,122,147,1,ZOLES,C,old,z,./images/ZOLES.png,,,,,,,,,,,,,,,,,,,,,,,
,,,,,,,,,,,,,,,,,199243,18,2022-01-29_12h15.32.350,lexical_decision_task_DD_L3,2021.2.3,Linux x86_64,60.09615385,,,,,,,,,,,0.9119,1,,,,,,,,,,,,,,z,1,0.9119,,,,,,,,0.299493716,0.004557937,0,0,0,,0,123,123,86,1,AIFED,LB,old,z,./images/AIFEDLB.png,,,,,,,,,,,,,,,,,,,,,,,
,,,,,,,,,,,,,,,,,199243,18,2022-01-29_12h15.32.350,lexical_decision_task_DD_L3,2021.2.3,Linux x86_64,60.09615385,,,,,,,,,,,1.1379,1,,,,,,,,,,,,,,z,1,1.1379,,,,,,,,0.299493716,0.004557937,0,0,0,,0,124,124,148,1,JOMS,HB,old,z,./images/JOMSHB.png,,,,,,,,,,,,,,,,,,,,,,,
,,,,,,,,,,,,,,,,,199243,18,2022-01-29_12h15.32.350,lexical_decision_task_DD_L3,2021.2.3,Linux x86_64,60.09615385,,,,,,,,,,,2.2254,1,,,,,,,,,,,,,,z,1,2.2254,,,,,,,,0.299493716,0.004557937,0,0,0,space,0,125,125,100,1,DRIBS,HB,old,z,./images/DRIBSHB.png,6.8952,,,,,,,,,,,,,,,,,,,,,,
,,,,,,,,,,,,,,,,,199243,18,2022-01-29_12h15.32.350,lexical_decision_task_DD_L3,2021.2.3,Linux x86_64,60.09615385,,,,,,,,,,,1.5384,1,,,,,,,,,,,,,,m,1,1.5384,,,,,,,,0.299493716,0.004557937,0,0,0,,0,126,126,74,1,CEMENT,HB,old,m,./images/CEMENTHB.png,,,,,,,,,,,,,,,,,,,,,,,
,,,,,,,,,,,,,,,,,199243,18,2022-01-29_12h15.32.350,lexical_decision_task_DD_L3,2021.2.3,Linux x86_64,60.09615385,,,,,,,,,,,0.8303,1,,,,,,,,,,,,,,m,1,0.8303,,,,,,,,0.299493716,0.004557937,0,0,0,,0,127,127,52,1,BANNER,C,old,m,./images/BANNER.png,,,,,,,,,,,,,,,,,,,,,,,
,,,,,,,,,,,,,,,,,199243,18,2022-01-29_12h15.32.350,lexical_decision_task_DD_L3,2021.2.3,Linux x86_64,60.09615385,,,,,,,,,,,0.8294,1,,,,,,,,,,,,,,m,1,0.8294,,,,,,,,0.299493716,0.004557937,0,0,0,,0,128,128,9,1,RHINO,LB,old,m,./images/RHINOLB.png,,,,,,,,,,,,,,,,,,,,,,,
,,,,,,,,,,,,,,,,,199243,18,2022-01-29_12h15.32.350,lexical_decision_task_DD_L3,2021.2.3,Linux x86_64,60.09615385,,,,,,,,,,,1.0618,1,,,,,,,,,,,,,,z,1,1.0618,,,,,,,,0.299493716,0.004557937,0,0,0,,0,129,129,96,1,KEAMS,C,old,z,./images/KEAMS.png,,,,,,,,,,,,,,,,,,,,,,,
,,,,,,,,,,,,,,,,,199243,18,2022-01-29_12h15.32.350,lexical_decision_task_DD_L3,2021.2.3,Linux x86_64,60.09615385,,,,,,,,,,,1.4056,1,,,,,,,,,,,,,,z,1,1.4056,,,,,,,,0.299493716,0.004557937,0,0,0,,0,130,130,106,1,CLUMS,HB,old,z,./images/CLUMSHB.png,,,,,,,,,,,,,,,,,,,,,,,
,,,,,,,,,,,,,,,,,199243,18,2022-01-29_12h15.32.350,lexical_decision_task_DD_L3,2021.2.3,Linux x86_64,60.09615385,,,,,,,,,,,2.5716,1,,,,,,,,,,,,,,z,1,2.5716,,,,,,,,0.299493716,0.004557937,0,0,0,,0,131,131,133,1,POWDY,HB,old,z,./images/POWDYHB.png,,,,,,,,,,,,,,,,,,,,,,,
,,,,,,,,,,,,,,,,,199243,18,2022-01-29_12h15.32.350,lexical_decision_task_DD_L3,2021.2.3,Linux x86_64,60.09615385,,,,,,,,,,,1.2214,1,,,,,,,,,,,,,,z,1,1.2214,,,,,,,,0.299493716,0.004557937,0,0,0,,0,132,132,155,1,CANGY,LB,old,z,./images/CANGYLB.png,,,,,,,,,,,,,,,,,,,,,,,
,,,,,,,,,,,,,,,,,199243,18,2022-01-29_12h15.32.350,lexical_decision_task_DD_L3,2021.2.3,Linux x86_64,60.09615385,,,,,,,,,,,2.7598,0,,,,,,,,,,,,,,z,0,2.7598,,,,,,,,0.299493716,0.004557937,0,0,0,,0,133,133,16,1,PENCE,C,old,m,./images/PENCE.png,,,,,,,,,,,,,,,,,,,,,,,
,,,,,,,,,,,,,,,,,199243,18,2022-01-29_12h15.32.350,lexical_decision_task_DD_L3,2021.2.3,Linux x86_64,60.09615385,,,,,,,,,,,1.0721,0,,,,,,,,,,,,,,m,0,1.0721,,,,,,,,0.299493716,0.004557937,0,0,0,,0,134,134,160,1,VEETS,HB,old,z,./images/VEETSHB.png,,,,,,,,,,,,,,,,,,,,,,,
,,,,,,,,,,,,,,,,,199243,18,2022-01-29_12h15.32.350,lexical_decision_task_DD_L3,2021.2.3,Linux x86_64,60.09615385,,,,,,,,,,,1.2498,1,,,,,,,,,,,,,,m,1,1.2498,,,,,,,,0.299493716,0.004557937,0,0,0,,0,135,135,57,1,MOOSE,LB,old,m,./images/MOOSELB.png,,,,,,,,,,,,,,,,,,,,,,,
,,,,,,,,,,,,,,,,,199243,18,2022-01-29_12h15.32.350,lexical_decision_task_DD_L3,2021.2.3,Linux x86_64,60.09615385,,,,,,,,,,,1.4046,1,,,,,,,,,,,,,,z,1,1.4046,,,,,,,,0.299493716,0.004557937,0,0,0,,0,136,136,140,1,DOVET,LB,old,z,./images/DOVETLB.png,,,,,,,,,,,,,,,,,,,,,,,
,,,,,,,,,,,,,,,,,199243,18,2022-01-29_12h15.32.350,lexical_decision_task_DD_L3,2021.2.3,Linux x86_64,60.09615385,,,,,,,,,,,1.3053,1,,,,,,,,,,,,,,z,1,1.3053,,,,,,,,0.299493716,0.004557937,0,0,0,,0,137,137,105,1,MOKER,C,old,z,./images/MOKER.png,,,,,,,,,,,,,,,,,,,,,,,
,,,,,,,,,,,,,,,,,199243,18,2022-01-29_12h15.32.350,lexical_decision_task_DD_L3,2021.2.3,Linux x86_64,60.09615385,,,,,,,,,,,0.7602,1,,,,,,,,,,,,,,m,1,0.7602,,,,,,,,0.299493716,0.004557937,0,0,0,,0,138,138,0,1,TOMATO,LB,old,m,./images/TOMATOLB.png,,,,,,,,,,,,,,,,,,,,,,,
,,,,,,,,,,,,,,,,,199243,18,2022-01-29_12h15.32.350,lexical_decision_task_DD_L3,2021.2.3,Linux x86_64,60.09615385,,,,,,,,,,,1.0246,1,,,,,,,,,,,,,,z,1,1.0246,,,,,,,,0.299493716,0.004557937,0,0,0,,0,139,139,92,1,PAIMS,LB,old,z,./images/PAIMSLB.png,,,,,,,,,,,,,,,,,,,,,,,
,,,,,,,,,,,,,,,,,199243,18,2022-01-29_12h15.32.350,lexical_decision_task_DD_L3,2021.2.3,Linux x86_64,60.09615385,,,,,,,,,,,1.2856,1,,,,,,,,,,,,,,z,1,1.2856,,,,,,,,0.299493716,0.004557937,0,0,0,,0,140,140,139,1,BLEAR,HB,old,z,./images/BLEARHB.png,,,,,,,,,,,,,,,,,,,,,,,
,,,,,,,,,,,,,,,,,199243,18,2022-01-29_12h15.32.350,lexical_decision_task_DD_L3,2021.2.3,Linux x86_64,60.09615385,,,,,,,,,,,0.7486,1,,,,,,,,,,,,,,z,1,0.7486,,,,,,,,0.299493716,0.004557937,0,0,0,,0,141,141,102,1,DULLE,C,old,z,./images/DULLE.png,,,,,,,,,,,,,,,,,,,,,,,
,,,,,,,,,,,,,,,,,199243,18,2022-01-29_12h15.32.350,lexical_decision_task_DD_L3,2021.2.3,Linux x86_64,60.09615385,,,,,,,,,,,1.0354,1,,,,,,,,,,,,,,m,1,1.0354,,,,,,,,0.299493716,0.004557937,0,0,0,,0,142,142,62,1,PURSE,HB,old,m,./images/PURSEHB.png,,,,,,,,,,,,,,,,,,,,,,,
,,,,,,,,,,,,,,,,,199243,18,2022-01-29_12h15.32.350,lexical_decision_task_DD_L3,2021.2.3,Linux x86_64,60.09615385,,,,,,,,,,,0.7551,1,,,,,,,,,,,,,,m,1,0.7551,,,,,,,,0.299493716,0.004557937,0,0,0,,0,143,143,3,1,FINGER,LB,old,m,./images/FINGERLB.png,,,,,,,,,,,,,,,,,,,,,,,
,,,,,,,,,,,,,,,,,199243,18,2022-01-29_12h15.32.350,lexical_decision_task_DD_L3,2021.2.3,Linux x86_64,60.09615385,,,,,,,,,,,1.5025,1,,,,,,,,,,,,,,m,1,1.5025,,,,,,,,0.299493716,0.004557937,0,0,0,,0,144,144,70,1,URINE,C,old,m,./images/URINE.png,,,,,,,,,,,,,,,,,,,,,,,
,,,,,,,,,,,,,,,,,199243,18,2022-01-29_12h15.32.350,lexical_decision_task_DD_L3,2021.2.3,Linux x86_64,60.09615385,,,,,,,,,,,0.7381,1,,,,,,,,,,,,,,m,1,0.7381,,,,,,,,0.299493716,0.004557937,0,0,0,,0,145,145,38,1,LADDER,HB,old,m,./images/LADDERHB.png,,,,,,,,,,,,,,,,,,,,,,,
,,,,,,,,,,,,,,,,,199243,18,2022-01-29_12h15.32.350,lexical_decision_task_DD_L3,2021.2.3,Linux x86_64,60.09615385,,,,,,,,,,,1.1283,1,,,,,,,,,,,,,,m,1,1.1283,,,,,,,,0.299493716,0.004557937,0,0,0,,0,146,146,22,1,MELON,C,old,m,./images/MELON.png,,,,,,,,,,,,,,,,,,,,,,,
,,,,,,,,,,,,,,,,,199243,18,2022-01-29_12h15.32.350,lexical_decision_task_DD_L3,2021.2.3,Linux x86_64,60.09615385,,,,,,,,,,,0.8209,1,,,,,,,,,,,,,,z,1,0.8209,,,,,,,,0.299493716,0.004557937,0,0,0,,0,147,147,108,1,GRUET,C,old,z,./images/GRUET.png,,,,,,,,,,,,,,,,,,,,,,,
,,,,,,,,,,,,,,,,,199243,18,2022-01-29_12h15.32.350,lexical_decision_task_DD_L3,2021.2.3,Linux x86_64,60.09615385,,,,,,,,,,,1.4591,0,,,,,,,,,,,,,,m,0,1.4591,,,,,,,,0.299493716,0.004557937,0,0,0,,0,148,148,159,1,CUDDY,C,old,z,./images/CUDDY.png,,,,,,,,,,,,,,,,,,,,,,,
,,,,,,,,,,,,,,,,,199243,18,2022-01-29_12h15.32.350,lexical_decision_task_DD_L3,2021.2.3,Linux x86_64,60.09615385,,,,,,,,,,,1.0948,1,,,,,,,,,,,,,,m,1,1.0948,,,,,,,,0.299493716,0.004557937,0,0,0,,0,149,149,11,1,BONNET,HB,old,m,./images/BONNETHB.png,,,,,,,,,,,,,,,,,,,,,,,
,,,,,,,,,,,,,,,,,199243,18,2022-01-29_12h15.32.350,lexical_decision_task_DD_L3,2021.2.3,Linux x86_64,60.09615385,,,,,,,,,,,0.7721,1,,,,,,,,,,,,,,m,1,0.7721,,,,,,,,0.299493716,0.004557937,0,0,0,,0,150,150,35,1,PEACH,HB,old,m,./images/PEACHHB.png,,,,,,,,,,,,,,,,,,,,,,,
,,,,,,,,,,,,,,,,,199243,18,2022-01-29_12h15.32.350,lexical_decision_task_DD_L3,2021.2.3,Linux x86_64,60.09615385,,,,,,,,,,,0.8534,1,,,,,,,,,,,,,,z,1,0.8534,,,,,,,,0.299493716,0.004557937,0,0,0,,0,151,151,158,1,EGECT,LB,old,z,./images/EGECTLB.png,,,,,,,,,,,,,,,,,,,,,,,
,,,,,,,,,,,,,,,,,199243,18,2022-01-29_12h15.32.350,lexical_decision_task_DD_L3,2021.2.3,Linux x86_64,60.09615385,,,,,,,,,,,2.1979,0,,,,,,,,,,,,,,m,0,2.1979,,,,,,,,0.299493716,0.004557937,0,0,0,,0,152,152,90,1,NEAST,C,old,z,./images/NEAST.png,,,,,,,,,,,,,,,,,,,,,,,
,,,,,,,,,,,,,,,,,199243,18,2022-01-29_12h15.32.350,lexical_decision_task_DD_L3,2021.2.3,Linux x86_64,60.09615385,,,,,,,,,,,2.2876,1,,,,,,,,,,,,,,z,1,2.2876,,,,,,,,0.299493716,0.004557937,0,0,0,,0,153,153,127,1,NINDY,HB,old,z,./images/NINDYHB.png,,,,,,,,,,,,,,,,,,,,,,,
,,,,,,,,,,,,,,,,,199243,18,2022-01-29_12h15.32.350,lexical_decision_task_DD_L3,2021.2.3,Linux x86_64,60.09615385,,,,,,,,,,,1.2933,1,,,,,,,,,,,,,,z,1,1.2933,,,,,,,,0.299493716,0.004557937,0,0,0,,0,154,154,131,1,NACES,LB,old,z,./images/NACESLB.png,,,,,,,,,,,,,,,,,,,,,,,
,,,,,,,,,,,,,,,,,199243,18,2022-01-29_12h15.32.350,lexical_decision_task_DD_L3,2021.2.3,Linux x86_64,60.09615385,,,,,,,,,,,1.2794,1,,,,,,,,,,,,,,z,1,1.2794,,,,,,,,0.299493716,0.004557937,0,0,0,,0,155,155,118,1,BAVEL,HB,old,z,./images/BAVELHB.png,,,,,,,,,,,,,,,,,,,,,,,
,,,,,,,,,,,,,,,,,199243,18,2022-01-29_12h15.32.350,lexical_decision_task_DD_L3,2021.2.3,Linux x86_64,60.09615385,,,,,,,,,,,0.8449,1,,,,,,,,,,,,,,m,1,0.8449,,,,,,,,0.299493716,0.004557937,0,0,0,,0,156,156,1,1,PLANK,C,old,m,./images/PLANK.png,,,,,,,,,,,,,,,,,,,,,,,
,,,,,,,,,,,,,,,,,199243,18,2022-01-29_12h15.32.350,lexical_decision_task_DD_L3,2021.2.3,Linux x86_64,60.09615385,,,,,,,,,,,1.1631,1,,,,,,,,,,,,,,z,1,1.1631,,,,,,,,0.299493716,0.004557937,0,0,0,,0,157,157,129,1,PRANS,C,old,z,./images/PRANS.png,,,,,,,,,,,,,,,,,,,,,,,
,,,,,,,,,,,,,,,,,199243,18,2022-01-29_12h15.32.350,lexical_decision_task_DD_L3,2021.2.3,Linux x86_64,60.09615385,,,,,,,,,,,0.9347,1,,,,,,,,,,,,,,z,1,0.9347,,,,,,,,0.299493716,0.004557937,0,0,0,,0,158,158,153,1,CLUPS,C,old,z,./images/CLUPS.png,,,,,,,,,,,,,,,,,,,,,,,
,,,,,,,,,,,,,,,,,199243,18,2022-01-29_12h15.32.350,lexical_decision_task_DD_L3,2021.2.3,Linux x86_64,60.09615385,,,,,,,,,,,0.5019,0,,,,,,,,,,,,,,m,0,0.5019,,,,,,,,0.299493716,0.004557937,0,0,0,,0,159,159,125,1,MOOKY,LB,old,z,./images/MOOKYLB.png,,,,,,,,,,,,,,,,,,,,,,,
,,,,,,,,,,,,,,,,,199243,18,2022-01-29_12h15.32.350,lexical_decision_task_DD_L3,2021.2.3,Linux x86_64,60.09615385,,,,,,,,,,,0.6731,1,,,,,,,,,,,,,,m,1,0.6731,,,,,,,,0.299493716,0.004557937,0,0,0,,0,160,160,51,1,ONION,LB,old,m,./images/ONIONLB.png,,,,,,,,,,,,,,,,,,,,,,,
,,,,,,,,,,,,,,,,,199243,18,2022-01-29_12h15.32.350,lexical_decision_task_DD_L3,2021.2.3,Linux x86_64,60.09615385,,,,,,,,,,,2.4362,1,,,,,,,,,,,,,,z,1,2.4362,,,,,,,,0.299493716,0.004557937,0,0,0,,0,161,161,115,1,MAWNS,HB,old,z,./images/MAWNSHB.png,,,,,,,,,,,,,,,,,,,,,,,
,,,,,,,,,,,,,,,,,199243,18,2022-01-29_12h15.32.350,lexical_decision_task_DD_L3,2021.2.3,Linux x86_64,60.09615385,,,,,,,,,,,1.0756,1,,,,,,,,,,,,,,m,1,1.0756,,,,,,,,0.299493716,0.004557937,0,0,0,,0,162,162,44,1,LIZARD,HB,old,m,./images/LIZARDHB.png,,,,,,,,,,,,,,,,,,,,,,,
,,,,,,,,,,,,,,,,,199243,18,2022-01-29_12h15.32.350,lexical_decision_task_DD_L3,2021.2.3,Linux x86_64,60.09615385,,,,,,,,,,,1.066,1,,,,,,,,,,,,,,z,1,1.066,,,,,,,,0.299493716,0.004557937,0,0,0,,0,163,163,123,1,SEDGE,C,old,z,./images/SEDGE.png,,,,,,,,,,,,,,,,,,,,,,,
,,,,,,,,,,,,,,,,,199243,18,2022-01-29_12h15.32.350,lexical_decision_task_DD_L3,2021.2.3,Linux x86_64,60.09615385,,,,,,,,,,,1.1023,1,,,,,,,,,,,,,,m,1,1.1023,,,,,,,,0.299493716,0.004557937,0,0,0,,0,164,164,19,1,DOUGH,C,old,m,./images/DOUGH.png,,,,,,,,,,,,,,,,,,,,,,,
,,,,,,,,,,,,,,,,,199243,18,2022-01-29_12h15.32.350,lexical_decision_task_DD_L3,2021.2.3,Linux x86_64,60.09615385,,,,,,,,,,,0.7148,0,,,,,,,,,,,,,,m,0,0.7148,,,,,,,,0.299493716,0.004557937,0,0,0,,0,165,165,166,1,SHORY,HB,old,z,./images/SHORYHB.png,,,,,,,,,,,,,,,,,,,,,,,
,,,,,,,,,,,,,,,,,199243,18,2022-01-29_12h15.32.350,lexical_decision_task_DD_L3,2021.2.3,Linux x86_64,60.09615385,,,,,,,,,,,3.5558,1,,,,,,,,,,,,,,z,1,3.5558,,,,,,,,0.299493716,0.004557937,0,0,0,,0,166,166,143,1,MONGS,LB,old,z,./images/MONGSLB.png,,,,,,,,,,,,,,,,,,,,,,,
,,,,,,,,,,,,,,,,,199243,18,2022-01-29_12h15.32.350,lexical_decision_task_DD_L3,2021.2.3,Linux x86_64,60.09615385,,,,,,,,,,,0.7658,1,,,,,,,,,,,,,,m,1,0.7658,,,,,,,,0.299493716,0.004557937,0,0,0,,0,167,167,4,1,MUSCLE,C,old,m,./images/MUSCLE.png,,,,,,,,,,,,,,,,,,,,,,,
space,60.149,0.299493716,0.004557937,0,0,0,,,,,,1,test,"In the next phase you will be presented with the words from the the first phase. Your job is to decide whether you remember seeing the word or not. If you remember seeing the word press ""old"" or type ""m"". If you do not remember seeing the word press ""new"" or type ""z"". Please press the space bar or click on continue to begin. ",,,199243,18,2022-01-29_12h15.32.350,lexical_decision_task_DD_L3,2021.2.3,Linux x86_64,60.09615385,,,,,,,,,,,,,,,,,,,,,,,,,,,,,,,,,,,,,,,,,,,,,,,,,,,,,0,0,0,0,1,,,,,,,,,,,,,,,,,
space,2.7859,0.299493716,0.004557937,0,0,0,,,,,,1,test,"In the next phase you will be presented with the words from the the first phase. Your job is to decide whether you remember seeing the word or not. If you remember seeing the word press ""old"" or type ""m"". If you do not remember seeing the word press ""new"" or type ""z"". Please press the space bar or click on continue to begin. ",,,199243,18,2022-01-29_12h15.32.350,lexical_decision_task_DD_L3,2021.2.3,Linux x86_64,60.09615385,,,,,,,,,,,,,,,,,,,,,,,,,,,,,,,,,,,,,,,,,,,,,,,,,,,,,1,0,1,0,1,,,,,,,,,,,,,,,,,
space,19.3897,0.527166688,-0.274717063,0,0,0,,,,,,1,test,"In the next phase you will be presented with the words from the the first phase. Your job is to decide whether you remember seeing the word or not. If you remember seeing the word press ""old"" or type ""m"". If you do not remember seeing the word press ""new"" or type ""z"". Please press the space bar or click on continue to begin. ",,,199243,18,2022-01-29_12h15.32.350,lexical_decision_task_DD_L3,2021.2.3,Linux x86_64,60.09615385,,,,,,,,,,,,,,,,,,,,,,,,,,,,,,,,,,,,,,,,,,,,,,,,,,,,,2,0,2,0,1,,,,,,,,,,,,,,,,,
space,104.6546,0.077004159,0.085840227,0,0,0,,,,,,1,test,"In the next phase you will be presented with the words from the the first phase. Your job is to decide whether you remember seeing the word or not. If you remember seeing the word press ""old"" or type ""m"". If you do not remember seeing the word press ""new"" or type ""z"". Please press the space bar or click on continue to begin. ",,,199243,18,2022-01-29_12h15.32.350,lexical_decision_task_DD_L3,2021.2.3,Linux x86_64,60.09615385,,,,,,,,,,,,,,,,,,,,,,,,,,,,,,,,,,,,,,,,,,,,,,,,,,,,,3,0,3,0,1,,,,,,,,,,,,,,,,,
,,-0.015383576,-0.393913899,1,0,0,,,,,,1,test,"In the next phase you will be presented with the words from the the first phase. Your job is to decide whether you remember seeing the word or not. If you remember seeing the word press ""old"" or type ""m"". If you do not remember seeing the word press ""new"" or type ""z"". Please press the space bar or click on continue to begin. ",,,199243,18,2022-01-29_12h15.32.350,lexical_decision_task_DD_L3,2021.2.3,Linux x86_64,60.09615385,,,,,,,,,,,,,,,,,,,,,,,,,,,,,,,,,,,,,,,,,,,,,,,,,,,,,4,0,4,0,1,instr_done_button,,,,,,,,,,,,,,,,
,,,,,,,,,,,,,,,,,199243,18,2022-01-29_12h15.32.350,lexical_decision_task_DD_L3,2021.2.3,Linux x86_64,60.09615385,,,,,,,,,,,7.4896,1,,,,,,,,,,,,,,,,,,,,,,,,0.273834041,0.034989847,0,0,0,,,,,,,CARPET,HB,m,m,./images/CARPETHB.png,,,,,,,,m,1,7.4896,,,,,,,,0,0,0,53,1,
,,,,,,,,,,,,,,,,,199243,18,2022-01-29_12h15.32.350,lexical_decision_task_DD_L3,2021.2.3,Linux x86_64,60.09615385,,,,,,,,,,,1.8198,1,,,,,,,,,,,,,,,,,,,,,,,,0.273834041,0.034989847,0,0,0,,,,,,,PILOT,HB,z,m,./images/PILOTHB.png,,,,,,,,z,1,1.8198,,,,,,,,0,1,1,134,1,
,,,,,,,,,,,,,,,,,199243,18,2022-01-29_12h15.32.350,lexical_decision_task_DD_L3,2021.2.3,Linux x86_64,60.09615385,,,,,,,,,,,0.9644,1,,,,,,,,,,,,,,,,,,,,,,,,0.273834041,0.034989847,0,0,0,,,,,,,POODLE,LB,m,m,./images/POODLELB.png,,,,,,,,m,1,0.9644,,,,,,,,0,2,2,81,1,
,,,,,,,,,,,,,,,,,199243,18,2022-01-29_12h15.32.350,lexical_decision_task_DD_L3,2021.2.3,Linux x86_64,60.09615385,,,,,,,,,,,3.3314,1,,,,,,,,,,,,,,,,,,,,,,,,0.273834041,0.034989847,0,0,0,,,,,,,JELLY,C,m,m,./images/JELLY.png,,,,,,,,m,1,3.3314,,,,,,,,0,3,3,64,1,
,,,,,,,,,,,,,,,,,199243,18,2022-01-29_12h15.32.350,lexical_decision_task_DD_L3,2021.2.3,Linux x86_64,60.09615385,,,,,,,,,,,1.4451,1,,,,,,,,,,,,,,,,,,,,,,,,0.273834041,0.034989847,0,0,0,,,,,,,POSTER,HB,z,m,./images/POSTERHB.png,,,,,,,,z,1,1.4451,,,,,,,,0,4,4,137,1,
,,,,,,,,,,,,,,,,,199243,18,2022-01-29_12h15.32.350,lexical_decision_task_DD_L3,2021.2.3,Linux x86_64,60.09615385,,,,,,,,,,,2.0961,0,,,,,,,,,,,,,,,,,,,,,,,,0.273834041,0.034989847,0,0,0,,,,,,,HAMMER,LB,z,m,./images/HAMMERLB.png,,,,,,,,m,0,2.0961,,,,,,,,0,5,5,159,1,
,,,,,,,,,,,,,,,,,199243,18,2022-01-29_12h15.32.350,lexical_decision_task_DD_L3,2021.2.3,Linux x86_64,60.09615385,,,,,,,,,,,0.8679,1,,,,,,,,,,,,,,,,,,,,,,,,0.273834041,0.034989847,0,0,0,,,,,,,CANDLE,C,m,m,./images/CANDLE.png,,,,,,,,m,1,0.8679,,,,,,,,0,6,6,61,1,
,,,,,,,,,,,,,,,,,199243,18,2022-01-29_12h15.32.350,lexical_decision_task_DD_L3,2021.2.3,Linux x86_64,60.09615385,,,,,,,,,,,0.6996,1,,,,,,,,,,,,,,,,,,,,,,,,0.273834041,0.034989847,0,0,0,,,,,,,SKIING,HB,m,m,./images/SKIINGHB.png,,,,,,,,m,1,0.6996,,,,,,,,0,7,7,17,1,
,,,,,,,,,,,,,,,,,199243,18,2022-01-29_12h15.32.350,lexical_decision_task_DD_L3,2021.2.3,Linux x86_64,60.09615385,,,,,,,,,,,1.3683,1,,,,,,,,,,,,,,,,,,,,,,,,0.273834041,0.034989847,0,0,0,,,,,,,TOMATO,LB,m,m,./images/TOMATOLB.png,,,,,,,,m,1,1.3683,,,,,,,,0,8,8,0,1,
,,,,,,,,,,,,,,,,,199243,18,2022-01-29_12h15.32.350,lexical_decision_task_DD_L3,2021.2.3,Linux x86_64,60.09615385,,,,,,,,,,,0.8436,1,,,,,,,,,,,,,,,,,,,,,,,,0.273834041,0.034989847,0,0,0,,,,,,,PARADE,HB,z,m,./images/PARADEHB.png,,,,,,,,z,1,0.8436,,,,,,,,0,9,9,101,1,
,,,,,,,,,,,,,,,,,199243,18,2022-01-29_12h15.32.350,lexical_decision_task_DD_L3,2021.2.3,Linux x86_64,60.09615385,,,,,,,,,,,2.87,1,,,,,,,,,,,,,,,,,,,,,,,,0.273834041,0.034989847,0,0,0,,,,,,,CLOUD,HB,z,m,./images/CLOUDHB.png,,,,,,,,z,1,2.87,,,,,,,,0,10,10,110,1,
,,,,,,,,,,,,,,,,,199243,18,2022-01-29_12h15.32.350,lexical_decision_task_DD_L3,2021.2.3,Linux x86_64,60.09615385,,,,,,,,,,,1.2837,1,,,,,,,,,,,,,,,,,,,,,,,,0.273834041,0.034989847,0,0,0,,,,,,,WHISKY,HB,z,m,./images/WHISKYHB.png,,,,,,,,z,1,1.2837,,,,,,,,0,11,11,167,1,
,,,,,,,,,,,,,,,,,199243,18,2022-01-29_12h15.32.350,lexical_decision_task_DD_L3,2021.2.3,Linux x86_64,60.09615385,,,,,,,,,,,0.754,1,,,,,,,,,,,,,,,,,,,,,,,,0.273834041,0.034989847,0,0,0,,,,,,,CANYON,C,m,m,./images/CANYON.png,,,,,,,,m,1,0.754,,,,,,,,0,12,12,34,1,
,,,,,,,,,,,,,,,,,199243,18,2022-01-29_12h15.32.350,lexical_decision_task_DD_L3,2021.2.3,Linux x86_64,60.09615385,,,,,,,,,,,0.7147,1,,,,,,,,,,,,,,,,,,,,,,,,0.273834041,0.034989847,0,0,0,,,,,,,JUNGLE,HB,m,m,./images/JUNGLEHB.png,,,,,,,,m,1,0.7147,,,,,,,,0,13,13,83,1,
,,,,,,,,,,,,,,,,,199243,18,2022-01-29_12h15.32.350,lexical_decision_task_DD_L3,2021.2.3,Linux x86_64,60.09615385,,,,,,,,,,,0.7358,1,,,,,,,,,,,,,,,,,,,,,,,,0.273834041,0.034989847,0,0,0,,,,,,,SAILOR,C,m,m,./images/SAILOR.png,,,,,,,,m,1,0.7358,,,,,,,,0,14,14,67,1,
,,,,,,,,,,,,,,,,,199243,18,2022-01-29_12h15.32.350,lexical_decision_task_DD_L3,2021.2.3,Linux x86_64,60.09615385,,,,,,,,,,,2.4982,0,,,,,,,,,,,,,,,,,,,,,,,,0.273834041,0.034989847,0,0,0,,,,,,,FLESH,LB,z,m,./images/FLESHLB.png,,,,,,,,m,0,2.4982,,,,,,,,0,15,15,108,1,
,,,,,,,,,,,,,,,,,199243,18,2022-01-29_12h15.32.350,lexical_decision_task_DD_L3,2021.2.3,Linux x86_64,60.09615385,,,,,,,,,,,1.2696,1,,,,,,,,,,,,,,,,,,,,,,,,0.273834041,0.034989847,0,0,0,,,,,,,CLOTH,HB,z,m,./images/CLOTHHB.png,,,,,,,,z,1,1.2696,,,,,,,,0,16,16,107,1,
,,,,,,,,,,,,,,,,,199243,18,2022-01-29_12h15.32.350,lexical_decision_task_DD_L3,2021.2.3,Linux x86_64,60.09615385,,,,,,,,,,,2.0457,1,,,,,,,,,,,,,,,,,,,,,,,,0.273834041,0.034989847,0,0,0,,,,,,,VALLEY,HB,z,m,./images/VALLEYHB.png,,,,,,,,z,1,2.0457,,,,,,,,0,17,17,152,1,
,,,,,,,,,,,,,,,,,199243,18,2022-01-29_12h15.32.350,lexical_decision_task_DD_L3,2021.2.3,Linux x86_64,60.09615385,,,,,,,,,,,1.0532,0,,,,,,,,,,,,,,,,,,,,,,,,0.273834041,0.034989847,0,0,0,,,,,,,STATUE,LB,z,m,./images/STATUELB.png,,,,,,,,m,0,1.0532,,,,,,,,0,18,18,150,1,
,,,,,,,,,,,,,,,,,199243,18,2022-01-29_12h15.32.350,lexical_decision_task_DD_L3,2021.2.3,Linux x86_64,60.09615385,,,,,,,,,,,1.3138,1,,,,,,,,,,,,,,,,,,,,,,,,0.273834041,0.034989847,0,0,0,,,,,,,SWEAT,LB,m,m,./images/SWEATLB.png,,,,,,,,m,1,1.3138,,,,,,,,0,19,19,66,1,
,,,,,,,,,,,,,,,,,199243,18,2022-01-29_12h15.32.350,lexical_decision_task_DD_L3,2021.2.3,Linux x86_64,60.09615385,,,,,,,,,,,2.6318,1,,,,,,,,,,,,,,,,,,,,,,,,0.273834041,0.034989847,0,0,0,,,,,,,PAINT,C,m,m,./images/PAINT.png,,,,,,,,m,1,2.6318,,,,,,,,0,20,20,7,1,
,,,,,,,,,,,,,,,,,199243,18,2022-01-29_12h15.32.350,lexical_decision_task_DD_L3,2021.2.3,Linux x86_64,60.09615385,,,,,,,,,,,2.7953,0,,,,,,,,,,,,,,,,,,,,,,,,0.273834041,0.034989847,0,0,0,,,,,,,STOVE,HB,z,m,./images/STOVEHB.png,,,,,,,,m,0,2.7953,,,,,,,,0,21,21,86,1,
,,,,,,,,,,,,,,,,,199243,18,2022-01-29_12h15.32.350,lexical_decision_task_DD_L3,2021.2.3,Linux x86_64,60.09615385,,,,,,,,,,,0.7902,1,,,,,,,,,,,,,,,,,,,,,,,,0.273834041,0.034989847,0,0,0,,,,,,,CLOWN,C,z,m,./images/CLOWN.png,,,,,,,,z,1,0.7902,,,,,,,,0,22,22,106,1,
,,,,,,,,,,,,,,,,,199243,18,2022-01-29_12h15.32.350,lexical_decision_task_DD_L3,2021.2.3,Linux x86_64,60.09615385,,,,,,,,,,,0.8442,1,,,,,,,,,,,,,,,,,,,,,,,,0.273834041,0.034989847,0,0,0,,,,,,,GRAIN,LB,m,m,./images/GRAINLB.png,,,,,,,,m,1,0.8442,,,,,,,,0,23,23,75,1,
,,,,,,,,,,,,,,,,,199243,18,2022-01-29_12h15.32.350,lexical_decision_task_DD_L3,2021.2.3,Linux x86_64,60.09615385,,,,,,,,,,,1.163,1,,,,,,,,,,,,,,,,,,,,,,,,0.273834041,0.034989847,0,0,0,,,,,,,SPINE,HB,z,m,./images/SPINEHB.png,,,,,,,,z,1,1.163,,,,,,,,0,24,24,149,1,
,,,,,,,,,,,,,,,,,199243,18,2022-01-29_12h15.32.350,lexical_decision_task_DD_L3,2021.2.3,Linux x86_64,60.09615385,,,,,,,,,,,1.4214,1,,,,,,,,,,,,,,,,,,,,,,,,0.273834041,0.034989847,0,0,0,,,,,,,SHORE,LB,m,m,./images/SHORELB.png,,,,,,,,m,1,1.4214,,,,,,,,0,25,25,12,1,
,,,,,,,,,,,,,,,,,199243,18,2022-01-29_12h15.32.350,lexical_decision_task_DD_L3,2021.2.3,Linux x86_64,60.09615385,,,,,,,,,,,0.8028,1,,,,,,,,,,,,,,,,,,,,,,,,0.273834041,0.034989847,0,0,0,,,,,,,MOTOR,C,m,m,./images/MOTOR.png,,,,,,,,m,1,0.8028,,,,,,,,0,26,26,13,1,
,,,,,,,,,,,,,,,,,199243,18,2022-01-29_12h15.32.350,lexical_decision_task_DD_L3,2021.2.3,Linux x86_64,60.09615385,,,,,,,,,,,1.013,1,,,,,,,,,,,,,,,,,,,,,,,,0.273834041,0.034989847,0,0,0,,,,,,,SLOPE,LB,z,m,./images/SLOPELB.png,,,,,,,,z,1,1.013,,,,,,,,0,27,27,114,1,
,,,,,,,,,,,,,,,,,199243,18,2022-01-29_12h15.32.350,lexical_decision_task_DD_L3,2021.2.3,Linux x86_64,60.09615385,,,,,,,,,,,0.9168,1,,,,,,,,,,,,,,,,,,,,,,,,0.273834041,0.034989847,0,0,0,,,,,,,STRING,HB,m,m,./images/STRINGHB.png,,,,,,,,m,1,0.9168,,,,,,,,0,28,28,41,1,
,,,,,,,,,,,,,,,,,199243,18,2022-01-29_12h15.32.350,lexical_decision_task_DD_L3,2021.2.3,Linux x86_64,60.09615385,,,,,,,,,,,3.5275,1,,,,,,,,,,,,,,,,,,,,,,,,0.273834041,0.034989847,0,0,0,,,,,,,BEARD,HB,m,m,./images/BEARDHB.png,,,,,,,,m,1,3.5275,,,,,,,,0,29,29,2,1,
,,,,,,,,,,,,,,,,,199243,18,2022-01-29_12h15.32.350,lexical_decision_task_DD_L3,2021.2.3,Linux x86_64,60.09615385,,,,,,,,,,,0.7768,1,,,,,,,,,,,,,,,,,,,,,,,,0.273834041,0.034989847,0,0,0,,,,,,,BLOKE,LB,z,m,./images/BLOKELB.png,,,,,,,,z,1,0.7768,,,,,,,,0,30,30,96,1,
,,,,,,,,,,,,,,,,,199243,18,2022-01-29_12h15.32.350,lexical_decision_task_DD_L3,2021.2.3,Linux x86_64,60.09615385,,,,,,,,,,,1.9831,1,,,,,,,,,,,,,,,,,,,,,,,,0.273834041,0.034989847,0,0,0,,,,,,,BISHOP,C,z,m,./images/BISHOP.png,,,,,,,,z,1,1.9831,,,,,,,,0,31,31,133,1,
,,,,,,,,,,,,,,,,,199243,18,2022-01-29_12h15.32.350,lexical_decision_task_DD_L3,2021.2.3,Linux x86_64,60.09615385,,,,,,,,,,,1.1845,0,,,,,,,,,,,,,,,,,,,,,,,,0.273834041,0.034989847,0,0,0,,,,,,,BERRY,HB,m,m,./images/BERRYHB.png,,,,,,,,z,0,1.1845,,,,,,,,0,32,32,47,1,
,,,,,,,,,,,,,,,,,199243,18,2022-01-29_12h15.32.350,lexical_decision_task_DD_L3,2021.2.3,Linux x86_64,60.09615385,,,,,,,,,,,1.1115,1,,,,,,,,,,,,,,,,,,,,,,,,0.273834041,0.034989847,0,0,0,,,,,,,BOILER,LB,z,m,./images/BOILERLB.png,,,,,,,,z,1,1.1115,,,,,,,,0,33,33,120,1,
,,,,,,,,,,,,,,,,,199243,18,2022-01-29_12h15.32.350,lexical_decision_task_DD_L3,2021.2.3,Linux x86_64,60.09615385,,,,,,,,,,,0.7872,1,,,,,,,,,,,,,,,,,,,,,,,,0.273834041,0.034989847,0,0,0,,,,,,,QUILL,C,m,m,./images/QUILL.png,,,,,,,,m,1,0.7872,,,,,,,,0,34,34,31,1,
,,,,,,,,,,,,,,,,,199243,18,2022-01-29_12h15.32.350,lexical_decision_task_DD_L3,2021.2.3,Linux x86_64,60.09615385,,,,,,,,,,,2.4177,0,,,,,,,,,,,,,,,,,,,,,,,,0.273834041,0.034989847,0,0,0,,,,,,,PENCE,C,m,m,./images/PENCE.png,,,,,,,,z,0,2.4177,,,,,,,,0,35,35,16,1,
,,,,,,,,,,,,,,,,,199243,18,2022-01-29_12h15.32.350,lexical_decision_task_DD_L3,2021.2.3,Linux x86_64,60.09615385,,,,,,,,,,,0.7296,1,,,,,,,,,,,,,,,,,,,,,,,,0.273834041,0.034989847,0,0,0,,,,,,,FALCON,C,m,m,./images/FALCON.png,,,,,,,,m,1,0.7296,,,,,,,,0,36,36,28,1,
,,,,,,,,,,,,,,,,,199243,18,2022-01-29_12h15.32.350,lexical_decision_task_DD_L3,2021.2.3,Linux x86_64,60.09615385,,,,,,,,,,,1.3403,1,,,,,,,,,,,,,,,,,,,,,,,,0.273834041,0.034989847,0,0,0,,,,,,,MUMMY,C,z,m,./images/MUMMY.png,,,,,,,,z,1,1.3403,,,,,,,,0,37,37,130,1,
,,,,,,,,,,,,,,,,,199243,18,2022-01-29_12h15.32.350,lexical_decision_task_DD_L3,2021.2.3,Linux x86_64,60.09615385,,,,,,,,,,,1.0636,1,,,,,,,,,,,,,,,,,,,,,,,,0.273834041,0.034989847,0,0,0,,,,,,,LLAMA,HB,z,m,./images/LLAMAHB.png,,,,,,,,z,1,1.0636,,,,,,,,0,38,38,119,1,
,,,,,,,,,,,,,,,,,199243,18,2022-01-29_12h15.32.350,lexical_decision_task_DD_L3,2021.2.3,Linux x86_64,60.09615385,,,,,,,,,,,1.0996,1,,,,,,,,,,,,,,,,,,,,,,,,0.273834041,0.034989847,0,0,0,,,,,,,GRANNY,HB,z,m,./images/GRANNYHB.png,,,,,,,,z,1,1.0996,,,,,,,,0,39,39,104,1,
,,,,,,,,,,,,,,,,,199243,18,2022-01-29_12h15.32.350,lexical_decision_task_DD_L3,2021.2.3,Linux x86_64,60.09615385,,,,,,,,,,,1.7513,1,,,,,,,,,,,,,,,,,,,,,,,,0.273834041,0.034989847,0,0,0,,,,,,,RHINO,LB,m,m,./images/RHINOLB.png,,,,,,,,m,1,1.7513,,,,,,,,0,40,40,9,1,
,,,,,,,,,,,,,,,,,199243,18,2022-01-29_12h15.32.350,lexical_decision_task_DD_L3,2021.2.3,Linux x86_64,60.09615385,,,,,,,,,,,2.562,1,,,,,,,,,,,,,,,,,,,,,,,,-0.011352584,-0.424176311,1,0,0,,,,,,,SAUCE,LB,z,m,./images/SAUCELB.png,,,,,,,,z,1,2.562,,,,,,,,0,41,41,135,1,break_done_button
,,,,,,,,,,,,,,,,,199243,18,2022-01-29_12h15.32.350,lexical_decision_task_DD_L3,2021.2.3,Linux x86_64,60.09615385,,,,,,,,,,,1.9554,1,,,,,,,,,,,,,,,,,,,,,,,,-0.051917023,-0.393755851,0,0,0,,,,,,,MALLET,HB,m,m,./images/MALLETHB.png,,,,,,,,m,1,1.9554,,,,,,,,0,42,42,50,1,
,,,,,,,,,,,,,,,,,199243,18,2022-01-29_12h15.32.350,lexical_decision_task_DD_L3,2021.2.3,Linux x86_64,60.09615385,,,,,,,,,,,0.7685,1,,,,,,,,,,,,,,,,,,,,,,,,-0.051917023,-0.393755851,0,0,0,,,,,,,BABOON,C,m,m,./images/BABOON.png,,,,,,,,m,1,0.7685,,,,,,,,0,43,43,58,1,
,,,,,,,,,,,,,,,,,199243,18,2022-01-29_12h15.32.350,lexical_decision_task_DD_L3,2021.2.3,Linux x86_64,60.09615385,,,,,,,,,,,1.2631,1,,,,,,,,,,,,,,,,,,,,,,,,-0.051917023,-0.393755851,0,0,0,,,,,,,SMOKER,HB,m,m,./images/SMOKERHB.png,,,,,,,,m,1,1.2631,,,,,,,,0,44,44,26,1,
,,,,,,,,,,,,,,,,,199243,18,2022-01-29_12h15.32.350,lexical_decision_task_DD_L3,2021.2.3,Linux x86_64,60.09615385,,,,,,,,,,,1.0026,0,,,,,,,,,,,,,,,,,,,,,,,,-0.051917023,-0.393755851,0,0,0,,,,,,,TORCH,HB,m,m,./images/TORCHHB.png,,,,,,,,z,0,1.0026,,,,,,,,0,45,45,68,1,
,,,,,,,,,,,,,,,,,199243,18,2022-01-29_12h15.32.350,lexical_decision_task_DD_L3,2021.2.3,Linux x86_64,60.09615385,,,,,,,,,,,0.7493,1,,,,,,,,,,,,,,,,,,,,,,,,-0.051917023,-0.393755851,0,0,0,,,,,,,TULIP,HB,m,m,./images/TULIPHB.png,,,,,,,,m,1,0.7493,,,,,,,,0,46,46,8,1,
,,,,,,,,,,,,,,,,,199243,18,2022-01-29_12h15.32.350,lexical_decision_task_DD_L3,2021.2.3,Linux x86_64,60.09615385,,,,,,,,,,,0.8633,1,,,,,,,,,,,,,,,,,,,,,,,,-0.051917023,-0.393755851,0,0,0,,,,,,,WHEEL,HB,z,m,./images/WHEELHB.png,,,,,,,,z,1,0.8633,,,,,,,,0,47,47,161,1,
,,,,,,,,,,,,,,,,,199243,18,2022-01-29_12h15.32.350,lexical_decision_task_DD_L3,2021.2.3,Linux x86_64,60.09615385,,,,,,,,,,,0.8524,1,,,,,,,,,,,,,,,,,,,,,,,,-0.051917023,-0.393755851,0,0,0,,,,,,,PICKLE,HB,m,m,./images/PICKLEHB.png,,,,,,,,m,1,0.8524,,,,,,,,0,48,48,14,1,
,,,,,,,,,,,,,,,,,199243,18,2022-01-29_12h15.32.350,lexical_decision_task_DD_L3,2021.2.3,Linux x86_64,60.09615385,,,,,,,,,,,1.2136,1,,,,,,,,,,,,,,,,,,,,,,,,-0.051917023,-0.393755851,0,0,0,,,,,,,DOUGH,C,m,m,./images/DOUGH.png,,,,,,,,m,1,1.2136,,,,,,,,0,49,49,19,1,
,,,,,,,,,,,,,,,,,199243,18,2022-01-29_12h15.32.350,lexical_decision_task_DD_L3,2021.2.3,Linux x86_64,60.09615385,,,,,,,,,,,2.5449,1,,,,,,,,,,,,,,,,,,,,,,,,-0.051917023,-0.393755851,0,0,0,,,,,,,GRAPE,C,z,m,./images/GRAPE.png,,,,,,,,z,1,2.5449,,,,,,,,0,50,50,100,1,
,,,,,,,,,,,,,,,,,199243,18,2022-01-29_12h15.32.350,lexical_decision_task_DD_L3,2021.2.3,Linux x86_64,60.09615385,,,,,,,,,,,1.0629,1,,,,,,,,,,,,,,,,,,,,,,,,-0.051917023,-0.393755851,0,0,0,,,,,,,CLIFF,HB,z,m,./images/CLIFFHB.png,,,,,,,,z,1,1.0629,,,,,,,,0,51,51,92,1,
,,,,,,,,,,,,,,,,,199243,18,2022-01-29_12h15.32.350,lexical_decision_task_DD_L3,2021.2.3,Linux x86_64,60.09615385,,,,,,,,,,,0.8466,0,,,,,,,,,,,,,,,,,,,,,,,,-0.051917023,-0.393755851,0,0,0,,,,,,,POKER,C,z,m,./images/POKER.png,,,,,,,,m,0,0.8466,,,,,,,,0,52,52,151,1,
,,,,,,,,,,,,,,,,,199243,18,2022-01-29_12h15.32.350,lexical_decision_task_DD_L3,2021.2.3,Linux x86_64,60.09615385,,,,,,,,,,,0.915,1,,,,,,,,,,,,,,,,,,,,,,,,-0.051917023,-0.393755851,0,0,0,,,,,,,PEACH,HB,m,m,./images/PEACHHB.png,,,,,,,,m,1,0.915,,,,,,,,0,53,53,35,1,
,,,,,,,,,,,,,,,,,199243,18,2022-01-29_12h15.32.350,lexical_decision_task_DD_L3,2021.2.3,Linux x86_64,60.09615385,,,,,,,,,,,0.7713,1,,,,,,,,,,,,,,,,,,,,,,,,-0.051917023,-0.393755851,0,0,0,,,,,,,SQUARE,LB,m,m,./images/SQUARELB.png,,,,,,,,m,1,0.7713,,,,,,,,0,54,54,6,1,
,,,,,,,,,,,,,,,,,199243,18,2022-01-29_12h15.32.350,lexical_decision_task_DD_L3,2021.2.3,Linux x86_64,60.09615385,,,,,,,,,,,2.1806,1,,,,,,,,,,,,,,,,,,,,,,,,-0.051917023,-0.393755851,0,0,0,,,,,,,WALRUS,HB,m,m,./images/WALRUSHB.png,,,,,,,,m,1,2.1806,,,,,,,,0,55,55,23,1,
,,,,,,,,,,,,,,,,,199243,18,2022-01-29_12h15.32.350,lexical_decision_task_DD_L3,2021.2.3,Linux x86_64,60.09615385,,,,,,,,,,,1.3155,1,,,,,,,,,,,,,,,,,,,,,,,,-0.051917023,-0.393755851,0,0,0,,,,,,,COUCH,HB,m,m,./images/COUCHHB.png,,,,,,,,m,1,1.3155,,,,,,,,0,56,56,77,1,
,,,,,,,,,,,,,,,,,199243,18,2022-01-29_12h15.32.350,lexical_decision_task_DD_L3,2021.2.3,Linux x86_64,60.09615385,,,,,,,,,,,0.9988,0,,,,,,,,,,,,,,,,,,,,,,,,-0.051917023,-0.393755851,0,0,0,,,,,,,CANDY,LB,z,m,./images/CANDYLB.png,,,,,,,,m,0,0.9988,,,,,,,,0,57,57,123,1,
,,,,,,,,,,,,,,,,,199243,18,2022-01-29_12h15.32.350,lexical_decision_task_DD_L3,2021.2.3,Linux x86_64,60.09615385,,,,,,,,,,,0.834,1,,,,,,,,,,,,,,,,,,,,,,,,-0.051917023,-0.393755851,0,0,0,,,,,,,WRIST,C,m,m,./images/WRIST.png,,,,,,,,m,1,0.834,,,,,,,,0,58,58,25,1,
,,,,,,,,,,,,,,,,,199243,18,2022-01-29_12h15.32.350,lexical_decision_task_DD_L3,2021.2.3,Linux x86_64,60.09615385,,,,,,,,,,,1.1657,0,,,,,,,,,,,,,,,,,,,,,,,,-0.051917023,-0.393755851,0,0,0,,,,,,,SHELF,LB,m,m,./images/SHELFLB.png,,,,,,,,z,0,1.1657,,,,,,,,0,59,59,39,1,
,,,,,,,,,,,,,,,,,199243,18,2022-01-29_12h15.32.350,lexical_decision_task_DD_L3,2021.2.3,Linux x86_64,60.09615385,,,,,,,,,,,0.8867,1,,,,,,,,,,,,,,,,,,,,,,,,-0.051917023,-0.393755851,0,0,0,,,,,,,SUNSET,C,m,m,./images/SUNSET.png,,,,,,,,m,1,0.8867,,,,,,,,0,60,60,82,1,
,,,,,,,,,,,,,,,,,199243,18,2022-01-29_12h15.32.350,lexical_decision_task_DD_L3,2021.2.3,Linux x86_64,60.09615385,,,,,,,,,,,2.8168,0,,,,,,,,,,,,,,,,,,,,,,,,-0.051917023,-0.393755851,0,0,0,,,,,,,SPORT,LB,m,m,./images/SPORTLB.png,,,,,,,,z,0,2.8168,,,,,,,,0,61,61,48,1,
,,,,,,,,,,,,,,,,,199243,18,2022-01-29_12h15.32.350,lexical_decision_task_DD_L3,2021.2.3,Linux x86_64,60.09615385,,,,,,,,,,,0.9459,0,,,,,,,,,,,,,,,,,,,,,,,,-0.051917023,-0.393755851,0,0,0,,,,,,,BUTTER,LB,z,m,./images/BUTTERLB.png,,,,,,,,m,0,0.9459,,,,,,,,0,62,62,111,1,
,,,,,,,,,,,,,,,,,199243,18,2022-01-29_12h15.32.350,lexical_decision_task_DD_L3,2021.2.3,Linux x86_64,60.09615385,,,,,,,,,,,3.2506,1,,,,,,,,,,,,,,,,,,,,,,,,-0.051917023,-0.393755851,0,0,0,,,,,,,BRUSH,HB,z,m,./images/BRUSHHB.png,,,,,,,,z,1,3.2506,,,,,,,,0,63,63,143,1,
,,,,,,,,,,,,,,,,,199243,18,2022-01-29_12h15.32.350,lexical_decision_task_DD_L3,2021.2.3,Linux x86_64,60.09615385,,,,,,,,,,,1.0626,0,,,,,,,,,,,,,,,,,,,,,,,,-0.051917023,-0.393755851,0,0,0,,,,,,,NOOSE,LB,m,m,./images/NOOSELB.png,,,,,,,,z,0,1.0626,,,,,,,,0,64,64,72,1,
,,,,,,,,,,,,,,,,,199243,18,2022-01-29_12h15.32.350,lexical_decision_task_DD_L3,2021.2.3,Linux x86_64,60.09615385,,,,,,,,,,,1.1125,0,,,,,,,,,,,,,,,,,,,,,,,,-0.051917023,-0.393755851,0,0,0,,,,,,,PEARL,C,m,m,./images/PEARL.png,,,,,,,,z,0,1.1125,,,,,,,,0,65,65,46,1,
,,,,,,,,,,,,,,,,,199243,18,2022-01-29_12h15.32.350,lexical_decision_task_DD_L3,2021.2.3,Linux x86_64,60.09615385,,,,,,,,,,,0.6984,1,,,,,,,,,,,,,,,,,,,,,,,,-0.051917023,-0.393755851,0,0,0,,,,,,,PIMPLE,HB,m,m,./images/PIMPLEHB.png,,,,,,,,m,1,0.6984,,,,,,,,0,66,66,71,1,
,,,,,,,,,,,,,,,,,199243,18,2022-01-29_12h15.32.350,lexical_decision_task_DD_L3,2021.2.3,Linux x86_64,60.09615385,,,,,,,,,,,2.1214,0,,,,,,,,,,,,,,,,,,,,,,,,-0.051917023,-0.393755851,0,0,0,,,,,,,FENCE,HB,z,m,./images/FENCEHB.png,,,,,,,,m,0,2.1214,,,,,,,,0,67,67,98,1,
,,,,,,,,,,,,,,,,,199243,18,2022-01-29_12h15.32.350,lexical_decision_task_DD_L3,2021.2.3,Linux x86_64,60.09615385,,,,,,,,,,,0.9993,0,,,,,,,,,,,,,,,,,,,,,,,,-0.051917023,-0.393755851,0,0,0,,,,,,,INFANT,C,m,m,./images/INFANT.png,,,,,,,,z,0,0.9993,,,,,,,,0,68,68,76,1,
,,,,,,,,,,,,,,,,,199243,18,2022-01-29_12h15.32.350,lexical_decision_task_DD_L3,2021.2.3,Linux x86_64,60.09615385,,,,,,,,,,,1.3147,1,,,,,,,,,,,,,,,,,,,,,,,,-0.051917023,-0.393755851,0,0,0,,,,,,,JUMPER,HB,z,m,./images/JUMPERHB.png,,,,,,,,z,1,1.3147,,,,,,,,0,69,69,158,1,
,,,,,,,,,,,,,,,,,199243,18,2022-01-29_12h15.32.350,lexical_decision_task_DD_L3,2021.2.3,Linux x86_64,60.09615385,,,,,,,,,,,0.9839,1,,,,,,,,,,,,,,,,,,,,,,,,-0.051917023,-0.393755851,0,0,0,,,,,,,GREASE,LB,m,m,./images/GREASELB.png,,,,,,,,m,1,0.9839,,,,,,,,0,70,70,15,1,
,,,,,,,,,,,,,,,,,199243,18,2022-01-29_12h15.32.350,lexical_decision_task_DD_L3,2021.2.3,Linux x86_64,60.09615385,,,,,,,,,,,0.7476,1,,,,,,,,,,,,,,,,,,,,,,,,-0.051917023,-0.393755851,0,0,0,,,,,,,MIRROR,LB,m,m,./images/MIRRORLB.png,,,,,,,,m,1,0.7476,,,,,,,,0,71,71,63,1,
,,,,,,,,,,,,,,,,,199243,18,2022-01-29_12h15.32.350,lexical_decision_task_DD_L3,2021.2.3,Linux x86_64,60.09615385,,,,,,,,,,,0.8313,1,,,,,,,,,,,,,,,,,,,,,,,,-0.051917023,-0.393755851,0,0,0,,,,,,,KIDNEY,LB,m,m,./images/KIDNEYLB.png,,,,,,,,m,1,0.8313,,,,,,,,0,72,72,21,1,
,,,,,,,,,,,,,,,,,199243,18,2022-01-29_12h15.32.350,lexical_decision_task_DD_L3,2021.2.3,Linux x86_64,60.09615385,,,,,,,,,,,0.9891,1,,,,,,,,,,,,,,,,,,,,,,,,-0.051917023,-0.393755851,0,0,0,,,,,,,DANCER,LB,z,m,./images/DANCERLB.png,,,,,,,,z,1,0.9891,,,,,,,,0,73,73,105,1,
,,,,,,,,,,,,,,,,,199243,18,2022-01-29_12h15.32.350,lexical_decision_task_DD_L3,2021.2.3,Linux x86_64,60.09615385,,,,,,,,,,,4,0,,,,,,,,,,,,,,,,,,,,,,,,-0.051917023,-0.393755851,0,0,0,,,,,,,TIGER,C,z,m,./images/TIGER.png,,,,,,,,m,0,4,,,,,,,,0,74,74,121,1,
,,,,,,,,,,,,,,,,,199243,18,2022-01-29_12h15.32.350,lexical_decision_task_DD_L3,2021.2.3,Linux x86_64,60.09615385,,,,,,,,,,,1.1287,1,,,,,,,,,,,,,,,,,,,,,,,,-0.051917023,-0.393755851,0,0,0,,,,,,,THROAT,LB,m,m,./images/THROATLB.png,,,,,,,,m,1,1.1287,,,,,,,,0,75,75,36,1,
,,,,,,,,,,,,,,,,,199243,18,2022-01-29_12h15.32.350,lexical_decision_task_DD_L3,2021.2.3,Linux x86_64,60.09615385,,,,,,,,,,,7.759,0,,,,,,,,,,,,,,,,,,,,,,,,-0.051917023,-0.393755851,0,0,0,,,,,,,STAIN,LB,z,m,./images/STAINLB.png,,,,,,,,m,0,7.759,,,,,,,,0,76,76,90,1,
,,,,,,,,,,,,,,,,,199243,18,2022-01-29_12h15.32.350,lexical_decision_task_DD_L3,2021.2.3,Linux x86_64,60.09615385,,,,,,,,,,,0.8156,0,,,,,,,,,,,,,,,,,,,,,,,,-0.051917023,-0.393755851,0,0,0,,,,,,,CHERRY,LB,z,m,./images/CHERRYLB.png,,,,,,,,m,0,0.8156,,,,,,,,0,77,77,138,1,
,,,,,,,,,,,,,,,,,199243,18,2022-01-29_12h15.32.350,lexical_decision_task_DD_L3,2021.2.3,Linux x86_64,60.09615385,,,,,,,,,,,1.0023,0,,,,,,,,,,,,,,,,,,,,,,,,-0.051917023,-0.393755851,0,0,0,,,,,,,RAZOR,C,z,m,./images/RAZOR.png,,,,,,,,m,0,1.0023,,,,,,,,0,78,78,118,1,
,,,,,,,,,,,,,,,,,199243,18,2022-01-29_12h15.32.350,lexical_decision_task_DD_L3,2021.2.3,Linux x86_64,60.09615385,,,,,,,,,,,1.2386,0,,,,,,,,,,,,,,,,,,,,,,,,-0.051917023,-0.393755851,0,0,0,,,,,,,STEAK,C,z,m,./images/STEAK.png,,,,,,,,m,0,1.2386,,,,,,,,0,79,79,115,1,
,,,,,,,,,,,,,,,,,199243,18,2022-01-29_12h15.32.350,lexical_decision_task_DD_L3,2021.2.3,Linux x86_64,60.09615385,,,,,,,,,,,0.9298,1,,,,,,,,,,,,,,,,,,,,,,,,-0.051917023,-0.393755851,0,0,0,,,,,,,FOLDER,LB,m,m,./images/FOLDERLB.png,,,,,,,,m,1,0.9298,,,,,,,,0,80,80,42,1,
,,,,,,,,,,,,,,,,,199243,18,2022-01-29_12h15.32.350,lexical_decision_task_DD_L3,2021.2.3,Linux x86_64,60.09615385,,,,,,,,,,,1.6116,1,,,,,,,,,,,,,,,,,,,,,,,,-0.051917023,-0.393755851,0,0,0,,,,,,,MEDAL,HB,z,m,./images/MEDALHB.png,,,,,,,,z,1,1.6116,,,,,,,,0,81,81,95,1,
,,,,,,,,,,,,,,,,,199243,18,2022-01-29_12h15.32.350,lexical_decision_task_DD_L3,2021.2.3,Linux x86_64,60.09615385,,,,,,,,,,,0.8654,1,,,,,,,,,,,,,,,,,,,,,,,,-0.051917023,-0.393755851,0,0,0,,,,,,,FARMER,HB,m,m,./images/FARMERHB.png,,,,,,,,m,1,0.8654,,,,,,,,0,82,82,65,1,
,,,,,,,,,,,,,,,,,199243,18,2022-01-29_12h15.32.350,lexical_decision_task_DD_L3,2021.2.3,Linux x86_64,60.09615385,,,,,,,,,,,1.4972,1,,,,,,,,,,,,,,,,,,,,,,,,-0.051917023,-0.393755851,0,0,0,space,,,,,,WEASEL,HB,m,m,./images/WEASELHB.png,1.4087,,,,,,,m,1,1.4972,,,,,,,,0,83,83,80,1,
,,,,,,,,,,,,,,,,,199243,18,2022-01-29_12h15.32.350,lexical_decision_task_DD_L3,2021.2.3,Linux x86_64,60.09615385,,,,,,,,,,,1.2001,1,,,,,,,,,,,,,,,,,,,,,,,,-0.051917023,-0.393755851,0,0,0,,,,,,,SHIELD,LB,z,m,./images/SHIELDLB.png,,,,,,,,z,1,1.2001,,,,,,,,0,84,84,132,1,
,,,,,,,,,,,,,,,,,199243,18,2022-01-29_12h15.32.350,lexical_decision_task_DD_L3,2021.2.3,Linux x86_64,60.09615385,,,,,,,,,,,0.9674,1,,,,,,,,,,,,,,,,,,,,,,,,-0.051917023,-0.393755851,0,0,0,,,,,,,CRADLE,HB,m,m,./images/CRADLEHB.png,,,,,,,,m,1,0.9674,,,,,,,,0,85,85,20,1,
,,,,,,,,,,,,,,,,,199243,18,2022-01-29_12h15.32.350,lexical_decision_task_DD_L3,2021.2.3,Linux x86_64,60.09615385,,,,,,,,,,,0.8475,1,,,,,,,,,,,,,,,,,,,,,,,,-0.051917023,-0.393755851,0,0,0,,,,,,,ARTIST,C,z,m,./images/ARTIST.png,,,,,,,,z,1,0.8475,,,,,,,,0,86,86,145,1,
,,,,,,,,,,,,,,,,,199243,18,2022-01-29_12h15.32.350,lexical_decision_task_DD_L3,2021.2.3,Linux x86_64,60.09615385,,,,,,,,,,,1.0651,1,,,,,,,,,,,,,,,,,,,,,,,,-0.051917023,-0.393755851,0,0,0,,,,,,,CANOE,C,z,m,./images/CANOE.png,,,,,,,,z,1,1.0651,,,,,,,,0,87,87,142,1,
,,,,,,,,,,,,,,,,,199243,18,2022-01-29_12h15.32.350,lexical_decision_task_DD_L3,2021.2.3,Linux x86_64,60.09615385,,,,,,,,,,,1.5556,0,,,,,,,,,,,,,,,,,,,,,,,,-0.051917023,-0.393755851,0,0,0,,,,,,,STREAM,HB,z,m,./images/STREAMHB.png,,,,,,,,m,0,1.5556,,,,,,,,0,88,88,125,1,
,,,,,,,,,,,,,,,,,199243,18,2022-01-29_12h15.32.350,lexical_decision_task_DD_L3,2021.2.3,Linux x86_64,60.09615385,,,,,,,,,,,1.1137,0,,,,,,,,,,,,,,,,,,,,,,,,-0.051917023,-0.393755851,0,0,0,,,,,,,COOKER,LB,m,m,./images/COOKERLB.png,,,,,,,,z,0,1.1137,,,,,,,,0,89,89,69,1,
,,,,,,,,,,,,,,,,,199243,18,2022-01-29_12h15.32.350,lexical_decision_task_DD_L3,2021.2.3,Linux x86_64,60.09615385,,,,,,,,,,,1.1207,0,,,,,,,,,,,,,,,,,,,,,,,,-0.051917023,-0.393755851,0,0,0,,,,,,,DESERT,C,z,m,./images/DESERT.png,,,,,,,,m,0,1.1207,,,,,,,,0,90,90,136,1,
,,,,,,,,,,,,,,,,,199243,18,2022-01-29_12h15.32.350,lexical_decision_task_DD_L3,2021.2.3,Linux x86_64,60.09615385,,,,,,,,,,,1.9216,1,,,,,,,,,,,,,,,,,,,,,,,,-0.051917023,-0.393755851,0,0,0,,,,,,,ALLEY,C,z,m,./images/ALLEY.png,,,,,,,,z,1,1.9216,,,,,,,,0,91,91,139,1,
,,,,,,,,,,,,,,,,,199243,18,2022-01-29_12h15.32.350,lexical_decision_task_DD_L3,2021.2.3,Linux x86_64,60.09615385,,,,,,,,,,,1.4938,1,,,,,,,,,,,,,,,,,,,,,,,,-0.051917023,-0.393755851,0,0,0,,,,,,,MUFFIN,C,m,m,./images/MUFFIN.png,,,,,,,,m,1,1.4938,,,,,,,,0,92,92,55,1,
,,,,,,,,,,,,,,,,,199243,18,2022-01-29_12h15.32.350,lexical_decision_task_DD_L3,2021.2.3,Linux x86_64,60.09615385,,,,,,,,,,,1.4139,1,,,,,,,,,,,,,,,,,,,,,,,,-0.051917023,-0.393755851,0,0,0,,,,,,,BASKET,HB,z,m,./images/BASKETHB.png,,,,,,,,z,1,1.4139,,,,,,,,0,93,93,128,1,
,,,,,,,,,,,,,,,,,199243,18,2022-01-29_12h15.32.350,lexical_decision_task_DD_L3,2021.2.3,Linux x86_64,60.09615385,,,,,,,,,,,1.258,1,,,,,,,,,,,,,,,,,,,,,,,,-0.051917023,-0.393755851,0,0,0,,,,,,,FLASK,LB,z,m,./images/FLASKLB.png,,,,,,,,z,1,1.258,,,,,,,,0,94,94,156,1,
,,,,,,,,,,,,,,,,,199243,18,2022-01-29_12h15.32.350,lexical_decision_task_DD_L3,2021.2.3,Linux x86_64,60.09615385,,,,,,,,,,,0.8683,1,,,,,,,,,,,,,,,,,,,,,,,,-0.051917023,-0.393755851,0,0,0,,,,,,,BURIAL,HB,m,m,./images/BURIALHB.png,,,,,,,,m,1,0.8683,,,,,,,,0,95,95,59,1,
,,,,,,,,,,,,,,,,,199243,18,2022-01-29_12h15.32.350,lexical_decision_task_DD_L3,2021.2.3,Linux x86_64,60.09615385,,,,,,,,,,,0.795,1,,,,,,,,,,,,,,,,,,,,,,,,-0.051917023,-0.393755851,0,0,0,,,,,,,FINGER,LB,m,m,./images/FINGERLB.png,,,,,,,,m,1,0.795,,,,,,,,0,96,96,3,1,
,,,,,,,,,,,,,,,,,199243,18,2022-01-29_12h15.32.350,lexical_decision_task_DD_L3,2021.2.3,Linux x86_64,60.09615385,,,,,,,,,,,1.5516,1,,,,,,,,,,,,,,,,,,,,,,,,-0.051917023,-0.393755851,0,0,0,,,,,,,PISTOL,HB,z,m,./images/PISTOLHB.png,,,,,,,,z,1,1.5516,,,,,,,,0,97,97,113,1,
,,,,,,,,,,,,,,,,,199243,18,2022-01-29_12h15.32.350,lexical_decision_task_DD_L3,2021.2.3,Linux x86_64,60.09615385,,,,,,,,,,,2.2687,1,,,,,,,,,,,,,,,,,,,,,,,,-0.051917023,-0.393755851,0,0,0,,,,,,,BRIDE,C,z,m,./images/BRIDE.png,,,,,,,,z,1,2.2687,,,,,,,,0,98,98,148,1,
,,,,,,,,,,,,,,,,,199243,18,2022-01-29_12h15.32.350,lexical_decision_task_DD_L3,2021.2.3,Linux x86_64,60.09615385,,,,,,,,,,,1.3504,1,,,,,,,,,,,,,,,,,,,,,,,,-0.051917023,-0.393755851,0,0,0,,,,,,,PASTA,HB,m,m,./images/PASTAHB.png,,,,,,,,m,1,1.3504,,,,,,,,0,99,99,5,1,
,,,,,,,,,,,,,,,,,199243,18,2022-01-29_12h15.32.350,lexical_decision_task_DD_L3,2021.2.3,Linux x86_64,60.09615385,,,,,,,,,,,3.0772,1,,,,,,,,,,,,,,,,,,,,,,,,-0.051917023,-0.393755851,0,0,0,,,,,,,BUBBLE,HB,z,m,./images/BUBBLEHB.png,,,,,,,,z,1,3.0772,,,,,,,,0,100,100,155,1,
,,,,,,,,,,,,,,,,,199243,18,2022-01-29_12h15.32.350,lexical_decision_task_DD_L3,2021.2.3,Linux x86_64,60.09615385,,,,,,,,,,,1.6425,1,,,,,,,,,,,,,,,,,,,,,,,,-0.051917023,-0.393755851,0,0,0,,,,,,,MAMMAL,HB,z,m,./images/MAMMALHB.png,,,,,,,,z,1,1.6425,,,,,,,,0,101,101,146,1,
,,,,,,,,,,,,,,,,,199243,18,2022-01-29_12h15.32.350,lexical_decision_task_DD_L3,2021.2.3,Linux x86_64,60.09615385,,,,,,,,,,,1.1152,1,,,,,,,,,,,,,,,,,,,,,,,,-0.051917023,-0.393755851,0,0,0,,,,,,,BROOM,LB,z,m,./images/BROOMLB.png,,,,,,,,z,1,1.1152,,,,,,,,0,102,102,162,1,
,,,,,,,,,,,,,,,,,199243,18,2022-01-29_12h15.32.350,lexical_decision_task_DD_L3,2021.2.3,Linux x86_64,60.09615385,,,,,,,,,,,0.7812,1,,,,,,,,,,,,,,,,,,,,,,,,-0.051917023,-0.393755851,0,0,0,,,,,,,GLOVE,C,z,m,./images/GLOVE.png,,,,,,,,z,1,0.7812,,,,,,,,0,103,103,157,1,
,,,,,,,,,,,,,,,,,199243,18,2022-01-29_12h15.32.350,lexical_decision_task_DD_L3,2021.2.3,Linux x86_64,60.09615385,,,,,,,,,,,1.5608,1,,,,,,,,,,,,,,,,,,,,,,,,-0.051917023,-0.393755851,0,0,0,,,,,,,WAGON,C,z,m,./images/WAGON.png,,,,,,,,z,1,1.5608,,,,,,,,0,104,104,91,1,
,,,,,,,,,,,,,,,,,199243,18,2022-01-29_12h15.32.350,lexical_decision_task_DD_L3,2021.2.3,Linux x86_64,60.09615385,,,,,,,,,,,0.8549,1,,,,,,,,,,,,,,,,,,,,,,,,-0.051917023,-0.393755851,0,0,0,,,,,,,CRUST,C,m,m,./images/CRUST.png,,,,,,,,m,1,0.8549,,,,,,,,0,105,105,79,1,
,,,,,,,,,,,,,,,,,199243,18,2022-01-29_12h15.32.350,lexical_decision_task_DD_L3,2021.2.3,Linux x86_64,60.09615385,,,,,,,,,,,0.6239,1,,,,,,,,,,,,,,,,,,,,,,,,-0.051917023,-0.393755851,0,0,0,,,,,,,KITTEN,LB,m,m,./images/KITTENLB.png,,,,,,,,m,1,0.6239,,,,,,,,0,106,106,45,1,
,,,,,,,,,,,,,,,,,199243,18,2022-01-29_12h15.32.350,lexical_decision_task_DD_L3,2021.2.3,Linux x86_64,60.09615385,,,,,,,,,,,1.1325,1,,,,,,,,,,,,,,,,,,,,,,,,-0.051917023,-0.393755851,0,0,0,,,,,,,ENGINE,HB,z,m,./images/ENGINEHB.png,,,,,,,,z,1,1.1325,,,,,,,,0,107,107,122,1,
,,,,,,,,,,,,,,,,,199243,18,2022-01-29_12h15.32.350,lexical_decision_task_DD_L3,2021.2.3,Linux x86_64,60.09615385,,,,,,,,,,,1.2594,1,,,,,,,,,,,,,,,,,,,,,,,,-0.051917023,-0.393755851,0,0,0,,,,,,,CRATER,LB,z,m,./images/CRATERLB.png,,,,,,,,z,1,1.2594,,,,,,,,0,108,108,87,1,
,,,,,,,,,,,,,,,,,199243,18,2022-01-29_12h15.32.350,lexical_decision_task_DD_L3,2021.2.3,Linux x86_64,60.09615385,,,,,,,,,,,0.8194,1,,,,,,,,,,,,,,,,,,,,,,,,-0.051917023,-0.393755851,0,0,0,,,,,,,PLANK,C,m,m,./images/PLANK.png,,,,,,,,m,1,0.8194,,,,,,,,0,109,109,1,1,
,,,,,,,,,,,,,,,,,199243,18,2022-01-29_12h15.32.350,lexical_decision_task_DD_L3,2021.2.3,Linux x86_64,60.09615385,,,,,,,,,,,0.9827,1,,,,,,,,,,,,,,,,,,,,,,,,-0.051917023,-0.393755851,0,0,0,,,,,,,BIRTH,C,m,m,./images/BIRTH.png,,,,,,,,m,1,0.9827,,,,,,,,0,110,110,37,1,
,,,,,,,,,,,,,,,,,199243,18,2022-01-29_12h15.32.350,lexical_decision_task_DD_L3,2021.2.3,Linux x86_64,60.09615385,,,,,,,,,,,1.9815,0,,,,,,,,,,,,,,,,,,,,,,,,-0.051917023,-0.393755851,0,0,0,,,,,,,STOOL,C,z,m,./images/STOOL.png,,,,,,,,m,0,1.9815,,,,,,,,0,111,111,127,1,
,,,,,,,,,,,,,,,,,199243,18,2022-01-29_12h15.32.350,lexical_decision_task_DD_L3,2021.2.3,Linux x86_64,60.09615385,,,,,,,,,,,1.1479,1,,,,,,,,,,,,,,,,,,,,,,,,-0.051917023,-0.393755851,0,0,0,,,,,,,COLLAR,LB,z,m,./images/COLLARLB.png,,,,,,,,z,1,1.1479,,,,,,,,0,112,112,99,1,
,,,,,,,,,,,,,,,,,199243,18,2022-01-29_12h15.32.350,lexical_decision_task_DD_L3,2021.2.3,Linux x86_64,60.09615385,,,,,,,,,,,0.7954,1,,,,,,,,,,,,,,,,,,,,,,,,-0.051917023,-0.393755851,0,0,0,,,,,,,SNACK,C,m,m,./images/SNACK.png,,,,,,,,m,1,0.7954,,,,,,,,0,113,113,73,1,
,,,,,,,,,,,,,,,,,199243,18,2022-01-29_12h15.32.350,lexical_decision_task_DD_L3,2021.2.3,Linux x86_64,60.09615385,,,,,,,,,,,1.1307,1,,,,,,,,,,,,,,,,,,,,,,,,-0.051917023,-0.393755851,0,0,0,,,,,,,ARROW,LB,z,m,./images/ARROWLB.png,,,,,,,,z,1,1.1307,,,,,,,,0,114,114,153,1,
,,,,,,,,,,,,,,,,,199243,18,2022-01-29_12h15.32.350,lexical_decision_task_DD_L3,2021.2.3,Linux x86_64,60.09615385,,,,,,,,,,,2.2203,1,,,,,,,,,,,,,,,,,,,,,,,,-0.051917023,-0.393755851,0,0,0,,,,,,,HEATER,HB,z,m,./images/HEATERHB.png,,,,,,,,z,1,2.2203,,,,,,,,0,115,115,140,1,
,,,,,,,,,,,,,,,,,199243,18,2022-01-29_12h15.32.350,lexical_decision_task_DD_L3,2021.2.3,Linux x86_64,60.09615385,,,,,,,,,,,1.3336,0,,,,,,,,,,,,,,,,,,,,,,,,-0.051917023,-0.393755851,0,0,0,,,,,,,CURRY,LB,z,m,./images/CURRYLB.png,,,,,,,,m,0,1.3336,,,,,,,,0,116,116,144,1,
,,,,,,,,,,,,,,,,,199243,18,2022-01-29_12h15.32.350,lexical_decision_task_DD_L3,2021.2.3,Linux x86_64,60.09615385,,,,,,,,,,,0.7792,1,,,,,,,,,,,,,,,,,,,,,,,,-0.051917023,-0.393755851,0,0,0,,,,,,,DRUMS,C,m,m,./images/DRUMS.png,,,,,,,,m,1,0.7792,,,,,,,,0,117,117,49,1,
,,,,,,,,,,,,,,,,,199243,18,2022-01-29_12h15.32.350,lexical_decision_task_DD_L3,2021.2.3,Linux x86_64,60.09615385,,,,,,,,,,,1.0178,1,,,,,,,,,,,,,,,,,,,,,,,,-0.051917023,-0.393755851,0,0,0,,,,,,,MOSQUE,C,m,m,./images/MOSQUE.png,,,,,,,,m,1,1.0178,,,,,,,,0,118,118,43,1,
,,,,,,,,,,,,,,,,,199243,18,2022-01-29_12h15.32.350,lexical_decision_task_DD_L3,2021.2.3,Linux x86_64,60.09615385,,,,,,,,,,,1.0839,1,,,,,,,,,,,,,,,,,,,,,,,,-0.051917023,-0.393755851,0,0,0,,,,,,,CASINO,C,z,m,./images/CASINO.png,,,,,,,,z,1,1.0839,,,,,,,,0,119,119,112,1,
,,,,,,,,,,,,,,,,,199243,18,2022-01-29_12h15.32.350,lexical_decision_task_DD_L3,2021.2.3,Linux x86_64,60.09615385,,,,,,,,,,,0.7465,1,,,,,,,,,,,,,,,,,,,,,,,,-0.051917023,-0.393755851,0,0,0,,,,,,,URINE,C,m,m,./images/URINE.png,,,,,,,,m,1,0.7465,,,,,,,,0,120,120,70,1,
,,,,,,,,,,,,,,,,,199243,18,2022-01-29_12h15.32.350,lexical_decision_task_DD_L3,2021.2.3,Linux x86_64,60.09615385,,,,,,,,,,,0.9802,1,,,,,,,,,,,,,,,,,,,,,,,,-0.051917023,-0.393755851,0,0,0,,,,,,,TWINS,LB,m,m,./images/TWINSLB.png,,,,,,,,m,1,0.9802,,,,,,,,0,121,121,60,1,
,,,,,,,,,,,,,,,,,199243,18,2022-01-29_12h15.32.350,lexical_decision_task_DD_L3,2021.2.3,Linux x86_64,60.09615385,,,,,,,,,,,0.9299,1,,,,,,,,,,,,,,,,,,,,,,,,-0.051917023,-0.393755851,0,0,0,,,,,,,DRILL,LB,z,m,./images/DRILLLB.png,,,,,,,,z,1,0.9299,,,,,,,,0,122,122,165,1,
,,,,,,,,,,,,,,,,,199243,18,2022-01-29_12h15.32.350,lexical_decision_task_DD_L3,2021.2.3,Linux x86_64,60.09615385,,,,,,,,,,,0.9329,1,,,,,,,,,,,,,,,,,,,,,,,,-0.051917023,-0.393755851,0,0,0,,,,,,,MUSCLE,C,m,m,./images/MUSCLE.png,,,,,,,,m,1,0.9329,,,,,,,,0,123,123,4,1,
,,,,,,,,,,,,,,,,,199243,18,2022-01-29_12h15.32.350,lexical_decision_task_DD_L3,2021.2.3,Linux x86_64,60.09615385,,,,,,,,,,,2.58,0,,,,,,,,,,,,,,,,,,,,,,,,-0.051917023,-0.393755851,0,0,0,,,,,,,SAUNA,LB,z,m,./images/SAUNALB.png,,,,,,,,m,0,2.58,,,,,,,,0,124,124,117,1,
,,,,,,,,,,,,,,,,,199243,18,2022-01-29_12h15.32.350,lexical_decision_task_DD_L3,2021.2.3,Linux x86_64,60.09615385,,,,,,,,,,,1.183,1,,,,,,,,,,,,,,,,,,,,,,,,-0.051917023,-0.393755851,0,0,0,space,,,,,,PLANET,HB,z,m,./images/PLANETHB.png,1.2495,,,,,,,z,1,1.183,,,,,,,,0,125,125,164,1,
,,,,,,,,,,,,,,,,,199243,18,2022-01-29_12h15.32.350,lexical_decision_task_DD_L3,2021.2.3,Linux x86_64,60.09615385,,,,,,,,,,,0.7474,1,,,,,,,,,,,,,,,,,,,,,,,,-0.051917023,-0.393755851,0,0,0,,,,,,,LADDER,HB,m,m,./images/LADDERHB.png,,,,,,,,m,1,0.7474,,,,,,,,0,126,126,38,1,
,,,,,,,,,,,,,,,,,199243,18,2022-01-29_12h15.32.350,lexical_decision_task_DD_L3,2021.2.3,Linux x86_64,60.09615385,,,,,,,,,,,0.688,0,,,,,,,,,,,,,,,,,,,,,,,,-0.051917023,-0.393755851,0,0,0,,,,,,,SNAKE,C,z,m,./images/SNAKE.png,,,,,,,,m,0,0.688,,,,,,,,0,127,127,124,1,
,,,,,,,,,,,,,,,,,199243,18,2022-01-29_12h15.32.350,lexical_decision_task_DD_L3,2021.2.3,Linux x86_64,60.09615385,,,,,,,,,,,2.9889,1,,,,,,,,,,,,,,,,,,,,,,,,-0.051917023,-0.393755851,0,0,0,,,,,,,BANNER,C,m,m,./images/BANNER.png,,,,,,,,m,1,2.9889,,,,,,,,0,128,128,52,1,
,,,,,,,,,,,,,,,,,199243,18,2022-01-29_12h15.32.350,lexical_decision_task_DD_L3,2021.2.3,Linux x86_64,60.09615385,,,,,,,,,,,1.2154,1,,,,,,,,,,,,,,,,,,,,,,,,-0.051917023,-0.393755851,0,0,0,,,,,,,GARDEN,C,z,m,./images/GARDEN.png,,,,,,,,z,1,1.2154,,,,,,,,0,129,129,94,1,
,,,,,,,,,,,,,,,,,199243,18,2022-01-29_12h15.32.350,lexical_decision_task_DD_L3,2021.2.3,Linux x86_64,60.09615385,,,,,,,,,,,0.7736,1,,,,,,,,,,,,,,,,,,,,,,,,-0.051917023,-0.393755851,0,0,0,,,,,,,CRUMB,HB,m,m,./images/CRUMBHB.png,,,,,,,,m,1,0.7736,,,,,,,,0,130,130,29,1,
,,,,,,,,,,,,,,,,,199243,18,2022-01-29_12h15.32.350,lexical_decision_task_DD_L3,2021.2.3,Linux x86_64,60.09615385,,,,,,,,,,,1.0661,1,,,,,,,,,,,,,,,,,,,,,,,,-0.051917023,-0.393755851,0,0,0,,,,,,,BAKER,LB,z,m,./images/BAKERLB.png,,,,,,,,z,1,1.0661,,,,,,,,0,131,131,147,1,
,,,,,,,,,,,,,,,,,199243,18,2022-01-29_12h15.32.350,lexical_decision_task_DD_L3,2021.2.3,Linux x86_64,60.09615385,,,,,,,,,,,1.0613,0,,,,,,,,,,,,,,,,,,,,,,,,-0.051917023,-0.393755851,0,0,0,,,,,,,STORM,LB,m,m,./images/STORMLB.png,,,,,,,,z,0,1.0613,,,,,,,,0,132,132,30,1,
,,,,,,,,,,,,,,,,,199243,18,2022-01-29_12h15.32.350,lexical_decision_task_DD_L3,2021.2.3,Linux x86_64,60.09615385,,,,,,,,,,,1.4622,0,,,,,,,,,,,,,,,,,,,,,,,,-0.051917023,-0.393755851,0,0,0,,,,,,,BONNET,HB,m,m,./images/BONNETHB.png,,,,,,,,z,0,1.4622,,,,,,,,0,133,133,11,1,
,,,,,,,,,,,,,,,,,199243,18,2022-01-29_12h15.32.350,lexical_decision_task_DD_L3,2021.2.3,Linux x86_64,60.09615385,,,,,,,,,,,0.6836,0,,,,,,,,,,,,,,,,,,,,,,,,-0.051917023,-0.393755851,0,0,0,,,,,,,HOCKEY,HB,z,m,./images/HOCKEYHB.png,,,,,,,,m,0,0.6836,,,,,,,,0,134,134,116,1,
,,,,,,,,,,,,,,,,,199243,18,2022-01-29_12h15.32.350,lexical_decision_task_DD_L3,2021.2.3,Linux x86_64,60.09615385,,,,,,,,,,,0.9006,1,,,,,,,,,,,,,,,,,,,,,,,,-0.051917023,-0.393755851,0,0,0,,,,,,,LITTER,LB,m,m,./images/LITTERLB.png,,,,,,,,m,1,0.9006,,,,,,,,0,135,135,78,1,
,,,,,,,,,,,,,,,,,199243,18,2022-01-29_12h15.32.350,lexical_decision_task_DD_L3,2021.2.3,Linux x86_64,60.09615385,,,,,,,,,,,1.5611,0,,,,,,,,,,,,,,,,,,,,,,,,-0.051917023,-0.393755851,0,0,0,,,,,,,CHALK,C,z,m,./images/CHALK.png,,,,,,,,m,0,1.5611,,,,,,,,0,136,136,109,1,
,,,,,,,,,,,,,,,,,199243,18,2022-01-29_12h15.32.350,lexical_decision_task_DD_L3,2021.2.3,Linux x86_64,60.09615385,,,,,,,,,,,0.8797,0,,,,,,,,,,,,,,,,,,,,,,,,-0.051917023,-0.393755851,0,0,0,,,,,,,BAMBOO,HB,z,m,./images/BAMBOOHB.png,,,,,,,,m,0,0.8797,,,,,,,,0,137,137,89,1,
,,,,,,,,,,,,,,,,,199243,18,2022-01-29_12h15.32.350,lexical_decision_task_DD_L3,2021.2.3,Linux x86_64,60.09615385,,,,,,,,,,,0.7574,1,,,,,,,,,,,,,,,,,,,,,,,,-0.051917023,-0.393755851,0,0,0,,,,,,,SWING,C,m,m,./images/SWING.png,,,,,,,,m,1,0.7574,,,,,,,,0,138,138,40,1,
,,,,,,,,,,,,,,,,,199243,18,2022-01-29_12h15.32.350,lexical_decision_task_DD_L3,2021.2.3,Linux x86_64,60.09615385,,,,,,,,,,,3.6177,1,,,,,,,,,,,,,,,,,,,,,,,,-0.051917023,-0.393755851,0,0,0,,,,,,,CEMENT,HB,m,m,./images/CEMENTHB.png,,,,,,,,m,1,3.6177,,,,,,,,0,139,139,74,1,
,,,,,,,,,,,,,,,,,199243,18,2022-01-29_12h15.32.350,lexical_decision_task_DD_L3,2021.2.3,Linux x86_64,60.09615385,,,,,,,,,,,0.7298,1,,,,,,,,,,,,,,,,,,,,,,,,-0.051917023,-0.393755851,0,0,0,,,,,,,BANANA,C,z,m,./images/BANANA.png,,,,,,,,z,1,0.7298,,,,,,,,0,140,140,154,1,
,,,,,,,,,,,,,,,,,199243,18,2022-01-29_12h15.32.350,lexical_decision_task_DD_L3,2021.2.3,Linux x86_64,60.09615385,,,,,,,,,,,0.7545,1,,,,,,,,,,,,,,,,,,,,,,,,-0.051917023,-0.393755851,0,0,0,,,,,,,BUNNY,C,z,m,./images/BUNNY.png,,,,,,,,z,1,0.7545,,,,,,,,0,141,141,97,1,
,,,,,,,,,,,,,,,,,199243,18,2022-01-29_12h15.32.350,lexical_decision_task_DD_L3,2021.2.3,Linux x86_64,60.09615385,,,,,,,,,,,1.2637,1,,,,,,,,,,,,,,,,,,,,,,,,-0.051917023,-0.393755851,0,0,0,,,,,,,BOXER,C,z,m,./images/BOXER.png,,,,,,,,z,1,1.2637,,,,,,,,0,142,142,88,1,
,,,,,,,,,,,,,,,,,199243,18,2022-01-29_12h15.32.350,lexical_decision_task_DD_L3,2021.2.3,Linux x86_64,60.09615385,,,,,,,,,,,0.9077,1,,,,,,,,,,,,,,,,,,,,,,,,-0.051917023,-0.393755851,0,0,0,,,,,,,FERRY,LB,z,m,./images/FERRYLB.png,,,,,,,,z,1,0.9077,,,,,,,,0,143,143,141,1,
,,,,,,,,,,,,,,,,,199243,18,2022-01-29_12h15.32.350,lexical_decision_task_DD_L3,2021.2.3,Linux x86_64,60.09615385,,,,,,,,,,,0.8688,1,,,,,,,,,,,,,,,,,,,,,,,,-0.051917023,-0.393755851,0,0,0,,,,,,,TRIPOD,LB,m,m,./images/TRIPODLB.png,,,,,,,,m,1,0.8688,,,,,,,,0,144,144,54,1,
,,,,,,,,,,,,,,,,,199243,18,2022-01-29_12h15.32.350,lexical_decision_task_DD_L3,2021.2.3,Linux x86_64,60.09615385,,,,,,,,,,,1.4125,1,,,,,,,,,,,,,,,,,,,,,,,,-0.051917023,-0.393755851,0,0,0,,,,,,,MONKEY,LB,z,m,./images/MONKEYLB.png,,,,,,,,z,1,1.4125,,,,,,,,0,145,145,129,1,
,,,,,,,,,,,,,,,,,199243,18,2022-01-29_12h15.32.350,lexical_decision_task_DD_L3,2021.2.3,Linux x86_64,60.09615385,,,,,,,,,,,1.1288,0,,,,,,,,,,,,,,,,,,,,,,,,-0.051917023,-0.393755851,0,0,0,,,,,,,CHAIN,LB,z,m,./images/CHAINLB.png,,,,,,,,m,0,1.1288,,,,,,,,0,146,146,126,1,
,,,,,,,,,,,,,,,,,199243,18,2022-01-29_12h15.32.350,lexical_decision_task_DD_L3,2021.2.3,Linux x86_64,60.09615385,,,,,,,,,,,0.7798,1,,,,,,,,,,,,,,,,,,,,,,,,-0.051917023,-0.393755851,0,0,0,,,,,,,ATTIC,LB,m,m,./images/ATTICLB.png,,,,,,,,m,1,0.7798,,,,,,,,0,147,147,27,1,
,,,,,,,,,,,,,,,,,199243,18,2022-01-29_12h15.32.350,lexical_decision_task_DD_L3,2021.2.3,Linux x86_64,60.09615385,,,,,,,,,,,0.6694,1,,,,,,,,,,,,,,,,,,,,,,,,-0.051917023,-0.393755851,0,0,0,,,,,,,LIZARD,HB,m,m,./images/LIZARDHB.png,,,,,,,,m,1,0.6694,,,,,,,,0,148,148,44,1,
,,,,,,,,,,,,,,,,,199243,18,2022-01-29_12h15.32.350,lexical_decision_task_DD_L3,2021.2.3,Linux x86_64,60.09615385,,,,,,,,,,,1.4633,0,,,,,,,,,,,,,,,,,,,,,,,,-0.051917023,-0.393755851,0,0,0,,,,,,,MELON,C,m,m,./images/MELON.png,,,,,,,,z,0,1.4633,,,,,,,,0,149,149,22,1,
,,,,,,,,,,,,,,,,,199243,18,2022-01-29_12h15.32.350,lexical_decision_task_DD_L3,2021.2.3,Linux x86_64,60.09615385,,,,,,,,,,,0.9129,1,,,,,,,,,,,,,,,,,,,,,,,,-0.051917023,-0.393755851,0,0,0,,,,,,,BARREL,HB,m,m,./images/BARRELHB.png,,,,,,,,m,1,0.9129,,,,,,,,0,150,150,32,1,
,,,,,,,,,,,,,,,,,199243,18,2022-01-29_12h15.32.350,lexical_decision_task_DD_L3,2021.2.3,Linux x86_64,60.09615385,,,,,,,,,,,1.083,1,,,,,,,,,,,,,,,,,,,,,,,,-0.051917023,-0.393755851,0,0,0,,,,,,,PACKET,HB,m,m,./images/PACKETHB.png,,,,,,,,m,1,1.083,,,,,,,,0,151,151,56,1,
,,,,,,,,,,,,,,,,,199243,18,2022-01-29_12h15.32.350,lexical_decision_task_DD_L3,2021.2.3,Linux x86_64,60.09615385,,,,,,,,,,,0.8616,1,,,,,,,,,,,,,,,,,,,,,,,,-0.051917023,-0.393755851,0,0,0,,,,,,,TOWEL,C,z,m,./images/TOWEL.png,,,,,,,,z,1,0.8616,,,,,,,,0,152,152,85,1,
,,,,,,,,,,,,,,,,,199243,18,2022-01-29_12h15.32.350,lexical_decision_task_DD_L3,2021.2.3,Linux x86_64,60.09615385,,,,,,,,,,,0.8307,1,,,,,,,,,,,,,,,,,,,,,,,,-0.051917023,-0.393755851,0,0,0,,,,,,,BELLY,C,m,m,./images/BELLY.png,,,,,,,,m,1,0.8307,,,,,,,,0,153,153,10,1,
,,,,,,,,,,,,,,,,,199243,18,2022-01-29_12h15.32.350,lexical_decision_task_DD_L3,2021.2.3,Linux x86_64,60.09615385,,,,,,,,,,,1.0076,1,,,,,,,,,,,,,,,,,,,,,,,,-0.051917023,-0.393755851,0,0,0,,,,,,,RULER,C,z,m,./images/RULER.png,,,,,,,,z,1,1.0076,,,,,,,,0,154,154,163,1,
,,,,,,,,,,,,,,,,,199243,18,2022-01-29_12h15.32.350,lexical_decision_task_DD_L3,2021.2.3,Linux x86_64,60.09615385,,,,,,,,,,,1.2698,1,,,,,,,,,,,,,,,,,,,,,,,,-0.051917023,-0.393755851,0,0,0,,,,,,,PARCEL,LB,z,m,./images/PARCELLB.png,,,,,,,,z,1,1.2698,,,,,,,,0,155,155,102,1,
,,,,,,,,,,,,,,,,,199243,18,2022-01-29_12h15.32.350,lexical_decision_task_DD_L3,2021.2.3,Linux x86_64,60.09615385,,,,,,,,,,,0.9468,0,,,,,,,,,,,,,,,,,,,,,,,,-0.051917023,-0.393755851,0,0,0,,,,,,,MIDGET,C,z,m,./images/MIDGET.png,,,,,,,,m,0,0.9468,,,,,,,,0,156,156,160,1,
,,,,,,,,,,,,,,,,,199243,18,2022-01-29_12h15.32.350,lexical_decision_task_DD_L3,2021.2.3,Linux x86_64,60.09615385,,,,,,,,,,,0.7521,1,,,,,,,,,,,,,,,,,,,,,,,,-0.051917023,-0.393755851,0,0,0,,,,,,,MOOSE,LB,m,m,./images/MOOSELB.png,,,,,,,,m,1,0.7521,,,,,,,,0,157,157,57,1,
,,,,,,,,,,,,,,,,,199243,18,2022-01-29_12h15.32.350,lexical_decision_task_DD_L3,2021.2.3,Linux x86_64,60.09615385,,,,,,,,,,,1.8132,1,,,,,,,,,,,,,,,,,,,,,,,,-0.051917023,-0.393755851,0,0,0,,,,,,,DIVER,LB,z,m,./images/DIVERLB.png,,,,,,,,z,1,1.8132,,,,,,,,0,158,158,93,1,
,,,,,,,,,,,,,,,,,199243,18,2022-01-29_12h15.32.350,lexical_decision_task_DD_L3,2021.2.3,Linux x86_64,60.09615385,,,,,,,,,,,0.8066,1,,,,,,,,,,,,,,,,,,,,,,,,-0.051917023,-0.393755851,0,0,0,,,,,,,JAGUAR,LB,m,m,./images/JAGUARLB.png,,,,,,,,m,1,0.8066,,,,,,,,0,159,159,18,1,
,,,,,,,,,,,,,,,,,199243,18,2022-01-29_12h15.32.350,lexical_decision_task_DD_L3,2021.2.3,Linux x86_64,60.09615385,,,,,,,,,,,0.6713,0,,,,,,,,,,,,,,,,,,,,,,,,-0.051917023,-0.393755851,0,0,0,,,,,,,WALNUT,LB,z,m,./images/WALNUTLB.png,,,,,,,,m,0,0.6713,,,,,,,,0,160,160,84,1,
,,,,,,,,,,,,,,,,,199243,18,2022-01-29_12h15.32.350,lexical_decision_task_DD_L3,2021.2.3,Linux x86_64,60.09615385,,,,,,,,,,,0.9499,1,,,,,,,,,,,,,,,,,,,,,,,,-0.051917023,-0.393755851,0,0,0,,,,,,,DONKEY,C,z,m,./images/DONKEY.png,,,,,,,,z,1,0.9499,,,,,,,,0,161,161,103,1,
,,,,,,,,,,,,,,,,,199243,18,2022-01-29_12h15.32.350,lexical_decision_task_DD_L3,2021.2.3,Linux x86_64,60.09615385,,,,,,,,,,,1.1945,1,,,,,,,,,,,,,,,,,,,,,,,,-0.051917023,-0.393755851,0,0,0,,,,,,,SCREW,LB,m,m,./images/SCREWLB.png,,,,,,,,m,1,1.1945,,,,,,,,0,162,162,24,1,
,,,,,,,,,,,,,,,,,199243,18,2022-01-29_12h15.32.350,lexical_decision_task_DD_L3,2021.2.3,Linux x86_64,60.09615385,,,,,,,,,,,1.1364,1,,,,,,,,,,,,,,,,,,,,,,,,-0.051917023,-0.393755851,0,0,0,,,,,,,PEBBLE,C,z,m,./images/PEBBLE.png,,,,,,,,z,1,1.1364,,,,,,,,0,163,163,166,1,
,,,,,,,,,,,,,,,,,199243,18,2022-01-29_12h15.32.350,lexical_decision_task_DD_L3,2021.2.3,Linux x86_64,60.09615385,,,,,,,,,,,1.0604,0,,,,,,,,,,,,,,,,,,,,,,,,-0.051917023,-0.393755851,0,0,0,,,,,,,LAGOON,HB,z,m,./images/LAGOONHB.png,,,,,,,,m,0,1.0604,,,,,,,,0,164,164,131,1,
