key_resp.keys,key_resp.rt,instr_done_touch.x,instr_done_touch.y,instr_done_touch.leftButton,instr_done_touch.midButton,instr_done_touch.rightButton,instruction_pages.thisRepN,instruction_pages.thisTrialN,instruction_pages.thisN,instruction_pages.thisIndex,instruction_pages.ran,pageN,phase,instruct_text,has_image,instruct_image,participant,age,date,expName,psychopyVersion,OS,frameRate,response.keys,response.corr,response.rt,touch_resp.x,touch_resp.y,touch_resp.leftButton,touch_resp.midButton,touch_resp.rightButton,touch_resp.time,touch_resp.clicked_name,rt,corr,practrials.thisRepN,practrials.thisTrialN,practrials.thisN,practrials.thisIndex,practrials.ran,TrialID,Target,corrAns,end_of_practice_trials_pages.thisRepN,end_of_practice_trials_pages.thisTrialN,end_of_practice_trials_pages.thisN,end_of_practice_trials_pages.thisIndex,end_of_practice_trials_pages.ran,key_resp_2.keys,key_resp_2.corr,key_resp_2.rt,targ_click.x,targ_click.y,targ_click.leftButton,targ_click.midButton,targ_click.rightButton,targ_click.time,targ_click.clicked_name,break_done_touch.x,break_done_touch.y,break_done_touch.leftButton,break_done_touch.midButton,break_done_touch.rightButton,break_done_keyboard.keys,maintrials.thisRepN,maintrials.thisTrialN,maintrials.thisN,maintrials.thisIndex,maintrials.ran,string,blur,study,lex,stim_path,break_done_keyboard.rt,test_instructions.thisRepN,test_instructions.thisTrialN,test_instructions.thisN,test_instructions.thisIndex,test_instructions.ran,key_resp_3.keys,key_resp_3.corr,key_resp_3.rt,test_click.x,test_click.y,test_click.leftButton,test_click.midButton,test_click.rightButton,test_click.time,test_click.clicked_name,test_phase.thisRepN,test_phase.thisTrialN,test_phase.thisN,test_phase.thisIndex,test_phase.ran
space,48.1941,0.161519368,-0.368917236,0,0,0,0,0,0,0,1,1,instructions,"INSTRUCTIONS
At the start of each trial, look at the plus sign  (+) in the center of the screen.  This tells you that a trial is about to begin and where to look. Second, the plus sign will disappear and a string of letters will appear. Your task is to determine if the string of letters is a word or not. If the item is a word press the M key (on keyboard)  or touch the word button (phone/tablet).  If the item is not a word,  press the  Z key (on keyboard)  or touch the nonword button (on phone/tablet). 
Press the space bar or touch  continue.",0,,199228,18,2022-01-28_15h56.52.010,lexical_decision_task_DD,2021.2.3,MacIntel,60.0024001,,,,,,,,,,,,,,,,,,,,,,,,,,,,,,,,,,,,,,,,,,,,,,,,,,,,,,,,,,,,,,,,,,,,,,,,
space,6.176,0.161519368,-0.368917236,0,0,0,0,1,1,1,1,2,instructions,"If your device has a keyboard, press the 'Z' key for nonwords and the 'M' key for words.





Press the space bar or touch the button below to continue.",0,keyboard-example.gif,199228,18,2022-01-28_15h56.52.010,lexical_decision_task_DD,2021.2.3,MacIntel,60.0024001,,,,,,,,,,,,,,,,,,,,,,,,,,,,,,,,,,,,,,,,,,,,,,,,,,,,,,,,,,,,,,,,,,,,,,,,
space,3.5093,0.161519368,-0.368917236,0,0,0,0,2,2,2,1,3,instructions,"If you are using a touchscreen only device, use the buttons on the screen. Do not use the mouse.





Press the space bar or touch the button below to continue.",0,touchscreen-example.gif,199228,18,2022-01-28_15h56.52.010,lexical_decision_task_DD,2021.2.3,MacIntel,60.0024001,,,,,,,,,,,,,,,,,,,,,,,,,,,,,,,,,,,,,,,,,,,,,,,,,,,,,,,,,,,,,,,,,,,,,,,,
space,15.6428,0.161519368,-0.368917236,0,0,0,0,3,3,3,1,4,instructions,"It is very important that you respond as quickly and accurately as possible, as each letter string will only be on the screen for two seconds. If you do not respond within this time, the message 'Too slow!' will be displayed and the experiment will progress to the next letter string. The first 20 trials will be practice trials and you will receive feedback on your answers. 

Press the space bar or touch the button below to start the practice trials.",0,,199228,18,2022-01-28_15h56.52.010,lexical_decision_task_DD,2021.2.3,MacIntel,60.0024001,,,,,,,,,,,,,,,,,,,,,,,,,,,,,,,,,,,,,,,,,,,,,,,,,,,,,,,,,,,,,,,,,,,,,,,,
,,,,,,,,,,,,,,,,,199228,18,2022-01-28_15h56.52.010,lexical_decision_task_DD,2021.2.3,MacIntel,60.0024001,m,1,1.5201,,,,,,,,1.5201,1,0,0,0,4,1,1001,SQUEAK,m,,,,,,,,,,,,,,,,,,,,,,,,,,,,,,,,,,,,,,,,,,,,,,,,,,,,
,,,,,,,,,,,,,,,,,199228,18,2022-01-28_15h56.52.010,lexical_decision_task_DD,2021.2.3,MacIntel,60.0024001,m,1,0.8503,,,,,,,,0.8503,1,0,1,1,1,1,1001,ADJUST,m,,,,,,,,,,,,,,,,,,,,,,,,,,,,,,,,,,,,,,,,,,,,,,,,,,,,
,,,,,,,,,,,,,,,,,199228,18,2022-01-28_15h56.52.010,lexical_decision_task_DD,2021.2.3,MacIntel,60.0024001,m,1,0.8073,,,,,,,,0.8073,1,0,2,2,6,1,1001,ZOMBIE,m,,,,,,,,,,,,,,,,,,,,,,,,,,,,,,,,,,,,,,,,,,,,,,,,,,,,
,,,,,,,,,,,,,,,,,199228,18,2022-01-28_15h56.52.010,lexical_decision_task_DD,2021.2.3,MacIntel,60.0024001,z,1,1.1786,,,,,,,,1.1786,1,0,3,3,13,1,1001,ROUPET,z,,,,,,,,,,,,,,,,,,,,,,,,,,,,,,,,,,,,,,,,,,,,,,,,,,,,
,,,,,,,,,,,,,,,,,199228,18,2022-01-28_15h56.52.010,lexical_decision_task_DD,2021.2.3,MacIntel,60.0024001,m,1,0.7224,,,,,,,,0.7224,1,0,4,4,7,1,1001,VOLUME,m,,,,,,,,,,,,,,,,,,,,,,,,,,,,,,,,,,,,,,,,,,,,,,,,,,,,
,,,,,,,,,,,,,,,,,199228,18,2022-01-28_15h56.52.010,lexical_decision_task_DD,2021.2.3,MacIntel,60.0024001,z,1,0.8793,,,,,,,,0.8793,1,0,5,5,9,1,1001,FARINY,z,,,,,,,,,,,,,,,,,,,,,,,,,,,,,,,,,,,,,,,,,,,,,,,,,,,,
,,,,,,,,,,,,,,,,,199228,18,2022-01-28_15h56.52.010,lexical_decision_task_DD,2021.2.3,MacIntel,60.0024001,z,1,1.0166,,,,,,,,1.0166,1,0,6,6,11,1,1001,RASHET,z,,,,,,,,,,,,,,,,,,,,,,,,,,,,,,,,,,,,,,,,,,,,,,,,,,,,
,,,,,,,,,,,,,,,,,199228,18,2022-01-28_15h56.52.010,lexical_decision_task_DD,2021.2.3,MacIntel,60.0024001,z,1,1.4894,,,,,,,,1.4894,1,0,7,7,10,1,1001,INLADE,z,,,,,,,,,,,,,,,,,,,,,,,,,,,,,,,,,,,,,,,,,,,,,,,,,,,,
,,,,,,,,,,,,,,,,,199228,18,2022-01-28_15h56.52.010,lexical_decision_task_DD,2021.2.3,MacIntel,60.0024001,m,1,0.7829,,,,,,,,0.7829,1,0,8,8,2,1,1001,ALMOND,m,,,,,,,,,,,,,,,,,,,,,,,,,,,,,,,,,,,,,,,,,,,,,,,,,,,,
,,,,,,,,,,,,,,,,,199228,18,2022-01-28_15h56.52.010,lexical_decision_task_DD,2021.2.3,MacIntel,60.0024001,z,1,0.8811,,,,,,,,0.8811,1,0,9,9,8,1,1001,ASLERT,z,,,,,,,,,,,,,,,,,,,,,,,,,,,,,,,,,,,,,,,,,,,,,,,,,,,,
,,,,,,,,,,,,,,,,,199228,18,2022-01-28_15h56.52.010,lexical_decision_task_DD,2021.2.3,MacIntel,60.0024001,m,1,0.7853,,,,,,,,0.7853,1,0,10,10,5,1,1001,OBTAIN,m,,,,,,,,,,,,,,,,,,,,,,,,,,,,,,,,,,,,,,,,,,,,,,,,,,,,
,,,,,,,,,,,,,,,,,199228,18,2022-01-28_15h56.52.010,lexical_decision_task_DD,2021.2.3,MacIntel,60.0024001,z,1,0.8156,,,,,,,,0.8156,1,0,11,11,14,1,1001,THRALE,z,,,,,,,,,,,,,,,,,,,,,,,,,,,,,,,,,,,,,,,,,,,,,,,,,,,,
,,,,,,,,,,,,,,,,,199228,18,2022-01-28_15h56.52.010,lexical_decision_task_DD,2021.2.3,MacIntel,60.0024001,z,1,0.7983,,,,,,,,0.7983,1,0,12,12,12,1,1001,SPRINY,z,,,,,,,,,,,,,,,,,,,,,,,,,,,,,,,,,,,,,,,,,,,,,,,,,,,,
,,,,,,,,,,,,,,,,,199228,18,2022-01-28_15h56.52.010,lexical_decision_task_DD,2021.2.3,MacIntel,60.0024001,z,1,0.6811,,,,,,,,0.6811,1,0,13,13,15,1,1001,WHAISE,z,,,,,,,,,,,,,,,,,,,,,,,,,,,,,,,,,,,,,,,,,,,,,,,,,,,,
,,,,,,,,,,,,,,,,,199228,18,2022-01-28_15h56.52.010,lexical_decision_task_DD,2021.2.3,MacIntel,60.0024001,m,1,0.7954,,,,,,,,0.7954,1,0,14,14,3,1,1001,MATRIX,m,,,,,,,,,,,,,,,,,,,,,,,,,,,,,,,,,,,,,,,,,,,,,,,,,,,,
,,,,,,,,,,,,,,,,,199228,18,2022-01-28_15h56.52.010,lexical_decision_task_DD,2021.2.3,MacIntel,60.0024001,m,1,0.8688,,,,,,,,0.8688,1,0,15,15,0,1,1001,UTOPIA,m,,,,,,,,,,,,,,,,,,,,,,,,,,,,,,,,,,,,,,,,,,,,,,,,,,,,
space,13.0348,0.161519368,-0.368917236,0,0,0,,,,,,1,end_of_practice,"You have completed the practice trials. During the experimental trials, you will not receive feedback. 
Before you begin, please ensure that you are in a comfortable and quiet location and will not be disturbed for about 15 minutes, as we cannot use your data if you do not complete all the trials. 
 When you are ready to start the experimental trials, please press space or touch the button below.",,,199228,18,2022-01-28_15h56.52.010,lexical_decision_task_DD,2021.2.3,MacIntel,60.0024001,,,,,,,,,,,,,,,,,,,,,0,0,0,0,1,,,,,,,,,,,,,,,,,,,,,,,,,,,,,,,,,,,,,,,,,,,,,,,
,,,,,,,,,,,,,,,,,199228,18,2022-01-28_15h56.52.010,lexical_decision_task_DD,2021.2.3,MacIntel,60.0024001,,,,,,,,,,,1.0949,1,,,,,,,,,,,,,,z,1,1.0949,,,,,,,,0.161519368,-0.368917236,0,0,0,,0,0,0,146,1,MOOST,LB,old,z,./images/MOOSTLB.png,,,,,,,,,,,,,,,,,,,,,
,,,,,,,,,,,,,,,,,199228,18,2022-01-28_15h56.52.010,lexical_decision_task_DD,2021.2.3,MacIntel,60.0024001,,,,,,,,,,,0.8236,1,,,,,,,,,,,,,,z,1,0.8236,,,,,,,,0.161519368,-0.368917236,0,0,0,,0,1,1,117,1,STEEG,C,old,z,./images/STEEG.png,,,,,,,,,,,,,,,,,,,,,
,,,,,,,,,,,,,,,,,199228,18,2022-01-28_15h56.52.010,lexical_decision_task_DD,2021.2.3,MacIntel,60.0024001,,,,,,,,,,,0.6521,1,,,,,,,,,,,,,,m,1,0.6521,,,,,,,,0.161519368,-0.368917236,0,0,0,,0,2,2,14,1,PICKLE,LB,old,m,./images/PICKLELB.png,,,,,,,,,,,,,,,,,,,,,
,,,,,,,,,,,,,,,,,199228,18,2022-01-28_15h56.52.010,lexical_decision_task_DD,2021.2.3,MacIntel,60.0024001,,,,,,,,,,,0.8635,1,,,,,,,,,,,,,,z,1,0.8635,,,,,,,,0.161519368,-0.368917236,0,0,0,,0,3,3,153,1,CLUPS,C,old,z,./images/CLUPS.png,,,,,,,,,,,,,,,,,,,,,
,,,,,,,,,,,,,,,,,199228,18,2022-01-28_15h56.52.010,lexical_decision_task_DD,2021.2.3,MacIntel,60.0024001,,,,,,,,,,,1.002,1,,,,,,,,,,,,,,m,1,1.002,,,,,,,,0.161519368,-0.368917236,0,0,0,,0,4,4,82,1,SUNSET,HB,old,m,./images/SUNSETHB.png,,,,,,,,,,,,,,,,,,,,,
,,,,,,,,,,,,,,,,,199228,18,2022-01-28_15h56.52.010,lexical_decision_task_DD,2021.2.3,MacIntel,60.0024001,,,,,,,,,,,0.7839,1,,,,,,,,,,,,,,m,1,0.7839,,,,,,,,0.161519368,-0.368917236,0,0,0,,0,5,5,55,1,MUFFIN,HB,old,m,./images/MUFFINHB.png,,,,,,,,,,,,,,,,,,,,,
,,,,,,,,,,,,,,,,,199228,18,2022-01-28_15h56.52.010,lexical_decision_task_DD,2021.2.3,MacIntel,60.0024001,,,,,,,,,,,0.6664,1,,,,,,,,,,,,,,z,1,0.6664,,,,,,,,0.161519368,-0.368917236,0,0,0,,0,6,6,137,1,JOOST,LB,old,z,./images/JOOSTLB.png,,,,,,,,,,,,,,,,,,,,,
,,,,,,,,,,,,,,,,,199228,18,2022-01-28_15h56.52.010,lexical_decision_task_DD,2021.2.3,MacIntel,60.0024001,,,,,,,,,,,0.7821,1,,,,,,,,,,,,,,z,1,0.7821,,,,,,,,0.161519368,-0.368917236,0,0,0,,0,7,7,128,1,GRIFT,LB,old,z,./images/GRIFTLB.png,,,,,,,,,,,,,,,,,,,,,
,,,,,,,,,,,,,,,,,199228,18,2022-01-28_15h56.52.010,lexical_decision_task_DD,2021.2.3,MacIntel,60.0024001,,,,,,,,,,,0.9836,1,,,,,,,,,,,,,,m,1,0.9836,,,,,,,,0.161519368,-0.368917236,0,0,0,,0,8,8,47,1,BERRY,LB,old,m,./images/BERRYLB.png,,,,,,,,,,,,,,,,,,,,,
,,,,,,,,,,,,,,,,,199228,18,2022-01-28_15h56.52.010,lexical_decision_task_DD,2021.2.3,MacIntel,60.0024001,,,,,,,,,,,0.698,1,,,,,,,,,,,,,,m,1,0.698,,,,,,,,0.161519368,-0.368917236,0,0,0,,0,9,9,32,1,BARREL,LB,old,m,./images/BARRELLB.png,,,,,,,,,,,,,,,,,,,,,
,,,,,,,,,,,,,,,,,199228,18,2022-01-28_15h56.52.010,lexical_decision_task_DD,2021.2.3,MacIntel,60.0024001,,,,,,,,,,,0.7824,1,,,,,,,,,,,,,,m,1,0.7824,,,,,,,,0.161519368,-0.368917236,0,0,0,,0,10,10,59,1,BURIAL,LB,old,m,./images/BURIALLB.png,,,,,,,,,,,,,,,,,,,,,
,,,,,,,,,,,,,,,,,199228,18,2022-01-28_15h56.52.010,lexical_decision_task_DD,2021.2.3,MacIntel,60.0024001,,,,,,,,,,,0.6974,1,,,,,,,,,,,,,,z,1,0.6974,,,,,,,,0.161519368,-0.368917236,0,0,0,,0,11,11,104,1,GITTY,LB,old,z,./images/GITTYLB.png,,,,,,,,,,,,,,,,,,,,,
,,,,,,,,,,,,,,,,,199228,18,2022-01-28_15h56.52.010,lexical_decision_task_DD,2021.2.3,MacIntel,60.0024001,,,,,,,,,,,1.329,1,,,,,,,,,,,,,,m,1,1.329,,,,,,,,0.161519368,-0.368917236,0,0,0,,0,12,12,72,1,NOOSE,C,old,m,./images/NOOSE.png,,,,,,,,,,,,,,,,,,,,,
,,,,,,,,,,,,,,,,,199228,18,2022-01-28_15h56.52.010,lexical_decision_task_DD,2021.2.3,MacIntel,60.0024001,,,,,,,,,,,2.0496,1,,,,,,,,,,,,,,z,1,2.0496,,,,,,,,0.161519368,-0.368917236,0,0,0,,0,13,13,115,1,MAWNS,HB,old,z,./images/MAWNSHB.png,,,,,,,,,,,,,,,,,,,,,
,,,,,,,,,,,,,,,,,199228,18,2022-01-28_15h56.52.010,lexical_decision_task_DD,2021.2.3,MacIntel,60.0024001,,,,,,,,,,,0.9359,1,,,,,,,,,,,,,,m,1,0.9359,,,,,,,,0.161519368,-0.368917236,0,0,0,,0,14,14,83,1,JUNGLE,LB,old,m,./images/JUNGLELB.png,,,,,,,,,,,,,,,,,,,,,
,,,,,,,,,,,,,,,,,199228,18,2022-01-28_15h56.52.010,lexical_decision_task_DD,2021.2.3,MacIntel,60.0024001,,,,,,,,,,,0.7813,1,,,,,,,,,,,,,,z,1,0.7813,,,,,,,,0.161519368,-0.368917236,0,0,0,,0,15,15,98,1,BAMPS,LB,old,z,./images/BAMPSLB.png,,,,,,,,,,,,,,,,,,,,,
,,,,,,,,,,,,,,,,,199228,18,2022-01-28_15h56.52.010,lexical_decision_task_DD,2021.2.3,MacIntel,60.0024001,,,,,,,,,,,5.4333,1,,,,,,,,,,,,,,m,1,5.4333,,,,,,,,0.141961602,-0.20648017,0,0,0,,0,16,16,35,1,PEACH,LB,old,m,./images/PEACHLB.png,,,,,,,,,,,,,,,,,,,,,
,,,,,,,,,,,,,,,,,199228,18,2022-01-28_15h56.52.010,lexical_decision_task_DD,2021.2.3,MacIntel,60.0024001,,,,,,,,,,,0.6987,1,,,,,,,,,,,,,,m,1,0.6987,,,,,,,,0.141961602,-0.20648017,0,0,0,,0,17,17,74,1,CEMENT,LB,old,m,./images/CEMENTLB.png,,,,,,,,,,,,,,,,,,,,,
,,,,,,,,,,,,,,,,,199228,18,2022-01-28_15h56.52.010,lexical_decision_task_DD,2021.2.3,MacIntel,60.0024001,,,,,,,,,,,0.6979,1,,,,,,,,,,,,,,z,1,0.6979,,,,,,,,0.141961602,-0.20648017,0,0,0,,0,18,18,135,1,JOODY,C,old,z,./images/JOODY.png,,,,,,,,,,,,,,,,,,,,,
,,,,,,,,,,,,,,,,,199228,18,2022-01-28_15h56.52.010,lexical_decision_task_DD,2021.2.3,MacIntel,60.0024001,,,,,,,,,,,0.6985,1,,,,,,,,,,,,,,m,1,0.6985,,,,,,,,0.141961602,-0.20648017,0,0,0,,0,19,19,66,1,SWEAT,C,old,m,./images/SWEAT.png,,,,,,,,,,,,,,,,,,,,,
,,,,,,,,,,,,,,,,,199228,18,2022-01-28_15h56.52.010,lexical_decision_task_DD,2021.2.3,MacIntel,60.0024001,,,,,,,,,,,0.7377,1,,,,,,,,,,,,,,m,1,0.7377,,,,,,,,0.141961602,-0.20648017,0,0,0,,0,20,20,1,1,PLANK,HB,old,m,./images/PLANKHB.png,,,,,,,,,,,,,,,,,,,,,
,,,,,,,,,,,,,,,,,199228,18,2022-01-28_15h56.52.010,lexical_decision_task_DD,2021.2.3,MacIntel,60.0024001,,,,,,,,,,,0.7189,1,,,,,,,,,,,,,,m,1,0.7189,,,,,,,,0.141961602,-0.20648017,0,0,0,,0,21,21,77,1,COUCH,LB,old,m,./images/COUCHLB.png,,,,,,,,,,,,,,,,,,,,,
,,,,,,,,,,,,,,,,,199228,18,2022-01-28_15h56.52.010,lexical_decision_task_DD,2021.2.3,MacIntel,60.0024001,,,,,,,,,,,0.7146,0,,,,,,,,,,,,,,m,0,0.7146,,,,,,,,0.141961602,-0.20648017,0,0,0,,0,22,22,90,1,NEAST,C,old,z,./images/NEAST.png,,,,,,,,,,,,,,,,,,,,,
,,,,,,,,,,,,,,,,,199228,18,2022-01-28_15h56.52.010,lexical_decision_task_DD,2021.2.3,MacIntel,60.0024001,,,,,,,,,,,0.6332,1,,,,,,,,,,,,,,m,1,0.6332,,,,,,,,0.141961602,-0.20648017,0,0,0,,0,23,23,5,1,PASTA,LB,old,m,./images/PASTALB.png,,,,,,,,,,,,,,,,,,,,,
,,,,,,,,,,,,,,,,,199228,18,2022-01-28_15h56.52.010,lexical_decision_task_DD,2021.2.3,MacIntel,60.0024001,,,,,,,,,,,0.7505,1,,,,,,,,,,,,,,z,1,0.7505,,,,,,,,0.141961602,-0.20648017,0,0,0,,0,24,24,162,1,LEICH,C,old,z,./images/LEICH.png,,,,,,,,,,,,,,,,,,,,,
,,,,,,,,,,,,,,,,,199228,18,2022-01-28_15h56.52.010,lexical_decision_task_DD,2021.2.3,MacIntel,60.0024001,,,,,,,,,,,1.2821,1,,,,,,,,,,,,,,z,1,1.2821,,,,,,,,0.141961602,-0.20648017,0,0,0,,0,25,25,103,1,FLORT,HB,old,z,./images/FLORTHB.png,,,,,,,,,,,,,,,,,,,,,
,,,,,,,,,,,,,,,,,199228,18,2022-01-28_15h56.52.010,lexical_decision_task_DD,2021.2.3,MacIntel,60.0024001,,,,,,,,,,,0.6177,1,,,,,,,,,,,,,,m,1,0.6177,,,,,,,,0.141961602,-0.20648017,0,0,0,,0,26,26,11,1,BONNET,LB,old,m,./images/BONNETLB.png,,,,,,,,,,,,,,,,,,,,,
,,,,,,,,,,,,,,,,,199228,18,2022-01-28_15h56.52.010,lexical_decision_task_DD,2021.2.3,MacIntel,60.0024001,,,,,,,,,,,1.6479,1,,,,,,,,,,,,,,m,1,1.6479,,,,,,,,0.141961602,-0.20648017,0,0,0,,0,27,27,60,1,TWINS,C,old,m,./images/TWINS.png,,,,,,,,,,,,,,,,,,,,,
,,,,,,,,,,,,,,,,,199228,18,2022-01-28_15h56.52.010,lexical_decision_task_DD,2021.2.3,MacIntel,60.0024001,,,,,,,,,,,0.6296,1,,,,,,,,,,,,,,z,1,0.6296,,,,,,,,0.141961602,-0.20648017,0,0,0,,0,28,28,93,1,SMONE,C,old,z,./images/SMONE.png,,,,,,,,,,,,,,,,,,,,,
,,,,,,,,,,,,,,,,,199228,18,2022-01-28_15h56.52.010,lexical_decision_task_DD,2021.2.3,MacIntel,60.0024001,,,,,,,,,,,0.7673,1,,,,,,,,,,,,,,z,1,0.7673,,,,,,,,0.141961602,-0.20648017,0,0,0,,0,29,29,164,1,SGREW,LB,old,z,./images/SGREWLB.png,,,,,,,,,,,,,,,,,,,,,
,,,,,,,,,,,,,,,,,199228,18,2022-01-28_15h56.52.010,lexical_decision_task_DD,2021.2.3,MacIntel,60.0024001,,,,,,,,,,,1.2495,1,,,,,,,,,,,,,,m,1,1.2495,,,,,,,,0.141961602,-0.20648017,0,0,0,,0,30,30,28,1,FALCON,HB,old,m,./images/FALCONHB.png,,,,,,,,,,,,,,,,,,,,,
,,,,,,,,,,,,,,,,,199228,18,2022-01-28_15h56.52.010,lexical_decision_task_DD,2021.2.3,MacIntel,60.0024001,,,,,,,,,,,0.5493,1,,,,,,,,,,,,,,m,1,0.5493,,,,,,,,0.141961602,-0.20648017,0,0,0,,0,31,31,44,1,LIZARD,LB,old,m,./images/LIZARDLB.png,,,,,,,,,,,,,,,,,,,,,
,,,,,,,,,,,,,,,,,199228,18,2022-01-28_15h56.52.010,lexical_decision_task_DD,2021.2.3,MacIntel,60.0024001,,,,,,,,,,,0.8858,1,,,,,,,,,,,,,,m,1,0.8858,,,,,,,,0.141961602,-0.20648017,0,0,0,,0,32,32,65,1,FARMER,LB,old,m,./images/FARMERLB.png,,,,,,,,,,,,,,,,,,,,,
,,,,,,,,,,,,,,,,,199228,18,2022-01-28_15h56.52.010,lexical_decision_task_DD,2021.2.3,MacIntel,60.0024001,,,,,,,,,,,2.3487,1,,,,,,,,,,,,,,z,1,2.3487,,,,,,,,0.141961602,-0.20648017,0,0,0,,0,33,33,97,1,CHIDS,HB,old,z,./images/CHIDSHB.png,,,,,,,,,,,,,,,,,,,,,
,,,,,,,,,,,,,,,,,199228,18,2022-01-28_15h56.52.010,lexical_decision_task_DD,2021.2.3,MacIntel,60.0024001,,,,,,,,,,,0.9003,1,,,,,,,,,,,,,,m,1,0.9003,,,,,,,,0.141961602,-0.20648017,0,0,0,,0,34,34,22,1,MELON,HB,old,m,./images/MELONHB.png,,,,,,,,,,,,,,,,,,,,,
,,,,,,,,,,,,,,,,,199228,18,2022-01-28_15h56.52.010,lexical_decision_task_DD,2021.2.3,MacIntel,60.0024001,,,,,,,,,,,0.8039,1,,,,,,,,,,,,,,z,1,0.8039,,,,,,,,0.141961602,-0.20648017,0,0,0,,0,35,35,96,1,KEAMS,C,old,z,./images/KEAMS.png,,,,,,,,,,,,,,,,,,,,,
,,,,,,,,,,,,,,,,,199228,18,2022-01-28_15h56.52.010,lexical_decision_task_DD,2021.2.3,MacIntel,60.0024001,,,,,,,,,,,1.015,1,,,,,,,,,,,,,,z,1,1.015,,,,,,,,0.141961602,-0.20648017,0,0,0,,0,36,36,122,1,BLOOT,LB,old,z,./images/BLOOTLB.png,,,,,,,,,,,,,,,,,,,,,
,,,,,,,,,,,,,,,,,199228,18,2022-01-28_15h56.52.010,lexical_decision_task_DD,2021.2.3,MacIntel,60.0024001,,,,,,,,,,,0.7498,1,,,,,,,,,,,,,,m,1,0.7498,,,,,,,,0.141961602,-0.20648017,0,0,0,,0,37,37,67,1,SAILOR,HB,old,m,./images/SAILORHB.png,,,,,,,,,,,,,,,,,,,,,
,,,,,,,,,,,,,,,,,199228,18,2022-01-28_15h56.52.010,lexical_decision_task_DD,2021.2.3,MacIntel,60.0024001,,,,,,,,,,,1.0192,1,,,,,,,,,,,,,,m,1,1.0192,,,,,,,,0.141961602,-0.20648017,0,0,0,,0,38,38,50,1,MALLET,LB,old,m,./images/MALLETLB.png,,,,,,,,,,,,,,,,,,,,,
,,,,,,,,,,,,,,,,,199228,18,2022-01-28_15h56.52.010,lexical_decision_task_DD,2021.2.3,MacIntel,60.0024001,,,,,,,,,,,0.7002,1,,,,,,,,,,,,,,z,1,0.7002,,,,,,,,0.141961602,-0.20648017,0,0,0,,0,39,39,119,1,PAFER,LB,old,z,./images/PAFERLB.png,,,,,,,,,,,,,,,,,,,,,
,,,,,,,,,,,,,,,,,199228,18,2022-01-28_15h56.52.010,lexical_decision_task_DD,2021.2.3,MacIntel,60.0024001,,,,,,,,,,,0.7168,1,,,,,,,,,,,,,,z,1,0.7168,,,,,,,,0.141961602,-0.20648017,0,0,0,,0,40,40,123,1,SEDGE,C,old,z,./images/SEDGE.png,,,,,,,,,,,,,,,,,,,,,
,,,,,,,,,,,,,,,,,199228,18,2022-01-28_15h56.52.010,lexical_decision_task_DD,2021.2.3,MacIntel,60.0024001,,,,,,,,,,,0.6986,1,,,,,,,,,,,,,,z,1,0.6986,,,,,,,,-0.44358681,-0.16115415,0,0,0,space,0,41,41,167,1,ZONET,LB,old,z,./images/ZONETLB.png,26.4313,,,,,,,,,,,,,,,,,,,,
,,,,,,,,,,,,,,,,,199228,18,2022-01-28_15h56.52.010,lexical_decision_task_DD,2021.2.3,MacIntel,60.0024001,,,,,,,,,,,0.7349,1,,,,,,,,,,,,,,z,1,0.7349,,,,,,,,-0.44358681,-0.16115415,0,0,0,,0,42,42,156,1,HIXES,C,old,z,./images/HIXES.png,,,,,,,,,,,,,,,,,,,,,
,,,,,,,,,,,,,,,,,199228,18,2022-01-28_15h56.52.010,lexical_decision_task_DD,2021.2.3,MacIntel,60.0024001,,,,,,,,,,,0.9494,1,,,,,,,,,,,,,,z,1,0.9494,,,,,,,,-0.44358681,-0.16115415,0,0,0,,0,43,43,160,1,VEETS,HB,old,z,./images/VEETSHB.png,,,,,,,,,,,,,,,,,,,,,
,,,,,,,,,,,,,,,,,199228,18,2022-01-28_15h56.52.010,lexical_decision_task_DD,2021.2.3,MacIntel,60.0024001,,,,,,,,,,,0.8983,1,,,,,,,,,,,,,,z,1,0.8983,,,,,,,,-0.44358681,-0.16115415,0,0,0,,0,44,44,88,1,GLUSH,HB,old,z,./images/GLUSHHB.png,,,,,,,,,,,,,,,,,,,,,
,,,,,,,,,,,,,,,,,199228,18,2022-01-28_15h56.52.010,lexical_decision_task_DD,2021.2.3,MacIntel,60.0024001,,,,,,,,,,,1.1312,1,,,,,,,,,,,,,,z,1,1.1312,,,,,,,,-0.44358681,-0.16115415,0,0,0,,0,45,45,121,1,CEERS,HB,old,z,./images/CEERSHB.png,,,,,,,,,,,,,,,,,,,,,
,,,,,,,,,,,,,,,,,199228,18,2022-01-28_15h56.52.010,lexical_decision_task_DD,2021.2.3,MacIntel,60.0024001,,,,,,,,,,,1.0486,1,,,,,,,,,,,,,,z,1,1.0486,,,,,,,,-0.44358681,-0.16115415,0,0,0,,0,46,46,154,1,THINT,HB,old,z,./images/THINTHB.png,,,,,,,,,,,,,,,,,,,,,
,,,,,,,,,,,,,,,,,199228,18,2022-01-28_15h56.52.010,lexical_decision_task_DD,2021.2.3,MacIntel,60.0024001,,,,,,,,,,,0.7846,1,,,,,,,,,,,,,,m,1,0.7846,,,,,,,,-0.44358681,-0.16115415,0,0,0,,0,47,47,80,1,WEASEL,LB,old,m,./images/WEASELLB.png,,,,,,,,,,,,,,,,,,,,,
,,,,,,,,,,,,,,,,,199228,18,2022-01-28_15h56.52.010,lexical_decision_task_DD,2021.2.3,MacIntel,60.0024001,,,,,,,,,,,0.7977,1,,,,,,,,,,,,,,m,1,0.7977,,,,,,,,-0.44358681,-0.16115415,0,0,0,,0,48,48,58,1,BABOON,HB,old,m,./images/BABOONHB.png,,,,,,,,,,,,,,,,,,,,,
,,,,,,,,,,,,,,,,,199228,18,2022-01-28_15h56.52.010,lexical_decision_task_DD,2021.2.3,MacIntel,60.0024001,,,,,,,,,,,0.7974,1,,,,,,,,,,,,,,z,1,0.7974,,,,,,,,-0.44358681,-0.16115415,0,0,0,,0,49,49,143,1,MONGS,LB,old,z,./images/MONGSLB.png,,,,,,,,,,,,,,,,,,,,,
,,,,,,,,,,,,,,,,,199228,18,2022-01-28_15h56.52.010,lexical_decision_task_DD,2021.2.3,MacIntel,60.0024001,,,,,,,,,,,0.7307,1,,,,,,,,,,,,,,m,1,0.7307,,,,,,,,-0.44358681,-0.16115415,0,0,0,,0,50,50,25,1,WRIST,HB,old,m,./images/WRISTHB.png,,,,,,,,,,,,,,,,,,,,,
,,,,,,,,,,,,,,,,,199228,18,2022-01-28_15h56.52.010,lexical_decision_task_DD,2021.2.3,MacIntel,60.0024001,,,,,,,,,,,0.718,0,,,,,,,,,,,,,,m,0,0.718,,,,,,,,-0.44358681,-0.16115415,0,0,0,,0,51,51,139,1,BLEAR,HB,old,z,./images/BLEARHB.png,,,,,,,,,,,,,,,,,,,,,
,,,,,,,,,,,,,,,,,199228,18,2022-01-28_15h56.52.010,lexical_decision_task_DD,2021.2.3,MacIntel,60.0024001,,,,,,,,,,,0.6659,1,,,,,,,,,,,,,,m,1,0.6659,,,,,,,,-0.44358681,-0.16115415,0,0,0,,0,52,52,21,1,KIDNEY,C,old,m,./images/KIDNEY.png,,,,,,,,,,,,,,,,,,,,,
,,,,,,,,,,,,,,,,,199228,18,2022-01-28_15h56.52.010,lexical_decision_task_DD,2021.2.3,MacIntel,60.0024001,,,,,,,,,,,1.1945,0,,,,,,,,,,,,,,z,0,1.1945,,,,,,,,-0.44358681,-0.16115415,0,0,0,,0,53,53,61,1,CANDLE,HB,old,m,./images/CANDLEHB.png,,,,,,,,,,,,,,,,,,,,,
,,,,,,,,,,,,,,,,,199228,18,2022-01-28_15h56.52.010,lexical_decision_task_DD,2021.2.3,MacIntel,60.0024001,,,,,,,,,,,0.8866,1,,,,,,,,,,,,,,m,1,0.8866,,,,,,,,-0.44358681,-0.16115415,0,0,0,,0,54,54,26,1,SMOKER,LB,old,m,./images/SMOKERLB.png,,,,,,,,,,,,,,,,,,,,,
,,,,,,,,,,,,,,,,,199228,18,2022-01-28_15h56.52.010,lexical_decision_task_DD,2021.2.3,MacIntel,60.0024001,,,,,,,,,,,0.8172,1,,,,,,,,,,,,,,m,1,0.8172,,,,,,,,-0.44358681,-0.16115415,0,0,0,,0,55,55,33,1,MAGGOT,C,old,m,./images/MAGGOT.png,,,,,,,,,,,,,,,,,,,,,
,,,,,,,,,,,,,,,,,199228,18,2022-01-28_15h56.52.010,lexical_decision_task_DD,2021.2.3,MacIntel,60.0024001,,,,,,,,,,,0.4769,1,,,,,,,,,,,,,,m,1,0.4769,,,,,,,,-0.44358681,-0.16115415,0,0,0,,0,56,56,71,1,PIMPLE,LB,old,m,./images/PIMPLELB.png,,,,,,,,,,,,,,,,,,,,,
,,,,,,,,,,,,,,,,,199228,18,2022-01-28_15h56.52.010,lexical_decision_task_DD,2021.2.3,MacIntel,60.0024001,,,,,,,,,,,0.7464,1,,,,,,,,,,,,,,z,1,0.7464,,,,,,,,-0.44358681,-0.16115415,0,0,0,,0,57,57,138,1,PLICE,C,old,z,./images/PLICE.png,,,,,,,,,,,,,,,,,,,,,
,,,,,,,,,,,,,,,,,199228,18,2022-01-28_15h56.52.010,lexical_decision_task_DD,2021.2.3,MacIntel,60.0024001,,,,,,,,,,,0.5807,1,,,,,,,,,,,,,,m,1,0.5807,,,,,,,,-0.44358681,-0.16115415,0,0,0,,0,58,58,39,1,SHELF,C,old,m,./images/SHELF.png,,,,,,,,,,,,,,,,,,,,,
,,,,,,,,,,,,,,,,,199228,18,2022-01-28_15h56.52.010,lexical_decision_task_DD,2021.2.3,MacIntel,60.0024001,,,,,,,,,,,1.7987,1,,,,,,,,,,,,,,z,1,1.7987,,,,,,,,-0.44358681,-0.16115415,0,0,0,,0,59,59,100,1,DRIBS,HB,old,z,./images/DRIBSHB.png,,,,,,,,,,,,,,,,,,,,,
,,,,,,,,,,,,,,,,,199228,18,2022-01-28_15h56.52.010,lexical_decision_task_DD,2021.2.3,MacIntel,60.0024001,,,,,,,,,,,1.2327,1,,,,,,,,,,,,,,m,1,1.2327,,,,,,,,-0.44358681,-0.16115415,0,0,0,,0,60,60,40,1,SWING,HB,old,m,./images/SWINGHB.png,,,,,,,,,,,,,,,,,,,,,
,,,,,,,,,,,,,,,,,199228,18,2022-01-28_15h56.52.010,lexical_decision_task_DD,2021.2.3,MacIntel,60.0024001,,,,,,,,,,,0.8626,1,,,,,,,,,,,,,,m,1,0.8626,,,,,,,,-0.44358681,-0.16115415,0,0,0,,0,61,61,23,1,WALRUS,LB,old,m,./images/WALRUSLB.png,,,,,,,,,,,,,,,,,,,,,
,,,,,,,,,,,,,,,,,199228,18,2022-01-28_15h56.52.010,lexical_decision_task_DD,2021.2.3,MacIntel,60.0024001,,,,,,,,,,,0.8955,1,,,,,,,,,,,,,,z,1,0.8955,,,,,,,,-0.44358681,-0.16115415,0,0,0,,0,62,62,105,1,MOKER,C,old,z,./images/MOKER.png,,,,,,,,,,,,,,,,,,,,,
,,,,,,,,,,,,,,,,,199228,18,2022-01-28_15h56.52.010,lexical_decision_task_DD,2021.2.3,MacIntel,60.0024001,,,,,,,,,,,0.8449,1,,,,,,,,,,,,,,z,1,0.8449,,,,,,,,-0.44358681,-0.16115415,0,0,0,,0,63,63,95,1,HANTY,LB,old,z,./images/HANTYLB.png,,,,,,,,,,,,,,,,,,,,,
,,,,,,,,,,,,,,,,,199228,18,2022-01-28_15h56.52.010,lexical_decision_task_DD,2021.2.3,MacIntel,60.0024001,,,,,,,,,,,0.6665,1,,,,,,,,,,,,,,z,1,0.6665,,,,,,,,-0.44358681,-0.16115415,0,0,0,,0,64,64,108,1,GRUET,C,old,z,./images/GRUET.png,,,,,,,,,,,,,,,,,,,,,
,,,,,,,,,,,,,,,,,199228,18,2022-01-28_15h56.52.010,lexical_decision_task_DD,2021.2.3,MacIntel,60.0024001,,,,,,,,,,,0.7547,1,,,,,,,,,,,,,,m,1,0.7547,,,,,,,,-0.44358681,-0.16115415,0,0,0,,0,65,65,19,1,DOUGH,HB,old,m,./images/DOUGHHB.png,,,,,,,,,,,,,,,,,,,,,
,,,,,,,,,,,,,,,,,199228,18,2022-01-28_15h56.52.010,lexical_decision_task_DD,2021.2.3,MacIntel,60.0024001,,,,,,,,,,,0.5831,1,,,,,,,,,,,,,,m,1,0.5831,,,,,,,,-0.44358681,-0.16115415,0,0,0,,0,66,66,53,1,CARPET,LB,old,m,./images/CARPETLB.png,,,,,,,,,,,,,,,,,,,,,
,,,,,,,,,,,,,,,,,199228,18,2022-01-28_15h56.52.010,lexical_decision_task_DD,2021.2.3,MacIntel,60.0024001,,,,,,,,,,,0.7744,1,,,,,,,,,,,,,,z,1,0.7744,,,,,,,,-0.44358681,-0.16115415,0,0,0,,0,67,67,113,1,LINEW,LB,old,z,./images/LINEWLB.png,,,,,,,,,,,,,,,,,,,,,
,,,,,,,,,,,,,,,,,199228,18,2022-01-28_15h56.52.010,lexical_decision_task_DD,2021.2.3,MacIntel,60.0024001,,,,,,,,,,,0.9474,0,,,,,,,,,,,,,,m,0,0.9474,,,,,,,,-0.44358681,-0.16115415,0,0,0,,0,68,68,140,1,DOVET,LB,old,z,./images/DOVETLB.png,,,,,,,,,,,,,,,,,,,,,
,,,,,,,,,,,,,,,,,199228,18,2022-01-28_15h56.52.010,lexical_decision_task_DD,2021.2.3,MacIntel,60.0024001,,,,,,,,,,,0.8357,1,,,,,,,,,,,,,,m,1,0.8357,,,,,,,,-0.44358681,-0.16115415,0,0,0,,0,69,69,2,1,BEARD,LB,old,m,./images/BEARDLB.png,,,,,,,,,,,,,,,,,,,,,
,,,,,,,,,,,,,,,,,199228,18,2022-01-28_15h56.52.010,lexical_decision_task_DD,2021.2.3,MacIntel,60.0024001,,,,,,,,,,,1.0028,1,,,,,,,,,,,,,,z,1,1.0028,,,,,,,,-0.44358681,-0.16115415,0,0,0,,0,70,70,109,1,BURGE,HB,old,z,./images/BURGEHB.png,,,,,,,,,,,,,,,,,,,,,
,,,,,,,,,,,,,,,,,199228,18,2022-01-28_15h56.52.010,lexical_decision_task_DD,2021.2.3,MacIntel,60.0024001,,,,,,,,,,,0.6789,1,,,,,,,,,,,,,,z,1,0.6789,,,,,,,,-0.44358681,-0.16115415,0,0,0,,0,71,71,120,1,RINED,C,old,z,./images/RINED.png,,,,,,,,,,,,,,,,,,,,,
,,,,,,,,,,,,,,,,,199228,18,2022-01-28_15h56.52.010,lexical_decision_task_DD,2021.2.3,MacIntel,60.0024001,,,,,,,,,,,1.6684,1,,,,,,,,,,,,,,z,1,1.6684,,,,,,,,-0.44358681,-0.16115415,0,0,0,,0,72,72,157,1,INLER,HB,old,z,./images/INLERHB.png,,,,,,,,,,,,,,,,,,,,,
,,,,,,,,,,,,,,,,,199228,18,2022-01-28_15h56.52.010,lexical_decision_task_DD,2021.2.3,MacIntel,60.0024001,,,,,,,,,,,1.0098,1,,,,,,,,,,,,,,z,1,1.0098,,,,,,,,-0.44358681,-0.16115415,0,0,0,,0,73,73,112,1,MYING,HB,old,z,./images/MYINGHB.png,,,,,,,,,,,,,,,,,,,,,
,,,,,,,,,,,,,,,,,199228,18,2022-01-28_15h56.52.010,lexical_decision_task_DD,2021.2.3,MacIntel,60.0024001,,,,,,,,,,,0.7055,1,,,,,,,,,,,,,,z,1,0.7055,,,,,,,,-0.44358681,-0.16115415,0,0,0,,0,74,74,134,1,TROSS,LB,old,z,./images/TROSSLB.png,,,,,,,,,,,,,,,,,,,,,
,,,,,,,,,,,,,,,,,199228,18,2022-01-28_15h56.52.010,lexical_decision_task_DD,2021.2.3,MacIntel,60.0024001,,,,,,,,,,,0.5733,1,,,,,,,,,,,,,,m,1,0.5733,,,,,,,,-0.44358681,-0.16115415,0,0,0,,0,75,75,41,1,STRING,LB,old,m,./images/STRINGLB.png,,,,,,,,,,,,,,,,,,,,,
,,,,,,,,,,,,,,,,,199228,18,2022-01-28_15h56.52.010,lexical_decision_task_DD,2021.2.3,MacIntel,60.0024001,,,,,,,,,,,0.6167,1,,,,,,,,,,,,,,z,1,0.6167,,,,,,,,-0.44358681,-0.16115415,0,0,0,,0,76,76,129,1,PRANS,C,old,z,./images/PRANS.png,,,,,,,,,,,,,,,,,,,,,
,,,,,,,,,,,,,,,,,199228,18,2022-01-28_15h56.52.010,lexical_decision_task_DD,2021.2.3,MacIntel,60.0024001,,,,,,,,,,,1.1957,1,,,,,,,,,,,,,,z,1,1.1957,,,,,,,,-0.44358681,-0.16115415,0,0,0,,0,77,77,163,1,GAMBA,HB,old,z,./images/GAMBAHB.png,,,,,,,,,,,,,,,,,,,,,
,,,,,,,,,,,,,,,,,199228,18,2022-01-28_15h56.52.010,lexical_decision_task_DD,2021.2.3,MacIntel,60.0024001,,,,,,,,,,,0.6153,1,,,,,,,,,,,,,,m,1,0.6153,,,,,,,,-0.44358681,-0.16115415,0,0,0,,0,78,78,12,1,SHORE,C,old,m,./images/SHORE.png,,,,,,,,,,,,,,,,,,,,,
,,,,,,,,,,,,,,,,,199228,18,2022-01-28_15h56.52.010,lexical_decision_task_DD,2021.2.3,MacIntel,60.0024001,,,,,,,,,,,0.6833,1,,,,,,,,,,,,,,m,1,0.6833,,,,,,,,-0.44358681,-0.16115415,0,0,0,,0,79,79,49,1,DRUMS,HB,old,m,./images/DRUMSHB.png,,,,,,,,,,,,,,,,,,,,,
,,,,,,,,,,,,,,,,,199228,18,2022-01-28_15h56.52.010,lexical_decision_task_DD,2021.2.3,MacIntel,60.0024001,,,,,,,,,,,0.6728,1,,,,,,,,,,,,,,m,1,0.6728,,,,,,,,-0.44358681,-0.16115415,0,0,0,,0,80,80,10,1,BELLY,HB,old,m,./images/BELLYHB.png,,,,,,,,,,,,,,,,,,,,,
,,,,,,,,,,,,,,,,,199228,18,2022-01-28_15h56.52.010,lexical_decision_task_DD,2021.2.3,MacIntel,60.0024001,,,,,,,,,,,0.4493,1,,,,,,,,,,,,,,m,1,0.4493,,,,,,,,-0.44358681,-0.16115415,0,0,0,,0,81,81,56,1,PACKET,LB,old,m,./images/PACKETLB.png,,,,,,,,,,,,,,,,,,,,,
,,,,,,,,,,,,,,,,,199228,18,2022-01-28_15h56.52.010,lexical_decision_task_DD,2021.2.3,MacIntel,60.0024001,,,,,,,,,,,0.639,1,,,,,,,,,,,,,,m,1,0.639,,,,,,,,-0.44358681,-0.16115415,0,0,0,,0,82,82,79,1,CRUST,HB,old,m,./images/CRUSTHB.png,,,,,,,,,,,,,,,,,,,,,
,,,,,,,,,,,,,,,,,199228,18,2022-01-28_15h56.52.010,lexical_decision_task_DD,2021.2.3,MacIntel,60.0024001,,,,,,,,,,,1.3151,1,,,,,,,,,,,,,,z,1,1.3151,,,,,,,,-0.280385583,-0.031252068,0,0,0,space,0,83,83,91,1,SHENS,HB,old,z,./images/SHENSHB.png,16.4758,,,,,,,,,,,,,,,,,,,,
,,,,,,,,,,,,,,,,,199228,18,2022-01-28_15h56.52.010,lexical_decision_task_DD,2021.2.3,MacIntel,60.0024001,,,,,,,,,,,0.8462,1,,,,,,,,,,,,,,z,1,0.8462,,,,,,,,-0.280385583,-0.031252068,0,0,0,,0,84,84,92,1,PAIMS,LB,old,z,./images/PAIMSLB.png,,,,,,,,,,,,,,,,,,,,,
,,,,,,,,,,,,,,,,,199228,18,2022-01-28_15h56.52.010,lexical_decision_task_DD,2021.2.3,MacIntel,60.0024001,,,,,,,,,,,1.1161,1,,,,,,,,,,,,,,z,1,1.1161,,,,,,,,-0.280385583,-0.031252068,0,0,0,,0,85,85,165,1,TROWN,C,old,z,./images/TROWN.png,,,,,,,,,,,,,,,,,,,,,
,,,,,,,,,,,,,,,,,199228,18,2022-01-28_15h56.52.010,lexical_decision_task_DD,2021.2.3,MacIntel,60.0024001,,,,,,,,,,,0.8018,1,,,,,,,,,,,,,,m,1,0.8018,,,,,,,,-0.280385583,-0.031252068,0,0,0,,0,86,86,54,1,TRIPOD,C,old,m,./images/TRIPOD.png,,,,,,,,,,,,,,,,,,,,,
,,,,,,,,,,,,,,,,,199228,18,2022-01-28_15h56.52.010,lexical_decision_task_DD,2021.2.3,MacIntel,60.0024001,,,,,,,,,,,0.7264,1,,,,,,,,,,,,,,z,1,0.7264,,,,,,,,-0.280385583,-0.031252068,0,0,0,,0,87,87,150,1,NOOLS,C,old,z,./images/NOOLS.png,,,,,,,,,,,,,,,,,,,,,
,,,,,,,,,,,,,,,,,199228,18,2022-01-28_15h56.52.010,lexical_decision_task_DD,2021.2.3,MacIntel,60.0024001,,,,,,,,,,,0.6154,1,,,,,,,,,,,,,,m,1,0.6154,,,,,,,,-0.280385583,-0.031252068,0,0,0,,0,88,88,68,1,TORCH,LB,old,m,./images/TORCHLB.png,,,,,,,,,,,,,,,,,,,,,
,,,,,,,,,,,,,,,,,199228,18,2022-01-28_15h56.52.010,lexical_decision_task_DD,2021.2.3,MacIntel,60.0024001,,,,,,,,,,,1.2307,0,,,,,,,,,,,,,,z,0,1.2307,,,,,,,,-0.280385583,-0.031252068,0,0,0,,0,89,89,31,1,QUILL,HB,old,m,./images/QUILLHB.png,,,,,,,,,,,,,,,,,,,,,
,,,,,,,,,,,,,,,,,199228,18,2022-01-28_15h56.52.010,lexical_decision_task_DD,2021.2.3,MacIntel,60.0024001,,,,,,,,,,,1.3332,1,,,,,,,,,,,,,,z,1,1.3332,,,,,,,,-0.280385583,-0.031252068,0,0,0,,0,90,90,124,1,TUNCH,HB,old,z,./images/TUNCHHB.png,,,,,,,,,,,,,,,,,,,,,
,,,,,,,,,,,,,,,,,199228,18,2022-01-28_15h56.52.010,lexical_decision_task_DD,2021.2.3,MacIntel,60.0024001,,,,,,,,,,,0.6483,1,,,,,,,,,,,,,,m,1,0.6483,,,,,,,,-0.280385583,-0.031252068,0,0,0,,0,91,91,38,1,LADDER,LB,old,m,./images/LADDERLB.png,,,,,,,,,,,,,,,,,,,,,
,,,,,,,,,,,,,,,,,199228,18,2022-01-28_15h56.52.010,lexical_decision_task_DD,2021.2.3,MacIntel,60.0024001,,,,,,,,,,,0.6358,1,,,,,,,,,,,,,,z,1,0.6358,,,,,,,,-0.280385583,-0.031252068,0,0,0,,0,92,92,101,1,GLEET,LB,old,z,./images/GLEETLB.png,,,,,,,,,,,,,,,,,,,,,
,,,,,,,,,,,,,,,,,199228,18,2022-01-28_15h56.52.010,lexical_decision_task_DD,2021.2.3,MacIntel,60.0024001,,,,,,,,,,,0.6449,1,,,,,,,,,,,,,,m,1,0.6449,,,,,,,,-0.280385583,-0.031252068,0,0,0,,0,93,93,64,1,JELLY,HB,old,m,./images/JELLYHB.png,,,,,,,,,,,,,,,,,,,,,
,,,,,,,,,,,,,,,,,199228,18,2022-01-28_15h56.52.010,lexical_decision_task_DD,2021.2.3,MacIntel,60.0024001,,,,,,,,,,,0.7002,1,,,,,,,,,,,,,,z,1,0.7002,,,,,,,,-0.280385583,-0.031252068,0,0,0,,0,94,94,149,1,VEASE,LB,old,z,./images/VEASELB.png,,,,,,,,,,,,,,,,,,,,,
,,,,,,,,,,,,,,,,,199228,18,2022-01-28_15h56.52.010,lexical_decision_task_DD,2021.2.3,MacIntel,60.0024001,,,,,,,,,,,0.6655,1,,,,,,,,,,,,,,z,1,0.6655,,,,,,,,-0.280385583,-0.031252068,0,0,0,,0,95,95,158,1,EGECT,LB,old,z,./images/EGECTLB.png,,,,,,,,,,,,,,,,,,,,,
,,,,,,,,,,,,,,,,,199228,18,2022-01-28_15h56.52.010,lexical_decision_task_DD,2021.2.3,MacIntel,60.0024001,,,,,,,,,,,0.4971,1,,,,,,,,,,,,,,m,1,0.4971,,,,,,,,-0.280385583,-0.031252068,0,0,0,,0,96,96,36,1,THROAT,C,old,m,./images/THROAT.png,,,,,,,,,,,,,,,,,,,,,
,,,,,,,,,,,,,,,,,199228,18,2022-01-28_15h56.52.010,lexical_decision_task_DD,2021.2.3,MacIntel,60.0024001,,,,,,,,,,,0.7943,1,,,,,,,,,,,,,,m,1,0.7943,,,,,,,,-0.280385583,-0.031252068,0,0,0,,0,97,97,6,1,SQUARE,C,old,m,./images/SQUARE.png,,,,,,,,,,,,,,,,,,,,,
,,,,,,,,,,,,,,,,,199228,18,2022-01-28_15h56.52.010,lexical_decision_task_DD,2021.2.3,MacIntel,60.0024001,,,,,,,,,,,0.918,1,,,,,,,,,,,,,,z,1,0.918,,,,,,,,-0.280385583,-0.031252068,0,0,0,,0,98,98,85,1,CHULK,HB,old,z,./images/CHULKHB.png,,,,,,,,,,,,,,,,,,,,,
,,,,,,,,,,,,,,,,,199228,18,2022-01-28_15h56.52.010,lexical_decision_task_DD,2021.2.3,MacIntel,60.0024001,,,,,,,,,,,0.6011,1,,,,,,,,,,,,,,m,1,0.6011,,,,,,,,-0.280385583,-0.031252068,0,0,0,,0,99,99,57,1,MOOSE,C,old,m,./images/MOOSE.png,,,,,,,,,,,,,,,,,,,,,
,,,,,,,,,,,,,,,,,199228,18,2022-01-28_15h56.52.010,lexical_decision_task_DD,2021.2.3,MacIntel,60.0024001,,,,,,,,,,,0.7482,1,,,,,,,,,,,,,,z,1,0.7482,,,,,,,,-0.280385583,-0.031252068,0,0,0,,0,100,100,107,1,FASKS,LB,old,z,./images/FASKSLB.png,,,,,,,,,,,,,,,,,,,,,
,,,,,,,,,,,,,,,,,199228,18,2022-01-28_15h56.52.010,lexical_decision_task_DD,2021.2.3,MacIntel,60.0024001,,,,,,,,,,,0.5524,1,,,,,,,,,,,,,,z,1,0.5524,,,,,,,,-0.280385583,-0.031252068,0,0,0,,0,101,101,84,1,HAXES,C,old,z,./images/HAXES.png,,,,,,,,,,,,,,,,,,,,,
,,,,,,,,,,,,,,,,,199228,18,2022-01-28_15h56.52.010,lexical_decision_task_DD,2021.2.3,MacIntel,60.0024001,,,,,,,,,,,0.6477,1,,,,,,,,,,,,,,m,1,0.6477,,,,,,,,-0.280385583,-0.031252068,0,0,0,,0,102,102,20,1,CRADLE,LB,old,m,./images/CRADLELB.png,,,,,,,,,,,,,,,,,,,,,
,,,,,,,,,,,,,,,,,199228,18,2022-01-28_15h56.52.010,lexical_decision_task_DD,2021.2.3,MacIntel,60.0024001,,,,,,,,,,,1.1694,1,,,,,,,,,,,,,,z,1,1.1694,,,,,,,,-0.280385583,-0.031252068,0,0,0,,0,103,103,133,1,POWDY,HB,old,z,./images/POWDYHB.png,,,,,,,,,,,,,,,,,,,,,
,,,,,,,,,,,,,,,,,199228,18,2022-01-28_15h56.52.010,lexical_decision_task_DD,2021.2.3,MacIntel,60.0024001,,,,,,,,,,,0.6523,1,,,,,,,,,,,,,,z,1,0.6523,,,,,,,,-0.280385583,-0.031252068,0,0,0,,0,104,104,111,1,HOSSE,C,old,z,./images/HOSSE.png,,,,,,,,,,,,,,,,,,,,,
,,,,,,,,,,,,,,,,,199228,18,2022-01-28_15h56.52.010,lexical_decision_task_DD,2021.2.3,MacIntel,60.0024001,,,,,,,,,,,1.0305,1,,,,,,,,,,,,,,m,1,1.0305,,,,,,,,-0.280385583,-0.031252068,0,0,0,,0,105,105,76,1,INFANT,HB,old,m,./images/INFANTHB.png,,,,,,,,,,,,,,,,,,,,,
,,,,,,,,,,,,,,,,,199228,18,2022-01-28_15h56.52.010,lexical_decision_task_DD,2021.2.3,MacIntel,60.0024001,,,,,,,,,,,0.5665,1,,,,,,,,,,,,,,z,1,0.5665,,,,,,,,-0.280385583,-0.031252068,0,0,0,,0,106,106,87,1,TRING,C,old,z,./images/TRING.png,,,,,,,,,,,,,,,,,,,,,
,,,,,,,,,,,,,,,,,199228,18,2022-01-28_15h56.52.010,lexical_decision_task_DD,2021.2.3,MacIntel,60.0024001,,,,,,,,,,,0.8255,1,,,,,,,,,,,,,,m,1,0.8255,,,,,,,,-0.280385583,-0.031252068,0,0,0,,0,107,107,7,1,PAINT,HB,old,m,./images/PAINTHB.png,,,,,,,,,,,,,,,,,,,,,
,,,,,,,,,,,,,,,,,199228,18,2022-01-28_15h56.52.010,lexical_decision_task_DD,2021.2.3,MacIntel,60.0024001,,,,,,,,,,,0.7629,0,,,,,,,,,,,,,,m,0,0.7629,,,,,,,,-0.280385583,-0.031252068,0,0,0,,0,108,108,99,1,BACKY,C,old,z,./images/BACKY.png,,,,,,,,,,,,,,,,,,,,,
,,,,,,,,,,,,,,,,,199228,18,2022-01-28_15h56.52.010,lexical_decision_task_DD,2021.2.3,MacIntel,60.0024001,,,,,,,,,,,0.5188,1,,,,,,,,,,,,,,m,1,0.5188,,,,,,,,-0.280385583,-0.031252068,0,0,0,,0,109,109,48,1,SPORT,C,old,m,./images/SPORT.png,,,,,,,,,,,,,,,,,,,,,
,,,,,,,,,,,,,,,,,199228,18,2022-01-28_15h56.52.010,lexical_decision_task_DD,2021.2.3,MacIntel,60.0024001,,,,,,,,,,,1.4339,1,,,,,,,,,,,,,,z,1,1.4339,,,,,,,,-0.280385583,-0.031252068,0,0,0,,0,110,110,142,1,PLASK,HB,old,z,./images/PLASKHB.png,,,,,,,,,,,,,,,,,,,,,
,,,,,,,,,,,,,,,,,199228,18,2022-01-28_15h56.52.010,lexical_decision_task_DD,2021.2.3,MacIntel,60.0024001,,,,,,,,,,,1.1365,0,,,,,,,,,,,,,,z,0,1.1365,,,,,,,,-0.280385583,-0.031252068,0,0,0,,0,111,111,43,1,MOSQUE,HB,old,m,./images/MOSQUEHB.png,,,,,,,,,,,,,,,,,,,,,
,,,,,,,,,,,,,,,,,199228,18,2022-01-28_15h56.52.010,lexical_decision_task_DD,2021.2.3,MacIntel,60.0024001,,,,,,,,,,,0.6492,1,,,,,,,,,,,,,,z,1,0.6492,,,,,,,,-0.280385583,-0.031252068,0,0,0,,0,112,112,102,1,DULLE,C,old,z,./images/DULLE.png,,,,,,,,,,,,,,,,,,,,,
,,,,,,,,,,,,,,,,,199228,18,2022-01-28_15h56.52.010,lexical_decision_task_DD,2021.2.3,MacIntel,60.0024001,,,,,,,,,,,0.5662,1,,,,,,,,,,,,,,m,1,0.5662,,,,,,,,-0.280385583,-0.031252068,0,0,0,,0,113,113,29,1,CRUMB,LB,old,m,./images/CRUMBLB.png,,,,,,,,,,,,,,,,,,,,,
,,,,,,,,,,,,,,,,,199228,18,2022-01-28_15h56.52.010,lexical_decision_task_DD,2021.2.3,MacIntel,60.0024001,,,,,,,,,,,0.683,1,,,,,,,,,,,,,,m,1,0.683,,,,,,,,-0.280385583,-0.031252068,0,0,0,,0,114,114,9,1,RHINO,C,old,m,./images/RHINO.png,,,,,,,,,,,,,,,,,,,,,
,,,,,,,,,,,,,,,,,199228,18,2022-01-28_15h56.52.010,lexical_decision_task_DD,2021.2.3,MacIntel,60.0024001,,,,,,,,,,,1.4723,1,,,,,,,,,,,,,,z,1,1.4723,,,,,,,,-0.280385583,-0.031252068,0,0,0,,0,115,115,151,1,TINKY,HB,old,z,./images/TINKYHB.png,,,,,,,,,,,,,,,,,,,,,
,,,,,,,,,,,,,,,,,199228,18,2022-01-28_15h56.52.010,lexical_decision_task_DD,2021.2.3,MacIntel,60.0024001,,,,,,,,,,,0.7837,1,,,,,,,,,,,,,,z,1,0.7837,,,,,,,,-0.280385583,-0.031252068,0,0,0,,0,116,116,116,1,BALGY,LB,old,z,./images/BALGYLB.png,,,,,,,,,,,,,,,,,,,,,
,,,,,,,,,,,,,,,,,199228,18,2022-01-28_15h56.52.010,lexical_decision_task_DD,2021.2.3,MacIntel,60.0024001,,,,,,,,,,,0.7374,0,,,,,,,,,,,,,,m,0,0.7374,,,,,,,,-0.280385583,-0.031252068,0,0,0,,0,117,117,159,1,CUDDY,C,old,z,./images/CUDDY.png,,,,,,,,,,,,,,,,,,,,,
,,,,,,,,,,,,,,,,,199228,18,2022-01-28_15h56.52.010,lexical_decision_task_DD,2021.2.3,MacIntel,60.0024001,,,,,,,,,,,1,1,,,,,,,,,,,,,,z,1,1,,,,,,,,-0.280385583,-0.031252068,0,0,0,,0,118,118,144,1,NAIRY,C,old,z,./images/NAIRY.png,,,,,,,,,,,,,,,,,,,,,
,,,,,,,,,,,,,,,,,199228,18,2022-01-28_15h56.52.010,lexical_decision_task_DD,2021.2.3,MacIntel,60.0024001,,,,,,,,,,,1.1827,1,,,,,,,,,,,,,,z,1,1.1827,,,,,,,,-0.280385583,-0.031252068,0,0,0,,0,119,119,127,1,NINDY,HB,old,z,./images/NINDYHB.png,,,,,,,,,,,,,,,,,,,,,
,,,,,,,,,,,,,,,,,199228,18,2022-01-28_15h56.52.010,lexical_decision_task_DD,2021.2.3,MacIntel,60.0024001,,,,,,,,,,,1.2628,1,,,,,,,,,,,,,,z,1,1.2628,,,,,,,,-0.280385583,-0.031252068,0,0,0,,0,120,120,94,1,BLANS,HB,old,z,./images/BLANSHB.png,,,,,,,,,,,,,,,,,,,,,
,,,,,,,,,,,,,,,,,199228,18,2022-01-28_15h56.52.010,lexical_decision_task_DD,2021.2.3,MacIntel,60.0024001,,,,,,,,,,,0.6522,1,,,,,,,,,,,,,,z,1,0.6522,,,,,,,,-0.280385583,-0.031252068,0,0,0,,0,121,121,125,1,MOOKY,LB,old,z,./images/MOOKYLB.png,,,,,,,,,,,,,,,,,,,,,
,,,,,,,,,,,,,,,,,199228,18,2022-01-28_15h56.52.010,lexical_decision_task_DD,2021.2.3,MacIntel,60.0024001,,,,,,,,,,,0.3672,1,,,,,,,,,,,,,,z,1,0.3672,,,,,,,,-0.280385583,-0.031252068,0,0,0,,0,122,122,126,1,GUELS,C,old,z,./images/GUELS.png,,,,,,,,,,,,,,,,,,,,,
,,,,,,,,,,,,,,,,,199228,18,2022-01-28_15h56.52.010,lexical_decision_task_DD,2021.2.3,MacIntel,60.0024001,,,,,,,,,,,0.5833,1,,,,,,,,,,,,,,z,1,0.5833,,,,,,,,-0.280385583,-0.031252068,0,0,0,,0,123,123,89,1,DRIEK,LB,old,z,./images/DRIEKLB.png,,,,,,,,,,,,,,,,,,,,,
,,,,,,,,,,,,,,,,,199228,18,2022-01-28_15h56.52.010,lexical_decision_task_DD,2021.2.3,MacIntel,60.0024001,,,,,,,,,,,0.6153,1,,,,,,,,,,,,,,m,1,0.6153,,,,,,,,-0.280385583,-0.031252068,0,0,0,,0,124,124,27,1,ATTIC,C,old,m,./images/ATTIC.png,,,,,,,,,,,,,,,,,,,,,
,,,,,,,,,,,,,,,,,199228,18,2022-01-28_15h56.52.010,lexical_decision_task_DD,2021.2.3,MacIntel,60.0024001,,,,,,,,,,,1.1819,1,,,,,,,,,,,,,,m,1,1.1819,,,,,,,,-0.280385583,-0.031252068,0,0,0,space,0,125,125,52,1,BANNER,HB,old,m,./images/BANNERHB.png,17.8678,,,,,,,,,,,,,,,,,,,,
,,,,,,,,,,,,,,,,,199228,18,2022-01-28_15h56.52.010,lexical_decision_task_DD,2021.2.3,MacIntel,60.0024001,,,,,,,,,,,0.5887,1,,,,,,,,,,,,,,m,1,0.5887,,,,,,,,-0.280385583,-0.031252068,0,0,0,,0,126,126,45,1,KITTEN,C,old,m,./images/KITTEN.png,,,,,,,,,,,,,,,,,,,,,
,,,,,,,,,,,,,,,,,199228,18,2022-01-28_15h56.52.010,lexical_decision_task_DD,2021.2.3,MacIntel,60.0024001,,,,,,,,,,,0.5634,1,,,,,,,,,,,,,,m,1,0.5634,,,,,,,,-0.280385583,-0.031252068,0,0,0,,0,127,127,15,1,GREASE,C,old,m,./images/GREASE.png,,,,,,,,,,,,,,,,,,,,,
,,,,,,,,,,,,,,,,,199228,18,2022-01-28_15h56.52.010,lexical_decision_task_DD,2021.2.3,MacIntel,60.0024001,,,,,,,,,,,0.5685,1,,,,,,,,,,,,,,m,1,0.5685,,,,,,,,-0.280385583,-0.031252068,0,0,0,,0,128,128,18,1,JAGUAR,C,old,m,./images/JAGUAR.png,,,,,,,,,,,,,,,,,,,,,
,,,,,,,,,,,,,,,,,199228,18,2022-01-28_15h56.52.010,lexical_decision_task_DD,2021.2.3,MacIntel,60.0024001,,,,,,,,,,,0.6436,1,,,,,,,,,,,,,,z,1,0.6436,,,,,,,,-0.280385583,-0.031252068,0,0,0,,0,129,129,155,1,CANGY,LB,old,z,./images/CANGYLB.png,,,,,,,,,,,,,,,,,,,,,
,,,,,,,,,,,,,,,,,199228,18,2022-01-28_15h56.52.010,lexical_decision_task_DD,2021.2.3,MacIntel,60.0024001,,,,,,,,,,,0.6267,1,,,,,,,,,,,,,,m,1,0.6267,,,,,,,,-0.280385583,-0.031252068,0,0,0,,0,130,130,24,1,SCREW,C,old,m,./images/SCREW.png,,,,,,,,,,,,,,,,,,,,,
,,,,,,,,,,,,,,,,,199228,18,2022-01-28_15h56.52.010,lexical_decision_task_DD,2021.2.3,MacIntel,60.0024001,,,,,,,,,,,0.818,1,,,,,,,,,,,,,,z,1,0.818,,,,,,,,-0.280385583,-0.031252068,0,0,0,,0,131,131,130,1,CRILL,HB,old,z,./images/CRILLHB.png,,,,,,,,,,,,,,,,,,,,,
,,,,,,,,,,,,,,,,,199228,18,2022-01-28_15h56.52.010,lexical_decision_task_DD,2021.2.3,MacIntel,60.0024001,,,,,,,,,,,0.6653,1,,,,,,,,,,,,,,m,1,0.6653,,,,,,,,-0.280385583,-0.031252068,0,0,0,,0,132,132,8,1,TULIP,LB,old,m,./images/TULIPLB.png,,,,,,,,,,,,,,,,,,,,,
,,,,,,,,,,,,,,,,,199228,18,2022-01-28_15h56.52.010,lexical_decision_task_DD,2021.2.3,MacIntel,60.0024001,,,,,,,,,,,1.0106,1,,,,,,,,,,,,,,z,1,1.0106,,,,,,,,-0.280385583,-0.031252068,0,0,0,,0,133,133,145,1,LAMEL,HB,old,z,./images/LAMELHB.png,,,,,,,,,,,,,,,,,,,,,
,,,,,,,,,,,,,,,,,199228,18,2022-01-28_15h56.52.010,lexical_decision_task_DD,2021.2.3,MacIntel,60.0024001,,,,,,,,,,,0.4966,1,,,,,,,,,,,,,,m,1,0.4966,,,,,,,,-0.280385583,-0.031252068,0,0,0,,0,134,134,30,1,STORM,C,old,m,./images/STORM.png,,,,,,,,,,,,,,,,,,,,,
,,,,,,,,,,,,,,,,,199228,18,2022-01-28_15h56.52.010,lexical_decision_task_DD,2021.2.3,MacIntel,60.0024001,,,,,,,,,,,0.6313,0,,,,,,,,,,,,,,m,0,0.6313,,,,,,,,-0.280385583,-0.031252068,0,0,0,,0,135,135,166,1,SHORY,HB,old,z,./images/SHORYHB.png,,,,,,,,,,,,,,,,,,,,,
,,,,,,,,,,,,,,,,,199228,18,2022-01-28_15h56.52.010,lexical_decision_task_DD,2021.2.3,MacIntel,60.0024001,,,,,,,,,,,0.4528,1,,,,,,,,,,,,,,m,1,0.4528,,,,,,,,-0.280385583,-0.031252068,0,0,0,,0,136,136,62,1,PURSE,LB,old,m,./images/PURSELB.png,,,,,,,,,,,,,,,,,,,,,
,,,,,,,,,,,,,,,,,199228,18,2022-01-28_15h56.52.010,lexical_decision_task_DD,2021.2.3,MacIntel,60.0024001,,,,,,,,,,,0.5255,1,,,,,,,,,,,,,,m,1,0.5255,,,,,,,,-0.280385583,-0.031252068,0,0,0,,0,137,137,3,1,FINGER,C,old,m,./images/FINGER.png,,,,,,,,,,,,,,,,,,,,,
,,,,,,,,,,,,,,,,,199228,18,2022-01-28_15h56.52.010,lexical_decision_task_DD,2021.2.3,MacIntel,60.0024001,,,,,,,,,,,0.7493,1,,,,,,,,,,,,,,m,1,0.7493,,,,,,,,-0.280385583,-0.031252068,0,0,0,,0,138,138,37,1,BIRTH,HB,old,m,./images/BIRTHHB.png,,,,,,,,,,,,,,,,,,,,,
,,,,,,,,,,,,,,,,,199228,18,2022-01-28_15h56.52.010,lexical_decision_task_DD,2021.2.3,MacIntel,60.0024001,,,,,,,,,,,0.4989,0,,,,,,,,,,,,,,m,0,0.4989,,,,,,,,-0.280385583,-0.031252068,0,0,0,,0,139,139,110,1,CRUNK,LB,old,z,./images/CRUNKLB.png,,,,,,,,,,,,,,,,,,,,,
,,,,,,,,,,,,,,,,,199228,18,2022-01-28_15h56.52.010,lexical_decision_task_DD,2021.2.3,MacIntel,60.0024001,,,,,,,,,,,0.5146,1,,,,,,,,,,,,,,m,1,0.5146,,,,,,,,-0.280385583,-0.031252068,0,0,0,,0,140,140,0,1,TOMATO,C,old,m,./images/TOMATO.png,,,,,,,,,,,,,,,,,,,,,
,,,,,,,,,,,,,,,,,199228,18,2022-01-28_15h56.52.010,lexical_decision_task_DD,2021.2.3,MacIntel,60.0024001,,,,,,,,,,,0.6509,1,,,,,,,,,,,,,,m,1,0.6509,,,,,,,,-0.280385583,-0.031252068,0,0,0,,0,141,141,13,1,MOTOR,HB,old,m,./images/MOTORHB.png,,,,,,,,,,,,,,,,,,,,,
,,,,,,,,,,,,,,,,,199228,18,2022-01-28_15h56.52.010,lexical_decision_task_DD,2021.2.3,MacIntel,60.0024001,,,,,,,,,,,0.5999,1,,,,,,,,,,,,,,z,1,0.5999,,,,,,,,-0.280385583,-0.031252068,0,0,0,,0,142,142,141,1,PLEET,C,old,z,./images/PLEET.png,,,,,,,,,,,,,,,,,,,,,
,,,,,,,,,,,,,,,,,199228,18,2022-01-28_15h56.52.010,lexical_decision_task_DD,2021.2.3,MacIntel,60.0024001,,,,,,,,,,,0.8197,1,,,,,,,,,,,,,,m,1,0.8197,,,,,,,,-0.280385583,-0.031252068,0,0,0,,0,143,143,70,1,URINE,HB,old,m,./images/URINEHB.png,,,,,,,,,,,,,,,,,,,,,
,,,,,,,,,,,,,,,,,199228,18,2022-01-28_15h56.52.010,lexical_decision_task_DD,2021.2.3,MacIntel,60.0024001,,,,,,,,,,,0.664,1,,,,,,,,,,,,,,m,1,0.664,,,,,,,,-0.280385583,-0.031252068,0,0,0,,0,144,144,73,1,SNACK,HB,old,m,./images/SNACKHB.png,,,,,,,,,,,,,,,,,,,,,
,,,,,,,,,,,,,,,,,199228,18,2022-01-28_15h56.52.010,lexical_decision_task_DD,2021.2.3,MacIntel,60.0024001,,,,,,,,,,,0.5524,1,,,,,,,,,,,,,,z,1,0.5524,,,,,,,,-0.280385583,-0.031252068,0,0,0,,0,145,145,114,1,RIKES,C,old,z,./images/RIKES.png,,,,,,,,,,,,,,,,,,,,,
,,,,,,,,,,,,,,,,,199228,18,2022-01-28_15h56.52.010,lexical_decision_task_DD,2021.2.3,MacIntel,60.0024001,,,,,,,,,,,0.5292,1,,,,,,,,,,,,,,m,1,0.5292,,,,,,,,-0.280385583,-0.031252068,0,0,0,,0,146,146,81,1,POODLE,C,old,m,./images/POODLE.png,,,,,,,,,,,,,,,,,,,,,
,,,,,,,,,,,,,,,,,199228,18,2022-01-28_15h56.52.010,lexical_decision_task_DD,2021.2.3,MacIntel,60.0024001,,,,,,,,,,,0.6224,1,,,,,,,,,,,,,,z,1,0.6224,,,,,,,,-0.280385583,-0.031252068,0,0,0,,0,147,147,147,1,ZOLES,C,old,z,./images/ZOLES.png,,,,,,,,,,,,,,,,,,,,,
,,,,,,,,,,,,,,,,,199228,18,2022-01-28_15h56.52.010,lexical_decision_task_DD,2021.2.3,MacIntel,60.0024001,,,,,,,,,,,0.4846,1,,,,,,,,,,,,,,m,1,0.4846,,,,,,,,-0.280385583,-0.031252068,0,0,0,,0,148,148,51,1,ONION,C,old,m,./images/ONION.png,,,,,,,,,,,,,,,,,,,,,
,,,,,,,,,,,,,,,,,199228,18,2022-01-28_15h56.52.010,lexical_decision_task_DD,2021.2.3,MacIntel,60.0024001,,,,,,,,,,,0.5727,1,,,,,,,,,,,,,,z,1,0.5727,,,,,,,,-0.280385583,-0.031252068,0,0,0,,0,149,149,161,1,BLAPS,LB,old,z,./images/BLAPSLB.png,,,,,,,,,,,,,,,,,,,,,
,,,,,,,,,,,,,,,,,199228,18,2022-01-28_15h56.52.010,lexical_decision_task_DD,2021.2.3,MacIntel,60.0024001,,,,,,,,,,,0.6138,1,,,,,,,,,,,,,,m,1,0.6138,,,,,,,,-0.280385583,-0.031252068,0,0,0,,0,150,150,42,1,FOLDER,C,old,m,./images/FOLDER.png,,,,,,,,,,,,,,,,,,,,,
,,,,,,,,,,,,,,,,,199228,18,2022-01-28_15h56.52.010,lexical_decision_task_DD,2021.2.3,MacIntel,60.0024001,,,,,,,,,,,0.7256,1,,,,,,,,,,,,,,z,1,0.7256,,,,,,,,-0.280385583,-0.031252068,0,0,0,,0,151,151,148,1,JOMS,HB,old,z,./images/JOMSHB.png,,,,,,,,,,,,,,,,,,,,,
,,,,,,,,,,,,,,,,,199228,18,2022-01-28_15h56.52.010,lexical_decision_task_DD,2021.2.3,MacIntel,60.0024001,,,,,,,,,,,0.5188,1,,,,,,,,,,,,,,m,1,0.5188,,,,,,,,-0.280385583,-0.031252068,0,0,0,,0,152,152,78,1,LITTER,C,old,m,./images/LITTER.png,,,,,,,,,,,,,,,,,,,,,
,,,,,,,,,,,,,,,,,199228,18,2022-01-28_15h56.52.010,lexical_decision_task_DD,2021.2.3,MacIntel,60.0024001,,,,,,,,,,,0.9717,1,,,,,,,,,,,,,,m,1,0.9717,,,,,,,,-0.280385583,-0.031252068,0,0,0,,0,153,153,34,1,CANYON,HB,old,m,./images/CANYONHB.png,,,,,,,,,,,,,,,,,,,,,
,,,,,,,,,,,,,,,,,199228,18,2022-01-28_15h56.52.010,lexical_decision_task_DD,2021.2.3,MacIntel,60.0024001,,,,,,,,,,,0.6477,1,,,,,,,,,,,,,,z,1,0.6477,,,,,,,,-0.280385583,-0.031252068,0,0,0,,0,154,154,152,1,FRAIN,LB,old,z,./images/FRAINLB.png,,,,,,,,,,,,,,,,,,,,,
,,,,,,,,,,,,,,,,,199228,18,2022-01-28_15h56.52.010,lexical_decision_task_DD,2021.2.3,MacIntel,60.0024001,,,,,,,,,,,0.6899,1,,,,,,,,,,,,,,z,1,0.6899,,,,,,,,-0.280385583,-0.031252068,0,0,0,,0,155,155,86,1,AIFED,LB,old,z,./images/AIFEDLB.png,,,,,,,,,,,,,,,,,,,,,
,,,,,,,,,,,,,,,,,199228,18,2022-01-28_15h56.52.010,lexical_decision_task_DD,2021.2.3,MacIntel,60.0024001,,,,,,,,,,,1.1517,1,,,,,,,,,,,,,,m,1,1.1517,,,,,,,,-0.280385583,-0.031252068,0,0,0,,0,156,156,46,1,PEARL,HB,old,m,./images/PEARLHB.png,,,,,,,,,,,,,,,,,,,,,
,,,,,,,,,,,,,,,,,199228,18,2022-01-28_15h56.52.010,lexical_decision_task_DD,2021.2.3,MacIntel,60.0024001,,,,,,,,,,,0.8749,1,,,,,,,,,,,,,,z,1,0.8749,,,,,,,,-0.280385583,-0.031252068,0,0,0,,0,157,157,136,1,WERVE,HB,old,z,./images/WERVEHB.png,,,,,,,,,,,,,,,,,,,,,
,,,,,,,,,,,,,,,,,199228,18,2022-01-28_15h56.52.010,lexical_decision_task_DD,2021.2.3,MacIntel,60.0024001,,,,,,,,,,,0.8147,1,,,,,,,,,,,,,,z,1,0.8147,,,,,,,,-0.280385583,-0.031252068,0,0,0,,0,158,158,131,1,NACES,LB,old,z,./images/NACESLB.png,,,,,,,,,,,,,,,,,,,,,
,,,,,,,,,,,,,,,,,199228,18,2022-01-28_15h56.52.010,lexical_decision_task_DD,2021.2.3,MacIntel,60.0024001,,,,,,,,,,,0.9269,1,,,,,,,,,,,,,,m,1,0.9269,,,,,,,,-0.280385583,-0.031252068,0,0,0,,0,159,159,69,1,COOKER,C,old,m,./images/COOKER.png,,,,,,,,,,,,,,,,,,,,,
,,,,,,,,,,,,,,,,,199228,18,2022-01-28_15h56.52.010,lexical_decision_task_DD,2021.2.3,MacIntel,60.0024001,,,,,,,,,,,0.716,0,,,,,,,,,,,,,,m,0,0.716,,,,,,,,-0.280385583,-0.031252068,0,0,0,,0,160,160,106,1,CLUMS,HB,old,z,./images/CLUMSHB.png,,,,,,,,,,,,,,,,,,,,,
,,,,,,,,,,,,,,,,,199228,18,2022-01-28_15h56.52.010,lexical_decision_task_DD,2021.2.3,MacIntel,60.0024001,,,,,,,,,,,0.6461,1,,,,,,,,,,,,,,m,1,0.6461,,,,,,,,-0.280385583,-0.031252068,0,0,0,,0,161,161,17,1,SKIING,LB,old,m,./images/SKIINGLB.png,,,,,,,,,,,,,,,,,,,,,
,,,,,,,,,,,,,,,,,199228,18,2022-01-28_15h56.52.010,lexical_decision_task_DD,2021.2.3,MacIntel,60.0024001,,,,,,,,,,,0.789,1,,,,,,,,,,,,,,m,1,0.789,,,,,,,,-0.280385583,-0.031252068,0,0,0,,0,162,162,4,1,MUSCLE,HB,old,m,./images/MUSCLEHB.png,,,,,,,,,,,,,,,,,,,,,
,,,,,,,,,,,,,,,,,199228,18,2022-01-28_15h56.52.010,lexical_decision_task_DD,2021.2.3,MacIntel,60.0024001,,,,,,,,,,,0.6506,1,,,,,,,,,,,,,,m,1,0.6506,,,,,,,,-0.280385583,-0.031252068,0,0,0,,0,163,163,63,1,MIRROR,C,old,m,./images/MIRROR.png,,,,,,,,,,,,,,,,,,,,,
,,,,,,,,,,,,,,,,,199228,18,2022-01-28_15h56.52.010,lexical_decision_task_DD,2021.2.3,MacIntel,60.0024001,,,,,,,,,,,1.0851,1,,,,,,,,,,,,,,z,1,1.0851,,,,,,,,-0.280385583,-0.031252068,0,0,0,,0,164,164,118,1,BAVEL,HB,old,z,./images/BAVELHB.png,,,,,,,,,,,,,,,,,,,,,
,,,,,,,,,,,,,,,,,199228,18,2022-01-28_15h56.52.010,lexical_decision_task_DD,2021.2.3,MacIntel,60.0024001,,,,,,,,,,,1.7827,0,,,,,,,,,,,,,,z,0,1.7827,,,,,,,,-0.280385583,-0.031252068,0,0,0,,0,165,165,16,1,PENCE,HB,old,m,./images/PENCEHB.png,,,,,,,,,,,,,,,,,,,,,
,,,,,,,,,,,,,,,,,199228,18,2022-01-28_15h56.52.010,lexical_decision_task_DD,2021.2.3,MacIntel,60.0024001,,,,,,,,,,,0.604,1,,,,,,,,,,,,,,m,1,0.604,,,,,,,,-0.280385583,-0.031252068,0,0,0,,0,166,166,75,1,GRAIN,C,old,m,./images/GRAIN.png,,,,,,,,,,,,,,,,,,,,,
,,,,,,,,,,,,,,,,,199228,18,2022-01-28_15h56.52.010,lexical_decision_task_DD,2021.2.3,MacIntel,60.0024001,,,,,,,,,,,0.7564,1,,,,,,,,,,,,,,z,1,0.7564,,,,,,,,-0.280385583,-0.031252068,0,0,0,,0,167,167,132,1,SCIFF,C,old,z,./images/SCIFF.png,,,,,,,,,,,,,,,,,,,,,
space,13.062,-0.280385583,-0.031252068,0,0,0,,,,,,1,test,"In the next phase you will be presented with the words from the the first phase. Your job is to decide whether you remember seeing the word or not. If you remember seeing the word press ""old"" or type ""m"". If you do not remember seeing the word press ""new"" or type ""z"". Please press the space bar or click on continue to begin. ",,,199228,18,2022-01-28_15h56.52.010,lexical_decision_task_DD,2021.2.3,MacIntel,60.0024001,,,,,,,,,,,,,,,,,,,,,,,,,,,,,,,,,,,,,,,,,,,,,,,,,,,,,0,0,0,0,1,,,,,,,,,,,,,,,
space,1.9475,-0.280385583,-0.031252068,0,0,0,,,,,,1,test,"In the next phase you will be presented with the words from the the first phase. Your job is to decide whether you remember seeing the word or not. If you remember seeing the word press ""old"" or type ""m"". If you do not remember seeing the word press ""new"" or type ""z"". Please press the space bar or click on continue to begin. ",,,199228,18,2022-01-28_15h56.52.010,lexical_decision_task_DD,2021.2.3,MacIntel,60.0024001,,,,,,,,,,,,,,,,,,,,,,,,,,,,,,,,,,,,,,,,,,,,,,,,,,,,,1,0,1,0,1,,,,,,,,,,,,,,,
space,1.4513,-0.280385583,-0.031252068,0,0,0,,,,,,1,test,"In the next phase you will be presented with the words from the the first phase. Your job is to decide whether you remember seeing the word or not. If you remember seeing the word press ""old"" or type ""m"". If you do not remember seeing the word press ""new"" or type ""z"". Please press the space bar or click on continue to begin. ",,,199228,18,2022-01-28_15h56.52.010,lexical_decision_task_DD,2021.2.3,MacIntel,60.0024001,,,,,,,,,,,,,,,,,,,,,,,,,,,,,,,,,,,,,,,,,,,,,,,,,,,,,2,0,2,0,1,,,,,,,,,,,,,,,
space,3.985,-0.266530438,-0.080714445,0,0,0,,,,,,1,test,"In the next phase you will be presented with the words from the the first phase. Your job is to decide whether you remember seeing the word or not. If you remember seeing the word press ""old"" or type ""m"". If you do not remember seeing the word press ""new"" or type ""z"". Please press the space bar or click on continue to begin. ",,,199228,18,2022-01-28_15h56.52.010,lexical_decision_task_DD,2021.2.3,MacIntel,60.0024001,,,,,,,,,,,,,,,,,,,,,,,,,,,,,,,,,,,,,,,,,,,,,,,,,,,,,3,0,3,0,1,,,,,,,,,,,,,,,
space,0.5423,-0.266530438,-0.080714445,0,0,0,,,,,,1,test,"In the next phase you will be presented with the words from the the first phase. Your job is to decide whether you remember seeing the word or not. If you remember seeing the word press ""old"" or type ""m"". If you do not remember seeing the word press ""new"" or type ""z"". Please press the space bar or click on continue to begin. ",,,199228,18,2022-01-28_15h56.52.010,lexical_decision_task_DD,2021.2.3,MacIntel,60.0024001,,,,,,,,,,,,,,,,,,,,,,,,,,,,,,,,,,,,,,,,,,,,,,,,,,,,,4,0,4,0,1,,,,,,,,,,,,,,,
,,,,,,,,,,,,,,,,,199228,18,2022-01-28_15h56.52.010,lexical_decision_task_DD,2021.2.3,MacIntel,60.0024001,,,,,,,,,,,1.8534,1,,,,,,,,,,,,,,,,,,,,,,,,-0.266530438,-0.080714445,0,0,0,,,,,,,MAMMAL,LB,z,m,./images/MAMMALLB.png,,,,,,,z,1,1.8534,,,,,,,,0,0,0,146,1
,,,,,,,,,,,,,,,,,199228,18,2022-01-28_15h56.52.010,lexical_decision_task_DD,2021.2.3,MacIntel,60.0024001,,,,,,,,,,,1.4277,1,,,,,,,,,,,,,,,,,,,,,,,,-0.266530438,-0.080714445,0,0,0,,,,,,,SNAKE,HB,z,m,./images/SNAKEHB.png,,,,,,,z,1,1.4277,,,,,,,,0,1,1,124,1
,,,,,,,,,,,,,,,,,199228,18,2022-01-28_15h56.52.010,lexical_decision_task_DD,2021.2.3,MacIntel,60.0024001,,,,,,,,,,,0.8041,1,,,,,,,,,,,,,,,,,,,,,,,,-0.266530438,-0.080714445,0,0,0,,,,,,,BURIAL,LB,m,m,./images/BURIALLB.png,,,,,,,m,1,0.8041,,,,,,,,0,2,2,59,1
,,,,,,,,,,,,,,,,,199228,18,2022-01-28_15h56.52.010,lexical_decision_task_DD,2021.2.3,MacIntel,60.0024001,,,,,,,,,,,1.5662,1,,,,,,,,,,,,,,,,,,,,,,,,-0.266530438,-0.080714445,0,0,0,,,,,,,NOOSE,C,m,m,./images/NOOSE.png,,,,,,,m,1,1.5662,,,,,,,,0,3,3,72,1
,,,,,,,,,,,,,,,,,199228,18,2022-01-28_15h56.52.010,lexical_decision_task_DD,2021.2.3,MacIntel,60.0024001,,,,,,,,,,,0.8301,1,,,,,,,,,,,,,,,,,,,,,,,,-0.266530438,-0.080714445,0,0,0,,,,,,,SNACK,HB,m,m,./images/SNACKHB.png,,,,,,,m,1,0.8301,,,,,,,,0,4,4,73,1
,,,,,,,,,,,,,,,,,199228,18,2022-01-28_15h56.52.010,lexical_decision_task_DD,2021.2.3,MacIntel,60.0024001,,,,,,,,,,,0.9288,1,,,,,,,,,,,,,,,,,,,,,,,,-0.266530438,-0.080714445,0,0,0,,,,,,,JUMPER,LB,z,m,./images/JUMPERLB.png,,,,,,,z,1,0.9288,,,,,,,,0,5,5,158,1
,,,,,,,,,,,,,,,,,199228,18,2022-01-28_15h56.52.010,lexical_decision_task_DD,2021.2.3,MacIntel,60.0024001,,,,,,,,,,,0.7013,0,,,,,,,,,,,,,,,,,,,,,,,,-0.266530438,-0.080714445,0,0,0,,,,,,,BUBBLE,LB,z,m,./images/BUBBLELB.png,,,,,,,m,0,0.7013,,,,,,,,0,6,6,155,1
,,,,,,,,,,,,,,,,,199228,18,2022-01-28_15h56.52.010,lexical_decision_task_DD,2021.2.3,MacIntel,60.0024001,,,,,,,,,,,0.7667,1,,,,,,,,,,,,,,,,,,,,,,,,-0.266530438,-0.080714445,0,0,0,,,,,,,DOUGH,HB,m,m,./images/DOUGHHB.png,,,,,,,m,1,0.7667,,,,,,,,0,7,7,19,1
,,,,,,,,,,,,,,,,,199228,18,2022-01-28_15h56.52.010,lexical_decision_task_DD,2021.2.3,MacIntel,60.0024001,,,,,,,,,,,0.6101,1,,,,,,,,,,,,,,,,,,,,,,,,-0.266530438,-0.080714445,0,0,0,,,,,,,POODLE,C,m,m,./images/POODLE.png,,,,,,,m,1,0.6101,,,,,,,,0,8,8,81,1
,,,,,,,,,,,,,,,,,199228,18,2022-01-28_15h56.52.010,lexical_decision_task_DD,2021.2.3,MacIntel,60.0024001,,,,,,,,,,,1.0125,0,,,,,,,,,,,,,,,,,,,,,,,,-0.266530438,-0.080714445,0,0,0,,,,,,,STOOL,HB,z,m,./images/STOOLHB.png,,,,,,,m,0,1.0125,,,,,,,,0,9,9,127,1
,,,,,,,,,,,,,,,,,199228,18,2022-01-28_15h56.52.010,lexical_decision_task_DD,2021.2.3,MacIntel,60.0024001,,,,,,,,,,,0.7181,1,,,,,,,,,,,,,,,,,,,,,,,,-0.266530438,-0.080714445,0,0,0,,,,,,,ENGINE,LB,z,m,./images/ENGINELB.png,,,,,,,z,1,0.7181,,,,,,,,0,10,10,122,1
,,,,,,,,,,,,,,,,,199228,18,2022-01-28_15h56.52.010,lexical_decision_task_DD,2021.2.3,MacIntel,60.0024001,,,,,,,,,,,1.067,1,,,,,,,,,,,,,,,,,,,,,,,,-0.266530438,-0.080714445,0,0,0,,,,,,,PARADE,LB,z,m,./images/PARADELB.png,,,,,,,z,1,1.067,,,,,,,,0,11,11,101,1
,,,,,,,,,,,,,,,,,199228,18,2022-01-28_15h56.52.010,lexical_decision_task_DD,2021.2.3,MacIntel,60.0024001,,,,,,,,,,,0.6371,0,,,,,,,,,,,,,,,,,,,,,,,,-0.266530438,-0.080714445,0,0,0,,,,,,,BUNNY,HB,z,m,./images/BUNNYHB.png,,,,,,,m,0,0.6371,,,,,,,,0,12,12,97,1
,,,,,,,,,,,,,,,,,199228,18,2022-01-28_15h56.52.010,lexical_decision_task_DD,2021.2.3,MacIntel,60.0024001,,,,,,,,,,,0.6521,1,,,,,,,,,,,,,,,,,,,,,,,,-0.266530438,-0.080714445,0,0,0,,,,,,,CANYON,HB,m,m,./images/CANYONHB.png,,,,,,,m,1,0.6521,,,,,,,,0,13,13,34,1
,,,,,,,,,,,,,,,,,199228,18,2022-01-28_15h56.52.010,lexical_decision_task_DD,2021.2.3,MacIntel,60.0024001,,,,,,,,,,,0.5572,1,,,,,,,,,,,,,,,,,,,,,,,,-0.266530438,-0.080714445,0,0,0,,,,,,,TOMATO,C,m,m,./images/TOMATO.png,,,,,,,m,1,0.5572,,,,,,,,0,14,14,0,1
,,,,,,,,,,,,,,,,,199228,18,2022-01-28_15h56.52.010,lexical_decision_task_DD,2021.2.3,MacIntel,60.0024001,,,,,,,,,,,0.7799,0,,,,,,,,,,,,,,,,,,,,,,,,-0.266530438,-0.080714445,0,0,0,,,,,,,BIRTH,HB,m,m,./images/BIRTHHB.png,,,,,,,z,0,0.7799,,,,,,,,0,15,15,37,1
,,,,,,,,,,,,,,,,,199228,18,2022-01-28_15h56.52.010,lexical_decision_task_DD,2021.2.3,MacIntel,60.0024001,,,,,,,,,,,0.8448,1,,,,,,,,,,,,,,,,,,,,,,,,-0.266530438,-0.080714445,0,0,0,,,,,,,DRILL,C,z,m,./images/DRILL.png,,,,,,,z,1,0.8448,,,,,,,,0,16,16,165,1
,,,,,,,,,,,,,,,,,199228,18,2022-01-28_15h56.52.010,lexical_decision_task_DD,2021.2.3,MacIntel,60.0024001,,,,,,,,,,,0.6309,1,,,,,,,,,,,,,,,,,,,,,,,,-0.266530438,-0.080714445,0,0,0,,,,,,,JUNGLE,LB,m,m,./images/JUNGLELB.png,,,,,,,m,1,0.6309,,,,,,,,0,17,17,83,1
,,,,,,,,,,,,,,,,,199228,18,2022-01-28_15h56.52.010,lexical_decision_task_DD,2021.2.3,MacIntel,60.0024001,,,,,,,,,,,0.9993,1,,,,,,,,,,,,,,,,,,,,,,,,-0.266530438,-0.080714445,0,0,0,,,,,,,GREASE,C,m,m,./images/GREASE.png,,,,,,,m,1,0.9993,,,,,,,,0,18,18,15,1
,,,,,,,,,,,,,,,,,199228,18,2022-01-28_15h56.52.010,lexical_decision_task_DD,2021.2.3,MacIntel,60.0024001,,,,,,,,,,,2.3924,0,,,,,,,,,,,,,,,,,,,,,,,,-0.266530438,-0.080714445,0,0,0,,,,,,,PURSE,LB,m,m,./images/PURSELB.png,,,,,,,z,0,2.3924,,,,,,,,0,19,19,62,1
,,,,,,,,,,,,,,,,,199228,18,2022-01-28_15h56.52.010,lexical_decision_task_DD,2021.2.3,MacIntel,60.0024001,,,,,,,,,,,1.0072,1,,,,,,,,,,,,,,,,,,,,,,,,-0.266530438,-0.080714445,0,0,0,,,,,,,TWINS,C,m,m,./images/TWINS.png,,,,,,,m,1,1.0072,,,,,,,,0,20,20,60,1
,,,,,,,,,,,,,,,,,199228,18,2022-01-28_15h56.52.010,lexical_decision_task_DD,2021.2.3,MacIntel,60.0024001,,,,,,,,,,,1.1308,0,,,,,,,,,,,,,,,,,,,,,,,,-0.266530438,-0.080714445,0,0,0,,,,,,,INFANT,HB,m,m,./images/INFANTHB.png,,,,,,,z,0,1.1308,,,,,,,,0,21,21,76,1
,,,,,,,,,,,,,,,,,199228,18,2022-01-28_15h56.52.010,lexical_decision_task_DD,2021.2.3,MacIntel,60.0024001,,,,,,,,,,,0.6189,1,,,,,,,,,,,,,,,,,,,,,,,,-0.266530438,-0.080714445,0,0,0,,,,,,,MAGGOT,C,m,m,./images/MAGGOT.png,,,,,,,m,1,0.6189,,,,,,,,0,22,22,33,1
,,,,,,,,,,,,,,,,,199228,18,2022-01-28_15h56.52.010,lexical_decision_task_DD,2021.2.3,MacIntel,60.0024001,,,,,,,,,,,1.0983,1,,,,,,,,,,,,,,,,,,,,,,,,-0.266530438,-0.080714445,0,0,0,,,,,,,BEARD,LB,m,m,./images/BEARDLB.png,,,,,,,m,1,1.0983,,,,,,,,0,23,23,2,1
,,,,,,,,,,,,,,,,,199228,18,2022-01-28_15h56.52.010,lexical_decision_task_DD,2021.2.3,MacIntel,60.0024001,,,,,,,,,,,3.2046,1,,,,,,,,,,,,,,,,,,,,,,,,-0.266530438,-0.080714445,0,0,0,,,,,,,PILOT,LB,z,m,./images/PILOTLB.png,,,,,,,z,1,3.2046,,,,,,,,0,24,24,134,1
,,,,,,,,,,,,,,,,,199228,18,2022-01-28_15h56.52.010,lexical_decision_task_DD,2021.2.3,MacIntel,60.0024001,,,,,,,,,,,0.886,1,,,,,,,,,,,,,,,,,,,,,,,,-0.266530438,-0.080714445,0,0,0,,,,,,,ARTIST,HB,z,m,./images/ARTISTHB.png,,,,,,,z,1,0.886,,,,,,,,0,25,25,145,1
,,,,,,,,,,,,,,,,,199228,18,2022-01-28_15h56.52.010,lexical_decision_task_DD,2021.2.3,MacIntel,60.0024001,,,,,,,,,,,1.4311,0,,,,,,,,,,,,,,,,,,,,,,,,-0.266530438,-0.080714445,0,0,0,,,,,,,PAINT,HB,m,m,./images/PAINTHB.png,,,,,,,z,0,1.4311,,,,,,,,0,26,26,7,1
,,,,,,,,,,,,,,,,,199228,18,2022-01-28_15h56.52.010,lexical_decision_task_DD,2021.2.3,MacIntel,60.0024001,,,,,,,,,,,1.0194,1,,,,,,,,,,,,,,,,,,,,,,,,-0.266530438,-0.080714445,0,0,0,,,,,,,MALLET,LB,m,m,./images/MALLETLB.png,,,,,,,m,1,1.0194,,,,,,,,0,27,27,50,1
,,,,,,,,,,,,,,,,,199228,18,2022-01-28_15h56.52.010,lexical_decision_task_DD,2021.2.3,MacIntel,60.0024001,,,,,,,,,,,0.6782,1,,,,,,,,,,,,,,,,,,,,,,,,-0.266530438,-0.080714445,0,0,0,,,,,,,GRAIN,C,m,m,./images/GRAIN.png,,,,,,,m,1,0.6782,,,,,,,,0,28,28,75,1
,,,,,,,,,,,,,,,,,199228,18,2022-01-28_15h56.52.010,lexical_decision_task_DD,2021.2.3,MacIntel,60.0024001,,,,,,,,,,,0.6882,0,,,,,,,,,,,,,,,,,,,,,,,,-0.266530438,-0.080714445,0,0,0,,,,,,,FENCE,LB,z,m,./images/FENCELB.png,,,,,,,m,0,0.6882,,,,,,,,0,29,29,98,1
,,,,,,,,,,,,,,,,,199228,18,2022-01-28_15h56.52.010,lexical_decision_task_DD,2021.2.3,MacIntel,60.0024001,,,,,,,,,,,0.7997,1,,,,,,,,,,,,,,,,,,,,,,,,-0.266530438,-0.080714445,0,0,0,,,,,,,RAZOR,HB,z,m,./images/RAZORHB.png,,,,,,,z,1,0.7997,,,,,,,,0,30,30,118,1
,,,,,,,,,,,,,,,,,199228,18,2022-01-28_15h56.52.010,lexical_decision_task_DD,2021.2.3,MacIntel,60.0024001,,,,,,,,,,,0.9348,1,,,,,,,,,,,,,,,,,,,,,,,,-0.266530438,-0.080714445,0,0,0,,,,,,,PEBBLE,HB,z,m,./images/PEBBLEHB.png,,,,,,,z,1,0.9348,,,,,,,,0,31,31,166,1
,,,,,,,,,,,,,,,,,199228,18,2022-01-28_15h56.52.010,lexical_decision_task_DD,2021.2.3,MacIntel,60.0024001,,,,,,,,,,,0.6011,1,,,,,,,,,,,,,,,,,,,,,,,,-0.266530438,-0.080714445,0,0,0,,,,,,,URINE,HB,m,m,./images/URINEHB.png,,,,,,,m,1,0.6011,,,,,,,,0,32,32,70,1
,,,,,,,,,,,,,,,,,199228,18,2022-01-28_15h56.52.010,lexical_decision_task_DD,2021.2.3,MacIntel,60.0024001,,,,,,,,,,,0.7333,1,,,,,,,,,,,,,,,,,,,,,,,,-0.266530438,-0.080714445,0,0,0,,,,,,,BLOKE,C,z,m,./images/BLOKE.png,,,,,,,z,1,0.7333,,,,,,,,0,33,33,96,1
,,,,,,,,,,,,,,,,,199228,18,2022-01-28_15h56.52.010,lexical_decision_task_DD,2021.2.3,MacIntel,60.0024001,,,,,,,,,,,0.8565,0,,,,,,,,,,,,,,,,,,,,,,,,-0.266530438,-0.080714445,0,0,0,,,,,,,SQUARE,C,m,m,./images/SQUARE.png,,,,,,,z,0,0.8565,,,,,,,,0,34,34,6,1
,,,,,,,,,,,,,,,,,199228,18,2022-01-28_15h56.52.010,lexical_decision_task_DD,2021.2.3,MacIntel,60.0024001,,,,,,,,,,,0.6722,1,,,,,,,,,,,,,,,,,,,,,,,,-0.266530438,-0.080714445,0,0,0,,,,,,,SCREW,C,m,m,./images/SCREW.png,,,,,,,m,1,0.6722,,,,,,,,0,35,35,24,1
,,,,,,,,,,,,,,,,,199228,18,2022-01-28_15h56.52.010,lexical_decision_task_DD,2021.2.3,MacIntel,60.0024001,,,,,,,,,,,2.2846,1,,,,,,,,,,,,,,,,,,,,,,,,-0.266530438,-0.080714445,0,0,0,,,,,,,SHIELD,C,z,m,./images/SHIELD.png,,,,,,,z,1,2.2846,,,,,,,,0,36,36,132,1
,,,,,,,,,,,,,,,,,199228,18,2022-01-28_15h56.52.010,lexical_decision_task_DD,2021.2.3,MacIntel,60.0024001,,,,,,,,,,,1.4276,0,,,,,,,,,,,,,,,,,,,,,,,,-0.266530438,-0.080714445,0,0,0,,,,,,,WRIST,HB,m,m,./images/WRISTHB.png,,,,,,,z,0,1.4276,,,,,,,,0,37,37,25,1
,,,,,,,,,,,,,,,,,199228,18,2022-01-28_15h56.52.010,lexical_decision_task_DD,2021.2.3,MacIntel,60.0024001,,,,,,,,,,,0.9962,1,,,,,,,,,,,,,,,,,,,,,,,,-0.266530438,-0.080714445,0,0,0,,,,,,,QUILL,HB,m,m,./images/QUILLHB.png,,,,,,,m,1,0.9962,,,,,,,,0,38,38,31,1
,,,,,,,,,,,,,,,,,199228,18,2022-01-28_15h56.52.010,lexical_decision_task_DD,2021.2.3,MacIntel,60.0024001,,,,,,,,,,,1.7885,1,,,,,,,,,,,,,,,,,,,,,,,,-0.266530438,-0.080714445,0,0,0,,,,,,,STAIN,C,z,m,./images/STAIN.png,,,,,,,z,1,1.7885,,,,,,,,0,39,39,90,1
,,,,,,,,,,,,,,,,,199228,18,2022-01-28_15h56.52.010,lexical_decision_task_DD,2021.2.3,MacIntel,60.0024001,,,,,,,,,,,0.6011,1,,,,,,,,,,,,,,,,,,,,,,,,-0.266530438,-0.080714445,0,0,0,,,,,,,JELLY,HB,m,m,./images/JELLYHB.png,,,,,,,m,1,0.6011,,,,,,,,0,40,40,64,1
,,,,,,,,,,,,,,,,,199228,18,2022-01-28_15h56.52.010,lexical_decision_task_DD,2021.2.3,MacIntel,60.0024001,,,,,,,,,,,1.0652,1,,,,,,,,,,,,,,,,,,,,,,,,-0.266530438,-0.080714445,0,0,0,space,,,,,,SAUNA,C,z,m,./images/SAUNA.png,32.0034,,,,,,z,1,1.0652,,,,,,,,0,41,41,117,1
,,,,,,,,,,,,,,,,,199228,18,2022-01-28_15h56.52.010,lexical_decision_task_DD,2021.2.3,MacIntel,60.0024001,,,,,,,,,,,1.4154,1,,,,,,,,,,,,,,,,,,,,,,,,-0.266530438,-0.080714445,0,0,0,,,,,,,ARROW,C,z,m,./images/ARROW.png,,,,,,,z,1,1.4154,,,,,,,,0,42,42,153,1
,,,,,,,,,,,,,,,,,199228,18,2022-01-28_15h56.52.010,lexical_decision_task_DD,2021.2.3,MacIntel,60.0024001,,,,,,,,,,,2.2195,1,,,,,,,,,,,,,,,,,,,,,,,,-0.266530438,-0.080714445,0,0,0,,,,,,,FLASK,C,z,m,./images/FLASK.png,,,,,,,z,1,2.2195,,,,,,,,0,43,43,156,1
,,,,,,,,,,,,,,,,,199228,18,2022-01-28_15h56.52.010,lexical_decision_task_DD,2021.2.3,MacIntel,60.0024001,,,,,,,,,,,0.6148,1,,,,,,,,,,,,,,,,,,,,,,,,-0.266530438,-0.080714445,0,0,0,,,,,,,TIGER,HB,z,m,./images/TIGERHB.png,,,,,,,z,1,0.6148,,,,,,,,0,44,44,121,1
,,,,,,,,,,,,,,,,,199228,18,2022-01-28_15h56.52.010,lexical_decision_task_DD,2021.2.3,MacIntel,60.0024001,,,,,,,,,,,0.8358,1,,,,,,,,,,,,,,,,,,,,,,,,-0.266530438,-0.080714445,0,0,0,,,,,,,PEACH,LB,m,m,./images/PEACHLB.png,,,,,,,m,1,0.8358,,,,,,,,0,45,45,35,1
,,,,,,,,,,,,,,,,,199228,18,2022-01-28_15h56.52.010,lexical_decision_task_DD,2021.2.3,MacIntel,60.0024001,,,,,,,,,,,1.3419,0,,,,,,,,,,,,,,,,,,,,,,,,-0.266530438,-0.080714445,0,0,0,,,,,,,POKER,HB,z,m,./images/POKERHB.png,,,,,,,m,0,1.3419,,,,,,,,0,46,46,151,1
,,,,,,,,,,,,,,,,,199228,18,2022-01-28_15h56.52.010,lexical_decision_task_DD,2021.2.3,MacIntel,60.0024001,,,,,,,,,,,1.284,1,,,,,,,,,,,,,,,,,,,,,,,,-0.266530438,-0.080714445,0,0,0,,,,,,,CRADLE,LB,m,m,./images/CRADLELB.png,,,,,,,m,1,1.284,,,,,,,,0,47,47,20,1
,,,,,,,,,,,,,,,,,199228,18,2022-01-28_15h56.52.010,lexical_decision_task_DD,2021.2.3,MacIntel,60.0024001,,,,,,,,,,,0.7339,1,,,,,,,,,,,,,,,,,,,,,,,,-0.266530438,-0.080714445,0,0,0,,,,,,,BRUSH,LB,z,m,./images/BRUSHLB.png,,,,,,,z,1,0.7339,,,,,,,,0,48,48,143,1
,,,,,,,,,,,,,,,,,199228,18,2022-01-28_15h56.52.010,lexical_decision_task_DD,2021.2.3,MacIntel,60.0024001,,,,,,,,,,,0.7207,1,,,,,,,,,,,,,,,,,,,,,,,,-0.266530438,-0.080714445,0,0,0,,,,,,,LAGOON,LB,z,m,./images/LAGOONLB.png,,,,,,,z,1,0.7207,,,,,,,,0,49,49,131,1
,,,,,,,,,,,,,,,,,199228,18,2022-01-28_15h56.52.010,lexical_decision_task_DD,2021.2.3,MacIntel,60.0024001,,,,,,,,,,,1.3179,1,,,,,,,,,,,,,,,,,,,,,,,,-0.266530438,-0.080714445,0,0,0,,,,,,,GLOVE,HB,z,m,./images/GLOVEHB.png,,,,,,,z,1,1.3179,,,,,,,,0,50,50,157,1
,,,,,,,,,,,,,,,,,199228,18,2022-01-28_15h56.52.010,lexical_decision_task_DD,2021.2.3,MacIntel,60.0024001,,,,,,,,,,,0.7508,1,,,,,,,,,,,,,,,,,,,,,,,,-0.266530438,-0.080714445,0,0,0,,,,,,,LIZARD,LB,m,m,./images/LIZARDLB.png,,,,,,,m,1,0.7508,,,,,,,,0,51,51,44,1
,,,,,,,,,,,,,,,,,199228,18,2022-01-28_15h56.52.010,lexical_decision_task_DD,2021.2.3,MacIntel,60.0024001,,,,,,,,,,,0.6533,1,,,,,,,,,,,,,,,,,,,,,,,,-0.266530438,-0.080714445,0,0,0,,,,,,,PICKLE,LB,m,m,./images/PICKLELB.png,,,,,,,m,1,0.6533,,,,,,,,0,52,52,14,1
,,,,,,,,,,,,,,,,,199228,18,2022-01-28_15h56.52.010,lexical_decision_task_DD,2021.2.3,MacIntel,60.0024001,,,,,,,,,,,0.834,1,,,,,,,,,,,,,,,,,,,,,,,,-0.266530438,-0.080714445,0,0,0,,,,,,,BISHOP,HB,z,m,./images/BISHOPHB.png,,,,,,,z,1,0.834,,,,,,,,0,53,53,133,1
,,,,,,,,,,,,,,,,,199228,18,2022-01-28_15h56.52.010,lexical_decision_task_DD,2021.2.3,MacIntel,60.0024001,,,,,,,,,,,0.671,1,,,,,,,,,,,,,,,,,,,,,,,,-0.266530438,-0.080714445,0,0,0,,,,,,,POSTER,LB,z,m,./images/POSTERLB.png,,,,,,,z,1,0.671,,,,,,,,0,54,54,137,1
,,,,,,,,,,,,,,,,,199228,18,2022-01-28_15h56.52.010,lexical_decision_task_DD,2021.2.3,MacIntel,60.0024001,,,,,,,,,,,0.7034,0,,,,,,,,,,,,,,,,,,,,,,,,-0.266530438,-0.080714445,0,0,0,,,,,,,PASTA,LB,m,m,./images/PASTALB.png,,,,,,,z,0,0.7034,,,,,,,,0,55,55,5,1
,,,,,,,,,,,,,,,,,199228,18,2022-01-28_15h56.52.010,lexical_decision_task_DD,2021.2.3,MacIntel,60.0024001,,,,,,,,,,,0.8176,0,,,,,,,,,,,,,,,,,,,,,,,,-0.266530438,-0.080714445,0,0,0,,,,,,,BAMBOO,LB,z,m,./images/BAMBOOLB.png,,,,,,,m,0,0.8176,,,,,,,,0,56,56,89,1
,,,,,,,,,,,,,,,,,199228,18,2022-01-28_15h56.52.010,lexical_decision_task_DD,2021.2.3,MacIntel,60.0024001,,,,,,,,,,,0.7643,1,,,,,,,,,,,,,,,,,,,,,,,,-0.266530438,-0.080714445,0,0,0,,,,,,,WAGON,HB,z,m,./images/WAGONHB.png,,,,,,,z,1,0.7643,,,,,,,,0,57,57,91,1
,,,,,,,,,,,,,,,,,199228,18,2022-01-28_15h56.52.010,lexical_decision_task_DD,2021.2.3,MacIntel,60.0024001,,,,,,,,,,,0.5791,1,,,,,,,,,,,,,,,,,,,,,,,,-0.266530438,-0.080714445,0,0,0,,,,,,,STREAM,LB,z,m,./images/STREAMLB.png,,,,,,,z,1,0.5791,,,,,,,,0,58,58,125,1
,,,,,,,,,,,,,,,,,199228,18,2022-01-28_15h56.52.010,lexical_decision_task_DD,2021.2.3,MacIntel,60.0024001,,,,,,,,,,,0.7628,0,,,,,,,,,,,,,,,,,,,,,,,,-0.266530438,-0.080714445,0,0,0,,,,,,,TRIPOD,C,m,m,./images/TRIPOD.png,,,,,,,z,0,0.7628,,,,,,,,0,59,59,54,1
,,,,,,,,,,,,,,,,,199228,18,2022-01-28_15h56.52.010,lexical_decision_task_DD,2021.2.3,MacIntel,60.0024001,,,,,,,,,,,0.7685,1,,,,,,,,,,,,,,,,,,,,,,,,-0.266530438,-0.080714445,0,0,0,,,,,,,GRANNY,LB,z,m,./images/GRANNYLB.png,,,,,,,z,1,0.7685,,,,,,,,0,60,60,104,1
,,,,,,,,,,,,,,,,,199228,18,2022-01-28_15h56.52.010,lexical_decision_task_DD,2021.2.3,MacIntel,60.0024001,,,,,,,,,,,0.8805,1,,,,,,,,,,,,,,,,,,,,,,,,-0.266530438,-0.080714445,0,0,0,,,,,,,CRUMB,LB,m,m,./images/CRUMBLB.png,,,,,,,m,1,0.8805,,,,,,,,0,61,61,29,1
,,,,,,,,,,,,,,,,,199228,18,2022-01-28_15h56.52.010,lexical_decision_task_DD,2021.2.3,MacIntel,60.0024001,,,,,,,,,,,0.8513,0,,,,,,,,,,,,,,,,,,,,,,,,-0.266530438,-0.080714445,0,0,0,,,,,,,HAMMER,C,z,m,./images/HAMMER.png,,,,,,,m,0,0.8513,,,,,,,,0,62,62,159,1
,,,,,,,,,,,,,,,,,199228,18,2022-01-28_15h56.52.010,lexical_decision_task_DD,2021.2.3,MacIntel,60.0024001,,,,,,,,,,,3.6992,0,,,,,,,,,,,,,,,,,,,,,,,,-0.266530438,-0.080714445,0,0,0,,,,,,,SUNSET,HB,m,m,./images/SUNSETHB.png,,,,,,,z,0,3.6992,,,,,,,,0,63,63,82,1
,,,,,,,,,,,,,,,,,199228,18,2022-01-28_15h56.52.010,lexical_decision_task_DD,2021.2.3,MacIntel,60.0024001,,,,,,,,,,,4.6127,0,,,,,,,,,,,,,,,,,,,,,,,,-0.266530438,-0.080714445,0,0,0,,,,,,,CRUST,HB,m,m,./images/CRUSTHB.png,,,,,,,z,0,4.6127,,,,,,,,0,64,64,79,1
,,,,,,,,,,,,,,,,,199228,18,2022-01-28_15h56.52.010,lexical_decision_task_DD,2021.2.3,MacIntel,60.0024001,,,,,,,,,,,0.8364,1,,,,,,,,,,,,,,,,,,,,,,,,-0.266530438,-0.080714445,0,0,0,,,,,,,FALCON,HB,m,m,./images/FALCONHB.png,,,,,,,m,1,0.8364,,,,,,,,0,65,65,28,1
,,,,,,,,,,,,,,,,,199228,18,2022-01-28_15h56.52.010,lexical_decision_task_DD,2021.2.3,MacIntel,60.0024001,,,,,,,,,,,0.6463,1,,,,,,,,,,,,,,,,,,,,,,,,-0.266530438,-0.080714445,0,0,0,,,,,,,JAGUAR,C,m,m,./images/JAGUAR.png,,,,,,,m,1,0.6463,,,,,,,,0,66,66,18,1
,,,,,,,,,,,,,,,,,199228,18,2022-01-28_15h56.52.010,lexical_decision_task_DD,2021.2.3,MacIntel,60.0024001,,,,,,,,,,,0.6669,1,,,,,,,,,,,,,,,,,,,,,,,,-0.266530438,-0.080714445,0,0,0,,,,,,,CRATER,C,z,m,./images/CRATER.png,,,,,,,z,1,0.6669,,,,,,,,0,67,67,87,1
,,,,,,,,,,,,,,,,,199228,18,2022-01-28_15h56.52.010,lexical_decision_task_DD,2021.2.3,MacIntel,60.0024001,,,,,,,,,,,0.7036,1,,,,,,,,,,,,,,,,,,,,,,,,-0.266530438,-0.080714445,0,0,0,,,,,,,BONNET,LB,m,m,./images/BONNETLB.png,,,,,,,m,1,0.7036,,,,,,,,0,68,68,11,1
,,,,,,,,,,,,,,,,,199228,18,2022-01-28_15h56.52.010,lexical_decision_task_DD,2021.2.3,MacIntel,60.0024001,,,,,,,,,,,0.6349,1,,,,,,,,,,,,,,,,,,,,,,,,-0.266530438,-0.080714445,0,0,0,,,,,,,MELON,HB,m,m,./images/MELONHB.png,,,,,,,m,1,0.6349,,,,,,,,0,69,69,22,1
,,,,,,,,,,,,,,,,,199228,18,2022-01-28_15h56.52.010,lexical_decision_task_DD,2021.2.3,MacIntel,60.0024001,,,,,,,,,,,0.7451,1,,,,,,,,,,,,,,,,,,,,,,,,-0.266530438,-0.080714445,0,0,0,,,,,,,CASINO,HB,z,m,./images/CASINOHB.png,,,,,,,z,1,0.7451,,,,,,,,0,70,70,112,1
,,,,,,,,,,,,,,,,,199228,18,2022-01-28_15h56.52.010,lexical_decision_task_DD,2021.2.3,MacIntel,60.0024001,,,,,,,,,,,0.8887,1,,,,,,,,,,,,,,,,,,,,,,,,-0.266530438,-0.080714445,0,0,0,,,,,,,WHEEL,LB,z,m,./images/WHEELLB.png,,,,,,,z,1,0.8887,,,,,,,,0,71,71,161,1
,,,,,,,,,,,,,,,,,199228,18,2022-01-28_15h56.52.010,lexical_decision_task_DD,2021.2.3,MacIntel,60.0024001,,,,,,,,,,,1.3045,1,,,,,,,,,,,,,,,,,,,,,,,,-0.266530438,-0.080714445,0,0,0,,,,,,,PISTOL,LB,z,m,./images/PISTOLLB.png,,,,,,,z,1,1.3045,,,,,,,,0,72,72,113,1
,,,,,,,,,,,,,,,,,199228,18,2022-01-28_15h56.52.010,lexical_decision_task_DD,2021.2.3,MacIntel,60.0024001,,,,,,,,,,,0.5835,1,,,,,,,,,,,,,,,,,,,,,,,,-0.266530438,-0.080714445,0,0,0,,,,,,,DONKEY,HB,z,m,./images/DONKEYHB.png,,,,,,,z,1,0.5835,,,,,,,,0,73,73,103,1
,,,,,,,,,,,,,,,,,199228,18,2022-01-28_15h56.52.010,lexical_decision_task_DD,2021.2.3,MacIntel,60.0024001,,,,,,,,,,,0.6012,1,,,,,,,,,,,,,,,,,,,,,,,,-0.266530438,-0.080714445,0,0,0,,,,,,,MOOSE,C,m,m,./images/MOOSE.png,,,,,,,m,1,0.6012,,,,,,,,0,74,74,57,1
,,,,,,,,,,,,,,,,,199228,18,2022-01-28_15h56.52.010,lexical_decision_task_DD,2021.2.3,MacIntel,60.0024001,,,,,,,,,,,0.5657,0,,,,,,,,,,,,,,,,,,,,,,,,-0.266530438,-0.080714445,0,0,0,,,,,,,RULER,HB,z,m,./images/RULERHB.png,,,,,,,m,0,0.5657,,,,,,,,0,75,75,163,1
,,,,,,,,,,,,,,,,,199228,18,2022-01-28_15h56.52.010,lexical_decision_task_DD,2021.2.3,MacIntel,60.0024001,,,,,,,,,,,0.7501,0,,,,,,,,,,,,,,,,,,,,,,,,-0.266530438,-0.080714445,0,0,0,,,,,,,MIRROR,C,m,m,./images/MIRROR.png,,,,,,,z,0,0.7501,,,,,,,,0,76,76,63,1
,,,,,,,,,,,,,,,,,199228,18,2022-01-28_15h56.52.010,lexical_decision_task_DD,2021.2.3,MacIntel,60.0024001,,,,,,,,,,,0.8846,0,,,,,,,,,,,,,,,,,,,,,,,,-0.266530438,-0.080714445,0,0,0,,,,,,,STRING,LB,m,m,./images/STRINGLB.png,,,,,,,z,0,0.8846,,,,,,,,0,77,77,41,1
,,,,,,,,,,,,,,,,,199228,18,2022-01-28_15h56.52.010,lexical_decision_task_DD,2021.2.3,MacIntel,60.0024001,,,,,,,,,,,1.0946,1,,,,,,,,,,,,,,,,,,,,,,,,-0.266530438,-0.080714445,0,0,0,,,,,,,FINGER,C,m,m,./images/FINGER.png,,,,,,,m,1,1.0946,,,,,,,,0,78,78,3,1
,,,,,,,,,,,,,,,,,199228,18,2022-01-28_15h56.52.010,lexical_decision_task_DD,2021.2.3,MacIntel,60.0024001,,,,,,,,,,,0.9152,1,,,,,,,,,,,,,,,,,,,,,,,,-0.266530438,-0.080714445,0,0,0,,,,,,,PENCE,HB,m,m,./images/PENCEHB.png,,,,,,,m,1,0.9152,,,,,,,,0,79,79,16,1
,,,,,,,,,,,,,,,,,199228,18,2022-01-28_15h56.52.010,lexical_decision_task_DD,2021.2.3,MacIntel,60.0024001,,,,,,,,,,,0.6895,1,,,,,,,,,,,,,,,,,,,,,,,,-0.266530438,-0.080714445,0,0,0,,,,,,,COUCH,LB,m,m,./images/COUCHLB.png,,,,,,,m,1,0.6895,,,,,,,,0,80,80,77,1
,,,,,,,,,,,,,,,,,199228,18,2022-01-28_15h56.52.010,lexical_decision_task_DD,2021.2.3,MacIntel,60.0024001,,,,,,,,,,,1.1011,1,,,,,,,,,,,,,,,,,,,,,,,,-0.266530438,-0.080714445,0,0,0,,,,,,,PARCEL,C,z,m,./images/PARCEL.png,,,,,,,z,1,1.1011,,,,,,,,0,81,81,102,1
,,,,,,,,,,,,,,,,,199228,18,2022-01-28_15h56.52.010,lexical_decision_task_DD,2021.2.3,MacIntel,60.0024001,,,,,,,,,,,0.8495,0,,,,,,,,,,,,,,,,,,,,,,,,-0.266530438,-0.080714445,0,0,0,,,,,,,MOTOR,HB,m,m,./images/MOTORHB.png,,,,,,,z,0,0.8495,,,,,,,,0,82,82,13,1
,,,,,,,,,,,,,,,,,199228,18,2022-01-28_15h56.52.010,lexical_decision_task_DD,2021.2.3,MacIntel,60.0024001,,,,,,,,,,,0.5993,1,,,,,,,,,,,,,,,,,,,,,,,,-0.266544663,-0.076493178,0,0,0,space,,,,,,HEATER,LB,z,m,./images/HEATERLB.png,21.5729,,,,,,z,1,0.5993,,,,,,,,0,83,83,140,1
,,,,,,,,,,,,,,,,,199228,18,2022-01-28_15h56.52.010,lexical_decision_task_DD,2021.2.3,MacIntel,60.0024001,,,,,,,,,,,0.7483,1,,,,,,,,,,,,,,,,,,,,,,,,-0.266544663,-0.076493178,0,0,0,,,,,,,BANANA,HB,z,m,./images/BANANAHB.png,,,,,,,z,1,0.7483,,,,,,,,0,84,84,154,1
,,,,,,,,,,,,,,,,,199228,18,2022-01-28_15h56.52.010,lexical_decision_task_DD,2021.2.3,MacIntel,60.0024001,,,,,,,,,,,1.1546,0,,,,,,,,,,,,,,,,,,,,,,,,-0.266544663,-0.076493178,0,0,0,,,,,,,STORM,C,m,m,./images/STORM.png,,,,,,,z,0,1.1546,,,,,,,,0,85,85,30,1
,,,,,,,,,,,,,,,,,199228,18,2022-01-28_15h56.52.010,lexical_decision_task_DD,2021.2.3,MacIntel,60.0024001,,,,,,,,,,,0.6215,0,,,,,,,,,,,,,,,,,,,,,,,,-0.266544663,-0.076493178,0,0,0,,,,,,,PACKET,LB,m,m,./images/PACKETLB.png,,,,,,,z,0,0.6215,,,,,,,,0,86,86,56,1
,,,,,,,,,,,,,,,,,199228,18,2022-01-28_15h56.52.010,lexical_decision_task_DD,2021.2.3,MacIntel,60.0024001,,,,,,,,,,,0.782,1,,,,,,,,,,,,,,,,,,,,,,,,-0.266544663,-0.076493178,0,0,0,,,,,,,CLOWN,HB,z,m,./images/CLOWNHB.png,,,,,,,z,1,0.782,,,,,,,,0,87,87,106,1
,,,,,,,,,,,,,,,,,199228,18,2022-01-28_15h56.52.010,lexical_decision_task_DD,2021.2.3,MacIntel,60.0024001,,,,,,,,,,,0.6307,1,,,,,,,,,,,,,,,,,,,,,,,,-0.266544663,-0.076493178,0,0,0,,,,,,,MUSCLE,HB,m,m,./images/MUSCLEHB.png,,,,,,,m,1,0.6307,,,,,,,,0,88,88,4,1
,,,,,,,,,,,,,,,,,199228,18,2022-01-28_15h56.52.010,lexical_decision_task_DD,2021.2.3,MacIntel,60.0024001,,,,,,,,,,,0.7349,1,,,,,,,,,,,,,,,,,,,,,,,,-0.266544663,-0.076493178,0,0,0,,,,,,,DIVER,C,z,m,./images/DIVER.png,,,,,,,z,1,0.7349,,,,,,,,0,89,89,93,1
,,,,,,,,,,,,,,,,,199228,18,2022-01-28_15h56.52.010,lexical_decision_task_DD,2021.2.3,MacIntel,60.0024001,,,,,,,,,,,0.6045,1,,,,,,,,,,,,,,,,,,,,,,,,-0.266544663,-0.076493178,0,0,0,,,,,,,PEARL,HB,m,m,./images/PEARLHB.png,,,,,,,m,1,0.6045,,,,,,,,0,90,90,46,1
,,,,,,,,,,,,,,,,,199228,18,2022-01-28_15h56.52.010,lexical_decision_task_DD,2021.2.3,MacIntel,60.0024001,,,,,,,,,,,0.5957,1,,,,,,,,,,,,,,,,,,,,,,,,-0.266544663,-0.076493178,0,0,0,,,,,,,MOSQUE,HB,m,m,./images/MOSQUEHB.png,,,,,,,m,1,0.5957,,,,,,,,0,91,91,43,1
,,,,,,,,,,,,,,,,,199228,18,2022-01-28_15h56.52.010,lexical_decision_task_DD,2021.2.3,MacIntel,60.0024001,,,,,,,,,,,0.639,0,,,,,,,,,,,,,,,,,,,,,,,,-0.266544663,-0.076493178,0,0,0,,,,,,,CLOTH,LB,z,m,./images/CLOTHLB.png,,,,,,,m,0,0.639,,,,,,,,0,92,92,107,1
,,,,,,,,,,,,,,,,,199228,18,2022-01-28_15h56.52.010,lexical_decision_task_DD,2021.2.3,MacIntel,60.0024001,,,,,,,,,,,0.5387,0,,,,,,,,,,,,,,,,,,,,,,,,-0.266544663,-0.076493178,0,0,0,,,,,,,BASKET,LB,z,m,./images/BASKETLB.png,,,,,,,m,0,0.5387,,,,,,,,0,93,93,128,1
,,,,,,,,,,,,,,,,,199228,18,2022-01-28_15h56.52.010,lexical_decision_task_DD,2021.2.3,MacIntel,60.0024001,,,,,,,,,,,0.9166,1,,,,,,,,,,,,,,,,,,,,,,,,-0.266544663,-0.076493178,0,0,0,,,,,,,MONKEY,C,z,m,./images/MONKEY.png,,,,,,,z,1,0.9166,,,,,,,,0,94,94,129,1
,,,,,,,,,,,,,,,,,199228,18,2022-01-28_15h56.52.010,lexical_decision_task_DD,2021.2.3,MacIntel,60.0024001,,,,,,,,,,,1.0838,1,,,,,,,,,,,,,,,,,,,,,,,,-0.266544663,-0.076493178,0,0,0,,,,,,,LADDER,LB,m,m,./images/LADDERLB.png,,,,,,,m,1,1.0838,,,,,,,,0,95,95,38,1
,,,,,,,,,,,,,,,,,199228,18,2022-01-28_15h56.52.010,lexical_decision_task_DD,2021.2.3,MacIntel,60.0024001,,,,,,,,,,,0.6178,1,,,,,,,,,,,,,,,,,,,,,,,,-0.266544663,-0.076493178,0,0,0,,,,,,,KITTEN,C,m,m,./images/KITTEN.png,,,,,,,m,1,0.6178,,,,,,,,0,96,96,45,1
,,,,,,,,,,,,,,,,,199228,18,2022-01-28_15h56.52.010,lexical_decision_task_DD,2021.2.3,MacIntel,60.0024001,,,,,,,,,,,0.6775,1,,,,,,,,,,,,,,,,,,,,,,,,-0.266544663,-0.076493178,0,0,0,,,,,,,DANCER,C,z,m,./images/DANCER.png,,,,,,,z,1,0.6775,,,,,,,,0,97,97,105,1
,,,,,,,,,,,,,,,,,199228,18,2022-01-28_15h56.52.010,lexical_decision_task_DD,2021.2.3,MacIntel,60.0024001,,,,,,,,,,,0.7037,1,,,,,,,,,,,,,,,,,,,,,,,,-0.266544663,-0.076493178,0,0,0,,,,,,,SLOPE,C,z,m,./images/SLOPE.png,,,,,,,z,1,0.7037,,,,,,,,0,98,98,114,1
,,,,,,,,,,,,,,,,,199228,18,2022-01-28_15h56.52.010,lexical_decision_task_DD,2021.2.3,MacIntel,60.0024001,,,,,,,,,,,0.6551,0,,,,,,,,,,,,,,,,,,,,,,,,-0.266544663,-0.076493178,0,0,0,,,,,,,CEMENT,LB,m,m,./images/CEMENTLB.png,,,,,,,z,0,0.6551,,,,,,,,0,99,99,74,1
,,,,,,,,,,,,,,,,,199228,18,2022-01-28_15h56.52.010,lexical_decision_task_DD,2021.2.3,MacIntel,60.0024001,,,,,,,,,,,0.6997,1,,,,,,,,,,,,,,,,,,,,,,,,-0.266544663,-0.076493178,0,0,0,,,,,,,BOILER,C,z,m,./images/BOILER.png,,,,,,,z,1,0.6997,,,,,,,,0,100,100,120,1
,,,,,,,,,,,,,,,,,199228,18,2022-01-28_15h56.52.010,lexical_decision_task_DD,2021.2.3,MacIntel,60.0024001,,,,,,,,,,,0.6191,1,,,,,,,,,,,,,,,,,,,,,,,,-0.266544663,-0.076493178,0,0,0,,,,,,,PIMPLE,LB,m,m,./images/PIMPLELB.png,,,,,,,m,1,0.6191,,,,,,,,0,101,101,71,1
,,,,,,,,,,,,,,,,,199228,18,2022-01-28_15h56.52.010,lexical_decision_task_DD,2021.2.3,MacIntel,60.0024001,,,,,,,,,,,0.6527,1,,,,,,,,,,,,,,,,,,,,,,,,-0.266544663,-0.076493178,0,0,0,,,,,,,RHINO,C,m,m,./images/RHINO.png,,,,,,,m,1,0.6527,,,,,,,,0,102,102,9,1
,,,,,,,,,,,,,,,,,199228,18,2022-01-28_15h56.52.010,lexical_decision_task_DD,2021.2.3,MacIntel,60.0024001,,,,,,,,,,,0.7856,1,,,,,,,,,,,,,,,,,,,,,,,,-0.266544663,-0.076493178,0,0,0,,,,,,,THROAT,C,m,m,./images/THROAT.png,,,,,,,m,1,0.7856,,,,,,,,0,103,103,36,1
,,,,,,,,,,,,,,,,,199228,18,2022-01-28_15h56.52.010,lexical_decision_task_DD,2021.2.3,MacIntel,60.0024001,,,,,,,,,,,0.8188,0,,,,,,,,,,,,,,,,,,,,,,,,-0.266544663,-0.076493178,0,0,0,,,,,,,CANDLE,HB,m,m,./images/CANDLEHB.png,,,,,,,z,0,0.8188,,,,,,,,0,104,104,61,1
,,,,,,,,,,,,,,,,,199228,18,2022-01-28_15h56.52.010,lexical_decision_task_DD,2021.2.3,MacIntel,60.0024001,,,,,,,,,,,0.8655,1,,,,,,,,,,,,,,,,,,,,,,,,-0.266544663,-0.076493178,0,0,0,,,,,,,CANOE,HB,z,m,./images/CANOEHB.png,,,,,,,z,1,0.8655,,,,,,,,0,105,105,142,1
,,,,,,,,,,,,,,,,,199228,18,2022-01-28_15h56.52.010,lexical_decision_task_DD,2021.2.3,MacIntel,60.0024001,,,,,,,,,,,0.7834,1,,,,,,,,,,,,,,,,,,,,,,,,-0.266544663,-0.076493178,0,0,0,,,,,,,SWING,HB,m,m,./images/SWINGHB.png,,,,,,,m,1,0.7834,,,,,,,,0,106,106,40,1
,,,,,,,,,,,,,,,,,199228,18,2022-01-28_15h56.52.010,lexical_decision_task_DD,2021.2.3,MacIntel,60.0024001,,,,,,,,,,,0.7635,1,,,,,,,,,,,,,,,,,,,,,,,,-0.266544663,-0.076493178,0,0,0,,,,,,,CANDY,C,z,m,./images/CANDY.png,,,,,,,z,1,0.7635,,,,,,,,0,107,107,123,1
,,,,,,,,,,,,,,,,,199228,18,2022-01-28_15h56.52.010,lexical_decision_task_DD,2021.2.3,MacIntel,60.0024001,,,,,,,,,,,0.8988,1,,,,,,,,,,,,,,,,,,,,,,,,-0.266544663,-0.076493178,0,0,0,,,,,,,WHISKY,LB,z,m,./images/WHISKYLB.png,,,,,,,z,1,0.8988,,,,,,,,0,108,108,167,1
,,,,,,,,,,,,,,,,,199228,18,2022-01-28_15h56.52.010,lexical_decision_task_DD,2021.2.3,MacIntel,60.0024001,,,,,,,,,,,1.631,0,,,,,,,,,,,,,,,,,,,,,,,,-0.266544663,-0.076493178,0,0,0,,,,,,,KIDNEY,C,m,m,./images/KIDNEY.png,,,,,,,z,0,1.631,,,,,,,,0,109,109,21,1
,,,,,,,,,,,,,,,,,199228,18,2022-01-28_15h56.52.010,lexical_decision_task_DD,2021.2.3,MacIntel,60.0024001,,,,,,,,,,,0.6681,1,,,,,,,,,,,,,,,,,,,,,,,,-0.266544663,-0.076493178,0,0,0,,,,,,,ATTIC,C,m,m,./images/ATTIC.png,,,,,,,m,1,0.6681,,,,,,,,0,110,110,27,1
,,,,,,,,,,,,,,,,,199228,18,2022-01-28_15h56.52.010,lexical_decision_task_DD,2021.2.3,MacIntel,60.0024001,,,,,,,,,,,1.3302,1,,,,,,,,,,,,,,,,,,,,,,,,-0.266544663,-0.076493178,0,0,0,,,,,,,BANNER,HB,m,m,./images/BANNERHB.png,,,,,,,m,1,1.3302,,,,,,,,0,111,111,52,1
,,,,,,,,,,,,,,,,,199228,18,2022-01-28_15h56.52.010,lexical_decision_task_DD,2021.2.3,MacIntel,60.0024001,,,,,,,,,,,1.0733,1,,,,,,,,,,,,,,,,,,,,,,,,-0.266544663,-0.076493178,0,0,0,,,,,,,BROOM,C,z,m,./images/BROOM.png,,,,,,,z,1,1.0733,,,,,,,,0,112,112,162,1
,,,,,,,,,,,,,,,,,199228,18,2022-01-28_15h56.52.010,lexical_decision_task_DD,2021.2.3,MacIntel,60.0024001,,,,,,,,,,,2.4633,0,,,,,,,,,,,,,,,,,,,,,,,,-0.266544663,-0.076493178,0,0,0,,,,,,,SPORT,C,m,m,./images/SPORT.png,,,,,,,z,0,2.4633,,,,,,,,0,113,113,48,1
,,,,,,,,,,,,,,,,,199228,18,2022-01-28_15h56.52.010,lexical_decision_task_DD,2021.2.3,MacIntel,60.0024001,,,,,,,,,,,0.79,1,,,,,,,,,,,,,,,,,,,,,,,,-0.266544663,-0.076493178,0,0,0,,,,,,,LLAMA,LB,z,m,./images/LLAMALB.png,,,,,,,z,1,0.79,,,,,,,,0,114,114,119,1
,,,,,,,,,,,,,,,,,199228,18,2022-01-28_15h56.52.010,lexical_decision_task_DD,2021.2.3,MacIntel,60.0024001,,,,,,,,,,,0.6704,0,,,,,,,,,,,,,,,,,,,,,,,,-0.266544663,-0.076493178,0,0,0,,,,,,,SHELF,C,m,m,./images/SHELF.png,,,,,,,z,0,0.6704,,,,,,,,0,115,115,39,1
,,,,,,,,,,,,,,,,,199228,18,2022-01-28_15h56.52.010,lexical_decision_task_DD,2021.2.3,MacIntel,60.0024001,,,,,,,,,,,2.2332,0,,,,,,,,,,,,,,,,,,,,,,,,-0.266544663,-0.076493178,0,0,0,,,,,,,GRAPE,HB,z,m,./images/GRAPEHB.png,,,,,,,m,0,2.2332,,,,,,,,0,116,116,100,1
,,,,,,,,,,,,,,,,,199228,18,2022-01-28_15h56.52.010,lexical_decision_task_DD,2021.2.3,MacIntel,60.0024001,,,,,,,,,,,1.8541,0,,,,,,,,,,,,,,,,,,,,,,,,-0.266544663,-0.076493178,0,0,0,,,,,,,CHERRY,C,z,m,./images/CHERRY.png,,,,,,,m,0,1.8541,,,,,,,,0,117,117,138,1
,,,,,,,,,,,,,,,,,199228,18,2022-01-28_15h56.52.010,lexical_decision_task_DD,2021.2.3,MacIntel,60.0024001,,,,,,,,,,,7.144,1,,,,,,,,,,,,,,,,,,,,,,,,-0.266544663,-0.076493178,0,0,0,,,,,,,TOWEL,HB,z,m,./images/TOWELHB.png,,,,,,,z,1,7.144,,,,,,,,0,118,118,85,1
,,,,,,,,,,,,,,,,,199228,18,2022-01-28_15h56.52.010,lexical_decision_task_DD,2021.2.3,MacIntel,60.0024001,,,,,,,,,,,0.7002,1,,,,,,,,,,,,,,,,,,,,,,,,-0.266544663,-0.076493178,0,0,0,,,,,,,STATUE,C,z,m,./images/STATUE.png,,,,,,,z,1,0.7002,,,,,,,,0,119,119,150,1
,,,,,,,,,,,,,,,,,199228,18,2022-01-28_15h56.52.010,lexical_decision_task_DD,2021.2.3,MacIntel,60.0024001,,,,,,,,,,,0.7179,0,,,,,,,,,,,,,,,,,,,,,,,,-0.266544663,-0.076493178,0,0,0,,,,,,,MIDGET,HB,z,m,./images/MIDGETHB.png,,,,,,,m,0,0.7179,,,,,,,,0,120,120,160,1
,,,,,,,,,,,,,,,,,199228,18,2022-01-28_15h56.52.010,lexical_decision_task_DD,2021.2.3,MacIntel,60.0024001,,,,,,,,,,,1.1682,0,,,,,,,,,,,,,,,,,,,,,,,,-0.266544663,-0.076493178,0,0,0,,,,,,,DRUMS,HB,m,m,./images/DRUMSHB.png,,,,,,,z,0,1.1682,,,,,,,,0,121,121,49,1
,,,,,,,,,,,,,,,,,199228,18,2022-01-28_15h56.52.010,lexical_decision_task_DD,2021.2.3,MacIntel,60.0024001,,,,,,,,,,,0.6688,0,,,,,,,,,,,,,,,,,,,,,,,,-0.266544663,-0.076493178,0,0,0,,,,,,,FOLDER,C,m,m,./images/FOLDER.png,,,,,,,z,0,0.6688,,,,,,,,0,122,122,42,1
,,,,,,,,,,,,,,,,,199228,18,2022-01-28_15h56.52.010,lexical_decision_task_DD,2021.2.3,MacIntel,60.0024001,,,,,,,,,,,0.7049,1,,,,,,,,,,,,,,,,,,,,,,,,-0.266544663,-0.076493178,0,0,0,,,,,,,BERRY,LB,m,m,./images/BERRYLB.png,,,,,,,m,1,0.7049,,,,,,,,0,123,123,47,1
,,,,,,,,,,,,,,,,,199228,18,2022-01-28_15h56.52.010,lexical_decision_task_DD,2021.2.3,MacIntel,60.0024001,,,,,,,,,,,0.5651,1,,,,,,,,,,,,,,,,,,,,,,,,-0.266544663,-0.076493178,0,0,0,,,,,,,FLESH,C,z,m,./images/FLESH.png,,,,,,,z,1,0.5651,,,,,,,,0,124,124,108,1
,,,,,,,,,,,,,,,,,199228,18,2022-01-28_15h56.52.010,lexical_decision_task_DD,2021.2.3,MacIntel,60.0024001,,,,,,,,,,,0.6323,1,,,,,,,,,,,,,,,,,,,,,,,,-0.266544663,-0.076493178,0,0,0,space,,,,,,CHAIN,C,z,m,./images/CHAIN.png,25.9721,,,,,,z,1,0.6323,,,,,,,,0,125,125,126,1
,,,,,,,,,,,,,,,,,199228,18,2022-01-28_15h56.52.010,lexical_decision_task_DD,2021.2.3,MacIntel,60.0024001,,,,,,,,,,,0.9132,0,,,,,,,,,,,,,,,,,,,,,,,,-0.266544663,-0.076493178,0,0,0,,,,,,,BUTTER,C,z,m,./images/BUTTER.png,,,,,,,m,0,0.9132,,,,,,,,0,126,126,111,1
,,,,,,,,,,,,,,,,,199228,18,2022-01-28_15h56.52.010,lexical_decision_task_DD,2021.2.3,MacIntel,60.0024001,,,,,,,,,,,0.6659,0,,,,,,,,,,,,,,,,,,,,,,,,-0.266544663,-0.076493178,0,0,0,,,,,,,DESERT,HB,z,m,./images/DESERTHB.png,,,,,,,m,0,0.6659,,,,,,,,0,127,127,136,1
,,,,,,,,,,,,,,,,,199228,18,2022-01-28_15h56.52.010,lexical_decision_task_DD,2021.2.3,MacIntel,60.0024001,,,,,,,,,,,0.6176,0,,,,,,,,,,,,,,,,,,,,,,,,-0.266544663,-0.076493178,0,0,0,,,,,,,TORCH,LB,m,m,./images/TORCHLB.png,,,,,,,z,0,0.6176,,,,,,,,0,128,128,68,1
,,,,,,,,,,,,,,,,,199228,18,2022-01-28_15h56.52.010,lexical_decision_task_DD,2021.2.3,MacIntel,60.0024001,,,,,,,,,,,0.6424,1,,,,,,,,,,,,,,,,,,,,,,,,-0.266544663,-0.076493178,0,0,0,,,,,,,MUFFIN,HB,m,m,./images/MUFFINHB.png,,,,,,,m,1,0.6424,,,,,,,,0,129,129,55,1
,,,,,,,,,,,,,,,,,199228,18,2022-01-28_15h56.52.010,lexical_decision_task_DD,2021.2.3,MacIntel,60.0024001,,,,,,,,,,,3.0998,0,,,,,,,,,,,,,,,,,,,,,,,,-0.266544663,-0.076493178,0,0,0,,,,,,,BELLY,HB,m,m,./images/BELLYHB.png,,,,,,,z,0,3.0998,,,,,,,,0,130,130,10,1
,,,,,,,,,,,,,,,,,199228,18,2022-01-28_15h56.52.010,lexical_decision_task_DD,2021.2.3,MacIntel,60.0024001,,,,,,,,,,,0.6364,0,,,,,,,,,,,,,,,,,,,,,,,,-0.266544663,-0.076493178,0,0,0,,,,,,,ONION,C,m,m,./images/ONION.png,,,,,,,z,0,0.6364,,,,,,,,0,131,131,51,1
,,,,,,,,,,,,,,,,,199228,18,2022-01-28_15h56.52.010,lexical_decision_task_DD,2021.2.3,MacIntel,60.0024001,,,,,,,,,,,0.7076,0,,,,,,,,,,,,,,,,,,,,,,,,-0.266544663,-0.076493178,0,0,0,,,,,,,SWEAT,C,m,m,./images/SWEAT.png,,,,,,,z,0,0.7076,,,,,,,,0,132,132,66,1
,,,,,,,,,,,,,,,,,199228,18,2022-01-28_15h56.52.010,lexical_decision_task_DD,2021.2.3,MacIntel,60.0024001,,,,,,,,,,,0.5512,1,,,,,,,,,,,,,,,,,,,,,,,,-0.266544663,-0.076493178,0,0,0,,,,,,,WALNUT,C,z,m,./images/WALNUT.png,,,,,,,z,1,0.5512,,,,,,,,0,133,133,84,1
,,,,,,,,,,,,,,,,,199228,18,2022-01-28_15h56.52.010,lexical_decision_task_DD,2021.2.3,MacIntel,60.0024001,,,,,,,,,,,0.7645,0,,,,,,,,,,,,,,,,,,,,,,,,-0.266544663,-0.076493178,0,0,0,,,,,,,BARREL,LB,m,m,./images/BARRELLB.png,,,,,,,z,0,0.7645,,,,,,,,0,134,134,32,1
,,,,,,,,,,,,,,,,,199228,18,2022-01-28_15h56.52.010,lexical_decision_task_DD,2021.2.3,MacIntel,60.0024001,,,,,,,,,,,0.6709,1,,,,,,,,,,,,,,,,,,,,,,,,-0.266544663,-0.076493178,0,0,0,,,,,,,MUMMY,HB,z,m,./images/MUMMYHB.png,,,,,,,z,1,0.6709,,,,,,,,0,135,135,130,1
,,,,,,,,,,,,,,,,,199228,18,2022-01-28_15h56.52.010,lexical_decision_task_DD,2021.2.3,MacIntel,60.0024001,,,,,,,,,,,0.8828,0,,,,,,,,,,,,,,,,,,,,,,,,-0.266544663,-0.076493178,0,0,0,,,,,,,CHALK,HB,z,m,./images/CHALKHB.png,,,,,,,m,0,0.8828,,,,,,,,0,136,136,109,1
,,,,,,,,,,,,,,,,,199228,18,2022-01-28_15h56.52.010,lexical_decision_task_DD,2021.2.3,MacIntel,60.0024001,,,,,,,,,,,0.6161,1,,,,,,,,,,,,,,,,,,,,,,,,-0.266544663,-0.076493178,0,0,0,,,,,,,BOXER,HB,z,m,./images/BOXERHB.png,,,,,,,z,1,0.6161,,,,,,,,0,137,137,88,1
,,,,,,,,,,,,,,,,,199228,18,2022-01-28_15h56.52.010,lexical_decision_task_DD,2021.2.3,MacIntel,60.0024001,,,,,,,,,,,0.4993,1,,,,,,,,,,,,,,,,,,,,,,,,-0.266544663,-0.076493178,0,0,0,,,,,,,CURRY,C,z,m,./images/CURRY.png,,,,,,,z,1,0.4993,,,,,,,,0,138,138,144,1
,,,,,,,,,,,,,,,,,199228,18,2022-01-28_15h56.52.010,lexical_decision_task_DD,2021.2.3,MacIntel,60.0024001,,,,,,,,,,,1.1524,1,,,,,,,,,,,,,,,,,,,,,,,,-0.266544663,-0.076493178,0,0,0,,,,,,,WEASEL,LB,m,m,./images/WEASELLB.png,,,,,,,m,1,1.1524,,,,,,,,0,139,139,80,1
,,,,,,,,,,,,,,,,,199228,18,2022-01-28_15h56.52.010,lexical_decision_task_DD,2021.2.3,MacIntel,60.0024001,,,,,,,,,,,0.7813,1,,,,,,,,,,,,,,,,,,,,,,,,-0.266544663,-0.076493178,0,0,0,,,,,,,PLANET,LB,z,m,./images/PLANETLB.png,,,,,,,z,1,0.7813,,,,,,,,0,140,140,164,1
,,,,,,,,,,,,,,,,,199228,18,2022-01-28_15h56.52.010,lexical_decision_task_DD,2021.2.3,MacIntel,60.0024001,,,,,,,,,,,0.6346,1,,,,,,,,,,,,,,,,,,,,,,,,-0.266544663,-0.076493178,0,0,0,,,,,,,HOCKEY,LB,z,m,./images/HOCKEYLB.png,,,,,,,z,1,0.6346,,,,,,,,0,141,141,116,1
,,,,,,,,,,,,,,,,,199228,18,2022-01-28_15h56.52.010,lexical_decision_task_DD,2021.2.3,MacIntel,60.0024001,,,,,,,,,,,0.5845,1,,,,,,,,,,,,,,,,,,,,,,,,-0.266544663,-0.076493178,0,0,0,,,,,,,GARDEN,HB,z,m,./images/GARDENHB.png,,,,,,,z,1,0.5845,,,,,,,,0,142,142,94,1
,,,,,,,,,,,,,,,,,199228,18,2022-01-28_15h56.52.010,lexical_decision_task_DD,2021.2.3,MacIntel,60.0024001,,,,,,,,,,,0.965,1,,,,,,,,,,,,,,,,,,,,,,,,-0.266544663,-0.076493178,0,0,0,,,,,,,CLOUD,LB,z,m,./images/CLOUDLB.png,,,,,,,z,1,0.965,,,,,,,,0,143,143,110,1
,,,,,,,,,,,,,,,,,199228,18,2022-01-28_15h56.52.010,lexical_decision_task_DD,2021.2.3,MacIntel,60.0024001,,,,,,,,,,,0.634,1,,,,,,,,,,,,,,,,,,,,,,,,-0.266544663,-0.076493178,0,0,0,,,,,,,SMOKER,LB,m,m,./images/SMOKERLB.png,,,,,,,m,1,0.634,,,,,,,,0,144,144,26,1
,,,,,,,,,,,,,,,,,199228,18,2022-01-28_15h56.52.010,lexical_decision_task_DD,2021.2.3,MacIntel,60.0024001,,,,,,,,,,,0.9195,1,,,,,,,,,,,,,,,,,,,,,,,,-0.266544663,-0.076493178,0,0,0,,,,,,,STEAK,HB,z,m,./images/STEAKHB.png,,,,,,,z,1,0.9195,,,,,,,,0,145,145,115,1
,,,,,,,,,,,,,,,,,199228,18,2022-01-28_15h56.52.010,lexical_decision_task_DD,2021.2.3,MacIntel,60.0024001,,,,,,,,,,,0.8469,1,,,,,,,,,,,,,,,,,,,,,,,,-0.266544663,-0.076493178,0,0,0,,,,,,,SKIING,LB,m,m,./images/SKIINGLB.png,,,,,,,m,1,0.8469,,,,,,,,0,146,146,17,1
,,,,,,,,,,,,,,,,,199228,18,2022-01-28_15h56.52.010,lexical_decision_task_DD,2021.2.3,MacIntel,60.0024001,,,,,,,,,,,1.7726,1,,,,,,,,,,,,,,,,,,,,,,,,-0.266544663,-0.076493178,0,0,0,,,,,,,STOVE,LB,z,m,./images/STOVELB.png,,,,,,,z,1,1.7726,,,,,,,,0,147,147,86,1
,,,,,,,,,,,,,,,,,199228,18,2022-01-28_15h56.52.010,lexical_decision_task_DD,2021.2.3,MacIntel,60.0024001,,,,,,,,,,,1.773,1,,,,,,,,,,,,,,,,,,,,,,,,-0.266544663,-0.076493178,0,0,0,,,,,,,SAILOR,HB,m,m,./images/SAILORHB.png,,,,,,,m,1,1.773,,,,,,,,0,148,148,67,1
,,,,,,,,,,,,,,,,,199228,18,2022-01-28_15h56.52.010,lexical_decision_task_DD,2021.2.3,MacIntel,60.0024001,,,,,,,,,,,1.0834,1,,,,,,,,,,,,,,,,,,,,,,,,-0.266544663,-0.076493178,0,0,0,,,,,,,SAUCE,C,z,m,./images/SAUCE.png,,,,,,,z,1,1.0834,,,,,,,,0,149,149,135,1
,,,,,,,,,,,,,,,,,199228,18,2022-01-28_15h56.52.010,lexical_decision_task_DD,2021.2.3,MacIntel,60.0024001,,,,,,,,,,,0.8143,1,,,,,,,,,,,,,,,,,,,,,,,,-0.266544663,-0.076493178,0,0,0,,,,,,,FARMER,LB,m,m,./images/FARMERLB.png,,,,,,,m,1,0.8143,,,,,,,,0,150,150,65,1
,,,,,,,,,,,,,,,,,199228,18,2022-01-28_15h56.52.010,lexical_decision_task_DD,2021.2.3,MacIntel,60.0024001,,,,,,,,,,,0.6676,1,,,,,,,,,,,,,,,,,,,,,,,,-0.266544663,-0.076493178,0,0,0,,,,,,,COLLAR,C,z,m,./images/COLLAR.png,,,,,,,z,1,0.6676,,,,,,,,0,151,151,99,1
,,,,,,,,,,,,,,,,,199228,18,2022-01-28_15h56.52.010,lexical_decision_task_DD,2021.2.3,MacIntel,60.0024001,,,,,,,,,,,0.5832,1,,,,,,,,,,,,,,,,,,,,,,,,-0.266876138,-0.07713719,0,0,0,,,,,,,FERRY,C,z,m,./images/FERRY.png,,,,,,,z,1,0.5832,,,,,,,,0,152,152,141,1
,,,,,,,,,,,,,,,,,199228,18,2022-01-28_15h56.52.010,lexical_decision_task_DD,2021.2.3,MacIntel,60.0024001,,,,,,,,,,,0.7818,1,,,,,,,,,,,,,,,,,,,,,,,,-0.267188509,-0.078224244,0,0,0,,,,,,,BRIDE,HB,z,m,./images/BRIDEHB.png,,,,,,,z,1,0.7818,,,,,,,,0,153,153,148,1
,,,,,,,,,,,,,,,,,199228,18,2022-01-28_15h56.52.010,lexical_decision_task_DD,2021.2.3,MacIntel,60.0024001,,,,,,,,,,,0.6153,1,,,,,,,,,,,,,,,,,,,,,,,,-0.267188509,-0.078224244,0,0,0,,,,,,,COOKER,C,m,m,./images/COOKER.png,,,,,,,m,1,0.6153,,,,,,,,0,154,154,69,1
,,,,,,,,,,,,,,,,,199228,18,2022-01-28_15h56.52.010,lexical_decision_task_DD,2021.2.3,MacIntel,60.0024001,,,,,,,,,,,1.0677,1,,,,,,,,,,,,,,,,,,,,,,,,-0.267188509,-0.078224244,0,0,0,,,,,,,PLANK,HB,m,m,./images/PLANKHB.png,,,,,,,m,1,1.0677,,,,,,,,0,155,155,1,1
,,,,,,,,,,,,,,,,,199228,18,2022-01-28_15h56.52.010,lexical_decision_task_DD,2021.2.3,MacIntel,60.0024001,,,,,,,,,,,0.8513,1,,,,,,,,,,,,,,,,,,,,,,,,-0.267188509,-0.078224244,0,0,0,,,,,,,SPINE,LB,z,m,./images/SPINELB.png,,,,,,,z,1,0.8513,,,,,,,,0,156,156,149,1
,,,,,,,,,,,,,,,,,199228,18,2022-01-28_15h56.52.010,lexical_decision_task_DD,2021.2.3,MacIntel,60.0024001,,,,,,,,,,,0.6148,1,,,,,,,,,,,,,,,,,,,,,,,,-0.267188509,-0.078224244,0,0,0,,,,,,,BABOON,HB,m,m,./images/BABOONHB.png,,,,,,,m,1,0.6148,,,,,,,,0,157,157,58,1
,,,,,,,,,,,,,,,,,199228,18,2022-01-28_15h56.52.010,lexical_decision_task_DD,2021.2.3,MacIntel,60.0024001,,,,,,,,,,,0.6796,1,,,,,,,,,,,,,,,,,,,,,,,,-0.267188509,-0.078224244,0,0,0,,,,,,,SHORE,C,m,m,./images/SHORE.png,,,,,,,m,1,0.6796,,,,,,,,0,158,158,12,1
,,,,,,,,,,,,,,,,,199228,18,2022-01-28_15h56.52.010,lexical_decision_task_DD,2021.2.3,MacIntel,60.0024001,,,,,,,,,,,0.7504,0,,,,,,,,,,,,,,,,,,,,,,,,-0.267188509,-0.078224244,0,0,0,,,,,,,WALRUS,LB,m,m,./images/WALRUSLB.png,,,,,,,z,0,0.7504,,,,,,,,0,159,159,23,1
,,,,,,,,,,,,,,,,,199228,18,2022-01-28_15h56.52.010,lexical_decision_task_DD,2021.2.3,MacIntel,60.0024001,,,,,,,,,,,0.8322,1,,,,,,,,,,,,,,,,,,,,,,,,-0.267188509,-0.078224244,0,0,0,,,,,,,CLIFF,LB,z,m,./images/CLIFFLB.png,,,,,,,z,1,0.8322,,,,,,,,0,160,160,92,1
,,,,,,,,,,,,,,,,,199228,18,2022-01-28_15h56.52.010,lexical_decision_task_DD,2021.2.3,MacIntel,60.0024001,,,,,,,,,,,0.5867,0,,,,,,,,,,,,,,,,,,,,,,,,-0.267188509,-0.078224244,0,0,0,,,,,,,LITTER,C,m,m,./images/LITTER.png,,,,,,,z,0,0.5867,,,,,,,,0,161,161,78,1
,,,,,,,,,,,,,,,,,199228,18,2022-01-28_15h56.52.010,lexical_decision_task_DD,2021.2.3,MacIntel,60.0024001,,,,,,,,,,,0.7619,1,,,,,,,,,,,,,,,,,,,,,,,,-0.267188509,-0.078224244,0,0,0,,,,,,,ALLEY,HB,z,m,./images/ALLEYHB.png,,,,,,,z,1,0.7619,,,,,,,,0,162,162,139,1
,,,,,,,,,,,,,,,,,199228,18,2022-01-28_15h56.52.010,lexical_decision_task_DD,2021.2.3,MacIntel,60.0024001,,,,,,,,,,,0.907,1,,,,,,,,,,,,,,,,,,,,,,,,-0.267188509,-0.078224244,0,0,0,,,,,,,TULIP,LB,m,m,./images/TULIPLB.png,,,,,,,m,1,0.907,,,,,,,,0,163,163,8,1
,,,,,,,,,,,,,,,,,199228,18,2022-01-28_15h56.52.010,lexical_decision_task_DD,2021.2.3,MacIntel,60.0024001,,,,,,,,,,,0.5726,1,,,,,,,,,,,,,,,,,,,,,,,,-0.267188509,-0.078224244,0,0,0,,,,,,,MEDAL,LB,z,m,./images/MEDALLB.png,,,,,,,z,1,0.5726,,,,,,,,0,164,164,95,1
,,,,,,,,,,,,,,,,,199228,18,2022-01-28_15h56.52.010,lexical_decision_task_DD,2021.2.3,MacIntel,60.0024001,,,,,,,,,,,0.6386,0,,,,,,,,,,,,,,,,,,,,,,,,-0.267188509,-0.078224244,0,0,0,,,,,,,CARPET,LB,m,m,./images/CARPETLB.png,,,,,,,z,0,0.6386,,,,,,,,0,165,165,53,1
,,,,,,,,,,,,,,,,,199228,18,2022-01-28_15h56.52.010,lexical_decision_task_DD,2021.2.3,MacIntel,60.0024001,,,,,,,,,,,0.7022,0,,,,,,,,,,,,,,,,,,,,,,,,-0.267188509,-0.078224244,0,0,0,,,,,,,VALLEY,LB,z,m,./images/VALLEYLB.png,,,,,,,m,0,0.7022,,,,,,,,0,166,166,152,1
,,,,,,,,,,,,,,,,,199228,18,2022-01-28_15h56.52.010,lexical_decision_task_DD,2021.2.3,MacIntel,60.0024001,,,,,,,,,,,1.865,1,,,,,,,,,,,,,,,,,,,,,,,,-0.267188509,-0.078224244,0,0,0,,,,,,,BAKER,C,z,m,./images/BAKER.png,,,,,,,z,1,1.865,,,,,,,,0,167,167,147,1
