key_resp.keys,instr_done_touch.x,instr_done_touch.y,instr_done_touch.leftButton,instr_done_touch.midButton,instr_done_touch.rightButton,instr_done_touch.clicked_name,instruction_pages.thisRepN,instruction_pages.thisTrialN,instruction_pages.thisN,instruction_pages.thisIndex,instruction_pages.ran,pageN,phase,instruct_text,has_image,instruct_image,participant,age,date,expName,psychopyVersion,OS,frameRate,key_resp.rt,response.keys,response.corr,response.rt,touch_resp.x,touch_resp.y,touch_resp.leftButton,touch_resp.midButton,touch_resp.rightButton,touch_resp.time,touch_resp.clicked_name,rt,corr,practrials.thisRepN,practrials.thisTrialN,practrials.thisN,practrials.thisIndex,practrials.ran,TrialID,Target,corrAns,end_of_practice_trials_pages.thisRepN,end_of_practice_trials_pages.thisTrialN,end_of_practice_trials_pages.thisN,end_of_practice_trials_pages.thisIndex,end_of_practice_trials_pages.ran,key_resp_2.keys,key_resp_2.corr,key_resp_2.rt,targ_click.x,targ_click.y,targ_click.leftButton,targ_click.midButton,targ_click.rightButton,targ_click.time,targ_click.clicked_name,break_done_touch.x,break_done_touch.y,break_done_touch.leftButton,break_done_touch.midButton,break_done_touch.rightButton,break_done_keyboard.keys,maintrials.thisRepN,maintrials.thisTrialN,maintrials.thisN,maintrials.thisIndex,maintrials.ran,string,blur,study,lex,stim_path,break_done_keyboard.rt,test_instructions.thisRepN,test_instructions.thisTrialN,test_instructions.thisN,test_instructions.thisIndex,test_instructions.ran,key_resp_3.keys,key_resp_3.corr,key_resp_3.rt,test_click.x,test_click.y,test_click.leftButton,test_click.midButton,test_click.rightButton,test_click.time,test_click.clicked_name,test_phase.thisRepN,test_phase.thisTrialN,test_phase.thisN,test_phase.thisIndex,test_phase.ran,break_done_touch.clicked_name
,0.040069809,-0.414241791,1,0,0,instr_done_button,0,0,0,0,1,1,instructions,"INSTRUCTIONS
At the start of each trial, look at the plus sign  (+) in the center of the screen.  This tells you that a trial is about to begin and where to look. Second, the plus sign will disappear and a string of letters will appear. Your task is to determine if the string of letters is a word or not. If the item is a word press the M key (on keyboard)  or touch the word button (phone/tablet).  If the item is not a word,  press the  Z key (on keyboard)  or touch the nonword button (on phone/tablet). 
Press the space bar or touch  continue.",0,,199237,,2022-01-28_16h34.51.164,lexical_decision_task_DD_L6,2021.2.3,MacIntel,59.97361161,,,,,,,,,,,,,,,,,,,,,,,,,,,,,,,,,,,,,,,,,,,,,,,,,,,,,,,,,,,,,,,,,,,,,,,,,,
space,0.040069809,-0.414241791,0,0,0,,0,1,1,1,1,2,instructions,"If your device has a keyboard, press the 'Z' key for nonwords and the 'M' key for words.





Press the space bar or touch the button below to continue.",0,keyboard-example.gif,199237,,2022-01-28_16h34.51.164,lexical_decision_task_DD_L6,2021.2.3,MacIntel,59.97361161,6.6503,,,,,,,,,,,,,,,,,,,,,,,,,,,,,,,,,,,,,,,,,,,,,,,,,,,,,,,,,,,,,,,,,,,,,,,,,
space,0.040069809,-0.414241791,0,0,0,,0,2,2,2,1,3,instructions,"If you are using a touchscreen only device, use the buttons on the screen. Do not use the mouse.





Press the space bar or touch the button below to continue.",0,touchscreen-example.gif,199237,,2022-01-28_16h34.51.164,lexical_decision_task_DD_L6,2021.2.3,MacIntel,59.97361161,3.427,,,,,,,,,,,,,,,,,,,,,,,,,,,,,,,,,,,,,,,,,,,,,,,,,,,,,,,,,,,,,,,,,,,,,,,,,
space,0.040069809,-0.414241791,0,0,0,,0,3,3,3,1,4,instructions,"It is very important that you respond as quickly and accurately as possible, as each letter string will only be on the screen for two seconds. If you do not respond within this time, the message 'Too slow!' will be displayed and the experiment will progress to the next letter string. The first 20 trials will be practice trials and you will receive feedback on your answers. 

Press the space bar or touch the button below to start the practice trials.",0,,199237,,2022-01-28_16h34.51.164,lexical_decision_task_DD_L6,2021.2.3,MacIntel,59.97361161,5.2404,,,,,,,,,,,,,,,,,,,,,,,,,,,,,,,,,,,,,,,,,,,,,,,,,,,,,,,,,,,,,,,,,,,,,,,,,
,,,,,,,,,,,,,,,,,199237,,2022-01-28_16h34.51.164,lexical_decision_task_DD_L6,2021.2.3,MacIntel,59.97361161,,m,0,2.1076,,,,,,,,2.1076,0,0,0,0,15,1,1001,WHAISE,z,,,,,,,,,,,,,,,,,,,,,,,,,,,,,,,,,,,,,,,,,,,,,,,,,,,,,
,,,,,,,,,,,,,,,,,199237,,2022-01-28_16h34.51.164,lexical_decision_task_DD_L6,2021.2.3,MacIntel,59.97361161,,m,0,0.9983,,,,,,,,0.9983,0,0,1,1,12,1,1001,SPRINY,z,,,,,,,,,,,,,,,,,,,,,,,,,,,,,,,,,,,,,,,,,,,,,,,,,,,,,
,,,,,,,,,,,,,,,,,199237,,2022-01-28_16h34.51.164,lexical_decision_task_DD_L6,2021.2.3,MacIntel,59.97361161,,m,1,1.9997,,,,,,,,1.9997,1,0,2,2,4,1,1001,SQUEAK,m,,,,,,,,,,,,,,,,,,,,,,,,,,,,,,,,,,,,,,,,,,,,,,,,,,,,,
,,,,,,,,,,,,,,,,,199237,,2022-01-28_16h34.51.164,lexical_decision_task_DD_L6,2021.2.3,MacIntel,59.97361161,,m,1,0.6847,,,,,,,,0.6847,1,0,3,3,3,1,1001,MATRIX,m,,,,,,,,,,,,,,,,,,,,,,,,,,,,,,,,,,,,,,,,,,,,,,,,,,,,,
,,,,,,,,,,,,,,,,,199237,,2022-01-28_16h34.51.164,lexical_decision_task_DD_L6,2021.2.3,MacIntel,59.97361161,,m,1,0.7517,,,,,,,,0.7517,1,0,4,4,2,1,1001,ALMOND,m,,,,,,,,,,,,,,,,,,,,,,,,,,,,,,,,,,,,,,,,,,,,,,,,,,,,,
,,,,,,,,,,,,,,,,,199237,,2022-01-28_16h34.51.164,lexical_decision_task_DD_L6,2021.2.3,MacIntel,59.97361161,,z,1,1.6836,,,,,,,,1.6836,1,0,5,5,14,1,1001,THRALE,z,,,,,,,,,,,,,,,,,,,,,,,,,,,,,,,,,,,,,,,,,,,,,,,,,,,,,
,,,,,,,,,,,,,,,,,199237,,2022-01-28_16h34.51.164,lexical_decision_task_DD_L6,2021.2.3,MacIntel,59.97361161,,z,1,0.7981,,,,,,,,0.7981,1,0,6,6,10,1,1001,INLADE,z,,,,,,,,,,,,,,,,,,,,,,,,,,,,,,,,,,,,,,,,,,,,,,,,,,,,,
,,,,,,,,,,,,,,,,,199237,,2022-01-28_16h34.51.164,lexical_decision_task_DD_L6,2021.2.3,MacIntel,59.97361161,,z,1,0.8835,,,,,,,,0.8835,1,0,7,7,11,1,1001,RASHET,z,,,,,,,,,,,,,,,,,,,,,,,,,,,,,,,,,,,,,,,,,,,,,,,,,,,,,
,,,,,,,,,,,,,,,,,199237,,2022-01-28_16h34.51.164,lexical_decision_task_DD_L6,2021.2.3,MacIntel,59.97361161,,m,0,1.4331,,,,,,,,1.4331,0,0,8,8,9,1,1001,FARINY,z,,,,,,,,,,,,,,,,,,,,,,,,,,,,,,,,,,,,,,,,,,,,,,,,,,,,,
,,,,,,,,,,,,,,,,,199237,,2022-01-28_16h34.51.164,lexical_decision_task_DD_L6,2021.2.3,MacIntel,59.97361161,,m,1,0.8188,,,,,,,,0.8188,1,0,9,9,1,1,1001,ADJUST,m,,,,,,,,,,,,,,,,,,,,,,,,,,,,,,,,,,,,,,,,,,,,,,,,,,,,,
,,,,,,,,,,,,,,,,,199237,,2022-01-28_16h34.51.164,lexical_decision_task_DD_L6,2021.2.3,MacIntel,59.97361161,,m,1,0.6642,,,,,,,,0.6642,1,0,10,10,6,1,1001,ZOMBIE,m,,,,,,,,,,,,,,,,,,,,,,,,,,,,,,,,,,,,,,,,,,,,,,,,,,,,,
,,,,,,,,,,,,,,,,,199237,,2022-01-28_16h34.51.164,lexical_decision_task_DD_L6,2021.2.3,MacIntel,59.97361161,,z,1,0.8869,,,,,,,,0.8869,1,0,11,11,8,1,1001,ASLERT,z,,,,,,,,,,,,,,,,,,,,,,,,,,,,,,,,,,,,,,,,,,,,,,,,,,,,,
,,,,,,,,,,,,,,,,,199237,,2022-01-28_16h34.51.164,lexical_decision_task_DD_L6,2021.2.3,MacIntel,59.97361161,,m,1,0.8172,,,,,,,,0.8172,1,0,12,12,0,1,1001,UTOPIA,m,,,,,,,,,,,,,,,,,,,,,,,,,,,,,,,,,,,,,,,,,,,,,,,,,,,,,
,,,,,,,,,,,,,,,,,199237,,2022-01-28_16h34.51.164,lexical_decision_task_DD_L6,2021.2.3,MacIntel,59.97361161,,m,1,0.5841,,,,,,,,0.5841,1,0,13,13,7,1,1001,VOLUME,m,,,,,,,,,,,,,,,,,,,,,,,,,,,,,,,,,,,,,,,,,,,,,,,,,,,,,
,,,,,,,,,,,,,,,,,199237,,2022-01-28_16h34.51.164,lexical_decision_task_DD_L6,2021.2.3,MacIntel,59.97361161,,m,1,0.5185,,,,,,,,0.5185,1,0,14,14,5,1,1001,OBTAIN,m,,,,,,,,,,,,,,,,,,,,,,,,,,,,,,,,,,,,,,,,,,,,,,,,,,,,,
,,,,,,,,,,,,,,,,,199237,,2022-01-28_16h34.51.164,lexical_decision_task_DD_L6,2021.2.3,MacIntel,59.97361161,,z,1,0.8688,,,,,,,,0.8688,1,0,15,15,13,1,1001,ROUPET,z,,,,,,,,,,,,,,,,,,,,,,,,,,,,,,,,,,,,,,,,,,,,,,,,,,,,,
space,0.038834457,-0.383666,0,0,0,,,,,,,1,end_of_practice,"You have completed the practice trials. During the experimental trials, you will not receive feedback. 
Before you begin, please ensure that you are in a comfortable and quiet location and will not be disturbed for about 15 minutes, as we cannot use your data if you do not complete all the trials. 
 When you are ready to start the experimental trials, please press space or touch the button below.",,,199237,,2022-01-28_16h34.51.164,lexical_decision_task_DD_L6,2021.2.3,MacIntel,59.97361161,7.8789,,,,,,,,,,,,,,,,,,,,,0,0,0,0,1,,,,,,,,,,,,,,,,,,,,,,,,,,,,,,,,,,,,,,,,,,,,,,,,
,,,,,,,,,,,,,,,,,199237,,2022-01-28_16h34.51.164,lexical_decision_task_DD_L6,2021.2.3,MacIntel,59.97361161,,,,,,,,,,,,1.4979,1,,,,,,,,,,,,,,m,1,1.4979,,,,,,,,0.038834457,-0.383666,0,0,0,,0,0,0,41,1,STREAM,HB,old,m,./images/STREAMHB.png,,,,,,,,,,,,,,,,,,,,,,
,,,,,,,,,,,,,,,,,199237,,2022-01-28_16h34.51.164,lexical_decision_task_DD_L6,2021.2.3,MacIntel,59.97361161,,,,,,,,,,,,0.818,1,,,,,,,,,,,,,,m,1,0.818,,,,,,,,0.038834457,-0.383666,0,0,0,,0,1,1,62,1,MAMMAL,HB,old,m,./images/MAMMALHB.png,,,,,,,,,,,,,,,,,,,,,,
,,,,,,,,,,,,,,,,,199237,,2022-01-28_16h34.51.164,lexical_decision_task_DD_L6,2021.2.3,MacIntel,59.97361161,,,,,,,,,,,,0.9826,1,,,,,,,,,,,,,,m,1,0.9826,,,,,,,,0.038834457,-0.383666,0,0,0,,0,2,2,11,1,MEDAL,HB,old,m,./images/MEDALHB.png,,,,,,,,,,,,,,,,,,,,,,
,,,,,,,,,,,,,,,,,199237,,2022-01-28_16h34.51.164,lexical_decision_task_DD_L6,2021.2.3,MacIntel,59.97361161,,,,,,,,,,,,1.0979,1,,,,,,,,,,,,,,z,1,1.0979,,,,,,,,0.038834457,-0.383666,0,0,0,,0,3,3,127,1,NINDY,HB,old,z,./images/NINDYHB.png,,,,,,,,,,,,,,,,,,,,,,
,,,,,,,,,,,,,,,,,199237,,2022-01-28_16h34.51.164,lexical_decision_task_DD_L6,2021.2.3,MacIntel,59.97361161,,,,,,,,,,,,0.7642,1,,,,,,,,,,,,,,m,1,0.7642,,,,,,,,0.038834457,-0.383666,0,0,0,,0,4,4,13,1,BUNNY,C,old,m,./images/BUNNY.png,,,,,,,,,,,,,,,,,,,,,,
,,,,,,,,,,,,,,,,,199237,,2022-01-28_16h34.51.164,lexical_decision_task_DD_L6,2021.2.3,MacIntel,59.97361161,,,,,,,,,,,,0.6645,1,,,,,,,,,,,,,,m,1,0.6645,,,,,,,,0.038834457,-0.383666,0,0,0,,0,5,5,2,1,STOVE,HB,old,m,./images/STOVEHB.png,,,,,,,,,,,,,,,,,,,,,,
,,,,,,,,,,,,,,,,,199237,,2022-01-28_16h34.51.164,lexical_decision_task_DD_L6,2021.2.3,MacIntel,59.97361161,,,,,,,,,,,,0.8487,1,,,,,,,,,,,,,,z,1,0.8487,,,,,,,,0.038834457,-0.383666,0,0,0,,0,6,6,119,1,PAFER,LB,old,z,./images/PAFERLB.png,,,,,,,,,,,,,,,,,,,,,,
,,,,,,,,,,,,,,,,,199237,,2022-01-28_16h34.51.164,lexical_decision_task_DD_L6,2021.2.3,MacIntel,59.97361161,,,,,,,,,,,,1.3803,1,,,,,,,,,,,,,,z,1,1.3803,,,,,,,,0.038834457,-0.383666,0,0,0,,0,7,7,113,1,LINEW,LB,old,z,./images/LINEWLB.png,,,,,,,,,,,,,,,,,,,,,,
,,,,,,,,,,,,,,,,,199237,,2022-01-28_16h34.51.164,lexical_decision_task_DD_L6,2021.2.3,MacIntel,59.97361161,,,,,,,,,,,,1.136,0,,,,,,,,,,,,,,m,0,1.136,,,,,,,,0.038834457,-0.383666,0,0,0,,0,8,8,161,1,BLAPS,LB,old,z,./images/BLAPSLB.png,,,,,,,,,,,,,,,,,,,,,,
,,,,,,,,,,,,,,,,,199237,,2022-01-28_16h34.51.164,lexical_decision_task_DD_L6,2021.2.3,MacIntel,59.97361161,,,,,,,,,,,,0.6166,1,,,,,,,,,,,,,,m,1,0.6166,,,,,,,,0.038834457,-0.383666,0,0,0,,0,9,9,34,1,RAZOR,C,old,m,./images/RAZOR.png,,,,,,,,,,,,,,,,,,,,,,
,,,,,,,,,,,,,,,,,199237,,2022-01-28_16h34.51.164,lexical_decision_task_DD_L6,2021.2.3,MacIntel,59.97361161,,,,,,,,,,,,1.4849,0,,,,,,,,,,,,,,z,0,1.4849,,,,,,,,0.038834457,-0.383666,0,0,0,,0,10,10,53,1,POSTER,HB,old,m,./images/POSTERHB.png,,,,,,,,,,,,,,,,,,,,,,
,,,,,,,,,,,,,,,,,199237,,2022-01-28_16h34.51.164,lexical_decision_task_DD_L6,2021.2.3,MacIntel,59.97361161,,,,,,,,,,,,1.1831,1,,,,,,,,,,,,,,z,1,1.1831,,,,,,,,0.038834457,-0.383666,0,0,0,,0,11,11,124,1,TUNCH,HB,old,z,./images/TUNCHHB.png,,,,,,,,,,,,,,,,,,,,,,
,,,,,,,,,,,,,,,,,199237,,2022-01-28_16h34.51.164,lexical_decision_task_DD_L6,2021.2.3,MacIntel,59.97361161,,,,,,,,,,,,0.6314,1,,,,,,,,,,,,,,m,1,0.6314,,,,,,,,0.038834457,-0.383666,0,0,0,,0,12,12,25,1,CHALK,C,old,m,./images/CHALK.png,,,,,,,,,,,,,,,,,,,,,,
,,,,,,,,,,,,,,,,,199237,,2022-01-28_16h34.51.164,lexical_decision_task_DD_L6,2021.2.3,MacIntel,59.97361161,,,,,,,,,,,,0.5478,1,,,,,,,,,,,,,,m,1,0.5478,,,,,,,,0.038834457,-0.383666,0,0,0,,0,13,13,21,1,DANCER,LB,old,m,./images/DANCERLB.png,,,,,,,,,,,,,,,,,,,,,,
,,,,,,,,,,,,,,,,,199237,,2022-01-28_16h34.51.164,lexical_decision_task_DD_L6,2021.2.3,MacIntel,59.97361161,,,,,,,,,,,,0.5486,1,,,,,,,,,,,,,,m,1,0.5486,,,,,,,,0.038834457,-0.383666,0,0,0,,0,14,14,60,1,CURRY,LB,old,m,./images/CURRYLB.png,,,,,,,,,,,,,,,,,,,,,,
,,,,,,,,,,,,,,,,,199237,,2022-01-28_16h34.51.164,lexical_decision_task_DD_L6,2021.2.3,MacIntel,59.97361161,,,,,,,,,,,,0.6992,0,,,,,,,,,,,,,,z,0,0.6992,,,,,,,,0.038834457,-0.383666,0,0,0,,0,15,15,35,1,LLAMA,HB,old,m,./images/LLAMAHB.png,,,,,,,,,,,,,,,,,,,,,,
,,,,,,,,,,,,,,,,,199237,,2022-01-28_16h34.51.164,lexical_decision_task_DD_L6,2021.2.3,MacIntel,59.97361161,,,,,,,,,,,,0.5517,1,,,,,,,,,,,,,,m,1,0.5517,,,,,,,,0.038834457,-0.383666,0,0,0,,0,16,16,36,1,BOILER,LB,old,m,./images/BOILERLB.png,,,,,,,,,,,,,,,,,,,,,,
,,,,,,,,,,,,,,,,,199237,,2022-01-28_16h34.51.164,lexical_decision_task_DD_L6,2021.2.3,MacIntel,59.97361161,,,,,,,,,,,,1.2979,0,,,,,,,,,,,,,,m,0,1.2979,,,,,,,,0.038834457,-0.383666,0,0,0,,0,17,17,104,1,GITTY,LB,old,z,./images/GITTYLB.png,,,,,,,,,,,,,,,,,,,,,,
,,,,,,,,,,,,,,,,,199237,,2022-01-28_16h34.51.164,lexical_decision_task_DD_L6,2021.2.3,MacIntel,59.97361161,,,,,,,,,,,,0.7799,1,,,,,,,,,,,,,,m,1,0.7799,,,,,,,,0.038834457,-0.383666,0,0,0,,0,18,18,14,1,FENCE,HB,old,m,./images/FENCEHB.png,,,,,,,,,,,,,,,,,,,,,,
,,,,,,,,,,,,,,,,,199237,,2022-01-28_16h34.51.164,lexical_decision_task_DD_L6,2021.2.3,MacIntel,59.97361161,,,,,,,,,,,,1.9833,1,,,,,,,,,,,,,,z,1,1.9833,,,,,,,,0.038834457,-0.383666,0,0,0,,0,19,19,115,1,MAWNS,HB,old,z,./images/MAWNSHB.png,,,,,,,,,,,,,,,,,,,,,,
,,,,,,,,,,,,,,,,,199237,,2022-01-28_16h34.51.164,lexical_decision_task_DD_L6,2021.2.3,MacIntel,59.97361161,,,,,,,,,,,,0.6166,1,,,,,,,,,,,,,,m,1,0.6166,,,,,,,,0.038834457,-0.383666,0,0,0,,0,20,20,23,1,CLOTH,HB,old,m,./images/CLOTHHB.png,,,,,,,,,,,,,,,,,,,,,,
,,,,,,,,,,,,,,,,,199237,,2022-01-28_16h34.51.164,lexical_decision_task_DD_L6,2021.2.3,MacIntel,59.97361161,,,,,,,,,,,,0.779,1,,,,,,,,,,,,,,z,1,0.779,,,,,,,,0.038834457,-0.383666,0,0,0,,0,21,21,93,1,SMONE,C,old,z,./images/SMONE.png,,,,,,,,,,,,,,,,,,,,,,
,,,,,,,,,,,,,,,,,199237,,2022-01-28_16h34.51.164,lexical_decision_task_DD_L6,2021.2.3,MacIntel,59.97361161,,,,,,,,,,,,1.1144,1,,,,,,,,,,,,,,z,1,1.1144,,,,,,,,0.038834457,-0.383666,0,0,0,,0,22,22,100,1,DRIBS,HB,old,z,./images/DRIBSHB.png,,,,,,,,,,,,,,,,,,,,,,
,,,,,,,,,,,,,,,,,199237,,2022-01-28_16h34.51.164,lexical_decision_task_DD_L6,2021.2.3,MacIntel,59.97361161,,,,,,,,,,,,1.6805,1,,,,,,,,,,,,,,z,1,1.6805,,,,,,,,0.038834457,-0.383666,0,0,0,,0,23,23,144,1,NAIRY,C,old,z,./images/NAIRY.png,,,,,,,,,,,,,,,,,,,,,,
,,,,,,,,,,,,,,,,,199237,,2022-01-28_16h34.51.164,lexical_decision_task_DD_L6,2021.2.3,MacIntel,59.97361161,,,,,,,,,,,,0.614,1,,,,,,,,,,,,,,m,1,0.614,,,,,,,,0.038834457,-0.383666,0,0,0,,0,24,24,75,1,HAMMER,LB,old,m,./images/HAMMERLB.png,,,,,,,,,,,,,,,,,,,,,,
,,,,,,,,,,,,,,,,,199237,,2022-01-28_16h34.51.164,lexical_decision_task_DD_L6,2021.2.3,MacIntel,59.97361161,,,,,,,,,,,,1.5801,0,,,,,,,,,,,,,,m,0,1.5801,,,,,,,,0.038834457,-0.383666,0,0,0,,0,25,25,141,1,PLEET,C,old,z,./images/PLEET.png,,,,,,,,,,,,,,,,,,,,,,
,,,,,,,,,,,,,,,,,199237,,2022-01-28_16h34.51.164,lexical_decision_task_DD_L6,2021.2.3,MacIntel,59.97361161,,,,,,,,,,,,0.5677,1,,,,,,,,,,,,,,m,1,0.5677,,,,,,,,0.038834457,-0.383666,0,0,0,,0,26,26,58,1,CANOE,C,old,m,./images/CANOE.png,,,,,,,,,,,,,,,,,,,,,,
,,,,,,,,,,,,,,,,,199237,,2022-01-28_16h34.51.164,lexical_decision_task_DD_L6,2021.2.3,MacIntel,59.97361161,,,,,,,,,,,,0.8313,1,,,,,,,,,,,,,,z,1,0.8313,,,,,,,,0.038834457,-0.383666,0,0,0,,0,27,27,95,1,HANTY,LB,old,z,./images/HANTYLB.png,,,,,,,,,,,,,,,,,,,,,,
,,,,,,,,,,,,,,,,,199237,,2022-01-28_16h34.51.164,lexical_decision_task_DD_L6,2021.2.3,MacIntel,59.97361161,,,,,,,,,,,,0.6497,1,,,,,,,,,,,,,,m,1,0.6497,,,,,,,,0.038834457,-0.383666,0,0,0,,0,28,28,32,1,HOCKEY,HB,old,m,./images/HOCKEYHB.png,,,,,,,,,,,,,,,,,,,,,,
,,,,,,,,,,,,,,,,,199237,,2022-01-28_16h34.51.164,lexical_decision_task_DD_L6,2021.2.3,MacIntel,59.97361161,,,,,,,,,,,,0.6144,1,,,,,,,,,,,,,,m,1,0.6144,,,,,,,,0.038834457,-0.383666,0,0,0,,0,29,29,67,1,POKER,C,old,m,./images/POKER.png,,,,,,,,,,,,,,,,,,,,,,
,,,,,,,,,,,,,,,,,199237,,2022-01-28_16h34.51.164,lexical_decision_task_DD_L6,2021.2.3,MacIntel,59.97361161,,,,,,,,,,,,0.9001,1,,,,,,,,,,,,,,z,1,0.9001,,,,,,,,0.038834457,-0.383666,0,0,0,,0,30,30,155,1,CANGY,LB,old,z,./images/CANGYLB.png,,,,,,,,,,,,,,,,,,,,,,
,,,,,,,,,,,,,,,,,199237,,2022-01-28_16h34.51.164,lexical_decision_task_DD_L6,2021.2.3,MacIntel,59.97361161,,,,,,,,,,,,1.2491,1,,,,,,,,,,,,,,z,1,1.2491,,,,,,,,0.038834457,-0.383666,0,0,0,,0,31,31,94,1,BLANS,HB,old,z,./images/BLANSHB.png,,,,,,,,,,,,,,,,,,,,,,
,,,,,,,,,,,,,,,,,199237,,2022-01-28_16h34.51.164,lexical_decision_task_DD_L6,2021.2.3,MacIntel,59.97361161,,,,,,,,,,,,0.6303,1,,,,,,,,,,,,,,m,1,0.6303,,,,,,,,0.038834457,-0.383666,0,0,0,,0,32,32,31,1,STEAK,C,old,m,./images/STEAK.png,,,,,,,,,,,,,,,,,,,,,,
,,,,,,,,,,,,,,,,,199237,,2022-01-28_16h34.51.164,lexical_decision_task_DD_L6,2021.2.3,MacIntel,59.97361161,,,,,,,,,,,,0.498,1,,,,,,,,,,,,,,m,1,0.498,,,,,,,,0.038834457,-0.383666,0,0,0,,0,33,33,63,1,BAKER,LB,old,m,./images/BAKERLB.png,,,,,,,,,,,,,,,,,,,,,,
,,,,,,,,,,,,,,,,,199237,,2022-01-28_16h34.51.164,lexical_decision_task_DD_L6,2021.2.3,MacIntel,59.97361161,,,,,,,,,,,,0.6973,1,,,,,,,,,,,,,,z,1,0.6973,,,,,,,,0.038834457,-0.383666,0,0,0,,0,34,34,167,1,ZONET,LB,old,z,./images/ZONETLB.png,,,,,,,,,,,,,,,,,,,,,,
,,,,,,,,,,,,,,,,,199237,,2022-01-28_16h34.51.164,lexical_decision_task_DD_L6,2021.2.3,MacIntel,59.97361161,,,,,,,,,,,,0.7795,1,,,,,,,,,,,,,,m,1,0.7795,,,,,,,,0.038834457,-0.383666,0,0,0,,0,35,35,73,1,GLOVE,C,old,m,./images/GLOVE.png,,,,,,,,,,,,,,,,,,,,,,
,,,,,,,,,,,,,,,,,199237,,2022-01-28_16h34.51.164,lexical_decision_task_DD_L6,2021.2.3,MacIntel,59.97361161,,,,,,,,,,,,0.7149,1,,,,,,,,,,,,,,z,1,0.7149,,,,,,,,0.038834457,-0.383666,0,0,0,,0,36,36,156,1,HIXES,C,old,z,./images/HIXES.png,,,,,,,,,,,,,,,,,,,,,,
,,,,,,,,,,,,,,,,,199237,,2022-01-28_16h34.51.164,lexical_decision_task_DD_L6,2021.2.3,MacIntel,59.97361161,,,,,,,,,,,,0.4663,1,,,,,,,,,,,,,,m,1,0.4663,,,,,,,,0.038834457,-0.383666,0,0,0,,0,37,37,27,1,BUTTER,LB,old,m,./images/BUTTERLB.png,,,,,,,,,,,,,,,,,,,,,,
,,,,,,,,,,,,,,,,,199237,,2022-01-28_16h34.51.164,lexical_decision_task_DD_L6,2021.2.3,MacIntel,59.97361161,,,,,,,,,,,,0.6478,1,,,,,,,,,,,,,,z,1,0.6478,,,,,,,,0.038834457,-0.383666,0,0,0,,0,38,38,116,1,BALGY,LB,old,z,./images/BALGYLB.png,,,,,,,,,,,,,,,,,,,,,,
,,,,,,,,,,,,,,,,,199237,,2022-01-28_16h34.51.164,lexical_decision_task_DD_L6,2021.2.3,MacIntel,59.97361161,,,,,,,,,,,,0.7975,1,,,,,,,,,,,,,,z,1,0.7975,,,,,,,,0.038834457,-0.383666,0,0,0,,0,39,39,87,1,TRING,C,old,z,./images/TRING.png,,,,,,,,,,,,,,,,,,,,,,
,,,,,,,,,,,,,,,,,199237,,2022-01-28_16h34.51.164,lexical_decision_task_DD_L6,2021.2.3,MacIntel,59.97361161,,,,,,,,,,,,0.5484,1,,,,,,,,,,,,,,m,1,0.5484,,,,,,,,0.038834457,-0.383666,0,0,0,,0,40,40,66,1,STATUE,LB,old,m,./images/STATUELB.png,,,,,,,,,,,,,,,,,,,,,,
,,,,,,,,,,,,,,,,,199237,,2022-01-28_16h34.51.164,lexical_decision_task_DD_L6,2021.2.3,MacIntel,59.97361161,,,,,,,,,,,,0.7826,1,,,,,,,,,,,,,,z,1,0.7826,,,,,,,,0.038834457,-0.383666,0,0,0,space,0,41,41,105,1,MOKER,C,old,z,./images/MOKER.png,3.084,,,,,,,,,,,,,,,,,,,,,
,,,,,,,,,,,,,,,,,199237,,2022-01-28_16h34.51.164,lexical_decision_task_DD_L6,2021.2.3,MacIntel,59.97361161,,,,,,,,,,,,0.6651,1,,,,,,,,,,,,,,m,1,0.6651,,,,,,,,0.038834457,-0.383666,0,0,0,,0,42,42,3,1,CRATER,LB,old,m,./images/CRATERLB.png,,,,,,,,,,,,,,,,,,,,,,
,,,,,,,,,,,,,,,,,199237,,2022-01-28_16h34.51.164,lexical_decision_task_DD_L6,2021.2.3,MacIntel,59.97361161,,,,,,,,,,,,0.7492,1,,,,,,,,,,,,,,z,1,0.7492,,,,,,,,0.038834457,-0.383666,0,0,0,,0,43,43,122,1,BLOOT,LB,old,z,./images/BLOOTLB.png,,,,,,,,,,,,,,,,,,,,,,
,,,,,,,,,,,,,,,,,199237,,2022-01-28_16h34.51.164,lexical_decision_task_DD_L6,2021.2.3,MacIntel,59.97361161,,,,,,,,,,,,0.9324,1,,,,,,,,,,,,,,z,1,0.9324,,,,,,,,0.038834457,-0.383666,0,0,0,,0,44,44,120,1,RINED,C,old,z,./images/RINED.png,,,,,,,,,,,,,,,,,,,,,,
,,,,,,,,,,,,,,,,,199237,,2022-01-28_16h34.51.164,lexical_decision_task_DD_L6,2021.2.3,MacIntel,59.97361161,,,,,,,,,,,,0.4127,1,,,,,,,,,,,,,,m,1,0.4127,,,,,,,,0.038834457,-0.383666,0,0,0,,0,45,45,10,1,GARDEN,C,old,m,./images/GARDEN.png,,,,,,,,,,,,,,,,,,,,,,
,,,,,,,,,,,,,,,,,199237,,2022-01-28_16h34.51.164,lexical_decision_task_DD_L6,2021.2.3,MacIntel,59.97361161,,,,,,,,,,,,0.8655,1,,,,,,,,,,,,,,z,1,0.8655,,,,,,,,0.038834457,-0.383666,0,0,0,,0,46,46,148,1,JOMS,HB,old,z,./images/JOMSHB.png,,,,,,,,,,,,,,,,,,,,,,
,,,,,,,,,,,,,,,,,199237,,2022-01-28_16h34.51.164,lexical_decision_task_DD_L6,2021.2.3,MacIntel,59.97361161,,,,,,,,,,,,0.6686,1,,,,,,,,,,,,,,m,1,0.6686,,,,,,,,0.038834457,-0.383666,0,0,0,,0,47,47,8,1,CLIFF,HB,old,m,./images/CLIFFHB.png,,,,,,,,,,,,,,,,,,,,,,
,,,,,,,,,,,,,,,,,199237,,2022-01-28_16h34.51.164,lexical_decision_task_DD_L6,2021.2.3,MacIntel,59.97361161,,,,,,,,,,,,0.6038,1,,,,,,,,,,,,,,m,1,0.6038,,,,,,,,0.038834457,-0.383666,0,0,0,,0,48,48,47,1,LAGOON,HB,old,m,./images/LAGOONHB.png,,,,,,,,,,,,,,,,,,,,,,
,,,,,,,,,,,,,,,,,199237,,2022-01-28_16h34.51.164,lexical_decision_task_DD_L6,2021.2.3,MacIntel,59.97361161,,,,,,,,,,,,0.6133,1,,,,,,,,,,,,,,m,1,0.6133,,,,,,,,0.038834457,-0.383666,0,0,0,,0,49,49,18,1,PARCEL,LB,old,m,./images/PARCELLB.png,,,,,,,,,,,,,,,,,,,,,,
,,,,,,,,,,,,,,,,,199237,,2022-01-28_16h34.51.164,lexical_decision_task_DD_L6,2021.2.3,MacIntel,59.97361161,,,,,,,,,,,,0.4609,1,,,,,,,,,,,,,,m,1,0.4609,,,,,,,,0.038834457,-0.383666,0,0,0,,0,50,50,4,1,BOXER,C,old,m,./images/BOXER.png,,,,,,,,,,,,,,,,,,,,,,
,,,,,,,,,,,,,,,,,199237,,2022-01-28_16h34.51.164,lexical_decision_task_DD_L6,2021.2.3,MacIntel,59.97361161,,,,,,,,,,,,0.4992,1,,,,,,,,,,,,,,m,1,0.4992,,,,,,,,0.038834457,-0.383666,0,0,0,,0,51,51,40,1,SNAKE,C,old,m,./images/SNAKE.png,,,,,,,,,,,,,,,,,,,,,,
,,,,,,,,,,,,,,,,,199237,,2022-01-28_16h34.51.164,lexical_decision_task_DD_L6,2021.2.3,MacIntel,59.97361161,,,,,,,,,,,,0.7167,1,,,,,,,,,,,,,,z,1,0.7167,,,,,,,,0.038834457,-0.383666,0,0,0,,0,52,52,98,1,BAMPS,LB,old,z,./images/BAMPSLB.png,,,,,,,,,,,,,,,,,,,,,,
,,,,,,,,,,,,,,,,,199237,,2022-01-28_16h34.51.164,lexical_decision_task_DD_L6,2021.2.3,MacIntel,59.97361161,,,,,,,,,,,,0.9494,1,,,,,,,,,,,,,,z,1,0.9494,,,,,,,,0.038834457,-0.383666,0,0,0,,0,53,53,159,1,CUDDY,C,old,z,./images/CUDDY.png,,,,,,,,,,,,,,,,,,,,,,
,,,,,,,,,,,,,,,,,199237,,2022-01-28_16h34.51.164,lexical_decision_task_DD_L6,2021.2.3,MacIntel,59.97361161,,,,,,,,,,,,1.6687,1,,,,,,,,,,,,,,z,1,1.6687,,,,,,,,0.038834457,-0.383666,0,0,0,,0,54,54,166,1,SHORY,HB,old,z,./images/SHORYHB.png,,,,,,,,,,,,,,,,,,,,,,
,,,,,,,,,,,,,,,,,199237,,2022-01-28_16h34.51.164,lexical_decision_task_DD_L6,2021.2.3,MacIntel,59.97361161,,,,,,,,,,,,0.4806,1,,,,,,,,,,,,,,m,1,0.4806,,,,,,,,0.038834457,-0.383666,0,0,0,,0,55,55,69,1,ARROW,LB,old,m,./images/ARROWLB.png,,,,,,,,,,,,,,,,,,,,,,
,,,,,,,,,,,,,,,,,199237,,2022-01-28_16h34.51.164,lexical_decision_task_DD_L6,2021.2.3,MacIntel,59.97361161,,,,,,,,,,,,0.7175,1,,,,,,,,,,,,,,m,1,0.7175,,,,,,,,0.038834457,-0.383666,0,0,0,,0,56,56,74,1,JUMPER,HB,old,m,./images/JUMPERHB.png,,,,,,,,,,,,,,,,,,,,,,
,,,,,,,,,,,,,,,,,199237,,2022-01-28_16h34.51.164,lexical_decision_task_DD_L6,2021.2.3,MacIntel,59.97361161,,,,,,,,,,,,0.8478,1,,,,,,,,,,,,,,z,1,0.8478,,,,,,,,0.038834457,-0.383666,0,0,0,,0,57,57,136,1,WERVE,HB,old,z,./images/WERVEHB.png,,,,,,,,,,,,,,,,,,,,,,
,,,,,,,,,,,,,,,,,199237,,2022-01-28_16h34.51.164,lexical_decision_task_DD_L6,2021.2.3,MacIntel,59.97361161,,,,,,,,,,,,0.8609,1,,,,,,,,,,,,,,z,1,0.8609,,,,,,,,0.038834457,-0.383666,0,0,0,,0,58,58,108,1,GRUET,C,old,z,./images/GRUET.png,,,,,,,,,,,,,,,,,,,,,,
,,,,,,,,,,,,,,,,,199237,,2022-01-28_16h34.51.164,lexical_decision_task_DD_L6,2021.2.3,MacIntel,59.97361161,,,,,,,,,,,,0.8002,1,,,,,,,,,,,,,,m,1,0.8002,,,,,,,,0.038834457,-0.383666,0,0,0,,0,59,59,68,1,VALLEY,HB,old,m,./images/VALLEYHB.png,,,,,,,,,,,,,,,,,,,,,,
,,,,,,,,,,,,,,,,,199237,,2022-01-28_16h34.51.164,lexical_decision_task_DD_L6,2021.2.3,MacIntel,59.97361161,,,,,,,,,,,,0.7286,1,,,,,,,,,,,,,,z,1,0.7286,,,,,,,,0.038834457,-0.383666,0,0,0,,0,60,60,147,1,ZOLES,C,old,z,./images/ZOLES.png,,,,,,,,,,,,,,,,,,,,,,
,,,,,,,,,,,,,,,,,199237,,2022-01-28_16h34.51.164,lexical_decision_task_DD_L6,2021.2.3,MacIntel,59.97361161,,,,,,,,,,,,1.0817,1,,,,,,,,,,,,,,z,1,1.0817,,,,,,,,0.038834457,-0.383666,0,0,0,,0,61,61,112,1,MYING,HB,old,z,./images/MYINGHB.png,,,,,,,,,,,,,,,,,,,,,,
,,,,,,,,,,,,,,,,,199237,,2022-01-28_16h34.51.164,lexical_decision_task_DD_L6,2021.2.3,MacIntel,59.97361161,,,,,,,,,,,,1.3809,1,,,,,,,,,,,,,,z,1,1.3809,,,,,,,,0.038834457,-0.383666,0,0,0,,0,62,62,139,1,BLEAR,HB,old,z,./images/BLEARHB.png,,,,,,,,,,,,,,,,,,,,,,
,,,,,,,,,,,,,,,,,199237,,2022-01-28_16h34.51.164,lexical_decision_task_DD_L6,2021.2.3,MacIntel,59.97361161,,,,,,,,,,,,0.9796,1,,,,,,,,,,,,,,z,1,0.9796,,,,,,,,0.038834457,-0.383666,0,0,0,,0,63,63,163,1,GAMBA,HB,old,z,./images/GAMBAHB.png,,,,,,,,,,,,,,,,,,,,,,
,,,,,,,,,,,,,,,,,199237,,2022-01-28_16h34.51.164,lexical_decision_task_DD_L6,2021.2.3,MacIntel,59.97361161,,,,,,,,,,,,0.833,1,,,,,,,,,,,,,,z,1,0.833,,,,,,,,0.038834457,-0.383666,0,0,0,,0,64,64,121,1,CEERS,HB,old,z,./images/CEERSHB.png,,,,,,,,,,,,,,,,,,,,,,
,,,,,,,,,,,,,,,,,199237,,2022-01-28_16h34.51.164,lexical_decision_task_DD_L6,2021.2.3,MacIntel,59.97361161,,,,,,,,,,,,0.9968,1,,,,,,,,,,,,,,z,1,0.9968,,,,,,,,0.038834457,-0.383666,0,0,0,,0,65,65,126,1,GUELS,C,old,z,./images/GUELS.png,,,,,,,,,,,,,,,,,,,,,,
,,,,,,,,,,,,,,,,,199237,,2022-01-28_16h34.51.164,lexical_decision_task_DD_L6,2021.2.3,MacIntel,59.97361161,,,,,,,,,,,,1.1313,1,,,,,,,,,,,,,,z,1,1.1313,,,,,,,,0.038834457,-0.383666,0,0,0,,0,66,66,153,1,CLUPS,C,old,z,./images/CLUPS.png,,,,,,,,,,,,,,,,,,,,,,
,,,,,,,,,,,,,,,,,199237,,2022-01-28_16h34.51.164,lexical_decision_task_DD_L6,2021.2.3,MacIntel,59.97361161,,,,,,,,,,,,0.8486,1,,,,,,,,,,,,,,m,1,0.8486,,,,,,,,0.038834457,-0.383666,0,0,0,,0,67,67,42,1,CHAIN,LB,old,m,./images/CHAINLB.png,,,,,,,,,,,,,,,,,,,,,,
,,,,,,,,,,,,,,,,,199237,,2022-01-28_16h34.51.164,lexical_decision_task_DD_L6,2021.2.3,MacIntel,59.97361161,,,,,,,,,,,,0.546,1,,,,,,,,,,,,,,m,1,0.546,,,,,,,,0.038834457,-0.383666,0,0,0,,0,68,68,30,1,SLOPE,LB,old,m,./images/SLOPELB.png,,,,,,,,,,,,,,,,,,,,,,
,,,,,,,,,,,,,,,,,199237,,2022-01-28_16h34.51.164,lexical_decision_task_DD_L6,2021.2.3,MacIntel,59.97361161,,,,,,,,,,,,0.6791,1,,,,,,,,,,,,,,z,1,0.6791,,,,,,,,0.038834457,-0.383666,0,0,0,,0,69,69,162,1,LEICH,C,old,z,./images/LEICH.png,,,,,,,,,,,,,,,,,,,,,,
,,,,,,,,,,,,,,,,,199237,,2022-01-28_16h34.51.164,lexical_decision_task_DD_L6,2021.2.3,MacIntel,59.97361161,,,,,,,,,,,,0.7645,1,,,,,,,,,,,,,,z,1,0.7645,,,,,,,,0.038834457,-0.383666,0,0,0,,0,70,70,107,1,FASKS,LB,old,z,./images/FASKSLB.png,,,,,,,,,,,,,,,,,,,,,,
,,,,,,,,,,,,,,,,,199237,,2022-01-28_16h34.51.164,lexical_decision_task_DD_L6,2021.2.3,MacIntel,59.97361161,,,,,,,,,,,,0.7148,1,,,,,,,,,,,,,,m,1,0.7148,,,,,,,,0.038834457,-0.383666,0,0,0,,0,71,71,57,1,FERRY,LB,old,m,./images/FERRYLB.png,,,,,,,,,,,,,,,,,,,,,,
,,,,,,,,,,,,,,,,,199237,,2022-01-28_16h34.51.164,lexical_decision_task_DD_L6,2021.2.3,MacIntel,59.97361161,,,,,,,,,,,,0.6834,0,,,,,,,,,,,,,,z,0,0.6834,,,,,,,,0.038834457,-0.383666,0,0,0,,0,72,72,82,1,PEBBLE,C,old,m,./images/PEBBLE.png,,,,,,,,,,,,,,,,,,,,,,
,,,,,,,,,,,,,,,,,199237,,2022-01-28_16h34.51.164,lexical_decision_task_DD_L6,2021.2.3,MacIntel,59.97361161,,,,,,,,,,,,0.831,1,,,,,,,,,,,,,,z,1,0.831,,,,,,,,0.038834457,-0.383666,0,0,0,,0,73,73,99,1,BACKY,C,old,z,./images/BACKY.png,,,,,,,,,,,,,,,,,,,,,,
,,,,,,,,,,,,,,,,,199237,,2022-01-28_16h34.51.164,lexical_decision_task_DD_L6,2021.2.3,MacIntel,59.97361161,,,,,,,,,,,,0.898,1,,,,,,,,,,,,,,m,1,0.898,,,,,,,,0.038834457,-0.383666,0,0,0,,0,74,74,71,1,BUBBLE,HB,old,m,./images/BUBBLEHB.png,,,,,,,,,,,,,,,,,,,,,,
,,,,,,,,,,,,,,,,,199237,,2022-01-28_16h34.51.164,lexical_decision_task_DD_L6,2021.2.3,MacIntel,59.97361161,,,,,,,,,,,,1.1492,1,,,,,,,,,,,,,,m,1,1.1492,,,,,,,,0.038834457,-0.383666,0,0,0,,0,75,75,28,1,CASINO,C,old,m,./images/CASINO.png,,,,,,,,,,,,,,,,,,,,,,
,,,,,,,,,,,,,,,,,199237,,2022-01-28_16h34.51.164,lexical_decision_task_DD_L6,2021.2.3,MacIntel,59.97361161,,,,,,,,,,,,0.7277,1,,,,,,,,,,,,,,z,1,0.7277,,,,,,,,0.038834457,-0.383666,0,0,0,,0,76,76,149,1,VEASE,LB,old,z,./images/VEASELB.png,,,,,,,,,,,,,,,,,,,,,,
,,,,,,,,,,,,,,,,,199237,,2022-01-28_16h34.51.164,lexical_decision_task_DD_L6,2021.2.3,MacIntel,59.97361161,,,,,,,,,,,,1.4139,1,,,,,,,,,,,,,,z,1,1.4139,,,,,,,,0.038834457,-0.383666,0,0,0,,0,77,77,135,1,JOODY,C,old,z,./images/JOODY.png,,,,,,,,,,,,,,,,,,,,,,
,,,,,,,,,,,,,,,,,199237,,2022-01-28_16h34.51.164,lexical_decision_task_DD_L6,2021.2.3,MacIntel,59.97361161,,,,,,,,,,,,1.3416,1,,,,,,,,,,,,,,z,1,1.3416,,,,,,,,0.038834457,-0.383666,0,0,0,,0,78,78,84,1,HAXES,C,old,z,./images/HAXES.png,,,,,,,,,,,,,,,,,,,,,,
,,,,,,,,,,,,,,,,,199237,,2022-01-28_16h34.51.164,lexical_decision_task_DD_L6,2021.2.3,MacIntel,59.97361161,,,,,,,,,,,,2.133,1,,,,,,,,,,,,,,z,1,2.133,,,,,,,,0.038834457,-0.383666,0,0,0,,0,79,79,91,1,SHENS,HB,old,z,./images/SHENSHB.png,,,,,,,,,,,,,,,,,,,,,,
,,,,,,,,,,,,,,,,,199237,,2022-01-28_16h34.51.164,lexical_decision_task_DD_L6,2021.2.3,MacIntel,59.97361161,,,,,,,,,,,,1.6809,1,,,,,,,,,,,,,,z,1,1.6809,,,,,,,,0.038834457,-0.383666,0,0,0,,0,80,80,142,1,PLASK,HB,old,z,./images/PLASKHB.png,,,,,,,,,,,,,,,,,,,,,,
,,,,,,,,,,,,,,,,,199237,,2022-01-28_16h34.51.164,lexical_decision_task_DD_L6,2021.2.3,MacIntel,59.97361161,,,,,,,,,,,,1.9179,1,,,,,,,,,,,,,,m,1,1.9179,,,,,,,,0.038834457,-0.383666,0,0,0,,0,81,81,15,1,COLLAR,LB,old,m,./images/COLLARLB.png,,,,,,,,,,,,,,,,,,,,,,
,,,,,,,,,,,,,,,,,199237,,2022-01-28_16h34.51.164,lexical_decision_task_DD_L6,2021.2.3,MacIntel,59.97361161,,,,,,,,,,,,1.6988,1,,,,,,,,,,,,,,z,1,1.6988,,,,,,,,0.038834457,-0.383666,0,0,0,,0,82,82,101,1,GLEET,LB,old,z,./images/GLEETLB.png,,,,,,,,,,,,,,,,,,,,,,
,,,,,,,,,,,,,,,,,199237,,2022-01-28_16h34.51.164,lexical_decision_task_DD_L6,2021.2.3,MacIntel,59.97361161,,,,,,,,,,,,0.9108,1,,,,,,,,,,,,,,z,1,0.9108,,,,,,,,0.038834457,-0.383666,0,0,0,space,0,83,83,114,1,RIKES,C,old,z,./images/RIKES.png,1.3848,,,,,,,,,,,,,,,,,,,,,
,,,,,,,,,,,,,,,,,199237,,2022-01-28_16h34.51.164,lexical_decision_task_DD_L6,2021.2.3,MacIntel,59.97361161,,,,,,,,,,,,0.7283,1,,,,,,,,,,,,,,m,1,0.7283,,,,,,,,0.038834457,-0.383666,0,0,0,,0,84,84,46,1,MUMMY,C,old,m,./images/MUMMY.png,,,,,,,,,,,,,,,,,,,,,,
,,,,,,,,,,,,,,,,,199237,,2022-01-28_16h34.51.164,lexical_decision_task_DD_L6,2021.2.3,MacIntel,59.97361161,,,,,,,,,,,,0.7345,1,,,,,,,,,,,,,,z,1,0.7345,,,,,,,,0.038834457,-0.383666,0,0,0,,0,85,85,125,1,MOOKY,LB,old,z,./images/MOOKYLB.png,,,,,,,,,,,,,,,,,,,,,,
,,,,,,,,,,,,,,,,,199237,,2022-01-28_16h34.51.164,lexical_decision_task_DD_L6,2021.2.3,MacIntel,59.97361161,,,,,,,,,,,,0.5965,1,,,,,,,,,,,,,,m,1,0.5965,,,,,,,,0.038834457,-0.383666,0,0,0,,0,86,86,22,1,CLOWN,C,old,m,./images/CLOWN.png,,,,,,,,,,,,,,,,,,,,,,
,,,,,,,,,,,,,,,,,199237,,2022-01-28_16h34.51.164,lexical_decision_task_DD_L6,2021.2.3,MacIntel,59.97361161,,,,,,,,,,,,0.7011,1,,,,,,,,,,,,,,z,1,0.7011,,,,,,,,0.038834457,-0.383666,0,0,0,,0,87,87,164,1,SGREW,LB,old,z,./images/SGREWLB.png,,,,,,,,,,,,,,,,,,,,,,
,,,,,,,,,,,,,,,,,199237,,2022-01-28_16h34.51.164,lexical_decision_task_DD_L6,2021.2.3,MacIntel,59.97361161,,,,,,,,,,,,1.0479,1,,,,,,,,,,,,,,z,1,1.0479,,,,,,,,0.038834457,-0.383666,0,0,0,,0,88,88,158,1,EGECT,LB,old,z,./images/EGECTLB.png,,,,,,,,,,,,,,,,,,,,,,
,,,,,,,,,,,,,,,,,199237,,2022-01-28_16h34.51.164,lexical_decision_task_DD_L6,2021.2.3,MacIntel,59.97361161,,,,,,,,,,,,1.1634,1,,,,,,,,,,,,,,z,1,1.1634,,,,,,,,0.038834457,-0.383666,0,0,0,,0,89,89,165,1,TROWN,C,old,z,./images/TROWN.png,,,,,,,,,,,,,,,,,,,,,,
,,,,,,,,,,,,,,,,,199237,,2022-01-28_16h34.51.164,lexical_decision_task_DD_L6,2021.2.3,MacIntel,59.97361161,,,,,,,,,,,,1.1271,1,,,,,,,,,,,,,,z,1,1.1271,,,,,,,,0.038834457,-0.383666,0,0,0,,0,90,90,88,1,GLUSH,HB,old,z,./images/GLUSHHB.png,,,,,,,,,,,,,,,,,,,,,,
,,,,,,,,,,,,,,,,,199237,,2022-01-28_16h34.51.164,lexical_decision_task_DD_L6,2021.2.3,MacIntel,59.97361161,,,,,,,,,,,,0.7311,1,,,,,,,,,,,,,,m,1,0.7311,,,,,,,,0.038834457,-0.383666,0,0,0,,0,91,91,64,1,BRIDE,C,old,m,./images/BRIDE.png,,,,,,,,,,,,,,,,,,,,,,
,,,,,,,,,,,,,,,,,199237,,2022-01-28_16h34.51.164,lexical_decision_task_DD_L6,2021.2.3,MacIntel,59.97361161,,,,,,,,,,,,0.7145,1,,,,,,,,,,,,,,z,1,0.7145,,,,,,,,0.038834457,-0.383666,0,0,0,,0,92,92,118,1,BAVEL,HB,old,z,./images/BAVELHB.png,,,,,,,,,,,,,,,,,,,,,,
,,,,,,,,,,,,,,,,,199237,,2022-01-28_16h34.51.164,lexical_decision_task_DD_L6,2021.2.3,MacIntel,59.97361161,,,,,,,,,,,,0.9317,1,,,,,,,,,,,,,,z,1,0.9317,,,,,,,,0.038834457,-0.383666,0,0,0,,0,93,93,103,1,FLORT,HB,old,z,./images/FLORTHB.png,,,,,,,,,,,,,,,,,,,,,,
,,,,,,,,,,,,,,,,,199237,,2022-01-28_16h34.51.164,lexical_decision_task_DD_L6,2021.2.3,MacIntel,59.97361161,,,,,,,,,,,,0.7662,1,,,,,,,,,,,,,,z,1,0.7662,,,,,,,,0.038834457,-0.383666,0,0,0,,0,94,94,137,1,JOOST,LB,old,z,./images/JOOSTLB.png,,,,,,,,,,,,,,,,,,,,,,
,,,,,,,,,,,,,,,,,199237,,2022-01-28_16h34.51.164,lexical_decision_task_DD_L6,2021.2.3,MacIntel,59.97361161,,,,,,,,,,,,0.6981,1,,,,,,,,,,,,,,z,1,0.6981,,,,,,,,0.038834457,-0.383666,0,0,0,,0,95,95,117,1,STEEG,C,old,z,./images/STEEG.png,,,,,,,,,,,,,,,,,,,,,,
,,,,,,,,,,,,,,,,,199237,,2022-01-28_16h34.51.164,lexical_decision_task_DD_L6,2021.2.3,MacIntel,59.97361161,,,,,,,,,,,,0.646,1,,,,,,,,,,,,,,m,1,0.646,,,,,,,,0.038834457,-0.383666,0,0,0,,0,96,96,20,1,GRANNY,HB,old,m,./images/GRANNYHB.png,,,,,,,,,,,,,,,,,,,,,,
,,,,,,,,,,,,,,,,,199237,,2022-01-28_16h34.51.164,lexical_decision_task_DD_L6,2021.2.3,MacIntel,59.97361161,,,,,,,,,,,,0.8648,1,,,,,,,,,,,,,,z,1,0.8648,,,,,,,,0.038834457,-0.383666,0,0,0,,0,97,97,160,1,VEETS,HB,old,z,./images/VEETSHB.png,,,,,,,,,,,,,,,,,,,,,,
,,,,,,,,,,,,,,,,,199237,,2022-01-28_16h34.51.164,lexical_decision_task_DD_L6,2021.2.3,MacIntel,59.97361161,,,,,,,,,,,,0.6478,1,,,,,,,,,,,,,,m,1,0.6478,,,,,,,,0.038834457,-0.383666,0,0,0,,0,98,98,77,1,WHEEL,HB,old,m,./images/WHEELHB.png,,,,,,,,,,,,,,,,,,,,,,
,,,,,,,,,,,,,,,,,199237,,2022-01-28_16h34.51.164,lexical_decision_task_DD_L6,2021.2.3,MacIntel,59.97361161,,,,,,,,,,,,0.6326,1,,,,,,,,,,,,,,m,1,0.6326,,,,,,,,0.038834457,-0.383666,0,0,0,,0,99,99,44,1,BASKET,HB,old,m,./images/BASKETHB.png,,,,,,,,,,,,,,,,,,,,,,
,,,,,,,,,,,,,,,,,199237,,2022-01-28_16h34.51.164,lexical_decision_task_DD_L6,2021.2.3,MacIntel,59.97361161,,,,,,,,,,,,0.6644,1,,,,,,,,,,,,,,z,1,0.6644,,,,,,,,0.038834457,-0.383666,0,0,0,,0,100,100,138,1,PLICE,C,old,z,./images/PLICE.png,,,,,,,,,,,,,,,,,,,,,,
,,,,,,,,,,,,,,,,,199237,,2022-01-28_16h34.51.164,lexical_decision_task_DD_L6,2021.2.3,MacIntel,59.97361161,,,,,,,,,,,,0.5309,1,,,,,,,,,,,,,,m,1,0.5309,,,,,,,,0.038834457,-0.383666,0,0,0,,0,101,101,79,1,RULER,C,old,m,./images/RULER.png,,,,,,,,,,,,,,,,,,,,,,
,,,,,,,,,,,,,,,,,199237,,2022-01-28_16h34.51.164,lexical_decision_task_DD_L6,2021.2.3,MacIntel,59.97361161,,,,,,,,,,,,0.5952,1,,,,,,,,,,,,,,m,1,0.5952,,,,,,,,0.038834457,-0.383666,0,0,0,,0,102,102,17,1,PARADE,HB,old,m,./images/PARADEHB.png,,,,,,,,,,,,,,,,,,,,,,
,,,,,,,,,,,,,,,,,199237,,2022-01-28_16h34.51.164,lexical_decision_task_DD_L6,2021.2.3,MacIntel,59.97361161,,,,,,,,,,,,0.7978,1,,,,,,,,,,,,,,z,1,0.7978,,,,,,,,0.038834457,-0.383666,0,0,0,,0,103,103,146,1,MOOST,LB,old,z,./images/MOOSTLB.png,,,,,,,,,,,,,,,,,,,,,,
,,,,,,,,,,,,,,,,,199237,,2022-01-28_16h34.51.164,lexical_decision_task_DD_L6,2021.2.3,MacIntel,59.97361161,,,,,,,,,,,,0.7826,1,,,,,,,,,,,,,,z,1,0.7826,,,,,,,,0.038834457,-0.383666,0,0,0,,0,104,104,154,1,THINT,HB,old,z,./images/THINTHB.png,,,,,,,,,,,,,,,,,,,,,,
,,,,,,,,,,,,,,,,,199237,,2022-01-28_16h34.51.164,lexical_decision_task_DD_L6,2021.2.3,MacIntel,59.97361161,,,,,,,,,,,,0.6653,1,,,,,,,,,,,,,,z,1,0.6653,,,,,,,,0.038834457,-0.383666,0,0,0,,0,105,105,150,1,NOOLS,C,old,z,./images/NOOLS.png,,,,,,,,,,,,,,,,,,,,,,
,,,,,,,,,,,,,,,,,199237,,2022-01-28_16h34.51.164,lexical_decision_task_DD_L6,2021.2.3,MacIntel,59.97361161,,,,,,,,,,,,0.5835,1,,,,,,,,,,,,,,m,1,0.5835,,,,,,,,0.038834457,-0.383666,0,0,0,,0,106,106,59,1,BRUSH,HB,old,m,./images/BRUSHHB.png,,,,,,,,,,,,,,,,,,,,,,
,,,,,,,,,,,,,,,,,199237,,2022-01-28_16h34.51.164,lexical_decision_task_DD_L6,2021.2.3,MacIntel,59.97361161,,,,,,,,,,,,0.6479,1,,,,,,,,,,,,,,z,1,0.6479,,,,,,,,0.038834457,-0.383666,0,0,0,,0,107,107,123,1,SEDGE,C,old,z,./images/SEDGE.png,,,,,,,,,,,,,,,,,,,,,,
,,,,,,,,,,,,,,,,,199237,,2022-01-28_16h34.51.164,lexical_decision_task_DD_L6,2021.2.3,MacIntel,59.97361161,,,,,,,,,,,,0.9004,1,,,,,,,,,,,,,,m,1,0.9004,,,,,,,,0.038834457,-0.383666,0,0,0,,0,108,108,33,1,SAUNA,LB,old,m,./images/SAUNALB.png,,,,,,,,,,,,,,,,,,,,,,
,,,,,,,,,,,,,,,,,199237,,2022-01-28_16h34.51.164,lexical_decision_task_DD_L6,2021.2.3,MacIntel,59.97361161,,,,,,,,,,,,0.7815,1,,,,,,,,,,,,,,z,1,0.7815,,,,,,,,0.038834457,-0.383666,0,0,0,,0,109,109,152,1,FRAIN,LB,old,z,./images/FRAINLB.png,,,,,,,,,,,,,,,,,,,,,,
,,,,,,,,,,,,,,,,,199237,,2022-01-28_16h34.51.164,lexical_decision_task_DD_L6,2021.2.3,MacIntel,59.97361161,,,,,,,,,,,,0.6,1,,,,,,,,,,,,,,m,1,0.6,,,,,,,,0.038834457,-0.383666,0,0,0,,0,110,110,5,1,BAMBOO,HB,old,m,./images/BAMBOOHB.png,,,,,,,,,,,,,,,,,,,,,,
,,,,,,,,,,,,,,,,,199237,,2022-01-28_16h34.51.164,lexical_decision_task_DD_L6,2021.2.3,MacIntel,59.97361161,,,,,,,,,,,,0.5836,1,,,,,,,,,,,,,,m,1,0.5836,,,,,,,,0.038834457,-0.383666,0,0,0,,0,111,111,37,1,TIGER,C,old,m,./images/TIGER.png,,,,,,,,,,,,,,,,,,,,,,
,,,,,,,,,,,,,,,,,199237,,2022-01-28_16h34.51.164,lexical_decision_task_DD_L6,2021.2.3,MacIntel,59.97361161,,,,,,,,,,,,0.5786,1,,,,,,,,,,,,,,m,1,0.5786,,,,,,,,0.038834457,-0.383666,0,0,0,,0,112,112,61,1,ARTIST,C,old,m,./images/ARTIST.png,,,,,,,,,,,,,,,,,,,,,,
,,,,,,,,,,,,,,,,,199237,,2022-01-28_16h34.51.164,lexical_decision_task_DD_L6,2021.2.3,MacIntel,59.97361161,,,,,,,,,,,,0.4986,1,,,,,,,,,,,,,,m,1,0.4986,,,,,,,,0.038834457,-0.383666,0,0,0,,0,113,113,19,1,DONKEY,C,old,m,./images/DONKEY.png,,,,,,,,,,,,,,,,,,,,,,
,,,,,,,,,,,,,,,,,199237,,2022-01-28_16h34.51.164,lexical_decision_task_DD_L6,2021.2.3,MacIntel,59.97361161,,,,,,,,,,,,0.7488,1,,,,,,,,,,,,,,z,1,0.7488,,,,,,,,0.038834457,-0.383666,0,0,0,,0,114,114,157,1,INLER,HB,old,z,./images/INLERHB.png,,,,,,,,,,,,,,,,,,,,,,
,,,,,,,,,,,,,,,,,199237,,2022-01-28_16h34.51.164,lexical_decision_task_DD_L6,2021.2.3,MacIntel,59.97361161,,,,,,,,,,,,0.6467,1,,,,,,,,,,,,,,m,1,0.6467,,,,,,,,0.038834457,-0.383666,0,0,0,,0,115,115,38,1,ENGINE,HB,old,m,./images/ENGINEHB.png,,,,,,,,,,,,,,,,,,,,,,
,,,,,,,,,,,,,,,,,199237,,2022-01-28_16h34.51.164,lexical_decision_task_DD_L6,2021.2.3,MacIntel,59.97361161,,,,,,,,,,,,0.584,1,,,,,,,,,,,,,,m,1,0.584,,,,,,,,0.038834457,-0.383666,0,0,0,,0,116,116,55,1,ALLEY,C,old,m,./images/ALLEY.png,,,,,,,,,,,,,,,,,,,,,,
,,,,,,,,,,,,,,,,,199237,,2022-01-28_16h34.51.164,lexical_decision_task_DD_L6,2021.2.3,MacIntel,59.97361161,,,,,,,,,,,,0.6276,1,,,,,,,,,,,,,,z,1,0.6276,,,,,,,,0.038834457,-0.383666,0,0,0,,0,117,117,129,1,PRANS,C,old,z,./images/PRANS.png,,,,,,,,,,,,,,,,,,,,,,
,,,,,,,,,,,,,,,,,199237,,2022-01-28_16h34.51.164,lexical_decision_task_DD_L6,2021.2.3,MacIntel,59.97361161,,,,,,,,,,,,0.5009,1,,,,,,,,,,,,,,m,1,0.5009,,,,,,,,0.038834457,-0.383666,0,0,0,,0,118,118,1,1,TOWEL,C,old,m,./images/TOWEL.png,,,,,,,,,,,,,,,,,,,,,,
,,,,,,,,,,,,,,,,,199237,,2022-01-28_16h34.51.164,lexical_decision_task_DD_L6,2021.2.3,MacIntel,59.97361161,,,,,,,,,,,,0.6289,1,,,,,,,,,,,,,,z,1,0.6289,,,,,,,,0.038834457,-0.383666,0,0,0,,0,119,119,111,1,HOSSE,C,old,z,./images/HOSSE.png,,,,,,,,,,,,,,,,,,,,,,
,,,,,,,,,,,,,,,,,199237,,2022-01-28_16h34.51.164,lexical_decision_task_DD_L6,2021.2.3,MacIntel,59.97361161,,,,,,,,,,,,0.6488,1,,,,,,,,,,,,,,m,1,0.6488,,,,,,,,0.038834457,-0.383666,0,0,0,,0,120,120,39,1,CANDY,LB,old,m,./images/CANDYLB.png,,,,,,,,,,,,,,,,,,,,,,
,,,,,,,,,,,,,,,,,199237,,2022-01-28_16h34.51.164,lexical_decision_task_DD_L6,2021.2.3,MacIntel,59.97361161,,,,,,,,,,,,0.8802,1,,,,,,,,,,,,,,m,1,0.8802,,,,,,,,0.038834457,-0.383666,0,0,0,,0,121,121,72,1,FLASK,LB,old,m,./images/FLASKLB.png,,,,,,,,,,,,,,,,,,,,,,
,,,,,,,,,,,,,,,,,199237,,2022-01-28_16h34.51.164,lexical_decision_task_DD_L6,2021.2.3,MacIntel,59.97361161,,,,,,,,,,,,0.7154,1,,,,,,,,,,,,,,z,1,0.7154,,,,,,,,0.038834457,-0.383666,0,0,0,,0,122,122,128,1,GRIFT,LB,old,z,./images/GRIFTLB.png,,,,,,,,,,,,,,,,,,,,,,
,,,,,,,,,,,,,,,,,199237,,2022-01-28_16h34.51.164,lexical_decision_task_DD_L6,2021.2.3,MacIntel,59.97361161,,,,,,,,,,,,0.6152,1,,,,,,,,,,,,,,m,1,0.6152,,,,,,,,0.038834457,-0.383666,0,0,0,,0,123,123,26,1,CLOUD,HB,old,m,./images/CLOUDHB.png,,,,,,,,,,,,,,,,,,,,,,
,,,,,,,,,,,,,,,,,199237,,2022-01-28_16h34.51.164,lexical_decision_task_DD_L6,2021.2.3,MacIntel,59.97361161,,,,,,,,,,,,0.7348,1,,,,,,,,,,,,,,z,1,0.7348,,,,,,,,0.038834457,-0.383666,0,0,0,,0,124,124,130,1,CRILL,HB,old,z,./images/CRILLHB.png,,,,,,,,,,,,,,,,,,,,,,
,,,,,,,,,,,,,,,,,199237,,2022-01-28_16h34.51.164,lexical_decision_task_DD_L6,2021.2.3,MacIntel,59.97361161,,,,,,,,,,,,1.0489,1,,,,,,,,,,,,,,z,1,1.0489,,,,,,,,0.038834457,-0.383666,0,0,0,space,0,125,125,97,1,CHIDS,HB,old,z,./images/CHIDSHB.png,1.1678,,,,,,,,,,,,,,,,,,,,,
,,,,,,,,,,,,,,,,,199237,,2022-01-28_16h34.51.164,lexical_decision_task_DD_L6,2021.2.3,MacIntel,59.97361161,,,,,,,,,,,,0.75,0,,,,,,,,,,,,,,z,0,0.75,,,,,,,,0.038834457,-0.383666,0,0,0,,0,126,126,12,1,BLOKE,LB,old,m,./images/BLOKELB.png,,,,,,,,,,,,,,,,,,,,,,
,,,,,,,,,,,,,,,,,199237,,2022-01-28_16h34.51.164,lexical_decision_task_DD_L6,2021.2.3,MacIntel,59.97361161,,,,,,,,,,,,0.83,1,,,,,,,,,,,,,,z,1,0.83,,,,,,,,0.038834457,-0.383666,0,0,0,,0,127,127,90,1,NEAST,C,old,z,./images/NEAST.png,,,,,,,,,,,,,,,,,,,,,,
,,,,,,,,,,,,,,,,,199237,,2022-01-28_16h34.51.164,lexical_decision_task_DD_L6,2021.2.3,MacIntel,59.97361161,,,,,,,,,,,,0.6157,1,,,,,,,,,,,,,,m,1,0.6157,,,,,,,,0.038834457,-0.383666,0,0,0,,0,128,128,48,1,SHIELD,LB,old,m,./images/SHIELDLB.png,,,,,,,,,,,,,,,,,,,,,,
,,,,,,,,,,,,,,,,,199237,,2022-01-28_16h34.51.164,lexical_decision_task_DD_L6,2021.2.3,MacIntel,59.97361161,,,,,,,,,,,,0.6304,1,,,,,,,,,,,,,,z,1,0.6304,,,,,,,,0.038834457,-0.383666,0,0,0,,0,129,129,151,1,TINKY,HB,old,z,./images/TINKYHB.png,,,,,,,,,,,,,,,,,,,,,,
,,,,,,,,,,,,,,,,,199237,,2022-01-28_16h34.51.164,lexical_decision_task_DD_L6,2021.2.3,MacIntel,59.97361161,,,,,,,,,,,,0.9328,1,,,,,,,,,,,,,,z,1,0.9328,,,,,,,,0.038834457,-0.383666,0,0,0,,0,130,130,86,1,AIFED,LB,old,z,./images/AIFEDLB.png,,,,,,,,,,,,,,,,,,,,,,
,,,,,,,,,,,,,,,,,199237,,2022-01-28_16h34.51.164,lexical_decision_task_DD_L6,2021.2.3,MacIntel,59.97361161,,,,,,,,,,,,0.7467,1,,,,,,,,,,,,,,z,1,0.7467,,,,,,,,0.038834457,-0.383666,0,0,0,,0,131,131,134,1,TROSS,LB,old,z,./images/TROSSLB.png,,,,,,,,,,,,,,,,,,,,,,
,,,,,,,,,,,,,,,,,199237,,2022-01-28_16h34.51.164,lexical_decision_task_DD_L6,2021.2.3,MacIntel,59.97361161,,,,,,,,,,,,1.6261,1,,,,,,,,,,,,,,z,1,1.6261,,,,,,,,0.038834457,-0.383666,0,0,0,,0,132,132,132,1,SCIFF,C,old,z,./images/SCIFF.png,,,,,,,,,,,,,,,,,,,,,,
,,,,,,,,,,,,,,,,,199237,,2022-01-28_16h34.51.164,lexical_decision_task_DD_L6,2021.2.3,MacIntel,59.97361161,,,,,,,,,,,,0.9121,1,,,,,,,,,,,,,,m,1,0.9121,,,,,,,,0.038834457,-0.383666,0,0,0,,0,133,133,29,1,PISTOL,HB,old,m,./images/PISTOLHB.png,,,,,,,,,,,,,,,,,,,,,,
,,,,,,,,,,,,,,,,,199237,,2022-01-28_16h34.51.164,lexical_decision_task_DD_L6,2021.2.3,MacIntel,59.97361161,,,,,,,,,,,,0.8343,1,,,,,,,,,,,,,,m,1,0.8343,,,,,,,,0.038834457,-0.383666,0,0,0,,0,134,134,9,1,DIVER,LB,old,m,./images/DIVERLB.png,,,,,,,,,,,,,,,,,,,,,,
,,,,,,,,,,,,,,,,,199237,,2022-01-28_16h34.51.164,lexical_decision_task_DD_L6,2021.2.3,MacIntel,59.97361161,,,,,,,,,,,,0.7781,1,,,,,,,,,,,,,,m,1,0.7781,,,,,,,,0.038834457,-0.383666,0,0,0,,0,135,135,51,1,SAUCE,LB,old,m,./images/SAUCELB.png,,,,,,,,,,,,,,,,,,,,,,
,,,,,,,,,,,,,,,,,199237,,2022-01-28_16h34.51.164,lexical_decision_task_DD_L6,2021.2.3,MacIntel,59.97361161,,,,,,,,,,,,0.5302,1,,,,,,,,,,,,,,m,1,0.5302,,,,,,,,0.038834457,-0.383666,0,0,0,,0,136,136,16,1,GRAPE,C,old,m,./images/GRAPE.png,,,,,,,,,,,,,,,,,,,,,,
,,,,,,,,,,,,,,,,,199237,,2022-01-28_16h34.51.164,lexical_decision_task_DD_L6,2021.2.3,MacIntel,59.97361161,,,,,,,,,,,,0.6291,1,,,,,,,,,,,,,,m,1,0.6291,,,,,,,,0.038834457,-0.383666,0,0,0,,0,137,137,80,1,PLANET,HB,old,m,./images/PLANETHB.png,,,,,,,,,,,,,,,,,,,,,,
,,,,,,,,,,,,,,,,,199237,,2022-01-28_16h34.51.164,lexical_decision_task_DD_L6,2021.2.3,MacIntel,59.97361161,,,,,,,,,,,,0.6137,1,,,,,,,,,,,,,,m,1,0.6137,,,,,,,,0.038834457,-0.383666,0,0,0,,0,138,138,0,1,WALNUT,LB,old,m,./images/WALNUTLB.png,,,,,,,,,,,,,,,,,,,,,,
,,,,,,,,,,,,,,,,,199237,,2022-01-28_16h34.51.164,lexical_decision_task_DD_L6,2021.2.3,MacIntel,59.97361161,,,,,,,,,,,,0.6346,1,,,,,,,,,,,,,,m,1,0.6346,,,,,,,,0.038834457,-0.383666,0,0,0,,0,139,139,43,1,STOOL,C,old,m,./images/STOOL.png,,,,,,,,,,,,,,,,,,,,,,
,,,,,,,,,,,,,,,,,199237,,2022-01-28_16h34.51.164,lexical_decision_task_DD_L6,2021.2.3,MacIntel,59.97361161,,,,,,,,,,,,0.901,1,,,,,,,,,,,,,,z,1,0.901,,,,,,,,0.038834457,-0.383666,0,0,0,,0,140,140,102,1,DULLE,C,old,z,./images/DULLE.png,,,,,,,,,,,,,,,,,,,,,,
,,,,,,,,,,,,,,,,,199237,,2022-01-28_16h34.51.164,lexical_decision_task_DD_L6,2021.2.3,MacIntel,59.97361161,,,,,,,,,,,,1.4863,1,,,,,,,,,,,,,,z,1,1.4863,,,,,,,,0.038834457,-0.383666,0,0,0,,0,141,141,110,1,CRUNK,LB,old,z,./images/CRUNKLB.png,,,,,,,,,,,,,,,,,,,,,,
,,,,,,,,,,,,,,,,,199237,,2022-01-28_16h34.51.164,lexical_decision_task_DD_L6,2021.2.3,MacIntel,59.97361161,,,,,,,,,,,,0.6096,1,,,,,,,,,,,,,,m,1,0.6096,,,,,,,,0.038834457,-0.383666,0,0,0,,0,142,142,65,1,SPINE,HB,old,m,./images/SPINEHB.png,,,,,,,,,,,,,,,,,,,,,,
,,,,,,,,,,,,,,,,,199237,,2022-01-28_16h34.51.164,lexical_decision_task_DD_L6,2021.2.3,MacIntel,59.97361161,,,,,,,,,,,,1.1242,1,,,,,,,,,,,,,,m,1,1.1242,,,,,,,,0.038834457,-0.383666,0,0,0,,0,143,143,76,1,MIDGET,C,old,m,./images/MIDGET.png,,,,,,,,,,,,,,,,,,,,,,
,,,,,,,,,,,,,,,,,199237,,2022-01-28_16h34.51.164,lexical_decision_task_DD_L6,2021.2.3,MacIntel,59.97361161,,,,,,,,,,,,0.5976,1,,,,,,,,,,,,,,m,1,0.5976,,,,,,,,0.038834457,-0.383666,0,0,0,,0,144,144,78,1,BROOM,LB,old,m,./images/BROOMLB.png,,,,,,,,,,,,,,,,,,,,,,
,,,,,,,,,,,,,,,,,199237,,2022-01-28_16h34.51.164,lexical_decision_task_DD_L6,2021.2.3,MacIntel,59.97361161,,,,,,,,,,,,0.9138,1,,,,,,,,,,,,,,m,1,0.9138,,,,,,,,0.038834457,-0.383666,0,0,0,,0,145,145,54,1,CHERRY,LB,old,m,./images/CHERRYLB.png,,,,,,,,,,,,,,,,,,,,,,
,,,,,,,,,,,,,,,,,199237,,2022-01-28_16h34.51.164,lexical_decision_task_DD_L6,2021.2.3,MacIntel,59.97361161,,,,,,,,,,,,1.065,1,,,,,,,,,,,,,,z,1,1.065,,,,,,,,0.038834457,-0.383666,0,0,0,,0,146,146,89,1,DRIEK,LB,old,z,./images/DRIEKLB.png,,,,,,,,,,,,,,,,,,,,,,
,,,,,,,,,,,,,,,,,199237,,2022-01-28_16h34.51.164,lexical_decision_task_DD_L6,2021.2.3,MacIntel,59.97361161,,,,,,,,,,,,1.0122,1,,,,,,,,,,,,,,m,1,1.0122,,,,,,,,0.038834457,-0.383666,0,0,0,,0,147,147,24,1,FLESH,LB,old,m,./images/FLESHLB.png,,,,,,,,,,,,,,,,,,,,,,
,,,,,,,,,,,,,,,,,199237,,2022-01-28_16h34.51.164,lexical_decision_task_DD_L6,2021.2.3,MacIntel,59.97361161,,,,,,,,,,,,0.5652,1,,,,,,,,,,,,,,m,1,0.5652,,,,,,,,0.038834457,-0.383666,0,0,0,,0,148,148,70,1,BANANA,C,old,m,./images/BANANA.png,,,,,,,,,,,,,,,,,,,,,,
,,,,,,,,,,,,,,,,,199237,,2022-01-28_16h34.51.164,lexical_decision_task_DD_L6,2021.2.3,MacIntel,59.97361161,,,,,,,,,,,,0.751,1,,,,,,,,,,,,,,m,1,0.751,,,,,,,,0.038834457,-0.383666,0,0,0,,0,149,149,83,1,WHISKY,HB,old,m,./images/WHISKYHB.png,,,,,,,,,,,,,,,,,,,,,,
,,,,,,,,,,,,,,,,,199237,,2022-01-28_16h34.51.164,lexical_decision_task_DD_L6,2021.2.3,MacIntel,59.97361161,,,,,,,,,,,,0.9162,1,,,,,,,,,,,,,,z,1,0.9162,,,,,,,,0.038834457,-0.383666,0,0,0,,0,150,150,85,1,CHULK,HB,old,z,./images/CHULKHB.png,,,,,,,,,,,,,,,,,,,,,,
,,,,,,,,,,,,,,,,,199237,,2022-01-28_16h34.51.164,lexical_decision_task_DD_L6,2021.2.3,MacIntel,59.97361161,,,,,,,,,,,,1.2168,1,,,,,,,,,,,,,,z,1,1.2168,,,,,,,,0.038834457,-0.383666,0,0,0,,0,151,151,106,1,CLUMS,HB,old,z,./images/CLUMSHB.png,,,,,,,,,,,,,,,,,,,,,,
,,,,,,,,,,,,,,,,,199237,,2022-01-28_16h34.51.164,lexical_decision_task_DD_L6,2021.2.3,MacIntel,59.97361161,,,,,,,,,,,,0.6303,1,,,,,,,,,,,,,,m,1,0.6303,,,,,,,,0.038834457,-0.383666,0,0,0,,0,152,152,7,1,WAGON,C,old,m,./images/WAGON.png,,,,,,,,,,,,,,,,,,,,,,
,,,,,,,,,,,,,,,,,199237,,2022-01-28_16h34.51.164,lexical_decision_task_DD_L6,2021.2.3,MacIntel,59.97361161,,,,,,,,,,,,0.6145,1,,,,,,,,,,,,,,m,1,0.6145,,,,,,,,0.038834457,-0.383666,0,0,0,,0,153,153,50,1,PILOT,HB,old,m,./images/PILOTHB.png,,,,,,,,,,,,,,,,,,,,,,
,,,,,,,,,,,,,,,,,199237,,2022-01-28_16h34.51.164,lexical_decision_task_DD_L6,2021.2.3,MacIntel,59.97361161,,,,,,,,,,,,0.6798,1,,,,,,,,,,,,,,z,1,0.6798,,,,,,,,0.038834457,-0.383666,0,0,0,,0,154,154,96,1,KEAMS,C,old,z,./images/KEAMS.png,,,,,,,,,,,,,,,,,,,,,,
,,,,,,,,,,,,,,,,,199237,,2022-01-28_16h34.51.164,lexical_decision_task_DD_L6,2021.2.3,MacIntel,59.97361161,,,,,,,,,,,,0.5166,1,,,,,,,,,,,,,,m,1,0.5166,,,,,,,,0.038834457,-0.383666,0,0,0,,0,155,155,81,1,DRILL,LB,old,m,./images/DRILLLB.png,,,,,,,,,,,,,,,,,,,,,,
,,,,,,,,,,,,,,,,,199237,,2022-01-28_16h34.51.164,lexical_decision_task_DD_L6,2021.2.3,MacIntel,59.97361161,,,,,,,,,,,,0.6314,1,,,,,,,,,,,,,,z,1,0.6314,,,,,,,,0.038834457,-0.383666,0,0,0,,0,156,156,143,1,MONGS,LB,old,z,./images/MONGSLB.png,,,,,,,,,,,,,,,,,,,,,,
,,,,,,,,,,,,,,,,,199237,,2022-01-28_16h34.51.164,lexical_decision_task_DD_L6,2021.2.3,MacIntel,59.97361161,,,,,,,,,,,,0.495,1,,,,,,,,,,,,,,m,1,0.495,,,,,,,,0.038834457,-0.383666,0,0,0,,0,157,157,49,1,BISHOP,C,old,m,./images/BISHOP.png,,,,,,,,,,,,,,,,,,,,,,
,,,,,,,,,,,,,,,,,199237,,2022-01-28_16h34.51.164,lexical_decision_task_DD_L6,2021.2.3,MacIntel,59.97361161,,,,,,,,,,,,0.7156,1,,,,,,,,,,,,,,z,1,0.7156,,,,,,,,0.038834457,-0.383666,0,0,0,,0,158,158,92,1,PAIMS,LB,old,z,./images/PAIMSLB.png,,,,,,,,,,,,,,,,,,,,,,
,,,,,,,,,,,,,,,,,199237,,2022-01-28_16h34.51.164,lexical_decision_task_DD_L6,2021.2.3,MacIntel,59.97361161,,,,,,,,,,,,0.7807,1,,,,,,,,,,,,,,z,1,0.7807,,,,,,,,0.038834457,-0.383666,0,0,0,,0,159,159,131,1,NACES,LB,old,z,./images/NACESLB.png,,,,,,,,,,,,,,,,,,,,,,
,,,,,,,,,,,,,,,,,199237,,2022-01-28_16h34.51.164,lexical_decision_task_DD_L6,2021.2.3,MacIntel,59.97361161,,,,,,,,,,,,0.434,1,,,,,,,,,,,,,,m,1,0.434,,,,,,,,0.038834457,-0.383666,0,0,0,,0,160,160,45,1,MONKEY,LB,old,m,./images/MONKEYLB.png,,,,,,,,,,,,,,,,,,,,,,
,,,,,,,,,,,,,,,,,199237,,2022-01-28_16h34.51.164,lexical_decision_task_DD_L6,2021.2.3,MacIntel,59.97361161,,,,,,,,,,,,0.6455,1,,,,,,,,,,,,,,z,1,0.6455,,,,,,,,0.038834457,-0.383666,0,0,0,,0,161,161,140,1,DOVET,LB,old,z,./images/DOVETLB.png,,,,,,,,,,,,,,,,,,,,,,
,,,,,,,,,,,,,,,,,199237,,2022-01-28_16h34.51.164,lexical_decision_task_DD_L6,2021.2.3,MacIntel,59.97361161,,,,,,,,,,,,1.5462,1,,,,,,,,,,,,,,z,1,1.5462,,,,,,,,0.038834457,-0.383666,0,0,0,,0,162,162,109,1,BURGE,HB,old,z,./images/BURGEHB.png,,,,,,,,,,,,,,,,,,,,,,
,,,,,,,,,,,,,,,,,199237,,2022-01-28_16h34.51.164,lexical_decision_task_DD_L6,2021.2.3,MacIntel,59.97361161,,,,,,,,,,,,0.478,1,,,,,,,,,,,,,,m,1,0.478,,,,,,,,0.038834457,-0.383666,0,0,0,,0,163,163,52,1,DESERT,C,old,m,./images/DESERT.png,,,,,,,,,,,,,,,,,,,,,,
,,,,,,,,,,,,,,,,,199237,,2022-01-28_16h34.51.164,lexical_decision_task_DD_L6,2021.2.3,MacIntel,59.97361161,,,,,,,,,,,,0.5825,1,,,,,,,,,,,,,,m,1,0.5825,,,,,,,,0.038834457,-0.383666,0,0,0,,0,164,164,6,1,STAIN,LB,old,m,./images/STAINLB.png,,,,,,,,,,,,,,,,,,,,,,
,,,,,,,,,,,,,,,,,199237,,2022-01-28_16h34.51.164,lexical_decision_task_DD_L6,2021.2.3,MacIntel,59.97361161,,,,,,,,,,,,0.8021,1,,,,,,,,,,,,,,z,1,0.8021,,,,,,,,0.038834457,-0.383666,0,0,0,,0,165,165,145,1,LAMEL,HB,old,z,./images/LAMELHB.png,,,,,,,,,,,,,,,,,,,,,,
,,,,,,,,,,,,,,,,,199237,,2022-01-28_16h34.51.164,lexical_decision_task_DD_L6,2021.2.3,MacIntel,59.97361161,,,,,,,,,,,,0.6664,1,,,,,,,,,,,,,,m,1,0.6664,,,,,,,,0.038834457,-0.383666,0,0,0,,0,166,166,56,1,HEATER,HB,old,m,./images/HEATERHB.png,,,,,,,,,,,,,,,,,,,,,,
,,,,,,,,,,,,,,,,,199237,,2022-01-28_16h34.51.164,lexical_decision_task_DD_L6,2021.2.3,MacIntel,59.97361161,,,,,,,,,,,,2.0493,1,,,,,,,,,,,,,,z,1,2.0493,,,,,,,,0.038834457,-0.383666,0,0,0,,0,167,167,133,1,POWDY,HB,old,z,./images/POWDYHB.png,,,,,,,,,,,,,,,,,,,,,,
space,0.038834457,-0.383666,0,0,0,,,,,,,1,test,"In the next phase you will be presented with the words from the the first phase. Your job is to decide whether you remember seeing the word or not. If you remember seeing the word press ""old"" or type ""m"". If you do not remember seeing the word press ""new"" or type ""z"". Please press the space bar or click on continue to begin. ",,,199237,,2022-01-28_16h34.51.164,lexical_decision_task_DD_L6,2021.2.3,MacIntel,59.97361161,43.8995,,,,,,,,,,,,,,,,,,,,,,,,,,,,,,,,,,,,,,,,,,,,,,,,,,,,,0,0,0,0,1,,,,,,,,,,,,,,,,
space,0.038834457,-0.383666,0,0,0,,,,,,,1,test,"In the next phase you will be presented with the words from the the first phase. Your job is to decide whether you remember seeing the word or not. If you remember seeing the word press ""old"" or type ""m"". If you do not remember seeing the word press ""new"" or type ""z"". Please press the space bar or click on continue to begin. ",,,199237,,2022-01-28_16h34.51.164,lexical_decision_task_DD_L6,2021.2.3,MacIntel,59.97361161,1.0422,,,,,,,,,,,,,,,,,,,,,,,,,,,,,,,,,,,,,,,,,,,,,,,,,,,,,1,0,1,0,1,,,,,,,,,,,,,,,,
,0.038834457,-0.383666,1,0,0,instr_done_button,,,,,,1,test,"In the next phase you will be presented with the words from the the first phase. Your job is to decide whether you remember seeing the word or not. If you remember seeing the word press ""old"" or type ""m"". If you do not remember seeing the word press ""new"" or type ""z"". Please press the space bar or click on continue to begin. ",,,199237,,2022-01-28_16h34.51.164,lexical_decision_task_DD_L6,2021.2.3,MacIntel,59.97361161,,,,,,,,,,,,,,,,,,,,,,,,,,,,,,,,,,,,,,,,,,,,,,,,,,,,,,2,0,2,0,1,,,,,,,,,,,,,,,,
space,0.038834457,-0.383666,0,0,0,,,,,,,1,test,"In the next phase you will be presented with the words from the the first phase. Your job is to decide whether you remember seeing the word or not. If you remember seeing the word press ""old"" or type ""m"". If you do not remember seeing the word press ""new"" or type ""z"". Please press the space bar or click on continue to begin. ",,,199237,,2022-01-28_16h34.51.164,lexical_decision_task_DD_L6,2021.2.3,MacIntel,59.97361161,0.9005,,,,,,,,,,,,,,,,,,,,,,,,,,,,,,,,,,,,,,,,,,,,,,,,,,,,,3,0,3,0,1,,,,,,,,,,,,,,,,
,-0.007734604,-0.379743729,1,0,0,instr_done_button,,,,,,1,test,"In the next phase you will be presented with the words from the the first phase. Your job is to decide whether you remember seeing the word or not. If you remember seeing the word press ""old"" or type ""m"". If you do not remember seeing the word press ""new"" or type ""z"". Please press the space bar or click on continue to begin. ",,,199237,,2022-01-28_16h34.51.164,lexical_decision_task_DD_L6,2021.2.3,MacIntel,59.97361161,,,,,,,,,,,,,,,,,,,,,,,,,,,,,,,,,,,,,,,,,,,,,,,,,,,,,,4,0,4,0,1,,,,,,,,,,,,,,,,
,,,,,,,,,,,,,,,,,199237,,2022-01-28_16h34.51.164,lexical_decision_task_DD_L6,2021.2.3,MacIntel,59.97361161,,,,,,,,,,,,2.0843,1,,,,,,,,,,,,,,,,,,,,,,,,-0.007734604,-0.380368729,0,0,0,,,,,,,MALLET,HB,z,y,./images/MALLETHB.png,,,,,,,z,1,2.0843,,,,,,,,0,0,0,134,1,
,,,,,,,,,,,,,,,,,199237,,2022-01-28_16h34.51.164,lexical_decision_task_DD_L6,2021.2.3,MacIntel,59.97361161,,,,,,,,,,,,0.869,0,,,,,,,,,,,,,,,,,,,,,,,,-0.007734604,-0.380368729,0,0,0,,,,,,,BUBBLE,HB,m,y,./images/BUBBLEHB.png,,,,,,,z,0,0.869,,,,,,,,0,1,1,71,1,
,,,,,,,,,,,,,,,,,199237,,2022-01-28_16h34.51.164,lexical_decision_task_DD_L6,2021.2.3,MacIntel,59.97361161,,,,,,,,,,,,0.7496,1,,,,,,,,,,,,,,,,,,,,,,,,-0.007734604,-0.380368729,0,0,0,,,,,,,PEARL,C,z,y,./images/PEARL.png,,,,,,,z,1,0.7496,,,,,,,,0,2,2,130,1,
,,,,,,,,,,,,,,,,,199237,,2022-01-28_16h34.51.164,lexical_decision_task_DD_L6,2021.2.3,MacIntel,59.97361161,,,,,,,,,,,,0.6174,1,,,,,,,,,,,,,,,,,,,,,,,,-0.007734604,-0.380368729,0,0,0,,,,,,,PILOT,HB,m,y,./images/PILOTHB.png,,,,,,,m,1,0.6174,,,,,,,,0,3,3,50,1,
,,,,,,,,,,,,,,,,,199237,,2022-01-28_16h34.51.164,lexical_decision_task_DD_L6,2021.2.3,MacIntel,59.97361161,,,,,,,,,,,,1.1659,1,,,,,,,,,,,,,,,,,,,,,,,,-0.007734604,-0.380368729,0,0,0,,,,,,,SLOPE,LB,m,y,./images/SLOPELB.png,,,,,,,m,1,1.1659,,,,,,,,0,4,4,30,1,
,,,,,,,,,,,,,,,,,199237,,2022-01-28_16h34.51.164,lexical_decision_task_DD_L6,2021.2.3,MacIntel,59.97361161,,,,,,,,,,,,1.3389,0,,,,,,,,,,,,,,,,,,,,,,,,-0.007734604,-0.380368729,0,0,0,,,,,,,SMOKER,HB,z,y,./images/SMOKERHB.png,,,,,,,m,0,1.3389,,,,,,,,0,5,5,110,1,
,,,,,,,,,,,,,,,,,199237,,2022-01-28_16h34.51.164,lexical_decision_task_DD_L6,2021.2.3,MacIntel,59.97361161,,,,,,,,,,,,0.5997,1,,,,,,,,,,,,,,,,,,,,,,,,-0.007734604,-0.380368729,0,0,0,,,,,,,WHISKY,HB,m,y,./images/WHISKYHB.png,,,,,,,m,1,0.5997,,,,,,,,0,6,6,83,1,
,,,,,,,,,,,,,,,,,199237,,2022-01-28_16h34.51.164,lexical_decision_task_DD_L6,2021.2.3,MacIntel,59.97361161,,,,,,,,,,,,0.5497,1,,,,,,,,,,,,,,,,,,,,,,,,-0.007734604,-0.380368729,0,0,0,,,,,,,BANANA,C,m,y,./images/BANANA.png,,,,,,,m,1,0.5497,,,,,,,,0,7,7,70,1,
,,,,,,,,,,,,,,,,,199237,,2022-01-28_16h34.51.164,lexical_decision_task_DD_L6,2021.2.3,MacIntel,59.97361161,,,,,,,,,,,,0.7804,0,,,,,,,,,,,,,,,,,,,,,,,,-0.007734604,-0.380368729,0,0,0,,,,,,,MUFFIN,C,z,y,./images/MUFFIN.png,,,,,,,m,0,0.7804,,,,,,,,0,8,8,139,1,
,,,,,,,,,,,,,,,,,199237,,2022-01-28_16h34.51.164,lexical_decision_task_DD_L6,2021.2.3,MacIntel,59.97361161,,,,,,,,,,,,0.5823,1,,,,,,,,,,,,,,,,,,,,,,,,-0.007734604,-0.380368729,0,0,0,,,,,,,BISHOP,C,m,y,./images/BISHOP.png,,,,,,,m,1,0.5823,,,,,,,,0,9,9,49,1,
,,,,,,,,,,,,,,,,,199237,,2022-01-28_16h34.51.164,lexical_decision_task_DD_L6,2021.2.3,MacIntel,59.97361161,,,,,,,,,,,,0.982,1,,,,,,,,,,,,,,,,,,,,,,,,-0.007734604,-0.380368729,0,0,0,,,,,,,SKIING,HB,z,y,./images/SKIINGHB.png,,,,,,,z,1,0.982,,,,,,,,0,10,10,101,1,
,,,,,,,,,,,,,,,,,199237,,2022-01-28_16h34.51.164,lexical_decision_task_DD_L6,2021.2.3,MacIntel,59.97361161,,,,,,,,,,,,0.7337,1,,,,,,,,,,,,,,,,,,,,,,,,-0.007734604,-0.380368729,0,0,0,,,,,,,SHORE,LB,z,y,./images/SHORELB.png,,,,,,,z,1,0.7337,,,,,,,,0,11,11,96,1,
,,,,,,,,,,,,,,,,,199237,,2022-01-28_16h34.51.164,lexical_decision_task_DD_L6,2021.2.3,MacIntel,59.97361161,,,,,,,,,,,,0.7995,1,,,,,,,,,,,,,,,,,,,,,,,,-0.007734604,-0.380368729,0,0,0,,,,,,,MELON,C,z,y,./images/MELON.png,,,,,,,z,1,0.7995,,,,,,,,0,12,12,106,1,
,,,,,,,,,,,,,,,,,199237,,2022-01-28_16h34.51.164,lexical_decision_task_DD_L6,2021.2.3,MacIntel,59.97361161,,,,,,,,,,,,0.7803,0,,,,,,,,,,,,,,,,,,,,,,,,-0.007734604,-0.380368729,0,0,0,,,,,,,STREAM,HB,m,y,./images/STREAMHB.png,,,,,,,z,0,0.7803,,,,,,,,0,13,13,41,1,
,,,,,,,,,,,,,,,,,199237,,2022-01-28_16h34.51.164,lexical_decision_task_DD_L6,2021.2.3,MacIntel,59.97361161,,,,,,,,,,,,0.75,0,,,,,,,,,,,,,,,,,,,,,,,,-0.007734604,-0.380368729,0,0,0,,,,,,,CANDY,LB,m,y,./images/CANDYLB.png,,,,,,,z,0,0.75,,,,,,,,0,14,14,39,1,
,,,,,,,,,,,,,,,,,199237,,2022-01-28_16h34.51.164,lexical_decision_task_DD_L6,2021.2.3,MacIntel,59.97361161,,,,,,,,,,,,0.9166,1,,,,,,,,,,,,,,,,,,,,,,,,-0.007734604,-0.380368729,0,0,0,,,,,,,COUCH,HB,z,y,./images/COUCHHB.png,,,,,,,z,1,0.9166,,,,,,,,0,15,15,161,1,
,,,,,,,,,,,,,,,,,199237,,2022-01-28_16h34.51.164,lexical_decision_task_DD_L6,2021.2.3,MacIntel,59.97361161,,,,,,,,,,,,2.119,0,,,,,,,,,,,,,,,,,,,,,,,,-0.007734604,-0.380368729,0,0,0,,,,,,,BURIAL,HB,z,y,./images/BURIALHB.png,,,,,,,m,0,2.119,,,,,,,,0,16,16,143,1,
,,,,,,,,,,,,,,,,,199237,,2022-01-28_16h34.51.164,lexical_decision_task_DD_L6,2021.2.3,MacIntel,59.97361161,,,,,,,,,,,,0.5842,1,,,,,,,,,,,,,,,,,,,,,,,,-0.007734604,-0.380368729,0,0,0,,,,,,,WAGON,C,m,y,./images/WAGON.png,,,,,,,m,1,0.5842,,,,,,,,0,17,17,7,1,
,,,,,,,,,,,,,,,,,199237,,2022-01-28_16h34.51.164,lexical_decision_task_DD_L6,2021.2.3,MacIntel,59.97361161,,,,,,,,,,,,1.016,1,,,,,,,,,,,,,,,,,,,,,,,,-0.007734604,-0.380368729,0,0,0,,,,,,,BLOKE,LB,m,y,./images/BLOKELB.png,,,,,,,m,1,1.016,,,,,,,,0,18,18,12,1,
,,,,,,,,,,,,,,,,,199237,,2022-01-28_16h34.51.164,lexical_decision_task_DD_L6,2021.2.3,MacIntel,59.97361161,,,,,,,,,,,,1.292,1,,,,,,,,,,,,,,,,,,,,,,,,-0.007734604,-0.380368729,0,0,0,,,,,,,POODLE,LB,z,y,./images/POODLELB.png,,,,,,,z,1,1.292,,,,,,,,0,19,19,165,1,
,,,,,,,,,,,,,,,,,199237,,2022-01-28_16h34.51.164,lexical_decision_task_DD_L6,2021.2.3,MacIntel,59.97361161,,,,,,,,,,,,0.9506,0,,,,,,,,,,,,,,,,,,,,,,,,-0.007734604,-0.380368729,0,0,0,,,,,,,SCREW,LB,z,y,./images/SCREWLB.png,,,,,,,m,0,0.9506,,,,,,,,0,20,20,108,1,
,,,,,,,,,,,,,,,,,199237,,2022-01-28_16h34.51.164,lexical_decision_task_DD_L6,2021.2.3,MacIntel,59.97361161,,,,,,,,,,,,0.684,1,,,,,,,,,,,,,,,,,,,,,,,,-0.007734604,-0.380368729,0,0,0,,,,,,,CURRY,LB,m,y,./images/CURRYLB.png,,,,,,,m,1,0.684,,,,,,,,0,21,21,60,1,
,,,,,,,,,,,,,,,,,199237,,2022-01-28_16h34.51.164,lexical_decision_task_DD_L6,2021.2.3,MacIntel,59.97361161,,,,,,,,,,,,1.5159,0,,,,,,,,,,,,,,,,,,,,,,,,-0.007734604,-0.380368729,0,0,0,,,,,,,WHEEL,HB,m,y,./images/WHEELHB.png,,,,,,,z,0,1.5159,,,,,,,,0,22,22,77,1,
,,,,,,,,,,,,,,,,,199237,,2022-01-28_16h34.51.164,lexical_decision_task_DD_L6,2021.2.3,MacIntel,59.97361161,,,,,,,,,,,,0.8475,1,,,,,,,,,,,,,,,,,,,,,,,,-0.007734604,-0.380368729,0,0,0,,,,,,,WRIST,C,z,y,./images/WRIST.png,,,,,,,z,1,0.8475,,,,,,,,0,23,23,109,1,
,,,,,,,,,,,,,,,,,199237,,2022-01-28_16h34.51.164,lexical_decision_task_DD_L6,2021.2.3,MacIntel,59.97361161,,,,,,,,,,,,1.0669,1,,,,,,,,,,,,,,,,,,,,,,,,-0.007734604,-0.380368729,0,0,0,,,,,,,CEMENT,HB,z,y,./images/CEMENTHB.png,,,,,,,z,1,1.0669,,,,,,,,0,24,24,158,1,
,,,,,,,,,,,,,,,,,199237,,2022-01-28_16h34.51.164,lexical_decision_task_DD_L6,2021.2.3,MacIntel,59.97361161,,,,,,,,,,,,0.7177,1,,,,,,,,,,,,,,,,,,,,,,,,-0.007734604,-0.380368729,0,0,0,,,,,,,MAMMAL,HB,m,y,./images/MAMMALHB.png,,,,,,,m,1,0.7177,,,,,,,,0,25,25,62,1,
,,,,,,,,,,,,,,,,,199237,,2022-01-28_16h34.51.164,lexical_decision_task_DD_L6,2021.2.3,MacIntel,59.97361161,,,,,,,,,,,,1.1669,1,,,,,,,,,,,,,,,,,,,,,,,,-0.007734604,-0.380368729,0,0,0,,,,,,,STRING,HB,z,y,./images/STRINGHB.png,,,,,,,z,1,1.1669,,,,,,,,0,26,26,125,1,
,,,,,,,,,,,,,,,,,199237,,2022-01-28_16h34.51.164,lexical_decision_task_DD_L6,2021.2.3,MacIntel,59.97361161,,,,,,,,,,,,1.0487,1,,,,,,,,,,,,,,,,,,,,,,,,-0.007734604,-0.380368729,0,0,0,,,,,,,PENCE,C,z,y,./images/PENCE.png,,,,,,,z,1,1.0487,,,,,,,,0,27,27,100,1,
,,,,,,,,,,,,,,,,,199237,,2022-01-28_16h34.51.164,lexical_decision_task_DD_L6,2021.2.3,MacIntel,59.97361161,,,,,,,,,,,,0.5674,1,,,,,,,,,,,,,,,,,,,,,,,,-0.007734604,-0.380368729,0,0,0,,,,,,,CLOTH,HB,m,y,./images/CLOTHHB.png,,,,,,,m,1,0.5674,,,,,,,,0,28,28,23,1,
,,,,,,,,,,,,,,,,,199237,,2022-01-28_16h34.51.164,lexical_decision_task_DD_L6,2021.2.3,MacIntel,59.97361161,,,,,,,,,,,,0.6166,1,,,,,,,,,,,,,,,,,,,,,,,,-0.007734604,-0.380368729,0,0,0,,,,,,,BAMBOO,HB,m,y,./images/BAMBOOHB.png,,,,,,,m,1,0.6166,,,,,,,,0,29,29,5,1,
,,,,,,,,,,,,,,,,,199237,,2022-01-28_16h34.51.164,lexical_decision_task_DD_L6,2021.2.3,MacIntel,59.97361161,,,,,,,,,,,,0.5661,0,,,,,,,,,,,,,,,,,,,,,,,,-0.007734604,-0.380368729,0,0,0,,,,,,,THROAT,LB,z,y,./images/THROATLB.png,,,,,,,m,0,0.5661,,,,,,,,0,30,30,120,1,
,,,,,,,,,,,,,,,,,199237,,2022-01-28_16h34.51.164,lexical_decision_task_DD_L6,2021.2.3,MacIntel,59.97361161,,,,,,,,,,,,0.7326,1,,,,,,,,,,,,,,,,,,,,,,,,-0.007734604,-0.380368729,0,0,0,,,,,,,PARADE,HB,m,y,./images/PARADEHB.png,,,,,,,m,1,0.7326,,,,,,,,0,31,31,17,1,
,,,,,,,,,,,,,,,,,199237,,2022-01-28_16h34.51.164,lexical_decision_task_DD_L6,2021.2.3,MacIntel,59.97361161,,,,,,,,,,,,0.7993,1,,,,,,,,,,,,,,,,,,,,,,,,-0.007734604,-0.380368729,0,0,0,,,,,,,BASKET,HB,m,y,./images/BASKETHB.png,,,,,,,m,1,0.7993,,,,,,,,0,32,32,44,1,
,,,,,,,,,,,,,,,,,199237,,2022-01-28_16h34.51.164,lexical_decision_task_DD_L6,2021.2.3,MacIntel,59.97361161,,,,,,,,,,,,3.0689,0,,,,,,,,,,,,,,,,,,,,,,,,-0.007734604,-0.380368729,0,0,0,,,,,,,BERRY,HB,z,y,./images/BERRYHB.png,,,,,,,m,0,3.0689,,,,,,,,0,33,33,131,1,
,,,,,,,,,,,,,,,,,199237,,2022-01-28_16h34.51.164,lexical_decision_task_DD_L6,2021.2.3,MacIntel,59.97361161,,,,,,,,,,,,0.9499,1,,,,,,,,,,,,,,,,,,,,,,,,-0.007734604,-0.380368729,0,0,0,,,,,,,CRADLE,HB,z,y,./images/CRADLEHB.png,,,,,,,z,1,0.9499,,,,,,,,0,34,34,104,1,
,,,,,,,,,,,,,,,,,199237,,2022-01-28_16h34.51.164,lexical_decision_task_DD_L6,2021.2.3,MacIntel,59.97361161,,,,,,,,,,,,0.8162,1,,,,,,,,,,,,,,,,,,,,,,,,-0.007734604,-0.380368729,0,0,0,,,,,,,TOWEL,C,m,y,./images/TOWEL.png,,,,,,,m,1,0.8162,,,,,,,,0,35,35,1,1,
,,,,,,,,,,,,,,,,,199237,,2022-01-28_16h34.51.164,lexical_decision_task_DD_L6,2021.2.3,MacIntel,59.97361161,,,,,,,,,,,,0.8351,1,,,,,,,,,,,,,,,,,,,,,,,,-0.007734604,-0.380368729,0,0,0,,,,,,,CRUMB,HB,z,y,./images/CRUMBHB.png,,,,,,,z,1,0.8351,,,,,,,,0,36,36,113,1,
,,,,,,,,,,,,,,,,,199237,,2022-01-28_16h34.51.164,lexical_decision_task_DD_L6,2021.2.3,MacIntel,59.97361161,,,,,,,,,,,,0.9815,0,,,,,,,,,,,,,,,,,,,,,,,,-0.007734604,-0.380368729,0,0,0,,,,,,,RAZOR,C,m,y,./images/RAZOR.png,,,,,,,z,0,0.9815,,,,,,,,0,37,37,34,1,
,,,,,,,,,,,,,,,,,199237,,2022-01-28_16h34.51.164,lexical_decision_task_DD_L6,2021.2.3,MacIntel,59.97361161,,,,,,,,,,,,0.7998,1,,,,,,,,,,,,,,,,,,,,,,,,-0.007734604,-0.380368729,0,0,0,,,,,,,MUSCLE,C,z,y,./images/MUSCLE.png,,,,,,,z,1,0.7998,,,,,,,,0,38,38,88,1,
,,,,,,,,,,,,,,,,,199237,,2022-01-28_16h34.51.164,lexical_decision_task_DD_L6,2021.2.3,MacIntel,59.97361161,,,,,,,,,,,,0.7855,1,,,,,,,,,,,,,,,,,,,,,,,,-0.007734604,-0.380368729,0,0,0,,,,,,,DRILL,LB,m,y,./images/DRILLLB.png,,,,,,,m,1,0.7855,,,,,,,,0,39,39,81,1,
,,,,,,,,,,,,,,,,,199237,,2022-01-28_16h34.51.164,lexical_decision_task_DD_L6,2021.2.3,MacIntel,59.97361161,,,,,,,,,,,,0.7799,1,,,,,,,,,,,,,,,,,,,,,,,,-0.007734604,-0.380368729,0,0,0,,,,,,,BONNET,HB,z,y,./images/BONNETHB.png,,,,,,,z,1,0.7799,,,,,,,,0,40,40,95,1,
,,,,,,,,,,,,,,,,,199237,,2022-01-28_16h34.51.164,lexical_decision_task_DD_L6,2021.2.3,MacIntel,59.97361161,,,,,,,,,,,,1.1171,1,,,,,,,,,,,,,,,,,,,,,,,,0.00844574,-0.402502975,1,0,0,,,,,,,SQUARE,LB,z,y,./images/SQUARELB.png,,,,,,,z,1,1.1171,,,,,,,,0,41,41,90,1,break_done_button
,,,,,,,,,,,,,,,,,199237,,2022-01-28_16h34.51.164,lexical_decision_task_DD_L6,2021.2.3,MacIntel,59.97361161,,,,,,,,,,,,1.4372,1,,,,,,,,,,,,,,,,,,,,,,,,0.00907074,-0.402502975,0,0,0,,,,,,,JAGUAR,LB,z,y,./images/JAGUARLB.png,,,,,,,z,1,1.4372,,,,,,,,0,42,42,102,1,
,,,,,,,,,,,,,,,,,199237,,2022-01-28_16h34.51.164,lexical_decision_task_DD_L6,2021.2.3,MacIntel,59.97361161,,,,,,,,,,,,0.7372,1,,,,,,,,,,,,,,,,,,,,,,,,0.00907074,-0.402502975,0,0,0,,,,,,,PISTOL,HB,m,y,./images/PISTOLHB.png,,,,,,,m,1,0.7372,,,,,,,,0,43,43,29,1,
,,,,,,,,,,,,,,,,,199237,,2022-01-28_16h34.51.164,lexical_decision_task_DD_L6,2021.2.3,MacIntel,59.97361161,,,,,,,,,,,,0.7684,0,,,,,,,,,,,,,,,,,,,,,,,,0.00907074,-0.402502975,0,0,0,,,,,,,SAUCE,LB,m,y,./images/SAUCELB.png,,,,,,,z,0,0.7684,,,,,,,,0,44,44,51,1,
,,,,,,,,,,,,,,,,,199237,,2022-01-28_16h34.51.164,lexical_decision_task_DD_L6,2021.2.3,MacIntel,59.97361161,,,,,,,,,,,,0.6684,1,,,,,,,,,,,,,,,,,,,,,,,,0.00907074,-0.402502975,0,0,0,,,,,,,ENGINE,HB,m,y,./images/ENGINEHB.png,,,,,,,m,1,0.6684,,,,,,,,0,45,45,38,1,
,,,,,,,,,,,,,,,,,199237,,2022-01-28_16h34.51.164,lexical_decision_task_DD_L6,2021.2.3,MacIntel,59.97361161,,,,,,,,,,,,0.6508,1,,,,,,,,,,,,,,,,,,,,,,,,0.00907074,-0.402502975,0,0,0,,,,,,,CRATER,LB,m,y,./images/CRATERLB.png,,,,,,,m,1,0.6508,,,,,,,,0,46,46,3,1,
,,,,,,,,,,,,,,,,,199237,,2022-01-28_16h34.51.164,lexical_decision_task_DD_L6,2021.2.3,MacIntel,59.97361161,,,,,,,,,,,,0.6011,0,,,,,,,,,,,,,,,,,,,,,,,,0.00907074,-0.402502975,0,0,0,,,,,,,BABOON,C,z,y,./images/BABOON.png,,,,,,,m,0,0.6011,,,,,,,,0,47,47,142,1,
,,,,,,,,,,,,,,,,,199237,,2022-01-28_16h34.51.164,lexical_decision_task_DD_L6,2021.2.3,MacIntel,59.97361161,,,,,,,,,,,,0.7338,1,,,,,,,,,,,,,,,,,,,,,,,,0.00907074,-0.402502975,0,0,0,,,,,,,FINGER,LB,z,y,./images/FINGERLB.png,,,,,,,z,1,0.7338,,,,,,,,0,48,48,87,1,
,,,,,,,,,,,,,,,,,199237,,2022-01-28_16h34.51.164,lexical_decision_task_DD_L6,2021.2.3,MacIntel,59.97361161,,,,,,,,,,,,0.9292,0,,,,,,,,,,,,,,,,,,,,,,,,0.00907074,-0.402502975,0,0,0,,,,,,,MEDAL,HB,m,y,./images/MEDALHB.png,,,,,,,z,0,0.9292,,,,,,,,0,49,49,11,1,
,,,,,,,,,,,,,,,,,199237,,2022-01-28_16h34.51.164,lexical_decision_task_DD_L6,2021.2.3,MacIntel,59.97361161,,,,,,,,,,,,1.1179,1,,,,,,,,,,,,,,,,,,,,,,,,0.00907074,-0.402502975,0,0,0,,,,,,,HEATER,HB,m,y,./images/HEATERHB.png,,,,,,,m,1,1.1179,,,,,,,,0,50,50,56,1,
,,,,,,,,,,,,,,,,,199237,,2022-01-28_16h34.51.164,lexical_decision_task_DD_L6,2021.2.3,MacIntel,59.97361161,,,,,,,,,,,,1.385,1,,,,,,,,,,,,,,,,,,,,,,,,0.00907074,-0.402502975,0,0,0,,,,,,,CHERRY,LB,m,y,./images/CHERRYLB.png,,,,,,,m,1,1.385,,,,,,,,0,51,51,54,1,
,,,,,,,,,,,,,,,,,199237,,2022-01-28_16h34.51.164,lexical_decision_task_DD_L6,2021.2.3,MacIntel,59.97361161,,,,,,,,,,,,1.8185,1,,,,,,,,,,,,,,,,,,,,,,,,0.00907074,-0.402502975,0,0,0,,,,,,,GRAIN,LB,z,y,./images/GRAINLB.png,,,,,,,z,1,1.8185,,,,,,,,0,52,52,159,1,
,,,,,,,,,,,,,,,,,199237,,2022-01-28_16h34.51.164,lexical_decision_task_DD_L6,2021.2.3,MacIntel,59.97361161,,,,,,,,,,,,1.8154,0,,,,,,,,,,,,,,,,,,,,,,,,0.00907074,-0.402502975,0,0,0,,,,,,,CARPET,HB,z,y,./images/CARPETHB.png,,,,,,,m,0,1.8154,,,,,,,,0,53,53,137,1,
,,,,,,,,,,,,,,,,,199237,,2022-01-28_16h34.51.164,lexical_decision_task_DD_L6,2021.2.3,MacIntel,59.97361161,,,,,,,,,,,,0.7997,1,,,,,,,,,,,,,,,,,,,,,,,,0.00907074,-0.402502975,0,0,0,,,,,,,SUNSET,C,z,y,./images/SUNSET.png,,,,,,,z,1,0.7997,,,,,,,,0,54,54,166,1,
,,,,,,,,,,,,,,,,,199237,,2022-01-28_16h34.51.164,lexical_decision_task_DD_L6,2021.2.3,MacIntel,59.97361161,,,,,,,,,,,,1.4365,0,,,,,,,,,,,,,,,,,,,,,,,,0.00907074,-0.402502975,0,0,0,,,,,,,CRUST,C,z,y,./images/CRUST.png,,,,,,,m,0,1.4365,,,,,,,,0,55,55,163,1,
,,,,,,,,,,,,,,,,,199237,,2022-01-28_16h34.51.164,lexical_decision_task_DD_L6,2021.2.3,MacIntel,59.97361161,,,,,,,,,,,,1.0308,0,,,,,,,,,,,,,,,,,,,,,,,,0.00907074,-0.402502975,0,0,0,,,,,,,BOXER,C,m,y,./images/BOXER.png,,,,,,,z,0,1.0308,,,,,,,,0,56,56,4,1,
,,,,,,,,,,,,,,,,,199237,,2022-01-28_16h34.51.164,lexical_decision_task_DD_L6,2021.2.3,MacIntel,59.97361161,,,,,,,,,,,,1.287,1,,,,,,,,,,,,,,,,,,,,,,,,0.00907074,-0.402502975,0,0,0,,,,,,,SAUNA,LB,m,y,./images/SAUNALB.png,,,,,,,m,1,1.287,,,,,,,,0,57,57,33,1,
,,,,,,,,,,,,,,,,,199237,,2022-01-28_16h34.51.164,lexical_decision_task_DD_L6,2021.2.3,MacIntel,59.97361161,,,,,,,,,,,,1.1348,0,,,,,,,,,,,,,,,,,,,,,,,,0.00907074,-0.402502975,0,0,0,,,,,,,KIDNEY,LB,z,y,./images/KIDNEYLB.png,,,,,,,m,0,1.1348,,,,,,,,0,58,58,105,1,
,,,,,,,,,,,,,,,,,199237,,2022-01-28_16h34.51.164,lexical_decision_task_DD_L6,2021.2.3,MacIntel,59.97361161,,,,,,,,,,,,0.6179,1,,,,,,,,,,,,,,,,,,,,,,,,0.00907074,-0.402502975,0,0,0,,,,,,,MUMMY,C,m,y,./images/MUMMY.png,,,,,,,m,1,0.6179,,,,,,,,0,59,59,46,1,
,,,,,,,,,,,,,,,,,199237,,2022-01-28_16h34.51.164,lexical_decision_task_DD_L6,2021.2.3,MacIntel,59.97361161,,,,,,,,,,,,1.3705,1,,,,,,,,,,,,,,,,,,,,,,,,0.00907074,-0.402502975,0,0,0,,,,,,,FARMER,HB,z,y,./images/FARMERHB.png,,,,,,,z,1,1.3705,,,,,,,,0,60,60,149,1,
,,,,,,,,,,,,,,,,,199237,,2022-01-28_16h34.51.164,lexical_decision_task_DD_L6,2021.2.3,MacIntel,59.97361161,,,,,,,,,,,,0.6003,1,,,,,,,,,,,,,,,,,,,,,,,,0.00907074,-0.402502975,0,0,0,,,,,,,DONKEY,C,m,y,./images/DONKEY.png,,,,,,,m,1,0.6003,,,,,,,,0,61,61,19,1,
,,,,,,,,,,,,,,,,,199237,,2022-01-28_16h34.51.164,lexical_decision_task_DD_L6,2021.2.3,MacIntel,59.97361161,,,,,,,,,,,,0.7211,1,,,,,,,,,,,,,,,,,,,,,,,,0.00907074,-0.402502975,0,0,0,,,,,,,DRUMS,C,z,y,./images/DRUMS.png,,,,,,,z,1,0.7211,,,,,,,,0,62,62,133,1,
,,,,,,,,,,,,,,,,,199237,,2022-01-28_16h34.51.164,lexical_decision_task_DD_L6,2021.2.3,MacIntel,59.97361161,,,,,,,,,,,,2.7171,1,,,,,,,,,,,,,,,,,,,,,,,,0.00907074,-0.402502975,0,0,0,,,,,,,CANDLE,C,z,y,./images/CANDLE.png,,,,,,,z,1,2.7171,,,,,,,,0,63,63,145,1,
,,,,,,,,,,,,,,,,,199237,,2022-01-28_16h34.51.164,lexical_decision_task_DD_L6,2021.2.3,MacIntel,59.97361161,,,,,,,,,,,,1.0482,0,,,,,,,,,,,,,,,,,,,,,,,,0.00907074,-0.402502975,0,0,0,,,,,,,PAINT,C,z,y,./images/PAINT.png,,,,,,,m,0,1.0482,,,,,,,,0,64,64,91,1,
,,,,,,,,,,,,,,,,,199237,,2022-01-28_16h34.51.164,lexical_decision_task_DD_L6,2021.2.3,MacIntel,59.97361161,,,,,,,,,,,,0.7339,1,,,,,,,,,,,,,,,,,,,,,,,,0.00907074,-0.402502975,0,0,0,,,,,,,CASINO,C,m,y,./images/CASINO.png,,,,,,,m,1,0.7339,,,,,,,,0,65,65,28,1,
,,,,,,,,,,,,,,,,,199237,,2022-01-28_16h34.51.164,lexical_decision_task_DD_L6,2021.2.3,MacIntel,59.97361161,,,,,,,,,,,,0.7785,1,,,,,,,,,,,,,,,,,,,,,,,,0.00907074,-0.402502975,0,0,0,,,,,,,MIDGET,C,m,y,./images/MIDGET.png,,,,,,,m,1,0.7785,,,,,,,,0,66,66,76,1,
,,,,,,,,,,,,,,,,,199237,,2022-01-28_16h34.51.164,lexical_decision_task_DD_L6,2021.2.3,MacIntel,59.97361161,,,,,,,,,,,,0.9984,1,,,,,,,,,,,,,,,,,,,,,,,,0.00907074,-0.402502975,0,0,0,,,,,,,STORM,LB,z,y,./images/STORMLB.png,,,,,,,z,1,0.9984,,,,,,,,0,67,67,114,1,
,,,,,,,,,,,,,,,,,199237,,2022-01-28_16h34.51.164,lexical_decision_task_DD_L6,2021.2.3,MacIntel,59.97361161,,,,,,,,,,,,0.7474,1,,,,,,,,,,,,,,,,,,,,,,,,0.00907074,-0.402502975,0,0,0,,,,,,,CHALK,C,m,y,./images/CHALK.png,,,,,,,m,1,0.7474,,,,,,,,0,68,68,25,1,
,,,,,,,,,,,,,,,,,199237,,2022-01-28_16h34.51.164,lexical_decision_task_DD_L6,2021.2.3,MacIntel,59.97361161,,,,,,,,,,,,1.1171,0,,,,,,,,,,,,,,,,,,,,,,,,0.00907074,-0.402502975,0,0,0,,,,,,,MIRROR,LB,z,y,./images/MIRRORLB.png,,,,,,,m,0,1.1171,,,,,,,,0,69,69,147,1,
,,,,,,,,,,,,,,,,,199237,,2022-01-28_16h34.51.164,lexical_decision_task_DD_L6,2021.2.3,MacIntel,59.97361161,,,,,,,,,,,,1.2887,1,,,,,,,,,,,,,,,,,,,,,,,,0.00907074,-0.402502975,0,0,0,,,,,,,GLOVE,C,m,y,./images/GLOVE.png,,,,,,,m,1,1.2887,,,,,,,,0,70,70,73,1,
,,,,,,,,,,,,,,,,,199237,,2022-01-28_16h34.51.164,lexical_decision_task_DD_L6,2021.2.3,MacIntel,59.97361161,,,,,,,,,,,,0.9182,1,,,,,,,,,,,,,,,,,,,,,,,,0.00907074,-0.402502975,0,0,0,,,,,,,PIMPLE,HB,z,y,./images/PIMPLEHB.png,,,,,,,z,1,0.9182,,,,,,,,0,71,71,155,1,
,,,,,,,,,,,,,,,,,199237,,2022-01-28_16h34.51.164,lexical_decision_task_DD_L6,2021.2.3,MacIntel,59.97361161,,,,,,,,,,,,1.0549,0,,,,,,,,,,,,,,,,,,,,,,,,0.00907074,-0.402502975,0,0,0,,,,,,,DOUGH,C,z,y,./images/DOUGH.png,,,,,,,m,0,1.0549,,,,,,,,0,72,72,103,1,
,,,,,,,,,,,,,,,,,199237,,2022-01-28_16h34.51.164,lexical_decision_task_DD_L6,2021.2.3,MacIntel,59.97361161,,,,,,,,,,,,0.6686,1,,,,,,,,,,,,,,,,,,,,,,,,0.00907074,-0.402502975,0,0,0,,,,,,,FERRY,LB,m,y,./images/FERRYLB.png,,,,,,,m,1,0.6686,,,,,,,,0,73,73,57,1,
,,,,,,,,,,,,,,,,,199237,,2022-01-28_16h34.51.164,lexical_decision_task_DD_L6,2021.2.3,MacIntel,59.97361161,,,,,,,,,,,,0.649,1,,,,,,,,,,,,,,,,,,,,,,,,0.00907074,-0.402502975,0,0,0,,,,,,,DESERT,C,m,y,./images/DESERT.png,,,,,,,m,1,0.649,,,,,,,,0,74,74,52,1,
,,,,,,,,,,,,,,,,,199237,,2022-01-28_16h34.51.164,lexical_decision_task_DD_L6,2021.2.3,MacIntel,59.97361161,,,,,,,,,,,,0.9313,1,,,,,,,,,,,,,,,,,,,,,,,,0.00907074,-0.402502975,0,0,0,,,,,,,WEASEL,HB,z,y,./images/WEASELHB.png,,,,,,,z,1,0.9313,,,,,,,,0,75,75,164,1,
,,,,,,,,,,,,,,,,,199237,,2022-01-28_16h34.51.164,lexical_decision_task_DD_L6,2021.2.3,MacIntel,59.97361161,,,,,,,,,,,,0.6495,1,,,,,,,,,,,,,,,,,,,,,,,,0.00907074,-0.402502975,0,0,0,,,,,,,FLASK,LB,m,y,./images/FLASKLB.png,,,,,,,m,1,0.6495,,,,,,,,0,76,76,72,1,
,,,,,,,,,,,,,,,,,199237,,2022-01-28_16h34.51.164,lexical_decision_task_DD_L6,2021.2.3,MacIntel,59.97361161,,,,,,,,,,,,0.6666,1,,,,,,,,,,,,,,,,,,,,,,,,0.00907074,-0.402502975,0,0,0,,,,,,,BAKER,LB,m,y,./images/BAKERLB.png,,,,,,,m,1,0.6666,,,,,,,,0,77,77,63,1,
,,,,,,,,,,,,,,,,,199237,,2022-01-28_16h34.51.164,lexical_decision_task_DD_L6,2021.2.3,MacIntel,59.97361161,,,,,,,,,,,,0.7012,1,,,,,,,,,,,,,,,,,,,,,,,,0.00907074,-0.402502975,0,0,0,,,,,,,RULER,C,m,y,./images/RULER.png,,,,,,,m,1,0.7012,,,,,,,,0,78,78,79,1,
,,,,,,,,,,,,,,,,,199237,,2022-01-28_16h34.51.164,lexical_decision_task_DD_L6,2021.2.3,MacIntel,59.97361161,,,,,,,,,,,,0.749,1,,,,,,,,,,,,,,,,,,,,,,,,0.00907074,-0.402502975,0,0,0,,,,,,,FLESH,LB,m,y,./images/FLESHLB.png,,,,,,,m,1,0.749,,,,,,,,0,79,79,24,1,
,,,,,,,,,,,,,,,,,199237,,2022-01-28_16h34.51.164,lexical_decision_task_DD_L6,2021.2.3,MacIntel,59.97361161,,,,,,,,,,,,0.6975,1,,,,,,,,,,,,,,,,,,,,,,,,0.00907074,-0.402502975,0,0,0,,,,,,,DIVER,LB,m,y,./images/DIVERLB.png,,,,,,,m,1,0.6975,,,,,,,,0,80,80,9,1,
,,,,,,,,,,,,,,,,,199237,,2022-01-28_16h34.51.164,lexical_decision_task_DD_L6,2021.2.3,MacIntel,59.97361161,,,,,,,,,,,,0.7663,1,,,,,,,,,,,,,,,,,,,,,,,,0.00907074,-0.402502975,0,0,0,,,,,,,FENCE,HB,m,y,./images/FENCEHB.png,,,,,,,m,1,0.7663,,,,,,,,0,81,81,14,1,
,,,,,,,,,,,,,,,,,199237,,2022-01-28_16h34.51.164,lexical_decision_task_DD_L6,2021.2.3,MacIntel,59.97361161,,,,,,,,,,,,1.3346,1,,,,,,,,,,,,,,,,,,,,,,,,0.00907074,-0.402502975,0,0,0,,,,,,,JELLY,C,z,y,./images/JELLY.png,,,,,,,z,1,1.3346,,,,,,,,0,82,82,148,1,
,,,,,,,,,,,,,,,,,199237,,2022-01-28_16h34.51.164,lexical_decision_task_DD_L6,2021.2.3,MacIntel,59.97361161,,,,,,,,,,,,1.3515,1,,,,,,,,,,,,,,,,,,,,,,,,0.00907074,-0.402502975,0,0,0,space,,,,,,SHELF,LB,z,y,./images/SHELFLB.png,8.5453,,,,,,z,1,1.3515,,,,,,,,0,83,83,123,1,
,,,,,,,,,,,,,,,,,199237,,2022-01-28_16h34.51.164,lexical_decision_task_DD_L6,2021.2.3,MacIntel,59.97361161,,,,,,,,,,,,0.8333,1,,,,,,,,,,,,,,,,,,,,,,,,0.00907074,-0.402502975,0,0,0,,,,,,,MAGGOT,LB,z,y,./images/MAGGOTLB.png,,,,,,,z,1,0.8333,,,,,,,,0,84,84,117,1,
,,,,,,,,,,,,,,,,,199237,,2022-01-28_16h34.51.164,lexical_decision_task_DD_L6,2021.2.3,MacIntel,59.97361161,,,,,,,,,,,,0.6845,1,,,,,,,,,,,,,,,,,,,,,,,,0.00907074,-0.402502975,0,0,0,,,,,,,TRIPOD,LB,z,y,./images/TRIPODLB.png,,,,,,,z,1,0.6845,,,,,,,,0,85,85,138,1,
,,,,,,,,,,,,,,,,,199237,,2022-01-28_16h34.51.164,lexical_decision_task_DD_L6,2021.2.3,MacIntel,59.97361161,,,,,,,,,,,,0.6838,1,,,,,,,,,,,,,,,,,,,,,,,,0.00907074,-0.402502975,0,0,0,,,,,,,RHINO,LB,z,y,./images/RHINOLB.png,,,,,,,z,1,0.6838,,,,,,,,0,86,86,93,1,
,,,,,,,,,,,,,,,,,199237,,2022-01-28_16h34.51.164,lexical_decision_task_DD_L6,2021.2.3,MacIntel,59.97361161,,,,,,,,,,,,0.9505,0,,,,,,,,,,,,,,,,,,,,,,,,0.00907074,-0.402502975,0,0,0,,,,,,,BRUSH,HB,m,y,./images/BRUSHHB.png,,,,,,,z,0,0.9505,,,,,,,,0,87,87,59,1,
,,,,,,,,,,,,,,,,,199237,,2022-01-28_16h34.51.164,lexical_decision_task_DD_L6,2021.2.3,MacIntel,59.97361161,,,,,,,,,,,,0.7335,1,,,,,,,,,,,,,,,,,,,,,,,,0.00907074,-0.402502975,0,0,0,,,,,,,SNACK,C,z,y,./images/SNACK.png,,,,,,,z,1,0.7335,,,,,,,,0,88,88,157,1,
,,,,,,,,,,,,,,,,,199237,,2022-01-28_16h34.51.164,lexical_decision_task_DD_L6,2021.2.3,MacIntel,59.97361161,,,,,,,,,,,,0.769,1,,,,,,,,,,,,,,,,,,,,,,,,0.00907074,-0.402502975,0,0,0,,,,,,,PACKET,HB,z,y,./images/PACKETHB.png,,,,,,,z,1,0.769,,,,,,,,0,89,89,140,1,
,,,,,,,,,,,,,,,,,199237,,2022-01-28_16h34.51.164,lexical_decision_task_DD_L6,2021.2.3,MacIntel,59.97361161,,,,,,,,,,,,0.6837,0,,,,,,,,,,,,,,,,,,,,,,,,0.00907074,-0.402502975,0,0,0,,,,,,,PLANK,C,z,y,./images/PLANK.png,,,,,,,m,0,0.6837,,,,,,,,0,90,90,85,1,
,,,,,,,,,,,,,,,,,199237,,2022-01-28_16h34.51.164,lexical_decision_task_DD_L6,2021.2.3,MacIntel,59.97361161,,,,,,,,,,,,0.7329,1,,,,,,,,,,,,,,,,,,,,,,,,0.00907074,-0.402502975,0,0,0,,,,,,,CANOE,C,m,y,./images/CANOE.png,,,,,,,m,1,0.7329,,,,,,,,0,91,91,58,1,
,,,,,,,,,,,,,,,,,199237,,2022-01-28_16h34.51.164,lexical_decision_task_DD_L6,2021.2.3,MacIntel,59.97361161,,,,,,,,,,,,0.6174,1,,,,,,,,,,,,,,,,,,,,,,,,0.00907074,-0.402502975,0,0,0,,,,,,,ARTIST,C,m,y,./images/ARTIST.png,,,,,,,m,1,0.6174,,,,,,,,0,92,92,61,1,
,,,,,,,,,,,,,,,,,199237,,2022-01-28_16h34.51.164,lexical_decision_task_DD_L6,2021.2.3,MacIntel,59.97361161,,,,,,,,,,,,0.9683,1,,,,,,,,,,,,,,,,,,,,,,,,0.00907074,-0.402502975,0,0,0,,,,,,,TORCH,HB,z,y,./images/TORCHHB.png,,,,,,,z,1,0.9683,,,,,,,,0,93,93,152,1,
,,,,,,,,,,,,,,,,,199237,,2022-01-28_16h34.51.164,lexical_decision_task_DD_L6,2021.2.3,MacIntel,59.97361161,,,,,,,,,,,,0.648,1,,,,,,,,,,,,,,,,,,,,,,,,0.00907074,-0.402502975,0,0,0,,,,,,,PARCEL,LB,m,y,./images/PARCELLB.png,,,,,,,m,1,0.648,,,,,,,,0,94,94,18,1,
,,,,,,,,,,,,,,,,,199237,,2022-01-28_16h34.51.164,lexical_decision_task_DD_L6,2021.2.3,MacIntel,59.97361161,,,,,,,,,,,,0.7647,1,,,,,,,,,,,,,,,,,,,,,,,,0.00907074,-0.402502975,0,0,0,,,,,,,CLOWN,C,m,y,./images/CLOWN.png,,,,,,,m,1,0.7647,,,,,,,,0,95,95,22,1,
,,,,,,,,,,,,,,,,,199237,,2022-01-28_16h34.51.164,lexical_decision_task_DD_L6,2021.2.3,MacIntel,59.97361161,,,,,,,,,,,,1.0506,0,,,,,,,,,,,,,,,,,,,,,,,,0.00907074,-0.402502975,0,0,0,,,,,,,MOTOR,C,z,y,./images/MOTOR.png,,,,,,,m,0,1.0506,,,,,,,,0,96,96,97,1,
,,,,,,,,,,,,,,,,,199237,,2022-01-28_16h34.51.164,lexical_decision_task_DD_L6,2021.2.3,MacIntel,59.97361161,,,,,,,,,,,,1.2675,1,,,,,,,,,,,,,,,,,,,,,,,,0.00907074,-0.402502975,0,0,0,,,,,,,PASTA,HB,z,y,./images/PASTAHB.png,,,,,,,z,1,1.2675,,,,,,,,0,97,97,89,1,
,,,,,,,,,,,,,,,,,199237,,2022-01-28_16h34.51.164,lexical_decision_task_DD_L6,2021.2.3,MacIntel,59.97361161,,,,,,,,,,,,0.9002,1,,,,,,,,,,,,,,,,,,,,,,,,0.00907074,-0.402502975,0,0,0,,,,,,,LADDER,HB,z,y,./images/LADDERHB.png,,,,,,,z,1,0.9002,,,,,,,,0,98,98,122,1,
,,,,,,,,,,,,,,,,,199237,,2022-01-28_16h34.51.164,lexical_decision_task_DD_L6,2021.2.3,MacIntel,59.97361161,,,,,,,,,,,,1.7168,0,,,,,,,,,,,,,,,,,,,,,,,,0.00907074,-0.402502975,0,0,0,,,,,,,SWEAT,LB,z,y,./images/SWEATLB.png,,,,,,,m,0,1.7168,,,,,,,,0,99,99,150,1,
,,,,,,,,,,,,,,,,,199237,,2022-01-28_16h34.51.164,lexical_decision_task_DD_L6,2021.2.3,MacIntel,59.97361161,,,,,,,,,,,,0.7019,1,,,,,,,,,,,,,,,,,,,,,,,,0.00907074,-0.402502975,0,0,0,,,,,,,BRIDE,C,m,y,./images/BRIDE.png,,,,,,,m,1,0.7019,,,,,,,,0,100,100,64,1,
,,,,,,,,,,,,,,,,,199237,,2022-01-28_16h34.51.164,lexical_decision_task_DD_L6,2021.2.3,MacIntel,59.97361161,,,,,,,,,,,,1.0124,1,,,,,,,,,,,,,,,,,,,,,,,,0.00907074,-0.402502975,0,0,0,,,,,,,INFANT,C,z,y,./images/INFANT.png,,,,,,,z,1,1.0124,,,,,,,,0,101,101,160,1,
,,,,,,,,,,,,,,,,,199237,,2022-01-28_16h34.51.164,lexical_decision_task_DD_L6,2021.2.3,MacIntel,59.97361161,,,,,,,,,,,,0.6966,1,,,,,,,,,,,,,,,,,,,,,,,,0.00907074,-0.402502975,0,0,0,,,,,,,HOCKEY,HB,m,y,./images/HOCKEYHB.png,,,,,,,m,1,0.6966,,,,,,,,0,102,102,32,1,
,,,,,,,,,,,,,,,,,199237,,2022-01-28_16h34.51.164,lexical_decision_task_DD_L6,2021.2.3,MacIntel,59.97361161,,,,,,,,,,,,0.9835,1,,,,,,,,,,,,,,,,,,,,,,,,0.00907074,-0.402502975,0,0,0,,,,,,,STOOL,C,m,y,./images/STOOL.png,,,,,,,m,1,0.9835,,,,,,,,0,103,103,43,1,
,,,,,,,,,,,,,,,,,199237,,2022-01-28_16h34.51.164,lexical_decision_task_DD_L6,2021.2.3,MacIntel,59.97361161,,,,,,,,,,,,0.684,0,,,,,,,,,,,,,,,,,,,,,,,,0.00907074,-0.402502975,0,0,0,,,,,,,PEACH,HB,z,y,./images/PEACHHB.png,,,,,,,m,0,0.684,,,,,,,,0,104,104,119,1,
,,,,,,,,,,,,,,,,,199237,,2022-01-28_16h34.51.164,lexical_decision_task_DD_L6,2021.2.3,MacIntel,59.97361161,,,,,,,,,,,,0.7833,1,,,,,,,,,,,,,,,,,,,,,,,,0.00907074,-0.402502975,0,0,0,,,,,,,SPINE,HB,m,y,./images/SPINEHB.png,,,,,,,m,1,0.7833,,,,,,,,0,105,105,65,1,
,,,,,,,,,,,,,,,,,199237,,2022-01-28_16h34.51.164,lexical_decision_task_DD_L6,2021.2.3,MacIntel,59.97361161,,,,,,,,,,,,1.3177,0,,,,,,,,,,,,,,,,,,,,,,,,0.00907074,-0.402502975,0,0,0,,,,,,,CANYON,C,z,y,./images/CANYON.png,,,,,,,m,0,1.3177,,,,,,,,0,106,106,118,1,
,,,,,,,,,,,,,,,,,199237,,2022-01-28_16h34.51.164,lexical_decision_task_DD_L6,2021.2.3,MacIntel,59.97361161,,,,,,,,,,,,0.7158,1,,,,,,,,,,,,,,,,,,,,,,,,0.00907074,-0.402502975,0,0,0,,,,,,,WALRUS,HB,z,y,./images/WALRUSHB.png,,,,,,,z,1,0.7158,,,,,,,,0,107,107,107,1,
,,,,,,,,,,,,,,,,,199237,,2022-01-28_16h34.51.164,lexical_decision_task_DD_L6,2021.2.3,MacIntel,59.97361161,,,,,,,,,,,,1.1689,1,,,,,,,,,,,,,,,,,,,,,,,,0.00907074,-0.402502975,0,0,0,,,,,,,VALLEY,HB,m,y,./images/VALLEYHB.png,,,,,,,m,1,1.1689,,,,,,,,0,108,108,68,1,
,,,,,,,,,,,,,,,,,199237,,2022-01-28_16h34.51.164,lexical_decision_task_DD_L6,2021.2.3,MacIntel,59.97361161,,,,,,,,,,,,0.7465,1,,,,,,,,,,,,,,,,,,,,,,,,0.00907074,-0.402502975,0,0,0,,,,,,,LIZARD,HB,z,y,./images/LIZARDHB.png,,,,,,,z,1,0.7465,,,,,,,,0,109,109,128,1,
,,,,,,,,,,,,,,,,,199237,,2022-01-28_16h34.51.164,lexical_decision_task_DD_L6,2021.2.3,MacIntel,59.97361161,,,,,,,,,,,,0.8525,1,,,,,,,,,,,,,,,,,,,,,,,,0.00907074,-0.402502975,0,0,0,,,,,,,BROOM,LB,m,y,./images/BROOMLB.png,,,,,,,m,1,0.8525,,,,,,,,0,110,110,78,1,
,,,,,,,,,,,,,,,,,199237,,2022-01-28_16h34.51.164,lexical_decision_task_DD_L6,2021.2.3,MacIntel,59.97361161,,,,,,,,,,,,1.4689,0,,,,,,,,,,,,,,,,,,,,,,,,0.00907074,-0.402502975,0,0,0,,,,,,,URINE,C,z,y,./images/URINE.png,,,,,,,m,0,1.4689,,,,,,,,0,111,111,154,1,
,,,,,,,,,,,,,,,,,199237,,2022-01-28_16h34.51.164,lexical_decision_task_DD_L6,2021.2.3,MacIntel,59.97361161,,,,,,,,,,,,1.1357,1,,,,,,,,,,,,,,,,,,,,,,,,0.00907074,-0.402502975,0,0,0,,,,,,,STOVE,HB,m,y,./images/STOVEHB.png,,,,,,,m,1,1.1357,,,,,,,,0,112,112,2,1,
,,,,,,,,,,,,,,,,,199237,,2022-01-28_16h34.51.164,lexical_decision_task_DD_L6,2021.2.3,MacIntel,59.97361161,,,,,,,,,,,,1.1542,1,,,,,,,,,,,,,,,,,,,,,,,,0.00907074,-0.402502975,0,0,0,,,,,,,BUTTER,LB,m,y,./images/BUTTERLB.png,,,,,,,m,1,1.1542,,,,,,,,0,113,113,27,1,
,,,,,,,,,,,,,,,,,199237,,2022-01-28_16h34.51.164,lexical_decision_task_DD_L6,2021.2.3,MacIntel,59.97361161,,,,,,,,,,,,0.9844,1,,,,,,,,,,,,,,,,,,,,,,,,0.00907074,-0.402502975,0,0,0,,,,,,,GRANNY,HB,m,y,./images/GRANNYHB.png,,,,,,,m,1,0.9844,,,,,,,,0,114,114,20,1,
,,,,,,,,,,,,,,,,,199237,,2022-01-28_16h34.51.164,lexical_decision_task_DD_L6,2021.2.3,MacIntel,59.97361161,,,,,,,,,,,,1.2156,1,,,,,,,,,,,,,,,,,,,,,,,,0.00907074,-0.402502975,0,0,0,,,,,,,PEBBLE,C,m,y,./images/PEBBLE.png,,,,,,,m,1,1.2156,,,,,,,,0,115,115,82,1,
,,,,,,,,,,,,,,,,,199237,,2022-01-28_16h34.51.164,lexical_decision_task_DD_L6,2021.2.3,MacIntel,59.97361161,,,,,,,,,,,,1.0019,1,,,,,,,,,,,,,,,,,,,,,,,,0.00907074,-0.402502975,0,0,0,,,,,,,BANNER,C,z,y,./images/BANNER.png,,,,,,,z,1,1.0019,,,,,,,,0,116,116,136,1,
,,,,,,,,,,,,,,,,,199237,,2022-01-28_16h34.51.164,lexical_decision_task_DD_L6,2021.2.3,MacIntel,59.97361161,,,,,,,,,,,,0.6509,1,,,,,,,,,,,,,,,,,,,,,,,,0.00907074,-0.402502975,0,0,0,,,,,,,MONKEY,LB,m,y,./images/MONKEYLB.png,,,,,,,m,1,0.6509,,,,,,,,0,117,117,45,1,
,,,,,,,,,,,,,,,,,199237,,2022-01-28_16h34.51.164,lexical_decision_task_DD_L6,2021.2.3,MacIntel,59.97361161,,,,,,,,,,,,0.6841,1,,,,,,,,,,,,,,,,,,,,,,,,0.00907074,-0.402502975,0,0,0,,,,,,,COOKER,LB,z,y,./images/COOKERLB.png,,,,,,,z,1,0.6841,,,,,,,,0,118,118,153,1,
,,,,,,,,,,,,,,,,,199237,,2022-01-28_16h34.51.164,lexical_decision_task_DD_L6,2021.2.3,MacIntel,59.97361161,,,,,,,,,,,,1.0488,1,,,,,,,,,,,,,,,,,,,,,,,,0.00907074,-0.402502975,0,0,0,,,,,,,SHIELD,LB,m,y,./images/SHIELDLB.png,,,,,,,m,1,1.0488,,,,,,,,0,119,119,48,1,
,,,,,,,,,,,,,,,,,199237,,2022-01-28_16h34.51.164,lexical_decision_task_DD_L6,2021.2.3,MacIntel,59.97361161,,,,,,,,,,,,1.2669,1,,,,,,,,,,,,,,,,,,,,,,,,0.00907074,-0.402502975,0,0,0,,,,,,,SWING,C,z,y,./images/SWING.png,,,,,,,z,1,1.2669,,,,,,,,0,120,120,124,1,
,,,,,,,,,,,,,,,,,199237,,2022-01-28_16h34.51.164,lexical_decision_task_DD_L6,2021.2.3,MacIntel,59.97361161,,,,,,,,,,,,1.001,1,,,,,,,,,,,,,,,,,,,,,,,,0.00907074,-0.402502975,0,0,0,,,,,,,SAILOR,C,z,y,./images/SAILOR.png,,,,,,,z,1,1.001,,,,,,,,0,121,121,151,1,
,,,,,,,,,,,,,,,,,199237,,2022-01-28_16h34.51.164,lexical_decision_task_DD_L6,2021.2.3,MacIntel,59.97361161,,,,,,,,,,,,0.6332,1,,,,,,,,,,,,,,,,,,,,,,,,0.00907074,-0.402502975,0,0,0,,,,,,,JUMPER,HB,m,y,./images/JUMPERHB.png,,,,,,,m,1,0.6332,,,,,,,,0,122,122,74,1,
,,,,,,,,,,,,,,,,,199237,,2022-01-28_16h34.51.164,lexical_decision_task_DD_L6,2021.2.3,MacIntel,59.97361161,,,,,,,,,,,,0.8546,1,,,,,,,,,,,,,,,,,,,,,,,,0.00907074,-0.402502975,0,0,0,,,,,,,LLAMA,HB,m,y,./images/LLAMAHB.png,,,,,,,m,1,0.8546,,,,,,,,0,123,123,35,1,
,,,,,,,,,,,,,,,,,199237,,2022-01-28_16h34.51.164,lexical_decision_task_DD_L6,2021.2.3,MacIntel,59.97361161,,,,,,,,,,,,0.6631,0,,,,,,,,,,,,,,,,,,,,,,,,0.00907074,-0.402502975,0,0,0,,,,,,,JUNGLE,HB,z,y,./images/JUNGLEHB.png,,,,,,,m,0,0.6631,,,,,,,,0,124,124,167,1,
,,,,,,,,,,,,,,,,,199237,,2022-01-28_16h34.51.164,lexical_decision_task_DD_L6,2021.2.3,MacIntel,59.97361161,,,,,,,,,,,,0.6846,1,,,,,,,,,,,,,,,,,,,,,,,,0.00907074,-0.402502975,0,0,0,space,,,,,,STATUE,LB,m,y,./images/STATUELB.png,0.8885,,,,,,m,1,0.6846,,,,,,,,0,125,125,66,1,
,,,,,,,,,,,,,,,,,199237,,2022-01-28_16h34.51.164,lexical_decision_task_DD_L6,2021.2.3,MacIntel,59.97361161,,,,,,,,,,,,1.0969,1,,,,,,,,,,,,,,,,,,,,,,,,0.00907074,-0.402502975,0,0,0,,,,,,,DANCER,LB,m,y,./images/DANCERLB.png,,,,,,,m,1,1.0969,,,,,,,,0,126,126,21,1,
,,,,,,,,,,,,,,,,,199237,,2022-01-28_16h34.51.164,lexical_decision_task_DD_L6,2021.2.3,MacIntel,59.97361161,,,,,,,,,,,,0.7942,0,,,,,,,,,,,,,,,,,,,,,,,,0.00907074,-0.402502975,0,0,0,,,,,,,LITTER,LB,z,y,./images/LITTERLB.png,,,,,,,m,0,0.7942,,,,,,,,0,127,127,162,1,
,,,,,,,,,,,,,,,,,199237,,2022-01-28_16h34.51.164,lexical_decision_task_DD_L6,2021.2.3,MacIntel,59.97361161,,,,,,,,,,,,0.6169,1,,,,,,,,,,,,,,,,,,,,,,,,0.00907074,-0.402502975,0,0,0,,,,,,,CHAIN,LB,m,y,./images/CHAINLB.png,,,,,,,m,1,0.6169,,,,,,,,0,128,128,42,1,
,,,,,,,,,,,,,,,,,199237,,2022-01-28_16h34.51.164,lexical_decision_task_DD_L6,2021.2.3,MacIntel,59.97361161,,,,,,,,,,,,1.5842,1,,,,,,,,,,,,,,,,,,,,,,,,0.00907074,-0.402502975,0,0,0,,,,,,,MOOSE,LB,z,y,./images/MOOSELB.png,,,,,,,z,1,1.5842,,,,,,,,0,129,129,141,1,
,,,,,,,,,,,,,,,,,199237,,2022-01-28_16h34.51.164,lexical_decision_task_DD_L6,2021.2.3,MacIntel,59.97361161,,,,,,,,,,,,0.785,0,,,,,,,,,,,,,,,,,,,,,,,,0.00907074,-0.402502975,0,0,0,,,,,,,BOILER,LB,m,y,./images/BOILERLB.png,,,,,,,z,0,0.785,,,,,,,,0,130,130,36,1,
,,,,,,,,,,,,,,,,,199237,,2022-01-28_16h34.51.164,lexical_decision_task_DD_L6,2021.2.3,MacIntel,59.97361161,,,,,,,,,,,,1.3514,1,,,,,,,,,,,,,,,,,,,,,,,,0.00907074,-0.402502975,0,0,0,,,,,,,PURSE,HB,z,y,./images/PURSEHB.png,,,,,,,z,1,1.3514,,,,,,,,0,131,131,146,1,
,,,,,,,,,,,,,,,,,199237,,2022-01-28_16h34.51.164,lexical_decision_task_DD_L6,2021.2.3,MacIntel,59.97361161,,,,,,,,,,,,0.721,1,,,,,,,,,,,,,,,,,,,,,,,,0.00907074,-0.402502975,0,0,0,,,,,,,POKER,C,m,y,./images/POKER.png,,,,,,,m,1,0.721,,,,,,,,0,132,132,67,1,
,,,,,,,,,,,,,,,,,199237,,2022-01-28_16h34.51.164,lexical_decision_task_DD_L6,2021.2.3,MacIntel,59.97361161,,,,,,,,,,,,0.9857,1,,,,,,,,,,,,,,,,,,,,,,,,0.00907074,-0.402502975,0,0,0,,,,,,,STEAK,C,m,y,./images/STEAK.png,,,,,,,m,1,0.9857,,,,,,,,0,133,133,31,1,
,,,,,,,,,,,,,,,,,199237,,2022-01-28_16h34.51.164,lexical_decision_task_DD_L6,2021.2.3,MacIntel,59.97361161,,,,,,,,,,,,0.6975,1,,,,,,,,,,,,,,,,,,,,,,,,0.00907074,-0.402502975,0,0,0,,,,,,,QUILL,C,z,y,./images/QUILL.png,,,,,,,z,1,0.6975,,,,,,,,0,134,134,115,1,
,,,,,,,,,,,,,,,,,199237,,2022-01-28_16h34.51.164,lexical_decision_task_DD_L6,2021.2.3,MacIntel,59.97361161,,,,,,,,,,,,1.4826,1,,,,,,,,,,,,,,,,,,,,,,,,0.00907074,-0.402502975,0,0,0,,,,,,,NOOSE,LB,z,y,./images/NOOSELB.png,,,,,,,z,1,1.4826,,,,,,,,0,135,135,156,1,
,,,,,,,,,,,,,,,,,199237,,2022-01-28_16h34.51.164,lexical_decision_task_DD_L6,2021.2.3,MacIntel,59.97361161,,,,,,,,,,,,0.8165,1,,,,,,,,,,,,,,,,,,,,,,,,0.00907074,-0.402502975,0,0,0,,,,,,,MOSQUE,C,z,y,./images/MOSQUE.png,,,,,,,z,1,0.8165,,,,,,,,0,136,136,127,1,
,,,,,,,,,,,,,,,,,199237,,2022-01-28_16h34.51.164,lexical_decision_task_DD_L6,2021.2.3,MacIntel,59.97361161,,,,,,,,,,,,0.6835,1,,,,,,,,,,,,,,,,,,,,,,,,0.00907074,-0.402502975,0,0,0,,,,,,,BELLY,C,z,y,./images/BELLY.png,,,,,,,z,1,0.6835,,,,,,,,0,137,137,94,1,
,,,,,,,,,,,,,,,,,199237,,2022-01-28_16h34.51.164,lexical_decision_task_DD_L6,2021.2.3,MacIntel,59.97361161,,,,,,,,,,,,0.8198,1,,,,,,,,,,,,,,,,,,,,,,,,0.00907074,-0.402502975,0,0,0,,,,,,,STAIN,LB,m,y,./images/STAINLB.png,,,,,,,m,1,0.8198,,,,,,,,0,138,138,6,1,
,,,,,,,,,,,,,,,,,199237,,2022-01-28_16h34.51.164,lexical_decision_task_DD_L6,2021.2.3,MacIntel,59.97361161,,,,,,,,,,,,0.8004,1,,,,,,,,,,,,,,,,,,,,,,,,0.00907074,-0.402502975,0,0,0,,,,,,,TULIP,HB,z,y,./images/TULIPHB.png,,,,,,,z,1,0.8004,,,,,,,,0,139,139,92,1,
,,,,,,,,,,,,,,,,,199237,,2022-01-28_16h34.51.164,lexical_decision_task_DD_L6,2021.2.3,MacIntel,59.97361161,,,,,,,,,,,,0.6842,1,,,,,,,,,,,,,,,,,,,,,,,,0.00907074,-0.402502975,0,0,0,,,,,,,GRAPE,C,m,y,./images/GRAPE.png,,,,,,,m,1,0.6842,,,,,,,,0,140,140,16,1,
,,,,,,,,,,,,,,,,,199237,,2022-01-28_16h34.51.164,lexical_decision_task_DD_L6,2021.2.3,MacIntel,59.97361161,,,,,,,,,,,,0.6502,1,,,,,,,,,,,,,,,,,,,,,,,,0.00907074,-0.402502975,0,0,0,,,,,,,TIGER,C,m,y,./images/TIGER.png,,,,,,,m,1,0.6502,,,,,,,,0,141,141,37,1,
,,,,,,,,,,,,,,,,,199237,,2022-01-28_16h34.51.164,lexical_decision_task_DD_L6,2021.2.3,MacIntel,59.97361161,,,,,,,,,,,,2.0207,0,,,,,,,,,,,,,,,,,,,,,,,,0.00907074,-0.402502975,0,0,0,,,,,,,TWINS,LB,z,y,./images/TWINSLB.png,,,,,,,m,0,2.0207,,,,,,,,0,142,142,144,1,
,,,,,,,,,,,,,,,,,199237,,2022-01-28_16h34.51.164,lexical_decision_task_DD_L6,2021.2.3,MacIntel,59.97361161,,,,,,,,,,,,1.0678,1,,,,,,,,,,,,,,,,,,,,,,,,0.00907074,-0.402502975,0,0,0,,,,,,,FALCON,C,z,y,./images/FALCON.png,,,,,,,z,1,1.0678,,,,,,,,0,143,143,112,1,
,,,,,,,,,,,,,,,,,199237,,2022-01-28_16h34.51.164,lexical_decision_task_DD_L6,2021.2.3,MacIntel,59.97361161,,,,,,,,,,,,0.6812,1,,,,,,,,,,,,,,,,,,,,,,,,0.00907074,-0.402502975,0,0,0,,,,,,,WALNUT,LB,m,y,./images/WALNUTLB.png,,,,,,,m,1,0.6812,,,,,,,,0,144,144,0,1,
,,,,,,,,,,,,,,,,,199237,,2022-01-28_16h34.51.164,lexical_decision_task_DD_L6,2021.2.3,MacIntel,59.97361161,,,,,,,,,,,,1.2998,1,,,,,,,,,,,,,,,,,,,,,,,,0.00907074,-0.402502975,0,0,0,,,,,,,PICKLE,HB,z,y,./images/PICKLEHB.png,,,,,,,z,1,1.2998,,,,,,,,0,145,145,98,1,
,,,,,,,,,,,,,,,,,199237,,2022-01-28_16h34.51.164,lexical_decision_task_DD_L6,2021.2.3,MacIntel,59.97361161,,,,,,,,,,,,1,1,,,,,,,,,,,,,,,,,,,,,,,,0.00907074,-0.402502975,0,0,0,,,,,,,SPORT,LB,z,y,./images/SPORTLB.png,,,,,,,z,1,1,,,,,,,,0,146,146,132,1,
,,,,,,,,,,,,,,,,,199237,,2022-01-28_16h34.51.164,lexical_decision_task_DD_L6,2021.2.3,MacIntel,59.97361161,,,,,,,,,,,,0.8199,1,,,,,,,,,,,,,,,,,,,,,,,,0.00907074,-0.402502975,0,0,0,,,,,,,CLIFF,HB,m,y,./images/CLIFFHB.png,,,,,,,m,1,0.8199,,,,,,,,0,147,147,8,1,
,,,,,,,,,,,,,,,,,199237,,2022-01-28_16h34.51.164,lexical_decision_task_DD_L6,2021.2.3,MacIntel,59.97361161,,,,,,,,,,,,1.3809,1,,,,,,,,,,,,,,,,,,,,,,,,0.00907074,-0.402502975,0,0,0,,,,,,,ONION,LB,z,y,./images/ONIONLB.png,,,,,,,z,1,1.3809,,,,,,,,0,148,148,135,1,
,,,,,,,,,,,,,,,,,199237,,2022-01-28_16h34.51.164,lexical_decision_task_DD_L6,2021.2.3,MacIntel,59.97361161,,,,,,,,,,,,1.2337,1,,,,,,,,,,,,,,,,,,,,,,,,0.00907074,-0.402502975,0,0,0,,,,,,,KITTEN,LB,z,y,./images/KITTENLB.png,,,,,,,z,1,1.2337,,,,,,,,0,149,149,129,1,
,,,,,,,,,,,,,,,,,199237,,2022-01-28_16h34.51.164,lexical_decision_task_DD_L6,2021.2.3,MacIntel,59.97361161,,,,,,,,,,,,0.7341,0,,,,,,,,,,,,,,,,,,,,,,,,0.00907074,-0.402502975,0,0,0,,,,,,,LAGOON,HB,m,y,./images/LAGOONHB.png,,,,,,,z,0,0.7341,,,,,,,,0,150,150,47,1,
,,,,,,,,,,,,,,,,,199237,,2022-01-28_16h34.51.164,lexical_decision_task_DD_L6,2021.2.3,MacIntel,59.97361161,,,,,,,,,,,,0.7842,1,,,,,,,,,,,,,,,,,,,,,,,,0.00907074,-0.402502975,0,0,0,,,,,,,COLLAR,LB,m,y,./images/COLLARLB.png,,,,,,,m,1,0.7842,,,,,,,,0,151,151,15,1,
,,,,,,,,,,,,,,,,,199237,,2022-01-28_16h34.51.164,lexical_decision_task_DD_L6,2021.2.3,MacIntel,59.97361161,,,,,,,,,,,,0.8706,1,,,,,,,,,,,,,,,,,,,,,,,,0.00907074,-0.402502975,0,0,0,,,,,,,HAMMER,LB,m,y,./images/HAMMERLB.png,,,,,,,m,1,0.8706,,,,,,,,0,152,152,75,1,
,,,,,,,,,,,,,,,,,199237,,2022-01-28_16h34.51.164,lexical_decision_task_DD_L6,2021.2.3,MacIntel,59.97361161,,,,,,,,,,,,0.7024,1,,,,,,,,,,,,,,,,,,,,,,,,0.00907074,-0.402502975,0,0,0,,,,,,,ATTIC,LB,z,y,./images/ATTICLB.png,,,,,,,z,1,0.7024,,,,,,,,0,153,153,111,1,
,,,,,,,,,,,,,,,,,199237,,2022-01-28_16h34.51.164,lexical_decision_task_DD_L6,2021.2.3,MacIntel,59.97361161,,,,,,,,,,,,1.1514,1,,,,,,,,,,,,,,,,,,,,,,,,0.00907074,-0.402502975,0,0,0,,,,,,,GREASE,LB,z,y,./images/GREASELB.png,,,,,,,z,1,1.1514,,,,,,,,0,154,154,99,1,
,,,,,,,,,,,,,,,,,199237,,2022-01-28_16h34.51.164,lexical_decision_task_DD_L6,2021.2.3,MacIntel,59.97361161,,,,,,,,,,,,0.8191,1,,,,,,,,,,,,,,,,,,,,,,,,0.00907074,-0.402502975,0,0,0,,,,,,,TOMATO,LB,z,y,./images/TOMATOLB.png,,,,,,,z,1,0.8191,,,,,,,,0,155,155,84,1,
,,,,,,,,,,,,,,,,,199237,,2022-01-28_16h34.51.164,lexical_decision_task_DD_L6,2021.2.3,MacIntel,59.97361161,,,,,,,,,,,,0.6124,1,,,,,,,,,,,,,,,,,,,,,,,,0.00907074,-0.402502975,0,0,0,,,,,,,SNAKE,C,m,y,./images/SNAKE.png,,,,,,,m,1,0.6124,,,,,,,,0,156,156,40,1,
,,,,,,,,,,,,,,,,,199237,,2022-01-28_16h34.51.164,lexical_decision_task_DD_L6,2021.2.3,MacIntel,59.97361161,,,,,,,,,,,,0.8489,1,,,,,,,,,,,,,,,,,,,,,,,,0.00907074,-0.402502975,0,0,0,,,,,,,ALLEY,C,m,y,./images/ALLEY.png,,,,,,,m,1,0.8489,,,,,,,,0,157,157,55,1,
,,,,,,,,,,,,,,,,,199237,,2022-01-28_16h34.51.164,lexical_decision_task_DD_L6,2021.2.3,MacIntel,59.97361161,,,,,,,,,,,,0.7841,1,,,,,,,,,,,,,,,,,,,,,,,,0.00907074,-0.402502975,0,0,0,,,,,,,BIRTH,C,z,y,./images/BIRTH.png,,,,,,,z,1,0.7841,,,,,,,,0,158,158,121,1,
,,,,,,,,,,,,,,,,,199237,,2022-01-28_16h34.51.164,lexical_decision_task_DD_L6,2021.2.3,MacIntel,59.97361161,,,,,,,,,,,,0.7676,1,,,,,,,,,,,,,,,,,,,,,,,,0.00907074,-0.402502975,0,0,0,,,,,,,ARROW,LB,m,y,./images/ARROWLB.png,,,,,,,m,1,0.7676,,,,,,,,0,159,159,69,1,
,,,,,,,,,,,,,,,,,199237,,2022-01-28_16h34.51.164,lexical_decision_task_DD_L6,2021.2.3,MacIntel,59.97361161,,,,,,,,,,,,1.3489,1,,,,,,,,,,,,,,,,,,,,,,,,0.00907074,-0.402502975,0,0,0,,,,,,,CLOUD,HB,m,y,./images/CLOUDHB.png,,,,,,,m,1,1.3489,,,,,,,,0,160,160,26,1,
,,,,,,,,,,,,,,,,,199237,,2022-01-28_16h34.51.164,lexical_decision_task_DD_L6,2021.2.3,MacIntel,59.97361161,,,,,,,,,,,,0.8997,1,,,,,,,,,,,,,,,,,,,,,,,,0.00907074,-0.402502975,0,0,0,,,,,,,BEARD,HB,z,y,./images/BEARDHB.png,,,,,,,z,1,0.8997,,,,,,,,0,161,161,86,1,
,,,,,,,,,,,,,,,,,199237,,2022-01-28_16h34.51.164,lexical_decision_task_DD_L6,2021.2.3,MacIntel,59.97361161,,,,,,,,,,,,0.6336,1,,,,,,,,,,,,,,,,,,,,,,,,0.00907074,-0.402502975,0,0,0,,,,,,,PLANET,HB,m,y,./images/PLANETHB.png,,,,,,,m,1,0.6336,,,,,,,,0,162,162,80,1,
,,,,,,,,,,,,,,,,,199237,,2022-01-28_16h34.51.164,lexical_decision_task_DD_L6,2021.2.3,MacIntel,59.97361161,,,,,,,,,,,,0.7354,1,,,,,,,,,,,,,,,,,,,,,,,,0.00907074,-0.402502975,0,0,0,,,,,,,POSTER,HB,m,y,./images/POSTERHB.png,,,,,,,m,1,0.7354,,,,,,,,0,163,163,53,1,
,,,,,,,,,,,,,,,,,199237,,2022-01-28_16h34.51.164,lexical_decision_task_DD_L6,2021.2.3,MacIntel,59.97361161,,,,,,,,,,,,0.7517,1,,,,,,,,,,,,,,,,,,,,,,,,0.00907074,-0.402502975,0,0,0,,,,,,,GARDEN,C,m,y,./images/GARDEN.png,,,,,,,m,1,0.7517,,,,,,,,0,164,164,10,1,
,,,,,,,,,,,,,,,,,199237,,2022-01-28_16h34.51.164,lexical_decision_task_DD_L6,2021.2.3,MacIntel,59.97361161,,,,,,,,,,,,1.3838,1,,,,,,,,,,,,,,,,,,,,,,,,0.00907074,-0.402502975,0,0,0,,,,,,,FOLDER,LB,z,y,./images/FOLDERLB.png,,,,,,,z,1,1.3838,,,,,,,,0,165,165,126,1,
,,,,,,,,,,,,,,,,,199237,,2022-01-28_16h34.51.164,lexical_decision_task_DD_L6,2021.2.3,MacIntel,59.97361161,,,,,,,,,,,,0.7164,1,,,,,,,,,,,,,,,,,,,,,,,,0.00907074,-0.402502975,0,0,0,,,,,,,BARREL,HB,z,y,./images/BARRELHB.png,,,,,,,z,1,0.7164,,,,,,,,0,166,166,116,1,
,,,,,,,,,,,,,,,,,199237,,2022-01-28_16h34.51.164,lexical_decision_task_DD_L6,2021.2.3,MacIntel,59.97361161,,,,,,,,,,,,1.0141,1,,,,,,,,,,,,,,,,,,,,,,,,0.00907074,-0.402502975,0,0,0,,,,,,,BUNNY,C,m,y,./images/BUNNY.png,,,,,,,m,1,1.0141,,,,,,,,0,167,167,13,1,
