key_resp.keys,key_resp.rt,instr_done_touch.x,instr_done_touch.y,instr_done_touch.leftButton,instr_done_touch.midButton,instr_done_touch.rightButton,instruction_pages.thisRepN,instruction_pages.thisTrialN,instruction_pages.thisN,instruction_pages.thisIndex,instruction_pages.ran,pageN,phase,instruct_text,has_image,instruct_image,participant,age,date,expName,psychopyVersion,OS,frameRate,response.keys,response.corr,response.rt,touch_resp.x,touch_resp.y,touch_resp.leftButton,touch_resp.midButton,touch_resp.rightButton,touch_resp.time,touch_resp.clicked_name,rt,corr,practrials.thisRepN,practrials.thisTrialN,practrials.thisN,practrials.thisIndex,practrials.ran,TrialID,Target,corrAns,end_of_practice_trials_pages.thisRepN,end_of_practice_trials_pages.thisTrialN,end_of_practice_trials_pages.thisN,end_of_practice_trials_pages.thisIndex,end_of_practice_trials_pages.ran,key_resp_2.keys,key_resp_2.corr,key_resp_2.rt,targ_click.x,targ_click.y,targ_click.leftButton,targ_click.midButton,targ_click.rightButton,targ_click.time,targ_click.clicked_name,break_done_touch.x,break_done_touch.y,break_done_touch.leftButton,break_done_touch.midButton,break_done_touch.rightButton,break_done_keyboard.keys,maintrials.thisRepN,maintrials.thisTrialN,maintrials.thisN,maintrials.thisIndex,maintrials.ran,string,blur,study,lex,stim_path,break_done_keyboard.rt,test_instructions.thisRepN,test_instructions.thisTrialN,test_instructions.thisN,test_instructions.thisIndex,test_instructions.ran,instr_done_touch.clicked_name,key_resp_3.keys,key_resp_3.corr,key_resp_3.rt,test_click.x,test_click.y,test_click.leftButton,test_click.midButton,test_click.rightButton,test_click.time,test_click.clicked_name,test_phase.thisRepN,test_phase.thisTrialN,test_phase.thisN,test_phase.thisIndex,test_phase.ran
space,63.809,0.287777778,-0.218888889,0,0,0,0,0,0,0,1,1,instructions,"INSTRUCTIONS
At the start of each trial, look at the plus sign  (+) in the center of the screen.  This tells you that a trial is about to begin and where to look. Second, the plus sign will disappear and a string of letters will appear. Your task is to determine if the string of letters is a word or not. If the item is a word press the M key (on keyboard)  or touch the word button (phone/tablet).  If the item is not a word,  press the  Z key (on keyboard)  or touch the nonword button (on phone/tablet). 
Press the space bar or touch  continue.",0,,199240,18,2022-01-28_21h13.55,lexical_decision_task_DD,2021.2.3,MacIntel,62.5,,,,,,,,,,,,,,,,,,,,,,,,,,,,,,,,,,,,,,,,,,,,,,,,,,,,,,,,,,,,,,,,,,,,,,,,,
space,10.296,0.287777778,-0.218888889,0,0,0,0,1,1,1,1,2,instructions,"If your device has a keyboard, press the 'Z' key for nonwords and the 'M' key for words.





Press the space bar or touch the button below to continue.",0,keyboard-example.gif,199240,18,2022-01-28_21h13.55,lexical_decision_task_DD,2021.2.3,MacIntel,62.5,,,,,,,,,,,,,,,,,,,,,,,,,,,,,,,,,,,,,,,,,,,,,,,,,,,,,,,,,,,,,,,,,,,,,,,,,
space,12.025,0.287777778,-0.218888889,0,0,0,0,2,2,2,1,3,instructions,"If you are using a touchscreen only device, use the buttons on the screen. Do not use the mouse.





Press the space bar or touch the button below to continue.",0,touchscreen-example.gif,199240,18,2022-01-28_21h13.55,lexical_decision_task_DD,2021.2.3,MacIntel,62.5,,,,,,,,,,,,,,,,,,,,,,,,,,,,,,,,,,,,,,,,,,,,,,,,,,,,,,,,,,,,,,,,,,,,,,,,,
space,23.952,0.287777778,-0.218888889,0,0,0,0,3,3,3,1,4,instructions,"It is very important that you respond as quickly and accurately as possible, as each letter string will only be on the screen for two seconds. If you do not respond within this time, the message 'Too slow!' will be displayed and the experiment will progress to the next letter string. The first 20 trials will be practice trials and you will receive feedback on your answers. 

Press the space bar or touch the button below to start the practice trials.",0,,199240,18,2022-01-28_21h13.55,lexical_decision_task_DD,2021.2.3,MacIntel,62.5,,,,,,,,,,,,,,,,,,,,,,,,,,,,,,,,,,,,,,,,,,,,,,,,,,,,,,,,,,,,,,,,,,,,,,,,,
,,,,,,,,,,,,,,,,,199240,18,2022-01-28_21h13.55,lexical_decision_task_DD,2021.2.3,MacIntel,62.5,z,1,4.367,,,,,,,,4.367,1,0,0,0,15,1,1001,WHAISE,z,,,,,,,,,,,,,,,,,,,,,,,,,,,,,,,,,,,,,,,,,,,,,,,,,,,,,
,,,,,,,,,,,,,,,,,199240,18,2022-01-28_21h13.55,lexical_decision_task_DD,2021.2.3,MacIntel,62.5,m,1,2.513,,,,,,,,2.513,1,0,1,1,2,1,1001,ALMOND,m,,,,,,,,,,,,,,,,,,,,,,,,,,,,,,,,,,,,,,,,,,,,,,,,,,,,,
,,,,,,,,,,,,,,,,,199240,18,2022-01-28_21h13.55,lexical_decision_task_DD,2021.2.3,MacIntel,62.5,z,1,1.696,,,,,,,,1.696,1,0,2,2,11,1,1001,RASHET,z,,,,,,,,,,,,,,,,,,,,,,,,,,,,,,,,,,,,,,,,,,,,,,,,,,,,,
,,,,,,,,,,,,,,,,,199240,18,2022-01-28_21h13.55,lexical_decision_task_DD,2021.2.3,MacIntel,62.5,m,1,1.291,,,,,,,,1.291,1,0,3,3,5,1,1001,OBTAIN,m,,,,,,,,,,,,,,,,,,,,,,,,,,,,,,,,,,,,,,,,,,,,,,,,,,,,,
,,,,,,,,,,,,,,,,,199240,18,2022-01-28_21h13.55,lexical_decision_task_DD,2021.2.3,MacIntel,62.5,z,1,1.663,,,,,,,,1.663,1,0,4,4,12,1,1001,SPRINY,z,,,,,,,,,,,,,,,,,,,,,,,,,,,,,,,,,,,,,,,,,,,,,,,,,,,,,
,,,,,,,,,,,,,,,,,199240,18,2022-01-28_21h13.55,lexical_decision_task_DD,2021.2.3,MacIntel,62.5,z,1,1.413,,,,,,,,1.413,1,0,5,5,8,1,1001,ASLERT,z,,,,,,,,,,,,,,,,,,,,,,,,,,,,,,,,,,,,,,,,,,,,,,,,,,,,,
,,,,,,,,,,,,,,,,,199240,18,2022-01-28_21h13.55,lexical_decision_task_DD,2021.2.3,MacIntel,62.5,m,1,1.458,,,,,,,,1.458,1,0,6,6,1,1,1001,ADJUST,m,,,,,,,,,,,,,,,,,,,,,,,,,,,,,,,,,,,,,,,,,,,,,,,,,,,,,
,,,,,,,,,,,,,,,,,199240,18,2022-01-28_21h13.55,lexical_decision_task_DD,2021.2.3,MacIntel,62.5,z,1,1.556,,,,,,,,1.556,1,0,7,7,9,1,1001,FARINY,z,,,,,,,,,,,,,,,,,,,,,,,,,,,,,,,,,,,,,,,,,,,,,,,,,,,,,
,,,,,,,,,,,,,,,,,199240,18,2022-01-28_21h13.55,lexical_decision_task_DD,2021.2.3,MacIntel,62.5,m,1,1.063,,,,,,,,1.063,1,0,8,8,7,1,1001,VOLUME,m,,,,,,,,,,,,,,,,,,,,,,,,,,,,,,,,,,,,,,,,,,,,,,,,,,,,,
,,,,,,,,,,,,,,,,,199240,18,2022-01-28_21h13.55,lexical_decision_task_DD,2021.2.3,MacIntel,62.5,z,1,1.03,,,,,,,,1.03,1,0,9,9,14,1,1001,THRALE,z,,,,,,,,,,,,,,,,,,,,,,,,,,,,,,,,,,,,,,,,,,,,,,,,,,,,,
,,,,,,,,,,,,,,,,,199240,18,2022-01-28_21h13.55,lexical_decision_task_DD,2021.2.3,MacIntel,62.5,m,0,1.924,,,,,,,,1.924,0,0,10,10,10,1,1001,INLADE,z,,,,,,,,,,,,,,,,,,,,,,,,,,,,,,,,,,,,,,,,,,,,,,,,,,,,,
,,,,,,,,,,,,,,,,,199240,18,2022-01-28_21h13.55,lexical_decision_task_DD,2021.2.3,MacIntel,62.5,m,1,1.356,,,,,,,,1.356,1,0,11,11,4,1,1001,SQUEAK,m,,,,,,,,,,,,,,,,,,,,,,,,,,,,,,,,,,,,,,,,,,,,,,,,,,,,,
,,,,,,,,,,,,,,,,,199240,18,2022-01-28_21h13.55,lexical_decision_task_DD,2021.2.3,MacIntel,62.5,m,1,1.131,,,,,,,,1.131,1,0,12,12,0,1,1001,UTOPIA,m,,,,,,,,,,,,,,,,,,,,,,,,,,,,,,,,,,,,,,,,,,,,,,,,,,,,,
,,,,,,,,,,,,,,,,,199240,18,2022-01-28_21h13.55,lexical_decision_task_DD,2021.2.3,MacIntel,62.5,m,1,1.03,,,,,,,,1.03,1,0,13,13,6,1,1001,ZOMBIE,m,,,,,,,,,,,,,,,,,,,,,,,,,,,,,,,,,,,,,,,,,,,,,,,,,,,,,
,,,,,,,,,,,,,,,,,199240,18,2022-01-28_21h13.55,lexical_decision_task_DD,2021.2.3,MacIntel,62.5,m,1,0.691,,,,,,,,0.691,1,0,14,14,3,1,1001,MATRIX,m,,,,,,,,,,,,,,,,,,,,,,,,,,,,,,,,,,,,,,,,,,,,,,,,,,,,,
,,,,,,,,,,,,,,,,,199240,18,2022-01-28_21h13.55,lexical_decision_task_DD,2021.2.3,MacIntel,62.5,z,1,0.906,,,,,,,,0.906,1,0,15,15,13,1,1001,ROUPET,z,,,,,,,,,,,,,,,,,,,,,,,,,,,,,,,,,,,,,,,,,,,,,,,,,,,,,
space,48.939,0.287777778,-0.218888889,0,0,0,,,,,,1,end_of_practice,"You have completed the practice trials. During the experimental trials, you will not receive feedback. 
Before you begin, please ensure that you are in a comfortable and quiet location and will not be disturbed for about 15 minutes, as we cannot use your data if you do not complete all the trials. 
 When you are ready to start the experimental trials, please press space or touch the button below.",,,199240,18,2022-01-28_21h13.55,lexical_decision_task_DD,2021.2.3,MacIntel,62.5,,,,,,,,,,,,,,,,,,,,,0,0,0,0,1,,,,,,,,,,,,,,,,,,,,,,,,,,,,,,,,,,,,,,,,,,,,,,,,
,,,,,,,,,,,,,,,,,199240,18,2022-01-28_21h13.55,lexical_decision_task_DD,2021.2.3,MacIntel,62.5,,,,,,,,,,,1.742,1,,,,,,,,,,,,,,z,1,1.742,,,,,,,,0.287777778,-0.218888889,0,0,0,,0,0,0,161,1,BLAPS,LB,old,z,./images/BLAPSLB.png,,,,,,,,,,,,,,,,,,,,,,
,,,,,,,,,,,,,,,,,199240,18,2022-01-28_21h13.55,lexical_decision_task_DD,2021.2.3,MacIntel,62.5,,,,,,,,,,,1.108,1,,,,,,,,,,,,,,z,1,1.108,,,,,,,,0.287777778,-0.218888889,0,0,0,,0,1,1,92,1,PAIMS,LB,old,z,./images/PAIMSLB.png,,,,,,,,,,,,,,,,,,,,,,
,,,,,,,,,,,,,,,,,199240,18,2022-01-28_21h13.55,lexical_decision_task_DD,2021.2.3,MacIntel,62.5,,,,,,,,,,,0.863,1,,,,,,,,,,,,,,m,1,0.863,,,,,,,,0.287777778,-0.218888889,0,0,0,,0,2,2,5,1,PASTA,LB,old,m,./images/PASTALB.png,,,,,,,,,,,,,,,,,,,,,,
,,,,,,,,,,,,,,,,,199240,18,2022-01-28_21h13.55,lexical_decision_task_DD,2021.2.3,MacIntel,62.5,,,,,,,,,,,1.447,1,,,,,,,,,,,,,,m,1,1.447,,,,,,,,0.287777778,-0.218888889,0,0,0,,0,3,3,48,1,SPORT,C,old,m,./images/SPORT.png,,,,,,,,,,,,,,,,,,,,,,
,,,,,,,,,,,,,,,,,199240,18,2022-01-28_21h13.55,lexical_decision_task_DD,2021.2.3,MacIntel,62.5,,,,,,,,,,,1.207,1,,,,,,,,,,,,,,m,1,1.207,,,,,,,,0.287777778,-0.218888889,0,0,0,,0,4,4,55,1,MUFFIN,HB,old,m,./images/MUFFINHB.png,,,,,,,,,,,,,,,,,,,,,,
,,,,,,,,,,,,,,,,,199240,18,2022-01-28_21h13.55,lexical_decision_task_DD,2021.2.3,MacIntel,62.5,,,,,,,,,,,1.03,1,,,,,,,,,,,,,,m,1,1.03,,,,,,,,0.287777778,-0.218888889,0,0,0,,0,5,5,70,1,URINE,HB,old,m,./images/URINEHB.png,,,,,,,,,,,,,,,,,,,,,,
,,,,,,,,,,,,,,,,,199240,18,2022-01-28_21h13.55,lexical_decision_task_DD,2021.2.3,MacIntel,62.5,,,,,,,,,,,0.792,1,,,,,,,,,,,,,,m,1,0.792,,,,,,,,0.287777778,-0.218888889,0,0,0,,0,6,6,46,1,PEARL,HB,old,m,./images/PEARLHB.png,,,,,,,,,,,,,,,,,,,,,,
,,,,,,,,,,,,,,,,,199240,18,2022-01-28_21h13.55,lexical_decision_task_DD,2021.2.3,MacIntel,62.5,,,,,,,,,,,0.949,1,,,,,,,,,,,,,,m,1,0.949,,,,,,,,0.287777778,-0.218888889,0,0,0,,0,7,7,41,1,STRING,LB,old,m,./images/STRINGLB.png,,,,,,,,,,,,,,,,,,,,,,
,,,,,,,,,,,,,,,,,199240,18,2022-01-28_21h13.55,lexical_decision_task_DD,2021.2.3,MacIntel,62.5,,,,,,,,,,,1.529,1,,,,,,,,,,,,,,m,1,1.529,,,,,,,,0.287777778,-0.218888889,0,0,0,,0,8,8,30,1,STORM,C,old,m,./images/STORM.png,,,,,,,,,,,,,,,,,,,,,,
,,,,,,,,,,,,,,,,,199240,18,2022-01-28_21h13.55,lexical_decision_task_DD,2021.2.3,MacIntel,62.5,,,,,,,,,,,0.732,1,,,,,,,,,,,,,,m,1,0.732,,,,,,,,0.287777778,-0.218888889,0,0,0,,0,9,9,33,1,MAGGOT,C,old,m,./images/MAGGOT.png,,,,,,,,,,,,,,,,,,,,,,
,,,,,,,,,,,,,,,,,199240,18,2022-01-28_21h13.55,lexical_decision_task_DD,2021.2.3,MacIntel,62.5,,,,,,,,,,,0.692,1,,,,,,,,,,,,,,m,1,0.692,,,,,,,,0.287777778,-0.218888889,0,0,0,,0,10,10,32,1,BARREL,LB,old,m,./images/BARRELLB.png,,,,,,,,,,,,,,,,,,,,,,
,,,,,,,,,,,,,,,,,199240,18,2022-01-28_21h13.55,lexical_decision_task_DD,2021.2.3,MacIntel,62.5,,,,,,,,,,,0.747,1,,,,,,,,,,,,,,m,1,0.747,,,,,,,,0.287777778,-0.218888889,0,0,0,,0,11,11,54,1,TRIPOD,C,old,m,./images/TRIPOD.png,,,,,,,,,,,,,,,,,,,,,,
,,,,,,,,,,,,,,,,,199240,18,2022-01-28_21h13.55,lexical_decision_task_DD,2021.2.3,MacIntel,62.5,,,,,,,,,,,1.124,1,,,,,,,,,,,,,,z,1,1.124,,,,,,,,0.287777778,-0.218888889,0,0,0,,0,12,12,128,1,GRIFT,LB,old,z,./images/GRIFTLB.png,,,,,,,,,,,,,,,,,,,,,,
,,,,,,,,,,,,,,,,,199240,18,2022-01-28_21h13.55,lexical_decision_task_DD,2021.2.3,MacIntel,62.5,,,,,,,,,,,1.226,1,,,,,,,,,,,,,,z,1,1.226,,,,,,,,0.287777778,-0.218888889,0,0,0,,0,13,13,158,1,EGECT,LB,old,z,./images/EGECTLB.png,,,,,,,,,,,,,,,,,,,,,,
,,,,,,,,,,,,,,,,,199240,18,2022-01-28_21h13.55,lexical_decision_task_DD,2021.2.3,MacIntel,62.5,,,,,,,,,,,0.723,1,,,,,,,,,,,,,,m,1,0.723,,,,,,,,0.287777778,-0.218888889,0,0,0,,0,14,14,62,1,PURSE,LB,old,m,./images/PURSELB.png,,,,,,,,,,,,,,,,,,,,,,
,,,,,,,,,,,,,,,,,199240,18,2022-01-28_21h13.55,lexical_decision_task_DD,2021.2.3,MacIntel,62.5,,,,,,,,,,,0.63,1,,,,,,,,,,,,,,m,1,0.63,,,,,,,,0.287777778,-0.218888889,0,0,0,,0,15,15,15,1,GREASE,C,old,m,./images/GREASE.png,,,,,,,,,,,,,,,,,,,,,,
,,,,,,,,,,,,,,,,,199240,18,2022-01-28_21h13.55,lexical_decision_task_DD,2021.2.3,MacIntel,62.5,,,,,,,,,,,0.715,1,,,,,,,,,,,,,,m,1,0.715,,,,,,,,0.287777778,-0.218888889,0,0,0,,0,16,16,27,1,ATTIC,C,old,m,./images/ATTIC.png,,,,,,,,,,,,,,,,,,,,,,
,,,,,,,,,,,,,,,,,199240,18,2022-01-28_21h13.55,lexical_decision_task_DD,2021.2.3,MacIntel,62.5,,,,,,,,,,,1.023,1,,,,,,,,,,,,,,z,1,1.023,,,,,,,,0.287777778,-0.218888889,0,0,0,,0,17,17,149,1,VEASE,LB,old,z,./images/VEASELB.png,,,,,,,,,,,,,,,,,,,,,,
,,,,,,,,,,,,,,,,,199240,18,2022-01-28_21h13.55,lexical_decision_task_DD,2021.2.3,MacIntel,62.5,,,,,,,,,,,1.497,1,,,,,,,,,,,,,,z,1,1.497,,,,,,,,0.287777778,-0.218888889,0,0,0,,0,18,18,115,1,MAWNS,HB,old,z,./images/MAWNSHB.png,,,,,,,,,,,,,,,,,,,,,,
,,,,,,,,,,,,,,,,,199240,18,2022-01-28_21h13.55,lexical_decision_task_DD,2021.2.3,MacIntel,62.5,,,,,,,,,,,1.39,1,,,,,,,,,,,,,,z,1,1.39,,,,,,,,0.287777778,-0.218888889,0,0,0,,0,19,19,148,1,JOMS,HB,old,z,./images/JOMSHB.png,,,,,,,,,,,,,,,,,,,,,,
,,,,,,,,,,,,,,,,,199240,18,2022-01-28_21h13.55,lexical_decision_task_DD,2021.2.3,MacIntel,62.5,,,,,,,,,,,0.93,0,,,,,,,,,,,,,,m,0,0.93,,,,,,,,0.287777778,-0.218888889,0,0,0,,0,20,20,166,1,SHORY,HB,old,z,./images/SHORYHB.png,,,,,,,,,,,,,,,,,,,,,,
,,,,,,,,,,,,,,,,,199240,18,2022-01-28_21h13.55,lexical_decision_task_DD,2021.2.3,MacIntel,62.5,,,,,,,,,,,0.883,1,,,,,,,,,,,,,,m,1,0.883,,,,,,,,0.287777778,-0.218888889,0,0,0,,0,21,21,40,1,SWING,HB,old,m,./images/SWINGHB.png,,,,,,,,,,,,,,,,,,,,,,
,,,,,,,,,,,,,,,,,199240,18,2022-01-28_21h13.55,lexical_decision_task_DD,2021.2.3,MacIntel,62.5,,,,,,,,,,,1.343,1,,,,,,,,,,,,,,z,1,1.343,,,,,,,,0.287777778,-0.218888889,0,0,0,,0,22,22,121,1,CEERS,HB,old,z,./images/CEERSHB.png,,,,,,,,,,,,,,,,,,,,,,
,,,,,,,,,,,,,,,,,199240,18,2022-01-28_21h13.55,lexical_decision_task_DD,2021.2.3,MacIntel,62.5,,,,,,,,,,,1.508,1,,,,,,,,,,,,,,z,1,1.508,,,,,,,,0.287777778,-0.218888889,0,0,0,,0,23,23,109,1,BURGE,HB,old,z,./images/BURGEHB.png,,,,,,,,,,,,,,,,,,,,,,
,,,,,,,,,,,,,,,,,199240,18,2022-01-28_21h13.55,lexical_decision_task_DD,2021.2.3,MacIntel,62.5,,,,,,,,,,,0.812,1,,,,,,,,,,,,,,m,1,0.812,,,,,,,,0.287777778,-0.218888889,0,0,0,,0,24,24,78,1,LITTER,C,old,m,./images/LITTER.png,,,,,,,,,,,,,,,,,,,,,,
,,,,,,,,,,,,,,,,,199240,18,2022-01-28_21h13.55,lexical_decision_task_DD,2021.2.3,MacIntel,62.5,,,,,,,,,,,0.549,1,,,,,,,,,,,,,,m,1,0.549,,,,,,,,0.287777778,-0.218888889,0,0,0,,0,25,25,12,1,SHORE,C,old,m,./images/SHORE.png,,,,,,,,,,,,,,,,,,,,,,
,,,,,,,,,,,,,,,,,199240,18,2022-01-28_21h13.55,lexical_decision_task_DD,2021.2.3,MacIntel,62.5,,,,,,,,,,,1.59,1,,,,,,,,,,,,,,m,1,1.59,,,,,,,,0.287777778,-0.218888889,0,0,0,,0,26,26,67,1,SAILOR,HB,old,m,./images/SAILORHB.png,,,,,,,,,,,,,,,,,,,,,,
,,,,,,,,,,,,,,,,,199240,18,2022-01-28_21h13.55,lexical_decision_task_DD,2021.2.3,MacIntel,62.5,,,,,,,,,,,0.847,1,,,,,,,,,,,,,,z,1,0.847,,,,,,,,0.287777778,-0.218888889,0,0,0,,0,27,27,104,1,GITTY,LB,old,z,./images/GITTYLB.png,,,,,,,,,,,,,,,,,,,,,,
,,,,,,,,,,,,,,,,,199240,18,2022-01-28_21h13.55,lexical_decision_task_DD,2021.2.3,MacIntel,62.5,,,,,,,,,,,0.922,1,,,,,,,,,,,,,,z,1,0.922,,,,,,,,0.287777778,-0.218888889,0,0,0,,0,28,28,155,1,CANGY,LB,old,z,./images/CANGYLB.png,,,,,,,,,,,,,,,,,,,,,,
,,,,,,,,,,,,,,,,,199240,18,2022-01-28_21h13.55,lexical_decision_task_DD,2021.2.3,MacIntel,62.5,,,,,,,,,,,0.873,1,,,,,,,,,,,,,,m,1,0.873,,,,,,,,0.287777778,-0.218888889,0,0,0,,0,29,29,79,1,CRUST,HB,old,m,./images/CRUSTHB.png,,,,,,,,,,,,,,,,,,,,,,
,,,,,,,,,,,,,,,,,199240,18,2022-01-28_21h13.55,lexical_decision_task_DD,2021.2.3,MacIntel,62.5,,,,,,,,,,,0.913,1,,,,,,,,,,,,,,z,1,0.913,,,,,,,,0.287777778,-0.218888889,0,0,0,,0,30,30,129,1,PRANS,C,old,z,./images/PRANS.png,,,,,,,,,,,,,,,,,,,,,,
,,,,,,,,,,,,,,,,,199240,18,2022-01-28_21h13.55,lexical_decision_task_DD,2021.2.3,MacIntel,62.5,,,,,,,,,,,1.992,1,,,,,,,,,,,,,,z,1,1.992,,,,,,,,0.287777778,-0.218888889,0,0,0,,0,31,31,160,1,VEETS,HB,old,z,./images/VEETSHB.png,,,,,,,,,,,,,,,,,,,,,,
,,,,,,,,,,,,,,,,,199240,18,2022-01-28_21h13.55,lexical_decision_task_DD,2021.2.3,MacIntel,62.5,,,,,,,,,,,2.057,1,,,,,,,,,,,,,,z,1,2.057,,,,,,,,0.287777778,-0.218888889,0,0,0,,0,32,32,157,1,INLER,HB,old,z,./images/INLERHB.png,,,,,,,,,,,,,,,,,,,,,,
,,,,,,,,,,,,,,,,,199240,18,2022-01-28_21h13.55,lexical_decision_task_DD,2021.2.3,MacIntel,62.5,,,,,,,,,,,2.03,1,,,,,,,,,,,,,,z,1,2.03,,,,,,,,0.287777778,-0.218888889,0,0,0,,0,33,33,88,1,GLUSH,HB,old,z,./images/GLUSHHB.png,,,,,,,,,,,,,,,,,,,,,,
,,,,,,,,,,,,,,,,,199240,18,2022-01-28_21h13.55,lexical_decision_task_DD,2021.2.3,MacIntel,62.5,,,,,,,,,,,0.89,1,,,,,,,,,,,,,,z,1,0.89,,,,,,,,0.287777778,-0.218888889,0,0,0,,0,34,34,116,1,BALGY,LB,old,z,./images/BALGYLB.png,,,,,,,,,,,,,,,,,,,,,,
,,,,,,,,,,,,,,,,,199240,18,2022-01-28_21h13.55,lexical_decision_task_DD,2021.2.3,MacIntel,62.5,,,,,,,,,,,0.947,1,,,,,,,,,,,,,,z,1,0.947,,,,,,,,0.287777778,-0.218888889,0,0,0,,0,35,35,138,1,PLICE,C,old,z,./images/PLICE.png,,,,,,,,,,,,,,,,,,,,,,
,,,,,,,,,,,,,,,,,199240,18,2022-01-28_21h13.55,lexical_decision_task_DD,2021.2.3,MacIntel,62.5,,,,,,,,,,,0.789,1,,,,,,,,,,,,,,z,1,0.789,,,,,,,,0.287777778,-0.218888889,0,0,0,,0,36,36,122,1,BLOOT,LB,old,z,./images/BLOOTLB.png,,,,,,,,,,,,,,,,,,,,,,
,,,,,,,,,,,,,,,,,199240,18,2022-01-28_21h13.55,lexical_decision_task_DD,2021.2.3,MacIntel,62.5,,,,,,,,,,,0.857,1,,,,,,,,,,,,,,m,1,0.857,,,,,,,,0.287777778,-0.218888889,0,0,0,,0,37,37,64,1,JELLY,HB,old,m,./images/JELLYHB.png,,,,,,,,,,,,,,,,,,,,,,
,,,,,,,,,,,,,,,,,199240,18,2022-01-28_21h13.55,lexical_decision_task_DD,2021.2.3,MacIntel,62.5,,,,,,,,,,,0.966,1,,,,,,,,,,,,,,z,1,0.966,,,,,,,,0.287777778,-0.218888889,0,0,0,,0,38,38,108,1,GRUET,C,old,z,./images/GRUET.png,,,,,,,,,,,,,,,,,,,,,,
,,,,,,,,,,,,,,,,,199240,18,2022-01-28_21h13.55,lexical_decision_task_DD,2021.2.3,MacIntel,62.5,,,,,,,,,,,0.683,1,,,,,,,,,,,,,,m,1,0.683,,,,,,,,0.287777778,-0.218888889,0,0,0,,0,39,39,36,1,THROAT,C,old,m,./images/THROAT.png,,,,,,,,,,,,,,,,,,,,,,
,,,,,,,,,,,,,,,,,199240,18,2022-01-28_21h13.55,lexical_decision_task_DD,2021.2.3,MacIntel,62.5,,,,,,,,,,,1.84,1,,,,,,,,,,,,,,z,1,1.84,,,,,,,,0.287777778,-0.218888889,0,0,0,,0,40,40,139,1,BLEAR,HB,old,z,./images/BLEARHB.png,,,,,,,,,,,,,,,,,,,,,,
,,,,,,,,,,,,,,,,,199240,18,2022-01-28_21h13.55,lexical_decision_task_DD,2021.2.3,MacIntel,62.5,,,,,,,,,,,1.039,1,,,,,,,,,,,,,,m,1,1.039,,,,,,,,0.287777778,-0.218888889,0,0,0,space,0,41,41,2,1,BEARD,LB,old,m,./images/BEARDLB.png,16.889,,,,,,,,,,,,,,,,,,,,,
,,,,,,,,,,,,,,,,,199240,18,2022-01-28_21h13.55,lexical_decision_task_DD,2021.2.3,MacIntel,62.5,,,,,,,,,,,1.029,1,,,,,,,,,,,,,,z,1,1.029,,,,,,,,0.287777778,-0.218888889,0,0,0,,0,42,42,150,1,NOOLS,C,old,z,./images/NOOLS.png,,,,,,,,,,,,,,,,,,,,,,
,,,,,,,,,,,,,,,,,199240,18,2022-01-28_21h13.55,lexical_decision_task_DD,2021.2.3,MacIntel,62.5,,,,,,,,,,,0.792,1,,,,,,,,,,,,,,m,1,0.792,,,,,,,,0.287777778,-0.218888889,0,0,0,,0,43,43,14,1,PICKLE,LB,old,m,./images/PICKLELB.png,,,,,,,,,,,,,,,,,,,,,,
,,,,,,,,,,,,,,,,,199240,18,2022-01-28_21h13.55,lexical_decision_task_DD,2021.2.3,MacIntel,62.5,,,,,,,,,,,0.816,1,,,,,,,,,,,,,,m,1,0.816,,,,,,,,0.287777778,-0.218888889,0,0,0,,0,44,44,3,1,FINGER,C,old,m,./images/FINGER.png,,,,,,,,,,,,,,,,,,,,,,
,,,,,,,,,,,,,,,,,199240,18,2022-01-28_21h13.55,lexical_decision_task_DD,2021.2.3,MacIntel,62.5,,,,,,,,,,,1.04,1,,,,,,,,,,,,,,z,1,1.04,,,,,,,,0.287777778,-0.218888889,0,0,0,,0,45,45,112,1,MYING,HB,old,z,./images/MYINGHB.png,,,,,,,,,,,,,,,,,,,,,,
,,,,,,,,,,,,,,,,,199240,18,2022-01-28_21h13.55,lexical_decision_task_DD,2021.2.3,MacIntel,62.5,,,,,,,,,,,0.931,1,,,,,,,,,,,,,,z,1,0.931,,,,,,,,0.287777778,-0.218888889,0,0,0,,0,46,46,159,1,CUDDY,C,old,z,./images/CUDDY.png,,,,,,,,,,,,,,,,,,,,,,
,,,,,,,,,,,,,,,,,199240,18,2022-01-28_21h13.55,lexical_decision_task_DD,2021.2.3,MacIntel,62.5,,,,,,,,,,,0.93,1,,,,,,,,,,,,,,m,1,0.93,,,,,,,,0.287777778,-0.218888889,0,0,0,,0,47,47,17,1,SKIING,LB,old,m,./images/SKIINGLB.png,,,,,,,,,,,,,,,,,,,,,,
,,,,,,,,,,,,,,,,,199240,18,2022-01-28_21h13.55,lexical_decision_task_DD,2021.2.3,MacIntel,62.5,,,,,,,,,,,1.03,1,,,,,,,,,,,,,,m,1,1.03,,,,,,,,0.287777778,-0.218888889,0,0,0,,0,48,48,61,1,CANDLE,HB,old,m,./images/CANDLEHB.png,,,,,,,,,,,,,,,,,,,,,,
,,,,,,,,,,,,,,,,,199240,18,2022-01-28_21h13.55,lexical_decision_task_DD,2021.2.3,MacIntel,62.5,,,,,,,,,,,0.665,1,,,,,,,,,,,,,,m,1,0.665,,,,,,,,0.287777778,-0.218888889,0,0,0,,0,49,49,6,1,SQUARE,C,old,m,./images/SQUARE.png,,,,,,,,,,,,,,,,,,,,,,
,,,,,,,,,,,,,,,,,199240,18,2022-01-28_21h13.55,lexical_decision_task_DD,2021.2.3,MacIntel,62.5,,,,,,,,,,,0.772,1,,,,,,,,,,,,,,m,1,0.772,,,,,,,,0.287777778,-0.218888889,0,0,0,,0,50,50,39,1,SHELF,C,old,m,./images/SHELF.png,,,,,,,,,,,,,,,,,,,,,,
,,,,,,,,,,,,,,,,,199240,18,2022-01-28_21h13.55,lexical_decision_task_DD,2021.2.3,MacIntel,62.5,,,,,,,,,,,0.882,1,,,,,,,,,,,,,,m,1,0.882,,,,,,,,0.287777778,-0.218888889,0,0,0,,0,51,51,81,1,POODLE,C,old,m,./images/POODLE.png,,,,,,,,,,,,,,,,,,,,,,
,,,,,,,,,,,,,,,,,199240,18,2022-01-28_21h13.55,lexical_decision_task_DD,2021.2.3,MacIntel,62.5,,,,,,,,,,,0.622,1,,,,,,,,,,,,,,m,1,0.622,,,,,,,,0.287777778,-0.218888889,0,0,0,,0,52,52,80,1,WEASEL,LB,old,m,./images/WEASELLB.png,,,,,,,,,,,,,,,,,,,,,,
,,,,,,,,,,,,,,,,,199240,18,2022-01-28_21h13.55,lexical_decision_task_DD,2021.2.3,MacIntel,62.5,,,,,,,,,,,1.065,1,,,,,,,,,,,,,,m,1,1.065,,,,,,,,0.287777778,-0.218888889,0,0,0,,0,53,53,50,1,MALLET,LB,old,m,./images/MALLETLB.png,,,,,,,,,,,,,,,,,,,,,,
,,,,,,,,,,,,,,,,,199240,18,2022-01-28_21h13.55,lexical_decision_task_DD,2021.2.3,MacIntel,62.5,,,,,,,,,,,0.847,0,,,,,,,,,,,,,,m,0,0.847,,,,,,,,0.287777778,-0.218888889,0,0,0,,0,54,54,165,1,TROWN,C,old,z,./images/TROWN.png,,,,,,,,,,,,,,,,,,,,,,
,,,,,,,,,,,,,,,,,199240,18,2022-01-28_21h13.55,lexical_decision_task_DD,2021.2.3,MacIntel,62.5,,,,,,,,,,,1.523,1,,,,,,,,,,,,,,z,1,1.523,,,,,,,,0.287777778,-0.218888889,0,0,0,,0,55,55,86,1,AIFED,LB,old,z,./images/AIFEDLB.png,,,,,,,,,,,,,,,,,,,,,,
,,,,,,,,,,,,,,,,,199240,18,2022-01-28_21h13.55,lexical_decision_task_DD,2021.2.3,MacIntel,62.5,,,,,,,,,,,1.214,1,,,,,,,,,,,,,,m,1,1.214,,,,,,,,0.287777778,-0.218888889,0,0,0,,0,56,56,4,1,MUSCLE,HB,old,m,./images/MUSCLEHB.png,,,,,,,,,,,,,,,,,,,,,,
,,,,,,,,,,,,,,,,,199240,18,2022-01-28_21h13.55,lexical_decision_task_DD,2021.2.3,MacIntel,62.5,,,,,,,,,,,0.891,1,,,,,,,,,,,,,,z,1,0.891,,,,,,,,0.287777778,-0.218888889,0,0,0,,0,57,57,125,1,MOOKY,LB,old,z,./images/MOOKYLB.png,,,,,,,,,,,,,,,,,,,,,,
,,,,,,,,,,,,,,,,,199240,18,2022-01-28_21h13.55,lexical_decision_task_DD,2021.2.3,MacIntel,62.5,,,,,,,,,,,0.924,1,,,,,,,,,,,,,,z,1,0.924,,,,,,,,0.287777778,-0.218888889,0,0,0,,0,58,58,144,1,NAIRY,C,old,z,./images/NAIRY.png,,,,,,,,,,,,,,,,,,,,,,
,,,,,,,,,,,,,,,,,199240,18,2022-01-28_21h13.55,lexical_decision_task_DD,2021.2.3,MacIntel,62.5,,,,,,,,,,,1.53,1,,,,,,,,,,,,,,z,1,1.53,,,,,,,,0.287777778,-0.218888889,0,0,0,,0,59,59,163,1,GAMBA,HB,old,z,./images/GAMBAHB.png,,,,,,,,,,,,,,,,,,,,,,
,,,,,,,,,,,,,,,,,199240,18,2022-01-28_21h13.55,lexical_decision_task_DD,2021.2.3,MacIntel,62.5,,,,,,,,,,,0.771,1,,,,,,,,,,,,,,z,1,0.771,,,,,,,,0.287777778,-0.218888889,0,0,0,,0,60,60,162,1,LEICH,C,old,z,./images/LEICH.png,,,,,,,,,,,,,,,,,,,,,,
,,,,,,,,,,,,,,,,,199240,18,2022-01-28_21h13.55,lexical_decision_task_DD,2021.2.3,MacIntel,62.5,,,,,,,,,,,1.347,1,,,,,,,,,,,,,,m,1,1.347,,,,,,,,0.287777778,-0.218888889,0,0,0,,0,61,61,1,1,PLANK,HB,old,m,./images/PLANKHB.png,,,,,,,,,,,,,,,,,,,,,,
,,,,,,,,,,,,,,,,,199240,18,2022-01-28_21h13.55,lexical_decision_task_DD,2021.2.3,MacIntel,62.5,,,,,,,,,,,0.925,1,,,,,,,,,,,,,,m,1,0.925,,,,,,,,0.287777778,-0.218888889,0,0,0,,0,62,62,22,1,MELON,HB,old,m,./images/MELONHB.png,,,,,,,,,,,,,,,,,,,,,,
,,,,,,,,,,,,,,,,,199240,18,2022-01-28_21h13.55,lexical_decision_task_DD,2021.2.3,MacIntel,62.5,,,,,,,,,,,0.559,1,,,,,,,,,,,,,,m,1,0.559,,,,,,,,0.287777778,-0.218888889,0,0,0,,0,63,63,66,1,SWEAT,C,old,m,./images/SWEAT.png,,,,,,,,,,,,,,,,,,,,,,
,,,,,,,,,,,,,,,,,199240,18,2022-01-28_21h13.55,lexical_decision_task_DD,2021.2.3,MacIntel,62.5,,,,,,,,,,,1.009,1,,,,,,,,,,,,,,m,1,1.009,,,,,,,,0.287777778,-0.218888889,0,0,0,,0,64,64,38,1,LADDER,LB,old,m,./images/LADDERLB.png,,,,,,,,,,,,,,,,,,,,,,
,,,,,,,,,,,,,,,,,199240,18,2022-01-28_21h13.55,lexical_decision_task_DD,2021.2.3,MacIntel,62.5,,,,,,,,,,,0.808,1,,,,,,,,,,,,,,z,1,0.808,,,,,,,,0.287777778,-0.218888889,0,0,0,,0,65,65,89,1,DRIEK,LB,old,z,./images/DRIEKLB.png,,,,,,,,,,,,,,,,,,,,,,
,,,,,,,,,,,,,,,,,199240,18,2022-01-28_21h13.55,lexical_decision_task_DD,2021.2.3,MacIntel,62.5,,,,,,,,,,,0.879,1,,,,,,,,,,,,,,z,1,0.879,,,,,,,,0.287777778,-0.218888889,0,0,0,,0,66,66,96,1,KEAMS,C,old,z,./images/KEAMS.png,,,,,,,,,,,,,,,,,,,,,,
,,,,,,,,,,,,,,,,,199240,18,2022-01-28_21h13.55,lexical_decision_task_DD,2021.2.3,MacIntel,62.5,,,,,,,,,,,1.105,1,,,,,,,,,,,,,,z,1,1.105,,,,,,,,0.287777778,-0.218888889,0,0,0,,0,67,67,119,1,PAFER,LB,old,z,./images/PAFERLB.png,,,,,,,,,,,,,,,,,,,,,,
,,,,,,,,,,,,,,,,,199240,18,2022-01-28_21h13.55,lexical_decision_task_DD,2021.2.3,MacIntel,62.5,,,,,,,,,,,2.014,0,,,,,,,,,,,,,,z,0,2.014,,,,,,,,0.287777778,-0.218888889,0,0,0,,0,68,68,31,1,QUILL,HB,old,m,./images/QUILLHB.png,,,,,,,,,,,,,,,,,,,,,,
,,,,,,,,,,,,,,,,,199240,18,2022-01-28_21h13.55,lexical_decision_task_DD,2021.2.3,MacIntel,62.5,,,,,,,,,,,0.891,1,,,,,,,,,,,,,,z,1,0.891,,,,,,,,0.287777778,-0.218888889,0,0,0,,0,69,69,102,1,DULLE,C,old,z,./images/DULLE.png,,,,,,,,,,,,,,,,,,,,,,
,,,,,,,,,,,,,,,,,199240,18,2022-01-28_21h13.55,lexical_decision_task_DD,2021.2.3,MacIntel,62.5,,,,,,,,,,,0.724,1,,,,,,,,,,,,,,m,1,0.724,,,,,,,,0.287777778,-0.218888889,0,0,0,,0,70,70,9,1,RHINO,C,old,m,./images/RHINO.png,,,,,,,,,,,,,,,,,,,,,,
,,,,,,,,,,,,,,,,,199240,18,2022-01-28_21h13.55,lexical_decision_task_DD,2021.2.3,MacIntel,62.5,,,,,,,,,,,0.723,1,,,,,,,,,,,,,,m,1,0.723,,,,,,,,0.287777778,-0.218888889,0,0,0,,0,71,71,73,1,SNACK,HB,old,m,./images/SNACKHB.png,,,,,,,,,,,,,,,,,,,,,,
,,,,,,,,,,,,,,,,,199240,18,2022-01-28_21h13.55,lexical_decision_task_DD,2021.2.3,MacIntel,62.5,,,,,,,,,,,0.523,1,,,,,,,,,,,,,,m,1,0.523,,,,,,,,0.287777778,-0.218888889,0,0,0,,0,72,72,35,1,PEACH,LB,old,m,./images/PEACHLB.png,,,,,,,,,,,,,,,,,,,,,,
,,,,,,,,,,,,,,,,,199240,18,2022-01-28_21h13.55,lexical_decision_task_DD,2021.2.3,MacIntel,62.5,,,,,,,,,,,1.397,1,,,,,,,,,,,,,,z,1,1.397,,,,,,,,0.287777778,-0.218888889,0,0,0,,0,73,73,94,1,BLANS,HB,old,z,./images/BLANSHB.png,,,,,,,,,,,,,,,,,,,,,,
,,,,,,,,,,,,,,,,,199240,18,2022-01-28_21h13.55,lexical_decision_task_DD,2021.2.3,MacIntel,62.5,,,,,,,,,,,0.911,1,,,,,,,,,,,,,,m,1,0.911,,,,,,,,0.287777778,-0.218888889,0,0,0,,0,74,74,82,1,SUNSET,HB,old,m,./images/SUNSETHB.png,,,,,,,,,,,,,,,,,,,,,,
,,,,,,,,,,,,,,,,,199240,18,2022-01-28_21h13.55,lexical_decision_task_DD,2021.2.3,MacIntel,62.5,,,,,,,,,,,0.925,1,,,,,,,,,,,,,,z,1,0.925,,,,,,,,0.287777778,-0.218888889,0,0,0,,0,75,75,137,1,JOOST,LB,old,z,./images/JOOSTLB.png,,,,,,,,,,,,,,,,,,,,,,
,,,,,,,,,,,,,,,,,199240,18,2022-01-28_21h13.55,lexical_decision_task_DD,2021.2.3,MacIntel,62.5,,,,,,,,,,,0.692,1,,,,,,,,,,,,,,m,1,0.692,,,,,,,,0.287777778,-0.218888889,0,0,0,,0,76,76,47,1,BERRY,LB,old,m,./images/BERRYLB.png,,,,,,,,,,,,,,,,,,,,,,
,,,,,,,,,,,,,,,,,199240,18,2022-01-28_21h13.55,lexical_decision_task_DD,2021.2.3,MacIntel,62.5,,,,,,,,,,,0.788,1,,,,,,,,,,,,,,m,1,0.788,,,,,,,,0.287777778,-0.218888889,0,0,0,,0,77,77,49,1,DRUMS,HB,old,m,./images/DRUMSHB.png,,,,,,,,,,,,,,,,,,,,,,
,,,,,,,,,,,,,,,,,199240,18,2022-01-28_21h13.55,lexical_decision_task_DD,2021.2.3,MacIntel,62.5,,,,,,,,,,,1.458,1,,,,,,,,,,,,,,z,1,1.458,,,,,,,,0.287777778,-0.218888889,0,0,0,,0,78,78,142,1,PLASK,HB,old,z,./images/PLASKHB.png,,,,,,,,,,,,,,,,,,,,,,
,,,,,,,,,,,,,,,,,199240,18,2022-01-28_21h13.55,lexical_decision_task_DD,2021.2.3,MacIntel,62.5,,,,,,,,,,,1.431,1,,,,,,,,,,,,,,z,1,1.431,,,,,,,,0.287777778,-0.218888889,0,0,0,,0,79,79,98,1,BAMPS,LB,old,z,./images/BAMPSLB.png,,,,,,,,,,,,,,,,,,,,,,
,,,,,,,,,,,,,,,,,199240,18,2022-01-28_21h13.55,lexical_decision_task_DD,2021.2.3,MacIntel,62.5,,,,,,,,,,,0.664,1,,,,,,,,,,,,,,m,1,0.664,,,,,,,,0.287777778,-0.218888889,0,0,0,,0,80,80,53,1,CARPET,LB,old,m,./images/CARPETLB.png,,,,,,,,,,,,,,,,,,,,,,
,,,,,,,,,,,,,,,,,199240,18,2022-01-28_21h13.55,lexical_decision_task_DD,2021.2.3,MacIntel,62.5,,,,,,,,,,,0.774,1,,,,,,,,,,,,,,z,1,0.774,,,,,,,,0.287777778,-0.218888889,0,0,0,,0,81,81,143,1,MONGS,LB,old,z,./images/MONGSLB.png,,,,,,,,,,,,,,,,,,,,,,
,,,,,,,,,,,,,,,,,199240,18,2022-01-28_21h13.55,lexical_decision_task_DD,2021.2.3,MacIntel,62.5,,,,,,,,,,,0.647,1,,,,,,,,,,,,,,m,1,0.647,,,,,,,,0.287777778,-0.218888889,0,0,0,,0,82,82,57,1,MOOSE,C,old,m,./images/MOOSE.png,,,,,,,,,,,,,,,,,,,,,,
,,,,,,,,,,,,,,,,,199240,18,2022-01-28_21h13.55,lexical_decision_task_DD,2021.2.3,MacIntel,62.5,,,,,,,,,,,0.898,1,,,,,,,,,,,,,,z,1,0.898,,,,,,,,0.287777778,-0.218888889,0,0,0,space,0,83,83,124,1,TUNCH,HB,old,z,./images/TUNCHHB.png,17.072,,,,,,,,,,,,,,,,,,,,,
,,,,,,,,,,,,,,,,,199240,18,2022-01-28_21h13.55,lexical_decision_task_DD,2021.2.3,MacIntel,62.5,,,,,,,,,,,0.987,1,,,,,,,,,,,,,,m,1,0.987,,,,,,,,0.287777778,-0.218888889,0,0,0,,0,84,84,21,1,KIDNEY,C,old,m,./images/KIDNEY.png,,,,,,,,,,,,,,,,,,,,,,
,,,,,,,,,,,,,,,,,199240,18,2022-01-28_21h13.55,lexical_decision_task_DD,2021.2.3,MacIntel,62.5,,,,,,,,,,,1.275,1,,,,,,,,,,,,,,m,1,1.275,,,,,,,,0.287777778,-0.218888889,0,0,0,,0,85,85,52,1,BANNER,HB,old,m,./images/BANNERHB.png,,,,,,,,,,,,,,,,,,,,,,
,,,,,,,,,,,,,,,,,199240,18,2022-01-28_21h13.55,lexical_decision_task_DD,2021.2.3,MacIntel,62.5,,,,,,,,,,,0.99,1,,,,,,,,,,,,,,z,1,0.99,,,,,,,,0.287777778,-0.218888889,0,0,0,,0,86,86,141,1,PLEET,C,old,z,./images/PLEET.png,,,,,,,,,,,,,,,,,,,,,,
,,,,,,,,,,,,,,,,,199240,18,2022-01-28_21h13.55,lexical_decision_task_DD,2021.2.3,MacIntel,62.5,,,,,,,,,,,1.364,1,,,,,,,,,,,,,,z,1,1.364,,,,,,,,0.287777778,-0.218888889,0,0,0,,0,87,87,91,1,SHENS,HB,old,z,./images/SHENSHB.png,,,,,,,,,,,,,,,,,,,,,,
,,,,,,,,,,,,,,,,,199240,18,2022-01-28_21h13.55,lexical_decision_task_DD,2021.2.3,MacIntel,62.5,,,,,,,,,,,1.089,1,,,,,,,,,,,,,,m,1,1.089,,,,,,,,0.287777778,-0.218888889,0,0,0,,0,88,88,37,1,BIRTH,HB,old,m,./images/BIRTHHB.png,,,,,,,,,,,,,,,,,,,,,,
,,,,,,,,,,,,,,,,,199240,18,2022-01-28_21h13.55,lexical_decision_task_DD,2021.2.3,MacIntel,62.5,,,,,,,,,,,0.68,1,,,,,,,,,,,,,,m,1,0.68,,,,,,,,0.287777778,-0.218888889,0,0,0,,0,89,89,20,1,CRADLE,LB,old,m,./images/CRADLELB.png,,,,,,,,,,,,,,,,,,,,,,
,,,,,,,,,,,,,,,,,199240,18,2022-01-28_21h13.55,lexical_decision_task_DD,2021.2.3,MacIntel,62.5,,,,,,,,,,,0.601,1,,,,,,,,,,,,,,m,1,0.601,,,,,,,,0.287777778,-0.218888889,0,0,0,,0,90,90,59,1,BURIAL,LB,old,m,./images/BURIALLB.png,,,,,,,,,,,,,,,,,,,,,,
,,,,,,,,,,,,,,,,,199240,18,2022-01-28_21h13.55,lexical_decision_task_DD,2021.2.3,MacIntel,62.5,,,,,,,,,,,0.838,1,,,,,,,,,,,,,,z,1,0.838,,,,,,,,0.287777778,-0.218888889,0,0,0,,0,91,91,136,1,WERVE,HB,old,z,./images/WERVEHB.png,,,,,,,,,,,,,,,,,,,,,,
,,,,,,,,,,,,,,,,,199240,18,2022-01-28_21h13.55,lexical_decision_task_DD,2021.2.3,MacIntel,62.5,,,,,,,,,,,1.041,1,,,,,,,,,,,,,,z,1,1.041,,,,,,,,0.287777778,-0.218888889,0,0,0,,0,92,92,123,1,SEDGE,C,old,z,./images/SEDGE.png,,,,,,,,,,,,,,,,,,,,,,
,,,,,,,,,,,,,,,,,199240,18,2022-01-28_21h13.55,lexical_decision_task_DD,2021.2.3,MacIntel,62.5,,,,,,,,,,,0.805,1,,,,,,,,,,,,,,m,1,0.805,,,,,,,,0.287777778,-0.218888889,0,0,0,,0,93,93,29,1,CRUMB,LB,old,m,./images/CRUMBLB.png,,,,,,,,,,,,,,,,,,,,,,
,,,,,,,,,,,,,,,,,199240,18,2022-01-28_21h13.55,lexical_decision_task_DD,2021.2.3,MacIntel,62.5,,,,,,,,,,,0.762,1,,,,,,,,,,,,,,z,1,0.762,,,,,,,,0.287777778,-0.218888889,0,0,0,,0,94,94,135,1,JOODY,C,old,z,./images/JOODY.png,,,,,,,,,,,,,,,,,,,,,,
,,,,,,,,,,,,,,,,,199240,18,2022-01-28_21h13.55,lexical_decision_task_DD,2021.2.3,MacIntel,62.5,,,,,,,,,,,0.628,1,,,,,,,,,,,,,,m,1,0.628,,,,,,,,0.287777778,-0.218888889,0,0,0,,0,95,95,56,1,PACKET,LB,old,m,./images/PACKETLB.png,,,,,,,,,,,,,,,,,,,,,,
,,,,,,,,,,,,,,,,,199240,18,2022-01-28_21h13.55,lexical_decision_task_DD,2021.2.3,MacIntel,62.5,,,,,,,,,,,0.841,1,,,,,,,,,,,,,,z,1,0.841,,,,,,,,0.287777778,-0.218888889,0,0,0,,0,96,96,87,1,TRING,C,old,z,./images/TRING.png,,,,,,,,,,,,,,,,,,,,,,
,,,,,,,,,,,,,,,,,199240,18,2022-01-28_21h13.55,lexical_decision_task_DD,2021.2.3,MacIntel,62.5,,,,,,,,,,,1.005,1,,,,,,,,,,,,,,z,1,1.005,,,,,,,,0.287777778,-0.218888889,0,0,0,,0,97,97,90,1,NEAST,C,old,z,./images/NEAST.png,,,,,,,,,,,,,,,,,,,,,,
,,,,,,,,,,,,,,,,,199240,18,2022-01-28_21h13.55,lexical_decision_task_DD,2021.2.3,MacIntel,62.5,,,,,,,,,,,0.617,1,,,,,,,,,,,,,,m,1,0.617,,,,,,,,0.287777778,-0.218888889,0,0,0,,0,98,98,68,1,TORCH,LB,old,m,./images/TORCHLB.png,,,,,,,,,,,,,,,,,,,,,,
,,,,,,,,,,,,,,,,,199240,18,2022-01-28_21h13.55,lexical_decision_task_DD,2021.2.3,MacIntel,62.5,,,,,,,,,,,1.107,1,,,,,,,,,,,,,,m,1,1.107,,,,,,,,0.287777778,-0.218888889,0,0,0,,0,99,99,18,1,JAGUAR,C,old,m,./images/JAGUAR.png,,,,,,,,,,,,,,,,,,,,,,
,,,,,,,,,,,,,,,,,199240,18,2022-01-28_21h13.55,lexical_decision_task_DD,2021.2.3,MacIntel,62.5,,,,,,,,,,,1.065,1,,,,,,,,,,,,,,z,1,1.065,,,,,,,,0.287777778,-0.218888889,0,0,0,,0,100,100,120,1,RINED,C,old,z,./images/RINED.png,,,,,,,,,,,,,,,,,,,,,,
,,,,,,,,,,,,,,,,,199240,18,2022-01-28_21h13.55,lexical_decision_task_DD,2021.2.3,MacIntel,62.5,,,,,,,,,,,0.88,1,,,,,,,,,,,,,,m,1,0.88,,,,,,,,0.287777778,-0.218888889,0,0,0,,0,101,101,63,1,MIRROR,C,old,m,./images/MIRROR.png,,,,,,,,,,,,,,,,,,,,,,
,,,,,,,,,,,,,,,,,199240,18,2022-01-28_21h13.55,lexical_decision_task_DD,2021.2.3,MacIntel,62.5,,,,,,,,,,,0.907,1,,,,,,,,,,,,,,z,1,0.907,,,,,,,,0.287777778,-0.218888889,0,0,0,,0,102,102,134,1,TROSS,LB,old,z,./images/TROSSLB.png,,,,,,,,,,,,,,,,,,,,,,
,,,,,,,,,,,,,,,,,199240,18,2022-01-28_21h13.55,lexical_decision_task_DD,2021.2.3,MacIntel,62.5,,,,,,,,,,,0.919,1,,,,,,,,,,,,,,z,1,0.919,,,,,,,,0.287777778,-0.218888889,0,0,0,,0,103,103,153,1,CLUPS,C,old,z,./images/CLUPS.png,,,,,,,,,,,,,,,,,,,,,,
,,,,,,,,,,,,,,,,,199240,18,2022-01-28_21h13.55,lexical_decision_task_DD,2021.2.3,MacIntel,62.5,,,,,,,,,,,0.63,1,,,,,,,,,,,,,,m,1,0.63,,,,,,,,0.287777778,-0.218888889,0,0,0,,0,104,104,45,1,KITTEN,C,old,m,./images/KITTEN.png,,,,,,,,,,,,,,,,,,,,,,
,,,,,,,,,,,,,,,,,199240,18,2022-01-28_21h13.55,lexical_decision_task_DD,2021.2.3,MacIntel,62.5,,,,,,,,,,,1.513,1,,,,,,,,,,,,,,z,1,1.513,,,,,,,,0.287777778,-0.218888889,0,0,0,,0,105,105,103,1,FLORT,HB,old,z,./images/FLORTHB.png,,,,,,,,,,,,,,,,,,,,,,
,,,,,,,,,,,,,,,,,199240,18,2022-01-28_21h13.55,lexical_decision_task_DD,2021.2.3,MacIntel,62.5,,,,,,,,,,,0.682,1,,,,,,,,,,,,,,m,1,0.682,,,,,,,,0.287777778,-0.218888889,0,0,0,,0,106,106,60,1,TWINS,C,old,m,./images/TWINS.png,,,,,,,,,,,,,,,,,,,,,,
,,,,,,,,,,,,,,,,,199240,18,2022-01-28_21h13.55,lexical_decision_task_DD,2021.2.3,MacIntel,62.5,,,,,,,,,,,0.794,1,,,,,,,,,,,,,,z,1,0.794,,,,,,,,0.287777778,-0.218888889,0,0,0,,0,107,107,114,1,RIKES,C,old,z,./images/RIKES.png,,,,,,,,,,,,,,,,,,,,,,
,,,,,,,,,,,,,,,,,199240,18,2022-01-28_21h13.55,lexical_decision_task_DD,2021.2.3,MacIntel,62.5,,,,,,,,,,,0.756,1,,,,,,,,,,,,,,z,1,0.756,,,,,,,,0.287777778,-0.218888889,0,0,0,,0,108,108,117,1,STEEG,C,old,z,./images/STEEG.png,,,,,,,,,,,,,,,,,,,,,,
,,,,,,,,,,,,,,,,,199240,18,2022-01-28_21h13.55,lexical_decision_task_DD,2021.2.3,MacIntel,62.5,,,,,,,,,,,1.021,1,,,,,,,,,,,,,,m,1,1.021,,,,,,,,0.287777778,-0.218888889,0,0,0,,0,109,109,19,1,DOUGH,HB,old,m,./images/DOUGHHB.png,,,,,,,,,,,,,,,,,,,,,,
,,,,,,,,,,,,,,,,,199240,18,2022-01-28_21h13.55,lexical_decision_task_DD,2021.2.3,MacIntel,62.5,,,,,,,,,,,0.556,1,,,,,,,,,,,,,,m,1,0.556,,,,,,,,0.287777778,-0.218888889,0,0,0,,0,110,110,0,1,TOMATO,C,old,m,./images/TOMATO.png,,,,,,,,,,,,,,,,,,,,,,
,,,,,,,,,,,,,,,,,199240,18,2022-01-28_21h13.55,lexical_decision_task_DD,2021.2.3,MacIntel,62.5,,,,,,,,,,,0.691,1,,,,,,,,,,,,,,m,1,0.691,,,,,,,,0.287777778,-0.218888889,0,0,0,,0,111,111,72,1,NOOSE,C,old,m,./images/NOOSE.png,,,,,,,,,,,,,,,,,,,,,,
,,,,,,,,,,,,,,,,,199240,18,2022-01-28_21h13.55,lexical_decision_task_DD,2021.2.3,MacIntel,62.5,,,,,,,,,,,0.548,1,,,,,,,,,,,,,,m,1,0.548,,,,,,,,0.287777778,-0.218888889,0,0,0,,0,112,112,65,1,FARMER,LB,old,m,./images/FARMERLB.png,,,,,,,,,,,,,,,,,,,,,,
,,,,,,,,,,,,,,,,,199240,18,2022-01-28_21h13.55,lexical_decision_task_DD,2021.2.3,MacIntel,62.5,,,,,,,,,,,0.733,1,,,,,,,,,,,,,,m,1,0.733,,,,,,,,0.287777778,-0.218888889,0,0,0,,0,113,113,69,1,COOKER,C,old,m,./images/COOKER.png,,,,,,,,,,,,,,,,,,,,,,
,,,,,,,,,,,,,,,,,199240,18,2022-01-28_21h13.55,lexical_decision_task_DD,2021.2.3,MacIntel,62.5,,,,,,,,,,,1.645,1,,,,,,,,,,,,,,z,1,1.645,,,,,,,,0.287777778,-0.218888889,0,0,0,,0,114,114,85,1,CHULK,HB,old,z,./images/CHULKHB.png,,,,,,,,,,,,,,,,,,,,,,
,,,,,,,,,,,,,,,,,199240,18,2022-01-28_21h13.55,lexical_decision_task_DD,2021.2.3,MacIntel,62.5,,,,,,,,,,,1.523,1,,,,,,,,,,,,,,z,1,1.523,,,,,,,,0.287777778,-0.218888889,0,0,0,,0,115,115,154,1,THINT,HB,old,z,./images/THINTHB.png,,,,,,,,,,,,,,,,,,,,,,
,,,,,,,,,,,,,,,,,199240,18,2022-01-28_21h13.55,lexical_decision_task_DD,2021.2.3,MacIntel,62.5,,,,,,,,,,,0.879,1,,,,,,,,,,,,,,z,1,0.879,,,,,,,,0.287777778,-0.218888889,0,0,0,,0,116,116,147,1,ZOLES,C,old,z,./images/ZOLES.png,,,,,,,,,,,,,,,,,,,,,,
,,,,,,,,,,,,,,,,,199240,18,2022-01-28_21h13.55,lexical_decision_task_DD,2021.2.3,MacIntel,62.5,,,,,,,,,,,0.823,1,,,,,,,,,,,,,,z,1,0.823,,,,,,,,0.287777778,-0.218888889,0,0,0,,0,117,117,167,1,ZONET,LB,old,z,./images/ZONETLB.png,,,,,,,,,,,,,,,,,,,,,,
,,,,,,,,,,,,,,,,,199240,18,2022-01-28_21h13.55,lexical_decision_task_DD,2021.2.3,MacIntel,62.5,,,,,,,,,,,0.649,1,,,,,,,,,,,,,,m,1,0.649,,,,,,,,0.287777778,-0.218888889,0,0,0,,0,118,118,71,1,PIMPLE,LB,old,m,./images/PIMPLELB.png,,,,,,,,,,,,,,,,,,,,,,
,,,,,,,,,,,,,,,,,199240,18,2022-01-28_21h13.55,lexical_decision_task_DD,2021.2.3,MacIntel,62.5,,,,,,,,,,,0.625,1,,,,,,,,,,,,,,m,1,0.625,,,,,,,,0.287777778,-0.218888889,0,0,0,,0,119,119,83,1,JUNGLE,LB,old,m,./images/JUNGLELB.png,,,,,,,,,,,,,,,,,,,,,,
,,,,,,,,,,,,,,,,,199240,18,2022-01-28_21h13.55,lexical_decision_task_DD,2021.2.3,MacIntel,62.5,,,,,,,,,,,1.107,1,,,,,,,,,,,,,,m,1,1.107,,,,,,,,0.287777778,-0.218888889,0,0,0,,0,120,120,58,1,BABOON,HB,old,m,./images/BABOONHB.png,,,,,,,,,,,,,,,,,,,,,,
,,,,,,,,,,,,,,,,,199240,18,2022-01-28_21h13.55,lexical_decision_task_DD,2021.2.3,MacIntel,62.5,,,,,,,,,,,0.781,1,,,,,,,,,,,,,,z,1,0.781,,,,,,,,0.287777778,-0.218888889,0,0,0,,0,121,121,132,1,SCIFF,C,old,z,./images/SCIFF.png,,,,,,,,,,,,,,,,,,,,,,
,,,,,,,,,,,,,,,,,199240,18,2022-01-28_21h13.55,lexical_decision_task_DD,2021.2.3,MacIntel,62.5,,,,,,,,,,,1.033,1,,,,,,,,,,,,,,z,1,1.033,,,,,,,,0.287777778,-0.218888889,0,0,0,,0,122,122,105,1,MOKER,C,old,z,./images/MOKER.png,,,,,,,,,,,,,,,,,,,,,,
,,,,,,,,,,,,,,,,,199240,18,2022-01-28_21h13.55,lexical_decision_task_DD,2021.2.3,MacIntel,62.5,,,,,,,,,,,0.806,1,,,,,,,,,,,,,,m,1,0.806,,,,,,,,0.287777778,-0.218888889,0,0,0,,0,123,123,26,1,SMOKER,LB,old,m,./images/SMOKERLB.png,,,,,,,,,,,,,,,,,,,,,,
,,,,,,,,,,,,,,,,,199240,18,2022-01-28_21h13.55,lexical_decision_task_DD,2021.2.3,MacIntel,62.5,,,,,,,,,,,1.346,1,,,,,,,,,,,,,,m,1,1.346,,,,,,,,0.287777778,-0.218888889,0,0,0,,0,124,124,25,1,WRIST,HB,old,m,./images/WRISTHB.png,,,,,,,,,,,,,,,,,,,,,,
,,,,,,,,,,,,,,,,,199240,18,2022-01-28_21h13.55,lexical_decision_task_DD,2021.2.3,MacIntel,62.5,,,,,,,,,,,0.94,1,,,,,,,,,,,,,,z,1,0.94,,,,,,,,0.287777778,-0.218888889,0,0,0,space,0,125,125,140,1,DOVET,LB,old,z,./images/DOVETLB.png,16.41,,,,,,,,,,,,,,,,,,,,,
,,,,,,,,,,,,,,,,,199240,18,2022-01-28_21h13.55,lexical_decision_task_DD,2021.2.3,MacIntel,62.5,,,,,,,,,,,1.845,1,,,,,,,,,,,,,,z,1,1.845,,,,,,,,0.287777778,-0.218888889,0,0,0,,0,126,126,130,1,CRILL,HB,old,z,./images/CRILLHB.png,,,,,,,,,,,,,,,,,,,,,,
,,,,,,,,,,,,,,,,,199240,18,2022-01-28_21h13.55,lexical_decision_task_DD,2021.2.3,MacIntel,62.5,,,,,,,,,,,0.967,1,,,,,,,,,,,,,,m,1,0.967,,,,,,,,0.287777778,-0.218888889,0,0,0,,0,127,127,34,1,CANYON,HB,old,m,./images/CANYONHB.png,,,,,,,,,,,,,,,,,,,,,,
,,,,,,,,,,,,,,,,,199240,18,2022-01-28_21h13.55,lexical_decision_task_DD,2021.2.3,MacIntel,62.5,,,,,,,,,,,0.94,1,,,,,,,,,,,,,,m,1,0.94,,,,,,,,0.287777778,-0.218888889,0,0,0,,0,128,128,28,1,FALCON,HB,old,m,./images/FALCONHB.png,,,,,,,,,,,,,,,,,,,,,,
,,,,,,,,,,,,,,,,,199240,18,2022-01-28_21h13.55,lexical_decision_task_DD,2021.2.3,MacIntel,62.5,,,,,,,,,,,1.598,1,,,,,,,,,,,,,,m,1,1.598,,,,,,,,0.287777778,-0.218888889,0,0,0,,0,129,129,43,1,MOSQUE,HB,old,m,./images/MOSQUEHB.png,,,,,,,,,,,,,,,,,,,,,,
,,,,,,,,,,,,,,,,,199240,18,2022-01-28_21h13.55,lexical_decision_task_DD,2021.2.3,MacIntel,62.5,,,,,,,,,,,0.79,1,,,,,,,,,,,,,,m,1,0.79,,,,,,,,0.287777778,-0.218888889,0,0,0,,0,130,130,8,1,TULIP,LB,old,m,./images/TULIPLB.png,,,,,,,,,,,,,,,,,,,,,,
,,,,,,,,,,,,,,,,,199240,18,2022-01-28_21h13.55,lexical_decision_task_DD,2021.2.3,MacIntel,62.5,,,,,,,,,,,0.558,1,,,,,,,,,,,,,,m,1,0.558,,,,,,,,0.287777778,-0.218888889,0,0,0,,0,131,131,44,1,LIZARD,LB,old,m,./images/LIZARDLB.png,,,,,,,,,,,,,,,,,,,,,,
,,,,,,,,,,,,,,,,,199240,18,2022-01-28_21h13.55,lexical_decision_task_DD,2021.2.3,MacIntel,62.5,,,,,,,,,,,0.746,1,,,,,,,,,,,,,,z,1,0.746,,,,,,,,0.287777778,-0.218888889,0,0,0,,0,132,132,156,1,HIXES,C,old,z,./images/HIXES.png,,,,,,,,,,,,,,,,,,,,,,
,,,,,,,,,,,,,,,,,199240,18,2022-01-28_21h13.55,lexical_decision_task_DD,2021.2.3,MacIntel,62.5,,,,,,,,,,,0.99,1,,,,,,,,,,,,,,z,1,0.99,,,,,,,,0.287777778,-0.218888889,0,0,0,,0,133,133,151,1,TINKY,HB,old,z,./images/TINKYHB.png,,,,,,,,,,,,,,,,,,,,,,
,,,,,,,,,,,,,,,,,199240,18,2022-01-28_21h13.55,lexical_decision_task_DD,2021.2.3,MacIntel,62.5,,,,,,,,,,,1.766,0,,,,,,,,,,,,,,z,0,1.766,,,,,,,,0.287777778,-0.218888889,0,0,0,,0,134,134,16,1,PENCE,HB,old,m,./images/PENCEHB.png,,,,,,,,,,,,,,,,,,,,,,
,,,,,,,,,,,,,,,,,199240,18,2022-01-28_21h13.55,lexical_decision_task_DD,2021.2.3,MacIntel,62.5,,,,,,,,,,,0.896,1,,,,,,,,,,,,,,z,1,0.896,,,,,,,,0.287777778,-0.218888889,0,0,0,,0,135,135,101,1,GLEET,LB,old,z,./images/GLEETLB.png,,,,,,,,,,,,,,,,,,,,,,
,,,,,,,,,,,,,,,,,199240,18,2022-01-28_21h13.55,lexical_decision_task_DD,2021.2.3,MacIntel,62.5,,,,,,,,,,,0.796,1,,,,,,,,,,,,,,m,1,0.796,,,,,,,,0.287777778,-0.218888889,0,0,0,,0,136,136,76,1,INFANT,HB,old,m,./images/INFANTHB.png,,,,,,,,,,,,,,,,,,,,,,
,,,,,,,,,,,,,,,,,199240,18,2022-01-28_21h13.55,lexical_decision_task_DD,2021.2.3,MacIntel,62.5,,,,,,,,,,,0.656,1,,,,,,,,,,,,,,m,1,0.656,,,,,,,,0.287777778,-0.218888889,0,0,0,,0,137,137,23,1,WALRUS,LB,old,m,./images/WALRUSLB.png,,,,,,,,,,,,,,,,,,,,,,
,,,,,,,,,,,,,,,,,199240,18,2022-01-28_21h13.55,lexical_decision_task_DD,2021.2.3,MacIntel,62.5,,,,,,,,,,,0.878,1,,,,,,,,,,,,,,z,1,0.878,,,,,,,,0.287777778,-0.218888889,0,0,0,,0,138,138,131,1,NACES,LB,old,z,./images/NACESLB.png,,,,,,,,,,,,,,,,,,,,,,
,,,,,,,,,,,,,,,,,199240,18,2022-01-28_21h13.55,lexical_decision_task_DD,2021.2.3,MacIntel,62.5,,,,,,,,,,,0.865,1,,,,,,,,,,,,,,z,1,0.865,,,,,,,,0.287777778,-0.218888889,0,0,0,,0,139,139,95,1,HANTY,LB,old,z,./images/HANTYLB.png,,,,,,,,,,,,,,,,,,,,,,
,,,,,,,,,,,,,,,,,199240,18,2022-01-28_21h13.55,lexical_decision_task_DD,2021.2.3,MacIntel,62.5,,,,,,,,,,,1.079,1,,,,,,,,,,,,,,z,1,1.079,,,,,,,,0.287777778,-0.218888889,0,0,0,,0,140,140,146,1,MOOST,LB,old,z,./images/MOOSTLB.png,,,,,,,,,,,,,,,,,,,,,,
,,,,,,,,,,,,,,,,,199240,18,2022-01-28_21h13.55,lexical_decision_task_DD,2021.2.3,MacIntel,62.5,,,,,,,,,,,0.813,1,,,,,,,,,,,,,,z,1,0.813,,,,,,,,0.287777778,-0.218888889,0,0,0,,0,141,141,110,1,CRUNK,LB,old,z,./images/CRUNKLB.png,,,,,,,,,,,,,,,,,,,,,,
,,,,,,,,,,,,,,,,,199240,18,2022-01-28_21h13.55,lexical_decision_task_DD,2021.2.3,MacIntel,62.5,,,,,,,,,,,0.742,1,,,,,,,,,,,,,,z,1,0.742,,,,,,,,0.287777778,-0.218888889,0,0,0,,0,142,142,111,1,HOSSE,C,old,z,./images/HOSSE.png,,,,,,,,,,,,,,,,,,,,,,
,,,,,,,,,,,,,,,,,199240,18,2022-01-28_21h13.55,lexical_decision_task_DD,2021.2.3,MacIntel,62.5,,,,,,,,,,,0.899,1,,,,,,,,,,,,,,z,1,0.899,,,,,,,,0.287777778,-0.218888889,0,0,0,,0,143,143,107,1,FASKS,LB,old,z,./images/FASKSLB.png,,,,,,,,,,,,,,,,,,,,,,
,,,,,,,,,,,,,,,,,199240,18,2022-01-28_21h13.55,lexical_decision_task_DD,2021.2.3,MacIntel,62.5,,,,,,,,,,,0.78,1,,,,,,,,,,,,,,z,1,0.78,,,,,,,,0.287777778,-0.218888889,0,0,0,,0,144,144,164,1,SGREW,LB,old,z,./images/SGREWLB.png,,,,,,,,,,,,,,,,,,,,,,
,,,,,,,,,,,,,,,,,199240,18,2022-01-28_21h13.55,lexical_decision_task_DD,2021.2.3,MacIntel,62.5,,,,,,,,,,,0.963,1,,,,,,,,,,,,,,z,1,0.963,,,,,,,,0.287777778,-0.218888889,0,0,0,,0,145,145,113,1,LINEW,LB,old,z,./images/LINEWLB.png,,,,,,,,,,,,,,,,,,,,,,
,,,,,,,,,,,,,,,,,199240,18,2022-01-28_21h13.55,lexical_decision_task_DD,2021.2.3,MacIntel,62.5,,,,,,,,,,,0.856,1,,,,,,,,,,,,,,m,1,0.856,,,,,,,,0.287777778,-0.218888889,0,0,0,,0,146,146,7,1,PAINT,HB,old,m,./images/PAINTHB.png,,,,,,,,,,,,,,,,,,,,,,
,,,,,,,,,,,,,,,,,199240,18,2022-01-28_21h13.55,lexical_decision_task_DD,2021.2.3,MacIntel,62.5,,,,,,,,,,,0.633,1,,,,,,,,,,,,,,m,1,0.633,,,,,,,,0.287777778,-0.218888889,0,0,0,,0,147,147,11,1,BONNET,LB,old,m,./images/BONNETLB.png,,,,,,,,,,,,,,,,,,,,,,
,,,,,,,,,,,,,,,,,199240,18,2022-01-28_21h13.55,lexical_decision_task_DD,2021.2.3,MacIntel,62.5,,,,,,,,,,,1.506,1,,,,,,,,,,,,,,z,1,1.506,,,,,,,,0.287777778,-0.218888889,0,0,0,,0,148,148,133,1,POWDY,HB,old,z,./images/POWDYHB.png,,,,,,,,,,,,,,,,,,,,,,
,,,,,,,,,,,,,,,,,199240,18,2022-01-28_21h13.55,lexical_decision_task_DD,2021.2.3,MacIntel,62.5,,,,,,,,,,,0.809,1,,,,,,,,,,,,,,z,1,0.809,,,,,,,,0.287777778,-0.218888889,0,0,0,,0,149,149,93,1,SMONE,C,old,z,./images/SMONE.png,,,,,,,,,,,,,,,,,,,,,,
,,,,,,,,,,,,,,,,,199240,18,2022-01-28_21h13.55,lexical_decision_task_DD,2021.2.3,MacIntel,62.5,,,,,,,,,,,0.696,1,,,,,,,,,,,,,,z,1,0.696,,,,,,,,0.287777778,-0.218888889,0,0,0,,0,150,150,126,1,GUELS,C,old,z,./images/GUELS.png,,,,,,,,,,,,,,,,,,,,,,
,,,,,,,,,,,,,,,,,199240,18,2022-01-28_21h13.55,lexical_decision_task_DD,2021.2.3,MacIntel,62.5,,,,,,,,,,,0.964,1,,,,,,,,,,,,,,z,1,0.964,,,,,,,,0.287777778,-0.218888889,0,0,0,,0,151,151,84,1,HAXES,C,old,z,./images/HAXES.png,,,,,,,,,,,,,,,,,,,,,,
,,,,,,,,,,,,,,,,,199240,18,2022-01-28_21h13.55,lexical_decision_task_DD,2021.2.3,MacIntel,62.5,,,,,,,,,,,0.763,1,,,,,,,,,,,,,,z,1,0.763,,,,,,,,0.287777778,-0.218888889,0,0,0,,0,152,152,99,1,BACKY,C,old,z,./images/BACKY.png,,,,,,,,,,,,,,,,,,,,,,
,,,,,,,,,,,,,,,,,199240,18,2022-01-28_21h13.55,lexical_decision_task_DD,2021.2.3,MacIntel,62.5,,,,,,,,,,,0.765,1,,,,,,,,,,,,,,m,1,0.765,,,,,,,,0.287777778,-0.218888889,0,0,0,,0,153,153,24,1,SCREW,C,old,m,./images/SCREW.png,,,,,,,,,,,,,,,,,,,,,,
,,,,,,,,,,,,,,,,,199240,18,2022-01-28_21h13.55,lexical_decision_task_DD,2021.2.3,MacIntel,62.5,,,,,,,,,,,0.614,1,,,,,,,,,,,,,,m,1,0.614,,,,,,,,0.287777778,-0.218888889,0,0,0,,0,154,154,42,1,FOLDER,C,old,m,./images/FOLDER.png,,,,,,,,,,,,,,,,,,,,,,
,,,,,,,,,,,,,,,,,199240,18,2022-01-28_21h13.55,lexical_decision_task_DD,2021.2.3,MacIntel,62.5,,,,,,,,,,,1.365,1,,,,,,,,,,,,,,z,1,1.365,,,,,,,,0.287777778,-0.218888889,0,0,0,,0,155,155,118,1,BAVEL,HB,old,z,./images/BAVELHB.png,,,,,,,,,,,,,,,,,,,,,,
,,,,,,,,,,,,,,,,,199240,18,2022-01-28_21h13.55,lexical_decision_task_DD,2021.2.3,MacIntel,62.5,,,,,,,,,,,0.865,1,,,,,,,,,,,,,,m,1,0.865,,,,,,,,0.287777778,-0.218888889,0,0,0,,0,156,156,75,1,GRAIN,C,old,m,./images/GRAIN.png,,,,,,,,,,,,,,,,,,,,,,
,,,,,,,,,,,,,,,,,199240,18,2022-01-28_21h13.55,lexical_decision_task_DD,2021.2.3,MacIntel,62.5,,,,,,,,,,,0.64,1,,,,,,,,,,,,,,m,1,0.64,,,,,,,,0.287777778,-0.218888889,0,0,0,,0,157,157,51,1,ONION,C,old,m,./images/ONION.png,,,,,,,,,,,,,,,,,,,,,,
,,,,,,,,,,,,,,,,,199240,18,2022-01-28_21h13.55,lexical_decision_task_DD,2021.2.3,MacIntel,62.5,,,,,,,,,,,1.039,1,,,,,,,,,,,,,,m,1,1.039,,,,,,,,0.287777778,-0.218888889,0,0,0,,0,158,158,13,1,MOTOR,HB,old,m,./images/MOTORHB.png,,,,,,,,,,,,,,,,,,,,,,
,,,,,,,,,,,,,,,,,199240,18,2022-01-28_21h13.55,lexical_decision_task_DD,2021.2.3,MacIntel,62.5,,,,,,,,,,,1.997,1,,,,,,,,,,,,,,z,1,1.997,,,,,,,,0.287777778,-0.218888889,0,0,0,,0,159,159,145,1,LAMEL,HB,old,z,./images/LAMELHB.png,,,,,,,,,,,,,,,,,,,,,,
,,,,,,,,,,,,,,,,,199240,18,2022-01-28_21h13.55,lexical_decision_task_DD,2021.2.3,MacIntel,62.5,,,,,,,,,,,0.62,1,,,,,,,,,,,,,,m,1,0.62,,,,,,,,0.287777778,-0.218888889,0,0,0,,0,160,160,77,1,COUCH,LB,old,m,./images/COUCHLB.png,,,,,,,,,,,,,,,,,,,,,,
,,,,,,,,,,,,,,,,,199240,18,2022-01-28_21h13.55,lexical_decision_task_DD,2021.2.3,MacIntel,62.5,,,,,,,,,,,1.415,1,,,,,,,,,,,,,,z,1,1.415,,,,,,,,0.287777778,-0.218888889,0,0,0,,0,161,161,100,1,DRIBS,HB,old,z,./images/DRIBSHB.png,,,,,,,,,,,,,,,,,,,,,,
,,,,,,,,,,,,,,,,,199240,18,2022-01-28_21h13.55,lexical_decision_task_DD,2021.2.3,MacIntel,62.5,,,,,,,,,,,1.313,1,,,,,,,,,,,,,,z,1,1.313,,,,,,,,0.287777778,-0.218888889,0,0,0,,0,162,162,106,1,CLUMS,HB,old,z,./images/CLUMSHB.png,,,,,,,,,,,,,,,,,,,,,,
,,,,,,,,,,,,,,,,,199240,18,2022-01-28_21h13.55,lexical_decision_task_DD,2021.2.3,MacIntel,62.5,,,,,,,,,,,0.608,1,,,,,,,,,,,,,,m,1,0.608,,,,,,,,0.287777778,-0.218888889,0,0,0,,0,163,163,74,1,CEMENT,LB,old,m,./images/CEMENTLB.png,,,,,,,,,,,,,,,,,,,,,,
,,,,,,,,,,,,,,,,,199240,18,2022-01-28_21h13.55,lexical_decision_task_DD,2021.2.3,MacIntel,62.5,,,,,,,,,,,0.891,1,,,,,,,,,,,,,,z,1,0.891,,,,,,,,0.287777778,-0.218888889,0,0,0,,0,164,164,152,1,FRAIN,LB,old,z,./images/FRAINLB.png,,,,,,,,,,,,,,,,,,,,,,
,,,,,,,,,,,,,,,,,199240,18,2022-01-28_21h13.55,lexical_decision_task_DD,2021.2.3,MacIntel,62.5,,,,,,,,,,,1.544,1,,,,,,,,,,,,,,z,1,1.544,,,,,,,,0.287777778,-0.218888889,0,0,0,,0,165,165,97,1,CHIDS,HB,old,z,./images/CHIDSHB.png,,,,,,,,,,,,,,,,,,,,,,
,,,,,,,,,,,,,,,,,199240,18,2022-01-28_21h13.55,lexical_decision_task_DD,2021.2.3,MacIntel,62.5,,,,,,,,,,,0.746,1,,,,,,,,,,,,,,m,1,0.746,,,,,,,,0.287777778,-0.218888889,0,0,0,,0,166,166,10,1,BELLY,HB,old,m,./images/BELLYHB.png,,,,,,,,,,,,,,,,,,,,,,
,,,,,,,,,,,,,,,,,199240,18,2022-01-28_21h13.55,lexical_decision_task_DD,2021.2.3,MacIntel,62.5,,,,,,,,,,,1.107,1,,,,,,,,,,,,,,z,1,1.107,,,,,,,,0.287777778,-0.218888889,0,0,0,,0,167,167,127,1,NINDY,HB,old,z,./images/NINDYHB.png,,,,,,,,,,,,,,,,,,,,,,
space,43.622,0.361111111,-0.454444444,0,0,0,,,,,,1,test,"In the next phase you will be presented with the words from the the first phase. Your job is to decide whether you remember seeing the word or not. If you remember seeing the word press ""old"" or type ""m"". If you do not remember seeing the word press ""new"" or type ""z"". Please press the space bar or click on continue to begin. ",,,199240,18,2022-01-28_21h13.55,lexical_decision_task_DD,2021.2.3,MacIntel,62.5,,,,,,,,,,,,,,,,,,,,,,,,,,,,,,,,,,,,,,,,,,,,,,,,,,,,,0,0,0,0,1,,,,,,,,,,,,,,,,
space,2.258,0.361111111,-0.454444444,0,0,0,,,,,,1,test,"In the next phase you will be presented with the words from the the first phase. Your job is to decide whether you remember seeing the word or not. If you remember seeing the word press ""old"" or type ""m"". If you do not remember seeing the word press ""new"" or type ""z"". Please press the space bar or click on continue to begin. ",,,199240,18,2022-01-28_21h13.55,lexical_decision_task_DD,2021.2.3,MacIntel,62.5,,,,,,,,,,,,,,,,,,,,,,,,,,,,,,,,,,,,,,,,,,,,,,,,,,,,,1,0,1,0,1,,,,,,,,,,,,,,,,
space,2.402,0.07,-0.263333333,0,0,0,,,,,,1,test,"In the next phase you will be presented with the words from the the first phase. Your job is to decide whether you remember seeing the word or not. If you remember seeing the word press ""old"" or type ""m"". If you do not remember seeing the word press ""new"" or type ""z"". Please press the space bar or click on continue to begin. ",,,199240,18,2022-01-28_21h13.55,lexical_decision_task_DD,2021.2.3,MacIntel,62.5,,,,,,,,,,,,,,,,,,,,,,,,,,,,,,,,,,,,,,,,,,,,,,,,,,,,,2,0,2,0,1,,,,,,,,,,,,,,,,
space,1.725,0.07,-0.263333333,0,0,0,,,,,,1,test,"In the next phase you will be presented with the words from the the first phase. Your job is to decide whether you remember seeing the word or not. If you remember seeing the word press ""old"" or type ""m"". If you do not remember seeing the word press ""new"" or type ""z"". Please press the space bar or click on continue to begin. ",,,199240,18,2022-01-28_21h13.55,lexical_decision_task_DD,2021.2.3,MacIntel,62.5,,,,,,,,,,,,,,,,,,,,,,,,,,,,,,,,,,,,,,,,,,,,,,,,,,,,,3,0,3,0,1,,,,,,,,,,,,,,,,
,,0.036666667,-0.367777778,1,0,0,,,,,,1,test,"In the next phase you will be presented with the words from the the first phase. Your job is to decide whether you remember seeing the word or not. If you remember seeing the word press ""old"" or type ""m"". If you do not remember seeing the word press ""new"" or type ""z"". Please press the space bar or click on continue to begin. ",,,199240,18,2022-01-28_21h13.55,lexical_decision_task_DD,2021.2.3,MacIntel,62.5,,,,,,,,,,,,,,,,,,,,,,,,,,,,,,,,,,,,,,,,,,,,,,,,,,,,,4,0,4,0,1,instr_done_button,,,,,,,,,,,,,,,
,,,,,,,,,,,,,,,,,199240,18,2022-01-28_21h13.55,lexical_decision_task_DD,2021.2.3,MacIntel,62.5,,,,,,,,,,,3.156,0,,,,,,,,,,,,,,,,,,,,,,,,0.035555556,-0.15,0,0,0,,,,,,,DRILL,C,z,m,./images/DRILL.png,,,,,,,,m,0,3.156,,,,,,,,0,0,0,165,1
,,,,,,,,,,,,,,,,,199240,18,2022-01-28_21h13.55,lexical_decision_task_DD,2021.2.3,MacIntel,62.5,,,,,,,,,,,1.929,1,,,,,,,,,,,,,,,,,,,,,,,,0.035555556,-0.15,0,0,0,,,,,,,PARADE,LB,z,m,./images/PARADELB.png,,,,,,,,z,1,1.929,,,,,,,,0,1,1,101,1
,,,,,,,,,,,,,,,,,199240,18,2022-01-28_21h13.55,lexical_decision_task_DD,2021.2.3,MacIntel,62.5,,,,,,,,,,,1.248,1,,,,,,,,,,,,,,,,,,,,,,,,0.035555556,-0.15,0,0,0,,,,,,,SCREW,C,m,m,./images/SCREW.png,,,,,,,,m,1,1.248,,,,,,,,0,2,2,24,1
,,,,,,,,,,,,,,,,,199240,18,2022-01-28_21h13.55,lexical_decision_task_DD,2021.2.3,MacIntel,62.5,,,,,,,,,,,0.813,1,,,,,,,,,,,,,,,,,,,,,,,,0.035555556,-0.15,0,0,0,,,,,,,PURSE,LB,m,m,./images/PURSELB.png,,,,,,,,m,1,0.813,,,,,,,,0,3,3,62,1
,,,,,,,,,,,,,,,,,199240,18,2022-01-28_21h13.55,lexical_decision_task_DD,2021.2.3,MacIntel,62.5,,,,,,,,,,,0.723,1,,,,,,,,,,,,,,,,,,,,,,,,0.035555556,-0.15,0,0,0,,,,,,,TULIP,LB,m,m,./images/TULIPLB.png,,,,,,,,m,1,0.723,,,,,,,,0,4,4,8,1
,,,,,,,,,,,,,,,,,199240,18,2022-01-28_21h13.55,lexical_decision_task_DD,2021.2.3,MacIntel,62.5,,,,,,,,,,,1.008,1,,,,,,,,,,,,,,,,,,,,,,,,0.035555556,-0.15,0,0,0,,,,,,,RULER,HB,z,m,./images/RULERHB.png,,,,,,,,z,1,1.008,,,,,,,,0,5,5,163,1
,,,,,,,,,,,,,,,,,199240,18,2022-01-28_21h13.55,lexical_decision_task_DD,2021.2.3,MacIntel,62.5,,,,,,,,,,,1.308,1,,,,,,,,,,,,,,,,,,,,,,,,0.035555556,-0.15,0,0,0,,,,,,,SAUCE,C,z,m,./images/SAUCE.png,,,,,,,,z,1,1.308,,,,,,,,0,6,6,135,1
,,,,,,,,,,,,,,,,,199240,18,2022-01-28_21h13.55,lexical_decision_task_DD,2021.2.3,MacIntel,62.5,,,,,,,,,,,1.291,1,,,,,,,,,,,,,,,,,,,,,,,,0.035555556,-0.15,0,0,0,,,,,,,PARCEL,C,z,m,./images/PARCEL.png,,,,,,,,z,1,1.291,,,,,,,,0,7,7,102,1
,,,,,,,,,,,,,,,,,199240,18,2022-01-28_21h13.55,lexical_decision_task_DD,2021.2.3,MacIntel,62.5,,,,,,,,,,,0.78,1,,,,,,,,,,,,,,,,,,,,,,,,0.035555556,-0.15,0,0,0,,,,,,,MAGGOT,C,m,m,./images/MAGGOT.png,,,,,,,,m,1,0.78,,,,,,,,0,8,8,33,1
,,,,,,,,,,,,,,,,,199240,18,2022-01-28_21h13.55,lexical_decision_task_DD,2021.2.3,MacIntel,62.5,,,,,,,,,,,1.1,1,,,,,,,,,,,,,,,,,,,,,,,,0.035555556,-0.15,0,0,0,,,,,,,WHISKY,LB,z,m,./images/WHISKYLB.png,,,,,,,,z,1,1.1,,,,,,,,0,9,9,167,1
,,,,,,,,,,,,,,,,,199240,18,2022-01-28_21h13.55,lexical_decision_task_DD,2021.2.3,MacIntel,62.5,,,,,,,,,,,2.046,1,,,,,,,,,,,,,,,,,,,,,,,,0.035555556,-0.15,0,0,0,,,,,,,PEARL,HB,m,m,./images/PEARLHB.png,,,,,,,,m,1,2.046,,,,,,,,0,10,10,46,1
,,,,,,,,,,,,,,,,,199240,18,2022-01-28_21h13.55,lexical_decision_task_DD,2021.2.3,MacIntel,62.5,,,,,,,,,,,1.016,1,,,,,,,,,,,,,,,,,,,,,,,,0.035555556,-0.15,0,0,0,,,,,,,RAZOR,HB,z,m,./images/RAZORHB.png,,,,,,,,z,1,1.016,,,,,,,,0,11,11,118,1
,,,,,,,,,,,,,,,,,199240,18,2022-01-28_21h13.55,lexical_decision_task_DD,2021.2.3,MacIntel,62.5,,,,,,,,,,,0.922,1,,,,,,,,,,,,,,,,,,,,,,,,0.035555556,-0.15,0,0,0,,,,,,,CANOE,HB,z,m,./images/CANOEHB.png,,,,,,,,z,1,0.922,,,,,,,,0,12,12,142,1
,,,,,,,,,,,,,,,,,199240,18,2022-01-28_21h13.55,lexical_decision_task_DD,2021.2.3,MacIntel,62.5,,,,,,,,,,,0.98,1,,,,,,,,,,,,,,,,,,,,,,,,0.035555556,-0.15,0,0,0,,,,,,,LLAMA,LB,z,m,./images/LLAMALB.png,,,,,,,,z,1,0.98,,,,,,,,0,13,13,119,1
,,,,,,,,,,,,,,,,,199240,18,2022-01-28_21h13.55,lexical_decision_task_DD,2021.2.3,MacIntel,62.5,,,,,,,,,,,0.59,1,,,,,,,,,,,,,,,,,,,,,,,,0.035555556,-0.15,0,0,0,,,,,,,PIMPLE,LB,m,m,./images/PIMPLELB.png,,,,,,,,m,1,0.59,,,,,,,,0,14,14,71,1
,,,,,,,,,,,,,,,,,199240,18,2022-01-28_21h13.55,lexical_decision_task_DD,2021.2.3,MacIntel,62.5,,,,,,,,,,,0.646,1,,,,,,,,,,,,,,,,,,,,,,,,0.035555556,-0.15,0,0,0,,,,,,,STRING,LB,m,m,./images/STRINGLB.png,,,,,,,,m,1,0.646,,,,,,,,0,15,15,41,1
,,,,,,,,,,,,,,,,,199240,18,2022-01-28_21h13.55,lexical_decision_task_DD,2021.2.3,MacIntel,62.5,,,,,,,,,,,0.639,1,,,,,,,,,,,,,,,,,,,,,,,,0.035555556,-0.15,0,0,0,,,,,,,THROAT,C,m,m,./images/THROAT.png,,,,,,,,m,1,0.639,,,,,,,,0,16,16,36,1
,,,,,,,,,,,,,,,,,199240,18,2022-01-28_21h13.55,lexical_decision_task_DD,2021.2.3,MacIntel,62.5,,,,,,,,,,,1.473,1,,,,,,,,,,,,,,,,,,,,,,,,0.035555556,-0.15,0,0,0,,,,,,,WAGON,HB,z,m,./images/WAGONHB.png,,,,,,,,z,1,1.473,,,,,,,,0,17,17,91,1
,,,,,,,,,,,,,,,,,199240,18,2022-01-28_21h13.55,lexical_decision_task_DD,2021.2.3,MacIntel,62.5,,,,,,,,,,,0.672,1,,,,,,,,,,,,,,,,,,,,,,,,0.035555556,-0.15,0,0,0,,,,,,,MOSQUE,HB,m,m,./images/MOSQUEHB.png,,,,,,,,m,1,0.672,,,,,,,,0,18,18,43,1
,,,,,,,,,,,,,,,,,199240,18,2022-01-28_21h13.55,lexical_decision_task_DD,2021.2.3,MacIntel,62.5,,,,,,,,,,,1.598,1,,,,,,,,,,,,,,,,,,,,,,,,0.035555556,-0.15,0,0,0,,,,,,,SHIELD,C,z,m,./images/SHIELD.png,,,,,,,,z,1,1.598,,,,,,,,0,19,19,132,1
,,,,,,,,,,,,,,,,,199240,18,2022-01-28_21h13.55,lexical_decision_task_DD,2021.2.3,MacIntel,62.5,,,,,,,,,,,0.848,1,,,,,,,,,,,,,,,,,,,,,,,,0.035555556,-0.15,0,0,0,,,,,,,SKIING,LB,m,m,./images/SKIINGLB.png,,,,,,,,m,1,0.848,,,,,,,,0,20,20,17,1
,,,,,,,,,,,,,,,,,199240,18,2022-01-28_21h13.55,lexical_decision_task_DD,2021.2.3,MacIntel,62.5,,,,,,,,,,,0.591,1,,,,,,,,,,,,,,,,,,,,,,,,0.035555556,-0.15,0,0,0,,,,,,,CANDLE,HB,m,m,./images/CANDLEHB.png,,,,,,,,m,1,0.591,,,,,,,,0,21,21,61,1
,,,,,,,,,,,,,,,,,199240,18,2022-01-28_21h13.55,lexical_decision_task_DD,2021.2.3,MacIntel,62.5,,,,,,,,,,,1.419,0,,,,,,,,,,,,,,,,,,,,,,,,0.035555556,-0.15,0,0,0,,,,,,,FLASK,C,z,m,./images/FLASK.png,,,,,,,,m,0,1.419,,,,,,,,0,22,22,156,1
,,,,,,,,,,,,,,,,,199240,18,2022-01-28_21h13.55,lexical_decision_task_DD,2021.2.3,MacIntel,62.5,,,,,,,,,,,0.434,1,,,,,,,,,,,,,,,,,,,,,,,,0.035555556,-0.15,0,0,0,,,,,,,SWING,HB,m,m,./images/SWINGHB.png,,,,,,,,m,1,0.434,,,,,,,,0,23,23,40,1
,,,,,,,,,,,,,,,,,199240,18,2022-01-28_21h13.55,lexical_decision_task_DD,2021.2.3,MacIntel,62.5,,,,,,,,,,,0.649,1,,,,,,,,,,,,,,,,,,,,,,,,0.035555556,-0.15,0,0,0,,,,,,,SWEAT,C,m,m,./images/SWEAT.png,,,,,,,,m,1,0.649,,,,,,,,0,24,24,66,1
,,,,,,,,,,,,,,,,,199240,18,2022-01-28_21h13.55,lexical_decision_task_DD,2021.2.3,MacIntel,62.5,,,,,,,,,,,0.974,1,,,,,,,,,,,,,,,,,,,,,,,,0.035555556,-0.15,0,0,0,,,,,,,ARTIST,HB,z,m,./images/ARTISTHB.png,,,,,,,,z,1,0.974,,,,,,,,0,25,25,145,1
,,,,,,,,,,,,,,,,,199240,18,2022-01-28_21h13.55,lexical_decision_task_DD,2021.2.3,MacIntel,62.5,,,,,,,,,,,1.081,1,,,,,,,,,,,,,,,,,,,,,,,,0.035555556,-0.15,0,0,0,,,,,,,BAKER,C,z,m,./images/BAKER.png,,,,,,,,z,1,1.081,,,,,,,,0,26,26,147,1
,,,,,,,,,,,,,,,,,199240,18,2022-01-28_21h13.55,lexical_decision_task_DD,2021.2.3,MacIntel,62.5,,,,,,,,,,,0.814,1,,,,,,,,,,,,,,,,,,,,,,,,0.035555556,-0.15,0,0,0,,,,,,,FARMER,LB,m,m,./images/FARMERLB.png,,,,,,,,m,1,0.814,,,,,,,,0,27,27,65,1
,,,,,,,,,,,,,,,,,199240,18,2022-01-28_21h13.55,lexical_decision_task_DD,2021.2.3,MacIntel,62.5,,,,,,,,,,,0.714,1,,,,,,,,,,,,,,,,,,,,,,,,0.035555556,-0.15,0,0,0,,,,,,,GRAIN,C,m,m,./images/GRAIN.png,,,,,,,,m,1,0.714,,,,,,,,0,28,28,75,1
,,,,,,,,,,,,,,,,,199240,18,2022-01-28_21h13.55,lexical_decision_task_DD,2021.2.3,MacIntel,62.5,,,,,,,,,,,0.579,1,,,,,,,,,,,,,,,,,,,,,,,,0.035555556,-0.15,0,0,0,,,,,,,KITTEN,C,m,m,./images/KITTEN.png,,,,,,,,m,1,0.579,,,,,,,,0,29,29,45,1
,,,,,,,,,,,,,,,,,199240,18,2022-01-28_21h13.55,lexical_decision_task_DD,2021.2.3,MacIntel,62.5,,,,,,,,,,,0.966,1,,,,,,,,,,,,,,,,,,,,,,,,0.035555556,-0.15,0,0,0,,,,,,,JELLY,HB,m,m,./images/JELLYHB.png,,,,,,,,m,1,0.966,,,,,,,,0,30,30,64,1
,,,,,,,,,,,,,,,,,199240,18,2022-01-28_21h13.55,lexical_decision_task_DD,2021.2.3,MacIntel,62.5,,,,,,,,,,,0.699,0,,,,,,,,,,,,,,,,,,,,,,,,0.035555556,-0.15,0,0,0,,,,,,,SPINE,LB,z,m,./images/SPINELB.png,,,,,,,,m,0,0.699,,,,,,,,0,31,31,149,1
,,,,,,,,,,,,,,,,,199240,18,2022-01-28_21h13.55,lexical_decision_task_DD,2021.2.3,MacIntel,62.5,,,,,,,,,,,0.815,0,,,,,,,,,,,,,,,,,,,,,,,,0.035555556,-0.15,0,0,0,,,,,,,CHAIN,C,z,m,./images/CHAIN.png,,,,,,,,m,0,0.815,,,,,,,,0,32,32,126,1
,,,,,,,,,,,,,,,,,199240,18,2022-01-28_21h13.55,lexical_decision_task_DD,2021.2.3,MacIntel,62.5,,,,,,,,,,,0.845,1,,,,,,,,,,,,,,,,,,,,,,,,0.035555556,-0.15,0,0,0,,,,,,,BISHOP,HB,z,m,./images/BISHOPHB.png,,,,,,,,z,1,0.845,,,,,,,,0,33,33,133,1
,,,,,,,,,,,,,,,,,199240,18,2022-01-28_21h13.55,lexical_decision_task_DD,2021.2.3,MacIntel,62.5,,,,,,,,,,,0.787,1,,,,,,,,,,,,,,,,,,,,,,,,0.035555556,-0.15,0,0,0,,,,,,,WRIST,HB,m,m,./images/WRISTHB.png,,,,,,,,m,1,0.787,,,,,,,,0,34,34,25,1
,,,,,,,,,,,,,,,,,199240,18,2022-01-28_21h13.55,lexical_decision_task_DD,2021.2.3,MacIntel,62.5,,,,,,,,,,,0.949,1,,,,,,,,,,,,,,,,,,,,,,,,0.035555556,-0.15,0,0,0,,,,,,,ENGINE,LB,z,m,./images/ENGINELB.png,,,,,,,,z,1,0.949,,,,,,,,0,35,35,122,1
,,,,,,,,,,,,,,,,,199240,18,2022-01-28_21h13.55,lexical_decision_task_DD,2021.2.3,MacIntel,62.5,,,,,,,,,,,1.455,0,,,,,,,,,,,,,,,,,,,,,,,,0.035555556,-0.15,0,0,0,,,,,,,PEBBLE,HB,z,m,./images/PEBBLEHB.png,,,,,,,,m,0,1.455,,,,,,,,0,36,36,166,1
,,,,,,,,,,,,,,,,,199240,18,2022-01-28_21h13.55,lexical_decision_task_DD,2021.2.3,MacIntel,62.5,,,,,,,,,,,0.83,0,,,,,,,,,,,,,,,,,,,,,,,,0.035555556,-0.15,0,0,0,,,,,,,BUTTER,C,z,m,./images/BUTTER.png,,,,,,,,m,0,0.83,,,,,,,,0,37,37,111,1
,,,,,,,,,,,,,,,,,199240,18,2022-01-28_21h13.55,lexical_decision_task_DD,2021.2.3,MacIntel,62.5,,,,,,,,,,,0.914,1,,,,,,,,,,,,,,,,,,,,,,,,0.035555556,-0.15,0,0,0,,,,,,,CARPET,LB,m,m,./images/CARPETLB.png,,,,,,,,m,1,0.914,,,,,,,,0,38,38,53,1
,,,,,,,,,,,,,,,,,199240,18,2022-01-28_21h13.55,lexical_decision_task_DD,2021.2.3,MacIntel,62.5,,,,,,,,,,,0.793,1,,,,,,,,,,,,,,,,,,,,,,,,0.035555556,-0.15,0,0,0,,,,,,,SAUNA,C,z,m,./images/SAUNA.png,,,,,,,,z,1,0.793,,,,,,,,0,39,39,117,1
,,,,,,,,,,,,,,,,,199240,18,2022-01-28_21h13.55,lexical_decision_task_DD,2021.2.3,MacIntel,62.5,,,,,,,,,,,1.014,1,,,,,,,,,,,,,,,,,,,,,,,,0.035555556,-0.15,0,0,0,,,,,,,DANCER,C,z,m,./images/DANCER.png,,,,,,,,z,1,1.014,,,,,,,,0,40,40,105,1
,,,,,,,,,,,,,,,,,199240,18,2022-01-28_21h13.55,lexical_decision_task_DD,2021.2.3,MacIntel,62.5,,,,,,,,,,,0.717,1,,,,,,,,,,,,,,,,,,,,,,,,0.035555556,-0.15,0,0,0,space,,,,,,SQUARE,C,m,m,./images/SQUARE.png,32.332,,,,,,,m,1,0.717,,,,,,,,0,41,41,6,1
,,,,,,,,,,,,,,,,,199240,18,2022-01-28_21h13.55,lexical_decision_task_DD,2021.2.3,MacIntel,62.5,,,,,,,,,,,2.09,1,,,,,,,,,,,,,,,,,,,,,,,,0.035555556,-0.15,0,0,0,,,,,,,BEARD,LB,m,m,./images/BEARDLB.png,,,,,,,,m,1,2.09,,,,,,,,0,42,42,2,1
,,,,,,,,,,,,,,,,,199240,18,2022-01-28_21h13.55,lexical_decision_task_DD,2021.2.3,MacIntel,62.5,,,,,,,,,,,1.246,0,,,,,,,,,,,,,,,,,,,,,,,,0.035555556,-0.15,0,0,0,,,,,,,STATUE,C,z,m,./images/STATUE.png,,,,,,,,m,0,1.246,,,,,,,,0,43,43,150,1
,,,,,,,,,,,,,,,,,199240,18,2022-01-28_21h13.55,lexical_decision_task_DD,2021.2.3,MacIntel,62.5,,,,,,,,,,,0.906,1,,,,,,,,,,,,,,,,,,,,,,,,0.035555556,-0.15,0,0,0,,,,,,,LAGOON,LB,z,m,./images/LAGOONLB.png,,,,,,,,z,1,0.906,,,,,,,,0,44,44,131,1
,,,,,,,,,,,,,,,,,199240,18,2022-01-28_21h13.55,lexical_decision_task_DD,2021.2.3,MacIntel,62.5,,,,,,,,,,,0.924,0,,,,,,,,,,,,,,,,,,,,,,,,0.035555556,-0.15,0,0,0,,,,,,,BUBBLE,LB,z,m,./images/BUBBLELB.png,,,,,,,,m,0,0.924,,,,,,,,0,45,45,155,1
,,,,,,,,,,,,,,,,,199240,18,2022-01-28_21h13.55,lexical_decision_task_DD,2021.2.3,MacIntel,62.5,,,,,,,,,,,0.773,0,,,,,,,,,,,,,,,,,,,,,,,,0.035555556,-0.15,0,0,0,,,,,,,BUNNY,HB,z,m,./images/BUNNYHB.png,,,,,,,,m,0,0.773,,,,,,,,0,46,46,97,1
,,,,,,,,,,,,,,,,,199240,18,2022-01-28_21h13.55,lexical_decision_task_DD,2021.2.3,MacIntel,62.5,,,,,,,,,,,1.142,1,,,,,,,,,,,,,,,,,,,,,,,,0.035555556,-0.15,0,0,0,,,,,,,DESERT,HB,z,m,./images/DESERTHB.png,,,,,,,,z,1,1.142,,,,,,,,0,47,47,136,1
,,,,,,,,,,,,,,,,,199240,18,2022-01-28_21h13.55,lexical_decision_task_DD,2021.2.3,MacIntel,62.5,,,,,,,,,,,0.746,0,,,,,,,,,,,,,,,,,,,,,,,,0.035555556,-0.15,0,0,0,,,,,,,GARDEN,HB,z,m,./images/GARDENHB.png,,,,,,,,m,0,0.746,,,,,,,,0,48,48,94,1
,,,,,,,,,,,,,,,,,199240,18,2022-01-28_21h13.55,lexical_decision_task_DD,2021.2.3,MacIntel,62.5,,,,,,,,,,,0.789,1,,,,,,,,,,,,,,,,,,,,,,,,0.035555556,-0.15,0,0,0,,,,,,,TOWEL,HB,z,m,./images/TOWELHB.png,,,,,,,,z,1,0.789,,,,,,,,0,49,49,85,1
,,,,,,,,,,,,,,,,,199240,18,2022-01-28_21h13.55,lexical_decision_task_DD,2021.2.3,MacIntel,62.5,,,,,,,,,,,0.598,1,,,,,,,,,,,,,,,,,,,,,,,,0.035555556,-0.15,0,0,0,,,,,,,BABOON,HB,m,m,./images/BABOONHB.png,,,,,,,,m,1,0.598,,,,,,,,0,50,50,58,1
,,,,,,,,,,,,,,,,,199240,18,2022-01-28_21h13.55,lexical_decision_task_DD,2021.2.3,MacIntel,62.5,,,,,,,,,,,0.577,0,,,,,,,,,,,,,,,,,,,,,,,,0.035555556,-0.15,0,0,0,,,,,,,BASKET,LB,z,m,./images/BASKETLB.png,,,,,,,,m,0,0.577,,,,,,,,0,51,51,128,1
,,,,,,,,,,,,,,,,,199240,18,2022-01-28_21h13.55,lexical_decision_task_DD,2021.2.3,MacIntel,62.5,,,,,,,,,,,0.564,0,,,,,,,,,,,,,,,,,,,,,,,,0.035555556,-0.15,0,0,0,,,,,,,GRAPE,HB,z,m,./images/GRAPEHB.png,,,,,,,,m,0,0.564,,,,,,,,0,52,52,100,1
,,,,,,,,,,,,,,,,,199240,18,2022-01-28_21h13.55,lexical_decision_task_DD,2021.2.3,MacIntel,62.5,,,,,,,,,,,0.646,1,,,,,,,,,,,,,,,,,,,,,,,,0.035555556,-0.15,0,0,0,,,,,,,SNACK,HB,m,m,./images/SNACKHB.png,,,,,,,,m,1,0.646,,,,,,,,0,53,53,73,1
,,,,,,,,,,,,,,,,,199240,18,2022-01-28_21h13.55,lexical_decision_task_DD,2021.2.3,MacIntel,62.5,,,,,,,,,,,0.774,1,,,,,,,,,,,,,,,,,,,,,,,,0.035555556,-0.15,0,0,0,,,,,,,POSTER,LB,z,m,./images/POSTERLB.png,,,,,,,,z,1,0.774,,,,,,,,0,54,54,137,1
,,,,,,,,,,,,,,,,,199240,18,2022-01-28_21h13.55,lexical_decision_task_DD,2021.2.3,MacIntel,62.5,,,,,,,,,,,0.875,1,,,,,,,,,,,,,,,,,,,,,,,,0.035555556,-0.15,0,0,0,,,,,,,POODLE,C,m,m,./images/POODLE.png,,,,,,,,m,1,0.875,,,,,,,,0,55,55,81,1
,,,,,,,,,,,,,,,,,199240,18,2022-01-28_21h13.55,lexical_decision_task_DD,2021.2.3,MacIntel,62.5,,,,,,,,,,,0.974,0,,,,,,,,,,,,,,,,,,,,,,,,0.035555556,-0.15,0,0,0,,,,,,,STREAM,LB,z,m,./images/STREAMLB.png,,,,,,,,m,0,0.974,,,,,,,,0,56,56,125,1
,,,,,,,,,,,,,,,,,199240,18,2022-01-28_21h13.55,lexical_decision_task_DD,2021.2.3,MacIntel,62.5,,,,,,,,,,,1,1,,,,,,,,,,,,,,,,,,,,,,,,0.035555556,-0.15,0,0,0,,,,,,,MEDAL,LB,z,m,./images/MEDALLB.png,,,,,,,,z,1,1,,,,,,,,0,57,57,95,1
,,,,,,,,,,,,,,,,,199240,18,2022-01-28_21h13.55,lexical_decision_task_DD,2021.2.3,MacIntel,62.5,,,,,,,,,,,1.091,1,,,,,,,,,,,,,,,,,,,,,,,,0.035555556,-0.15,0,0,0,,,,,,,ONION,C,m,m,./images/ONION.png,,,,,,,,m,1,1.091,,,,,,,,0,58,58,51,1
,,,,,,,,,,,,,,,,,199240,18,2022-01-28_21h13.55,lexical_decision_task_DD,2021.2.3,MacIntel,62.5,,,,,,,,,,,1.498,0,,,,,,,,,,,,,,,,,,,,,,,,0.035555556,-0.15,0,0,0,,,,,,,BROOM,C,z,m,./images/BROOM.png,,,,,,,,m,0,1.498,,,,,,,,0,59,59,162,1
,,,,,,,,,,,,,,,,,199240,18,2022-01-28_21h13.55,lexical_decision_task_DD,2021.2.3,MacIntel,62.5,,,,,,,,,,,0.724,1,,,,,,,,,,,,,,,,,,,,,,,,0.035555556,-0.15,0,0,0,,,,,,,PASTA,LB,m,m,./images/PASTALB.png,,,,,,,,m,1,0.724,,,,,,,,0,60,60,5,1
,,,,,,,,,,,,,,,,,199240,18,2022-01-28_21h13.55,lexical_decision_task_DD,2021.2.3,MacIntel,62.5,,,,,,,,,,,0.61,1,,,,,,,,,,,,,,,,,,,,,,,,0.035555556,-0.15,0,0,0,,,,,,,MIRROR,C,m,m,./images/MIRROR.png,,,,,,,,m,1,0.61,,,,,,,,0,61,61,63,1
,,,,,,,,,,,,,,,,,199240,18,2022-01-28_21h13.55,lexical_decision_task_DD,2021.2.3,MacIntel,62.5,,,,,,,,,,,0.64,1,,,,,,,,,,,,,,,,,,,,,,,,0.035555556,-0.15,0,0,0,,,,,,,INFANT,HB,m,m,./images/INFANTHB.png,,,,,,,,m,1,0.64,,,,,,,,0,62,62,76,1
,,,,,,,,,,,,,,,,,199240,18,2022-01-28_21h13.55,lexical_decision_task_DD,2021.2.3,MacIntel,62.5,,,,,,,,,,,0.74,0,,,,,,,,,,,,,,,,,,,,,,,,0.035555556,-0.15,0,0,0,,,,,,,PLANET,LB,z,m,./images/PLANETLB.png,,,,,,,,m,0,0.74,,,,,,,,0,63,63,164,1
,,,,,,,,,,,,,,,,,199240,18,2022-01-28_21h13.55,lexical_decision_task_DD,2021.2.3,MacIntel,62.5,,,,,,,,,,,0.657,1,,,,,,,,,,,,,,,,,,,,,,,,0.035555556,-0.15,0,0,0,,,,,,,MALLET,LB,m,m,./images/MALLETLB.png,,,,,,,,m,1,0.657,,,,,,,,0,64,64,50,1
,,,,,,,,,,,,,,,,,199240,18,2022-01-28_21h13.55,lexical_decision_task_DD,2021.2.3,MacIntel,62.5,,,,,,,,,,,1.225,0,,,,,,,,,,,,,,,,,,,,,,,,0.035555556,-0.15,0,0,0,,,,,,,ALLEY,HB,z,m,./images/ALLEYHB.png,,,,,,,,m,0,1.225,,,,,,,,0,65,65,139,1
,,,,,,,,,,,,,,,,,199240,18,2022-01-28_21h13.55,lexical_decision_task_DD,2021.2.3,MacIntel,62.5,,,,,,,,,,,0.862,0,,,,,,,,,,,,,,,,,,,,,,,,0.035555556,-0.15,0,0,0,,,,,,,HAMMER,C,z,m,./images/HAMMER.png,,,,,,,,m,0,0.862,,,,,,,,0,66,66,159,1
,,,,,,,,,,,,,,,,,199240,18,2022-01-28_21h13.55,lexical_decision_task_DD,2021.2.3,MacIntel,62.5,,,,,,,,,,,0.946,1,,,,,,,,,,,,,,,,,,,,,,,,0.035555556,-0.15,0,0,0,,,,,,,NOOSE,C,m,m,./images/NOOSE.png,,,,,,,,m,1,0.946,,,,,,,,0,67,67,72,1
,,,,,,,,,,,,,,,,,199240,18,2022-01-28_21h13.55,lexical_decision_task_DD,2021.2.3,MacIntel,62.5,,,,,,,,,,,1.212,1,,,,,,,,,,,,,,,,,,,,,,,,0.035555556,-0.15,0,0,0,,,,,,,LIZARD,LB,m,m,./images/LIZARDLB.png,,,,,,,,m,1,1.212,,,,,,,,0,68,68,44,1
,,,,,,,,,,,,,,,,,199240,18,2022-01-28_21h13.55,lexical_decision_task_DD,2021.2.3,MacIntel,62.5,,,,,,,,,,,0.748,1,,,,,,,,,,,,,,,,,,,,,,,,0.035555556,-0.15,0,0,0,,,,,,,MUSCLE,HB,m,m,./images/MUSCLEHB.png,,,,,,,,m,1,0.748,,,,,,,,0,69,69,4,1
,,,,,,,,,,,,,,,,,199240,18,2022-01-28_21h13.55,lexical_decision_task_DD,2021.2.3,MacIntel,62.5,,,,,,,,,,,0.764,1,,,,,,,,,,,,,,,,,,,,,,,,0.035555556,-0.15,0,0,0,,,,,,,KIDNEY,C,m,m,./images/KIDNEY.png,,,,,,,,m,1,0.764,,,,,,,,0,70,70,21,1
,,,,,,,,,,,,,,,,,199240,18,2022-01-28_21h13.55,lexical_decision_task_DD,2021.2.3,MacIntel,62.5,,,,,,,,,,,0.59,1,,,,,,,,,,,,,,,,,,,,,,,,0.035555556,-0.15,0,0,0,,,,,,,TOMATO,C,m,m,./images/TOMATO.png,,,,,,,,m,1,0.59,,,,,,,,0,71,71,0,1
,,,,,,,,,,,,,,,,,199240,18,2022-01-28_21h13.55,lexical_decision_task_DD,2021.2.3,MacIntel,62.5,,,,,,,,,,,1.081,0,,,,,,,,,,,,,,,,,,,,,,,,0.035555556,-0.15,0,0,0,,,,,,,TIGER,HB,z,m,./images/TIGERHB.png,,,,,,,,m,0,1.081,,,,,,,,0,72,72,121,1
,,,,,,,,,,,,,,,,,199240,18,2022-01-28_21h13.55,lexical_decision_task_DD,2021.2.3,MacIntel,62.5,,,,,,,,,,,0.832,1,,,,,,,,,,,,,,,,,,,,,,,,0.035555556,-0.15,0,0,0,,,,,,,CASINO,HB,z,m,./images/CASINOHB.png,,,,,,,,z,1,0.832,,,,,,,,0,73,73,112,1
,,,,,,,,,,,,,,,,,199240,18,2022-01-28_21h13.55,lexical_decision_task_DD,2021.2.3,MacIntel,62.5,,,,,,,,,,,1.007,1,,,,,,,,,,,,,,,,,,,,,,,,0.035555556,-0.15,0,0,0,,,,,,,FERRY,C,z,m,./images/FERRY.png,,,,,,,,z,1,1.007,,,,,,,,0,74,74,141,1
,,,,,,,,,,,,,,,,,199240,18,2022-01-28_21h13.55,lexical_decision_task_DD,2021.2.3,MacIntel,62.5,,,,,,,,,,,1.609,0,,,,,,,,,,,,,,,,,,,,,,,,0.035555556,-0.15,0,0,0,,,,,,,BOILER,C,z,m,./images/BOILER.png,,,,,,,,m,0,1.609,,,,,,,,0,75,75,120,1
,,,,,,,,,,,,,,,,,199240,18,2022-01-28_21h13.55,lexical_decision_task_DD,2021.2.3,MacIntel,62.5,,,,,,,,,,,0.956,1,,,,,,,,,,,,,,,,,,,,,,,,0.035555556,-0.15,0,0,0,,,,,,,FOLDER,C,m,m,./images/FOLDER.png,,,,,,,,m,1,0.956,,,,,,,,0,76,76,42,1
,,,,,,,,,,,,,,,,,199240,18,2022-01-28_21h13.55,lexical_decision_task_DD,2021.2.3,MacIntel,62.5,,,,,,,,,,,0.608,1,,,,,,,,,,,,,,,,,,,,,,,,0.035555556,-0.15,0,0,0,,,,,,,CRUMB,LB,m,m,./images/CRUMBLB.png,,,,,,,,m,1,0.608,,,,,,,,0,77,77,29,1
,,,,,,,,,,,,,,,,,199240,18,2022-01-28_21h13.55,lexical_decision_task_DD,2021.2.3,MacIntel,62.5,,,,,,,,,,,0.635,1,,,,,,,,,,,,,,,,,,,,,,,,0.035555556,-0.15,0,0,0,,,,,,,GREASE,C,m,m,./images/GREASE.png,,,,,,,,m,1,0.635,,,,,,,,0,78,78,15,1
,,,,,,,,,,,,,,,,,199240,18,2022-01-28_21h13.55,lexical_decision_task_DD,2021.2.3,MacIntel,62.5,,,,,,,,,,,0.955,1,,,,,,,,,,,,,,,,,,,,,,,,0.035555556,-0.15,0,0,0,,,,,,,WALRUS,LB,m,m,./images/WALRUSLB.png,,,,,,,,m,1,0.955,,,,,,,,0,79,79,23,1
,,,,,,,,,,,,,,,,,199240,18,2022-01-28_21h13.55,lexical_decision_task_DD,2021.2.3,MacIntel,62.5,,,,,,,,,,,0.615,0,,,,,,,,,,,,,,,,,,,,,,,,0.035555556,-0.15,0,0,0,,,,,,,CURRY,C,z,m,./images/CURRY.png,,,,,,,,m,0,0.615,,,,,,,,0,80,80,144,1
,,,,,,,,,,,,,,,,,199240,18,2022-01-28_21h13.55,lexical_decision_task_DD,2021.2.3,MacIntel,62.5,,,,,,,,,,,1.73,1,,,,,,,,,,,,,,,,,,,,,,,,0.035555556,-0.15,0,0,0,,,,,,,PENCE,HB,m,m,./images/PENCEHB.png,,,,,,,,m,1,1.73,,,,,,,,0,81,81,16,1
,,,,,,,,,,,,,,,,,199240,18,2022-01-28_21h13.55,lexical_decision_task_DD,2021.2.3,MacIntel,62.5,,,,,,,,,,,0.93,1,,,,,,,,,,,,,,,,,,,,,,,,0.035555556,-0.15,0,0,0,,,,,,,DIVER,C,z,m,./images/DIVER.png,,,,,,,,z,1,0.93,,,,,,,,0,82,82,93,1
,,,,,,,,,,,,,,,,,199240,18,2022-01-28_21h13.55,lexical_decision_task_DD,2021.2.3,MacIntel,62.5,,,,,,,,,,,1.633,1,,,,,,,,,,,,,,,,,,,,,,,,0.035555556,-0.15,0,0,0,space,,,,,,STOVE,LB,z,m,./images/STOVELB.png,5.401,,,,,,,z,1,1.633,,,,,,,,0,83,83,86,1
,,,,,,,,,,,,,,,,,199240,18,2022-01-28_21h13.55,lexical_decision_task_DD,2021.2.3,MacIntel,62.5,,,,,,,,,,,1.041,0,,,,,,,,,,,,,,,,,,,,,,,,0.035555556,-0.15,0,0,0,,,,,,,STAIN,C,z,m,./images/STAIN.png,,,,,,,,m,0,1.041,,,,,,,,0,84,84,90,1
,,,,,,,,,,,,,,,,,199240,18,2022-01-28_21h13.55,lexical_decision_task_DD,2021.2.3,MacIntel,62.5,,,,,,,,,,,0.738,1,,,,,,,,,,,,,,,,,,,,,,,,0.035555556,-0.15,0,0,0,,,,,,,SHELF,C,m,m,./images/SHELF.png,,,,,,,,m,1,0.738,,,,,,,,0,85,85,39,1
,,,,,,,,,,,,,,,,,199240,18,2022-01-28_21h13.55,lexical_decision_task_DD,2021.2.3,MacIntel,62.5,,,,,,,,,,,0.658,1,,,,,,,,,,,,,,,,,,,,,,,,0.035555556,-0.15,0,0,0,,,,,,,CRADLE,LB,m,m,./images/CRADLELB.png,,,,,,,,m,1,0.658,,,,,,,,0,86,86,20,1
,,,,,,,,,,,,,,,,,199240,18,2022-01-28_21h13.55,lexical_decision_task_DD,2021.2.3,MacIntel,62.5,,,,,,,,,,,0.691,0,,,,,,,,,,,,,,,,,,,,,,,,0.035555556,-0.15,0,0,0,,,,,,,FLESH,C,z,m,./images/FLESH.png,,,,,,,,m,0,0.691,,,,,,,,0,87,87,108,1
,,,,,,,,,,,,,,,,,199240,18,2022-01-28_21h13.55,lexical_decision_task_DD,2021.2.3,MacIntel,62.5,,,,,,,,,,,1.43,1,,,,,,,,,,,,,,,,,,,,,,,,0.035555556,-0.15,0,0,0,,,,,,,CHERRY,C,z,m,./images/CHERRY.png,,,,,,,,z,1,1.43,,,,,,,,0,88,88,138,1
,,,,,,,,,,,,,,,,,199240,18,2022-01-28_21h13.55,lexical_decision_task_DD,2021.2.3,MacIntel,62.5,,,,,,,,,,,1.029,1,,,,,,,,,,,,,,,,,,,,,,,,0.035555556,-0.15,0,0,0,,,,,,,VALLEY,LB,z,m,./images/VALLEYLB.png,,,,,,,,z,1,1.029,,,,,,,,0,89,89,152,1
,,,,,,,,,,,,,,,,,199240,18,2022-01-28_21h13.55,lexical_decision_task_DD,2021.2.3,MacIntel,62.5,,,,,,,,,,,0.906,1,,,,,,,,,,,,,,,,,,,,,,,,0.035555556,-0.15,0,0,0,,,,,,,MUMMY,HB,z,m,./images/MUMMYHB.png,,,,,,,,z,1,0.906,,,,,,,,0,90,90,130,1
,,,,,,,,,,,,,,,,,199240,18,2022-01-28_21h13.55,lexical_decision_task_DD,2021.2.3,MacIntel,62.5,,,,,,,,,,,0.733,1,,,,,,,,,,,,,,,,,,,,,,,,0.035555556,-0.15,0,0,0,,,,,,,GRANNY,LB,z,m,./images/GRANNYLB.png,,,,,,,,z,1,0.733,,,,,,,,0,91,91,104,1
,,,,,,,,,,,,,,,,,199240,18,2022-01-28_21h13.55,lexical_decision_task_DD,2021.2.3,MacIntel,62.5,,,,,,,,,,,0.792,1,,,,,,,,,,,,,,,,,,,,,,,,0.035555556,-0.15,0,0,0,,,,,,,TWINS,C,m,m,./images/TWINS.png,,,,,,,,m,1,0.792,,,,,,,,0,92,92,60,1
,,,,,,,,,,,,,,,,,199240,18,2022-01-28_21h13.55,lexical_decision_task_DD,2021.2.3,MacIntel,62.5,,,,,,,,,,,0.626,1,,,,,,,,,,,,,,,,,,,,,,,,0.035555556,-0.15,0,0,0,,,,,,,MELON,HB,m,m,./images/MELONHB.png,,,,,,,,m,1,0.626,,,,,,,,0,93,93,22,1
,,,,,,,,,,,,,,,,,199240,18,2022-01-28_21h13.55,lexical_decision_task_DD,2021.2.3,MacIntel,62.5,,,,,,,,,,,0.615,0,,,,,,,,,,,,,,,,,,,,,,,,0.035555556,-0.15,0,0,0,,,,,,,GLOVE,HB,z,m,./images/GLOVEHB.png,,,,,,,,m,0,0.615,,,,,,,,0,94,94,157,1
,,,,,,,,,,,,,,,,,199240,18,2022-01-28_21h13.55,lexical_decision_task_DD,2021.2.3,MacIntel,62.5,,,,,,,,,,,0.664,0,,,,,,,,,,,,,,,,,,,,,,,,0.035555556,-0.15,0,0,0,,,,,,,CHALK,HB,z,m,./images/CHALKHB.png,,,,,,,,m,0,0.664,,,,,,,,0,95,95,109,1
,,,,,,,,,,,,,,,,,199240,18,2022-01-28_21h13.55,lexical_decision_task_DD,2021.2.3,MacIntel,62.5,,,,,,,,,,,1.076,0,,,,,,,,,,,,,,,,,,,,,,,,0.035555556,-0.15,0,0,0,,,,,,,BERRY,LB,m,m,./images/BERRYLB.png,,,,,,,,z,0,1.076,,,,,,,,0,96,96,47,1
,,,,,,,,,,,,,,,,,199240,18,2022-01-28_21h13.55,lexical_decision_task_DD,2021.2.3,MacIntel,62.5,,,,,,,,,,,1.084,1,,,,,,,,,,,,,,,,,,,,,,,,0.035555556,-0.15,0,0,0,,,,,,,MAMMAL,LB,z,m,./images/MAMMALLB.png,,,,,,,,z,1,1.084,,,,,,,,0,97,97,146,1
,,,,,,,,,,,,,,,,,199240,18,2022-01-28_21h13.55,lexical_decision_task_DD,2021.2.3,MacIntel,62.5,,,,,,,,,,,0.64,0,,,,,,,,,,,,,,,,,,,,,,,,0.035555556,-0.15,0,0,0,,,,,,,ARROW,C,z,m,./images/ARROW.png,,,,,,,,m,0,0.64,,,,,,,,0,98,98,153,1
,,,,,,,,,,,,,,,,,199240,18,2022-01-28_21h13.55,lexical_decision_task_DD,2021.2.3,MacIntel,62.5,,,,,,,,,,,0.663,0,,,,,,,,,,,,,,,,,,,,,,,,0.035555556,-0.15,0,0,0,,,,,,,BRUSH,LB,z,m,./images/BRUSHLB.png,,,,,,,,m,0,0.663,,,,,,,,0,99,99,143,1
,,,,,,,,,,,,,,,,,199240,18,2022-01-28_21h13.55,lexical_decision_task_DD,2021.2.3,MacIntel,62.5,,,,,,,,,,,0.622,1,,,,,,,,,,,,,,,,,,,,,,,,0.035555556,-0.15,0,0,0,,,,,,,MOOSE,C,m,m,./images/MOOSE.png,,,,,,,,m,1,0.622,,,,,,,,0,100,100,57,1
,,,,,,,,,,,,,,,,,199240,18,2022-01-28_21h13.55,lexical_decision_task_DD,2021.2.3,MacIntel,62.5,,,,,,,,,,,0.775,1,,,,,,,,,,,,,,,,,,,,,,,,0.035555556,-0.15,0,0,0,,,,,,,DRUMS,HB,m,m,./images/DRUMSHB.png,,,,,,,,m,1,0.775,,,,,,,,0,101,101,49,1
,,,,,,,,,,,,,,,,,199240,18,2022-01-28_21h13.55,lexical_decision_task_DD,2021.2.3,MacIntel,62.5,,,,,,,,,,,0.914,1,,,,,,,,,,,,,,,,,,,,,,,,0.035555556,-0.15,0,0,0,,,,,,,BANANA,HB,z,m,./images/BANANAHB.png,,,,,,,,z,1,0.914,,,,,,,,0,102,102,154,1
,,,,,,,,,,,,,,,,,199240,18,2022-01-28_21h13.55,lexical_decision_task_DD,2021.2.3,MacIntel,62.5,,,,,,,,,,,0.7,0,,,,,,,,,,,,,,,,,,,,,,,,0.035555556,-0.15,0,0,0,,,,,,,FALCON,HB,m,m,./images/FALCONHB.png,,,,,,,,z,0,0.7,,,,,,,,0,103,103,28,1
,,,,,,,,,,,,,,,,,199240,18,2022-01-28_21h13.55,lexical_decision_task_DD,2021.2.3,MacIntel,62.5,,,,,,,,,,,1.183,1,,,,,,,,,,,,,,,,,,,,,,,,0.035555556,-0.15,0,0,0,,,,,,,CLOTH,LB,z,m,./images/CLOTHLB.png,,,,,,,,z,1,1.183,,,,,,,,0,104,104,107,1
,,,,,,,,,,,,,,,,,199240,18,2022-01-28_21h13.55,lexical_decision_task_DD,2021.2.3,MacIntel,62.5,,,,,,,,,,,0.613,1,,,,,,,,,,,,,,,,,,,,,,,,0.035555556,-0.15,0,0,0,,,,,,,CEMENT,LB,m,m,./images/CEMENTLB.png,,,,,,,,m,1,0.613,,,,,,,,0,105,105,74,1
,,,,,,,,,,,,,,,,,199240,18,2022-01-28_21h13.55,lexical_decision_task_DD,2021.2.3,MacIntel,62.5,,,,,,,,,,,0.664,1,,,,,,,,,,,,,,,,,,,,,,,,0.035555556,-0.15,0,0,0,,,,,,,COUCH,LB,m,m,./images/COUCHLB.png,,,,,,,,m,1,0.664,,,,,,,,0,106,106,77,1
,,,,,,,,,,,,,,,,,199240,18,2022-01-28_21h13.55,lexical_decision_task_DD,2021.2.3,MacIntel,62.5,,,,,,,,,,,1.123,1,,,,,,,,,,,,,,,,,,,,,,,,0.035555556,-0.15,0,0,0,,,,,,,BANNER,HB,m,m,./images/BANNERHB.png,,,,,,,,m,1,1.123,,,,,,,,0,107,107,52,1
,,,,,,,,,,,,,,,,,199240,18,2022-01-28_21h13.55,lexical_decision_task_DD,2021.2.3,MacIntel,62.5,,,,,,,,,,,1.031,1,,,,,,,,,,,,,,,,,,,,,,,,0.035555556,-0.15,0,0,0,,,,,,,SLOPE,C,z,m,./images/SLOPE.png,,,,,,,,z,1,1.031,,,,,,,,0,108,108,114,1
,,,,,,,,,,,,,,,,,199240,18,2022-01-28_21h13.55,lexical_decision_task_DD,2021.2.3,MacIntel,62.5,,,,,,,,,,,0.873,0,,,,,,,,,,,,,,,,,,,,,,,,0.035555556,-0.15,0,0,0,,,,,,,SPORT,C,m,m,./images/SPORT.png,,,,,,,,z,0,0.873,,,,,,,,0,109,109,48,1
,,,,,,,,,,,,,,,,,199240,18,2022-01-28_21h13.55,lexical_decision_task_DD,2021.2.3,MacIntel,62.5,,,,,,,,,,,0.804,1,,,,,,,,,,,,,,,,,,,,,,,,0.035555556,-0.15,0,0,0,,,,,,,COOKER,C,m,m,./images/COOKER.png,,,,,,,,m,1,0.804,,,,,,,,0,110,110,69,1
,,,,,,,,,,,,,,,,,199240,18,2022-01-28_21h13.55,lexical_decision_task_DD,2021.2.3,MacIntel,62.5,,,,,,,,,,,0.741,1,,,,,,,,,,,,,,,,,,,,,,,,0.035555556,-0.15,0,0,0,,,,,,,BLOKE,C,z,m,./images/BLOKE.png,,,,,,,,z,1,0.741,,,,,,,,0,111,111,96,1
,,,,,,,,,,,,,,,,,199240,18,2022-01-28_21h13.55,lexical_decision_task_DD,2021.2.3,MacIntel,62.5,,,,,,,,,,,1.024,1,,,,,,,,,,,,,,,,,,,,,,,,0.035555556,-0.15,0,0,0,,,,,,,SHORE,C,m,m,./images/SHORE.png,,,,,,,,m,1,1.024,,,,,,,,0,112,112,12,1
,,,,,,,,,,,,,,,,,199240,18,2022-01-28_21h13.55,lexical_decision_task_DD,2021.2.3,MacIntel,62.5,,,,,,,,,,,0.714,1,,,,,,,,,,,,,,,,,,,,,,,,0.035555556,-0.15,0,0,0,,,,,,,RHINO,C,m,m,./images/RHINO.png,,,,,,,,m,1,0.714,,,,,,,,0,113,113,9,1
,,,,,,,,,,,,,,,,,199240,18,2022-01-28_21h13.55,lexical_decision_task_DD,2021.2.3,MacIntel,62.5,,,,,,,,,,,0.596,0,,,,,,,,,,,,,,,,,,,,,,,,0.035555556,-0.15,0,0,0,,,,,,,SNAKE,HB,z,m,./images/SNAKEHB.png,,,,,,,,m,0,0.596,,,,,,,,0,114,114,124,1
,,,,,,,,,,,,,,,,,199240,18,2022-01-28_21h13.55,lexical_decision_task_DD,2021.2.3,MacIntel,62.5,,,,,,,,,,,0.825,1,,,,,,,,,,,,,,,,,,,,,,,,0.035555556,-0.15,0,0,0,,,,,,,PISTOL,LB,z,m,./images/PISTOLLB.png,,,,,,,,z,1,0.825,,,,,,,,0,115,115,113,1
,,,,,,,,,,,,,,,,,199240,18,2022-01-28_21h13.55,lexical_decision_task_DD,2021.2.3,MacIntel,62.5,,,,,,,,,,,1.091,1,,,,,,,,,,,,,,,,,,,,,,,,0.035555556,-0.15,0,0,0,,,,,,,BURIAL,LB,m,m,./images/BURIALLB.png,,,,,,,,m,1,1.091,,,,,,,,0,116,116,59,1
,,,,,,,,,,,,,,,,,199240,18,2022-01-28_21h13.55,lexical_decision_task_DD,2021.2.3,MacIntel,62.5,,,,,,,,,,,1.317,1,,,,,,,,,,,,,,,,,,,,,,,,0.035555556,-0.15,0,0,0,,,,,,,CLOUD,LB,z,m,./images/CLOUDLB.png,,,,,,,,z,1,1.317,,,,,,,,0,117,117,110,1
,,,,,,,,,,,,,,,,,199240,18,2022-01-28_21h13.55,lexical_decision_task_DD,2021.2.3,MacIntel,62.5,,,,,,,,,,,0.808,1,,,,,,,,,,,,,,,,,,,,,,,,0.035555556,-0.15,0,0,0,,,,,,,MUFFIN,HB,m,m,./images/MUFFINHB.png,,,,,,,,m,1,0.808,,,,,,,,0,118,118,55,1
,,,,,,,,,,,,,,,,,199240,18,2022-01-28_21h13.55,lexical_decision_task_DD,2021.2.3,MacIntel,62.5,,,,,,,,,,,0.913,0,,,,,,,,,,,,,,,,,,,,,,,,0.035555556,-0.15,0,0,0,,,,,,,POKER,HB,z,m,./images/POKERHB.png,,,,,,,,m,0,0.913,,,,,,,,0,119,119,151,1
,,,,,,,,,,,,,,,,,199240,18,2022-01-28_21h13.55,lexical_decision_task_DD,2021.2.3,MacIntel,62.5,,,,,,,,,,,0.679,1,,,,,,,,,,,,,,,,,,,,,,,,0.035555556,-0.15,0,0,0,,,,,,,LADDER,LB,m,m,./images/LADDERLB.png,,,,,,,,m,1,0.679,,,,,,,,0,120,120,38,1
,,,,,,,,,,,,,,,,,199240,18,2022-01-28_21h13.55,lexical_decision_task_DD,2021.2.3,MacIntel,62.5,,,,,,,,,,,0.866,0,,,,,,,,,,,,,,,,,,,,,,,,0.035555556,-0.15,0,0,0,,,,,,,BOXER,HB,z,m,./images/BOXERHB.png,,,,,,,,m,0,0.866,,,,,,,,0,121,121,88,1
,,,,,,,,,,,,,,,,,199240,18,2022-01-28_21h13.55,lexical_decision_task_DD,2021.2.3,MacIntel,62.5,,,,,,,,,,,0.931,0,,,,,,,,,,,,,,,,,,,,,,,,0.035555556,-0.15,0,0,0,,,,,,,WHEEL,LB,z,m,./images/WHEELLB.png,,,,,,,,m,0,0.931,,,,,,,,0,122,122,161,1
,,,,,,,,,,,,,,,,,199240,18,2022-01-28_21h13.55,lexical_decision_task_DD,2021.2.3,MacIntel,62.5,,,,,,,,,,,0.656,1,,,,,,,,,,,,,,,,,,,,,,,,0.035555556,-0.15,0,0,0,,,,,,,JAGUAR,C,m,m,./images/JAGUAR.png,,,,,,,,m,1,0.656,,,,,,,,0,123,123,18,1
,,,,,,,,,,,,,,,,,199240,18,2022-01-28_21h13.55,lexical_decision_task_DD,2021.2.3,MacIntel,62.5,,,,,,,,,,,0.835,1,,,,,,,,,,,,,,,,,,,,,,,,0.035555556,-0.15,0,0,0,,,,,,,PACKET,LB,m,m,./images/PACKETLB.png,,,,,,,,m,1,0.835,,,,,,,,0,124,124,56,1
,,,,,,,,,,,,,,,,,199240,18,2022-01-28_21h13.55,lexical_decision_task_DD,2021.2.3,MacIntel,62.5,,,,,,,,,,,1.007,0,,,,,,,,,,,,,,,,,,,,,,,,0.035555556,-0.15,0,0,0,space,,,,,,WALNUT,C,z,m,./images/WALNUT.png,3.617,,,,,,,m,0,1.007,,,,,,,,0,125,125,84,1
,,,,,,,,,,,,,,,,,199240,18,2022-01-28_21h13.55,lexical_decision_task_DD,2021.2.3,MacIntel,62.5,,,,,,,,,,,0.895,1,,,,,,,,,,,,,,,,,,,,,,,,0.035555556,-0.15,0,0,0,,,,,,,BIRTH,HB,m,m,./images/BIRTHHB.png,,,,,,,,m,1,0.895,,,,,,,,0,126,126,37,1
,,,,,,,,,,,,,,,,,199240,18,2022-01-28_21h13.55,lexical_decision_task_DD,2021.2.3,MacIntel,62.5,,,,,,,,,,,0.665,1,,,,,,,,,,,,,,,,,,,,,,,,0.035555556,-0.15,0,0,0,,,,,,,TORCH,LB,m,m,./images/TORCHLB.png,,,,,,,,m,1,0.665,,,,,,,,0,127,127,68,1
,,,,,,,,,,,,,,,,,199240,18,2022-01-28_21h13.55,lexical_decision_task_DD,2021.2.3,MacIntel,62.5,,,,,,,,,,,1.424,1,,,,,,,,,,,,,,,,,,,,,,,,0.035555556,-0.15,0,0,0,,,,,,,SUNSET,HB,m,m,./images/SUNSETHB.png,,,,,,,,m,1,1.424,,,,,,,,0,128,128,82,1
,,,,,,,,,,,,,,,,,199240,18,2022-01-28_21h13.55,lexical_decision_task_DD,2021.2.3,MacIntel,62.5,,,,,,,,,,,0.942,1,,,,,,,,,,,,,,,,,,,,,,,,0.035555556,-0.15,0,0,0,,,,,,,CANYON,HB,m,m,./images/CANYONHB.png,,,,,,,,m,1,0.942,,,,,,,,0,129,129,34,1
,,,,,,,,,,,,,,,,,199240,18,2022-01-28_21h13.55,lexical_decision_task_DD,2021.2.3,MacIntel,62.5,,,,,,,,,,,0.666,1,,,,,,,,,,,,,,,,,,,,,,,,0.035555556,-0.15,0,0,0,,,,,,,URINE,HB,m,m,./images/URINEHB.png,,,,,,,,m,1,0.666,,,,,,,,0,130,130,70,1
,,,,,,,,,,,,,,,,,199240,18,2022-01-28_21h13.55,lexical_decision_task_DD,2021.2.3,MacIntel,62.5,,,,,,,,,,,0.631,1,,,,,,,,,,,,,,,,,,,,,,,,0.035555556,-0.15,0,0,0,,,,,,,PEACH,LB,m,m,./images/PEACHLB.png,,,,,,,,m,1,0.631,,,,,,,,0,131,131,35,1
,,,,,,,,,,,,,,,,,199240,18,2022-01-28_21h13.55,lexical_decision_task_DD,2021.2.3,MacIntel,62.5,,,,,,,,,,,0.679,0,,,,,,,,,,,,,,,,,,,,,,,,0.035555556,-0.15,0,0,0,,,,,,,STOOL,HB,z,m,./images/STOOLHB.png,,,,,,,,m,0,0.679,,,,,,,,0,132,132,127,1
,,,,,,,,,,,,,,,,,199240,18,2022-01-28_21h13.55,lexical_decision_task_DD,2021.2.3,MacIntel,62.5,,,,,,,,,,,0.657,1,,,,,,,,,,,,,,,,,,,,,,,,0.035555556,-0.15,0,0,0,,,,,,,PICKLE,LB,m,m,./images/PICKLELB.png,,,,,,,,m,1,0.657,,,,,,,,0,133,133,14,1
,,,,,,,,,,,,,,,,,199240,18,2022-01-28_21h13.55,lexical_decision_task_DD,2021.2.3,MacIntel,62.5,,,,,,,,,,,0.89,0,,,,,,,,,,,,,,,,,,,,,,,,0.035555556,-0.15,0,0,0,,,,,,,PILOT,LB,z,m,./images/PILOTLB.png,,,,,,,,m,0,0.89,,,,,,,,0,134,134,134,1
,,,,,,,,,,,,,,,,,199240,18,2022-01-28_21h13.55,lexical_decision_task_DD,2021.2.3,MacIntel,62.5,,,,,,,,,,,0.798,1,,,,,,,,,,,,,,,,,,,,,,,,0.035555556,-0.15,0,0,0,,,,,,,WEASEL,LB,m,m,./images/WEASELLB.png,,,,,,,,m,1,0.798,,,,,,,,0,135,135,80,1
,,,,,,,,,,,,,,,,,199240,18,2022-01-28_21h13.55,lexical_decision_task_DD,2021.2.3,MacIntel,62.5,,,,,,,,,,,0.564,1,,,,,,,,,,,,,,,,,,,,,,,,0.035555556,-0.15,0,0,0,,,,,,,PLANK,HB,m,m,./images/PLANKHB.png,,,,,,,,m,1,0.564,,,,,,,,0,136,136,1,1
,,,,,,,,,,,,,,,,,199240,18,2022-01-28_21h13.55,lexical_decision_task_DD,2021.2.3,MacIntel,62.5,,,,,,,,,,,0.889,0,,,,,,,,,,,,,,,,,,,,,,,,0.035555556,-0.15,0,0,0,,,,,,,HEATER,LB,z,m,./images/HEATERLB.png,,,,,,,,m,0,0.889,,,,,,,,0,137,137,140,1
,,,,,,,,,,,,,,,,,199240,18,2022-01-28_21h13.55,lexical_decision_task_DD,2021.2.3,MacIntel,62.5,,,,,,,,,,,0.833,1,,,,,,,,,,,,,,,,,,,,,,,,0.035555556,-0.15,0,0,0,,,,,,,DONKEY,HB,z,m,./images/DONKEYHB.png,,,,,,,,z,1,0.833,,,,,,,,0,138,138,103,1
,,,,,,,,,,,,,,,,,199240,18,2022-01-28_21h13.55,lexical_decision_task_DD,2021.2.3,MacIntel,62.5,,,,,,,,,,,1.041,1,,,,,,,,,,,,,,,,,,,,,,,,0.035555556,-0.15,0,0,0,,,,,,,SAILOR,HB,m,m,./images/SAILORHB.png,,,,,,,,m,1,1.041,,,,,,,,0,139,139,67,1
,,,,,,,,,,,,,,,,,199240,18,2022-01-28_21h13.55,lexical_decision_task_DD,2021.2.3,MacIntel,62.5,,,,,,,,,,,1.397,1,,,,,,,,,,,,,,,,,,,,,,,,0.035555556,-0.15,0,0,0,,,,,,,JUMPER,LB,z,m,./images/JUMPERLB.png,,,,,,,,z,1,1.397,,,,,,,,0,140,140,158,1
,,,,,,,,,,,,,,,,,199240,18,2022-01-28_21h13.55,lexical_decision_task_DD,2021.2.3,MacIntel,62.5,,,,,,,,,,,1.166,1,,,,,,,,,,,,,,,,,,,,,,,,0.035555556,-0.15,0,0,0,,,,,,,CANDY,C,z,m,./images/CANDY.png,,,,,,,,z,1,1.166,,,,,,,,0,141,141,123,1
,,,,,,,,,,,,,,,,,199240,18,2022-01-28_21h13.55,lexical_decision_task_DD,2021.2.3,MacIntel,62.5,,,,,,,,,,,1.156,1,,,,,,,,,,,,,,,,,,,,,,,,0.035555556,-0.15,0,0,0,,,,,,,CRUST,HB,m,m,./images/CRUSTHB.png,,,,,,,,m,1,1.156,,,,,,,,0,142,142,79,1
,,,,,,,,,,,,,,,,,199240,18,2022-01-28_21h13.55,lexical_decision_task_DD,2021.2.3,MacIntel,62.5,,,,,,,,,,,0.863,1,,,,,,,,,,,,,,,,,,,,,,,,0.035555556,-0.15,0,0,0,,,,,,,STORM,C,m,m,./images/STORM.png,,,,,,,,m,1,0.863,,,,,,,,0,143,143,30,1
,,,,,,,,,,,,,,,,,199240,18,2022-01-28_21h13.55,lexical_decision_task_DD,2021.2.3,MacIntel,62.5,,,,,,,,,,,0.73,1,,,,,,,,,,,,,,,,,,,,,,,,0.035555556,-0.15,0,0,0,,,,,,,BONNET,LB,m,m,./images/BONNETLB.png,,,,,,,,m,1,0.73,,,,,,,,0,144,144,11,1
,,,,,,,,,,,,,,,,,199240,18,2022-01-28_21h13.55,lexical_decision_task_DD,2021.2.3,MacIntel,62.5,,,,,,,,,,,1.291,1,,,,,,,,,,,,,,,,,,,,,,,,0.035555556,-0.15,0,0,0,,,,,,,CLOWN,HB,z,m,./images/CLOWNHB.png,,,,,,,,z,1,1.291,,,,,,,,0,145,145,106,1
,,,,,,,,,,,,,,,,,199240,18,2022-01-28_21h13.55,lexical_decision_task_DD,2021.2.3,MacIntel,62.5,,,,,,,,,,,1.099,1,,,,,,,,,,,,,,,,,,,,,,,,0.035555556,-0.15,0,0,0,,,,,,,HOCKEY,LB,z,m,./images/HOCKEYLB.png,,,,,,,,z,1,1.099,,,,,,,,0,146,146,116,1
,,,,,,,,,,,,,,,,,199240,18,2022-01-28_21h13.55,lexical_decision_task_DD,2021.2.3,MacIntel,62.5,,,,,,,,,,,0.599,1,,,,,,,,,,,,,,,,,,,,,,,,0.035555556,-0.15,0,0,0,,,,,,,ATTIC,C,m,m,./images/ATTIC.png,,,,,,,,m,1,0.599,,,,,,,,0,147,147,27,1
,,,,,,,,,,,,,,,,,199240,18,2022-01-28_21h13.55,lexical_decision_task_DD,2021.2.3,MacIntel,62.5,,,,,,,,,,,0.729,0,,,,,,,,,,,,,,,,,,,,,,,,0.035555556,-0.15,0,0,0,,,,,,,FENCE,LB,z,m,./images/FENCELB.png,,,,,,,,m,0,0.729,,,,,,,,0,148,148,98,1
,,,,,,,,,,,,,,,,,199240,18,2022-01-28_21h13.55,lexical_decision_task_DD,2021.2.3,MacIntel,62.5,,,,,,,,,,,1.115,1,,,,,,,,,,,,,,,,,,,,,,,,0.035555556,-0.15,0,0,0,,,,,,,STEAK,HB,z,m,./images/STEAKHB.png,,,,,,,,z,1,1.115,,,,,,,,0,149,149,115,1
,,,,,,,,,,,,,,,,,199240,18,2022-01-28_21h13.55,lexical_decision_task_DD,2021.2.3,MacIntel,62.5,,,,,,,,,,,0.849,1,,,,,,,,,,,,,,,,,,,,,,,,0.035555556,-0.15,0,0,0,,,,,,,BRIDE,HB,z,m,./images/BRIDEHB.png,,,,,,,,z,1,0.849,,,,,,,,0,150,150,148,1
,,,,,,,,,,,,,,,,,199240,18,2022-01-28_21h13.55,lexical_decision_task_DD,2021.2.3,MacIntel,62.5,,,,,,,,,,,0.816,1,,,,,,,,,,,,,,,,,,,,,,,,0.035555556,-0.15,0,0,0,,,,,,,SMOKER,LB,m,m,./images/SMOKERLB.png,,,,,,,,m,1,0.816,,,,,,,,0,151,151,26,1
,,,,,,,,,,,,,,,,,199240,18,2022-01-28_21h13.55,lexical_decision_task_DD,2021.2.3,MacIntel,62.5,,,,,,,,,,,1.056,0,,,,,,,,,,,,,,,,,,,,,,,,0.035555556,-0.15,0,0,0,,,,,,,COLLAR,C,z,m,./images/COLLAR.png,,,,,,,,m,0,1.056,,,,,,,,0,152,152,99,1
,,,,,,,,,,,,,,,,,199240,18,2022-01-28_21h13.55,lexical_decision_task_DD,2021.2.3,MacIntel,62.5,,,,,,,,,,,0.629,1,,,,,,,,,,,,,,,,,,,,,,,,0.035555556,-0.15,0,0,0,,,,,,,PAINT,HB,m,m,./images/PAINTHB.png,,,,,,,,m,1,0.629,,,,,,,,0,153,153,7,1
,,,,,,,,,,,,,,,,,199240,18,2022-01-28_21h13.55,lexical_decision_task_DD,2021.2.3,MacIntel,62.5,,,,,,,,,,,0.508,1,,,,,,,,,,,,,,,,,,,,,,,,0.035555556,-0.15,0,0,0,,,,,,,JUNGLE,LB,m,m,./images/JUNGLELB.png,,,,,,,,m,1,0.508,,,,,,,,0,154,154,83,1
,,,,,,,,,,,,,,,,,199240,18,2022-01-28_21h13.55,lexical_decision_task_DD,2021.2.3,MacIntel,62.5,,,,,,,,,,,0.531,1,,,,,,,,,,,,,,,,,,,,,,,,0.035555556,-0.15,0,0,0,,,,,,,BARREL,LB,m,m,./images/BARRELLB.png,,,,,,,,m,1,0.531,,,,,,,,0,155,155,32,1
,,,,,,,,,,,,,,,,,199240,18,2022-01-28_21h13.55,lexical_decision_task_DD,2021.2.3,MacIntel,62.5,,,,,,,,,,,1.03,0,,,,,,,,,,,,,,,,,,,,,,,,0.035555556,-0.15,0,0,0,,,,,,,MONKEY,C,z,m,./images/MONKEY.png,,,,,,,,m,0,1.03,,,,,,,,0,156,156,129,1
,,,,,,,,,,,,,,,,,199240,18,2022-01-28_21h13.55,lexical_decision_task_DD,2021.2.3,MacIntel,62.5,,,,,,,,,,,0.708,0,,,,,,,,,,,,,,,,,,,,,,,,0.035555556,-0.15,0,0,0,,,,,,,CLIFF,LB,z,m,./images/CLIFFLB.png,,,,,,,,m,0,0.708,,,,,,,,0,157,157,92,1
,,,,,,,,,,,,,,,,,199240,18,2022-01-28_21h13.55,lexical_decision_task_DD,2021.2.3,MacIntel,62.5,,,,,,,,,,,0.856,0,,,,,,,,,,,,,,,,,,,,,,,,0.035555556,-0.15,0,0,0,,,,,,,MOTOR,HB,m,m,./images/MOTORHB.png,,,,,,,,z,0,0.856,,,,,,,,0,158,158,13,1
,,,,,,,,,,,,,,,,,199240,18,2022-01-28_21h13.55,lexical_decision_task_DD,2021.2.3,MacIntel,62.5,,,,,,,,,,,0.847,1,,,,,,,,,,,,,,,,,,,,,,,,0.035555556,-0.15,0,0,0,,,,,,,DOUGH,HB,m,m,./images/DOUGHHB.png,,,,,,,,m,1,0.847,,,,,,,,0,159,159,19,1
,,,,,,,,,,,,,,,,,199240,18,2022-01-28_21h13.55,lexical_decision_task_DD,2021.2.3,MacIntel,62.5,,,,,,,,,,,1.131,1,,,,,,,,,,,,,,,,,,,,,,,,0.035555556,-0.15,0,0,0,,,,,,,BAMBOO,LB,z,m,./images/BAMBOOLB.png,,,,,,,,z,1,1.131,,,,,,,,0,160,160,89,1
,,,,,,,,,,,,,,,,,199240,18,2022-01-28_21h13.55,lexical_decision_task_DD,2021.2.3,MacIntel,62.5,,,,,,,,,,,0.568,1,,,,,,,,,,,,,,,,,,,,,,,,0.035555556,-0.15,0,0,0,,,,,,,BELLY,HB,m,m,./images/BELLYHB.png,,,,,,,,m,1,0.568,,,,,,,,0,161,161,10,1
,,,,,,,,,,,,,,,,,199240,18,2022-01-28_21h13.55,lexical_decision_task_DD,2021.2.3,MacIntel,62.5,,,,,,,,,,,0.616,1,,,,,,,,,,,,,,,,,,,,,,,,0.035555556,-0.15,0,0,0,,,,,,,TRIPOD,C,m,m,./images/TRIPOD.png,,,,,,,,m,1,0.616,,,,,,,,0,162,162,54,1
,,,,,,,,,,,,,,,,,199240,18,2022-01-28_21h13.55,lexical_decision_task_DD,2021.2.3,MacIntel,62.5,,,,,,,,,,,0.547,1,,,,,,,,,,,,,,,,,,,,,,,,0.035555556,-0.15,0,0,0,,,,,,,LITTER,C,m,m,./images/LITTER.png,,,,,,,,m,1,0.547,,,,,,,,0,163,163,78,1
,,,,,,,,,,,,,,,,,199240,18,2022-01-28_21h13.55,lexical_decision_task_DD,2021.2.3,MacIntel,62.5,,,,,,,,,,,0.949,0,,,,,,,,,,,,,,,,,,,,,,,,0.035555556,-0.15,0,0,0,,,,,,,QUILL,HB,m,m,./images/QUILLHB.png,,,,,,,,z,0,0.949,,,,,,,,0,164,164,31,1
,,,,,,,,,,,,,,,,,199240,18,2022-01-28_21h13.55,lexical_decision_task_DD,2021.2.3,MacIntel,62.5,,,,,,,,,,,0.813,1,,,,,,,,,,,,,,,,,,,,,,,,0.035555556,-0.15,0,0,0,,,,,,,MIDGET,HB,z,m,./images/MIDGETHB.png,,,,,,,,z,1,0.813,,,,,,,,0,165,165,160,1
,,,,,,,,,,,,,,,,,199240,18,2022-01-28_21h13.55,lexical_decision_task_DD,2021.2.3,MacIntel,62.5,,,,,,,,,,,1.173,1,,,,,,,,,,,,,,,,,,,,,,,,0.035555556,-0.15,0,0,0,,,,,,,CRATER,C,z,m,./images/CRATER.png,,,,,,,,z,1,1.173,,,,,,,,0,166,166,87,1
,,,,,,,,,,,,,,,,,199240,18,2022-01-28_21h13.55,lexical_decision_task_DD,2021.2.3,MacIntel,62.5,,,,,,,,,,,0.647,1,,,,,,,,,,,,,,,,,,,,,,,,0.035555556,-0.15,0,0,0,,,,,,,FINGER,C,m,m,./images/FINGER.png,,,,,,,,m,1,0.647,,,,,,,,0,167,167,3,1
