key_resp.keys,key_resp.rt,instr_done_touch.x,instr_done_touch.y,instr_done_touch.leftButton,instr_done_touch.midButton,instr_done_touch.rightButton,instruction_pages.thisRepN,instruction_pages.thisTrialN,instruction_pages.thisN,instruction_pages.thisIndex,instruction_pages.ran,pageN,phase,instruct_text,has_image,instruct_image,participant,age,date,expName,psychopyVersion,OS,frameRate,response.keys,response.corr,response.rt,touch_resp.x,touch_resp.y,touch_resp.leftButton,touch_resp.midButton,touch_resp.rightButton,touch_resp.time,touch_resp.clicked_name,rt,corr,practrials.thisRepN,practrials.thisTrialN,practrials.thisN,practrials.thisIndex,practrials.ran,TrialID,Target,corrAns,end_of_practice_trials_pages.thisRepN,end_of_practice_trials_pages.thisTrialN,end_of_practice_trials_pages.thisN,end_of_practice_trials_pages.thisIndex,end_of_practice_trials_pages.ran,key_resp_2.keys,key_resp_2.corr,key_resp_2.rt,targ_click.x,targ_click.y,targ_click.leftButton,targ_click.midButton,targ_click.rightButton,targ_click.time,targ_click.clicked_name,break_done_touch.x,break_done_touch.y,break_done_touch.leftButton,break_done_touch.midButton,break_done_touch.rightButton,break_done_keyboard.keys,maintrials.thisRepN,maintrials.thisTrialN,maintrials.thisN,maintrials.thisIndex,maintrials.ran,string,blur,study,lex,stim_path,break_done_keyboard.rt,test_instructions.thisRepN,test_instructions.thisTrialN,test_instructions.thisN,test_instructions.thisIndex,test_instructions.ran,instr_done_touch.clicked_name,key_resp_3.keys,key_resp_3.corr,key_resp_3.rt,test_click.x,test_click.y,test_click.leftButton,test_click.midButton,test_click.rightButton,test_click.time,test_click.clicked_name,test_phase.thisRepN,test_phase.thisTrialN,test_phase.thisN,test_phase.thisIndex,test_phase.ran
space,25.919,-0.000925913,0.006481474,0,0,0,0,0,0,0,1,1,instructions,"INSTRUCTIONS
At the start of each trial, look at the plus sign  (+) in the center of the screen.  This tells you that a trial is about to begin and where to look. Second, the plus sign will disappear and a string of letters will appear. Your task is to determine if the string of letters is a word or not. If the item is a word press the M key (on keyboard)  or touch the word button (phone/tablet).  If the item is not a word,  press the  Z key (on keyboard)  or touch the nonword button (on phone/tablet). 
Press the space bar or touch  continue.",0,,199360,19,2022-01-28_15h19.53.360,lexical_decision_task_DD,2021.2.3,Win32,60.2373351,,,,,,,,,,,,,,,,,,,,,,,,,,,,,,,,,,,,,,,,,,,,,,,,,,,,,,,,,,,,,,,,,,,,,,,,,
space,6.0842,-0.000925913,0.006481474,0,0,0,0,1,1,1,1,2,instructions,"If your device has a keyboard, press the 'Z' key for nonwords and the 'M' key for words.





Press the space bar or touch the button below to continue.",0,keyboard-example.gif,199360,19,2022-01-28_15h19.53.360,lexical_decision_task_DD,2021.2.3,Win32,60.2373351,,,,,,,,,,,,,,,,,,,,,,,,,,,,,,,,,,,,,,,,,,,,,,,,,,,,,,,,,,,,,,,,,,,,,,,,,
space,2.9801,-0.000925913,0.006481474,0,0,0,0,2,2,2,1,3,instructions,"If you are using a touchscreen only device, use the buttons on the screen. Do not use the mouse.





Press the space bar or touch the button below to continue.",0,touchscreen-example.gif,199360,19,2022-01-28_15h19.53.360,lexical_decision_task_DD,2021.2.3,Win32,60.2373351,,,,,,,,,,,,,,,,,,,,,,,,,,,,,,,,,,,,,,,,,,,,,,,,,,,,,,,,,,,,,,,,,,,,,,,,,
space,8.7507,-0.000925913,0.006481474,0,0,0,0,3,3,3,1,4,instructions,"It is very important that you respond as quickly and accurately as possible, as each letter string will only be on the screen for two seconds. If you do not respond within this time, the message 'Too slow!' will be displayed and the experiment will progress to the next letter string. The first 20 trials will be practice trials and you will receive feedback on your answers. 

Press the space bar or touch the button below to start the practice trials.",0,,199360,19,2022-01-28_15h19.53.360,lexical_decision_task_DD,2021.2.3,Win32,60.2373351,,,,,,,,,,,,,,,,,,,,,,,,,,,,,,,,,,,,,,,,,,,,,,,,,,,,,,,,,,,,,,,,,,,,,,,,,
,,,,,,,,,,,,,,,,,199360,19,2022-01-28_15h19.53.360,lexical_decision_task_DD,2021.2.3,Win32,60.2373351,m,1,0.9624,,,,,,,,0.9624,1,0,0,0,6,1,1001,ZOMBIE,m,,,,,,,,,,,,,,,,,,,,,,,,,,,,,,,,,,,,,,,,,,,,,,,,,,,,,
,,,,,,,,,,,,,,,,,199360,19,2022-01-28_15h19.53.360,lexical_decision_task_DD,2021.2.3,Win32,60.2373351,m,1,0.7186,,,,,,,,0.7186,1,0,1,1,2,1,1001,ALMOND,m,,,,,,,,,,,,,,,,,,,,,,,,,,,,,,,,,,,,,,,,,,,,,,,,,,,,,
,,,,,,,,,,,,,,,,,199360,19,2022-01-28_15h19.53.360,lexical_decision_task_DD,2021.2.3,Win32,60.2373351,z,1,0.9882,,,,,,,,0.9882,1,0,2,2,8,1,1001,ASLERT,z,,,,,,,,,,,,,,,,,,,,,,,,,,,,,,,,,,,,,,,,,,,,,,,,,,,,,
,,,,,,,,,,,,,,,,,199360,19,2022-01-28_15h19.53.360,lexical_decision_task_DD,2021.2.3,Win32,60.2373351,m,1,0.7436,,,,,,,,0.7436,1,0,3,3,0,1,1001,UTOPIA,m,,,,,,,,,,,,,,,,,,,,,,,,,,,,,,,,,,,,,,,,,,,,,,,,,,,,,
,,,,,,,,,,,,,,,,,199360,19,2022-01-28_15h19.53.360,lexical_decision_task_DD,2021.2.3,Win32,60.2373351,m,1,0.6111,,,,,,,,0.6111,1,0,4,4,5,1,1001,OBTAIN,m,,,,,,,,,,,,,,,,,,,,,,,,,,,,,,,,,,,,,,,,,,,,,,,,,,,,,
,,,,,,,,,,,,,,,,,199360,19,2022-01-28_15h19.53.360,lexical_decision_task_DD,2021.2.3,Win32,60.2373351,m,1,0.6664,,,,,,,,0.6664,1,0,5,5,4,1,1001,SQUEAK,m,,,,,,,,,,,,,,,,,,,,,,,,,,,,,,,,,,,,,,,,,,,,,,,,,,,,,
,,,,,,,,,,,,,,,,,199360,19,2022-01-28_15h19.53.360,lexical_decision_task_DD,2021.2.3,Win32,60.2373351,z,1,1.4843,,,,,,,,1.4843,1,0,6,6,10,1,1001,INLADE,z,,,,,,,,,,,,,,,,,,,,,,,,,,,,,,,,,,,,,,,,,,,,,,,,,,,,,
,,,,,,,,,,,,,,,,,199360,19,2022-01-28_15h19.53.360,lexical_decision_task_DD,2021.2.3,Win32,60.2373351,m,1,0.7105,,,,,,,,0.7105,1,0,7,7,1,1,1001,ADJUST,m,,,,,,,,,,,,,,,,,,,,,,,,,,,,,,,,,,,,,,,,,,,,,,,,,,,,,
,,,,,,,,,,,,,,,,,199360,19,2022-01-28_15h19.53.360,lexical_decision_task_DD,2021.2.3,Win32,60.2373351,z,1,0.768,,,,,,,,0.768,1,0,8,8,15,1,1001,WHAISE,z,,,,,,,,,,,,,,,,,,,,,,,,,,,,,,,,,,,,,,,,,,,,,,,,,,,,,
,,,,,,,,,,,,,,,,,199360,19,2022-01-28_15h19.53.360,lexical_decision_task_DD,2021.2.3,Win32,60.2373351,m,1,0.9194,,,,,,,,0.9194,1,0,9,9,7,1,1001,VOLUME,m,,,,,,,,,,,,,,,,,,,,,,,,,,,,,,,,,,,,,,,,,,,,,,,,,,,,,
,,,,,,,,,,,,,,,,,199360,19,2022-01-28_15h19.53.360,lexical_decision_task_DD,2021.2.3,Win32,60.2373351,z,1,0.8421,,,,,,,,0.8421,1,0,10,10,11,1,1001,RASHET,z,,,,,,,,,,,,,,,,,,,,,,,,,,,,,,,,,,,,,,,,,,,,,,,,,,,,,
,,,,,,,,,,,,,,,,,199360,19,2022-01-28_15h19.53.360,lexical_decision_task_DD,2021.2.3,Win32,60.2373351,z,1,0.7339,,,,,,,,0.7339,1,0,11,11,14,1,1001,THRALE,z,,,,,,,,,,,,,,,,,,,,,,,,,,,,,,,,,,,,,,,,,,,,,,,,,,,,,
,,,,,,,,,,,,,,,,,199360,19,2022-01-28_15h19.53.360,lexical_decision_task_DD,2021.2.3,Win32,60.2373351,z,1,0.6893,,,,,,,,0.6893,1,0,12,12,9,1,1001,FARINY,z,,,,,,,,,,,,,,,,,,,,,,,,,,,,,,,,,,,,,,,,,,,,,,,,,,,,,
,,,,,,,,,,,,,,,,,199360,19,2022-01-28_15h19.53.360,lexical_decision_task_DD,2021.2.3,Win32,60.2373351,z,1,0.9219,,,,,,,,0.9219,1,0,13,13,13,1,1001,ROUPET,z,,,,,,,,,,,,,,,,,,,,,,,,,,,,,,,,,,,,,,,,,,,,,,,,,,,,,
,,,,,,,,,,,,,,,,,199360,19,2022-01-28_15h19.53.360,lexical_decision_task_DD,2021.2.3,Win32,60.2373351,m,1,0.8676,,,,,,,,0.8676,1,0,14,14,3,1,1001,MATRIX,m,,,,,,,,,,,,,,,,,,,,,,,,,,,,,,,,,,,,,,,,,,,,,,,,,,,,,
,,,,,,,,,,,,,,,,,199360,19,2022-01-28_15h19.53.360,lexical_decision_task_DD,2021.2.3,Win32,60.2373351,z,1,0.8411,,,,,,,,0.8411,1,0,15,15,12,1,1001,SPRINY,z,,,,,,,,,,,,,,,,,,,,,,,,,,,,,,,,,,,,,,,,,,,,,,,,,,,,,
space,11.6424,0.048148219,-0.196296363,0,0,0,,,,,,1,end_of_practice,"You have completed the practice trials. During the experimental trials, you will not receive feedback. 
Before you begin, please ensure that you are in a comfortable and quiet location and will not be disturbed for about 15 minutes, as we cannot use your data if you do not complete all the trials. 
 When you are ready to start the experimental trials, please press space or touch the button below.",,,199360,19,2022-01-28_15h19.53.360,lexical_decision_task_DD,2021.2.3,Win32,60.2373351,,,,,,,,,,,,,,,,,,,,,0,0,0,0,1,,,,,,,,,,,,,,,,,,,,,,,,,,,,,,,,,,,,,,,,,,,,,,,,
,,,,,,,,,,,,,,,,,199360,19,2022-01-28_15h19.53.360,lexical_decision_task_DD,2021.2.3,Win32,60.2373351,,,,,,,,,,,0.8524,1,,,,,,,,,,,,,,z,1,0.8524,,,,,,,,0.048148219,-0.196296363,0,0,0,,0,0,0,126,1,GUELS,C,old,z,./images/GUELS.png,,,,,,,,,,,,,,,,,,,,,,
,,,,,,,,,,,,,,,,,199360,19,2022-01-28_15h19.53.360,lexical_decision_task_DD,2021.2.3,Win32,60.2373351,,,,,,,,,,,0.7231,1,,,,,,,,,,,,,,z,1,0.7231,,,,,,,,0.048148219,-0.196296363,0,0,0,,0,1,1,86,1,AIFED,LB,old,z,./images/AIFEDLB.png,,,,,,,,,,,,,,,,,,,,,,
,,,,,,,,,,,,,,,,,199360,19,2022-01-28_15h19.53.360,lexical_decision_task_DD,2021.2.3,Win32,60.2373351,,,,,,,,,,,1.4506,1,,,,,,,,,,,,,,z,1,1.4506,,,,,,,,0.048148219,-0.196296363,0,0,0,,0,2,2,130,1,CRILL,HB,old,z,./images/CRILLHB.png,,,,,,,,,,,,,,,,,,,,,,
,,,,,,,,,,,,,,,,,199360,19,2022-01-28_15h19.53.360,lexical_decision_task_DD,2021.2.3,Win32,60.2373351,,,,,,,,,,,0.8392,0,,,,,,,,,,,,,,z,0,0.8392,,,,,,,,0.048148219,-0.196296363,0,0,0,,0,3,3,17,1,SKIING,LB,old,m,./images/SKIINGLB.png,,,,,,,,,,,,,,,,,,,,,,
,,,,,,,,,,,,,,,,,199360,19,2022-01-28_15h19.53.360,lexical_decision_task_DD,2021.2.3,Win32,60.2373351,,,,,,,,,,,0.9507,1,,,,,,,,,,,,,,m,1,0.9507,,,,,,,,0.048148219,-0.196296363,0,0,0,,0,4,4,58,1,BABOON,HB,old,m,./images/BABOONHB.png,,,,,,,,,,,,,,,,,,,,,,
,,,,,,,,,,,,,,,,,199360,19,2022-01-28_15h19.53.360,lexical_decision_task_DD,2021.2.3,Win32,60.2373351,,,,,,,,,,,0.6349,1,,,,,,,,,,,,,,m,1,0.6349,,,,,,,,0.048148219,-0.196296363,0,0,0,,0,5,5,34,1,CANYON,HB,old,m,./images/CANYONHB.png,,,,,,,,,,,,,,,,,,,,,,
,,,,,,,,,,,,,,,,,199360,19,2022-01-28_15h19.53.360,lexical_decision_task_DD,2021.2.3,Win32,60.2373351,,,,,,,,,,,1.1503,1,,,,,,,,,,,,,,z,1,1.1503,,,,,,,,0.048148219,-0.196296363,0,0,0,,0,6,6,151,1,TINKY,HB,old,z,./images/TINKYHB.png,,,,,,,,,,,,,,,,,,,,,,
,,,,,,,,,,,,,,,,,199360,19,2022-01-28_15h19.53.360,lexical_decision_task_DD,2021.2.3,Win32,60.2373351,,,,,,,,,,,0.7839,1,,,,,,,,,,,,,,z,1,0.7839,,,,,,,,0.048148219,-0.196296363,0,0,0,,0,7,7,129,1,PRANS,C,old,z,./images/PRANS.png,,,,,,,,,,,,,,,,,,,,,,
,,,,,,,,,,,,,,,,,199360,19,2022-01-28_15h19.53.360,lexical_decision_task_DD,2021.2.3,Win32,60.2373351,,,,,,,,,,,1.2461,1,,,,,,,,,,,,,,z,1,1.2461,,,,,,,,0.048148219,-0.196296363,0,0,0,,0,8,8,110,1,CRUNK,LB,old,z,./images/CRUNKLB.png,,,,,,,,,,,,,,,,,,,,,,
,,,,,,,,,,,,,,,,,199360,19,2022-01-28_15h19.53.360,lexical_decision_task_DD,2021.2.3,Win32,60.2373351,,,,,,,,,,,0.7176,1,,,,,,,,,,,,,,z,1,0.7176,,,,,,,,0.048148219,-0.196296363,0,0,0,,0,9,9,117,1,STEEG,C,old,z,./images/STEEG.png,,,,,,,,,,,,,,,,,,,,,,
,,,,,,,,,,,,,,,,,199360,19,2022-01-28_15h19.53.360,lexical_decision_task_DD,2021.2.3,Win32,60.2373351,,,,,,,,,,,0.636,1,,,,,,,,,,,,,,m,1,0.636,,,,,,,,0.048148219,-0.196296363,0,0,0,,0,10,10,83,1,JUNGLE,LB,old,m,./images/JUNGLELB.png,,,,,,,,,,,,,,,,,,,,,,
,,,,,,,,,,,,,,,,,199360,19,2022-01-28_15h19.53.360,lexical_decision_task_DD,2021.2.3,Win32,60.2373351,,,,,,,,,,,1.4007,1,,,,,,,,,,,,,,z,1,1.4007,,,,,,,,0.048148219,-0.196296363,0,0,0,,0,11,11,154,1,THINT,HB,old,z,./images/THINTHB.png,,,,,,,,,,,,,,,,,,,,,,
,,,,,,,,,,,,,,,,,199360,19,2022-01-28_15h19.53.360,lexical_decision_task_DD,2021.2.3,Win32,60.2373351,,,,,,,,,,,1.2849,0,,,,,,,,,,,,,,z,0,1.2849,,,,,,,,0.048148219,-0.196296363,0,0,0,,0,12,12,49,1,DRUMS,HB,old,m,./images/DRUMSHB.png,,,,,,,,,,,,,,,,,,,,,,
,,,,,,,,,,,,,,,,,199360,19,2022-01-28_15h19.53.360,lexical_decision_task_DD,2021.2.3,Win32,60.2373351,,,,,,,,,,,0.6238,1,,,,,,,,,,,,,,m,1,0.6238,,,,,,,,0.048148219,-0.196296363,0,0,0,,0,13,13,41,1,STRING,LB,old,m,./images/STRINGLB.png,,,,,,,,,,,,,,,,,,,,,,
,,,,,,,,,,,,,,,,,199360,19,2022-01-28_15h19.53.360,lexical_decision_task_DD,2021.2.3,Win32,60.2373351,,,,,,,,,,,0.8016,1,,,,,,,,,,,,,,z,1,0.8016,,,,,,,,0.048148219,-0.196296363,0,0,0,,0,14,14,101,1,GLEET,LB,old,z,./images/GLEETLB.png,,,,,,,,,,,,,,,,,,,,,,
,,,,,,,,,,,,,,,,,199360,19,2022-01-28_15h19.53.360,lexical_decision_task_DD,2021.2.3,Win32,60.2373351,,,,,,,,,,,0.968,1,,,,,,,,,,,,,,z,1,0.968,,,,,,,,0.048148219,-0.196296363,0,0,0,,0,15,15,164,1,SGREW,LB,old,z,./images/SGREWLB.png,,,,,,,,,,,,,,,,,,,,,,
,,,,,,,,,,,,,,,,,199360,19,2022-01-28_15h19.53.360,lexical_decision_task_DD,2021.2.3,Win32,60.2373351,,,,,,,,,,,0.8355,1,,,,,,,,,,,,,,z,1,0.8355,,,,,,,,0.048148219,-0.196296363,0,0,0,,0,16,16,113,1,LINEW,LB,old,z,./images/LINEWLB.png,,,,,,,,,,,,,,,,,,,,,,
,,,,,,,,,,,,,,,,,199360,19,2022-01-28_15h19.53.360,lexical_decision_task_DD,2021.2.3,Win32,60.2373351,,,,,,,,,,,0.7863,1,,,,,,,,,,,,,,z,1,0.7863,,,,,,,,0.048148219,-0.196296363,0,0,0,,0,17,17,123,1,SEDGE,C,old,z,./images/SEDGE.png,,,,,,,,,,,,,,,,,,,,,,
,,,,,,,,,,,,,,,,,199360,19,2022-01-28_15h19.53.360,lexical_decision_task_DD,2021.2.3,Win32,60.2373351,,,,,,,,,,,0.696,1,,,,,,,,,,,,,,m,1,0.696,,,,,,,,0.048148219,-0.196296363,0,0,0,,0,18,18,26,1,SMOKER,LB,old,m,./images/SMOKERLB.png,,,,,,,,,,,,,,,,,,,,,,
,,,,,,,,,,,,,,,,,199360,19,2022-01-28_15h19.53.360,lexical_decision_task_DD,2021.2.3,Win32,60.2373351,,,,,,,,,,,1.5513,1,,,,,,,,,,,,,,z,1,1.5513,,,,,,,,0.048148219,-0.196296363,0,0,0,,0,19,19,121,1,CEERS,HB,old,z,./images/CEERSHB.png,,,,,,,,,,,,,,,,,,,,,,
,,,,,,,,,,,,,,,,,199360,19,2022-01-28_15h19.53.360,lexical_decision_task_DD,2021.2.3,Win32,60.2373351,,,,,,,,,,,0.8673,1,,,,,,,,,,,,,,m,1,0.8673,,,,,,,,0.048148219,-0.196296363,0,0,0,,0,20,20,10,1,BELLY,HB,old,m,./images/BELLYHB.png,,,,,,,,,,,,,,,,,,,,,,
,,,,,,,,,,,,,,,,,199360,19,2022-01-28_15h19.53.360,lexical_decision_task_DD,2021.2.3,Win32,60.2373351,,,,,,,,,,,1.017,1,,,,,,,,,,,,,,m,1,1.017,,,,,,,,0.048148219,-0.196296363,0,0,0,,0,21,21,50,1,MALLET,LB,old,m,./images/MALLETLB.png,,,,,,,,,,,,,,,,,,,,,,
,,,,,,,,,,,,,,,,,199360,19,2022-01-28_15h19.53.360,lexical_decision_task_DD,2021.2.3,Win32,60.2373351,,,,,,,,,,,0.9802,1,,,,,,,,,,,,,,m,1,0.9802,,,,,,,,0.048148219,-0.196296363,0,0,0,,0,22,22,11,1,BONNET,LB,old,m,./images/BONNETLB.png,,,,,,,,,,,,,,,,,,,,,,
,,,,,,,,,,,,,,,,,199360,19,2022-01-28_15h19.53.360,lexical_decision_task_DD,2021.2.3,Win32,60.2373351,,,,,,,,,,,0.6407,1,,,,,,,,,,,,,,m,1,0.6407,,,,,,,,0.048148219,-0.196296363,0,0,0,,0,23,23,5,1,PASTA,LB,old,m,./images/PASTALB.png,,,,,,,,,,,,,,,,,,,,,,
,,,,,,,,,,,,,,,,,199360,19,2022-01-28_15h19.53.360,lexical_decision_task_DD,2021.2.3,Win32,60.2373351,,,,,,,,,,,0.7861,1,,,,,,,,,,,,,,m,1,0.7861,,,,,,,,0.048148219,-0.196296363,0,0,0,,0,24,24,70,1,URINE,HB,old,m,./images/URINEHB.png,,,,,,,,,,,,,,,,,,,,,,
,,,,,,,,,,,,,,,,,199360,19,2022-01-28_15h19.53.360,lexical_decision_task_DD,2021.2.3,Win32,60.2373351,,,,,,,,,,,1.1852,1,,,,,,,,,,,,,,z,1,1.1852,,,,,,,,0.048148219,-0.196296363,0,0,0,,0,25,25,142,1,PLASK,HB,old,z,./images/PLASKHB.png,,,,,,,,,,,,,,,,,,,,,,
,,,,,,,,,,,,,,,,,199360,19,2022-01-28_15h19.53.360,lexical_decision_task_DD,2021.2.3,Win32,60.2373351,,,,,,,,,,,0.9342,1,,,,,,,,,,,,,,m,1,0.9342,,,,,,,,0.048148219,-0.196296363,0,0,0,,0,26,26,44,1,LIZARD,LB,old,m,./images/LIZARDLB.png,,,,,,,,,,,,,,,,,,,,,,
,,,,,,,,,,,,,,,,,199360,19,2022-01-28_15h19.53.360,lexical_decision_task_DD,2021.2.3,Win32,60.2373351,,,,,,,,,,,0.8276,1,,,,,,,,,,,,,,z,1,0.8276,,,,,,,,0.048148219,-0.196296363,0,0,0,,0,27,27,135,1,JOODY,C,old,z,./images/JOODY.png,,,,,,,,,,,,,,,,,,,,,,
,,,,,,,,,,,,,,,,,199360,19,2022-01-28_15h19.53.360,lexical_decision_task_DD,2021.2.3,Win32,60.2373351,,,,,,,,,,,1.2711,1,,,,,,,,,,,,,,m,1,1.2711,,,,,,,,0.048148219,-0.196296363,0,0,0,,0,28,28,43,1,MOSQUE,HB,old,m,./images/MOSQUEHB.png,,,,,,,,,,,,,,,,,,,,,,
,,,,,,,,,,,,,,,,,199360,19,2022-01-28_15h19.53.360,lexical_decision_task_DD,2021.2.3,Win32,60.2373351,,,,,,,,,,,1.0211,1,,,,,,,,,,,,,,z,1,1.0211,,,,,,,,0.048148219,-0.196296363,0,0,0,,0,29,29,114,1,RIKES,C,old,z,./images/RIKES.png,,,,,,,,,,,,,,,,,,,,,,
,,,,,,,,,,,,,,,,,199360,19,2022-01-28_15h19.53.360,lexical_decision_task_DD,2021.2.3,Win32,60.2373351,,,,,,,,,,,1.4889,1,,,,,,,,,,,,,,m,1,1.4889,,,,,,,,0.048148219,-0.196296363,0,0,0,,0,30,30,16,1,PENCE,HB,old,m,./images/PENCEHB.png,,,,,,,,,,,,,,,,,,,,,,
,,,,,,,,,,,,,,,,,199360,19,2022-01-28_15h19.53.360,lexical_decision_task_DD,2021.2.3,Win32,60.2373351,,,,,,,,,,,0.6696,1,,,,,,,,,,,,,,m,1,0.6696,,,,,,,,0.048148219,-0.196296363,0,0,0,,0,31,31,35,1,PEACH,LB,old,m,./images/PEACHLB.png,,,,,,,,,,,,,,,,,,,,,,
,,,,,,,,,,,,,,,,,199360,19,2022-01-28_15h19.53.360,lexical_decision_task_DD,2021.2.3,Win32,60.2373351,,,,,,,,,,,0.6582,1,,,,,,,,,,,,,,m,1,0.6582,,,,,,,,0.048148219,-0.196296363,0,0,0,,0,32,32,68,1,TORCH,LB,old,m,./images/TORCHLB.png,,,,,,,,,,,,,,,,,,,,,,
,,,,,,,,,,,,,,,,,199360,19,2022-01-28_15h19.53.360,lexical_decision_task_DD,2021.2.3,Win32,60.2373351,,,,,,,,,,,0.8383,1,,,,,,,,,,,,,,z,1,0.8383,,,,,,,,0.048148219,-0.196296363,0,0,0,,0,33,33,152,1,FRAIN,LB,old,z,./images/FRAINLB.png,,,,,,,,,,,,,,,,,,,,,,
,,,,,,,,,,,,,,,,,199360,19,2022-01-28_15h19.53.360,lexical_decision_task_DD,2021.2.3,Win32,60.2373351,,,,,,,,,,,0.6675,1,,,,,,,,,,,,,,m,1,0.6675,,,,,,,,0.048148219,-0.196296363,0,0,0,,0,34,34,9,1,RHINO,C,old,m,./images/RHINO.png,,,,,,,,,,,,,,,,,,,,,,
,,,,,,,,,,,,,,,,,199360,19,2022-01-28_15h19.53.360,lexical_decision_task_DD,2021.2.3,Win32,60.2373351,,,,,,,,,,,0.6717,1,,,,,,,,,,,,,,m,1,0.6717,,,,,,,,0.048148219,-0.196296363,0,0,0,,0,35,35,78,1,LITTER,C,old,m,./images/LITTER.png,,,,,,,,,,,,,,,,,,,,,,
,,,,,,,,,,,,,,,,,199360,19,2022-01-28_15h19.53.360,lexical_decision_task_DD,2021.2.3,Win32,60.2373351,,,,,,,,,,,0.7456,1,,,,,,,,,,,,,,m,1,0.7456,,,,,,,,0.048148219,-0.196296363,0,0,0,,0,36,36,52,1,BANNER,HB,old,m,./images/BANNERHB.png,,,,,,,,,,,,,,,,,,,,,,
,,,,,,,,,,,,,,,,,199360,19,2022-01-28_15h19.53.360,lexical_decision_task_DD,2021.2.3,Win32,60.2373351,,,,,,,,,,,0.5563,1,,,,,,,,,,,,,,m,1,0.5563,,,,,,,,0.048148219,-0.196296363,0,0,0,,0,37,37,39,1,SHELF,C,old,m,./images/SHELF.png,,,,,,,,,,,,,,,,,,,,,,
,,,,,,,,,,,,,,,,,199360,19,2022-01-28_15h19.53.360,lexical_decision_task_DD,2021.2.3,Win32,60.2373351,,,,,,,,,,,0.4581,1,,,,,,,,,,,,,,m,1,0.4581,,,,,,,,0.048148219,-0.196296363,0,0,0,,0,38,38,12,1,SHORE,C,old,m,./images/SHORE.png,,,,,,,,,,,,,,,,,,,,,,
,,,,,,,,,,,,,,,,,199360,19,2022-01-28_15h19.53.360,lexical_decision_task_DD,2021.2.3,Win32,60.2373351,,,,,,,,,,,1.1681,1,,,,,,,,,,,,,,z,1,1.1681,,,,,,,,0.048148219,-0.196296363,0,0,0,,0,39,39,145,1,LAMEL,HB,old,z,./images/LAMELHB.png,,,,,,,,,,,,,,,,,,,,,,
,,,,,,,,,,,,,,,,,199360,19,2022-01-28_15h19.53.360,lexical_decision_task_DD,2021.2.3,Win32,60.2373351,,,,,,,,,,,0.7035,1,,,,,,,,,,,,,,z,1,0.7035,,,,,,,,0.048148219,-0.196296363,0,0,0,,0,40,40,91,1,SHENS,HB,old,z,./images/SHENSHB.png,,,,,,,,,,,,,,,,,,,,,,
,,,,,,,,,,,,,,,,,199360,19,2022-01-28_15h19.53.360,lexical_decision_task_DD,2021.2.3,Win32,60.2373351,,,,,,,,,,,0.6679,1,,,,,,,,,,,,,,z,1,0.6679,,,,,,,,0.048148219,-0.196296363,0,0,0,space,0,41,41,119,1,PAFER,LB,old,z,./images/PAFERLB.png,4.1086,,,,,,,,,,,,,,,,,,,,,
,,,,,,,,,,,,,,,,,199360,19,2022-01-28_15h19.53.360,lexical_decision_task_DD,2021.2.3,Win32,60.2373351,,,,,,,,,,,0.4682,1,,,,,,,,,,,,,,m,1,0.4682,,,,,,,,0.048148219,-0.196296363,0,0,0,,0,42,42,81,1,POODLE,C,old,m,./images/POODLE.png,,,,,,,,,,,,,,,,,,,,,,
,,,,,,,,,,,,,,,,,199360,19,2022-01-28_15h19.53.360,lexical_decision_task_DD,2021.2.3,Win32,60.2373351,,,,,,,,,,,0.6039,1,,,,,,,,,,,,,,m,1,0.6039,,,,,,,,0.048148219,-0.196296363,0,0,0,,0,43,43,3,1,FINGER,C,old,m,./images/FINGER.png,,,,,,,,,,,,,,,,,,,,,,
,,,,,,,,,,,,,,,,,199360,19,2022-01-28_15h19.53.360,lexical_decision_task_DD,2021.2.3,Win32,60.2373351,,,,,,,,,,,0.5176,1,,,,,,,,,,,,,,m,1,0.5176,,,,,,,,0.048148219,-0.196296363,0,0,0,,0,44,44,23,1,WALRUS,LB,old,m,./images/WALRUSLB.png,,,,,,,,,,,,,,,,,,,,,,
,,,,,,,,,,,,,,,,,199360,19,2022-01-28_15h19.53.360,lexical_decision_task_DD,2021.2.3,Win32,60.2373351,,,,,,,,,,,0.459,1,,,,,,,,,,,,,,m,1,0.459,,,,,,,,0.048148219,-0.196296363,0,0,0,,0,45,45,56,1,PACKET,LB,old,m,./images/PACKETLB.png,,,,,,,,,,,,,,,,,,,,,,
,,,,,,,,,,,,,,,,,199360,19,2022-01-28_15h19.53.360,lexical_decision_task_DD,2021.2.3,Win32,60.2373351,,,,,,,,,,,0.4552,1,,,,,,,,,,,,,,m,1,0.4552,,,,,,,,0.048148219,-0.196296363,0,0,0,,0,46,46,32,1,BARREL,LB,old,m,./images/BARRELLB.png,,,,,,,,,,,,,,,,,,,,,,
,,,,,,,,,,,,,,,,,199360,19,2022-01-28_15h19.53.360,lexical_decision_task_DD,2021.2.3,Win32,60.2373351,,,,,,,,,,,0.4338,1,,,,,,,,,,,,,,m,1,0.4338,,,,,,,,0.048148219,-0.196296363,0,0,0,,0,47,47,15,1,GREASE,C,old,m,./images/GREASE.png,,,,,,,,,,,,,,,,,,,,,,
,,,,,,,,,,,,,,,,,199360,19,2022-01-28_15h19.53.360,lexical_decision_task_DD,2021.2.3,Win32,60.2373351,,,,,,,,,,,0.718,1,,,,,,,,,,,,,,z,1,0.718,,,,,,,,0.048148219,-0.196296363,0,0,0,,0,48,48,103,1,FLORT,HB,old,z,./images/FLORTHB.png,,,,,,,,,,,,,,,,,,,,,,
,,,,,,,,,,,,,,,,,199360,19,2022-01-28_15h19.53.360,lexical_decision_task_DD,2021.2.3,Win32,60.2373351,,,,,,,,,,,0.6703,1,,,,,,,,,,,,,,m,1,0.6703,,,,,,,,0.048148219,-0.196296363,0,0,0,,0,49,49,40,1,SWING,HB,old,m,./images/SWINGHB.png,,,,,,,,,,,,,,,,,,,,,,
,,,,,,,,,,,,,,,,,199360,19,2022-01-28_15h19.53.360,lexical_decision_task_DD,2021.2.3,Win32,60.2373351,,,,,,,,,,,0.5943,1,,,,,,,,,,,,,,z,1,0.5943,,,,,,,,0.048148219,-0.196296363,0,0,0,,0,50,50,120,1,RINED,C,old,z,./images/RINED.png,,,,,,,,,,,,,,,,,,,,,,
,,,,,,,,,,,,,,,,,199360,19,2022-01-28_15h19.53.360,lexical_decision_task_DD,2021.2.3,Win32,60.2373351,,,,,,,,,,,0.5712,1,,,,,,,,,,,,,,z,1,0.5712,,,,,,,,0.048148219,-0.196296363,0,0,0,,0,51,51,95,1,HANTY,LB,old,z,./images/HANTYLB.png,,,,,,,,,,,,,,,,,,,,,,
,,,,,,,,,,,,,,,,,199360,19,2022-01-28_15h19.53.360,lexical_decision_task_DD,2021.2.3,Win32,60.2373351,,,,,,,,,,,0.5261,1,,,,,,,,,,,,,,m,1,0.5261,,,,,,,,0.048148219,-0.196296363,0,0,0,,0,52,52,71,1,PIMPLE,LB,old,m,./images/PIMPLELB.png,,,,,,,,,,,,,,,,,,,,,,
,,,,,,,,,,,,,,,,,199360,19,2022-01-28_15h19.53.360,lexical_decision_task_DD,2021.2.3,Win32,60.2373351,,,,,,,,,,,1.152,1,,,,,,,,,,,,,,m,1,1.152,,,,,,,,0.048148219,-0.196296363,0,0,0,,0,53,53,4,1,MUSCLE,HB,old,m,./images/MUSCLEHB.png,,,,,,,,,,,,,,,,,,,,,,
,,,,,,,,,,,,,,,,,199360,19,2022-01-28_15h19.53.360,lexical_decision_task_DD,2021.2.3,Win32,60.2373351,,,,,,,,,,,0.8846,1,,,,,,,,,,,,,,z,1,0.8846,,,,,,,,0.048148219,-0.196296363,0,0,0,,0,54,54,97,1,CHIDS,HB,old,z,./images/CHIDSHB.png,,,,,,,,,,,,,,,,,,,,,,
,,,,,,,,,,,,,,,,,199360,19,2022-01-28_15h19.53.360,lexical_decision_task_DD,2021.2.3,Win32,60.2373351,,,,,,,,,,,0.6879,1,,,,,,,,,,,,,,z,1,0.6879,,,,,,,,0.048148219,-0.196296363,0,0,0,,0,55,55,150,1,NOOLS,C,old,z,./images/NOOLS.png,,,,,,,,,,,,,,,,,,,,,,
,,,,,,,,,,,,,,,,,199360,19,2022-01-28_15h19.53.360,lexical_decision_task_DD,2021.2.3,Win32,60.2373351,,,,,,,,,,,0.5842,1,,,,,,,,,,,,,,m,1,0.5842,,,,,,,,0.048148219,-0.196296363,0,0,0,,0,56,56,66,1,SWEAT,C,old,m,./images/SWEAT.png,,,,,,,,,,,,,,,,,,,,,,
,,,,,,,,,,,,,,,,,199360,19,2022-01-28_15h19.53.360,lexical_decision_task_DD,2021.2.3,Win32,60.2373351,,,,,,,,,,,0.6017,1,,,,,,,,,,,,,,m,1,0.6017,,,,,,,,0.048148219,-0.196296363,0,0,0,,0,57,57,79,1,CRUST,HB,old,m,./images/CRUSTHB.png,,,,,,,,,,,,,,,,,,,,,,
,,,,,,,,,,,,,,,,,199360,19,2022-01-28_15h19.53.360,lexical_decision_task_DD,2021.2.3,Win32,60.2373351,,,,,,,,,,,0.6259,1,,,,,,,,,,,,,,m,1,0.6259,,,,,,,,0.048148219,-0.196296363,0,0,0,,0,58,58,59,1,BURIAL,LB,old,m,./images/BURIALLB.png,,,,,,,,,,,,,,,,,,,,,,
,,,,,,,,,,,,,,,,,199360,19,2022-01-28_15h19.53.360,lexical_decision_task_DD,2021.2.3,Win32,60.2373351,,,,,,,,,,,0.61,1,,,,,,,,,,,,,,z,1,0.61,,,,,,,,0.048148219,-0.196296363,0,0,0,,0,59,59,105,1,MOKER,C,old,z,./images/MOKER.png,,,,,,,,,,,,,,,,,,,,,,
,,,,,,,,,,,,,,,,,199360,19,2022-01-28_15h19.53.360,lexical_decision_task_DD,2021.2.3,Win32,60.2373351,,,,,,,,,,,0.506,1,,,,,,,,,,,,,,m,1,0.506,,,,,,,,0.048148219,-0.196296363,0,0,0,,0,60,60,77,1,COUCH,LB,old,m,./images/COUCHLB.png,,,,,,,,,,,,,,,,,,,,,,
,,,,,,,,,,,,,,,,,199360,19,2022-01-28_15h19.53.360,lexical_decision_task_DD,2021.2.3,Win32,60.2373351,,,,,,,,,,,0.5672,1,,,,,,,,,,,,,,z,1,0.5672,,,,,,,,0.048148219,-0.196296363,0,0,0,,0,61,61,158,1,EGECT,LB,old,z,./images/EGECTLB.png,,,,,,,,,,,,,,,,,,,,,,
,,,,,,,,,,,,,,,,,199360,19,2022-01-28_15h19.53.360,lexical_decision_task_DD,2021.2.3,Win32,60.2373351,,,,,,,,,,,0.5849,1,,,,,,,,,,,,,,z,1,0.5849,,,,,,,,0.048148219,-0.196296363,0,0,0,,0,62,62,98,1,BAMPS,LB,old,z,./images/BAMPSLB.png,,,,,,,,,,,,,,,,,,,,,,
,,,,,,,,,,,,,,,,,199360,19,2022-01-28_15h19.53.360,lexical_decision_task_DD,2021.2.3,Win32,60.2373351,,,,,,,,,,,1.1851,1,,,,,,,,,,,,,,z,1,1.1851,,,,,,,,0.048148219,-0.196296363,0,0,0,,0,63,63,112,1,MYING,HB,old,z,./images/MYINGHB.png,,,,,,,,,,,,,,,,,,,,,,
,,,,,,,,,,,,,,,,,199360,19,2022-01-28_15h19.53.360,lexical_decision_task_DD,2021.2.3,Win32,60.2373351,,,,,,,,,,,0.9517,1,,,,,,,,,,,,,,z,1,0.9517,,,,,,,,0.048148219,-0.196296363,0,0,0,,0,64,64,94,1,BLANS,HB,old,z,./images/BLANSHB.png,,,,,,,,,,,,,,,,,,,,,,
,,,,,,,,,,,,,,,,,199360,19,2022-01-28_15h19.53.360,lexical_decision_task_DD,2021.2.3,Win32,60.2373351,,,,,,,,,,,2.0675,1,,,,,,,,,,,,,,z,1,2.0675,,,,,,,,0.048148219,-0.196296363,0,0,0,,0,65,65,139,1,BLEAR,HB,old,z,./images/BLEARHB.png,,,,,,,,,,,,,,,,,,,,,,
,,,,,,,,,,,,,,,,,199360,19,2022-01-28_15h19.53.360,lexical_decision_task_DD,2021.2.3,Win32,60.2373351,,,,,,,,,,,1.7166,0,,,,,,,,,,,,,,m,0,1.7166,,,,,,,,0.048148219,-0.196296363,0,0,0,,0,66,66,109,1,BURGE,HB,old,z,./images/BURGEHB.png,,,,,,,,,,,,,,,,,,,,,,
,,,,,,,,,,,,,,,,,199360,19,2022-01-28_15h19.53.360,lexical_decision_task_DD,2021.2.3,Win32,60.2373351,,,,,,,,,,,0.7358,1,,,,,,,,,,,,,,m,1,0.7358,,,,,,,,0.048148219,-0.196296363,0,0,0,,0,67,67,37,1,BIRTH,HB,old,m,./images/BIRTHHB.png,,,,,,,,,,,,,,,,,,,,,,
,,,,,,,,,,,,,,,,,199360,19,2022-01-28_15h19.53.360,lexical_decision_task_DD,2021.2.3,Win32,60.2373351,,,,,,,,,,,0.7517,1,,,,,,,,,,,,,,m,1,0.7517,,,,,,,,0.048148219,-0.196296363,0,0,0,,0,68,68,46,1,PEARL,HB,old,m,./images/PEARLHB.png,,,,,,,,,,,,,,,,,,,,,,
,,,,,,,,,,,,,,,,,199360,19,2022-01-28_15h19.53.360,lexical_decision_task_DD,2021.2.3,Win32,60.2373351,,,,,,,,,,,1.285,1,,,,,,,,,,,,,,z,1,1.285,,,,,,,,0.048148219,-0.196296363,0,0,0,,0,69,69,118,1,BAVEL,HB,old,z,./images/BAVELHB.png,,,,,,,,,,,,,,,,,,,,,,
,,,,,,,,,,,,,,,,,199360,19,2022-01-28_15h19.53.360,lexical_decision_task_DD,2021.2.3,Win32,60.2373351,,,,,,,,,,,1.0545,1,,,,,,,,,,,,,,z,1,1.0545,,,,,,,,0.048148219,-0.196296363,0,0,0,,0,70,70,84,1,HAXES,C,old,z,./images/HAXES.png,,,,,,,,,,,,,,,,,,,,,,
,,,,,,,,,,,,,,,,,199360,19,2022-01-28_15h19.53.360,lexical_decision_task_DD,2021.2.3,Win32,60.2373351,,,,,,,,,,,0.6191,1,,,,,,,,,,,,,,z,1,0.6191,,,,,,,,0.048148219,-0.196296363,0,0,0,,0,71,71,137,1,JOOST,LB,old,z,./images/JOOSTLB.png,,,,,,,,,,,,,,,,,,,,,,
,,,,,,,,,,,,,,,,,199360,19,2022-01-28_15h19.53.360,lexical_decision_task_DD,2021.2.3,Win32,60.2373351,,,,,,,,,,,0.504,1,,,,,,,,,,,,,,z,1,0.504,,,,,,,,0.048148219,-0.196296363,0,0,0,,0,72,72,102,1,DULLE,C,old,z,./images/DULLE.png,,,,,,,,,,,,,,,,,,,,,,
,,,,,,,,,,,,,,,,,199360,19,2022-01-28_15h19.53.360,lexical_decision_task_DD,2021.2.3,Win32,60.2373351,,,,,,,,,,,0.5173,1,,,,,,,,,,,,,,m,1,0.5173,,,,,,,,0.048148219,-0.196296363,0,0,0,,0,73,73,65,1,FARMER,LB,old,m,./images/FARMERLB.png,,,,,,,,,,,,,,,,,,,,,,
,,,,,,,,,,,,,,,,,199360,19,2022-01-28_15h19.53.360,lexical_decision_task_DD,2021.2.3,Win32,60.2373351,,,,,,,,,,,0.671,1,,,,,,,,,,,,,,z,1,0.671,,,,,,,,0.048148219,-0.196296363,0,0,0,,0,74,74,143,1,MONGS,LB,old,z,./images/MONGSLB.png,,,,,,,,,,,,,,,,,,,,,,
,,,,,,,,,,,,,,,,,199360,19,2022-01-28_15h19.53.360,lexical_decision_task_DD,2021.2.3,Win32,60.2373351,,,,,,,,,,,0.5016,1,,,,,,,,,,,,,,m,1,0.5016,,,,,,,,0.048148219,-0.196296363,0,0,0,,0,75,75,75,1,GRAIN,C,old,m,./images/GRAIN.png,,,,,,,,,,,,,,,,,,,,,,
,,,,,,,,,,,,,,,,,199360,19,2022-01-28_15h19.53.360,lexical_decision_task_DD,2021.2.3,Win32,60.2373351,,,,,,,,,,,0.6888,1,,,,,,,,,,,,,,m,1,0.6888,,,,,,,,0.048148219,-0.196296363,0,0,0,,0,76,76,82,1,SUNSET,HB,old,m,./images/SUNSETHB.png,,,,,,,,,,,,,,,,,,,,,,
,,,,,,,,,,,,,,,,,199360,19,2022-01-28_15h19.53.360,lexical_decision_task_DD,2021.2.3,Win32,60.2373351,,,,,,,,,,,0.5421,1,,,,,,,,,,,,,,m,1,0.5421,,,,,,,,0.048148219,-0.196296363,0,0,0,,0,77,77,0,1,TOMATO,C,old,m,./images/TOMATO.png,,,,,,,,,,,,,,,,,,,,,,
,,,,,,,,,,,,,,,,,199360,19,2022-01-28_15h19.53.360,lexical_decision_task_DD,2021.2.3,Win32,60.2373351,,,,,,,,,,,0.8349,1,,,,,,,,,,,,,,m,1,0.8349,,,,,,,,0.048148219,-0.196296363,0,0,0,,0,78,78,13,1,MOTOR,HB,old,m,./images/MOTORHB.png,,,,,,,,,,,,,,,,,,,,,,
,,,,,,,,,,,,,,,,,199360,19,2022-01-28_15h19.53.360,lexical_decision_task_DD,2021.2.3,Win32,60.2373351,,,,,,,,,,,0.7684,1,,,,,,,,,,,,,,z,1,0.7684,,,,,,,,0.048148219,-0.196296363,0,0,0,,0,79,79,146,1,MOOST,LB,old,z,./images/MOOSTLB.png,,,,,,,,,,,,,,,,,,,,,,
,,,,,,,,,,,,,,,,,199360,19,2022-01-28_15h19.53.360,lexical_decision_task_DD,2021.2.3,Win32,60.2373351,,,,,,,,,,,0.5681,1,,,,,,,,,,,,,,z,1,0.5681,,,,,,,,0.048148219,-0.196296363,0,0,0,,0,80,80,116,1,BALGY,LB,old,z,./images/BALGYLB.png,,,,,,,,,,,,,,,,,,,,,,
,,,,,,,,,,,,,,,,,199360,19,2022-01-28_15h19.53.360,lexical_decision_task_DD,2021.2.3,Win32,60.2373351,,,,,,,,,,,0.4731,1,,,,,,,,,,,,,,m,1,0.4731,,,,,,,,0.048148219,-0.196296363,0,0,0,,0,81,81,60,1,TWINS,C,old,m,./images/TWINS.png,,,,,,,,,,,,,,,,,,,,,,
,,,,,,,,,,,,,,,,,199360,19,2022-01-28_15h19.53.360,lexical_decision_task_DD,2021.2.3,Win32,60.2373351,,,,,,,,,,,1.0481,1,,,,,,,,,,,,,,m,1,1.0481,,,,,,,,0.048148219,-0.196296363,0,0,0,,0,82,82,69,1,COOKER,C,old,m,./images/COOKER.png,,,,,,,,,,,,,,,,,,,,,,
,,,,,,,,,,,,,,,,,199360,19,2022-01-28_15h19.53.360,lexical_decision_task_DD,2021.2.3,Win32,60.2373351,,,,,,,,,,,0.562,1,,,,,,,,,,,,,,z,1,0.562,,,,,,,,0.048148219,-0.196296363,0,0,0,space,0,83,83,141,1,PLEET,C,old,z,./images/PLEET.png,66.0325,,,,,,,,,,,,,,,,,,,,,
,,,,,,,,,,,,,,,,,199360,19,2022-01-28_15h19.53.360,lexical_decision_task_DD,2021.2.3,Win32,60.2373351,,,,,,,,,,,0.718,1,,,,,,,,,,,,,,m,1,0.718,,,,,,,,0.048148219,-0.196296363,0,0,0,,0,84,84,24,1,SCREW,C,old,m,./images/SCREW.png,,,,,,,,,,,,,,,,,,,,,,
,,,,,,,,,,,,,,,,,199360,19,2022-01-28_15h19.53.360,lexical_decision_task_DD,2021.2.3,Win32,60.2373351,,,,,,,,,,,0.7002,1,,,,,,,,,,,,,,z,1,0.7002,,,,,,,,0.048148219,-0.196296363,0,0,0,,0,85,85,140,1,DOVET,LB,old,z,./images/DOVETLB.png,,,,,,,,,,,,,,,,,,,,,,
,,,,,,,,,,,,,,,,,199360,19,2022-01-28_15h19.53.360,lexical_decision_task_DD,2021.2.3,Win32,60.2373351,,,,,,,,,,,0.5762,1,,,,,,,,,,,,,,m,1,0.5762,,,,,,,,0.048148219,-0.196296363,0,0,0,,0,86,86,38,1,LADDER,LB,old,m,./images/LADDERLB.png,,,,,,,,,,,,,,,,,,,,,,
,,,,,,,,,,,,,,,,,199360,19,2022-01-28_15h19.53.360,lexical_decision_task_DD,2021.2.3,Win32,60.2373351,,,,,,,,,,,0.8358,1,,,,,,,,,,,,,,z,1,0.8358,,,,,,,,0.048148219,-0.196296363,0,0,0,,0,87,87,148,1,JOMS,HB,old,z,./images/JOMSHB.png,,,,,,,,,,,,,,,,,,,,,,
,,,,,,,,,,,,,,,,,199360,19,2022-01-28_15h19.53.360,lexical_decision_task_DD,2021.2.3,Win32,60.2373351,,,,,,,,,,,0.9337,1,,,,,,,,,,,,,,m,1,0.9337,,,,,,,,0.048148219,-0.196296363,0,0,0,,0,88,88,76,1,INFANT,HB,old,m,./images/INFANTHB.png,,,,,,,,,,,,,,,,,,,,,,
,,,,,,,,,,,,,,,,,199360,19,2022-01-28_15h19.53.360,lexical_decision_task_DD,2021.2.3,Win32,60.2373351,,,,,,,,,,,1.1355,1,,,,,,,,,,,,,,m,1,1.1355,,,,,,,,0.048148219,-0.196296363,0,0,0,,0,89,89,62,1,PURSE,LB,old,m,./images/PURSELB.png,,,,,,,,,,,,,,,,,,,,,,
,,,,,,,,,,,,,,,,,199360,19,2022-01-28_15h19.53.360,lexical_decision_task_DD,2021.2.3,Win32,60.2373351,,,,,,,,,,,0.9688,1,,,,,,,,,,,,,,m,1,0.9688,,,,,,,,0.048148219,-0.196296363,0,0,0,,0,90,90,47,1,BERRY,LB,old,m,./images/BERRYLB.png,,,,,,,,,,,,,,,,,,,,,,
,,,,,,,,,,,,,,,,,199360,19,2022-01-28_15h19.53.360,lexical_decision_task_DD,2021.2.3,Win32,60.2373351,,,,,,,,,,,1.0385,1,,,,,,,,,,,,,,z,1,1.0385,,,,,,,,0.048148219,-0.196296363,0,0,0,,0,91,91,106,1,CLUMS,HB,old,z,./images/CLUMSHB.png,,,,,,,,,,,,,,,,,,,,,,
,,,,,,,,,,,,,,,,,199360,19,2022-01-28_15h19.53.360,lexical_decision_task_DD,2021.2.3,Win32,60.2373351,,,,,,,,,,,0.5931,1,,,,,,,,,,,,,,m,1,0.5931,,,,,,,,0.048148219,-0.196296363,0,0,0,,0,92,92,1,1,PLANK,HB,old,m,./images/PLANKHB.png,,,,,,,,,,,,,,,,,,,,,,
,,,,,,,,,,,,,,,,,199360,19,2022-01-28_15h19.53.360,lexical_decision_task_DD,2021.2.3,Win32,60.2373351,,,,,,,,,,,0.7738,1,,,,,,,,,,,,,,m,1,0.7738,,,,,,,,0.048148219,-0.196296363,0,0,0,,0,93,93,8,1,TULIP,LB,old,m,./images/TULIPLB.png,,,,,,,,,,,,,,,,,,,,,,
,,,,,,,,,,,,,,,,,199360,19,2022-01-28_15h19.53.360,lexical_decision_task_DD,2021.2.3,Win32,60.2373351,,,,,,,,,,,0.7834,1,,,,,,,,,,,,,,z,1,0.7834,,,,,,,,0.048148219,-0.196296363,0,0,0,,0,94,94,88,1,GLUSH,HB,old,z,./images/GLUSHHB.png,,,,,,,,,,,,,,,,,,,,,,
,,,,,,,,,,,,,,,,,199360,19,2022-01-28_15h19.53.360,lexical_decision_task_DD,2021.2.3,Win32,60.2373351,,,,,,,,,,,0.6402,1,,,,,,,,,,,,,,m,1,0.6402,,,,,,,,0.048148219,-0.196296363,0,0,0,,0,95,95,19,1,DOUGH,HB,old,m,./images/DOUGHHB.png,,,,,,,,,,,,,,,,,,,,,,
,,,,,,,,,,,,,,,,,199360,19,2022-01-28_15h19.53.360,lexical_decision_task_DD,2021.2.3,Win32,60.2373351,,,,,,,,,,,0.5843,1,,,,,,,,,,,,,,z,1,0.5843,,,,,,,,0.048148219,-0.196296363,0,0,0,,0,96,96,167,1,ZONET,LB,old,z,./images/ZONETLB.png,,,,,,,,,,,,,,,,,,,,,,
,,,,,,,,,,,,,,,,,199360,19,2022-01-28_15h19.53.360,lexical_decision_task_DD,2021.2.3,Win32,60.2373351,,,,,,,,,,,0.4755,1,,,,,,,,,,,,,,m,1,0.4755,,,,,,,,0.048148219,-0.196296363,0,0,0,,0,97,97,14,1,PICKLE,LB,old,m,./images/PICKLELB.png,,,,,,,,,,,,,,,,,,,,,,
,,,,,,,,,,,,,,,,,199360,19,2022-01-28_15h19.53.360,lexical_decision_task_DD,2021.2.3,Win32,60.2373351,,,,,,,,,,,0.6518,1,,,,,,,,,,,,,,m,1,0.6518,,,,,,,,0.048148219,-0.196296363,0,0,0,,0,98,98,54,1,TRIPOD,C,old,m,./images/TRIPOD.png,,,,,,,,,,,,,,,,,,,,,,
,,,,,,,,,,,,,,,,,199360,19,2022-01-28_15h19.53.360,lexical_decision_task_DD,2021.2.3,Win32,60.2373351,,,,,,,,,,,0.6672,1,,,,,,,,,,,,,,z,1,0.6672,,,,,,,,0.048148219,-0.196296363,0,0,0,,0,99,99,160,1,VEETS,HB,old,z,./images/VEETSHB.png,,,,,,,,,,,,,,,,,,,,,,
,,,,,,,,,,,,,,,,,199360,19,2022-01-28_15h19.53.360,lexical_decision_task_DD,2021.2.3,Win32,60.2373351,,,,,,,,,,,0.4177,1,,,,,,,,,,,,,,m,1,0.4177,,,,,,,,0.048148219,-0.196296363,0,0,0,,0,100,100,57,1,MOOSE,C,old,m,./images/MOOSE.png,,,,,,,,,,,,,,,,,,,,,,
,,,,,,,,,,,,,,,,,199360,19,2022-01-28_15h19.53.360,lexical_decision_task_DD,2021.2.3,Win32,60.2373351,,,,,,,,,,,0.8434,1,,,,,,,,,,,,,,z,1,0.8434,,,,,,,,0.048148219,-0.196296363,0,0,0,,0,101,101,104,1,GITTY,LB,old,z,./images/GITTYLB.png,,,,,,,,,,,,,,,,,,,,,,
,,,,,,,,,,,,,,,,,199360,19,2022-01-28_15h19.53.360,lexical_decision_task_DD,2021.2.3,Win32,60.2373351,,,,,,,,,,,0.7007,1,,,,,,,,,,,,,,z,1,0.7007,,,,,,,,0.048148219,-0.196296363,0,0,0,,0,102,102,161,1,BLAPS,LB,old,z,./images/BLAPSLB.png,,,,,,,,,,,,,,,,,,,,,,
,,,,,,,,,,,,,,,,,199360,19,2022-01-28_15h19.53.360,lexical_decision_task_DD,2021.2.3,Win32,60.2373351,,,,,,,,,,,0.6098,1,,,,,,,,,,,,,,m,1,0.6098,,,,,,,,0.048148219,-0.196296363,0,0,0,,0,103,103,20,1,CRADLE,LB,old,m,./images/CRADLELB.png,,,,,,,,,,,,,,,,,,,,,,
,,,,,,,,,,,,,,,,,199360,19,2022-01-28_15h19.53.360,lexical_decision_task_DD,2021.2.3,Win32,60.2373351,,,,,,,,,,,0.6581,1,,,,,,,,,,,,,,z,1,0.6581,,,,,,,,0.048148219,-0.196296363,0,0,0,,0,104,104,138,1,PLICE,C,old,z,./images/PLICE.png,,,,,,,,,,,,,,,,,,,,,,
,,,,,,,,,,,,,,,,,199360,19,2022-01-28_15h19.53.360,lexical_decision_task_DD,2021.2.3,Win32,60.2373351,,,,,,,,,,,0.6964,1,,,,,,,,,,,,,,z,1,0.6964,,,,,,,,0.048148219,-0.196296363,0,0,0,,0,105,105,85,1,CHULK,HB,old,z,./images/CHULKHB.png,,,,,,,,,,,,,,,,,,,,,,
,,,,,,,,,,,,,,,,,199360,19,2022-01-28_15h19.53.360,lexical_decision_task_DD,2021.2.3,Win32,60.2373351,,,,,,,,,,,0.5998,1,,,,,,,,,,,,,,z,1,0.5998,,,,,,,,0.048148219,-0.196296363,0,0,0,,0,106,106,122,1,BLOOT,LB,old,z,./images/BLOOTLB.png,,,,,,,,,,,,,,,,,,,,,,
,,,,,,,,,,,,,,,,,199360,19,2022-01-28_15h19.53.360,lexical_decision_task_DD,2021.2.3,Win32,60.2373351,,,,,,,,,,,0.5285,1,,,,,,,,,,,,,,m,1,0.5285,,,,,,,,0.048148219,-0.196296363,0,0,0,,0,107,107,80,1,WEASEL,LB,old,m,./images/WEASELLB.png,,,,,,,,,,,,,,,,,,,,,,
,,,,,,,,,,,,,,,,,199360,19,2022-01-28_15h19.53.360,lexical_decision_task_DD,2021.2.3,Win32,60.2373351,,,,,,,,,,,0.5432,1,,,,,,,,,,,,,,z,1,0.5432,,,,,,,,0.048148219,-0.196296363,0,0,0,,0,108,108,92,1,PAIMS,LB,old,z,./images/PAIMSLB.png,,,,,,,,,,,,,,,,,,,,,,
,,,,,,,,,,,,,,,,,199360,19,2022-01-28_15h19.53.360,lexical_decision_task_DD,2021.2.3,Win32,60.2373351,,,,,,,,,,,0.5065,1,,,,,,,,,,,,,,z,1,0.5065,,,,,,,,0.048148219,-0.196296363,0,0,0,,0,109,109,131,1,NACES,LB,old,z,./images/NACESLB.png,,,,,,,,,,,,,,,,,,,,,,
,,,,,,,,,,,,,,,,,199360,19,2022-01-28_15h19.53.360,lexical_decision_task_DD,2021.2.3,Win32,60.2373351,,,,,,,,,,,0.5693,1,,,,,,,,,,,,,,z,1,0.5693,,,,,,,,0.048148219,-0.196296363,0,0,0,,0,110,110,125,1,MOOKY,LB,old,z,./images/MOOKYLB.png,,,,,,,,,,,,,,,,,,,,,,
,,,,,,,,,,,,,,,,,199360,19,2022-01-28_15h19.53.360,lexical_decision_task_DD,2021.2.3,Win32,60.2373351,,,,,,,,,,,0.4252,1,,,,,,,,,,,,,,m,1,0.4252,,,,,,,,0.048148219,-0.196296363,0,0,0,,0,111,111,2,1,BEARD,LB,old,m,./images/BEARDLB.png,,,,,,,,,,,,,,,,,,,,,,
,,,,,,,,,,,,,,,,,199360,19,2022-01-28_15h19.53.360,lexical_decision_task_DD,2021.2.3,Win32,60.2373351,,,,,,,,,,,0.5088,1,,,,,,,,,,,,,,z,1,0.5088,,,,,,,,0.048148219,-0.196296363,0,0,0,,0,112,112,90,1,NEAST,C,old,z,./images/NEAST.png,,,,,,,,,,,,,,,,,,,,,,
,,,,,,,,,,,,,,,,,199360,19,2022-01-28_15h19.53.360,lexical_decision_task_DD,2021.2.3,Win32,60.2373351,,,,,,,,,,,0.5343,1,,,,,,,,,,,,,,z,1,0.5343,,,,,,,,0.048148219,-0.196296363,0,0,0,,0,113,113,96,1,KEAMS,C,old,z,./images/KEAMS.png,,,,,,,,,,,,,,,,,,,,,,
,,,,,,,,,,,,,,,,,199360,19,2022-01-28_15h19.53.360,lexical_decision_task_DD,2021.2.3,Win32,60.2373351,,,,,,,,,,,0.4509,1,,,,,,,,,,,,,,m,1,0.4509,,,,,,,,0.048148219,-0.196296363,0,0,0,,0,114,114,29,1,CRUMB,LB,old,m,./images/CRUMBLB.png,,,,,,,,,,,,,,,,,,,,,,
,,,,,,,,,,,,,,,,,199360,19,2022-01-28_15h19.53.360,lexical_decision_task_DD,2021.2.3,Win32,60.2373351,,,,,,,,,,,0.401,1,,,,,,,,,,,,,,m,1,0.401,,,,,,,,0.048148219,-0.196296363,0,0,0,,0,115,115,6,1,SQUARE,C,old,m,./images/SQUARE.png,,,,,,,,,,,,,,,,,,,,,,
,,,,,,,,,,,,,,,,,199360,19,2022-01-28_15h19.53.360,lexical_decision_task_DD,2021.2.3,Win32,60.2373351,,,,,,,,,,,0.4686,0,,,,,,,,,,,,,,z,0,0.4686,,,,,,,,0.048148219,-0.196296363,0,0,0,,0,116,116,31,1,QUILL,HB,old,m,./images/QUILLHB.png,,,,,,,,,,,,,,,,,,,,,,
,,,,,,,,,,,,,,,,,199360,19,2022-01-28_15h19.53.360,lexical_decision_task_DD,2021.2.3,Win32,60.2373351,,,,,,,,,,,1.3663,1,,,,,,,,,,,,,,z,1,1.3663,,,,,,,,0.048148219,-0.196296363,0,0,0,,0,117,117,157,1,INLER,HB,old,z,./images/INLERHB.png,,,,,,,,,,,,,,,,,,,,,,
,,,,,,,,,,,,,,,,,199360,19,2022-01-28_15h19.53.360,lexical_decision_task_DD,2021.2.3,Win32,60.2373351,,,,,,,,,,,1.006,1,,,,,,,,,,,,,,z,1,1.006,,,,,,,,0.048148219,-0.196296363,0,0,0,,0,118,118,127,1,NINDY,HB,old,z,./images/NINDYHB.png,,,,,,,,,,,,,,,,,,,,,,
,,,,,,,,,,,,,,,,,199360,19,2022-01-28_15h19.53.360,lexical_decision_task_DD,2021.2.3,Win32,60.2373351,,,,,,,,,,,0.6106,1,,,,,,,,,,,,,,m,1,0.6106,,,,,,,,0.048148219,-0.196296363,0,0,0,,0,119,119,48,1,SPORT,C,old,m,./images/SPORT.png,,,,,,,,,,,,,,,,,,,,,,
,,,,,,,,,,,,,,,,,199360,19,2022-01-28_15h19.53.360,lexical_decision_task_DD,2021.2.3,Win32,60.2373351,,,,,,,,,,,0.7193,1,,,,,,,,,,,,,,z,1,0.7193,,,,,,,,0.048148219,-0.196296363,0,0,0,,0,120,120,99,1,BACKY,C,old,z,./images/BACKY.png,,,,,,,,,,,,,,,,,,,,,,
,,,,,,,,,,,,,,,,,199360,19,2022-01-28_15h19.53.360,lexical_decision_task_DD,2021.2.3,Win32,60.2373351,,,,,,,,,,,1.1952,1,,,,,,,,,,,,,,z,1,1.1952,,,,,,,,0.048148219,-0.196296363,0,0,0,,0,121,121,136,1,WERVE,HB,old,z,./images/WERVEHB.png,,,,,,,,,,,,,,,,,,,,,,
,,,,,,,,,,,,,,,,,199360,19,2022-01-28_15h19.53.360,lexical_decision_task_DD,2021.2.3,Win32,60.2373351,,,,,,,,,,,1.6009,1,,,,,,,,,,,,,,z,1,1.6009,,,,,,,,0.048148219,-0.196296363,0,0,0,,0,122,122,133,1,POWDY,HB,old,z,./images/POWDYHB.png,,,,,,,,,,,,,,,,,,,,,,
,,,,,,,,,,,,,,,,,199360,19,2022-01-28_15h19.53.360,lexical_decision_task_DD,2021.2.3,Win32,60.2373351,,,,,,,,,,,0.6349,1,,,,,,,,,,,,,,z,1,0.6349,,,,,,,,0.048148219,-0.196296363,0,0,0,,0,123,123,89,1,DRIEK,LB,old,z,./images/DRIEKLB.png,,,,,,,,,,,,,,,,,,,,,,
,,,,,,,,,,,,,,,,,199360,19,2022-01-28_15h19.53.360,lexical_decision_task_DD,2021.2.3,Win32,60.2373351,,,,,,,,,,,0.6375,1,,,,,,,,,,,,,,m,1,0.6375,,,,,,,,0.048148219,-0.196296363,0,0,0,,0,124,124,74,1,CEMENT,LB,old,m,./images/CEMENTLB.png,,,,,,,,,,,,,,,,,,,,,,
,,,,,,,,,,,,,,,,,199360,19,2022-01-28_15h19.53.360,lexical_decision_task_DD,2021.2.3,Win32,60.2373351,,,,,,,,,,,0.8098,1,,,,,,,,,,,,,,m,1,0.8098,,,,,,,,0.048148219,-0.196296363,0,0,0,space,0,125,125,22,1,MELON,HB,old,m,./images/MELONHB.png,2.1154,,,,,,,,,,,,,,,,,,,,,
,,,,,,,,,,,,,,,,,199360,19,2022-01-28_15h19.53.360,lexical_decision_task_DD,2021.2.3,Win32,60.2373351,,,,,,,,,,,0.6918,1,,,,,,,,,,,,,,z,1,0.6918,,,,,,,,0.048148219,-0.196296363,0,0,0,,0,126,126,162,1,LEICH,C,old,z,./images/LEICH.png,,,,,,,,,,,,,,,,,,,,,,
,,,,,,,,,,,,,,,,,199360,19,2022-01-28_15h19.53.360,lexical_decision_task_DD,2021.2.3,Win32,60.2373351,,,,,,,,,,,0.5896,1,,,,,,,,,,,,,,z,1,0.5896,,,,,,,,0.048148219,-0.196296363,0,0,0,,0,127,127,134,1,TROSS,LB,old,z,./images/TROSSLB.png,,,,,,,,,,,,,,,,,,,,,,
,,,,,,,,,,,,,,,,,199360,19,2022-01-28_15h19.53.360,lexical_decision_task_DD,2021.2.3,Win32,60.2373351,,,,,,,,,,,0.585,1,,,,,,,,,,,,,,z,1,0.585,,,,,,,,0.048148219,-0.196296363,0,0,0,,0,128,128,165,1,TROWN,C,old,z,./images/TROWN.png,,,,,,,,,,,,,,,,,,,,,,
,,,,,,,,,,,,,,,,,199360,19,2022-01-28_15h19.53.360,lexical_decision_task_DD,2021.2.3,Win32,60.2373351,,,,,,,,,,,0.5508,1,,,,,,,,,,,,,,z,1,0.5508,,,,,,,,0.048148219,-0.196296363,0,0,0,,0,129,129,149,1,VEASE,LB,old,z,./images/VEASELB.png,,,,,,,,,,,,,,,,,,,,,,
,,,,,,,,,,,,,,,,,199360,19,2022-01-28_15h19.53.360,lexical_decision_task_DD,2021.2.3,Win32,60.2373351,,,,,,,,,,,0.4058,1,,,,,,,,,,,,,,m,1,0.4058,,,,,,,,0.048148219,-0.196296363,0,0,0,,0,130,130,63,1,MIRROR,C,old,m,./images/MIRROR.png,,,,,,,,,,,,,,,,,,,,,,
,,,,,,,,,,,,,,,,,199360,19,2022-01-28_15h19.53.360,lexical_decision_task_DD,2021.2.3,Win32,60.2373351,,,,,,,,,,,0.5014,1,,,,,,,,,,,,,,z,1,0.5014,,,,,,,,0.048148219,-0.196296363,0,0,0,,0,131,131,156,1,HIXES,C,old,z,./images/HIXES.png,,,,,,,,,,,,,,,,,,,,,,
,,,,,,,,,,,,,,,,,199360,19,2022-01-28_15h19.53.360,lexical_decision_task_DD,2021.2.3,Win32,60.2373351,,,,,,,,,,,1.0545,1,,,,,,,,,,,,,,m,1,1.0545,,,,,,,,0.048148219,-0.196296363,0,0,0,,0,132,132,25,1,WRIST,HB,old,m,./images/WRISTHB.png,,,,,,,,,,,,,,,,,,,,,,
,,,,,,,,,,,,,,,,,199360,19,2022-01-28_15h19.53.360,lexical_decision_task_DD,2021.2.3,Win32,60.2373351,,,,,,,,,,,0.5175,1,,,,,,,,,,,,,,z,1,0.5175,,,,,,,,0.048148219,-0.196296363,0,0,0,,0,133,133,144,1,NAIRY,C,old,z,./images/NAIRY.png,,,,,,,,,,,,,,,,,,,,,,
,,,,,,,,,,,,,,,,,199360,19,2022-01-28_15h19.53.360,lexical_decision_task_DD,2021.2.3,Win32,60.2373351,,,,,,,,,,,0.7353,1,,,,,,,,,,,,,,m,1,0.7353,,,,,,,,0.048148219,-0.196296363,0,0,0,,0,134,134,27,1,ATTIC,C,old,m,./images/ATTIC.png,,,,,,,,,,,,,,,,,,,,,,
,,,,,,,,,,,,,,,,,199360,19,2022-01-28_15h19.53.360,lexical_decision_task_DD,2021.2.3,Win32,60.2373351,,,,,,,,,,,0.5236,1,,,,,,,,,,,,,,z,1,0.5236,,,,,,,,0.048148219,-0.196296363,0,0,0,,0,135,135,87,1,TRING,C,old,z,./images/TRING.png,,,,,,,,,,,,,,,,,,,,,,
,,,,,,,,,,,,,,,,,199360,19,2022-01-28_15h19.53.360,lexical_decision_task_DD,2021.2.3,Win32,60.2373351,,,,,,,,,,,0.5707,1,,,,,,,,,,,,,,z,1,0.5707,,,,,,,,0.048148219,-0.196296363,0,0,0,,0,136,136,153,1,CLUPS,C,old,z,./images/CLUPS.png,,,,,,,,,,,,,,,,,,,,,,
,,,,,,,,,,,,,,,,,199360,19,2022-01-28_15h19.53.360,lexical_decision_task_DD,2021.2.3,Win32,60.2373351,,,,,,,,,,,0.7236,0,,,,,,,,,,,,,,m,0,0.7236,,,,,,,,0.048148219,-0.196296363,0,0,0,,0,137,137,128,1,GRIFT,LB,old,z,./images/GRIFTLB.png,,,,,,,,,,,,,,,,,,,,,,
,,,,,,,,,,,,,,,,,199360,19,2022-01-28_15h19.53.360,lexical_decision_task_DD,2021.2.3,Win32,60.2373351,,,,,,,,,,,0.7177,1,,,,,,,,,,,,,,m,1,0.7177,,,,,,,,0.048148219,-0.196296363,0,0,0,,0,138,138,28,1,FALCON,HB,old,m,./images/FALCONHB.png,,,,,,,,,,,,,,,,,,,,,,
,,,,,,,,,,,,,,,,,199360,19,2022-01-28_15h19.53.360,lexical_decision_task_DD,2021.2.3,Win32,60.2373351,,,,,,,,,,,0.5735,1,,,,,,,,,,,,,,z,1,0.5735,,,,,,,,0.048148219,-0.196296363,0,0,0,,0,139,139,108,1,GRUET,C,old,z,./images/GRUET.png,,,,,,,,,,,,,,,,,,,,,,
,,,,,,,,,,,,,,,,,199360,19,2022-01-28_15h19.53.360,lexical_decision_task_DD,2021.2.3,Win32,60.2373351,,,,,,,,,,,1.0289,1,,,,,,,,,,,,,,z,1,1.0289,,,,,,,,0.048148219,-0.196296363,0,0,0,,0,140,140,159,1,CUDDY,C,old,z,./images/CUDDY.png,,,,,,,,,,,,,,,,,,,,,,
,,,,,,,,,,,,,,,,,199360,19,2022-01-28_15h19.53.360,lexical_decision_task_DD,2021.2.3,Win32,60.2373351,,,,,,,,,,,0.6666,1,,,,,,,,,,,,,,z,1,0.6666,,,,,,,,0.048148219,-0.196296363,0,0,0,,0,141,141,155,1,CANGY,LB,old,z,./images/CANGYLB.png,,,,,,,,,,,,,,,,,,,,,,
,,,,,,,,,,,,,,,,,199360,19,2022-01-28_15h19.53.360,lexical_decision_task_DD,2021.2.3,Win32,60.2373351,,,,,,,,,,,1.7667,1,,,,,,,,,,,,,,m,1,1.7667,,,,,,,,0.048148219,-0.196296363,0,0,0,,0,142,142,67,1,SAILOR,HB,old,m,./images/SAILORHB.png,,,,,,,,,,,,,,,,,,,,,,
,,,,,,,,,,,,,,,,,199360,19,2022-01-28_15h19.53.360,lexical_decision_task_DD,2021.2.3,Win32,60.2373351,,,,,,,,,,,0.6448,1,,,,,,,,,,,,,,m,1,0.6448,,,,,,,,0.048148219,-0.196296363,0,0,0,,0,143,143,45,1,KITTEN,C,old,m,./images/KITTEN.png,,,,,,,,,,,,,,,,,,,,,,
,,,,,,,,,,,,,,,,,199360,19,2022-01-28_15h19.53.360,lexical_decision_task_DD,2021.2.3,Win32,60.2373351,,,,,,,,,,,0.6779,1,,,,,,,,,,,,,,m,1,0.6779,,,,,,,,0.048148219,-0.196296363,0,0,0,,0,144,144,61,1,CANDLE,HB,old,m,./images/CANDLEHB.png,,,,,,,,,,,,,,,,,,,,,,
,,,,,,,,,,,,,,,,,199360,19,2022-01-28_15h19.53.360,lexical_decision_task_DD,2021.2.3,Win32,60.2373351,,,,,,,,,,,0.585,1,,,,,,,,,,,,,,z,1,0.585,,,,,,,,0.048148219,-0.196296363,0,0,0,,0,145,145,111,1,HOSSE,C,old,z,./images/HOSSE.png,,,,,,,,,,,,,,,,,,,,,,
,,,,,,,,,,,,,,,,,199360,19,2022-01-28_15h19.53.360,lexical_decision_task_DD,2021.2.3,Win32,60.2373351,,,,,,,,,,,0.5362,1,,,,,,,,,,,,,,m,1,0.5362,,,,,,,,0.048148219,-0.196296363,0,0,0,,0,146,146,33,1,MAGGOT,C,old,m,./images/MAGGOT.png,,,,,,,,,,,,,,,,,,,,,,
,,,,,,,,,,,,,,,,,199360,19,2022-01-28_15h19.53.360,lexical_decision_task_DD,2021.2.3,Win32,60.2373351,,,,,,,,,,,0.5774,1,,,,,,,,,,,,,,m,1,0.5774,,,,,,,,0.048148219,-0.196296363,0,0,0,,0,147,147,53,1,CARPET,LB,old,m,./images/CARPETLB.png,,,,,,,,,,,,,,,,,,,,,,
,,,,,,,,,,,,,,,,,199360,19,2022-01-28_15h19.53.360,lexical_decision_task_DD,2021.2.3,Win32,60.2373351,,,,,,,,,,,0.7847,1,,,,,,,,,,,,,,m,1,0.7847,,,,,,,,0.048148219,-0.196296363,0,0,0,,0,148,148,55,1,MUFFIN,HB,old,m,./images/MUFFINHB.png,,,,,,,,,,,,,,,,,,,,,,
,,,,,,,,,,,,,,,,,199360,19,2022-01-28_15h19.53.360,lexical_decision_task_DD,2021.2.3,Win32,60.2373351,,,,,,,,,,,1.2669,1,,,,,,,,,,,,,,z,1,1.2669,,,,,,,,0.048148219,-0.196296363,0,0,0,,0,149,149,115,1,MAWNS,HB,old,z,./images/MAWNSHB.png,,,,,,,,,,,,,,,,,,,,,,
,,,,,,,,,,,,,,,,,199360,19,2022-01-28_15h19.53.360,lexical_decision_task_DD,2021.2.3,Win32,60.2373351,,,,,,,,,,,0.8028,1,,,,,,,,,,,,,,z,1,0.8028,,,,,,,,0.048148219,-0.196296363,0,0,0,,0,150,150,124,1,TUNCH,HB,old,z,./images/TUNCHHB.png,,,,,,,,,,,,,,,,,,,,,,
,,,,,,,,,,,,,,,,,199360,19,2022-01-28_15h19.53.360,lexical_decision_task_DD,2021.2.3,Win32,60.2373351,,,,,,,,,,,0.7451,1,,,,,,,,,,,,,,m,1,0.7451,,,,,,,,0.048148219,-0.196296363,0,0,0,,0,151,151,73,1,SNACK,HB,old,m,./images/SNACKHB.png,,,,,,,,,,,,,,,,,,,,,,
,,,,,,,,,,,,,,,,,199360,19,2022-01-28_15h19.53.360,lexical_decision_task_DD,2021.2.3,Win32,60.2373351,,,,,,,,,,,0.651,1,,,,,,,,,,,,,,m,1,0.651,,,,,,,,0.048148219,-0.196296363,0,0,0,,0,152,152,36,1,THROAT,C,old,m,./images/THROAT.png,,,,,,,,,,,,,,,,,,,,,,
,,,,,,,,,,,,,,,,,199360,19,2022-01-28_15h19.53.360,lexical_decision_task_DD,2021.2.3,Win32,60.2373351,,,,,,,,,,,0.5043,1,,,,,,,,,,,,,,m,1,0.5043,,,,,,,,0.048148219,-0.196296363,0,0,0,,0,153,153,51,1,ONION,C,old,m,./images/ONION.png,,,,,,,,,,,,,,,,,,,,,,
,,,,,,,,,,,,,,,,,199360,19,2022-01-28_15h19.53.360,lexical_decision_task_DD,2021.2.3,Win32,60.2373351,,,,,,,,,,,0.6558,1,,,,,,,,,,,,,,z,1,0.6558,,,,,,,,0.048148219,-0.196296363,0,0,0,,0,154,154,93,1,SMONE,C,old,z,./images/SMONE.png,,,,,,,,,,,,,,,,,,,,,,
,,,,,,,,,,,,,,,,,199360,19,2022-01-28_15h19.53.360,lexical_decision_task_DD,2021.2.3,Win32,60.2373351,,,,,,,,,,,0.6585,1,,,,,,,,,,,,,,z,1,0.6585,,,,,,,,0.048148219,-0.196296363,0,0,0,,0,155,155,163,1,GAMBA,HB,old,z,./images/GAMBAHB.png,,,,,,,,,,,,,,,,,,,,,,
,,,,,,,,,,,,,,,,,199360,19,2022-01-28_15h19.53.360,lexical_decision_task_DD,2021.2.3,Win32,60.2373351,,,,,,,,,,,0.5333,1,,,,,,,,,,,,,,z,1,0.5333,,,,,,,,0.048148219,-0.196296363,0,0,0,,0,156,156,147,1,ZOLES,C,old,z,./images/ZOLES.png,,,,,,,,,,,,,,,,,,,,,,
,,,,,,,,,,,,,,,,,199360,19,2022-01-28_15h19.53.360,lexical_decision_task_DD,2021.2.3,Win32,60.2373351,,,,,,,,,,,0.7739,1,,,,,,,,,,,,,,m,1,0.7739,,,,,,,,0.048148219,-0.196296363,0,0,0,,0,157,157,7,1,PAINT,HB,old,m,./images/PAINTHB.png,,,,,,,,,,,,,,,,,,,,,,
,,,,,,,,,,,,,,,,,199360,19,2022-01-28_15h19.53.360,lexical_decision_task_DD,2021.2.3,Win32,60.2373351,,,,,,,,,,,0.5851,1,,,,,,,,,,,,,,m,1,0.5851,,,,,,,,0.048148219,-0.196296363,0,0,0,,0,158,158,64,1,JELLY,HB,old,m,./images/JELLYHB.png,,,,,,,,,,,,,,,,,,,,,,
,,,,,,,,,,,,,,,,,199360,19,2022-01-28_15h19.53.360,lexical_decision_task_DD,2021.2.3,Win32,60.2373351,,,,,,,,,,,0.5547,1,,,,,,,,,,,,,,m,1,0.5547,,,,,,,,0.048148219,-0.196296363,0,0,0,,0,159,159,42,1,FOLDER,C,old,m,./images/FOLDER.png,,,,,,,,,,,,,,,,,,,,,,
,,,,,,,,,,,,,,,,,199360,19,2022-01-28_15h19.53.360,lexical_decision_task_DD,2021.2.3,Win32,60.2373351,,,,,,,,,,,0.639,1,,,,,,,,,,,,,,m,1,0.639,,,,,,,,0.048148219,-0.196296363,0,0,0,,0,160,160,18,1,JAGUAR,C,old,m,./images/JAGUAR.png,,,,,,,,,,,,,,,,,,,,,,
,,,,,,,,,,,,,,,,,199360,19,2022-01-28_15h19.53.360,lexical_decision_task_DD,2021.2.3,Win32,60.2373351,,,,,,,,,,,0.4532,1,,,,,,,,,,,,,,m,1,0.4532,,,,,,,,0.048148219,-0.196296363,0,0,0,,0,161,161,21,1,KIDNEY,C,old,m,./images/KIDNEY.png,,,,,,,,,,,,,,,,,,,,,,
,,,,,,,,,,,,,,,,,199360,19,2022-01-28_15h19.53.360,lexical_decision_task_DD,2021.2.3,Win32,60.2373351,,,,,,,,,,,0.5874,1,,,,,,,,,,,,,,m,1,0.5874,,,,,,,,0.048148219,-0.196296363,0,0,0,,0,162,162,72,1,NOOSE,C,old,m,./images/NOOSE.png,,,,,,,,,,,,,,,,,,,,,,
,,,,,,,,,,,,,,,,,199360,19,2022-01-28_15h19.53.360,lexical_decision_task_DD,2021.2.3,Win32,60.2373351,,,,,,,,,,,0.5874,1,,,,,,,,,,,,,,z,1,0.5874,,,,,,,,0.048148219,-0.196296363,0,0,0,,0,163,163,132,1,SCIFF,C,old,z,./images/SCIFF.png,,,,,,,,,,,,,,,,,,,,,,
,,,,,,,,,,,,,,,,,199360,19,2022-01-28_15h19.53.360,lexical_decision_task_DD,2021.2.3,Win32,60.2373351,,,,,,,,,,,1.0498,1,,,,,,,,,,,,,,z,1,1.0498,,,,,,,,0.048148219,-0.196296363,0,0,0,,0,164,164,100,1,DRIBS,HB,old,z,./images/DRIBSHB.png,,,,,,,,,,,,,,,,,,,,,,
,,,,,,,,,,,,,,,,,199360,19,2022-01-28_15h19.53.360,lexical_decision_task_DD,2021.2.3,Win32,60.2373351,,,,,,,,,,,1.5953,1,,,,,,,,,,,,,,z,1,1.5953,,,,,,,,0.048148219,-0.196296363,0,0,0,,0,165,165,166,1,SHORY,HB,old,z,./images/SHORYHB.png,,,,,,,,,,,,,,,,,,,,,,
,,,,,,,,,,,,,,,,,199360,19,2022-01-28_15h19.53.360,lexical_decision_task_DD,2021.2.3,Win32,60.2373351,,,,,,,,,,,0.7527,1,,,,,,,,,,,,,,z,1,0.7527,,,,,,,,0.048148219,-0.196296363,0,0,0,,0,166,166,107,1,FASKS,LB,old,z,./images/FASKSLB.png,,,,,,,,,,,,,,,,,,,,,,
,,,,,,,,,,,,,,,,,199360,19,2022-01-28_15h19.53.360,lexical_decision_task_DD,2021.2.3,Win32,60.2373351,,,,,,,,,,,0.7384,1,,,,,,,,,,,,,,m,1,0.7384,,,,,,,,0.048148219,-0.196296363,0,0,0,,0,167,167,30,1,STORM,C,old,m,./images/STORM.png,,,,,,,,,,,,,,,,,,,,,,
space,22.8058,0.048148219,-0.196296363,0,0,0,,,,,,1,test,"In the next phase you will be presented with the words from the the first phase. Your job is to decide whether you remember seeing the word or not. If you remember seeing the word press ""old"" or type ""m"". If you do not remember seeing the word press ""new"" or type ""z"". Please press the space bar or click on continue to begin. ",,,199360,19,2022-01-28_15h19.53.360,lexical_decision_task_DD,2021.2.3,Win32,60.2373351,,,,,,,,,,,,,,,,,,,,,,,,,,,,,,,,,,,,,,,,,,,,,,,,,,,,,0,0,0,0,1,,,,,,,,,,,,,,,,
space,3.9604,0.048148219,-0.196296363,0,0,0,,,,,,1,test,"In the next phase you will be presented with the words from the the first phase. Your job is to decide whether you remember seeing the word or not. If you remember seeing the word press ""old"" or type ""m"". If you do not remember seeing the word press ""new"" or type ""z"". Please press the space bar or click on continue to begin. ",,,199360,19,2022-01-28_15h19.53.360,lexical_decision_task_DD,2021.2.3,Win32,60.2373351,,,,,,,,,,,,,,,,,,,,,,,,,,,,,,,,,,,,,,,,,,,,,,,,,,,,,1,0,1,0,1,,,,,,,,,,,,,,,,
,,0.013888902,-0.39537044,0,0,1,,,,,,1,test,"In the next phase you will be presented with the words from the the first phase. Your job is to decide whether you remember seeing the word or not. If you remember seeing the word press ""old"" or type ""m"". If you do not remember seeing the word press ""new"" or type ""z"". Please press the space bar or click on continue to begin. ",,,199360,19,2022-01-28_15h19.53.360,lexical_decision_task_DD,2021.2.3,Win32,60.2373351,,,,,,,,,,,,,,,,,,,,,,,,,,,,,,,,,,,,,,,,,,,,,,,,,,,,,2,0,2,0,1,instr_done_button,,,,,,,,,,,,,,,
space,1.8731,-0.073148136,-0.287962975,0,0,0,,,,,,1,test,"In the next phase you will be presented with the words from the the first phase. Your job is to decide whether you remember seeing the word or not. If you remember seeing the word press ""old"" or type ""m"". If you do not remember seeing the word press ""new"" or type ""z"". Please press the space bar or click on continue to begin. ",,,199360,19,2022-01-28_15h19.53.360,lexical_decision_task_DD,2021.2.3,Win32,60.2373351,,,,,,,,,,,,,,,,,,,,,,,,,,,,,,,,,,,,,,,,,,,,,,,,,,,,,3,0,3,0,1,,,,,,,,,,,,,,,,
space,0.4167,-0.073148136,-0.287962975,0,0,0,,,,,,1,test,"In the next phase you will be presented with the words from the the first phase. Your job is to decide whether you remember seeing the word or not. If you remember seeing the word press ""old"" or type ""m"". If you do not remember seeing the word press ""new"" or type ""z"". Please press the space bar or click on continue to begin. ",,,199360,19,2022-01-28_15h19.53.360,lexical_decision_task_DD,2021.2.3,Win32,60.2373351,,,,,,,,,,,,,,,,,,,,,,,,,,,,,,,,,,,,,,,,,,,,,,,,,,,,,4,0,4,0,1,,,,,,,,,,,,,,,,
,,,,,,,,,,,,,,,,,199360,19,2022-01-28_15h19.53.360,lexical_decision_task_DD,2021.2.3,Win32,60.2373351,,,,,,,,,,,3.766,0,,,,,,,,,,,,,,,,,,,,,,,,-0.073148136,-0.287962975,0,0,0,,,,,,,BANNER,HB,m,m,./images/BANNERHB.png,,,,,,,,z,0,3.766,,,,,,,,0,0,0,52,1
,,,,,,,,,,,,,,,,,199360,19,2022-01-28_15h19.53.360,lexical_decision_task_DD,2021.2.3,Win32,60.2373351,,,,,,,,,,,0.9356,1,,,,,,,,,,,,,,,,,,,,,,,,-0.073148136,-0.287962975,0,0,0,,,,,,,ALLEY,HB,z,m,./images/ALLEYHB.png,,,,,,,,z,1,0.9356,,,,,,,,0,1,1,139,1
,,,,,,,,,,,,,,,,,199360,19,2022-01-28_15h19.53.360,lexical_decision_task_DD,2021.2.3,Win32,60.2373351,,,,,,,,,,,0.7952,1,,,,,,,,,,,,,,,,,,,,,,,,-0.073148136,-0.287962975,0,0,0,,,,,,,INFANT,HB,m,m,./images/INFANTHB.png,,,,,,,,m,1,0.7952,,,,,,,,0,2,2,76,1
,,,,,,,,,,,,,,,,,199360,19,2022-01-28_15h19.53.360,lexical_decision_task_DD,2021.2.3,Win32,60.2373351,,,,,,,,,,,2.101,1,,,,,,,,,,,,,,,,,,,,,,,,-0.073148136,-0.287962975,0,0,0,,,,,,,STOVE,LB,z,m,./images/STOVELB.png,,,,,,,,z,1,2.101,,,,,,,,0,3,3,86,1
,,,,,,,,,,,,,,,,,199360,19,2022-01-28_15h19.53.360,lexical_decision_task_DD,2021.2.3,Win32,60.2373351,,,,,,,,,,,1.434,0,,,,,,,,,,,,,,,,,,,,,,,,-0.073148136,-0.287962975,0,0,0,,,,,,,LADDER,LB,m,m,./images/LADDERLB.png,,,,,,,,z,0,1.434,,,,,,,,0,4,4,38,1
,,,,,,,,,,,,,,,,,199360,19,2022-01-28_15h19.53.360,lexical_decision_task_DD,2021.2.3,Win32,60.2373351,,,,,,,,,,,1.1172,1,,,,,,,,,,,,,,,,,,,,,,,,-0.073148136,-0.287962975,0,0,0,,,,,,,CRUMB,LB,m,m,./images/CRUMBLB.png,,,,,,,,m,1,1.1172,,,,,,,,0,5,5,29,1
,,,,,,,,,,,,,,,,,199360,19,2022-01-28_15h19.53.360,lexical_decision_task_DD,2021.2.3,Win32,60.2373351,,,,,,,,,,,1.2397,1,,,,,,,,,,,,,,,,,,,,,,,,-0.073148136,-0.287962975,0,0,0,,,,,,,TWINS,C,m,m,./images/TWINS.png,,,,,,,,m,1,1.2397,,,,,,,,0,6,6,60,1
,,,,,,,,,,,,,,,,,199360,19,2022-01-28_15h19.53.360,lexical_decision_task_DD,2021.2.3,Win32,60.2373351,,,,,,,,,,,1.2852,1,,,,,,,,,,,,,,,,,,,,,,,,-0.073148136,-0.287962975,0,0,0,,,,,,,SHELF,C,m,m,./images/SHELF.png,,,,,,,,m,1,1.2852,,,,,,,,0,7,7,39,1
,,,,,,,,,,,,,,,,,199360,19,2022-01-28_15h19.53.360,lexical_decision_task_DD,2021.2.3,Win32,60.2373351,,,,,,,,,,,1.8669,1,,,,,,,,,,,,,,,,,,,,,,,,-0.073148136,-0.287962975,0,0,0,,,,,,,MIDGET,HB,z,m,./images/MIDGETHB.png,,,,,,,,z,1,1.8669,,,,,,,,0,8,8,160,1
,,,,,,,,,,,,,,,,,199360,19,2022-01-28_15h19.53.360,lexical_decision_task_DD,2021.2.3,Win32,60.2373351,,,,,,,,,,,1.1258,1,,,,,,,,,,,,,,,,,,,,,,,,-0.073148136,-0.287962975,0,0,0,,,,,,,CANOE,HB,z,m,./images/CANOEHB.png,,,,,,,,z,1,1.1258,,,,,,,,0,9,9,142,1
,,,,,,,,,,,,,,,,,199360,19,2022-01-28_15h19.53.360,lexical_decision_task_DD,2021.2.3,Win32,60.2373351,,,,,,,,,,,1.6708,1,,,,,,,,,,,,,,,,,,,,,,,,-0.073148136,-0.287962975,0,0,0,,,,,,,WRIST,HB,m,m,./images/WRISTHB.png,,,,,,,,m,1,1.6708,,,,,,,,0,10,10,25,1
,,,,,,,,,,,,,,,,,199360,19,2022-01-28_15h19.53.360,lexical_decision_task_DD,2021.2.3,Win32,60.2373351,,,,,,,,,,,1.369,1,,,,,,,,,,,,,,,,,,,,,,,,-0.073148136,-0.287962975,0,0,0,,,,,,,DANCER,C,z,m,./images/DANCER.png,,,,,,,,z,1,1.369,,,,,,,,0,11,11,105,1
,,,,,,,,,,,,,,,,,199360,19,2022-01-28_15h19.53.360,lexical_decision_task_DD,2021.2.3,Win32,60.2373351,,,,,,,,,,,0.9504,0,,,,,,,,,,,,,,,,,,,,,,,,-0.073148136,-0.287962975,0,0,0,,,,,,,CLIFF,LB,z,m,./images/CLIFFLB.png,,,,,,,,m,0,0.9504,,,,,,,,0,12,12,92,1
,,,,,,,,,,,,,,,,,199360,19,2022-01-28_15h19.53.360,lexical_decision_task_DD,2021.2.3,Win32,60.2373351,,,,,,,,,,,1.2998,1,,,,,,,,,,,,,,,,,,,,,,,,-0.073148136,-0.287962975,0,0,0,,,,,,,FLASK,C,z,m,./images/FLASK.png,,,,,,,,z,1,1.2998,,,,,,,,0,13,13,156,1
,,,,,,,,,,,,,,,,,199360,19,2022-01-28_15h19.53.360,lexical_decision_task_DD,2021.2.3,Win32,60.2373351,,,,,,,,,,,0.7563,1,,,,,,,,,,,,,,,,,,,,,,,,-0.073148136,-0.287962975,0,0,0,,,,,,,TULIP,LB,m,m,./images/TULIPLB.png,,,,,,,,m,1,0.7563,,,,,,,,0,14,14,8,1
,,,,,,,,,,,,,,,,,199360,19,2022-01-28_15h19.53.360,lexical_decision_task_DD,2021.2.3,Win32,60.2373351,,,,,,,,,,,0.6396,1,,,,,,,,,,,,,,,,,,,,,,,,-0.073148136,-0.287962975,0,0,0,,,,,,,PLANK,HB,m,m,./images/PLANKHB.png,,,,,,,,m,1,0.6396,,,,,,,,0,15,15,1,1
,,,,,,,,,,,,,,,,,199360,19,2022-01-28_15h19.53.360,lexical_decision_task_DD,2021.2.3,Win32,60.2373351,,,,,,,,,,,1.0534,1,,,,,,,,,,,,,,,,,,,,,,,,-0.073148136,-0.287962975,0,0,0,,,,,,,SWING,HB,m,m,./images/SWINGHB.png,,,,,,,,m,1,1.0534,,,,,,,,0,16,16,40,1
,,,,,,,,,,,,,,,,,199360,19,2022-01-28_15h19.53.360,lexical_decision_task_DD,2021.2.3,Win32,60.2373351,,,,,,,,,,,1.551,1,,,,,,,,,,,,,,,,,,,,,,,,-0.073148136,-0.287962975,0,0,0,,,,,,,FALCON,HB,m,m,./images/FALCONHB.png,,,,,,,,m,1,1.551,,,,,,,,0,17,17,28,1
,,,,,,,,,,,,,,,,,199360,19,2022-01-28_15h19.53.360,lexical_decision_task_DD,2021.2.3,Win32,60.2373351,,,,,,,,,,,1.0067,1,,,,,,,,,,,,,,,,,,,,,,,,-0.073148136,-0.287962975,0,0,0,,,,,,,JAGUAR,C,m,m,./images/JAGUAR.png,,,,,,,,m,1,1.0067,,,,,,,,0,18,18,18,1
,,,,,,,,,,,,,,,,,199360,19,2022-01-28_15h19.53.360,lexical_decision_task_DD,2021.2.3,Win32,60.2373351,,,,,,,,,,,1.038,1,,,,,,,,,,,,,,,,,,,,,,,,-0.073148136,-0.287962975,0,0,0,,,,,,,DONKEY,HB,z,m,./images/DONKEYHB.png,,,,,,,,z,1,1.038,,,,,,,,0,19,19,103,1
,,,,,,,,,,,,,,,,,199360,19,2022-01-28_15h19.53.360,lexical_decision_task_DD,2021.2.3,Win32,60.2373351,,,,,,,,,,,1.1102,1,,,,,,,,,,,,,,,,,,,,,,,,-0.073148136,-0.287962975,0,0,0,,,,,,,PEBBLE,HB,z,m,./images/PEBBLEHB.png,,,,,,,,z,1,1.1102,,,,,,,,0,20,20,166,1
,,,,,,,,,,,,,,,,,199360,19,2022-01-28_15h19.53.360,lexical_decision_task_DD,2021.2.3,Win32,60.2373351,,,,,,,,,,,0.978,1,,,,,,,,,,,,,,,,,,,,,,,,-0.073148136,-0.287962975,0,0,0,,,,,,,RAZOR,HB,z,m,./images/RAZORHB.png,,,,,,,,z,1,0.978,,,,,,,,0,21,21,118,1
,,,,,,,,,,,,,,,,,199360,19,2022-01-28_15h19.53.360,lexical_decision_task_DD,2021.2.3,Win32,60.2373351,,,,,,,,,,,1.1067,0,,,,,,,,,,,,,,,,,,,,,,,,-0.073148136,-0.287962975,0,0,0,,,,,,,BROOM,C,z,m,./images/BROOM.png,,,,,,,,m,0,1.1067,,,,,,,,0,22,22,162,1
,,,,,,,,,,,,,,,,,199360,19,2022-01-28_15h19.53.360,lexical_decision_task_DD,2021.2.3,Win32,60.2373351,,,,,,,,,,,1.3784,1,,,,,,,,,,,,,,,,,,,,,,,,-0.073148136,-0.287962975,0,0,0,,,,,,,PARCEL,C,z,m,./images/PARCEL.png,,,,,,,,z,1,1.3784,,,,,,,,0,23,23,102,1
,,,,,,,,,,,,,,,,,199360,19,2022-01-28_15h19.53.360,lexical_decision_task_DD,2021.2.3,Win32,60.2373351,,,,,,,,,,,3.1391,0,,,,,,,,,,,,,,,,,,,,,,,,-0.073148136,-0.287962975,0,0,0,,,,,,,TOWEL,HB,z,m,./images/TOWELHB.png,,,,,,,,m,0,3.1391,,,,,,,,0,24,24,85,1
,,,,,,,,,,,,,,,,,199360,19,2022-01-28_15h19.53.360,lexical_decision_task_DD,2021.2.3,Win32,60.2373351,,,,,,,,,,,0.8214,1,,,,,,,,,,,,,,,,,,,,,,,,-0.073148136,-0.287962975,0,0,0,,,,,,,TOMATO,C,m,m,./images/TOMATO.png,,,,,,,,m,1,0.8214,,,,,,,,0,25,25,0,1
,,,,,,,,,,,,,,,,,199360,19,2022-01-28_15h19.53.360,lexical_decision_task_DD,2021.2.3,Win32,60.2373351,,,,,,,,,,,0.6892,0,,,,,,,,,,,,,,,,,,,,,,,,-0.073148136,-0.287962975,0,0,0,,,,,,,CANDY,C,z,m,./images/CANDY.png,,,,,,,,m,0,0.6892,,,,,,,,0,26,26,123,1
,,,,,,,,,,,,,,,,,199360,19,2022-01-28_15h19.53.360,lexical_decision_task_DD,2021.2.3,Win32,60.2373351,,,,,,,,,,,1.5729,1,,,,,,,,,,,,,,,,,,,,,,,,-0.073148136,-0.287962975,0,0,0,,,,,,,DESERT,HB,z,m,./images/DESERTHB.png,,,,,,,,z,1,1.5729,,,,,,,,0,27,27,136,1
,,,,,,,,,,,,,,,,,199360,19,2022-01-28_15h19.53.360,lexical_decision_task_DD,2021.2.3,Win32,60.2373351,,,,,,,,,,,0.6093,1,,,,,,,,,,,,,,,,,,,,,,,,-0.073148136,-0.287962975,0,0,0,,,,,,,DRUMS,HB,m,m,./images/DRUMSHB.png,,,,,,,,m,1,0.6093,,,,,,,,0,28,28,49,1
,,,,,,,,,,,,,,,,,199360,19,2022-01-28_15h19.53.360,lexical_decision_task_DD,2021.2.3,Win32,60.2373351,,,,,,,,,,,0.6503,1,,,,,,,,,,,,,,,,,,,,,,,,-0.073148136,-0.287962975,0,0,0,,,,,,,PEACH,LB,m,m,./images/PEACHLB.png,,,,,,,,m,1,0.6503,,,,,,,,0,29,29,35,1
,,,,,,,,,,,,,,,,,199360,19,2022-01-28_15h19.53.360,lexical_decision_task_DD,2021.2.3,Win32,60.2373351,,,,,,,,,,,1.5611,1,,,,,,,,,,,,,,,,,,,,,,,,-0.073148136,-0.287962975,0,0,0,,,,,,,MEDAL,LB,z,m,./images/MEDALLB.png,,,,,,,,z,1,1.5611,,,,,,,,0,30,30,95,1
,,,,,,,,,,,,,,,,,199360,19,2022-01-28_15h19.53.360,lexical_decision_task_DD,2021.2.3,Win32,60.2373351,,,,,,,,,,,0.8842,1,,,,,,,,,,,,,,,,,,,,,,,,-0.073148136,-0.287962975,0,0,0,,,,,,,URINE,HB,m,m,./images/URINEHB.png,,,,,,,,m,1,0.8842,,,,,,,,0,31,31,70,1
,,,,,,,,,,,,,,,,,199360,19,2022-01-28_15h19.53.360,lexical_decision_task_DD,2021.2.3,Win32,60.2373351,,,,,,,,,,,1.0915,1,,,,,,,,,,,,,,,,,,,,,,,,-0.073148136,-0.287962975,0,0,0,,,,,,,PENCE,HB,m,m,./images/PENCEHB.png,,,,,,,,m,1,1.0915,,,,,,,,0,32,32,16,1
,,,,,,,,,,,,,,,,,199360,19,2022-01-28_15h19.53.360,lexical_decision_task_DD,2021.2.3,Win32,60.2373351,,,,,,,,,,,0.803,0,,,,,,,,,,,,,,,,,,,,,,,,-0.073148136,-0.287962975,0,0,0,,,,,,,STAIN,C,z,m,./images/STAIN.png,,,,,,,,m,0,0.803,,,,,,,,0,33,33,90,1
,,,,,,,,,,,,,,,,,199360,19,2022-01-28_15h19.53.360,lexical_decision_task_DD,2021.2.3,Win32,60.2373351,,,,,,,,,,,0.9669,1,,,,,,,,,,,,,,,,,,,,,,,,-0.073148136,-0.287962975,0,0,0,,,,,,,POKER,HB,z,m,./images/POKERHB.png,,,,,,,,z,1,0.9669,,,,,,,,0,34,34,151,1
,,,,,,,,,,,,,,,,,199360,19,2022-01-28_15h19.53.360,lexical_decision_task_DD,2021.2.3,Win32,60.2373351,,,,,,,,,,,0.6696,0,,,,,,,,,,,,,,,,,,,,,,,,-0.073148136,-0.287962975,0,0,0,,,,,,,WHEEL,LB,z,m,./images/WHEELLB.png,,,,,,,,m,0,0.6696,,,,,,,,0,35,35,161,1
,,,,,,,,,,,,,,,,,199360,19,2022-01-28_15h19.53.360,lexical_decision_task_DD,2021.2.3,Win32,60.2373351,,,,,,,,,,,0.7172,1,,,,,,,,,,,,,,,,,,,,,,,,-0.073148136,-0.287962975,0,0,0,,,,,,,FLESH,C,z,m,./images/FLESH.png,,,,,,,,z,1,0.7172,,,,,,,,0,36,36,108,1
,,,,,,,,,,,,,,,,,199360,19,2022-01-28_15h19.53.360,lexical_decision_task_DD,2021.2.3,Win32,60.2373351,,,,,,,,,,,1.0004,1,,,,,,,,,,,,,,,,,,,,,,,,-0.073148136,-0.287962975,0,0,0,,,,,,,HAMMER,C,z,m,./images/HAMMER.png,,,,,,,,z,1,1.0004,,,,,,,,0,37,37,159,1
,,,,,,,,,,,,,,,,,199360,19,2022-01-28_15h19.53.360,lexical_decision_task_DD,2021.2.3,Win32,60.2373351,,,,,,,,,,,0.9004,1,,,,,,,,,,,,,,,,,,,,,,,,-0.073148136,-0.287962975,0,0,0,,,,,,,DIVER,C,z,m,./images/DIVER.png,,,,,,,,z,1,0.9004,,,,,,,,0,38,38,93,1
,,,,,,,,,,,,,,,,,199360,19,2022-01-28_15h19.53.360,lexical_decision_task_DD,2021.2.3,Win32,60.2373351,,,,,,,,,,,0.6336,1,,,,,,,,,,,,,,,,,,,,,,,,-0.073148136,-0.287962975,0,0,0,,,,,,,RHINO,C,m,m,./images/RHINO.png,,,,,,,,m,1,0.6336,,,,,,,,0,39,39,9,1
,,,,,,,,,,,,,,,,,199360,19,2022-01-28_15h19.53.360,lexical_decision_task_DD,2021.2.3,Win32,60.2373351,,,,,,,,,,,1.0457,1,,,,,,,,,,,,,,,,,,,,,,,,-0.073148136,-0.287962975,0,0,0,,,,,,,STEAK,HB,z,m,./images/STEAKHB.png,,,,,,,,z,1,1.0457,,,,,,,,0,40,40,115,1
,,,,,,,,,,,,,,,,,199360,19,2022-01-28_15h19.53.360,lexical_decision_task_DD,2021.2.3,Win32,60.2373351,,,,,,,,,,,0.6248,1,,,,,,,,,,,,,,,,,,,,,,,,-0.073148136,-0.287962975,0,0,0,space,,,,,,TRIPOD,C,m,m,./images/TRIPOD.png,9.287,,,,,,,m,1,0.6248,,,,,,,,0,41,41,54,1
,,,,,,,,,,,,,,,,,199360,19,2022-01-28_15h19.53.360,lexical_decision_task_DD,2021.2.3,Win32,60.2373351,,,,,,,,,,,1.6353,0,,,,,,,,,,,,,,,,,,,,,,,,-0.073148136,-0.287962975,0,0,0,,,,,,,BRIDE,HB,z,m,./images/BRIDEHB.png,,,,,,,,m,0,1.6353,,,,,,,,0,42,42,148,1
,,,,,,,,,,,,,,,,,199360,19,2022-01-28_15h19.53.360,lexical_decision_task_DD,2021.2.3,Win32,60.2373351,,,,,,,,,,,0.5899,1,,,,,,,,,,,,,,,,,,,,,,,,-0.073148136,-0.287962975,0,0,0,,,,,,,CARPET,LB,m,m,./images/CARPETLB.png,,,,,,,,m,1,0.5899,,,,,,,,0,43,43,53,1
,,,,,,,,,,,,,,,,,199360,19,2022-01-28_15h19.53.360,lexical_decision_task_DD,2021.2.3,Win32,60.2373351,,,,,,,,,,,1.1828,0,,,,,,,,,,,,,,,,,,,,,,,,-0.073148136,-0.287962975,0,0,0,,,,,,,DRILL,C,z,m,./images/DRILL.png,,,,,,,,m,0,1.1828,,,,,,,,0,44,44,165,1
,,,,,,,,,,,,,,,,,199360,19,2022-01-28_15h19.53.360,lexical_decision_task_DD,2021.2.3,Win32,60.2373351,,,,,,,,,,,0.6104,1,,,,,,,,,,,,,,,,,,,,,,,,-0.073148136,-0.287962975,0,0,0,,,,,,,PIMPLE,LB,m,m,./images/PIMPLELB.png,,,,,,,,m,1,0.6104,,,,,,,,0,45,45,71,1
,,,,,,,,,,,,,,,,,199360,19,2022-01-28_15h19.53.360,lexical_decision_task_DD,2021.2.3,Win32,60.2373351,,,,,,,,,,,0.5842,1,,,,,,,,,,,,,,,,,,,,,,,,-0.073148136,-0.287962975,0,0,0,,,,,,,MOOSE,C,m,m,./images/MOOSE.png,,,,,,,,m,1,0.5842,,,,,,,,0,46,46,57,1
,,,,,,,,,,,,,,,,,199360,19,2022-01-28_15h19.53.360,lexical_decision_task_DD,2021.2.3,Win32,60.2373351,,,,,,,,,,,0.6265,1,,,,,,,,,,,,,,,,,,,,,,,,-0.073148136,-0.287962975,0,0,0,,,,,,,JUNGLE,LB,m,m,./images/JUNGLELB.png,,,,,,,,m,1,0.6265,,,,,,,,0,47,47,83,1
,,,,,,,,,,,,,,,,,199360,19,2022-01-28_15h19.53.360,lexical_decision_task_DD,2021.2.3,Win32,60.2373351,,,,,,,,,,,1.0843,1,,,,,,,,,,,,,,,,,,,,,,,,-0.073148136,-0.287962975,0,0,0,,,,,,,RULER,HB,z,m,./images/RULERHB.png,,,,,,,,z,1,1.0843,,,,,,,,0,48,48,163,1
,,,,,,,,,,,,,,,,,199360,19,2022-01-28_15h19.53.360,lexical_decision_task_DD,2021.2.3,Win32,60.2373351,,,,,,,,,,,0.6752,0,,,,,,,,,,,,,,,,,,,,,,,,-0.073148136,-0.287962975,0,0,0,,,,,,,BLOKE,C,z,m,./images/BLOKE.png,,,,,,,,m,0,0.6752,,,,,,,,0,49,49,96,1
,,,,,,,,,,,,,,,,,199360,19,2022-01-28_15h19.53.360,lexical_decision_task_DD,2021.2.3,Win32,60.2373351,,,,,,,,,,,0.6711,1,,,,,,,,,,,,,,,,,,,,,,,,-0.073148136,-0.287962975,0,0,0,,,,,,,SMOKER,LB,m,m,./images/SMOKERLB.png,,,,,,,,m,1,0.6711,,,,,,,,0,50,50,26,1
,,,,,,,,,,,,,,,,,199360,19,2022-01-28_15h19.53.360,lexical_decision_task_DD,2021.2.3,Win32,60.2373351,,,,,,,,,,,1.1005,1,,,,,,,,,,,,,,,,,,,,,,,,-0.073148136,-0.287962975,0,0,0,,,,,,,STATUE,C,z,m,./images/STATUE.png,,,,,,,,z,1,1.1005,,,,,,,,0,51,51,150,1
,,,,,,,,,,,,,,,,,199360,19,2022-01-28_15h19.53.360,lexical_decision_task_DD,2021.2.3,Win32,60.2373351,,,,,,,,,,,2.8844,1,,,,,,,,,,,,,,,,,,,,,,,,-0.073148136,-0.287962975,0,0,0,,,,,,,HEATER,LB,z,m,./images/HEATERLB.png,,,,,,,,z,1,2.8844,,,,,,,,0,52,52,140,1
,,,,,,,,,,,,,,,,,199360,19,2022-01-28_15h19.53.360,lexical_decision_task_DD,2021.2.3,Win32,60.2373351,,,,,,,,,,,1.7861,1,,,,,,,,,,,,,,,,,,,,,,,,-0.073148136,-0.287962975,0,0,0,,,,,,,COUCH,LB,m,m,./images/COUCHLB.png,,,,,,,,m,1,1.7861,,,,,,,,0,53,53,77,1
,,,,,,,,,,,,,,,,,199360,19,2022-01-28_15h19.53.360,lexical_decision_task_DD,2021.2.3,Win32,60.2373351,,,,,,,,,,,0.5845,1,,,,,,,,,,,,,,,,,,,,,,,,-0.073148136,-0.287962975,0,0,0,,,,,,,PICKLE,LB,m,m,./images/PICKLELB.png,,,,,,,,m,1,0.5845,,,,,,,,0,54,54,14,1
,,,,,,,,,,,,,,,,,199360,19,2022-01-28_15h19.53.360,lexical_decision_task_DD,2021.2.3,Win32,60.2373351,,,,,,,,,,,0.7948,1,,,,,,,,,,,,,,,,,,,,,,,,-0.073148136,-0.287962975,0,0,0,,,,,,,BANANA,HB,z,m,./images/BANANAHB.png,,,,,,,,z,1,0.7948,,,,,,,,0,55,55,154,1
,,,,,,,,,,,,,,,,,199360,19,2022-01-28_15h19.53.360,lexical_decision_task_DD,2021.2.3,Win32,60.2373351,,,,,,,,,,,0.5507,1,,,,,,,,,,,,,,,,,,,,,,,,-0.073148136,-0.287962975,0,0,0,,,,,,,LLAMA,LB,z,m,./images/LLAMALB.png,,,,,,,,z,1,0.5507,,,,,,,,0,56,56,119,1
,,,,,,,,,,,,,,,,,199360,19,2022-01-28_15h19.53.360,lexical_decision_task_DD,2021.2.3,Win32,60.2373351,,,,,,,,,,,0.9441,1,,,,,,,,,,,,,,,,,,,,,,,,-0.073148136,-0.287962975,0,0,0,,,,,,,CRADLE,LB,m,m,./images/CRADLELB.png,,,,,,,,m,1,0.9441,,,,,,,,0,57,57,20,1
,,,,,,,,,,,,,,,,,199360,19,2022-01-28_15h19.53.360,lexical_decision_task_DD,2021.2.3,Win32,60.2373351,,,,,,,,,,,3.292,1,,,,,,,,,,,,,,,,,,,,,,,,-0.073148136,-0.287962975,0,0,0,,,,,,,PLANET,LB,z,m,./images/PLANETLB.png,,,,,,,,z,1,3.292,,,,,,,,0,58,58,164,1
,,,,,,,,,,,,,,,,,199360,19,2022-01-28_15h19.53.360,lexical_decision_task_DD,2021.2.3,Win32,60.2373351,,,,,,,,,,,0.6935,1,,,,,,,,,,,,,,,,,,,,,,,,-0.073148136,-0.287962975,0,0,0,,,,,,,BURIAL,LB,m,m,./images/BURIALLB.png,,,,,,,,m,1,0.6935,,,,,,,,0,59,59,59,1
,,,,,,,,,,,,,,,,,199360,19,2022-01-28_15h19.53.360,lexical_decision_task_DD,2021.2.3,Win32,60.2373351,,,,,,,,,,,0.7382,0,,,,,,,,,,,,,,,,,,,,,,,,-0.073148136,-0.287962975,0,0,0,,,,,,,ENGINE,LB,z,m,./images/ENGINELB.png,,,,,,,,m,0,0.7382,,,,,,,,0,60,60,122,1
,,,,,,,,,,,,,,,,,199360,19,2022-01-28_15h19.53.360,lexical_decision_task_DD,2021.2.3,Win32,60.2373351,,,,,,,,,,,0.6236,1,,,,,,,,,,,,,,,,,,,,,,,,-0.073148136,-0.287962975,0,0,0,,,,,,,MALLET,LB,m,m,./images/MALLETLB.png,,,,,,,,m,1,0.6236,,,,,,,,0,61,61,50,1
,,,,,,,,,,,,,,,,,199360,19,2022-01-28_15h19.53.360,lexical_decision_task_DD,2021.2.3,Win32,60.2373351,,,,,,,,,,,0.6248,0,,,,,,,,,,,,,,,,,,,,,,,,-0.073148136,-0.287962975,0,0,0,,,,,,,BAKER,C,z,m,./images/BAKER.png,,,,,,,,m,0,0.6248,,,,,,,,0,62,62,147,1
,,,,,,,,,,,,,,,,,199360,19,2022-01-28_15h19.53.360,lexical_decision_task_DD,2021.2.3,Win32,60.2373351,,,,,,,,,,,0.5751,1,,,,,,,,,,,,,,,,,,,,,,,,-0.073148136,-0.287962975,0,0,0,,,,,,,GREASE,C,m,m,./images/GREASE.png,,,,,,,,m,1,0.5751,,,,,,,,0,63,63,15,1
,,,,,,,,,,,,,,,,,199360,19,2022-01-28_15h19.53.360,lexical_decision_task_DD,2021.2.3,Win32,60.2373351,,,,,,,,,,,0.5524,0,,,,,,,,,,,,,,,,,,,,,,,,-0.073148136,-0.287962975,0,0,0,,,,,,,PILOT,LB,z,m,./images/PILOTLB.png,,,,,,,,m,0,0.5524,,,,,,,,0,64,64,134,1
,,,,,,,,,,,,,,,,,199360,19,2022-01-28_15h19.53.360,lexical_decision_task_DD,2021.2.3,Win32,60.2373351,,,,,,,,,,,0.9884,0,,,,,,,,,,,,,,,,,,,,,,,,-0.073148136,-0.287962975,0,0,0,,,,,,,FINGER,C,m,m,./images/FINGER.png,,,,,,,,z,0,0.9884,,,,,,,,0,65,65,3,1
,,,,,,,,,,,,,,,,,199360,19,2022-01-28_15h19.53.360,lexical_decision_task_DD,2021.2.3,Win32,60.2373351,,,,,,,,,,,0.6554,1,,,,,,,,,,,,,,,,,,,,,,,,-0.073148136,-0.287962975,0,0,0,,,,,,,MIRROR,C,m,m,./images/MIRROR.png,,,,,,,,m,1,0.6554,,,,,,,,0,66,66,63,1
,,,,,,,,,,,,,,,,,199360,19,2022-01-28_15h19.53.360,lexical_decision_task_DD,2021.2.3,Win32,60.2373351,,,,,,,,,,,0.6785,1,,,,,,,,,,,,,,,,,,,,,,,,-0.073148136,-0.287962975,0,0,0,,,,,,,PAINT,HB,m,m,./images/PAINTHB.png,,,,,,,,m,1,0.6785,,,,,,,,0,67,67,7,1
,,,,,,,,,,,,,,,,,199360,19,2022-01-28_15h19.53.360,lexical_decision_task_DD,2021.2.3,Win32,60.2373351,,,,,,,,,,,1.1388,1,,,,,,,,,,,,,,,,,,,,,,,,-0.073148136,-0.287962975,0,0,0,,,,,,,ARTIST,HB,z,m,./images/ARTISTHB.png,,,,,,,,z,1,1.1388,,,,,,,,0,68,68,145,1
,,,,,,,,,,,,,,,,,199360,19,2022-01-28_15h19.53.360,lexical_decision_task_DD,2021.2.3,Win32,60.2373351,,,,,,,,,,,0.7079,1,,,,,,,,,,,,,,,,,,,,,,,,-0.073148136,-0.287962975,0,0,0,,,,,,,SCREW,C,m,m,./images/SCREW.png,,,,,,,,m,1,0.7079,,,,,,,,0,69,69,24,1
,,,,,,,,,,,,,,,,,199360,19,2022-01-28_15h19.53.360,lexical_decision_task_DD,2021.2.3,Win32,60.2373351,,,,,,,,,,,0.9842,1,,,,,,,,,,,,,,,,,,,,,,,,-0.073148136,-0.287962975,0,0,0,,,,,,,PARADE,LB,z,m,./images/PARADELB.png,,,,,,,,z,1,0.9842,,,,,,,,0,70,70,101,1
,,,,,,,,,,,,,,,,,199360,19,2022-01-28_15h19.53.360,lexical_decision_task_DD,2021.2.3,Win32,60.2373351,,,,,,,,,,,0.635,1,,,,,,,,,,,,,,,,,,,,,,,,-0.073148136,-0.287962975,0,0,0,,,,,,,JELLY,HB,m,m,./images/JELLYHB.png,,,,,,,,m,1,0.635,,,,,,,,0,71,71,64,1
,,,,,,,,,,,,,,,,,199360,19,2022-01-28_15h19.53.360,lexical_decision_task_DD,2021.2.3,Win32,60.2373351,,,,,,,,,,,0.6452,1,,,,,,,,,,,,,,,,,,,,,,,,-0.073148136,-0.287962975,0,0,0,,,,,,,SAILOR,HB,m,m,./images/SAILORHB.png,,,,,,,,m,1,0.6452,,,,,,,,0,72,72,67,1
,,,,,,,,,,,,,,,,,199360,19,2022-01-28_15h19.53.360,lexical_decision_task_DD,2021.2.3,Win32,60.2373351,,,,,,,,,,,0.9772,1,,,,,,,,,,,,,,,,,,,,,,,,-0.073148136,-0.287962975,0,0,0,,,,,,,STREAM,LB,z,m,./images/STREAMLB.png,,,,,,,,z,1,0.9772,,,,,,,,0,73,73,125,1
,,,,,,,,,,,,,,,,,199360,19,2022-01-28_15h19.53.360,lexical_decision_task_DD,2021.2.3,Win32,60.2373351,,,,,,,,,,,0.8023,1,,,,,,,,,,,,,,,,,,,,,,,,-0.073148136,-0.287962975,0,0,0,,,,,,,ARROW,C,z,m,./images/ARROW.png,,,,,,,,z,1,0.8023,,,,,,,,0,74,74,153,1
,,,,,,,,,,,,,,,,,199360,19,2022-01-28_15h19.53.360,lexical_decision_task_DD,2021.2.3,Win32,60.2373351,,,,,,,,,,,0.7408,1,,,,,,,,,,,,,,,,,,,,,,,,-0.073148136,-0.287962975,0,0,0,,,,,,,LAGOON,LB,z,m,./images/LAGOONLB.png,,,,,,,,z,1,0.7408,,,,,,,,0,75,75,131,1
,,,,,,,,,,,,,,,,,199360,19,2022-01-28_15h19.53.360,lexical_decision_task_DD,2021.2.3,Win32,60.2373351,,,,,,,,,,,0.9848,0,,,,,,,,,,,,,,,,,,,,,,,,-0.073148136,-0.287962975,0,0,0,,,,,,,MONKEY,C,z,m,./images/MONKEY.png,,,,,,,,m,0,0.9848,,,,,,,,0,76,76,129,1
,,,,,,,,,,,,,,,,,199360,19,2022-01-28_15h19.53.360,lexical_decision_task_DD,2021.2.3,Win32,60.2373351,,,,,,,,,,,0.8247,1,,,,,,,,,,,,,,,,,,,,,,,,-0.073148136,-0.287962975,0,0,0,,,,,,,SUNSET,HB,m,m,./images/SUNSETHB.png,,,,,,,,m,1,0.8247,,,,,,,,0,77,77,82,1
,,,,,,,,,,,,,,,,,199360,19,2022-01-28_15h19.53.360,lexical_decision_task_DD,2021.2.3,Win32,60.2373351,,,,,,,,,,,0.6095,1,,,,,,,,,,,,,,,,,,,,,,,,-0.073148136,-0.287962975,0,0,0,,,,,,,MAGGOT,C,m,m,./images/MAGGOT.png,,,,,,,,m,1,0.6095,,,,,,,,0,78,78,33,1
,,,,,,,,,,,,,,,,,199360,19,2022-01-28_15h19.53.360,lexical_decision_task_DD,2021.2.3,Win32,60.2373351,,,,,,,,,,,0.6717,1,,,,,,,,,,,,,,,,,,,,,,,,-0.073148136,-0.287962975,0,0,0,,,,,,,HOCKEY,LB,z,m,./images/HOCKEYLB.png,,,,,,,,z,1,0.6717,,,,,,,,0,79,79,116,1
,,,,,,,,,,,,,,,,,199360,19,2022-01-28_15h19.53.360,lexical_decision_task_DD,2021.2.3,Win32,60.2373351,,,,,,,,,,,0.902,1,,,,,,,,,,,,,,,,,,,,,,,,-0.073148136,-0.287962975,0,0,0,,,,,,,CASINO,HB,z,m,./images/CASINOHB.png,,,,,,,,z,1,0.902,,,,,,,,0,80,80,112,1
,,,,,,,,,,,,,,,,,199360,19,2022-01-28_15h19.53.360,lexical_decision_task_DD,2021.2.3,Win32,60.2373351,,,,,,,,,,,0.7531,1,,,,,,,,,,,,,,,,,,,,,,,,-0.073148136,-0.287962975,0,0,0,,,,,,,MELON,HB,m,m,./images/MELONHB.png,,,,,,,,m,1,0.7531,,,,,,,,0,81,81,22,1
,,,,,,,,,,,,,,,,,199360,19,2022-01-28_15h19.53.360,lexical_decision_task_DD,2021.2.3,Win32,60.2373351,,,,,,,,,,,1.1339,1,,,,,,,,,,,,,,,,,,,,,,,,-0.073148136,-0.287962975,0,0,0,,,,,,,PISTOL,LB,z,m,./images/PISTOLLB.png,,,,,,,,z,1,1.1339,,,,,,,,0,82,82,113,1
,,,,,,,,,,,,,,,,,199360,19,2022-01-28_15h19.53.360,lexical_decision_task_DD,2021.2.3,Win32,60.2373351,,,,,,,,,,,0.8511,1,,,,,,,,,,,,,,,,,,,,,,,,-0.073148136,-0.287962975,0,0,0,space,,,,,,BISHOP,HB,z,m,./images/BISHOPHB.png,5.7004,,,,,,,z,1,0.8511,,,,,,,,0,83,83,133,1
,,,,,,,,,,,,,,,,,199360,19,2022-01-28_15h19.53.360,lexical_decision_task_DD,2021.2.3,Win32,60.2373351,,,,,,,,,,,0.7831,0,,,,,,,,,,,,,,,,,,,,,,,,-0.073148136,-0.287962975,0,0,0,,,,,,,GRAPE,HB,z,m,./images/GRAPEHB.png,,,,,,,,m,0,0.7831,,,,,,,,0,84,84,100,1
,,,,,,,,,,,,,,,,,199360,19,2022-01-28_15h19.53.360,lexical_decision_task_DD,2021.2.3,Win32,60.2373351,,,,,,,,,,,1.0268,0,,,,,,,,,,,,,,,,,,,,,,,,-0.073148136,-0.287962975,0,0,0,,,,,,,GRANNY,LB,z,m,./images/GRANNYLB.png,,,,,,,,m,0,1.0268,,,,,,,,0,85,85,104,1
,,,,,,,,,,,,,,,,,199360,19,2022-01-28_15h19.53.360,lexical_decision_task_DD,2021.2.3,Win32,60.2373351,,,,,,,,,,,0.9509,1,,,,,,,,,,,,,,,,,,,,,,,,-0.073148136,-0.287962975,0,0,0,,,,,,,STRING,LB,m,m,./images/STRINGLB.png,,,,,,,,m,1,0.9509,,,,,,,,0,86,86,41,1
,,,,,,,,,,,,,,,,,199360,19,2022-01-28_15h19.53.360,lexical_decision_task_DD,2021.2.3,Win32,60.2373351,,,,,,,,,,,0.9578,1,,,,,,,,,,,,,,,,,,,,,,,,-0.073148136,-0.287962975,0,0,0,,,,,,,SLOPE,C,z,m,./images/SLOPE.png,,,,,,,,z,1,0.9578,,,,,,,,0,87,87,114,1
,,,,,,,,,,,,,,,,,199360,19,2022-01-28_15h19.53.360,lexical_decision_task_DD,2021.2.3,Win32,60.2373351,,,,,,,,,,,0.5757,1,,,,,,,,,,,,,,,,,,,,,,,,-0.073148136,-0.287962975,0,0,0,,,,,,,KIDNEY,C,m,m,./images/KIDNEY.png,,,,,,,,m,1,0.5757,,,,,,,,0,88,88,21,1
,,,,,,,,,,,,,,,,,199360,19,2022-01-28_15h19.53.360,lexical_decision_task_DD,2021.2.3,Win32,60.2373351,,,,,,,,,,,0.9202,0,,,,,,,,,,,,,,,,,,,,,,,,-0.073148136,-0.287962975,0,0,0,,,,,,,GRAIN,C,m,m,./images/GRAIN.png,,,,,,,,z,0,0.9202,,,,,,,,0,89,89,75,1
,,,,,,,,,,,,,,,,,199360,19,2022-01-28_15h19.53.360,lexical_decision_task_DD,2021.2.3,Win32,60.2373351,,,,,,,,,,,0.6585,1,,,,,,,,,,,,,,,,,,,,,,,,-0.073148136,-0.287962975,0,0,0,,,,,,,WAGON,HB,z,m,./images/WAGONHB.png,,,,,,,,z,1,0.6585,,,,,,,,0,90,90,91,1
,,,,,,,,,,,,,,,,,199360,19,2022-01-28_15h19.53.360,lexical_decision_task_DD,2021.2.3,Win32,60.2373351,,,,,,,,,,,0.6856,1,,,,,,,,,,,,,,,,,,,,,,,,-0.073148136,-0.287962975,0,0,0,,,,,,,CLOWN,HB,z,m,./images/CLOWNHB.png,,,,,,,,z,1,0.6856,,,,,,,,0,91,91,106,1
,,,,,,,,,,,,,,,,,199360,19,2022-01-28_15h19.53.360,lexical_decision_task_DD,2021.2.3,Win32,60.2373351,,,,,,,,,,,1.0003,1,,,,,,,,,,,,,,,,,,,,,,,,-0.073148136,-0.287962975,0,0,0,,,,,,,GLOVE,HB,z,m,./images/GLOVEHB.png,,,,,,,,z,1,1.0003,,,,,,,,0,92,92,157,1
,,,,,,,,,,,,,,,,,199360,19,2022-01-28_15h19.53.360,lexical_decision_task_DD,2021.2.3,Win32,60.2373351,,,,,,,,,,,0.9842,1,,,,,,,,,,,,,,,,,,,,,,,,-0.073148136,-0.287962975,0,0,0,,,,,,,MOSQUE,HB,m,m,./images/MOSQUEHB.png,,,,,,,,m,1,0.9842,,,,,,,,0,93,93,43,1
,,,,,,,,,,,,,,,,,199360,19,2022-01-28_15h19.53.360,lexical_decision_task_DD,2021.2.3,Win32,60.2373351,,,,,,,,,,,0.6605,1,,,,,,,,,,,,,,,,,,,,,,,,-0.073148136,-0.287962975,0,0,0,,,,,,,SQUARE,C,m,m,./images/SQUARE.png,,,,,,,,m,1,0.6605,,,,,,,,0,94,94,6,1
,,,,,,,,,,,,,,,,,199360,19,2022-01-28_15h19.53.360,lexical_decision_task_DD,2021.2.3,Win32,60.2373351,,,,,,,,,,,1.5067,1,,,,,,,,,,,,,,,,,,,,,,,,-0.073148136,-0.287962975,0,0,0,,,,,,,SHIELD,C,z,m,./images/SHIELD.png,,,,,,,,z,1,1.5067,,,,,,,,0,95,95,132,1
,,,,,,,,,,,,,,,,,199360,19,2022-01-28_15h19.53.360,lexical_decision_task_DD,2021.2.3,Win32,60.2373351,,,,,,,,,,,0.9178,1,,,,,,,,,,,,,,,,,,,,,,,,-0.073148136,-0.287962975,0,0,0,,,,,,,SAUCE,C,z,m,./images/SAUCE.png,,,,,,,,z,1,0.9178,,,,,,,,0,96,96,135,1
,,,,,,,,,,,,,,,,,199360,19,2022-01-28_15h19.53.360,lexical_decision_task_DD,2021.2.3,Win32,60.2373351,,,,,,,,,,,0.6007,1,,,,,,,,,,,,,,,,,,,,,,,,-0.073148136,-0.287962975,0,0,0,,,,,,,FOLDER,C,m,m,./images/FOLDER.png,,,,,,,,m,1,0.6007,,,,,,,,0,97,97,42,1
,,,,,,,,,,,,,,,,,199360,19,2022-01-28_15h19.53.360,lexical_decision_task_DD,2021.2.3,Win32,60.2373351,,,,,,,,,,,0.5839,1,,,,,,,,,,,,,,,,,,,,,,,,-0.073148136,-0.287962975,0,0,0,,,,,,,PEARL,HB,m,m,./images/PEARLHB.png,,,,,,,,m,1,0.5839,,,,,,,,0,98,98,46,1
,,,,,,,,,,,,,,,,,199360,19,2022-01-28_15h19.53.360,lexical_decision_task_DD,2021.2.3,Win32,60.2373351,,,,,,,,,,,4.4961,1,,,,,,,,,,,,,,,,,,,,,,,,-0.073148136,-0.287962975,0,0,0,,,,,,,TORCH,LB,m,m,./images/TORCHLB.png,,,,,,,,m,1,4.4961,,,,,,,,0,99,99,68,1
,,,,,,,,,,,,,,,,,199360,19,2022-01-28_15h19.53.360,lexical_decision_task_DD,2021.2.3,Win32,60.2373351,,,,,,,,,,,1.8069,1,,,,,,,,,,,,,,,,,,,,,,,,-0.073148136,-0.287962975,0,0,0,,,,,,,JUMPER,LB,z,m,./images/JUMPERLB.png,,,,,,,,z,1,1.8069,,,,,,,,0,100,100,158,1
,,,,,,,,,,,,,,,,,199360,19,2022-01-28_15h19.53.360,lexical_decision_task_DD,2021.2.3,Win32,60.2373351,,,,,,,,,,,0.5834,1,,,,,,,,,,,,,,,,,,,,,,,,-0.073148136,-0.287962975,0,0,0,,,,,,,CEMENT,LB,m,m,./images/CEMENTLB.png,,,,,,,,m,1,0.5834,,,,,,,,0,101,101,74,1
,,,,,,,,,,,,,,,,,199360,19,2022-01-28_15h19.53.360,lexical_decision_task_DD,2021.2.3,Win32,60.2373351,,,,,,,,,,,0.518,1,,,,,,,,,,,,,,,,,,,,,,,,-0.073148136,-0.287962975,0,0,0,,,,,,,SWEAT,C,m,m,./images/SWEAT.png,,,,,,,,m,1,0.518,,,,,,,,0,102,102,66,1
,,,,,,,,,,,,,,,,,199360,19,2022-01-28_15h19.53.360,lexical_decision_task_DD,2021.2.3,Win32,60.2373351,,,,,,,,,,,0.6506,1,,,,,,,,,,,,,,,,,,,,,,,,-0.073148136,-0.287962975,0,0,0,,,,,,,POODLE,C,m,m,./images/POODLE.png,,,,,,,,m,1,0.6506,,,,,,,,0,103,103,81,1
,,,,,,,,,,,,,,,,,199360,19,2022-01-28_15h19.53.360,lexical_decision_task_DD,2021.2.3,Win32,60.2373351,,,,,,,,,,,0.5925,0,,,,,,,,,,,,,,,,,,,,,,,,-0.073148136,-0.287962975,0,0,0,,,,,,,FENCE,LB,z,m,./images/FENCELB.png,,,,,,,,m,0,0.5925,,,,,,,,0,104,104,98,1
,,,,,,,,,,,,,,,,,199360,19,2022-01-28_15h19.53.360,lexical_decision_task_DD,2021.2.3,Win32,60.2373351,,,,,,,,,,,0.7067,0,,,,,,,,,,,,,,,,,,,,,,,,-0.073148136,-0.287962975,0,0,0,,,,,,,BUTTER,C,z,m,./images/BUTTER.png,,,,,,,,m,0,0.7067,,,,,,,,0,105,105,111,1
,,,,,,,,,,,,,,,,,199360,19,2022-01-28_15h19.53.360,lexical_decision_task_DD,2021.2.3,Win32,60.2373351,,,,,,,,,,,0.8862,1,,,,,,,,,,,,,,,,,,,,,,,,-0.073148136,-0.287962975,0,0,0,,,,,,,STOOL,HB,z,m,./images/STOOLHB.png,,,,,,,,z,1,0.8862,,,,,,,,0,106,106,127,1
,,,,,,,,,,,,,,,,,199360,19,2022-01-28_15h19.53.360,lexical_decision_task_DD,2021.2.3,Win32,60.2373351,,,,,,,,,,,2.2343,0,,,,,,,,,,,,,,,,,,,,,,,,-0.073148136,-0.287962975,0,0,0,,,,,,,SHORE,C,m,m,./images/SHORE.png,,,,,,,,z,0,2.2343,,,,,,,,0,107,107,12,1
,,,,,,,,,,,,,,,,,199360,19,2022-01-28_15h19.53.360,lexical_decision_task_DD,2021.2.3,Win32,60.2373351,,,,,,,,,,,0.9535,1,,,,,,,,,,,,,,,,,,,,,,,,-0.073148136,-0.287962975,0,0,0,,,,,,,SNACK,HB,m,m,./images/SNACKHB.png,,,,,,,,m,1,0.9535,,,,,,,,0,108,108,73,1
,,,,,,,,,,,,,,,,,199360,19,2022-01-28_15h19.53.360,lexical_decision_task_DD,2021.2.3,Win32,60.2373351,,,,,,,,,,,0.7037,1,,,,,,,,,,,,,,,,,,,,,,,,-0.073148136,-0.287962975,0,0,0,,,,,,,SAUNA,C,z,m,./images/SAUNA.png,,,,,,,,z,1,0.7037,,,,,,,,0,109,109,117,1
,,,,,,,,,,,,,,,,,199360,19,2022-01-28_15h19.53.360,lexical_decision_task_DD,2021.2.3,Win32,60.2373351,,,,,,,,,,,0.8838,0,,,,,,,,,,,,,,,,,,,,,,,,-0.073148136,-0.287962975,0,0,0,,,,,,,BERRY,LB,m,m,./images/BERRYLB.png,,,,,,,,z,0,0.8838,,,,,,,,0,110,110,47,1
,,,,,,,,,,,,,,,,,199360,19,2022-01-28_15h19.53.360,lexical_decision_task_DD,2021.2.3,Win32,60.2373351,,,,,,,,,,,1.3679,1,,,,,,,,,,,,,,,,,,,,,,,,-0.073148136,-0.287962975,0,0,0,,,,,,,CHERRY,C,z,m,./images/CHERRY.png,,,,,,,,z,1,1.3679,,,,,,,,0,111,111,138,1
,,,,,,,,,,,,,,,,,199360,19,2022-01-28_15h19.53.360,lexical_decision_task_DD,2021.2.3,Win32,60.2373351,,,,,,,,,,,0.8503,1,,,,,,,,,,,,,,,,,,,,,,,,-0.073148136,-0.287962975,0,0,0,,,,,,,BABOON,HB,m,m,./images/BABOONHB.png,,,,,,,,m,1,0.8503,,,,,,,,0,112,112,58,1
,,,,,,,,,,,,,,,,,199360,19,2022-01-28_15h19.53.360,lexical_decision_task_DD,2021.2.3,Win32,60.2373351,,,,,,,,,,,0.8506,1,,,,,,,,,,,,,,,,,,,,,,,,-0.073148136,-0.287962975,0,0,0,,,,,,,GARDEN,HB,z,m,./images/GARDENHB.png,,,,,,,,z,1,0.8506,,,,,,,,0,113,113,94,1
,,,,,,,,,,,,,,,,,199360,19,2022-01-28_15h19.53.360,lexical_decision_task_DD,2021.2.3,Win32,60.2373351,,,,,,,,,,,0.7885,1,,,,,,,,,,,,,,,,,,,,,,,,-0.073148136,-0.287962975,0,0,0,,,,,,,CRUST,HB,m,m,./images/CRUSTHB.png,,,,,,,,m,1,0.7885,,,,,,,,0,114,114,79,1
,,,,,,,,,,,,,,,,,199360,19,2022-01-28_15h19.53.360,lexical_decision_task_DD,2021.2.3,Win32,60.2373351,,,,,,,,,,,1.3422,0,,,,,,,,,,,,,,,,,,,,,,,,-0.073148136,-0.287962975,0,0,0,,,,,,,ONION,C,m,m,./images/ONION.png,,,,,,,,z,0,1.3422,,,,,,,,0,115,115,51,1
,,,,,,,,,,,,,,,,,199360,19,2022-01-28_15h19.53.360,lexical_decision_task_DD,2021.2.3,Win32,60.2373351,,,,,,,,,,,1.0672,1,,,,,,,,,,,,,,,,,,,,,,,,-0.073148136,-0.287962975,0,0,0,,,,,,,COOKER,C,m,m,./images/COOKER.png,,,,,,,,m,1,1.0672,,,,,,,,0,116,116,69,1
,,,,,,,,,,,,,,,,,199360,19,2022-01-28_15h19.53.360,lexical_decision_task_DD,2021.2.3,Win32,60.2373351,,,,,,,,,,,1.1013,1,,,,,,,,,,,,,,,,,,,,,,,,-0.073148136,-0.287962975,0,0,0,,,,,,,CLOTH,LB,z,m,./images/CLOTHLB.png,,,,,,,,z,1,1.1013,,,,,,,,0,117,117,107,1
,,,,,,,,,,,,,,,,,199360,19,2022-01-28_15h19.53.360,lexical_decision_task_DD,2021.2.3,Win32,60.2373351,,,,,,,,,,,0.7368,1,,,,,,,,,,,,,,,,,,,,,,,,-0.073148136,-0.287962975,0,0,0,,,,,,,WEASEL,LB,m,m,./images/WEASELLB.png,,,,,,,,m,1,0.7368,,,,,,,,0,118,118,80,1
,,,,,,,,,,,,,,,,,199360,19,2022-01-28_15h19.53.360,lexical_decision_task_DD,2021.2.3,Win32,60.2373351,,,,,,,,,,,0.6521,1,,,,,,,,,,,,,,,,,,,,,,,,-0.073148136,-0.287962975,0,0,0,,,,,,,CURRY,C,z,m,./images/CURRY.png,,,,,,,,z,1,0.6521,,,,,,,,0,119,119,144,1
,,,,,,,,,,,,,,,,,199360,19,2022-01-28_15h19.53.360,lexical_decision_task_DD,2021.2.3,Win32,60.2373351,,,,,,,,,,,1.4516,1,,,,,,,,,,,,,,,,,,,,,,,,-0.073148136,-0.287962975,0,0,0,,,,,,,FERRY,C,z,m,./images/FERRY.png,,,,,,,,z,1,1.4516,,,,,,,,0,120,120,141,1
,,,,,,,,,,,,,,,,,199360,19,2022-01-28_15h19.53.360,lexical_decision_task_DD,2021.2.3,Win32,60.2373351,,,,,,,,,,,1.5338,1,,,,,,,,,,,,,,,,,,,,,,,,-0.073148136,-0.287962975,0,0,0,,,,,,,SKIING,LB,m,m,./images/SKIINGLB.png,,,,,,,,m,1,1.5338,,,,,,,,0,121,121,17,1
,,,,,,,,,,,,,,,,,199360,19,2022-01-28_15h19.53.360,lexical_decision_task_DD,2021.2.3,Win32,60.2373351,,,,,,,,,,,1.0771,1,,,,,,,,,,,,,,,,,,,,,,,,-0.073148136,-0.287962975,0,0,0,,,,,,,WALNUT,C,z,m,./images/WALNUT.png,,,,,,,,z,1,1.0771,,,,,,,,0,122,122,84,1
,,,,,,,,,,,,,,,,,199360,19,2022-01-28_15h19.53.360,lexical_decision_task_DD,2021.2.3,Win32,60.2373351,,,,,,,,,,,0.7848,1,,,,,,,,,,,,,,,,,,,,,,,,-0.073148136,-0.287962975,0,0,0,,,,,,,SPORT,C,m,m,./images/SPORT.png,,,,,,,,m,1,0.7848,,,,,,,,0,123,123,48,1
,,,,,,,,,,,,,,,,,199360,19,2022-01-28_15h19.53.360,lexical_decision_task_DD,2021.2.3,Win32,60.2373351,,,,,,,,,,,0.5778,1,,,,,,,,,,,,,,,,,,,,,,,,-0.073148136,-0.287962975,0,0,0,,,,,,,CANYON,HB,m,m,./images/CANYONHB.png,,,,,,,,m,1,0.5778,,,,,,,,0,124,124,34,1
,,,,,,,,,,,,,,,,,199360,19,2022-01-28_15h19.53.360,lexical_decision_task_DD,2021.2.3,Win32,60.2373351,,,,,,,,,,,0.7622,0,,,,,,,,,,,,,,,,,,,,,,,,-0.073148136,-0.287962975,0,0,0,space,,,,,,DOUGH,HB,m,m,./images/DOUGHHB.png,1.2513,,,,,,,z,0,0.7622,,,,,,,,0,125,125,19,1
,,,,,,,,,,,,,,,,,199360,19,2022-01-28_15h19.53.360,lexical_decision_task_DD,2021.2.3,Win32,60.2373351,,,,,,,,,,,0.6538,1,,,,,,,,,,,,,,,,,,,,,,,,-0.073148136,-0.287962975,0,0,0,,,,,,,MUFFIN,HB,m,m,./images/MUFFINHB.png,,,,,,,,m,1,0.6538,,,,,,,,0,126,126,55,1
,,,,,,,,,,,,,,,,,199360,19,2022-01-28_15h19.53.360,lexical_decision_task_DD,2021.2.3,Win32,60.2373351,,,,,,,,,,,1.6169,0,,,,,,,,,,,,,,,,,,,,,,,,-0.073148136,-0.287962975,0,0,0,,,,,,,SNAKE,HB,z,m,./images/SNAKEHB.png,,,,,,,,m,0,1.6169,,,,,,,,0,127,127,124,1
,,,,,,,,,,,,,,,,,199360,19,2022-01-28_15h19.53.360,lexical_decision_task_DD,2021.2.3,Win32,60.2373351,,,,,,,,,,,0.9164,0,,,,,,,,,,,,,,,,,,,,,,,,-0.073148136,-0.287962975,0,0,0,,,,,,,BONNET,LB,m,m,./images/BONNETLB.png,,,,,,,,z,0,0.9164,,,,,,,,0,128,128,11,1
,,,,,,,,,,,,,,,,,199360,19,2022-01-28_15h19.53.360,lexical_decision_task_DD,2021.2.3,Win32,60.2373351,,,,,,,,,,,0.6575,1,,,,,,,,,,,,,,,,,,,,,,,,-0.073148136,-0.287962975,0,0,0,,,,,,,CANDLE,HB,m,m,./images/CANDLEHB.png,,,,,,,,m,1,0.6575,,,,,,,,0,129,129,61,1
,,,,,,,,,,,,,,,,,199360,19,2022-01-28_15h19.53.360,lexical_decision_task_DD,2021.2.3,Win32,60.2373351,,,,,,,,,,,0.6835,1,,,,,,,,,,,,,,,,,,,,,,,,-0.073148136,-0.287962975,0,0,0,,,,,,,LITTER,C,m,m,./images/LITTER.png,,,,,,,,m,1,0.6835,,,,,,,,0,130,130,78,1
,,,,,,,,,,,,,,,,,199360,19,2022-01-28_15h19.53.360,lexical_decision_task_DD,2021.2.3,Win32,60.2373351,,,,,,,,,,,1.2366,1,,,,,,,,,,,,,,,,,,,,,,,,-0.073148136,-0.287962975,0,0,0,,,,,,,BAMBOO,LB,z,m,./images/BAMBOOLB.png,,,,,,,,z,1,1.2366,,,,,,,,0,131,131,89,1
,,,,,,,,,,,,,,,,,199360,19,2022-01-28_15h19.53.360,lexical_decision_task_DD,2021.2.3,Win32,60.2373351,,,,,,,,,,,0.7327,1,,,,,,,,,,,,,,,,,,,,,,,,-0.073148136,-0.287962975,0,0,0,,,,,,,BOXER,HB,z,m,./images/BOXERHB.png,,,,,,,,z,1,0.7327,,,,,,,,0,132,132,88,1
,,,,,,,,,,,,,,,,,199360,19,2022-01-28_15h19.53.360,lexical_decision_task_DD,2021.2.3,Win32,60.2373351,,,,,,,,,,,0.7958,1,,,,,,,,,,,,,,,,,,,,,,,,-0.073148136,-0.287962975,0,0,0,,,,,,,BRUSH,LB,z,m,./images/BRUSHLB.png,,,,,,,,z,1,0.7958,,,,,,,,0,133,133,143,1
,,,,,,,,,,,,,,,,,199360,19,2022-01-28_15h19.53.360,lexical_decision_task_DD,2021.2.3,Win32,60.2373351,,,,,,,,,,,1.2597,1,,,,,,,,,,,,,,,,,,,,,,,,-0.073148136,-0.287962975,0,0,0,,,,,,,BELLY,HB,m,m,./images/BELLYHB.png,,,,,,,,m,1,1.2597,,,,,,,,0,134,134,10,1
,,,,,,,,,,,,,,,,,199360,19,2022-01-28_15h19.53.360,lexical_decision_task_DD,2021.2.3,Win32,60.2373351,,,,,,,,,,,1.0184,1,,,,,,,,,,,,,,,,,,,,,,,,-0.073148136,-0.287962975,0,0,0,,,,,,,ATTIC,C,m,m,./images/ATTIC.png,,,,,,,,m,1,1.0184,,,,,,,,0,135,135,27,1
,,,,,,,,,,,,,,,,,199360,19,2022-01-28_15h19.53.360,lexical_decision_task_DD,2021.2.3,Win32,60.2373351,,,,,,,,,,,0.9101,1,,,,,,,,,,,,,,,,,,,,,,,,-0.073148136,-0.287962975,0,0,0,,,,,,,CHAIN,C,z,m,./images/CHAIN.png,,,,,,,,z,1,0.9101,,,,,,,,0,136,136,126,1
,,,,,,,,,,,,,,,,,199360,19,2022-01-28_15h19.53.360,lexical_decision_task_DD,2021.2.3,Win32,60.2373351,,,,,,,,,,,1.379,0,,,,,,,,,,,,,,,,,,,,,,,,-0.073148136,-0.287962975,0,0,0,,,,,,,BARREL,LB,m,m,./images/BARRELLB.png,,,,,,,,z,0,1.379,,,,,,,,0,137,137,32,1
,,,,,,,,,,,,,,,,,199360,19,2022-01-28_15h19.53.360,lexical_decision_task_DD,2021.2.3,Win32,60.2373351,,,,,,,,,,,1.2523,0,,,,,,,,,,,,,,,,,,,,,,,,-0.073148136,-0.287962975,0,0,0,,,,,,,STORM,C,m,m,./images/STORM.png,,,,,,,,z,0,1.2523,,,,,,,,0,138,138,30,1
,,,,,,,,,,,,,,,,,199360,19,2022-01-28_15h19.53.360,lexical_decision_task_DD,2021.2.3,Win32,60.2373351,,,,,,,,,,,0.9767,1,,,,,,,,,,,,,,,,,,,,,,,,-0.073148136,-0.287962975,0,0,0,,,,,,,PURSE,LB,m,m,./images/PURSELB.png,,,,,,,,m,1,0.9767,,,,,,,,0,139,139,62,1
,,,,,,,,,,,,,,,,,199360,19,2022-01-28_15h19.53.360,lexical_decision_task_DD,2021.2.3,Win32,60.2373351,,,,,,,,,,,1.3171,1,,,,,,,,,,,,,,,,,,,,,,,,-0.073148136,-0.287962975,0,0,0,,,,,,,POSTER,LB,z,m,./images/POSTERLB.png,,,,,,,,z,1,1.3171,,,,,,,,0,140,140,137,1
,,,,,,,,,,,,,,,,,199360,19,2022-01-28_15h19.53.360,lexical_decision_task_DD,2021.2.3,Win32,60.2373351,,,,,,,,,,,0.7999,1,,,,,,,,,,,,,,,,,,,,,,,,-0.073148136,-0.287962975,0,0,0,,,,,,,CLOUD,LB,z,m,./images/CLOUDLB.png,,,,,,,,z,1,0.7999,,,,,,,,0,141,141,110,1
,,,,,,,,,,,,,,,,,199360,19,2022-01-28_15h19.53.360,lexical_decision_task_DD,2021.2.3,Win32,60.2373351,,,,,,,,,,,0.7506,1,,,,,,,,,,,,,,,,,,,,,,,,-0.073148136,-0.287962975,0,0,0,,,,,,,WHISKY,LB,z,m,./images/WHISKYLB.png,,,,,,,,z,1,0.7506,,,,,,,,0,142,142,167,1
,,,,,,,,,,,,,,,,,199360,19,2022-01-28_15h19.53.360,lexical_decision_task_DD,2021.2.3,Win32,60.2373351,,,,,,,,,,,0.7353,1,,,,,,,,,,,,,,,,,,,,,,,,-0.073148136,-0.287962975,0,0,0,,,,,,,SPINE,LB,z,m,./images/SPINELB.png,,,,,,,,z,1,0.7353,,,,,,,,0,143,143,149,1
,,,,,,,,,,,,,,,,,199360,19,2022-01-28_15h19.53.360,lexical_decision_task_DD,2021.2.3,Win32,60.2373351,,,,,,,,,,,0.7008,1,,,,,,,,,,,,,,,,,,,,,,,,-0.073148136,-0.287962975,0,0,0,,,,,,,BIRTH,HB,m,m,./images/BIRTHHB.png,,,,,,,,m,1,0.7008,,,,,,,,0,144,144,37,1
,,,,,,,,,,,,,,,,,199360,19,2022-01-28_15h19.53.360,lexical_decision_task_DD,2021.2.3,Win32,60.2373351,,,,,,,,,,,0.6734,1,,,,,,,,,,,,,,,,,,,,,,,,-0.073148136,-0.287962975,0,0,0,,,,,,,PACKET,LB,m,m,./images/PACKETLB.png,,,,,,,,m,1,0.6734,,,,,,,,0,145,145,56,1
,,,,,,,,,,,,,,,,,199360,19,2022-01-28_15h19.53.360,lexical_decision_task_DD,2021.2.3,Win32,60.2373351,,,,,,,,,,,0.6874,1,,,,,,,,,,,,,,,,,,,,,,,,-0.073148136,-0.287962975,0,0,0,,,,,,,MUMMY,HB,z,m,./images/MUMMYHB.png,,,,,,,,z,1,0.6874,,,,,,,,0,146,146,130,1
,,,,,,,,,,,,,,,,,199360,19,2022-01-28_15h19.53.360,lexical_decision_task_DD,2021.2.3,Win32,60.2373351,,,,,,,,,,,0.7751,1,,,,,,,,,,,,,,,,,,,,,,,,-0.073148136,-0.287962975,0,0,0,,,,,,,COLLAR,C,z,m,./images/COLLAR.png,,,,,,,,z,1,0.7751,,,,,,,,0,147,147,99,1
,,,,,,,,,,,,,,,,,199360,19,2022-01-28_15h19.53.360,lexical_decision_task_DD,2021.2.3,Win32,60.2373351,,,,,,,,,,,0.7604,1,,,,,,,,,,,,,,,,,,,,,,,,-0.073148136,-0.287962975,0,0,0,,,,,,,WALRUS,LB,m,m,./images/WALRUSLB.png,,,,,,,,m,1,0.7604,,,,,,,,0,148,148,23,1
,,,,,,,,,,,,,,,,,199360,19,2022-01-28_15h19.53.360,lexical_decision_task_DD,2021.2.3,Win32,60.2373351,,,,,,,,,,,0.9433,1,,,,,,,,,,,,,,,,,,,,,,,,-0.073148136,-0.287962975,0,0,0,,,,,,,CHALK,HB,z,m,./images/CHALKHB.png,,,,,,,,z,1,0.9433,,,,,,,,0,149,149,109,1
,,,,,,,,,,,,,,,,,199360,19,2022-01-28_15h19.53.360,lexical_decision_task_DD,2021.2.3,Win32,60.2373351,,,,,,,,,,,0.767,1,,,,,,,,,,,,,,,,,,,,,,,,-0.073148136,-0.287962975,0,0,0,,,,,,,TIGER,HB,z,m,./images/TIGERHB.png,,,,,,,,z,1,0.767,,,,,,,,0,150,150,121,1
,,,,,,,,,,,,,,,,,199360,19,2022-01-28_15h19.53.360,lexical_decision_task_DD,2021.2.3,Win32,60.2373351,,,,,,,,,,,0.6774,1,,,,,,,,,,,,,,,,,,,,,,,,-0.073148136,-0.287962975,0,0,0,,,,,,,NOOSE,C,m,m,./images/NOOSE.png,,,,,,,,m,1,0.6774,,,,,,,,0,151,151,72,1
,,,,,,,,,,,,,,,,,199360,19,2022-01-28_15h19.53.360,lexical_decision_task_DD,2021.2.3,Win32,60.2373351,,,,,,,,,,,1.1725,0,,,,,,,,,,,,,,,,,,,,,,,,-0.073148136,-0.287962975,0,0,0,,,,,,,MUSCLE,HB,m,m,./images/MUSCLEHB.png,,,,,,,,z,0,1.1725,,,,,,,,0,152,152,4,1
,,,,,,,,,,,,,,,,,199360,19,2022-01-28_15h19.53.360,lexical_decision_task_DD,2021.2.3,Win32,60.2373351,,,,,,,,,,,1.2509,1,,,,,,,,,,,,,,,,,,,,,,,,-0.073148136,-0.287962975,0,0,0,,,,,,,THROAT,C,m,m,./images/THROAT.png,,,,,,,,m,1,1.2509,,,,,,,,0,153,153,36,1
,,,,,,,,,,,,,,,,,199360,19,2022-01-28_15h19.53.360,lexical_decision_task_DD,2021.2.3,Win32,60.2373351,,,,,,,,,,,0.7353,0,,,,,,,,,,,,,,,,,,,,,,,,-0.073148136,-0.287962975,0,0,0,,,,,,,PASTA,LB,m,m,./images/PASTALB.png,,,,,,,,z,0,0.7353,,,,,,,,0,154,154,5,1
,,,,,,,,,,,,,,,,,199360,19,2022-01-28_15h19.53.360,lexical_decision_task_DD,2021.2.3,Win32,60.2373351,,,,,,,,,,,1.3355,0,,,,,,,,,,,,,,,,,,,,,,,,-0.073148136,-0.287962975,0,0,0,,,,,,,QUILL,HB,m,m,./images/QUILLHB.png,,,,,,,,z,0,1.3355,,,,,,,,0,155,155,31,1
,,,,,,,,,,,,,,,,,199360,19,2022-01-28_15h19.53.360,lexical_decision_task_DD,2021.2.3,Win32,60.2373351,,,,,,,,,,,2.1857,1,,,,,,,,,,,,,,,,,,,,,,,,-0.073148136,-0.287962975,0,0,0,,,,,,,BOILER,C,z,m,./images/BOILER.png,,,,,,,,z,1,2.1857,,,,,,,,0,156,156,120,1
,,,,,,,,,,,,,,,,,199360,19,2022-01-28_15h19.53.360,lexical_decision_task_DD,2021.2.3,Win32,60.2373351,,,,,,,,,,,0.6734,1,,,,,,,,,,,,,,,,,,,,,,,,-0.073148136,-0.287962975,0,0,0,,,,,,,LIZARD,LB,m,m,./images/LIZARDLB.png,,,,,,,,m,1,0.6734,,,,,,,,0,157,157,44,1
,,,,,,,,,,,,,,,,,199360,19,2022-01-28_15h19.53.360,lexical_decision_task_DD,2021.2.3,Win32,60.2373351,,,,,,,,,,,1.1062,0,,,,,,,,,,,,,,,,,,,,,,,,-0.073148136,-0.287962975,0,0,0,,,,,,,CRATER,C,z,m,./images/CRATER.png,,,,,,,,m,0,1.1062,,,,,,,,0,158,158,87,1
,,,,,,,,,,,,,,,,,199360,19,2022-01-28_15h19.53.360,lexical_decision_task_DD,2021.2.3,Win32,60.2373351,,,,,,,,,,,2.2241,1,,,,,,,,,,,,,,,,,,,,,,,,-0.073148136,-0.287962975,0,0,0,,,,,,,VALLEY,LB,z,m,./images/VALLEYLB.png,,,,,,,,z,1,2.2241,,,,,,,,0,159,159,152,1
,,,,,,,,,,,,,,,,,199360,19,2022-01-28_15h19.53.360,lexical_decision_task_DD,2021.2.3,Win32,60.2373351,,,,,,,,,,,0.8748,1,,,,,,,,,,,,,,,,,,,,,,,,-0.073148136,-0.287962975,0,0,0,,,,,,,KITTEN,C,m,m,./images/KITTEN.png,,,,,,,,m,1,0.8748,,,,,,,,0,160,160,45,1
,,,,,,,,,,,,,,,,,199360,19,2022-01-28_15h19.53.360,lexical_decision_task_DD,2021.2.3,Win32,60.2373351,,,,,,,,,,,0.6864,0,,,,,,,,,,,,,,,,,,,,,,,,-0.073148136,-0.287962975,0,0,0,,,,,,,BUNNY,HB,z,m,./images/BUNNYHB.png,,,,,,,,m,0,0.6864,,,,,,,,0,161,161,97,1
,,,,,,,,,,,,,,,,,199360,19,2022-01-28_15h19.53.360,lexical_decision_task_DD,2021.2.3,Win32,60.2373351,,,,,,,,,,,0.7548,1,,,,,,,,,,,,,,,,,,,,,,,,-0.073148136,-0.287962975,0,0,0,,,,,,,MOTOR,HB,m,m,./images/MOTORHB.png,,,,,,,,m,1,0.7548,,,,,,,,0,162,162,13,1
,,,,,,,,,,,,,,,,,199360,19,2022-01-28_15h19.53.360,lexical_decision_task_DD,2021.2.3,Win32,60.2373351,,,,,,,,,,,0.7919,1,,,,,,,,,,,,,,,,,,,,,,,,-0.073148136,-0.287962975,0,0,0,,,,,,,FARMER,LB,m,m,./images/FARMERLB.png,,,,,,,,m,1,0.7919,,,,,,,,0,163,163,65,1
,,,,,,,,,,,,,,,,,199360,19,2022-01-28_15h19.53.360,lexical_decision_task_DD,2021.2.3,Win32,60.2373351,,,,,,,,,,,0.6908,0,,,,,,,,,,,,,,,,,,,,,,,,-0.073148136,-0.287962975,0,0,0,,,,,,,BASKET,LB,z,m,./images/BASKETLB.png,,,,,,,,m,0,0.6908,,,,,,,,0,164,164,128,1
,,,,,,,,,,,,,,,,,199360,19,2022-01-28_15h19.53.360,lexical_decision_task_DD,2021.2.3,Win32,60.2373351,,,,,,,,,,,1.0243,1,,,,,,,,,,,,,,,,,,,,,,,,-0.073148136,-0.287962975,0,0,0,,,,,,,BEARD,LB,m,m,./images/BEARDLB.png,,,,,,,,m,1,1.0243,,,,,,,,0,165,165,2,1
,,,,,,,,,,,,,,,,,199360,19,2022-01-28_15h19.53.360,lexical_decision_task_DD,2021.2.3,Win32,60.2373351,,,,,,,,,,,0.9389,1,,,,,,,,,,,,,,,,,,,,,,,,-0.073148136,-0.287962975,0,0,0,,,,,,,BUBBLE,LB,z,m,./images/BUBBLELB.png,,,,,,,,z,1,0.9389,,,,,,,,0,166,166,155,1
,,,,,,,,,,,,,,,,,199360,19,2022-01-28_15h19.53.360,lexical_decision_task_DD,2021.2.3,Win32,60.2373351,,,,,,,,,,,1.6339,1,,,,,,,,,,,,,,,,,,,,,,,,-0.073148136,-0.287962975,0,0,0,,,,,,,MAMMAL,LB,z,m,./images/MAMMALLB.png,,,,,,,,z,1,1.6339,,,,,,,,0,167,167,146,1
