key_resp.keys,key_resp.rt,instr_done_touch.x,instr_done_touch.y,instr_done_touch.leftButton,instr_done_touch.midButton,instr_done_touch.rightButton,instruction_pages.thisRepN,instruction_pages.thisTrialN,instruction_pages.thisN,instruction_pages.thisIndex,instruction_pages.ran,pageN,phase,instruct_text,has_image,instruct_image,participant,age,date,expName,psychopyVersion,OS,frameRate,response.keys,response.corr,response.rt,touch_resp.x,touch_resp.y,touch_resp.leftButton,touch_resp.midButton,touch_resp.rightButton,touch_resp.time,touch_resp.clicked_name,rt,corr,practrials.thisRepN,practrials.thisTrialN,practrials.thisN,practrials.thisIndex,practrials.ran,TrialID,Target,corrAns,end_of_practice_trials_pages.thisRepN,end_of_practice_trials_pages.thisTrialN,end_of_practice_trials_pages.thisN,end_of_practice_trials_pages.thisIndex,end_of_practice_trials_pages.ran,key_resp_2.keys,key_resp_2.corr,key_resp_2.rt,targ_click.x,targ_click.y,targ_click.leftButton,targ_click.midButton,targ_click.rightButton,targ_click.time,targ_click.clicked_name,break_done_touch.x,break_done_touch.y,break_done_touch.leftButton,break_done_touch.midButton,break_done_touch.rightButton,break_done_keyboard.keys,maintrials.thisRepN,maintrials.thisTrialN,maintrials.thisN,maintrials.thisIndex,maintrials.ran,string,blur,study,lex,stim_path,break_done_keyboard.rt,break_done_touch.clicked_name,test_instructions.thisRepN,test_instructions.thisTrialN,test_instructions.thisN,test_instructions.thisIndex,test_instructions.ran,instr_done_touch.clicked_name,key_resp_3.keys,key_resp_3.corr,key_resp_3.rt,test_click.x,test_click.y,test_click.leftButton,test_click.midButton,test_click.rightButton,test_click.time,test_click.clicked_name,test_phase.thisRepN,test_phase.thisTrialN,test_phase.thisN,test_phase.thisIndex,test_phase.ran
space,31.7731,-0.024074061,-0.417592606,0,0,0,0,0,0,0,1,1,instructions,"INSTRUCTIONS
At the start of each trial, look at the plus sign  (+) in the center of the screen.  This tells you that a trial is about to begin and where to look. Second, the plus sign will disappear and a string of letters will appear. Your task is to determine if the string of letters is a word or not. If the item is a word press the M key (on keyboard)  or touch the word button (phone/tablet).  If the item is not a word,  press the  Z key (on keyboard)  or touch the nonword button (on phone/tablet). 
Press the space bar or touch  continue.",0,,199309,18,2022-02-01_14h14.58.374,lexical_decision_task_DD,2021.2.3,Win32,61.15459883,,,,,,,,,,,,,,,,,,,,,,,,,,,,,,,,,,,,,,,,,,,,,,,,,,,,,,,,,,,,,,,,,,,,,,,,,,
space,4.4249,-0.024074061,-0.417592606,0,0,0,0,1,1,1,1,2,instructions,"If your device has a keyboard, press the 'Z' key for nonwords and the 'M' key for words.





Press the space bar or touch the button below to continue.",0,keyboard-example.gif,199309,18,2022-02-01_14h14.58.374,lexical_decision_task_DD,2021.2.3,Win32,61.15459883,,,,,,,,,,,,,,,,,,,,,,,,,,,,,,,,,,,,,,,,,,,,,,,,,,,,,,,,,,,,,,,,,,,,,,,,,,
space,5.3136,-0.024074061,-0.417592606,0,0,0,0,2,2,2,1,3,instructions,"If you are using a touchscreen only device, use the buttons on the screen. Do not use the mouse.





Press the space bar or touch the button below to continue.",0,touchscreen-example.gif,199309,18,2022-02-01_14h14.58.374,lexical_decision_task_DD,2021.2.3,Win32,61.15459883,,,,,,,,,,,,,,,,,,,,,,,,,,,,,,,,,,,,,,,,,,,,,,,,,,,,,,,,,,,,,,,,,,,,,,,,,,
space,0.5018,-0.024074061,-0.417592606,0,0,0,0,3,3,3,1,4,instructions,"It is very important that you respond as quickly and accurately as possible, as each letter string will only be on the screen for two seconds. If you do not respond within this time, the message 'Too slow!' will be displayed and the experiment will progress to the next letter string. The first 20 trials will be practice trials and you will receive feedback on your answers. 

Press the space bar or touch the button below to start the practice trials.",0,,199309,18,2022-02-01_14h14.58.374,lexical_decision_task_DD,2021.2.3,Win32,61.15459883,,,,,,,,,,,,,,,,,,,,,,,,,,,,,,,,,,,,,,,,,,,,,,,,,,,,,,,,,,,,,,,,,,,,,,,,,,
,,,,,,,,,,,,,,,,,199309,18,2022-02-01_14h14.58.374,lexical_decision_task_DD,2021.2.3,Win32,61.15459883,z,1,2.1486,,,,,,,,2.1486,1,0,0,0,14,1,1001,THRALE,z,,,,,,,,,,,,,,,,,,,,,,,,,,,,,,,,,,,,,,,,,,,,,,,,,,,,,,
,,,,,,,,,,,,,,,,,199309,18,2022-02-01_14h14.58.374,lexical_decision_task_DD,2021.2.3,Win32,61.15459883,m,1,1.2342,,,,,,,,1.2342,1,0,1,1,6,1,1001,ZOMBIE,m,,,,,,,,,,,,,,,,,,,,,,,,,,,,,,,,,,,,,,,,,,,,,,,,,,,,,,
,,,,,,,,,,,,,,,,,199309,18,2022-02-01_14h14.58.374,lexical_decision_task_DD,2021.2.3,Win32,61.15459883,z,1,1.3851,,,,,,,,1.3851,1,0,2,2,13,1,1001,ROUPET,z,,,,,,,,,,,,,,,,,,,,,,,,,,,,,,,,,,,,,,,,,,,,,,,,,,,,,,
,,,,,,,,,,,,,,,,,199309,18,2022-02-01_14h14.58.374,lexical_decision_task_DD,2021.2.3,Win32,61.15459883,m,1,0.334,,,,,,,,0.334,1,0,3,3,5,1,1001,OBTAIN,m,,,,,,,,,,,,,,,,,,,,,,,,,,,,,,,,,,,,,,,,,,,,,,,,,,,,,,
,,,,,,,,,,,,,,,,,199309,18,2022-02-01_14h14.58.374,lexical_decision_task_DD,2021.2.3,Win32,61.15459883,m,1,0.662,,,,,,,,0.662,1,0,4,4,3,1,1001,MATRIX,m,,,,,,,,,,,,,,,,,,,,,,,,,,,,,,,,,,,,,,,,,,,,,,,,,,,,,,
,,,,,,,,,,,,,,,,,199309,18,2022-02-01_14h14.58.374,lexical_decision_task_DD,2021.2.3,Win32,61.15459883,m,1,0.3351,,,,,,,,0.3351,1,0,5,5,1,1,1001,ADJUST,m,,,,,,,,,,,,,,,,,,,,,,,,,,,,,,,,,,,,,,,,,,,,,,,,,,,,,,
,,,,,,,,,,,,,,,,,199309,18,2022-02-01_14h14.58.374,lexical_decision_task_DD,2021.2.3,Win32,61.15459883,m,0,0.2736,,,,,,,,0.2736,0,0,6,6,8,1,1001,ASLERT,z,,,,,,,,,,,,,,,,,,,,,,,,,,,,,,,,,,,,,,,,,,,,,,,,,,,,,,
,,,,,,,,,,,,,,,,,199309,18,2022-02-01_14h14.58.374,lexical_decision_task_DD,2021.2.3,Win32,61.15459883,m,1,0.4669,,,,,,,,0.4669,1,0,7,7,2,1,1001,ALMOND,m,,,,,,,,,,,,,,,,,,,,,,,,,,,,,,,,,,,,,,,,,,,,,,,,,,,,,,
,,,,,,,,,,,,,,,,,199309,18,2022-02-01_14h14.58.374,lexical_decision_task_DD,2021.2.3,Win32,61.15459883,z,1,1.088,,,,,,,,1.088,1,0,8,8,12,1,1001,SPRINY,z,,,,,,,,,,,,,,,,,,,,,,,,,,,,,,,,,,,,,,,,,,,,,,,,,,,,,,
,,,,,,,,,,,,,,,,,199309,18,2022-02-01_14h14.58.374,lexical_decision_task_DD,2021.2.3,Win32,61.15459883,z,1,1.0283,,,,,,,,1.0283,1,0,9,9,9,1,1001,FARINY,z,,,,,,,,,,,,,,,,,,,,,,,,,,,,,,,,,,,,,,,,,,,,,,,,,,,,,,
,,,,,,,,,,,,,,,,,199309,18,2022-02-01_14h14.58.374,lexical_decision_task_DD,2021.2.3,Win32,61.15459883,m,1,0.6197,,,,,,,,0.6197,1,0,10,10,4,1,1001,SQUEAK,m,,,,,,,,,,,,,,,,,,,,,,,,,,,,,,,,,,,,,,,,,,,,,,,,,,,,,,
,,,,,,,,,,,,,,,,,199309,18,2022-02-01_14h14.58.374,lexical_decision_task_DD,2021.2.3,Win32,61.15459883,m,1,0.7292,,,,,,,,0.7292,1,0,11,11,0,1,1001,UTOPIA,m,,,,,,,,,,,,,,,,,,,,,,,,,,,,,,,,,,,,,,,,,,,,,,,,,,,,,,
,,,,,,,,,,,,,,,,,199309,18,2022-02-01_14h14.58.374,lexical_decision_task_DD,2021.2.3,Win32,61.15459883,z,1,0.5399,,,,,,,,0.5399,1,0,12,12,11,1,1001,RASHET,z,,,,,,,,,,,,,,,,,,,,,,,,,,,,,,,,,,,,,,,,,,,,,,,,,,,,,,
,,,,,,,,,,,,,,,,,199309,18,2022-02-01_14h14.58.374,lexical_decision_task_DD,2021.2.3,Win32,61.15459883,z,1,0.7094,,,,,,,,0.7094,1,0,13,13,15,1,1001,WHAISE,z,,,,,,,,,,,,,,,,,,,,,,,,,,,,,,,,,,,,,,,,,,,,,,,,,,,,,,
,,,,,,,,,,,,,,,,,199309,18,2022-02-01_14h14.58.374,lexical_decision_task_DD,2021.2.3,Win32,61.15459883,m,1,0.5678,,,,,,,,0.5678,1,0,14,14,7,1,1001,VOLUME,m,,,,,,,,,,,,,,,,,,,,,,,,,,,,,,,,,,,,,,,,,,,,,,,,,,,,,,
,,,,,,,,,,,,,,,,,199309,18,2022-02-01_14h14.58.374,lexical_decision_task_DD,2021.2.3,Win32,61.15459883,z,1,0.9952,,,,,,,,0.9952,1,0,15,15,10,1,1001,INLADE,z,,,,,,,,,,,,,,,,,,,,,,,,,,,,,,,,,,,,,,,,,,,,,,,,,,,,,,
space,9.6606,-0.024074061,-0.417592606,0,0,0,,,,,,1,end_of_practice,"You have completed the practice trials. During the experimental trials, you will not receive feedback. 
Before you begin, please ensure that you are in a comfortable and quiet location and will not be disturbed for about 15 minutes, as we cannot use your data if you do not complete all the trials. 
 When you are ready to start the experimental trials, please press space or touch the button below.",,,199309,18,2022-02-01_14h14.58.374,lexical_decision_task_DD,2021.2.3,Win32,61.15459883,,,,,,,,,,,,,,,,,,,,,0,0,0,0,1,,,,,,,,,,,,,,,,,,,,,,,,,,,,,,,,,,,,,,,,,,,,,,,,,
,,,,,,,,,,,,,,,,,199309,18,2022-02-01_14h14.58.374,lexical_decision_task_DD,2021.2.3,Win32,61.15459883,,,,,,,,,,,2.374,1,,,,,,,,,,,,,,z,1,2.374,,,,,,,,-0.024074061,-0.417592606,0,0,0,,0,0,0,121,1,CEERS,HB,old,z,./images/CEERSHB.png,,,,,,,,,,,,,,,,,,,,,,,
,,,,,,,,,,,,,,,,,199309,18,2022-02-01_14h14.58.374,lexical_decision_task_DD,2021.2.3,Win32,61.15459883,,,,,,,,,,,0.7633,1,,,,,,,,,,,,,,m,1,0.7633,,,,,,,,-0.024074061,-0.417592606,0,0,0,,0,1,1,19,1,DOUGH,HB,old,m,./images/DOUGHHB.png,,,,,,,,,,,,,,,,,,,,,,,
,,,,,,,,,,,,,,,,,199309,18,2022-02-01_14h14.58.374,lexical_decision_task_DD,2021.2.3,Win32,61.15459883,,,,,,,,,,,0.7256,1,,,,,,,,,,,,,,z,1,0.7256,,,,,,,,-0.024074061,-0.417592606,0,0,0,,0,2,2,93,1,SMONE,C,old,z,./images/SMONE.png,,,,,,,,,,,,,,,,,,,,,,,
,,,,,,,,,,,,,,,,,199309,18,2022-02-01_14h14.58.374,lexical_decision_task_DD,2021.2.3,Win32,61.15459883,,,,,,,,,,,1.7886,1,,,,,,,,,,,,,,z,1,1.7886,,,,,,,,-0.024074061,-0.417592606,0,0,0,,0,3,3,134,1,TROSS,LB,old,z,./images/TROSSLB.png,,,,,,,,,,,,,,,,,,,,,,,
,,,,,,,,,,,,,,,,,199309,18,2022-02-01_14h14.58.374,lexical_decision_task_DD,2021.2.3,Win32,61.15459883,,,,,,,,,,,2.2304,1,,,,,,,,,,,,,,z,1,2.2304,,,,,,,,-0.024074061,-0.417592606,0,0,0,,0,4,4,118,1,BAVEL,HB,old,z,./images/BAVELHB.png,,,,,,,,,,,,,,,,,,,,,,,
,,,,,,,,,,,,,,,,,199309,18,2022-02-01_14h14.58.374,lexical_decision_task_DD,2021.2.3,Win32,61.15459883,,,,,,,,,,,0.5754,1,,,,,,,,,,,,,,m,1,0.5754,,,,,,,,-0.024074061,-0.417592606,0,0,0,,0,5,5,22,1,MELON,HB,old,m,./images/MELONHB.png,,,,,,,,,,,,,,,,,,,,,,,
,,,,,,,,,,,,,,,,,199309,18,2022-02-01_14h14.58.374,lexical_decision_task_DD,2021.2.3,Win32,61.15459883,,,,,,,,,,,0.646,1,,,,,,,,,,,,,,m,1,0.646,,,,,,,,-0.024074061,-0.417592606,0,0,0,,0,6,6,82,1,SUNSET,HB,old,m,./images/SUNSETHB.png,,,,,,,,,,,,,,,,,,,,,,,
,,,,,,,,,,,,,,,,,199309,18,2022-02-01_14h14.58.374,lexical_decision_task_DD,2021.2.3,Win32,61.15459883,,,,,,,,,,,0.6385,1,,,,,,,,,,,,,,m,1,0.6385,,,,,,,,-0.024074061,-0.417592606,0,0,0,,0,7,7,28,1,FALCON,HB,old,m,./images/FALCONHB.png,,,,,,,,,,,,,,,,,,,,,,,
,,,,,,,,,,,,,,,,,199309,18,2022-02-01_14h14.58.374,lexical_decision_task_DD,2021.2.3,Win32,61.15459883,,,,,,,,,,,0.3602,0,,,,,,,,,,,,,,m,0,0.3602,,,,,,,,-0.024074061,-0.417592606,0,0,0,,0,8,8,129,1,PRANS,C,old,z,./images/PRANS.png,,,,,,,,,,,,,,,,,,,,,,,
,,,,,,,,,,,,,,,,,199309,18,2022-02-01_14h14.58.374,lexical_decision_task_DD,2021.2.3,Win32,61.15459883,,,,,,,,,,,0.585,1,,,,,,,,,,,,,,z,1,0.585,,,,,,,,-0.024074061,-0.417592606,0,0,0,,0,9,9,113,1,LINEW,LB,old,z,./images/LINEWLB.png,,,,,,,,,,,,,,,,,,,,,,,
,,,,,,,,,,,,,,,,,199309,18,2022-02-01_14h14.58.374,lexical_decision_task_DD,2021.2.3,Win32,61.15459883,,,,,,,,,,,0.9593,1,,,,,,,,,,,,,,z,1,0.9593,,,,,,,,-0.024074061,-0.417592606,0,0,0,,0,10,10,127,1,NINDY,HB,old,z,./images/NINDYHB.png,,,,,,,,,,,,,,,,,,,,,,,
,,,,,,,,,,,,,,,,,199309,18,2022-02-01_14h14.58.374,lexical_decision_task_DD,2021.2.3,Win32,61.15459883,,,,,,,,,,,0.7233,1,,,,,,,,,,,,,,m,1,0.7233,,,,,,,,-0.024074061,-0.417592606,0,0,0,,0,11,11,52,1,BANNER,HB,old,m,./images/BANNERHB.png,,,,,,,,,,,,,,,,,,,,,,,
,,,,,,,,,,,,,,,,,199309,18,2022-02-01_14h14.58.374,lexical_decision_task_DD,2021.2.3,Win32,61.15459883,,,,,,,,,,,1.0129,1,,,,,,,,,,,,,,z,1,1.0129,,,,,,,,-0.024074061,-0.417592606,0,0,0,,0,12,12,84,1,HAXES,C,old,z,./images/HAXES.png,,,,,,,,,,,,,,,,,,,,,,,
,,,,,,,,,,,,,,,,,199309,18,2022-02-01_14h14.58.374,lexical_decision_task_DD,2021.2.3,Win32,61.15459883,,,,,,,,,,,0.6294,1,,,,,,,,,,,,,,m,1,0.6294,,,,,,,,-0.024074061,-0.417592606,0,0,0,,0,13,13,17,1,SKIING,LB,old,m,./images/SKIINGLB.png,,,,,,,,,,,,,,,,,,,,,,,
,,,,,,,,,,,,,,,,,199309,18,2022-02-01_14h14.58.374,lexical_decision_task_DD,2021.2.3,Win32,61.15459883,,,,,,,,,,,2.2882,1,,,,,,,,,,,,,,z,1,2.2882,,,,,,,,-0.024074061,-0.417592606,0,0,0,,0,14,14,128,1,GRIFT,LB,old,z,./images/GRIFTLB.png,,,,,,,,,,,,,,,,,,,,,,,
,,,,,,,,,,,,,,,,,199309,18,2022-02-01_14h14.58.374,lexical_decision_task_DD,2021.2.3,Win32,61.15459883,,,,,,,,,,,0.6074,0,,,,,,,,,,,,,,m,0,0.6074,,,,,,,,-0.024074061,-0.417592606,0,0,0,,0,15,15,164,1,SGREW,LB,old,z,./images/SGREWLB.png,,,,,,,,,,,,,,,,,,,,,,,
,,,,,,,,,,,,,,,,,199309,18,2022-02-01_14h14.58.374,lexical_decision_task_DD,2021.2.3,Win32,61.15459883,,,,,,,,,,,1.1835,1,,,,,,,,,,,,,,m,1,1.1835,,,,,,,,-0.024074061,-0.417592606,0,0,0,,0,16,16,43,1,MOSQUE,HB,old,m,./images/MOSQUEHB.png,,,,,,,,,,,,,,,,,,,,,,,
,,,,,,,,,,,,,,,,,199309,18,2022-02-01_14h14.58.374,lexical_decision_task_DD,2021.2.3,Win32,61.15459883,,,,,,,,,,,0.9294,1,,,,,,,,,,,,,,z,1,0.9294,,,,,,,,-0.024074061,-0.417592606,0,0,0,,0,17,17,140,1,DOVET,LB,old,z,./images/DOVETLB.png,,,,,,,,,,,,,,,,,,,,,,,
,,,,,,,,,,,,,,,,,199309,18,2022-02-01_14h14.58.374,lexical_decision_task_DD,2021.2.3,Win32,61.15459883,,,,,,,,,,,0.8438,1,,,,,,,,,,,,,,z,1,0.8438,,,,,,,,-0.024074061,-0.417592606,0,0,0,,0,18,18,147,1,ZOLES,C,old,z,./images/ZOLES.png,,,,,,,,,,,,,,,,,,,,,,,
,,,,,,,,,,,,,,,,,199309,18,2022-02-01_14h14.58.374,lexical_decision_task_DD,2021.2.3,Win32,61.15459883,,,,,,,,,,,0.6105,1,,,,,,,,,,,,,,m,1,0.6105,,,,,,,,-0.024074061,-0.417592606,0,0,0,,0,19,19,70,1,URINE,HB,old,m,./images/URINEHB.png,,,,,,,,,,,,,,,,,,,,,,,
,,,,,,,,,,,,,,,,,199309,18,2022-02-01_14h14.58.374,lexical_decision_task_DD,2021.2.3,Win32,61.15459883,,,,,,,,,,,0.6011,1,,,,,,,,,,,,,,z,1,0.6011,,,,,,,,-0.024074061,-0.417592606,0,0,0,,0,20,20,107,1,FASKS,LB,old,z,./images/FASKSLB.png,,,,,,,,,,,,,,,,,,,,,,,
,,,,,,,,,,,,,,,,,199309,18,2022-02-01_14h14.58.374,lexical_decision_task_DD,2021.2.3,Win32,61.15459883,,,,,,,,,,,1.7784,1,,,,,,,,,,,,,,z,1,1.7784,,,,,,,,-0.024074061,-0.417592606,0,0,0,,0,21,21,108,1,GRUET,C,old,z,./images/GRUET.png,,,,,,,,,,,,,,,,,,,,,,,
,,,,,,,,,,,,,,,,,199309,18,2022-02-01_14h14.58.374,lexical_decision_task_DD,2021.2.3,Win32,61.15459883,,,,,,,,,,,0.5823,1,,,,,,,,,,,,,,m,1,0.5823,,,,,,,,-0.024074061,-0.417592606,0,0,0,,0,22,22,11,1,BONNET,LB,old,m,./images/BONNETLB.png,,,,,,,,,,,,,,,,,,,,,,,
,,,,,,,,,,,,,,,,,199309,18,2022-02-01_14h14.58.374,lexical_decision_task_DD,2021.2.3,Win32,61.15459883,,,,,,,,,,,0.7759,1,,,,,,,,,,,,,,m,1,0.7759,,,,,,,,-0.024074061,-0.417592606,0,0,0,,0,23,23,37,1,BIRTH,HB,old,m,./images/BIRTHHB.png,,,,,,,,,,,,,,,,,,,,,,,
,,,,,,,,,,,,,,,,,199309,18,2022-02-01_14h14.58.374,lexical_decision_task_DD,2021.2.3,Win32,61.15459883,,,,,,,,,,,0.6097,1,,,,,,,,,,,,,,m,1,0.6097,,,,,,,,-0.024074061,-0.417592606,0,0,0,,0,24,24,29,1,CRUMB,LB,old,m,./images/CRUMBLB.png,,,,,,,,,,,,,,,,,,,,,,,
,,,,,,,,,,,,,,,,,199309,18,2022-02-01_14h14.58.374,lexical_decision_task_DD,2021.2.3,Win32,61.15459883,,,,,,,,,,,0.5802,1,,,,,,,,,,,,,,z,1,0.5802,,,,,,,,-0.024074061,-0.417592606,0,0,0,,0,25,25,126,1,GUELS,C,old,z,./images/GUELS.png,,,,,,,,,,,,,,,,,,,,,,,
,,,,,,,,,,,,,,,,,199309,18,2022-02-01_14h14.58.374,lexical_decision_task_DD,2021.2.3,Win32,61.15459883,,,,,,,,,,,0.5249,0,,,,,,,,,,,,,,m,0,0.5249,,,,,,,,-0.024074061,-0.417592606,0,0,0,,0,26,26,119,1,PAFER,LB,old,z,./images/PAFERLB.png,,,,,,,,,,,,,,,,,,,,,,,
,,,,,,,,,,,,,,,,,199309,18,2022-02-01_14h14.58.374,lexical_decision_task_DD,2021.2.3,Win32,61.15459883,,,,,,,,,,,1.2255,1,,,,,,,,,,,,,,z,1,1.2255,,,,,,,,-0.024074061,-0.417592606,0,0,0,,0,27,27,130,1,CRILL,HB,old,z,./images/CRILLHB.png,,,,,,,,,,,,,,,,,,,,,,,
,,,,,,,,,,,,,,,,,199309,18,2022-02-01_14h14.58.374,lexical_decision_task_DD,2021.2.3,Win32,61.15459883,,,,,,,,,,,0.6233,1,,,,,,,,,,,,,,m,1,0.6233,,,,,,,,-0.024074061,-0.417592606,0,0,0,,0,28,28,36,1,THROAT,C,old,m,./images/THROAT.png,,,,,,,,,,,,,,,,,,,,,,,
,,,,,,,,,,,,,,,,,199309,18,2022-02-01_14h14.58.374,lexical_decision_task_DD,2021.2.3,Win32,61.15459883,,,,,,,,,,,1.162,1,,,,,,,,,,,,,,z,1,1.162,,,,,,,,-0.024074061,-0.417592606,0,0,0,,0,29,29,139,1,BLEAR,HB,old,z,./images/BLEARHB.png,,,,,,,,,,,,,,,,,,,,,,,
,,,,,,,,,,,,,,,,,199309,18,2022-02-01_14h14.58.374,lexical_decision_task_DD,2021.2.3,Win32,61.15459883,,,,,,,,,,,0.8181,1,,,,,,,,,,,,,,m,1,0.8181,,,,,,,,-0.024074061,-0.417592606,0,0,0,,0,30,30,60,1,TWINS,C,old,m,./images/TWINS.png,,,,,,,,,,,,,,,,,,,,,,,
,,,,,,,,,,,,,,,,,199309,18,2022-02-01_14h14.58.374,lexical_decision_task_DD,2021.2.3,Win32,61.15459883,,,,,,,,,,,0.8676,1,,,,,,,,,,,,,,z,1,0.8676,,,,,,,,-0.024074061,-0.417592606,0,0,0,,0,31,31,94,1,BLANS,HB,old,z,./images/BLANSHB.png,,,,,,,,,,,,,,,,,,,,,,,
,,,,,,,,,,,,,,,,,199309,18,2022-02-01_14h14.58.374,lexical_decision_task_DD,2021.2.3,Win32,61.15459883,,,,,,,,,,,0.6637,1,,,,,,,,,,,,,,z,1,0.6637,,,,,,,,-0.024074061,-0.417592606,0,0,0,,0,32,32,156,1,HIXES,C,old,z,./images/HIXES.png,,,,,,,,,,,,,,,,,,,,,,,
,,,,,,,,,,,,,,,,,199309,18,2022-02-01_14h14.58.374,lexical_decision_task_DD,2021.2.3,Win32,61.15459883,,,,,,,,,,,0.9859,1,,,,,,,,,,,,,,z,1,0.9859,,,,,,,,-0.024074061,-0.417592606,0,0,0,,0,33,33,120,1,RINED,C,old,z,./images/RINED.png,,,,,,,,,,,,,,,,,,,,,,,
,,,,,,,,,,,,,,,,,199309,18,2022-02-01_14h14.58.374,lexical_decision_task_DD,2021.2.3,Win32,61.15459883,,,,,,,,,,,0.8426,1,,,,,,,,,,,,,,m,1,0.8426,,,,,,,,-0.024074061,-0.417592606,0,0,0,,0,34,34,80,1,WEASEL,LB,old,m,./images/WEASELLB.png,,,,,,,,,,,,,,,,,,,,,,,
,,,,,,,,,,,,,,,,,199309,18,2022-02-01_14h14.58.374,lexical_decision_task_DD,2021.2.3,Win32,61.15459883,,,,,,,,,,,0.6087,0,,,,,,,,,,,,,,z,0,0.6087,,,,,,,,-0.024074061,-0.417592606,0,0,0,,0,35,35,4,1,MUSCLE,HB,old,m,./images/MUSCLEHB.png,,,,,,,,,,,,,,,,,,,,,,,
,,,,,,,,,,,,,,,,,199309,18,2022-02-01_14h14.58.374,lexical_decision_task_DD,2021.2.3,Win32,61.15459883,,,,,,,,,,,0.6136,1,,,,,,,,,,,,,,m,1,0.6136,,,,,,,,-0.024074061,-0.417592606,0,0,0,,0,36,36,9,1,RHINO,C,old,m,./images/RHINO.png,,,,,,,,,,,,,,,,,,,,,,,
,,,,,,,,,,,,,,,,,199309,18,2022-02-01_14h14.58.374,lexical_decision_task_DD,2021.2.3,Win32,61.15459883,,,,,,,,,,,0.4835,1,,,,,,,,,,,,,,m,1,0.4835,,,,,,,,-0.024074061,-0.417592606,0,0,0,,0,37,37,62,1,PURSE,LB,old,m,./images/PURSELB.png,,,,,,,,,,,,,,,,,,,,,,,
,,,,,,,,,,,,,,,,,199309,18,2022-02-01_14h14.58.374,lexical_decision_task_DD,2021.2.3,Win32,61.15459883,,,,,,,,,,,0.7898,1,,,,,,,,,,,,,,z,1,0.7898,,,,,,,,-0.024074061,-0.417592606,0,0,0,,0,38,38,87,1,TRING,C,old,z,./images/TRING.png,,,,,,,,,,,,,,,,,,,,,,,
,,,,,,,,,,,,,,,,,199309,18,2022-02-01_14h14.58.374,lexical_decision_task_DD,2021.2.3,Win32,61.15459883,,,,,,,,,,,0.6625,1,,,,,,,,,,,,,,m,1,0.6625,,,,,,,,-0.024074061,-0.417592606,0,0,0,,0,39,39,77,1,COUCH,LB,old,m,./images/COUCHLB.png,,,,,,,,,,,,,,,,,,,,,,,
,,,,,,,,,,,,,,,,,199309,18,2022-02-01_14h14.58.374,lexical_decision_task_DD,2021.2.3,Win32,61.15459883,,,,,,,,,,,1.0299,1,,,,,,,,,,,,,,z,1,1.0299,,,,,,,,-0.024074061,-0.417592606,0,0,0,,0,40,40,123,1,SEDGE,C,old,z,./images/SEDGE.png,,,,,,,,,,,,,,,,,,,,,,,
,,,,,,,,,,,,,,,,,199309,18,2022-02-01_14h14.58.374,lexical_decision_task_DD,2021.2.3,Win32,61.15459883,,,,,,,,,,,1.0337,1,,,,,,,,,,,,,,z,1,1.0337,,,,,,,,-0.024074061,-0.417592606,0,0,0,space,0,41,41,160,1,VEETS,HB,old,z,./images/VEETSHB.png,3.1577,,,,,,,,,,,,,,,,,,,,,,
,,,,,,,,,,,,,,,,,199309,18,2022-02-01_14h14.58.374,lexical_decision_task_DD,2021.2.3,Win32,61.15459883,,,,,,,,,,,0.7087,1,,,,,,,,,,,,,,z,1,0.7087,,,,,,,,-0.024074061,-0.417592606,0,0,0,,0,42,42,116,1,BALGY,LB,old,z,./images/BALGYLB.png,,,,,,,,,,,,,,,,,,,,,,,
,,,,,,,,,,,,,,,,,199309,18,2022-02-01_14h14.58.374,lexical_decision_task_DD,2021.2.3,Win32,61.15459883,,,,,,,,,,,0.6758,1,,,,,,,,,,,,,,z,1,0.6758,,,,,,,,-0.024074061,-0.417592606,0,0,0,,0,43,43,141,1,PLEET,C,old,z,./images/PLEET.png,,,,,,,,,,,,,,,,,,,,,,,
,,,,,,,,,,,,,,,,,199309,18,2022-02-01_14h14.58.374,lexical_decision_task_DD,2021.2.3,Win32,61.15459883,,,,,,,,,,,0.731,1,,,,,,,,,,,,,,m,1,0.731,,,,,,,,-0.024074061,-0.417592606,0,0,0,,0,44,44,39,1,SHELF,C,old,m,./images/SHELF.png,,,,,,,,,,,,,,,,,,,,,,,
,,,,,,,,,,,,,,,,,199309,18,2022-02-01_14h14.58.374,lexical_decision_task_DD,2021.2.3,Win32,61.15459883,,,,,,,,,,,2.3326,1,,,,,,,,,,,,,,m,1,2.3326,,,,,,,,-0.024074061,-0.417592606,0,0,0,,0,45,45,16,1,PENCE,HB,old,m,./images/PENCEHB.png,,,,,,,,,,,,,,,,,,,,,,,
,,,,,,,,,,,,,,,,,199309,18,2022-02-01_14h14.58.374,lexical_decision_task_DD,2021.2.3,Win32,61.15459883,,,,,,,,,,,1.2428,1,,,,,,,,,,,,,,z,1,1.2428,,,,,,,,-0.024074061,-0.417592606,0,0,0,,0,46,46,105,1,MOKER,C,old,z,./images/MOKER.png,,,,,,,,,,,,,,,,,,,,,,,
,,,,,,,,,,,,,,,,,199309,18,2022-02-01_14h14.58.374,lexical_decision_task_DD,2021.2.3,Win32,61.15459883,,,,,,,,,,,0.7885,1,,,,,,,,,,,,,,z,1,0.7885,,,,,,,,-0.024074061,-0.417592606,0,0,0,,0,47,47,122,1,BLOOT,LB,old,z,./images/BLOOTLB.png,,,,,,,,,,,,,,,,,,,,,,,
,,,,,,,,,,,,,,,,,199309,18,2022-02-01_14h14.58.374,lexical_decision_task_DD,2021.2.3,Win32,61.15459883,,,,,,,,,,,1.5471,1,,,,,,,,,,,,,,m,1,1.5471,,,,,,,,-0.024074061,-0.417592606,0,0,0,,0,48,48,38,1,LADDER,LB,old,m,./images/LADDERLB.png,,,,,,,,,,,,,,,,,,,,,,,
,,,,,,,,,,,,,,,,,199309,18,2022-02-01_14h14.58.374,lexical_decision_task_DD,2021.2.3,Win32,61.15459883,,,,,,,,,,,0.9986,1,,,,,,,,,,,,,,m,1,0.9986,,,,,,,,-0.024074061,-0.417592606,0,0,0,,0,49,49,64,1,JELLY,HB,old,m,./images/JELLYHB.png,,,,,,,,,,,,,,,,,,,,,,,
,,,,,,,,,,,,,,,,,199309,18,2022-02-01_14h14.58.374,lexical_decision_task_DD,2021.2.3,Win32,61.15459883,,,,,,,,,,,0.7798,0,,,,,,,,,,,,,,z,0,0.7798,-0.024074061,-0.41666668,1,0,0,0.4666,,-0.024074061,-0.41666668,0,0,0,,0,50,50,46,1,PEARL,HB,old,m,./images/PEARLHB.png,,,,,,,,,,,,,,,,,,,,,,,
,,,,,,,,,,,,,,,,,199309,18,2022-02-01_14h14.58.374,lexical_decision_task_DD,2021.2.3,Win32,61.15459883,,,,,,,,,,,1.0842,0,,,,,,,,,,,,,,z,0,1.0842,,,,,,,,-0.024074061,-0.41666668,0,0,0,,0,51,51,68,1,TORCH,LB,old,m,./images/TORCHLB.png,,,,,,,,,,,,,,,,,,,,,,,
,,,,,,,,,,,,,,,,,199309,18,2022-02-01_14h14.58.374,lexical_decision_task_DD,2021.2.3,Win32,61.15459883,,,,,,,,,,,0.9258,1,,,,,,,,,,,,,,z,1,0.9258,,,,,,,,-0.024074061,-0.41666668,0,0,0,,0,52,52,98,1,BAMPS,LB,old,z,./images/BAMPSLB.png,,,,,,,,,,,,,,,,,,,,,,,
,,,,,,,,,,,,,,,,,199309,18,2022-02-01_14h14.58.374,lexical_decision_task_DD,2021.2.3,Win32,61.15459883,,,,,,,,,,,1.096,1,,,,,,,,,,,,,,z,1,1.096,,,,,,,,-0.024074061,-0.41666668,0,0,0,,0,53,53,101,1,GLEET,LB,old,z,./images/GLEETLB.png,,,,,,,,,,,,,,,,,,,,,,,
,,,,,,,,,,,,,,,,,199309,18,2022-02-01_14h14.58.374,lexical_decision_task_DD,2021.2.3,Win32,61.15459883,,,,,,,,,,,1.8329,1,,,,,,,,,,,,,,z,1,1.8329,,,,,,,,-0.024074061,-0.41666668,0,0,0,,0,54,54,165,1,TROWN,C,old,z,./images/TROWN.png,,,,,,,,,,,,,,,,,,,,,,,
,,,,,,,,,,,,,,,,,199309,18,2022-02-01_14h14.58.374,lexical_decision_task_DD,2021.2.3,Win32,61.15459883,,,,,,,,,,,1.1758,1,,,,,,,,,,,,,,m,1,1.1758,,,,,,,,-0.024074061,-0.41666668,0,0,0,,0,55,55,13,1,MOTOR,HB,old,m,./images/MOTORHB.png,,,,,,,,,,,,,,,,,,,,,,,
,,,,,,,,,,,,,,,,,199309,18,2022-02-01_14h14.58.374,lexical_decision_task_DD,2021.2.3,Win32,61.15459883,,,,,,,,,,,1.0808,1,,,,,,,,,,,,,,m,1,1.0808,-0.024074061,-0.41666668,1,0,0,0.6325,,-0.024074061,-0.41666668,0,0,0,,0,56,56,61,1,CANDLE,HB,old,m,./images/CANDLEHB.png,,,,,,,,,,,,,,,,,,,,,,,
,,,,,,,,,,,,,,,,,199309,18,2022-02-01_14h14.58.374,lexical_decision_task_DD,2021.2.3,Win32,61.15459883,,,,,,,,,,,2.8597,1,,,,,,,,,,,,,,m,1,2.8597,,,,,,,,-0.024074061,-0.41666668,0,0,0,,0,57,57,42,1,FOLDER,C,old,m,./images/FOLDER.png,,,,,,,,,,,,,,,,,,,,,,,
,,,,,,,,,,,,,,,,,199309,18,2022-02-01_14h14.58.374,lexical_decision_task_DD,2021.2.3,Win32,61.15459883,,,,,,,,,,,0.8768,1,,,,,,,,,,,,,,z,1,0.8768,,,,,,,,-0.024074061,-0.41666668,0,0,0,,0,58,58,135,1,JOODY,C,old,z,./images/JOODY.png,,,,,,,,,,,,,,,,,,,,,,,
,,,,,,,,,,,,,,,,,199309,18,2022-02-01_14h14.58.374,lexical_decision_task_DD,2021.2.3,Win32,61.15459883,,,,,,,,,,,0.6873,1,,,,,,,,,,,,,,m,1,0.6873,,,,,,,,-0.024074061,-0.41666668,0,0,0,,0,59,59,40,1,SWING,HB,old,m,./images/SWINGHB.png,,,,,,,,,,,,,,,,,,,,,,,
,,,,,,,,,,,,,,,,,199309,18,2022-02-01_14h14.58.374,lexical_decision_task_DD,2021.2.3,Win32,61.15459883,,,,,,,,,,,1.0784,1,,,,,,,,,,,,,,z,1,1.0784,,,,,,,,-0.024074061,-0.41666668,0,0,0,,0,60,60,114,1,RIKES,C,old,z,./images/RIKES.png,,,,,,,,,,,,,,,,,,,,,,,
,,,,,,,,,,,,,,,,,199309,18,2022-02-01_14h14.58.374,lexical_decision_task_DD,2021.2.3,Win32,61.15459883,,,,,,,,,,,3.7258,1,,,,,,,,,,,,,,m,1,3.7258,,,,,,,,-0.024074061,-0.41666668,0,0,0,,0,61,61,44,1,LIZARD,LB,old,m,./images/LIZARDLB.png,,,,,,,,,,,,,,,,,,,,,,,
,,,,,,,,,,,,,,,,,199309,18,2022-02-01_14h14.58.374,lexical_decision_task_DD,2021.2.3,Win32,61.15459883,,,,,,,,,,,0.9765,1,,,,,,,,,,,,,,m,1,0.9765,,,,,,,,-0.024074061,-0.41666668,0,0,0,,0,62,62,79,1,CRUST,HB,old,m,./images/CRUSTHB.png,,,,,,,,,,,,,,,,,,,,,,,
,,,,,,,,,,,,,,,,,199309,18,2022-02-01_14h14.58.374,lexical_decision_task_DD,2021.2.3,Win32,61.15459883,,,,,,,,,,,1.7003,1,,,,,,,,,,,,,,z,1,1.7003,,,,,,,,-0.024074061,-0.41666668,0,0,0,,0,63,63,166,1,SHORY,HB,old,z,./images/SHORYHB.png,,,,,,,,,,,,,,,,,,,,,,,
,,,,,,,,,,,,,,,,,199309,18,2022-02-01_14h14.58.374,lexical_decision_task_DD,2021.2.3,Win32,61.15459883,,,,,,,,,,,0.6945,1,,,,,,,,,,,,,,m,1,0.6945,,,,,,,,-0.024074061,-0.41666668,0,0,0,,0,64,64,5,1,PASTA,LB,old,m,./images/PASTALB.png,,,,,,,,,,,,,,,,,,,,,,,
,,,,,,,,,,,,,,,,,199309,18,2022-02-01_14h14.58.374,lexical_decision_task_DD,2021.2.3,Win32,61.15459883,,,,,,,,,,,0.6576,1,,,,,,,,,,,,,,m,1,0.6576,,,,,,,,-0.024074061,-0.41666668,0,0,0,,0,65,65,66,1,SWEAT,C,old,m,./images/SWEAT.png,,,,,,,,,,,,,,,,,,,,,,,
,,,,,,,,,,,,,,,,,199309,18,2022-02-01_14h14.58.374,lexical_decision_task_DD,2021.2.3,Win32,61.15459883,,,,,,,,,,,0.6865,1,,,,,,,,,,,,,,m,1,0.6865,,,,,,,,-0.024074061,-0.41666668,0,0,0,,0,66,66,47,1,BERRY,LB,old,m,./images/BERRYLB.png,,,,,,,,,,,,,,,,,,,,,,,
,,,,,,,,,,,,,,,,,199309,18,2022-02-01_14h14.58.374,lexical_decision_task_DD,2021.2.3,Win32,61.15459883,,,,,,,,,,,0.9999,1,,,,,,,,,,,,,,z,1,0.9999,,,,,,,,-0.024074061,-0.41666668,0,0,0,,0,67,67,125,1,MOOKY,LB,old,z,./images/MOOKYLB.png,,,,,,,,,,,,,,,,,,,,,,,
,,,,,,,,,,,,,,,,,199309,18,2022-02-01_14h14.58.374,lexical_decision_task_DD,2021.2.3,Win32,61.15459883,,,,,,,,,,,1.2418,1,,,,,,,,,,,,,,z,1,1.2418,,,,,,,,-0.024074061,-0.41666668,0,0,0,,0,68,68,92,1,PAIMS,LB,old,z,./images/PAIMSLB.png,,,,,,,,,,,,,,,,,,,,,,,
,,,,,,,,,,,,,,,,,199309,18,2022-02-01_14h14.58.374,lexical_decision_task_DD,2021.2.3,Win32,61.15459883,,,,,,,,,,,0.5786,1,,,,,,,,,,,,,,m,1,0.5786,,,,,,,,-0.024074061,-0.41666668,0,0,0,,0,69,69,6,1,SQUARE,C,old,m,./images/SQUARE.png,,,,,,,,,,,,,,,,,,,,,,,
,,,,,,,,,,,,,,,,,199309,18,2022-02-01_14h14.58.374,lexical_decision_task_DD,2021.2.3,Win32,61.15459883,,,,,,,,,,,0.5979,1,,,,,,,,,,,,,,m,1,0.5979,,,,,,,,-0.024074061,-0.41666668,0,0,0,,0,70,70,56,1,PACKET,LB,old,m,./images/PACKETLB.png,,,,,,,,,,,,,,,,,,,,,,,
,,,,,,,,,,,,,,,,,199309,18,2022-02-01_14h14.58.374,lexical_decision_task_DD,2021.2.3,Win32,61.15459883,,,,,,,,,,,1.2242,1,,,,,,,,,,,,,,z,1,1.2242,,,,,,,,-0.024074061,-0.41666668,0,0,0,,0,71,71,102,1,DULLE,C,old,z,./images/DULLE.png,,,,,,,,,,,,,,,,,,,,,,,
,,,,,,,,,,,,,,,,,199309,18,2022-02-01_14h14.58.374,lexical_decision_task_DD,2021.2.3,Win32,61.15459883,,,,,,,,,,,2.0823,1,,,,,,,,,,,,,,m,1,2.0823,,,,,,,,-0.024074061,-0.41666668,0,0,0,,0,72,72,58,1,BABOON,HB,old,m,./images/BABOONHB.png,,,,,,,,,,,,,,,,,,,,,,,
,,,,,,,,,,,,,,,,,199309,18,2022-02-01_14h14.58.374,lexical_decision_task_DD,2021.2.3,Win32,61.15459883,,,,,,,,,,,3.3252,1,,,,,,,,,,,,,,z,1,3.3252,,,,,,,,-0.019444431,-0.410185199,0,0,0,,0,73,73,106,1,CLUMS,HB,old,z,./images/CLUMSHB.png,,,,,,,,,,,,,,,,,,,,,,,
,,,,,,,,,,,,,,,,,199309,18,2022-02-01_14h14.58.374,lexical_decision_task_DD,2021.2.3,Win32,61.15459883,,,,,,,,,,,1.1107,1,,,,,,,,,,,,,,z,1,1.1107,,,,,,,,-0.020370357,-0.410185199,0,0,0,,0,74,74,117,1,STEEG,C,old,z,./images/STEEG.png,,,,,,,,,,,,,,,,,,,,,,,
,,,,,,,,,,,,,,,,,199309,18,2022-02-01_14h14.58.374,lexical_decision_task_DD,2021.2.3,Win32,61.15459883,,,,,,,,,,,1.3085,1,,,,,,,,,,,,,,m,1,1.3085,,,,,,,,-0.020370357,-0.410185199,0,0,0,,0,75,75,54,1,TRIPOD,C,old,m,./images/TRIPOD.png,,,,,,,,,,,,,,,,,,,,,,,
,,,,,,,,,,,,,,,,,199309,18,2022-02-01_14h14.58.374,lexical_decision_task_DD,2021.2.3,Win32,61.15459883,,,,,,,,,,,1.0655,1,,,,,,,,,,,,,,z,1,1.0655,,,,,,,,-0.020370357,-0.410185199,0,0,0,,0,76,76,100,1,DRIBS,HB,old,z,./images/DRIBSHB.png,,,,,,,,,,,,,,,,,,,,,,,
,,,,,,,,,,,,,,,,,199309,18,2022-02-01_14h14.58.374,lexical_decision_task_DD,2021.2.3,Win32,61.15459883,,,,,,,,,,,0.7651,1,,,,,,,,,,,,,,z,1,0.7651,,,,,,,,-0.020370357,-0.410185199,0,0,0,,0,77,77,96,1,KEAMS,C,old,z,./images/KEAMS.png,,,,,,,,,,,,,,,,,,,,,,,
,,,,,,,,,,,,,,,,,199309,18,2022-02-01_14h14.58.374,lexical_decision_task_DD,2021.2.3,Win32,61.15459883,,,,,,,,,,,1.2549,1,,,,,,,,,,,,,,z,1,1.2549,,,,,,,,-0.020370357,-0.410185199,0,0,0,,0,78,78,86,1,AIFED,LB,old,z,./images/AIFEDLB.png,,,,,,,,,,,,,,,,,,,,,,,
,,,,,,,,,,,,,,,,,199309,18,2022-02-01_14h14.58.374,lexical_decision_task_DD,2021.2.3,Win32,61.15459883,,,,,,,,,,,0.7637,1,,,,,,,,,,,,,,z,1,0.7637,,,,,,,,-0.020370357,-0.410185199,0,0,0,,0,79,79,153,1,CLUPS,C,old,z,./images/CLUPS.png,,,,,,,,,,,,,,,,,,,,,,,
,,,,,,,,,,,,,,,,,199309,18,2022-02-01_14h14.58.374,lexical_decision_task_DD,2021.2.3,Win32,61.15459883,,,,,,,,,,,0.6348,1,,,,,,,,,,,,,,m,1,0.6348,,,,,,,,-0.020370357,-0.410185199,0,0,0,,0,80,80,73,1,SNACK,HB,old,m,./images/SNACKHB.png,,,,,,,,,,,,,,,,,,,,,,,
,,,,,,,,,,,,,,,,,199309,18,2022-02-01_14h14.58.374,lexical_decision_task_DD,2021.2.3,Win32,61.15459883,,,,,,,,,,,0.8228,0,,,,,,,,,,,,,,m,0,0.8228,,,,,,,,-0.020370357,-0.410185199,0,0,0,,0,81,81,85,1,CHULK,HB,old,z,./images/CHULKHB.png,,,,,,,,,,,,,,,,,,,,,,,
,,,,,,,,,,,,,,,,,199309,18,2022-02-01_14h14.58.374,lexical_decision_task_DD,2021.2.3,Win32,61.15459883,,,,,,,,,,,0.5611,1,,,,,,,,,,,,,,m,1,0.5611,,,,,,,,-0.020370357,-0.410185199,0,0,0,,0,82,82,74,1,CEMENT,LB,old,m,./images/CEMENTLB.png,,,,,,,,,,,,,,,,,,,,,,,
,,,,,,,,,,,,,,,,,199309,18,2022-02-01_14h14.58.374,lexical_decision_task_DD,2021.2.3,Win32,61.15459883,,,,,,,,,,,0.8491,1,,,,,,,,,,,,,,m,1,0.8491,,,,,,,,-0.020370357,-0.410185199,1,0,0,,0,83,83,8,1,TULIP,LB,old,m,./images/TULIPLB.png,,break_done_button,,,,,,,,,,,,,,,,,,,,,
,,,,,,,,,,,,,,,,,199309,18,2022-02-01_14h14.58.374,lexical_decision_task_DD,2021.2.3,Win32,61.15459883,,,,,,,,,,,1.1473,1,,,,,,,,,,,,,,m,1,1.1473,,,,,,,,-0.020370357,-0.410185199,0,0,0,,0,84,84,75,1,GRAIN,C,old,m,./images/GRAIN.png,,,,,,,,,,,,,,,,,,,,,,,
,,,,,,,,,,,,,,,,,199309,18,2022-02-01_14h14.58.374,lexical_decision_task_DD,2021.2.3,Win32,61.15459883,,,,,,,,,,,0.6299,1,,,,,,,,,,,,,,m,1,0.6299,,,,,,,,-0.020370357,-0.410185199,0,0,0,,0,85,85,15,1,GREASE,C,old,m,./images/GREASE.png,,,,,,,,,,,,,,,,,,,,,,,
,,,,,,,,,,,,,,,,,199309,18,2022-02-01_14h14.58.374,lexical_decision_task_DD,2021.2.3,Win32,61.15459883,,,,,,,,,,,0.6771,1,,,,,,,,,,,,,,m,1,0.6771,,,,,,,,-0.020370357,-0.410185199,0,0,0,,0,86,86,10,1,BELLY,HB,old,m,./images/BELLYHB.png,,,,,,,,,,,,,,,,,,,,,,,
,,,,,,,,,,,,,,,,,199309,18,2022-02-01_14h14.58.374,lexical_decision_task_DD,2021.2.3,Win32,61.15459883,,,,,,,,,,,2.2805,1,,,,,,,,,,,,,,z,1,2.2805,,,,,,,,-0.020370357,-0.410185199,0,0,0,,0,87,87,145,1,LAMEL,HB,old,z,./images/LAMELHB.png,,,,,,,,,,,,,,,,,,,,,,,
,,,,,,,,,,,,,,,,,199309,18,2022-02-01_14h14.58.374,lexical_decision_task_DD,2021.2.3,Win32,61.15459883,,,,,,,,,,,3.4183,0,,,,,,,,,,,,,,m,0,3.4183,,,,,,,,-0.020370357,-0.410185199,0,0,0,,0,88,88,162,1,LEICH,C,old,z,./images/LEICH.png,,,,,,,,,,,,,,,,,,,,,,,
,,,,,,,,,,,,,,,,,199309,18,2022-02-01_14h14.58.374,lexical_decision_task_DD,2021.2.3,Win32,61.15459883,,,,,,,,,,,1.2894,1,,,,,,,,,,,,,,z,1,1.2894,,,,,,,,-0.020370357,-0.410185199,0,0,0,,0,89,89,89,1,DRIEK,LB,old,z,./images/DRIEKLB.png,,,,,,,,,,,,,,,,,,,,,,,
,,,,,,,,,,,,,,,,,199309,18,2022-02-01_14h14.58.374,lexical_decision_task_DD,2021.2.3,Win32,61.15459883,,,,,,,,,,,1.9313,1,,,,,,,,,,,,,,m,1,1.9313,,,,,,,,-0.020370357,-0.410185199,0,0,0,,0,90,90,55,1,MUFFIN,HB,old,m,./images/MUFFINHB.png,,,,,,,,,,,,,,,,,,,,,,,
,,,,,,,,,,,,,,,,,199309,18,2022-02-01_14h14.58.374,lexical_decision_task_DD,2021.2.3,Win32,61.15459883,,,,,,,,,,,0.8349,1,,,,,,,,,,,,,,m,1,0.8349,,,,,,,,-0.020370357,-0.410185199,0,0,0,,0,91,91,35,1,PEACH,LB,old,m,./images/PEACHLB.png,,,,,,,,,,,,,,,,,,,,,,,
,,,,,,,,,,,,,,,,,199309,18,2022-02-01_14h14.58.374,lexical_decision_task_DD,2021.2.3,Win32,61.15459883,,,,,,,,,,,1.8304,1,,,,,,,,,,,,,,z,1,1.8304,,,,,,,,-0.013888876,-0.410185199,0,0,0,,0,92,92,154,1,THINT,HB,old,z,./images/THINTHB.png,,,,,,,,,,,,,,,,,,,,,,,
,,,,,,,,,,,,,,,,,199309,18,2022-02-01_14h14.58.374,lexical_decision_task_DD,2021.2.3,Win32,61.15459883,,,,,,,,,,,1.8135,1,,,,,,,,,,,,,,z,1,1.8135,,,,,,,,-0.013888876,-0.410185199,0,0,0,,0,93,93,158,1,EGECT,LB,old,z,./images/EGECTLB.png,,,,,,,,,,,,,,,,,,,,,,,
,,,,,,,,,,,,,,,,,199309,18,2022-02-01_14h14.58.374,lexical_decision_task_DD,2021.2.3,Win32,61.15459883,,,,,,,,,,,2.6435,1,,,,,,,,,,,,,,z,1,2.6435,,,,,,,,-0.013888876,-0.410185199,0,0,0,,0,94,94,133,1,POWDY,HB,old,z,./images/POWDYHB.png,,,,,,,,,,,,,,,,,,,,,,,
,,,,,,,,,,,,,,,,,199309,18,2022-02-01_14h14.58.374,lexical_decision_task_DD,2021.2.3,Win32,61.15459883,,,,,,,,,,,0.92,1,,,,,,,,,,,,,,z,1,0.92,,,,,,,,-0.013888876,-0.410185199,0,0,0,,0,95,95,91,1,SHENS,HB,old,z,./images/SHENSHB.png,,,,,,,,,,,,,,,,,,,,,,,
,,,,,,,,,,,,,,,,,199309,18,2022-02-01_14h14.58.374,lexical_decision_task_DD,2021.2.3,Win32,61.15459883,,,,,,,,,,,1.4818,1,,,,,,,,,,,,,,z,1,1.4818,,,,,,,,-0.013888876,-0.410185199,0,0,0,,0,96,96,136,1,WERVE,HB,old,z,./images/WERVEHB.png,,,,,,,,,,,,,,,,,,,,,,,
,,,,,,,,,,,,,,,,,199309,18,2022-02-01_14h14.58.374,lexical_decision_task_DD,2021.2.3,Win32,61.15459883,,,,,,,,,,,0.6259,0,,,,,,,,,,,,,,z,0,0.6259,,,,,,,,-0.013888876,-0.410185199,0,0,0,,0,97,97,25,1,WRIST,HB,old,m,./images/WRISTHB.png,,,,,,,,,,,,,,,,,,,,,,,
,,,,,,,,,,,,,,,,,199309,18,2022-02-01_14h14.58.374,lexical_decision_task_DD,2021.2.3,Win32,61.15459883,,,,,,,,,,,0.6961,1,,,,,,,,,,,,,,m,1,0.6961,,,,,,,,-0.013888876,-0.410185199,0,0,0,,0,98,98,63,1,MIRROR,C,old,m,./images/MIRROR.png,,,,,,,,,,,,,,,,,,,,,,,
,,,,,,,,,,,,,,,,,199309,18,2022-02-01_14h14.58.374,lexical_decision_task_DD,2021.2.3,Win32,61.15459883,,,,,,,,,,,0.549,1,,,,,,,,,,,,,,m,1,0.549,,,,,,,,-0.013888876,-0.410185199,0,0,0,,0,99,99,3,1,FINGER,C,old,m,./images/FINGER.png,,,,,,,,,,,,,,,,,,,,,,,
,,,,,,,,,,,,,,,,,199309,18,2022-02-01_14h14.58.374,lexical_decision_task_DD,2021.2.3,Win32,61.15459883,,,,,,,,,,,0.6941,1,,,,,,,,,,,,,,m,1,0.6941,,,,,,,,-0.013888876,-0.410185199,0,0,0,,0,100,100,21,1,KIDNEY,C,old,m,./images/KIDNEY.png,,,,,,,,,,,,,,,,,,,,,,,
,,,,,,,,,,,,,,,,,199309,18,2022-02-01_14h14.58.374,lexical_decision_task_DD,2021.2.3,Win32,61.15459883,,,,,,,,,,,0.556,1,,,,,,,,,,,,,,m,1,0.556,,,,,,,,-0.013888876,-0.410185199,0,0,0,,0,101,101,27,1,ATTIC,C,old,m,./images/ATTIC.png,,,,,,,,,,,,,,,,,,,,,,,
,,,,,,,,,,,,,,,,,199309,18,2022-02-01_14h14.58.374,lexical_decision_task_DD,2021.2.3,Win32,61.15459883,,,,,,,,,,,1.0422,1,,,,,,,,,,,,,,z,1,1.0422,,,,,,,,-0.015740728,-0.410185199,0,0,0,,0,102,102,163,1,GAMBA,HB,old,z,./images/GAMBAHB.png,,,,,,,,,,,,,,,,,,,,,,,
,,,,,,,,,,,,,,,,,199309,18,2022-02-01_14h14.58.374,lexical_decision_task_DD,2021.2.3,Win32,61.15459883,,,,,,,,,,,0.5942,1,,,,,,,,,,,,,,m,1,0.5942,,,,,,,,-0.015740728,-0.410185199,0,0,0,,0,103,103,72,1,NOOSE,C,old,m,./images/NOOSE.png,,,,,,,,,,,,,,,,,,,,,,,
,,,,,,,,,,,,,,,,,199309,18,2022-02-01_14h14.58.374,lexical_decision_task_DD,2021.2.3,Win32,61.15459883,,,,,,,,,,,0.7185,1,,,,,,,,,,,,,,m,1,0.7185,,,,,,,,-0.010185172,-0.40000007,0,0,0,,0,104,104,12,1,SHORE,C,old,m,./images/SHORE.png,,,,,,,,,,,,,,,,,,,,,,,
,,,,,,,,,,,,,,,,,199309,18,2022-02-01_14h14.58.374,lexical_decision_task_DD,2021.2.3,Win32,61.15459883,,,,,,,,,,,0.63,1,,,,,,,,,,,,,,m,1,0.63,,,,,,,,-0.006481468,-0.399074087,0,0,0,,0,105,105,20,1,CRADLE,LB,old,m,./images/CRADLELB.png,,,,,,,,,,,,,,,,,,,,,,,
,,,,,,,,,,,,,,,,,199309,18,2022-02-01_14h14.58.374,lexical_decision_task_DD,2021.2.3,Win32,61.15459883,,,,,,,,,,,0.4259,1,,,,,,,,,,,,,,m,1,0.4259,,,,,,,,-0.006481468,-0.399074087,0,0,0,,0,106,106,71,1,PIMPLE,LB,old,m,./images/PIMPLELB.png,,,,,,,,,,,,,,,,,,,,,,,
,,,,,,,,,,,,,,,,,199309,18,2022-02-01_14h14.58.374,lexical_decision_task_DD,2021.2.3,Win32,61.15459883,,,,,,,,,,,0.708,1,,,,,,,,,,,,,,z,1,0.708,,,,,,,,-0.006481468,-0.399074087,0,0,0,,0,107,107,112,1,MYING,HB,old,z,./images/MYINGHB.png,,,,,,,,,,,,,,,,,,,,,,,
,,,,,,,,,,,,,,,,,199309,18,2022-02-01_14h14.58.374,lexical_decision_task_DD,2021.2.3,Win32,61.15459883,,,,,,,,,,,0.41,1,,,,,,,,,,,,,,m,1,0.41,,,,,,,,-0.006481468,-0.399074087,0,0,0,,0,108,108,45,1,KITTEN,C,old,m,./images/KITTEN.png,,,,,,,,,,,,,,,,,,,,,,,
,,,,,,,,,,,,,,,,,199309,18,2022-02-01_14h14.58.374,lexical_decision_task_DD,2021.2.3,Win32,61.15459883,,,,,,,,,,,0.3062,0,,,,,,,,,,,,,,m,0,0.3062,,,,,,,,-0.006481468,-0.399074087,0,0,0,,0,109,109,144,1,NAIRY,C,old,z,./images/NAIRY.png,,,,,,,,,,,,,,,,,,,,,,,
,,,,,,,,,,,,,,,,,199309,18,2022-02-01_14h14.58.374,lexical_decision_task_DD,2021.2.3,Win32,61.15459883,,,,,,,,,,,0.6903,1,,,,,,,,,,,,,,m,1,0.6903,,,,,,,,-0.006481468,-0.399074087,0,0,0,,0,110,110,24,1,SCREW,C,old,m,./images/SCREW.png,,,,,,,,,,,,,,,,,,,,,,,
,,,,,,,,,,,,,,,,,199309,18,2022-02-01_14h14.58.374,lexical_decision_task_DD,2021.2.3,Win32,61.15459883,,,,,,,,,,,0.9812,1,,,,,,,,,,,,,,z,1,0.9812,,,,,,,,-0.006481468,-0.399074087,0,0,0,,0,111,111,90,1,NEAST,C,old,z,./images/NEAST.png,,,,,,,,,,,,,,,,,,,,,,,
,,,,,,,,,,,,,,,,,199309,18,2022-02-01_14h14.58.374,lexical_decision_task_DD,2021.2.3,Win32,61.15459883,,,,,,,,,,,0.4728,1,,,,,,,,,,,,,,m,1,0.4728,,,,,,,,-0.006481468,-0.399074087,0,0,0,,0,112,112,18,1,JAGUAR,C,old,m,./images/JAGUAR.png,,,,,,,,,,,,,,,,,,,,,,,
,,,,,,,,,,,,,,,,,199309,18,2022-02-01_14h14.58.374,lexical_decision_task_DD,2021.2.3,Win32,61.15459883,,,,,,,,,,,1.1607,1,,,,,,,,,,,,,,z,1,1.1607,,,,,,,,-0.007407338,-0.399074087,0,0,0,,0,113,113,151,1,TINKY,HB,old,z,./images/TINKYHB.png,,,,,,,,,,,,,,,,,,,,,,,
,,,,,,,,,,,,,,,,,199309,18,2022-02-01_14h14.58.374,lexical_decision_task_DD,2021.2.3,Win32,61.15459883,,,,,,,,,,,1.0315,1,,,,,,,,,,,,,,m,1,1.0315,,,,,,,,-0.007407338,-0.399074087,0,0,0,,0,114,114,1,1,PLANK,HB,old,m,./images/PLANKHB.png,,,,,,,,,,,,,,,,,,,,,,,
,,,,,,,,,,,,,,,,,199309,18,2022-02-01_14h14.58.374,lexical_decision_task_DD,2021.2.3,Win32,61.15459883,,,,,,,,,,,0.7617,1,,,,,,,,,,,,,,z,1,0.7617,,,,,,,,-0.007407338,-0.399074087,0,0,0,,0,115,115,155,1,CANGY,LB,old,z,./images/CANGYLB.png,,,,,,,,,,,,,,,,,,,,,,,
,,,,,,,,,,,,,,,,,199309,18,2022-02-01_14h14.58.374,lexical_decision_task_DD,2021.2.3,Win32,61.15459883,,,,,,,,,,,0.5408,1,,,,,,,,,,,,,,m,1,0.5408,,,,,,,,-0.007407338,-0.399074087,0,0,0,,0,116,116,78,1,LITTER,C,old,m,./images/LITTER.png,,,,,,,,,,,,,,,,,,,,,,,
,,,,,,,,,,,,,,,,,199309,18,2022-02-01_14h14.58.374,lexical_decision_task_DD,2021.2.3,Win32,61.15459883,,,,,,,,,,,0.4706,0,,,,,,,,,,,,,,m,0,0.4706,,,,,,,,-0.007407338,-0.399074087,0,0,0,,0,117,117,161,1,BLAPS,LB,old,z,./images/BLAPSLB.png,,,,,,,,,,,,,,,,,,,,,,,
,,,,,,,,,,,,,,,,,199309,18,2022-02-01_14h14.58.374,lexical_decision_task_DD,2021.2.3,Win32,61.15459883,,,,,,,,,,,0.9544,1,,,,,,,,,,,,,,z,1,0.9544,,,,,,,,-0.007407338,-0.399074087,0,0,0,,0,118,118,88,1,GLUSH,HB,old,z,./images/GLUSHHB.png,,,,,,,,,,,,,,,,,,,,,,,
,,,,,,,,,,,,,,,,,199309,18,2022-02-01_14h14.58.374,lexical_decision_task_DD,2021.2.3,Win32,61.15459883,,,,,,,,,,,0.6292,1,,,,,,,,,,,,,,m,1,0.6292,,,,,,,,-0.007407338,-0.399074087,0,0,0,,0,119,119,26,1,SMOKER,LB,old,m,./images/SMOKERLB.png,,,,,,,,,,,,,,,,,,,,,,,
,,,,,,,,,,,,,,,,,199309,18,2022-02-01_14h14.58.374,lexical_decision_task_DD,2021.2.3,Win32,61.15459883,,,,,,,,,,,0.3922,0,,,,,,,,,,,,,,m,0,0.3922,,,,,,,,-0.007407338,-0.399074087,0,0,0,,0,120,120,111,1,HOSSE,C,old,z,./images/HOSSE.png,,,,,,,,,,,,,,,,,,,,,,,
,,,,,,,,,,,,,,,,,199309,18,2022-02-01_14h14.58.374,lexical_decision_task_DD,2021.2.3,Win32,61.15459883,,,,,,,,,,,0.8018,1,,,,,,,,,,,,,,m,1,0.8018,,,,,,,,-0.007407338,-0.399074087,0,0,0,,0,121,121,76,1,INFANT,HB,old,m,./images/INFANTHB.png,,,,,,,,,,,,,,,,,,,,,,,
,,,,,,,,,,,,,,,,,199309,18,2022-02-01_14h14.58.374,lexical_decision_task_DD,2021.2.3,Win32,61.15459883,,,,,,,,,,,0.622,1,,,,,,,,,,,,,,z,1,0.622,,,,,,,,-0.007407338,-0.399074087,0,0,0,,0,122,122,109,1,BURGE,HB,old,z,./images/BURGEHB.png,,,,,,,,,,,,,,,,,,,,,,,
,,,,,,,,,,,,,,,,,199309,18,2022-02-01_14h14.58.374,lexical_decision_task_DD,2021.2.3,Win32,61.15459883,,,,,,,,,,,0.6663,1,,,,,,,,,,,,,,m,1,0.6663,,,,,,,,-0.007407338,-0.399074087,0,0,0,,0,123,123,53,1,CARPET,LB,old,m,./images/CARPETLB.png,,,,,,,,,,,,,,,,,,,,,,,
,,,,,,,,,,,,,,,,,199309,18,2022-02-01_14h14.58.374,lexical_decision_task_DD,2021.2.3,Win32,61.15459883,,,,,,,,,,,0.8675,1,,,,,,,,,,,,,,z,1,0.8675,,,,,,,,-0.007407338,-0.399074087,0,0,0,,0,124,124,132,1,SCIFF,C,old,z,./images/SCIFF.png,,,,,,,,,,,,,,,,,,,,,,,
,,,,,,,,,,,,,,,,,199309,18,2022-02-01_14h14.58.374,lexical_decision_task_DD,2021.2.3,Win32,61.15459883,,,,,,,,,,,0.5362,0,,,,,,,,,,,,,,m,0,0.5362,,,,,,,,-0.007407338,-0.399074087,0,0,0,space,0,125,125,159,1,CUDDY,C,old,z,./images/CUDDY.png,1.3839,,,,,,,,,,,,,,,,,,,,,,
,,,,,,,,,,,,,,,,,199309,18,2022-02-01_14h14.58.374,lexical_decision_task_DD,2021.2.3,Win32,61.15459883,,,,,,,,,,,1.8304,1,,,,,,,,,,,,,,z,1,1.8304,,,,,,,,-0.007407338,-0.399074087,0,0,0,,0,126,126,124,1,TUNCH,HB,old,z,./images/TUNCHHB.png,,,,,,,,,,,,,,,,,,,,,,,
,,,,,,,,,,,,,,,,,199309,18,2022-02-01_14h14.58.374,lexical_decision_task_DD,2021.2.3,Win32,61.15459883,,,,,,,,,,,0.5928,1,,,,,,,,,,,,,,m,1,0.5928,,,,,,,,-0.007407338,-0.399074087,0,0,0,,0,127,127,59,1,BURIAL,LB,old,m,./images/BURIALLB.png,,,,,,,,,,,,,,,,,,,,,,,
,,,,,,,,,,,,,,,,,199309,18,2022-02-01_14h14.58.374,lexical_decision_task_DD,2021.2.3,Win32,61.15459883,,,,,,,,,,,0.613,1,,,,,,,,,,,,,,z,1,0.613,,,,,,,,-0.007407338,-0.399074087,0,0,0,,0,128,128,143,1,MONGS,LB,old,z,./images/MONGSLB.png,,,,,,,,,,,,,,,,,,,,,,,
,,,,,,,,,,,,,,,,,199309,18,2022-02-01_14h14.58.374,lexical_decision_task_DD,2021.2.3,Win32,61.15459883,,,,,,,,,,,0.6642,1,,,,,,,,,,,,,,z,1,0.6642,,,,,,,,-0.007407338,-0.399074087,0,0,0,,0,129,129,150,1,NOOLS,C,old,z,./images/NOOLS.png,,,,,,,,,,,,,,,,,,,,,,,
,,,,,,,,,,,,,,,,,199309,18,2022-02-01_14h14.58.374,lexical_decision_task_DD,2021.2.3,Win32,61.15459883,,,,,,,,,,,0.4584,1,,,,,,,,,,,,,,m,1,0.4584,,,,,,,,-0.007407338,-0.399074087,0,0,0,,0,130,130,32,1,BARREL,LB,old,m,./images/BARRELLB.png,,,,,,,,,,,,,,,,,,,,,,,
,,,,,,,,,,,,,,,,,199309,18,2022-02-01_14h14.58.374,lexical_decision_task_DD,2021.2.3,Win32,61.15459883,,,,,,,,,,,0.4763,1,,,,,,,,,,,,,,m,1,0.4763,,,,,,,,-0.007407338,-0.399074087,0,0,0,,0,131,131,2,1,BEARD,LB,old,m,./images/BEARDLB.png,,,,,,,,,,,,,,,,,,,,,,,
,,,,,,,,,,,,,,,,,199309,18,2022-02-01_14h14.58.374,lexical_decision_task_DD,2021.2.3,Win32,61.15459883,,,,,,,,,,,0.6922,1,,,,,,,,,,,,,,z,1,0.6922,,,,,,,,-0.007407338,-0.399074087,0,0,0,,0,132,132,99,1,BACKY,C,old,z,./images/BACKY.png,,,,,,,,,,,,,,,,,,,,,,,
,,,,,,,,,,,,,,,,,199309,18,2022-02-01_14h14.58.374,lexical_decision_task_DD,2021.2.3,Win32,61.15459883,,,,,,,,,,,0.4924,1,,,,,,,,,,,,,,m,1,0.4924,,,,,,,,-0.007407338,-0.399074087,0,0,0,,0,133,133,69,1,COOKER,C,old,m,./images/COOKER.png,,,,,,,,,,,,,,,,,,,,,,,
,,,,,,,,,,,,,,,,,199309,18,2022-02-01_14h14.58.374,lexical_decision_task_DD,2021.2.3,Win32,61.15459883,,,,,,,,,,,0.5502,1,,,,,,,,,,,,,,m,1,0.5502,,,,,,,,-0.009259246,-0.401851865,0,0,0,,0,134,134,33,1,MAGGOT,C,old,m,./images/MAGGOT.png,,,,,,,,,,,,,,,,,,,,,,,
,,,,,,,,,,,,,,,,,199309,18,2022-02-01_14h14.58.374,lexical_decision_task_DD,2021.2.3,Win32,61.15459883,,,,,,,,,,,0.6437,1,,,,,,,,,,,,,,z,1,0.6437,,,,,,,,-0.009259246,-0.401851865,0,0,0,,0,135,135,131,1,NACES,LB,old,z,./images/NACESLB.png,,,,,,,,,,,,,,,,,,,,,,,
,,,,,,,,,,,,,,,,,199309,18,2022-02-01_14h14.58.374,lexical_decision_task_DD,2021.2.3,Win32,61.15459883,,,,,,,,,,,0.6279,1,,,,,,,,,,,,,,m,1,0.6279,,,,,,,,-0.009259246,-0.401851865,0,0,0,,0,136,136,50,1,MALLET,LB,old,m,./images/MALLETLB.png,,,,,,,,,,,,,,,,,,,,,,,
,,,,,,,,,,,,,,,,,199309,18,2022-02-01_14h14.58.374,lexical_decision_task_DD,2021.2.3,Win32,61.15459883,,,,,,,,,,,0.5171,0,,,,,,,,,,,,,,z,0,0.5171,,,,,,,,-0.009259246,-0.401851865,0,0,0,,0,137,137,34,1,CANYON,HB,old,m,./images/CANYONHB.png,,,,,,,,,,,,,,,,,,,,,,,
,,,,,,,,,,,,,,,,,199309,18,2022-02-01_14h14.58.374,lexical_decision_task_DD,2021.2.3,Win32,61.15459883,,,,,,,,,,,0.5964,1,,,,,,,,,,,,,,m,1,0.5964,,,,,,,,-0.009259246,-0.401851865,0,0,0,,0,138,138,41,1,STRING,LB,old,m,./images/STRINGLB.png,,,,,,,,,,,,,,,,,,,,,,,
,,,,,,,,,,,,,,,,,199309,18,2022-02-01_14h14.58.374,lexical_decision_task_DD,2021.2.3,Win32,61.15459883,,,,,,,,,,,1.7544,1,,,,,,,,,,,,,,z,1,1.7544,,,,,,,,-0.009259246,-0.402777791,0,0,0,,0,139,139,146,1,MOOST,LB,old,z,./images/MOOSTLB.png,,,,,,,,,,,,,,,,,,,,,,,
,,,,,,,,,,,,,,,,,199309,18,2022-02-01_14h14.58.374,lexical_decision_task_DD,2021.2.3,Win32,61.15459883,,,,,,,,,,,0.6588,1,,,,,,,,,,,,,,m,1,0.6588,,,,,,,,1.32455E-08,-0.402777791,0,0,0,,0,140,140,23,1,WALRUS,LB,old,m,./images/WALRUSLB.png,,,,,,,,,,,,,,,,,,,,,,,
,,,,,,,,,,,,,,,,,199309,18,2022-02-01_14h14.58.374,lexical_decision_task_DD,2021.2.3,Win32,61.15459883,,,,,,,,,,,0.6453,1,,,,,,,,,,,,,,z,1,0.6453,,,,,,,,1.32455E-08,-0.402777791,0,0,0,,0,141,141,103,1,FLORT,HB,old,z,./images/FLORTHB.png,,,,,,,,,,,,,,,,,,,,,,,
,,,,,,,,,,,,,,,,,199309,18,2022-02-01_14h14.58.374,lexical_decision_task_DD,2021.2.3,Win32,61.15459883,,,,,,,,,,,0.6506,0,,,,,,,,,,,,,,m,0,0.6506,,,,,,,,1.32455E-08,-0.402777791,0,0,0,,0,142,142,142,1,PLASK,HB,old,z,./images/PLASKHB.png,,,,,,,,,,,,,,,,,,,,,,,
,,,,,,,,,,,,,,,,,199309,18,2022-02-01_14h14.58.374,lexical_decision_task_DD,2021.2.3,Win32,61.15459883,,,,,,,,,,,0.633,1,,,,,,,,,,,,,,z,1,0.633,,,,,,,,1.32455E-08,-0.402777791,0,0,0,,0,143,143,148,1,JOMS,HB,old,z,./images/JOMSHB.png,,,,,,,,,,,,,,,,,,,,,,,
,,,,,,,,,,,,,,,,,199309,18,2022-02-01_14h14.58.374,lexical_decision_task_DD,2021.2.3,Win32,61.15459883,,,,,,,,,,,1.18,1,,,,,,,,,,,,,,m,1,1.18,,,,,,,,1.32455E-08,-0.402777791,0,0,0,,0,144,144,65,1,FARMER,LB,old,m,./images/FARMERLB.png,,,,,,,,,,,,,,,,,,,,,,,
,,,,,,,,,,,,,,,,,199309,18,2022-02-01_14h14.58.374,lexical_decision_task_DD,2021.2.3,Win32,61.15459883,,,,,,,,,,,0.6958,1,,,,,,,,,,,,,,m,1,0.6958,,,,,,,,1.32455E-08,-0.402777791,0,0,0,,0,145,145,0,1,TOMATO,C,old,m,./images/TOMATO.png,,,,,,,,,,,,,,,,,,,,,,,
,,,,,,,,,,,,,,,,,199309,18,2022-02-01_14h14.58.374,lexical_decision_task_DD,2021.2.3,Win32,61.15459883,,,,,,,,,,,0.603,1,,,,,,,,,,,,,,z,1,0.603,,,,,,,,-0.003703691,-0.402777791,0,0,0,,0,146,146,167,1,ZONET,LB,old,z,./images/ZONETLB.png,,,,,,,,,,,,,,,,,,,,,,,
,,,,,,,,,,,,,,,,,199309,18,2022-02-01_14h14.58.374,lexical_decision_task_DD,2021.2.3,Win32,61.15459883,,,,,,,,,,,0.6329,1,,,,,,,,,,,,,,m,1,0.6329,,,,,,,,-0.007407338,-0.405555569,0,0,0,,0,147,147,81,1,POODLE,C,old,m,./images/POODLE.png,,,,,,,,,,,,,,,,,,,,,,,
,,,,,,,,,,,,,,,,,199309,18,2022-02-01_14h14.58.374,lexical_decision_task_DD,2021.2.3,Win32,61.15459883,,,,,,,,,,,0.5794,1,,,,,,,,,,,,,,m,1,0.5794,,,,,,,,-0.019444431,-0.408333347,0,0,0,,0,148,148,57,1,MOOSE,C,old,m,./images/MOOSE.png,,,,,,,,,,,,,,,,,,,,,,,
,,,,,,,,,,,,,,,,,199309,18,2022-02-01_14h14.58.374,lexical_decision_task_DD,2021.2.3,Win32,61.15459883,,,,,,,,,,,1.5352,1,,,,,,,,,,,,,,z,1,1.5352,,,,,,,,-0.01296295,-0.411111125,0,0,0,,0,149,149,137,1,JOOST,LB,old,z,./images/JOOSTLB.png,,,,,,,,,,,,,,,,,,,,,,,
,,,,,,,,,,,,,,,,,199309,18,2022-02-01_14h14.58.374,lexical_decision_task_DD,2021.2.3,Win32,61.15459883,,,,,,,,,,,4.3816,1,,,,,,,,,,,,,,z,1,4.3816,,,,,,,,-0.01296295,-0.411111125,0,0,0,,0,150,150,152,1,FRAIN,LB,old,z,./images/FRAINLB.png,,,,,,,,,,,,,,,,,,,,,,,
,,,,,,,,,,,,,,,,,199309,18,2022-02-01_14h14.58.374,lexical_decision_task_DD,2021.2.3,Win32,61.15459883,,,,,,,,,,,0.8238,1,,,,,,,,,,,,,,m,1,0.8238,,,,,,,,-0.01296295,-0.411111125,0,0,0,,0,151,151,48,1,SPORT,C,old,m,./images/SPORT.png,,,,,,,,,,,,,,,,,,,,,,,
,,,,,,,,,,,,,,,,,199309,18,2022-02-01_14h14.58.374,lexical_decision_task_DD,2021.2.3,Win32,61.15459883,,,,,,,,,,,1.1162,1,,,,,,,,,,,,,,z,1,1.1162,,,,,,,,-0.01296295,-0.411111125,0,0,0,,0,152,152,95,1,HANTY,LB,old,z,./images/HANTYLB.png,,,,,,,,,,,,,,,,,,,,,,,
,,,,,,,,,,,,,,,,,199309,18,2022-02-01_14h14.58.374,lexical_decision_task_DD,2021.2.3,Win32,61.15459883,,,,,,,,,,,1.2729,1,,,,,,,,,,,,,,m,1,1.2729,,,,,,,,-0.01296295,-0.411111125,0,0,0,,0,153,153,30,1,STORM,C,old,m,./images/STORM.png,,,,,,,,,,,,,,,,,,,,,,,
,,,,,,,,,,,,,,,,,199309,18,2022-02-01_14h14.58.374,lexical_decision_task_DD,2021.2.3,Win32,61.15459883,,,,,,,,,,,1.2687,1,,,,,,,,,,,,,,m,1,1.2687,,,,,,,,-0.01296295,-0.411111125,0,0,0,,0,154,154,67,1,SAILOR,HB,old,m,./images/SAILORHB.png,,,,,,,,,,,,,,,,,,,,,,,
,,,,,,,,,,,,,,,,,199309,18,2022-02-01_14h14.58.374,lexical_decision_task_DD,2021.2.3,Win32,61.15459883,,,,,,,,,,,2.8249,1,,,,,,,,,,,,,,z,1,2.8249,,,,,,,,-0.014814802,-0.410185199,0,0,0,,0,155,155,104,1,GITTY,LB,old,z,./images/GITTYLB.png,,,,,,,,,,,,,,,,,,,,,,,
,,,,,,,,,,,,,,,,,199309,18,2022-02-01_14h14.58.374,lexical_decision_task_DD,2021.2.3,Win32,61.15459883,,,,,,,,,,,4.2955,1,,,,,,,,,,,,,,z,1,4.2955,-0.014814802,-0.410185199,1,0,0,1.9654,,-0.014814802,-0.410185199,0,0,0,,0,156,156,97,1,CHIDS,HB,old,z,./images/CHIDSHB.png,,,,,,,,,,,,,,,,,,,,,,,
,,,,,,,,,,,,,,,,,199309,18,2022-02-01_14h14.58.374,lexical_decision_task_DD,2021.2.3,Win32,61.15459883,,,,,,,,,,,0.5285,1,,,,,,,,,,,,,,m,1,0.5285,,,,,,,,-0.014814802,-0.410185199,0,0,0,,0,157,157,14,1,PICKLE,LB,old,m,./images/PICKLELB.png,,,,,,,,,,,,,,,,,,,,,,,
,,,,,,,,,,,,,,,,,199309,18,2022-02-01_14h14.58.374,lexical_decision_task_DD,2021.2.3,Win32,61.15459883,,,,,,,,,,,0.7545,0,,,,,,,,,,,,,,m,0,0.7545,,,,,,,,-0.014814802,-0.410185199,0,0,0,,0,158,158,149,1,VEASE,LB,old,z,./images/VEASELB.png,,,,,,,,,,,,,,,,,,,,,,,
,,,,,,,,,,,,,,,,,199309,18,2022-02-01_14h14.58.374,lexical_decision_task_DD,2021.2.3,Win32,61.15459883,,,,,,,,,,,2.8561,1,,,,,,,,,,,,,,z,1,2.8561,,,,,,,,-0.014814802,-0.410185199,0,0,0,,0,159,159,138,1,PLICE,C,old,z,./images/PLICE.png,,,,,,,,,,,,,,,,,,,,,,,
,,,,,,,,,,,,,,,,,199309,18,2022-02-01_14h14.58.374,lexical_decision_task_DD,2021.2.3,Win32,61.15459883,,,,,,,,,,,0.8217,1,,,,,,,,,,,,,,m,1,0.8217,,,,,,,,-0.014814802,-0.410185199,0,0,0,,0,160,160,31,1,QUILL,HB,old,m,./images/QUILLHB.png,,,,,,,,,,,,,,,,,,,,,,,
,,,,,,,,,,,,,,,,,199309,18,2022-02-01_14h14.58.374,lexical_decision_task_DD,2021.2.3,Win32,61.15459883,,,,,,,,,,,0.5178,1,,,,,,,,,,,,,,m,1,0.5178,,,,,,,,-0.014814802,-0.410185199,0,0,0,,0,161,161,83,1,JUNGLE,LB,old,m,./images/JUNGLELB.png,,,,,,,,,,,,,,,,,,,,,,,
,,,,,,,,,,,,,,,,,199309,18,2022-02-01_14h14.58.374,lexical_decision_task_DD,2021.2.3,Win32,61.15459883,,,,,,,,,,,0.8388,0,,,,,,,,,,,,,,m,0,0.8388,,,,,,,,-0.014814802,-0.410185199,0,0,0,,0,162,162,157,1,INLER,HB,old,z,./images/INLERHB.png,,,,,,,,,,,,,,,,,,,,,,,
,,,,,,,,,,,,,,,,,199309,18,2022-02-01_14h14.58.374,lexical_decision_task_DD,2021.2.3,Win32,61.15459883,,,,,,,,,,,1.0676,1,,,,,,,,,,,,,,m,1,1.0676,,,,,,,,-0.014814802,-0.410185199,0,0,0,,0,163,163,7,1,PAINT,HB,old,m,./images/PAINTHB.png,,,,,,,,,,,,,,,,,,,,,,,
,,,,,,,,,,,,,,,,,199309,18,2022-02-01_14h14.58.374,lexical_decision_task_DD,2021.2.3,Win32,61.15459883,,,,,,,,,,,2.7615,1,,,,,,,,,,,,,,z,1,2.7615,,,,,,,,-0.014814802,-0.410185199,0,0,0,,0,164,164,115,1,MAWNS,HB,old,z,./images/MAWNSHB.png,,,,,,,,,,,,,,,,,,,,,,,
,,,,,,,,,,,,,,,,,199309,18,2022-02-01_14h14.58.374,lexical_decision_task_DD,2021.2.3,Win32,61.15459883,,,,,,,,,,,1.1772,1,,,,,,,,,,,,,,z,1,1.1772,,,,,,,,-0.014814802,-0.410185199,0,0,0,,0,165,165,110,1,CRUNK,LB,old,z,./images/CRUNKLB.png,,,,,,,,,,,,,,,,,,,,,,,
,,,,,,,,,,,,,,,,,199309,18,2022-02-01_14h14.58.374,lexical_decision_task_DD,2021.2.3,Win32,61.15459883,,,,,,,,,,,0.5472,1,,,,,,,,,,,,,,m,1,0.5472,,,,,,,,-0.014814802,-0.410185199,0,0,0,,0,166,166,51,1,ONION,C,old,m,./images/ONION.png,,,,,,,,,,,,,,,,,,,,,,,
,,,,,,,,,,,,,,,,,199309,18,2022-02-01_14h14.58.374,lexical_decision_task_DD,2021.2.3,Win32,61.15459883,,,,,,,,,,,1.4226,1,,,,,,,,,,,,,,m,1,1.4226,,,,,,,,-0.014814802,-0.410185199,0,0,0,,0,167,167,49,1,DRUMS,HB,old,m,./images/DRUMSHB.png,,,,,,,,,,,,,,,,,,,,,,,
space,5.9011,-0.014814802,-0.410185199,0,0,0,,,,,,1,test,"In the next phase you will be presented with the words from the the first phase. Your job is to decide whether you remember seeing the word or not. If you remember seeing the word press ""old"" or type ""m"". If you do not remember seeing the word press ""new"" or type ""z"". Please press the space bar or click on continue to begin. ",,,199309,18,2022-02-01_14h14.58.374,lexical_decision_task_DD,2021.2.3,Win32,61.15459883,,,,,,,,,,,,,,,,,,,,,,,,,,,,,,,,,,,,,,,,,,,,,,,,,,,,,,0,0,0,0,1,,,,,,,,,,,,,,,,
space,1.7249,-0.014814802,-0.410185199,0,0,0,,,,,,1,test,"In the next phase you will be presented with the words from the the first phase. Your job is to decide whether you remember seeing the word or not. If you remember seeing the word press ""old"" or type ""m"". If you do not remember seeing the word press ""new"" or type ""z"". Please press the space bar or click on continue to begin. ",,,199309,18,2022-02-01_14h14.58.374,lexical_decision_task_DD,2021.2.3,Win32,61.15459883,,,,,,,,,,,,,,,,,,,,,,,,,,,,,,,,,,,,,,,,,,,,,,,,,,,,,,1,0,1,0,1,,,,,,,,,,,,,,,,
,,-0.012036967,-0.419444458,1,0,0,,,,,,1,test,"In the next phase you will be presented with the words from the the first phase. Your job is to decide whether you remember seeing the word or not. If you remember seeing the word press ""old"" or type ""m"". If you do not remember seeing the word press ""new"" or type ""z"". Please press the space bar or click on continue to begin. ",,,199309,18,2022-02-01_14h14.58.374,lexical_decision_task_DD,2021.2.3,Win32,61.15459883,,,,,,,,,,,,,,,,,,,,,,,,,,,,,,,,,,,,,,,,,,,,,,,,,,,,,,2,0,2,0,1,instr_done_button,,,,,,,,,,,,,,,
,,-0.057407395,-0.392592606,1,0,0,,,,,,1,test,"In the next phase you will be presented with the words from the the first phase. Your job is to decide whether you remember seeing the word or not. If you remember seeing the word press ""old"" or type ""m"". If you do not remember seeing the word press ""new"" or type ""z"". Please press the space bar or click on continue to begin. ",,,199309,18,2022-02-01_14h14.58.374,lexical_decision_task_DD,2021.2.3,Win32,61.15459883,,,,,,,,,,,,,,,,,,,,,,,,,,,,,,,,,,,,,,,,,,,,,,,,,,,,,,3,0,3,0,1,instr_done_button,,,,,,,,,,,,,,,
space,0.8746,-0.010185172,-0.09074075,0,0,0,,,,,,1,test,"In the next phase you will be presented with the words from the the first phase. Your job is to decide whether you remember seeing the word or not. If you remember seeing the word press ""old"" or type ""m"". If you do not remember seeing the word press ""new"" or type ""z"". Please press the space bar or click on continue to begin. ",,,199309,18,2022-02-01_14h14.58.374,lexical_decision_task_DD,2021.2.3,Win32,61.15459883,,,,,,,,,,,,,,,,,,,,,,,,,,,,,,,,,,,,,,,,,,,,,,,,,,,,,,4,0,4,0,1,,,,,,,,,,,,,,,,
,,,,,,,,,,,,,,,,,199309,18,2022-02-01_14h14.58.374,lexical_decision_task_DD,2021.2.3,Win32,61.15459883,,,,,,,,,,,3.466,1,,,,,,,,,,,,,,,,,,,,,,,,-0.010185172,-0.09074075,0,0,0,,,,,,,WALRUS,LB,m,m,./images/WALRUSLB.png,,,,,,,,,m,1,3.466,,,,,,,,0,0,0,23,1
,,,,,,,,,,,,,,,,,199309,18,2022-02-01_14h14.58.374,lexical_decision_task_DD,2021.2.3,Win32,61.15459883,,,,,,,,,,,0.6123,1,,,,,,,,,,,,,,,,,,,,,,,,-0.010185172,-0.09074075,0,0,0,,,,,,,URINE,HB,m,m,./images/URINEHB.png,,,,,,,,,m,1,0.6123,,,,,,,,0,1,1,70,1
,,,,,,,,,,,,,,,,,199309,18,2022-02-01_14h14.58.374,lexical_decision_task_DD,2021.2.3,Win32,61.15459883,,,,,,,,,,,0.8335,1,,,,,,,,,,,,,,,,,,,,,,,,-0.010185172,-0.09074075,0,0,0,,,,,,,KIDNEY,C,m,m,./images/KIDNEY.png,,,,,,,,,m,1,0.8335,,,,,,,,0,2,2,21,1
,,,,,,,,,,,,,,,,,199309,18,2022-02-01_14h14.58.374,lexical_decision_task_DD,2021.2.3,Win32,61.15459883,,,,,,,,,,,0.1791,0,,,,,,,,,,,,,,,,,,,,,,,,-0.010185172,-0.09074075,0,0,0,,,,,,,BRIDE,HB,z,m,./images/BRIDEHB.png,,,,,,,,,m,0,0.1791,,,,,,,,0,3,3,148,1
,,,,,,,,,,,,,,,,,199309,18,2022-02-01_14h14.58.374,lexical_decision_task_DD,2021.2.3,Win32,61.15459883,,,,,,,,,,,0.5905,0,,,,,,,,,,,,,,,,,,,,,,,,-0.010185172,-0.09074075,0,0,0,,,,,,,CLOTH,LB,z,m,./images/CLOTHLB.png,,,,,,,,,m,0,0.5905,,,,,,,,0,4,4,107,1
,,,,,,,,,,,,,,,,,199309,18,2022-02-01_14h14.58.374,lexical_decision_task_DD,2021.2.3,Win32,61.15459883,,,,,,,,,,,1.4743,0,,,,,,,,,,,,,,,,,,,,,,,,-0.010185172,-0.09074075,0,0,0,,,,,,,WHEEL,LB,z,m,./images/WHEELLB.png,,,,,,,,,m,0,1.4743,,,,,,,,0,5,5,161,1
,,,,,,,,,,,,,,,,,199309,18,2022-02-01_14h14.58.374,lexical_decision_task_DD,2021.2.3,Win32,61.15459883,,,,,,,,,,,1.0364,0,,,,,,,,,,,,,,,,,,,,,,,,-0.010185172,-0.09074075,0,0,0,,,,,,,TIGER,HB,z,m,./images/TIGERHB.png,,,,,,,,,m,0,1.0364,,,,,,,,0,6,6,121,1
,,,,,,,,,,,,,,,,,199309,18,2022-02-01_14h14.58.374,lexical_decision_task_DD,2021.2.3,Win32,61.15459883,,,,,,,,,,,0.6946,1,,,,,,,,,,,,,,,,,,,,,,,,-0.010185172,-0.09074075,0,0,0,,,,,,,CEMENT,LB,m,m,./images/CEMENTLB.png,,,,,,,,,m,1,0.6946,,,,,,,,0,7,7,74,1
,,,,,,,,,,,,,,,,,199309,18,2022-02-01_14h14.58.374,lexical_decision_task_DD,2021.2.3,Win32,61.15459883,,,,,,,,,,,0.9662,1,,,,,,,,,,,,,,,,,,,,,,,,-0.010185172,-0.09074075,0,0,0,,,,,,,CHERRY,C,z,m,./images/CHERRY.png,,,,,,,,,z,1,0.9662,,,,,,,,0,8,8,138,1
,,,,,,,,,,,,,,,,,199309,18,2022-02-01_14h14.58.374,lexical_decision_task_DD,2021.2.3,Win32,61.15459883,,,,,,,,,,,0.8193,1,,,,,,,,,,,,,,,,,,,,,,,,-0.010185172,-0.09074075,0,0,0,,,,,,,SHORE,C,m,m,./images/SHORE.png,,,,,,,,,m,1,0.8193,,,,,,,,0,9,9,12,1
,,,,,,,,,,,,,,,,,199309,18,2022-02-01_14h14.58.374,lexical_decision_task_DD,2021.2.3,Win32,61.15459883,,,,,,,,,,,0.4525,0,,,,,,,,,,,,,,,,,,,,,,,,-0.010185172,-0.09074075,0,0,0,,,,,,,MAMMAL,LB,z,m,./images/MAMMALLB.png,,,,,,,,,m,0,0.4525,,,,,,,,0,10,10,146,1
,,,,,,,,,,,,,,,,,199309,18,2022-02-01_14h14.58.374,lexical_decision_task_DD,2021.2.3,Win32,61.15459883,,,,,,,,,,,0.3858,0,,,,,,,,,,,,,,,,,,,,,,,,-0.010185172,-0.09074075,0,0,0,,,,,,,CARPET,LB,m,m,./images/CARPETLB.png,,,,,,,,,z,0,0.3858,,,,,,,,0,11,11,53,1
,,,,,,,,,,,,,,,,,199309,18,2022-02-01_14h14.58.374,lexical_decision_task_DD,2021.2.3,Win32,61.15459883,,,,,,,,,,,0.9034,0,,,,,,,,,,,,,,,,,,,,,,,,-0.010185172,-0.09074075,0,0,0,,,,,,,MIDGET,HB,z,m,./images/MIDGETHB.png,,,,,,,,,m,0,0.9034,,,,,,,,0,12,12,160,1
,,,,,,,,,,,,,,,,,199309,18,2022-02-01_14h14.58.374,lexical_decision_task_DD,2021.2.3,Win32,61.15459883,,,,,,,,,,,0.886,1,,,,,,,,,,,,,,,,,,,,,,,,-0.010185172,-0.09074075,0,0,0,,,,,,,PARCEL,C,z,m,./images/PARCEL.png,,,,,,,,,z,1,0.886,,,,,,,,0,13,13,102,1
,,,,,,,,,,,,,,,,,199309,18,2022-02-01_14h14.58.374,lexical_decision_task_DD,2021.2.3,Win32,61.15459883,,,,,,,,,,,0.663,1,,,,,,,,,,,,,,,,,,,,,,,,-0.010185172,-0.09074075,0,0,0,,,,,,,PAINT,HB,m,m,./images/PAINTHB.png,,,,,,,,,m,1,0.663,,,,,,,,0,14,14,7,1
,,,,,,,,,,,,,,,,,199309,18,2022-02-01_14h14.58.374,lexical_decision_task_DD,2021.2.3,Win32,61.15459883,,,,,,,,,,,0.9635,1,,,,,,,,,,,,,,,,,,,,,,,,-0.010185172,-0.09074075,0,0,0,,,,,,,SAUNA,C,z,m,./images/SAUNA.png,,,,,,,,,z,1,0.9635,,,,,,,,0,15,15,117,1
,,,,,,,,,,,,,,,,,199309,18,2022-02-01_14h14.58.374,lexical_decision_task_DD,2021.2.3,Win32,61.15459883,,,,,,,,,,,1.2373,0,,,,,,,,,,,,,,,,,,,,,,,,-0.010185172,-0.09074075,0,0,0,,,,,,,BAMBOO,LB,z,m,./images/BAMBOOLB.png,,,,,,,,,m,0,1.2373,,,,,,,,0,16,16,89,1
,,,,,,,,,,,,,,,,,199309,18,2022-02-01_14h14.58.374,lexical_decision_task_DD,2021.2.3,Win32,61.15459883,,,,,,,,,,,0.7458,1,,,,,,,,,,,,,,,,,,,,,,,,-0.010185172,-0.09074075,0,0,0,,,,,,,DRUMS,HB,m,m,./images/DRUMSHB.png,,,,,,,,,m,1,0.7458,,,,,,,,0,17,17,49,1
,,,,,,,,,,,,,,,,,199309,18,2022-02-01_14h14.58.374,lexical_decision_task_DD,2021.2.3,Win32,61.15459883,,,,,,,,,,,0.9792,0,,,,,,,,,,,,,,,,,,,,,,,,-0.010185172,-0.09074075,0,0,0,,,,,,,WAGON,HB,z,m,./images/WAGONHB.png,,,,,,,,,m,0,0.9792,,,,,,,,0,18,18,91,1
,,,,,,,,,,,,,,,,,199309,18,2022-02-01_14h14.58.374,lexical_decision_task_DD,2021.2.3,Win32,61.15459883,,,,,,,,,,,1.5154,0,,,,,,,,,,,,,,,,,,,,,,,,-0.010185172,-0.09074075,0,0,0,,,,,,,STOOL,HB,z,m,./images/STOOLHB.png,,,,,,,,,m,0,1.5154,,,,,,,,0,19,19,127,1
,,,,,,,,,,,,,,,,,199309,18,2022-02-01_14h14.58.374,lexical_decision_task_DD,2021.2.3,Win32,61.15459883,,,,,,,,,,,0.9331,1,,,,,,,,,,,,,,,,,,,,,,,,-0.010185172,-0.09074075,0,0,0,,,,,,,PIMPLE,LB,m,m,./images/PIMPLELB.png,,,,,,,,,m,1,0.9331,,,,,,,,0,20,20,71,1
,,,,,,,,,,,,,,,,,199309,18,2022-02-01_14h14.58.374,lexical_decision_task_DD,2021.2.3,Win32,61.15459883,,,,,,,,,,,1.313,0,,,,,,,,,,,,,,,,,,,,,,,,-0.010185172,-0.09074075,0,0,0,,,,,,,MUMMY,HB,z,m,./images/MUMMYHB.png,,,,,,,,,m,0,1.313,,,,,,,,0,21,21,130,1
,,,,,,,,,,,,,,,,,199309,18,2022-02-01_14h14.58.374,lexical_decision_task_DD,2021.2.3,Win32,61.15459883,,,,,,,,,,,1.8068,0,,,,,,,,,,,,,,,,,,,,,,,,-0.010185172,-0.09074075,0,0,0,,,,,,,PILOT,LB,z,m,./images/PILOTLB.png,,,,,,,,,m,0,1.8068,,,,,,,,0,22,22,134,1
,,,,,,,,,,,,,,,,,199309,18,2022-02-01_14h14.58.374,lexical_decision_task_DD,2021.2.3,Win32,61.15459883,,,,,,,,,,,2.1296,1,,,,,,,,,,,,,,,,,,,,,,,,-0.010185172,-0.09074075,0,0,0,,,,,,,MIRROR,C,m,m,./images/MIRROR.png,,,,,,,,,m,1,2.1296,,,,,,,,0,23,23,63,1
,,,,,,,,,,,,,,,,,199309,18,2022-02-01_14h14.58.374,lexical_decision_task_DD,2021.2.3,Win32,61.15459883,,,,,,,,,,,1.272,0,,,,,,,,,,,,,,,,,,,,,,,,-0.010185172,-0.09074075,0,0,0,,,,,,,STEAK,HB,z,m,./images/STEAKHB.png,,,,,,,,,m,0,1.272,,,,,,,,0,24,24,115,1
,,,,,,,,,,,,,,,,,199309,18,2022-02-01_14h14.58.374,lexical_decision_task_DD,2021.2.3,Win32,61.15459883,,,,,,,,,,,1.2455,1,,,,,,,,,,,,,,,,,,,,,,,,-0.010185172,-0.09074075,0,0,0,,,,,,,GARDEN,HB,z,m,./images/GARDENHB.png,,,,,,,,,z,1,1.2455,,,,,,,,0,25,25,94,1
,,,,,,,,,,,,,,,,,199309,18,2022-02-01_14h14.58.374,lexical_decision_task_DD,2021.2.3,Win32,61.15459883,,,,,,,,,,,1.5479,1,,,,,,,,,,,,,,,,,,,,,,,,-0.010185172,-0.09074075,0,0,0,,,,,,,BOXER,HB,z,m,./images/BOXERHB.png,,,,,,,,,z,1,1.5479,,,,,,,,0,26,26,88,1
,,,,,,,,,,,,,,,,,199309,18,2022-02-01_14h14.58.374,lexical_decision_task_DD,2021.2.3,Win32,61.15459883,,,,,,,,,,,0.7219,0,,,,,,,,,,,,,,,,,,,,,,,,-0.010185172,-0.09074075,0,0,0,,,,,,,SWEAT,C,m,m,./images/SWEAT.png,,,,,,,,,z,0,0.7219,,,,,,,,0,27,27,66,1
,,,,,,,,,,,,,,,,,199309,18,2022-02-01_14h14.58.374,lexical_decision_task_DD,2021.2.3,Win32,61.15459883,,,,,,,,,,,1.4957,0,,,,,,,,,,,,,,,,,,,,,,,,-0.010185172,-0.09074075,0,0,0,,,,,,,ARTIST,HB,z,m,./images/ARTISTHB.png,,,,,,,,,m,0,1.4957,,,,,,,,0,28,28,145,1
,,,,,,,,,,,,,,,,,199309,18,2022-02-01_14h14.58.374,lexical_decision_task_DD,2021.2.3,Win32,61.15459883,,,,,,,,,,,2.3508,0,,,,,,,,,,,,,,,,,,,,,,,,-0.010185172,-0.09074075,0,0,0,,,,,,,GRAPE,HB,z,m,./images/GRAPEHB.png,,,,,,,,,m,0,2.3508,,,,,,,,0,29,29,100,1
,,,,,,,,,,,,,,,,,199309,18,2022-02-01_14h14.58.374,lexical_decision_task_DD,2021.2.3,Win32,61.15459883,,,,,,,,,,,0.5496,1,,,,,,,,,,,,,,,,,,,,,,,,-0.010185172,-0.09074075,0,0,0,,,,,,,KITTEN,C,m,m,./images/KITTEN.png,,,,,,,,,m,1,0.5496,,,,,,,,0,30,30,45,1
,,,,,,,,,,,,,,,,,199309,18,2022-02-01_14h14.58.374,lexical_decision_task_DD,2021.2.3,Win32,61.15459883,,,,,,,,,,,0.7354,0,,,,,,,,,,,,,,,,,,,,,,,,-0.010185172,-0.09074075,0,0,0,,,,,,,STAIN,C,z,m,./images/STAIN.png,,,,,,,,,m,0,0.7354,,,,,,,,0,31,31,90,1
,,,,,,,,,,,,,,,,,199309,18,2022-02-01_14h14.58.374,lexical_decision_task_DD,2021.2.3,Win32,61.15459883,,,,,,,,,,,4.254,1,,,,,,,,,,,,,,,,,,,,,,,,-0.012036967,-0.097222231,0,0,0,,,,,,,CURRY,C,z,m,./images/CURRY.png,,,,,,,,,z,1,4.254,,,,,,,,0,32,32,144,1
,,,,,,,,,,,,,,,,,199309,18,2022-02-01_14h14.58.374,lexical_decision_task_DD,2021.2.3,Win32,61.15459883,,,,,,,,,,,0.6692,1,,,,,,,,,,,,,,,,,,,,,,,,-0.00833332,-0.146296306,0,0,0,,,,,,,SKIING,LB,m,m,./images/SKIINGLB.png,,,,,,,,,m,1,0.6692,,,,,,,,0,33,33,17,1
,,,,,,,,,,,,,,,,,199309,18,2022-02-01_14h14.58.374,lexical_decision_task_DD,2021.2.3,Win32,61.15459883,,,,,,,,,,,1.4163,0,,,,,,,,,,,,,,,,,,,,,,,,-0.00833332,-0.146296306,0,0,0,,,,,,,BRUSH,LB,z,m,./images/BRUSHLB.png,,,,,,,,,m,0,1.4163,,,,,,,,0,34,34,143,1
,,,,,,,,,,,,,,,,,199309,18,2022-02-01_14h14.58.374,lexical_decision_task_DD,2021.2.3,Win32,61.15459883,,,,,,,,,,,0.6335,1,,,,,,,,,,,,,,,,,,,,,,,,-0.009259246,-0.133333343,0,0,0,,,,,,,MOTOR,HB,m,m,./images/MOTORHB.png,,,,,,,,,m,1,0.6335,,,,,,,,0,35,35,13,1
,,,,,,,,,,,,,,,,,199309,18,2022-02-01_14h14.58.374,lexical_decision_task_DD,2021.2.3,Win32,61.15459883,,,,,,,,,,,0.5735,1,,,,,,,,,,,,,,,,,,,,,,,,0.001851922,-0.172222232,0,0,0,,,,,,,PASTA,LB,m,m,./images/PASTALB.png,,,,,,,,,m,1,0.5735,,,,,,,,0,36,36,5,1
,,,,,,,,,,,,,,,,,199309,18,2022-02-01_14h14.58.374,lexical_decision_task_DD,2021.2.3,Win32,61.15459883,,,,,,,,,,,1.139,1,,,,,,,,,,,,,,,,,,,,,,,,0.000925939,-0.163888955,0,0,0,,,,,,,CRATER,C,z,m,./images/CRATER.png,,,,,,,,,z,1,1.139,,,,,,,,0,37,37,87,1
,,,,,,,,,,,,,,,,,199309,18,2022-02-01_14h14.58.374,lexical_decision_task_DD,2021.2.3,Win32,61.15459883,,,,,,,,,,,0.3322,0,,,,,,,,,,,,,,,,,,,,,,,,0.000925939,-0.163888955,0,0,0,,,,,,,FERRY,C,z,m,./images/FERRY.png,,,,,,,,,m,0,0.3322,,,,,,,,0,38,38,141,1
,,,,,,,,,,,,,,,,,199309,18,2022-02-01_14h14.58.374,lexical_decision_task_DD,2021.2.3,Win32,61.15459883,,,,,,,,,,,14.0388,1,,,,,,,,,,,,,,,,,,,,,,,,-0.03796295,0.223148144,0,0,0,,,,,,,PENCE,HB,m,m,./images/PENCEHB.png,,,,,,,,,m,1,14.0388,,,,,,,,0,39,39,16,1
,,,,,,,,,,,,,,,,,199309,18,2022-02-01_14h14.58.374,lexical_decision_task_DD,2021.2.3,Win32,61.15459883,,,,,,,,,,,0.8384,1,,,,,,,,,,,,,,,,,,,,,,,,-0.03796295,0.223148144,0,0,0,,,,,,,TOMATO,C,m,m,./images/TOMATO.png,,,,,,,,,m,1,0.8384,,,,,,,,0,40,40,0,1
,,,,,,,,,,,,,,,,,199309,18,2022-02-01_14h14.58.374,lexical_decision_task_DD,2021.2.3,Win32,61.15459883,,,,,,,,,,,0.7631,1,,,,,,,,,,,,,,,,,,,,,,,,-0.03796295,0.223148144,0,0,0,space,,,,,,BONNET,LB,m,m,./images/BONNETLB.png,3.6903,,,,,,,,m,1,0.7631,,,,,,,,0,41,41,11,1
,,,,,,,,,,,,,,,,,199309,18,2022-02-01_14h14.58.374,lexical_decision_task_DD,2021.2.3,Win32,61.15459883,,,,,,,,,,,2.0311,1,,,,,,,,,,,,,,,,,,,,,,,,-0.03796295,0.223148144,0,0,0,,,,,,,LITTER,C,m,m,./images/LITTER.png,,,,,,,,,m,1,2.0311,,,,,,,,0,42,42,78,1
,,,,,,,,,,,,,,,,,199309,18,2022-02-01_14h14.58.374,lexical_decision_task_DD,2021.2.3,Win32,61.15459883,,,,,,,,,,,0.3887,0,,,,,,,,,,,,,,,,,,,,,,,,-0.03796295,0.223148144,0,0,0,,,,,,,FLASK,C,z,m,./images/FLASK.png,,,,,,,,,m,0,0.3887,,,,,,,,0,43,43,156,1
,,,,,,,,,,,,,,,,,199309,18,2022-02-01_14h14.58.374,lexical_decision_task_DD,2021.2.3,Win32,61.15459883,,,,,,,,,,,2.7117,1,,,,,,,,,,,,,,,,,,,,,,,,-0.03796295,0.223148144,0,0,0,,,,,,,COUCH,LB,m,m,./images/COUCHLB.png,,,,,,,,,m,1,2.7117,,,,,,,,0,44,44,77,1
,,,,,,,,,,,,,,,,,199309,18,2022-02-01_14h14.58.374,lexical_decision_task_DD,2021.2.3,Win32,61.15459883,,,,,,,,,,,0.6025,1,,,,,,,,,,,,,,,,,,,,,,,,-0.03796295,0.223148144,0,0,0,,,,,,,MUSCLE,HB,m,m,./images/MUSCLEHB.png,,,,,,,,,m,1,0.6025,,,,,,,,0,45,45,4,1
,,,,,,,,,,,,,,,,,199309,18,2022-02-01_14h14.58.374,lexical_decision_task_DD,2021.2.3,Win32,61.15459883,,,,,,,,,,,0.9524,0,,,,,,,,,,,,,,,,,,,,,,,,-0.03796295,0.223148144,0,0,0,,,,,,,TOWEL,HB,z,m,./images/TOWELHB.png,,,,,,,,,m,0,0.9524,,,,,,,,0,46,46,85,1
,,,,,,,,,,,,,,,,,199309,18,2022-02-01_14h14.58.374,lexical_decision_task_DD,2021.2.3,Win32,61.15459883,,,,,,,,,,,0.4647,0,,,,,,,,,,,,,,,,,,,,,,,,-0.040740728,0.223148144,0,0,0,,,,,,,MEDAL,LB,z,m,./images/MEDALLB.png,,,,,,,,,m,0,0.4647,,,,,,,,0,47,47,95,1
,,,,,,,,,,,,,,,,,199309,18,2022-02-01_14h14.58.374,lexical_decision_task_DD,2021.2.3,Win32,61.15459883,,,,,,,,,,,0.9429,1,,,,,,,,,,,,,,,,,,,,,,,,-0.054629617,0.226851848,0,0,0,,,,,,,SNAKE,HB,z,m,./images/SNAKEHB.png,,,,,,,,,z,1,0.9429,,,,,,,,0,48,48,124,1
,,,,,,,,,,,,,,,,,199309,18,2022-02-01_14h14.58.374,lexical_decision_task_DD,2021.2.3,Win32,61.15459883,,,,,,,,,,,1.2501,0,,,,,,,,,,,,,,,,,,,,,,,,-0.054629617,0.226851848,0,0,0,,,,,,,DIVER,C,z,m,./images/DIVER.png,,,,,,,,,m,0,1.2501,,,,,,,,0,49,49,93,1
,,,,,,,,,,,,,,,,,199309,18,2022-02-01_14h14.58.374,lexical_decision_task_DD,2021.2.3,Win32,61.15459883,,,,,,,,,,,2.3059,0,,,,,,,,,,,,,,,,,,,,,,,,-0.054629617,0.226851848,0,0,0,,,,,,,POSTER,LB,z,m,./images/POSTERLB.png,,,,,,,,,m,0,2.3059,,,,,,,,0,50,50,137,1
,,,,,,,,,,,,,,,,,199309,18,2022-02-01_14h14.58.374,lexical_decision_task_DD,2021.2.3,Win32,61.15459883,,,,,,,,,,,1.0198,0,,,,,,,,,,,,,,,,,,,,,,,,-0.054629617,0.226851848,0,0,0,,,,,,,FOLDER,C,m,m,./images/FOLDER.png,,,,,,,,,z,0,1.0198,,,,,,,,0,51,51,42,1
,,,,,,,,,,,,,,,,,199309,18,2022-02-01_14h14.58.374,lexical_decision_task_DD,2021.2.3,Win32,61.15459883,,,,,,,,,,,4.2244,0,,,,,,,,,,,,,,,,,,,,,,,,-0.054629617,0.226851848,0,0,0,,,,,,,BELLY,HB,m,m,./images/BELLYHB.png,,,,,,,,,z,0,4.2244,,,,,,,,0,52,52,10,1
,,,,,,,,,,,,,,,,,199309,18,2022-02-01_14h14.58.374,lexical_decision_task_DD,2021.2.3,Win32,61.15459883,,,,,,,,,,,0.7752,1,,,,,,,,,,,,,,,,,,,,,,,,-0.054629617,0.226851848,0,0,0,,,,,,,POODLE,C,m,m,./images/POODLE.png,,,,,,,,,m,1,0.7752,,,,,,,,0,53,53,81,1
,,,,,,,,,,,,,,,,,199309,18,2022-02-01_14h14.58.374,lexical_decision_task_DD,2021.2.3,Win32,61.15459883,,,,,,,,,,,0.6386,1,,,,,,,,,,,,,,,,,,,,,,,,-0.054629617,0.226851848,0,0,0,,,,,,,ONION,C,m,m,./images/ONION.png,,,,,,,,,m,1,0.6386,,,,,,,,0,54,54,51,1
,,,,,,,,,,,,,,,,,199309,18,2022-02-01_14h14.58.374,lexical_decision_task_DD,2021.2.3,Win32,61.15459883,,,,,,,,,,,3.4123,1,,,,,,,,,,,,,,,,,,,,,,,,-0.054629617,0.226851848,0,0,0,,,,,,,BAKER,C,z,m,./images/BAKER.png,,,,,,,,,z,1,3.4123,,,,,,,,0,55,55,147,1
,,,,,,,,,,,,,,,,,199309,18,2022-02-01_14h14.58.374,lexical_decision_task_DD,2021.2.3,Win32,61.15459883,,,,,,,,,,,1.0894,0,,,,,,,,,,,,,,,,,,,,,,,,-0.054629617,0.226851848,0,0,0,,,,,,,BEARD,LB,m,m,./images/BEARDLB.png,,,,,,,,,z,0,1.0894,,,,,,,,0,56,56,2,1
,,,,,,,,,,,,,,,,,199309,18,2022-02-01_14h14.58.374,lexical_decision_task_DD,2021.2.3,Win32,61.15459883,,,,,,,,,,,0.8986,1,,,,,,,,,,,,,,,,,,,,,,,,-0.054629617,0.226851848,0,0,0,,,,,,,CRUST,HB,m,m,./images/CRUSTHB.png,,,,,,,,,m,1,0.8986,,,,,,,,0,57,57,79,1
,,,,,,,,,,,,,,,,,199309,18,2022-02-01_14h14.58.374,lexical_decision_task_DD,2021.2.3,Win32,61.15459883,,,,,,,,,,,0.691,1,,,,,,,,,,,,,,,,,,,,,,,,-0.054629617,0.226851848,0,0,0,,,,,,,SMOKER,LB,m,m,./images/SMOKERLB.png,,,,,,,,,m,1,0.691,,,,,,,,0,58,58,26,1
,,,,,,,,,,,,,,,,,199309,18,2022-02-01_14h14.58.374,lexical_decision_task_DD,2021.2.3,Win32,61.15459883,,,,,,,,,,,2.1651,0,,,,,,,,,,,,,,,,,,,,,,,,-0.054629617,0.226851848,0,0,0,,,,,,,PEBBLE,HB,z,m,./images/PEBBLEHB.png,,,,,,,,,m,0,2.1651,,,,,,,,0,59,59,166,1
,,,,,,,,,,,,,,,,,199309,18,2022-02-01_14h14.58.374,lexical_decision_task_DD,2021.2.3,Win32,61.15459883,,,,,,,,,,,1.2699,1,,,,,,,,,,,,,,,,,,,,,,,,-0.054629617,0.226851848,0,0,0,,,,,,,BISHOP,HB,z,m,./images/BISHOPHB.png,,,,,,,,,z,1,1.2699,,,,,,,,0,60,60,133,1
,,,,,,,,,,,,,,,,,199309,18,2022-02-01_14h14.58.374,lexical_decision_task_DD,2021.2.3,Win32,61.15459883,,,,,,,,,,,0.5753,0,,,,,,,,,,,,,,,,,,,,,,,,-0.054629617,0.226851848,0,0,0,,,,,,,DONKEY,HB,z,m,./images/DONKEYHB.png,,,,,,,,,m,0,0.5753,,,,,,,,0,61,61,103,1
,,,,,,,,,,,,,,,,,199309,18,2022-02-01_14h14.58.374,lexical_decision_task_DD,2021.2.3,Win32,61.15459883,,,,,,,,,,,0.7594,1,,,,,,,,,,,,,,,,,,,,,,,,-0.054629617,0.226851848,0,0,0,,,,,,,FALCON,HB,m,m,./images/FALCONHB.png,,,,,,,,,m,1,0.7594,,,,,,,,0,62,62,28,1
,,,,,,,,,,,,,,,,,199309,18,2022-02-01_14h14.58.374,lexical_decision_task_DD,2021.2.3,Win32,61.15459883,,,,,,,,,,,0.6466,1,,,,,,,,,,,,,,,,,,,,,,,,-0.054629617,0.226851848,0,0,0,,,,,,,TULIP,LB,m,m,./images/TULIPLB.png,,,,,,,,,m,1,0.6466,,,,,,,,0,63,63,8,1
,,,,,,,,,,,,,,,,,199309,18,2022-02-01_14h14.58.374,lexical_decision_task_DD,2021.2.3,Win32,61.15459883,,,,,,,,,,,0.7793,1,,,,,,,,,,,,,,,,,,,,,,,,-0.054629617,0.226851848,0,0,0,,,,,,,PICKLE,LB,m,m,./images/PICKLELB.png,,,,,,,,,m,1,0.7793,,,,,,,,0,64,64,14,1
,,,,,,,,,,,,,,,,,199309,18,2022-02-01_14h14.58.374,lexical_decision_task_DD,2021.2.3,Win32,61.15459883,,,,,,,,,,,0.8558,1,,,,,,,,,,,,,,,,,,,,,,,,-0.054629617,0.226851848,0,0,0,,,,,,,MALLET,LB,m,m,./images/MALLETLB.png,,,,,,,,,m,1,0.8558,,,,,,,,0,65,65,50,1
,,,,,,,,,,,,,,,,,199309,18,2022-02-01_14h14.58.374,lexical_decision_task_DD,2021.2.3,Win32,61.15459883,,,,,,,,,,,1.3179,1,,,,,,,,,,,,,,,,,,,,,,,,-0.054629617,0.226851848,0,0,0,,,,,,,GRANNY,LB,z,m,./images/GRANNYLB.png,,,,,,,,,z,1,1.3179,,,,,,,,0,66,66,104,1
,,,,,,,,,,,,,,,,,199309,18,2022-02-01_14h14.58.374,lexical_decision_task_DD,2021.2.3,Win32,61.15459883,,,,,,,,,,,0.5695,0,,,,,,,,,,,,,,,,,,,,,,,,-0.054629617,0.226851848,0,0,0,,,,,,,BASKET,LB,z,m,./images/BASKETLB.png,,,,,,,,,m,0,0.5695,,,,,,,,0,67,67,128,1
,,,,,,,,,,,,,,,,,199309,18,2022-02-01_14h14.58.374,lexical_decision_task_DD,2021.2.3,Win32,61.15459883,,,,,,,,,,,0.8461,0,,,,,,,,,,,,,,,,,,,,,,,,-0.054629617,0.226851848,0,0,0,,,,,,,JUMPER,LB,z,m,./images/JUMPERLB.png,,,,,,,,,m,0,0.8461,,,,,,,,0,68,68,158,1
,,,,,,,,,,,,,,,,,199309,18,2022-02-01_14h14.58.374,lexical_decision_task_DD,2021.2.3,Win32,61.15459883,,,,,,,,,,,0.5845,1,,,,,,,,,,,,,,,,,,,,,,,,-0.054629617,0.226851848,0,0,0,,,,,,,CANYON,HB,m,m,./images/CANYONHB.png,,,,,,,,,m,1,0.5845,,,,,,,,0,69,69,34,1
,,,,,,,,,,,,,,,,,199309,18,2022-02-01_14h14.58.374,lexical_decision_task_DD,2021.2.3,Win32,61.15459883,,,,,,,,,,,1.4963,1,,,,,,,,,,,,,,,,,,,,,,,,-0.054629617,0.226851848,0,0,0,,,,,,,TWINS,C,m,m,./images/TWINS.png,,,,,,,,,m,1,1.4963,,,,,,,,0,70,70,60,1
,,,,,,,,,,,,,,,,,199309,18,2022-02-01_14h14.58.374,lexical_decision_task_DD,2021.2.3,Win32,61.15459883,,,,,,,,,,,1.6337,1,,,,,,,,,,,,,,,,,,,,,,,,-0.054629617,0.226851848,0,0,0,,,,,,,INFANT,HB,m,m,./images/INFANTHB.png,,,,,,,,,m,1,1.6337,,,,,,,,0,71,71,76,1
,,,,,,,,,,,,,,,,,199309,18,2022-02-01_14h14.58.374,lexical_decision_task_DD,2021.2.3,Win32,61.15459883,,,,,,,,,,,0.9564,0,,,,,,,,,,,,,,,,,,,,,,,,-0.054629617,0.226851848,0,0,0,,,,,,,BROOM,C,z,m,./images/BROOM.png,,,,,,,,,m,0,0.9564,,,,,,,,0,72,72,162,1
,,,,,,,,,,,,,,,,,199309,18,2022-02-01_14h14.58.374,lexical_decision_task_DD,2021.2.3,Win32,61.15459883,,,,,,,,,,,1.5339,1,,,,,,,,,,,,,,,,,,,,,,,,-0.054629617,0.226851848,0,0,0,,,,,,,SQUARE,C,m,m,./images/SQUARE.png,,,,,,,,,m,1,1.5339,,,,,,,,0,73,73,6,1
,,,,,,,,,,,,,,,,,199309,18,2022-02-01_14h14.58.374,lexical_decision_task_DD,2021.2.3,Win32,61.15459883,,,,,,,,,,,1.4622,0,,,,,,,,,,,,,,,,,,,,,,,,-0.054629617,0.226851848,0,0,0,,,,,,,COLLAR,C,z,m,./images/COLLAR.png,,,,,,,,,m,0,1.4622,,,,,,,,0,74,74,99,1
,,,,,,,,,,,,,,,,,199309,18,2022-02-01_14h14.58.374,lexical_decision_task_DD,2021.2.3,Win32,61.15459883,,,,,,,,,,,1.0731,1,,,,,,,,,,,,,,,,,,,,,,,,-0.054629617,0.226851848,0,0,0,,,,,,,CRADLE,LB,m,m,./images/CRADLELB.png,,,,,,,,,m,1,1.0731,,,,,,,,0,75,75,20,1
,,,,,,,,,,,,,,,,,199309,18,2022-02-01_14h14.58.374,lexical_decision_task_DD,2021.2.3,Win32,61.15459883,,,,,,,,,,,2.3909,1,,,,,,,,,,,,,,,,,,,,,,,,-0.054629617,0.226851848,0,0,0,,,,,,,WRIST,HB,m,m,./images/WRISTHB.png,,,,,,,,,m,1,2.3909,,,,,,,,0,76,76,25,1
,,,,,,,,,,,,,,,,,199309,18,2022-02-01_14h14.58.374,lexical_decision_task_DD,2021.2.3,Win32,61.15459883,,,,,,,,,,,1.2998,0,,,,,,,,,,,,,,,,,,,,,,,,-0.054629617,0.226851848,0,0,0,,,,,,,SLOPE,C,z,m,./images/SLOPE.png,,,,,,,,,m,0,1.2998,,,,,,,,0,77,77,114,1
,,,,,,,,,,,,,,,,,199309,18,2022-02-01_14h14.58.374,lexical_decision_task_DD,2021.2.3,Win32,61.15459883,,,,,,,,,,,0.8348,1,,,,,,,,,,,,,,,,,,,,,,,,-0.054629617,0.226851848,0,0,0,,,,,,,FARMER,LB,m,m,./images/FARMERLB.png,,,,,,,,,m,1,0.8348,,,,,,,,0,78,78,65,1
,,,,,,,,,,,,,,,,,199309,18,2022-02-01_14h14.58.374,lexical_decision_task_DD,2021.2.3,Win32,61.15459883,,,,,,,,,,,0.8029,1,,,,,,,,,,,,,,,,,,,,,,,,-0.054629617,0.226851848,0,0,0,,,,,,,SWING,HB,m,m,./images/SWINGHB.png,,,,,,,,,m,1,0.8029,,,,,,,,0,79,79,40,1
,,,,,,,,,,,,,,,,,199309,18,2022-02-01_14h14.58.374,lexical_decision_task_DD,2021.2.3,Win32,61.15459883,,,,,,,,,,,1.2415,1,,,,,,,,,,,,,,,,,,,,,,,,-0.054629617,0.226851848,0,0,0,,,,,,,SPORT,C,m,m,./images/SPORT.png,,,,,,,,,m,1,1.2415,,,,,,,,0,80,80,48,1
,,,,,,,,,,,,,,,,,199309,18,2022-02-01_14h14.58.374,lexical_decision_task_DD,2021.2.3,Win32,61.15459883,,,,,,,,,,,1.5317,1,,,,,,,,,,,,,,,,,,,,,,,,-0.054629617,0.226851848,0,0,0,,,,,,,BLOKE,C,z,m,./images/BLOKE.png,,,,,,,,,z,1,1.5317,,,,,,,,0,81,81,96,1
,,,,,,,,,,,,,,,,,199309,18,2022-02-01_14h14.58.374,lexical_decision_task_DD,2021.2.3,Win32,61.15459883,,,,,,,,,,,1.2803,1,,,,,,,,,,,,,,,,,,,,,,,,-0.054629617,0.226851848,0,0,0,,,,,,,RAZOR,HB,z,m,./images/RAZORHB.png,,,,,,,,,z,1,1.2803,,,,,,,,0,82,82,118,1
,,,,,,,,,,,,,,,,,199309,18,2022-02-01_14h14.58.374,lexical_decision_task_DD,2021.2.3,Win32,61.15459883,,,,,,,,,,,0.8333,1,,,,,,,,,,,,,,,,,,,,,,,,-0.054629617,0.226851848,0,0,0,space,,,,,,MUFFIN,HB,m,m,./images/MUFFINHB.png,1.627,,,,,,,,m,1,0.8333,,,,,,,,0,83,83,55,1
,,,,,,,,,,,,,,,,,199309,18,2022-02-01_14h14.58.374,lexical_decision_task_DD,2021.2.3,Win32,61.15459883,,,,,,,,,,,0.8668,1,,,,,,,,,,,,,,,,,,,,,,,,-0.054629617,0.226851848,0,0,0,,,,,,,THROAT,C,m,m,./images/THROAT.png,,,,,,,,,m,1,0.8668,,,,,,,,0,84,84,36,1
,,,,,,,,,,,,,,,,,199309,18,2022-02-01_14h14.58.374,lexical_decision_task_DD,2021.2.3,Win32,61.15459883,,,,,,,,,,,1.0056,1,,,,,,,,,,,,,,,,,,,,,,,,-0.054629617,0.226851848,0,0,0,,,,,,,HEATER,LB,z,m,./images/HEATERLB.png,,,,,,,,,z,1,1.0056,,,,,,,,0,85,85,140,1
,,,,,,,,,,,,,,,,,199309,18,2022-02-01_14h14.58.374,lexical_decision_task_DD,2021.2.3,Win32,61.15459883,,,,,,,,,,,0.7911,1,,,,,,,,,,,,,,,,,,,,,,,,-0.054629617,0.226851848,0,0,0,,,,,,,RHINO,C,m,m,./images/RHINO.png,,,,,,,,,m,1,0.7911,,,,,,,,0,86,86,9,1
,,,,,,,,,,,,,,,,,199309,18,2022-02-01_14h14.58.374,lexical_decision_task_DD,2021.2.3,Win32,61.15459883,,,,,,,,,,,0.8926,1,,,,,,,,,,,,,,,,,,,,,,,,-0.054629617,0.226851848,0,0,0,,,,,,,BERRY,LB,m,m,./images/BERRYLB.png,,,,,,,,,m,1,0.8926,,,,,,,,0,87,87,47,1
,,,,,,,,,,,,,,,,,199309,18,2022-02-01_14h14.58.374,lexical_decision_task_DD,2021.2.3,Win32,61.15459883,,,,,,,,,,,0.6992,1,,,,,,,,,,,,,,,,,,,,,,,,-0.054629617,0.226851848,0,0,0,,,,,,,SPINE,LB,z,m,./images/SPINELB.png,,,,,,,,,z,1,0.6992,,,,,,,,0,88,88,149,1
,,,,,,,,,,,,,,,,,199309,18,2022-02-01_14h14.58.374,lexical_decision_task_DD,2021.2.3,Win32,61.15459883,,,,,,,,,,,0.9125,1,,,,,,,,,,,,,,,,,,,,,,,,-0.054629617,0.226851848,0,0,0,,,,,,,ALLEY,HB,z,m,./images/ALLEYHB.png,,,,,,,,,z,1,0.9125,,,,,,,,0,89,89,139,1
,,,,,,,,,,,,,,,,,199309,18,2022-02-01_14h14.58.374,lexical_decision_task_DD,2021.2.3,Win32,61.15459883,,,,,,,,,,,0.7924,1,,,,,,,,,,,,,,,,,,,,,,,,-0.054629617,0.226851848,0,0,0,,,,,,,CASINO,HB,z,m,./images/CASINOHB.png,,,,,,,,,z,1,0.7924,,,,,,,,0,90,90,112,1
,,,,,,,,,,,,,,,,,199309,18,2022-02-01_14h14.58.374,lexical_decision_task_DD,2021.2.3,Win32,61.15459883,,,,,,,,,,,0.8312,1,,,,,,,,,,,,,,,,,,,,,,,,-0.054629617,0.226851848,0,0,0,,,,,,,SAILOR,HB,m,m,./images/SAILORHB.png,,,,,,,,,m,1,0.8312,,,,,,,,0,91,91,67,1
,,,,,,,,,,,,,,,,,199309,18,2022-02-01_14h14.58.374,lexical_decision_task_DD,2021.2.3,Win32,61.15459883,,,,,,,,,,,0.7133,0,,,,,,,,,,,,,,,,,,,,,,,,-0.054629617,0.226851848,0,0,0,,,,,,,LAGOON,LB,z,m,./images/LAGOONLB.png,,,,,,,,,m,0,0.7133,,,,,,,,0,92,92,131,1
,,,,,,,,,,,,,,,,,199309,18,2022-02-01_14h14.58.374,lexical_decision_task_DD,2021.2.3,Win32,61.15459883,,,,,,,,,,,1.0213,1,,,,,,,,,,,,,,,,,,,,,,,,-0.054629617,0.226851848,0,0,0,,,,,,,STATUE,C,z,m,./images/STATUE.png,,,,,,,,,z,1,1.0213,,,,,,,,0,93,93,150,1
,,,,,,,,,,,,,,,,,199309,18,2022-02-01_14h14.58.374,lexical_decision_task_DD,2021.2.3,Win32,61.15459883,,,,,,,,,,,0.6799,1,,,,,,,,,,,,,,,,,,,,,,,,-0.054629617,0.226851848,0,0,0,,,,,,,STRING,LB,m,m,./images/STRINGLB.png,,,,,,,,,m,1,0.6799,,,,,,,,0,94,94,41,1
,,,,,,,,,,,,,,,,,199309,18,2022-02-01_14h14.58.374,lexical_decision_task_DD,2021.2.3,Win32,61.15459883,,,,,,,,,,,0.8365,1,,,,,,,,,,,,,,,,,,,,,,,,-0.054629617,0.226851848,0,0,0,,,,,,,SUNSET,HB,m,m,./images/SUNSETHB.png,,,,,,,,,m,1,0.8365,,,,,,,,0,95,95,82,1
,,,,,,,,,,,,,,,,,199309,18,2022-02-01_14h14.58.374,lexical_decision_task_DD,2021.2.3,Win32,61.15459883,,,,,,,,,,,0.431,1,,,,,,,,,,,,,,,,,,,,,,,,-0.054629617,0.226851848,0,0,0,,,,,,,BANNER,HB,m,m,./images/BANNERHB.png,,,,,,,,,m,1,0.431,,,,,,,,0,96,96,52,1
,,,,,,,,,,,,,,,,,199309,18,2022-02-01_14h14.58.374,lexical_decision_task_DD,2021.2.3,Win32,61.15459883,,,,,,,,,,,0.6521,1,,,,,,,,,,,,,,,,,,,,,,,,-0.054629617,0.226851848,0,0,0,,,,,,,ATTIC,C,m,m,./images/ATTIC.png,,,,,,,,,m,1,0.6521,,,,,,,,0,97,97,27,1
,,,,,,,,,,,,,,,,,199309,18,2022-02-01_14h14.58.374,lexical_decision_task_DD,2021.2.3,Win32,61.15459883,,,,,,,,,,,0.8664,0,,,,,,,,,,,,,,,,,,,,,,,,-0.054629617,0.226851848,0,0,0,,,,,,,WALNUT,C,z,m,./images/WALNUT.png,,,,,,,,,m,0,0.8664,,,,,,,,0,98,98,84,1
,,,,,,,,,,,,,,,,,199309,18,2022-02-01_14h14.58.374,lexical_decision_task_DD,2021.2.3,Win32,61.15459883,,,,,,,,,,,0.9553,0,,,,,,,,,,,,,,,,,,,,,,,,-0.054629617,0.226851848,0,0,0,,,,,,,CHALK,HB,z,m,./images/CHALKHB.png,,,,,,,,,m,0,0.9553,,,,,,,,0,99,99,109,1
,,,,,,,,,,,,,,,,,199309,18,2022-02-01_14h14.58.374,lexical_decision_task_DD,2021.2.3,Win32,61.15459883,,,,,,,,,,,0.4382,1,,,,,,,,,,,,,,,,,,,,,,,,-0.054629617,0.226851848,0,0,0,,,,,,,SHELF,C,m,m,./images/SHELF.png,,,,,,,,,m,1,0.4382,,,,,,,,0,100,100,39,1
,,,,,,,,,,,,,,,,,199309,18,2022-02-01_14h14.58.374,lexical_decision_task_DD,2021.2.3,Win32,61.15459883,,,,,,,,,,,1.3437,1,,,,,,,,,,,,,,,,,,,,,,,,-0.054629617,0.226851848,0,0,0,,,,,,,CRUMB,LB,m,m,./images/CRUMBLB.png,,,,,,,,,m,1,1.3437,,,,,,,,0,101,101,29,1
,,,,,,,,,,,,,,,,,199309,18,2022-02-01_14h14.58.374,lexical_decision_task_DD,2021.2.3,Win32,61.15459883,,,,,,,,,,,2.6633,0,,,,,,,,,,,,,,,,,,,,,,,,-0.054629617,0.226851848,0,0,0,,,,,,,FENCE,LB,z,m,./images/FENCELB.png,,,,,,,,,m,0,2.6633,,,,,,,,0,102,102,98,1
,,,,,,,,,,,,,,,,,199309,18,2022-02-01_14h14.58.374,lexical_decision_task_DD,2021.2.3,Win32,61.15459883,,,,,,,,,,,1.0325,1,,,,,,,,,,,,,,,,,,,,,,,,-0.054629617,0.226851848,0,0,0,,,,,,,TRIPOD,C,m,m,./images/TRIPOD.png,,,,,,,,,m,1,1.0325,,,,,,,,0,103,103,54,1
,,,,,,,,,,,,,,,,,199309,18,2022-02-01_14h14.58.374,lexical_decision_task_DD,2021.2.3,Win32,61.15459883,,,,,,,,,,,0.5457,1,,,,,,,,,,,,,,,,,,,,,,,,-0.054629617,0.226851848,0,0,0,,,,,,,SNACK,HB,m,m,./images/SNACKHB.png,,,,,,,,,m,1,0.5457,,,,,,,,0,104,104,73,1
,,,,,,,,,,,,,,,,,199309,18,2022-02-01_14h14.58.374,lexical_decision_task_DD,2021.2.3,Win32,61.15459883,,,,,,,,,,,0.6021,0,,,,,,,,,,,,,,,,,,,,,,,,-0.054629617,0.226851848,0,0,0,,,,,,,CANDY,C,z,m,./images/CANDY.png,,,,,,,,,m,0,0.6021,,,,,,,,0,105,105,123,1
,,,,,,,,,,,,,,,,,199309,18,2022-02-01_14h14.58.374,lexical_decision_task_DD,2021.2.3,Win32,61.15459883,,,,,,,,,,,0.7163,1,,,,,,,,,,,,,,,,,,,,,,,,-0.054629617,0.226851848,0,0,0,,,,,,,PURSE,LB,m,m,./images/PURSELB.png,,,,,,,,,m,1,0.7163,,,,,,,,0,106,106,62,1
,,,,,,,,,,,,,,,,,199309,18,2022-02-01_14h14.58.374,lexical_decision_task_DD,2021.2.3,Win32,61.15459883,,,,,,,,,,,0.7627,0,,,,,,,,,,,,,,,,,,,,,,,,-0.054629617,0.226851848,0,0,0,,,,,,,CLOUD,LB,z,m,./images/CLOUDLB.png,,,,,,,,,m,0,0.7627,,,,,,,,0,107,107,110,1
,,,,,,,,,,,,,,,,,199309,18,2022-02-01_14h14.58.374,lexical_decision_task_DD,2021.2.3,Win32,61.15459883,,,,,,,,,,,0.6087,0,,,,,,,,,,,,,,,,,,,,,,,,-0.054629617,0.226851848,0,0,0,,,,,,,SHIELD,C,z,m,./images/SHIELD.png,,,,,,,,,m,0,0.6087,,,,,,,,0,108,108,132,1
,,,,,,,,,,,,,,,,,199309,18,2022-02-01_14h14.58.374,lexical_decision_task_DD,2021.2.3,Win32,61.15459883,,,,,,,,,,,0.646,1,,,,,,,,,,,,,,,,,,,,,,,,-0.054629617,0.226851848,0,0,0,,,,,,,PLANK,HB,m,m,./images/PLANKHB.png,,,,,,,,,m,1,0.646,,,,,,,,0,109,109,1,1
,,,,,,,,,,,,,,,,,199309,18,2022-02-01_14h14.58.374,lexical_decision_task_DD,2021.2.3,Win32,61.15459883,,,,,,,,,,,0.7905,1,,,,,,,,,,,,,,,,,,,,,,,,-0.054629617,0.226851848,0,0,0,,,,,,,WEASEL,LB,m,m,./images/WEASELLB.png,,,,,,,,,m,1,0.7905,,,,,,,,0,110,110,80,1
,,,,,,,,,,,,,,,,,199309,18,2022-02-01_14h14.58.374,lexical_decision_task_DD,2021.2.3,Win32,61.15459883,,,,,,,,,,,0.708,1,,,,,,,,,,,,,,,,,,,,,,,,-0.054629617,0.226851848,0,0,0,,,,,,,SAUCE,C,z,m,./images/SAUCE.png,,,,,,,,,z,1,0.708,,,,,,,,0,111,111,135,1
,,,,,,,,,,,,,,,,,199309,18,2022-02-01_14h14.58.374,lexical_decision_task_DD,2021.2.3,Win32,61.15459883,,,,,,,,,,,1.424,1,,,,,,,,,,,,,,,,,,,,,,,,-0.054629617,0.226851848,0,0,0,,,,,,,BUBBLE,LB,z,m,./images/BUBBLELB.png,,,,,,,,,z,1,1.424,,,,,,,,0,112,112,155,1
,,,,,,,,,,,,,,,,,199309,18,2022-02-01_14h14.58.374,lexical_decision_task_DD,2021.2.3,Win32,61.15459883,,,,,,,,,,,0.7008,1,,,,,,,,,,,,,,,,,,,,,,,,-0.054629617,0.226851848,0,0,0,,,,,,,CLIFF,LB,z,m,./images/CLIFFLB.png,,,,,,,,,z,1,0.7008,,,,,,,,0,113,113,92,1
,,,,,,,,,,,,,,,,,199309,18,2022-02-01_14h14.58.374,lexical_decision_task_DD,2021.2.3,Win32,61.15459883,,,,,,,,,,,0.5332,1,,,,,,,,,,,,,,,,,,,,,,,,-0.054629617,0.226851848,0,0,0,,,,,,,DRILL,C,z,m,./images/DRILL.png,,,,,,,,,z,1,0.5332,,,,,,,,0,114,114,165,1
,,,,,,,,,,,,,,,,,199309,18,2022-02-01_14h14.58.374,lexical_decision_task_DD,2021.2.3,Win32,61.15459883,,,,,,,,,,,0.2961,0,,,,,,,,,,,,,,,,,,,,,,,,-0.054629617,0.226851848,0,0,0,,,,,,,DOUGH,HB,m,m,./images/DOUGHHB.png,,,,,,,,,z,0,0.2961,,,,,,,,0,115,115,19,1
,,,,,,,,,,,,,,,,,199309,18,2022-02-01_14h14.58.374,lexical_decision_task_DD,2021.2.3,Win32,61.15459883,,,,,,,,,,,0.5288,1,,,,,,,,,,,,,,,,,,,,,,,,-0.054629617,0.226851848,0,0,0,,,,,,,MOSQUE,HB,m,m,./images/MOSQUEHB.png,,,,,,,,,m,1,0.5288,,,,,,,,0,116,116,43,1
,,,,,,,,,,,,,,,,,199309,18,2022-02-01_14h14.58.374,lexical_decision_task_DD,2021.2.3,Win32,61.15459883,,,,,,,,,,,0.5423,1,,,,,,,,,,,,,,,,,,,,,,,,-0.054629617,0.226851848,0,0,0,,,,,,,QUILL,HB,m,m,./images/QUILLHB.png,,,,,,,,,m,1,0.5423,,,,,,,,0,117,117,31,1
,,,,,,,,,,,,,,,,,199309,18,2022-02-01_14h14.58.374,lexical_decision_task_DD,2021.2.3,Win32,61.15459883,,,,,,,,,,,1.3907,0,,,,,,,,,,,,,,,,,,,,,,,,-0.054629617,0.226851848,0,0,0,,,,,,,PISTOL,LB,z,m,./images/PISTOLLB.png,,,,,,,,,m,0,1.3907,,,,,,,,0,118,118,113,1
,,,,,,,,,,,,,,,,,199309,18,2022-02-01_14h14.58.374,lexical_decision_task_DD,2021.2.3,Win32,61.15459883,,,,,,,,,,,1.2227,0,,,,,,,,,,,,,,,,,,,,,,,,-0.054629617,0.226851848,0,0,0,,,,,,,LIZARD,LB,m,m,./images/LIZARDLB.png,,,,,,,,,z,0,1.2227,,,,,,,,0,119,119,44,1
,,,,,,,,,,,,,,,,,199309,18,2022-02-01_14h14.58.374,lexical_decision_task_DD,2021.2.3,Win32,61.15459883,,,,,,,,,,,0.7034,1,,,,,,,,,,,,,,,,,,,,,,,,-0.054629617,0.226851848,0,0,0,,,,,,,BURIAL,LB,m,m,./images/BURIALLB.png,,,,,,,,,m,1,0.7034,,,,,,,,0,120,120,59,1
,,,,,,,,,,,,,,,,,199309,18,2022-02-01_14h14.58.374,lexical_decision_task_DD,2021.2.3,Win32,61.15459883,,,,,,,,,,,1.1584,0,,,,,,,,,,,,,,,,,,,,,,,,-0.054629617,0.226851848,0,0,0,,,,,,,ARROW,C,z,m,./images/ARROW.png,,,,,,,,,m,0,1.1584,,,,,,,,0,121,121,153,1
,,,,,,,,,,,,,,,,,199309,18,2022-02-01_14h14.58.374,lexical_decision_task_DD,2021.2.3,Win32,61.15459883,,,,,,,,,,,0.713,1,,,,,,,,,,,,,,,,,,,,,,,,-0.054629617,0.226851848,0,0,0,,,,,,,MOOSE,C,m,m,./images/MOOSE.png,,,,,,,,,m,1,0.713,,,,,,,,0,122,122,57,1
,,,,,,,,,,,,,,,,,199309,18,2022-02-01_14h14.58.374,lexical_decision_task_DD,2021.2.3,Win32,61.15459883,,,,,,,,,,,0.8534,1,,,,,,,,,,,,,,,,,,,,,,,,-0.054629617,0.226851848,0,0,0,,,,,,,HAMMER,C,z,m,./images/HAMMER.png,,,,,,,,,z,1,0.8534,,,,,,,,0,123,123,159,1
,,,,,,,,,,,,,,,,,199309,18,2022-02-01_14h14.58.374,lexical_decision_task_DD,2021.2.3,Win32,61.15459883,,,,,,,,,,,0.6373,0,,,,,,,,,,,,,,,,,,,,,,,,-0.054629617,0.226851848,0,0,0,,,,,,,BUTTER,C,z,m,./images/BUTTER.png,,,,,,,,,m,0,0.6373,,,,,,,,0,124,124,111,1
,,,,,,,,,,,,,,,,,199309,18,2022-02-01_14h14.58.374,lexical_decision_task_DD,2021.2.3,Win32,61.15459883,,,,,,,,,,,0.753,0,,,,,,,,,,,,,,,,,,,,,,,,-0.054629617,0.226851848,0,0,0,space,,,,,,GLOVE,HB,z,m,./images/GLOVEHB.png,3.2414,,,,,,,,m,0,0.753,,,,,,,,0,125,125,157,1
,,,,,,,,,,,,,,,,,199309,18,2022-02-01_14h14.58.374,lexical_decision_task_DD,2021.2.3,Win32,61.15459883,,,,,,,,,,,1.2162,0,,,,,,,,,,,,,,,,,,,,,,,,-0.087037025,0.217592588,0,0,0,,,,,,,RULER,HB,z,m,./images/RULERHB.png,,,,,,,,,m,0,1.2162,,,,,,,,0,126,126,163,1
,,,,,,,,,,,,,,,,,199309,18,2022-02-01_14h14.58.374,lexical_decision_task_DD,2021.2.3,Win32,61.15459883,,,,,,,,,,,0.7672,1,,,,,,,,,,,,,,,,,,,,,,,,-0.087037025,0.217592588,0,0,0,,,,,,,TORCH,LB,m,m,./images/TORCHLB.png,,,,,,,,,m,1,0.7672,,,,,,,,0,127,127,68,1
,,,,,,,,,,,,,,,,,199309,18,2022-02-01_14h14.58.374,lexical_decision_task_DD,2021.2.3,Win32,61.15459883,,,,,,,,,,,0.3868,1,,,,,,,,,,,,,,,,,,,,,,,,-0.085185173,0.218518514,0,0,0,,,,,,,JUNGLE,LB,m,m,./images/JUNGLELB.png,,,,,,,,,m,1,0.3868,,,,,,,,0,128,128,83,1
,,,,,,,,,,,,,,,,,199309,18,2022-02-01_14h14.58.374,lexical_decision_task_DD,2021.2.3,Win32,61.15459883,,,,,,,,,,,0.433,1,,,,,,,,,,,,,,,,,,,,,,,,-0.085185173,0.218518514,0,0,0,,,,,,,MAGGOT,C,m,m,./images/MAGGOT.png,,,,,,,,,m,1,0.433,,,,,,,,0,129,129,33,1
,,,,,,,,,,,,,,,,,199309,18,2022-02-01_14h14.58.374,lexical_decision_task_DD,2021.2.3,Win32,61.15459883,,,,,,,,,,,0.2582,1,,,,,,,,,,,,,,,,,,,,,,,,-0.085185173,0.218518514,0,0,0,,,,,,,PACKET,LB,m,m,./images/PACKETLB.png,,,,,,,,,m,1,0.2582,,,,,,,,0,130,130,56,1
,,,,,,,,,,,,,,,,,199309,18,2022-02-01_14h14.58.374,lexical_decision_task_DD,2021.2.3,Win32,61.15459883,,,,,,,,,,,1.1,1,,,,,,,,,,,,,,,,,,,,,,,,-0.085185173,0.218518514,0,0,0,,,,,,,WHISKY,LB,z,m,./images/WHISKYLB.png,,,,,,,,,z,1,1.1,,,,,,,,0,131,131,167,1
,,,,,,,,,,,,,,,,,199309,18,2022-02-01_14h14.58.374,lexical_decision_task_DD,2021.2.3,Win32,61.15459883,,,,,,,,,,,0.7068,1,,,,,,,,,,,,,,,,,,,,,,,,-0.085185173,0.218518514,0,0,0,,,,,,,CANOE,HB,z,m,./images/CANOEHB.png,,,,,,,,,z,1,0.7068,,,,,,,,0,132,132,142,1
,,,,,,,,,,,,,,,,,199309,18,2022-02-01_14h14.58.374,lexical_decision_task_DD,2021.2.3,Win32,61.15459883,,,,,,,,,,,0.5008,0,,,,,,,,,,,,,,,,,,,,,,,,-0.085185173,0.218518514,0,0,0,,,,,,,BANANA,HB,z,m,./images/BANANAHB.png,,,,,,,,,m,0,0.5008,,,,,,,,0,133,133,154,1
,,,,,,,,,,,,,,,,,199309,18,2022-02-01_14h14.58.374,lexical_decision_task_DD,2021.2.3,Win32,61.15459883,,,,,,,,,,,0.4021,1,,,,,,,,,,,,,,,,,,,,,,,,-0.085185173,0.218518514,0,0,0,,,,,,,MONKEY,C,z,m,./images/MONKEY.png,,,,,,,,,z,1,0.4021,,,,,,,,0,134,134,129,1
,,,,,,,,,,,,,,,,,199309,18,2022-02-01_14h14.58.374,lexical_decision_task_DD,2021.2.3,Win32,61.15459883,,,,,,,,,,,0.7799,0,,,,,,,,,,,,,,,,,,,,,,,,-0.085185173,0.218518514,0,0,0,,,,,,,VALLEY,LB,z,m,./images/VALLEYLB.png,,,,,,,,,m,0,0.7799,,,,,,,,0,135,135,152,1
,,,,,,,,,,,,,,,,,199309,18,2022-02-01_14h14.58.374,lexical_decision_task_DD,2021.2.3,Win32,61.15459883,,,,,,,,,,,1.1802,0,,,,,,,,,,,,,,,,,,,,,,,,-0.085185173,0.218518514,0,0,0,,,,,,,STREAM,LB,z,m,./images/STREAMLB.png,,,,,,,,,m,0,1.1802,,,,,,,,0,136,136,125,1
,,,,,,,,,,,,,,,,,199309,18,2022-02-01_14h14.58.374,lexical_decision_task_DD,2021.2.3,Win32,61.15459883,,,,,,,,,,,0.7124,1,,,,,,,,,,,,,,,,,,,,,,,,-0.089814803,0.207407403,0,0,0,,,,,,,LADDER,LB,m,m,./images/LADDERLB.png,,,,,,,,,m,1,0.7124,,,,,,,,0,137,137,38,1
,,,,,,,,,,,,,,,,,199309,18,2022-02-01_14h14.58.374,lexical_decision_task_DD,2021.2.3,Win32,61.15459883,,,,,,,,,,,0.7685,1,,,,,,,,,,,,,,,,,,,,,,,,-0.089814803,0.207407403,0,0,0,,,,,,,DANCER,C,z,m,./images/DANCER.png,,,,,,,,,z,1,0.7685,,,,,,,,0,138,138,105,1
,,,,,,,,,,,,,,,,,199309,18,2022-02-01_14h14.58.374,lexical_decision_task_DD,2021.2.3,Win32,61.15459883,,,,,,,,,,,1.0965,1,,,,,,,,,,,,,,,,,,,,,,,,-0.089814803,0.207407403,0,0,0,,,,,,,GRAIN,C,m,m,./images/GRAIN.png,,,,,,,,,m,1,1.0965,,,,,,,,0,139,139,75,1
,,,,,,,,,,,,,,,,,199309,18,2022-02-01_14h14.58.374,lexical_decision_task_DD,2021.2.3,Win32,61.15459883,,,,,,,,,,,0.9086,1,,,,,,,,,,,,,,,,,,,,,,,,-0.089814803,0.207407403,0,0,0,,,,,,,FLESH,C,z,m,./images/FLESH.png,,,,,,,,,z,1,0.9086,,,,,,,,0,140,140,108,1
,,,,,,,,,,,,,,,,,199309,18,2022-02-01_14h14.58.374,lexical_decision_task_DD,2021.2.3,Win32,61.15459883,,,,,,,,,,,1.5694,0,,,,,,,,,,,,,,,,,,,,,,,,-0.089814803,0.207407403,0,0,0,,,,,,,BABOON,HB,m,m,./images/BABOONHB.png,,,,,,,,,z,0,1.5694,,,,,,,,0,141,141,58,1
,,,,,,,,,,,,,,,,,199309,18,2022-02-01_14h14.58.374,lexical_decision_task_DD,2021.2.3,Win32,61.15459883,,,,,,,,,,,1.9811,0,,,,,,,,,,,,,,,,,,,,,,,,-0.077777766,0.22407407,0,0,0,,,,,,,STORM,C,m,m,./images/STORM.png,,,,,,,,,z,0,1.9811,,,,,,,,0,142,142,30,1
,,,,,,,,,,,,,,,,,199309,18,2022-02-01_14h14.58.374,lexical_decision_task_DD,2021.2.3,Win32,61.15459883,,,,,,,,,,,2.0043,0,,,,,,,,,,,,,,,,,,,,,,,,-0.077777766,0.22407407,0,0,0,,,,,,,PARADE,LB,z,m,./images/PARADELB.png,,,,,,,,,m,0,2.0043,,,,,,,,0,143,143,101,1
,,,,,,,,,,,,,,,,,199309,18,2022-02-01_14h14.58.374,lexical_decision_task_DD,2021.2.3,Win32,61.15459883,,,,,,,,,,,0.7006,0,,,,,,,,,,,,,,,,,,,,,,,,-0.065740728,0.224999996,0,0,0,,,,,,,STOVE,LB,z,m,./images/STOVELB.png,,,,,,,,,m,0,0.7006,,,,,,,,0,144,144,86,1
,,,,,,,,,,,,,,,,,199309,18,2022-02-01_14h14.58.374,lexical_decision_task_DD,2021.2.3,Win32,61.15459883,,,,,,,,,,,0.6296,1,,,,,,,,,,,,,,,,,,,,,,,,-0.065740728,0.224999996,0,0,0,,,,,,,PEARL,HB,m,m,./images/PEARLHB.png,,,,,,,,,m,1,0.6296,,,,,,,,0,145,145,46,1
,,,,,,,,,,,,,,,,,199309,18,2022-02-01_14h14.58.374,lexical_decision_task_DD,2021.2.3,Win32,61.15459883,,,,,,,,,,,0.6986,1,,,,,,,,,,,,,,,,,,,,,,,,-0.065740728,0.224999996,0,0,0,,,,,,,MELON,HB,m,m,./images/MELONHB.png,,,,,,,,,m,1,0.6986,,,,,,,,0,146,146,22,1
,,,,,,,,,,,,,,,,,199309,18,2022-02-01_14h14.58.374,lexical_decision_task_DD,2021.2.3,Win32,61.15459883,,,,,,,,,,,0.67,0,,,,,,,,,,,,,,,,,,,,,,,,-0.065740728,0.224999996,0,0,0,,,,,,,BIRTH,HB,m,m,./images/BIRTHHB.png,,,,,,,,,z,0,0.67,,,,,,,,0,147,147,37,1
,,,,,,,,,,,,,,,,,199309,18,2022-02-01_14h14.58.374,lexical_decision_task_DD,2021.2.3,Win32,61.15459883,,,,,,,,,,,0.5624,0,,,,,,,,,,,,,,,,,,,,,,,,-0.065740728,0.224999996,0,0,0,,,,,,,CLOWN,HB,z,m,./images/CLOWNHB.png,,,,,,,,,m,0,0.5624,,,,,,,,0,148,148,106,1
,,,,,,,,,,,,,,,,,199309,18,2022-02-01_14h14.58.374,lexical_decision_task_DD,2021.2.3,Win32,61.15459883,,,,,,,,,,,0.7294,1,,,,,,,,,,,,,,,,,,,,,,,,-0.064814803,0.224999996,0,0,0,,,,,,,JELLY,HB,m,m,./images/JELLYHB.png,,,,,,,,,m,1,0.7294,,,,,,,,0,149,149,64,1
,,,,,,,,,,,,,,,,,199309,18,2022-02-01_14h14.58.374,lexical_decision_task_DD,2021.2.3,Win32,61.15459883,,,,,,,,,,,0.8374,1,,,,,,,,,,,,,,,,,,,,,,,,-0.064814803,0.224999996,0,0,0,,,,,,,GREASE,C,m,m,./images/GREASE.png,,,,,,,,,m,1,0.8374,,,,,,,,0,150,150,15,1
,,,,,,,,,,,,,,,,,199309,18,2022-02-01_14h14.58.374,lexical_decision_task_DD,2021.2.3,Win32,61.15459883,,,,,,,,,,,0.8733,0,,,,,,,,,,,,,,,,,,,,,,,,-0.064814803,0.224999996,0,0,0,,,,,,,BOILER,C,z,m,./images/BOILER.png,,,,,,,,,m,0,0.8733,,,,,,,,0,151,151,120,1
,,,,,,,,,,,,,,,,,199309,18,2022-02-01_14h14.58.374,lexical_decision_task_DD,2021.2.3,Win32,61.15459883,,,,,,,,,,,0.6168,0,,,,,,,,,,,,,,,,,,,,,,,,-0.064814803,0.224999996,0,0,0,,,,,,,ENGINE,LB,z,m,./images/ENGINELB.png,,,,,,,,,m,0,0.6168,,,,,,,,0,152,152,122,1
,,,,,,,,,,,,,,,,,199309,18,2022-02-01_14h14.58.374,lexical_decision_task_DD,2021.2.3,Win32,61.15459883,,,,,,,,,,,1.0421,1,,,,,,,,,,,,,,,,,,,,,,,,-0.067592524,0.224999996,0,0,0,,,,,,,POKER,HB,z,m,./images/POKERHB.png,,,,,,,,,z,1,1.0421,,,,,,,,0,153,153,151,1
,,,,,,,,,,,,,,,,,199309,18,2022-02-01_14h14.58.374,lexical_decision_task_DD,2021.2.3,Win32,61.15459883,,,,,,,,,,,0.7254,0,,,,,,,,,,,,,,,,,,,,,,,,-0.067592524,0.224999996,0,0,0,,,,,,,BUNNY,HB,z,m,./images/BUNNYHB.png,,,,,,,,,m,0,0.7254,,,,,,,,0,154,154,97,1
,,,,,,,,,,,,,,,,,199309,18,2022-02-01_14h14.58.374,lexical_decision_task_DD,2021.2.3,Win32,61.15459883,,,,,,,,,,,0.6961,0,,,,,,,,,,,,,,,,,,,,,,,,-0.067592524,0.224999996,0,0,0,,,,,,,COOKER,C,m,m,./images/COOKER.png,,,,,,,,,z,0,0.6961,,,,,,,,0,155,155,69,1
,,,,,,,,,,,,,,,,,199309,18,2022-02-01_14h14.58.374,lexical_decision_task_DD,2021.2.3,Win32,61.15459883,,,,,,,,,,,0.6751,0,,,,,,,,,,,,,,,,,,,,,,,,-0.067592524,0.224999996,0,0,0,,,,,,,FINGER,C,m,m,./images/FINGER.png,,,,,,,,,z,0,0.6751,,,,,,,,0,156,156,3,1
,,,,,,,,,,,,,,,,,199309,18,2022-02-01_14h14.58.374,lexical_decision_task_DD,2021.2.3,Win32,61.15459883,,,,,,,,,,,0.6299,1,,,,,,,,,,,,,,,,,,,,,,,,-0.067592524,0.224999996,0,0,0,,,,,,,PEACH,LB,m,m,./images/PEACHLB.png,,,,,,,,,m,1,0.6299,,,,,,,,0,157,157,35,1
,,,,,,,,,,,,,,,,,199309,18,2022-02-01_14h14.58.374,lexical_decision_task_DD,2021.2.3,Win32,61.15459883,,,,,,,,,,,0.7208,0,,,,,,,,,,,,,,,,,,,,,,,,-0.067592524,0.224999996,0,0,0,,,,,,,NOOSE,C,m,m,./images/NOOSE.png,,,,,,,,,z,0,0.7208,,,,,,,,0,158,158,72,1
,,,,,,,,,,,,,,,,,199309,18,2022-02-01_14h14.58.374,lexical_decision_task_DD,2021.2.3,Win32,61.15459883,,,,,,,,,,,12.9116,0,,,,,,,,,,,,,,,,,,,,,,,,-0.068518506,0.224999996,0,0,0,,,,,,,CHAIN,C,z,m,./images/CHAIN.png,,,,,,,,,m,0,12.9116,,,,,,,,0,159,159,126,1
,,,,,,,,,,,,,,,,,199309,18,2022-02-01_14h14.58.374,lexical_decision_task_DD,2021.2.3,Win32,61.15459883,,,,,,,,,,,0.6304,1,,,,,,,,,,,,,,,,,,,,,,,,-0.068518506,0.224999996,0,0,0,,,,,,,CANDLE,HB,m,m,./images/CANDLEHB.png,,,,,,,,,m,1,0.6304,,,,,,,,0,160,160,61,1
,,,,,,,,,,,,,,,,,199309,18,2022-02-01_14h14.58.374,lexical_decision_task_DD,2021.2.3,Win32,61.15459883,,,,,,,,,,,0.9149,0,,,,,,,,,,,,,,,,,,,,,,,,-0.065740728,0.224999996,0,0,0,,,,,,,DESERT,HB,z,m,./images/DESERTHB.png,,,,,,,,,m,0,0.9149,,,,,,,,0,161,161,136,1
,,,,,,,,,,,,,,,,,199309,18,2022-02-01_14h14.58.374,lexical_decision_task_DD,2021.2.3,Win32,61.15459883,,,,,,,,,,,1.2953,1,,,,,,,,,,,,,,,,,,,,,,,,-0.065740728,0.224999996,0,0,0,,,,,,,LLAMA,LB,z,m,./images/LLAMALB.png,,,,,,,,,z,1,1.2953,,,,,,,,0,162,162,119,1
,,,,,,,,,,,,,,,,,199309,18,2022-02-01_14h14.58.374,lexical_decision_task_DD,2021.2.3,Win32,61.15459883,,,,,,,,,,,0.757,0,,,,,,,,,,,,,,,,,,,,,,,,-0.063888877,0.224999996,0,0,0,,,,,,,PLANET,LB,z,m,./images/PLANETLB.png,,,,,,,,,m,0,0.757,,,,,,,,0,163,163,164,1
,,,,,,,,,,,,,,,,,199309,18,2022-02-01_14h14.58.374,lexical_decision_task_DD,2021.2.3,Win32,61.15459883,,,,,,,,,,,0.4362,1,,,,,,,,,,,,,,,,,,,,,,,,-0.063888877,0.224999996,0,0,0,,,,,,,HOCKEY,LB,z,m,./images/HOCKEYLB.png,,,,,,,,,z,1,0.4362,,,,,,,,0,164,164,116,1
,,,,,,,,,,,,,,,,,199309,18,2022-02-01_14h14.58.374,lexical_decision_task_DD,2021.2.3,Win32,61.15459883,,,,,,,,,,,0.6073,1,,,,,,,,,,,,,,,,,,,,,,,,-0.063888877,0.224999996,0,0,0,,,,,,,BARREL,LB,m,m,./images/BARRELLB.png,,,,,,,,,m,1,0.6073,,,,,,,,0,165,165,32,1
,,,,,,,,,,,,,,,,,199309,18,2022-02-01_14h14.58.374,lexical_decision_task_DD,2021.2.3,Win32,61.15459883,,,,,,,,,,,0.7249,1,,,,,,,,,,,,,,,,,,,,,,,,-0.063888877,0.224999996,0,0,0,,,,,,,SCREW,C,m,m,./images/SCREW.png,,,,,,,,,m,1,0.7249,,,,,,,,0,166,166,24,1
,,,,,,,,,,,,,,,,,199309,18,2022-02-01_14h14.58.374,lexical_decision_task_DD,2021.2.3,Win32,61.15459883,,,,,,,,,,,0.7132,1,,,,,,,,,,,,,,,,,,,,,,,,-0.063888877,0.224999996,0,0,0,,,,,,,JAGUAR,C,m,m,./images/JAGUAR.png,,,,,,,,,m,1,0.7132,,,,,,,,0,167,167,18,1
