key_resp.keys,key_resp.rt,instr_done_touch.x,instr_done_touch.y,instr_done_touch.leftButton,instr_done_touch.midButton,instr_done_touch.rightButton,instruction_pages.thisRepN,instruction_pages.thisTrialN,instruction_pages.thisN,instruction_pages.thisIndex,instruction_pages.ran,pageN,phase,instruct_text,has_image,instruct_image,participant,age,date,expName,psychopyVersion,OS,frameRate,response.keys,response.corr,response.rt,touch_resp.x,touch_resp.y,touch_resp.leftButton,touch_resp.midButton,touch_resp.rightButton,touch_resp.time,touch_resp.clicked_name,rt,corr,practrials.thisRepN,practrials.thisTrialN,practrials.thisN,practrials.thisIndex,practrials.ran,TrialID,Target,corrAns,end_of_practice_trials_pages.thisRepN,end_of_practice_trials_pages.thisTrialN,end_of_practice_trials_pages.thisN,end_of_practice_trials_pages.thisIndex,end_of_practice_trials_pages.ran,key_resp_2.keys,key_resp_2.corr,key_resp_2.rt,targ_click.x,targ_click.y,targ_click.leftButton,targ_click.midButton,targ_click.rightButton,targ_click.time,targ_click.clicked_name,break_done_touch.x,break_done_touch.y,break_done_touch.leftButton,break_done_touch.midButton,break_done_touch.rightButton,break_done_keyboard.keys,maintrials.thisRepN,maintrials.thisTrialN,maintrials.thisN,maintrials.thisIndex,maintrials.ran,string,blur,study,lex,stim_path,break_done_keyboard.rt,test_instructions.thisRepN,test_instructions.thisTrialN,test_instructions.thisN,test_instructions.thisIndex,test_instructions.ran,instr_done_touch.clicked_name,key_resp_3.keys,key_resp_3.corr,key_resp_3.rt,test_click.x,test_click.y,test_click.leftButton,test_click.midButton,test_click.rightButton,test_click.time,test_click.clicked_name,test_phase.thisRepN,test_phase.thisTrialN,test_phase.thisN,test_phase.thisIndex,test_phase.ran
space,21.911,-0.689313471,0.04025937,0,0,0,0,0,0,0,1,1,instructions,"INSTRUCTIONS
At the start of each trial, look at the plus sign  (+) in the center of the screen.  This tells you that a trial is about to begin and where to look. Second, the plus sign will disappear and a string of letters will appear. Your task is to determine if the string of letters is a word or not. If the item is a word press the M key (on keyboard)  or touch the word button (phone/tablet).  If the item is not a word,  press the  Z key (on keyboard)  or touch the nonword button (on phone/tablet). 
Press the space bar or touch  continue.",0,,199300,19,2022-01-30_13h24.20.479,lexical_decision_task_DD_L6,2021.2.3,MacIntel,60.0024001,,,,,,,,,,,,,,,,,,,,,,,,,,,,,,,,,,,,,,,,,,,,,,,,,,,,,,,,,,,,,,,,,,,,,,,,,
space,7.5213,-0.689313471,0.04025937,0,0,0,0,1,1,1,1,2,instructions,"If your device has a keyboard, press the 'Z' key for nonwords and the 'M' key for words.





Press the space bar or touch the button below to continue.",0,keyboard-example.gif,199300,19,2022-01-30_13h24.20.479,lexical_decision_task_DD_L6,2021.2.3,MacIntel,60.0024001,,,,,,,,,,,,,,,,,,,,,,,,,,,,,,,,,,,,,,,,,,,,,,,,,,,,,,,,,,,,,,,,,,,,,,,,,
space,3.0356,-0.689313471,0.04025937,0,0,0,0,2,2,2,1,3,instructions,"If you are using a touchscreen only device, use the buttons on the screen. Do not use the mouse.





Press the space bar or touch the button below to continue.",0,touchscreen-example.gif,199300,19,2022-01-30_13h24.20.479,lexical_decision_task_DD_L6,2021.2.3,MacIntel,60.0024001,,,,,,,,,,,,,,,,,,,,,,,,,,,,,,,,,,,,,,,,,,,,,,,,,,,,,,,,,,,,,,,,,,,,,,,,,
space,5.7081,-0.689313471,0.04025937,0,0,0,0,3,3,3,1,4,instructions,"It is very important that you respond as quickly and accurately as possible, as each letter string will only be on the screen for two seconds. If you do not respond within this time, the message 'Too slow!' will be displayed and the experiment will progress to the next letter string. The first 20 trials will be practice trials and you will receive feedback on your answers. 

Press the space bar or touch the button below to start the practice trials.",0,,199300,19,2022-01-30_13h24.20.479,lexical_decision_task_DD_L6,2021.2.3,MacIntel,60.0024001,,,,,,,,,,,,,,,,,,,,,,,,,,,,,,,,,,,,,,,,,,,,,,,,,,,,,,,,,,,,,,,,,,,,,,,,,
,,,,,,,,,,,,,,,,,199300,19,2022-01-30_13h24.20.479,lexical_decision_task_DD_L6,2021.2.3,MacIntel,60.0024001,m,1,1.0655,,,,,,,,1.0655,1,0,0,0,4,1,1001,SQUEAK,m,,,,,,,,,,,,,,,,,,,,,,,,,,,,,,,,,,,,,,,,,,,,,,,,,,,,,
,,,,,,,,,,,,,,,,,199300,19,2022-01-30_13h24.20.479,lexical_decision_task_DD_L6,2021.2.3,MacIntel,60.0024001,m,1,0.7593,,,,,,,,0.7593,1,0,1,1,1,1,1001,ADJUST,m,,,,,,,,,,,,,,,,,,,,,,,,,,,,,,,,,,,,,,,,,,,,,,,,,,,,,
,,,,,,,,,,,,,,,,,199300,19,2022-01-30_13h24.20.479,lexical_decision_task_DD_L6,2021.2.3,MacIntel,60.0024001,m,1,0.7319,,,,,,,,0.7319,1,0,2,2,0,1,1001,UTOPIA,m,,,,,,,,,,,,,,,,,,,,,,,,,,,,,,,,,,,,,,,,,,,,,,,,,,,,,
,,,,,,,,,,,,,,,,,199300,19,2022-01-30_13h24.20.479,lexical_decision_task_DD_L6,2021.2.3,MacIntel,60.0024001,m,1,0.6315,,,,,,,,0.6315,1,0,3,3,2,1,1001,ALMOND,m,,,,,,,,,,,,,,,,,,,,,,,,,,,,,,,,,,,,,,,,,,,,,,,,,,,,,
,,,,,,,,,,,,,,,,,199300,19,2022-01-30_13h24.20.479,lexical_decision_task_DD_L6,2021.2.3,MacIntel,60.0024001,z,1,0.8935,,,,,,,,0.8935,1,0,4,4,13,1,1001,ROUPET,z,,,,,,,,,,,,,,,,,,,,,,,,,,,,,,,,,,,,,,,,,,,,,,,,,,,,,
,,,,,,,,,,,,,,,,,199300,19,2022-01-30_13h24.20.479,lexical_decision_task_DD_L6,2021.2.3,MacIntel,60.0024001,z,1,0.8334,,,,,,,,0.8334,1,0,5,5,8,1,1001,ASLERT,z,,,,,,,,,,,,,,,,,,,,,,,,,,,,,,,,,,,,,,,,,,,,,,,,,,,,,
,,,,,,,,,,,,,,,,,199300,19,2022-01-30_13h24.20.479,lexical_decision_task_DD_L6,2021.2.3,MacIntel,60.0024001,z,1,0.7592,,,,,,,,0.7592,1,0,6,6,9,1,1001,FARINY,z,,,,,,,,,,,,,,,,,,,,,,,,,,,,,,,,,,,,,,,,,,,,,,,,,,,,,
,,,,,,,,,,,,,,,,,199300,19,2022-01-30_13h24.20.479,lexical_decision_task_DD_L6,2021.2.3,MacIntel,60.0024001,z,1,0.7097,,,,,,,,0.7097,1,0,7,7,14,1,1001,THRALE,z,,,,,,,,,,,,,,,,,,,,,,,,,,,,,,,,,,,,,,,,,,,,,,,,,,,,,
,,,,,,,,,,,,,,,,,199300,19,2022-01-30_13h24.20.479,lexical_decision_task_DD_L6,2021.2.3,MacIntel,60.0024001,z,1,0.6818,,,,,,,,0.6818,1,0,8,8,11,1,1001,RASHET,z,,,,,,,,,,,,,,,,,,,,,,,,,,,,,,,,,,,,,,,,,,,,,,,,,,,,,
,,,,,,,,,,,,,,,,,199300,19,2022-01-30_13h24.20.479,lexical_decision_task_DD_L6,2021.2.3,MacIntel,60.0024001,z,1,0.6299,,,,,,,,0.6299,1,0,9,9,10,1,1001,INLADE,z,,,,,,,,,,,,,,,,,,,,,,,,,,,,,,,,,,,,,,,,,,,,,,,,,,,,,
,,,,,,,,,,,,,,,,,199300,19,2022-01-30_13h24.20.479,lexical_decision_task_DD_L6,2021.2.3,MacIntel,60.0024001,z,1,0.5524,,,,,,,,0.5524,1,0,10,10,12,1,1001,SPRINY,z,,,,,,,,,,,,,,,,,,,,,,,,,,,,,,,,,,,,,,,,,,,,,,,,,,,,,
,,,,,,,,,,,,,,,,,199300,19,2022-01-30_13h24.20.479,lexical_decision_task_DD_L6,2021.2.3,MacIntel,60.0024001,m,1,0.6116,,,,,,,,0.6116,1,0,11,11,7,1,1001,VOLUME,m,,,,,,,,,,,,,,,,,,,,,,,,,,,,,,,,,,,,,,,,,,,,,,,,,,,,,
,,,,,,,,,,,,,,,,,199300,19,2022-01-30_13h24.20.479,lexical_decision_task_DD_L6,2021.2.3,MacIntel,60.0024001,m,1,0.5796,,,,,,,,0.5796,1,0,12,12,3,1,1001,MATRIX,m,,,,,,,,,,,,,,,,,,,,,,,,,,,,,,,,,,,,,,,,,,,,,,,,,,,,,
,,,,,,,,,,,,,,,,,199300,19,2022-01-30_13h24.20.479,lexical_decision_task_DD_L6,2021.2.3,MacIntel,60.0024001,m,1,0.4629,,,,,,,,0.4629,1,0,13,13,5,1,1001,OBTAIN,m,,,,,,,,,,,,,,,,,,,,,,,,,,,,,,,,,,,,,,,,,,,,,,,,,,,,,
,,,,,,,,,,,,,,,,,199300,19,2022-01-30_13h24.20.479,lexical_decision_task_DD_L6,2021.2.3,MacIntel,60.0024001,z,1,0.6133,,,,,,,,0.6133,1,0,14,14,15,1,1001,WHAISE,z,,,,,,,,,,,,,,,,,,,,,,,,,,,,,,,,,,,,,,,,,,,,,,,,,,,,,
,,,,,,,,,,,,,,,,,199300,19,2022-01-30_13h24.20.479,lexical_decision_task_DD_L6,2021.2.3,MacIntel,60.0024001,m,1,0.5692,,,,,,,,0.5692,1,0,15,15,6,1,1001,ZOMBIE,m,,,,,,,,,,,,,,,,,,,,,,,,,,,,,,,,,,,,,,,,,,,,,,,,,,,,,
space,8.847,-0.689313471,0.04025937,0,0,0,,,,,,1,end_of_practice,"You have completed the practice trials. During the experimental trials, you will not receive feedback. 
Before you begin, please ensure that you are in a comfortable and quiet location and will not be disturbed for about 15 minutes, as we cannot use your data if you do not complete all the trials. 
 When you are ready to start the experimental trials, please press space or touch the button below.",,,199300,19,2022-01-30_13h24.20.479,lexical_decision_task_DD_L6,2021.2.3,MacIntel,60.0024001,,,,,,,,,,,,,,,,,,,,,0,0,0,0,1,,,,,,,,,,,,,,,,,,,,,,,,,,,,,,,,,,,,,,,,,,,,,,,,
,,,,,,,,,,,,,,,,,199300,19,2022-01-30_13h24.20.479,lexical_decision_task_DD_L6,2021.2.3,MacIntel,60.0024001,,,,,,,,,,,1.1326,1,,,,,,,,,,,,,,m,1,1.1326,,,,,,,,-0.689313471,0.04025937,0,0,0,,0,0,0,78,1,BROOM,LB,old,m,./images/BROOMLB.png,,,,,,,,,,,,,,,,,,,,,,
,,,,,,,,,,,,,,,,,199300,19,2022-01-30_13h24.20.479,lexical_decision_task_DD_L6,2021.2.3,MacIntel,60.0024001,,,,,,,,,,,0.5479,1,,,,,,,,,,,,,,m,1,0.5479,,,,,,,,-0.689313471,0.04025937,0,0,0,,0,1,1,6,1,STAIN,LB,old,m,./images/STAINLB.png,,,,,,,,,,,,,,,,,,,,,,
,,,,,,,,,,,,,,,,,199300,19,2022-01-30_13h24.20.479,lexical_decision_task_DD_L6,2021.2.3,MacIntel,60.0024001,,,,,,,,,,,0.7931,1,,,,,,,,,,,,,,m,1,0.7931,,,,,,,,-0.689313471,0.04025937,0,0,0,,0,2,2,77,1,WHEEL,HB,old,m,./images/WHEELHB.png,,,,,,,,,,,,,,,,,,,,,,
,,,,,,,,,,,,,,,,,199300,19,2022-01-30_13h24.20.479,lexical_decision_task_DD_L6,2021.2.3,MacIntel,60.0024001,,,,,,,,,,,0.6466,1,,,,,,,,,,,,,,m,1,0.6466,,,,,,,,-0.689313471,0.04025937,0,0,0,,0,3,3,13,1,BUNNY,C,old,m,./images/BUNNY.png,,,,,,,,,,,,,,,,,,,,,,
,,,,,,,,,,,,,,,,,199300,19,2022-01-30_13h24.20.479,lexical_decision_task_DD_L6,2021.2.3,MacIntel,60.0024001,,,,,,,,,,,0.7852,1,,,,,,,,,,,,,,z,1,0.7852,,,,,,,,-0.689313471,0.04025937,0,0,0,,0,4,4,164,1,SGREW,LB,old,z,./images/SGREWLB.png,,,,,,,,,,,,,,,,,,,,,,
,,,,,,,,,,,,,,,,,199300,19,2022-01-30_13h24.20.479,lexical_decision_task_DD_L6,2021.2.3,MacIntel,60.0024001,,,,,,,,,,,0.5501,1,,,,,,,,,,,,,,m,1,0.5501,,,,,,,,-0.689313471,0.04025937,0,0,0,,0,5,5,49,1,BISHOP,C,old,m,./images/BISHOP.png,,,,,,,,,,,,,,,,,,,,,,
,,,,,,,,,,,,,,,,,199300,19,2022-01-30_13h24.20.479,lexical_decision_task_DD_L6,2021.2.3,MacIntel,60.0024001,,,,,,,,,,,0.6623,1,,,,,,,,,,,,,,z,1,0.6623,,,,,,,,-0.689313471,0.04025937,0,0,0,,0,6,6,87,1,TRING,C,old,z,./images/TRING.png,,,,,,,,,,,,,,,,,,,,,,
,,,,,,,,,,,,,,,,,199300,19,2022-01-30_13h24.20.479,lexical_decision_task_DD_L6,2021.2.3,MacIntel,60.0024001,,,,,,,,,,,0.7455,1,,,,,,,,,,,,,,m,1,0.7455,,,,,,,,-0.689313471,0.04025937,0,0,0,,0,7,7,68,1,VALLEY,HB,old,m,./images/VALLEYHB.png,,,,,,,,,,,,,,,,,,,,,,
,,,,,,,,,,,,,,,,,199300,19,2022-01-30_13h24.20.479,lexical_decision_task_DD_L6,2021.2.3,MacIntel,60.0024001,,,,,,,,,,,0.5262,1,,,,,,,,,,,,,,m,1,0.5262,,,,,,,,-0.689313471,0.04025937,0,0,0,,0,8,8,27,1,BUTTER,LB,old,m,./images/BUTTERLB.png,,,,,,,,,,,,,,,,,,,,,,
,,,,,,,,,,,,,,,,,199300,19,2022-01-30_13h24.20.479,lexical_decision_task_DD_L6,2021.2.3,MacIntel,60.0024001,,,,,,,,,,,0.4645,1,,,,,,,,,,,,,,m,1,0.4645,,,,,,,,-0.689313471,0.04025937,0,0,0,,0,9,9,48,1,SHIELD,LB,old,m,./images/SHIELDLB.png,,,,,,,,,,,,,,,,,,,,,,
,,,,,,,,,,,,,,,,,199300,19,2022-01-30_13h24.20.479,lexical_decision_task_DD_L6,2021.2.3,MacIntel,60.0024001,,,,,,,,,,,0.4818,1,,,,,,,,,,,,,,m,1,0.4818,,,,,,,,-0.689313471,0.04025937,0,0,0,,0,10,10,30,1,SLOPE,LB,old,m,./images/SLOPELB.png,,,,,,,,,,,,,,,,,,,,,,
,,,,,,,,,,,,,,,,,199300,19,2022-01-30_13h24.20.479,lexical_decision_task_DD_L6,2021.2.3,MacIntel,60.0024001,,,,,,,,,,,0.5961,1,,,,,,,,,,,,,,m,1,0.5961,,,,,,,,-0.689313471,0.04025937,0,0,0,,0,11,11,37,1,TIGER,C,old,m,./images/TIGER.png,,,,,,,,,,,,,,,,,,,,,,
,,,,,,,,,,,,,,,,,199300,19,2022-01-30_13h24.20.479,lexical_decision_task_DD_L6,2021.2.3,MacIntel,60.0024001,,,,,,,,,,,0.7143,1,,,,,,,,,,,,,,m,1,0.7143,,,,,,,,-0.689313471,0.04025937,0,0,0,,0,12,12,74,1,JUMPER,HB,old,m,./images/JUMPERHB.png,,,,,,,,,,,,,,,,,,,,,,
,,,,,,,,,,,,,,,,,199300,19,2022-01-30_13h24.20.479,lexical_decision_task_DD_L6,2021.2.3,MacIntel,60.0024001,,,,,,,,,,,0.5106,0,,,,,,,,,,,,,,z,0,0.5106,,,,,,,,-0.689313471,0.04025937,0,0,0,,0,13,13,25,1,CHALK,C,old,m,./images/CHALK.png,,,,,,,,,,,,,,,,,,,,,,
,,,,,,,,,,,,,,,,,199300,19,2022-01-30_13h24.20.479,lexical_decision_task_DD_L6,2021.2.3,MacIntel,60.0024001,,,,,,,,,,,0.5299,1,,,,,,,,,,,,,,m,1,0.5299,,,,,,,,-0.689313471,0.04025937,0,0,0,,0,14,14,17,1,PARADE,HB,old,m,./images/PARADEHB.png,,,,,,,,,,,,,,,,,,,,,,
,,,,,,,,,,,,,,,,,199300,19,2022-01-30_13h24.20.479,lexical_decision_task_DD_L6,2021.2.3,MacIntel,60.0024001,,,,,,,,,,,0.6497,1,,,,,,,,,,,,,,m,1,0.6497,,,,,,,,-0.689313471,0.04025937,0,0,0,,0,15,15,5,1,BAMBOO,HB,old,m,./images/BAMBOOHB.png,,,,,,,,,,,,,,,,,,,,,,
,,,,,,,,,,,,,,,,,199300,19,2022-01-30_13h24.20.479,lexical_decision_task_DD_L6,2021.2.3,MacIntel,60.0024001,,,,,,,,,,,0.6639,1,,,,,,,,,,,,,,z,1,0.6639,,,,,,,,-0.689313471,0.04025937,0,0,0,,0,16,16,93,1,SMONE,C,old,z,./images/SMONE.png,,,,,,,,,,,,,,,,,,,,,,
,,,,,,,,,,,,,,,,,199300,19,2022-01-30_13h24.20.479,lexical_decision_task_DD_L6,2021.2.3,MacIntel,60.0024001,,,,,,,,,,,0.8115,0,,,,,,,,,,,,,,m,0,0.8115,,,,,,,,-0.689313471,0.04025937,0,0,0,,0,17,17,151,1,TINKY,HB,old,z,./images/TINKYHB.png,,,,,,,,,,,,,,,,,,,,,,
,,,,,,,,,,,,,,,,,199300,19,2022-01-30_13h24.20.479,lexical_decision_task_DD_L6,2021.2.3,MacIntel,60.0024001,,,,,,,,,,,0.5503,1,,,,,,,,,,,,,,m,1,0.5503,,,,,,,,-0.689313471,0.04025937,0,0,0,,0,18,18,81,1,DRILL,LB,old,m,./images/DRILLLB.png,,,,,,,,,,,,,,,,,,,,,,
,,,,,,,,,,,,,,,,,199300,19,2022-01-30_13h24.20.479,lexical_decision_task_DD_L6,2021.2.3,MacIntel,60.0024001,,,,,,,,,,,0.5658,1,,,,,,,,,,,,,,m,1,0.5658,,,,,,,,-0.689313471,0.04025937,0,0,0,,0,19,19,52,1,DESERT,C,old,m,./images/DESERT.png,,,,,,,,,,,,,,,,,,,,,,
,,,,,,,,,,,,,,,,,199300,19,2022-01-30_13h24.20.479,lexical_decision_task_DD_L6,2021.2.3,MacIntel,60.0024001,,,,,,,,,,,0.9513,1,,,,,,,,,,,,,,m,1,0.9513,,,,,,,,-0.689313471,0.04025937,0,0,0,,0,20,20,8,1,CLIFF,HB,old,m,./images/CLIFFHB.png,,,,,,,,,,,,,,,,,,,,,,
,,,,,,,,,,,,,,,,,199300,19,2022-01-30_13h24.20.479,lexical_decision_task_DD_L6,2021.2.3,MacIntel,60.0024001,,,,,,,,,,,0.4832,1,,,,,,,,,,,,,,m,1,0.4832,,,,,,,,-0.689313471,0.04025937,0,0,0,,0,21,21,39,1,CANDY,LB,old,m,./images/CANDYLB.png,,,,,,,,,,,,,,,,,,,,,,
,,,,,,,,,,,,,,,,,199300,19,2022-01-30_13h24.20.479,lexical_decision_task_DD_L6,2021.2.3,MacIntel,60.0024001,,,,,,,,,,,0.61,1,,,,,,,,,,,,,,z,1,0.61,,,,,,,,-0.689313471,0.04025937,0,0,0,,0,22,22,156,1,HIXES,C,old,z,./images/HIXES.png,,,,,,,,,,,,,,,,,,,,,,
,,,,,,,,,,,,,,,,,199300,19,2022-01-30_13h24.20.479,lexical_decision_task_DD_L6,2021.2.3,MacIntel,60.0024001,,,,,,,,,,,0.8624,1,,,,,,,,,,,,,,z,1,0.8624,,,,,,,,-0.689313471,0.04025937,0,0,0,,0,23,23,102,1,DULLE,C,old,z,./images/DULLE.png,,,,,,,,,,,,,,,,,,,,,,
,,,,,,,,,,,,,,,,,199300,19,2022-01-30_13h24.20.479,lexical_decision_task_DD_L6,2021.2.3,MacIntel,60.0024001,,,,,,,,,,,0.647,1,,,,,,,,,,,,,,z,1,0.647,,,,,,,,-0.689313471,0.04025937,0,0,0,,0,24,24,105,1,MOKER,C,old,z,./images/MOKER.png,,,,,,,,,,,,,,,,,,,,,,
,,,,,,,,,,,,,,,,,199300,19,2022-01-30_13h24.20.479,lexical_decision_task_DD_L6,2021.2.3,MacIntel,60.0024001,,,,,,,,,,,0.4922,1,,,,,,,,,,,,,,m,1,0.4922,,,,,,,,-0.689313471,0.04025937,0,0,0,,0,25,25,16,1,GRAPE,C,old,m,./images/GRAPE.png,,,,,,,,,,,,,,,,,,,,,,
,,,,,,,,,,,,,,,,,199300,19,2022-01-30_13h24.20.479,lexical_decision_task_DD_L6,2021.2.3,MacIntel,60.0024001,,,,,,,,,,,0.6603,1,,,,,,,,,,,,,,m,1,0.6603,,,,,,,,-0.689313471,0.04025937,0,0,0,,0,26,26,12,1,BLOKE,LB,old,m,./images/BLOKELB.png,,,,,,,,,,,,,,,,,,,,,,
,,,,,,,,,,,,,,,,,199300,19,2022-01-30_13h24.20.479,lexical_decision_task_DD_L6,2021.2.3,MacIntel,60.0024001,,,,,,,,,,,0.5793,1,,,,,,,,,,,,,,m,1,0.5793,,,,,,,,-0.689313471,0.04025937,0,0,0,,0,27,27,79,1,RULER,C,old,m,./images/RULER.png,,,,,,,,,,,,,,,,,,,,,,
,,,,,,,,,,,,,,,,,199300,19,2022-01-30_13h24.20.479,lexical_decision_task_DD_L6,2021.2.3,MacIntel,60.0024001,,,,,,,,,,,0.642,1,,,,,,,,,,,,,,z,1,0.642,,,,,,,,-0.689313471,0.04025937,0,0,0,,0,28,28,134,1,TROSS,LB,old,z,./images/TROSSLB.png,,,,,,,,,,,,,,,,,,,,,,
,,,,,,,,,,,,,,,,,199300,19,2022-01-30_13h24.20.479,lexical_decision_task_DD_L6,2021.2.3,MacIntel,60.0024001,,,,,,,,,,,0.7121,1,,,,,,,,,,,,,,m,1,0.7121,,,,,,,,-0.689313471,0.04025937,0,0,0,,0,29,29,71,1,BUBBLE,HB,old,m,./images/BUBBLEHB.png,,,,,,,,,,,,,,,,,,,,,,
,,,,,,,,,,,,,,,,,199300,19,2022-01-30_13h24.20.479,lexical_decision_task_DD_L6,2021.2.3,MacIntel,60.0024001,,,,,,,,,,,0.6461,1,,,,,,,,,,,,,,z,1,0.6461,,,,,,,,-0.689313471,0.04025937,0,0,0,,0,30,30,117,1,STEEG,C,old,z,./images/STEEG.png,,,,,,,,,,,,,,,,,,,,,,
,,,,,,,,,,,,,,,,,199300,19,2022-01-30_13h24.20.479,lexical_decision_task_DD_L6,2021.2.3,MacIntel,60.0024001,,,,,,,,,,,1.1321,1,,,,,,,,,,,,,,m,1,1.1321,,,,,,,,-0.689313471,0.04025937,0,0,0,,0,31,31,41,1,STREAM,HB,old,m,./images/STREAMHB.png,,,,,,,,,,,,,,,,,,,,,,
,,,,,,,,,,,,,,,,,199300,19,2022-01-30_13h24.20.479,lexical_decision_task_DD_L6,2021.2.3,MacIntel,60.0024001,,,,,,,,,,,0.582,1,,,,,,,,,,,,,,m,1,0.582,,,,,,,,-0.689313471,0.04025937,0,0,0,,0,32,32,36,1,BOILER,LB,old,m,./images/BOILERLB.png,,,,,,,,,,,,,,,,,,,,,,
,,,,,,,,,,,,,,,,,199300,19,2022-01-30_13h24.20.479,lexical_decision_task_DD_L6,2021.2.3,MacIntel,60.0024001,,,,,,,,,,,0.5788,1,,,,,,,,,,,,,,m,1,0.5788,,,,,,,,-0.689313471,0.04025937,0,0,0,,0,33,33,0,1,WALNUT,LB,old,m,./images/WALNUTLB.png,,,,,,,,,,,,,,,,,,,,,,
,,,,,,,,,,,,,,,,,199300,19,2022-01-30_13h24.20.479,lexical_decision_task_DD_L6,2021.2.3,MacIntel,60.0024001,,,,,,,,,,,0.5632,1,,,,,,,,,,,,,,m,1,0.5632,,,,,,,,-0.689313471,0.04025937,0,0,0,,0,34,34,19,1,DONKEY,C,old,m,./images/DONKEY.png,,,,,,,,,,,,,,,,,,,,,,
,,,,,,,,,,,,,,,,,199300,19,2022-01-30_13h24.20.479,lexical_decision_task_DD_L6,2021.2.3,MacIntel,60.0024001,,,,,,,,,,,0.8649,1,,,,,,,,,,,,,,z,1,0.8649,,,,,,,,-0.689313471,0.04025937,0,0,0,,0,35,35,139,1,BLEAR,HB,old,z,./images/BLEARHB.png,,,,,,,,,,,,,,,,,,,,,,
,,,,,,,,,,,,,,,,,199300,19,2022-01-30_13h24.20.479,lexical_decision_task_DD_L6,2021.2.3,MacIntel,60.0024001,,,,,,,,,,,0.7986,1,,,,,,,,,,,,,,m,1,0.7986,,,,,,,,-0.689313471,0.04025937,0,0,0,,0,36,36,33,1,SAUNA,LB,old,m,./images/SAUNALB.png,,,,,,,,,,,,,,,,,,,,,,
,,,,,,,,,,,,,,,,,199300,19,2022-01-30_13h24.20.479,lexical_decision_task_DD_L6,2021.2.3,MacIntel,60.0024001,,,,,,,,,,,0.6462,1,,,,,,,,,,,,,,m,1,0.6462,,,,,,,,-0.689313471,0.04025937,0,0,0,,0,37,37,18,1,PARCEL,LB,old,m,./images/PARCELLB.png,,,,,,,,,,,,,,,,,,,,,,
,,,,,,,,,,,,,,,,,199300,19,2022-01-30_13h24.20.479,lexical_decision_task_DD_L6,2021.2.3,MacIntel,60.0024001,,,,,,,,,,,0.5928,1,,,,,,,,,,,,,,z,1,0.5928,,,,,,,,-0.689313471,0.04025937,0,0,0,,0,38,38,147,1,ZOLES,C,old,z,./images/ZOLES.png,,,,,,,,,,,,,,,,,,,,,,
,,,,,,,,,,,,,,,,,199300,19,2022-01-30_13h24.20.479,lexical_decision_task_DD_L6,2021.2.3,MacIntel,60.0024001,,,,,,,,,,,0.7926,1,,,,,,,,,,,,,,z,1,0.7926,,,,,,,,-0.689313471,0.04025937,0,0,0,,0,39,39,109,1,BURGE,HB,old,z,./images/BURGEHB.png,,,,,,,,,,,,,,,,,,,,,,
,,,,,,,,,,,,,,,,,199300,19,2022-01-30_13h24.20.479,lexical_decision_task_DD_L6,2021.2.3,MacIntel,60.0024001,,,,,,,,,,,0.6471,1,,,,,,,,,,,,,,z,1,0.6471,,,,,,,,-0.689313471,0.04025937,0,0,0,,0,40,40,144,1,NAIRY,C,old,z,./images/NAIRY.png,,,,,,,,,,,,,,,,,,,,,,
,,,,,,,,,,,,,,,,,199300,19,2022-01-30_13h24.20.479,lexical_decision_task_DD_L6,2021.2.3,MacIntel,60.0024001,,,,,,,,,,,0.6278,1,,,,,,,,,,,,,,z,1,0.6278,,,,,,,,-0.689313471,0.04025937,0,0,0,space,0,41,41,96,1,KEAMS,C,old,z,./images/KEAMS.png,4.8552,,,,,,,,,,,,,,,,,,,,,
,,,,,,,,,,,,,,,,,199300,19,2022-01-30_13h24.20.479,lexical_decision_task_DD_L6,2021.2.3,MacIntel,60.0024001,,,,,,,,,,,0.5939,1,,,,,,,,,,,,,,m,1,0.5939,,,,,,,,-0.689313471,0.04025937,0,0,0,,0,42,42,7,1,WAGON,C,old,m,./images/WAGON.png,,,,,,,,,,,,,,,,,,,,,,
,,,,,,,,,,,,,,,,,199300,19,2022-01-30_13h24.20.479,lexical_decision_task_DD_L6,2021.2.3,MacIntel,60.0024001,,,,,,,,,,,0.7166,1,,,,,,,,,,,,,,z,1,0.7166,,,,,,,,-0.689313471,0.04025937,0,0,0,,0,43,43,154,1,THINT,HB,old,z,./images/THINTHB.png,,,,,,,,,,,,,,,,,,,,,,
,,,,,,,,,,,,,,,,,199300,19,2022-01-30_13h24.20.479,lexical_decision_task_DD_L6,2021.2.3,MacIntel,60.0024001,,,,,,,,,,,0.4687,1,,,,,,,,,,,,,,m,1,0.4687,,,,,,,,-0.689313471,0.04025937,0,0,0,,0,44,44,54,1,CHERRY,LB,old,m,./images/CHERRYLB.png,,,,,,,,,,,,,,,,,,,,,,
,,,,,,,,,,,,,,,,,199300,19,2022-01-30_13h24.20.479,lexical_decision_task_DD_L6,2021.2.3,MacIntel,60.0024001,,,,,,,,,,,0.7228,1,,,,,,,,,,,,,,z,1,0.7228,,,,,,,,-0.689313471,0.04025937,0,0,0,,0,45,45,88,1,GLUSH,HB,old,z,./images/GLUSHHB.png,,,,,,,,,,,,,,,,,,,,,,
,,,,,,,,,,,,,,,,,199300,19,2022-01-30_13h24.20.479,lexical_decision_task_DD_L6,2021.2.3,MacIntel,60.0024001,,,,,,,,,,,0.6816,1,,,,,,,,,,,,,,m,1,0.6816,,,,,,,,-0.689313471,0.04025937,0,0,0,,0,46,46,53,1,POSTER,HB,old,m,./images/POSTERHB.png,,,,,,,,,,,,,,,,,,,,,,
,,,,,,,,,,,,,,,,,199300,19,2022-01-30_13h24.20.479,lexical_decision_task_DD_L6,2021.2.3,MacIntel,60.0024001,,,,,,,,,,,0.7146,1,,,,,,,,,,,,,,z,1,0.7146,,,,,,,,-0.689313471,0.04025937,0,0,0,,0,47,47,120,1,RINED,C,old,z,./images/RINED.png,,,,,,,,,,,,,,,,,,,,,,
,,,,,,,,,,,,,,,,,199300,19,2022-01-30_13h24.20.479,lexical_decision_task_DD_L6,2021.2.3,MacIntel,60.0024001,,,,,,,,,,,0.7154,0,,,,,,,,,,,,,,m,0,0.7154,,,,,,,,-0.689313471,0.04025937,0,0,0,,0,48,48,128,1,GRIFT,LB,old,z,./images/GRIFTLB.png,,,,,,,,,,,,,,,,,,,,,,
,,,,,,,,,,,,,,,,,199300,19,2022-01-30_13h24.20.479,lexical_decision_task_DD_L6,2021.2.3,MacIntel,60.0024001,,,,,,,,,,,0.8934,1,,,,,,,,,,,,,,z,1,0.8934,,,,,,,,-0.689313471,0.04025937,0,0,0,,0,49,49,142,1,PLASK,HB,old,z,./images/PLASKHB.png,,,,,,,,,,,,,,,,,,,,,,
,,,,,,,,,,,,,,,,,199300,19,2022-01-30_13h24.20.479,lexical_decision_task_DD_L6,2021.2.3,MacIntel,60.0024001,,,,,,,,,,,0.9795,1,,,,,,,,,,,,,,m,1,0.9795,,,,,,,,-0.689313471,0.04025937,0,0,0,,0,50,50,35,1,LLAMA,HB,old,m,./images/LLAMAHB.png,,,,,,,,,,,,,,,,,,,,,,
,,,,,,,,,,,,,,,,,199300,19,2022-01-30_13h24.20.479,lexical_decision_task_DD_L6,2021.2.3,MacIntel,60.0024001,,,,,,,,,,,1.0626,1,,,,,,,,,,,,,,z,1,1.0626,,,,,,,,-0.689313471,0.04025937,0,0,0,,0,51,51,100,1,DRIBS,HB,old,z,./images/DRIBSHB.png,,,,,,,,,,,,,,,,,,,,,,
,,,,,,,,,,,,,,,,,199300,19,2022-01-30_13h24.20.479,lexical_decision_task_DD_L6,2021.2.3,MacIntel,60.0024001,,,,,,,,,,,0.6922,1,,,,,,,,,,,,,,z,1,0.6922,,,,,,,,-0.689313471,0.04025937,0,0,0,,0,52,52,135,1,JOODY,C,old,z,./images/JOODY.png,,,,,,,,,,,,,,,,,,,,,,
,,,,,,,,,,,,,,,,,199300,19,2022-01-30_13h24.20.479,lexical_decision_task_DD_L6,2021.2.3,MacIntel,60.0024001,,,,,,,,,,,0.6151,1,,,,,,,,,,,,,,z,1,0.6151,,,,,,,,-0.689313471,0.04025937,0,0,0,,0,53,53,158,1,EGECT,LB,old,z,./images/EGECTLB.png,,,,,,,,,,,,,,,,,,,,,,
,,,,,,,,,,,,,,,,,199300,19,2022-01-30_13h24.20.479,lexical_decision_task_DD_L6,2021.2.3,MacIntel,60.0024001,,,,,,,,,,,1.2323,1,,,,,,,,,,,,,,z,1,1.2323,,,,,,,,-0.689313471,0.04025937,0,0,0,,0,54,54,127,1,NINDY,HB,old,z,./images/NINDYHB.png,,,,,,,,,,,,,,,,,,,,,,
,,,,,,,,,,,,,,,,,199300,19,2022-01-30_13h24.20.479,lexical_decision_task_DD_L6,2021.2.3,MacIntel,60.0024001,,,,,,,,,,,0.7965,1,,,,,,,,,,,,,,m,1,0.7965,,,,,,,,-0.689313471,0.04025937,0,0,0,,0,55,55,3,1,CRATER,LB,old,m,./images/CRATERLB.png,,,,,,,,,,,,,,,,,,,,,,
,,,,,,,,,,,,,,,,,199300,19,2022-01-30_13h24.20.479,lexical_decision_task_DD_L6,2021.2.3,MacIntel,60.0024001,,,,,,,,,,,0.6957,1,,,,,,,,,,,,,,m,1,0.6957,,,,,,,,-0.689313471,0.04025937,0,0,0,,0,56,56,83,1,WHISKY,HB,old,m,./images/WHISKYHB.png,,,,,,,,,,,,,,,,,,,,,,
,,,,,,,,,,,,,,,,,199300,19,2022-01-30_13h24.20.479,lexical_decision_task_DD_L6,2021.2.3,MacIntel,60.0024001,,,,,,,,,,,0.5781,1,,,,,,,,,,,,,,m,1,0.5781,,,,,,,,-0.689313471,0.04025937,0,0,0,,0,57,57,21,1,DANCER,LB,old,m,./images/DANCERLB.png,,,,,,,,,,,,,,,,,,,,,,
,,,,,,,,,,,,,,,,,199300,19,2022-01-30_13h24.20.479,lexical_decision_task_DD_L6,2021.2.3,MacIntel,60.0024001,,,,,,,,,,,0.5459,1,,,,,,,,,,,,,,m,1,0.5459,,,,,,,,-0.689313471,0.04025937,0,0,0,,0,58,58,24,1,FLESH,LB,old,m,./images/FLESHLB.png,,,,,,,,,,,,,,,,,,,,,,
,,,,,,,,,,,,,,,,,199300,19,2022-01-30_13h24.20.479,lexical_decision_task_DD_L6,2021.2.3,MacIntel,60.0024001,,,,,,,,,,,0.5622,1,,,,,,,,,,,,,,m,1,0.5622,,,,,,,,-0.689313471,0.04025937,0,0,0,,0,59,59,44,1,BASKET,HB,old,m,./images/BASKETHB.png,,,,,,,,,,,,,,,,,,,,,,
,,,,,,,,,,,,,,,,,199300,19,2022-01-30_13h24.20.479,lexical_decision_task_DD_L6,2021.2.3,MacIntel,60.0024001,,,,,,,,,,,0.6476,1,,,,,,,,,,,,,,m,1,0.6476,,,,,,,,-0.689313471,0.04025937,0,0,0,,0,60,60,40,1,SNAKE,C,old,m,./images/SNAKE.png,,,,,,,,,,,,,,,,,,,,,,
,,,,,,,,,,,,,,,,,199300,19,2022-01-30_13h24.20.479,lexical_decision_task_DD_L6,2021.2.3,MacIntel,60.0024001,,,,,,,,,,,0.6303,1,,,,,,,,,,,,,,z,1,0.6303,,,,,,,,-0.689313471,0.04025937,0,0,0,,0,61,61,123,1,SEDGE,C,old,z,./images/SEDGE.png,,,,,,,,,,,,,,,,,,,,,,
,,,,,,,,,,,,,,,,,199300,19,2022-01-30_13h24.20.479,lexical_decision_task_DD_L6,2021.2.3,MacIntel,60.0024001,,,,,,,,,,,0.7113,1,,,,,,,,,,,,,,z,1,0.7113,,,,,,,,-0.689313471,0.04025937,0,0,0,,0,62,62,129,1,PRANS,C,old,z,./images/PRANS.png,,,,,,,,,,,,,,,,,,,,,,
,,,,,,,,,,,,,,,,,199300,19,2022-01-30_13h24.20.479,lexical_decision_task_DD_L6,2021.2.3,MacIntel,60.0024001,,,,,,,,,,,0.6326,1,,,,,,,,,,,,,,m,1,0.6326,,,,,,,,-0.689313471,0.04025937,0,0,0,,0,63,63,66,1,STATUE,LB,old,m,./images/STATUELB.png,,,,,,,,,,,,,,,,,,,,,,
,,,,,,,,,,,,,,,,,199300,19,2022-01-30_13h24.20.479,lexical_decision_task_DD_L6,2021.2.3,MacIntel,60.0024001,,,,,,,,,,,0.7964,1,,,,,,,,,,,,,,z,1,0.7964,,,,,,,,-0.689313471,0.04025937,0,0,0,,0,64,64,150,1,NOOLS,C,old,z,./images/NOOLS.png,,,,,,,,,,,,,,,,,,,,,,
,,,,,,,,,,,,,,,,,199300,19,2022-01-30_13h24.20.479,lexical_decision_task_DD_L6,2021.2.3,MacIntel,60.0024001,,,,,,,,,,,0.5641,1,,,,,,,,,,,,,,m,1,0.5641,,,,,,,,-0.689313471,0.04025937,0,0,0,,0,65,65,9,1,DIVER,LB,old,m,./images/DIVERLB.png,,,,,,,,,,,,,,,,,,,,,,
,,,,,,,,,,,,,,,,,199300,19,2022-01-30_13h24.20.479,lexical_decision_task_DD_L6,2021.2.3,MacIntel,60.0024001,,,,,,,,,,,0.6665,1,,,,,,,,,,,,,,z,1,0.6665,,,,,,,,-0.689313471,0.04025937,0,0,0,,0,66,66,116,1,BALGY,LB,old,z,./images/BALGYLB.png,,,,,,,,,,,,,,,,,,,,,,
,,,,,,,,,,,,,,,,,199300,19,2022-01-30_13h24.20.479,lexical_decision_task_DD_L6,2021.2.3,MacIntel,60.0024001,,,,,,,,,,,0.7756,1,,,,,,,,,,,,,,z,1,0.7756,,,,,,,,-0.689313471,0.04025937,0,0,0,,0,67,67,85,1,CHULK,HB,old,z,./images/CHULKHB.png,,,,,,,,,,,,,,,,,,,,,,
,,,,,,,,,,,,,,,,,199300,19,2022-01-30_13h24.20.479,lexical_decision_task_DD_L6,2021.2.3,MacIntel,60.0024001,,,,,,,,,,,0.5955,1,,,,,,,,,,,,,,m,1,0.5955,,,,,,,,-0.689313471,0.04025937,0,0,0,,0,68,68,46,1,MUMMY,C,old,m,./images/MUMMY.png,,,,,,,,,,,,,,,,,,,,,,
,,,,,,,,,,,,,,,,,199300,19,2022-01-30_13h24.20.479,lexical_decision_task_DD_L6,2021.2.3,MacIntel,60.0024001,,,,,,,,,,,0.8951,1,,,,,,,,,,,,,,m,1,0.8951,,,,,,,,-0.689313471,0.04025937,0,0,0,,0,69,69,47,1,LAGOON,HB,old,m,./images/LAGOONHB.png,,,,,,,,,,,,,,,,,,,,,,
,,,,,,,,,,,,,,,,,199300,19,2022-01-30_13h24.20.479,lexical_decision_task_DD_L6,2021.2.3,MacIntel,60.0024001,,,,,,,,,,,0.5451,1,,,,,,,,,,,,,,z,1,0.5451,,,,,,,,-0.689313471,0.04025937,0,0,0,,0,70,70,152,1,FRAIN,LB,old,z,./images/FRAINLB.png,,,,,,,,,,,,,,,,,,,,,,
,,,,,,,,,,,,,,,,,199300,19,2022-01-30_13h24.20.479,lexical_decision_task_DD_L6,2021.2.3,MacIntel,60.0024001,,,,,,,,,,,0.8314,1,,,,,,,,,,,,,,z,1,0.8314,,,,,,,,-0.689313471,0.04025937,0,0,0,,0,71,71,160,1,VEETS,HB,old,z,./images/VEETSHB.png,,,,,,,,,,,,,,,,,,,,,,
,,,,,,,,,,,,,,,,,199300,19,2022-01-30_13h24.20.479,lexical_decision_task_DD_L6,2021.2.3,MacIntel,60.0024001,,,,,,,,,,,0.5987,1,,,,,,,,,,,,,,m,1,0.5987,,,,,,,,-0.689313471,0.04025937,0,0,0,,0,72,72,72,1,FLASK,LB,old,m,./images/FLASKLB.png,,,,,,,,,,,,,,,,,,,,,,
,,,,,,,,,,,,,,,,,199300,19,2022-01-30_13h24.20.479,lexical_decision_task_DD_L6,2021.2.3,MacIntel,60.0024001,,,,,,,,,,,0.8458,0,,,,,,,,,,,,,,m,0,0.8458,,,,,,,,-0.689313471,0.04025937,0,0,0,,0,73,73,166,1,SHORY,HB,old,z,./images/SHORYHB.png,,,,,,,,,,,,,,,,,,,,,,
,,,,,,,,,,,,,,,,,199300,19,2022-01-30_13h24.20.479,lexical_decision_task_DD_L6,2021.2.3,MacIntel,60.0024001,,,,,,,,,,,0.6594,1,,,,,,,,,,,,,,z,1,0.6594,,,,,,,,-0.689313471,0.04025937,0,0,0,,0,74,74,165,1,TROWN,C,old,z,./images/TROWN.png,,,,,,,,,,,,,,,,,,,,,,
,,,,,,,,,,,,,,,,,199300,19,2022-01-30_13h24.20.479,lexical_decision_task_DD_L6,2021.2.3,MacIntel,60.0024001,,,,,,,,,,,0.6312,1,,,,,,,,,,,,,,z,1,0.6312,,,,,,,,-0.689313471,0.04025937,0,0,0,,0,75,75,167,1,ZONET,LB,old,z,./images/ZONETLB.png,,,,,,,,,,,,,,,,,,,,,,
,,,,,,,,,,,,,,,,,199300,19,2022-01-30_13h24.20.479,lexical_decision_task_DD_L6,2021.2.3,MacIntel,60.0024001,,,,,,,,,,,0.8988,1,,,,,,,,,,,,,,z,1,0.8988,,,,,,,,-0.689313471,0.04025937,0,0,0,,0,76,76,97,1,CHIDS,HB,old,z,./images/CHIDSHB.png,,,,,,,,,,,,,,,,,,,,,,
,,,,,,,,,,,,,,,,,199300,19,2022-01-30_13h24.20.479,lexical_decision_task_DD_L6,2021.2.3,MacIntel,60.0024001,,,,,,,,,,,0.5795,1,,,,,,,,,,,,,,m,1,0.5795,,,,,,,,-0.689313471,0.04025937,0,0,0,,0,77,77,61,1,ARTIST,C,old,m,./images/ARTIST.png,,,,,,,,,,,,,,,,,,,,,,
,,,,,,,,,,,,,,,,,199300,19,2022-01-30_13h24.20.479,lexical_decision_task_DD_L6,2021.2.3,MacIntel,60.0024001,,,,,,,,,,,0.5769,1,,,,,,,,,,,,,,m,1,0.5769,,,,,,,,-0.689313471,0.04025937,0,0,0,,0,78,78,1,1,TOWEL,C,old,m,./images/TOWEL.png,,,,,,,,,,,,,,,,,,,,,,
,,,,,,,,,,,,,,,,,199300,19,2022-01-30_13h24.20.479,lexical_decision_task_DD_L6,2021.2.3,MacIntel,60.0024001,,,,,,,,,,,0.6463,1,,,,,,,,,,,,,,m,1,0.6463,,,,,,,,-0.689313471,0.04025937,0,0,0,,0,79,79,42,1,CHAIN,LB,old,m,./images/CHAINLB.png,,,,,,,,,,,,,,,,,,,,,,
,,,,,,,,,,,,,,,,,199300,19,2022-01-30_13h24.20.479,lexical_decision_task_DD_L6,2021.2.3,MacIntel,60.0024001,,,,,,,,,,,0.6655,1,,,,,,,,,,,,,,z,1,0.6655,,,,,,,,-0.689313471,0.04025937,0,0,0,,0,80,80,145,1,LAMEL,HB,old,z,./images/LAMELHB.png,,,,,,,,,,,,,,,,,,,,,,
,,,,,,,,,,,,,,,,,199300,19,2022-01-30_13h24.20.479,lexical_decision_task_DD_L6,2021.2.3,MacIntel,60.0024001,,,,,,,,,,,0.6315,1,,,,,,,,,,,,,,z,1,0.6315,,,,,,,,-0.689313471,0.04025937,0,0,0,,0,81,81,126,1,GUELS,C,old,z,./images/GUELS.png,,,,,,,,,,,,,,,,,,,,,,
,,,,,,,,,,,,,,,,,199300,19,2022-01-30_13h24.20.479,lexical_decision_task_DD_L6,2021.2.3,MacIntel,60.0024001,,,,,,,,,,,0.7808,1,,,,,,,,,,,,,,z,1,0.7808,,,,,,,,-0.689313471,0.04025937,0,0,0,,0,82,82,104,1,GITTY,LB,old,z,./images/GITTYLB.png,,,,,,,,,,,,,,,,,,,,,,
,,,,,,,,,,,,,,,,,199300,19,2022-01-30_13h24.20.479,lexical_decision_task_DD_L6,2021.2.3,MacIntel,60.0024001,,,,,,,,,,,0.6984,1,,,,,,,,,,,,,,z,1,0.6984,,,,,,,,-0.689313471,0.04025937,0,0,0,space,0,83,83,101,1,GLEET,LB,old,z,./images/GLEETLB.png,2.1183,,,,,,,,,,,,,,,,,,,,,
,,,,,,,,,,,,,,,,,199300,19,2022-01-30_13h24.20.479,lexical_decision_task_DD_L6,2021.2.3,MacIntel,60.0024001,,,,,,,,,,,0.7171,1,,,,,,,,,,,,,,z,1,0.7171,,,,,,,,-0.689313471,0.04025937,0,0,0,,0,84,84,163,1,GAMBA,HB,old,z,./images/GAMBAHB.png,,,,,,,,,,,,,,,,,,,,,,
,,,,,,,,,,,,,,,,,199300,19,2022-01-30_13h24.20.479,lexical_decision_task_DD_L6,2021.2.3,MacIntel,60.0024001,,,,,,,,,,,0.526,1,,,,,,,,,,,,,,m,1,0.526,,,,,,,,-0.689313471,0.04025937,0,0,0,,0,85,85,34,1,RAZOR,C,old,m,./images/RAZOR.png,,,,,,,,,,,,,,,,,,,,,,
,,,,,,,,,,,,,,,,,199300,19,2022-01-30_13h24.20.479,lexical_decision_task_DD_L6,2021.2.3,MacIntel,60.0024001,,,,,,,,,,,0.6107,1,,,,,,,,,,,,,,z,1,0.6107,,,,,,,,-0.689313471,0.04025937,0,0,0,,0,86,86,86,1,AIFED,LB,old,z,./images/AIFEDLB.png,,,,,,,,,,,,,,,,,,,,,,
,,,,,,,,,,,,,,,,,199300,19,2022-01-30_13h24.20.479,lexical_decision_task_DD_L6,2021.2.3,MacIntel,60.0024001,,,,,,,,,,,0.6791,1,,,,,,,,,,,,,,z,1,0.6791,,,,,,,,-0.689313471,0.04025937,0,0,0,,0,87,87,140,1,DOVET,LB,old,z,./images/DOVETLB.png,,,,,,,,,,,,,,,,,,,,,,
,,,,,,,,,,,,,,,,,199300,19,2022-01-30_13h24.20.479,lexical_decision_task_DD_L6,2021.2.3,MacIntel,60.0024001,,,,,,,,,,,0.7785,1,,,,,,,,,,,,,,m,1,0.7785,,,,,,,,-0.689313471,0.04025937,0,0,0,,0,88,88,26,1,CLOUD,HB,old,m,./images/CLOUDHB.png,,,,,,,,,,,,,,,,,,,,,,
,,,,,,,,,,,,,,,,,199300,19,2022-01-30_13h24.20.479,lexical_decision_task_DD_L6,2021.2.3,MacIntel,60.0024001,,,,,,,,,,,0.729,1,,,,,,,,,,,,,,m,1,0.729,,,,,,,,-0.689313471,0.04025937,0,0,0,,0,89,89,50,1,PILOT,HB,old,m,./images/PILOTHB.png,,,,,,,,,,,,,,,,,,,,,,
,,,,,,,,,,,,,,,,,199300,19,2022-01-30_13h24.20.479,lexical_decision_task_DD_L6,2021.2.3,MacIntel,60.0024001,,,,,,,,,,,0.6648,1,,,,,,,,,,,,,,z,1,0.6648,,,,,,,,-0.689313471,0.04025937,0,0,0,,0,90,90,149,1,VEASE,LB,old,z,./images/VEASELB.png,,,,,,,,,,,,,,,,,,,,,,
,,,,,,,,,,,,,,,,,199300,19,2022-01-30_13h24.20.479,lexical_decision_task_DD_L6,2021.2.3,MacIntel,60.0024001,,,,,,,,,,,0.8831,1,,,,,,,,,,,,,,z,1,0.8831,,,,,,,,-0.689313471,0.04025937,0,0,0,,0,91,91,133,1,POWDY,HB,old,z,./images/POWDYHB.png,,,,,,,,,,,,,,,,,,,,,,
,,,,,,,,,,,,,,,,,199300,19,2022-01-30_13h24.20.479,lexical_decision_task_DD_L6,2021.2.3,MacIntel,60.0024001,,,,,,,,,,,0.6146,1,,,,,,,,,,,,,,z,1,0.6146,,,,,,,,-0.689313471,0.04025937,0,0,0,,0,92,92,98,1,BAMPS,LB,old,z,./images/BAMPSLB.png,,,,,,,,,,,,,,,,,,,,,,
,,,,,,,,,,,,,,,,,199300,19,2022-01-30_13h24.20.479,lexical_decision_task_DD_L6,2021.2.3,MacIntel,60.0024001,,,,,,,,,,,0.6494,1,,,,,,,,,,,,,,z,1,0.6494,,,,,,,,-0.689313471,0.04025937,0,0,0,,0,93,93,91,1,SHENS,HB,old,z,./images/SHENSHB.png,,,,,,,,,,,,,,,,,,,,,,
,,,,,,,,,,,,,,,,,199300,19,2022-01-30_13h24.20.479,lexical_decision_task_DD_L6,2021.2.3,MacIntel,60.0024001,,,,,,,,,,,0.6129,0,,,,,,,,,,,,,,z,0,0.6129,,,,,,,,-0.689313471,0.04025937,0,0,0,,0,94,94,20,1,GRANNY,HB,old,m,./images/GRANNYHB.png,,,,,,,,,,,,,,,,,,,,,,
,,,,,,,,,,,,,,,,,199300,19,2022-01-30_13h24.20.479,lexical_decision_task_DD_L6,2021.2.3,MacIntel,60.0024001,,,,,,,,,,,0.6141,1,,,,,,,,,,,,,,z,1,0.6141,,,,,,,,-0.689313471,0.04025937,0,0,0,,0,95,95,162,1,LEICH,C,old,z,./images/LEICH.png,,,,,,,,,,,,,,,,,,,,,,
,,,,,,,,,,,,,,,,,199300,19,2022-01-30_13h24.20.479,lexical_decision_task_DD_L6,2021.2.3,MacIntel,60.0024001,,,,,,,,,,,0.5632,1,,,,,,,,,,,,,,m,1,0.5632,,,,,,,,-0.689313471,0.04025937,0,0,0,,0,96,96,64,1,BRIDE,C,old,m,./images/BRIDE.png,,,,,,,,,,,,,,,,,,,,,,
,,,,,,,,,,,,,,,,,199300,19,2022-01-30_13h24.20.479,lexical_decision_task_DD_L6,2021.2.3,MacIntel,60.0024001,,,,,,,,,,,1.3499,1,,,,,,,,,,,,,,z,1,1.3499,,,,,,,,-0.689313471,0.04025937,0,0,0,,0,97,97,157,1,INLER,HB,old,z,./images/INLERHB.png,,,,,,,,,,,,,,,,,,,,,,
,,,,,,,,,,,,,,,,,199300,19,2022-01-30_13h24.20.479,lexical_decision_task_DD_L6,2021.2.3,MacIntel,60.0024001,,,,,,,,,,,0.5832,1,,,,,,,,,,,,,,m,1,0.5832,,,,,,,,-0.689313471,0.04025937,0,0,0,,0,98,98,59,1,BRUSH,HB,old,m,./images/BRUSHHB.png,,,,,,,,,,,,,,,,,,,,,,
,,,,,,,,,,,,,,,,,199300,19,2022-01-30_13h24.20.479,lexical_decision_task_DD_L6,2021.2.3,MacIntel,60.0024001,,,,,,,,,,,0.7924,1,,,,,,,,,,,,,,m,1,0.7924,,,,,,,,-0.689313471,0.04025937,0,0,0,,0,99,99,76,1,MIDGET,C,old,m,./images/MIDGET.png,,,,,,,,,,,,,,,,,,,,,,
,,,,,,,,,,,,,,,,,199300,19,2022-01-30_13h24.20.479,lexical_decision_task_DD_L6,2021.2.3,MacIntel,60.0024001,,,,,,,,,,,0.6467,1,,,,,,,,,,,,,,z,1,0.6467,,,,,,,,-0.689313471,0.04025937,0,0,0,,0,100,100,143,1,MONGS,LB,old,z,./images/MONGSLB.png,,,,,,,,,,,,,,,,,,,,,,
,,,,,,,,,,,,,,,,,199300,19,2022-01-30_13h24.20.479,lexical_decision_task_DD_L6,2021.2.3,MacIntel,60.0024001,,,,,,,,,,,0.6633,1,,,,,,,,,,,,,,m,1,0.6633,,,,,,,,-0.689313471,0.04025937,0,0,0,,0,101,101,10,1,GARDEN,C,old,m,./images/GARDEN.png,,,,,,,,,,,,,,,,,,,,,,
,,,,,,,,,,,,,,,,,199300,19,2022-01-30_13h24.20.479,lexical_decision_task_DD_L6,2021.2.3,MacIntel,60.0024001,,,,,,,,,,,0.6253,0,,,,,,,,,,,,,,m,0,0.6253,,,,,,,,-0.689313471,0.04025937,0,0,0,,0,102,102,159,1,CUDDY,C,old,z,./images/CUDDY.png,,,,,,,,,,,,,,,,,,,,,,
,,,,,,,,,,,,,,,,,199300,19,2022-01-30_13h24.20.479,lexical_decision_task_DD_L6,2021.2.3,MacIntel,60.0024001,,,,,,,,,,,0.7901,1,,,,,,,,,,,,,,z,1,0.7901,,,,,,,,-0.689313471,0.04025937,0,0,0,,0,103,103,130,1,CRILL,HB,old,z,./images/CRILLHB.png,,,,,,,,,,,,,,,,,,,,,,
,,,,,,,,,,,,,,,,,199300,19,2022-01-30_13h24.20.479,lexical_decision_task_DD_L6,2021.2.3,MacIntel,60.0024001,,,,,,,,,,,0.5452,1,,,,,,,,,,,,,,m,1,0.5452,,,,,,,,-0.689313471,0.04025937,0,0,0,,0,104,104,45,1,MONKEY,LB,old,m,./images/MONKEYLB.png,,,,,,,,,,,,,,,,,,,,,,
,,,,,,,,,,,,,,,,,199300,19,2022-01-30_13h24.20.479,lexical_decision_task_DD_L6,2021.2.3,MacIntel,60.0024001,,,,,,,,,,,0.635,1,,,,,,,,,,,,,,z,1,0.635,,,,,,,,-0.689313471,0.04025937,0,0,0,,0,105,105,110,1,CRUNK,LB,old,z,./images/CRUNKLB.png,,,,,,,,,,,,,,,,,,,,,,
,,,,,,,,,,,,,,,,,199300,19,2022-01-30_13h24.20.479,lexical_decision_task_DD_L6,2021.2.3,MacIntel,60.0024001,,,,,,,,,,,0.7976,1,,,,,,,,,,,,,,z,1,0.7976,,,,,,,,-0.689313471,0.04025937,0,0,0,,0,106,106,121,1,CEERS,HB,old,z,./images/CEERSHB.png,,,,,,,,,,,,,,,,,,,,,,
,,,,,,,,,,,,,,,,,199300,19,2022-01-30_13h24.20.479,lexical_decision_task_DD_L6,2021.2.3,MacIntel,60.0024001,,,,,,,,,,,0.8967,1,,,,,,,,,,,,,,z,1,0.8967,,,,,,,,-0.689313471,0.04025937,0,0,0,,0,107,107,112,1,MYING,HB,old,z,./images/MYINGHB.png,,,,,,,,,,,,,,,,,,,,,,
,,,,,,,,,,,,,,,,,199300,19,2022-01-30_13h24.20.479,lexical_decision_task_DD_L6,2021.2.3,MacIntel,60.0024001,,,,,,,,,,,0.663,1,,,,,,,,,,,,,,z,1,0.663,,,,,,,,-0.689313471,0.04025937,0,0,0,,0,108,108,114,1,RIKES,C,old,z,./images/RIKES.png,,,,,,,,,,,,,,,,,,,,,,
,,,,,,,,,,,,,,,,,199300,19,2022-01-30_13h24.20.479,lexical_decision_task_DD_L6,2021.2.3,MacIntel,60.0024001,,,,,,,,,,,0.6449,1,,,,,,,,,,,,,,m,1,0.6449,,,,,,,,-0.689313471,0.04025937,0,0,0,,0,109,109,4,1,BOXER,C,old,m,./images/BOXER.png,,,,,,,,,,,,,,,,,,,,,,
,,,,,,,,,,,,,,,,,199300,19,2022-01-30_13h24.20.479,lexical_decision_task_DD_L6,2021.2.3,MacIntel,60.0024001,,,,,,,,,,,0.9467,1,,,,,,,,,,,,,,z,1,0.9467,,,,,,,,-0.689313471,0.04025937,0,0,0,,0,110,110,119,1,PAFER,LB,old,z,./images/PAFERLB.png,,,,,,,,,,,,,,,,,,,,,,
,,,,,,,,,,,,,,,,,199300,19,2022-01-30_13h24.20.479,lexical_decision_task_DD_L6,2021.2.3,MacIntel,60.0024001,,,,,,,,,,,0.7584,1,,,,,,,,,,,,,,z,1,0.7584,,,,,,,,-0.689313471,0.04025937,0,0,0,,0,111,111,111,1,HOSSE,C,old,z,./images/HOSSE.png,,,,,,,,,,,,,,,,,,,,,,
,,,,,,,,,,,,,,,,,199300,19,2022-01-30_13h24.20.479,lexical_decision_task_DD_L6,2021.2.3,MacIntel,60.0024001,,,,,,,,,,,0.9144,1,,,,,,,,,,,,,,m,1,0.9144,,,,,,,,-0.689313471,0.04025937,0,0,0,,0,112,112,11,1,MEDAL,HB,old,m,./images/MEDALHB.png,,,,,,,,,,,,,,,,,,,,,,
,,,,,,,,,,,,,,,,,199300,19,2022-01-30_13h24.20.479,lexical_decision_task_DD_L6,2021.2.3,MacIntel,60.0024001,,,,,,,,,,,0.6783,1,,,,,,,,,,,,,,z,1,0.6783,,,,,,,,-0.689313471,0.04025937,0,0,0,,0,113,113,125,1,MOOKY,LB,old,z,./images/MOOKYLB.png,,,,,,,,,,,,,,,,,,,,,,
,,,,,,,,,,,,,,,,,199300,19,2022-01-30_13h24.20.479,lexical_decision_task_DD_L6,2021.2.3,MacIntel,60.0024001,,,,,,,,,,,0.8647,1,,,,,,,,,,,,,,m,1,0.8647,,,,,,,,-0.689313471,0.04025937,0,0,0,,0,114,114,2,1,STOVE,HB,old,m,./images/STOVEHB.png,,,,,,,,,,,,,,,,,,,,,,
,,,,,,,,,,,,,,,,,199300,19,2022-01-30_13h24.20.479,lexical_decision_task_DD_L6,2021.2.3,MacIntel,60.0024001,,,,,,,,,,,0.6129,1,,,,,,,,,,,,,,m,1,0.6129,,,,,,,,-0.689313471,0.04025937,0,0,0,,0,115,115,67,1,POKER,C,old,m,./images/POKER.png,,,,,,,,,,,,,,,,,,,,,,
,,,,,,,,,,,,,,,,,199300,19,2022-01-30_13h24.20.479,lexical_decision_task_DD_L6,2021.2.3,MacIntel,60.0024001,,,,,,,,,,,0.9499,1,,,,,,,,,,,,,,z,1,0.9499,,,,,,,,-0.689313471,0.04025937,0,0,0,,0,116,116,106,1,CLUMS,HB,old,z,./images/CLUMSHB.png,,,,,,,,,,,,,,,,,,,,,,
,,,,,,,,,,,,,,,,,199300,19,2022-01-30_13h24.20.479,lexical_decision_task_DD_L6,2021.2.3,MacIntel,60.0024001,,,,,,,,,,,0.5951,1,,,,,,,,,,,,,,m,1,0.5951,,,,,,,,-0.689313471,0.04025937,0,0,0,,0,117,117,82,1,PEBBLE,C,old,m,./images/PEBBLE.png,,,,,,,,,,,,,,,,,,,,,,
,,,,,,,,,,,,,,,,,199300,19,2022-01-30_13h24.20.479,lexical_decision_task_DD_L6,2021.2.3,MacIntel,60.0024001,,,,,,,,,,,0.761,1,,,,,,,,,,,,,,m,1,0.761,,,,,,,,-0.689313471,0.04025937,0,0,0,,0,118,118,14,1,FENCE,HB,old,m,./images/FENCEHB.png,,,,,,,,,,,,,,,,,,,,,,
,,,,,,,,,,,,,,,,,199300,19,2022-01-30_13h24.20.479,lexical_decision_task_DD_L6,2021.2.3,MacIntel,60.0024001,,,,,,,,,,,0.6287,1,,,,,,,,,,,,,,m,1,0.6287,,,,,,,,-0.689313471,0.04025937,0,0,0,,0,119,119,31,1,STEAK,C,old,m,./images/STEAK.png,,,,,,,,,,,,,,,,,,,,,,
,,,,,,,,,,,,,,,,,199300,19,2022-01-30_13h24.20.479,lexical_decision_task_DD_L6,2021.2.3,MacIntel,60.0024001,,,,,,,,,,,0.6757,1,,,,,,,,,,,,,,z,1,0.6757,,,,,,,,-0.689313471,0.04025937,0,0,0,,0,120,120,153,1,CLUPS,C,old,z,./images/CLUPS.png,,,,,,,,,,,,,,,,,,,,,,
,,,,,,,,,,,,,,,,,199300,19,2022-01-30_13h24.20.479,lexical_decision_task_DD_L6,2021.2.3,MacIntel,60.0024001,,,,,,,,,,,0.6968,1,,,,,,,,,,,,,,z,1,0.6968,,,,,,,,-0.689313471,0.04025937,0,0,0,,0,121,121,92,1,PAIMS,LB,old,z,./images/PAIMSLB.png,,,,,,,,,,,,,,,,,,,,,,
,,,,,,,,,,,,,,,,,199300,19,2022-01-30_13h24.20.479,lexical_decision_task_DD_L6,2021.2.3,MacIntel,60.0024001,,,,,,,,,,,0.8157,1,,,,,,,,,,,,,,m,1,0.8157,,,,,,,,-0.689313471,0.04025937,0,0,0,,0,122,122,23,1,CLOTH,HB,old,m,./images/CLOTHHB.png,,,,,,,,,,,,,,,,,,,,,,
,,,,,,,,,,,,,,,,,199300,19,2022-01-30_13h24.20.479,lexical_decision_task_DD_L6,2021.2.3,MacIntel,60.0024001,,,,,,,,,,,0.7298,1,,,,,,,,,,,,,,z,1,0.7298,,,,,,,,-0.689313471,0.04025937,0,0,0,,0,123,123,146,1,MOOST,LB,old,z,./images/MOOSTLB.png,,,,,,,,,,,,,,,,,,,,,,
,,,,,,,,,,,,,,,,,199300,19,2022-01-30_13h24.20.479,lexical_decision_task_DD_L6,2021.2.3,MacIntel,60.0024001,,,,,,,,,,,0.6964,1,,,,,,,,,,,,,,z,1,0.6964,,,,,,,,-0.689313471,0.04025937,0,0,0,,0,124,124,89,1,DRIEK,LB,old,z,./images/DRIEKLB.png,,,,,,,,,,,,,,,,,,,,,,
,,,,,,,,,,,,,,,,,199300,19,2022-01-30_13h24.20.479,lexical_decision_task_DD_L6,2021.2.3,MacIntel,60.0024001,,,,,,,,,,,0.8315,1,,,,,,,,,,,,,,z,1,0.8315,,,,,,,,-0.689313471,0.04025937,0,0,0,space,0,125,125,118,1,BAVEL,HB,old,z,./images/BAVELHB.png,7.6743,,,,,,,,,,,,,,,,,,,,,
,,,,,,,,,,,,,,,,,199300,19,2022-01-30_13h24.20.479,lexical_decision_task_DD_L6,2021.2.3,MacIntel,60.0024001,,,,,,,,,,,0.595,1,,,,,,,,,,,,,,m,1,0.595,,,,,,,,-0.689313471,0.04025937,0,0,0,,0,126,126,51,1,SAUCE,LB,old,m,./images/SAUCELB.png,,,,,,,,,,,,,,,,,,,,,,
,,,,,,,,,,,,,,,,,199300,19,2022-01-30_13h24.20.479,lexical_decision_task_DD_L6,2021.2.3,MacIntel,60.0024001,,,,,,,,,,,0.5956,1,,,,,,,,,,,,,,m,1,0.5956,,,,,,,,-0.689313471,0.04025937,0,0,0,,0,127,127,63,1,BAKER,LB,old,m,./images/BAKERLB.png,,,,,,,,,,,,,,,,,,,,,,
,,,,,,,,,,,,,,,,,199300,19,2022-01-30_13h24.20.479,lexical_decision_task_DD_L6,2021.2.3,MacIntel,60.0024001,,,,,,,,,,,0.6962,1,,,,,,,,,,,,,,m,1,0.6962,,,,,,,,-0.689313471,0.04025937,0,0,0,,0,128,128,62,1,MAMMAL,HB,old,m,./images/MAMMALHB.png,,,,,,,,,,,,,,,,,,,,,,
,,,,,,,,,,,,,,,,,199300,19,2022-01-30_13h24.20.479,lexical_decision_task_DD_L6,2021.2.3,MacIntel,60.0024001,,,,,,,,,,,0.5371,1,,,,,,,,,,,,,,m,1,0.5371,,,,,,,,-0.689313471,0.04025937,0,0,0,,0,129,129,73,1,GLOVE,C,old,m,./images/GLOVE.png,,,,,,,,,,,,,,,,,,,,,,
,,,,,,,,,,,,,,,,,199300,19,2022-01-30_13h24.20.479,lexical_decision_task_DD_L6,2021.2.3,MacIntel,60.0024001,,,,,,,,,,,0.6599,1,,,,,,,,,,,,,,z,1,0.6599,,,,,,,,-0.689313471,0.04025937,0,0,0,,0,130,130,107,1,FASKS,LB,old,z,./images/FASKSLB.png,,,,,,,,,,,,,,,,,,,,,,
,,,,,,,,,,,,,,,,,199300,19,2022-01-30_13h24.20.479,lexical_decision_task_DD_L6,2021.2.3,MacIntel,60.0024001,,,,,,,,,,,0.5613,1,,,,,,,,,,,,,,z,1,0.5613,,,,,,,,-0.689313471,0.04025937,0,0,0,,0,131,131,132,1,SCIFF,C,old,z,./images/SCIFF.png,,,,,,,,,,,,,,,,,,,,,,
,,,,,,,,,,,,,,,,,199300,19,2022-01-30_13h24.20.479,lexical_decision_task_DD_L6,2021.2.3,MacIntel,60.0024001,,,,,,,,,,,0.8184,1,,,,,,,,,,,,,,z,1,0.8184,,,,,,,,-0.689313471,0.04025937,0,0,0,,0,132,132,148,1,JOMS,HB,old,z,./images/JOMSHB.png,,,,,,,,,,,,,,,,,,,,,,
,,,,,,,,,,,,,,,,,199300,19,2022-01-30_13h24.20.479,lexical_decision_task_DD_L6,2021.2.3,MacIntel,60.0024001,,,,,,,,,,,0.6789,1,,,,,,,,,,,,,,z,1,0.6789,,,,,,,,-0.689313471,0.04025937,0,0,0,,0,133,133,90,1,NEAST,C,old,z,./images/NEAST.png,,,,,,,,,,,,,,,,,,,,,,
,,,,,,,,,,,,,,,,,199300,19,2022-01-30_13h24.20.479,lexical_decision_task_DD_L6,2021.2.3,MacIntel,60.0024001,,,,,,,,,,,0.6138,1,,,,,,,,,,,,,,z,1,0.6138,,,,,,,,-0.689313471,0.04025937,0,0,0,,0,134,134,95,1,HANTY,LB,old,z,./images/HANTYLB.png,,,,,,,,,,,,,,,,,,,,,,
,,,,,,,,,,,,,,,,,199300,19,2022-01-30_13h24.20.479,lexical_decision_task_DD_L6,2021.2.3,MacIntel,60.0024001,,,,,,,,,,,0.7538,1,,,,,,,,,,,,,,m,1,0.7538,,,,,,,,-0.689313471,0.04025937,0,0,0,,0,135,135,32,1,HOCKEY,HB,old,m,./images/HOCKEYHB.png,,,,,,,,,,,,,,,,,,,,,,
,,,,,,,,,,,,,,,,,199300,19,2022-01-30_13h24.20.479,lexical_decision_task_DD_L6,2021.2.3,MacIntel,60.0024001,,,,,,,,,,,0.5626,1,,,,,,,,,,,,,,z,1,0.5626,,,,,,,,-0.689313471,0.04025937,0,0,0,,0,136,136,137,1,JOOST,LB,old,z,./images/JOOSTLB.png,,,,,,,,,,,,,,,,,,,,,,
,,,,,,,,,,,,,,,,,199300,19,2022-01-30_13h24.20.479,lexical_decision_task_DD_L6,2021.2.3,MacIntel,60.0024001,,,,,,,,,,,0.8116,1,,,,,,,,,,,,,,m,1,0.8116,,,,,,,,-0.689313471,0.04025937,0,0,0,,0,137,137,56,1,HEATER,HB,old,m,./images/HEATERHB.png,,,,,,,,,,,,,,,,,,,,,,
,,,,,,,,,,,,,,,,,199300,19,2022-01-30_13h24.20.479,lexical_decision_task_DD_L6,2021.2.3,MacIntel,60.0024001,,,,,,,,,,,0.5946,1,,,,,,,,,,,,,,z,1,0.5946,,,,,,,,-0.689313471,0.04025937,0,0,0,,0,138,138,108,1,GRUET,C,old,z,./images/GRUET.png,,,,,,,,,,,,,,,,,,,,,,
,,,,,,,,,,,,,,,,,199300,19,2022-01-30_13h24.20.479,lexical_decision_task_DD_L6,2021.2.3,MacIntel,60.0024001,,,,,,,,,,,0.795,0,,,,,,,,,,,,,,m,0,0.795,,,,,,,,-0.689313471,0.04025937,0,0,0,,0,139,139,94,1,BLANS,HB,old,z,./images/BLANSHB.png,,,,,,,,,,,,,,,,,,,,,,
,,,,,,,,,,,,,,,,,199300,19,2022-01-30_13h24.20.479,lexical_decision_task_DD_L6,2021.2.3,MacIntel,60.0024001,,,,,,,,,,,0.6669,1,,,,,,,,,,,,,,z,1,0.6669,,,,,,,,-0.689313471,0.04025937,0,0,0,,0,140,140,141,1,PLEET,C,old,z,./images/PLEET.png,,,,,,,,,,,,,,,,,,,,,,
,,,,,,,,,,,,,,,,,199300,19,2022-01-30_13h24.20.479,lexical_decision_task_DD_L6,2021.2.3,MacIntel,60.0024001,,,,,,,,,,,0.8424,1,,,,,,,,,,,,,,z,1,0.8424,,,,,,,,-0.689313471,0.04025937,0,0,0,,0,141,141,99,1,BACKY,C,old,z,./images/BACKY.png,,,,,,,,,,,,,,,,,,,,,,
,,,,,,,,,,,,,,,,,199300,19,2022-01-30_13h24.20.479,lexical_decision_task_DD_L6,2021.2.3,MacIntel,60.0024001,,,,,,,,,,,0.696,1,,,,,,,,,,,,,,m,1,0.696,,,,,,,,-0.689313471,0.04025937,0,0,0,,0,142,142,55,1,ALLEY,C,old,m,./images/ALLEY.png,,,,,,,,,,,,,,,,,,,,,,
,,,,,,,,,,,,,,,,,199300,19,2022-01-30_13h24.20.479,lexical_decision_task_DD_L6,2021.2.3,MacIntel,60.0024001,,,,,,,,,,,0.7616,1,,,,,,,,,,,,,,m,1,0.7616,,,,,,,,-0.689313471,0.04025937,0,0,0,,0,143,143,80,1,PLANET,HB,old,m,./images/PLANETHB.png,,,,,,,,,,,,,,,,,,,,,,
,,,,,,,,,,,,,,,,,199300,19,2022-01-30_13h24.20.479,lexical_decision_task_DD_L6,2021.2.3,MacIntel,60.0024001,,,,,,,,,,,0.7958,1,,,,,,,,,,,,,,z,1,0.7958,,,,,,,,-0.689313471,0.04025937,0,0,0,,0,144,144,155,1,CANGY,LB,old,z,./images/CANGYLB.png,,,,,,,,,,,,,,,,,,,,,,
,,,,,,,,,,,,,,,,,199300,19,2022-01-30_13h24.20.479,lexical_decision_task_DD_L6,2021.2.3,MacIntel,60.0024001,,,,,,,,,,,0.7462,1,,,,,,,,,,,,,,z,1,0.7462,,,,,,,,-0.689313471,0.04025937,0,0,0,,0,145,145,138,1,PLICE,C,old,z,./images/PLICE.png,,,,,,,,,,,,,,,,,,,,,,
,,,,,,,,,,,,,,,,,199300,19,2022-01-30_13h24.20.479,lexical_decision_task_DD_L6,2021.2.3,MacIntel,60.0024001,,,,,,,,,,,0.6774,1,,,,,,,,,,,,,,z,1,0.6774,,,,,,,,-0.689313471,0.04025937,0,0,0,,0,146,146,161,1,BLAPS,LB,old,z,./images/BLAPSLB.png,,,,,,,,,,,,,,,,,,,,,,
,,,,,,,,,,,,,,,,,199300,19,2022-01-30_13h24.20.479,lexical_decision_task_DD_L6,2021.2.3,MacIntel,60.0024001,,,,,,,,,,,0.6642,1,,,,,,,,,,,,,,z,1,0.6642,,,,,,,,-0.689313471,0.04025937,0,0,0,,0,147,147,84,1,HAXES,C,old,z,./images/HAXES.png,,,,,,,,,,,,,,,,,,,,,,
,,,,,,,,,,,,,,,,,199300,19,2022-01-30_13h24.20.479,lexical_decision_task_DD_L6,2021.2.3,MacIntel,60.0024001,,,,,,,,,,,0.6651,1,,,,,,,,,,,,,,z,1,0.6651,,,,,,,,-0.689313471,0.04025937,0,0,0,,0,148,148,113,1,LINEW,LB,old,z,./images/LINEWLB.png,,,,,,,,,,,,,,,,,,,,,,
,,,,,,,,,,,,,,,,,199300,19,2022-01-30_13h24.20.479,lexical_decision_task_DD_L6,2021.2.3,MacIntel,60.0024001,,,,,,,,,,,0.5647,1,,,,,,,,,,,,,,m,1,0.5647,,,,,,,,-0.689313471,0.04025937,0,0,0,,0,149,149,70,1,BANANA,C,old,m,./images/BANANA.png,,,,,,,,,,,,,,,,,,,,,,
,,,,,,,,,,,,,,,,,199300,19,2022-01-30_13h24.20.479,lexical_decision_task_DD_L6,2021.2.3,MacIntel,60.0024001,,,,,,,,,,,1.0309,1,,,,,,,,,,,,,,z,1,1.0309,,,,,,,,-0.689313471,0.04025937,0,0,0,,0,150,150,115,1,MAWNS,HB,old,z,./images/MAWNSHB.png,,,,,,,,,,,,,,,,,,,,,,
,,,,,,,,,,,,,,,,,199300,19,2022-01-30_13h24.20.479,lexical_decision_task_DD_L6,2021.2.3,MacIntel,60.0024001,,,,,,,,,,,0.9282,1,,,,,,,,,,,,,,m,1,0.9282,,,,,,,,-0.689313471,0.04025937,0,0,0,,0,151,151,38,1,ENGINE,HB,old,m,./images/ENGINEHB.png,,,,,,,,,,,,,,,,,,,,,,
,,,,,,,,,,,,,,,,,199300,19,2022-01-30_13h24.20.479,lexical_decision_task_DD_L6,2021.2.3,MacIntel,60.0024001,,,,,,,,,,,0.9291,1,,,,,,,,,,,,,,m,1,0.9291,,,,,,,,-0.689313471,0.04025937,0,0,0,,0,152,152,65,1,SPINE,HB,old,m,./images/SPINEHB.png,,,,,,,,,,,,,,,,,,,,,,
,,,,,,,,,,,,,,,,,199300,19,2022-01-30_13h24.20.479,lexical_decision_task_DD_L6,2021.2.3,MacIntel,60.0024001,,,,,,,,,,,0.7948,1,,,,,,,,,,,,,,m,1,0.7948,,,,,,,,-0.689313471,0.04025937,0,0,0,,0,153,153,28,1,CASINO,C,old,m,./images/CASINO.png,,,,,,,,,,,,,,,,,,,,,,
,,,,,,,,,,,,,,,,,199300,19,2022-01-30_13h24.20.479,lexical_decision_task_DD_L6,2021.2.3,MacIntel,60.0024001,,,,,,,,,,,0.6335,1,,,,,,,,,,,,,,z,1,0.6335,,,,,,,,-0.689313471,0.04025937,0,0,0,,0,154,154,122,1,BLOOT,LB,old,z,./images/BLOOTLB.png,,,,,,,,,,,,,,,,,,,,,,
,,,,,,,,,,,,,,,,,199300,19,2022-01-30_13h24.20.479,lexical_decision_task_DD_L6,2021.2.3,MacIntel,60.0024001,,,,,,,,,,,0.7744,1,,,,,,,,,,,,,,m,1,0.7744,,,,,,,,-0.689313471,0.04025937,0,0,0,,0,155,155,29,1,PISTOL,HB,old,m,./images/PISTOLHB.png,,,,,,,,,,,,,,,,,,,,,,
,,,,,,,,,,,,,,,,,199300,19,2022-01-30_13h24.20.479,lexical_decision_task_DD_L6,2021.2.3,MacIntel,60.0024001,,,,,,,,,,,0.6299,1,,,,,,,,,,,,,,m,1,0.6299,,,,,,,,-0.689313471,0.04025937,0,0,0,,0,156,156,69,1,ARROW,LB,old,m,./images/ARROWLB.png,,,,,,,,,,,,,,,,,,,,,,
,,,,,,,,,,,,,,,,,199300,19,2022-01-30_13h24.20.479,lexical_decision_task_DD_L6,2021.2.3,MacIntel,60.0024001,,,,,,,,,,,0.7609,1,,,,,,,,,,,,,,z,1,0.7609,,,,,,,,-0.689313471,0.04025937,0,0,0,,0,157,157,103,1,FLORT,HB,old,z,./images/FLORTHB.png,,,,,,,,,,,,,,,,,,,,,,
,,,,,,,,,,,,,,,,,199300,19,2022-01-30_13h24.20.479,lexical_decision_task_DD_L6,2021.2.3,MacIntel,60.0024001,,,,,,,,,,,0.6256,1,,,,,,,,,,,,,,m,1,0.6256,,,,,,,,-0.689313471,0.04025937,0,0,0,,0,158,158,22,1,CLOWN,C,old,m,./images/CLOWN.png,,,,,,,,,,,,,,,,,,,,,,
,,,,,,,,,,,,,,,,,199300,19,2022-01-30_13h24.20.479,lexical_decision_task_DD_L6,2021.2.3,MacIntel,60.0024001,,,,,,,,,,,0.612,1,,,,,,,,,,,,,,m,1,0.612,,,,,,,,-0.689313471,0.04025937,0,0,0,,0,159,159,75,1,HAMMER,LB,old,m,./images/HAMMERLB.png,,,,,,,,,,,,,,,,,,,,,,
,,,,,,,,,,,,,,,,,199300,19,2022-01-30_13h24.20.479,lexical_decision_task_DD_L6,2021.2.3,MacIntel,60.0024001,,,,,,,,,,,0.7302,1,,,,,,,,,,,,,,m,1,0.7302,,,,,,,,-0.689313471,0.04025937,0,0,0,,0,160,160,60,1,CURRY,LB,old,m,./images/CURRYLB.png,,,,,,,,,,,,,,,,,,,,,,
,,,,,,,,,,,,,,,,,199300,19,2022-01-30_13h24.20.479,lexical_decision_task_DD_L6,2021.2.3,MacIntel,60.0024001,,,,,,,,,,,0.7449,1,,,,,,,,,,,,,,z,1,0.7449,,,,,,,,-0.689313471,0.04025937,0,0,0,,0,161,161,124,1,TUNCH,HB,old,z,./images/TUNCHHB.png,,,,,,,,,,,,,,,,,,,,,,
,,,,,,,,,,,,,,,,,199300,19,2022-01-30_13h24.20.479,lexical_decision_task_DD_L6,2021.2.3,MacIntel,60.0024001,,,,,,,,,,,0.6773,1,,,,,,,,,,,,,,m,1,0.6773,,,,,,,,-0.689313471,0.04025937,0,0,0,,0,162,162,57,1,FERRY,LB,old,m,./images/FERRYLB.png,,,,,,,,,,,,,,,,,,,,,,
,,,,,,,,,,,,,,,,,199300,19,2022-01-30_13h24.20.479,lexical_decision_task_DD_L6,2021.2.3,MacIntel,60.0024001,,,,,,,,,,,0.6458,1,,,,,,,,,,,,,,m,1,0.6458,,,,,,,,-0.689313471,0.04025937,0,0,0,,0,163,163,58,1,CANOE,C,old,m,./images/CANOE.png,,,,,,,,,,,,,,,,,,,,,,
,,,,,,,,,,,,,,,,,199300,19,2022-01-30_13h24.20.479,lexical_decision_task_DD_L6,2021.2.3,MacIntel,60.0024001,,,,,,,,,,,0.5448,1,,,,,,,,,,,,,,m,1,0.5448,,,,,,,,-0.689313471,0.04025937,0,0,0,,0,164,164,15,1,COLLAR,LB,old,m,./images/COLLARLB.png,,,,,,,,,,,,,,,,,,,,,,
,,,,,,,,,,,,,,,,,199300,19,2022-01-30_13h24.20.479,lexical_decision_task_DD_L6,2021.2.3,MacIntel,60.0024001,,,,,,,,,,,0.5625,1,,,,,,,,,,,,,,m,1,0.5625,,,,,,,,-0.689313471,0.04025937,0,0,0,,0,165,165,43,1,STOOL,C,old,m,./images/STOOL.png,,,,,,,,,,,,,,,,,,,,,,
,,,,,,,,,,,,,,,,,199300,19,2022-01-30_13h24.20.479,lexical_decision_task_DD_L6,2021.2.3,MacIntel,60.0024001,,,,,,,,,,,0.4617,0,,,,,,,,,,,,,,m,0,0.4617,,,,,,,,-0.689313471,0.04025937,0,0,0,,0,166,166,136,1,WERVE,HB,old,z,./images/WERVEHB.png,,,,,,,,,,,,,,,,,,,,,,
,,,,,,,,,,,,,,,,,199300,19,2022-01-30_13h24.20.479,lexical_decision_task_DD_L6,2021.2.3,MacIntel,60.0024001,,,,,,,,,,,1.2428,1,,,,,,,,,,,,,,z,1,1.2428,,,,,,,,-0.689313471,0.04025937,0,0,0,,0,167,167,131,1,NACES,LB,old,z,./images/NACESLB.png,,,,,,,,,,,,,,,,,,,,,,
space,16.7919,-0.689313471,0.04025937,0,0,0,,,,,,1,test,"In the next phase you will be presented with the words from the the first phase. Your job is to decide whether you remember seeing the word or not. If you remember seeing the word press ""old"" or type ""m"". If you do not remember seeing the word press ""new"" or type ""z"". Please press the space bar or click on continue to begin. ",,,199300,19,2022-01-30_13h24.20.479,lexical_decision_task_DD_L6,2021.2.3,MacIntel,60.0024001,,,,,,,,,,,,,,,,,,,,,,,,,,,,,,,,,,,,,,,,,,,,,,,,,,,,,0,0,0,0,1,,,,,,,,,,,,,,,,
space,1.5355,-0.689313471,0.04025937,0,0,0,,,,,,1,test,"In the next phase you will be presented with the words from the the first phase. Your job is to decide whether you remember seeing the word or not. If you remember seeing the word press ""old"" or type ""m"". If you do not remember seeing the word press ""new"" or type ""z"". Please press the space bar or click on continue to begin. ",,,199300,19,2022-01-30_13h24.20.479,lexical_decision_task_DD_L6,2021.2.3,MacIntel,60.0024001,,,,,,,,,,,,,,,,,,,,,,,,,,,,,,,,,,,,,,,,,,,,,,,,,,,,,1,0,1,0,1,,,,,,,,,,,,,,,,
space,2.6841,-0.689313471,0.04025937,0,0,0,,,,,,1,test,"In the next phase you will be presented with the words from the the first phase. Your job is to decide whether you remember seeing the word or not. If you remember seeing the word press ""old"" or type ""m"". If you do not remember seeing the word press ""new"" or type ""z"". Please press the space bar or click on continue to begin. ",,,199300,19,2022-01-30_13h24.20.479,lexical_decision_task_DD_L6,2021.2.3,MacIntel,60.0024001,,,,,,,,,,,,,,,,,,,,,,,,,,,,,,,,,,,,,,,,,,,,,,,,,,,,,2,0,2,0,1,,,,,,,,,,,,,,,,
,,-0.042257603,-0.374278448,1,0,0,,,,,,1,test,"In the next phase you will be presented with the words from the the first phase. Your job is to decide whether you remember seeing the word or not. If you remember seeing the word press ""old"" or type ""m"". If you do not remember seeing the word press ""new"" or type ""z"". Please press the space bar or click on continue to begin. ",,,199300,19,2022-01-30_13h24.20.479,lexical_decision_task_DD_L6,2021.2.3,MacIntel,60.0024001,,,,,,,,,,,,,,,,,,,,,,,,,,,,,,,,,,,,,,,,,,,,,,,,,,,,,3,0,3,0,1,instr_done_button,,,,,,,,,,,,,,,
,,-0.059392962,-0.392442859,1,0,0,,,,,,1,test,"In the next phase you will be presented with the words from the the first phase. Your job is to decide whether you remember seeing the word or not. If you remember seeing the word press ""old"" or type ""m"". If you do not remember seeing the word press ""new"" or type ""z"". Please press the space bar or click on continue to begin. ",,,199300,19,2022-01-30_13h24.20.479,lexical_decision_task_DD_L6,2021.2.3,MacIntel,60.0024001,,,,,,,,,,,,,,,,,,,,,,,,,,,,,,,,,,,,,,,,,,,,,,,,,,,,,4,0,4,0,1,instr_done_button,,,,,,,,,,,,,,,
,,,,,,,,,,,,,,,,,199300,19,2022-01-30_13h24.20.479,lexical_decision_task_DD_L6,2021.2.3,MacIntel,60.0024001,,,,,,,,,,,5.0847,1,,,,,,,,,,,,,,,,,,,,,,,,-0.059392962,-0.392442859,0,0,0,,,,,,,NOOSE,LB,z,y,./images/NOOSELB.png,,,,,,,,z,1,5.0847,,,,,,,,0,0,0,156,1
,,,,,,,,,,,,,,,,,199300,19,2022-01-30_13h24.20.479,lexical_decision_task_DD_L6,2021.2.3,MacIntel,60.0024001,,,,,,,,,,,2.3938,0,,,,,,,,,,,,,,,,,,,,,,,,-0.059392962,-0.392442859,0,0,0,,,,,,,ATTIC,LB,z,y,./images/ATTICLB.png,,,,,,,,m,0,2.3938,,,,,,,,0,1,1,111,1
,,,,,,,,,,,,,,,,,199300,19,2022-01-30_13h24.20.479,lexical_decision_task_DD_L6,2021.2.3,MacIntel,60.0024001,,,,,,,,,,,1.419,1,,,,,,,,,,,,,,,,,,,,,,,,-0.059392962,-0.392442859,0,0,0,,,,,,,CLOUD,HB,m,y,./images/CLOUDHB.png,,,,,,,,m,1,1.419,,,,,,,,0,2,2,26,1
,,,,,,,,,,,,,,,,,199300,19,2022-01-30_13h24.20.479,lexical_decision_task_DD_L6,2021.2.3,MacIntel,60.0024001,,,,,,,,,,,0.8322,1,,,,,,,,,,,,,,,,,,,,,,,,-0.059392962,-0.392442859,0,0,0,,,,,,,PEARL,C,z,y,./images/PEARL.png,,,,,,,,z,1,0.8322,,,,,,,,0,3,3,130,1
,,,,,,,,,,,,,,,,,199300,19,2022-01-30_13h24.20.479,lexical_decision_task_DD_L6,2021.2.3,MacIntel,60.0024001,,,,,,,,,,,0.7699,1,,,,,,,,,,,,,,,,,,,,,,,,-0.059392962,-0.392442859,0,0,0,,,,,,,WEASEL,HB,z,y,./images/WEASELHB.png,,,,,,,,z,1,0.7699,,,,,,,,0,4,4,164,1
,,,,,,,,,,,,,,,,,199300,19,2022-01-30_13h24.20.479,lexical_decision_task_DD_L6,2021.2.3,MacIntel,60.0024001,,,,,,,,,,,0.7759,1,,,,,,,,,,,,,,,,,,,,,,,,-0.059392962,-0.392442859,0,0,0,,,,,,,GRAIN,LB,z,y,./images/GRAINLB.png,,,,,,,,z,1,0.7759,,,,,,,,0,5,5,159,1
,,,,,,,,,,,,,,,,,199300,19,2022-01-30_13h24.20.479,lexical_decision_task_DD_L6,2021.2.3,MacIntel,60.0024001,,,,,,,,,,,0.7977,1,,,,,,,,,,,,,,,,,,,,,,,,-0.059392962,-0.392442859,0,0,0,,,,,,,BLOKE,LB,m,y,./images/BLOKELB.png,,,,,,,,m,1,0.7977,,,,,,,,0,6,6,12,1
,,,,,,,,,,,,,,,,,199300,19,2022-01-30_13h24.20.479,lexical_decision_task_DD_L6,2021.2.3,MacIntel,60.0024001,,,,,,,,,,,0.9478,0,,,,,,,,,,,,,,,,,,,,,,,,-0.059392962,-0.392442859,0,0,0,,,,,,,PLANK,C,z,y,./images/PLANK.png,,,,,,,,m,0,0.9478,,,,,,,,0,7,7,85,1
,,,,,,,,,,,,,,,,,199300,19,2022-01-30_13h24.20.479,lexical_decision_task_DD_L6,2021.2.3,MacIntel,60.0024001,,,,,,,,,,,0.9824,0,,,,,,,,,,,,,,,,,,,,,,,,-0.059392962,-0.392442859,0,0,0,,,,,,,BABOON,C,z,y,./images/BABOON.png,,,,,,,,m,0,0.9824,,,,,,,,0,8,8,142,1
,,,,,,,,,,,,,,,,,199300,19,2022-01-30_13h24.20.479,lexical_decision_task_DD_L6,2021.2.3,MacIntel,60.0024001,,,,,,,,,,,0.7656,1,,,,,,,,,,,,,,,,,,,,,,,,-0.059392962,-0.392442859,0,0,0,,,,,,,SUNSET,C,z,y,./images/SUNSET.png,,,,,,,,z,1,0.7656,,,,,,,,0,9,9,166,1
,,,,,,,,,,,,,,,,,199300,19,2022-01-30_13h24.20.479,lexical_decision_task_DD_L6,2021.2.3,MacIntel,60.0024001,,,,,,,,,,,0.8487,1,,,,,,,,,,,,,,,,,,,,,,,,-0.059392962,-0.392442859,0,0,0,,,,,,,TRIPOD,LB,z,y,./images/TRIPODLB.png,,,,,,,,z,1,0.8487,,,,,,,,0,10,10,138,1
,,,,,,,,,,,,,,,,,199300,19,2022-01-30_13h24.20.479,lexical_decision_task_DD_L6,2021.2.3,MacIntel,60.0024001,,,,,,,,,,,0.7322,1,,,,,,,,,,,,,,,,,,,,,,,,-0.059392962,-0.392442859,0,0,0,,,,,,,MIDGET,C,m,y,./images/MIDGET.png,,,,,,,,m,1,0.7322,,,,,,,,0,11,11,76,1
,,,,,,,,,,,,,,,,,199300,19,2022-01-30_13h24.20.479,lexical_decision_task_DD_L6,2021.2.3,MacIntel,60.0024001,,,,,,,,,,,0.6619,1,,,,,,,,,,,,,,,,,,,,,,,,-0.059392962,-0.392442859,0,0,0,,,,,,,LLAMA,HB,m,y,./images/LLAMAHB.png,,,,,,,,m,1,0.6619,,,,,,,,0,12,12,35,1
,,,,,,,,,,,,,,,,,199300,19,2022-01-30_13h24.20.479,lexical_decision_task_DD_L6,2021.2.3,MacIntel,60.0024001,,,,,,,,,,,2.548,1,,,,,,,,,,,,,,,,,,,,,,,,-0.059392962,-0.392442859,0,0,0,,,,,,,STATUE,LB,m,y,./images/STATUELB.png,,,,,,,,m,1,2.548,,,,,,,,0,13,13,66,1
,,,,,,,,,,,,,,,,,199300,19,2022-01-30_13h24.20.479,lexical_decision_task_DD_L6,2021.2.3,MacIntel,60.0024001,,,,,,,,,,,0.6329,1,,,,,,,,,,,,,,,,,,,,,,,,-0.059392962,-0.392442859,0,0,0,,,,,,,CANOE,C,m,y,./images/CANOE.png,,,,,,,,m,1,0.6329,,,,,,,,0,14,14,58,1
,,,,,,,,,,,,,,,,,199300,19,2022-01-30_13h24.20.479,lexical_decision_task_DD_L6,2021.2.3,MacIntel,60.0024001,,,,,,,,,,,2.0126,1,,,,,,,,,,,,,,,,,,,,,,,,-0.059392962,-0.392442859,0,0,0,,,,,,,WALRUS,HB,z,y,./images/WALRUSHB.png,,,,,,,,z,1,2.0126,,,,,,,,0,15,15,107,1
,,,,,,,,,,,,,,,,,199300,19,2022-01-30_13h24.20.479,lexical_decision_task_DD_L6,2021.2.3,MacIntel,60.0024001,,,,,,,,,,,0.7009,1,,,,,,,,,,,,,,,,,,,,,,,,-0.059392962,-0.392442859,0,0,0,,,,,,,BRUSH,HB,m,y,./images/BRUSHHB.png,,,,,,,,m,1,0.7009,,,,,,,,0,16,16,59,1
,,,,,,,,,,,,,,,,,199300,19,2022-01-30_13h24.20.479,lexical_decision_task_DD_L6,2021.2.3,MacIntel,60.0024001,,,,,,,,,,,0.8789,1,,,,,,,,,,,,,,,,,,,,,,,,-0.059392962,-0.392442859,0,0,0,,,,,,,DRUMS,C,z,y,./images/DRUMS.png,,,,,,,,z,1,0.8789,,,,,,,,0,17,17,133,1
,,,,,,,,,,,,,,,,,199300,19,2022-01-30_13h24.20.479,lexical_decision_task_DD_L6,2021.2.3,MacIntel,60.0024001,,,,,,,,,,,0.7173,1,,,,,,,,,,,,,,,,,,,,,,,,-0.059392962,-0.392442859,0,0,0,,,,,,,FERRY,LB,m,y,./images/FERRYLB.png,,,,,,,,m,1,0.7173,,,,,,,,0,18,18,57,1
,,,,,,,,,,,,,,,,,199300,19,2022-01-30_13h24.20.479,lexical_decision_task_DD_L6,2021.2.3,MacIntel,60.0024001,,,,,,,,,,,1.1497,1,,,,,,,,,,,,,,,,,,,,,,,,-0.059392962,-0.392442859,0,0,0,,,,,,,SHIELD,LB,m,y,./images/SHIELDLB.png,,,,,,,,m,1,1.1497,,,,,,,,0,19,19,48,1
,,,,,,,,,,,,,,,,,199300,19,2022-01-30_13h24.20.479,lexical_decision_task_DD_L6,2021.2.3,MacIntel,60.0024001,,,,,,,,,,,2.3496,1,,,,,,,,,,,,,,,,,,,,,,,,-0.059392962,-0.392442859,0,0,0,,,,,,,CANDLE,C,z,y,./images/CANDLE.png,,,,,,,,z,1,2.3496,,,,,,,,0,20,20,145,1
,,,,,,,,,,,,,,,,,199300,19,2022-01-30_13h24.20.479,lexical_decision_task_DD_L6,2021.2.3,MacIntel,60.0024001,,,,,,,,,,,0.6806,0,,,,,,,,,,,,,,,,,,,,,,,,-0.059392962,-0.392442859,0,0,0,,,,,,,MIRROR,LB,z,y,./images/MIRRORLB.png,,,,,,,,m,0,0.6806,,,,,,,,0,21,21,147,1
,,,,,,,,,,,,,,,,,199300,19,2022-01-30_13h24.20.479,lexical_decision_task_DD_L6,2021.2.3,MacIntel,60.0024001,,,,,,,,,,,0.649,0,,,,,,,,,,,,,,,,,,,,,,,,-0.059392962,-0.392442859,0,0,0,,,,,,,SMOKER,HB,z,y,./images/SMOKERHB.png,,,,,,,,m,0,0.649,,,,,,,,0,22,22,110,1
,,,,,,,,,,,,,,,,,199300,19,2022-01-30_13h24.20.479,lexical_decision_task_DD_L6,2021.2.3,MacIntel,60.0024001,,,,,,,,,,,1.2478,0,,,,,,,,,,,,,,,,,,,,,,,,-0.059392962,-0.392442859,0,0,0,,,,,,,CHAIN,LB,m,y,./images/CHAINLB.png,,,,,,,,z,0,1.2478,,,,,,,,0,23,23,42,1
,,,,,,,,,,,,,,,,,199300,19,2022-01-30_13h24.20.479,lexical_decision_task_DD_L6,2021.2.3,MacIntel,60.0024001,,,,,,,,,,,0.868,1,,,,,,,,,,,,,,,,,,,,,,,,-0.059392962,-0.392442859,0,0,0,,,,,,,HEATER,HB,m,y,./images/HEATERHB.png,,,,,,,,m,1,0.868,,,,,,,,0,24,24,56,1
,,,,,,,,,,,,,,,,,199300,19,2022-01-30_13h24.20.479,lexical_decision_task_DD_L6,2021.2.3,MacIntel,60.0024001,,,,,,,,,,,0.8317,1,,,,,,,,,,,,,,,,,,,,,,,,-0.059392962,-0.392442859,0,0,0,,,,,,,GRAPE,C,m,y,./images/GRAPE.png,,,,,,,,m,1,0.8317,,,,,,,,0,25,25,16,1
,,,,,,,,,,,,,,,,,199300,19,2022-01-30_13h24.20.479,lexical_decision_task_DD_L6,2021.2.3,MacIntel,60.0024001,,,,,,,,,,,0.9442,1,,,,,,,,,,,,,,,,,,,,,,,,-0.059392962,-0.392442859,0,0,0,,,,,,,PICKLE,HB,z,y,./images/PICKLEHB.png,,,,,,,,z,1,0.9442,,,,,,,,0,26,26,98,1
,,,,,,,,,,,,,,,,,199300,19,2022-01-30_13h24.20.479,lexical_decision_task_DD_L6,2021.2.3,MacIntel,60.0024001,,,,,,,,,,,0.6822,1,,,,,,,,,,,,,,,,,,,,,,,,-0.059392962,-0.392442859,0,0,0,,,,,,,DRILL,LB,m,y,./images/DRILLLB.png,,,,,,,,m,1,0.6822,,,,,,,,0,27,27,81,1
,,,,,,,,,,,,,,,,,199300,19,2022-01-30_13h24.20.479,lexical_decision_task_DD_L6,2021.2.3,MacIntel,60.0024001,,,,,,,,,,,0.9005,1,,,,,,,,,,,,,,,,,,,,,,,,-0.059392962,-0.392442859,0,0,0,,,,,,,COLLAR,LB,m,y,./images/COLLARLB.png,,,,,,,,m,1,0.9005,,,,,,,,0,28,28,15,1
,,,,,,,,,,,,,,,,,199300,19,2022-01-30_13h24.20.479,lexical_decision_task_DD_L6,2021.2.3,MacIntel,60.0024001,,,,,,,,,,,0.9496,1,,,,,,,,,,,,,,,,,,,,,,,,-0.059392962,-0.392442859,0,0,0,,,,,,,BELLY,C,z,y,./images/BELLY.png,,,,,,,,z,1,0.9496,,,,,,,,0,29,29,94,1
,,,,,,,,,,,,,,,,,199300,19,2022-01-30_13h24.20.479,lexical_decision_task_DD_L6,2021.2.3,MacIntel,60.0024001,,,,,,,,,,,1.1995,0,,,,,,,,,,,,,,,,,,,,,,,,-0.059392962,-0.392442859,0,0,0,,,,,,,SWEAT,LB,z,y,./images/SWEATLB.png,,,,,,,,m,0,1.1995,,,,,,,,0,30,30,150,1
,,,,,,,,,,,,,,,,,199300,19,2022-01-30_13h24.20.479,lexical_decision_task_DD_L6,2021.2.3,MacIntel,60.0024001,,,,,,,,,,,1.2344,1,,,,,,,,,,,,,,,,,,,,,,,,-0.059392962,-0.392442859,0,0,0,,,,,,,JELLY,C,z,y,./images/JELLY.png,,,,,,,,z,1,1.2344,,,,,,,,0,31,31,148,1
,,,,,,,,,,,,,,,,,199300,19,2022-01-30_13h24.20.479,lexical_decision_task_DD_L6,2021.2.3,MacIntel,60.0024001,,,,,,,,,,,0.6643,1,,,,,,,,,,,,,,,,,,,,,,,,-0.059392962,-0.39289016,0,0,0,,,,,,,BOXER,C,m,y,./images/BOXER.png,,,,,,,,m,1,0.6643,,,,,,,,0,32,32,4,1
,,,,,,,,,,,,,,,,,199300,19,2022-01-30_13h24.20.479,lexical_decision_task_DD_L6,2021.2.3,MacIntel,60.0024001,,,,,,,,,,,0.8641,1,,,,,,,,,,,,,,,,,,,,,,,,-0.059392962,-0.39289016,0,0,0,,,,,,,INFANT,C,z,y,./images/INFANT.png,,,,,,,,z,1,0.8641,,,,,,,,0,33,33,160,1
,,,,,,,,,,,,,,,,,199300,19,2022-01-30_13h24.20.479,lexical_decision_task_DD_L6,2021.2.3,MacIntel,60.0024001,,,,,,,,,,,1.0501,1,,,,,,,,,,,,,,,,,,,,,,,,-0.059392962,-0.39289016,0,0,0,,,,,,,TORCH,HB,z,y,./images/TORCHHB.png,,,,,,,,z,1,1.0501,,,,,,,,0,34,34,152,1
,,,,,,,,,,,,,,,,,199300,19,2022-01-30_13h24.20.479,lexical_decision_task_DD_L6,2021.2.3,MacIntel,60.0024001,,,,,,,,,,,0.6965,1,,,,,,,,,,,,,,,,,,,,,,,,-0.059392962,-0.39289016,0,0,0,,,,,,,PLANET,HB,m,y,./images/PLANETHB.png,,,,,,,,m,1,0.6965,,,,,,,,0,35,35,80,1
,,,,,,,,,,,,,,,,,199300,19,2022-01-30_13h24.20.479,lexical_decision_task_DD_L6,2021.2.3,MacIntel,60.0024001,,,,,,,,,,,0.6977,1,,,,,,,,,,,,,,,,,,,,,,,,-0.059392962,-0.39289016,0,0,0,,,,,,,ARROW,LB,m,y,./images/ARROWLB.png,,,,,,,,m,1,0.6977,,,,,,,,0,36,36,69,1
,,,,,,,,,,,,,,,,,199300,19,2022-01-30_13h24.20.479,lexical_decision_task_DD_L6,2021.2.3,MacIntel,60.0024001,,,,,,,,,,,0.6904,1,,,,,,,,,,,,,,,,,,,,,,,,-0.059392962,-0.39289016,0,0,0,,,,,,,CLOWN,C,m,y,./images/CLOWN.png,,,,,,,,m,1,0.6904,,,,,,,,0,37,37,22,1
,,,,,,,,,,,,,,,,,199300,19,2022-01-30_13h24.20.479,lexical_decision_task_DD_L6,2021.2.3,MacIntel,60.0024001,,,,,,,,,,,0.7816,1,,,,,,,,,,,,,,,,,,,,,,,,-0.059392962,-0.39289016,0,0,0,,,,,,,POKER,C,m,y,./images/POKER.png,,,,,,,,m,1,0.7816,,,,,,,,0,38,38,67,1
,,,,,,,,,,,,,,,,,199300,19,2022-01-30_13h24.20.479,lexical_decision_task_DD_L6,2021.2.3,MacIntel,60.0024001,,,,,,,,,,,0.7996,1,,,,,,,,,,,,,,,,,,,,,,,,-0.059392962,-0.39289016,0,0,0,,,,,,,WRIST,C,z,y,./images/WRIST.png,,,,,,,,z,1,0.7996,,,,,,,,0,39,39,109,1
,,,,,,,,,,,,,,,,,199300,19,2022-01-30_13h24.20.479,lexical_decision_task_DD_L6,2021.2.3,MacIntel,60.0024001,,,,,,,,,,,0.7989,0,,,,,,,,,,,,,,,,,,,,,,,,-0.059392962,-0.39289016,0,0,0,,,,,,,TIGER,C,m,y,./images/TIGER.png,,,,,,,,z,0,0.7989,,,,,,,,0,40,40,37,1
,,,,,,,,,,,,,,,,,199300,19,2022-01-30_13h24.20.479,lexical_decision_task_DD_L6,2021.2.3,MacIntel,60.0024001,,,,,,,,,,,0.6296,0,,,,,,,,,,,,,,,,,,,,,,,,-0.059392962,-0.39289016,0,0,0,space,,,,,,STORM,LB,z,y,./images/STORMLB.png,2.5969,,,,,,,m,0,0.6296,,,,,,,,0,41,41,114,1
,,,,,,,,,,,,,,,,,199300,19,2022-01-30_13h24.20.479,lexical_decision_task_DD_L6,2021.2.3,MacIntel,60.0024001,,,,,,,,,,,2.0171,1,,,,,,,,,,,,,,,,,,,,,,,,-0.059392962,-0.39289016,0,0,0,,,,,,,SPORT,LB,z,y,./images/SPORTLB.png,,,,,,,,z,1,2.0171,,,,,,,,0,42,42,132,1
,,,,,,,,,,,,,,,,,199300,19,2022-01-30_13h24.20.479,lexical_decision_task_DD_L6,2021.2.3,MacIntel,60.0024001,,,,,,,,,,,0.7453,1,,,,,,,,,,,,,,,,,,,,,,,,-0.059392962,-0.39289016,0,0,0,,,,,,,MAMMAL,HB,m,y,./images/MAMMALHB.png,,,,,,,,m,1,0.7453,,,,,,,,0,43,43,62,1
,,,,,,,,,,,,,,,,,199300,19,2022-01-30_13h24.20.479,lexical_decision_task_DD_L6,2021.2.3,MacIntel,60.0024001,,,,,,,,,,,0.8485,1,,,,,,,,,,,,,,,,,,,,,,,,-0.059392962,-0.39289016,0,0,0,,,,,,,SHELF,LB,z,y,./images/SHELFLB.png,,,,,,,,z,1,0.8485,,,,,,,,0,44,44,123,1
,,,,,,,,,,,,,,,,,199300,19,2022-01-30_13h24.20.479,lexical_decision_task_DD_L6,2021.2.3,MacIntel,60.0024001,,,,,,,,,,,0.6801,0,,,,,,,,,,,,,,,,,,,,,,,,-0.059392962,-0.39289016,0,0,0,,,,,,,CANYON,C,z,y,./images/CANYON.png,,,,,,,,m,0,0.6801,,,,,,,,0,45,45,118,1
,,,,,,,,,,,,,,,,,199300,19,2022-01-30_13h24.20.479,lexical_decision_task_DD_L6,2021.2.3,MacIntel,60.0024001,,,,,,,,,,,0.8776,1,,,,,,,,,,,,,,,,,,,,,,,,-0.059392962,-0.39289016,0,0,0,,,,,,,FARMER,HB,z,y,./images/FARMERHB.png,,,,,,,,z,1,0.8776,,,,,,,,0,46,46,149,1
,,,,,,,,,,,,,,,,,199300,19,2022-01-30_13h24.20.479,lexical_decision_task_DD_L6,2021.2.3,MacIntel,60.0024001,,,,,,,,,,,0.8465,1,,,,,,,,,,,,,,,,,,,,,,,,-0.059392962,-0.39289016,0,0,0,,,,,,,CRUMB,HB,z,y,./images/CRUMBHB.png,,,,,,,,z,1,0.8465,,,,,,,,0,47,47,113,1
,,,,,,,,,,,,,,,,,199300,19,2022-01-30_13h24.20.479,lexical_decision_task_DD_L6,2021.2.3,MacIntel,60.0024001,,,,,,,,,,,0.7486,1,,,,,,,,,,,,,,,,,,,,,,,,-0.059392962,-0.39289016,0,0,0,,,,,,,SLOPE,LB,m,y,./images/SLOPELB.png,,,,,,,,m,1,0.7486,,,,,,,,0,48,48,30,1
,,,,,,,,,,,,,,,,,199300,19,2022-01-30_13h24.20.479,lexical_decision_task_DD_L6,2021.2.3,MacIntel,60.0024001,,,,,,,,,,,0.8962,1,,,,,,,,,,,,,,,,,,,,,,,,-0.059392962,-0.39289016,0,0,0,,,,,,,KIDNEY,LB,z,y,./images/KIDNEYLB.png,,,,,,,,z,1,0.8962,,,,,,,,0,49,49,105,1
,,,,,,,,,,,,,,,,,199300,19,2022-01-30_13h24.20.479,lexical_decision_task_DD_L6,2021.2.3,MacIntel,60.0024001,,,,,,,,,,,1.0686,0,,,,,,,,,,,,,,,,,,,,,,,,-0.059392962,-0.39289016,0,0,0,,,,,,,LADDER,HB,z,y,./images/LADDERHB.png,,,,,,,,m,0,1.0686,,,,,,,,0,50,50,122,1
,,,,,,,,,,,,,,,,,199300,19,2022-01-30_13h24.20.479,lexical_decision_task_DD_L6,2021.2.3,MacIntel,60.0024001,,,,,,,,,,,0.5704,1,,,,,,,,,,,,,,,,,,,,,,,,-0.059392962,-0.39289016,0,0,0,,,,,,,PISTOL,HB,m,y,./images/PISTOLHB.png,,,,,,,,m,1,0.5704,,,,,,,,0,51,51,29,1
,,,,,,,,,,,,,,,,,199300,19,2022-01-30_13h24.20.479,lexical_decision_task_DD_L6,2021.2.3,MacIntel,60.0024001,,,,,,,,,,,0.5822,1,,,,,,,,,,,,,,,,,,,,,,,,-0.059392962,-0.39289016,0,0,0,,,,,,,CURRY,LB,m,y,./images/CURRYLB.png,,,,,,,,m,1,0.5822,,,,,,,,0,52,52,60,1
,,,,,,,,,,,,,,,,,199300,19,2022-01-30_13h24.20.479,lexical_decision_task_DD_L6,2021.2.3,MacIntel,60.0024001,,,,,,,,,,,0.5982,1,,,,,,,,,,,,,,,,,,,,,,,,-0.059392962,-0.39289016,0,0,0,,,,,,,STOVE,HB,m,y,./images/STOVEHB.png,,,,,,,,m,1,0.5982,,,,,,,,0,53,53,2,1
,,,,,,,,,,,,,,,,,199300,19,2022-01-30_13h24.20.479,lexical_decision_task_DD_L6,2021.2.3,MacIntel,60.0024001,,,,,,,,,,,0.5673,1,,,,,,,,,,,,,,,,,,,,,,,,-0.059392962,-0.39289016,0,0,0,,,,,,,FENCE,HB,m,y,./images/FENCEHB.png,,,,,,,,m,1,0.5673,,,,,,,,0,54,54,14,1
,,,,,,,,,,,,,,,,,199300,19,2022-01-30_13h24.20.479,lexical_decision_task_DD_L6,2021.2.3,MacIntel,60.0024001,,,,,,,,,,,0.7486,1,,,,,,,,,,,,,,,,,,,,,,,,-0.059392962,-0.39289016,0,0,0,,,,,,,BIRTH,C,z,y,./images/BIRTH.png,,,,,,,,z,1,0.7486,,,,,,,,0,55,55,121,1
,,,,,,,,,,,,,,,,,199300,19,2022-01-30_13h24.20.479,lexical_decision_task_DD_L6,2021.2.3,MacIntel,60.0024001,,,,,,,,,,,0.946,1,,,,,,,,,,,,,,,,,,,,,,,,-0.059392962,-0.39289016,0,0,0,,,,,,,MUSCLE,C,z,y,./images/MUSCLE.png,,,,,,,,z,1,0.946,,,,,,,,0,56,56,88,1
,,,,,,,,,,,,,,,,,199300,19,2022-01-30_13h24.20.479,lexical_decision_task_DD_L6,2021.2.3,MacIntel,60.0024001,,,,,,,,,,,0.7786,1,,,,,,,,,,,,,,,,,,,,,,,,-0.059392962,-0.39289016,0,0,0,,,,,,,WHEEL,HB,m,y,./images/WHEELHB.png,,,,,,,,m,1,0.7786,,,,,,,,0,57,57,77,1
,,,,,,,,,,,,,,,,,199300,19,2022-01-30_13h24.20.479,lexical_decision_task_DD_L6,2021.2.3,MacIntel,60.0024001,,,,,,,,,,,0.596,1,,,,,,,,,,,,,,,,,,,,,,,,-0.059392962,-0.39289016,0,0,0,,,,,,,WALNUT,LB,m,y,./images/WALNUTLB.png,,,,,,,,m,1,0.596,,,,,,,,0,58,58,0,1
,,,,,,,,,,,,,,,,,199300,19,2022-01-30_13h24.20.479,lexical_decision_task_DD_L6,2021.2.3,MacIntel,60.0024001,,,,,,,,,,,2.8499,0,,,,,,,,,,,,,,,,,,,,,,,,-0.059392962,-0.39289016,0,0,0,,,,,,,BEARD,HB,z,y,./images/BEARDHB.png,,,,,,,,m,0,2.8499,,,,,,,,0,59,59,86,1
,,,,,,,,,,,,,,,,,199300,19,2022-01-30_13h24.20.479,lexical_decision_task_DD_L6,2021.2.3,MacIntel,60.0024001,,,,,,,,,,,0.8098,1,,,,,,,,,,,,,,,,,,,,,,,,-0.059392962,-0.39289016,0,0,0,,,,,,,RAZOR,C,m,y,./images/RAZOR.png,,,,,,,,m,1,0.8098,,,,,,,,0,60,60,34,1
,,,,,,,,,,,,,,,,,199300,19,2022-01-30_13h24.20.479,lexical_decision_task_DD_L6,2021.2.3,MacIntel,60.0024001,,,,,,,,,,,0.9312,0,,,,,,,,,,,,,,,,,,,,,,,,-0.059392962,-0.39289016,0,0,0,,,,,,,MALLET,HB,z,y,./images/MALLETHB.png,,,,,,,,m,0,0.9312,,,,,,,,0,61,61,134,1
,,,,,,,,,,,,,,,,,199300,19,2022-01-30_13h24.20.479,lexical_decision_task_DD_L6,2021.2.3,MacIntel,60.0024001,,,,,,,,,,,0.8521,1,,,,,,,,,,,,,,,,,,,,,,,,-0.059392962,-0.39289016,0,0,0,,,,,,,DOUGH,C,z,y,./images/DOUGH.png,,,,,,,,z,1,0.8521,,,,,,,,0,62,62,103,1
,,,,,,,,,,,,,,,,,199300,19,2022-01-30_13h24.20.479,lexical_decision_task_DD_L6,2021.2.3,MacIntel,60.0024001,,,,,,,,,,,0.6803,1,,,,,,,,,,,,,,,,,,,,,,,,-0.059392962,-0.39289016,0,0,0,,,,,,,MONKEY,LB,m,y,./images/MONKEYLB.png,,,,,,,,m,1,0.6803,,,,,,,,0,63,63,45,1
,,,,,,,,,,,,,,,,,199300,19,2022-01-30_13h24.20.479,lexical_decision_task_DD_L6,2021.2.3,MacIntel,60.0024001,,,,,,,,,,,0.7972,1,,,,,,,,,,,,,,,,,,,,,,,,-0.059392962,-0.39289016,0,0,0,,,,,,,PEBBLE,C,m,y,./images/PEBBLE.png,,,,,,,,m,1,0.7972,,,,,,,,0,64,64,82,1
,,,,,,,,,,,,,,,,,199300,19,2022-01-30_13h24.20.479,lexical_decision_task_DD_L6,2021.2.3,MacIntel,60.0024001,,,,,,,,,,,0.6975,0,,,,,,,,,,,,,,,,,,,,,,,,-0.059392962,-0.39289016,0,0,0,,,,,,,SNAKE,C,m,y,./images/SNAKE.png,,,,,,,,z,0,0.6975,,,,,,,,0,65,65,40,1
,,,,,,,,,,,,,,,,,199300,19,2022-01-30_13h24.20.479,lexical_decision_task_DD_L6,2021.2.3,MacIntel,60.0024001,,,,,,,,,,,0.6968,1,,,,,,,,,,,,,,,,,,,,,,,,-0.059392962,-0.39289016,0,0,0,,,,,,,HAMMER,LB,m,y,./images/HAMMERLB.png,,,,,,,,m,1,0.6968,,,,,,,,0,66,66,75,1
,,,,,,,,,,,,,,,,,199300,19,2022-01-30_13h24.20.479,lexical_decision_task_DD_L6,2021.2.3,MacIntel,60.0024001,,,,,,,,,,,0.763,1,,,,,,,,,,,,,,,,,,,,,,,,-0.059392962,-0.39289016,0,0,0,,,,,,,TOMATO,LB,z,y,./images/TOMATOLB.png,,,,,,,,z,1,0.763,,,,,,,,0,67,67,84,1
,,,,,,,,,,,,,,,,,199300,19,2022-01-30_13h24.20.479,lexical_decision_task_DD_L6,2021.2.3,MacIntel,60.0024001,,,,,,,,,,,1.7271,1,,,,,,,,,,,,,,,,,,,,,,,,-0.059392962,-0.39289016,0,0,0,,,,,,,HOCKEY,HB,m,y,./images/HOCKEYHB.png,,,,,,,,m,1,1.7271,,,,,,,,0,68,68,32,1
,,,,,,,,,,,,,,,,,199300,19,2022-01-30_13h24.20.479,lexical_decision_task_DD_L6,2021.2.3,MacIntel,60.0024001,,,,,,,,,,,0.9278,1,,,,,,,,,,,,,,,,,,,,,,,,-0.059392962,-0.39289016,0,0,0,,,,,,,POSTER,HB,m,y,./images/POSTERHB.png,,,,,,,,m,1,0.9278,,,,,,,,0,69,69,53,1
,,,,,,,,,,,,,,,,,199300,19,2022-01-30_13h24.20.479,lexical_decision_task_DD_L6,2021.2.3,MacIntel,60.0024001,,,,,,,,,,,0.6671,1,,,,,,,,,,,,,,,,,,,,,,,,-0.059392962,-0.39289016,0,0,0,,,,,,,CANDY,LB,m,y,./images/CANDYLB.png,,,,,,,,m,1,0.6671,,,,,,,,0,70,70,39,1
,,,,,,,,,,,,,,,,,199300,19,2022-01-30_13h24.20.479,lexical_decision_task_DD_L6,2021.2.3,MacIntel,60.0024001,,,,,,,,,,,0.5469,1,,,,,,,,,,,,,,,,,,,,,,,,-0.059392962,-0.39289016,0,0,0,,,,,,,BAMBOO,HB,m,y,./images/BAMBOOHB.png,,,,,,,,m,1,0.5469,,,,,,,,0,71,71,5,1
,,,,,,,,,,,,,,,,,199300,19,2022-01-30_13h24.20.479,lexical_decision_task_DD_L6,2021.2.3,MacIntel,60.0024001,,,,,,,,,,,0.5537,1,,,,,,,,,,,,,,,,,,,,,,,,-0.059392962,-0.39289016,0,0,0,,,,,,,BUTTER,LB,m,y,./images/BUTTERLB.png,,,,,,,,m,1,0.5537,,,,,,,,0,72,72,27,1
,,,,,,,,,,,,,,,,,199300,19,2022-01-30_13h24.20.479,lexical_decision_task_DD_L6,2021.2.3,MacIntel,60.0024001,,,,,,,,,,,0.5984,1,,,,,,,,,,,,,,,,,,,,,,,,-0.059392962,-0.39289016,0,0,0,,,,,,,ALLEY,C,m,y,./images/ALLEY.png,,,,,,,,m,1,0.5984,,,,,,,,0,73,73,55,1
,,,,,,,,,,,,,,,,,199300,19,2022-01-30_13h24.20.479,lexical_decision_task_DD_L6,2021.2.3,MacIntel,60.0024001,,,,,,,,,,,0.5626,0,,,,,,,,,,,,,,,,,,,,,,,,-0.059392962,-0.39289016,0,0,0,,,,,,,FALCON,C,z,y,./images/FALCON.png,,,,,,,,m,0,0.5626,,,,,,,,0,74,74,112,1
,,,,,,,,,,,,,,,,,199300,19,2022-01-30_13h24.20.479,lexical_decision_task_DD_L6,2021.2.3,MacIntel,60.0024001,,,,,,,,,,,0.6174,1,,,,,,,,,,,,,,,,,,,,,,,,-0.059392962,-0.39289016,0,0,0,,,,,,,WHISKY,HB,m,y,./images/WHISKYHB.png,,,,,,,,m,1,0.6174,,,,,,,,0,75,75,83,1
,,,,,,,,,,,,,,,,,199300,19,2022-01-30_13h24.20.479,lexical_decision_task_DD_L6,2021.2.3,MacIntel,60.0024001,,,,,,,,,,,0.7666,1,,,,,,,,,,,,,,,,,,,,,,,,-0.059392962,-0.39289016,0,0,0,,,,,,,CRADLE,HB,z,y,./images/CRADLEHB.png,,,,,,,,z,1,0.7666,,,,,,,,0,76,76,104,1
,,,,,,,,,,,,,,,,,199300,19,2022-01-30_13h24.20.479,lexical_decision_task_DD_L6,2021.2.3,MacIntel,60.0024001,,,,,,,,,,,0.8956,1,,,,,,,,,,,,,,,,,,,,,,,,-0.059392962,-0.39289016,0,0,0,,,,,,,LITTER,LB,z,y,./images/LITTERLB.png,,,,,,,,z,1,0.8956,,,,,,,,0,77,77,162,1
,,,,,,,,,,,,,,,,,199300,19,2022-01-30_13h24.20.479,lexical_decision_task_DD_L6,2021.2.3,MacIntel,60.0024001,,,,,,,,,,,0.8494,0,,,,,,,,,,,,,,,,,,,,,,,,-0.059392962,-0.39289016,0,0,0,,,,,,,SAUCE,LB,m,y,./images/SAUCELB.png,,,,,,,,z,0,0.8494,,,,,,,,0,78,78,51,1
,,,,,,,,,,,,,,,,,199300,19,2022-01-30_13h24.20.479,lexical_decision_task_DD_L6,2021.2.3,MacIntel,60.0024001,,,,,,,,,,,0.7825,1,,,,,,,,,,,,,,,,,,,,,,,,-0.059392962,-0.39289016,0,0,0,,,,,,,TOWEL,C,m,y,./images/TOWEL.png,,,,,,,,m,1,0.7825,,,,,,,,0,79,79,1,1
,,,,,,,,,,,,,,,,,199300,19,2022-01-30_13h24.20.479,lexical_decision_task_DD_L6,2021.2.3,MacIntel,60.0024001,,,,,,,,,,,0.6489,1,,,,,,,,,,,,,,,,,,,,,,,,-0.059392962,-0.39289016,0,0,0,,,,,,,CHALK,C,m,y,./images/CHALK.png,,,,,,,,m,1,0.6489,,,,,,,,0,80,80,25,1
,,,,,,,,,,,,,,,,,199300,19,2022-01-30_13h24.20.479,lexical_decision_task_DD_L6,2021.2.3,MacIntel,60.0024001,,,,,,,,,,,0.6652,1,,,,,,,,,,,,,,,,,,,,,,,,-0.059392962,-0.39289016,0,0,0,,,,,,,SQUARE,LB,z,y,./images/SQUARELB.png,,,,,,,,z,1,0.6652,,,,,,,,0,81,81,90,1
,,,,,,,,,,,,,,,,,199300,19,2022-01-30_13h24.20.479,lexical_decision_task_DD_L6,2021.2.3,MacIntel,60.0024001,,,,,,,,,,,0.8318,1,,,,,,,,,,,,,,,,,,,,,,,,-0.059392962,-0.39289016,0,0,0,,,,,,,DIVER,LB,m,y,./images/DIVERLB.png,,,,,,,,m,1,0.8318,,,,,,,,0,82,82,9,1
,,,,,,,,,,,,,,,,,199300,19,2022-01-30_13h24.20.479,lexical_decision_task_DD_L6,2021.2.3,MacIntel,60.0024001,,,,,,,,,,,0.5949,1,,,,,,,,,,,,,,,,,,,,,,,,-0.059392962,-0.39289016,0,0,0,space,,,,,,BOILER,LB,m,y,./images/BOILERLB.png,2.0161,,,,,,,m,1,0.5949,,,,,,,,0,83,83,36,1
,,,,,,,,,,,,,,,,,199300,19,2022-01-30_13h24.20.479,lexical_decision_task_DD_L6,2021.2.3,MacIntel,60.0024001,,,,,,,,,,,0.8809,1,,,,,,,,,,,,,,,,,,,,,,,,-0.059392962,-0.39289016,0,0,0,,,,,,,CARPET,HB,z,y,./images/CARPETHB.png,,,,,,,,z,1,0.8809,,,,,,,,0,84,84,137,1
,,,,,,,,,,,,,,,,,199300,19,2022-01-30_13h24.20.479,lexical_decision_task_DD_L6,2021.2.3,MacIntel,60.0024001,,,,,,,,,,,0.5662,1,,,,,,,,,,,,,,,,,,,,,,,,-0.059392962,-0.39289016,0,0,0,,,,,,,WAGON,C,m,y,./images/WAGON.png,,,,,,,,m,1,0.5662,,,,,,,,0,85,85,7,1
,,,,,,,,,,,,,,,,,199300,19,2022-01-30_13h24.20.479,lexical_decision_task_DD_L6,2021.2.3,MacIntel,60.0024001,,,,,,,,,,,0.766,1,,,,,,,,,,,,,,,,,,,,,,,,-0.059392962,-0.39289016,0,0,0,,,,,,,SHORE,LB,z,y,./images/SHORELB.png,,,,,,,,z,1,0.766,,,,,,,,0,86,86,96,1
,,,,,,,,,,,,,,,,,199300,19,2022-01-30_13h24.20.479,lexical_decision_task_DD_L6,2021.2.3,MacIntel,60.0024001,,,,,,,,,,,0.7329,1,,,,,,,,,,,,,,,,,,,,,,,,-0.059392962,-0.39289016,0,0,0,,,,,,,BONNET,HB,z,y,./images/BONNETHB.png,,,,,,,,z,1,0.7329,,,,,,,,0,87,87,95,1
,,,,,,,,,,,,,,,,,199300,19,2022-01-30_13h24.20.479,lexical_decision_task_DD_L6,2021.2.3,MacIntel,60.0024001,,,,,,,,,,,0.8173,1,,,,,,,,,,,,,,,,,,,,,,,,-0.059392962,-0.39289016,0,0,0,,,,,,,JUNGLE,HB,z,y,./images/JUNGLEHB.png,,,,,,,,z,1,0.8173,,,,,,,,0,88,88,167,1
,,,,,,,,,,,,,,,,,199300,19,2022-01-30_13h24.20.479,lexical_decision_task_DD_L6,2021.2.3,MacIntel,60.0024001,,,,,,,,,,,0.7259,1,,,,,,,,,,,,,,,,,,,,,,,,-0.059392962,-0.39289016,0,0,0,,,,,,,DESERT,C,m,y,./images/DESERT.png,,,,,,,,m,1,0.7259,,,,,,,,0,89,89,52,1
,,,,,,,,,,,,,,,,,199300,19,2022-01-30_13h24.20.479,lexical_decision_task_DD_L6,2021.2.3,MacIntel,60.0024001,,,,,,,,,,,0.6791,1,,,,,,,,,,,,,,,,,,,,,,,,-0.059392962,-0.39289016,0,0,0,,,,,,,FLESH,LB,m,y,./images/FLESHLB.png,,,,,,,,m,1,0.6791,,,,,,,,0,90,90,24,1
,,,,,,,,,,,,,,,,,199300,19,2022-01-30_13h24.20.479,lexical_decision_task_DD_L6,2021.2.3,MacIntel,60.0024001,,,,,,,,,,,0.8145,1,,,,,,,,,,,,,,,,,,,,,,,,-0.059392962,-0.39289016,0,0,0,,,,,,,FINGER,LB,z,y,./images/FINGERLB.png,,,,,,,,z,1,0.8145,,,,,,,,0,91,91,87,1
,,,,,,,,,,,,,,,,,199300,19,2022-01-30_13h24.20.479,lexical_decision_task_DD_L6,2021.2.3,MacIntel,60.0024001,,,,,,,,,,,1.6161,0,,,,,,,,,,,,,,,,,,,,,,,,-0.059392962,-0.39289016,0,0,0,,,,,,,CEMENT,HB,z,y,./images/CEMENTHB.png,,,,,,,,m,0,1.6161,,,,,,,,0,92,92,158,1
,,,,,,,,,,,,,,,,,199300,19,2022-01-30_13h24.20.479,lexical_decision_task_DD_L6,2021.2.3,MacIntel,60.0024001,,,,,,,,,,,0.829,1,,,,,,,,,,,,,,,,,,,,,,,,-0.059392962,-0.39289016,0,0,0,,,,,,,VALLEY,HB,m,y,./images/VALLEYHB.png,,,,,,,,m,1,0.829,,,,,,,,0,93,93,68,1
,,,,,,,,,,,,,,,,,199300,19,2022-01-30_13h24.20.479,lexical_decision_task_DD_L6,2021.2.3,MacIntel,60.0024001,,,,,,,,,,,0.648,1,,,,,,,,,,,,,,,,,,,,,,,,-0.059392962,-0.39289016,0,0,0,,,,,,,JUMPER,HB,m,y,./images/JUMPERHB.png,,,,,,,,m,1,0.648,,,,,,,,0,94,94,74,1
,,,,,,,,,,,,,,,,,199300,19,2022-01-30_13h24.20.479,lexical_decision_task_DD_L6,2021.2.3,MacIntel,60.0024001,,,,,,,,,,,0.5785,1,,,,,,,,,,,,,,,,,,,,,,,,-0.059392962,-0.39289016,0,0,0,,,,,,,MUMMY,C,m,y,./images/MUMMY.png,,,,,,,,m,1,0.5785,,,,,,,,0,95,95,46,1
,,,,,,,,,,,,,,,,,199300,19,2022-01-30_13h24.20.479,lexical_decision_task_DD_L6,2021.2.3,MacIntel,60.0024001,,,,,,,,,,,0.6979,1,,,,,,,,,,,,,,,,,,,,,,,,-0.059392962,-0.39289016,0,0,0,,,,,,,CRUST,C,z,y,./images/CRUST.png,,,,,,,,z,1,0.6979,,,,,,,,0,96,96,163,1
,,,,,,,,,,,,,,,,,199300,19,2022-01-30_13h24.20.479,lexical_decision_task_DD_L6,2021.2.3,MacIntel,60.0024001,,,,,,,,,,,0.9344,1,,,,,,,,,,,,,,,,,,,,,,,,-0.059392962,-0.39289016,0,0,0,,,,,,,GREASE,LB,z,y,./images/GREASELB.png,,,,,,,,z,1,0.9344,,,,,,,,0,97,97,99,1
,,,,,,,,,,,,,,,,,199300,19,2022-01-30_13h24.20.479,lexical_decision_task_DD_L6,2021.2.3,MacIntel,60.0024001,,,,,,,,,,,2.4953,1,,,,,,,,,,,,,,,,,,,,,,,,-0.059392962,-0.39289016,0,0,0,,,,,,,PENCE,C,z,y,./images/PENCE.png,,,,,,,,z,1,2.4953,,,,,,,,0,98,98,100,1
,,,,,,,,,,,,,,,,,199300,19,2022-01-30_13h24.20.479,lexical_decision_task_DD_L6,2021.2.3,MacIntel,60.0024001,,,,,,,,,,,1.0185,0,,,,,,,,,,,,,,,,,,,,,,,,-0.059392962,-0.39289016,0,0,0,,,,,,,MOTOR,C,z,y,./images/MOTOR.png,,,,,,,,m,0,1.0185,,,,,,,,0,99,99,97,1
,,,,,,,,,,,,,,,,,199300,19,2022-01-30_13h24.20.479,lexical_decision_task_DD_L6,2021.2.3,MacIntel,60.0024001,,,,,,,,,,,0.6981,0,,,,,,,,,,,,,,,,,,,,,,,,-0.059392962,-0.39289016,0,0,0,,,,,,,COOKER,LB,z,y,./images/COOKERLB.png,,,,,,,,m,0,0.6981,,,,,,,,0,100,100,153,1
,,,,,,,,,,,,,,,,,199300,19,2022-01-30_13h24.20.479,lexical_decision_task_DD_L6,2021.2.3,MacIntel,60.0024001,,,,,,,,,,,0.8652,1,,,,,,,,,,,,,,,,,,,,,,,,-0.059392962,-0.39289016,0,0,0,,,,,,,CASINO,C,m,y,./images/CASINO.png,,,,,,,,m,1,0.8652,,,,,,,,0,101,101,28,1
,,,,,,,,,,,,,,,,,199300,19,2022-01-30_13h24.20.479,lexical_decision_task_DD_L6,2021.2.3,MacIntel,60.0024001,,,,,,,,,,,0.6809,1,,,,,,,,,,,,,,,,,,,,,,,,-0.059392962,-0.39289016,0,0,0,,,,,,,PEACH,HB,z,y,./images/PEACHHB.png,,,,,,,,z,1,0.6809,,,,,,,,0,102,102,119,1
,,,,,,,,,,,,,,,,,199300,19,2022-01-30_13h24.20.479,lexical_decision_task_DD_L6,2021.2.3,MacIntel,60.0024001,,,,,,,,,,,0.8844,1,,,,,,,,,,,,,,,,,,,,,,,,-0.059392962,-0.392679908,0,0,0,,,,,,,SWING,C,z,y,./images/SWING.png,,,,,,,,z,1,0.8844,,,,,,,,0,103,103,124,1
,,,,,,,,,,,,,,,,,199300,19,2022-01-30_13h24.20.479,lexical_decision_task_DD_L6,2021.2.3,MacIntel,60.0024001,,,,,,,,,,,1.129,0,,,,,,,,,,,,,,,,,,,,,,,,-0.059392962,-0.392679908,0,0,0,,,,,,,MAGGOT,LB,z,y,./images/MAGGOTLB.png,,,,,,,,m,0,1.129,,,,,,,,0,104,104,117,1
,,,,,,,,,,,,,,,,,199300,19,2022-01-30_13h24.20.479,lexical_decision_task_DD_L6,2021.2.3,MacIntel,60.0024001,,,,,,,,,,,0.5992,1,,,,,,,,,,,,,,,,,,,,,,,,-0.059392962,-0.392679908,0,0,0,,,,,,,BERRY,HB,z,y,./images/BERRYHB.png,,,,,,,,z,1,0.5992,,,,,,,,0,105,105,131,1
,,,,,,,,,,,,,,,,,199300,19,2022-01-30_13h24.20.479,lexical_decision_task_DD_L6,2021.2.3,MacIntel,60.0024001,,,,,,,,,,,0.8152,1,,,,,,,,,,,,,,,,,,,,,,,,-0.059392962,-0.392679908,0,0,0,,,,,,,POODLE,LB,z,y,./images/POODLELB.png,,,,,,,,z,1,0.8152,,,,,,,,0,106,106,165,1
,,,,,,,,,,,,,,,,,199300,19,2022-01-30_13h24.20.479,lexical_decision_task_DD_L6,2021.2.3,MacIntel,60.0024001,,,,,,,,,,,0.7144,1,,,,,,,,,,,,,,,,,,,,,,,,-0.059392962,-0.392679908,0,0,0,,,,,,,CRATER,LB,m,y,./images/CRATERLB.png,,,,,,,,m,1,0.7144,,,,,,,,0,107,107,3,1
,,,,,,,,,,,,,,,,,199300,19,2022-01-30_13h24.20.479,lexical_decision_task_DD_L6,2021.2.3,MacIntel,60.0024001,,,,,,,,,,,1.0791,1,,,,,,,,,,,,,,,,,,,,,,,,-0.059392962,-0.392679908,0,0,0,,,,,,,PIMPLE,HB,z,y,./images/PIMPLEHB.png,,,,,,,,z,1,1.0791,,,,,,,,0,108,108,155,1
,,,,,,,,,,,,,,,,,199300,19,2022-01-30_13h24.20.479,lexical_decision_task_DD_L6,2021.2.3,MacIntel,60.0024001,,,,,,,,,,,0.7794,1,,,,,,,,,,,,,,,,,,,,,,,,-0.059392962,-0.392679908,0,0,0,,,,,,,MUFFIN,C,z,y,./images/MUFFIN.png,,,,,,,,z,1,0.7794,,,,,,,,0,109,109,139,1
,,,,,,,,,,,,,,,,,199300,19,2022-01-30_13h24.20.479,lexical_decision_task_DD_L6,2021.2.3,MacIntel,60.0024001,,,,,,,,,,,1.8804,0,,,,,,,,,,,,,,,,,,,,,,,,-0.059392962,-0.392679908,0,0,0,,,,,,,PACKET,HB,z,y,./images/PACKETHB.png,,,,,,,,m,0,1.8804,,,,,,,,0,110,110,140,1
,,,,,,,,,,,,,,,,,199300,19,2022-01-30_13h24.20.479,lexical_decision_task_DD_L6,2021.2.3,MacIntel,60.0024001,,,,,,,,,,,0.7304,0,,,,,,,,,,,,,,,,,,,,,,,,-0.059392962,-0.392679908,0,0,0,,,,,,,QUILL,C,z,y,./images/QUILL.png,,,,,,,,m,0,0.7304,,,,,,,,0,111,111,115,1
,,,,,,,,,,,,,,,,,199300,19,2022-01-30_13h24.20.479,lexical_decision_task_DD_L6,2021.2.3,MacIntel,60.0024001,,,,,,,,,,,0.6301,1,,,,,,,,,,,,,,,,,,,,,,,,-0.059392962,-0.392679908,0,0,0,,,,,,,BURIAL,HB,z,y,./images/BURIALHB.png,,,,,,,,z,1,0.6301,,,,,,,,0,112,112,143,1
,,,,,,,,,,,,,,,,,199300,19,2022-01-30_13h24.20.479,lexical_decision_task_DD_L6,2021.2.3,MacIntel,60.0024001,,,,,,,,,,,0.6142,1,,,,,,,,,,,,,,,,,,,,,,,,-0.059392962,-0.392679908,0,0,0,,,,,,,BUNNY,C,m,y,./images/BUNNY.png,,,,,,,,m,1,0.6142,,,,,,,,0,113,113,13,1
,,,,,,,,,,,,,,,,,199300,19,2022-01-30_13h24.20.479,lexical_decision_task_DD_L6,2021.2.3,MacIntel,60.0024001,,,,,,,,,,,0.7172,0,,,,,,,,,,,,,,,,,,,,,,,,-0.059392962,-0.392679908,0,0,0,,,,,,,BARREL,HB,z,y,./images/BARRELHB.png,,,,,,,,m,0,0.7172,,,,,,,,0,114,114,116,1
,,,,,,,,,,,,,,,,,199300,19,2022-01-30_13h24.20.479,lexical_decision_task_DD_L6,2021.2.3,MacIntel,60.0024001,,,,,,,,,,,0.7021,1,,,,,,,,,,,,,,,,,,,,,,,,-0.059392962,-0.392679908,0,0,0,,,,,,,SKIING,HB,z,y,./images/SKIINGHB.png,,,,,,,,z,1,0.7021,,,,,,,,0,115,115,101,1
,,,,,,,,,,,,,,,,,199300,19,2022-01-30_13h24.20.479,lexical_decision_task_DD_L6,2021.2.3,MacIntel,60.0024001,,,,,,,,,,,1.2148,1,,,,,,,,,,,,,,,,,,,,,,,,-0.059392962,-0.392679908,0,0,0,,,,,,,BRIDE,C,m,y,./images/BRIDE.png,,,,,,,,m,1,1.2148,,,,,,,,0,116,116,64,1
,,,,,,,,,,,,,,,,,199300,19,2022-01-30_13h24.20.479,lexical_decision_task_DD_L6,2021.2.3,MacIntel,60.0024001,,,,,,,,,,,0.666,1,,,,,,,,,,,,,,,,,,,,,,,,-0.059392962,-0.392679908,0,0,0,,,,,,,MOSQUE,C,z,y,./images/MOSQUE.png,,,,,,,,z,1,0.666,,,,,,,,0,117,117,127,1
,,,,,,,,,,,,,,,,,199300,19,2022-01-30_13h24.20.479,lexical_decision_task_DD_L6,2021.2.3,MacIntel,60.0024001,,,,,,,,,,,0.6505,1,,,,,,,,,,,,,,,,,,,,,,,,-0.059392962,-0.392679908,0,0,0,,,,,,,DANCER,LB,m,y,./images/DANCERLB.png,,,,,,,,m,1,0.6505,,,,,,,,0,118,118,21,1
,,,,,,,,,,,,,,,,,199300,19,2022-01-30_13h24.20.479,lexical_decision_task_DD_L6,2021.2.3,MacIntel,60.0024001,,,,,,,,,,,0.6328,1,,,,,,,,,,,,,,,,,,,,,,,,-0.059392962,-0.392679908,0,0,0,,,,,,,LIZARD,HB,z,y,./images/LIZARDHB.png,,,,,,,,z,1,0.6328,,,,,,,,0,119,119,128,1
,,,,,,,,,,,,,,,,,199300,19,2022-01-30_13h24.20.479,lexical_decision_task_DD_L6,2021.2.3,MacIntel,60.0024001,,,,,,,,,,,0.947,1,,,,,,,,,,,,,,,,,,,,,,,,-0.059392962,-0.392679908,0,0,0,,,,,,,THROAT,LB,z,y,./images/THROATLB.png,,,,,,,,z,1,0.947,,,,,,,,0,120,120,120,1
,,,,,,,,,,,,,,,,,199300,19,2022-01-30_13h24.20.479,lexical_decision_task_DD_L6,2021.2.3,MacIntel,60.0024001,,,,,,,,,,,0.7021,1,,,,,,,,,,,,,,,,,,,,,,,,-0.059392962,-0.392679908,0,0,0,,,,,,,MELON,C,z,y,./images/MELON.png,,,,,,,,z,1,0.7021,,,,,,,,0,121,121,106,1
,,,,,,,,,,,,,,,,,199300,19,2022-01-30_13h24.20.479,lexical_decision_task_DD_L6,2021.2.3,MacIntel,60.0024001,,,,,,,,,,,0.5818,1,,,,,,,,,,,,,,,,,,,,,,,,-0.059392962,-0.392679908,0,0,0,,,,,,,RHINO,LB,z,y,./images/RHINOLB.png,,,,,,,,z,1,0.5818,,,,,,,,0,122,122,93,1
,,,,,,,,,,,,,,,,,199300,19,2022-01-30_13h24.20.479,lexical_decision_task_DD_L6,2021.2.3,MacIntel,60.0024001,,,,,,,,,,,0.5423,1,,,,,,,,,,,,,,,,,,,,,,,,-0.059392962,-0.392679908,0,0,0,,,,,,,ONION,LB,z,y,./images/ONIONLB.png,,,,,,,,z,1,0.5423,,,,,,,,0,123,123,135,1
,,,,,,,,,,,,,,,,,199300,19,2022-01-30_13h24.20.479,lexical_decision_task_DD_L6,2021.2.3,MacIntel,60.0024001,,,,,,,,,,,0.5653,1,,,,,,,,,,,,,,,,,,,,,,,,-0.059392962,-0.392679908,0,0,0,,,,,,,PASTA,HB,z,y,./images/PASTAHB.png,,,,,,,,z,1,0.5653,,,,,,,,0,124,124,89,1
,,,,,,,,,,,,,,,,,199300,19,2022-01-30_13h24.20.479,lexical_decision_task_DD_L6,2021.2.3,MacIntel,60.0024001,,,,,,,,,,,0.586,1,,,,,,,,,,,,,,,,,,,,,,,,-0.059392962,-0.392679908,0,0,0,space,,,,,,STOOL,C,m,y,./images/STOOL.png,1.499,,,,,,,m,1,0.586,,,,,,,,0,125,125,43,1
,,,,,,,,,,,,,,,,,199300,19,2022-01-30_13h24.20.479,lexical_decision_task_DD_L6,2021.2.3,MacIntel,60.0024001,,,,,,,,,,,1.3643,1,,,,,,,,,,,,,,,,,,,,,,,,-0.059392962,-0.392679908,0,0,0,,,,,,,SCREW,LB,z,y,./images/SCREWLB.png,,,,,,,,z,1,1.3643,,,,,,,,0,126,126,108,1
,,,,,,,,,,,,,,,,,199300,19,2022-01-30_13h24.20.479,lexical_decision_task_DD_L6,2021.2.3,MacIntel,60.0024001,,,,,,,,,,,0.7538,0,,,,,,,,,,,,,,,,,,,,,,,,-0.059392962,-0.392679908,0,0,0,,,,,,,BANNER,C,z,y,./images/BANNER.png,,,,,,,,m,0,0.7538,,,,,,,,0,127,127,136,1
,,,,,,,,,,,,,,,,,199300,19,2022-01-30_13h24.20.479,lexical_decision_task_DD_L6,2021.2.3,MacIntel,60.0024001,,,,,,,,,,,0.6621,1,,,,,,,,,,,,,,,,,,,,,,,,-0.059392962,-0.392679908,0,0,0,,,,,,,TULIP,HB,z,y,./images/TULIPHB.png,,,,,,,,z,1,0.6621,,,,,,,,0,128,128,92,1
,,,,,,,,,,,,,,,,,199300,19,2022-01-30_13h24.20.479,lexical_decision_task_DD_L6,2021.2.3,MacIntel,60.0024001,,,,,,,,,,,0.7129,1,,,,,,,,,,,,,,,,,,,,,,,,-0.059392962,-0.392679908,0,0,0,,,,,,,RULER,C,m,y,./images/RULER.png,,,,,,,,m,1,0.7129,,,,,,,,0,129,129,79,1
,,,,,,,,,,,,,,,,,199300,19,2022-01-30_13h24.20.479,lexical_decision_task_DD_L6,2021.2.3,MacIntel,60.0024001,,,,,,,,,,,0.7128,1,,,,,,,,,,,,,,,,,,,,,,,,-0.059392962,-0.392679908,0,0,0,,,,,,,URINE,C,z,y,./images/URINE.png,,,,,,,,z,1,0.7128,,,,,,,,0,130,130,154,1
,,,,,,,,,,,,,,,,,199300,19,2022-01-30_13h24.20.479,lexical_decision_task_DD_L6,2021.2.3,MacIntel,60.0024001,,,,,,,,,,,2.3319,1,,,,,,,,,,,,,,,,,,,,,,,,-0.059392962,-0.392679908,0,0,0,,,,,,,COUCH,HB,z,y,./images/COUCHHB.png,,,,,,,,z,1,2.3319,,,,,,,,0,131,131,161,1
,,,,,,,,,,,,,,,,,199300,19,2022-01-30_13h24.20.479,lexical_decision_task_DD_L6,2021.2.3,MacIntel,60.0024001,,,,,,,,,,,0.7799,1,,,,,,,,,,,,,,,,,,,,,,,,-0.059392962,-0.392679908,0,0,0,,,,,,,STAIN,LB,m,y,./images/STAINLB.png,,,,,,,,m,1,0.7799,,,,,,,,0,132,132,6,1
,,,,,,,,,,,,,,,,,199300,19,2022-01-30_13h24.20.479,lexical_decision_task_DD_L6,2021.2.3,MacIntel,60.0024001,,,,,,,,,,,0.6644,1,,,,,,,,,,,,,,,,,,,,,,,,-0.059392962,-0.392679908,0,0,0,,,,,,,CLOTH,HB,m,y,./images/CLOTHHB.png,,,,,,,,m,1,0.6644,,,,,,,,0,133,133,23,1
,,,,,,,,,,,,,,,,,199300,19,2022-01-30_13h24.20.479,lexical_decision_task_DD_L6,2021.2.3,MacIntel,60.0024001,,,,,,,,,,,0.5646,1,,,,,,,,,,,,,,,,,,,,,,,,-0.059392962,-0.392679908,0,0,0,,,,,,,BANANA,C,m,y,./images/BANANA.png,,,,,,,,m,1,0.5646,,,,,,,,0,134,134,70,1
,,,,,,,,,,,,,,,,,199300,19,2022-01-30_13h24.20.479,lexical_decision_task_DD_L6,2021.2.3,MacIntel,60.0024001,,,,,,,,,,,0.7634,0,,,,,,,,,,,,,,,,,,,,,,,,-0.059392962,-0.392679908,0,0,0,,,,,,,PARADE,HB,m,y,./images/PARADEHB.png,,,,,,,,z,0,0.7634,,,,,,,,0,135,135,17,1
,,,,,,,,,,,,,,,,,199300,19,2022-01-30_13h24.20.479,lexical_decision_task_DD_L6,2021.2.3,MacIntel,60.0024001,,,,,,,,,,,0.6705,1,,,,,,,,,,,,,,,,,,,,,,,,-0.059392962,-0.392679908,0,0,0,,,,,,,PILOT,HB,m,y,./images/PILOTHB.png,,,,,,,,m,1,0.6705,,,,,,,,0,136,136,50,1
,,,,,,,,,,,,,,,,,199300,19,2022-01-30_13h24.20.479,lexical_decision_task_DD_L6,2021.2.3,MacIntel,60.0024001,,,,,,,,,,,0.9465,1,,,,,,,,,,,,,,,,,,,,,,,,-0.059392962,-0.392679908,0,0,0,,,,,,,STRING,HB,z,y,./images/STRINGHB.png,,,,,,,,z,1,0.9465,,,,,,,,0,137,137,125,1
,,,,,,,,,,,,,,,,,199300,19,2022-01-30_13h24.20.479,lexical_decision_task_DD_L6,2021.2.3,MacIntel,60.0024001,,,,,,,,,,,0.912,0,,,,,,,,,,,,,,,,,,,,,,,,-0.059392962,-0.392679908,0,0,0,,,,,,,GRANNY,HB,m,y,./images/GRANNYHB.png,,,,,,,,z,0,0.912,,,,,,,,0,138,138,20,1
,,,,,,,,,,,,,,,,,199300,19,2022-01-30_13h24.20.479,lexical_decision_task_DD_L6,2021.2.3,MacIntel,60.0024001,,,,,,,,,,,0.9657,1,,,,,,,,,,,,,,,,,,,,,,,,-0.059392962,-0.392679908,0,0,0,,,,,,,MOOSE,LB,z,y,./images/MOOSELB.png,,,,,,,,z,1,0.9657,,,,,,,,0,139,139,141,1
,,,,,,,,,,,,,,,,,199300,19,2022-01-30_13h24.20.479,lexical_decision_task_DD_L6,2021.2.3,MacIntel,60.0024001,,,,,,,,,,,0.5668,1,,,,,,,,,,,,,,,,,,,,,,,,-0.059392962,-0.392679908,0,0,0,,,,,,,BASKET,HB,m,y,./images/BASKETHB.png,,,,,,,,m,1,0.5668,,,,,,,,0,140,140,44,1
,,,,,,,,,,,,,,,,,199300,19,2022-01-30_13h24.20.479,lexical_decision_task_DD_L6,2021.2.3,MacIntel,60.0024001,,,,,,,,,,,0.8686,0,,,,,,,,,,,,,,,,,,,,,,,,-0.059392962,-0.392679908,0,0,0,,,,,,,STREAM,HB,m,y,./images/STREAMHB.png,,,,,,,,z,0,0.8686,,,,,,,,0,141,141,41,1
,,,,,,,,,,,,,,,,,199300,19,2022-01-30_13h24.20.479,lexical_decision_task_DD_L6,2021.2.3,MacIntel,60.0024001,,,,,,,,,,,0.6647,1,,,,,,,,,,,,,,,,,,,,,,,,-0.059392962,-0.392679908,0,0,0,,,,,,,BROOM,LB,m,y,./images/BROOMLB.png,,,,,,,,m,1,0.6647,,,,,,,,0,142,142,78,1
,,,,,,,,,,,,,,,,,199300,19,2022-01-30_13h24.20.479,lexical_decision_task_DD_L6,2021.2.3,MacIntel,60.0024001,,,,,,,,,,,0.8801,0,,,,,,,,,,,,,,,,,,,,,,,,-0.059392962,-0.392679908,0,0,0,,,,,,,ARTIST,C,m,y,./images/ARTIST.png,,,,,,,,z,0,0.8801,,,,,,,,0,143,143,61,1
,,,,,,,,,,,,,,,,,199300,19,2022-01-30_13h24.20.479,lexical_decision_task_DD_L6,2021.2.3,MacIntel,60.0024001,,,,,,,,,,,1.0808,0,,,,,,,,,,,,,,,,,,,,,,,,-0.059392962,-0.392679908,0,0,0,,,,,,,CLIFF,HB,m,y,./images/CLIFFHB.png,,,,,,,,z,0,1.0808,,,,,,,,0,144,144,8,1
,,,,,,,,,,,,,,,,,199300,19,2022-01-30_13h24.20.479,lexical_decision_task_DD_L6,2021.2.3,MacIntel,60.0024001,,,,,,,,,,,0.8316,1,,,,,,,,,,,,,,,,,,,,,,,,-0.059392962,-0.392679908,0,0,0,,,,,,,MEDAL,HB,m,y,./images/MEDALHB.png,,,,,,,,m,1,0.8316,,,,,,,,0,145,145,11,1
,,,,,,,,,,,,,,,,,199300,19,2022-01-30_13h24.20.479,lexical_decision_task_DD_L6,2021.2.3,MacIntel,60.0024001,,,,,,,,,,,0.8113,1,,,,,,,,,,,,,,,,,,,,,,,,-0.059392962,-0.392679908,0,0,0,,,,,,,SAILOR,C,z,y,./images/SAILOR.png,,,,,,,,z,1,0.8113,,,,,,,,0,146,146,151,1
,,,,,,,,,,,,,,,,,199300,19,2022-01-30_13h24.20.479,lexical_decision_task_DD_L6,2021.2.3,MacIntel,60.0024001,,,,,,,,,,,0.6653,1,,,,,,,,,,,,,,,,,,,,,,,,-0.059392962,-0.392679908,0,0,0,,,,,,,BAKER,LB,m,y,./images/BAKERLB.png,,,,,,,,m,1,0.6653,,,,,,,,0,147,147,63,1
,,,,,,,,,,,,,,,,,199300,19,2022-01-30_13h24.20.479,lexical_decision_task_DD_L6,2021.2.3,MacIntel,60.0024001,,,,,,,,,,,0.9659,1,,,,,,,,,,,,,,,,,,,,,,,,-0.059392962,-0.392679908,0,0,0,,,,,,,PARCEL,LB,m,y,./images/PARCELLB.png,,,,,,,,m,1,0.9659,,,,,,,,0,148,148,18,1
,,,,,,,,,,,,,,,,,199300,19,2022-01-30_13h24.20.479,lexical_decision_task_DD_L6,2021.2.3,MacIntel,60.0024001,,,,,,,,,,,0.7334,0,,,,,,,,,,,,,,,,,,,,,,,,-0.059392962,-0.392679908,0,0,0,,,,,,,GARDEN,C,m,y,./images/GARDEN.png,,,,,,,,z,0,0.7334,,,,,,,,0,149,149,10,1
,,,,,,,,,,,,,,,,,199300,19,2022-01-30_13h24.20.479,lexical_decision_task_DD_L6,2021.2.3,MacIntel,60.0024001,,,,,,,,,,,0.8299,1,,,,,,,,,,,,,,,,,,,,,,,,-0.059392962,-0.392679908,0,0,0,,,,,,,JAGUAR,LB,z,y,./images/JAGUARLB.png,,,,,,,,z,1,0.8299,,,,,,,,0,150,150,102,1
,,,,,,,,,,,,,,,,,199300,19,2022-01-30_13h24.20.479,lexical_decision_task_DD_L6,2021.2.3,MacIntel,60.0024001,,,,,,,,,,,0.8497,1,,,,,,,,,,,,,,,,,,,,,,,,-0.059392962,-0.392679908,0,0,0,,,,,,,FLASK,LB,m,y,./images/FLASKLB.png,,,,,,,,m,1,0.8497,,,,,,,,0,151,151,72,1
,,,,,,,,,,,,,,,,,199300,19,2022-01-30_13h24.20.479,lexical_decision_task_DD_L6,2021.2.3,MacIntel,60.0024001,,,,,,,,,,,0.6807,1,,,,,,,,,,,,,,,,,,,,,,,,-0.059392962,-0.392679908,0,0,0,,,,,,,FOLDER,LB,z,y,./images/FOLDERLB.png,,,,,,,,z,1,0.6807,,,,,,,,0,152,152,126,1
,,,,,,,,,,,,,,,,,199300,19,2022-01-30_13h24.20.479,lexical_decision_task_DD_L6,2021.2.3,MacIntel,60.0024001,,,,,,,,,,,0.8968,1,,,,,,,,,,,,,,,,,,,,,,,,-0.059392962,-0.392679908,0,0,0,,,,,,,KITTEN,LB,z,y,./images/KITTENLB.png,,,,,,,,z,1,0.8968,,,,,,,,0,153,153,129,1
,,,,,,,,,,,,,,,,,199300,19,2022-01-30_13h24.20.479,lexical_decision_task_DD_L6,2021.2.3,MacIntel,60.0024001,,,,,,,,,,,0.7142,1,,,,,,,,,,,,,,,,,,,,,,,,-0.059392962,-0.392679908,0,0,0,,,,,,,SPINE,HB,m,y,./images/SPINEHB.png,,,,,,,,m,1,0.7142,,,,,,,,0,154,154,65,1
,,,,,,,,,,,,,,,,,199300,19,2022-01-30_13h24.20.479,lexical_decision_task_DD_L6,2021.2.3,MacIntel,60.0024001,,,,,,,,,,,2.3063,0,,,,,,,,,,,,,,,,,,,,,,,,-0.059392962,-0.392679908,0,0,0,,,,,,,GLOVE,C,m,y,./images/GLOVE.png,,,,,,,,z,0,2.3063,,,,,,,,0,155,155,73,1
,,,,,,,,,,,,,,,,,199300,19,2022-01-30_13h24.20.479,lexical_decision_task_DD_L6,2021.2.3,MacIntel,60.0024001,,,,,,,,,,,0.6491,1,,,,,,,,,,,,,,,,,,,,,,,,-0.059392962,-0.392679908,0,0,0,,,,,,,LAGOON,HB,m,y,./images/LAGOONHB.png,,,,,,,,m,1,0.6491,,,,,,,,0,156,156,47,1
,,,,,,,,,,,,,,,,,199300,19,2022-01-30_13h24.20.479,lexical_decision_task_DD_L6,2021.2.3,MacIntel,60.0024001,,,,,,,,,,,0.9294,1,,,,,,,,,,,,,,,,,,,,,,,,-0.059392962,-0.392679908,0,0,0,,,,,,,PURSE,HB,z,y,./images/PURSEHB.png,,,,,,,,z,1,0.9294,,,,,,,,0,157,157,146,1
,,,,,,,,,,,,,,,,,199300,19,2022-01-30_13h24.20.479,lexical_decision_task_DD_L6,2021.2.3,MacIntel,60.0024001,,,,,,,,,,,0.698,1,,,,,,,,,,,,,,,,,,,,,,,,-0.059392962,-0.392679908,0,0,0,,,,,,,STEAK,C,m,y,./images/STEAK.png,,,,,,,,m,1,0.698,,,,,,,,0,158,158,31,1
,,,,,,,,,,,,,,,,,199300,19,2022-01-30_13h24.20.479,lexical_decision_task_DD_L6,2021.2.3,MacIntel,60.0024001,,,,,,,,,,,0.799,1,,,,,,,,,,,,,,,,,,,,,,,,-0.059392962,-0.392679908,0,0,0,,,,,,,PAINT,C,z,y,./images/PAINT.png,,,,,,,,z,1,0.799,,,,,,,,0,159,159,91,1
,,,,,,,,,,,,,,,,,199300,19,2022-01-30_13h24.20.479,lexical_decision_task_DD_L6,2021.2.3,MacIntel,60.0024001,,,,,,,,,,,1.219,1,,,,,,,,,,,,,,,,,,,,,,,,-0.059392962,-0.392679908,0,0,0,,,,,,,ENGINE,HB,m,y,./images/ENGINEHB.png,,,,,,,,m,1,1.219,,,,,,,,0,160,160,38,1
,,,,,,,,,,,,,,,,,199300,19,2022-01-30_13h24.20.479,lexical_decision_task_DD_L6,2021.2.3,MacIntel,60.0024001,,,,,,,,,,,0.632,1,,,,,,,,,,,,,,,,,,,,,,,,-0.059392962,-0.392679908,0,0,0,,,,,,,CHERRY,LB,m,y,./images/CHERRYLB.png,,,,,,,,m,1,0.632,,,,,,,,0,161,161,54,1
,,,,,,,,,,,,,,,,,199300,19,2022-01-30_13h24.20.479,lexical_decision_task_DD_L6,2021.2.3,MacIntel,60.0024001,,,,,,,,,,,0.8978,0,,,,,,,,,,,,,,,,,,,,,,,,-0.059392962,-0.392679908,0,0,0,,,,,,,DONKEY,C,m,y,./images/DONKEY.png,,,,,,,,z,0,0.8978,,,,,,,,0,162,162,19,1
,,,,,,,,,,,,,,,,,199300,19,2022-01-30_13h24.20.479,lexical_decision_task_DD_L6,2021.2.3,MacIntel,60.0024001,,,,,,,,,,,0.9648,1,,,,,,,,,,,,,,,,,,,,,,,,-0.059392962,-0.392679908,0,0,0,,,,,,,SNACK,C,z,y,./images/SNACK.png,,,,,,,,z,1,0.9648,,,,,,,,0,163,163,157,1
,,,,,,,,,,,,,,,,,199300,19,2022-01-30_13h24.20.479,lexical_decision_task_DD_L6,2021.2.3,MacIntel,60.0024001,,,,,,,,,,,0.817,0,,,,,,,,,,,,,,,,,,,,,,,,-0.059392962,-0.392679908,0,0,0,,,,,,,SAUNA,LB,m,y,./images/SAUNALB.png,,,,,,,,z,0,0.817,,,,,,,,0,164,164,33,1
,,,,,,,,,,,,,,,,,199300,19,2022-01-30_13h24.20.479,lexical_decision_task_DD_L6,2021.2.3,MacIntel,60.0024001,,,,,,,,,,,0.6647,1,,,,,,,,,,,,,,,,,,,,,,,,-0.059392962,-0.392679908,0,0,0,,,,,,,BISHOP,C,m,y,./images/BISHOP.png,,,,,,,,m,1,0.6647,,,,,,,,0,165,165,49,1
,,,,,,,,,,,,,,,,,199300,19,2022-01-30_13h24.20.479,lexical_decision_task_DD_L6,2021.2.3,MacIntel,60.0024001,,,,,,,,,,,1.1313,1,,,,,,,,,,,,,,,,,,,,,,,,-0.059392962,-0.392679908,0,0,0,,,,,,,BUBBLE,HB,m,y,./images/BUBBLEHB.png,,,,,,,,m,1,1.1313,,,,,,,,0,166,166,71,1
,,,,,,,,,,,,,,,,,199300,19,2022-01-30_13h24.20.479,lexical_decision_task_DD_L6,2021.2.3,MacIntel,60.0024001,,,,,,,,,,,3.8975,1,,,,,,,,,,,,,,,,,,,,,,,,-0.059392962,-0.392679908,0,0,0,,,,,,,TWINS,LB,z,y,./images/TWINSLB.png,,,,,,,,z,1,3.8975,,,,,,,,0,167,167,144,1
