key_resp.keys,key_resp.rt,instr_done_touch.x,instr_done_touch.y,instr_done_touch.leftButton,instr_done_touch.midButton,instr_done_touch.rightButton,instruction_pages.thisRepN,instruction_pages.thisTrialN,instruction_pages.thisN,instruction_pages.thisIndex,instruction_pages.ran,pageN,phase,instruct_text,has_image,instruct_image,participant,age,date,expName,psychopyVersion,OS,frameRate,response.keys,response.corr,response.rt,touch_resp.x,touch_resp.y,touch_resp.leftButton,touch_resp.midButton,touch_resp.rightButton,touch_resp.time,touch_resp.clicked_name,rt,corr,practrials.thisRepN,practrials.thisTrialN,practrials.thisN,practrials.thisIndex,practrials.ran,TrialID,Target,corrAns,end_of_practice_trials_pages.thisRepN,end_of_practice_trials_pages.thisTrialN,end_of_practice_trials_pages.thisN,end_of_practice_trials_pages.thisIndex,end_of_practice_trials_pages.ran,key_resp_2.keys,key_resp_2.corr,key_resp_2.rt,targ_click.x,targ_click.y,targ_click.leftButton,targ_click.midButton,targ_click.rightButton,targ_click.time,targ_click.clicked_name,break_done_touch.x,break_done_touch.y,break_done_touch.leftButton,break_done_touch.midButton,break_done_touch.rightButton,break_done_keyboard.keys,maintrials.thisRepN,maintrials.thisTrialN,maintrials.thisN,maintrials.thisIndex,maintrials.ran,string,blur,study,lex,stim_path,break_done_keyboard.rt,test_instructions.thisRepN,test_instructions.thisTrialN,test_instructions.thisN,test_instructions.thisIndex,test_instructions.ran,instr_done_touch.clicked_name,key_resp_3.keys,key_resp_3.corr,key_resp_3.rt,test_click.x,test_click.y,test_click.leftButton,test_click.midButton,test_click.rightButton,test_click.time,test_click.clicked_name,test_phase.thisRepN,test_phase.thisTrialN,test_phase.thisN,test_phase.thisIndex,test_phase.ran
space,31.78,-0.011111111,-0.244444444,0,0,0,0,0,0,0,1,1,instructions,"INSTRUCTIONS
At the start of each trial, look at the plus sign  (+) in the center of the screen.  This tells you that a trial is about to begin and where to look. Second, the plus sign will disappear and a string of letters will appear. Your task is to determine if the string of letters is a word or not. If the item is a word press the M key (on keyboard)  or touch the word button (phone/tablet).  If the item is not a word,  press the  Z key (on keyboard)  or touch the nonword button (on phone/tablet). 
Press the space bar or touch  continue.",0,,199303,18,2022-01-25_21h34.59.011,lexical_decision_task_DD_L2,2021.2.3,MacIntel,58.82352941,,,,,,,,,,,,,,,,,,,,,,,,,,,,,,,,,,,,,,,,,,,,,,,,,,,,,,,,,,,,,,,,,,,,,,,,,
space,4.533,-0.011111111,-0.244444444,0,0,0,0,1,1,1,1,2,instructions,"If your device has a keyboard, press the 'Z' key for nonwords and the 'M' key for words.





Press the space bar or touch the button below to continue.",0,keyboard-example.gif,199303,18,2022-01-25_21h34.59.011,lexical_decision_task_DD_L2,2021.2.3,MacIntel,58.82352941,,,,,,,,,,,,,,,,,,,,,,,,,,,,,,,,,,,,,,,,,,,,,,,,,,,,,,,,,,,,,,,,,,,,,,,,,
space,1.341,-0.011111111,-0.244444444,0,0,0,0,2,2,2,1,3,instructions,"If you are using a touchscreen only device, use the buttons on the screen. Do not use the mouse.





Press the space bar or touch the button below to continue.",0,touchscreen-example.gif,199303,18,2022-01-25_21h34.59.011,lexical_decision_task_DD_L2,2021.2.3,MacIntel,58.82352941,,,,,,,,,,,,,,,,,,,,,,,,,,,,,,,,,,,,,,,,,,,,,,,,,,,,,,,,,,,,,,,,,,,,,,,,,
space,4.84,-0.011111111,-0.244444444,0,0,0,0,3,3,3,1,4,instructions,"It is very important that you respond as quickly and accurately as possible, as each letter string will only be on the screen for two seconds. If you do not respond within this time, the message 'Too slow!' will be displayed and the experiment will progress to the next letter string. The first 20 trials will be practice trials and you will receive feedback on your answers. 

Press the space bar or touch the button below to start the practice trials.",0,,199303,18,2022-01-25_21h34.59.011,lexical_decision_task_DD_L2,2021.2.3,MacIntel,58.82352941,,,,,,,,,,,,,,,,,,,,,,,,,,,,,,,,,,,,,,,,,,,,,,,,,,,,,,,,,,,,,,,,,,,,,,,,,
,,,,,,,,,,,,,,,,,199303,18,2022-01-25_21h34.59.011,lexical_decision_task_DD_L2,2021.2.3,MacIntel,58.82352941,m,1,0.932,,,,,,,,0.932,1,0,0,0,0,1,1001,UTOPIA,m,,,,,,,,,,,,,,,,,,,,,,,,,,,,,,,,,,,,,,,,,,,,,,,,,,,,,
,,,,,,,,,,,,,,,,,199303,18,2022-01-25_21h34.59.011,lexical_decision_task_DD_L2,2021.2.3,MacIntel,58.82352941,z,1,0.759,,,,,,,,0.759,1,0,1,1,11,1,1001,RASHET,z,,,,,,,,,,,,,,,,,,,,,,,,,,,,,,,,,,,,,,,,,,,,,,,,,,,,,
,,,,,,,,,,,,,,,,,199303,18,2022-01-25_21h34.59.011,lexical_decision_task_DD_L2,2021.2.3,MacIntel,58.82352941,m,1,0.494,,,,,,,,0.494,1,0,2,2,7,1,1001,VOLUME,m,,,,,,,,,,,,,,,,,,,,,,,,,,,,,,,,,,,,,,,,,,,,,,,,,,,,,
,,,,,,,,,,,,,,,,,199303,18,2022-01-25_21h34.59.011,lexical_decision_task_DD_L2,2021.2.3,MacIntel,58.82352941,z,1,0.583,,,,,,,,0.583,1,0,3,3,8,1,1001,ASLERT,z,,,,,,,,,,,,,,,,,,,,,,,,,,,,,,,,,,,,,,,,,,,,,,,,,,,,,
,,,,,,,,,,,,,,,,,199303,18,2022-01-25_21h34.59.011,lexical_decision_task_DD_L2,2021.2.3,MacIntel,58.82352941,z,1,0.699,,,,,,,,0.699,1,0,4,4,15,1,1001,WHAISE,z,,,,,,,,,,,,,,,,,,,,,,,,,,,,,,,,,,,,,,,,,,,,,,,,,,,,,
,,,,,,,,,,,,,,,,,199303,18,2022-01-25_21h34.59.011,lexical_decision_task_DD_L2,2021.2.3,MacIntel,58.82352941,m,1,0.438,,,,,,,,0.438,1,0,5,5,2,1,1001,ALMOND,m,,,,,,,,,,,,,,,,,,,,,,,,,,,,,,,,,,,,,,,,,,,,,,,,,,,,,
,,,,,,,,,,,,,,,,,199303,18,2022-01-25_21h34.59.011,lexical_decision_task_DD_L2,2021.2.3,MacIntel,58.82352941,z,1,0.726,,,,,,,,0.726,1,0,6,6,12,1,1001,SPRINY,z,,,,,,,,,,,,,,,,,,,,,,,,,,,,,,,,,,,,,,,,,,,,,,,,,,,,,
,,,,,,,,,,,,,,,,,199303,18,2022-01-25_21h34.59.011,lexical_decision_task_DD_L2,2021.2.3,MacIntel,58.82352941,m,1,0.475,,,,,,,,0.475,1,0,7,7,1,1,1001,ADJUST,m,,,,,,,,,,,,,,,,,,,,,,,,,,,,,,,,,,,,,,,,,,,,,,,,,,,,,
,,,,,,,,,,,,,,,,,199303,18,2022-01-25_21h34.59.011,lexical_decision_task_DD_L2,2021.2.3,MacIntel,58.82352941,z,1,0.592,,,,,,,,0.592,1,0,8,8,9,1,1001,FARINY,z,,,,,,,,,,,,,,,,,,,,,,,,,,,,,,,,,,,,,,,,,,,,,,,,,,,,,
,,,,,,,,,,,,,,,,,199303,18,2022-01-25_21h34.59.011,lexical_decision_task_DD_L2,2021.2.3,MacIntel,58.82352941,m,1,0.543,,,,,,,,0.543,1,0,9,9,6,1,1001,ZOMBIE,m,,,,,,,,,,,,,,,,,,,,,,,,,,,,,,,,,,,,,,,,,,,,,,,,,,,,,
,,,,,,,,,,,,,,,,,199303,18,2022-01-25_21h34.59.011,lexical_decision_task_DD_L2,2021.2.3,MacIntel,58.82352941,m,1,0.555,,,,,,,,0.555,1,0,10,10,4,1,1001,SQUEAK,m,,,,,,,,,,,,,,,,,,,,,,,,,,,,,,,,,,,,,,,,,,,,,,,,,,,,,
,,,,,,,,,,,,,,,,,199303,18,2022-01-25_21h34.59.011,lexical_decision_task_DD_L2,2021.2.3,MacIntel,58.82352941,z,1,0.743,,,,,,,,0.743,1,0,11,11,10,1,1001,INLADE,z,,,,,,,,,,,,,,,,,,,,,,,,,,,,,,,,,,,,,,,,,,,,,,,,,,,,,
,,,,,,,,,,,,,,,,,199303,18,2022-01-25_21h34.59.011,lexical_decision_task_DD_L2,2021.2.3,MacIntel,58.82352941,m,1,0.627,,,,,,,,0.627,1,0,12,12,5,1,1001,OBTAIN,m,,,,,,,,,,,,,,,,,,,,,,,,,,,,,,,,,,,,,,,,,,,,,,,,,,,,,
,,,,,,,,,,,,,,,,,199303,18,2022-01-25_21h34.59.011,lexical_decision_task_DD_L2,2021.2.3,MacIntel,58.82352941,z,1,0.585,,,,,,,,0.585,1,0,13,13,14,1,1001,THRALE,z,,,,,,,,,,,,,,,,,,,,,,,,,,,,,,,,,,,,,,,,,,,,,,,,,,,,,
,,,,,,,,,,,,,,,,,199303,18,2022-01-25_21h34.59.011,lexical_decision_task_DD_L2,2021.2.3,MacIntel,58.82352941,m,1,0.513,,,,,,,,0.513,1,0,14,14,3,1,1001,MATRIX,m,,,,,,,,,,,,,,,,,,,,,,,,,,,,,,,,,,,,,,,,,,,,,,,,,,,,,
,,,,,,,,,,,,,,,,,199303,18,2022-01-25_21h34.59.011,lexical_decision_task_DD_L2,2021.2.3,MacIntel,58.82352941,z,1,0.622,,,,,,,,0.622,1,0,15,15,13,1,1001,ROUPET,z,,,,,,,,,,,,,,,,,,,,,,,,,,,,,,,,,,,,,,,,,,,,,,,,,,,,,
space,32.085,-0.011111111,-0.244444444,0,0,0,,,,,,1,end_of_practice,"You have completed the practice trials. During the experimental trials, you will not receive feedback. 
Before you begin, please ensure that you are in a comfortable and quiet location and will not be disturbed for about 15 minutes, as we cannot use your data if you do not complete all the trials. 
 When you are ready to start the experimental trials, please press space or touch the button below.",,,199303,18,2022-01-25_21h34.59.011,lexical_decision_task_DD_L2,2021.2.3,MacIntel,58.82352941,,,,,,,,,,,,,,,,,,,,,0,0,0,0,1,,,,,,,,,,,,,,,,,,,,,,,,,,,,,,,,,,,,,,,,,,,,,,,,
,,,,,,,,,,,,,,,,,199303,18,2022-01-25_21h34.59.011,lexical_decision_task_DD_L2,2021.2.3,MacIntel,58.82352941,,,,,,,,,,,1.086,0,,,,,,,,,,,,,,m,0,1.086,,,,,,,,-0.011111111,-0.244444444,0,0,0,,0,0,0,79,1,CRUST,LB,old,y,./images/CRUSTLB.png,,,,,,,,,,,,,,,,,,,,,,
,,,,,,,,,,,,,,,,,199303,18,2022-01-25_21h34.59.011,lexical_decision_task_DD_L2,2021.2.3,MacIntel,58.82352941,,,,,,,,,,,0.676,0,,,,,,,,,,,,,,m,0,0.676,,,,,,,,-0.011111111,-0.244444444,0,0,0,,0,1,1,15,1,GREASE,HB,old,y,./images/GREASEHB.png,,,,,,,,,,,,,,,,,,,,,,
,,,,,,,,,,,,,,,,,199303,18,2022-01-25_21h34.59.011,lexical_decision_task_DD_L2,2021.2.3,MacIntel,58.82352941,,,,,,,,,,,0.877,0,,,,,,,,,,,,,,z,0,0.877,,,,,,,,-0.011111111,-0.244444444,0,0,0,,0,2,2,112,1,MYING,HB,old,n,./images/MYINGHB.png,,,,,,,,,,,,,,,,,,,,,,
,,,,,,,,,,,,,,,,,199303,18,2022-01-25_21h34.59.011,lexical_decision_task_DD_L2,2021.2.3,MacIntel,58.82352941,,,,,,,,,,,0.543,0,,,,,,,,,,,,,,m,0,0.543,,,,,,,,-0.011111111,-0.244444444,0,0,0,,0,3,3,21,1,KIDNEY,HB,old,y,./images/KIDNEYHB.png,,,,,,,,,,,,,,,,,,,,,,
,,,,,,,,,,,,,,,,,199303,18,2022-01-25_21h34.59.011,lexical_decision_task_DD_L2,2021.2.3,MacIntel,58.82352941,,,,,,,,,,,0.681,0,,,,,,,,,,,,,,z,0,0.681,,,,,,,,-0.011111111,-0.244444444,0,0,0,,0,4,4,146,1,MOOST,LB,old,n,./images/MOOSTLB.png,,,,,,,,,,,,,,,,,,,,,,
,,,,,,,,,,,,,,,,,199303,18,2022-01-25_21h34.59.011,lexical_decision_task_DD_L2,2021.2.3,MacIntel,58.82352941,,,,,,,,,,,0.843,0,,,,,,,,,,,,,,z,0,0.843,,,,,,,,-0.011111111,-0.244444444,0,0,0,,0,5,5,106,1,CLUMS,HB,old,n,./images/CLUMSHB.png,,,,,,,,,,,,,,,,,,,,,,
,,,,,,,,,,,,,,,,,199303,18,2022-01-25_21h34.59.011,lexical_decision_task_DD_L2,2021.2.3,MacIntel,58.82352941,,,,,,,,,,,0.578,0,,,,,,,,,,,,,,m,0,0.578,,,,,,,,-0.011111111,-0.244444444,0,0,0,,0,6,6,99,1,BACKY,C,old,n,./images/BACKY.png,,,,,,,,,,,,,,,,,,,,,,
,,,,,,,,,,,,,,,,,199303,18,2022-01-25_21h34.59.011,lexical_decision_task_DD_L2,2021.2.3,MacIntel,58.82352941,,,,,,,,,,,0.894,0,,,,,,,,,,,,,,z,0,0.894,,,,,,,,-0.011111111,-0.244444444,0,0,0,,0,7,7,141,1,PLEET,C,old,n,./images/PLEET.png,,,,,,,,,,,,,,,,,,,,,,
,,,,,,,,,,,,,,,,,199303,18,2022-01-25_21h34.59.011,lexical_decision_task_DD_L2,2021.2.3,MacIntel,58.82352941,,,,,,,,,,,1.029,0,,,,,,,,,,,,,,z,0,1.029,,,,,,,,-0.011111111,-0.244444444,0,0,0,,0,8,8,114,1,RIKES,C,old,n,./images/RIKES.png,,,,,,,,,,,,,,,,,,,,,,
,,,,,,,,,,,,,,,,,199303,18,2022-01-25_21h34.59.011,lexical_decision_task_DD_L2,2021.2.3,MacIntel,58.82352941,,,,,,,,,,,0.725,0,,,,,,,,,,,,,,m,0,0.725,,,,,,,,-0.011111111,-0.244444444,0,0,0,,0,9,9,9,1,RHINO,HB,old,y,./images/RHINOHB.png,,,,,,,,,,,,,,,,,,,,,,
,,,,,,,,,,,,,,,,,199303,18,2022-01-25_21h34.59.011,lexical_decision_task_DD_L2,2021.2.3,MacIntel,58.82352941,,,,,,,,,,,0.909,0,,,,,,,,,,,,,,m,0,0.909,,,,,,,,-0.011111111,-0.244444444,0,0,0,,0,10,10,31,1,QUILL,LB,old,y,./images/QUILLLB.png,,,,,,,,,,,,,,,,,,,,,,
,,,,,,,,,,,,,,,,,199303,18,2022-01-25_21h34.59.011,lexical_decision_task_DD_L2,2021.2.3,MacIntel,58.82352941,,,,,,,,,,,0.691,0,,,,,,,,,,,,,,z,0,0.691,,,,,,,,-0.011111111,-0.244444444,0,0,0,,0,11,11,128,1,GRIFT,LB,old,n,./images/GRIFTLB.png,,,,,,,,,,,,,,,,,,,,,,
,,,,,,,,,,,,,,,,,199303,18,2022-01-25_21h34.59.011,lexical_decision_task_DD_L2,2021.2.3,MacIntel,58.82352941,,,,,,,,,,,0.972,0,,,,,,,,,,,,,,z,0,0.972,,,,,,,,-0.011111111,-0.244444444,0,0,0,,0,12,12,143,1,MONGS,LB,old,n,./images/MONGSLB.png,,,,,,,,,,,,,,,,,,,,,,
,,,,,,,,,,,,,,,,,199303,18,2022-01-25_21h34.59.011,lexical_decision_task_DD_L2,2021.2.3,MacIntel,58.82352941,,,,,,,,,,,0.955,0,,,,,,,,,,,,,,z,0,0.955,,,,,,,,-0.011111111,-0.244444444,0,0,0,,0,13,13,134,1,TROSS,LB,old,n,./images/TROSSLB.png,,,,,,,,,,,,,,,,,,,,,,
,,,,,,,,,,,,,,,,,199303,18,2022-01-25_21h34.59.011,lexical_decision_task_DD_L2,2021.2.3,MacIntel,58.82352941,,,,,,,,,,,0.558,0,,,,,,,,,,,,,,m,0,0.558,,,,,,,,-0.011111111,-0.244444444,0,0,0,,0,14,14,74,1,CEMENT,C,old,y,./images/CEMENT.png,,,,,,,,,,,,,,,,,,,,,,
,,,,,,,,,,,,,,,,,199303,18,2022-01-25_21h34.59.011,lexical_decision_task_DD_L2,2021.2.3,MacIntel,58.82352941,,,,,,,,,,,0.611,0,,,,,,,,,,,,,,m,0,0.611,,,,,,,,-0.011111111,-0.244444444,0,0,0,,0,15,15,77,1,COUCH,C,old,y,./images/COUCH.png,,,,,,,,,,,,,,,,,,,,,,
,,,,,,,,,,,,,,,,,199303,18,2022-01-25_21h34.59.011,lexical_decision_task_DD_L2,2021.2.3,MacIntel,58.82352941,,,,,,,,,,,0.666,0,,,,,,,,,,,,,,z,0,0.666,,,,,,,,-0.011111111,-0.244444444,0,0,0,,0,16,16,102,1,DULLE,C,old,n,./images/DULLE.png,,,,,,,,,,,,,,,,,,,,,,
,,,,,,,,,,,,,,,,,199303,18,2022-01-25_21h34.59.011,lexical_decision_task_DD_L2,2021.2.3,MacIntel,58.82352941,,,,,,,,,,,0.84,0,,,,,,,,,,,,,,z,0,0.84,,,,,,,,-0.011111111,-0.244444444,0,0,0,,0,17,17,129,1,PRANS,C,old,n,./images/PRANS.png,,,,,,,,,,,,,,,,,,,,,,
,,,,,,,,,,,,,,,,,199303,18,2022-01-25_21h34.59.011,lexical_decision_task_DD_L2,2021.2.3,MacIntel,58.82352941,,,,,,,,,,,0.543,0,,,,,,,,,,,,,,m,0,0.543,,,,,,,,-0.011111111,-0.244444444,0,0,0,,0,18,18,65,1,FARMER,C,old,y,./images/FARMER.png,,,,,,,,,,,,,,,,,,,,,,
,,,,,,,,,,,,,,,,,199303,18,2022-01-25_21h34.59.011,lexical_decision_task_DD_L2,2021.2.3,MacIntel,58.82352941,,,,,,,,,,,0.675,0,,,,,,,,,,,,,,z,0,0.675,,,,,,,,-0.011111111,-0.244444444,0,0,0,,0,19,19,93,1,SMONE,C,old,n,./images/SMONE.png,,,,,,,,,,,,,,,,,,,,,,
,,,,,,,,,,,,,,,,,199303,18,2022-01-25_21h34.59.011,lexical_decision_task_DD_L2,2021.2.3,MacIntel,58.82352941,,,,,,,,,,,0.566,0,,,,,,,,,,,,,,m,0,0.566,,,,,,,,-0.011111111,-0.244444444,0,0,0,,0,20,20,49,1,DRUMS,LB,old,y,./images/DRUMSLB.png,,,,,,,,,,,,,,,,,,,,,,
,,,,,,,,,,,,,,,,,199303,18,2022-01-25_21h34.59.011,lexical_decision_task_DD_L2,2021.2.3,MacIntel,58.82352941,,,,,,,,,,,0.56,0,,,,,,,,,,,,,,z,0,0.56,,,,,,,,-0.011111111,-0.244444444,0,0,0,,0,21,21,117,1,STEEG,C,old,n,./images/STEEG.png,,,,,,,,,,,,,,,,,,,,,,
,,,,,,,,,,,,,,,,,199303,18,2022-01-25_21h34.59.011,lexical_decision_task_DD_L2,2021.2.3,MacIntel,58.82352941,,,,,,,,,,,0.943,0,,,,,,,,,,,,,,z,0,0.943,,,,,,,,-0.011111111,-0.244444444,0,0,0,,0,22,22,149,1,VEASE,LB,old,n,./images/VEASELB.png,,,,,,,,,,,,,,,,,,,,,,
,,,,,,,,,,,,,,,,,199303,18,2022-01-25_21h34.59.011,lexical_decision_task_DD_L2,2021.2.3,MacIntel,58.82352941,,,,,,,,,,,0.682,0,,,,,,,,,,,,,,z,0,0.682,,,,,,,,-0.011111111,-0.244444444,0,0,0,,0,23,23,92,1,PAIMS,LB,old,n,./images/PAIMSLB.png,,,,,,,,,,,,,,,,,,,,,,
,,,,,,,,,,,,,,,,,199303,18,2022-01-25_21h34.59.011,lexical_decision_task_DD_L2,2021.2.3,MacIntel,58.82352941,,,,,,,,,,,0.526,0,,,,,,,,,,,,,,z,0,0.526,,,,,,,,-0.011111111,-0.244444444,0,0,0,,0,24,24,43,1,MOSQUE,LB,old,y,./images/MOSQUELB.png,,,,,,,,,,,,,,,,,,,,,,
,,,,,,,,,,,,,,,,,199303,18,2022-01-25_21h34.59.011,lexical_decision_task_DD_L2,2021.2.3,MacIntel,58.82352941,,,,,,,,,,,2.189,0,,,,,,,,,,,,,,z,0,2.189,,,,,,,,-0.011111111,-0.244444444,0,0,0,,0,25,25,91,1,SHENS,HB,old,n,./images/SHENSHB.png,,,,,,,,,,,,,,,,,,,,,,
,,,,,,,,,,,,,,,,,199303,18,2022-01-25_21h34.59.011,lexical_decision_task_DD_L2,2021.2.3,MacIntel,58.82352941,,,,,,,,,,,0.595,0,,,,,,,,,,,,,,m,0,0.595,,,,,,,,-0.011111111,-0.244444444,0,0,0,,0,26,26,10,1,BELLY,LB,old,y,./images/BELLYLB.png,,,,,,,,,,,,,,,,,,,,,,
,,,,,,,,,,,,,,,,,199303,18,2022-01-25_21h34.59.011,lexical_decision_task_DD_L2,2021.2.3,MacIntel,58.82352941,,,,,,,,,,,0.832,0,,,,,,,,,,,,,,m,0,0.832,,,,,,,,-0.011111111,-0.244444444,0,0,0,,0,27,27,78,1,LITTER,HB,old,y,./images/LITTERHB.png,,,,,,,,,,,,,,,,,,,,,,
,,,,,,,,,,,,,,,,,199303,18,2022-01-25_21h34.59.011,lexical_decision_task_DD_L2,2021.2.3,MacIntel,58.82352941,,,,,,,,,,,0.595,0,,,,,,,,,,,,,,z,0,0.595,,,,,,,,-0.011111111,-0.244444444,0,0,0,,0,28,28,95,1,HANTY,LB,old,n,./images/HANTYLB.png,,,,,,,,,,,,,,,,,,,,,,
,,,,,,,,,,,,,,,,,199303,18,2022-01-25_21h34.59.011,lexical_decision_task_DD_L2,2021.2.3,MacIntel,58.82352941,,,,,,,,,,,0.803,0,,,,,,,,,,,,,,z,0,0.803,,,,,,,,-0.011111111,-0.244444444,0,0,0,,0,29,29,103,1,FLORT,HB,old,n,./images/FLORTHB.png,,,,,,,,,,,,,,,,,,,,,,
,,,,,,,,,,,,,,,,,199303,18,2022-01-25_21h34.59.011,lexical_decision_task_DD_L2,2021.2.3,MacIntel,58.82352941,,,,,,,,,,,0.68,0,,,,,,,,,,,,,,m,0,0.68,,,,,,,,-0.011111111,-0.244444444,0,0,0,,0,30,30,0,1,TOMATO,HB,old,y,./images/TOMATOHB.png,,,,,,,,,,,,,,,,,,,,,,
,,,,,,,,,,,,,,,,,199303,18,2022-01-25_21h34.59.011,lexical_decision_task_DD_L2,2021.2.3,MacIntel,58.82352941,,,,,,,,,,,1.342,0,,,,,,,,,,,,,,z,0,1.342,,,,,,,,-0.011111111,-0.244444444,0,0,0,,0,31,31,166,1,SHORY,HB,old,n,./images/SHORYHB.png,,,,,,,,,,,,,,,,,,,,,,
,,,,,,,,,,,,,,,,,199303,18,2022-01-25_21h34.59.011,lexical_decision_task_DD_L2,2021.2.3,MacIntel,58.82352941,,,,,,,,,,,0.938,0,,,,,,,,,,,,,,z,0,0.938,,,,,,,,-0.011111111,-0.244444444,0,0,0,,0,32,32,126,1,GUELS,C,old,n,./images/GUELS.png,,,,,,,,,,,,,,,,,,,,,,
,,,,,,,,,,,,,,,,,199303,18,2022-01-25_21h34.59.011,lexical_decision_task_DD_L2,2021.2.3,MacIntel,58.82352941,,,,,,,,,,,0.739,0,,,,,,,,,,,,,,m,0,0.739,,,,,,,,-0.011111111,-0.244444444,0,0,0,,0,33,33,30,1,STORM,HB,old,y,./images/STORMHB.png,,,,,,,,,,,,,,,,,,,,,,
,,,,,,,,,,,,,,,,,199303,18,2022-01-25_21h34.59.011,lexical_decision_task_DD_L2,2021.2.3,MacIntel,58.82352941,,,,,,,,,,,0.643,0,,,,,,,,,,,,,,z,0,0.643,,,,,,,,-0.011111111,-0.244444444,0,0,0,,0,34,34,121,1,CEERS,HB,old,n,./images/CEERSHB.png,,,,,,,,,,,,,,,,,,,,,,
,,,,,,,,,,,,,,,,,199303,18,2022-01-25_21h34.59.011,lexical_decision_task_DD_L2,2021.2.3,MacIntel,58.82352941,,,,,,,,,,,0.661,0,,,,,,,,,,,,,,z,0,0.661,,,,,,,,-0.011111111,-0.244444444,0,0,0,,0,35,35,123,1,SEDGE,C,old,n,./images/SEDGE.png,,,,,,,,,,,,,,,,,,,,,,
,,,,,,,,,,,,,,,,,199303,18,2022-01-25_21h34.59.011,lexical_decision_task_DD_L2,2021.2.3,MacIntel,58.82352941,,,,,,,,,,,1.128,0,,,,,,,,,,,,,,z,0,1.128,,,,,,,,-0.011111111,-0.244444444,0,0,0,,0,36,36,153,1,CLUPS,C,old,n,./images/CLUPS.png,,,,,,,,,,,,,,,,,,,,,,
,,,,,,,,,,,,,,,,,199303,18,2022-01-25_21h34.59.011,lexical_decision_task_DD_L2,2021.2.3,MacIntel,58.82352941,,,,,,,,,,,0.826,0,,,,,,,,,,,,,,z,0,0.826,,,,,,,,-0.011111111,-0.244444444,0,0,0,,0,37,37,86,1,AIFED,LB,old,n,./images/AIFEDLB.png,,,,,,,,,,,,,,,,,,,,,,
,,,,,,,,,,,,,,,,,199303,18,2022-01-25_21h34.59.011,lexical_decision_task_DD_L2,2021.2.3,MacIntel,58.82352941,,,,,,,,,,,2.278,0,,,,,,,,,,,,,,z,0,2.278,,,,,,,,-0.011111111,-0.244444444,0,0,0,,0,38,38,133,1,POWDY,HB,old,n,./images/POWDYHB.png,,,,,,,,,,,,,,,,,,,,,,
,,,,,,,,,,,,,,,,,199303,18,2022-01-25_21h34.59.011,lexical_decision_task_DD_L2,2021.2.3,MacIntel,58.82352941,,,,,,,,,,,0.973,0,,,,,,,,,,,,,,m,0,0.973,,,,,,,,-0.011111111,-0.244444444,0,0,0,,0,39,39,13,1,MOTOR,LB,old,y,./images/MOTORLB.png,,,,,,,,,,,,,,,,,,,,,,
,,,,,,,,,,,,,,,,,199303,18,2022-01-25_21h34.59.011,lexical_decision_task_DD_L2,2021.2.3,MacIntel,58.82352941,,,,,,,,,,,0.666,0,,,,,,,,,,,,,,z,0,0.666,,,,,,,,-0.011111111,-0.244444444,0,0,0,,0,40,40,150,1,NOOLS,C,old,n,./images/NOOLS.png,,,,,,,,,,,,,,,,,,,,,,
,,,,,,,,,,,,,,,,,199303,18,2022-01-25_21h34.59.011,lexical_decision_task_DD_L2,2021.2.3,MacIntel,58.82352941,,,,,,,,,,,0.672,0,,,,,,,,,,,,,,m,0,0.672,,,,,,,,-0.011111111,-0.244444444,0,0,0,space,0,41,41,16,1,PENCE,LB,old,y,./images/PENCELB.png,3.786,,,,,,,,,,,,,,,,,,,,,
,,,,,,,,,,,,,,,,,199303,18,2022-01-25_21h34.59.011,lexical_decision_task_DD_L2,2021.2.3,MacIntel,58.82352941,,,,,,,,,,,1.406,0,,,,,,,,,,,,,,z,0,1.406,,,,,,,,-0.011111111,-0.244444444,0,0,0,,0,42,42,85,1,CHULK,HB,old,n,./images/CHULKHB.png,,,,,,,,,,,,,,,,,,,,,,
,,,,,,,,,,,,,,,,,199303,18,2022-01-25_21h34.59.011,lexical_decision_task_DD_L2,2021.2.3,MacIntel,58.82352941,,,,,,,,,,,0.576,0,,,,,,,,,,,,,,m,0,0.576,,,,,,,,-0.011111111,-0.244444444,0,0,0,,0,43,43,40,1,SWING,LB,old,y,./images/SWINGLB.png,,,,,,,,,,,,,,,,,,,,,,
,,,,,,,,,,,,,,,,,199303,18,2022-01-25_21h34.59.011,lexical_decision_task_DD_L2,2021.2.3,MacIntel,58.82352941,,,,,,,,,,,1.123,0,,,,,,,,,,,,,,z,0,1.123,,,,,,,,-0.011111111,-0.244444444,0,0,0,,0,44,44,144,1,NAIRY,C,old,n,./images/NAIRY.png,,,,,,,,,,,,,,,,,,,,,,
,,,,,,,,,,,,,,,,,199303,18,2022-01-25_21h34.59.011,lexical_decision_task_DD_L2,2021.2.3,MacIntel,58.82352941,,,,,,,,,,,0.923,0,,,,,,,,,,,,,,z,0,0.923,,,,,,,,-0.011111111,-0.244444444,0,0,0,,0,45,45,87,1,TRING,C,old,n,./images/TRING.png,,,,,,,,,,,,,,,,,,,,,,
,,,,,,,,,,,,,,,,,199303,18,2022-01-25_21h34.59.011,lexical_decision_task_DD_L2,2021.2.3,MacIntel,58.82352941,,,,,,,,,,,0.612,0,,,,,,,,,,,,,,m,0,0.612,,,,,,,,-0.011111111,-0.244444444,0,0,0,,0,46,46,66,1,SWEAT,HB,old,y,./images/SWEATHB.png,,,,,,,,,,,,,,,,,,,,,,
,,,,,,,,,,,,,,,,,199303,18,2022-01-25_21h34.59.011,lexical_decision_task_DD_L2,2021.2.3,MacIntel,58.82352941,,,,,,,,,,,1.713,0,,,,,,,,,,,,,,z,0,1.713,,,,,,,,-0.011111111,-0.244444444,0,0,0,,0,47,47,94,1,BLANS,HB,old,n,./images/BLANSHB.png,,,,,,,,,,,,,,,,,,,,,,
,,,,,,,,,,,,,,,,,199303,18,2022-01-25_21h34.59.011,lexical_decision_task_DD_L2,2021.2.3,MacIntel,58.82352941,,,,,,,,,,,0.613,0,,,,,,,,,,,,,,m,0,0.613,,,,,,,,-0.011111111,-0.244444444,0,0,0,,0,48,48,72,1,NOOSE,HB,old,y,./images/NOOSEHB.png,,,,,,,,,,,,,,,,,,,,,,
,,,,,,,,,,,,,,,,,199303,18,2022-01-25_21h34.59.011,lexical_decision_task_DD_L2,2021.2.3,MacIntel,58.82352941,,,,,,,,,,,0.624,0,,,,,,,,,,,,,,m,0,0.624,,,,,,,,-0.011111111,-0.244444444,0,0,0,,0,49,49,38,1,LADDER,C,old,y,./images/LADDER.png,,,,,,,,,,,,,,,,,,,,,,
,,,,,,,,,,,,,,,,,199303,18,2022-01-25_21h34.59.011,lexical_decision_task_DD_L2,2021.2.3,MacIntel,58.82352941,,,,,,,,,,,0.761,0,,,,,,,,,,,,,,m,0,0.761,,,,,,,,-0.011111111,-0.244444444,0,0,0,,0,50,50,57,1,MOOSE,HB,old,y,./images/MOOSEHB.png,,,,,,,,,,,,,,,,,,,,,,
,,,,,,,,,,,,,,,,,199303,18,2022-01-25_21h34.59.011,lexical_decision_task_DD_L2,2021.2.3,MacIntel,58.82352941,,,,,,,,,,,0.923,0,,,,,,,,,,,,,,z,0,0.923,,,,,,,,-0.011111111,-0.244444444,0,0,0,,0,51,51,115,1,MAWNS,HB,old,n,./images/MAWNSHB.png,,,,,,,,,,,,,,,,,,,,,,
,,,,,,,,,,,,,,,,,199303,18,2022-01-25_21h34.59.011,lexical_decision_task_DD_L2,2021.2.3,MacIntel,58.82352941,,,,,,,,,,,0.661,0,,,,,,,,,,,,,,z,0,0.661,,,,,,,,-0.011111111,-0.244444444,0,0,0,,0,52,52,158,1,EGECT,LB,old,n,./images/EGECTLB.png,,,,,,,,,,,,,,,,,,,,,,
,,,,,,,,,,,,,,,,,199303,18,2022-01-25_21h34.59.011,lexical_decision_task_DD_L2,2021.2.3,MacIntel,58.82352941,,,,,,,,,,,0.76,0,,,,,,,,,,,,,,z,0,0.76,,,,,,,,-0.011111111,-0.244444444,0,0,0,,0,53,53,136,1,WERVE,HB,old,n,./images/WERVEHB.png,,,,,,,,,,,,,,,,,,,,,,
,,,,,,,,,,,,,,,,,199303,18,2022-01-25_21h34.59.011,lexical_decision_task_DD_L2,2021.2.3,MacIntel,58.82352941,,,,,,,,,,,1.31,0,,,,,,,,,,,,,,z,0,1.31,,,,,,,,-0.011111111,-0.244444444,0,0,0,,0,54,54,127,1,NINDY,HB,old,n,./images/NINDYHB.png,,,,,,,,,,,,,,,,,,,,,,
,,,,,,,,,,,,,,,,,199303,18,2022-01-25_21h34.59.011,lexical_decision_task_DD_L2,2021.2.3,MacIntel,58.82352941,,,,,,,,,,,0.596,0,,,,,,,,,,,,,,m,0,0.596,,,,,,,,-0.011111111,-0.244444444,0,0,0,,0,55,55,46,1,PEARL,LB,old,y,./images/PEARLLB.png,,,,,,,,,,,,,,,,,,,,,,
,,,,,,,,,,,,,,,,,199303,18,2022-01-25_21h34.59.011,lexical_decision_task_DD_L2,2021.2.3,MacIntel,58.82352941,,,,,,,,,,,0.843,0,,,,,,,,,,,,,,z,0,0.843,,,,,,,,-0.011111111,-0.244444444,0,0,0,,0,56,56,148,1,JOMS,HB,old,n,./images/JOMSHB.png,,,,,,,,,,,,,,,,,,,,,,
,,,,,,,,,,,,,,,,,199303,18,2022-01-25_21h34.59.011,lexical_decision_task_DD_L2,2021.2.3,MacIntel,58.82352941,,,,,,,,,,,0.66,0,,,,,,,,,,,,,,z,0,0.66,,,,,,,,-0.011111111,-0.244444444,0,0,0,,0,57,57,96,1,KEAMS,C,old,n,./images/KEAMS.png,,,,,,,,,,,,,,,,,,,,,,
,,,,,,,,,,,,,,,,,199303,18,2022-01-25_21h34.59.011,lexical_decision_task_DD_L2,2021.2.3,MacIntel,58.82352941,,,,,,,,,,,0.606,0,,,,,,,,,,,,,,m,0,0.606,,,,,,,,-0.011111111,-0.244444444,0,0,0,,0,58,58,71,1,PIMPLE,C,old,y,./images/PIMPLE.png,,,,,,,,,,,,,,,,,,,,,,
,,,,,,,,,,,,,,,,,199303,18,2022-01-25_21h34.59.011,lexical_decision_task_DD_L2,2021.2.3,MacIntel,58.82352941,,,,,,,,,,,0.695,0,,,,,,,,,,,,,,m,0,0.695,,,,,,,,-0.011111111,-0.244444444,0,0,0,,0,59,59,25,1,WRIST,LB,old,y,./images/WRISTLB.png,,,,,,,,,,,,,,,,,,,,,,
,,,,,,,,,,,,,,,,,199303,18,2022-01-25_21h34.59.011,lexical_decision_task_DD_L2,2021.2.3,MacIntel,58.82352941,,,,,,,,,,,0.665,0,,,,,,,,,,,,,,z,0,0.665,,,,,,,,-0.011111111,-0.244444444,0,0,0,,0,60,60,137,1,JOOST,LB,old,n,./images/JOOSTLB.png,,,,,,,,,,,,,,,,,,,,,,
,,,,,,,,,,,,,,,,,199303,18,2022-01-25_21h34.59.011,lexical_decision_task_DD_L2,2021.2.3,MacIntel,58.82352941,,,,,,,,,,,1.262,0,,,,,,,,,,,,,,z,0,1.262,,,,,,,,-0.011111111,-0.244444444,0,0,0,,0,61,61,111,1,HOSSE,C,old,n,./images/HOSSE.png,,,,,,,,,,,,,,,,,,,,,,
,,,,,,,,,,,,,,,,,199303,18,2022-01-25_21h34.59.011,lexical_decision_task_DD_L2,2021.2.3,MacIntel,58.82352941,,,,,,,,,,,0.797,0,,,,,,,,,,,,,,z,0,0.797,,,,,,,,-0.011111111,-0.244444444,0,0,0,,0,62,62,90,1,NEAST,C,old,n,./images/NEAST.png,,,,,,,,,,,,,,,,,,,,,,
,,,,,,,,,,,,,,,,,199303,18,2022-01-25_21h34.59.011,lexical_decision_task_DD_L2,2021.2.3,MacIntel,58.82352941,,,,,,,,,,,0.528,0,,,,,,,,,,,,,,m,0,0.528,,,,,,,,-0.011111111,-0.244444444,0,0,0,,0,63,63,83,1,JUNGLE,C,old,y,./images/JUNGLE.png,,,,,,,,,,,,,,,,,,,,,,
,,,,,,,,,,,,,,,,,199303,18,2022-01-25_21h34.59.011,lexical_decision_task_DD_L2,2021.2.3,MacIntel,58.82352941,,,,,,,,,,,1.065,0,,,,,,,,,,,,,,z,0,1.065,,,,,,,,-0.011111111,-0.244444444,0,0,0,,0,64,64,165,1,TROWN,C,old,n,./images/TROWN.png,,,,,,,,,,,,,,,,,,,,,,
,,,,,,,,,,,,,,,,,199303,18,2022-01-25_21h34.59.011,lexical_decision_task_DD_L2,2021.2.3,MacIntel,58.82352941,,,,,,,,,,,0.545,0,,,,,,,,,,,,,,m,0,0.545,,,,,,,,-0.011111111,-0.244444444,0,0,0,,0,65,65,101,1,GLEET,LB,old,n,./images/GLEETLB.png,,,,,,,,,,,,,,,,,,,,,,
,,,,,,,,,,,,,,,,,199303,18,2022-01-25_21h34.59.011,lexical_decision_task_DD_L2,2021.2.3,MacIntel,58.82352941,,,,,,,,,,,0.712,0,,,,,,,,,,,,,,m,0,0.712,,,,,,,,-0.011111111,-0.244444444,0,0,0,,0,66,66,48,1,SPORT,HB,old,y,./images/SPORTHB.png,,,,,,,,,,,,,,,,,,,,,,
,,,,,,,,,,,,,,,,,199303,18,2022-01-25_21h34.59.011,lexical_decision_task_DD_L2,2021.2.3,MacIntel,58.82352941,,,,,,,,,,,1.16,0,,,,,,,,,,,,,,m,0,1.16,,,,,,,,-0.011111111,-0.244444444,0,0,0,,0,67,67,23,1,WALRUS,C,old,y,./images/WALRUS.png,,,,,,,,,,,,,,,,,,,,,,
,,,,,,,,,,,,,,,,,199303,18,2022-01-25_21h34.59.011,lexical_decision_task_DD_L2,2021.2.3,MacIntel,58.82352941,,,,,,,,,,,0.58,0,,,,,,,,,,,,,,m,0,0.58,,,,,,,,-0.011111111,-0.244444444,0,0,0,,0,68,68,2,1,BEARD,C,old,y,./images/BEARD.png,,,,,,,,,,,,,,,,,,,,,,
,,,,,,,,,,,,,,,,,199303,18,2022-01-25_21h34.59.011,lexical_decision_task_DD_L2,2021.2.3,MacIntel,58.82352941,,,,,,,,,,,0.661,0,,,,,,,,,,,,,,m,0,0.661,,,,,,,,-0.011111111,-0.244444444,0,0,0,,0,69,69,18,1,JAGUAR,HB,old,y,./images/JAGUARHB.png,,,,,,,,,,,,,,,,,,,,,,
,,,,,,,,,,,,,,,,,199303,18,2022-01-25_21h34.59.011,lexical_decision_task_DD_L2,2021.2.3,MacIntel,58.82352941,,,,,,,,,,,2.314,0,,,,,,,,,,,,,,m,0,2.314,,,,,,,,-0.011111111,-0.244444444,0,0,0,,0,70,70,110,1,CRUNK,LB,old,n,./images/CRUNKLB.png,,,,,,,,,,,,,,,,,,,,,,
,,,,,,,,,,,,,,,,,199303,18,2022-01-25_21h34.59.011,lexical_decision_task_DD_L2,2021.2.3,MacIntel,58.82352941,,,,,,,,,,,0.656,0,,,,,,,,,,,,,,m,0,0.656,,,,,,,,-0.011111111,-0.244444444,0,0,0,,0,71,71,28,1,FALCON,LB,old,y,./images/FALCONLB.png,,,,,,,,,,,,,,,,,,,,,,
,,,,,,,,,,,,,,,,,199303,18,2022-01-25_21h34.59.011,lexical_decision_task_DD_L2,2021.2.3,MacIntel,58.82352941,,,,,,,,,,,1.945,0,,,,,,,,,,,,,,z,0,1.945,,,,,,,,-0.011111111,-0.244444444,0,0,0,,0,72,72,97,1,CHIDS,HB,old,n,./images/CHIDSHB.png,,,,,,,,,,,,,,,,,,,,,,
,,,,,,,,,,,,,,,,,199303,18,2022-01-25_21h34.59.011,lexical_decision_task_DD_L2,2021.2.3,MacIntel,58.82352941,,,,,,,,,,,0.843,0,,,,,,,,,,,,,,z,0,0.843,,,,,,,,-0.011111111,-0.244444444,0,0,0,,0,73,73,131,1,NACES,LB,old,n,./images/NACESLB.png,,,,,,,,,,,,,,,,,,,,,,
,,,,,,,,,,,,,,,,,199303,18,2022-01-25_21h34.59.011,lexical_decision_task_DD_L2,2021.2.3,MacIntel,58.82352941,,,,,,,,,,,0.628,0,,,,,,,,,,,,,,m,0,0.628,,,,,,,,-0.011111111,-0.244444444,0,0,0,,0,74,74,6,1,SQUARE,HB,old,y,./images/SQUAREHB.png,,,,,,,,,,,,,,,,,,,,,,
,,,,,,,,,,,,,,,,,199303,18,2022-01-25_21h34.59.011,lexical_decision_task_DD_L2,2021.2.3,MacIntel,58.82352941,,,,,,,,,,,0.608,0,,,,,,,,,,,,,,m,0,0.608,,,,,,,,-0.011111111,-0.244444444,0,0,0,,0,75,75,76,1,INFANT,LB,old,y,./images/INFANTLB.png,,,,,,,,,,,,,,,,,,,,,,
,,,,,,,,,,,,,,,,,199303,18,2022-01-25_21h34.59.011,lexical_decision_task_DD_L2,2021.2.3,MacIntel,58.82352941,,,,,,,,,,,0.66,0,,,,,,,,,,,,,,m,0,0.66,,,,,,,,-0.011111111,-0.244444444,0,0,0,,0,76,76,60,1,TWINS,HB,old,y,./images/TWINSHB.png,,,,,,,,,,,,,,,,,,,,,,
,,,,,,,,,,,,,,,,,199303,18,2022-01-25_21h34.59.011,lexical_decision_task_DD_L2,2021.2.3,MacIntel,58.82352941,,,,,,,,,,,0.609,0,,,,,,,,,,,,,,m,0,0.609,,,,,,,,-0.011111111,-0.244444444,0,0,0,,0,77,77,36,1,THROAT,HB,old,y,./images/THROATHB.png,,,,,,,,,,,,,,,,,,,,,,
,,,,,,,,,,,,,,,,,199303,18,2022-01-25_21h34.59.011,lexical_decision_task_DD_L2,2021.2.3,MacIntel,58.82352941,,,,,,,,,,,0.627,0,,,,,,,,,,,,,,z,0,0.627,,,,,,,,-0.011111111,-0.244444444,0,0,0,,0,78,78,135,1,JOODY,C,old,n,./images/JOODY.png,,,,,,,,,,,,,,,,,,,,,,
,,,,,,,,,,,,,,,,,199303,18,2022-01-25_21h34.59.011,lexical_decision_task_DD_L2,2021.2.3,MacIntel,58.82352941,,,,,,,,,,,0.723,0,,,,,,,,,,,,,,z,0,0.723,,,,,,,,-0.011111111,-0.244444444,0,0,0,,0,79,79,116,1,BALGY,LB,old,n,./images/BALGYLB.png,,,,,,,,,,,,,,,,,,,,,,
,,,,,,,,,,,,,,,,,199303,18,2022-01-25_21h34.59.011,lexical_decision_task_DD_L2,2021.2.3,MacIntel,58.82352941,,,,,,,,,,,0.898,0,,,,,,,,,,,,,,z,0,0.898,,,,,,,,-0.011111111,-0.244444444,0,0,0,,0,80,80,163,1,GAMBA,HB,old,n,./images/GAMBAHB.png,,,,,,,,,,,,,,,,,,,,,,
,,,,,,,,,,,,,,,,,199303,18,2022-01-25_21h34.59.011,lexical_decision_task_DD_L2,2021.2.3,MacIntel,58.82352941,,,,,,,,,,,0.95,0,,,,,,,,,,,,,,z,0,0.95,,,,,,,,-0.011111111,-0.244444444,0,0,0,,0,81,81,138,1,PLICE,C,old,n,./images/PLICE.png,,,,,,,,,,,,,,,,,,,,,,
,,,,,,,,,,,,,,,,,199303,18,2022-01-25_21h34.59.011,lexical_decision_task_DD_L2,2021.2.3,MacIntel,58.82352941,,,,,,,,,,,0.705,0,,,,,,,,,,,,,,z,0,0.705,,,,,,,,-0.011111111,-0.244444444,0,0,0,,0,82,82,120,1,RINED,C,old,n,./images/RINED.png,,,,,,,,,,,,,,,,,,,,,,
,,,,,,,,,,,,,,,,,199303,18,2022-01-25_21h34.59.011,lexical_decision_task_DD_L2,2021.2.3,MacIntel,58.82352941,,,,,,,,,,,0.892,0,,,,,,,,,,,,,,z,0,0.892,,,,,,,,-0.011111111,-0.244444444,0,0,0,space,0,83,83,159,1,CUDDY,C,old,n,./images/CUDDY.png,5.507,,,,,,,,,,,,,,,,,,,,,
,,,,,,,,,,,,,,,,,199303,18,2022-01-25_21h34.59.011,lexical_decision_task_DD_L2,2021.2.3,MacIntel,58.82352941,,,,,,,,,,,0.825,0,,,,,,,,,,,,,,z,0,0.825,,,,,,,,-0.011111111,-0.244444444,0,0,0,,0,84,84,156,1,HIXES,C,old,n,./images/HIXES.png,,,,,,,,,,,,,,,,,,,,,,
,,,,,,,,,,,,,,,,,199303,18,2022-01-25_21h34.59.011,lexical_decision_task_DD_L2,2021.2.3,MacIntel,58.82352941,,,,,,,,,,,0.826,0,,,,,,,,,,,,,,m,0,0.826,,,,,,,,-0.011111111,-0.244444444,0,0,0,,0,85,85,55,1,MUFFIN,LB,old,y,./images/MUFFINLB.png,,,,,,,,,,,,,,,,,,,,,,
,,,,,,,,,,,,,,,,,199303,18,2022-01-25_21h34.59.011,lexical_decision_task_DD_L2,2021.2.3,MacIntel,58.82352941,,,,,,,,,,,0.898,0,,,,,,,,,,,,,,m,0,0.898,,,,,,,,-0.011111111,-0.244444444,0,0,0,,0,86,86,54,1,TRIPOD,HB,old,y,./images/TRIPODHB.png,,,,,,,,,,,,,,,,,,,,,,
,,,,,,,,,,,,,,,,,199303,18,2022-01-25_21h34.59.011,lexical_decision_task_DD_L2,2021.2.3,MacIntel,58.82352941,,,,,,,,,,,0.515,0,,,,,,,,,,,,,,m,0,0.515,,,,,,,,-0.011111111,-0.244444444,0,0,0,,0,87,87,45,1,KITTEN,HB,old,y,./images/KITTENHB.png,,,,,,,,,,,,,,,,,,,,,,
,,,,,,,,,,,,,,,,,199303,18,2022-01-25_21h34.59.011,lexical_decision_task_DD_L2,2021.2.3,MacIntel,58.82352941,,,,,,,,,,,0.698,0,,,,,,,,,,,,,,z,0,0.698,,,,,,,,-0.011111111,-0.244444444,0,0,0,,0,88,88,98,1,BAMPS,LB,old,n,./images/BAMPSLB.png,,,,,,,,,,,,,,,,,,,,,,
,,,,,,,,,,,,,,,,,199303,18,2022-01-25_21h34.59.011,lexical_decision_task_DD_L2,2021.2.3,MacIntel,58.82352941,,,,,,,,,,,0.911,0,,,,,,,,,,,,,,m,0,0.911,,,,,,,,-0.011111111,-0.244444444,0,0,0,,0,89,89,162,1,LEICH,C,old,n,./images/LEICH.png,,,,,,,,,,,,,,,,,,,,,,
,,,,,,,,,,,,,,,,,199303,18,2022-01-25_21h34.59.011,lexical_decision_task_DD_L2,2021.2.3,MacIntel,58.82352941,,,,,,,,,,,0.676,0,,,,,,,,,,,,,,z,0,0.676,,,,,,,,-0.011111111,-0.244444444,0,0,0,,0,90,90,167,1,ZONET,LB,old,n,./images/ZONETLB.png,,,,,,,,,,,,,,,,,,,,,,
,,,,,,,,,,,,,,,,,199303,18,2022-01-25_21h34.59.011,lexical_decision_task_DD_L2,2021.2.3,MacIntel,58.82352941,,,,,,,,,,,0.794,0,,,,,,,,,,,,,,z,0,0.794,,,,,,,,-0.011111111,-0.244444444,0,0,0,,0,91,91,108,1,GRUET,C,old,n,./images/GRUET.png,,,,,,,,,,,,,,,,,,,,,,
,,,,,,,,,,,,,,,,,199303,18,2022-01-25_21h34.59.011,lexical_decision_task_DD_L2,2021.2.3,MacIntel,58.82352941,,,,,,,,,,,1.01,0,,,,,,,,,,,,,,m,0,1.01,,,,,,,,-0.011111111,-0.244444444,0,0,0,,0,92,92,69,1,COOKER,HB,old,y,./images/COOKERHB.png,,,,,,,,,,,,,,,,,,,,,,
,,,,,,,,,,,,,,,,,199303,18,2022-01-25_21h34.59.011,lexical_decision_task_DD_L2,2021.2.3,MacIntel,58.82352941,,,,,,,,,,,0.856,0,,,,,,,,,,,,,,m,0,0.856,,,,,,,,-0.011111111,-0.244444444,0,0,0,,0,93,93,67,1,SAILOR,LB,old,y,./images/SAILORLB.png,,,,,,,,,,,,,,,,,,,,,,
,,,,,,,,,,,,,,,,,199303,18,2022-01-25_21h34.59.011,lexical_decision_task_DD_L2,2021.2.3,MacIntel,58.82352941,,,,,,,,,,,0.528,0,,,,,,,,,,,,,,m,0,0.528,,,,,,,,-0.011111111,-0.244444444,0,0,0,,0,94,94,12,1,SHORE,HB,old,y,./images/SHOREHB.png,,,,,,,,,,,,,,,,,,,,,,
,,,,,,,,,,,,,,,,,199303,18,2022-01-25_21h34.59.011,lexical_decision_task_DD_L2,2021.2.3,MacIntel,58.82352941,,,,,,,,,,,0.605,0,,,,,,,,,,,,,,m,0,0.605,,,,,,,,-0.011111111,-0.244444444,0,0,0,,0,95,95,53,1,CARPET,C,old,y,./images/CARPET.png,,,,,,,,,,,,,,,,,,,,,,
,,,,,,,,,,,,,,,,,199303,18,2022-01-25_21h34.59.011,lexical_decision_task_DD_L2,2021.2.3,MacIntel,58.82352941,,,,,,,,,,,0.51,0,,,,,,,,,,,,,,m,0,0.51,,,,,,,,-0.011111111,-0.244444444,0,0,0,,0,96,96,14,1,PICKLE,C,old,y,./images/PICKLE.png,,,,,,,,,,,,,,,,,,,,,,
,,,,,,,,,,,,,,,,,199303,18,2022-01-25_21h34.59.011,lexical_decision_task_DD_L2,2021.2.3,MacIntel,58.82352941,,,,,,,,,,,0.748,0,,,,,,,,,,,,,,z,0,0.748,,,,,,,,-0.011111111,-0.244444444,0,0,0,,0,97,97,119,1,PAFER,LB,old,n,./images/PAFERLB.png,,,,,,,,,,,,,,,,,,,,,,
,,,,,,,,,,,,,,,,,199303,18,2022-01-25_21h34.59.011,lexical_decision_task_DD_L2,2021.2.3,MacIntel,58.82352941,,,,,,,,,,,0.829,0,,,,,,,,,,,,,,z,0,0.829,,,,,,,,-0.011111111,-0.244444444,0,0,0,,0,98,98,155,1,CANGY,LB,old,n,./images/CANGYLB.png,,,,,,,,,,,,,,,,,,,,,,
,,,,,,,,,,,,,,,,,199303,18,2022-01-25_21h34.59.011,lexical_decision_task_DD_L2,2021.2.3,MacIntel,58.82352941,,,,,,,,,,,0.525,0,,,,,,,,,,,,,,m,0,0.525,,,,,,,,-0.011111111,-0.244444444,0,0,0,,0,99,99,61,1,CANDLE,LB,old,y,./images/CANDLELB.png,,,,,,,,,,,,,,,,,,,,,,
,,,,,,,,,,,,,,,,,199303,18,2022-01-25_21h34.59.011,lexical_decision_task_DD_L2,2021.2.3,MacIntel,58.82352941,,,,,,,,,,,0.868,0,,,,,,,,,,,,,,z,0,0.868,,,,,,,,-0.011111111,-0.244444444,0,0,0,,0,100,100,33,1,MAGGOT,HB,old,y,./images/MAGGOTHB.png,,,,,,,,,,,,,,,,,,,,,,
,,,,,,,,,,,,,,,,,199303,18,2022-01-25_21h34.59.011,lexical_decision_task_DD_L2,2021.2.3,MacIntel,58.82352941,,,,,,,,,,,0.6,0,,,,,,,,,,,,,,z,0,0.6,,,,,,,,-0.011111111,-0.244444444,0,0,0,,0,101,101,11,1,BONNET,C,old,y,./images/BONNET.png,,,,,,,,,,,,,,,,,,,,,,
,,,,,,,,,,,,,,,,,199303,18,2022-01-25_21h34.59.011,lexical_decision_task_DD_L2,2021.2.3,MacIntel,58.82352941,,,,,,,,,,,0.894,0,,,,,,,,,,,,,,z,0,0.894,,,,,,,,-0.011111111,-0.244444444,0,0,0,,0,102,102,142,1,PLASK,HB,old,n,./images/PLASKHB.png,,,,,,,,,,,,,,,,,,,,,,
,,,,,,,,,,,,,,,,,199303,18,2022-01-25_21h34.59.011,lexical_decision_task_DD_L2,2021.2.3,MacIntel,58.82352941,,,,,,,,,,,0.765,0,,,,,,,,,,,,,,z,0,0.765,,,,,,,,-0.011111111,-0.244444444,0,0,0,,0,103,103,88,1,GLUSH,HB,old,n,./images/GLUSHHB.png,,,,,,,,,,,,,,,,,,,,,,
,,,,,,,,,,,,,,,,,199303,18,2022-01-25_21h34.59.011,lexical_decision_task_DD_L2,2021.2.3,MacIntel,58.82352941,,,,,,,,,,,0.543,0,,,,,,,,,,,,,,m,0,0.543,,,,,,,,-0.011111111,-0.244444444,0,0,0,,0,104,104,26,1,SMOKER,C,old,y,./images/SMOKER.png,,,,,,,,,,,,,,,,,,,,,,
,,,,,,,,,,,,,,,,,199303,18,2022-01-25_21h34.59.011,lexical_decision_task_DD_L2,2021.2.3,MacIntel,58.82352941,,,,,,,,,,,0.756,0,,,,,,,,,,,,,,m,0,0.756,,,,,,,,-0.011111111,-0.244444444,0,0,0,,0,105,105,80,1,WEASEL,C,old,y,./images/WEASEL.png,,,,,,,,,,,,,,,,,,,,,,
,,,,,,,,,,,,,,,,,199303,18,2022-01-25_21h34.59.011,lexical_decision_task_DD_L2,2021.2.3,MacIntel,58.82352941,,,,,,,,,,,0.612,0,,,,,,,,,,,,,,m,0,0.612,,,,,,,,-0.011111111,-0.244444444,0,0,0,,0,106,106,64,1,JELLY,LB,old,y,./images/JELLYLB.png,,,,,,,,,,,,,,,,,,,,,,
,,,,,,,,,,,,,,,,,199303,18,2022-01-25_21h34.59.011,lexical_decision_task_DD_L2,2021.2.3,MacIntel,58.82352941,,,,,,,,,,,0.926,0,,,,,,,,,,,,,,m,0,0.926,,,,,,,,-0.011111111,-0.244444444,0,0,0,,0,107,107,58,1,BABOON,LB,old,y,./images/BABOONLB.png,,,,,,,,,,,,,,,,,,,,,,
,,,,,,,,,,,,,,,,,199303,18,2022-01-25_21h34.59.011,lexical_decision_task_DD_L2,2021.2.3,MacIntel,58.82352941,,,,,,,,,,,0.537,0,,,,,,,,,,,,,,m,0,0.537,,,,,,,,-0.011111111,-0.244444444,0,0,0,,0,108,108,44,1,LIZARD,C,old,y,./images/LIZARD.png,,,,,,,,,,,,,,,,,,,,,,
,,,,,,,,,,,,,,,,,199303,18,2022-01-25_21h34.59.011,lexical_decision_task_DD_L2,2021.2.3,MacIntel,58.82352941,,,,,,,,,,,0.645,0,,,,,,,,,,,,,,z,0,0.645,,,,,,,,-0.011111111,-0.244444444,0,0,0,,0,109,109,157,1,INLER,HB,old,n,./images/INLERHB.png,,,,,,,,,,,,,,,,,,,,,,
,,,,,,,,,,,,,,,,,199303,18,2022-01-25_21h34.59.011,lexical_decision_task_DD_L2,2021.2.3,MacIntel,58.82352941,,,,,,,,,,,0.659,0,,,,,,,,,,,,,,m,0,0.659,,,,,,,,-0.011111111,-0.244444444,0,0,0,,0,110,110,5,1,PASTA,C,old,y,./images/PASTA.png,,,,,,,,,,,,,,,,,,,,,,
,,,,,,,,,,,,,,,,,199303,18,2022-01-25_21h34.59.011,lexical_decision_task_DD_L2,2021.2.3,MacIntel,58.82352941,,,,,,,,,,,0.756,0,,,,,,,,,,,,,,m,0,0.756,,,,,,,,-0.011111111,-0.244444444,0,0,0,,0,111,111,22,1,MELON,LB,old,y,./images/MELONLB.png,,,,,,,,,,,,,,,,,,,,,,
,,,,,,,,,,,,,,,,,199303,18,2022-01-25_21h34.59.011,lexical_decision_task_DD_L2,2021.2.3,MacIntel,58.82352941,,,,,,,,,,,0.66,0,,,,,,,,,,,,,,m,0,0.66,,,,,,,,-0.011111111,-0.244444444,0,0,0,,0,112,112,42,1,FOLDER,HB,old,y,./images/FOLDERHB.png,,,,,,,,,,,,,,,,,,,,,,
,,,,,,,,,,,,,,,,,199303,18,2022-01-25_21h34.59.011,lexical_decision_task_DD_L2,2021.2.3,MacIntel,58.82352941,,,,,,,,,,,0.61,0,,,,,,,,,,,,,,z,0,0.61,,,,,,,,-0.011111111,-0.244444444,0,0,0,,0,113,113,161,1,BLAPS,LB,old,n,./images/BLAPSLB.png,,,,,,,,,,,,,,,,,,,,,,
,,,,,,,,,,,,,,,,,199303,18,2022-01-25_21h34.59.011,lexical_decision_task_DD_L2,2021.2.3,MacIntel,58.82352941,,,,,,,,,,,0.627,0,,,,,,,,,,,,,,m,0,0.627,,,,,,,,-0.011111111,-0.244444444,0,0,0,,0,114,114,52,1,BANNER,LB,old,y,./images/BANNERLB.png,,,,,,,,,,,,,,,,,,,,,,
,,,,,,,,,,,,,,,,,199303,18,2022-01-25_21h34.59.011,lexical_decision_task_DD_L2,2021.2.3,MacIntel,58.82352941,,,,,,,,,,,0.609,0,,,,,,,,,,,,,,m,0,0.609,,,,,,,,-0.011111111,-0.244444444,0,0,0,,0,115,115,39,1,SHELF,HB,old,y,./images/SHELFHB.png,,,,,,,,,,,,,,,,,,,,,,
,,,,,,,,,,,,,,,,,199303,18,2022-01-25_21h34.59.011,lexical_decision_task_DD_L2,2021.2.3,MacIntel,58.82352941,,,,,,,,,,,0.665,0,,,,,,,,,,,,,,z,0,0.665,,,,,,,,-0.011111111,-0.244444444,0,0,0,,0,116,116,107,1,FASKS,LB,old,n,./images/FASKSLB.png,,,,,,,,,,,,,,,,,,,,,,
,,,,,,,,,,,,,,,,,199303,18,2022-01-25_21h34.59.011,lexical_decision_task_DD_L2,2021.2.3,MacIntel,58.82352941,,,,,,,,,,,0.723,0,,,,,,,,,,,,,,z,0,0.723,,,,,,,,-0.011111111,-0.244444444,0,0,0,,0,117,117,124,1,TUNCH,HB,old,n,./images/TUNCHHB.png,,,,,,,,,,,,,,,,,,,,,,
,,,,,,,,,,,,,,,,,199303,18,2022-01-25_21h34.59.011,lexical_decision_task_DD_L2,2021.2.3,MacIntel,58.82352941,,,,,,,,,,,0.522,0,,,,,,,,,,,,,,m,0,0.522,,,,,,,,-0.011111111,-0.244444444,0,0,0,,0,118,118,29,1,CRUMB,C,old,y,./images/CRUMB.png,,,,,,,,,,,,,,,,,,,,,,
,,,,,,,,,,,,,,,,,199303,18,2022-01-25_21h34.59.011,lexical_decision_task_DD_L2,2021.2.3,MacIntel,58.82352941,,,,,,,,,,,0.582,0,,,,,,,,,,,,,,m,0,0.582,,,,,,,,-0.011111111,-0.244444444,0,0,0,,0,119,119,3,1,FINGER,HB,old,y,./images/FINGERHB.png,,,,,,,,,,,,,,,,,,,,,,
,,,,,,,,,,,,,,,,,199303,18,2022-01-25_21h34.59.011,lexical_decision_task_DD_L2,2021.2.3,MacIntel,58.82352941,,,,,,,,,,,0.642,0,,,,,,,,,,,,,,m,0,0.642,,,,,,,,-0.011111111,-0.244444444,0,0,0,,0,120,120,17,1,SKIING,C,old,y,./images/SKIING.png,,,,,,,,,,,,,,,,,,,,,,
,,,,,,,,,,,,,,,,,199303,18,2022-01-25_21h34.59.011,lexical_decision_task_DD_L2,2021.2.3,MacIntel,58.82352941,,,,,,,,,,,0.706,0,,,,,,,,,,,,,,z,0,0.706,,,,,,,,-0.011111111,-0.244444444,0,0,0,,0,121,121,50,1,MALLET,C,old,y,./images/MALLET.png,,,,,,,,,,,,,,,,,,,,,,
,,,,,,,,,,,,,,,,,199303,18,2022-01-25_21h34.59.011,lexical_decision_task_DD_L2,2021.2.3,MacIntel,58.82352941,,,,,,,,,,,0.495,0,,,,,,,,,,,,,,m,0,0.495,,,,,,,,-0.011111111,-0.244444444,0,0,0,,0,122,122,7,1,PAINT,LB,old,y,./images/PAINTLB.png,,,,,,,,,,,,,,,,,,,,,,
,,,,,,,,,,,,,,,,,199303,18,2022-01-25_21h34.59.011,lexical_decision_task_DD_L2,2021.2.3,MacIntel,58.82352941,,,,,,,,,,,1.21,0,,,,,,,,,,,,,,z,0,1.21,,,,,,,,-0.011111111,-0.244444444,0,0,0,,0,123,123,151,1,TINKY,HB,old,n,./images/TINKYHB.png,,,,,,,,,,,,,,,,,,,,,,
,,,,,,,,,,,,,,,,,199303,18,2022-01-25_21h34.59.011,lexical_decision_task_DD_L2,2021.2.3,MacIntel,58.82352941,,,,,,,,,,,0.713,0,,,,,,,,,,,,,,z,0,0.713,,,,,,,,-0.011111111,-0.244444444,0,0,0,,0,124,124,89,1,DRIEK,LB,old,n,./images/DRIEKLB.png,,,,,,,,,,,,,,,,,,,,,,
,,,,,,,,,,,,,,,,,199303,18,2022-01-25_21h34.59.011,lexical_decision_task_DD_L2,2021.2.3,MacIntel,58.82352941,,,,,,,,,,,0.627,0,,,,,,,,,,,,,,m,0,0.627,,,,,,,,-0.011111111,-0.244444444,0,0,0,space,0,125,125,4,1,MUSCLE,LB,old,y,./images/MUSCLELB.png,1.002,,,,,,,,,,,,,,,,,,,,,
,,,,,,,,,,,,,,,,,199303,18,2022-01-25_21h34.59.011,lexical_decision_task_DD_L2,2021.2.3,MacIntel,58.82352941,,,,,,,,,,,0.589,0,,,,,,,,,,,,,,m,0,0.589,,,,,,,,-0.011111111,-0.244444444,0,0,0,,0,126,126,62,1,PURSE,C,old,y,./images/PURSE.png,,,,,,,,,,,,,,,,,,,,,,
,,,,,,,,,,,,,,,,,199303,18,2022-01-25_21h34.59.011,lexical_decision_task_DD_L2,2021.2.3,MacIntel,58.82352941,,,,,,,,,,,0.522,0,,,,,,,,,,,,,,m,0,0.522,,,,,,,,-0.011111111,-0.244444444,0,0,0,,0,127,127,32,1,BARREL,C,old,y,./images/BARREL.png,,,,,,,,,,,,,,,,,,,,,,
,,,,,,,,,,,,,,,,,199303,18,2022-01-25_21h34.59.011,lexical_decision_task_DD_L2,2021.2.3,MacIntel,58.82352941,,,,,,,,,,,0.512,0,,,,,,,,,,,,,,m,0,0.512,,,,,,,,-0.011111111,-0.244444444,0,0,0,,0,128,128,41,1,STRING,C,old,y,./images/STRING.png,,,,,,,,,,,,,,,,,,,,,,
,,,,,,,,,,,,,,,,,199303,18,2022-01-25_21h34.59.011,lexical_decision_task_DD_L2,2021.2.3,MacIntel,58.82352941,,,,,,,,,,,0.61,0,,,,,,,,,,,,,,m,0,0.61,,,,,,,,-0.011111111,-0.244444444,0,0,0,,0,129,129,51,1,ONION,HB,old,y,./images/ONIONHB.png,,,,,,,,,,,,,,,,,,,,,,
,,,,,,,,,,,,,,,,,199303,18,2022-01-25_21h34.59.011,lexical_decision_task_DD_L2,2021.2.3,MacIntel,58.82352941,,,,,,,,,,,0.439,0,,,,,,,,,,,,,,m,0,0.439,,,,,,,,-0.011111111,-0.244444444,0,0,0,,0,130,130,73,1,SNACK,LB,old,y,./images/SNACKLB.png,,,,,,,,,,,,,,,,,,,,,,
,,,,,,,,,,,,,,,,,199303,18,2022-01-25_21h34.59.011,lexical_decision_task_DD_L2,2021.2.3,MacIntel,58.82352941,,,,,,,,,,,0.543,0,,,,,,,,,,,,,,m,0,0.543,,,,,,,,-0.011111111,-0.244444444,0,0,0,,0,131,131,68,1,TORCH,C,old,y,./images/TORCH.png,,,,,,,,,,,,,,,,,,,,,,
,,,,,,,,,,,,,,,,,199303,18,2022-01-25_21h34.59.011,lexical_decision_task_DD_L2,2021.2.3,MacIntel,58.82352941,,,,,,,,,,,0.793,0,,,,,,,,,,,,,,m,0,0.793,,,,,,,,-0.011111111,-0.244444444,0,0,0,,0,132,132,109,1,BURGE,HB,old,n,./images/BURGEHB.png,,,,,,,,,,,,,,,,,,,,,,
,,,,,,,,,,,,,,,,,199303,18,2022-01-25_21h34.59.011,lexical_decision_task_DD_L2,2021.2.3,MacIntel,58.82352941,,,,,,,,,,,0.544,0,,,,,,,,,,,,,,m,0,0.544,,,,,,,,-0.011111111,-0.244444444,0,0,0,,0,133,133,63,1,MIRROR,HB,old,y,./images/MIRRORHB.png,,,,,,,,,,,,,,,,,,,,,,
,,,,,,,,,,,,,,,,,199303,18,2022-01-25_21h34.59.011,lexical_decision_task_DD_L2,2021.2.3,MacIntel,58.82352941,,,,,,,,,,,0.506,0,,,,,,,,,,,,,,m,0,0.506,,,,,,,,-0.011111111,-0.244444444,0,0,0,,0,134,134,19,1,DOUGH,LB,old,y,./images/DOUGHLB.png,,,,,,,,,,,,,,,,,,,,,,
,,,,,,,,,,,,,,,,,199303,18,2022-01-25_21h34.59.011,lexical_decision_task_DD_L2,2021.2.3,MacIntel,58.82352941,,,,,,,,,,,0.694,0,,,,,,,,,,,,,,z,0,0.694,,,,,,,,-0.011111111,-0.244444444,0,0,0,,0,135,135,122,1,BLOOT,LB,old,n,./images/BLOOTLB.png,,,,,,,,,,,,,,,,,,,,,,
,,,,,,,,,,,,,,,,,199303,18,2022-01-25_21h34.59.011,lexical_decision_task_DD_L2,2021.2.3,MacIntel,58.82352941,,,,,,,,,,,0.731,0,,,,,,,,,,,,,,z,0,0.731,,,,,,,,-0.011111111,-0.244444444,0,0,0,,0,136,136,118,1,BAVEL,HB,old,n,./images/BAVELHB.png,,,,,,,,,,,,,,,,,,,,,,
,,,,,,,,,,,,,,,,,199303,18,2022-01-25_21h34.59.011,lexical_decision_task_DD_L2,2021.2.3,MacIntel,58.82352941,,,,,,,,,,,0.538,0,,,,,,,,,,,,,,m,0,0.538,,,,,,,,-0.011111111,-0.244444444,0,0,0,,0,137,137,1,1,PLANK,LB,old,y,./images/PLANKLB.png,,,,,,,,,,,,,,,,,,,,,,
,,,,,,,,,,,,,,,,,199303,18,2022-01-25_21h34.59.011,lexical_decision_task_DD_L2,2021.2.3,MacIntel,58.82352941,,,,,,,,,,,0.589,0,,,,,,,,,,,,,,z,0,0.589,,,,,,,,-0.011111111,-0.244444444,0,0,0,,0,138,138,147,1,ZOLES,C,old,n,./images/ZOLES.png,,,,,,,,,,,,,,,,,,,,,,
,,,,,,,,,,,,,,,,,199303,18,2022-01-25_21h34.59.011,lexical_decision_task_DD_L2,2021.2.3,MacIntel,58.82352941,,,,,,,,,,,0.592,0,,,,,,,,,,,,,,z,0,0.592,,,,,,,,-0.011111111,-0.244444444,0,0,0,,0,139,139,132,1,SCIFF,C,old,n,./images/SCIFF.png,,,,,,,,,,,,,,,,,,,,,,
,,,,,,,,,,,,,,,,,199303,18,2022-01-25_21h34.59.011,lexical_decision_task_DD_L2,2021.2.3,MacIntel,58.82352941,,,,,,,,,,,0.477,0,,,,,,,,,,,,,,m,0,0.477,,,,,,,,-0.011111111,-0.244444444,0,0,0,,0,140,140,37,1,BIRTH,LB,old,y,./images/BIRTHLB.png,,,,,,,,,,,,,,,,,,,,,,
,,,,,,,,,,,,,,,,,199303,18,2022-01-25_21h34.59.011,lexical_decision_task_DD_L2,2021.2.3,MacIntel,58.82352941,,,,,,,,,,,0.55,0,,,,,,,,,,,,,,z,0,0.55,,,,,,,,-0.011111111,-0.244444444,0,0,0,,0,141,141,113,1,LINEW,LB,old,n,./images/LINEWLB.png,,,,,,,,,,,,,,,,,,,,,,
,,,,,,,,,,,,,,,,,199303,18,2022-01-25_21h34.59.011,lexical_decision_task_DD_L2,2021.2.3,MacIntel,58.82352941,,,,,,,,,,,0.495,0,,,,,,,,,,,,,,m,0,0.495,,,,,,,,-0.011111111,-0.244444444,0,0,0,,0,142,142,20,1,CRADLE,C,old,y,./images/CRADLE.png,,,,,,,,,,,,,,,,,,,,,,
,,,,,,,,,,,,,,,,,199303,18,2022-01-25_21h34.59.011,lexical_decision_task_DD_L2,2021.2.3,MacIntel,58.82352941,,,,,,,,,,,0.48,0,,,,,,,,,,,,,,m,0,0.48,,,,,,,,-0.011111111,-0.244444444,0,0,0,,0,143,143,56,1,PACKET,C,old,y,./images/PACKET.png,,,,,,,,,,,,,,,,,,,,,,
,,,,,,,,,,,,,,,,,199303,18,2022-01-25_21h34.59.011,lexical_decision_task_DD_L2,2021.2.3,MacIntel,58.82352941,,,,,,,,,,,0.561,0,,,,,,,,,,,,,,z,0,0.561,,,,,,,,-0.011111111,-0.244444444,0,0,0,,0,144,144,104,1,GITTY,LB,old,n,./images/GITTYLB.png,,,,,,,,,,,,,,,,,,,,,,
,,,,,,,,,,,,,,,,,199303,18,2022-01-25_21h34.59.011,lexical_decision_task_DD_L2,2021.2.3,MacIntel,58.82352941,,,,,,,,,,,0.626,0,,,,,,,,,,,,,,z,0,0.626,,,,,,,,-0.011111111,-0.244444444,0,0,0,,0,145,145,105,1,MOKER,C,old,n,./images/MOKER.png,,,,,,,,,,,,,,,,,,,,,,
,,,,,,,,,,,,,,,,,199303,18,2022-01-25_21h34.59.011,lexical_decision_task_DD_L2,2021.2.3,MacIntel,58.82352941,,,,,,,,,,,0.677,0,,,,,,,,,,,,,,m,0,0.677,,,,,,,,-0.011111111,-0.244444444,0,0,0,,0,146,146,24,1,SCREW,HB,old,y,./images/SCREWHB.png,,,,,,,,,,,,,,,,,,,,,,
,,,,,,,,,,,,,,,,,199303,18,2022-01-25_21h34.59.011,lexical_decision_task_DD_L2,2021.2.3,MacIntel,58.82352941,,,,,,,,,,,1.088,0,,,,,,,,,,,,,,m,0,1.088,,,,,,,,-0.011111111,-0.244444444,0,0,0,,0,147,147,130,1,CRILL,HB,old,n,./images/CRILLHB.png,,,,,,,,,,,,,,,,,,,,,,
,,,,,,,,,,,,,,,,,199303,18,2022-01-25_21h34.59.011,lexical_decision_task_DD_L2,2021.2.3,MacIntel,58.82352941,,,,,,,,,,,0.943,0,,,,,,,,,,,,,,z,0,0.943,,,,,,,,-0.011111111,-0.244444444,0,0,0,,0,148,148,145,1,LAMEL,HB,old,n,./images/LAMELHB.png,,,,,,,,,,,,,,,,,,,,,,
,,,,,,,,,,,,,,,,,199303,18,2022-01-25_21h34.59.011,lexical_decision_task_DD_L2,2021.2.3,MacIntel,58.82352941,,,,,,,,,,,0.53,0,,,,,,,,,,,,,,m,0,0.53,,,,,,,,-0.011111111,-0.244444444,0,0,0,,0,149,149,75,1,GRAIN,HB,old,y,./images/GRAINHB.png,,,,,,,,,,,,,,,,,,,,,,
,,,,,,,,,,,,,,,,,199303,18,2022-01-25_21h34.59.011,lexical_decision_task_DD_L2,2021.2.3,MacIntel,58.82352941,,,,,,,,,,,0.659,0,,,,,,,,,,,,,,z,0,0.659,,,,,,,,-0.011111111,-0.244444444,0,0,0,,0,150,150,125,1,MOOKY,LB,old,n,./images/MOOKYLB.png,,,,,,,,,,,,,,,,,,,,,,
,,,,,,,,,,,,,,,,,199303,18,2022-01-25_21h34.59.011,lexical_decision_task_DD_L2,2021.2.3,MacIntel,58.82352941,,,,,,,,,,,0.81,0,,,,,,,,,,,,,,z,0,0.81,,,,,,,,-0.011111111,-0.244444444,0,0,0,,0,151,151,84,1,HAXES,C,old,n,./images/HAXES.png,,,,,,,,,,,,,,,,,,,,,,
,,,,,,,,,,,,,,,,,199303,18,2022-01-25_21h34.59.011,lexical_decision_task_DD_L2,2021.2.3,MacIntel,58.82352941,,,,,,,,,,,0.861,0,,,,,,,,,,,,,,m,0,0.861,,,,,,,,-0.011111111,-0.244444444,0,0,0,,0,152,152,70,1,URINE,LB,old,y,./images/URINELB.png,,,,,,,,,,,,,,,,,,,,,,
,,,,,,,,,,,,,,,,,199303,18,2022-01-25_21h34.59.011,lexical_decision_task_DD_L2,2021.2.3,MacIntel,58.82352941,,,,,,,,,,,1.274,0,,,,,,,,,,,,,,z,0,1.274,,,,,,,,-0.011111111,-0.244444444,0,0,0,,0,153,153,152,1,FRAIN,LB,old,n,./images/FRAINLB.png,,,,,,,,,,,,,,,,,,,,,,
,,,,,,,,,,,,,,,,,199303,18,2022-01-25_21h34.59.011,lexical_decision_task_DD_L2,2021.2.3,MacIntel,58.82352941,,,,,,,,,,,0.607,0,,,,,,,,,,,,,,m,0,0.607,,,,,,,,-0.011111111,-0.244444444,0,0,0,,0,154,154,47,1,BERRY,C,old,y,./images/BERRY.png,,,,,,,,,,,,,,,,,,,,,,
,,,,,,,,,,,,,,,,,199303,18,2022-01-25_21h34.59.011,lexical_decision_task_DD_L2,2021.2.3,MacIntel,58.82352941,,,,,,,,,,,0.83,0,,,,,,,,,,,,,,z,0,0.83,,,,,,,,-0.011111111,-0.244444444,0,0,0,,0,155,155,100,1,DRIBS,HB,old,n,./images/DRIBSHB.png,,,,,,,,,,,,,,,,,,,,,,
,,,,,,,,,,,,,,,,,199303,18,2022-01-25_21h34.59.011,lexical_decision_task_DD_L2,2021.2.3,MacIntel,58.82352941,,,,,,,,,,,0.522,0,,,,,,,,,,,,,,m,0,0.522,,,,,,,,-0.011111111,-0.244444444,0,0,0,,0,156,156,59,1,BURIAL,C,old,y,./images/BURIAL.png,,,,,,,,,,,,,,,,,,,,,,
,,,,,,,,,,,,,,,,,199303,18,2022-01-25_21h34.59.011,lexical_decision_task_DD_L2,2021.2.3,MacIntel,58.82352941,,,,,,,,,,,0.559,0,,,,,,,,,,,,,,m,0,0.559,,,,,,,,-0.011111111,-0.244444444,0,0,0,,0,157,157,82,1,SUNSET,LB,old,y,./images/SUNSETLB.png,,,,,,,,,,,,,,,,,,,,,,
,,,,,,,,,,,,,,,,,199303,18,2022-01-25_21h34.59.011,lexical_decision_task_DD_L2,2021.2.3,MacIntel,58.82352941,,,,,,,,,,,0.976,0,,,,,,,,,,,,,,z,0,0.976,,,,,,,,-0.011111111,-0.244444444,0,0,0,,0,158,158,154,1,THINT,HB,old,n,./images/THINTHB.png,,,,,,,,,,,,,,,,,,,,,,
,,,,,,,,,,,,,,,,,199303,18,2022-01-25_21h34.59.011,lexical_decision_task_DD_L2,2021.2.3,MacIntel,58.82352941,,,,,,,,,,,0.856,0,,,,,,,,,,,,,,z,0,0.856,,,,,,,,-0.011111111,-0.244444444,0,0,0,,0,159,159,140,1,DOVET,LB,old,n,./images/DOVETLB.png,,,,,,,,,,,,,,,,,,,,,,
,,,,,,,,,,,,,,,,,199303,18,2022-01-25_21h34.59.011,lexical_decision_task_DD_L2,2021.2.3,MacIntel,58.82352941,,,,,,,,,,,0.662,0,,,,,,,,,,,,,,z,0,0.662,,,,,,,,-0.011111111,-0.244444444,0,0,0,,0,160,160,34,1,CANYON,LB,old,y,./images/CANYONLB.png,,,,,,,,,,,,,,,,,,,,,,
,,,,,,,,,,,,,,,,,199303,18,2022-01-25_21h34.59.011,lexical_decision_task_DD_L2,2021.2.3,MacIntel,58.82352941,,,,,,,,,,,1.409,0,,,,,,,,,,,,,,z,0,1.409,,,,,,,,-0.011111111,-0.244444444,0,0,0,,0,161,161,139,1,BLEAR,HB,old,n,./images/BLEARHB.png,,,,,,,,,,,,,,,,,,,,,,
,,,,,,,,,,,,,,,,,199303,18,2022-01-25_21h34.59.011,lexical_decision_task_DD_L2,2021.2.3,MacIntel,58.82352941,,,,,,,,,,,0.728,0,,,,,,,,,,,,,,m,0,0.728,,,,,,,,-0.011111111,-0.244444444,0,0,0,,0,162,162,8,1,TULIP,C,old,y,./images/TULIP.png,,,,,,,,,,,,,,,,,,,,,,
,,,,,,,,,,,,,,,,,199303,18,2022-01-25_21h34.59.011,lexical_decision_task_DD_L2,2021.2.3,MacIntel,58.82352941,,,,,,,,,,,0.61,0,,,,,,,,,,,,,,m,0,0.61,,,,,,,,-0.011111111,-0.244444444,0,0,0,,0,163,163,81,1,POODLE,HB,old,y,./images/POODLEHB.png,,,,,,,,,,,,,,,,,,,,,,
,,,,,,,,,,,,,,,,,199303,18,2022-01-25_21h34.59.011,lexical_decision_task_DD_L2,2021.2.3,MacIntel,58.82352941,,,,,,,,,,,0.742,0,,,,,,,,,,,,,,z,0,0.742,,,,,,,,-0.011111111,-0.244444444,0,0,0,,0,164,164,160,1,VEETS,HB,old,n,./images/VEETSHB.png,,,,,,,,,,,,,,,,,,,,,,
,,,,,,,,,,,,,,,,,199303,18,2022-01-25_21h34.59.011,lexical_decision_task_DD_L2,2021.2.3,MacIntel,58.82352941,,,,,,,,,,,0.477,0,,,,,,,,,,,,,,m,0,0.477,,,,,,,,-0.011111111,-0.244444444,0,0,0,,0,165,165,35,1,PEACH,C,old,y,./images/PEACH.png,,,,,,,,,,,,,,,,,,,,,,
,,,,,,,,,,,,,,,,,199303,18,2022-01-25_21h34.59.011,lexical_decision_task_DD_L2,2021.2.3,MacIntel,58.82352941,,,,,,,,,,,0.621,0,,,,,,,,,,,,,,z,0,0.621,,,,,,,,-0.011111111,-0.244444444,0,0,0,,0,166,166,164,1,SGREW,LB,old,n,./images/SGREWLB.png,,,,,,,,,,,,,,,,,,,,,,
,,,,,,,,,,,,,,,,,199303,18,2022-01-25_21h34.59.011,lexical_decision_task_DD_L2,2021.2.3,MacIntel,58.82352941,,,,,,,,,,,2.044,0,,,,,,,,,,,,,,m,0,2.044,,,,,,,,-0.011111111,-0.244444444,0,0,0,,0,167,167,27,1,ATTIC,HB,old,y,./images/ATTICHB.png,,,,,,,,,,,,,,,,,,,,,,
space,10.402,-0.011111111,-0.244444444,0,0,0,,,,,,1,test,"In the next phase you will be presented with the words from the the first phase. Your job is to decide whether you remember seeing the word or not. If you remember seeing the word press ""old"" or type ""m"". If you do not remember seeing the word press ""new"" or type ""z"". Please press the space bar or click on continue to begin. ",,,199303,18,2022-01-25_21h34.59.011,lexical_decision_task_DD_L2,2021.2.3,MacIntel,58.82352941,,,,,,,,,,,,,,,,,,,,,,,,,,,,,,,,,,,,,,,,,,,,,,,,,,,,,0,0,0,0,1,,,,,,,,,,,,,,,,
space,1.053,-0.011111111,-0.244444444,0,0,0,,,,,,1,test,"In the next phase you will be presented with the words from the the first phase. Your job is to decide whether you remember seeing the word or not. If you remember seeing the word press ""old"" or type ""m"". If you do not remember seeing the word press ""new"" or type ""z"". Please press the space bar or click on continue to begin. ",,,199303,18,2022-01-25_21h34.59.011,lexical_decision_task_DD_L2,2021.2.3,MacIntel,58.82352941,,,,,,,,,,,,,,,,,,,,,,,,,,,,,,,,,,,,,,,,,,,,,,,,,,,,,1,0,1,0,1,,,,,,,,,,,,,,,,
,,-0.004444444,-0.358888889,1,0,0,,,,,,1,test,"In the next phase you will be presented with the words from the the first phase. Your job is to decide whether you remember seeing the word or not. If you remember seeing the word press ""old"" or type ""m"". If you do not remember seeing the word press ""new"" or type ""z"". Please press the space bar or click on continue to begin. ",,,199303,18,2022-01-25_21h34.59.011,lexical_decision_task_DD_L2,2021.2.3,MacIntel,58.82352941,,,,,,,,,,,,,,,,,,,,,,,,,,,,,,,,,,,,,,,,,,,,,,,,,,,,,2,0,2,0,1,instr_done_button,,,,,,,,,,,,,,,
,,0,-0.4,1,0,0,,,,,,1,test,"In the next phase you will be presented with the words from the the first phase. Your job is to decide whether you remember seeing the word or not. If you remember seeing the word press ""old"" or type ""m"". If you do not remember seeing the word press ""new"" or type ""z"". Please press the space bar or click on continue to begin. ",,,199303,18,2022-01-25_21h34.59.011,lexical_decision_task_DD_L2,2021.2.3,MacIntel,58.82352941,,,,,,,,,,,,,,,,,,,,,,,,,,,,,,,,,,,,,,,,,,,,,,,,,,,,,3,0,3,0,1,instr_done_button,,,,,,,,,,,,,,,
,,0,-0.4,1,0,0,,,,,,1,test,"In the next phase you will be presented with the words from the the first phase. Your job is to decide whether you remember seeing the word or not. If you remember seeing the word press ""old"" or type ""m"". If you do not remember seeing the word press ""new"" or type ""z"". Please press the space bar or click on continue to begin. ",,,199303,18,2022-01-25_21h34.59.011,lexical_decision_task_DD_L2,2021.2.3,MacIntel,58.82352941,,,,,,,,,,,,,,,,,,,,,,,,,,,,,,,,,,,,,,,,,,,,,,,,,,,,,4,0,4,0,1,instr_done_button,,,,,,,,,,,,,,,
,,,,,,,,,,,,,,,,,199303,18,2022-01-25_21h34.59.011,lexical_decision_task_DD_L2,2021.2.3,MacIntel,58.82352941,,,,,,,,,,,2.273,0,,,,,,,,,,,,,,,,,,,,,,,,0,-0.4,0,0,0,,,,,,,BEARD,C,old,y,./images/BEARD.png,,,,,,,,m,0,2.273,,,,,,,,0,0,0,2,1
,,,,,,,,,,,,,,,,,199303,18,2022-01-25_21h34.59.011,lexical_decision_task_DD_L2,2021.2.3,MacIntel,58.82352941,,,,,,,,,,,0.959,0,,,,,,,,,,,,,,,,,,,,,,,,0,-0.4,0,0,0,,,,,,,PAINT,LB,old,y,./images/PAINTLB.png,,,,,,,,m,0,0.959,,,,,,,,0,1,1,7,1
,,,,,,,,,,,,,,,,,199303,18,2022-01-25_21h34.59.011,lexical_decision_task_DD_L2,2021.2.3,MacIntel,58.82352941,,,,,,,,,,,1.128,0,,,,,,,,,,,,,,,,,,,,,,,,0,-0.4,0,0,0,,,,,,,WAGON,LB,new,y,./images/WAGONLB.png,,,,,,,,z,0,1.128,,,,,,,,0,2,2,91,1
,,,,,,,,,,,,,,,,,199303,18,2022-01-25_21h34.59.011,lexical_decision_task_DD_L2,2021.2.3,MacIntel,58.82352941,,,,,,,,,,,1.444,0,,,,,,,,,,,,,,,,,,,,,,,,0,-0.4,0,0,0,,,,,,,TOMATO,HB,old,y,./images/TOMATOHB.png,,,,,,,,m,0,1.444,,,,,,,,0,3,3,0,1
,,,,,,,,,,,,,,,,,199303,18,2022-01-25_21h34.59.011,lexical_decision_task_DD_L2,2021.2.3,MacIntel,58.82352941,,,,,,,,,,,0.818,0,,,,,,,,,,,,,,,,,,,,,,,,0,-0.4,0,0,0,,,,,,,DIVER,HB,new,y,./images/DIVERHB.png,,,,,,,,z,0,0.818,,,,,,,,0,4,4,93,1
,,,,,,,,,,,,,,,,,199303,18,2022-01-25_21h34.59.011,lexical_decision_task_DD_L2,2021.2.3,MacIntel,58.82352941,,,,,,,,,,,0.71,0,,,,,,,,,,,,,,,,,,,,,,,,0,-0.4,0,0,0,,,,,,,DOUGH,LB,old,y,./images/DOUGHLB.png,,,,,,,,m,0,0.71,,,,,,,,0,5,5,19,1
,,,,,,,,,,,,,,,,,199303,18,2022-01-25_21h34.59.011,lexical_decision_task_DD_L2,2021.2.3,MacIntel,58.82352941,,,,,,,,,,,1.177,0,,,,,,,,,,,,,,,,,,,,,,,,0,-0.4,0,0,0,,,,,,,STORM,HB,old,y,./images/STORMHB.png,,,,,,,,z,0,1.177,,,,,,,,0,6,6,30,1
,,,,,,,,,,,,,,,,,199303,18,2022-01-25_21h34.59.011,lexical_decision_task_DD_L2,2021.2.3,MacIntel,58.82352941,,,,,,,,,,,1.08,0,,,,,,,,,,,,,,,,,,,,,,,,0,-0.4,0,0,0,,,,,,,CLIFF,C,new,y,./images/CLIFF.png,,,,,,,,z,0,1.08,,,,,,,,0,7,7,92,1
,,,,,,,,,,,,,,,,,199303,18,2022-01-25_21h34.59.011,lexical_decision_task_DD_L2,2021.2.3,MacIntel,58.82352941,,,,,,,,,,,0.763,0,,,,,,,,,,,,,,,,,,,,,,,,0,-0.4,0,0,0,,,,,,,MIDGET,LB,new,y,./images/MIDGETLB.png,,,,,,,,z,0,0.763,,,,,,,,0,8,8,160,1
,,,,,,,,,,,,,,,,,199303,18,2022-01-25_21h34.59.011,lexical_decision_task_DD_L2,2021.2.3,MacIntel,58.82352941,,,,,,,,,,,0.793,0,,,,,,,,,,,,,,,,,,,,,,,,0,-0.4,0,0,0,,,,,,,PURSE,C,old,y,./images/PURSE.png,,,,,,,,m,0,0.793,,,,,,,,0,9,9,62,1
,,,,,,,,,,,,,,,,,199303,18,2022-01-25_21h34.59.011,lexical_decision_task_DD_L2,2021.2.3,MacIntel,58.82352941,,,,,,,,,,,0.812,0,,,,,,,,,,,,,,,,,,,,,,,,0,-0.4,0,0,0,,,,,,,TULIP,C,old,y,./images/TULIP.png,,,,,,,,m,0,0.812,,,,,,,,0,10,10,8,1
,,,,,,,,,,,,,,,,,199303,18,2022-01-25_21h34.59.011,lexical_decision_task_DD_L2,2021.2.3,MacIntel,58.82352941,,,,,,,,,,,0.959,0,,,,,,,,,,,,,,,,,,,,,,,,0,-0.4,0,0,0,,,,,,,COLLAR,HB,new,y,./images/COLLARHB.png,,,,,,,,z,0,0.959,,,,,,,,0,11,11,99,1
,,,,,,,,,,,,,,,,,199303,18,2022-01-25_21h34.59.011,lexical_decision_task_DD_L2,2021.2.3,MacIntel,58.82352941,,,,,,,,,,,1.04,0,,,,,,,,,,,,,,,,,,,,,,,,0,-0.4,0,0,0,,,,,,,LLAMA,C,new,y,./images/LLAMA.png,,,,,,,,z,0,1.04,,,,,,,,0,12,12,119,1
,,,,,,,,,,,,,,,,,199303,18,2022-01-25_21h34.59.011,lexical_decision_task_DD_L2,2021.2.3,MacIntel,58.82352941,,,,,,,,,,,0.877,0,,,,,,,,,,,,,,,,,,,,,,,,0,-0.4,0,0,0,,,,,,,LIZARD,C,old,y,./images/LIZARD.png,,,,,,,,z,0,0.877,,,,,,,,0,13,13,44,1
,,,,,,,,,,,,,,,,,199303,18,2022-01-25_21h34.59.011,lexical_decision_task_DD_L2,2021.2.3,MacIntel,58.82352941,,,,,,,,,,,1.242,0,,,,,,,,,,,,,,,,,,,,,,,,0,-0.4,0,0,0,,,,,,,PARCEL,HB,new,y,./images/PARCELHB.png,,,,,,,,m,0,1.242,,,,,,,,0,14,14,102,1
,,,,,,,,,,,,,,,,,199303,18,2022-01-25_21h34.59.011,lexical_decision_task_DD_L2,2021.2.3,MacIntel,58.82352941,,,,,,,,,,,0.746,0,,,,,,,,,,,,,,,,,,,,,,,,0,-0.4,0,0,0,,,,,,,PLANET,C,new,y,./images/PLANET.png,,,,,,,,z,0,0.746,,,,,,,,0,15,15,164,1
,,,,,,,,,,,,,,,,,199303,18,2022-01-25_21h34.59.011,lexical_decision_task_DD_L2,2021.2.3,MacIntel,58.82352941,,,,,,,,,,,1.811,0,,,,,,,,,,,,,,,,,,,,,,,,0,-0.4,0,0,0,,,,,,,BRUSH,C,new,y,./images/BRUSH.png,,,,,,,,z,0,1.811,,,,,,,,0,16,16,143,1
,,,,,,,,,,,,,,,,,199303,18,2022-01-25_21h34.59.011,lexical_decision_task_DD_L2,2021.2.3,MacIntel,58.82352941,,,,,,,,,,,0.899,0,,,,,,,,,,,,,,,,,,,,,,,,0,-0.4,0,0,0,,,,,,,ATTIC,HB,old,y,./images/ATTICHB.png,,,,,,,,z,0,0.899,,,,,,,,0,17,17,27,1
,,,,,,,,,,,,,,,,,199303,18,2022-01-25_21h34.59.011,lexical_decision_task_DD_L2,2021.2.3,MacIntel,58.82352941,,,,,,,,,,,0.796,0,,,,,,,,,,,,,,,,,,,,,,,,0,-0.4,0,0,0,,,,,,,PARADE,C,new,y,./images/PARADE.png,,,,,,,,z,0,0.796,,,,,,,,0,18,18,101,1
,,,,,,,,,,,,,,,,,199303,18,2022-01-25_21h34.59.011,lexical_decision_task_DD_L2,2021.2.3,MacIntel,58.82352941,,,,,,,,,,,0.865,0,,,,,,,,,,,,,,,,,,,,,,,,0,-0.4,0,0,0,,,,,,,FLESH,HB,new,y,./images/FLESHHB.png,,,,,,,,z,0,0.865,,,,,,,,0,19,19,108,1
,,,,,,,,,,,,,,,,,199303,18,2022-01-25_21h34.59.011,lexical_decision_task_DD_L2,2021.2.3,MacIntel,58.82352941,,,,,,,,,,,0.962,0,,,,,,,,,,,,,,,,,,,,,,,,0,-0.4,0,0,0,,,,,,,CRUST,LB,old,y,./images/CRUSTLB.png,,,,,,,,z,0,0.962,,,,,,,,0,20,20,79,1
,,,,,,,,,,,,,,,,,199303,18,2022-01-25_21h34.59.011,lexical_decision_task_DD_L2,2021.2.3,MacIntel,58.82352941,,,,,,,,,,,0.677,0,,,,,,,,,,,,,,,,,,,,,,,,0,-0.4,0,0,0,,,,,,,BASKET,C,new,y,./images/BASKET.png,,,,,,,,z,0,0.677,,,,,,,,0,21,21,128,1
,,,,,,,,,,,,,,,,,199303,18,2022-01-25_21h34.59.011,lexical_decision_task_DD_L2,2021.2.3,MacIntel,58.82352941,,,,,,,,,,,0.827,0,,,,,,,,,,,,,,,,,,,,,,,,0,-0.4,0,0,0,,,,,,,PENCE,LB,old,y,./images/PENCELB.png,,,,,,,,m,0,0.827,,,,,,,,0,22,22,16,1
,,,,,,,,,,,,,,,,,199303,18,2022-01-25_21h34.59.011,lexical_decision_task_DD_L2,2021.2.3,MacIntel,58.82352941,,,,,,,,,,,0.623,0,,,,,,,,,,,,,,,,,,,,,,,,0,-0.4,0,0,0,,,,,,,PLANK,LB,old,y,./images/PLANKLB.png,,,,,,,,m,0,0.623,,,,,,,,0,23,23,1,1
,,,,,,,,,,,,,,,,,199303,18,2022-01-25_21h34.59.011,lexical_decision_task_DD_L2,2021.2.3,MacIntel,58.82352941,,,,,,,,,,,0.827,0,,,,,,,,,,,,,,,,,,,,,,,,0,-0.4,0,0,0,,,,,,,MAMMAL,C,new,y,./images/MAMMAL.png,,,,,,,,m,0,0.827,,,,,,,,0,24,24,146,1
,,,,,,,,,,,,,,,,,199303,18,2022-01-25_21h34.59.011,lexical_decision_task_DD_L2,2021.2.3,MacIntel,58.82352941,,,,,,,,,,,0.873,0,,,,,,,,,,,,,,,,,,,,,,,,0,-0.4,0,0,0,,,,,,,BOXER,LB,new,y,./images/BOXERLB.png,,,,,,,,z,0,0.873,,,,,,,,0,25,25,88,1
,,,,,,,,,,,,,,,,,199303,18,2022-01-25_21h34.59.011,lexical_decision_task_DD_L2,2021.2.3,MacIntel,58.82352941,,,,,,,,,,,0.66,0,,,,,,,,,,,,,,,,,,,,,,,,0,-0.4,0,0,0,,,,,,,SNACK,LB,old,y,./images/SNACKLB.png,,,,,,,,m,0,0.66,,,,,,,,0,26,26,73,1
,,,,,,,,,,,,,,,,,199303,18,2022-01-25_21h34.59.011,lexical_decision_task_DD_L2,2021.2.3,MacIntel,58.82352941,,,,,,,,,,,0.78,0,,,,,,,,,,,,,,,,,,,,,,,,0,-0.4,0,0,0,,,,,,,CEMENT,C,old,y,./images/CEMENT.png,,,,,,,,m,0,0.78,,,,,,,,0,27,27,74,1
,,,,,,,,,,,,,,,,,199303,18,2022-01-25_21h34.59.011,lexical_decision_task_DD_L2,2021.2.3,MacIntel,58.82352941,,,,,,,,,,,0.864,0,,,,,,,,,,,,,,,,,,,,,,,,0,-0.4,0,0,0,,,,,,,ALLEY,LB,new,y,./images/ALLEYLB.png,,,,,,,,z,0,0.864,,,,,,,,0,28,28,139,1
,,,,,,,,,,,,,,,,,199303,18,2022-01-25_21h34.59.011,lexical_decision_task_DD_L2,2021.2.3,MacIntel,58.82352941,,,,,,,,,,,0.593,0,,,,,,,,,,,,,,,,,,,,,,,,0,-0.4,0,0,0,,,,,,,MOOSE,HB,old,y,./images/MOOSEHB.png,,,,,,,,m,0,0.593,,,,,,,,0,29,29,57,1
,,,,,,,,,,,,,,,,,199303,18,2022-01-25_21h34.59.011,lexical_decision_task_DD_L2,2021.2.3,MacIntel,58.82352941,,,,,,,,,,,0.773,0,,,,,,,,,,,,,,,,,,,,,,,,0,-0.4,0,0,0,,,,,,,TIGER,LB,new,y,./images/TIGERLB.png,,,,,,,,z,0,0.773,,,,,,,,0,30,30,121,1
,,,,,,,,,,,,,,,,,199303,18,2022-01-25_21h34.59.011,lexical_decision_task_DD_L2,2021.2.3,MacIntel,58.82352941,,,,,,,,,,,0.779,0,,,,,,,,,,,,,,,,,,,,,,,,0,-0.4,0,0,0,,,,,,,STATUE,HB,new,y,./images/STATUEHB.png,,,,,,,,m,0,0.779,,,,,,,,0,31,31,150,1
,,,,,,,,,,,,,,,,,199303,18,2022-01-25_21h34.59.011,lexical_decision_task_DD_L2,2021.2.3,MacIntel,58.82352941,,,,,,,,,,,0.942,0,,,,,,,,,,,,,,,,,,,,,,,,0,-0.4,0,0,0,,,,,,,GARDEN,LB,new,y,./images/GARDENLB.png,,,,,,,,m,0,0.942,,,,,,,,0,32,32,94,1
,,,,,,,,,,,,,,,,,199303,18,2022-01-25_21h34.59.011,lexical_decision_task_DD_L2,2021.2.3,MacIntel,58.82352941,,,,,,,,,,,0.776,0,,,,,,,,,,,,,,,,,,,,,,,,0,-0.4,0,0,0,,,,,,,COUCH,C,old,y,./images/COUCH.png,,,,,,,,z,0,0.776,,,,,,,,0,33,33,77,1
,,,,,,,,,,,,,,,,,199303,18,2022-01-25_21h34.59.011,lexical_decision_task_DD_L2,2021.2.3,MacIntel,58.82352941,,,,,,,,,,,0.81,0,,,,,,,,,,,,,,,,,,,,,,,,0,-0.4,0,0,0,,,,,,,HAMMER,HB,new,y,./images/HAMMERHB.png,,,,,,,,z,0,0.81,,,,,,,,0,34,34,159,1
,,,,,,,,,,,,,,,,,199303,18,2022-01-25_21h34.59.011,lexical_decision_task_DD_L2,2021.2.3,MacIntel,58.82352941,,,,,,,,,,,0.688,0,,,,,,,,,,,,,,,,,,,,,,,,0,-0.4,0,0,0,,,,,,,FINGER,HB,old,y,./images/FINGERHB.png,,,,,,,,m,0,0.688,,,,,,,,0,35,35,3,1
,,,,,,,,,,,,,,,,,199303,18,2022-01-25_21h34.59.011,lexical_decision_task_DD_L2,2021.2.3,MacIntel,58.82352941,,,,,,,,,,,0.764,0,,,,,,,,,,,,,,,,,,,,,,,,0,-0.4,0,0,0,,,,,,,BRIDE,LB,new,y,./images/BRIDELB.png,,,,,,,,z,0,0.764,,,,,,,,0,36,36,148,1
,,,,,,,,,,,,,,,,,199303,18,2022-01-25_21h34.59.011,lexical_decision_task_DD_L2,2021.2.3,MacIntel,58.82352941,,,,,,,,,,,0.598,0,,,,,,,,,,,,,,,,,,,,,,,,0,-0.4,0,0,0,,,,,,,BANNER,LB,old,y,./images/BANNERLB.png,,,,,,,,m,0,0.598,,,,,,,,0,37,37,52,1
,,,,,,,,,,,,,,,,,199303,18,2022-01-25_21h34.59.011,lexical_decision_task_DD_L2,2021.2.3,MacIntel,58.82352941,,,,,,,,,,,0.625,0,,,,,,,,,,,,,,,,,,,,,,,,0,-0.4,0,0,0,,,,,,,BIRTH,LB,old,y,./images/BIRTHLB.png,,,,,,,,m,0,0.625,,,,,,,,0,38,38,37,1
,,,,,,,,,,,,,,,,,199303,18,2022-01-25_21h34.59.011,lexical_decision_task_DD_L2,2021.2.3,MacIntel,58.82352941,,,,,,,,,,,0.96,0,,,,,,,,,,,,,,,,,,,,,,,,0,-0.4,0,0,0,,,,,,,CLOWN,LB,new,y,./images/CLOWNLB.png,,,,,,,,z,0,0.96,,,,,,,,0,39,39,106,1
,,,,,,,,,,,,,,,,,199303,18,2022-01-25_21h34.59.011,lexical_decision_task_DD_L2,2021.2.3,MacIntel,58.82352941,,,,,,,,,,,0.745,0,,,,,,,,,,,,,,,,,,,,,,,,0,-0.4,0,0,0,,,,,,,RHINO,HB,old,y,./images/RHINOHB.png,,,,,,,,m,0,0.745,,,,,,,,0,40,40,9,1
,,,,,,,,,,,,,,,,,199303,18,2022-01-25_21h34.59.011,lexical_decision_task_DD_L2,2021.2.3,MacIntel,58.82352941,,,,,,,,,,,0.649,0,,,,,,,,,,,,,,,,,,,,,,,,0,-0.4,0,0,0,space,,,,,,TWINS,HB,old,y,./images/TWINSHB.png,1.445,,,,,,,z,0,0.649,,,,,,,,0,41,41,60,1
,,,,,,,,,,,,,,,,,199303,18,2022-01-25_21h34.59.011,lexical_decision_task_DD_L2,2021.2.3,MacIntel,58.82352941,,,,,,,,,,,1.425,0,,,,,,,,,,,,,,,,,,,,,,,,0,-0.4,0,0,0,,,,,,,ARTIST,LB,new,y,./images/ARTISTLB.png,,,,,,,,z,0,1.425,,,,,,,,0,42,42,145,1
,,,,,,,,,,,,,,,,,199303,18,2022-01-25_21h34.59.011,lexical_decision_task_DD_L2,2021.2.3,MacIntel,58.82352941,,,,,,,,,,,0.97,0,,,,,,,,,,,,,,,,,,,,,,,,0,-0.4,0,0,0,,,,,,,CASINO,LB,new,y,./images/CASINOLB.png,,,,,,,,z,0,0.97,,,,,,,,0,43,43,112,1
,,,,,,,,,,,,,,,,,199303,18,2022-01-25_21h34.59.011,lexical_decision_task_DD_L2,2021.2.3,MacIntel,58.82352941,,,,,,,,,,,0.73,0,,,,,,,,,,,,,,,,,,,,,,,,0,-0.4,0,0,0,,,,,,,BUTTER,HB,new,y,./images/BUTTERHB.png,,,,,,,,m,0,0.73,,,,,,,,0,44,44,111,1
,,,,,,,,,,,,,,,,,199303,18,2022-01-25_21h34.59.011,lexical_decision_task_DD_L2,2021.2.3,MacIntel,58.82352941,,,,,,,,,,,0.725,0,,,,,,,,,,,,,,,,,,,,,,,,0,-0.4,0,0,0,,,,,,,NOOSE,HB,old,y,./images/NOOSEHB.png,,,,,,,,m,0,0.725,,,,,,,,0,45,45,72,1
,,,,,,,,,,,,,,,,,199303,18,2022-01-25_21h34.59.011,lexical_decision_task_DD_L2,2021.2.3,MacIntel,58.82352941,,,,,,,,,,,1.008,0,,,,,,,,,,,,,,,,,,,,,,,,0,-0.4,0,0,0,,,,,,,MUSCLE,LB,old,y,./images/MUSCLELB.png,,,,,,,,m,0,1.008,,,,,,,,0,46,46,4,1
,,,,,,,,,,,,,,,,,199303,18,2022-01-25_21h34.59.011,lexical_decision_task_DD_L2,2021.2.3,MacIntel,58.82352941,,,,,,,,,,,0.744,0,,,,,,,,,,,,,,,,,,,,,,,,0,-0.4,0,0,0,,,,,,,BUNNY,LB,new,y,./images/BUNNYLB.png,,,,,,,,m,0,0.744,,,,,,,,0,47,47,97,1
,,,,,,,,,,,,,,,,,199303,18,2022-01-25_21h34.59.011,lexical_decision_task_DD_L2,2021.2.3,MacIntel,58.82352941,,,,,,,,,,,0.862,0,,,,,,,,,,,,,,,,,,,,,,,,0,-0.4,0,0,0,,,,,,,JELLY,LB,old,y,./images/JELLYLB.png,,,,,,,,m,0,0.862,,,,,,,,0,48,48,64,1
,,,,,,,,,,,,,,,,,199303,18,2022-01-25_21h34.59.011,lexical_decision_task_DD_L2,2021.2.3,MacIntel,58.82352941,,,,,,,,,,,0.811,0,,,,,,,,,,,,,,,,,,,,,,,,0,-0.4,0,0,0,,,,,,,PILOT,C,new,y,./images/PILOT.png,,,,,,,,m,0,0.811,,,,,,,,0,49,49,134,1
,,,,,,,,,,,,,,,,,199303,18,2022-01-25_21h34.59.011,lexical_decision_task_DD_L2,2021.2.3,MacIntel,58.82352941,,,,,,,,,,,1.045,0,,,,,,,,,,,,,,,,,,,,,,,,0,-0.4,0,0,0,,,,,,,SLOPE,HB,new,y,./images/SLOPEHB.png,,,,,,,,m,0,1.045,,,,,,,,0,50,50,114,1
,,,,,,,,,,,,,,,,,199303,18,2022-01-25_21h34.59.011,lexical_decision_task_DD_L2,2021.2.3,MacIntel,58.82352941,,,,,,,,,,,0.948,0,,,,,,,,,,,,,,,,,,,,,,,,0,-0.4,0,0,0,,,,,,,SUNSET,LB,old,y,./images/SUNSETLB.png,,,,,,,,z,0,0.948,,,,,,,,0,51,51,82,1
,,,,,,,,,,,,,,,,,199303,18,2022-01-25_21h34.59.011,lexical_decision_task_DD_L2,2021.2.3,MacIntel,58.82352941,,,,,,,,,,,0.76,0,,,,,,,,,,,,,,,,,,,,,,,,0,-0.4,0,0,0,,,,,,,MOTOR,LB,old,y,./images/MOTORLB.png,,,,,,,,z,0,0.76,,,,,,,,0,52,52,13,1
,,,,,,,,,,,,,,,,,199303,18,2022-01-25_21h34.59.011,lexical_decision_task_DD_L2,2021.2.3,MacIntel,58.82352941,,,,,,,,,,,1.694,0,,,,,,,,,,,,,,,,,,,,,,,,0,-0.4,0,0,0,,,,,,,STEAK,LB,new,y,./images/STEAKLB.png,,,,,,,,z,0,1.694,,,,,,,,0,53,53,115,1
,,,,,,,,,,,,,,,,,199303,18,2022-01-25_21h34.59.011,lexical_decision_task_DD_L2,2021.2.3,MacIntel,58.82352941,,,,,,,,,,,1.031,0,,,,,,,,,,,,,,,,,,,,,,,,0,-0.4,0,0,0,,,,,,,WALRUS,C,old,y,./images/WALRUS.png,,,,,,,,z,0,1.031,,,,,,,,0,54,54,23,1
,,,,,,,,,,,,,,,,,199303,18,2022-01-25_21h34.59.011,lexical_decision_task_DD_L2,2021.2.3,MacIntel,58.82352941,,,,,,,,,,,0.727,0,,,,,,,,,,,,,,,,,,,,,,,,0,-0.4,0,0,0,,,,,,,CLOUD,C,new,y,./images/CLOUD.png,,,,,,,,m,0,0.727,,,,,,,,0,55,55,110,1
,,,,,,,,,,,,,,,,,199303,18,2022-01-25_21h34.59.011,lexical_decision_task_DD_L2,2021.2.3,MacIntel,58.82352941,,,,,,,,,,,1.332,0,,,,,,,,,,,,,,,,,,,,,,,,0,-0.4,0,0,0,,,,,,,BAKER,HB,new,y,./images/BAKERHB.png,,,,,,,,m,0,1.332,,,,,,,,0,56,56,147,1
,,,,,,,,,,,,,,,,,199303,18,2022-01-25_21h34.59.011,lexical_decision_task_DD_L2,2021.2.3,MacIntel,58.82352941,,,,,,,,,,,1.114,0,,,,,,,,,,,,,,,,,,,,,,,,0,-0.4,0,0,0,,,,,,,CRUMB,C,old,y,./images/CRUMB.png,,,,,,,,m,0,1.114,,,,,,,,0,57,57,29,1
,,,,,,,,,,,,,,,,,199303,18,2022-01-25_21h34.59.011,lexical_decision_task_DD_L2,2021.2.3,MacIntel,58.82352941,,,,,,,,,,,0.96,0,,,,,,,,,,,,,,,,,,,,,,,,0,-0.4,0,0,0,,,,,,,CHALK,LB,new,y,./images/CHALKLB.png,,,,,,,,m,0,0.96,,,,,,,,0,58,58,109,1
,,,,,,,,,,,,,,,,,199303,18,2022-01-25_21h34.59.011,lexical_decision_task_DD_L2,2021.2.3,MacIntel,58.82352941,,,,,,,,,,,0.74,0,,,,,,,,,,,,,,,,,,,,,,,,0,-0.4,0,0,0,,,,,,,WRIST,LB,old,y,./images/WRISTLB.png,,,,,,,,z,0,0.74,,,,,,,,0,59,59,25,1
,,,,,,,,,,,,,,,,,199303,18,2022-01-25_21h34.59.011,lexical_decision_task_DD_L2,2021.2.3,MacIntel,58.82352941,,,,,,,,,,,0.714,0,,,,,,,,,,,,,,,,,,,,,,,,0,-0.4,0,0,0,,,,,,,QUILL,LB,old,y,./images/QUILLLB.png,,,,,,,,z,0,0.714,,,,,,,,0,60,60,31,1
,,,,,,,,,,,,,,,,,199303,18,2022-01-25_21h34.59.011,lexical_decision_task_DD_L2,2021.2.3,MacIntel,58.82352941,,,,,,,,,,,1.276,0,,,,,,,,,,,,,,,,,,,,,,,,0,-0.4,0,0,0,,,,,,,VALLEY,C,new,y,./images/VALLEY.png,,,,,,,,z,0,1.276,,,,,,,,0,61,61,152,1
,,,,,,,,,,,,,,,,,199303,18,2022-01-25_21h34.59.011,lexical_decision_task_DD_L2,2021.2.3,MacIntel,58.82352941,,,,,,,,,,,0.727,0,,,,,,,,,,,,,,,,,,,,,,,,0,-0.4,0,0,0,,,,,,,RULER,LB,new,y,./images/RULERLB.png,,,,,,,,z,0,0.727,,,,,,,,0,62,62,163,1
,,,,,,,,,,,,,,,,,199303,18,2022-01-25_21h34.59.011,lexical_decision_task_DD_L2,2021.2.3,MacIntel,58.82352941,,,,,,,,,,,0.864,0,,,,,,,,,,,,,,,,,,,,,,,,0,-0.4,0,0,0,,,,,,,MELON,LB,old,y,./images/MELONLB.png,,,,,,,,z,0,0.864,,,,,,,,0,63,63,22,1
,,,,,,,,,,,,,,,,,199303,18,2022-01-25_21h34.59.011,lexical_decision_task_DD_L2,2021.2.3,MacIntel,58.82352941,,,,,,,,,,,0.71,0,,,,,,,,,,,,,,,,,,,,,,,,0,-0.4,0,0,0,,,,,,,HEATER,C,new,y,./images/HEATER.png,,,,,,,,z,0,0.71,,,,,,,,0,64,64,140,1
,,,,,,,,,,,,,,,,,199303,18,2022-01-25_21h34.59.011,lexical_decision_task_DD_L2,2021.2.3,MacIntel,58.82352941,,,,,,,,,,,1.044,0,,,,,,,,,,,,,,,,,,,,,,,,0,-0.4,0,0,0,,,,,,,SCREW,HB,old,y,./images/SCREWHB.png,,,,,,,,z,0,1.044,,,,,,,,0,65,65,24,1
,,,,,,,,,,,,,,,,,199303,18,2022-01-25_21h34.59.011,lexical_decision_task_DD_L2,2021.2.3,MacIntel,58.82352941,,,,,,,,,,,0.944,0,,,,,,,,,,,,,,,,,,,,,,,,0,-0.4,0,0,0,,,,,,,MALLET,C,old,y,./images/MALLET.png,,,,,,,,m,0,0.944,,,,,,,,0,66,66,50,1
,,,,,,,,,,,,,,,,,199303,18,2022-01-25_21h34.59.011,lexical_decision_task_DD_L2,2021.2.3,MacIntel,58.82352941,,,,,,,,,,,0.677,0,,,,,,,,,,,,,,,,,,,,,,,,0,-0.4,0,0,0,,,,,,,PEACH,C,old,y,./images/PEACH.png,,,,,,,,m,0,0.677,,,,,,,,0,67,67,35,1
,,,,,,,,,,,,,,,,,199303,18,2022-01-25_21h34.59.011,lexical_decision_task_DD_L2,2021.2.3,MacIntel,58.82352941,,,,,,,,,,,0.677,0,,,,,,,,,,,,,,,,,,,,,,,,0,-0.4,0,0,0,,,,,,,SPORT,HB,old,y,./images/SPORTHB.png,,,,,,,,z,0,0.677,,,,,,,,0,68,68,48,1
,,,,,,,,,,,,,,,,,199303,18,2022-01-25_21h34.59.011,lexical_decision_task_DD_L2,2021.2.3,MacIntel,58.82352941,,,,,,,,,,,1.079,0,,,,,,,,,,,,,,,,,,,,,,,,0,-0.4,0,0,0,,,,,,,INFANT,LB,old,y,./images/INFANTLB.png,,,,,,,,z,0,1.079,,,,,,,,0,69,69,76,1
,,,,,,,,,,,,,,,,,199303,18,2022-01-25_21h34.59.011,lexical_decision_task_DD_L2,2021.2.3,MacIntel,58.82352941,,,,,,,,,,,1.092,0,,,,,,,,,,,,,,,,,,,,,,,,0,-0.4,0,0,0,,,,,,,PICKLE,C,old,y,./images/PICKLE.png,,,,,,,,m,0,1.092,,,,,,,,0,70,70,14,1
,,,,,,,,,,,,,,,,,199303,18,2022-01-25_21h34.59.011,lexical_decision_task_DD_L2,2021.2.3,MacIntel,58.82352941,,,,,,,,,,,0.721,0,,,,,,,,,,,,,,,,,,,,,,,,0,-0.4,0,0,0,,,,,,,MUMMY,LB,new,y,./images/MUMMYLB.png,,,,,,,,z,0,0.721,,,,,,,,0,71,71,130,1
,,,,,,,,,,,,,,,,,199303,18,2022-01-25_21h34.59.011,lexical_decision_task_DD_L2,2021.2.3,MacIntel,58.82352941,,,,,,,,,,,0.727,0,,,,,,,,,,,,,,,,,,,,,,,,0,-0.4,0,0,0,,,,,,,BURIAL,C,old,y,./images/BURIAL.png,,,,,,,,m,0,0.727,,,,,,,,0,72,72,59,1
,,,,,,,,,,,,,,,,,199303,18,2022-01-25_21h34.59.011,lexical_decision_task_DD_L2,2021.2.3,MacIntel,58.82352941,,,,,,,,,,,0.725,0,,,,,,,,,,,,,,,,,,,,,,,,0,-0.4,0,0,0,,,,,,,ENGINE,C,new,y,./images/ENGINE.png,,,,,,,,z,0,0.725,,,,,,,,0,73,73,122,1
,,,,,,,,,,,,,,,,,199303,18,2022-01-25_21h34.59.011,lexical_decision_task_DD_L2,2021.2.3,MacIntel,58.82352941,,,,,,,,,,,0.777,0,,,,,,,,,,,,,,,,,,,,,,,,0,-0.4,0,0,0,,,,,,,MAGGOT,HB,old,y,./images/MAGGOTHB.png,,,,,,,,z,0,0.777,,,,,,,,0,74,74,33,1
,,,,,,,,,,,,,,,,,199303,18,2022-01-25_21h34.59.011,lexical_decision_task_DD_L2,2021.2.3,MacIntel,58.82352941,,,,,,,,,,,0.863,0,,,,,,,,,,,,,,,,,,,,,,,,0,-0.4,0,0,0,,,,,,,SWEAT,HB,old,y,./images/SWEATHB.png,,,,,,,,z,0,0.863,,,,,,,,0,75,75,66,1
,,,,,,,,,,,,,,,,,199303,18,2022-01-25_21h34.59.011,lexical_decision_task_DD_L2,2021.2.3,MacIntel,58.82352941,,,,,,,,,,,1.363,0,,,,,,,,,,,,,,,,,,,,,,,,0,-0.4,0,0,0,,,,,,,SMOKER,C,old,y,./images/SMOKER.png,,,,,,,,z,0,1.363,,,,,,,,0,76,76,26,1
,,,,,,,,,,,,,,,,,199303,18,2022-01-25_21h34.59.011,lexical_decision_task_DD_L2,2021.2.3,MacIntel,58.82352941,,,,,,,,,,,0.758,0,,,,,,,,,,,,,,,,,,,,,,,,0,-0.4,0,0,0,,,,,,,BELLY,LB,old,y,./images/BELLYLB.png,,,,,,,,z,0,0.758,,,,,,,,0,77,77,10,1
,,,,,,,,,,,,,,,,,199303,18,2022-01-25_21h34.59.011,lexical_decision_task_DD_L2,2021.2.3,MacIntel,58.82352941,,,,,,,,,,,1.073,0,,,,,,,,,,,,,,,,,,,,,,,,0,-0.4,0,0,0,,,,,,,DRILL,HB,new,y,./images/DRILLHB.png,,,,,,,,z,0,1.073,,,,,,,,0,78,78,165,1
,,,,,,,,,,,,,,,,,199303,18,2022-01-25_21h34.59.011,lexical_decision_task_DD_L2,2021.2.3,MacIntel,58.82352941,,,,,,,,,,,0.861,0,,,,,,,,,,,,,,,,,,,,,,,,0,-0.4,0,0,0,,,,,,,TORCH,C,old,y,./images/TORCH.png,,,,,,,,z,0,0.861,,,,,,,,0,79,79,68,1
,,,,,,,,,,,,,,,,,199303,18,2022-01-25_21h34.59.011,lexical_decision_task_DD_L2,2021.2.3,MacIntel,58.82352941,,,,,,,,,,,0.911,0,,,,,,,,,,,,,,,,,,,,,,,,0,-0.4,0,0,0,,,,,,,PISTOL,C,new,y,./images/PISTOL.png,,,,,,,,z,0,0.911,,,,,,,,0,80,80,113,1
,,,,,,,,,,,,,,,,,199303,18,2022-01-25_21h34.59.011,lexical_decision_task_DD_L2,2021.2.3,MacIntel,58.82352941,,,,,,,,,,,0.745,0,,,,,,,,,,,,,,,,,,,,,,,,0,-0.4,0,0,0,,,,,,,TOWEL,LB,new,y,./images/TOWELLB.png,,,,,,,,z,0,0.745,,,,,,,,0,81,81,85,1
,,,,,,,,,,,,,,,,,199303,18,2022-01-25_21h34.59.011,lexical_decision_task_DD_L2,2021.2.3,MacIntel,58.82352941,,,,,,,,,,,1.238,0,,,,,,,,,,,,,,,,,,,,,,,,0,-0.4,0,0,0,,,,,,,THROAT,HB,old,y,./images/THROATHB.png,,,,,,,,m,0,1.238,,,,,,,,0,82,82,36,1
,,,,,,,,,,,,,,,,,199303,18,2022-01-25_21h34.59.011,lexical_decision_task_DD_L2,2021.2.3,MacIntel,58.82352941,,,,,,,,,,,1.039,0,,,,,,,,,,,,,,,,,,,,,,,,0,-0.4,0,0,0,space,,,,,,CRATER,HB,new,y,./images/CRATERHB.png,1.015,,,,,,,z,0,1.039,,,,,,,,0,83,83,87,1
,,,,,,,,,,,,,,,,,199303,18,2022-01-25_21h34.59.011,lexical_decision_task_DD_L2,2021.2.3,MacIntel,58.82352941,,,,,,,,,,,0.825,0,,,,,,,,,,,,,,,,,,,,,,,,0,-0.4,0,0,0,,,,,,,KIDNEY,HB,old,y,./images/KIDNEYHB.png,,,,,,,,z,0,0.825,,,,,,,,0,84,84,21,1
,,,,,,,,,,,,,,,,,199303,18,2022-01-25_21h34.59.011,lexical_decision_task_DD_L2,2021.2.3,MacIntel,58.82352941,,,,,,,,,,,0.677,0,,,,,,,,,,,,,,,,,,,,,,,,0,-0.4,0,0,0,,,,,,,STRING,C,old,y,./images/STRING.png,,,,,,,,m,0,0.677,,,,,,,,0,85,85,41,1
,,,,,,,,,,,,,,,,,199303,18,2022-01-25_21h34.59.011,lexical_decision_task_DD_L2,2021.2.3,MacIntel,58.82352941,,,,,,,,,,,0.795,0,,,,,,,,,,,,,,,,,,,,,,,,0,-0.4,0,0,0,,,,,,,FOLDER,HB,old,y,./images/FOLDERHB.png,,,,,,,,z,0,0.795,,,,,,,,0,86,86,42,1
,,,,,,,,,,,,,,,,,199303,18,2022-01-25_21h34.59.011,lexical_decision_task_DD_L2,2021.2.3,MacIntel,58.82352941,,,,,,,,,,,0.85,0,,,,,,,,,,,,,,,,,,,,,,,,0,-0.4,0,0,0,,,,,,,SPINE,C,new,y,./images/SPINE.png,,,,,,,,z,0,0.85,,,,,,,,0,87,87,149,1
,,,,,,,,,,,,,,,,,199303,18,2022-01-25_21h34.59.011,lexical_decision_task_DD_L2,2021.2.3,MacIntel,58.82352941,,,,,,,,,,,1.079,0,,,,,,,,,,,,,,,,,,,,,,,,0,-0.4,0,0,0,,,,,,,FLASK,HB,new,y,./images/FLASKHB.png,,,,,,,,z,0,1.079,,,,,,,,0,88,88,156,1
,,,,,,,,,,,,,,,,,199303,18,2022-01-25_21h34.59.011,lexical_decision_task_DD_L2,2021.2.3,MacIntel,58.82352941,,,,,,,,,,,1.477,0,,,,,,,,,,,,,,,,,,,,,,,,0,-0.4,0,0,0,,,,,,,WALNUT,HB,new,y,./images/WALNUTHB.png,,,,,,,,m,0,1.477,,,,,,,,0,89,89,84,1
,,,,,,,,,,,,,,,,,199303,18,2022-01-25_21h34.59.011,lexical_decision_task_DD_L2,2021.2.3,MacIntel,58.82352941,,,,,,,,,,,0.827,0,,,,,,,,,,,,,,,,,,,,,,,,0,-0.4,0,0,0,,,,,,,CANOE,LB,new,y,./images/CANOELB.png,,,,,,,,m,0,0.827,,,,,,,,0,90,90,142,1
,,,,,,,,,,,,,,,,,199303,18,2022-01-25_21h34.59.011,lexical_decision_task_DD_L2,2021.2.3,MacIntel,58.82352941,,,,,,,,,,,0.763,0,,,,,,,,,,,,,,,,,,,,,,,,0,-0.4,0,0,0,,,,,,,CANYON,LB,old,y,./images/CANYONLB.png,,,,,,,,m,0,0.763,,,,,,,,0,91,91,34,1
,,,,,,,,,,,,,,,,,199303,18,2022-01-25_21h34.59.011,lexical_decision_task_DD_L2,2021.2.3,MacIntel,58.82352941,,,,,,,,,,,0.709,0,,,,,,,,,,,,,,,,,,,,,,,,0,-0.4,0,0,0,,,,,,,SKIING,C,old,y,./images/SKIING.png,,,,,,,,m,0,0.709,,,,,,,,0,92,92,17,1
,,,,,,,,,,,,,,,,,199303,18,2022-01-25_21h34.59.011,lexical_decision_task_DD_L2,2021.2.3,MacIntel,58.82352941,,,,,,,,,,,0.665,0,,,,,,,,,,,,,,,,,,,,,,,,0,-0.4,0,0,0,,,,,,,SNAKE,LB,new,y,./images/SNAKELB.png,,,,,,,,z,0,0.665,,,,,,,,0,93,93,124,1
,,,,,,,,,,,,,,,,,199303,18,2022-01-25_21h34.59.011,lexical_decision_task_DD_L2,2021.2.3,MacIntel,58.82352941,,,,,,,,,,,1.329,0,,,,,,,,,,,,,,,,,,,,,,,,0,-0.4,0,0,0,,,,,,,CRADLE,C,old,y,./images/CRADLE.png,,,,,,,,m,0,1.329,,,,,,,,0,94,94,20,1
,,,,,,,,,,,,,,,,,199303,18,2022-01-25_21h34.59.011,lexical_decision_task_DD_L2,2021.2.3,MacIntel,58.82352941,,,,,,,,,,,0.695,0,,,,,,,,,,,,,,,,,,,,,,,,0,-0.4,0,0,0,,,,,,,BONNET,C,old,y,./images/BONNET.png,,,,,,,,m,0,0.695,,,,,,,,0,95,95,11,1
,,,,,,,,,,,,,,,,,199303,18,2022-01-25_21h34.59.011,lexical_decision_task_DD_L2,2021.2.3,MacIntel,58.82352941,,,,,,,,,,,0.837,0,,,,,,,,,,,,,,,,,,,,,,,,0,-0.4,0,0,0,,,,,,,SWING,LB,old,y,./images/SWINGLB.png,,,,,,,,m,0,0.837,,,,,,,,0,96,96,40,1
,,,,,,,,,,,,,,,,,199303,18,2022-01-25_21h34.59.011,lexical_decision_task_DD_L2,2021.2.3,MacIntel,58.82352941,,,,,,,,,,,0.848,0,,,,,,,,,,,,,,,,,,,,,,,,0,-0.4,0,0,0,,,,,,,LITTER,HB,old,y,./images/LITTERHB.png,,,,,,,,m,0,0.848,,,,,,,,0,97,97,78,1
,,,,,,,,,,,,,,,,,199303,18,2022-01-25_21h34.59.011,lexical_decision_task_DD_L2,2021.2.3,MacIntel,58.82352941,,,,,,,,,,,0.747,0,,,,,,,,,,,,,,,,,,,,,,,,0,-0.4,0,0,0,,,,,,,SAUCE,HB,new,y,./images/SAUCEHB.png,,,,,,,,z,0,0.747,,,,,,,,0,98,98,135,1
,,,,,,,,,,,,,,,,,199303,18,2022-01-25_21h34.59.011,lexical_decision_task_DD_L2,2021.2.3,MacIntel,58.82352941,,,,,,,,,,,0.744,0,,,,,,,,,,,,,,,,,,,,,,,,0,-0.4,0,0,0,,,,,,,BUBBLE,C,new,y,./images/BUBBLE.png,,,,,,,,z,0,0.744,,,,,,,,0,99,99,155,1
,,,,,,,,,,,,,,,,,199303,18,2022-01-25_21h34.59.011,lexical_decision_task_DD_L2,2021.2.3,MacIntel,58.82352941,,,,,,,,,,,1.471,0,,,,,,,,,,,,,,,,,,,,,,,,0,-0.4,0,0,0,,,,,,,SQUARE,HB,old,y,./images/SQUAREHB.png,,,,,,,,m,0,1.471,,,,,,,,0,100,100,6,1
,,,,,,,,,,,,,,,,,199303,18,2022-01-25_21h34.59.011,lexical_decision_task_DD_L2,2021.2.3,MacIntel,58.82352941,,,,,,,,,,,0.675,0,,,,,,,,,,,,,,,,,,,,,,,,0,-0.4,0,0,0,,,,,,,BAMBOO,C,new,y,./images/BAMBOO.png,,,,,,,,m,0,0.675,,,,,,,,0,101,101,89,1
,,,,,,,,,,,,,,,,,199303,18,2022-01-25_21h34.59.011,lexical_decision_task_DD_L2,2021.2.3,MacIntel,58.82352941,,,,,,,,,,,0.738,0,,,,,,,,,,,,,,,,,,,,,,,,0,-0.4,0,0,0,,,,,,,POKER,LB,new,y,./images/POKERLB.png,,,,,,,,m,0,0.738,,,,,,,,0,102,102,151,1
,,,,,,,,,,,,,,,,,199303,18,2022-01-25_21h34.59.011,lexical_decision_task_DD_L2,2021.2.3,MacIntel,58.82352941,,,,,,,,,,,1.009,0,,,,,,,,,,,,,,,,,,,,,,,,0,-0.4,0,0,0,,,,,,,GREASE,HB,old,y,./images/GREASEHB.png,,,,,,,,z,0,1.009,,,,,,,,0,103,103,15,1
,,,,,,,,,,,,,,,,,199303,18,2022-01-25_21h34.59.011,lexical_decision_task_DD_L2,2021.2.3,MacIntel,58.82352941,,,,,,,,,,,0.777,0,,,,,,,,,,,,,,,,,,,,,,,,0,-0.4,0,0,0,,,,,,,SAUNA,HB,new,y,./images/SAUNAHB.png,,,,,,,,z,0,0.777,,,,,,,,0,104,104,117,1
,,,,,,,,,,,,,,,,,199303,18,2022-01-25_21h34.59.011,lexical_decision_task_DD_L2,2021.2.3,MacIntel,58.82352941,,,,,,,,,,,1.438,0,,,,,,,,,,,,,,,,,,,,,,,,0,-0.4,0,0,0,,,,,,,JUNGLE,C,old,y,./images/JUNGLE.png,,,,,,,,z,0,1.438,,,,,,,,0,105,105,83,1
,,,,,,,,,,,,,,,,,199303,18,2022-01-25_21h34.59.011,lexical_decision_task_DD_L2,2021.2.3,MacIntel,58.82352941,,,,,,,,,,,0.772,0,,,,,,,,,,,,,,,,,,,,,,,,0,-0.4,0,0,0,,,,,,,CARPET,C,old,y,./images/CARPET.png,,,,,,,,z,0,0.772,,,,,,,,0,106,106,53,1
,,,,,,,,,,,,,,,,,199303,18,2022-01-25_21h34.59.011,lexical_decision_task_DD_L2,2021.2.3,MacIntel,58.82352941,,,,,,,,,,,0.627,0,,,,,,,,,,,,,,,,,,,,,,,,0,-0.4,0,0,0,,,,,,,FARMER,C,old,y,./images/FARMER.png,,,,,,,,z,0,0.627,,,,,,,,0,107,107,65,1
,,,,,,,,,,,,,,,,,199303,18,2022-01-25_21h34.59.011,lexical_decision_task_DD_L2,2021.2.3,MacIntel,58.82352941,,,,,,,,,,,0.795,0,,,,,,,,,,,,,,,,,,,,,,,,0,-0.4,0,0,0,,,,,,,POSTER,C,new,y,./images/POSTER.png,,,,,,,,m,0,0.795,,,,,,,,0,108,108,137,1
,,,,,,,,,,,,,,,,,199303,18,2022-01-25_21h34.59.011,lexical_decision_task_DD_L2,2021.2.3,MacIntel,58.82352941,,,,,,,,,,,0.577,0,,,,,,,,,,,,,,,,,,,,,,,,0,-0.4,0,0,0,,,,,,,HOCKEY,C,new,y,./images/HOCKEY.png,,,,,,,,z,0,0.577,,,,,,,,0,109,109,116,1
,,,,,,,,,,,,,,,,,199303,18,2022-01-25_21h34.59.011,lexical_decision_task_DD_L2,2021.2.3,MacIntel,58.82352941,,,,,,,,,,,0.646,0,,,,,,,,,,,,,,,,,,,,,,,,0,-0.4,0,0,0,,,,,,,POODLE,HB,old,y,./images/POODLEHB.png,,,,,,,,m,0,0.646,,,,,,,,0,110,110,81,1
,,,,,,,,,,,,,,,,,199303,18,2022-01-25_21h34.59.011,lexical_decision_task_DD_L2,2021.2.3,MacIntel,58.82352941,,,,,,,,,,,0.645,0,,,,,,,,,,,,,,,,,,,,,,,,0,-0.4,0,0,0,,,,,,,MUFFIN,LB,old,y,./images/MUFFINLB.png,,,,,,,,z,0,0.645,,,,,,,,0,111,111,55,1
,,,,,,,,,,,,,,,,,199303,18,2022-01-25_21h34.59.011,lexical_decision_task_DD_L2,2021.2.3,MacIntel,58.82352941,,,,,,,,,,,0.815,0,,,,,,,,,,,,,,,,,,,,,,,,0,-0.4,0,0,0,,,,,,,WHISKY,C,new,y,./images/WHISKY.png,,,,,,,,z,0,0.815,,,,,,,,0,112,112,167,1
,,,,,,,,,,,,,,,,,199303,18,2022-01-25_21h34.59.011,lexical_decision_task_DD_L2,2021.2.3,MacIntel,58.82352941,,,,,,,,,,,0.913,0,,,,,,,,,,,,,,,,,,,,,,,,0,-0.4,0,0,0,,,,,,,FALCON,LB,old,y,./images/FALCONLB.png,,,,,,,,z,0,0.913,,,,,,,,0,113,113,28,1
,,,,,,,,,,,,,,,,,199303,18,2022-01-25_21h34.59.011,lexical_decision_task_DD_L2,2021.2.3,MacIntel,58.82352941,,,,,,,,,,,0.695,0,,,,,,,,,,,,,,,,,,,,,,,,0,-0.4,0,0,0,,,,,,,SAILOR,LB,old,y,./images/SAILORLB.png,,,,,,,,m,0,0.695,,,,,,,,0,114,114,67,1
,,,,,,,,,,,,,,,,,199303,18,2022-01-25_21h34.59.011,lexical_decision_task_DD_L2,2021.2.3,MacIntel,58.82352941,,,,,,,,,,,0.86,0,,,,,,,,,,,,,,,,,,,,,,,,0,-0.4,0,0,0,,,,,,,CURRY,HB,new,y,./images/CURRYHB.png,,,,,,,,z,0,0.86,,,,,,,,0,115,115,144,1
,,,,,,,,,,,,,,,,,199303,18,2022-01-25_21h34.59.011,lexical_decision_task_DD_L2,2021.2.3,MacIntel,58.82352941,,,,,,,,,,,0.922,0,,,,,,,,,,,,,,,,,,,,,,,,0,-0.4,0,0,0,,,,,,,BROOM,HB,new,y,./images/BROOMHB.png,,,,,,,,z,0,0.922,,,,,,,,0,116,116,162,1
,,,,,,,,,,,,,,,,,199303,18,2022-01-25_21h34.59.011,lexical_decision_task_DD_L2,2021.2.3,MacIntel,58.82352941,,,,,,,,,,,2.791,0,,,,,,,,,,,,,,,,,,,,,,,,0,-0.4,0,0,0,,,,,,,PASTA,C,old,y,./images/PASTA.png,,,,,,,,z,0,2.791,,,,,,,,0,117,117,5,1
,,,,,,,,,,,,,,,,,199303,18,2022-01-25_21h34.59.011,lexical_decision_task_DD_L2,2021.2.3,MacIntel,58.82352941,,,,,,,,,,,1.082,0,,,,,,,,,,,,,,,,,,,,,,,,0,-0.4,0,0,0,,,,,,,GRAPE,LB,new,y,./images/GRAPELB.png,,,,,,,,z,0,1.082,,,,,,,,0,118,118,100,1
,,,,,,,,,,,,,,,,,199303,18,2022-01-25_21h34.59.011,lexical_decision_task_DD_L2,2021.2.3,MacIntel,58.82352941,,,,,,,,,,,0.788,0,,,,,,,,,,,,,,,,,,,,,,,,0,-0.4,0,0,0,,,,,,,CANDLE,LB,old,y,./images/CANDLELB.png,,,,,,,,m,0,0.788,,,,,,,,0,119,119,61,1
,,,,,,,,,,,,,,,,,199303,18,2022-01-25_21h34.59.011,lexical_decision_task_DD_L2,2021.2.3,MacIntel,58.82352941,,,,,,,,,,,1.039,0,,,,,,,,,,,,,,,,,,,,,,,,0,-0.4,0,0,0,,,,,,,RAZOR,LB,new,y,./images/RAZORLB.png,,,,,,,,z,0,1.039,,,,,,,,0,120,120,118,1
,,,,,,,,,,,,,,,,,199303,18,2022-01-25_21h34.59.011,lexical_decision_task_DD_L2,2021.2.3,MacIntel,58.82352941,,,,,,,,,,,0.694,0,,,,,,,,,,,,,,,,,,,,,,,,0,-0.4,0,0,0,,,,,,,PACKET,C,old,y,./images/PACKET.png,,,,,,,,m,0,0.694,,,,,,,,0,121,121,56,1
,,,,,,,,,,,,,,,,,199303,18,2022-01-25_21h34.59.011,lexical_decision_task_DD_L2,2021.2.3,MacIntel,58.82352941,,,,,,,,,,,0.73,0,,,,,,,,,,,,,,,,,,,,,,,,0,-0.4,0,0,0,,,,,,,PEBBLE,LB,new,y,./images/PEBBLELB.png,,,,,,,,z,0,0.73,,,,,,,,0,122,122,166,1
,,,,,,,,,,,,,,,,,199303,18,2022-01-25_21h34.59.011,lexical_decision_task_DD_L2,2021.2.3,MacIntel,58.82352941,,,,,,,,,,,1.84,0,,,,,,,,,,,,,,,,,,,,,,,,0,-0.4,0,0,0,,,,,,,JUMPER,C,new,y,./images/JUMPER.png,,,,,,,,m,0,1.84,,,,,,,,0,123,123,158,1
,,,,,,,,,,,,,,,,,199303,18,2022-01-25_21h34.59.011,lexical_decision_task_DD_L2,2021.2.3,MacIntel,58.82352941,,,,,,,,,,,0.842,0,,,,,,,,,,,,,,,,,,,,,,,,0,-0.4,0,0,0,,,,,,,DESERT,LB,new,y,./images/DESERTLB.png,,,,,,,,z,0,0.842,,,,,,,,0,124,124,136,1
,,,,,,,,,,,,,,,,,199303,18,2022-01-25_21h34.59.011,lexical_decision_task_DD_L2,2021.2.3,MacIntel,58.82352941,,,,,,,,,,,0.694,0,,,,,,,,,,,,,,,,,,,,,,,,0,-0.4,0,0,0,space,,,,,,BARREL,C,old,y,./images/BARREL.png,2.375,,,,,,,m,0,0.694,,,,,,,,0,125,125,32,1
,,,,,,,,,,,,,,,,,199303,18,2022-01-25_21h34.59.011,lexical_decision_task_DD_L2,2021.2.3,MacIntel,58.82352941,,,,,,,,,,,0.865,0,,,,,,,,,,,,,,,,,,,,,,,,0,-0.4,0,0,0,,,,,,,TRIPOD,HB,old,y,./images/TRIPODHB.png,,,,,,,,m,0,0.865,,,,,,,,0,126,126,54,1
,,,,,,,,,,,,,,,,,199303,18,2022-01-25_21h34.59.011,lexical_decision_task_DD_L2,2021.2.3,MacIntel,58.82352941,,,,,,,,,,,0.826,0,,,,,,,,,,,,,,,,,,,,,,,,0,-0.4,0,0,0,,,,,,,GRANNY,C,new,y,./images/GRANNY.png,,,,,,,,m,0,0.826,,,,,,,,0,127,127,104,1
,,,,,,,,,,,,,,,,,199303,18,2022-01-25_21h34.59.011,lexical_decision_task_DD_L2,2021.2.3,MacIntel,58.82352941,,,,,,,,,,,0.894,0,,,,,,,,,,,,,,,,,,,,,,,,0,-0.4,0,0,0,,,,,,,MOSQUE,LB,old,y,./images/MOSQUELB.png,,,,,,,,m,0,0.894,,,,,,,,0,128,128,43,1
,,,,,,,,,,,,,,,,,199303,18,2022-01-25_21h34.59.011,lexical_decision_task_DD_L2,2021.2.3,MacIntel,58.82352941,,,,,,,,,,,1.428,0,,,,,,,,,,,,,,,,,,,,,,,,0,-0.4,0,0,0,,,,,,,CANDY,HB,new,y,./images/CANDYHB.png,,,,,,,,m,0,1.428,,,,,,,,0,129,129,123,1
,,,,,,,,,,,,,,,,,199303,18,2022-01-25_21h34.59.011,lexical_decision_task_DD_L2,2021.2.3,MacIntel,58.82352941,,,,,,,,,,,0.805,0,,,,,,,,,,,,,,,,,,,,,,,,0,-0.4,0,0,0,,,,,,,SHORE,HB,old,y,./images/SHOREHB.png,,,,,,,,m,0,0.805,,,,,,,,0,130,130,12,1
,,,,,,,,,,,,,,,,,199303,18,2022-01-25_21h34.59.011,lexical_decision_task_DD_L2,2021.2.3,MacIntel,58.82352941,,,,,,,,,,,1.761,0,,,,,,,,,,,,,,,,,,,,,,,,0,-0.4,0,0,0,,,,,,,GRAIN,HB,old,y,./images/GRAINHB.png,,,,,,,,m,0,1.761,,,,,,,,0,131,131,75,1
,,,,,,,,,,,,,,,,,199303,18,2022-01-25_21h34.59.011,lexical_decision_task_DD_L2,2021.2.3,MacIntel,58.82352941,,,,,,,,,,,1.342,0,,,,,,,,,,,,,,,,,,,,,,,,0,-0.4,0,0,0,,,,,,,BABOON,LB,old,y,./images/BABOONLB.png,,,,,,,,m,0,1.342,,,,,,,,0,132,132,58,1
,,,,,,,,,,,,,,,,,199303,18,2022-01-25_21h34.59.011,lexical_decision_task_DD_L2,2021.2.3,MacIntel,58.82352941,,,,,,,,,,,0.682,0,,,,,,,,,,,,,,,,,,,,,,,,0,-0.4,0,0,0,,,,,,,STOVE,C,new,y,./images/STOVE.png,,,,,,,,z,0,0.682,,,,,,,,0,133,133,86,1
,,,,,,,,,,,,,,,,,199303,18,2022-01-25_21h34.59.011,lexical_decision_task_DD_L2,2021.2.3,MacIntel,58.82352941,,,,,,,,,,,1.382,0,,,,,,,,,,,,,,,,,,,,,,,,0,-0.4,0,0,0,,,,,,,MONKEY,HB,new,y,./images/MONKEYHB.png,,,,,,,,z,0,1.382,,,,,,,,0,134,134,129,1
,,,,,,,,,,,,,,,,,199303,18,2022-01-25_21h34.59.011,lexical_decision_task_DD_L2,2021.2.3,MacIntel,58.82352941,,,,,,,,,,,0.706,0,,,,,,,,,,,,,,,,,,,,,,,,0,-0.4,0,0,0,,,,,,,KITTEN,HB,old,y,./images/KITTENHB.png,,,,,,,,z,0,0.706,,,,,,,,0,135,135,45,1
,,,,,,,,,,,,,,,,,199303,18,2022-01-25_21h34.59.011,lexical_decision_task_DD_L2,2021.2.3,MacIntel,58.82352941,,,,,,,,,,,0.65,0,,,,,,,,,,,,,,,,,,,,,,,,0,-0.4,0,0,0,,,,,,,BERRY,C,old,y,./images/BERRY.png,,,,,,,,z,0,0.65,,,,,,,,0,136,136,47,1
,,,,,,,,,,,,,,,,,199303,18,2022-01-25_21h34.59.011,lexical_decision_task_DD_L2,2021.2.3,MacIntel,58.82352941,,,,,,,,,,,0.693,0,,,,,,,,,,,,,,,,,,,,,,,,0,-0.4,0,0,0,,,,,,,ARROW,HB,new,y,./images/ARROWHB.png,,,,,,,,z,0,0.693,,,,,,,,0,137,137,153,1
,,,,,,,,,,,,,,,,,199303,18,2022-01-25_21h34.59.011,lexical_decision_task_DD_L2,2021.2.3,MacIntel,58.82352941,,,,,,,,,,,0.893,0,,,,,,,,,,,,,,,,,,,,,,,,0,-0.4,0,0,0,,,,,,,FERRY,HB,new,y,./images/FERRYHB.png,,,,,,,,m,0,0.893,,,,,,,,0,138,138,141,1
,,,,,,,,,,,,,,,,,199303,18,2022-01-25_21h34.59.011,lexical_decision_task_DD_L2,2021.2.3,MacIntel,58.82352941,,,,,,,,,,,1.16,0,,,,,,,,,,,,,,,,,,,,,,,,0,-0.4,0,0,0,,,,,,,SHELF,HB,old,y,./images/SHELFHB.png,,,,,,,,m,0,1.16,,,,,,,,0,139,139,39,1
,,,,,,,,,,,,,,,,,199303,18,2022-01-25_21h34.59.011,lexical_decision_task_DD_L2,2021.2.3,MacIntel,58.82352941,,,,,,,,,,,0.789,0,,,,,,,,,,,,,,,,,,,,,,,,0,-0.4,0,0,0,,,,,,,JAGUAR,HB,old,y,./images/JAGUARHB.png,,,,,,,,m,0,0.789,,,,,,,,0,140,140,18,1
,,,,,,,,,,,,,,,,,199303,18,2022-01-25_21h34.59.011,lexical_decision_task_DD_L2,2021.2.3,MacIntel,58.82352941,,,,,,,,,,,0.755,0,,,,,,,,,,,,,,,,,,,,,,,,0,-0.4,0,0,0,,,,,,,MEDAL,C,new,y,./images/MEDAL.png,,,,,,,,z,0,0.755,,,,,,,,0,141,141,95,1
,,,,,,,,,,,,,,,,,199303,18,2022-01-25_21h34.59.011,lexical_decision_task_DD_L2,2021.2.3,MacIntel,58.82352941,,,,,,,,,,,0.715,0,,,,,,,,,,,,,,,,,,,,,,,,0,-0.4,0,0,0,,,,,,,GLOVE,LB,new,y,./images/GLOVELB.png,,,,,,,,z,0,0.715,,,,,,,,0,142,142,157,1
,,,,,,,,,,,,,,,,,199303,18,2022-01-25_21h34.59.011,lexical_decision_task_DD_L2,2021.2.3,MacIntel,58.82352941,,,,,,,,,,,0.715,0,,,,,,,,,,,,,,,,,,,,,,,,0,-0.4,0,0,0,,,,,,,PIMPLE,C,old,y,./images/PIMPLE.png,,,,,,,,z,0,0.715,,,,,,,,0,143,143,71,1
,,,,,,,,,,,,,,,,,199303,18,2022-01-25_21h34.59.011,lexical_decision_task_DD_L2,2021.2.3,MacIntel,58.82352941,,,,,,,,,,,1.811,0,,,,,,,,,,,,,,,,,,,,,,,,0,-0.4,0,0,0,,,,,,,SHIELD,HB,new,y,./images/SHIELDHB.png,,,,,,,,m,0,1.811,,,,,,,,0,144,144,132,1
,,,,,,,,,,,,,,,,,199303,18,2022-01-25_21h34.59.011,lexical_decision_task_DD_L2,2021.2.3,MacIntel,58.82352941,,,,,,,,,,,0.846,0,,,,,,,,,,,,,,,,,,,,,,,,0,-0.4,0,0,0,,,,,,,LADDER,C,old,y,./images/LADDER.png,,,,,,,,m,0,0.846,,,,,,,,0,145,145,38,1
,,,,,,,,,,,,,,,,,199303,18,2022-01-25_21h34.59.011,lexical_decision_task_DD_L2,2021.2.3,MacIntel,58.82352941,,,,,,,,,,,0.895,0,,,,,,,,,,,,,,,,,,,,,,,,0,-0.4,0,0,0,,,,,,,STAIN,HB,new,y,./images/STAINHB.png,,,,,,,,m,0,0.895,,,,,,,,0,146,146,90,1
,,,,,,,,,,,,,,,,,199303,18,2022-01-25_21h34.59.011,lexical_decision_task_DD_L2,2021.2.3,MacIntel,58.82352941,,,,,,,,,,,0.996,0,,,,,,,,,,,,,,,,,,,,,,,,0,-0.4,0,0,0,,,,,,,CLOTH,C,new,y,./images/CLOTH.png,,,,,,,,z,0,0.996,,,,,,,,0,147,147,107,1
,,,,,,,,,,,,,,,,,199303,18,2022-01-25_21h34.59.011,lexical_decision_task_DD_L2,2021.2.3,MacIntel,58.82352941,,,,,,,,,,,0.895,0,,,,,,,,,,,,,,,,,,,,,,,,0,-0.4,0,0,0,,,,,,,BOILER,HB,new,y,./images/BOILERHB.png,,,,,,,,z,0,0.895,,,,,,,,0,148,148,120,1
,,,,,,,,,,,,,,,,,199303,18,2022-01-25_21h34.59.011,lexical_decision_task_DD_L2,2021.2.3,MacIntel,58.82352941,,,,,,,,,,,0.609,0,,,,,,,,,,,,,,,,,,,,,,,,0,-0.4,0,0,0,,,,,,,DRUMS,LB,old,y,./images/DRUMSLB.png,,,,,,,,z,0,0.609,,,,,,,,0,149,149,49,1
,,,,,,,,,,,,,,,,,199303,18,2022-01-25_21h34.59.011,lexical_decision_task_DD_L2,2021.2.3,MacIntel,58.82352941,,,,,,,,,,,0.746,0,,,,,,,,,,,,,,,,,,,,,,,,0,-0.4,0,0,0,,,,,,,CHAIN,HB,new,y,./images/CHAINHB.png,,,,,,,,z,0,0.746,,,,,,,,0,150,150,126,1
,,,,,,,,,,,,,,,,,199303,18,2022-01-25_21h34.59.011,lexical_decision_task_DD_L2,2021.2.3,MacIntel,58.82352941,,,,,,,,,,,0.965,0,,,,,,,,,,,,,,,,,,,,,,,,0,-0.4,0,0,0,,,,,,,WHEEL,C,new,y,./images/WHEEL.png,,,,,,,,m,0,0.965,,,,,,,,0,151,151,161,1
,,,,,,,,,,,,,,,,,199303,18,2022-01-25_21h34.59.011,lexical_decision_task_DD_L2,2021.2.3,MacIntel,58.82352941,,,,,,,,,,,0.668,0,,,,,,,,,,,,,,,,,,,,,,,,0,-0.4,0,0,0,,,,,,,BLOKE,HB,new,y,./images/BLOKEHB.png,,,,,,,,z,0,0.668,,,,,,,,0,152,152,96,1
,,,,,,,,,,,,,,,,,199303,18,2022-01-25_21h34.59.011,lexical_decision_task_DD_L2,2021.2.3,MacIntel,58.82352941,,,,,,,,,,,0.761,0,,,,,,,,,,,,,,,,,,,,,,,,0,-0.4,0,0,0,,,,,,,PEARL,LB,old,y,./images/PEARLLB.png,,,,,,,,m,0,0.761,,,,,,,,0,153,153,46,1
,,,,,,,,,,,,,,,,,199303,18,2022-01-25_21h34.59.011,lexical_decision_task_DD_L2,2021.2.3,MacIntel,58.82352941,,,,,,,,,,,0.877,0,,,,,,,,,,,,,,,,,,,,,,,,0,-0.4,0,0,0,,,,,,,CHERRY,HB,new,y,./images/CHERRYHB.png,,,,,,,,m,0,0.877,,,,,,,,0,154,154,138,1
,,,,,,,,,,,,,,,,,199303,18,2022-01-25_21h34.59.011,lexical_decision_task_DD_L2,2021.2.3,MacIntel,58.82352941,,,,,,,,,,,0.971,0,,,,,,,,,,,,,,,,,,,,,,,,0,-0.4,0,0,0,,,,,,,ONION,HB,old,y,./images/ONIONHB.png,,,,,,,,m,0,0.971,,,,,,,,0,155,155,51,1
,,,,,,,,,,,,,,,,,199303,18,2022-01-25_21h34.59.011,lexical_decision_task_DD_L2,2021.2.3,MacIntel,58.82352941,,,,,,,,,,,0.622,0,,,,,,,,,,,,,,,,,,,,,,,,0,-0.4,0,0,0,,,,,,,BANANA,LB,new,y,./images/BANANALB.png,,,,,,,,z,0,0.622,,,,,,,,0,156,156,154,1
,,,,,,,,,,,,,,,,,199303,18,2022-01-25_21h34.59.011,lexical_decision_task_DD_L2,2021.2.3,MacIntel,58.82352941,,,,,,,,,,,0.676,0,,,,,,,,,,,,,,,,,,,,,,,,0,-0.4,0,0,0,,,,,,,URINE,LB,old,y,./images/URINELB.png,,,,,,,,z,0,0.676,,,,,,,,0,157,157,70,1
,,,,,,,,,,,,,,,,,199303,18,2022-01-25_21h34.59.011,lexical_decision_task_DD_L2,2021.2.3,MacIntel,58.82352941,,,,,,,,,,,0.708,0,,,,,,,,,,,,,,,,,,,,,,,,0,-0.4,0,0,0,,,,,,,COOKER,HB,old,y,./images/COOKERHB.png,,,,,,,,m,0,0.708,,,,,,,,0,158,158,69,1
,,,,,,,,,,,,,,,,,199303,18,2022-01-25_21h34.59.011,lexical_decision_task_DD_L2,2021.2.3,MacIntel,58.82352941,,,,,,,,,,,0.78,0,,,,,,,,,,,,,,,,,,,,,,,,0,-0.4,0,0,0,,,,,,,WEASEL,C,old,y,./images/WEASEL.png,,,,,,,,m,0,0.78,,,,,,,,0,159,159,80,1
,,,,,,,,,,,,,,,,,199303,18,2022-01-25_21h34.59.011,lexical_decision_task_DD_L2,2021.2.3,MacIntel,58.82352941,,,,,,,,,,,0.66,0,,,,,,,,,,,,,,,,,,,,,,,,0,-0.4,0,0,0,,,,,,,BISHOP,LB,new,y,./images/BISHOPLB.png,,,,,,,,z,0,0.66,,,,,,,,0,160,160,133,1
,,,,,,,,,,,,,,,,,199303,18,2022-01-25_21h34.59.011,lexical_decision_task_DD_L2,2021.2.3,MacIntel,58.82352941,,,,,,,,,,,0.611,0,,,,,,,,,,,,,,,,,,,,,,,,0,-0.4,0,0,0,,,,,,,STOOL,LB,new,y,./images/STOOLLB.png,,,,,,,,m,0,0.611,,,,,,,,0,161,161,127,1
,,,,,,,,,,,,,,,,,199303,18,2022-01-25_21h34.59.011,lexical_decision_task_DD_L2,2021.2.3,MacIntel,58.82352941,,,,,,,,,,,0.642,0,,,,,,,,,,,,,,,,,,,,,,,,0,-0.4,0,0,0,,,,,,,STREAM,C,new,y,./images/STREAM.png,,,,,,,,z,0,0.642,,,,,,,,0,162,162,125,1
,,,,,,,,,,,,,,,,,199303,18,2022-01-25_21h34.59.011,lexical_decision_task_DD_L2,2021.2.3,MacIntel,58.82352941,,,,,,,,,,,0.763,0,,,,,,,,,,,,,,,,,,,,,,,,0,-0.4,0,0,0,,,,,,,DANCER,HB,new,y,./images/DANCERHB.png,,,,,,,,z,0,0.763,,,,,,,,0,163,163,105,1
,,,,,,,,,,,,,,,,,199303,18,2022-01-25_21h34.59.011,lexical_decision_task_DD_L2,2021.2.3,MacIntel,58.82352941,,,,,,,,,,,0.744,0,,,,,,,,,,,,,,,,,,,,,,,,0,-0.4,0,0,0,,,,,,,FENCE,C,new,y,./images/FENCE.png,,,,,,,,m,0,0.744,,,,,,,,0,164,164,98,1
,,,,,,,,,,,,,,,,,199303,18,2022-01-25_21h34.59.011,lexical_decision_task_DD_L2,2021.2.3,MacIntel,58.82352941,,,,,,,,,,,0.791,0,,,,,,,,,,,,,,,,,,,,,,,,0,-0.4,0,0,0,,,,,,,LAGOON,C,new,y,./images/LAGOON.png,,,,,,,,z,0,0.791,,,,,,,,0,165,165,131,1
,,,,,,,,,,,,,,,,,199303,18,2022-01-25_21h34.59.011,lexical_decision_task_DD_L2,2021.2.3,MacIntel,58.82352941,,,,,,,,,,,0.759,0,,,,,,,,,,,,,,,,,,,,,,,,0,-0.4,0,0,0,,,,,,,DONKEY,LB,new,y,./images/DONKEYLB.png,,,,,,,,z,0,0.759,,,,,,,,0,166,166,103,1
,,,,,,,,,,,,,,,,,199303,18,2022-01-25_21h34.59.011,lexical_decision_task_DD_L2,2021.2.3,MacIntel,58.82352941,,,,,,,,,,,2.659,0,,,,,,,,,,,,,,,,,,,,,,,,0,-0.4,0,0,0,,,,,,,MIRROR,HB,old,y,./images/MIRRORHB.png,,,,,,,,m,0,2.659,,,,,,,,0,167,167,63,1
