key_resp.keys,instr_done_touch.x,instr_done_touch.y,instr_done_touch.leftButton,instr_done_touch.midButton,instr_done_touch.rightButton,instr_done_touch.clicked_name,instruction_pages.thisRepN,instruction_pages.thisTrialN,instruction_pages.thisN,instruction_pages.thisIndex,instruction_pages.ran,pageN,phase,instruct_text,has_image,instruct_image,participant,age,date,expName,psychopyVersion,OS,frameRate,key_resp.rt,response.keys,response.corr,response.rt,touch_resp.x,touch_resp.y,touch_resp.leftButton,touch_resp.midButton,touch_resp.rightButton,touch_resp.time,touch_resp.clicked_name,rt,corr,practrials.thisRepN,practrials.thisTrialN,practrials.thisN,practrials.thisIndex,practrials.ran,TrialID,Target,corrAns,end_of_practice_trials_pages.thisRepN,end_of_practice_trials_pages.thisTrialN,end_of_practice_trials_pages.thisN,end_of_practice_trials_pages.thisIndex,end_of_practice_trials_pages.ran,key_resp_2.keys,key_resp_2.corr,key_resp_2.rt,targ_click.x,targ_click.y,targ_click.leftButton,targ_click.midButton,targ_click.rightButton,targ_click.time,targ_click.clicked_name,break_done_touch.x,break_done_touch.y,break_done_touch.leftButton,break_done_touch.midButton,break_done_touch.rightButton,break_done_keyboard.keys,maintrials.thisRepN,maintrials.thisTrialN,maintrials.thisN,maintrials.thisIndex,maintrials.ran,string,blur,study,lex,stim_path,break_done_keyboard.rt,test_instructions.thisRepN,test_instructions.thisTrialN,test_instructions.thisN,test_instructions.thisIndex,test_instructions.ran,key_resp_3.keys,key_resp_3.corr,key_resp_3.rt,test_click.x,test_click.y,test_click.leftButton,test_click.midButton,test_click.rightButton,test_click.time,test_click.clicked_name,test_phase.thisRepN,test_phase.thisTrialN,test_phase.thisN,test_phase.thisIndex,test_phase.ran,break_done_touch.clicked_name
,0.020690104,-0.398980035,1,0,0,instr_done_button,0,0,0,0,1,1,instructions,"INSTRUCTIONS
At the start of each trial, look at the plus sign  (+) in the center of the screen.  This tells you that a trial is about to begin and where to look. Second, the plus sign will disappear and a string of letters will appear. Your task is to determine if the string of letters is a word or not. If the item is a word press the M key (on keyboard)  or touch the word button (phone/tablet).  If the item is not a word,  press the  Z key (on keyboard)  or touch the nonword button (on phone/tablet). 
Press the space bar or touch  continue.",0,,199390,19,2022-01-28_14h13.02.748,lexical_decision_task_DD_L3,2021.2.3,MacIntel,30.00120005,,,,,,,,,,,,,,,,,,,,,,,,,,,,,,,,,,,,,,,,,,,,,,,,,,,,,,,,,,,,,,,,,,,,,,,,,,
,-0.015737847,-0.425828993,1,0,0,instr_done_button,0,1,1,1,1,2,instructions,"If your device has a keyboard, press the 'Z' key for nonwords and the 'M' key for words.





Press the space bar or touch the button below to continue.",0,keyboard-example.gif,199390,19,2022-01-28_14h13.02.748,lexical_decision_task_DD_L3,2021.2.3,MacIntel,30.00120005,,,,,,,,,,,,,,,,,,,,,,,,,,,,,,,,,,,,,,,,,,,,,,,,,,,,,,,,,,,,,,,,,,,,,,,,,,
space,-0.015737847,-0.425828993,0,0,0,,0,2,2,2,1,3,instructions,"If you are using a touchscreen only device, use the buttons on the screen. Do not use the mouse.





Press the space bar or touch the button below to continue.",0,touchscreen-example.gif,199390,19,2022-01-28_14h13.02.748,lexical_decision_task_DD_L3,2021.2.3,MacIntel,30.00120005,1.5244,,,,,,,,,,,,,,,,,,,,,,,,,,,,,,,,,,,,,,,,,,,,,,,,,,,,,,,,,,,,,,,,,,,,,,,,,
space,-0.015737847,-0.425828993,0,0,0,,0,3,3,3,1,4,instructions,"It is very important that you respond as quickly and accurately as possible, as each letter string will only be on the screen for two seconds. If you do not respond within this time, the message 'Too slow!' will be displayed and the experiment will progress to the next letter string. The first 20 trials will be practice trials and you will receive feedback on your answers. 

Press the space bar or touch the button below to start the practice trials.",0,,199390,19,2022-01-28_14h13.02.748,lexical_decision_task_DD_L3,2021.2.3,MacIntel,30.00120005,3.8362,,,,,,,,,,,,,,,,,,,,,,,,,,,,,,,,,,,,,,,,,,,,,,,,,,,,,,,,,,,,,,,,,,,,,,,,,
,,,,,,,,,,,,,,,,,199390,19,2022-01-28_14h13.02.748,lexical_decision_task_DD_L3,2021.2.3,MacIntel,30.00120005,,z,0,0.7392,,,,,,,,0.7392,0,0,0,0,7,1,1001,VOLUME,m,,,,,,,,,,,,,,,,,,,,,,,,,,,,,,,,,,,,,,,,,,,,,,,,,,,,,
,,,,,,,,,,,,,,,,,199390,19,2022-01-28_14h13.02.748,lexical_decision_task_DD_L3,2021.2.3,MacIntel,30.00120005,,m,1,0.7366,,,,,,,,0.7366,1,0,1,1,1,1,1001,ADJUST,m,,,,,,,,,,,,,,,,,,,,,,,,,,,,,,,,,,,,,,,,,,,,,,,,,,,,,
,,,,,,,,,,,,,,,,,199390,19,2022-01-28_14h13.02.748,lexical_decision_task_DD_L3,2021.2.3,MacIntel,30.00120005,,z,1,0.5966,,,,,,,,0.5966,1,0,2,2,14,1,1001,THRALE,z,,,,,,,,,,,,,,,,,,,,,,,,,,,,,,,,,,,,,,,,,,,,,,,,,,,,,
,,,,,,,,,,,,,,,,,199390,19,2022-01-28_14h13.02.748,lexical_decision_task_DD_L3,2021.2.3,MacIntel,30.00120005,,m,1,0.612,,,,,,,,0.612,1,0,3,3,6,1,1001,ZOMBIE,m,,,,,,,,,,,,,,,,,,,,,,,,,,,,,,,,,,,,,,,,,,,,,,,,,,,,,
,,,,,,,,,,,,,,,,,199390,19,2022-01-28_14h13.02.748,lexical_decision_task_DD_L3,2021.2.3,MacIntel,30.00120005,,m,1,0.6618,,,,,,,,0.6618,1,0,4,4,5,1,1001,OBTAIN,m,,,,,,,,,,,,,,,,,,,,,,,,,,,,,,,,,,,,,,,,,,,,,,,,,,,,,
,,,,,,,,,,,,,,,,,199390,19,2022-01-28_14h13.02.748,lexical_decision_task_DD_L3,2021.2.3,MacIntel,30.00120005,,z,1,0.8745,,,,,,,,0.8745,1,0,5,5,10,1,1001,INLADE,z,,,,,,,,,,,,,,,,,,,,,,,,,,,,,,,,,,,,,,,,,,,,,,,,,,,,,
,,,,,,,,,,,,,,,,,199390,19,2022-01-28_14h13.02.748,lexical_decision_task_DD_L3,2021.2.3,MacIntel,30.00120005,,z,1,0.6831,,,,,,,,0.6831,1,0,6,6,15,1,1001,WHAISE,z,,,,,,,,,,,,,,,,,,,,,,,,,,,,,,,,,,,,,,,,,,,,,,,,,,,,,
,,,,,,,,,,,,,,,,,199390,19,2022-01-28_14h13.02.748,lexical_decision_task_DD_L3,2021.2.3,MacIntel,30.00120005,,m,1,0.672,,,,,,,,0.672,1,0,7,7,0,1,1001,UTOPIA,m,,,,,,,,,,,,,,,,,,,,,,,,,,,,,,,,,,,,,,,,,,,,,,,,,,,,,
,,,,,,,,,,,,,,,,,199390,19,2022-01-28_14h13.02.748,lexical_decision_task_DD_L3,2021.2.3,MacIntel,30.00120005,,z,1,0.7076,,,,,,,,0.7076,1,0,8,8,13,1,1001,ROUPET,z,,,,,,,,,,,,,,,,,,,,,,,,,,,,,,,,,,,,,,,,,,,,,,,,,,,,,
,,,,,,,,,,,,,,,,,199390,19,2022-01-28_14h13.02.748,lexical_decision_task_DD_L3,2021.2.3,MacIntel,30.00120005,,z,1,0.6882,,,,,,,,0.6882,1,0,9,9,11,1,1001,RASHET,z,,,,,,,,,,,,,,,,,,,,,,,,,,,,,,,,,,,,,,,,,,,,,,,,,,,,,
,,,,,,,,,,,,,,,,,199390,19,2022-01-28_14h13.02.748,lexical_decision_task_DD_L3,2021.2.3,MacIntel,30.00120005,,z,1,0.7847,,,,,,,,0.7847,1,0,10,10,9,1,1001,FARINY,z,,,,,,,,,,,,,,,,,,,,,,,,,,,,,,,,,,,,,,,,,,,,,,,,,,,,,
,,,,,,,,,,,,,,,,,199390,19,2022-01-28_14h13.02.748,lexical_decision_task_DD_L3,2021.2.3,MacIntel,30.00120005,,z,1,0.8177,,,,,,,,0.8177,1,0,11,11,8,1,1001,ASLERT,z,,,,,,,,,,,,,,,,,,,,,,,,,,,,,,,,,,,,,,,,,,,,,,,,,,,,,
,,,,,,,,,,,,,,,,,199390,19,2022-01-28_14h13.02.748,lexical_decision_task_DD_L3,2021.2.3,MacIntel,30.00120005,,m,1,0.7528,,,,,,,,0.7528,1,0,12,12,2,1,1001,ALMOND,m,,,,,,,,,,,,,,,,,,,,,,,,,,,,,,,,,,,,,,,,,,,,,,,,,,,,,
,,,,,,,,,,,,,,,,,199390,19,2022-01-28_14h13.02.748,lexical_decision_task_DD_L3,2021.2.3,MacIntel,30.00120005,,m,1,0.6026,,,,,,,,0.6026,1,0,13,13,4,1,1001,SQUEAK,m,,,,,,,,,,,,,,,,,,,,,,,,,,,,,,,,,,,,,,,,,,,,,,,,,,,,,
,,,,,,,,,,,,,,,,,199390,19,2022-01-28_14h13.02.748,lexical_decision_task_DD_L3,2021.2.3,MacIntel,30.00120005,,m,1,0.6082,,,,,,,,0.6082,1,0,14,14,3,1,1001,MATRIX,m,,,,,,,,,,,,,,,,,,,,,,,,,,,,,,,,,,,,,,,,,,,,,,,,,,,,,
,,,,,,,,,,,,,,,,,199390,19,2022-01-28_14h13.02.748,lexical_decision_task_DD_L3,2021.2.3,MacIntel,30.00120005,,z,1,0.7586,,,,,,,,0.7586,1,0,15,15,12,1,1001,SPRINY,z,,,,,,,,,,,,,,,,,,,,,,,,,,,,,,,,,,,,,,,,,,,,,,,,,,,,,
,-0.016267361,-0.405117187,1,0,0,instr_done_button,,,,,,1,end_of_practice,"You have completed the practice trials. During the experimental trials, you will not receive feedback. 
Before you begin, please ensure that you are in a comfortable and quiet location and will not be disturbed for about 15 minutes, as we cannot use your data if you do not complete all the trials. 
 When you are ready to start the experimental trials, please press space or touch the button below.",,,199390,19,2022-01-28_14h13.02.748,lexical_decision_task_DD_L3,2021.2.3,MacIntel,30.00120005,,,,,,,,,,,,,,,,,,,,,,0,0,0,0,1,,,,,,,,,,,,,,,,,,,,,,,,,,,,,,,,,,,,,,,,,,,,,,,,
,,,,,,,,,,,,,,,,,199390,19,2022-01-28_14h13.02.748,lexical_decision_task_DD_L3,2021.2.3,MacIntel,30.00120005,,,,,,,,,,,,1.0202,1,,,,,,,,,,,,,,m,1,1.0202,,,,,,,,-0.016267361,-0.405117187,0,0,0,,0,0,0,68,1,TORCH,HB,old,m,./images/TORCHHB.png,,,,,,,,,,,,,,,,,,,,,,
,,,,,,,,,,,,,,,,,199390,19,2022-01-28_14h13.02.748,lexical_decision_task_DD_L3,2021.2.3,MacIntel,30.00120005,,,,,,,,,,,,0.7296,1,,,,,,,,,,,,,,m,1,0.7296,,,,,,,,-0.016267361,-0.405117187,0,0,0,,0,1,1,61,1,CANDLE,C,old,m,./images/CANDLE.png,,,,,,,,,,,,,,,,,,,,,,
,,,,,,,,,,,,,,,,,199390,19,2022-01-28_14h13.02.748,lexical_decision_task_DD_L3,2021.2.3,MacIntel,30.00120005,,,,,,,,,,,,0.9731,1,,,,,,,,,,,,,,z,1,0.9731,,,,,,,,-0.016267361,-0.405117187,0,0,0,,0,2,2,145,1,LAMEL,HB,old,z,./images/LAMELHB.png,,,,,,,,,,,,,,,,,,,,,,
,,,,,,,,,,,,,,,,,199390,19,2022-01-28_14h13.02.748,lexical_decision_task_DD_L3,2021.2.3,MacIntel,30.00120005,,,,,,,,,,,,0.579,1,,,,,,,,,,,,,,m,1,0.579,,,,,,,,-0.016267361,-0.405117187,0,0,0,,0,3,3,13,1,MOTOR,C,old,m,./images/MOTOR.png,,,,,,,,,,,,,,,,,,,,,,
,,,,,,,,,,,,,,,,,199390,19,2022-01-28_14h13.02.748,lexical_decision_task_DD_L3,2021.2.3,MacIntel,30.00120005,,,,,,,,,,,,0.8551,0,,,,,,,,,,,,,,z,0,0.8551,,,,,,,,-0.016267361,-0.405117187,0,0,0,,0,4,4,10,1,BELLY,C,old,m,./images/BELLY.png,,,,,,,,,,,,,,,,,,,,,,
,,,,,,,,,,,,,,,,,199390,19,2022-01-28_14h13.02.748,lexical_decision_task_DD_L3,2021.2.3,MacIntel,30.00120005,,,,,,,,,,,,0.7299,1,,,,,,,,,,,,,,m,1,0.7299,,,,,,,,-0.016267361,-0.405117187,0,0,0,,0,5,5,48,1,SPORT,LB,old,m,./images/SPORTLB.png,,,,,,,,,,,,,,,,,,,,,,
,,,,,,,,,,,,,,,,,199390,19,2022-01-28_14h13.02.748,lexical_decision_task_DD_L3,2021.2.3,MacIntel,30.00120005,,,,,,,,,,,,0.8206,1,,,,,,,,,,,,,,z,1,0.8206,,,,,,,,-0.016267361,-0.405117187,0,0,0,,0,6,6,131,1,NACES,LB,old,z,./images/NACESLB.png,,,,,,,,,,,,,,,,,,,,,,
,,,,,,,,,,,,,,,,,199390,19,2022-01-28_14h13.02.748,lexical_decision_task_DD_L3,2021.2.3,MacIntel,30.00120005,,,,,,,,,,,,0.7482,1,,,,,,,,,,,,,,z,1,0.7482,,,,,,,,-0.016267361,-0.405117187,0,0,0,,0,7,7,134,1,TROSS,LB,old,z,./images/TROSSLB.png,,,,,,,,,,,,,,,,,,,,,,
,,,,,,,,,,,,,,,,,199390,19,2022-01-28_14h13.02.748,lexical_decision_task_DD_L3,2021.2.3,MacIntel,30.00120005,,,,,,,,,,,,1.4031,1,,,,,,,,,,,,,,m,1,1.4031,,,,,,,,-0.016267361,-0.405117187,0,0,0,,0,8,8,23,1,WALRUS,HB,old,m,./images/WALRUSHB.png,,,,,,,,,,,,,,,,,,,,,,
,,,,,,,,,,,,,,,,,199390,19,2022-01-28_14h13.02.748,lexical_decision_task_DD_L3,2021.2.3,MacIntel,30.00120005,,,,,,,,,,,,0.7488,1,,,,,,,,,,,,,,z,1,0.7488,,,,,,,,-0.016267361,-0.405117187,0,0,0,,0,9,9,89,1,DRIEK,LB,old,z,./images/DRIEKLB.png,,,,,,,,,,,,,,,,,,,,,,
,,,,,,,,,,,,,,,,,199390,19,2022-01-28_14h13.02.748,lexical_decision_task_DD_L3,2021.2.3,MacIntel,30.00120005,,,,,,,,,,,,0.8159,1,,,,,,,,,,,,,,m,1,0.8159,,,,,,,,-0.016267361,-0.405117187,0,0,0,,0,10,10,2,1,BEARD,HB,old,m,./images/BEARDHB.png,,,,,,,,,,,,,,,,,,,,,,
,,,,,,,,,,,,,,,,,199390,19,2022-01-28_14h13.02.748,lexical_decision_task_DD_L3,2021.2.3,MacIntel,30.00120005,,,,,,,,,,,,1.1337,1,,,,,,,,,,,,,,z,1,1.1337,,,,,,,,-0.016267361,-0.405117187,0,0,0,,0,11,11,157,1,INLER,HB,old,z,./images/INLERHB.png,,,,,,,,,,,,,,,,,,,,,,
,,,,,,,,,,,,,,,,,199390,19,2022-01-28_14h13.02.748,lexical_decision_task_DD_L3,2021.2.3,MacIntel,30.00120005,,,,,,,,,,,,0.8098,1,,,,,,,,,,,,,,m,1,0.8098,,,,,,,,-0.016267361,-0.405117187,0,0,0,,0,12,12,76,1,INFANT,C,old,m,./images/INFANT.png,,,,,,,,,,,,,,,,,,,,,,
,,,,,,,,,,,,,,,,,199390,19,2022-01-28_14h13.02.748,lexical_decision_task_DD_L3,2021.2.3,MacIntel,30.00120005,,,,,,,,,,,,0.6838,1,,,,,,,,,,,,,,m,1,0.6838,,,,,,,,-0.016267361,-0.405117187,0,0,0,,0,13,13,35,1,PEACH,HB,old,m,./images/PEACHHB.png,,,,,,,,,,,,,,,,,,,,,,
,,,,,,,,,,,,,,,,,199390,19,2022-01-28_14h13.02.748,lexical_decision_task_DD_L3,2021.2.3,MacIntel,30.00120005,,,,,,,,,,,,0.7182,0,,,,,,,,,,,,,,m,0,0.7182,,,,,,,,-0.016267361,-0.405117187,0,0,0,,0,14,14,100,1,DRIBS,HB,old,z,./images/DRIBSHB.png,,,,,,,,,,,,,,,,,,,,,,
,,,,,,,,,,,,,,,,,199390,19,2022-01-28_14h13.02.748,lexical_decision_task_DD_L3,2021.2.3,MacIntel,30.00120005,,,,,,,,,,,,1.0359,1,,,,,,,,,,,,,,m,1,1.0359,,,,,,,,-0.016267361,-0.405117187,0,0,0,,0,15,15,28,1,FALCON,C,old,m,./images/FALCON.png,,,,,,,,,,,,,,,,,,,,,,
,,,,,,,,,,,,,,,,,199390,19,2022-01-28_14h13.02.748,lexical_decision_task_DD_L3,2021.2.3,MacIntel,30.00120005,,,,,,,,,,,,0.6866,1,,,,,,,,,,,,,,z,1,0.6866,,,,,,,,-0.016267361,-0.405117187,0,0,0,,0,16,16,147,1,ZOLES,C,old,z,./images/ZOLES.png,,,,,,,,,,,,,,,,,,,,,,
,,,,,,,,,,,,,,,,,199390,19,2022-01-28_14h13.02.748,lexical_decision_task_DD_L3,2021.2.3,MacIntel,30.00120005,,,,,,,,,,,,0.5782,1,,,,,,,,,,,,,,z,1,0.5782,,,,,,,,-0.016267361,-0.405117187,0,0,0,,0,17,17,90,1,NEAST,C,old,z,./images/NEAST.png,,,,,,,,,,,,,,,,,,,,,,
,,,,,,,,,,,,,,,,,199390,19,2022-01-28_14h13.02.748,lexical_decision_task_DD_L3,2021.2.3,MacIntel,30.00120005,,,,,,,,,,,,0.9529,0,,,,,,,,,,,,,,m,0,0.9529,,,,,,,,-0.016267361,-0.405117187,0,0,0,,0,18,18,133,1,POWDY,HB,old,z,./images/POWDYHB.png,,,,,,,,,,,,,,,,,,,,,,
,,,,,,,,,,,,,,,,,199390,19,2022-01-28_14h13.02.748,lexical_decision_task_DD_L3,2021.2.3,MacIntel,30.00120005,,,,,,,,,,,,1.2838,1,,,,,,,,,,,,,,m,1,1.2838,,,,,,,,-0.016267361,-0.405117187,0,0,0,,0,19,19,4,1,MUSCLE,C,old,m,./images/MUSCLE.png,,,,,,,,,,,,,,,,,,,,,,
,,,,,,,,,,,,,,,,,199390,19,2022-01-28_14h13.02.748,lexical_decision_task_DD_L3,2021.2.3,MacIntel,30.00120005,,,,,,,,,,,,1.0287,1,,,,,,,,,,,,,,m,1,1.0287,,,,,,,,-0.016267361,-0.405117187,0,0,0,,0,20,20,18,1,JAGUAR,LB,old,m,./images/JAGUARLB.png,,,,,,,,,,,,,,,,,,,,,,
,,,,,,,,,,,,,,,,,199390,19,2022-01-28_14h13.02.748,lexical_decision_task_DD_L3,2021.2.3,MacIntel,30.00120005,,,,,,,,,,,,0.9232,1,,,,,,,,,,,,,,m,1,0.9232,,,,,,,,-0.016267361,-0.405117187,0,0,0,,0,21,21,55,1,MUFFIN,C,old,m,./images/MUFFIN.png,,,,,,,,,,,,,,,,,,,,,,
,,,,,,,,,,,,,,,,,199390,19,2022-01-28_14h13.02.748,lexical_decision_task_DD_L3,2021.2.3,MacIntel,30.00120005,,,,,,,,,,,,0.7489,1,,,,,,,,,,,,,,m,1,0.7489,,,,,,,,-0.016267361,-0.405117187,0,0,0,,0,22,22,44,1,LIZARD,HB,old,m,./images/LIZARDHB.png,,,,,,,,,,,,,,,,,,,,,,
,,,,,,,,,,,,,,,,,199390,19,2022-01-28_14h13.02.748,lexical_decision_task_DD_L3,2021.2.3,MacIntel,30.00120005,,,,,,,,,,,,0.6348,1,,,,,,,,,,,,,,m,1,0.6348,,,,,,,,-0.016267361,-0.405117187,0,0,0,,0,23,23,66,1,SWEAT,LB,old,m,./images/SWEATLB.png,,,,,,,,,,,,,,,,,,,,,,
,,,,,,,,,,,,,,,,,199390,19,2022-01-28_14h13.02.748,lexical_decision_task_DD_L3,2021.2.3,MacIntel,30.00120005,,,,,,,,,,,,0.5959,1,,,,,,,,,,,,,,m,1,0.5959,,,,,,,,-0.016267361,-0.405117187,0,0,0,,0,24,24,33,1,MAGGOT,LB,old,m,./images/MAGGOTLB.png,,,,,,,,,,,,,,,,,,,,,,
,,,,,,,,,,,,,,,,,199390,19,2022-01-28_14h13.02.748,lexical_decision_task_DD_L3,2021.2.3,MacIntel,30.00120005,,,,,,,,,,,,0.719,1,,,,,,,,,,,,,,z,1,0.719,,,,,,,,-0.016267361,-0.405117187,0,0,0,,0,25,25,161,1,BLAPS,LB,old,z,./images/BLAPSLB.png,,,,,,,,,,,,,,,,,,,,,,
,,,,,,,,,,,,,,,,,199390,19,2022-01-28_14h13.02.748,lexical_decision_task_DD_L3,2021.2.3,MacIntel,30.00120005,,,,,,,,,,,,0.8534,1,,,,,,,,,,,,,,z,1,0.8534,,,,,,,,-0.016267361,-0.405117187,0,0,0,,0,26,26,121,1,CEERS,HB,old,z,./images/CEERSHB.png,,,,,,,,,,,,,,,,,,,,,,
,,,,,,,,,,,,,,,,,199390,19,2022-01-28_14h13.02.748,lexical_decision_task_DD_L3,2021.2.3,MacIntel,30.00120005,,,,,,,,,,,,0.9221,0,,,,,,,,,,,,,,m,0,0.9221,,,,,,,,-0.016267361,-0.405117187,0,0,0,,0,27,27,144,1,NAIRY,C,old,z,./images/NAIRY.png,,,,,,,,,,,,,,,,,,,,,,
,,,,,,,,,,,,,,,,,199390,19,2022-01-28_14h13.02.748,lexical_decision_task_DD_L3,2021.2.3,MacIntel,30.00120005,,,,,,,,,,,,2.4963,1,,,,,,,,,,,,,,z,1,2.4963,,,,,,,,-0.016267361,-0.405117187,0,0,0,,0,28,28,154,1,THINT,HB,old,z,./images/THINTHB.png,,,,,,,,,,,,,,,,,,,,,,
,,,,,,,,,,,,,,,,,199390,19,2022-01-28_14h13.02.748,lexical_decision_task_DD_L3,2021.2.3,MacIntel,30.00120005,,,,,,,,,,,,0.769,1,,,,,,,,,,,,,,z,1,0.769,,,,,,,,-0.016267361,-0.405117187,0,0,0,,0,29,29,164,1,SGREW,LB,old,z,./images/SGREWLB.png,,,,,,,,,,,,,,,,,,,,,,
,,,,,,,,,,,,,,,,,199390,19,2022-01-28_14h13.02.748,lexical_decision_task_DD_L3,2021.2.3,MacIntel,30.00120005,,,,,,,,,,,,0.8749,1,,,,,,,,,,,,,,m,1,0.8749,,,,,,,,-0.016267361,-0.405117187,0,0,0,,0,30,30,24,1,SCREW,LB,old,m,./images/SCREWLB.png,,,,,,,,,,,,,,,,,,,,,,
,,,,,,,,,,,,,,,,,199390,19,2022-01-28_14h13.02.748,lexical_decision_task_DD_L3,2021.2.3,MacIntel,30.00120005,,,,,,,,,,,,0.6661,1,,,,,,,,,,,,,,m,1,0.6661,,,,,,,,-0.016267361,-0.405117187,0,0,0,,0,31,31,36,1,THROAT,LB,old,m,./images/THROATLB.png,,,,,,,,,,,,,,,,,,,,,,
,,,,,,,,,,,,,,,,,199390,19,2022-01-28_14h13.02.748,lexical_decision_task_DD_L3,2021.2.3,MacIntel,30.00120005,,,,,,,,,,,,0.9905,1,,,,,,,,,,,,,,z,1,0.9905,,,,,,,,-0.016267361,-0.405117187,0,0,0,,0,32,32,99,1,BACKY,C,old,z,./images/BACKY.png,,,,,,,,,,,,,,,,,,,,,,
,,,,,,,,,,,,,,,,,199390,19,2022-01-28_14h13.02.748,lexical_decision_task_DD_L3,2021.2.3,MacIntel,30.00120005,,,,,,,,,,,,1.1824,1,,,,,,,,,,,,,,z,1,1.1824,,,,,,,,-0.016267361,-0.405117187,0,0,0,,0,33,33,123,1,SEDGE,C,old,z,./images/SEDGE.png,,,,,,,,,,,,,,,,,,,,,,
,,,,,,,,,,,,,,,,,199390,19,2022-01-28_14h13.02.748,lexical_decision_task_DD_L3,2021.2.3,MacIntel,30.00120005,,,,,,,,,,,,0.785,1,,,,,,,,,,,,,,z,1,0.785,,,,,,,,-0.016267361,-0.405117187,0,0,0,,0,34,34,142,1,PLASK,HB,old,z,./images/PLASKHB.png,,,,,,,,,,,,,,,,,,,,,,
,,,,,,,,,,,,,,,,,199390,19,2022-01-28_14h13.02.748,lexical_decision_task_DD_L3,2021.2.3,MacIntel,30.00120005,,,,,,,,,,,,0.439,1,,,,,,,,,,,,,,z,1,0.439,,,,,,,,-0.016267361,-0.405117187,0,0,0,,0,35,35,130,1,CRILL,HB,old,z,./images/CRILLHB.png,,,,,,,,,,,,,,,,,,,,,,
,,,,,,,,,,,,,,,,,199390,19,2022-01-28_14h13.02.748,lexical_decision_task_DD_L3,2021.2.3,MacIntel,30.00120005,,,,,,,,,,,,0.8259,1,,,,,,,,,,,,,,z,1,0.8259,,,,,,,,-0.016267361,-0.405117187,0,0,0,,0,36,36,91,1,SHENS,HB,old,z,./images/SHENSHB.png,,,,,,,,,,,,,,,,,,,,,,
,,,,,,,,,,,,,,,,,199390,19,2022-01-28_14h13.02.748,lexical_decision_task_DD_L3,2021.2.3,MacIntel,30.00120005,,,,,,,,,,,,0.9847,0,,,,,,,,,,,,,,z,0,0.9847,,,,,,,,-0.016267361,-0.405117187,0,0,0,,0,37,37,29,1,CRUMB,HB,old,m,./images/CRUMBHB.png,,,,,,,,,,,,,,,,,,,,,,
,,,,,,,,,,,,,,,,,199390,19,2022-01-28_14h13.02.748,lexical_decision_task_DD_L3,2021.2.3,MacIntel,30.00120005,,,,,,,,,,,,0.8398,1,,,,,,,,,,,,,,m,1,0.8398,,,,,,,,-0.016267361,-0.405117187,0,0,0,,0,38,38,17,1,SKIING,HB,old,m,./images/SKIINGHB.png,,,,,,,,,,,,,,,,,,,,,,
,,,,,,,,,,,,,,,,,199390,19,2022-01-28_14h13.02.748,lexical_decision_task_DD_L3,2021.2.3,MacIntel,30.00120005,,,,,,,,,,,,0.7252,1,,,,,,,,,,,,,,z,1,0.7252,,,,,,,,-0.016267361,-0.405117187,0,0,0,,0,39,39,84,1,HAXES,C,old,z,./images/HAXES.png,,,,,,,,,,,,,,,,,,,,,,
,,,,,,,,,,,,,,,,,199390,19,2022-01-28_14h13.02.748,lexical_decision_task_DD_L3,2021.2.3,MacIntel,30.00120005,,,,,,,,,,,,0.8608,1,,,,,,,,,,,,,,z,1,0.8608,,,,,,,,-0.016267361,-0.405117187,0,0,0,,0,40,40,165,1,TROWN,C,old,z,./images/TROWN.png,,,,,,,,,,,,,,,,,,,,,,
,,,,,,,,,,,,,,,,,199390,19,2022-01-28_14h13.02.748,lexical_decision_task_DD_L3,2021.2.3,MacIntel,30.00120005,,,,,,,,,,,,1.0505,1,,,,,,,,,,,,,,z,1,1.0505,,,,,,,,-0.016267361,-0.405117187,0,0,0,space,0,41,41,94,1,BLANS,HB,old,z,./images/BLANSHB.png,10.8164,,,,,,,,,,,,,,,,,,,,,
,,,,,,,,,,,,,,,,,199390,19,2022-01-28_14h13.02.748,lexical_decision_task_DD_L3,2021.2.3,MacIntel,30.00120005,,,,,,,,,,,,0.7359,1,,,,,,,,,,,,,,z,1,0.7359,,,,,,,,-0.016267361,-0.405117187,0,0,0,,0,42,42,102,1,DULLE,C,old,z,./images/DULLE.png,,,,,,,,,,,,,,,,,,,,,,
,,,,,,,,,,,,,,,,,199390,19,2022-01-28_14h13.02.748,lexical_decision_task_DD_L3,2021.2.3,MacIntel,30.00120005,,,,,,,,,,,,0.5949,1,,,,,,,,,,,,,,m,1,0.5949,,,,,,,,-0.016267361,-0.405117187,0,0,0,,0,43,43,83,1,JUNGLE,HB,old,m,./images/JUNGLEHB.png,,,,,,,,,,,,,,,,,,,,,,
,,,,,,,,,,,,,,,,,199390,19,2022-01-28_14h13.02.748,lexical_decision_task_DD_L3,2021.2.3,MacIntel,30.00120005,,,,,,,,,,,,0.7259,1,,,,,,,,,,,,,,z,1,0.7259,,,,,,,,-0.016267361,-0.405117187,0,0,0,,0,44,44,117,1,STEEG,C,old,z,./images/STEEG.png,,,,,,,,,,,,,,,,,,,,,,
,,,,,,,,,,,,,,,,,199390,19,2022-01-28_14h13.02.748,lexical_decision_task_DD_L3,2021.2.3,MacIntel,30.00120005,,,,,,,,,,,,0.5851,0,,,,,,,,,,,,,,m,0,0.5851,,,,,,,,-0.016267361,-0.405117187,0,0,0,,0,45,45,137,1,JOOST,LB,old,z,./images/JOOSTLB.png,,,,,,,,,,,,,,,,,,,,,,
,,,,,,,,,,,,,,,,,199390,19,2022-01-28_14h13.02.748,lexical_decision_task_DD_L3,2021.2.3,MacIntel,30.00120005,,,,,,,,,,,,0.8828,0,,,,,,,,,,,,,,m,0,0.8828,,,,,,,,-0.016267361,-0.405117187,0,0,0,,0,46,46,103,1,FLORT,HB,old,z,./images/FLORTHB.png,,,,,,,,,,,,,,,,,,,,,,
,,,,,,,,,,,,,,,,,199390,19,2022-01-28_14h13.02.748,lexical_decision_task_DD_L3,2021.2.3,MacIntel,30.00120005,,,,,,,,,,,,1.0517,1,,,,,,,,,,,,,,z,1,1.0517,,,,,,,,-0.016267361,-0.405117187,0,0,0,,0,47,47,88,1,GLUSH,HB,old,z,./images/GLUSHHB.png,,,,,,,,,,,,,,,,,,,,,,
,,,,,,,,,,,,,,,,,199390,19,2022-01-28_14h13.02.748,lexical_decision_task_DD_L3,2021.2.3,MacIntel,30.00120005,,,,,,,,,,,,0.714,1,,,,,,,,,,,,,,m,1,0.714,,,,,,,,-0.016267361,-0.405117187,0,0,0,,0,48,48,52,1,BANNER,C,old,m,./images/BANNER.png,,,,,,,,,,,,,,,,,,,,,,
,,,,,,,,,,,,,,,,,199390,19,2022-01-28_14h13.02.748,lexical_decision_task_DD_L3,2021.2.3,MacIntel,30.00120005,,,,,,,,,,,,0.9854,1,,,,,,,,,,,,,,z,1,0.9854,,,,,,,,-0.016267361,-0.405117187,0,0,0,,0,49,49,106,1,CLUMS,HB,old,z,./images/CLUMSHB.png,,,,,,,,,,,,,,,,,,,,,,
,,,,,,,,,,,,,,,,,199390,19,2022-01-28_14h13.02.748,lexical_decision_task_DD_L3,2021.2.3,MacIntel,30.00120005,,,,,,,,,,,,0.9528,1,,,,,,,,,,,,,,z,1,0.9528,,,,,,,,-0.016267361,-0.405117187,0,0,0,,0,50,50,112,1,MYING,HB,old,z,./images/MYINGHB.png,,,,,,,,,,,,,,,,,,,,,,
,,,,,,,,,,,,,,,,,199390,19,2022-01-28_14h13.02.748,lexical_decision_task_DD_L3,2021.2.3,MacIntel,30.00120005,,,,,,,,,,,,0.7208,1,,,,,,,,,,,,,,z,1,0.7208,,,,,,,,-0.016267361,-0.405117187,0,0,0,,0,51,51,167,1,ZONET,LB,old,z,./images/ZONETLB.png,,,,,,,,,,,,,,,,,,,,,,
,,,,,,,,,,,,,,,,,199390,19,2022-01-28_14h13.02.748,lexical_decision_task_DD_L3,2021.2.3,MacIntel,30.00120005,,,,,,,,,,,,0.692,1,,,,,,,,,,,,,,z,1,0.692,,,,,,,,-0.016267361,-0.405117187,0,0,0,,0,52,52,155,1,CANGY,LB,old,z,./images/CANGYLB.png,,,,,,,,,,,,,,,,,,,,,,
,,,,,,,,,,,,,,,,,199390,19,2022-01-28_14h13.02.748,lexical_decision_task_DD_L3,2021.2.3,MacIntel,30.00120005,,,,,,,,,,,,0.6754,1,,,,,,,,,,,,,,m,1,0.6754,,,,,,,,-0.016267361,-0.405117187,0,0,0,,0,53,53,21,1,KIDNEY,LB,old,m,./images/KIDNEYLB.png,,,,,,,,,,,,,,,,,,,,,,
,,,,,,,,,,,,,,,,,199390,19,2022-01-28_14h13.02.748,lexical_decision_task_DD_L3,2021.2.3,MacIntel,30.00120005,,,,,,,,,,,,0.7637,1,,,,,,,,,,,,,,z,1,0.7637,,,,,,,,-0.016267361,-0.405117187,0,0,0,,0,54,54,124,1,TUNCH,HB,old,z,./images/TUNCHHB.png,,,,,,,,,,,,,,,,,,,,,,
,,,,,,,,,,,,,,,,,199390,19,2022-01-28_14h13.02.748,lexical_decision_task_DD_L3,2021.2.3,MacIntel,30.00120005,,,,,,,,,,,,0.7108,1,,,,,,,,,,,,,,m,1,0.7108,,,,,,,,-0.016267361,-0.405117187,0,0,0,,0,55,55,19,1,DOUGH,C,old,m,./images/DOUGH.png,,,,,,,,,,,,,,,,,,,,,,
,,,,,,,,,,,,,,,,,199390,19,2022-01-28_14h13.02.748,lexical_decision_task_DD_L3,2021.2.3,MacIntel,30.00120005,,,,,,,,,,,,0.8179,1,,,,,,,,,,,,,,m,1,0.8179,,,,,,,,-0.016267361,-0.405117187,0,0,0,,0,56,56,53,1,CARPET,HB,old,m,./images/CARPETHB.png,,,,,,,,,,,,,,,,,,,,,,
,,,,,,,,,,,,,,,,,199390,19,2022-01-28_14h13.02.748,lexical_decision_task_DD_L3,2021.2.3,MacIntel,30.00120005,,,,,,,,,,,,0.7528,1,,,,,,,,,,,,,,z,1,0.7528,,,,,,,,-0.016267361,-0.405117187,0,0,0,,0,57,57,128,1,GRIFT,LB,old,z,./images/GRIFTLB.png,,,,,,,,,,,,,,,,,,,,,,
,,,,,,,,,,,,,,,,,199390,19,2022-01-28_14h13.02.748,lexical_decision_task_DD_L3,2021.2.3,MacIntel,30.00120005,,,,,,,,,,,,0.85,1,,,,,,,,,,,,,,z,1,0.85,,,,,,,,-0.016267361,-0.405117187,0,0,0,,0,58,58,148,1,JOMS,HB,old,z,./images/JOMSHB.png,,,,,,,,,,,,,,,,,,,,,,
,,,,,,,,,,,,,,,,,199390,19,2022-01-28_14h13.02.748,lexical_decision_task_DD_L3,2021.2.3,MacIntel,30.00120005,,,,,,,,,,,,0.6238,1,,,,,,,,,,,,,,z,1,0.6238,,,,,,,,-0.016267361,-0.405117187,0,0,0,,0,59,59,132,1,SCIFF,C,old,z,./images/SCIFF.png,,,,,,,,,,,,,,,,,,,,,,
,,,,,,,,,,,,,,,,,199390,19,2022-01-28_14h13.02.748,lexical_decision_task_DD_L3,2021.2.3,MacIntel,30.00120005,,,,,,,,,,,,0.6928,1,,,,,,,,,,,,,,z,1,0.6928,,,,,,,,-0.016267361,-0.405117187,0,0,0,,0,60,60,138,1,PLICE,C,old,z,./images/PLICE.png,,,,,,,,,,,,,,,,,,,,,,
,,,,,,,,,,,,,,,,,199390,19,2022-01-28_14h13.02.748,lexical_decision_task_DD_L3,2021.2.3,MacIntel,30.00120005,,,,,,,,,,,,0.657,1,,,,,,,,,,,,,,z,1,0.657,,,,,,,,-0.016267361,-0.405117187,0,0,0,,0,61,61,156,1,HIXES,C,old,z,./images/HIXES.png,,,,,,,,,,,,,,,,,,,,,,
,,,,,,,,,,,,,,,,,199390,19,2022-01-28_14h13.02.748,lexical_decision_task_DD_L3,2021.2.3,MacIntel,30.00120005,,,,,,,,,,,,0.7263,1,,,,,,,,,,,,,,m,1,0.7263,,,,,,,,-0.016267361,-0.405117187,0,0,0,,0,62,62,70,1,URINE,C,old,m,./images/URINE.png,,,,,,,,,,,,,,,,,,,,,,
,,,,,,,,,,,,,,,,,199390,19,2022-01-28_14h13.02.748,lexical_decision_task_DD_L3,2021.2.3,MacIntel,30.00120005,,,,,,,,,,,,0.676,1,,,,,,,,,,,,,,z,1,0.676,,,,,,,,-0.016267361,-0.405117187,0,0,0,,0,63,63,136,1,WERVE,HB,old,z,./images/WERVEHB.png,,,,,,,,,,,,,,,,,,,,,,
,,,,,,,,,,,,,,,,,199390,19,2022-01-28_14h13.02.748,lexical_decision_task_DD_L3,2021.2.3,MacIntel,30.00120005,,,,,,,,,,,,0.662,1,,,,,,,,,,,,,,m,1,0.662,,,,,,,,-0.016267361,-0.405117187,0,0,0,,0,64,64,0,1,TOMATO,LB,old,m,./images/TOMATOLB.png,,,,,,,,,,,,,,,,,,,,,,
,,,,,,,,,,,,,,,,,199390,19,2022-01-28_14h13.02.748,lexical_decision_task_DD_L3,2021.2.3,MacIntel,30.00120005,,,,,,,,,,,,0.7722,1,,,,,,,,,,,,,,m,1,0.7722,,,,,,,,-0.016267361,-0.405117187,0,0,0,,0,65,65,78,1,LITTER,LB,old,m,./images/LITTERLB.png,,,,,,,,,,,,,,,,,,,,,,
,,,,,,,,,,,,,,,,,199390,19,2022-01-28_14h13.02.748,lexical_decision_task_DD_L3,2021.2.3,MacIntel,30.00120005,,,,,,,,,,,,0.866,1,,,,,,,,,,,,,,z,1,0.866,,,,,,,,-0.016267361,-0.405117187,0,0,0,,0,66,66,101,1,GLEET,LB,old,z,./images/GLEETLB.png,,,,,,,,,,,,,,,,,,,,,,
,,,,,,,,,,,,,,,,,199390,19,2022-01-28_14h13.02.748,lexical_decision_task_DD_L3,2021.2.3,MacIntel,30.00120005,,,,,,,,,,,,0.8302,1,,,,,,,,,,,,,,z,1,0.8302,,,,,,,,-0.016267361,-0.405117187,0,0,0,,0,67,67,127,1,NINDY,HB,old,z,./images/NINDYHB.png,,,,,,,,,,,,,,,,,,,,,,
,,,,,,,,,,,,,,,,,199390,19,2022-01-28_14h13.02.748,lexical_decision_task_DD_L3,2021.2.3,MacIntel,30.00120005,,,,,,,,,,,,0.5995,1,,,,,,,,,,,,,,z,1,0.5995,,,,,,,,-0.016267361,-0.405117187,0,0,0,,0,68,68,110,1,CRUNK,LB,old,z,./images/CRUNKLB.png,,,,,,,,,,,,,,,,,,,,,,
,,,,,,,,,,,,,,,,,199390,19,2022-01-28_14h13.02.748,lexical_decision_task_DD_L3,2021.2.3,MacIntel,30.00120005,,,,,,,,,,,,0.6231,1,,,,,,,,,,,,,,m,1,0.6231,,,,,,,,-0.016267361,-0.405117187,0,0,0,,0,69,69,34,1,CANYON,C,old,m,./images/CANYON.png,,,,,,,,,,,,,,,,,,,,,,
,,,,,,,,,,,,,,,,,199390,19,2022-01-28_14h13.02.748,lexical_decision_task_DD_L3,2021.2.3,MacIntel,30.00120005,,,,,,,,,,,,0.7709,1,,,,,,,,,,,,,,m,1,0.7709,,,,,,,,-0.016267361,-0.405117187,0,0,0,,0,70,70,40,1,SWING,C,old,m,./images/SWING.png,,,,,,,,,,,,,,,,,,,,,,
,,,,,,,,,,,,,,,,,199390,19,2022-01-28_14h13.02.748,lexical_decision_task_DD_L3,2021.2.3,MacIntel,30.00120005,,,,,,,,,,,,0.8164,0,,,,,,,,,,,,,,z,0,0.8164,,,,,,,,-0.016267361,-0.405117187,0,0,0,,0,71,71,50,1,MALLET,HB,old,m,./images/MALLETHB.png,,,,,,,,,,,,,,,,,,,,,,
,,,,,,,,,,,,,,,,,199390,19,2022-01-28_14h13.02.748,lexical_decision_task_DD_L3,2021.2.3,MacIntel,30.00120005,,,,,,,,,,,,0.7309,1,,,,,,,,,,,,,,m,1,0.7309,,,,,,,,-0.016267361,-0.405117187,0,0,0,,0,72,72,47,1,BERRY,HB,old,m,./images/BERRYHB.png,,,,,,,,,,,,,,,,,,,,,,
,,,,,,,,,,,,,,,,,199390,19,2022-01-28_14h13.02.748,lexical_decision_task_DD_L3,2021.2.3,MacIntel,30.00120005,,,,,,,,,,,,0.6961,1,,,,,,,,,,,,,,m,1,0.6961,,,,,,,,-0.016267361,-0.405117187,0,0,0,,0,73,73,60,1,TWINS,LB,old,m,./images/TWINSLB.png,,,,,,,,,,,,,,,,,,,,,,
,,,,,,,,,,,,,,,,,199390,19,2022-01-28_14h13.02.748,lexical_decision_task_DD_L3,2021.2.3,MacIntel,30.00120005,,,,,,,,,,,,0.7248,1,,,,,,,,,,,,,,m,1,0.7248,,,,,,,,-0.016267361,-0.405117187,0,0,0,,0,74,74,63,1,MIRROR,LB,old,m,./images/MIRRORLB.png,,,,,,,,,,,,,,,,,,,,,,
,,,,,,,,,,,,,,,,,199390,19,2022-01-28_14h13.02.748,lexical_decision_task_DD_L3,2021.2.3,MacIntel,30.00120005,,,,,,,,,,,,0.7688,0,,,,,,,,,,,,,,m,0,0.7688,,,,,,,,-0.016267361,-0.405117187,0,0,0,,0,75,75,98,1,BAMPS,LB,old,z,./images/BAMPSLB.png,,,,,,,,,,,,,,,,,,,,,,
,,,,,,,,,,,,,,,,,199390,19,2022-01-28_14h13.02.748,lexical_decision_task_DD_L3,2021.2.3,MacIntel,30.00120005,,,,,,,,,,,,0.949,1,,,,,,,,,,,,,,z,1,0.949,,,,,,,,-0.016267361,-0.405117187,0,0,0,,0,76,76,105,1,MOKER,C,old,z,./images/MOKER.png,,,,,,,,,,,,,,,,,,,,,,
,,,,,,,,,,,,,,,,,199390,19,2022-01-28_14h13.02.748,lexical_decision_task_DD_L3,2021.2.3,MacIntel,30.00120005,,,,,,,,,,,,0.836,1,,,,,,,,,,,,,,z,1,0.836,,,,,,,,-0.016267361,-0.405117187,0,0,0,,0,77,77,141,1,PLEET,C,old,z,./images/PLEET.png,,,,,,,,,,,,,,,,,,,,,,
,,,,,,,,,,,,,,,,,199390,19,2022-01-28_14h13.02.748,lexical_decision_task_DD_L3,2021.2.3,MacIntel,30.00120005,,,,,,,,,,,,1.0012,1,,,,,,,,,,,,,,m,1,1.0012,,,,,,,,-0.016267361,-0.405117187,0,0,0,,0,78,78,54,1,TRIPOD,LB,old,m,./images/TRIPODLB.png,,,,,,,,,,,,,,,,,,,,,,
,,,,,,,,,,,,,,,,,199390,19,2022-01-28_14h13.02.748,lexical_decision_task_DD_L3,2021.2.3,MacIntel,30.00120005,,,,,,,,,,,,0.6867,1,,,,,,,,,,,,,,m,1,0.6867,,,,,,,,-0.016267361,-0.405117187,0,0,0,,0,79,79,1,1,PLANK,C,old,m,./images/PLANK.png,,,,,,,,,,,,,,,,,,,,,,
,,,,,,,,,,,,,,,,,199390,19,2022-01-28_14h13.02.748,lexical_decision_task_DD_L3,2021.2.3,MacIntel,30.00120005,,,,,,,,,,,,0.9144,1,,,,,,,,,,,,,,z,1,0.9144,,,,,,,,-0.016267361,-0.405117187,0,0,0,,0,80,80,93,1,SMONE,C,old,z,./images/SMONE.png,,,,,,,,,,,,,,,,,,,,,,
,,,,,,,,,,,,,,,,,199390,19,2022-01-28_14h13.02.748,lexical_decision_task_DD_L3,2021.2.3,MacIntel,30.00120005,,,,,,,,,,,,1.026,1,,,,,,,,,,,,,,m,1,1.026,,,,,,,,-0.016267361,-0.405117187,0,0,0,,0,81,81,82,1,SUNSET,C,old,m,./images/SUNSET.png,,,,,,,,,,,,,,,,,,,,,,
,,,,,,,,,,,,,,,,,199390,19,2022-01-28_14h13.02.748,lexical_decision_task_DD_L3,2021.2.3,MacIntel,30.00120005,,,,,,,,,,,,0.6849,1,,,,,,,,,,,,,,z,1,0.6849,,,,,,,,-0.016267361,-0.405117187,0,0,0,,0,82,82,86,1,AIFED,LB,old,z,./images/AIFEDLB.png,,,,,,,,,,,,,,,,,,,,,,
,,,,,,,,,,,,,,,,,199390,19,2022-01-28_14h13.02.748,lexical_decision_task_DD_L3,2021.2.3,MacIntel,30.00120005,,,,,,,,,,,,0.7086,1,,,,,,,,,,,,,,m,1,0.7086,,,,,,,,0.401540799,0.471388889,0,0,0,space,0,83,83,77,1,COUCH,HB,old,m,./images/COUCHHB.png,43.9213,,,,,,,,,,,,,,,,,,,,,
,,,,,,,,,,,,,,,,,199390,19,2022-01-28_14h13.02.748,lexical_decision_task_DD_L3,2021.2.3,MacIntel,30.00120005,,,,,,,,,,,,0.8803,1,,,,,,,,,,,,,,z,1,0.8803,,,,,,,,0.401540799,0.471388889,0,0,0,,0,84,84,114,1,RIKES,C,old,z,./images/RIKES.png,,,,,,,,,,,,,,,,,,,,,,
,,,,,,,,,,,,,,,,,199390,19,2022-01-28_14h13.02.748,lexical_decision_task_DD_L3,2021.2.3,MacIntel,30.00120005,,,,,,,,,,,,0.5685,1,,,,,,,,,,,,,,m,1,0.5685,,,,,,,,0.401540799,0.471388889,0,0,0,,0,85,85,64,1,JELLY,C,old,m,./images/JELLY.png,,,,,,,,,,,,,,,,,,,,,,
,,,,,,,,,,,,,,,,,199390,19,2022-01-28_14h13.02.748,lexical_decision_task_DD_L3,2021.2.3,MacIntel,30.00120005,,,,,,,,,,,,0.4934,1,,,,,,,,,,,,,,m,1,0.4934,,,,,,,,0.401540799,0.471388889,0,0,0,,0,86,86,7,1,PAINT,C,old,m,./images/PAINT.png,,,,,,,,,,,,,,,,,,,,,,
,,,,,,,,,,,,,,,,,199390,19,2022-01-28_14h13.02.748,lexical_decision_task_DD_L3,2021.2.3,MacIntel,30.00120005,,,,,,,,,,,,0.5783,1,,,,,,,,,,,,,,m,1,0.5783,,,,,,,,0.401540799,0.471388889,0,0,0,,0,87,87,58,1,BABOON,C,old,m,./images/BABOON.png,,,,,,,,,,,,,,,,,,,,,,
,,,,,,,,,,,,,,,,,199390,19,2022-01-28_14h13.02.748,lexical_decision_task_DD_L3,2021.2.3,MacIntel,30.00120005,,,,,,,,,,,,0.5949,1,,,,,,,,,,,,,,z,1,0.5949,,,,,,,,0.401540799,0.471388889,0,0,0,,0,88,88,150,1,NOOLS,C,old,z,./images/NOOLS.png,,,,,,,,,,,,,,,,,,,,,,
,,,,,,,,,,,,,,,,,199390,19,2022-01-28_14h13.02.748,lexical_decision_task_DD_L3,2021.2.3,MacIntel,30.00120005,,,,,,,,,,,,0.7715,1,,,,,,,,,,,,,,z,1,0.7715,,,,,,,,0.401540799,0.471388889,0,0,0,,0,89,89,139,1,BLEAR,HB,old,z,./images/BLEARHB.png,,,,,,,,,,,,,,,,,,,,,,
,,,,,,,,,,,,,,,,,199390,19,2022-01-28_14h13.02.748,lexical_decision_task_DD_L3,2021.2.3,MacIntel,30.00120005,,,,,,,,,,,,1.0249,1,,,,,,,,,,,,,,m,1,1.0249,,,,,,,,0.401540799,0.471388889,0,0,0,,0,90,90,46,1,PEARL,C,old,m,./images/PEARL.png,,,,,,,,,,,,,,,,,,,,,,
,,,,,,,,,,,,,,,,,199390,19,2022-01-28_14h13.02.748,lexical_decision_task_DD_L3,2021.2.3,MacIntel,30.00120005,,,,,,,,,,,,0.6867,0,,,,,,,,,,,,,,z,0,0.6867,,,,,,,,0.401540799,0.471388889,0,0,0,,0,91,91,59,1,BURIAL,HB,old,m,./images/BURIALHB.png,,,,,,,,,,,,,,,,,,,,,,
,,,,,,,,,,,,,,,,,199390,19,2022-01-28_14h13.02.748,lexical_decision_task_DD_L3,2021.2.3,MacIntel,30.00120005,,,,,,,,,,,,0.8385,1,,,,,,,,,,,,,,z,1,0.8385,,,,,,,,0.401540799,0.471388889,0,0,0,,0,92,92,149,1,VEASE,LB,old,z,./images/VEASELB.png,,,,,,,,,,,,,,,,,,,,,,
,,,,,,,,,,,,,,,,,199390,19,2022-01-28_14h13.02.748,lexical_decision_task_DD_L3,2021.2.3,MacIntel,30.00120005,,,,,,,,,,,,0.7294,1,,,,,,,,,,,,,,z,1,0.7294,,,,,,,,0.401540799,0.471388889,0,0,0,,0,93,93,146,1,MOOST,LB,old,z,./images/MOOSTLB.png,,,,,,,,,,,,,,,,,,,,,,
,,,,,,,,,,,,,,,,,199390,19,2022-01-28_14h13.02.748,lexical_decision_task_DD_L3,2021.2.3,MacIntel,30.00120005,,,,,,,,,,,,0.7508,1,,,,,,,,,,,,,,z,1,0.7508,,,,,,,,0.401540799,0.471388889,0,0,0,,0,94,94,85,1,CHULK,HB,old,z,./images/CHULKHB.png,,,,,,,,,,,,,,,,,,,,,,
,,,,,,,,,,,,,,,,,199390,19,2022-01-28_14h13.02.748,lexical_decision_task_DD_L3,2021.2.3,MacIntel,30.00120005,,,,,,,,,,,,0.8538,1,,,,,,,,,,,,,,z,1,0.8538,,,,,,,,0.401540799,0.471388889,0,0,0,,0,95,95,113,1,LINEW,LB,old,z,./images/LINEWLB.png,,,,,,,,,,,,,,,,,,,,,,
,,,,,,,,,,,,,,,,,199390,19,2022-01-28_14h13.02.748,lexical_decision_task_DD_L3,2021.2.3,MacIntel,30.00120005,,,,,,,,,,,,0.6448,1,,,,,,,,,,,,,,z,1,0.6448,,,,,,,,0.401540799,0.471388889,0,0,0,,0,96,96,135,1,JOODY,C,old,z,./images/JOODY.png,,,,,,,,,,,,,,,,,,,,,,
,,,,,,,,,,,,,,,,,199390,19,2022-01-28_14h13.02.748,lexical_decision_task_DD_L3,2021.2.3,MacIntel,30.00120005,,,,,,,,,,,,0.8529,1,,,,,,,,,,,,,,z,1,0.8529,,,,,,,,0.401540799,0.471388889,0,0,0,,0,97,97,118,1,BAVEL,HB,old,z,./images/BAVELHB.png,,,,,,,,,,,,,,,,,,,,,,
,,,,,,,,,,,,,,,,,199390,19,2022-01-28_14h13.02.748,lexical_decision_task_DD_L3,2021.2.3,MacIntel,30.00120005,,,,,,,,,,,,0.8467,1,,,,,,,,,,,,,,m,1,0.8467,,,,,,,,0.401540799,0.471388889,0,0,0,,0,98,98,37,1,BIRTH,C,old,m,./images/BIRTH.png,,,,,,,,,,,,,,,,,,,,,,
,,,,,,,,,,,,,,,,,199390,19,2022-01-28_14h13.02.748,lexical_decision_task_DD_L3,2021.2.3,MacIntel,30.00120005,,,,,,,,,,,,0.6514,1,,,,,,,,,,,,,,m,1,0.6514,,,,,,,,0.401540799,0.471388889,0,0,0,,0,99,99,14,1,PICKLE,HB,old,m,./images/PICKLEHB.png,,,,,,,,,,,,,,,,,,,,,,
,,,,,,,,,,,,,,,,,199390,19,2022-01-28_14h13.02.748,lexical_decision_task_DD_L3,2021.2.3,MacIntel,30.00120005,,,,,,,,,,,,0.8623,1,,,,,,,,,,,,,,m,1,0.8623,,,,,,,,0.401540799,0.471388889,0,0,0,,0,100,100,42,1,FOLDER,LB,old,m,./images/FOLDERLB.png,,,,,,,,,,,,,,,,,,,,,,
,,,,,,,,,,,,,,,,,199390,19,2022-01-28_14h13.02.748,lexical_decision_task_DD_L3,2021.2.3,MacIntel,30.00120005,,,,,,,,,,,,0.5825,1,,,,,,,,,,,,,,m,1,0.5825,,,,,,,,0.401540799,0.471388889,0,0,0,,0,101,101,25,1,WRIST,C,old,m,./images/WRIST.png,,,,,,,,,,,,,,,,,,,,,,
,,,,,,,,,,,,,,,,,199390,19,2022-01-28_14h13.02.748,lexical_decision_task_DD_L3,2021.2.3,MacIntel,30.00120005,,,,,,,,,,,,0.6586,1,,,,,,,,,,,,,,m,1,0.6586,,,,,,,,0.401540799,0.471388889,0,0,0,,0,102,102,31,1,QUILL,C,old,m,./images/QUILL.png,,,,,,,,,,,,,,,,,,,,,,
,,,,,,,,,,,,,,,,,199390,19,2022-01-28_14h13.02.748,lexical_decision_task_DD_L3,2021.2.3,MacIntel,30.00120005,,,,,,,,,,,,0.5109,1,,,,,,,,,,,,,,m,1,0.5109,,,,,,,,0.401540799,0.471388889,0,0,0,,0,103,103,79,1,CRUST,C,old,m,./images/CRUST.png,,,,,,,,,,,,,,,,,,,,,,
,,,,,,,,,,,,,,,,,199390,19,2022-01-28_14h13.02.748,lexical_decision_task_DD_L3,2021.2.3,MacIntel,30.00120005,,,,,,,,,,,,1.0258,1,,,,,,,,,,,,,,z,1,1.0258,,,,,,,,0.401540799,0.471388889,0,0,0,,0,104,104,109,1,BURGE,HB,old,z,./images/BURGEHB.png,,,,,,,,,,,,,,,,,,,,,,
,,,,,,,,,,,,,,,,,199390,19,2022-01-28_14h13.02.748,lexical_decision_task_DD_L3,2021.2.3,MacIntel,30.00120005,,,,,,,,,,,,0.5683,1,,,,,,,,,,,,,,m,1,0.5683,,,,,,,,0.401540799,0.471388889,0,0,0,,0,105,105,12,1,SHORE,LB,old,m,./images/SHORELB.png,,,,,,,,,,,,,,,,,,,,,,
,,,,,,,,,,,,,,,,,199390,19,2022-01-28_14h13.02.748,lexical_decision_task_DD_L3,2021.2.3,MacIntel,30.00120005,,,,,,,,,,,,0.1639,1,,,,,,,,,,,,,,z,1,0.1639,,,,,,,,0.401540799,0.471388889,0,0,0,,0,106,106,120,1,RINED,C,old,z,./images/RINED.png,,,,,,,,,,,,,,,,,,,,,,
,,,,,,,,,,,,,,,,,199390,19,2022-01-28_14h13.02.748,lexical_decision_task_DD_L3,2021.2.3,MacIntel,30.00120005,,,,,,,,,,,,0.9013,1,,,,,,,,,,,,,,m,1,0.9013,,,,,,,,0.401540799,0.471388889,0,0,0,,0,107,107,81,1,POODLE,LB,old,m,./images/POODLELB.png,,,,,,,,,,,,,,,,,,,,,,
,,,,,,,,,,,,,,,,,199390,19,2022-01-28_14h13.02.748,lexical_decision_task_DD_L3,2021.2.3,MacIntel,30.00120005,,,,,,,,,,,,0.8514,1,,,,,,,,,,,,,,z,1,0.8514,,,,,,,,0.401540799,0.471388889,0,0,0,,0,108,108,125,1,MOOKY,LB,old,z,./images/MOOKYLB.png,,,,,,,,,,,,,,,,,,,,,,
,,,,,,,,,,,,,,,,,199390,19,2022-01-28_14h13.02.748,lexical_decision_task_DD_L3,2021.2.3,MacIntel,30.00120005,,,,,,,,,,,,0.6384,1,,,,,,,,,,,,,,z,1,0.6384,,,,,,,,0.401540799,0.471388889,0,0,0,,0,109,109,97,1,CHIDS,HB,old,z,./images/CHIDSHB.png,,,,,,,,,,,,,,,,,,,,,,
,,,,,,,,,,,,,,,,,199390,19,2022-01-28_14h13.02.748,lexical_decision_task_DD_L3,2021.2.3,MacIntel,30.00120005,,,,,,,,,,,,0.7502,1,,,,,,,,,,,,,,m,1,0.7502,,,,,,,,0.401540799,0.471388889,0,0,0,,0,110,110,30,1,STORM,LB,old,m,./images/STORMLB.png,,,,,,,,,,,,,,,,,,,,,,
,,,,,,,,,,,,,,,,,199390,19,2022-01-28_14h13.02.748,lexical_decision_task_DD_L3,2021.2.3,MacIntel,30.00120005,,,,,,,,,,,,0.752,1,,,,,,,,,,,,,,z,1,0.752,,,,,,,,0.401540799,0.471388889,0,0,0,,0,111,111,162,1,LEICH,C,old,z,./images/LEICH.png,,,,,,,,,,,,,,,,,,,,,,
,,,,,,,,,,,,,,,,,199390,19,2022-01-28_14h13.02.748,lexical_decision_task_DD_L3,2021.2.3,MacIntel,30.00120005,,,,,,,,,,,,0.6103,1,,,,,,,,,,,,,,m,1,0.6103,,,,,,,,0.401540799,0.471388889,0,0,0,,0,112,112,22,1,MELON,C,old,m,./images/MELON.png,,,,,,,,,,,,,,,,,,,,,,
,,,,,,,,,,,,,,,,,199390,19,2022-01-28_14h13.02.748,lexical_decision_task_DD_L3,2021.2.3,MacIntel,30.00120005,,,,,,,,,,,,0.7275,1,,,,,,,,,,,,,,m,1,0.7275,,,,,,,,0.401540799,0.471388889,0,0,0,,0,113,113,67,1,SAILOR,C,old,m,./images/SAILOR.png,,,,,,,,,,,,,,,,,,,,,,
,,,,,,,,,,,,,,,,,199390,19,2022-01-28_14h13.02.748,lexical_decision_task_DD_L3,2021.2.3,MacIntel,30.00120005,,,,,,,,,,,,0.6069,1,,,,,,,,,,,,,,m,1,0.6069,,,,,,,,0.401540799,0.471388889,0,0,0,,0,114,114,6,1,SQUARE,LB,old,m,./images/SQUARELB.png,,,,,,,,,,,,,,,,,,,,,,
,,,,,,,,,,,,,,,,,199390,19,2022-01-28_14h13.02.748,lexical_decision_task_DD_L3,2021.2.3,MacIntel,30.00120005,,,,,,,,,,,,0.581,1,,,,,,,,,,,,,,z,1,0.581,,,,,,,,0.401540799,0.471388889,0,0,0,,0,115,115,96,1,KEAMS,C,old,z,./images/KEAMS.png,,,,,,,,,,,,,,,,,,,,,,
,,,,,,,,,,,,,,,,,199390,19,2022-01-28_14h13.02.748,lexical_decision_task_DD_L3,2021.2.3,MacIntel,30.00120005,,,,,,,,,,,,0.7862,0,,,,,,,,,,,,,,m,0,0.7862,,,,,,,,0.401540799,0.471388889,0,0,0,,0,116,116,119,1,PAFER,LB,old,z,./images/PAFERLB.png,,,,,,,,,,,,,,,,,,,,,,
,,,,,,,,,,,,,,,,,199390,19,2022-01-28_14h13.02.748,lexical_decision_task_DD_L3,2021.2.3,MacIntel,30.00120005,,,,,,,,,,,,1.0305,0,,,,,,,,,,,,,,z,0,1.0305,,,,,,,,0.401540799,0.471388889,0,0,0,,0,117,117,72,1,NOOSE,LB,old,m,./images/NOOSELB.png,,,,,,,,,,,,,,,,,,,,,,
,,,,,,,,,,,,,,,,,199390,19,2022-01-28_14h13.02.748,lexical_decision_task_DD_L3,2021.2.3,MacIntel,30.00120005,,,,,,,,,,,,0.9853,1,,,,,,,,,,,,,,m,1,0.9853,,,,,,,,0.401540799,0.471388889,0,0,0,,0,118,118,69,1,COOKER,LB,old,m,./images/COOKERLB.png,,,,,,,,,,,,,,,,,,,,,,
,,,,,,,,,,,,,,,,,199390,19,2022-01-28_14h13.02.748,lexical_decision_task_DD_L3,2021.2.3,MacIntel,30.00120005,,,,,,,,,,,,0.6731,1,,,,,,,,,,,,,,m,1,0.6731,,,,,,,,0.401540799,0.471388889,0,0,0,,0,119,119,71,1,PIMPLE,HB,old,m,./images/PIMPLEHB.png,,,,,,,,,,,,,,,,,,,,,,
,,,,,,,,,,,,,,,,,199390,19,2022-01-28_14h13.02.748,lexical_decision_task_DD_L3,2021.2.3,MacIntel,30.00120005,,,,,,,,,,,,0.9231,1,,,,,,,,,,,,,,z,1,0.9231,,,,,,,,0.401540799,0.471388889,0,0,0,,0,120,120,115,1,MAWNS,HB,old,z,./images/MAWNSHB.png,,,,,,,,,,,,,,,,,,,,,,
,,,,,,,,,,,,,,,,,199390,19,2022-01-28_14h13.02.748,lexical_decision_task_DD_L3,2021.2.3,MacIntel,30.00120005,,,,,,,,,,,,0.5814,1,,,,,,,,,,,,,,m,1,0.5814,,,,,,,,0.401540799,0.471388889,0,0,0,,0,121,121,27,1,ATTIC,LB,old,m,./images/ATTICLB.png,,,,,,,,,,,,,,,,,,,,,,
,,,,,,,,,,,,,,,,,199390,19,2022-01-28_14h13.02.748,lexical_decision_task_DD_L3,2021.2.3,MacIntel,30.00120005,,,,,,,,,,,,0.7725,1,,,,,,,,,,,,,,m,1,0.7725,,,,,,,,0.401540799,0.471388889,0,0,0,,0,122,122,41,1,STRING,HB,old,m,./images/STRINGHB.png,,,,,,,,,,,,,,,,,,,,,,
,,,,,,,,,,,,,,,,,199390,19,2022-01-28_14h13.02.748,lexical_decision_task_DD_L3,2021.2.3,MacIntel,30.00120005,,,,,,,,,,,,0.6618,1,,,,,,,,,,,,,,z,1,0.6618,,,,,,,,0.401540799,0.471388889,0,0,0,,0,123,123,166,1,SHORY,HB,old,z,./images/SHORYHB.png,,,,,,,,,,,,,,,,,,,,,,
,,,,,,,,,,,,,,,,,199390,19,2022-01-28_14h13.02.748,lexical_decision_task_DD_L3,2021.2.3,MacIntel,30.00120005,,,,,,,,,,,,1.4325,1,,,,,,,,,,,,,,m,1,1.4325,,,,,,,,0.401540799,0.471388889,0,0,0,,0,124,124,73,1,SNACK,C,old,m,./images/SNACK.png,,,,,,,,,,,,,,,,,,,,,,
,,,,,,,,,,,,,,,,,199390,19,2022-01-28_14h13.02.748,lexical_decision_task_DD_L3,2021.2.3,MacIntel,30.00120005,,,,,,,,,,,,0.762,1,,,,,,,,,,,,,,m,1,0.762,,,,,,,,0.401540799,0.471388889,0,0,0,space,0,125,125,57,1,MOOSE,LB,old,m,./images/MOOSELB.png,49.5089,,,,,,,,,,,,,,,,,,,,,
,,,,,,,,,,,,,,,,,199390,19,2022-01-28_14h13.02.748,lexical_decision_task_DD_L3,2021.2.3,MacIntel,30.00120005,,,,,,,,,,,,0.755,1,,,,,,,,,,,,,,z,1,0.755,,,,,,,,0.401540799,0.471388889,0,0,0,,0,126,126,158,1,EGECT,LB,old,z,./images/EGECTLB.png,,,,,,,,,,,,,,,,,,,,,,
,,,,,,,,,,,,,,,,,199390,19,2022-01-28_14h13.02.748,lexical_decision_task_DD_L3,2021.2.3,MacIntel,30.00120005,,,,,,,,,,,,0.5184,1,,,,,,,,,,,,,,m,1,0.5184,,,,,,,,0.401540799,0.471388889,0,0,0,,0,127,127,9,1,RHINO,LB,old,m,./images/RHINOLB.png,,,,,,,,,,,,,,,,,,,,,,
,,,,,,,,,,,,,,,,,199390,19,2022-01-28_14h13.02.748,lexical_decision_task_DD_L3,2021.2.3,MacIntel,30.00120005,,,,,,,,,,,,0.5515,1,,,,,,,,,,,,,,m,1,0.5515,,,,,,,,0.401540799,0.471388889,0,0,0,,0,128,128,39,1,SHELF,LB,old,m,./images/SHELFLB.png,,,,,,,,,,,,,,,,,,,,,,
,,,,,,,,,,,,,,,,,199390,19,2022-01-28_14h13.02.748,lexical_decision_task_DD_L3,2021.2.3,MacIntel,30.00120005,,,,,,,,,,,,0.418,1,,,,,,,,,,,,,,m,1,0.418,,,,,,,,0.401540799,0.471388889,0,0,0,,0,129,129,38,1,LADDER,HB,old,m,./images/LADDERHB.png,,,,,,,,,,,,,,,,,,,,,,
,,,,,,,,,,,,,,,,,199390,19,2022-01-28_14h13.02.748,lexical_decision_task_DD_L3,2021.2.3,MacIntel,30.00120005,,,,,,,,,,,,0.9247,0,,,,,,,,,,,,,,z,0,0.9247,,,,,,,,0.401540799,0.471388889,0,0,0,,0,130,130,45,1,KITTEN,LB,old,m,./images/KITTENLB.png,,,,,,,,,,,,,,,,,,,,,,
,,,,,,,,,,,,,,,,,199390,19,2022-01-28_14h13.02.748,lexical_decision_task_DD_L3,2021.2.3,MacIntel,30.00120005,,,,,,,,,,,,0.8858,1,,,,,,,,,,,,,,z,1,0.8858,,,,,,,,0.401540799,0.471388889,0,0,0,,0,131,131,151,1,TINKY,HB,old,z,./images/TINKYHB.png,,,,,,,,,,,,,,,,,,,,,,
,,,,,,,,,,,,,,,,,199390,19,2022-01-28_14h13.02.748,lexical_decision_task_DD_L3,2021.2.3,MacIntel,30.00120005,,,,,,,,,,,,0.698,0,,,,,,,,,,,,,,z,0,0.698,,,,,,,,0.401540799,0.471388889,0,0,0,,0,132,132,62,1,PURSE,HB,old,m,./images/PURSEHB.png,,,,,,,,,,,,,,,,,,,,,,
,,,,,,,,,,,,,,,,,199390,19,2022-01-28_14h13.02.748,lexical_decision_task_DD_L3,2021.2.3,MacIntel,30.00120005,,,,,,,,,,,,0.7714,1,,,,,,,,,,,,,,z,1,0.7714,,,,,,,,0.401540799,0.471388889,0,0,0,,0,133,133,153,1,CLUPS,C,old,z,./images/CLUPS.png,,,,,,,,,,,,,,,,,,,,,,
,,,,,,,,,,,,,,,,,199390,19,2022-01-28_14h13.02.748,lexical_decision_task_DD_L3,2021.2.3,MacIntel,30.00120005,,,,,,,,,,,,0.8243,0,,,,,,,,,,,,,,z,0,0.8243,,,,,,,,0.401540799,0.471388889,0,0,0,,0,134,134,16,1,PENCE,C,old,m,./images/PENCE.png,,,,,,,,,,,,,,,,,,,,,,
,,,,,,,,,,,,,,,,,199390,19,2022-01-28_14h13.02.748,lexical_decision_task_DD_L3,2021.2.3,MacIntel,30.00120005,,,,,,,,,,,,0.7272,1,,,,,,,,,,,,,,z,1,0.7272,,,,,,,,0.401540799,0.471388889,0,0,0,,0,135,135,160,1,VEETS,HB,old,z,./images/VEETSHB.png,,,,,,,,,,,,,,,,,,,,,,
,,,,,,,,,,,,,,,,,199390,19,2022-01-28_14h13.02.748,lexical_decision_task_DD_L3,2021.2.3,MacIntel,30.00120005,,,,,,,,,,,,0.8119,1,,,,,,,,,,,,,,z,1,0.8119,,,,,,,,0.401540799,0.471388889,0,0,0,,0,136,136,87,1,TRING,C,old,z,./images/TRING.png,,,,,,,,,,,,,,,,,,,,,,
,,,,,,,,,,,,,,,,,199390,19,2022-01-28_14h13.02.748,lexical_decision_task_DD_L3,2021.2.3,MacIntel,30.00120005,,,,,,,,,,,,0.5812,1,,,,,,,,,,,,,,m,1,0.5812,,,,,,,,0.401540799,0.471388889,0,0,0,,0,137,137,32,1,BARREL,HB,old,m,./images/BARRELHB.png,,,,,,,,,,,,,,,,,,,,,,
,,,,,,,,,,,,,,,,,199390,19,2022-01-28_14h13.02.748,lexical_decision_task_DD_L3,2021.2.3,MacIntel,30.00120005,,,,,,,,,,,,0.9625,1,,,,,,,,,,,,,,m,1,0.9625,,,,,,,,0.401540799,0.471388889,0,0,0,,0,138,138,8,1,TULIP,HB,old,m,./images/TULIPHB.png,,,,,,,,,,,,,,,,,,,,,,
,,,,,,,,,,,,,,,,,199390,19,2022-01-28_14h13.02.748,lexical_decision_task_DD_L3,2021.2.3,MacIntel,30.00120005,,,,,,,,,,,,0.704,0,,,,,,,,,,,,,,m,0,0.704,,,,,,,,0.401540799,0.471388889,0,0,0,,0,139,139,159,1,CUDDY,C,old,z,./images/CUDDY.png,,,,,,,,,,,,,,,,,,,,,,
,,,,,,,,,,,,,,,,,199390,19,2022-01-28_14h13.02.748,lexical_decision_task_DD_L3,2021.2.3,MacIntel,30.00120005,,,,,,,,,,,,0.7215,1,,,,,,,,,,,,,,z,1,0.7215,,,,,,,,0.401540799,0.471388889,0,0,0,,0,140,140,116,1,BALGY,LB,old,z,./images/BALGYLB.png,,,,,,,,,,,,,,,,,,,,,,
,,,,,,,,,,,,,,,,,199390,19,2022-01-28_14h13.02.748,lexical_decision_task_DD_L3,2021.2.3,MacIntel,30.00120005,,,,,,,,,,,,0.6514,1,,,,,,,,,,,,,,z,1,0.6514,,,,,,,,0.401540799,0.471388889,0,0,0,,0,141,141,104,1,GITTY,LB,old,z,./images/GITTYLB.png,,,,,,,,,,,,,,,,,,,,,,
,,,,,,,,,,,,,,,,,199390,19,2022-01-28_14h13.02.748,lexical_decision_task_DD_L3,2021.2.3,MacIntel,30.00120005,,,,,,,,,,,,0.7218,1,,,,,,,,,,,,,,m,1,0.7218,,,,,,,,0.401540799,0.471388889,0,0,0,,0,142,142,3,1,FINGER,LB,old,m,./images/FINGERLB.png,,,,,,,,,,,,,,,,,,,,,,
,,,,,,,,,,,,,,,,,199390,19,2022-01-28_14h13.02.748,lexical_decision_task_DD_L3,2021.2.3,MacIntel,30.00120005,,,,,,,,,,,,1.092,1,,,,,,,,,,,,,,z,1,1.092,,,,,,,,0.401540799,0.471388889,0,0,0,,0,143,143,126,1,GUELS,C,old,z,./images/GUELS.png,,,,,,,,,,,,,,,,,,,,,,
,,,,,,,,,,,,,,,,,199390,19,2022-01-28_14h13.02.748,lexical_decision_task_DD_L3,2021.2.3,MacIntel,30.00120005,,,,,,,,,,,,0.7384,1,,,,,,,,,,,,,,m,1,0.7384,,,,,,,,0.401540799,0.471388889,0,0,0,,0,144,144,56,1,PACKET,HB,old,m,./images/PACKETHB.png,,,,,,,,,,,,,,,,,,,,,,
,,,,,,,,,,,,,,,,,199390,19,2022-01-28_14h13.02.748,lexical_decision_task_DD_L3,2021.2.3,MacIntel,30.00120005,,,,,,,,,,,,0.651,1,,,,,,,,,,,,,,m,1,0.651,,,,,,,,0.401540799,0.471388889,0,0,0,,0,145,145,5,1,PASTA,HB,old,m,./images/PASTAHB.png,,,,,,,,,,,,,,,,,,,,,,
,,,,,,,,,,,,,,,,,199390,19,2022-01-28_14h13.02.748,lexical_decision_task_DD_L3,2021.2.3,MacIntel,30.00120005,,,,,,,,,,,,0.7338,1,,,,,,,,,,,,,,m,1,0.7338,,,,,,,,0.401540799,0.471388889,0,0,0,,0,146,146,15,1,GREASE,LB,old,m,./images/GREASELB.png,,,,,,,,,,,,,,,,,,,,,,
,,,,,,,,,,,,,,,,,199390,19,2022-01-28_14h13.02.748,lexical_decision_task_DD_L3,2021.2.3,MacIntel,30.00120005,,,,,,,,,,,,0.7297,1,,,,,,,,,,,,,,m,1,0.7297,,,,,,,,0.401540799,0.471388889,0,0,0,,0,147,147,11,1,BONNET,HB,old,m,./images/BONNETHB.png,,,,,,,,,,,,,,,,,,,,,,
,,,,,,,,,,,,,,,,,199390,19,2022-01-28_14h13.02.748,lexical_decision_task_DD_L3,2021.2.3,MacIntel,30.00120005,,,,,,,,,,,,0.9136,1,,,,,,,,,,,,,,z,1,0.9136,,,,,,,,0.401540799,0.471388889,0,0,0,,0,148,148,129,1,PRANS,C,old,z,./images/PRANS.png,,,,,,,,,,,,,,,,,,,,,,
,,,,,,,,,,,,,,,,,199390,19,2022-01-28_14h13.02.748,lexical_decision_task_DD_L3,2021.2.3,MacIntel,30.00120005,,,,,,,,,,,,1.306,1,,,,,,,,,,,,,,z,1,1.306,,,,,,,,0.401540799,0.471388889,0,0,0,,0,149,149,152,1,FRAIN,LB,old,z,./images/FRAINLB.png,,,,,,,,,,,,,,,,,,,,,,
,,,,,,,,,,,,,,,,,199390,19,2022-01-28_14h13.02.748,lexical_decision_task_DD_L3,2021.2.3,MacIntel,30.00120005,,,,,,,,,,,,0.9003,1,,,,,,,,,,,,,,m,1,0.9003,,,,,,,,0.401540799,0.471388889,0,0,0,,0,150,150,26,1,SMOKER,HB,old,m,./images/SMOKERHB.png,,,,,,,,,,,,,,,,,,,,,,
,,,,,,,,,,,,,,,,,199390,19,2022-01-28_14h13.02.748,lexical_decision_task_DD_L3,2021.2.3,MacIntel,30.00120005,,,,,,,,,,,,0.695,1,,,,,,,,,,,,,,m,1,0.695,,,,,,,,0.401540799,0.471388889,0,0,0,,0,151,151,80,1,WEASEL,HB,old,m,./images/WEASELHB.png,,,,,,,,,,,,,,,,,,,,,,
,,,,,,,,,,,,,,,,,199390,19,2022-01-28_14h13.02.748,lexical_decision_task_DD_L3,2021.2.3,MacIntel,30.00120005,,,,,,,,,,,,0.7035,1,,,,,,,,,,,,,,z,1,0.7035,,,,,,,,0.401540799,0.471388889,0,0,0,,0,152,152,95,1,HANTY,LB,old,z,./images/HANTYLB.png,,,,,,,,,,,,,,,,,,,,,,
,,,,,,,,,,,,,,,,,199390,19,2022-01-28_14h13.02.748,lexical_decision_task_DD_L3,2021.2.3,MacIntel,30.00120005,,,,,,,,,,,,0.7024,1,,,,,,,,,,,,,,m,1,0.7024,,,,,,,,0.401540799,0.471388889,0,0,0,,0,153,153,43,1,MOSQUE,C,old,m,./images/MOSQUE.png,,,,,,,,,,,,,,,,,,,,,,
,,,,,,,,,,,,,,,,,199390,19,2022-01-28_14h13.02.748,lexical_decision_task_DD_L3,2021.2.3,MacIntel,30.00120005,,,,,,,,,,,,0.7181,1,,,,,,,,,,,,,,z,1,0.7181,,,,,,,,0.401540799,0.471388889,0,0,0,,0,154,154,122,1,BLOOT,LB,old,z,./images/BLOOTLB.png,,,,,,,,,,,,,,,,,,,,,,
,,,,,,,,,,,,,,,,,199390,19,2022-01-28_14h13.02.748,lexical_decision_task_DD_L3,2021.2.3,MacIntel,30.00120005,,,,,,,,,,,,0.6549,1,,,,,,,,,,,,,,m,1,0.6549,,,,,,,,0.401540799,0.471388889,0,0,0,,0,155,155,20,1,CRADLE,HB,old,m,./images/CRADLEHB.png,,,,,,,,,,,,,,,,,,,,,,
,,,,,,,,,,,,,,,,,199390,19,2022-01-28_14h13.02.748,lexical_decision_task_DD_L3,2021.2.3,MacIntel,30.00120005,,,,,,,,,,,,0.7393,0,,,,,,,,,,,,,,m,0,0.7393,,,,,,,,0.401540799,0.471388889,0,0,0,,0,156,156,163,1,GAMBA,HB,old,z,./images/GAMBAHB.png,,,,,,,,,,,,,,,,,,,,,,
,,,,,,,,,,,,,,,,,199390,19,2022-01-28_14h13.02.748,lexical_decision_task_DD_L3,2021.2.3,MacIntel,30.00120005,,,,,,,,,,,,0.5877,0,,,,,,,,,,,,,,z,0,0.5877,,,,,,,,0.401540799,0.471388889,0,0,0,,0,157,157,49,1,DRUMS,C,old,m,./images/DRUMS.png,,,,,,,,,,,,,,,,,,,,,,
,,,,,,,,,,,,,,,,,199390,19,2022-01-28_14h13.02.748,lexical_decision_task_DD_L3,2021.2.3,MacIntel,30.00120005,,,,,,,,,,,,0.8311,1,,,,,,,,,,,,,,z,1,0.8311,,,,,,,,0.401540799,0.471388889,0,0,0,,0,158,158,140,1,DOVET,LB,old,z,./images/DOVETLB.png,,,,,,,,,,,,,,,,,,,,,,
,,,,,,,,,,,,,,,,,199390,19,2022-01-28_14h13.02.748,lexical_decision_task_DD_L3,2021.2.3,MacIntel,30.00120005,,,,,,,,,,,,0.6536,1,,,,,,,,,,,,,,z,1,0.6536,,,,,,,,0.401540799,0.471388889,0,0,0,,0,159,159,92,1,PAIMS,LB,old,z,./images/PAIMSLB.png,,,,,,,,,,,,,,,,,,,,,,
,,,,,,,,,,,,,,,,,199390,19,2022-01-28_14h13.02.748,lexical_decision_task_DD_L3,2021.2.3,MacIntel,30.00120005,,,,,,,,,,,,0.6303,1,,,,,,,,,,,,,,m,1,0.6303,,,,,,,,0.401540799,0.471388889,0,0,0,,0,160,160,51,1,ONION,LB,old,m,./images/ONIONLB.png,,,,,,,,,,,,,,,,,,,,,,
,,,,,,,,,,,,,,,,,199390,19,2022-01-28_14h13.02.748,lexical_decision_task_DD_L3,2021.2.3,MacIntel,30.00120005,,,,,,,,,,,,0.6994,1,,,,,,,,,,,,,,z,1,0.6994,,,,,,,,0.401540799,0.471388889,0,0,0,,0,161,161,108,1,GRUET,C,old,z,./images/GRUET.png,,,,,,,,,,,,,,,,,,,,,,
,,,,,,,,,,,,,,,,,199390,19,2022-01-28_14h13.02.748,lexical_decision_task_DD_L3,2021.2.3,MacIntel,30.00120005,,,,,,,,,,,,0.8052,1,,,,,,,,,,,,,,m,1,0.8052,,,,,,,,0.401540799,0.471388889,0,0,0,,0,162,162,65,1,FARMER,HB,old,m,./images/FARMERHB.png,,,,,,,,,,,,,,,,,,,,,,
,,,,,,,,,,,,,,,,,199390,19,2022-01-28_14h13.02.748,lexical_decision_task_DD_L3,2021.2.3,MacIntel,30.00120005,,,,,,,,,,,,0.1504,0,,,,,,,,,,,,,,z,0,0.1504,,,,,,,,0.401540799,0.471388889,0,0,0,,0,163,163,74,1,CEMENT,HB,old,m,./images/CEMENTHB.png,,,,,,,,,,,,,,,,,,,,,,
,,,,,,,,,,,,,,,,,199390,19,2022-01-28_14h13.02.748,lexical_decision_task_DD_L3,2021.2.3,MacIntel,30.00120005,,,,,,,,,,,,0.5228,0,,,,,,,,,,,,,,m,0,0.5228,,,,,,,,0.401540799,0.471388889,0,0,0,,0,164,164,143,1,MONGS,LB,old,z,./images/MONGSLB.png,,,,,,,,,,,,,,,,,,,,,,
,,,,,,,,,,,,,,,,,199390,19,2022-01-28_14h13.02.748,lexical_decision_task_DD_L3,2021.2.3,MacIntel,30.00120005,,,,,,,,,,,,0.6855,1,,,,,,,,,,,,,,z,1,0.6855,,,,,,,,0.401540799,0.471388889,0,0,0,,0,165,165,107,1,FASKS,LB,old,z,./images/FASKSLB.png,,,,,,,,,,,,,,,,,,,,,,
,,,,,,,,,,,,,,,,,199390,19,2022-01-28_14h13.02.748,lexical_decision_task_DD_L3,2021.2.3,MacIntel,30.00120005,,,,,,,,,,,,0.7362,1,,,,,,,,,,,,,,z,1,0.7362,,,,,,,,0.401540799,0.471388889,0,0,0,,0,166,166,111,1,HOSSE,C,old,z,./images/HOSSE.png,,,,,,,,,,,,,,,,,,,,,,
,,,,,,,,,,,,,,,,,199390,19,2022-01-28_14h13.02.748,lexical_decision_task_DD_L3,2021.2.3,MacIntel,30.00120005,,,,,,,,,,,,1.4509,1,,,,,,,,,,,,,,m,1,1.4509,,,,,,,,0.401540799,0.471388889,0,0,0,,0,167,167,75,1,GRAIN,LB,old,m,./images/GRAINLB.png,,,,,,,,,,,,,,,,,,,,,,
space,0.401540799,0.471388889,0,0,0,,,,,,,1,test,"In the next phase you will be presented with the words from the the first phase. Your job is to decide whether you remember seeing the word or not. If you remember seeing the word press ""old"" or type ""m"". If you do not remember seeing the word press ""new"" or type ""z"". Please press the space bar or click on continue to begin. ",,,199390,19,2022-01-28_14h13.02.748,lexical_decision_task_DD_L3,2021.2.3,MacIntel,30.00120005,36.116,,,,,,,,,,,,,,,,,,,,,,,,,,,,,,,,,,,,,,,,,,,,,,,,,,,,,0,0,0,0,1,,,,,,,,,,,,,,,,
space,0.401540799,0.471388889,0,0,0,,,,,,,1,test,"In the next phase you will be presented with the words from the the first phase. Your job is to decide whether you remember seeing the word or not. If you remember seeing the word press ""old"" or type ""m"". If you do not remember seeing the word press ""new"" or type ""z"". Please press the space bar or click on continue to begin. ",,,199390,19,2022-01-28_14h13.02.748,lexical_decision_task_DD_L3,2021.2.3,MacIntel,30.00120005,0.9691,,,,,,,,,,,,,,,,,,,,,,,,,,,,,,,,,,,,,,,,,,,,,,,,,,,,,1,0,1,0,1,,,,,,,,,,,,,,,,
,0.033355035,-0.448155382,1,0,0,instr_done_button,,,,,,1,test,"In the next phase you will be presented with the words from the the first phase. Your job is to decide whether you remember seeing the word or not. If you remember seeing the word press ""old"" or type ""m"". If you do not remember seeing the word press ""new"" or type ""z"". Please press the space bar or click on continue to begin. ",,,199390,19,2022-01-28_14h13.02.748,lexical_decision_task_DD_L3,2021.2.3,MacIntel,30.00120005,,,,,,,,,,,,,,,,,,,,,,,,,,,,,,,,,,,,,,,,,,,,,,,,,,,,,,2,0,2,0,1,,,,,,,,,,,,,,,,
,0.045434028,-0.411306424,1,0,0,instr_done_button,,,,,,1,test,"In the next phase you will be presented with the words from the the first phase. Your job is to decide whether you remember seeing the word or not. If you remember seeing the word press ""old"" or type ""m"". If you do not remember seeing the word press ""new"" or type ""z"". Please press the space bar or click on continue to begin. ",,,199390,19,2022-01-28_14h13.02.748,lexical_decision_task_DD_L3,2021.2.3,MacIntel,30.00120005,,,,,,,,,,,,,,,,,,,,,,,,,,,,,,,,,,,,,,,,,,,,,,,,,,,,,,3,0,3,0,1,,,,,,,,,,,,,,,,
space,0.045989583,-0.411306424,0,0,0,,,,,,,1,test,"In the next phase you will be presented with the words from the the first phase. Your job is to decide whether you remember seeing the word or not. If you remember seeing the word press ""old"" or type ""m"". If you do not remember seeing the word press ""new"" or type ""z"". Please press the space bar or click on continue to begin. ",,,199390,19,2022-01-28_14h13.02.748,lexical_decision_task_DD_L3,2021.2.3,MacIntel,30.00120005,0.9209,,,,,,,,,,,,,,,,,,,,,,,,,,,,,,,,,,,,,,,,,,,,,,,,,,,,,4,0,4,0,1,,,,,,,,,,,,,,,,
,,,,,,,,,,,,,,,,,199390,19,2022-01-28_14h13.02.748,lexical_decision_task_DD_L3,2021.2.3,MacIntel,30.00120005,,,,,,,,,,,,1.4153,0,,,,,,,,,,,,,,,,,,,,,,,,0.045989583,-0.411306424,0,0,0,,,,,,,CANDLE,C,m,m,./images/CANDLE.png,,,,,,,z,0,1.4153,,,,,,,,0,0,0,61,1,
,,,,,,,,,,,,,,,,,199390,19,2022-01-28_14h13.02.748,lexical_decision_task_DD_L3,2021.2.3,MacIntel,30.00120005,,,,,,,,,,,,0.8169,0,,,,,,,,,,,,,,,,,,,,,,,,0.045989583,-0.411306424,0,0,0,,,,,,,NOOSE,LB,m,m,./images/NOOSELB.png,,,,,,,z,0,0.8169,,,,,,,,0,1,1,72,1,
,,,,,,,,,,,,,,,,,199390,19,2022-01-28_14h13.02.748,lexical_decision_task_DD_L3,2021.2.3,MacIntel,30.00120005,,,,,,,,,,,,1.005,1,,,,,,,,,,,,,,,,,,,,,,,,0.045989583,-0.411306424,0,0,0,,,,,,,COUCH,HB,m,m,./images/COUCHHB.png,,,,,,,m,1,1.005,,,,,,,,0,2,2,77,1,
,,,,,,,,,,,,,,,,,199390,19,2022-01-28_14h13.02.748,lexical_decision_task_DD_L3,2021.2.3,MacIntel,30.00120005,,,,,,,,,,,,1.0425,0,,,,,,,,,,,,,,,,,,,,,,,,0.045989583,-0.411306424,0,0,0,,,,,,,CEMENT,HB,m,m,./images/CEMENTHB.png,,,,,,,z,0,1.0425,,,,,,,,0,3,3,74,1,
,,,,,,,,,,,,,,,,,199390,19,2022-01-28_14h13.02.748,lexical_decision_task_DD_L3,2021.2.3,MacIntel,30.00120005,,,,,,,,,,,,1.3301,0,,,,,,,,,,,,,,,,,,,,,,,,0.045989583,-0.411306424,0,0,0,,,,,,,BRUSH,HB,z,m,./images/BRUSHHB.png,,,,,,,m,0,1.3301,,,,,,,,0,4,4,143,1,
,,,,,,,,,,,,,,,,,199390,19,2022-01-28_14h13.02.748,lexical_decision_task_DD_L3,2021.2.3,MacIntel,30.00120005,,,,,,,,,,,,1.631,0,,,,,,,,,,,,,,,,,,,,,,,,0.045989583,-0.411306424,0,0,0,,,,,,,TORCH,HB,m,m,./images/TORCHHB.png,,,,,,,z,0,1.631,,,,,,,,0,5,5,68,1,
,,,,,,,,,,,,,,,,,199390,19,2022-01-28_14h13.02.748,lexical_decision_task_DD_L3,2021.2.3,MacIntel,30.00120005,,,,,,,,,,,,1.1499,0,,,,,,,,,,,,,,,,,,,,,,,,0.045989583,-0.411306424,0,0,0,,,,,,,FLASK,LB,z,m,./images/FLASKLB.png,,,,,,,m,0,1.1499,,,,,,,,0,6,6,156,1,
,,,,,,,,,,,,,,,,,199390,19,2022-01-28_14h13.02.748,lexical_decision_task_DD_L3,2021.2.3,MacIntel,30.00120005,,,,,,,,,,,,0.9672,1,,,,,,,,,,,,,,,,,,,,,,,,0.045989583,-0.411306424,0,0,0,,,,,,,COLLAR,LB,z,m,./images/COLLARLB.png,,,,,,,z,1,0.9672,,,,,,,,0,7,7,99,1,
,,,,,,,,,,,,,,,,,199390,19,2022-01-28_14h13.02.748,lexical_decision_task_DD_L3,2021.2.3,MacIntel,30.00120005,,,,,,,,,,,,1.2859,1,,,,,,,,,,,,,,,,,,,,,,,,0.045989583,-0.411306424,0,0,0,,,,,,,SLOPE,LB,z,m,./images/SLOPELB.png,,,,,,,z,1,1.2859,,,,,,,,0,8,8,114,1,
,,,,,,,,,,,,,,,,,199390,19,2022-01-28_14h13.02.748,lexical_decision_task_DD_L3,2021.2.3,MacIntel,30.00120005,,,,,,,,,,,,0.9677,1,,,,,,,,,,,,,,,,,,,,,,,,0.045989583,-0.411306424,0,0,0,,,,,,,SAILOR,C,m,m,./images/SAILOR.png,,,,,,,m,1,0.9677,,,,,,,,0,9,9,67,1,
,,,,,,,,,,,,,,,,,199390,19,2022-01-28_14h13.02.748,lexical_decision_task_DD_L3,2021.2.3,MacIntel,30.00120005,,,,,,,,,,,,1.322,1,,,,,,,,,,,,,,,,,,,,,,,,0.045989583,-0.411306424,0,0,0,,,,,,,SAUNA,LB,z,m,./images/SAUNALB.png,,,,,,,z,1,1.322,,,,,,,,0,10,10,117,1,
,,,,,,,,,,,,,,,,,199390,19,2022-01-28_14h13.02.748,lexical_decision_task_DD_L3,2021.2.3,MacIntel,30.00120005,,,,,,,,,,,,0.9042,0,,,,,,,,,,,,,,,,,,,,,,,,0.045989583,-0.411306424,0,0,0,,,,,,,SPORT,LB,m,m,./images/SPORTLB.png,,,,,,,z,0,0.9042,,,,,,,,0,11,11,48,1,
,,,,,,,,,,,,,,,,,199390,19,2022-01-28_14h13.02.748,lexical_decision_task_DD_L3,2021.2.3,MacIntel,30.00120005,,,,,,,,,,,,0.2206,1,,,,,,,,,,,,,,,,,,,,,,,,0.045989583,-0.411306424,0,0,0,,,,,,,DRILL,LB,z,m,./images/DRILLLB.png,,,,,,,z,1,0.2206,,,,,,,,0,12,12,165,1,
,,,,,,,,,,,,,,,,,199390,19,2022-01-28_14h13.02.748,lexical_decision_task_DD_L3,2021.2.3,MacIntel,30.00120005,,,,,,,,,,,,0.7323,1,,,,,,,,,,,,,,,,,,,,,,,,0.045989583,-0.411306424,0,0,0,,,,,,,LADDER,HB,m,m,./images/LADDERHB.png,,,,,,,m,1,0.7323,,,,,,,,0,13,13,38,1,
,,,,,,,,,,,,,,,,,199390,19,2022-01-28_14h13.02.748,lexical_decision_task_DD_L3,2021.2.3,MacIntel,30.00120005,,,,,,,,,,,,0.7213,1,,,,,,,,,,,,,,,,,,,,,,,,0.045989583,-0.411306424,0,0,0,,,,,,,ATTIC,LB,m,m,./images/ATTICLB.png,,,,,,,m,1,0.7213,,,,,,,,0,14,14,27,1,
,,,,,,,,,,,,,,,,,199390,19,2022-01-28_14h13.02.748,lexical_decision_task_DD_L3,2021.2.3,MacIntel,30.00120005,,,,,,,,,,,,1.331,1,,,,,,,,,,,,,,,,,,,,,,,,0.045989583,-0.411306424,0,0,0,,,,,,,MEDAL,HB,z,m,./images/MEDALHB.png,,,,,,,z,1,1.331,,,,,,,,0,15,15,95,1,
,,,,,,,,,,,,,,,,,199390,19,2022-01-28_14h13.02.748,lexical_decision_task_DD_L3,2021.2.3,MacIntel,30.00120005,,,,,,,,,,,,0.7957,1,,,,,,,,,,,,,,,,,,,,,,,,0.045989583,-0.411306424,0,0,0,,,,,,,STOVE,HB,z,m,./images/STOVEHB.png,,,,,,,z,1,0.7957,,,,,,,,0,16,16,86,1,
,,,,,,,,,,,,,,,,,199390,19,2022-01-28_14h13.02.748,lexical_decision_task_DD_L3,2021.2.3,MacIntel,30.00120005,,,,,,,,,,,,0.8615,1,,,,,,,,,,,,,,,,,,,,,,,,0.045989583,-0.411306424,0,0,0,,,,,,,SHELF,LB,m,m,./images/SHELFLB.png,,,,,,,m,1,0.8615,,,,,,,,0,17,17,39,1,
,,,,,,,,,,,,,,,,,199390,19,2022-01-28_14h13.02.748,lexical_decision_task_DD_L3,2021.2.3,MacIntel,30.00120005,,,,,,,,,,,,1.1467,1,,,,,,,,,,,,,,,,,,,,,,,,0.045989583,-0.411306424,0,0,0,,,,,,,TOMATO,LB,m,m,./images/TOMATOLB.png,,,,,,,m,1,1.1467,,,,,,,,0,18,18,0,1,
,,,,,,,,,,,,,,,,,199390,19,2022-01-28_14h13.02.748,lexical_decision_task_DD_L3,2021.2.3,MacIntel,30.00120005,,,,,,,,,,,,0.8197,1,,,,,,,,,,,,,,,,,,,,,,,,0.045989583,-0.411306424,0,0,0,,,,,,,BELLY,C,m,m,./images/BELLY.png,,,,,,,m,1,0.8197,,,,,,,,0,19,19,10,1,
,,,,,,,,,,,,,,,,,199390,19,2022-01-28_14h13.02.748,lexical_decision_task_DD_L3,2021.2.3,MacIntel,30.00120005,,,,,,,,,,,,1.092,1,,,,,,,,,,,,,,,,,,,,,,,,0.045989583,-0.411306424,0,0,0,,,,,,,SUNSET,C,m,m,./images/SUNSET.png,,,,,,,m,1,1.092,,,,,,,,0,20,20,82,1,
,,,,,,,,,,,,,,,,,199390,19,2022-01-28_14h13.02.748,lexical_decision_task_DD_L3,2021.2.3,MacIntel,30.00120005,,,,,,,,,,,,1.3498,0,,,,,,,,,,,,,,,,,,,,,,,,0.045989583,-0.411306424,0,0,0,,,,,,,FERRY,LB,z,m,./images/FERRYLB.png,,,,,,,m,0,1.3498,,,,,,,,0,21,21,141,1,
,,,,,,,,,,,,,,,,,199390,19,2022-01-28_14h13.02.748,lexical_decision_task_DD_L3,2021.2.3,MacIntel,30.00120005,,,,,,,,,,,,1.5825,0,,,,,,,,,,,,,,,,,,,,,,,,0.045989583,-0.411306424,0,0,0,,,,,,,CRUMB,HB,m,m,./images/CRUMBHB.png,,,,,,,z,0,1.5825,,,,,,,,0,22,22,29,1,
,,,,,,,,,,,,,,,,,199390,19,2022-01-28_14h13.02.748,lexical_decision_task_DD_L3,2021.2.3,MacIntel,30.00120005,,,,,,,,,,,,1.5958,1,,,,,,,,,,,,,,,,,,,,,,,,0.045989583,-0.411306424,0,0,0,,,,,,,DIVER,LB,z,m,./images/DIVERLB.png,,,,,,,z,1,1.5958,,,,,,,,0,23,23,93,1,
,,,,,,,,,,,,,,,,,199390,19,2022-01-28_14h13.02.748,lexical_decision_task_DD_L3,2021.2.3,MacIntel,30.00120005,,,,,,,,,,,,1.1326,1,,,,,,,,,,,,,,,,,,,,,,,,0.045989583,-0.411306424,0,0,0,,,,,,,CASINO,C,z,m,./images/CASINO.png,,,,,,,z,1,1.1326,,,,,,,,0,24,24,112,1,
,,,,,,,,,,,,,,,,,199390,19,2022-01-28_14h13.02.748,lexical_decision_task_DD_L3,2021.2.3,MacIntel,30.00120005,,,,,,,,,,,,2.5316,0,,,,,,,,,,,,,,,,,,,,,,,,0.045989583,-0.411306424,0,0,0,,,,,,,SWEAT,LB,m,m,./images/SWEATLB.png,,,,,,,z,0,2.5316,,,,,,,,0,25,25,66,1,
,,,,,,,,,,,,,,,,,199390,19,2022-01-28_14h13.02.748,lexical_decision_task_DD_L3,2021.2.3,MacIntel,30.00120005,,,,,,,,,,,,1.0068,1,,,,,,,,,,,,,,,,,,,,,,,,0.045989583,-0.411306424,0,0,0,,,,,,,BAKER,LB,z,m,./images/BAKERLB.png,,,,,,,z,1,1.0068,,,,,,,,0,26,26,147,1,
,,,,,,,,,,,,,,,,,199390,19,2022-01-28_14h13.02.748,lexical_decision_task_DD_L3,2021.2.3,MacIntel,30.00120005,,,,,,,,,,,,0.8666,1,,,,,,,,,,,,,,,,,,,,,,,,0.045989583,-0.411306424,0,0,0,,,,,,,DESERT,C,z,m,./images/DESERT.png,,,,,,,z,1,0.8666,,,,,,,,0,27,27,136,1,
,,,,,,,,,,,,,,,,,199390,19,2022-01-28_14h13.02.748,lexical_decision_task_DD_L3,2021.2.3,MacIntel,30.00120005,,,,,,,,,,,,0.5855,0,,,,,,,,,,,,,,,,,,,,,,,,0.045989583,-0.411306424,0,0,0,,,,,,,CLOTH,HB,z,m,./images/CLOTHHB.png,,,,,,,m,0,0.5855,,,,,,,,0,28,28,107,1,
,,,,,,,,,,,,,,,,,199390,19,2022-01-28_14h13.02.748,lexical_decision_task_DD_L3,2021.2.3,MacIntel,30.00120005,,,,,,,,,,,,0.6076,0,,,,,,,,,,,,,,,,,,,,,,,,0.045989583,-0.411306424,0,0,0,,,,,,,TOWEL,C,z,m,./images/TOWEL.png,,,,,,,m,0,0.6076,,,,,,,,0,29,29,85,1,
,,,,,,,,,,,,,,,,,199390,19,2022-01-28_14h13.02.748,lexical_decision_task_DD_L3,2021.2.3,MacIntel,30.00120005,,,,,,,,,,,,0.7859,1,,,,,,,,,,,,,,,,,,,,,,,,0.045989583,-0.411306424,0,0,0,,,,,,,MELON,C,m,m,./images/MELON.png,,,,,,,m,1,0.7859,,,,,,,,0,30,30,22,1,
,,,,,,,,,,,,,,,,,199390,19,2022-01-28_14h13.02.748,lexical_decision_task_DD_L3,2021.2.3,MacIntel,30.00120005,,,,,,,,,,,,0.787,1,,,,,,,,,,,,,,,,,,,,,,,,0.045989583,-0.411306424,0,0,0,,,,,,,LAGOON,HB,z,m,./images/LAGOONHB.png,,,,,,,z,1,0.787,,,,,,,,0,31,31,131,1,
,,,,,,,,,,,,,,,,,199390,19,2022-01-28_14h13.02.748,lexical_decision_task_DD_L3,2021.2.3,MacIntel,30.00120005,,,,,,,,,,,,1.0818,1,,,,,,,,,,,,,,,,,,,,,,,,0.045989583,-0.411306424,0,0,0,,,,,,,SKIING,HB,m,m,./images/SKIINGHB.png,,,,,,,m,1,1.0818,,,,,,,,0,32,32,17,1,
,,,,,,,,,,,,,,,,,199390,19,2022-01-28_14h13.02.748,lexical_decision_task_DD_L3,2021.2.3,MacIntel,30.00120005,,,,,,,,,,,,1.124,1,,,,,,,,,,,,,,,,,,,,,,,,0.045989583,-0.411306424,0,0,0,,,,,,,BISHOP,C,z,m,./images/BISHOP.png,,,,,,,z,1,1.124,,,,,,,,0,33,33,133,1,
,,,,,,,,,,,,,,,,,199390,19,2022-01-28_14h13.02.748,lexical_decision_task_DD_L3,2021.2.3,MacIntel,30.00120005,,,,,,,,,,,,0.9086,1,,,,,,,,,,,,,,,,,,,,,,,,0.045989583,-0.411306424,0,0,0,,,,,,,BAMBOO,HB,z,m,./images/BAMBOOHB.png,,,,,,,z,1,0.9086,,,,,,,,0,34,34,89,1,
,,,,,,,,,,,,,,,,,199390,19,2022-01-28_14h13.02.748,lexical_decision_task_DD_L3,2021.2.3,MacIntel,30.00120005,,,,,,,,,,,,0.9323,1,,,,,,,,,,,,,,,,,,,,,,,,0.045989583,-0.411306424,0,0,0,,,,,,,GRANNY,HB,z,m,./images/GRANNYHB.png,,,,,,,z,1,0.9323,,,,,,,,0,35,35,104,1,
,,,,,,,,,,,,,,,,,199390,19,2022-01-28_14h13.02.748,lexical_decision_task_DD_L3,2021.2.3,MacIntel,30.00120005,,,,,,,,,,,,0.9059,1,,,,,,,,,,,,,,,,,,,,,,,,0.045989583,-0.411306424,0,0,0,,,,,,,PICKLE,HB,m,m,./images/PICKLEHB.png,,,,,,,m,1,0.9059,,,,,,,,0,36,36,14,1,
,,,,,,,,,,,,,,,,,199390,19,2022-01-28_14h13.02.748,lexical_decision_task_DD_L3,2021.2.3,MacIntel,30.00120005,,,,,,,,,,,,0.7297,1,,,,,,,,,,,,,,,,,,,,,,,,0.045989583,-0.411306424,0,0,0,,,,,,,PACKET,HB,m,m,./images/PACKETHB.png,,,,,,,m,1,0.7297,,,,,,,,0,37,37,56,1,
,,,,,,,,,,,,,,,,,199390,19,2022-01-28_14h13.02.748,lexical_decision_task_DD_L3,2021.2.3,MacIntel,30.00120005,,,,,,,,,,,,0.936,1,,,,,,,,,,,,,,,,,,,,,,,,0.045989583,-0.411306424,0,0,0,,,,,,,ENGINE,HB,z,m,./images/ENGINEHB.png,,,,,,,z,1,0.936,,,,,,,,0,38,38,122,1,
,,,,,,,,,,,,,,,,,199390,19,2022-01-28_14h13.02.748,lexical_decision_task_DD_L3,2021.2.3,MacIntel,30.00120005,,,,,,,,,,,,1.9328,1,,,,,,,,,,,,,,,,,,,,,,,,0.045989583,-0.411306424,0,0,0,,,,,,,PENCE,C,m,m,./images/PENCE.png,,,,,,,m,1,1.9328,,,,,,,,0,39,39,16,1,
,,,,,,,,,,,,,,,,,199390,19,2022-01-28_14h13.02.748,lexical_decision_task_DD_L3,2021.2.3,MacIntel,30.00120005,,,,,,,,,,,,1.2012,1,,,,,,,,,,,,,,,,,,,,,,,,0.045989583,-0.411306424,0,0,0,,,,,,,FENCE,HB,z,m,./images/FENCEHB.png,,,,,,,z,1,1.2012,,,,,,,,0,40,40,98,1,
,,,,,,,,,,,,,,,,,199390,19,2022-01-28_14h13.02.748,lexical_decision_task_DD_L3,2021.2.3,MacIntel,30.00120005,,,,,,,,,,,,1.5534,0,,,,,,,,,,,,,,,,,,,,,,,,0.041488715,-0.402565104,1,0,0,,,,,,,PILOT,HB,z,m,./images/PILOTHB.png,,,,,,,m,0,1.5534,,,,,,,,0,41,41,134,1,break_done_button
,,,,,,,,,,,,,,,,,199390,19,2022-01-28_14h13.02.748,lexical_decision_task_DD_L3,2021.2.3,MacIntel,30.00120005,,,,,,,,,,,,0.93,1,,,,,,,,,,,,,,,,,,,,,,,,0.041488715,-0.402009549,0,0,0,,,,,,,PARCEL,LB,z,m,./images/PARCELLB.png,,,,,,,z,1,0.93,,,,,,,,0,42,42,102,1,
,,,,,,,,,,,,,,,,,199390,19,2022-01-28_14h13.02.748,lexical_decision_task_DD_L3,2021.2.3,MacIntel,30.00120005,,,,,,,,,,,,0.6845,1,,,,,,,,,,,,,,,,,,,,,,,,0.041488715,-0.402009549,0,0,0,,,,,,,CARPET,HB,m,m,./images/CARPETHB.png,,,,,,,m,1,0.6845,,,,,,,,0,43,43,53,1,
,,,,,,,,,,,,,,,,,199390,19,2022-01-28_14h13.02.748,lexical_decision_task_DD_L3,2021.2.3,MacIntel,30.00120005,,,,,,,,,,,,1.0629,1,,,,,,,,,,,,,,,,,,,,,,,,0.041488715,-0.402009549,0,0,0,,,,,,,PEARL,C,m,m,./images/PEARL.png,,,,,,,m,1,1.0629,,,,,,,,0,44,44,46,1,
,,,,,,,,,,,,,,,,,199390,19,2022-01-28_14h13.02.748,lexical_decision_task_DD_L3,2021.2.3,MacIntel,30.00120005,,,,,,,,,,,,1.1995,1,,,,,,,,,,,,,,,,,,,,,,,,0.041488715,-0.402009549,0,0,0,,,,,,,MOSQUE,C,m,m,./images/MOSQUE.png,,,,,,,m,1,1.1995,,,,,,,,0,45,45,43,1,
,,,,,,,,,,,,,,,,,199390,19,2022-01-28_14h13.02.748,lexical_decision_task_DD_L3,2021.2.3,MacIntel,30.00120005,,,,,,,,,,,,0.6956,1,,,,,,,,,,,,,,,,,,,,,,,,0.041488715,-0.402009549,0,0,0,,,,,,,FALCON,C,m,m,./images/FALCON.png,,,,,,,m,1,0.6956,,,,,,,,0,46,46,28,1,
,,,,,,,,,,,,,,,,,199390,19,2022-01-28_14h13.02.748,lexical_decision_task_DD_L3,2021.2.3,MacIntel,30.00120005,,,,,,,,,,,,0.8151,1,,,,,,,,,,,,,,,,,,,,,,,,0.041488715,-0.402009549,0,0,0,,,,,,,MIDGET,C,z,m,./images/MIDGET.png,,,,,,,z,1,0.8151,,,,,,,,0,47,47,160,1,
,,,,,,,,,,,,,,,,,199390,19,2022-01-28_14h13.02.748,lexical_decision_task_DD_L3,2021.2.3,MacIntel,30.00120005,,,,,,,,,,,,1.216,1,,,,,,,,,,,,,,,,,,,,,,,,0.041488715,-0.402009549,0,0,0,,,,,,,THROAT,LB,m,m,./images/THROATLB.png,,,,,,,m,1,1.216,,,,,,,,0,48,48,36,1,
,,,,,,,,,,,,,,,,,199390,19,2022-01-28_14h13.02.748,lexical_decision_task_DD_L3,2021.2.3,MacIntel,30.00120005,,,,,,,,,,,,0.8204,1,,,,,,,,,,,,,,,,,,,,,,,,0.041488715,-0.402009549,0,0,0,,,,,,,HEATER,HB,z,m,./images/HEATERHB.png,,,,,,,z,1,0.8204,,,,,,,,0,49,49,140,1,
,,,,,,,,,,,,,,,,,199390,19,2022-01-28_14h13.02.748,lexical_decision_task_DD_L3,2021.2.3,MacIntel,30.00120005,,,,,,,,,,,,0.8176,1,,,,,,,,,,,,,,,,,,,,,,,,0.041488715,-0.402009549,0,0,0,,,,,,,BIRTH,C,m,m,./images/BIRTH.png,,,,,,,m,1,0.8176,,,,,,,,0,50,50,37,1,
,,,,,,,,,,,,,,,,,199390,19,2022-01-28_14h13.02.748,lexical_decision_task_DD_L3,2021.2.3,MacIntel,30.00120005,,,,,,,,,,,,0.7172,1,,,,,,,,,,,,,,,,,,,,,,,,0.041488715,-0.402009549,0,0,0,,,,,,,MAGGOT,LB,m,m,./images/MAGGOTLB.png,,,,,,,m,1,0.7172,,,,,,,,0,51,51,33,1,
,,,,,,,,,,,,,,,,,199390,19,2022-01-28_14h13.02.748,lexical_decision_task_DD_L3,2021.2.3,MacIntel,30.00120005,,,,,,,,,,,,0.0717,0,,,,,,,,,,,,,,,,,,,,,,,,0.041488715,-0.402009549,0,0,0,,,,,,,ARROW,LB,z,m,./images/ARROWLB.png,,,,,,,m,0,0.0717,,,,,,,,0,52,52,153,1,
,,,,,,,,,,,,,,,,,199390,19,2022-01-28_14h13.02.748,lexical_decision_task_DD_L3,2021.2.3,MacIntel,30.00120005,,,,,,,,,,,,0.865,1,,,,,,,,,,,,,,,,,,,,,,,,0.041488715,-0.402009549,0,0,0,,,,,,,MAMMAL,HB,z,m,./images/MAMMALHB.png,,,,,,,z,1,0.865,,,,,,,,0,53,53,146,1,
,,,,,,,,,,,,,,,,,199390,19,2022-01-28_14h13.02.748,lexical_decision_task_DD_L3,2021.2.3,MacIntel,30.00120005,,,,,,,,,,,,1.0358,1,,,,,,,,,,,,,,,,,,,,,,,,0.041488715,-0.402009549,0,0,0,,,,,,,MOTOR,C,m,m,./images/MOTOR.png,,,,,,,m,1,1.0358,,,,,,,,0,54,54,13,1,
,,,,,,,,,,,,,,,,,199390,19,2022-01-28_14h13.02.748,lexical_decision_task_DD_L3,2021.2.3,MacIntel,30.00120005,,,,,,,,,,,,1.3188,1,,,,,,,,,,,,,,,,,,,,,,,,0.041488715,-0.402009549,0,0,0,,,,,,,CHERRY,LB,z,m,./images/CHERRYLB.png,,,,,,,z,1,1.3188,,,,,,,,0,55,55,138,1,
,,,,,,,,,,,,,,,,,199390,19,2022-01-28_14h13.02.748,lexical_decision_task_DD_L3,2021.2.3,MacIntel,30.00120005,,,,,,,,,,,,0.8205,1,,,,,,,,,,,,,,,,,,,,,,,,0.041488715,-0.402009549,0,0,0,,,,,,,LLAMA,HB,z,m,./images/LLAMAHB.png,,,,,,,z,1,0.8205,,,,,,,,0,56,56,119,1,
,,,,,,,,,,,,,,,,,199390,19,2022-01-28_14h13.02.748,lexical_decision_task_DD_L3,2021.2.3,MacIntel,30.00120005,,,,,,,,,,,,0.7283,1,,,,,,,,,,,,,,,,,,,,,,,,0.041488715,-0.402009549,0,0,0,,,,,,,DANCER,LB,z,m,./images/DANCERLB.png,,,,,,,z,1,0.7283,,,,,,,,0,57,57,105,1,
,,,,,,,,,,,,,,,,,199390,19,2022-01-28_14h13.02.748,lexical_decision_task_DD_L3,2021.2.3,MacIntel,30.00120005,,,,,,,,,,,,0.6701,1,,,,,,,,,,,,,,,,,,,,,,,,0.041488715,-0.402009549,0,0,0,,,,,,,URINE,C,m,m,./images/URINE.png,,,,,,,m,1,0.6701,,,,,,,,0,58,58,70,1,
,,,,,,,,,,,,,,,,,199390,19,2022-01-28_14h13.02.748,lexical_decision_task_DD_L3,2021.2.3,MacIntel,30.00120005,,,,,,,,,,,,0.7175,0,,,,,,,,,,,,,,,,,,,,,,,,0.041488715,-0.402009549,0,0,0,,,,,,,STAIN,LB,z,m,./images/STAINLB.png,,,,,,,m,0,0.7175,,,,,,,,0,59,59,90,1,
,,,,,,,,,,,,,,,,,199390,19,2022-01-28_14h13.02.748,lexical_decision_task_DD_L3,2021.2.3,MacIntel,30.00120005,,,,,,,,,,,,0.6504,1,,,,,,,,,,,,,,,,,,,,,,,,0.041488715,-0.402009549,0,0,0,,,,,,,WRIST,C,m,m,./images/WRIST.png,,,,,,,m,1,0.6504,,,,,,,,0,60,60,25,1,
,,,,,,,,,,,,,,,,,199390,19,2022-01-28_14h13.02.748,lexical_decision_task_DD_L3,2021.2.3,MacIntel,30.00120005,,,,,,,,,,,,0.7395,1,,,,,,,,,,,,,,,,,,,,,,,,0.041488715,-0.402009549,0,0,0,,,,,,,BANANA,C,z,m,./images/BANANA.png,,,,,,,z,1,0.7395,,,,,,,,0,61,61,154,1,
,,,,,,,,,,,,,,,,,199390,19,2022-01-28_14h13.02.748,lexical_decision_task_DD_L3,2021.2.3,MacIntel,30.00120005,,,,,,,,,,,,1.2169,1,,,,,,,,,,,,,,,,,,,,,,,,0.041488715,-0.402009549,0,0,0,,,,,,,LITTER,LB,m,m,./images/LITTERLB.png,,,,,,,m,1,1.2169,,,,,,,,0,62,62,78,1,
,,,,,,,,,,,,,,,,,199390,19,2022-01-28_14h13.02.748,lexical_decision_task_DD_L3,2021.2.3,MacIntel,30.00120005,,,,,,,,,,,,1.9649,0,,,,,,,,,,,,,,,,,,,,,,,,0.041488715,-0.402009549,0,0,0,,,,,,,CRATER,LB,z,m,./images/CRATERLB.png,,,,,,,m,0,1.9649,,,,,,,,0,63,63,87,1,
,,,,,,,,,,,,,,,,,199390,19,2022-01-28_14h13.02.748,lexical_decision_task_DD_L3,2021.2.3,MacIntel,30.00120005,,,,,,,,,,,,0.7646,1,,,,,,,,,,,,,,,,,,,,,,,,0.041488715,-0.402009549,0,0,0,,,,,,,LIZARD,HB,m,m,./images/LIZARDHB.png,,,,,,,m,1,0.7646,,,,,,,,0,64,64,44,1,
,,,,,,,,,,,,,,,,,199390,19,2022-01-28_14h13.02.748,lexical_decision_task_DD_L3,2021.2.3,MacIntel,30.00120005,,,,,,,,,,,,0.7395,0,,,,,,,,,,,,,,,,,,,,,,,,0.041488715,-0.402009549,0,0,0,,,,,,,BLOKE,LB,z,m,./images/BLOKELB.png,,,,,,,m,0,0.7395,,,,,,,,0,65,65,96,1,
,,,,,,,,,,,,,,,,,199390,19,2022-01-28_14h13.02.748,lexical_decision_task_DD_L3,2021.2.3,MacIntel,30.00120005,,,,,,,,,,,,0.6178,1,,,,,,,,,,,,,,,,,,,,,,,,0.041488715,-0.402009549,0,0,0,,,,,,,PIMPLE,HB,m,m,./images/PIMPLEHB.png,,,,,,,m,1,0.6178,,,,,,,,0,66,66,71,1,
,,,,,,,,,,,,,,,,,199390,19,2022-01-28_14h13.02.748,lexical_decision_task_DD_L3,2021.2.3,MacIntel,30.00120005,,,,,,,,,,,,0.897,1,,,,,,,,,,,,,,,,,,,,,,,,0.041488715,-0.402009549,0,0,0,,,,,,,MONKEY,LB,z,m,./images/MONKEYLB.png,,,,,,,z,1,0.897,,,,,,,,0,67,67,129,1,
,,,,,,,,,,,,,,,,,199390,19,2022-01-28_14h13.02.748,lexical_decision_task_DD_L3,2021.2.3,MacIntel,30.00120005,,,,,,,,,,,,0.8341,1,,,,,,,,,,,,,,,,,,,,,,,,0.041488715,-0.402009549,0,0,0,,,,,,,CANOE,C,z,m,./images/CANOE.png,,,,,,,z,1,0.8341,,,,,,,,0,68,68,142,1,
,,,,,,,,,,,,,,,,,199390,19,2022-01-28_14h13.02.748,lexical_decision_task_DD_L3,2021.2.3,MacIntel,30.00120005,,,,,,,,,,,,1.0629,1,,,,,,,,,,,,,,,,,,,,,,,,0.041488715,-0.402009549,0,0,0,,,,,,,GLOVE,C,z,m,./images/GLOVE.png,,,,,,,z,1,1.0629,,,,,,,,0,69,69,157,1,
,,,,,,,,,,,,,,,,,199390,19,2022-01-28_14h13.02.748,lexical_decision_task_DD_L3,2021.2.3,MacIntel,30.00120005,,,,,,,,,,,,1.0544,1,,,,,,,,,,,,,,,,,,,,,,,,0.041488715,-0.402009549,0,0,0,,,,,,,CANDY,LB,z,m,./images/CANDYLB.png,,,,,,,z,1,1.0544,,,,,,,,0,70,70,123,1,
,,,,,,,,,,,,,,,,,199390,19,2022-01-28_14h13.02.748,lexical_decision_task_DD_L3,2021.2.3,MacIntel,30.00120005,,,,,,,,,,,,0.838,1,,,,,,,,,,,,,,,,,,,,,,,,0.041488715,-0.402009549,0,0,0,,,,,,,PASTA,HB,m,m,./images/PASTAHB.png,,,,,,,m,1,0.838,,,,,,,,0,71,71,5,1,
,,,,,,,,,,,,,,,,,199390,19,2022-01-28_14h13.02.748,lexical_decision_task_DD_L3,2021.2.3,MacIntel,30.00120005,,,,,,,,,,,,0.7296,1,,,,,,,,,,,,,,,,,,,,,,,,0.041488715,-0.402009549,0,0,0,,,,,,,FINGER,LB,m,m,./images/FINGERLB.png,,,,,,,m,1,0.7296,,,,,,,,0,72,72,3,1,
,,,,,,,,,,,,,,,,,199390,19,2022-01-28_14h13.02.748,lexical_decision_task_DD_L3,2021.2.3,MacIntel,30.00120005,,,,,,,,,,,,0.656,1,,,,,,,,,,,,,,,,,,,,,,,,0.041488715,-0.402009549,0,0,0,,,,,,,PURSE,HB,m,m,./images/PURSEHB.png,,,,,,,m,1,0.656,,,,,,,,0,73,73,62,1,
,,,,,,,,,,,,,,,,,199390,19,2022-01-28_14h13.02.748,lexical_decision_task_DD_L3,2021.2.3,MacIntel,30.00120005,,,,,,,,,,,,0.8078,1,,,,,,,,,,,,,,,,,,,,,,,,0.041488715,-0.402009549,0,0,0,,,,,,,DRUMS,C,m,m,./images/DRUMS.png,,,,,,,m,1,0.8078,,,,,,,,0,74,74,49,1,
,,,,,,,,,,,,,,,,,199390,19,2022-01-28_14h13.02.748,lexical_decision_task_DD_L3,2021.2.3,MacIntel,30.00120005,,,,,,,,,,,,0.8201,0,,,,,,,,,,,,,,,,,,,,,,,,0.041488715,-0.402009549,0,0,0,,,,,,,TRIPOD,LB,m,m,./images/TRIPODLB.png,,,,,,,z,0,0.8201,,,,,,,,0,75,75,54,1,
,,,,,,,,,,,,,,,,,199390,19,2022-01-28_14h13.02.748,lexical_decision_task_DD_L3,2021.2.3,MacIntel,30.00120005,,,,,,,,,,,,1.3817,0,,,,,,,,,,,,,,,,,,,,,,,,0.041488715,-0.402009549,0,0,0,,,,,,,HOCKEY,HB,z,m,./images/HOCKEYHB.png,,,,,,,m,0,1.3817,,,,,,,,0,76,76,116,1,
,,,,,,,,,,,,,,,,,199390,19,2022-01-28_14h13.02.748,lexical_decision_task_DD_L3,2021.2.3,MacIntel,30.00120005,,,,,,,,,,,,1.1853,0,,,,,,,,,,,,,,,,,,,,,,,,0.041488715,-0.402009549,0,0,0,,,,,,,SNAKE,C,z,m,./images/SNAKE.png,,,,,,,m,0,1.1853,,,,,,,,0,77,77,124,1,
,,,,,,,,,,,,,,,,,199390,19,2022-01-28_14h13.02.748,lexical_decision_task_DD_L3,2021.2.3,MacIntel,30.00120005,,,,,,,,,,,,3.9845,1,,,,,,,,,,,,,,,,,,,,,,,,0.041488715,-0.402009549,0,0,0,,,,,,,MUFFIN,C,m,m,./images/MUFFIN.png,,,,,,,m,1,3.9845,,,,,,,,0,78,78,55,1,
,,,,,,,,,,,,,,,,,199390,19,2022-01-28_14h13.02.748,lexical_decision_task_DD_L3,2021.2.3,MacIntel,30.00120005,,,,,,,,,,,,1.3684,1,,,,,,,,,,,,,,,,,,,,,,,,0.041488715,-0.402009549,0,0,0,,,,,,,STREAM,HB,z,m,./images/STREAMHB.png,,,,,,,z,1,1.3684,,,,,,,,0,79,79,125,1,
,,,,,,,,,,,,,,,,,199390,19,2022-01-28_14h13.02.748,lexical_decision_task_DD_L3,2021.2.3,MacIntel,30.00120005,,,,,,,,,,,,5.5027,0,,,,,,,,,,,,,,,,,,,,,,,,0.041488715,-0.402009549,0,0,0,,,,,,,BUTTER,LB,z,m,./images/BUTTERLB.png,,,,,,,m,0,5.5027,,,,,,,,0,80,80,111,1,
,,,,,,,,,,,,,,,,,199390,19,2022-01-28_14h13.02.748,lexical_decision_task_DD_L3,2021.2.3,MacIntel,30.00120005,,,,,,,,,,,,8.4676,0,,,,,,,,,,,,,,,,,,,,,,,,0.041488715,-0.402009549,0,0,0,,,,,,,HAMMER,LB,z,m,./images/HAMMERLB.png,,,,,,,m,0,8.4676,,,,,,,,0,81,81,159,1,
,,,,,,,,,,,,,,,,,199390,19,2022-01-28_14h13.02.748,lexical_decision_task_DD_L3,2021.2.3,MacIntel,30.00120005,,,,,,,,,,,,0.858,1,,,,,,,,,,,,,,,,,,,,,,,,0.041488715,-0.402009549,0,0,0,,,,,,,STOOL,C,z,m,./images/STOOL.png,,,,,,,z,1,0.858,,,,,,,,0,82,82,127,1,
,,,,,,,,,,,,,,,,,199390,19,2022-01-28_14h13.02.748,lexical_decision_task_DD_L3,2021.2.3,MacIntel,30.00120005,,,,,,,,,,,,0.8321,1,,,,,,,,,,,,,,,,,,,,,,,,0.041488715,-0.402009549,0,0,0,space,,,,,,QUILL,C,m,m,./images/QUILL.png,21.9787,,,,,,m,1,0.8321,,,,,,,,0,83,83,31,1,
,,,,,,,,,,,,,,,,,199390,19,2022-01-28_14h13.02.748,lexical_decision_task_DD_L3,2021.2.3,MacIntel,30.00120005,,,,,,,,,,,,1.0562,1,,,,,,,,,,,,,,,,,,,,,,,,0.041488715,-0.402009549,0,0,0,,,,,,,RAZOR,C,z,m,./images/RAZOR.png,,,,,,,z,1,1.0562,,,,,,,,0,84,84,118,1,
,,,,,,,,,,,,,,,,,199390,19,2022-01-28_14h13.02.748,lexical_decision_task_DD_L3,2021.2.3,MacIntel,30.00120005,,,,,,,,,,,,0.7828,1,,,,,,,,,,,,,,,,,,,,,,,,0.041488715,-0.402009549,0,0,0,,,,,,,BOILER,LB,z,m,./images/BOILERLB.png,,,,,,,z,1,0.7828,,,,,,,,0,85,85,120,1,
,,,,,,,,,,,,,,,,,199390,19,2022-01-28_14h13.02.748,lexical_decision_task_DD_L3,2021.2.3,MacIntel,30.00120005,,,,,,,,,,,,0.8315,1,,,,,,,,,,,,,,,,,,,,,,,,0.041488715,-0.402009549,0,0,0,,,,,,,SHORE,LB,m,m,./images/SHORELB.png,,,,,,,m,1,0.8315,,,,,,,,0,86,86,12,1,
,,,,,,,,,,,,,,,,,199390,19,2022-01-28_14h13.02.748,lexical_decision_task_DD_L3,2021.2.3,MacIntel,30.00120005,,,,,,,,,,,,1.0144,1,,,,,,,,,,,,,,,,,,,,,,,,0.041488715,-0.402009549,0,0,0,,,,,,,STATUE,LB,z,m,./images/STATUELB.png,,,,,,,z,1,1.0144,,,,,,,,0,87,87,150,1,
,,,,,,,,,,,,,,,,,199390,19,2022-01-28_14h13.02.748,lexical_decision_task_DD_L3,2021.2.3,MacIntel,30.00120005,,,,,,,,,,,,0.819,1,,,,,,,,,,,,,,,,,,,,,,,,0.041488715,-0.402009549,0,0,0,,,,,,,MIRROR,LB,m,m,./images/MIRRORLB.png,,,,,,,m,1,0.819,,,,,,,,0,88,88,63,1,
,,,,,,,,,,,,,,,,,199390,19,2022-01-28_14h13.02.748,lexical_decision_task_DD_L3,2021.2.3,MacIntel,30.00120005,,,,,,,,,,,,0.6769,0,,,,,,,,,,,,,,,,,,,,,,,,0.041488715,-0.402009549,0,0,0,,,,,,,ARTIST,C,z,m,./images/ARTIST.png,,,,,,,m,0,0.6769,,,,,,,,0,89,89,145,1,
,,,,,,,,,,,,,,,,,199390,19,2022-01-28_14h13.02.748,lexical_decision_task_DD_L3,2021.2.3,MacIntel,30.00120005,,,,,,,,,,,,0.6636,1,,,,,,,,,,,,,,,,,,,,,,,,0.041488715,-0.402009549,0,0,0,,,,,,,PLANK,C,m,m,./images/PLANK.png,,,,,,,m,1,0.6636,,,,,,,,0,90,90,1,1,
,,,,,,,,,,,,,,,,,199390,19,2022-01-28_14h13.02.748,lexical_decision_task_DD_L3,2021.2.3,MacIntel,30.00120005,,,,,,,,,,,,0.8184,0,,,,,,,,,,,,,,,,,,,,,,,,0.041488715,-0.402009549,0,0,0,,,,,,,BEARD,HB,m,m,./images/BEARDHB.png,,,,,,,z,0,0.8184,,,,,,,,0,91,91,2,1,
,,,,,,,,,,,,,,,,,199390,19,2022-01-28_14h13.02.748,lexical_decision_task_DD_L3,2021.2.3,MacIntel,30.00120005,,,,,,,,,,,,0.5594,0,,,,,,,,,,,,,,,,,,,,,,,,0.041488715,-0.402009549,0,0,0,,,,,,,PAINT,C,m,m,./images/PAINT.png,,,,,,,z,0,0.5594,,,,,,,,0,92,92,7,1,
,,,,,,,,,,,,,,,,,199390,19,2022-01-28_14h13.02.748,lexical_decision_task_DD_L3,2021.2.3,MacIntel,30.00120005,,,,,,,,,,,,0.6637,0,,,,,,,,,,,,,,,,,,,,,,,,0.041488715,-0.402009549,0,0,0,,,,,,,WHEEL,HB,z,m,./images/WHEELHB.png,,,,,,,m,0,0.6637,,,,,,,,0,93,93,161,1,
,,,,,,,,,,,,,,,,,199390,19,2022-01-28_14h13.02.748,lexical_decision_task_DD_L3,2021.2.3,MacIntel,30.00120005,,,,,,,,,,,,0.731,1,,,,,,,,,,,,,,,,,,,,,,,,0.041488715,-0.402009549,0,0,0,,,,,,,GRAIN,LB,m,m,./images/GRAINLB.png,,,,,,,m,1,0.731,,,,,,,,0,94,94,75,1,
,,,,,,,,,,,,,,,,,199390,19,2022-01-28_14h13.02.748,lexical_decision_task_DD_L3,2021.2.3,MacIntel,30.00120005,,,,,,,,,,,,0.9177,1,,,,,,,,,,,,,,,,,,,,,,,,0.041488715,-0.402009549,0,0,0,,,,,,,BUBBLE,HB,z,m,./images/BUBBLEHB.png,,,,,,,z,1,0.9177,,,,,,,,0,95,95,155,1,
,,,,,,,,,,,,,,,,,199390,19,2022-01-28_14h13.02.748,lexical_decision_task_DD_L3,2021.2.3,MacIntel,30.00120005,,,,,,,,,,,,0.7751,1,,,,,,,,,,,,,,,,,,,,,,,,0.041488715,-0.402009549,0,0,0,,,,,,,CLOWN,C,z,m,./images/CLOWN.png,,,,,,,z,1,0.7751,,,,,,,,0,96,96,106,1,
,,,,,,,,,,,,,,,,,199390,19,2022-01-28_14h13.02.748,lexical_decision_task_DD_L3,2021.2.3,MacIntel,30.00120005,,,,,,,,,,,,0.8907,1,,,,,,,,,,,,,,,,,,,,,,,,0.041488715,-0.402009549,0,0,0,,,,,,,RULER,C,z,m,./images/RULER.png,,,,,,,z,1,0.8907,,,,,,,,0,97,97,163,1,
,,,,,,,,,,,,,,,,,199390,19,2022-01-28_14h13.02.748,lexical_decision_task_DD_L3,2021.2.3,MacIntel,30.00120005,,,,,,,,,,,,0.8084,1,,,,,,,,,,,,,,,,,,,,,,,,0.041488715,-0.402009549,0,0,0,,,,,,,PISTOL,HB,z,m,./images/PISTOLHB.png,,,,,,,z,1,0.8084,,,,,,,,0,98,98,113,1,
,,,,,,,,,,,,,,,,,199390,19,2022-01-28_14h13.02.748,lexical_decision_task_DD_L3,2021.2.3,MacIntel,30.00120005,,,,,,,,,,,,1.2925,1,,,,,,,,,,,,,,,,,,,,,,,,0.041488715,-0.402009549,0,0,0,,,,,,,MUMMY,C,z,m,./images/MUMMY.png,,,,,,,z,1,1.2925,,,,,,,,0,99,99,130,1,
,,,,,,,,,,,,,,,,,199390,19,2022-01-28_14h13.02.748,lexical_decision_task_DD_L3,2021.2.3,MacIntel,30.00120005,,,,,,,,,,,,1.107,0,,,,,,,,,,,,,,,,,,,,,,,,0.041488715,-0.402009549,0,0,0,,,,,,,CRUST,C,m,m,./images/CRUST.png,,,,,,,z,0,1.107,,,,,,,,0,100,100,79,1,
,,,,,,,,,,,,,,,,,199390,19,2022-01-28_14h13.02.748,lexical_decision_task_DD_L3,2021.2.3,MacIntel,30.00120005,,,,,,,,,,,,0.7514,1,,,,,,,,,,,,,,,,,,,,,,,,0.041488715,-0.402009549,0,0,0,,,,,,,STRING,HB,m,m,./images/STRINGHB.png,,,,,,,m,1,0.7514,,,,,,,,0,101,101,41,1,
,,,,,,,,,,,,,,,,,199390,19,2022-01-28_14h13.02.748,lexical_decision_task_DD_L3,2021.2.3,MacIntel,30.00120005,,,,,,,,,,,,1.852,1,,,,,,,,,,,,,,,,,,,,,,,,0.041488715,-0.402009549,0,0,0,,,,,,,BANNER,C,m,m,./images/BANNER.png,,,,,,,m,1,1.852,,,,,,,,0,102,102,52,1,
,,,,,,,,,,,,,,,,,199390,19,2022-01-28_14h13.02.748,lexical_decision_task_DD_L3,2021.2.3,MacIntel,30.00120005,,,,,,,,,,,,1.7669,1,,,,,,,,,,,,,,,,,,,,,,,,0.041488715,-0.402009549,0,0,0,,,,,,,VALLEY,HB,z,m,./images/VALLEYHB.png,,,,,,,z,1,1.7669,,,,,,,,0,103,103,152,1,
,,,,,,,,,,,,,,,,,199390,19,2022-01-28_14h13.02.748,lexical_decision_task_DD_L3,2021.2.3,MacIntel,30.00120005,,,,,,,,,,,,0.7492,1,,,,,,,,,,,,,,,,,,,,,,,,0.041488715,-0.402009549,0,0,0,,,,,,,KIDNEY,LB,m,m,./images/KIDNEYLB.png,,,,,,,m,1,0.7492,,,,,,,,0,104,104,21,1,
,,,,,,,,,,,,,,,,,199390,19,2022-01-28_14h13.02.748,lexical_decision_task_DD_L3,2021.2.3,MacIntel,30.00120005,,,,,,,,,,,,0.7018,1,,,,,,,,,,,,,,,,,,,,,,,,0.041488715,-0.402009549,0,0,0,,,,,,,SQUARE,LB,m,m,./images/SQUARELB.png,,,,,,,m,1,0.7018,,,,,,,,0,105,105,6,1,
,,,,,,,,,,,,,,,,,199390,19,2022-01-28_14h13.02.748,lexical_decision_task_DD_L3,2021.2.3,MacIntel,30.00120005,,,,,,,,,,,,0.784,1,,,,,,,,,,,,,,,,,,,,,,,,0.041488715,-0.402009549,0,0,0,,,,,,,INFANT,C,m,m,./images/INFANT.png,,,,,,,m,1,0.784,,,,,,,,0,106,106,76,1,
,,,,,,,,,,,,,,,,,199390,19,2022-01-28_14h13.02.748,lexical_decision_task_DD_L3,2021.2.3,MacIntel,30.00120005,,,,,,,,,,,,0.8238,1,,,,,,,,,,,,,,,,,,,,,,,,0.041488715,-0.402009549,0,0,0,,,,,,,COOKER,LB,m,m,./images/COOKERLB.png,,,,,,,m,1,0.8238,,,,,,,,0,107,107,69,1,
,,,,,,,,,,,,,,,,,199390,19,2022-01-28_14h13.02.748,lexical_decision_task_DD_L3,2021.2.3,MacIntel,30.00120005,,,,,,,,,,,,0.9836,0,,,,,,,,,,,,,,,,,,,,,,,,0.041488715,-0.402009549,0,0,0,,,,,,,POKER,C,z,m,./images/POKER.png,,,,,,,m,0,0.9836,,,,,,,,0,108,108,151,1,
,,,,,,,,,,,,,,,,,199390,19,2022-01-28_14h13.02.748,lexical_decision_task_DD_L3,2021.2.3,MacIntel,30.00120005,,,,,,,,,,,,0.7963,1,,,,,,,,,,,,,,,,,,,,,,,,0.041488715,-0.402009549,0,0,0,,,,,,,JUNGLE,HB,m,m,./images/JUNGLEHB.png,,,,,,,m,1,0.7963,,,,,,,,0,109,109,83,1,
,,,,,,,,,,,,,,,,,199390,19,2022-01-28_14h13.02.748,lexical_decision_task_DD_L3,2021.2.3,MacIntel,30.00120005,,,,,,,,,,,,0.869,1,,,,,,,,,,,,,,,,,,,,,,,,0.041488715,-0.402009549,0,0,0,,,,,,,CHALK,C,z,m,./images/CHALK.png,,,,,,,z,1,0.869,,,,,,,,0,110,110,109,1,
,,,,,,,,,,,,,,,,,199390,19,2022-01-28_14h13.02.748,lexical_decision_task_DD_L3,2021.2.3,MacIntel,30.00120005,,,,,,,,,,,,1.0496,1,,,,,,,,,,,,,,,,,,,,,,,,0.041488715,-0.402009549,0,0,0,,,,,,,GRAPE,C,z,m,./images/GRAPE.png,,,,,,,z,1,1.0496,,,,,,,,0,111,111,100,1,
,,,,,,,,,,,,,,,,,199390,19,2022-01-28_14h13.02.748,lexical_decision_task_DD_L3,2021.2.3,MacIntel,30.00120005,,,,,,,,,,,,0.8516,0,,,,,,,,,,,,,,,,,,,,,,,,0.041488715,-0.402009549,0,0,0,,,,,,,BASKET,HB,z,m,./images/BASKETHB.png,,,,,,,m,0,0.8516,,,,,,,,0,112,112,128,1,
,,,,,,,,,,,,,,,,,199390,19,2022-01-28_14h13.02.748,lexical_decision_task_DD_L3,2021.2.3,MacIntel,30.00120005,,,,,,,,,,,,0.8852,1,,,,,,,,,,,,,,,,,,,,,,,,0.041488715,-0.402009549,0,0,0,,,,,,,SWING,C,m,m,./images/SWING.png,,,,,,,m,1,0.8852,,,,,,,,0,113,113,40,1,
,,,,,,,,,,,,,,,,,199390,19,2022-01-28_14h13.02.748,lexical_decision_task_DD_L3,2021.2.3,MacIntel,30.00120005,,,,,,,,,,,,0.6555,0,,,,,,,,,,,,,,,,,,,,,,,,0.041488715,-0.402009549,0,0,0,,,,,,,WAGON,C,z,m,./images/WAGON.png,,,,,,,m,0,0.6555,,,,,,,,0,114,114,91,1,
,,,,,,,,,,,,,,,,,199390,19,2022-01-28_14h13.02.748,lexical_decision_task_DD_L3,2021.2.3,MacIntel,30.00120005,,,,,,,,,,,,0.5525,1,,,,,,,,,,,,,,,,,,,,,,,,0.041488715,-0.402009549,0,0,0,,,,,,,MALLET,HB,m,m,./images/MALLETHB.png,,,,,,,m,1,0.5525,,,,,,,,0,115,115,50,1,
,,,,,,,,,,,,,,,,,199390,19,2022-01-28_14h13.02.748,lexical_decision_task_DD_L3,2021.2.3,MacIntel,30.00120005,,,,,,,,,,,,0.6842,0,,,,,,,,,,,,,,,,,,,,,,,,0.041488715,-0.402009549,0,0,0,,,,,,,ALLEY,C,z,m,./images/ALLEY.png,,,,,,,m,0,0.6842,,,,,,,,0,116,116,139,1,
,,,,,,,,,,,,,,,,,199390,19,2022-01-28_14h13.02.748,lexical_decision_task_DD_L3,2021.2.3,MacIntel,30.00120005,,,,,,,,,,,,0.6295,1,,,,,,,,,,,,,,,,,,,,,,,,0.041488715,-0.402009549,0,0,0,,,,,,,GARDEN,C,z,m,./images/GARDEN.png,,,,,,,z,1,0.6295,,,,,,,,0,117,117,94,1,
,,,,,,,,,,,,,,,,,199390,19,2022-01-28_14h13.02.748,lexical_decision_task_DD_L3,2021.2.3,MacIntel,30.00120005,,,,,,,,,,,,0.3167,0,,,,,,,,,,,,,,,,,,,,,,,,0.041488715,-0.402009549,0,0,0,,,,,,,BOXER,C,z,m,./images/BOXER.png,,,,,,,m,0,0.3167,,,,,,,,0,118,118,88,1,
,,,,,,,,,,,,,,,,,199390,19,2022-01-28_14h13.02.748,lexical_decision_task_DD_L3,2021.2.3,MacIntel,30.00120005,,,,,,,,,,,,0.3977,0,,,,,,,,,,,,,,,,,,,,,,,,0.041488715,-0.402009549,0,0,0,,,,,,,SCREW,LB,m,m,./images/SCREWLB.png,,,,,,,z,0,0.3977,,,,,,,,0,119,119,24,1,
,,,,,,,,,,,,,,,,,199390,19,2022-01-28_14h13.02.748,lexical_decision_task_DD_L3,2021.2.3,MacIntel,30.00120005,,,,,,,,,,,,0.5858,0,,,,,,,,,,,,,,,,,,,,,,,,0.041488715,-0.402009549,0,0,0,,,,,,,POSTER,HB,z,m,./images/POSTERHB.png,,,,,,,m,0,0.5858,,,,,,,,0,120,120,137,1,
,,,,,,,,,,,,,,,,,199390,19,2022-01-28_14h13.02.748,lexical_decision_task_DD_L3,2021.2.3,MacIntel,30.00120005,,,,,,,,,,,,1.3835,1,,,,,,,,,,,,,,,,,,,,,,,,0.041488715,-0.402009549,0,0,0,,,,,,,CRADLE,HB,m,m,./images/CRADLEHB.png,,,,,,,m,1,1.3835,,,,,,,,0,121,121,20,1,
,,,,,,,,,,,,,,,,,199390,19,2022-01-28_14h13.02.748,lexical_decision_task_DD_L3,2021.2.3,MacIntel,30.00120005,,,,,,,,,,,,0.6568,0,,,,,,,,,,,,,,,,,,,,,,,,0.041488715,-0.402009549,0,0,0,,,,,,,JUMPER,HB,z,m,./images/JUMPERHB.png,,,,,,,m,0,0.6568,,,,,,,,0,122,122,158,1,
,,,,,,,,,,,,,,,,,199390,19,2022-01-28_14h13.02.748,lexical_decision_task_DD_L3,2021.2.3,MacIntel,30.00120005,,,,,,,,,,,,0.3173,0,,,,,,,,,,,,,,,,,,,,,,,,0.041488715,-0.402009549,0,0,0,,,,,,,CANYON,C,m,m,./images/CANYON.png,,,,,,,z,0,0.3173,,,,,,,,0,123,123,34,1,
,,,,,,,,,,,,,,,,,199390,19,2022-01-28_14h13.02.748,lexical_decision_task_DD_L3,2021.2.3,MacIntel,30.00120005,,,,,,,,,,,,0.2973,0,,,,,,,,,,,,,,,,,,,,,,,,0.041488715,-0.402009549,0,0,0,,,,,,,BRIDE,C,z,m,./images/BRIDE.png,,,,,,,m,0,0.2973,,,,,,,,0,124,124,148,1,
,,,,,,,,,,,,,,,,,199390,19,2022-01-28_14h13.02.748,lexical_decision_task_DD_L3,2021.2.3,MacIntel,30.00120005,,,,,,,,,,,,0.8672,1,,,,,,,,,,,,,,,,,,,,,,,,0.165820313,-0.449709201,0,0,0,space,,,,,,BARREL,HB,m,m,./images/BARRELHB.png,65.4163,,,,,,m,1,0.8672,,,,,,,,0,125,125,32,1,
,,,,,,,,,,,,,,,,,199390,19,2022-01-28_14h13.02.748,lexical_decision_task_DD_L3,2021.2.3,MacIntel,30.00120005,,,,,,,,,,,,1.122,1,,,,,,,,,,,,,,,,,,,,,,,,0.165820313,-0.449709201,0,0,0,,,,,,,PLANET,HB,z,m,./images/PLANETHB.png,,,,,,,z,1,1.122,,,,,,,,0,126,126,164,1,
,,,,,,,,,,,,,,,,,199390,19,2022-01-28_14h13.02.748,lexical_decision_task_DD_L3,2021.2.3,MacIntel,30.00120005,,,,,,,,,,,,0.9178,1,,,,,,,,,,,,,,,,,,,,,,,,0.165820313,-0.449709201,0,0,0,,,,,,,PEACH,HB,m,m,./images/PEACHHB.png,,,,,,,m,1,0.9178,,,,,,,,0,127,127,35,1,
,,,,,,,,,,,,,,,,,199390,19,2022-01-28_14h13.02.748,lexical_decision_task_DD_L3,2021.2.3,MacIntel,30.00120005,,,,,,,,,,,,1.4683,1,,,,,,,,,,,,,,,,,,,,,,,,0.165820313,-0.449709201,0,0,0,,,,,,,TIGER,C,z,m,./images/TIGER.png,,,,,,,z,1,1.4683,,,,,,,,0,128,128,121,1,
,,,,,,,,,,,,,,,,,199390,19,2022-01-28_14h13.02.748,lexical_decision_task_DD_L3,2021.2.3,MacIntel,30.00120005,,,,,,,,,,,,0.9089,1,,,,,,,,,,,,,,,,,,,,,,,,0.165820313,-0.449709201,0,0,0,,,,,,,BONNET,HB,m,m,./images/BONNETHB.png,,,,,,,m,1,0.9089,,,,,,,,0,129,129,11,1,
,,,,,,,,,,,,,,,,,199390,19,2022-01-28_14h13.02.748,lexical_decision_task_DD_L3,2021.2.3,MacIntel,30.00120005,,,,,,,,,,,,0.6196,1,,,,,,,,,,,,,,,,,,,,,,,,0.165820313,-0.449709201,0,0,0,,,,,,,POODLE,LB,m,m,./images/POODLELB.png,,,,,,,m,1,0.6196,,,,,,,,0,130,130,81,1,
,,,,,,,,,,,,,,,,,199390,19,2022-01-28_14h13.02.748,lexical_decision_task_DD_L3,2021.2.3,MacIntel,30.00120005,,,,,,,,,,,,0.7343,0,,,,,,,,,,,,,,,,,,,,,,,,0.165820313,-0.449709201,0,0,0,,,,,,,SNACK,C,m,m,./images/SNACK.png,,,,,,,z,0,0.7343,,,,,,,,0,131,131,73,1,
,,,,,,,,,,,,,,,,,199390,19,2022-01-28_14h13.02.748,lexical_decision_task_DD_L3,2021.2.3,MacIntel,30.00120005,,,,,,,,,,,,0.8184,1,,,,,,,,,,,,,,,,,,,,,,,,0.165820313,-0.449709201,0,0,0,,,,,,,PARADE,HB,z,m,./images/PARADEHB.png,,,,,,,z,1,0.8184,,,,,,,,0,132,132,101,1,
,,,,,,,,,,,,,,,,,199390,19,2022-01-28_14h13.02.748,lexical_decision_task_DD_L3,2021.2.3,MacIntel,30.00120005,,,,,,,,,,,,0.6952,0,,,,,,,,,,,,,,,,,,,,,,,,0.165820313,-0.449709201,0,0,0,,,,,,,SHIELD,LB,z,m,./images/SHIELDLB.png,,,,,,,m,0,0.6952,,,,,,,,0,133,133,132,1,
,,,,,,,,,,,,,,,,,199390,19,2022-01-28_14h13.02.748,lexical_decision_task_DD_L3,2021.2.3,MacIntel,30.00120005,,,,,,,,,,,,0.7434,1,,,,,,,,,,,,,,,,,,,,,,,,0.165820313,-0.449709201,0,0,0,,,,,,,FLESH,LB,z,m,./images/FLESHLB.png,,,,,,,z,1,0.7434,,,,,,,,0,134,134,108,1,
,,,,,,,,,,,,,,,,,199390,19,2022-01-28_14h13.02.748,lexical_decision_task_DD_L3,2021.2.3,MacIntel,30.00120005,,,,,,,,,,,,0.7584,1,,,,,,,,,,,,,,,,,,,,,,,,0.165820313,-0.449709201,0,0,0,,,,,,,RHINO,LB,m,m,./images/RHINOLB.png,,,,,,,m,1,0.7584,,,,,,,,0,135,135,9,1,
,,,,,,,,,,,,,,,,,199390,19,2022-01-28_14h13.02.748,lexical_decision_task_DD_L3,2021.2.3,MacIntel,30.00120005,,,,,,,,,,,,0.6379,1,,,,,,,,,,,,,,,,,,,,,,,,0.165820313,-0.449709201,0,0,0,,,,,,,GREASE,LB,m,m,./images/GREASELB.png,,,,,,,m,1,0.6379,,,,,,,,0,136,136,15,1,
,,,,,,,,,,,,,,,,,199390,19,2022-01-28_14h13.02.748,lexical_decision_task_DD_L3,2021.2.3,MacIntel,30.00120005,,,,,,,,,,,,0.7098,1,,,,,,,,,,,,,,,,,,,,,,,,0.165820313,-0.449709201,0,0,0,,,,,,,CLIFF,HB,z,m,./images/CLIFFHB.png,,,,,,,z,1,0.7098,,,,,,,,0,137,137,92,1,
,,,,,,,,,,,,,,,,,199390,19,2022-01-28_14h13.02.748,lexical_decision_task_DD_L3,2021.2.3,MacIntel,30.00120005,,,,,,,,,,,,0.6672,1,,,,,,,,,,,,,,,,,,,,,,,,0.165820313,-0.449709201,0,0,0,,,,,,,BUNNY,C,z,m,./images/BUNNY.png,,,,,,,z,1,0.6672,,,,,,,,0,138,138,97,1,
,,,,,,,,,,,,,,,,,199390,19,2022-01-28_14h13.02.748,lexical_decision_task_DD_L3,2021.2.3,MacIntel,30.00120005,,,,,,,,,,,,0.7848,1,,,,,,,,,,,,,,,,,,,,,,,,0.165820313,-0.449709201,0,0,0,,,,,,,CLOUD,HB,z,m,./images/CLOUDHB.png,,,,,,,z,1,0.7848,,,,,,,,0,139,139,110,1,
,,,,,,,,,,,,,,,,,199390,19,2022-01-28_14h13.02.748,lexical_decision_task_DD_L3,2021.2.3,MacIntel,30.00120005,,,,,,,,,,,,0.7296,1,,,,,,,,,,,,,,,,,,,,,,,,0.165820313,-0.449709201,0,0,0,,,,,,,CHAIN,LB,z,m,./images/CHAINLB.png,,,,,,,z,1,0.7296,,,,,,,,0,140,140,126,1,
,,,,,,,,,,,,,,,,,199390,19,2022-01-28_14h13.02.748,lexical_decision_task_DD_L3,2021.2.3,MacIntel,30.00120005,,,,,,,,,,,,0.9187,0,,,,,,,,,,,,,,,,,,,,,,,,0.165820313,-0.449709201,0,0,0,,,,,,,BURIAL,HB,m,m,./images/BURIALHB.png,,,,,,,z,0,0.9187,,,,,,,,0,141,141,59,1,
,,,,,,,,,,,,,,,,,199390,19,2022-01-28_14h13.02.748,lexical_decision_task_DD_L3,2021.2.3,MacIntel,30.00120005,,,,,,,,,,,,0.6633,1,,,,,,,,,,,,,,,,,,,,,,,,0.165820313,-0.449709201,0,0,0,,,,,,,STEAK,C,z,m,./images/STEAK.png,,,,,,,z,1,0.6633,,,,,,,,0,142,142,115,1,
,,,,,,,,,,,,,,,,,199390,19,2022-01-28_14h13.02.748,lexical_decision_task_DD_L3,2021.2.3,MacIntel,30.00120005,,,,,,,,,,,,0.7086,1,,,,,,,,,,,,,,,,,,,,,,,,0.165820313,-0.449709201,0,0,0,,,,,,,TWINS,LB,m,m,./images/TWINSLB.png,,,,,,,m,1,0.7086,,,,,,,,0,143,143,60,1,
,,,,,,,,,,,,,,,,,199390,19,2022-01-28_14h13.02.748,lexical_decision_task_DD_L3,2021.2.3,MacIntel,30.00120005,,,,,,,,,,,,0.6495,1,,,,,,,,,,,,,,,,,,,,,,,,0.165820313,-0.449709201,0,0,0,,,,,,,WEASEL,HB,m,m,./images/WEASELHB.png,,,,,,,m,1,0.6495,,,,,,,,0,144,144,80,1,
,,,,,,,,,,,,,,,,,199390,19,2022-01-28_14h13.02.748,lexical_decision_task_DD_L3,2021.2.3,MacIntel,30.00120005,,,,,,,,,,,,0.7852,1,,,,,,,,,,,,,,,,,,,,,,,,0.165820313,-0.449709201,0,0,0,,,,,,,FARMER,HB,m,m,./images/FARMERHB.png,,,,,,,m,1,0.7852,,,,,,,,0,145,145,65,1,
,,,,,,,,,,,,,,,,,199390,19,2022-01-28_14h13.02.748,lexical_decision_task_DD_L3,2021.2.3,MacIntel,30.00120005,,,,,,,,,,,,0.7904,1,,,,,,,,,,,,,,,,,,,,,,,,0.165820313,-0.449709201,0,0,0,,,,,,,WHISKY,HB,z,m,./images/WHISKYHB.png,,,,,,,z,1,0.7904,,,,,,,,0,146,146,167,1,
,,,,,,,,,,,,,,,,,199390,19,2022-01-28_14h13.02.748,lexical_decision_task_DD_L3,2021.2.3,MacIntel,30.00120005,,,,,,,,,,,,0.5958,1,,,,,,,,,,,,,,,,,,,,,,,,0.165820313,-0.449709201,0,0,0,,,,,,,BROOM,LB,z,m,./images/BROOMLB.png,,,,,,,z,1,0.5958,,,,,,,,0,147,147,162,1,
,,,,,,,,,,,,,,,,,199390,19,2022-01-28_14h13.02.748,lexical_decision_task_DD_L3,2021.2.3,MacIntel,30.00120005,,,,,,,,,,,,0.5982,1,,,,,,,,,,,,,,,,,,,,,,,,0.165820313,-0.449709201,0,0,0,,,,,,,SMOKER,HB,m,m,./images/SMOKERHB.png,,,,,,,m,1,0.5982,,,,,,,,0,148,148,26,1,
,,,,,,,,,,,,,,,,,199390,19,2022-01-28_14h13.02.748,lexical_decision_task_DD_L3,2021.2.3,MacIntel,30.00120005,,,,,,,,,,,,1.024,1,,,,,,,,,,,,,,,,,,,,,,,,0.165820313,-0.449709201,0,0,0,,,,,,,BERRY,HB,m,m,./images/BERRYHB.png,,,,,,,m,1,1.024,,,,,,,,0,149,149,47,1,
,,,,,,,,,,,,,,,,,199390,19,2022-01-28_14h13.02.748,lexical_decision_task_DD_L3,2021.2.3,MacIntel,30.00120005,,,,,,,,,,,,0.7174,0,,,,,,,,,,,,,,,,,,,,,,,,0.165820313,-0.449709201,0,0,0,,,,,,,MUSCLE,C,m,m,./images/MUSCLE.png,,,,,,,z,0,0.7174,,,,,,,,0,150,150,4,1,
,,,,,,,,,,,,,,,,,199390,19,2022-01-28_14h13.02.748,lexical_decision_task_DD_L3,2021.2.3,MacIntel,30.00120005,,,,,,,,,,,,0.7987,1,,,,,,,,,,,,,,,,,,,,,,,,0.165820313,-0.449709201,0,0,0,,,,,,,TULIP,HB,m,m,./images/TULIPHB.png,,,,,,,m,1,0.7987,,,,,,,,0,151,151,8,1,
,,,,,,,,,,,,,,,,,199390,19,2022-01-28_14h13.02.748,lexical_decision_task_DD_L3,2021.2.3,MacIntel,30.00120005,,,,,,,,,,,,0.6316,1,,,,,,,,,,,,,,,,,,,,,,,,0.165820313,-0.449709201,0,0,0,,,,,,,ONION,LB,m,m,./images/ONIONLB.png,,,,,,,m,1,0.6316,,,,,,,,0,152,152,51,1,
,,,,,,,,,,,,,,,,,199390,19,2022-01-28_14h13.02.748,lexical_decision_task_DD_L3,2021.2.3,MacIntel,30.00120005,,,,,,,,,,,,0.7997,0,,,,,,,,,,,,,,,,,,,,,,,,0.165820313,-0.449709201,0,0,0,,,,,,,CURRY,LB,z,m,./images/CURRYLB.png,,,,,,,m,0,0.7997,,,,,,,,0,153,153,144,1,
,,,,,,,,,,,,,,,,,199390,19,2022-01-28_14h13.02.748,lexical_decision_task_DD_L3,2021.2.3,MacIntel,30.00120005,,,,,,,,,,,,0.6723,0,,,,,,,,,,,,,,,,,,,,,,,,0.165820313,-0.449709201,0,0,0,,,,,,,STORM,LB,m,m,./images/STORMLB.png,,,,,,,z,0,0.6723,,,,,,,,0,154,154,30,1,
,,,,,,,,,,,,,,,,,199390,19,2022-01-28_14h13.02.748,lexical_decision_task_DD_L3,2021.2.3,MacIntel,30.00120005,,,,,,,,,,,,0.8846,0,,,,,,,,,,,,,,,,,,,,,,,,0.165820313,-0.449709201,0,0,0,,,,,,,WALRUS,HB,m,m,./images/WALRUSHB.png,,,,,,,z,0,0.8846,,,,,,,,0,155,155,23,1,
,,,,,,,,,,,,,,,,,199390,19,2022-01-28_14h13.02.748,lexical_decision_task_DD_L3,2021.2.3,MacIntel,30.00120005,,,,,,,,,,,,0.7387,1,,,,,,,,,,,,,,,,,,,,,,,,0.165820313,-0.449709201,0,0,0,,,,,,,SAUCE,LB,z,m,./images/SAUCELB.png,,,,,,,z,1,0.7387,,,,,,,,0,156,156,135,1,
,,,,,,,,,,,,,,,,,199390,19,2022-01-28_14h13.02.748,lexical_decision_task_DD_L3,2021.2.3,MacIntel,30.00120005,,,,,,,,,,,,0.8958,0,,,,,,,,,,,,,,,,,,,,,,,,0.165820313,-0.449709201,0,0,0,,,,,,,WALNUT,LB,z,m,./images/WALNUTLB.png,,,,,,,m,0,0.8958,,,,,,,,0,157,157,84,1,
,,,,,,,,,,,,,,,,,199390,19,2022-01-28_14h13.02.748,lexical_decision_task_DD_L3,2021.2.3,MacIntel,30.00120005,,,,,,,,,,,,0.3258,0,,,,,,,,,,,,,,,,,,,,,,,,0.165820313,-0.449709201,0,0,0,,,,,,,JELLY,C,m,m,./images/JELLY.png,,,,,,,z,0,0.3258,,,,,,,,0,158,158,64,1,
,,,,,,,,,,,,,,,,,199390,19,2022-01-28_14h13.02.748,lexical_decision_task_DD_L3,2021.2.3,MacIntel,30.00120005,,,,,,,,,,,,0.8186,1,,,,,,,,,,,,,,,,,,,,,,,,0.165820313,-0.449709201,0,0,0,,,,,,,DOUGH,C,m,m,./images/DOUGH.png,,,,,,,m,1,0.8186,,,,,,,,0,159,159,19,1,
,,,,,,,,,,,,,,,,,199390,19,2022-01-28_14h13.02.748,lexical_decision_task_DD_L3,2021.2.3,MacIntel,30.00120005,,,,,,,,,,,,0.5655,0,,,,,,,,,,,,,,,,,,,,,,,,0.165820313,-0.449709201,0,0,0,,,,,,,SPINE,HB,z,m,./images/SPINEHB.png,,,,,,,m,0,0.5655,,,,,,,,0,160,160,149,1,
,,,,,,,,,,,,,,,,,199390,19,2022-01-28_14h13.02.748,lexical_decision_task_DD_L3,2021.2.3,MacIntel,30.00120005,,,,,,,,,,,,1.0534,0,,,,,,,,,,,,,,,,,,,,,,,,0.165820313,-0.449709201,0,0,0,,,,,,,MOOSE,LB,m,m,./images/MOOSELB.png,,,,,,,z,0,1.0534,,,,,,,,0,161,161,57,1,
,,,,,,,,,,,,,,,,,199390,19,2022-01-28_14h13.02.748,lexical_decision_task_DD_L3,2021.2.3,MacIntel,30.00120005,,,,,,,,,,,,1.3976,1,,,,,,,,,,,,,,,,,,,,,,,,0.165820313,-0.449709201,0,0,0,,,,,,,DONKEY,C,z,m,./images/DONKEY.png,,,,,,,z,1,1.3976,,,,,,,,0,162,162,103,1,
,,,,,,,,,,,,,,,,,199390,19,2022-01-28_14h13.02.748,lexical_decision_task_DD_L3,2021.2.3,MacIntel,30.00120005,,,,,,,,,,,,0.8911,0,,,,,,,,,,,,,,,,,,,,,,,,0.165820313,-0.449709201,0,0,0,,,,,,,KITTEN,LB,m,m,./images/KITTENLB.png,,,,,,,z,0,0.8911,,,,,,,,0,163,163,45,1,
,,,,,,,,,,,,,,,,,199390,19,2022-01-28_14h13.02.748,lexical_decision_task_DD_L3,2021.2.3,MacIntel,30.00120005,,,,,,,,,,,,0.6022,1,,,,,,,,,,,,,,,,,,,,,,,,0.165820313,-0.449709201,0,0,0,,,,,,,BABOON,C,m,m,./images/BABOON.png,,,,,,,m,1,0.6022,,,,,,,,0,164,164,58,1,
,,,,,,,,,,,,,,,,,199390,19,2022-01-28_14h13.02.748,lexical_decision_task_DD_L3,2021.2.3,MacIntel,30.00120005,,,,,,,,,,,,0.9681,1,,,,,,,,,,,,,,,,,,,,,,,,0.165820313,-0.449709201,0,0,0,,,,,,,FOLDER,LB,m,m,./images/FOLDERLB.png,,,,,,,m,1,0.9681,,,,,,,,0,165,165,42,1,
,,,,,,,,,,,,,,,,,199390,19,2022-01-28_14h13.02.748,lexical_decision_task_DD_L3,2021.2.3,MacIntel,30.00120005,,,,,,,,,,,,0.5197,0,,,,,,,,,,,,,,,,,,,,,,,,0.165820313,-0.449709201,0,0,0,,,,,,,JAGUAR,LB,m,m,./images/JAGUARLB.png,,,,,,,z,0,0.5197,,,,,,,,0,166,166,18,1,
,,,,,,,,,,,,,,,,,199390,19,2022-01-28_14h13.02.748,lexical_decision_task_DD_L3,2021.2.3,MacIntel,30.00120005,,,,,,,,,,,,0.4837,0,,,,,,,,,,,,,,,,,,,,,,,,0.165820313,-0.449709201,0,0,0,,,,,,,PEBBLE,C,z,m,./images/PEBBLE.png,,,,,,,m,0,0.4837,,,,,,,,0,167,167,166,1,
