key_resp.keys,instr_done_touch.x,instr_done_touch.y,instr_done_touch.leftButton,instr_done_touch.midButton,instr_done_touch.rightButton,instr_done_touch.clicked_name,instruction_pages.thisRepN,instruction_pages.thisTrialN,instruction_pages.thisN,instruction_pages.thisIndex,instruction_pages.ran,pageN,phase,instruct_text,has_image,instruct_image,participant,age,date,expName,psychopyVersion,OS,frameRate,key_resp.rt,response.keys,response.corr,response.rt,touch_resp.x,touch_resp.y,touch_resp.leftButton,touch_resp.midButton,touch_resp.rightButton,touch_resp.time,touch_resp.clicked_name,rt,corr,practrials.thisRepN,practrials.thisTrialN,practrials.thisN,practrials.thisIndex,practrials.ran,TrialID,Target,corrAns,end_of_practice_trials_pages.thisRepN,end_of_practice_trials_pages.thisTrialN,end_of_practice_trials_pages.thisN,end_of_practice_trials_pages.thisIndex,end_of_practice_trials_pages.ran,key_resp_2.keys,key_resp_2.corr,key_resp_2.rt,targ_click.x,targ_click.y,targ_click.leftButton,targ_click.midButton,targ_click.rightButton,targ_click.time,targ_click.clicked_name,break_done_touch.x,break_done_touch.y,break_done_touch.leftButton,break_done_touch.midButton,break_done_touch.rightButton,break_done_keyboard.keys,maintrials.thisRepN,maintrials.thisTrialN,maintrials.thisN,maintrials.thisIndex,maintrials.ran,string,blur,study,lex,stim_path,break_done_keyboard.rt,test_instructions.thisRepN,test_instructions.thisTrialN,test_instructions.thisN,test_instructions.thisIndex,test_instructions.ran,key_resp_3.keys,key_resp_3.corr,key_resp_3.rt,test_click.x,test_click.y,test_click.leftButton,test_click.midButton,test_click.rightButton,test_click.time,test_click.clicked_name,test_phase.thisRepN,test_phase.thisTrialN,test_phase.thisN,test_phase.thisIndex,test_phase.ran,break_done_touch.clicked_name
,0.172222208,-0.395370413,1,0,0,instr_done_button,0,0,0,0,1,1,instructions,"INSTRUCTIONS
At the start of each trial, look at the plus sign  (+) in the center of the screen.  This tells you that a trial is about to begin and where to look. Second, the plus sign will disappear and a string of letters will appear. Your task is to determine if the string of letters is a word or not. If the item is a word press the M key (on keyboard)  or touch the word button (phone/tablet).  If the item is not a word,  press the  Z key (on keyboard)  or touch the nonword button (on phone/tablet). 
Press the space bar or touch  continue.",0,,199384,18,2022-01-25_21h51.52.470,lexical_decision_task_DD_L6,2021.2.3,Win32,59.80861244,,,,,,,,,,,,,,,,,,,,,,,,,,,,,,,,,,,,,,,,,,,,,,,,,,,,,,,,,,,,,,,,,,,,,,,,,,
space,0.172222208,-0.395370413,0,0,0,,0,1,1,1,1,2,instructions,"If your device has a keyboard, press the 'Z' key for nonwords and the 'M' key for words.





Press the space bar or touch the button below to continue.",0,keyboard-example.gif,199384,18,2022-01-25_21h51.52.470,lexical_decision_task_DD_L6,2021.2.3,Win32,59.80861244,7.7308,,,,,,,,,,,,,,,,,,,,,,,,,,,,,,,,,,,,,,,,,,,,,,,,,,,,,,,,,,,,,,,,,,,,,,,,,
,0.148148148,-0.405555584,1,0,0,instr_done_button,0,2,2,2,1,3,instructions,"If you are using a touchscreen only device, use the buttons on the screen. Do not use the mouse.





Press the space bar or touch the button below to continue.",0,touchscreen-example.gif,199384,18,2022-01-25_21h51.52.470,lexical_decision_task_DD_L6,2021.2.3,Win32,59.80861244,,,,,,,,,,,,,,,,,,,,,,,,,,,,,,,,,,,,,,,,,,,,,,,,,,,,,,,,,,,,,,,,,,,,,,,,,,
,0.17777782,-0.407407407,1,0,0,instr_done_button,0,3,3,3,1,4,instructions,"It is very important that you respond as quickly and accurately as possible, as each letter string will only be on the screen for two seconds. If you do not respond within this time, the message 'Too slow!' will be displayed and the experiment will progress to the next letter string. The first 20 trials will be practice trials and you will receive feedback on your answers. 

Press the space bar or touch the button below to start the practice trials.",0,,199384,18,2022-01-25_21h51.52.470,lexical_decision_task_DD_L6,2021.2.3,Win32,59.80861244,,,,,,,,,,,,,,,,,,,,,,,,,,,,,,,,,,,,,,,,,,,,,,,,,,,,,,,,,,,,,,,,,,,,,,,,,,
,,,,,,,,,,,,,,,,,199384,18,2022-01-25_21h51.52.470,lexical_decision_task_DD_L6,2021.2.3,Win32,59.80861244,,m,1,1.7637,,,,,,,,1.7637,1,0,0,0,5,1,1001,OBTAIN,m,,,,,,,,,,,,,,,,,,,,,,,,,,,,,,,,,,,,,,,,,,,,,,,,,,,,,
,,,,,,,,,,,,,,,,,199384,18,2022-01-25_21h51.52.470,lexical_decision_task_DD_L6,2021.2.3,Win32,59.80861244,,z,1,1.2605,,,,,,,,1.2605,1,0,1,1,15,1,1001,WHAISE,z,,,,,,,,,,,,,,,,,,,,,,,,,,,,,,,,,,,,,,,,,,,,,,,,,,,,,
,,,,,,,,,,,,,,,,,199384,18,2022-01-25_21h51.52.470,lexical_decision_task_DD_L6,2021.2.3,Win32,59.80861244,,m,1,0.6088,,,,,,,,0.6088,1,0,2,2,6,1,1001,ZOMBIE,m,,,,,,,,,,,,,,,,,,,,,,,,,,,,,,,,,,,,,,,,,,,,,,,,,,,,,
,,,,,,,,,,,,,,,,,199384,18,2022-01-25_21h51.52.470,lexical_decision_task_DD_L6,2021.2.3,Win32,59.80861244,,m,1,0.9075,,,,,,,,0.9075,1,0,3,3,4,1,1001,SQUEAK,m,,,,,,,,,,,,,,,,,,,,,,,,,,,,,,,,,,,,,,,,,,,,,,,,,,,,,
,,,,,,,,,,,,,,,,,199384,18,2022-01-25_21h51.52.470,lexical_decision_task_DD_L6,2021.2.3,Win32,59.80861244,,m,1,0.7295,,,,,,,,0.7295,1,0,4,4,2,1,1001,ALMOND,m,,,,,,,,,,,,,,,,,,,,,,,,,,,,,,,,,,,,,,,,,,,,,,,,,,,,,
,,,,,,,,,,,,,,,,,199384,18,2022-01-25_21h51.52.470,lexical_decision_task_DD_L6,2021.2.3,Win32,59.80861244,,m,1,0.6137,,,,,,,,0.6137,1,0,5,5,1,1,1001,ADJUST,m,,,,,,,,,,,,,,,,,,,,,,,,,,,,,,,,,,,,,,,,,,,,,,,,,,,,,
,,,,,,,,,,,,,,,,,199384,18,2022-01-25_21h51.52.470,lexical_decision_task_DD_L6,2021.2.3,Win32,59.80861244,,z,1,1.4195,,,,,,,,1.4195,1,0,6,6,11,1,1001,RASHET,z,,,,,,,,,,,,,,,,,,,,,,,,,,,,,,,,,,,,,,,,,,,,,,,,,,,,,
,,,,,,,,,,,,,,,,,199384,18,2022-01-25_21h51.52.470,lexical_decision_task_DD_L6,2021.2.3,Win32,59.80861244,,z,1,0.8538,,,,,,,,0.8538,1,0,7,7,14,1,1001,THRALE,z,,,,,,,,,,,,,,,,,,,,,,,,,,,,,,,,,,,,,,,,,,,,,,,,,,,,,
,,,,,,,,,,,,,,,,,199384,18,2022-01-25_21h51.52.470,lexical_decision_task_DD_L6,2021.2.3,Win32,59.80861244,,m,1,0.8832,,,,,,,,0.8832,1,0,8,8,0,1,1001,UTOPIA,m,,,,,,,,,,,,,,,,,,,,,,,,,,,,,,,,,,,,,,,,,,,,,,,,,,,,,
,,,,,,,,,,,,,,,,,199384,18,2022-01-25_21h51.52.470,lexical_decision_task_DD_L6,2021.2.3,Win32,59.80861244,,m,1,0.6951,,,,,,,,0.6951,1,0,9,9,3,1,1001,MATRIX,m,,,,,,,,,,,,,,,,,,,,,,,,,,,,,,,,,,,,,,,,,,,,,,,,,,,,,
,,,,,,,,,,,,,,,,,199384,18,2022-01-25_21h51.52.470,lexical_decision_task_DD_L6,2021.2.3,Win32,59.80861244,,m,1,0.5811,,,,,,,,0.5811,1,0,10,10,7,1,1001,VOLUME,m,,,,,,,,,,,,,,,,,,,,,,,,,,,,,,,,,,,,,,,,,,,,,,,,,,,,,
,,,,,,,,,,,,,,,,,199384,18,2022-01-25_21h51.52.470,lexical_decision_task_DD_L6,2021.2.3,Win32,59.80861244,,z,1,1.252,,,,,,,,1.252,1,0,11,11,10,1,1001,INLADE,z,,,,,,,,,,,,,,,,,,,,,,,,,,,,,,,,,,,,,,,,,,,,,,,,,,,,,
,,,,,,,,,,,,,,,,,199384,18,2022-01-25_21h51.52.470,lexical_decision_task_DD_L6,2021.2.3,Win32,59.80861244,,z,1,0.776,,,,,,,,0.776,1,0,12,12,8,1,1001,ASLERT,z,,,,,,,,,,,,,,,,,,,,,,,,,,,,,,,,,,,,,,,,,,,,,,,,,,,,,
,,,,,,,,,,,,,,,,,199384,18,2022-01-25_21h51.52.470,lexical_decision_task_DD_L6,2021.2.3,Win32,59.80861244,,z,1,1.3441,,,,,,,,1.3441,1,0,13,13,12,1,1001,SPRINY,z,,,,,,,,,,,,,,,,,,,,,,,,,,,,,,,,,,,,,,,,,,,,,,,,,,,,,
,,,,,,,,,,,,,,,,,199384,18,2022-01-25_21h51.52.470,lexical_decision_task_DD_L6,2021.2.3,Win32,59.80861244,,z,1,1.7633,,,,,,,,1.7633,1,0,14,14,9,1,1001,FARINY,z,,,,,,,,,,,,,,,,,,,,,,,,,,,,,,,,,,,,,,,,,,,,,,,,,,,,,
,,,,,,,,,,,,,,,,,199384,18,2022-01-25_21h51.52.470,lexical_decision_task_DD_L6,2021.2.3,Win32,59.80861244,,z,1,1.2366,,,,,,,,1.2366,1,0,15,15,13,1,1001,ROUPET,z,,,,,,,,,,,,,,,,,,,,,,,,,,,,,,,,,,,,,,,,,,,,,,,,,,,,,
,0.142592607,-0.395370413,1,0,0,instr_done_button,,,,,,1,end_of_practice,"You have completed the practice trials. During the experimental trials, you will not receive feedback. 
Before you begin, please ensure that you are in a comfortable and quiet location and will not be disturbed for about 15 minutes, as we cannot use your data if you do not complete all the trials. 
 When you are ready to start the experimental trials, please press space or touch the button below.",,,199384,18,2022-01-25_21h51.52.470,lexical_decision_task_DD_L6,2021.2.3,Win32,59.80861244,,,,,,,,,,,,,,,,,,,,,,0,0,0,0,1,,,,,,,,,,,,,,,,,,,,,,,,,,,,,,,,,,,,,,,,,,,,,,,,
,,,,,,,,,,,,,,,,,199384,18,2022-01-25_21h51.52.470,lexical_decision_task_DD_L6,2021.2.3,Win32,59.80861244,,,,,,,,,,,,1.6389,0,,,,,,,,,,,,,,m,0,1.6389,,,,,,,,0.142592607,-0.395370413,0,0,0,,0,0,0,48,1,SHIELD,LB,old,y,./images/SHIELDLB.png,,,,,,,,,,,,,,,,,,,,,,
,,,,,,,,,,,,,,,,,199384,18,2022-01-25_21h51.52.470,lexical_decision_task_DD_L6,2021.2.3,Win32,59.80861244,,,,,,,,,,,,1.7769,0,,,,,,,,,,,,,,z,0,1.7769,,,,,,,,0.142592607,-0.395370413,0,0,0,,0,1,1,136,1,WERVE,HB,old,n,./images/WERVEHB.png,,,,,,,,,,,,,,,,,,,,,,
,,,,,,,,,,,,,,,,,199384,18,2022-01-25_21h51.52.470,lexical_decision_task_DD_L6,2021.2.3,Win32,59.80861244,,,,,,,,,,,,0.9871,0,,,,,,,,,,,,,,z,0,0.9871,,,,,,,,0.142592607,-0.395370413,0,0,0,,0,2,2,161,1,BLAPS,LB,old,n,./images/BLAPSLB.png,,,,,,,,,,,,,,,,,,,,,,
,,,,,,,,,,,,,,,,,199384,18,2022-01-25_21h51.52.470,lexical_decision_task_DD_L6,2021.2.3,Win32,59.80861244,,,,,,,,,,,,2.9509,0,,,,,,,,,,,,,,z,0,2.9509,,,,,,,,0.142592607,-0.395370413,0,0,0,,0,3,3,97,1,CHIDS,HB,old,n,./images/CHIDSHB.png,,,,,,,,,,,,,,,,,,,,,,
,,,,,,,,,,,,,,,,,199384,18,2022-01-25_21h51.52.470,lexical_decision_task_DD_L6,2021.2.3,Win32,59.80861244,,,,,,,,,,,,2.6245,0,,,,,,,,,,,,,,m,0,2.6245,,,,,,,,0.142592607,-0.395370413,0,0,0,,0,4,4,53,1,POSTER,HB,old,y,./images/POSTERHB.png,,,,,,,,,,,,,,,,,,,,,,
,,,,,,,,,,,,,,,,,199384,18,2022-01-25_21h51.52.470,lexical_decision_task_DD_L6,2021.2.3,Win32,59.80861244,,,,,,,,,,,,1.0456,0,,,,,,,,,,,,,,z,0,1.0456,,,,,,,,0.142592607,-0.395370413,0,0,0,,0,5,5,142,1,PLASK,HB,old,n,./images/PLASKHB.png,,,,,,,,,,,,,,,,,,,,,,
,,,,,,,,,,,,,,,,,199384,18,2022-01-25_21h51.52.470,lexical_decision_task_DD_L6,2021.2.3,Win32,59.80861244,,,,,,,,,,,,1.111,0,,,,,,,,,,,,,,m,0,1.111,,,,,,,,0.142592607,-0.395370413,0,0,0,,0,6,6,62,1,MAMMAL,HB,old,y,./images/MAMMALHB.png,,,,,,,,,,,,,,,,,,,,,,
,,,,,,,,,,,,,,,,,199384,18,2022-01-25_21h51.52.470,lexical_decision_task_DD_L6,2021.2.3,Win32,59.80861244,,,,,,,,,,,,1.6972,0,,,,,,,,,,,,,,z,0,1.6972,,,,,,,,0.142592607,-0.395370413,0,0,0,,0,7,7,74,1,JUMPER,HB,old,y,./images/JUMPERHB.png,,,,,,,,,,,,,,,,,,,,,,
,,,,,,,,,,,,,,,,,199384,18,2022-01-25_21h51.52.470,lexical_decision_task_DD_L6,2021.2.3,Win32,59.80861244,,,,,,,,,,,,0.7021,0,,,,,,,,,,,,,,m,0,0.7021,,,,,,,,0.142592607,-0.395370413,0,0,0,,0,8,8,60,1,CURRY,LB,old,y,./images/CURRYLB.png,,,,,,,,,,,,,,,,,,,,,,
,,,,,,,,,,,,,,,,,199384,18,2022-01-25_21h51.52.470,lexical_decision_task_DD_L6,2021.2.3,Win32,59.80861244,,,,,,,,,,,,0.6437,0,,,,,,,,,,,,,,m,0,0.6437,,,,,,,,0.142592607,-0.395370413,0,0,0,,0,9,9,45,1,MONKEY,LB,old,y,./images/MONKEYLB.png,,,,,,,,,,,,,,,,,,,,,,
,,,,,,,,,,,,,,,,,199384,18,2022-01-25_21h51.52.470,lexical_decision_task_DD_L6,2021.2.3,Win32,59.80861244,,,,,,,,,,,,0.584,0,,,,,,,,,,,,,,m,0,0.584,,,,,,,,0.142592607,-0.395370413,0,0,0,,0,10,10,21,1,DANCER,LB,old,y,./images/DANCERLB.png,,,,,,,,,,,,,,,,,,,,,,
,,,,,,,,,,,,,,,,,199384,18,2022-01-25_21h51.52.470,lexical_decision_task_DD_L6,2021.2.3,Win32,59.80861244,,,,,,,,,,,,1.0369,0,,,,,,,,,,,,,,z,0,1.0369,,,,,,,,0.142592607,-0.395370413,0,0,0,,0,11,11,125,1,MOOKY,LB,old,n,./images/MOOKYLB.png,,,,,,,,,,,,,,,,,,,,,,
,,,,,,,,,,,,,,,,,199384,18,2022-01-25_21h51.52.470,lexical_decision_task_DD_L6,2021.2.3,Win32,59.80861244,,,,,,,,,,,,0.7466,0,,,,,,,,,,,,,,m,0,0.7466,,,,,,,,0.142592607,-0.395370413,0,0,0,,0,12,12,40,1,SNAKE,C,old,y,./images/SNAKE.png,,,,,,,,,,,,,,,,,,,,,,
,,,,,,,,,,,,,,,,,199384,18,2022-01-25_21h51.52.470,lexical_decision_task_DD_L6,2021.2.3,Win32,59.80861244,,,,,,,,,,,,0.8967,0,,,,,,,,,,,,,,z,0,0.8967,,,,,,,,0.142592607,-0.395370413,0,0,0,,0,13,13,101,1,GLEET,LB,old,n,./images/GLEETLB.png,,,,,,,,,,,,,,,,,,,,,,
,,,,,,,,,,,,,,,,,199384,18,2022-01-25_21h51.52.470,lexical_decision_task_DD_L6,2021.2.3,Win32,59.80861244,,,,,,,,,,,,1.0277,0,,,,,,,,,,,,,,m,0,1.0277,,,,,,,,0.142592607,-0.395370413,0,0,0,,0,14,14,32,1,HOCKEY,HB,old,y,./images/HOCKEYHB.png,,,,,,,,,,,,,,,,,,,,,,
,,,,,,,,,,,,,,,,,199384,18,2022-01-25_21h51.52.470,lexical_decision_task_DD_L6,2021.2.3,Win32,59.80861244,,,,,,,,,,,,0.8789,0,,,,,,,,,,,,,,z,0,0.8789,,,,,,,,0.142592607,-0.395370413,0,0,0,,0,15,15,150,1,NOOLS,C,old,n,./images/NOOLS.png,,,,,,,,,,,,,,,,,,,,,,
,,,,,,,,,,,,,,,,,199384,18,2022-01-25_21h51.52.470,lexical_decision_task_DD_L6,2021.2.3,Win32,59.80861244,,,,,,,,,,,,1.925,0,,,,,,,,,,,,,,z,0,1.925,,,,,,,,0.142592607,-0.395370413,0,0,0,,0,16,16,121,1,CEERS,HB,old,n,./images/CEERSHB.png,,,,,,,,,,,,,,,,,,,,,,
,,,,,,,,,,,,,,,,,199384,18,2022-01-25_21h51.52.470,lexical_decision_task_DD_L6,2021.2.3,Win32,59.80861244,,,,,,,,,,,,0.7286,0,,,,,,,,,,,,,,m,0,0.7286,,,,,,,,0.142592607,-0.395370413,0,0,0,,0,17,17,51,1,SAUCE,LB,old,y,./images/SAUCELB.png,,,,,,,,,,,,,,,,,,,,,,
,,,,,,,,,,,,,,,,,199384,18,2022-01-25_21h51.52.470,lexical_decision_task_DD_L6,2021.2.3,Win32,59.80861244,,,,,,,,,,,,1.2283,0,,,,,,,,,,,,,,m,0,1.2283,,,,,,,,0.142592607,-0.395370413,0,0,0,,0,18,18,110,1,CRUNK,LB,old,n,./images/CRUNKLB.png,,,,,,,,,,,,,,,,,,,,,,
,,,,,,,,,,,,,,,,,199384,18,2022-01-25_21h51.52.470,lexical_decision_task_DD_L6,2021.2.3,Win32,59.80861244,,,,,,,,,,,,1.0993,0,,,,,,,,,,,,,,z,0,1.0993,,,,,,,,0.142592607,-0.395370413,0,0,0,,0,19,19,165,1,TROWN,C,old,n,./images/TROWN.png,,,,,,,,,,,,,,,,,,,,,,
,,,,,,,,,,,,,,,,,199384,18,2022-01-25_21h51.52.470,lexical_decision_task_DD_L6,2021.2.3,Win32,59.80861244,,,,,,,,,,,,0.9852,0,,,,,,,,,,,,,,m,0,0.9852,,,,,,,,0.142592607,-0.395370413,0,0,0,,0,20,20,52,1,DESERT,C,old,y,./images/DESERT.png,,,,,,,,,,,,,,,,,,,,,,
,,,,,,,,,,,,,,,,,199384,18,2022-01-25_21h51.52.470,lexical_decision_task_DD_L6,2021.2.3,Win32,59.80861244,,,,,,,,,,,,1.2549,0,,,,,,,,,,,,,,z,0,1.2549,,,,,,,,0.142592607,-0.395370413,0,0,0,,0,21,21,89,1,DRIEK,LB,old,n,./images/DRIEKLB.png,,,,,,,,,,,,,,,,,,,,,,
,,,,,,,,,,,,,,,,,199384,18,2022-01-25_21h51.52.470,lexical_decision_task_DD_L6,2021.2.3,Win32,59.80861244,,,,,,,,,,,,0.8231,0,,,,,,,,,,,,,,z,0,0.8231,,,,,,,,0.142592607,-0.395370413,0,0,0,,0,22,22,167,1,ZONET,LB,old,n,./images/ZONETLB.png,,,,,,,,,,,,,,,,,,,,,,
,,,,,,,,,,,,,,,,,199384,18,2022-01-25_21h51.52.470,lexical_decision_task_DD_L6,2021.2.3,Win32,59.80861244,,,,,,,,,,,,1.2192,0,,,,,,,,,,,,,,m,0,1.2192,,,,,,,,0.142592607,-0.395370413,0,0,0,,0,23,23,5,1,BAMBOO,HB,old,y,./images/BAMBOOHB.png,,,,,,,,,,,,,,,,,,,,,,
,,,,,,,,,,,,,,,,,199384,18,2022-01-25_21h51.52.470,lexical_decision_task_DD_L6,2021.2.3,Win32,59.80861244,,,,,,,,,,,,0.7765,0,,,,,,,,,,,,,,m,0,0.7765,,,,,,,,0.142592607,-0.395370413,0,0,0,,0,24,24,82,1,PEBBLE,C,old,y,./images/PEBBLE.png,,,,,,,,,,,,,,,,,,,,,,
,,,,,,,,,,,,,,,,,199384,18,2022-01-25_21h51.52.470,lexical_decision_task_DD_L6,2021.2.3,Win32,59.80861244,,,,,,,,,,,,0.8181,0,,,,,,,,,,,,,,m,0,0.8181,,,,,,,,0.142592607,-0.395370413,0,0,0,,0,25,25,46,1,MUMMY,C,old,y,./images/MUMMY.png,,,,,,,,,,,,,,,,,,,,,,
,,,,,,,,,,,,,,,,,199384,18,2022-01-25_21h51.52.470,lexical_decision_task_DD_L6,2021.2.3,Win32,59.80861244,,,,,,,,,,,,0.9917,0,,,,,,,,,,,,,,m,0,0.9917,,,,,,,,0.142592607,-0.395370413,0,0,0,,0,26,26,9,1,DIVER,LB,old,y,./images/DIVERLB.png,,,,,,,,,,,,,,,,,,,,,,
,,,,,,,,,,,,,,,,,199384,18,2022-01-25_21h51.52.470,lexical_decision_task_DD_L6,2021.2.3,Win32,59.80861244,,,,,,,,,,,,0.6659,0,,,,,,,,,,,,,,z,0,0.6659,,,,,,,,0.142592607,-0.395370413,0,0,0,,0,27,27,135,1,JOODY,C,old,n,./images/JOODY.png,,,,,,,,,,,,,,,,,,,,,,
,,,,,,,,,,,,,,,,,199384,18,2022-01-25_21h51.52.470,lexical_decision_task_DD_L6,2021.2.3,Win32,59.80861244,,,,,,,,,,,,1.1208,0,,,,,,,,,,,,,,m,0,1.1208,,,,,,,,0.142592607,-0.395370413,0,0,0,,0,28,28,15,1,COLLAR,LB,old,y,./images/COLLARLB.png,,,,,,,,,,,,,,,,,,,,,,
,,,,,,,,,,,,,,,,,199384,18,2022-01-25_21h51.52.470,lexical_decision_task_DD_L6,2021.2.3,Win32,59.80861244,,,,,,,,,,,,0.7073,0,,,,,,,,,,,,,,z,0,0.7073,,,,,,,,0.142592607,-0.395370413,0,0,0,,0,29,29,58,1,CANOE,C,old,y,./images/CANOE.png,,,,,,,,,,,,,,,,,,,,,,
,,,,,,,,,,,,,,,,,199384,18,2022-01-25_21h51.52.470,lexical_decision_task_DD_L6,2021.2.3,Win32,59.80861244,,,,,,,,,,,,0.8084,0,,,,,,,,,,,,,,z,0,0.8084,,,,,,,,0.142592607,-0.395370413,0,0,0,,0,30,30,164,1,SGREW,LB,old,n,./images/SGREWLB.png,,,,,,,,,,,,,,,,,,,,,,
,,,,,,,,,,,,,,,,,199384,18,2022-01-25_21h51.52.470,lexical_decision_task_DD_L6,2021.2.3,Win32,59.80861244,,,,,,,,,,,,0.909,0,,,,,,,,,,,,,,z,0,0.909,,,,,,,,0.142592607,-0.395370413,0,0,0,,0,31,31,145,1,LAMEL,HB,old,n,./images/LAMELHB.png,,,,,,,,,,,,,,,,,,,,,,
,,,,,,,,,,,,,,,,,199384,18,2022-01-25_21h51.52.470,lexical_decision_task_DD_L6,2021.2.3,Win32,59.80861244,,,,,,,,,,,,0.6958,0,,,,,,,,,,,,,,m,0,0.6958,,,,,,,,0.142592607,-0.395370413,0,0,0,,0,32,32,0,1,WALNUT,LB,old,y,./images/WALNUTLB.png,,,,,,,,,,,,,,,,,,,,,,
,,,,,,,,,,,,,,,,,199384,18,2022-01-25_21h51.52.470,lexical_decision_task_DD_L6,2021.2.3,Win32,59.80861244,,,,,,,,,,,,2.025,0,,,,,,,,,,,,,,z,0,2.025,,,,,,,,0.142592607,-0.395370413,0,0,0,,0,33,33,166,1,SHORY,HB,old,n,./images/SHORYHB.png,,,,,,,,,,,,,,,,,,,,,,
,,,,,,,,,,,,,,,,,199384,18,2022-01-25_21h51.52.470,lexical_decision_task_DD_L6,2021.2.3,Win32,59.80861244,,,,,,,,,,,,1.0586,0,,,,,,,,,,,,,,m,0,1.0586,,,,,,,,0.142592607,-0.395370413,0,0,0,,0,34,34,83,1,WHISKY,HB,old,y,./images/WHISKYHB.png,,,,,,,,,,,,,,,,,,,,,,
,,,,,,,,,,,,,,,,,199384,18,2022-01-25_21h51.52.470,lexical_decision_task_DD_L6,2021.2.3,Win32,59.80861244,,,,,,,,,,,,2.4831,0,,,,,,,,,,,,,,m,0,2.4831,,,,,,,,0.142592607,-0.395370413,0,0,0,,0,35,35,115,1,MAWNS,HB,old,n,./images/MAWNSHB.png,,,,,,,,,,,,,,,,,,,,,,
,,,,,,,,,,,,,,,,,199384,18,2022-01-25_21h51.52.470,lexical_decision_task_DD_L6,2021.2.3,Win32,59.80861244,,,,,,,,,,,,0.9835,0,,,,,,,,,,,,,,z,0,0.9835,,,,,,,,0.142592607,-0.395370413,0,0,0,,0,36,36,123,1,SEDGE,C,old,n,./images/SEDGE.png,,,,,,,,,,,,,,,,,,,,,,
,,,,,,,,,,,,,,,,,199384,18,2022-01-25_21h51.52.470,lexical_decision_task_DD_L6,2021.2.3,Win32,59.80861244,,,,,,,,,,,,0.7804,0,,,,,,,,,,,,,,z,0,0.7804,,,,,,,,0.142592607,-0.395370413,0,0,0,,0,37,37,113,1,LINEW,LB,old,n,./images/LINEWLB.png,,,,,,,,,,,,,,,,,,,,,,
,,,,,,,,,,,,,,,,,199384,18,2022-01-25_21h51.52.470,lexical_decision_task_DD_L6,2021.2.3,Win32,59.80861244,,,,,,,,,,,,1.4502,0,,,,,,,,,,,,,,m,0,1.4502,,,,,,,,0.142592607,-0.395370413,0,0,0,,0,38,38,139,1,BLEAR,HB,old,n,./images/BLEARHB.png,,,,,,,,,,,,,,,,,,,,,,
,,,,,,,,,,,,,,,,,199384,18,2022-01-25_21h51.52.470,lexical_decision_task_DD_L6,2021.2.3,Win32,59.80861244,,,,,,,,,,,,0.8432,0,,,,,,,,,,,,,,z,0,0.8432,,,,,,,,0.142592607,-0.395370413,0,0,0,,0,39,39,98,1,BAMPS,LB,old,n,./images/BAMPSLB.png,,,,,,,,,,,,,,,,,,,,,,
,,,,,,,,,,,,,,,,,199384,18,2022-01-25_21h51.52.470,lexical_decision_task_DD_L6,2021.2.3,Win32,59.80861244,,,,,,,,,,,,0.9828,0,,,,,,,,,,,,,,m,0,0.9828,,,,,,,,0.142592607,-0.395370413,0,0,0,,0,40,40,24,1,FLESH,LB,old,y,./images/FLESHLB.png,,,,,,,,,,,,,,,,,,,,,,
,,,,,,,,,,,,,,,,,199384,18,2022-01-25_21h51.52.470,lexical_decision_task_DD_L6,2021.2.3,Win32,59.80861244,,,,,,,,,,,,0.9304,0,,,,,,,,,,,,,,m,0,0.9304,,,,,,,,0.142592607,-0.395370413,0,0,0,space,0,41,41,69,1,ARROW,LB,old,y,./images/ARROWLB.png,49.1445,,,,,,,,,,,,,,,,,,,,,
,,,,,,,,,,,,,,,,,199384,18,2022-01-25_21h51.52.470,lexical_decision_task_DD_L6,2021.2.3,Win32,59.80861244,,,,,,,,,,,,1.1681,0,,,,,,,,,,,,,,z,0,1.1681,,,,,,,,0.142592607,-0.395370413,0,0,0,,0,42,42,146,1,MOOST,LB,old,n,./images/MOOSTLB.png,,,,,,,,,,,,,,,,,,,,,,
,,,,,,,,,,,,,,,,,199384,18,2022-01-25_21h51.52.470,lexical_decision_task_DD_L6,2021.2.3,Win32,59.80861244,,,,,,,,,,,,1.0672,0,,,,,,,,,,,,,,m,0,1.0672,,,,,,,,0.142592607,-0.395370413,0,0,0,,0,43,43,26,1,CLOUD,HB,old,y,./images/CLOUDHB.png,,,,,,,,,,,,,,,,,,,,,,
,,,,,,,,,,,,,,,,,199384,18,2022-01-25_21h51.52.470,lexical_decision_task_DD_L6,2021.2.3,Win32,59.80861244,,,,,,,,,,,,0.7434,0,,,,,,,,,,,,,,m,0,0.7434,,,,,,,,0.142592607,-0.395370413,0,0,0,,0,44,44,30,1,SLOPE,LB,old,y,./images/SLOPELB.png,,,,,,,,,,,,,,,,,,,,,,
,,,,,,,,,,,,,,,,,199384,18,2022-01-25_21h51.52.470,lexical_decision_task_DD_L6,2021.2.3,Win32,59.80861244,,,,,,,,,,,,0.8542,0,,,,,,,,,,,,,,z,0,0.8542,,,,,,,,0.142592607,-0.395370413,0,0,0,,0,45,45,92,1,PAIMS,LB,old,n,./images/PAIMSLB.png,,,,,,,,,,,,,,,,,,,,,,
,,,,,,,,,,,,,,,,,199384,18,2022-01-25_21h51.52.470,lexical_decision_task_DD_L6,2021.2.3,Win32,59.80861244,,,,,,,,,,,,1.0166,0,,,,,,,,,,,,,,m,0,1.0166,,,,,,,,0.142592607,-0.395370413,0,0,0,,0,46,46,100,1,DRIBS,HB,old,n,./images/DRIBSHB.png,,,,,,,,,,,,,,,,,,,,,,
,,,,,,,,,,,,,,,,,199384,18,2022-01-25_21h51.52.470,lexical_decision_task_DD_L6,2021.2.3,Win32,59.80861244,,,,,,,,,,,,0.6986,0,,,,,,,,,,,,,,m,0,0.6986,,,,,,,,0.142592607,-0.395370413,0,0,0,,0,47,47,107,1,FASKS,LB,old,n,./images/FASKSLB.png,,,,,,,,,,,,,,,,,,,,,,
,,,,,,,,,,,,,,,,,199384,18,2022-01-25_21h51.52.470,lexical_decision_task_DD_L6,2021.2.3,Win32,59.80861244,,,,,,,,,,,,0.6724,0,,,,,,,,,,,,,,m,0,0.6724,,,,,,,,0.142592607,-0.395370413,0,0,0,,0,48,48,86,1,AIFED,LB,old,n,./images/AIFEDLB.png,,,,,,,,,,,,,,,,,,,,,,
,,,,,,,,,,,,,,,,,199384,18,2022-01-25_21h51.52.470,lexical_decision_task_DD_L6,2021.2.3,Win32,59.80861244,,,,,,,,,,,,0.5629,0,,,,,,,,,,,,,,m,0,0.5629,,,,,,,,0.142592607,-0.395370413,0,0,0,,0,49,49,75,1,HAMMER,LB,old,y,./images/HAMMERLB.png,,,,,,,,,,,,,,,,,,,,,,
,,,,,,,,,,,,,,,,,199384,18,2022-01-25_21h51.52.470,lexical_decision_task_DD_L6,2021.2.3,Win32,59.80861244,,,,,,,,,,,,0.7339,0,,,,,,,,,,,,,,z,0,0.7339,,,,,,,,0.142592607,-0.395370413,0,0,0,,0,50,50,143,1,MONGS,LB,old,n,./images/MONGSLB.png,,,,,,,,,,,,,,,,,,,,,,
,,,,,,,,,,,,,,,,,199384,18,2022-01-25_21h51.52.470,lexical_decision_task_DD_L6,2021.2.3,Win32,59.80861244,,,,,,,,,,,,0.6835,0,,,,,,,,,,,,,,m,0,0.6835,,,,,,,,0.142592607,-0.395370413,0,0,0,,0,51,51,14,1,FENCE,HB,old,y,./images/FENCEHB.png,,,,,,,,,,,,,,,,,,,,,,
,,,,,,,,,,,,,,,,,199384,18,2022-01-25_21h51.52.470,lexical_decision_task_DD_L6,2021.2.3,Win32,59.80861244,,,,,,,,,,,,0.7508,0,,,,,,,,,,,,,,z,0,0.7508,,,,,,,,0.142592607,-0.395370413,0,0,0,,0,52,52,50,1,PILOT,HB,old,y,./images/PILOTHB.png,,,,,,,,,,,,,,,,,,,,,,
,,,,,,,,,,,,,,,,,199384,18,2022-01-25_21h51.52.470,lexical_decision_task_DD_L6,2021.2.3,Win32,59.80861244,,,,,,,,,,,,0.7176,0,,,,,,,,,,,,,,m,0,0.7176,,,,,,,,0.142592607,-0.395370413,0,0,0,,0,53,53,25,1,CHALK,C,old,y,./images/CHALK.png,,,,,,,,,,,,,,,,,,,,,,
,,,,,,,,,,,,,,,,,199384,18,2022-01-25_21h51.52.470,lexical_decision_task_DD_L6,2021.2.3,Win32,59.80861244,,,,,,,,,,,,2.0925,0,,,,,,,,,,,,,,z,0,2.0925,,,,,,,,0.142592607,-0.395370413,0,0,0,,0,54,54,91,1,SHENS,HB,old,n,./images/SHENSHB.png,,,,,,,,,,,,,,,,,,,,,,
,,,,,,,,,,,,,,,,,199384,18,2022-01-25_21h51.52.470,lexical_decision_task_DD_L6,2021.2.3,Win32,59.80861244,,,,,,,,,,,,0.8433,0,,,,,,,,,,,,,,z,0,0.8433,,,,,,,,0.142592607,-0.395370413,0,0,0,,0,55,55,144,1,NAIRY,C,old,n,./images/NAIRY.png,,,,,,,,,,,,,,,,,,,,,,
,,,,,,,,,,,,,,,,,199384,18,2022-01-25_21h51.52.470,lexical_decision_task_DD_L6,2021.2.3,Win32,59.80861244,,,,,,,,,,,,1.3339,0,,,,,,,,,,,,,,z,0,1.3339,,,,,,,,0.142592607,-0.395370413,0,0,0,,0,56,56,99,1,BACKY,C,old,n,./images/BACKY.png,,,,,,,,,,,,,,,,,,,,,,
,,,,,,,,,,,,,,,,,199384,18,2022-01-25_21h51.52.470,lexical_decision_task_DD_L6,2021.2.3,Win32,59.80861244,,,,,,,,,,,,1.1561,0,,,,,,,,,,,,,,z,0,1.1561,,,,,,,,0.142592607,-0.395370413,0,0,0,,0,57,57,90,1,NEAST,C,old,n,./images/NEAST.png,,,,,,,,,,,,,,,,,,,,,,
,,,,,,,,,,,,,,,,,199384,18,2022-01-25_21h51.52.470,lexical_decision_task_DD_L6,2021.2.3,Win32,59.80861244,,,,,,,,,,,,0.7956,0,,,,,,,,,,,,,,m,0,0.7956,,,,,,,,0.142592607,-0.395370413,0,0,0,,0,58,58,57,1,FERRY,LB,old,y,./images/FERRYLB.png,,,,,,,,,,,,,,,,,,,,,,
,,,,,,,,,,,,,,,,,199384,18,2022-01-25_21h51.52.470,lexical_decision_task_DD_L6,2021.2.3,Win32,59.80861244,,,,,,,,,,,,0.921,0,,,,,,,,,,,,,,m,0,0.921,,,,,,,,0.142592607,-0.395370413,0,0,0,,0,59,59,31,1,STEAK,C,old,y,./images/STEAK.png,,,,,,,,,,,,,,,,,,,,,,
,,,,,,,,,,,,,,,,,199384,18,2022-01-25_21h51.52.470,lexical_decision_task_DD_L6,2021.2.3,Win32,59.80861244,,,,,,,,,,,,0.839,0,,,,,,,,,,,,,,z,0,0.839,,,,,,,,0.142592607,-0.395370413,0,0,0,,0,60,60,116,1,BALGY,LB,old,n,./images/BALGYLB.png,,,,,,,,,,,,,,,,,,,,,,
,,,,,,,,,,,,,,,,,199384,18,2022-01-25_21h51.52.470,lexical_decision_task_DD_L6,2021.2.3,Win32,59.80861244,,,,,,,,,,,,0.7463,0,,,,,,,,,,,,,,z,0,0.7463,,,,,,,,0.142592607,-0.395370413,0,0,0,,0,61,61,117,1,STEEG,C,old,n,./images/STEEG.png,,,,,,,,,,,,,,,,,,,,,,
,,,,,,,,,,,,,,,,,199384,18,2022-01-25_21h51.52.470,lexical_decision_task_DD_L6,2021.2.3,Win32,59.80861244,,,,,,,,,,,,0.9006,0,,,,,,,,,,,,,,m,0,0.9006,,,,,,,,0.142592607,-0.395370413,0,0,0,,0,62,62,18,1,PARCEL,LB,old,y,./images/PARCELLB.png,,,,,,,,,,,,,,,,,,,,,,
,,,,,,,,,,,,,,,,,199384,18,2022-01-25_21h51.52.470,lexical_decision_task_DD_L6,2021.2.3,Win32,59.80861244,,,,,,,,,,,,1.5388,0,,,,,,,,,,,,,,z,0,1.5388,,,,,,,,0.142592607,-0.395370413,0,0,0,,0,63,63,151,1,TINKY,HB,old,n,./images/TINKYHB.png,,,,,,,,,,,,,,,,,,,,,,
,,,,,,,,,,,,,,,,,199384,18,2022-01-25_21h51.52.470,lexical_decision_task_DD_L6,2021.2.3,Win32,59.80861244,,,,,,,,,,,,0.6593,0,,,,,,,,,,,,,,m,0,0.6593,,,,,,,,0.142592607,-0.395370413,0,0,0,,0,64,64,22,1,CLOWN,C,old,y,./images/CLOWN.png,,,,,,,,,,,,,,,,,,,,,,
,,,,,,,,,,,,,,,,,199384,18,2022-01-25_21h51.52.470,lexical_decision_task_DD_L6,2021.2.3,Win32,59.80861244,,,,,,,,,,,,0.5625,0,,,,,,,,,,,,,,m,0,0.5625,,,,,,,,0.142592607,-0.395370413,0,0,0,,0,65,65,108,1,GRUET,C,old,n,./images/GRUET.png,,,,,,,,,,,,,,,,,,,,,,
,,,,,,,,,,,,,,,,,199384,18,2022-01-25_21h51.52.470,lexical_decision_task_DD_L6,2021.2.3,Win32,59.80861244,,,,,,,,,,,,1.6677,0,,,,,,,,,,,,,,m,0,1.6677,,,,,,,,0.142592607,-0.395370413,0,0,0,,0,66,66,59,1,BRUSH,HB,old,y,./images/BRUSHHB.png,,,,,,,,,,,,,,,,,,,,,,
,,,,,,,,,,,,,,,,,199384,18,2022-01-25_21h51.52.470,lexical_decision_task_DD_L6,2021.2.3,Win32,59.80861244,,,,,,,,,,,,2.2036,0,,,,,,,,,,,,,,m,0,2.2036,,,,,,,,0.142592607,-0.395370413,0,0,0,,0,67,67,36,1,BOILER,LB,old,y,./images/BOILERLB.png,,,,,,,,,,,,,,,,,,,,,,
,,,,,,,,,,,,,,,,,199384,18,2022-01-25_21h51.52.470,lexical_decision_task_DD_L6,2021.2.3,Win32,59.80861244,,,,,,,,,,,,4.9869,0,,,,,,,,,,,,,,z,0,4.9869,,,,,,,,0.142592607,-0.395370413,0,0,0,,0,68,68,103,1,FLORT,HB,old,n,./images/FLORTHB.png,,,,,,,,,,,,,,,,,,,,,,
,,,,,,,,,,,,,,,,,199384,18,2022-01-25_21h51.52.470,lexical_decision_task_DD_L6,2021.2.3,Win32,59.80861244,,,,,,,,,,,,1.2836,0,,,,,,,,,,,,,,m,0,1.2836,,,,,,,,0.142592607,-0.395370413,0,0,0,,0,69,69,66,1,STATUE,LB,old,y,./images/STATUELB.png,,,,,,,,,,,,,,,,,,,,,,
,,,,,,,,,,,,,,,,,199384,18,2022-01-25_21h51.52.470,lexical_decision_task_DD_L6,2021.2.3,Win32,59.80861244,,,,,,,,,,,,0.8374,0,,,,,,,,,,,,,,m,0,0.8374,,,,,,,,0.142592607,-0.395370413,0,0,0,,0,70,70,72,1,FLASK,LB,old,y,./images/FLASKLB.png,,,,,,,,,,,,,,,,,,,,,,
,,,,,,,,,,,,,,,,,199384,18,2022-01-25_21h51.52.470,lexical_decision_task_DD_L6,2021.2.3,Win32,59.80861244,,,,,,,,,,,,0.7458,0,,,,,,,,,,,,,,z,0,0.7458,,,,,,,,0.142592607,-0.395370413,0,0,0,,0,71,71,156,1,HIXES,C,old,n,./images/HIXES.png,,,,,,,,,,,,,,,,,,,,,,
,,,,,,,,,,,,,,,,,199384,18,2022-01-25_21h51.52.470,lexical_decision_task_DD_L6,2021.2.3,Win32,59.80861244,,,,,,,,,,,,0.9271,0,,,,,,,,,,,,,,z,0,0.9271,,,,,,,,0.142592607,-0.395370413,0,0,0,,0,72,72,127,1,NINDY,HB,old,n,./images/NINDYHB.png,,,,,,,,,,,,,,,,,,,,,,
,,,,,,,,,,,,,,,,,199384,18,2022-01-25_21h51.52.470,lexical_decision_task_DD_L6,2021.2.3,Win32,59.80861244,,,,,,,,,,,,1.1125,0,,,,,,,,,,,,,,m,0,1.1125,,,,,,,,0.142592607,-0.395370413,0,0,0,,0,73,73,63,1,BAKER,LB,old,y,./images/BAKERLB.png,,,,,,,,,,,,,,,,,,,,,,
,,,,,,,,,,,,,,,,,199384,18,2022-01-25_21h51.52.470,lexical_decision_task_DD_L6,2021.2.3,Win32,59.80861244,,,,,,,,,,,,0.7008,0,,,,,,,,,,,,,,z,0,0.7008,,,,,,,,0.142592607,-0.395370413,0,0,0,,0,74,74,102,1,DULLE,C,old,n,./images/DULLE.png,,,,,,,,,,,,,,,,,,,,,,
,,,,,,,,,,,,,,,,,199384,18,2022-01-25_21h51.52.470,lexical_decision_task_DD_L6,2021.2.3,Win32,59.80861244,,,,,,,,,,,,0.767,0,,,,,,,,,,,,,,z,0,0.767,,,,,,,,0.142592607,-0.395370413,0,0,0,,0,75,75,95,1,HANTY,LB,old,n,./images/HANTYLB.png,,,,,,,,,,,,,,,,,,,,,,
,,,,,,,,,,,,,,,,,199384,18,2022-01-25_21h51.52.470,lexical_decision_task_DD_L6,2021.2.3,Win32,59.80861244,,,,,,,,,,,,0.7755,0,,,,,,,,,,,,,,m,0,0.7755,,,,,,,,0.142592607,-0.395370413,0,0,0,,0,76,76,55,1,ALLEY,C,old,y,./images/ALLEY.png,,,,,,,,,,,,,,,,,,,,,,
,,,,,,,,,,,,,,,,,199384,18,2022-01-25_21h51.52.470,lexical_decision_task_DD_L6,2021.2.3,Win32,59.80861244,,,,,,,,,,,,0.888,0,,,,,,,,,,,,,,z,0,0.888,,,,,,,,0.142592607,-0.395370413,0,0,0,,0,77,77,12,1,BLOKE,LB,old,y,./images/BLOKELB.png,,,,,,,,,,,,,,,,,,,,,,
,,,,,,,,,,,,,,,,,199384,18,2022-01-25_21h51.52.470,lexical_decision_task_DD_L6,2021.2.3,Win32,59.80861244,,,,,,,,,,,,0.6513,0,,,,,,,,,,,,,,m,0,0.6513,,,,,,,,0.142592607,-0.395370413,0,0,0,,0,78,78,13,1,BUNNY,C,old,y,./images/BUNNY.png,,,,,,,,,,,,,,,,,,,,,,
,,,,,,,,,,,,,,,,,199384,18,2022-01-25_21h51.52.470,lexical_decision_task_DD_L6,2021.2.3,Win32,59.80861244,,,,,,,,,,,,0.5707,0,,,,,,,,,,,,,,m,0,0.5707,,,,,,,,0.142592607,-0.395370413,0,0,0,,0,79,79,70,1,BANANA,C,old,y,./images/BANANA.png,,,,,,,,,,,,,,,,,,,,,,
,,,,,,,,,,,,,,,,,199384,18,2022-01-25_21h51.52.470,lexical_decision_task_DD_L6,2021.2.3,Win32,59.80861244,,,,,,,,,,,,0.7033,0,,,,,,,,,,,,,,z,0,0.7033,,,,,,,,0.142592607,-0.395370413,0,0,0,,0,80,80,131,1,NACES,LB,old,n,./images/NACESLB.png,,,,,,,,,,,,,,,,,,,,,,
,,,,,,,,,,,,,,,,,199384,18,2022-01-25_21h51.52.470,lexical_decision_task_DD_L6,2021.2.3,Win32,59.80861244,,,,,,,,,,,,0.8527,0,,,,,,,,,,,,,,z,0,0.8527,,,,,,,,0.142592607,-0.395370413,0,0,0,,0,81,81,94,1,BLANS,HB,old,n,./images/BLANSHB.png,,,,,,,,,,,,,,,,,,,,,,
,,,,,,,,,,,,,,,,,199384,18,2022-01-25_21h51.52.470,lexical_decision_task_DD_L6,2021.2.3,Win32,59.80861244,,,,,,,,,,,,0.6164,0,,,,,,,,,,,,,,m,0,0.6164,,,,,,,,0.142592607,-0.395370413,0,0,0,,0,82,82,1,1,TOWEL,C,old,y,./images/TOWEL.png,,,,,,,,,,,,,,,,,,,,,,
,,,,,,,,,,,,,,,,,199384,18,2022-01-25_21h51.52.470,lexical_decision_task_DD_L6,2021.2.3,Win32,59.80861244,,,,,,,,,,,,0.7744,0,,,,,,,,,,,,,,z,0,0.7744,,,,,,,,0.142592607,-0.395370413,0,0,0,space,0,83,83,122,1,BLOOT,LB,old,n,./images/BLOOTLB.png,1.3387,,,,,,,,,,,,,,,,,,,,,
,,,,,,,,,,,,,,,,,199384,18,2022-01-25_21h51.52.470,lexical_decision_task_DD_L6,2021.2.3,Win32,59.80861244,,,,,,,,,,,,0.7595,0,,,,,,,,,,,,,,m,0,0.7595,,,,,,,,0.142592607,-0.395370413,0,0,0,,0,84,84,54,1,CHERRY,LB,old,y,./images/CHERRYLB.png,,,,,,,,,,,,,,,,,,,,,,
,,,,,,,,,,,,,,,,,199384,18,2022-01-25_21h51.52.470,lexical_decision_task_DD_L6,2021.2.3,Win32,59.80861244,,,,,,,,,,,,0.5917,0,,,,,,,,,,,,,,m,0,0.5917,,,,,,,,0.142592607,-0.395370413,0,0,0,,0,85,85,16,1,GRAPE,C,old,y,./images/GRAPE.png,,,,,,,,,,,,,,,,,,,,,,
,,,,,,,,,,,,,,,,,199384,18,2022-01-25_21h51.52.470,lexical_decision_task_DD_L6,2021.2.3,Win32,59.80861244,,,,,,,,,,,,0.5906,0,,,,,,,,,,,,,,z,0,0.5906,,,,,,,,0.142592607,-0.395370413,0,0,0,,0,86,86,158,1,EGECT,LB,old,n,./images/EGECTLB.png,,,,,,,,,,,,,,,,,,,,,,
,,,,,,,,,,,,,,,,,199384,18,2022-01-25_21h51.52.470,lexical_decision_task_DD_L6,2021.2.3,Win32,59.80861244,,,,,,,,,,,,0.6197,0,,,,,,,,,,,,,,z,0,0.6197,,,,,,,,0.142592607,-0.395370413,0,0,0,,0,87,87,147,1,ZOLES,C,old,n,./images/ZOLES.png,,,,,,,,,,,,,,,,,,,,,,
,,,,,,,,,,,,,,,,,199384,18,2022-01-25_21h51.52.470,lexical_decision_task_DD_L6,2021.2.3,Win32,59.80861244,,,,,,,,,,,,0.8884,0,,,,,,,,,,,,,,m,0,0.8884,,,,,,,,0.142592607,-0.395370413,0,0,0,,0,88,88,78,1,BROOM,LB,old,y,./images/BROOMLB.png,,,,,,,,,,,,,,,,,,,,,,
,,,,,,,,,,,,,,,,,199384,18,2022-01-25_21h51.52.470,lexical_decision_task_DD_L6,2021.2.3,Win32,59.80861244,,,,,,,,,,,,0.7333,0,,,,,,,,,,,,,,z,0,0.7333,,,,,,,,0.142592607,-0.395370413,0,0,0,,0,89,89,130,1,CRILL,HB,old,n,./images/CRILLHB.png,,,,,,,,,,,,,,,,,,,,,,
,,,,,,,,,,,,,,,,,199384,18,2022-01-25_21h51.52.470,lexical_decision_task_DD_L6,2021.2.3,Win32,59.80861244,,,,,,,,,,,,0.8265,0,,,,,,,,,,,,,,z,0,0.8265,,,,,,,,0.142592607,-0.395370413,0,0,0,,0,90,90,148,1,JOMS,HB,old,n,./images/JOMSHB.png,,,,,,,,,,,,,,,,,,,,,,
,,,,,,,,,,,,,,,,,199384,18,2022-01-25_21h51.52.470,lexical_decision_task_DD_L6,2021.2.3,Win32,59.80861244,,,,,,,,,,,,0.6998,0,,,,,,,,,,,,,,m,0,0.6998,,,,,,,,0.142592607,-0.395370413,0,0,0,,0,91,91,28,1,CASINO,C,old,y,./images/CASINO.png,,,,,,,,,,,,,,,,,,,,,,
,,,,,,,,,,,,,,,,,199384,18,2022-01-25_21h51.52.470,lexical_decision_task_DD_L6,2021.2.3,Win32,59.80861244,,,,,,,,,,,,0.8331,0,,,,,,,,,,,,,,m,0,0.8331,,,,,,,,0.142592607,-0.395370413,0,0,0,,0,92,92,8,1,CLIFF,HB,old,y,./images/CLIFFHB.png,,,,,,,,,,,,,,,,,,,,,,
,,,,,,,,,,,,,,,,,199384,18,2022-01-25_21h51.52.470,lexical_decision_task_DD_L6,2021.2.3,Win32,59.80861244,,,,,,,,,,,,1.1513,0,,,,,,,,,,,,,,z,0,1.1513,,,,,,,,0.142592607,-0.395370413,0,0,0,,0,93,93,88,1,GLUSH,HB,old,n,./images/GLUSHHB.png,,,,,,,,,,,,,,,,,,,,,,
,,,,,,,,,,,,,,,,,199384,18,2022-01-25_21h51.52.470,lexical_decision_task_DD_L6,2021.2.3,Win32,59.80861244,,,,,,,,,,,,0.5997,0,,,,,,,,,,,,,,m,0,0.5997,,,,,,,,0.142592607,-0.395370413,0,0,0,,0,94,94,85,1,CHULK,HB,old,n,./images/CHULKHB.png,,,,,,,,,,,,,,,,,,,,,,
,,,,,,,,,,,,,,,,,199384,18,2022-01-25_21h51.52.470,lexical_decision_task_DD_L6,2021.2.3,Win32,59.80861244,,,,,,,,,,,,0.7369,0,,,,,,,,,,,,,,m,0,0.7369,,,,,,,,0.142592607,-0.395370413,0,0,0,,0,95,95,61,1,ARTIST,C,old,y,./images/ARTIST.png,,,,,,,,,,,,,,,,,,,,,,
,,,,,,,,,,,,,,,,,199384,18,2022-01-25_21h51.52.470,lexical_decision_task_DD_L6,2021.2.3,Win32,59.80861244,,,,,,,,,,,,0.7217,0,,,,,,,,,,,,,,m,0,0.7217,,,,,,,,0.142592607,-0.395370413,0,0,0,,0,96,96,6,1,STAIN,LB,old,y,./images/STAINLB.png,,,,,,,,,,,,,,,,,,,,,,
,,,,,,,,,,,,,,,,,199384,18,2022-01-25_21h51.52.470,lexical_decision_task_DD_L6,2021.2.3,Win32,59.80861244,,,,,,,,,,,,0.9107,0,,,,,,,,,,,,,,z,0,0.9107,,,,,,,,0.142592607,-0.395370413,0,0,0,,0,97,97,159,1,CUDDY,C,old,n,./images/CUDDY.png,,,,,,,,,,,,,,,,,,,,,,
,,,,,,,,,,,,,,,,,199384,18,2022-01-25_21h51.52.470,lexical_decision_task_DD_L6,2021.2.3,Win32,59.80861244,,,,,,,,,,,,0.6389,0,,,,,,,,,,,,,,m,0,0.6389,,,,,,,,0.142592607,-0.395370413,0,0,0,,0,98,98,134,1,TROSS,LB,old,n,./images/TROSSLB.png,,,,,,,,,,,,,,,,,,,,,,
,,,,,,,,,,,,,,,,,199384,18,2022-01-25_21h51.52.470,lexical_decision_task_DD_L6,2021.2.3,Win32,59.80861244,,,,,,,,,,,,2.0573,0,,,,,,,,,,,,,,m,0,2.0573,,,,,,,,0.142592607,-0.395370413,0,0,0,,0,99,99,163,1,GAMBA,HB,old,n,./images/GAMBAHB.png,,,,,,,,,,,,,,,,,,,,,,
,,,,,,,,,,,,,,,,,199384,18,2022-01-25_21h51.52.470,lexical_decision_task_DD_L6,2021.2.3,Win32,59.80861244,,,,,,,,,,,,0.7926,0,,,,,,,,,,,,,,z,0,0.7926,,,,,,,,0.142592607,-0.395370413,0,0,0,,0,100,100,141,1,PLEET,C,old,n,./images/PLEET.png,,,,,,,,,,,,,,,,,,,,,,
,,,,,,,,,,,,,,,,,199384,18,2022-01-25_21h51.52.470,lexical_decision_task_DD_L6,2021.2.3,Win32,59.80861244,,,,,,,,,,,,0.6269,0,,,,,,,,,,,,,,m,0,0.6269,,,,,,,,0.142592607,-0.395370413,0,0,0,,0,101,101,81,1,DRILL,LB,old,y,./images/DRILLLB.png,,,,,,,,,,,,,,,,,,,,,,
,,,,,,,,,,,,,,,,,199384,18,2022-01-25_21h51.52.470,lexical_decision_task_DD_L6,2021.2.3,Win32,59.80861244,,,,,,,,,,,,0.6173,0,,,,,,,,,,,,,,m,0,0.6173,,,,,,,,0.142592607,-0.395370413,0,0,0,,0,102,102,42,1,CHAIN,LB,old,y,./images/CHAINLB.png,,,,,,,,,,,,,,,,,,,,,,
,,,,,,,,,,,,,,,,,199384,18,2022-01-25_21h51.52.470,lexical_decision_task_DD_L6,2021.2.3,Win32,59.80861244,,,,,,,,,,,,0.9674,0,,,,,,,,,,,,,,z,0,0.9674,,,,,,,,0.142592607,-0.395370413,0,0,0,,0,103,103,105,1,MOKER,C,old,n,./images/MOKER.png,,,,,,,,,,,,,,,,,,,,,,
,,,,,,,,,,,,,,,,,199384,18,2022-01-25_21h51.52.470,lexical_decision_task_DD_L6,2021.2.3,Win32,59.80861244,,,,,,,,,,,,0.5195,0,,,,,,,,,,,,,,m,0,0.5195,,,,,,,,0.142592607,-0.395370413,0,0,0,,0,104,104,37,1,TIGER,C,old,y,./images/TIGER.png,,,,,,,,,,,,,,,,,,,,,,
,,,,,,,,,,,,,,,,,199384,18,2022-01-25_21h51.52.470,lexical_decision_task_DD_L6,2021.2.3,Win32,59.80861244,,,,,,,,,,,,1.3341,0,,,,,,,,,,,,,,m,0,1.3341,,,,,,,,0.142592607,-0.395370413,0,0,0,,0,105,105,56,1,HEATER,HB,old,y,./images/HEATERHB.png,,,,,,,,,,,,,,,,,,,,,,
,,,,,,,,,,,,,,,,,199384,18,2022-01-25_21h51.52.470,lexical_decision_task_DD_L6,2021.2.3,Win32,59.80861244,,,,,,,,,,,,0.866,0,,,,,,,,,,,,,,m,0,0.866,,,,,,,,0.142592607,-0.395370413,0,0,0,,0,106,106,47,1,LAGOON,HB,old,y,./images/LAGOONHB.png,,,,,,,,,,,,,,,,,,,,,,
,,,,,,,,,,,,,,,,,199384,18,2022-01-25_21h51.52.470,lexical_decision_task_DD_L6,2021.2.3,Win32,59.80861244,,,,,,,,,,,,0.5004,0,,,,,,,,,,,,,,m,0,0.5004,,,,,,,,0.142592607,-0.395370413,0,0,0,,0,107,107,96,1,KEAMS,C,old,n,./images/KEAMS.png,,,,,,,,,,,,,,,,,,,,,,
,,,,,,,,,,,,,,,,,199384,18,2022-01-25_21h51.52.470,lexical_decision_task_DD_L6,2021.2.3,Win32,59.80861244,,,,,,,,,,,,0.5741,0,,,,,,,,,,,,,,z,0,0.5741,,,,,,,,0.142592607,-0.395370413,0,0,0,,0,108,108,126,1,GUELS,C,old,n,./images/GUELS.png,,,,,,,,,,,,,,,,,,,,,,
,,,,,,,,,,,,,,,,,199384,18,2022-01-25_21h51.52.470,lexical_decision_task_DD_L6,2021.2.3,Win32,59.80861244,,,,,,,,,,,,0.5952,0,,,,,,,,,,,,,,m,0,0.5952,,,,,,,,0.142592607,-0.395370413,0,0,0,,0,109,109,79,1,RULER,C,old,y,./images/RULER.png,,,,,,,,,,,,,,,,,,,,,,
,,,,,,,,,,,,,,,,,199384,18,2022-01-25_21h51.52.470,lexical_decision_task_DD_L6,2021.2.3,Win32,59.80861244,,,,,,,,,,,,0.7766,0,,,,,,,,,,,,,,m,0,0.7766,,,,,,,,0.142592607,-0.395370413,0,0,0,,0,110,110,38,1,ENGINE,HB,old,y,./images/ENGINEHB.png,,,,,,,,,,,,,,,,,,,,,,
,,,,,,,,,,,,,,,,,199384,18,2022-01-25_21h51.52.470,lexical_decision_task_DD_L6,2021.2.3,Win32,59.80861244,,,,,,,,,,,,1.0841,0,,,,,,,,,,,,,,m,0,1.0841,,,,,,,,0.142592607,-0.395370413,0,0,0,,0,111,111,29,1,PISTOL,HB,old,y,./images/PISTOLHB.png,,,,,,,,,,,,,,,,,,,,,,
,,,,,,,,,,,,,,,,,199384,18,2022-01-25_21h51.52.470,lexical_decision_task_DD_L6,2021.2.3,Win32,59.80861244,,,,,,,,,,,,0.783,0,,,,,,,,,,,,,,z,0,0.783,,,,,,,,0.142592607,-0.395370413,0,0,0,,0,112,112,137,1,JOOST,LB,old,n,./images/JOOSTLB.png,,,,,,,,,,,,,,,,,,,,,,
,,,,,,,,,,,,,,,,,199384,18,2022-01-25_21h51.52.470,lexical_decision_task_DD_L6,2021.2.3,Win32,59.80861244,,,,,,,,,,,,1.0197,0,,,,,,,,,,,,,,m,0,1.0197,,,,,,,,0.142592607,-0.395370413,0,0,0,,0,113,113,152,1,FRAIN,LB,old,n,./images/FRAINLB.png,,,,,,,,,,,,,,,,,,,,,,
,,,,,,,,,,,,,,,,,199384,18,2022-01-25_21h51.52.470,lexical_decision_task_DD_L6,2021.2.3,Win32,59.80861244,,,,,,,,,,,,1.2595,0,,,,,,,,,,,,,,m,0,1.2595,,,,,,,,0.142592607,-0.395370413,0,0,0,,0,114,114,65,1,SPINE,HB,old,y,./images/SPINEHB.png,,,,,,,,,,,,,,,,,,,,,,
,,,,,,,,,,,,,,,,,199384,18,2022-01-25_21h51.52.470,lexical_decision_task_DD_L6,2021.2.3,Win32,59.80861244,,,,,,,,,,,,1.1724,0,,,,,,,,,,,,,,m,0,1.1724,,,,,,,,0.142592607,-0.395370413,0,0,0,,0,115,115,109,1,BURGE,HB,old,n,./images/BURGEHB.png,,,,,,,,,,,,,,,,,,,,,,
,,,,,,,,,,,,,,,,,199384,18,2022-01-25_21h51.52.470,lexical_decision_task_DD_L6,2021.2.3,Win32,59.80861244,,,,,,,,,,,,1.3839,0,,,,,,,,,,,,,,z,0,1.3839,,,,,,,,0.142592607,-0.395370413,0,0,0,,0,116,116,133,1,POWDY,HB,old,n,./images/POWDYHB.png,,,,,,,,,,,,,,,,,,,,,,
,,,,,,,,,,,,,,,,,199384,18,2022-01-25_21h51.52.470,lexical_decision_task_DD_L6,2021.2.3,Win32,59.80861244,,,,,,,,,,,,2.3465,0,,,,,,,,,,,,,,m,0,2.3465,,,,,,,,0.142592607,-0.395370413,0,0,0,,0,117,117,112,1,MYING,HB,old,n,./images/MYINGHB.png,,,,,,,,,,,,,,,,,,,,,,
,,,,,,,,,,,,,,,,,199384,18,2022-01-25_21h51.52.470,lexical_decision_task_DD_L6,2021.2.3,Win32,59.80861244,,,,,,,,,,,,0.8079,0,,,,,,,,,,,,,,z,0,0.8079,,,,,,,,0.142592607,-0.395370413,0,0,0,,0,118,118,119,1,PAFER,LB,old,n,./images/PAFERLB.png,,,,,,,,,,,,,,,,,,,,,,
,,,,,,,,,,,,,,,,,199384,18,2022-01-25_21h51.52.470,lexical_decision_task_DD_L6,2021.2.3,Win32,59.80861244,,,,,,,,,,,,1.4506,0,,,,,,,,,,,,,,z,0,1.4506,,,,,,,,0.142592607,-0.395370413,0,0,0,,0,119,119,162,1,LEICH,C,old,n,./images/LEICH.png,,,,,,,,,,,,,,,,,,,,,,
,,,,,,,,,,,,,,,,,199384,18,2022-01-25_21h51.52.470,lexical_decision_task_DD_L6,2021.2.3,Win32,59.80861244,,,,,,,,,,,,0.8508,0,,,,,,,,,,,,,,m,0,0.8508,,,,,,,,0.142592607,-0.395370413,0,0,0,,0,120,120,160,1,VEETS,HB,old,n,./images/VEETSHB.png,,,,,,,,,,,,,,,,,,,,,,
,,,,,,,,,,,,,,,,,199384,18,2022-01-25_21h51.52.470,lexical_decision_task_DD_L6,2021.2.3,Win32,59.80861244,,,,,,,,,,,,0.6742,0,,,,,,,,,,,,,,m,0,0.6742,,,,,,,,0.142592607,-0.395370413,0,0,0,,0,121,121,39,1,CANDY,LB,old,y,./images/CANDYLB.png,,,,,,,,,,,,,,,,,,,,,,
,,,,,,,,,,,,,,,,,199384,18,2022-01-25_21h51.52.470,lexical_decision_task_DD_L6,2021.2.3,Win32,59.80861244,,,,,,,,,,,,0.9535,0,,,,,,,,,,,,,,z,0,0.9535,,,,,,,,0.142592607,-0.395370413,0,0,0,,0,122,122,124,1,TUNCH,HB,old,n,./images/TUNCHHB.png,,,,,,,,,,,,,,,,,,,,,,
,,,,,,,,,,,,,,,,,199384,18,2022-01-25_21h51.52.470,lexical_decision_task_DD_L6,2021.2.3,Win32,59.80861244,,,,,,,,,,,,0.9871,0,,,,,,,,,,,,,,m,0,0.9871,,,,,,,,0.142592607,-0.395370413,0,0,0,,0,123,123,80,1,PLANET,HB,old,y,./images/PLANETHB.png,,,,,,,,,,,,,,,,,,,,,,
,,,,,,,,,,,,,,,,,199384,18,2022-01-25_21h51.52.470,lexical_decision_task_DD_L6,2021.2.3,Win32,59.80861244,,,,,,,,,,,,0.8384,0,,,,,,,,,,,,,,m,0,0.8384,,,,,,,,0.142592607,-0.395370413,0,0,0,,0,124,124,77,1,WHEEL,HB,old,y,./images/WHEELHB.png,,,,,,,,,,,,,,,,,,,,,,
,,,,,,,,,,,,,,,,,199384,18,2022-01-25_21h51.52.470,lexical_decision_task_DD_L6,2021.2.3,Win32,59.80861244,,,,,,,,,,,,3.8671,0,,,,,,,,,,,,,,z,0,3.8671,,,,,,,,0.142592607,-0.395370413,0,0,0,space,0,125,125,157,1,INLER,HB,old,n,./images/INLERHB.png,9.0342,,,,,,,,,,,,,,,,,,,,,
,,,,,,,,,,,,,,,,,199384,18,2022-01-25_21h51.52.470,lexical_decision_task_DD_L6,2021.2.3,Win32,59.80861244,,,,,,,,,,,,0.7215,0,,,,,,,,,,,,,,m,0,0.7215,,,,,,,,0.142592607,-0.395370413,0,0,0,,0,126,126,73,1,GLOVE,C,old,y,./images/GLOVE.png,,,,,,,,,,,,,,,,,,,,,,
,,,,,,,,,,,,,,,,,199384,18,2022-01-25_21h51.52.470,lexical_decision_task_DD_L6,2021.2.3,Win32,59.80861244,,,,,,,,,,,,0.9258,0,,,,,,,,,,,,,,m,0,0.9258,,,,,,,,0.142592607,-0.395370413,0,0,0,,0,127,127,11,1,MEDAL,HB,old,y,./images/MEDALHB.png,,,,,,,,,,,,,,,,,,,,,,
,,,,,,,,,,,,,,,,,199384,18,2022-01-25_21h51.52.470,lexical_decision_task_DD_L6,2021.2.3,Win32,59.80861244,,,,,,,,,,,,0.7,0,,,,,,,,,,,,,,z,0,0.7,,,,,,,,0.142592607,-0.395370413,0,0,0,,0,128,128,43,1,STOOL,C,old,y,./images/STOOL.png,,,,,,,,,,,,,,,,,,,,,,
,,,,,,,,,,,,,,,,,199384,18,2022-01-25_21h51.52.470,lexical_decision_task_DD_L6,2021.2.3,Win32,59.80861244,,,,,,,,,,,,0.7205,0,,,,,,,,,,,,,,m,0,0.7205,,,,,,,,0.142592607,-0.395370413,0,0,0,,0,129,129,33,1,SAUNA,LB,old,y,./images/SAUNALB.png,,,,,,,,,,,,,,,,,,,,,,
,,,,,,,,,,,,,,,,,199384,18,2022-01-25_21h51.52.470,lexical_decision_task_DD_L6,2021.2.3,Win32,59.80861244,,,,,,,,,,,,0.4558,0,,,,,,,,,,,,,,m,0,0.4558,,,,,,,,0.142592607,-0.395370413,0,0,0,,0,130,130,4,1,BOXER,C,old,y,./images/BOXER.png,,,,,,,,,,,,,,,,,,,,,,
,,,,,,,,,,,,,,,,,199384,18,2022-01-25_21h51.52.470,lexical_decision_task_DD_L6,2021.2.3,Win32,59.80861244,,,,,,,,,,,,0.4886,0,,,,,,,,,,,,,,m,0,0.4886,,,,,,,,0.142592607,-0.395370413,0,0,0,,0,131,131,19,1,DONKEY,C,old,y,./images/DONKEY.png,,,,,,,,,,,,,,,,,,,,,,
,,,,,,,,,,,,,,,,,199384,18,2022-01-25_21h51.52.470,lexical_decision_task_DD_L6,2021.2.3,Win32,59.80861244,,,,,,,,,,,,0.6024,0,,,,,,,,,,,,,,m,0,0.6024,,,,,,,,0.142592607,-0.395370413,0,0,0,,0,132,132,68,1,VALLEY,HB,old,y,./images/VALLEYHB.png,,,,,,,,,,,,,,,,,,,,,,
,,,,,,,,,,,,,,,,,199384,18,2022-01-25_21h51.52.470,lexical_decision_task_DD_L6,2021.2.3,Win32,59.80861244,,,,,,,,,,,,0.5109,0,,,,,,,,,,,,,,m,0,0.5109,,,,,,,,0.142592607,-0.395370413,0,0,0,,0,133,133,140,1,DOVET,LB,old,n,./images/DOVETLB.png,,,,,,,,,,,,,,,,,,,,,,
,,,,,,,,,,,,,,,,,199384,18,2022-01-25_21h51.52.470,lexical_decision_task_DD_L6,2021.2.3,Win32,59.80861244,,,,,,,,,,,,0.5931,0,,,,,,,,,,,,,,m,0,0.5931,,,,,,,,0.142592607,-0.395370413,0,0,0,,0,134,134,149,1,VEASE,LB,old,n,./images/VEASELB.png,,,,,,,,,,,,,,,,,,,,,,
,,,,,,,,,,,,,,,,,199384,18,2022-01-25_21h51.52.470,lexical_decision_task_DD_L6,2021.2.3,Win32,59.80861244,,,,,,,,,,,,0.6426,0,,,,,,,,,,,,,,z,0,0.6426,,,,,,,,0.142592607,-0.395370413,0,0,0,,0,135,135,84,1,HAXES,C,old,n,./images/HAXES.png,,,,,,,,,,,,,,,,,,,,,,
,,,,,,,,,,,,,,,,,199384,18,2022-01-25_21h51.52.470,lexical_decision_task_DD_L6,2021.2.3,Win32,59.80861244,,,,,,,,,,,,0.767,0,,,,,,,,,,,,,,m,0,0.767,,,,,,,,0.142592607,-0.395370413,0,0,0,,0,136,136,71,1,BUBBLE,HB,old,y,./images/BUBBLEHB.png,,,,,,,,,,,,,,,,,,,,,,
,,,,,,,,,,,,,,,,,199384,18,2022-01-25_21h51.52.470,lexical_decision_task_DD_L6,2021.2.3,Win32,59.80861244,,,,,,,,,,,,0.5727,0,,,,,,,,,,,,,,m,0,0.5727,,,,,,,,0.142592607,-0.395370413,0,0,0,,0,137,137,34,1,RAZOR,C,old,y,./images/RAZOR.png,,,,,,,,,,,,,,,,,,,,,,
,,,,,,,,,,,,,,,,,199384,18,2022-01-25_21h51.52.470,lexical_decision_task_DD_L6,2021.2.3,Win32,59.80861244,,,,,,,,,,,,1.0167,0,,,,,,,,,,,,,,m,0,1.0167,,,,,,,,0.142592607,-0.395370413,0,0,0,,0,138,138,17,1,PARADE,HB,old,y,./images/PARADEHB.png,,,,,,,,,,,,,,,,,,,,,,
,,,,,,,,,,,,,,,,,199384,18,2022-01-25_21h51.52.470,lexical_decision_task_DD_L6,2021.2.3,Win32,59.80861244,,,,,,,,,,,,0.5703,0,,,,,,,,,,,,,,m,0,0.5703,,,,,,,,0.142592607,-0.395370413,0,0,0,,0,139,139,10,1,GARDEN,C,old,y,./images/GARDEN.png,,,,,,,,,,,,,,,,,,,,,,
,,,,,,,,,,,,,,,,,199384,18,2022-01-25_21h51.52.470,lexical_decision_task_DD_L6,2021.2.3,Win32,59.80861244,,,,,,,,,,,,0.5385,0,,,,,,,,,,,,,,m,0,0.5385,,,,,,,,0.142592607,-0.395370413,0,0,0,,0,140,140,76,1,MIDGET,C,old,y,./images/MIDGET.png,,,,,,,,,,,,,,,,,,,,,,
,,,,,,,,,,,,,,,,,199384,18,2022-01-25_21h51.52.470,lexical_decision_task_DD_L6,2021.2.3,Win32,59.80861244,,,,,,,,,,,,0.5452,0,,,,,,,,,,,,,,m,0,0.5452,,,,,,,,0.142592607,-0.395370413,0,0,0,,0,141,141,67,1,POKER,C,old,y,./images/POKER.png,,,,,,,,,,,,,,,,,,,,,,
,,,,,,,,,,,,,,,,,199384,18,2022-01-25_21h51.52.470,lexical_decision_task_DD_L6,2021.2.3,Win32,59.80861244,,,,,,,,,,,,0.7445,0,,,,,,,,,,,,,,m,0,0.7445,,,,,,,,0.142592607,-0.395370413,0,0,0,,0,142,142,106,1,CLUMS,HB,old,n,./images/CLUMSHB.png,,,,,,,,,,,,,,,,,,,,,,
,,,,,,,,,,,,,,,,,199384,18,2022-01-25_21h51.52.470,lexical_decision_task_DD_L6,2021.2.3,Win32,59.80861244,,,,,,,,,,,,0.8257,0,,,,,,,,,,,,,,m,0,0.8257,,,,,,,,0.142592607,-0.395370413,0,0,0,,0,143,143,104,1,GITTY,LB,old,n,./images/GITTYLB.png,,,,,,,,,,,,,,,,,,,,,,
,,,,,,,,,,,,,,,,,199384,18,2022-01-25_21h51.52.470,lexical_decision_task_DD_L6,2021.2.3,Win32,59.80861244,,,,,,,,,,,,0.7167,0,,,,,,,,,,,,,,m,0,0.7167,,,,,,,,0.142592607,-0.395370413,0,0,0,,0,144,144,155,1,CANGY,LB,old,n,./images/CANGYLB.png,,,,,,,,,,,,,,,,,,,,,,
,,,,,,,,,,,,,,,,,199384,18,2022-01-25_21h51.52.470,lexical_decision_task_DD_L6,2021.2.3,Win32,59.80861244,,,,,,,,,,,,1.4841,0,,,,,,,,,,,,,,m,0,1.4841,,,,,,,,0.142592607,-0.395370413,0,0,0,,0,145,145,154,1,THINT,HB,old,n,./images/THINTHB.png,,,,,,,,,,,,,,,,,,,,,,
,,,,,,,,,,,,,,,,,199384,18,2022-01-25_21h51.52.470,lexical_decision_task_DD_L6,2021.2.3,Win32,59.80861244,,,,,,,,,,,,0.6004,0,,,,,,,,,,,,,,m,0,0.6004,,,,,,,,0.142592607,-0.395370413,0,0,0,,0,146,146,128,1,GRIFT,LB,old,n,./images/GRIFTLB.png,,,,,,,,,,,,,,,,,,,,,,
,,,,,,,,,,,,,,,,,199384,18,2022-01-25_21h51.52.470,lexical_decision_task_DD_L6,2021.2.3,Win32,59.80861244,,,,,,,,,,,,0.7848,0,,,,,,,,,,,,,,m,0,0.7848,,,,,,,,0.142592607,-0.395370413,0,0,0,,0,147,147,27,1,BUTTER,LB,old,y,./images/BUTTERLB.png,,,,,,,,,,,,,,,,,,,,,,
,,,,,,,,,,,,,,,,,199384,18,2022-01-25_21h51.52.470,lexical_decision_task_DD_L6,2021.2.3,Win32,59.80861244,,,,,,,,,,,,1.4407,0,,,,,,,,,,,,,,m,0,1.4407,,,,,,,,0.142592607,-0.395370413,0,0,0,,0,148,148,120,1,RINED,C,old,n,./images/RINED.png,,,,,,,,,,,,,,,,,,,,,,
,,,,,,,,,,,,,,,,,199384,18,2022-01-25_21h51.52.470,lexical_decision_task_DD_L6,2021.2.3,Win32,59.80861244,,,,,,,,,,,,0.5596,0,,,,,,,,,,,,,,m,0,0.5596,,,,,,,,0.142592607,-0.395370413,0,0,0,,0,149,149,153,1,CLUPS,C,old,n,./images/CLUPS.png,,,,,,,,,,,,,,,,,,,,,,
,,,,,,,,,,,,,,,,,199384,18,2022-01-25_21h51.52.470,lexical_decision_task_DD_L6,2021.2.3,Win32,59.80861244,,,,,,,,,,,,0.7879,0,,,,,,,,,,,,,,z,0,0.7879,,,,,,,,0.142592607,-0.395370413,0,0,0,,0,150,150,64,1,BRIDE,C,old,y,./images/BRIDE.png,,,,,,,,,,,,,,,,,,,,,,
,,,,,,,,,,,,,,,,,199384,18,2022-01-25_21h51.52.470,lexical_decision_task_DD_L6,2021.2.3,Win32,59.80861244,,,,,,,,,,,,1.0711,0,,,,,,,,,,,,,,z,0,1.0711,,,,,,,,0.142592607,-0.395370413,0,0,0,,0,151,151,132,1,SCIFF,C,old,n,./images/SCIFF.png,,,,,,,,,,,,,,,,,,,,,,
,,,,,,,,,,,,,,,,,199384,18,2022-01-25_21h51.52.470,lexical_decision_task_DD_L6,2021.2.3,Win32,59.80861244,,,,,,,,,,,,1.0054,0,,,,,,,,,,,,,,m,0,1.0054,,,,,,,,0.142592607,-0.395370413,0,0,0,,0,152,152,3,1,CRATER,LB,old,y,./images/CRATERLB.png,,,,,,,,,,,,,,,,,,,,,,
,,,,,,,,,,,,,,,,,199384,18,2022-01-25_21h51.52.470,lexical_decision_task_DD_L6,2021.2.3,Win32,59.80861244,,,,,,,,,,,,0.6793,0,,,,,,,,,,,,,,z,0,0.6793,,,,,,,,0.142592607,-0.395370413,0,0,0,,0,153,153,138,1,PLICE,C,old,n,./images/PLICE.png,,,,,,,,,,,,,,,,,,,,,,
,,,,,,,,,,,,,,,,,199384,18,2022-01-25_21h51.52.470,lexical_decision_task_DD_L6,2021.2.3,Win32,59.80861244,,,,,,,,,,,,1.1274,0,,,,,,,,,,,,,,m,0,1.1274,,,,,,,,0.142592607,-0.395370413,0,0,0,,0,154,154,44,1,BASKET,HB,old,y,./images/BASKETHB.png,,,,,,,,,,,,,,,,,,,,,,
,,,,,,,,,,,,,,,,,199384,18,2022-01-25_21h51.52.470,lexical_decision_task_DD_L6,2021.2.3,Win32,59.80861244,,,,,,,,,,,,0.9505,0,,,,,,,,,,,,,,m,0,0.9505,,,,,,,,0.142592607,-0.395370413,0,0,0,,0,155,155,41,1,STREAM,HB,old,y,./images/STREAMHB.png,,,,,,,,,,,,,,,,,,,,,,
,,,,,,,,,,,,,,,,,199384,18,2022-01-25_21h51.52.470,lexical_decision_task_DD_L6,2021.2.3,Win32,59.80861244,,,,,,,,,,,,0.6188,0,,,,,,,,,,,,,,m,0,0.6188,,,,,,,,0.142592607,-0.395370413,0,0,0,,0,156,156,49,1,BISHOP,C,old,y,./images/BISHOP.png,,,,,,,,,,,,,,,,,,,,,,
,,,,,,,,,,,,,,,,,199384,18,2022-01-25_21h51.52.470,lexical_decision_task_DD_L6,2021.2.3,Win32,59.80861244,,,,,,,,,,,,0.8685,0,,,,,,,,,,,,,,z,0,0.8685,,,,,,,,0.142592607,-0.395370413,0,0,0,,0,157,157,93,1,SMONE,C,old,n,./images/SMONE.png,,,,,,,,,,,,,,,,,,,,,,
,,,,,,,,,,,,,,,,,199384,18,2022-01-25_21h51.52.470,lexical_decision_task_DD_L6,2021.2.3,Win32,59.80861244,,,,,,,,,,,,1.2223,0,,,,,,,,,,,,,,m,0,1.2223,,,,,,,,0.142592607,-0.395370413,0,0,0,,0,158,158,20,1,GRANNY,HB,old,y,./images/GRANNYHB.png,,,,,,,,,,,,,,,,,,,,,,
,,,,,,,,,,,,,,,,,199384,18,2022-01-25_21h51.52.470,lexical_decision_task_DD_L6,2021.2.3,Win32,59.80861244,,,,,,,,,,,,0.8838,0,,,,,,,,,,,,,,z,0,0.8838,,,,,,,,0.142592607,-0.395370413,0,0,0,,0,159,159,87,1,TRING,C,old,n,./images/TRING.png,,,,,,,,,,,,,,,,,,,,,,
,,,,,,,,,,,,,,,,,199384,18,2022-01-25_21h51.52.470,lexical_decision_task_DD_L6,2021.2.3,Win32,59.80861244,,,,,,,,,,,,0.7198,0,,,,,,,,,,,,,,z,0,0.7198,,,,,,,,0.142592607,-0.395370413,0,0,0,,0,160,160,129,1,PRANS,C,old,n,./images/PRANS.png,,,,,,,,,,,,,,,,,,,,,,
,,,,,,,,,,,,,,,,,199384,18,2022-01-25_21h51.52.470,lexical_decision_task_DD_L6,2021.2.3,Win32,59.80861244,,,,,,,,,,,,1.5255,0,,,,,,,,,,,,,,z,0,1.5255,,,,,,,,0.142592607,-0.395370413,0,0,0,,0,161,161,118,1,BAVEL,HB,old,n,./images/BAVELHB.png,,,,,,,,,,,,,,,,,,,,,,
,,,,,,,,,,,,,,,,,199384,18,2022-01-25_21h51.52.470,lexical_decision_task_DD_L6,2021.2.3,Win32,59.80861244,,,,,,,,,,,,0.817,0,,,,,,,,,,,,,,z,0,0.817,,,,,,,,0.142592607,-0.395370413,0,0,0,,0,162,162,114,1,RIKES,C,old,n,./images/RIKES.png,,,,,,,,,,,,,,,,,,,,,,
,,,,,,,,,,,,,,,,,199384,18,2022-01-25_21h51.52.470,lexical_decision_task_DD_L6,2021.2.3,Win32,59.80861244,,,,,,,,,,,,0.6339,0,,,,,,,,,,,,,,m,0,0.6339,,,,,,,,0.142592607,-0.395370413,0,0,0,,0,163,163,23,1,CLOTH,HB,old,y,./images/CLOTHHB.png,,,,,,,,,,,,,,,,,,,,,,
,,,,,,,,,,,,,,,,,199384,18,2022-01-25_21h51.52.470,lexical_decision_task_DD_L6,2021.2.3,Win32,59.80861244,,,,,,,,,,,,0.6883,0,,,,,,,,,,,,,,m,0,0.6883,,,,,,,,0.142592607,-0.395370413,0,0,0,,0,164,164,2,1,STOVE,HB,old,y,./images/STOVEHB.png,,,,,,,,,,,,,,,,,,,,,,
,,,,,,,,,,,,,,,,,199384,18,2022-01-25_21h51.52.470,lexical_decision_task_DD_L6,2021.2.3,Win32,59.80861244,,,,,,,,,,,,1.2359,0,,,,,,,,,,,,,,m,0,1.2359,,,,,,,,0.142592607,-0.395370413,0,0,0,,0,165,165,35,1,LLAMA,HB,old,y,./images/LLAMAHB.png,,,,,,,,,,,,,,,,,,,,,,
,,,,,,,,,,,,,,,,,199384,18,2022-01-25_21h51.52.470,lexical_decision_task_DD_L6,2021.2.3,Win32,59.80861244,,,,,,,,,,,,0.8331,0,,,,,,,,,,,,,,m,0,0.8331,,,,,,,,0.142592607,-0.395370413,0,0,0,,0,166,166,7,1,WAGON,C,old,y,./images/WAGON.png,,,,,,,,,,,,,,,,,,,,,,
,,,,,,,,,,,,,,,,,199384,18,2022-01-25_21h51.52.470,lexical_decision_task_DD_L6,2021.2.3,Win32,59.80861244,,,,,,,,,,,,0.9999,0,,,,,,,,,,,,,,z,0,0.9999,,,,,,,,0.142592607,-0.395370413,0,0,0,,0,167,167,111,1,HOSSE,C,old,n,./images/HOSSE.png,,,,,,,,,,,,,,,,,,,,,,
space,0.142592607,-0.395370413,0,0,0,,,,,,,1,test,"In the next phase you will be presented with the words from the the first phase. Your job is to decide whether you remember seeing the word or not. If you remember seeing the word press ""old"" or type ""m"". If you do not remember seeing the word press ""new"" or type ""z"". Please press the space bar or click on continue to begin. ",,,199384,18,2022-01-25_21h51.52.470,lexical_decision_task_DD_L6,2021.2.3,Win32,59.80861244,34.2122,,,,,,,,,,,,,,,,,,,,,,,,,,,,,,,,,,,,,,,,,,,,,,,,,,,,,0,0,0,0,1,,,,,,,,,,,,,,,,
space,0.142592607,-0.395370413,0,0,0,,,,,,,1,test,"In the next phase you will be presented with the words from the the first phase. Your job is to decide whether you remember seeing the word or not. If you remember seeing the word press ""old"" or type ""m"". If you do not remember seeing the word press ""new"" or type ""z"". Please press the space bar or click on continue to begin. ",,,199384,18,2022-01-25_21h51.52.470,lexical_decision_task_DD_L6,2021.2.3,Win32,59.80861244,21.9257,,,,,,,,,,,,,,,,,,,,,,,,,,,,,,,,,,,,,,,,,,,,,,,,,,,,,1,0,1,0,1,,,,,,,,,,,,,,,,
,0.139814801,-0.364814829,1,0,0,instr_done_button,,,,,,1,test,"In the next phase you will be presented with the words from the the first phase. Your job is to decide whether you remember seeing the word or not. If you remember seeing the word press ""old"" or type ""m"". If you do not remember seeing the word press ""new"" or type ""z"". Please press the space bar or click on continue to begin. ",,,199384,18,2022-01-25_21h51.52.470,lexical_decision_task_DD_L6,2021.2.3,Win32,59.80861244,,,,,,,,,,,,,,,,,,,,,,,,,,,,,,,,,,,,,,,,,,,,,,,,,,,,,,2,0,2,0,1,,,,,,,,,,,,,,,,
,0.131481524,-0.414814843,1,0,0,instr_done_button,,,,,,1,test,"In the next phase you will be presented with the words from the the first phase. Your job is to decide whether you remember seeing the word or not. If you remember seeing the word press ""old"" or type ""m"". If you do not remember seeing the word press ""new"" or type ""z"". Please press the space bar or click on continue to begin. ",,,199384,18,2022-01-25_21h51.52.470,lexical_decision_task_DD_L6,2021.2.3,Win32,59.80861244,,,,,,,,,,,,,,,,,,,,,,,,,,,,,,,,,,,,,,,,,,,,,,,,,,,,,,3,0,3,0,1,,,,,,,,,,,,,,,,
,-0.057407395,-0.375925939,1,0,0,instr_done_button,,,,,,1,test,"In the next phase you will be presented with the words from the the first phase. Your job is to decide whether you remember seeing the word or not. If you remember seeing the word press ""old"" or type ""m"". If you do not remember seeing the word press ""new"" or type ""z"". Please press the space bar or click on continue to begin. ",,,199384,18,2022-01-25_21h51.52.470,lexical_decision_task_DD_L6,2021.2.3,Win32,59.80861244,,,,,,,,,,,,,,,,,,,,,,,,,,,,,,,,,,,,,,,,,,,,,,,,,,,,,,4,0,4,0,1,,,,,,,,,,,,,,,,
,,,,,,,,,,,,,,,,,199384,18,2022-01-25_21h51.52.470,lexical_decision_task_DD_L6,2021.2.3,Win32,59.80861244,,,,,,,,,,,,1.991,0,,,,,,,,,,,,,,,,,,,,,,,,-0.057407395,-0.375925939,0,0,0,,,,,,,BASKET,HB,old,y,./images/BASKETHB.png,,,,,,,m,0,1.991,,,,,,,,0,0,0,44,1,
,,,,,,,,,,,,,,,,,199384,18,2022-01-25_21h51.52.470,lexical_decision_task_DD_L6,2021.2.3,Win32,59.80861244,,,,,,,,,,,,1.9091,0,,,,,,,,,,,,,,,,,,,,,,,,-0.057407395,-0.375925939,0,0,0,,,,,,,FLESH,LB,old,y,./images/FLESHLB.png,,,,,,,m,0,1.9091,,,,,,,,0,1,1,24,1,
,,,,,,,,,,,,,,,,,199384,18,2022-01-25_21h51.52.470,lexical_decision_task_DD_L6,2021.2.3,Win32,59.80861244,,,,,,,,,,,,0.692,0,,,,,,,,,,,,,,,,,,,,,,,,-0.057407395,-0.375925939,0,0,0,,,,,,,BAMBOO,HB,old,y,./images/BAMBOOHB.png,,,,,,,m,0,0.692,,,,,,,,0,2,2,5,1,
,,,,,,,,,,,,,,,,,199384,18,2022-01-25_21h51.52.470,lexical_decision_task_DD_L6,2021.2.3,Win32,59.80861244,,,,,,,,,,,,0.6125,0,,,,,,,,,,,,,,,,,,,,,,,,-0.057407395,-0.375925939,0,0,0,,,,,,,FENCE,HB,old,y,./images/FENCEHB.png,,,,,,,m,0,0.6125,,,,,,,,0,3,3,14,1,
,,,,,,,,,,,,,,,,,199384,18,2022-01-25_21h51.52.470,lexical_decision_task_DD_L6,2021.2.3,Win32,59.80861244,,,,,,,,,,,,0.7003,0,,,,,,,,,,,,,,,,,,,,,,,,-0.057407395,-0.375925939,0,0,0,,,,,,,POODLE,LB,new,y,./images/POODLELB.png,,,,,,,m,0,0.7003,,,,,,,,0,4,4,165,1,
,,,,,,,,,,,,,,,,,199384,18,2022-01-25_21h51.52.470,lexical_decision_task_DD_L6,2021.2.3,Win32,59.80861244,,,,,,,,,,,,0.7287,0,,,,,,,,,,,,,,,,,,,,,,,,-0.057407395,-0.375925939,0,0,0,,,,,,,MOSQUE,C,new,y,./images/MOSQUE.png,,,,,,,z,0,0.7287,,,,,,,,0,5,5,127,1,
,,,,,,,,,,,,,,,,,199384,18,2022-01-25_21h51.52.470,lexical_decision_task_DD_L6,2021.2.3,Win32,59.80861244,,,,,,,,,,,,0.5591,0,,,,,,,,,,,,,,,,,,,,,,,,-0.057407395,-0.375925939,0,0,0,,,,,,,STOVE,HB,old,y,./images/STOVEHB.png,,,,,,,m,0,0.5591,,,,,,,,0,6,6,2,1,
,,,,,,,,,,,,,,,,,199384,18,2022-01-25_21h51.52.470,lexical_decision_task_DD_L6,2021.2.3,Win32,59.80861244,,,,,,,,,,,,0.6969,0,,,,,,,,,,,,,,,,,,,,,,,,-0.057407395,-0.375925939,0,0,0,,,,,,,SAILOR,C,new,y,./images/SAILOR.png,,,,,,,m,0,0.6969,,,,,,,,0,7,7,151,1,
,,,,,,,,,,,,,,,,,199384,18,2022-01-25_21h51.52.470,lexical_decision_task_DD_L6,2021.2.3,Win32,59.80861244,,,,,,,,,,,,0.6336,0,,,,,,,,,,,,,,,,,,,,,,,,-0.057407395,-0.375925939,0,0,0,,,,,,,SAUCE,LB,old,y,./images/SAUCELB.png,,,,,,,m,0,0.6336,,,,,,,,0,8,8,51,1,
,,,,,,,,,,,,,,,,,199384,18,2022-01-25_21h51.52.470,lexical_decision_task_DD_L6,2021.2.3,Win32,59.80861244,,,,,,,,,,,,0.7045,0,,,,,,,,,,,,,,,,,,,,,,,,-0.057407395,-0.375925939,0,0,0,,,,,,,SPINE,HB,old,y,./images/SPINEHB.png,,,,,,,m,0,0.7045,,,,,,,,0,9,9,65,1,
,,,,,,,,,,,,,,,,,199384,18,2022-01-25_21h51.52.470,lexical_decision_task_DD_L6,2021.2.3,Win32,59.80861244,,,,,,,,,,,,0.7786,0,,,,,,,,,,,,,,,,,,,,,,,,-0.057407395,-0.375925939,0,0,0,,,,,,,PACKET,HB,new,y,./images/PACKETHB.png,,,,,,,z,0,0.7786,,,,,,,,0,10,10,140,1,
,,,,,,,,,,,,,,,,,199384,18,2022-01-25_21h51.52.470,lexical_decision_task_DD_L6,2021.2.3,Win32,59.80861244,,,,,,,,,,,,1.0874,0,,,,,,,,,,,,,,,,,,,,,,,,-0.057407395,-0.375925939,0,0,0,,,,,,,HEATER,HB,old,y,./images/HEATERHB.png,,,,,,,m,0,1.0874,,,,,,,,0,11,11,56,1,
,,,,,,,,,,,,,,,,,199384,18,2022-01-25_21h51.52.470,lexical_decision_task_DD_L6,2021.2.3,Win32,59.80861244,,,,,,,,,,,,0.5786,0,,,,,,,,,,,,,,,,,,,,,,,,-0.057407395,-0.375925939,0,0,0,,,,,,,MONKEY,LB,old,y,./images/MONKEYLB.png,,,,,,,m,0,0.5786,,,,,,,,0,12,12,45,1,
,,,,,,,,,,,,,,,,,199384,18,2022-01-25_21h51.52.470,lexical_decision_task_DD_L6,2021.2.3,Win32,59.80861244,,,,,,,,,,,,0.7415,0,,,,,,,,,,,,,,,,,,,,,,,,-0.057407395,-0.375925939,0,0,0,,,,,,,PASTA,HB,new,y,./images/PASTAHB.png,,,,,,,z,0,0.7415,,,,,,,,0,13,13,89,1,
,,,,,,,,,,,,,,,,,199384,18,2022-01-25_21h51.52.470,lexical_decision_task_DD_L6,2021.2.3,Win32,59.80861244,,,,,,,,,,,,0.7172,0,,,,,,,,,,,,,,,,,,,,,,,,-0.057407395,-0.375925939,0,0,0,,,,,,,STAIN,LB,old,y,./images/STAINLB.png,,,,,,,m,0,0.7172,,,,,,,,0,14,14,6,1,
,,,,,,,,,,,,,,,,,199384,18,2022-01-25_21h51.52.470,lexical_decision_task_DD_L6,2021.2.3,Win32,59.80861244,,,,,,,,,,,,0.6057,0,,,,,,,,,,,,,,,,,,,,,,,,-0.057407395,-0.375925939,0,0,0,,,,,,,TORCH,HB,new,y,./images/TORCHHB.png,,,,,,,m,0,0.6057,,,,,,,,0,15,15,152,1,
,,,,,,,,,,,,,,,,,199384,18,2022-01-25_21h51.52.470,lexical_decision_task_DD_L6,2021.2.3,Win32,59.80861244,,,,,,,,,,,,0.8419,0,,,,,,,,,,,,,,,,,,,,,,,,-0.057407395,-0.375925939,0,0,0,,,,,,,RULER,C,old,y,./images/RULER.png,,,,,,,m,0,0.8419,,,,,,,,0,16,16,79,1,
,,,,,,,,,,,,,,,,,199384,18,2022-01-25_21h51.52.470,lexical_decision_task_DD_L6,2021.2.3,Win32,59.80861244,,,,,,,,,,,,0.6793,0,,,,,,,,,,,,,,,,,,,,,,,,-0.057407395,-0.375925939,0,0,0,,,,,,,ATTIC,LB,new,y,./images/ATTICLB.png,,,,,,,m,0,0.6793,,,,,,,,0,17,17,111,1,
,,,,,,,,,,,,,,,,,199384,18,2022-01-25_21h51.52.470,lexical_decision_task_DD_L6,2021.2.3,Win32,59.80861244,,,,,,,,,,,,0.5465,0,,,,,,,,,,,,,,,,,,,,,,,,-0.057407395,-0.375925939,0,0,0,,,,,,,COUCH,HB,new,y,./images/COUCHHB.png,,,,,,,m,0,0.5465,,,,,,,,0,18,18,161,1,
,,,,,,,,,,,,,,,,,199384,18,2022-01-25_21h51.52.470,lexical_decision_task_DD_L6,2021.2.3,Win32,59.80861244,,,,,,,,,,,,0.6247,0,,,,,,,,,,,,,,,,,,,,,,,,-0.057407395,-0.375925939,0,0,0,,,,,,,MOTOR,C,new,y,./images/MOTOR.png,,,,,,,m,0,0.6247,,,,,,,,0,19,19,97,1,
,,,,,,,,,,,,,,,,,199384,18,2022-01-25_21h51.52.470,lexical_decision_task_DD_L6,2021.2.3,Win32,59.80861244,,,,,,,,,,,,0.6476,0,,,,,,,,,,,,,,,,,,,,,,,,-0.057407395,-0.375925939,0,0,0,,,,,,,LLAMA,HB,old,y,./images/LLAMAHB.png,,,,,,,m,0,0.6476,,,,,,,,0,20,20,35,1,
,,,,,,,,,,,,,,,,,199384,18,2022-01-25_21h51.52.470,lexical_decision_task_DD_L6,2021.2.3,Win32,59.80861244,,,,,,,,,,,,0.6481,0,,,,,,,,,,,,,,,,,,,,,,,,-0.057407395,-0.375925939,0,0,0,,,,,,,NOOSE,LB,new,y,./images/NOOSELB.png,,,,,,,m,0,0.6481,,,,,,,,0,21,21,156,1,
,,,,,,,,,,,,,,,,,199384,18,2022-01-25_21h51.52.470,lexical_decision_task_DD_L6,2021.2.3,Win32,59.80861244,,,,,,,,,,,,0.5825,0,,,,,,,,,,,,,,,,,,,,,,,,-0.057407395,-0.375925939,0,0,0,,,,,,,CASINO,C,old,y,./images/CASINO.png,,,,,,,m,0,0.5825,,,,,,,,0,22,22,28,1,
,,,,,,,,,,,,,,,,,199384,18,2022-01-25_21h51.52.470,lexical_decision_task_DD_L6,2021.2.3,Win32,59.80861244,,,,,,,,,,,,0.6239,0,,,,,,,,,,,,,,,,,,,,,,,,-0.057407395,-0.375925939,0,0,0,,,,,,,STATUE,LB,old,y,./images/STATUELB.png,,,,,,,m,0,0.6239,,,,,,,,0,23,23,66,1,
,,,,,,,,,,,,,,,,,199384,18,2022-01-25_21h51.52.470,lexical_decision_task_DD_L6,2021.2.3,Win32,59.80861244,,,,,,,,,,,,0.7155,0,,,,,,,,,,,,,,,,,,,,,,,,-0.057407395,-0.375925939,0,0,0,,,,,,,GRANNY,HB,old,y,./images/GRANNYHB.png,,,,,,,m,0,0.7155,,,,,,,,0,24,24,20,1,
,,,,,,,,,,,,,,,,,199384,18,2022-01-25_21h51.52.470,lexical_decision_task_DD_L6,2021.2.3,Win32,59.80861244,,,,,,,,,,,,0.7068,0,,,,,,,,,,,,,,,,,,,,,,,,-0.057407395,-0.375925939,0,0,0,,,,,,,CANDY,LB,old,y,./images/CANDYLB.png,,,,,,,z,0,0.7068,,,,,,,,0,25,25,39,1,
,,,,,,,,,,,,,,,,,199384,18,2022-01-25_21h51.52.470,lexical_decision_task_DD_L6,2021.2.3,Win32,59.80861244,,,,,,,,,,,,0.5978,0,,,,,,,,,,,,,,,,,,,,,,,,-0.057407395,-0.375925939,0,0,0,,,,,,,MAMMAL,HB,old,y,./images/MAMMALHB.png,,,,,,,m,0,0.5978,,,,,,,,0,26,26,62,1,
,,,,,,,,,,,,,,,,,199384,18,2022-01-25_21h51.52.470,lexical_decision_task_DD_L6,2021.2.3,Win32,59.80861244,,,,,,,,,,,,0.613,0,,,,,,,,,,,,,,,,,,,,,,,,-0.057407395,-0.375925939,0,0,0,,,,,,,HAMMER,LB,old,y,./images/HAMMERLB.png,,,,,,,m,0,0.613,,,,,,,,0,27,27,75,1,
,,,,,,,,,,,,,,,,,199384,18,2022-01-25_21h51.52.470,lexical_decision_task_DD_L6,2021.2.3,Win32,59.80861244,,,,,,,,,,,,0.5799,0,,,,,,,,,,,,,,,,,,,,,,,,-0.057407395,-0.375925939,0,0,0,,,,,,,STORM,LB,new,y,./images/STORMLB.png,,,,,,,m,0,0.5799,,,,,,,,0,28,28,114,1,
,,,,,,,,,,,,,,,,,199384,18,2022-01-25_21h51.52.470,lexical_decision_task_DD_L6,2021.2.3,Win32,59.80861244,,,,,,,,,,,,0.9658,0,,,,,,,,,,,,,,,,,,,,,,,,-0.057407395,-0.375925939,0,0,0,,,,,,,ARTIST,C,old,y,./images/ARTIST.png,,,,,,,m,0,0.9658,,,,,,,,0,29,29,61,1,
,,,,,,,,,,,,,,,,,199384,18,2022-01-25_21h51.52.470,lexical_decision_task_DD_L6,2021.2.3,Win32,59.80861244,,,,,,,,,,,,0.7919,0,,,,,,,,,,,,,,,,,,,,,,,,-0.057407395,-0.375925939,0,0,0,,,,,,,MALLET,HB,new,y,./images/MALLETHB.png,,,,,,,m,0,0.7919,,,,,,,,0,30,30,134,1,
,,,,,,,,,,,,,,,,,199384,18,2022-01-25_21h51.52.470,lexical_decision_task_DD_L6,2021.2.3,Win32,59.80861244,,,,,,,,,,,,0.674,0,,,,,,,,,,,,,,,,,,,,,,,,-0.057407395,-0.375925939,0,0,0,,,,,,,BUNNY,C,old,y,./images/BUNNY.png,,,,,,,m,0,0.674,,,,,,,,0,31,31,13,1,
,,,,,,,,,,,,,,,,,199384,18,2022-01-25_21h51.52.470,lexical_decision_task_DD_L6,2021.2.3,Win32,59.80861244,,,,,,,,,,,,0.7324,0,,,,,,,,,,,,,,,,,,,,,,,,-0.057407395,-0.375925939,0,0,0,,,,,,,JUNGLE,HB,new,y,./images/JUNGLEHB.png,,,,,,,z,0,0.7324,,,,,,,,0,32,32,167,1,
,,,,,,,,,,,,,,,,,199384,18,2022-01-25_21h51.52.470,lexical_decision_task_DD_L6,2021.2.3,Win32,59.80861244,,,,,,,,,,,,0.5799,0,,,,,,,,,,,,,,,,,,,,,,,,-0.057407395,-0.375925939,0,0,0,,,,,,,SNACK,C,new,y,./images/SNACK.png,,,,,,,m,0,0.5799,,,,,,,,0,33,33,157,1,
,,,,,,,,,,,,,,,,,199384,18,2022-01-25_21h51.52.470,lexical_decision_task_DD_L6,2021.2.3,Win32,59.80861244,,,,,,,,,,,,0.6852,0,,,,,,,,,,,,,,,,,,,,,,,,-0.057407395,-0.375925939,0,0,0,,,,,,,FOLDER,LB,new,y,./images/FOLDERLB.png,,,,,,,z,0,0.6852,,,,,,,,0,34,34,126,1,
,,,,,,,,,,,,,,,,,199384,18,2022-01-25_21h51.52.470,lexical_decision_task_DD_L6,2021.2.3,Win32,59.80861244,,,,,,,,,,,,1.1493,0,,,,,,,,,,,,,,,,,,,,,,,,-0.057407395,-0.375925939,0,0,0,,,,,,,STRING,HB,new,y,./images/STRINGHB.png,,,,,,,m,0,1.1493,,,,,,,,0,35,35,125,1,
,,,,,,,,,,,,,,,,,199384,18,2022-01-25_21h51.52.470,lexical_decision_task_DD_L6,2021.2.3,Win32,59.80861244,,,,,,,,,,,,0.7293,0,,,,,,,,,,,,,,,,,,,,,,,,-0.057407395,-0.375925939,0,0,0,,,,,,,WRIST,C,new,y,./images/WRIST.png,,,,,,,m,0,0.7293,,,,,,,,0,36,36,109,1,
,,,,,,,,,,,,,,,,,199384,18,2022-01-25_21h51.52.470,lexical_decision_task_DD_L6,2021.2.3,Win32,59.80861244,,,,,,,,,,,,0.6523,0,,,,,,,,,,,,,,,,,,,,,,,,-0.057407395,-0.375925939,0,0,0,,,,,,,BISHOP,C,old,y,./images/BISHOP.png,,,,,,,m,0,0.6523,,,,,,,,0,37,37,49,1,
,,,,,,,,,,,,,,,,,199384,18,2022-01-25_21h51.52.470,lexical_decision_task_DD_L6,2021.2.3,Win32,59.80861244,,,,,,,,,,,,0.6236,0,,,,,,,,,,,,,,,,,,,,,,,,-0.057407395,-0.375925939,0,0,0,,,,,,,LITTER,LB,new,y,./images/LITTERLB.png,,,,,,,m,0,0.6236,,,,,,,,0,38,38,162,1,
,,,,,,,,,,,,,,,,,199384,18,2022-01-25_21h51.52.470,lexical_decision_task_DD_L6,2021.2.3,Win32,59.80861244,,,,,,,,,,,,1.0734,0,,,,,,,,,,,,,,,,,,,,,,,,-0.057407395,-0.375925939,0,0,0,,,,,,,CANYON,C,new,y,./images/CANYON.png,,,,,,,z,0,1.0734,,,,,,,,0,39,39,118,1,
,,,,,,,,,,,,,,,,,199384,18,2022-01-25_21h51.52.470,lexical_decision_task_DD_L6,2021.2.3,Win32,59.80861244,,,,,,,,,,,,0.7298,0,,,,,,,,,,,,,,,,,,,,,,,,-0.057407395,-0.375925939,0,0,0,,,,,,,QUILL,C,new,y,./images/QUILL.png,,,,,,,z,0,0.7298,,,,,,,,0,40,40,115,1,
,,,,,,,,,,,,,,,,,199384,18,2022-01-25_21h51.52.470,lexical_decision_task_DD_L6,2021.2.3,Win32,59.80861244,,,,,,,,,,,,0.7154,0,,,,,,,,,,,,,,,,,,,,,,,,-0.057407395,-0.375925939,1,0,0,,,,,,,BONNET,HB,new,y,./images/BONNETHB.png,,,,,,,m,0,0.7154,,,,,,,,0,41,41,95,1,break_done_button
,,,,,,,,,,,,,,,,,199384,18,2022-01-25_21h51.52.470,lexical_decision_task_DD_L6,2021.2.3,Win32,59.80861244,,,,,,,,,,,,0.8271,0,,,,,,,,,,,,,,,,,,,,,,,,-0.057407395,-0.375925939,0,0,0,,,,,,,CURRY,LB,old,y,./images/CURRYLB.png,,,,,,,m,0,0.8271,,,,,,,,0,42,42,60,1,
,,,,,,,,,,,,,,,,,199384,18,2022-01-25_21h51.52.470,lexical_decision_task_DD_L6,2021.2.3,Win32,59.80861244,,,,,,,,,,,,2.2248,0,,,,,,,,,,,,,,,,,,,,,,,,-0.057407395,-0.375925939,0,0,0,,,,,,,SWING,C,new,y,./images/SWING.png,,,,,,,z,0,2.2248,,,,,,,,0,43,43,124,1,
,,,,,,,,,,,,,,,,,199384,18,2022-01-25_21h51.52.470,lexical_decision_task_DD_L6,2021.2.3,Win32,59.80861244,,,,,,,,,,,,0.9675,0,,,,,,,,,,,,,,,,,,,,,,,,-0.057407395,-0.375925939,0,0,0,,,,,,,COLLAR,LB,old,y,./images/COLLARLB.png,,,,,,,m,0,0.9675,,,,,,,,0,44,44,15,1,
,,,,,,,,,,,,,,,,,199384,18,2022-01-25_21h51.52.470,lexical_decision_task_DD_L6,2021.2.3,Win32,59.80861244,,,,,,,,,,,,1.253,0,,,,,,,,,,,,,,,,,,,,,,,,-0.057407395,-0.375925939,0,0,0,,,,,,,BRIDE,C,old,y,./images/BRIDE.png,,,,,,,m,0,1.253,,,,,,,,0,45,45,64,1,
,,,,,,,,,,,,,,,,,199384,18,2022-01-25_21h51.52.470,lexical_decision_task_DD_L6,2021.2.3,Win32,59.80861244,,,,,,,,,,,,0.6525,0,,,,,,,,,,,,,,,,,,,,,,,,-0.057407395,-0.375925939,0,0,0,,,,,,,SMOKER,HB,new,y,./images/SMOKERHB.png,,,,,,,m,0,0.6525,,,,,,,,0,46,46,110,1,
,,,,,,,,,,,,,,,,,199384,18,2022-01-25_21h51.52.470,lexical_decision_task_DD_L6,2021.2.3,Win32,59.80861244,,,,,,,,,,,,0.6213,0,,,,,,,,,,,,,,,,,,,,,,,,-0.057407395,-0.375925939,0,0,0,,,,,,,PAINT,C,new,y,./images/PAINT.png,,,,,,,m,0,0.6213,,,,,,,,0,47,47,91,1,
,,,,,,,,,,,,,,,,,199384,18,2022-01-25_21h51.52.470,lexical_decision_task_DD_L6,2021.2.3,Win32,59.80861244,,,,,,,,,,,,0.9758,0,,,,,,,,,,,,,,,,,,,,,,,,-0.057407395,-0.375925939,0,0,0,,,,,,,WEASEL,HB,new,y,./images/WEASELHB.png,,,,,,,z,0,0.9758,,,,,,,,0,48,48,164,1,
,,,,,,,,,,,,,,,,,199384,18,2022-01-25_21h51.52.470,lexical_decision_task_DD_L6,2021.2.3,Win32,59.80861244,,,,,,,,,,,,0.8586,0,,,,,,,,,,,,,,,,,,,,,,,,-0.057407395,-0.375925939,0,0,0,,,,,,,CHERRY,LB,old,y,./images/CHERRYLB.png,,,,,,,m,0,0.8586,,,,,,,,0,49,49,54,1,
,,,,,,,,,,,,,,,,,199384,18,2022-01-25_21h51.52.470,lexical_decision_task_DD_L6,2021.2.3,Win32,59.80861244,,,,,,,,,,,,2.3335,0,,,,,,,,,,,,,,,,,,,,,,,,-0.057407395,-0.375925939,0,0,0,,,,,,,WHEEL,HB,old,y,./images/WHEELHB.png,,,,,,,m,0,2.3335,,,,,,,,0,50,50,77,1,
,,,,,,,,,,,,,,,,,199384,18,2022-01-25_21h51.52.470,lexical_decision_task_DD_L6,2021.2.3,Win32,59.80861244,,,,,,,,,,,,0.6506,0,,,,,,,,,,,,,,,,,,,,,,,,-0.057407395,-0.375925939,0,0,0,,,,,,,PURSE,HB,new,y,./images/PURSEHB.png,,,,,,,m,0,0.6506,,,,,,,,0,51,51,146,1,
,,,,,,,,,,,,,,,,,199384,18,2022-01-25_21h51.52.470,lexical_decision_task_DD_L6,2021.2.3,Win32,59.80861244,,,,,,,,,,,,0.751,0,,,,,,,,,,,,,,,,,,,,,,,,-0.057407395,-0.375925939,0,0,0,,,,,,,TIGER,C,old,y,./images/TIGER.png,,,,,,,m,0,0.751,,,,,,,,0,52,52,37,1,
,,,,,,,,,,,,,,,,,199384,18,2022-01-25_21h51.52.470,lexical_decision_task_DD_L6,2021.2.3,Win32,59.80861244,,,,,,,,,,,,0.7336,0,,,,,,,,,,,,,,,,,,,,,,,,-0.057407395,-0.375925939,0,0,0,,,,,,,DESERT,C,old,y,./images/DESERT.png,,,,,,,m,0,0.7336,,,,,,,,0,53,53,52,1,
,,,,,,,,,,,,,,,,,199384,18,2022-01-25_21h51.52.470,lexical_decision_task_DD_L6,2021.2.3,Win32,59.80861244,,,,,,,,,,,,1.1959,0,,,,,,,,,,,,,,,,,,,,,,,,-0.057407395,-0.375925939,0,0,0,,,,,,,TWINS,LB,new,y,./images/TWINSLB.png,,,,,,,z,0,1.1959,,,,,,,,0,54,54,144,1,
,,,,,,,,,,,,,,,,,199384,18,2022-01-25_21h51.52.470,lexical_decision_task_DD_L6,2021.2.3,Win32,59.80861244,,,,,,,,,,,,0.5682,0,,,,,,,,,,,,,,,,,,,,,,,,-0.057407395,-0.375925939,0,0,0,,,,,,,BOILER,LB,old,y,./images/BOILERLB.png,,,,,,,m,0,0.5682,,,,,,,,0,55,55,36,1,
,,,,,,,,,,,,,,,,,199384,18,2022-01-25_21h51.52.470,lexical_decision_task_DD_L6,2021.2.3,Win32,59.80861244,,,,,,,,,,,,0.8508,0,,,,,,,,,,,,,,,,,,,,,,,,-0.057407395,-0.375925939,0,0,0,,,,,,,FALCON,C,new,y,./images/FALCON.png,,,,,,,z,0,0.8508,,,,,,,,0,56,56,112,1,
,,,,,,,,,,,,,,,,,199384,18,2022-01-25_21h51.52.470,lexical_decision_task_DD_L6,2021.2.3,Win32,59.80861244,,,,,,,,,,,,1.0008,0,,,,,,,,,,,,,,,,,,,,,,,,-0.057407395,-0.375925939,0,0,0,,,,,,,MUSCLE,C,new,y,./images/MUSCLE.png,,,,,,,z,0,1.0008,,,,,,,,0,57,57,88,1,
,,,,,,,,,,,,,,,,,199384,18,2022-01-25_21h51.52.470,lexical_decision_task_DD_L6,2021.2.3,Win32,59.80861244,,,,,,,,,,,,0.6201,0,,,,,,,,,,,,,,,,,,,,,,,,-0.057407395,-0.375925939,0,0,0,,,,,,,PICKLE,HB,new,y,./images/PICKLEHB.png,,,,,,,z,0,0.6201,,,,,,,,0,58,58,98,1,
,,,,,,,,,,,,,,,,,199384,18,2022-01-25_21h51.52.470,lexical_decision_task_DD_L6,2021.2.3,Win32,59.80861244,,,,,,,,,,,,1.0448,0,,,,,,,,,,,,,,,,,,,,,,,,-0.057407395,-0.375925939,0,0,0,,,,,,,MOOSE,LB,new,y,./images/MOOSELB.png,,,,,,,z,0,1.0448,,,,,,,,0,59,59,141,1,
,,,,,,,,,,,,,,,,,199384,18,2022-01-25_21h51.52.470,lexical_decision_task_DD_L6,2021.2.3,Win32,59.80861244,,,,,,,,,,,,0.996,0,,,,,,,,,,,,,,,,,,,,,,,,-0.057407395,-0.375925939,0,0,0,,,,,,,PIMPLE,HB,new,y,./images/PIMPLEHB.png,,,,,,,z,0,0.996,,,,,,,,0,60,60,155,1,
,,,,,,,,,,,,,,,,,199384,18,2022-01-25_21h51.52.470,lexical_decision_task_DD_L6,2021.2.3,Win32,59.80861244,,,,,,,,,,,,0.8072,0,,,,,,,,,,,,,,,,,,,,,,,,-0.057407395,-0.375925939,0,0,0,,,,,,,CRUST,C,new,y,./images/CRUST.png,,,,,,,m,0,0.8072,,,,,,,,0,61,61,163,1,
,,,,,,,,,,,,,,,,,199384,18,2022-01-25_21h51.52.470,lexical_decision_task_DD_L6,2021.2.3,Win32,59.80861244,,,,,,,,,,,,1.0739,0,,,,,,,,,,,,,,,,,,,,,,,,-0.057407395,-0.375925939,0,0,0,,,,,,,BERRY,HB,new,y,./images/BERRYHB.png,,,,,,,m,0,1.0739,,,,,,,,0,62,62,131,1,
,,,,,,,,,,,,,,,,,199384,18,2022-01-25_21h51.52.470,lexical_decision_task_DD_L6,2021.2.3,Win32,59.80861244,,,,,,,,,,,,1.4552,0,,,,,,,,,,,,,,,,,,,,,,,,-0.057407395,-0.375925939,0,0,0,,,,,,,PARADE,HB,old,y,./images/PARADEHB.png,,,,,,,m,0,1.4552,,,,,,,,0,63,63,17,1,
,,,,,,,,,,,,,,,,,199384,18,2022-01-25_21h51.52.470,lexical_decision_task_DD_L6,2021.2.3,Win32,59.80861244,,,,,,,,,,,,1.5535,0,,,,,,,,,,,,,,,,,,,,,,,,-0.057407395,-0.375925939,0,0,0,,,,,,,CRUMB,HB,new,y,./images/CRUMBHB.png,,,,,,,z,0,1.5535,,,,,,,,0,64,64,113,1,
,,,,,,,,,,,,,,,,,199384,18,2022-01-25_21h51.52.470,lexical_decision_task_DD_L6,2021.2.3,Win32,59.80861244,,,,,,,,,,,,2.5498,0,,,,,,,,,,,,,,,,,,,,,,,,-0.057407395,-0.375925939,0,0,0,,,,,,,GLOVE,C,old,y,./images/GLOVE.png,,,,,,,m,0,2.5498,,,,,,,,0,65,65,73,1,
,,,,,,,,,,,,,,,,,199384,18,2022-01-25_21h51.52.470,lexical_decision_task_DD_L6,2021.2.3,Win32,59.80861244,,,,,,,,,,,,0.7936,0,,,,,,,,,,,,,,,,,,,,,,,,-0.057407395,-0.375925939,0,0,0,,,,,,,GARDEN,C,old,y,./images/GARDEN.png,,,,,,,m,0,0.7936,,,,,,,,0,66,66,10,1,
,,,,,,,,,,,,,,,,,199384,18,2022-01-25_21h51.52.470,lexical_decision_task_DD_L6,2021.2.3,Win32,59.80861244,,,,,,,,,,,,0.735,0,,,,,,,,,,,,,,,,,,,,,,,,-0.057407395,-0.375925939,0,0,0,,,,,,,MUMMY,C,old,y,./images/MUMMY.png,,,,,,,m,0,0.735,,,,,,,,0,67,67,46,1,
,,,,,,,,,,,,,,,,,199384,18,2022-01-25_21h51.52.470,lexical_decision_task_DD_L6,2021.2.3,Win32,59.80861244,,,,,,,,,,,,0.6399,0,,,,,,,,,,,,,,,,,,,,,,,,-0.057407395,-0.375925939,0,0,0,,,,,,,CHALK,C,old,y,./images/CHALK.png,,,,,,,m,0,0.6399,,,,,,,,0,68,68,25,1,
,,,,,,,,,,,,,,,,,199384,18,2022-01-25_21h51.52.470,lexical_decision_task_DD_L6,2021.2.3,Win32,59.80861244,,,,,,,,,,,,0.7163,0,,,,,,,,,,,,,,,,,,,,,,,,-0.057407395,-0.375925939,0,0,0,,,,,,,MIDGET,C,old,y,./images/MIDGET.png,,,,,,,m,0,0.7163,,,,,,,,0,69,69,76,1,
,,,,,,,,,,,,,,,,,199384,18,2022-01-25_21h51.52.470,lexical_decision_task_DD_L6,2021.2.3,Win32,59.80861244,,,,,,,,,,,,0.7597,0,,,,,,,,,,,,,,,,,,,,,,,,-0.057407395,-0.375925939,0,0,0,,,,,,,STEAK,C,old,y,./images/STEAK.png,,,,,,,z,0,0.7597,,,,,,,,0,70,70,31,1,
,,,,,,,,,,,,,,,,,199384,18,2022-01-25_21h51.52.470,lexical_decision_task_DD_L6,2021.2.3,Win32,59.80861244,,,,,,,,,,,,0.5731,0,,,,,,,,,,,,,,,,,,,,,,,,-0.057407395,-0.375925939,0,0,0,,,,,,,DONKEY,C,old,y,./images/DONKEY.png,,,,,,,m,0,0.5731,,,,,,,,0,71,71,19,1,
,,,,,,,,,,,,,,,,,199384,18,2022-01-25_21h51.52.470,lexical_decision_task_DD_L6,2021.2.3,Win32,59.80861244,,,,,,,,,,,,0.7499,0,,,,,,,,,,,,,,,,,,,,,,,,-0.057407395,-0.375925939,0,0,0,,,,,,,WAGON,C,old,y,./images/WAGON.png,,,,,,,m,0,0.7499,,,,,,,,0,72,72,7,1,
,,,,,,,,,,,,,,,,,199384,18,2022-01-25_21h51.52.470,lexical_decision_task_DD_L6,2021.2.3,Win32,59.80861244,,,,,,,,,,,,0.5799,0,,,,,,,,,,,,,,,,,,,,,,,,-0.057407395,-0.375925939,0,0,0,,,,,,,TOWEL,C,old,y,./images/TOWEL.png,,,,,,,m,0,0.5799,,,,,,,,0,73,73,1,1,
,,,,,,,,,,,,,,,,,199384,18,2022-01-25_21h51.52.470,lexical_decision_task_DD_L6,2021.2.3,Win32,59.80861244,,,,,,,,,,,,0.7713,0,,,,,,,,,,,,,,,,,,,,,,,,-0.057407395,-0.375925939,0,0,0,,,,,,,JUMPER,HB,old,y,./images/JUMPERHB.png,,,,,,,z,0,0.7713,,,,,,,,0,74,74,74,1,
,,,,,,,,,,,,,,,,,199384,18,2022-01-25_21h51.52.470,lexical_decision_task_DD_L6,2021.2.3,Win32,59.80861244,,,,,,,,,,,,0.8862,0,,,,,,,,,,,,,,,,,,,,,,,,-0.057407395,-0.375925939,0,0,0,,,,,,,SNAKE,C,old,y,./images/SNAKE.png,,,,,,,m,0,0.8862,,,,,,,,0,75,75,40,1,
,,,,,,,,,,,,,,,,,199384,18,2022-01-25_21h51.52.470,lexical_decision_task_DD_L6,2021.2.3,Win32,59.80861244,,,,,,,,,,,,1.0014,0,,,,,,,,,,,,,,,,,,,,,,,,-0.057407395,-0.375925939,0,0,0,,,,,,,TOMATO,LB,new,y,./images/TOMATOLB.png,,,,,,,z,0,1.0014,,,,,,,,0,76,76,84,1,
,,,,,,,,,,,,,,,,,199384,18,2022-01-25_21h51.52.470,lexical_decision_task_DD_L6,2021.2.3,Win32,59.80861244,,,,,,,,,,,,0.7515,0,,,,,,,,,,,,,,,,,,,,,,,,-0.057407395,-0.375925939,0,0,0,,,,,,,GRAIN,LB,new,y,./images/GRAINLB.png,,,,,,,m,0,0.7515,,,,,,,,0,77,77,159,1,
,,,,,,,,,,,,,,,,,199384,18,2022-01-25_21h51.52.470,lexical_decision_task_DD_L6,2021.2.3,Win32,59.80861244,,,,,,,,,,,,0.6493,0,,,,,,,,,,,,,,,,,,,,,,,,-0.057407395,-0.375925939,0,0,0,,,,,,,BEARD,HB,new,y,./images/BEARDHB.png,,,,,,,m,0,0.6493,,,,,,,,0,78,78,86,1,
,,,,,,,,,,,,,,,,,199384,18,2022-01-25_21h51.52.470,lexical_decision_task_DD_L6,2021.2.3,Win32,59.80861244,,,,,,,,,,,,0.8343,0,,,,,,,,,,,,,,,,,,,,,,,,-0.057407395,-0.375925939,0,0,0,,,,,,,FERRY,LB,old,y,./images/FERRYLB.png,,,,,,,m,0,0.8343,,,,,,,,0,79,79,57,1,
,,,,,,,,,,,,,,,,,199384,18,2022-01-25_21h51.52.470,lexical_decision_task_DD_L6,2021.2.3,Win32,59.80861244,,,,,,,,,,,,0.6677,0,,,,,,,,,,,,,,,,,,,,,,,,-0.057407395,-0.375925939,0,0,0,,,,,,,INFANT,C,new,y,./images/INFANT.png,,,,,,,m,0,0.6677,,,,,,,,0,80,80,160,1,
,,,,,,,,,,,,,,,,,199384,18,2022-01-25_21h51.52.470,lexical_decision_task_DD_L6,2021.2.3,Win32,59.80861244,,,,,,,,,,,,0.501,0,,,,,,,,,,,,,,,,,,,,,,,,-0.057407395,-0.375925939,0,0,0,,,,,,,LADDER,HB,new,y,./images/LADDERHB.png,,,,,,,m,0,0.501,,,,,,,,0,81,81,122,1,
,,,,,,,,,,,,,,,,,199384,18,2022-01-25_21h51.52.470,lexical_decision_task_DD_L6,2021.2.3,Win32,59.80861244,,,,,,,,,,,,0.4675,0,,,,,,,,,,,,,,,,,,,,,,,,-0.057407395,-0.375925939,0,0,0,,,,,,,STREAM,HB,old,y,./images/STREAMHB.png,,,,,,,z,0,0.4675,,,,,,,,0,82,82,41,1,
,,,,,,,,,,,,,,,,,199384,18,2022-01-25_21h51.52.470,lexical_decision_task_DD_L6,2021.2.3,Win32,59.80861244,,,,,,,,,,,,0.3343,0,,,,,,,,,,,,,,,,,,,,,,,,-0.057407395,-0.375925939,0,0,0,space,,,,,,LIZARD,HB,new,y,./images/LIZARDHB.png,18.3001,,,,,,m,0,0.3343,,,,,,,,0,83,83,128,1,
,,,,,,,,,,,,,,,,,199384,18,2022-01-25_21h51.52.470,lexical_decision_task_DD_L6,2021.2.3,Win32,59.80861244,,,,,,,,,,,,0.8428,0,,,,,,,,,,,,,,,,,,,,,,,,-0.057407395,-0.375925939,0,0,0,,,,,,,CRATER,LB,old,y,./images/CRATERLB.png,,,,,,,m,0,0.8428,,,,,,,,0,84,84,3,1,
,,,,,,,,,,,,,,,,,199384,18,2022-01-25_21h51.52.470,lexical_decision_task_DD_L6,2021.2.3,Win32,59.80861244,,,,,,,,,,,,0.6675,0,,,,,,,,,,,,,,,,,,,,,,,,-0.057407395,-0.375925939,0,0,0,,,,,,,CANDLE,C,new,y,./images/CANDLE.png,,,,,,,m,0,0.6675,,,,,,,,0,85,85,145,1,
,,,,,,,,,,,,,,,,,199384,18,2022-01-25_21h51.52.470,lexical_decision_task_DD_L6,2021.2.3,Win32,59.80861244,,,,,,,,,,,,0.808,0,,,,,,,,,,,,,,,,,,,,,,,,-0.057407395,-0.375925939,0,0,0,,,,,,,RHINO,LB,new,y,./images/RHINOLB.png,,,,,,,m,0,0.808,,,,,,,,0,86,86,93,1,
,,,,,,,,,,,,,,,,,199384,18,2022-01-25_21h51.52.470,lexical_decision_task_DD_L6,2021.2.3,Win32,59.80861244,,,,,,,,,,,,1.4061,0,,,,,,,,,,,,,,,,,,,,,,,,-0.057407395,-0.375925939,0,0,0,,,,,,,CLIFF,HB,old,y,./images/CLIFFHB.png,,,,,,,m,0,1.4061,,,,,,,,0,87,87,8,1,
,,,,,,,,,,,,,,,,,199384,18,2022-01-25_21h51.52.470,lexical_decision_task_DD_L6,2021.2.3,Win32,59.80861244,,,,,,,,,,,,0.6114,0,,,,,,,,,,,,,,,,,,,,,,,,-0.057407395,-0.375925939,0,0,0,,,,,,,PEBBLE,C,old,y,./images/PEBBLE.png,,,,,,,m,0,0.6114,,,,,,,,0,88,88,82,1,
,,,,,,,,,,,,,,,,,199384,18,2022-01-25_21h51.52.470,lexical_decision_task_DD_L6,2021.2.3,Win32,59.80861244,,,,,,,,,,,,0.6838,0,,,,,,,,,,,,,,,,,,,,,,,,-0.057407395,-0.375925939,0,0,0,,,,,,,MEDAL,HB,old,y,./images/MEDALHB.png,,,,,,,m,0,0.6838,,,,,,,,0,89,89,11,1,
,,,,,,,,,,,,,,,,,199384,18,2022-01-25_21h51.52.470,lexical_decision_task_DD_L6,2021.2.3,Win32,59.80861244,,,,,,,,,,,,0.8344,0,,,,,,,,,,,,,,,,,,,,,,,,-0.057407395,-0.375925939,0,0,0,,,,,,,PILOT,HB,old,y,./images/PILOTHB.png,,,,,,,m,0,0.8344,,,,,,,,0,90,90,50,1,
,,,,,,,,,,,,,,,,,199384,18,2022-01-25_21h51.52.470,lexical_decision_task_DD_L6,2021.2.3,Win32,59.80861244,,,,,,,,,,,,1.0013,0,,,,,,,,,,,,,,,,,,,,,,,,-0.057407395,-0.375925939,0,0,0,,,,,,,BANANA,C,old,y,./images/BANANA.png,,,,,,,m,0,1.0013,,,,,,,,0,91,91,70,1,
,,,,,,,,,,,,,,,,,199384,18,2022-01-25_21h51.52.470,lexical_decision_task_DD_L6,2021.2.3,Win32,59.80861244,,,,,,,,,,,,0.6963,0,,,,,,,,,,,,,,,,,,,,,,,,-0.057407395,-0.375925939,0,0,0,,,,,,,BOXER,C,old,y,./images/BOXER.png,,,,,,,m,0,0.6963,,,,,,,,0,92,92,4,1,
,,,,,,,,,,,,,,,,,199384,18,2022-01-25_21h51.52.470,lexical_decision_task_DD_L6,2021.2.3,Win32,59.80861244,,,,,,,,,,,,0.952,0,,,,,,,,,,,,,,,,,,,,,,,,-0.057407395,-0.375925939,0,0,0,,,,,,,MAGGOT,LB,new,y,./images/MAGGOTLB.png,,,,,,,z,0,0.952,,,,,,,,0,93,93,117,1,
,,,,,,,,,,,,,,,,,199384,18,2022-01-25_21h51.52.470,lexical_decision_task_DD_L6,2021.2.3,Win32,59.80861244,,,,,,,,,,,,0.7053,0,,,,,,,,,,,,,,,,,,,,,,,,-0.057407395,-0.375925939,0,0,0,,,,,,,ONION,LB,new,y,./images/ONIONLB.png,,,,,,,m,0,0.7053,,,,,,,,0,94,94,135,1,
,,,,,,,,,,,,,,,,,199384,18,2022-01-25_21h51.52.470,lexical_decision_task_DD_L6,2021.2.3,Win32,59.80861244,,,,,,,,,,,,0.7383,0,,,,,,,,,,,,,,,,,,,,,,,,-0.057407395,-0.375925939,0,0,0,,,,,,,DOUGH,C,new,y,./images/DOUGH.png,,,,,,,z,0,0.7383,,,,,,,,0,95,95,103,1,
,,,,,,,,,,,,,,,,,199384,18,2022-01-25_21h51.52.470,lexical_decision_task_DD_L6,2021.2.3,Win32,59.80861244,,,,,,,,,,,,0.7741,0,,,,,,,,,,,,,,,,,,,,,,,,-0.057407395,-0.375925939,0,0,0,,,,,,,PISTOL,HB,old,y,./images/PISTOLHB.png,,,,,,,m,0,0.7741,,,,,,,,0,96,96,29,1,
,,,,,,,,,,,,,,,,,199384,18,2022-01-25_21h51.52.470,lexical_decision_task_DD_L6,2021.2.3,Win32,59.80861244,,,,,,,,,,,,0.8825,0,,,,,,,,,,,,,,,,,,,,,,,,-0.057407395,-0.375925939,0,0,0,,,,,,,URINE,C,new,y,./images/URINE.png,,,,,,,m,0,0.8825,,,,,,,,0,97,97,154,1,
,,,,,,,,,,,,,,,,,199384,18,2022-01-25_21h51.52.470,lexical_decision_task_DD_L6,2021.2.3,Win32,59.80861244,,,,,,,,,,,,0.6842,0,,,,,,,,,,,,,,,,,,,,,,,,-0.057407395,-0.375925939,0,0,0,,,,,,,FLASK,LB,old,y,./images/FLASKLB.png,,,,,,,m,0,0.6842,,,,,,,,0,98,98,72,1,
,,,,,,,,,,,,,,,,,199384,18,2022-01-25_21h51.52.470,lexical_decision_task_DD_L6,2021.2.3,Win32,59.80861244,,,,,,,,,,,,0.723,0,,,,,,,,,,,,,,,,,,,,,,,,-0.057407395,-0.375925939,0,0,0,,,,,,,DANCER,LB,old,y,./images/DANCERLB.png,,,,,,,m,0,0.723,,,,,,,,0,99,99,21,1,
,,,,,,,,,,,,,,,,,199384,18,2022-01-25_21h51.52.470,lexical_decision_task_DD_L6,2021.2.3,Win32,59.80861244,,,,,,,,,,,,0.7587,0,,,,,,,,,,,,,,,,,,,,,,,,-0.057407395,-0.375925939,0,0,0,,,,,,,ARROW,LB,old,y,./images/ARROWLB.png,,,,,,,m,0,0.7587,,,,,,,,0,100,100,69,1,
,,,,,,,,,,,,,,,,,199384,18,2022-01-25_21h51.52.470,lexical_decision_task_DD_L6,2021.2.3,Win32,59.80861244,,,,,,,,,,,,0.7665,0,,,,,,,,,,,,,,,,,,,,,,,,-0.057407395,-0.375925939,0,0,0,,,,,,,SLOPE,LB,old,y,./images/SLOPELB.png,,,,,,,m,0,0.7665,,,,,,,,0,101,101,30,1,
,,,,,,,,,,,,,,,,,199384,18,2022-01-25_21h51.52.470,lexical_decision_task_DD_L6,2021.2.3,Win32,59.80861244,,,,,,,,,,,,0.7577,0,,,,,,,,,,,,,,,,,,,,,,,,-0.057407395,-0.375925939,0,0,0,,,,,,,BURIAL,HB,new,y,./images/BURIALHB.png,,,,,,,z,0,0.7577,,,,,,,,0,102,102,143,1,
,,,,,,,,,,,,,,,,,199384,18,2022-01-25_21h51.52.470,lexical_decision_task_DD_L6,2021.2.3,Win32,59.80861244,,,,,,,,,,,,0.7061,0,,,,,,,,,,,,,,,,,,,,,,,,-0.057407395,-0.375925939,0,0,0,,,,,,,RAZOR,C,old,y,./images/RAZOR.png,,,,,,,m,0,0.7061,,,,,,,,0,103,103,34,1,
,,,,,,,,,,,,,,,,,199384,18,2022-01-25_21h51.52.470,lexical_decision_task_DD_L6,2021.2.3,Win32,59.80861244,,,,,,,,,,,,0.6401,0,,,,,,,,,,,,,,,,,,,,,,,,-0.057407395,-0.375925939,0,0,0,,,,,,,BRUSH,HB,old,y,./images/BRUSHHB.png,,,,,,,m,0,0.6401,,,,,,,,0,104,104,59,1,
,,,,,,,,,,,,,,,,,199384,18,2022-01-25_21h51.52.470,lexical_decision_task_DD_L6,2021.2.3,Win32,59.80861244,,,,,,,,,,,,0.8516,0,,,,,,,,,,,,,,,,,,,,,,,,-0.057407395,-0.375925939,0,0,0,,,,,,,PEARL,C,new,y,./images/PEARL.png,,,,,,,z,0,0.8516,,,,,,,,0,105,105,130,1,
,,,,,,,,,,,,,,,,,199384,18,2022-01-25_21h51.52.470,lexical_decision_task_DD_L6,2021.2.3,Win32,59.80861244,,,,,,,,,,,,0.8063,0,,,,,,,,,,,,,,,,,,,,,,,,-0.057407395,-0.375925939,0,0,0,,,,,,,BAKER,LB,old,y,./images/BAKERLB.png,,,,,,,m,0,0.8063,,,,,,,,0,106,106,63,1,
,,,,,,,,,,,,,,,,,199384,18,2022-01-25_21h51.52.470,lexical_decision_task_DD_L6,2021.2.3,Win32,59.80861244,,,,,,,,,,,,1.1171,0,,,,,,,,,,,,,,,,,,,,,,,,-0.057407395,-0.375925939,0,0,0,,,,,,,BARREL,HB,new,y,./images/BARRELHB.png,,,,,,,m,0,1.1171,,,,,,,,0,107,107,116,1,
,,,,,,,,,,,,,,,,,199384,18,2022-01-25_21h51.52.470,lexical_decision_task_DD_L6,2021.2.3,Win32,59.80861244,,,,,,,,,,,,0.7677,0,,,,,,,,,,,,,,,,,,,,,,,,-0.057407395,-0.375925939,0,0,0,,,,,,,PEACH,HB,new,y,./images/PEACHHB.png,,,,,,,m,0,0.7677,,,,,,,,0,108,108,119,1,
,,,,,,,,,,,,,,,,,199384,18,2022-01-25_21h51.52.470,lexical_decision_task_DD_L6,2021.2.3,Win32,59.80861244,,,,,,,,,,,,0.6463,0,,,,,,,,,,,,,,,,,,,,,,,,-0.057407395,-0.375925939,0,0,0,,,,,,,MIRROR,LB,new,y,./images/MIRRORLB.png,,,,,,,m,0,0.6463,,,,,,,,0,109,109,147,1,
,,,,,,,,,,,,,,,,,199384,18,2022-01-25_21h51.52.470,lexical_decision_task_DD_L6,2021.2.3,Win32,59.80861244,,,,,,,,,,,,0.5499,0,,,,,,,,,,,,,,,,,,,,,,,,-0.057407395,-0.375925939,0,0,0,,,,,,,PENCE,C,new,y,./images/PENCE.png,,,,,,,m,0,0.5499,,,,,,,,0,110,110,100,1,
,,,,,,,,,,,,,,,,,199384,18,2022-01-25_21h51.52.470,lexical_decision_task_DD_L6,2021.2.3,Win32,59.80861244,,,,,,,,,,,,0.8006,0,,,,,,,,,,,,,,,,,,,,,,,,-0.057407395,-0.375925939,0,0,0,,,,,,,MUFFIN,C,new,y,./images/MUFFIN.png,,,,,,,z,0,0.8006,,,,,,,,0,111,111,139,1,
,,,,,,,,,,,,,,,,,199384,18,2022-01-25_21h51.52.470,lexical_decision_task_DD_L6,2021.2.3,Win32,59.80861244,,,,,,,,,,,,0.6012,0,,,,,,,,,,,,,,,,,,,,,,,,-0.057407395,-0.375925939,0,0,0,,,,,,,BABOON,C,new,y,./images/BABOON.png,,,,,,,z,0,0.6012,,,,,,,,0,112,112,142,1,
,,,,,,,,,,,,,,,,,199384,18,2022-01-25_21h51.52.470,lexical_decision_task_DD_L6,2021.2.3,Win32,59.80861244,,,,,,,,,,,,1.4258,0,,,,,,,,,,,,,,,,,,,,,,,,-0.057407395,-0.375925939,0,0,0,,,,,,,SHORE,LB,new,y,./images/SHORELB.png,,,,,,,m,0,1.4258,,,,,,,,0,113,113,96,1,
,,,,,,,,,,,,,,,,,199384,18,2022-01-25_21h51.52.470,lexical_decision_task_DD_L6,2021.2.3,Win32,59.80861244,,,,,,,,,,,,1.7845,0,,,,,,,,,,,,,,,,,,,,,,,,-0.057407395,-0.375925939,0,0,0,,,,,,,MELON,C,new,y,./images/MELON.png,,,,,,,m,0,1.7845,,,,,,,,0,114,114,106,1,
,,,,,,,,,,,,,,,,,199384,18,2022-01-25_21h51.52.470,lexical_decision_task_DD_L6,2021.2.3,Win32,59.80861244,,,,,,,,,,,,0.445,0,,,,,,,,,,,,,,,,,,,,,,,,-0.057407395,-0.375925939,0,0,0,,,,,,,ENGINE,HB,old,y,./images/ENGINEHB.png,,,,,,,m,0,0.445,,,,,,,,0,115,115,38,1,
,,,,,,,,,,,,,,,,,199384,18,2022-01-25_21h51.52.470,lexical_decision_task_DD_L6,2021.2.3,Win32,59.80861244,,,,,,,,,,,,0.1006,0,,,,,,,,,,,,,,,,,,,,,,,,-0.057407395,-0.375925939,0,0,0,,,,,,,POSTER,HB,old,y,./images/POSTERHB.png,,,,,,,z,0,0.1006,,,,,,,,0,116,116,53,1,
,,,,,,,,,,,,,,,,,199384,18,2022-01-25_21h51.52.470,lexical_decision_task_DD_L6,2021.2.3,Win32,59.80861244,,,,,,,,,,,,0.9023,0,,,,,,,,,,,,,,,,,,,,,,,,-0.057407395,-0.375925939,0,0,0,,,,,,,BIRTH,C,new,y,./images/BIRTH.png,,,,,,,m,0,0.9023,,,,,,,,0,117,117,121,1,
,,,,,,,,,,,,,,,,,199384,18,2022-01-25_21h51.52.470,lexical_decision_task_DD_L6,2021.2.3,Win32,59.80861244,,,,,,,,,,,,0.7673,0,,,,,,,,,,,,,,,,,,,,,,,,-0.057407395,-0.375925939,0,0,0,,,,,,,CARPET,HB,new,y,./images/CARPETHB.png,,,,,,,m,0,0.7673,,,,,,,,0,118,118,137,1,
,,,,,,,,,,,,,,,,,199384,18,2022-01-25_21h51.52.470,lexical_decision_task_DD_L6,2021.2.3,Win32,59.80861244,,,,,,,,,,,,0.5997,0,,,,,,,,,,,,,,,,,,,,,,,,-0.057407395,-0.375925939,0,0,0,,,,,,,BUTTER,LB,old,y,./images/BUTTERLB.png,,,,,,,z,0,0.5997,,,,,,,,0,119,119,27,1,
,,,,,,,,,,,,,,,,,199384,18,2022-01-25_21h51.52.470,lexical_decision_task_DD_L6,2021.2.3,Win32,59.80861244,,,,,,,,,,,,0.2707,0,,,,,,,,,,,,,,,,,,,,,,,,-0.057407395,-0.375925939,0,0,0,,,,,,,PARCEL,LB,old,y,./images/PARCELLB.png,,,,,,,m,0,0.2707,,,,,,,,0,120,120,18,1,
,,,,,,,,,,,,,,,,,199384,18,2022-01-25_21h51.52.470,lexical_decision_task_DD_L6,2021.2.3,Win32,59.80861244,,,,,,,,,,,,1.0608,0,,,,,,,,,,,,,,,,,,,,,,,,-0.057407395,-0.375925939,0,0,0,,,,,,,GREASE,LB,new,y,./images/GREASELB.png,,,,,,,z,0,1.0608,,,,,,,,0,121,121,99,1,
,,,,,,,,,,,,,,,,,199384,18,2022-01-25_21h51.52.470,lexical_decision_task_DD_L6,2021.2.3,Win32,59.80861244,,,,,,,,,,,,0.6828,0,,,,,,,,,,,,,,,,,,,,,,,,-0.057407395,-0.375925939,0,0,0,,,,,,,PLANK,C,new,y,./images/PLANK.png,,,,,,,m,0,0.6828,,,,,,,,0,122,122,85,1,
,,,,,,,,,,,,,,,,,199384,18,2022-01-25_21h51.52.470,lexical_decision_task_DD_L6,2021.2.3,Win32,59.80861244,,,,,,,,,,,,0.6851,0,,,,,,,,,,,,,,,,,,,,,,,,-0.057407395,-0.375925939,0,0,0,,,,,,,VALLEY,HB,old,y,./images/VALLEYHB.png,,,,,,,m,0,0.6851,,,,,,,,0,123,123,68,1,
,,,,,,,,,,,,,,,,,199384,18,2022-01-25_21h51.52.470,lexical_decision_task_DD_L6,2021.2.3,Win32,59.80861244,,,,,,,,,,,,0.6676,0,,,,,,,,,,,,,,,,,,,,,,,,-0.057407395,-0.375925939,0,0,0,,,,,,,FARMER,HB,new,y,./images/FARMERHB.png,,,,,,,m,0,0.6676,,,,,,,,0,124,124,149,1,
,,,,,,,,,,,,,,,,,199384,18,2022-01-25_21h51.52.470,lexical_decision_task_DD_L6,2021.2.3,Win32,59.80861244,,,,,,,,,,,,0.9062,0,,,,,,,,,,,,,,,,,,,,,,,,-0.057407395,-0.375925939,0,0,0,space,,,,,,SHELF,LB,new,y,./images/SHELFLB.png,0.9752,,,,,,z,0,0.9062,,,,,,,,0,125,125,123,1,
,,,,,,,,,,,,,,,,,199384,18,2022-01-25_21h51.52.470,lexical_decision_task_DD_L6,2021.2.3,Win32,59.80861244,,,,,,,,,,,,0.9662,0,,,,,,,,,,,,,,,,,,,,,,,,-0.057407395,-0.375925939,0,0,0,,,,,,,BLOKE,LB,old,y,./images/BLOKELB.png,,,,,,,z,0,0.9662,,,,,,,,0,126,126,12,1,
,,,,,,,,,,,,,,,,,199384,18,2022-01-25_21h51.52.470,lexical_decision_task_DD_L6,2021.2.3,Win32,59.80861244,,,,,,,,,,,,0.6367,0,,,,,,,,,,,,,,,,,,,,,,,,-0.057407395,-0.375925939,0,0,0,,,,,,,WALNUT,LB,old,y,./images/WALNUTLB.png,,,,,,,m,0,0.6367,,,,,,,,0,127,127,0,1,
,,,,,,,,,,,,,,,,,199384,18,2022-01-25_21h51.52.470,lexical_decision_task_DD_L6,2021.2.3,Win32,59.80861244,,,,,,,,,,,,0.5513,0,,,,,,,,,,,,,,,,,,,,,,,,-0.057407395,-0.375925939,0,0,0,,,,,,,THROAT,LB,new,y,./images/THROATLB.png,,,,,,,z,0,0.5513,,,,,,,,0,128,128,120,1,
,,,,,,,,,,,,,,,,,199384,18,2022-01-25_21h51.52.470,lexical_decision_task_DD_L6,2021.2.3,Win32,59.80861244,,,,,,,,,,,,0.6835,0,,,,,,,,,,,,,,,,,,,,,,,,-0.057407395,-0.375925939,0,0,0,,,,,,,BELLY,C,new,y,./images/BELLY.png,,,,,,,z,0,0.6835,,,,,,,,0,129,129,94,1,
,,,,,,,,,,,,,,,,,199384,18,2022-01-25_21h51.52.470,lexical_decision_task_DD_L6,2021.2.3,Win32,59.80861244,,,,,,,,,,,,0.9678,0,,,,,,,,,,,,,,,,,,,,,,,,-0.057407395,-0.375925939,0,0,0,,,,,,,CANOE,C,old,y,./images/CANOE.png,,,,,,,m,0,0.9678,,,,,,,,0,130,130,58,1,
,,,,,,,,,,,,,,,,,199384,18,2022-01-25_21h51.52.470,lexical_decision_task_DD_L6,2021.2.3,Win32,59.80861244,,,,,,,,,,,,1.507,0,,,,,,,,,,,,,,,,,,,,,,,,-0.057407395,-0.375925939,0,0,0,,,,,,,STOOL,C,old,y,./images/STOOL.png,,,,,,,m,0,1.507,,,,,,,,0,131,131,43,1,
,,,,,,,,,,,,,,,,,199384,18,2022-01-25_21h51.52.470,lexical_decision_task_DD_L6,2021.2.3,Win32,59.80861244,,,,,,,,,,,,1.3593,0,,,,,,,,,,,,,,,,,,,,,,,,-0.057407395,-0.375925939,0,0,0,,,,,,,DRUMS,C,new,y,./images/DRUMS.png,,,,,,,z,0,1.3593,,,,,,,,0,132,132,133,1,
,,,,,,,,,,,,,,,,,199384,18,2022-01-25_21h51.52.470,lexical_decision_task_DD_L6,2021.2.3,Win32,59.80861244,,,,,,,,,,,,1.2198,0,,,,,,,,,,,,,,,,,,,,,,,,-0.057407395,-0.375925939,0,0,0,,,,,,,CLOWN,C,old,y,./images/CLOWN.png,,,,,,,m,0,1.2198,,,,,,,,0,133,133,22,1,
,,,,,,,,,,,,,,,,,199384,18,2022-01-25_21h51.52.470,lexical_decision_task_DD_L6,2021.2.3,Win32,59.80861244,,,,,,,,,,,,1.2493,0,,,,,,,,,,,,,,,,,,,,,,,,-0.057407395,-0.375925939,0,0,0,,,,,,,JAGUAR,LB,new,y,./images/JAGUARLB.png,,,,,,,z,0,1.2493,,,,,,,,0,134,134,102,1,
,,,,,,,,,,,,,,,,,199384,18,2022-01-25_21h51.52.470,lexical_decision_task_DD_L6,2021.2.3,Win32,59.80861244,,,,,,,,,,,,1.6344,0,,,,,,,,,,,,,,,,,,,,,,,,-0.057407395,-0.375925939,0,0,0,,,,,,,COOKER,LB,new,y,./images/COOKERLB.png,,,,,,,z,0,1.6344,,,,,,,,0,135,135,153,1,
,,,,,,,,,,,,,,,,,199384,18,2022-01-25_21h51.52.470,lexical_decision_task_DD_L6,2021.2.3,Win32,59.80861244,,,,,,,,,,,,1.0172,0,,,,,,,,,,,,,,,,,,,,,,,,-0.057407395,-0.375925939,0,0,0,,,,,,,BROOM,LB,old,y,./images/BROOMLB.png,,,,,,,m,0,1.0172,,,,,,,,0,136,136,78,1,
,,,,,,,,,,,,,,,,,199384,18,2022-01-25_21h51.52.470,lexical_decision_task_DD_L6,2021.2.3,Win32,59.80861244,,,,,,,,,,,,0.6705,0,,,,,,,,,,,,,,,,,,,,,,,,-0.057407395,-0.375925939,0,0,0,,,,,,,WHISKY,HB,old,y,./images/WHISKYHB.png,,,,,,,m,0,0.6705,,,,,,,,0,137,137,83,1,
,,,,,,,,,,,,,,,,,199384,18,2022-01-25_21h51.52.470,lexical_decision_task_DD_L6,2021.2.3,Win32,59.80861244,,,,,,,,,,,,1.1675,0,,,,,,,,,,,,,,,,,,,,,,,,-0.057407395,-0.375925939,0,0,0,,,,,,,SPORT,LB,new,y,./images/SPORTLB.png,,,,,,,m,0,1.1675,,,,,,,,0,138,138,132,1,
,,,,,,,,,,,,,,,,,199384,18,2022-01-25_21h51.52.470,lexical_decision_task_DD_L6,2021.2.3,Win32,59.80861244,,,,,,,,,,,,1.6345,0,,,,,,,,,,,,,,,,,,,,,,,,-0.057407395,-0.375925939,0,0,0,,,,,,,SUNSET,C,new,y,./images/SUNSET.png,,,,,,,z,0,1.6345,,,,,,,,0,139,139,166,1,
,,,,,,,,,,,,,,,,,199384,18,2022-01-25_21h51.52.470,lexical_decision_task_DD_L6,2021.2.3,Win32,59.80861244,,,,,,,,,,,,0.8207,0,,,,,,,,,,,,,,,,,,,,,,,,-0.057407395,-0.375925939,0,0,0,,,,,,,LAGOON,HB,old,y,./images/LAGOONHB.png,,,,,,,m,0,0.8207,,,,,,,,0,140,140,47,1,
,,,,,,,,,,,,,,,,,199384,18,2022-01-25_21h51.52.470,lexical_decision_task_DD_L6,2021.2.3,Win32,59.80861244,,,,,,,,,,,,0.7997,0,,,,,,,,,,,,,,,,,,,,,,,,-0.057407395,-0.375925939,0,0,0,,,,,,,SHIELD,LB,old,y,./images/SHIELDLB.png,,,,,,,m,0,0.7997,,,,,,,,0,141,141,48,1,
,,,,,,,,,,,,,,,,,199384,18,2022-01-25_21h51.52.470,lexical_decision_task_DD_L6,2021.2.3,Win32,59.80861244,,,,,,,,,,,,0.8604,0,,,,,,,,,,,,,,,,,,,,,,,,-0.057407395,-0.375925939,0,0,0,,,,,,,SAUNA,LB,old,y,./images/SAUNALB.png,,,,,,,m,0,0.8604,,,,,,,,0,142,142,33,1,
,,,,,,,,,,,,,,,,,199384,18,2022-01-25_21h51.52.470,lexical_decision_task_DD_L6,2021.2.3,Win32,59.80861244,,,,,,,,,,,,0.821,0,,,,,,,,,,,,,,,,,,,,,,,,-0.057407395,-0.375925939,0,0,0,,,,,,,KIDNEY,LB,new,y,./images/KIDNEYLB.png,,,,,,,z,0,0.821,,,,,,,,0,143,143,105,1,
,,,,,,,,,,,,,,,,,199384,18,2022-01-25_21h51.52.470,lexical_decision_task_DD_L6,2021.2.3,Win32,59.80861244,,,,,,,,,,,,0.8712,0,,,,,,,,,,,,,,,,,,,,,,,,-0.057407395,-0.375925939,0,0,0,,,,,,,CLOUD,HB,old,y,./images/CLOUDHB.png,,,,,,,m,0,0.8712,,,,,,,,0,144,144,26,1,
,,,,,,,,,,,,,,,,,199384,18,2022-01-25_21h51.52.470,lexical_decision_task_DD_L6,2021.2.3,Win32,59.80861244,,,,,,,,,,,,1.1999,0,,,,,,,,,,,,,,,,,,,,,,,,-0.057407395,-0.375925939,0,0,0,,,,,,,DIVER,LB,old,y,./images/DIVERLB.png,,,,,,,m,0,1.1999,,,,,,,,0,145,145,9,1,
,,,,,,,,,,,,,,,,,199384,18,2022-01-25_21h51.52.470,lexical_decision_task_DD_L6,2021.2.3,Win32,59.80861244,,,,,,,,,,,,1.0164,0,,,,,,,,,,,,,,,,,,,,,,,,-0.057407395,-0.375925939,0,0,0,,,,,,,SWEAT,LB,new,y,./images/SWEATLB.png,,,,,,,m,0,1.0164,,,,,,,,0,146,146,150,1,
,,,,,,,,,,,,,,,,,199384,18,2022-01-25_21h51.52.470,lexical_decision_task_DD_L6,2021.2.3,Win32,59.80861244,,,,,,,,,,,,0.9231,0,,,,,,,,,,,,,,,,,,,,,,,,-0.057407395,-0.375925939,0,0,0,,,,,,,POKER,C,old,y,./images/POKER.png,,,,,,,m,0,0.9231,,,,,,,,0,147,147,67,1,
,,,,,,,,,,,,,,,,,199384,18,2022-01-25_21h51.52.470,lexical_decision_task_DD_L6,2021.2.3,Win32,59.80861244,,,,,,,,,,,,0.7615,0,,,,,,,,,,,,,,,,,,,,,,,,-0.057407395,-0.375925939,0,0,0,,,,,,,HOCKEY,HB,old,y,./images/HOCKEYHB.png,,,,,,,m,0,0.7615,,,,,,,,0,148,148,32,1,
,,,,,,,,,,,,,,,,,199384,18,2022-01-25_21h51.52.470,lexical_decision_task_DD_L6,2021.2.3,Win32,59.80861244,,,,,,,,,,,,0.6015,0,,,,,,,,,,,,,,,,,,,,,,,,-0.057407395,-0.375925939,0,0,0,,,,,,,CLOTH,HB,old,y,./images/CLOTHHB.png,,,,,,,m,0,0.6015,,,,,,,,0,149,149,23,1,
,,,,,,,,,,,,,,,,,199384,18,2022-01-25_21h51.52.470,lexical_decision_task_DD_L6,2021.2.3,Win32,59.80861244,,,,,,,,,,,,0.5945,0,,,,,,,,,,,,,,,,,,,,,,,,-0.057407395,-0.375925939,0,0,0,,,,,,,PLANET,HB,old,y,./images/PLANETHB.png,,,,,,,m,0,0.5945,,,,,,,,0,150,150,80,1,
,,,,,,,,,,,,,,,,,199384,18,2022-01-25_21h51.52.470,lexical_decision_task_DD_L6,2021.2.3,Win32,59.80861244,,,,,,,,,,,,0.6521,0,,,,,,,,,,,,,,,,,,,,,,,,-0.057407395,-0.375925939,0,0,0,,,,,,,BUBBLE,HB,old,y,./images/BUBBLEHB.png,,,,,,,z,0,0.6521,,,,,,,,0,151,151,71,1,
,,,,,,,,,,,,,,,,,199384,18,2022-01-25_21h51.52.470,lexical_decision_task_DD_L6,2021.2.3,Win32,59.80861244,,,,,,,,,,,,0.7339,0,,,,,,,,,,,,,,,,,,,,,,,,-0.057407395,-0.375925939,0,0,0,,,,,,,TRIPOD,LB,new,y,./images/TRIPODLB.png,,,,,,,z,0,0.7339,,,,,,,,0,152,152,138,1,
,,,,,,,,,,,,,,,,,199384,18,2022-01-25_21h51.52.470,lexical_decision_task_DD_L6,2021.2.3,Win32,59.80861244,,,,,,,,,,,,0.7012,0,,,,,,,,,,,,,,,,,,,,,,,,-0.057407395,-0.375925939,0,0,0,,,,,,,SCREW,LB,new,y,./images/SCREWLB.png,,,,,,,m,0,0.7012,,,,,,,,0,153,153,108,1,
,,,,,,,,,,,,,,,,,199384,18,2022-01-25_21h51.52.470,lexical_decision_task_DD_L6,2021.2.3,Win32,59.80861244,,,,,,,,,,,,0.3679,0,,,,,,,,,,,,,,,,,,,,,,,,-0.057407395,-0.375925939,0,0,0,,,,,,,GRAPE,C,old,y,./images/GRAPE.png,,,,,,,m,0,0.3679,,,,,,,,0,154,154,16,1,
,,,,,,,,,,,,,,,,,199384,18,2022-01-25_21h51.52.470,lexical_decision_task_DD_L6,2021.2.3,Win32,59.80861244,,,,,,,,,,,,0.4248,0,,,,,,,,,,,,,,,,,,,,,,,,-0.057407395,-0.375925939,0,0,0,,,,,,,ALLEY,C,old,y,./images/ALLEY.png,,,,,,,m,0,0.4248,,,,,,,,0,155,155,55,1,
,,,,,,,,,,,,,,,,,199384,18,2022-01-25_21h51.52.470,lexical_decision_task_DD_L6,2021.2.3,Win32,59.80861244,,,,,,,,,,,,0.3607,0,,,,,,,,,,,,,,,,,,,,,,,,-0.057407395,-0.375925939,0,0,0,,,,,,,KITTEN,LB,new,y,./images/KITTENLB.png,,,,,,,m,0,0.3607,,,,,,,,0,156,156,129,1,
,,,,,,,,,,,,,,,,,199384,18,2022-01-25_21h51.52.470,lexical_decision_task_DD_L6,2021.2.3,Win32,59.80861244,,,,,,,,,,,,0.4077,0,,,,,,,,,,,,,,,,,,,,,,,,-0.057407395,-0.375925939,0,0,0,,,,,,,SQUARE,LB,new,y,./images/SQUARELB.png,,,,,,,z,0,0.4077,,,,,,,,0,157,157,90,1,
,,,,,,,,,,,,,,,,,199384,18,2022-01-25_21h51.52.470,lexical_decision_task_DD_L6,2021.2.3,Win32,59.80861244,,,,,,,,,,,,0.734,0,,,,,,,,,,,,,,,,,,,,,,,,-0.057407395,-0.375925939,0,0,0,,,,,,,CHAIN,LB,old,y,./images/CHAINLB.png,,,,,,,m,0,0.734,,,,,,,,0,158,158,42,1,
,,,,,,,,,,,,,,,,,199384,18,2022-01-25_21h51.52.470,lexical_decision_task_DD_L6,2021.2.3,Win32,59.80861244,,,,,,,,,,,,0.7342,0,,,,,,,,,,,,,,,,,,,,,,,,-0.057407395,-0.375925939,0,0,0,,,,,,,DRILL,LB,old,y,./images/DRILLLB.png,,,,,,,z,0,0.7342,,,,,,,,0,159,159,81,1,
,,,,,,,,,,,,,,,,,199384,18,2022-01-25_21h51.52.470,lexical_decision_task_DD_L6,2021.2.3,Win32,59.80861244,,,,,,,,,,,,0.701,0,,,,,,,,,,,,,,,,,,,,,,,,-0.057407395,-0.375925939,0,0,0,,,,,,,JELLY,C,new,y,./images/JELLY.png,,,,,,,m,0,0.701,,,,,,,,0,160,160,148,1,
,,,,,,,,,,,,,,,,,199384,18,2022-01-25_21h51.52.470,lexical_decision_task_DD_L6,2021.2.3,Win32,59.80861244,,,,,,,,,,,,0.7045,0,,,,,,,,,,,,,,,,,,,,,,,,-0.057407395,-0.375925939,0,0,0,,,,,,,FINGER,LB,new,y,./images/FINGERLB.png,,,,,,,m,0,0.7045,,,,,,,,0,161,161,87,1,
,,,,,,,,,,,,,,,,,199384,18,2022-01-25_21h51.52.470,lexical_decision_task_DD_L6,2021.2.3,Win32,59.80861244,,,,,,,,,,,,1.552,0,,,,,,,,,,,,,,,,,,,,,,,,-0.057407395,-0.375925939,0,0,0,,,,,,,SKIING,HB,new,y,./images/SKIINGHB.png,,,,,,,z,0,1.552,,,,,,,,0,162,162,101,1,
,,,,,,,,,,,,,,,,,199384,18,2022-01-25_21h51.52.470,lexical_decision_task_DD_L6,2021.2.3,Win32,59.80861244,,,,,,,,,,,,0.7382,0,,,,,,,,,,,,,,,,,,,,,,,,-0.057407395,-0.375925939,0,0,0,,,,,,,WALRUS,HB,new,y,./images/WALRUSHB.png,,,,,,,z,0,0.7382,,,,,,,,0,163,163,107,1,
,,,,,,,,,,,,,,,,,199384,18,2022-01-25_21h51.52.470,lexical_decision_task_DD_L6,2021.2.3,Win32,59.80861244,,,,,,,,,,,,1.0207,0,,,,,,,,,,,,,,,,,,,,,,,,-0.057407395,-0.375925939,0,0,0,,,,,,,TULIP,HB,new,y,./images/TULIPHB.png,,,,,,,z,0,1.0207,,,,,,,,0,164,164,92,1,
,,,,,,,,,,,,,,,,,199384,18,2022-01-25_21h51.52.470,lexical_decision_task_DD_L6,2021.2.3,Win32,59.80861244,,,,,,,,,,,,0.7343,0,,,,,,,,,,,,,,,,,,,,,,,,-0.057407395,-0.375925939,0,0,0,,,,,,,CRADLE,HB,new,y,./images/CRADLEHB.png,,,,,,,z,0,0.7343,,,,,,,,0,165,165,104,1,
,,,,,,,,,,,,,,,,,199384,18,2022-01-25_21h51.52.470,lexical_decision_task_DD_L6,2021.2.3,Win32,59.80861244,,,,,,,,,,,,0.8801,0,,,,,,,,,,,,,,,,,,,,,,,,-0.057407395,-0.375925939,0,0,0,,,,,,,BANNER,C,new,y,./images/BANNER.png,,,,,,,z,0,0.8801,,,,,,,,0,166,166,136,1,
,,,,,,,,,,,,,,,,,199384,18,2022-01-25_21h51.52.470,lexical_decision_task_DD_L6,2021.2.3,Win32,59.80861244,,,,,,,,,,,,1.0505,0,,,,,,,,,,,,,,,,,,,,,,,,-0.057407395,-0.375925939,0,0,0,,,,,,,CEMENT,HB,new,y,./images/CEMENTHB.png,,,,,,,z,0,1.0505,,,,,,,,0,167,167,158,1,
