key_resp.keys,key_resp.rt,instr_done_touch.x,instr_done_touch.y,instr_done_touch.leftButton,instr_done_touch.midButton,instr_done_touch.rightButton,instruction_pages.thisRepN,instruction_pages.thisTrialN,instruction_pages.thisN,instruction_pages.thisIndex,instruction_pages.ran,pageN,phase,instruct_text,has_image,instruct_image,participant,age,date,expName,psychopyVersion,OS,frameRate,response.keys,response.corr,touch_resp.x,touch_resp.y,touch_resp.leftButton,touch_resp.midButton,touch_resp.rightButton,touch_resp.time,touch_resp.clicked_name,rt,corr,practrials.thisRepN,practrials.thisTrialN,practrials.thisN,practrials.thisIndex,practrials.ran,TrialID,Target,corrAns,instr_done_touch.clicked_name,end_of_practice_trials_pages.thisRepN,end_of_practice_trials_pages.thisTrialN,end_of_practice_trials_pages.thisN,end_of_practice_trials_pages.thisIndex,end_of_practice_trials_pages.ran,key_resp_2.keys,key_resp_2.corr,targ_click.x,targ_click.y,targ_click.leftButton,targ_click.midButton,targ_click.rightButton,targ_click.time,targ_click.clicked_name,break_done_touch.x,break_done_touch.y,break_done_touch.leftButton,break_done_touch.midButton,break_done_touch.rightButton,break_done_keyboard.keys,maintrials.thisRepN,maintrials.thisTrialN,maintrials.thisN,maintrials.thisIndex,maintrials.ran,string,blur,study,lex,stim_path,break_done_keyboard.rt,test_instructions.thisRepN,test_instructions.thisTrialN,test_instructions.thisN,test_instructions.thisIndex,test_instructions.ran,key_resp_3.keys,key_resp_3.corr,test_click.x,test_click.y,test_click.leftButton,test_click.midButton,test_click.rightButton,test_click.time,test_click.clicked_name,test_phase.thisRepN,test_phase.thisTrialN,test_phase.thisN,test_phase.thisIndex,test_phase.ran,break_done_touch.clicked_name
space,43.079,0.218888889,-0.218888889,0,0,0,0,0,0,0,1,1,instructions,"INSTRUCTIONS
At the start of each trial, look at the plus sign  (+) in the center of the screen.  This tells you that a trial is about to begin and where to look. Second, the plus sign will disappear and a string of letters will appear. Your task is to determine if the string of letters is a word or not. If the item is a word press the M key (on keyboard)  or touch the word button (phone/tablet).  If the item is not a word,  press the  Z key (on keyboard)  or touch the nonword button (on phone/tablet). 
Press the space bar or touch  continue.",0,,199369,18,2022-01-29_21h37.34.497,lexical_decision_task_DD_L2,2021.2.3,MacIntel,58.82352941,,,,,,,,,,,,,,,,,,,,,,,,,,,,,,,,,,,,,,,,,,,,,,,,,,,,,,,,,,,,,,,,,,,,,,,
space,0.09,0.218888889,-0.218888889,0,0,0,0,1,1,1,1,2,instructions,"If your device has a keyboard, press the 'Z' key for nonwords and the 'M' key for words.





Press the space bar or touch the button below to continue.",0,keyboard-example.gif,199369,18,2022-01-29_21h37.34.497,lexical_decision_task_DD_L2,2021.2.3,MacIntel,58.82352941,,,,,,,,,,,,,,,,,,,,,,,,,,,,,,,,,,,,,,,,,,,,,,,,,,,,,,,,,,,,,,,,,,,,,,,
space,6.58,0.218888889,-0.218888889,0,0,0,0,2,2,2,1,3,instructions,"If you are using a touchscreen only device, use the buttons on the screen. Do not use the mouse.





Press the space bar or touch the button below to continue.",0,touchscreen-example.gif,199369,18,2022-01-29_21h37.34.497,lexical_decision_task_DD_L2,2021.2.3,MacIntel,58.82352941,,,,,,,,,,,,,,,,,,,,,,,,,,,,,,,,,,,,,,,,,,,,,,,,,,,,,,,,,,,,,,,,,,,,,,,
space,15.347,0.218888889,-0.218888889,0,0,0,0,3,3,3,1,4,instructions,"It is very important that you respond as quickly and accurately as possible, as each letter string will only be on the screen for two seconds. If you do not respond within this time, the message 'Too slow!' will be displayed and the experiment will progress to the next letter string. The first 20 trials will be practice trials and you will receive feedback on your answers. 

Press the space bar or touch the button below to start the practice trials.",0,,199369,18,2022-01-29_21h37.34.497,lexical_decision_task_DD_L2,2021.2.3,MacIntel,58.82352941,,,,,,,,,,,,,,,,,,,,,,,,,,,,,,,,,,,,,,,,,,,,,,,,,,,,,,,,,,,,,,,,,,,,,,,
,,,,,,,,,,,,,,,,,199369,18,2022-01-29_21h37.34.497,lexical_decision_task_DD_L2,2021.2.3,MacIntel,58.82352941,,0,-0.417777778,-0.316666667,1,0,0,2.529,button_left,2.529,0,0,0,0,5,1,1001,OBTAIN,m,,,,,,,,,,,,,,,,,,,,,,,,,,,,,,,,,,,,,,,,,,,,,,,,,,,,
,,,,,,,,,,,,,,,,,199369,18,2022-01-29_21h37.34.497,lexical_decision_task_DD_L2,2021.2.3,MacIntel,58.82352941,,0,0.271111111,-0.332222222,1,0,0,1.35,button_right,1.35,0,0,1,1,14,1,1001,THRALE,z,,,,,,,,,,,,,,,,,,,,,,,,,,,,,,,,,,,,,,,,,,,,,,,,,,,,
,,,,,,,,,,,,,,,,,199369,18,2022-01-29_21h37.34.497,lexical_decision_task_DD_L2,2021.2.3,MacIntel,58.82352941,,0,-0.36,-0.311111111,1,0,0,0.53,button_left,0.53,1,0,2,2,13,1,1001,ROUPET,z,,,,,,,,,,,,,,,,,,,,,,,,,,,,,,,,,,,,,,,,,,,,,,,,,,,,
,,,,,,,,,,,,,,,,,199369,18,2022-01-29_21h37.34.497,lexical_decision_task_DD_L2,2021.2.3,MacIntel,58.82352941,,0,-0.262222222,-0.282222222,1,0,0,1.564,button_left,1.564,0,0,3,3,2,1,1001,ALMOND,m,,,,,,,,,,,,,,,,,,,,,,,,,,,,,,,,,,,,,,,,,,,,,,,,,,,,
,,,,,,,,,,,,,,,,,199369,18,2022-01-29_21h37.34.497,lexical_decision_task_DD_L2,2021.2.3,MacIntel,58.82352941,,0,-0.285555556,-0.291111111,1,0,0,1.28,button_left,1.28,1,0,4,4,15,1,1001,WHAISE,z,,,,,,,,,,,,,,,,,,,,,,,,,,,,,,,,,,,,,,,,,,,,,,,,,,,,
,,,,,,,,,,,,,,,,,199369,18,2022-01-29_21h37.34.497,lexical_decision_task_DD_L2,2021.2.3,MacIntel,58.82352941,,0,0.315555556,-0.308888889,1,0,0,1.414,button_right,1.414,1,0,5,5,1,1,1001,ADJUST,m,,,,,,,,,,,,,,,,,,,,,,,,,,,,,,,,,,,,,,,,,,,,,,,,,,,,
,,,,,,,,,,,,,,,,,199369,18,2022-01-29_21h37.34.497,lexical_decision_task_DD_L2,2021.2.3,MacIntel,58.82352941,,0,-0.277777778,-0.298888889,1,0,0,1.164,button_left,1.164,1,0,6,6,9,1,1001,FARINY,z,,,,,,,,,,,,,,,,,,,,,,,,,,,,,,,,,,,,,,,,,,,,,,,,,,,,
,,,,,,,,,,,,,,,,,199369,18,2022-01-29_21h37.34.497,lexical_decision_task_DD_L2,2021.2.3,MacIntel,58.82352941,,0,-0.445555556,-0.247777778,1,0,0,1.713,button_left,1.713,1,0,7,7,11,1,1001,RASHET,z,,,,,,,,,,,,,,,,,,,,,,,,,,,,,,,,,,,,,,,,,,,,,,,,,,,,
,,,,,,,,,,,,,,,,,199369,18,2022-01-29_21h37.34.497,lexical_decision_task_DD_L2,2021.2.3,MacIntel,58.82352941,,0,-0.445555556,-0.247777778,1,0,0,1.181,button_left,1.181,1,0,8,8,10,1,1001,INLADE,z,,,,,,,,,,,,,,,,,,,,,,,,,,,,,,,,,,,,,,,,,,,,,,,,,,,,
,,,,,,,,,,,,,,,,,199369,18,2022-01-29_21h37.34.497,lexical_decision_task_DD_L2,2021.2.3,MacIntel,58.82352941,,0,-0.445555556,-0.247777778,1,0,0,1.314,button_left,1.314,1,0,9,9,8,1,1001,ASLERT,z,,,,,,,,,,,,,,,,,,,,,,,,,,,,,,,,,,,,,,,,,,,,,,,,,,,,
,,,,,,,,,,,,,,,,,199369,18,2022-01-29_21h37.34.497,lexical_decision_task_DD_L2,2021.2.3,MacIntel,58.82352941,,0,0.395555556,-0.2,1,0,0,1.297,button_right,1.297,1,0,10,10,7,1,1001,VOLUME,m,,,,,,,,,,,,,,,,,,,,,,,,,,,,,,,,,,,,,,,,,,,,,,,,,,,,
,,,,,,,,,,,,,,,,,199369,18,2022-01-29_21h37.34.497,lexical_decision_task_DD_L2,2021.2.3,MacIntel,58.82352941,,0,0.306666667,-0.351111111,1,0,0,1.164,button_right,1.164,1,0,11,11,6,1,1001,ZOMBIE,m,,,,,,,,,,,,,,,,,,,,,,,,,,,,,,,,,,,,,,,,,,,,,,,,,,,,
,,,,,,,,,,,,,,,,,199369,18,2022-01-29_21h37.34.497,lexical_decision_task_DD_L2,2021.2.3,MacIntel,58.82352941,,0,-0.308888889,-0.342222222,1,0,0,1.013,button_left,1.013,1,0,12,12,12,1,1001,SPRINY,z,,,,,,,,,,,,,,,,,,,,,,,,,,,,,,,,,,,,,,,,,,,,,,,,,,,,
,,,,,,,,,,,,,,,,,199369,18,2022-01-29_21h37.34.497,lexical_decision_task_DD_L2,2021.2.3,MacIntel,58.82352941,,0,0.387777778,-0.272222222,1,0,0,1.196,button_right,1.196,1,0,13,13,3,1,1001,MATRIX,m,,,,,,,,,,,,,,,,,,,,,,,,,,,,,,,,,,,,,,,,,,,,,,,,,,,,
,,,,,,,,,,,,,,,,,199369,18,2022-01-29_21h37.34.497,lexical_decision_task_DD_L2,2021.2.3,MacIntel,58.82352941,,0,0.306666667,-0.293333333,1,0,0,1.563,button_right,1.563,1,0,14,14,0,1,1001,UTOPIA,m,,,,,,,,,,,,,,,,,,,,,,,,,,,,,,,,,,,,,,,,,,,,,,,,,,,,
,,,,,,,,,,,,,,,,,199369,18,2022-01-29_21h37.34.497,lexical_decision_task_DD_L2,2021.2.3,MacIntel,58.82352941,,0,0.243333333,-0.296666667,1,0,0,0.93,button_right,0.93,1,0,15,15,4,1,1001,SQUEAK,m,,,,,,,,,,,,,,,,,,,,,,,,,,,,,,,,,,,,,,,,,,,,,,,,,,,,
,,-0.036666667,-0.374444444,1,0,0,,,,,,1,end_of_practice,"You have completed the practice trials. During the experimental trials, you will not receive feedback. 
Before you begin, please ensure that you are in a comfortable and quiet location and will not be disturbed for about 15 minutes, as we cannot use your data if you do not complete all the trials. 
 When you are ready to start the experimental trials, please press space or touch the button below.",,,199369,18,2022-01-29_21h37.34.497,lexical_decision_task_DD_L2,2021.2.3,MacIntel,58.82352941,,,,,,,,,,,,,,,,,,,,instr_done_button,0,0,0,0,1,,,,,,,,,,,,,,,,,,,,,,,,,,,,,,,,,,,,,,,,,,,,,,
,,,,,,,,,,,,,,,,,199369,18,2022-01-29_21h37.34.497,lexical_decision_task_DD_L2,2021.2.3,MacIntel,58.82352941,,,,,,,,,,2.791,0,,,,,,,,,,,,,,,,0,-0.246666667,-0.361111111,1,0,0,2.791,button_left_main,-0.246666667,-0.361111111,1,0,0,,0,0,0,28,1,FALCON,LB,old,m,./images/FALCONLB.png,,,,,,,,,,,,,,,,,,,,,
,,,,,,,,,,,,,,,,,199369,18,2022-01-29_21h37.34.497,lexical_decision_task_DD_L2,2021.2.3,MacIntel,58.82352941,,,,,,,,,,1.931,1,,,,,,,,,,,,,,,,0,-0.291111111,-0.343333333,1,0,0,1.931,button_left_main,-0.291111111,-0.343333333,1,0,0,,0,1,1,103,1,FLORT,HB,old,z,./images/FLORTHB.png,,,,,,,,,,,,,,,,,,,,,
,,,,,,,,,,,,,,,,,199369,18,2022-01-29_21h37.34.497,lexical_decision_task_DD_L2,2021.2.3,MacIntel,58.82352941,,,,,,,,,,1.764,0,,,,,,,,,,,,,,,,0,0.451111111,-0.387777778,1,0,0,1.764,button_right_main,0.451111111,-0.387777778,1,0,0,,0,2,2,115,1,MAWNS,HB,old,z,./images/MAWNSHB.png,,,,,,,,,,,,,,,,,,,,,
,,,,,,,,,,,,,,,,,199369,18,2022-01-29_21h37.34.497,lexical_decision_task_DD_L2,2021.2.3,MacIntel,58.82352941,,,,,,,,,,1.381,0,,,,,,,,,,,,,,,,0,0.356666667,-0.345555556,1,0,0,1.381,button_right_main,0.356666667,-0.345555556,1,0,0,,0,3,3,91,1,SHENS,HB,old,z,./images/SHENSHB.png,,,,,,,,,,,,,,,,,,,,,
,,,,,,,,,,,,,,,,,199369,18,2022-01-29_21h37.34.497,lexical_decision_task_DD_L2,2021.2.3,MacIntel,58.82352941,,,,,,,,,,0.781,1,,,,,,,,,,,,,,,,0,0.351111111,-0.345555556,1,0,0,0.781,button_right_main,0.351111111,-0.345555556,1,0,0,,0,4,4,13,1,MOTOR,LB,old,m,./images/MOTORLB.png,,,,,,,,,,,,,,,,,,,,,
,,,,,,,,,,,,,,,,,199369,18,2022-01-29_21h37.34.497,lexical_decision_task_DD_L2,2021.2.3,MacIntel,58.82352941,,,,,,,,,,1.297,0,,,,,,,,,,,,,,,,0,-0.425555556,-0.368888889,1,0,0,1.297,button_left_main,-0.425555556,-0.368888889,1,0,0,,0,5,5,16,1,PENCE,LB,old,m,./images/PENCELB.png,,,,,,,,,,,,,,,,,,,,,
,,,,,,,,,,,,,,,,,199369,18,2022-01-29_21h37.34.497,lexical_decision_task_DD_L2,2021.2.3,MacIntel,58.82352941,,,,,,,,,,0.915,1,,,,,,,,,,,,,,,,0,-0.436666667,-0.321111111,1,0,0,0.915,button_left_main,-0.436666667,-0.321111111,1,0,0,,0,6,6,132,1,SCIFF,C,old,z,./images/SCIFF.png,,,,,,,,,,,,,,,,,,,,,
,,,,,,,,,,,,,,,,,199369,18,2022-01-29_21h37.34.497,lexical_decision_task_DD_L2,2021.2.3,MacIntel,58.82352941,,,,,,,,,,1.098,1,,,,,,,,,,,,,,,,0,0.361111111,-0.348888889,1,0,0,1.098,button_right_main,0.361111111,-0.348888889,1,0,0,,0,7,7,22,1,MELON,LB,old,m,./images/MELONLB.png,,,,,,,,,,,,,,,,,,,,,
,,,,,,,,,,,,,,,,,199369,18,2022-01-29_21h37.34.497,lexical_decision_task_DD_L2,2021.2.3,MacIntel,58.82352941,,,,,,,,,,0.731,1,,,,,,,,,,,,,,,,0,0.354444444,-0.348888889,1,0,0,0.731,button_right_main,0.354444444,-0.348888889,1,0,0,,0,8,8,52,1,BANNER,LB,old,m,./images/BANNERLB.png,,,,,,,,,,,,,,,,,,,,,
,,,,,,,,,,,,,,,,,199369,18,2022-01-29_21h37.34.497,lexical_decision_task_DD_L2,2021.2.3,MacIntel,58.82352941,,,,,,,,,,0.965,1,,,,,,,,,,,,,,,,0,0.354444444,-0.348888889,1,0,0,0.965,button_right_main,0.354444444,-0.348888889,1,0,0,,0,9,9,66,1,SWEAT,HB,old,m,./images/SWEATHB.png,,,,,,,,,,,,,,,,,,,,,
,,,,,,,,,,,,,,,,,199369,18,2022-01-29_21h37.34.497,lexical_decision_task_DD_L2,2021.2.3,MacIntel,58.82352941,,,,,,,,,,2.165,1,,,,,,,,,,,,,,,,0,0.284444444,-0.291111111,1,0,0,2.165,button_right_main,0.284444444,-0.291111111,1,0,0,,0,10,10,33,1,MAGGOT,HB,old,m,./images/MAGGOTHB.png,,,,,,,,,,,,,,,,,,,,,
,,,,,,,,,,,,,,,,,199369,18,2022-01-29_21h37.34.497,lexical_decision_task_DD_L2,2021.2.3,MacIntel,58.82352941,,,,,,,,,,1.681,0,,,,,,,,,,,,,,,,0,0.257777778,-0.332222222,1,0,0,1.681,button_right_main,0.257777778,-0.332222222,1,0,0,,0,11,11,163,1,GAMBA,HB,old,z,./images/GAMBAHB.png,,,,,,,,,,,,,,,,,,,,,
,,,,,,,,,,,,,,,,,199369,18,2022-01-29_21h37.34.497,lexical_decision_task_DD_L2,2021.2.3,MacIntel,58.82352941,,,,,,,,,,1.416,0,,,,,,,,,,,,,,,,0,0.372222222,-0.326666667,1,0,0,1.416,button_right_main,0.372222222,-0.326666667,1,0,0,,0,12,12,109,1,BURGE,HB,old,z,./images/BURGEHB.png,,,,,,,,,,,,,,,,,,,,,
,,,,,,,,,,,,,,,,,199369,18,2022-01-29_21h37.34.497,lexical_decision_task_DD_L2,2021.2.3,MacIntel,58.82352941,,,,,,,,,,1.298,1,,,,,,,,,,,,,,,,0,-0.28,-0.313333333,1,0,0,1.298,button_left_main,-0.28,-0.313333333,1,0,0,,0,13,13,157,1,INLER,HB,old,z,./images/INLERHB.png,,,,,,,,,,,,,,,,,,,,,
,,,,,,,,,,,,,,,,,199369,18,2022-01-29_21h37.34.497,lexical_decision_task_DD_L2,2021.2.3,MacIntel,58.82352941,,,,,,,,,,1.715,1,,,,,,,,,,,,,,,,0,0.313333333,-0.284444444,1,0,0,1.715,button_right_main,0.313333333,-0.284444444,1,0,0,,0,14,14,2,1,BEARD,C,old,m,./images/BEARD.png,,,,,,,,,,,,,,,,,,,,,
,,,,,,,,,,,,,,,,,199369,18,2022-01-29_21h37.34.497,lexical_decision_task_DD_L2,2021.2.3,MacIntel,58.82352941,,,,,,,,,,1.531,1,,,,,,,,,,,,,,,,0,-0.428888889,-0.278888889,1,0,0,1.531,button_left_main,-0.428888889,-0.278888889,1,0,0,,0,15,15,100,1,DRIBS,HB,old,z,./images/DRIBSHB.png,,,,,,,,,,,,,,,,,,,,,
,,,,,,,,,,,,,,,,,199369,18,2022-01-29_21h37.34.497,lexical_decision_task_DD_L2,2021.2.3,MacIntel,58.82352941,,,,,,,,,,0.899,1,,,,,,,,,,,,,,,,0,0.211111111,-0.302222222,1,0,0,0.899,button_right_main,0.211111111,-0.302222222,1,0,0,,0,16,16,29,1,CRUMB,C,old,m,./images/CRUMB.png,,,,,,,,,,,,,,,,,,,,,
,,,,,,,,,,,,,,,,,199369,18,2022-01-29_21h37.34.497,lexical_decision_task_DD_L2,2021.2.3,MacIntel,58.82352941,,,,,,,,,,1.314,1,,,,,,,,,,,,,,,,0,-0.294444444,-0.28,1,0,0,1.314,button_left_main,-0.294444444,-0.28,1,0,0,,0,17,17,116,1,BALGY,LB,old,z,./images/BALGYLB.png,,,,,,,,,,,,,,,,,,,,,
,,,,,,,,,,,,,,,,,199369,18,2022-01-29_21h37.34.497,lexical_decision_task_DD_L2,2021.2.3,MacIntel,58.82352941,,,,,,,,,,1.365,1,,,,,,,,,,,,,,,,0,-0.451111111,-0.283333333,1,0,0,1.365,button_left_main,-0.451111111,-0.283333333,1,0,0,,0,18,18,146,1,MOOST,LB,old,z,./images/MOOSTLB.png,,,,,,,,,,,,,,,,,,,,,
,,,,,,,,,,,,,,,,,199369,18,2022-01-29_21h37.34.497,lexical_decision_task_DD_L2,2021.2.3,MacIntel,58.82352941,,,,,,,,,,1.697,0,,,,,,,,,,,,,,,,0,-0.456666667,-0.262222222,1,0,0,1.697,button_left_main,-0.456666667,-0.262222222,1,0,0,,0,19,19,23,1,WALRUS,C,old,m,./images/WALRUS.png,,,,,,,,,,,,,,,,,,,,,
,,,,,,,,,,,,,,,,,199369,18,2022-01-29_21h37.34.497,lexical_decision_task_DD_L2,2021.2.3,MacIntel,58.82352941,,,,,,,,,,1.248,1,,,,,,,,,,,,,,,,0,0.265555556,-0.331111111,1,0,0,1.248,button_right_main,0.265555556,-0.331111111,1,0,0,,0,20,20,53,1,CARPET,C,old,m,./images/CARPET.png,,,,,,,,,,,,,,,,,,,,,
,,,,,,,,,,,,,,,,,199369,18,2022-01-29_21h37.34.497,lexical_decision_task_DD_L2,2021.2.3,MacIntel,58.82352941,,,,,,,,,,1.831,0,,,,,,,,,,,,,,,,0,0.31,-0.292222222,1,0,0,1.831,button_right_main,0.31,-0.292222222,1,0,0,,0,21,21,129,1,PRANS,C,old,z,./images/PRANS.png,,,,,,,,,,,,,,,,,,,,,
,,,,,,,,,,,,,,,,,199369,18,2022-01-29_21h37.34.497,lexical_decision_task_DD_L2,2021.2.3,MacIntel,58.82352941,,,,,,,,,,1.097,1,,,,,,,,,,,,,,,,0,-0.42,-0.313333333,1,0,0,1.097,button_left_main,-0.42,-0.313333333,1,0,0,,0,22,22,96,1,KEAMS,C,old,z,./images/KEAMS.png,,,,,,,,,,,,,,,,,,,,,
,,,,,,,,,,,,,,,,,199369,18,2022-01-29_21h37.34.497,lexical_decision_task_DD_L2,2021.2.3,MacIntel,58.82352941,,,,,,,,,,1.248,1,,,,,,,,,,,,,,,,0,0.267777778,-0.354444444,1,0,0,1.248,button_right_main,0.267777778,-0.354444444,1,0,0,,0,23,23,40,1,SWING,LB,old,m,./images/SWINGLB.png,,,,,,,,,,,,,,,,,,,,,
,,,,,,,,,,,,,,,,,199369,18,2022-01-29_21h37.34.497,lexical_decision_task_DD_L2,2021.2.3,MacIntel,58.82352941,,,,,,,,,,1.663,1,,,,,,,,,,,,,,,,0,-0.297777778,-0.253333333,1,0,0,1.663,button_left_main,-0.297777778,-0.253333333,1,0,0,,0,24,24,143,1,MONGS,LB,old,z,./images/MONGSLB.png,,,,,,,,,,,,,,,,,,,,,
,,,,,,,,,,,,,,,,,199369,18,2022-01-29_21h37.34.497,lexical_decision_task_DD_L2,2021.2.3,MacIntel,58.82352941,,,,,,,,,,1.231,1,,,,,,,,,,,,,,,,0,-0.457777778,-0.327777778,1,0,0,1.231,button_left_main,-0.457777778,-0.327777778,1,0,0,,0,25,25,137,1,JOOST,LB,old,z,./images/JOOSTLB.png,,,,,,,,,,,,,,,,,,,,,
,,,,,,,,,,,,,,,,,199369,18,2022-01-29_21h37.34.497,lexical_decision_task_DD_L2,2021.2.3,MacIntel,58.82352941,,,,,,,,,,2.064,1,,,,,,,,,,,,,,,,0,0.386666667,-0.296666667,1,0,0,2.064,button_right_main,0.386666667,-0.296666667,1,0,0,,0,26,26,81,1,POODLE,HB,old,m,./images/POODLEHB.png,,,,,,,,,,,,,,,,,,,,,
,,,,,,,,,,,,,,,,,199369,18,2022-01-29_21h37.34.497,lexical_decision_task_DD_L2,2021.2.3,MacIntel,58.82352941,,,,,,,,,,0.883,1,,,,,,,,,,,,,,,,0,-0.403333333,-0.31,1,0,0,0.883,button_left_main,-0.403333333,-0.31,1,0,0,,0,27,27,114,1,RIKES,C,old,z,./images/RIKES.png,,,,,,,,,,,,,,,,,,,,,
,,,,,,,,,,,,,,,,,199369,18,2022-01-29_21h37.34.497,lexical_decision_task_DD_L2,2021.2.3,MacIntel,58.82352941,,,,,,,,,,0.865,1,,,,,,,,,,,,,,,,0,0.322222222,-0.381111111,1,0,0,0.865,button_right_main,0.322222222,-0.381111111,1,0,0,,0,28,28,41,1,STRING,C,old,m,./images/STRING.png,,,,,,,,,,,,,,,,,,,,,
,,,,,,,,,,,,,,,,,199369,18,2022-01-29_21h37.34.497,lexical_decision_task_DD_L2,2021.2.3,MacIntel,58.82352941,,,,,,,,,,0.915,1,,,,,,,,,,,,,,,,0,-0.347777778,-0.295555556,1,0,0,0.915,button_left_main,-0.347777778,-0.295555556,1,0,0,,0,29,29,87,1,TRING,C,old,z,./images/TRING.png,,,,,,,,,,,,,,,,,,,,,
,,,,,,,,,,,,,,,,,199369,18,2022-01-29_21h37.34.497,lexical_decision_task_DD_L2,2021.2.3,MacIntel,58.82352941,,,,,,,,,,1.047,1,,,,,,,,,,,,,,,,0,0.34,-0.273333333,1,0,0,1.047,button_right_main,0.34,-0.273333333,1,0,0,,0,30,30,44,1,LIZARD,C,old,m,./images/LIZARD.png,,,,,,,,,,,,,,,,,,,,,
,,,,,,,,,,,,,,,,,199369,18,2022-01-29_21h37.34.497,lexical_decision_task_DD_L2,2021.2.3,MacIntel,58.82352941,,,,,,,,,,1.031,1,,,,,,,,,,,,,,,,0,0.278888889,-0.354444444,1,0,0,1.031,button_right_main,0.278888889,-0.354444444,1,0,0,,0,31,31,47,1,BERRY,C,old,m,./images/BERRY.png,,,,,,,,,,,,,,,,,,,,,
,,,,,,,,,,,,,,,,,199369,18,2022-01-29_21h37.34.497,lexical_decision_task_DD_L2,2021.2.3,MacIntel,58.82352941,,,,,,,,,,2.465,1,,,,,,,,,,,,,,,,0,0.307777778,-0.271111111,1,0,0,2.465,button_right_main,0.307777778,-0.271111111,1,0,0,,0,32,32,38,1,LADDER,C,old,m,./images/LADDER.png,,,,,,,,,,,,,,,,,,,,,
,,,,,,,,,,,,,,,,,199369,18,2022-01-29_21h37.34.497,lexical_decision_task_DD_L2,2021.2.3,MacIntel,58.82352941,,,,,,,,,,0.749,1,,,,,,,,,,,,,,,,0,0.307777778,-0.271111111,1,0,0,0.749,button_right_main,0.307777778,-0.271111111,1,0,0,,0,33,33,19,1,DOUGH,LB,old,m,./images/DOUGHLB.png,,,,,,,,,,,,,,,,,,,,,
,,,,,,,,,,,,,,,,,199369,18,2022-01-29_21h37.34.497,lexical_decision_task_DD_L2,2021.2.3,MacIntel,58.82352941,,,,,,,,,,1.282,0,,,,,,,,,,,,,,,,0,-0.513333333,-0.271111111,1,0,0,1.282,button_left_main,-0.513333333,-0.271111111,1,0,0,,0,34,34,27,1,ATTIC,HB,old,m,./images/ATTICHB.png,,,,,,,,,,,,,,,,,,,,,
,,,,,,,,,,,,,,,,,199369,18,2022-01-29_21h37.34.497,lexical_decision_task_DD_L2,2021.2.3,MacIntel,58.82352941,,,,,,,,,,0.816,1,,,,,,,,,,,,,,,,0,0.297777778,-0.343333333,1,0,0,0.816,button_right_main,0.297777778,-0.343333333,1,0,0,,0,35,35,60,1,TWINS,HB,old,m,./images/TWINSHB.png,,,,,,,,,,,,,,,,,,,,,
,,,,,,,,,,,,,,,,,199369,18,2022-01-29_21h37.34.497,lexical_decision_task_DD_L2,2021.2.3,MacIntel,58.82352941,,,,,,,,,,2.531,1,,,,,,,,,,,,,,,,0,0.231111111,-0.355555556,1,0,0,2.531,button_right_main,0.231111111,-0.355555556,1,0,0,,0,36,36,0,1,TOMATO,HB,old,m,./images/TOMATOHB.png,,,,,,,,,,,,,,,,,,,,,
,,,,,,,,,,,,,,,,,199369,18,2022-01-29_21h37.34.497,lexical_decision_task_DD_L2,2021.2.3,MacIntel,58.82352941,,,,,,,,,,0.932,1,,,,,,,,,,,,,,,,0,-0.38,-0.348888889,1,0,0,0.932,button_left_main,-0.38,-0.348888889,1,0,0,,0,37,37,147,1,ZOLES,C,old,z,./images/ZOLES.png,,,,,,,,,,,,,,,,,,,,,
,,,,,,,,,,,,,,,,,199369,18,2022-01-29_21h37.34.497,lexical_decision_task_DD_L2,2021.2.3,MacIntel,58.82352941,,,,,,,,,,0.698,1,,,,,,,,,,,,,,,,0,0.333333333,-0.284444444,1,0,0,0.698,button_right_main,0.333333333,-0.284444444,1,0,0,,0,38,38,82,1,SUNSET,LB,old,m,./images/SUNSETLB.png,,,,,,,,,,,,,,,,,,,,,
,,,,,,,,,,,,,,,,,199369,18,2022-01-29_21h37.34.497,lexical_decision_task_DD_L2,2021.2.3,MacIntel,58.82352941,,,,,,,,,,2.047,1,,,,,,,,,,,,,,,,0,-0.282222222,-0.314444444,1,0,0,2.047,button_left_main,-0.282222222,-0.314444444,1,0,0,,0,39,39,130,1,CRILL,HB,old,z,./images/CRILLHB.png,,,,,,,,,,,,,,,,,,,,,
,,,,,,,,,,,,,,,,,199369,18,2022-01-29_21h37.34.497,lexical_decision_task_DD_L2,2021.2.3,MacIntel,58.82352941,,,,,,,,,,0.78,1,,,,,,,,,,,,,,,,0,0.288888889,-0.334444444,1,0,0,0.78,button_right_main,0.288888889,-0.334444444,1,0,0,,0,40,40,26,1,SMOKER,C,old,m,./images/SMOKER.png,,,,,,,,,,,,,,,,,,,,,
,,,,,,,,,,,,,,,,,199369,18,2022-01-29_21h37.34.497,lexical_decision_task_DD_L2,2021.2.3,MacIntel,58.82352941,,,,,,,,,,0.748,1,,,,,,,,,,,,,,,,0,-0.237777778,-0.407777778,1,0,0,0.748,button_left_main,-0.105555556,-0.377777778,0,0,0,space,0,41,41,135,1,JOODY,C,old,z,./images/JOODY.png,54.015,,,,,,,,,,,,,,,,,,,,
,,,,,,,,,,,,,,,,,199369,18,2022-01-29_21h37.34.497,lexical_decision_task_DD_L2,2021.2.3,MacIntel,58.82352941,,,,,,,,,,1.181,1,,,,,,,,,,,,,,,,0,0.283333333,-0.338888889,1,0,0,1.181,button_right_main,0.283333333,-0.338888889,1,0,0,,0,42,42,49,1,DRUMS,LB,old,m,./images/DRUMSLB.png,,,,,,,,,,,,,,,,,,,,,
,,,,,,,,,,,,,,,,,199369,18,2022-01-29_21h37.34.497,lexical_decision_task_DD_L2,2021.2.3,MacIntel,58.82352941,,,,,,,,,,1.181,1,,,,,,,,,,,,,,,,0,-0.28,-0.314444444,1,0,0,1.181,button_left_main,-0.28,-0.314444444,1,0,0,,0,43,43,128,1,GRIFT,LB,old,z,./images/GRIFTLB.png,,,,,,,,,,,,,,,,,,,,,
,,,,,,,,,,,,,,,,,199369,18,2022-01-29_21h37.34.497,lexical_decision_task_DD_L2,2021.2.3,MacIntel,58.82352941,,,,,,,,,,0.748,1,,,,,,,,,,,,,,,,0,0.287777778,-0.305555556,1,0,0,0.748,button_right_main,0.287777778,-0.305555556,1,0,0,,0,44,44,64,1,JELLY,LB,old,m,./images/JELLYLB.png,,,,,,,,,,,,,,,,,,,,,
,,,,,,,,,,,,,,,,,199369,18,2022-01-29_21h37.34.497,lexical_decision_task_DD_L2,2021.2.3,MacIntel,58.82352941,,,,,,,,,,0.865,1,,,,,,,,,,,,,,,,0,0.32,-0.277777778,1,0,0,0.865,button_right_main,0.32,-0.277777778,1,0,0,,0,45,45,67,1,SAILOR,LB,old,m,./images/SAILORLB.png,,,,,,,,,,,,,,,,,,,,,
,,,,,,,,,,,,,,,,,199369,18,2022-01-29_21h37.34.497,lexical_decision_task_DD_L2,2021.2.3,MacIntel,58.82352941,,,,,,,,,,0.731,1,,,,,,,,,,,,,,,,0,0.32,-0.277777778,1,0,0,0.731,button_right_main,0.32,-0.277777778,1,0,0,,0,46,46,39,1,SHELF,HB,old,m,./images/SHELFHB.png,,,,,,,,,,,,,,,,,,,,,
,,,,,,,,,,,,,,,,,199369,18,2022-01-29_21h37.34.497,lexical_decision_task_DD_L2,2021.2.3,MacIntel,58.82352941,,,,,,,,,,0.747,1,,,,,,,,,,,,,,,,0,0.32,-0.277777778,1,0,0,0.747,button_right_main,0.32,-0.277777778,1,0,0,,0,47,47,3,1,FINGER,HB,old,m,./images/FINGERHB.png,,,,,,,,,,,,,,,,,,,,,
,,,,,,,,,,,,,,,,,199369,18,2022-01-29_21h37.34.497,lexical_decision_task_DD_L2,2021.2.3,MacIntel,58.82352941,,,,,,,,,,1.148,0,,,,,,,,,,,,,,,,0,-0.386666667,-0.26,1,0,0,1.148,button_left_main,-0.386666667,-0.26,1,0,0,,0,48,48,80,1,WEASEL,C,old,m,./images/WEASEL.png,,,,,,,,,,,,,,,,,,,,,
,,,,,,,,,,,,,,,,,199369,18,2022-01-29_21h37.34.497,lexical_decision_task_DD_L2,2021.2.3,MacIntel,58.82352941,,,,,,,,,,0.832,1,,,,,,,,,,,,,,,,0,0.281111111,-0.293333333,1,0,0,0.832,button_right_main,0.281111111,-0.293333333,1,0,0,,0,49,49,35,1,PEACH,C,old,m,./images/PEACH.png,,,,,,,,,,,,,,,,,,,,,
,,,,,,,,,,,,,,,,,199369,18,2022-01-29_21h37.34.497,lexical_decision_task_DD_L2,2021.2.3,MacIntel,58.82352941,,,,,,,,,,1.03,1,,,,,,,,,,,,,,,,0,-0.344444444,-0.268888889,1,0,0,1.03,button_left_main,-0.344444444,-0.268888889,1,0,0,,0,50,50,94,1,BLANS,HB,old,z,./images/BLANSHB.png,,,,,,,,,,,,,,,,,,,,,
,,,,,,,,,,,,,,,,,199369,18,2022-01-29_21h37.34.497,lexical_decision_task_DD_L2,2021.2.3,MacIntel,58.82352941,,,,,,,,,,1.148,1,,,,,,,,,,,,,,,,0,0.364444444,-0.327777778,1,0,0,1.148,button_right_main,0.364444444,-0.327777778,1,0,0,,0,51,51,54,1,TRIPOD,HB,old,m,./images/TRIPODHB.png,,,,,,,,,,,,,,,,,,,,,
,,,,,,,,,,,,,,,,,199369,18,2022-01-29_21h37.34.497,lexical_decision_task_DD_L2,2021.2.3,MacIntel,58.82352941,,,,,,,,,,1.464,0,,,,,,,,,,,,,,,,0,0.268888889,-0.296666667,1,0,0,1.464,button_right_main,0.268888889,-0.296666667,1,0,0,,0,52,52,142,1,PLASK,HB,old,z,./images/PLASKHB.png,,,,,,,,,,,,,,,,,,,,,
,,,,,,,,,,,,,,,,,199369,18,2022-01-29_21h37.34.497,lexical_decision_task_DD_L2,2021.2.3,MacIntel,58.82352941,,,,,,,,,,0.948,1,,,,,,,,,,,,,,,,0,-0.297777778,-0.317777778,1,0,0,0.948,button_left_main,-0.297777778,-0.317777778,1,0,0,,0,53,53,141,1,PLEET,C,old,z,./images/PLEET.png,,,,,,,,,,,,,,,,,,,,,
,,,,,,,,,,,,,,,,,199369,18,2022-01-29_21h37.34.497,lexical_decision_task_DD_L2,2021.2.3,MacIntel,58.82352941,,,,,,,,,,0.898,1,,,,,,,,,,,,,,,,0,0.24,-0.297777778,1,0,0,0.898,button_right_main,0.24,-0.297777778,1,0,0,,0,54,54,55,1,MUFFIN,LB,old,m,./images/MUFFINLB.png,,,,,,,,,,,,,,,,,,,,,
,,,,,,,,,,,,,,,,,199369,18,2022-01-29_21h37.34.497,lexical_decision_task_DD_L2,2021.2.3,MacIntel,58.82352941,,,,,,,,,,1.13,1,,,,,,,,,,,,,,,,0,-0.311111111,-0.265555556,1,0,0,1.13,button_left_main,-0.311111111,-0.265555556,1,0,0,,0,55,55,164,1,SGREW,LB,old,z,./images/SGREWLB.png,,,,,,,,,,,,,,,,,,,,,
,,,,,,,,,,,,,,,,,199369,18,2022-01-29_21h37.34.497,lexical_decision_task_DD_L2,2021.2.3,MacIntel,58.82352941,,,,,,,,,,1.232,0,,,,,,,,,,,,,,,,0,-0.428888889,-0.256666667,1,0,0,1.232,button_left_main,-0.428888889,-0.256666667,1,0,0,,0,56,56,18,1,JAGUAR,HB,old,m,./images/JAGUARHB.png,,,,,,,,,,,,,,,,,,,,,
,,,,,,,,,,,,,,,,,199369,18,2022-01-29_21h37.34.497,lexical_decision_task_DD_L2,2021.2.3,MacIntel,58.82352941,,,,,,,,,,1.232,0,,,,,,,,,,,,,,,,0,-0.401111111,-0.307777778,1,0,0,1.232,button_left_main,-0.401111111,-0.307777778,1,0,0,,0,57,57,34,1,CANYON,LB,old,m,./images/CANYONLB.png,,,,,,,,,,,,,,,,,,,,,
,,,,,,,,,,,,,,,,,199369,18,2022-01-29_21h37.34.497,lexical_decision_task_DD_L2,2021.2.3,MacIntel,58.82352941,,,,,,,,,,1.581,1,,,,,,,,,,,,,,,,0,-0.294444444,-0.27,1,0,0,1.581,button_left_main,-0.294444444,-0.27,1,0,0,,0,58,58,123,1,SEDGE,C,old,z,./images/SEDGE.png,,,,,,,,,,,,,,,,,,,,,
,,,,,,,,,,,,,,,,,199369,18,2022-01-29_21h37.34.497,lexical_decision_task_DD_L2,2021.2.3,MacIntel,58.82352941,,,,,,,,,,1.965,1,,,,,,,,,,,,,,,,0,-0.398888889,-0.304444444,1,0,0,1.965,button_left_main,-0.398888889,-0.304444444,1,0,0,,0,59,59,152,1,FRAIN,LB,old,z,./images/FRAINLB.png,,,,,,,,,,,,,,,,,,,,,
,,,,,,,,,,,,,,,,,199369,18,2022-01-29_21h37.34.497,lexical_decision_task_DD_L2,2021.2.3,MacIntel,58.82352941,,,,,,,,,,1.711,1,,,,,,,,,,,,,,,,0,0.247777778,-0.258888889,1,0,0,1.711,button_right_main,0.247777778,-0.258888889,1,0,0,,0,60,60,37,1,BIRTH,LB,old,m,./images/BIRTHLB.png,,,,,,,,,,,,,,,,,,,,,
,,,,,,,,,,,,,,,,,199369,18,2022-01-29_21h37.34.497,lexical_decision_task_DD_L2,2021.2.3,MacIntel,58.82352941,,,,,,,,,,1.364,1,,,,,,,,,,,,,,,,0,-0.385555556,-0.323333333,1,0,0,1.364,button_left_main,-0.385555556,-0.323333333,1,0,0,,0,61,61,97,1,CHIDS,HB,old,z,./images/CHIDSHB.png,,,,,,,,,,,,,,,,,,,,,
,,,,,,,,,,,,,,,,,199369,18,2022-01-29_21h37.34.497,lexical_decision_task_DD_L2,2021.2.3,MacIntel,58.82352941,,,,,,,,,,1.798,1,,,,,,,,,,,,,,,,0,-0.318888889,-0.32,1,0,0,1.798,button_left_main,-0.318888889,-0.32,1,0,0,,0,62,62,158,1,EGECT,LB,old,z,./images/EGECTLB.png,,,,,,,,,,,,,,,,,,,,,
,,,,,,,,,,,,,,,,,199369,18,2022-01-29_21h37.34.497,lexical_decision_task_DD_L2,2021.2.3,MacIntel,58.82352941,,,,,,,,,,0.882,1,,,,,,,,,,,,,,,,0,0.376666667,-0.276666667,1,0,0,0.882,button_right_main,0.376666667,-0.276666667,1,0,0,,0,63,63,75,1,GRAIN,HB,old,m,./images/GRAINHB.png,,,,,,,,,,,,,,,,,,,,,
,,,,,,,,,,,,,,,,,199369,18,2022-01-29_21h37.34.497,lexical_decision_task_DD_L2,2021.2.3,MacIntel,58.82352941,,,,,,,,,,1.815,1,,,,,,,,,,,,,,,,0,-0.368888889,-0.367777778,1,0,0,1.815,button_left_main,-0.368888889,-0.367777778,1,0,0,,0,64,64,153,1,CLUPS,C,old,z,./images/CLUPS.png,,,,,,,,,,,,,,,,,,,,,
,,,,,,,,,,,,,,,,,199369,18,2022-01-29_21h37.34.497,lexical_decision_task_DD_L2,2021.2.3,MacIntel,58.82352941,,,,,,,,,,1.032,1,,,,,,,,,,,,,,,,0,-0.355555556,-0.315555556,1,0,0,1.032,button_left_main,-0.355555556,-0.315555556,1,0,0,,0,65,65,145,1,LAMEL,HB,old,z,./images/LAMELHB.png,,,,,,,,,,,,,,,,,,,,,
,,,,,,,,,,,,,,,,,199369,18,2022-01-29_21h37.34.497,lexical_decision_task_DD_L2,2021.2.3,MacIntel,58.82352941,,,,,,,,,,1.148,1,,,,,,,,,,,,,,,,0,0.418888889,-0.365555556,1,0,0,1.148,button_right_main,0.418888889,-0.365555556,1,0,0,,0,66,66,63,1,MIRROR,HB,old,m,./images/MIRRORHB.png,,,,,,,,,,,,,,,,,,,,,
,,,,,,,,,,,,,,,,,199369,18,2022-01-29_21h37.34.497,lexical_decision_task_DD_L2,2021.2.3,MacIntel,58.82352941,,,,,,,,,,1.298,1,,,,,,,,,,,,,,,,0,0.32,-0.29,1,0,0,1.298,button_right_main,0.32,-0.29,1,0,0,,0,67,67,31,1,QUILL,LB,old,m,./images/QUILLLB.png,,,,,,,,,,,,,,,,,,,,,
,,,,,,,,,,,,,,,,,199369,18,2022-01-29_21h37.34.497,lexical_decision_task_DD_L2,2021.2.3,MacIntel,58.82352941,,,,,,,,,,1.314,1,,,,,,,,,,,,,,,,0,-0.366666667,-0.348888889,1,0,0,1.314,button_left_main,-0.366666667,-0.348888889,1,0,0,,0,68,68,121,1,CEERS,HB,old,z,./images/CEERSHB.png,,,,,,,,,,,,,,,,,,,,,
,,,,,,,,,,,,,,,,,199369,18,2022-01-29_21h37.34.497,lexical_decision_task_DD_L2,2021.2.3,MacIntel,58.82352941,,,,,,,,,,0.882,1,,,,,,,,,,,,,,,,0,0.205555556,-0.324444444,1,0,0,0.882,button_right_main,0.205555556,-0.324444444,1,0,0,,0,69,69,20,1,CRADLE,C,old,m,./images/CRADLE.png,,,,,,,,,,,,,,,,,,,,,
,,,,,,,,,,,,,,,,,199369,18,2022-01-29_21h37.34.497,lexical_decision_task_DD_L2,2021.2.3,MacIntel,58.82352941,,,,,,,,,,0.882,1,,,,,,,,,,,,,,,,0,-0.366666667,-0.284444444,1,0,0,0.882,button_left_main,-0.366666667,-0.284444444,1,0,0,,0,70,70,161,1,BLAPS,LB,old,z,./images/BLAPSLB.png,,,,,,,,,,,,,,,,,,,,,
,,,,,,,,,,,,,,,,,199369,18,2022-01-29_21h37.34.497,lexical_decision_task_DD_L2,2021.2.3,MacIntel,58.82352941,,,,,,,,,,0.947,1,,,,,,,,,,,,,,,,0,-0.382222222,-0.262222222,1,0,0,0.947,button_left_main,-0.382222222,-0.262222222,1,0,0,,0,71,71,126,1,GUELS,C,old,z,./images/GUELS.png,,,,,,,,,,,,,,,,,,,,,
,,,,,,,,,,,,,,,,,199369,18,2022-01-29_21h37.34.497,lexical_decision_task_DD_L2,2021.2.3,MacIntel,58.82352941,,,,,,,,,,1.698,1,,,,,,,,,,,,,,,,0,-0.356666667,-0.294444444,1,0,0,1.698,button_left_main,-0.356666667,-0.294444444,1,0,0,,0,72,72,84,1,HAXES,C,old,z,./images/HAXES.png,,,,,,,,,,,,,,,,,,,,,
,,,,,,,,,,,,,,,,,199369,18,2022-01-29_21h37.34.497,lexical_decision_task_DD_L2,2021.2.3,MacIntel,58.82352941,,,,,,,,,,1.281,1,,,,,,,,,,,,,,,,0,0.262222222,-0.364444444,1,0,0,1.281,button_right_main,0.262222222,-0.364444444,1,0,0,,0,73,73,17,1,SKIING,C,old,m,./images/SKIING.png,,,,,,,,,,,,,,,,,,,,,
,,,,,,,,,,,,,,,,,199369,18,2022-01-29_21h37.34.497,lexical_decision_task_DD_L2,2021.2.3,MacIntel,58.82352941,,,,,,,,,,1.199,1,,,,,,,,,,,,,,,,0,0.465555556,-0.303333333,1,0,0,1.199,button_right_main,0.465555556,-0.303333333,1,0,0,,0,74,74,14,1,PICKLE,C,old,m,./images/PICKLE.png,,,,,,,,,,,,,,,,,,,,,
,,,,,,,,,,,,,,,,,199369,18,2022-01-29_21h37.34.497,lexical_decision_task_DD_L2,2021.2.3,MacIntel,58.82352941,,,,,,,,,,3.681,1,,,,,,,,,,,,,,,,0,-0.333333333,-0.252222222,1,0,0,3.681,button_left_main,-0.333333333,-0.252222222,1,0,0,,0,75,75,92,1,PAIMS,LB,old,z,./images/PAIMSLB.png,,,,,,,,,,,,,,,,,,,,,
,,,,,,,,,,,,,,,,,199369,18,2022-01-29_21h37.34.497,lexical_decision_task_DD_L2,2021.2.3,MacIntel,58.82352941,,,,,,,,,,1.33,1,,,,,,,,,,,,,,,,0,0.241111111,-0.242222222,1,0,0,1.33,button_right_main,0.241111111,-0.242222222,1,0,0,,0,76,76,10,1,BELLY,LB,old,m,./images/BELLYLB.png,,,,,,,,,,,,,,,,,,,,,
,,,,,,,,,,,,,,,,,199369,18,2022-01-29_21h37.34.497,lexical_decision_task_DD_L2,2021.2.3,MacIntel,58.82352941,,,,,,,,,,0.814,1,,,,,,,,,,,,,,,,0,-0.437777778,-0.333333333,1,0,0,0.814,button_left_main,-0.437777778,-0.333333333,1,0,0,,0,77,77,117,1,STEEG,C,old,z,./images/STEEG.png,,,,,,,,,,,,,,,,,,,,,
,,,,,,,,,,,,,,,,,199369,18,2022-01-29_21h37.34.497,lexical_decision_task_DD_L2,2021.2.3,MacIntel,58.82352941,,,,,,,,,,1.099,1,,,,,,,,,,,,,,,,0,-0.418888889,-0.328888889,1,0,0,1.099,button_left_main,-0.418888889,-0.328888889,1,0,0,,0,78,78,162,1,LEICH,C,old,z,./images/LEICH.png,,,,,,,,,,,,,,,,,,,,,
,,,,,,,,,,,,,,,,,199369,18,2022-01-29_21h37.34.497,lexical_decision_task_DD_L2,2021.2.3,MacIntel,58.82352941,,,,,,,,,,1.214,0,,,,,,,,,,,,,,,,0,0.236666667,-0.326666667,1,0,0,1.214,button_right_main,0.236666667,-0.326666667,1,0,0,,0,79,79,105,1,MOKER,C,old,z,./images/MOKER.png,,,,,,,,,,,,,,,,,,,,,
,,,,,,,,,,,,,,,,,199369,18,2022-01-29_21h37.34.497,lexical_decision_task_DD_L2,2021.2.3,MacIntel,58.82352941,,,,,,,,,,0.832,1,,,,,,,,,,,,,,,,0,-0.305555556,-0.274444444,1,0,0,0.832,button_left_main,-0.305555556,-0.274444444,1,0,0,,0,80,80,156,1,HIXES,C,old,z,./images/HIXES.png,,,,,,,,,,,,,,,,,,,,,
,,,,,,,,,,,,,,,,,199369,18,2022-01-29_21h37.34.497,lexical_decision_task_DD_L2,2021.2.3,MacIntel,58.82352941,,,,,,,,,,1.015,1,,,,,,,,,,,,,,,,0,-0.307777778,-0.264444444,1,0,0,1.015,button_left_main,-0.307777778,-0.264444444,1,0,0,,0,81,81,113,1,LINEW,LB,old,z,./images/LINEWLB.png,,,,,,,,,,,,,,,,,,,,,
,,,,,,,,,,,,,,,,,199369,18,2022-01-29_21h37.34.497,lexical_decision_task_DD_L2,2021.2.3,MacIntel,58.82352941,,,,,,,,,,0.815,1,,,,,,,,,,,,,,,,0,0.502222222,-0.316666667,1,0,0,0.815,button_right_main,0.502222222,-0.316666667,1,0,0,,0,82,82,59,1,BURIAL,C,old,m,./images/BURIAL.png,,,,,,,,,,,,,,,,,,,,,
,,,,,,,,,,,,,,,,,199369,18,2022-01-29_21h37.34.497,lexical_decision_task_DD_L2,2021.2.3,MacIntel,58.82352941,,,,,,,,,,1.681,1,,,,,,,,,,,,,,,,0,-0.328888889,-0.29,1,0,0,1.681,button_left_main,-0.034444444,-0.378888889,0,0,0,space,0,83,83,150,1,NOOLS,C,old,z,./images/NOOLS.png,2.217,,,,,,,,,,,,,,,,,,,,
,,,,,,,,,,,,,,,,,199369,18,2022-01-29_21h37.34.497,lexical_decision_task_DD_L2,2021.2.3,MacIntel,58.82352941,,,,,,,,,,0.915,1,,,,,,,,,,,,,,,,0,-0.273333333,-0.276666667,1,0,0,0.915,button_left_main,-0.273333333,-0.276666667,1,0,0,,0,84,84,112,1,MYING,HB,old,z,./images/MYINGHB.png,,,,,,,,,,,,,,,,,,,,,
,,,,,,,,,,,,,,,,,199369,18,2022-01-29_21h37.34.497,lexical_decision_task_DD_L2,2021.2.3,MacIntel,58.82352941,,,,,,,,,,0.765,1,,,,,,,,,,,,,,,,0,-0.287777778,-0.276666667,1,0,0,0.765,button_left_main,-0.287777778,-0.276666667,1,0,0,,0,85,85,90,1,NEAST,C,old,z,./images/NEAST.png,,,,,,,,,,,,,,,,,,,,,
,,,,,,,,,,,,,,,,,199369,18,2022-01-29_21h37.34.497,lexical_decision_task_DD_L2,2021.2.3,MacIntel,58.82352941,,,,,,,,,,1.398,0,,,,,,,,,,,,,,,,0,-0.287777778,-0.275555556,1,0,0,1.398,button_left_main,-0.287777778,-0.275555556,1,0,0,,0,86,86,72,1,NOOSE,HB,old,m,./images/NOOSEHB.png,,,,,,,,,,,,,,,,,,,,,
,,,,,,,,,,,,,,,,,199369,18,2022-01-29_21h37.34.497,lexical_decision_task_DD_L2,2021.2.3,MacIntel,58.82352941,,,,,,,,,,0.896,1,,,,,,,,,,,,,,,,0,0.231111111,-0.345555556,1,0,0,0.896,button_right_main,0.231111111,-0.345555556,1,0,0,,0,87,87,45,1,KITTEN,HB,old,m,./images/KITTENHB.png,,,,,,,,,,,,,,,,,,,,,
,,,,,,,,,,,,,,,,,199369,18,2022-01-29_21h37.34.497,lexical_decision_task_DD_L2,2021.2.3,MacIntel,58.82352941,,,,,,,,,,1.133,1,,,,,,,,,,,,,,,,0,0.248888889,-0.34,1,0,0,1.133,button_right_main,0.248888889,-0.34,1,0,0,,0,88,88,24,1,SCREW,HB,old,m,./images/SCREWHB.png,,,,,,,,,,,,,,,,,,,,,
,,,,,,,,,,,,,,,,,199369,18,2022-01-29_21h37.34.497,lexical_decision_task_DD_L2,2021.2.3,MacIntel,58.82352941,,,,,,,,,,2.116,1,,,,,,,,,,,,,,,,0,0.277777778,-0.332222222,1,0,0,2.116,button_right_main,0.277777778,-0.332222222,1,0,0,,0,89,89,15,1,GREASE,HB,old,m,./images/GREASEHB.png,,,,,,,,,,,,,,,,,,,,,
,,,,,,,,,,,,,,,,,199369,18,2022-01-29_21h37.34.497,lexical_decision_task_DD_L2,2021.2.3,MacIntel,58.82352941,,,,,,,,,,0.965,1,,,,,,,,,,,,,,,,0,0.295555556,-0.261111111,1,0,0,0.965,button_right_main,0.295555556,-0.261111111,1,0,0,,0,90,90,74,1,CEMENT,C,old,m,./images/CEMENT.png,,,,,,,,,,,,,,,,,,,,,
,,,,,,,,,,,,,,,,,199369,18,2022-01-29_21h37.34.497,lexical_decision_task_DD_L2,2021.2.3,MacIntel,58.82352941,,,,,,,,,,0.931,1,,,,,,,,,,,,,,,,0,0.263333333,-0.258888889,1,0,0,0.931,button_right_main,0.263333333,-0.258888889,1,0,0,,0,91,91,79,1,CRUST,LB,old,m,./images/CRUSTLB.png,,,,,,,,,,,,,,,,,,,,,
,,,,,,,,,,,,,,,,,199369,18,2022-01-29_21h37.34.497,lexical_decision_task_DD_L2,2021.2.3,MacIntel,58.82352941,,,,,,,,,,0.848,0,,,,,,,,,,,,,,,,0,-0.352222222,-0.24,1,0,0,0.848,button_left_main,-0.352222222,-0.24,1,0,0,,0,92,92,8,1,TULIP,C,old,m,./images/TULIP.png,,,,,,,,,,,,,,,,,,,,,
,,,,,,,,,,,,,,,,,199369,18,2022-01-29_21h37.34.497,lexical_decision_task_DD_L2,2021.2.3,MacIntel,58.82352941,,,,,,,,,,1.064,1,,,,,,,,,,,,,,,,0,0.251111111,-0.268888889,1,0,0,1.064,button_right_main,0.251111111,-0.268888889,1,0,0,,0,93,93,70,1,URINE,LB,old,m,./images/URINELB.png,,,,,,,,,,,,,,,,,,,,,
,,,,,,,,,,,,,,,,,199369,18,2022-01-29_21h37.34.497,lexical_decision_task_DD_L2,2021.2.3,MacIntel,58.82352941,,,,,,,,,,1.082,1,,,,,,,,,,,,,,,,0,-0.358888889,-0.25,1,0,0,1.082,button_left_main,-0.358888889,-0.25,1,0,0,,0,94,94,102,1,DULLE,C,old,z,./images/DULLE.png,,,,,,,,,,,,,,,,,,,,,
,,,,,,,,,,,,,,,,,199369,18,2022-01-29_21h37.34.497,lexical_decision_task_DD_L2,2021.2.3,MacIntel,58.82352941,,,,,,,,,,1.264,1,,,,,,,,,,,,,,,,0,0.276666667,-0.238888889,1,0,0,1.264,button_right_main,0.276666667,-0.238888889,1,0,0,,0,95,95,43,1,MOSQUE,LB,old,m,./images/MOSQUELB.png,,,,,,,,,,,,,,,,,,,,,
,,,,,,,,,,,,,,,,,199369,18,2022-01-29_21h37.34.497,lexical_decision_task_DD_L2,2021.2.3,MacIntel,58.82352941,,,,,,,,,,1.232,1,,,,,,,,,,,,,,,,0,-0.235555556,-0.305555556,1,0,0,1.232,button_left_main,-0.235555556,-0.305555556,1,0,0,,0,96,96,160,1,VEETS,HB,old,z,./images/VEETSHB.png,,,,,,,,,,,,,,,,,,,,,
,,,,,,,,,,,,,,,,,199369,18,2022-01-29_21h37.34.497,lexical_decision_task_DD_L2,2021.2.3,MacIntel,58.82352941,,,,,,,,,,1.581,1,,,,,,,,,,,,,,,,0,0.221111111,-0.33,1,0,0,1.581,button_right_main,0.221111111,-0.33,1,0,0,,0,97,97,68,1,TORCH,C,old,m,./images/TORCH.png,,,,,,,,,,,,,,,,,,,,,
,,,,,,,,,,,,,,,,,199369,18,2022-01-29_21h37.34.497,lexical_decision_task_DD_L2,2021.2.3,MacIntel,58.82352941,,,,,,,,,,1.148,1,,,,,,,,,,,,,,,,0,-0.334444444,-0.293333333,1,0,0,1.148,button_left_main,-0.334444444,-0.293333333,1,0,0,,0,98,98,120,1,RINED,C,old,z,./images/RINED.png,,,,,,,,,,,,,,,,,,,,,
,,,,,,,,,,,,,,,,,199369,18,2022-01-29_21h37.34.497,lexical_decision_task_DD_L2,2021.2.3,MacIntel,58.82352941,,,,,,,,,,1.08,0,,,,,,,,,,,,,,,,0,0.32,-0.334444444,1,0,0,1.08,button_right_main,0.32,-0.334444444,1,0,0,,0,99,99,159,1,CUDDY,C,old,z,./images/CUDDY.png,,,,,,,,,,,,,,,,,,,,,
,,,,,,,,,,,,,,,,,199369,18,2022-01-29_21h37.34.497,lexical_decision_task_DD_L2,2021.2.3,MacIntel,58.82352941,,,,,,,,,,0.881,1,,,,,,,,,,,,,,,,0,0.267777778,-0.306666667,1,0,0,0.881,button_right_main,0.267777778,-0.306666667,1,0,0,,0,100,100,4,1,MUSCLE,LB,old,m,./images/MUSCLELB.png,,,,,,,,,,,,,,,,,,,,,
,,,,,,,,,,,,,,,,,199369,18,2022-01-29_21h37.34.497,lexical_decision_task_DD_L2,2021.2.3,MacIntel,58.82352941,,,,,,,,,,0.799,1,,,,,,,,,,,,,,,,0,-0.307777778,-0.35,1,0,0,0.799,button_left_main,-0.307777778,-0.35,1,0,0,,0,101,101,89,1,DRIEK,LB,old,z,./images/DRIEKLB.png,,,,,,,,,,,,,,,,,,,,,
,,,,,,,,,,,,,,,,,199369,18,2022-01-29_21h37.34.497,lexical_decision_task_DD_L2,2021.2.3,MacIntel,58.82352941,,,,,,,,,,2.45,1,,,,,,,,,,,,,,,,0,-0.328888889,-0.268888889,1,0,0,2.45,button_left_main,-0.328888889,-0.268888889,1,0,0,,0,102,102,124,1,TUNCH,HB,old,z,./images/TUNCHHB.png,,,,,,,,,,,,,,,,,,,,,
,,,,,,,,,,,,,,,,,199369,18,2022-01-29_21h37.34.497,lexical_decision_task_DD_L2,2021.2.3,MacIntel,58.82352941,,,,,,,,,,3.381,1,,,,,,,,,,,,,,,,0,-0.331111111,-0.34,1,0,0,3.381,button_left_main,-0.331111111,-0.34,1,0,0,,0,103,103,107,1,FASKS,LB,old,z,./images/FASKSLB.png,,,,,,,,,,,,,,,,,,,,,
,,,,,,,,,,,,,,,,,199369,18,2022-01-29_21h37.34.497,lexical_decision_task_DD_L2,2021.2.3,MacIntel,58.82352941,,,,,,,,,,1.131,1,,,,,,,,,,,,,,,,0,-0.352222222,-0.355555556,1,0,0,1.131,button_left_main,-0.352222222,-0.355555556,1,0,0,,0,104,104,144,1,NAIRY,C,old,z,./images/NAIRY.png,,,,,,,,,,,,,,,,,,,,,
,,,,,,,,,,,,,,,,,199369,18,2022-01-29_21h37.34.497,lexical_decision_task_DD_L2,2021.2.3,MacIntel,58.82352941,,,,,,,,,,0.698,1,,,,,,,,,,,,,,,,0,-0.356666667,-0.346666667,1,0,0,0.698,button_left_main,-0.356666667,-0.346666667,1,0,0,,0,105,105,108,1,GRUET,C,old,z,./images/GRUET.png,,,,,,,,,,,,,,,,,,,,,
,,,,,,,,,,,,,,,,,199369,18,2022-01-29_21h37.34.497,lexical_decision_task_DD_L2,2021.2.3,MacIntel,58.82352941,,,,,,,,,,1.265,1,,,,,,,,,,,,,,,,0,-0.35,-0.29,1,0,0,1.265,button_left_main,-0.35,-0.29,1,0,0,,0,106,106,151,1,TINKY,HB,old,z,./images/TINKYHB.png,,,,,,,,,,,,,,,,,,,,,
,,,,,,,,,,,,,,,,,199369,18,2022-01-29_21h37.34.497,lexical_decision_task_DD_L2,2021.2.3,MacIntel,58.82352941,,,,,,,,,,2.132,1,,,,,,,,,,,,,,,,0,-0.365555556,-0.34,1,0,0,2.132,button_left_main,-0.365555556,-0.34,1,0,0,,0,107,107,154,1,THINT,HB,old,z,./images/THINTHB.png,,,,,,,,,,,,,,,,,,,,,
,,,,,,,,,,,,,,,,,199369,18,2022-01-29_21h37.34.497,lexical_decision_task_DD_L2,2021.2.3,MacIntel,58.82352941,,,,,,,,,,0.847,1,,,,,,,,,,,,,,,,0,0.303333333,-0.323333333,1,0,0,0.847,button_right_main,0.303333333,-0.323333333,1,0,0,,0,108,108,5,1,PASTA,C,old,m,./images/PASTA.png,,,,,,,,,,,,,,,,,,,,,
,,,,,,,,,,,,,,,,,199369,18,2022-01-29_21h37.34.497,lexical_decision_task_DD_L2,2021.2.3,MacIntel,58.82352941,,,,,,,,,,0.915,1,,,,,,,,,,,,,,,,0,0.404444444,-0.274444444,1,0,0,0.915,button_right_main,0.404444444,-0.274444444,1,0,0,,0,109,109,65,1,FARMER,C,old,m,./images/FARMER.png,,,,,,,,,,,,,,,,,,,,,
,,,,,,,,,,,,,,,,,199369,18,2022-01-29_21h37.34.497,lexical_decision_task_DD_L2,2021.2.3,MacIntel,58.82352941,,,,,,,,,,0.814,1,,,,,,,,,,,,,,,,0,0.318888889,-0.282222222,1,0,0,0.814,button_right_main,0.318888889,-0.282222222,1,0,0,,0,110,110,48,1,SPORT,HB,old,m,./images/SPORTHB.png,,,,,,,,,,,,,,,,,,,,,
,,,,,,,,,,,,,,,,,199369,18,2022-01-29_21h37.34.497,lexical_decision_task_DD_L2,2021.2.3,MacIntel,58.82352941,,,,,,,,,,0.898,1,,,,,,,,,,,,,,,,0,-0.425555556,-0.29,1,0,0,0.898,button_left_main,-0.425555556,-0.29,1,0,0,,0,111,111,138,1,PLICE,C,old,z,./images/PLICE.png,,,,,,,,,,,,,,,,,,,,,
,,,,,,,,,,,,,,,,,199369,18,2022-01-29_21h37.34.497,lexical_decision_task_DD_L2,2021.2.3,MacIntel,58.82352941,,,,,,,,,,0.898,1,,,,,,,,,,,,,,,,0,-0.411111111,-0.28,1,0,0,0.898,button_left_main,-0.411111111,-0.28,1,0,0,,0,112,112,106,1,CLUMS,HB,old,z,./images/CLUMSHB.png,,,,,,,,,,,,,,,,,,,,,
,,,,,,,,,,,,,,,,,199369,18,2022-01-29_21h37.34.497,lexical_decision_task_DD_L2,2021.2.3,MacIntel,58.82352941,,,,,,,,,,1.648,1,,,,,,,,,,,,,,,,0,-0.474444444,-0.384444444,1,0,0,1.648,button_left_main,-0.474444444,-0.384444444,1,0,0,,0,113,113,99,1,BACKY,C,old,z,./images/BACKY.png,,,,,,,,,,,,,,,,,,,,,
,,,,,,,,,,,,,,,,,199369,18,2022-01-29_21h37.34.497,lexical_decision_task_DD_L2,2021.2.3,MacIntel,58.82352941,,,,,,,,,,1.215,1,,,,,,,,,,,,,,,,0,0.243333333,-0.316666667,1,0,0,1.215,button_right_main,0.243333333,-0.316666667,1,0,0,,0,114,114,25,1,WRIST,LB,old,m,./images/WRISTLB.png,,,,,,,,,,,,,,,,,,,,,
,,,,,,,,,,,,,,,,,199369,18,2022-01-29_21h37.34.497,lexical_decision_task_DD_L2,2021.2.3,MacIntel,58.82352941,,,,,,,,,,0.898,1,,,,,,,,,,,,,,,,0,0.366666667,-0.352222222,1,0,0,0.898,button_right_main,0.366666667,-0.352222222,1,0,0,,0,115,115,77,1,COUCH,C,old,m,./images/COUCH.png,,,,,,,,,,,,,,,,,,,,,
,,,,,,,,,,,,,,,,,199369,18,2022-01-29_21h37.34.497,lexical_decision_task_DD_L2,2021.2.3,MacIntel,58.82352941,,,,,,,,,,0.814,1,,,,,,,,,,,,,,,,0,-0.186666667,-0.281111111,1,0,0,0.814,button_left_main,-0.258888889,-0.282222222,1,0,0,,0,116,116,149,1,VEASE,LB,old,z,./images/VEASELB.png,,,,,,,,,,,,,,,,,,,,,
,,,,,,,,,,,,,,,,,199369,18,2022-01-29_21h37.34.497,lexical_decision_task_DD_L2,2021.2.3,MacIntel,58.82352941,,,,,,,,,,0.866,1,,,,,,,,,,,,,,,,0,-0.343333333,-0.357777778,1,0,0,0.866,button_left_main,-0.343333333,-0.357777778,1,0,0,,0,117,117,167,1,ZONET,LB,old,z,./images/ZONETLB.png,,,,,,,,,,,,,,,,,,,,,
,,,,,,,,,,,,,,,,,199369,18,2022-01-29_21h37.34.497,lexical_decision_task_DD_L2,2021.2.3,MacIntel,58.82352941,,,,,,,,,,1.665,1,,,,,,,,,,,,,,,,0,-0.335555556,-0.343333333,1,0,0,1.665,button_left_main,-0.335555556,-0.343333333,1,0,0,,0,118,118,155,1,CANGY,LB,old,z,./images/CANGYLB.png,,,,,,,,,,,,,,,,,,,,,
,,,,,,,,,,,,,,,,,199369,18,2022-01-29_21h37.34.497,lexical_decision_task_DD_L2,2021.2.3,MacIntel,58.82352941,,,,,,,,,,0.796,1,,,,,,,,,,,,,,,,0,-0.34,-0.331111111,1,0,0,0.796,button_left_main,-0.34,-0.331111111,1,0,0,,0,119,119,95,1,HANTY,LB,old,z,./images/HANTYLB.png,,,,,,,,,,,,,,,,,,,,,
,,,,,,,,,,,,,,,,,199369,18,2022-01-29_21h37.34.497,lexical_decision_task_DD_L2,2021.2.3,MacIntel,58.82352941,,,,,,,,,,1.331,1,,,,,,,,,,,,,,,,0,0.254444444,-0.328888889,1,0,0,1.331,button_right_main,0.254444444,-0.328888889,1,0,0,,0,120,120,12,1,SHORE,HB,old,m,./images/SHOREHB.png,,,,,,,,,,,,,,,,,,,,,
,,,,,,,,,,,,,,,,,199369,18,2022-01-29_21h37.34.497,lexical_decision_task_DD_L2,2021.2.3,MacIntel,58.82352941,,,,,,,,,,0.848,1,,,,,,,,,,,,,,,,0,0.305555556,-0.314444444,1,0,0,0.848,button_right_main,0.305555556,-0.314444444,1,0,0,,0,121,121,56,1,PACKET,C,old,m,./images/PACKET.png,,,,,,,,,,,,,,,,,,,,,
,,,,,,,,,,,,,,,,,199369,18,2022-01-29_21h37.34.497,lexical_decision_task_DD_L2,2021.2.3,MacIntel,58.82352941,,,,,,,,,,0.765,1,,,,,,,,,,,,,,,,0,-0.224444444,-0.294444444,1,0,0,0.765,button_left_main,-0.224444444,-0.294444444,1,0,0,,0,122,122,134,1,TROSS,LB,old,z,./images/TROSSLB.png,,,,,,,,,,,,,,,,,,,,,
,,,,,,,,,,,,,,,,,199369,18,2022-01-29_21h37.34.497,lexical_decision_task_DD_L2,2021.2.3,MacIntel,58.82352941,,,,,,,,,,0.698,1,,,,,,,,,,,,,,,,0,0.246666667,-0.345555556,1,0,0,0.698,button_right_main,0.246666667,-0.345555556,1,0,0,,0,123,123,32,1,BARREL,C,old,m,./images/BARREL.png,,,,,,,,,,,,,,,,,,,,,
,,,,,,,,,,,,,,,,,199369,18,2022-01-29_21h37.34.497,lexical_decision_task_DD_L2,2021.2.3,MacIntel,58.82352941,,,,,,,,,,0.965,1,,,,,,,,,,,,,,,,0,0.331111111,-0.364444444,1,0,0,0.965,button_right_main,0.331111111,-0.364444444,1,0,0,,0,124,124,73,1,SNACK,LB,old,m,./images/SNACKLB.png,,,,,,,,,,,,,,,,,,,,,
,,,,,,,,,,,,,,,,,199369,18,2022-01-29_21h37.34.497,lexical_decision_task_DD_L2,2021.2.3,MacIntel,58.82352941,,,,,,,,,,0.797,1,,,,,,,,,,,,,,,,0,0.296666667,-0.324444444,1,0,0,0.797,button_right_main,0.037777778,-0.367777778,0,0,0,space,0,125,125,42,1,FOLDER,HB,old,m,./images/FOLDERHB.png,1.42,,,,,,,,,,,,,,,,,,,,
,,,,,,,,,,,,,,,,,199369,18,2022-01-29_21h37.34.497,lexical_decision_task_DD_L2,2021.2.3,MacIntel,58.82352941,,,,,,,,,,0.881,1,,,,,,,,,,,,,,,,0,0.353333333,-0.31,1,0,0,0.881,button_right_main,0.353333333,-0.31,1,0,0,,0,126,126,51,1,ONION,HB,old,m,./images/ONIONHB.png,,,,,,,,,,,,,,,,,,,,,
,,,,,,,,,,,,,,,,,199369,18,2022-01-29_21h37.34.497,lexical_decision_task_DD_L2,2021.2.3,MacIntel,58.82352941,,,,,,,,,,0.597,1,,,,,,,,,,,,,,,,0,0.354444444,-0.311111111,1,0,0,0.597,button_right_main,0.354444444,-0.311111111,1,0,0,,0,127,127,62,1,PURSE,C,old,m,./images/PURSE.png,,,,,,,,,,,,,,,,,,,,,
,,,,,,,,,,,,,,,,,199369,18,2022-01-29_21h37.34.497,lexical_decision_task_DD_L2,2021.2.3,MacIntel,58.82352941,,,,,,,,,,0.764,1,,,,,,,,,,,,,,,,0,0.291111111,-0.32,1,0,0,0.764,button_right_main,0.291111111,-0.32,1,0,0,,0,128,128,30,1,STORM,HB,old,m,./images/STORMHB.png,,,,,,,,,,,,,,,,,,,,,
,,,,,,,,,,,,,,,,,199369,18,2022-01-29_21h37.34.497,lexical_decision_task_DD_L2,2021.2.3,MacIntel,58.82352941,,,,,,,,,,1.048,1,,,,,,,,,,,,,,,,0,-0.38,-0.287777778,1,0,0,1.048,button_left_main,-0.38,-0.287777778,1,0,0,,0,129,129,127,1,NINDY,HB,old,z,./images/NINDYHB.png,,,,,,,,,,,,,,,,,,,,,
,,,,,,,,,,,,,,,,,199369,18,2022-01-29_21h37.34.497,lexical_decision_task_DD_L2,2021.2.3,MacIntel,58.82352941,,,,,,,,,,0.714,1,,,,,,,,,,,,,,,,0,0.234444444,-0.328888889,1,0,0,0.714,button_right_main,0.234444444,-0.328888889,1,0,0,,0,130,130,50,1,MALLET,C,old,m,./images/MALLET.png,,,,,,,,,,,,,,,,,,,,,
,,,,,,,,,,,,,,,,,199369,18,2022-01-29_21h37.34.497,lexical_decision_task_DD_L2,2021.2.3,MacIntel,58.82352941,,,,,,,,,,0.865,1,,,,,,,,,,,,,,,,0,-0.273333333,-0.358888889,1,0,0,0.865,button_left_main,-0.273333333,-0.358888889,1,0,0,,0,131,131,148,1,JOMS,HB,old,z,./images/JOMSHB.png,,,,,,,,,,,,,,,,,,,,,
,,,,,,,,,,,,,,,,,199369,18,2022-01-29_21h37.34.497,lexical_decision_task_DD_L2,2021.2.3,MacIntel,58.82352941,,,,,,,,,,0.964,1,,,,,,,,,,,,,,,,0,-0.441111111,-0.315555556,1,0,0,0.964,button_left_main,-0.441111111,-0.315555556,1,0,0,,0,132,132,133,1,POWDY,HB,old,z,./images/POWDYHB.png,,,,,,,,,,,,,,,,,,,,,
,,,,,,,,,,,,,,,,,199369,18,2022-01-29_21h37.34.497,lexical_decision_task_DD_L2,2021.2.3,MacIntel,58.82352941,,,,,,,,,,0.965,0,,,,,,,,,,,,,,,,0,0.285555556,-0.331111111,1,0,0,0.965,button_right_main,0.285555556,-0.331111111,1,0,0,,0,133,133,140,1,DOVET,LB,old,z,./images/DOVETLB.png,,,,,,,,,,,,,,,,,,,,,
,,,,,,,,,,,,,,,,,199369,18,2022-01-29_21h37.34.497,lexical_decision_task_DD_L2,2021.2.3,MacIntel,58.82352941,,,,,,,,,,0.948,1,,,,,,,,,,,,,,,,0,0.308888889,-0.252222222,1,0,0,0.948,button_right_main,0.308888889,-0.252222222,1,0,0,,0,134,134,57,1,MOOSE,HB,old,m,./images/MOOSEHB.png,,,,,,,,,,,,,,,,,,,,,
,,,,,,,,,,,,,,,,,199369,18,2022-01-29_21h37.34.497,lexical_decision_task_DD_L2,2021.2.3,MacIntel,58.82352941,,,,,,,,,,0.897,1,,,,,,,,,,,,,,,,0,-0.334444444,-0.282222222,1,0,0,0.897,button_left_main,-0.334444444,-0.282222222,1,0,0,,0,135,135,119,1,PAFER,LB,old,z,./images/PAFERLB.png,,,,,,,,,,,,,,,,,,,,,
,,,,,,,,,,,,,,,,,199369,18,2022-01-29_21h37.34.497,lexical_decision_task_DD_L2,2021.2.3,MacIntel,58.82352941,,,,,,,,,,0.715,1,,,,,,,,,,,,,,,,0,0.325555556,-0.3,1,0,0,0.715,button_right_main,0.325555556,-0.3,1,0,0,,0,136,136,71,1,PIMPLE,C,old,m,./images/PIMPLE.png,,,,,,,,,,,,,,,,,,,,,
,,,,,,,,,,,,,,,,,199369,18,2022-01-29_21h37.34.497,lexical_decision_task_DD_L2,2021.2.3,MacIntel,58.82352941,,,,,,,,,,0.665,1,,,,,,,,,,,,,,,,0,0.295555556,-0.304444444,1,0,0,0.665,button_right_main,0.295555556,-0.304444444,1,0,0,,0,137,137,6,1,SQUARE,HB,old,m,./images/SQUAREHB.png,,,,,,,,,,,,,,,,,,,,,
,,,,,,,,,,,,,,,,,199369,18,2022-01-29_21h37.34.497,lexical_decision_task_DD_L2,2021.2.3,MacIntel,58.82352941,,,,,,,,,,0.981,1,,,,,,,,,,,,,,,,0,-0.3,-0.307777778,1,0,0,0.981,button_left_main,-0.3,-0.307777778,1,0,0,,0,138,138,165,1,TROWN,C,old,z,./images/TROWN.png,,,,,,,,,,,,,,,,,,,,,
,,,,,,,,,,,,,,,,,199369,18,2022-01-29_21h37.34.497,lexical_decision_task_DD_L2,2021.2.3,MacIntel,58.82352941,,,,,,,,,,1.164,1,,,,,,,,,,,,,,,,0,0.254444444,-0.294444444,1,0,0,1.164,button_right_main,0.254444444,-0.294444444,1,0,0,,0,139,139,9,1,RHINO,HB,old,m,./images/RHINOHB.png,,,,,,,,,,,,,,,,,,,,,
,,,,,,,,,,,,,,,,,199369,18,2022-01-29_21h37.34.497,lexical_decision_task_DD_L2,2021.2.3,MacIntel,58.82352941,,,,,,,,,,3.415,0,,,,,,,,,,,,,,,,0,0.315555556,-0.323333333,1,0,0,3.415,button_right_main,0.315555556,-0.323333333,1,0,0,,0,140,140,122,1,BLOOT,LB,old,z,./images/BLOOTLB.png,,,,,,,,,,,,,,,,,,,,,
,,,,,,,,,,,,,,,,,199369,18,2022-01-29_21h37.34.497,lexical_decision_task_DD_L2,2021.2.3,MacIntel,58.82352941,,,,,,,,,,3.234,0,,,,,,,,,,,,,,,,0,0.314444444,-0.323333333,1,0,0,3.234,button_right_main,0.314444444,-0.323333333,1,0,0,,0,141,141,136,1,WERVE,HB,old,z,./images/WERVEHB.png,,,,,,,,,,,,,,,,,,,,,
,,,,,,,,,,,,,,,,,199369,18,2022-01-29_21h37.34.497,lexical_decision_task_DD_L2,2021.2.3,MacIntel,58.82352941,,,,,,,,,,1.048,1,,,,,,,,,,,,,,,,0,-0.286666667,-0.292222222,1,0,0,1.048,button_left_main,-0.286666667,-0.292222222,1,0,0,,0,142,142,111,1,HOSSE,C,old,z,./images/HOSSE.png,,,,,,,,,,,,,,,,,,,,,
,,,,,,,,,,,,,,,,,199369,18,2022-01-29_21h37.34.497,lexical_decision_task_DD_L2,2021.2.3,MacIntel,58.82352941,,,,,,,,,,2.148,0,,,,,,,,,,,,,,,,0,0.283333333,-0.278888889,1,0,0,2.148,button_right_main,0.283333333,-0.278888889,1,0,0,,0,143,143,110,1,CRUNK,LB,old,z,./images/CRUNKLB.png,,,,,,,,,,,,,,,,,,,,,
,,,,,,,,,,,,,,,,,199369,18,2022-01-29_21h37.34.497,lexical_decision_task_DD_L2,2021.2.3,MacIntel,58.82352941,,,,,,,,,,1.431,1,,,,,,,,,,,,,,,,0,0.283333333,-0.278888889,1,0,0,1.431,button_right_main,0.283333333,-0.278888889,1,0,0,,0,144,144,58,1,BABOON,LB,old,m,./images/BABOONLB.png,,,,,,,,,,,,,,,,,,,,,
,,,,,,,,,,,,,,,,,199369,18,2022-01-29_21h37.34.497,lexical_decision_task_DD_L2,2021.2.3,MacIntel,58.82352941,,,,,,,,,,1.031,1,,,,,,,,,,,,,,,,0,0.283333333,-0.278888889,1,0,0,1.031,button_right_main,0.283333333,-0.278888889,1,0,0,,0,145,145,78,1,LITTER,HB,old,m,./images/LITTERHB.png,,,,,,,,,,,,,,,,,,,,,
,,,,,,,,,,,,,,,,,199369,18,2022-01-29_21h37.34.497,lexical_decision_task_DD_L2,2021.2.3,MacIntel,58.82352941,,,,,,,,,,0.848,1,,,,,,,,,,,,,,,,0,0.283333333,-0.278888889,1,0,0,0.848,button_right_main,0.283333333,-0.278888889,1,0,0,,0,146,146,46,1,PEARL,LB,old,m,./images/PEARLLB.png,,,,,,,,,,,,,,,,,,,,,
,,,,,,,,,,,,,,,,,199369,18,2022-01-29_21h37.34.497,lexical_decision_task_DD_L2,2021.2.3,MacIntel,58.82352941,,,,,,,,,,0.764,1,,,,,,,,,,,,,,,,0,0.283333333,-0.278888889,1,0,0,0.764,button_right_main,0.283333333,-0.278888889,1,0,0,,0,147,147,69,1,COOKER,HB,old,m,./images/COOKERHB.png,,,,,,,,,,,,,,,,,,,,,
,,,,,,,,,,,,,,,,,199369,18,2022-01-29_21h37.34.497,lexical_decision_task_DD_L2,2021.2.3,MacIntel,58.82352941,,,,,,,,,,1.465,1,,,,,,,,,,,,,,,,0,-0.297777778,-0.296666667,1,0,0,1.465,button_left_main,-0.297777778,-0.296666667,1,0,0,,0,148,148,85,1,CHULK,HB,old,z,./images/CHULKHB.png,,,,,,,,,,,,,,,,,,,,,
,,,,,,,,,,,,,,,,,199369,18,2022-01-29_21h37.34.497,lexical_decision_task_DD_L2,2021.2.3,MacIntel,58.82352941,,,,,,,,,,1.031,1,,,,,,,,,,,,,,,,0,0.244444444,-0.358888889,1,0,0,1.031,button_right_main,0.244444444,-0.358888889,1,0,0,,0,149,149,1,1,PLANK,LB,old,m,./images/PLANKLB.png,,,,,,,,,,,,,,,,,,,,,
,,,,,,,,,,,,,,,,,199369,18,2022-01-29_21h37.34.497,lexical_decision_task_DD_L2,2021.2.3,MacIntel,58.82352941,,,,,,,,,,1.031,1,,,,,,,,,,,,,,,,0,-0.324444444,-0.24,1,0,0,1.031,button_left_main,-0.324444444,-0.24,1,0,0,,0,150,150,118,1,BAVEL,HB,old,z,./images/BAVELHB.png,,,,,,,,,,,,,,,,,,,,,
,,,,,,,,,,,,,,,,,199369,18,2022-01-29_21h37.34.497,lexical_decision_task_DD_L2,2021.2.3,MacIntel,58.82352941,,,,,,,,,,0.848,1,,,,,,,,,,,,,,,,0,0.296666667,-0.294444444,1,0,0,0.848,button_right_main,0.296666667,-0.294444444,1,0,0,,0,151,151,7,1,PAINT,LB,old,m,./images/PAINTLB.png,,,,,,,,,,,,,,,,,,,,,
,,,,,,,,,,,,,,,,,199369,18,2022-01-29_21h37.34.497,lexical_decision_task_DD_L2,2021.2.3,MacIntel,58.82352941,,,,,,,,,,1.031,1,,,,,,,,,,,,,,,,0,-0.31,-0.254444444,1,0,0,1.031,button_left_main,-0.31,-0.254444444,1,0,0,,0,152,152,139,1,BLEAR,HB,old,z,./images/BLEARHB.png,,,,,,,,,,,,,,,,,,,,,
,,,,,,,,,,,,,,,,,199369,18,2022-01-29_21h37.34.497,lexical_decision_task_DD_L2,2021.2.3,MacIntel,58.82352941,,,,,,,,,,2.233,0,,,,,,,,,,,,,,,,0,0.27,-0.283333333,1,0,0,2.233,button_right_main,0.27,-0.283333333,1,0,0,,0,153,153,101,1,GLEET,LB,old,z,./images/GLEETLB.png,,,,,,,,,,,,,,,,,,,,,
,,,,,,,,,,,,,,,,,199369,18,2022-01-29_21h37.34.497,lexical_decision_task_DD_L2,2021.2.3,MacIntel,58.82352941,,,,,,,,,,0.898,1,,,,,,,,,,,,,,,,0,0.272222222,-0.282222222,1,0,0,0.898,button_right_main,0.272222222,-0.282222222,1,0,0,,0,154,154,83,1,JUNGLE,C,old,m,./images/JUNGLE.png,,,,,,,,,,,,,,,,,,,,,
,,,,,,,,,,,,,,,,,199369,18,2022-01-29_21h37.34.497,lexical_decision_task_DD_L2,2021.2.3,MacIntel,58.82352941,,,,,,,,,,1.348,1,,,,,,,,,,,,,,,,0,-0.246666667,-0.293333333,1,0,0,1.348,button_left_main,-0.246666667,-0.293333333,1,0,0,,0,155,155,98,1,BAMPS,LB,old,z,./images/BAMPSLB.png,,,,,,,,,,,,,,,,,,,,,
,,,,,,,,,,,,,,,,,199369,18,2022-01-29_21h37.34.497,lexical_decision_task_DD_L2,2021.2.3,MacIntel,58.82352941,,,,,,,,,,1.166,1,,,,,,,,,,,,,,,,0,-0.384444444,-0.353333333,1,0,0,1.166,button_left_main,-0.384444444,-0.353333333,1,0,0,,0,156,156,86,1,AIFED,LB,old,z,./images/AIFEDLB.png,,,,,,,,,,,,,,,,,,,,,
,,,,,,,,,,,,,,,,,199369,18,2022-01-29_21h37.34.497,lexical_decision_task_DD_L2,2021.2.3,MacIntel,58.82352941,,,,,,,,,,1.099,1,,,,,,,,,,,,,,,,0,0.21,-0.382222222,1,0,0,1.099,button_right_main,0.21,-0.382222222,1,0,0,,0,157,157,21,1,KIDNEY,HB,old,m,./images/KIDNEYHB.png,,,,,,,,,,,,,,,,,,,,,
,,,,,,,,,,,,,,,,,199369,18,2022-01-29_21h37.34.497,lexical_decision_task_DD_L2,2021.2.3,MacIntel,58.82352941,,,,,,,,,,0.964,1,,,,,,,,,,,,,,,,0,-0.332222222,-0.255555556,1,0,0,0.964,button_left_main,-0.332222222,-0.255555556,1,0,0,,0,158,158,88,1,GLUSH,HB,old,z,./images/GLUSHHB.png,,,,,,,,,,,,,,,,,,,,,
,,,,,,,,,,,,,,,,,199369,18,2022-01-29_21h37.34.497,lexical_decision_task_DD_L2,2021.2.3,MacIntel,58.82352941,,,,,,,,,,0.997,1,,,,,,,,,,,,,,,,0,0.317777778,-0.296666667,1,0,0,0.997,button_right_main,0.317777778,-0.296666667,1,0,0,,0,159,159,61,1,CANDLE,LB,old,m,./images/CANDLELB.png,,,,,,,,,,,,,,,,,,,,,
,,,,,,,,,,,,,,,,,199369,18,2022-01-29_21h37.34.497,lexical_decision_task_DD_L2,2021.2.3,MacIntel,58.82352941,,,,,,,,,,1.313,0,,,,,,,,,,,,,,,,0,0.282222222,-0.252222222,1,0,0,1.313,button_right_main,0.282222222,-0.252222222,1,0,0,,0,160,160,166,1,SHORY,HB,old,z,./images/SHORYHB.png,,,,,,,,,,,,,,,,,,,,,
,,,,,,,,,,,,,,,,,199369,18,2022-01-29_21h37.34.497,lexical_decision_task_DD_L2,2021.2.3,MacIntel,58.82352941,,,,,,,,,,0.947,1,,,,,,,,,,,,,,,,0,-0.286666667,-0.266666667,1,0,0,0.947,button_left_main,-0.286666667,-0.266666667,1,0,0,,0,161,161,131,1,NACES,LB,old,z,./images/NACESLB.png,,,,,,,,,,,,,,,,,,,,,
,,,,,,,,,,,,,,,,,199369,18,2022-01-29_21h37.34.497,lexical_decision_task_DD_L2,2021.2.3,MacIntel,58.82352941,,,,,,,,,,1.081,1,,,,,,,,,,,,,,,,0,-0.305555556,-0.263333333,1,0,0,1.081,button_left_main,-0.305555556,-0.263333333,1,0,0,,0,162,162,104,1,GITTY,LB,old,z,./images/GITTYLB.png,,,,,,,,,,,,,,,,,,,,,
,,,,,,,,,,,,,,,,,199369,18,2022-01-29_21h37.34.497,lexical_decision_task_DD_L2,2021.2.3,MacIntel,58.82352941,,,,,,,,,,0.965,1,,,,,,,,,,,,,,,,0,0.455555556,-0.326666667,1,0,0,0.965,button_right_main,0.455555556,-0.326666667,1,0,0,,0,163,163,11,1,BONNET,C,old,m,./images/BONNET.png,,,,,,,,,,,,,,,,,,,,,
,,,,,,,,,,,,,,,,,199369,18,2022-01-29_21h37.34.497,lexical_decision_task_DD_L2,2021.2.3,MacIntel,58.82352941,,,,,,,,,,0.833,1,,,,,,,,,,,,,,,,0,0.33,-0.278888889,1,0,0,0.833,button_right_main,0.33,-0.278888889,1,0,0,,0,164,164,76,1,INFANT,LB,old,m,./images/INFANTLB.png,,,,,,,,,,,,,,,,,,,,,
,,,,,,,,,,,,,,,,,199369,18,2022-01-29_21h37.34.497,lexical_decision_task_DD_L2,2021.2.3,MacIntel,58.82352941,,,,,,,,,,1.315,1,,,,,,,,,,,,,,,,0,-0.215555556,-0.323333333,1,0,0,1.315,button_left_main,-0.215555556,-0.323333333,1,0,0,,0,165,165,93,1,SMONE,C,old,z,./images/SMONE.png,,,,,,,,,,,,,,,,,,,,,
,,,,,,,,,,,,,,,,,199369,18,2022-01-29_21h37.34.497,lexical_decision_task_DD_L2,2021.2.3,MacIntel,58.82352941,,,,,,,,,,0.931,1,,,,,,,,,,,,,,,,0,-0.411111111,-0.297777778,1,0,0,0.931,button_left_main,-0.411111111,-0.297777778,1,0,0,,0,166,166,125,1,MOOKY,LB,old,z,./images/MOOKYLB.png,,,,,,,,,,,,,,,,,,,,,
,,,,,,,,,,,,,,,,,199369,18,2022-01-29_21h37.34.497,lexical_decision_task_DD_L2,2021.2.3,MacIntel,58.82352941,,,,,,,,,,0.931,1,,,,,,,,,,,,,,,,0,0.401111111,-0.414444444,1,0,0,0.931,button_right_main,0.38,-0.383333333,1,0,0,,0,167,167,36,1,THROAT,HB,old,m,./images/THROATHB.png,,,,,,,,,,,,,,,,,,,,,
,,0.064444444,-0.422222222,1,0,0,,,,,,1,test,"In the next phase you will be presented with the words from the the first phase. Your job is to decide whether you remember seeing the word or not. If you remember seeing the word press ""old"" or type ""m"". If you do not remember seeing the word press ""new"" or type ""z"". Please press the space bar or click on continue to begin. ",,,199369,18,2022-01-29_21h37.34.497,lexical_decision_task_DD_L2,2021.2.3,MacIntel,58.82352941,,,,,,,,,,,,,,,,,,,,instr_done_button,,,,,,,,,,,,,,,,,,,,,,,,,,,,,,,,0,0,0,0,1,,,,,,,,,,,,,,,
space,0.727,0.064444444,-0.422222222,0,0,0,,,,,,1,test,"In the next phase you will be presented with the words from the the first phase. Your job is to decide whether you remember seeing the word or not. If you remember seeing the word press ""old"" or type ""m"". If you do not remember seeing the word press ""new"" or type ""z"". Please press the space bar or click on continue to begin. ",,,199369,18,2022-01-29_21h37.34.497,lexical_decision_task_DD_L2,2021.2.3,MacIntel,58.82352941,,,,,,,,,,,,,,,,,,,,,,,,,,,,,,,,,,,,,,,,,,,,,,,,,,,,1,0,1,0,1,,,,,,,,,,,,,,,
space,30.428,0.074444444,-0.014444444,0,0,0,,,,,,1,test,"In the next phase you will be presented with the words from the the first phase. Your job is to decide whether you remember seeing the word or not. If you remember seeing the word press ""old"" or type ""m"". If you do not remember seeing the word press ""new"" or type ""z"". Please press the space bar or click on continue to begin. ",,,199369,18,2022-01-29_21h37.34.497,lexical_decision_task_DD_L2,2021.2.3,MacIntel,58.82352941,,,,,,,,,,,,,,,,,,,,,,,,,,,,,,,,,,,,,,,,,,,,,,,,,,,,2,0,2,0,1,,,,,,,,,,,,,,,
space,2.201,0.074444444,-0.014444444,0,0,0,,,,,,1,test,"In the next phase you will be presented with the words from the the first phase. Your job is to decide whether you remember seeing the word or not. If you remember seeing the word press ""old"" or type ""m"". If you do not remember seeing the word press ""new"" or type ""z"". Please press the space bar or click on continue to begin. ",,,199369,18,2022-01-29_21h37.34.497,lexical_decision_task_DD_L2,2021.2.3,MacIntel,58.82352941,,,,,,,,,,,,,,,,,,,,,,,,,,,,,,,,,,,,,,,,,,,,,,,,,,,,3,0,3,0,1,,,,,,,,,,,,,,,
space,0.184,0.074444444,-0.014444444,0,0,0,,,,,,1,test,"In the next phase you will be presented with the words from the the first phase. Your job is to decide whether you remember seeing the word or not. If you remember seeing the word press ""old"" or type ""m"". If you do not remember seeing the word press ""new"" or type ""z"". Please press the space bar or click on continue to begin. ",,,199369,18,2022-01-29_21h37.34.497,lexical_decision_task_DD_L2,2021.2.3,MacIntel,58.82352941,,,,,,,,,,,,,,,,,,,,,,,,,,,,,,,,,,,,,,,,,,,,,,,,,,,,4,0,4,0,1,,,,,,,,,,,,,,,
,,,,,,,,,,,,,,,,,199369,18,2022-01-29_21h37.34.497,lexical_decision_task_DD_L2,2021.2.3,MacIntel,58.82352941,,,,,,,,,,2.762,1,,,,,,,,,,,,,,,,,,,,,,,,-0.354444444,-0.351111111,1,0,0,,,,,,,CANOE,LB,z,y,./images/CANOELB.png,,,,,,,,0,-0.354444444,-0.351111111,1,0,0,2.762,button_left_test,0,0,0,142,1,
,,,,,,,,,,,,,,,,,199369,18,2022-01-29_21h37.34.497,lexical_decision_task_DD_L2,2021.2.3,MacIntel,58.82352941,,,,,,,,,,5.564,0,,,,,,,,,,,,,,,,,,,,,,,,-0.354444444,-0.346666667,1,0,0,,,,,,,PIMPLE,C,m,y,./images/PIMPLE.png,,,,,,,,0,-0.354444444,-0.346666667,1,0,0,5.564,button_left_test,0,1,1,71,1,
,,,,,,,,,,,,,,,,,199369,18,2022-01-29_21h37.34.497,lexical_decision_task_DD_L2,2021.2.3,MacIntel,58.82352941,,,,,,,,,,1.313,1,,,,,,,,,,,,,,,,,,,,,,,,-0.34,-0.321111111,1,0,0,,,,,,,ALLEY,LB,z,y,./images/ALLEYLB.png,,,,,,,,0,-0.34,-0.321111111,1,0,0,1.313,button_left_test,0,2,2,139,1,
,,,,,,,,,,,,,,,,,199369,18,2022-01-29_21h37.34.497,lexical_decision_task_DD_L2,2021.2.3,MacIntel,58.82352941,,,,,,,,,,0.596,1,,,,,,,,,,,,,,,,,,,,,,,,-0.34,-0.321111111,1,0,0,,,,,,,SAUCE,HB,z,y,./images/SAUCEHB.png,,,,,,,,0,-0.34,-0.321111111,1,0,0,0.596,button_left_test,0,3,3,135,1,
,,,,,,,,,,,,,,,,,199369,18,2022-01-29_21h37.34.497,lexical_decision_task_DD_L2,2021.2.3,MacIntel,58.82352941,,,,,,,,,,0.531,1,,,,,,,,,,,,,,,,,,,,,,,,-0.34,-0.321111111,1,0,0,,,,,,,SNAKE,LB,z,y,./images/SNAKELB.png,,,,,,,,0,-0.34,-0.321111111,1,0,0,0.531,button_left_test,0,4,4,124,1,
,,,,,,,,,,,,,,,,,199369,18,2022-01-29_21h37.34.497,lexical_decision_task_DD_L2,2021.2.3,MacIntel,58.82352941,,,,,,,,,,0.813,0,,,,,,,,,,,,,,,,,,,,,,,,-0.34,-0.321111111,1,0,0,,,,,,,FARMER,C,m,y,./images/FARMER.png,,,,,,,,0,-0.34,-0.321111111,1,0,0,0.813,button_left_test,0,5,5,65,1,
,,,,,,,,,,,,,,,,,199369,18,2022-01-29_21h37.34.497,lexical_decision_task_DD_L2,2021.2.3,MacIntel,58.82352941,,,,,,,,,,0.681,1,,,,,,,,,,,,,,,,,,,,,,,,-0.34,-0.321111111,1,0,0,,,,,,,PARADE,C,z,y,./images/PARADE.png,,,,,,,,0,-0.34,-0.321111111,1,0,0,0.681,button_left_test,0,6,6,101,1,
,,,,,,,,,,,,,,,,,199369,18,2022-01-29_21h37.34.497,lexical_decision_task_DD_L2,2021.2.3,MacIntel,58.82352941,,,,,,,,,,1.113,0,,,,,,,,,,,,,,,,,,,,,,,,0.371111111,-0.308888889,1,0,0,,,,,,,BROOM,HB,z,y,./images/BROOMHB.png,,,,,,,,0,0.371111111,-0.308888889,1,0,0,1.113,button_right_test,0,7,7,162,1,
,,,,,,,,,,,,,,,,,199369,18,2022-01-29_21h37.34.497,lexical_decision_task_DD_L2,2021.2.3,MacIntel,58.82352941,,,,,,,,,,0.916,0,,,,,,,,,,,,,,,,,,,,,,,,0.228888889,-0.262222222,1,0,0,,,,,,,WHEEL,C,z,y,./images/WHEEL.png,,,,,,,,0,0.187777778,-0.257777778,1,0,0,0.916,button_right_test,0,8,8,161,1,
,,,,,,,,,,,,,,,,,199369,18,2022-01-29_21h37.34.497,lexical_decision_task_DD_L2,2021.2.3,MacIntel,58.82352941,,,,,,,,,,0.764,0,,,,,,,,,,,,,,,,,,,,,,,,-0.36,-0.246666667,1,0,0,,,,,,,SMOKER,C,m,y,./images/SMOKER.png,,,,,,,,0,-0.36,-0.246666667,1,0,0,0.764,button_left_test,0,9,9,26,1,
,,,,,,,,,,,,,,,,,199369,18,2022-01-29_21h37.34.497,lexical_decision_task_DD_L2,2021.2.3,MacIntel,58.82352941,,,,,,,,,,1.131,0,,,,,,,,,,,,,,,,,,,,,,,,0.448888889,-0.352222222,1,0,0,,,,,,,STOOL,LB,z,y,./images/STOOLLB.png,,,,,,,,0,0.448888889,-0.352222222,1,0,0,1.131,button_right_test,0,10,10,127,1,
,,,,,,,,,,,,,,,,,199369,18,2022-01-29_21h37.34.497,lexical_decision_task_DD_L2,2021.2.3,MacIntel,58.82352941,,,,,,,,,,1.863,0,,,,,,,,,,,,,,,,,,,,,,,,-0.393333333,-0.342222222,1,0,0,,,,,,,PASTA,C,m,y,./images/PASTA.png,,,,,,,,0,-0.393333333,-0.342222222,1,0,0,1.863,button_left_test,0,11,11,5,1,
,,,,,,,,,,,,,,,,,199369,18,2022-01-29_21h37.34.497,lexical_decision_task_DD_L2,2021.2.3,MacIntel,58.82352941,,,,,,,,,,1.681,0,,,,,,,,,,,,,,,,,,,,,,,,0.373333333,-0.315555556,1,0,0,,,,,,,COLLAR,HB,z,y,./images/COLLARHB.png,,,,,,,,0,0.373333333,-0.315555556,1,0,0,1.681,button_right_test,0,12,12,99,1,
,,,,,,,,,,,,,,,,,199369,18,2022-01-29_21h37.34.497,lexical_decision_task_DD_L2,2021.2.3,MacIntel,58.82352941,,,,,,,,,,3.58,0,,,,,,,,,,,,,,,,,,,,,,,,-0.401111111,-0.373333333,1,0,0,,,,,,,TOMATO,HB,m,y,./images/TOMATOHB.png,,,,,,,,0,-0.401111111,-0.373333333,1,0,0,3.58,button_left_test,0,13,13,0,1,
,,,,,,,,,,,,,,,,,199369,18,2022-01-29_21h37.34.497,lexical_decision_task_DD_L2,2021.2.3,MacIntel,58.82352941,,,,,,,,,,0.897,0,,,,,,,,,,,,,,,,,,,,,,,,-0.273333333,-0.315555556,1,0,0,,,,,,,COUCH,C,m,y,./images/COUCH.png,,,,,,,,0,-0.273333333,-0.315555556,1,0,0,0.897,button_left_test,0,14,14,77,1,
,,,,,,,,,,,,,,,,,199369,18,2022-01-29_21h37.34.497,lexical_decision_task_DD_L2,2021.2.3,MacIntel,58.82352941,,,,,,,,,,0.813,1,,,,,,,,,,,,,,,,,,,,,,,,-0.265555556,-0.31,1,0,0,,,,,,,WALNUT,HB,z,y,./images/WALNUTHB.png,,,,,,,,0,-0.265555556,-0.31,1,0,0,0.813,button_left_test,0,15,15,84,1,
,,,,,,,,,,,,,,,,,199369,18,2022-01-29_21h37.34.497,lexical_decision_task_DD_L2,2021.2.3,MacIntel,58.82352941,,,,,,,,,,1.03,0,,,,,,,,,,,,,,,,,,,,,,,,-0.263333333,-0.304444444,1,0,0,,,,,,,SNACK,LB,m,y,./images/SNACKLB.png,,,,,,,,0,-0.263333333,-0.304444444,1,0,0,1.03,button_left_test,0,16,16,73,1,
,,,,,,,,,,,,,,,,,199369,18,2022-01-29_21h37.34.497,lexical_decision_task_DD_L2,2021.2.3,MacIntel,58.82352941,,,,,,,,,,0.98,0,,,,,,,,,,,,,,,,,,,,,,,,0.353333333,-0.273333333,1,0,0,,,,,,,STREAM,C,z,y,./images/STREAM.png,,,,,,,,0,0.353333333,-0.273333333,1,0,0,0.98,button_right_test,0,17,17,125,1,
,,,,,,,,,,,,,,,,,199369,18,2022-01-29_21h37.34.497,lexical_decision_task_DD_L2,2021.2.3,MacIntel,58.82352941,,,,,,,,,,0.981,0,,,,,,,,,,,,,,,,,,,,,,,,0.355555556,-0.23,1,0,0,,,,,,,ENGINE,C,z,y,./images/ENGINE.png,,,,,,,,0,0.355555556,-0.23,1,0,0,0.981,button_right_test,0,18,18,122,1,
,,,,,,,,,,,,,,,,,199369,18,2022-01-29_21h37.34.497,lexical_decision_task_DD_L2,2021.2.3,MacIntel,58.82352941,,,,,,,,,,1.563,1,,,,,,,,,,,,,,,,,,,,,,,,0.362222222,-0.257777778,1,0,0,,,,,,,MALLET,C,m,y,./images/MALLET.png,,,,,,,,0,0.362222222,-0.257777778,1,0,0,1.563,button_right_test,0,19,19,50,1,
,,,,,,,,,,,,,,,,,199369,18,2022-01-29_21h37.34.497,lexical_decision_task_DD_L2,2021.2.3,MacIntel,58.82352941,,,,,,,,,,1.031,1,,,,,,,,,,,,,,,,,,,,,,,,0.364444444,-0.285555556,1,0,0,,,,,,,PURSE,C,m,y,./images/PURSE.png,,,,,,,,0,0.364444444,-0.285555556,1,0,0,1.031,button_right_test,0,20,20,62,1,
,,,,,,,,,,,,,,,,,199369,18,2022-01-29_21h37.34.497,lexical_decision_task_DD_L2,2021.2.3,MacIntel,58.82352941,,,,,,,,,,0.83,1,,,,,,,,,,,,,,,,,,,,,,,,0.364444444,-0.285555556,1,0,0,,,,,,,WRIST,LB,m,y,./images/WRISTLB.png,,,,,,,,0,0.364444444,-0.285555556,1,0,0,0.83,button_right_test,0,21,21,25,1,
,,,,,,,,,,,,,,,,,199369,18,2022-01-29_21h37.34.497,lexical_decision_task_DD_L2,2021.2.3,MacIntel,58.82352941,,,,,,,,,,1.33,0,,,,,,,,,,,,,,,,,,,,,,,,0.405555556,-0.297777778,1,0,0,,,,,,,SAUNA,HB,z,y,./images/SAUNAHB.png,,,,,,,,0,0.405555556,-0.297777778,1,0,0,1.33,button_right_test,0,22,22,117,1,
,,,,,,,,,,,,,,,,,199369,18,2022-01-29_21h37.34.497,lexical_decision_task_DD_L2,2021.2.3,MacIntel,58.82352941,,,,,,,,,,0.647,1,,,,,,,,,,,,,,,,,,,,,,,,0.404444444,-0.297777778,1,0,0,,,,,,,DRUMS,LB,m,y,./images/DRUMSLB.png,,,,,,,,0,0.404444444,-0.297777778,1,0,0,0.647,button_right_test,0,23,23,49,1,
,,,,,,,,,,,,,,,,,199369,18,2022-01-29_21h37.34.497,lexical_decision_task_DD_L2,2021.2.3,MacIntel,58.82352941,,,,,,,,,,1.03,0,,,,,,,,,,,,,,,,,,,,,,,,0.302222222,-0.267777778,1,0,0,,,,,,,DIVER,HB,z,y,./images/DIVERHB.png,,,,,,,,0,0.302222222,-0.267777778,1,0,0,1.03,button_right_test,0,24,24,93,1,
,,,,,,,,,,,,,,,,,199369,18,2022-01-29_21h37.34.497,lexical_decision_task_DD_L2,2021.2.3,MacIntel,58.82352941,,,,,,,,,,1.331,1,,,,,,,,,,,,,,,,,,,,,,,,-0.311111111,-0.25,1,0,0,,,,,,,DANCER,HB,z,y,./images/DANCERHB.png,,,,,,,,0,-0.302222222,-0.132222222,1,0,0,1.331,button_left_test,0,25,25,105,1,
,,,,,,,,,,,,,,,,,199369,18,2022-01-29_21h37.34.497,lexical_decision_task_DD_L2,2021.2.3,MacIntel,58.82352941,,,,,,,,,,0.865,0,,,,,,,,,,,,,,,,,,,,,,,,-0.302222222,-0.306666667,1,0,0,,,,,,,MIRROR,HB,m,y,./images/MIRRORHB.png,,,,,,,,0,-0.302222222,-0.306666667,1,0,0,0.865,button_left_test,0,26,26,63,1,
,,,,,,,,,,,,,,,,,199369,18,2022-01-29_21h37.34.497,lexical_decision_task_DD_L2,2021.2.3,MacIntel,58.82352941,,,,,,,,,,0.831,1,,,,,,,,,,,,,,,,,,,,,,,,-0.296666667,-0.305555556,1,0,0,,,,,,,POSTER,C,z,y,./images/POSTER.png,,,,,,,,0,-0.296666667,-0.305555556,1,0,0,0.831,button_left_test,0,27,27,137,1,
,,,,,,,,,,,,,,,,,199369,18,2022-01-29_21h37.34.497,lexical_decision_task_DD_L2,2021.2.3,MacIntel,58.82352941,,,,,,,,,,0.881,1,,,,,,,,,,,,,,,,,,,,,,,,-0.297777778,-0.305555556,1,0,0,,,,,,,CASINO,LB,z,y,./images/CASINOLB.png,,,,,,,,0,-0.297777778,-0.305555556,1,0,0,0.881,button_left_test,0,28,28,112,1,
,,,,,,,,,,,,,,,,,199369,18,2022-01-29_21h37.34.497,lexical_decision_task_DD_L2,2021.2.3,MacIntel,58.82352941,,,,,,,,,,0.664,1,,,,,,,,,,,,,,,,,,,,,,,,-0.297777778,-0.305555556,1,0,0,,,,,,,GARDEN,LB,z,y,./images/GARDENLB.png,,,,,,,,0,-0.297777778,-0.305555556,1,0,0,0.664,button_left_test,0,29,29,94,1,
,,,,,,,,,,,,,,,,,199369,18,2022-01-29_21h37.34.497,lexical_decision_task_DD_L2,2021.2.3,MacIntel,58.82352941,,,,,,,,,,1.08,0,,,,,,,,,,,,,,,,,,,,,,,,0.221111111,-0.365555556,1,0,0,,,,,,,MUMMY,LB,z,y,./images/MUMMYLB.png,,,,,,,,0,0.221111111,-0.365555556,1,0,0,1.08,button_right_test,0,30,30,130,1,
,,,,,,,,,,,,,,,,,199369,18,2022-01-29_21h37.34.497,lexical_decision_task_DD_L2,2021.2.3,MacIntel,58.82352941,,,,,,,,,,1.596,1,,,,,,,,,,,,,,,,,,,,,,,,0.342222222,-0.25,1,0,0,,,,,,,DOUGH,LB,m,y,./images/DOUGHLB.png,,,,,,,,0,0.342222222,-0.25,1,0,0,1.596,button_right_test,0,31,31,19,1,
,,,,,,,,,,,,,,,,,199369,18,2022-01-29_21h37.34.497,lexical_decision_task_DD_L2,2021.2.3,MacIntel,58.82352941,,,,,,,,,,1.496,0,,,,,,,,,,,,,,,,,,,,,,,,0.307777778,-0.281111111,1,0,0,,,,,,,ARTIST,LB,z,y,./images/ARTISTLB.png,,,,,,,,0,0.307777778,-0.281111111,1,0,0,1.496,button_right_test,0,32,32,145,1,
,,,,,,,,,,,,,,,,,199369,18,2022-01-29_21h37.34.497,lexical_decision_task_DD_L2,2021.2.3,MacIntel,58.82352941,,,,,,,,,,1.281,1,,,,,,,,,,,,,,,,,,,,,,,,0.307777778,-0.281111111,1,0,0,,,,,,,TRIPOD,HB,m,y,./images/TRIPODHB.png,,,,,,,,0,0.307777778,-0.281111111,1,0,0,1.281,button_right_test,0,33,33,54,1,
,,,,,,,,,,,,,,,,,199369,18,2022-01-29_21h37.34.497,lexical_decision_task_DD_L2,2021.2.3,MacIntel,58.82352941,,,,,,,,,,1.947,0,,,,,,,,,,,,,,,,,,,,,,,,0.307777778,-0.281111111,1,0,0,,,,,,,BUNNY,LB,z,y,./images/BUNNYLB.png,,,,,,,,0,0.307777778,-0.281111111,1,0,0,1.947,button_right_test,0,34,34,97,1,
,,,,,,,,,,,,,,,,,199369,18,2022-01-29_21h37.34.497,lexical_decision_task_DD_L2,2021.2.3,MacIntel,58.82352941,,,,,,,,,,1.513,1,,,,,,,,,,,,,,,,,,,,,,,,-0.352222222,-0.343333333,1,0,0,,,,,,,STEAK,LB,z,y,./images/STEAKLB.png,,,,,,,,0,-0.352222222,-0.343333333,1,0,0,1.513,button_left_test,0,35,35,115,1,
,,,,,,,,,,,,,,,,,199369,18,2022-01-29_21h37.34.497,lexical_decision_task_DD_L2,2021.2.3,MacIntel,58.82352941,,,,,,,,,,1.263,0,,,,,,,,,,,,,,,,,,,,,,,,0.297777778,-0.311111111,1,0,0,,,,,,,CHAIN,HB,z,y,./images/CHAINHB.png,,,,,,,,0,0.297777778,-0.311111111,1,0,0,1.263,button_right_test,0,36,36,126,1,
,,,,,,,,,,,,,,,,,199369,18,2022-01-29_21h37.34.497,lexical_decision_task_DD_L2,2021.2.3,MacIntel,58.82352941,,,,,,,,,,1.113,1,,,,,,,,,,,,,,,,,,,,,,,,-0.26,-0.264444444,1,0,0,,,,,,,BAMBOO,C,z,y,./images/BAMBOO.png,,,,,,,,0,-0.26,-0.264444444,1,0,0,1.113,button_left_test,0,37,37,89,1,
,,,,,,,,,,,,,,,,,199369,18,2022-01-29_21h37.34.497,lexical_decision_task_DD_L2,2021.2.3,MacIntel,58.82352941,,,,,,,,,,0.946,0,,,,,,,,,,,,,,,,,,,,,,,,-0.356666667,-0.293333333,1,0,0,,,,,,,FALCON,LB,m,y,./images/FALCONLB.png,,,,,,,,0,-0.356666667,-0.293333333,1,0,0,0.946,button_left_test,0,38,38,28,1,
,,,,,,,,,,,,,,,,,199369,18,2022-01-29_21h37.34.497,lexical_decision_task_DD_L2,2021.2.3,MacIntel,58.82352941,,,,,,,,,,0.831,0,,,,,,,,,,,,,,,,,,,,,,,,-0.356666667,-0.293333333,1,0,0,,,,,,,BURIAL,C,m,y,./images/BURIAL.png,,,,,,,,0,-0.356666667,-0.293333333,1,0,0,0.831,button_left_test,0,39,39,59,1,
,,,,,,,,,,,,,,,,,199369,18,2022-01-29_21h37.34.497,lexical_decision_task_DD_L2,2021.2.3,MacIntel,58.82352941,,,,,,,,,,1.346,0,,,,,,,,,,,,,,,,,,,,,,,,0.27,-0.325555556,1,0,0,,,,,,,PILOT,C,z,y,./images/PILOT.png,,,,,,,,0,0.27,-0.325555556,1,0,0,1.346,button_right_test,0,40,40,134,1,
,,,,,,,,,,,,,,,,,199369,18,2022-01-29_21h37.34.497,lexical_decision_task_DD_L2,2021.2.3,MacIntel,58.82352941,,,,,,,,,,1.165,0,,,,,,,,,,,,,,,,,,,,,,,,0.195555556,-0.307777778,0,0,0,space,,,,,,MIDGET,LB,z,y,./images/MIDGETLB.png,0.997,,,,,,,0,0.271111111,-0.312222222,1,0,0,1.165,button_right_test,0,41,41,160,1,
,,,,,,,,,,,,,,,,,199369,18,2022-01-29_21h37.34.497,lexical_decision_task_DD_L2,2021.2.3,MacIntel,58.82352941,,,,,,,,,,1.981,1,,,,,,,,,,,,,,,,,,,,,,,,-0.273333333,-0.251111111,1,0,0,,,,,,,TOWEL,LB,z,y,./images/TOWELLB.png,,,,,,,,0,-0.273333333,-0.251111111,1,0,0,1.981,button_left_test,0,42,42,85,1,
,,,,,,,,,,,,,,,,,199369,18,2022-01-29_21h37.34.497,lexical_decision_task_DD_L2,2021.2.3,MacIntel,58.82352941,,,,,,,,,,0.648,1,,,,,,,,,,,,,,,,,,,,,,,,-0.273333333,-0.251111111,1,0,0,,,,,,,SLOPE,HB,z,y,./images/SLOPEHB.png,,,,,,,,0,-0.273333333,-0.251111111,1,0,0,0.648,button_left_test,0,43,43,114,1,
,,,,,,,,,,,,,,,,,199369,18,2022-01-29_21h37.34.497,lexical_decision_task_DD_L2,2021.2.3,MacIntel,58.82352941,,,,,,,,,,0.947,0,,,,,,,,,,,,,,,,,,,,,,,,-0.273333333,-0.251111111,1,0,0,,,,,,,TULIP,C,m,y,./images/TULIP.png,,,,,,,,0,-0.273333333,-0.251111111,1,0,0,0.947,button_left_test,0,44,44,8,1,
,,,,,,,,,,,,,,,,,199369,18,2022-01-29_21h37.34.497,lexical_decision_task_DD_L2,2021.2.3,MacIntel,58.82352941,,,,,,,,,,0.814,1,,,,,,,,,,,,,,,,,,,,,,,,0.332222222,-0.281111111,1,0,0,,,,,,,SHORE,HB,m,y,./images/SHOREHB.png,,,,,,,,0,0.332222222,-0.281111111,1,0,0,0.814,button_right_test,0,45,45,12,1,
,,,,,,,,,,,,,,,,,199369,18,2022-01-29_21h37.34.497,lexical_decision_task_DD_L2,2021.2.3,MacIntel,58.82352941,,,,,,,,,,0.848,1,,,,,,,,,,,,,,,,,,,,,,,,-0.343333333,-0.283333333,1,0,0,,,,,,,BOILER,HB,z,y,./images/BOILERHB.png,,,,,,,,0,-0.343333333,-0.283333333,1,0,0,0.848,button_left_test,0,46,46,120,1,
,,,,,,,,,,,,,,,,,199369,18,2022-01-29_21h37.34.497,lexical_decision_task_DD_L2,2021.2.3,MacIntel,58.82352941,,,,,,,,,,1.096,0,,,,,,,,,,,,,,,,,,,,,,,,0.237777778,-0.381111111,1,0,0,,,,,,,JUMPER,C,z,y,./images/JUMPER.png,,,,,,,,0,0.237777778,-0.381111111,1,0,0,1.096,button_right_test,0,47,47,158,1,
,,,,,,,,,,,,,,,,,199369,18,2022-01-29_21h37.34.497,lexical_decision_task_DD_L2,2021.2.3,MacIntel,58.82352941,,,,,,,,,,0.846,1,,,,,,,,,,,,,,,,,,,,,,,,-0.306666667,-0.311111111,1,0,0,,,,,,,BANANA,LB,z,y,./images/BANANALB.png,,,,,,,,0,-0.306666667,-0.311111111,1,0,0,0.846,button_left_test,0,48,48,154,1,
,,,,,,,,,,,,,,,,,199369,18,2022-01-29_21h37.34.497,lexical_decision_task_DD_L2,2021.2.3,MacIntel,58.82352941,,,,,,,,,,3.779,1,,,,,,,,,,,,,,,,,,,,,,,,0.266666667,-0.307777778,1,0,0,,,,,,,BERRY,C,m,y,./images/BERRY.png,,,,,,,,0,0.266666667,-0.307777778,1,0,0,3.779,button_right_test,0,49,49,47,1,
,,,,,,,,,,,,,,,,,199369,18,2022-01-29_21h37.34.497,lexical_decision_task_DD_L2,2021.2.3,MacIntel,58.82352941,,,,,,,,,,1.114,1,,,,,,,,,,,,,,,,,,,,,,,,-0.293333333,-0.224444444,1,0,0,,,,,,,HEATER,C,z,y,./images/HEATER.png,,,,,,,,0,-0.293333333,-0.224444444,1,0,0,1.114,button_left_test,0,50,50,140,1,
,,,,,,,,,,,,,,,,,199369,18,2022-01-29_21h37.34.497,lexical_decision_task_DD_L2,2021.2.3,MacIntel,58.82352941,,,,,,,,,,1.231,0,,,,,,,,,,,,,,,,,,,,,,,,0.332222222,-0.34,1,0,0,,,,,,,BLOKE,HB,z,y,./images/BLOKEHB.png,,,,,,,,0,0.332222222,-0.34,1,0,0,1.231,button_right_test,0,51,51,96,1,
,,,,,,,,,,,,,,,,,199369,18,2022-01-29_21h37.34.497,lexical_decision_task_DD_L2,2021.2.3,MacIntel,58.82352941,,,,,,,,,,0.764,0,,,,,,,,,,,,,,,,,,,,,,,,-0.302222222,-0.255555556,1,0,0,,,,,,,STRING,C,m,y,./images/STRING.png,,,,,,,,0,-0.302222222,-0.255555556,1,0,0,0.764,button_left_test,0,52,52,41,1,
,,,,,,,,,,,,,,,,,199369,18,2022-01-29_21h37.34.497,lexical_decision_task_DD_L2,2021.2.3,MacIntel,58.82352941,,,,,,,,,,0.747,0,,,,,,,,,,,,,,,,,,,,,,,,0.266666667,-0.322222222,1,0,0,,,,,,,POKER,LB,z,y,./images/POKERLB.png,,,,,,,,0,0.266666667,-0.322222222,1,0,0,0.747,button_right_test,0,53,53,151,1,
,,,,,,,,,,,,,,,,,199369,18,2022-01-29_21h37.34.497,lexical_decision_task_DD_L2,2021.2.3,MacIntel,58.82352941,,,,,,,,,,1.83,1,,,,,,,,,,,,,,,,,,,,,,,,0.565555556,-0.223333333,1,0,0,,,,,,,WALRUS,C,m,y,./images/WALRUS.png,,,,,,,,0,0.565555556,-0.223333333,1,0,0,1.83,button_right_test,0,54,54,23,1,
,,,,,,,,,,,,,,,,,199369,18,2022-01-29_21h37.34.497,lexical_decision_task_DD_L2,2021.2.3,MacIntel,58.82352941,,,,,,,,,,1.063,1,,,,,,,,,,,,,,,,,,,,,,,,0.35,-0.316666667,1,0,0,,,,,,,CANDLE,LB,m,y,./images/CANDLELB.png,,,,,,,,0,0.35,-0.316666667,1,0,0,1.063,button_right_test,0,55,55,61,1,
,,,,,,,,,,,,,,,,,199369,18,2022-01-29_21h37.34.497,lexical_decision_task_DD_L2,2021.2.3,MacIntel,58.82352941,,,,,,,,,,0.797,1,,,,,,,,,,,,,,,,,,,,,,,,0.322222222,-0.266666667,1,0,0,,,,,,,SKIING,C,m,y,./images/SKIING.png,,,,,,,,0,0.322222222,-0.266666667,1,0,0,0.797,button_right_test,0,56,56,17,1,
,,,,,,,,,,,,,,,,,199369,18,2022-01-29_21h37.34.497,lexical_decision_task_DD_L2,2021.2.3,MacIntel,58.82352941,,,,,,,,,,0.88,0,,,,,,,,,,,,,,,,,,,,,,,,0.297777778,-0.323333333,1,0,0,,,,,,,FLESH,HB,z,y,./images/FLESHHB.png,,,,,,,,0,0.297777778,-0.323333333,1,0,0,0.88,button_right_test,0,57,57,108,1,
,,,,,,,,,,,,,,,,,199369,18,2022-01-29_21h37.34.497,lexical_decision_task_DD_L2,2021.2.3,MacIntel,58.82352941,,,,,,,,,,0.714,0,,,,,,,,,,,,,,,,,,,,,,,,0.296666667,-0.324444444,1,0,0,,,,,,,TIGER,LB,z,y,./images/TIGERLB.png,,,,,,,,0,0.296666667,-0.324444444,1,0,0,0.714,button_right_test,0,58,58,121,1,
,,,,,,,,,,,,,,,,,199369,18,2022-01-29_21h37.34.497,lexical_decision_task_DD_L2,2021.2.3,MacIntel,58.82352941,,,,,,,,,,0.713,0,,,,,,,,,,,,,,,,,,,,,,,,0.296666667,-0.324444444,1,0,0,,,,,,,MAMMAL,C,z,y,./images/MAMMAL.png,,,,,,,,0,0.296666667,-0.324444444,1,0,0,0.713,button_right_test,0,59,59,146,1,
,,,,,,,,,,,,,,,,,199369,18,2022-01-29_21h37.34.497,lexical_decision_task_DD_L2,2021.2.3,MacIntel,58.82352941,,,,,,,,,,1.164,0,,,,,,,,,,,,,,,,,,,,,,,,0.295555556,-0.322222222,1,0,0,,,,,,,CURRY,HB,z,y,./images/CURRYHB.png,,,,,,,,0,0.295555556,-0.322222222,1,0,0,1.164,button_right_test,0,60,60,144,1,
,,,,,,,,,,,,,,,,,199369,18,2022-01-29_21h37.34.497,lexical_decision_task_DD_L2,2021.2.3,MacIntel,58.82352941,,,,,,,,,,0.749,1,,,,,,,,,,,,,,,,,,,,,,,,0.261111111,-0.301111111,1,0,0,,,,,,,CRUMB,C,m,y,./images/CRUMB.png,,,,,,,,0,0.261111111,-0.301111111,1,0,0,0.749,button_right_test,0,61,61,29,1,
,,,,,,,,,,,,,,,,,199369,18,2022-01-29_21h37.34.497,lexical_decision_task_DD_L2,2021.2.3,MacIntel,58.82352941,,,,,,,,,,0.864,1,,,,,,,,,,,,,,,,,,,,,,,,-0.353333333,-0.252222222,1,0,0,,,,,,,BRUSH,C,z,y,./images/BRUSH.png,,,,,,,,0,-0.353333333,-0.252222222,1,0,0,0.864,button_left_test,0,62,62,143,1,
,,,,,,,,,,,,,,,,,199369,18,2022-01-29_21h37.34.497,lexical_decision_task_DD_L2,2021.2.3,MacIntel,58.82352941,,,,,,,,,,0.847,0,,,,,,,,,,,,,,,,,,,,,,,,-0.354444444,-0.251111111,1,0,0,,,,,,,PACKET,C,m,y,./images/PACKET.png,,,,,,,,0,-0.354444444,-0.251111111,1,0,0,0.847,button_left_test,0,63,63,56,1,
,,,,,,,,,,,,,,,,,199369,18,2022-01-29_21h37.34.497,lexical_decision_task_DD_L2,2021.2.3,MacIntel,58.82352941,,,,,,,,,,0.732,0,,,,,,,,,,,,,,,,,,,,,,,,0.243333333,-0.334444444,1,0,0,,,,,,,CLIFF,C,z,y,./images/CLIFF.png,,,,,,,,0,0.243333333,-0.334444444,1,0,0,0.732,button_right_test,0,64,64,92,1,
,,,,,,,,,,,,,,,,,199369,18,2022-01-29_21h37.34.497,lexical_decision_task_DD_L2,2021.2.3,MacIntel,58.82352941,,,,,,,,,,1.531,1,,,,,,,,,,,,,,,,,,,,,,,,-0.302222222,-0.338888889,1,0,0,,,,,,,FERRY,HB,z,y,./images/FERRYHB.png,,,,,,,,0,-0.302222222,-0.338888889,1,0,0,1.531,button_left_test,0,65,65,141,1,
,,,,,,,,,,,,,,,,,199369,18,2022-01-29_21h37.34.497,lexical_decision_task_DD_L2,2021.2.3,MacIntel,58.82352941,,,,,,,,,,1.364,0,,,,,,,,,,,,,,,,,,,,,,,,-0.525555556,-0.317777778,1,0,0,,,,,,,PEACH,C,m,y,./images/PEACH.png,,,,,,,,0,-0.525555556,-0.317777778,1,0,0,1.364,button_left_test,0,66,66,35,1,
,,,,,,,,,,,,,,,,,199369,18,2022-01-29_21h37.34.497,lexical_decision_task_DD_L2,2021.2.3,MacIntel,58.82352941,,,,,,,,,,0.714,0,,,,,,,,,,,,,,,,,,,,,,,,-0.518888889,-0.316666667,1,0,0,,,,,,,BEARD,C,m,y,./images/BEARD.png,,,,,,,,0,-0.518888889,-0.316666667,1,0,0,0.714,button_left_test,0,67,67,2,1,
,,,,,,,,,,,,,,,,,199369,18,2022-01-29_21h37.34.497,lexical_decision_task_DD_L2,2021.2.3,MacIntel,58.82352941,,,,,,,,,,8.314,0,,,,,,,,,,,,,,,,,,,,,,,,0.284444444,-0.362222222,1,0,0,,,,,,,FLASK,HB,z,y,./images/FLASKHB.png,,,,,,,,0,0.284444444,-0.362222222,1,0,0,8.314,button_right_test,0,68,68,156,1,
,,,,,,,,,,,,,,,,,199369,18,2022-01-29_21h37.34.497,lexical_decision_task_DD_L2,2021.2.3,MacIntel,58.82352941,,,,,,,,,,1.097,1,,,,,,,,,,,,,,,,,,,,,,,,0.248888889,-0.356666667,1,0,0,,,,,,,KITTEN,HB,m,y,./images/KITTENHB.png,,,,,,,,0,0.248888889,-0.356666667,1,0,0,1.097,button_right_test,0,69,69,45,1,
,,,,,,,,,,,,,,,,,199369,18,2022-01-29_21h37.34.497,lexical_decision_task_DD_L2,2021.2.3,MacIntel,58.82352941,,,,,,,,,,4.331,0,,,,,,,,,,,,,,,,,,,,,,,,0.474444444,-0.325555556,1,0,0,,,,,,,PISTOL,C,z,y,./images/PISTOL.png,,,,,,,,0,0.474444444,-0.325555556,1,0,0,4.331,button_right_test,0,70,70,113,1,
,,,,,,,,,,,,,,,,,199369,18,2022-01-29_21h37.34.497,lexical_decision_task_DD_L2,2021.2.3,MacIntel,58.82352941,,,,,,,,,,1.614,0,,,,,,,,,,,,,,,,,,,,,,,,0.383333333,-0.295555556,1,0,0,,,,,,,MEDAL,C,z,y,./images/MEDAL.png,,,,,,,,0,0.383333333,-0.295555556,1,0,0,1.614,button_right_test,0,71,71,95,1,
,,,,,,,,,,,,,,,,,199369,18,2022-01-29_21h37.34.497,lexical_decision_task_DD_L2,2021.2.3,MacIntel,58.82352941,,,,,,,,,,0.781,0,,,,,,,,,,,,,,,,,,,,,,,,0.383333333,-0.295555556,1,0,0,,,,,,,WHISKY,C,z,y,./images/WHISKY.png,,,,,,,,0,0.383333333,-0.295555556,1,0,0,0.781,button_right_test,0,72,72,167,1,
,,,,,,,,,,,,,,,,,199369,18,2022-01-29_21h37.34.497,lexical_decision_task_DD_L2,2021.2.3,MacIntel,58.82352941,,,,,,,,,,1.314,0,,,,,,,,,,,,,,,,,,,,,,,,0.333333333,-0.262222222,1,0,0,,,,,,,CHALK,LB,z,y,./images/CHALKLB.png,,,,,,,,0,0.333333333,-0.262222222,1,0,0,1.314,button_right_test,0,73,73,109,1,
,,,,,,,,,,,,,,,,,199369,18,2022-01-29_21h37.34.497,lexical_decision_task_DD_L2,2021.2.3,MacIntel,58.82352941,,,,,,,,,,1.113,0,,,,,,,,,,,,,,,,,,,,,,,,-0.422222222,-0.218888889,1,0,0,,,,,,,MAGGOT,HB,m,y,./images/MAGGOTHB.png,,,,,,,,0,-0.422222222,-0.218888889,1,0,0,1.113,button_left_test,0,74,74,33,1,
,,,,,,,,,,,,,,,,,199369,18,2022-01-29_21h37.34.497,lexical_decision_task_DD_L2,2021.2.3,MacIntel,58.82352941,,,,,,,,,,0.931,0,,,,,,,,,,,,,,,,,,,,,,,,0.243333333,-0.338888889,1,0,0,,,,,,,DESERT,LB,z,y,./images/DESERTLB.png,,,,,,,,0,0.243333333,-0.338888889,1,0,0,0.931,button_right_test,0,75,75,136,1,
,,,,,,,,,,,,,,,,,199369,18,2022-01-29_21h37.34.497,lexical_decision_task_DD_L2,2021.2.3,MacIntel,58.82352941,,,,,,,,,,2.013,1,,,,,,,,,,,,,,,,,,,,,,,,0.225555556,-0.323333333,1,0,0,,,,,,,TORCH,C,m,y,./images/TORCH.png,,,,,,,,0,0.225555556,-0.323333333,1,0,0,2.013,button_right_test,0,76,76,68,1,
,,,,,,,,,,,,,,,,,199369,18,2022-01-29_21h37.34.497,lexical_decision_task_DD_L2,2021.2.3,MacIntel,58.82352941,,,,,,,,,,1.43,1,,,,,,,,,,,,,,,,,,,,,,,,0.27,-0.307777778,1,0,0,,,,,,,JAGUAR,HB,m,y,./images/JAGUARHB.png,,,,,,,,0,0.27,-0.307777778,1,0,0,1.43,button_right_test,0,77,77,18,1,
,,,,,,,,,,,,,,,,,199369,18,2022-01-29_21h37.34.497,lexical_decision_task_DD_L2,2021.2.3,MacIntel,58.82352941,,,,,,,,,,0.847,1,,,,,,,,,,,,,,,,,,,,,,,,0.27,-0.307777778,1,0,0,,,,,,,NOOSE,HB,m,y,./images/NOOSEHB.png,,,,,,,,0,0.27,-0.307777778,1,0,0,0.847,button_right_test,0,78,78,72,1,
,,,,,,,,,,,,,,,,,199369,18,2022-01-29_21h37.34.497,lexical_decision_task_DD_L2,2021.2.3,MacIntel,58.82352941,,,,,,,,,,1.247,0,,,,,,,,,,,,,,,,,,,,,,,,0.274444444,-0.321111111,1,0,0,,,,,,,BOXER,LB,z,y,./images/BOXERLB.png,,,,,,,,0,0.19,-0.345555556,1,0,0,1.247,button_right_test,0,79,79,88,1,
,,,,,,,,,,,,,,,,,199369,18,2022-01-29_21h37.34.497,lexical_decision_task_DD_L2,2021.2.3,MacIntel,58.82352941,,,,,,,,,,1.097,0,,,,,,,,,,,,,,,,,,,,,,,,-0.462222222,-0.32,1,0,0,,,,,,,CEMENT,C,m,y,./images/CEMENT.png,,,,,,,,0,-0.462222222,-0.32,1,0,0,1.097,button_left_test,0,80,80,74,1,
,,,,,,,,,,,,,,,,,199369,18,2022-01-29_21h37.34.497,lexical_decision_task_DD_L2,2021.2.3,MacIntel,58.82352941,,,,,,,,,,2.114,0,,,,,,,,,,,,,,,,,,,,,,,,-0.375555556,-0.345555556,1,0,0,,,,,,,CARPET,C,m,y,./images/CARPET.png,,,,,,,,0,-0.375555556,-0.345555556,1,0,0,2.114,button_left_test,0,81,81,53,1,
,,,,,,,,,,,,,,,,,199369,18,2022-01-29_21h37.34.497,lexical_decision_task_DD_L2,2021.2.3,MacIntel,58.82352941,,,,,,,,,,1.58,1,,,,,,,,,,,,,,,,,,,,,,,,0.287777778,-0.374444444,1,0,0,,,,,,,PICKLE,C,m,y,./images/PICKLE.png,,,,,,,,0,0.287777778,-0.374444444,1,0,0,1.58,button_right_test,0,82,82,14,1,
,,,,,,,,,,,,,,,,,199369,18,2022-01-29_21h37.34.497,lexical_decision_task_DD_L2,2021.2.3,MacIntel,58.82352941,,,,,,,,,,0.882,0,,,,,,,,,,,,,,,,,,,,,,,,-0.2,-0.406666667,1,0,0,,,,,,,PEARL,LB,m,y,./images/PEARLLB.png,,,,,,,,0,-0.317777778,-0.283333333,1,0,0,0.882,button_left_test,0,83,83,46,1,break_done_button
,,,,,,,,,,,,,,,,,199369,18,2022-01-29_21h37.34.497,lexical_decision_task_DD_L2,2021.2.3,MacIntel,58.82352941,,,,,,,,,,1.347,1,,,,,,,,,,,,,,,,,,,,,,,,0.304444444,-0.357777778,1,0,0,,,,,,,URINE,LB,m,y,./images/URINELB.png,,,,,,,,0,0.304444444,-0.357777778,1,0,0,1.347,button_right_test,0,84,84,70,1,
,,,,,,,,,,,,,,,,,199369,18,2022-01-29_21h37.34.497,lexical_decision_task_DD_L2,2021.2.3,MacIntel,58.82352941,,,,,,,,,,1.381,1,,,,,,,,,,,,,,,,,,,,,,,,0.305555556,-0.356666667,1,0,0,,,,,,,RHINO,HB,m,y,./images/RHINOHB.png,,,,,,,,0,0.305555556,-0.356666667,1,0,0,1.381,button_right_test,0,85,85,9,1,
,,,,,,,,,,,,,,,,,199369,18,2022-01-29_21h37.34.497,lexical_decision_task_DD_L2,2021.2.3,MacIntel,58.82352941,,,,,,,,,,3.898,0,,,,,,,,,,,,,,,,,,,,,,,,0.3,-0.374444444,1,0,0,,,,,,,CLOWN,LB,z,y,./images/CLOWNLB.png,,,,,,,,0,0.3,-0.374444444,1,0,0,3.898,button_right_test,0,86,86,106,1,
,,,,,,,,,,,,,,,,,199369,18,2022-01-29_21h37.34.497,lexical_decision_task_DD_L2,2021.2.3,MacIntel,58.82352941,,,,,,,,,,1.68,0,,,,,,,,,,,,,,,,,,,,,,,,-0.225555556,-0.398888889,1,0,0,,,,,,,CANYON,LB,m,y,./images/CANYONLB.png,,,,,,,,0,-0.225555556,-0.398888889,1,0,0,1.68,button_left_test,0,87,87,34,1,
,,,,,,,,,,,,,,,,,199369,18,2022-01-29_21h37.34.497,lexical_decision_task_DD_L2,2021.2.3,MacIntel,58.82352941,,,,,,,,,,1.114,1,,,,,,,,,,,,,,,,,,,,,,,,0.224444444,-0.207777778,1,0,0,,,,,,,QUILL,LB,m,y,./images/QUILLLB.png,,,,,,,,0,0.218888889,-0.184444444,1,0,0,1.114,button_right_test,0,88,88,31,1,
,,,,,,,,,,,,,,,,,199369,18,2022-01-29_21h37.34.497,lexical_decision_task_DD_L2,2021.2.3,MacIntel,58.82352941,,,,,,,,,,10.464,0,,,,,,,,,,,,,,,,,,,,,,,,-0.377777778,-0.285555556,1,0,0,,,,,,,INFANT,LB,m,y,./images/INFANTLB.png,,,,,,,,0,-0.377777778,-0.285555556,1,0,0,10.464,button_left_test,0,89,89,76,1,
,,,,,,,,,,,,,,,,,199369,18,2022-01-29_21h37.34.497,lexical_decision_task_DD_L2,2021.2.3,MacIntel,58.82352941,,,,,,,,,,0.747,0,,,,,,,,,,,,,,,,,,,,,,,,-0.377777778,-0.285555556,1,0,0,,,,,,,THROAT,HB,m,y,./images/THROATHB.png,,,,,,,,0,-0.377777778,-0.285555556,1,0,0,0.747,button_left_test,0,90,90,36,1,
,,,,,,,,,,,,,,,,,199369,18,2022-01-29_21h37.34.497,lexical_decision_task_DD_L2,2021.2.3,MacIntel,58.82352941,,,,,,,,,,0.681,0,,,,,,,,,,,,,,,,,,,,,,,,-0.377777778,-0.285555556,1,0,0,,,,,,,SWEAT,HB,m,y,./images/SWEATHB.png,,,,,,,,0,-0.377777778,-0.285555556,1,0,0,0.681,button_left_test,0,91,91,66,1,
,,,,,,,,,,,,,,,,,199369,18,2022-01-29_21h37.34.497,lexical_decision_task_DD_L2,2021.2.3,MacIntel,58.82352941,,,,,,,,,,0.93,0,,,,,,,,,,,,,,,,,,,,,,,,0.273333333,-0.306666667,1,0,0,,,,,,,HOCKEY,C,z,y,./images/HOCKEY.png,,,,,,,,0,0.273333333,-0.306666667,1,0,0,0.93,button_right_test,0,92,92,116,1,
,,,,,,,,,,,,,,,,,199369,18,2022-01-29_21h37.34.497,lexical_decision_task_DD_L2,2021.2.3,MacIntel,58.82352941,,,,,,,,,,0.98,0,,,,,,,,,,,,,,,,,,,,,,,,0.237777778,-0.257777778,1,0,0,,,,,,,ARROW,HB,z,y,./images/ARROWHB.png,,,,,,,,0,0.141111111,-0.244444444,1,0,0,0.98,button_right_test,0,93,93,153,1,
,,,,,,,,,,,,,,,,,199369,18,2022-01-29_21h37.34.497,lexical_decision_task_DD_L2,2021.2.3,MacIntel,58.82352941,,,,,,,,,,1.364,1,,,,,,,,,,,,,,,,,,,,,,,,-0.404444444,-0.335555556,1,0,0,,,,,,,BUBBLE,C,z,y,./images/BUBBLE.png,,,,,,,,0,-0.404444444,-0.335555556,1,0,0,1.364,button_left_test,0,94,94,155,1,
,,,,,,,,,,,,,,,,,199369,18,2022-01-29_21h37.34.497,lexical_decision_task_DD_L2,2021.2.3,MacIntel,58.82352941,,,,,,,,,,1.031,1,,,,,,,,,,,,,,,,,,,,,,,,-0.478888889,-0.315555556,1,0,0,,,,,,,CLOUD,C,z,y,./images/CLOUD.png,,,,,,,,0,-0.478888889,-0.315555556,1,0,0,1.031,button_left_test,0,95,95,110,1,
,,,,,,,,,,,,,,,,,199369,18,2022-01-29_21h37.34.497,lexical_decision_task_DD_L2,2021.2.3,MacIntel,58.82352941,,,,,,,,,,1.13,0,,,,,,,,,,,,,,,,,,,,,,,,0.39,-0.346666667,1,0,0,,,,,,,BISHOP,LB,z,y,./images/BISHOPLB.png,,,,,,,,0,0.39,-0.346666667,1,0,0,1.13,button_right_test,0,96,96,133,1,
,,,,,,,,,,,,,,,,,199369,18,2022-01-29_21h37.34.497,lexical_decision_task_DD_L2,2021.2.3,MacIntel,58.82352941,,,,,,,,,,0.781,0,,,,,,,,,,,,,,,,,,,,,,,,0.39,-0.346666667,1,0,0,,,,,,,SHIELD,HB,z,y,./images/SHIELDHB.png,,,,,,,,0,0.39,-0.346666667,1,0,0,0.781,button_right_test,0,97,97,132,1,
,,,,,,,,,,,,,,,,,199369,18,2022-01-29_21h37.34.497,lexical_decision_task_DD_L2,2021.2.3,MacIntel,58.82352941,,,,,,,,,,1.115,1,,,,,,,,,,,,,,,,,,,,,,,,0.391111111,-0.277777778,1,0,0,,,,,,,BANNER,LB,m,y,./images/BANNERLB.png,,,,,,,,0,0.391111111,-0.277777778,1,0,0,1.115,button_right_test,0,98,98,52,1,
,,,,,,,,,,,,,,,,,199369,18,2022-01-29_21h37.34.497,lexical_decision_task_DD_L2,2021.2.3,MacIntel,58.82352941,,,,,,,,,,0.714,1,,,,,,,,,,,,,,,,,,,,,,,,0.391111111,-0.277777778,1,0,0,,,,,,,MOOSE,HB,m,y,./images/MOOSEHB.png,,,,,,,,0,0.391111111,-0.277777778,1,0,0,0.714,button_right_test,0,99,99,57,1,
,,,,,,,,,,,,,,,,,199369,18,2022-01-29_21h37.34.497,lexical_decision_task_DD_L2,2021.2.3,MacIntel,58.82352941,,,,,,,,,,1.08,1,,,,,,,,,,,,,,,,,,,,,,,,0.391111111,-0.277777778,1,0,0,,,,,,,MOSQUE,LB,m,y,./images/MOSQUELB.png,,,,,,,,0,0.391111111,-0.277777778,1,0,0,1.08,button_right_test,0,100,100,43,1,
,,,,,,,,,,,,,,,,,199369,18,2022-01-29_21h37.34.497,lexical_decision_task_DD_L2,2021.2.3,MacIntel,58.82352941,,,,,,,,,,0.658,0,,,,,,,,,,,,,,,,,,,,,,,,0.391111111,-0.277777778,1,0,0,,,,,,,STATUE,HB,z,y,./images/STATUEHB.png,,,,,,,,0,0.391111111,-0.277777778,1,0,0,0.658,button_right_test,0,101,101,150,1,
,,,,,,,,,,,,,,,,,199369,18,2022-01-29_21h37.34.497,lexical_decision_task_DD_L2,2021.2.3,MacIntel,58.82352941,,,,,,,,,,1.181,0,,,,,,,,,,,,,,,,,,,,,,,,-0.411111111,-0.343333333,1,0,0,,,,,,,BABOON,LB,m,y,./images/BABOONLB.png,,,,,,,,0,-0.411111111,-0.343333333,1,0,0,1.181,button_left_test,0,102,102,58,1,
,,,,,,,,,,,,,,,,,199369,18,2022-01-29_21h37.34.497,lexical_decision_task_DD_L2,2021.2.3,MacIntel,58.82352941,,,,,,,,,,1.58,1,,,,,,,,,,,,,,,,,,,,,,,,0.373333333,-0.285555556,1,0,0,,,,,,,GRAIN,HB,m,y,./images/GRAINHB.png,,,,,,,,0,0.373333333,-0.285555556,1,0,0,1.58,button_right_test,0,103,103,75,1,
,,,,,,,,,,,,,,,,,199369,18,2022-01-29_21h37.34.497,lexical_decision_task_DD_L2,2021.2.3,MacIntel,58.82352941,,,,,,,,,,0.948,1,,,,,,,,,,,,,,,,,,,,,,,,0.372222222,-0.285555556,1,0,0,,,,,,,GREASE,HB,m,y,./images/GREASEHB.png,,,,,,,,0,0.372222222,-0.285555556,1,0,0,0.948,button_right_test,0,104,104,15,1,
,,,,,,,,,,,,,,,,,199369,18,2022-01-29_21h37.34.497,lexical_decision_task_DD_L2,2021.2.3,MacIntel,58.82352941,,,,,,,,,,0.663,0,,,,,,,,,,,,,,,,,,,,,,,,0.372222222,-0.283333333,1,0,0,,,,,,,PARCEL,HB,z,y,./images/PARCELHB.png,,,,,,,,0,0.372222222,-0.283333333,1,0,0,0.663,button_right_test,0,105,105,102,1,
,,,,,,,,,,,,,,,,,199369,18,2022-01-29_21h37.34.497,lexical_decision_task_DD_L2,2021.2.3,MacIntel,58.82352941,,,,,,,,,,1.064,0,,,,,,,,,,,,,,,,,,,,,,,,-0.221111111,-0.274444444,1,0,0,,,,,,,LADDER,C,m,y,./images/LADDER.png,,,,,,,,0,-0.221111111,-0.274444444,1,0,0,1.064,button_left_test,0,106,106,38,1,
,,,,,,,,,,,,,,,,,199369,18,2022-01-29_21h37.34.497,lexical_decision_task_DD_L2,2021.2.3,MacIntel,58.82352941,,,,,,,,,,1.33,0,,,,,,,,,,,,,,,,,,,,,,,,-0.24,-0.363333333,1,0,0,,,,,,,MOTOR,LB,m,y,./images/MOTORLB.png,,,,,,,,0,-0.24,-0.363333333,1,0,0,1.33,button_left_test,0,107,107,13,1,
,,,,,,,,,,,,,,,,,199369,18,2022-01-29_21h37.34.497,lexical_decision_task_DD_L2,2021.2.3,MacIntel,58.82352941,,,,,,,,,,0.897,1,,,,,,,,,,,,,,,,,,,,,,,,0.221111111,-0.388888889,1,0,0,,,,,,,PLANK,LB,m,y,./images/PLANKLB.png,,,,,,,,0,0.221111111,-0.388888889,1,0,0,0.897,button_right_test,0,108,108,1,1,
,,,,,,,,,,,,,,,,,199369,18,2022-01-29_21h37.34.497,lexical_decision_task_DD_L2,2021.2.3,MacIntel,58.82352941,,,,,,,,,,0.748,0,,,,,,,,,,,,,,,,,,,,,,,,-0.238888889,-0.325555556,1,0,0,,,,,,,SWING,LB,m,y,./images/SWINGLB.png,,,,,,,,0,-0.238888889,-0.325555556,1,0,0,0.748,button_left_test,0,109,109,40,1,
,,,,,,,,,,,,,,,,,199369,18,2022-01-29_21h37.34.497,lexical_decision_task_DD_L2,2021.2.3,MacIntel,58.82352941,,,,,,,,,,0.913,0,,,,,,,,,,,,,,,,,,,,,,,,-0.322222222,-0.352222222,1,0,0,,,,,,,JUNGLE,C,m,y,./images/JUNGLE.png,,,,,,,,0,-0.322222222,-0.352222222,1,0,0,0.913,button_left_test,0,110,110,83,1,
,,,,,,,,,,,,,,,,,199369,18,2022-01-29_21h37.34.497,lexical_decision_task_DD_L2,2021.2.3,MacIntel,58.82352941,,,,,,,,,,0.997,1,,,,,,,,,,,,,,,,,,,,,,,,0.341111111,-0.205555556,1,0,0,,,,,,,CRADLE,C,m,y,./images/CRADLE.png,,,,,,,,0,0.341111111,-0.205555556,1,0,0,0.997,button_right_test,0,111,111,20,1,
,,,,,,,,,,,,,,,,,199369,18,2022-01-29_21h37.34.497,lexical_decision_task_DD_L2,2021.2.3,MacIntel,58.82352941,,,,,,,,,,0.833,1,,,,,,,,,,,,,,,,,,,,,,,,0.378888889,-0.307777778,1,0,0,,,,,,,MUFFIN,LB,m,y,./images/MUFFINLB.png,,,,,,,,0,0.378888889,-0.307777778,1,0,0,0.833,button_right_test,0,112,112,55,1,
,,,,,,,,,,,,,,,,,199369,18,2022-01-29_21h37.34.497,lexical_decision_task_DD_L2,2021.2.3,MacIntel,58.82352941,,,,,,,,,,1.364,1,,,,,,,,,,,,,,,,,,,,,,,,0.513333333,-0.323333333,1,0,0,,,,,,,ATTIC,HB,m,y,./images/ATTICHB.png,,,,,,,,0,0.513333333,-0.323333333,1,0,0,1.364,button_right_test,0,113,113,27,1,
,,,,,,,,,,,,,,,,,199369,18,2022-01-29_21h37.34.497,lexical_decision_task_DD_L2,2021.2.3,MacIntel,58.82352941,,,,,,,,,,1.213,0,,,,,,,,,,,,,,,,,,,,,,,,-0.21,-0.357777778,1,0,0,,,,,,,BELLY,LB,m,y,./images/BELLYLB.png,,,,,,,,0,-0.121111111,-0.357777778,1,0,0,1.213,button_left_test,0,114,114,10,1,
,,,,,,,,,,,,,,,,,199369,18,2022-01-29_21h37.34.497,lexical_decision_task_DD_L2,2021.2.3,MacIntel,58.82352941,,,,,,,,,,0.945,0,,,,,,,,,,,,,,,,,,,,,,,,-0.243333333,-0.337777778,1,0,0,,,,,,,MUSCLE,LB,m,y,./images/MUSCLELB.png,,,,,,,,0,-0.243333333,-0.337777778,1,0,0,0.945,button_left_test,0,115,115,4,1,
,,,,,,,,,,,,,,,,,199369,18,2022-01-29_21h37.34.497,lexical_decision_task_DD_L2,2021.2.3,MacIntel,58.82352941,,,,,,,,,,0.796,0,,,,,,,,,,,,,,,,,,,,,,,,-0.243333333,-0.337777778,1,0,0,,,,,,,SPORT,HB,m,y,./images/SPORTHB.png,,,,,,,,0,-0.243333333,-0.337777778,1,0,0,0.796,button_left_test,0,116,116,48,1,
,,,,,,,,,,,,,,,,,199369,18,2022-01-29_21h37.34.497,lexical_decision_task_DD_L2,2021.2.3,MacIntel,58.82352941,,,,,,,,,,0.563,0,,,,,,,,,,,,,,,,,,,,,,,,-0.243333333,-0.337777778,1,0,0,,,,,,,BIRTH,LB,m,y,./images/BIRTHLB.png,,,,,,,,0,-0.243333333,-0.337777778,1,0,0,0.563,button_left_test,0,117,117,37,1,
,,,,,,,,,,,,,,,,,199369,18,2022-01-29_21h37.34.497,lexical_decision_task_DD_L2,2021.2.3,MacIntel,58.82352941,,,,,,,,,,0.914,1,,,,,,,,,,,,,,,,,,,,,,,,-0.243333333,-0.337777778,1,0,0,,,,,,,PLANET,C,z,y,./images/PLANET.png,,,,,,,,0,-0.243333333,-0.337777778,1,0,0,0.914,button_left_test,0,118,118,164,1,
,,,,,,,,,,,,,,,,,199369,18,2022-01-29_21h37.34.497,lexical_decision_task_DD_L2,2021.2.3,MacIntel,58.82352941,,,,,,,,,,1.08,1,,,,,,,,,,,,,,,,,,,,,,,,-0.237777778,-0.317777778,1,0,0,,,,,,,PEBBLE,LB,z,y,./images/PEBBLELB.png,,,,,,,,0,-0.237777778,-0.317777778,1,0,0,1.08,button_left_test,0,119,119,166,1,
,,,,,,,,,,,,,,,,,199369,18,2022-01-29_21h37.34.497,lexical_decision_task_DD_L2,2021.2.3,MacIntel,58.82352941,,,,,,,,,,0.531,0,,,,,,,,,,,,,,,,,,,,,,,,-0.238888889,-0.317777778,1,0,0,,,,,,,STORM,HB,m,y,./images/STORMHB.png,,,,,,,,0,-0.238888889,-0.317777778,1,0,0,0.531,button_left_test,0,120,120,30,1,
,,,,,,,,,,,,,,,,,199369,18,2022-01-29_21h37.34.497,lexical_decision_task_DD_L2,2021.2.3,MacIntel,58.82352941,,,,,,,,,,0.963,0,,,,,,,,,,,,,,,,,,,,,,,,0.535555556,-0.277777778,1,0,0,,,,,,,LLAMA,C,z,y,./images/LLAMA.png,,,,,,,,0,0.535555556,-0.277777778,1,0,0,0.963,button_right_test,0,121,121,119,1,
,,,,,,,,,,,,,,,,,199369,18,2022-01-29_21h37.34.497,lexical_decision_task_DD_L2,2021.2.3,MacIntel,58.82352941,,,,,,,,,,1.597,1,,,,,,,,,,,,,,,,,,,,,,,,0.31,-0.366666667,1,0,0,,,,,,,SAILOR,LB,m,y,./images/SAILORLB.png,,,,,,,,0,0.31,-0.366666667,1,0,0,1.597,button_right_test,0,122,122,67,1,
,,,,,,,,,,,,,,,,,199369,18,2022-01-29_21h37.34.497,lexical_decision_task_DD_L2,2021.2.3,MacIntel,58.82352941,,,,,,,,,,1.081,1,,,,,,,,,,,,,,,,,,,,,,,,-0.295555556,-0.263333333,1,0,0,,,,,,,SPINE,C,z,y,./images/SPINE.png,,,,,,,,0,-0.295555556,-0.263333333,1,0,0,1.081,button_left_test,0,123,123,149,1,
,,,,,,,,,,,,,,,,,199369,18,2022-01-29_21h37.34.497,lexical_decision_task_DD_L2,2021.2.3,MacIntel,58.82352941,,,,,,,,,,0.846,1,,,,,,,,,,,,,,,,,,,,,,,,-0.457777778,-0.282222222,1,0,0,,,,,,,CANDY,HB,z,y,./images/CANDYHB.png,,,,,,,,0,-0.457777778,-0.282222222,1,0,0,0.846,button_left_test,0,124,124,123,1,
,,,,,,,,,,,,,,,,,199369,18,2022-01-29_21h37.34.497,lexical_decision_task_DD_L2,2021.2.3,MacIntel,58.82352941,,,,,,,,,,0.596,1,,,,,,,,,,,,,,,,,,,,,,,,-0.061111111,-0.353333333,0,0,0,space,,,,,,STAIN,HB,z,y,./images/STAINHB.png,1.15,,,,,,,0,-0.457777778,-0.282222222,1,0,0,0.596,button_left_test,0,125,125,90,1,
,,,,,,,,,,,,,,,,,199369,18,2022-01-29_21h37.34.497,lexical_decision_task_DD_L2,2021.2.3,MacIntel,58.82352941,,,,,,,,,,0.682,1,,,,,,,,,,,,,,,,,,,,,,,,-0.317777778,-0.296666667,1,0,0,,,,,,,WAGON,LB,z,y,./images/WAGONLB.png,,,,,,,,0,-0.317777778,-0.296666667,1,0,0,0.682,button_left_test,0,126,126,91,1,
,,,,,,,,,,,,,,,,,199369,18,2022-01-29_21h37.34.497,lexical_decision_task_DD_L2,2021.2.3,MacIntel,58.82352941,,,,,,,,,,0.696,1,,,,,,,,,,,,,,,,,,,,,,,,-0.317777778,-0.296666667,1,0,0,,,,,,,RULER,LB,z,y,./images/RULERLB.png,,,,,,,,0,-0.317777778,-0.296666667,1,0,0,0.696,button_left_test,0,127,127,163,1,
,,,,,,,,,,,,,,,,,199369,18,2022-01-29_21h37.34.497,lexical_decision_task_DD_L2,2021.2.3,MacIntel,58.82352941,,,,,,,,,,0.531,1,,,,,,,,,,,,,,,,,,,,,,,,-0.317777778,-0.296666667,1,0,0,,,,,,,MONKEY,HB,z,y,./images/MONKEYHB.png,,,,,,,,0,-0.317777778,-0.296666667,1,0,0,0.531,button_left_test,0,128,128,129,1,
