key_resp.keys,instr_done_touch.x,instr_done_touch.y,instr_done_touch.leftButton,instr_done_touch.midButton,instr_done_touch.rightButton,instr_done_touch.clicked_name,instruction_pages.thisRepN,instruction_pages.thisTrialN,instruction_pages.thisN,instruction_pages.thisIndex,instruction_pages.ran,pageN,phase,instruct_text,has_image,instruct_image,participant,age,date,expName,psychopyVersion,OS,frameRate,response.keys,response.corr,response.rt,touch_resp.x,touch_resp.y,touch_resp.leftButton,touch_resp.midButton,touch_resp.rightButton,touch_resp.time,touch_resp.clicked_name,rt,corr,practrials.thisRepN,practrials.thisTrialN,practrials.thisN,practrials.thisIndex,practrials.ran,TrialID,Target,corrAns,end_of_practice_trials_pages.thisRepN,end_of_practice_trials_pages.thisTrialN,end_of_practice_trials_pages.thisN,end_of_practice_trials_pages.thisIndex,end_of_practice_trials_pages.ran,key_resp_2.keys,key_resp_2.corr,key_resp_2.rt,targ_click.x,targ_click.y,targ_click.leftButton,targ_click.midButton,targ_click.rightButton,targ_click.time,targ_click.clicked_name,break_done_touch.x,break_done_touch.y,break_done_touch.leftButton,break_done_touch.midButton,break_done_touch.rightButton,break_done_keyboard.keys,maintrials.thisRepN,maintrials.thisTrialN,maintrials.thisN,maintrials.thisIndex,maintrials.ran,string,blur,study,lex,stim_path,break_done_touch.clicked_name,test_instructions.thisRepN,test_instructions.thisTrialN,test_instructions.thisN,test_instructions.thisIndex,test_instructions.ran,key_resp.rt,key_resp_3.keys,key_resp_3.corr,key_resp_3.rt,test_click.x,test_click.y,test_click.leftButton,test_click.midButton,test_click.rightButton,test_click.time,test_click.clicked_name,test_phase.thisRepN,test_phase.thisTrialN,test_phase.thisN,test_phase.thisIndex,test_phase.ran
,-0.011362847,-0.381414931,1,0,0,instr_done_button,0,0,0,0,1,1,instructions,"INSTRUCTIONS
At the start of each trial, look at the plus sign  (+) in the center of the screen.  This tells you that a trial is about to begin and where to look. Second, the plus sign will disappear and a string of letters will appear. Your task is to determine if the string of letters is a word or not. If the item is a word press the M key (on keyboard)  or touch the word button (phone/tablet).  If the item is not a word,  press the  Z key (on keyboard)  or touch the nonword button (on phone/tablet). 
Press the space bar or touch  continue.",0,,199456,18,2022-01-29_15h03.58.881,lexical_decision_task_DD_L2,2021.2.3,MacIntel,59.99880002,,,,,,,,,,,,,,,,,,,,,,,,,,,,,,,,,,,,,,,,,,,,,,,,,,,,,,,,,,,,,,,,,,,,,,,,,
,-0.016119792,-0.391519097,1,0,0,instr_done_button,0,1,1,1,1,2,instructions,"If your device has a keyboard, press the 'Z' key for nonwords and the 'M' key for words.





Press the space bar or touch the button below to continue.",0,keyboard-example.gif,199456,18,2022-01-29_15h03.58.881,lexical_decision_task_DD_L2,2021.2.3,MacIntel,59.99880002,,,,,,,,,,,,,,,,,,,,,,,,,,,,,,,,,,,,,,,,,,,,,,,,,,,,,,,,,,,,,,,,,,,,,,,,,
,-0.023146701,-0.391128472,1,0,0,instr_done_button,0,2,2,2,1,3,instructions,"If you are using a touchscreen only device, use the buttons on the screen. Do not use the mouse.





Press the space bar or touch the button below to continue.",0,touchscreen-example.gif,199456,18,2022-01-29_15h03.58.881,lexical_decision_task_DD_L2,2021.2.3,MacIntel,59.99880002,,,,,,,,,,,,,,,,,,,,,,,,,,,,,,,,,,,,,,,,,,,,,,,,,,,,,,,,,,,,,,,,,,,,,,,,,
,-0.016132812,-0.369813368,1,0,0,instr_done_button,0,3,3,3,1,4,instructions,"It is very important that you respond as quickly and accurately as possible, as each letter string will only be on the screen for two seconds. If you do not respond within this time, the message 'Too slow!' will be displayed and the experiment will progress to the next letter string. The first 20 trials will be practice trials and you will receive feedback on your answers. 

Press the space bar or touch the button below to start the practice trials.",0,,199456,18,2022-01-29_15h03.58.881,lexical_decision_task_DD_L2,2021.2.3,MacIntel,59.99880002,,,,,,,,,,,,,,,,,,,,,,,,,,,,,,,,,,,,,,,,,,,,,,,,,,,,,,,,,,,,,,,,,,,,,,,,,
,,,,,,,,,,,,,,,,,199456,18,2022-01-29_15h03.58.881,lexical_decision_task_DD_L2,2021.2.3,MacIntel,59.99880002,m,1,1.3325,,,,,,,,1.3325,1,0,0,0,1,1,1001,ADJUST,m,,,,,,,,,,,,,,,,,,,,,,,,,,,,,,,,,,,,,,,,,,,,,,,,,,,,,
,,,,,,,,,,,,,,,,,199456,18,2022-01-29_15h03.58.881,lexical_decision_task_DD_L2,2021.2.3,MacIntel,59.99880002,z,1,1.5467,,,,,,,,1.5467,1,0,1,1,11,1,1001,RASHET,z,,,,,,,,,,,,,,,,,,,,,,,,,,,,,,,,,,,,,,,,,,,,,,,,,,,,,
,,,,,,,,,,,,,,,,,199456,18,2022-01-29_15h03.58.881,lexical_decision_task_DD_L2,2021.2.3,MacIntel,59.99880002,m,1,1.0801,,,,,,,,1.0801,1,0,2,2,0,1,1001,UTOPIA,m,,,,,,,,,,,,,,,,,,,,,,,,,,,,,,,,,,,,,,,,,,,,,,,,,,,,,
,,,,,,,,,,,,,,,,,199456,18,2022-01-29_15h03.58.881,lexical_decision_task_DD_L2,2021.2.3,MacIntel,59.99880002,m,1,0.6782,,,,,,,,0.6782,1,0,3,3,5,1,1001,OBTAIN,m,,,,,,,,,,,,,,,,,,,,,,,,,,,,,,,,,,,,,,,,,,,,,,,,,,,,,
,,,,,,,,,,,,,,,,,199456,18,2022-01-29_15h03.58.881,lexical_decision_task_DD_L2,2021.2.3,MacIntel,59.99880002,m,1,0.6318,,,,,,,,0.6318,1,0,4,4,2,1,1001,ALMOND,m,,,,,,,,,,,,,,,,,,,,,,,,,,,,,,,,,,,,,,,,,,,,,,,,,,,,,
,,,,,,,,,,,,,,,,,199456,18,2022-01-29_15h03.58.881,lexical_decision_task_DD_L2,2021.2.3,MacIntel,59.99880002,m,1,0.6503,,,,,,,,0.6503,1,0,5,5,6,1,1001,ZOMBIE,m,,,,,,,,,,,,,,,,,,,,,,,,,,,,,,,,,,,,,,,,,,,,,,,,,,,,,
,,,,,,,,,,,,,,,,,199456,18,2022-01-29_15h03.58.881,lexical_decision_task_DD_L2,2021.2.3,MacIntel,59.99880002,z,1,1.0004,,,,,,,,1.0004,1,0,6,6,8,1,1001,ASLERT,z,,,,,,,,,,,,,,,,,,,,,,,,,,,,,,,,,,,,,,,,,,,,,,,,,,,,,
,,,,,,,,,,,,,,,,,199456,18,2022-01-29_15h03.58.881,lexical_decision_task_DD_L2,2021.2.3,MacIntel,59.99880002,z,1,0.9797,,,,,,,,0.9797,1,0,7,7,12,1,1001,SPRINY,z,,,,,,,,,,,,,,,,,,,,,,,,,,,,,,,,,,,,,,,,,,,,,,,,,,,,,
,,,,,,,,,,,,,,,,,199456,18,2022-01-29_15h03.58.881,lexical_decision_task_DD_L2,2021.2.3,MacIntel,59.99880002,z,1,0.9031,,,,,,,,0.9031,1,0,8,8,14,1,1001,THRALE,z,,,,,,,,,,,,,,,,,,,,,,,,,,,,,,,,,,,,,,,,,,,,,,,,,,,,,
,,,,,,,,,,,,,,,,,199456,18,2022-01-29_15h03.58.881,lexical_decision_task_DD_L2,2021.2.3,MacIntel,59.99880002,m,1,0.7045,,,,,,,,0.7045,1,0,9,9,3,1,1001,MATRIX,m,,,,,,,,,,,,,,,,,,,,,,,,,,,,,,,,,,,,,,,,,,,,,,,,,,,,,
,,,,,,,,,,,,,,,,,199456,18,2022-01-29_15h03.58.881,lexical_decision_task_DD_L2,2021.2.3,MacIntel,59.99880002,m,1,0.8942,,,,,,,,0.8942,1,0,10,10,4,1,1001,SQUEAK,m,,,,,,,,,,,,,,,,,,,,,,,,,,,,,,,,,,,,,,,,,,,,,,,,,,,,,
,,,,,,,,,,,,,,,,,199456,18,2022-01-29_15h03.58.881,lexical_decision_task_DD_L2,2021.2.3,MacIntel,59.99880002,z,1,0.7831,,,,,,,,0.7831,1,0,11,11,10,1,1001,INLADE,z,,,,,,,,,,,,,,,,,,,,,,,,,,,,,,,,,,,,,,,,,,,,,,,,,,,,,
,,,,,,,,,,,,,,,,,199456,18,2022-01-29_15h03.58.881,lexical_decision_task_DD_L2,2021.2.3,MacIntel,59.99880002,z,1,0.7908,,,,,,,,0.7908,1,0,12,12,9,1,1001,FARINY,z,,,,,,,,,,,,,,,,,,,,,,,,,,,,,,,,,,,,,,,,,,,,,,,,,,,,,
,,,,,,,,,,,,,,,,,199456,18,2022-01-29_15h03.58.881,lexical_decision_task_DD_L2,2021.2.3,MacIntel,59.99880002,z,1,0.7155,,,,,,,,0.7155,1,0,13,13,13,1,1001,ROUPET,z,,,,,,,,,,,,,,,,,,,,,,,,,,,,,,,,,,,,,,,,,,,,,,,,,,,,,
,,,,,,,,,,,,,,,,,199456,18,2022-01-29_15h03.58.881,lexical_decision_task_DD_L2,2021.2.3,MacIntel,59.99880002,z,1,0.7275,,,,,,,,0.7275,1,0,14,14,15,1,1001,WHAISE,z,,,,,,,,,,,,,,,,,,,,,,,,,,,,,,,,,,,,,,,,,,,,,,,,,,,,,
,,,,,,,,,,,,,,,,,199456,18,2022-01-29_15h03.58.881,lexical_decision_task_DD_L2,2021.2.3,MacIntel,59.99880002,m,1,0.5882,,,,,,,,0.5882,1,0,15,15,7,1,1001,VOLUME,m,,,,,,,,,,,,,,,,,,,,,,,,,,,,,,,,,,,,,,,,,,,,,,,,,,,,,
,-0.064513889,-0.399227431,1,0,0,instr_done_button,,,,,,1,end_of_practice,"You have completed the practice trials. During the experimental trials, you will not receive feedback. 
Before you begin, please ensure that you are in a comfortable and quiet location and will not be disturbed for about 15 minutes, as we cannot use your data if you do not complete all the trials. 
 When you are ready to start the experimental trials, please press space or touch the button below.",,,199456,18,2022-01-29_15h03.58.881,lexical_decision_task_DD_L2,2021.2.3,MacIntel,59.99880002,,,,,,,,,,,,,,,,,,,,,0,0,0,0,1,,,,,,,,,,,,,,,,,,,,,,,,,,,,,,,,,,,,,,,,,,,,,,,,
,,,,,,,,,,,,,,,,,199456,18,2022-01-29_15h03.58.881,lexical_decision_task_DD_L2,2021.2.3,MacIntel,59.99880002,,,,,,,,,,,0.9051,1,,,,,,,,,,,,,,m,1,0.9051,,,,,,,,0.192204861,-0.037847222,0,0,0,,0,0,0,51,1,ONION,HB,old,m,./images/ONIONHB.png,,,,,,,,,,,,,,,,,,,,,,
,,,,,,,,,,,,,,,,,199456,18,2022-01-29_15h03.58.881,lexical_decision_task_DD_L2,2021.2.3,MacIntel,59.99880002,,,,,,,,,,,1.277,1,,,,,,,,,,,,,,z,1,1.277,,,,,,,,0.192204861,-0.037847222,0,0,0,,0,1,1,159,1,CUDDY,C,old,z,./images/CUDDY.png,,,,,,,,,,,,,,,,,,,,,,
,,,,,,,,,,,,,,,,,199456,18,2022-01-29_15h03.58.881,lexical_decision_task_DD_L2,2021.2.3,MacIntel,59.99880002,,,,,,,,,,,1.0017,1,,,,,,,,,,,,,,z,1,1.0017,,,,,,,,0.192204861,-0.037847222,0,0,0,,0,2,2,140,1,DOVET,LB,old,z,./images/DOVETLB.png,,,,,,,,,,,,,,,,,,,,,,
,,,,,,,,,,,,,,,,,199456,18,2022-01-29_15h03.58.881,lexical_decision_task_DD_L2,2021.2.3,MacIntel,59.99880002,,,,,,,,,,,1.1044,1,,,,,,,,,,,,,,z,1,1.1044,,,,,,,,0.192204861,-0.037847222,0,0,0,,0,3,3,126,1,GUELS,C,old,z,./images/GUELS.png,,,,,,,,,,,,,,,,,,,,,,
,,,,,,,,,,,,,,,,,199456,18,2022-01-29_15h03.58.881,lexical_decision_task_DD_L2,2021.2.3,MacIntel,59.99880002,,,,,,,,,,,1.0831,1,,,,,,,,,,,,,,z,1,1.0831,,,,,,,,0.192204861,-0.037847222,0,0,0,,0,4,4,113,1,LINEW,LB,old,z,./images/LINEWLB.png,,,,,,,,,,,,,,,,,,,,,,
,,,,,,,,,,,,,,,,,199456,18,2022-01-29_15h03.58.881,lexical_decision_task_DD_L2,2021.2.3,MacIntel,59.99880002,,,,,,,,,,,1.7228,1,,,,,,,,,,,,,,z,1,1.7228,,,,,,,,0.192204861,-0.037847222,0,0,0,,0,5,5,124,1,TUNCH,HB,old,z,./images/TUNCHHB.png,,,,,,,,,,,,,,,,,,,,,,
,,,,,,,,,,,,,,,,,199456,18,2022-01-29_15h03.58.881,lexical_decision_task_DD_L2,2021.2.3,MacIntel,59.99880002,,,,,,,,,,,0.7788,1,,,,,,,,,,,,,,m,1,0.7788,,,,,,,,0.192204861,-0.037847222,0,0,0,,0,6,6,27,1,ATTIC,HB,old,m,./images/ATTICHB.png,,,,,,,,,,,,,,,,,,,,,,
,,,,,,,,,,,,,,,,,199456,18,2022-01-29_15h03.58.881,lexical_decision_task_DD_L2,2021.2.3,MacIntel,59.99880002,,,,,,,,,,,0.6531,1,,,,,,,,,,,,,,m,1,0.6531,,,,,,,,0.192204861,-0.037847222,0,0,0,,0,7,7,56,1,PACKET,C,old,m,./images/PACKET.png,,,,,,,,,,,,,,,,,,,,,,
,,,,,,,,,,,,,,,,,199456,18,2022-01-29_15h03.58.881,lexical_decision_task_DD_L2,2021.2.3,MacIntel,59.99880002,,,,,,,,,,,1.4842,1,,,,,,,,,,,,,,z,1,1.4842,,,,,,,,0.192204861,-0.037847222,0,0,0,,0,8,8,160,1,VEETS,HB,old,z,./images/VEETSHB.png,,,,,,,,,,,,,,,,,,,,,,
,,,,,,,,,,,,,,,,,199456,18,2022-01-29_15h03.58.881,lexical_decision_task_DD_L2,2021.2.3,MacIntel,59.99880002,,,,,,,,,,,0.8249,1,,,,,,,,,,,,,,z,1,0.8249,,,,,,,,0.192204861,-0.037847222,0,0,0,,0,9,9,146,1,MOOST,LB,old,z,./images/MOOSTLB.png,,,,,,,,,,,,,,,,,,,,,,
,,,,,,,,,,,,,,,,,199456,18,2022-01-29_15h03.58.881,lexical_decision_task_DD_L2,2021.2.3,MacIntel,59.99880002,,,,,,,,,,,0.8658,1,,,,,,,,,,,,,,z,1,0.8658,,,,,,,,0.192204861,-0.037847222,0,0,0,,0,10,10,98,1,BAMPS,LB,old,z,./images/BAMPSLB.png,,,,,,,,,,,,,,,,,,,,,,
,,,,,,,,,,,,,,,,,199456,18,2022-01-29_15h03.58.881,lexical_decision_task_DD_L2,2021.2.3,MacIntel,59.99880002,,,,,,,,,,,0.9319,1,,,,,,,,,,,,,,z,1,0.9319,,,,,,,,0.192204861,-0.037847222,0,0,0,,0,11,11,128,1,GRIFT,LB,old,z,./images/GRIFTLB.png,,,,,,,,,,,,,,,,,,,,,,
,,,,,,,,,,,,,,,,,199456,18,2022-01-29_15h03.58.881,lexical_decision_task_DD_L2,2021.2.3,MacIntel,59.99880002,,,,,,,,,,,0.6025,1,,,,,,,,,,,,,,m,1,0.6025,,,,,,,,0.192204861,-0.037847222,0,0,0,,0,12,12,5,1,PASTA,C,old,m,./images/PASTA.png,,,,,,,,,,,,,,,,,,,,,,
,,,,,,,,,,,,,,,,,199456,18,2022-01-29_15h03.58.881,lexical_decision_task_DD_L2,2021.2.3,MacIntel,59.99880002,,,,,,,,,,,0.9741,1,,,,,,,,,,,,,,z,1,0.9741,,,,,,,,0.192204861,-0.037847222,0,0,0,,0,13,13,138,1,PLICE,C,old,z,./images/PLICE.png,,,,,,,,,,,,,,,,,,,,,,
,,,,,,,,,,,,,,,,,199456,18,2022-01-29_15h03.58.881,lexical_decision_task_DD_L2,2021.2.3,MacIntel,59.99880002,,,,,,,,,,,2.4524,1,,,,,,,,,,,,,,z,1,2.4524,,,,,,,,0.192204861,-0.037847222,0,0,0,,0,14,14,96,1,KEAMS,C,old,z,./images/KEAMS.png,,,,,,,,,,,,,,,,,,,,,,
,,,,,,,,,,,,,,,,,199456,18,2022-01-29_15h03.58.881,lexical_decision_task_DD_L2,2021.2.3,MacIntel,59.99880002,,,,,,,,,,,2.4133,1,,,,,,,,,,,,,,z,1,2.4133,,,,,,,,0.192204861,-0.037847222,0,0,0,,0,15,15,130,1,CRILL,HB,old,z,./images/CRILLHB.png,,,,,,,,,,,,,,,,,,,,,,
,,,,,,,,,,,,,,,,,199456,18,2022-01-29_15h03.58.881,lexical_decision_task_DD_L2,2021.2.3,MacIntel,59.99880002,,,,,,,,,,,2.1507,1,,,,,,,,,,,,,,m,1,2.1507,,,,,,,,0.192204861,-0.037847222,0,0,0,,0,16,16,17,1,SKIING,C,old,m,./images/SKIING.png,,,,,,,,,,,,,,,,,,,,,,
,,,,,,,,,,,,,,,,,199456,18,2022-01-29_15h03.58.881,lexical_decision_task_DD_L2,2021.2.3,MacIntel,59.99880002,,,,,,,,,,,1.8333,0,,,,,,,,,,,,,,z,0,1.8333,,,,,,,,0.192204861,-0.037847222,0,0,0,,0,17,17,72,1,NOOSE,HB,old,m,./images/NOOSEHB.png,,,,,,,,,,,,,,,,,,,,,,
,,,,,,,,,,,,,,,,,199456,18,2022-01-29_15h03.58.881,lexical_decision_task_DD_L2,2021.2.3,MacIntel,59.99880002,,,,,,,,,,,1.6068,1,,,,,,,,,,,,,,z,1,1.6068,,,,,,,,0.192204861,-0.037847222,0,0,0,,0,18,18,162,1,LEICH,C,old,z,./images/LEICH.png,,,,,,,,,,,,,,,,,,,,,,
,,,,,,,,,,,,,,,,,199456,18,2022-01-29_15h03.58.881,lexical_decision_task_DD_L2,2021.2.3,MacIntel,59.99880002,,,,,,,,,,,0.7205,1,,,,,,,,,,,,,,m,1,0.7205,,,,,,,,0.192204861,-0.037847222,0,0,0,,0,19,19,70,1,URINE,LB,old,m,./images/URINELB.png,,,,,,,,,,,,,,,,,,,,,,
,,,,,,,,,,,,,,,,,199456,18,2022-01-29_15h03.58.881,lexical_decision_task_DD_L2,2021.2.3,MacIntel,59.99880002,,,,,,,,,,,0.6861,1,,,,,,,,,,,,,,m,1,0.6861,,,,,,,,0.192204861,-0.037847222,0,0,0,,0,20,20,79,1,CRUST,LB,old,m,./images/CRUSTLB.png,,,,,,,,,,,,,,,,,,,,,,
,,,,,,,,,,,,,,,,,199456,18,2022-01-29_15h03.58.881,lexical_decision_task_DD_L2,2021.2.3,MacIntel,59.99880002,,,,,,,,,,,1.0824,1,,,,,,,,,,,,,,z,1,1.0824,,,,,,,,0.192204861,-0.037847222,0,0,0,,0,21,21,92,1,PAIMS,LB,old,z,./images/PAIMSLB.png,,,,,,,,,,,,,,,,,,,,,,
,,,,,,,,,,,,,,,,,199456,18,2022-01-29_15h03.58.881,lexical_decision_task_DD_L2,2021.2.3,MacIntel,59.99880002,,,,,,,,,,,0.7154,1,,,,,,,,,,,,,,m,1,0.7154,,,,,,,,0.192204861,-0.037847222,0,0,0,,0,22,22,13,1,MOTOR,LB,old,m,./images/MOTORLB.png,,,,,,,,,,,,,,,,,,,,,,
,,,,,,,,,,,,,,,,,199456,18,2022-01-29_15h03.58.881,lexical_decision_task_DD_L2,2021.2.3,MacIntel,59.99880002,,,,,,,,,,,0.9675,1,,,,,,,,,,,,,,z,1,0.9675,,,,,,,,0.192204861,-0.037847222,0,0,0,,0,23,23,89,1,DRIEK,LB,old,z,./images/DRIEKLB.png,,,,,,,,,,,,,,,,,,,,,,
,,,,,,,,,,,,,,,,,199456,18,2022-01-29_15h03.58.881,lexical_decision_task_DD_L2,2021.2.3,MacIntel,59.99880002,,,,,,,,,,,2.073,1,,,,,,,,,,,,,,z,1,2.073,,,,,,,,0.192204861,-0.037847222,0,0,0,,0,24,24,163,1,GAMBA,HB,old,z,./images/GAMBAHB.png,,,,,,,,,,,,,,,,,,,,,,
,,,,,,,,,,,,,,,,,199456,18,2022-01-29_15h03.58.881,lexical_decision_task_DD_L2,2021.2.3,MacIntel,59.99880002,,,,,,,,,,,0.9313,1,,,,,,,,,,,,,,m,1,0.9313,,,,,,,,0.192204861,-0.037847222,0,0,0,,0,25,25,69,1,COOKER,HB,old,m,./images/COOKERHB.png,,,,,,,,,,,,,,,,,,,,,,
,,,,,,,,,,,,,,,,,199456,18,2022-01-29_15h03.58.881,lexical_decision_task_DD_L2,2021.2.3,MacIntel,59.99880002,,,,,,,,,,,0.6978,1,,,,,,,,,,,,,,m,1,0.6978,,,,,,,,0.192204861,-0.037847222,0,0,0,,0,26,26,28,1,FALCON,LB,old,m,./images/FALCONLB.png,,,,,,,,,,,,,,,,,,,,,,
,,,,,,,,,,,,,,,,,199456,18,2022-01-29_15h03.58.881,lexical_decision_task_DD_L2,2021.2.3,MacIntel,59.99880002,,,,,,,,,,,0.8373,1,,,,,,,,,,,,,,z,1,0.8373,,,,,,,,0.192204861,-0.037847222,0,0,0,,0,27,27,141,1,PLEET,C,old,z,./images/PLEET.png,,,,,,,,,,,,,,,,,,,,,,
,,,,,,,,,,,,,,,,,199456,18,2022-01-29_15h03.58.881,lexical_decision_task_DD_L2,2021.2.3,MacIntel,59.99880002,,,,,,,,,,,0.724,1,,,,,,,,,,,,,,m,1,0.724,,,,,,,,0.192204861,-0.037847222,0,0,0,,0,28,28,26,1,SMOKER,C,old,m,./images/SMOKER.png,,,,,,,,,,,,,,,,,,,,,,
,,,,,,,,,,,,,,,,,199456,18,2022-01-29_15h03.58.881,lexical_decision_task_DD_L2,2021.2.3,MacIntel,59.99880002,,,,,,,,,,,2.0674,0,,,,,,,,,,,,,,z,0,2.0674,,,,,,,,0.192204861,-0.037847222,0,0,0,,0,29,29,33,1,MAGGOT,HB,old,m,./images/MAGGOTHB.png,,,,,,,,,,,,,,,,,,,,,,
,,,,,,,,,,,,,,,,,199456,18,2022-01-29_15h03.58.881,lexical_decision_task_DD_L2,2021.2.3,MacIntel,59.99880002,,,,,,,,,,,0.9528,1,,,,,,,,,,,,,,m,1,0.9528,,,,,,,,0.192204861,-0.037847222,0,0,0,,0,30,30,58,1,BABOON,LB,old,m,./images/BABOONLB.png,,,,,,,,,,,,,,,,,,,,,,
,,,,,,,,,,,,,,,,,199456,18,2022-01-29_15h03.58.881,lexical_decision_task_DD_L2,2021.2.3,MacIntel,59.99880002,,,,,,,,,,,1.0648,1,,,,,,,,,,,,,,z,1,1.0648,,,,,,,,0.192204861,-0.037847222,0,0,0,,0,31,31,104,1,GITTY,LB,old,z,./images/GITTYLB.png,,,,,,,,,,,,,,,,,,,,,,
,,,,,,,,,,,,,,,,,199456,18,2022-01-29_15h03.58.881,lexical_decision_task_DD_L2,2021.2.3,MacIntel,59.99880002,,,,,,,,,,,0.7074,1,,,,,,,,,,,,,,m,1,0.7074,,,,,,,,0.192204861,-0.037847222,0,0,0,,0,32,32,62,1,PURSE,C,old,m,./images/PURSE.png,,,,,,,,,,,,,,,,,,,,,,
,,,,,,,,,,,,,,,,,199456,18,2022-01-29_15h03.58.881,lexical_decision_task_DD_L2,2021.2.3,MacIntel,59.99880002,,,,,,,,,,,1.5477,0,,,,,,,,,,,,,,m,0,1.5477,,,,,,,,0.192204861,-0.037847222,0,0,0,,0,33,33,118,1,BAVEL,HB,old,z,./images/BAVELHB.png,,,,,,,,,,,,,,,,,,,,,,
,,,,,,,,,,,,,,,,,199456,18,2022-01-29_15h03.58.881,lexical_decision_task_DD_L2,2021.2.3,MacIntel,59.99880002,,,,,,,,,,,1.4157,1,,,,,,,,,,,,,,z,1,1.4157,,,,,,,,0.192204861,-0.037847222,0,0,0,,0,34,34,127,1,NINDY,HB,old,z,./images/NINDYHB.png,,,,,,,,,,,,,,,,,,,,,,
,,,,,,,,,,,,,,,,,199456,18,2022-01-29_15h03.58.881,lexical_decision_task_DD_L2,2021.2.3,MacIntel,59.99880002,,,,,,,,,,,0.7316,1,,,,,,,,,,,,,,m,1,0.7316,,,,,,,,0.192204861,-0.037847222,0,0,0,,0,35,35,54,1,TRIPOD,HB,old,m,./images/TRIPODHB.png,,,,,,,,,,,,,,,,,,,,,,
,,,,,,,,,,,,,,,,,199456,18,2022-01-29_15h03.58.881,lexical_decision_task_DD_L2,2021.2.3,MacIntel,59.99880002,,,,,,,,,,,1.5908,1,,,,,,,,,,,,,,z,1,1.5908,,,,,,,,0.192204861,-0.037847222,0,0,0,,0,36,36,136,1,WERVE,HB,old,z,./images/WERVEHB.png,,,,,,,,,,,,,,,,,,,,,,
,,,,,,,,,,,,,,,,,199456,18,2022-01-29_15h03.58.881,lexical_decision_task_DD_L2,2021.2.3,MacIntel,59.99880002,,,,,,,,,,,1.6045,1,,,,,,,,,,,,,,z,1,1.6045,,,,,,,,0.192204861,-0.037847222,0,0,0,,0,37,37,144,1,NAIRY,C,old,z,./images/NAIRY.png,,,,,,,,,,,,,,,,,,,,,,
,,,,,,,,,,,,,,,,,199456,18,2022-01-29_15h03.58.881,lexical_decision_task_DD_L2,2021.2.3,MacIntel,59.99880002,,,,,,,,,,,2.3159,1,,,,,,,,,,,,,,z,1,2.3159,,,,,,,,0.192204861,-0.037847222,0,0,0,,0,38,38,149,1,VEASE,LB,old,z,./images/VEASELB.png,,,,,,,,,,,,,,,,,,,,,,
,,,,,,,,,,,,,,,,,199456,18,2022-01-29_15h03.58.881,lexical_decision_task_DD_L2,2021.2.3,MacIntel,59.99880002,,,,,,,,,,,0.626,0,,,,,,,,,,,,,,m,0,0.626,,,,,,,,0.192204861,-0.037847222,0,0,0,,0,39,39,123,1,SEDGE,C,old,z,./images/SEDGE.png,,,,,,,,,,,,,,,,,,,,,,
,,,,,,,,,,,,,,,,,199456,18,2022-01-29_15h03.58.881,lexical_decision_task_DD_L2,2021.2.3,MacIntel,59.99880002,,,,,,,,,,,0.6932,1,,,,,,,,,,,,,,m,1,0.6932,,,,,,,,0.192204861,-0.037847222,0,0,0,,0,40,40,46,1,PEARL,LB,old,m,./images/PEARLLB.png,,,,,,,,,,,,,,,,,,,,,,
,,,,,,,,,,,,,,,,,199456,18,2022-01-29_15h03.58.881,lexical_decision_task_DD_L2,2021.2.3,MacIntel,59.99880002,,,,,,,,,,,0.6518,1,,,,,,,,,,,,,,m,1,0.6518,,,,,,,,0.049114583,-0.417777778,1,0,0,,0,41,41,36,1,THROAT,HB,old,m,./images/THROATHB.png,break_done_button,,,,,,,,,,,,,,,,,,,,,
,,,,,,,,,,,,,,,,,199456,18,2022-01-29_15h03.58.881,lexical_decision_task_DD_L2,2021.2.3,MacIntel,59.99880002,,,,,,,,,,,0.6353,1,,,,,,,,,,,,,,m,1,0.6353,,,,,,,,0.141106771,-0.142152778,0,0,0,,0,42,42,77,1,COUCH,C,old,m,./images/COUCH.png,,,,,,,,,,,,,,,,,,,,,,
,,,,,,,,,,,,,,,,,199456,18,2022-01-29_15h03.58.881,lexical_decision_task_DD_L2,2021.2.3,MacIntel,59.99880002,,,,,,,,,,,0.6992,1,,,,,,,,,,,,,,m,1,0.6992,,,,,,,,0.141106771,-0.142152778,0,0,0,,0,43,43,30,1,STORM,HB,old,m,./images/STORMHB.png,,,,,,,,,,,,,,,,,,,,,,
,,,,,,,,,,,,,,,,,199456,18,2022-01-29_15h03.58.881,lexical_decision_task_DD_L2,2021.2.3,MacIntel,59.99880002,,,,,,,,,,,0.6517,1,,,,,,,,,,,,,,m,1,0.6517,,,,,,,,0.141106771,-0.142152778,0,0,0,,0,44,44,19,1,DOUGH,LB,old,m,./images/DOUGHLB.png,,,,,,,,,,,,,,,,,,,,,,
,,,,,,,,,,,,,,,,,199456,18,2022-01-29_15h03.58.881,lexical_decision_task_DD_L2,2021.2.3,MacIntel,59.99880002,,,,,,,,,,,1.6497,1,,,,,,,,,,,,,,z,1,1.6497,,,,,,,,0.141106771,-0.142152778,0,0,0,,0,45,45,145,1,LAMEL,HB,old,z,./images/LAMELHB.png,,,,,,,,,,,,,,,,,,,,,,
,,,,,,,,,,,,,,,,,199456,18,2022-01-29_15h03.58.881,lexical_decision_task_DD_L2,2021.2.3,MacIntel,59.99880002,,,,,,,,,,,0.6941,1,,,,,,,,,,,,,,m,1,0.6941,,,,,,,,0.141106771,-0.142152778,0,0,0,,0,46,46,68,1,TORCH,C,old,m,./images/TORCH.png,,,,,,,,,,,,,,,,,,,,,,
,,,,,,,,,,,,,,,,,199456,18,2022-01-29_15h03.58.881,lexical_decision_task_DD_L2,2021.2.3,MacIntel,59.99880002,,,,,,,,,,,0.8395,1,,,,,,,,,,,,,,z,1,0.8395,,,,,,,,0.141106771,-0.142152778,0,0,0,,0,47,47,111,1,HOSSE,C,old,z,./images/HOSSE.png,,,,,,,,,,,,,,,,,,,,,,
,,,,,,,,,,,,,,,,,199456,18,2022-01-29_15h03.58.881,lexical_decision_task_DD_L2,2021.2.3,MacIntel,59.99880002,,,,,,,,,,,0.7659,1,,,,,,,,,,,,,,m,1,0.7659,,,,,,,,0.141106771,-0.142152778,0,0,0,,0,48,48,42,1,FOLDER,HB,old,m,./images/FOLDERHB.png,,,,,,,,,,,,,,,,,,,,,,
,,,,,,,,,,,,,,,,,199456,18,2022-01-29_15h03.58.881,lexical_decision_task_DD_L2,2021.2.3,MacIntel,59.99880002,,,,,,,,,,,0.5724,1,,,,,,,,,,,,,,m,1,0.5724,,,,,,,,0.141106771,-0.142152778,0,0,0,,0,49,49,37,1,BIRTH,LB,old,m,./images/BIRTHLB.png,,,,,,,,,,,,,,,,,,,,,,
,,,,,,,,,,,,,,,,,199456,18,2022-01-29_15h03.58.881,lexical_decision_task_DD_L2,2021.2.3,MacIntel,59.99880002,,,,,,,,,,,2.333,1,,,,,,,,,,,,,,z,1,2.333,,,,,,,,0.141106771,-0.142152778,0,0,0,,0,50,50,112,1,MYING,HB,old,z,./images/MYINGHB.png,,,,,,,,,,,,,,,,,,,,,,
,,,,,,,,,,,,,,,,,199456,18,2022-01-29_15h03.58.881,lexical_decision_task_DD_L2,2021.2.3,MacIntel,59.99880002,,,,,,,,,,,0.6681,1,,,,,,,,,,,,,,m,1,0.6681,,,,,,,,0.141106771,-0.142152778,0,0,0,,0,51,51,78,1,LITTER,HB,old,m,./images/LITTERHB.png,,,,,,,,,,,,,,,,,,,,,,
,,,,,,,,,,,,,,,,,199456,18,2022-01-29_15h03.58.881,lexical_decision_task_DD_L2,2021.2.3,MacIntel,59.99880002,,,,,,,,,,,2.0178,1,,,,,,,,,,,,,,z,1,2.0178,,,,,,,,0.141106771,-0.142152778,0,0,0,,0,52,52,88,1,GLUSH,HB,old,z,./images/GLUSHHB.png,,,,,,,,,,,,,,,,,,,,,,
,,,,,,,,,,,,,,,,,199456,18,2022-01-29_15h03.58.881,lexical_decision_task_DD_L2,2021.2.3,MacIntel,59.99880002,,,,,,,,,,,1.4325,1,,,,,,,,,,,,,,m,1,1.4325,,,,,,,,0.141106771,-0.142152778,0,0,0,,0,53,53,50,1,MALLET,C,old,m,./images/MALLET.png,,,,,,,,,,,,,,,,,,,,,,
,,,,,,,,,,,,,,,,,199456,18,2022-01-29_15h03.58.881,lexical_decision_task_DD_L2,2021.2.3,MacIntel,59.99880002,,,,,,,,,,,1.2705,1,,,,,,,,,,,,,,z,1,1.2705,,,,,,,,0.141106771,-0.142152778,0,0,0,,0,54,54,120,1,RINED,C,old,z,./images/RINED.png,,,,,,,,,,,,,,,,,,,,,,
,,,,,,,,,,,,,,,,,199456,18,2022-01-29_15h03.58.881,lexical_decision_task_DD_L2,2021.2.3,MacIntel,59.99880002,,,,,,,,,,,1.0238,1,,,,,,,,,,,,,,z,1,1.0238,,,,,,,,0.141106771,-0.142152778,0,0,0,,0,55,55,102,1,DULLE,C,old,z,./images/DULLE.png,,,,,,,,,,,,,,,,,,,,,,
,,,,,,,,,,,,,,,,,199456,18,2022-01-29_15h03.58.881,lexical_decision_task_DD_L2,2021.2.3,MacIntel,59.99880002,,,,,,,,,,,0.5709,1,,,,,,,,,,,,,,m,1,0.5709,,,,,,,,0.141106771,-0.142152778,0,0,0,,0,56,56,65,1,FARMER,C,old,m,./images/FARMER.png,,,,,,,,,,,,,,,,,,,,,,
,,,,,,,,,,,,,,,,,199456,18,2022-01-29_15h03.58.881,lexical_decision_task_DD_L2,2021.2.3,MacIntel,59.99880002,,,,,,,,,,,1.1803,1,,,,,,,,,,,,,,z,1,1.1803,,,,,,,,0.141106771,-0.142152778,0,0,0,,0,57,57,107,1,FASKS,LB,old,z,./images/FASKSLB.png,,,,,,,,,,,,,,,,,,,,,,
,,,,,,,,,,,,,,,,,199456,18,2022-01-29_15h03.58.881,lexical_decision_task_DD_L2,2021.2.3,MacIntel,59.99880002,,,,,,,,,,,0.5557,1,,,,,,,,,,,,,,m,1,0.5557,,,,,,,,0.141106771,-0.142152778,0,0,0,,0,58,58,53,1,CARPET,C,old,m,./images/CARPET.png,,,,,,,,,,,,,,,,,,,,,,
,,,,,,,,,,,,,,,,,199456,18,2022-01-29_15h03.58.881,lexical_decision_task_DD_L2,2021.2.3,MacIntel,59.99880002,,,,,,,,,,,1.5443,1,,,,,,,,,,,,,,z,1,1.5443,,,,,,,,0.141106771,-0.142152778,0,0,0,,0,59,59,105,1,MOKER,C,old,z,./images/MOKER.png,,,,,,,,,,,,,,,,,,,,,,
,,,,,,,,,,,,,,,,,199456,18,2022-01-29_15h03.58.881,lexical_decision_task_DD_L2,2021.2.3,MacIntel,59.99880002,,,,,,,,,,,0.773,1,,,,,,,,,,,,,,m,1,0.773,,,,,,,,0.141106771,-0.142152778,0,0,0,,0,60,60,22,1,MELON,LB,old,m,./images/MELONLB.png,,,,,,,,,,,,,,,,,,,,,,
,,,,,,,,,,,,,,,,,199456,18,2022-01-29_15h03.58.881,lexical_decision_task_DD_L2,2021.2.3,MacIntel,59.99880002,,,,,,,,,,,0.6382,1,,,,,,,,,,,,,,m,1,0.6382,,,,,,,,0.141106771,-0.142152778,0,0,0,,0,61,61,38,1,LADDER,C,old,m,./images/LADDER.png,,,,,,,,,,,,,,,,,,,,,,
,,,,,,,,,,,,,,,,,199456,18,2022-01-29_15h03.58.881,lexical_decision_task_DD_L2,2021.2.3,MacIntel,59.99880002,,,,,,,,,,,1.048,1,,,,,,,,,,,,,,z,1,1.048,,,,,,,,0.141106771,-0.142152778,0,0,0,,0,62,62,86,1,AIFED,LB,old,z,./images/AIFEDLB.png,,,,,,,,,,,,,,,,,,,,,,
,,,,,,,,,,,,,,,,,199456,18,2022-01-29_15h03.58.881,lexical_decision_task_DD_L2,2021.2.3,MacIntel,59.99880002,,,,,,,,,,,1.0715,1,,,,,,,,,,,,,,z,1,1.0715,,,,,,,,0.141106771,-0.142152778,0,0,0,,0,63,63,93,1,SMONE,C,old,z,./images/SMONE.png,,,,,,,,,,,,,,,,,,,,,,
,,,,,,,,,,,,,,,,,199456,18,2022-01-29_15h03.58.881,lexical_decision_task_DD_L2,2021.2.3,MacIntel,59.99880002,,,,,,,,,,,0.6214,1,,,,,,,,,,,,,,m,1,0.6214,,,,,,,,0.141106771,-0.142152778,0,0,0,,0,64,64,49,1,DRUMS,LB,old,m,./images/DRUMSLB.png,,,,,,,,,,,,,,,,,,,,,,
,,,,,,,,,,,,,,,,,199456,18,2022-01-29_15h03.58.881,lexical_decision_task_DD_L2,2021.2.3,MacIntel,59.99880002,,,,,,,,,,,0.9226,1,,,,,,,,,,,,,,m,1,0.9226,,,,,,,,0.141106771,-0.142152778,0,0,0,,0,65,65,18,1,JAGUAR,HB,old,m,./images/JAGUARHB.png,,,,,,,,,,,,,,,,,,,,,,
,,,,,,,,,,,,,,,,,199456,18,2022-01-29_15h03.58.881,lexical_decision_task_DD_L2,2021.2.3,MacIntel,59.99880002,,,,,,,,,,,0.9891,1,,,,,,,,,,,,,,z,1,0.9891,,,,,,,,0.141106771,-0.142152778,0,0,0,,0,66,66,115,1,MAWNS,HB,old,z,./images/MAWNSHB.png,,,,,,,,,,,,,,,,,,,,,,
,,,,,,,,,,,,,,,,,199456,18,2022-01-29_15h03.58.881,lexical_decision_task_DD_L2,2021.2.3,MacIntel,59.99880002,,,,,,,,,,,0.7867,1,,,,,,,,,,,,,,z,1,0.7867,,,,,,,,0.141106771,-0.142152778,0,0,0,,0,67,67,164,1,SGREW,LB,old,z,./images/SGREWLB.png,,,,,,,,,,,,,,,,,,,,,,
,,,,,,,,,,,,,,,,,199456,18,2022-01-29_15h03.58.881,lexical_decision_task_DD_L2,2021.2.3,MacIntel,59.99880002,,,,,,,,,,,1.0723,1,,,,,,,,,,,,,,z,1,1.0723,,,,,,,,0.141106771,-0.142152778,0,0,0,,0,68,68,101,1,GLEET,LB,old,z,./images/GLEETLB.png,,,,,,,,,,,,,,,,,,,,,,
,,,,,,,,,,,,,,,,,199456,18,2022-01-29_15h03.58.881,lexical_decision_task_DD_L2,2021.2.3,MacIntel,59.99880002,,,,,,,,,,,1.4109,1,,,,,,,,,,,,,,m,1,1.4109,,,,,,,,0.141106771,-0.142152778,0,0,0,,0,69,69,12,1,SHORE,HB,old,m,./images/SHOREHB.png,,,,,,,,,,,,,,,,,,,,,,
,,,,,,,,,,,,,,,,,199456,18,2022-01-29_15h03.58.881,lexical_decision_task_DD_L2,2021.2.3,MacIntel,59.99880002,,,,,,,,,,,0.6031,1,,,,,,,,,,,,,,m,1,0.6031,,,,,,,,0.141106771,-0.142152778,0,0,0,,0,70,70,80,1,WEASEL,C,old,m,./images/WEASEL.png,,,,,,,,,,,,,,,,,,,,,,
,,,,,,,,,,,,,,,,,199456,18,2022-01-29_15h03.58.881,lexical_decision_task_DD_L2,2021.2.3,MacIntel,59.99880002,,,,,,,,,,,0.5382,1,,,,,,,,,,,,,,m,1,0.5382,,,,,,,,0.141106771,-0.142152778,0,0,0,,0,71,71,64,1,JELLY,LB,old,m,./images/JELLYLB.png,,,,,,,,,,,,,,,,,,,,,,
,,,,,,,,,,,,,,,,,199456,18,2022-01-29_15h03.58.881,lexical_decision_task_DD_L2,2021.2.3,MacIntel,59.99880002,,,,,,,,,,,1.3149,1,,,,,,,,,,,,,,z,1,1.3149,,,,,,,,0.141106771,-0.142152778,0,0,0,,0,72,72,91,1,SHENS,HB,old,z,./images/SHENSHB.png,,,,,,,,,,,,,,,,,,,,,,
,,,,,,,,,,,,,,,,,199456,18,2022-01-29_15h03.58.881,lexical_decision_task_DD_L2,2021.2.3,MacIntel,59.99880002,,,,,,,,,,,0.6357,1,,,,,,,,,,,,,,m,1,0.6357,,,,,,,,0.141106771,-0.142152778,0,0,0,,0,73,73,44,1,LIZARD,C,old,m,./images/LIZARD.png,,,,,,,,,,,,,,,,,,,,,,
,,,,,,,,,,,,,,,,,199456,18,2022-01-29_15h03.58.881,lexical_decision_task_DD_L2,2021.2.3,MacIntel,59.99880002,,,,,,,,,,,1.7567,1,,,,,,,,,,,,,,z,1,1.7567,,,,,,,,0.141106771,-0.142152778,0,0,0,,0,74,74,153,1,CLUPS,C,old,z,./images/CLUPS.png,,,,,,,,,,,,,,,,,,,,,,
,,,,,,,,,,,,,,,,,199456,18,2022-01-29_15h03.58.881,lexical_decision_task_DD_L2,2021.2.3,MacIntel,59.99880002,,,,,,,,,,,0.5899,1,,,,,,,,,,,,,,m,1,0.5899,,,,,,,,0.141106771,-0.142152778,0,0,0,,0,75,75,32,1,BARREL,C,old,m,./images/BARREL.png,,,,,,,,,,,,,,,,,,,,,,
,,,,,,,,,,,,,,,,,199456,18,2022-01-29_15h03.58.881,lexical_decision_task_DD_L2,2021.2.3,MacIntel,59.99880002,,,,,,,,,,,1.5353,1,,,,,,,,,,,,,,z,1,1.5353,,,,,,,,0.141106771,-0.142152778,0,0,0,,0,76,76,133,1,POWDY,HB,old,z,./images/POWDYHB.png,,,,,,,,,,,,,,,,,,,,,,
,,,,,,,,,,,,,,,,,199456,18,2022-01-29_15h03.58.881,lexical_decision_task_DD_L2,2021.2.3,MacIntel,59.99880002,,,,,,,,,,,1.036,1,,,,,,,,,,,,,,z,1,1.036,,,,,,,,0.141106771,-0.142152778,0,0,0,,0,77,77,148,1,JOMS,HB,old,z,./images/JOMSHB.png,,,,,,,,,,,,,,,,,,,,,,
,,,,,,,,,,,,,,,,,199456,18,2022-01-29_15h03.58.881,lexical_decision_task_DD_L2,2021.2.3,MacIntel,59.99880002,,,,,,,,,,,0.5332,1,,,,,,,,,,,,,,m,1,0.5332,,,,,,,,0.141106771,-0.142152778,0,0,0,,0,78,78,63,1,MIRROR,HB,old,m,./images/MIRRORHB.png,,,,,,,,,,,,,,,,,,,,,,
,,,,,,,,,,,,,,,,,199456,18,2022-01-29_15h03.58.881,lexical_decision_task_DD_L2,2021.2.3,MacIntel,59.99880002,,,,,,,,,,,0.6499,1,,,,,,,,,,,,,,m,1,0.6499,,,,,,,,0.141106771,-0.142152778,0,0,0,,0,79,79,10,1,BELLY,LB,old,m,./images/BELLYLB.png,,,,,,,,,,,,,,,,,,,,,,
,,,,,,,,,,,,,,,,,199456,18,2022-01-29_15h03.58.881,lexical_decision_task_DD_L2,2021.2.3,MacIntel,59.99880002,,,,,,,,,,,2.2674,1,,,,,,,,,,,,,,z,1,2.2674,,,,,,,,0.141106771,-0.142152778,0,0,0,,0,80,80,100,1,DRIBS,HB,old,z,./images/DRIBSHB.png,,,,,,,,,,,,,,,,,,,,,,
,,,,,,,,,,,,,,,,,199456,18,2022-01-29_15h03.58.881,lexical_decision_task_DD_L2,2021.2.3,MacIntel,59.99880002,,,,,,,,,,,1.2354,1,,,,,,,,,,,,,,z,1,1.2354,,,,,,,,0.141106771,-0.142152778,0,0,0,,0,81,81,103,1,FLORT,HB,old,z,./images/FLORTHB.png,,,,,,,,,,,,,,,,,,,,,,
,,,,,,,,,,,,,,,,,199456,18,2022-01-29_15h03.58.881,lexical_decision_task_DD_L2,2021.2.3,MacIntel,59.99880002,,,,,,,,,,,0.5855,1,,,,,,,,,,,,,,m,1,0.5855,,,,,,,,0.141106771,-0.142152778,0,0,0,,0,82,82,45,1,KITTEN,HB,old,m,./images/KITTENHB.png,,,,,,,,,,,,,,,,,,,,,,
,,,,,,,,,,,,,,,,,199456,18,2022-01-29_15h03.58.881,lexical_decision_task_DD_L2,2021.2.3,MacIntel,59.99880002,,,,,,,,,,,0.5461,1,,,,,,,,,,,,,,m,1,0.5461,,,,,,,,0.021475694,-0.382057292,1,0,0,,0,83,83,40,1,SWING,LB,old,m,./images/SWINGLB.png,break_done_button,,,,,,,,,,,,,,,,,,,,,
,,,,,,,,,,,,,,,,,199456,18,2022-01-29_15h03.58.881,lexical_decision_task_DD_L2,2021.2.3,MacIntel,59.99880002,,,,,,,,,,,0.8891,1,,,,,,,,,,,,,,m,1,0.8891,,,,,,,,0.021475694,-0.382057292,0,0,0,,0,84,84,8,1,TULIP,C,old,m,./images/TULIP.png,,,,,,,,,,,,,,,,,,,,,,
,,,,,,,,,,,,,,,,,199456,18,2022-01-29_15h03.58.881,lexical_decision_task_DD_L2,2021.2.3,MacIntel,59.99880002,,,,,,,,,,,0.7511,1,,,,,,,,,,,,,,m,1,0.7511,,,,,,,,0.021475694,-0.382057292,0,0,0,,0,85,85,81,1,POODLE,HB,old,m,./images/POODLEHB.png,,,,,,,,,,,,,,,,,,,,,,
,,,,,,,,,,,,,,,,,199456,18,2022-01-29_15h03.58.881,lexical_decision_task_DD_L2,2021.2.3,MacIntel,59.99880002,,,,,,,,,,,0.5069,1,,,,,,,,,,,,,,m,1,0.5069,,,,,,,,0.021475694,-0.382057292,0,0,0,,0,86,86,41,1,STRING,C,old,m,./images/STRING.png,,,,,,,,,,,,,,,,,,,,,,
,,,,,,,,,,,,,,,,,199456,18,2022-01-29_15h03.58.881,lexical_decision_task_DD_L2,2021.2.3,MacIntel,59.99880002,,,,,,,,,,,0.5311,1,,,,,,,,,,,,,,m,1,0.5311,,,,,,,,0.021475694,-0.382057292,0,0,0,,0,87,87,82,1,SUNSET,LB,old,m,./images/SUNSETLB.png,,,,,,,,,,,,,,,,,,,,,,
,,,,,,,,,,,,,,,,,199456,18,2022-01-29_15h03.58.881,lexical_decision_task_DD_L2,2021.2.3,MacIntel,59.99880002,,,,,,,,,,,0.6487,1,,,,,,,,,,,,,,m,1,0.6487,,,,,,,,0.021475694,-0.382057292,0,0,0,,0,88,88,66,1,SWEAT,HB,old,m,./images/SWEATHB.png,,,,,,,,,,,,,,,,,,,,,,
,,,,,,,,,,,,,,,,,199456,18,2022-01-29_15h03.58.881,lexical_decision_task_DD_L2,2021.2.3,MacIntel,59.99880002,,,,,,,,,,,1.5312,1,,,,,,,,,,,,,,z,1,1.5312,,,,,,,,0.021475694,-0.382057292,0,0,0,,0,89,89,151,1,TINKY,HB,old,z,./images/TINKYHB.png,,,,,,,,,,,,,,,,,,,,,,
,,,,,,,,,,,,,,,,,199456,18,2022-01-29_15h03.58.881,lexical_decision_task_DD_L2,2021.2.3,MacIntel,59.99880002,,,,,,,,,,,0.9366,1,,,,,,,,,,,,,,z,1,0.9366,,,,,,,,0.021475694,-0.382057292,0,0,0,,0,90,90,150,1,NOOLS,C,old,z,./images/NOOLS.png,,,,,,,,,,,,,,,,,,,,,,
,,,,,,,,,,,,,,,,,199456,18,2022-01-29_15h03.58.881,lexical_decision_task_DD_L2,2021.2.3,MacIntel,59.99880002,,,,,,,,,,,0.6269,1,,,,,,,,,,,,,,m,1,0.6269,,,,,,,,0.021475694,-0.382057292,0,0,0,,0,91,91,23,1,WALRUS,C,old,m,./images/WALRUS.png,,,,,,,,,,,,,,,,,,,,,,
,,,,,,,,,,,,,,,,,199456,18,2022-01-29_15h03.58.881,lexical_decision_task_DD_L2,2021.2.3,MacIntel,59.99880002,,,,,,,,,,,0.8287,1,,,,,,,,,,,,,,z,1,0.8287,,,,,,,,0.021475694,-0.382057292,0,0,0,,0,92,92,131,1,NACES,LB,old,z,./images/NACESLB.png,,,,,,,,,,,,,,,,,,,,,,
,,,,,,,,,,,,,,,,,199456,18,2022-01-29_15h03.58.881,lexical_decision_task_DD_L2,2021.2.3,MacIntel,59.99880002,,,,,,,,,,,2.1844,1,,,,,,,,,,,,,,z,1,2.1844,,,,,,,,0.021475694,-0.382057292,0,0,0,,0,93,93,139,1,BLEAR,HB,old,z,./images/BLEARHB.png,,,,,,,,,,,,,,,,,,,,,,
,,,,,,,,,,,,,,,,,199456,18,2022-01-29_15h03.58.881,lexical_decision_task_DD_L2,2021.2.3,MacIntel,59.99880002,,,,,,,,,,,1.2949,1,,,,,,,,,,,,,,z,1,1.2949,,,,,,,,0.021475694,-0.382057292,0,0,0,,0,94,94,158,1,EGECT,LB,old,z,./images/EGECTLB.png,,,,,,,,,,,,,,,,,,,,,,
,,,,,,,,,,,,,,,,,199456,18,2022-01-29_15h03.58.881,lexical_decision_task_DD_L2,2021.2.3,MacIntel,59.99880002,,,,,,,,,,,0.9453,1,,,,,,,,,,,,,,z,1,0.9453,,,,,,,,0.021475694,-0.382057292,0,0,0,,0,95,95,167,1,ZONET,LB,old,z,./images/ZONETLB.png,,,,,,,,,,,,,,,,,,,,,,
,,,,,,,,,,,,,,,,,199456,18,2022-01-29_15h03.58.881,lexical_decision_task_DD_L2,2021.2.3,MacIntel,59.99880002,,,,,,,,,,,1.1153,0,,,,,,,,,,,,,,z,0,1.1153,,,,,,,,0.021475694,-0.382057292,0,0,0,,0,96,96,16,1,PENCE,LB,old,m,./images/PENCELB.png,,,,,,,,,,,,,,,,,,,,,,
,,,,,,,,,,,,,,,,,199456,18,2022-01-29_15h03.58.881,lexical_decision_task_DD_L2,2021.2.3,MacIntel,59.99880002,,,,,,,,,,,1.1639,1,,,,,,,,,,,,,,m,1,1.1639,,,,,,,,0.021475694,-0.382057292,0,0,0,,0,97,97,43,1,MOSQUE,LB,old,m,./images/MOSQUELB.png,,,,,,,,,,,,,,,,,,,,,,
,,,,,,,,,,,,,,,,,199456,18,2022-01-29_15h03.58.881,lexical_decision_task_DD_L2,2021.2.3,MacIntel,59.99880002,,,,,,,,,,,1.2711,1,,,,,,,,,,,,,,z,1,1.2711,,,,,,,,0.021475694,-0.382057292,0,0,0,,0,98,98,106,1,CLUMS,HB,old,z,./images/CLUMSHB.png,,,,,,,,,,,,,,,,,,,,,,
,,,,,,,,,,,,,,,,,199456,18,2022-01-29_15h03.58.881,lexical_decision_task_DD_L2,2021.2.3,MacIntel,59.99880002,,,,,,,,,,,0.6947,1,,,,,,,,,,,,,,m,1,0.6947,,,,,,,,0.021475694,-0.382057292,0,0,0,,0,99,99,71,1,PIMPLE,C,old,m,./images/PIMPLE.png,,,,,,,,,,,,,,,,,,,,,,
,,,,,,,,,,,,,,,,,199456,18,2022-01-29_15h03.58.881,lexical_decision_task_DD_L2,2021.2.3,MacIntel,59.99880002,,,,,,,,,,,0.5581,1,,,,,,,,,,,,,,m,1,0.5581,,,,,,,,0.021475694,-0.382057292,0,0,0,,0,100,100,73,1,SNACK,LB,old,m,./images/SNACKLB.png,,,,,,,,,,,,,,,,,,,,,,
,,,,,,,,,,,,,,,,,199456,18,2022-01-29_15h03.58.881,lexical_decision_task_DD_L2,2021.2.3,MacIntel,59.99880002,,,,,,,,,,,0.574,1,,,,,,,,,,,,,,m,1,0.574,,,,,,,,0.021475694,-0.382057292,0,0,0,,0,101,101,7,1,PAINT,LB,old,m,./images/PAINTLB.png,,,,,,,,,,,,,,,,,,,,,,
,,,,,,,,,,,,,,,,,199456,18,2022-01-29_15h03.58.881,lexical_decision_task_DD_L2,2021.2.3,MacIntel,59.99880002,,,,,,,,,,,0.6658,1,,,,,,,,,,,,,,m,1,0.6658,,,,,,,,0.021475694,-0.382057292,0,0,0,,0,102,102,75,1,GRAIN,HB,old,m,./images/GRAINHB.png,,,,,,,,,,,,,,,,,,,,,,
,,,,,,,,,,,,,,,,,199456,18,2022-01-29_15h03.58.881,lexical_decision_task_DD_L2,2021.2.3,MacIntel,59.99880002,,,,,,,,,,,1.382,1,,,,,,,,,,,,,,z,1,1.382,,,,,,,,0.021475694,-0.382057292,0,0,0,,0,103,103,110,1,CRUNK,LB,old,z,./images/CRUNKLB.png,,,,,,,,,,,,,,,,,,,,,,
,,,,,,,,,,,,,,,,,199456,18,2022-01-29_15h03.58.881,lexical_decision_task_DD_L2,2021.2.3,MacIntel,59.99880002,,,,,,,,,,,0.747,1,,,,,,,,,,,,,,m,1,0.747,,,,,,,,0.021475694,-0.382057292,0,0,0,,0,104,104,31,1,QUILL,LB,old,m,./images/QUILLLB.png,,,,,,,,,,,,,,,,,,,,,,
,,,,,,,,,,,,,,,,,199456,18,2022-01-29_15h03.58.881,lexical_decision_task_DD_L2,2021.2.3,MacIntel,59.99880002,,,,,,,,,,,0.8319,1,,,,,,,,,,,,,,z,1,0.8319,,,,,,,,0.021475694,-0.382057292,0,0,0,,0,105,105,134,1,TROSS,LB,old,z,./images/TROSSLB.png,,,,,,,,,,,,,,,,,,,,,,
,,,,,,,,,,,,,,,,,199456,18,2022-01-29_15h03.58.881,lexical_decision_task_DD_L2,2021.2.3,MacIntel,59.99880002,,,,,,,,,,,1.6532,1,,,,,,,,,,,,,,m,1,1.6532,,,,,,,,0.021475694,-0.382057292,0,0,0,,0,106,106,11,1,BONNET,C,old,m,./images/BONNET.png,,,,,,,,,,,,,,,,,,,,,,
,,,,,,,,,,,,,,,,,199456,18,2022-01-29_15h03.58.881,lexical_decision_task_DD_L2,2021.2.3,MacIntel,59.99880002,,,,,,,,,,,0.6452,1,,,,,,,,,,,,,,m,1,0.6452,,,,,,,,0.021475694,-0.382057292,0,0,0,,0,107,107,21,1,KIDNEY,HB,old,m,./images/KIDNEYHB.png,,,,,,,,,,,,,,,,,,,,,,
,,,,,,,,,,,,,,,,,199456,18,2022-01-29_15h03.58.881,lexical_decision_task_DD_L2,2021.2.3,MacIntel,59.99880002,,,,,,,,,,,0.6488,1,,,,,,,,,,,,,,m,1,0.6488,,,,,,,,0.021475694,-0.382057292,0,0,0,,0,108,108,61,1,CANDLE,LB,old,m,./images/CANDLELB.png,,,,,,,,,,,,,,,,,,,,,,
,,,,,,,,,,,,,,,,,199456,18,2022-01-29_15h03.58.881,lexical_decision_task_DD_L2,2021.2.3,MacIntel,59.99880002,,,,,,,,,,,0.7448,1,,,,,,,,,,,,,,z,1,0.7448,,,,,,,,0.021475694,-0.382057292,0,0,0,,0,109,109,137,1,JOOST,LB,old,z,./images/JOOSTLB.png,,,,,,,,,,,,,,,,,,,,,,
,,,,,,,,,,,,,,,,,199456,18,2022-01-29_15h03.58.881,lexical_decision_task_DD_L2,2021.2.3,MacIntel,59.99880002,,,,,,,,,,,0.8168,1,,,,,,,,,,,,,,z,1,0.8168,,,,,,,,0.021475694,-0.382057292,0,0,0,,0,110,110,116,1,BALGY,LB,old,z,./images/BALGYLB.png,,,,,,,,,,,,,,,,,,,,,,
,,,,,,,,,,,,,,,,,199456,18,2022-01-29_15h03.58.881,lexical_decision_task_DD_L2,2021.2.3,MacIntel,59.99880002,,,,,,,,,,,1.4378,1,,,,,,,,,,,,,,z,1,1.4378,,,,,,,,0.021475694,-0.382057292,0,0,0,,0,111,111,114,1,RIKES,C,old,z,./images/RIKES.png,,,,,,,,,,,,,,,,,,,,,,
,,,,,,,,,,,,,,,,,199456,18,2022-01-29_15h03.58.881,lexical_decision_task_DD_L2,2021.2.3,MacIntel,59.99880002,,,,,,,,,,,0.7302,1,,,,,,,,,,,,,,z,1,0.7302,,,,,,,,0.021475694,-0.382057292,0,0,0,,0,112,112,143,1,MONGS,LB,old,z,./images/MONGSLB.png,,,,,,,,,,,,,,,,,,,,,,
,,,,,,,,,,,,,,,,,199456,18,2022-01-29_15h03.58.881,lexical_decision_task_DD_L2,2021.2.3,MacIntel,59.99880002,,,,,,,,,,,0.714,1,,,,,,,,,,,,,,z,1,0.714,,,,,,,,0.021475694,-0.382057292,0,0,0,,0,113,113,119,1,PAFER,LB,old,z,./images/PAFERLB.png,,,,,,,,,,,,,,,,,,,,,,
,,,,,,,,,,,,,,,,,199456,18,2022-01-29_15h03.58.881,lexical_decision_task_DD_L2,2021.2.3,MacIntel,59.99880002,,,,,,,,,,,0.724,1,,,,,,,,,,,,,,m,1,0.724,,,,,,,,0.021475694,-0.382057292,0,0,0,,0,114,114,20,1,CRADLE,C,old,m,./images/CRADLE.png,,,,,,,,,,,,,,,,,,,,,,
,,,,,,,,,,,,,,,,,199456,18,2022-01-29_15h03.58.881,lexical_decision_task_DD_L2,2021.2.3,MacIntel,59.99880002,,,,,,,,,,,1.3499,1,,,,,,,,,,,,,,z,1,1.3499,,,,,,,,0.021475694,-0.382057292,0,0,0,,0,115,115,94,1,BLANS,HB,old,z,./images/BLANSHB.png,,,,,,,,,,,,,,,,,,,,,,
,,,,,,,,,,,,,,,,,199456,18,2022-01-29_15h03.58.881,lexical_decision_task_DD_L2,2021.2.3,MacIntel,59.99880002,,,,,,,,,,,0.6709,1,,,,,,,,,,,,,,z,1,0.6709,,,,,,,,0.021475694,-0.382057292,0,0,0,,0,116,116,132,1,SCIFF,C,old,z,./images/SCIFF.png,,,,,,,,,,,,,,,,,,,,,,
,,,,,,,,,,,,,,,,,199456,18,2022-01-29_15h03.58.881,lexical_decision_task_DD_L2,2021.2.3,MacIntel,59.99880002,,,,,,,,,,,2.9563,1,,,,,,,,,,,,,,z,1,2.9563,,,,,,,,0.021475694,-0.382057292,0,0,0,,0,117,117,135,1,JOODY,C,old,z,./images/JOODY.png,,,,,,,,,,,,,,,,,,,,,,
,,,,,,,,,,,,,,,,,199456,18,2022-01-29_15h03.58.881,lexical_decision_task_DD_L2,2021.2.3,MacIntel,59.99880002,,,,,,,,,,,1.1541,1,,,,,,,,,,,,,,z,1,1.1541,,,,,,,,0.021475694,-0.382057292,0,0,0,,0,118,118,97,1,CHIDS,HB,old,z,./images/CHIDSHB.png,,,,,,,,,,,,,,,,,,,,,,
,,,,,,,,,,,,,,,,,199456,18,2022-01-29_15h03.58.881,lexical_decision_task_DD_L2,2021.2.3,MacIntel,59.99880002,,,,,,,,,,,0.6622,1,,,,,,,,,,,,,,z,1,0.6622,,,,,,,,0.021475694,-0.382057292,0,0,0,,0,119,119,108,1,GRUET,C,old,z,./images/GRUET.png,,,,,,,,,,,,,,,,,,,,,,
,,,,,,,,,,,,,,,,,199456,18,2022-01-29_15h03.58.881,lexical_decision_task_DD_L2,2021.2.3,MacIntel,59.99880002,,,,,,,,,,,0.9181,1,,,,,,,,,,,,,,m,1,0.9181,,,,,,,,0.021475694,-0.382057292,0,0,0,,0,120,120,59,1,BURIAL,C,old,m,./images/BURIAL.png,,,,,,,,,,,,,,,,,,,,,,
,,,,,,,,,,,,,,,,,199456,18,2022-01-29_15h03.58.881,lexical_decision_task_DD_L2,2021.2.3,MacIntel,59.99880002,,,,,,,,,,,0.8165,1,,,,,,,,,,,,,,m,1,0.8165,,,,,,,,0.021475694,-0.382057292,0,0,0,,0,121,121,0,1,TOMATO,HB,old,m,./images/TOMATOHB.png,,,,,,,,,,,,,,,,,,,,,,
,,,,,,,,,,,,,,,,,199456,18,2022-01-29_15h03.58.881,lexical_decision_task_DD_L2,2021.2.3,MacIntel,59.99880002,,,,,,,,,,,0.8985,1,,,,,,,,,,,,,,m,1,0.8985,,,,,,,,0.021475694,-0.382057292,0,0,0,,0,122,122,6,1,SQUARE,HB,old,m,./images/SQUAREHB.png,,,,,,,,,,,,,,,,,,,,,,
,,,,,,,,,,,,,,,,,199456,18,2022-01-29_15h03.58.881,lexical_decision_task_DD_L2,2021.2.3,MacIntel,59.99880002,,,,,,,,,,,4.0922,1,,,,,,,,,,,,,,z,1,4.0922,,,,,,,,0.021475694,-0.382057292,0,0,0,,0,123,123,87,1,TRING,C,old,z,./images/TRING.png,,,,,,,,,,,,,,,,,,,,,,
,,,,,,,,,,,,,,,,,199456,18,2022-01-29_15h03.58.881,lexical_decision_task_DD_L2,2021.2.3,MacIntel,59.99880002,,,,,,,,,,,0.7315,1,,,,,,,,,,,,,,m,1,0.7315,,,,,,,,0.021475694,-0.382057292,0,0,0,,0,124,124,60,1,TWINS,HB,old,m,./images/TWINSHB.png,,,,,,,,,,,,,,,,,,,,,,
,,,,,,,,,,,,,,,,,199456,18,2022-01-29_15h03.58.881,lexical_decision_task_DD_L2,2021.2.3,MacIntel,59.99880002,,,,,,,,,,,0.5503,1,,,,,,,,,,,,,,m,1,0.5503,,,,,,,,0.035564236,-0.370538194,1,0,0,,0,125,125,24,1,SCREW,HB,old,m,./images/SCREWHB.png,break_done_button,,,,,,,,,,,,,,,,,,,,,
,,,,,,,,,,,,,,,,,199456,18,2022-01-29_15h03.58.881,lexical_decision_task_DD_L2,2021.2.3,MacIntel,59.99880002,,,,,,,,,,,0.9113,1,,,,,,,,,,,,,,z,1,0.9113,,,,,,,,0.035564236,-0.370538194,0,0,0,,0,126,126,84,1,HAXES,C,old,z,./images/HAXES.png,,,,,,,,,,,,,,,,,,,,,,
,,,,,,,,,,,,,,,,,199456,18,2022-01-29_15h03.58.881,lexical_decision_task_DD_L2,2021.2.3,MacIntel,59.99880002,,,,,,,,,,,0.6189,1,,,,,,,,,,,,,,m,1,0.6189,,,,,,,,0.035564236,-0.370538194,0,0,0,,0,127,127,4,1,MUSCLE,LB,old,m,./images/MUSCLELB.png,,,,,,,,,,,,,,,,,,,,,,
,,,,,,,,,,,,,,,,,199456,18,2022-01-29_15h03.58.881,lexical_decision_task_DD_L2,2021.2.3,MacIntel,59.99880002,,,,,,,,,,,1.1466,1,,,,,,,,,,,,,,z,1,1.1466,,,,,,,,0.035564236,-0.370538194,0,0,0,,0,128,128,85,1,CHULK,HB,old,z,./images/CHULKHB.png,,,,,,,,,,,,,,,,,,,,,,
,,,,,,,,,,,,,,,,,199456,18,2022-01-29_15h03.58.881,lexical_decision_task_DD_L2,2021.2.3,MacIntel,59.99880002,,,,,,,,,,,0.5276,1,,,,,,,,,,,,,,m,1,0.5276,,,,,,,,0.035564236,-0.370538194,0,0,0,,0,129,129,29,1,CRUMB,C,old,m,./images/CRUMB.png,,,,,,,,,,,,,,,,,,,,,,
,,,,,,,,,,,,,,,,,199456,18,2022-01-29_15h03.58.881,lexical_decision_task_DD_L2,2021.2.3,MacIntel,59.99880002,,,,,,,,,,,0.557,1,,,,,,,,,,,,,,m,1,0.557,,,,,,,,0.035564236,-0.370538194,0,0,0,,0,130,130,35,1,PEACH,C,old,m,./images/PEACH.png,,,,,,,,,,,,,,,,,,,,,,
,,,,,,,,,,,,,,,,,199456,18,2022-01-29_15h03.58.881,lexical_decision_task_DD_L2,2021.2.3,MacIntel,59.99880002,,,,,,,,,,,0.7133,1,,,,,,,,,,,,,,m,1,0.7133,,,,,,,,0.035564236,-0.370538194,0,0,0,,0,131,131,25,1,WRIST,LB,old,m,./images/WRISTLB.png,,,,,,,,,,,,,,,,,,,,,,
,,,,,,,,,,,,,,,,,199456,18,2022-01-29_15h03.58.881,lexical_decision_task_DD_L2,2021.2.3,MacIntel,59.99880002,,,,,,,,,,,0.8676,1,,,,,,,,,,,,,,m,1,0.8676,,,,,,,,0.035564236,-0.370538194,0,0,0,,0,132,132,39,1,SHELF,HB,old,m,./images/SHELFHB.png,,,,,,,,,,,,,,,,,,,,,,
,,,,,,,,,,,,,,,,,199456,18,2022-01-29_15h03.58.881,lexical_decision_task_DD_L2,2021.2.3,MacIntel,59.99880002,,,,,,,,,,,0.8304,1,,,,,,,,,,,,,,z,1,0.8304,,,,,,,,0.035564236,-0.370538194,0,0,0,,0,133,133,125,1,MOOKY,LB,old,z,./images/MOOKYLB.png,,,,,,,,,,,,,,,,,,,,,,
,,,,,,,,,,,,,,,,,199456,18,2022-01-29_15h03.58.881,lexical_decision_task_DD_L2,2021.2.3,MacIntel,59.99880002,,,,,,,,,,,0.7883,1,,,,,,,,,,,,,,z,1,0.7883,,,,,,,,0.035564236,-0.370538194,0,0,0,,0,134,134,122,1,BLOOT,LB,old,z,./images/BLOOTLB.png,,,,,,,,,,,,,,,,,,,,,,
,,,,,,,,,,,,,,,,,199456,18,2022-01-29_15h03.58.881,lexical_decision_task_DD_L2,2021.2.3,MacIntel,59.99880002,,,,,,,,,,,1.1964,1,,,,,,,,,,,,,,z,1,1.1964,,,,,,,,0.035564236,-0.370538194,0,0,0,,0,135,135,121,1,CEERS,HB,old,z,./images/CEERSHB.png,,,,,,,,,,,,,,,,,,,,,,
,,,,,,,,,,,,,,,,,199456,18,2022-01-29_15h03.58.881,lexical_decision_task_DD_L2,2021.2.3,MacIntel,59.99880002,,,,,,,,,,,0.7393,1,,,,,,,,,,,,,,z,1,0.7393,,,,,,,,0.035564236,-0.370538194,0,0,0,,0,136,136,99,1,BACKY,C,old,z,./images/BACKY.png,,,,,,,,,,,,,,,,,,,,,,
,,,,,,,,,,,,,,,,,199456,18,2022-01-29_15h03.58.881,lexical_decision_task_DD_L2,2021.2.3,MacIntel,59.99880002,,,,,,,,,,,1.4321,1,,,,,,,,,,,,,,z,1,1.4321,,,,,,,,0.035564236,-0.370538194,0,0,0,,0,137,137,154,1,THINT,HB,old,z,./images/THINTHB.png,,,,,,,,,,,,,,,,,,,,,,
,,,,,,,,,,,,,,,,,199456,18,2022-01-29_15h03.58.881,lexical_decision_task_DD_L2,2021.2.3,MacIntel,59.99880002,,,,,,,,,,,0.8397,1,,,,,,,,,,,,,,z,1,0.8397,,,,,,,,0.035564236,-0.370538194,0,0,0,,0,138,138,165,1,TROWN,C,old,z,./images/TROWN.png,,,,,,,,,,,,,,,,,,,,,,
,,,,,,,,,,,,,,,,,199456,18,2022-01-29_15h03.58.881,lexical_decision_task_DD_L2,2021.2.3,MacIntel,59.99880002,,,,,,,,,,,1.2205,1,,,,,,,,,,,,,,z,1,1.2205,,,,,,,,0.035564236,-0.370538194,0,0,0,,0,139,139,157,1,INLER,HB,old,z,./images/INLERHB.png,,,,,,,,,,,,,,,,,,,,,,
,,,,,,,,,,,,,,,,,199456,18,2022-01-29_15h03.58.881,lexical_decision_task_DD_L2,2021.2.3,MacIntel,59.99880002,,,,,,,,,,,0.7403,1,,,,,,,,,,,,,,z,1,0.7403,,,,,,,,0.035564236,-0.370538194,0,0,0,,0,140,140,129,1,PRANS,C,old,z,./images/PRANS.png,,,,,,,,,,,,,,,,,,,,,,
,,,,,,,,,,,,,,,,,199456,18,2022-01-29_15h03.58.881,lexical_decision_task_DD_L2,2021.2.3,MacIntel,59.99880002,,,,,,,,,,,0.7741,1,,,,,,,,,,,,,,z,1,0.7741,,,,,,,,0.035564236,-0.370538194,0,0,0,,0,141,141,147,1,ZOLES,C,old,z,./images/ZOLES.png,,,,,,,,,,,,,,,,,,,,,,
,,,,,,,,,,,,,,,,,199456,18,2022-01-29_15h03.58.881,lexical_decision_task_DD_L2,2021.2.3,MacIntel,59.99880002,,,,,,,,,,,0.5695,1,,,,,,,,,,,,,,m,1,0.5695,,,,,,,,0.035564236,-0.370538194,0,0,0,,0,142,142,47,1,BERRY,C,old,m,./images/BERRY.png,,,,,,,,,,,,,,,,,,,,,,
,,,,,,,,,,,,,,,,,199456,18,2022-01-29_15h03.58.881,lexical_decision_task_DD_L2,2021.2.3,MacIntel,59.99880002,,,,,,,,,,,0.5483,1,,,,,,,,,,,,,,m,1,0.5483,,,,,,,,0.035564236,-0.370538194,0,0,0,,0,143,143,67,1,SAILOR,LB,old,m,./images/SAILORLB.png,,,,,,,,,,,,,,,,,,,,,,
,,,,,,,,,,,,,,,,,199456,18,2022-01-29_15h03.58.881,lexical_decision_task_DD_L2,2021.2.3,MacIntel,59.99880002,,,,,,,,,,,0.9471,1,,,,,,,,,,,,,,z,1,0.9471,,,,,,,,0.035564236,-0.370538194,0,0,0,,0,144,144,152,1,FRAIN,LB,old,z,./images/FRAINLB.png,,,,,,,,,,,,,,,,,,,,,,
,,,,,,,,,,,,,,,,,199456,18,2022-01-29_15h03.58.881,lexical_decision_task_DD_L2,2021.2.3,MacIntel,59.99880002,,,,,,,,,,,0.801,1,,,,,,,,,,,,,,z,1,0.801,,,,,,,,0.035564236,-0.370538194,0,0,0,,0,145,145,161,1,BLAPS,LB,old,z,./images/BLAPSLB.png,,,,,,,,,,,,,,,,,,,,,,
,,,,,,,,,,,,,,,,,199456,18,2022-01-29_15h03.58.881,lexical_decision_task_DD_L2,2021.2.3,MacIntel,59.99880002,,,,,,,,,,,0.6011,1,,,,,,,,,,,,,,z,1,0.6011,,,,,,,,0.035564236,-0.370538194,0,0,0,,0,146,146,90,1,NEAST,C,old,z,./images/NEAST.png,,,,,,,,,,,,,,,,,,,,,,
,,,,,,,,,,,,,,,,,199456,18,2022-01-29_15h03.58.881,lexical_decision_task_DD_L2,2021.2.3,MacIntel,59.99880002,,,,,,,,,,,0.73,1,,,,,,,,,,,,,,m,1,0.73,,,,,,,,0.035564236,-0.370538194,0,0,0,,0,147,147,9,1,RHINO,HB,old,m,./images/RHINOHB.png,,,,,,,,,,,,,,,,,,,,,,
,,,,,,,,,,,,,,,,,199456,18,2022-01-29_15h03.58.881,lexical_decision_task_DD_L2,2021.2.3,MacIntel,59.99880002,,,,,,,,,,,0.591,1,,,,,,,,,,,,,,m,1,0.591,,,,,,,,0.035564236,-0.370538194,0,0,0,,0,148,148,74,1,CEMENT,C,old,m,./images/CEMENT.png,,,,,,,,,,,,,,,,,,,,,,
,,,,,,,,,,,,,,,,,199456,18,2022-01-29_15h03.58.881,lexical_decision_task_DD_L2,2021.2.3,MacIntel,59.99880002,,,,,,,,,,,0.6806,1,,,,,,,,,,,,,,z,1,0.6806,,,,,,,,0.035564236,-0.370538194,0,0,0,,0,149,149,155,1,CANGY,LB,old,z,./images/CANGYLB.png,,,,,,,,,,,,,,,,,,,,,,
,,,,,,,,,,,,,,,,,199456,18,2022-01-29_15h03.58.881,lexical_decision_task_DD_L2,2021.2.3,MacIntel,59.99880002,,,,,,,,,,,0.7331,1,,,,,,,,,,,,,,m,1,0.7331,,,,,,,,0.035564236,-0.370538194,0,0,0,,0,150,150,3,1,FINGER,HB,old,m,./images/FINGERHB.png,,,,,,,,,,,,,,,,,,,,,,
,,,,,,,,,,,,,,,,,199456,18,2022-01-29_15h03.58.881,lexical_decision_task_DD_L2,2021.2.3,MacIntel,59.99880002,,,,,,,,,,,0.706,1,,,,,,,,,,,,,,z,1,0.706,,,,,,,,0.035564236,-0.370538194,0,0,0,,0,151,151,117,1,STEEG,C,old,z,./images/STEEG.png,,,,,,,,,,,,,,,,,,,,,,
,,,,,,,,,,,,,,,,,199456,18,2022-01-29_15h03.58.881,lexical_decision_task_DD_L2,2021.2.3,MacIntel,59.99880002,,,,,,,,,,,1.8072,0,,,,,,,,,,,,,,m,0,1.8072,,,,,,,,0.035564236,-0.370538194,0,0,0,,0,152,152,109,1,BURGE,HB,old,z,./images/BURGEHB.png,,,,,,,,,,,,,,,,,,,,,,
,,,,,,,,,,,,,,,,,199456,18,2022-01-29_15h03.58.881,lexical_decision_task_DD_L2,2021.2.3,MacIntel,59.99880002,,,,,,,,,,,0.4936,0,,,,,,,,,,,,,,z,0,0.4936,,,,,,,,0.035564236,-0.370538194,0,0,0,,0,153,153,14,1,PICKLE,C,old,m,./images/PICKLE.png,,,,,,,,,,,,,,,,,,,,,,
,,,,,,,,,,,,,,,,,199456,18,2022-01-29_15h03.58.881,lexical_decision_task_DD_L2,2021.2.3,MacIntel,59.99880002,,,,,,,,,,,3.8325,1,,,,,,,,,,,,,,z,1,3.8325,,,,,,,,0.035564236,-0.370538194,0,0,0,,0,154,154,166,1,SHORY,HB,old,z,./images/SHORYHB.png,,,,,,,,,,,,,,,,,,,,,,
,,,,,,,,,,,,,,,,,199456,18,2022-01-29_15h03.58.881,lexical_decision_task_DD_L2,2021.2.3,MacIntel,59.99880002,,,,,,,,,,,0.7494,1,,,,,,,,,,,,,,m,1,0.7494,,,,,,,,0.035564236,-0.370538194,0,0,0,,0,155,155,76,1,INFANT,LB,old,m,./images/INFANTLB.png,,,,,,,,,,,,,,,,,,,,,,
,,,,,,,,,,,,,,,,,199456,18,2022-01-29_15h03.58.881,lexical_decision_task_DD_L2,2021.2.3,MacIntel,59.99880002,,,,,,,,,,,0.7965,1,,,,,,,,,,,,,,m,1,0.7965,,,,,,,,0.035564236,-0.370538194,0,0,0,,0,156,156,34,1,CANYON,LB,old,m,./images/CANYONLB.png,,,,,,,,,,,,,,,,,,,,,,
,,,,,,,,,,,,,,,,,199456,18,2022-01-29_15h03.58.881,lexical_decision_task_DD_L2,2021.2.3,MacIntel,59.99880002,,,,,,,,,,,0.8257,1,,,,,,,,,,,,,,z,1,0.8257,,,,,,,,0.035564236,-0.370538194,0,0,0,,0,157,157,156,1,HIXES,C,old,z,./images/HIXES.png,,,,,,,,,,,,,,,,,,,,,,
,,,,,,,,,,,,,,,,,199456,18,2022-01-29_15h03.58.881,lexical_decision_task_DD_L2,2021.2.3,MacIntel,59.99880002,,,,,,,,,,,0.733,1,,,,,,,,,,,,,,m,1,0.733,,,,,,,,0.035564236,-0.370538194,0,0,0,,0,158,158,57,1,MOOSE,HB,old,m,./images/MOOSEHB.png,,,,,,,,,,,,,,,,,,,,,,
,,,,,,,,,,,,,,,,,199456,18,2022-01-29_15h03.58.881,lexical_decision_task_DD_L2,2021.2.3,MacIntel,59.99880002,,,,,,,,,,,1.2579,1,,,,,,,,,,,,,,z,1,1.2579,,,,,,,,0.035564236,-0.370538194,0,0,0,,0,159,159,142,1,PLASK,HB,old,z,./images/PLASKHB.png,,,,,,,,,,,,,,,,,,,,,,
,,,,,,,,,,,,,,,,,199456,18,2022-01-29_15h03.58.881,lexical_decision_task_DD_L2,2021.2.3,MacIntel,59.99880002,,,,,,,,,,,0.7483,1,,,,,,,,,,,,,,m,1,0.7483,,,,,,,,0.035564236,-0.370538194,0,0,0,,0,160,160,48,1,SPORT,HB,old,m,./images/SPORTHB.png,,,,,,,,,,,,,,,,,,,,,,
,,,,,,,,,,,,,,,,,199456,18,2022-01-29_15h03.58.881,lexical_decision_task_DD_L2,2021.2.3,MacIntel,59.99880002,,,,,,,,,,,0.7666,1,,,,,,,,,,,,,,m,1,0.7666,,,,,,,,0.035564236,-0.370538194,0,0,0,,0,161,161,15,1,GREASE,HB,old,m,./images/GREASEHB.png,,,,,,,,,,,,,,,,,,,,,,
,,,,,,,,,,,,,,,,,199456,18,2022-01-29_15h03.58.881,lexical_decision_task_DD_L2,2021.2.3,MacIntel,59.99880002,,,,,,,,,,,0.8015,1,,,,,,,,,,,,,,z,1,0.8015,,,,,,,,0.035564236,-0.370538194,0,0,0,,0,162,162,95,1,HANTY,LB,old,z,./images/HANTYLB.png,,,,,,,,,,,,,,,,,,,,,,
,,,,,,,,,,,,,,,,,199456,18,2022-01-29_15h03.58.881,lexical_decision_task_DD_L2,2021.2.3,MacIntel,59.99880002,,,,,,,,,,,0.9024,1,,,,,,,,,,,,,,m,1,0.9024,,,,,,,,0.035564236,-0.370538194,0,0,0,,0,163,163,2,1,BEARD,C,old,m,./images/BEARD.png,,,,,,,,,,,,,,,,,,,,,,
,,,,,,,,,,,,,,,,,199456,18,2022-01-29_15h03.58.881,lexical_decision_task_DD_L2,2021.2.3,MacIntel,59.99880002,,,,,,,,,,,0.817,1,,,,,,,,,,,,,,m,1,0.817,,,,,,,,0.035564236,-0.370538194,0,0,0,,0,164,164,52,1,BANNER,LB,old,m,./images/BANNERLB.png,,,,,,,,,,,,,,,,,,,,,,
,,,,,,,,,,,,,,,,,199456,18,2022-01-29_15h03.58.881,lexical_decision_task_DD_L2,2021.2.3,MacIntel,59.99880002,,,,,,,,,,,0.5517,1,,,,,,,,,,,,,,m,1,0.5517,,,,,,,,0.035564236,-0.370538194,0,0,0,,0,165,165,83,1,JUNGLE,C,old,m,./images/JUNGLE.png,,,,,,,,,,,,,,,,,,,,,,
,,,,,,,,,,,,,,,,,199456,18,2022-01-29_15h03.58.881,lexical_decision_task_DD_L2,2021.2.3,MacIntel,59.99880002,,,,,,,,,,,0.5654,1,,,,,,,,,,,,,,m,1,0.5654,,,,,,,,0.035564236,-0.370538194,0,0,0,,0,166,166,1,1,PLANK,LB,old,m,./images/PLANKLB.png,,,,,,,,,,,,,,,,,,,,,,
,,,,,,,,,,,,,,,,,199456,18,2022-01-29_15h03.58.881,lexical_decision_task_DD_L2,2021.2.3,MacIntel,59.99880002,,,,,,,,,,,1.0573,1,,,,,,,,,,,,,,m,1,1.0573,,,,,,,,0.035564236,-0.370538194,0,0,0,,0,167,167,55,1,MUFFIN,LB,old,m,./images/MUFFINLB.png,,,,,,,,,,,,,,,,,,,,,,
,-0.094739583,-0.384071181,1,0,0,instr_done_button,,,,,,1,test,"In the next phase you will be presented with the words from the the first phase. Your job is to decide whether you remember seeing the word or not. If you remember seeing the word press ""old"" or type ""m"". If you do not remember seeing the word press ""new"" or type ""z"". Please press the space bar or click on continue to begin. ",,,199456,18,2022-01-29_15h03.58.881,lexical_decision_task_DD_L2,2021.2.3,MacIntel,59.99880002,,,,,,,,,,,,,,,,,,,,,,,,,,,,,,,,,,,,,,,,,,,,,,,,,,,,,0,0,0,0,1,,,,,,,,,,,,,,,,
,-0.007686632,-0.399496528,1,0,0,instr_done_button,,,,,,1,test,"In the next phase you will be presented with the words from the the first phase. Your job is to decide whether you remember seeing the word or not. If you remember seeing the word press ""old"" or type ""m"". If you do not remember seeing the word press ""new"" or type ""z"". Please press the space bar or click on continue to begin. ",,,199456,18,2022-01-29_15h03.58.881,lexical_decision_task_DD_L2,2021.2.3,MacIntel,59.99880002,,,,,,,,,,,,,,,,,,,,,,,,,,,,,,,,,,,,,,,,,,,,,,,,,,,,,1,0,1,0,1,,,,,,,,,,,,,,,,
space,0.153138021,-0.043528646,0,0,0,,,,,,,1,test,"In the next phase you will be presented with the words from the the first phase. Your job is to decide whether you remember seeing the word or not. If you remember seeing the word press ""old"" or type ""m"". If you do not remember seeing the word press ""new"" or type ""z"". Please press the space bar or click on continue to begin. ",,,199456,18,2022-01-29_15h03.58.881,lexical_decision_task_DD_L2,2021.2.3,MacIntel,59.99880002,,,,,,,,,,,,,,,,,,,,,,,,,,,,,,,,,,,,,,,,,,,,,,,,,,,,,2,0,2,0,1,2.9766,,,,,,,,,,,,,,,
,0.026679688,-0.424752604,1,0,0,instr_done_button,,,,,,1,test,"In the next phase you will be presented with the words from the the first phase. Your job is to decide whether you remember seeing the word or not. If you remember seeing the word press ""old"" or type ""m"". If you do not remember seeing the word press ""new"" or type ""z"". Please press the space bar or click on continue to begin. ",,,199456,18,2022-01-29_15h03.58.881,lexical_decision_task_DD_L2,2021.2.3,MacIntel,59.99880002,,,,,,,,,,,,,,,,,,,,,,,,,,,,,,,,,,,,,,,,,,,,,,,,,,,,,3,0,3,0,1,,,,,,,,,,,,,,,,
,0.058055556,-0.367929687,1,0,0,instr_done_button,,,,,,1,test,"In the next phase you will be presented with the words from the the first phase. Your job is to decide whether you remember seeing the word or not. If you remember seeing the word press ""old"" or type ""m"". If you do not remember seeing the word press ""new"" or type ""z"". Please press the space bar or click on continue to begin. ",,,199456,18,2022-01-29_15h03.58.881,lexical_decision_task_DD_L2,2021.2.3,MacIntel,59.99880002,,,,,,,,,,,,,,,,,,,,,,,,,,,,,,,,,,,,,,,,,,,,,,,,,,,,,4,0,4,0,1,,,,,,,,,,,,,,,,
,,,,,,,,,,,,,,,,,199456,18,2022-01-29_15h03.58.881,lexical_decision_task_DD_L2,2021.2.3,MacIntel,59.99880002,,,,,,,,,,,2.3034,0,,,,,,,,,,,,,,,,,,,,,,,,0.192309028,-0.064817708,0,0,0,,,,,,,BASKET,C,z,y,./images/BASKET.png,,,,,,,,m,0,2.3034,,,,,,,,0,0,0,128,1
,,,,,,,,,,,,,,,,,199456,18,2022-01-29_15h03.58.881,lexical_decision_task_DD_L2,2021.2.3,MacIntel,59.99880002,,,,,,,,,,,0.6543,1,,,,,,,,,,,,,,,,,,,,,,,,0.192309028,-0.064817708,0,0,0,,,,,,,JUNGLE,C,m,y,./images/JUNGLE.png,,,,,,,,m,1,0.6543,,,,,,,,0,1,1,83,1
,,,,,,,,,,,,,,,,,199456,18,2022-01-29_15h03.58.881,lexical_decision_task_DD_L2,2021.2.3,MacIntel,59.99880002,,,,,,,,,,,0.8624,0,,,,,,,,,,,,,,,,,,,,,,,,0.192309028,-0.064817708,0,0,0,,,,,,,HOCKEY,C,z,y,./images/HOCKEY.png,,,,,,,,m,0,0.8624,,,,,,,,0,2,2,116,1
,,,,,,,,,,,,,,,,,199456,18,2022-01-29_15h03.58.881,lexical_decision_task_DD_L2,2021.2.3,MacIntel,59.99880002,,,,,,,,,,,1.5353,1,,,,,,,,,,,,,,,,,,,,,,,,0.192309028,-0.064817708,0,0,0,,,,,,,GARDEN,LB,z,y,./images/GARDENLB.png,,,,,,,,z,1,1.5353,,,,,,,,0,3,3,94,1
,,,,,,,,,,,,,,,,,199456,18,2022-01-29_15h03.58.881,lexical_decision_task_DD_L2,2021.2.3,MacIntel,59.99880002,,,,,,,,,,,1.0408,1,,,,,,,,,,,,,,,,,,,,,,,,0.192309028,-0.064817708,0,0,0,,,,,,,SWEAT,HB,m,y,./images/SWEATHB.png,,,,,,,,m,1,1.0408,,,,,,,,0,4,4,66,1
,,,,,,,,,,,,,,,,,199456,18,2022-01-29_15h03.58.881,lexical_decision_task_DD_L2,2021.2.3,MacIntel,59.99880002,,,,,,,,,,,1.0623,1,,,,,,,,,,,,,,,,,,,,,,,,0.192309028,-0.064817708,0,0,0,,,,,,,STATUE,HB,z,y,./images/STATUEHB.png,,,,,,,,z,1,1.0623,,,,,,,,0,5,5,150,1
,,,,,,,,,,,,,,,,,199456,18,2022-01-29_15h03.58.881,lexical_decision_task_DD_L2,2021.2.3,MacIntel,59.99880002,,,,,,,,,,,0.9856,0,,,,,,,,,,,,,,,,,,,,,,,,0.192309028,-0.064817708,0,0,0,,,,,,,COOKER,HB,m,y,./images/COOKERHB.png,,,,,,,,z,0,0.9856,,,,,,,,0,6,6,69,1
,,,,,,,,,,,,,,,,,199456,18,2022-01-29_15h03.58.881,lexical_decision_task_DD_L2,2021.2.3,MacIntel,59.99880002,,,,,,,,,,,0.8429,1,,,,,,,,,,,,,,,,,,,,,,,,0.192309028,-0.064817708,0,0,0,,,,,,,CLOUD,C,z,y,./images/CLOUD.png,,,,,,,,z,1,0.8429,,,,,,,,0,7,7,110,1
,,,,,,,,,,,,,,,,,199456,18,2022-01-29_15h03.58.881,lexical_decision_task_DD_L2,2021.2.3,MacIntel,59.99880002,,,,,,,,,,,1.0661,0,,,,,,,,,,,,,,,,,,,,,,,,0.192309028,-0.064817708,0,0,0,,,,,,,CLOTH,C,z,y,./images/CLOTH.png,,,,,,,,m,0,1.0661,,,,,,,,0,8,8,107,1
,,,,,,,,,,,,,,,,,199456,18,2022-01-29_15h03.58.881,lexical_decision_task_DD_L2,2021.2.3,MacIntel,59.99880002,,,,,,,,,,,2.3001,1,,,,,,,,,,,,,,,,,,,,,,,,0.192309028,-0.064817708,0,0,0,,,,,,,FOLDER,HB,m,y,./images/FOLDERHB.png,,,,,,,,m,1,2.3001,,,,,,,,0,9,9,42,1
,,,,,,,,,,,,,,,,,199456,18,2022-01-29_15h03.58.881,lexical_decision_task_DD_L2,2021.2.3,MacIntel,59.99880002,,,,,,,,,,,0.6212,1,,,,,,,,,,,,,,,,,,,,,,,,0.192309028,-0.064817708,0,0,0,,,,,,,SNACK,LB,m,y,./images/SNACKLB.png,,,,,,,,m,1,0.6212,,,,,,,,0,10,10,73,1
,,,,,,,,,,,,,,,,,199456,18,2022-01-29_15h03.58.881,lexical_decision_task_DD_L2,2021.2.3,MacIntel,59.99880002,,,,,,,,,,,1.0814,1,,,,,,,,,,,,,,,,,,,,,,,,0.192309028,-0.064817708,0,0,0,,,,,,,BUTTER,HB,z,y,./images/BUTTERHB.png,,,,,,,,z,1,1.0814,,,,,,,,0,11,11,111,1
,,,,,,,,,,,,,,,,,199456,18,2022-01-29_15h03.58.881,lexical_decision_task_DD_L2,2021.2.3,MacIntel,59.99880002,,,,,,,,,,,2.4005,1,,,,,,,,,,,,,,,,,,,,,,,,0.192309028,-0.064817708,0,0,0,,,,,,,SHIELD,HB,z,y,./images/SHIELDHB.png,,,,,,,,z,1,2.4005,,,,,,,,0,12,12,132,1
,,,,,,,,,,,,,,,,,199456,18,2022-01-29_15h03.58.881,lexical_decision_task_DD_L2,2021.2.3,MacIntel,59.99880002,,,,,,,,,,,1.4592,1,,,,,,,,,,,,,,,,,,,,,,,,0.192309028,-0.064817708,0,0,0,,,,,,,ENGINE,C,z,y,./images/ENGINE.png,,,,,,,,z,1,1.4592,,,,,,,,0,13,13,122,1
,,,,,,,,,,,,,,,,,199456,18,2022-01-29_15h03.58.881,lexical_decision_task_DD_L2,2021.2.3,MacIntel,59.99880002,,,,,,,,,,,1.2195,1,,,,,,,,,,,,,,,,,,,,,,,,0.192309028,-0.064817708,0,0,0,,,,,,,SWING,LB,m,y,./images/SWINGLB.png,,,,,,,,m,1,1.2195,,,,,,,,0,14,14,40,1
,,,,,,,,,,,,,,,,,199456,18,2022-01-29_15h03.58.881,lexical_decision_task_DD_L2,2021.2.3,MacIntel,59.99880002,,,,,,,,,,,0.7174,0,,,,,,,,,,,,,,,,,,,,,,,,0.192309028,-0.064817708,0,0,0,,,,,,,HAMMER,HB,z,y,./images/HAMMERHB.png,,,,,,,,m,0,0.7174,,,,,,,,0,15,15,159,1
,,,,,,,,,,,,,,,,,199456,18,2022-01-29_15h03.58.881,lexical_decision_task_DD_L2,2021.2.3,MacIntel,59.99880002,,,,,,,,,,,1.0325,1,,,,,,,,,,,,,,,,,,,,,,,,0.192309028,-0.064817708,0,0,0,,,,,,,SUNSET,LB,m,y,./images/SUNSETLB.png,,,,,,,,m,1,1.0325,,,,,,,,0,16,16,82,1
,,,,,,,,,,,,,,,,,199456,18,2022-01-29_15h03.58.881,lexical_decision_task_DD_L2,2021.2.3,MacIntel,59.99880002,,,,,,,,,,,2.3836,0,,,,,,,,,,,,,,,,,,,,,,,,0.192309028,-0.064817708,0,0,0,,,,,,,GLOVE,LB,z,y,./images/GLOVELB.png,,,,,,,,m,0,2.3836,,,,,,,,0,17,17,157,1
,,,,,,,,,,,,,,,,,199456,18,2022-01-29_15h03.58.881,lexical_decision_task_DD_L2,2021.2.3,MacIntel,59.99880002,,,,,,,,,,,1.8522,1,,,,,,,,,,,,,,,,,,,,,,,,0.192309028,-0.064817708,0,0,0,,,,,,,TRIPOD,HB,m,y,./images/TRIPODHB.png,,,,,,,,m,1,1.8522,,,,,,,,0,18,18,54,1
,,,,,,,,,,,,,,,,,199456,18,2022-01-29_15h03.58.881,lexical_decision_task_DD_L2,2021.2.3,MacIntel,59.99880002,,,,,,,,,,,1.3678,0,,,,,,,,,,,,,,,,,,,,,,,,0.192309028,-0.064817708,0,0,0,,,,,,,MUMMY,LB,z,y,./images/MUMMYLB.png,,,,,,,,m,0,1.3678,,,,,,,,0,19,19,130,1
,,,,,,,,,,,,,,,,,199456,18,2022-01-29_15h03.58.881,lexical_decision_task_DD_L2,2021.2.3,MacIntel,59.99880002,,,,,,,,,,,0.7317,0,,,,,,,,,,,,,,,,,,,,,,,,0.192309028,-0.064817708,0,0,0,,,,,,,MONKEY,HB,z,y,./images/MONKEYHB.png,,,,,,,,m,0,0.7317,,,,,,,,0,20,20,129,1
,,,,,,,,,,,,,,,,,199456,18,2022-01-29_15h03.58.881,lexical_decision_task_DD_L2,2021.2.3,MacIntel,59.99880002,,,,,,,,,,,0.8175,1,,,,,,,,,,,,,,,,,,,,,,,,0.192309028,-0.064817708,0,0,0,,,,,,,MOSQUE,LB,m,y,./images/MOSQUELB.png,,,,,,,,m,1,0.8175,,,,,,,,0,21,21,43,1
,,,,,,,,,,,,,,,,,199456,18,2022-01-29_15h03.58.881,lexical_decision_task_DD_L2,2021.2.3,MacIntel,59.99880002,,,,,,,,,,,0.684,0,,,,,,,,,,,,,,,,,,,,,,,,0.192309028,-0.064817708,0,0,0,,,,,,,WALNUT,HB,z,y,./images/WALNUTHB.png,,,,,,,,m,0,0.684,,,,,,,,0,22,22,84,1
,,,,,,,,,,,,,,,,,199456,18,2022-01-29_15h03.58.881,lexical_decision_task_DD_L2,2021.2.3,MacIntel,59.99880002,,,,,,,,,,,0.7402,1,,,,,,,,,,,,,,,,,,,,,,,,0.192309028,-0.064817708,0,0,0,,,,,,,PARADE,C,z,y,./images/PARADE.png,,,,,,,,z,1,0.7402,,,,,,,,0,23,23,101,1
,,,,,,,,,,,,,,,,,199456,18,2022-01-29_15h03.58.881,lexical_decision_task_DD_L2,2021.2.3,MacIntel,59.99880002,,,,,,,,,,,0.7749,1,,,,,,,,,,,,,,,,,,,,,,,,0.192309028,-0.064817708,0,0,0,,,,,,,BURIAL,C,m,y,./images/BURIAL.png,,,,,,,,m,1,0.7749,,,,,,,,0,24,24,59,1
,,,,,,,,,,,,,,,,,199456,18,2022-01-29_15h03.58.881,lexical_decision_task_DD_L2,2021.2.3,MacIntel,59.99880002,,,,,,,,,,,0.5981,1,,,,,,,,,,,,,,,,,,,,,,,,0.192309028,-0.064817708,0,0,0,,,,,,,GREASE,HB,m,y,./images/GREASEHB.png,,,,,,,,m,1,0.5981,,,,,,,,0,25,25,15,1
,,,,,,,,,,,,,,,,,199456,18,2022-01-29_15h03.58.881,lexical_decision_task_DD_L2,2021.2.3,MacIntel,59.99880002,,,,,,,,,,,2.6665,1,,,,,,,,,,,,,,,,,,,,,,,,0.192309028,-0.064817708,0,0,0,,,,,,,BOXER,LB,z,y,./images/BOXERLB.png,,,,,,,,z,1,2.6665,,,,,,,,0,26,26,88,1
,,,,,,,,,,,,,,,,,199456,18,2022-01-29_15h03.58.881,lexical_decision_task_DD_L2,2021.2.3,MacIntel,59.99880002,,,,,,,,,,,3.3637,0,,,,,,,,,,,,,,,,,,,,,,,,0.192309028,-0.064817708,0,0,0,,,,,,,STOOL,LB,z,y,./images/STOOLLB.png,,,,,,,,m,0,3.3637,,,,,,,,0,27,27,127,1
,,,,,,,,,,,,,,,,,199456,18,2022-01-29_15h03.58.881,lexical_decision_task_DD_L2,2021.2.3,MacIntel,59.99880002,,,,,,,,,,,0.7155,1,,,,,,,,,,,,,,,,,,,,,,,,0.192309028,-0.064817708,0,0,0,,,,,,,MEDAL,C,z,y,./images/MEDAL.png,,,,,,,,z,1,0.7155,,,,,,,,0,28,28,95,1
,,,,,,,,,,,,,,,,,199456,18,2022-01-29_15h03.58.881,lexical_decision_task_DD_L2,2021.2.3,MacIntel,59.99880002,,,,,,,,,,,0.8339,1,,,,,,,,,,,,,,,,,,,,,,,,0.192309028,-0.064817708,0,0,0,,,,,,,PASTA,C,m,y,./images/PASTA.png,,,,,,,,m,1,0.8339,,,,,,,,0,29,29,5,1
,,,,,,,,,,,,,,,,,199456,18,2022-01-29_15h03.58.881,lexical_decision_task_DD_L2,2021.2.3,MacIntel,59.99880002,,,,,,,,,,,0.9989,1,,,,,,,,,,,,,,,,,,,,,,,,0.192309028,-0.064817708,0,0,0,,,,,,,SHORE,HB,m,y,./images/SHOREHB.png,,,,,,,,m,1,0.9989,,,,,,,,0,30,30,12,1
,,,,,,,,,,,,,,,,,199456,18,2022-01-29_15h03.58.881,lexical_decision_task_DD_L2,2021.2.3,MacIntel,59.99880002,,,,,,,,,,,1.8181,1,,,,,,,,,,,,,,,,,,,,,,,,0.192309028,-0.064817708,0,0,0,,,,,,,BLOKE,HB,z,y,./images/BLOKEHB.png,,,,,,,,z,1,1.8181,,,,,,,,0,31,31,96,1
,,,,,,,,,,,,,,,,,199456,18,2022-01-29_15h03.58.881,lexical_decision_task_DD_L2,2021.2.3,MacIntel,59.99880002,,,,,,,,,,,0.5678,1,,,,,,,,,,,,,,,,,,,,,,,,0.192309028,-0.064817708,0,0,0,,,,,,,RHINO,HB,m,y,./images/RHINOHB.png,,,,,,,,m,1,0.5678,,,,,,,,0,32,32,9,1
,,,,,,,,,,,,,,,,,199456,18,2022-01-29_15h03.58.881,lexical_decision_task_DD_L2,2021.2.3,MacIntel,59.99880002,,,,,,,,,,,0.5541,1,,,,,,,,,,,,,,,,,,,,,,,,0.192309028,-0.064817708,0,0,0,,,,,,,PLANK,LB,m,y,./images/PLANKLB.png,,,,,,,,m,1,0.5541,,,,,,,,0,33,33,1,1
,,,,,,,,,,,,,,,,,199456,18,2022-01-29_15h03.58.881,lexical_decision_task_DD_L2,2021.2.3,MacIntel,59.99880002,,,,,,,,,,,0.8258,1,,,,,,,,,,,,,,,,,,,,,,,,0.192309028,-0.064817708,0,0,0,,,,,,,VALLEY,C,z,y,./images/VALLEY.png,,,,,,,,z,1,0.8258,,,,,,,,0,34,34,152,1
,,,,,,,,,,,,,,,,,199456,18,2022-01-29_15h03.58.881,lexical_decision_task_DD_L2,2021.2.3,MacIntel,59.99880002,,,,,,,,,,,0.9888,0,,,,,,,,,,,,,,,,,,,,,,,,0.192309028,-0.064817708,0,0,0,,,,,,,TIGER,LB,z,y,./images/TIGERLB.png,,,,,,,,m,0,0.9888,,,,,,,,0,35,35,121,1
,,,,,,,,,,,,,,,,,199456,18,2022-01-29_15h03.58.881,lexical_decision_task_DD_L2,2021.2.3,MacIntel,59.99880002,,,,,,,,,,,0.7081,1,,,,,,,,,,,,,,,,,,,,,,,,0.192309028,-0.064817708,0,0,0,,,,,,,POODLE,HB,m,y,./images/POODLEHB.png,,,,,,,,m,1,0.7081,,,,,,,,0,36,36,81,1
,,,,,,,,,,,,,,,,,199456,18,2022-01-29_15h03.58.881,lexical_decision_task_DD_L2,2021.2.3,MacIntel,59.99880002,,,,,,,,,,,0.8574,1,,,,,,,,,,,,,,,,,,,,,,,,0.192309028,-0.064817708,0,0,0,,,,,,,STAIN,HB,z,y,./images/STAINHB.png,,,,,,,,z,1,0.8574,,,,,,,,0,37,37,90,1
,,,,,,,,,,,,,,,,,199456,18,2022-01-29_15h03.58.881,lexical_decision_task_DD_L2,2021.2.3,MacIntel,59.99880002,,,,,,,,,,,1.9515,1,,,,,,,,,,,,,,,,,,,,,,,,0.192309028,-0.064817708,0,0,0,,,,,,,LLAMA,C,z,y,./images/LLAMA.png,,,,,,,,z,1,1.9515,,,,,,,,0,38,38,119,1
,,,,,,,,,,,,,,,,,199456,18,2022-01-29_15h03.58.881,lexical_decision_task_DD_L2,2021.2.3,MacIntel,59.99880002,,,,,,,,,,,0.8005,1,,,,,,,,,,,,,,,,,,,,,,,,0.192309028,-0.064817708,0,0,0,,,,,,,CASINO,LB,z,y,./images/CASINOLB.png,,,,,,,,z,1,0.8005,,,,,,,,0,39,39,112,1
,,,,,,,,,,,,,,,,,199456,18,2022-01-29_15h03.58.881,lexical_decision_task_DD_L2,2021.2.3,MacIntel,59.99880002,,,,,,,,,,,0.8362,1,,,,,,,,,,,,,,,,,,,,,,,,0.192309028,-0.064817708,0,0,0,,,,,,,BUNNY,LB,z,y,./images/BUNNYLB.png,,,,,,,,z,1,0.8362,,,,,,,,0,40,40,97,1
,,,,,,,,,,,,,,,,,199456,18,2022-01-29_15h03.58.881,lexical_decision_task_DD_L2,2021.2.3,MacIntel,59.99880002,,,,,,,,,,,1.5737,1,,,,,,,,,,,,,,,,,,,,,,,,0.079891493,-0.411770833,1,0,0,,,,,,,BABOON,LB,m,y,./images/BABOONLB.png,break_done_button,,,,,,,m,1,1.5737,,,,,,,,0,41,41,58,1
,,,,,,,,,,,,,,,,,199456,18,2022-01-29_15h03.58.881,lexical_decision_task_DD_L2,2021.2.3,MacIntel,59.99880002,,,,,,,,,,,1.5035,0,,,,,,,,,,,,,,,,,,,,,,,,0.170282118,-0.1221875,0,0,0,,,,,,,CARPET,C,m,y,./images/CARPET.png,,,,,,,,z,0,1.5035,,,,,,,,0,42,42,53,1
,,,,,,,,,,,,,,,,,199456,18,2022-01-29_15h03.58.881,lexical_decision_task_DD_L2,2021.2.3,MacIntel,59.99880002,,,,,,,,,,,0.7855,1,,,,,,,,,,,,,,,,,,,,,,,,0.170282118,-0.1221875,0,0,0,,,,,,,ARROW,HB,z,y,./images/ARROWHB.png,,,,,,,,z,1,0.7855,,,,,,,,0,43,43,153,1
,,,,,,,,,,,,,,,,,199456,18,2022-01-29_15h03.58.881,lexical_decision_task_DD_L2,2021.2.3,MacIntel,59.99880002,,,,,,,,,,,0.6738,1,,,,,,,,,,,,,,,,,,,,,,,,0.170282118,-0.1221875,0,0,0,,,,,,,BARREL,C,m,y,./images/BARREL.png,,,,,,,,m,1,0.6738,,,,,,,,0,44,44,32,1
,,,,,,,,,,,,,,,,,199456,18,2022-01-29_15h03.58.881,lexical_decision_task_DD_L2,2021.2.3,MacIntel,59.99880002,,,,,,,,,,,0.8491,1,,,,,,,,,,,,,,,,,,,,,,,,0.170282118,-0.1221875,0,0,0,,,,,,,WHEEL,C,z,y,./images/WHEEL.png,,,,,,,,z,1,0.8491,,,,,,,,0,45,45,161,1
,,,,,,,,,,,,,,,,,199456,18,2022-01-29_15h03.58.881,lexical_decision_task_DD_L2,2021.2.3,MacIntel,59.99880002,,,,,,,,,,,0.9539,0,,,,,,,,,,,,,,,,,,,,,,,,0.170282118,-0.1221875,0,0,0,,,,,,,SMOKER,C,m,y,./images/SMOKER.png,,,,,,,,z,0,0.9539,,,,,,,,0,46,46,26,1
,,,,,,,,,,,,,,,,,199456,18,2022-01-29_15h03.58.881,lexical_decision_task_DD_L2,2021.2.3,MacIntel,59.99880002,,,,,,,,,,,0.7346,1,,,,,,,,,,,,,,,,,,,,,,,,0.170282118,-0.1221875,0,0,0,,,,,,,MAGGOT,HB,m,y,./images/MAGGOTHB.png,,,,,,,,m,1,0.7346,,,,,,,,0,47,47,33,1
,,,,,,,,,,,,,,,,,199456,18,2022-01-29_15h03.58.881,lexical_decision_task_DD_L2,2021.2.3,MacIntel,59.99880002,,,,,,,,,,,0.5247,0,,,,,,,,,,,,,,,,,,,,,,,,0.170282118,-0.1221875,0,0,0,,,,,,,STOVE,C,z,y,./images/STOVE.png,,,,,,,,m,0,0.5247,,,,,,,,0,48,48,86,1
,,,,,,,,,,,,,,,,,199456,18,2022-01-29_15h03.58.881,lexical_decision_task_DD_L2,2021.2.3,MacIntel,59.99880002,,,,,,,,,,,0.7407,1,,,,,,,,,,,,,,,,,,,,,,,,0.170282118,-0.1221875,0,0,0,,,,,,,KITTEN,HB,m,y,./images/KITTENHB.png,,,,,,,,m,1,0.7407,,,,,,,,0,49,49,45,1
,,,,,,,,,,,,,,,,,199456,18,2022-01-29_15h03.58.881,lexical_decision_task_DD_L2,2021.2.3,MacIntel,59.99880002,,,,,,,,,,,1.0243,1,,,,,,,,,,,,,,,,,,,,,,,,0.170282118,-0.1221875,0,0,0,,,,,,,JUMPER,C,z,y,./images/JUMPER.png,,,,,,,,z,1,1.0243,,,,,,,,0,50,50,158,1
,,,,,,,,,,,,,,,,,199456,18,2022-01-29_15h03.58.881,lexical_decision_task_DD_L2,2021.2.3,MacIntel,59.99880002,,,,,,,,,,,0.6301,1,,,,,,,,,,,,,,,,,,,,,,,,0.170282118,-0.1221875,0,0,0,,,,,,,GRANNY,C,z,y,./images/GRANNY.png,,,,,,,,z,1,0.6301,,,,,,,,0,51,51,104,1
,,,,,,,,,,,,,,,,,199456,18,2022-01-29_15h03.58.881,lexical_decision_task_DD_L2,2021.2.3,MacIntel,59.99880002,,,,,,,,,,,0.7381,1,,,,,,,,,,,,,,,,,,,,,,,,0.170282118,-0.1221875,0,0,0,,,,,,,GRAPE,LB,z,y,./images/GRAPELB.png,,,,,,,,z,1,0.7381,,,,,,,,0,52,52,100,1
,,,,,,,,,,,,,,,,,199456,18,2022-01-29_15h03.58.881,lexical_decision_task_DD_L2,2021.2.3,MacIntel,59.99880002,,,,,,,,,,,0.6697,1,,,,,,,,,,,,,,,,,,,,,,,,0.170282118,-0.1221875,0,0,0,,,,,,,POKER,LB,z,y,./images/POKERLB.png,,,,,,,,z,1,0.6697,,,,,,,,0,53,53,151,1
,,,,,,,,,,,,,,,,,199456,18,2022-01-29_15h03.58.881,lexical_decision_task_DD_L2,2021.2.3,MacIntel,59.99880002,,,,,,,,,,,1.167,0,,,,,,,,,,,,,,,,,,,,,,,,0.170282118,-0.1221875,0,0,0,,,,,,,SCREW,HB,m,y,./images/SCREWHB.png,,,,,,,,z,0,1.167,,,,,,,,0,54,54,24,1
,,,,,,,,,,,,,,,,,199456,18,2022-01-29_15h03.58.881,lexical_decision_task_DD_L2,2021.2.3,MacIntel,59.99880002,,,,,,,,,,,0.8543,1,,,,,,,,,,,,,,,,,,,,,,,,0.170282118,-0.1221875,0,0,0,,,,,,,PEACH,C,m,y,./images/PEACH.png,,,,,,,,m,1,0.8543,,,,,,,,0,55,55,35,1
,,,,,,,,,,,,,,,,,199456,18,2022-01-29_15h03.58.881,lexical_decision_task_DD_L2,2021.2.3,MacIntel,59.99880002,,,,,,,,,,,0.7823,0,,,,,,,,,,,,,,,,,,,,,,,,0.170282118,-0.1221875,0,0,0,,,,,,,QUILL,LB,m,y,./images/QUILLLB.png,,,,,,,,z,0,0.7823,,,,,,,,0,56,56,31,1
,,,,,,,,,,,,,,,,,199456,18,2022-01-29_15h03.58.881,lexical_decision_task_DD_L2,2021.2.3,MacIntel,59.99880002,,,,,,,,,,,0.8253,1,,,,,,,,,,,,,,,,,,,,,,,,0.170282118,-0.1221875,0,0,0,,,,,,,CRADLE,C,m,y,./images/CRADLE.png,,,,,,,,m,1,0.8253,,,,,,,,0,57,57,20,1
,,,,,,,,,,,,,,,,,199456,18,2022-01-29_15h03.58.881,lexical_decision_task_DD_L2,2021.2.3,MacIntel,59.99880002,,,,,,,,,,,1.1172,0,,,,,,,,,,,,,,,,,,,,,,,,0.170282118,-0.1221875,0,0,0,,,,,,,CRATER,HB,z,y,./images/CRATERHB.png,,,,,,,,m,0,1.1172,,,,,,,,0,58,58,87,1
,,,,,,,,,,,,,,,,,199456,18,2022-01-29_15h03.58.881,lexical_decision_task_DD_L2,2021.2.3,MacIntel,59.99880002,,,,,,,,,,,0.8174,1,,,,,,,,,,,,,,,,,,,,,,,,0.170282118,-0.1221875,0,0,0,,,,,,,MAMMAL,C,z,y,./images/MAMMAL.png,,,,,,,,z,1,0.8174,,,,,,,,0,59,59,146,1
,,,,,,,,,,,,,,,,,199456,18,2022-01-29_15h03.58.881,lexical_decision_task_DD_L2,2021.2.3,MacIntel,59.99880002,,,,,,,,,,,1.1985,1,,,,,,,,,,,,,,,,,,,,,,,,0.170282118,-0.1221875,0,0,0,,,,,,,LADDER,C,m,y,./images/LADDER.png,,,,,,,,m,1,1.1985,,,,,,,,0,60,60,38,1
,,,,,,,,,,,,,,,,,199456,18,2022-01-29_15h03.58.881,lexical_decision_task_DD_L2,2021.2.3,MacIntel,59.99880002,,,,,,,,,,,0.7654,0,,,,,,,,,,,,,,,,,,,,,,,,0.170282118,-0.1221875,0,0,0,,,,,,,FINGER,HB,m,y,./images/FINGERHB.png,,,,,,,,z,0,0.7654,,,,,,,,0,61,61,3,1
,,,,,,,,,,,,,,,,,199456,18,2022-01-29_15h03.58.881,lexical_decision_task_DD_L2,2021.2.3,MacIntel,59.99880002,,,,,,,,,,,1.5179,1,,,,,,,,,,,,,,,,,,,,,,,,0.170282118,-0.1221875,0,0,0,,,,,,,CLIFF,C,z,y,./images/CLIFF.png,,,,,,,,z,1,1.5179,,,,,,,,0,62,62,92,1
,,,,,,,,,,,,,,,,,199456,18,2022-01-29_15h03.58.881,lexical_decision_task_DD_L2,2021.2.3,MacIntel,59.99880002,,,,,,,,,,,0.8341,1,,,,,,,,,,,,,,,,,,,,,,,,0.170282118,-0.1221875,0,0,0,,,,,,,STORM,HB,m,y,./images/STORMHB.png,,,,,,,,m,1,0.8341,,,,,,,,0,63,63,30,1
,,,,,,,,,,,,,,,,,199456,18,2022-01-29_15h03.58.881,lexical_decision_task_DD_L2,2021.2.3,MacIntel,59.99880002,,,,,,,,,,,0.9532,1,,,,,,,,,,,,,,,,,,,,,,,,0.170282118,-0.1221875,0,0,0,,,,,,,FENCE,C,z,y,./images/FENCE.png,,,,,,,,z,1,0.9532,,,,,,,,0,64,64,98,1
,,,,,,,,,,,,,,,,,199456,18,2022-01-29_15h03.58.881,lexical_decision_task_DD_L2,2021.2.3,MacIntel,59.99880002,,,,,,,,,,,2.265,0,,,,,,,,,,,,,,,,,,,,,,,,0.170282118,-0.1221875,0,0,0,,,,,,,CRUST,LB,m,y,./images/CRUSTLB.png,,,,,,,,z,0,2.265,,,,,,,,0,65,65,79,1
,,,,,,,,,,,,,,,,,199456,18,2022-01-29_15h03.58.881,lexical_decision_task_DD_L2,2021.2.3,MacIntel,59.99880002,,,,,,,,,,,1.0665,1,,,,,,,,,,,,,,,,,,,,,,,,0.170282118,-0.1221875,0,0,0,,,,,,,FARMER,C,m,y,./images/FARMER.png,,,,,,,,m,1,1.0665,,,,,,,,0,66,66,65,1
,,,,,,,,,,,,,,,,,199456,18,2022-01-29_15h03.58.881,lexical_decision_task_DD_L2,2021.2.3,MacIntel,59.99880002,,,,,,,,,,,0.639,1,,,,,,,,,,,,,,,,,,,,,,,,0.170282118,-0.1221875,0,0,0,,,,,,,STRING,C,m,y,./images/STRING.png,,,,,,,,m,1,0.639,,,,,,,,0,67,67,41,1
,,,,,,,,,,,,,,,,,199456,18,2022-01-29_15h03.58.881,lexical_decision_task_DD_L2,2021.2.3,MacIntel,59.99880002,,,,,,,,,,,0.7833,0,,,,,,,,,,,,,,,,,,,,,,,,0.170282118,-0.1221875,0,0,0,,,,,,,MUSCLE,LB,m,y,./images/MUSCLELB.png,,,,,,,,z,0,0.7833,,,,,,,,0,68,68,4,1
,,,,,,,,,,,,,,,,,199456,18,2022-01-29_15h03.58.881,lexical_decision_task_DD_L2,2021.2.3,MacIntel,59.99880002,,,,,,,,,,,1.5228,1,,,,,,,,,,,,,,,,,,,,,,,,0.170282118,-0.1221875,0,0,0,,,,,,,KIDNEY,HB,m,y,./images/KIDNEYHB.png,,,,,,,,m,1,1.5228,,,,,,,,0,69,69,21,1
,,,,,,,,,,,,,,,,,199456,18,2022-01-29_15h03.58.881,lexical_decision_task_DD_L2,2021.2.3,MacIntel,59.99880002,,,,,,,,,,,0.7372,1,,,,,,,,,,,,,,,,,,,,,,,,0.170282118,-0.1221875,0,0,0,,,,,,,PARCEL,HB,z,y,./images/PARCELHB.png,,,,,,,,z,1,0.7372,,,,,,,,0,70,70,102,1
,,,,,,,,,,,,,,,,,199456,18,2022-01-29_15h03.58.881,lexical_decision_task_DD_L2,2021.2.3,MacIntel,59.99880002,,,,,,,,,,,0.7828,0,,,,,,,,,,,,,,,,,,,,,,,,0.170282118,-0.1221875,0,0,0,,,,,,,SAILOR,LB,m,y,./images/SAILORLB.png,,,,,,,,z,0,0.7828,,,,,,,,0,71,71,67,1
,,,,,,,,,,,,,,,,,199456,18,2022-01-29_15h03.58.881,lexical_decision_task_DD_L2,2021.2.3,MacIntel,59.99880002,,,,,,,,,,,1.0219,1,,,,,,,,,,,,,,,,,,,,,,,,0.170282118,-0.1221875,0,0,0,,,,,,,FALCON,LB,m,y,./images/FALCONLB.png,,,,,,,,m,1,1.0219,,,,,,,,0,72,72,28,1
,,,,,,,,,,,,,,,,,199456,18,2022-01-29_15h03.58.881,lexical_decision_task_DD_L2,2021.2.3,MacIntel,59.99880002,,,,,,,,,,,0.8688,1,,,,,,,,,,,,,,,,,,,,,,,,0.170282118,-0.1221875,0,0,0,,,,,,,WALRUS,C,m,y,./images/WALRUS.png,,,,,,,,m,1,0.8688,,,,,,,,0,73,73,23,1
,,,,,,,,,,,,,,,,,199456,18,2022-01-29_15h03.58.881,lexical_decision_task_DD_L2,2021.2.3,MacIntel,59.99880002,,,,,,,,,,,1.3589,1,,,,,,,,,,,,,,,,,,,,,,,,0.170282118,-0.1221875,0,0,0,,,,,,,PENCE,LB,m,y,./images/PENCELB.png,,,,,,,,m,1,1.3589,,,,,,,,0,74,74,16,1
,,,,,,,,,,,,,,,,,199456,18,2022-01-29_15h03.58.881,lexical_decision_task_DD_L2,2021.2.3,MacIntel,59.99880002,,,,,,,,,,,0.6917,1,,,,,,,,,,,,,,,,,,,,,,,,0.170282118,-0.1221875,0,0,0,,,,,,,SPORT,HB,m,y,./images/SPORTHB.png,,,,,,,,m,1,0.6917,,,,,,,,0,75,75,48,1
,,,,,,,,,,,,,,,,,199456,18,2022-01-29_15h03.58.881,lexical_decision_task_DD_L2,2021.2.3,MacIntel,59.99880002,,,,,,,,,,,0.6334,1,,,,,,,,,,,,,,,,,,,,,,,,0.170282118,-0.1221875,0,0,0,,,,,,,POSTER,C,z,y,./images/POSTER.png,,,,,,,,z,1,0.6334,,,,,,,,0,76,76,137,1
,,,,,,,,,,,,,,,,,199456,18,2022-01-29_15h03.58.881,lexical_decision_task_DD_L2,2021.2.3,MacIntel,59.99880002,,,,,,,,,,,0.9827,0,,,,,,,,,,,,,,,,,,,,,,,,0.170282118,-0.1221875,0,0,0,,,,,,,RULER,LB,z,y,./images/RULERLB.png,,,,,,,,m,0,0.9827,,,,,,,,0,77,77,163,1
,,,,,,,,,,,,,,,,,199456,18,2022-01-29_15h03.58.881,lexical_decision_task_DD_L2,2021.2.3,MacIntel,59.99880002,,,,,,,,,,,0.6916,1,,,,,,,,,,,,,,,,,,,,,,,,0.170282118,-0.1221875,0,0,0,,,,,,,ARTIST,LB,z,y,./images/ARTISTLB.png,,,,,,,,z,1,0.6916,,,,,,,,0,78,78,145,1
,,,,,,,,,,,,,,,,,199456,18,2022-01-29_15h03.58.881,lexical_decision_task_DD_L2,2021.2.3,MacIntel,59.99880002,,,,,,,,,,,0.935,1,,,,,,,,,,,,,,,,,,,,,,,,0.170282118,-0.1221875,0,0,0,,,,,,,FLESH,HB,z,y,./images/FLESHHB.png,,,,,,,,z,1,0.935,,,,,,,,0,79,79,108,1
,,,,,,,,,,,,,,,,,199456,18,2022-01-29_15h03.58.881,lexical_decision_task_DD_L2,2021.2.3,MacIntel,59.99880002,,,,,,,,,,,1.0819,0,,,,,,,,,,,,,,,,,,,,,,,,0.170282118,-0.1221875,0,0,0,,,,,,,INFANT,LB,m,y,./images/INFANTLB.png,,,,,,,,z,0,1.0819,,,,,,,,0,80,80,76,1
,,,,,,,,,,,,,,,,,199456,18,2022-01-29_15h03.58.881,lexical_decision_task_DD_L2,2021.2.3,MacIntel,59.99880002,,,,,,,,,,,1.1391,0,,,,,,,,,,,,,,,,,,,,,,,,0.170282118,-0.1221875,0,0,0,,,,,,,BELLY,LB,m,y,./images/BELLYLB.png,,,,,,,,z,0,1.1391,,,,,,,,0,81,81,10,1
,,,,,,,,,,,,,,,,,199456,18,2022-01-29_15h03.58.881,lexical_decision_task_DD_L2,2021.2.3,MacIntel,59.99880002,,,,,,,,,,,1.0899,1,,,,,,,,,,,,,,,,,,,,,,,,0.170282118,-0.1221875,0,0,0,,,,,,,WAGON,LB,z,y,./images/WAGONLB.png,,,,,,,,z,1,1.0899,,,,,,,,0,82,82,91,1
,,,,,,,,,,,,,,,,,199456,18,2022-01-29_15h03.58.881,lexical_decision_task_DD_L2,2021.2.3,MacIntel,59.99880002,,,,,,,,,,,1.4825,0,,,,,,,,,,,,,,,,,,,,,,,,0.111766493,-0.394500868,1,0,0,,,,,,,DRILL,HB,z,y,./images/DRILLHB.png,break_done_button,,,,,,,m,0,1.4825,,,,,,,,0,83,83,165,1
,,,,,,,,,,,,,,,,,199456,18,2022-01-29_15h03.58.881,lexical_decision_task_DD_L2,2021.2.3,MacIntel,59.99880002,,,,,,,,,,,1.1327,1,,,,,,,,,,,,,,,,,,,,,,,,0.163615451,-0.098272569,0,0,0,,,,,,,DIVER,HB,z,y,./images/DIVERHB.png,,,,,,,,z,1,1.1327,,,,,,,,0,84,84,93,1
,,,,,,,,,,,,,,,,,199456,18,2022-01-29_15h03.58.881,lexical_decision_task_DD_L2,2021.2.3,MacIntel,59.99880002,,,,,,,,,,,0.8812,1,,,,,,,,,,,,,,,,,,,,,,,,0.163615451,-0.098272569,0,0,0,,,,,,,PEBBLE,LB,z,y,./images/PEBBLELB.png,,,,,,,,z,1,0.8812,,,,,,,,0,85,85,166,1
,,,,,,,,,,,,,,,,,199456,18,2022-01-29_15h03.58.881,lexical_decision_task_DD_L2,2021.2.3,MacIntel,59.99880002,,,,,,,,,,,0.6184,1,,,,,,,,,,,,,,,,,,,,,,,,0.163615451,-0.098272569,0,0,0,,,,,,,MALLET,C,m,y,./images/MALLET.png,,,,,,,,m,1,0.6184,,,,,,,,0,86,86,50,1
,,,,,,,,,,,,,,,,,199456,18,2022-01-29_15h03.58.881,lexical_decision_task_DD_L2,2021.2.3,MacIntel,59.99880002,,,,,,,,,,,0.8175,1,,,,,,,,,,,,,,,,,,,,,,,,0.163615451,-0.098272569,0,0,0,,,,,,,PIMPLE,C,m,y,./images/PIMPLE.png,,,,,,,,m,1,0.8175,,,,,,,,0,87,87,71,1
,,,,,,,,,,,,,,,,,199456,18,2022-01-29_15h03.58.881,lexical_decision_task_DD_L2,2021.2.3,MacIntel,59.99880002,,,,,,,,,,,0.7678,0,,,,,,,,,,,,,,,,,,,,,,,,0.163615451,-0.098272569,0,0,0,,,,,,,CANDLE,LB,m,y,./images/CANDLELB.png,,,,,,,,z,0,0.7678,,,,,,,,0,88,88,61,1
,,,,,,,,,,,,,,,,,199456,18,2022-01-29_15h03.58.881,lexical_decision_task_DD_L2,2021.2.3,MacIntel,59.99880002,,,,,,,,,,,0.8514,0,,,,,,,,,,,,,,,,,,,,,,,,0.163615451,-0.098272569,0,0,0,,,,,,,BEARD,C,m,y,./images/BEARD.png,,,,,,,,z,0,0.8514,,,,,,,,0,89,89,2,1
,,,,,,,,,,,,,,,,,199456,18,2022-01-29_15h03.58.881,lexical_decision_task_DD_L2,2021.2.3,MacIntel,59.99880002,,,,,,,,,,,0.8495,1,,,,,,,,,,,,,,,,,,,,,,,,0.163615451,-0.098272569,0,0,0,,,,,,,FERRY,HB,z,y,./images/FERRYHB.png,,,,,,,,z,1,0.8495,,,,,,,,0,90,90,141,1
,,,,,,,,,,,,,,,,,199456,18,2022-01-29_15h03.58.881,lexical_decision_task_DD_L2,2021.2.3,MacIntel,59.99880002,,,,,,,,,,,0.9368,1,,,,,,,,,,,,,,,,,,,,,,,,0.163615451,-0.098272569,0,0,0,,,,,,,PEARL,LB,m,y,./images/PEARLLB.png,,,,,,,,m,1,0.9368,,,,,,,,0,91,91,46,1
,,,,,,,,,,,,,,,,,199456,18,2022-01-29_15h03.58.881,lexical_decision_task_DD_L2,2021.2.3,MacIntel,59.99880002,,,,,,,,,,,0.7837,1,,,,,,,,,,,,,,,,,,,,,,,,0.163615451,-0.098272569,0,0,0,,,,,,,CHALK,LB,z,y,./images/CHALKLB.png,,,,,,,,z,1,0.7837,,,,,,,,0,92,92,109,1
,,,,,,,,,,,,,,,,,199456,18,2022-01-29_15h03.58.881,lexical_decision_task_DD_L2,2021.2.3,MacIntel,59.99880002,,,,,,,,,,,1.0353,1,,,,,,,,,,,,,,,,,,,,,,,,0.163615451,-0.098272569,0,0,0,,,,,,,THROAT,HB,m,y,./images/THROATHB.png,,,,,,,,m,1,1.0353,,,,,,,,0,93,93,36,1
,,,,,,,,,,,,,,,,,199456,18,2022-01-29_15h03.58.881,lexical_decision_task_DD_L2,2021.2.3,MacIntel,59.99880002,,,,,,,,,,,0.9667,1,,,,,,,,,,,,,,,,,,,,,,,,0.163615451,-0.098272569,0,0,0,,,,,,,CANYON,LB,m,y,./images/CANYONLB.png,,,,,,,,m,1,0.9667,,,,,,,,0,94,94,34,1
,,,,,,,,,,,,,,,,,199456,18,2022-01-29_15h03.58.881,lexical_decision_task_DD_L2,2021.2.3,MacIntel,59.99880002,,,,,,,,,,,1.0756,1,,,,,,,,,,,,,,,,,,,,,,,,0.163615451,-0.098272569,0,0,0,,,,,,,SAUNA,HB,z,y,./images/SAUNAHB.png,,,,,,,,z,1,1.0756,,,,,,,,0,95,95,117,1
,,,,,,,,,,,,,,,,,199456,18,2022-01-29_15h03.58.881,lexical_decision_task_DD_L2,2021.2.3,MacIntel,59.99880002,,,,,,,,,,,0.8894,1,,,,,,,,,,,,,,,,,,,,,,,,0.163615451,-0.098272569,0,0,0,,,,,,,PLANET,C,z,y,./images/PLANET.png,,,,,,,,z,1,0.8894,,,,,,,,0,96,96,164,1
,,,,,,,,,,,,,,,,,199456,18,2022-01-29_15h03.58.881,lexical_decision_task_DD_L2,2021.2.3,MacIntel,59.99880002,,,,,,,,,,,0.4671,1,,,,,,,,,,,,,,,,,,,,,,,,0.163615451,-0.098272569,0,0,0,,,,,,,STREAM,C,z,y,./images/STREAM.png,,,,,,,,z,1,0.4671,,,,,,,,0,97,97,125,1
,,,,,,,,,,,,,,,,,199456,18,2022-01-29_15h03.58.881,lexical_decision_task_DD_L2,2021.2.3,MacIntel,59.99880002,,,,,,,,,,,0.8655,1,,,,,,,,,,,,,,,,,,,,,,,,0.163615451,-0.098272569,0,0,0,,,,,,,SKIING,C,m,y,./images/SKIING.png,,,,,,,,m,1,0.8655,,,,,,,,0,98,98,17,1
,,,,,,,,,,,,,,,,,199456,18,2022-01-29_15h03.58.881,lexical_decision_task_DD_L2,2021.2.3,MacIntel,59.99880002,,,,,,,,,,,0.6399,0,,,,,,,,,,,,,,,,,,,,,,,,0.163615451,-0.098272569,0,0,0,,,,,,,FLASK,HB,z,y,./images/FLASKHB.png,,,,,,,,m,0,0.6399,,,,,,,,0,99,99,156,1
,,,,,,,,,,,,,,,,,199456,18,2022-01-29_15h03.58.881,lexical_decision_task_DD_L2,2021.2.3,MacIntel,59.99880002,,,,,,,,,,,1.2164,1,,,,,,,,,,,,,,,,,,,,,,,,0.163615451,-0.098272569,0,0,0,,,,,,,DANCER,HB,z,y,./images/DANCERHB.png,,,,,,,,z,1,1.2164,,,,,,,,0,100,100,105,1
,,,,,,,,,,,,,,,,,199456,18,2022-01-29_15h03.58.881,lexical_decision_task_DD_L2,2021.2.3,MacIntel,59.99880002,,,,,,,,,,,0.7867,1,,,,,,,,,,,,,,,,,,,,,,,,0.163615451,-0.098272569,0,0,0,,,,,,,SPINE,C,z,y,./images/SPINE.png,,,,,,,,z,1,0.7867,,,,,,,,0,101,101,149,1
,,,,,,,,,,,,,,,,,199456,18,2022-01-29_15h03.58.881,lexical_decision_task_DD_L2,2021.2.3,MacIntel,59.99880002,,,,,,,,,,,0.9005,0,,,,,,,,,,,,,,,,,,,,,,,,0.163615451,-0.098272569,0,0,0,,,,,,,BAKER,HB,z,y,./images/BAKERHB.png,,,,,,,,m,0,0.9005,,,,,,,,0,102,102,147,1
,,,,,,,,,,,,,,,,,199456,18,2022-01-29_15h03.58.881,lexical_decision_task_DD_L2,2021.2.3,MacIntel,59.99880002,,,,,,,,,,,1.501,1,,,,,,,,,,,,,,,,,,,,,,,,0.163615451,-0.098272569,0,0,0,,,,,,,BROOM,HB,z,y,./images/BROOMHB.png,,,,,,,,z,1,1.501,,,,,,,,0,103,103,162,1
,,,,,,,,,,,,,,,,,199456,18,2022-01-29_15h03.58.881,lexical_decision_task_DD_L2,2021.2.3,MacIntel,59.99880002,,,,,,,,,,,0.7991,0,,,,,,,,,,,,,,,,,,,,,,,,0.163615451,-0.098272569,0,0,0,,,,,,,DESERT,LB,z,y,./images/DESERTLB.png,,,,,,,,m,0,0.7991,,,,,,,,0,104,104,136,1
,,,,,,,,,,,,,,,,,199456,18,2022-01-29_15h03.58.881,lexical_decision_task_DD_L2,2021.2.3,MacIntel,59.99880002,,,,,,,,,,,0.6169,1,,,,,,,,,,,,,,,,,,,,,,,,0.163615451,-0.098272569,0,0,0,,,,,,,COUCH,C,m,y,./images/COUCH.png,,,,,,,,m,1,0.6169,,,,,,,,0,105,105,77,1
,,,,,,,,,,,,,,,,,199456,18,2022-01-29_15h03.58.881,lexical_decision_task_DD_L2,2021.2.3,MacIntel,59.99880002,,,,,,,,,,,0.883,0,,,,,,,,,,,,,,,,,,,,,,,,0.163615451,-0.098272569,0,0,0,,,,,,,TOMATO,HB,m,y,./images/TOMATOHB.png,,,,,,,,z,0,0.883,,,,,,,,0,106,106,0,1
,,,,,,,,,,,,,,,,,199456,18,2022-01-29_15h03.58.881,lexical_decision_task_DD_L2,2021.2.3,MacIntel,59.99880002,,,,,,,,,,,0.981,1,,,,,,,,,,,,,,,,,,,,,,,,0.163615451,-0.098272569,0,0,0,,,,,,,BONNET,C,m,y,./images/BONNET.png,,,,,,,,m,1,0.981,,,,,,,,0,107,107,11,1
,,,,,,,,,,,,,,,,,199456,18,2022-01-29_15h03.58.881,lexical_decision_task_DD_L2,2021.2.3,MacIntel,59.99880002,,,,,,,,,,,0.8414,0,,,,,,,,,,,,,,,,,,,,,,,,0.163615451,-0.098272569,0,0,0,,,,,,,LAGOON,C,z,y,./images/LAGOON.png,,,,,,,,m,0,0.8414,,,,,,,,0,108,108,131,1
,,,,,,,,,,,,,,,,,199456,18,2022-01-29_15h03.58.881,lexical_decision_task_DD_L2,2021.2.3,MacIntel,59.99880002,,,,,,,,,,,0.8539,1,,,,,,,,,,,,,,,,,,,,,,,,0.163615451,-0.098272569,0,0,0,,,,,,,PAINT,LB,m,y,./images/PAINTLB.png,,,,,,,,m,1,0.8539,,,,,,,,0,109,109,7,1
,,,,,,,,,,,,,,,,,199456,18,2022-01-29_15h03.58.881,lexical_decision_task_DD_L2,2021.2.3,MacIntel,59.99880002,,,,,,,,,,,0.6858,1,,,,,,,,,,,,,,,,,,,,,,,,0.163615451,-0.098272569,0,0,0,,,,,,,CLOWN,LB,z,y,./images/CLOWNLB.png,,,,,,,,z,1,0.6858,,,,,,,,0,110,110,106,1
,,,,,,,,,,,,,,,,,199456,18,2022-01-29_15h03.58.881,lexical_decision_task_DD_L2,2021.2.3,MacIntel,59.99880002,,,,,,,,,,,0.7223,1,,,,,,,,,,,,,,,,,,,,,,,,0.163615451,-0.098272569,0,0,0,,,,,,,BOILER,HB,z,y,./images/BOILERHB.png,,,,,,,,z,1,0.7223,,,,,,,,0,111,111,120,1
,,,,,,,,,,,,,,,,,199456,18,2022-01-29_15h03.58.881,lexical_decision_task_DD_L2,2021.2.3,MacIntel,59.99880002,,,,,,,,,,,0.9655,1,,,,,,,,,,,,,,,,,,,,,,,,0.163615451,-0.098272569,0,0,0,,,,,,,GRAIN,HB,m,y,./images/GRAINHB.png,,,,,,,,m,1,0.9655,,,,,,,,0,112,112,75,1
,,,,,,,,,,,,,,,,,199456,18,2022-01-29_15h03.58.881,lexical_decision_task_DD_L2,2021.2.3,MacIntel,59.99880002,,,,,,,,,,,0.6997,1,,,,,,,,,,,,,,,,,,,,,,,,0.163615451,-0.098272569,0,0,0,,,,,,,TULIP,C,m,y,./images/TULIP.png,,,,,,,,m,1,0.6997,,,,,,,,0,113,113,8,1
,,,,,,,,,,,,,,,,,199456,18,2022-01-29_15h03.58.881,lexical_decision_task_DD_L2,2021.2.3,MacIntel,59.99880002,,,,,,,,,,,1.3496,1,,,,,,,,,,,,,,,,,,,,,,,,0.163615451,-0.098272569,0,0,0,,,,,,,CHERRY,HB,z,y,./images/CHERRYHB.png,,,,,,,,z,1,1.3496,,,,,,,,0,114,114,138,1
,,,,,,,,,,,,,,,,,199456,18,2022-01-29_15h03.58.881,lexical_decision_task_DD_L2,2021.2.3,MacIntel,59.99880002,,,,,,,,,,,0.6744,1,,,,,,,,,,,,,,,,,,,,,,,,0.163615451,-0.098272569,0,0,0,,,,,,,NOOSE,HB,m,y,./images/NOOSEHB.png,,,,,,,,m,1,0.6744,,,,,,,,0,115,115,72,1
,,,,,,,,,,,,,,,,,199456,18,2022-01-29_15h03.58.881,lexical_decision_task_DD_L2,2021.2.3,MacIntel,59.99880002,,,,,,,,,,,0.8176,1,,,,,,,,,,,,,,,,,,,,,,,,0.163615451,-0.098272569,0,0,0,,,,,,,LIZARD,C,m,y,./images/LIZARD.png,,,,,,,,m,1,0.8176,,,,,,,,0,116,116,44,1
,,,,,,,,,,,,,,,,,199456,18,2022-01-29_15h03.58.881,lexical_decision_task_DD_L2,2021.2.3,MacIntel,59.99880002,,,,,,,,,,,0.6003,1,,,,,,,,,,,,,,,,,,,,,,,,0.163615451,-0.098272569,0,0,0,,,,,,,HEATER,C,z,y,./images/HEATER.png,,,,,,,,z,1,0.6003,,,,,,,,0,117,117,140,1
,,,,,,,,,,,,,,,,,199456,18,2022-01-29_15h03.58.881,lexical_decision_task_DD_L2,2021.2.3,MacIntel,59.99880002,,,,,,,,,,,0.8326,1,,,,,,,,,,,,,,,,,,,,,,,,0.163615451,-0.098272569,0,0,0,,,,,,,SLOPE,HB,z,y,./images/SLOPEHB.png,,,,,,,,z,1,0.8326,,,,,,,,0,118,118,114,1
,,,,,,,,,,,,,,,,,199456,18,2022-01-29_15h03.58.881,lexical_decision_task_DD_L2,2021.2.3,MacIntel,59.99880002,,,,,,,,,,,1.367,1,,,,,,,,,,,,,,,,,,,,,,,,0.163615451,-0.098272569,0,0,0,,,,,,,BRUSH,C,z,y,./images/BRUSH.png,,,,,,,,z,1,1.367,,,,,,,,0,119,119,143,1
,,,,,,,,,,,,,,,,,199456,18,2022-01-29_15h03.58.881,lexical_decision_task_DD_L2,2021.2.3,MacIntel,59.99880002,,,,,,,,,,,0.7249,1,,,,,,,,,,,,,,,,,,,,,,,,0.163615451,-0.098272569,0,0,0,,,,,,,SAUCE,HB,z,y,./images/SAUCEHB.png,,,,,,,,z,1,0.7249,,,,,,,,0,120,120,135,1
,,,,,,,,,,,,,,,,,199456,18,2022-01-29_15h03.58.881,lexical_decision_task_DD_L2,2021.2.3,MacIntel,59.99880002,,,,,,,,,,,0.9665,1,,,,,,,,,,,,,,,,,,,,,,,,0.163615451,-0.098272569,0,0,0,,,,,,,TOWEL,LB,z,y,./images/TOWELLB.png,,,,,,,,z,1,0.9665,,,,,,,,0,121,121,85,1
,,,,,,,,,,,,,,,,,199456,18,2022-01-29_15h03.58.881,lexical_decision_task_DD_L2,2021.2.3,MacIntel,59.99880002,,,,,,,,,,,0.6312,1,,,,,,,,,,,,,,,,,,,,,,,,0.163615451,-0.098272569,0,0,0,,,,,,,BRIDE,LB,z,y,./images/BRIDELB.png,,,,,,,,z,1,0.6312,,,,,,,,0,122,122,148,1
,,,,,,,,,,,,,,,,,199456,18,2022-01-29_15h03.58.881,lexical_decision_task_DD_L2,2021.2.3,MacIntel,59.99880002,,,,,,,,,,,0.6724,1,,,,,,,,,,,,,,,,,,,,,,,,0.163615451,-0.098272569,0,0,0,,,,,,,RAZOR,LB,z,y,./images/RAZORLB.png,,,,,,,,z,1,0.6724,,,,,,,,0,123,123,118,1
,,,,,,,,,,,,,,,,,199456,18,2022-01-29_15h03.58.881,lexical_decision_task_DD_L2,2021.2.3,MacIntel,59.99880002,,,,,,,,,,,0.884,1,,,,,,,,,,,,,,,,,,,,,,,,0.163615451,-0.098272569,0,0,0,,,,,,,SNAKE,LB,z,y,./images/SNAKELB.png,,,,,,,,z,1,0.884,,,,,,,,0,124,124,124,1
,,,,,,,,,,,,,,,,,199456,18,2022-01-29_15h03.58.881,lexical_decision_task_DD_L2,2021.2.3,MacIntel,59.99880002,,,,,,,,,,,1.1433,0,,,,,,,,,,,,,,,,,,,,,,,,0.141367187,-0.391050347,1,0,0,,,,,,,BISHOP,LB,z,y,./images/BISHOPLB.png,break_done_button,,,,,,,m,0,1.1433,,,,,,,,0,125,125,133,1
,,,,,,,,,,,,,,,,,199456,18,2022-01-29_15h03.58.881,lexical_decision_task_DD_L2,2021.2.3,MacIntel,59.99880002,,,,,,,,,,,0.7786,0,,,,,,,,,,,,,,,,,,,,,,,,0.141367187,-0.391050347,0,0,0,,,,,,,TWINS,HB,m,y,./images/TWINSHB.png,,,,,,,,z,0,0.7786,,,,,,,,0,126,126,60,1
,,,,,,,,,,,,,,,,,199456,18,2022-01-29_15h03.58.881,lexical_decision_task_DD_L2,2021.2.3,MacIntel,59.99880002,,,,,,,,,,,1.437,1,,,,,,,,,,,,,,,,,,,,,,,,0.141367187,-0.391050347,0,0,0,,,,,,,CANDY,HB,z,y,./images/CANDYHB.png,,,,,,,,z,1,1.437,,,,,,,,0,127,127,123,1
,,,,,,,,,,,,,,,,,199456,18,2022-01-29_15h03.58.881,lexical_decision_task_DD_L2,2021.2.3,MacIntel,59.99880002,,,,,,,,,,,0.6161,0,,,,,,,,,,,,,,,,,,,,,,,,0.141367187,-0.391050347,0,0,0,,,,,,,SHELF,HB,m,y,./images/SHELFHB.png,,,,,,,,z,0,0.6161,,,,,,,,0,128,128,39,1
,,,,,,,,,,,,,,,,,199456,18,2022-01-29_15h03.58.881,lexical_decision_task_DD_L2,2021.2.3,MacIntel,59.99880002,,,,,,,,,,,0.7207,1,,,,,,,,,,,,,,,,,,,,,,,,0.141367187,-0.391050347,0,0,0,,,,,,,STEAK,LB,z,y,./images/STEAKLB.png,,,,,,,,z,1,0.7207,,,,,,,,0,129,129,115,1
,,,,,,,,,,,,,,,,,199456,18,2022-01-29_15h03.58.881,lexical_decision_task_DD_L2,2021.2.3,MacIntel,59.99880002,,,,,,,,,,,0.5917,1,,,,,,,,,,,,,,,,,,,,,,,,0.141367187,-0.391050347,0,0,0,,,,,,,MUFFIN,LB,m,y,./images/MUFFINLB.png,,,,,,,,m,1,0.5917,,,,,,,,0,130,130,55,1
,,,,,,,,,,,,,,,,,199456,18,2022-01-29_15h03.58.881,lexical_decision_task_DD_L2,2021.2.3,MacIntel,59.99880002,,,,,,,,,,,0.7608,1,,,,,,,,,,,,,,,,,,,,,,,,0.141367187,-0.391050347,0,0,0,,,,,,,CANOE,LB,z,y,./images/CANOELB.png,,,,,,,,z,1,0.7608,,,,,,,,0,131,131,142,1
,,,,,,,,,,,,,,,,,199456,18,2022-01-29_15h03.58.881,lexical_decision_task_DD_L2,2021.2.3,MacIntel,59.99880002,,,,,,,,,,,0.6553,0,,,,,,,,,,,,,,,,,,,,,,,,0.141367187,-0.391050347,0,0,0,,,,,,,BAMBOO,C,z,y,./images/BAMBOO.png,,,,,,,,m,0,0.6553,,,,,,,,0,132,132,89,1
,,,,,,,,,,,,,,,,,199456,18,2022-01-29_15h03.58.881,lexical_decision_task_DD_L2,2021.2.3,MacIntel,59.99880002,,,,,,,,,,,1.0164,0,,,,,,,,,,,,,,,,,,,,,,,,0.141367187,-0.391050347,0,0,0,,,,,,,PILOT,C,z,y,./images/PILOT.png,,,,,,,,m,0,1.0164,,,,,,,,0,133,133,134,1
,,,,,,,,,,,,,,,,,199456,18,2022-01-29_15h03.58.881,lexical_decision_task_DD_L2,2021.2.3,MacIntel,59.99880002,,,,,,,,,,,0.7158,0,,,,,,,,,,,,,,,,,,,,,,,,0.141367187,-0.391050347,0,0,0,,,,,,,CRUMB,C,m,y,./images/CRUMB.png,,,,,,,,z,0,0.7158,,,,,,,,0,134,134,29,1
,,,,,,,,,,,,,,,,,199456,18,2022-01-29_15h03.58.881,lexical_decision_task_DD_L2,2021.2.3,MacIntel,59.99880002,,,,,,,,,,,0.8843,0,,,,,,,,,,,,,,,,,,,,,,,,0.141367187,-0.391050347,0,0,0,,,,,,,BERRY,C,m,y,./images/BERRY.png,,,,,,,,z,0,0.8843,,,,,,,,0,135,135,47,1
,,,,,,,,,,,,,,,,,199456,18,2022-01-29_15h03.58.881,lexical_decision_task_DD_L2,2021.2.3,MacIntel,59.99880002,,,,,,,,,,,0.6908,1,,,,,,,,,,,,,,,,,,,,,,,,0.141367187,-0.391050347,0,0,0,,,,,,,JELLY,LB,m,y,./images/JELLYLB.png,,,,,,,,m,1,0.6908,,,,,,,,0,136,136,64,1
,,,,,,,,,,,,,,,,,199456,18,2022-01-29_15h03.58.881,lexical_decision_task_DD_L2,2021.2.3,MacIntel,59.99880002,,,,,,,,,,,0.7414,0,,,,,,,,,,,,,,,,,,,,,,,,0.141367187,-0.391050347,0,0,0,,,,,,,DRUMS,LB,m,y,./images/DRUMSLB.png,,,,,,,,z,0,0.7414,,,,,,,,0,137,137,49,1
,,,,,,,,,,,,,,,,,199456,18,2022-01-29_15h03.58.881,lexical_decision_task_DD_L2,2021.2.3,MacIntel,59.99880002,,,,,,,,,,,0.6217,0,,,,,,,,,,,,,,,,,,,,,,,,0.141367187,-0.391050347,0,0,0,,,,,,,MELON,LB,m,y,./images/MELONLB.png,,,,,,,,z,0,0.6217,,,,,,,,0,138,138,22,1
,,,,,,,,,,,,,,,,,199456,18,2022-01-29_15h03.58.881,lexical_decision_task_DD_L2,2021.2.3,MacIntel,59.99880002,,,,,,,,,,,0.5832,0,,,,,,,,,,,,,,,,,,,,,,,,0.141367187,-0.391050347,0,0,0,,,,,,,MOTOR,LB,m,y,./images/MOTORLB.png,,,,,,,,z,0,0.5832,,,,,,,,0,139,139,13,1
,,,,,,,,,,,,,,,,,199456,18,2022-01-29_15h03.58.881,lexical_decision_task_DD_L2,2021.2.3,MacIntel,59.99880002,,,,,,,,,,,0.583,0,,,,,,,,,,,,,,,,,,,,,,,,0.141367187,-0.391050347,0,0,0,,,,,,,TORCH,C,m,y,./images/TORCH.png,,,,,,,,z,0,0.583,,,,,,,,0,140,140,68,1
,,,,,,,,,,,,,,,,,199456,18,2022-01-29_15h03.58.881,lexical_decision_task_DD_L2,2021.2.3,MacIntel,59.99880002,,,,,,,,,,,0.8886,0,,,,,,,,,,,,,,,,,,,,,,,,0.141367187,-0.391050347,0,0,0,,,,,,,LITTER,HB,m,y,./images/LITTERHB.png,,,,,,,,z,0,0.8886,,,,,,,,0,141,141,78,1
,,,,,,,,,,,,,,,,,199456,18,2022-01-29_15h03.58.881,lexical_decision_task_DD_L2,2021.2.3,MacIntel,59.99880002,,,,,,,,,,,0.882,1,,,,,,,,,,,,,,,,,,,,,,,,0.141367187,-0.391050347,0,0,0,,,,,,,CHAIN,HB,z,y,./images/CHAINHB.png,,,,,,,,z,1,0.882,,,,,,,,0,142,142,126,1
,,,,,,,,,,,,,,,,,199456,18,2022-01-29_15h03.58.881,lexical_decision_task_DD_L2,2021.2.3,MacIntel,59.99880002,,,,,,,,,,,0.8551,0,,,,,,,,,,,,,,,,,,,,,,,,0.141367187,-0.391050347,0,0,0,,,,,,,ATTIC,HB,m,y,./images/ATTICHB.png,,,,,,,,z,0,0.8551,,,,,,,,0,143,143,27,1
,,,,,,,,,,,,,,,,,199456,18,2022-01-29_15h03.58.881,lexical_decision_task_DD_L2,2021.2.3,MacIntel,59.99880002,,,,,,,,,,,0.801,1,,,,,,,,,,,,,,,,,,,,,,,,0.141367187,-0.391050347,0,0,0,,,,,,,MIDGET,LB,z,y,./images/MIDGETLB.png,,,,,,,,z,1,0.801,,,,,,,,0,144,144,160,1
,,,,,,,,,,,,,,,,,199456,18,2022-01-29_15h03.58.881,lexical_decision_task_DD_L2,2021.2.3,MacIntel,59.99880002,,,,,,,,,,,2.434,0,,,,,,,,,,,,,,,,,,,,,,,,0.141367187,-0.391050347,0,0,0,,,,,,,JAGUAR,HB,m,y,./images/JAGUARHB.png,,,,,,,,z,0,2.434,,,,,,,,0,145,145,18,1
,,,,,,,,,,,,,,,,,199456,18,2022-01-29_15h03.58.881,lexical_decision_task_DD_L2,2021.2.3,MacIntel,59.99880002,,,,,,,,,,,0.8417,1,,,,,,,,,,,,,,,,,,,,,,,,0.141367187,-0.391050347,0,0,0,,,,,,,ALLEY,LB,z,y,./images/ALLEYLB.png,,,,,,,,z,1,0.8417,,,,,,,,0,146,146,139,1
,,,,,,,,,,,,,,,,,199456,18,2022-01-29_15h03.58.881,lexical_decision_task_DD_L2,2021.2.3,MacIntel,59.99880002,,,,,,,,,,,0.7835,0,,,,,,,,,,,,,,,,,,,,,,,,0.141367187,-0.391050347,0,0,0,,,,,,,PICKLE,C,m,y,./images/PICKLE.png,,,,,,,,z,0,0.7835,,,,,,,,0,147,147,14,1
,,,,,,,,,,,,,,,,,199456,18,2022-01-29_15h03.58.881,lexical_decision_task_DD_L2,2021.2.3,MacIntel,59.99880002,,,,,,,,,,,0.7837,0,,,,,,,,,,,,,,,,,,,,,,,,0.141367187,-0.391050347,0,0,0,,,,,,,WRIST,LB,m,y,./images/WRISTLB.png,,,,,,,,z,0,0.7837,,,,,,,,0,148,148,25,1
,,,,,,,,,,,,,,,,,199456,18,2022-01-29_15h03.58.881,lexical_decision_task_DD_L2,2021.2.3,MacIntel,59.99880002,,,,,,,,,,,0.7,1,,,,,,,,,,,,,,,,,,,,,,,,0.141367187,-0.391050347,0,0,0,,,,,,,WEASEL,C,m,y,./images/WEASEL.png,,,,,,,,m,1,0.7,,,,,,,,0,149,149,80,1
,,,,,,,,,,,,,,,,,199456,18,2022-01-29_15h03.58.881,lexical_decision_task_DD_L2,2021.2.3,MacIntel,59.99880002,,,,,,,,,,,0.616,1,,,,,,,,,,,,,,,,,,,,,,,,0.141367187,-0.391050347,0,0,0,,,,,,,COLLAR,HB,z,y,./images/COLLARHB.png,,,,,,,,z,1,0.616,,,,,,,,0,150,150,99,1
,,,,,,,,,,,,,,,,,199456,18,2022-01-29_15h03.58.881,lexical_decision_task_DD_L2,2021.2.3,MacIntel,59.99880002,,,,,,,,,,,0.5505,0,,,,,,,,,,,,,,,,,,,,,,,,0.141367187,-0.391050347,0,0,0,,,,,,,URINE,LB,m,y,./images/URINELB.png,,,,,,,,z,0,0.5505,,,,,,,,0,151,151,70,1
,,,,,,,,,,,,,,,,,199456,18,2022-01-29_15h03.58.881,lexical_decision_task_DD_L2,2021.2.3,MacIntel,59.99880002,,,,,,,,,,,1.2247,0,,,,,,,,,,,,,,,,,,,,,,,,0.141367187,-0.391050347,0,0,0,,,,,,,BIRTH,LB,m,y,./images/BIRTHLB.png,,,,,,,,z,0,1.2247,,,,,,,,0,152,152,37,1
,,,,,,,,,,,,,,,,,199456,18,2022-01-29_15h03.58.881,lexical_decision_task_DD_L2,2021.2.3,MacIntel,59.99880002,,,,,,,,,,,0.6495,0,,,,,,,,,,,,,,,,,,,,,,,,0.141367187,-0.391050347,0,0,0,,,,,,,PACKET,C,m,y,./images/PACKET.png,,,,,,,,z,0,0.6495,,,,,,,,0,153,153,56,1
,,,,,,,,,,,,,,,,,199456,18,2022-01-29_15h03.58.881,lexical_decision_task_DD_L2,2021.2.3,MacIntel,59.99880002,,,,,,,,,,,0.6652,1,,,,,,,,,,,,,,,,,,,,,,,,0.141367187,-0.391050347,0,0,0,,,,,,,DONKEY,LB,z,y,./images/DONKEYLB.png,,,,,,,,z,1,0.6652,,,,,,,,0,154,154,103,1
,,,,,,,,,,,,,,,,,199456,18,2022-01-29_15h03.58.881,lexical_decision_task_DD_L2,2021.2.3,MacIntel,59.99880002,,,,,,,,,,,0.685,1,,,,,,,,,,,,,,,,,,,,,,,,0.141367187,-0.391050347,0,0,0,,,,,,,MIRROR,HB,m,y,./images/MIRRORHB.png,,,,,,,,m,1,0.685,,,,,,,,0,155,155,63,1
,,,,,,,,,,,,,,,,,199456,18,2022-01-29_15h03.58.881,lexical_decision_task_DD_L2,2021.2.3,MacIntel,59.99880002,,,,,,,,,,,0.7376,1,,,,,,,,,,,,,,,,,,,,,,,,0.141367187,-0.391050347,0,0,0,,,,,,,BANNER,LB,m,y,./images/BANNERLB.png,,,,,,,,m,1,0.7376,,,,,,,,0,156,156,52,1
,,,,,,,,,,,,,,,,,199456,18,2022-01-29_15h03.58.881,lexical_decision_task_DD_L2,2021.2.3,MacIntel,59.99880002,,,,,,,,,,,0.605,0,,,,,,,,,,,,,,,,,,,,,,,,0.141367187,-0.391050347,0,0,0,,,,,,,ONION,HB,m,y,./images/ONIONHB.png,,,,,,,,z,0,0.605,,,,,,,,0,157,157,51,1
,,,,,,,,,,,,,,,,,199456,18,2022-01-29_15h03.58.881,lexical_decision_task_DD_L2,2021.2.3,MacIntel,59.99880002,,,,,,,,,,,1.0517,1,,,,,,,,,,,,,,,,,,,,,,,,0.141367187,-0.391050347,0,0,0,,,,,,,BUBBLE,C,z,y,./images/BUBBLE.png,,,,,,,,z,1,1.0517,,,,,,,,0,158,158,155,1
,,,,,,,,,,,,,,,,,199456,18,2022-01-29_15h03.58.881,lexical_decision_task_DD_L2,2021.2.3,MacIntel,59.99880002,,,,,,,,,,,0.6672,1,,,,,,,,,,,,,,,,,,,,,,,,0.141367187,-0.391050347,0,0,0,,,,,,,MOOSE,HB,m,y,./images/MOOSEHB.png,,,,,,,,m,1,0.6672,,,,,,,,0,159,159,57,1
,,,,,,,,,,,,,,,,,199456,18,2022-01-29_15h03.58.881,lexical_decision_task_DD_L2,2021.2.3,MacIntel,59.99880002,,,,,,,,,,,0.8146,0,,,,,,,,,,,,,,,,,,,,,,,,0.141367187,-0.391050347,0,0,0,,,,,,,CURRY,HB,z,y,./images/CURRYHB.png,,,,,,,,m,0,0.8146,,,,,,,,0,160,160,144,1
,,,,,,,,,,,,,,,,,199456,18,2022-01-29_15h03.58.881,lexical_decision_task_DD_L2,2021.2.3,MacIntel,59.99880002,,,,,,,,,,,0.6321,0,,,,,,,,,,,,,,,,,,,,,,,,0.141367187,-0.391050347,0,0,0,,,,,,,CEMENT,C,m,y,./images/CEMENT.png,,,,,,,,z,0,0.6321,,,,,,,,0,161,161,74,1
,,,,,,,,,,,,,,,,,199456,18,2022-01-29_15h03.58.881,lexical_decision_task_DD_L2,2021.2.3,MacIntel,59.99880002,,,,,,,,,,,0.9004,0,,,,,,,,,,,,,,,,,,,,,,,,0.141367187,-0.391050347,0,0,0,,,,,,,PURSE,C,m,y,./images/PURSE.png,,,,,,,,z,0,0.9004,,,,,,,,0,162,162,62,1
,,,,,,,,,,,,,,,,,199456,18,2022-01-29_15h03.58.881,lexical_decision_task_DD_L2,2021.2.3,MacIntel,59.99880002,,,,,,,,,,,0.7827,0,,,,,,,,,,,,,,,,,,,,,,,,0.141367187,-0.391050347,0,0,0,,,,,,,SQUARE,HB,m,y,./images/SQUAREHB.png,,,,,,,,z,0,0.7827,,,,,,,,0,163,163,6,1
,,,,,,,,,,,,,,,,,199456,18,2022-01-29_15h03.58.881,lexical_decision_task_DD_L2,2021.2.3,MacIntel,59.99880002,,,,,,,,,,,0.4834,1,,,,,,,,,,,,,,,,,,,,,,,,0.141367187,-0.391050347,0,0,0,,,,,,,PISTOL,C,z,y,./images/PISTOL.png,,,,,,,,z,1,0.4834,,,,,,,,0,164,164,113,1
,,,,,,,,,,,,,,,,,199456,18,2022-01-29_15h03.58.881,lexical_decision_task_DD_L2,2021.2.3,MacIntel,59.99880002,,,,,,,,,,,0.9161,1,,,,,,,,,,,,,,,,,,,,,,,,0.141367187,-0.391050347,0,0,0,,,,,,,BANANA,LB,z,y,./images/BANANALB.png,,,,,,,,z,1,0.9161,,,,,,,,0,165,165,154,1
,,,,,,,,,,,,,,,,,199456,18,2022-01-29_15h03.58.881,lexical_decision_task_DD_L2,2021.2.3,MacIntel,59.99880002,,,,,,,,,,,0.7185,1,,,,,,,,,,,,,,,,,,,,,,,,0.141367187,-0.391050347,0,0,0,,,,,,,WHISKY,C,z,y,./images/WHISKY.png,,,,,,,,z,1,0.7185,,,,,,,,0,166,166,167,1
,,,,,,,,,,,,,,,,,199456,18,2022-01-29_15h03.58.881,lexical_decision_task_DD_L2,2021.2.3,MacIntel,59.99880002,,,,,,,,,,,0.6326,0,,,,,,,,,,,,,,,,,,,,,,,,0.141367187,-0.391050347,0,0,0,,,,,,,DOUGH,LB,m,y,./images/DOUGHLB.png,,,,,,,,z,0,0.6326,,,,,,,,0,167,167,19,1
