key_resp.keys,instr_done_touch.x,instr_done_touch.y,instr_done_touch.leftButton,instr_done_touch.midButton,instr_done_touch.rightButton,instr_done_touch.clicked_name,instruction_pages.thisRepN,instruction_pages.thisTrialN,instruction_pages.thisN,instruction_pages.thisIndex,instruction_pages.ran,pageN,phase,instruct_text,has_image,instruct_image,participant,age,date,expName,psychopyVersion,OS,frameRate,response.keys,response.corr,response.rt,touch_resp.x,touch_resp.y,touch_resp.leftButton,touch_resp.midButton,touch_resp.rightButton,touch_resp.time,touch_resp.clicked_name,rt,corr,practrials.thisRepN,practrials.thisTrialN,practrials.thisN,practrials.thisIndex,practrials.ran,TrialID,Target,corrAns,end_of_practice_trials_pages.thisRepN,end_of_practice_trials_pages.thisTrialN,end_of_practice_trials_pages.thisN,end_of_practice_trials_pages.thisIndex,end_of_practice_trials_pages.ran,key_resp_2.keys,key_resp_2.corr,key_resp_2.rt,targ_click.x,targ_click.y,targ_click.leftButton,targ_click.midButton,targ_click.rightButton,targ_click.time,targ_click.clicked_name,break_done_touch.x,break_done_touch.y,break_done_touch.leftButton,break_done_touch.midButton,break_done_touch.rightButton,break_done_keyboard.keys,maintrials.thisRepN,maintrials.thisTrialN,maintrials.thisN,maintrials.thisIndex,maintrials.ran,string,blur,study,lex,stim_path,break_done_touch.clicked_name,test_instructions.thisRepN,test_instructions.thisTrialN,test_instructions.thisN,test_instructions.thisIndex,test_instructions.ran,key_resp_3.keys,key_resp_3.corr,key_resp_3.rt,test_click.x,test_click.y,test_click.leftButton,test_click.midButton,test_click.rightButton,test_click.time,test_click.clicked_name,test_phase.thisRepN,test_phase.thisTrialN,test_phase.thisN,test_phase.thisIndex,test_phase.ran
,0.052777806,-0.392592619,1,0,0,instr_done_button,0,0,0,0,1,1,instructions,"INSTRUCTIONS
At the start of each trial, look at the plus sign  (+) in the center of the screen.  This tells you that a trial is about to begin and where to look. Second, the plus sign will disappear and a string of letters will appear. Your task is to determine if the string of letters is a word or not. If the item is a word press the M key (on keyboard)  or touch the word button (phone/tablet).  If the item is not a word,  press the  Z key (on keyboard)  or touch the nonword button (on phone/tablet). 
Press the space bar or touch  continue.",0,,199480,19,2022-01-28_17h52.13.407,lexical_decision_task_DD_L3,2021.2.3,Win32,59.00401227,,,,,,,,,,,,,,,,,,,,,,,,,,,,,,,,,,,,,,,,,,,,,,,,,,,,,,,,,,,,,,,,,,,,,,,,
,-0.029629604,-0.386111138,1,0,0,instr_done_button,0,1,1,1,1,2,instructions,"If your device has a keyboard, press the 'Z' key for nonwords and the 'M' key for words.





Press the space bar or touch the button below to continue.",0,keyboard-example.gif,199480,19,2022-01-28_17h52.13.407,lexical_decision_task_DD_L3,2021.2.3,Win32,59.00401227,,,,,,,,,,,,,,,,,,,,,,,,,,,,,,,,,,,,,,,,,,,,,,,,,,,,,,,,,,,,,,,,,,,,,,,,
,-0.029629604,-0.386111138,1,0,0,instr_done_button,0,2,2,2,1,3,instructions,"If you are using a touchscreen only device, use the buttons on the screen. Do not use the mouse.





Press the space bar or touch the button below to continue.",0,touchscreen-example.gif,199480,19,2022-01-28_17h52.13.407,lexical_decision_task_DD_L3,2021.2.3,Win32,59.00401227,,,,,,,,,,,,,,,,,,,,,,,,,,,,,,,,,,,,,,,,,,,,,,,,,,,,,,,,,,,,,,,,,,,,,,,,
,-0.029629604,-0.386111138,1,0,0,instr_done_button,0,3,3,3,1,4,instructions,"It is very important that you respond as quickly and accurately as possible, as each letter string will only be on the screen for two seconds. If you do not respond within this time, the message 'Too slow!' will be displayed and the experiment will progress to the next letter string. The first 20 trials will be practice trials and you will receive feedback on your answers. 

Press the space bar or touch the button below to start the practice trials.",0,,199480,19,2022-01-28_17h52.13.407,lexical_decision_task_DD_L3,2021.2.3,Win32,59.00401227,,,,,,,,,,,,,,,,,,,,,,,,,,,,,,,,,,,,,,,,,,,,,,,,,,,,,,,,,,,,,,,,,,,,,,,,
,,,,,,,,,,,,,,,,,199480,19,2022-01-28_17h52.13.407,lexical_decision_task_DD_L3,2021.2.3,Win32,59.00401227,z,1,0.9437,,,,,,,,0.9437,1,0,0,0,13,1,1001,ROUPET,z,,,,,,,,,,,,,,,,,,,,,,,,,,,,,,,,,,,,,,,,,,,,,,,,,,,,
,,,,,,,,,,,,,,,,,199480,19,2022-01-28_17h52.13.407,lexical_decision_task_DD_L3,2021.2.3,Win32,59.00401227,z,1,0.8198,,,,,,,,0.8198,1,0,1,1,14,1,1001,THRALE,z,,,,,,,,,,,,,,,,,,,,,,,,,,,,,,,,,,,,,,,,,,,,,,,,,,,,
,,,,,,,,,,,,,,,,,199480,19,2022-01-28_17h52.13.407,lexical_decision_task_DD_L3,2021.2.3,Win32,59.00401227,m,0,0.7449,,,,,,,,0.7449,0,0,2,2,10,1,1001,INLADE,z,,,,,,,,,,,,,,,,,,,,,,,,,,,,,,,,,,,,,,,,,,,,,,,,,,,,
,,,,,,,,,,,,,,,,,199480,19,2022-01-28_17h52.13.407,lexical_decision_task_DD_L3,2021.2.3,Win32,59.00401227,m,1,0.8875,,,,,,,,0.8875,1,0,3,3,3,1,1001,MATRIX,m,,,,,,,,,,,,,,,,,,,,,,,,,,,,,,,,,,,,,,,,,,,,,,,,,,,,
,,,,,,,,,,,,,,,,,199480,19,2022-01-28_17h52.13.407,lexical_decision_task_DD_L3,2021.2.3,Win32,59.00401227,z,1,1.1038,,,,,,,,1.1038,1,0,4,4,12,1,1001,SPRINY,z,,,,,,,,,,,,,,,,,,,,,,,,,,,,,,,,,,,,,,,,,,,,,,,,,,,,
,,,,,,,,,,,,,,,,,199480,19,2022-01-28_17h52.13.407,lexical_decision_task_DD_L3,2021.2.3,Win32,59.00401227,m,1,0.99,,,,,,,,0.99,1,0,5,5,4,1,1001,SQUEAK,m,,,,,,,,,,,,,,,,,,,,,,,,,,,,,,,,,,,,,,,,,,,,,,,,,,,,
,,,,,,,,,,,,,,,,,199480,19,2022-01-28_17h52.13.407,lexical_decision_task_DD_L3,2021.2.3,Win32,59.00401227,m,1,0.71,,,,,,,,0.71,1,0,6,6,5,1,1001,OBTAIN,m,,,,,,,,,,,,,,,,,,,,,,,,,,,,,,,,,,,,,,,,,,,,,,,,,,,,
,,,,,,,,,,,,,,,,,199480,19,2022-01-28_17h52.13.407,lexical_decision_task_DD_L3,2021.2.3,Win32,59.00401227,z,1,0.7096,,,,,,,,0.7096,1,0,7,7,9,1,1001,FARINY,z,,,,,,,,,,,,,,,,,,,,,,,,,,,,,,,,,,,,,,,,,,,,,,,,,,,,
,,,,,,,,,,,,,,,,,199480,19,2022-01-28_17h52.13.407,lexical_decision_task_DD_L3,2021.2.3,Win32,59.00401227,m,1,0.677,,,,,,,,0.677,1,0,8,8,7,1,1001,VOLUME,m,,,,,,,,,,,,,,,,,,,,,,,,,,,,,,,,,,,,,,,,,,,,,,,,,,,,
,,,,,,,,,,,,,,,,,199480,19,2022-01-28_17h52.13.407,lexical_decision_task_DD_L3,2021.2.3,Win32,59.00401227,m,0,0.964,,,,,,,,0.964,0,0,9,9,8,1,1001,ASLERT,z,,,,,,,,,,,,,,,,,,,,,,,,,,,,,,,,,,,,,,,,,,,,,,,,,,,,
,,,,,,,,,,,,,,,,,199480,19,2022-01-28_17h52.13.407,lexical_decision_task_DD_L3,2021.2.3,Win32,59.00401227,m,1,0.7345,,,,,,,,0.7345,1,0,10,10,6,1,1001,ZOMBIE,m,,,,,,,,,,,,,,,,,,,,,,,,,,,,,,,,,,,,,,,,,,,,,,,,,,,,
,,,,,,,,,,,,,,,,,199480,19,2022-01-28_17h52.13.407,lexical_decision_task_DD_L3,2021.2.3,Win32,59.00401227,m,1,0.7194,,,,,,,,0.7194,1,0,11,11,0,1,1001,UTOPIA,m,,,,,,,,,,,,,,,,,,,,,,,,,,,,,,,,,,,,,,,,,,,,,,,,,,,,
,,,,,,,,,,,,,,,,,199480,19,2022-01-28_17h52.13.407,lexical_decision_task_DD_L3,2021.2.3,Win32,59.00401227,m,1,0.6319,,,,,,,,0.6319,1,0,12,12,2,1,1001,ALMOND,m,,,,,,,,,,,,,,,,,,,,,,,,,,,,,,,,,,,,,,,,,,,,,,,,,,,,
,,,,,,,,,,,,,,,,,199480,19,2022-01-28_17h52.13.407,lexical_decision_task_DD_L3,2021.2.3,Win32,59.00401227,z,1,0.7231,,,,,,,,0.7231,1,0,13,13,11,1,1001,RASHET,z,,,,,,,,,,,,,,,,,,,,,,,,,,,,,,,,,,,,,,,,,,,,,,,,,,,,
,,,,,,,,,,,,,,,,,199480,19,2022-01-28_17h52.13.407,lexical_decision_task_DD_L3,2021.2.3,Win32,59.00401227,m,1,0.5707,,,,,,,,0.5707,1,0,14,14,1,1,1001,ADJUST,m,,,,,,,,,,,,,,,,,,,,,,,,,,,,,,,,,,,,,,,,,,,,,,,,,,,,
,,,,,,,,,,,,,,,,,199480,19,2022-01-28_17h52.13.407,lexical_decision_task_DD_L3,2021.2.3,Win32,59.00401227,z,1,0.6682,,,,,,,,0.6682,1,0,15,15,15,1,1001,WHAISE,z,,,,,,,,,,,,,,,,,,,,,,,,,,,,,,,,,,,,,,,,,,,,,,,,,,,,
,-0.053703622,-0.388888915,1,0,0,instr_done_button,,,,,,1,end_of_practice,"You have completed the practice trials. During the experimental trials, you will not receive feedback. 
Before you begin, please ensure that you are in a comfortable and quiet location and will not be disturbed for about 15 minutes, as we cannot use your data if you do not complete all the trials. 
 When you are ready to start the experimental trials, please press space or touch the button below.",,,199480,19,2022-01-28_17h52.13.407,lexical_decision_task_DD_L3,2021.2.3,Win32,59.00401227,,,,,,,,,,,,,,,,,,,,,0,0,0,0,1,,,,,,,,,,,,,,,,,,,,,,,,,,,,,,,,,,,,,,,,,,,,,,,
,,,,,,,,,,,,,,,,,199480,19,2022-01-28_17h52.13.407,lexical_decision_task_DD_L3,2021.2.3,Win32,59.00401227,,,,,,,,,,,1.7409,1,,,,,,,,,,,,,,z,1,1.7409,,,,,,,,-0.064814734,-0.186111132,0,0,0,,0,0,0,162,1,LEICH,C,old,z,./images/LEICH.png,,,,,,,,,,,,,,,,,,,,,
,,,,,,,,,,,,,,,,,199480,19,2022-01-28_17h52.13.407,lexical_decision_task_DD_L3,2021.2.3,Win32,59.00401227,,,,,,,,,,,0.8753,1,,,,,,,,,,,,,,m,1,0.8753,,,,,,,,-0.064814734,-0.186111132,0,0,0,,0,1,1,72,1,NOOSE,LB,old,m,./images/NOOSELB.png,,,,,,,,,,,,,,,,,,,,,
,,,,,,,,,,,,,,,,,199480,19,2022-01-28_17h52.13.407,lexical_decision_task_DD_L3,2021.2.3,Win32,59.00401227,,,,,,,,,,,0.7308,1,,,,,,,,,,,,,,m,1,0.7308,,,,,,,,-0.064814734,-0.186111132,0,0,0,,0,2,2,70,1,URINE,C,old,m,./images/URINE.png,,,,,,,,,,,,,,,,,,,,,
,,,,,,,,,,,,,,,,,199480,19,2022-01-28_17h52.13.407,lexical_decision_task_DD_L3,2021.2.3,Win32,59.00401227,,,,,,,,,,,0.867,1,,,,,,,,,,,,,,z,1,0.867,,,,,,,,-0.064814734,-0.186111132,0,0,0,,0,3,3,130,1,CRILL,HB,old,z,./images/CRILLHB.png,,,,,,,,,,,,,,,,,,,,,
,,,,,,,,,,,,,,,,,199480,19,2022-01-28_17h52.13.407,lexical_decision_task_DD_L3,2021.2.3,Win32,59.00401227,,,,,,,,,,,1.0521,1,,,,,,,,,,,,,,z,1,1.0521,,,,,,,,-0.064814734,-0.186111132,0,0,0,,0,4,4,121,1,CEERS,HB,old,z,./images/CEERSHB.png,,,,,,,,,,,,,,,,,,,,,
,,,,,,,,,,,,,,,,,199480,19,2022-01-28_17h52.13.407,lexical_decision_task_DD_L3,2021.2.3,Win32,59.00401227,,,,,,,,,,,0.9038,1,,,,,,,,,,,,,,z,1,0.9038,,,,,,,,-0.064814734,-0.186111132,0,0,0,,0,5,5,153,1,CLUPS,C,old,z,./images/CLUPS.png,,,,,,,,,,,,,,,,,,,,,
,,,,,,,,,,,,,,,,,199480,19,2022-01-28_17h52.13.407,lexical_decision_task_DD_L3,2021.2.3,Win32,59.00401227,,,,,,,,,,,0.8743,1,,,,,,,,,,,,,,z,1,0.8743,,,,,,,,-0.064814734,-0.186111132,0,0,0,,0,6,6,129,1,PRANS,C,old,z,./images/PRANS.png,,,,,,,,,,,,,,,,,,,,,
,,,,,,,,,,,,,,,,,199480,19,2022-01-28_17h52.13.407,lexical_decision_task_DD_L3,2021.2.3,Win32,59.00401227,,,,,,,,,,,0.8359,1,,,,,,,,,,,,,,z,1,0.8359,,,,,,,,-0.064814734,-0.186111132,0,0,0,,0,7,7,135,1,JOODY,C,old,z,./images/JOODY.png,,,,,,,,,,,,,,,,,,,,,
,,,,,,,,,,,,,,,,,199480,19,2022-01-28_17h52.13.407,lexical_decision_task_DD_L3,2021.2.3,Win32,59.00401227,,,,,,,,,,,1.08,1,,,,,,,,,,,,,,z,1,1.08,,,,,,,,-0.064814734,-0.186111132,0,0,0,,0,8,8,157,1,INLER,HB,old,z,./images/INLERHB.png,,,,,,,,,,,,,,,,,,,,,
,,,,,,,,,,,,,,,,,199480,19,2022-01-28_17h52.13.407,lexical_decision_task_DD_L3,2021.2.3,Win32,59.00401227,,,,,,,,,,,0.7907,1,,,,,,,,,,,,,,m,1,0.7907,,,,,,,,-0.064814734,-0.186111132,0,0,0,,0,9,9,67,1,SAILOR,C,old,m,./images/SAILOR.png,,,,,,,,,,,,,,,,,,,,,
,,,,,,,,,,,,,,,,,199480,19,2022-01-28_17h52.13.407,lexical_decision_task_DD_L3,2021.2.3,Win32,59.00401227,,,,,,,,,,,0.8511,1,,,,,,,,,,,,,,m,1,0.8511,,,,,,,,-0.064814734,-0.186111132,0,0,0,,0,10,10,21,1,KIDNEY,LB,old,m,./images/KIDNEYLB.png,,,,,,,,,,,,,,,,,,,,,
,,,,,,,,,,,,,,,,,199480,19,2022-01-28_17h52.13.407,lexical_decision_task_DD_L3,2021.2.3,Win32,59.00401227,,,,,,,,,,,0.7816,1,,,,,,,,,,,,,,z,1,0.7816,,,,,,,,-0.064814734,-0.186111132,0,0,0,,0,11,11,125,1,MOOKY,LB,old,z,./images/MOOKYLB.png,,,,,,,,,,,,,,,,,,,,,
,,,,,,,,,,,,,,,,,199480,19,2022-01-28_17h52.13.407,lexical_decision_task_DD_L3,2021.2.3,Win32,59.00401227,,,,,,,,,,,0.8666,1,,,,,,,,,,,,,,z,1,0.8666,,,,,,,,-0.064814734,-0.186111132,0,0,0,,0,12,12,134,1,TROSS,LB,old,z,./images/TROSSLB.png,,,,,,,,,,,,,,,,,,,,,
,,,,,,,,,,,,,,,,,199480,19,2022-01-28_17h52.13.407,lexical_decision_task_DD_L3,2021.2.3,Win32,59.00401227,,,,,,,,,,,0.9237,1,,,,,,,,,,,,,,z,1,0.9237,,,,,,,,-0.064814734,-0.186111132,0,0,0,,0,13,13,119,1,PAFER,LB,old,z,./images/PAFERLB.png,,,,,,,,,,,,,,,,,,,,,
,,,,,,,,,,,,,,,,,199480,19,2022-01-28_17h52.13.407,lexical_decision_task_DD_L3,2021.2.3,Win32,59.00401227,,,,,,,,,,,0.7797,1,,,,,,,,,,,,,,z,1,0.7797,,,,,,,,-0.064814734,-0.186111132,0,0,0,,0,14,14,144,1,NAIRY,C,old,z,./images/NAIRY.png,,,,,,,,,,,,,,,,,,,,,
,,,,,,,,,,,,,,,,,199480,19,2022-01-28_17h52.13.407,lexical_decision_task_DD_L3,2021.2.3,Win32,59.00401227,,,,,,,,,,,0.7404,1,,,,,,,,,,,,,,z,1,0.7404,,,,,,,,-0.064814734,-0.186111132,0,0,0,,0,15,15,122,1,BLOOT,LB,old,z,./images/BLOOTLB.png,,,,,,,,,,,,,,,,,,,,,
,,,,,,,,,,,,,,,,,199480,19,2022-01-28_17h52.13.407,lexical_decision_task_DD_L3,2021.2.3,Win32,59.00401227,,,,,,,,,,,0.8397,1,,,,,,,,,,,,,,m,1,0.8397,,,,,,,,-0.064814734,-0.186111132,0,0,0,,0,16,16,23,1,WALRUS,HB,old,m,./images/WALRUSHB.png,,,,,,,,,,,,,,,,,,,,,
,,,,,,,,,,,,,,,,,199480,19,2022-01-28_17h52.13.407,lexical_decision_task_DD_L3,2021.2.3,Win32,59.00401227,,,,,,,,,,,0.7048,1,,,,,,,,,,,,,,m,1,0.7048,,,,,,,,-0.064814734,-0.186111132,0,0,0,,0,17,17,73,1,SNACK,C,old,m,./images/SNACK.png,,,,,,,,,,,,,,,,,,,,,
,,,,,,,,,,,,,,,,,199480,19,2022-01-28_17h52.13.407,lexical_decision_task_DD_L3,2021.2.3,Win32,59.00401227,,,,,,,,,,,0.7164,1,,,,,,,,,,,,,,z,1,0.7164,,,,,,,,-0.064814734,-0.186111132,0,0,0,,0,18,18,98,1,BAMPS,LB,old,z,./images/BAMPSLB.png,,,,,,,,,,,,,,,,,,,,,
,,,,,,,,,,,,,,,,,199480,19,2022-01-28_17h52.13.407,lexical_decision_task_DD_L3,2021.2.3,Win32,59.00401227,,,,,,,,,,,0.7856,0,,,,,,,,,,,,,,z,0,0.7856,,,,,,,,-0.064814734,-0.186111132,0,0,0,,0,19,19,36,1,THROAT,LB,old,m,./images/THROATLB.png,,,,,,,,,,,,,,,,,,,,,
,,,,,,,,,,,,,,,,,199480,19,2022-01-28_17h52.13.407,lexical_decision_task_DD_L3,2021.2.3,Win32,59.00401227,,,,,,,,,,,1.0022,1,,,,,,,,,,,,,,m,1,1.0022,,,,,,,,-0.064814734,-0.186111132,0,0,0,,0,20,20,47,1,BERRY,HB,old,m,./images/BERRYHB.png,,,,,,,,,,,,,,,,,,,,,
,,,,,,,,,,,,,,,,,199480,19,2022-01-28_17h52.13.407,lexical_decision_task_DD_L3,2021.2.3,Win32,59.00401227,,,,,,,,,,,0.852,1,,,,,,,,,,,,,,z,1,0.852,,,,,,,,-0.064814734,-0.186111132,0,0,0,,0,21,21,108,1,GRUET,C,old,z,./images/GRUET.png,,,,,,,,,,,,,,,,,,,,,
,,,,,,,,,,,,,,,,,199480,19,2022-01-28_17h52.13.407,lexical_decision_task_DD_L3,2021.2.3,Win32,59.00401227,,,,,,,,,,,1.0737,0,,,,,,,,,,,,,,m,0,1.0737,,,,,,,,-0.064814734,-0.186111132,0,0,0,,0,22,22,152,1,FRAIN,LB,old,z,./images/FRAINLB.png,,,,,,,,,,,,,,,,,,,,,
,,,,,,,,,,,,,,,,,199480,19,2022-01-28_17h52.13.407,lexical_decision_task_DD_L3,2021.2.3,Win32,59.00401227,,,,,,,,,,,0.8591,1,,,,,,,,,,,,,,z,1,0.8591,,,,,,,,-0.064814734,-0.186111132,0,0,0,,0,23,23,149,1,VEASE,LB,old,z,./images/VEASELB.png,,,,,,,,,,,,,,,,,,,,,
,,,,,,,,,,,,,,,,,199480,19,2022-01-28_17h52.13.407,lexical_decision_task_DD_L3,2021.2.3,Win32,59.00401227,,,,,,,,,,,0.7878,1,,,,,,,,,,,,,,m,1,0.7878,,,,,,,,-0.064814734,-0.186111132,0,0,0,,0,24,24,35,1,PEACH,HB,old,m,./images/PEACHHB.png,,,,,,,,,,,,,,,,,,,,,
,,,,,,,,,,,,,,,,,199480,19,2022-01-28_17h52.13.407,lexical_decision_task_DD_L3,2021.2.3,Win32,59.00401227,,,,,,,,,,,0.7619,0,,,,,,,,,,,,,,m,0,0.7619,,,,,,,,-0.064814734,-0.186111132,0,0,0,,0,25,25,128,1,GRIFT,LB,old,z,./images/GRIFTLB.png,,,,,,,,,,,,,,,,,,,,,
,,,,,,,,,,,,,,,,,199480,19,2022-01-28_17h52.13.407,lexical_decision_task_DD_L3,2021.2.3,Win32,59.00401227,,,,,,,,,,,0.682,1,,,,,,,,,,,,,,z,1,0.682,,,,,,,,-0.064814734,-0.186111132,0,0,0,,0,26,26,126,1,GUELS,C,old,z,./images/GUELS.png,,,,,,,,,,,,,,,,,,,,,
,,,,,,,,,,,,,,,,,199480,19,2022-01-28_17h52.13.407,lexical_decision_task_DD_L3,2021.2.3,Win32,59.00401227,,,,,,,,,,,0.7669,1,,,,,,,,,,,,,,z,1,0.7669,,,,,,,,-0.064814734,-0.186111132,0,0,0,,0,27,27,117,1,STEEG,C,old,z,./images/STEEG.png,,,,,,,,,,,,,,,,,,,,,
,,,,,,,,,,,,,,,,,199480,19,2022-01-28_17h52.13.407,lexical_decision_task_DD_L3,2021.2.3,Win32,59.00401227,,,,,,,,,,,0.646,1,,,,,,,,,,,,,,m,1,0.646,,,,,,,,-0.064814734,-0.186111132,0,0,0,,0,28,28,34,1,CANYON,C,old,m,./images/CANYON.png,,,,,,,,,,,,,,,,,,,,,
,,,,,,,,,,,,,,,,,199480,19,2022-01-28_17h52.13.407,lexical_decision_task_DD_L3,2021.2.3,Win32,59.00401227,,,,,,,,,,,0.7576,1,,,,,,,,,,,,,,z,1,0.7576,,,,,,,,-0.064814734,-0.186111132,0,0,0,,0,29,29,111,1,HOSSE,C,old,z,./images/HOSSE.png,,,,,,,,,,,,,,,,,,,,,
,,,,,,,,,,,,,,,,,199480,19,2022-01-28_17h52.13.407,lexical_decision_task_DD_L3,2021.2.3,Win32,59.00401227,,,,,,,,,,,1.0452,1,,,,,,,,,,,,,,z,1,1.0452,,,,,,,,-0.064814734,-0.186111132,0,0,0,,0,30,30,97,1,CHIDS,HB,old,z,./images/CHIDSHB.png,,,,,,,,,,,,,,,,,,,,,
,,,,,,,,,,,,,,,,,199480,19,2022-01-28_17h52.13.407,lexical_decision_task_DD_L3,2021.2.3,Win32,59.00401227,,,,,,,,,,,0.6694,1,,,,,,,,,,,,,,m,1,0.6694,,,,,,,,-0.064814734,-0.186111132,0,0,0,,0,31,31,33,1,MAGGOT,LB,old,m,./images/MAGGOTLB.png,,,,,,,,,,,,,,,,,,,,,
,,,,,,,,,,,,,,,,,199480,19,2022-01-28_17h52.13.407,lexical_decision_task_DD_L3,2021.2.3,Win32,59.00401227,,,,,,,,,,,0.7408,1,,,,,,,,,,,,,,z,1,0.7408,,,,,,,,-0.064814734,-0.186111132,0,0,0,,0,32,32,159,1,CUDDY,C,old,z,./images/CUDDY.png,,,,,,,,,,,,,,,,,,,,,
,,,,,,,,,,,,,,,,,199480,19,2022-01-28_17h52.13.407,lexical_decision_task_DD_L3,2021.2.3,Win32,59.00401227,,,,,,,,,,,0.6821,1,,,,,,,,,,,,,,z,1,0.6821,,,,,,,,-0.064814734,-0.186111132,0,0,0,,0,33,33,123,1,SEDGE,C,old,z,./images/SEDGE.png,,,,,,,,,,,,,,,,,,,,,
,,,,,,,,,,,,,,,,,199480,19,2022-01-28_17h52.13.407,lexical_decision_task_DD_L3,2021.2.3,Win32,59.00401227,,,,,,,,,,,0.8194,1,,,,,,,,,,,,,,m,1,0.8194,,,,,,,,-0.064814734,-0.186111132,0,0,0,,0,34,34,44,1,LIZARD,HB,old,m,./images/LIZARDHB.png,,,,,,,,,,,,,,,,,,,,,
,,,,,,,,,,,,,,,,,199480,19,2022-01-28_17h52.13.407,lexical_decision_task_DD_L3,2021.2.3,Win32,59.00401227,,,,,,,,,,,0.8728,1,,,,,,,,,,,,,,m,1,0.8728,,,,,,,,-0.064814734,-0.186111132,0,0,0,,0,35,35,15,1,GREASE,LB,old,m,./images/GREASELB.png,,,,,,,,,,,,,,,,,,,,,
,,,,,,,,,,,,,,,,,199480,19,2022-01-28_17h52.13.407,lexical_decision_task_DD_L3,2021.2.3,Win32,59.00401227,,,,,,,,,,,0.9333,1,,,,,,,,,,,,,,m,1,0.9333,,,,,,,,-0.064814734,-0.186111132,0,0,0,,0,36,36,28,1,FALCON,C,old,m,./images/FALCON.png,,,,,,,,,,,,,,,,,,,,,
,,,,,,,,,,,,,,,,,199480,19,2022-01-28_17h52.13.407,lexical_decision_task_DD_L3,2021.2.3,Win32,59.00401227,,,,,,,,,,,0.7105,1,,,,,,,,,,,,,,m,1,0.7105,,,,,,,,-0.064814734,-0.186111132,0,0,0,,0,37,37,1,1,PLANK,C,old,m,./images/PLANK.png,,,,,,,,,,,,,,,,,,,,,
,,,,,,,,,,,,,,,,,199480,19,2022-01-28_17h52.13.407,lexical_decision_task_DD_L3,2021.2.3,Win32,59.00401227,,,,,,,,,,,0.713,1,,,,,,,,,,,,,,z,1,0.713,,,,,,,,-0.064814734,-0.186111132,0,0,0,,0,38,38,90,1,NEAST,C,old,z,./images/NEAST.png,,,,,,,,,,,,,,,,,,,,,
,,,,,,,,,,,,,,,,,199480,19,2022-01-28_17h52.13.407,lexical_decision_task_DD_L3,2021.2.3,Win32,59.00401227,,,,,,,,,,,0.799,1,,,,,,,,,,,,,,z,1,0.799,,,,,,,,-0.064814734,-0.186111132,0,0,0,,0,39,39,155,1,CANGY,LB,old,z,./images/CANGYLB.png,,,,,,,,,,,,,,,,,,,,,
,,,,,,,,,,,,,,,,,199480,19,2022-01-28_17h52.13.407,lexical_decision_task_DD_L3,2021.2.3,Win32,59.00401227,,,,,,,,,,,0.801,1,,,,,,,,,,,,,,m,1,0.801,,,,,,,,-0.064814734,-0.186111132,0,0,0,,0,40,40,53,1,CARPET,HB,old,m,./images/CARPETHB.png,,,,,,,,,,,,,,,,,,,,,
,,,,,,,,,,,,,,,,,199480,19,2022-01-28_17h52.13.407,lexical_decision_task_DD_L3,2021.2.3,Win32,59.00401227,,,,,,,,,,,0.8669,1,,,,,,,,,,,,,,m,1,0.8669,,,,,,,,0.011111138,-0.362963045,1,0,0,,0,41,41,32,1,BARREL,HB,old,m,./images/BARRELHB.png,break_done_button,,,,,,,,,,,,,,,,,,,,
,,,,,,,,,,,,,,,,,199480,19,2022-01-28_17h52.13.407,lexical_decision_task_DD_L3,2021.2.3,Win32,59.00401227,,,,,,,,,,,0.7218,1,,,,,,,,,,,,,,m,1,0.7218,,,,,,,,0.011111138,-0.362963045,0,0,0,,0,42,42,60,1,TWINS,LB,old,m,./images/TWINSLB.png,,,,,,,,,,,,,,,,,,,,,
,,,,,,,,,,,,,,,,,199480,19,2022-01-28_17h52.13.407,lexical_decision_task_DD_L3,2021.2.3,Win32,59.00401227,,,,,,,,,,,0.6638,1,,,,,,,,,,,,,,m,1,0.6638,,,,,,,,0.011111138,-0.362963045,0,0,0,,0,43,43,81,1,POODLE,LB,old,m,./images/POODLELB.png,,,,,,,,,,,,,,,,,,,,,
,,,,,,,,,,,,,,,,,199480,19,2022-01-28_17h52.13.407,lexical_decision_task_DD_L3,2021.2.3,Win32,59.00401227,,,,,,,,,,,0.667,1,,,,,,,,,,,,,,z,1,0.667,,,,,,,,0.011111138,-0.362963045,0,0,0,,0,44,44,165,1,TROWN,C,old,z,./images/TROWN.png,,,,,,,,,,,,,,,,,,,,,
,,,,,,,,,,,,,,,,,199480,19,2022-01-28_17h52.13.407,lexical_decision_task_DD_L3,2021.2.3,Win32,59.00401227,,,,,,,,,,,0.7065,1,,,,,,,,,,,,,,m,1,0.7065,,,,,,,,0.011111138,-0.362963045,0,0,0,,0,45,45,9,1,RHINO,LB,old,m,./images/RHINOLB.png,,,,,,,,,,,,,,,,,,,,,
,,,,,,,,,,,,,,,,,199480,19,2022-01-28_17h52.13.407,lexical_decision_task_DD_L3,2021.2.3,Win32,59.00401227,,,,,,,,,,,0.7572,1,,,,,,,,,,,,,,z,1,0.7572,,,,,,,,0.011111138,-0.362963045,0,0,0,,0,46,46,103,1,FLORT,HB,old,z,./images/FLORTHB.png,,,,,,,,,,,,,,,,,,,,,
,,,,,,,,,,,,,,,,,199480,19,2022-01-28_17h52.13.407,lexical_decision_task_DD_L3,2021.2.3,Win32,59.00401227,,,,,,,,,,,0.9942,1,,,,,,,,,,,,,,z,1,0.9942,,,,,,,,0.011111138,-0.362963045,0,0,0,,0,47,47,136,1,WERVE,HB,old,z,./images/WERVEHB.png,,,,,,,,,,,,,,,,,,,,,
,,,,,,,,,,,,,,,,,199480,19,2022-01-28_17h52.13.407,lexical_decision_task_DD_L3,2021.2.3,Win32,59.00401227,,,,,,,,,,,0.7959,1,,,,,,,,,,,,,,m,1,0.7959,,,,,,,,0.011111138,-0.362963045,0,0,0,,0,48,48,18,1,JAGUAR,LB,old,m,./images/JAGUARLB.png,,,,,,,,,,,,,,,,,,,,,
,,,,,,,,,,,,,,,,,199480,19,2022-01-28_17h52.13.407,lexical_decision_task_DD_L3,2021.2.3,Win32,59.00401227,,,,,,,,,,,0.7648,1,,,,,,,,,,,,,,m,1,0.7648,,,,,,,,0.011111138,-0.362963045,0,0,0,,0,49,49,19,1,DOUGH,C,old,m,./images/DOUGH.png,,,,,,,,,,,,,,,,,,,,,
,,,,,,,,,,,,,,,,,199480,19,2022-01-28_17h52.13.407,lexical_decision_task_DD_L3,2021.2.3,Win32,59.00401227,,,,,,,,,,,0.8389,1,,,,,,,,,,,,,,z,1,0.8389,,,,,,,,0.011111138,-0.362963045,0,0,0,,0,50,50,99,1,BACKY,C,old,z,./images/BACKY.png,,,,,,,,,,,,,,,,,,,,,
,,,,,,,,,,,,,,,,,199480,19,2022-01-28_17h52.13.407,lexical_decision_task_DD_L3,2021.2.3,Win32,59.00401227,,,,,,,,,,,1.0806,1,,,,,,,,,,,,,,m,1,1.0806,,,,,,,,0.011111138,-0.362963045,0,0,0,,0,51,51,4,1,MUSCLE,C,old,m,./images/MUSCLE.png,,,,,,,,,,,,,,,,,,,,,
,,,,,,,,,,,,,,,,,199480,19,2022-01-28_17h52.13.407,lexical_decision_task_DD_L3,2021.2.3,Win32,59.00401227,,,,,,,,,,,1.1425,1,,,,,,,,,,,,,,m,1,1.1425,,,,,,,,0.011111138,-0.362963045,0,0,0,,0,52,52,50,1,MALLET,HB,old,m,./images/MALLETHB.png,,,,,,,,,,,,,,,,,,,,,
,,,,,,,,,,,,,,,,,199480,19,2022-01-28_17h52.13.407,lexical_decision_task_DD_L3,2021.2.3,Win32,59.00401227,,,,,,,,,,,0.8738,1,,,,,,,,,,,,,,m,1,0.8738,,,,,,,,0.011111138,-0.362963045,0,0,0,,0,53,53,68,1,TORCH,HB,old,m,./images/TORCHHB.png,,,,,,,,,,,,,,,,,,,,,
,,,,,,,,,,,,,,,,,199480,19,2022-01-28_17h52.13.407,lexical_decision_task_DD_L3,2021.2.3,Win32,59.00401227,,,,,,,,,,,0.6827,1,,,,,,,,,,,,,,z,1,0.6827,,,,,,,,0.011111138,-0.362963045,0,0,0,,0,54,54,141,1,PLEET,C,old,z,./images/PLEET.png,,,,,,,,,,,,,,,,,,,,,
,,,,,,,,,,,,,,,,,199480,19,2022-01-28_17h52.13.407,lexical_decision_task_DD_L3,2021.2.3,Win32,59.00401227,,,,,,,,,,,0.8088,1,,,,,,,,,,,,,,m,1,0.8088,,,,,,,,0.011111138,-0.362963045,0,0,0,,0,55,55,54,1,TRIPOD,LB,old,m,./images/TRIPODLB.png,,,,,,,,,,,,,,,,,,,,,
,,,,,,,,,,,,,,,,,199480,19,2022-01-28_17h52.13.407,lexical_decision_task_DD_L3,2021.2.3,Win32,59.00401227,,,,,,,,,,,0.6822,1,,,,,,,,,,,,,,z,1,0.6822,,,,,,,,0.011111138,-0.362963045,0,0,0,,0,56,56,150,1,NOOLS,C,old,z,./images/NOOLS.png,,,,,,,,,,,,,,,,,,,,,
,,,,,,,,,,,,,,,,,199480,19,2022-01-28_17h52.13.407,lexical_decision_task_DD_L3,2021.2.3,Win32,59.00401227,,,,,,,,,,,1.1053,1,,,,,,,,,,,,,,m,1,1.1053,,,,,,,,0.011111138,-0.362963045,0,0,0,,0,57,57,69,1,COOKER,LB,old,m,./images/COOKERLB.png,,,,,,,,,,,,,,,,,,,,,
,,,,,,,,,,,,,,,,,199480,19,2022-01-28_17h52.13.407,lexical_decision_task_DD_L3,2021.2.3,Win32,59.00401227,,,,,,,,,,,0.8209,1,,,,,,,,,,,,,,m,1,0.8209,,,,,,,,0.011111138,-0.362963045,0,0,0,,0,58,58,56,1,PACKET,HB,old,m,./images/PACKETHB.png,,,,,,,,,,,,,,,,,,,,,
,,,,,,,,,,,,,,,,,199480,19,2022-01-28_17h52.13.407,lexical_decision_task_DD_L3,2021.2.3,Win32,59.00401227,,,,,,,,,,,0.6889,1,,,,,,,,,,,,,,m,1,0.6889,,,,,,,,0.011111138,-0.362963045,0,0,0,,0,59,59,58,1,BABOON,C,old,m,./images/BABOON.png,,,,,,,,,,,,,,,,,,,,,
,,,,,,,,,,,,,,,,,199480,19,2022-01-28_17h52.13.407,lexical_decision_task_DD_L3,2021.2.3,Win32,59.00401227,,,,,,,,,,,0.6231,1,,,,,,,,,,,,,,m,1,0.6231,,,,,,,,0.011111138,-0.362963045,0,0,0,,0,60,60,0,1,TOMATO,LB,old,m,./images/TOMATOLB.png,,,,,,,,,,,,,,,,,,,,,
,,,,,,,,,,,,,,,,,199480,19,2022-01-28_17h52.13.407,lexical_decision_task_DD_L3,2021.2.3,Win32,59.00401227,,,,,,,,,,,0.565,1,,,,,,,,,,,,,,m,1,0.565,,,,,,,,0.011111138,-0.362963045,0,0,0,,0,61,61,78,1,LITTER,LB,old,m,./images/LITTERLB.png,,,,,,,,,,,,,,,,,,,,,
,,,,,,,,,,,,,,,,,199480,19,2022-01-28_17h52.13.407,lexical_decision_task_DD_L3,2021.2.3,Win32,59.00401227,,,,,,,,,,,0.8928,1,,,,,,,,,,,,,,z,1,0.8928,,,,,,,,0.011111138,-0.362963045,0,0,0,,0,62,62,118,1,BAVEL,HB,old,z,./images/BAVELHB.png,,,,,,,,,,,,,,,,,,,,,
,,,,,,,,,,,,,,,,,199480,19,2022-01-28_17h52.13.407,lexical_decision_task_DD_L3,2021.2.3,Win32,59.00401227,,,,,,,,,,,0.6514,1,,,,,,,,,,,,,,m,1,0.6514,,,,,,,,0.011111138,-0.362963045,0,0,0,,0,63,63,61,1,CANDLE,C,old,m,./images/CANDLE.png,,,,,,,,,,,,,,,,,,,,,
,,,,,,,,,,,,,,,,,199480,19,2022-01-28_17h52.13.407,lexical_decision_task_DD_L3,2021.2.3,Win32,59.00401227,,,,,,,,,,,0.6456,1,,,,,,,,,,,,,,z,1,0.6456,,,,,,,,0.011111138,-0.362963045,0,0,0,,0,64,64,161,1,BLAPS,LB,old,z,./images/BLAPSLB.png,,,,,,,,,,,,,,,,,,,,,
,,,,,,,,,,,,,,,,,199480,19,2022-01-28_17h52.13.407,lexical_decision_task_DD_L3,2021.2.3,Win32,59.00401227,,,,,,,,,,,0.8548,1,,,,,,,,,,,,,,z,1,0.8548,,,,,,,,0.011111138,-0.362963045,0,0,0,,0,65,65,146,1,MOOST,LB,old,z,./images/MOOSTLB.png,,,,,,,,,,,,,,,,,,,,,
,,,,,,,,,,,,,,,,,199480,19,2022-01-28_17h52.13.407,lexical_decision_task_DD_L3,2021.2.3,Win32,59.00401227,,,,,,,,,,,0.6002,1,,,,,,,,,,,,,,m,1,0.6002,,,,,,,,0.011111138,-0.362963045,0,0,0,,0,66,66,49,1,DRUMS,C,old,m,./images/DRUMS.png,,,,,,,,,,,,,,,,,,,,,
,,,,,,,,,,,,,,,,,199480,19,2022-01-28_17h52.13.407,lexical_decision_task_DD_L3,2021.2.3,Win32,59.00401227,,,,,,,,,,,1.0405,1,,,,,,,,,,,,,,m,1,1.0405,,,,,,,,0.011111138,-0.362963045,0,0,0,,0,67,67,65,1,FARMER,HB,old,m,./images/FARMERHB.png,,,,,,,,,,,,,,,,,,,,,
,,,,,,,,,,,,,,,,,199480,19,2022-01-28_17h52.13.407,lexical_decision_task_DD_L3,2021.2.3,Win32,59.00401227,,,,,,,,,,,0.7458,1,,,,,,,,,,,,,,z,1,0.7458,,,,,,,,0.011111138,-0.362963045,0,0,0,,0,68,68,120,1,RINED,C,old,z,./images/RINED.png,,,,,,,,,,,,,,,,,,,,,
,,,,,,,,,,,,,,,,,199480,19,2022-01-28_17h52.13.407,lexical_decision_task_DD_L3,2021.2.3,Win32,59.00401227,,,,,,,,,,,0.6798,1,,,,,,,,,,,,,,z,1,0.6798,,,,,,,,0.011111138,-0.362963045,0,0,0,,0,69,69,87,1,TRING,C,old,z,./images/TRING.png,,,,,,,,,,,,,,,,,,,,,
,,,,,,,,,,,,,,,,,199480,19,2022-01-28_17h52.13.407,lexical_decision_task_DD_L3,2021.2.3,Win32,59.00401227,,,,,,,,,,,0.5796,1,,,,,,,,,,,,,,m,1,0.5796,,,,,,,,0.011111138,-0.362963045,0,0,0,,0,70,70,6,1,SQUARE,LB,old,m,./images/SQUARELB.png,,,,,,,,,,,,,,,,,,,,,
,,,,,,,,,,,,,,,,,199480,19,2022-01-28_17h52.13.407,lexical_decision_task_DD_L3,2021.2.3,Win32,59.00401227,,,,,,,,,,,0.6346,1,,,,,,,,,,,,,,m,1,0.6346,,,,,,,,0.011111138,-0.362963045,0,0,0,,0,71,71,10,1,BELLY,C,old,m,./images/BELLY.png,,,,,,,,,,,,,,,,,,,,,
,,,,,,,,,,,,,,,,,199480,19,2022-01-28_17h52.13.407,lexical_decision_task_DD_L3,2021.2.3,Win32,59.00401227,,,,,,,,,,,0.7517,1,,,,,,,,,,,,,,z,1,0.7517,,,,,,,,0.011111138,-0.362963045,0,0,0,,0,72,72,137,1,JOOST,LB,old,z,./images/JOOSTLB.png,,,,,,,,,,,,,,,,,,,,,
,,,,,,,,,,,,,,,,,199480,19,2022-01-28_17h52.13.407,lexical_decision_task_DD_L3,2021.2.3,Win32,59.00401227,,,,,,,,,,,0.9323,1,,,,,,,,,,,,,,z,1,0.9323,,,,,,,,0.011111138,-0.362963045,0,0,0,,0,73,73,100,1,DRIBS,HB,old,z,./images/DRIBSHB.png,,,,,,,,,,,,,,,,,,,,,
,,,,,,,,,,,,,,,,,199480,19,2022-01-28_17h52.13.407,lexical_decision_task_DD_L3,2021.2.3,Win32,59.00401227,,,,,,,,,,,0.9205,1,,,,,,,,,,,,,,z,1,0.9205,,,,,,,,0.011111138,-0.362963045,0,0,0,,0,74,74,158,1,EGECT,LB,old,z,./images/EGECTLB.png,,,,,,,,,,,,,,,,,,,,,
,,,,,,,,,,,,,,,,,199480,19,2022-01-28_17h52.13.407,lexical_decision_task_DD_L3,2021.2.3,Win32,59.00401227,,,,,,,,,,,0.6853,1,,,,,,,,,,,,,,m,1,0.6853,,,,,,,,0.011111138,-0.362963045,0,0,0,,0,75,75,30,1,STORM,LB,old,m,./images/STORMLB.png,,,,,,,,,,,,,,,,,,,,,
,,,,,,,,,,,,,,,,,199480,19,2022-01-28_17h52.13.407,lexical_decision_task_DD_L3,2021.2.3,Win32,59.00401227,,,,,,,,,,,0.7182,1,,,,,,,,,,,,,,m,1,0.7182,,,,,,,,0.011111138,-0.362963045,0,0,0,,0,76,76,37,1,BIRTH,C,old,m,./images/BIRTH.png,,,,,,,,,,,,,,,,,,,,,
,,,,,,,,,,,,,,,,,199480,19,2022-01-28_17h52.13.407,lexical_decision_task_DD_L3,2021.2.3,Win32,59.00401227,,,,,,,,,,,0.5934,1,,,,,,,,,,,,,,m,1,0.5934,,,,,,,,0.011111138,-0.362963045,0,0,0,,0,77,77,63,1,MIRROR,LB,old,m,./images/MIRRORLB.png,,,,,,,,,,,,,,,,,,,,,
,,,,,,,,,,,,,,,,,199480,19,2022-01-28_17h52.13.407,lexical_decision_task_DD_L3,2021.2.3,Win32,59.00401227,,,,,,,,,,,0.6966,1,,,,,,,,,,,,,,m,1,0.6966,,,,,,,,0.011111138,-0.362963045,0,0,0,,0,78,78,24,1,SCREW,LB,old,m,./images/SCREWLB.png,,,,,,,,,,,,,,,,,,,,,
,,,,,,,,,,,,,,,,,199480,19,2022-01-28_17h52.13.407,lexical_decision_task_DD_L3,2021.2.3,Win32,59.00401227,,,,,,,,,,,0.7811,1,,,,,,,,,,,,,,m,1,0.7811,,,,,,,,0.011111138,-0.362963045,0,0,0,,0,79,79,7,1,PAINT,C,old,m,./images/PAINT.png,,,,,,,,,,,,,,,,,,,,,
,,,,,,,,,,,,,,,,,199480,19,2022-01-28_17h52.13.407,lexical_decision_task_DD_L3,2021.2.3,Win32,59.00401227,,,,,,,,,,,0.6647,1,,,,,,,,,,,,,,m,1,0.6647,,,,,,,,0.011111138,-0.362963045,0,0,0,,0,80,80,75,1,GRAIN,LB,old,m,./images/GRAINLB.png,,,,,,,,,,,,,,,,,,,,,
,,,,,,,,,,,,,,,,,199480,19,2022-01-28_17h52.13.407,lexical_decision_task_DD_L3,2021.2.3,Win32,59.00401227,,,,,,,,,,,0.6158,1,,,,,,,,,,,,,,z,1,0.6158,,,,,,,,0.011111138,-0.362963045,0,0,0,,0,81,81,156,1,HIXES,C,old,z,./images/HIXES.png,,,,,,,,,,,,,,,,,,,,,
,,,,,,,,,,,,,,,,,199480,19,2022-01-28_17h52.13.407,lexical_decision_task_DD_L3,2021.2.3,Win32,59.00401227,,,,,,,,,,,0.7382,1,,,,,,,,,,,,,,m,1,0.7382,,,,,,,,0.011111138,-0.362963045,0,0,0,,0,82,82,31,1,QUILL,C,old,m,./images/QUILL.png,,,,,,,,,,,,,,,,,,,,,
,,,,,,,,,,,,,,,,,199480,19,2022-01-28_17h52.13.407,lexical_decision_task_DD_L3,2021.2.3,Win32,59.00401227,,,,,,,,,,,0.7662,1,,,,,,,,,,,,,,z,1,0.7662,,,,,,,,0.011111138,-0.362963045,1,0,0,,0,83,83,139,1,BLEAR,HB,old,z,./images/BLEARHB.png,break_done_button,,,,,,,,,,,,,,,,,,,,
,,,,,,,,,,,,,,,,,199480,19,2022-01-28_17h52.13.407,lexical_decision_task_DD_L3,2021.2.3,Win32,59.00401227,,,,,,,,,,,0.7812,1,,,,,,,,,,,,,,z,1,0.7812,,,,,,,,0.011111138,-0.362963045,0,0,0,,0,84,84,160,1,VEETS,HB,old,z,./images/VEETSHB.png,,,,,,,,,,,,,,,,,,,,,
,,,,,,,,,,,,,,,,,199480,19,2022-01-28_17h52.13.407,lexical_decision_task_DD_L3,2021.2.3,Win32,59.00401227,,,,,,,,,,,0.6278,1,,,,,,,,,,,,,,m,1,0.6278,,,,,,,,0.011111138,-0.362963045,0,0,0,,0,85,85,82,1,SUNSET,C,old,m,./images/SUNSET.png,,,,,,,,,,,,,,,,,,,,,
,,,,,,,,,,,,,,,,,199480,19,2022-01-28_17h52.13.407,lexical_decision_task_DD_L3,2021.2.3,Win32,59.00401227,,,,,,,,,,,0.6703,1,,,,,,,,,,,,,,m,1,0.6703,,,,,,,,0.011111138,-0.362963045,0,0,0,,0,86,86,3,1,FINGER,LB,old,m,./images/FINGERLB.png,,,,,,,,,,,,,,,,,,,,,
,,,,,,,,,,,,,,,,,199480,19,2022-01-28_17h52.13.407,lexical_decision_task_DD_L3,2021.2.3,Win32,59.00401227,,,,,,,,,,,0.8116,1,,,,,,,,,,,,,,m,1,0.8116,,,,,,,,0.011111138,-0.362963045,0,0,0,,0,87,87,83,1,JUNGLE,HB,old,m,./images/JUNGLEHB.png,,,,,,,,,,,,,,,,,,,,,
,,,,,,,,,,,,,,,,,199480,19,2022-01-28_17h52.13.407,lexical_decision_task_DD_L3,2021.2.3,Win32,59.00401227,,,,,,,,,,,0.7071,1,,,,,,,,,,,,,,z,1,0.7071,,,,,,,,0.011111138,-0.362963045,0,0,0,,0,88,88,148,1,JOMS,HB,old,z,./images/JOMSHB.png,,,,,,,,,,,,,,,,,,,,,
,,,,,,,,,,,,,,,,,199480,19,2022-01-28_17h52.13.407,lexical_decision_task_DD_L3,2021.2.3,Win32,59.00401227,,,,,,,,,,,0.8097,1,,,,,,,,,,,,,,z,1,0.8097,,,,,,,,0.011111138,-0.362963045,0,0,0,,0,89,89,110,1,CRUNK,LB,old,z,./images/CRUNKLB.png,,,,,,,,,,,,,,,,,,,,,
,,,,,,,,,,,,,,,,,199480,19,2022-01-28_17h52.13.407,lexical_decision_task_DD_L3,2021.2.3,Win32,59.00401227,,,,,,,,,,,0.9173,1,,,,,,,,,,,,,,m,1,0.9173,,,,,,,,0.011111138,-0.362963045,0,0,0,,0,90,90,29,1,CRUMB,HB,old,m,./images/CRUMBHB.png,,,,,,,,,,,,,,,,,,,,,
,,,,,,,,,,,,,,,,,199480,19,2022-01-28_17h52.13.407,lexical_decision_task_DD_L3,2021.2.3,Win32,59.00401227,,,,,,,,,,,0.9938,1,,,,,,,,,,,,,,m,1,0.9938,,,,,,,,0.011111138,-0.362963045,0,0,0,,0,91,91,42,1,FOLDER,LB,old,m,./images/FOLDERLB.png,,,,,,,,,,,,,,,,,,,,,
,,,,,,,,,,,,,,,,,199480,19,2022-01-28_17h52.13.407,lexical_decision_task_DD_L3,2021.2.3,Win32,59.00401227,,,,,,,,,,,0.9516,1,,,,,,,,,,,,,,z,1,0.9516,,,,,,,,0.011111138,-0.362963045,0,0,0,,0,92,92,104,1,GITTY,LB,old,z,./images/GITTYLB.png,,,,,,,,,,,,,,,,,,,,,
,,,,,,,,,,,,,,,,,199480,19,2022-01-28_17h52.13.407,lexical_decision_task_DD_L3,2021.2.3,Win32,59.00401227,,,,,,,,,,,0.7965,1,,,,,,,,,,,,,,m,1,0.7965,,,,,,,,0.011111138,-0.362963045,0,0,0,,0,93,93,46,1,PEARL,C,old,m,./images/PEARL.png,,,,,,,,,,,,,,,,,,,,,
,,,,,,,,,,,,,,,,,199480,19,2022-01-28_17h52.13.407,lexical_decision_task_DD_L3,2021.2.3,Win32,59.00401227,,,,,,,,,,,0.89,1,,,,,,,,,,,,,,z,1,0.89,,,,,,,,0.011111138,-0.362963045,0,0,0,,0,94,94,133,1,POWDY,HB,old,z,./images/POWDYHB.png,,,,,,,,,,,,,,,,,,,,,
,,,,,,,,,,,,,,,,,199480,19,2022-01-28_17h52.13.407,lexical_decision_task_DD_L3,2021.2.3,Win32,59.00401227,,,,,,,,,,,0.6194,1,,,,,,,,,,,,,,m,1,0.6194,,,,,,,,0.011111138,-0.362963045,0,0,0,,0,95,95,76,1,INFANT,C,old,m,./images/INFANT.png,,,,,,,,,,,,,,,,,,,,,
,,,,,,,,,,,,,,,,,199480,19,2022-01-28_17h52.13.407,lexical_decision_task_DD_L3,2021.2.3,Win32,59.00401227,,,,,,,,,,,0.7317,1,,,,,,,,,,,,,,z,1,0.7317,,,,,,,,0.011111138,-0.362963045,0,0,0,,0,96,96,113,1,LINEW,LB,old,z,./images/LINEWLB.png,,,,,,,,,,,,,,,,,,,,,
,,,,,,,,,,,,,,,,,199480,19,2022-01-28_17h52.13.407,lexical_decision_task_DD_L3,2021.2.3,Win32,59.00401227,,,,,,,,,,,0.7023,1,,,,,,,,,,,,,,m,1,0.7023,,,,,,,,0.011111138,-0.362963045,0,0,0,,0,97,97,26,1,SMOKER,HB,old,m,./images/SMOKERHB.png,,,,,,,,,,,,,,,,,,,,,
,,,,,,,,,,,,,,,,,199480,19,2022-01-28_17h52.13.407,lexical_decision_task_DD_L3,2021.2.3,Win32,59.00401227,,,,,,,,,,,0.5613,1,,,,,,,,,,,,,,m,1,0.5613,,,,,,,,0.011111138,-0.362963045,0,0,0,,0,98,98,66,1,SWEAT,LB,old,m,./images/SWEATLB.png,,,,,,,,,,,,,,,,,,,,,
,,,,,,,,,,,,,,,,,199480,19,2022-01-28_17h52.13.407,lexical_decision_task_DD_L3,2021.2.3,Win32,59.00401227,,,,,,,,,,,0.6416,1,,,,,,,,,,,,,,z,1,0.6416,,,,,,,,0.011111138,-0.362963045,0,0,0,,0,99,99,105,1,MOKER,C,old,z,./images/MOKER.png,,,,,,,,,,,,,,,,,,,,,
,,,,,,,,,,,,,,,,,199480,19,2022-01-28_17h52.13.407,lexical_decision_task_DD_L3,2021.2.3,Win32,59.00401227,,,,,,,,,,,0.904,1,,,,,,,,,,,,,,z,1,0.904,,,,,,,,0.011111138,-0.362963045,0,0,0,,0,100,100,166,1,SHORY,HB,old,z,./images/SHORYHB.png,,,,,,,,,,,,,,,,,,,,,
,,,,,,,,,,,,,,,,,199480,19,2022-01-28_17h52.13.407,lexical_decision_task_DD_L3,2021.2.3,Win32,59.00401227,,,,,,,,,,,0.653,1,,,,,,,,,,,,,,z,1,0.653,,,,,,,,0.011111138,-0.362963045,0,0,0,,0,101,101,131,1,NACES,LB,old,z,./images/NACESLB.png,,,,,,,,,,,,,,,,,,,,,
,,,,,,,,,,,,,,,,,199480,19,2022-01-28_17h52.13.407,lexical_decision_task_DD_L3,2021.2.3,Win32,59.00401227,,,,,,,,,,,0.7013,1,,,,,,,,,,,,,,m,1,0.7013,,,,,,,,0.011111138,-0.362963045,0,0,0,,0,102,102,74,1,CEMENT,HB,old,m,./images/CEMENTHB.png,,,,,,,,,,,,,,,,,,,,,
,,,,,,,,,,,,,,,,,199480,19,2022-01-28_17h52.13.407,lexical_decision_task_DD_L3,2021.2.3,Win32,59.00401227,,,,,,,,,,,0.7164,0,,,,,,,,,,,,,,z,0,0.7164,,,,,,,,0.011111138,-0.362963045,0,0,0,,0,103,103,16,1,PENCE,C,old,m,./images/PENCE.png,,,,,,,,,,,,,,,,,,,,,
,,,,,,,,,,,,,,,,,199480,19,2022-01-28_17h52.13.407,lexical_decision_task_DD_L3,2021.2.3,Win32,59.00401227,,,,,,,,,,,0.9767,1,,,,,,,,,,,,,,m,1,0.9767,,,,,,,,0.011111138,-0.362963045,0,0,0,,0,104,104,77,1,COUCH,HB,old,m,./images/COUCHHB.png,,,,,,,,,,,,,,,,,,,,,
,,,,,,,,,,,,,,,,,199480,19,2022-01-28_17h52.13.407,lexical_decision_task_DD_L3,2021.2.3,Win32,59.00401227,,,,,,,,,,,0.7853,1,,,,,,,,,,,,,,z,1,0.7853,,,,,,,,0.011111138,-0.362963045,0,0,0,,0,105,105,94,1,BLANS,HB,old,z,./images/BLANSHB.png,,,,,,,,,,,,,,,,,,,,,
,,,,,,,,,,,,,,,,,199480,19,2022-01-28_17h52.13.407,lexical_decision_task_DD_L3,2021.2.3,Win32,59.00401227,,,,,,,,,,,0.8957,1,,,,,,,,,,,,,,m,1,0.8957,,,,,,,,0.011111138,-0.362963045,0,0,0,,0,106,106,41,1,STRING,HB,old,m,./images/STRINGHB.png,,,,,,,,,,,,,,,,,,,,,
,,,,,,,,,,,,,,,,,199480,19,2022-01-28_17h52.13.407,lexical_decision_task_DD_L3,2021.2.3,Win32,59.00401227,,,,,,,,,,,0.7023,1,,,,,,,,,,,,,,m,1,0.7023,,,,,,,,0.011111138,-0.362963045,0,0,0,,0,107,107,62,1,PURSE,HB,old,m,./images/PURSEHB.png,,,,,,,,,,,,,,,,,,,,,
,,,,,,,,,,,,,,,,,199480,19,2022-01-28_17h52.13.407,lexical_decision_task_DD_L3,2021.2.3,Win32,59.00401227,,,,,,,,,,,0.738,1,,,,,,,,,,,,,,z,1,0.738,,,,,,,,0.011111138,-0.362963045,0,0,0,,0,108,108,101,1,GLEET,LB,old,z,./images/GLEETLB.png,,,,,,,,,,,,,,,,,,,,,
,,,,,,,,,,,,,,,,,199480,19,2022-01-28_17h52.13.407,lexical_decision_task_DD_L3,2021.2.3,Win32,59.00401227,,,,,,,,,,,0.8458,1,,,,,,,,,,,,,,m,1,0.8458,,,,,,,,0.011111138,-0.362963045,0,0,0,,0,109,109,25,1,WRIST,C,old,m,./images/WRIST.png,,,,,,,,,,,,,,,,,,,,,
,,,,,,,,,,,,,,,,,199480,19,2022-01-28_17h52.13.407,lexical_decision_task_DD_L3,2021.2.3,Win32,59.00401227,,,,,,,,,,,0.5988,1,,,,,,,,,,,,,,z,1,0.5988,,,,,,,,0.011111138,-0.362963045,0,0,0,,0,110,110,96,1,KEAMS,C,old,z,./images/KEAMS.png,,,,,,,,,,,,,,,,,,,,,
,,,,,,,,,,,,,,,,,199480,19,2022-01-28_17h52.13.407,lexical_decision_task_DD_L3,2021.2.3,Win32,59.00401227,,,,,,,,,,,0.6351,1,,,,,,,,,,,,,,m,1,0.6351,,,,,,,,0.011111138,-0.362963045,0,0,0,,0,111,111,51,1,ONION,LB,old,m,./images/ONIONLB.png,,,,,,,,,,,,,,,,,,,,,
,,,,,,,,,,,,,,,,,199480,19,2022-01-28_17h52.13.407,lexical_decision_task_DD_L3,2021.2.3,Win32,59.00401227,,,,,,,,,,,0.759,1,,,,,,,,,,,,,,m,1,0.759,,,,,,,,0.011111138,-0.362963045,0,0,0,,0,112,112,57,1,MOOSE,LB,old,m,./images/MOOSELB.png,,,,,,,,,,,,,,,,,,,,,
,,,,,,,,,,,,,,,,,199480,19,2022-01-28_17h52.13.407,lexical_decision_task_DD_L3,2021.2.3,Win32,59.00401227,,,,,,,,,,,1.0684,1,,,,,,,,,,,,,,m,1,1.0684,,,,,,,,0.011111138,-0.362963045,0,0,0,,0,113,113,20,1,CRADLE,HB,old,m,./images/CRADLEHB.png,,,,,,,,,,,,,,,,,,,,,
,,,,,,,,,,,,,,,,,199480,19,2022-01-28_17h52.13.407,lexical_decision_task_DD_L3,2021.2.3,Win32,59.00401227,,,,,,,,,,,1.0175,1,,,,,,,,,,,,,,z,1,1.0175,,,,,,,,0.011111138,-0.362963045,0,0,0,,0,114,114,145,1,LAMEL,HB,old,z,./images/LAMELHB.png,,,,,,,,,,,,,,,,,,,,,
,,,,,,,,,,,,,,,,,199480,19,2022-01-28_17h52.13.407,lexical_decision_task_DD_L3,2021.2.3,Win32,59.00401227,,,,,,,,,,,0.7407,1,,,,,,,,,,,,,,z,1,0.7407,,,,,,,,0.011111138,-0.362963045,0,0,0,,0,115,115,116,1,BALGY,LB,old,z,./images/BALGYLB.png,,,,,,,,,,,,,,,,,,,,,
,,,,,,,,,,,,,,,,,199480,19,2022-01-28_17h52.13.407,lexical_decision_task_DD_L3,2021.2.3,Win32,59.00401227,,,,,,,,,,,0.532,1,,,,,,,,,,,,,,m,1,0.532,,,,,,,,0.011111138,-0.362963045,0,0,0,,0,116,116,22,1,MELON,C,old,m,./images/MELON.png,,,,,,,,,,,,,,,,,,,,,
,,,,,,,,,,,,,,,,,199480,19,2022-01-28_17h52.13.407,lexical_decision_task_DD_L3,2021.2.3,Win32,59.00401227,,,,,,,,,,,0.8363,1,,,,,,,,,,,,,,m,1,0.8363,,,,,,,,0.011111138,-0.362963045,0,0,0,,0,117,117,43,1,MOSQUE,C,old,m,./images/MOSQUE.png,,,,,,,,,,,,,,,,,,,,,
,,,,,,,,,,,,,,,,,199480,19,2022-01-28_17h52.13.407,lexical_decision_task_DD_L3,2021.2.3,Win32,59.00401227,,,,,,,,,,,0.9871,1,,,,,,,,,,,,,,z,1,0.9871,,,,,,,,0.011111138,-0.362963045,0,0,0,,0,118,118,114,1,RIKES,C,old,z,./images/RIKES.png,,,,,,,,,,,,,,,,,,,,,
,,,,,,,,,,,,,,,,,199480,19,2022-01-28_17h52.13.407,lexical_decision_task_DD_L3,2021.2.3,Win32,59.00401227,,,,,,,,,,,1.1834,1,,,,,,,,,,,,,,z,1,1.1834,,,,,,,,0.011111138,-0.362963045,0,0,0,,0,119,119,85,1,CHULK,HB,old,z,./images/CHULKHB.png,,,,,,,,,,,,,,,,,,,,,
,,,,,,,,,,,,,,,,,199480,19,2022-01-28_17h52.13.407,lexical_decision_task_DD_L3,2021.2.3,Win32,59.00401227,,,,,,,,,,,0.9397,1,,,,,,,,,,,,,,z,1,0.9397,,,,,,,,0.011111138,-0.362963045,0,0,0,,0,120,120,163,1,GAMBA,HB,old,z,./images/GAMBAHB.png,,,,,,,,,,,,,,,,,,,,,
,,,,,,,,,,,,,,,,,199480,19,2022-01-28_17h52.13.407,lexical_decision_task_DD_L3,2021.2.3,Win32,59.00401227,,,,,,,,,,,0.7561,1,,,,,,,,,,,,,,z,1,0.7561,,,,,,,,0.011111138,-0.362963045,0,0,0,,0,121,121,93,1,SMONE,C,old,z,./images/SMONE.png,,,,,,,,,,,,,,,,,,,,,
,,,,,,,,,,,,,,,,,199480,19,2022-01-28_17h52.13.407,lexical_decision_task_DD_L3,2021.2.3,Win32,59.00401227,,,,,,,,,,,1.3367,0,,,,,,,,,,,,,,m,0,1.3367,,,,,,,,0.011111138,-0.362963045,0,0,0,,0,122,122,88,1,GLUSH,HB,old,z,./images/GLUSHHB.png,,,,,,,,,,,,,,,,,,,,,
,,,,,,,,,,,,,,,,,199480,19,2022-01-28_17h52.13.407,lexical_decision_task_DD_L3,2021.2.3,Win32,59.00401227,,,,,,,,,,,1.2787,1,,,,,,,,,,,,,,m,1,1.2787,,,,,,,,0.011111138,-0.362963045,0,0,0,,0,123,123,11,1,BONNET,HB,old,m,./images/BONNETHB.png,,,,,,,,,,,,,,,,,,,,,
,,,,,,,,,,,,,,,,,199480,19,2022-01-28_17h52.13.407,lexical_decision_task_DD_L3,2021.2.3,Win32,59.00401227,,,,,,,,,,,0.703,1,,,,,,,,,,,,,,z,1,0.703,,,,,,,,0.011111138,-0.362963045,0,0,0,,0,124,124,84,1,HAXES,C,old,z,./images/HAXES.png,,,,,,,,,,,,,,,,,,,,,
,,,,,,,,,,,,,,,,,199480,19,2022-01-28_17h52.13.407,lexical_decision_task_DD_L3,2021.2.3,Win32,59.00401227,,,,,,,,,,,1.0003,1,,,,,,,,,,,,,,m,1,1.0003,,,,,,,,0.011111138,-0.362963045,1,0,0,,0,125,125,38,1,LADDER,HB,old,m,./images/LADDERHB.png,break_done_button,,,,,,,,,,,,,,,,,,,,
,,,,,,,,,,,,,,,,,199480,19,2022-01-28_17h52.13.407,lexical_decision_task_DD_L3,2021.2.3,Win32,59.00401227,,,,,,,,,,,0.9455,0,,,,,,,,,,,,,,m,0,0.9455,,,,,,,,0.011111138,-0.362963045,0,0,0,,0,126,126,142,1,PLASK,HB,old,z,./images/PLASKHB.png,,,,,,,,,,,,,,,,,,,,,
,,,,,,,,,,,,,,,,,199480,19,2022-01-28_17h52.13.407,lexical_decision_task_DD_L3,2021.2.3,Win32,59.00401227,,,,,,,,,,,0.98,1,,,,,,,,,,,,,,z,1,0.98,,,,,,,,0.011111138,-0.362963045,0,0,0,,0,127,127,151,1,TINKY,HB,old,z,./images/TINKYHB.png,,,,,,,,,,,,,,,,,,,,,
,,,,,,,,,,,,,,,,,199480,19,2022-01-28_17h52.13.407,lexical_decision_task_DD_L3,2021.2.3,Win32,59.00401227,,,,,,,,,,,0.8871,1,,,,,,,,,,,,,,z,1,0.8871,,,,,,,,0.011111138,-0.362963045,0,0,0,,0,128,128,112,1,MYING,HB,old,z,./images/MYINGHB.png,,,,,,,,,,,,,,,,,,,,,
,,,,,,,,,,,,,,,,,199480,19,2022-01-28_17h52.13.407,lexical_decision_task_DD_L3,2021.2.3,Win32,59.00401227,,,,,,,,,,,0.6834,1,,,,,,,,,,,,,,m,1,0.6834,,,,,,,,0.011111138,-0.362963045,0,0,0,,0,129,129,45,1,KITTEN,LB,old,m,./images/KITTENLB.png,,,,,,,,,,,,,,,,,,,,,
,,,,,,,,,,,,,,,,,199480,19,2022-01-28_17h52.13.407,lexical_decision_task_DD_L3,2021.2.3,Win32,59.00401227,,,,,,,,,,,0.9071,1,,,,,,,,,,,,,,m,1,0.9071,,,,,,,,0.011111138,-0.362963045,0,0,0,,0,130,130,59,1,BURIAL,HB,old,m,./images/BURIALHB.png,,,,,,,,,,,,,,,,,,,,,
,,,,,,,,,,,,,,,,,199480,19,2022-01-28_17h52.13.407,lexical_decision_task_DD_L3,2021.2.3,Win32,59.00401227,,,,,,,,,,,0.6663,1,,,,,,,,,,,,,,m,1,0.6663,,,,,,,,0.011111138,-0.362963045,0,0,0,,0,131,131,52,1,BANNER,C,old,m,./images/BANNER.png,,,,,,,,,,,,,,,,,,,,,
,,,,,,,,,,,,,,,,,199480,19,2022-01-28_17h52.13.407,lexical_decision_task_DD_L3,2021.2.3,Win32,59.00401227,,,,,,,,,,,1.0021,1,,,,,,,,,,,,,,m,1,1.0021,,,,,,,,0.011111138,-0.362963045,0,0,0,,0,132,132,2,1,BEARD,HB,old,m,./images/BEARDHB.png,,,,,,,,,,,,,,,,,,,,,
,,,,,,,,,,,,,,,,,199480,19,2022-01-28_17h52.13.407,lexical_decision_task_DD_L3,2021.2.3,Win32,59.00401227,,,,,,,,,,,0.6064,1,,,,,,,,,,,,,,m,1,0.6064,,,,,,,,0.011111138,-0.362963045,0,0,0,,0,133,133,55,1,MUFFIN,C,old,m,./images/MUFFIN.png,,,,,,,,,,,,,,,,,,,,,
,,,,,,,,,,,,,,,,,199480,19,2022-01-28_17h52.13.407,lexical_decision_task_DD_L3,2021.2.3,Win32,59.00401227,,,,,,,,,,,0.898,1,,,,,,,,,,,,,,z,1,0.898,,,,,,,,0.011111138,-0.362963045,0,0,0,,0,134,134,124,1,TUNCH,HB,old,z,./images/TUNCHHB.png,,,,,,,,,,,,,,,,,,,,,
,,,,,,,,,,,,,,,,,199480,19,2022-01-28_17h52.13.407,lexical_decision_task_DD_L3,2021.2.3,Win32,59.00401227,,,,,,,,,,,0.7827,1,,,,,,,,,,,,,,z,1,0.7827,,,,,,,,0.011111138,-0.362963045,0,0,0,,0,135,135,143,1,MONGS,LB,old,z,./images/MONGSLB.png,,,,,,,,,,,,,,,,,,,,,
,,,,,,,,,,,,,,,,,199480,19,2022-01-28_17h52.13.407,lexical_decision_task_DD_L3,2021.2.3,Win32,59.00401227,,,,,,,,,,,0.8083,1,,,,,,,,,,,,,,m,1,0.8083,,,,,,,,0.011111138,-0.362963045,0,0,0,,0,136,136,48,1,SPORT,LB,old,m,./images/SPORTLB.png,,,,,,,,,,,,,,,,,,,,,
,,,,,,,,,,,,,,,,,199480,19,2022-01-28_17h52.13.407,lexical_decision_task_DD_L3,2021.2.3,Win32,59.00401227,,,,,,,,,,,0.7637,1,,,,,,,,,,,,,,z,1,0.7637,,,,,,,,0.011111138,-0.362963045,0,0,0,,0,137,137,167,1,ZONET,LB,old,z,./images/ZONETLB.png,,,,,,,,,,,,,,,,,,,,,
,,,,,,,,,,,,,,,,,199480,19,2022-01-28_17h52.13.407,lexical_decision_task_DD_L3,2021.2.3,Win32,59.00401227,,,,,,,,,,,0.8983,1,,,,,,,,,,,,,,m,1,0.8983,,,,,,,,0.011111138,-0.362963045,0,0,0,,0,138,138,13,1,MOTOR,C,old,m,./images/MOTOR.png,,,,,,,,,,,,,,,,,,,,,
,,,,,,,,,,,,,,,,,199480,19,2022-01-28_17h52.13.407,lexical_decision_task_DD_L3,2021.2.3,Win32,59.00401227,,,,,,,,,,,1.0524,1,,,,,,,,,,,,,,z,1,1.0524,,,,,,,,0.011111138,-0.362963045,0,0,0,,0,139,139,115,1,MAWNS,HB,old,z,./images/MAWNSHB.png,,,,,,,,,,,,,,,,,,,,,
,,,,,,,,,,,,,,,,,199480,19,2022-01-28_17h52.13.407,lexical_decision_task_DD_L3,2021.2.3,Win32,59.00401227,,,,,,,,,,,0.7115,1,,,,,,,,,,,,,,m,1,0.7115,,,,,,,,0.011111138,-0.362963045,0,0,0,,0,140,140,39,1,SHELF,LB,old,m,./images/SHELFLB.png,,,,,,,,,,,,,,,,,,,,,
,,,,,,,,,,,,,,,,,199480,19,2022-01-28_17h52.13.407,lexical_decision_task_DD_L3,2021.2.3,Win32,59.00401227,,,,,,,,,,,0.6431,1,,,,,,,,,,,,,,z,1,0.6431,,,,,,,,0.011111138,-0.362963045,0,0,0,,0,141,141,86,1,AIFED,LB,old,z,./images/AIFEDLB.png,,,,,,,,,,,,,,,,,,,,,
,,,,,,,,,,,,,,,,,199480,19,2022-01-28_17h52.13.407,lexical_decision_task_DD_L3,2021.2.3,Win32,59.00401227,,,,,,,,,,,0.8566,1,,,,,,,,,,,,,,m,1,0.8566,,,,,,,,0.011111138,-0.362963045,0,0,0,,0,142,142,14,1,PICKLE,HB,old,m,./images/PICKLEHB.png,,,,,,,,,,,,,,,,,,,,,
,,,,,,,,,,,,,,,,,199480,19,2022-01-28_17h52.13.407,lexical_decision_task_DD_L3,2021.2.3,Win32,59.00401227,,,,,,,,,,,0.6403,1,,,,,,,,,,,,,,z,1,0.6403,,,,,,,,0.011111138,-0.362963045,0,0,0,,0,143,143,89,1,DRIEK,LB,old,z,./images/DRIEKLB.png,,,,,,,,,,,,,,,,,,,,,
,,,,,,,,,,,,,,,,,199480,19,2022-01-28_17h52.13.407,lexical_decision_task_DD_L3,2021.2.3,Win32,59.00401227,,,,,,,,,,,0.6681,1,,,,,,,,,,,,,,m,1,0.6681,,,,,,,,0.011111138,-0.362963045,0,0,0,,0,144,144,12,1,SHORE,LB,old,m,./images/SHORELB.png,,,,,,,,,,,,,,,,,,,,,
,,,,,,,,,,,,,,,,,199480,19,2022-01-28_17h52.13.407,lexical_decision_task_DD_L3,2021.2.3,Win32,59.00401227,,,,,,,,,,,0.6253,1,,,,,,,,,,,,,,z,1,0.6253,,,,,,,,0.011111138,-0.362963045,0,0,0,,0,145,145,102,1,DULLE,C,old,z,./images/DULLE.png,,,,,,,,,,,,,,,,,,,,,
,,,,,,,,,,,,,,,,,199480,19,2022-01-28_17h52.13.407,lexical_decision_task_DD_L3,2021.2.3,Win32,59.00401227,,,,,,,,,,,0.7299,1,,,,,,,,,,,,,,z,1,0.7299,,,,,,,,0.011111138,-0.362963045,0,0,0,,0,146,146,95,1,HANTY,LB,old,z,./images/HANTYLB.png,,,,,,,,,,,,,,,,,,,,,
,,,,,,,,,,,,,,,,,199480,19,2022-01-28_17h52.13.407,lexical_decision_task_DD_L3,2021.2.3,Win32,59.00401227,,,,,,,,,,,0.8217,1,,,,,,,,,,,,,,m,1,0.8217,,,,,,,,0.011111138,-0.362963045,0,0,0,,0,147,147,27,1,ATTIC,LB,old,m,./images/ATTICLB.png,,,,,,,,,,,,,,,,,,,,,
,,,,,,,,,,,,,,,,,199480,19,2022-01-28_17h52.13.407,lexical_decision_task_DD_L3,2021.2.3,Win32,59.00401227,,,,,,,,,,,0.7944,1,,,,,,,,,,,,,,z,1,0.7944,,,,,,,,0.011111138,-0.362963045,0,0,0,,0,148,148,107,1,FASKS,LB,old,z,./images/FASKSLB.png,,,,,,,,,,,,,,,,,,,,,
,,,,,,,,,,,,,,,,,199480,19,2022-01-28_17h52.13.407,lexical_decision_task_DD_L3,2021.2.3,Win32,59.00401227,,,,,,,,,,,0.7302,1,,,,,,,,,,,,,,z,1,0.7302,,,,,,,,0.011111138,-0.362963045,0,0,0,,0,149,149,132,1,SCIFF,C,old,z,./images/SCIFF.png,,,,,,,,,,,,,,,,,,,,,
,,,,,,,,,,,,,,,,,199480,19,2022-01-28_17h52.13.407,lexical_decision_task_DD_L3,2021.2.3,Win32,59.00401227,,,,,,,,,,,0.8061,0,,,,,,,,,,,,,,z,0,0.8061,,,,,,,,0.011111138,-0.362963045,0,0,0,,0,150,150,8,1,TULIP,HB,old,m,./images/TULIPHB.png,,,,,,,,,,,,,,,,,,,,,
,,,,,,,,,,,,,,,,,199480,19,2022-01-28_17h52.13.407,lexical_decision_task_DD_L3,2021.2.3,Win32,59.00401227,,,,,,,,,,,0.7858,1,,,,,,,,,,,,,,m,1,0.7858,,,,,,,,0.011111138,-0.362963045,0,0,0,,0,151,151,80,1,WEASEL,HB,old,m,./images/WEASELHB.png,,,,,,,,,,,,,,,,,,,,,
,,,,,,,,,,,,,,,,,199480,19,2022-01-28_17h52.13.407,lexical_decision_task_DD_L3,2021.2.3,Win32,59.00401227,,,,,,,,,,,0.6327,1,,,,,,,,,,,,,,z,1,0.6327,,,,,,,,0.011111138,-0.362963045,0,0,0,,0,152,152,147,1,ZOLES,C,old,z,./images/ZOLES.png,,,,,,,,,,,,,,,,,,,,,
,,,,,,,,,,,,,,,,,199480,19,2022-01-28_17h52.13.407,lexical_decision_task_DD_L3,2021.2.3,Win32,59.00401227,,,,,,,,,,,0.6893,1,,,,,,,,,,,,,,z,1,0.6893,,,,,,,,0.011111138,-0.362963045,0,0,0,,0,153,153,138,1,PLICE,C,old,z,./images/PLICE.png,,,,,,,,,,,,,,,,,,,,,
,,,,,,,,,,,,,,,,,199480,19,2022-01-28_17h52.13.407,lexical_decision_task_DD_L3,2021.2.3,Win32,59.00401227,,,,,,,,,,,0.9023,1,,,,,,,,,,,,,,z,1,0.9023,,,,,,,,0.011111138,-0.362963045,0,0,0,,0,154,154,154,1,THINT,HB,old,z,./images/THINTHB.png,,,,,,,,,,,,,,,,,,,,,
,,,,,,,,,,,,,,,,,199480,19,2022-01-28_17h52.13.407,lexical_decision_task_DD_L3,2021.2.3,Win32,59.00401227,,,,,,,,,,,0.8524,1,,,,,,,,,,,,,,z,1,0.8524,,,,,,,,0.011111138,-0.362963045,0,0,0,,0,155,155,92,1,PAIMS,LB,old,z,./images/PAIMSLB.png,,,,,,,,,,,,,,,,,,,,,
,,,,,,,,,,,,,,,,,199480,19,2022-01-28_17h52.13.407,lexical_decision_task_DD_L3,2021.2.3,Win32,59.00401227,,,,,,,,,,,0.8048,1,,,,,,,,,,,,,,m,1,0.8048,,,,,,,,0.011111138,-0.362963045,0,0,0,,0,156,156,5,1,PASTA,HB,old,m,./images/PASTAHB.png,,,,,,,,,,,,,,,,,,,,,
,,,,,,,,,,,,,,,,,199480,19,2022-01-28_17h52.13.407,lexical_decision_task_DD_L3,2021.2.3,Win32,59.00401227,,,,,,,,,,,0.7387,1,,,,,,,,,,,,,,z,1,0.7387,,,,,,,,0.011111138,-0.362963045,0,0,0,,0,157,157,140,1,DOVET,LB,old,z,./images/DOVETLB.png,,,,,,,,,,,,,,,,,,,,,
,,,,,,,,,,,,,,,,,199480,19,2022-01-28_17h52.13.407,lexical_decision_task_DD_L3,2021.2.3,Win32,59.00401227,,,,,,,,,,,0.859,1,,,,,,,,,,,,,,z,1,0.859,,,,,,,,0.011111138,-0.362963045,0,0,0,,0,158,158,109,1,BURGE,HB,old,z,./images/BURGEHB.png,,,,,,,,,,,,,,,,,,,,,
,,,,,,,,,,,,,,,,,199480,19,2022-01-28_17h52.13.407,lexical_decision_task_DD_L3,2021.2.3,Win32,59.00401227,,,,,,,,,,,1.0304,0,,,,,,,,,,,,,,z,0,1.0304,,,,,,,,0.011111138,-0.362963045,0,0,0,,0,159,159,17,1,SKIING,HB,old,m,./images/SKIINGHB.png,,,,,,,,,,,,,,,,,,,,,
,,,,,,,,,,,,,,,,,199480,19,2022-01-28_17h52.13.407,lexical_decision_task_DD_L3,2021.2.3,Win32,59.00401227,,,,,,,,,,,0.726,1,,,,,,,,,,,,,,m,1,0.726,,,,,,,,0.011111138,-0.362963045,0,0,0,,0,160,160,71,1,PIMPLE,HB,old,m,./images/PIMPLEHB.png,,,,,,,,,,,,,,,,,,,,,
,,,,,,,,,,,,,,,,,199480,19,2022-01-28_17h52.13.407,lexical_decision_task_DD_L3,2021.2.3,Win32,59.00401227,,,,,,,,,,,0.741,1,,,,,,,,,,,,,,z,1,0.741,,,,,,,,0.011111138,-0.362963045,0,0,0,,0,161,161,164,1,SGREW,LB,old,z,./images/SGREWLB.png,,,,,,,,,,,,,,,,,,,,,
,,,,,,,,,,,,,,,,,199480,19,2022-01-28_17h52.13.407,lexical_decision_task_DD_L3,2021.2.3,Win32,59.00401227,,,,,,,,,,,0.9261,1,,,,,,,,,,,,,,z,1,0.9261,,,,,,,,0.011111138,-0.362963045,0,0,0,,0,162,162,91,1,SHENS,HB,old,z,./images/SHENSHB.png,,,,,,,,,,,,,,,,,,,,,
,,,,,,,,,,,,,,,,,199480,19,2022-01-28_17h52.13.407,lexical_decision_task_DD_L3,2021.2.3,Win32,59.00401227,,,,,,,,,,,0.9331,0,,,,,,,,,,,,,,m,0,0.9331,,,,,,,,0.011111138,-0.362963045,0,0,0,,0,163,163,127,1,NINDY,HB,old,z,./images/NINDYHB.png,,,,,,,,,,,,,,,,,,,,,
,,,,,,,,,,,,,,,,,199480,19,2022-01-28_17h52.13.407,lexical_decision_task_DD_L3,2021.2.3,Win32,59.00401227,,,,,,,,,,,0.6537,1,,,,,,,,,,,,,,m,1,0.6537,,,,,,,,0.011111138,-0.362963045,0,0,0,,0,164,164,40,1,SWING,C,old,m,./images/SWING.png,,,,,,,,,,,,,,,,,,,,,
,,,,,,,,,,,,,,,,,199480,19,2022-01-28_17h52.13.407,lexical_decision_task_DD_L3,2021.2.3,Win32,59.00401227,,,,,,,,,,,1.1175,1,,,,,,,,,,,,,,z,1,1.1175,,,,,,,,0.011111138,-0.362963045,0,0,0,,0,165,165,106,1,CLUMS,HB,old,z,./images/CLUMSHB.png,,,,,,,,,,,,,,,,,,,,,
,,,,,,,,,,,,,,,,,199480,19,2022-01-28_17h52.13.407,lexical_decision_task_DD_L3,2021.2.3,Win32,59.00401227,,,,,,,,,,,0.6574,1,,,,,,,,,,,,,,m,1,0.6574,,,,,,,,0.011111138,-0.362963045,0,0,0,,0,166,166,79,1,CRUST,C,old,m,./images/CRUST.png,,,,,,,,,,,,,,,,,,,,,
,,,,,,,,,,,,,,,,,199480,19,2022-01-28_17h52.13.407,lexical_decision_task_DD_L3,2021.2.3,Win32,59.00401227,,,,,,,,,,,1.4469,1,,,,,,,,,,,,,,m,1,1.4469,,,,,,,,0.011111138,-0.362963045,0,0,0,,0,167,167,64,1,JELLY,C,old,m,./images/JELLY.png,,,,,,,,,,,,,,,,,,,,,
,0.00833336,-0.388888915,1,0,0,instr_done_button,,,,,,1,test,"In the next phase you will be presented with the words from the the first phase. Your job is to decide whether you remember seeing the word or not. If you remember seeing the word press ""old"" or type ""m"". If you do not remember seeing the word press ""new"" or type ""z"". Please press the space bar or click on continue to begin. ",,,199480,19,2022-01-28_17h52.13.407,lexical_decision_task_DD_L3,2021.2.3,Win32,59.00401227,,,,,,,,,,,,,,,,,,,,,,,,,,,,,,,,,,,,,,,,,,,,,,,,,,,,,0,0,0,0,1,,,,,,,,,,,,,,,
,0.00833336,-0.388888915,1,0,0,instr_done_button,,,,,,1,test,"In the next phase you will be presented with the words from the the first phase. Your job is to decide whether you remember seeing the word or not. If you remember seeing the word press ""old"" or type ""m"". If you do not remember seeing the word press ""new"" or type ""z"". Please press the space bar or click on continue to begin. ",,,199480,19,2022-01-28_17h52.13.407,lexical_decision_task_DD_L3,2021.2.3,Win32,59.00401227,,,,,,,,,,,,,,,,,,,,,,,,,,,,,,,,,,,,,,,,,,,,,,,,,,,,,1,0,1,0,1,,,,,,,,,,,,,,,
,0.00833336,-0.388888915,1,0,0,instr_done_button,,,,,,1,test,"In the next phase you will be presented with the words from the the first phase. Your job is to decide whether you remember seeing the word or not. If you remember seeing the word press ""old"" or type ""m"". If you do not remember seeing the word press ""new"" or type ""z"". Please press the space bar or click on continue to begin. ",,,199480,19,2022-01-28_17h52.13.407,lexical_decision_task_DD_L3,2021.2.3,Win32,59.00401227,,,,,,,,,,,,,,,,,,,,,,,,,,,,,,,,,,,,,,,,,,,,,,,,,,,,,2,0,2,0,1,,,,,,,,,,,,,,,
,0.035185269,-0.430555583,1,0,0,instr_done_button,,,,,,1,test,"In the next phase you will be presented with the words from the the first phase. Your job is to decide whether you remember seeing the word or not. If you remember seeing the word press ""old"" or type ""m"". If you do not remember seeing the word press ""new"" or type ""z"". Please press the space bar or click on continue to begin. ",,,199480,19,2022-01-28_17h52.13.407,lexical_decision_task_DD_L3,2021.2.3,Win32,59.00401227,,,,,,,,,,,,,,,,,,,,,,,,,,,,,,,,,,,,,,,,,,,,,,,,,,,,,3,0,3,0,1,,,,,,,,,,,,,,,
,0.012963046,-0.400925953,1,0,0,instr_done_button,,,,,,1,test,"In the next phase you will be presented with the words from the the first phase. Your job is to decide whether you remember seeing the word or not. If you remember seeing the word press ""old"" or type ""m"". If you do not remember seeing the word press ""new"" or type ""z"". Please press the space bar or click on continue to begin. ",,,199480,19,2022-01-28_17h52.13.407,lexical_decision_task_DD_L3,2021.2.3,Win32,59.00401227,,,,,,,,,,,,,,,,,,,,,,,,,,,,,,,,,,,,,,,,,,,,,,,,,,,,,4,0,4,0,1,,,,,,,,,,,,,,,
,,,,,,,,,,,,,,,,,199480,19,2022-01-28_17h52.13.407,lexical_decision_task_DD_L3,2021.2.3,Win32,59.00401227,,,,,,,,,,,1.2928,1,,,,,,,,,,,,,,,,,,,,,,,,0.012963046,-0.400925953,0,0,0,,,,,,,CHALK,C,z,m,./images/CHALK.png,,,,,,,z,1,1.2928,,,,,,,,0,0,0,109,1
,,,,,,,,,,,,,,,,,199480,19,2022-01-28_17h52.13.407,lexical_decision_task_DD_L3,2021.2.3,Win32,59.00401227,,,,,,,,,,,0.8405,1,,,,,,,,,,,,,,,,,,,,,,,,0.012963046,-0.400925953,0,0,0,,,,,,,LADDER,HB,m,m,./images/LADDERHB.png,,,,,,,m,1,0.8405,,,,,,,,0,1,1,38,1
,,,,,,,,,,,,,,,,,199480,19,2022-01-28_17h52.13.407,lexical_decision_task_DD_L3,2021.2.3,Win32,59.00401227,,,,,,,,,,,0.7346,1,,,,,,,,,,,,,,,,,,,,,,,,0.012963046,-0.400925953,0,0,0,,,,,,,SAILOR,C,m,m,./images/SAILOR.png,,,,,,,m,1,0.7346,,,,,,,,0,2,2,67,1
,,,,,,,,,,,,,,,,,199480,19,2022-01-28_17h52.13.407,lexical_decision_task_DD_L3,2021.2.3,Win32,59.00401227,,,,,,,,,,,0.694,0,,,,,,,,,,,,,,,,,,,,,,,,0.012963046,-0.400925953,0,0,0,,,,,,,HAMMER,LB,z,m,./images/HAMMERLB.png,,,,,,,m,0,0.694,,,,,,,,0,3,3,159,1
,,,,,,,,,,,,,,,,,199480,19,2022-01-28_17h52.13.407,lexical_decision_task_DD_L3,2021.2.3,Win32,59.00401227,,,,,,,,,,,0.6409,1,,,,,,,,,,,,,,,,,,,,,,,,0.012963046,-0.400925953,0,0,0,,,,,,,STORM,LB,m,m,./images/STORMLB.png,,,,,,,m,1,0.6409,,,,,,,,0,4,4,30,1
,,,,,,,,,,,,,,,,,199480,19,2022-01-28_17h52.13.407,lexical_decision_task_DD_L3,2021.2.3,Win32,59.00401227,,,,,,,,,,,0.6436,1,,,,,,,,,,,,,,,,,,,,,,,,0.012963046,-0.400925953,0,0,0,,,,,,,FARMER,HB,m,m,./images/FARMERHB.png,,,,,,,m,1,0.6436,,,,,,,,0,5,5,65,1
,,,,,,,,,,,,,,,,,199480,19,2022-01-28_17h52.13.407,lexical_decision_task_DD_L3,2021.2.3,Win32,59.00401227,,,,,,,,,,,0.7085,1,,,,,,,,,,,,,,,,,,,,,,,,0.012963046,-0.400925953,0,0,0,,,,,,,JAGUAR,LB,m,m,./images/JAGUARLB.png,,,,,,,m,1,0.7085,,,,,,,,0,6,6,18,1
,,,,,,,,,,,,,,,,,199480,19,2022-01-28_17h52.13.407,lexical_decision_task_DD_L3,2021.2.3,Win32,59.00401227,,,,,,,,,,,1.1042,1,,,,,,,,,,,,,,,,,,,,,,,,0.012963046,-0.400925953,0,0,0,,,,,,,MOSQUE,C,m,m,./images/MOSQUE.png,,,,,,,m,1,1.1042,,,,,,,,0,7,7,43,1
,,,,,,,,,,,,,,,,,199480,19,2022-01-28_17h52.13.407,lexical_decision_task_DD_L3,2021.2.3,Win32,59.00401227,,,,,,,,,,,0.6897,1,,,,,,,,,,,,,,,,,,,,,,,,0.012963046,-0.400925953,0,0,0,,,,,,,PAINT,C,m,m,./images/PAINT.png,,,,,,,m,1,0.6897,,,,,,,,0,8,8,7,1
,,,,,,,,,,,,,,,,,199480,19,2022-01-28_17h52.13.407,lexical_decision_task_DD_L3,2021.2.3,Win32,59.00401227,,,,,,,,,,,0.93,1,,,,,,,,,,,,,,,,,,,,,,,,0.012963046,-0.400925953,0,0,0,,,,,,,DONKEY,C,z,m,./images/DONKEY.png,,,,,,,z,1,0.93,,,,,,,,0,9,9,103,1
,,,,,,,,,,,,,,,,,199480,19,2022-01-28_17h52.13.407,lexical_decision_task_DD_L3,2021.2.3,Win32,59.00401227,,,,,,,,,,,1.1877,1,,,,,,,,,,,,,,,,,,,,,,,,0.012963046,-0.400925953,0,0,0,,,,,,,BONNET,HB,m,m,./images/BONNETHB.png,,,,,,,m,1,1.1877,,,,,,,,0,10,10,11,1
,,,,,,,,,,,,,,,,,199480,19,2022-01-28_17h52.13.407,lexical_decision_task_DD_L3,2021.2.3,Win32,59.00401227,,,,,,,,,,,0.7207,1,,,,,,,,,,,,,,,,,,,,,,,,0.012963046,-0.400925953,0,0,0,,,,,,,SWING,C,m,m,./images/SWING.png,,,,,,,m,1,0.7207,,,,,,,,0,11,11,40,1
,,,,,,,,,,,,,,,,,199480,19,2022-01-28_17h52.13.407,lexical_decision_task_DD_L3,2021.2.3,Win32,59.00401227,,,,,,,,,,,1.2895,0,,,,,,,,,,,,,,,,,,,,,,,,0.012963046,-0.400925953,0,0,0,,,,,,,POKER,C,z,m,./images/POKER.png,,,,,,,m,0,1.2895,,,,,,,,0,12,12,151,1
,,,,,,,,,,,,,,,,,199480,19,2022-01-28_17h52.13.407,lexical_decision_task_DD_L3,2021.2.3,Win32,59.00401227,,,,,,,,,,,1.0459,1,,,,,,,,,,,,,,,,,,,,,,,,0.012963046,-0.400925953,0,0,0,,,,,,,BISHOP,C,z,m,./images/BISHOP.png,,,,,,,z,1,1.0459,,,,,,,,0,13,13,133,1
,,,,,,,,,,,,,,,,,199480,19,2022-01-28_17h52.13.407,lexical_decision_task_DD_L3,2021.2.3,Win32,59.00401227,,,,,,,,,,,0.9576,0,,,,,,,,,,,,,,,,,,,,,,,,0.012963046,-0.400925953,0,0,0,,,,,,,WALNUT,LB,z,m,./images/WALNUTLB.png,,,,,,,m,0,0.9576,,,,,,,,0,14,14,84,1
,,,,,,,,,,,,,,,,,199480,19,2022-01-28_17h52.13.407,lexical_decision_task_DD_L3,2021.2.3,Win32,59.00401227,,,,,,,,,,,1.0166,1,,,,,,,,,,,,,,,,,,,,,,,,0.012963046,-0.400925953,0,0,0,,,,,,,JELLY,C,m,m,./images/JELLY.png,,,,,,,m,1,1.0166,,,,,,,,0,15,15,64,1
,,,,,,,,,,,,,,,,,199480,19,2022-01-28_17h52.13.407,lexical_decision_task_DD_L3,2021.2.3,Win32,59.00401227,,,,,,,,,,,1.2306,1,,,,,,,,,,,,,,,,,,,,,,,,0.012963046,-0.400925953,0,0,0,,,,,,,CURRY,LB,z,m,./images/CURRYLB.png,,,,,,,z,1,1.2306,,,,,,,,0,16,16,144,1
,,,,,,,,,,,,,,,,,199480,19,2022-01-28_17h52.13.407,lexical_decision_task_DD_L3,2021.2.3,Win32,59.00401227,,,,,,,,,,,0.8522,1,,,,,,,,,,,,,,,,,,,,,,,,0.012963046,-0.400925953,0,0,0,,,,,,,DOUGH,C,m,m,./images/DOUGH.png,,,,,,,m,1,0.8522,,,,,,,,0,17,17,19,1
,,,,,,,,,,,,,,,,,199480,19,2022-01-28_17h52.13.407,lexical_decision_task_DD_L3,2021.2.3,Win32,59.00401227,,,,,,,,,,,1.1448,1,,,,,,,,,,,,,,,,,,,,,,,,0.012963046,-0.400925953,0,0,0,,,,,,,STRING,HB,m,m,./images/STRINGHB.png,,,,,,,m,1,1.1448,,,,,,,,0,18,18,41,1
,,,,,,,,,,,,,,,,,199480,19,2022-01-28_17h52.13.407,lexical_decision_task_DD_L3,2021.2.3,Win32,59.00401227,,,,,,,,,,,1.0821,1,,,,,,,,,,,,,,,,,,,,,,,,0.012963046,-0.400925953,0,0,0,,,,,,,THROAT,LB,m,m,./images/THROATLB.png,,,,,,,m,1,1.0821,,,,,,,,0,19,19,36,1
,,,,,,,,,,,,,,,,,199480,19,2022-01-28_17h52.13.407,lexical_decision_task_DD_L3,2021.2.3,Win32,59.00401227,,,,,,,,,,,0.9418,0,,,,,,,,,,,,,,,,,,,,,,,,0.012963046,-0.400925953,0,0,0,,,,,,,DRILL,LB,z,m,./images/DRILLLB.png,,,,,,,m,0,0.9418,,,,,,,,0,20,20,165,1
,,,,,,,,,,,,,,,,,199480,19,2022-01-28_17h52.13.407,lexical_decision_task_DD_L3,2021.2.3,Win32,59.00401227,,,,,,,,,,,0.7563,1,,,,,,,,,,,,,,,,,,,,,,,,0.012963046,-0.400925953,0,0,0,,,,,,,COUCH,HB,m,m,./images/COUCHHB.png,,,,,,,m,1,0.7563,,,,,,,,0,21,21,77,1
,,,,,,,,,,,,,,,,,199480,19,2022-01-28_17h52.13.407,lexical_decision_task_DD_L3,2021.2.3,Win32,59.00401227,,,,,,,,,,,0.7606,1,,,,,,,,,,,,,,,,,,,,,,,,0.012963046,-0.400925953,0,0,0,,,,,,,MAGGOT,LB,m,m,./images/MAGGOTLB.png,,,,,,,m,1,0.7606,,,,,,,,0,22,22,33,1
,,,,,,,,,,,,,,,,,199480,19,2022-01-28_17h52.13.407,lexical_decision_task_DD_L3,2021.2.3,Win32,59.00401227,,,,,,,,,,,0.6514,1,,,,,,,,,,,,,,,,,,,,,,,,0.012963046,-0.400925953,0,0,0,,,,,,,INFANT,C,m,m,./images/INFANT.png,,,,,,,m,1,0.6514,,,,,,,,0,23,23,76,1
,,,,,,,,,,,,,,,,,199480,19,2022-01-28_17h52.13.407,lexical_decision_task_DD_L3,2021.2.3,Win32,59.00401227,,,,,,,,,,,0.9346,1,,,,,,,,,,,,,,,,,,,,,,,,0.012963046,-0.400925953,0,0,0,,,,,,,RULER,C,z,m,./images/RULER.png,,,,,,,z,1,0.9346,,,,,,,,0,24,24,163,1
,,,,,,,,,,,,,,,,,199480,19,2022-01-28_17h52.13.407,lexical_decision_task_DD_L3,2021.2.3,Win32,59.00401227,,,,,,,,,,,0.8624,1,,,,,,,,,,,,,,,,,,,,,,,,0.012963046,-0.400925953,0,0,0,,,,,,,CLOTH,HB,z,m,./images/CLOTHHB.png,,,,,,,z,1,0.8624,,,,,,,,0,25,25,107,1
,,,,,,,,,,,,,,,,,199480,19,2022-01-28_17h52.13.407,lexical_decision_task_DD_L3,2021.2.3,Win32,59.00401227,,,,,,,,,,,0.8194,1,,,,,,,,,,,,,,,,,,,,,,,,0.012963046,-0.400925953,0,0,0,,,,,,,SUNSET,C,m,m,./images/SUNSET.png,,,,,,,m,1,0.8194,,,,,,,,0,26,26,82,1
,,,,,,,,,,,,,,,,,199480,19,2022-01-28_17h52.13.407,lexical_decision_task_DD_L3,2021.2.3,Win32,59.00401227,,,,,,,,,,,0.769,1,,,,,,,,,,,,,,,,,,,,,,,,0.012963046,-0.400925953,0,0,0,,,,,,,MOTOR,C,m,m,./images/MOTOR.png,,,,,,,m,1,0.769,,,,,,,,0,27,27,13,1
,,,,,,,,,,,,,,,,,199480,19,2022-01-28_17h52.13.407,lexical_decision_task_DD_L3,2021.2.3,Win32,59.00401227,,,,,,,,,,,0.7492,1,,,,,,,,,,,,,,,,,,,,,,,,0.012963046,-0.400925953,0,0,0,,,,,,,PIMPLE,HB,m,m,./images/PIMPLEHB.png,,,,,,,m,1,0.7492,,,,,,,,0,28,28,71,1
,,,,,,,,,,,,,,,,,199480,19,2022-01-28_17h52.13.407,lexical_decision_task_DD_L3,2021.2.3,Win32,59.00401227,,,,,,,,,,,0.7612,1,,,,,,,,,,,,,,,,,,,,,,,,0.012963046,-0.400925953,0,0,0,,,,,,,DESERT,C,z,m,./images/DESERT.png,,,,,,,z,1,0.7612,,,,,,,,0,29,29,136,1
,,,,,,,,,,,,,,,,,199480,19,2022-01-28_17h52.13.407,lexical_decision_task_DD_L3,2021.2.3,Win32,59.00401227,,,,,,,,,,,1.0138,1,,,,,,,,,,,,,,,,,,,,,,,,0.012963046,-0.400925953,0,0,0,,,,,,,RHINO,LB,m,m,./images/RHINOLB.png,,,,,,,m,1,1.0138,,,,,,,,0,30,30,9,1
,,,,,,,,,,,,,,,,,199480,19,2022-01-28_17h52.13.407,lexical_decision_task_DD_L3,2021.2.3,Win32,59.00401227,,,,,,,,,,,0.835,1,,,,,,,,,,,,,,,,,,,,,,,,0.012963046,-0.400925953,0,0,0,,,,,,,STAIN,LB,z,m,./images/STAINLB.png,,,,,,,z,1,0.835,,,,,,,,0,31,31,90,1
,,,,,,,,,,,,,,,,,199480,19,2022-01-28_17h52.13.407,lexical_decision_task_DD_L3,2021.2.3,Win32,59.00401227,,,,,,,,,,,0.8796,0,,,,,,,,,,,,,,,,,,,,,,,,0.012963046,-0.400925953,0,0,0,,,,,,,FLASK,LB,z,m,./images/FLASKLB.png,,,,,,,m,0,0.8796,,,,,,,,0,32,32,156,1
,,,,,,,,,,,,,,,,,199480,19,2022-01-28_17h52.13.407,lexical_decision_task_DD_L3,2021.2.3,Win32,59.00401227,,,,,,,,,,,0.9026,1,,,,,,,,,,,,,,,,,,,,,,,,0.012963046,-0.400925953,0,0,0,,,,,,,BABOON,C,m,m,./images/BABOON.png,,,,,,,m,1,0.9026,,,,,,,,0,33,33,58,1
,,,,,,,,,,,,,,,,,199480,19,2022-01-28_17h52.13.407,lexical_decision_task_DD_L3,2021.2.3,Win32,59.00401227,,,,,,,,,,,0.9253,1,,,,,,,,,,,,,,,,,,,,,,,,0.012963046,-0.400925953,0,0,0,,,,,,,BANANA,C,z,m,./images/BANANA.png,,,,,,,z,1,0.9253,,,,,,,,0,34,34,154,1
,,,,,,,,,,,,,,,,,199480,19,2022-01-28_17h52.13.407,lexical_decision_task_DD_L3,2021.2.3,Win32,59.00401227,,,,,,,,,,,0.7463,0,,,,,,,,,,,,,,,,,,,,,,,,0.012963046,-0.400925953,0,0,0,,,,,,,FERRY,LB,z,m,./images/FERRYLB.png,,,,,,,m,0,0.7463,,,,,,,,0,35,35,141,1
,,,,,,,,,,,,,,,,,199480,19,2022-01-28_17h52.13.407,lexical_decision_task_DD_L3,2021.2.3,Win32,59.00401227,,,,,,,,,,,1.0934,1,,,,,,,,,,,,,,,,,,,,,,,,0.012963046,-0.400925953,0,0,0,,,,,,,MAMMAL,HB,z,m,./images/MAMMALHB.png,,,,,,,z,1,1.0934,,,,,,,,0,36,36,146,1
,,,,,,,,,,,,,,,,,199480,19,2022-01-28_17h52.13.407,lexical_decision_task_DD_L3,2021.2.3,Win32,59.00401227,,,,,,,,,,,0.9894,0,,,,,,,,,,,,,,,,,,,,,,,,0.012963046,-0.400925953,0,0,0,,,,,,,FENCE,HB,z,m,./images/FENCEHB.png,,,,,,,m,0,0.9894,,,,,,,,0,37,37,98,1
,,,,,,,,,,,,,,,,,199480,19,2022-01-28_17h52.13.407,lexical_decision_task_DD_L3,2021.2.3,Win32,59.00401227,,,,,,,,,,,0.6579,1,,,,,,,,,,,,,,,,,,,,,,,,0.012963046,-0.400925953,0,0,0,,,,,,,GREASE,LB,m,m,./images/GREASELB.png,,,,,,,m,1,0.6579,,,,,,,,0,38,38,15,1
,,,,,,,,,,,,,,,,,199480,19,2022-01-28_17h52.13.407,lexical_decision_task_DD_L3,2021.2.3,Win32,59.00401227,,,,,,,,,,,0.6853,1,,,,,,,,,,,,,,,,,,,,,,,,0.012963046,-0.400925953,0,0,0,,,,,,,SMOKER,HB,m,m,./images/SMOKERHB.png,,,,,,,m,1,0.6853,,,,,,,,0,39,39,26,1
,,,,,,,,,,,,,,,,,199480,19,2022-01-28_17h52.13.407,lexical_decision_task_DD_L3,2021.2.3,Win32,59.00401227,,,,,,,,,,,0.7201,1,,,,,,,,,,,,,,,,,,,,,,,,0.012963046,-0.400925953,0,0,0,,,,,,,STOOL,C,z,m,./images/STOOL.png,,,,,,,z,1,0.7201,,,,,,,,0,40,40,127,1
,,,,,,,,,,,,,,,,,199480,19,2022-01-28_17h52.13.407,lexical_decision_task_DD_L3,2021.2.3,Win32,59.00401227,,,,,,,,,,,0.6142,1,,,,,,,,,,,,,,,,,,,,,,,,-0.002777751,-0.43518527,1,0,0,,,,,,,CANYON,C,m,m,./images/CANYON.png,break_done_button,,,,,,m,1,0.6142,,,,,,,,0,41,41,34,1
,,,,,,,,,,,,,,,,,199480,19,2022-01-28_17h52.13.407,lexical_decision_task_DD_L3,2021.2.3,Win32,59.00401227,,,,,,,,,,,1.1011,1,,,,,,,,,,,,,,,,,,,,,,,,-0.002777751,-0.43518527,0,0,0,,,,,,,VALLEY,HB,z,m,./images/VALLEYHB.png,,,,,,,z,1,1.1011,,,,,,,,0,42,42,152,1
,,,,,,,,,,,,,,,,,199480,19,2022-01-28_17h52.13.407,lexical_decision_task_DD_L3,2021.2.3,Win32,59.00401227,,,,,,,,,,,0.8968,1,,,,,,,,,,,,,,,,,,,,,,,,-0.002777751,-0.43518527,0,0,0,,,,,,,BAKER,LB,z,m,./images/BAKERLB.png,,,,,,,z,1,0.8968,,,,,,,,0,43,43,147,1
,,,,,,,,,,,,,,,,,199480,19,2022-01-28_17h52.13.407,lexical_decision_task_DD_L3,2021.2.3,Win32,59.00401227,,,,,,,,,,,1.4203,1,,,,,,,,,,,,,,,,,,,,,,,,-0.002777751,-0.43518527,0,0,0,,,,,,,TOWEL,C,z,m,./images/TOWEL.png,,,,,,,z,1,1.4203,,,,,,,,0,44,44,85,1
,,,,,,,,,,,,,,,,,199480,19,2022-01-28_17h52.13.407,lexical_decision_task_DD_L3,2021.2.3,Win32,59.00401227,,,,,,,,,,,0.7908,0,,,,,,,,,,,,,,,,,,,,,,,,-0.002777751,-0.43518527,0,0,0,,,,,,,ONION,LB,m,m,./images/ONIONLB.png,,,,,,,z,0,0.7908,,,,,,,,0,45,45,51,1
,,,,,,,,,,,,,,,,,199480,19,2022-01-28_17h52.13.407,lexical_decision_task_DD_L3,2021.2.3,Win32,59.00401227,,,,,,,,,,,0.816,1,,,,,,,,,,,,,,,,,,,,,,,,-0.002777751,-0.43518527,0,0,0,,,,,,,BUBBLE,HB,z,m,./images/BUBBLEHB.png,,,,,,,z,1,0.816,,,,,,,,0,46,46,155,1
,,,,,,,,,,,,,,,,,199480,19,2022-01-28_17h52.13.407,lexical_decision_task_DD_L3,2021.2.3,Win32,59.00401227,,,,,,,,,,,0.7983,0,,,,,,,,,,,,,,,,,,,,,,,,-0.002777751,-0.43518527,0,0,0,,,,,,,CANDLE,C,m,m,./images/CANDLE.png,,,,,,,z,0,0.7983,,,,,,,,0,47,47,61,1
,,,,,,,,,,,,,,,,,199480,19,2022-01-28_17h52.13.407,lexical_decision_task_DD_L3,2021.2.3,Win32,59.00401227,,,,,,,,,,,0.7641,1,,,,,,,,,,,,,,,,,,,,,,,,-0.002777751,-0.43518527,0,0,0,,,,,,,BELLY,C,m,m,./images/BELLY.png,,,,,,,m,1,0.7641,,,,,,,,0,48,48,10,1
,,,,,,,,,,,,,,,,,199480,19,2022-01-28_17h52.13.407,lexical_decision_task_DD_L3,2021.2.3,Win32,59.00401227,,,,,,,,,,,0.6085,0,,,,,,,,,,,,,,,,,,,,,,,,-0.002777751,-0.43518527,0,0,0,,,,,,,TWINS,LB,m,m,./images/TWINSLB.png,,,,,,,z,0,0.6085,,,,,,,,0,49,49,60,1
,,,,,,,,,,,,,,,,,199480,19,2022-01-28_17h52.13.407,lexical_decision_task_DD_L3,2021.2.3,Win32,59.00401227,,,,,,,,,,,0.7693,1,,,,,,,,,,,,,,,,,,,,,,,,-0.002777751,-0.43518527,0,0,0,,,,,,,SNAKE,C,z,m,./images/SNAKE.png,,,,,,,z,1,0.7693,,,,,,,,0,50,50,124,1
,,,,,,,,,,,,,,,,,199480,19,2022-01-28_17h52.13.407,lexical_decision_task_DD_L3,2021.2.3,Win32,59.00401227,,,,,,,,,,,0.7701,1,,,,,,,,,,,,,,,,,,,,,,,,-0.002777751,-0.43518527,0,0,0,,,,,,,DANCER,LB,z,m,./images/DANCERLB.png,,,,,,,z,1,0.7701,,,,,,,,0,51,51,105,1
,,,,,,,,,,,,,,,,,199480,19,2022-01-28_17h52.13.407,lexical_decision_task_DD_L3,2021.2.3,Win32,59.00401227,,,,,,,,,,,0.8663,1,,,,,,,,,,,,,,,,,,,,,,,,-0.002777751,-0.43518527,0,0,0,,,,,,,CLIFF,HB,z,m,./images/CLIFFHB.png,,,,,,,z,1,0.8663,,,,,,,,0,52,52,92,1
,,,,,,,,,,,,,,,,,199480,19,2022-01-28_17h52.13.407,lexical_decision_task_DD_L3,2021.2.3,Win32,59.00401227,,,,,,,,,,,0.7453,1,,,,,,,,,,,,,,,,,,,,,,,,-0.002777751,-0.43518527,0,0,0,,,,,,,ARTIST,C,z,m,./images/ARTIST.png,,,,,,,z,1,0.7453,,,,,,,,0,53,53,145,1
,,,,,,,,,,,,,,,,,199480,19,2022-01-28_17h52.13.407,lexical_decision_task_DD_L3,2021.2.3,Win32,59.00401227,,,,,,,,,,,0.916,0,,,,,,,,,,,,,,,,,,,,,,,,-0.002777751,-0.43518527,0,0,0,,,,,,,BURIAL,HB,m,m,./images/BURIALHB.png,,,,,,,z,0,0.916,,,,,,,,0,54,54,59,1
,,,,,,,,,,,,,,,,,199480,19,2022-01-28_17h52.13.407,lexical_decision_task_DD_L3,2021.2.3,Win32,59.00401227,,,,,,,,,,,0.8267,1,,,,,,,,,,,,,,,,,,,,,,,,-0.002777751,-0.43518527,0,0,0,,,,,,,STOVE,HB,z,m,./images/STOVEHB.png,,,,,,,z,1,0.8267,,,,,,,,0,55,55,86,1
,,,,,,,,,,,,,,,,,199480,19,2022-01-28_17h52.13.407,lexical_decision_task_DD_L3,2021.2.3,Win32,59.00401227,,,,,,,,,,,0.935,1,,,,,,,,,,,,,,,,,,,,,,,,-0.002777751,-0.43518527,0,0,0,,,,,,,SKIING,HB,m,m,./images/SKIINGHB.png,,,,,,,m,1,0.935,,,,,,,,0,56,56,17,1
,,,,,,,,,,,,,,,,,199480,19,2022-01-28_17h52.13.407,lexical_decision_task_DD_L3,2021.2.3,Win32,59.00401227,,,,,,,,,,,1.0078,1,,,,,,,,,,,,,,,,,,,,,,,,-0.002777751,-0.43518527,0,0,0,,,,,,,CHERRY,LB,z,m,./images/CHERRYLB.png,,,,,,,z,1,1.0078,,,,,,,,0,57,57,138,1
,,,,,,,,,,,,,,,,,199480,19,2022-01-28_17h52.13.407,lexical_decision_task_DD_L3,2021.2.3,Win32,59.00401227,,,,,,,,,,,1.2403,1,,,,,,,,,,,,,,,,,,,,,,,,-0.002777751,-0.43518527,0,0,0,,,,,,,CANOE,C,z,m,./images/CANOE.png,,,,,,,z,1,1.2403,,,,,,,,0,58,58,142,1
,,,,,,,,,,,,,,,,,199480,19,2022-01-28_17h52.13.407,lexical_decision_task_DD_L3,2021.2.3,Win32,59.00401227,,,,,,,,,,,0.7508,1,,,,,,,,,,,,,,,,,,,,,,,,-0.002777751,-0.43518527,0,0,0,,,,,,,MALLET,HB,m,m,./images/MALLETHB.png,,,,,,,m,1,0.7508,,,,,,,,0,59,59,50,1
,,,,,,,,,,,,,,,,,199480,19,2022-01-28_17h52.13.407,lexical_decision_task_DD_L3,2021.2.3,Win32,59.00401227,,,,,,,,,,,0.9783,0,,,,,,,,,,,,,,,,,,,,,,,,-0.002777751,-0.43518527,0,0,0,,,,,,,BAMBOO,HB,z,m,./images/BAMBOOHB.png,,,,,,,m,0,0.9783,,,,,,,,0,60,60,89,1
,,,,,,,,,,,,,,,,,199480,19,2022-01-28_17h52.13.407,lexical_decision_task_DD_L3,2021.2.3,Win32,59.00401227,,,,,,,,,,,0.7116,1,,,,,,,,,,,,,,,,,,,,,,,,-0.002777751,-0.43518527,0,0,0,,,,,,,CARPET,HB,m,m,./images/CARPETHB.png,,,,,,,m,1,0.7116,,,,,,,,0,61,61,53,1
,,,,,,,,,,,,,,,,,199480,19,2022-01-28_17h52.13.407,lexical_decision_task_DD_L3,2021.2.3,Win32,59.00401227,,,,,,,,,,,1.1697,0,,,,,,,,,,,,,,,,,,,,,,,,-0.002777751,-0.43518527,0,0,0,,,,,,,GRAIN,LB,m,m,./images/GRAINLB.png,,,,,,,z,0,1.1697,,,,,,,,0,62,62,75,1
,,,,,,,,,,,,,,,,,199480,19,2022-01-28_17h52.13.407,lexical_decision_task_DD_L3,2021.2.3,Win32,59.00401227,,,,,,,,,,,1.1447,1,,,,,,,,,,,,,,,,,,,,,,,,-0.002777751,-0.43518527,0,0,0,,,,,,,GARDEN,C,z,m,./images/GARDEN.png,,,,,,,z,1,1.1447,,,,,,,,0,63,63,94,1
,,,,,,,,,,,,,,,,,199480,19,2022-01-28_17h52.13.407,lexical_decision_task_DD_L3,2021.2.3,Win32,59.00401227,,,,,,,,,,,0.7282,1,,,,,,,,,,,,,,,,,,,,,,,,-0.002777751,-0.43518527,0,0,0,,,,,,,PICKLE,HB,m,m,./images/PICKLEHB.png,,,,,,,m,1,0.7282,,,,,,,,0,64,64,14,1
,,,,,,,,,,,,,,,,,199480,19,2022-01-28_17h52.13.407,lexical_decision_task_DD_L3,2021.2.3,Win32,59.00401227,,,,,,,,,,,0.7421,1,,,,,,,,,,,,,,,,,,,,,,,,-0.002777751,-0.43518527,0,0,0,,,,,,,FLESH,LB,z,m,./images/FLESHLB.png,,,,,,,z,1,0.7421,,,,,,,,0,65,65,108,1
,,,,,,,,,,,,,,,,,199480,19,2022-01-28_17h52.13.407,lexical_decision_task_DD_L3,2021.2.3,Win32,59.00401227,,,,,,,,,,,0.6737,1,,,,,,,,,,,,,,,,,,,,,,,,-0.002777751,-0.43518527,0,0,0,,,,,,,MUMMY,C,z,m,./images/MUMMY.png,,,,,,,z,1,0.6737,,,,,,,,0,66,66,130,1
,,,,,,,,,,,,,,,,,199480,19,2022-01-28_17h52.13.407,lexical_decision_task_DD_L3,2021.2.3,Win32,59.00401227,,,,,,,,,,,0.6568,1,,,,,,,,,,,,,,,,,,,,,,,,-0.002777751,-0.43518527,0,0,0,,,,,,,COOKER,LB,m,m,./images/COOKERLB.png,,,,,,,m,1,0.6568,,,,,,,,0,67,67,69,1
,,,,,,,,,,,,,,,,,199480,19,2022-01-28_17h52.13.407,lexical_decision_task_DD_L3,2021.2.3,Win32,59.00401227,,,,,,,,,,,0.6642,1,,,,,,,,,,,,,,,,,,,,,,,,-0.002777751,-0.43518527,0,0,0,,,,,,,SHIELD,LB,z,m,./images/SHIELDLB.png,,,,,,,z,1,0.6642,,,,,,,,0,68,68,132,1
,,,,,,,,,,,,,,,,,199480,19,2022-01-28_17h52.13.407,lexical_decision_task_DD_L3,2021.2.3,Win32,59.00401227,,,,,,,,,,,0.6885,1,,,,,,,,,,,,,,,,,,,,,,,,-0.002777751,-0.43518527,0,0,0,,,,,,,FOLDER,LB,m,m,./images/FOLDERLB.png,,,,,,,m,1,0.6885,,,,,,,,0,69,69,42,1
,,,,,,,,,,,,,,,,,199480,19,2022-01-28_17h52.13.407,lexical_decision_task_DD_L3,2021.2.3,Win32,59.00401227,,,,,,,,,,,0.9145,1,,,,,,,,,,,,,,,,,,,,,,,,-0.002777751,-0.43518527,0,0,0,,,,,,,PEARL,C,m,m,./images/PEARL.png,,,,,,,m,1,0.9145,,,,,,,,0,70,70,46,1
,,,,,,,,,,,,,,,,,199480,19,2022-01-28_17h52.13.407,lexical_decision_task_DD_L3,2021.2.3,Win32,59.00401227,,,,,,,,,,,0.9139,1,,,,,,,,,,,,,,,,,,,,,,,,-0.002777751,-0.43518527,0,0,0,,,,,,,MONKEY,LB,z,m,./images/MONKEYLB.png,,,,,,,z,1,0.9139,,,,,,,,0,71,71,129,1
,,,,,,,,,,,,,,,,,199480,19,2022-01-28_17h52.13.407,lexical_decision_task_DD_L3,2021.2.3,Win32,59.00401227,,,,,,,,,,,0.6735,1,,,,,,,,,,,,,,,,,,,,,,,,-0.002777751,-0.43518527,0,0,0,,,,,,,WRIST,C,m,m,./images/WRIST.png,,,,,,,m,1,0.6735,,,,,,,,0,72,72,25,1
,,,,,,,,,,,,,,,,,199480,19,2022-01-28_17h52.13.407,lexical_decision_task_DD_L3,2021.2.3,Win32,59.00401227,,,,,,,,,,,0.746,0,,,,,,,,,,,,,,,,,,,,,,,,-0.002777751,-0.43518527,0,0,0,,,,,,,CHAIN,LB,z,m,./images/CHAINLB.png,,,,,,,m,0,0.746,,,,,,,,0,73,73,126,1
,,,,,,,,,,,,,,,,,199480,19,2022-01-28_17h52.13.407,lexical_decision_task_DD_L3,2021.2.3,Win32,59.00401227,,,,,,,,,,,0.7874,1,,,,,,,,,,,,,,,,,,,,,,,,-0.002777751,-0.43518527,0,0,0,,,,,,,URINE,C,m,m,./images/URINE.png,,,,,,,m,1,0.7874,,,,,,,,0,74,74,70,1
,,,,,,,,,,,,,,,,,199480,19,2022-01-28_17h52.13.407,lexical_decision_task_DD_L3,2021.2.3,Win32,59.00401227,,,,,,,,,,,0.7716,1,,,,,,,,,,,,,,,,,,,,,,,,-0.002777751,-0.43518527,0,0,0,,,,,,,BLOKE,LB,z,m,./images/BLOKELB.png,,,,,,,z,1,0.7716,,,,,,,,0,75,75,96,1
,,,,,,,,,,,,,,,,,199480,19,2022-01-28_17h52.13.407,lexical_decision_task_DD_L3,2021.2.3,Win32,59.00401227,,,,,,,,,,,1.1311,0,,,,,,,,,,,,,,,,,,,,,,,,-0.002777751,-0.43518527,0,0,0,,,,,,,WHEEL,HB,z,m,./images/WHEELHB.png,,,,,,,m,0,1.1311,,,,,,,,0,76,76,161,1
,,,,,,,,,,,,,,,,,199480,19,2022-01-28_17h52.13.407,lexical_decision_task_DD_L3,2021.2.3,Win32,59.00401227,,,,,,,,,,,1.2169,1,,,,,,,,,,,,,,,,,,,,,,,,-0.002777751,-0.43518527,0,0,0,,,,,,,CRATER,LB,z,m,./images/CRATERLB.png,,,,,,,z,1,1.2169,,,,,,,,0,77,77,87,1
,,,,,,,,,,,,,,,,,199480,19,2022-01-28_17h52.13.407,lexical_decision_task_DD_L3,2021.2.3,Win32,59.00401227,,,,,,,,,,,0.6472,1,,,,,,,,,,,,,,,,,,,,,,,,-0.002777751,-0.43518527,0,0,0,,,,,,,MOOSE,LB,m,m,./images/MOOSELB.png,,,,,,,m,1,0.6472,,,,,,,,0,78,78,57,1
,,,,,,,,,,,,,,,,,199480,19,2022-01-28_17h52.13.407,lexical_decision_task_DD_L3,2021.2.3,Win32,59.00401227,,,,,,,,,,,0.7556,0,,,,,,,,,,,,,,,,,,,,,,,,-0.002777751,-0.43518527,0,0,0,,,,,,,STREAM,HB,z,m,./images/STREAMHB.png,,,,,,,m,0,0.7556,,,,,,,,0,79,79,125,1
,,,,,,,,,,,,,,,,,199480,19,2022-01-28_17h52.13.407,lexical_decision_task_DD_L3,2021.2.3,Win32,59.00401227,,,,,,,,,,,1.3242,0,,,,,,,,,,,,,,,,,,,,,,,,-0.002777751,-0.43518527,0,0,0,,,,,,,MIDGET,C,z,m,./images/MIDGET.png,,,,,,,m,0,1.3242,,,,,,,,0,80,80,160,1
,,,,,,,,,,,,,,,,,199480,19,2022-01-28_17h52.13.407,lexical_decision_task_DD_L3,2021.2.3,Win32,59.00401227,,,,,,,,,,,0.9641,1,,,,,,,,,,,,,,,,,,,,,,,,-0.002777751,-0.43518527,0,0,0,,,,,,,CANDY,LB,z,m,./images/CANDYLB.png,,,,,,,z,1,0.9641,,,,,,,,0,81,81,123,1
,,,,,,,,,,,,,,,,,199480,19,2022-01-28_17h52.13.407,lexical_decision_task_DD_L3,2021.2.3,Win32,59.00401227,,,,,,,,,,,0.896,1,,,,,,,,,,,,,,,,,,,,,,,,-0.002777751,-0.43518527,0,0,0,,,,,,,PEBBLE,C,z,m,./images/PEBBLE.png,,,,,,,z,1,0.896,,,,,,,,0,82,82,166,1
,,,,,,,,,,,,,,,,,199480,19,2022-01-28_17h52.13.407,lexical_decision_task_DD_L3,2021.2.3,Win32,59.00401227,,,,,,,,,,,0.7753,1,,,,,,,,,,,,,,,,,,,,,,,,-0.036111086,-0.391666693,1,0,0,,,,,,,LITTER,LB,m,m,./images/LITTERLB.png,break_done_button,,,,,,m,1,0.7753,,,,,,,,0,83,83,78,1
,,,,,,,,,,,,,,,,,199480,19,2022-01-28_17h52.13.407,lexical_decision_task_DD_L3,2021.2.3,Win32,59.00401227,,,,,,,,,,,0.888,1,,,,,,,,,,,,,,,,,,,,,,,,-0.036111086,-0.391666693,0,0,0,,,,,,,PEACH,HB,m,m,./images/PEACHHB.png,,,,,,,m,1,0.888,,,,,,,,0,84,84,35,1
,,,,,,,,,,,,,,,,,199480,19,2022-01-28_17h52.13.407,lexical_decision_task_DD_L3,2021.2.3,Win32,59.00401227,,,,,,,,,,,0.8077,0,,,,,,,,,,,,,,,,,,,,,,,,-0.036111086,-0.391666693,0,0,0,,,,,,,COLLAR,LB,z,m,./images/COLLARLB.png,,,,,,,m,0,0.8077,,,,,,,,0,85,85,99,1
,,,,,,,,,,,,,,,,,199480,19,2022-01-28_17h52.13.407,lexical_decision_task_DD_L3,2021.2.3,Win32,59.00401227,,,,,,,,,,,0.7848,0,,,,,,,,,,,,,,,,,,,,,,,,-0.036111086,-0.391666693,0,0,0,,,,,,,BASKET,HB,z,m,./images/BASKETHB.png,,,,,,,m,0,0.7848,,,,,,,,0,86,86,128,1
,,,,,,,,,,,,,,,,,199480,19,2022-01-28_17h52.13.407,lexical_decision_task_DD_L3,2021.2.3,Win32,59.00401227,,,,,,,,,,,0.9467,0,,,,,,,,,,,,,,,,,,,,,,,,-0.036111086,-0.391666693,0,0,0,,,,,,,GRAPE,C,z,m,./images/GRAPE.png,,,,,,,m,0,0.9467,,,,,,,,0,87,87,100,1
,,,,,,,,,,,,,,,,,199480,19,2022-01-28_17h52.13.407,lexical_decision_task_DD_L3,2021.2.3,Win32,59.00401227,,,,,,,,,,,1.0969,1,,,,,,,,,,,,,,,,,,,,,,,,-0.036111086,-0.391666693,0,0,0,,,,,,,BRIDE,C,z,m,./images/BRIDE.png,,,,,,,z,1,1.0969,,,,,,,,0,88,88,148,1
,,,,,,,,,,,,,,,,,199480,19,2022-01-28_17h52.13.407,lexical_decision_task_DD_L3,2021.2.3,Win32,59.00401227,,,,,,,,,,,1.0279,1,,,,,,,,,,,,,,,,,,,,,,,,-0.036111086,-0.391666693,0,0,0,,,,,,,BOILER,LB,z,m,./images/BOILERLB.png,,,,,,,z,1,1.0279,,,,,,,,0,89,89,120,1
,,,,,,,,,,,,,,,,,199480,19,2022-01-28_17h52.13.407,lexical_decision_task_DD_L3,2021.2.3,Win32,59.00401227,,,,,,,,,,,0.6714,1,,,,,,,,,,,,,,,,,,,,,,,,-0.036111086,-0.391666693,0,0,0,,,,,,,BUNNY,C,z,m,./images/BUNNY.png,,,,,,,z,1,0.6714,,,,,,,,0,90,90,97,1
,,,,,,,,,,,,,,,,,199480,19,2022-01-28_17h52.13.407,lexical_decision_task_DD_L3,2021.2.3,Win32,59.00401227,,,,,,,,,,,0.7972,1,,,,,,,,,,,,,,,,,,,,,,,,-0.036111086,-0.391666693,0,0,0,,,,,,,BROOM,LB,z,m,./images/BROOMLB.png,,,,,,,z,1,0.7972,,,,,,,,0,91,91,162,1
,,,,,,,,,,,,,,,,,199480,19,2022-01-28_17h52.13.407,lexical_decision_task_DD_L3,2021.2.3,Win32,59.00401227,,,,,,,,,,,0.6544,1,,,,,,,,,,,,,,,,,,,,,,,,-0.036111086,-0.391666693,0,0,0,,,,,,,SPORT,LB,m,m,./images/SPORTLB.png,,,,,,,m,1,0.6544,,,,,,,,0,92,92,48,1
,,,,,,,,,,,,,,,,,199480,19,2022-01-28_17h52.13.407,lexical_decision_task_DD_L3,2021.2.3,Win32,59.00401227,,,,,,,,,,,0.6819,1,,,,,,,,,,,,,,,,,,,,,,,,-0.036111086,-0.391666693,0,0,0,,,,,,,FINGER,LB,m,m,./images/FINGERLB.png,,,,,,,m,1,0.6819,,,,,,,,0,93,93,3,1
,,,,,,,,,,,,,,,,,199480,19,2022-01-28_17h52.13.407,lexical_decision_task_DD_L3,2021.2.3,Win32,59.00401227,,,,,,,,,,,0.7146,1,,,,,,,,,,,,,,,,,,,,,,,,-0.036111086,-0.391666693,0,0,0,,,,,,,MIRROR,LB,m,m,./images/MIRRORLB.png,,,,,,,m,1,0.7146,,,,,,,,0,94,94,63,1
,,,,,,,,,,,,,,,,,199480,19,2022-01-28_17h52.13.407,lexical_decision_task_DD_L3,2021.2.3,Win32,59.00401227,,,,,,,,,,,1.0141,1,,,,,,,,,,,,,,,,,,,,,,,,-0.036111086,-0.391666693,0,0,0,,,,,,,PLANET,HB,z,m,./images/PLANETHB.png,,,,,,,z,1,1.0141,,,,,,,,0,95,95,164,1
,,,,,,,,,,,,,,,,,199480,19,2022-01-28_17h52.13.407,lexical_decision_task_DD_L3,2021.2.3,Win32,59.00401227,,,,,,,,,,,0.9289,1,,,,,,,,,,,,,,,,,,,,,,,,-0.036111086,-0.391666693,0,0,0,,,,,,,BUTTER,LB,z,m,./images/BUTTERLB.png,,,,,,,z,1,0.9289,,,,,,,,0,96,96,111,1
,,,,,,,,,,,,,,,,,199480,19,2022-01-28_17h52.13.407,lexical_decision_task_DD_L3,2021.2.3,Win32,59.00401227,,,,,,,,,,,0.8656,1,,,,,,,,,,,,,,,,,,,,,,,,-0.036111086,-0.391666693,0,0,0,,,,,,,CRADLE,HB,m,m,./images/CRADLEHB.png,,,,,,,m,1,0.8656,,,,,,,,0,97,97,20,1
,,,,,,,,,,,,,,,,,199480,19,2022-01-28_17h52.13.407,lexical_decision_task_DD_L3,2021.2.3,Win32,59.00401227,,,,,,,,,,,1.4565,0,,,,,,,,,,,,,,,,,,,,,,,,-0.036111086,-0.391666693,0,0,0,,,,,,,LAGOON,HB,z,m,./images/LAGOONHB.png,,,,,,,m,0,1.4565,,,,,,,,0,98,98,131,1
,,,,,,,,,,,,,,,,,199480,19,2022-01-28_17h52.13.407,lexical_decision_task_DD_L3,2021.2.3,Win32,59.00401227,,,,,,,,,,,0.9489,1,,,,,,,,,,,,,,,,,,,,,,,,-0.036111086,-0.391666693,0,0,0,,,,,,,CRUMB,HB,m,m,./images/CRUMBHB.png,,,,,,,m,1,0.9489,,,,,,,,0,99,99,29,1
,,,,,,,,,,,,,,,,,199480,19,2022-01-28_17h52.13.407,lexical_decision_task_DD_L3,2021.2.3,Win32,59.00401227,,,,,,,,,,,0.7467,1,,,,,,,,,,,,,,,,,,,,,,,,-0.036111086,-0.391666693,0,0,0,,,,,,,DIVER,LB,z,m,./images/DIVERLB.png,,,,,,,z,1,0.7467,,,,,,,,0,100,100,93,1
,,,,,,,,,,,,,,,,,199480,19,2022-01-28_17h52.13.407,lexical_decision_task_DD_L3,2021.2.3,Win32,59.00401227,,,,,,,,,,,0.7328,1,,,,,,,,,,,,,,,,,,,,,,,,-0.036111086,-0.391666693,0,0,0,,,,,,,SQUARE,LB,m,m,./images/SQUARELB.png,,,,,,,m,1,0.7328,,,,,,,,0,101,101,6,1
,,,,,,,,,,,,,,,,,199480,19,2022-01-28_17h52.13.407,lexical_decision_task_DD_L3,2021.2.3,Win32,59.00401227,,,,,,,,,,,0.8539,1,,,,,,,,,,,,,,,,,,,,,,,,-0.036111086,-0.391666693,0,0,0,,,,,,,WEASEL,HB,m,m,./images/WEASELHB.png,,,,,,,m,1,0.8539,,,,,,,,0,102,102,80,1
,,,,,,,,,,,,,,,,,199480,19,2022-01-28_17h52.13.407,lexical_decision_task_DD_L3,2021.2.3,Win32,59.00401227,,,,,,,,,,,0.7636,1,,,,,,,,,,,,,,,,,,,,,,,,-0.036111086,-0.391666693,0,0,0,,,,,,,DRUMS,C,m,m,./images/DRUMS.png,,,,,,,m,1,0.7636,,,,,,,,0,103,103,49,1
,,,,,,,,,,,,,,,,,199480,19,2022-01-28_17h52.13.407,lexical_decision_task_DD_L3,2021.2.3,Win32,59.00401227,,,,,,,,,,,1.2482,1,,,,,,,,,,,,,,,,,,,,,,,,-0.036111086,-0.391666693,0,0,0,,,,,,,JUMPER,HB,z,m,./images/JUMPERHB.png,,,,,,,z,1,1.2482,,,,,,,,0,104,104,158,1
,,,,,,,,,,,,,,,,,199480,19,2022-01-28_17h52.13.407,lexical_decision_task_DD_L3,2021.2.3,Win32,59.00401227,,,,,,,,,,,1.4981,1,,,,,,,,,,,,,,,,,,,,,,,,-0.036111086,-0.391666693,0,0,0,,,,,,,PENCE,C,m,m,./images/PENCE.png,,,,,,,m,1,1.4981,,,,,,,,0,105,105,16,1
,,,,,,,,,,,,,,,,,199480,19,2022-01-28_17h52.13.407,lexical_decision_task_DD_L3,2021.2.3,Win32,59.00401227,,,,,,,,,,,0.7038,1,,,,,,,,,,,,,,,,,,,,,,,,-0.036111086,-0.391666693,0,0,0,,,,,,,MELON,C,m,m,./images/MELON.png,,,,,,,m,1,0.7038,,,,,,,,0,106,106,22,1
,,,,,,,,,,,,,,,,,199480,19,2022-01-28_17h52.13.407,lexical_decision_task_DD_L3,2021.2.3,Win32,59.00401227,,,,,,,,,,,1.0067,0,,,,,,,,,,,,,,,,,,,,,,,,-0.036111086,-0.391666693,0,0,0,,,,,,,PILOT,HB,z,m,./images/PILOTHB.png,,,,,,,m,0,1.0067,,,,,,,,0,107,107,134,1
,,,,,,,,,,,,,,,,,199480,19,2022-01-28_17h52.13.407,lexical_decision_task_DD_L3,2021.2.3,Win32,59.00401227,,,,,,,,,,,0.7009,1,,,,,,,,,,,,,,,,,,,,,,,,-0.036111086,-0.391666693,0,0,0,,,,,,,SWEAT,LB,m,m,./images/SWEATLB.png,,,,,,,m,1,0.7009,,,,,,,,0,108,108,66,1
,,,,,,,,,,,,,,,,,199480,19,2022-01-28_17h52.13.407,lexical_decision_task_DD_L3,2021.2.3,Win32,59.00401227,,,,,,,,,,,1.0375,1,,,,,,,,,,,,,,,,,,,,,,,,-0.036111086,-0.391666693,0,0,0,,,,,,,STATUE,LB,z,m,./images/STATUELB.png,,,,,,,z,1,1.0375,,,,,,,,0,109,109,150,1
,,,,,,,,,,,,,,,,,199480,19,2022-01-28_17h52.13.407,lexical_decision_task_DD_L3,2021.2.3,Win32,59.00401227,,,,,,,,,,,1.1668,1,,,,,,,,,,,,,,,,,,,,,,,,-0.036111086,-0.391666693,0,0,0,,,,,,,ATTIC,LB,m,m,./images/ATTICLB.png,,,,,,,m,1,1.1668,,,,,,,,0,110,110,27,1
,,,,,,,,,,,,,,,,,199480,19,2022-01-28_17h52.13.407,lexical_decision_task_DD_L3,2021.2.3,Win32,59.00401227,,,,,,,,,,,0.6621,1,,,,,,,,,,,,,,,,,,,,,,,,-0.036111086,-0.391666693,0,0,0,,,,,,,RAZOR,C,z,m,./images/RAZOR.png,,,,,,,z,1,0.6621,,,,,,,,0,111,111,118,1
,,,,,,,,,,,,,,,,,199480,19,2022-01-28_17h52.13.407,lexical_decision_task_DD_L3,2021.2.3,Win32,59.00401227,,,,,,,,,,,0.8089,1,,,,,,,,,,,,,,,,,,,,,,,,-0.036111086,-0.391666693,0,0,0,,,,,,,SAUNA,LB,z,m,./images/SAUNALB.png,,,,,,,z,1,0.8089,,,,,,,,0,112,112,117,1
,,,,,,,,,,,,,,,,,199480,19,2022-01-28_17h52.13.407,lexical_decision_task_DD_L3,2021.2.3,Win32,59.00401227,,,,,,,,,,,0.895,1,,,,,,,,,,,,,,,,,,,,,,,,-0.036111086,-0.391666693,0,0,0,,,,,,,CEMENT,HB,m,m,./images/CEMENTHB.png,,,,,,,m,1,0.895,,,,,,,,0,113,113,74,1
,,,,,,,,,,,,,,,,,199480,19,2022-01-28_17h52.13.407,lexical_decision_task_DD_L3,2021.2.3,Win32,59.00401227,,,,,,,,,,,1.2865,1,,,,,,,,,,,,,,,,,,,,,,,,-0.036111086,-0.391666693,0,0,0,,,,,,,LIZARD,HB,m,m,./images/LIZARDHB.png,,,,,,,m,1,1.2865,,,,,,,,0,114,114,44,1
,,,,,,,,,,,,,,,,,199480,19,2022-01-28_17h52.13.407,lexical_decision_task_DD_L3,2021.2.3,Win32,59.00401227,,,,,,,,,,,2.3442,0,,,,,,,,,,,,,,,,,,,,,,,,-0.036111086,-0.391666693,0,0,0,,,,,,,TULIP,HB,m,m,./images/TULIPHB.png,,,,,,,z,0,2.3442,,,,,,,,0,115,115,8,1
,,,,,,,,,,,,,,,,,199480,19,2022-01-28_17h52.13.407,lexical_decision_task_DD_L3,2021.2.3,Win32,59.00401227,,,,,,,,,,,1.0418,0,,,,,,,,,,,,,,,,,,,,,,,,-0.036111086,-0.391666693,0,0,0,,,,,,,PASTA,HB,m,m,./images/PASTAHB.png,,,,,,,z,0,1.0418,,,,,,,,0,116,116,5,1
,,,,,,,,,,,,,,,,,199480,19,2022-01-28_17h52.13.407,lexical_decision_task_DD_L3,2021.2.3,Win32,59.00401227,,,,,,,,,,,0.781,1,,,,,,,,,,,,,,,,,,,,,,,,-0.036111086,-0.391666693,0,0,0,,,,,,,CLOWN,C,z,m,./images/CLOWN.png,,,,,,,z,1,0.781,,,,,,,,0,117,117,106,1
,,,,,,,,,,,,,,,,,199480,19,2022-01-28_17h52.13.407,lexical_decision_task_DD_L3,2021.2.3,Win32,59.00401227,,,,,,,,,,,0.7779,1,,,,,,,,,,,,,,,,,,,,,,,,-0.036111086,-0.391666693,0,0,0,,,,,,,KITTEN,LB,m,m,./images/KITTENLB.png,,,,,,,m,1,0.7779,,,,,,,,0,118,118,45,1
,,,,,,,,,,,,,,,,,199480,19,2022-01-28_17h52.13.407,lexical_decision_task_DD_L3,2021.2.3,Win32,59.00401227,,,,,,,,,,,0.7437,1,,,,,,,,,,,,,,,,,,,,,,,,-0.036111086,-0.391666693,0,0,0,,,,,,,BANNER,C,m,m,./images/BANNER.png,,,,,,,m,1,0.7437,,,,,,,,0,119,119,52,1
,,,,,,,,,,,,,,,,,199480,19,2022-01-28_17h52.13.407,lexical_decision_task_DD_L3,2021.2.3,Win32,59.00401227,,,,,,,,,,,0.6624,1,,,,,,,,,,,,,,,,,,,,,,,,-0.036111086,-0.391666693,0,0,0,,,,,,,BERRY,HB,m,m,./images/BERRYHB.png,,,,,,,m,1,0.6624,,,,,,,,0,120,120,47,1
,,,,,,,,,,,,,,,,,199480,19,2022-01-28_17h52.13.407,lexical_decision_task_DD_L3,2021.2.3,Win32,59.00401227,,,,,,,,,,,0.7508,1,,,,,,,,,,,,,,,,,,,,,,,,-0.036111086,-0.391666693,0,0,0,,,,,,,WALRUS,HB,m,m,./images/WALRUSHB.png,,,,,,,m,1,0.7508,,,,,,,,0,121,121,23,1
,,,,,,,,,,,,,,,,,199480,19,2022-01-28_17h52.13.407,lexical_decision_task_DD_L3,2021.2.3,Win32,59.00401227,,,,,,,,,,,1.0354,0,,,,,,,,,,,,,,,,,,,,,,,,-0.036111086,-0.391666693,0,0,0,,,,,,,QUILL,C,m,m,./images/QUILL.png,,,,,,,z,0,1.0354,,,,,,,,0,122,122,31,1
,,,,,,,,,,,,,,,,,199480,19,2022-01-28_17h52.13.407,lexical_decision_task_DD_L3,2021.2.3,Win32,59.00401227,,,,,,,,,,,1.0028,1,,,,,,,,,,,,,,,,,,,,,,,,-0.036111086,-0.391666693,0,0,0,,,,,,,TRIPOD,LB,m,m,./images/TRIPODLB.png,,,,,,,m,1,1.0028,,,,,,,,0,123,123,54,1
,,,,,,,,,,,,,,,,,199480,19,2022-01-28_17h52.13.407,lexical_decision_task_DD_L3,2021.2.3,Win32,59.00401227,,,,,,,,,,,0.9568,1,,,,,,,,,,,,,,,,,,,,,,,,-0.036111086,-0.391666693,0,0,0,,,,,,,ENGINE,HB,z,m,./images/ENGINEHB.png,,,,,,,z,1,0.9568,,,,,,,,0,124,124,122,1
,,,,,,,,,,,,,,,,,199480,19,2022-01-28_17h52.13.407,lexical_decision_task_DD_L3,2021.2.3,Win32,59.00401227,,,,,,,,,,,0.8532,1,,,,,,,,,,,,,,,,,,,,,,,,-0.117592513,-0.397222249,1,0,0,,,,,,,PARADE,HB,z,m,./images/PARADEHB.png,break_done_button,,,,,,z,1,0.8532,,,,,,,,0,125,125,101,1
,,,,,,,,,,,,,,,,,199480,19,2022-01-28_17h52.13.407,lexical_decision_task_DD_L3,2021.2.3,Win32,59.00401227,,,,,,,,,,,0.9365,1,,,,,,,,,,,,,,,,,,,,,,,,-0.117592513,-0.397222249,0,0,0,,,,,,,TORCH,HB,m,m,./images/TORCHHB.png,,,,,,,m,1,0.9365,,,,,,,,0,126,126,68,1
,,,,,,,,,,,,,,,,,199480,19,2022-01-28_17h52.13.407,lexical_decision_task_DD_L3,2021.2.3,Win32,59.00401227,,,,,,,,,,,0.7883,0,,,,,,,,,,,,,,,,,,,,,,,,-0.117592513,-0.397222249,0,0,0,,,,,,,NOOSE,LB,m,m,./images/NOOSELB.png,,,,,,,z,0,0.7883,,,,,,,,0,127,127,72,1
,,,,,,,,,,,,,,,,,199480,19,2022-01-28_17h52.13.407,lexical_decision_task_DD_L3,2021.2.3,Win32,59.00401227,,,,,,,,,,,0.824,0,,,,,,,,,,,,,,,,,,,,,,,,-0.117592513,-0.397222249,0,0,0,,,,,,,SHELF,LB,m,m,./images/SHELFLB.png,,,,,,,z,0,0.824,,,,,,,,0,128,128,39,1
,,,,,,,,,,,,,,,,,199480,19,2022-01-28_17h52.13.407,lexical_decision_task_DD_L3,2021.2.3,Win32,59.00401227,,,,,,,,,,,0.8467,1,,,,,,,,,,,,,,,,,,,,,,,,-0.117592513,-0.397222249,0,0,0,,,,,,,BEARD,HB,m,m,./images/BEARDHB.png,,,,,,,m,1,0.8467,,,,,,,,0,129,129,2,1
,,,,,,,,,,,,,,,,,199480,19,2022-01-28_17h52.13.407,lexical_decision_task_DD_L3,2021.2.3,Win32,59.00401227,,,,,,,,,,,0.8676,1,,,,,,,,,,,,,,,,,,,,,,,,-0.117592513,-0.397222249,0,0,0,,,,,,,MEDAL,HB,z,m,./images/MEDALHB.png,,,,,,,z,1,0.8676,,,,,,,,0,130,130,95,1
,,,,,,,,,,,,,,,,,199480,19,2022-01-28_17h52.13.407,lexical_decision_task_DD_L3,2021.2.3,Win32,59.00401227,,,,,,,,,,,0.7237,1,,,,,,,,,,,,,,,,,,,,,,,,-0.117592513,-0.397222249,0,0,0,,,,,,,MUFFIN,C,m,m,./images/MUFFIN.png,,,,,,,m,1,0.7237,,,,,,,,0,131,131,55,1
,,,,,,,,,,,,,,,,,199480,19,2022-01-28_17h52.13.407,lexical_decision_task_DD_L3,2021.2.3,Win32,59.00401227,,,,,,,,,,,0.8287,1,,,,,,,,,,,,,,,,,,,,,,,,-0.117592513,-0.397222249,0,0,0,,,,,,,POSTER,HB,z,m,./images/POSTERHB.png,,,,,,,z,1,0.8287,,,,,,,,0,132,132,137,1
,,,,,,,,,,,,,,,,,199480,19,2022-01-28_17h52.13.407,lexical_decision_task_DD_L3,2021.2.3,Win32,59.00401227,,,,,,,,,,,0.7104,0,,,,,,,,,,,,,,,,,,,,,,,,-0.117592513,-0.397222249,0,0,0,,,,,,,SHORE,LB,m,m,./images/SHORELB.png,,,,,,,z,0,0.7104,,,,,,,,0,133,133,12,1
,,,,,,,,,,,,,,,,,199480,19,2022-01-28_17h52.13.407,lexical_decision_task_DD_L3,2021.2.3,Win32,59.00401227,,,,,,,,,,,0.7749,1,,,,,,,,,,,,,,,,,,,,,,,,-0.117592513,-0.397222249,0,0,0,,,,,,,PISTOL,HB,z,m,./images/PISTOLHB.png,,,,,,,z,1,0.7749,,,,,,,,0,134,134,113,1
,,,,,,,,,,,,,,,,,199480,19,2022-01-28_17h52.13.407,lexical_decision_task_DD_L3,2021.2.3,Win32,59.00401227,,,,,,,,,,,1.2108,1,,,,,,,,,,,,,,,,,,,,,,,,-0.117592513,-0.397222249,0,0,0,,,,,,,LLAMA,HB,z,m,./images/LLAMAHB.png,,,,,,,z,1,1.2108,,,,,,,,0,135,135,119,1
,,,,,,,,,,,,,,,,,199480,19,2022-01-28_17h52.13.407,lexical_decision_task_DD_L3,2021.2.3,Win32,59.00401227,,,,,,,,,,,0.7436,1,,,,,,,,,,,,,,,,,,,,,,,,-0.117592513,-0.397222249,0,0,0,,,,,,,STEAK,C,z,m,./images/STEAK.png,,,,,,,z,1,0.7436,,,,,,,,0,136,136,115,1
,,,,,,,,,,,,,,,,,199480,19,2022-01-28_17h52.13.407,lexical_decision_task_DD_L3,2021.2.3,Win32,59.00401227,,,,,,,,,,,0.7155,1,,,,,,,,,,,,,,,,,,,,,,,,-0.117592513,-0.397222249,0,0,0,,,,,,,CRUST,C,m,m,./images/CRUST.png,,,,,,,m,1,0.7155,,,,,,,,0,137,137,79,1
,,,,,,,,,,,,,,,,,199480,19,2022-01-28_17h52.13.407,lexical_decision_task_DD_L3,2021.2.3,Win32,59.00401227,,,,,,,,,,,1.245,1,,,,,,,,,,,,,,,,,,,,,,,,-0.117592513,-0.397222249,0,0,0,,,,,,,CLOUD,HB,z,m,./images/CLOUDHB.png,,,,,,,z,1,1.245,,,,,,,,0,138,138,110,1
,,,,,,,,,,,,,,,,,199480,19,2022-01-28_17h52.13.407,lexical_decision_task_DD_L3,2021.2.3,Win32,59.00401227,,,,,,,,,,,0.6762,1,,,,,,,,,,,,,,,,,,,,,,,,-0.117592513,-0.397222249,0,0,0,,,,,,,SLOPE,LB,z,m,./images/SLOPELB.png,,,,,,,z,1,0.6762,,,,,,,,0,139,139,114,1
,,,,,,,,,,,,,,,,,199480,19,2022-01-28_17h52.13.407,lexical_decision_task_DD_L3,2021.2.3,Win32,59.00401227,,,,,,,,,,,0.8414,0,,,,,,,,,,,,,,,,,,,,,,,,-0.117592513,-0.397222249,0,0,0,,,,,,,SCREW,LB,m,m,./images/SCREWLB.png,,,,,,,z,0,0.8414,,,,,,,,0,140,140,24,1
,,,,,,,,,,,,,,,,,199480,19,2022-01-28_17h52.13.407,lexical_decision_task_DD_L3,2021.2.3,Win32,59.00401227,,,,,,,,,,,1.1374,1,,,,,,,,,,,,,,,,,,,,,,,,-0.117592513,-0.397222249,0,0,0,,,,,,,HEATER,HB,z,m,./images/HEATERHB.png,,,,,,,z,1,1.1374,,,,,,,,0,141,141,140,1
,,,,,,,,,,,,,,,,,199480,19,2022-01-28_17h52.13.407,lexical_decision_task_DD_L3,2021.2.3,Win32,59.00401227,,,,,,,,,,,1.2181,1,,,,,,,,,,,,,,,,,,,,,,,,-0.117592513,-0.397222249,0,0,0,,,,,,,BRUSH,HB,z,m,./images/BRUSHHB.png,,,,,,,z,1,1.2181,,,,,,,,0,142,142,143,1
,,,,,,,,,,,,,,,,,199480,19,2022-01-28_17h52.13.407,lexical_decision_task_DD_L3,2021.2.3,Win32,59.00401227,,,,,,,,,,,0.6694,0,,,,,,,,,,,,,,,,,,,,,,,,-0.117592513,-0.397222249,0,0,0,,,,,,,MUSCLE,C,m,m,./images/MUSCLE.png,,,,,,,z,0,0.6694,,,,,,,,0,143,143,4,1
,,,,,,,,,,,,,,,,,199480,19,2022-01-28_17h52.13.407,lexical_decision_task_DD_L3,2021.2.3,Win32,59.00401227,,,,,,,,,,,0.7614,1,,,,,,,,,,,,,,,,,,,,,,,,-0.117592513,-0.397222249,0,0,0,,,,,,,ALLEY,C,z,m,./images/ALLEY.png,,,,,,,z,1,0.7614,,,,,,,,0,144,144,139,1
,,,,,,,,,,,,,,,,,199480,19,2022-01-28_17h52.13.407,lexical_decision_task_DD_L3,2021.2.3,Win32,59.00401227,,,,,,,,,,,0.6669,1,,,,,,,,,,,,,,,,,,,,,,,,-0.117592513,-0.397222249,0,0,0,,,,,,,TIGER,C,z,m,./images/TIGER.png,,,,,,,z,1,0.6669,,,,,,,,0,145,145,121,1
,,,,,,,,,,,,,,,,,199480,19,2022-01-28_17h52.13.407,lexical_decision_task_DD_L3,2021.2.3,Win32,59.00401227,,,,,,,,,,,1.0501,1,,,,,,,,,,,,,,,,,,,,,,,,-0.117592513,-0.397222249,0,0,0,,,,,,,CASINO,C,z,m,./images/CASINO.png,,,,,,,z,1,1.0501,,,,,,,,0,146,146,112,1
,,,,,,,,,,,,,,,,,199480,19,2022-01-28_17h52.13.407,lexical_decision_task_DD_L3,2021.2.3,Win32,59.00401227,,,,,,,,,,,0.9542,1,,,,,,,,,,,,,,,,,,,,,,,,-0.117592513,-0.397222249,0,0,0,,,,,,,ARROW,LB,z,m,./images/ARROWLB.png,,,,,,,z,1,0.9542,,,,,,,,0,147,147,153,1
,,,,,,,,,,,,,,,,,199480,19,2022-01-28_17h52.13.407,lexical_decision_task_DD_L3,2021.2.3,Win32,59.00401227,,,,,,,,,,,0.6795,1,,,,,,,,,,,,,,,,,,,,,,,,-0.117592513,-0.397222249,0,0,0,,,,,,,SNACK,C,m,m,./images/SNACK.png,,,,,,,m,1,0.6795,,,,,,,,0,148,148,73,1
,,,,,,,,,,,,,,,,,199480,19,2022-01-28_17h52.13.407,lexical_decision_task_DD_L3,2021.2.3,Win32,59.00401227,,,,,,,,,,,0.8294,1,,,,,,,,,,,,,,,,,,,,,,,,-0.117592513,-0.397222249,0,0,0,,,,,,,BIRTH,C,m,m,./images/BIRTH.png,,,,,,,m,1,0.8294,,,,,,,,0,149,149,37,1
,,,,,,,,,,,,,,,,,199480,19,2022-01-28_17h52.13.407,lexical_decision_task_DD_L3,2021.2.3,Win32,59.00401227,,,,,,,,,,,0.8536,1,,,,,,,,,,,,,,,,,,,,,,,,-0.117592513,-0.397222249,0,0,0,,,,,,,PACKET,HB,m,m,./images/PACKETHB.png,,,,,,,m,1,0.8536,,,,,,,,0,150,150,56,1
,,,,,,,,,,,,,,,,,199480,19,2022-01-28_17h52.13.407,lexical_decision_task_DD_L3,2021.2.3,Win32,59.00401227,,,,,,,,,,,1.0866,0,,,,,,,,,,,,,,,,,,,,,,,,-0.117592513,-0.397222249,0,0,0,,,,,,,SAUCE,LB,z,m,./images/SAUCELB.png,,,,,,,m,0,1.0866,,,,,,,,0,151,151,135,1
,,,,,,,,,,,,,,,,,199480,19,2022-01-28_17h52.13.407,lexical_decision_task_DD_L3,2021.2.3,Win32,59.00401227,,,,,,,,,,,0.6769,0,,,,,,,,,,,,,,,,,,,,,,,,-0.117592513,-0.397222249,0,0,0,,,,,,,PURSE,HB,m,m,./images/PURSEHB.png,,,,,,,z,0,0.6769,,,,,,,,0,152,152,62,1
,,,,,,,,,,,,,,,,,199480,19,2022-01-28_17h52.13.407,lexical_decision_task_DD_L3,2021.2.3,Win32,59.00401227,,,,,,,,,,,0.8321,1,,,,,,,,,,,,,,,,,,,,,,,,-0.117592513,-0.397222249,0,0,0,,,,,,,TOMATO,LB,m,m,./images/TOMATOLB.png,,,,,,,m,1,0.8321,,,,,,,,0,153,153,0,1
,,,,,,,,,,,,,,,,,199480,19,2022-01-28_17h52.13.407,lexical_decision_task_DD_L3,2021.2.3,Win32,59.00401227,,,,,,,,,,,0.8101,1,,,,,,,,,,,,,,,,,,,,,,,,-0.117592513,-0.397222249,0,0,0,,,,,,,WAGON,C,z,m,./images/WAGON.png,,,,,,,z,1,0.8101,,,,,,,,0,154,154,91,1
,,,,,,,,,,,,,,,,,199480,19,2022-01-28_17h52.13.407,lexical_decision_task_DD_L3,2021.2.3,Win32,59.00401227,,,,,,,,,,,0.8124,1,,,,,,,,,,,,,,,,,,,,,,,,-0.117592513,-0.397222249,0,0,0,,,,,,,POODLE,LB,m,m,./images/POODLELB.png,,,,,,,m,1,0.8124,,,,,,,,0,155,155,81,1
,,,,,,,,,,,,,,,,,199480,19,2022-01-28_17h52.13.407,lexical_decision_task_DD_L3,2021.2.3,Win32,59.00401227,,,,,,,,,,,0.6929,1,,,,,,,,,,,,,,,,,,,,,,,,-0.117592513,-0.397222249,0,0,0,,,,,,,SPINE,HB,z,m,./images/SPINEHB.png,,,,,,,z,1,0.6929,,,,,,,,0,156,156,149,1
,,,,,,,,,,,,,,,,,199480,19,2022-01-28_17h52.13.407,lexical_decision_task_DD_L3,2021.2.3,Win32,59.00401227,,,,,,,,,,,0.7002,1,,,,,,,,,,,,,,,,,,,,,,,,-0.117592513,-0.397222249,0,0,0,,,,,,,HOCKEY,HB,z,m,./images/HOCKEYHB.png,,,,,,,z,1,0.7002,,,,,,,,0,157,157,116,1
,,,,,,,,,,,,,,,,,199480,19,2022-01-28_17h52.13.407,lexical_decision_task_DD_L3,2021.2.3,Win32,59.00401227,,,,,,,,,,,0.7912,1,,,,,,,,,,,,,,,,,,,,,,,,-0.117592513,-0.397222249,0,0,0,,,,,,,KIDNEY,LB,m,m,./images/KIDNEYLB.png,,,,,,,m,1,0.7912,,,,,,,,0,158,158,21,1
,,,,,,,,,,,,,,,,,199480,19,2022-01-28_17h52.13.407,lexical_decision_task_DD_L3,2021.2.3,Win32,59.00401227,,,,,,,,,,,0.79,1,,,,,,,,,,,,,,,,,,,,,,,,-0.117592513,-0.397222249,0,0,0,,,,,,,PLANK,C,m,m,./images/PLANK.png,,,,,,,m,1,0.79,,,,,,,,0,159,159,1,1
,,,,,,,,,,,,,,,,,199480,19,2022-01-28_17h52.13.407,lexical_decision_task_DD_L3,2021.2.3,Win32,59.00401227,,,,,,,,,,,0.7651,1,,,,,,,,,,,,,,,,,,,,,,,,-0.117592513,-0.397222249,0,0,0,,,,,,,GRANNY,HB,z,m,./images/GRANNYHB.png,,,,,,,z,1,0.7651,,,,,,,,0,160,160,104,1
,,,,,,,,,,,,,,,,,199480,19,2022-01-28_17h52.13.407,lexical_decision_task_DD_L3,2021.2.3,Win32,59.00401227,,,,,,,,,,,0.8274,1,,,,,,,,,,,,,,,,,,,,,,,,-0.117592513,-0.397222249,0,0,0,,,,,,,WHISKY,HB,z,m,./images/WHISKYHB.png,,,,,,,z,1,0.8274,,,,,,,,0,161,161,167,1
,,,,,,,,,,,,,,,,,199480,19,2022-01-28_17h52.13.407,lexical_decision_task_DD_L3,2021.2.3,Win32,59.00401227,,,,,,,,,,,0.8304,1,,,,,,,,,,,,,,,,,,,,,,,,-0.117592513,-0.397222249,0,0,0,,,,,,,GLOVE,C,z,m,./images/GLOVE.png,,,,,,,z,1,0.8304,,,,,,,,0,162,162,157,1
,,,,,,,,,,,,,,,,,199480,19,2022-01-28_17h52.13.407,lexical_decision_task_DD_L3,2021.2.3,Win32,59.00401227,,,,,,,,,,,0.812,1,,,,,,,,,,,,,,,,,,,,,,,,-0.117592513,-0.397222249,0,0,0,,,,,,,BARREL,HB,m,m,./images/BARRELHB.png,,,,,,,m,1,0.812,,,,,,,,0,163,163,32,1
,,,,,,,,,,,,,,,,,199480,19,2022-01-28_17h52.13.407,lexical_decision_task_DD_L3,2021.2.3,Win32,59.00401227,,,,,,,,,,,1.3355,0,,,,,,,,,,,,,,,,,,,,,,,,-0.117592513,-0.397222249,0,0,0,,,,,,,JUNGLE,HB,m,m,./images/JUNGLEHB.png,,,,,,,z,0,1.3355,,,,,,,,0,164,164,83,1
,,,,,,,,,,,,,,,,,199480,19,2022-01-28_17h52.13.407,lexical_decision_task_DD_L3,2021.2.3,Win32,59.00401227,,,,,,,,,,,0.7537,1,,,,,,,,,,,,,,,,,,,,,,,,-0.117592513,-0.397222249,0,0,0,,,,,,,PARCEL,LB,z,m,./images/PARCELLB.png,,,,,,,z,1,0.7537,,,,,,,,0,165,165,102,1
,,,,,,,,,,,,,,,,,199480,19,2022-01-28_17h52.13.407,lexical_decision_task_DD_L3,2021.2.3,Win32,59.00401227,,,,,,,,,,,0.9066,0,,,,,,,,,,,,,,,,,,,,,,,,-0.117592513,-0.397222249,0,0,0,,,,,,,FALCON,C,m,m,./images/FALCON.png,,,,,,,z,0,0.9066,,,,,,,,0,166,166,28,1
,,,,,,,,,,,,,,,,,199480,19,2022-01-28_17h52.13.407,lexical_decision_task_DD_L3,2021.2.3,Win32,59.00401227,,,,,,,,,,,0.7259,1,,,,,,,,,,,,,,,,,,,,,,,,-0.117592513,-0.397222249,0,0,0,,,,,,,BOXER,C,z,m,./images/BOXER.png,,,,,,,z,1,0.7259,,,,,,,,0,167,167,88,1
