key_resp.keys,instr_done_touch.x,instr_done_touch.y,instr_done_touch.leftButton,instr_done_touch.midButton,instr_done_touch.rightButton,instr_done_touch.clicked_name,instruction_pages.thisRepN,instruction_pages.thisTrialN,instruction_pages.thisN,instruction_pages.thisIndex,instruction_pages.ran,pageN,phase,instruct_text,has_image,instruct_image,participant,age,date,expName,psychopyVersion,OS,frameRate,response.keys,response.corr,response.rt,touch_resp.x,touch_resp.y,touch_resp.leftButton,touch_resp.midButton,touch_resp.rightButton,touch_resp.time,touch_resp.clicked_name,rt,corr,practrials.thisRepN,practrials.thisTrialN,practrials.thisN,practrials.thisIndex,practrials.ran,TrialID,Target,corrAns,end_of_practice_trials_pages.thisRepN,end_of_practice_trials_pages.thisTrialN,end_of_practice_trials_pages.thisN,end_of_practice_trials_pages.thisIndex,end_of_practice_trials_pages.ran,key_resp_2.keys,key_resp_2.corr,key_resp_2.rt,targ_click.x,targ_click.y,targ_click.leftButton,targ_click.midButton,targ_click.rightButton,targ_click.time,targ_click.clicked_name,break_done_touch.x,break_done_touch.y,break_done_touch.leftButton,break_done_touch.midButton,break_done_touch.rightButton,break_done_keyboard.keys,maintrials.thisRepN,maintrials.thisTrialN,maintrials.thisN,maintrials.thisIndex,maintrials.ran,string,blur,study,lex,stim_path,break_done_keyboard.rt,break_done_touch.clicked_name,test_instructions.thisRepN,test_instructions.thisTrialN,test_instructions.thisN,test_instructions.thisIndex,test_instructions.ran,key_resp.rt,key_resp_3.keys,key_resp_3.corr,key_resp_3.rt,test_click.x,test_click.y,test_click.leftButton,test_click.midButton,test_click.rightButton,test_click.time,test_click.clicked_name,test_phase.thisRepN,test_phase.thisTrialN,test_phase.thisN,test_phase.thisIndex,test_phase.ran
,0.099631696,-0.382838542,1,0,0,instr_done_button,0,0,0,0,1,1,instructions,"INSTRUCTIONS
At the start of each trial, look at the plus sign  (+) in the center of the screen.  This tells you that a trial is about to begin and where to look. Second, the plus sign will disappear and a string of letters will appear. Your task is to determine if the string of letters is a word or not. If the item is a word press the M key (on keyboard)  or touch the word button (phone/tablet).  If the item is not a word,  press the  Z key (on keyboard)  or touch the nonword button (on phone/tablet). 
Press the space bar or touch  continue.",0,,199447,18,2022-01-25_21h29.09.153,lexical_decision_task_DD_L3,2021.2.3,MacIntel,60.0024001,,,,,,,,,,,,,,,,,,,,,,,,,,,,,,,,,,,,,,,,,,,,,,,,,,,,,,,,,,,,,,,,,,,,,,,,,,
,0.094252232,-0.383545387,1,0,0,instr_done_button,0,1,1,1,1,2,instructions,"If your device has a keyboard, press the 'Z' key for nonwords and the 'M' key for words.





Press the space bar or touch the button below to continue.",0,keyboard-example.gif,199447,18,2022-01-25_21h29.09.153,lexical_decision_task_DD_L3,2021.2.3,MacIntel,60.0024001,,,,,,,,,,,,,,,,,,,,,,,,,,,,,,,,,,,,,,,,,,,,,,,,,,,,,,,,,,,,,,,,,,,,,,,,,,
,-0.017790179,-0.40218006,1,0,0,instr_done_button,0,2,2,2,1,3,instructions,"If you are using a touchscreen only device, use the buttons on the screen. Do not use the mouse.





Press the space bar or touch the button below to continue.",0,touchscreen-example.gif,199447,18,2022-01-25_21h29.09.153,lexical_decision_task_DD_L3,2021.2.3,MacIntel,60.0024001,,,,,,,,,,,,,,,,,,,,,,,,,,,,,,,,,,,,,,,,,,,,,,,,,,,,,,,,,,,,,,,,,,,,,,,,,,
,-0.01735119,-0.40171131,1,0,0,instr_done_button,0,3,3,3,1,4,instructions,"It is very important that you respond as quickly and accurately as possible, as each letter string will only be on the screen for two seconds. If you do not respond within this time, the message 'Too slow!' will be displayed and the experiment will progress to the next letter string. The first 20 trials will be practice trials and you will receive feedback on your answers. 

Press the space bar or touch the button below to start the practice trials.",0,,199447,18,2022-01-25_21h29.09.153,lexical_decision_task_DD_L3,2021.2.3,MacIntel,60.0024001,,,,,,,,,,,,,,,,,,,,,,,,,,,,,,,,,,,,,,,,,,,,,,,,,,,,,,,,,,,,,,,,,,,,,,,,,,
,,,,,,,,,,,,,,,,,199447,18,2022-01-25_21h29.09.153,lexical_decision_task_DD_L3,2021.2.3,MacIntel,60.0024001,m,1,2.0313,,,,,,,,2.0313,1,0,0,0,3,1,1001,MATRIX,m,,,,,,,,,,,,,,,,,,,,,,,,,,,,,,,,,,,,,,,,,,,,,,,,,,,,,,
,,,,,,,,,,,,,,,,,199447,18,2022-01-25_21h29.09.153,lexical_decision_task_DD_L3,2021.2.3,MacIntel,60.0024001,m,1,0.8481,,,,,,,,0.8481,1,0,1,1,5,1,1001,OBTAIN,m,,,,,,,,,,,,,,,,,,,,,,,,,,,,,,,,,,,,,,,,,,,,,,,,,,,,,,
,,,,,,,,,,,,,,,,,199447,18,2022-01-25_21h29.09.153,lexical_decision_task_DD_L3,2021.2.3,MacIntel,60.0024001,m,1,0.8024,,,,,,,,0.8024,1,0,2,2,0,1,1001,UTOPIA,m,,,,,,,,,,,,,,,,,,,,,,,,,,,,,,,,,,,,,,,,,,,,,,,,,,,,,,
,,,,,,,,,,,,,,,,,199447,18,2022-01-25_21h29.09.153,lexical_decision_task_DD_L3,2021.2.3,MacIntel,60.0024001,m,1,0.8266,,,,,,,,0.8266,1,0,3,3,4,1,1001,SQUEAK,m,,,,,,,,,,,,,,,,,,,,,,,,,,,,,,,,,,,,,,,,,,,,,,,,,,,,,,
,,,,,,,,,,,,,,,,,199447,18,2022-01-25_21h29.09.153,lexical_decision_task_DD_L3,2021.2.3,MacIntel,60.0024001,z,1,0.9014,,,,,,,,0.9014,1,0,4,4,10,1,1001,INLADE,z,,,,,,,,,,,,,,,,,,,,,,,,,,,,,,,,,,,,,,,,,,,,,,,,,,,,,,
,,,,,,,,,,,,,,,,,199447,18,2022-01-25_21h29.09.153,lexical_decision_task_DD_L3,2021.2.3,MacIntel,60.0024001,z,1,0.8405,,,,,,,,0.8405,1,0,5,5,13,1,1001,ROUPET,z,,,,,,,,,,,,,,,,,,,,,,,,,,,,,,,,,,,,,,,,,,,,,,,,,,,,,,
,,,,,,,,,,,,,,,,,199447,18,2022-01-25_21h29.09.153,lexical_decision_task_DD_L3,2021.2.3,MacIntel,60.0024001,z,1,0.8342,,,,,,,,0.8342,1,0,6,6,8,1,1001,ASLERT,z,,,,,,,,,,,,,,,,,,,,,,,,,,,,,,,,,,,,,,,,,,,,,,,,,,,,,,
,,,,,,,,,,,,,,,,,199447,18,2022-01-25_21h29.09.153,lexical_decision_task_DD_L3,2021.2.3,MacIntel,60.0024001,z,1,0.869,,,,,,,,0.869,1,0,7,7,14,1,1001,THRALE,z,,,,,,,,,,,,,,,,,,,,,,,,,,,,,,,,,,,,,,,,,,,,,,,,,,,,,,
,,,,,,,,,,,,,,,,,199447,18,2022-01-25_21h29.09.153,lexical_decision_task_DD_L3,2021.2.3,MacIntel,60.0024001,m,1,0.7445,,,,,,,,0.7445,1,0,8,8,6,1,1001,ZOMBIE,m,,,,,,,,,,,,,,,,,,,,,,,,,,,,,,,,,,,,,,,,,,,,,,,,,,,,,,
,,,,,,,,,,,,,,,,,199447,18,2022-01-25_21h29.09.153,lexical_decision_task_DD_L3,2021.2.3,MacIntel,60.0024001,z,1,0.8158,,,,,,,,0.8158,1,0,9,9,15,1,1001,WHAISE,z,,,,,,,,,,,,,,,,,,,,,,,,,,,,,,,,,,,,,,,,,,,,,,,,,,,,,,
,,,,,,,,,,,,,,,,,199447,18,2022-01-25_21h29.09.153,lexical_decision_task_DD_L3,2021.2.3,MacIntel,60.0024001,z,1,0.7654,,,,,,,,0.7654,1,0,10,10,12,1,1001,SPRINY,z,,,,,,,,,,,,,,,,,,,,,,,,,,,,,,,,,,,,,,,,,,,,,,,,,,,,,,
,,,,,,,,,,,,,,,,,199447,18,2022-01-25_21h29.09.153,lexical_decision_task_DD_L3,2021.2.3,MacIntel,60.0024001,m,1,0.7498,,,,,,,,0.7498,1,0,11,11,2,1,1001,ALMOND,m,,,,,,,,,,,,,,,,,,,,,,,,,,,,,,,,,,,,,,,,,,,,,,,,,,,,,,
,,,,,,,,,,,,,,,,,199447,18,2022-01-25_21h29.09.153,lexical_decision_task_DD_L3,2021.2.3,MacIntel,60.0024001,m,1,0.886,,,,,,,,0.886,1,0,12,12,7,1,1001,VOLUME,m,,,,,,,,,,,,,,,,,,,,,,,,,,,,,,,,,,,,,,,,,,,,,,,,,,,,,,
,,,,,,,,,,,,,,,,,199447,18,2022-01-25_21h29.09.153,lexical_decision_task_DD_L3,2021.2.3,MacIntel,60.0024001,z,1,0.833,,,,,,,,0.833,1,0,13,13,11,1,1001,RASHET,z,,,,,,,,,,,,,,,,,,,,,,,,,,,,,,,,,,,,,,,,,,,,,,,,,,,,,,
,,,,,,,,,,,,,,,,,199447,18,2022-01-25_21h29.09.153,lexical_decision_task_DD_L3,2021.2.3,MacIntel,60.0024001,m,1,0.82,,,,,,,,0.82,1,0,14,14,1,1,1001,ADJUST,m,,,,,,,,,,,,,,,,,,,,,,,,,,,,,,,,,,,,,,,,,,,,,,,,,,,,,,
,,,,,,,,,,,,,,,,,199447,18,2022-01-25_21h29.09.153,lexical_decision_task_DD_L3,2021.2.3,MacIntel,60.0024001,z,1,0.7967,,,,,,,,0.7967,1,0,15,15,9,1,1001,FARINY,z,,,,,,,,,,,,,,,,,,,,,,,,,,,,,,,,,,,,,,,,,,,,,,,,,,,,,,
,0.040033482,-0.367243304,1,0,0,instr_done_button,,,,,,1,end_of_practice,"You have completed the practice trials. During the experimental trials, you will not receive feedback. 
Before you begin, please ensure that you are in a comfortable and quiet location and will not be disturbed for about 15 minutes, as we cannot use your data if you do not complete all the trials. 
 When you are ready to start the experimental trials, please press space or touch the button below.",,,199447,18,2022-01-25_21h29.09.153,lexical_decision_task_DD_L3,2021.2.3,MacIntel,60.0024001,,,,,,,,,,,,,,,,,,,,,0,0,0,0,1,,,,,,,,,,,,,,,,,,,,,,,,,,,,,,,,,,,,,,,,,,,,,,,,,
,,,,,,,,,,,,,,,,,199447,18,2022-01-25_21h29.09.153,lexical_decision_task_DD_L3,2021.2.3,MacIntel,60.0024001,,,,,,,,,,,4.4602,0,,,,,,,,,,,,,,m,0,4.4602,,,,,,,,0.040033482,-0.367243304,0,0,0,,0,0,0,71,1,PIMPLE,HB,old,y,./images/PIMPLEHB.png,,,,,,,,,,,,,,,,,,,,,,,
,,,,,,,,,,,,,,,,,199447,18,2022-01-25_21h29.09.153,lexical_decision_task_DD_L3,2021.2.3,MacIntel,60.0024001,,,,,,,,,,,1.4114,0,,,,,,,,,,,,,,m,0,1.4114,,,,,,,,0.040033482,-0.367243304,0,0,0,,0,1,1,17,1,SKIING,HB,old,y,./images/SKIINGHB.png,,,,,,,,,,,,,,,,,,,,,,,
,,,,,,,,,,,,,,,,,199447,18,2022-01-25_21h29.09.153,lexical_decision_task_DD_L3,2021.2.3,MacIntel,60.0024001,,,,,,,,,,,1.1782,0,,,,,,,,,,,,,,z,0,1.1782,,,,,,,,0.040033482,-0.367243304,0,0,0,,0,2,2,156,1,HIXES,C,old,n,./images/HIXES.png,,,,,,,,,,,,,,,,,,,,,,,
,,,,,,,,,,,,,,,,,199447,18,2022-01-25_21h29.09.153,lexical_decision_task_DD_L3,2021.2.3,MacIntel,60.0024001,,,,,,,,,,,1.0267,0,,,,,,,,,,,,,,z,0,1.0267,,,,,,,,0.040033482,-0.367243304,0,0,0,,0,3,3,162,1,LEICH,C,old,n,./images/LEICH.png,,,,,,,,,,,,,,,,,,,,,,,
,,,,,,,,,,,,,,,,,199447,18,2022-01-25_21h29.09.153,lexical_decision_task_DD_L3,2021.2.3,MacIntel,60.0024001,,,,,,,,,,,0.8309,0,,,,,,,,,,,,,,m,0,0.8309,,,,,,,,0.040033482,-0.367243304,0,0,0,,0,4,4,48,1,SPORT,LB,old,y,./images/SPORTLB.png,,,,,,,,,,,,,,,,,,,,,,,
,,,,,,,,,,,,,,,,,199447,18,2022-01-25_21h29.09.153,lexical_decision_task_DD_L3,2021.2.3,MacIntel,60.0024001,,,,,,,,,,,2.578,0,,,,,,,,,,,,,,z,0,2.578,,,,,,,,0.040033482,-0.367243304,0,0,0,,0,5,5,139,1,BLEAR,HB,old,n,./images/BLEARHB.png,,,,,,,,,,,,,,,,,,,,,,,
,,,,,,,,,,,,,,,,,199447,18,2022-01-25_21h29.09.153,lexical_decision_task_DD_L3,2021.2.3,MacIntel,60.0024001,,,,,,,,,,,0.9641,0,,,,,,,,,,,,,,m,0,0.9641,,,,,,,,0.040033482,-0.367243304,0,0,0,,0,6,6,35,1,PEACH,HB,old,y,./images/PEACHHB.png,,,,,,,,,,,,,,,,,,,,,,,
,,,,,,,,,,,,,,,,,199447,18,2022-01-25_21h29.09.153,lexical_decision_task_DD_L3,2021.2.3,MacIntel,60.0024001,,,,,,,,,,,1.9975,0,,,,,,,,,,,,,,z,0,1.9975,,,,,,,,0.040033482,-0.367243304,0,0,0,,0,7,7,157,1,INLER,HB,old,n,./images/INLERHB.png,,,,,,,,,,,,,,,,,,,,,,,
,,,,,,,,,,,,,,,,,199447,18,2022-01-25_21h29.09.153,lexical_decision_task_DD_L3,2021.2.3,MacIntel,60.0024001,,,,,,,,,,,1.5945,0,,,,,,,,,,,,,,m,0,1.5945,,,,,,,,0.040033482,-0.367243304,0,0,0,,0,8,8,100,1,DRIBS,HB,old,n,./images/DRIBSHB.png,,,,,,,,,,,,,,,,,,,,,,,
,,,,,,,,,,,,,,,,,199447,18,2022-01-25_21h29.09.153,lexical_decision_task_DD_L3,2021.2.3,MacIntel,60.0024001,,,,,,,,,,,1.0781,0,,,,,,,,,,,,,,m,0,1.0781,,,,,,,,0.040033482,-0.367243304,0,0,0,,0,9,9,33,1,MAGGOT,LB,old,y,./images/MAGGOTLB.png,,,,,,,,,,,,,,,,,,,,,,,
,,,,,,,,,,,,,,,,,199447,18,2022-01-25_21h29.09.153,lexical_decision_task_DD_L3,2021.2.3,MacIntel,60.0024001,,,,,,,,,,,1.4309,0,,,,,,,,,,,,,,z,0,1.4309,,,,,,,,0.040033482,-0.367243304,0,0,0,,0,10,10,151,1,TINKY,HB,old,n,./images/TINKYHB.png,,,,,,,,,,,,,,,,,,,,,,,
,,,,,,,,,,,,,,,,,199447,18,2022-01-25_21h29.09.153,lexical_decision_task_DD_L3,2021.2.3,MacIntel,60.0024001,,,,,,,,,,,0.968,0,,,,,,,,,,,,,,z,0,0.968,,,,,,,,0.040033482,-0.367243304,0,0,0,,0,11,11,88,1,GLUSH,HB,old,n,./images/GLUSHHB.png,,,,,,,,,,,,,,,,,,,,,,,
,,,,,,,,,,,,,,,,,199447,18,2022-01-25_21h29.09.153,lexical_decision_task_DD_L3,2021.2.3,MacIntel,60.0024001,,,,,,,,,,,0.993,0,,,,,,,,,,,,,,z,0,0.993,,,,,,,,0.040033482,-0.367243304,0,0,0,,0,12,12,85,1,CHULK,HB,old,n,./images/CHULKHB.png,,,,,,,,,,,,,,,,,,,,,,,
,,,,,,,,,,,,,,,,,199447,18,2022-01-25_21h29.09.153,lexical_decision_task_DD_L3,2021.2.3,MacIntel,60.0024001,,,,,,,,,,,0.8968,0,,,,,,,,,,,,,,m,0,0.8968,,,,,,,,0.040033482,-0.367243304,0,0,0,,0,13,13,15,1,GREASE,LB,old,y,./images/GREASELB.png,,,,,,,,,,,,,,,,,,,,,,,
,,,,,,,,,,,,,,,,,199447,18,2022-01-25_21h29.09.153,lexical_decision_task_DD_L3,2021.2.3,MacIntel,60.0024001,,,,,,,,,,,1.1015,0,,,,,,,,,,,,,,z,0,1.1015,,,,,,,,0.040033482,-0.367243304,0,0,0,,0,14,14,97,1,CHIDS,HB,old,n,./images/CHIDSHB.png,,,,,,,,,,,,,,,,,,,,,,,
,,,,,,,,,,,,,,,,,199447,18,2022-01-25_21h29.09.153,lexical_decision_task_DD_L3,2021.2.3,MacIntel,60.0024001,,,,,,,,,,,1.0965,0,,,,,,,,,,,,,,m,0,1.0965,,,,,,,,0.040033482,-0.367243304,0,0,0,,0,15,15,31,1,QUILL,C,old,y,./images/QUILL.png,,,,,,,,,,,,,,,,,,,,,,,
,,,,,,,,,,,,,,,,,199447,18,2022-01-25_21h29.09.153,lexical_decision_task_DD_L3,2021.2.3,MacIntel,60.0024001,,,,,,,,,,,0.8344,0,,,,,,,,,,,,,,z,0,0.8344,,,,,,,,0.040033482,-0.367243304,0,0,0,,0,16,16,101,1,GLEET,LB,old,n,./images/GLEETLB.png,,,,,,,,,,,,,,,,,,,,,,,
,,,,,,,,,,,,,,,,,199447,18,2022-01-25_21h29.09.153,lexical_decision_task_DD_L3,2021.2.3,MacIntel,60.0024001,,,,,,,,,,,1.1092,0,,,,,,,,,,,,,,z,0,1.1092,,,,,,,,0.040033482,-0.367243304,0,0,0,,0,17,17,138,1,PLICE,C,old,n,./images/PLICE.png,,,,,,,,,,,,,,,,,,,,,,,
,,,,,,,,,,,,,,,,,199447,18,2022-01-25_21h29.09.153,lexical_decision_task_DD_L3,2021.2.3,MacIntel,60.0024001,,,,,,,,,,,0.9295,0,,,,,,,,,,,,,,z,0,0.9295,,,,,,,,0.040033482,-0.367243304,0,0,0,,0,18,18,118,1,BAVEL,HB,old,n,./images/BAVELHB.png,,,,,,,,,,,,,,,,,,,,,,,
,,,,,,,,,,,,,,,,,199447,18,2022-01-25_21h29.09.153,lexical_decision_task_DD_L3,2021.2.3,MacIntel,60.0024001,,,,,,,,,,,1.2278,0,,,,,,,,,,,,,,m,0,1.2278,,,,,,,,0.040033482,-0.367243304,0,0,0,,0,19,19,2,1,BEARD,HB,old,y,./images/BEARDHB.png,,,,,,,,,,,,,,,,,,,,,,,
,,,,,,,,,,,,,,,,,199447,18,2022-01-25_21h29.09.153,lexical_decision_task_DD_L3,2021.2.3,MacIntel,60.0024001,,,,,,,,,,,0.5982,0,,,,,,,,,,,,,,m,0,0.5982,,,,,,,,0.040033482,-0.367243304,0,0,0,,0,20,20,61,1,CANDLE,C,old,y,./images/CANDLE.png,,,,,,,,,,,,,,,,,,,,,,,
,,,,,,,,,,,,,,,,,199447,18,2022-01-25_21h29.09.153,lexical_decision_task_DD_L3,2021.2.3,MacIntel,60.0024001,,,,,,,,,,,0.7636,0,,,,,,,,,,,,,,m,0,0.7636,,,,,,,,0.040033482,-0.367243304,0,0,0,,0,21,21,68,1,TORCH,HB,old,y,./images/TORCHHB.png,,,,,,,,,,,,,,,,,,,,,,,
,,,,,,,,,,,,,,,,,199447,18,2022-01-25_21h29.09.153,lexical_decision_task_DD_L3,2021.2.3,MacIntel,60.0024001,,,,,,,,,,,0.6782,0,,,,,,,,,,,,,,z,0,0.6782,,,,,,,,0.040033482,-0.367243304,0,0,0,,0,22,22,108,1,GRUET,C,old,n,./images/GRUET.png,,,,,,,,,,,,,,,,,,,,,,,
,,,,,,,,,,,,,,,,,199447,18,2022-01-25_21h29.09.153,lexical_decision_task_DD_L3,2021.2.3,MacIntel,60.0024001,,,,,,,,,,,0.769,0,,,,,,,,,,,,,,m,0,0.769,,,,,,,,0.040033482,-0.367243304,0,0,0,,0,23,23,63,1,MIRROR,LB,old,y,./images/MIRRORLB.png,,,,,,,,,,,,,,,,,,,,,,,
,,,,,,,,,,,,,,,,,199447,18,2022-01-25_21h29.09.153,lexical_decision_task_DD_L3,2021.2.3,MacIntel,60.0024001,,,,,,,,,,,0.6659,0,,,,,,,,,,,,,,z,0,0.6659,,,,,,,,0.040033482,-0.367243304,0,0,0,,0,24,24,144,1,NAIRY,C,old,n,./images/NAIRY.png,,,,,,,,,,,,,,,,,,,,,,,
,,,,,,,,,,,,,,,,,199447,18,2022-01-25_21h29.09.153,lexical_decision_task_DD_L3,2021.2.3,MacIntel,60.0024001,,,,,,,,,,,0.8443,0,,,,,,,,,,,,,,m,0,0.8443,,,,,,,,0.040033482,-0.367243304,0,0,0,,0,25,25,32,1,BARREL,HB,old,y,./images/BARRELHB.png,,,,,,,,,,,,,,,,,,,,,,,
,,,,,,,,,,,,,,,,,199447,18,2022-01-25_21h29.09.153,lexical_decision_task_DD_L3,2021.2.3,MacIntel,60.0024001,,,,,,,,,,,0.7114,0,,,,,,,,,,,,,,z,0,0.7114,,,,,,,,0.040033482,-0.367243304,0,0,0,,0,26,26,119,1,PAFER,LB,old,n,./images/PAFERLB.png,,,,,,,,,,,,,,,,,,,,,,,
,,,,,,,,,,,,,,,,,199447,18,2022-01-25_21h29.09.153,lexical_decision_task_DD_L3,2021.2.3,MacIntel,60.0024001,,,,,,,,,,,0.7136,0,,,,,,,,,,,,,,m,0,0.7136,,,,,,,,0.040033482,-0.367243304,0,0,0,,0,27,27,66,1,SWEAT,LB,old,y,./images/SWEATLB.png,,,,,,,,,,,,,,,,,,,,,,,
,,,,,,,,,,,,,,,,,199447,18,2022-01-25_21h29.09.153,lexical_decision_task_DD_L3,2021.2.3,MacIntel,60.0024001,,,,,,,,,,,0.8305,0,,,,,,,,,,,,,,z,0,0.8305,,,,,,,,0.040033482,-0.367243304,0,0,0,,0,28,28,160,1,VEETS,HB,old,n,./images/VEETSHB.png,,,,,,,,,,,,,,,,,,,,,,,
,,,,,,,,,,,,,,,,,199447,18,2022-01-25_21h29.09.153,lexical_decision_task_DD_L3,2021.2.3,MacIntel,60.0024001,,,,,,,,,,,0.6419,0,,,,,,,,,,,,,,m,0,0.6419,,,,,,,,0.040033482,-0.367243304,0,0,0,,0,29,29,22,1,MELON,C,old,y,./images/MELON.png,,,,,,,,,,,,,,,,,,,,,,,
,,,,,,,,,,,,,,,,,199447,18,2022-01-25_21h29.09.153,lexical_decision_task_DD_L3,2021.2.3,MacIntel,60.0024001,,,,,,,,,,,0.8022,0,,,,,,,,,,,,,,m,0,0.8022,,,,,,,,0.040033482,-0.367243304,0,0,0,,0,30,30,47,1,BERRY,HB,old,y,./images/BERRYHB.png,,,,,,,,,,,,,,,,,,,,,,,
,,,,,,,,,,,,,,,,,199447,18,2022-01-25_21h29.09.153,lexical_decision_task_DD_L3,2021.2.3,MacIntel,60.0024001,,,,,,,,,,,0.6782,0,,,,,,,,,,,,,,m,0,0.6782,,,,,,,,0.040033482,-0.367243304,0,0,0,,0,31,31,81,1,POODLE,LB,old,y,./images/POODLELB.png,,,,,,,,,,,,,,,,,,,,,,,
,,,,,,,,,,,,,,,,,199447,18,2022-01-25_21h29.09.153,lexical_decision_task_DD_L3,2021.2.3,MacIntel,60.0024001,,,,,,,,,,,0.6945,0,,,,,,,,,,,,,,m,0,0.6945,,,,,,,,0.040033482,-0.367243304,0,0,0,,0,32,32,18,1,JAGUAR,LB,old,y,./images/JAGUARLB.png,,,,,,,,,,,,,,,,,,,,,,,
,,,,,,,,,,,,,,,,,199447,18,2022-01-25_21h29.09.153,lexical_decision_task_DD_L3,2021.2.3,MacIntel,60.0024001,,,,,,,,,,,0.6779,0,,,,,,,,,,,,,,m,0,0.6779,,,,,,,,0.040033482,-0.367243304,0,0,0,,0,33,33,9,1,RHINO,LB,old,y,./images/RHINOLB.png,,,,,,,,,,,,,,,,,,,,,,,
,,,,,,,,,,,,,,,,,199447,18,2022-01-25_21h29.09.153,lexical_decision_task_DD_L3,2021.2.3,MacIntel,60.0024001,,,,,,,,,,,0.6779,0,,,,,,,,,,,,,,z,0,0.6779,,,,,,,,0.040033482,-0.367243304,0,0,0,,0,34,34,149,1,VEASE,LB,old,n,./images/VEASELB.png,,,,,,,,,,,,,,,,,,,,,,,
,,,,,,,,,,,,,,,,,199447,18,2022-01-25_21h29.09.153,lexical_decision_task_DD_L3,2021.2.3,MacIntel,60.0024001,,,,,,,,,,,0.7305,0,,,,,,,,,,,,,,z,0,0.7305,,,,,,,,0.040033482,-0.367243304,0,0,0,,0,35,35,131,1,NACES,LB,old,n,./images/NACESLB.png,,,,,,,,,,,,,,,,,,,,,,,
,,,,,,,,,,,,,,,,,199447,18,2022-01-25_21h29.09.153,lexical_decision_task_DD_L3,2021.2.3,MacIntel,60.0024001,,,,,,,,,,,0.6319,0,,,,,,,,,,,,,,m,0,0.6319,,,,,,,,0.040033482,-0.367243304,0,0,0,,0,36,36,7,1,PAINT,C,old,y,./images/PAINT.png,,,,,,,,,,,,,,,,,,,,,,,
,,,,,,,,,,,,,,,,,199447,18,2022-01-25_21h29.09.153,lexical_decision_task_DD_L3,2021.2.3,MacIntel,60.0024001,,,,,,,,,,,0.6962,0,,,,,,,,,,,,,,m,0,0.6962,,,,,,,,0.040033482,-0.367243304,0,0,0,,0,37,37,6,1,SQUARE,LB,old,y,./images/SQUARELB.png,,,,,,,,,,,,,,,,,,,,,,,
,,,,,,,,,,,,,,,,,199447,18,2022-01-25_21h29.09.153,lexical_decision_task_DD_L3,2021.2.3,MacIntel,60.0024001,,,,,,,,,,,0.8117,0,,,,,,,,,,,,,,z,0,0.8117,,,,,,,,0.040033482,-0.367243304,0,0,0,,0,38,38,95,1,HANTY,LB,old,n,./images/HANTYLB.png,,,,,,,,,,,,,,,,,,,,,,,
,,,,,,,,,,,,,,,,,199447,18,2022-01-25_21h29.09.153,lexical_decision_task_DD_L3,2021.2.3,MacIntel,60.0024001,,,,,,,,,,,1.0939,0,,,,,,,,,,,,,,m,0,1.0939,,,,,,,,0.040033482,-0.367243304,0,0,0,,0,39,39,166,1,SHORY,HB,old,n,./images/SHORYHB.png,,,,,,,,,,,,,,,,,,,,,,,
,,,,,,,,,,,,,,,,,199447,18,2022-01-25_21h29.09.153,lexical_decision_task_DD_L3,2021.2.3,MacIntel,60.0024001,,,,,,,,,,,1.1134,0,,,,,,,,,,,,,,m,0,1.1134,,,,,,,,0.040033482,-0.367243304,0,0,0,,0,40,40,42,1,FOLDER,LB,old,y,./images/FOLDERLB.png,,,,,,,,,,,,,,,,,,,,,,,
,,,,,,,,,,,,,,,,,199447,18,2022-01-25_21h29.09.153,lexical_decision_task_DD_L3,2021.2.3,MacIntel,60.0024001,,,,,,,,,,,0.8275,0,,,,,,,,,,,,,,z,0,0.8275,,,,,,,,0.040033482,-0.367243304,0,0,0,space,0,41,41,164,1,SGREW,LB,old,n,./images/SGREWLB.png,16.7748,,,,,,,,,,,,,,,,,,,,,,
,,,,,,,,,,,,,,,,,199447,18,2022-01-25_21h29.09.153,lexical_decision_task_DD_L3,2021.2.3,MacIntel,60.0024001,,,,,,,,,,,0.881,0,,,,,,,,,,,,,,z,0,0.881,,,,,,,,0.040033482,-0.367243304,0,0,0,,0,42,42,107,1,FASKS,LB,old,n,./images/FASKSLB.png,,,,,,,,,,,,,,,,,,,,,,,
,,,,,,,,,,,,,,,,,199447,18,2022-01-25_21h29.09.153,lexical_decision_task_DD_L3,2021.2.3,MacIntel,60.0024001,,,,,,,,,,,1.0617,0,,,,,,,,,,,,,,z,0,1.0617,,,,,,,,0.040033482,-0.367243304,0,0,0,,0,43,43,148,1,JOMS,HB,old,n,./images/JOMSHB.png,,,,,,,,,,,,,,,,,,,,,,,
,,,,,,,,,,,,,,,,,199447,18,2022-01-25_21h29.09.153,lexical_decision_task_DD_L3,2021.2.3,MacIntel,60.0024001,,,,,,,,,,,1.4462,0,,,,,,,,,,,,,,m,0,1.4462,,,,,,,,0.040033482,-0.367243304,0,0,0,,0,44,44,59,1,BURIAL,HB,old,y,./images/BURIALHB.png,,,,,,,,,,,,,,,,,,,,,,,
,,,,,,,,,,,,,,,,,199447,18,2022-01-25_21h29.09.153,lexical_decision_task_DD_L3,2021.2.3,MacIntel,60.0024001,,,,,,,,,,,0.7947,0,,,,,,,,,,,,,,m,0,0.7947,,,,,,,,0.040033482,-0.367243304,0,0,0,,0,45,45,24,1,SCREW,LB,old,y,./images/SCREWLB.png,,,,,,,,,,,,,,,,,,,,,,,
,,,,,,,,,,,,,,,,,199447,18,2022-01-25_21h29.09.153,lexical_decision_task_DD_L3,2021.2.3,MacIntel,60.0024001,,,,,,,,,,,0.8106,0,,,,,,,,,,,,,,m,0,0.8106,,,,,,,,0.040033482,-0.367243304,0,0,0,,0,46,46,41,1,STRING,HB,old,y,./images/STRINGHB.png,,,,,,,,,,,,,,,,,,,,,,,
,,,,,,,,,,,,,,,,,199447,18,2022-01-25_21h29.09.153,lexical_decision_task_DD_L3,2021.2.3,MacIntel,60.0024001,,,,,,,,,,,0.9821,0,,,,,,,,,,,,,,z,0,0.9821,,,,,,,,0.040033482,-0.367243304,0,0,0,,0,47,47,152,1,FRAIN,LB,old,n,./images/FRAINLB.png,,,,,,,,,,,,,,,,,,,,,,,
,,,,,,,,,,,,,,,,,199447,18,2022-01-25_21h29.09.153,lexical_decision_task_DD_L3,2021.2.3,MacIntel,60.0024001,,,,,,,,,,,0.8121,0,,,,,,,,,,,,,,m,0,0.8121,,,,,,,,0.040033482,-0.367243304,0,0,0,,0,48,48,79,1,CRUST,C,old,y,./images/CRUST.png,,,,,,,,,,,,,,,,,,,,,,,
,,,,,,,,,,,,,,,,,199447,18,2022-01-25_21h29.09.153,lexical_decision_task_DD_L3,2021.2.3,MacIntel,60.0024001,,,,,,,,,,,1.4115,0,,,,,,,,,,,,,,m,0,1.4115,,,,,,,,0.040033482,-0.367243304,0,0,0,,0,49,49,74,1,CEMENT,HB,old,y,./images/CEMENTHB.png,,,,,,,,,,,,,,,,,,,,,,,
,,,,,,,,,,,,,,,,,199447,18,2022-01-25_21h29.09.153,lexical_decision_task_DD_L3,2021.2.3,MacIntel,60.0024001,,,,,,,,,,,1.0257,0,,,,,,,,,,,,,,z,0,1.0257,,,,,,,,0.040033482,-0.367243304,0,0,0,,0,50,50,70,1,URINE,C,old,y,./images/URINE.png,,,,,,,,,,,,,,,,,,,,,,,
,,,,,,,,,,,,,,,,,199447,18,2022-01-25_21h29.09.153,lexical_decision_task_DD_L3,2021.2.3,MacIntel,60.0024001,,,,,,,,,,,1.2264,0,,,,,,,,,,,,,,m,0,1.2264,,,,,,,,0.040033482,-0.367243304,0,0,0,,0,51,51,49,1,DRUMS,C,old,y,./images/DRUMS.png,,,,,,,,,,,,,,,,,,,,,,,
,,,,,,,,,,,,,,,,,199447,18,2022-01-25_21h29.09.153,lexical_decision_task_DD_L3,2021.2.3,MacIntel,60.0024001,,,,,,,,,,,0.8452,0,,,,,,,,,,,,,,m,0,0.8452,,,,,,,,0.040033482,-0.367243304,0,0,0,,0,52,52,23,1,WALRUS,HB,old,y,./images/WALRUSHB.png,,,,,,,,,,,,,,,,,,,,,,,
,,,,,,,,,,,,,,,,,199447,18,2022-01-25_21h29.09.153,lexical_decision_task_DD_L3,2021.2.3,MacIntel,60.0024001,,,,,,,,,,,0.9282,0,,,,,,,,,,,,,,m,0,0.9282,,,,,,,,0.040033482,-0.367243304,0,0,0,,0,53,53,0,1,TOMATO,LB,old,y,./images/TOMATOLB.png,,,,,,,,,,,,,,,,,,,,,,,
,,,,,,,,,,,,,,,,,199447,18,2022-01-25_21h29.09.153,lexical_decision_task_DD_L3,2021.2.3,MacIntel,60.0024001,,,,,,,,,,,0.894,0,,,,,,,,,,,,,,z,0,0.894,,,,,,,,0.040033482,-0.367243304,0,0,0,,0,54,54,128,1,GRIFT,LB,old,n,./images/GRIFTLB.png,,,,,,,,,,,,,,,,,,,,,,,
,,,,,,,,,,,,,,,,,199447,18,2022-01-25_21h29.09.153,lexical_decision_task_DD_L3,2021.2.3,MacIntel,60.0024001,,,,,,,,,,,1.1187,0,,,,,,,,,,,,,,z,0,1.1187,,,,,,,,0.040033482,-0.367243304,0,0,0,,0,55,55,142,1,PLASK,HB,old,n,./images/PLASKHB.png,,,,,,,,,,,,,,,,,,,,,,,
,,,,,,,,,,,,,,,,,199447,18,2022-01-25_21h29.09.153,lexical_decision_task_DD_L3,2021.2.3,MacIntel,60.0024001,,,,,,,,,,,0.964,0,,,,,,,,,,,,,,z,0,0.964,,,,,,,,0.040033482,-0.367243304,0,0,0,,0,56,56,114,1,RIKES,C,old,n,./images/RIKES.png,,,,,,,,,,,,,,,,,,,,,,,
,,,,,,,,,,,,,,,,,199447,18,2022-01-25_21h29.09.153,lexical_decision_task_DD_L3,2021.2.3,MacIntel,60.0024001,,,,,,,,,,,1.2288,0,,,,,,,,,,,,,,m,0,1.2288,,,,,,,,0.040033482,-0.367243304,0,0,0,,0,57,57,26,1,SMOKER,HB,old,y,./images/SMOKERHB.png,,,,,,,,,,,,,,,,,,,,,,,
,,,,,,,,,,,,,,,,,199447,18,2022-01-25_21h29.09.153,lexical_decision_task_DD_L3,2021.2.3,MacIntel,60.0024001,,,,,,,,,,,1.6113,0,,,,,,,,,,,,,,z,0,1.6113,,,,,,,,0.040033482,-0.367243304,0,0,0,,0,58,58,154,1,THINT,HB,old,n,./images/THINTHB.png,,,,,,,,,,,,,,,,,,,,,,,
,,,,,,,,,,,,,,,,,199447,18,2022-01-25_21h29.09.153,lexical_decision_task_DD_L3,2021.2.3,MacIntel,60.0024001,,,,,,,,,,,0.678,0,,,,,,,,,,,,,,m,0,0.678,,,,,,,,0.040033482,-0.367243304,0,0,0,,0,59,59,46,1,PEARL,C,old,y,./images/PEARL.png,,,,,,,,,,,,,,,,,,,,,,,
,,,,,,,,,,,,,,,,,199447,18,2022-01-25_21h29.09.153,lexical_decision_task_DD_L3,2021.2.3,MacIntel,60.0024001,,,,,,,,,,,0.8307,0,,,,,,,,,,,,,,z,0,0.8307,,,,,,,,0.040033482,-0.367243304,0,0,0,,0,60,60,146,1,MOOST,LB,old,n,./images/MOOSTLB.png,,,,,,,,,,,,,,,,,,,,,,,
,,,,,,,,,,,,,,,,,199447,18,2022-01-25_21h29.09.153,lexical_decision_task_DD_L3,2021.2.3,MacIntel,60.0024001,,,,,,,,,,,0.6853,0,,,,,,,,,,,,,,z,0,0.6853,,,,,,,,0.040033482,-0.367243304,0,0,0,,0,61,61,167,1,ZONET,LB,old,n,./images/ZONETLB.png,,,,,,,,,,,,,,,,,,,,,,,
,,,,,,,,,,,,,,,,,199447,18,2022-01-25_21h29.09.153,lexical_decision_task_DD_L3,2021.2.3,MacIntel,60.0024001,,,,,,,,,,,0.5926,0,,,,,,,,,,,,,,m,0,0.5926,,,,,,,,0.040033482,-0.367243304,0,0,0,,0,62,62,37,1,BIRTH,C,old,y,./images/BIRTH.png,,,,,,,,,,,,,,,,,,,,,,,
,,,,,,,,,,,,,,,,,199447,18,2022-01-25_21h29.09.153,lexical_decision_task_DD_L3,2021.2.3,MacIntel,60.0024001,,,,,,,,,,,1.6632,0,,,,,,,,,,,,,,z,0,1.6632,,,,,,,,0.040033482,-0.367243304,0,0,0,,0,63,63,91,1,SHENS,HB,old,n,./images/SHENSHB.png,,,,,,,,,,,,,,,,,,,,,,,
,,,,,,,,,,,,,,,,,199447,18,2022-01-25_21h29.09.153,lexical_decision_task_DD_L3,2021.2.3,MacIntel,60.0024001,,,,,,,,,,,0.5773,0,,,,,,,,,,,,,,z,0,0.5773,,,,,,,,0.040033482,-0.367243304,0,0,0,,0,64,64,135,1,JOODY,C,old,n,./images/JOODY.png,,,,,,,,,,,,,,,,,,,,,,,
,,,,,,,,,,,,,,,,,199447,18,2022-01-25_21h29.09.153,lexical_decision_task_DD_L3,2021.2.3,MacIntel,60.0024001,,,,,,,,,,,0.6647,0,,,,,,,,,,,,,,z,0,0.6647,,,,,,,,0.040033482,-0.367243304,0,0,0,,0,65,65,98,1,BAMPS,LB,old,n,./images/BAMPSLB.png,,,,,,,,,,,,,,,,,,,,,,,
,,,,,,,,,,,,,,,,,199447,18,2022-01-25_21h29.09.153,lexical_decision_task_DD_L3,2021.2.3,MacIntel,60.0024001,,,,,,,,,,,0.612,0,,,,,,,,,,,,,,z,0,0.612,,,,,,,,0.040033482,-0.367243304,0,0,0,,0,66,66,161,1,BLAPS,LB,old,n,./images/BLAPSLB.png,,,,,,,,,,,,,,,,,,,,,,,
,,,,,,,,,,,,,,,,,199447,18,2022-01-25_21h29.09.153,lexical_decision_task_DD_L3,2021.2.3,MacIntel,60.0024001,,,,,,,,,,,0.5916,0,,,,,,,,,,,,,,m,0,0.5916,,,,,,,,0.040033482,-0.367243304,0,0,0,,0,67,67,64,1,JELLY,C,old,y,./images/JELLY.png,,,,,,,,,,,,,,,,,,,,,,,
,,,,,,,,,,,,,,,,,199447,18,2022-01-25_21h29.09.153,lexical_decision_task_DD_L3,2021.2.3,MacIntel,60.0024001,,,,,,,,,,,0.6785,0,,,,,,,,,,,,,,z,0,0.6785,,,,,,,,0.040033482,-0.367243304,0,0,0,,0,68,68,120,1,RINED,C,old,n,./images/RINED.png,,,,,,,,,,,,,,,,,,,,,,,
,,,,,,,,,,,,,,,,,199447,18,2022-01-25_21h29.09.153,lexical_decision_task_DD_L3,2021.2.3,MacIntel,60.0024001,,,,,,,,,,,0.6279,0,,,,,,,,,,,,,,m,0,0.6279,,,,,,,,0.040033482,-0.367243304,0,0,0,,0,69,69,60,1,TWINS,LB,old,y,./images/TWINSLB.png,,,,,,,,,,,,,,,,,,,,,,,
,,,,,,,,,,,,,,,,,199447,18,2022-01-25_21h29.09.153,lexical_decision_task_DD_L3,2021.2.3,MacIntel,60.0024001,,,,,,,,,,,0.6771,0,,,,,,,,,,,,,,z,0,0.6771,,,,,,,,0.040033482,-0.367243304,0,0,0,,0,70,70,89,1,DRIEK,LB,old,n,./images/DRIEKLB.png,,,,,,,,,,,,,,,,,,,,,,,
,,,,,,,,,,,,,,,,,199447,18,2022-01-25_21h29.09.153,lexical_decision_task_DD_L3,2021.2.3,MacIntel,60.0024001,,,,,,,,,,,0.6454,0,,,,,,,,,,,,,,z,0,0.6454,,,,,,,,0.040033482,-0.367243304,0,0,0,,0,71,71,92,1,PAIMS,LB,old,n,./images/PAIMSLB.png,,,,,,,,,,,,,,,,,,,,,,,
,,,,,,,,,,,,,,,,,199447,18,2022-01-25_21h29.09.153,lexical_decision_task_DD_L3,2021.2.3,MacIntel,60.0024001,,,,,,,,,,,0.6119,0,,,,,,,,,,,,,,z,0,0.6119,,,,,,,,0.040033482,-0.367243304,0,0,0,,0,72,72,117,1,STEEG,C,old,n,./images/STEEG.png,,,,,,,,,,,,,,,,,,,,,,,
,,,,,,,,,,,,,,,,,199447,18,2022-01-25_21h29.09.153,lexical_decision_task_DD_L3,2021.2.3,MacIntel,60.0024001,,,,,,,,,,,1.4806,0,,,,,,,,,,,,,,z,0,1.4806,,,,,,,,0.040033482,-0.367243304,0,0,0,,0,73,73,133,1,POWDY,HB,old,n,./images/POWDYHB.png,,,,,,,,,,,,,,,,,,,,,,,
,,,,,,,,,,,,,,,,,199447,18,2022-01-25_21h29.09.153,lexical_decision_task_DD_L3,2021.2.3,MacIntel,60.0024001,,,,,,,,,,,0.5951,0,,,,,,,,,,,,,,z,0,0.5951,,,,,,,,0.040033482,-0.367243304,0,0,0,,0,74,74,137,1,JOOST,LB,old,n,./images/JOOSTLB.png,,,,,,,,,,,,,,,,,,,,,,,
,,,,,,,,,,,,,,,,,199447,18,2022-01-25_21h29.09.153,lexical_decision_task_DD_L3,2021.2.3,MacIntel,60.0024001,,,,,,,,,,,1.0092,0,,,,,,,,,,,,,,z,0,1.0092,,,,,,,,0.040033482,-0.367243304,0,0,0,,0,75,75,76,1,INFANT,C,old,y,./images/INFANT.png,,,,,,,,,,,,,,,,,,,,,,,
,,,,,,,,,,,,,,,,,199447,18,2022-01-25_21h29.09.153,lexical_decision_task_DD_L3,2021.2.3,MacIntel,60.0024001,,,,,,,,,,,2.3024,0,,,,,,,,,,,,,,z,0,2.3024,,,,,,,,0.040033482,-0.367243304,0,0,0,,0,76,76,145,1,LAMEL,HB,old,n,./images/LAMELHB.png,,,,,,,,,,,,,,,,,,,,,,,
,,,,,,,,,,,,,,,,,199447,18,2022-01-25_21h29.09.153,lexical_decision_task_DD_L3,2021.2.3,MacIntel,60.0024001,,,,,,,,,,,1.2967,0,,,,,,,,,,,,,,m,0,1.2967,,,,,,,,0.040033482,-0.367243304,0,0,0,,0,77,77,38,1,LADDER,HB,old,y,./images/LADDERHB.png,,,,,,,,,,,,,,,,,,,,,,,
,,,,,,,,,,,,,,,,,199447,18,2022-01-25_21h29.09.153,lexical_decision_task_DD_L3,2021.2.3,MacIntel,60.0024001,,,,,,,,,,,0.6088,0,,,,,,,,,,,,,,m,0,0.6088,,,,,,,,0.040033482,-0.367243304,0,0,0,,0,78,78,55,1,MUFFIN,C,old,y,./images/MUFFIN.png,,,,,,,,,,,,,,,,,,,,,,,
,,,,,,,,,,,,,,,,,199447,18,2022-01-25_21h29.09.153,lexical_decision_task_DD_L3,2021.2.3,MacIntel,60.0024001,,,,,,,,,,,0.6448,0,,,,,,,,,,,,,,m,0,0.6448,,,,,,,,0.040033482,-0.367243304,0,0,0,,0,79,79,39,1,SHELF,LB,old,y,./images/SHELFLB.png,,,,,,,,,,,,,,,,,,,,,,,
,,,,,,,,,,,,,,,,,199447,18,2022-01-25_21h29.09.153,lexical_decision_task_DD_L3,2021.2.3,MacIntel,60.0024001,,,,,,,,,,,0.5757,0,,,,,,,,,,,,,,m,0,0.5757,,,,,,,,0.040033482,-0.367243304,0,0,0,,0,80,80,82,1,SUNSET,C,old,y,./images/SUNSET.png,,,,,,,,,,,,,,,,,,,,,,,
,,,,,,,,,,,,,,,,,199447,18,2022-01-25_21h29.09.153,lexical_decision_task_DD_L3,2021.2.3,MacIntel,60.0024001,,,,,,,,,,,1.2977,0,,,,,,,,,,,,,,z,0,1.2977,,,,,,,,0.040033482,-0.367243304,0,0,0,,0,81,81,112,1,MYING,HB,old,n,./images/MYINGHB.png,,,,,,,,,,,,,,,,,,,,,,,
,,,,,,,,,,,,,,,,,199447,18,2022-01-25_21h29.09.153,lexical_decision_task_DD_L3,2021.2.3,MacIntel,60.0024001,,,,,,,,,,,0.7609,0,,,,,,,,,,,,,,z,0,0.7609,,,,,,,,0.040033482,-0.367243304,0,0,0,,0,82,82,93,1,SMONE,C,old,n,./images/SMONE.png,,,,,,,,,,,,,,,,,,,,,,,
,,,,,,,,,,,,,,,,,199447,18,2022-01-25_21h29.09.153,lexical_decision_task_DD_L3,2021.2.3,MacIntel,60.0024001,,,,,,,,,,,0.7285,0,,,,,,,,,,,,,,m,0,0.7285,,,,,,,,0.034940476,-0.3921875,1,0,0,,0,83,83,30,1,STORM,LB,old,y,./images/STORMLB.png,,break_done_button,,,,,,,,,,,,,,,,,,,,,
,,,,,,,,,,,,,,,,,199447,18,2022-01-25_21h29.09.153,lexical_decision_task_DD_L3,2021.2.3,MacIntel,60.0024001,,,,,,,,,,,0.6753,0,,,,,,,,,,,,,,m,0,0.6753,,,,,,,,0.034940476,-0.3921875,0,0,0,,0,84,84,13,1,MOTOR,C,old,y,./images/MOTOR.png,,,,,,,,,,,,,,,,,,,,,,,
,,,,,,,,,,,,,,,,,199447,18,2022-01-25_21h29.09.153,lexical_decision_task_DD_L3,2021.2.3,MacIntel,60.0024001,,,,,,,,,,,0.6452,0,,,,,,,,,,,,,,z,0,0.6452,,,,,,,,0.034940476,-0.3921875,0,0,0,,0,85,85,122,1,BLOOT,LB,old,n,./images/BLOOTLB.png,,,,,,,,,,,,,,,,,,,,,,,
,,,,,,,,,,,,,,,,,199447,18,2022-01-25_21h29.09.153,lexical_decision_task_DD_L3,2021.2.3,MacIntel,60.0024001,,,,,,,,,,,0.6091,0,,,,,,,,,,,,,,z,0,0.6091,,,,,,,,0.034940476,-0.3921875,0,0,0,,0,86,86,43,1,MOSQUE,C,old,y,./images/MOSQUE.png,,,,,,,,,,,,,,,,,,,,,,,
,,,,,,,,,,,,,,,,,199447,18,2022-01-25_21h29.09.153,lexical_decision_task_DD_L3,2021.2.3,MacIntel,60.0024001,,,,,,,,,,,0.6113,0,,,,,,,,,,,,,,z,0,0.6113,,,,,,,,0.034940476,-0.3921875,0,0,0,,0,87,87,147,1,ZOLES,C,old,n,./images/ZOLES.png,,,,,,,,,,,,,,,,,,,,,,,
,,,,,,,,,,,,,,,,,199447,18,2022-01-25_21h29.09.153,lexical_decision_task_DD_L3,2021.2.3,MacIntel,60.0024001,,,,,,,,,,,0.6942,0,,,,,,,,,,,,,,z,0,0.6942,,,,,,,,0.034940476,-0.3921875,0,0,0,,0,88,88,143,1,MONGS,LB,old,n,./images/MONGSLB.png,,,,,,,,,,,,,,,,,,,,,,,
,,,,,,,,,,,,,,,,,199447,18,2022-01-25_21h29.09.153,lexical_decision_task_DD_L3,2021.2.3,MacIntel,60.0024001,,,,,,,,,,,1.6305,0,,,,,,,,,,,,,,m,0,1.6305,,,,,,,,0.034940476,-0.3921875,0,0,0,,0,89,89,62,1,PURSE,HB,old,y,./images/PURSEHB.png,,,,,,,,,,,,,,,,,,,,,,,
,,,,,,,,,,,,,,,,,199447,18,2022-01-25_21h29.09.153,lexical_decision_task_DD_L3,2021.2.3,MacIntel,60.0024001,,,,,,,,,,,0.6844,0,,,,,,,,,,,,,,z,0,0.6844,,,,,,,,0.034940476,-0.3921875,0,0,0,,0,90,90,104,1,GITTY,LB,old,n,./images/GITTYLB.png,,,,,,,,,,,,,,,,,,,,,,,
,,,,,,,,,,,,,,,,,199447,18,2022-01-25_21h29.09.153,lexical_decision_task_DD_L3,2021.2.3,MacIntel,60.0024001,,,,,,,,,,,1.1834,0,,,,,,,,,,,,,,m,0,1.1834,,,,,,,,0.034940476,-0.3921875,0,0,0,,0,91,91,136,1,WERVE,HB,old,n,./images/WERVEHB.png,,,,,,,,,,,,,,,,,,,,,,,
,,,,,,,,,,,,,,,,,199447,18,2022-01-25_21h29.09.153,lexical_decision_task_DD_L3,2021.2.3,MacIntel,60.0024001,,,,,,,,,,,1.5994,0,,,,,,,,,,,,,,z,0,1.5994,,,,,,,,0.034940476,-0.3921875,0,0,0,,0,92,92,130,1,CRILL,HB,old,n,./images/CRILLHB.png,,,,,,,,,,,,,,,,,,,,,,,
,,,,,,,,,,,,,,,,,199447,18,2022-01-25_21h29.09.153,lexical_decision_task_DD_L3,2021.2.3,MacIntel,60.0024001,,,,,,,,,,,0.8637,0,,,,,,,,,,,,,,m,0,0.8637,,,,,,,,0.034940476,-0.3921875,0,0,0,,0,93,93,50,1,MALLET,HB,old,y,./images/MALLETHB.png,,,,,,,,,,,,,,,,,,,,,,,
,,,,,,,,,,,,,,,,,199447,18,2022-01-25_21h29.09.153,lexical_decision_task_DD_L3,2021.2.3,MacIntel,60.0024001,,,,,,,,,,,1.9272,0,,,,,,,,,,,,,,z,0,1.9272,,,,,,,,0.034940476,-0.3921875,0,0,0,,0,94,94,20,1,CRADLE,HB,old,y,./images/CRADLEHB.png,,,,,,,,,,,,,,,,,,,,,,,
,,,,,,,,,,,,,,,,,199447,18,2022-01-25_21h29.09.153,lexical_decision_task_DD_L3,2021.2.3,MacIntel,60.0024001,,,,,,,,,,,0.714,0,,,,,,,,,,,,,,m,0,0.714,,,,,,,,0.034940476,-0.3921875,0,0,0,,0,95,95,27,1,ATTIC,LB,old,y,./images/ATTICLB.png,,,,,,,,,,,,,,,,,,,,,,,
,,,,,,,,,,,,,,,,,199447,18,2022-01-25_21h29.09.153,lexical_decision_task_DD_L3,2021.2.3,MacIntel,60.0024001,,,,,,,,,,,1.2938,0,,,,,,,,,,,,,,z,0,1.2938,,,,,,,,0.034940476,-0.3921875,0,0,0,,0,96,96,110,1,CRUNK,LB,old,n,./images/CRUNKLB.png,,,,,,,,,,,,,,,,,,,,,,,
,,,,,,,,,,,,,,,,,199447,18,2022-01-25_21h29.09.153,lexical_decision_task_DD_L3,2021.2.3,MacIntel,60.0024001,,,,,,,,,,,0.9302,0,,,,,,,,,,,,,,m,0,0.9302,,,,,,,,0.034940476,-0.3921875,0,0,0,,0,97,97,5,1,PASTA,HB,old,y,./images/PASTAHB.png,,,,,,,,,,,,,,,,,,,,,,,
,,,,,,,,,,,,,,,,,199447,18,2022-01-25_21h29.09.153,lexical_decision_task_DD_L3,2021.2.3,MacIntel,60.0024001,,,,,,,,,,,0.966,0,,,,,,,,,,,,,,z,0,0.966,,,,,,,,0.034940476,-0.3921875,0,0,0,,0,98,98,134,1,TROSS,LB,old,n,./images/TROSSLB.png,,,,,,,,,,,,,,,,,,,,,,,
,,,,,,,,,,,,,,,,,199447,18,2022-01-25_21h29.09.153,lexical_decision_task_DD_L3,2021.2.3,MacIntel,60.0024001,,,,,,,,,,,0.7924,0,,,,,,,,,,,,,,z,0,0.7924,,,,,,,,0.034940476,-0.3921875,0,0,0,,0,99,99,123,1,SEDGE,C,old,n,./images/SEDGE.png,,,,,,,,,,,,,,,,,,,,,,,
,,,,,,,,,,,,,,,,,199447,18,2022-01-25_21h29.09.153,lexical_decision_task_DD_L3,2021.2.3,MacIntel,60.0024001,,,,,,,,,,,0.897,0,,,,,,,,,,,,,,z,0,0.897,,,,,,,,0.034940476,-0.3921875,0,0,0,,0,100,100,140,1,DOVET,LB,old,n,./images/DOVETLB.png,,,,,,,,,,,,,,,,,,,,,,,
,,,,,,,,,,,,,,,,,199447,18,2022-01-25_21h29.09.153,lexical_decision_task_DD_L3,2021.2.3,MacIntel,60.0024001,,,,,,,,,,,1.7686,0,,,,,,,,,,,,,,z,0,1.7686,,,,,,,,0.034940476,-0.3921875,0,0,0,,0,101,101,121,1,CEERS,HB,old,n,./images/CEERSHB.png,,,,,,,,,,,,,,,,,,,,,,,
,,,,,,,,,,,,,,,,,199447,18,2022-01-25_21h29.09.153,lexical_decision_task_DD_L3,2021.2.3,MacIntel,60.0024001,,,,,,,,,,,0.6472,0,,,,,,,,,,,,,,m,0,0.6472,,,,,,,,0.034940476,-0.3921875,0,0,0,,0,102,102,21,1,KIDNEY,LB,old,y,./images/KIDNEYLB.png,,,,,,,,,,,,,,,,,,,,,,,
,,,,,,,,,,,,,,,,,199447,18,2022-01-25_21h29.09.153,lexical_decision_task_DD_L3,2021.2.3,MacIntel,60.0024001,,,,,,,,,,,0.6665,0,,,,,,,,,,,,,,z,0,0.6665,,,,,,,,0.034940476,-0.3921875,0,0,0,,0,103,103,86,1,AIFED,LB,old,n,./images/AIFEDLB.png,,,,,,,,,,,,,,,,,,,,,,,
,,,,,,,,,,,,,,,,,199447,18,2022-01-25_21h29.09.153,lexical_decision_task_DD_L3,2021.2.3,MacIntel,60.0024001,,,,,,,,,,,0.7426,0,,,,,,,,,,,,,,m,0,0.7426,,,,,,,,0.034940476,-0.3921875,0,0,0,,0,104,104,34,1,CANYON,C,old,y,./images/CANYON.png,,,,,,,,,,,,,,,,,,,,,,,
,,,,,,,,,,,,,,,,,199447,18,2022-01-25_21h29.09.153,lexical_decision_task_DD_L3,2021.2.3,MacIntel,60.0024001,,,,,,,,,,,0.6997,0,,,,,,,,,,,,,,z,0,0.6997,,,,,,,,0.034940476,-0.3921875,0,0,0,,0,105,105,102,1,DULLE,C,old,n,./images/DULLE.png,,,,,,,,,,,,,,,,,,,,,,,
,,,,,,,,,,,,,,,,,199447,18,2022-01-25_21h29.09.153,lexical_decision_task_DD_L3,2021.2.3,MacIntel,60.0024001,,,,,,,,,,,1.0961,0,,,,,,,,,,,,,,z,0,1.0961,,,,,,,,0.034940476,-0.3921875,0,0,0,,0,106,106,106,1,CLUMS,HB,old,n,./images/CLUMSHB.png,,,,,,,,,,,,,,,,,,,,,,,
,,,,,,,,,,,,,,,,,199447,18,2022-01-25_21h29.09.153,lexical_decision_task_DD_L3,2021.2.3,MacIntel,60.0024001,,,,,,,,,,,0.8114,0,,,,,,,,,,,,,,z,0,0.8114,,,,,,,,0.034940476,-0.3921875,0,0,0,,0,107,107,90,1,NEAST,C,old,n,./images/NEAST.png,,,,,,,,,,,,,,,,,,,,,,,
,,,,,,,,,,,,,,,,,199447,18,2022-01-25_21h29.09.153,lexical_decision_task_DD_L3,2021.2.3,MacIntel,60.0024001,,,,,,,,,,,0.5948,0,,,,,,,,,,,,,,z,0,0.5948,,,,,,,,0.034940476,-0.3921875,0,0,0,,0,108,108,113,1,LINEW,LB,old,n,./images/LINEWLB.png,,,,,,,,,,,,,,,,,,,,,,,
,,,,,,,,,,,,,,,,,199447,18,2022-01-25_21h29.09.153,lexical_decision_task_DD_L3,2021.2.3,MacIntel,60.0024001,,,,,,,,,,,0.7114,0,,,,,,,,,,,,,,z,0,0.7114,,,,,,,,0.034940476,-0.3921875,0,0,0,,0,109,109,87,1,TRING,C,old,n,./images/TRING.png,,,,,,,,,,,,,,,,,,,,,,,
,,,,,,,,,,,,,,,,,199447,18,2022-01-25_21h29.09.153,lexical_decision_task_DD_L3,2021.2.3,MacIntel,60.0024001,,,,,,,,,,,0.9844,0,,,,,,,,,,,,,,z,0,0.9844,,,,,,,,0.034940476,-0.3921875,0,0,0,,0,110,110,127,1,NINDY,HB,old,n,./images/NINDYHB.png,,,,,,,,,,,,,,,,,,,,,,,
,,,,,,,,,,,,,,,,,199447,18,2022-01-25_21h29.09.153,lexical_decision_task_DD_L3,2021.2.3,MacIntel,60.0024001,,,,,,,,,,,0.66,0,,,,,,,,,,,,,,m,0,0.66,,,,,,,,0.034940476,-0.3921875,0,0,0,,0,111,111,14,1,PICKLE,HB,old,y,./images/PICKLEHB.png,,,,,,,,,,,,,,,,,,,,,,,
,,,,,,,,,,,,,,,,,199447,18,2022-01-25_21h29.09.153,lexical_decision_task_DD_L3,2021.2.3,MacIntel,60.0024001,,,,,,,,,,,0.5805,0,,,,,,,,,,,,,,m,0,0.5805,,,,,,,,0.034940476,-0.3921875,0,0,0,,0,112,112,83,1,JUNGLE,HB,old,y,./images/JUNGLEHB.png,,,,,,,,,,,,,,,,,,,,,,,
,,,,,,,,,,,,,,,,,199447,18,2022-01-25_21h29.09.153,lexical_decision_task_DD_L3,2021.2.3,MacIntel,60.0024001,,,,,,,,,,,0.5253,0,,,,,,,,,,,,,,m,0,0.5253,,,,,,,,0.034940476,-0.3921875,0,0,0,,0,113,113,40,1,SWING,C,old,y,./images/SWING.png,,,,,,,,,,,,,,,,,,,,,,,
,,,,,,,,,,,,,,,,,199447,18,2022-01-25_21h29.09.153,lexical_decision_task_DD_L3,2021.2.3,MacIntel,60.0024001,,,,,,,,,,,0.5775,0,,,,,,,,,,,,,,m,0,0.5775,,,,,,,,0.034940476,-0.3921875,0,0,0,,0,114,114,4,1,MUSCLE,C,old,y,./images/MUSCLE.png,,,,,,,,,,,,,,,,,,,,,,,
,,,,,,,,,,,,,,,,,199447,18,2022-01-25_21h29.09.153,lexical_decision_task_DD_L3,2021.2.3,MacIntel,60.0024001,,,,,,,,,,,0.5644,0,,,,,,,,,,,,,,m,0,0.5644,,,,,,,,0.034940476,-0.3921875,0,0,0,,0,115,115,69,1,COOKER,LB,old,y,./images/COOKERLB.png,,,,,,,,,,,,,,,,,,,,,,,
,,,,,,,,,,,,,,,,,199447,18,2022-01-25_21h29.09.153,lexical_decision_task_DD_L3,2021.2.3,MacIntel,60.0024001,,,,,,,,,,,1.794,0,,,,,,,,,,,,,,z,0,1.794,,,,,,,,0.034940476,-0.3921875,0,0,0,,0,116,116,94,1,BLANS,HB,old,n,./images/BLANSHB.png,,,,,,,,,,,,,,,,,,,,,,,
,,,,,,,,,,,,,,,,,199447,18,2022-01-25_21h29.09.153,lexical_decision_task_DD_L3,2021.2.3,MacIntel,60.0024001,,,,,,,,,,,0.6754,0,,,,,,,,,,,,,,z,0,0.6754,,,,,,,,0.034940476,-0.3921875,0,0,0,,0,117,117,132,1,SCIFF,C,old,n,./images/SCIFF.png,,,,,,,,,,,,,,,,,,,,,,,
,,,,,,,,,,,,,,,,,199447,18,2022-01-25_21h29.09.153,lexical_decision_task_DD_L3,2021.2.3,MacIntel,60.0024001,,,,,,,,,,,0.5989,0,,,,,,,,,,,,,,z,0,0.5989,,,,,,,,0.034940476,-0.3921875,0,0,0,,0,118,118,105,1,MOKER,C,old,n,./images/MOKER.png,,,,,,,,,,,,,,,,,,,,,,,
,,,,,,,,,,,,,,,,,199447,18,2022-01-25_21h29.09.153,lexical_decision_task_DD_L3,2021.2.3,MacIntel,60.0024001,,,,,,,,,,,0.7115,0,,,,,,,,,,,,,,z,0,0.7115,,,,,,,,0.034940476,-0.3921875,0,0,0,,0,119,119,159,1,CUDDY,C,old,n,./images/CUDDY.png,,,,,,,,,,,,,,,,,,,,,,,
,,,,,,,,,,,,,,,,,199447,18,2022-01-25_21h29.09.153,lexical_decision_task_DD_L3,2021.2.3,MacIntel,60.0024001,,,,,,,,,,,0.6951,0,,,,,,,,,,,,,,m,0,0.6951,,,,,,,,0.034940476,-0.3921875,0,0,0,,0,120,120,28,1,FALCON,C,old,y,./images/FALCON.png,,,,,,,,,,,,,,,,,,,,,,,
,,,,,,,,,,,,,,,,,199447,18,2022-01-25_21h29.09.153,lexical_decision_task_DD_L3,2021.2.3,MacIntel,60.0024001,,,,,,,,,,,0.8638,0,,,,,,,,,,,,,,z,0,0.8638,,,,,,,,0.034940476,-0.3921875,0,0,0,,0,121,121,103,1,FLORT,HB,old,n,./images/FLORTHB.png,,,,,,,,,,,,,,,,,,,,,,,
,,,,,,,,,,,,,,,,,199447,18,2022-01-25_21h29.09.153,lexical_decision_task_DD_L3,2021.2.3,MacIntel,60.0024001,,,,,,,,,,,0.6448,0,,,,,,,,,,,,,,z,0,0.6448,,,,,,,,0.034940476,-0.3921875,0,0,0,,0,122,122,84,1,HAXES,C,old,n,./images/HAXES.png,,,,,,,,,,,,,,,,,,,,,,,
,,,,,,,,,,,,,,,,,199447,18,2022-01-25_21h29.09.153,lexical_decision_task_DD_L3,2021.2.3,MacIntel,60.0024001,,,,,,,,,,,0.6784,0,,,,,,,,,,,,,,m,0,0.6784,,,,,,,,0.034940476,-0.3921875,0,0,0,,0,123,123,12,1,SHORE,LB,old,y,./images/SHORELB.png,,,,,,,,,,,,,,,,,,,,,,,
,,,,,,,,,,,,,,,,,199447,18,2022-01-25_21h29.09.153,lexical_decision_task_DD_L3,2021.2.3,MacIntel,60.0024001,,,,,,,,,,,0.6489,0,,,,,,,,,,,,,,m,0,0.6489,,,,,,,,0.034940476,-0.3921875,0,0,0,,0,124,124,77,1,COUCH,HB,old,y,./images/COUCHHB.png,,,,,,,,,,,,,,,,,,,,,,,
,,,,,,,,,,,,,,,,,199447,18,2022-01-25_21h29.09.153,lexical_decision_task_DD_L3,2021.2.3,MacIntel,60.0024001,,,,,,,,,,,0.5804,0,,,,,,,,,,,,,,m,0,0.5804,,,,,,,,0.034940476,-0.3921875,0,0,0,space,0,125,125,57,1,MOOSE,LB,old,y,./images/MOOSELB.png,4.9639,,,,,,,,,,,,,,,,,,,,,,
,,,,,,,,,,,,,,,,,199447,18,2022-01-25_21h29.09.153,lexical_decision_task_DD_L3,2021.2.3,MacIntel,60.0024001,,,,,,,,,,,1.052,0,,,,,,,,,,,,,,m,0,1.052,,,,,,,,0.034940476,-0.3921875,0,0,0,,0,126,126,8,1,TULIP,HB,old,y,./images/TULIPHB.png,,,,,,,,,,,,,,,,,,,,,,,
,,,,,,,,,,,,,,,,,199447,18,2022-01-25_21h29.09.153,lexical_decision_task_DD_L3,2021.2.3,MacIntel,60.0024001,,,,,,,,,,,0.6972,0,,,,,,,,,,,,,,z,0,0.6972,,,,,,,,0.034940476,-0.3921875,0,0,0,,0,127,127,155,1,CANGY,LB,old,n,./images/CANGYLB.png,,,,,,,,,,,,,,,,,,,,,,,
,,,,,,,,,,,,,,,,,199447,18,2022-01-25_21h29.09.153,lexical_decision_task_DD_L3,2021.2.3,MacIntel,60.0024001,,,,,,,,,,,0.5451,0,,,,,,,,,,,,,,z,0,0.5451,,,,,,,,0.034940476,-0.3921875,0,0,0,,0,128,128,150,1,NOOLS,C,old,n,./images/NOOLS.png,,,,,,,,,,,,,,,,,,,,,,,
,,,,,,,,,,,,,,,,,199447,18,2022-01-25_21h29.09.153,lexical_decision_task_DD_L3,2021.2.3,MacIntel,60.0024001,,,,,,,,,,,0.6522,0,,,,,,,,,,,,,,m,0,0.6522,,,,,,,,0.034940476,-0.3921875,0,0,0,,0,129,129,44,1,LIZARD,HB,old,y,./images/LIZARDHB.png,,,,,,,,,,,,,,,,,,,,,,,
,,,,,,,,,,,,,,,,,199447,18,2022-01-25_21h29.09.153,lexical_decision_task_DD_L3,2021.2.3,MacIntel,60.0024001,,,,,,,,,,,0.9448,0,,,,,,,,,,,,,,z,0,0.9448,,,,,,,,0.034940476,-0.3921875,0,0,0,,0,130,130,124,1,TUNCH,HB,old,n,./images/TUNCHHB.png,,,,,,,,,,,,,,,,,,,,,,,
,,,,,,,,,,,,,,,,,199447,18,2022-01-25_21h29.09.153,lexical_decision_task_DD_L3,2021.2.3,MacIntel,60.0024001,,,,,,,,,,,0.8645,0,,,,,,,,,,,,,,z,0,0.8645,,,,,,,,0.034940476,-0.3921875,0,0,0,,0,131,131,16,1,PENCE,C,old,y,./images/PENCE.png,,,,,,,,,,,,,,,,,,,,,,,
,,,,,,,,,,,,,,,,,199447,18,2022-01-25_21h29.09.153,lexical_decision_task_DD_L3,2021.2.3,MacIntel,60.0024001,,,,,,,,,,,0.6449,0,,,,,,,,,,,,,,m,0,0.6449,,,,,,,,0.034940476,-0.3921875,0,0,0,,0,132,132,73,1,SNACK,C,old,y,./images/SNACK.png,,,,,,,,,,,,,,,,,,,,,,,
,,,,,,,,,,,,,,,,,199447,18,2022-01-25_21h29.09.153,lexical_decision_task_DD_L3,2021.2.3,MacIntel,60.0024001,,,,,,,,,,,1.6974,0,,,,,,,,,,,,,,z,0,1.6974,,,,,,,,0.034940476,-0.3921875,0,0,0,,0,133,133,115,1,MAWNS,HB,old,n,./images/MAWNSHB.png,,,,,,,,,,,,,,,,,,,,,,,
,,,,,,,,,,,,,,,,,199447,18,2022-01-25_21h29.09.153,lexical_decision_task_DD_L3,2021.2.3,MacIntel,60.0024001,,,,,,,,,,,0.9968,0,,,,,,,,,,,,,,z,0,0.9968,,,,,,,,0.034940476,-0.3921875,0,0,0,,0,134,134,158,1,EGECT,LB,old,n,./images/EGECTLB.png,,,,,,,,,,,,,,,,,,,,,,,
,,,,,,,,,,,,,,,,,199447,18,2022-01-25_21h29.09.153,lexical_decision_task_DD_L3,2021.2.3,MacIntel,60.0024001,,,,,,,,,,,0.8452,0,,,,,,,,,,,,,,m,0,0.8452,,,,,,,,0.034940476,-0.3921875,0,0,0,,0,135,135,65,1,FARMER,HB,old,y,./images/FARMERHB.png,,,,,,,,,,,,,,,,,,,,,,,
,,,,,,,,,,,,,,,,,199447,18,2022-01-25_21h29.09.153,lexical_decision_task_DD_L3,2021.2.3,MacIntel,60.0024001,,,,,,,,,,,0.5768,0,,,,,,,,,,,,,,m,0,0.5768,,,,,,,,0.034940476,-0.3921875,0,0,0,,0,136,136,52,1,BANNER,C,old,y,./images/BANNER.png,,,,,,,,,,,,,,,,,,,,,,,
,,,,,,,,,,,,,,,,,199447,18,2022-01-25_21h29.09.153,lexical_decision_task_DD_L3,2021.2.3,MacIntel,60.0024001,,,,,,,,,,,0.594,0,,,,,,,,,,,,,,m,0,0.594,,,,,,,,0.034940476,-0.3921875,0,0,0,,0,137,137,36,1,THROAT,LB,old,y,./images/THROATLB.png,,,,,,,,,,,,,,,,,,,,,,,
,,,,,,,,,,,,,,,,,199447,18,2022-01-25_21h29.09.153,lexical_decision_task_DD_L3,2021.2.3,MacIntel,60.0024001,,,,,,,,,,,1.6611,0,,,,,,,,,,,,,,m,0,1.6611,,,,,,,,0.034940476,-0.3921875,0,0,0,,0,138,138,56,1,PACKET,HB,old,y,./images/PACKETHB.png,,,,,,,,,,,,,,,,,,,,,,,
,,,,,,,,,,,,,,,,,199447,18,2022-01-25_21h29.09.153,lexical_decision_task_DD_L3,2021.2.3,MacIntel,60.0024001,,,,,,,,,,,0.8135,0,,,,,,,,,,,,,,z,0,0.8135,,,,,,,,0.034940476,-0.3921875,0,0,0,,0,139,139,129,1,PRANS,C,old,n,./images/PRANS.png,,,,,,,,,,,,,,,,,,,,,,,
,,,,,,,,,,,,,,,,,199447,18,2022-01-25_21h29.09.153,lexical_decision_task_DD_L3,2021.2.3,MacIntel,60.0024001,,,,,,,,,,,0.7429,0,,,,,,,,,,,,,,m,0,0.7429,,,,,,,,0.034940476,-0.3921875,0,0,0,,0,140,140,1,1,PLANK,C,old,y,./images/PLANK.png,,,,,,,,,,,,,,,,,,,,,,,
,,,,,,,,,,,,,,,,,199447,18,2022-01-25_21h29.09.153,lexical_decision_task_DD_L3,2021.2.3,MacIntel,60.0024001,,,,,,,,,,,0.6121,0,,,,,,,,,,,,,,m,0,0.6121,,,,,,,,0.034940476,-0.3921875,0,0,0,,0,141,141,45,1,KITTEN,LB,old,y,./images/KITTENLB.png,,,,,,,,,,,,,,,,,,,,,,,
,,,,,,,,,,,,,,,,,199447,18,2022-01-25_21h29.09.153,lexical_decision_task_DD_L3,2021.2.3,MacIntel,60.0024001,,,,,,,,,,,0.659,0,,,,,,,,,,,,,,m,0,0.659,,,,,,,,0.034940476,-0.3921875,0,0,0,,0,142,142,25,1,WRIST,C,old,y,./images/WRIST.png,,,,,,,,,,,,,,,,,,,,,,,
,,,,,,,,,,,,,,,,,199447,18,2022-01-25_21h29.09.153,lexical_decision_task_DD_L3,2021.2.3,MacIntel,60.0024001,,,,,,,,,,,1.2945,0,,,,,,,,,,,,,,m,0,1.2945,,,,,,,,0.034940476,-0.3921875,0,0,0,,0,143,143,11,1,BONNET,HB,old,y,./images/BONNETHB.png,,,,,,,,,,,,,,,,,,,,,,,
,,,,,,,,,,,,,,,,,199447,18,2022-01-25_21h29.09.153,lexical_decision_task_DD_L3,2021.2.3,MacIntel,60.0024001,,,,,,,,,,,0.726,0,,,,,,,,,,,,,,z,0,0.726,,,,,,,,0.034940476,-0.3921875,0,0,0,,0,144,144,99,1,BACKY,C,old,n,./images/BACKY.png,,,,,,,,,,,,,,,,,,,,,,,
,,,,,,,,,,,,,,,,,199447,18,2022-01-25_21h29.09.153,lexical_decision_task_DD_L3,2021.2.3,MacIntel,60.0024001,,,,,,,,,,,0.9675,0,,,,,,,,,,,,,,z,0,0.9675,,,,,,,,0.034940476,-0.3921875,0,0,0,,0,145,145,51,1,ONION,LB,old,y,./images/ONIONLB.png,,,,,,,,,,,,,,,,,,,,,,,
,,,,,,,,,,,,,,,,,199447,18,2022-01-25_21h29.09.153,lexical_decision_task_DD_L3,2021.2.3,MacIntel,60.0024001,,,,,,,,,,,1.2951,0,,,,,,,,,,,,,,z,0,1.2951,,,,,,,,0.034940476,-0.3921875,0,0,0,,0,146,146,111,1,HOSSE,C,old,n,./images/HOSSE.png,,,,,,,,,,,,,,,,,,,,,,,
,,,,,,,,,,,,,,,,,199447,18,2022-01-25_21h29.09.153,lexical_decision_task_DD_L3,2021.2.3,MacIntel,60.0024001,,,,,,,,,,,2.9136,0,,,,,,,,,,,,,,z,0,2.9136,,,,,,,,0.034940476,-0.3921875,0,0,0,,0,147,147,163,1,GAMBA,HB,old,n,./images/GAMBAHB.png,,,,,,,,,,,,,,,,,,,,,,,
,,,,,,,,,,,,,,,,,199447,18,2022-01-25_21h29.09.153,lexical_decision_task_DD_L3,2021.2.3,MacIntel,60.0024001,,,,,,,,,,,0.5428,0,,,,,,,,,,,,,,m,0,0.5428,,,,,,,,0.034940476,-0.3921875,0,0,0,,0,148,148,10,1,BELLY,C,old,y,./images/BELLY.png,,,,,,,,,,,,,,,,,,,,,,,
,,,,,,,,,,,,,,,,,199447,18,2022-01-25_21h29.09.153,lexical_decision_task_DD_L3,2021.2.3,MacIntel,60.0024001,,,,,,,,,,,0.6644,0,,,,,,,,,,,,,,z,0,0.6644,,,,,,,,0.034940476,-0.3921875,0,0,0,,0,149,149,165,1,TROWN,C,old,n,./images/TROWN.png,,,,,,,,,,,,,,,,,,,,,,,
,,,,,,,,,,,,,,,,,199447,18,2022-01-25_21h29.09.153,lexical_decision_task_DD_L3,2021.2.3,MacIntel,60.0024001,,,,,,,,,,,0.6345,0,,,,,,,,,,,,,,z,0,0.6345,,,,,,,,0.034940476,-0.3921875,0,0,0,,0,150,150,72,1,NOOSE,LB,old,y,./images/NOOSELB.png,,,,,,,,,,,,,,,,,,,,,,,
,,,,,,,,,,,,,,,,,199447,18,2022-01-25_21h29.09.153,lexical_decision_task_DD_L3,2021.2.3,MacIntel,60.0024001,,,,,,,,,,,0.7006,0,,,,,,,,,,,,,,z,0,0.7006,,,,,,,,0.034940476,-0.3921875,0,0,0,,0,151,151,126,1,GUELS,C,old,n,./images/GUELS.png,,,,,,,,,,,,,,,,,,,,,,,
,,,,,,,,,,,,,,,,,199447,18,2022-01-25_21h29.09.153,lexical_decision_task_DD_L3,2021.2.3,MacIntel,60.0024001,,,,,,,,,,,0.8656,0,,,,,,,,,,,,,,m,0,0.8656,,,,,,,,0.034940476,-0.3921875,0,0,0,,0,152,152,53,1,CARPET,HB,old,y,./images/CARPETHB.png,,,,,,,,,,,,,,,,,,,,,,,
,,,,,,,,,,,,,,,,,199447,18,2022-01-25_21h29.09.153,lexical_decision_task_DD_L3,2021.2.3,MacIntel,60.0024001,,,,,,,,,,,2.2308,0,,,,,,,,,,,,,,m,0,2.2308,,,,,,,,0.034940476,-0.3921875,0,0,0,,0,153,153,78,1,LITTER,LB,old,y,./images/LITTERLB.png,,,,,,,,,,,,,,,,,,,,,,,
,,,,,,,,,,,,,,,,,199447,18,2022-01-25_21h29.09.153,lexical_decision_task_DD_L3,2021.2.3,MacIntel,60.0024001,,,,,,,,,,,0.8091,0,,,,,,,,,,,,,,z,0,0.8091,,,,,,,,0.034940476,-0.3921875,0,0,0,,0,154,154,141,1,PLEET,C,old,n,./images/PLEET.png,,,,,,,,,,,,,,,,,,,,,,,
,,,,,,,,,,,,,,,,,199447,18,2022-01-25_21h29.09.153,lexical_decision_task_DD_L3,2021.2.3,MacIntel,60.0024001,,,,,,,,,,,0.7761,0,,,,,,,,,,,,,,m,0,0.7761,,,,,,,,0.034940476,-0.3921875,0,0,0,,0,155,155,58,1,BABOON,C,old,y,./images/BABOON.png,,,,,,,,,,,,,,,,,,,,,,,
,,,,,,,,,,,,,,,,,199447,18,2022-01-25_21h29.09.153,lexical_decision_task_DD_L3,2021.2.3,MacIntel,60.0024001,,,,,,,,,,,0.6999,0,,,,,,,,,,,,,,z,0,0.6999,,,,,,,,0.034940476,-0.3921875,0,0,0,,0,156,156,125,1,MOOKY,LB,old,n,./images/MOOKYLB.png,,,,,,,,,,,,,,,,,,,,,,,
,,,,,,,,,,,,,,,,,199447,18,2022-01-25_21h29.09.153,lexical_decision_task_DD_L3,2021.2.3,MacIntel,60.0024001,,,,,,,,,,,0.5591,0,,,,,,,,,,,,,,m,0,0.5591,,,,,,,,0.034940476,-0.3921875,0,0,0,,0,157,157,19,1,DOUGH,C,old,y,./images/DOUGH.png,,,,,,,,,,,,,,,,,,,,,,,
,,,,,,,,,,,,,,,,,199447,18,2022-01-25_21h29.09.153,lexical_decision_task_DD_L3,2021.2.3,MacIntel,60.0024001,,,,,,,,,,,0.8772,0,,,,,,,,,,,,,,z,0,0.8772,,,,,,,,0.034940476,-0.3921875,0,0,0,,0,158,158,116,1,BALGY,LB,old,n,./images/BALGYLB.png,,,,,,,,,,,,,,,,,,,,,,,
,,,,,,,,,,,,,,,,,199447,18,2022-01-25_21h29.09.153,lexical_decision_task_DD_L3,2021.2.3,MacIntel,60.0024001,,,,,,,,,,,0.7301,0,,,,,,,,,,,,,,m,0,0.7301,,,,,,,,0.034940476,-0.3921875,0,0,0,,0,159,159,75,1,GRAIN,LB,old,y,./images/GRAINLB.png,,,,,,,,,,,,,,,,,,,,,,,
,,,,,,,,,,,,,,,,,199447,18,2022-01-25_21h29.09.153,lexical_decision_task_DD_L3,2021.2.3,MacIntel,60.0024001,,,,,,,,,,,0.8289,0,,,,,,,,,,,,,,z,0,0.8289,,,,,,,,0.034940476,-0.3921875,0,0,0,,0,160,160,96,1,KEAMS,C,old,n,./images/KEAMS.png,,,,,,,,,,,,,,,,,,,,,,,
,,,,,,,,,,,,,,,,,199447,18,2022-01-25_21h29.09.153,lexical_decision_task_DD_L3,2021.2.3,MacIntel,60.0024001,,,,,,,,,,,0.8992,0,,,,,,,,,,,,,,m,0,0.8992,,,,,,,,0.034940476,-0.3921875,0,0,0,,0,161,161,54,1,TRIPOD,LB,old,y,./images/TRIPODLB.png,,,,,,,,,,,,,,,,,,,,,,,
,,,,,,,,,,,,,,,,,199447,18,2022-01-25_21h29.09.153,lexical_decision_task_DD_L3,2021.2.3,MacIntel,60.0024001,,,,,,,,,,,0.7684,0,,,,,,,,,,,,,,m,0,0.7684,,,,,,,,0.034940476,-0.3921875,0,0,0,,0,162,162,29,1,CRUMB,HB,old,y,./images/CRUMBHB.png,,,,,,,,,,,,,,,,,,,,,,,
,,,,,,,,,,,,,,,,,199447,18,2022-01-25_21h29.09.153,lexical_decision_task_DD_L3,2021.2.3,MacIntel,60.0024001,,,,,,,,,,,0.6258,0,,,,,,,,,,,,,,z,0,0.6258,,,,,,,,0.034940476,-0.3921875,0,0,0,,0,163,163,153,1,CLUPS,C,old,n,./images/CLUPS.png,,,,,,,,,,,,,,,,,,,,,,,
,,,,,,,,,,,,,,,,,199447,18,2022-01-25_21h29.09.153,lexical_decision_task_DD_L3,2021.2.3,MacIntel,60.0024001,,,,,,,,,,,0.6305,0,,,,,,,,,,,,,,m,0,0.6305,,,,,,,,0.034940476,-0.3921875,0,0,0,,0,164,164,3,1,FINGER,LB,old,y,./images/FINGERLB.png,,,,,,,,,,,,,,,,,,,,,,,
,,,,,,,,,,,,,,,,,199447,18,2022-01-25_21h29.09.153,lexical_decision_task_DD_L3,2021.2.3,MacIntel,60.0024001,,,,,,,,,,,1.0605,0,,,,,,,,,,,,,,m,0,1.0605,,,,,,,,0.034940476,-0.3921875,0,0,0,,0,165,165,80,1,WEASEL,HB,old,y,./images/WEASELHB.png,,,,,,,,,,,,,,,,,,,,,,,
,,,,,,,,,,,,,,,,,199447,18,2022-01-25_21h29.09.153,lexical_decision_task_DD_L3,2021.2.3,MacIntel,60.0024001,,,,,,,,,,,2.1692,0,,,,,,,,,,,,,,z,0,2.1692,,,,,,,,0.034940476,-0.3921875,0,0,0,,0,166,166,109,1,BURGE,HB,old,n,./images/BURGEHB.png,,,,,,,,,,,,,,,,,,,,,,,
,,,,,,,,,,,,,,,,,199447,18,2022-01-25_21h29.09.153,lexical_decision_task_DD_L3,2021.2.3,MacIntel,60.0024001,,,,,,,,,,,2.0591,0,,,,,,,,,,,,,,m,0,2.0591,,,,,,,,0.034940476,-0.3921875,0,0,0,,0,167,167,67,1,SAILOR,C,old,y,./images/SAILOR.png,,,,,,,,,,,,,,,,,,,,,,,
,0.050591518,-0.395208333,1,0,0,instr_done_button,,,,,,1,test,"In the next phase you will be presented with the words from the the first phase. Your job is to decide whether you remember seeing the word or not. If you remember seeing the word press ""old"" or type ""m"". If you do not remember seeing the word press ""new"" or type ""z"". Please press the space bar or click on continue to begin. ",,,199447,18,2022-01-25_21h29.09.153,lexical_decision_task_DD_L3,2021.2.3,MacIntel,60.0024001,,,,,,,,,,,,,,,,,,,,,,,,,,,,,,,,,,,,,,,,,,,,,,,,,,,,,,0,0,0,0,1,,,,,,,,,,,,,,,,
,0.009572173,-0.406938244,1,0,0,instr_done_button,,,,,,1,test,"In the next phase you will be presented with the words from the the first phase. Your job is to decide whether you remember seeing the word or not. If you remember seeing the word press ""old"" or type ""m"". If you do not remember seeing the word press ""new"" or type ""z"". Please press the space bar or click on continue to begin. ",,,199447,18,2022-01-25_21h29.09.153,lexical_decision_task_DD_L3,2021.2.3,MacIntel,60.0024001,,,,,,,,,,,,,,,,,,,,,,,,,,,,,,,,,,,,,,,,,,,,,,,,,,,,,,1,0,1,0,1,,,,,,,,,,,,,,,,
,0.031488095,-0.388084077,1,0,0,instr_done_button,,,,,,1,test,"In the next phase you will be presented with the words from the the first phase. Your job is to decide whether you remember seeing the word or not. If you remember seeing the word press ""old"" or type ""m"". If you do not remember seeing the word press ""new"" or type ""z"". Please press the space bar or click on continue to begin. ",,,199447,18,2022-01-25_21h29.09.153,lexical_decision_task_DD_L3,2021.2.3,MacIntel,60.0024001,,,,,,,,,,,,,,,,,,,,,,,,,,,,,,,,,,,,,,,,,,,,,,,,,,,,,,2,0,2,0,1,,,,,,,,,,,,,,,,
space,0.031488095,-0.388084077,0,0,0,,,,,,,1,test,"In the next phase you will be presented with the words from the the first phase. Your job is to decide whether you remember seeing the word or not. If you remember seeing the word press ""old"" or type ""m"". If you do not remember seeing the word press ""new"" or type ""z"". Please press the space bar or click on continue to begin. ",,,199447,18,2022-01-25_21h29.09.153,lexical_decision_task_DD_L3,2021.2.3,MacIntel,60.0024001,,,,,,,,,,,,,,,,,,,,,,,,,,,,,,,,,,,,,,,,,,,,,,,,,,,,,,3,0,3,0,1,0.8844,,,,,,,,,,,,,,,
,0.161023065,-0.388809524,1,0,0,instr_done_button,,,,,,1,test,"In the next phase you will be presented with the words from the the first phase. Your job is to decide whether you remember seeing the word or not. If you remember seeing the word press ""old"" or type ""m"". If you do not remember seeing the word press ""new"" or type ""z"". Please press the space bar or click on continue to begin. ",,,199447,18,2022-01-25_21h29.09.153,lexical_decision_task_DD_L3,2021.2.3,MacIntel,60.0024001,,,,,,,,,,,,,,,,,,,,,,,,,,,,,,,,,,,,,,,,,,,,,,,,,,,,,,4,0,4,0,1,,,,,,,,,,,,,,,,
,,,,,,,,,,,,,,,,,199447,18,2022-01-25_21h29.09.153,lexical_decision_task_DD_L3,2021.2.3,MacIntel,60.0024001,,,,,,,,,,,5.8454,0,,,,,,,,,,,,,,,,,,,,,,,,0.066577381,-0.410718006,0,0,0,,,,,,,BLOKE,LB,new,y,./images/BLOKELB.png,,,,,,,,,z,0,5.8454,,,,,,,,0,0,0,96,1
,,,,,,,,,,,,,,,,,199447,18,2022-01-25_21h29.09.153,lexical_decision_task_DD_L3,2021.2.3,MacIntel,60.0024001,,,,,,,,,,,1.4979,0,,,,,,,,,,,,,,,,,,,,,,,,0.066577381,-0.410718006,0,0,0,,,,,,,CANYON,C,old,y,./images/CANYON.png,,,,,,,,,m,0,1.4979,,,,,,,,0,1,1,34,1
,,,,,,,,,,,,,,,,,199447,18,2022-01-25_21h29.09.153,lexical_decision_task_DD_L3,2021.2.3,MacIntel,60.0024001,,,,,,,,,,,0.8179,0,,,,,,,,,,,,,,,,,,,,,,,,0.066577381,-0.410718006,0,0,0,,,,,,,DRUMS,C,old,y,./images/DRUMS.png,,,,,,,,,m,0,0.8179,,,,,,,,0,2,2,49,1
,,,,,,,,,,,,,,,,,199447,18,2022-01-25_21h29.09.153,lexical_decision_task_DD_L3,2021.2.3,MacIntel,60.0024001,,,,,,,,,,,0.7812,0,,,,,,,,,,,,,,,,,,,,,,,,0.066577381,-0.410718006,0,0,0,,,,,,,MUFFIN,C,old,y,./images/MUFFIN.png,,,,,,,,,m,0,0.7812,,,,,,,,0,3,3,55,1
,,,,,,,,,,,,,,,,,199447,18,2022-01-25_21h29.09.153,lexical_decision_task_DD_L3,2021.2.3,MacIntel,60.0024001,,,,,,,,,,,1.4969,0,,,,,,,,,,,,,,,,,,,,,,,,0.066577381,-0.410718006,0,0,0,,,,,,,RULER,C,new,y,./images/RULER.png,,,,,,,,,z,0,1.4969,,,,,,,,0,4,4,163,1
,,,,,,,,,,,,,,,,,199447,18,2022-01-25_21h29.09.153,lexical_decision_task_DD_L3,2021.2.3,MacIntel,60.0024001,,,,,,,,,,,0.7557,0,,,,,,,,,,,,,,,,,,,,,,,,0.066577381,-0.410718006,0,0,0,,,,,,,SUNSET,C,old,y,./images/SUNSET.png,,,,,,,,,m,0,0.7557,,,,,,,,0,5,5,82,1
,,,,,,,,,,,,,,,,,199447,18,2022-01-25_21h29.09.153,lexical_decision_task_DD_L3,2021.2.3,MacIntel,60.0024001,,,,,,,,,,,1.4141,0,,,,,,,,,,,,,,,,,,,,,,,,0.066577381,-0.410718006,0,0,0,,,,,,,FLESH,LB,new,y,./images/FLESHLB.png,,,,,,,,,z,0,1.4141,,,,,,,,0,6,6,108,1
,,,,,,,,,,,,,,,,,199447,18,2022-01-25_21h29.09.153,lexical_decision_task_DD_L3,2021.2.3,MacIntel,60.0024001,,,,,,,,,,,1.2309,0,,,,,,,,,,,,,,,,,,,,,,,,0.066577381,-0.410718006,0,0,0,,,,,,,BROOM,LB,new,y,./images/BROOMLB.png,,,,,,,,,m,0,1.2309,,,,,,,,0,7,7,162,1
,,,,,,,,,,,,,,,,,199447,18,2022-01-25_21h29.09.153,lexical_decision_task_DD_L3,2021.2.3,MacIntel,60.0024001,,,,,,,,,,,0.7808,0,,,,,,,,,,,,,,,,,,,,,,,,0.066577381,-0.410718006,0,0,0,,,,,,,WAGON,C,new,y,./images/WAGON.png,,,,,,,,,m,0,0.7808,,,,,,,,0,8,8,91,1
,,,,,,,,,,,,,,,,,199447,18,2022-01-25_21h29.09.153,lexical_decision_task_DD_L3,2021.2.3,MacIntel,60.0024001,,,,,,,,,,,0.5802,0,,,,,,,,,,,,,,,,,,,,,,,,0.066577381,-0.410718006,0,0,0,,,,,,,SMOKER,HB,old,y,./images/SMOKERHB.png,,,,,,,,,m,0,0.5802,,,,,,,,0,9,9,26,1
,,,,,,,,,,,,,,,,,199447,18,2022-01-25_21h29.09.153,lexical_decision_task_DD_L3,2021.2.3,MacIntel,60.0024001,,,,,,,,,,,0.5836,0,,,,,,,,,,,,,,,,,,,,,,,,0.066577381,-0.410718006,0,0,0,,,,,,,ONION,LB,old,y,./images/ONIONLB.png,,,,,,,,,m,0,0.5836,,,,,,,,0,10,10,51,1
,,,,,,,,,,,,,,,,,199447,18,2022-01-25_21h29.09.153,lexical_decision_task_DD_L3,2021.2.3,MacIntel,60.0024001,,,,,,,,,,,0.5876,0,,,,,,,,,,,,,,,,,,,,,,,,0.066577381,-0.410718006,0,0,0,,,,,,,JELLY,C,old,y,./images/JELLY.png,,,,,,,,,m,0,0.5876,,,,,,,,0,11,11,64,1
,,,,,,,,,,,,,,,,,199447,18,2022-01-25_21h29.09.153,lexical_decision_task_DD_L3,2021.2.3,MacIntel,60.0024001,,,,,,,,,,,1.0471,0,,,,,,,,,,,,,,,,,,,,,,,,0.066577381,-0.410718006,0,0,0,,,,,,,PEARL,C,old,y,./images/PEARL.png,,,,,,,,,m,0,1.0471,,,,,,,,0,12,12,46,1
,,,,,,,,,,,,,,,,,199447,18,2022-01-25_21h29.09.153,lexical_decision_task_DD_L3,2021.2.3,MacIntel,60.0024001,,,,,,,,,,,0.6386,0,,,,,,,,,,,,,,,,,,,,,,,,0.066577381,-0.410718006,0,0,0,,,,,,,TORCH,HB,old,y,./images/TORCHHB.png,,,,,,,,,m,0,0.6386,,,,,,,,0,13,13,68,1
,,,,,,,,,,,,,,,,,199447,18,2022-01-25_21h29.09.153,lexical_decision_task_DD_L3,2021.2.3,MacIntel,60.0024001,,,,,,,,,,,1.0469,0,,,,,,,,,,,,,,,,,,,,,,,,0.066577381,-0.410718006,0,0,0,,,,,,,TOMATO,LB,old,y,./images/TOMATOLB.png,,,,,,,,,z,0,1.0469,,,,,,,,0,14,14,0,1
,,,,,,,,,,,,,,,,,199447,18,2022-01-25_21h29.09.153,lexical_decision_task_DD_L3,2021.2.3,MacIntel,60.0024001,,,,,,,,,,,0.9139,0,,,,,,,,,,,,,,,,,,,,,,,,0.066577381,-0.410718006,0,0,0,,,,,,,SCREW,LB,old,y,./images/SCREWLB.png,,,,,,,,,m,0,0.9139,,,,,,,,0,15,15,24,1
,,,,,,,,,,,,,,,,,199447,18,2022-01-25_21h29.09.153,lexical_decision_task_DD_L3,2021.2.3,MacIntel,60.0024001,,,,,,,,,,,0.6863,0,,,,,,,,,,,,,,,,,,,,,,,,0.066577381,-0.410718006,0,0,0,,,,,,,SAUNA,LB,new,y,./images/SAUNALB.png,,,,,,,,,z,0,0.6863,,,,,,,,0,16,16,117,1
,,,,,,,,,,,,,,,,,199447,18,2022-01-25_21h29.09.153,lexical_decision_task_DD_L3,2021.2.3,MacIntel,60.0024001,,,,,,,,,,,0.7828,0,,,,,,,,,,,,,,,,,,,,,,,,0.066577381,-0.410718006,0,0,0,,,,,,,SHELF,LB,old,y,./images/SHELFLB.png,,,,,,,,,m,0,0.7828,,,,,,,,0,17,17,39,1
,,,,,,,,,,,,,,,,,199447,18,2022-01-25_21h29.09.153,lexical_decision_task_DD_L3,2021.2.3,MacIntel,60.0024001,,,,,,,,,,,0.8,0,,,,,,,,,,,,,,,,,,,,,,,,0.066577381,-0.410718006,0,0,0,,,,,,,HEATER,HB,new,y,./images/HEATERHB.png,,,,,,,,,z,0,0.8,,,,,,,,0,18,18,140,1
,,,,,,,,,,,,,,,,,199447,18,2022-01-25_21h29.09.153,lexical_decision_task_DD_L3,2021.2.3,MacIntel,60.0024001,,,,,,,,,,,0.6803,0,,,,,,,,,,,,,,,,,,,,,,,,0.066577381,-0.410718006,0,0,0,,,,,,,STRING,HB,old,y,./images/STRINGHB.png,,,,,,,,,m,0,0.6803,,,,,,,,0,19,19,41,1
,,,,,,,,,,,,,,,,,199447,18,2022-01-25_21h29.09.153,lexical_decision_task_DD_L3,2021.2.3,MacIntel,60.0024001,,,,,,,,,,,0.7805,0,,,,,,,,,,,,,,,,,,,,,,,,0.066577381,-0.410718006,0,0,0,,,,,,,PARCEL,LB,new,y,./images/PARCELLB.png,,,,,,,,,z,0,0.7805,,,,,,,,0,20,20,102,1
,,,,,,,,,,,,,,,,,199447,18,2022-01-25_21h29.09.153,lexical_decision_task_DD_L3,2021.2.3,MacIntel,60.0024001,,,,,,,,,,,0.9806,0,,,,,,,,,,,,,,,,,,,,,,,,0.066577381,-0.410718006,0,0,0,,,,,,,WHISKY,HB,new,y,./images/WHISKYHB.png,,,,,,,,,z,0,0.9806,,,,,,,,0,21,21,167,1
,,,,,,,,,,,,,,,,,199447,18,2022-01-25_21h29.09.153,lexical_decision_task_DD_L3,2021.2.3,MacIntel,60.0024001,,,,,,,,,,,0.8307,0,,,,,,,,,,,,,,,,,,,,,,,,0.066577381,-0.410718006,0,0,0,,,,,,,BANANA,C,new,y,./images/BANANA.png,,,,,,,,,z,0,0.8307,,,,,,,,0,22,22,154,1
,,,,,,,,,,,,,,,,,199447,18,2022-01-25_21h29.09.153,lexical_decision_task_DD_L3,2021.2.3,MacIntel,60.0024001,,,,,,,,,,,0.6971,0,,,,,,,,,,,,,,,,,,,,,,,,0.066577381,-0.410718006,0,0,0,,,,,,,URINE,C,old,y,./images/URINE.png,,,,,,,,,m,0,0.6971,,,,,,,,0,23,23,70,1
,,,,,,,,,,,,,,,,,199447,18,2022-01-25_21h29.09.153,lexical_decision_task_DD_L3,2021.2.3,MacIntel,60.0024001,,,,,,,,,,,0.9042,0,,,,,,,,,,,,,,,,,,,,,,,,0.066577381,-0.410718006,0,0,0,,,,,,,STATUE,LB,new,y,./images/STATUELB.png,,,,,,,,,z,0,0.9042,,,,,,,,0,24,24,150,1
,,,,,,,,,,,,,,,,,199447,18,2022-01-25_21h29.09.153,lexical_decision_task_DD_L3,2021.2.3,MacIntel,60.0024001,,,,,,,,,,,1.0383,0,,,,,,,,,,,,,,,,,,,,,,,,0.066577381,-0.410718006,0,0,0,,,,,,,CANOE,C,new,y,./images/CANOE.png,,,,,,,,,z,0,1.0383,,,,,,,,0,25,25,142,1
,,,,,,,,,,,,,,,,,199447,18,2022-01-25_21h29.09.153,lexical_decision_task_DD_L3,2021.2.3,MacIntel,60.0024001,,,,,,,,,,,1.2141,0,,,,,,,,,,,,,,,,,,,,,,,,0.066577381,-0.410718006,0,0,0,,,,,,,PARADE,HB,new,y,./images/PARADEHB.png,,,,,,,,,z,0,1.2141,,,,,,,,0,26,26,101,1
,,,,,,,,,,,,,,,,,199447,18,2022-01-25_21h29.09.153,lexical_decision_task_DD_L3,2021.2.3,MacIntel,60.0024001,,,,,,,,,,,2.0327,0,,,,,,,,,,,,,,,,,,,,,,,,0.066577381,-0.410718006,0,0,0,,,,,,,MALLET,HB,old,y,./images/MALLETHB.png,,,,,,,,,m,0,2.0327,,,,,,,,0,27,27,50,1
,,,,,,,,,,,,,,,,,199447,18,2022-01-25_21h29.09.153,lexical_decision_task_DD_L3,2021.2.3,MacIntel,60.0024001,,,,,,,,,,,0.8205,0,,,,,,,,,,,,,,,,,,,,,,,,0.066577381,-0.410718006,0,0,0,,,,,,,ARROW,LB,new,y,./images/ARROWLB.png,,,,,,,,,z,0,0.8205,,,,,,,,0,28,28,153,1
,,,,,,,,,,,,,,,,,199447,18,2022-01-25_21h29.09.153,lexical_decision_task_DD_L3,2021.2.3,MacIntel,60.0024001,,,,,,,,,,,0.988,0,,,,,,,,,,,,,,,,,,,,,,,,0.066577381,-0.410718006,0,0,0,,,,,,,SPORT,LB,old,y,./images/SPORTLB.png,,,,,,,,,z,0,0.988,,,,,,,,0,29,29,48,1
,,,,,,,,,,,,,,,,,199447,18,2022-01-25_21h29.09.153,lexical_decision_task_DD_L3,2021.2.3,MacIntel,60.0024001,,,,,,,,,,,1.0167,0,,,,,,,,,,,,,,,,,,,,,,,,0.066577381,-0.410718006,0,0,0,,,,,,,SAUCE,LB,new,y,./images/SAUCELB.png,,,,,,,,,z,0,1.0167,,,,,,,,0,30,30,135,1
,,,,,,,,,,,,,,,,,199447,18,2022-01-25_21h29.09.153,lexical_decision_task_DD_L3,2021.2.3,MacIntel,60.0024001,,,,,,,,,,,0.6668,0,,,,,,,,,,,,,,,,,,,,,,,,0.066577381,-0.410718006,0,0,0,,,,,,,CARPET,HB,old,y,./images/CARPETHB.png,,,,,,,,,m,0,0.6668,,,,,,,,0,31,31,53,1
,,,,,,,,,,,,,,,,,199447,18,2022-01-25_21h29.09.153,lexical_decision_task_DD_L3,2021.2.3,MacIntel,60.0024001,,,,,,,,,,,1.22,0,,,,,,,,,,,,,,,,,,,,,,,,0.066577381,-0.410718006,0,0,0,,,,,,,STOOL,C,new,y,./images/STOOL.png,,,,,,,,,z,0,1.22,,,,,,,,0,32,32,127,1
,,,,,,,,,,,,,,,,,199447,18,2022-01-25_21h29.09.153,lexical_decision_task_DD_L3,2021.2.3,MacIntel,60.0024001,,,,,,,,,,,0.9304,0,,,,,,,,,,,,,,,,,,,,,,,,0.066577381,-0.410718006,0,0,0,,,,,,,PENCE,C,old,y,./images/PENCE.png,,,,,,,,,m,0,0.9304,,,,,,,,0,33,33,16,1
,,,,,,,,,,,,,,,,,199447,18,2022-01-25_21h29.09.153,lexical_decision_task_DD_L3,2021.2.3,MacIntel,60.0024001,,,,,,,,,,,1.4987,0,,,,,,,,,,,,,,,,,,,,,,,,0.066577381,-0.410718006,0,0,0,,,,,,,CLOUD,HB,new,y,./images/CLOUDHB.png,,,,,,,,,z,0,1.4987,,,,,,,,0,34,34,110,1
,,,,,,,,,,,,,,,,,199447,18,2022-01-25_21h29.09.153,lexical_decision_task_DD_L3,2021.2.3,MacIntel,60.0024001,,,,,,,,,,,0.9525,0,,,,,,,,,,,,,,,,,,,,,,,,0.066577381,-0.410718006,0,0,0,,,,,,,MAMMAL,HB,new,y,./images/MAMMALHB.png,,,,,,,,,z,0,0.9525,,,,,,,,0,35,35,146,1
,,,,,,,,,,,,,,,,,199447,18,2022-01-25_21h29.09.153,lexical_decision_task_DD_L3,2021.2.3,MacIntel,60.0024001,,,,,,,,,,,0.8361,0,,,,,,,,,,,,,,,,,,,,,,,,0.066577381,-0.410718006,0,0,0,,,,,,,JUNGLE,HB,old,y,./images/JUNGLEHB.png,,,,,,,,,m,0,0.8361,,,,,,,,0,36,36,83,1
,,,,,,,,,,,,,,,,,199447,18,2022-01-25_21h29.09.153,lexical_decision_task_DD_L3,2021.2.3,MacIntel,60.0024001,,,,,,,,,,,0.8055,0,,,,,,,,,,,,,,,,,,,,,,,,0.066577381,-0.410718006,0,0,0,,,,,,,PISTOL,HB,new,y,./images/PISTOLHB.png,,,,,,,,,z,0,0.8055,,,,,,,,0,37,37,113,1
,,,,,,,,,,,,,,,,,199447,18,2022-01-25_21h29.09.153,lexical_decision_task_DD_L3,2021.2.3,MacIntel,60.0024001,,,,,,,,,,,0.8137,0,,,,,,,,,,,,,,,,,,,,,,,,0.066577381,-0.410718006,0,0,0,,,,,,,BOXER,C,new,y,./images/BOXER.png,,,,,,,,,z,0,0.8137,,,,,,,,0,38,38,88,1
,,,,,,,,,,,,,,,,,199447,18,2022-01-25_21h29.09.153,lexical_decision_task_DD_L3,2021.2.3,MacIntel,60.0024001,,,,,,,,,,,0.6226,0,,,,,,,,,,,,,,,,,,,,,,,,0.066577381,-0.410718006,0,0,0,,,,,,,BERRY,HB,old,y,./images/BERRYHB.png,,,,,,,,,m,0,0.6226,,,,,,,,0,39,39,47,1
,,,,,,,,,,,,,,,,,199447,18,2022-01-25_21h29.09.153,lexical_decision_task_DD_L3,2021.2.3,MacIntel,60.0024001,,,,,,,,,,,0.5482,0,,,,,,,,,,,,,,,,,,,,,,,,0.066577381,-0.410718006,0,0,0,,,,,,,DOUGH,C,old,y,./images/DOUGH.png,,,,,,,,,m,0,0.5482,,,,,,,,0,40,40,19,1
,,,,,,,,,,,,,,,,,199447,18,2022-01-25_21h29.09.153,lexical_decision_task_DD_L3,2021.2.3,MacIntel,60.0024001,,,,,,,,,,,0.6215,0,,,,,,,,,,,,,,,,,,,,,,,,0.017533482,-0.383962054,1,0,0,,,,,,,SNAKE,C,new,y,./images/SNAKE.png,,break_done_button,,,,,,,m,0,0.6215,,,,,,,,0,41,41,124,1
,,,,,,,,,,,,,,,,,199447,18,2022-01-25_21h29.09.153,lexical_decision_task_DD_L3,2021.2.3,MacIntel,60.0024001,,,,,,,,,,,0.9165,0,,,,,,,,,,,,,,,,,,,,,,,,0.017533482,-0.383962054,0,0,0,,,,,,,LADDER,HB,old,y,./images/LADDERHB.png,,,,,,,,,m,0,0.9165,,,,,,,,0,42,42,38,1
,,,,,,,,,,,,,,,,,199447,18,2022-01-25_21h29.09.153,lexical_decision_task_DD_L3,2021.2.3,MacIntel,60.0024001,,,,,,,,,,,0.8836,0,,,,,,,,,,,,,,,,,,,,,,,,0.017533482,-0.383962054,0,0,0,,,,,,,ALLEY,C,new,y,./images/ALLEY.png,,,,,,,,,z,0,0.8836,,,,,,,,0,43,43,139,1
,,,,,,,,,,,,,,,,,199447,18,2022-01-25_21h29.09.153,lexical_decision_task_DD_L3,2021.2.3,MacIntel,60.0024001,,,,,,,,,,,0.9142,0,,,,,,,,,,,,,,,,,,,,,,,,0.017533482,-0.383962054,0,0,0,,,,,,,SWING,C,old,y,./images/SWING.png,,,,,,,,,m,0,0.9142,,,,,,,,0,44,44,40,1
,,,,,,,,,,,,,,,,,199447,18,2022-01-25_21h29.09.153,lexical_decision_task_DD_L3,2021.2.3,MacIntel,60.0024001,,,,,,,,,,,0.8529,0,,,,,,,,,,,,,,,,,,,,,,,,0.017533482,-0.383962054,0,0,0,,,,,,,BRUSH,HB,new,y,./images/BRUSHHB.png,,,,,,,,,z,0,0.8529,,,,,,,,0,45,45,143,1
,,,,,,,,,,,,,,,,,199447,18,2022-01-25_21h29.09.153,lexical_decision_task_DD_L3,2021.2.3,MacIntel,60.0024001,,,,,,,,,,,0.8384,0,,,,,,,,,,,,,,,,,,,,,,,,0.017533482,-0.383962054,0,0,0,,,,,,,PILOT,HB,new,y,./images/PILOTHB.png,,,,,,,,,z,0,0.8384,,,,,,,,0,46,46,134,1
,,,,,,,,,,,,,,,,,199447,18,2022-01-25_21h29.09.153,lexical_decision_task_DD_L3,2021.2.3,MacIntel,60.0024001,,,,,,,,,,,0.6675,0,,,,,,,,,,,,,,,,,,,,,,,,0.017533482,-0.383962054,0,0,0,,,,,,,PICKLE,HB,old,y,./images/PICKLEHB.png,,,,,,,,,m,0,0.6675,,,,,,,,0,47,47,14,1
,,,,,,,,,,,,,,,,,199447,18,2022-01-25_21h29.09.153,lexical_decision_task_DD_L3,2021.2.3,MacIntel,60.0024001,,,,,,,,,,,1.1678,0,,,,,,,,,,,,,,,,,,,,,,,,0.017533482,-0.383962054,0,0,0,,,,,,,BIRTH,C,old,y,./images/BIRTH.png,,,,,,,,,z,0,1.1678,,,,,,,,0,48,48,37,1
,,,,,,,,,,,,,,,,,199447,18,2022-01-25_21h29.09.153,lexical_decision_task_DD_L3,2021.2.3,MacIntel,60.0024001,,,,,,,,,,,0.9658,0,,,,,,,,,,,,,,,,,,,,,,,,0.017533482,-0.383962054,0,0,0,,,,,,,LITTER,LB,old,y,./images/LITTERLB.png,,,,,,,,,z,0,0.9658,,,,,,,,0,49,49,78,1
,,,,,,,,,,,,,,,,,199447,18,2022-01-25_21h29.09.153,lexical_decision_task_DD_L3,2021.2.3,MacIntel,60.0024001,,,,,,,,,,,0.9306,0,,,,,,,,,,,,,,,,,,,,,,,,0.017533482,-0.383962054,0,0,0,,,,,,,BUBBLE,HB,new,y,./images/BUBBLEHB.png,,,,,,,,,z,0,0.9306,,,,,,,,0,50,50,155,1
,,,,,,,,,,,,,,,,,199447,18,2022-01-25_21h29.09.153,lexical_decision_task_DD_L3,2021.2.3,MacIntel,60.0024001,,,,,,,,,,,0.7644,0,,,,,,,,,,,,,,,,,,,,,,,,0.017533482,-0.383962054,0,0,0,,,,,,,PLANET,HB,new,y,./images/PLANETHB.png,,,,,,,,,z,0,0.7644,,,,,,,,0,51,51,164,1
,,,,,,,,,,,,,,,,,199447,18,2022-01-25_21h29.09.153,lexical_decision_task_DD_L3,2021.2.3,MacIntel,60.0024001,,,,,,,,,,,0.7513,0,,,,,,,,,,,,,,,,,,,,,,,,0.017533482,-0.383962054,0,0,0,,,,,,,QUILL,C,old,y,./images/QUILL.png,,,,,,,,,m,0,0.7513,,,,,,,,0,52,52,31,1
,,,,,,,,,,,,,,,,,199447,18,2022-01-25_21h29.09.153,lexical_decision_task_DD_L3,2021.2.3,MacIntel,60.0024001,,,,,,,,,,,0.6312,0,,,,,,,,,,,,,,,,,,,,,,,,0.017533482,-0.383962054,0,0,0,,,,,,,KITTEN,LB,old,y,./images/KITTENLB.png,,,,,,,,,m,0,0.6312,,,,,,,,0,53,53,45,1
,,,,,,,,,,,,,,,,,199447,18,2022-01-25_21h29.09.153,lexical_decision_task_DD_L3,2021.2.3,MacIntel,60.0024001,,,,,,,,,,,0.5468,0,,,,,,,,,,,,,,,,,,,,,,,,0.017533482,-0.383962054,0,0,0,,,,,,,RHINO,LB,old,y,./images/RHINOLB.png,,,,,,,,,m,0,0.5468,,,,,,,,0,54,54,9,1
,,,,,,,,,,,,,,,,,199447,18,2022-01-25_21h29.09.153,lexical_decision_task_DD_L3,2021.2.3,MacIntel,60.0024001,,,,,,,,,,,1.1669,0,,,,,,,,,,,,,,,,,,,,,,,,0.017533482,-0.383962054,0,0,0,,,,,,,BEARD,HB,old,y,./images/BEARDHB.png,,,,,,,,,z,0,1.1669,,,,,,,,0,55,55,2,1
,,,,,,,,,,,,,,,,,199447,18,2022-01-25_21h29.09.153,lexical_decision_task_DD_L3,2021.2.3,MacIntel,60.0024001,,,,,,,,,,,0.635,0,,,,,,,,,,,,,,,,,,,,,,,,0.017533482,-0.383962054,0,0,0,,,,,,,BARREL,HB,old,y,./images/BARRELHB.png,,,,,,,,,m,0,0.635,,,,,,,,0,56,56,32,1
,,,,,,,,,,,,,,,,,199447,18,2022-01-25_21h29.09.153,lexical_decision_task_DD_L3,2021.2.3,MacIntel,60.0024001,,,,,,,,,,,0.7329,0,,,,,,,,,,,,,,,,,,,,,,,,0.017533482,-0.383962054,0,0,0,,,,,,,MAGGOT,LB,old,y,./images/MAGGOTLB.png,,,,,,,,,m,0,0.7329,,,,,,,,0,57,57,33,1
,,,,,,,,,,,,,,,,,199447,18,2022-01-25_21h29.09.153,lexical_decision_task_DD_L3,2021.2.3,MacIntel,60.0024001,,,,,,,,,,,0.6332,0,,,,,,,,,,,,,,,,,,,,,,,,0.017533482,-0.383962054,0,0,0,,,,,,,SNACK,C,old,y,./images/SNACK.png,,,,,,,,,m,0,0.6332,,,,,,,,0,58,58,73,1
,,,,,,,,,,,,,,,,,199447,18,2022-01-25_21h29.09.153,lexical_decision_task_DD_L3,2021.2.3,MacIntel,60.0024001,,,,,,,,,,,0.597,0,,,,,,,,,,,,,,,,,,,,,,,,0.017533482,-0.383962054,0,0,0,,,,,,,KIDNEY,LB,old,y,./images/KIDNEYLB.png,,,,,,,,,m,0,0.597,,,,,,,,0,59,59,21,1
,,,,,,,,,,,,,,,,,199447,18,2022-01-25_21h29.09.153,lexical_decision_task_DD_L3,2021.2.3,MacIntel,60.0024001,,,,,,,,,,,0.5809,0,,,,,,,,,,,,,,,,,,,,,,,,0.017533482,-0.383962054,0,0,0,,,,,,,CRUMB,HB,old,y,./images/CRUMBHB.png,,,,,,,,,m,0,0.5809,,,,,,,,0,60,60,29,1
,,,,,,,,,,,,,,,,,199447,18,2022-01-25_21h29.09.153,lexical_decision_task_DD_L3,2021.2.3,MacIntel,60.0024001,,,,,,,,,,,0.8355,0,,,,,,,,,,,,,,,,,,,,,,,,0.017533482,-0.383962054,0,0,0,,,,,,,BOILER,LB,new,y,./images/BOILERLB.png,,,,,,,,,z,0,0.8355,,,,,,,,0,61,61,120,1
,,,,,,,,,,,,,,,,,199447,18,2022-01-25_21h29.09.153,lexical_decision_task_DD_L3,2021.2.3,MacIntel,60.0024001,,,,,,,,,,,0.7798,0,,,,,,,,,,,,,,,,,,,,,,,,0.017533482,-0.383962054,0,0,0,,,,,,,WHEEL,HB,new,y,./images/WHEELHB.png,,,,,,,,,z,0,0.7798,,,,,,,,0,62,62,161,1
,,,,,,,,,,,,,,,,,199447,18,2022-01-25_21h29.09.153,lexical_decision_task_DD_L3,2021.2.3,MacIntel,60.0024001,,,,,,,,,,,1.1144,0,,,,,,,,,,,,,,,,,,,,,,,,0.017533482,-0.383962054,0,0,0,,,,,,,FLASK,LB,new,y,./images/FLASKLB.png,,,,,,,,,z,0,1.1144,,,,,,,,0,63,63,156,1
,,,,,,,,,,,,,,,,,199447,18,2022-01-25_21h29.09.153,lexical_decision_task_DD_L3,2021.2.3,MacIntel,60.0024001,,,,,,,,,,,0.7812,0,,,,,,,,,,,,,,,,,,,,,,,,0.017533482,-0.383962054,0,0,0,,,,,,,MUMMY,C,new,y,./images/MUMMY.png,,,,,,,,,z,0,0.7812,,,,,,,,0,64,64,130,1
,,,,,,,,,,,,,,,,,199447,18,2022-01-25_21h29.09.153,lexical_decision_task_DD_L3,2021.2.3,MacIntel,60.0024001,,,,,,,,,,,0.6969,0,,,,,,,,,,,,,,,,,,,,,,,,0.017533482,-0.383962054,0,0,0,,,,,,,SAILOR,C,old,y,./images/SAILOR.png,,,,,,,,,m,0,0.6969,,,,,,,,0,65,65,67,1
,,,,,,,,,,,,,,,,,199447,18,2022-01-25_21h29.09.153,lexical_decision_task_DD_L3,2021.2.3,MacIntel,60.0024001,,,,,,,,,,,0.8006,0,,,,,,,,,,,,,,,,,,,,,,,,0.017533482,-0.383962054,0,0,0,,,,,,,CANDLE,C,old,y,./images/CANDLE.png,,,,,,,,,m,0,0.8006,,,,,,,,0,66,66,61,1
,,,,,,,,,,,,,,,,,199447,18,2022-01-25_21h29.09.153,lexical_decision_task_DD_L3,2021.2.3,MacIntel,60.0024001,,,,,,,,,,,0.8303,0,,,,,,,,,,,,,,,,,,,,,,,,0.017533482,-0.383962054,0,0,0,,,,,,,TWINS,LB,old,y,./images/TWINSLB.png,,,,,,,,,m,0,0.8303,,,,,,,,0,67,67,60,1
,,,,,,,,,,,,,,,,,199447,18,2022-01-25_21h29.09.153,lexical_decision_task_DD_L3,2021.2.3,MacIntel,60.0024001,,,,,,,,,,,0.8475,0,,,,,,,,,,,,,,,,,,,,,,,,0.017533482,-0.383962054,0,0,0,,,,,,,RAZOR,C,new,y,./images/RAZOR.png,,,,,,,,,z,0,0.8475,,,,,,,,0,68,68,118,1
,,,,,,,,,,,,,,,,,199447,18,2022-01-25_21h29.09.153,lexical_decision_task_DD_L3,2021.2.3,MacIntel,60.0024001,,,,,,,,,,,0.8809,0,,,,,,,,,,,,,,,,,,,,,,,,0.017533482,-0.383962054,0,0,0,,,,,,,CRADLE,HB,old,y,./images/CRADLEHB.png,,,,,,,,,m,0,0.8809,,,,,,,,0,69,69,20,1
,,,,,,,,,,,,,,,,,199447,18,2022-01-25_21h29.09.153,lexical_decision_task_DD_L3,2021.2.3,MacIntel,60.0024001,,,,,,,,,,,0.6999,0,,,,,,,,,,,,,,,,,,,,,,,,0.017533482,-0.383962054,0,0,0,,,,,,,FARMER,HB,old,y,./images/FARMERHB.png,,,,,,,,,m,0,0.6999,,,,,,,,0,70,70,65,1
,,,,,,,,,,,,,,,,,199447,18,2022-01-25_21h29.09.153,lexical_decision_task_DD_L3,2021.2.3,MacIntel,60.0024001,,,,,,,,,,,0.634,0,,,,,,,,,,,,,,,,,,,,,,,,0.017533482,-0.383962054,0,0,0,,,,,,,PURSE,HB,old,y,./images/PURSEHB.png,,,,,,,,,m,0,0.634,,,,,,,,0,71,71,62,1
,,,,,,,,,,,,,,,,,199447,18,2022-01-25_21h29.09.153,lexical_decision_task_DD_L3,2021.2.3,MacIntel,60.0024001,,,,,,,,,,,0.6305,0,,,,,,,,,,,,,,,,,,,,,,,,0.017533482,-0.383962054,0,0,0,,,,,,,FALCON,C,old,y,./images/FALCON.png,,,,,,,,,m,0,0.6305,,,,,,,,0,72,72,28,1
,,,,,,,,,,,,,,,,,199447,18,2022-01-25_21h29.09.153,lexical_decision_task_DD_L3,2021.2.3,MacIntel,60.0024001,,,,,,,,,,,0.685,0,,,,,,,,,,,,,,,,,,,,,,,,0.017533482,-0.383962054,0,0,0,,,,,,,SQUARE,LB,old,y,./images/SQUARELB.png,,,,,,,,,m,0,0.685,,,,,,,,0,73,73,6,1
,,,,,,,,,,,,,,,,,199447,18,2022-01-25_21h29.09.153,lexical_decision_task_DD_L3,2021.2.3,MacIntel,60.0024001,,,,,,,,,,,1.3703,0,,,,,,,,,,,,,,,,,,,,,,,,0.017533482,-0.383962054,0,0,0,,,,,,,FENCE,HB,new,y,./images/FENCEHB.png,,,,,,,,,m,0,1.3703,,,,,,,,0,74,74,98,1
,,,,,,,,,,,,,,,,,199447,18,2022-01-25_21h29.09.153,lexical_decision_task_DD_L3,2021.2.3,MacIntel,60.0024001,,,,,,,,,,,0.6877,0,,,,,,,,,,,,,,,,,,,,,,,,0.017533482,-0.383962054,0,0,0,,,,,,,BUNNY,C,new,y,./images/BUNNY.png,,,,,,,,,z,0,0.6877,,,,,,,,0,75,75,97,1
,,,,,,,,,,,,,,,,,199447,18,2022-01-25_21h29.09.153,lexical_decision_task_DD_L3,2021.2.3,MacIntel,60.0024001,,,,,,,,,,,0.6809,0,,,,,,,,,,,,,,,,,,,,,,,,0.017533482,-0.383962054,0,0,0,,,,,,,JAGUAR,LB,old,y,./images/JAGUARLB.png,,,,,,,,,m,0,0.6809,,,,,,,,0,76,76,18,1
,,,,,,,,,,,,,,,,,199447,18,2022-01-25_21h29.09.153,lexical_decision_task_DD_L3,2021.2.3,MacIntel,60.0024001,,,,,,,,,,,1.0974,0,,,,,,,,,,,,,,,,,,,,,,,,0.017533482,-0.383962054,0,0,0,,,,,,,GRAPE,C,new,y,./images/GRAPE.png,,,,,,,,,z,0,1.0974,,,,,,,,0,77,77,100,1
,,,,,,,,,,,,,,,,,199447,18,2022-01-25_21h29.09.153,lexical_decision_task_DD_L3,2021.2.3,MacIntel,60.0024001,,,,,,,,,,,0.7526,0,,,,,,,,,,,,,,,,,,,,,,,,0.017533482,-0.383962054,0,0,0,,,,,,,TIGER,C,new,y,./images/TIGER.png,,,,,,,,,z,0,0.7526,,,,,,,,0,78,78,121,1
,,,,,,,,,,,,,,,,,199447,18,2022-01-25_21h29.09.153,lexical_decision_task_DD_L3,2021.2.3,MacIntel,60.0024001,,,,,,,,,,,0.816,0,,,,,,,,,,,,,,,,,,,,,,,,0.017533482,-0.383962054,0,0,0,,,,,,,CURRY,LB,new,y,./images/CURRYLB.png,,,,,,,,,z,0,0.816,,,,,,,,0,79,79,144,1
,,,,,,,,,,,,,,,,,199447,18,2022-01-25_21h29.09.153,lexical_decision_task_DD_L3,2021.2.3,MacIntel,60.0024001,,,,,,,,,,,0.797,0,,,,,,,,,,,,,,,,,,,,,,,,0.017533482,-0.383962054,0,0,0,,,,,,,HAMMER,LB,new,y,./images/HAMMERLB.png,,,,,,,,,m,0,0.797,,,,,,,,0,80,80,159,1
,,,,,,,,,,,,,,,,,199447,18,2022-01-25_21h29.09.153,lexical_decision_task_DD_L3,2021.2.3,MacIntel,60.0024001,,,,,,,,,,,0.6521,0,,,,,,,,,,,,,,,,,,,,,,,,0.017533482,-0.383962054,0,0,0,,,,,,,WRIST,C,old,y,./images/WRIST.png,,,,,,,,,z,0,0.6521,,,,,,,,0,81,81,25,1
,,,,,,,,,,,,,,,,,199447,18,2022-01-25_21h29.09.153,lexical_decision_task_DD_L3,2021.2.3,MacIntel,60.0024001,,,,,,,,,,,1.3468,0,,,,,,,,,,,,,,,,,,,,,,,,0.017533482,-0.383962054,0,0,0,,,,,,,ARTIST,C,new,y,./images/ARTIST.png,,,,,,,,,z,0,1.3468,,,,,,,,0,82,82,145,1
,,,,,,,,,,,,,,,,,199447,18,2022-01-25_21h29.09.153,lexical_decision_task_DD_L3,2021.2.3,MacIntel,60.0024001,,,,,,,,,,,1.0851,0,,,,,,,,,,,,,,,,,,,,,,,,0.017533482,-0.383962054,0,0,0,space,,,,,,COUCH,HB,old,y,./images/COUCHHB.png,2.5338,,,,,,,,m,0,1.0851,,,,,,,,0,83,83,77,1
,,,,,,,,,,,,,,,,,199447,18,2022-01-25_21h29.09.153,lexical_decision_task_DD_L3,2021.2.3,MacIntel,60.0024001,,,,,,,,,,,0.8638,0,,,,,,,,,,,,,,,,,,,,,,,,0.017533482,-0.383962054,0,0,0,,,,,,,CLIFF,HB,new,y,./images/CLIFFHB.png,,,,,,,,,m,0,0.8638,,,,,,,,0,84,84,92,1
,,,,,,,,,,,,,,,,,199447,18,2022-01-25_21h29.09.153,lexical_decision_task_DD_L3,2021.2.3,MacIntel,60.0024001,,,,,,,,,,,1.3997,0,,,,,,,,,,,,,,,,,,,,,,,,0.017533482,-0.383962054,0,0,0,,,,,,,MIDGET,C,new,y,./images/MIDGET.png,,,,,,,,,m,0,1.3997,,,,,,,,0,85,85,160,1
,,,,,,,,,,,,,,,,,199447,18,2022-01-25_21h29.09.153,lexical_decision_task_DD_L3,2021.2.3,MacIntel,60.0024001,,,,,,,,,,,0.7,0,,,,,,,,,,,,,,,,,,,,,,,,0.017533482,-0.383962054,0,0,0,,,,,,,DONKEY,C,new,y,./images/DONKEY.png,,,,,,,,,z,0,0.7,,,,,,,,0,86,86,103,1
,,,,,,,,,,,,,,,,,199447,18,2022-01-25_21h29.09.153,lexical_decision_task_DD_L3,2021.2.3,MacIntel,60.0024001,,,,,,,,,,,0.7136,0,,,,,,,,,,,,,,,,,,,,,,,,0.017533482,-0.383962054,0,0,0,,,,,,,BONNET,HB,old,y,./images/BONNETHB.png,,,,,,,,,m,0,0.7136,,,,,,,,0,87,87,11,1
,,,,,,,,,,,,,,,,,199447,18,2022-01-25_21h29.09.153,lexical_decision_task_DD_L3,2021.2.3,MacIntel,60.0024001,,,,,,,,,,,0.732,0,,,,,,,,,,,,,,,,,,,,,,,,0.017533482,-0.383962054,0,0,0,,,,,,,BISHOP,C,new,y,./images/BISHOP.png,,,,,,,,,z,0,0.732,,,,,,,,0,88,88,133,1
,,,,,,,,,,,,,,,,,199447,18,2022-01-25_21h29.09.153,lexical_decision_task_DD_L3,2021.2.3,MacIntel,60.0024001,,,,,,,,,,,0.6139,0,,,,,,,,,,,,,,,,,,,,,,,,0.017533482,-0.383962054,0,0,0,,,,,,,FINGER,LB,old,y,./images/FINGERLB.png,,,,,,,,,m,0,0.6139,,,,,,,,0,89,89,3,1
,,,,,,,,,,,,,,,,,199447,18,2022-01-25_21h29.09.153,lexical_decision_task_DD_L3,2021.2.3,MacIntel,60.0024001,,,,,,,,,,,0.8478,0,,,,,,,,,,,,,,,,,,,,,,,,0.017533482,-0.383962054,0,0,0,,,,,,,ENGINE,HB,new,y,./images/ENGINEHB.png,,,,,,,,,z,0,0.8478,,,,,,,,0,90,90,122,1
,,,,,,,,,,,,,,,,,199447,18,2022-01-25_21h29.09.153,lexical_decision_task_DD_L3,2021.2.3,MacIntel,60.0024001,,,,,,,,,,,0.9721,0,,,,,,,,,,,,,,,,,,,,,,,,0.017533482,-0.383962054,0,0,0,,,,,,,SHIELD,LB,new,y,./images/SHIELDLB.png,,,,,,,,,m,0,0.9721,,,,,,,,0,91,91,132,1
,,,,,,,,,,,,,,,,,199447,18,2022-01-25_21h29.09.153,lexical_decision_task_DD_L3,2021.2.3,MacIntel,60.0024001,,,,,,,,,,,0.8473,0,,,,,,,,,,,,,,,,,,,,,,,,0.017533482,-0.383962054,0,0,0,,,,,,,MEDAL,HB,new,y,./images/MEDALHB.png,,,,,,,,,z,0,0.8473,,,,,,,,0,92,92,95,1
,,,,,,,,,,,,,,,,,199447,18,2022-01-25_21h29.09.153,lexical_decision_task_DD_L3,2021.2.3,MacIntel,60.0024001,,,,,,,,,,,0.7165,0,,,,,,,,,,,,,,,,,,,,,,,,0.017533482,-0.383962054,0,0,0,,,,,,,POKER,C,new,y,./images/POKER.png,,,,,,,,,z,0,0.7165,,,,,,,,0,93,93,151,1
,,,,,,,,,,,,,,,,,199447,18,2022-01-25_21h29.09.153,lexical_decision_task_DD_L3,2021.2.3,MacIntel,60.0024001,,,,,,,,,,,0.6974,0,,,,,,,,,,,,,,,,,,,,,,,,0.017533482,-0.383962054,0,0,0,,,,,,,PAINT,C,old,y,./images/PAINT.png,,,,,,,,,m,0,0.6974,,,,,,,,0,94,94,7,1
,,,,,,,,,,,,,,,,,199447,18,2022-01-25_21h29.09.153,lexical_decision_task_DD_L3,2021.2.3,MacIntel,60.0024001,,,,,,,,,,,0.7828,0,,,,,,,,,,,,,,,,,,,,,,,,0.017533482,-0.383962054,0,0,0,,,,,,,INFANT,C,old,y,./images/INFANT.png,,,,,,,,,z,0,0.7828,,,,,,,,0,95,95,76,1
,,,,,,,,,,,,,,,,,199447,18,2022-01-25_21h29.09.153,lexical_decision_task_DD_L3,2021.2.3,MacIntel,60.0024001,,,,,,,,,,,0.6168,0,,,,,,,,,,,,,,,,,,,,,,,,0.017533482,-0.383962054,0,0,0,,,,,,,GREASE,LB,old,y,./images/GREASELB.png,,,,,,,,,m,0,0.6168,,,,,,,,0,96,96,15,1
,,,,,,,,,,,,,,,,,199447,18,2022-01-25_21h29.09.153,lexical_decision_task_DD_L3,2021.2.3,MacIntel,60.0024001,,,,,,,,,,,1.5971,0,,,,,,,,,,,,,,,,,,,,,,,,0.017533482,-0.383962054,0,0,0,,,,,,,MOSQUE,C,old,y,./images/MOSQUE.png,,,,,,,,,z,0,1.5971,,,,,,,,0,97,97,43,1
,,,,,,,,,,,,,,,,,199447,18,2022-01-25_21h29.09.153,lexical_decision_task_DD_L3,2021.2.3,MacIntel,60.0024001,,,,,,,,,,,0.6346,0,,,,,,,,,,,,,,,,,,,,,,,,0.017533482,-0.383962054,0,0,0,,,,,,,BABOON,C,old,y,./images/BABOON.png,,,,,,,,,m,0,0.6346,,,,,,,,0,98,98,58,1
,,,,,,,,,,,,,,,,,199447,18,2022-01-25_21h29.09.153,lexical_decision_task_DD_L3,2021.2.3,MacIntel,60.0024001,,,,,,,,,,,0.5543,0,,,,,,,,,,,,,,,,,,,,,,,,0.017533482,-0.383962054,0,0,0,,,,,,,TRIPOD,LB,old,y,./images/TRIPODLB.png,,,,,,,,,m,0,0.5543,,,,,,,,0,99,99,54,1
,,,,,,,,,,,,,,,,,199447,18,2022-01-25_21h29.09.153,lexical_decision_task_DD_L3,2021.2.3,MacIntel,60.0024001,,,,,,,,,,,0.8517,0,,,,,,,,,,,,,,,,,,,,,,,,0.017533482,-0.383962054,0,0,0,,,,,,,FERRY,LB,new,y,./images/FERRYLB.png,,,,,,,,,z,0,0.8517,,,,,,,,0,100,100,141,1
,,,,,,,,,,,,,,,,,199447,18,2022-01-25_21h29.09.153,lexical_decision_task_DD_L3,2021.2.3,MacIntel,60.0024001,,,,,,,,,,,0.8305,0,,,,,,,,,,,,,,,,,,,,,,,,0.017533482,-0.383962054,0,0,0,,,,,,,LLAMA,HB,new,y,./images/LLAMAHB.png,,,,,,,,,z,0,0.8305,,,,,,,,0,101,101,119,1
,,,,,,,,,,,,,,,,,199447,18,2022-01-25_21h29.09.153,lexical_decision_task_DD_L3,2021.2.3,MacIntel,60.0024001,,,,,,,,,,,0.7203,0,,,,,,,,,,,,,,,,,,,,,,,,0.017533482,-0.383962054,0,0,0,,,,,,,BAMBOO,HB,new,y,./images/BAMBOOHB.png,,,,,,,,,z,0,0.7203,,,,,,,,0,102,102,89,1
,,,,,,,,,,,,,,,,,199447,18,2022-01-25_21h29.09.153,lexical_decision_task_DD_L3,2021.2.3,MacIntel,60.0024001,,,,,,,,,,,1.0882,0,,,,,,,,,,,,,,,,,,,,,,,,0.017533482,-0.383962054,0,0,0,,,,,,,CEMENT,HB,old,y,./images/CEMENTHB.png,,,,,,,,,z,0,1.0882,,,,,,,,0,103,103,74,1
,,,,,,,,,,,,,,,,,199447,18,2022-01-25_21h29.09.153,lexical_decision_task_DD_L3,2021.2.3,MacIntel,60.0024001,,,,,,,,,,,0.7475,0,,,,,,,,,,,,,,,,,,,,,,,,0.017533482,-0.383962054,0,0,0,,,,,,,STEAK,C,new,y,./images/STEAK.png,,,,,,,,,z,0,0.7475,,,,,,,,0,104,104,115,1
,,,,,,,,,,,,,,,,,199447,18,2022-01-25_21h29.09.153,lexical_decision_task_DD_L3,2021.2.3,MacIntel,60.0024001,,,,,,,,,,,0.6666,0,,,,,,,,,,,,,,,,,,,,,,,,0.017533482,-0.383962054,0,0,0,,,,,,,PLANK,C,old,y,./images/PLANK.png,,,,,,,,,m,0,0.6666,,,,,,,,0,105,105,1,1
,,,,,,,,,,,,,,,,,199447,18,2022-01-25_21h29.09.153,lexical_decision_task_DD_L3,2021.2.3,MacIntel,60.0024001,,,,,,,,,,,0.5371,0,,,,,,,,,,,,,,,,,,,,,,,,0.017533482,-0.383962054,0,0,0,,,,,,,GRAIN,LB,old,y,./images/GRAINLB.png,,,,,,,,,m,0,0.5371,,,,,,,,0,106,106,75,1
,,,,,,,,,,,,,,,,,199447,18,2022-01-25_21h29.09.153,lexical_decision_task_DD_L3,2021.2.3,MacIntel,60.0024001,,,,,,,,,,,0.8642,0,,,,,,,,,,,,,,,,,,,,,,,,0.017533482,-0.383962054,0,0,0,,,,,,,CLOWN,C,new,y,./images/CLOWN.png,,,,,,,,,z,0,0.8642,,,,,,,,0,107,107,106,1
,,,,,,,,,,,,,,,,,199447,18,2022-01-25_21h29.09.153,lexical_decision_task_DD_L3,2021.2.3,MacIntel,60.0024001,,,,,,,,,,,0.9464,0,,,,,,,,,,,,,,,,,,,,,,,,0.017533482,-0.383962054,0,0,0,,,,,,,PEACH,HB,old,y,./images/PEACHHB.png,,,,,,,,,m,0,0.9464,,,,,,,,0,108,108,35,1
,,,,,,,,,,,,,,,,,199447,18,2022-01-25_21h29.09.153,lexical_decision_task_DD_L3,2021.2.3,MacIntel,60.0024001,,,,,,,,,,,0.7977,0,,,,,,,,,,,,,,,,,,,,,,,,0.017533482,-0.383962054,0,0,0,,,,,,,MOOSE,LB,old,y,./images/MOOSELB.png,,,,,,,,,m,0,0.7977,,,,,,,,0,109,109,57,1
,,,,,,,,,,,,,,,,,199447,18,2022-01-25_21h29.09.153,lexical_decision_task_DD_L3,2021.2.3,MacIntel,60.0024001,,,,,,,,,,,0.6712,0,,,,,,,,,,,,,,,,,,,,,,,,0.017533482,-0.383962054,0,0,0,,,,,,,PIMPLE,HB,old,y,./images/PIMPLEHB.png,,,,,,,,,z,0,0.6712,,,,,,,,0,110,110,71,1
,,,,,,,,,,,,,,,,,199447,18,2022-01-25_21h29.09.153,lexical_decision_task_DD_L3,2021.2.3,MacIntel,60.0024001,,,,,,,,,,,0.785,0,,,,,,,,,,,,,,,,,,,,,,,,0.017533482,-0.383962054,0,0,0,,,,,,,SLOPE,LB,new,y,./images/SLOPELB.png,,,,,,,,,z,0,0.785,,,,,,,,0,111,111,114,1
,,,,,,,,,,,,,,,,,199447,18,2022-01-25_21h29.09.153,lexical_decision_task_DD_L3,2021.2.3,MacIntel,60.0024001,,,,,,,,,,,0.5811,0,,,,,,,,,,,,,,,,,,,,,,,,0.017533482,-0.383962054,0,0,0,,,,,,,BELLY,C,old,y,./images/BELLY.png,,,,,,,,,m,0,0.5811,,,,,,,,0,112,112,10,1
,,,,,,,,,,,,,,,,,199447,18,2022-01-25_21h29.09.153,lexical_decision_task_DD_L3,2021.2.3,MacIntel,60.0024001,,,,,,,,,,,0.7469,0,,,,,,,,,,,,,,,,,,,,,,,,0.017533482,-0.383962054,0,0,0,,,,,,,JUMPER,HB,new,y,./images/JUMPERHB.png,,,,,,,,,z,0,0.7469,,,,,,,,0,113,113,158,1
,,,,,,,,,,,,,,,,,199447,18,2022-01-25_21h29.09.153,lexical_decision_task_DD_L3,2021.2.3,MacIntel,60.0024001,,,,,,,,,,,1.3522,0,,,,,,,,,,,,,,,,,,,,,,,,0.017533482,-0.383962054,0,0,0,,,,,,,STREAM,HB,new,y,./images/STREAMHB.png,,,,,,,,,z,0,1.3522,,,,,,,,0,114,114,125,1
,,,,,,,,,,,,,,,,,199447,18,2022-01-25_21h29.09.153,lexical_decision_task_DD_L3,2021.2.3,MacIntel,60.0024001,,,,,,,,,,,0.7526,0,,,,,,,,,,,,,,,,,,,,,,,,0.017533482,-0.383962054,0,0,0,,,,,,,WALNUT,LB,new,y,./images/WALNUTLB.png,,,,,,,,,z,0,0.7526,,,,,,,,0,115,115,84,1
,,,,,,,,,,,,,,,,,199447,18,2022-01-25_21h29.09.153,lexical_decision_task_DD_L3,2021.2.3,MacIntel,60.0024001,,,,,,,,,,,0.6367,0,,,,,,,,,,,,,,,,,,,,,,,,0.017533482,-0.383962054,0,0,0,,,,,,,BAKER,LB,new,y,./images/BAKERLB.png,,,,,,,,,m,0,0.6367,,,,,,,,0,116,116,147,1
,,,,,,,,,,,,,,,,,199447,18,2022-01-25_21h29.09.153,lexical_decision_task_DD_L3,2021.2.3,MacIntel,60.0024001,,,,,,,,,,,0.7154,0,,,,,,,,,,,,,,,,,,,,,,,,0.017533482,-0.383962054,0,0,0,,,,,,,TOWEL,C,new,y,./images/TOWEL.png,,,,,,,,,z,0,0.7154,,,,,,,,0,117,117,85,1
,,,,,,,,,,,,,,,,,199447,18,2022-01-25_21h29.09.153,lexical_decision_task_DD_L3,2021.2.3,MacIntel,60.0024001,,,,,,,,,,,0.653,0,,,,,,,,,,,,,,,,,,,,,,,,0.017533482,-0.383962054,0,0,0,,,,,,,CRUST,C,old,y,./images/CRUST.png,,,,,,,,,m,0,0.653,,,,,,,,0,118,118,79,1
,,,,,,,,,,,,,,,,,199447,18,2022-01-25_21h29.09.153,lexical_decision_task_DD_L3,2021.2.3,MacIntel,60.0024001,,,,,,,,,,,0.6858,0,,,,,,,,,,,,,,,,,,,,,,,,0.017533482,-0.383962054,0,0,0,,,,,,,GARDEN,C,new,y,./images/GARDEN.png,,,,,,,,,z,0,0.6858,,,,,,,,0,119,119,94,1
,,,,,,,,,,,,,,,,,199447,18,2022-01-25_21h29.09.153,lexical_decision_task_DD_L3,2021.2.3,MacIntel,60.0024001,,,,,,,,,,,0.7346,0,,,,,,,,,,,,,,,,,,,,,,,,0.017533482,-0.383962054,0,0,0,,,,,,,FOLDER,LB,old,y,./images/FOLDERLB.png,,,,,,,,,z,0,0.7346,,,,,,,,0,120,120,42,1
,,,,,,,,,,,,,,,,,199447,18,2022-01-25_21h29.09.153,lexical_decision_task_DD_L3,2021.2.3,MacIntel,60.0024001,,,,,,,,,,,0.6361,0,,,,,,,,,,,,,,,,,,,,,,,,0.017533482,-0.383962054,0,0,0,,,,,,,DRILL,LB,new,y,./images/DRILLLB.png,,,,,,,,,z,0,0.6361,,,,,,,,0,121,121,165,1
,,,,,,,,,,,,,,,,,199447,18,2022-01-25_21h29.09.153,lexical_decision_task_DD_L3,2021.2.3,MacIntel,60.0024001,,,,,,,,,,,1.3024,0,,,,,,,,,,,,,,,,,,,,,,,,0.017533482,-0.383962054,0,0,0,,,,,,,VALLEY,HB,new,y,./images/VALLEYHB.png,,,,,,,,,m,0,1.3024,,,,,,,,0,122,122,152,1
,,,,,,,,,,,,,,,,,199447,18,2022-01-25_21h29.09.153,lexical_decision_task_DD_L3,2021.2.3,MacIntel,60.0024001,,,,,,,,,,,0.5362,0,,,,,,,,,,,,,,,,,,,,,,,,0.017533482,-0.383962054,0,0,0,,,,,,,CANDY,LB,new,y,./images/CANDYLB.png,,,,,,,,,m,0,0.5362,,,,,,,,0,123,123,123,1
,,,,,,,,,,,,,,,,,199447,18,2022-01-25_21h29.09.153,lexical_decision_task_DD_L3,2021.2.3,MacIntel,60.0024001,,,,,,,,,,,0.8689,0,,,,,,,,,,,,,,,,,,,,,,,,0.017533482,-0.383962054,0,0,0,,,,,,,SKIING,HB,old,y,./images/SKIINGHB.png,,,,,,,,,m,0,0.8689,,,,,,,,0,124,124,17,1
,,,,,,,,,,,,,,,,,199447,18,2022-01-25_21h29.09.153,lexical_decision_task_DD_L3,2021.2.3,MacIntel,60.0024001,,,,,,,,,,,0.6993,0,,,,,,,,,,,,,,,,,,,,,,,,0.017533482,-0.383962054,0,0,0,space,,,,,,HOCKEY,HB,new,y,./images/HOCKEYHB.png,2.3163,,,,,,,,z,0,0.6993,,,,,,,,0,125,125,116,1
,,,,,,,,,,,,,,,,,199447,18,2022-01-25_21h29.09.153,lexical_decision_task_DD_L3,2021.2.3,MacIntel,60.0024001,,,,,,,,,,,0.7137,0,,,,,,,,,,,,,,,,,,,,,,,,0.017533482,-0.383962054,0,0,0,,,,,,,CHAIN,LB,new,y,./images/CHAINLB.png,,,,,,,,,z,0,0.7137,,,,,,,,0,126,126,126,1
,,,,,,,,,,,,,,,,,199447,18,2022-01-25_21h29.09.153,lexical_decision_task_DD_L3,2021.2.3,MacIntel,60.0024001,,,,,,,,,,,0.8164,0,,,,,,,,,,,,,,,,,,,,,,,,0.017533482,-0.383962054,0,0,0,,,,,,,WEASEL,HB,old,y,./images/WEASELHB.png,,,,,,,,,m,0,0.8164,,,,,,,,0,127,127,80,1
,,,,,,,,,,,,,,,,,199447,18,2022-01-25_21h29.09.153,lexical_decision_task_DD_L3,2021.2.3,MacIntel,60.0024001,,,,,,,,,,,0.6504,0,,,,,,,,,,,,,,,,,,,,,,,,0.017533482,-0.383962054,0,0,0,,,,,,,BURIAL,HB,old,y,./images/BURIALHB.png,,,,,,,,,m,0,0.6504,,,,,,,,0,128,128,59,1
,,,,,,,,,,,,,,,,,199447,18,2022-01-25_21h29.09.153,lexical_decision_task_DD_L3,2021.2.3,MacIntel,60.0024001,,,,,,,,,,,0.6695,0,,,,,,,,,,,,,,,,,,,,,,,,0.017533482,-0.383962054,0,0,0,,,,,,,BANNER,C,old,y,./images/BANNER.png,,,,,,,,,m,0,0.6695,,,,,,,,0,129,129,52,1
,,,,,,,,,,,,,,,,,199447,18,2022-01-25_21h29.09.153,lexical_decision_task_DD_L3,2021.2.3,MacIntel,60.0024001,,,,,,,,,,,0.7701,0,,,,,,,,,,,,,,,,,,,,,,,,0.017533482,-0.383962054,0,0,0,,,,,,,MOTOR,C,old,y,./images/MOTOR.png,,,,,,,,,z,0,0.7701,,,,,,,,0,130,130,13,1
,,,,,,,,,,,,,,,,,199447,18,2022-01-25_21h29.09.153,lexical_decision_task_DD_L3,2021.2.3,MacIntel,60.0024001,,,,,,,,,,,0.7362,0,,,,,,,,,,,,,,,,,,,,,,,,0.017533482,-0.383962054,0,0,0,,,,,,,WALRUS,HB,old,y,./images/WALRUSHB.png,,,,,,,,,z,0,0.7362,,,,,,,,0,131,131,23,1
,,,,,,,,,,,,,,,,,199447,18,2022-01-25_21h29.09.153,lexical_decision_task_DD_L3,2021.2.3,MacIntel,60.0024001,,,,,,,,,,,0.6555,0,,,,,,,,,,,,,,,,,,,,,,,,0.017533482,-0.383962054,0,0,0,,,,,,,CASINO,C,new,y,./images/CASINO.png,,,,,,,,,z,0,0.6555,,,,,,,,0,132,132,112,1
,,,,,,,,,,,,,,,,,199447,18,2022-01-25_21h29.09.153,lexical_decision_task_DD_L3,2021.2.3,MacIntel,60.0024001,,,,,,,,,,,0.9502,0,,,,,,,,,,,,,,,,,,,,,,,,0.017533482,-0.383962054,0,0,0,,,,,,,PEBBLE,C,new,y,./images/PEBBLE.png,,,,,,,,,z,0,0.9502,,,,,,,,0,133,133,166,1
,,,,,,,,,,,,,,,,,199447,18,2022-01-25_21h29.09.153,lexical_decision_task_DD_L3,2021.2.3,MacIntel,60.0024001,,,,,,,,,,,0.7635,0,,,,,,,,,,,,,,,,,,,,,,,,0.017533482,-0.383962054,0,0,0,,,,,,,TULIP,HB,old,y,./images/TULIPHB.png,,,,,,,,,m,0,0.7635,,,,,,,,0,134,134,8,1
,,,,,,,,,,,,,,,,,199447,18,2022-01-25_21h29.09.153,lexical_decision_task_DD_L3,2021.2.3,MacIntel,60.0024001,,,,,,,,,,,0.7472,0,,,,,,,,,,,,,,,,,,,,,,,,0.017533482,-0.383962054,0,0,0,,,,,,,LAGOON,HB,new,y,./images/LAGOONHB.png,,,,,,,,,z,0,0.7472,,,,,,,,0,135,135,131,1
,,,,,,,,,,,,,,,,,199447,18,2022-01-25_21h29.09.153,lexical_decision_task_DD_L3,2021.2.3,MacIntel,60.0024001,,,,,,,,,,,0.7389,0,,,,,,,,,,,,,,,,,,,,,,,,0.017533482,-0.383962054,0,0,0,,,,,,,CLOTH,HB,new,y,./images/CLOTHHB.png,,,,,,,,,z,0,0.7389,,,,,,,,0,136,136,107,1
,,,,,,,,,,,,,,,,,199447,18,2022-01-25_21h29.09.153,lexical_decision_task_DD_L3,2021.2.3,MacIntel,60.0024001,,,,,,,,,,,0.7368,0,,,,,,,,,,,,,,,,,,,,,,,,0.017533482,-0.383962054,0,0,0,,,,,,,DESERT,C,new,y,./images/DESERT.png,,,,,,,,,z,0,0.7368,,,,,,,,0,137,137,136,1
,,,,,,,,,,,,,,,,,199447,18,2022-01-25_21h29.09.153,lexical_decision_task_DD_L3,2021.2.3,MacIntel,60.0024001,,,,,,,,,,,0.9341,0,,,,,,,,,,,,,,,,,,,,,,,,0.017533482,-0.383962054,0,0,0,,,,,,,MIRROR,LB,old,y,./images/MIRRORLB.png,,,,,,,,,z,0,0.9341,,,,,,,,0,138,138,63,1
,,,,,,,,,,,,,,,,,199447,18,2022-01-25_21h29.09.153,lexical_decision_task_DD_L3,2021.2.3,MacIntel,60.0024001,,,,,,,,,,,0.8479,0,,,,,,,,,,,,,,,,,,,,,,,,0.017533482,-0.383962054,0,0,0,,,,,,,ATTIC,LB,old,y,./images/ATTICLB.png,,,,,,,,,z,0,0.8479,,,,,,,,0,139,139,27,1
,,,,,,,,,,,,,,,,,199447,18,2022-01-25_21h29.09.153,lexical_decision_task_DD_L3,2021.2.3,MacIntel,60.0024001,,,,,,,,,,,0.814,0,,,,,,,,,,,,,,,,,,,,,,,,0.017533482,-0.383962054,0,0,0,,,,,,,CRATER,LB,new,y,./images/CRATERLB.png,,,,,,,,,z,0,0.814,,,,,,,,0,140,140,87,1
,,,,,,,,,,,,,,,,,199447,18,2022-01-25_21h29.09.153,lexical_decision_task_DD_L3,2021.2.3,MacIntel,60.0024001,,,,,,,,,,,0.648,0,,,,,,,,,,,,,,,,,,,,,,,,0.017533482,-0.383962054,0,0,0,,,,,,,SHORE,LB,old,y,./images/SHORELB.png,,,,,,,,,m,0,0.648,,,,,,,,0,141,141,12,1
,,,,,,,,,,,,,,,,,199447,18,2022-01-25_21h29.09.153,lexical_decision_task_DD_L3,2021.2.3,MacIntel,60.0024001,,,,,,,,,,,0.5813,0,,,,,,,,,,,,,,,,,,,,,,,,0.017533482,-0.383962054,0,0,0,,,,,,,MELON,C,old,y,./images/MELON.png,,,,,,,,,m,0,0.5813,,,,,,,,0,142,142,22,1
,,,,,,,,,,,,,,,,,199447,18,2022-01-25_21h29.09.153,lexical_decision_task_DD_L3,2021.2.3,MacIntel,60.0024001,,,,,,,,,,,1.1847,0,,,,,,,,,,,,,,,,,,,,,,,,0.017533482,-0.383962054,0,0,0,,,,,,,STORM,LB,old,y,./images/STORMLB.png,,,,,,,,,m,0,1.1847,,,,,,,,0,143,143,30,1
,,,,,,,,,,,,,,,,,199447,18,2022-01-25_21h29.09.153,lexical_decision_task_DD_L3,2021.2.3,MacIntel,60.0024001,,,,,,,,,,,0.9149,0,,,,,,,,,,,,,,,,,,,,,,,,0.017533482,-0.383962054,0,0,0,,,,,,,COOKER,LB,old,y,./images/COOKERLB.png,,,,,,,,,m,0,0.9149,,,,,,,,0,144,144,69,1
,,,,,,,,,,,,,,,,,199447,18,2022-01-25_21h29.09.153,lexical_decision_task_DD_L3,2021.2.3,MacIntel,60.0024001,,,,,,,,,,,0.781,0,,,,,,,,,,,,,,,,,,,,,,,,0.017533482,-0.383962054,0,0,0,,,,,,,BUTTER,LB,new,y,./images/BUTTERLB.png,,,,,,,,,z,0,0.781,,,,,,,,0,145,145,111,1
,,,,,,,,,,,,,,,,,199447,18,2022-01-25_21h29.09.153,lexical_decision_task_DD_L3,2021.2.3,MacIntel,60.0024001,,,,,,,,,,,0.6232,0,,,,,,,,,,,,,,,,,,,,,,,,0.017533482,-0.383962054,0,0,0,,,,,,,PASTA,HB,old,y,./images/PASTAHB.png,,,,,,,,,z,0,0.6232,,,,,,,,0,146,146,5,1
,,,,,,,,,,,,,,,,,199447,18,2022-01-25_21h29.09.153,lexical_decision_task_DD_L3,2021.2.3,MacIntel,60.0024001,,,,,,,,,,,0.6656,0,,,,,,,,,,,,,,,,,,,,,,,,0.017533482,-0.383962054,0,0,0,,,,,,,POSTER,HB,new,y,./images/POSTERHB.png,,,,,,,,,z,0,0.6656,,,,,,,,0,147,147,137,1
,,,,,,,,,,,,,,,,,199447,18,2022-01-25_21h29.09.153,lexical_decision_task_DD_L3,2021.2.3,MacIntel,60.0024001,,,,,,,,,,,0.7474,0,,,,,,,,,,,,,,,,,,,,,,,,0.017533482,-0.383962054,0,0,0,,,,,,,LIZARD,HB,old,y,./images/LIZARDHB.png,,,,,,,,,m,0,0.7474,,,,,,,,0,148,148,44,1
,,,,,,,,,,,,,,,,,199447,18,2022-01-25_21h29.09.153,lexical_decision_task_DD_L3,2021.2.3,MacIntel,60.0024001,,,,,,,,,,,0.7,0,,,,,,,,,,,,,,,,,,,,,,,,0.017533482,-0.383962054,0,0,0,,,,,,,MONKEY,LB,new,y,./images/MONKEYLB.png,,,,,,,,,z,0,0.7,,,,,,,,0,149,149,129,1
,,,,,,,,,,,,,,,,,199447,18,2022-01-25_21h29.09.153,lexical_decision_task_DD_L3,2021.2.3,MacIntel,60.0024001,,,,,,,,,,,0.6333,0,,,,,,,,,,,,,,,,,,,,,,,,0.017533482,-0.383962054,0,0,0,,,,,,,GLOVE,C,new,y,./images/GLOVE.png,,,,,,,,,z,0,0.6333,,,,,,,,0,150,150,157,1
,,,,,,,,,,,,,,,,,199447,18,2022-01-25_21h29.09.153,lexical_decision_task_DD_L3,2021.2.3,MacIntel,60.0024001,,,,,,,,,,,0.6166,0,,,,,,,,,,,,,,,,,,,,,,,,0.017533482,-0.383962054,0,0,0,,,,,,,POODLE,LB,old,y,./images/POODLELB.png,,,,,,,,,m,0,0.6166,,,,,,,,0,151,151,81,1
,,,,,,,,,,,,,,,,,199447,18,2022-01-25_21h29.09.153,lexical_decision_task_DD_L3,2021.2.3,MacIntel,60.0024001,,,,,,,,,,,0.618,0,,,,,,,,,,,,,,,,,,,,,,,,0.017533482,-0.383962054,0,0,0,,,,,,,SWEAT,LB,old,y,./images/SWEATLB.png,,,,,,,,,m,0,0.618,,,,,,,,0,152,152,66,1
,,,,,,,,,,,,,,,,,199447,18,2022-01-25_21h29.09.153,lexical_decision_task_DD_L3,2021.2.3,MacIntel,60.0024001,,,,,,,,,,,0.7143,0,,,,,,,,,,,,,,,,,,,,,,,,0.017533482,-0.383962054,0,0,0,,,,,,,SPINE,HB,new,y,./images/SPINEHB.png,,,,,,,,,z,0,0.7143,,,,,,,,0,153,153,149,1
,,,,,,,,,,,,,,,,,199447,18,2022-01-25_21h29.09.153,lexical_decision_task_DD_L3,2021.2.3,MacIntel,60.0024001,,,,,,,,,,,0.7173,0,,,,,,,,,,,,,,,,,,,,,,,,0.017533482,-0.383962054,0,0,0,,,,,,,DIVER,LB,new,y,./images/DIVERLB.png,,,,,,,,,z,0,0.7173,,,,,,,,0,154,154,93,1
,,,,,,,,,,,,,,,,,199447,18,2022-01-25_21h29.09.153,lexical_decision_task_DD_L3,2021.2.3,MacIntel,60.0024001,,,,,,,,,,,0.816,0,,,,,,,,,,,,,,,,,,,,,,,,0.017533482,-0.383962054,0,0,0,,,,,,,COLLAR,LB,new,y,./images/COLLARLB.png,,,,,,,,,z,0,0.816,,,,,,,,0,155,155,99,1
,,,,,,,,,,,,,,,,,199447,18,2022-01-25_21h29.09.153,lexical_decision_task_DD_L3,2021.2.3,MacIntel,60.0024001,,,,,,,,,,,0.7146,0,,,,,,,,,,,,,,,,,,,,,,,,0.017533482,-0.383962054,0,0,0,,,,,,,PACKET,HB,old,y,./images/PACKETHB.png,,,,,,,,,z,0,0.7146,,,,,,,,0,156,156,56,1
,,,,,,,,,,,,,,,,,199447,18,2022-01-25_21h29.09.153,lexical_decision_task_DD_L3,2021.2.3,MacIntel,60.0024001,,,,,,,,,,,0.764,0,,,,,,,,,,,,,,,,,,,,,,,,0.017533482,-0.383962054,0,0,0,,,,,,,NOOSE,LB,old,y,./images/NOOSELB.png,,,,,,,,,m,0,0.764,,,,,,,,0,157,157,72,1
,,,,,,,,,,,,,,,,,199447,18,2022-01-25_21h29.09.153,lexical_decision_task_DD_L3,2021.2.3,MacIntel,60.0024001,,,,,,,,,,,1.2639,0,,,,,,,,,,,,,,,,,,,,,,,,0.017533482,-0.383962054,0,0,0,,,,,,,STAIN,LB,new,y,./images/STAINLB.png,,,,,,,,,m,0,1.2639,,,,,,,,0,158,158,90,1
,,,,,,,,,,,,,,,,,199447,18,2022-01-25_21h29.09.153,lexical_decision_task_DD_L3,2021.2.3,MacIntel,60.0024001,,,,,,,,,,,0.7833,0,,,,,,,,,,,,,,,,,,,,,,,,0.017533482,-0.383962054,0,0,0,,,,,,,MUSCLE,C,old,y,./images/MUSCLE.png,,,,,,,,,m,0,0.7833,,,,,,,,0,159,159,4,1
,,,,,,,,,,,,,,,,,199447,18,2022-01-25_21h29.09.153,lexical_decision_task_DD_L3,2021.2.3,MacIntel,60.0024001,,,,,,,,,,,0.6146,0,,,,,,,,,,,,,,,,,,,,,,,,0.017533482,-0.383962054,0,0,0,,,,,,,BASKET,HB,new,y,./images/BASKETHB.png,,,,,,,,,z,0,0.6146,,,,,,,,0,160,160,128,1
,,,,,,,,,,,,,,,,,199447,18,2022-01-25_21h29.09.153,lexical_decision_task_DD_L3,2021.2.3,MacIntel,60.0024001,,,,,,,,,,,0.7543,0,,,,,,,,,,,,,,,,,,,,,,,,0.017533482,-0.383962054,0,0,0,,,,,,,BRIDE,C,new,y,./images/BRIDE.png,,,,,,,,,m,0,0.7543,,,,,,,,0,161,161,148,1
,,,,,,,,,,,,,,,,,199447,18,2022-01-25_21h29.09.153,lexical_decision_task_DD_L3,2021.2.3,MacIntel,60.0024001,,,,,,,,,,,0.78,0,,,,,,,,,,,,,,,,,,,,,,,,0.017533482,-0.383962054,0,0,0,,,,,,,THROAT,LB,old,y,./images/THROATLB.png,,,,,,,,,m,0,0.78,,,,,,,,0,162,162,36,1
,,,,,,,,,,,,,,,,,199447,18,2022-01-25_21h29.09.153,lexical_decision_task_DD_L3,2021.2.3,MacIntel,60.0024001,,,,,,,,,,,0.8371,0,,,,,,,,,,,,,,,,,,,,,,,,0.017533482,-0.383962054,0,0,0,,,,,,,CHALK,C,new,y,./images/CHALK.png,,,,,,,,,z,0,0.8371,,,,,,,,0,163,163,109,1
,,,,,,,,,,,,,,,,,199447,18,2022-01-25_21h29.09.153,lexical_decision_task_DD_L3,2021.2.3,MacIntel,60.0024001,,,,,,,,,,,0.7666,0,,,,,,,,,,,,,,,,,,,,,,,,0.017533482,-0.383962054,0,0,0,,,,,,,CHERRY,LB,new,y,./images/CHERRYLB.png,,,,,,,,,z,0,0.7666,,,,,,,,0,164,164,138,1
,,,,,,,,,,,,,,,,,199447,18,2022-01-25_21h29.09.153,lexical_decision_task_DD_L3,2021.2.3,MacIntel,60.0024001,,,,,,,,,,,0.8641,0,,,,,,,,,,,,,,,,,,,,,,,,0.017533482,-0.383962054,0,0,0,,,,,,,STOVE,HB,new,y,./images/STOVEHB.png,,,,,,,,,z,0,0.8641,,,,,,,,0,165,165,86,1
,,,,,,,,,,,,,,,,,199447,18,2022-01-25_21h29.09.153,lexical_decision_task_DD_L3,2021.2.3,MacIntel,60.0024001,,,,,,,,,,,3.1833,0,,,,,,,,,,,,,,,,,,,,,,,,0.017533482,-0.383962054,0,0,0,,,,,,,GRANNY,HB,new,y,./images/GRANNYHB.png,,,,,,,,,z,0,3.1833,,,,,,,,0,166,166,104,1
,,,,,,,,,,,,,,,,,199447,18,2022-01-25_21h29.09.153,lexical_decision_task_DD_L3,2021.2.3,MacIntel,60.0024001,,,,,,,,,,,3.9642,0,,,,,,,,,,,,,,,,,,,,,,,,0.017533482,-0.383962054,0,0,0,,,,,,,DANCER,LB,new,y,./images/DANCERLB.png,,,,,,,,,z,0,3.9642,,,,,,,,0,167,167,105,1
