key_resp.keys,key_resp.rt,instr_done_touch.x,instr_done_touch.y,instr_done_touch.leftButton,instr_done_touch.midButton,instr_done_touch.rightButton,instruction_pages.thisRepN,instruction_pages.thisTrialN,instruction_pages.thisN,instruction_pages.thisIndex,instruction_pages.ran,pageN,phase,instruct_text,has_image,instruct_image,participant,age,date,expName,psychopyVersion,OS,frameRate,response.keys,response.corr,response.rt,touch_resp.x,touch_resp.y,touch_resp.leftButton,touch_resp.midButton,touch_resp.rightButton,touch_resp.time,touch_resp.clicked_name,rt,corr,practrials.thisRepN,practrials.thisTrialN,practrials.thisN,practrials.thisIndex,practrials.ran,TrialID,Target,corrAns,end_of_practice_trials_pages.thisRepN,end_of_practice_trials_pages.thisTrialN,end_of_practice_trials_pages.thisN,end_of_practice_trials_pages.thisIndex,end_of_practice_trials_pages.ran,key_resp_2.keys,key_resp_2.corr,key_resp_2.rt,targ_click.x,targ_click.y,targ_click.leftButton,targ_click.midButton,targ_click.rightButton,targ_click.time,targ_click.clicked_name,break_done_touch.x,break_done_touch.y,break_done_touch.leftButton,break_done_touch.midButton,break_done_touch.rightButton,break_done_keyboard.keys,maintrials.thisRepN,maintrials.thisTrialN,maintrials.thisN,maintrials.thisIndex,maintrials.ran,string,blur,study,lex,stim_path,break_done_keyboard.rt,test_instructions.thisRepN,test_instructions.thisTrialN,test_instructions.thisN,test_instructions.thisIndex,test_instructions.ran,instr_done_touch.clicked_name,key_resp_3.keys,key_resp_3.corr,key_resp_3.rt,test_click.x,test_click.y,test_click.leftButton,test_click.midButton,test_click.rightButton,test_click.time,test_click.clicked_name,test_phase.thisRepN,test_phase.thisTrialN,test_phase.thisN,test_phase.thisIndex,test_phase.ran
space,77.211,0.18610837,-0.136756416,0,0,0,0,0,0,0,1,1,instructions,"INSTRUCTIONS
At the start of each trial, look at the plus sign  (+) in the center of the screen.  This tells you that a trial is about to begin and where to look. Second, the plus sign will disappear and a string of letters will appear. Your task is to determine if the string of letters is a word or not. If the item is a word press the M key (on keyboard)  or touch the word button (phone/tablet).  If the item is not a word,  press the  Z key (on keyboard)  or touch the nonword button (on phone/tablet). 
Press the space bar or touch  continue.",0,,199411,18,2022-01-28_20h37.51.150,lexical_decision_task_DD,2021.2.3,Win32,59.88023952,,,,,,,,,,,,,,,,,,,,,,,,,,,,,,,,,,,,,,,,,,,,,,,,,,,,,,,,,,,,,,,,,,,,,,,,,
space,7.0653,0.18610837,-0.136756416,0,0,0,0,1,1,1,1,2,instructions,"If your device has a keyboard, press the 'Z' key for nonwords and the 'M' key for words.





Press the space bar or touch the button below to continue.",0,keyboard-example.gif,199411,18,2022-01-28_20h37.51.150,lexical_decision_task_DD,2021.2.3,Win32,59.88023952,,,,,,,,,,,,,,,,,,,,,,,,,,,,,,,,,,,,,,,,,,,,,,,,,,,,,,,,,,,,,,,,,,,,,,,,,
space,2.6425,0.18610837,-0.136756416,0,0,0,0,2,2,2,1,3,instructions,"If you are using a touchscreen only device, use the buttons on the screen. Do not use the mouse.





Press the space bar or touch the button below to continue.",0,touchscreen-example.gif,199411,18,2022-01-28_20h37.51.150,lexical_decision_task_DD,2021.2.3,Win32,59.88023952,,,,,,,,,,,,,,,,,,,,,,,,,,,,,,,,,,,,,,,,,,,,,,,,,,,,,,,,,,,,,,,,,,,,,,,,,
space,15.0635,0.18610837,-0.136756416,0,0,0,0,3,3,3,1,4,instructions,"It is very important that you respond as quickly and accurately as possible, as each letter string will only be on the screen for two seconds. If you do not respond within this time, the message 'Too slow!' will be displayed and the experiment will progress to the next letter string. The first 20 trials will be practice trials and you will receive feedback on your answers. 

Press the space bar or touch the button below to start the practice trials.",0,,199411,18,2022-01-28_20h37.51.150,lexical_decision_task_DD,2021.2.3,Win32,59.88023952,,,,,,,,,,,,,,,,,,,,,,,,,,,,,,,,,,,,,,,,,,,,,,,,,,,,,,,,,,,,,,,,,,,,,,,,,
,,,,,,,,,,,,,,,,,199411,18,2022-01-28_20h37.51.150,lexical_decision_task_DD,2021.2.3,Win32,59.88023952,m,0,3.8304,,,,,,,,3.8304,0,0,0,0,15,1,1001,WHAISE,z,,,,,,,,,,,,,,,,,,,,,,,,,,,,,,,,,,,,,,,,,,,,,,,,,,,,,
,,,,,,,,,,,,,,,,,199411,18,2022-01-28_20h37.51.150,lexical_decision_task_DD,2021.2.3,Win32,59.88023952,z,1,1.5156,,,,,,,,1.5156,1,0,1,1,9,1,1001,FARINY,z,,,,,,,,,,,,,,,,,,,,,,,,,,,,,,,,,,,,,,,,,,,,,,,,,,,,,
,,,,,,,,,,,,,,,,,199411,18,2022-01-28_20h37.51.150,lexical_decision_task_DD,2021.2.3,Win32,59.88023952,z,1,0.7005,,,,,,,,0.7005,1,0,2,2,8,1,1001,ASLERT,z,,,,,,,,,,,,,,,,,,,,,,,,,,,,,,,,,,,,,,,,,,,,,,,,,,,,,
,,,,,,,,,,,,,,,,,199411,18,2022-01-28_20h37.51.150,lexical_decision_task_DD,2021.2.3,Win32,59.88023952,z,1,0.8075,,,,,,,,0.8075,1,0,3,3,10,1,1001,INLADE,z,,,,,,,,,,,,,,,,,,,,,,,,,,,,,,,,,,,,,,,,,,,,,,,,,,,,,
,,,,,,,,,,,,,,,,,199411,18,2022-01-28_20h37.51.150,lexical_decision_task_DD,2021.2.3,Win32,59.88023952,m,1,0.8331,,,,,,,,0.8331,1,0,4,4,4,1,1001,SQUEAK,m,,,,,,,,,,,,,,,,,,,,,,,,,,,,,,,,,,,,,,,,,,,,,,,,,,,,,
,,,,,,,,,,,,,,,,,199411,18,2022-01-28_20h37.51.150,lexical_decision_task_DD,2021.2.3,Win32,59.88023952,m,1,0.7503,,,,,,,,0.7503,1,0,5,5,3,1,1001,MATRIX,m,,,,,,,,,,,,,,,,,,,,,,,,,,,,,,,,,,,,,,,,,,,,,,,,,,,,,
,,,,,,,,,,,,,,,,,199411,18,2022-01-28_20h37.51.150,lexical_decision_task_DD,2021.2.3,Win32,59.88023952,z,1,1.0179,,,,,,,,1.0179,1,0,6,6,11,1,1001,RASHET,z,,,,,,,,,,,,,,,,,,,,,,,,,,,,,,,,,,,,,,,,,,,,,,,,,,,,,
,,,,,,,,,,,,,,,,,199411,18,2022-01-28_20h37.51.150,lexical_decision_task_DD,2021.2.3,Win32,59.88023952,m,1,1.0203,,,,,,,,1.0203,1,0,7,7,1,1,1001,ADJUST,m,,,,,,,,,,,,,,,,,,,,,,,,,,,,,,,,,,,,,,,,,,,,,,,,,,,,,
,,,,,,,,,,,,,,,,,199411,18,2022-01-28_20h37.51.150,lexical_decision_task_DD,2021.2.3,Win32,59.88023952,m,1,0.7008,,,,,,,,0.7008,1,0,8,8,6,1,1001,ZOMBIE,m,,,,,,,,,,,,,,,,,,,,,,,,,,,,,,,,,,,,,,,,,,,,,,,,,,,,,
,,,,,,,,,,,,,,,,,199411,18,2022-01-28_20h37.51.150,lexical_decision_task_DD,2021.2.3,Win32,59.88023952,z,1,1.1336,,,,,,,,1.1336,1,0,9,9,12,1,1001,SPRINY,z,,,,,,,,,,,,,,,,,,,,,,,,,,,,,,,,,,,,,,,,,,,,,,,,,,,,,
,,,,,,,,,,,,,,,,,199411,18,2022-01-28_20h37.51.150,lexical_decision_task_DD,2021.2.3,Win32,59.88023952,z,1,0.9351,,,,,,,,0.9351,1,0,10,10,14,1,1001,THRALE,z,,,,,,,,,,,,,,,,,,,,,,,,,,,,,,,,,,,,,,,,,,,,,,,,,,,,,
,,,,,,,,,,,,,,,,,199411,18,2022-01-28_20h37.51.150,lexical_decision_task_DD,2021.2.3,Win32,59.88023952,m,1,0.6175,,,,,,,,0.6175,1,0,11,11,7,1,1001,VOLUME,m,,,,,,,,,,,,,,,,,,,,,,,,,,,,,,,,,,,,,,,,,,,,,,,,,,,,,
,,,,,,,,,,,,,,,,,199411,18,2022-01-28_20h37.51.150,lexical_decision_task_DD,2021.2.3,Win32,59.88023952,z,1,0.9406,,,,,,,,0.9406,1,0,12,12,13,1,1001,ROUPET,z,,,,,,,,,,,,,,,,,,,,,,,,,,,,,,,,,,,,,,,,,,,,,,,,,,,,,
,,,,,,,,,,,,,,,,,199411,18,2022-01-28_20h37.51.150,lexical_decision_task_DD,2021.2.3,Win32,59.88023952,m,1,0.7002,,,,,,,,0.7002,1,0,13,13,5,1,1001,OBTAIN,m,,,,,,,,,,,,,,,,,,,,,,,,,,,,,,,,,,,,,,,,,,,,,,,,,,,,,
,,,,,,,,,,,,,,,,,199411,18,2022-01-28_20h37.51.150,lexical_decision_task_DD,2021.2.3,Win32,59.88023952,m,1,0.7008,,,,,,,,0.7008,1,0,14,14,0,1,1001,UTOPIA,m,,,,,,,,,,,,,,,,,,,,,,,,,,,,,,,,,,,,,,,,,,,,,,,,,,,,,
,,,,,,,,,,,,,,,,,199411,18,2022-01-28_20h37.51.150,lexical_decision_task_DD,2021.2.3,Win32,59.88023952,m,1,0.6675,,,,,,,,0.6675,1,0,15,15,2,1,1001,ALMOND,m,,,,,,,,,,,,,,,,,,,,,,,,,,,,,,,,,,,,,,,,,,,,,,,,,,,,,
space,13.6831,0.18610837,-0.136756416,0,0,0,,,,,,1,end_of_practice,"You have completed the practice trials. During the experimental trials, you will not receive feedback. 
Before you begin, please ensure that you are in a comfortable and quiet location and will not be disturbed for about 15 minutes, as we cannot use your data if you do not complete all the trials. 
 When you are ready to start the experimental trials, please press space or touch the button below.",,,199411,18,2022-01-28_20h37.51.150,lexical_decision_task_DD,2021.2.3,Win32,59.88023952,,,,,,,,,,,,,,,,,,,,,0,0,0,0,1,,,,,,,,,,,,,,,,,,,,,,,,,,,,,,,,,,,,,,,,,,,,,,,,
,,,,,,,,,,,,,,,,,199411,18,2022-01-28_20h37.51.150,lexical_decision_task_DD,2021.2.3,Win32,59.88023952,,,,,,,,,,,3.2751,1,,,,,,,,,,,,,,m,1,3.2751,,,,,,,,0.18610837,-0.136756416,0,0,0,,0,0,0,4,1,MUSCLE,HB,old,m,./images/MUSCLEHB.png,,,,,,,,,,,,,,,,,,,,,,
,,,,,,,,,,,,,,,,,199411,18,2022-01-28_20h37.51.150,lexical_decision_task_DD,2021.2.3,Win32,59.88023952,,,,,,,,,,,6.2059,1,,,,,,,,,,,,,,z,1,6.2059,,,,,,,,0.18610837,-0.136756416,0,0,0,,0,1,1,100,1,DRIBS,HB,old,z,./images/DRIBSHB.png,,,,,,,,,,,,,,,,,,,,,,
,,,,,,,,,,,,,,,,,199411,18,2022-01-28_20h37.51.150,lexical_decision_task_DD,2021.2.3,Win32,59.88023952,,,,,,,,,,,0.8129,1,,,,,,,,,,,,,,m,1,0.8129,,,,,,,,0.18610837,-0.136756416,0,0,0,,0,2,2,64,1,JELLY,HB,old,m,./images/JELLYHB.png,,,,,,,,,,,,,,,,,,,,,,
,,,,,,,,,,,,,,,,,199411,18,2022-01-28_20h37.51.150,lexical_decision_task_DD,2021.2.3,Win32,59.88023952,,,,,,,,,,,0.5924,1,,,,,,,,,,,,,,m,1,0.5924,,,,,,,,0.18610837,-0.136756416,0,0,0,,0,3,3,29,1,CRUMB,LB,old,m,./images/CRUMBLB.png,,,,,,,,,,,,,,,,,,,,,,
,,,,,,,,,,,,,,,,,199411,18,2022-01-28_20h37.51.150,lexical_decision_task_DD,2021.2.3,Win32,59.88023952,,,,,,,,,,,1.0126,1,,,,,,,,,,,,,,z,1,1.0126,,,,,,,,0.18610837,-0.136756416,0,0,0,,0,4,4,116,1,BALGY,LB,old,z,./images/BALGYLB.png,,,,,,,,,,,,,,,,,,,,,,
,,,,,,,,,,,,,,,,,199411,18,2022-01-28_20h37.51.150,lexical_decision_task_DD,2021.2.3,Win32,59.88023952,,,,,,,,,,,0.9975,1,,,,,,,,,,,,,,m,1,0.9975,,,,,,,,0.18610837,-0.136756416,0,0,0,,0,5,5,57,1,MOOSE,C,old,m,./images/MOOSE.png,,,,,,,,,,,,,,,,,,,,,,
,,,,,,,,,,,,,,,,,199411,18,2022-01-28_20h37.51.150,lexical_decision_task_DD,2021.2.3,Win32,59.88023952,,,,,,,,,,,0.8089,1,,,,,,,,,,,,,,z,1,0.8089,,,,,,,,0.18610837,-0.136756416,0,0,0,,0,6,6,146,1,MOOST,LB,old,z,./images/MOOSTLB.png,,,,,,,,,,,,,,,,,,,,,,
,,,,,,,,,,,,,,,,,199411,18,2022-01-28_20h37.51.150,lexical_decision_task_DD,2021.2.3,Win32,59.88023952,,,,,,,,,,,0.9755,1,,,,,,,,,,,,,,z,1,0.9755,,,,,,,,0.18610837,-0.136756416,0,0,0,,0,7,7,149,1,VEASE,LB,old,z,./images/VEASELB.png,,,,,,,,,,,,,,,,,,,,,,
,,,,,,,,,,,,,,,,,199411,18,2022-01-28_20h37.51.150,lexical_decision_task_DD,2021.2.3,Win32,59.88023952,,,,,,,,,,,0.6592,1,,,,,,,,,,,,,,z,1,0.6592,,,,,,,,0.18610837,-0.136756416,0,0,0,,0,8,8,126,1,GUELS,C,old,z,./images/GUELS.png,,,,,,,,,,,,,,,,,,,,,,
,,,,,,,,,,,,,,,,,199411,18,2022-01-28_20h37.51.150,lexical_decision_task_DD,2021.2.3,Win32,59.88023952,,,,,,,,,,,1.1105,1,,,,,,,,,,,,,,z,1,1.1105,,,,,,,,0.18610837,-0.136756416,0,0,0,,0,9,9,122,1,BLOOT,LB,old,z,./images/BLOOTLB.png,,,,,,,,,,,,,,,,,,,,,,
,,,,,,,,,,,,,,,,,199411,18,2022-01-28_20h37.51.150,lexical_decision_task_DD,2021.2.3,Win32,59.88023952,,,,,,,,,,,2.7159,1,,,,,,,,,,,,,,z,1,2.7159,,,,,,,,0.18610837,-0.136756416,0,0,0,,0,10,10,130,1,CRILL,HB,old,z,./images/CRILLHB.png,,,,,,,,,,,,,,,,,,,,,,
,,,,,,,,,,,,,,,,,199411,18,2022-01-28_20h37.51.150,lexical_decision_task_DD,2021.2.3,Win32,59.88023952,,,,,,,,,,,0.6317,1,,,,,,,,,,,,,,z,1,0.6317,,,,,,,,0.18610837,-0.136756416,0,0,0,,0,11,11,123,1,SEDGE,C,old,z,./images/SEDGE.png,,,,,,,,,,,,,,,,,,,,,,
,,,,,,,,,,,,,,,,,199411,18,2022-01-28_20h37.51.150,lexical_decision_task_DD,2021.2.3,Win32,59.88023952,,,,,,,,,,,2.0923,0,,,,,,,,,,,,,,m,0,2.0923,,,,,,,,0.18610837,-0.136756416,0,0,0,,0,12,12,110,1,CRUNK,LB,old,z,./images/CRUNKLB.png,,,,,,,,,,,,,,,,,,,,,,
,,,,,,,,,,,,,,,,,199411,18,2022-01-28_20h37.51.150,lexical_decision_task_DD,2021.2.3,Win32,59.88023952,,,,,,,,,,,0.6134,1,,,,,,,,,,,,,,z,1,0.6134,,,,,,,,0.18610837,-0.136756416,0,0,0,,0,13,13,135,1,JOODY,C,old,z,./images/JOODY.png,,,,,,,,,,,,,,,,,,,,,,
,,,,,,,,,,,,,,,,,199411,18,2022-01-28_20h37.51.150,lexical_decision_task_DD,2021.2.3,Win32,59.88023952,,,,,,,,,,,0.639,1,,,,,,,,,,,,,,m,1,0.639,,,,,,,,0.18610837,-0.136756416,0,0,0,,0,14,14,56,1,PACKET,LB,old,m,./images/PACKETLB.png,,,,,,,,,,,,,,,,,,,,,,
,,,,,,,,,,,,,,,,,199411,18,2022-01-28_20h37.51.150,lexical_decision_task_DD,2021.2.3,Win32,59.88023952,,,,,,,,,,,0.6547,1,,,,,,,,,,,,,,z,1,0.6547,,,,,,,,0.18610837,-0.136756416,0,0,0,,0,15,15,144,1,NAIRY,C,old,z,./images/NAIRY.png,,,,,,,,,,,,,,,,,,,,,,
,,,,,,,,,,,,,,,,,199411,18,2022-01-28_20h37.51.150,lexical_decision_task_DD,2021.2.3,Win32,59.88023952,,,,,,,,,,,0.7153,1,,,,,,,,,,,,,,m,1,0.7153,,,,,,,,0.18610837,-0.136756416,0,0,0,,0,16,16,0,1,TOMATO,C,old,m,./images/TOMATO.png,,,,,,,,,,,,,,,,,,,,,,
,,,,,,,,,,,,,,,,,199411,18,2022-01-28_20h37.51.150,lexical_decision_task_DD,2021.2.3,Win32,59.88023952,,,,,,,,,,,1.8853,1,,,,,,,,,,,,,,z,1,1.8853,,,,,,,,0.18610837,-0.136756416,0,0,0,,0,17,17,164,1,SGREW,LB,old,z,./images/SGREWLB.png,,,,,,,,,,,,,,,,,,,,,,
,,,,,,,,,,,,,,,,,199411,18,2022-01-28_20h37.51.150,lexical_decision_task_DD,2021.2.3,Win32,59.88023952,,,,,,,,,,,0.6682,1,,,,,,,,,,,,,,m,1,0.6682,,,,,,,,0.18610837,-0.136756416,0,0,0,,0,18,18,78,1,LITTER,C,old,m,./images/LITTER.png,,,,,,,,,,,,,,,,,,,,,,
,,,,,,,,,,,,,,,,,199411,18,2022-01-28_20h37.51.150,lexical_decision_task_DD,2021.2.3,Win32,59.88023952,,,,,,,,,,,0.6298,1,,,,,,,,,,,,,,z,1,0.6298,,,,,,,,0.18610837,-0.136756416,0,0,0,,0,19,19,84,1,HAXES,C,old,z,./images/HAXES.png,,,,,,,,,,,,,,,,,,,,,,
,,,,,,,,,,,,,,,,,199411,18,2022-01-28_20h37.51.150,lexical_decision_task_DD,2021.2.3,Win32,59.88023952,,,,,,,,,,,0.534,1,,,,,,,,,,,,,,m,1,0.534,,,,,,,,0.18610837,-0.136756416,0,0,0,,0,20,20,65,1,FARMER,LB,old,m,./images/FARMERLB.png,,,,,,,,,,,,,,,,,,,,,,
,,,,,,,,,,,,,,,,,199411,18,2022-01-28_20h37.51.150,lexical_decision_task_DD,2021.2.3,Win32,59.88023952,,,,,,,,,,,1.2039,1,,,,,,,,,,,,,,m,1,1.2039,,,,,,,,0.18610837,-0.136756416,0,0,0,,0,21,21,58,1,BABOON,HB,old,m,./images/BABOONHB.png,,,,,,,,,,,,,,,,,,,,,,
,,,,,,,,,,,,,,,,,199411,18,2022-01-28_20h37.51.150,lexical_decision_task_DD,2021.2.3,Win32,59.88023952,,,,,,,,,,,1.0276,1,,,,,,,,,,,,,,z,1,1.0276,,,,,,,,0.18610837,-0.136756416,0,0,0,,0,22,22,160,1,VEETS,HB,old,z,./images/VEETSHB.png,,,,,,,,,,,,,,,,,,,,,,
,,,,,,,,,,,,,,,,,199411,18,2022-01-28_20h37.51.150,lexical_decision_task_DD,2021.2.3,Win32,59.88023952,,,,,,,,,,,0.5446,1,,,,,,,,,,,,,,m,1,0.5446,,,,,,,,0.18610837,-0.136756416,0,0,0,,0,23,23,42,1,FOLDER,C,old,m,./images/FOLDER.png,,,,,,,,,,,,,,,,,,,,,,
,,,,,,,,,,,,,,,,,199411,18,2022-01-28_20h37.51.150,lexical_decision_task_DD,2021.2.3,Win32,59.88023952,,,,,,,,,,,0.5783,1,,,,,,,,,,,,,,m,1,0.5783,,,,,,,,0.18610837,-0.136756416,0,0,0,,0,24,24,24,1,SCREW,C,old,m,./images/SCREW.png,,,,,,,,,,,,,,,,,,,,,,
,,,,,,,,,,,,,,,,,199411,18,2022-01-28_20h37.51.150,lexical_decision_task_DD,2021.2.3,Win32,59.88023952,,,,,,,,,,,0.5515,1,,,,,,,,,,,,,,m,1,0.5515,,,,,,,,0.18610837,-0.136756416,0,0,0,,0,25,25,71,1,PIMPLE,LB,old,m,./images/PIMPLELB.png,,,,,,,,,,,,,,,,,,,,,,
,,,,,,,,,,,,,,,,,199411,18,2022-01-28_20h37.51.150,lexical_decision_task_DD,2021.2.3,Win32,59.88023952,,,,,,,,,,,0.8541,0,,,,,,,,,,,,,,m,0,0.8541,,,,,,,,0.18610837,-0.136756416,0,0,0,,0,26,26,85,1,CHULK,HB,old,z,./images/CHULKHB.png,,,,,,,,,,,,,,,,,,,,,,
,,,,,,,,,,,,,,,,,199411,18,2022-01-28_20h37.51.150,lexical_decision_task_DD,2021.2.3,Win32,59.88023952,,,,,,,,,,,1.6503,1,,,,,,,,,,,,,,z,1,1.6503,,,,,,,,0.18610837,-0.136756416,0,0,0,,0,27,27,133,1,POWDY,HB,old,z,./images/POWDYHB.png,,,,,,,,,,,,,,,,,,,,,,
,,,,,,,,,,,,,,,,,199411,18,2022-01-28_20h37.51.150,lexical_decision_task_DD,2021.2.3,Win32,59.88023952,,,,,,,,,,,0.9846,1,,,,,,,,,,,,,,z,1,0.9846,,,,,,,,0.18610837,-0.136756416,0,0,0,,0,28,28,118,1,BAVEL,HB,old,z,./images/BAVELHB.png,,,,,,,,,,,,,,,,,,,,,,
,,,,,,,,,,,,,,,,,199411,18,2022-01-28_20h37.51.150,lexical_decision_task_DD,2021.2.3,Win32,59.88023952,,,,,,,,,,,1.2179,1,,,,,,,,,,,,,,z,1,1.2179,,,,,,,,0.18610837,-0.136756416,0,0,0,,0,29,29,97,1,CHIDS,HB,old,z,./images/CHIDSHB.png,,,,,,,,,,,,,,,,,,,,,,
,,,,,,,,,,,,,,,,,199411,18,2022-01-28_20h37.51.150,lexical_decision_task_DD,2021.2.3,Win32,59.88023952,,,,,,,,,,,0.8998,1,,,,,,,,,,,,,,m,1,0.8998,,,,,,,,0.18610837,-0.136756416,0,0,0,,0,30,30,82,1,SUNSET,HB,old,m,./images/SUNSETHB.png,,,,,,,,,,,,,,,,,,,,,,
,,,,,,,,,,,,,,,,,199411,18,2022-01-28_20h37.51.150,lexical_decision_task_DD,2021.2.3,Win32,59.88023952,,,,,,,,,,,0.667,1,,,,,,,,,,,,,,m,1,0.667,,,,,,,,0.18610837,-0.136756416,0,0,0,,0,31,31,62,1,PURSE,LB,old,m,./images/PURSELB.png,,,,,,,,,,,,,,,,,,,,,,
,,,,,,,,,,,,,,,,,199411,18,2022-01-28_20h37.51.150,lexical_decision_task_DD,2021.2.3,Win32,59.88023952,,,,,,,,,,,0.386,1,,,,,,,,,,,,,,m,1,0.386,,,,,,,,0.18610837,-0.136756416,0,0,0,,0,32,32,36,1,THROAT,C,old,m,./images/THROAT.png,,,,,,,,,,,,,,,,,,,,,,
,,,,,,,,,,,,,,,,,199411,18,2022-01-28_20h37.51.150,lexical_decision_task_DD,2021.2.3,Win32,59.88023952,,,,,,,,,,,0.4112,0,,,,,,,,,,,,,,m,0,0.4112,,,,,,,,0.18610837,-0.136756416,0,0,0,,0,33,33,159,1,CUDDY,C,old,z,./images/CUDDY.png,,,,,,,,,,,,,,,,,,,,,,
,,,,,,,,,,,,,,,,,199411,18,2022-01-28_20h37.51.150,lexical_decision_task_DD,2021.2.3,Win32,59.88023952,,,,,,,,,,,0.7682,1,,,,,,,,,,,,,,m,1,0.7682,,,,,,,,0.18610837,-0.136756416,0,0,0,,0,34,34,73,1,SNACK,HB,old,m,./images/SNACKHB.png,,,,,,,,,,,,,,,,,,,,,,
,,,,,,,,,,,,,,,,,199411,18,2022-01-28_20h37.51.150,lexical_decision_task_DD,2021.2.3,Win32,59.88023952,,,,,,,,,,,1.1011,1,,,,,,,,,,,,,,m,1,1.1011,,,,,,,,0.18610837,-0.136756416,0,0,0,,0,35,35,37,1,BIRTH,HB,old,m,./images/BIRTHHB.png,,,,,,,,,,,,,,,,,,,,,,
,,,,,,,,,,,,,,,,,199411,18,2022-01-28_20h37.51.150,lexical_decision_task_DD,2021.2.3,Win32,59.88023952,,,,,,,,,,,0.7375,1,,,,,,,,,,,,,,z,1,0.7375,,,,,,,,0.18610837,-0.136756416,0,0,0,,0,36,36,113,1,LINEW,LB,old,z,./images/LINEWLB.png,,,,,,,,,,,,,,,,,,,,,,
,,,,,,,,,,,,,,,,,199411,18,2022-01-28_20h37.51.150,lexical_decision_task_DD,2021.2.3,Win32,59.88023952,,,,,,,,,,,1.334,1,,,,,,,,,,,,,,z,1,1.334,,,,,,,,0.18610837,-0.136756416,0,0,0,,0,37,37,106,1,CLUMS,HB,old,z,./images/CLUMSHB.png,,,,,,,,,,,,,,,,,,,,,,
,,,,,,,,,,,,,,,,,199411,18,2022-01-28_20h37.51.150,lexical_decision_task_DD,2021.2.3,Win32,59.88023952,,,,,,,,,,,0.7613,1,,,,,,,,,,,,,,z,1,0.7613,,,,,,,,0.18610837,-0.136756416,0,0,0,,0,38,38,132,1,SCIFF,C,old,z,./images/SCIFF.png,,,,,,,,,,,,,,,,,,,,,,
,,,,,,,,,,,,,,,,,199411,18,2022-01-28_20h37.51.150,lexical_decision_task_DD,2021.2.3,Win32,59.88023952,,,,,,,,,,,0.5998,1,,,,,,,,,,,,,,m,1,0.5998,,,,,,,,0.18610837,-0.136756416,0,0,0,,0,39,39,69,1,COOKER,C,old,m,./images/COOKER.png,,,,,,,,,,,,,,,,,,,,,,
,,,,,,,,,,,,,,,,,199411,18,2022-01-28_20h37.51.150,lexical_decision_task_DD,2021.2.3,Win32,59.88023952,,,,,,,,,,,0.5105,1,,,,,,,,,,,,,,m,1,0.5105,,,,,,,,0.18610837,-0.136756416,0,0,0,,0,40,40,3,1,FINGER,C,old,m,./images/FINGER.png,,,,,,,,,,,,,,,,,,,,,,
,,,,,,,,,,,,,,,,,199411,18,2022-01-28_20h37.51.150,lexical_decision_task_DD,2021.2.3,Win32,59.88023952,,,,,,,,,,,0.5783,1,,,,,,,,,,,,,,m,1,0.5783,,,,,,,,0.18610837,-0.136756416,0,0,0,space,0,41,41,30,1,STORM,C,old,m,./images/STORM.png,8.7484,,,,,,,,,,,,,,,,,,,,,
,,,,,,,,,,,,,,,,,199411,18,2022-01-28_20h37.51.150,lexical_decision_task_DD,2021.2.3,Win32,59.88023952,,,,,,,,,,,1.3528,1,,,,,,,,,,,,,,m,1,1.3528,,,,,,,,0.18610837,-0.136756416,0,0,0,,0,42,42,40,1,SWING,HB,old,m,./images/SWINGHB.png,,,,,,,,,,,,,,,,,,,,,,
,,,,,,,,,,,,,,,,,199411,18,2022-01-28_20h37.51.150,lexical_decision_task_DD,2021.2.3,Win32,59.88023952,,,,,,,,,,,0.9179,1,,,,,,,,,,,,,,z,1,0.9179,,,,,,,,0.18610837,-0.136756416,0,0,0,,0,43,43,154,1,THINT,HB,old,z,./images/THINTHB.png,,,,,,,,,,,,,,,,,,,,,,
,,,,,,,,,,,,,,,,,199411,18,2022-01-28_20h37.51.150,lexical_decision_task_DD,2021.2.3,Win32,59.88023952,,,,,,,,,,,0.8025,1,,,,,,,,,,,,,,z,1,0.8025,,,,,,,,0.18610837,-0.136756416,0,0,0,,0,44,44,128,1,GRIFT,LB,old,z,./images/GRIFTLB.png,,,,,,,,,,,,,,,,,,,,,,
,,,,,,,,,,,,,,,,,199411,18,2022-01-28_20h37.51.150,lexical_decision_task_DD,2021.2.3,Win32,59.88023952,,,,,,,,,,,0.8478,1,,,,,,,,,,,,,,z,1,0.8478,,,,,,,,0.18610837,-0.136756416,0,0,0,,0,45,45,152,1,FRAIN,LB,old,z,./images/FRAINLB.png,,,,,,,,,,,,,,,,,,,,,,
,,,,,,,,,,,,,,,,,199411,18,2022-01-28_20h37.51.150,lexical_decision_task_DD,2021.2.3,Win32,59.88023952,,,,,,,,,,,0.8536,1,,,,,,,,,,,,,,z,1,0.8536,,,,,,,,0.18610837,-0.136756416,0,0,0,,0,46,46,105,1,MOKER,C,old,z,./images/MOKER.png,,,,,,,,,,,,,,,,,,,,,,
,,,,,,,,,,,,,,,,,199411,18,2022-01-28_20h37.51.150,lexical_decision_task_DD,2021.2.3,Win32,59.88023952,,,,,,,,,,,0.7261,1,,,,,,,,,,,,,,m,1,0.7261,,,,,,,,0.18610837,-0.136756416,0,0,0,,0,47,47,25,1,WRIST,HB,old,m,./images/WRISTHB.png,,,,,,,,,,,,,,,,,,,,,,
,,,,,,,,,,,,,,,,,199411,18,2022-01-28_20h37.51.150,lexical_decision_task_DD,2021.2.3,Win32,59.88023952,,,,,,,,,,,0.5984,1,,,,,,,,,,,,,,m,1,0.5984,,,,,,,,0.18610837,-0.136756416,0,0,0,,0,48,48,79,1,CRUST,HB,old,m,./images/CRUSTHB.png,,,,,,,,,,,,,,,,,,,,,,
,,,,,,,,,,,,,,,,,199411,18,2022-01-28_20h37.51.150,lexical_decision_task_DD,2021.2.3,Win32,59.88023952,,,,,,,,,,,1.1039,1,,,,,,,,,,,,,,z,1,1.1039,,,,,,,,0.18610837,-0.136756416,0,0,0,,0,49,49,136,1,WERVE,HB,old,z,./images/WERVEHB.png,,,,,,,,,,,,,,,,,,,,,,
,,,,,,,,,,,,,,,,,199411,18,2022-01-28_20h37.51.150,lexical_decision_task_DD,2021.2.3,Win32,59.88023952,,,,,,,,,,,0.5983,1,,,,,,,,,,,,,,z,1,0.5983,,,,,,,,0.18610837,-0.136756416,0,0,0,,0,50,50,117,1,STEEG,C,old,z,./images/STEEG.png,,,,,,,,,,,,,,,,,,,,,,
,,,,,,,,,,,,,,,,,199411,18,2022-01-28_20h37.51.150,lexical_decision_task_DD,2021.2.3,Win32,59.88023952,,,,,,,,,,,0.5398,1,,,,,,,,,,,,,,z,1,0.5398,,,,,,,,0.18610837,-0.136756416,0,0,0,,0,51,51,147,1,ZOLES,C,old,z,./images/ZOLES.png,,,,,,,,,,,,,,,,,,,,,,
,,,,,,,,,,,,,,,,,199411,18,2022-01-28_20h37.51.150,lexical_decision_task_DD,2021.2.3,Win32,59.88023952,,,,,,,,,,,0.827,1,,,,,,,,,,,,,,z,1,0.827,,,,,,,,0.18610837,-0.136756416,0,0,0,,0,52,52,145,1,LAMEL,HB,old,z,./images/LAMELHB.png,,,,,,,,,,,,,,,,,,,,,,
,,,,,,,,,,,,,,,,,199411,18,2022-01-28_20h37.51.150,lexical_decision_task_DD,2021.2.3,Win32,59.88023952,,,,,,,,,,,0.4967,1,,,,,,,,,,,,,,m,1,0.4967,,,,,,,,0.18610837,-0.136756416,0,0,0,,0,53,53,48,1,SPORT,C,old,m,./images/SPORT.png,,,,,,,,,,,,,,,,,,,,,,
,,,,,,,,,,,,,,,,,199411,18,2022-01-28_20h37.51.150,lexical_decision_task_DD,2021.2.3,Win32,59.88023952,,,,,,,,,,,0.4966,1,,,,,,,,,,,,,,m,1,0.4966,,,,,,,,0.18610837,-0.136756416,0,0,0,,0,54,54,51,1,ONION,C,old,m,./images/ONION.png,,,,,,,,,,,,,,,,,,,,,,
,,,,,,,,,,,,,,,,,199411,18,2022-01-28_20h37.51.150,lexical_decision_task_DD,2021.2.3,Win32,59.88023952,,,,,,,,,,,1.1229,1,,,,,,,,,,,,,,m,1,1.1229,,,,,,,,0.18610837,-0.136756416,0,0,0,,0,55,55,13,1,MOTOR,HB,old,m,./images/MOTORHB.png,,,,,,,,,,,,,,,,,,,,,,
,,,,,,,,,,,,,,,,,199411,18,2022-01-28_20h37.51.150,lexical_decision_task_DD,2021.2.3,Win32,59.88023952,,,,,,,,,,,0.9773,1,,,,,,,,,,,,,,z,1,0.9773,,,,,,,,0.18610837,-0.136756416,0,0,0,,0,56,56,91,1,SHENS,HB,old,z,./images/SHENSHB.png,,,,,,,,,,,,,,,,,,,,,,
,,,,,,,,,,,,,,,,,199411,18,2022-01-28_20h37.51.150,lexical_decision_task_DD,2021.2.3,Win32,59.88023952,,,,,,,,,,,1.0508,1,,,,,,,,,,,,,,m,1,1.0508,,,,,,,,0.18610837,-0.136756416,0,0,0,,0,57,57,80,1,WEASEL,LB,old,m,./images/WEASELLB.png,,,,,,,,,,,,,,,,,,,,,,
,,,,,,,,,,,,,,,,,199411,18,2022-01-28_20h37.51.150,lexical_decision_task_DD,2021.2.3,Win32,59.88023952,,,,,,,,,,,0.6847,1,,,,,,,,,,,,,,m,1,0.6847,,,,,,,,0.18610837,-0.136756416,0,0,0,,0,58,58,21,1,KIDNEY,C,old,m,./images/KIDNEY.png,,,,,,,,,,,,,,,,,,,,,,
,,,,,,,,,,,,,,,,,199411,18,2022-01-28_20h37.51.150,lexical_decision_task_DD,2021.2.3,Win32,59.88023952,,,,,,,,,,,0.4842,1,,,,,,,,,,,,,,m,1,0.4842,,,,,,,,0.18610837,-0.136756416,0,0,0,,0,59,59,14,1,PICKLE,LB,old,m,./images/PICKLELB.png,,,,,,,,,,,,,,,,,,,,,,
,,,,,,,,,,,,,,,,,199411,18,2022-01-28_20h37.51.150,lexical_decision_task_DD,2021.2.3,Win32,59.88023952,,,,,,,,,,,1.3504,1,,,,,,,,,,,,,,m,1,1.3504,,,,,,,,0.18610837,-0.136756416,0,0,0,,0,60,60,46,1,PEARL,HB,old,m,./images/PEARLHB.png,,,,,,,,,,,,,,,,,,,,,,
,,,,,,,,,,,,,,,,,199411,18,2022-01-28_20h37.51.150,lexical_decision_task_DD,2021.2.3,Win32,59.88023952,,,,,,,,,,,0.7662,1,,,,,,,,,,,,,,z,1,0.7662,,,,,,,,0.18610837,-0.136756416,0,0,0,,0,61,61,96,1,KEAMS,C,old,z,./images/KEAMS.png,,,,,,,,,,,,,,,,,,,,,,
,,,,,,,,,,,,,,,,,199411,18,2022-01-28_20h37.51.150,lexical_decision_task_DD,2021.2.3,Win32,59.88023952,,,,,,,,,,,0.6147,1,,,,,,,,,,,,,,m,1,0.6147,,,,,,,,0.18610837,-0.136756416,0,0,0,,0,62,62,27,1,ATTIC,C,old,m,./images/ATTIC.png,,,,,,,,,,,,,,,,,,,,,,
,,,,,,,,,,,,,,,,,199411,18,2022-01-28_20h37.51.150,lexical_decision_task_DD,2021.2.3,Win32,59.88023952,,,,,,,,,,,0.6342,1,,,,,,,,,,,,,,z,1,0.6342,,,,,,,,0.18610837,-0.136756416,0,0,0,,0,63,63,131,1,NACES,LB,old,z,./images/NACESLB.png,,,,,,,,,,,,,,,,,,,,,,
,,,,,,,,,,,,,,,,,199411,18,2022-01-28_20h37.51.150,lexical_decision_task_DD,2021.2.3,Win32,59.88023952,,,,,,,,,,,0.9356,1,,,,,,,,,,,,,,z,1,0.9356,,,,,,,,0.18610837,-0.136756416,0,0,0,,0,64,64,99,1,BACKY,C,old,z,./images/BACKY.png,,,,,,,,,,,,,,,,,,,,,,
,,,,,,,,,,,,,,,,,199411,18,2022-01-28_20h37.51.150,lexical_decision_task_DD,2021.2.3,Win32,59.88023952,,,,,,,,,,,0.7869,1,,,,,,,,,,,,,,m,1,0.7869,,,,,,,,0.18610837,-0.136756416,0,0,0,,0,65,65,52,1,BANNER,HB,old,m,./images/BANNERHB.png,,,,,,,,,,,,,,,,,,,,,,
,,,,,,,,,,,,,,,,,199411,18,2022-01-28_20h37.51.150,lexical_decision_task_DD,2021.2.3,Win32,59.88023952,,,,,,,,,,,0.4847,1,,,,,,,,,,,,,,m,1,0.4847,,,,,,,,0.18610837,-0.136756416,0,0,0,,0,66,66,77,1,COUCH,LB,old,m,./images/COUCHLB.png,,,,,,,,,,,,,,,,,,,,,,
,,,,,,,,,,,,,,,,,199411,18,2022-01-28_20h37.51.150,lexical_decision_task_DD,2021.2.3,Win32,59.88023952,,,,,,,,,,,0.6285,1,,,,,,,,,,,,,,z,1,0.6285,,,,,,,,0.18610837,-0.136756416,0,0,0,,0,67,67,129,1,PRANS,C,old,z,./images/PRANS.png,,,,,,,,,,,,,,,,,,,,,,
,,,,,,,,,,,,,,,,,199411,18,2022-01-28_20h37.51.150,lexical_decision_task_DD,2021.2.3,Win32,59.88023952,,,,,,,,,,,0.7011,1,,,,,,,,,,,,,,z,1,0.7011,,,,,,,,0.18610837,-0.136756416,0,0,0,,0,68,68,93,1,SMONE,C,old,z,./images/SMONE.png,,,,,,,,,,,,,,,,,,,,,,
,,,,,,,,,,,,,,,,,199411,18,2022-01-28_20h37.51.150,lexical_decision_task_DD,2021.2.3,Win32,59.88023952,,,,,,,,,,,0.7117,1,,,,,,,,,,,,,,m,1,0.7117,,,,,,,,0.18610837,-0.136756416,0,0,0,,0,69,69,15,1,GREASE,C,old,m,./images/GREASE.png,,,,,,,,,,,,,,,,,,,,,,
,,,,,,,,,,,,,,,,,199411,18,2022-01-28_20h37.51.150,lexical_decision_task_DD,2021.2.3,Win32,59.88023952,,,,,,,,,,,0.919,0,,,,,,,,,,,,,,z,0,0.919,,,,,,,,0.18610837,-0.136756416,0,0,0,,0,70,70,16,1,PENCE,HB,old,m,./images/PENCEHB.png,,,,,,,,,,,,,,,,,,,,,,
,,,,,,,,,,,,,,,,,199411,18,2022-01-28_20h37.51.150,lexical_decision_task_DD,2021.2.3,Win32,59.88023952,,,,,,,,,,,0.8229,1,,,,,,,,,,,,,,m,1,0.8229,,,,,,,,0.18610837,-0.136756416,0,0,0,,0,71,71,75,1,GRAIN,C,old,m,./images/GRAIN.png,,,,,,,,,,,,,,,,,,,,,,
,,,,,,,,,,,,,,,,,199411,18,2022-01-28_20h37.51.150,lexical_decision_task_DD,2021.2.3,Win32,59.88023952,,,,,,,,,,,0.8844,1,,,,,,,,,,,,,,m,1,0.8844,,,,,,,,0.18610837,-0.136756416,0,0,0,,0,72,72,67,1,SAILOR,HB,old,m,./images/SAILORHB.png,,,,,,,,,,,,,,,,,,,,,,
,,,,,,,,,,,,,,,,,199411,18,2022-01-28_20h37.51.150,lexical_decision_task_DD,2021.2.3,Win32,59.88023952,,,,,,,,,,,0.751,1,,,,,,,,,,,,,,z,1,0.751,,,,,,,,0.18610837,-0.136756416,0,0,0,,0,73,73,155,1,CANGY,LB,old,z,./images/CANGYLB.png,,,,,,,,,,,,,,,,,,,,,,
,,,,,,,,,,,,,,,,,199411,18,2022-01-28_20h37.51.150,lexical_decision_task_DD,2021.2.3,Win32,59.88023952,,,,,,,,,,,0.6852,0,,,,,,,,,,,,,,z,0,0.6852,,,,,,,,0.18610837,-0.136756416,0,0,0,,0,74,74,23,1,WALRUS,LB,old,m,./images/WALRUSLB.png,,,,,,,,,,,,,,,,,,,,,,
,,,,,,,,,,,,,,,,,199411,18,2022-01-28_20h37.51.150,lexical_decision_task_DD,2021.2.3,Win32,59.88023952,,,,,,,,,,,1.0336,0,,,,,,,,,,,,,,z,0,1.0336,,,,,,,,0.18610837,-0.136756416,0,0,0,,0,75,75,50,1,MALLET,LB,old,m,./images/MALLETLB.png,,,,,,,,,,,,,,,,,,,,,,
,,,,,,,,,,,,,,,,,199411,18,2022-01-28_20h37.51.150,lexical_decision_task_DD,2021.2.3,Win32,59.88023952,,,,,,,,,,,0.5338,1,,,,,,,,,,,,,,m,1,0.5338,,,,,,,,0.18610837,-0.136756416,0,0,0,,0,76,76,35,1,PEACH,LB,old,m,./images/PEACHLB.png,,,,,,,,,,,,,,,,,,,,,,
,,,,,,,,,,,,,,,,,199411,18,2022-01-28_20h37.51.150,lexical_decision_task_DD,2021.2.3,Win32,59.88023952,,,,,,,,,,,1.457,1,,,,,,,,,,,,,,z,1,1.457,,,,,,,,0.18610837,-0.136756416,0,0,0,,0,77,77,87,1,TRING,C,old,z,./images/TRING.png,,,,,,,,,,,,,,,,,,,,,,
,,,,,,,,,,,,,,,,,199411,18,2022-01-28_20h37.51.150,lexical_decision_task_DD,2021.2.3,Win32,59.88023952,,,,,,,,,,,0.6848,1,,,,,,,,,,,,,,m,1,0.6848,,,,,,,,0.18610837,-0.136756416,0,0,0,,0,78,78,32,1,BARREL,LB,old,m,./images/BARRELLB.png,,,,,,,,,,,,,,,,,,,,,,
,,,,,,,,,,,,,,,,,199411,18,2022-01-28_20h37.51.150,lexical_decision_task_DD,2021.2.3,Win32,59.88023952,,,,,,,,,,,0.5646,1,,,,,,,,,,,,,,m,1,0.5646,,,,,,,,0.18610837,-0.136756416,0,0,0,,0,79,79,39,1,SHELF,C,old,m,./images/SHELF.png,,,,,,,,,,,,,,,,,,,,,,
,,,,,,,,,,,,,,,,,199411,18,2022-01-28_20h37.51.150,lexical_decision_task_DD,2021.2.3,Win32,59.88023952,,,,,,,,,,,0.6825,1,,,,,,,,,,,,,,z,1,0.6825,,,,,,,,0.18610837,-0.136756416,0,0,0,,0,80,80,162,1,LEICH,C,old,z,./images/LEICH.png,,,,,,,,,,,,,,,,,,,,,,
,,,,,,,,,,,,,,,,,199411,18,2022-01-28_20h37.51.150,lexical_decision_task_DD,2021.2.3,Win32,59.88023952,,,,,,,,,,,1.7714,1,,,,,,,,,,,,,,z,1,1.7714,,,,,,,,0.18610837,-0.136756416,0,0,0,,0,81,81,163,1,GAMBA,HB,old,z,./images/GAMBAHB.png,,,,,,,,,,,,,,,,,,,,,,
,,,,,,,,,,,,,,,,,199411,18,2022-01-28_20h37.51.150,lexical_decision_task_DD,2021.2.3,Win32,59.88023952,,,,,,,,,,,0.5334,1,,,,,,,,,,,,,,m,1,0.5334,,,,,,,,0.18610837,-0.136756416,0,0,0,,0,82,82,61,1,CANDLE,HB,old,m,./images/CANDLEHB.png,,,,,,,,,,,,,,,,,,,,,,
,,,,,,,,,,,,,,,,,199411,18,2022-01-28_20h37.51.150,lexical_decision_task_DD,2021.2.3,Win32,59.88023952,,,,,,,,,,,0.571,0,,,,,,,,,,,,,,m,0,0.571,,,,,,,,0.18610837,-0.136756416,0,0,0,space,0,83,83,88,1,GLUSH,HB,old,z,./images/GLUSHHB.png,1.6514,,,,,,,,,,,,,,,,,,,,,
,,,,,,,,,,,,,,,,,199411,18,2022-01-28_20h37.51.150,lexical_decision_task_DD,2021.2.3,Win32,59.88023952,,,,,,,,,,,0.595,1,,,,,,,,,,,,,,m,1,0.595,,,,,,,,0.18610837,-0.136756416,0,0,0,,0,84,84,33,1,MAGGOT,C,old,m,./images/MAGGOT.png,,,,,,,,,,,,,,,,,,,,,,
,,,,,,,,,,,,,,,,,199411,18,2022-01-28_20h37.51.150,lexical_decision_task_DD,2021.2.3,Win32,59.88023952,,,,,,,,,,,0.9673,1,,,,,,,,,,,,,,m,1,0.9673,,,,,,,,0.18610837,-0.136756416,0,0,0,,0,85,85,55,1,MUFFIN,HB,old,m,./images/MUFFINHB.png,,,,,,,,,,,,,,,,,,,,,,
,,,,,,,,,,,,,,,,,199411,18,2022-01-28_20h37.51.150,lexical_decision_task_DD,2021.2.3,Win32,59.88023952,,,,,,,,,,,0.6512,1,,,,,,,,,,,,,,z,1,0.6512,,,,,,,,0.18610837,-0.136756416,0,0,0,,0,86,86,98,1,BAMPS,LB,old,z,./images/BAMPSLB.png,,,,,,,,,,,,,,,,,,,,,,
,,,,,,,,,,,,,,,,,199411,18,2022-01-28_20h37.51.150,lexical_decision_task_DD,2021.2.3,Win32,59.88023952,,,,,,,,,,,0.5668,1,,,,,,,,,,,,,,z,1,0.5668,,,,,,,,0.18610837,-0.136756416,0,0,0,,0,87,87,120,1,RINED,C,old,z,./images/RINED.png,,,,,,,,,,,,,,,,,,,,,,
,,,,,,,,,,,,,,,,,199411,18,2022-01-28_20h37.51.150,lexical_decision_task_DD,2021.2.3,Win32,59.88023952,,,,,,,,,,,0.6177,1,,,,,,,,,,,,,,z,1,0.6177,,,,,,,,0.18610837,-0.136756416,0,0,0,,0,88,88,153,1,CLUPS,C,old,z,./images/CLUPS.png,,,,,,,,,,,,,,,,,,,,,,
,,,,,,,,,,,,,,,,,199411,18,2022-01-28_20h37.51.150,lexical_decision_task_DD,2021.2.3,Win32,59.88023952,,,,,,,,,,,0.7847,1,,,,,,,,,,,,,,z,1,0.7847,,,,,,,,0.18610837,-0.136756416,0,0,0,,0,89,89,141,1,PLEET,C,old,z,./images/PLEET.png,,,,,,,,,,,,,,,,,,,,,,
,,,,,,,,,,,,,,,,,199411,18,2022-01-28_20h37.51.150,lexical_decision_task_DD,2021.2.3,Win32,59.88023952,,,,,,,,,,,0.7444,1,,,,,,,,,,,,,,z,1,0.7444,,,,,,,,0.18610837,-0.136756416,0,0,0,,0,90,90,139,1,BLEAR,HB,old,z,./images/BLEARHB.png,,,,,,,,,,,,,,,,,,,,,,
,,,,,,,,,,,,,,,,,199411,18,2022-01-28_20h37.51.150,lexical_decision_task_DD,2021.2.3,Win32,59.88023952,,,,,,,,,,,0.8519,1,,,,,,,,,,,,,,m,1,0.8519,,,,,,,,0.18610837,-0.136756416,0,0,0,,0,91,91,59,1,BURIAL,LB,old,m,./images/BURIALLB.png,,,,,,,,,,,,,,,,,,,,,,
,,,,,,,,,,,,,,,,,199411,18,2022-01-28_20h37.51.150,lexical_decision_task_DD,2021.2.3,Win32,59.88023952,,,,,,,,,,,0.7422,1,,,,,,,,,,,,,,z,1,0.7422,,,,,,,,0.18610837,-0.136756416,0,0,0,,0,92,92,148,1,JOMS,HB,old,z,./images/JOMSHB.png,,,,,,,,,,,,,,,,,,,,,,
,,,,,,,,,,,,,,,,,199411,18,2022-01-28_20h37.51.150,lexical_decision_task_DD,2021.2.3,Win32,59.88023952,,,,,,,,,,,0.4153,1,,,,,,,,,,,,,,m,1,0.4153,,,,,,,,0.18610837,-0.136756416,0,0,0,,0,93,93,63,1,MIRROR,C,old,m,./images/MIRROR.png,,,,,,,,,,,,,,,,,,,,,,
,,,,,,,,,,,,,,,,,199411,18,2022-01-28_20h37.51.150,lexical_decision_task_DD,2021.2.3,Win32,59.88023952,,,,,,,,,,,0.6172,1,,,,,,,,,,,,,,m,1,0.6172,,,,,,,,0.18610837,-0.136756416,0,0,0,,0,94,94,44,1,LIZARD,LB,old,m,./images/LIZARDLB.png,,,,,,,,,,,,,,,,,,,,,,
,,,,,,,,,,,,,,,,,199411,18,2022-01-28_20h37.51.150,lexical_decision_task_DD,2021.2.3,Win32,59.88023952,,,,,,,,,,,0.7342,1,,,,,,,,,,,,,,z,1,0.7342,,,,,,,,0.18610837,-0.136756416,0,0,0,,0,95,95,167,1,ZONET,LB,old,z,./images/ZONETLB.png,,,,,,,,,,,,,,,,,,,,,,
,,,,,,,,,,,,,,,,,199411,18,2022-01-28_20h37.51.150,lexical_decision_task_DD,2021.2.3,Win32,59.88023952,,,,,,,,,,,0.6349,1,,,,,,,,,,,,,,m,1,0.6349,,,,,,,,0.18610837,-0.136756416,0,0,0,,0,96,96,5,1,PASTA,LB,old,m,./images/PASTALB.png,,,,,,,,,,,,,,,,,,,,,,
,,,,,,,,,,,,,,,,,199411,18,2022-01-28_20h37.51.150,lexical_decision_task_DD,2021.2.3,Win32,59.88023952,,,,,,,,,,,0.5683,1,,,,,,,,,,,,,,m,1,0.5683,,,,,,,,0.18610837,-0.136756416,0,0,0,,0,97,97,38,1,LADDER,LB,old,m,./images/LADDERLB.png,,,,,,,,,,,,,,,,,,,,,,
,,,,,,,,,,,,,,,,,199411,18,2022-01-28_20h37.51.150,lexical_decision_task_DD,2021.2.3,Win32,59.88023952,,,,,,,,,,,0.5936,1,,,,,,,,,,,,,,m,1,0.5936,,,,,,,,0.18610837,-0.136756416,0,0,0,,0,98,98,9,1,RHINO,C,old,m,./images/RHINO.png,,,,,,,,,,,,,,,,,,,,,,
,,,,,,,,,,,,,,,,,199411,18,2022-01-28_20h37.51.150,lexical_decision_task_DD,2021.2.3,Win32,59.88023952,,,,,,,,,,,1.1168,1,,,,,,,,,,,,,,m,1,1.1168,,,,,,,,0.18610837,-0.136756416,0,0,0,,0,99,99,31,1,QUILL,HB,old,m,./images/QUILLHB.png,,,,,,,,,,,,,,,,,,,,,,
,,,,,,,,,,,,,,,,,199411,18,2022-01-28_20h37.51.150,lexical_decision_task_DD,2021.2.3,Win32,59.88023952,,,,,,,,,,,0.7507,1,,,,,,,,,,,,,,z,1,0.7507,,,,,,,,0.18610837,-0.136756416,0,0,0,,0,100,100,140,1,DOVET,LB,old,z,./images/DOVETLB.png,,,,,,,,,,,,,,,,,,,,,,
,,,,,,,,,,,,,,,,,199411,18,2022-01-28_20h37.51.150,lexical_decision_task_DD,2021.2.3,Win32,59.88023952,,,,,,,,,,,0.5342,1,,,,,,,,,,,,,,m,1,0.5342,,,,,,,,0.18610837,-0.136756416,0,0,0,,0,101,101,83,1,JUNGLE,LB,old,m,./images/JUNGLELB.png,,,,,,,,,,,,,,,,,,,,,,
,,,,,,,,,,,,,,,,,199411,18,2022-01-28_20h37.51.150,lexical_decision_task_DD,2021.2.3,Win32,59.88023952,,,,,,,,,,,0.8852,1,,,,,,,,,,,,,,m,1,0.8852,,,,,,,,0.18610837,-0.136756416,0,0,0,,0,102,102,8,1,TULIP,LB,old,m,./images/TULIPLB.png,,,,,,,,,,,,,,,,,,,,,,
,,,,,,,,,,,,,,,,,199411,18,2022-01-28_20h37.51.150,lexical_decision_task_DD,2021.2.3,Win32,59.88023952,,,,,,,,,,,0.6176,0,,,,,,,,,,,,,,m,0,0.6176,,,,,,,,0.18610837,-0.136756416,0,0,0,,0,103,103,142,1,PLASK,HB,old,z,./images/PLASKHB.png,,,,,,,,,,,,,,,,,,,,,,
,,,,,,,,,,,,,,,,,199411,18,2022-01-28_20h37.51.150,lexical_decision_task_DD,2021.2.3,Win32,59.88023952,,,,,,,,,,,0.7863,1,,,,,,,,,,,,,,m,1,0.7863,,,,,,,,0.18610837,-0.136756416,0,0,0,,0,104,104,28,1,FALCON,HB,old,m,./images/FALCONHB.png,,,,,,,,,,,,,,,,,,,,,,
,,,,,,,,,,,,,,,,,199411,18,2022-01-28_20h37.51.150,lexical_decision_task_DD,2021.2.3,Win32,59.88023952,,,,,,,,,,,0.5962,1,,,,,,,,,,,,,,z,1,0.5962,,,,,,,,0.18610837,-0.136756416,0,0,0,,0,105,105,114,1,RIKES,C,old,z,./images/RIKES.png,,,,,,,,,,,,,,,,,,,,,,
,,,,,,,,,,,,,,,,,199411,18,2022-01-28_20h37.51.150,lexical_decision_task_DD,2021.2.3,Win32,59.88023952,,,,,,,,,,,2.6683,1,,,,,,,,,,,,,,z,1,2.6683,,,,,,,,0.18610837,-0.136756416,0,0,0,,0,106,106,166,1,SHORY,HB,old,z,./images/SHORYHB.png,,,,,,,,,,,,,,,,,,,,,,
,,,,,,,,,,,,,,,,,199411,18,2022-01-28_20h37.51.150,lexical_decision_task_DD,2021.2.3,Win32,59.88023952,,,,,,,,,,,1.0511,1,,,,,,,,,,,,,,z,1,1.0511,,,,,,,,0.18610837,-0.136756416,0,0,0,,0,107,107,115,1,MAWNS,HB,old,z,./images/MAWNSHB.png,,,,,,,,,,,,,,,,,,,,,,
,,,,,,,,,,,,,,,,,199411,18,2022-01-28_20h37.51.150,lexical_decision_task_DD,2021.2.3,Win32,59.88023952,,,,,,,,,,,0.6822,1,,,,,,,,,,,,,,m,1,0.6822,,,,,,,,0.18610837,-0.136756416,0,0,0,,0,108,108,54,1,TRIPOD,C,old,m,./images/TRIPOD.png,,,,,,,,,,,,,,,,,,,,,,
,,,,,,,,,,,,,,,,,199411,18,2022-01-28_20h37.51.150,lexical_decision_task_DD,2021.2.3,Win32,59.88023952,,,,,,,,,,,0.6008,1,,,,,,,,,,,,,,z,1,0.6008,,,,,,,,0.18610837,-0.136756416,0,0,0,,0,109,109,90,1,NEAST,C,old,z,./images/NEAST.png,,,,,,,,,,,,,,,,,,,,,,
,,,,,,,,,,,,,,,,,199411,18,2022-01-28_20h37.51.150,lexical_decision_task_DD,2021.2.3,Win32,59.88023952,,,,,,,,,,,0.6009,1,,,,,,,,,,,,,,z,1,0.6009,,,,,,,,0.18610837,-0.136756416,0,0,0,,0,110,110,104,1,GITTY,LB,old,z,./images/GITTYLB.png,,,,,,,,,,,,,,,,,,,,,,
,,,,,,,,,,,,,,,,,199411,18,2022-01-28_20h37.51.150,lexical_decision_task_DD,2021.2.3,Win32,59.88023952,,,,,,,,,,,0.7011,1,,,,,,,,,,,,,,z,1,0.7011,,,,,,,,0.18610837,-0.136756416,0,0,0,,0,111,111,134,1,TROSS,LB,old,z,./images/TROSSLB.png,,,,,,,,,,,,,,,,,,,,,,
,,,,,,,,,,,,,,,,,199411,18,2022-01-28_20h37.51.150,lexical_decision_task_DD,2021.2.3,Win32,59.88023952,,,,,,,,,,,0.7684,1,,,,,,,,,,,,,,z,1,0.7684,,,,,,,,0.18610837,-0.136756416,0,0,0,,0,112,112,127,1,NINDY,HB,old,z,./images/NINDYHB.png,,,,,,,,,,,,,,,,,,,,,,
,,,,,,,,,,,,,,,,,199411,18,2022-01-28_20h37.51.150,lexical_decision_task_DD,2021.2.3,Win32,59.88023952,,,,,,,,,,,0.6677,1,,,,,,,,,,,,,,z,1,0.6677,,,,,,,,0.18610837,-0.136756416,0,0,0,,0,113,113,107,1,FASKS,LB,old,z,./images/FASKSLB.png,,,,,,,,,,,,,,,,,,,,,,
,,,,,,,,,,,,,,,,,199411,18,2022-01-28_20h37.51.150,lexical_decision_task_DD,2021.2.3,Win32,59.88023952,,,,,,,,,,,0.5707,0,,,,,,,,,,,,,,z,0,0.5707,,,,,,,,0.18610837,-0.136756416,0,0,0,,0,114,114,17,1,SKIING,LB,old,m,./images/SKIINGLB.png,,,,,,,,,,,,,,,,,,,,,,
,,,,,,,,,,,,,,,,,199411,18,2022-01-28_20h37.51.150,lexical_decision_task_DD,2021.2.3,Win32,59.88023952,,,,,,,,,,,1.4346,1,,,,,,,,,,,,,,m,1,1.4346,,,,,,,,0.18610837,-0.136756416,0,0,0,,0,115,115,7,1,PAINT,HB,old,m,./images/PAINTHB.png,,,,,,,,,,,,,,,,,,,,,,
,,,,,,,,,,,,,,,,,199411,18,2022-01-28_20h37.51.150,lexical_decision_task_DD,2021.2.3,Win32,59.88023952,,,,,,,,,,,0.5735,1,,,,,,,,,,,,,,m,1,0.5735,,,,,,,,0.18610837,-0.136756416,0,0,0,,0,116,116,47,1,BERRY,LB,old,m,./images/BERRYLB.png,,,,,,,,,,,,,,,,,,,,,,
,,,,,,,,,,,,,,,,,199411,18,2022-01-28_20h37.51.150,lexical_decision_task_DD,2021.2.3,Win32,59.88023952,,,,,,,,,,,0.5849,1,,,,,,,,,,,,,,m,1,0.5849,,,,,,,,0.18610837,-0.136756416,0,0,0,,0,117,117,11,1,BONNET,LB,old,m,./images/BONNETLB.png,,,,,,,,,,,,,,,,,,,,,,
,,,,,,,,,,,,,,,,,199411,18,2022-01-28_20h37.51.150,lexical_decision_task_DD,2021.2.3,Win32,59.88023952,,,,,,,,,,,0.6185,1,,,,,,,,,,,,,,m,1,0.6185,,,,,,,,0.18610837,-0.136756416,0,0,0,,0,118,118,74,1,CEMENT,LB,old,m,./images/CEMENTLB.png,,,,,,,,,,,,,,,,,,,,,,
,,,,,,,,,,,,,,,,,199411,18,2022-01-28_20h37.51.150,lexical_decision_task_DD,2021.2.3,Win32,59.88023952,,,,,,,,,,,1.3012,1,,,,,,,,,,,,,,z,1,1.3012,,,,,,,,0.18610837,-0.136756416,0,0,0,,0,119,119,151,1,TINKY,HB,old,z,./images/TINKYHB.png,,,,,,,,,,,,,,,,,,,,,,
,,,,,,,,,,,,,,,,,199411,18,2022-01-28_20h37.51.150,lexical_decision_task_DD,2021.2.3,Win32,59.88023952,,,,,,,,,,,0.4773,1,,,,,,,,,,,,,,m,1,0.4773,,,,,,,,0.18610837,-0.136756416,0,0,0,,0,120,120,18,1,JAGUAR,C,old,m,./images/JAGUAR.png,,,,,,,,,,,,,,,,,,,,,,
,,,,,,,,,,,,,,,,,199411,18,2022-01-28_20h37.51.150,lexical_decision_task_DD,2021.2.3,Win32,59.88023952,,,,,,,,,,,0.5687,1,,,,,,,,,,,,,,z,1,0.5687,,,,,,,,0.18610837,-0.136756416,0,0,0,,0,121,121,156,1,HIXES,C,old,z,./images/HIXES.png,,,,,,,,,,,,,,,,,,,,,,
,,,,,,,,,,,,,,,,,199411,18,2022-01-28_20h37.51.150,lexical_decision_task_DD,2021.2.3,Win32,59.88023952,,,,,,,,,,,1.1344,1,,,,,,,,,,,,,,m,1,1.1344,,,,,,,,0.18610837,-0.136756416,0,0,0,,0,122,122,49,1,DRUMS,HB,old,m,./images/DRUMSHB.png,,,,,,,,,,,,,,,,,,,,,,
,,,,,,,,,,,,,,,,,199411,18,2022-01-28_20h37.51.150,lexical_decision_task_DD,2021.2.3,Win32,59.88023952,,,,,,,,,,,0.6023,1,,,,,,,,,,,,,,z,1,0.6023,,,,,,,,0.18610837,-0.136756416,0,0,0,,0,123,123,137,1,JOOST,LB,old,z,./images/JOOSTLB.png,,,,,,,,,,,,,,,,,,,,,,
,,,,,,,,,,,,,,,,,199411,18,2022-01-28_20h37.51.150,lexical_decision_task_DD,2021.2.3,Win32,59.88023952,,,,,,,,,,,0.7179,1,,,,,,,,,,,,,,z,1,0.7179,,,,,,,,0.18610837,-0.136756416,0,0,0,,0,124,124,108,1,GRUET,C,old,z,./images/GRUET.png,,,,,,,,,,,,,,,,,,,,,,
,,,,,,,,,,,,,,,,,199411,18,2022-01-28_20h37.51.150,lexical_decision_task_DD,2021.2.3,Win32,59.88023952,,,,,,,,,,,0.6351,1,,,,,,,,,,,,,,z,1,0.6351,,,,,,,,0.18610837,-0.136756416,0,0,0,space,0,125,125,119,1,PAFER,LB,old,z,./images/PAFERLB.png,6.1181,,,,,,,,,,,,,,,,,,,,,
,,,,,,,,,,,,,,,,,199411,18,2022-01-28_20h37.51.150,lexical_decision_task_DD,2021.2.3,Win32,59.88023952,,,,,,,,,,,0.8847,1,,,,,,,,,,,,,,m,1,0.8847,,,,,,,,0.18610837,-0.136756416,0,0,0,,0,126,126,76,1,INFANT,HB,old,m,./images/INFANTHB.png,,,,,,,,,,,,,,,,,,,,,,
,,,,,,,,,,,,,,,,,199411,18,2022-01-28_20h37.51.150,lexical_decision_task_DD,2021.2.3,Win32,59.88023952,,,,,,,,,,,0.7347,1,,,,,,,,,,,,,,z,1,0.7347,,,,,,,,0.18610837,-0.136756416,0,0,0,,0,127,127,112,1,MYING,HB,old,z,./images/MYINGHB.png,,,,,,,,,,,,,,,,,,,,,,
,,,,,,,,,,,,,,,,,199411,18,2022-01-28_20h37.51.150,lexical_decision_task_DD,2021.2.3,Win32,59.88023952,,,,,,,,,,,0.5519,1,,,,,,,,,,,,,,z,1,0.5519,,,,,,,,0.18610837,-0.136756416,0,0,0,,0,128,128,95,1,HANTY,LB,old,z,./images/HANTYLB.png,,,,,,,,,,,,,,,,,,,,,,
,,,,,,,,,,,,,,,,,199411,18,2022-01-28_20h37.51.150,lexical_decision_task_DD,2021.2.3,Win32,59.88023952,,,,,,,,,,,1.1335,1,,,,,,,,,,,,,,m,1,1.1335,,,,,,,,0.18610837,-0.136756416,0,0,0,,0,129,129,34,1,CANYON,HB,old,m,./images/CANYONHB.png,,,,,,,,,,,,,,,,,,,,,,
,,,,,,,,,,,,,,,,,199411,18,2022-01-28_20h37.51.150,lexical_decision_task_DD,2021.2.3,Win32,59.88023952,,,,,,,,,,,0.5373,1,,,,,,,,,,,,,,m,1,0.5373,,,,,,,,0.18610837,-0.136756416,0,0,0,,0,130,130,2,1,BEARD,LB,old,m,./images/BEARDLB.png,,,,,,,,,,,,,,,,,,,,,,
,,,,,,,,,,,,,,,,,199411,18,2022-01-28_20h37.51.150,lexical_decision_task_DD,2021.2.3,Win32,59.88023952,,,,,,,,,,,0.5177,1,,,,,,,,,,,,,,m,1,0.5177,,,,,,,,0.18610837,-0.136756416,0,0,0,,0,131,131,26,1,SMOKER,LB,old,m,./images/SMOKERLB.png,,,,,,,,,,,,,,,,,,,,,,
,,,,,,,,,,,,,,,,,199411,18,2022-01-28_20h37.51.150,lexical_decision_task_DD,2021.2.3,Win32,59.88023952,,,,,,,,,,,0.6352,1,,,,,,,,,,,,,,m,1,0.6352,,,,,,,,0.18610837,-0.136756416,0,0,0,,0,132,132,68,1,TORCH,LB,old,m,./images/TORCHLB.png,,,,,,,,,,,,,,,,,,,,,,
,,,,,,,,,,,,,,,,,199411,18,2022-01-28_20h37.51.150,lexical_decision_task_DD,2021.2.3,Win32,59.88023952,,,,,,,,,,,0.7684,1,,,,,,,,,,,,,,z,1,0.7684,,,,,,,,0.18610837,-0.136756416,0,0,0,,0,133,133,143,1,MONGS,LB,old,z,./images/MONGSLB.png,,,,,,,,,,,,,,,,,,,,,,
,,,,,,,,,,,,,,,,,199411,18,2022-01-28_20h37.51.150,lexical_decision_task_DD,2021.2.3,Win32,59.88023952,,,,,,,,,,,0.6611,0,,,,,,,,,,,,,,z,0,0.6611,,,,,,,,0.18610837,-0.136756416,0,0,0,,0,134,134,10,1,BELLY,HB,old,m,./images/BELLYHB.png,,,,,,,,,,,,,,,,,,,,,,
,,,,,,,,,,,,,,,,,199411,18,2022-01-28_20h37.51.150,lexical_decision_task_DD,2021.2.3,Win32,59.88023952,,,,,,,,,,,0.5344,1,,,,,,,,,,,,,,m,1,0.5344,,,,,,,,0.18610837,-0.136756416,0,0,0,,0,135,135,66,1,SWEAT,C,old,m,./images/SWEAT.png,,,,,,,,,,,,,,,,,,,,,,
,,,,,,,,,,,,,,,,,199411,18,2022-01-28_20h37.51.150,lexical_decision_task_DD,2021.2.3,Win32,59.88023952,,,,,,,,,,,0.6177,1,,,,,,,,,,,,,,z,1,0.6177,,,,,,,,0.18610837,-0.136756416,0,0,0,,0,136,136,157,1,INLER,HB,old,z,./images/INLERHB.png,,,,,,,,,,,,,,,,,,,,,,
,,,,,,,,,,,,,,,,,199411,18,2022-01-28_20h37.51.150,lexical_decision_task_DD,2021.2.3,Win32,59.88023952,,,,,,,,,,,0.6936,1,,,,,,,,,,,,,,z,1,0.6936,,,,,,,,0.18610837,-0.136756416,0,0,0,,0,137,137,92,1,PAIMS,LB,old,z,./images/PAIMSLB.png,,,,,,,,,,,,,,,,,,,,,,
,,,,,,,,,,,,,,,,,199411,18,2022-01-28_20h37.51.150,lexical_decision_task_DD,2021.2.3,Win32,59.88023952,,,,,,,,,,,0.5362,1,,,,,,,,,,,,,,m,1,0.5362,,,,,,,,0.18610837,-0.136756416,0,0,0,,0,138,138,45,1,KITTEN,C,old,m,./images/KITTEN.png,,,,,,,,,,,,,,,,,,,,,,
,,,,,,,,,,,,,,,,,199411,18,2022-01-28_20h37.51.150,lexical_decision_task_DD,2021.2.3,Win32,59.88023952,,,,,,,,,,,0.5813,1,,,,,,,,,,,,,,m,1,0.5813,,,,,,,,0.18610837,-0.136756416,0,0,0,,0,139,139,12,1,SHORE,C,old,m,./images/SHORE.png,,,,,,,,,,,,,,,,,,,,,,
,,,,,,,,,,,,,,,,,199411,18,2022-01-28_20h37.51.150,lexical_decision_task_DD,2021.2.3,Win32,59.88023952,,,,,,,,,,,0.8717,0,,,,,,,,,,,,,,m,0,0.8717,,,,,,,,0.18610837,-0.136756416,0,0,0,,0,140,140,94,1,BLANS,HB,old,z,./images/BLANSHB.png,,,,,,,,,,,,,,,,,,,,,,
,,,,,,,,,,,,,,,,,199411,18,2022-01-28_20h37.51.150,lexical_decision_task_DD,2021.2.3,Win32,59.88023952,,,,,,,,,,,0.7184,1,,,,,,,,,,,,,,z,1,0.7184,,,,,,,,0.18610837,-0.136756416,0,0,0,,0,141,141,89,1,DRIEK,LB,old,z,./images/DRIEKLB.png,,,,,,,,,,,,,,,,,,,,,,
,,,,,,,,,,,,,,,,,199411,18,2022-01-28_20h37.51.150,lexical_decision_task_DD,2021.2.3,Win32,59.88023952,,,,,,,,,,,1.5177,1,,,,,,,,,,,,,,m,1,1.5177,,,,,,,,0.18610837,-0.136756416,0,0,0,,0,142,142,19,1,DOUGH,HB,old,m,./images/DOUGHHB.png,,,,,,,,,,,,,,,,,,,,,,
,,,,,,,,,,,,,,,,,199411,18,2022-01-28_20h37.51.150,lexical_decision_task_DD,2021.2.3,Win32,59.88023952,,,,,,,,,,,0.6221,1,,,,,,,,,,,,,,z,1,0.6221,,,,,,,,0.18610837,-0.136756416,0,0,0,,0,143,143,125,1,MOOKY,LB,old,z,./images/MOOKYLB.png,,,,,,,,,,,,,,,,,,,,,,
,,,,,,,,,,,,,,,,,199411,18,2022-01-28_20h37.51.150,lexical_decision_task_DD,2021.2.3,Win32,59.88023952,,,,,,,,,,,0.5834,1,,,,,,,,,,,,,,z,1,0.5834,,,,,,,,0.18610837,-0.136756416,0,0,0,,0,144,144,86,1,AIFED,LB,old,z,./images/AIFEDLB.png,,,,,,,,,,,,,,,,,,,,,,
,,,,,,,,,,,,,,,,,199411,18,2022-01-28_20h37.51.150,lexical_decision_task_DD,2021.2.3,Win32,59.88023952,,,,,,,,,,,1.298,1,,,,,,,,,,,,,,z,1,1.298,,,,,,,,0.18610837,-0.136756416,0,0,0,,0,145,145,165,1,TROWN,C,old,z,./images/TROWN.png,,,,,,,,,,,,,,,,,,,,,,
,,,,,,,,,,,,,,,,,199411,18,2022-01-28_20h37.51.150,lexical_decision_task_DD,2021.2.3,Win32,59.88023952,,,,,,,,,,,0.4021,0,,,,,,,,,,,,,,z,0,0.4021,,,,,,,,0.18610837,-0.136756416,0,0,0,,0,146,146,41,1,STRING,LB,old,m,./images/STRINGLB.png,,,,,,,,,,,,,,,,,,,,,,
,,,,,,,,,,,,,,,,,199411,18,2022-01-28_20h37.51.150,lexical_decision_task_DD,2021.2.3,Win32,59.88023952,,,,,,,,,,,0.5832,1,,,,,,,,,,,,,,m,1,0.5832,,,,,,,,0.18610837,-0.136756416,0,0,0,,0,147,147,81,1,POODLE,C,old,m,./images/POODLE.png,,,,,,,,,,,,,,,,,,,,,,
,,,,,,,,,,,,,,,,,199411,18,2022-01-28_20h37.51.150,lexical_decision_task_DD,2021.2.3,Win32,59.88023952,,,,,,,,,,,0.7274,1,,,,,,,,,,,,,,m,1,0.7274,,,,,,,,0.18610837,-0.136756416,0,0,0,,0,148,148,60,1,TWINS,C,old,m,./images/TWINS.png,,,,,,,,,,,,,,,,,,,,,,
,,,,,,,,,,,,,,,,,199411,18,2022-01-28_20h37.51.150,lexical_decision_task_DD,2021.2.3,Win32,59.88023952,,,,,,,,,,,0.7336,1,,,,,,,,,,,,,,m,1,0.7336,,,,,,,,0.18610837,-0.136756416,0,0,0,,0,149,149,1,1,PLANK,HB,old,m,./images/PLANKHB.png,,,,,,,,,,,,,,,,,,,,,,
,,,,,,,,,,,,,,,,,199411,18,2022-01-28_20h37.51.150,lexical_decision_task_DD,2021.2.3,Win32,59.88023952,,,,,,,,,,,1.0666,1,,,,,,,,,,,,,,m,1,1.0666,,,,,,,,0.18610837,-0.136756416,0,0,0,,0,150,150,43,1,MOSQUE,HB,old,m,./images/MOSQUEHB.png,,,,,,,,,,,,,,,,,,,,,,
,,,,,,,,,,,,,,,,,199411,18,2022-01-28_20h37.51.150,lexical_decision_task_DD,2021.2.3,Win32,59.88023952,,,,,,,,,,,0.6699,1,,,,,,,,,,,,,,z,1,0.6699,,,,,,,,0.18610837,-0.136756416,0,0,0,,0,151,151,102,1,DULLE,C,old,z,./images/DULLE.png,,,,,,,,,,,,,,,,,,,,,,
,,,,,,,,,,,,,,,,,199411,18,2022-01-28_20h37.51.150,lexical_decision_task_DD,2021.2.3,Win32,59.88023952,,,,,,,,,,,0.8606,1,,,,,,,,,,,,,,z,1,0.8606,,,,,,,,0.18610837,-0.136756416,0,0,0,,0,152,152,158,1,EGECT,LB,old,z,./images/EGECTLB.png,,,,,,,,,,,,,,,,,,,,,,
,,,,,,,,,,,,,,,,,199411,18,2022-01-28_20h37.51.150,lexical_decision_task_DD,2021.2.3,Win32,59.88023952,,,,,,,,,,,1.1682,1,,,,,,,,,,,,,,z,1,1.1682,,,,,,,,0.18610837,-0.136756416,0,0,0,,0,153,153,124,1,TUNCH,HB,old,z,./images/TUNCHHB.png,,,,,,,,,,,,,,,,,,,,,,
,,,,,,,,,,,,,,,,,199411,18,2022-01-28_20h37.51.150,lexical_decision_task_DD,2021.2.3,Win32,59.88023952,,,,,,,,,,,0.9168,1,,,,,,,,,,,,,,z,1,0.9168,,,,,,,,0.18610837,-0.136756416,0,0,0,,0,154,154,101,1,GLEET,LB,old,z,./images/GLEETLB.png,,,,,,,,,,,,,,,,,,,,,,
,,,,,,,,,,,,,,,,,199411,18,2022-01-28_20h37.51.150,lexical_decision_task_DD,2021.2.3,Win32,59.88023952,,,,,,,,,,,0.6629,1,,,,,,,,,,,,,,z,1,0.6629,,,,,,,,0.18610837,-0.136756416,0,0,0,,0,155,155,138,1,PLICE,C,old,z,./images/PLICE.png,,,,,,,,,,,,,,,,,,,,,,
,,,,,,,,,,,,,,,,,199411,18,2022-01-28_20h37.51.150,lexical_decision_task_DD,2021.2.3,Win32,59.88023952,,,,,,,,,,,1.5668,0,,,,,,,,,,,,,,m,0,1.5668,,,,,,,,0.18610837,-0.136756416,0,0,0,,0,156,156,109,1,BURGE,HB,old,z,./images/BURGEHB.png,,,,,,,,,,,,,,,,,,,,,,
,,,,,,,,,,,,,,,,,199411,18,2022-01-28_20h37.51.150,lexical_decision_task_DD,2021.2.3,Win32,59.88023952,,,,,,,,,,,0.5496,1,,,,,,,,,,,,,,z,1,0.5496,,,,,,,,0.18610837,-0.136756416,0,0,0,,0,157,157,150,1,NOOLS,C,old,z,./images/NOOLS.png,,,,,,,,,,,,,,,,,,,,,,
,,,,,,,,,,,,,,,,,199411,18,2022-01-28_20h37.51.150,lexical_decision_task_DD,2021.2.3,Win32,59.88023952,,,,,,,,,,,0.5602,1,,,,,,,,,,,,,,z,1,0.5602,,,,,,,,0.18610837,-0.136756416,0,0,0,,0,158,158,111,1,HOSSE,C,old,z,./images/HOSSE.png,,,,,,,,,,,,,,,,,,,,,,
,,,,,,,,,,,,,,,,,199411,18,2022-01-28_20h37.51.150,lexical_decision_task_DD,2021.2.3,Win32,59.88023952,,,,,,,,,,,0.6741,1,,,,,,,,,,,,,,z,1,0.6741,,,,,,,,0.18610837,-0.136756416,0,0,0,,0,159,159,161,1,BLAPS,LB,old,z,./images/BLAPSLB.png,,,,,,,,,,,,,,,,,,,,,,
,,,,,,,,,,,,,,,,,199411,18,2022-01-28_20h37.51.150,lexical_decision_task_DD,2021.2.3,Win32,59.88023952,,,,,,,,,,,1.0254,1,,,,,,,,,,,,,,z,1,1.0254,,,,,,,,0.18610837,-0.136756416,0,0,0,,0,160,160,121,1,CEERS,HB,old,z,./images/CEERSHB.png,,,,,,,,,,,,,,,,,,,,,,
,,,,,,,,,,,,,,,,,199411,18,2022-01-28_20h37.51.150,lexical_decision_task_DD,2021.2.3,Win32,59.88023952,,,,,,,,,,,0.7603,1,,,,,,,,,,,,,,m,1,0.7603,,,,,,,,0.18610837,-0.136756416,0,0,0,,0,161,161,20,1,CRADLE,LB,old,m,./images/CRADLELB.png,,,,,,,,,,,,,,,,,,,,,,
,,,,,,,,,,,,,,,,,199411,18,2022-01-28_20h37.51.150,lexical_decision_task_DD,2021.2.3,Win32,59.88023952,,,,,,,,,,,0.5305,1,,,,,,,,,,,,,,m,1,0.5305,,,,,,,,0.18610837,-0.136756416,0,0,0,,0,162,162,53,1,CARPET,LB,old,m,./images/CARPETLB.png,,,,,,,,,,,,,,,,,,,,,,
,,,,,,,,,,,,,,,,,199411,18,2022-01-28_20h37.51.150,lexical_decision_task_DD,2021.2.3,Win32,59.88023952,,,,,,,,,,,0.3688,1,,,,,,,,,,,,,,m,1,0.3688,,,,,,,,0.18610837,-0.136756416,0,0,0,,0,163,163,72,1,NOOSE,C,old,m,./images/NOOSE.png,,,,,,,,,,,,,,,,,,,,,,
,,,,,,,,,,,,,,,,,199411,18,2022-01-28_20h37.51.150,lexical_decision_task_DD,2021.2.3,Win32,59.88023952,,,,,,,,,,,0.4519,1,,,,,,,,,,,,,,m,1,0.4519,,,,,,,,0.18610837,-0.136756416,0,0,0,,0,164,164,6,1,SQUARE,C,old,m,./images/SQUARE.png,,,,,,,,,,,,,,,,,,,,,,
,,,,,,,,,,,,,,,,,199411,18,2022-01-28_20h37.51.150,lexical_decision_task_DD,2021.2.3,Win32,59.88023952,,,,,,,,,,,0.6931,1,,,,,,,,,,,,,,m,1,0.6931,,,,,,,,0.18610837,-0.136756416,0,0,0,,0,165,165,22,1,MELON,HB,old,m,./images/MELONHB.png,,,,,,,,,,,,,,,,,,,,,,
,,,,,,,,,,,,,,,,,199411,18,2022-01-28_20h37.51.150,lexical_decision_task_DD,2021.2.3,Win32,59.88023952,,,,,,,,,,,1.3449,1,,,,,,,,,,,,,,z,1,1.3449,,,,,,,,0.18610837,-0.136756416,0,0,0,,0,166,166,103,1,FLORT,HB,old,z,./images/FLORTHB.png,,,,,,,,,,,,,,,,,,,,,,
,,,,,,,,,,,,,,,,,199411,18,2022-01-28_20h37.51.150,lexical_decision_task_DD,2021.2.3,Win32,59.88023952,,,,,,,,,,,0.9773,1,,,,,,,,,,,,,,m,1,0.9773,,,,,,,,0.18610837,-0.136756416,0,0,0,,0,167,167,70,1,URINE,HB,old,m,./images/URINEHB.png,,,,,,,,,,,,,,,,,,,,,,
space,19.3031,0.18610837,-0.136756416,0,0,0,,,,,,1,test,"In the next phase you will be presented with the words from the the first phase. Your job is to decide whether you remember seeing the word or not. If you remember seeing the word press ""old"" or type ""m"". If you do not remember seeing the word press ""new"" or type ""z"". Please press the space bar or click on continue to begin. ",,,199411,18,2022-01-28_20h37.51.150,lexical_decision_task_DD,2021.2.3,Win32,59.88023952,,,,,,,,,,,,,,,,,,,,,,,,,,,,,,,,,,,,,,,,,,,,,,,,,,,,,0,0,0,0,1,,,,,,,,,,,,,,,,
space,1.7056,0.18610837,-0.136756416,0,0,0,,,,,,1,test,"In the next phase you will be presented with the words from the the first phase. Your job is to decide whether you remember seeing the word or not. If you remember seeing the word press ""old"" or type ""m"". If you do not remember seeing the word press ""new"" or type ""z"". Please press the space bar or click on continue to begin. ",,,199411,18,2022-01-28_20h37.51.150,lexical_decision_task_DD,2021.2.3,Win32,59.88023952,,,,,,,,,,,,,,,,,,,,,,,,,,,,,,,,,,,,,,,,,,,,,,,,,,,,,1,0,1,0,1,,,,,,,,,,,,,,,,
space,0.9083,0.18610837,-0.136756416,0,0,0,,,,,,1,test,"In the next phase you will be presented with the words from the the first phase. Your job is to decide whether you remember seeing the word or not. If you remember seeing the word press ""old"" or type ""m"". If you do not remember seeing the word press ""new"" or type ""z"". Please press the space bar or click on continue to begin. ",,,199411,18,2022-01-28_20h37.51.150,lexical_decision_task_DD,2021.2.3,Win32,59.88023952,,,,,,,,,,,,,,,,,,,,,,,,,,,,,,,,,,,,,,,,,,,,,,,,,,,,,2,0,2,0,1,,,,,,,,,,,,,,,,
space,1.0836,0.18610837,-0.136756416,0,0,0,,,,,,1,test,"In the next phase you will be presented with the words from the the first phase. Your job is to decide whether you remember seeing the word or not. If you remember seeing the word press ""old"" or type ""m"". If you do not remember seeing the word press ""new"" or type ""z"". Please press the space bar or click on continue to begin. ",,,199411,18,2022-01-28_20h37.51.150,lexical_decision_task_DD,2021.2.3,Win32,59.88023952,,,,,,,,,,,,,,,,,,,,,,,,,,,,,,,,,,,,,,,,,,,,,,,,,,,,,3,0,3,0,1,,,,,,,,,,,,,,,,
,,0.084413451,-0.421236319,1,0,0,,,,,,1,test,"In the next phase you will be presented with the words from the the first phase. Your job is to decide whether you remember seeing the word or not. If you remember seeing the word press ""old"" or type ""m"". If you do not remember seeing the word press ""new"" or type ""z"". Please press the space bar or click on continue to begin. ",,,199411,18,2022-01-28_20h37.51.150,lexical_decision_task_DD,2021.2.3,Win32,59.88023952,,,,,,,,,,,,,,,,,,,,,,,,,,,,,,,,,,,,,,,,,,,,,,,,,,,,,4,0,4,0,1,instr_done_button,,,,,,,,,,,,,,,
,,,,,,,,,,,,,,,,,199411,18,2022-01-28_20h37.51.150,lexical_decision_task_DD,2021.2.3,Win32,59.88023952,,,,,,,,,,,3.4334,1,,,,,,,,,,,,,,,,,,,,,,,,0.084413451,-0.421236319,0,0,0,,,,,,,DRILL,C,z,m,./images/DRILL.png,,,,,,,,z,1,3.4334,,,,,,,,0,0,0,165,1
,,,,,,,,,,,,,,,,,199411,18,2022-01-28_20h37.51.150,lexical_decision_task_DD,2021.2.3,Win32,59.88023952,,,,,,,,,,,0.7871,1,,,,,,,,,,,,,,,,,,,,,,,,0.084413451,-0.421236319,0,0,0,,,,,,,PARADE,LB,z,m,./images/PARADELB.png,,,,,,,,z,1,0.7871,,,,,,,,0,1,1,101,1
,,,,,,,,,,,,,,,,,199411,18,2022-01-28_20h37.51.150,lexical_decision_task_DD,2021.2.3,Win32,59.88023952,,,,,,,,,,,1.0574,0,,,,,,,,,,,,,,,,,,,,,,,,0.084413451,-0.421236319,0,0,0,,,,,,,FLASK,C,z,m,./images/FLASK.png,,,,,,,,m,0,1.0574,,,,,,,,0,2,2,156,1
,,,,,,,,,,,,,,,,,199411,18,2022-01-28_20h37.51.150,lexical_decision_task_DD,2021.2.3,Win32,59.88023952,,,,,,,,,,,1.0608,1,,,,,,,,,,,,,,,,,,,,,,,,0.084413451,-0.421236319,0,0,0,,,,,,,COLLAR,C,z,m,./images/COLLAR.png,,,,,,,,z,1,1.0608,,,,,,,,0,3,3,99,1
,,,,,,,,,,,,,,,,,199411,18,2022-01-28_20h37.51.150,lexical_decision_task_DD,2021.2.3,Win32,59.88023952,,,,,,,,,,,0.5601,1,,,,,,,,,,,,,,,,,,,,,,,,0.084413451,-0.421236319,0,0,0,,,,,,,TWINS,C,m,m,./images/TWINS.png,,,,,,,,m,1,0.5601,,,,,,,,0,4,4,60,1
,,,,,,,,,,,,,,,,,199411,18,2022-01-28_20h37.51.150,lexical_decision_task_DD,2021.2.3,Win32,59.88023952,,,,,,,,,,,0.557,1,,,,,,,,,,,,,,,,,,,,,,,,0.084413451,-0.421236319,0,0,0,,,,,,,MOOSE,C,m,m,./images/MOOSE.png,,,,,,,,m,1,0.557,,,,,,,,0,5,5,57,1
,,,,,,,,,,,,,,,,,199411,18,2022-01-28_20h37.51.150,lexical_decision_task_DD,2021.2.3,Win32,59.88023952,,,,,,,,,,,0.5305,1,,,,,,,,,,,,,,,,,,,,,,,,0.084413451,-0.421236319,0,0,0,,,,,,,MALLET,LB,m,m,./images/MALLETLB.png,,,,,,,,m,1,0.5305,,,,,,,,0,6,6,50,1
,,,,,,,,,,,,,,,,,199411,18,2022-01-28_20h37.51.150,lexical_decision_task_DD,2021.2.3,Win32,59.88023952,,,,,,,,,,,0.7453,0,,,,,,,,,,,,,,,,,,,,,,,,0.084413451,-0.421236319,0,0,0,,,,,,,BASKET,LB,z,m,./images/BASKETLB.png,,,,,,,,m,0,0.7453,,,,,,,,0,7,7,128,1
,,,,,,,,,,,,,,,,,199411,18,2022-01-28_20h37.51.150,lexical_decision_task_DD,2021.2.3,Win32,59.88023952,,,,,,,,,,,2.072,1,,,,,,,,,,,,,,,,,,,,,,,,0.084413451,-0.421236319,0,0,0,,,,,,,CARPET,LB,m,m,./images/CARPETLB.png,,,,,,,,m,1,2.072,,,,,,,,0,8,8,53,1
,,,,,,,,,,,,,,,,,199411,18,2022-01-28_20h37.51.150,lexical_decision_task_DD,2021.2.3,Win32,59.88023952,,,,,,,,,,,1.2084,1,,,,,,,,,,,,,,,,,,,,,,,,0.084413451,-0.421236319,0,0,0,,,,,,,CRUMB,LB,m,m,./images/CRUMBLB.png,,,,,,,,m,1,1.2084,,,,,,,,0,9,9,29,1
,,,,,,,,,,,,,,,,,199411,18,2022-01-28_20h37.51.150,lexical_decision_task_DD,2021.2.3,Win32,59.88023952,,,,,,,,,,,0.9869,1,,,,,,,,,,,,,,,,,,,,,,,,0.084413451,-0.421236319,0,0,0,,,,,,,CANOE,HB,z,m,./images/CANOEHB.png,,,,,,,,z,1,0.9869,,,,,,,,0,10,10,142,1
,,,,,,,,,,,,,,,,,199411,18,2022-01-28_20h37.51.150,lexical_decision_task_DD,2021.2.3,Win32,59.88023952,,,,,,,,,,,0.6674,1,,,,,,,,,,,,,,,,,,,,,,,,0.084413451,-0.421236319,0,0,0,,,,,,,ALLEY,HB,z,m,./images/ALLEYHB.png,,,,,,,,z,1,0.6674,,,,,,,,0,11,11,139,1
,,,,,,,,,,,,,,,,,199411,18,2022-01-28_20h37.51.150,lexical_decision_task_DD,2021.2.3,Win32,59.88023952,,,,,,,,,,,0.6497,1,,,,,,,,,,,,,,,,,,,,,,,,0.084413451,-0.421236319,0,0,0,,,,,,,COUCH,LB,m,m,./images/COUCHLB.png,,,,,,,,m,1,0.6497,,,,,,,,0,12,12,77,1
,,,,,,,,,,,,,,,,,199411,18,2022-01-28_20h37.51.150,lexical_decision_task_DD,2021.2.3,Win32,59.88023952,,,,,,,,,,,0.6964,0,,,,,,,,,,,,,,,,,,,,,,,,0.084413451,-0.421236319,0,0,0,,,,,,,PENCE,HB,m,m,./images/PENCEHB.png,,,,,,,,z,0,0.6964,,,,,,,,0,13,13,16,1
,,,,,,,,,,,,,,,,,199411,18,2022-01-28_20h37.51.150,lexical_decision_task_DD,2021.2.3,Win32,59.88023952,,,,,,,,,,,0.8644,1,,,,,,,,,,,,,,,,,,,,,,,,0.084413451,-0.421236319,0,0,0,,,,,,,BOILER,C,z,m,./images/BOILER.png,,,,,,,,z,1,0.8644,,,,,,,,0,14,14,120,1
,,,,,,,,,,,,,,,,,199411,18,2022-01-28_20h37.51.150,lexical_decision_task_DD,2021.2.3,Win32,59.88023952,,,,,,,,,,,1.083,1,,,,,,,,,,,,,,,,,,,,,,,,0.084413451,-0.421236319,0,0,0,,,,,,,INFANT,HB,m,m,./images/INFANTHB.png,,,,,,,,m,1,1.083,,,,,,,,0,15,15,76,1
,,,,,,,,,,,,,,,,,199411,18,2022-01-28_20h37.51.150,lexical_decision_task_DD,2021.2.3,Win32,59.88023952,,,,,,,,,,,1.5328,0,,,,,,,,,,,,,,,,,,,,,,,,0.084413451,-0.421236319,0,0,0,,,,,,,PASTA,LB,m,m,./images/PASTALB.png,,,,,,,,z,0,1.5328,,,,,,,,0,16,16,5,1
,,,,,,,,,,,,,,,,,199411,18,2022-01-28_20h37.51.150,lexical_decision_task_DD,2021.2.3,Win32,59.88023952,,,,,,,,,,,1.3993,1,,,,,,,,,,,,,,,,,,,,,,,,0.084413451,-0.421236319,0,0,0,,,,,,,GRAIN,C,m,m,./images/GRAIN.png,,,,,,,,m,1,1.3993,,,,,,,,0,17,17,75,1
,,,,,,,,,,,,,,,,,199411,18,2022-01-28_20h37.51.150,lexical_decision_task_DD,2021.2.3,Win32,59.88023952,,,,,,,,,,,3.0341,1,,,,,,,,,,,,,,,,,,,,,,,,0.084413451,-0.421236319,0,0,0,,,,,,,POSTER,LB,z,m,./images/POSTERLB.png,,,,,,,,z,1,3.0341,,,,,,,,0,18,18,137,1
,,,,,,,,,,,,,,,,,199411,18,2022-01-28_20h37.51.150,lexical_decision_task_DD,2021.2.3,Win32,59.88023952,,,,,,,,,,,0.6812,1,,,,,,,,,,,,,,,,,,,,,,,,0.084413451,-0.421236319,0,0,0,,,,,,,PACKET,LB,m,m,./images/PACKETLB.png,,,,,,,,m,1,0.6812,,,,,,,,0,19,19,56,1
,,,,,,,,,,,,,,,,,199411,18,2022-01-28_20h37.51.150,lexical_decision_task_DD,2021.2.3,Win32,59.88023952,,,,,,,,,,,0.9615,0,,,,,,,,,,,,,,,,,,,,,,,,0.084413451,-0.421236319,0,0,0,,,,,,,POKER,HB,z,m,./images/POKERHB.png,,,,,,,,m,0,0.9615,,,,,,,,0,20,20,151,1
,,,,,,,,,,,,,,,,,199411,18,2022-01-28_20h37.51.150,lexical_decision_task_DD,2021.2.3,Win32,59.88023952,,,,,,,,,,,1.1057,1,,,,,,,,,,,,,,,,,,,,,,,,0.084413451,-0.421236319,0,0,0,,,,,,,SNACK,HB,m,m,./images/SNACKHB.png,,,,,,,,m,1,1.1057,,,,,,,,0,21,21,73,1
,,,,,,,,,,,,,,,,,199411,18,2022-01-28_20h37.51.150,lexical_decision_task_DD,2021.2.3,Win32,59.88023952,,,,,,,,,,,0.8556,1,,,,,,,,,,,,,,,,,,,,,,,,0.084413451,-0.421236319,0,0,0,,,,,,,STORM,C,m,m,./images/STORM.png,,,,,,,,m,1,0.8556,,,,,,,,0,22,22,30,1
,,,,,,,,,,,,,,,,,199411,18,2022-01-28_20h37.51.150,lexical_decision_task_DD,2021.2.3,Win32,59.88023952,,,,,,,,,,,0.6303,1,,,,,,,,,,,,,,,,,,,,,,,,0.084413451,-0.421236319,0,0,0,,,,,,,JAGUAR,C,m,m,./images/JAGUAR.png,,,,,,,,m,1,0.6303,,,,,,,,0,23,23,18,1
,,,,,,,,,,,,,,,,,199411,18,2022-01-28_20h37.51.150,lexical_decision_task_DD,2021.2.3,Win32,59.88023952,,,,,,,,,,,1.911,0,,,,,,,,,,,,,,,,,,,,,,,,0.084413451,-0.421236319,0,0,0,,,,,,,CANDY,C,z,m,./images/CANDY.png,,,,,,,,m,0,1.911,,,,,,,,0,24,24,123,1
,,,,,,,,,,,,,,,,,199411,18,2022-01-28_20h37.51.150,lexical_decision_task_DD,2021.2.3,Win32,59.88023952,,,,,,,,,,,1.0487,1,,,,,,,,,,,,,,,,,,,,,,,,0.084413451,-0.421236319,0,0,0,,,,,,,CHALK,HB,z,m,./images/CHALKHB.png,,,,,,,,z,1,1.0487,,,,,,,,0,25,25,109,1
,,,,,,,,,,,,,,,,,199411,18,2022-01-28_20h37.51.150,lexical_decision_task_DD,2021.2.3,Win32,59.88023952,,,,,,,,,,,1.7397,1,,,,,,,,,,,,,,,,,,,,,,,,0.084413451,-0.421236319,0,0,0,,,,,,,MOSQUE,HB,m,m,./images/MOSQUEHB.png,,,,,,,,m,1,1.7397,,,,,,,,0,26,26,43,1
,,,,,,,,,,,,,,,,,199411,18,2022-01-28_20h37.51.150,lexical_decision_task_DD,2021.2.3,Win32,59.88023952,,,,,,,,,,,1.2933,1,,,,,,,,,,,,,,,,,,,,,,,,0.084413451,-0.421236319,0,0,0,,,,,,,HAMMER,C,z,m,./images/HAMMER.png,,,,,,,,z,1,1.2933,,,,,,,,0,27,27,159,1
,,,,,,,,,,,,,,,,,199411,18,2022-01-28_20h37.51.150,lexical_decision_task_DD,2021.2.3,Win32,59.88023952,,,,,,,,,,,1.9841,0,,,,,,,,,,,,,,,,,,,,,,,,0.084413451,-0.421236319,0,0,0,,,,,,,PLANET,LB,z,m,./images/PLANETLB.png,,,,,,,,m,0,1.9841,,,,,,,,0,28,28,164,1
,,,,,,,,,,,,,,,,,199411,18,2022-01-28_20h37.51.150,lexical_decision_task_DD,2021.2.3,Win32,59.88023952,,,,,,,,,,,0.8079,0,,,,,,,,,,,,,,,,,,,,,,,,0.084413451,-0.421236319,0,0,0,,,,,,,JUNGLE,LB,m,m,./images/JUNGLELB.png,,,,,,,,z,0,0.8079,,,,,,,,0,29,29,83,1
,,,,,,,,,,,,,,,,,199411,18,2022-01-28_20h37.51.150,lexical_decision_task_DD,2021.2.3,Win32,59.88023952,,,,,,,,,,,0.9299,1,,,,,,,,,,,,,,,,,,,,,,,,0.084413451,-0.421236319,0,0,0,,,,,,,ARROW,C,z,m,./images/ARROW.png,,,,,,,,z,1,0.9299,,,,,,,,0,30,30,153,1
,,,,,,,,,,,,,,,,,199411,18,2022-01-28_20h37.51.150,lexical_decision_task_DD,2021.2.3,Win32,59.88023952,,,,,,,,,,,1.6736,1,,,,,,,,,,,,,,,,,,,,,,,,0.084413451,-0.421236319,0,0,0,,,,,,,BAKER,C,z,m,./images/BAKER.png,,,,,,,,z,1,1.6736,,,,,,,,0,31,31,147,1
,,,,,,,,,,,,,,,,,199411,18,2022-01-28_20h37.51.150,lexical_decision_task_DD,2021.2.3,Win32,59.88023952,,,,,,,,,,,1.0298,0,,,,,,,,,,,,,,,,,,,,,,,,0.084413451,-0.421236319,0,0,0,,,,,,,CLOWN,HB,z,m,./images/CLOWNHB.png,,,,,,,,m,0,1.0298,,,,,,,,0,32,32,106,1
,,,,,,,,,,,,,,,,,199411,18,2022-01-28_20h37.51.150,lexical_decision_task_DD,2021.2.3,Win32,59.88023952,,,,,,,,,,,0.657,1,,,,,,,,,,,,,,,,,,,,,,,,0.084413451,-0.421236319,0,0,0,,,,,,,PURSE,LB,m,m,./images/PURSELB.png,,,,,,,,m,1,0.657,,,,,,,,0,33,33,62,1
,,,,,,,,,,,,,,,,,199411,18,2022-01-28_20h37.51.150,lexical_decision_task_DD,2021.2.3,Win32,59.88023952,,,,,,,,,,,0.3494,1,,,,,,,,,,,,,,,,,,,,,,,,0.084413451,-0.421236319,0,0,0,,,,,,,BEARD,LB,m,m,./images/BEARDLB.png,,,,,,,,m,1,0.3494,,,,,,,,0,34,34,2,1
,,,,,,,,,,,,,,,,,199411,18,2022-01-28_20h37.51.150,lexical_decision_task_DD,2021.2.3,Win32,59.88023952,,,,,,,,,,,0.5456,1,,,,,,,,,,,,,,,,,,,,,,,,0.084413451,-0.421236319,0,0,0,,,,,,,PICKLE,LB,m,m,./images/PICKLELB.png,,,,,,,,m,1,0.5456,,,,,,,,0,35,35,14,1
,,,,,,,,,,,,,,,,,199411,18,2022-01-28_20h37.51.150,lexical_decision_task_DD,2021.2.3,Win32,59.88023952,,,,,,,,,,,0.6727,1,,,,,,,,,,,,,,,,,,,,,,,,0.084413451,-0.421236319,0,0,0,,,,,,,PLANK,HB,m,m,./images/PLANKHB.png,,,,,,,,m,1,0.6727,,,,,,,,0,36,36,1,1
,,,,,,,,,,,,,,,,,199411,18,2022-01-28_20h37.51.150,lexical_decision_task_DD,2021.2.3,Win32,59.88023952,,,,,,,,,,,0.541,1,,,,,,,,,,,,,,,,,,,,,,,,0.084413451,-0.421236319,0,0,0,,,,,,,BONNET,LB,m,m,./images/BONNETLB.png,,,,,,,,m,1,0.541,,,,,,,,0,37,37,11,1
,,,,,,,,,,,,,,,,,199411,18,2022-01-28_20h37.51.150,lexical_decision_task_DD,2021.2.3,Win32,59.88023952,,,,,,,,,,,0.5557,1,,,,,,,,,,,,,,,,,,,,,,,,0.084413451,-0.421236319,0,0,0,,,,,,,BABOON,HB,m,m,./images/BABOONHB.png,,,,,,,,m,1,0.5557,,,,,,,,0,38,38,58,1
,,,,,,,,,,,,,,,,,199411,18,2022-01-28_20h37.51.150,lexical_decision_task_DD,2021.2.3,Win32,59.88023952,,,,,,,,,,,0.6701,1,,,,,,,,,,,,,,,,,,,,,,,,0.084413451,-0.421236319,0,0,0,,,,,,,FLESH,C,z,m,./images/FLESH.png,,,,,,,,z,1,0.6701,,,,,,,,0,39,39,108,1
,,,,,,,,,,,,,,,,,199411,18,2022-01-28_20h37.51.150,lexical_decision_task_DD,2021.2.3,Win32,59.88023952,,,,,,,,,,,1.1626,1,,,,,,,,,,,,,,,,,,,,,,,,0.084413451,-0.421236319,0,0,0,,,,,,,LADDER,LB,m,m,./images/LADDERLB.png,,,,,,,,m,1,1.1626,,,,,,,,0,40,40,38,1
,,,,,,,,,,,,,,,,,199411,18,2022-01-28_20h37.51.150,lexical_decision_task_DD,2021.2.3,Win32,59.88023952,,,,,,,,,,,0.7769,1,,,,,,,,,,,,,,,,,,,,,,,,0.084413451,-0.421236319,0,0,0,space,,,,,,LIZARD,LB,m,m,./images/LIZARDLB.png,2.4249,,,,,,,m,1,0.7769,,,,,,,,0,41,41,44,1
,,,,,,,,,,,,,,,,,199411,18,2022-01-28_20h37.51.150,lexical_decision_task_DD,2021.2.3,Win32,59.88023952,,,,,,,,,,,0.8949,1,,,,,,,,,,,,,,,,,,,,,,,,0.084413451,-0.421236319,0,0,0,,,,,,,KIDNEY,C,m,m,./images/KIDNEY.png,,,,,,,,m,1,0.8949,,,,,,,,0,42,42,21,1
,,,,,,,,,,,,,,,,,199411,18,2022-01-28_20h37.51.150,lexical_decision_task_DD,2021.2.3,Win32,59.88023952,,,,,,,,,,,0.7574,1,,,,,,,,,,,,,,,,,,,,,,,,0.084413451,-0.421236319,0,0,0,,,,,,,CURRY,C,z,m,./images/CURRY.png,,,,,,,,z,1,0.7574,,,,,,,,0,43,43,144,1
,,,,,,,,,,,,,,,,,199411,18,2022-01-28_20h37.51.150,lexical_decision_task_DD,2021.2.3,Win32,59.88023952,,,,,,,,,,,0.7187,1,,,,,,,,,,,,,,,,,,,,,,,,0.084413451,-0.421236319,0,0,0,,,,,,,DESERT,HB,z,m,./images/DESERTHB.png,,,,,,,,z,1,0.7187,,,,,,,,0,44,44,136,1
,,,,,,,,,,,,,,,,,199411,18,2022-01-28_20h37.51.150,lexical_decision_task_DD,2021.2.3,Win32,59.88023952,,,,,,,,,,,0.6537,0,,,,,,,,,,,,,,,,,,,,,,,,0.084413451,-0.421236319,0,0,0,,,,,,,BANNER,HB,m,m,./images/BANNERHB.png,,,,,,,,z,0,0.6537,,,,,,,,0,45,45,52,1
,,,,,,,,,,,,,,,,,199411,18,2022-01-28_20h37.51.150,lexical_decision_task_DD,2021.2.3,Win32,59.88023952,,,,,,,,,,,0.5724,1,,,,,,,,,,,,,,,,,,,,,,,,0.084413451,-0.421236319,0,0,0,,,,,,,DOUGH,HB,m,m,./images/DOUGHHB.png,,,,,,,,m,1,0.5724,,,,,,,,0,46,46,19,1
,,,,,,,,,,,,,,,,,199411,18,2022-01-28_20h37.51.150,lexical_decision_task_DD,2021.2.3,Win32,59.88023952,,,,,,,,,,,0.8367,1,,,,,,,,,,,,,,,,,,,,,,,,0.084413451,-0.421236319,0,0,0,,,,,,,SCREW,C,m,m,./images/SCREW.png,,,,,,,,m,1,0.8367,,,,,,,,0,47,47,24,1
,,,,,,,,,,,,,,,,,199411,18,2022-01-28_20h37.51.150,lexical_decision_task_DD,2021.2.3,Win32,59.88023952,,,,,,,,,,,1.0715,1,,,,,,,,,,,,,,,,,,,,,,,,0.084413451,-0.421236319,0,0,0,,,,,,,FOLDER,C,m,m,./images/FOLDER.png,,,,,,,,m,1,1.0715,,,,,,,,0,48,48,42,1
,,,,,,,,,,,,,,,,,199411,18,2022-01-28_20h37.51.150,lexical_decision_task_DD,2021.2.3,Win32,59.88023952,,,,,,,,,,,0.6566,1,,,,,,,,,,,,,,,,,,,,,,,,0.084413451,-0.421236319,0,0,0,,,,,,,WALNUT,C,z,m,./images/WALNUT.png,,,,,,,,z,1,0.6566,,,,,,,,0,49,49,84,1
,,,,,,,,,,,,,,,,,199411,18,2022-01-28_20h37.51.150,lexical_decision_task_DD,2021.2.3,Win32,59.88023952,,,,,,,,,,,0.549,0,,,,,,,,,,,,,,,,,,,,,,,,0.084413451,-0.421236319,0,0,0,,,,,,,CHAIN,C,z,m,./images/CHAIN.png,,,,,,,,m,0,0.549,,,,,,,,0,50,50,126,1
,,,,,,,,,,,,,,,,,199411,18,2022-01-28_20h37.51.150,lexical_decision_task_DD,2021.2.3,Win32,59.88023952,,,,,,,,,,,0.5929,1,,,,,,,,,,,,,,,,,,,,,,,,0.084413451,-0.421236319,0,0,0,,,,,,,BUNNY,HB,z,m,./images/BUNNYHB.png,,,,,,,,z,1,0.5929,,,,,,,,0,51,51,97,1
,,,,,,,,,,,,,,,,,199411,18,2022-01-28_20h37.51.150,lexical_decision_task_DD,2021.2.3,Win32,59.88023952,,,,,,,,,,,0.8263,1,,,,,,,,,,,,,,,,,,,,,,,,0.084413451,-0.421236319,0,0,0,,,,,,,SUNSET,HB,m,m,./images/SUNSETHB.png,,,,,,,,m,1,0.8263,,,,,,,,0,52,52,82,1
,,,,,,,,,,,,,,,,,199411,18,2022-01-28_20h37.51.150,lexical_decision_task_DD,2021.2.3,Win32,59.88023952,,,,,,,,,,,0.7832,1,,,,,,,,,,,,,,,,,,,,,,,,0.084413451,-0.421236319,0,0,0,,,,,,,CRATER,C,z,m,./images/CRATER.png,,,,,,,,z,1,0.7832,,,,,,,,0,53,53,87,1
,,,,,,,,,,,,,,,,,199411,18,2022-01-28_20h37.51.150,lexical_decision_task_DD,2021.2.3,Win32,59.88023952,,,,,,,,,,,0.5897,1,,,,,,,,,,,,,,,,,,,,,,,,0.084413451,-0.421236319,0,0,0,,,,,,,CRADLE,LB,m,m,./images/CRADLELB.png,,,,,,,,m,1,0.5897,,,,,,,,0,54,54,20,1
,,,,,,,,,,,,,,,,,199411,18,2022-01-28_20h37.51.150,lexical_decision_task_DD,2021.2.3,Win32,59.88023952,,,,,,,,,,,0.5417,1,,,,,,,,,,,,,,,,,,,,,,,,0.084413451,-0.421236319,0,0,0,,,,,,,URINE,HB,m,m,./images/URINEHB.png,,,,,,,,m,1,0.5417,,,,,,,,0,55,55,70,1
,,,,,,,,,,,,,,,,,199411,18,2022-01-28_20h37.51.150,lexical_decision_task_DD,2021.2.3,Win32,59.88023952,,,,,,,,,,,3.081,1,,,,,,,,,,,,,,,,,,,,,,,,0.084413451,-0.421236319,0,0,0,,,,,,,TRIPOD,C,m,m,./images/TRIPOD.png,,,,,,,,m,1,3.081,,,,,,,,0,56,56,54,1
,,,,,,,,,,,,,,,,,199411,18,2022-01-28_20h37.51.150,lexical_decision_task_DD,2021.2.3,Win32,59.88023952,,,,,,,,,,,1.2088,1,,,,,,,,,,,,,,,,,,,,,,,,0.084413451,-0.421236319,0,0,0,,,,,,,THROAT,C,m,m,./images/THROAT.png,,,,,,,,m,1,1.2088,,,,,,,,0,57,57,36,1
,,,,,,,,,,,,,,,,,199411,18,2022-01-28_20h37.51.150,lexical_decision_task_DD,2021.2.3,Win32,59.88023952,,,,,,,,,,,1.5515,1,,,,,,,,,,,,,,,,,,,,,,,,0.084413451,-0.421236319,0,0,0,,,,,,,QUILL,HB,m,m,./images/QUILLHB.png,,,,,,,,m,1,1.5515,,,,,,,,0,58,58,31,1
,,,,,,,,,,,,,,,,,199411,18,2022-01-28_20h37.51.150,lexical_decision_task_DD,2021.2.3,Win32,59.88023952,,,,,,,,,,,0.6957,1,,,,,,,,,,,,,,,,,,,,,,,,0.084413451,-0.421236319,0,0,0,,,,,,,ATTIC,C,m,m,./images/ATTIC.png,,,,,,,,m,1,0.6957,,,,,,,,0,59,59,27,1
,,,,,,,,,,,,,,,,,199411,18,2022-01-28_20h37.51.150,lexical_decision_task_DD,2021.2.3,Win32,59.88023952,,,,,,,,,,,0.829,1,,,,,,,,,,,,,,,,,,,,,,,,0.084413451,-0.421236319,0,0,0,,,,,,,PEACH,LB,m,m,./images/PEACHLB.png,,,,,,,,m,1,0.829,,,,,,,,0,60,60,35,1
,,,,,,,,,,,,,,,,,199411,18,2022-01-28_20h37.51.150,lexical_decision_task_DD,2021.2.3,Win32,59.88023952,,,,,,,,,,,0.591,1,,,,,,,,,,,,,,,,,,,,,,,,0.084413451,-0.421236319,0,0,0,,,,,,,SQUARE,C,m,m,./images/SQUARE.png,,,,,,,,m,1,0.591,,,,,,,,0,61,61,6,1
,,,,,,,,,,,,,,,,,199411,18,2022-01-28_20h37.51.150,lexical_decision_task_DD,2021.2.3,Win32,59.88023952,,,,,,,,,,,0.6722,1,,,,,,,,,,,,,,,,,,,,,,,,0.084413451,-0.421236319,0,0,0,,,,,,,BANANA,HB,z,m,./images/BANANAHB.png,,,,,,,,z,1,0.6722,,,,,,,,0,62,62,154,1
,,,,,,,,,,,,,,,,,199411,18,2022-01-28_20h37.51.150,lexical_decision_task_DD,2021.2.3,Win32,59.88023952,,,,,,,,,,,1.0297,0,,,,,,,,,,,,,,,,,,,,,,,,0.084413451,-0.421236319,0,0,0,,,,,,,BROOM,C,z,m,./images/BROOM.png,,,,,,,,m,0,1.0297,,,,,,,,0,63,63,162,1
,,,,,,,,,,,,,,,,,199411,18,2022-01-28_20h37.51.150,lexical_decision_task_DD,2021.2.3,Win32,59.88023952,,,,,,,,,,,0.8263,1,,,,,,,,,,,,,,,,,,,,,,,,0.084413451,-0.421236319,0,0,0,,,,,,,DIVER,C,z,m,./images/DIVER.png,,,,,,,,z,1,0.8263,,,,,,,,0,64,64,93,1
,,,,,,,,,,,,,,,,,199411,18,2022-01-28_20h37.51.150,lexical_decision_task_DD,2021.2.3,Win32,59.88023952,,,,,,,,,,,0.6068,1,,,,,,,,,,,,,,,,,,,,,,,,0.084413451,-0.421236319,0,0,0,,,,,,,BUTTER,C,z,m,./images/BUTTER.png,,,,,,,,z,1,0.6068,,,,,,,,0,65,65,111,1
,,,,,,,,,,,,,,,,,199411,18,2022-01-28_20h37.51.150,lexical_decision_task_DD,2021.2.3,Win32,59.88023952,,,,,,,,,,,0.573,1,,,,,,,,,,,,,,,,,,,,,,,,0.084413451,-0.421236319,0,0,0,,,,,,,DONKEY,HB,z,m,./images/DONKEYHB.png,,,,,,,,z,1,0.573,,,,,,,,0,66,66,103,1
,,,,,,,,,,,,,,,,,199411,18,2022-01-28_20h37.51.150,lexical_decision_task_DD,2021.2.3,Win32,59.88023952,,,,,,,,,,,0.5684,1,,,,,,,,,,,,,,,,,,,,,,,,0.084413451,-0.421236319,0,0,0,,,,,,,CHERRY,C,z,m,./images/CHERRY.png,,,,,,,,z,1,0.5684,,,,,,,,0,67,67,138,1
,,,,,,,,,,,,,,,,,199411,18,2022-01-28_20h37.51.150,lexical_decision_task_DD,2021.2.3,Win32,59.88023952,,,,,,,,,,,0.6815,1,,,,,,,,,,,,,,,,,,,,,,,,0.084413451,-0.421236319,0,0,0,,,,,,,MIRROR,C,m,m,./images/MIRROR.png,,,,,,,,m,1,0.6815,,,,,,,,0,68,68,63,1
,,,,,,,,,,,,,,,,,199411,18,2022-01-28_20h37.51.150,lexical_decision_task_DD,2021.2.3,Win32,59.88023952,,,,,,,,,,,0.8583,1,,,,,,,,,,,,,,,,,,,,,,,,0.084413451,-0.421236319,0,0,0,,,,,,,MEDAL,LB,z,m,./images/MEDALLB.png,,,,,,,,z,1,0.8583,,,,,,,,0,69,69,95,1
,,,,,,,,,,,,,,,,,199411,18,2022-01-28_20h37.51.150,lexical_decision_task_DD,2021.2.3,Win32,59.88023952,,,,,,,,,,,0.6414,1,,,,,,,,,,,,,,,,,,,,,,,,0.084413451,-0.421236319,0,0,0,,,,,,,JUMPER,LB,z,m,./images/JUMPERLB.png,,,,,,,,z,1,0.6414,,,,,,,,0,70,70,158,1
,,,,,,,,,,,,,,,,,199411,18,2022-01-28_20h37.51.150,lexical_decision_task_DD,2021.2.3,Win32,59.88023952,,,,,,,,,,,0.663,1,,,,,,,,,,,,,,,,,,,,,,,,0.084413451,-0.421236319,0,0,0,,,,,,,SPINE,LB,z,m,./images/SPINELB.png,,,,,,,,z,1,0.663,,,,,,,,0,71,71,149,1
,,,,,,,,,,,,,,,,,199411,18,2022-01-28_20h37.51.150,lexical_decision_task_DD,2021.2.3,Win32,59.88023952,,,,,,,,,,,0.6511,1,,,,,,,,,,,,,,,,,,,,,,,,0.084413451,-0.421236319,0,0,0,,,,,,,SPORT,C,m,m,./images/SPORT.png,,,,,,,,m,1,0.6511,,,,,,,,0,72,72,48,1
,,,,,,,,,,,,,,,,,199411,18,2022-01-28_20h37.51.150,lexical_decision_task_DD,2021.2.3,Win32,59.88023952,,,,,,,,,,,3.3915,0,,,,,,,,,,,,,,,,,,,,,,,,0.084413451,-0.421236319,0,0,0,,,,,,,MUSCLE,HB,m,m,./images/MUSCLEHB.png,,,,,,,,z,0,3.3915,,,,,,,,0,73,73,4,1
,,,,,,,,,,,,,,,,,199411,18,2022-01-28_20h37.51.150,lexical_decision_task_DD,2021.2.3,Win32,59.88023952,,,,,,,,,,,0.579,1,,,,,,,,,,,,,,,,,,,,,,,,0.084413451,-0.421236319,0,0,0,,,,,,,RHINO,C,m,m,./images/RHINO.png,,,,,,,,m,1,0.579,,,,,,,,0,74,74,9,1
,,,,,,,,,,,,,,,,,199411,18,2022-01-28_20h37.51.150,lexical_decision_task_DD,2021.2.3,Win32,59.88023952,,,,,,,,,,,0.7079,1,,,,,,,,,,,,,,,,,,,,,,,,0.084413451,-0.421236319,0,0,0,,,,,,,PAINT,HB,m,m,./images/PAINTHB.png,,,,,,,,m,1,0.7079,,,,,,,,0,75,75,7,1
,,,,,,,,,,,,,,,,,199411,18,2022-01-28_20h37.51.150,lexical_decision_task_DD,2021.2.3,Win32,59.88023952,,,,,,,,,,,1.3147,1,,,,,,,,,,,,,,,,,,,,,,,,0.084413451,-0.421236319,0,0,0,,,,,,,WEASEL,LB,m,m,./images/WEASELLB.png,,,,,,,,m,1,1.3147,,,,,,,,0,76,76,80,1
,,,,,,,,,,,,,,,,,199411,18,2022-01-28_20h37.51.150,lexical_decision_task_DD,2021.2.3,Win32,59.88023952,,,,,,,,,,,0.701,1,,,,,,,,,,,,,,,,,,,,,,,,0.084413451,-0.421236319,0,0,0,,,,,,,LAGOON,LB,z,m,./images/LAGOONLB.png,,,,,,,,z,1,0.701,,,,,,,,0,77,77,131,1
,,,,,,,,,,,,,,,,,199411,18,2022-01-28_20h37.51.150,lexical_decision_task_DD,2021.2.3,Win32,59.88023952,,,,,,,,,,,3.0141,1,,,,,,,,,,,,,,,,,,,,,,,,0.084413451,-0.421236319,0,0,0,,,,,,,WHEEL,LB,z,m,./images/WHEELLB.png,,,,,,,,z,1,3.0141,,,,,,,,0,78,78,161,1
,,,,,,,,,,,,,,,,,199411,18,2022-01-28_20h37.51.150,lexical_decision_task_DD,2021.2.3,Win32,59.88023952,,,,,,,,,,,0.935,1,,,,,,,,,,,,,,,,,,,,,,,,0.084413451,-0.421236319,0,0,0,,,,,,,LLAMA,LB,z,m,./images/LLAMALB.png,,,,,,,,z,1,0.935,,,,,,,,0,79,79,119,1
,,,,,,,,,,,,,,,,,199411,18,2022-01-28_20h37.51.150,lexical_decision_task_DD,2021.2.3,Win32,59.88023952,,,,,,,,,,,0.6008,1,,,,,,,,,,,,,,,,,,,,,,,,0.084413451,-0.421236319,0,0,0,,,,,,,STOVE,LB,z,m,./images/STOVELB.png,,,,,,,,z,1,0.6008,,,,,,,,0,80,80,86,1
,,,,,,,,,,,,,,,,,199411,18,2022-01-28_20h37.51.150,lexical_decision_task_DD,2021.2.3,Win32,59.88023952,,,,,,,,,,,0.7275,1,,,,,,,,,,,,,,,,,,,,,,,,0.084413451,-0.421236319,0,0,0,,,,,,,LITTER,C,m,m,./images/LITTER.png,,,,,,,,m,1,0.7275,,,,,,,,0,81,81,78,1
,,,,,,,,,,,,,,,,,199411,18,2022-01-28_20h37.51.150,lexical_decision_task_DD,2021.2.3,Win32,59.88023952,,,,,,,,,,,0.6728,1,,,,,,,,,,,,,,,,,,,,,,,,0.084413451,-0.421236319,0,0,0,,,,,,,WAGON,HB,z,m,./images/WAGONHB.png,,,,,,,,z,1,0.6728,,,,,,,,0,82,82,91,1
,,,,,,,,,,,,,,,,,199411,18,2022-01-28_20h37.51.150,lexical_decision_task_DD,2021.2.3,Win32,59.88023952,,,,,,,,,,,1.7498,0,,,,,,,,,,,,,,,,,,,,,,,,0.084413451,-0.421236319,0,0,0,space,,,,,,PILOT,LB,z,m,./images/PILOTLB.png,0.9676,,,,,,,m,0,1.7498,,,,,,,,0,83,83,134,1
,,,,,,,,,,,,,,,,,199411,18,2022-01-28_20h37.51.150,lexical_decision_task_DD,2021.2.3,Win32,59.88023952,,,,,,,,,,,1.0497,0,,,,,,,,,,,,,,,,,,,,,,,,0.084413451,-0.421236319,0,0,0,,,,,,,BLOKE,C,z,m,./images/BLOKE.png,,,,,,,,m,0,1.0497,,,,,,,,0,84,84,96,1
,,,,,,,,,,,,,,,,,199411,18,2022-01-28_20h37.51.150,lexical_decision_task_DD,2021.2.3,Win32,59.88023952,,,,,,,,,,,0.7681,1,,,,,,,,,,,,,,,,,,,,,,,,0.084413451,-0.421236319,0,0,0,,,,,,,POODLE,C,m,m,./images/POODLE.png,,,,,,,,m,1,0.7681,,,,,,,,0,85,85,81,1
,,,,,,,,,,,,,,,,,199411,18,2022-01-28_20h37.51.150,lexical_decision_task_DD,2021.2.3,Win32,59.88023952,,,,,,,,,,,0.7006,1,,,,,,,,,,,,,,,,,,,,,,,,0.084413451,-0.421236319,0,0,0,,,,,,,BRIDE,HB,z,m,./images/BRIDEHB.png,,,,,,,,z,1,0.7006,,,,,,,,0,86,86,148,1
,,,,,,,,,,,,,,,,,199411,18,2022-01-28_20h37.51.150,lexical_decision_task_DD,2021.2.3,Win32,59.88023952,,,,,,,,,,,0.6671,1,,,,,,,,,,,,,,,,,,,,,,,,0.084413451,-0.421236319,0,0,0,,,,,,,MELON,HB,m,m,./images/MELONHB.png,,,,,,,,m,1,0.6671,,,,,,,,0,87,87,22,1
,,,,,,,,,,,,,,,,,199411,18,2022-01-28_20h37.51.150,lexical_decision_task_DD,2021.2.3,Win32,59.88023952,,,,,,,,,,,0.7338,1,,,,,,,,,,,,,,,,,,,,,,,,0.084413451,-0.421236319,0,0,0,,,,,,,STEAK,HB,z,m,./images/STEAKHB.png,,,,,,,,z,1,0.7338,,,,,,,,0,88,88,115,1
,,,,,,,,,,,,,,,,,199411,18,2022-01-28_20h37.51.150,lexical_decision_task_DD,2021.2.3,Win32,59.88023952,,,,,,,,,,,0.7339,1,,,,,,,,,,,,,,,,,,,,,,,,0.084413451,-0.421236319,0,0,0,,,,,,,PEBBLE,HB,z,m,./images/PEBBLEHB.png,,,,,,,,z,1,0.7339,,,,,,,,0,89,89,166,1
,,,,,,,,,,,,,,,,,199411,18,2022-01-28_20h37.51.150,lexical_decision_task_DD,2021.2.3,Win32,59.88023952,,,,,,,,,,,0.6025,0,,,,,,,,,,,,,,,,,,,,,,,,0.084413451,-0.421236319,0,0,0,,,,,,,PEARL,HB,m,m,./images/PEARLHB.png,,,,,,,,z,0,0.6025,,,,,,,,0,90,90,46,1
,,,,,,,,,,,,,,,,,199411,18,2022-01-28_20h37.51.150,lexical_decision_task_DD,2021.2.3,Win32,59.88023952,,,,,,,,,,,1.9676,1,,,,,,,,,,,,,,,,,,,,,,,,0.084413451,-0.421236319,0,0,0,,,,,,,PARCEL,C,z,m,./images/PARCEL.png,,,,,,,,z,1,1.9676,,,,,,,,0,91,91,102,1
,,,,,,,,,,,,,,,,,199411,18,2022-01-28_20h37.51.150,lexical_decision_task_DD,2021.2.3,Win32,59.88023952,,,,,,,,,,,0.7626,1,,,,,,,,,,,,,,,,,,,,,,,,0.084413451,-0.421236319,0,0,0,,,,,,,MAMMAL,LB,z,m,./images/MAMMALLB.png,,,,,,,,z,1,0.7626,,,,,,,,0,92,92,146,1
,,,,,,,,,,,,,,,,,199411,18,2022-01-28_20h37.51.150,lexical_decision_task_DD,2021.2.3,Win32,59.88023952,,,,,,,,,,,0.6824,1,,,,,,,,,,,,,,,,,,,,,,,,0.084413451,-0.421236319,0,0,0,,,,,,,RAZOR,HB,z,m,./images/RAZORHB.png,,,,,,,,z,1,0.6824,,,,,,,,0,93,93,118,1
,,,,,,,,,,,,,,,,,199411,18,2022-01-28_20h37.51.150,lexical_decision_task_DD,2021.2.3,Win32,59.88023952,,,,,,,,,,,0.7244,1,,,,,,,,,,,,,,,,,,,,,,,,0.084413451,-0.421236319,0,0,0,,,,,,,SMOKER,LB,m,m,./images/SMOKERLB.png,,,,,,,,m,1,0.7244,,,,,,,,0,94,94,26,1
,,,,,,,,,,,,,,,,,199411,18,2022-01-28_20h37.51.150,lexical_decision_task_DD,2021.2.3,Win32,59.88023952,,,,,,,,,,,0.6232,1,,,,,,,,,,,,,,,,,,,,,,,,0.084413451,-0.421236319,0,0,0,,,,,,,TORCH,LB,m,m,./images/TORCHLB.png,,,,,,,,m,1,0.6232,,,,,,,,0,95,95,68,1
,,,,,,,,,,,,,,,,,199411,18,2022-01-28_20h37.51.150,lexical_decision_task_DD,2021.2.3,Win32,59.88023952,,,,,,,,,,,0.6853,1,,,,,,,,,,,,,,,,,,,,,,,,0.084413451,-0.421236319,0,0,0,,,,,,,BOXER,HB,z,m,./images/BOXERHB.png,,,,,,,,z,1,0.6853,,,,,,,,0,96,96,88,1
,,,,,,,,,,,,,,,,,199411,18,2022-01-28_20h37.51.150,lexical_decision_task_DD,2021.2.3,Win32,59.88023952,,,,,,,,,,,0.6155,1,,,,,,,,,,,,,,,,,,,,,,,,0.084413451,-0.421236319,0,0,0,,,,,,,CANYON,HB,m,m,./images/CANYONHB.png,,,,,,,,m,1,0.6155,,,,,,,,0,97,97,34,1
,,,,,,,,,,,,,,,,,199411,18,2022-01-28_20h37.51.150,lexical_decision_task_DD,2021.2.3,Win32,59.88023952,,,,,,,,,,,0.6733,1,,,,,,,,,,,,,,,,,,,,,,,,0.084413451,-0.421236319,0,0,0,,,,,,,GREASE,C,m,m,./images/GREASE.png,,,,,,,,m,1,0.6733,,,,,,,,0,98,98,15,1
,,,,,,,,,,,,,,,,,199411,18,2022-01-28_20h37.51.150,lexical_decision_task_DD,2021.2.3,Win32,59.88023952,,,,,,,,,,,0.6091,1,,,,,,,,,,,,,,,,,,,,,,,,0.084413451,-0.421236319,0,0,0,,,,,,,STOOL,HB,z,m,./images/STOOLHB.png,,,,,,,,z,1,0.6091,,,,,,,,0,99,99,127,1
,,,,,,,,,,,,,,,,,199411,18,2022-01-28_20h37.51.150,lexical_decision_task_DD,2021.2.3,Win32,59.88023952,,,,,,,,,,,0.5375,0,,,,,,,,,,,,,,,,,,,,,,,,0.084413451,-0.421236319,0,0,0,,,,,,,SWING,HB,m,m,./images/SWINGHB.png,,,,,,,,z,0,0.5375,,,,,,,,0,100,100,40,1
,,,,,,,,,,,,,,,,,199411,18,2022-01-28_20h37.51.150,lexical_decision_task_DD,2021.2.3,Win32,59.88023952,,,,,,,,,,,0.5287,0,,,,,,,,,,,,,,,,,,,,,,,,0.084413451,-0.421236319,0,0,0,,,,,,,COOKER,C,m,m,./images/COOKER.png,,,,,,,,z,0,0.5287,,,,,,,,0,101,101,69,1
,,,,,,,,,,,,,,,,,199411,18,2022-01-28_20h37.51.150,lexical_decision_task_DD,2021.2.3,Win32,59.88023952,,,,,,,,,,,0.9986,1,,,,,,,,,,,,,,,,,,,,,,,,0.084413451,-0.421236319,0,0,0,,,,,,,DRUMS,HB,m,m,./images/DRUMSHB.png,,,,,,,,m,1,0.9986,,,,,,,,0,102,102,49,1
,,,,,,,,,,,,,,,,,199411,18,2022-01-28_20h37.51.150,lexical_decision_task_DD,2021.2.3,Win32,59.88023952,,,,,,,,,,,0.8255,1,,,,,,,,,,,,,,,,,,,,,,,,0.084413451,-0.421236319,0,0,0,,,,,,,STREAM,LB,z,m,./images/STREAMLB.png,,,,,,,,z,1,0.8255,,,,,,,,0,103,103,125,1
,,,,,,,,,,,,,,,,,199411,18,2022-01-28_20h37.51.150,lexical_decision_task_DD,2021.2.3,Win32,59.88023952,,,,,,,,,,,0.6336,1,,,,,,,,,,,,,,,,,,,,,,,,0.084413451,-0.421236319,0,0,0,,,,,,,PIMPLE,LB,m,m,./images/PIMPLELB.png,,,,,,,,m,1,0.6336,,,,,,,,0,104,104,71,1
,,,,,,,,,,,,,,,,,199411,18,2022-01-28_20h37.51.150,lexical_decision_task_DD,2021.2.3,Win32,59.88023952,,,,,,,,,,,0.7396,1,,,,,,,,,,,,,,,,,,,,,,,,0.084413451,-0.421236319,0,0,0,,,,,,,NOOSE,C,m,m,./images/NOOSE.png,,,,,,,,m,1,0.7396,,,,,,,,0,105,105,72,1
,,,,,,,,,,,,,,,,,199411,18,2022-01-28_20h37.51.150,lexical_decision_task_DD,2021.2.3,Win32,59.88023952,,,,,,,,,,,0.5636,1,,,,,,,,,,,,,,,,,,,,,,,,0.084413451,-0.421236319,0,0,0,,,,,,,TOMATO,C,m,m,./images/TOMATO.png,,,,,,,,m,1,0.5636,,,,,,,,0,106,106,0,1
,,,,,,,,,,,,,,,,,199411,18,2022-01-28_20h37.51.150,lexical_decision_task_DD,2021.2.3,Win32,59.88023952,,,,,,,,,,,0.5619,1,,,,,,,,,,,,,,,,,,,,,,,,0.084413451,-0.421236319,0,0,0,,,,,,,BIRTH,HB,m,m,./images/BIRTHHB.png,,,,,,,,m,1,0.5619,,,,,,,,0,107,107,37,1
,,,,,,,,,,,,,,,,,199411,18,2022-01-28_20h37.51.150,lexical_decision_task_DD,2021.2.3,Win32,59.88023952,,,,,,,,,,,0.6413,1,,,,,,,,,,,,,,,,,,,,,,,,0.084413451,-0.421236319,0,0,0,,,,,,,SAUNA,C,z,m,./images/SAUNA.png,,,,,,,,z,1,0.6413,,,,,,,,0,108,108,117,1
,,,,,,,,,,,,,,,,,199411,18,2022-01-28_20h37.51.150,lexical_decision_task_DD,2021.2.3,Win32,59.88023952,,,,,,,,,,,0.9907,0,,,,,,,,,,,,,,,,,,,,,,,,0.084413451,-0.421236319,0,0,0,,,,,,,MUMMY,HB,z,m,./images/MUMMYHB.png,,,,,,,,m,0,0.9907,,,,,,,,0,109,109,130,1
,,,,,,,,,,,,,,,,,199411,18,2022-01-28_20h37.51.150,lexical_decision_task_DD,2021.2.3,Win32,59.88023952,,,,,,,,,,,1.2113,0,,,,,,,,,,,,,,,,,,,,,,,,0.084413451,-0.421236319,0,0,0,,,,,,,SHIELD,C,z,m,./images/SHIELD.png,,,,,,,,m,0,1.2113,,,,,,,,0,110,110,132,1
,,,,,,,,,,,,,,,,,199411,18,2022-01-28_20h37.51.150,lexical_decision_task_DD,2021.2.3,Win32,59.88023952,,,,,,,,,,,0.6415,1,,,,,,,,,,,,,,,,,,,,,,,,0.084413451,-0.421236319,0,0,0,,,,,,,BRUSH,LB,z,m,./images/BRUSHLB.png,,,,,,,,z,1,0.6415,,,,,,,,0,111,111,143,1
,,,,,,,,,,,,,,,,,199411,18,2022-01-28_20h37.51.150,lexical_decision_task_DD,2021.2.3,Win32,59.88023952,,,,,,,,,,,1.3137,1,,,,,,,,,,,,,,,,,,,,,,,,0.084413451,-0.421236319,0,0,0,,,,,,,WHISKY,LB,z,m,./images/WHISKYLB.png,,,,,,,,z,1,1.3137,,,,,,,,0,112,112,167,1
,,,,,,,,,,,,,,,,,199411,18,2022-01-28_20h37.51.150,lexical_decision_task_DD,2021.2.3,Win32,59.88023952,,,,,,,,,,,0.8555,1,,,,,,,,,,,,,,,,,,,,,,,,0.084413451,-0.421236319,0,0,0,,,,,,,FINGER,C,m,m,./images/FINGER.png,,,,,,,,m,1,0.8555,,,,,,,,0,113,113,3,1
,,,,,,,,,,,,,,,,,199411,18,2022-01-28_20h37.51.150,lexical_decision_task_DD,2021.2.3,Win32,59.88023952,,,,,,,,,,,0.9994,1,,,,,,,,,,,,,,,,,,,,,,,,0.084413451,-0.421236319,0,0,0,,,,,,,MIDGET,HB,z,m,./images/MIDGETHB.png,,,,,,,,z,1,0.9994,,,,,,,,0,114,114,160,1
,,,,,,,,,,,,,,,,,199411,18,2022-01-28_20h37.51.150,lexical_decision_task_DD,2021.2.3,Win32,59.88023952,,,,,,,,,,,0.8612,1,,,,,,,,,,,,,,,,,,,,,,,,0.084413451,-0.421236319,0,0,0,,,,,,,SLOPE,C,z,m,./images/SLOPE.png,,,,,,,,z,1,0.8612,,,,,,,,0,115,115,114,1
,,,,,,,,,,,,,,,,,199411,18,2022-01-28_20h37.51.150,lexical_decision_task_DD,2021.2.3,Win32,59.88023952,,,,,,,,,,,0.9891,1,,,,,,,,,,,,,,,,,,,,,,,,0.084413451,-0.421236319,0,0,0,,,,,,,ARTIST,HB,z,m,./images/ARTISTHB.png,,,,,,,,z,1,0.9891,,,,,,,,0,116,116,145,1
,,,,,,,,,,,,,,,,,199411,18,2022-01-28_20h37.51.150,lexical_decision_task_DD,2021.2.3,Win32,59.88023952,,,,,,,,,,,0.6231,1,,,,,,,,,,,,,,,,,,,,,,,,0.084413451,-0.421236319,0,0,0,,,,,,,CRUST,HB,m,m,./images/CRUSTHB.png,,,,,,,,m,1,0.6231,,,,,,,,0,117,117,79,1
,,,,,,,,,,,,,,,,,199411,18,2022-01-28_20h37.51.150,lexical_decision_task_DD,2021.2.3,Win32,59.88023952,,,,,,,,,,,0.9809,0,,,,,,,,,,,,,,,,,,,,,,,,0.084413451,-0.421236319,0,0,0,,,,,,,STAIN,C,z,m,./images/STAIN.png,,,,,,,,m,0,0.9809,,,,,,,,0,118,118,90,1
,,,,,,,,,,,,,,,,,199411,18,2022-01-28_20h37.51.150,lexical_decision_task_DD,2021.2.3,Win32,59.88023952,,,,,,,,,,,0.6937,1,,,,,,,,,,,,,,,,,,,,,,,,0.084413451,-0.421236319,0,0,0,,,,,,,BERRY,LB,m,m,./images/BERRYLB.png,,,,,,,,m,1,0.6937,,,,,,,,0,119,119,47,1
,,,,,,,,,,,,,,,,,199411,18,2022-01-28_20h37.51.150,lexical_decision_task_DD,2021.2.3,Win32,59.88023952,,,,,,,,,,,0.6083,1,,,,,,,,,,,,,,,,,,,,,,,,0.084413451,-0.421236319,0,0,0,,,,,,,SWEAT,C,m,m,./images/SWEAT.png,,,,,,,,m,1,0.6083,,,,,,,,0,120,120,66,1
,,,,,,,,,,,,,,,,,199411,18,2022-01-28_20h37.51.150,lexical_decision_task_DD,2021.2.3,Win32,59.88023952,,,,,,,,,,,0.545,1,,,,,,,,,,,,,,,,,,,,,,,,0.084413451,-0.421236319,0,0,0,,,,,,,WRIST,HB,m,m,./images/WRISTHB.png,,,,,,,,m,1,0.545,,,,,,,,0,121,121,25,1
,,,,,,,,,,,,,,,,,199411,18,2022-01-28_20h37.51.150,lexical_decision_task_DD,2021.2.3,Win32,59.88023952,,,,,,,,,,,1.0472,0,,,,,,,,,,,,,,,,,,,,,,,,0.084413451,-0.421236319,0,0,0,,,,,,,GRAPE,HB,z,m,./images/GRAPEHB.png,,,,,,,,m,0,1.0472,,,,,,,,0,122,122,100,1
,,,,,,,,,,,,,,,,,199411,18,2022-01-28_20h37.51.150,lexical_decision_task_DD,2021.2.3,Win32,59.88023952,,,,,,,,,,,0.8382,0,,,,,,,,,,,,,,,,,,,,,,,,0.084413451,-0.421236319,0,0,0,,,,,,,JELLY,HB,m,m,./images/JELLYHB.png,,,,,,,,z,0,0.8382,,,,,,,,0,123,123,64,1
,,,,,,,,,,,,,,,,,199411,18,2022-01-28_20h37.51.150,lexical_decision_task_DD,2021.2.3,Win32,59.88023952,,,,,,,,,,,0.5248,1,,,,,,,,,,,,,,,,,,,,,,,,0.084413451,-0.421236319,0,0,0,,,,,,,HOCKEY,LB,z,m,./images/HOCKEYLB.png,,,,,,,,z,1,0.5248,,,,,,,,0,124,124,116,1
,,,,,,,,,,,,,,,,,199411,18,2022-01-28_20h37.51.150,lexical_decision_task_DD,2021.2.3,Win32,59.88023952,,,,,,,,,,,0.4553,1,,,,,,,,,,,,,,,,,,,,,,,,0.084413451,-0.421236319,0,0,0,space,,,,,,BUBBLE,LB,z,m,./images/BUBBLELB.png,8.6418,,,,,,,z,1,0.4553,,,,,,,,0,125,125,155,1
,,,,,,,,,,,,,,,,,199411,18,2022-01-28_20h37.51.150,lexical_decision_task_DD,2021.2.3,Win32,59.88023952,,,,,,,,,,,0.8678,1,,,,,,,,,,,,,,,,,,,,,,,,0.084413451,-0.421236319,0,0,0,,,,,,,GLOVE,HB,z,m,./images/GLOVEHB.png,,,,,,,,z,1,0.8678,,,,,,,,0,126,126,157,1
,,,,,,,,,,,,,,,,,199411,18,2022-01-28_20h37.51.150,lexical_decision_task_DD,2021.2.3,Win32,59.88023952,,,,,,,,,,,0.6682,1,,,,,,,,,,,,,,,,,,,,,,,,0.084413451,-0.421236319,0,0,0,,,,,,,HEATER,LB,z,m,./images/HEATERLB.png,,,,,,,,z,1,0.6682,,,,,,,,0,127,127,140,1
,,,,,,,,,,,,,,,,,199411,18,2022-01-28_20h37.51.150,lexical_decision_task_DD,2021.2.3,Win32,59.88023952,,,,,,,,,,,0.9672,1,,,,,,,,,,,,,,,,,,,,,,,,0.084413451,-0.421236319,0,0,0,,,,,,,FARMER,LB,m,m,./images/FARMERLB.png,,,,,,,,m,1,0.9672,,,,,,,,0,128,128,65,1
,,,,,,,,,,,,,,,,,199411,18,2022-01-28_20h37.51.150,lexical_decision_task_DD,2021.2.3,Win32,59.88023952,,,,,,,,,,,0.6624,0,,,,,,,,,,,,,,,,,,,,,,,,0.084413451,-0.421236319,0,0,0,,,,,,,PISTOL,LB,z,m,./images/PISTOLLB.png,,,,,,,,m,0,0.6624,,,,,,,,0,129,129,113,1
,,,,,,,,,,,,,,,,,199411,18,2022-01-28_20h37.51.150,lexical_decision_task_DD,2021.2.3,Win32,59.88023952,,,,,,,,,,,0.5383,1,,,,,,,,,,,,,,,,,,,,,,,,0.084413451,-0.421236319,0,0,0,,,,,,,FALCON,HB,m,m,./images/FALCONHB.png,,,,,,,,m,1,0.5383,,,,,,,,0,130,130,28,1
,,,,,,,,,,,,,,,,,199411,18,2022-01-28_20h37.51.150,lexical_decision_task_DD,2021.2.3,Win32,59.88023952,,,,,,,,,,,0.6411,0,,,,,,,,,,,,,,,,,,,,,,,,0.084413451,-0.421236319,0,0,0,,,,,,,SNAKE,HB,z,m,./images/SNAKEHB.png,,,,,,,,m,0,0.6411,,,,,,,,0,131,131,124,1
,,,,,,,,,,,,,,,,,199411,18,2022-01-28_20h37.51.150,lexical_decision_task_DD,2021.2.3,Win32,59.88023952,,,,,,,,,,,0.7369,1,,,,,,,,,,,,,,,,,,,,,,,,0.084413451,-0.421236319,0,0,0,,,,,,,TULIP,LB,m,m,./images/TULIPLB.png,,,,,,,,m,1,0.7369,,,,,,,,0,132,132,8,1
,,,,,,,,,,,,,,,,,199411,18,2022-01-28_20h37.51.150,lexical_decision_task_DD,2021.2.3,Win32,59.88023952,,,,,,,,,,,0.6583,1,,,,,,,,,,,,,,,,,,,,,,,,0.084413451,-0.421236319,0,0,0,,,,,,,CLOUD,LB,z,m,./images/CLOUDLB.png,,,,,,,,z,1,0.6583,,,,,,,,0,133,133,110,1
,,,,,,,,,,,,,,,,,199411,18,2022-01-28_20h37.51.150,lexical_decision_task_DD,2021.2.3,Win32,59.88023952,,,,,,,,,,,0.4962,0,,,,,,,,,,,,,,,,,,,,,,,,0.084413451,-0.421236319,0,0,0,,,,,,,MAGGOT,C,m,m,./images/MAGGOT.png,,,,,,,,z,0,0.4962,,,,,,,,0,134,134,33,1
,,,,,,,,,,,,,,,,,199411,18,2022-01-28_20h37.51.150,lexical_decision_task_DD,2021.2.3,Win32,59.88023952,,,,,,,,,,,0.7949,0,,,,,,,,,,,,,,,,,,,,,,,,0.084413451,-0.421236319,0,0,0,,,,,,,BELLY,HB,m,m,./images/BELLYHB.png,,,,,,,,z,0,0.7949,,,,,,,,0,135,135,10,1
,,,,,,,,,,,,,,,,,199411,18,2022-01-28_20h37.51.150,lexical_decision_task_DD,2021.2.3,Win32,59.88023952,,,,,,,,,,,0.6908,1,,,,,,,,,,,,,,,,,,,,,,,,0.084413451,-0.421236319,0,0,0,,,,,,,SKIING,LB,m,m,./images/SKIINGLB.png,,,,,,,,m,1,0.6908,,,,,,,,0,136,136,17,1
,,,,,,,,,,,,,,,,,199411,18,2022-01-28_20h37.51.150,lexical_decision_task_DD,2021.2.3,Win32,59.88023952,,,,,,,,,,,0.7134,1,,,,,,,,,,,,,,,,,,,,,,,,0.084413451,-0.421236319,0,0,0,,,,,,,BISHOP,HB,z,m,./images/BISHOPHB.png,,,,,,,,z,1,0.7134,,,,,,,,0,137,137,133,1
,,,,,,,,,,,,,,,,,199411,18,2022-01-28_20h37.51.150,lexical_decision_task_DD,2021.2.3,Win32,59.88023952,,,,,,,,,,,2.3377,0,,,,,,,,,,,,,,,,,,,,,,,,0.084413451,-0.421236319,0,0,0,,,,,,,STATUE,C,z,m,./images/STATUE.png,,,,,,,,m,0,2.3377,,,,,,,,0,138,138,150,1
,,,,,,,,,,,,,,,,,199411,18,2022-01-28_20h37.51.150,lexical_decision_task_DD,2021.2.3,Win32,59.88023952,,,,,,,,,,,0.6661,1,,,,,,,,,,,,,,,,,,,,,,,,0.084413451,-0.421236319,0,0,0,,,,,,,SAILOR,HB,m,m,./images/SAILORHB.png,,,,,,,,m,1,0.6661,,,,,,,,0,139,139,67,1
,,,,,,,,,,,,,,,,,199411,18,2022-01-28_20h37.51.150,lexical_decision_task_DD,2021.2.3,Win32,59.88023952,,,,,,,,,,,0.6241,1,,,,,,,,,,,,,,,,,,,,,,,,0.084413451,-0.421236319,0,0,0,,,,,,,MOTOR,HB,m,m,./images/MOTORHB.png,,,,,,,,m,1,0.6241,,,,,,,,0,140,140,13,1
,,,,,,,,,,,,,,,,,199411,18,2022-01-28_20h37.51.150,lexical_decision_task_DD,2021.2.3,Win32,59.88023952,,,,,,,,,,,0.9755,0,,,,,,,,,,,,,,,,,,,,,,,,0.084413451,-0.421236319,0,0,0,,,,,,,ENGINE,LB,z,m,./images/ENGINELB.png,,,,,,,,m,0,0.9755,,,,,,,,0,141,141,122,1
,,,,,,,,,,,,,,,,,199411,18,2022-01-28_20h37.51.150,lexical_decision_task_DD,2021.2.3,Win32,59.88023952,,,,,,,,,,,0.9135,1,,,,,,,,,,,,,,,,,,,,,,,,0.084413451,-0.421236319,0,0,0,,,,,,,GARDEN,HB,z,m,./images/GARDENHB.png,,,,,,,,z,1,0.9135,,,,,,,,0,142,142,94,1
,,,,,,,,,,,,,,,,,199411,18,2022-01-28_20h37.51.150,lexical_decision_task_DD,2021.2.3,Win32,59.88023952,,,,,,,,,,,0.8963,1,,,,,,,,,,,,,,,,,,,,,,,,0.084413451,-0.421236319,0,0,0,,,,,,,CANDLE,HB,m,m,./images/CANDLEHB.png,,,,,,,,m,1,0.8963,,,,,,,,0,143,143,61,1
,,,,,,,,,,,,,,,,,199411,18,2022-01-28_20h37.51.150,lexical_decision_task_DD,2021.2.3,Win32,59.88023952,,,,,,,,,,,1.5724,0,,,,,,,,,,,,,,,,,,,,,,,,0.084413451,-0.421236319,0,0,0,,,,,,,STRING,LB,m,m,./images/STRINGLB.png,,,,,,,,z,0,1.5724,,,,,,,,0,144,144,41,1
,,,,,,,,,,,,,,,,,199411,18,2022-01-28_20h37.51.150,lexical_decision_task_DD,2021.2.3,Win32,59.88023952,,,,,,,,,,,2.1299,1,,,,,,,,,,,,,,,,,,,,,,,,0.084413451,-0.421236319,0,0,0,,,,,,,SHORE,C,m,m,./images/SHORE.png,,,,,,,,m,1,2.1299,,,,,,,,0,145,145,12,1
,,,,,,,,,,,,,,,,,199411,18,2022-01-28_20h37.51.150,lexical_decision_task_DD,2021.2.3,Win32,59.88023952,,,,,,,,,,,0.6229,0,,,,,,,,,,,,,,,,,,,,,,,,0.084413451,-0.421236319,0,0,0,,,,,,,TOWEL,HB,z,m,./images/TOWELHB.png,,,,,,,,m,0,0.6229,,,,,,,,0,146,146,85,1
,,,,,,,,,,,,,,,,,199411,18,2022-01-28_20h37.51.150,lexical_decision_task_DD,2021.2.3,Win32,59.88023952,,,,,,,,,,,1.2406,1,,,,,,,,,,,,,,,,,,,,,,,,0.084413451,-0.421236319,0,0,0,,,,,,,KITTEN,C,m,m,./images/KITTEN.png,,,,,,,,m,1,1.2406,,,,,,,,0,147,147,45,1
,,,,,,,,,,,,,,,,,199411,18,2022-01-28_20h37.51.150,lexical_decision_task_DD,2021.2.3,Win32,59.88023952,,,,,,,,,,,0.6047,0,,,,,,,,,,,,,,,,,,,,,,,,0.084413451,-0.421236319,0,0,0,,,,,,,TIGER,HB,z,m,./images/TIGERHB.png,,,,,,,,m,0,0.6047,,,,,,,,0,148,148,121,1
,,,,,,,,,,,,,,,,,199411,18,2022-01-28_20h37.51.150,lexical_decision_task_DD,2021.2.3,Win32,59.88023952,,,,,,,,,,,0.7375,1,,,,,,,,,,,,,,,,,,,,,,,,0.084413451,-0.421236319,0,0,0,,,,,,,CEMENT,LB,m,m,./images/CEMENTLB.png,,,,,,,,m,1,0.7375,,,,,,,,0,149,149,74,1
,,,,,,,,,,,,,,,,,199411,18,2022-01-28_20h37.51.150,lexical_decision_task_DD,2021.2.3,Win32,59.88023952,,,,,,,,,,,0.9582,1,,,,,,,,,,,,,,,,,,,,,,,,0.084413451,-0.421236319,0,0,0,,,,,,,CLOTH,LB,z,m,./images/CLOTHLB.png,,,,,,,,z,1,0.9582,,,,,,,,0,150,150,107,1
,,,,,,,,,,,,,,,,,199411,18,2022-01-28_20h37.51.150,lexical_decision_task_DD,2021.2.3,Win32,59.88023952,,,,,,,,,,,1.0606,1,,,,,,,,,,,,,,,,,,,,,,,,0.084413451,-0.421236319,0,0,0,,,,,,,ONION,C,m,m,./images/ONION.png,,,,,,,,m,1,1.0606,,,,,,,,0,151,151,51,1
,,,,,,,,,,,,,,,,,199411,18,2022-01-28_20h37.51.150,lexical_decision_task_DD,2021.2.3,Win32,59.88023952,,,,,,,,,,,0.6805,1,,,,,,,,,,,,,,,,,,,,,,,,0.084413451,-0.421236319,0,0,0,,,,,,,BURIAL,LB,m,m,./images/BURIALLB.png,,,,,,,,m,1,0.6805,,,,,,,,0,152,152,59,1
,,,,,,,,,,,,,,,,,199411,18,2022-01-28_20h37.51.150,lexical_decision_task_DD,2021.2.3,Win32,59.88023952,,,,,,,,,,,0.9455,1,,,,,,,,,,,,,,,,,,,,,,,,0.084413451,-0.421236319,0,0,0,,,,,,,CASINO,HB,z,m,./images/CASINOHB.png,,,,,,,,z,1,0.9455,,,,,,,,0,153,153,112,1
,,,,,,,,,,,,,,,,,199411,18,2022-01-28_20h37.51.150,lexical_decision_task_DD,2021.2.3,Win32,59.88023952,,,,,,,,,,,3.015,1,,,,,,,,,,,,,,,,,,,,,,,,0.084413451,-0.421236319,0,0,0,,,,,,,VALLEY,LB,z,m,./images/VALLEYLB.png,,,,,,,,z,1,3.015,,,,,,,,0,154,154,152,1
,,,,,,,,,,,,,,,,,199411,18,2022-01-28_20h37.51.150,lexical_decision_task_DD,2021.2.3,Win32,59.88023952,,,,,,,,,,,0.6002,1,,,,,,,,,,,,,,,,,,,,,,,,0.084413451,-0.421236319,0,0,0,,,,,,,MUFFIN,HB,m,m,./images/MUFFINHB.png,,,,,,,,m,1,0.6002,,,,,,,,0,155,155,55,1
,,,,,,,,,,,,,,,,,199411,18,2022-01-28_20h37.51.150,lexical_decision_task_DD,2021.2.3,Win32,59.88023952,,,,,,,,,,,0.7507,1,,,,,,,,,,,,,,,,,,,,,,,,0.084413451,-0.421236319,0,0,0,,,,,,,FERRY,C,z,m,./images/FERRY.png,,,,,,,,z,1,0.7507,,,,,,,,0,156,156,141,1
,,,,,,,,,,,,,,,,,199411,18,2022-01-28_20h37.51.150,lexical_decision_task_DD,2021.2.3,Win32,59.88023952,,,,,,,,,,,0.7171,1,,,,,,,,,,,,,,,,,,,,,,,,0.084413451,-0.421236319,0,0,0,,,,,,,RULER,HB,z,m,./images/RULERHB.png,,,,,,,,z,1,0.7171,,,,,,,,0,157,157,163,1
,,,,,,,,,,,,,,,,,199411,18,2022-01-28_20h37.51.150,lexical_decision_task_DD,2021.2.3,Win32,59.88023952,,,,,,,,,,,1.0671,1,,,,,,,,,,,,,,,,,,,,,,,,0.084413451,-0.421236319,0,0,0,,,,,,,MONKEY,C,z,m,./images/MONKEY.png,,,,,,,,z,1,1.0671,,,,,,,,0,158,158,129,1
,,,,,,,,,,,,,,,,,199411,18,2022-01-28_20h37.51.150,lexical_decision_task_DD,2021.2.3,Win32,59.88023952,,,,,,,,,,,0.7517,1,,,,,,,,,,,,,,,,,,,,,,,,0.084413451,-0.421236319,0,0,0,,,,,,,SAUCE,C,z,m,./images/SAUCE.png,,,,,,,,z,1,0.7517,,,,,,,,0,159,159,135,1
,,,,,,,,,,,,,,,,,199411,18,2022-01-28_20h37.51.150,lexical_decision_task_DD,2021.2.3,Win32,59.88023952,,,,,,,,,,,0.6829,1,,,,,,,,,,,,,,,,,,,,,,,,0.084413451,-0.421236319,0,0,0,,,,,,,DANCER,C,z,m,./images/DANCER.png,,,,,,,,z,1,0.6829,,,,,,,,0,160,160,105,1
,,,,,,,,,,,,,,,,,199411,18,2022-01-28_20h37.51.150,lexical_decision_task_DD,2021.2.3,Win32,59.88023952,,,,,,,,,,,0.6675,1,,,,,,,,,,,,,,,,,,,,,,,,0.084413451,-0.421236319,0,0,0,,,,,,,BARREL,LB,m,m,./images/BARRELLB.png,,,,,,,,m,1,0.6675,,,,,,,,0,161,161,32,1
,,,,,,,,,,,,,,,,,199411,18,2022-01-28_20h37.51.150,lexical_decision_task_DD,2021.2.3,Win32,59.88023952,,,,,,,,,,,1.2337,0,,,,,,,,,,,,,,,,,,,,,,,,0.084413451,-0.421236319,0,0,0,,,,,,,WALRUS,LB,m,m,./images/WALRUSLB.png,,,,,,,,z,0,1.2337,,,,,,,,0,162,162,23,1
,,,,,,,,,,,,,,,,,199411,18,2022-01-28_20h37.51.150,lexical_decision_task_DD,2021.2.3,Win32,59.88023952,,,,,,,,,,,0.634,1,,,,,,,,,,,,,,,,,,,,,,,,0.084413451,-0.421236319,0,0,0,,,,,,,CLIFF,LB,z,m,./images/CLIFFLB.png,,,,,,,,z,1,0.634,,,,,,,,0,163,163,92,1
,,,,,,,,,,,,,,,,,199411,18,2022-01-28_20h37.51.150,lexical_decision_task_DD,2021.2.3,Win32,59.88023952,,,,,,,,,,,0.5551,1,,,,,,,,,,,,,,,,,,,,,,,,0.084413451,-0.421236319,0,0,0,,,,,,,GRANNY,LB,z,m,./images/GRANNYLB.png,,,,,,,,z,1,0.5551,,,,,,,,0,164,164,104,1
,,,,,,,,,,,,,,,,,199411,18,2022-01-28_20h37.51.150,lexical_decision_task_DD,2021.2.3,Win32,59.88023952,,,,,,,,,,,0.8502,0,,,,,,,,,,,,,,,,,,,,,,,,0.084413451,-0.421236319,0,0,0,,,,,,,SHELF,C,m,m,./images/SHELF.png,,,,,,,,z,0,0.8502,,,,,,,,0,165,165,39,1
,,,,,,,,,,,,,,,,,199411,18,2022-01-28_20h37.51.150,lexical_decision_task_DD,2021.2.3,Win32,59.88023952,,,,,,,,,,,0.6339,1,,,,,,,,,,,,,,,,,,,,,,,,0.084413451,-0.421236319,0,0,0,,,,,,,FENCE,LB,z,m,./images/FENCELB.png,,,,,,,,z,1,0.6339,,,,,,,,0,166,166,98,1
,,,,,,,,,,,,,,,,,199411,18,2022-01-28_20h37.51.150,lexical_decision_task_DD,2021.2.3,Win32,59.88023952,,,,,,,,,,,2.5182,1,,,,,,,,,,,,,,,,,,,,,,,,0.084413451,-0.421236319,0,0,0,,,,,,,BAMBOO,LB,z,m,./images/BAMBOOLB.png,,,,,,,,z,1,2.5182,,,,,,,,0,167,167,89,1
