key_resp.keys,instr_done_touch.x,instr_done_touch.y,instr_done_touch.leftButton,instr_done_touch.midButton,instr_done_touch.rightButton,instr_done_touch.clicked_name,instruction_pages.thisRepN,instruction_pages.thisTrialN,instruction_pages.thisN,instruction_pages.thisIndex,instruction_pages.ran,pageN,phase,instruct_text,has_image,instruct_image,participant,age,date,expName,psychopyVersion,OS,frameRate,response.keys,response.corr,response.rt,touch_resp.x,touch_resp.y,touch_resp.leftButton,touch_resp.midButton,touch_resp.rightButton,touch_resp.time,touch_resp.clicked_name,rt,corr,practrials.thisRepN,practrials.thisTrialN,practrials.thisN,practrials.thisIndex,practrials.ran,TrialID,Target,corrAns,end_of_practice_trials_pages.thisRepN,end_of_practice_trials_pages.thisTrialN,end_of_practice_trials_pages.thisN,end_of_practice_trials_pages.thisIndex,end_of_practice_trials_pages.ran,key_resp_2.keys,key_resp_2.corr,key_resp_2.rt,targ_click.x,targ_click.y,targ_click.leftButton,targ_click.midButton,targ_click.rightButton,targ_click.time,targ_click.clicked_name,break_done_touch.x,break_done_touch.y,break_done_touch.leftButton,break_done_touch.midButton,break_done_touch.rightButton,break_done_keyboard.keys,maintrials.thisRepN,maintrials.thisTrialN,maintrials.thisN,maintrials.thisIndex,maintrials.ran,string,blur,study,lex,stim_path,break_done_keyboard.rt,key_resp.rt,test_instructions.thisRepN,test_instructions.thisTrialN,test_instructions.thisN,test_instructions.thisIndex,test_instructions.ran,key_resp_3.keys,key_resp_3.corr,key_resp_3.rt,test_click.x,test_click.y,test_click.leftButton,test_click.midButton,test_click.rightButton,test_click.time,test_click.clicked_name,test_phase.thisRepN,test_phase.thisTrialN,test_phase.thisN,test_phase.thisIndex,test_phase.ran
,0.05462963,-0.402777778,1,0,0,instr_done_button,0,0,0,0,1,1,instructions,"INSTRUCTIONS
At the start of each trial, look at the plus sign  (+) in the center of the screen.  This tells you that a trial is about to begin and where to look. Second, the plus sign will disappear and a string of letters will appear. Your task is to determine if the string of letters is a word or not. If the item is a word press the M key (on keyboard)  or touch the word button (phone/tablet).  If the item is not a word,  press the  Z key (on keyboard)  or touch the nonword button (on phone/tablet). 
Press the space bar or touch  continue.",0,,199450,18,2022-01-28_15h36.00.599,lexical_decision_task_DD_L3,2021.2.3,Win32,60.0240096,,,,,,,,,,,,,,,,,,,,,,,,,,,,,,,,,,,,,,,,,,,,,,,,,,,,,,,,,,,,,,,,,,,,,,,,,
,0.052777778,-0.402777778,1,0,0,instr_done_button,0,1,1,1,1,2,instructions,"If your device has a keyboard, press the 'Z' key for nonwords and the 'M' key for words.





Press the space bar or touch the button below to continue.",0,keyboard-example.gif,199450,18,2022-01-28_15h36.00.599,lexical_decision_task_DD_L3,2021.2.3,Win32,60.0240096,,,,,,,,,,,,,,,,,,,,,,,,,,,,,,,,,,,,,,,,,,,,,,,,,,,,,,,,,,,,,,,,,,,,,,,,,
,0.086111111,-0.377777778,1,0,0,instr_done_button,0,2,2,2,1,3,instructions,"If you are using a touchscreen only device, use the buttons on the screen. Do not use the mouse.





Press the space bar or touch the button below to continue.",0,touchscreen-example.gif,199450,18,2022-01-28_15h36.00.599,lexical_decision_task_DD_L3,2021.2.3,Win32,60.0240096,,,,,,,,,,,,,,,,,,,,,,,,,,,,,,,,,,,,,,,,,,,,,,,,,,,,,,,,,,,,,,,,,,,,,,,,,
,0.086111111,-0.377777778,1,0,0,instr_done_button,0,3,3,3,1,4,instructions,"It is very important that you respond as quickly and accurately as possible, as each letter string will only be on the screen for two seconds. If you do not respond within this time, the message 'Too slow!' will be displayed and the experiment will progress to the next letter string. The first 20 trials will be practice trials and you will receive feedback on your answers. 

Press the space bar or touch the button below to start the practice trials.",0,,199450,18,2022-01-28_15h36.00.599,lexical_decision_task_DD_L3,2021.2.3,Win32,60.0240096,,,,,,,,,,,,,,,,,,,,,,,,,,,,,,,,,,,,,,,,,,,,,,,,,,,,,,,,,,,,,,,,,,,,,,,,,
,,,,,,,,,,,,,,,,,199450,18,2022-01-28_15h36.00.599,lexical_decision_task_DD_L3,2021.2.3,Win32,60.0240096,m,0,1.811,,,,,,,,1.811,0,0,0,0,10,1,1001,INLADE,z,,,,,,,,,,,,,,,,,,,,,,,,,,,,,,,,,,,,,,,,,,,,,,,,,,,,,
,,,,,,,,,,,,,,,,,199450,18,2022-01-28_15h36.00.599,lexical_decision_task_DD_L3,2021.2.3,Win32,60.0240096,m,0,1.717,,,,,,,,1.717,0,0,1,1,15,1,1001,WHAISE,z,,,,,,,,,,,,,,,,,,,,,,,,,,,,,,,,,,,,,,,,,,,,,,,,,,,,,
,,,,,,,,,,,,,,,,,199450,18,2022-01-28_15h36.00.599,lexical_decision_task_DD_L3,2021.2.3,Win32,60.0240096,m,1,1.277,,,,,,,,1.277,1,0,2,2,4,1,1001,SQUEAK,m,,,,,,,,,,,,,,,,,,,,,,,,,,,,,,,,,,,,,,,,,,,,,,,,,,,,,
,,,,,,,,,,,,,,,,,199450,18,2022-01-28_15h36.00.599,lexical_decision_task_DD_L3,2021.2.3,Win32,60.0240096,m,1,0.802,,,,,,,,0.802,1,0,3,3,5,1,1001,OBTAIN,m,,,,,,,,,,,,,,,,,,,,,,,,,,,,,,,,,,,,,,,,,,,,,,,,,,,,,
,,,,,,,,,,,,,,,,,199450,18,2022-01-28_15h36.00.599,lexical_decision_task_DD_L3,2021.2.3,Win32,60.0240096,m,1,0.787,,,,,,,,0.787,1,0,4,4,3,1,1001,MATRIX,m,,,,,,,,,,,,,,,,,,,,,,,,,,,,,,,,,,,,,,,,,,,,,,,,,,,,,
,,,,,,,,,,,,,,,,,199450,18,2022-01-28_15h36.00.599,lexical_decision_task_DD_L3,2021.2.3,Win32,60.0240096,z,1,1.425,,,,,,,,1.425,1,0,5,5,9,1,1001,FARINY,z,,,,,,,,,,,,,,,,,,,,,,,,,,,,,,,,,,,,,,,,,,,,,,,,,,,,,
,,,,,,,,,,,,,,,,,199450,18,2022-01-28_15h36.00.599,lexical_decision_task_DD_L3,2021.2.3,Win32,60.0240096,m,1,0.772,,,,,,,,0.772,1,0,6,6,6,1,1001,ZOMBIE,m,,,,,,,,,,,,,,,,,,,,,,,,,,,,,,,,,,,,,,,,,,,,,,,,,,,,,
,,,,,,,,,,,,,,,,,199450,18,2022-01-28_15h36.00.599,lexical_decision_task_DD_L3,2021.2.3,Win32,60.0240096,m,1,0.723,,,,,,,,0.723,1,0,7,7,1,1,1001,ADJUST,m,,,,,,,,,,,,,,,,,,,,,,,,,,,,,,,,,,,,,,,,,,,,,,,,,,,,,
,,,,,,,,,,,,,,,,,199450,18,2022-01-28_15h36.00.599,lexical_decision_task_DD_L3,2021.2.3,Win32,60.0240096,m,0,0.927,,,,,,,,0.927,0,0,8,8,14,1,1001,THRALE,z,,,,,,,,,,,,,,,,,,,,,,,,,,,,,,,,,,,,,,,,,,,,,,,,,,,,,
,,,,,,,,,,,,,,,,,199450,18,2022-01-28_15h36.00.599,lexical_decision_task_DD_L3,2021.2.3,Win32,60.0240096,m,1,0.702,,,,,,,,0.702,1,0,9,9,2,1,1001,ALMOND,m,,,,,,,,,,,,,,,,,,,,,,,,,,,,,,,,,,,,,,,,,,,,,,,,,,,,,
,,,,,,,,,,,,,,,,,199450,18,2022-01-28_15h36.00.599,lexical_decision_task_DD_L3,2021.2.3,Win32,60.0240096,m,1,0.605,,,,,,,,0.605,1,0,10,10,7,1,1001,VOLUME,m,,,,,,,,,,,,,,,,,,,,,,,,,,,,,,,,,,,,,,,,,,,,,,,,,,,,,
,,,,,,,,,,,,,,,,,199450,18,2022-01-28_15h36.00.599,lexical_decision_task_DD_L3,2021.2.3,Win32,60.0240096,z,1,0.856,,,,,,,,0.856,1,0,11,11,8,1,1001,ASLERT,z,,,,,,,,,,,,,,,,,,,,,,,,,,,,,,,,,,,,,,,,,,,,,,,,,,,,,
,,,,,,,,,,,,,,,,,199450,18,2022-01-28_15h36.00.599,lexical_decision_task_DD_L3,2021.2.3,Win32,60.0240096,m,0,0.793,,,,,,,,0.793,0,0,12,12,13,1,1001,ROUPET,z,,,,,,,,,,,,,,,,,,,,,,,,,,,,,,,,,,,,,,,,,,,,,,,,,,,,,
,,,,,,,,,,,,,,,,,199450,18,2022-01-28_15h36.00.599,lexical_decision_task_DD_L3,2021.2.3,Win32,60.0240096,m,0,1.287,,,,,,,,1.287,0,0,13,13,12,1,1001,SPRINY,z,,,,,,,,,,,,,,,,,,,,,,,,,,,,,,,,,,,,,,,,,,,,,,,,,,,,,
,,,,,,,,,,,,,,,,,199450,18,2022-01-28_15h36.00.599,lexical_decision_task_DD_L3,2021.2.3,Win32,60.0240096,m,1,0.817,,,,,,,,0.817,1,0,14,14,0,1,1001,UTOPIA,m,,,,,,,,,,,,,,,,,,,,,,,,,,,,,,,,,,,,,,,,,,,,,,,,,,,,,
,,,,,,,,,,,,,,,,,199450,18,2022-01-28_15h36.00.599,lexical_decision_task_DD_L3,2021.2.3,Win32,60.0240096,z,1,0.885,,,,,,,,0.885,1,0,15,15,11,1,1001,RASHET,z,,,,,,,,,,,,,,,,,,,,,,,,,,,,,,,,,,,,,,,,,,,,,,,,,,,,,
,0.034259259,-0.391666667,1,0,0,instr_done_button,,,,,,1,end_of_practice,"You have completed the practice trials. During the experimental trials, you will not receive feedback. 
Before you begin, please ensure that you are in a comfortable and quiet location and will not be disturbed for about 15 minutes, as we cannot use your data if you do not complete all the trials. 
 When you are ready to start the experimental trials, please press space or touch the button below.",,,199450,18,2022-01-28_15h36.00.599,lexical_decision_task_DD_L3,2021.2.3,Win32,60.0240096,,,,,,,,,,,,,,,,,,,,,0,0,0,0,1,,,,,,,,,,,,,,,,,,,,,,,,,,,,,,,,,,,,,,,,,,,,,,,,
,,,,,,,,,,,,,,,,,199450,18,2022-01-28_15h36.00.599,lexical_decision_task_DD_L3,2021.2.3,Win32,60.0240096,,,,,,,,,,,1.014,1,,,,,,,,,,,,,,z,1,1.014,,,,,,,,0.027777778,-0.17037037,0,0,0,,0,0,0,87,1,TRING,C,old,z,./images/TRING.png,,,,,,,,,,,,,,,,,,,,,,
,,,,,,,,,,,,,,,,,199450,18,2022-01-28_15h36.00.599,lexical_decision_task_DD_L3,2021.2.3,Win32,60.0240096,,,,,,,,,,,0.815,1,,,,,,,,,,,,,,m,1,0.815,,,,,,,,0.027777778,-0.17037037,0,0,0,,0,1,1,79,1,CRUST,C,old,m,./images/CRUST.png,,,,,,,,,,,,,,,,,,,,,,
,,,,,,,,,,,,,,,,,199450,18,2022-01-28_15h36.00.599,lexical_decision_task_DD_L3,2021.2.3,Win32,60.0240096,,,,,,,,,,,2.117,1,,,,,,,,,,,,,,z,1,2.117,,,,,,,,0.027777778,-0.17037037,0,0,0,,0,2,2,148,1,JOMS,HB,old,z,./images/JOMSHB.png,,,,,,,,,,,,,,,,,,,,,,
,,,,,,,,,,,,,,,,,199450,18,2022-01-28_15h36.00.599,lexical_decision_task_DD_L3,2021.2.3,Win32,60.0240096,,,,,,,,,,,2.03,1,,,,,,,,,,,,,,z,1,2.03,,,,,,,,0.027777778,-0.17037037,0,0,0,,0,3,3,115,1,MAWNS,HB,old,z,./images/MAWNSHB.png,,,,,,,,,,,,,,,,,,,,,,
,,,,,,,,,,,,,,,,,199450,18,2022-01-28_15h36.00.599,lexical_decision_task_DD_L3,2021.2.3,Win32,60.0240096,,,,,,,,,,,1.482,1,,,,,,,,,,,,,,z,1,1.482,,,,,,,,0.027777778,-0.17037037,0,0,0,,0,4,4,153,1,CLUPS,C,old,z,./images/CLUPS.png,,,,,,,,,,,,,,,,,,,,,,
,,,,,,,,,,,,,,,,,199450,18,2022-01-28_15h36.00.599,lexical_decision_task_DD_L3,2021.2.3,Win32,60.0240096,,,,,,,,,,,0.797,1,,,,,,,,,,,,,,m,1,0.797,,,,,,,,0.027777778,-0.17037037,0,0,0,,0,5,5,30,1,STORM,LB,old,m,./images/STORMLB.png,,,,,,,,,,,,,,,,,,,,,,
,,,,,,,,,,,,,,,,,199450,18,2022-01-28_15h36.00.599,lexical_decision_task_DD_L3,2021.2.3,Win32,60.0240096,,,,,,,,,,,0.672,1,,,,,,,,,,,,,,m,1,0.672,,,,,,,,0.027777778,-0.17037037,0,0,0,,0,6,6,10,1,BELLY,C,old,m,./images/BELLY.png,,,,,,,,,,,,,,,,,,,,,,
,,,,,,,,,,,,,,,,,199450,18,2022-01-28_15h36.00.599,lexical_decision_task_DD_L3,2021.2.3,Win32,60.0240096,,,,,,,,,,,1.048,1,,,,,,,,,,,,,,z,1,1.048,,,,,,,,0.027777778,-0.17037037,0,0,0,,0,7,7,101,1,GLEET,LB,old,z,./images/GLEETLB.png,,,,,,,,,,,,,,,,,,,,,,
,,,,,,,,,,,,,,,,,199450,18,2022-01-28_15h36.00.599,lexical_decision_task_DD_L3,2021.2.3,Win32,60.0240096,,,,,,,,,,,1.187,1,,,,,,,,,,,,,,z,1,1.187,,,,,,,,0.027777778,-0.17037037,0,0,0,,0,8,8,165,1,TROWN,C,old,z,./images/TROWN.png,,,,,,,,,,,,,,,,,,,,,,
,,,,,,,,,,,,,,,,,199450,18,2022-01-28_15h36.00.599,lexical_decision_task_DD_L3,2021.2.3,Win32,60.0240096,,,,,,,,,,,1.05,1,,,,,,,,,,,,,,z,1,1.05,,,,,,,,0.027777778,-0.17037037,0,0,0,,0,9,9,96,1,KEAMS,C,old,z,./images/KEAMS.png,,,,,,,,,,,,,,,,,,,,,,
,,,,,,,,,,,,,,,,,199450,18,2022-01-28_15h36.00.599,lexical_decision_task_DD_L3,2021.2.3,Win32,60.0240096,,,,,,,,,,,1.465,1,,,,,,,,,,,,,,m,1,1.465,,,,,,,,0.027777778,-0.17037037,0,0,0,,0,10,10,56,1,PACKET,HB,old,m,./images/PACKETHB.png,,,,,,,,,,,,,,,,,,,,,,
,,,,,,,,,,,,,,,,,199450,18,2022-01-28_15h36.00.599,lexical_decision_task_DD_L3,2021.2.3,Win32,60.0240096,,,,,,,,,,,0.855,1,,,,,,,,,,,,,,m,1,0.855,,,,,,,,0.027777778,-0.17037037,0,0,0,,0,11,11,65,1,FARMER,HB,old,m,./images/FARMERHB.png,,,,,,,,,,,,,,,,,,,,,,
,,,,,,,,,,,,,,,,,199450,18,2022-01-28_15h36.00.599,lexical_decision_task_DD_L3,2021.2.3,Win32,60.0240096,,,,,,,,,,,1.066,1,,,,,,,,,,,,,,m,1,1.066,,,,,,,,0.027777778,-0.17037037,0,0,0,,0,12,12,72,1,NOOSE,LB,old,m,./images/NOOSELB.png,,,,,,,,,,,,,,,,,,,,,,
,,,,,,,,,,,,,,,,,199450,18,2022-01-28_15h36.00.599,lexical_decision_task_DD_L3,2021.2.3,Win32,60.0240096,,,,,,,,,,,1.181,1,,,,,,,,,,,,,,z,1,1.181,,,,,,,,0.027777778,-0.17037037,0,0,0,,0,13,13,136,1,WERVE,HB,old,z,./images/WERVEHB.png,,,,,,,,,,,,,,,,,,,,,,
,,,,,,,,,,,,,,,,,199450,18,2022-01-28_15h36.00.599,lexical_decision_task_DD_L3,2021.2.3,Win32,60.0240096,,,,,,,,,,,0.69,1,,,,,,,,,,,,,,m,1,0.69,,,,,,,,0.027777778,-0.17037037,0,0,0,,0,14,14,33,1,MAGGOT,LB,old,m,./images/MAGGOTLB.png,,,,,,,,,,,,,,,,,,,,,,
,,,,,,,,,,,,,,,,,199450,18,2022-01-28_15h36.00.599,lexical_decision_task_DD_L3,2021.2.3,Win32,60.0240096,,,,,,,,,,,0.821,1,,,,,,,,,,,,,,m,1,0.821,,,,,,,,0.027777778,-0.17037037,0,0,0,,0,15,15,83,1,JUNGLE,HB,old,m,./images/JUNGLEHB.png,,,,,,,,,,,,,,,,,,,,,,
,,,,,,,,,,,,,,,,,199450,18,2022-01-28_15h36.00.599,lexical_decision_task_DD_L3,2021.2.3,Win32,60.0240096,,,,,,,,,,,1.199,1,,,,,,,,,,,,,,m,1,1.199,,,,,,,,0.027777778,-0.17037037,0,0,0,,0,16,16,17,1,SKIING,HB,old,m,./images/SKIINGHB.png,,,,,,,,,,,,,,,,,,,,,,
,,,,,,,,,,,,,,,,,199450,18,2022-01-28_15h36.00.599,lexical_decision_task_DD_L3,2021.2.3,Win32,60.0240096,,,,,,,,,,,0.756,1,,,,,,,,,,,,,,m,1,0.756,,,,,,,,0.027777778,-0.17037037,0,0,0,,0,17,17,44,1,LIZARD,HB,old,m,./images/LIZARDHB.png,,,,,,,,,,,,,,,,,,,,,,
,,,,,,,,,,,,,,,,,199450,18,2022-01-28_15h36.00.599,lexical_decision_task_DD_L3,2021.2.3,Win32,60.0240096,,,,,,,,,,,0.95,1,,,,,,,,,,,,,,z,1,0.95,,,,,,,,0.027777778,-0.17037037,0,0,0,,0,18,18,125,1,MOOKY,LB,old,z,./images/MOOKYLB.png,,,,,,,,,,,,,,,,,,,,,,
,,,,,,,,,,,,,,,,,199450,18,2022-01-28_15h36.00.599,lexical_decision_task_DD_L3,2021.2.3,Win32,60.0240096,,,,,,,,,,,0.629,1,,,,,,,,,,,,,,m,1,0.629,,,,,,,,0.027777778,-0.17037037,0,0,0,,0,19,19,42,1,FOLDER,LB,old,m,./images/FOLDERLB.png,,,,,,,,,,,,,,,,,,,,,,
,,,,,,,,,,,,,,,,,199450,18,2022-01-28_15h36.00.599,lexical_decision_task_DD_L3,2021.2.3,Win32,60.0240096,,,,,,,,,,,1.268,1,,,,,,,,,,,,,,z,1,1.268,,,,,,,,0.027777778,-0.17037037,0,0,0,,0,20,20,127,1,NINDY,HB,old,z,./images/NINDYHB.png,,,,,,,,,,,,,,,,,,,,,,
,,,,,,,,,,,,,,,,,199450,18,2022-01-28_15h36.00.599,lexical_decision_task_DD_L3,2021.2.3,Win32,60.0240096,,,,,,,,,,,0.899,1,,,,,,,,,,,,,,z,1,0.899,,,,,,,,0.027777778,-0.17037037,0,0,0,,0,21,21,122,1,BLOOT,LB,old,z,./images/BLOOTLB.png,,,,,,,,,,,,,,,,,,,,,,
,,,,,,,,,,,,,,,,,199450,18,2022-01-28_15h36.00.599,lexical_decision_task_DD_L3,2021.2.3,Win32,60.0240096,,,,,,,,,,,0.882,0,,,,,,,,,,,,,,m,0,0.882,,,,,,,,0.027777778,-0.17037037,0,0,0,,0,22,22,104,1,GITTY,LB,old,z,./images/GITTYLB.png,,,,,,,,,,,,,,,,,,,,,,
,,,,,,,,,,,,,,,,,199450,18,2022-01-28_15h36.00.599,lexical_decision_task_DD_L3,2021.2.3,Win32,60.0240096,,,,,,,,,,,0.86,1,,,,,,,,,,,,,,m,1,0.86,,,,,,,,0.027777778,-0.17037037,0,0,0,,0,23,23,68,1,TORCH,HB,old,m,./images/TORCHHB.png,,,,,,,,,,,,,,,,,,,,,,
,,,,,,,,,,,,,,,,,199450,18,2022-01-28_15h36.00.599,lexical_decision_task_DD_L3,2021.2.3,Win32,60.0240096,,,,,,,,,,,0.699,1,,,,,,,,,,,,,,z,1,0.699,,,,,,,,0.027777778,-0.17037037,0,0,0,,0,24,24,144,1,NAIRY,C,old,z,./images/NAIRY.png,,,,,,,,,,,,,,,,,,,,,,
,,,,,,,,,,,,,,,,,199450,18,2022-01-28_15h36.00.599,lexical_decision_task_DD_L3,2021.2.3,Win32,60.0240096,,,,,,,,,,,0.83,1,,,,,,,,,,,,,,m,1,0.83,,,,,,,,0.027777778,-0.17037037,0,0,0,,0,25,25,29,1,CRUMB,HB,old,m,./images/CRUMBHB.png,,,,,,,,,,,,,,,,,,,,,,
,,,,,,,,,,,,,,,,,199450,18,2022-01-28_15h36.00.599,lexical_decision_task_DD_L3,2021.2.3,Win32,60.0240096,,,,,,,,,,,0.739,1,,,,,,,,,,,,,,m,1,0.739,,,,,,,,0.027777778,-0.17037037,0,0,0,,0,26,26,27,1,ATTIC,LB,old,m,./images/ATTICLB.png,,,,,,,,,,,,,,,,,,,,,,
,,,,,,,,,,,,,,,,,199450,18,2022-01-28_15h36.00.599,lexical_decision_task_DD_L3,2021.2.3,Win32,60.0240096,,,,,,,,,,,0.801,1,,,,,,,,,,,,,,m,1,0.801,,,,,,,,0.027777778,-0.17037037,0,0,0,,0,27,27,37,1,BIRTH,C,old,m,./images/BIRTH.png,,,,,,,,,,,,,,,,,,,,,,
,,,,,,,,,,,,,,,,,199450,18,2022-01-28_15h36.00.599,lexical_decision_task_DD_L3,2021.2.3,Win32,60.0240096,,,,,,,,,,,0.654,1,,,,,,,,,,,,,,m,1,0.654,,,,,,,,0.027777778,-0.17037037,0,0,0,,0,28,28,64,1,JELLY,C,old,m,./images/JELLY.png,,,,,,,,,,,,,,,,,,,,,,
,,,,,,,,,,,,,,,,,199450,18,2022-01-28_15h36.00.599,lexical_decision_task_DD_L3,2021.2.3,Win32,60.0240096,,,,,,,,,,,1.075,1,,,,,,,,,,,,,,m,1,1.075,,,,,,,,0.027777778,-0.17037037,0,0,0,,0,29,29,23,1,WALRUS,HB,old,m,./images/WALRUSHB.png,,,,,,,,,,,,,,,,,,,,,,
,,,,,,,,,,,,,,,,,199450,18,2022-01-28_15h36.00.599,lexical_decision_task_DD_L3,2021.2.3,Win32,60.0240096,,,,,,,,,,,0.815,1,,,,,,,,,,,,,,z,1,0.815,,,,,,,,0.027777778,-0.17037037,0,0,0,,0,30,30,147,1,ZOLES,C,old,z,./images/ZOLES.png,,,,,,,,,,,,,,,,,,,,,,
,,,,,,,,,,,,,,,,,199450,18,2022-01-28_15h36.00.599,lexical_decision_task_DD_L3,2021.2.3,Win32,60.0240096,,,,,,,,,,,0.68,0,,,,,,,,,,,,,,m,0,0.68,,,,,,,,0.027777778,-0.17037037,0,0,0,,0,31,31,141,1,PLEET,C,old,z,./images/PLEET.png,,,,,,,,,,,,,,,,,,,,,,
,,,,,,,,,,,,,,,,,199450,18,2022-01-28_15h36.00.599,lexical_decision_task_DD_L3,2021.2.3,Win32,60.0240096,,,,,,,,,,,1.123,1,,,,,,,,,,,,,,m,1,1.123,,,,,,,,0.027777778,-0.17037037,0,0,0,,0,32,32,8,1,TULIP,HB,old,m,./images/TULIPHB.png,,,,,,,,,,,,,,,,,,,,,,
,,,,,,,,,,,,,,,,,199450,18,2022-01-28_15h36.00.599,lexical_decision_task_DD_L3,2021.2.3,Win32,60.0240096,,,,,,,,,,,1.253,1,,,,,,,,,,,,,,z,1,1.253,,,,,,,,0.027777778,-0.17037037,0,0,0,,0,33,33,142,1,PLASK,HB,old,z,./images/PLASKHB.png,,,,,,,,,,,,,,,,,,,,,,
,,,,,,,,,,,,,,,,,199450,18,2022-01-28_15h36.00.599,lexical_decision_task_DD_L3,2021.2.3,Win32,60.0240096,,,,,,,,,,,1.355,1,,,,,,,,,,,,,,z,1,1.355,,,,,,,,0.027777778,-0.17037037,0,0,0,,0,34,34,112,1,MYING,HB,old,z,./images/MYINGHB.png,,,,,,,,,,,,,,,,,,,,,,
,,,,,,,,,,,,,,,,,199450,18,2022-01-28_15h36.00.599,lexical_decision_task_DD_L3,2021.2.3,Win32,60.0240096,,,,,,,,,,,0.741,1,,,,,,,,,,,,,,m,1,0.741,,,,,,,,0.027777778,-0.17037037,0,0,0,,0,35,35,62,1,PURSE,HB,old,m,./images/PURSEHB.png,,,,,,,,,,,,,,,,,,,,,,
,,,,,,,,,,,,,,,,,199450,18,2022-01-28_15h36.00.599,lexical_decision_task_DD_L3,2021.2.3,Win32,60.0240096,,,,,,,,,,,0.622,1,,,,,,,,,,,,,,m,1,0.622,,,,,,,,0.027777778,-0.17037037,0,0,0,,0,36,36,45,1,KITTEN,LB,old,m,./images/KITTENLB.png,,,,,,,,,,,,,,,,,,,,,,
,,,,,,,,,,,,,,,,,199450,18,2022-01-28_15h36.00.599,lexical_decision_task_DD_L3,2021.2.3,Win32,60.0240096,,,,,,,,,,,0.632,1,,,,,,,,,,,,,,m,1,0.632,,,,,,,,0.027777778,-0.17037037,0,0,0,,0,37,37,9,1,RHINO,LB,old,m,./images/RHINOLB.png,,,,,,,,,,,,,,,,,,,,,,
,,,,,,,,,,,,,,,,,199450,18,2022-01-28_15h36.00.599,lexical_decision_task_DD_L3,2021.2.3,Win32,60.0240096,,,,,,,,,,,0.683,1,,,,,,,,,,,,,,m,1,0.683,,,,,,,,0.027777778,-0.17037037,0,0,0,,0,38,38,18,1,JAGUAR,LB,old,m,./images/JAGUARLB.png,,,,,,,,,,,,,,,,,,,,,,
,,,,,,,,,,,,,,,,,199450,18,2022-01-28_15h36.00.599,lexical_decision_task_DD_L3,2021.2.3,Win32,60.0240096,,,,,,,,,,,1.163,0,,,,,,,,,,,,,,m,0,1.163,,,,,,,,0.027777778,-0.17037037,0,0,0,,0,39,39,109,1,BURGE,HB,old,z,./images/BURGEHB.png,,,,,,,,,,,,,,,,,,,,,,
,,,,,,,,,,,,,,,,,199450,18,2022-01-28_15h36.00.599,lexical_decision_task_DD_L3,2021.2.3,Win32,60.0240096,,,,,,,,,,,0.689,1,,,,,,,,,,,,,,m,1,0.689,,,,,,,,0.027777778,-0.17037037,0,0,0,,0,40,40,13,1,MOTOR,C,old,m,./images/MOTOR.png,,,,,,,,,,,,,,,,,,,,,,
,,,,,,,,,,,,,,,,,199450,18,2022-01-28_15h36.00.599,lexical_decision_task_DD_L3,2021.2.3,Win32,60.0240096,,,,,,,,,,,0.885,1,,,,,,,,,,,,,,z,1,0.885,,,,,,,,0.027777778,-0.17037037,0,0,0,space,0,41,41,129,1,PRANS,C,old,z,./images/PRANS.png,5.017,,,,,,,,,,,,,,,,,,,,,
,,,,,,,,,,,,,,,,,199450,18,2022-01-28_15h36.00.599,lexical_decision_task_DD_L3,2021.2.3,Win32,60.0240096,,,,,,,,,,,0.665,1,,,,,,,,,,,,,,m,1,0.665,,,,,,,,0.027777778,-0.17037037,0,0,0,,0,42,42,5,1,PASTA,HB,old,m,./images/PASTAHB.png,,,,,,,,,,,,,,,,,,,,,,
,,,,,,,,,,,,,,,,,199450,18,2022-01-28_15h36.00.599,lexical_decision_task_DD_L3,2021.2.3,Win32,60.0240096,,,,,,,,,,,0.869,0,,,,,,,,,,,,,,m,0,0.869,,,,,,,,0.027777778,-0.17037037,0,0,0,,0,43,43,166,1,SHORY,HB,old,z,./images/SHORYHB.png,,,,,,,,,,,,,,,,,,,,,,
,,,,,,,,,,,,,,,,,199450,18,2022-01-28_15h36.00.599,lexical_decision_task_DD_L3,2021.2.3,Win32,60.0240096,,,,,,,,,,,0.891,1,,,,,,,,,,,,,,z,1,0.891,,,,,,,,0.027777778,-0.17037037,0,0,0,,0,44,44,128,1,GRIFT,LB,old,z,./images/GRIFTLB.png,,,,,,,,,,,,,,,,,,,,,,
,,,,,,,,,,,,,,,,,199450,18,2022-01-28_15h36.00.599,lexical_decision_task_DD_L3,2021.2.3,Win32,60.0240096,,,,,,,,,,,0.856,1,,,,,,,,,,,,,,z,1,0.856,,,,,,,,0.027777778,-0.17037037,0,0,0,,0,45,45,102,1,DULLE,C,old,z,./images/DULLE.png,,,,,,,,,,,,,,,,,,,,,,
,,,,,,,,,,,,,,,,,199450,18,2022-01-28_15h36.00.599,lexical_decision_task_DD_L3,2021.2.3,Win32,60.0240096,,,,,,,,,,,1.39,0,,,,,,,,,,,,,,m,0,1.39,,,,,,,,0.027777778,-0.17037037,0,0,0,,0,46,46,100,1,DRIBS,HB,old,z,./images/DRIBSHB.png,,,,,,,,,,,,,,,,,,,,,,
,,,,,,,,,,,,,,,,,199450,18,2022-01-28_15h36.00.599,lexical_decision_task_DD_L3,2021.2.3,Win32,60.0240096,,,,,,,,,,,0.852,1,,,,,,,,,,,,,,z,1,0.852,,,,,,,,0.027777778,-0.17037037,0,0,0,,0,47,47,135,1,JOODY,C,old,z,./images/JOODY.png,,,,,,,,,,,,,,,,,,,,,,
,,,,,,,,,,,,,,,,,199450,18,2022-01-28_15h36.00.599,lexical_decision_task_DD_L3,2021.2.3,Win32,60.0240096,,,,,,,,,,,0.69,1,,,,,,,,,,,,,,m,1,0.69,,,,,,,,0.027777778,-0.17037037,0,0,0,,0,48,48,76,1,INFANT,C,old,m,./images/INFANT.png,,,,,,,,,,,,,,,,,,,,,,
,,,,,,,,,,,,,,,,,199450,18,2022-01-28_15h36.00.599,lexical_decision_task_DD_L3,2021.2.3,Win32,60.0240096,,,,,,,,,,,1.005,1,,,,,,,,,,,,,,z,1,1.005,,,,,,,,0.027777778,-0.17037037,0,0,0,,0,49,49,86,1,AIFED,LB,old,z,./images/AIFEDLB.png,,,,,,,,,,,,,,,,,,,,,,
,,,,,,,,,,,,,,,,,199450,18,2022-01-28_15h36.00.599,lexical_decision_task_DD_L3,2021.2.3,Win32,60.0240096,,,,,,,,,,,0.806,1,,,,,,,,,,,,,,z,1,0.806,,,,,,,,0.027777778,-0.17037037,0,0,0,,0,50,50,120,1,RINED,C,old,z,./images/RINED.png,,,,,,,,,,,,,,,,,,,,,,
,,,,,,,,,,,,,,,,,199450,18,2022-01-28_15h36.00.599,lexical_decision_task_DD_L3,2021.2.3,Win32,60.0240096,,,,,,,,,,,0.848,1,,,,,,,,,,,,,,z,1,0.848,,,,,,,,0.027777778,-0.17037037,0,0,0,,0,51,51,89,1,DRIEK,LB,old,z,./images/DRIEKLB.png,,,,,,,,,,,,,,,,,,,,,,
,,,,,,,,,,,,,,,,,199450,18,2022-01-28_15h36.00.599,lexical_decision_task_DD_L3,2021.2.3,Win32,60.0240096,,,,,,,,,,,1.057,1,,,,,,,,,,,,,,z,1,1.057,,,,,,,,0.027777778,-0.17037037,0,0,0,,0,52,52,118,1,BAVEL,HB,old,z,./images/BAVELHB.png,,,,,,,,,,,,,,,,,,,,,,
,,,,,,,,,,,,,,,,,199450,18,2022-01-28_15h36.00.599,lexical_decision_task_DD_L3,2021.2.3,Win32,60.0240096,,,,,,,,,,,0.806,1,,,,,,,,,,,,,,z,1,0.806,,,,,,,,0.027777778,-0.17037037,0,0,0,,0,53,53,167,1,ZONET,LB,old,z,./images/ZONETLB.png,,,,,,,,,,,,,,,,,,,,,,
,,,,,,,,,,,,,,,,,199450,18,2022-01-28_15h36.00.599,lexical_decision_task_DD_L3,2021.2.3,Win32,60.0240096,,,,,,,,,,,0.733,1,,,,,,,,,,,,,,m,1,0.733,,,,,,,,0.027777778,-0.17037037,0,0,0,,0,54,54,66,1,SWEAT,LB,old,m,./images/SWEATLB.png,,,,,,,,,,,,,,,,,,,,,,
,,,,,,,,,,,,,,,,,199450,18,2022-01-28_15h36.00.599,lexical_decision_task_DD_L3,2021.2.3,Win32,60.0240096,,,,,,,,,,,0.755,1,,,,,,,,,,,,,,m,1,0.755,,,,,,,,0.027777778,-0.17037037,0,0,0,,0,55,55,80,1,WEASEL,HB,old,m,./images/WEASELHB.png,,,,,,,,,,,,,,,,,,,,,,
,,,,,,,,,,,,,,,,,199450,18,2022-01-28_15h36.00.599,lexical_decision_task_DD_L3,2021.2.3,Win32,60.0240096,,,,,,,,,,,0.72,1,,,,,,,,,,,,,,m,1,0.72,,,,,,,,0.027777778,-0.17037037,0,0,0,,0,56,56,75,1,GRAIN,LB,old,m,./images/GRAINLB.png,,,,,,,,,,,,,,,,,,,,,,
,,,,,,,,,,,,,,,,,199450,18,2022-01-28_15h36.00.599,lexical_decision_task_DD_L3,2021.2.3,Win32,60.0240096,,,,,,,,,,,0.575,1,,,,,,,,,,,,,,m,1,0.575,,,,,,,,0.027777778,-0.17037037,0,0,0,,0,57,57,39,1,SHELF,LB,old,m,./images/SHELFLB.png,,,,,,,,,,,,,,,,,,,,,,
,,,,,,,,,,,,,,,,,199450,18,2022-01-28_15h36.00.599,lexical_decision_task_DD_L3,2021.2.3,Win32,60.0240096,,,,,,,,,,,0.593,1,,,,,,,,,,,,,,m,1,0.593,,,,,,,,0.027777778,-0.17037037,0,0,0,,0,58,58,25,1,WRIST,C,old,m,./images/WRIST.png,,,,,,,,,,,,,,,,,,,,,,
,,,,,,,,,,,,,,,,,199450,18,2022-01-28_15h36.00.599,lexical_decision_task_DD_L3,2021.2.3,Win32,60.0240096,,,,,,,,,,,0.849,1,,,,,,,,,,,,,,z,1,0.849,,,,,,,,0.027777778,-0.17037037,0,0,0,,0,59,59,152,1,FRAIN,LB,old,z,./images/FRAINLB.png,,,,,,,,,,,,,,,,,,,,,,
,,,,,,,,,,,,,,,,,199450,18,2022-01-28_15h36.00.599,lexical_decision_task_DD_L3,2021.2.3,Win32,60.0240096,,,,,,,,,,,0.99,1,,,,,,,,,,,,,,m,1,0.99,,,,,,,,0.027777778,-0.17037037,0,0,0,,0,60,60,28,1,FALCON,C,old,m,./images/FALCON.png,,,,,,,,,,,,,,,,,,,,,,
,,,,,,,,,,,,,,,,,199450,18,2022-01-28_15h36.00.599,lexical_decision_task_DD_L3,2021.2.3,Win32,60.0240096,,,,,,,,,,,0.853,1,,,,,,,,,,,,,,m,1,0.853,,,,,,,,0.027777778,-0.17037037,0,0,0,,0,61,61,53,1,CARPET,HB,old,m,./images/CARPETHB.png,,,,,,,,,,,,,,,,,,,,,,
,,,,,,,,,,,,,,,,,199450,18,2022-01-28_15h36.00.599,lexical_decision_task_DD_L3,2021.2.3,Win32,60.0240096,,,,,,,,,,,1.598,1,,,,,,,,,,,,,,z,1,1.598,,,,,,,,0.027777778,-0.17037037,0,0,0,,0,62,62,91,1,SHENS,HB,old,z,./images/SHENSHB.png,,,,,,,,,,,,,,,,,,,,,,
,,,,,,,,,,,,,,,,,199450,18,2022-01-28_15h36.00.599,lexical_decision_task_DD_L3,2021.2.3,Win32,60.0240096,,,,,,,,,,,0.924,1,,,,,,,,,,,,,,z,1,0.924,,,,,,,,0.027777778,-0.17037037,0,0,0,,0,63,63,146,1,MOOST,LB,old,z,./images/MOOSTLB.png,,,,,,,,,,,,,,,,,,,,,,
,,,,,,,,,,,,,,,,,199450,18,2022-01-28_15h36.00.599,lexical_decision_task_DD_L3,2021.2.3,Win32,60.0240096,,,,,,,,,,,0.707,1,,,,,,,,,,,,,,m,1,0.707,,,,,,,,0.027777778,-0.17037037,0,0,0,,0,64,64,78,1,LITTER,LB,old,m,./images/LITTERLB.png,,,,,,,,,,,,,,,,,,,,,,
,,,,,,,,,,,,,,,,,199450,18,2022-01-28_15h36.00.599,lexical_decision_task_DD_L3,2021.2.3,Win32,60.0240096,,,,,,,,,,,1.266,1,,,,,,,,,,,,,,z,1,1.266,,,,,,,,0.027777778,-0.17037037,0,0,0,,0,65,65,163,1,GAMBA,HB,old,z,./images/GAMBAHB.png,,,,,,,,,,,,,,,,,,,,,,
,,,,,,,,,,,,,,,,,199450,18,2022-01-28_15h36.00.599,lexical_decision_task_DD_L3,2021.2.3,Win32,60.0240096,,,,,,,,,,,0.805,1,,,,,,,,,,,,,,m,1,0.805,,,,,,,,0.027777778,-0.17037037,0,0,0,,0,66,66,12,1,SHORE,LB,old,m,./images/SHORELB.png,,,,,,,,,,,,,,,,,,,,,,
,,,,,,,,,,,,,,,,,199450,18,2022-01-28_15h36.00.599,lexical_decision_task_DD_L3,2021.2.3,Win32,60.0240096,,,,,,,,,,,2.103,1,,,,,,,,,,,,,,z,1,2.103,,,,,,,,0.027777778,-0.17037037,0,0,0,,0,67,67,85,1,CHULK,HB,old,z,./images/CHULKHB.png,,,,,,,,,,,,,,,,,,,,,,
,,,,,,,,,,,,,,,,,199450,18,2022-01-28_15h36.00.599,lexical_decision_task_DD_L3,2021.2.3,Win32,60.0240096,,,,,,,,,,,0.84,1,,,,,,,,,,,,,,m,1,0.84,,,,,,,,0.027777778,-0.17037037,0,0,0,,0,68,68,47,1,BERRY,HB,old,m,./images/BERRYHB.png,,,,,,,,,,,,,,,,,,,,,,
,,,,,,,,,,,,,,,,,199450,18,2022-01-28_15h36.00.599,lexical_decision_task_DD_L3,2021.2.3,Win32,60.0240096,,,,,,,,,,,0.773,1,,,,,,,,,,,,,,m,1,0.773,,,,,,,,0.027777778,-0.17037037,0,0,0,,0,69,69,60,1,TWINS,LB,old,m,./images/TWINSLB.png,,,,,,,,,,,,,,,,,,,,,,
,,,,,,,,,,,,,,,,,199450,18,2022-01-28_15h36.00.599,lexical_decision_task_DD_L3,2021.2.3,Win32,60.0240096,,,,,,,,,,,0.854,1,,,,,,,,,,,,,,z,1,0.854,,,,,,,,0.027777778,-0.17037037,0,0,0,,0,70,70,149,1,VEASE,LB,old,z,./images/VEASELB.png,,,,,,,,,,,,,,,,,,,,,,
,,,,,,,,,,,,,,,,,199450,18,2022-01-28_15h36.00.599,lexical_decision_task_DD_L3,2021.2.3,Win32,60.0240096,,,,,,,,,,,0.926,1,,,,,,,,,,,,,,z,1,0.926,,,,,,,,0.027777778,-0.17037037,0,0,0,,0,71,71,98,1,BAMPS,LB,old,z,./images/BAMPSLB.png,,,,,,,,,,,,,,,,,,,,,,
,,,,,,,,,,,,,,,,,199450,18,2022-01-28_15h36.00.599,lexical_decision_task_DD_L3,2021.2.3,Win32,60.0240096,,,,,,,,,,,0.848,1,,,,,,,,,,,,,,z,1,0.848,,,,,,,,0.027777778,-0.17037037,0,0,0,,0,72,72,88,1,GLUSH,HB,old,z,./images/GLUSHHB.png,,,,,,,,,,,,,,,,,,,,,,
,,,,,,,,,,,,,,,,,199450,18,2022-01-28_15h36.00.599,lexical_decision_task_DD_L3,2021.2.3,Win32,60.0240096,,,,,,,,,,,1.302,0,,,,,,,,,,,,,,m,0,1.302,,,,,,,,0.027777778,-0.17037037,0,0,0,,0,73,73,97,1,CHIDS,HB,old,z,./images/CHIDSHB.png,,,,,,,,,,,,,,,,,,,,,,
,,,,,,,,,,,,,,,,,199450,18,2022-01-28_15h36.00.599,lexical_decision_task_DD_L3,2021.2.3,Win32,60.0240096,,,,,,,,,,,0.954,1,,,,,,,,,,,,,,z,1,0.954,,,,,,,,0.027777778,-0.17037037,0,0,0,,0,74,74,126,1,GUELS,C,old,z,./images/GUELS.png,,,,,,,,,,,,,,,,,,,,,,
,,,,,,,,,,,,,,,,,199450,18,2022-01-28_15h36.00.599,lexical_decision_task_DD_L3,2021.2.3,Win32,60.0240096,,,,,,,,,,,0.724,1,,,,,,,,,,,,,,m,1,0.724,,,,,,,,0.027777778,-0.17037037,0,0,0,,0,75,75,67,1,SAILOR,C,old,m,./images/SAILOR.png,,,,,,,,,,,,,,,,,,,,,,
,,,,,,,,,,,,,,,,,199450,18,2022-01-28_15h36.00.599,lexical_decision_task_DD_L3,2021.2.3,Win32,60.0240096,,,,,,,,,,,0.7,1,,,,,,,,,,,,,,m,1,0.7,,,,,,,,0.027777778,-0.17037037,0,0,0,,0,76,76,46,1,PEARL,C,old,m,./images/PEARL.png,,,,,,,,,,,,,,,,,,,,,,
,,,,,,,,,,,,,,,,,199450,18,2022-01-28_15h36.00.599,lexical_decision_task_DD_L3,2021.2.3,Win32,60.0240096,,,,,,,,,,,1.331,1,,,,,,,,,,,,,,z,1,1.331,,,,,,,,0.027777778,-0.17037037,0,0,0,,0,77,77,154,1,THINT,HB,old,z,./images/THINTHB.png,,,,,,,,,,,,,,,,,,,,,,
,,,,,,,,,,,,,,,,,199450,18,2022-01-28_15h36.00.599,lexical_decision_task_DD_L3,2021.2.3,Win32,60.0240096,,,,,,,,,,,0.653,1,,,,,,,,,,,,,,m,1,0.653,,,,,,,,0.027777778,-0.17037037,0,0,0,,0,78,78,19,1,DOUGH,C,old,m,./images/DOUGH.png,,,,,,,,,,,,,,,,,,,,,,
,,,,,,,,,,,,,,,,,199450,18,2022-01-28_15h36.00.599,lexical_decision_task_DD_L3,2021.2.3,Win32,60.0240096,,,,,,,,,,,0.841,1,,,,,,,,,,,,,,z,1,0.841,,,,,,,,0.027777778,-0.17037037,0,0,0,,0,79,79,164,1,SGREW,LB,old,z,./images/SGREWLB.png,,,,,,,,,,,,,,,,,,,,,,
,,,,,,,,,,,,,,,,,199450,18,2022-01-28_15h36.00.599,lexical_decision_task_DD_L3,2021.2.3,Win32,60.0240096,,,,,,,,,,,0.721,1,,,,,,,,,,,,,,m,1,0.721,,,,,,,,0.027777778,-0.17037037,0,0,0,,0,80,80,32,1,BARREL,HB,old,m,./images/BARRELHB.png,,,,,,,,,,,,,,,,,,,,,,
,,,,,,,,,,,,,,,,,199450,18,2022-01-28_15h36.00.599,lexical_decision_task_DD_L3,2021.2.3,Win32,60.0240096,,,,,,,,,,,0.761,1,,,,,,,,,,,,,,z,1,0.761,,,,,,,,0.027777778,-0.17037037,0,0,0,,0,81,81,137,1,JOOST,LB,old,z,./images/JOOSTLB.png,,,,,,,,,,,,,,,,,,,,,,
,,,,,,,,,,,,,,,,,199450,18,2022-01-28_15h36.00.599,lexical_decision_task_DD_L3,2021.2.3,Win32,60.0240096,,,,,,,,,,,0.669,1,,,,,,,,,,,,,,m,1,0.669,,,,,,,,0.027777778,-0.17037037,0,0,0,,0,82,82,22,1,MELON,C,old,m,./images/MELON.png,,,,,,,,,,,,,,,,,,,,,,
,,,,,,,,,,,,,,,,,199450,18,2022-01-28_15h36.00.599,lexical_decision_task_DD_L3,2021.2.3,Win32,60.0240096,,,,,,,,,,,1.09,1,,,,,,,,,,,,,,z,1,1.09,,,,,,,,0.122222222,-0.162962963,0,0,0,space,0,83,83,130,1,CRILL,HB,old,z,./images/CRILLHB.png,15.304,,,,,,,,,,,,,,,,,,,,,
,,,,,,,,,,,,,,,,,199450,18,2022-01-28_15h36.00.599,lexical_decision_task_DD_L3,2021.2.3,Win32,60.0240096,,,,,,,,,,,0.771,1,,,,,,,,,,,,,,z,1,0.771,,,,,,,,0.119444444,-0.157407407,0,0,0,,0,84,84,113,1,LINEW,LB,old,z,./images/LINEWLB.png,,,,,,,,,,,,,,,,,,,,,,
,,,,,,,,,,,,,,,,,199450,18,2022-01-28_15h36.00.599,lexical_decision_task_DD_L3,2021.2.3,Win32,60.0240096,,,,,,,,,,,1.062,1,,,,,,,,,,,,,,m,1,1.062,,,,,,,,0.119444444,-0.157407407,0,0,0,,0,85,85,71,1,PIMPLE,HB,old,m,./images/PIMPLEHB.png,,,,,,,,,,,,,,,,,,,,,,
,,,,,,,,,,,,,,,,,199450,18,2022-01-28_15h36.00.599,lexical_decision_task_DD_L3,2021.2.3,Win32,60.0240096,,,,,,,,,,,0.786,1,,,,,,,,,,,,,,m,1,0.786,,,,,,,,0.119444444,-0.157407407,0,0,0,,0,86,86,51,1,ONION,LB,old,m,./images/ONIONLB.png,,,,,,,,,,,,,,,,,,,,,,
,,,,,,,,,,,,,,,,,199450,18,2022-01-28_15h36.00.599,lexical_decision_task_DD_L3,2021.2.3,Win32,60.0240096,,,,,,,,,,,0.708,1,,,,,,,,,,,,,,z,1,0.708,,,,,,,,0.119444444,-0.157407407,0,0,0,,0,87,87,138,1,PLICE,C,old,z,./images/PLICE.png,,,,,,,,,,,,,,,,,,,,,,
,,,,,,,,,,,,,,,,,199450,18,2022-01-28_15h36.00.599,lexical_decision_task_DD_L3,2021.2.3,Win32,60.0240096,,,,,,,,,,,0.604,1,,,,,,,,,,,,,,m,1,0.604,,,,,,,,0.119444444,-0.157407407,0,0,0,,0,88,88,36,1,THROAT,LB,old,m,./images/THROATLB.png,,,,,,,,,,,,,,,,,,,,,,
,,,,,,,,,,,,,,,,,199450,18,2022-01-28_15h36.00.599,lexical_decision_task_DD_L3,2021.2.3,Win32,60.0240096,,,,,,,,,,,0.565,1,,,,,,,,,,,,,,m,1,0.565,,,,,,,,0.119444444,-0.157407407,0,0,0,,0,89,89,63,1,MIRROR,LB,old,m,./images/MIRRORLB.png,,,,,,,,,,,,,,,,,,,,,,
,,,,,,,,,,,,,,,,,199450,18,2022-01-28_15h36.00.599,lexical_decision_task_DD_L3,2021.2.3,Win32,60.0240096,,,,,,,,,,,0.719,1,,,,,,,,,,,,,,m,1,0.719,,,,,,,,0.119444444,-0.157407407,0,0,0,,0,90,90,50,1,MALLET,HB,old,m,./images/MALLETHB.png,,,,,,,,,,,,,,,,,,,,,,
,,,,,,,,,,,,,,,,,199450,18,2022-01-28_15h36.00.599,lexical_decision_task_DD_L3,2021.2.3,Win32,60.0240096,,,,,,,,,,,0.69,1,,,,,,,,,,,,,,m,1,0.69,,,,,,,,0.119444444,-0.157407407,0,0,0,,0,91,91,14,1,PICKLE,HB,old,m,./images/PICKLEHB.png,,,,,,,,,,,,,,,,,,,,,,
,,,,,,,,,,,,,,,,,199450,18,2022-01-28_15h36.00.599,lexical_decision_task_DD_L3,2021.2.3,Win32,60.0240096,,,,,,,,,,,1.165,1,,,,,,,,,,,,,,z,1,1.165,,,,,,,,0.119444444,-0.157407407,0,0,0,,0,92,92,103,1,FLORT,HB,old,z,./images/FLORTHB.png,,,,,,,,,,,,,,,,,,,,,,
,,,,,,,,,,,,,,,,,199450,18,2022-01-28_15h36.00.599,lexical_decision_task_DD_L3,2021.2.3,Win32,60.0240096,,,,,,,,,,,0.958,1,,,,,,,,,,,,,,z,1,0.958,,,,,,,,0.119444444,-0.157407407,0,0,0,,0,93,93,155,1,CANGY,LB,old,z,./images/CANGYLB.png,,,,,,,,,,,,,,,,,,,,,,
,,,,,,,,,,,,,,,,,199450,18,2022-01-28_15h36.00.599,lexical_decision_task_DD_L3,2021.2.3,Win32,60.0240096,,,,,,,,,,,0.855,1,,,,,,,,,,,,,,z,1,0.855,,,,,,,,0.119444444,-0.157407407,0,0,0,,0,94,94,92,1,PAIMS,LB,old,z,./images/PAIMSLB.png,,,,,,,,,,,,,,,,,,,,,,
,,,,,,,,,,,,,,,,,199450,18,2022-01-28_15h36.00.599,lexical_decision_task_DD_L3,2021.2.3,Win32,60.0240096,,,,,,,,,,,0.765,1,,,,,,,,,,,,,,z,1,0.765,,,,,,,,0.119444444,-0.157407407,0,0,0,,0,95,95,116,1,BALGY,LB,old,z,./images/BALGYLB.png,,,,,,,,,,,,,,,,,,,,,,
,,,,,,,,,,,,,,,,,199450,18,2022-01-28_15h36.00.599,lexical_decision_task_DD_L3,2021.2.3,Win32,60.0240096,,,,,,,,,,,1.359,1,,,,,,,,,,,,,,z,1,1.359,,,,,,,,0.119444444,-0.157407407,0,0,0,,0,96,96,108,1,GRUET,C,old,z,./images/GRUET.png,,,,,,,,,,,,,,,,,,,,,,
,,,,,,,,,,,,,,,,,199450,18,2022-01-28_15h36.00.599,lexical_decision_task_DD_L3,2021.2.3,Win32,60.0240096,,,,,,,,,,,1.857,1,,,,,,,,,,,,,,z,1,1.857,,,,,,,,0.119444444,-0.157407407,0,0,0,,0,97,97,106,1,CLUMS,HB,old,z,./images/CLUMSHB.png,,,,,,,,,,,,,,,,,,,,,,
,,,,,,,,,,,,,,,,,199450,18,2022-01-28_15h36.00.599,lexical_decision_task_DD_L3,2021.2.3,Win32,60.0240096,,,,,,,,,,,2.082,1,,,,,,,,,,,,,,z,1,2.082,,,,,,,,0.119444444,-0.157407407,0,0,0,,0,98,98,90,1,NEAST,C,old,z,./images/NEAST.png,,,,,,,,,,,,,,,,,,,,,,
,,,,,,,,,,,,,,,,,199450,18,2022-01-28_15h36.00.599,lexical_decision_task_DD_L3,2021.2.3,Win32,60.0240096,,,,,,,,,,,0.716,1,,,,,,,,,,,,,,m,1,0.716,,,,,,,,0.119444444,-0.157407407,0,0,0,,0,99,99,61,1,CANDLE,C,old,m,./images/CANDLE.png,,,,,,,,,,,,,,,,,,,,,,
,,,,,,,,,,,,,,,,,199450,18,2022-01-28_15h36.00.599,lexical_decision_task_DD_L3,2021.2.3,Win32,60.0240096,,,,,,,,,,,0.912,0,,,,,,,,,,,,,,z,0,0.912,,,,,,,,0.119444444,-0.157407407,0,0,0,,0,100,100,16,1,PENCE,C,old,m,./images/PENCE.png,,,,,,,,,,,,,,,,,,,,,,
,,,,,,,,,,,,,,,,,199450,18,2022-01-28_15h36.00.599,lexical_decision_task_DD_L3,2021.2.3,Win32,60.0240096,,,,,,,,,,,0.719,1,,,,,,,,,,,,,,m,1,0.719,,,,,,,,0.119444444,-0.157407407,0,0,0,,0,101,101,35,1,PEACH,HB,old,m,./images/PEACHHB.png,,,,,,,,,,,,,,,,,,,,,,
,,,,,,,,,,,,,,,,,199450,18,2022-01-28_15h36.00.599,lexical_decision_task_DD_L3,2021.2.3,Win32,60.0240096,,,,,,,,,,,0.723,1,,,,,,,,,,,,,,m,1,0.723,,,,,,,,0.119444444,-0.157407407,0,0,0,,0,102,102,20,1,CRADLE,HB,old,m,./images/CRADLEHB.png,,,,,,,,,,,,,,,,,,,,,,
,,,,,,,,,,,,,,,,,199450,18,2022-01-28_15h36.00.599,lexical_decision_task_DD_L3,2021.2.3,Win32,60.0240096,,,,,,,,,,,0.604,1,,,,,,,,,,,,,,m,1,0.604,,,,,,,,0.119444444,-0.157407407,0,0,0,,0,103,103,6,1,SQUARE,LB,old,m,./images/SQUARELB.png,,,,,,,,,,,,,,,,,,,,,,
,,,,,,,,,,,,,,,,,199450,18,2022-01-28_15h36.00.599,lexical_decision_task_DD_L3,2021.2.3,Win32,60.0240096,,,,,,,,,,,1.17,1,,,,,,,,,,,,,,m,1,1.17,,,,,,,,0.119444444,-0.157407407,0,0,0,,0,104,104,2,1,BEARD,HB,old,m,./images/BEARDHB.png,,,,,,,,,,,,,,,,,,,,,,
,,,,,,,,,,,,,,,,,199450,18,2022-01-28_15h36.00.599,lexical_decision_task_DD_L3,2021.2.3,Win32,60.0240096,,,,,,,,,,,0.832,1,,,,,,,,,,,,,,m,1,0.832,,,,,,,,0.119444444,-0.157407407,0,0,0,,0,105,105,73,1,SNACK,C,old,m,./images/SNACK.png,,,,,,,,,,,,,,,,,,,,,,
,,,,,,,,,,,,,,,,,199450,18,2022-01-28_15h36.00.599,lexical_decision_task_DD_L3,2021.2.3,Win32,60.0240096,,,,,,,,,,,0.883,1,,,,,,,,,,,,,,z,1,0.883,,,,,,,,0.119444444,-0.157407407,0,0,0,,0,106,106,114,1,RIKES,C,old,z,./images/RIKES.png,,,,,,,,,,,,,,,,,,,,,,
,,,,,,,,,,,,,,,,,199450,18,2022-01-28_15h36.00.599,lexical_decision_task_DD_L3,2021.2.3,Win32,60.0240096,,,,,,,,,,,0.913,1,,,,,,,,,,,,,,z,1,0.913,,,,,,,,0.119444444,-0.157407407,0,0,0,,0,107,107,140,1,DOVET,LB,old,z,./images/DOVETLB.png,,,,,,,,,,,,,,,,,,,,,,
,,,,,,,,,,,,,,,,,199450,18,2022-01-28_15h36.00.599,lexical_decision_task_DD_L3,2021.2.3,Win32,60.0240096,,,,,,,,,,,0.966,0,,,,,,,,,,,,,,m,0,0.966,,,,,,,,0.119444444,-0.157407407,0,0,0,,0,108,108,110,1,CRUNK,LB,old,z,./images/CRUNKLB.png,,,,,,,,,,,,,,,,,,,,,,
,,,,,,,,,,,,,,,,,199450,18,2022-01-28_15h36.00.599,lexical_decision_task_DD_L3,2021.2.3,Win32,60.0240096,,,,,,,,,,,1.156,1,,,,,,,,,,,,,,z,1,1.156,,,,,,,,0.119444444,-0.157407407,0,0,0,,0,109,109,94,1,BLANS,HB,old,z,./images/BLANSHB.png,,,,,,,,,,,,,,,,,,,,,,
,,,,,,,,,,,,,,,,,199450,18,2022-01-28_15h36.00.599,lexical_decision_task_DD_L3,2021.2.3,Win32,60.0240096,,,,,,,,,,,0.849,1,,,,,,,,,,,,,,z,1,0.849,,,,,,,,0.119444444,-0.157407407,0,0,0,,0,110,110,158,1,EGECT,LB,old,z,./images/EGECTLB.png,,,,,,,,,,,,,,,,,,,,,,
,,,,,,,,,,,,,,,,,199450,18,2022-01-28_15h36.00.599,lexical_decision_task_DD_L3,2021.2.3,Win32,60.0240096,,,,,,,,,,,1.154,1,,,,,,,,,,,,,,z,1,1.154,,,,,,,,0.119444444,-0.157407407,0,0,0,,0,111,111,84,1,HAXES,C,old,z,./images/HAXES.png,,,,,,,,,,,,,,,,,,,,,,
,,,,,,,,,,,,,,,,,199450,18,2022-01-28_15h36.00.599,lexical_decision_task_DD_L3,2021.2.3,Win32,60.0240096,,,,,,,,,,,0.789,1,,,,,,,,,,,,,,z,1,0.789,,,,,,,,0.119444444,-0.157407407,0,0,0,,0,112,112,111,1,HOSSE,C,old,z,./images/HOSSE.png,,,,,,,,,,,,,,,,,,,,,,
,,,,,,,,,,,,,,,,,199450,18,2022-01-28_15h36.00.599,lexical_decision_task_DD_L3,2021.2.3,Win32,60.0240096,,,,,,,,,,,0.742,1,,,,,,,,,,,,,,z,1,0.742,,,,,,,,0.119444444,-0.157407407,0,0,0,,0,113,113,93,1,SMONE,C,old,z,./images/SMONE.png,,,,,,,,,,,,,,,,,,,,,,
,,,,,,,,,,,,,,,,,199450,18,2022-01-28_15h36.00.599,lexical_decision_task_DD_L3,2021.2.3,Win32,60.0240096,,,,,,,,,,,0.64,1,,,,,,,,,,,,,,z,1,0.64,,,,,,,,0.119444444,-0.157407407,0,0,0,,0,114,114,117,1,STEEG,C,old,z,./images/STEEG.png,,,,,,,,,,,,,,,,,,,,,,
,,,,,,,,,,,,,,,,,199450,18,2022-01-28_15h36.00.599,lexical_decision_task_DD_L3,2021.2.3,Win32,60.0240096,,,,,,,,,,,1.027,1,,,,,,,,,,,,,,z,1,1.027,,,,,,,,0.119444444,-0.157407407,0,0,0,,0,115,115,124,1,TUNCH,HB,old,z,./images/TUNCHHB.png,,,,,,,,,,,,,,,,,,,,,,
,,,,,,,,,,,,,,,,,199450,18,2022-01-28_15h36.00.599,lexical_decision_task_DD_L3,2021.2.3,Win32,60.0240096,,,,,,,,,,,1.049,1,,,,,,,,,,,,,,z,1,1.049,,,,,,,,0.119444444,-0.157407407,0,0,0,,0,116,116,123,1,SEDGE,C,old,z,./images/SEDGE.png,,,,,,,,,,,,,,,,,,,,,,
,,,,,,,,,,,,,,,,,199450,18,2022-01-28_15h36.00.599,lexical_decision_task_DD_L3,2021.2.3,Win32,60.0240096,,,,,,,,,,,0.833,1,,,,,,,,,,,,,,m,1,0.833,,,,,,,,0.119444444,-0.157407407,0,0,0,,0,117,117,41,1,STRING,HB,old,m,./images/STRINGHB.png,,,,,,,,,,,,,,,,,,,,,,
,,,,,,,,,,,,,,,,,199450,18,2022-01-28_15h36.00.599,lexical_decision_task_DD_L3,2021.2.3,Win32,60.0240096,,,,,,,,,,,0.808,1,,,,,,,,,,,,,,z,1,0.808,,,,,,,,0.119444444,-0.157407407,0,0,0,,0,118,118,145,1,LAMEL,HB,old,z,./images/LAMELHB.png,,,,,,,,,,,,,,,,,,,,,,
,,,,,,,,,,,,,,,,,199450,18,2022-01-28_15h36.00.599,lexical_decision_task_DD_L3,2021.2.3,Win32,60.0240096,,,,,,,,,,,0.931,1,,,,,,,,,,,,,,m,1,0.931,,,,,,,,0.119444444,-0.157407407,0,0,0,,0,119,119,58,1,BABOON,C,old,m,./images/BABOON.png,,,,,,,,,,,,,,,,,,,,,,
,,,,,,,,,,,,,,,,,199450,18,2022-01-28_15h36.00.599,lexical_decision_task_DD_L3,2021.2.3,Win32,60.0240096,,,,,,,,,,,0.72,1,,,,,,,,,,,,,,m,1,0.72,,,,,,,,0.119444444,-0.157407407,0,0,0,,0,120,120,69,1,COOKER,LB,old,m,./images/COOKERLB.png,,,,,,,,,,,,,,,,,,,,,,
,,,,,,,,,,,,,,,,,199450,18,2022-01-28_15h36.00.599,lexical_decision_task_DD_L3,2021.2.3,Win32,60.0240096,,,,,,,,,,,1.301,1,,,,,,,,,,,,,,z,1,1.301,,,,,,,,0.119444444,-0.157407407,0,0,0,,0,121,121,105,1,MOKER,C,old,z,./images/MOKER.png,,,,,,,,,,,,,,,,,,,,,,
,,,,,,,,,,,,,,,,,199450,18,2022-01-28_15h36.00.599,lexical_decision_task_DD_L3,2021.2.3,Win32,60.0240096,,,,,,,,,,,1.176,1,,,,,,,,,,,,,,m,1,1.176,,,,,,,,0.119444444,-0.157407407,0,0,0,,0,122,122,74,1,CEMENT,HB,old,m,./images/CEMENTHB.png,,,,,,,,,,,,,,,,,,,,,,
,,,,,,,,,,,,,,,,,199450,18,2022-01-28_15h36.00.599,lexical_decision_task_DD_L3,2021.2.3,Win32,60.0240096,,,,,,,,,,,1.897,1,,,,,,,,,,,,,,z,1,1.897,,,,,,,,0.119444444,-0.157407407,0,0,0,,0,123,123,139,1,BLEAR,HB,old,z,./images/BLEARHB.png,,,,,,,,,,,,,,,,,,,,,,
,,,,,,,,,,,,,,,,,199450,18,2022-01-28_15h36.00.599,lexical_decision_task_DD_L3,2021.2.3,Win32,60.0240096,,,,,,,,,,,0.867,1,,,,,,,,,,,,,,m,1,0.867,,,,,,,,0.119444444,-0.157407407,0,0,0,,0,124,124,31,1,QUILL,C,old,m,./images/QUILL.png,,,,,,,,,,,,,,,,,,,,,,
,,,,,,,,,,,,,,,,,199450,18,2022-01-28_15h36.00.599,lexical_decision_task_DD_L3,2021.2.3,Win32,60.0240096,,,,,,,,,,,0.983,1,,,,,,,,,,,,,,z,1,0.983,,,,,,,,0.119444444,-0.157407407,0,0,0,space,0,125,125,134,1,TROSS,LB,old,z,./images/TROSSLB.png,1.85,,,,,,,,,,,,,,,,,,,,,
,,,,,,,,,,,,,,,,,199450,18,2022-01-28_15h36.00.599,lexical_decision_task_DD_L3,2021.2.3,Win32,60.0240096,,,,,,,,,,,1.28,1,,,,,,,,,,,,,,m,1,1.28,,,,,,,,0.119444444,-0.157407407,0,0,0,,0,126,126,15,1,GREASE,LB,old,m,./images/GREASELB.png,,,,,,,,,,,,,,,,,,,,,,
,,,,,,,,,,,,,,,,,199450,18,2022-01-28_15h36.00.599,lexical_decision_task_DD_L3,2021.2.3,Win32,60.0240096,,,,,,,,,,,0.716,1,,,,,,,,,,,,,,m,1,0.716,,,,,,,,0.119444444,-0.157407407,0,0,0,,0,127,127,38,1,LADDER,HB,old,m,./images/LADDERHB.png,,,,,,,,,,,,,,,,,,,,,,
,,,,,,,,,,,,,,,,,199450,18,2022-01-28_15h36.00.599,lexical_decision_task_DD_L3,2021.2.3,Win32,60.0240096,,,,,,,,,,,0.698,1,,,,,,,,,,,,,,m,1,0.698,,,,,,,,0.119444444,-0.157407407,0,0,0,,0,128,128,0,1,TOMATO,LB,old,m,./images/TOMATOLB.png,,,,,,,,,,,,,,,,,,,,,,
,,,,,,,,,,,,,,,,,199450,18,2022-01-28_15h36.00.599,lexical_decision_task_DD_L3,2021.2.3,Win32,60.0240096,,,,,,,,,,,0.716,1,,,,,,,,,,,,,,m,1,0.716,,,,,,,,0.119444444,-0.157407407,0,0,0,,0,129,129,7,1,PAINT,C,old,m,./images/PAINT.png,,,,,,,,,,,,,,,,,,,,,,
,,,,,,,,,,,,,,,,,199450,18,2022-01-28_15h36.00.599,lexical_decision_task_DD_L3,2021.2.3,Win32,60.0240096,,,,,,,,,,,0.653,1,,,,,,,,,,,,,,m,1,0.653,,,,,,,,0.119444444,-0.157407407,0,0,0,,0,130,130,57,1,MOOSE,LB,old,m,./images/MOOSELB.png,,,,,,,,,,,,,,,,,,,,,,
,,,,,,,,,,,,,,,,,199450,18,2022-01-28_15h36.00.599,lexical_decision_task_DD_L3,2021.2.3,Win32,60.0240096,,,,,,,,,,,0.763,1,,,,,,,,,,,,,,z,1,0.763,,,,,,,,0.119444444,-0.157407407,0,0,0,,0,131,131,161,1,BLAPS,LB,old,z,./images/BLAPSLB.png,,,,,,,,,,,,,,,,,,,,,,
,,,,,,,,,,,,,,,,,199450,18,2022-01-28_15h36.00.599,lexical_decision_task_DD_L3,2021.2.3,Win32,60.0240096,,,,,,,,,,,0.804,1,,,,,,,,,,,,,,m,1,0.804,,,,,,,,0.119444444,-0.157407407,0,0,0,,0,132,132,26,1,SMOKER,HB,old,m,./images/SMOKERHB.png,,,,,,,,,,,,,,,,,,,,,,
,,,,,,,,,,,,,,,,,199450,18,2022-01-28_15h36.00.599,lexical_decision_task_DD_L3,2021.2.3,Win32,60.0240096,,,,,,,,,,,1.166,1,,,,,,,,,,,,,,z,1,1.166,,,,,,,,0.119444444,-0.157407407,0,0,0,,0,133,133,162,1,LEICH,C,old,z,./images/LEICH.png,,,,,,,,,,,,,,,,,,,,,,
,,,,,,,,,,,,,,,,,199450,18,2022-01-28_15h36.00.599,lexical_decision_task_DD_L3,2021.2.3,Win32,60.0240096,,,,,,,,,,,0.884,1,,,,,,,,,,,,,,m,1,0.884,,,,,,,,0.119444444,-0.157407407,0,0,0,,0,134,134,54,1,TRIPOD,LB,old,m,./images/TRIPODLB.png,,,,,,,,,,,,,,,,,,,,,,
,,,,,,,,,,,,,,,,,199450,18,2022-01-28_15h36.00.599,lexical_decision_task_DD_L3,2021.2.3,Win32,60.0240096,,,,,,,,,,,0.682,1,,,,,,,,,,,,,,m,1,0.682,,,,,,,,0.119444444,-0.157407407,0,0,0,,0,135,135,4,1,MUSCLE,C,old,m,./images/MUSCLE.png,,,,,,,,,,,,,,,,,,,,,,
,,,,,,,,,,,,,,,,,199450,18,2022-01-28_15h36.00.599,lexical_decision_task_DD_L3,2021.2.3,Win32,60.0240096,,,,,,,,,,,0.733,1,,,,,,,,,,,,,,z,1,0.733,,,,,,,,0.119444444,-0.157407407,0,0,0,,0,136,136,131,1,NACES,LB,old,z,./images/NACESLB.png,,,,,,,,,,,,,,,,,,,,,,
,,,,,,,,,,,,,,,,,199450,18,2022-01-28_15h36.00.599,lexical_decision_task_DD_L3,2021.2.3,Win32,60.0240096,,,,,,,,,,,0.92,1,,,,,,,,,,,,,,m,1,0.92,,,,,,,,0.119444444,-0.157407407,0,0,0,,0,137,137,11,1,BONNET,HB,old,m,./images/BONNETHB.png,,,,,,,,,,,,,,,,,,,,,,
,,,,,,,,,,,,,,,,,199450,18,2022-01-28_15h36.00.599,lexical_decision_task_DD_L3,2021.2.3,Win32,60.0240096,,,,,,,,,,,1.353,0,,,,,,,,,,,,,,m,0,1.353,,,,,,,,0.119444444,-0.157407407,0,0,0,,0,138,138,157,1,INLER,HB,old,z,./images/INLERHB.png,,,,,,,,,,,,,,,,,,,,,,
,,,,,,,,,,,,,,,,,199450,18,2022-01-28_15h36.00.599,lexical_decision_task_DD_L3,2021.2.3,Win32,60.0240096,,,,,,,,,,,0.733,1,,,,,,,,,,,,,,m,1,0.733,,,,,,,,0.119444444,-0.157407407,0,0,0,,0,139,139,1,1,PLANK,C,old,m,./images/PLANK.png,,,,,,,,,,,,,,,,,,,,,,
,,,,,,,,,,,,,,,,,199450,18,2022-01-28_15h36.00.599,lexical_decision_task_DD_L3,2021.2.3,Win32,60.0240096,,,,,,,,,,,0.616,1,,,,,,,,,,,,,,m,1,0.616,,,,,,,,0.119444444,-0.157407407,0,0,0,,0,140,140,82,1,SUNSET,C,old,m,./images/SUNSET.png,,,,,,,,,,,,,,,,,,,,,,
,,,,,,,,,,,,,,,,,199450,18,2022-01-28_15h36.00.599,lexical_decision_task_DD_L3,2021.2.3,Win32,60.0240096,,,,,,,,,,,0.606,1,,,,,,,,,,,,,,m,1,0.606,,,,,,,,0.119444444,-0.157407407,0,0,0,,0,141,141,40,1,SWING,C,old,m,./images/SWING.png,,,,,,,,,,,,,,,,,,,,,,
,,,,,,,,,,,,,,,,,199450,18,2022-01-28_15h36.00.599,lexical_decision_task_DD_L3,2021.2.3,Win32,60.0240096,,,,,,,,,,,1.094,0,,,,,,,,,,,,,,m,0,1.094,,,,,,,,0.119444444,-0.157407407,0,0,0,,0,142,142,159,1,CUDDY,C,old,z,./images/CUDDY.png,,,,,,,,,,,,,,,,,,,,,,
,,,,,,,,,,,,,,,,,199450,18,2022-01-28_15h36.00.599,lexical_decision_task_DD_L3,2021.2.3,Win32,60.0240096,,,,,,,,,,,0.674,1,,,,,,,,,,,,,,m,1,0.674,,,,,,,,0.119444444,-0.157407407,0,0,0,,0,143,143,70,1,URINE,C,old,m,./images/URINE.png,,,,,,,,,,,,,,,,,,,,,,
,,,,,,,,,,,,,,,,,199450,18,2022-01-28_15h36.00.599,lexical_decision_task_DD_L3,2021.2.3,Win32,60.0240096,,,,,,,,,,,1.502,1,,,,,,,,,,,,,,z,1,1.502,,,,,,,,0.119444444,-0.157407407,0,0,0,,0,144,144,121,1,CEERS,HB,old,z,./images/CEERSHB.png,,,,,,,,,,,,,,,,,,,,,,
,,,,,,,,,,,,,,,,,199450,18,2022-01-28_15h36.00.599,lexical_decision_task_DD_L3,2021.2.3,Win32,60.0240096,,,,,,,,,,,0.81,0,,,,,,,,,,,,,,m,0,0.81,,,,,,,,0.119444444,-0.157407407,0,0,0,,0,145,145,107,1,FASKS,LB,old,z,./images/FASKSLB.png,,,,,,,,,,,,,,,,,,,,,,
,,,,,,,,,,,,,,,,,199450,18,2022-01-28_15h36.00.599,lexical_decision_task_DD_L3,2021.2.3,Win32,60.0240096,,,,,,,,,,,0.581,1,,,,,,,,,,,,,,m,1,0.581,,,,,,,,0.119444444,-0.157407407,0,0,0,,0,146,146,24,1,SCREW,LB,old,m,./images/SCREWLB.png,,,,,,,,,,,,,,,,,,,,,,
,,,,,,,,,,,,,,,,,199450,18,2022-01-28_15h36.00.599,lexical_decision_task_DD_L3,2021.2.3,Win32,60.0240096,,,,,,,,,,,0.622,1,,,,,,,,,,,,,,m,1,0.622,,,,,,,,0.119444444,-0.157407407,0,0,0,,0,147,147,48,1,SPORT,LB,old,m,./images/SPORTLB.png,,,,,,,,,,,,,,,,,,,,,,
,,,,,,,,,,,,,,,,,199450,18,2022-01-28_15h36.00.599,lexical_decision_task_DD_L3,2021.2.3,Win32,60.0240096,,,,,,,,,,,0.622,1,,,,,,,,,,,,,,m,1,0.622,,,,,,,,0.119444444,-0.157407407,0,0,0,,0,148,148,55,1,MUFFIN,C,old,m,./images/MUFFIN.png,,,,,,,,,,,,,,,,,,,,,,
,,,,,,,,,,,,,,,,,199450,18,2022-01-28_15h36.00.599,lexical_decision_task_DD_L3,2021.2.3,Win32,60.0240096,,,,,,,,,,,0.981,1,,,,,,,,,,,,,,z,1,0.981,,,,,,,,0.119444444,-0.157407407,0,0,0,,0,149,149,99,1,BACKY,C,old,z,./images/BACKY.png,,,,,,,,,,,,,,,,,,,,,,
,,,,,,,,,,,,,,,,,199450,18,2022-01-28_15h36.00.599,lexical_decision_task_DD_L3,2021.2.3,Win32,60.0240096,,,,,,,,,,,0.671,1,,,,,,,,,,,,,,m,1,0.671,,,,,,,,0.119444444,-0.157407407,0,0,0,,0,150,150,59,1,BURIAL,HB,old,m,./images/BURIALHB.png,,,,,,,,,,,,,,,,,,,,,,
,,,,,,,,,,,,,,,,,199450,18,2022-01-28_15h36.00.599,lexical_decision_task_DD_L3,2021.2.3,Win32,60.0240096,,,,,,,,,,,0.58,1,,,,,,,,,,,,,,m,1,0.58,,,,,,,,0.119444444,-0.157407407,0,0,0,,0,151,151,49,1,DRUMS,C,old,m,./images/DRUMS.png,,,,,,,,,,,,,,,,,,,,,,
,,,,,,,,,,,,,,,,,199450,18,2022-01-28_15h36.00.599,lexical_decision_task_DD_L3,2021.2.3,Win32,60.0240096,,,,,,,,,,,0.7,1,,,,,,,,,,,,,,z,1,0.7,,,,,,,,0.119444444,-0.157407407,0,0,0,,0,152,152,150,1,NOOLS,C,old,z,./images/NOOLS.png,,,,,,,,,,,,,,,,,,,,,,
,,,,,,,,,,,,,,,,,199450,18,2022-01-28_15h36.00.599,lexical_decision_task_DD_L3,2021.2.3,Win32,60.0240096,,,,,,,,,,,0.93,1,,,,,,,,,,,,,,z,1,0.93,,,,,,,,0.119444444,-0.157407407,0,0,0,,0,153,153,95,1,HANTY,LB,old,z,./images/HANTYLB.png,,,,,,,,,,,,,,,,,,,,,,
,,,,,,,,,,,,,,,,,199450,18,2022-01-28_15h36.00.599,lexical_decision_task_DD_L3,2021.2.3,Win32,60.0240096,,,,,,,,,,,0.648,1,,,,,,,,,,,,,,m,1,0.648,,,,,,,,0.119444444,-0.157407407,0,0,0,,0,154,154,52,1,BANNER,C,old,m,./images/BANNER.png,,,,,,,,,,,,,,,,,,,,,,
,,,,,,,,,,,,,,,,,199450,18,2022-01-28_15h36.00.599,lexical_decision_task_DD_L3,2021.2.3,Win32,60.0240096,,,,,,,,,,,0.95,1,,,,,,,,,,,,,,z,1,0.95,,,,,,,,0.119444444,-0.157407407,0,0,0,,0,155,155,119,1,PAFER,LB,old,z,./images/PAFERLB.png,,,,,,,,,,,,,,,,,,,,,,
,,,,,,,,,,,,,,,,,199450,18,2022-01-28_15h36.00.599,lexical_decision_task_DD_L3,2021.2.3,Win32,60.0240096,,,,,,,,,,,0.72,1,,,,,,,,,,,,,,z,1,0.72,,,,,,,,0.119444444,-0.157407407,0,0,0,,0,156,156,156,1,HIXES,C,old,z,./images/HIXES.png,,,,,,,,,,,,,,,,,,,,,,
,,,,,,,,,,,,,,,,,199450,18,2022-01-28_15h36.00.599,lexical_decision_task_DD_L3,2021.2.3,Win32,60.0240096,,,,,,,,,,,1.051,1,,,,,,,,,,,,,,z,1,1.051,,,,,,,,0.119444444,-0.157407407,0,0,0,,0,157,157,143,1,MONGS,LB,old,z,./images/MONGSLB.png,,,,,,,,,,,,,,,,,,,,,,
,,,,,,,,,,,,,,,,,199450,18,2022-01-28_15h36.00.599,lexical_decision_task_DD_L3,2021.2.3,Win32,60.0240096,,,,,,,,,,,0.749,1,,,,,,,,,,,,,,z,1,0.749,,,,,,,,0.119444444,-0.157407407,0,0,0,,0,158,158,132,1,SCIFF,C,old,z,./images/SCIFF.png,,,,,,,,,,,,,,,,,,,,,,
,,,,,,,,,,,,,,,,,199450,18,2022-01-28_15h36.00.599,lexical_decision_task_DD_L3,2021.2.3,Win32,60.0240096,,,,,,,,,,,0.799,1,,,,,,,,,,,,,,m,1,0.799,,,,,,,,0.119444444,-0.157407407,0,0,0,,0,159,159,43,1,MOSQUE,C,old,m,./images/MOSQUE.png,,,,,,,,,,,,,,,,,,,,,,
,,,,,,,,,,,,,,,,,199450,18,2022-01-28_15h36.00.599,lexical_decision_task_DD_L3,2021.2.3,Win32,60.0240096,,,,,,,,,,,1.114,1,,,,,,,,,,,,,,z,1,1.114,,,,,,,,0.119444444,-0.157407407,0,0,0,,0,160,160,160,1,VEETS,HB,old,z,./images/VEETSHB.png,,,,,,,,,,,,,,,,,,,,,,
,,,,,,,,,,,,,,,,,199450,18,2022-01-28_15h36.00.599,lexical_decision_task_DD_L3,2021.2.3,Win32,60.0240096,,,,,,,,,,,0.866,1,,,,,,,,,,,,,,m,1,0.866,,,,,,,,0.119444444,-0.157407407,0,0,0,,0,161,161,81,1,POODLE,LB,old,m,./images/POODLELB.png,,,,,,,,,,,,,,,,,,,,,,
,,,,,,,,,,,,,,,,,199450,18,2022-01-28_15h36.00.599,lexical_decision_task_DD_L3,2021.2.3,Win32,60.0240096,,,,,,,,,,,1.034,0,,,,,,,,,,,,,,m,0,1.034,,,,,,,,0.119444444,-0.157407407,0,0,0,,0,162,162,133,1,POWDY,HB,old,z,./images/POWDYHB.png,,,,,,,,,,,,,,,,,,,,,,
,,,,,,,,,,,,,,,,,199450,18,2022-01-28_15h36.00.599,lexical_decision_task_DD_L3,2021.2.3,Win32,60.0240096,,,,,,,,,,,0.879,0,,,,,,,,,,,,,,m,0,0.879,,,,,,,,0.119444444,-0.157407407,0,0,0,,0,163,163,151,1,TINKY,HB,old,z,./images/TINKYHB.png,,,,,,,,,,,,,,,,,,,,,,
,,,,,,,,,,,,,,,,,199450,18,2022-01-28_15h36.00.599,lexical_decision_task_DD_L3,2021.2.3,Win32,60.0240096,,,,,,,,,,,0.684,1,,,,,,,,,,,,,,m,1,0.684,,,,,,,,0.119444444,-0.157407407,0,0,0,,0,164,164,21,1,KIDNEY,LB,old,m,./images/KIDNEYLB.png,,,,,,,,,,,,,,,,,,,,,,
,,,,,,,,,,,,,,,,,199450,18,2022-01-28_15h36.00.599,lexical_decision_task_DD_L3,2021.2.3,Win32,60.0240096,,,,,,,,,,,1.21,1,,,,,,,,,,,,,,m,1,1.21,,,,,,,,0.119444444,-0.157407407,0,0,0,,0,165,165,34,1,CANYON,C,old,m,./images/CANYON.png,,,,,,,,,,,,,,,,,,,,,,
,,,,,,,,,,,,,,,,,199450,18,2022-01-28_15h36.00.599,lexical_decision_task_DD_L3,2021.2.3,Win32,60.0240096,,,,,,,,,,,0.681,1,,,,,,,,,,,,,,m,1,0.681,,,,,,,,0.119444444,-0.157407407,0,0,0,,0,166,166,77,1,COUCH,HB,old,m,./images/COUCHHB.png,,,,,,,,,,,,,,,,,,,,,,
,,,,,,,,,,,,,,,,,199450,18,2022-01-28_15h36.00.599,lexical_decision_task_DD_L3,2021.2.3,Win32,60.0240096,,,,,,,,,,,1.006,1,,,,,,,,,,,,,,m,1,1.006,,,,,,,,0.119444444,-0.157407407,0,0,0,,0,167,167,3,1,FINGER,LB,old,m,./images/FINGERLB.png,,,,,,,,,,,,,,,,,,,,,,
space,0.119444444,-0.157407407,0,0,0,,,,,,,1,test,"In the next phase you will be presented with the words from the the first phase. Your job is to decide whether you remember seeing the word or not. If you remember seeing the word press ""old"" or type ""m"". If you do not remember seeing the word press ""new"" or type ""z"". Please press the space bar or click on continue to begin. ",,,199450,18,2022-01-28_15h36.00.599,lexical_decision_task_DD_L3,2021.2.3,Win32,60.0240096,,,,,,,,,,,,,,,,,,,,,,,,,,,,,,,,,,,,,,,,,,,,,,,,,,,,,10.757,0,0,0,0,1,,,,,,,,,,,,,,,
space,0.119444444,-0.157407407,0,0,0,,,,,,,1,test,"In the next phase you will be presented with the words from the the first phase. Your job is to decide whether you remember seeing the word or not. If you remember seeing the word press ""old"" or type ""m"". If you do not remember seeing the word press ""new"" or type ""z"". Please press the space bar or click on continue to begin. ",,,199450,18,2022-01-28_15h36.00.599,lexical_decision_task_DD_L3,2021.2.3,Win32,60.0240096,,,,,,,,,,,,,,,,,,,,,,,,,,,,,,,,,,,,,,,,,,,,,,,,,,,,,0.763,1,0,1,0,1,,,,,,,,,,,,,,,
,0.136111111,-0.365740741,1,0,0,instr_done_button,,,,,,1,test,"In the next phase you will be presented with the words from the the first phase. Your job is to decide whether you remember seeing the word or not. If you remember seeing the word press ""old"" or type ""m"". If you do not remember seeing the word press ""new"" or type ""z"". Please press the space bar or click on continue to begin. ",,,199450,18,2022-01-28_15h36.00.599,lexical_decision_task_DD_L3,2021.2.3,Win32,60.0240096,,,,,,,,,,,,,,,,,,,,,,,,,,,,,,,,,,,,,,,,,,,,,,,,,,,,,,2,0,2,0,1,,,,,,,,,,,,,,,
,-0.04537037,-0.4,1,0,0,instr_done_button,,,,,,1,test,"In the next phase you will be presented with the words from the the first phase. Your job is to decide whether you remember seeing the word or not. If you remember seeing the word press ""old"" or type ""m"". If you do not remember seeing the word press ""new"" or type ""z"". Please press the space bar or click on continue to begin. ",,,199450,18,2022-01-28_15h36.00.599,lexical_decision_task_DD_L3,2021.2.3,Win32,60.0240096,,,,,,,,,,,,,,,,,,,,,,,,,,,,,,,,,,,,,,,,,,,,,,,,,,,,,,3,0,3,0,1,,,,,,,,,,,,,,,
,0.018518519,-0.387037037,1,0,0,instr_done_button,,,,,,1,test,"In the next phase you will be presented with the words from the the first phase. Your job is to decide whether you remember seeing the word or not. If you remember seeing the word press ""old"" or type ""m"". If you do not remember seeing the word press ""new"" or type ""z"". Please press the space bar or click on continue to begin. ",,,199450,18,2022-01-28_15h36.00.599,lexical_decision_task_DD_L3,2021.2.3,Win32,60.0240096,,,,,,,,,,,,,,,,,,,,,,,,,,,,,,,,,,,,,,,,,,,,,,,,,,,,,,4,0,4,0,1,,,,,,,,,,,,,,,
,,,,,,,,,,,,,,,,,199450,18,2022-01-28_15h36.00.599,lexical_decision_task_DD_L3,2021.2.3,Win32,60.0240096,,,,,,,,,,,1.471,0,,,,,,,,,,,,,,,,,,,,,,,,0.141666667,-0.101851852,0,0,0,,,,,,,SHELF,LB,m,m,./images/SHELFLB.png,,,,,,,,z,0,1.471,,,,,,,,0,0,0,39,1
,,,,,,,,,,,,,,,,,199450,18,2022-01-28_15h36.00.599,lexical_decision_task_DD_L3,2021.2.3,Win32,60.0240096,,,,,,,,,,,1.067,0,,,,,,,,,,,,,,,,,,,,,,,,0.141666667,-0.101851852,0,0,0,,,,,,,BARREL,HB,m,m,./images/BARRELHB.png,,,,,,,,z,0,1.067,,,,,,,,0,1,1,32,1
,,,,,,,,,,,,,,,,,199450,18,2022-01-28_15h36.00.599,lexical_decision_task_DD_L3,2021.2.3,Win32,60.0240096,,,,,,,,,,,0.735,1,,,,,,,,,,,,,,,,,,,,,,,,0.141666667,-0.101851852,0,0,0,,,,,,,PEBBLE,C,z,m,./images/PEBBLE.png,,,,,,,,z,1,0.735,,,,,,,,0,2,2,166,1
,,,,,,,,,,,,,,,,,199450,18,2022-01-28_15h36.00.599,lexical_decision_task_DD_L3,2021.2.3,Win32,60.0240096,,,,,,,,,,,0.776,0,,,,,,,,,,,,,,,,,,,,,,,,0.141666667,-0.101851852,0,0,0,,,,,,,PAINT,C,m,m,./images/PAINT.png,,,,,,,,z,0,0.776,,,,,,,,0,3,3,7,1
,,,,,,,,,,,,,,,,,199450,18,2022-01-28_15h36.00.599,lexical_decision_task_DD_L3,2021.2.3,Win32,60.0240096,,,,,,,,,,,0.594,1,,,,,,,,,,,,,,,,,,,,,,,,0.141666667,-0.101851852,0,0,0,,,,,,,CURRY,LB,z,m,./images/CURRYLB.png,,,,,,,,z,1,0.594,,,,,,,,0,4,4,144,1
,,,,,,,,,,,,,,,,,199450,18,2022-01-28_15h36.00.599,lexical_decision_task_DD_L3,2021.2.3,Win32,60.0240096,,,,,,,,,,,0.683,0,,,,,,,,,,,,,,,,,,,,,,,,0.141666667,-0.101851852,0,0,0,,,,,,,CRUMB,HB,m,m,./images/CRUMBHB.png,,,,,,,,z,0,0.683,,,,,,,,0,5,5,29,1
,,,,,,,,,,,,,,,,,199450,18,2022-01-28_15h36.00.599,lexical_decision_task_DD_L3,2021.2.3,Win32,60.0240096,,,,,,,,,,,0.526,1,,,,,,,,,,,,,,,,,,,,,,,,0.141666667,-0.101851852,0,0,0,,,,,,,WALNUT,LB,z,m,./images/WALNUTLB.png,,,,,,,,z,1,0.526,,,,,,,,0,6,6,84,1
,,,,,,,,,,,,,,,,,199450,18,2022-01-28_15h36.00.599,lexical_decision_task_DD_L3,2021.2.3,Win32,60.0240096,,,,,,,,,,,0.533,1,,,,,,,,,,,,,,,,,,,,,,,,0.141666667,-0.101851852,0,0,0,,,,,,,RAZOR,C,z,m,./images/RAZOR.png,,,,,,,,z,1,0.533,,,,,,,,0,7,7,118,1
,,,,,,,,,,,,,,,,,199450,18,2022-01-28_15h36.00.599,lexical_decision_task_DD_L3,2021.2.3,Win32,60.0240096,,,,,,,,,,,0.522,0,,,,,,,,,,,,,,,,,,,,,,,,0.141666667,-0.101851852,0,0,0,,,,,,,LADDER,HB,m,m,./images/LADDERHB.png,,,,,,,,z,0,0.522,,,,,,,,0,8,8,38,1
,,,,,,,,,,,,,,,,,199450,18,2022-01-28_15h36.00.599,lexical_decision_task_DD_L3,2021.2.3,Win32,60.0240096,,,,,,,,,,,0.621,0,,,,,,,,,,,,,,,,,,,,,,,,0.141666667,-0.101851852,0,0,0,,,,,,,PASTA,HB,m,m,./images/PASTAHB.png,,,,,,,,z,0,0.621,,,,,,,,0,9,9,5,1
,,,,,,,,,,,,,,,,,199450,18,2022-01-28_15h36.00.599,lexical_decision_task_DD_L3,2021.2.3,Win32,60.0240096,,,,,,,,,,,0.493,0,,,,,,,,,,,,,,,,,,,,,,,,0.141666667,-0.101851852,0,0,0,,,,,,,JELLY,C,m,m,./images/JELLY.png,,,,,,,,z,0,0.493,,,,,,,,0,10,10,64,1
,,,,,,,,,,,,,,,,,199450,18,2022-01-28_15h36.00.599,lexical_decision_task_DD_L3,2021.2.3,Win32,60.0240096,,,,,,,,,,,0.722,1,,,,,,,,,,,,,,,,,,,,,,,,0.141666667,-0.101851852,0,0,0,,,,,,,SNAKE,C,z,m,./images/SNAKE.png,,,,,,,,z,1,0.722,,,,,,,,0,11,11,124,1
,,,,,,,,,,,,,,,,,199450,18,2022-01-28_15h36.00.599,lexical_decision_task_DD_L3,2021.2.3,Win32,60.0240096,,,,,,,,,,,0.707,0,,,,,,,,,,,,,,,,,,,,,,,,0.141666667,-0.101851852,0,0,0,,,,,,,PENCE,C,m,m,./images/PENCE.png,,,,,,,,z,0,0.707,,,,,,,,0,12,12,16,1
,,,,,,,,,,,,,,,,,199450,18,2022-01-28_15h36.00.599,lexical_decision_task_DD_L3,2021.2.3,Win32,60.0240096,,,,,,,,,,,0.76,0,,,,,,,,,,,,,,,,,,,,,,,,0.141666667,-0.101851852,0,0,0,,,,,,,KIDNEY,LB,m,m,./images/KIDNEYLB.png,,,,,,,,z,0,0.76,,,,,,,,0,13,13,21,1
,,,,,,,,,,,,,,,,,199450,18,2022-01-28_15h36.00.599,lexical_decision_task_DD_L3,2021.2.3,Win32,60.0240096,,,,,,,,,,,0.706,0,,,,,,,,,,,,,,,,,,,,,,,,0.141666667,-0.101851852,0,0,0,,,,,,,WRIST,C,m,m,./images/WRIST.png,,,,,,,,z,0,0.706,,,,,,,,0,14,14,25,1
,,,,,,,,,,,,,,,,,199450,18,2022-01-28_15h36.00.599,lexical_decision_task_DD_L3,2021.2.3,Win32,60.0240096,,,,,,,,,,,0.653,0,,,,,,,,,,,,,,,,,,,,,,,,0.141666667,-0.101851852,0,0,0,,,,,,,MOTOR,C,m,m,./images/MOTOR.png,,,,,,,,z,0,0.653,,,,,,,,0,15,15,13,1
,,,,,,,,,,,,,,,,,199450,18,2022-01-28_15h36.00.599,lexical_decision_task_DD_L3,2021.2.3,Win32,60.0240096,,,,,,,,,,,1.027,0,,,,,,,,,,,,,,,,,,,,,,,,0.141666667,-0.101851852,0,0,0,,,,,,,SWEAT,LB,m,m,./images/SWEATLB.png,,,,,,,,z,0,1.027,,,,,,,,0,16,16,66,1
,,,,,,,,,,,,,,,,,199450,18,2022-01-28_15h36.00.599,lexical_decision_task_DD_L3,2021.2.3,Win32,60.0240096,,,,,,,,,,,0.473,0,,,,,,,,,,,,,,,,,,,,,,,,0.141666667,-0.101851852,0,0,0,,,,,,,CARPET,HB,m,m,./images/CARPETHB.png,,,,,,,,z,0,0.473,,,,,,,,0,17,17,53,1
,,,,,,,,,,,,,,,,,199450,18,2022-01-28_15h36.00.599,lexical_decision_task_DD_L3,2021.2.3,Win32,60.0240096,,,,,,,,,,,0.509,1,,,,,,,,,,,,,,,,,,,,,,,,0.141666667,-0.101851852,0,0,0,,,,,,,WAGON,C,z,m,./images/WAGON.png,,,,,,,,z,1,0.509,,,,,,,,0,18,18,91,1
,,,,,,,,,,,,,,,,,199450,18,2022-01-28_15h36.00.599,lexical_decision_task_DD_L3,2021.2.3,Win32,60.0240096,,,,,,,,,,,0.533,0,,,,,,,,,,,,,,,,,,,,,,,,0.141666667,-0.101851852,0,0,0,,,,,,,MUFFIN,C,m,m,./images/MUFFIN.png,,,,,,,,z,0,0.533,,,,,,,,0,19,19,55,1
,,,,,,,,,,,,,,,,,199450,18,2022-01-28_15h36.00.599,lexical_decision_task_DD_L3,2021.2.3,Win32,60.0240096,,,,,,,,,,,0.907,0,,,,,,,,,,,,,,,,,,,,,,,,0.141666667,-0.101851852,0,0,0,,,,,,,SHORE,LB,m,m,./images/SHORELB.png,,,,,,,,z,0,0.907,,,,,,,,0,20,20,12,1
,,,,,,,,,,,,,,,,,199450,18,2022-01-28_15h36.00.599,lexical_decision_task_DD_L3,2021.2.3,Win32,60.0240096,,,,,,,,,,,0.972,1,,,,,,,,,,,,,,,,,,,,,,,,0.141666667,-0.101851852,0,0,0,,,,,,,SWING,C,m,m,./images/SWING.png,,,,,,,,m,1,0.972,,,,,,,,0,21,21,40,1
,,,,,,,,,,,,,,,,,199450,18,2022-01-28_15h36.00.599,lexical_decision_task_DD_L3,2021.2.3,Win32,60.0240096,,,,,,,,,,,0.977,1,,,,,,,,,,,,,,,,,,,,,,,,0.141666667,-0.101851852,0,0,0,,,,,,,ENGINE,HB,z,m,./images/ENGINEHB.png,,,,,,,,z,1,0.977,,,,,,,,0,22,22,122,1
,,,,,,,,,,,,,,,,,199450,18,2022-01-28_15h36.00.599,lexical_decision_task_DD_L3,2021.2.3,Win32,60.0240096,,,,,,,,,,,0.952,0,,,,,,,,,,,,,,,,,,,,,,,,0.141666667,-0.101851852,0,0,0,,,,,,,TRIPOD,LB,m,m,./images/TRIPODLB.png,,,,,,,,z,0,0.952,,,,,,,,0,23,23,54,1
,,,,,,,,,,,,,,,,,199450,18,2022-01-28_15h36.00.599,lexical_decision_task_DD_L3,2021.2.3,Win32,60.0240096,,,,,,,,,,,0.636,1,,,,,,,,,,,,,,,,,,,,,,,,0.141666667,-0.101851852,0,0,0,,,,,,,CRATER,LB,z,m,./images/CRATERLB.png,,,,,,,,z,1,0.636,,,,,,,,0,24,24,87,1
,,,,,,,,,,,,,,,,,199450,18,2022-01-28_15h36.00.599,lexical_decision_task_DD_L3,2021.2.3,Win32,60.0240096,,,,,,,,,,,0.551,0,,,,,,,,,,,,,,,,,,,,,,,,0.141666667,-0.101851852,0,0,0,,,,,,,TULIP,HB,m,m,./images/TULIPHB.png,,,,,,,,z,0,0.551,,,,,,,,0,25,25,8,1
,,,,,,,,,,,,,,,,,199450,18,2022-01-28_15h36.00.599,lexical_decision_task_DD_L3,2021.2.3,Win32,60.0240096,,,,,,,,,,,0.584,1,,,,,,,,,,,,,,,,,,,,,,,,0.141666667,-0.101851852,0,0,0,,,,,,,BASKET,HB,z,m,./images/BASKETHB.png,,,,,,,,z,1,0.584,,,,,,,,0,26,26,128,1
,,,,,,,,,,,,,,,,,199450,18,2022-01-28_15h36.00.599,lexical_decision_task_DD_L3,2021.2.3,Win32,60.0240096,,,,,,,,,,,0.533,1,,,,,,,,,,,,,,,,,,,,,,,,0.141666667,-0.101851852,0,0,0,,,,,,,CLOUD,HB,z,m,./images/CLOUDHB.png,,,,,,,,z,1,0.533,,,,,,,,0,27,27,110,1
,,,,,,,,,,,,,,,,,199450,18,2022-01-28_15h36.00.599,lexical_decision_task_DD_L3,2021.2.3,Win32,60.0240096,,,,,,,,,,,1.311,0,,,,,,,,,,,,,,,,,,,,,,,,0.141666667,-0.101851852,0,0,0,,,,,,,JUNGLE,HB,m,m,./images/JUNGLEHB.png,,,,,,,,z,0,1.311,,,,,,,,0,28,28,83,1
,,,,,,,,,,,,,,,,,199450,18,2022-01-28_15h36.00.599,lexical_decision_task_DD_L3,2021.2.3,Win32,60.0240096,,,,,,,,,,,0.554,1,,,,,,,,,,,,,,,,,,,,,,,,0.141666667,-0.101851852,0,0,0,,,,,,,LLAMA,HB,z,m,./images/LLAMAHB.png,,,,,,,,z,1,0.554,,,,,,,,0,29,29,119,1
,,,,,,,,,,,,,,,,,199450,18,2022-01-28_15h36.00.599,lexical_decision_task_DD_L3,2021.2.3,Win32,60.0240096,,,,,,,,,,,0.554,1,,,,,,,,,,,,,,,,,,,,,,,,0.141666667,-0.101851852,0,0,0,,,,,,,ARTIST,C,z,m,./images/ARTIST.png,,,,,,,,z,1,0.554,,,,,,,,0,30,30,145,1
,,,,,,,,,,,,,,,,,199450,18,2022-01-28_15h36.00.599,lexical_decision_task_DD_L3,2021.2.3,Win32,60.0240096,,,,,,,,,,,0.476,1,,,,,,,,,,,,,,,,,,,,,,,,0.141666667,-0.101851852,0,0,0,,,,,,,PISTOL,HB,z,m,./images/PISTOLHB.png,,,,,,,,z,1,0.476,,,,,,,,0,31,31,113,1
,,,,,,,,,,,,,,,,,199450,18,2022-01-28_15h36.00.599,lexical_decision_task_DD_L3,2021.2.3,Win32,60.0240096,,,,,,,,,,,0.518,0,,,,,,,,,,,,,,,,,,,,,,,,0.141666667,-0.101851852,0,0,0,,,,,,,TORCH,HB,m,m,./images/TORCHHB.png,,,,,,,,z,0,0.518,,,,,,,,0,32,32,68,1
,,,,,,,,,,,,,,,,,199450,18,2022-01-28_15h36.00.599,lexical_decision_task_DD_L3,2021.2.3,Win32,60.0240096,,,,,,,,,,,0.55,1,,,,,,,,,,,,,,,,,,,,,,,,0.141666667,-0.101851852,0,0,0,,,,,,,CLOWN,C,z,m,./images/CLOWN.png,,,,,,,,z,1,0.55,,,,,,,,0,33,33,106,1
,,,,,,,,,,,,,,,,,199450,18,2022-01-28_15h36.00.599,lexical_decision_task_DD_L3,2021.2.3,Win32,60.0240096,,,,,,,,,,,0.569,1,,,,,,,,,,,,,,,,,,,,,,,,0.141666667,-0.101851852,0,0,0,,,,,,,BISHOP,C,z,m,./images/BISHOP.png,,,,,,,,z,1,0.569,,,,,,,,0,34,34,133,1
,,,,,,,,,,,,,,,,,199450,18,2022-01-28_15h36.00.599,lexical_decision_task_DD_L3,2021.2.3,Win32,60.0240096,,,,,,,,,,,0.462,0,,,,,,,,,,,,,,,,,,,,,,,,0.141666667,-0.101851852,0,0,0,,,,,,,PURSE,HB,m,m,./images/PURSEHB.png,,,,,,,,z,0,0.462,,,,,,,,0,35,35,62,1
,,,,,,,,,,,,,,,,,199450,18,2022-01-28_15h36.00.599,lexical_decision_task_DD_L3,2021.2.3,Win32,60.0240096,,,,,,,,,,,0.474,0,,,,,,,,,,,,,,,,,,,,,,,,0.141666667,-0.101851852,0,0,0,,,,,,,JAGUAR,LB,m,m,./images/JAGUARLB.png,,,,,,,,z,0,0.474,,,,,,,,0,36,36,18,1
,,,,,,,,,,,,,,,,,199450,18,2022-01-28_15h36.00.599,lexical_decision_task_DD_L3,2021.2.3,Win32,60.0240096,,,,,,,,,,,0.408,1,,,,,,,,,,,,,,,,,,,,,,,,0.141666667,-0.101851852,0,0,0,,,,,,,STEAK,C,z,m,./images/STEAK.png,,,,,,,,z,1,0.408,,,,,,,,0,37,37,115,1
,,,,,,,,,,,,,,,,,199450,18,2022-01-28_15h36.00.599,lexical_decision_task_DD_L3,2021.2.3,Win32,60.0240096,,,,,,,,,,,0.671,0,,,,,,,,,,,,,,,,,,,,,,,,0.141666667,-0.101851852,0,0,0,,,,,,,BONNET,HB,m,m,./images/BONNETHB.png,,,,,,,,z,0,0.671,,,,,,,,0,38,38,11,1
,,,,,,,,,,,,,,,,,199450,18,2022-01-28_15h36.00.599,lexical_decision_task_DD_L3,2021.2.3,Win32,60.0240096,,,,,,,,,,,0.836,0,,,,,,,,,,,,,,,,,,,,,,,,0.141666667,-0.101851852,0,0,0,,,,,,,CANYON,C,m,m,./images/CANYON.png,,,,,,,,z,0,0.836,,,,,,,,0,39,39,34,1
,,,,,,,,,,,,,,,,,199450,18,2022-01-28_15h36.00.599,lexical_decision_task_DD_L3,2021.2.3,Win32,60.0240096,,,,,,,,,,,0.676,0,,,,,,,,,,,,,,,,,,,,,,,,0.141666667,-0.101851852,0,0,0,,,,,,,TWINS,LB,m,m,./images/TWINSLB.png,,,,,,,,z,0,0.676,,,,,,,,0,40,40,60,1
,,,,,,,,,,,,,,,,,199450,18,2022-01-28_15h36.00.599,lexical_decision_task_DD_L3,2021.2.3,Win32,60.0240096,,,,,,,,,,,0.542,0,,,,,,,,,,,,,,,,,,,,,,,,0.141666667,-0.101851852,0,0,0,space,,,,,,TOMATO,LB,m,m,./images/TOMATOLB.png,3.232,,,,,,,z,0,0.542,,,,,,,,0,41,41,0,1
,,,,,,,,,,,,,,,,,199450,18,2022-01-28_15h36.00.599,lexical_decision_task_DD_L3,2021.2.3,Win32,60.0240096,,,,,,,,,,,0.85,1,,,,,,,,,,,,,,,,,,,,,,,,0.141666667,-0.101851852,0,0,0,,,,,,,DRILL,LB,z,m,./images/DRILLLB.png,,,,,,,,z,1,0.85,,,,,,,,0,42,42,165,1
,,,,,,,,,,,,,,,,,199450,18,2022-01-28_15h36.00.599,lexical_decision_task_DD_L3,2021.2.3,Win32,60.0240096,,,,,,,,,,,0.53,1,,,,,,,,,,,,,,,,,,,,,,,,0.141666667,-0.101851852,0,0,0,,,,,,,HOCKEY,HB,z,m,./images/HOCKEYHB.png,,,,,,,,z,1,0.53,,,,,,,,0,43,43,116,1
,,,,,,,,,,,,,,,,,199450,18,2022-01-28_15h36.00.599,lexical_decision_task_DD_L3,2021.2.3,Win32,60.0240096,,,,,,,,,,,1.334,1,,,,,,,,,,,,,,,,,,,,,,,,0.141666667,-0.101851852,0,0,0,,,,,,,COOKER,LB,m,m,./images/COOKERLB.png,,,,,,,,m,1,1.334,,,,,,,,0,44,44,69,1
,,,,,,,,,,,,,,,,,199450,18,2022-01-28_15h36.00.599,lexical_decision_task_DD_L3,2021.2.3,Win32,60.0240096,,,,,,,,,,,0.669,1,,,,,,,,,,,,,,,,,,,,,,,,0.141666667,-0.101851852,0,0,0,,,,,,,PILOT,HB,z,m,./images/PILOTHB.png,,,,,,,,z,1,0.669,,,,,,,,0,45,45,134,1
,,,,,,,,,,,,,,,,,199450,18,2022-01-28_15h36.00.599,lexical_decision_task_DD_L3,2021.2.3,Win32,60.0240096,,,,,,,,,,,0.903,1,,,,,,,,,,,,,,,,,,,,,,,,0.141666667,-0.101851852,0,0,0,,,,,,,WEASEL,HB,m,m,./images/WEASELHB.png,,,,,,,,m,1,0.903,,,,,,,,0,46,46,80,1
,,,,,,,,,,,,,,,,,199450,18,2022-01-28_15h36.00.599,lexical_decision_task_DD_L3,2021.2.3,Win32,60.0240096,,,,,,,,,,,0.939,1,,,,,,,,,,,,,,,,,,,,,,,,0.141666667,-0.101851852,0,0,0,,,,,,,ARROW,LB,z,m,./images/ARROWLB.png,,,,,,,,z,1,0.939,,,,,,,,0,47,47,153,1
,,,,,,,,,,,,,,,,,199450,18,2022-01-28_15h36.00.599,lexical_decision_task_DD_L3,2021.2.3,Win32,60.0240096,,,,,,,,,,,1.05,1,,,,,,,,,,,,,,,,,,,,,,,,0.141666667,-0.101851852,0,0,0,,,,,,,LAGOON,HB,z,m,./images/LAGOONHB.png,,,,,,,,z,1,1.05,,,,,,,,0,48,48,131,1
,,,,,,,,,,,,,,,,,199450,18,2022-01-28_15h36.00.599,lexical_decision_task_DD_L3,2021.2.3,Win32,60.0240096,,,,,,,,,,,0.674,0,,,,,,,,,,,,,,,,,,,,,,,,0.141666667,-0.101851852,0,0,0,,,,,,,PEACH,HB,m,m,./images/PEACHHB.png,,,,,,,,z,0,0.674,,,,,,,,0,49,49,35,1
,,,,,,,,,,,,,,,,,199450,18,2022-01-28_15h36.00.599,lexical_decision_task_DD_L3,2021.2.3,Win32,60.0240096,,,,,,,,,,,0.559,0,,,,,,,,,,,,,,,,,,,,,,,,0.141666667,-0.101851852,0,0,0,,,,,,,SUNSET,C,m,m,./images/SUNSET.png,,,,,,,,z,0,0.559,,,,,,,,0,50,50,82,1
,,,,,,,,,,,,,,,,,199450,18,2022-01-28_15h36.00.599,lexical_decision_task_DD_L3,2021.2.3,Win32,60.0240096,,,,,,,,,,,1.802,0,,,,,,,,,,,,,,,,,,,,,,,,0.141666667,-0.101851852,0,0,0,,,,,,,PIMPLE,HB,m,m,./images/PIMPLEHB.png,,,,,,,,z,0,1.802,,,,,,,,0,51,51,71,1
,,,,,,,,,,,,,,,,,199450,18,2022-01-28_15h36.00.599,lexical_decision_task_DD_L3,2021.2.3,Win32,60.0240096,,,,,,,,,,,1.009,1,,,,,,,,,,,,,,,,,,,,,,,,0.141666667,-0.101851852,0,0,0,,,,,,,BOXER,C,z,m,./images/BOXER.png,,,,,,,,z,1,1.009,,,,,,,,0,52,52,88,1
,,,,,,,,,,,,,,,,,199450,18,2022-01-28_15h36.00.599,lexical_decision_task_DD_L3,2021.2.3,Win32,60.0240096,,,,,,,,,,,0.608,1,,,,,,,,,,,,,,,,,,,,,,,,0.141666667,-0.101851852,0,0,0,,,,,,,CANDY,LB,z,m,./images/CANDYLB.png,,,,,,,,z,1,0.608,,,,,,,,0,53,53,123,1
,,,,,,,,,,,,,,,,,199450,18,2022-01-28_15h36.00.599,lexical_decision_task_DD_L3,2021.2.3,Win32,60.0240096,,,,,,,,,,,1.008,1,,,,,,,,,,,,,,,,,,,,,,,,0.141666667,-0.101851852,0,0,0,,,,,,,STREAM,HB,z,m,./images/STREAMHB.png,,,,,,,,z,1,1.008,,,,,,,,0,54,54,125,1
,,,,,,,,,,,,,,,,,199450,18,2022-01-28_15h36.00.599,lexical_decision_task_DD_L3,2021.2.3,Win32,60.0240096,,,,,,,,,,,1.033,1,,,,,,,,,,,,,,,,,,,,,,,,0.141666667,-0.101851852,0,0,0,,,,,,,POODLE,LB,m,m,./images/POODLELB.png,,,,,,,,m,1,1.033,,,,,,,,0,55,55,81,1
,,,,,,,,,,,,,,,,,199450,18,2022-01-28_15h36.00.599,lexical_decision_task_DD_L3,2021.2.3,Win32,60.0240096,,,,,,,,,,,0.895,0,,,,,,,,,,,,,,,,,,,,,,,,0.141666667,-0.101851852,0,0,0,,,,,,,THROAT,LB,m,m,./images/THROATLB.png,,,,,,,,z,0,0.895,,,,,,,,0,56,56,36,1
,,,,,,,,,,,,,,,,,199450,18,2022-01-28_15h36.00.599,lexical_decision_task_DD_L3,2021.2.3,Win32,60.0240096,,,,,,,,,,,1.101,1,,,,,,,,,,,,,,,,,,,,,,,,0.141666667,-0.101851852,0,0,0,,,,,,,CASINO,C,z,m,./images/CASINO.png,,,,,,,,z,1,1.101,,,,,,,,0,57,57,112,1
,,,,,,,,,,,,,,,,,199450,18,2022-01-28_15h36.00.599,lexical_decision_task_DD_L3,2021.2.3,Win32,60.0240096,,,,,,,,,,,1.037,1,,,,,,,,,,,,,,,,,,,,,,,,0.141666667,-0.101851852,0,0,0,,,,,,,DRUMS,C,m,m,./images/DRUMS.png,,,,,,,,m,1,1.037,,,,,,,,0,58,58,49,1
,,,,,,,,,,,,,,,,,199450,18,2022-01-28_15h36.00.599,lexical_decision_task_DD_L3,2021.2.3,Win32,60.0240096,,,,,,,,,,,1.099,0,,,,,,,,,,,,,,,,,,,,,,,,0.141666667,-0.101851852,0,0,0,,,,,,,CEMENT,HB,m,m,./images/CEMENTHB.png,,,,,,,,z,0,1.099,,,,,,,,0,59,59,74,1
,,,,,,,,,,,,,,,,,199450,18,2022-01-28_15h36.00.599,lexical_decision_task_DD_L3,2021.2.3,Win32,60.0240096,,,,,,,,,,,1.575,1,,,,,,,,,,,,,,,,,,,,,,,,0.141666667,-0.101851852,0,0,0,,,,,,,BOILER,LB,z,m,./images/BOILERLB.png,,,,,,,,z,1,1.575,,,,,,,,0,60,60,120,1
,,,,,,,,,,,,,,,,,199450,18,2022-01-28_15h36.00.599,lexical_decision_task_DD_L3,2021.2.3,Win32,60.0240096,,,,,,,,,,,1.153,1,,,,,,,,,,,,,,,,,,,,,,,,0.141666667,-0.101851852,0,0,0,,,,,,,FARMER,HB,m,m,./images/FARMERHB.png,,,,,,,,m,1,1.153,,,,,,,,0,61,61,65,1
,,,,,,,,,,,,,,,,,199450,18,2022-01-28_15h36.00.599,lexical_decision_task_DD_L3,2021.2.3,Win32,60.0240096,,,,,,,,,,,1.501,0,,,,,,,,,,,,,,,,,,,,,,,,0.141666667,-0.101851852,0,0,0,,,,,,,MIRROR,LB,m,m,./images/MIRRORLB.png,,,,,,,,z,0,1.501,,,,,,,,0,62,62,63,1
,,,,,,,,,,,,,,,,,199450,18,2022-01-28_15h36.00.599,lexical_decision_task_DD_L3,2021.2.3,Win32,60.0240096,,,,,,,,,,,1.334,1,,,,,,,,,,,,,,,,,,,,,,,,0.141666667,-0.101851852,0,0,0,,,,,,,DIVER,LB,z,m,./images/DIVERLB.png,,,,,,,,z,1,1.334,,,,,,,,0,63,63,93,1
,,,,,,,,,,,,,,,,,199450,18,2022-01-28_15h36.00.599,lexical_decision_task_DD_L3,2021.2.3,Win32,60.0240096,,,,,,,,,,,0.963,0,,,,,,,,,,,,,,,,,,,,,,,,0.141666667,-0.101851852,0,0,0,,,,,,,SMOKER,HB,m,m,./images/SMOKERHB.png,,,,,,,,z,0,0.963,,,,,,,,0,64,64,26,1
,,,,,,,,,,,,,,,,,199450,18,2022-01-28_15h36.00.599,lexical_decision_task_DD_L3,2021.2.3,Win32,60.0240096,,,,,,,,,,,1.57,1,,,,,,,,,,,,,,,,,,,,,,,,0.141666667,-0.101851852,0,0,0,,,,,,,CRADLE,HB,m,m,./images/CRADLEHB.png,,,,,,,,m,1,1.57,,,,,,,,0,65,65,20,1
,,,,,,,,,,,,,,,,,199450,18,2022-01-28_15h36.00.599,lexical_decision_task_DD_L3,2021.2.3,Win32,60.0240096,,,,,,,,,,,0.737,0,,,,,,,,,,,,,,,,,,,,,,,,0.141666667,-0.101851852,0,0,0,,,,,,,INFANT,C,m,m,./images/INFANT.png,,,,,,,,z,0,0.737,,,,,,,,0,66,66,76,1
,,,,,,,,,,,,,,,,,199450,18,2022-01-28_15h36.00.599,lexical_decision_task_DD_L3,2021.2.3,Win32,60.0240096,,,,,,,,,,,0.933,0,,,,,,,,,,,,,,,,,,,,,,,,0.141666667,-0.101851852,0,0,0,,,,,,,FALCON,C,m,m,./images/FALCON.png,,,,,,,,z,0,0.933,,,,,,,,0,67,67,28,1
,,,,,,,,,,,,,,,,,199450,18,2022-01-28_15h36.00.599,lexical_decision_task_DD_L3,2021.2.3,Win32,60.0240096,,,,,,,,,,,1.039,1,,,,,,,,,,,,,,,,,,,,,,,,0.141666667,-0.101851852,0,0,0,,,,,,,RULER,C,z,m,./images/RULER.png,,,,,,,,z,1,1.039,,,,,,,,0,68,68,163,1
,,,,,,,,,,,,,,,,,199450,18,2022-01-28_15h36.00.599,lexical_decision_task_DD_L3,2021.2.3,Win32,60.0240096,,,,,,,,,,,0.768,1,,,,,,,,,,,,,,,,,,,,,,,,0.141666667,-0.101851852,0,0,0,,,,,,,MUMMY,C,z,m,./images/MUMMY.png,,,,,,,,z,1,0.768,,,,,,,,0,69,69,130,1
,,,,,,,,,,,,,,,,,199450,18,2022-01-28_15h36.00.599,lexical_decision_task_DD_L3,2021.2.3,Win32,60.0240096,,,,,,,,,,,0.654,1,,,,,,,,,,,,,,,,,,,,,,,,0.141666667,-0.101851852,0,0,0,,,,,,,BRIDE,C,z,m,./images/BRIDE.png,,,,,,,,z,1,0.654,,,,,,,,0,70,70,148,1
,,,,,,,,,,,,,,,,,199450,18,2022-01-28_15h36.00.599,lexical_decision_task_DD_L3,2021.2.3,Win32,60.0240096,,,,,,,,,,,0.739,1,,,,,,,,,,,,,,,,,,,,,,,,0.141666667,-0.101851852,0,0,0,,,,,,,GRANNY,HB,z,m,./images/GRANNYHB.png,,,,,,,,z,1,0.739,,,,,,,,0,71,71,104,1
,,,,,,,,,,,,,,,,,199450,18,2022-01-28_15h36.00.599,lexical_decision_task_DD_L3,2021.2.3,Win32,60.0240096,,,,,,,,,,,0.568,1,,,,,,,,,,,,,,,,,,,,,,,,0.141666667,-0.101851852,0,0,0,,,,,,,POSTER,HB,z,m,./images/POSTERHB.png,,,,,,,,z,1,0.568,,,,,,,,0,72,72,137,1
,,,,,,,,,,,,,,,,,199450,18,2022-01-28_15h36.00.599,lexical_decision_task_DD_L3,2021.2.3,Win32,60.0240096,,,,,,,,,,,0.586,1,,,,,,,,,,,,,,,,,,,,,,,,0.141666667,-0.101851852,0,0,0,,,,,,,HEATER,HB,z,m,./images/HEATERHB.png,,,,,,,,z,1,0.586,,,,,,,,0,73,73,140,1
,,,,,,,,,,,,,,,,,199450,18,2022-01-28_15h36.00.599,lexical_decision_task_DD_L3,2021.2.3,Win32,60.0240096,,,,,,,,,,,0.735,1,,,,,,,,,,,,,,,,,,,,,,,,0.141666667,-0.101851852,0,0,0,,,,,,,SHIELD,LB,z,m,./images/SHIELDLB.png,,,,,,,,z,1,0.735,,,,,,,,0,74,74,132,1
,,,,,,,,,,,,,,,,,199450,18,2022-01-28_15h36.00.599,lexical_decision_task_DD_L3,2021.2.3,Win32,60.0240096,,,,,,,,,,,0.721,1,,,,,,,,,,,,,,,,,,,,,,,,0.141666667,-0.101851852,0,0,0,,,,,,,BANANA,C,z,m,./images/BANANA.png,,,,,,,,z,1,0.721,,,,,,,,0,75,75,154,1
,,,,,,,,,,,,,,,,,199450,18,2022-01-28_15h36.00.599,lexical_decision_task_DD_L3,2021.2.3,Win32,60.0240096,,,,,,,,,,,0.965,1,,,,,,,,,,,,,,,,,,,,,,,,0.141666667,-0.101851852,0,0,0,,,,,,,CANDLE,C,m,m,./images/CANDLE.png,,,,,,,,m,1,0.965,,,,,,,,0,76,76,61,1
,,,,,,,,,,,,,,,,,199450,18,2022-01-28_15h36.00.599,lexical_decision_task_DD_L3,2021.2.3,Win32,60.0240096,,,,,,,,,,,0.66,1,,,,,,,,,,,,,,,,,,,,,,,,0.141666667,-0.101851852,0,0,0,,,,,,,BRUSH,HB,z,m,./images/BRUSHHB.png,,,,,,,,z,1,0.66,,,,,,,,0,77,77,143,1
,,,,,,,,,,,,,,,,,199450,18,2022-01-28_15h36.00.599,lexical_decision_task_DD_L3,2021.2.3,Win32,60.0240096,,,,,,,,,,,0.586,1,,,,,,,,,,,,,,,,,,,,,,,,0.141666667,-0.101851852,0,0,0,,,,,,,TOWEL,C,z,m,./images/TOWEL.png,,,,,,,,z,1,0.586,,,,,,,,0,78,78,85,1
,,,,,,,,,,,,,,,,,199450,18,2022-01-28_15h36.00.599,lexical_decision_task_DD_L3,2021.2.3,Win32,60.0240096,,,,,,,,,,,1.203,1,,,,,,,,,,,,,,,,,,,,,,,,0.141666667,-0.101851852,0,0,0,,,,,,,LIZARD,HB,m,m,./images/LIZARDHB.png,,,,,,,,m,1,1.203,,,,,,,,0,79,79,44,1
,,,,,,,,,,,,,,,,,199450,18,2022-01-28_15h36.00.599,lexical_decision_task_DD_L3,2021.2.3,Win32,60.0240096,,,,,,,,,,,0.802,1,,,,,,,,,,,,,,,,,,,,,,,,0.141666667,-0.101851852,0,0,0,,,,,,,SAUCE,LB,z,m,./images/SAUCELB.png,,,,,,,,z,1,0.802,,,,,,,,0,80,80,135,1
,,,,,,,,,,,,,,,,,199450,18,2022-01-28_15h36.00.599,lexical_decision_task_DD_L3,2021.2.3,Win32,60.0240096,,,,,,,,,,,0.802,1,,,,,,,,,,,,,,,,,,,,,,,,0.141666667,-0.101851852,0,0,0,,,,,,,BANNER,C,m,m,./images/BANNER.png,,,,,,,,m,1,0.802,,,,,,,,0,81,81,52,1
,,,,,,,,,,,,,,,,,199450,18,2022-01-28_15h36.00.599,lexical_decision_task_DD_L3,2021.2.3,Win32,60.0240096,,,,,,,,,,,1.105,0,,,,,,,,,,,,,,,,,,,,,,,,0.141666667,-0.101851852,0,0,0,,,,,,,KITTEN,LB,m,m,./images/KITTENLB.png,,,,,,,,z,0,1.105,,,,,,,,0,82,82,45,1
,,,,,,,,,,,,,,,,,199450,18,2022-01-28_15h36.00.599,lexical_decision_task_DD_L3,2021.2.3,Win32,60.0240096,,,,,,,,,,,1.045,0,,,,,,,,,,,,,,,,,,,,,,,,0.141666667,-0.101851852,0,0,0,space,,,,,,PEARL,C,m,m,./images/PEARL.png,1.272,,,,,,,z,0,1.045,,,,,,,,0,83,83,46,1
,,,,,,,,,,,,,,,,,199450,18,2022-01-28_15h36.00.599,lexical_decision_task_DD_L3,2021.2.3,Win32,60.0240096,,,,,,,,,,,1.072,1,,,,,,,,,,,,,,,,,,,,,,,,0.141666667,-0.101851852,0,0,0,,,,,,,FLASK,LB,z,m,./images/FLASKLB.png,,,,,,,,z,1,1.072,,,,,,,,0,84,84,156,1
,,,,,,,,,,,,,,,,,199450,18,2022-01-28_15h36.00.599,lexical_decision_task_DD_L3,2021.2.3,Win32,60.0240096,,,,,,,,,,,0.833,0,,,,,,,,,,,,,,,,,,,,,,,,0.141666667,-0.101851852,0,0,0,,,,,,,COUCH,HB,m,m,./images/COUCHHB.png,,,,,,,,z,0,0.833,,,,,,,,0,85,85,77,1
,,,,,,,,,,,,,,,,,199450,18,2022-01-28_15h36.00.599,lexical_decision_task_DD_L3,2021.2.3,Win32,60.0240096,,,,,,,,,,,1.339,0,,,,,,,,,,,,,,,,,,,,,,,,0.141666667,-0.101851852,0,0,0,,,,,,,FINGER,LB,m,m,./images/FINGERLB.png,,,,,,,,z,0,1.339,,,,,,,,0,86,86,3,1
,,,,,,,,,,,,,,,,,199450,18,2022-01-28_15h36.00.599,lexical_decision_task_DD_L3,2021.2.3,Win32,60.0240096,,,,,,,,,,,1.451,0,,,,,,,,,,,,,,,,,,,,,,,,0.141666667,-0.101851852,0,0,0,,,,,,,BABOON,C,m,m,./images/BABOON.png,,,,,,,,z,0,1.451,,,,,,,,0,87,87,58,1
,,,,,,,,,,,,,,,,,199450,18,2022-01-28_15h36.00.599,lexical_decision_task_DD_L3,2021.2.3,Win32,60.0240096,,,,,,,,,,,1.282,1,,,,,,,,,,,,,,,,,,,,,,,,0.141666667,-0.101851852,0,0,0,,,,,,,SLOPE,LB,z,m,./images/SLOPELB.png,,,,,,,,z,1,1.282,,,,,,,,0,88,88,114,1
,,,,,,,,,,,,,,,,,199450,18,2022-01-28_15h36.00.599,lexical_decision_task_DD_L3,2021.2.3,Win32,60.0240096,,,,,,,,,,,1.368,1,,,,,,,,,,,,,,,,,,,,,,,,0.141666667,-0.101851852,0,0,0,,,,,,,SPORT,LB,m,m,./images/SPORTLB.png,,,,,,,,m,1,1.368,,,,,,,,0,89,89,48,1
,,,,,,,,,,,,,,,,,199450,18,2022-01-28_15h36.00.599,lexical_decision_task_DD_L3,2021.2.3,Win32,60.0240096,,,,,,,,,,,1.176,1,,,,,,,,,,,,,,,,,,,,,,,,0.141666667,-0.101851852,0,0,0,,,,,,,SAILOR,C,m,m,./images/SAILOR.png,,,,,,,,m,1,1.176,,,,,,,,0,90,90,67,1
,,,,,,,,,,,,,,,,,199450,18,2022-01-28_15h36.00.599,lexical_decision_task_DD_L3,2021.2.3,Win32,60.0240096,,,,,,,,,,,0.953,0,,,,,,,,,,,,,,,,,,,,,,,,0.141666667,-0.101851852,0,0,0,,,,,,,BURIAL,HB,m,m,./images/BURIALHB.png,,,,,,,,z,0,0.953,,,,,,,,0,91,91,59,1
,,,,,,,,,,,,,,,,,199450,18,2022-01-28_15h36.00.599,lexical_decision_task_DD_L3,2021.2.3,Win32,60.0240096,,,,,,,,,,,0.955,1,,,,,,,,,,,,,,,,,,,,,,,,0.141666667,-0.101851852,0,0,0,,,,,,,BUNNY,C,z,m,./images/BUNNY.png,,,,,,,,z,1,0.955,,,,,,,,0,92,92,97,1
,,,,,,,,,,,,,,,,,199450,18,2022-01-28_15h36.00.599,lexical_decision_task_DD_L3,2021.2.3,Win32,60.0240096,,,,,,,,,,,1.18,1,,,,,,,,,,,,,,,,,,,,,,,,0.141666667,-0.101851852,0,0,0,,,,,,,GARDEN,C,z,m,./images/GARDEN.png,,,,,,,,z,1,1.18,,,,,,,,0,93,93,94,1
,,,,,,,,,,,,,,,,,199450,18,2022-01-28_15h36.00.599,lexical_decision_task_DD_L3,2021.2.3,Win32,60.0240096,,,,,,,,,,,0.811,1,,,,,,,,,,,,,,,,,,,,,,,,0.141666667,-0.101851852,0,0,0,,,,,,,PARCEL,LB,z,m,./images/PARCELLB.png,,,,,,,,z,1,0.811,,,,,,,,0,94,94,102,1
,,,,,,,,,,,,,,,,,199450,18,2022-01-28_15h36.00.599,lexical_decision_task_DD_L3,2021.2.3,Win32,60.0240096,,,,,,,,,,,0.643,0,,,,,,,,,,,,,,,,,,,,,,,,0.141666667,-0.101851852,0,0,0,,,,,,,LITTER,LB,m,m,./images/LITTERLB.png,,,,,,,,z,0,0.643,,,,,,,,0,95,95,78,1
,,,,,,,,,,,,,,,,,199450,18,2022-01-28_15h36.00.599,lexical_decision_task_DD_L3,2021.2.3,Win32,60.0240096,,,,,,,,,,,0.705,1,,,,,,,,,,,,,,,,,,,,,,,,0.141666667,-0.101851852,0,0,0,,,,,,,CHALK,C,z,m,./images/CHALK.png,,,,,,,,z,1,0.705,,,,,,,,0,96,96,109,1
,,,,,,,,,,,,,,,,,199450,18,2022-01-28_15h36.00.599,lexical_decision_task_DD_L3,2021.2.3,Win32,60.0240096,,,,,,,,,,,1.626,1,,,,,,,,,,,,,,,,,,,,,,,,0.141666667,-0.101851852,0,0,0,,,,,,,BEARD,HB,m,m,./images/BEARDHB.png,,,,,,,,m,1,1.626,,,,,,,,0,97,97,2,1
,,,,,,,,,,,,,,,,,199450,18,2022-01-28_15h36.00.599,lexical_decision_task_DD_L3,2021.2.3,Win32,60.0240096,,,,,,,,,,,0.866,1,,,,,,,,,,,,,,,,,,,,,,,,0.141666667,-0.101851852,0,0,0,,,,,,,DESERT,C,z,m,./images/DESERT.png,,,,,,,,z,1,0.866,,,,,,,,0,98,98,136,1
,,,,,,,,,,,,,,,,,199450,18,2022-01-28_15h36.00.599,lexical_decision_task_DD_L3,2021.2.3,Win32,60.0240096,,,,,,,,,,,1.609,1,,,,,,,,,,,,,,,,,,,,,,,,0.141666667,-0.101851852,0,0,0,,,,,,,PLANET,HB,z,m,./images/PLANETHB.png,,,,,,,,z,1,1.609,,,,,,,,0,99,99,164,1
,,,,,,,,,,,,,,,,,199450,18,2022-01-28_15h36.00.599,lexical_decision_task_DD_L3,2021.2.3,Win32,60.0240096,,,,,,,,,,,1.321,0,,,,,,,,,,,,,,,,,,,,,,,,0.141666667,-0.101851852,0,0,0,,,,,,,PACKET,HB,m,m,./images/PACKETHB.png,,,,,,,,z,0,1.321,,,,,,,,0,100,100,56,1
,,,,,,,,,,,,,,,,,199450,18,2022-01-28_15h36.00.599,lexical_decision_task_DD_L3,2021.2.3,Win32,60.0240096,,,,,,,,,,,1.77,1,,,,,,,,,,,,,,,,,,,,,,,,0.141666667,-0.101851852,0,0,0,,,,,,,QUILL,C,m,m,./images/QUILL.png,,,,,,,,m,1,1.77,,,,,,,,0,101,101,31,1
,,,,,,,,,,,,,,,,,199450,18,2022-01-28_15h36.00.599,lexical_decision_task_DD_L3,2021.2.3,Win32,60.0240096,,,,,,,,,,,1.234,1,,,,,,,,,,,,,,,,,,,,,,,,0.141666667,-0.101851852,0,0,0,,,,,,,MIDGET,C,z,m,./images/MIDGET.png,,,,,,,,z,1,1.234,,,,,,,,0,102,102,160,1
,,,,,,,,,,,,,,,,,199450,18,2022-01-28_15h36.00.599,lexical_decision_task_DD_L3,2021.2.3,Win32,60.0240096,,,,,,,,,,,2.156,0,,,,,,,,,,,,,,,,,,,,,,,,0.141666667,-0.101851852,0,0,0,,,,,,,COLLAR,LB,z,m,./images/COLLARLB.png,,,,,,,,m,0,2.156,,,,,,,,0,103,103,99,1
,,,,,,,,,,,,,,,,,199450,18,2022-01-28_15h36.00.599,lexical_decision_task_DD_L3,2021.2.3,Win32,60.0240096,,,,,,,,,,,1.285,1,,,,,,,,,,,,,,,,,,,,,,,,0.141666667,-0.101851852,0,0,0,,,,,,,STORM,LB,m,m,./images/STORMLB.png,,,,,,,,m,1,1.285,,,,,,,,0,104,104,30,1
,,,,,,,,,,,,,,,,,199450,18,2022-01-28_15h36.00.599,lexical_decision_task_DD_L3,2021.2.3,Win32,60.0240096,,,,,,,,,,,0.874,1,,,,,,,,,,,,,,,,,,,,,,,,0.141666667,-0.101851852,0,0,0,,,,,,,STOOL,C,z,m,./images/STOOL.png,,,,,,,,z,1,0.874,,,,,,,,0,105,105,127,1
,,,,,,,,,,,,,,,,,199450,18,2022-01-28_15h36.00.599,lexical_decision_task_DD_L3,2021.2.3,Win32,60.0240096,,,,,,,,,,,0.805,1,,,,,,,,,,,,,,,,,,,,,,,,0.141666667,-0.101851852,0,0,0,,,,,,,SPINE,HB,z,m,./images/SPINEHB.png,,,,,,,,z,1,0.805,,,,,,,,0,106,106,149,1
,,,,,,,,,,,,,,,,,199450,18,2022-01-28_15h36.00.599,lexical_decision_task_DD_L3,2021.2.3,Win32,60.0240096,,,,,,,,,,,0.931,1,,,,,,,,,,,,,,,,,,,,,,,,0.141666667,-0.101851852,0,0,0,,,,,,,GRAIN,LB,m,m,./images/GRAINLB.png,,,,,,,,m,1,0.931,,,,,,,,0,107,107,75,1
,,,,,,,,,,,,,,,,,199450,18,2022-01-28_15h36.00.599,lexical_decision_task_DD_L3,2021.2.3,Win32,60.0240096,,,,,,,,,,,0.744,1,,,,,,,,,,,,,,,,,,,,,,,,0.141666667,-0.101851852,0,0,0,,,,,,,DONKEY,C,z,m,./images/DONKEY.png,,,,,,,,z,1,0.744,,,,,,,,0,108,108,103,1
,,,,,,,,,,,,,,,,,199450,18,2022-01-28_15h36.00.599,lexical_decision_task_DD_L3,2021.2.3,Win32,60.0240096,,,,,,,,,,,1.474,0,,,,,,,,,,,,,,,,,,,,,,,,0.141666667,-0.101851852,0,0,0,,,,,,,CLIFF,HB,z,m,./images/CLIFFHB.png,,,,,,,,m,0,1.474,,,,,,,,0,109,109,92,1
,,,,,,,,,,,,,,,,,199450,18,2022-01-28_15h36.00.599,lexical_decision_task_DD_L3,2021.2.3,Win32,60.0240096,,,,,,,,,,,1.284,0,,,,,,,,,,,,,,,,,,,,,,,,0.141666667,-0.101851852,0,0,0,,,,,,,SCREW,LB,m,m,./images/SCREWLB.png,,,,,,,,z,0,1.284,,,,,,,,0,110,110,24,1
,,,,,,,,,,,,,,,,,199450,18,2022-01-28_15h36.00.599,lexical_decision_task_DD_L3,2021.2.3,Win32,60.0240096,,,,,,,,,,,1.029,0,,,,,,,,,,,,,,,,,,,,,,,,0.141666667,-0.101851852,0,0,0,,,,,,,DOUGH,C,m,m,./images/DOUGH.png,,,,,,,,z,0,1.029,,,,,,,,0,111,111,19,1
,,,,,,,,,,,,,,,,,199450,18,2022-01-28_15h36.00.599,lexical_decision_task_DD_L3,2021.2.3,Win32,60.0240096,,,,,,,,,,,1.204,1,,,,,,,,,,,,,,,,,,,,,,,,0.141666667,-0.101851852,0,0,0,,,,,,,PLANK,C,m,m,./images/PLANK.png,,,,,,,,m,1,1.204,,,,,,,,0,112,112,1,1
,,,,,,,,,,,,,,,,,199450,18,2022-01-28_15h36.00.599,lexical_decision_task_DD_L3,2021.2.3,Win32,60.0240096,,,,,,,,,,,0.842,1,,,,,,,,,,,,,,,,,,,,,,,,0.141666667,-0.101851852,0,0,0,,,,,,,NOOSE,LB,m,m,./images/NOOSELB.png,,,,,,,,m,1,0.842,,,,,,,,0,113,113,72,1
,,,,,,,,,,,,,,,,,199450,18,2022-01-28_15h36.00.599,lexical_decision_task_DD_L3,2021.2.3,Win32,60.0240096,,,,,,,,,,,1.067,1,,,,,,,,,,,,,,,,,,,,,,,,0.141666667,-0.101851852,0,0,0,,,,,,,CANOE,C,z,m,./images/CANOE.png,,,,,,,,z,1,1.067,,,,,,,,0,114,114,142,1
,,,,,,,,,,,,,,,,,199450,18,2022-01-28_15h36.00.599,lexical_decision_task_DD_L3,2021.2.3,Win32,60.0240096,,,,,,,,,,,1.078,1,,,,,,,,,,,,,,,,,,,,,,,,0.141666667,-0.101851852,0,0,0,,,,,,,SAUNA,LB,z,m,./images/SAUNALB.png,,,,,,,,z,1,1.078,,,,,,,,0,115,115,117,1
,,,,,,,,,,,,,,,,,199450,18,2022-01-28_15h36.00.599,lexical_decision_task_DD_L3,2021.2.3,Win32,60.0240096,,,,,,,,,,,0.898,0,,,,,,,,,,,,,,,,,,,,,,,,0.141666667,-0.101851852,0,0,0,,,,,,,MALLET,HB,m,m,./images/MALLETHB.png,,,,,,,,z,0,0.898,,,,,,,,0,116,116,50,1
,,,,,,,,,,,,,,,,,199450,18,2022-01-28_15h36.00.599,lexical_decision_task_DD_L3,2021.2.3,Win32,60.0240096,,,,,,,,,,,0.823,1,,,,,,,,,,,,,,,,,,,,,,,,0.141666667,-0.101851852,0,0,0,,,,,,,URINE,C,m,m,./images/URINE.png,,,,,,,,m,1,0.823,,,,,,,,0,117,117,70,1
,,,,,,,,,,,,,,,,,199450,18,2022-01-28_15h36.00.599,lexical_decision_task_DD_L3,2021.2.3,Win32,60.0240096,,,,,,,,,,,2.157,0,,,,,,,,,,,,,,,,,,,,,,,,0.141666667,-0.101851852,0,0,0,,,,,,,STOVE,HB,z,m,./images/STOVEHB.png,,,,,,,,m,0,2.157,,,,,,,,0,118,118,86,1
,,,,,,,,,,,,,,,,,199450,18,2022-01-28_15h36.00.599,lexical_decision_task_DD_L3,2021.2.3,Win32,60.0240096,,,,,,,,,,,1.143,0,,,,,,,,,,,,,,,,,,,,,,,,0.141666667,-0.101851852,0,0,0,,,,,,,MELON,C,m,m,./images/MELON.png,,,,,,,,z,0,1.143,,,,,,,,0,119,119,22,1
,,,,,,,,,,,,,,,,,199450,18,2022-01-28_15h36.00.599,lexical_decision_task_DD_L3,2021.2.3,Win32,60.0240096,,,,,,,,,,,1.241,0,,,,,,,,,,,,,,,,,,,,,,,,0.141666667,-0.101851852,0,0,0,,,,,,,FOLDER,LB,m,m,./images/FOLDERLB.png,,,,,,,,z,0,1.241,,,,,,,,0,120,120,42,1
,,,,,,,,,,,,,,,,,199450,18,2022-01-28_15h36.00.599,lexical_decision_task_DD_L3,2021.2.3,Win32,60.0240096,,,,,,,,,,,0.823,1,,,,,,,,,,,,,,,,,,,,,,,,0.141666667,-0.101851852,0,0,0,,,,,,,FERRY,LB,z,m,./images/FERRYLB.png,,,,,,,,z,1,0.823,,,,,,,,0,121,121,141,1
,,,,,,,,,,,,,,,,,199450,18,2022-01-28_15h36.00.599,lexical_decision_task_DD_L3,2021.2.3,Win32,60.0240096,,,,,,,,,,,0.984,1,,,,,,,,,,,,,,,,,,,,,,,,0.141666667,-0.101851852,0,0,0,,,,,,,MONKEY,LB,z,m,./images/MONKEYLB.png,,,,,,,,z,1,0.984,,,,,,,,0,122,122,129,1
,,,,,,,,,,,,,,,,,199450,18,2022-01-28_15h36.00.599,lexical_decision_task_DD_L3,2021.2.3,Win32,60.0240096,,,,,,,,,,,1.254,1,,,,,,,,,,,,,,,,,,,,,,,,0.141666667,-0.101851852,0,0,0,,,,,,,MOOSE,LB,m,m,./images/MOOSELB.png,,,,,,,,m,1,1.254,,,,,,,,0,123,123,57,1
,,,,,,,,,,,,,,,,,199450,18,2022-01-28_15h36.00.599,lexical_decision_task_DD_L3,2021.2.3,Win32,60.0240096,,,,,,,,,,,0.844,1,,,,,,,,,,,,,,,,,,,,,,,,0.141666667,-0.101851852,0,0,0,,,,,,,TIGER,C,z,m,./images/TIGER.png,,,,,,,,z,1,0.844,,,,,,,,0,124,124,121,1
,,,,,,,,,,,,,,,,,199450,18,2022-01-28_15h36.00.599,lexical_decision_task_DD_L3,2021.2.3,Win32,60.0240096,,,,,,,,,,,1.058,1,,,,,,,,,,,,,,,,,,,,,,,,0.141666667,-0.101851852,0,0,0,space,,,,,,BUBBLE,HB,z,m,./images/BUBBLEHB.png,1.142,,,,,,,z,1,1.058,,,,,,,,0,125,125,155,1
,,,,,,,,,,,,,,,,,199450,18,2022-01-28_15h36.00.599,lexical_decision_task_DD_L3,2021.2.3,Win32,60.0240096,,,,,,,,,,,0.75,1,,,,,,,,,,,,,,,,,,,,,,,,0.141666667,-0.101851852,0,0,0,,,,,,,CLOTH,HB,z,m,./images/CLOTHHB.png,,,,,,,,z,1,0.75,,,,,,,,0,126,126,107,1
,,,,,,,,,,,,,,,,,199450,18,2022-01-28_15h36.00.599,lexical_decision_task_DD_L3,2021.2.3,Win32,60.0240096,,,,,,,,,,,0.636,1,,,,,,,,,,,,,,,,,,,,,,,,0.141666667,-0.101851852,0,0,0,,,,,,,BLOKE,LB,z,m,./images/BLOKELB.png,,,,,,,,z,1,0.636,,,,,,,,0,127,127,96,1
,,,,,,,,,,,,,,,,,199450,18,2022-01-28_15h36.00.599,lexical_decision_task_DD_L3,2021.2.3,Win32,60.0240096,,,,,,,,,,,0.672,1,,,,,,,,,,,,,,,,,,,,,,,,0.141666667,-0.101851852,0,0,0,,,,,,,ALLEY,C,z,m,./images/ALLEY.png,,,,,,,,z,1,0.672,,,,,,,,0,128,128,139,1
,,,,,,,,,,,,,,,,,199450,18,2022-01-28_15h36.00.599,lexical_decision_task_DD_L3,2021.2.3,Win32,60.0240096,,,,,,,,,,,0.991,1,,,,,,,,,,,,,,,,,,,,,,,,0.141666667,-0.101851852,0,0,0,,,,,,,POKER,C,z,m,./images/POKER.png,,,,,,,,z,1,0.991,,,,,,,,0,129,129,151,1
,,,,,,,,,,,,,,,,,199450,18,2022-01-28_15h36.00.599,lexical_decision_task_DD_L3,2021.2.3,Win32,60.0240096,,,,,,,,,,,1.272,0,,,,,,,,,,,,,,,,,,,,,,,,0.141666667,-0.101851852,0,0,0,,,,,,,PICKLE,HB,m,m,./images/PICKLEHB.png,,,,,,,,z,0,1.272,,,,,,,,0,130,130,14,1
,,,,,,,,,,,,,,,,,199450,18,2022-01-28_15h36.00.599,lexical_decision_task_DD_L3,2021.2.3,Win32,60.0240096,,,,,,,,,,,1.019,0,,,,,,,,,,,,,,,,,,,,,,,,0.141666667,-0.101851852,0,0,0,,,,,,,ATTIC,LB,m,m,./images/ATTICLB.png,,,,,,,,z,0,1.019,,,,,,,,0,131,131,27,1
,,,,,,,,,,,,,,,,,199450,18,2022-01-28_15h36.00.599,lexical_decision_task_DD_L3,2021.2.3,Win32,60.0240096,,,,,,,,,,,0.917,1,,,,,,,,,,,,,,,,,,,,,,,,0.141666667,-0.101851852,0,0,0,,,,,,,CRUST,C,m,m,./images/CRUST.png,,,,,,,,m,1,0.917,,,,,,,,0,132,132,79,1
,,,,,,,,,,,,,,,,,199450,18,2022-01-28_15h36.00.599,lexical_decision_task_DD_L3,2021.2.3,Win32,60.0240096,,,,,,,,,,,0.941,1,,,,,,,,,,,,,,,,,,,,,,,,0.141666667,-0.101851852,0,0,0,,,,,,,MEDAL,HB,z,m,./images/MEDALHB.png,,,,,,,,z,1,0.941,,,,,,,,0,133,133,95,1
,,,,,,,,,,,,,,,,,199450,18,2022-01-28_15h36.00.599,lexical_decision_task_DD_L3,2021.2.3,Win32,60.0240096,,,,,,,,,,,1.433,1,,,,,,,,,,,,,,,,,,,,,,,,0.141666667,-0.101851852,0,0,0,,,,,,,BAMBOO,HB,z,m,./images/BAMBOOHB.png,,,,,,,,z,1,1.433,,,,,,,,0,134,134,89,1
,,,,,,,,,,,,,,,,,199450,18,2022-01-28_15h36.00.599,lexical_decision_task_DD_L3,2021.2.3,Win32,60.0240096,,,,,,,,,,,1.158,1,,,,,,,,,,,,,,,,,,,,,,,,0.141666667,-0.101851852,0,0,0,,,,,,,SKIING,HB,m,m,./images/SKIINGHB.png,,,,,,,,m,1,1.158,,,,,,,,0,135,135,17,1
,,,,,,,,,,,,,,,,,199450,18,2022-01-28_15h36.00.599,lexical_decision_task_DD_L3,2021.2.3,Win32,60.0240096,,,,,,,,,,,2.199,0,,,,,,,,,,,,,,,,,,,,,,,,0.141666667,-0.101851852,0,0,0,,,,,,,BIRTH,C,m,m,./images/BIRTH.png,,,,,,,,z,0,2.199,,,,,,,,0,136,136,37,1
,,,,,,,,,,,,,,,,,199450,18,2022-01-28_15h36.00.599,lexical_decision_task_DD_L3,2021.2.3,Win32,60.0240096,,,,,,,,,,,2.634,1,,,,,,,,,,,,,,,,,,,,,,,,0.141666667,-0.101851852,0,0,0,,,,,,,WALRUS,HB,m,m,./images/WALRUSHB.png,,,,,,,,m,1,2.634,,,,,,,,0,137,137,23,1
,,,,,,,,,,,,,,,,,199450,18,2022-01-28_15h36.00.599,lexical_decision_task_DD_L3,2021.2.3,Win32,60.0240096,,,,,,,,,,,1.467,0,,,,,,,,,,,,,,,,,,,,,,,,0.141666667,-0.101851852,0,0,0,,,,,,,SNACK,C,m,m,./images/SNACK.png,,,,,,,,z,0,1.467,,,,,,,,0,138,138,73,1
,,,,,,,,,,,,,,,,,199450,18,2022-01-28_15h36.00.599,lexical_decision_task_DD_L3,2021.2.3,Win32,60.0240096,,,,,,,,,,,1.907,1,,,,,,,,,,,,,,,,,,,,,,,,0.141666667,-0.101851852,0,0,0,,,,,,,DANCER,LB,z,m,./images/DANCERLB.png,,,,,,,,z,1,1.907,,,,,,,,0,139,139,105,1
,,,,,,,,,,,,,,,,,199450,18,2022-01-28_15h36.00.599,lexical_decision_task_DD_L3,2021.2.3,Win32,60.0240096,,,,,,,,,,,1.515,1,,,,,,,,,,,,,,,,,,,,,,,,0.141666667,-0.101851852,0,0,0,,,,,,,WHISKY,HB,z,m,./images/WHISKYHB.png,,,,,,,,z,1,1.515,,,,,,,,0,140,140,167,1
,,,,,,,,,,,,,,,,,199450,18,2022-01-28_15h36.00.599,lexical_decision_task_DD_L3,2021.2.3,Win32,60.0240096,,,,,,,,,,,0.89,0,,,,,,,,,,,,,,,,,,,,,,,,0.141666667,-0.101851852,0,0,0,,,,,,,SQUARE,LB,m,m,./images/SQUARELB.png,,,,,,,,z,0,0.89,,,,,,,,0,141,141,6,1
,,,,,,,,,,,,,,,,,199450,18,2022-01-28_15h36.00.599,lexical_decision_task_DD_L3,2021.2.3,Win32,60.0240096,,,,,,,,,,,1.134,0,,,,,,,,,,,,,,,,,,,,,,,,0.141666667,-0.101851852,0,0,0,,,,,,,RHINO,LB,m,m,./images/RHINOLB.png,,,,,,,,z,0,1.134,,,,,,,,0,142,142,9,1
,,,,,,,,,,,,,,,,,199450,18,2022-01-28_15h36.00.599,lexical_decision_task_DD_L3,2021.2.3,Win32,60.0240096,,,,,,,,,,,0.968,1,,,,,,,,,,,,,,,,,,,,,,,,0.141666667,-0.101851852,0,0,0,,,,,,,BERRY,HB,m,m,./images/BERRYHB.png,,,,,,,,m,1,0.968,,,,,,,,0,143,143,47,1
,,,,,,,,,,,,,,,,,199450,18,2022-01-28_15h36.00.599,lexical_decision_task_DD_L3,2021.2.3,Win32,60.0240096,,,,,,,,,,,1.017,0,,,,,,,,,,,,,,,,,,,,,,,,0.141666667,-0.101851852,0,0,0,,,,,,,PARADE,HB,z,m,./images/PARADEHB.png,,,,,,,,m,0,1.017,,,,,,,,0,144,144,101,1
,,,,,,,,,,,,,,,,,199450,18,2022-01-28_15h36.00.599,lexical_decision_task_DD_L3,2021.2.3,Win32,60.0240096,,,,,,,,,,,0.85,1,,,,,,,,,,,,,,,,,,,,,,,,0.141666667,-0.101851852,0,0,0,,,,,,,FLESH,LB,z,m,./images/FLESHLB.png,,,,,,,,z,1,0.85,,,,,,,,0,145,145,108,1
,,,,,,,,,,,,,,,,,199450,18,2022-01-28_15h36.00.599,lexical_decision_task_DD_L3,2021.2.3,Win32,60.0240096,,,,,,,,,,,1.106,1,,,,,,,,,,,,,,,,,,,,,,,,0.141666667,-0.101851852,0,0,0,,,,,,,FENCE,HB,z,m,./images/FENCEHB.png,,,,,,,,z,1,1.106,,,,,,,,0,146,146,98,1
,,,,,,,,,,,,,,,,,199450,18,2022-01-28_15h36.00.599,lexical_decision_task_DD_L3,2021.2.3,Win32,60.0240096,,,,,,,,,,,0.917,1,,,,,,,,,,,,,,,,,,,,,,,,0.141666667,-0.101851852,0,0,0,,,,,,,HAMMER,LB,z,m,./images/HAMMERLB.png,,,,,,,,z,1,0.917,,,,,,,,0,147,147,159,1
,,,,,,,,,,,,,,,,,199450,18,2022-01-28_15h36.00.599,lexical_decision_task_DD_L3,2021.2.3,Win32,60.0240096,,,,,,,,,,,0.861,1,,,,,,,,,,,,,,,,,,,,,,,,0.141666667,-0.101851852,0,0,0,,,,,,,JUMPER,HB,z,m,./images/JUMPERHB.png,,,,,,,,z,1,0.861,,,,,,,,0,148,148,158,1
,,,,,,,,,,,,,,,,,199450,18,2022-01-28_15h36.00.599,lexical_decision_task_DD_L3,2021.2.3,Win32,60.0240096,,,,,,,,,,,0.874,1,,,,,,,,,,,,,,,,,,,,,,,,0.141666667,-0.101851852,0,0,0,,,,,,,BELLY,C,m,m,./images/BELLY.png,,,,,,,,m,1,0.874,,,,,,,,0,149,149,10,1
,,,,,,,,,,,,,,,,,199450,18,2022-01-28_15h36.00.599,lexical_decision_task_DD_L3,2021.2.3,Win32,60.0240096,,,,,,,,,,,0.927,1,,,,,,,,,,,,,,,,,,,,,,,,0.141666667,-0.101851852,0,0,0,,,,,,,BAKER,LB,z,m,./images/BAKERLB.png,,,,,,,,z,1,0.927,,,,,,,,0,150,150,147,1
,,,,,,,,,,,,,,,,,199450,18,2022-01-28_15h36.00.599,lexical_decision_task_DD_L3,2021.2.3,Win32,60.0240096,,,,,,,,,,,0.834,1,,,,,,,,,,,,,,,,,,,,,,,,0.141666667,-0.101851852,0,0,0,,,,,,,BROOM,LB,z,m,./images/BROOMLB.png,,,,,,,,z,1,0.834,,,,,,,,0,151,151,162,1
,,,,,,,,,,,,,,,,,199450,18,2022-01-28_15h36.00.599,lexical_decision_task_DD_L3,2021.2.3,Win32,60.0240096,,,,,,,,,,,0.701,1,,,,,,,,,,,,,,,,,,,,,,,,0.141666667,-0.101851852,0,0,0,,,,,,,CHAIN,LB,z,m,./images/CHAINLB.png,,,,,,,,z,1,0.701,,,,,,,,0,152,152,126,1
,,,,,,,,,,,,,,,,,199450,18,2022-01-28_15h36.00.599,lexical_decision_task_DD_L3,2021.2.3,Win32,60.0240096,,,,,,,,,,,0.996,1,,,,,,,,,,,,,,,,,,,,,,,,0.141666667,-0.101851852,0,0,0,,,,,,,STAIN,LB,z,m,./images/STAINLB.png,,,,,,,,z,1,0.996,,,,,,,,0,153,153,90,1
,,,,,,,,,,,,,,,,,199450,18,2022-01-28_15h36.00.599,lexical_decision_task_DD_L3,2021.2.3,Win32,60.0240096,,,,,,,,,,,1.251,0,,,,,,,,,,,,,,,,,,,,,,,,0.141666667,-0.101851852,0,0,0,,,,,,,STRING,HB,m,m,./images/STRINGHB.png,,,,,,,,z,0,1.251,,,,,,,,0,154,154,41,1
,,,,,,,,,,,,,,,,,199450,18,2022-01-28_15h36.00.599,lexical_decision_task_DD_L3,2021.2.3,Win32,60.0240096,,,,,,,,,,,0.825,1,,,,,,,,,,,,,,,,,,,,,,,,0.141666667,-0.101851852,0,0,0,,,,,,,MUSCLE,C,m,m,./images/MUSCLE.png,,,,,,,,m,1,0.825,,,,,,,,0,155,155,4,1
,,,,,,,,,,,,,,,,,199450,18,2022-01-28_15h36.00.599,lexical_decision_task_DD_L3,2021.2.3,Win32,60.0240096,,,,,,,,,,,0.817,1,,,,,,,,,,,,,,,,,,,,,,,,0.141666667,-0.101851852,0,0,0,,,,,,,GREASE,LB,m,m,./images/GREASELB.png,,,,,,,,m,1,0.817,,,,,,,,0,156,156,15,1
,,,,,,,,,,,,,,,,,199450,18,2022-01-28_15h36.00.599,lexical_decision_task_DD_L3,2021.2.3,Win32,60.0240096,,,,,,,,,,,0.719,1,,,,,,,,,,,,,,,,,,,,,,,,0.141666667,-0.101851852,0,0,0,,,,,,,MOSQUE,C,m,m,./images/MOSQUE.png,,,,,,,,m,1,0.719,,,,,,,,0,157,157,43,1
,,,,,,,,,,,,,,,,,199450,18,2022-01-28_15h36.00.599,lexical_decision_task_DD_L3,2021.2.3,Win32,60.0240096,,,,,,,,,,,1.168,1,,,,,,,,,,,,,,,,,,,,,,,,0.141666667,-0.101851852,0,0,0,,,,,,,MAGGOT,LB,m,m,./images/MAGGOTLB.png,,,,,,,,m,1,1.168,,,,,,,,0,158,158,33,1
,,,,,,,,,,,,,,,,,199450,18,2022-01-28_15h36.00.599,lexical_decision_task_DD_L3,2021.2.3,Win32,60.0240096,,,,,,,,,,,1.151,1,,,,,,,,,,,,,,,,,,,,,,,,0.141666667,-0.101851852,0,0,0,,,,,,,WHEEL,HB,z,m,./images/WHEELHB.png,,,,,,,,z,1,1.151,,,,,,,,0,159,159,161,1
,,,,,,,,,,,,,,,,,199450,18,2022-01-28_15h36.00.599,lexical_decision_task_DD_L3,2021.2.3,Win32,60.0240096,,,,,,,,,,,1.949,0,,,,,,,,,,,,,,,,,,,,,,,,0.141666667,-0.101851852,0,0,0,,,,,,,ONION,LB,m,m,./images/ONIONLB.png,,,,,,,,z,0,1.949,,,,,,,,0,160,160,51,1
,,,,,,,,,,,,,,,,,199450,18,2022-01-28_15h36.00.599,lexical_decision_task_DD_L3,2021.2.3,Win32,60.0240096,,,,,,,,,,,0.734,1,,,,,,,,,,,,,,,,,,,,,,,,0.141666667,-0.101851852,0,0,0,,,,,,,MAMMAL,HB,z,m,./images/MAMMALHB.png,,,,,,,,z,1,0.734,,,,,,,,0,161,161,146,1
,,,,,,,,,,,,,,,,,199450,18,2022-01-28_15h36.00.599,lexical_decision_task_DD_L3,2021.2.3,Win32,60.0240096,,,,,,,,,,,0.967,1,,,,,,,,,,,,,,,,,,,,,,,,0.141666667,-0.101851852,0,0,0,,,,,,,BUTTER,LB,z,m,./images/BUTTERLB.png,,,,,,,,z,1,0.967,,,,,,,,0,162,162,111,1
,,,,,,,,,,,,,,,,,199450,18,2022-01-28_15h36.00.599,lexical_decision_task_DD_L3,2021.2.3,Win32,60.0240096,,,,,,,,,,,0.665,1,,,,,,,,,,,,,,,,,,,,,,,,0.141666667,-0.101851852,0,0,0,,,,,,,GRAPE,C,z,m,./images/GRAPE.png,,,,,,,,z,1,0.665,,,,,,,,0,163,163,100,1
,,,,,,,,,,,,,,,,,199450,18,2022-01-28_15h36.00.599,lexical_decision_task_DD_L3,2021.2.3,Win32,60.0240096,,,,,,,,,,,0.984,1,,,,,,,,,,,,,,,,,,,,,,,,0.141666667,-0.101851852,0,0,0,,,,,,,VALLEY,HB,z,m,./images/VALLEYHB.png,,,,,,,,z,1,0.984,,,,,,,,0,164,164,152,1
,,,,,,,,,,,,,,,,,199450,18,2022-01-28_15h36.00.599,lexical_decision_task_DD_L3,2021.2.3,Win32,60.0240096,,,,,,,,,,,0.691,1,,,,,,,,,,,,,,,,,,,,,,,,0.141666667,-0.101851852,0,0,0,,,,,,,CHERRY,LB,z,m,./images/CHERRYLB.png,,,,,,,,z,1,0.691,,,,,,,,0,165,165,138,1
,,,,,,,,,,,,,,,,,199450,18,2022-01-28_15h36.00.599,lexical_decision_task_DD_L3,2021.2.3,Win32,60.0240096,,,,,,,,,,,0.771,1,,,,,,,,,,,,,,,,,,,,,,,,0.141666667,-0.101851852,0,0,0,,,,,,,STATUE,LB,z,m,./images/STATUELB.png,,,,,,,,z,1,0.771,,,,,,,,0,166,166,150,1
,,,,,,,,,,,,,,,,,199450,18,2022-01-28_15h36.00.599,lexical_decision_task_DD_L3,2021.2.3,Win32,60.0240096,,,,,,,,,,,1.091,1,,,,,,,,,,,,,,,,,,,,,,,,0.141666667,-0.101851852,0,0,0,,,,,,,GLOVE,C,z,m,./images/GLOVE.png,,,,,,,,z,1,1.091,,,,,,,,0,167,167,157,1
