key_resp.keys,key_resp.rt,instr_done_touch.x,instr_done_touch.y,instr_done_touch.leftButton,instr_done_touch.midButton,instr_done_touch.rightButton,instruction_pages.thisRepN,instruction_pages.thisTrialN,instruction_pages.thisN,instruction_pages.thisIndex,instruction_pages.ran,pageN,phase,instruct_text,has_image,instruct_image,participant,age,date,expName,psychopyVersion,OS,frameRate,instr_done_touch.clicked_name,response.keys,response.corr,response.rt,touch_resp.x,touch_resp.y,touch_resp.leftButton,touch_resp.midButton,touch_resp.rightButton,touch_resp.time,touch_resp.clicked_name,rt,corr,practrials.thisRepN,practrials.thisTrialN,practrials.thisN,practrials.thisIndex,practrials.ran,TrialID,Target,corrAns,end_of_practice_trials_pages.thisRepN,end_of_practice_trials_pages.thisTrialN,end_of_practice_trials_pages.thisN,end_of_practice_trials_pages.thisIndex,end_of_practice_trials_pages.ran,key_resp_2.keys,key_resp_2.corr,key_resp_2.rt,targ_click.x,targ_click.y,targ_click.leftButton,targ_click.midButton,targ_click.rightButton,targ_click.time,targ_click.clicked_name,break_done_touch.x,break_done_touch.y,break_done_touch.leftButton,break_done_touch.midButton,break_done_touch.rightButton,break_done_keyboard.keys,maintrials.thisRepN,maintrials.thisTrialN,maintrials.thisN,maintrials.thisIndex,maintrials.ran,string,blur,study,lex,stim_path,break_done_touch.clicked_name,test_instructions.thisRepN,test_instructions.thisTrialN,test_instructions.thisN,test_instructions.thisIndex,test_instructions.ran,key_resp_3.keys,key_resp_3.corr,key_resp_3.rt,test_click.x,test_click.y,test_click.leftButton,test_click.midButton,test_click.rightButton,test_click.time,test_click.clicked_name,test_phase.thisRepN,test_phase.thisTrialN,test_phase.thisN,test_phase.thisIndex,test_phase.ran,break_done_keyboard.rt
space,30.8049,0.224856771,-0.196115451,0,0,0,0,0,0,0,1,1,instructions,"INSTRUCTIONS
At the start of each trial, look at the plus sign  (+) in the center of the screen.  This tells you that a trial is about to begin and where to look. Second, the plus sign will disappear and a string of letters will appear. Your task is to determine if the string of letters is a word or not. If the item is a word press the M key (on keyboard)  or touch the word button (phone/tablet).  If the item is not a word,  press the  Z key (on keyboard)  or touch the nonword button (on phone/tablet). 
Press the space bar or touch  continue.",0,,199402,19,2022-01-29_13h25.21.216,lexical_decision_task_DD,2021.2.3,MacIntel,59.99880002,,,,,,,,,,,,,,,,,,,,,,,,,,,,,,,,,,,,,,,,,,,,,,,,,,,,,,,,,,,,,,,,,,,,,,,,,,
space,6.6285,0.224856771,-0.196115451,0,0,0,0,1,1,1,1,2,instructions,"If your device has a keyboard, press the 'Z' key for nonwords and the 'M' key for words.





Press the space bar or touch the button below to continue.",0,keyboard-example.gif,199402,19,2022-01-29_13h25.21.216,lexical_decision_task_DD,2021.2.3,MacIntel,59.99880002,,,,,,,,,,,,,,,,,,,,,,,,,,,,,,,,,,,,,,,,,,,,,,,,,,,,,,,,,,,,,,,,,,,,,,,,,,
,,0.065516493,-0.411475694,1,0,0,0,2,2,2,1,3,instructions,"If you are using a touchscreen only device, use the buttons on the screen. Do not use the mouse.





Press the space bar or touch the button below to continue.",0,touchscreen-example.gif,199402,19,2022-01-29_13h25.21.216,lexical_decision_task_DD,2021.2.3,MacIntel,59.99880002,instr_done_button,,,,,,,,,,,,,,,,,,,,,,,,,,,,,,,,,,,,,,,,,,,,,,,,,,,,,,,,,,,,,,,,,,,,,,,,,
space,10.8365,0.122078993,-0.287682292,0,0,0,0,3,3,3,1,4,instructions,"It is very important that you respond as quickly and accurately as possible, as each letter string will only be on the screen for two seconds. If you do not respond within this time, the message 'Too slow!' will be displayed and the experiment will progress to the next letter string. The first 20 trials will be practice trials and you will receive feedback on your answers. 

Press the space bar or touch the button below to start the practice trials.",0,,199402,19,2022-01-29_13h25.21.216,lexical_decision_task_DD,2021.2.3,MacIntel,59.99880002,,,,,,,,,,,,,,,,,,,,,,,,,,,,,,,,,,,,,,,,,,,,,,,,,,,,,,,,,,,,,,,,,,,,,,,,,,
,,,,,,,,,,,,,,,,,199402,19,2022-01-29_13h25.21.216,lexical_decision_task_DD,2021.2.3,MacIntel,59.99880002,,z,1,1.9779,,,,,,,,1.9779,1,0,0,0,13,1,1001,ROUPET,z,,,,,,,,,,,,,,,,,,,,,,,,,,,,,,,,,,,,,,,,,,,,,,,,,,,,,
,,,,,,,,,,,,,,,,,199402,19,2022-01-29_13h25.21.216,lexical_decision_task_DD,2021.2.3,MacIntel,59.99880002,,m,0,1.989,,,,,,,,1.989,0,0,1,1,15,1,1001,WHAISE,z,,,,,,,,,,,,,,,,,,,,,,,,,,,,,,,,,,,,,,,,,,,,,,,,,,,,,
,,,,,,,,,,,,,,,,,199402,19,2022-01-29_13h25.21.216,lexical_decision_task_DD,2021.2.3,MacIntel,59.99880002,,z,1,1.3927,,,,,,,,1.3927,1,0,2,2,8,1,1001,ASLERT,z,,,,,,,,,,,,,,,,,,,,,,,,,,,,,,,,,,,,,,,,,,,,,,,,,,,,,
,,,,,,,,,,,,,,,,,199402,19,2022-01-29_13h25.21.216,lexical_decision_task_DD,2021.2.3,MacIntel,59.99880002,,m,1,0.7605,,,,,,,,0.7605,1,0,3,3,2,1,1001,ALMOND,m,,,,,,,,,,,,,,,,,,,,,,,,,,,,,,,,,,,,,,,,,,,,,,,,,,,,,
,,,,,,,,,,,,,,,,,199402,19,2022-01-29_13h25.21.216,lexical_decision_task_DD,2021.2.3,MacIntel,59.99880002,,z,1,0.8827,,,,,,,,0.8827,1,0,4,4,12,1,1001,SPRINY,z,,,,,,,,,,,,,,,,,,,,,,,,,,,,,,,,,,,,,,,,,,,,,,,,,,,,,
,,,,,,,,,,,,,,,,,199402,19,2022-01-29_13h25.21.216,lexical_decision_task_DD,2021.2.3,MacIntel,59.99880002,,z,1,0.9133,,,,,,,,0.9133,1,0,5,5,10,1,1001,INLADE,z,,,,,,,,,,,,,,,,,,,,,,,,,,,,,,,,,,,,,,,,,,,,,,,,,,,,,
,,,,,,,,,,,,,,,,,199402,19,2022-01-29_13h25.21.216,lexical_decision_task_DD,2021.2.3,MacIntel,59.99880002,,z,1,0.7362,,,,,,,,0.7362,1,0,6,6,11,1,1001,RASHET,z,,,,,,,,,,,,,,,,,,,,,,,,,,,,,,,,,,,,,,,,,,,,,,,,,,,,,
,,,,,,,,,,,,,,,,,199402,19,2022-01-29_13h25.21.216,lexical_decision_task_DD,2021.2.3,MacIntel,59.99880002,,z,1,0.7403,,,,,,,,0.7403,1,0,7,7,14,1,1001,THRALE,z,,,,,,,,,,,,,,,,,,,,,,,,,,,,,,,,,,,,,,,,,,,,,,,,,,,,,
,,,,,,,,,,,,,,,,,199402,19,2022-01-29_13h25.21.216,lexical_decision_task_DD,2021.2.3,MacIntel,59.99880002,,m,1,0.6233,,,,,,,,0.6233,1,0,8,8,3,1,1001,MATRIX,m,,,,,,,,,,,,,,,,,,,,,,,,,,,,,,,,,,,,,,,,,,,,,,,,,,,,,
,,,,,,,,,,,,,,,,,199402,19,2022-01-29_13h25.21.216,lexical_decision_task_DD,2021.2.3,MacIntel,59.99880002,,m,1,0.7774,,,,,,,,0.7774,1,0,9,9,4,1,1001,SQUEAK,m,,,,,,,,,,,,,,,,,,,,,,,,,,,,,,,,,,,,,,,,,,,,,,,,,,,,,
,,,,,,,,,,,,,,,,,199402,19,2022-01-29_13h25.21.216,lexical_decision_task_DD,2021.2.3,MacIntel,59.99880002,,z,1,0.9601,,,,,,,,0.9601,1,0,10,10,9,1,1001,FARINY,z,,,,,,,,,,,,,,,,,,,,,,,,,,,,,,,,,,,,,,,,,,,,,,,,,,,,,
,,,,,,,,,,,,,,,,,199402,19,2022-01-29_13h25.21.216,lexical_decision_task_DD,2021.2.3,MacIntel,59.99880002,,m,1,0.6494,,,,,,,,0.6494,1,0,11,11,1,1,1001,ADJUST,m,,,,,,,,,,,,,,,,,,,,,,,,,,,,,,,,,,,,,,,,,,,,,,,,,,,,,
,,,,,,,,,,,,,,,,,199402,19,2022-01-29_13h25.21.216,lexical_decision_task_DD,2021.2.3,MacIntel,59.99880002,,m,1,0.7427,,,,,,,,0.7427,1,0,12,12,7,1,1001,VOLUME,m,,,,,,,,,,,,,,,,,,,,,,,,,,,,,,,,,,,,,,,,,,,,,,,,,,,,,
,,,,,,,,,,,,,,,,,199402,19,2022-01-29_13h25.21.216,lexical_decision_task_DD,2021.2.3,MacIntel,59.99880002,,m,1,0.6865,,,,,,,,0.6865,1,0,13,13,5,1,1001,OBTAIN,m,,,,,,,,,,,,,,,,,,,,,,,,,,,,,,,,,,,,,,,,,,,,,,,,,,,,,
,,,,,,,,,,,,,,,,,199402,19,2022-01-29_13h25.21.216,lexical_decision_task_DD,2021.2.3,MacIntel,59.99880002,,m,1,0.7333,,,,,,,,0.7333,1,0,14,14,6,1,1001,ZOMBIE,m,,,,,,,,,,,,,,,,,,,,,,,,,,,,,,,,,,,,,,,,,,,,,,,,,,,,,
,,,,,,,,,,,,,,,,,199402,19,2022-01-29_13h25.21.216,lexical_decision_task_DD,2021.2.3,MacIntel,59.99880002,,m,1,0.614,,,,,,,,0.614,1,0,15,15,0,1,1001,UTOPIA,m,,,,,,,,,,,,,,,,,,,,,,,,,,,,,,,,,,,,,,,,,,,,,,,,,,,,,
,,0.050963542,-0.388923611,1,0,0,,,,,,1,end_of_practice,"You have completed the practice trials. During the experimental trials, you will not receive feedback. 
Before you begin, please ensure that you are in a comfortable and quiet location and will not be disturbed for about 15 minutes, as we cannot use your data if you do not complete all the trials. 
 When you are ready to start the experimental trials, please press space or touch the button below.",,,199402,19,2022-01-29_13h25.21.216,lexical_decision_task_DD,2021.2.3,MacIntel,59.99880002,instr_done_button,,,,,,,,,,,,,,,,,,,,,0,0,0,0,1,,,,,,,,,,,,,,,,,,,,,,,,,,,,,,,,,,,,,,,,,,,,,,,,
,,,,,,,,,,,,,,,,,199402,19,2022-01-29_13h25.21.216,lexical_decision_task_DD,2021.2.3,MacIntel,59.99880002,,,,,,,,,,,,2.788,0,,,,,,,,,,,,,,z,0,2.788,,,,,,,,0.05125,-0.385698785,0,0,0,,0,0,0,67,1,SAILOR,HB,old,m,./images/SAILORHB.png,,,,,,,,,,,,,,,,,,,,,,
,,,,,,,,,,,,,,,,,199402,19,2022-01-29_13h25.21.216,lexical_decision_task_DD,2021.2.3,MacIntel,59.99880002,,,,,,,,,,,,1.0559,1,,,,,,,,,,,,,,z,1,1.0559,,,,,,,,0.05125,-0.385698785,0,0,0,,0,1,1,108,1,GRUET,C,old,z,./images/GRUET.png,,,,,,,,,,,,,,,,,,,,,,
,,,,,,,,,,,,,,,,,199402,19,2022-01-29_13h25.21.216,lexical_decision_task_DD,2021.2.3,MacIntel,59.99880002,,,,,,,,,,,,0.7696,1,,,,,,,,,,,,,,z,1,0.7696,,,,,,,,0.05125,-0.385698785,0,0,0,,0,2,2,138,1,PLICE,C,old,z,./images/PLICE.png,,,,,,,,,,,,,,,,,,,,,,
,,,,,,,,,,,,,,,,,199402,19,2022-01-29_13h25.21.216,lexical_decision_task_DD,2021.2.3,MacIntel,59.99880002,,,,,,,,,,,,0.694,1,,,,,,,,,,,,,,m,1,0.694,,,,,,,,0.05125,-0.385698785,0,0,0,,0,3,3,30,1,STORM,C,old,m,./images/STORM.png,,,,,,,,,,,,,,,,,,,,,,
,,,,,,,,,,,,,,,,,199402,19,2022-01-29_13h25.21.216,lexical_decision_task_DD,2021.2.3,MacIntel,59.99880002,,,,,,,,,,,,1.3793,1,,,,,,,,,,,,,,m,1,1.3793,,,,,,,,0.05125,-0.385698785,0,0,0,,0,4,4,79,1,CRUST,HB,old,m,./images/CRUSTHB.png,,,,,,,,,,,,,,,,,,,,,,
,,,,,,,,,,,,,,,,,199402,19,2022-01-29_13h25.21.216,lexical_decision_task_DD,2021.2.3,MacIntel,59.99880002,,,,,,,,,,,,0.7686,1,,,,,,,,,,,,,,z,1,0.7686,,,,,,,,0.05125,-0.385698785,0,0,0,,0,5,5,162,1,LEICH,C,old,z,./images/LEICH.png,,,,,,,,,,,,,,,,,,,,,,
,,,,,,,,,,,,,,,,,199402,19,2022-01-29_13h25.21.216,lexical_decision_task_DD,2021.2.3,MacIntel,59.99880002,,,,,,,,,,,,0.8626,1,,,,,,,,,,,,,,m,1,0.8626,,,,,,,,0.05125,-0.385698785,0,0,0,,0,6,6,25,1,WRIST,HB,old,m,./images/WRISTHB.png,,,,,,,,,,,,,,,,,,,,,,
,,,,,,,,,,,,,,,,,199402,19,2022-01-29_13h25.21.216,lexical_decision_task_DD,2021.2.3,MacIntel,59.99880002,,,,,,,,,,,,0.849,1,,,,,,,,,,,,,,m,1,0.849,,,,,,,,0.05125,-0.385698785,0,0,0,,0,7,7,76,1,INFANT,HB,old,m,./images/INFANTHB.png,,,,,,,,,,,,,,,,,,,,,,
,,,,,,,,,,,,,,,,,199402,19,2022-01-29_13h25.21.216,lexical_decision_task_DD,2021.2.3,MacIntel,59.99880002,,,,,,,,,,,,0.8054,1,,,,,,,,,,,,,,m,1,0.8054,,,,,,,,0.05125,-0.385698785,0,0,0,,0,8,8,55,1,MUFFIN,HB,old,m,./images/MUFFINHB.png,,,,,,,,,,,,,,,,,,,,,,
,,,,,,,,,,,,,,,,,199402,19,2022-01-29_13h25.21.216,lexical_decision_task_DD,2021.2.3,MacIntel,59.99880002,,,,,,,,,,,,0.6326,1,,,,,,,,,,,,,,m,1,0.6326,,,,,,,,0.05125,-0.385698785,0,0,0,,0,9,9,26,1,SMOKER,LB,old,m,./images/SMOKERLB.png,,,,,,,,,,,,,,,,,,,,,,
,,,,,,,,,,,,,,,,,199402,19,2022-01-29_13h25.21.216,lexical_decision_task_DD,2021.2.3,MacIntel,59.99880002,,,,,,,,,,,,1.5067,0,,,,,,,,,,,,,,m,0,1.5067,,,,,,,,0.05125,-0.385698785,0,0,0,,0,10,10,118,1,BAVEL,HB,old,z,./images/BAVELHB.png,,,,,,,,,,,,,,,,,,,,,,
,,,,,,,,,,,,,,,,,199402,19,2022-01-29_13h25.21.216,lexical_decision_task_DD,2021.2.3,MacIntel,59.99880002,,,,,,,,,,,,1.0392,1,,,,,,,,,,,,,,z,1,1.0392,,,,,,,,0.05125,-0.385698785,0,0,0,,0,11,11,160,1,VEETS,HB,old,z,./images/VEETSHB.png,,,,,,,,,,,,,,,,,,,,,,
,,,,,,,,,,,,,,,,,199402,19,2022-01-29_13h25.21.216,lexical_decision_task_DD,2021.2.3,MacIntel,59.99880002,,,,,,,,,,,,1.3482,1,,,,,,,,,,,,,,z,1,1.3482,,,,,,,,0.05125,-0.385698785,0,0,0,,0,12,12,154,1,THINT,HB,old,z,./images/THINTHB.png,,,,,,,,,,,,,,,,,,,,,,
,,,,,,,,,,,,,,,,,199402,19,2022-01-29_13h25.21.216,lexical_decision_task_DD,2021.2.3,MacIntel,59.99880002,,,,,,,,,,,,0.6677,1,,,,,,,,,,,,,,m,1,0.6677,,,,,,,,0.05125,-0.385698785,0,0,0,,0,13,13,34,1,CANYON,HB,old,m,./images/CANYONHB.png,,,,,,,,,,,,,,,,,,,,,,
,,,,,,,,,,,,,,,,,199402,19,2022-01-29_13h25.21.216,lexical_decision_task_DD,2021.2.3,MacIntel,59.99880002,,,,,,,,,,,,0.5513,0,,,,,,,,,,,,,,m,0,0.5513,,,,,,,,0.05125,-0.385698785,0,0,0,,0,14,14,155,1,CANGY,LB,old,z,./images/CANGYLB.png,,,,,,,,,,,,,,,,,,,,,,
,,,,,,,,,,,,,,,,,199402,19,2022-01-29_13h25.21.216,lexical_decision_task_DD,2021.2.3,MacIntel,59.99880002,,,,,,,,,,,,0.883,1,,,,,,,,,,,,,,m,1,0.883,,,,,,,,0.05125,-0.385698785,0,0,0,,0,15,15,37,1,BIRTH,HB,old,m,./images/BIRTHHB.png,,,,,,,,,,,,,,,,,,,,,,
,,,,,,,,,,,,,,,,,199402,19,2022-01-29_13h25.21.216,lexical_decision_task_DD,2021.2.3,MacIntel,59.99880002,,,,,,,,,,,,0.8064,1,,,,,,,,,,,,,,z,1,0.8064,,,,,,,,0.05125,-0.385698785,0,0,0,,0,16,16,137,1,JOOST,LB,old,z,./images/JOOSTLB.png,,,,,,,,,,,,,,,,,,,,,,
,,,,,,,,,,,,,,,,,199402,19,2022-01-29_13h25.21.216,lexical_decision_task_DD,2021.2.3,MacIntel,59.99880002,,,,,,,,,,,,1.3527,1,,,,,,,,,,,,,,m,1,1.3527,,,,,,,,0.05125,-0.385698785,0,0,0,,0,17,17,16,1,PENCE,HB,old,m,./images/PENCEHB.png,,,,,,,,,,,,,,,,,,,,,,
,,,,,,,,,,,,,,,,,199402,19,2022-01-29_13h25.21.216,lexical_decision_task_DD,2021.2.3,MacIntel,59.99880002,,,,,,,,,,,,0.7845,0,,,,,,,,,,,,,,m,0,0.7845,,,,,,,,0.05125,-0.385698785,0,0,0,,0,18,18,166,1,SHORY,HB,old,z,./images/SHORYHB.png,,,,,,,,,,,,,,,,,,,,,,
,,,,,,,,,,,,,,,,,199402,19,2022-01-29_13h25.21.216,lexical_decision_task_DD,2021.2.3,MacIntel,59.99880002,,,,,,,,,,,,0.7862,1,,,,,,,,,,,,,,m,1,0.7862,,,,,,,,0.05125,-0.385698785,0,0,0,,0,19,19,29,1,CRUMB,LB,old,m,./images/CRUMBLB.png,,,,,,,,,,,,,,,,,,,,,,
,,,,,,,,,,,,,,,,,199402,19,2022-01-29_13h25.21.216,lexical_decision_task_DD,2021.2.3,MacIntel,59.99880002,,,,,,,,,,,,1.1812,1,,,,,,,,,,,,,,m,1,1.1812,,,,,,,,0.05125,-0.385698785,0,0,0,,0,20,20,49,1,DRUMS,HB,old,m,./images/DRUMSHB.png,,,,,,,,,,,,,,,,,,,,,,
,,,,,,,,,,,,,,,,,199402,19,2022-01-29_13h25.21.216,lexical_decision_task_DD,2021.2.3,MacIntel,59.99880002,,,,,,,,,,,,0.7944,1,,,,,,,,,,,,,,z,1,0.7944,,,,,,,,0.05125,-0.385698785,0,0,0,,0,21,21,84,1,HAXES,C,old,z,./images/HAXES.png,,,,,,,,,,,,,,,,,,,,,,
,,,,,,,,,,,,,,,,,199402,19,2022-01-29_13h25.21.216,lexical_decision_task_DD,2021.2.3,MacIntel,59.99880002,,,,,,,,,,,,0.7157,1,,,,,,,,,,,,,,m,1,0.7157,,,,,,,,0.05125,-0.385698785,0,0,0,,0,22,22,27,1,ATTIC,C,old,m,./images/ATTIC.png,,,,,,,,,,,,,,,,,,,,,,
,,,,,,,,,,,,,,,,,199402,19,2022-01-29_13h25.21.216,lexical_decision_task_DD,2021.2.3,MacIntel,59.99880002,,,,,,,,,,,,1.8557,1,,,,,,,,,,,,,,z,1,1.8557,,,,,,,,0.05125,-0.385698785,0,0,0,,0,23,23,110,1,CRUNK,LB,old,z,./images/CRUNKLB.png,,,,,,,,,,,,,,,,,,,,,,
,,,,,,,,,,,,,,,,,199402,19,2022-01-29_13h25.21.216,lexical_decision_task_DD,2021.2.3,MacIntel,59.99880002,,,,,,,,,,,,0.775,1,,,,,,,,,,,,,,m,1,0.775,,,,,,,,0.05125,-0.385698785,0,0,0,,0,24,24,47,1,BERRY,LB,old,m,./images/BERRYLB.png,,,,,,,,,,,,,,,,,,,,,,
,,,,,,,,,,,,,,,,,199402,19,2022-01-29_13h25.21.216,lexical_decision_task_DD,2021.2.3,MacIntel,59.99880002,,,,,,,,,,,,0.8655,1,,,,,,,,,,,,,,z,1,0.8655,,,,,,,,0.05125,-0.385698785,0,0,0,,0,25,25,131,1,NACES,LB,old,z,./images/NACESLB.png,,,,,,,,,,,,,,,,,,,,,,
,,,,,,,,,,,,,,,,,199402,19,2022-01-29_13h25.21.216,lexical_decision_task_DD,2021.2.3,MacIntel,59.99880002,,,,,,,,,,,,0.9339,0,,,,,,,,,,,,,,m,0,0.9339,,,,,,,,0.05125,-0.385698785,0,0,0,,0,26,26,142,1,PLASK,HB,old,z,./images/PLASKHB.png,,,,,,,,,,,,,,,,,,,,,,
,,,,,,,,,,,,,,,,,199402,19,2022-01-29_13h25.21.216,lexical_decision_task_DD,2021.2.3,MacIntel,59.99880002,,,,,,,,,,,,0.607,1,,,,,,,,,,,,,,m,1,0.607,,,,,,,,0.05125,-0.385698785,0,0,0,,0,27,27,8,1,TULIP,LB,old,m,./images/TULIPLB.png,,,,,,,,,,,,,,,,,,,,,,
,,,,,,,,,,,,,,,,,199402,19,2022-01-29_13h25.21.216,lexical_decision_task_DD,2021.2.3,MacIntel,59.99880002,,,,,,,,,,,,1.1534,1,,,,,,,,,,,,,,z,1,1.1534,,,,,,,,0.05125,-0.385698785,0,0,0,,0,28,28,112,1,MYING,HB,old,z,./images/MYINGHB.png,,,,,,,,,,,,,,,,,,,,,,
,,,,,,,,,,,,,,,,,199402,19,2022-01-29_13h25.21.216,lexical_decision_task_DD,2021.2.3,MacIntel,59.99880002,,,,,,,,,,,,1.0183,1,,,,,,,,,,,,,,z,1,1.0183,,,,,,,,0.05125,-0.385698785,0,0,0,,0,29,29,165,1,TROWN,C,old,z,./images/TROWN.png,,,,,,,,,,,,,,,,,,,,,,
,,,,,,,,,,,,,,,,,199402,19,2022-01-29_13h25.21.216,lexical_decision_task_DD,2021.2.3,MacIntel,59.99880002,,,,,,,,,,,,0.6976,1,,,,,,,,,,,,,,z,1,0.6976,,,,,,,,0.05125,-0.385698785,0,0,0,,0,30,30,87,1,TRING,C,old,z,./images/TRING.png,,,,,,,,,,,,,,,,,,,,,,
,,,,,,,,,,,,,,,,,199402,19,2022-01-29_13h25.21.216,lexical_decision_task_DD,2021.2.3,MacIntel,59.99880002,,,,,,,,,,,,0.6761,1,,,,,,,,,,,,,,m,1,0.6761,,,,,,,,0.05125,-0.385698785,0,0,0,,0,31,31,71,1,PIMPLE,LB,old,m,./images/PIMPLELB.png,,,,,,,,,,,,,,,,,,,,,,
,,,,,,,,,,,,,,,,,199402,19,2022-01-29_13h25.21.216,lexical_decision_task_DD,2021.2.3,MacIntel,59.99880002,,,,,,,,,,,,0.79,1,,,,,,,,,,,,,,z,1,0.79,,,,,,,,0.05125,-0.385698785,0,0,0,,0,32,32,141,1,PLEET,C,old,z,./images/PLEET.png,,,,,,,,,,,,,,,,,,,,,,
,,,,,,,,,,,,,,,,,199402,19,2022-01-29_13h25.21.216,lexical_decision_task_DD,2021.2.3,MacIntel,59.99880002,,,,,,,,,,,,0.6921,1,,,,,,,,,,,,,,m,1,0.6921,,,,,,,,0.05125,-0.385698785,0,0,0,,0,33,33,51,1,ONION,C,old,m,./images/ONION.png,,,,,,,,,,,,,,,,,,,,,,
,,,,,,,,,,,,,,,,,199402,19,2022-01-29_13h25.21.216,lexical_decision_task_DD,2021.2.3,MacIntel,59.99880002,,,,,,,,,,,,0.8335,1,,,,,,,,,,,,,,z,1,0.8335,,,,,,,,0.05125,-0.385698785,0,0,0,,0,34,34,103,1,FLORT,HB,old,z,./images/FLORTHB.png,,,,,,,,,,,,,,,,,,,,,,
,,,,,,,,,,,,,,,,,199402,19,2022-01-29_13h25.21.216,lexical_decision_task_DD,2021.2.3,MacIntel,59.99880002,,,,,,,,,,,,0.6872,1,,,,,,,,,,,,,,m,1,0.6872,,,,,,,,0.05125,-0.385698785,0,0,0,,0,35,35,13,1,MOTOR,HB,old,m,./images/MOTORHB.png,,,,,,,,,,,,,,,,,,,,,,
,,,,,,,,,,,,,,,,,199402,19,2022-01-29_13h25.21.216,lexical_decision_task_DD,2021.2.3,MacIntel,59.99880002,,,,,,,,,,,,0.6413,1,,,,,,,,,,,,,,m,1,0.6413,,,,,,,,0.05125,-0.385698785,0,0,0,,0,36,36,78,1,LITTER,C,old,m,./images/LITTER.png,,,,,,,,,,,,,,,,,,,,,,
,,,,,,,,,,,,,,,,,199402,19,2022-01-29_13h25.21.216,lexical_decision_task_DD,2021.2.3,MacIntel,59.99880002,,,,,,,,,,,,0.7085,1,,,,,,,,,,,,,,z,1,0.7085,,,,,,,,0.05125,-0.385698785,0,0,0,,0,37,37,95,1,HANTY,LB,old,z,./images/HANTYLB.png,,,,,,,,,,,,,,,,,,,,,,
,,,,,,,,,,,,,,,,,199402,19,2022-01-29_13h25.21.216,lexical_decision_task_DD,2021.2.3,MacIntel,59.99880002,,,,,,,,,,,,0.8026,1,,,,,,,,,,,,,,z,1,0.8026,,,,,,,,0.05125,-0.385698785,0,0,0,,0,38,38,158,1,EGECT,LB,old,z,./images/EGECTLB.png,,,,,,,,,,,,,,,,,,,,,,
,,,,,,,,,,,,,,,,,199402,19,2022-01-29_13h25.21.216,lexical_decision_task_DD,2021.2.3,MacIntel,59.99880002,,,,,,,,,,,,0.6754,1,,,,,,,,,,,,,,m,1,0.6754,,,,,,,,0.05125,-0.385698785,0,0,0,,0,39,39,6,1,SQUARE,C,old,m,./images/SQUARE.png,,,,,,,,,,,,,,,,,,,,,,
,,,,,,,,,,,,,,,,,199402,19,2022-01-29_13h25.21.216,lexical_decision_task_DD,2021.2.3,MacIntel,59.99880002,,,,,,,,,,,,0.7554,0,,,,,,,,,,,,,,z,0,0.7554,,,,,,,,0.05125,-0.385698785,0,0,0,,0,40,40,82,1,SUNSET,HB,old,m,./images/SUNSETHB.png,,,,,,,,,,,,,,,,,,,,,,
,,,,,,,,,,,,,,,,,199402,19,2022-01-29_13h25.21.216,lexical_decision_task_DD,2021.2.3,MacIntel,59.99880002,,,,,,,,,,,,0.5393,1,,,,,,,,,,,,,,m,1,0.5393,,,,,,,,0.047621528,-0.389661458,1,0,0,,0,41,41,53,1,CARPET,LB,old,m,./images/CARPETLB.png,break_done_button,,,,,,,,,,,,,,,,,,,,,
,,,,,,,,,,,,,,,,,199402,19,2022-01-29_13h25.21.216,lexical_decision_task_DD,2021.2.3,MacIntel,59.99880002,,,,,,,,,,,,1.5004,1,,,,,,,,,,,,,,z,1,1.5004,,,,,,,,0.047621528,-0.389661458,0,0,0,,0,42,42,127,1,NINDY,HB,old,z,./images/NINDYHB.png,,,,,,,,,,,,,,,,,,,,,,
,,,,,,,,,,,,,,,,,199402,19,2022-01-29_13h25.21.216,lexical_decision_task_DD,2021.2.3,MacIntel,59.99880002,,,,,,,,,,,,0.8965,1,,,,,,,,,,,,,,z,1,0.8965,,,,,,,,0.047621528,-0.389661458,0,0,0,,0,43,43,153,1,CLUPS,C,old,z,./images/CLUPS.png,,,,,,,,,,,,,,,,,,,,,,
,,,,,,,,,,,,,,,,,199402,19,2022-01-29_13h25.21.216,lexical_decision_task_DD,2021.2.3,MacIntel,59.99880002,,,,,,,,,,,,0.8911,1,,,,,,,,,,,,,,m,1,0.8911,,,,,,,,0.047621528,-0.389661458,0,0,0,,0,44,44,64,1,JELLY,HB,old,m,./images/JELLYHB.png,,,,,,,,,,,,,,,,,,,,,,
,,,,,,,,,,,,,,,,,199402,19,2022-01-29_13h25.21.216,lexical_decision_task_DD,2021.2.3,MacIntel,59.99880002,,,,,,,,,,,,0.749,1,,,,,,,,,,,,,,m,1,0.749,,,,,,,,0.047621528,-0.389661458,0,0,0,,0,45,45,46,1,PEARL,HB,old,m,./images/PEARLHB.png,,,,,,,,,,,,,,,,,,,,,,
,,,,,,,,,,,,,,,,,199402,19,2022-01-29_13h25.21.216,lexical_decision_task_DD,2021.2.3,MacIntel,59.99880002,,,,,,,,,,,,0.5897,1,,,,,,,,,,,,,,m,1,0.5897,,,,,,,,0.047621528,-0.389661458,0,0,0,,0,46,46,66,1,SWEAT,C,old,m,./images/SWEAT.png,,,,,,,,,,,,,,,,,,,,,,
,,,,,,,,,,,,,,,,,199402,19,2022-01-29_13h25.21.216,lexical_decision_task_DD,2021.2.3,MacIntel,59.99880002,,,,,,,,,,,,0.5853,0,,,,,,,,,,,,,,m,0,0.5853,,,,,,,,0.047621528,-0.389661458,0,0,0,,0,47,47,134,1,TROSS,LB,old,z,./images/TROSSLB.png,,,,,,,,,,,,,,,,,,,,,,
,,,,,,,,,,,,,,,,,199402,19,2022-01-29_13h25.21.216,lexical_decision_task_DD,2021.2.3,MacIntel,59.99880002,,,,,,,,,,,,0.7111,1,,,,,,,,,,,,,,z,1,0.7111,,,,,,,,0.047621528,-0.389661458,0,0,0,,0,48,48,90,1,NEAST,C,old,z,./images/NEAST.png,,,,,,,,,,,,,,,,,,,,,,
,,,,,,,,,,,,,,,,,199402,19,2022-01-29_13h25.21.216,lexical_decision_task_DD,2021.2.3,MacIntel,59.99880002,,,,,,,,,,,,0.6714,1,,,,,,,,,,,,,,z,1,0.6714,,,,,,,,0.047621528,-0.389661458,0,0,0,,0,49,49,86,1,AIFED,LB,old,z,./images/AIFEDLB.png,,,,,,,,,,,,,,,,,,,,,,
,,,,,,,,,,,,,,,,,199402,19,2022-01-29_13h25.21.216,lexical_decision_task_DD,2021.2.3,MacIntel,59.99880002,,,,,,,,,,,,0.7672,1,,,,,,,,,,,,,,m,1,0.7672,,,,,,,,0.047621528,-0.389661458,0,0,0,,0,50,50,22,1,MELON,HB,old,m,./images/MELONHB.png,,,,,,,,,,,,,,,,,,,,,,
,,,,,,,,,,,,,,,,,199402,19,2022-01-29_13h25.21.216,lexical_decision_task_DD,2021.2.3,MacIntel,59.99880002,,,,,,,,,,,,0.5595,1,,,,,,,,,,,,,,m,1,0.5595,,,,,,,,0.047621528,-0.389661458,0,0,0,,0,51,51,15,1,GREASE,C,old,m,./images/GREASE.png,,,,,,,,,,,,,,,,,,,,,,
,,,,,,,,,,,,,,,,,199402,19,2022-01-29_13h25.21.216,lexical_decision_task_DD,2021.2.3,MacIntel,59.99880002,,,,,,,,,,,,0.6324,1,,,,,,,,,,,,,,m,1,0.6324,,,,,,,,0.047621528,-0.389661458,0,0,0,,0,52,52,9,1,RHINO,C,old,m,./images/RHINO.png,,,,,,,,,,,,,,,,,,,,,,
,,,,,,,,,,,,,,,,,199402,19,2022-01-29_13h25.21.216,lexical_decision_task_DD,2021.2.3,MacIntel,59.99880002,,,,,,,,,,,,0.6628,1,,,,,,,,,,,,,,z,1,0.6628,,,,,,,,0.047621528,-0.389661458,0,0,0,,0,53,53,133,1,POWDY,HB,old,z,./images/POWDYHB.png,,,,,,,,,,,,,,,,,,,,,,
,,,,,,,,,,,,,,,,,199402,19,2022-01-29_13h25.21.216,lexical_decision_task_DD,2021.2.3,MacIntel,59.99880002,,,,,,,,,,,,0.8007,1,,,,,,,,,,,,,,z,1,0.8007,,,,,,,,0.047621528,-0.389661458,0,0,0,,0,54,54,140,1,DOVET,LB,old,z,./images/DOVETLB.png,,,,,,,,,,,,,,,,,,,,,,
,,,,,,,,,,,,,,,,,199402,19,2022-01-29_13h25.21.216,lexical_decision_task_DD,2021.2.3,MacIntel,59.99880002,,,,,,,,,,,,0.9401,1,,,,,,,,,,,,,,m,1,0.9401,,,,,,,,0.047621528,-0.389661458,0,0,0,,0,55,55,54,1,TRIPOD,C,old,m,./images/TRIPOD.png,,,,,,,,,,,,,,,,,,,,,,
,,,,,,,,,,,,,,,,,199402,19,2022-01-29_13h25.21.216,lexical_decision_task_DD,2021.2.3,MacIntel,59.99880002,,,,,,,,,,,,0.8748,1,,,,,,,,,,,,,,m,1,0.8748,,,,,,,,0.047621528,-0.389661458,0,0,0,,0,56,56,72,1,NOOSE,C,old,m,./images/NOOSE.png,,,,,,,,,,,,,,,,,,,,,,
,,,,,,,,,,,,,,,,,199402,19,2022-01-29_13h25.21.216,lexical_decision_task_DD,2021.2.3,MacIntel,59.99880002,,,,,,,,,,,,0.7408,1,,,,,,,,,,,,,,m,1,0.7408,,,,,,,,0.047621528,-0.389661458,0,0,0,,0,57,57,0,1,TOMATO,C,old,m,./images/TOMATO.png,,,,,,,,,,,,,,,,,,,,,,
,,,,,,,,,,,,,,,,,199402,19,2022-01-29_13h25.21.216,lexical_decision_task_DD,2021.2.3,MacIntel,59.99880002,,,,,,,,,,,,1.0031,1,,,,,,,,,,,,,,z,1,1.0031,,,,,,,,0.047621528,-0.389661458,0,0,0,,0,58,58,139,1,BLEAR,HB,old,z,./images/BLEARHB.png,,,,,,,,,,,,,,,,,,,,,,
,,,,,,,,,,,,,,,,,199402,19,2022-01-29_13h25.21.216,lexical_decision_task_DD,2021.2.3,MacIntel,59.99880002,,,,,,,,,,,,0.6946,0,,,,,,,,,,,,,,z,0,0.6946,,,,,,,,0.047621528,-0.389661458,0,0,0,,0,59,59,68,1,TORCH,LB,old,m,./images/TORCHLB.png,,,,,,,,,,,,,,,,,,,,,,
,,,,,,,,,,,,,,,,,199402,19,2022-01-29_13h25.21.216,lexical_decision_task_DD,2021.2.3,MacIntel,59.99880002,,,,,,,,,,,,0.7329,1,,,,,,,,,,,,,,z,1,0.7329,,,,,,,,0.047621528,-0.389661458,0,0,0,,0,60,60,113,1,LINEW,LB,old,z,./images/LINEWLB.png,,,,,,,,,,,,,,,,,,,,,,
,,,,,,,,,,,,,,,,,199402,19,2022-01-29_13h25.21.216,lexical_decision_task_DD,2021.2.3,MacIntel,59.99880002,,,,,,,,,,,,0.7193,1,,,,,,,,,,,,,,z,1,0.7193,,,,,,,,0.047621528,-0.389661458,0,0,0,,0,61,61,147,1,ZOLES,C,old,z,./images/ZOLES.png,,,,,,,,,,,,,,,,,,,,,,
,,,,,,,,,,,,,,,,,199402,19,2022-01-29_13h25.21.216,lexical_decision_task_DD,2021.2.3,MacIntel,59.99880002,,,,,,,,,,,,1.2978,1,,,,,,,,,,,,,,z,1,1.2978,,,,,,,,0.047621528,-0.389661458,0,0,0,,0,62,62,163,1,GAMBA,HB,old,z,./images/GAMBAHB.png,,,,,,,,,,,,,,,,,,,,,,
,,,,,,,,,,,,,,,,,199402,19,2022-01-29_13h25.21.216,lexical_decision_task_DD,2021.2.3,MacIntel,59.99880002,,,,,,,,,,,,0.7918,1,,,,,,,,,,,,,,z,1,0.7918,,,,,,,,0.047621528,-0.389661458,0,0,0,,0,63,63,119,1,PAFER,LB,old,z,./images/PAFERLB.png,,,,,,,,,,,,,,,,,,,,,,
,,,,,,,,,,,,,,,,,199402,19,2022-01-29_13h25.21.216,lexical_decision_task_DD,2021.2.3,MacIntel,59.99880002,,,,,,,,,,,,0.8685,1,,,,,,,,,,,,,,m,1,0.8685,,,,,,,,0.047621528,-0.389661458,0,0,0,,0,64,64,1,1,PLANK,HB,old,m,./images/PLANKHB.png,,,,,,,,,,,,,,,,,,,,,,
,,,,,,,,,,,,,,,,,199402,19,2022-01-29_13h25.21.216,lexical_decision_task_DD,2021.2.3,MacIntel,59.99880002,,,,,,,,,,,,0.6768,1,,,,,,,,,,,,,,z,1,0.6768,,,,,,,,0.047621528,-0.389661458,0,0,0,,0,65,65,126,1,GUELS,C,old,z,./images/GUELS.png,,,,,,,,,,,,,,,,,,,,,,
,,,,,,,,,,,,,,,,,199402,19,2022-01-29_13h25.21.216,lexical_decision_task_DD,2021.2.3,MacIntel,59.99880002,,,,,,,,,,,,0.7571,1,,,,,,,,,,,,,,z,1,0.7571,,,,,,,,0.047621528,-0.389661458,0,0,0,,0,66,66,101,1,GLEET,LB,old,z,./images/GLEETLB.png,,,,,,,,,,,,,,,,,,,,,,
,,,,,,,,,,,,,,,,,199402,19,2022-01-29_13h25.21.216,lexical_decision_task_DD,2021.2.3,MacIntel,59.99880002,,,,,,,,,,,,0.7926,1,,,,,,,,,,,,,,z,1,0.7926,,,,,,,,0.047621528,-0.389661458,0,0,0,,0,67,67,105,1,MOKER,C,old,z,./images/MOKER.png,,,,,,,,,,,,,,,,,,,,,,
,,,,,,,,,,,,,,,,,199402,19,2022-01-29_13h25.21.216,lexical_decision_task_DD,2021.2.3,MacIntel,59.99880002,,,,,,,,,,,,1.2312,0,,,,,,,,,,,,,,z,0,1.2312,,,,,,,,0.047621528,-0.389661458,0,0,0,,0,68,68,31,1,QUILL,HB,old,m,./images/QUILLHB.png,,,,,,,,,,,,,,,,,,,,,,
,,,,,,,,,,,,,,,,,199402,19,2022-01-29_13h25.21.216,lexical_decision_task_DD,2021.2.3,MacIntel,59.99880002,,,,,,,,,,,,0.7635,1,,,,,,,,,,,,,,z,1,0.7635,,,,,,,,0.047621528,-0.389661458,0,0,0,,0,69,69,149,1,VEASE,LB,old,z,./images/VEASELB.png,,,,,,,,,,,,,,,,,,,,,,
,,,,,,,,,,,,,,,,,199402,19,2022-01-29_13h25.21.216,lexical_decision_task_DD,2021.2.3,MacIntel,59.99880002,,,,,,,,,,,,0.7153,1,,,,,,,,,,,,,,z,1,0.7153,,,,,,,,0.047621528,-0.389661458,0,0,0,,0,70,70,167,1,ZONET,LB,old,z,./images/ZONETLB.png,,,,,,,,,,,,,,,,,,,,,,
,,,,,,,,,,,,,,,,,199402,19,2022-01-29_13h25.21.216,lexical_decision_task_DD,2021.2.3,MacIntel,59.99880002,,,,,,,,,,,,0.6793,1,,,,,,,,,,,,,,m,1,0.6793,,,,,,,,0.047621528,-0.389661458,0,0,0,,0,71,71,75,1,GRAIN,C,old,m,./images/GRAIN.png,,,,,,,,,,,,,,,,,,,,,,
,,,,,,,,,,,,,,,,,199402,19,2022-01-29_13h25.21.216,lexical_decision_task_DD,2021.2.3,MacIntel,59.99880002,,,,,,,,,,,,0.7891,1,,,,,,,,,,,,,,z,1,0.7891,,,,,,,,0.047621528,-0.389661458,0,0,0,,0,72,72,109,1,BURGE,HB,old,z,./images/BURGEHB.png,,,,,,,,,,,,,,,,,,,,,,
,,,,,,,,,,,,,,,,,199402,19,2022-01-29_13h25.21.216,lexical_decision_task_DD,2021.2.3,MacIntel,59.99880002,,,,,,,,,,,,0.6679,1,,,,,,,,,,,,,,z,1,0.6679,,,,,,,,0.047621528,-0.389661458,0,0,0,,0,73,73,143,1,MONGS,LB,old,z,./images/MONGSLB.png,,,,,,,,,,,,,,,,,,,,,,
,,,,,,,,,,,,,,,,,199402,19,2022-01-29_13h25.21.216,lexical_decision_task_DD,2021.2.3,MacIntel,59.99880002,,,,,,,,,,,,0.6194,1,,,,,,,,,,,,,,z,1,0.6194,,,,,,,,0.047621528,-0.389661458,0,0,0,,0,74,74,123,1,SEDGE,C,old,z,./images/SEDGE.png,,,,,,,,,,,,,,,,,,,,,,
,,,,,,,,,,,,,,,,,199402,19,2022-01-29_13h25.21.216,lexical_decision_task_DD,2021.2.3,MacIntel,59.99880002,,,,,,,,,,,,0.917,1,,,,,,,,,,,,,,z,1,0.917,,,,,,,,0.047621528,-0.389661458,0,0,0,,0,75,75,157,1,INLER,HB,old,z,./images/INLERHB.png,,,,,,,,,,,,,,,,,,,,,,
,,,,,,,,,,,,,,,,,199402,19,2022-01-29_13h25.21.216,lexical_decision_task_DD,2021.2.3,MacIntel,59.99880002,,,,,,,,,,,,0.8788,1,,,,,,,,,,,,,,m,1,0.8788,,,,,,,,0.047621528,-0.389661458,0,0,0,,0,76,76,11,1,BONNET,LB,old,m,./images/BONNETLB.png,,,,,,,,,,,,,,,,,,,,,,
,,,,,,,,,,,,,,,,,199402,19,2022-01-29_13h25.21.216,lexical_decision_task_DD,2021.2.3,MacIntel,59.99880002,,,,,,,,,,,,1.2323,1,,,,,,,,,,,,,,z,1,1.2323,,,,,,,,0.047621528,-0.389661458,0,0,0,,0,77,77,145,1,LAMEL,HB,old,z,./images/LAMELHB.png,,,,,,,,,,,,,,,,,,,,,,
,,,,,,,,,,,,,,,,,199402,19,2022-01-29_13h25.21.216,lexical_decision_task_DD,2021.2.3,MacIntel,59.99880002,,,,,,,,,,,,0.7496,1,,,,,,,,,,,,,,m,1,0.7496,,,,,,,,0.047621528,-0.389661458,0,0,0,,0,78,78,41,1,STRING,LB,old,m,./images/STRINGLB.png,,,,,,,,,,,,,,,,,,,,,,
,,,,,,,,,,,,,,,,,199402,19,2022-01-29_13h25.21.216,lexical_decision_task_DD,2021.2.3,MacIntel,59.99880002,,,,,,,,,,,,0.6385,1,,,,,,,,,,,,,,m,1,0.6385,,,,,,,,0.047621528,-0.389661458,0,0,0,,0,79,79,77,1,COUCH,LB,old,m,./images/COUCHLB.png,,,,,,,,,,,,,,,,,,,,,,
,,,,,,,,,,,,,,,,,199402,19,2022-01-29_13h25.21.216,lexical_decision_task_DD,2021.2.3,MacIntel,59.99880002,,,,,,,,,,,,1.3618,1,,,,,,,,,,,,,,z,1,1.3618,,,,,,,,0.047621528,-0.389661458,0,0,0,,0,80,80,115,1,MAWNS,HB,old,z,./images/MAWNSHB.png,,,,,,,,,,,,,,,,,,,,,,
,,,,,,,,,,,,,,,,,199402,19,2022-01-29_13h25.21.216,lexical_decision_task_DD,2021.2.3,MacIntel,59.99880002,,,,,,,,,,,,0.8378,1,,,,,,,,,,,,,,z,1,0.8378,,,,,,,,0.047621528,-0.389661458,0,0,0,,0,81,81,129,1,PRANS,C,old,z,./images/PRANS.png,,,,,,,,,,,,,,,,,,,,,,
,,,,,,,,,,,,,,,,,199402,19,2022-01-29_13h25.21.216,lexical_decision_task_DD,2021.2.3,MacIntel,59.99880002,,,,,,,,,,,,0.886,1,,,,,,,,,,,,,,m,1,0.886,,,,,,,,0.047621528,-0.389661458,0,0,0,,0,82,82,35,1,PEACH,LB,old,m,./images/PEACHLB.png,,,,,,,,,,,,,,,,,,,,,,
,,,,,,,,,,,,,,,,,199402,19,2022-01-29_13h25.21.216,lexical_decision_task_DD,2021.2.3,MacIntel,59.99880002,,,,,,,,,,,,0.7624,1,,,,,,,,,,,,,,m,1,0.7624,,,,,,,,0.029019097,-0.378958333,1,0,0,,0,83,83,33,1,MAGGOT,C,old,m,./images/MAGGOT.png,break_done_button,,,,,,,,,,,,,,,,,,,,,
,,,,,,,,,,,,,,,,,199402,19,2022-01-29_13h25.21.216,lexical_decision_task_DD,2021.2.3,MacIntel,59.99880002,,,,,,,,,,,,1.3294,1,,,,,,,,,,,,,,m,1,1.3294,,,,,,,,0.029019097,-0.378958333,0,0,0,,0,84,84,24,1,SCREW,C,old,m,./images/SCREW.png,,,,,,,,,,,,,,,,,,,,,,
,,,,,,,,,,,,,,,,,199402,19,2022-01-29_13h25.21.216,lexical_decision_task_DD,2021.2.3,MacIntel,59.99880002,,,,,,,,,,,,0.6128,1,,,,,,,,,,,,,,m,1,0.6128,,,,,,,,0.029019097,-0.378958333,0,0,0,,0,85,85,38,1,LADDER,LB,old,m,./images/LADDERLB.png,,,,,,,,,,,,,,,,,,,,,,
,,,,,,,,,,,,,,,,,199402,19,2022-01-29_13h25.21.216,lexical_decision_task_DD,2021.2.3,MacIntel,59.99880002,,,,,,,,,,,,0.7057,1,,,,,,,,,,,,,,z,1,0.7057,,,,,,,,0.029019097,-0.378958333,0,0,0,,0,86,86,89,1,DRIEK,LB,old,z,./images/DRIEKLB.png,,,,,,,,,,,,,,,,,,,,,,
,,,,,,,,,,,,,,,,,199402,19,2022-01-29_13h25.21.216,lexical_decision_task_DD,2021.2.3,MacIntel,59.99880002,,,,,,,,,,,,1.0573,1,,,,,,,,,,,,,,m,1,1.0573,,,,,,,,0.029019097,-0.378958333,0,0,0,,0,87,87,28,1,FALCON,HB,old,m,./images/FALCONHB.png,,,,,,,,,,,,,,,,,,,,,,
,,,,,,,,,,,,,,,,,199402,19,2022-01-29_13h25.21.216,lexical_decision_task_DD,2021.2.3,MacIntel,59.99880002,,,,,,,,,,,,0.6008,1,,,,,,,,,,,,,,m,1,0.6008,,,,,,,,0.029019097,-0.378958333,0,0,0,,0,88,88,44,1,LIZARD,LB,old,m,./images/LIZARDLB.png,,,,,,,,,,,,,,,,,,,,,,
,,,,,,,,,,,,,,,,,199402,19,2022-01-29_13h25.21.216,lexical_decision_task_DD,2021.2.3,MacIntel,59.99880002,,,,,,,,,,,,0.5423,1,,,,,,,,,,,,,,m,1,0.5423,,,,,,,,0.029019097,-0.378958333,0,0,0,,0,89,89,17,1,SKIING,LB,old,m,./images/SKIINGLB.png,,,,,,,,,,,,,,,,,,,,,,
,,,,,,,,,,,,,,,,,199402,19,2022-01-29_13h25.21.216,lexical_decision_task_DD,2021.2.3,MacIntel,59.99880002,,,,,,,,,,,,0.9985,1,,,,,,,,,,,,,,m,1,0.9985,,,,,,,,0.029019097,-0.378958333,0,0,0,,0,90,90,40,1,SWING,HB,old,m,./images/SWINGHB.png,,,,,,,,,,,,,,,,,,,,,,
,,,,,,,,,,,,,,,,,199402,19,2022-01-29_13h25.21.216,lexical_decision_task_DD,2021.2.3,MacIntel,59.99880002,,,,,,,,,,,,0.5255,1,,,,,,,,,,,,,,m,1,0.5255,,,,,,,,0.029019097,-0.378958333,0,0,0,,0,91,91,18,1,JAGUAR,C,old,m,./images/JAGUAR.png,,,,,,,,,,,,,,,,,,,,,,
,,,,,,,,,,,,,,,,,199402,19,2022-01-29_13h25.21.216,lexical_decision_task_DD,2021.2.3,MacIntel,59.99880002,,,,,,,,,,,,0.6513,1,,,,,,,,,,,,,,z,1,0.6513,,,,,,,,0.029019097,-0.378958333,0,0,0,,0,92,92,144,1,NAIRY,C,old,z,./images/NAIRY.png,,,,,,,,,,,,,,,,,,,,,,
,,,,,,,,,,,,,,,,,199402,19,2022-01-29_13h25.21.216,lexical_decision_task_DD,2021.2.3,MacIntel,59.99880002,,,,,,,,,,,,1.7043,1,,,,,,,,,,,,,,z,1,1.7043,,,,,,,,0.029019097,-0.378958333,0,0,0,,0,93,93,91,1,SHENS,HB,old,z,./images/SHENSHB.png,,,,,,,,,,,,,,,,,,,,,,
,,,,,,,,,,,,,,,,,199402,19,2022-01-29_13h25.21.216,lexical_decision_task_DD,2021.2.3,MacIntel,59.99880002,,,,,,,,,,,,0.5935,1,,,,,,,,,,,,,,m,1,0.5935,,,,,,,,0.029019097,-0.378958333,0,0,0,,0,94,94,42,1,FOLDER,C,old,m,./images/FOLDER.png,,,,,,,,,,,,,,,,,,,,,,
,,,,,,,,,,,,,,,,,199402,19,2022-01-29_13h25.21.216,lexical_decision_task_DD,2021.2.3,MacIntel,59.99880002,,,,,,,,,,,,1.1576,1,,,,,,,,,,,,,,m,1,1.1576,,,,,,,,0.029019097,-0.378958333,0,0,0,,0,95,95,19,1,DOUGH,HB,old,m,./images/DOUGHHB.png,,,,,,,,,,,,,,,,,,,,,,
,,,,,,,,,,,,,,,,,199402,19,2022-01-29_13h25.21.216,lexical_decision_task_DD,2021.2.3,MacIntel,59.99880002,,,,,,,,,,,,1.2022,1,,,,,,,,,,,,,,z,1,1.2022,,,,,,,,0.029019097,-0.378958333,0,0,0,,0,96,96,111,1,HOSSE,C,old,z,./images/HOSSE.png,,,,,,,,,,,,,,,,,,,,,,
,,,,,,,,,,,,,,,,,199402,19,2022-01-29_13h25.21.216,lexical_decision_task_DD,2021.2.3,MacIntel,59.99880002,,,,,,,,,,,,1.0894,1,,,,,,,,,,,,,,z,1,1.0894,,,,,,,,0.029019097,-0.378958333,0,0,0,,0,97,97,130,1,CRILL,HB,old,z,./images/CRILLHB.png,,,,,,,,,,,,,,,,,,,,,,
,,,,,,,,,,,,,,,,,199402,19,2022-01-29_13h25.21.216,lexical_decision_task_DD,2021.2.3,MacIntel,59.99880002,,,,,,,,,,,,0.6947,1,,,,,,,,,,,,,,m,1,0.6947,,,,,,,,0.029019097,-0.378958333,0,0,0,,0,98,98,74,1,CEMENT,LB,old,m,./images/CEMENTLB.png,,,,,,,,,,,,,,,,,,,,,,
,,,,,,,,,,,,,,,,,199402,19,2022-01-29_13h25.21.216,lexical_decision_task_DD,2021.2.3,MacIntel,59.99880002,,,,,,,,,,,,0.6646,1,,,,,,,,,,,,,,m,1,0.6646,,,,,,,,0.029019097,-0.378958333,0,0,0,,0,99,99,60,1,TWINS,C,old,m,./images/TWINS.png,,,,,,,,,,,,,,,,,,,,,,
,,,,,,,,,,,,,,,,,199402,19,2022-01-29_13h25.21.216,lexical_decision_task_DD,2021.2.3,MacIntel,59.99880002,,,,,,,,,,,,0.7137,1,,,,,,,,,,,,,,z,1,0.7137,,,,,,,,0.029019097,-0.378958333,0,0,0,,0,100,100,150,1,NOOLS,C,old,z,./images/NOOLS.png,,,,,,,,,,,,,,,,,,,,,,
,,,,,,,,,,,,,,,,,199402,19,2022-01-29_13h25.21.216,lexical_decision_task_DD,2021.2.3,MacIntel,59.99880002,,,,,,,,,,,,0.8386,1,,,,,,,,,,,,,,z,1,0.8386,,,,,,,,0.029019097,-0.378958333,0,0,0,,0,101,101,146,1,MOOST,LB,old,z,./images/MOOSTLB.png,,,,,,,,,,,,,,,,,,,,,,
,,,,,,,,,,,,,,,,,199402,19,2022-01-29_13h25.21.216,lexical_decision_task_DD,2021.2.3,MacIntel,59.99880002,,,,,,,,,,,,0.8225,1,,,,,,,,,,,,,,z,1,0.8225,,,,,,,,0.029019097,-0.378958333,0,0,0,,0,102,102,114,1,RIKES,C,old,z,./images/RIKES.png,,,,,,,,,,,,,,,,,,,,,,
,,,,,,,,,,,,,,,,,199402,19,2022-01-29_13h25.21.216,lexical_decision_task_DD,2021.2.3,MacIntel,59.99880002,,,,,,,,,,,,0.6812,1,,,,,,,,,,,,,,m,1,0.6812,,,,,,,,0.029019097,-0.378958333,0,0,0,,0,103,103,21,1,KIDNEY,C,old,m,./images/KIDNEY.png,,,,,,,,,,,,,,,,,,,,,,
,,,,,,,,,,,,,,,,,199402,19,2022-01-29_13h25.21.216,lexical_decision_task_DD,2021.2.3,MacIntel,59.99880002,,,,,,,,,,,,0.8268,1,,,,,,,,,,,,,,z,1,0.8268,,,,,,,,0.029019097,-0.378958333,0,0,0,,0,104,104,99,1,BACKY,C,old,z,./images/BACKY.png,,,,,,,,,,,,,,,,,,,,,,
,,,,,,,,,,,,,,,,,199402,19,2022-01-29_13h25.21.216,lexical_decision_task_DD,2021.2.3,MacIntel,59.99880002,,,,,,,,,,,,1.0536,1,,,,,,,,,,,,,,z,1,1.0536,,,,,,,,0.029019097,-0.378958333,0,0,0,,0,105,105,85,1,CHULK,HB,old,z,./images/CHULKHB.png,,,,,,,,,,,,,,,,,,,,,,
,,,,,,,,,,,,,,,,,199402,19,2022-01-29_13h25.21.216,lexical_decision_task_DD,2021.2.3,MacIntel,59.99880002,,,,,,,,,,,,0.6468,1,,,,,,,,,,,,,,m,1,0.6468,,,,,,,,0.029019097,-0.378958333,0,0,0,,0,106,106,3,1,FINGER,C,old,m,./images/FINGER.png,,,,,,,,,,,,,,,,,,,,,,
,,,,,,,,,,,,,,,,,199402,19,2022-01-29_13h25.21.216,lexical_decision_task_DD,2021.2.3,MacIntel,59.99880002,,,,,,,,,,,,0.8357,1,,,,,,,,,,,,,,z,1,0.8357,,,,,,,,0.029019097,-0.378958333,0,0,0,,0,107,107,152,1,FRAIN,LB,old,z,./images/FRAINLB.png,,,,,,,,,,,,,,,,,,,,,,
,,,,,,,,,,,,,,,,,199402,19,2022-01-29_13h25.21.216,lexical_decision_task_DD,2021.2.3,MacIntel,59.99880002,,,,,,,,,,,,0.966,0,,,,,,,,,,,,,,z,0,0.966,,,,,,,,0.029019097,-0.378958333,0,0,0,,0,108,108,43,1,MOSQUE,HB,old,m,./images/MOSQUEHB.png,,,,,,,,,,,,,,,,,,,,,,
,,,,,,,,,,,,,,,,,199402,19,2022-01-29_13h25.21.216,lexical_decision_task_DD,2021.2.3,MacIntel,59.99880002,,,,,,,,,,,,1.0381,1,,,,,,,,,,,,,,m,1,1.0381,,,,,,,,0.029019097,-0.378958333,0,0,0,,0,109,109,57,1,MOOSE,C,old,m,./images/MOOSE.png,,,,,,,,,,,,,,,,,,,,,,
,,,,,,,,,,,,,,,,,199402,19,2022-01-29_13h25.21.216,lexical_decision_task_DD,2021.2.3,MacIntel,59.99880002,,,,,,,,,,,,0.9002,1,,,,,,,,,,,,,,m,1,0.9002,,,,,,,,0.029019097,-0.378958333,0,0,0,,0,110,110,4,1,MUSCLE,HB,old,m,./images/MUSCLEHB.png,,,,,,,,,,,,,,,,,,,,,,
,,,,,,,,,,,,,,,,,199402,19,2022-01-29_13h25.21.216,lexical_decision_task_DD,2021.2.3,MacIntel,59.99880002,,,,,,,,,,,,0.6223,1,,,,,,,,,,,,,,m,1,0.6223,,,,,,,,0.029019097,-0.378958333,0,0,0,,0,111,111,7,1,PAINT,HB,old,m,./images/PAINTHB.png,,,,,,,,,,,,,,,,,,,,,,
,,,,,,,,,,,,,,,,,199402,19,2022-01-29_13h25.21.216,lexical_decision_task_DD,2021.2.3,MacIntel,59.99880002,,,,,,,,,,,,0.6528,1,,,,,,,,,,,,,,m,1,0.6528,,,,,,,,0.029019097,-0.378958333,0,0,0,,0,112,112,65,1,FARMER,LB,old,m,./images/FARMERLB.png,,,,,,,,,,,,,,,,,,,,,,
,,,,,,,,,,,,,,,,,199402,19,2022-01-29_13h25.21.216,lexical_decision_task_DD,2021.2.3,MacIntel,59.99880002,,,,,,,,,,,,0.8554,1,,,,,,,,,,,,,,z,1,0.8554,,,,,,,,0.029019097,-0.378958333,0,0,0,,0,113,113,107,1,FASKS,LB,old,z,./images/FASKSLB.png,,,,,,,,,,,,,,,,,,,,,,
,,,,,,,,,,,,,,,,,199402,19,2022-01-29_13h25.21.216,lexical_decision_task_DD,2021.2.3,MacIntel,59.99880002,,,,,,,,,,,,0.6219,1,,,,,,,,,,,,,,m,1,0.6219,,,,,,,,0.029019097,-0.378958333,0,0,0,,0,114,114,12,1,SHORE,C,old,m,./images/SHORE.png,,,,,,,,,,,,,,,,,,,,,,
,,,,,,,,,,,,,,,,,199402,19,2022-01-29_13h25.21.216,lexical_decision_task_DD,2021.2.3,MacIntel,59.99880002,,,,,,,,,,,,1.2456,1,,,,,,,,,,,,,,z,1,1.2456,,,,,,,,0.029019097,-0.378958333,0,0,0,,0,115,115,151,1,TINKY,HB,old,z,./images/TINKYHB.png,,,,,,,,,,,,,,,,,,,,,,
,,,,,,,,,,,,,,,,,199402,19,2022-01-29_13h25.21.216,lexical_decision_task_DD,2021.2.3,MacIntel,59.99880002,,,,,,,,,,,,1.6144,1,,,,,,,,,,,,,,z,1,1.6144,,,,,,,,0.029019097,-0.378958333,0,0,0,,0,116,116,121,1,CEERS,HB,old,z,./images/CEERSHB.png,,,,,,,,,,,,,,,,,,,,,,
,,,,,,,,,,,,,,,,,199402,19,2022-01-29_13h25.21.216,lexical_decision_task_DD,2021.2.3,MacIntel,59.99880002,,,,,,,,,,,,1.0902,1,,,,,,,,,,,,,,z,1,1.0902,,,,,,,,0.029019097,-0.378958333,0,0,0,,0,117,117,124,1,TUNCH,HB,old,z,./images/TUNCHHB.png,,,,,,,,,,,,,,,,,,,,,,
,,,,,,,,,,,,,,,,,199402,19,2022-01-29_13h25.21.216,lexical_decision_task_DD,2021.2.3,MacIntel,59.99880002,,,,,,,,,,,,0.766,1,,,,,,,,,,,,,,z,1,0.766,,,,,,,,0.029019097,-0.378958333,0,0,0,,0,118,118,92,1,PAIMS,LB,old,z,./images/PAIMSLB.png,,,,,,,,,,,,,,,,,,,,,,
,,,,,,,,,,,,,,,,,199402,19,2022-01-29_13h25.21.216,lexical_decision_task_DD,2021.2.3,MacIntel,59.99880002,,,,,,,,,,,,0.8855,1,,,,,,,,,,,,,,z,1,0.8855,,,,,,,,0.029019097,-0.378958333,0,0,0,,0,119,119,104,1,GITTY,LB,old,z,./images/GITTYLB.png,,,,,,,,,,,,,,,,,,,,,,
,,,,,,,,,,,,,,,,,199402,19,2022-01-29_13h25.21.216,lexical_decision_task_DD,2021.2.3,MacIntel,59.99880002,,,,,,,,,,,,1.1301,1,,,,,,,,,,,,,,z,1,1.1301,,,,,,,,0.029019097,-0.378958333,0,0,0,,0,120,120,88,1,GLUSH,HB,old,z,./images/GLUSHHB.png,,,,,,,,,,,,,,,,,,,,,,
,,,,,,,,,,,,,,,,,199402,19,2022-01-29_13h25.21.216,lexical_decision_task_DD,2021.2.3,MacIntel,59.99880002,,,,,,,,,,,,0.7391,1,,,,,,,,,,,,,,m,1,0.7391,,,,,,,,0.029019097,-0.378958333,0,0,0,,0,121,121,56,1,PACKET,LB,old,m,./images/PACKETLB.png,,,,,,,,,,,,,,,,,,,,,,
,,,,,,,,,,,,,,,,,199402,19,2022-01-29_13h25.21.216,lexical_decision_task_DD,2021.2.3,MacIntel,59.99880002,,,,,,,,,,,,0.7997,1,,,,,,,,,,,,,,m,1,0.7997,,,,,,,,0.029019097,-0.378958333,0,0,0,,0,122,122,50,1,MALLET,LB,old,m,./images/MALLETLB.png,,,,,,,,,,,,,,,,,,,,,,
,,,,,,,,,,,,,,,,,199402,19,2022-01-29_13h25.21.216,lexical_decision_task_DD,2021.2.3,MacIntel,59.99880002,,,,,,,,,,,,0.7731,1,,,,,,,,,,,,,,z,1,0.7731,,,,,,,,0.029019097,-0.378958333,0,0,0,,0,123,123,161,1,BLAPS,LB,old,z,./images/BLAPSLB.png,,,,,,,,,,,,,,,,,,,,,,
,,,,,,,,,,,,,,,,,199402,19,2022-01-29_13h25.21.216,lexical_decision_task_DD,2021.2.3,MacIntel,59.99880002,,,,,,,,,,,,1.2013,0,,,,,,,,,,,,,,z,0,1.2013,,,,,,,,0.029019097,-0.378958333,0,0,0,,0,124,124,52,1,BANNER,HB,old,m,./images/BANNERHB.png,,,,,,,,,,,,,,,,,,,,,,
,,,,,,,,,,,,,,,,,199402,19,2022-01-29_13h25.21.216,lexical_decision_task_DD,2021.2.3,MacIntel,59.99880002,,,,,,,,,,,,0.6968,1,,,,,,,,,,,,,,z,1,0.6968,,,,,,,,0.029019097,-0.378958333,1,0,0,,0,125,125,128,1,GRIFT,LB,old,z,./images/GRIFTLB.png,break_done_button,,,,,,,,,,,,,,,,,,,,,
,,,,,,,,,,,,,,,,,199402,19,2022-01-29_13h25.21.216,lexical_decision_task_DD,2021.2.3,MacIntel,59.99880002,,,,,,,,,,,,1.1853,1,,,,,,,,,,,,,,z,1,1.1853,,,,,,,,0.029019097,-0.378958333,0,0,0,,0,126,126,94,1,BLANS,HB,old,z,./images/BLANSHB.png,,,,,,,,,,,,,,,,,,,,,,
,,,,,,,,,,,,,,,,,199402,19,2022-01-29_13h25.21.216,lexical_decision_task_DD,2021.2.3,MacIntel,59.99880002,,,,,,,,,,,,0.6878,1,,,,,,,,,,,,,,m,1,0.6878,,,,,,,,0.029019097,-0.378958333,0,0,0,,0,127,127,69,1,COOKER,C,old,m,./images/COOKER.png,,,,,,,,,,,,,,,,,,,,,,
,,,,,,,,,,,,,,,,,199402,19,2022-01-29_13h25.21.216,lexical_decision_task_DD,2021.2.3,MacIntel,59.99880002,,,,,,,,,,,,0.7162,1,,,,,,,,,,,,,,m,1,0.7162,,,,,,,,0.029019097,-0.378958333,0,0,0,,0,128,128,80,1,WEASEL,LB,old,m,./images/WEASELLB.png,,,,,,,,,,,,,,,,,,,,,,
,,,,,,,,,,,,,,,,,199402,19,2022-01-29_13h25.21.216,lexical_decision_task_DD,2021.2.3,MacIntel,59.99880002,,,,,,,,,,,,0.9349,0,,,,,,,,,,,,,,z,0,0.9349,,,,,,,,0.029019097,-0.378958333,0,0,0,,0,129,129,61,1,CANDLE,HB,old,m,./images/CANDLEHB.png,,,,,,,,,,,,,,,,,,,,,,
,,,,,,,,,,,,,,,,,199402,19,2022-01-29_13h25.21.216,lexical_decision_task_DD,2021.2.3,MacIntel,59.99880002,,,,,,,,,,,,0.9342,1,,,,,,,,,,,,,,z,1,0.9342,,,,,,,,0.029019097,-0.378958333,0,0,0,,0,130,130,136,1,WERVE,HB,old,z,./images/WERVEHB.png,,,,,,,,,,,,,,,,,,,,,,
,,,,,,,,,,,,,,,,,199402,19,2022-01-29_13h25.21.216,lexical_decision_task_DD,2021.2.3,MacIntel,59.99880002,,,,,,,,,,,,0.6966,1,,,,,,,,,,,,,,z,1,0.6966,,,,,,,,0.029019097,-0.378958333,0,0,0,,0,131,131,96,1,KEAMS,C,old,z,./images/KEAMS.png,,,,,,,,,,,,,,,,,,,,,,
,,,,,,,,,,,,,,,,,199402,19,2022-01-29_13h25.21.216,lexical_decision_task_DD,2021.2.3,MacIntel,59.99880002,,,,,,,,,,,,0.6591,1,,,,,,,,,,,,,,m,1,0.6591,,,,,,,,0.029019097,-0.378958333,0,0,0,,0,132,132,39,1,SHELF,C,old,m,./images/SHELF.png,,,,,,,,,,,,,,,,,,,,,,
,,,,,,,,,,,,,,,,,199402,19,2022-01-29_13h25.21.216,lexical_decision_task_DD,2021.2.3,MacIntel,59.99880002,,,,,,,,,,,,1.0248,1,,,,,,,,,,,,,,z,1,1.0248,,,,,,,,0.029019097,-0.378958333,0,0,0,,0,133,133,97,1,CHIDS,HB,old,z,./images/CHIDSHB.png,,,,,,,,,,,,,,,,,,,,,,
,,,,,,,,,,,,,,,,,199402,19,2022-01-29_13h25.21.216,lexical_decision_task_DD,2021.2.3,MacIntel,59.99880002,,,,,,,,,,,,1.1655,1,,,,,,,,,,,,,,m,1,1.1655,,,,,,,,0.029019097,-0.378958333,0,0,0,,0,134,134,70,1,URINE,HB,old,m,./images/URINEHB.png,,,,,,,,,,,,,,,,,,,,,,
,,,,,,,,,,,,,,,,,199402,19,2022-01-29_13h25.21.216,lexical_decision_task_DD,2021.2.3,MacIntel,59.99880002,,,,,,,,,,,,0.6818,1,,,,,,,,,,,,,,m,1,0.6818,,,,,,,,0.029019097,-0.378958333,0,0,0,,0,135,135,5,1,PASTA,LB,old,m,./images/PASTALB.png,,,,,,,,,,,,,,,,,,,,,,
,,,,,,,,,,,,,,,,,199402,19,2022-01-29_13h25.21.216,lexical_decision_task_DD,2021.2.3,MacIntel,59.99880002,,,,,,,,,,,,0.6467,1,,,,,,,,,,,,,,z,1,0.6467,,,,,,,,0.029019097,-0.378958333,0,0,0,,0,136,136,156,1,HIXES,C,old,z,./images/HIXES.png,,,,,,,,,,,,,,,,,,,,,,
,,,,,,,,,,,,,,,,,199402,19,2022-01-29_13h25.21.216,lexical_decision_task_DD,2021.2.3,MacIntel,59.99880002,,,,,,,,,,,,0.9406,1,,,,,,,,,,,,,,m,1,0.9406,,,,,,,,0.029019097,-0.378958333,0,0,0,,0,137,137,10,1,BELLY,HB,old,m,./images/BELLYHB.png,,,,,,,,,,,,,,,,,,,,,,
,,,,,,,,,,,,,,,,,199402,19,2022-01-29_13h25.21.216,lexical_decision_task_DD,2021.2.3,MacIntel,59.99880002,,,,,,,,,,,,0.6668,1,,,,,,,,,,,,,,z,1,0.6668,,,,,,,,0.029019097,-0.378958333,0,0,0,,0,138,138,120,1,RINED,C,old,z,./images/RINED.png,,,,,,,,,,,,,,,,,,,,,,
,,,,,,,,,,,,,,,,,199402,19,2022-01-29_13h25.21.216,lexical_decision_task_DD,2021.2.3,MacIntel,59.99880002,,,,,,,,,,,,0.8081,1,,,,,,,,,,,,,,z,1,0.8081,,,,,,,,0.029019097,-0.378958333,0,0,0,,0,139,139,93,1,SMONE,C,old,z,./images/SMONE.png,,,,,,,,,,,,,,,,,,,,,,
,,,,,,,,,,,,,,,,,199402,19,2022-01-29_13h25.21.216,lexical_decision_task_DD,2021.2.3,MacIntel,59.99880002,,,,,,,,,,,,0.7026,1,,,,,,,,,,,,,,m,1,0.7026,,,,,,,,0.029019097,-0.378958333,0,0,0,,0,140,140,36,1,THROAT,C,old,m,./images/THROAT.png,,,,,,,,,,,,,,,,,,,,,,
,,,,,,,,,,,,,,,,,199402,19,2022-01-29_13h25.21.216,lexical_decision_task_DD,2021.2.3,MacIntel,59.99880002,,,,,,,,,,,,0.6594,1,,,,,,,,,,,,,,m,1,0.6594,,,,,,,,0.029019097,-0.378958333,0,0,0,,0,141,141,63,1,MIRROR,C,old,m,./images/MIRROR.png,,,,,,,,,,,,,,,,,,,,,,
,,,,,,,,,,,,,,,,,199402,19,2022-01-29_13h25.21.216,lexical_decision_task_DD,2021.2.3,MacIntel,59.99880002,,,,,,,,,,,,0.7348,1,,,,,,,,,,,,,,m,1,0.7348,,,,,,,,0.029019097,-0.378958333,0,0,0,,0,142,142,2,1,BEARD,LB,old,m,./images/BEARDLB.png,,,,,,,,,,,,,,,,,,,,,,
,,,,,,,,,,,,,,,,,199402,19,2022-01-29_13h25.21.216,lexical_decision_task_DD,2021.2.3,MacIntel,59.99880002,,,,,,,,,,,,1.068,1,,,,,,,,,,,,,,z,1,1.068,,,,,,,,0.029019097,-0.378958333,0,0,0,,0,143,143,116,1,BALGY,LB,old,z,./images/BALGYLB.png,,,,,,,,,,,,,,,,,,,,,,
,,,,,,,,,,,,,,,,,199402,19,2022-01-29_13h25.21.216,lexical_decision_task_DD,2021.2.3,MacIntel,59.99880002,,,,,,,,,,,,0.6638,1,,,,,,,,,,,,,,m,1,0.6638,,,,,,,,0.029019097,-0.378958333,0,0,0,,0,144,144,83,1,JUNGLE,LB,old,m,./images/JUNGLELB.png,,,,,,,,,,,,,,,,,,,,,,
,,,,,,,,,,,,,,,,,199402,19,2022-01-29_13h25.21.216,lexical_decision_task_DD,2021.2.3,MacIntel,59.99880002,,,,,,,,,,,,0.9505,1,,,,,,,,,,,,,,z,1,0.9505,,,,,,,,0.029019097,-0.378958333,0,0,0,,0,145,145,125,1,MOOKY,LB,old,z,./images/MOOKYLB.png,,,,,,,,,,,,,,,,,,,,,,
,,,,,,,,,,,,,,,,,199402,19,2022-01-29_13h25.21.216,lexical_decision_task_DD,2021.2.3,MacIntel,59.99880002,,,,,,,,,,,,0.7532,1,,,,,,,,,,,,,,m,1,0.7532,,,,,,,,0.029019097,-0.378958333,0,0,0,,0,146,146,32,1,BARREL,LB,old,m,./images/BARRELLB.png,,,,,,,,,,,,,,,,,,,,,,
,,,,,,,,,,,,,,,,,199402,19,2022-01-29_13h25.21.216,lexical_decision_task_DD,2021.2.3,MacIntel,59.99880002,,,,,,,,,,,,1.0848,1,,,,,,,,,,,,,,z,1,1.0848,,,,,,,,0.029019097,-0.378958333,0,0,0,,0,147,147,148,1,JOMS,HB,old,z,./images/JOMSHB.png,,,,,,,,,,,,,,,,,,,,,,
,,,,,,,,,,,,,,,,,199402,19,2022-01-29_13h25.21.216,lexical_decision_task_DD,2021.2.3,MacIntel,59.99880002,,,,,,,,,,,,1.0698,1,,,,,,,,,,,,,,m,1,1.0698,,,,,,,,0.029019097,-0.378958333,0,0,0,,0,148,148,58,1,BABOON,HB,old,m,./images/BABOONHB.png,,,,,,,,,,,,,,,,,,,,,,
,,,,,,,,,,,,,,,,,199402,19,2022-01-29_13h25.21.216,lexical_decision_task_DD,2021.2.3,MacIntel,59.99880002,,,,,,,,,,,,0.8872,1,,,,,,,,,,,,,,m,1,0.8872,,,,,,,,0.029019097,-0.378958333,0,0,0,,0,149,149,59,1,BURIAL,LB,old,m,./images/BURIALLB.png,,,,,,,,,,,,,,,,,,,,,,
,,,,,,,,,,,,,,,,,199402,19,2022-01-29_13h25.21.216,lexical_decision_task_DD,2021.2.3,MacIntel,59.99880002,,,,,,,,,,,,0.601,1,,,,,,,,,,,,,,m,1,0.601,,,,,,,,0.029019097,-0.378958333,0,0,0,,0,150,150,14,1,PICKLE,LB,old,m,./images/PICKLELB.png,,,,,,,,,,,,,,,,,,,,,,
,,,,,,,,,,,,,,,,,199402,19,2022-01-29_13h25.21.216,lexical_decision_task_DD,2021.2.3,MacIntel,59.99880002,,,,,,,,,,,,0.8557,1,,,,,,,,,,,,,,m,1,0.8557,,,,,,,,0.029019097,-0.378958333,0,0,0,,0,151,151,48,1,SPORT,C,old,m,./images/SPORT.png,,,,,,,,,,,,,,,,,,,,,,
,,,,,,,,,,,,,,,,,199402,19,2022-01-29_13h25.21.216,lexical_decision_task_DD,2021.2.3,MacIntel,59.99880002,,,,,,,,,,,,0.6498,1,,,,,,,,,,,,,,m,1,0.6498,,,,,,,,0.029019097,-0.378958333,0,0,0,,0,152,152,20,1,CRADLE,LB,old,m,./images/CRADLELB.png,,,,,,,,,,,,,,,,,,,,,,
,,,,,,,,,,,,,,,,,199402,19,2022-01-29_13h25.21.216,lexical_decision_task_DD,2021.2.3,MacIntel,59.99880002,,,,,,,,,,,,0.7941,1,,,,,,,,,,,,,,z,1,0.7941,,,,,,,,0.029019097,-0.378958333,0,0,0,,0,153,153,122,1,BLOOT,LB,old,z,./images/BLOOTLB.png,,,,,,,,,,,,,,,,,,,,,,
,,,,,,,,,,,,,,,,,199402,19,2022-01-29_13h25.21.216,lexical_decision_task_DD,2021.2.3,MacIntel,59.99880002,,,,,,,,,,,,1.1537,0,,,,,,,,,,,,,,m,0,1.1537,,,,,,,,0.029019097,-0.378958333,0,0,0,,0,154,154,106,1,CLUMS,HB,old,z,./images/CLUMSHB.png,,,,,,,,,,,,,,,,,,,,,,
,,,,,,,,,,,,,,,,,199402,19,2022-01-29_13h25.21.216,lexical_decision_task_DD,2021.2.3,MacIntel,59.99880002,,,,,,,,,,,,1.3762,1,,,,,,,,,,,,,,m,1,1.3762,,,,,,,,0.029019097,-0.378958333,0,0,0,,0,155,155,81,1,POODLE,C,old,m,./images/POODLE.png,,,,,,,,,,,,,,,,,,,,,,
,,,,,,,,,,,,,,,,,199402,19,2022-01-29_13h25.21.216,lexical_decision_task_DD,2021.2.3,MacIntel,59.99880002,,,,,,,,,,,,0.8691,1,,,,,,,,,,,,,,z,1,0.8691,,,,,,,,0.029019097,-0.378958333,0,0,0,,0,156,156,164,1,SGREW,LB,old,z,./images/SGREWLB.png,,,,,,,,,,,,,,,,,,,,,,
,,,,,,,,,,,,,,,,,199402,19,2022-01-29_13h25.21.216,lexical_decision_task_DD,2021.2.3,MacIntel,59.99880002,,,,,,,,,,,,0.7885,1,,,,,,,,,,,,,,z,1,0.7885,,,,,,,,0.029019097,-0.378958333,0,0,0,,0,157,157,117,1,STEEG,C,old,z,./images/STEEG.png,,,,,,,,,,,,,,,,,,,,,,
,,,,,,,,,,,,,,,,,199402,19,2022-01-29_13h25.21.216,lexical_decision_task_DD,2021.2.3,MacIntel,59.99880002,,,,,,,,,,,,0.8119,1,,,,,,,,,,,,,,m,1,0.8119,,,,,,,,0.029019097,-0.378958333,0,0,0,,0,158,158,73,1,SNACK,HB,old,m,./images/SNACKHB.png,,,,,,,,,,,,,,,,,,,,,,
,,,,,,,,,,,,,,,,,199402,19,2022-01-29_13h25.21.216,lexical_decision_task_DD,2021.2.3,MacIntel,59.99880002,,,,,,,,,,,,0.8196,1,,,,,,,,,,,,,,z,1,0.8196,,,,,,,,0.029019097,-0.378958333,0,0,0,,0,159,159,159,1,CUDDY,C,old,z,./images/CUDDY.png,,,,,,,,,,,,,,,,,,,,,,
,,,,,,,,,,,,,,,,,199402,19,2022-01-29_13h25.21.216,lexical_decision_task_DD,2021.2.3,MacIntel,59.99880002,,,,,,,,,,,,1.4206,1,,,,,,,,,,,,,,z,1,1.4206,,,,,,,,0.029019097,-0.378958333,0,0,0,,0,160,160,100,1,DRIBS,HB,old,z,./images/DRIBSHB.png,,,,,,,,,,,,,,,,,,,,,,
,,,,,,,,,,,,,,,,,199402,19,2022-01-29_13h25.21.216,lexical_decision_task_DD,2021.2.3,MacIntel,59.99880002,,,,,,,,,,,,0.7412,1,,,,,,,,,,,,,,z,1,0.7412,,,,,,,,0.029019097,-0.378958333,0,0,0,,0,161,161,98,1,BAMPS,LB,old,z,./images/BAMPSLB.png,,,,,,,,,,,,,,,,,,,,,,
,,,,,,,,,,,,,,,,,199402,19,2022-01-29_13h25.21.216,lexical_decision_task_DD,2021.2.3,MacIntel,59.99880002,,,,,,,,,,,,0.6549,1,,,,,,,,,,,,,,m,1,0.6549,,,,,,,,0.029019097,-0.378958333,0,0,0,,0,162,162,62,1,PURSE,LB,old,m,./images/PURSELB.png,,,,,,,,,,,,,,,,,,,,,,
,,,,,,,,,,,,,,,,,199402,19,2022-01-29_13h25.21.216,lexical_decision_task_DD,2021.2.3,MacIntel,59.99880002,,,,,,,,,,,,0.6066,1,,,,,,,,,,,,,,m,1,0.6066,,,,,,,,0.029019097,-0.378958333,0,0,0,,0,163,163,45,1,KITTEN,C,old,m,./images/KITTEN.png,,,,,,,,,,,,,,,,,,,,,,
,,,,,,,,,,,,,,,,,199402,19,2022-01-29_13h25.21.216,lexical_decision_task_DD,2021.2.3,MacIntel,59.99880002,,,,,,,,,,,,0.6649,1,,,,,,,,,,,,,,z,1,0.6649,,,,,,,,0.029019097,-0.378958333,0,0,0,,0,164,164,132,1,SCIFF,C,old,z,./images/SCIFF.png,,,,,,,,,,,,,,,,,,,,,,
,,,,,,,,,,,,,,,,,199402,19,2022-01-29_13h25.21.216,lexical_decision_task_DD,2021.2.3,MacIntel,59.99880002,,,,,,,,,,,,1.0352,1,,,,,,,,,,,,,,m,1,1.0352,,,,,,,,0.029019097,-0.378958333,0,0,0,,0,165,165,23,1,WALRUS,LB,old,m,./images/WALRUSLB.png,,,,,,,,,,,,,,,,,,,,,,
,,,,,,,,,,,,,,,,,199402,19,2022-01-29_13h25.21.216,lexical_decision_task_DD,2021.2.3,MacIntel,59.99880002,,,,,,,,,,,,0.7997,1,,,,,,,,,,,,,,z,1,0.7997,,,,,,,,0.029019097,-0.378958333,0,0,0,,0,166,166,135,1,JOODY,C,old,z,./images/JOODY.png,,,,,,,,,,,,,,,,,,,,,,
,,,,,,,,,,,,,,,,,199402,19,2022-01-29_13h25.21.216,lexical_decision_task_DD,2021.2.3,MacIntel,59.99880002,,,,,,,,,,,,0.8196,1,,,,,,,,,,,,,,z,1,0.8196,,,,,,,,0.029019097,-0.378958333,0,0,0,,0,167,167,102,1,DULLE,C,old,z,./images/DULLE.png,,,,,,,,,,,,,,,,,,,,,,
,,-0.064409722,-0.365403646,1,0,0,,,,,,1,test,"In the next phase you will be presented with the words from the the first phase. Your job is to decide whether you remember seeing the word or not. If you remember seeing the word press ""old"" or type ""m"". If you do not remember seeing the word press ""new"" or type ""z"". Please press the space bar or click on continue to begin. ",,,199402,19,2022-01-29_13h25.21.216,lexical_decision_task_DD,2021.2.3,MacIntel,59.99880002,instr_done_button,,,,,,,,,,,,,,,,,,,,,,,,,,,,,,,,,,,,,,,,,,,,,,,,,,,,,0,0,0,0,1,,,,,,,,,,,,,,,,
,,-0.064700521,-0.383763021,1,0,0,,,,,,1,test,"In the next phase you will be presented with the words from the the first phase. Your job is to decide whether you remember seeing the word or not. If you remember seeing the word press ""old"" or type ""m"". If you do not remember seeing the word press ""new"" or type ""z"". Please press the space bar or click on continue to begin. ",,,199402,19,2022-01-29_13h25.21.216,lexical_decision_task_DD,2021.2.3,MacIntel,59.99880002,instr_done_button,,,,,,,,,,,,,,,,,,,,,,,,,,,,,,,,,,,,,,,,,,,,,,,,,,,,,1,0,1,0,1,,,,,,,,,,,,,,,,
space,0.9515,-0.064700521,-0.383763021,0,0,0,,,,,,1,test,"In the next phase you will be presented with the words from the the first phase. Your job is to decide whether you remember seeing the word or not. If you remember seeing the word press ""old"" or type ""m"". If you do not remember seeing the word press ""new"" or type ""z"". Please press the space bar or click on continue to begin. ",,,199402,19,2022-01-29_13h25.21.216,lexical_decision_task_DD,2021.2.3,MacIntel,59.99880002,,,,,,,,,,,,,,,,,,,,,,,,,,,,,,,,,,,,,,,,,,,,,,,,,,,,,,2,0,2,0,1,,,,,,,,,,,,,,,,
space,3.9811,-0.024032118,-0.349405382,0,0,0,,,,,,1,test,"In the next phase you will be presented with the words from the the first phase. Your job is to decide whether you remember seeing the word or not. If you remember seeing the word press ""old"" or type ""m"". If you do not remember seeing the word press ""new"" or type ""z"". Please press the space bar or click on continue to begin. ",,,199402,19,2022-01-29_13h25.21.216,lexical_decision_task_DD,2021.2.3,MacIntel,59.99880002,,,,,,,,,,,,,,,,,,,,,,,,,,,,,,,,,,,,,,,,,,,,,,,,,,,,,,3,0,3,0,1,,,,,,,,,,,,,,,,
space,6.6294,-0.075221354,-0.370694444,0,0,0,,,,,,1,test,"In the next phase you will be presented with the words from the the first phase. Your job is to decide whether you remember seeing the word or not. If you remember seeing the word press ""old"" or type ""m"". If you do not remember seeing the word press ""new"" or type ""z"". Please press the space bar or click on continue to begin. ",,,199402,19,2022-01-29_13h25.21.216,lexical_decision_task_DD,2021.2.3,MacIntel,59.99880002,,,,,,,,,,,,,,,,,,,,,,,,,,,,,,,,,,,,,,,,,,,,,,,,,,,,,,4,0,4,0,1,,,,,,,,,,,,,,,,
,,,,,,,,,,,,,,,,,199402,19,2022-01-29_13h25.21.216,lexical_decision_task_DD,2021.2.3,MacIntel,59.99880002,,,,,,,,,,,,1.3452,1,,,,,,,,,,,,,,,,,,,,,,,,-0.075221354,-0.370694444,0,0,0,,,,,,,CRUMB,LB,m,m,./images/CRUMBLB.png,,,,,,,m,1,1.3452,,,,,,,,0,0,0,29,1,
,,,,,,,,,,,,,,,,,199402,19,2022-01-29_13h25.21.216,lexical_decision_task_DD,2021.2.3,MacIntel,59.99880002,,,,,,,,,,,,0.9473,1,,,,,,,,,,,,,,,,,,,,,,,,-0.075221354,-0.370694444,0,0,0,,,,,,,ARROW,C,z,m,./images/ARROW.png,,,,,,,z,1,0.9473,,,,,,,,0,1,1,153,1,
,,,,,,,,,,,,,,,,,199402,19,2022-01-29_13h25.21.216,lexical_decision_task_DD,2021.2.3,MacIntel,59.99880002,,,,,,,,,,,,0.9007,0,,,,,,,,,,,,,,,,,,,,,,,,-0.075221354,-0.370694444,0,0,0,,,,,,,BLOKE,C,z,m,./images/BLOKE.png,,,,,,,m,0,0.9007,,,,,,,,0,2,2,96,1,
,,,,,,,,,,,,,,,,,199402,19,2022-01-29_13h25.21.216,lexical_decision_task_DD,2021.2.3,MacIntel,59.99880002,,,,,,,,,,,,0.9137,1,,,,,,,,,,,,,,,,,,,,,,,,-0.075221354,-0.370694444,0,0,0,,,,,,,CHALK,HB,z,m,./images/CHALKHB.png,,,,,,,z,1,0.9137,,,,,,,,0,3,3,109,1,
,,,,,,,,,,,,,,,,,199402,19,2022-01-29_13h25.21.216,lexical_decision_task_DD,2021.2.3,MacIntel,59.99880002,,,,,,,,,,,,0.8038,1,,,,,,,,,,,,,,,,,,,,,,,,-0.075221354,-0.370694444,0,0,0,,,,,,,LADDER,LB,m,m,./images/LADDERLB.png,,,,,,,m,1,0.8038,,,,,,,,0,4,4,38,1,
,,,,,,,,,,,,,,,,,199402,19,2022-01-29_13h25.21.216,lexical_decision_task_DD,2021.2.3,MacIntel,59.99880002,,,,,,,,,,,,1.0089,0,,,,,,,,,,,,,,,,,,,,,,,,-0.075221354,-0.370694444,0,0,0,,,,,,,WHEEL,LB,z,m,./images/WHEELLB.png,,,,,,,m,0,1.0089,,,,,,,,0,5,5,161,1,
,,,,,,,,,,,,,,,,,199402,19,2022-01-29_13h25.21.216,lexical_decision_task_DD,2021.2.3,MacIntel,59.99880002,,,,,,,,,,,,1.0325,1,,,,,,,,,,,,,,,,,,,,,,,,-0.075221354,-0.370694444,0,0,0,,,,,,,HOCKEY,LB,z,m,./images/HOCKEYLB.png,,,,,,,z,1,1.0325,,,,,,,,0,6,6,116,1,
,,,,,,,,,,,,,,,,,199402,19,2022-01-29_13h25.21.216,lexical_decision_task_DD,2021.2.3,MacIntel,59.99880002,,,,,,,,,,,,0.9034,0,,,,,,,,,,,,,,,,,,,,,,,,-0.075221354,-0.370694444,0,0,0,,,,,,,HAMMER,C,z,m,./images/HAMMER.png,,,,,,,m,0,0.9034,,,,,,,,0,7,7,159,1,
,,,,,,,,,,,,,,,,,199402,19,2022-01-29_13h25.21.216,lexical_decision_task_DD,2021.2.3,MacIntel,59.99880002,,,,,,,,,,,,0.7157,1,,,,,,,,,,,,,,,,,,,,,,,,-0.075221354,-0.370694444,0,0,0,,,,,,,CEMENT,LB,m,m,./images/CEMENTLB.png,,,,,,,m,1,0.7157,,,,,,,,0,8,8,74,1,
,,,,,,,,,,,,,,,,,199402,19,2022-01-29_13h25.21.216,lexical_decision_task_DD,2021.2.3,MacIntel,59.99880002,,,,,,,,,,,,0.6756,1,,,,,,,,,,,,,,,,,,,,,,,,-0.075221354,-0.370694444,0,0,0,,,,,,,TOMATO,C,m,m,./images/TOMATO.png,,,,,,,m,1,0.6756,,,,,,,,0,9,9,0,1,
,,,,,,,,,,,,,,,,,199402,19,2022-01-29_13h25.21.216,lexical_decision_task_DD,2021.2.3,MacIntel,59.99880002,,,,,,,,,,,,0.8971,1,,,,,,,,,,,,,,,,,,,,,,,,-0.075221354,-0.370694444,0,0,0,,,,,,,DONKEY,HB,z,m,./images/DONKEYHB.png,,,,,,,z,1,0.8971,,,,,,,,0,10,10,103,1,
,,,,,,,,,,,,,,,,,199402,19,2022-01-29_13h25.21.216,lexical_decision_task_DD,2021.2.3,MacIntel,59.99880002,,,,,,,,,,,,0.7186,1,,,,,,,,,,,,,,,,,,,,,,,,-0.075221354,-0.370694444,0,0,0,,,,,,,MALLET,LB,m,m,./images/MALLETLB.png,,,,,,,m,1,0.7186,,,,,,,,0,11,11,50,1,
,,,,,,,,,,,,,,,,,199402,19,2022-01-29_13h25.21.216,lexical_decision_task_DD,2021.2.3,MacIntel,59.99880002,,,,,,,,,,,,0.9746,1,,,,,,,,,,,,,,,,,,,,,,,,-0.075221354,-0.370694444,0,0,0,,,,,,,BANANA,HB,z,m,./images/BANANAHB.png,,,,,,,z,1,0.9746,,,,,,,,0,12,12,154,1,
,,,,,,,,,,,,,,,,,199402,19,2022-01-29_13h25.21.216,lexical_decision_task_DD,2021.2.3,MacIntel,59.99880002,,,,,,,,,,,,0.8283,1,,,,,,,,,,,,,,,,,,,,,,,,-0.075221354,-0.370694444,0,0,0,,,,,,,JELLY,HB,m,m,./images/JELLYHB.png,,,,,,,m,1,0.8283,,,,,,,,0,13,13,64,1,
,,,,,,,,,,,,,,,,,199402,19,2022-01-29_13h25.21.216,lexical_decision_task_DD,2021.2.3,MacIntel,59.99880002,,,,,,,,,,,,0.7133,1,,,,,,,,,,,,,,,,,,,,,,,,-0.075221354,-0.370694444,0,0,0,,,,,,,STORM,C,m,m,./images/STORM.png,,,,,,,m,1,0.7133,,,,,,,,0,14,14,30,1,
,,,,,,,,,,,,,,,,,199402,19,2022-01-29_13h25.21.216,lexical_decision_task_DD,2021.2.3,MacIntel,59.99880002,,,,,,,,,,,,0.8762,1,,,,,,,,,,,,,,,,,,,,,,,,-0.075221354,-0.370694444,0,0,0,,,,,,,FINGER,C,m,m,./images/FINGER.png,,,,,,,m,1,0.8762,,,,,,,,0,15,15,3,1,
,,,,,,,,,,,,,,,,,199402,19,2022-01-29_13h25.21.216,lexical_decision_task_DD,2021.2.3,MacIntel,59.99880002,,,,,,,,,,,,0.8691,1,,,,,,,,,,,,,,,,,,,,,,,,-0.075221354,-0.370694444,0,0,0,,,,,,,POSTER,LB,z,m,./images/POSTERLB.png,,,,,,,z,1,0.8691,,,,,,,,0,16,16,137,1,
,,,,,,,,,,,,,,,,,199402,19,2022-01-29_13h25.21.216,lexical_decision_task_DD,2021.2.3,MacIntel,59.99880002,,,,,,,,,,,,1.5817,0,,,,,,,,,,,,,,,,,,,,,,,,-0.075221354,-0.370694444,0,0,0,,,,,,,TIGER,HB,z,m,./images/TIGERHB.png,,,,,,,m,0,1.5817,,,,,,,,0,17,17,121,1,
,,,,,,,,,,,,,,,,,199402,19,2022-01-29_13h25.21.216,lexical_decision_task_DD,2021.2.3,MacIntel,59.99880002,,,,,,,,,,,,1.0554,1,,,,,,,,,,,,,,,,,,,,,,,,-0.075221354,-0.370694444,0,0,0,,,,,,,MUMMY,HB,z,m,./images/MUMMYHB.png,,,,,,,z,1,1.0554,,,,,,,,0,18,18,130,1,
,,,,,,,,,,,,,,,,,199402,19,2022-01-29_13h25.21.216,lexical_decision_task_DD,2021.2.3,MacIntel,59.99880002,,,,,,,,,,,,0.788,1,,,,,,,,,,,,,,,,,,,,,,,,-0.075221354,-0.370694444,0,0,0,,,,,,,PAINT,HB,m,m,./images/PAINTHB.png,,,,,,,m,1,0.788,,,,,,,,0,19,19,7,1,
,,,,,,,,,,,,,,,,,199402,19,2022-01-29_13h25.21.216,lexical_decision_task_DD,2021.2.3,MacIntel,59.99880002,,,,,,,,,,,,1.0375,1,,,,,,,,,,,,,,,,,,,,,,,,-0.075221354,-0.370694444,0,0,0,,,,,,,STAIN,C,z,m,./images/STAIN.png,,,,,,,z,1,1.0375,,,,,,,,0,20,20,90,1,
,,,,,,,,,,,,,,,,,199402,19,2022-01-29_13h25.21.216,lexical_decision_task_DD,2021.2.3,MacIntel,59.99880002,,,,,,,,,,,,0.9351,1,,,,,,,,,,,,,,,,,,,,,,,,-0.075221354,-0.370694444,0,0,0,,,,,,,GRANNY,LB,z,m,./images/GRANNYLB.png,,,,,,,z,1,0.9351,,,,,,,,0,21,21,104,1,
,,,,,,,,,,,,,,,,,199402,19,2022-01-29_13h25.21.216,lexical_decision_task_DD,2021.2.3,MacIntel,59.99880002,,,,,,,,,,,,0.7327,1,,,,,,,,,,,,,,,,,,,,,,,,-0.075221354,-0.370694444,0,0,0,,,,,,,PIMPLE,LB,m,m,./images/PIMPLELB.png,,,,,,,m,1,0.7327,,,,,,,,0,22,22,71,1,
,,,,,,,,,,,,,,,,,199402,19,2022-01-29_13h25.21.216,lexical_decision_task_DD,2021.2.3,MacIntel,59.99880002,,,,,,,,,,,,0.8035,1,,,,,,,,,,,,,,,,,,,,,,,,-0.075221354,-0.370694444,0,0,0,,,,,,,BONNET,LB,m,m,./images/BONNETLB.png,,,,,,,m,1,0.8035,,,,,,,,0,23,23,11,1,
,,,,,,,,,,,,,,,,,199402,19,2022-01-29_13h25.21.216,lexical_decision_task_DD,2021.2.3,MacIntel,59.99880002,,,,,,,,,,,,0.6833,1,,,,,,,,,,,,,,,,,,,,,,,,-0.075221354,-0.370694444,0,0,0,,,,,,,PURSE,LB,m,m,./images/PURSELB.png,,,,,,,m,1,0.6833,,,,,,,,0,24,24,62,1,
,,,,,,,,,,,,,,,,,199402,19,2022-01-29_13h25.21.216,lexical_decision_task_DD,2021.2.3,MacIntel,59.99880002,,,,,,,,,,,,1.0338,1,,,,,,,,,,,,,,,,,,,,,,,,-0.075221354,-0.370694444,0,0,0,,,,,,,QUILL,HB,m,m,./images/QUILLHB.png,,,,,,,m,1,1.0338,,,,,,,,0,25,25,31,1,
,,,,,,,,,,,,,,,,,199402,19,2022-01-29_13h25.21.216,lexical_decision_task_DD,2021.2.3,MacIntel,59.99880002,,,,,,,,,,,,0.8971,1,,,,,,,,,,,,,,,,,,,,,,,,-0.075221354,-0.370694444,0,0,0,,,,,,,JUMPER,LB,z,m,./images/JUMPERLB.png,,,,,,,z,1,0.8971,,,,,,,,0,26,26,158,1,
,,,,,,,,,,,,,,,,,199402,19,2022-01-29_13h25.21.216,lexical_decision_task_DD,2021.2.3,MacIntel,59.99880002,,,,,,,,,,,,1.0507,1,,,,,,,,,,,,,,,,,,,,,,,,-0.075221354,-0.370694444,0,0,0,,,,,,,PEARL,HB,m,m,./images/PEARLHB.png,,,,,,,m,1,1.0507,,,,,,,,0,27,27,46,1,
,,,,,,,,,,,,,,,,,199402,19,2022-01-29_13h25.21.216,lexical_decision_task_DD,2021.2.3,MacIntel,59.99880002,,,,,,,,,,,,0.8964,1,,,,,,,,,,,,,,,,,,,,,,,,-0.075221354,-0.370694444,0,0,0,,,,,,,DESERT,HB,z,m,./images/DESERTHB.png,,,,,,,z,1,0.8964,,,,,,,,0,28,28,136,1,
,,,,,,,,,,,,,,,,,199402,19,2022-01-29_13h25.21.216,lexical_decision_task_DD,2021.2.3,MacIntel,59.99880002,,,,,,,,,,,,0.9366,1,,,,,,,,,,,,,,,,,,,,,,,,-0.075221354,-0.370694444,0,0,0,,,,,,,BIRTH,HB,m,m,./images/BIRTHHB.png,,,,,,,m,1,0.9366,,,,,,,,0,29,29,37,1,
,,,,,,,,,,,,,,,,,199402,19,2022-01-29_13h25.21.216,lexical_decision_task_DD,2021.2.3,MacIntel,59.99880002,,,,,,,,,,,,0.7404,1,,,,,,,,,,,,,,,,,,,,,,,,-0.075221354,-0.370694444,0,0,0,,,,,,,GREASE,C,m,m,./images/GREASE.png,,,,,,,m,1,0.7404,,,,,,,,0,30,30,15,1,
,,,,,,,,,,,,,,,,,199402,19,2022-01-29_13h25.21.216,lexical_decision_task_DD,2021.2.3,MacIntel,59.99880002,,,,,,,,,,,,0.6671,0,,,,,,,,,,,,,,,,,,,,,,,,-0.075221354,-0.370694444,0,0,0,,,,,,,BROOM,C,z,m,./images/BROOM.png,,,,,,,m,0,0.6671,,,,,,,,0,31,31,162,1,
,,,,,,,,,,,,,,,,,199402,19,2022-01-29_13h25.21.216,lexical_decision_task_DD,2021.2.3,MacIntel,59.99880002,,,,,,,,,,,,0.6635,1,,,,,,,,,,,,,,,,,,,,,,,,-0.075221354,-0.370694444,0,0,0,,,,,,,THROAT,C,m,m,./images/THROAT.png,,,,,,,m,1,0.6635,,,,,,,,0,32,32,36,1,
,,,,,,,,,,,,,,,,,199402,19,2022-01-29_13h25.21.216,lexical_decision_task_DD,2021.2.3,MacIntel,59.99880002,,,,,,,,,,,,0.8807,1,,,,,,,,,,,,,,,,,,,,,,,,-0.075221354,-0.370694444,0,0,0,,,,,,,SAUNA,C,z,m,./images/SAUNA.png,,,,,,,z,1,0.8807,,,,,,,,0,33,33,117,1,
,,,,,,,,,,,,,,,,,199402,19,2022-01-29_13h25.21.216,lexical_decision_task_DD,2021.2.3,MacIntel,59.99880002,,,,,,,,,,,,0.869,1,,,,,,,,,,,,,,,,,,,,,,,,-0.075221354,-0.370694444,0,0,0,,,,,,,SAUCE,C,z,m,./images/SAUCE.png,,,,,,,z,1,0.869,,,,,,,,0,34,34,135,1,
,,,,,,,,,,,,,,,,,199402,19,2022-01-29_13h25.21.216,lexical_decision_task_DD,2021.2.3,MacIntel,59.99880002,,,,,,,,,,,,0.9564,1,,,,,,,,,,,,,,,,,,,,,,,,-0.075221354,-0.370694444,0,0,0,,,,,,,MOOSE,C,m,m,./images/MOOSE.png,,,,,,,m,1,0.9564,,,,,,,,0,35,35,57,1,
,,,,,,,,,,,,,,,,,199402,19,2022-01-29_13h25.21.216,lexical_decision_task_DD,2021.2.3,MacIntel,59.99880002,,,,,,,,,,,,0.6893,1,,,,,,,,,,,,,,,,,,,,,,,,-0.075221354,-0.370694444,0,0,0,,,,,,,WEASEL,LB,m,m,./images/WEASELLB.png,,,,,,,m,1,0.6893,,,,,,,,0,36,36,80,1,
,,,,,,,,,,,,,,,,,199402,19,2022-01-29_13h25.21.216,lexical_decision_task_DD,2021.2.3,MacIntel,59.99880002,,,,,,,,,,,,0.6782,0,,,,,,,,,,,,,,,,,,,,,,,,-0.075221354,-0.370694444,0,0,0,,,,,,,DRILL,C,z,m,./images/DRILL.png,,,,,,,m,0,0.6782,,,,,,,,0,37,37,165,1,
,,,,,,,,,,,,,,,,,199402,19,2022-01-29_13h25.21.216,lexical_decision_task_DD,2021.2.3,MacIntel,59.99880002,,,,,,,,,,,,0.9008,1,,,,,,,,,,,,,,,,,,,,,,,,-0.075221354,-0.370694444,0,0,0,,,,,,,CLIFF,LB,z,m,./images/CLIFFLB.png,,,,,,,z,1,0.9008,,,,,,,,0,38,38,92,1,
,,,,,,,,,,,,,,,,,199402,19,2022-01-29_13h25.21.216,lexical_decision_task_DD,2021.2.3,MacIntel,59.99880002,,,,,,,,,,,,1.1341,1,,,,,,,,,,,,,,,,,,,,,,,,-0.075221354,-0.370694444,0,0,0,,,,,,,MAGGOT,C,m,m,./images/MAGGOT.png,,,,,,,m,1,1.1341,,,,,,,,0,39,39,33,1,
,,,,,,,,,,,,,,,,,199402,19,2022-01-29_13h25.21.216,lexical_decision_task_DD,2021.2.3,MacIntel,59.99880002,,,,,,,,,,,,1.9628,1,,,,,,,,,,,,,,,,,,,,,,,,-0.075221354,-0.370694444,0,0,0,,,,,,,CRATER,C,z,m,./images/CRATER.png,,,,,,,z,1,1.9628,,,,,,,,0,40,40,87,1,
,,,,,,,,,,,,,,,,,199402,19,2022-01-29_13h25.21.216,lexical_decision_task_DD,2021.2.3,MacIntel,59.99880002,,,,,,,,,,,,1.2638,1,,,,,,,,,,,,,,,,,,,,,,,,-0.075221354,-0.370694444,1,0,0,,,,,,,STOVE,LB,z,m,./images/STOVELB.png,break_done_button,,,,,,z,1,1.2638,,,,,,,,0,41,41,86,1,
,,,,,,,,,,,,,,,,,199402,19,2022-01-29_13h25.21.216,lexical_decision_task_DD,2021.2.3,MacIntel,59.99880002,,,,,,,,,,,,0.7317,1,,,,,,,,,,,,,,,,,,,,,,,,-0.075221354,-0.370694444,0,0,0,,,,,,,CRADLE,LB,m,m,./images/CRADLELB.png,,,,,,,m,1,0.7317,,,,,,,,0,42,42,20,1,
,,,,,,,,,,,,,,,,,199402,19,2022-01-29_13h25.21.216,lexical_decision_task_DD,2021.2.3,MacIntel,59.99880002,,,,,,,,,,,,1.0998,0,,,,,,,,,,,,,,,,,,,,,,,,-0.075221354,-0.370694444,0,0,0,,,,,,,COOKER,C,m,m,./images/COOKER.png,,,,,,,z,0,1.0998,,,,,,,,0,43,43,69,1,
,,,,,,,,,,,,,,,,,199402,19,2022-01-29_13h25.21.216,lexical_decision_task_DD,2021.2.3,MacIntel,59.99880002,,,,,,,,,,,,0.94,1,,,,,,,,,,,,,,,,,,,,,,,,-0.075221354,-0.370694444,0,0,0,,,,,,,BASKET,LB,z,m,./images/BASKETLB.png,,,,,,,z,1,0.94,,,,,,,,0,44,44,128,1,
,,,,,,,,,,,,,,,,,199402,19,2022-01-29_13h25.21.216,lexical_decision_task_DD,2021.2.3,MacIntel,59.99880002,,,,,,,,,,,,1.0754,1,,,,,,,,,,,,,,,,,,,,,,,,-0.075221354,-0.370694444,0,0,0,,,,,,,BAMBOO,LB,z,m,./images/BAMBOOLB.png,,,,,,,z,1,1.0754,,,,,,,,0,45,45,89,1,
,,,,,,,,,,,,,,,,,199402,19,2022-01-29_13h25.21.216,lexical_decision_task_DD,2021.2.3,MacIntel,59.99880002,,,,,,,,,,,,0.8508,1,,,,,,,,,,,,,,,,,,,,,,,,-0.075221354,-0.370694444,0,0,0,,,,,,,MIDGET,HB,z,m,./images/MIDGETHB.png,,,,,,,z,1,0.8508,,,,,,,,0,46,46,160,1,
,,,,,,,,,,,,,,,,,199402,19,2022-01-29_13h25.21.216,lexical_decision_task_DD,2021.2.3,MacIntel,59.99880002,,,,,,,,,,,,0.9311,1,,,,,,,,,,,,,,,,,,,,,,,,-0.075221354,-0.370694444,0,0,0,,,,,,,BISHOP,HB,z,m,./images/BISHOPHB.png,,,,,,,z,1,0.9311,,,,,,,,0,47,47,133,1,
,,,,,,,,,,,,,,,,,199402,19,2022-01-29_13h25.21.216,lexical_decision_task_DD,2021.2.3,MacIntel,59.99880002,,,,,,,,,,,,1.1353,1,,,,,,,,,,,,,,,,,,,,,,,,-0.075221354,-0.370694444,0,0,0,,,,,,,FARMER,LB,m,m,./images/FARMERLB.png,,,,,,,m,1,1.1353,,,,,,,,0,48,48,65,1,
,,,,,,,,,,,,,,,,,199402,19,2022-01-29_13h25.21.216,lexical_decision_task_DD,2021.2.3,MacIntel,59.99880002,,,,,,,,,,,,0.8482,1,,,,,,,,,,,,,,,,,,,,,,,,-0.075221354,-0.370694444,0,0,0,,,,,,,NOOSE,C,m,m,./images/NOOSE.png,,,,,,,m,1,0.8482,,,,,,,,0,49,49,72,1,
,,,,,,,,,,,,,,,,,199402,19,2022-01-29_13h25.21.216,lexical_decision_task_DD,2021.2.3,MacIntel,59.99880002,,,,,,,,,,,,0.6941,1,,,,,,,,,,,,,,,,,,,,,,,,-0.075221354,-0.370694444,0,0,0,,,,,,,BERRY,LB,m,m,./images/BERRYLB.png,,,,,,,m,1,0.6941,,,,,,,,0,50,50,47,1,
,,,,,,,,,,,,,,,,,199402,19,2022-01-29_13h25.21.216,lexical_decision_task_DD,2021.2.3,MacIntel,59.99880002,,,,,,,,,,,,0.8526,0,,,,,,,,,,,,,,,,,,,,,,,,-0.075221354,-0.370694444,0,0,0,,,,,,,SAILOR,HB,m,m,./images/SAILORHB.png,,,,,,,z,0,0.8526,,,,,,,,0,51,51,67,1,
,,,,,,,,,,,,,,,,,199402,19,2022-01-29_13h25.21.216,lexical_decision_task_DD,2021.2.3,MacIntel,59.99880002,,,,,,,,,,,,0.7511,1,,,,,,,,,,,,,,,,,,,,,,,,-0.075221354,-0.370694444,0,0,0,,,,,,,MUSCLE,HB,m,m,./images/MUSCLEHB.png,,,,,,,m,1,0.7511,,,,,,,,0,52,52,4,1,
,,,,,,,,,,,,,,,,,199402,19,2022-01-29_13h25.21.216,lexical_decision_task_DD,2021.2.3,MacIntel,59.99880002,,,,,,,,,,,,0.8828,0,,,,,,,,,,,,,,,,,,,,,,,,-0.075221354,-0.370694444,0,0,0,,,,,,,PICKLE,LB,m,m,./images/PICKLELB.png,,,,,,,z,0,0.8828,,,,,,,,0,53,53,14,1,
,,,,,,,,,,,,,,,,,199402,19,2022-01-29_13h25.21.216,lexical_decision_task_DD,2021.2.3,MacIntel,59.99880002,,,,,,,,,,,,0.8354,1,,,,,,,,,,,,,,,,,,,,,,,,-0.075221354,-0.370694444,0,0,0,,,,,,,TRIPOD,C,m,m,./images/TRIPOD.png,,,,,,,m,1,0.8354,,,,,,,,0,54,54,54,1,
,,,,,,,,,,,,,,,,,199402,19,2022-01-29_13h25.21.216,lexical_decision_task_DD,2021.2.3,MacIntel,59.99880002,,,,,,,,,,,,0.7051,1,,,,,,,,,,,,,,,,,,,,,,,,-0.075221354,-0.370694444,0,0,0,,,,,,,SNACK,HB,m,m,./images/SNACKHB.png,,,,,,,m,1,0.7051,,,,,,,,0,55,55,73,1,
,,,,,,,,,,,,,,,,,199402,19,2022-01-29_13h25.21.216,lexical_decision_task_DD,2021.2.3,MacIntel,59.99880002,,,,,,,,,,,,0.8511,1,,,,,,,,,,,,,,,,,,,,,,,,-0.075221354,-0.370694444,0,0,0,,,,,,,BOXER,HB,z,m,./images/BOXERHB.png,,,,,,,z,1,0.8511,,,,,,,,0,56,56,88,1,
,,,,,,,,,,,,,,,,,199402,19,2022-01-29_13h25.21.216,lexical_decision_task_DD,2021.2.3,MacIntel,59.99880002,,,,,,,,,,,,0.9527,1,,,,,,,,,,,,,,,,,,,,,,,,-0.075221354,-0.370694444,0,0,0,,,,,,,LIZARD,LB,m,m,./images/LIZARDLB.png,,,,,,,m,1,0.9527,,,,,,,,0,57,57,44,1,
,,,,,,,,,,,,,,,,,199402,19,2022-01-29_13h25.21.216,lexical_decision_task_DD,2021.2.3,MacIntel,59.99880002,,,,,,,,,,,,0.7849,1,,,,,,,,,,,,,,,,,,,,,,,,-0.075221354,-0.370694444,0,0,0,,,,,,,PISTOL,LB,z,m,./images/PISTOLLB.png,,,,,,,z,1,0.7849,,,,,,,,0,58,58,113,1,
,,,,,,,,,,,,,,,,,199402,19,2022-01-29_13h25.21.216,lexical_decision_task_DD,2021.2.3,MacIntel,59.99880002,,,,,,,,,,,,0.7829,1,,,,,,,,,,,,,,,,,,,,,,,,-0.075221354,-0.370694444,0,0,0,,,,,,,URINE,HB,m,m,./images/URINEHB.png,,,,,,,m,1,0.7829,,,,,,,,0,59,59,70,1,
,,,,,,,,,,,,,,,,,199402,19,2022-01-29_13h25.21.216,lexical_decision_task_DD,2021.2.3,MacIntel,59.99880002,,,,,,,,,,,,1.3452,1,,,,,,,,,,,,,,,,,,,,,,,,-0.075221354,-0.370694444,0,0,0,,,,,,,FLASK,C,z,m,./images/FLASK.png,,,,,,,z,1,1.3452,,,,,,,,0,60,60,156,1,
,,,,,,,,,,,,,,,,,199402,19,2022-01-29_13h25.21.216,lexical_decision_task_DD,2021.2.3,MacIntel,59.99880002,,,,,,,,,,,,0.751,1,,,,,,,,,,,,,,,,,,,,,,,,-0.075221354,-0.370694444,0,0,0,,,,,,,TORCH,LB,m,m,./images/TORCHLB.png,,,,,,,m,1,0.751,,,,,,,,0,61,61,68,1,
,,,,,,,,,,,,,,,,,199402,19,2022-01-29_13h25.21.216,lexical_decision_task_DD,2021.2.3,MacIntel,59.99880002,,,,,,,,,,,,1.0541,1,,,,,,,,,,,,,,,,,,,,,,,,-0.075221354,-0.370694444,0,0,0,,,,,,,MOSQUE,HB,m,m,./images/MOSQUEHB.png,,,,,,,m,1,1.0541,,,,,,,,0,62,62,43,1,
,,,,,,,,,,,,,,,,,199402,19,2022-01-29_13h25.21.216,lexical_decision_task_DD,2021.2.3,MacIntel,59.99880002,,,,,,,,,,,,1.0807,0,,,,,,,,,,,,,,,,,,,,,,,,-0.075221354,-0.370694444,0,0,0,,,,,,,FENCE,LB,z,m,./images/FENCELB.png,,,,,,,m,0,1.0807,,,,,,,,0,63,63,98,1,
,,,,,,,,,,,,,,,,,199402,19,2022-01-29_13h25.21.216,lexical_decision_task_DD,2021.2.3,MacIntel,59.99880002,,,,,,,,,,,,1.2662,1,,,,,,,,,,,,,,,,,,,,,,,,-0.075221354,-0.370694444,0,0,0,,,,,,,LLAMA,LB,z,m,./images/LLAMALB.png,,,,,,,z,1,1.2662,,,,,,,,0,64,64,119,1,
,,,,,,,,,,,,,,,,,199402,19,2022-01-29_13h25.21.216,lexical_decision_task_DD,2021.2.3,MacIntel,59.99880002,,,,,,,,,,,,0.8777,1,,,,,,,,,,,,,,,,,,,,,,,,-0.075221354,-0.370694444,0,0,0,,,,,,,PEBBLE,HB,z,m,./images/PEBBLEHB.png,,,,,,,z,1,0.8777,,,,,,,,0,65,65,166,1,
,,,,,,,,,,,,,,,,,199402,19,2022-01-29_13h25.21.216,lexical_decision_task_DD,2021.2.3,MacIntel,59.99880002,,,,,,,,,,,,1.634,0,,,,,,,,,,,,,,,,,,,,,,,,-0.075221354,-0.370694444,0,0,0,,,,,,,TWINS,C,m,m,./images/TWINS.png,,,,,,,z,0,1.634,,,,,,,,0,66,66,60,1,
,,,,,,,,,,,,,,,,,199402,19,2022-01-29_13h25.21.216,lexical_decision_task_DD,2021.2.3,MacIntel,59.99880002,,,,,,,,,,,,0.8791,1,,,,,,,,,,,,,,,,,,,,,,,,-0.075221354,-0.370694444,0,0,0,,,,,,,GARDEN,HB,z,m,./images/GARDENHB.png,,,,,,,z,1,0.8791,,,,,,,,0,67,67,94,1,
,,,,,,,,,,,,,,,,,199402,19,2022-01-29_13h25.21.216,lexical_decision_task_DD,2021.2.3,MacIntel,59.99880002,,,,,,,,,,,,1.1298,1,,,,,,,,,,,,,,,,,,,,,,,,-0.075221354,-0.370694444,0,0,0,,,,,,,MONKEY,C,z,m,./images/MONKEY.png,,,,,,,z,1,1.1298,,,,,,,,0,68,68,129,1,
,,,,,,,,,,,,,,,,,199402,19,2022-01-29_13h25.21.216,lexical_decision_task_DD,2021.2.3,MacIntel,59.99880002,,,,,,,,,,,,1.3172,0,,,,,,,,,,,,,,,,,,,,,,,,-0.075221354,-0.370694444,0,0,0,,,,,,,SHIELD,C,z,m,./images/SHIELD.png,,,,,,,m,0,1.3172,,,,,,,,0,69,69,132,1,
,,,,,,,,,,,,,,,,,199402,19,2022-01-29_13h25.21.216,lexical_decision_task_DD,2021.2.3,MacIntel,59.99880002,,,,,,,,,,,,0.6852,1,,,,,,,,,,,,,,,,,,,,,,,,-0.075221354,-0.370694444,0,0,0,,,,,,,BARREL,LB,m,m,./images/BARRELLB.png,,,,,,,m,1,0.6852,,,,,,,,0,70,70,32,1,
,,,,,,,,,,,,,,,,,199402,19,2022-01-29_13h25.21.216,lexical_decision_task_DD,2021.2.3,MacIntel,59.99880002,,,,,,,,,,,,0.8904,0,,,,,,,,,,,,,,,,,,,,,,,,-0.075221354,-0.370694444,0,0,0,,,,,,,CANDLE,HB,m,m,./images/CANDLEHB.png,,,,,,,z,0,0.8904,,,,,,,,0,71,71,61,1,
,,,,,,,,,,,,,,,,,199402,19,2022-01-29_13h25.21.216,lexical_decision_task_DD,2021.2.3,MacIntel,59.99880002,,,,,,,,,,,,1.1504,1,,,,,,,,,,,,,,,,,,,,,,,,-0.075221354,-0.370694444,0,0,0,,,,,,,CURRY,C,z,m,./images/CURRY.png,,,,,,,z,1,1.1504,,,,,,,,0,72,72,144,1,
,,,,,,,,,,,,,,,,,199402,19,2022-01-29_13h25.21.216,lexical_decision_task_DD,2021.2.3,MacIntel,59.99880002,,,,,,,,,,,,1.4754,1,,,,,,,,,,,,,,,,,,,,,,,,-0.075221354,-0.370694444,0,0,0,,,,,,,GLOVE,HB,z,m,./images/GLOVEHB.png,,,,,,,z,1,1.4754,,,,,,,,0,73,73,157,1,
,,,,,,,,,,,,,,,,,199402,19,2022-01-29_13h25.21.216,lexical_decision_task_DD,2021.2.3,MacIntel,59.99880002,,,,,,,,,,,,1.0016,1,,,,,,,,,,,,,,,,,,,,,,,,-0.075221354,-0.370694444,0,0,0,,,,,,,STATUE,C,z,m,./images/STATUE.png,,,,,,,z,1,1.0016,,,,,,,,0,74,74,150,1,
,,,,,,,,,,,,,,,,,199402,19,2022-01-29_13h25.21.216,lexical_decision_task_DD,2021.2.3,MacIntel,59.99880002,,,,,,,,,,,,1.0848,1,,,,,,,,,,,,,,,,,,,,,,,,-0.075221354,-0.370694444,0,0,0,,,,,,,STREAM,LB,z,m,./images/STREAMLB.png,,,,,,,z,1,1.0848,,,,,,,,0,75,75,125,1,
,,,,,,,,,,,,,,,,,199402,19,2022-01-29_13h25.21.216,lexical_decision_task_DD,2021.2.3,MacIntel,59.99880002,,,,,,,,,,,,0.8853,1,,,,,,,,,,,,,,,,,,,,,,,,-0.075221354,-0.370694444,0,0,0,,,,,,,CANYON,HB,m,m,./images/CANYONHB.png,,,,,,,m,1,0.8853,,,,,,,,0,76,76,34,1,
,,,,,,,,,,,,,,,,,199402,19,2022-01-29_13h25.21.216,lexical_decision_task_DD,2021.2.3,MacIntel,59.99880002,,,,,,,,,,,,1.0166,1,,,,,,,,,,,,,,,,,,,,,,,,-0.075221354,-0.370694444,0,0,0,,,,,,,TOWEL,HB,z,m,./images/TOWELHB.png,,,,,,,z,1,1.0166,,,,,,,,0,77,77,85,1,
,,,,,,,,,,,,,,,,,199402,19,2022-01-29_13h25.21.216,lexical_decision_task_DD,2021.2.3,MacIntel,59.99880002,,,,,,,,,,,,1.4171,0,,,,,,,,,,,,,,,,,,,,,,,,-0.075221354,-0.370694444,0,0,0,,,,,,,STEAK,HB,z,m,./images/STEAKHB.png,,,,,,,m,0,1.4171,,,,,,,,0,78,78,115,1,
,,,,,,,,,,,,,,,,,199402,19,2022-01-29_13h25.21.216,lexical_decision_task_DD,2021.2.3,MacIntel,59.99880002,,,,,,,,,,,,0.8116,1,,,,,,,,,,,,,,,,,,,,,,,,-0.075221354,-0.370694444,0,0,0,,,,,,,RULER,HB,z,m,./images/RULERHB.png,,,,,,,z,1,0.8116,,,,,,,,0,79,79,163,1,
,,,,,,,,,,,,,,,,,199402,19,2022-01-29_13h25.21.216,lexical_decision_task_DD,2021.2.3,MacIntel,59.99880002,,,,,,,,,,,,0.8387,1,,,,,,,,,,,,,,,,,,,,,,,,-0.075221354,-0.370694444,0,0,0,,,,,,,DIVER,C,z,m,./images/DIVER.png,,,,,,,z,1,0.8387,,,,,,,,0,80,80,93,1,
,,,,,,,,,,,,,,,,,199402,19,2022-01-29_13h25.21.216,lexical_decision_task_DD,2021.2.3,MacIntel,59.99880002,,,,,,,,,,,,0.6883,1,,,,,,,,,,,,,,,,,,,,,,,,-0.075221354,-0.370694444,0,0,0,,,,,,,BOILER,C,z,m,./images/BOILER.png,,,,,,,z,1,0.6883,,,,,,,,0,81,81,120,1,
,,,,,,,,,,,,,,,,,199402,19,2022-01-29_13h25.21.216,lexical_decision_task_DD,2021.2.3,MacIntel,59.99880002,,,,,,,,,,,,0.8589,0,,,,,,,,,,,,,,,,,,,,,,,,-0.075221354,-0.370694444,0,0,0,,,,,,,CLOTH,LB,z,m,./images/CLOTHLB.png,,,,,,,m,0,0.8589,,,,,,,,0,82,82,107,1,
,,,,,,,,,,,,,,,,,199402,19,2022-01-29_13h25.21.216,lexical_decision_task_DD,2021.2.3,MacIntel,59.99880002,,,,,,,,,,,,0.7159,1,,,,,,,,,,,,,,,,,,,,,,,,-0.075221354,-0.370694444,0,0,0,space,,,,,,PEACH,LB,m,m,./images/PEACHLB.png,,,,,,,m,1,0.7159,,,,,,,,0,83,83,35,1,34.3041
,,,,,,,,,,,,,,,,,199402,19,2022-01-29_13h25.21.216,lexical_decision_task_DD,2021.2.3,MacIntel,59.99880002,,,,,,,,,,,,0.7812,1,,,,,,,,,,,,,,,,,,,,,,,,-0.075221354,-0.370694444,0,0,0,,,,,,,LITTER,C,m,m,./images/LITTER.png,,,,,,,m,1,0.7812,,,,,,,,0,84,84,78,1,
,,,,,,,,,,,,,,,,,199402,19,2022-01-29_13h25.21.216,lexical_decision_task_DD,2021.2.3,MacIntel,59.99880002,,,,,,,,,,,,0.7301,0,,,,,,,,,,,,,,,,,,,,,,,,-0.075221354,-0.370694444,0,0,0,,,,,,,BUNNY,HB,z,m,./images/BUNNYHB.png,,,,,,,m,0,0.7301,,,,,,,,0,85,85,97,1,
,,,,,,,,,,,,,,,,,199402,19,2022-01-29_13h25.21.216,lexical_decision_task_DD,2021.2.3,MacIntel,59.99880002,,,,,,,,,,,,0.9309,0,,,,,,,,,,,,,,,,,,,,,,,,-0.075221354,-0.370694444,0,0,0,,,,,,,BRUSH,LB,z,m,./images/BRUSHLB.png,,,,,,,m,0,0.9309,,,,,,,,0,86,86,143,1,
,,,,,,,,,,,,,,,,,199402,19,2022-01-29_13h25.21.216,lexical_decision_task_DD,2021.2.3,MacIntel,59.99880002,,,,,,,,,,,,0.6481,1,,,,,,,,,,,,,,,,,,,,,,,,-0.075221354,-0.370694444,0,0,0,,,,,,,BANNER,HB,m,m,./images/BANNERHB.png,,,,,,,m,1,0.6481,,,,,,,,0,87,87,52,1,
,,,,,,,,,,,,,,,,,199402,19,2022-01-29_13h25.21.216,lexical_decision_task_DD,2021.2.3,MacIntel,59.99880002,,,,,,,,,,,,0.7458,1,,,,,,,,,,,,,,,,,,,,,,,,-0.075221354,-0.370694444,0,0,0,,,,,,,ENGINE,LB,z,m,./images/ENGINELB.png,,,,,,,z,1,0.7458,,,,,,,,0,88,88,122,1,
,,,,,,,,,,,,,,,,,199402,19,2022-01-29_13h25.21.216,lexical_decision_task_DD,2021.2.3,MacIntel,59.99880002,,,,,,,,,,,,0.7174,1,,,,,,,,,,,,,,,,,,,,,,,,-0.075221354,-0.370694444,0,0,0,,,,,,,MUFFIN,HB,m,m,./images/MUFFINHB.png,,,,,,,m,1,0.7174,,,,,,,,0,89,89,55,1,
,,,,,,,,,,,,,,,,,199402,19,2022-01-29_13h25.21.216,lexical_decision_task_DD,2021.2.3,MacIntel,59.99880002,,,,,,,,,,,,1.9015,1,,,,,,,,,,,,,,,,,,,,,,,,-0.075221354,-0.370694444,0,0,0,,,,,,,MOTOR,HB,m,m,./images/MOTORHB.png,,,,,,,m,1,1.9015,,,,,,,,0,90,90,13,1,
,,,,,,,,,,,,,,,,,199402,19,2022-01-29_13h25.21.216,lexical_decision_task_DD,2021.2.3,MacIntel,59.99880002,,,,,,,,,,,,0.9478,1,,,,,,,,,,,,,,,,,,,,,,,,-0.075221354,-0.370694444,0,0,0,,,,,,,JAGUAR,C,m,m,./images/JAGUAR.png,,,,,,,m,1,0.9478,,,,,,,,0,91,91,18,1,
,,,,,,,,,,,,,,,,,199402,19,2022-01-29_13h25.21.216,lexical_decision_task_DD,2021.2.3,MacIntel,59.99880002,,,,,,,,,,,,0.9319,1,,,,,,,,,,,,,,,,,,,,,,,,-0.075221354,-0.370694444,0,0,0,,,,,,,BUBBLE,LB,z,m,./images/BUBBLELB.png,,,,,,,z,1,0.9319,,,,,,,,0,92,92,155,1,
,,,,,,,,,,,,,,,,,199402,19,2022-01-29_13h25.21.216,lexical_decision_task_DD,2021.2.3,MacIntel,59.99880002,,,,,,,,,,,,0.8043,1,,,,,,,,,,,,,,,,,,,,,,,,-0.075221354,-0.370694444,0,0,0,,,,,,,POKER,HB,z,m,./images/POKERHB.png,,,,,,,z,1,0.8043,,,,,,,,0,93,93,151,1,
,,,,,,,,,,,,,,,,,199402,19,2022-01-29_13h25.21.216,lexical_decision_task_DD,2021.2.3,MacIntel,59.99880002,,,,,,,,,,,,0.7874,1,,,,,,,,,,,,,,,,,,,,,,,,-0.075221354,-0.370694444,0,0,0,,,,,,,SWING,HB,m,m,./images/SWINGHB.png,,,,,,,m,1,0.7874,,,,,,,,0,94,94,40,1,
,,,,,,,,,,,,,,,,,199402,19,2022-01-29_13h25.21.216,lexical_decision_task_DD,2021.2.3,MacIntel,59.99880002,,,,,,,,,,,,0.7866,0,,,,,,,,,,,,,,,,,,,,,,,,-0.075221354,-0.370694444,0,0,0,,,,,,,SUNSET,HB,m,m,./images/SUNSETHB.png,,,,,,,z,0,0.7866,,,,,,,,0,95,95,82,1,
,,,,,,,,,,,,,,,,,199402,19,2022-01-29_13h25.21.216,lexical_decision_task_DD,2021.2.3,MacIntel,59.99880002,,,,,,,,,,,,1.563,0,,,,,,,,,,,,,,,,,,,,,,,,-0.075221354,-0.370694444,0,0,0,,,,,,,FALCON,HB,m,m,./images/FALCONHB.png,,,,,,,z,0,1.563,,,,,,,,0,96,96,28,1,
,,,,,,,,,,,,,,,,,199402,19,2022-01-29_13h25.21.216,lexical_decision_task_DD,2021.2.3,MacIntel,59.99880002,,,,,,,,,,,,0.9581,1,,,,,,,,,,,,,,,,,,,,,,,,-0.075221354,-0.370694444,0,0,0,,,,,,,MAMMAL,LB,z,m,./images/MAMMALLB.png,,,,,,,z,1,0.9581,,,,,,,,0,97,97,146,1,
,,,,,,,,,,,,,,,,,199402,19,2022-01-29_13h25.21.216,lexical_decision_task_DD,2021.2.3,MacIntel,59.99880002,,,,,,,,,,,,0.8021,1,,,,,,,,,,,,,,,,,,,,,,,,-0.075221354,-0.370694444,0,0,0,,,,,,,COUCH,LB,m,m,./images/COUCHLB.png,,,,,,,m,1,0.8021,,,,,,,,0,98,98,77,1,
,,,,,,,,,,,,,,,,,199402,19,2022-01-29_13h25.21.216,lexical_decision_task_DD,2021.2.3,MacIntel,59.99880002,,,,,,,,,,,,0.7463,1,,,,,,,,,,,,,,,,,,,,,,,,-0.075221354,-0.370694444,0,0,0,,,,,,,CARPET,LB,m,m,./images/CARPETLB.png,,,,,,,m,1,0.7463,,,,,,,,0,99,99,53,1,
,,,,,,,,,,,,,,,,,199402,19,2022-01-29_13h25.21.216,lexical_decision_task_DD,2021.2.3,MacIntel,59.99880002,,,,,,,,,,,,1.3619,0,,,,,,,,,,,,,,,,,,,,,,,,-0.075221354,-0.370694444,0,0,0,,,,,,,PASTA,LB,m,m,./images/PASTALB.png,,,,,,,z,0,1.3619,,,,,,,,0,100,100,5,1,
,,,,,,,,,,,,,,,,,199402,19,2022-01-29_13h25.21.216,lexical_decision_task_DD,2021.2.3,MacIntel,59.99880002,,,,,,,,,,,,0.8501,1,,,,,,,,,,,,,,,,,,,,,,,,-0.075221354,-0.370694444,0,0,0,,,,,,,DOUGH,HB,m,m,./images/DOUGHHB.png,,,,,,,m,1,0.8501,,,,,,,,0,101,101,19,1,
,,,,,,,,,,,,,,,,,199402,19,2022-01-29_13h25.21.216,lexical_decision_task_DD,2021.2.3,MacIntel,59.99880002,,,,,,,,,,,,1.1216,0,,,,,,,,,,,,,,,,,,,,,,,,-0.075221354,-0.370694444,0,0,0,,,,,,,KIDNEY,C,m,m,./images/KIDNEY.png,,,,,,,z,0,1.1216,,,,,,,,0,102,102,21,1,
,,,,,,,,,,,,,,,,,199402,19,2022-01-29_13h25.21.216,lexical_decision_task_DD,2021.2.3,MacIntel,59.99880002,,,,,,,,,,,,0.9288,1,,,,,,,,,,,,,,,,,,,,,,,,-0.075221354,-0.370694444,0,0,0,,,,,,,STOOL,HB,z,m,./images/STOOLHB.png,,,,,,,z,1,0.9288,,,,,,,,0,103,103,127,1,
,,,,,,,,,,,,,,,,,199402,19,2022-01-29_13h25.21.216,lexical_decision_task_DD,2021.2.3,MacIntel,59.99880002,,,,,,,,,,,,0.9249,1,,,,,,,,,,,,,,,,,,,,,,,,-0.075221354,-0.370694444,0,0,0,,,,,,,HEATER,LB,z,m,./images/HEATERLB.png,,,,,,,z,1,0.9249,,,,,,,,0,104,104,140,1,
,,,,,,,,,,,,,,,,,199402,19,2022-01-29_13h25.21.216,lexical_decision_task_DD,2021.2.3,MacIntel,59.99880002,,,,,,,,,,,,0.7147,1,,,,,,,,,,,,,,,,,,,,,,,,-0.075221354,-0.370694444,0,0,0,,,,,,,PARCEL,C,z,m,./images/PARCEL.png,,,,,,,z,1,0.7147,,,,,,,,0,105,105,102,1,
,,,,,,,,,,,,,,,,,199402,19,2022-01-29_13h25.21.216,lexical_decision_task_DD,2021.2.3,MacIntel,59.99880002,,,,,,,,,,,,0.9023,1,,,,,,,,,,,,,,,,,,,,,,,,-0.075221354,-0.370694444,0,0,0,,,,,,,SCREW,C,m,m,./images/SCREW.png,,,,,,,m,1,0.9023,,,,,,,,0,106,106,24,1,
,,,,,,,,,,,,,,,,,199402,19,2022-01-29_13h25.21.216,lexical_decision_task_DD,2021.2.3,MacIntel,59.99880002,,,,,,,,,,,,1.3655,0,,,,,,,,,,,,,,,,,,,,,,,,-0.075221354,-0.370694444,0,0,0,,,,,,,PILOT,LB,z,m,./images/PILOTLB.png,,,,,,,m,0,1.3655,,,,,,,,0,107,107,134,1,
,,,,,,,,,,,,,,,,,199402,19,2022-01-29_13h25.21.216,lexical_decision_task_DD,2021.2.3,MacIntel,59.99880002,,,,,,,,,,,,2.1807,1,,,,,,,,,,,,,,,,,,,,,,,,-0.075221354,-0.370694444,0,0,0,,,,,,,ALLEY,HB,z,m,./images/ALLEYHB.png,,,,,,,z,1,2.1807,,,,,,,,0,108,108,139,1,
,,,,,,,,,,,,,,,,,199402,19,2022-01-29_13h25.21.216,lexical_decision_task_DD,2021.2.3,MacIntel,59.99880002,,,,,,,,,,,,1.5161,0,,,,,,,,,,,,,,,,,,,,,,,,-0.075221354,-0.370694444,0,0,0,,,,,,,CANDY,C,z,m,./images/CANDY.png,,,,,,,m,0,1.5161,,,,,,,,0,109,109,123,1,
,,,,,,,,,,,,,,,,,199402,19,2022-01-29_13h25.21.216,lexical_decision_task_DD,2021.2.3,MacIntel,59.99880002,,,,,,,,,,,,0.8691,0,,,,,,,,,,,,,,,,,,,,,,,,-0.075221354,-0.370694444,0,0,0,,,,,,,PARADE,LB,z,m,./images/PARADELB.png,,,,,,,m,0,0.8691,,,,,,,,0,110,110,101,1,
,,,,,,,,,,,,,,,,,199402,19,2022-01-29_13h25.21.216,lexical_decision_task_DD,2021.2.3,MacIntel,59.99880002,,,,,,,,,,,,0.7548,1,,,,,,,,,,,,,,,,,,,,,,,,-0.075221354,-0.370694444,0,0,0,,,,,,,CLOWN,HB,z,m,./images/CLOWNHB.png,,,,,,,z,1,0.7548,,,,,,,,0,111,111,106,1,
,,,,,,,,,,,,,,,,,199402,19,2022-01-29_13h25.21.216,lexical_decision_task_DD,2021.2.3,MacIntel,59.99880002,,,,,,,,,,,,0.9698,1,,,,,,,,,,,,,,,,,,,,,,,,-0.075221354,-0.370694444,0,0,0,,,,,,,SNAKE,HB,z,m,./images/SNAKEHB.png,,,,,,,z,1,0.9698,,,,,,,,0,112,112,124,1,
,,,,,,,,,,,,,,,,,199402,19,2022-01-29_13h25.21.216,lexical_decision_task_DD,2021.2.3,MacIntel,59.99880002,,,,,,,,,,,,1.1855,1,,,,,,,,,,,,,,,,,,,,,,,,-0.075221354,-0.370694444,0,0,0,,,,,,,BURIAL,LB,m,m,./images/BURIALLB.png,,,,,,,m,1,1.1855,,,,,,,,0,113,113,59,1,
,,,,,,,,,,,,,,,,,199402,19,2022-01-29_13h25.21.216,lexical_decision_task_DD,2021.2.3,MacIntel,59.99880002,,,,,,,,,,,,0.7458,1,,,,,,,,,,,,,,,,,,,,,,,,-0.075221354,-0.370694444,0,0,0,,,,,,,KITTEN,C,m,m,./images/KITTEN.png,,,,,,,m,1,0.7458,,,,,,,,0,114,114,45,1,
,,,,,,,,,,,,,,,,,199402,19,2022-01-29_13h25.21.216,lexical_decision_task_DD,2021.2.3,MacIntel,59.99880002,,,,,,,,,,,,0.8952,1,,,,,,,,,,,,,,,,,,,,,,,,-0.075221354,-0.370694444,0,0,0,,,,,,,SLOPE,C,z,m,./images/SLOPE.png,,,,,,,z,1,0.8952,,,,,,,,0,115,115,114,1,
,,,,,,,,,,,,,,,,,199402,19,2022-01-29_13h25.21.216,lexical_decision_task_DD,2021.2.3,MacIntel,59.99880002,,,,,,,,,,,,1.1503,0,,,,,,,,,,,,,,,,,,,,,,,,-0.075221354,-0.370694444,0,0,0,,,,,,,FLESH,C,z,m,./images/FLESH.png,,,,,,,m,0,1.1503,,,,,,,,0,116,116,108,1,
,,,,,,,,,,,,,,,,,199402,19,2022-01-29_13h25.21.216,lexical_decision_task_DD,2021.2.3,MacIntel,59.99880002,,,,,,,,,,,,0.8952,1,,,,,,,,,,,,,,,,,,,,,,,,-0.075221354,-0.370694444,0,0,0,,,,,,,INFANT,HB,m,m,./images/INFANTHB.png,,,,,,,m,1,0.8952,,,,,,,,0,117,117,76,1,
,,,,,,,,,,,,,,,,,199402,19,2022-01-29_13h25.21.216,lexical_decision_task_DD,2021.2.3,MacIntel,59.99880002,,,,,,,,,,,,0.7787,0,,,,,,,,,,,,,,,,,,,,,,,,-0.075221354,-0.370694444,0,0,0,,,,,,,WAGON,HB,z,m,./images/WAGONHB.png,,,,,,,m,0,0.7787,,,,,,,,0,118,118,91,1,
,,,,,,,,,,,,,,,,,199402,19,2022-01-29_13h25.21.216,lexical_decision_task_DD,2021.2.3,MacIntel,59.99880002,,,,,,,,,,,,0.6866,1,,,,,,,,,,,,,,,,,,,,,,,,-0.075221354,-0.370694444,0,0,0,,,,,,,TULIP,LB,m,m,./images/TULIPLB.png,,,,,,,m,1,0.6866,,,,,,,,0,119,119,8,1,
,,,,,,,,,,,,,,,,,199402,19,2022-01-29_13h25.21.216,lexical_decision_task_DD,2021.2.3,MacIntel,59.99880002,,,,,,,,,,,,1.4686,0,,,,,,,,,,,,,,,,,,,,,,,,-0.075221354,-0.370694444,0,0,0,,,,,,,BAKER,C,z,m,./images/BAKER.png,,,,,,,m,0,1.4686,,,,,,,,0,120,120,147,1,
,,,,,,,,,,,,,,,,,199402,19,2022-01-29_13h25.21.216,lexical_decision_task_DD,2021.2.3,MacIntel,59.99880002,,,,,,,,,,,,0.7005,1,,,,,,,,,,,,,,,,,,,,,,,,-0.075221354,-0.370694444,0,0,0,,,,,,,SPINE,LB,z,m,./images/SPINELB.png,,,,,,,z,1,0.7005,,,,,,,,0,121,121,149,1,
,,,,,,,,,,,,,,,,,199402,19,2022-01-29_13h25.21.216,lexical_decision_task_DD,2021.2.3,MacIntel,59.99880002,,,,,,,,,,,,1.761,1,,,,,,,,,,,,,,,,,,,,,,,,-0.075221354,-0.370694444,0,0,0,,,,,,,STRING,LB,m,m,./images/STRINGLB.png,,,,,,,m,1,1.761,,,,,,,,0,122,122,41,1,
,,,,,,,,,,,,,,,,,199402,19,2022-01-29_13h25.21.216,lexical_decision_task_DD,2021.2.3,MacIntel,59.99880002,,,,,,,,,,,,1.1505,1,,,,,,,,,,,,,,,,,,,,,,,,-0.075221354,-0.370694444,0,0,0,,,,,,,WHISKY,LB,z,m,./images/WHISKYLB.png,,,,,,,z,1,1.1505,,,,,,,,0,123,123,167,1,
,,,,,,,,,,,,,,,,,199402,19,2022-01-29_13h25.21.216,lexical_decision_task_DD,2021.2.3,MacIntel,59.99880002,,,,,,,,,,,,1.2178,0,,,,,,,,,,,,,,,,,,,,,,,,-0.075221354,-0.370694444,0,0,0,,,,,,,MEDAL,LB,z,m,./images/MEDALLB.png,,,,,,,m,0,1.2178,,,,,,,,0,124,124,95,1,
,,,,,,,,,,,,,,,,,199402,19,2022-01-29_13h25.21.216,lexical_decision_task_DD,2021.2.3,MacIntel,59.99880002,,,,,,,,,,,,0.869,1,,,,,,,,,,,,,,,,,,,,,,,,-0.075221354,-0.370694444,0,0,0,space,,,,,,SPORT,C,m,m,./images/SPORT.png,,,,,,,m,1,0.869,,,,,,,,0,125,125,48,1,26.9234
,,,,,,,,,,,,,,,,,199402,19,2022-01-29_13h25.21.216,lexical_decision_task_DD,2021.2.3,MacIntel,59.99880002,,,,,,,,,,,,0.6832,0,,,,,,,,,,,,,,,,,,,,,,,,-0.075221354,-0.370694444,0,0,0,,,,,,,BRIDE,HB,z,m,./images/BRIDEHB.png,,,,,,,m,0,0.6832,,,,,,,,0,126,126,148,1,
,,,,,,,,,,,,,,,,,199402,19,2022-01-29_13h25.21.216,lexical_decision_task_DD,2021.2.3,MacIntel,59.99880002,,,,,,,,,,,,0.7174,1,,,,,,,,,,,,,,,,,,,,,,,,-0.075221354,-0.370694444,0,0,0,,,,,,,DRUMS,HB,m,m,./images/DRUMSHB.png,,,,,,,m,1,0.7174,,,,,,,,0,127,127,49,1,
,,,,,,,,,,,,,,,,,199402,19,2022-01-29_13h25.21.216,lexical_decision_task_DD,2021.2.3,MacIntel,59.99880002,,,,,,,,,,,,0.8191,1,,,,,,,,,,,,,,,,,,,,,,,,-0.075221354,-0.370694444,0,0,0,,,,,,,COLLAR,C,z,m,./images/COLLAR.png,,,,,,,z,1,0.8191,,,,,,,,0,128,128,99,1,
,,,,,,,,,,,,,,,,,199402,19,2022-01-29_13h25.21.216,lexical_decision_task_DD,2021.2.3,MacIntel,59.99880002,,,,,,,,,,,,0.8057,0,,,,,,,,,,,,,,,,,,,,,,,,-0.075221354,-0.370694444,0,0,0,,,,,,,ARTIST,HB,z,m,./images/ARTISTHB.png,,,,,,,m,0,0.8057,,,,,,,,0,129,129,145,1,
,,,,,,,,,,,,,,,,,199402,19,2022-01-29_13h25.21.216,lexical_decision_task_DD,2021.2.3,MacIntel,59.99880002,,,,,,,,,,,,0.8182,1,,,,,,,,,,,,,,,,,,,,,,,,-0.075221354,-0.370694444,0,0,0,,,,,,,PLANK,HB,m,m,./images/PLANKHB.png,,,,,,,m,1,0.8182,,,,,,,,0,130,130,1,1,
,,,,,,,,,,,,,,,,,199402,19,2022-01-29_13h25.21.216,lexical_decision_task_DD,2021.2.3,MacIntel,59.99880002,,,,,,,,,,,,0.6305,1,,,,,,,,,,,,,,,,,,,,,,,,-0.075221354,-0.370694444,0,0,0,,,,,,,MIRROR,C,m,m,./images/MIRROR.png,,,,,,,m,1,0.6305,,,,,,,,0,131,131,63,1,
,,,,,,,,,,,,,,,,,199402,19,2022-01-29_13h25.21.216,lexical_decision_task_DD,2021.2.3,MacIntel,59.99880002,,,,,,,,,,,,2.9486,1,,,,,,,,,,,,,,,,,,,,,,,,-0.075221354,-0.370694444,0,0,0,,,,,,,JUNGLE,LB,m,m,./images/JUNGLELB.png,,,,,,,m,1,2.9486,,,,,,,,0,132,132,83,1,
,,,,,,,,,,,,,,,,,199402,19,2022-01-29_13h25.21.216,lexical_decision_task_DD,2021.2.3,MacIntel,59.99880002,,,,,,,,,,,,0.7569,1,,,,,,,,,,,,,,,,,,,,,,,,-0.075221354,-0.370694444,0,0,0,,,,,,,SKIING,LB,m,m,./images/SKIINGLB.png,,,,,,,m,1,0.7569,,,,,,,,0,133,133,17,1,
,,,,,,,,,,,,,,,,,199402,19,2022-01-29_13h25.21.216,lexical_decision_task_DD,2021.2.3,MacIntel,59.99880002,,,,,,,,,,,,0.6811,1,,,,,,,,,,,,,,,,,,,,,,,,-0.075221354,-0.370694444,0,0,0,,,,,,,RHINO,C,m,m,./images/RHINO.png,,,,,,,m,1,0.6811,,,,,,,,0,134,134,9,1,
,,,,,,,,,,,,,,,,,199402,19,2022-01-29_13h25.21.216,lexical_decision_task_DD,2021.2.3,MacIntel,59.99880002,,,,,,,,,,,,0.7157,1,,,,,,,,,,,,,,,,,,,,,,,,-0.075221354,-0.370694444,0,0,0,,,,,,,POODLE,C,m,m,./images/POODLE.png,,,,,,,m,1,0.7157,,,,,,,,0,135,135,81,1,
,,,,,,,,,,,,,,,,,199402,19,2022-01-29_13h25.21.216,lexical_decision_task_DD,2021.2.3,MacIntel,59.99880002,,,,,,,,,,,,0.8641,1,,,,,,,,,,,,,,,,,,,,,,,,-0.075221354,-0.370694444,0,0,0,,,,,,,BUTTER,C,z,m,./images/BUTTER.png,,,,,,,z,1,0.8641,,,,,,,,0,136,136,111,1,
,,,,,,,,,,,,,,,,,199402,19,2022-01-29_13h25.21.216,lexical_decision_task_DD,2021.2.3,MacIntel,59.99880002,,,,,,,,,,,,0.6972,1,,,,,,,,,,,,,,,,,,,,,,,,-0.075221354,-0.370694444,0,0,0,,,,,,,SHELF,C,m,m,./images/SHELF.png,,,,,,,m,1,0.6972,,,,,,,,0,137,137,39,1,
,,,,,,,,,,,,,,,,,199402,19,2022-01-29_13h25.21.216,lexical_decision_task_DD,2021.2.3,MacIntel,59.99880002,,,,,,,,,,,,0.8377,1,,,,,,,,,,,,,,,,,,,,,,,,-0.075221354,-0.370694444,0,0,0,,,,,,,FERRY,C,z,m,./images/FERRY.png,,,,,,,z,1,0.8377,,,,,,,,0,138,138,141,1,
,,,,,,,,,,,,,,,,,199402,19,2022-01-29_13h25.21.216,lexical_decision_task_DD,2021.2.3,MacIntel,59.99880002,,,,,,,,,,,,1.2842,1,,,,,,,,,,,,,,,,,,,,,,,,-0.075221354,-0.370694444,0,0,0,,,,,,,SMOKER,LB,m,m,./images/SMOKERLB.png,,,,,,,m,1,1.2842,,,,,,,,0,139,139,26,1,
,,,,,,,,,,,,,,,,,199402,19,2022-01-29_13h25.21.216,lexical_decision_task_DD,2021.2.3,MacIntel,59.99880002,,,,,,,,,,,,0.9532,0,,,,,,,,,,,,,,,,,,,,,,,,-0.075221354,-0.370694444,0,0,0,,,,,,,SHORE,C,m,m,./images/SHORE.png,,,,,,,z,0,0.9532,,,,,,,,0,140,140,12,1,
,,,,,,,,,,,,,,,,,199402,19,2022-01-29_13h25.21.216,lexical_decision_task_DD,2021.2.3,MacIntel,59.99880002,,,,,,,,,,,,0.9533,0,,,,,,,,,,,,,,,,,,,,,,,,-0.075221354,-0.370694444,0,0,0,,,,,,,ONION,C,m,m,./images/ONION.png,,,,,,,z,0,0.9533,,,,,,,,0,141,141,51,1,
,,,,,,,,,,,,,,,,,199402,19,2022-01-29_13h25.21.216,lexical_decision_task_DD,2021.2.3,MacIntel,59.99880002,,,,,,,,,,,,0.9677,0,,,,,,,,,,,,,,,,,,,,,,,,-0.075221354,-0.370694444,0,0,0,,,,,,,WALNUT,C,z,m,./images/WALNUT.png,,,,,,,m,0,0.9677,,,,,,,,0,142,142,84,1,
,,,,,,,,,,,,,,,,,199402,19,2022-01-29_13h25.21.216,lexical_decision_task_DD,2021.2.3,MacIntel,59.99880002,,,,,,,,,,,,0.8751,1,,,,,,,,,,,,,,,,,,,,,,,,-0.075221354,-0.370694444,0,0,0,,,,,,,CASINO,HB,z,m,./images/CASINOHB.png,,,,,,,z,1,0.8751,,,,,,,,0,143,143,112,1,
,,,,,,,,,,,,,,,,,199402,19,2022-01-29_13h25.21.216,lexical_decision_task_DD,2021.2.3,MacIntel,59.99880002,,,,,,,,,,,,0.9068,0,,,,,,,,,,,,,,,,,,,,,,,,-0.075221354,-0.370694444,0,0,0,,,,,,,MELON,HB,m,m,./images/MELONHB.png,,,,,,,z,0,0.9068,,,,,,,,0,144,144,22,1,
,,,,,,,,,,,,,,,,,199402,19,2022-01-29_13h25.21.216,lexical_decision_task_DD,2021.2.3,MacIntel,59.99880002,,,,,,,,,,,,0.7958,0,,,,,,,,,,,,,,,,,,,,,,,,-0.075221354,-0.370694444,0,0,0,,,,,,,CHERRY,C,z,m,./images/CHERRY.png,,,,,,,m,0,0.7958,,,,,,,,0,145,145,138,1,
,,,,,,,,,,,,,,,,,199402,19,2022-01-29_13h25.21.216,lexical_decision_task_DD,2021.2.3,MacIntel,59.99880002,,,,,,,,,,,,1.031,1,,,,,,,,,,,,,,,,,,,,,,,,-0.075221354,-0.370694444,0,0,0,,,,,,,RAZOR,HB,z,m,./images/RAZORHB.png,,,,,,,z,1,1.031,,,,,,,,0,146,146,118,1,
,,,,,,,,,,,,,,,,,199402,19,2022-01-29_13h25.21.216,lexical_decision_task_DD,2021.2.3,MacIntel,59.99880002,,,,,,,,,,,,0.9572,0,,,,,,,,,,,,,,,,,,,,,,,,-0.075221354,-0.370694444,0,0,0,,,,,,,GRAIN,C,m,m,./images/GRAIN.png,,,,,,,z,0,0.9572,,,,,,,,0,147,147,75,1,
,,,,,,,,,,,,,,,,,199402,19,2022-01-29_13h25.21.216,lexical_decision_task_DD,2021.2.3,MacIntel,59.99880002,,,,,,,,,,,,0.8192,1,,,,,,,,,,,,,,,,,,,,,,,,-0.075221354,-0.370694444,0,0,0,,,,,,,CLOUD,LB,z,m,./images/CLOUDLB.png,,,,,,,z,1,0.8192,,,,,,,,0,148,148,110,1,
,,,,,,,,,,,,,,,,,199402,19,2022-01-29_13h25.21.216,lexical_decision_task_DD,2021.2.3,MacIntel,59.99880002,,,,,,,,,,,,1.107,1,,,,,,,,,,,,,,,,,,,,,,,,-0.075221354,-0.370694444,0,0,0,,,,,,,SQUARE,C,m,m,./images/SQUARE.png,,,,,,,m,1,1.107,,,,,,,,0,149,149,6,1,
,,,,,,,,,,,,,,,,,199402,19,2022-01-29_13h25.21.216,lexical_decision_task_DD,2021.2.3,MacIntel,59.99880002,,,,,,,,,,,,0.865,0,,,,,,,,,,,,,,,,,,,,,,,,-0.075221354,-0.370694444,0,0,0,,,,,,,VALLEY,LB,z,m,./images/VALLEYLB.png,,,,,,,m,0,0.865,,,,,,,,0,150,150,152,1,
,,,,,,,,,,,,,,,,,199402,19,2022-01-29_13h25.21.216,lexical_decision_task_DD,2021.2.3,MacIntel,59.99880002,,,,,,,,,,,,0.818,0,,,,,,,,,,,,,,,,,,,,,,,,-0.075221354,-0.370694444,0,0,0,,,,,,,CHAIN,C,z,m,./images/CHAIN.png,,,,,,,m,0,0.818,,,,,,,,0,151,151,126,1,
,,,,,,,,,,,,,,,,,199402,19,2022-01-29_13h25.21.216,lexical_decision_task_DD,2021.2.3,MacIntel,59.99880002,,,,,,,,,,,,0.9643,1,,,,,,,,,,,,,,,,,,,,,,,,-0.075221354,-0.370694444,0,0,0,,,,,,,PLANET,LB,z,m,./images/PLANETLB.png,,,,,,,z,1,0.9643,,,,,,,,0,152,152,164,1,
,,,,,,,,,,,,,,,,,199402,19,2022-01-29_13h25.21.216,lexical_decision_task_DD,2021.2.3,MacIntel,59.99880002,,,,,,,,,,,,0.6973,1,,,,,,,,,,,,,,,,,,,,,,,,-0.075221354,-0.370694444,0,0,0,,,,,,,BELLY,HB,m,m,./images/BELLYHB.png,,,,,,,m,1,0.6973,,,,,,,,0,153,153,10,1,
,,,,,,,,,,,,,,,,,199402,19,2022-01-29_13h25.21.216,lexical_decision_task_DD,2021.2.3,MacIntel,59.99880002,,,,,,,,,,,,0.835,1,,,,,,,,,,,,,,,,,,,,,,,,-0.075221354,-0.370694444,0,0,0,,,,,,,BEARD,LB,m,m,./images/BEARDLB.png,,,,,,,m,1,0.835,,,,,,,,0,154,154,2,1,
,,,,,,,,,,,,,,,,,199402,19,2022-01-29_13h25.21.216,lexical_decision_task_DD,2021.2.3,MacIntel,59.99880002,,,,,,,,,,,,0.7137,1,,,,,,,,,,,,,,,,,,,,,,,,-0.075221354,-0.370694444,0,0,0,,,,,,,FOLDER,C,m,m,./images/FOLDER.png,,,,,,,m,1,0.7137,,,,,,,,0,155,155,42,1,
,,,,,,,,,,,,,,,,,199402,19,2022-01-29_13h25.21.216,lexical_decision_task_DD,2021.2.3,MacIntel,59.99880002,,,,,,,,,,,,1.2204,1,,,,,,,,,,,,,,,,,,,,,,,,-0.075221354,-0.370694444,0,0,0,,,,,,,PACKET,LB,m,m,./images/PACKETLB.png,,,,,,,m,1,1.2204,,,,,,,,0,156,156,56,1,
,,,,,,,,,,,,,,,,,199402,19,2022-01-29_13h25.21.216,lexical_decision_task_DD,2021.2.3,MacIntel,59.99880002,,,,,,,,,,,,0.6494,1,,,,,,,,,,,,,,,,,,,,,,,,-0.075221354,-0.370694444,0,0,0,,,,,,,SWEAT,C,m,m,./images/SWEAT.png,,,,,,,m,1,0.6494,,,,,,,,0,157,157,66,1,
,,,,,,,,,,,,,,,,,199402,19,2022-01-29_13h25.21.216,lexical_decision_task_DD,2021.2.3,MacIntel,59.99880002,,,,,,,,,,,,0.6587,0,,,,,,,,,,,,,,,,,,,,,,,,-0.075221354,-0.370694444,0,0,0,,,,,,,LAGOON,LB,z,m,./images/LAGOONLB.png,,,,,,,m,0,0.6587,,,,,,,,0,158,158,131,1,
,,,,,,,,,,,,,,,,,199402,19,2022-01-29_13h25.21.216,lexical_decision_task_DD,2021.2.3,MacIntel,59.99880002,,,,,,,,,,,,0.626,0,,,,,,,,,,,,,,,,,,,,,,,,-0.075221354,-0.370694444,0,0,0,,,,,,,GRAPE,HB,z,m,./images/GRAPEHB.png,,,,,,,m,0,0.626,,,,,,,,0,159,159,100,1,
,,,,,,,,,,,,,,,,,199402,19,2022-01-29_13h25.21.216,lexical_decision_task_DD,2021.2.3,MacIntel,59.99880002,,,,,,,,,,,,0.7396,1,,,,,,,,,,,,,,,,,,,,,,,,-0.075221354,-0.370694444,0,0,0,,,,,,,DANCER,C,z,m,./images/DANCER.png,,,,,,,z,1,0.7396,,,,,,,,0,160,160,105,1,
,,,,,,,,,,,,,,,,,199402,19,2022-01-29_13h25.21.216,lexical_decision_task_DD,2021.2.3,MacIntel,59.99880002,,,,,,,,,,,,0.7637,1,,,,,,,,,,,,,,,,,,,,,,,,-0.075221354,-0.370694444,0,0,0,,,,,,,WALRUS,LB,m,m,./images/WALRUSLB.png,,,,,,,m,1,0.7637,,,,,,,,0,161,161,23,1,
,,,,,,,,,,,,,,,,,199402,19,2022-01-29_13h25.21.216,lexical_decision_task_DD,2021.2.3,MacIntel,59.99880002,,,,,,,,,,,,0.8176,1,,,,,,,,,,,,,,,,,,,,,,,,-0.075221354,-0.370694444,0,0,0,,,,,,,CANOE,HB,z,m,./images/CANOEHB.png,,,,,,,z,1,0.8176,,,,,,,,0,162,162,142,1,
,,,,,,,,,,,,,,,,,199402,19,2022-01-29_13h25.21.216,lexical_decision_task_DD,2021.2.3,MacIntel,59.99880002,,,,,,,,,,,,0.8528,1,,,,,,,,,,,,,,,,,,,,,,,,-0.075221354,-0.370694444,0,0,0,,,,,,,BABOON,HB,m,m,./images/BABOONHB.png,,,,,,,m,1,0.8528,,,,,,,,0,163,163,58,1,
,,,,,,,,,,,,,,,,,199402,19,2022-01-29_13h25.21.216,lexical_decision_task_DD,2021.2.3,MacIntel,59.99880002,,,,,,,,,,,,0.7474,1,,,,,,,,,,,,,,,,,,,,,,,,-0.075221354,-0.370694444,0,0,0,,,,,,,CRUST,HB,m,m,./images/CRUSTHB.png,,,,,,,m,1,0.7474,,,,,,,,0,164,164,79,1,
,,,,,,,,,,,,,,,,,199402,19,2022-01-29_13h25.21.216,lexical_decision_task_DD,2021.2.3,MacIntel,59.99880002,,,,,,,,,,,,1.1178,1,,,,,,,,,,,,,,,,,,,,,,,,-0.075221354,-0.370694444,0,0,0,,,,,,,ATTIC,C,m,m,./images/ATTIC.png,,,,,,,m,1,1.1178,,,,,,,,0,165,165,27,1,
,,,,,,,,,,,,,,,,,199402,19,2022-01-29_13h25.21.216,lexical_decision_task_DD,2021.2.3,MacIntel,59.99880002,,,,,,,,,,,,1.0418,0,,,,,,,,,,,,,,,,,,,,,,,,-0.075221354,-0.370694444,0,0,0,,,,,,,PENCE,HB,m,m,./images/PENCEHB.png,,,,,,,z,0,1.0418,,,,,,,,0,166,166,16,1,
,,,,,,,,,,,,,,,,,199402,19,2022-01-29_13h25.21.216,lexical_decision_task_DD,2021.2.3,MacIntel,59.99880002,,,,,,,,,,,,2.1708,1,,,,,,,,,,,,,,,,,,,,,,,,-0.075221354,-0.370694444,0,0,0,,,,,,,WRIST,HB,m,m,./images/WRISTHB.png,,,,,,,m,1,2.1708,,,,,,,,0,167,167,25,1,
