key_resp.keys,instr_done_touch.x,instr_done_touch.y,instr_done_touch.leftButton,instr_done_touch.midButton,instr_done_touch.rightButton,instr_done_touch.clicked_name,instruction_pages.thisRepN,instruction_pages.thisTrialN,instruction_pages.thisN,instruction_pages.thisIndex,instruction_pages.ran,pageN,phase,instruct_text,has_image,instruct_image,participant,age,date,expName,psychopyVersion,OS,frameRate,response.keys,response.corr,response.rt,touch_resp.x,touch_resp.y,touch_resp.leftButton,touch_resp.midButton,touch_resp.rightButton,touch_resp.time,touch_resp.clicked_name,rt,corr,practrials.thisRepN,practrials.thisTrialN,practrials.thisN,practrials.thisIndex,practrials.ran,TrialID,Target,corrAns,end_of_practice_trials_pages.thisRepN,end_of_practice_trials_pages.thisTrialN,end_of_practice_trials_pages.thisN,end_of_practice_trials_pages.thisIndex,end_of_practice_trials_pages.ran,key_resp_2.keys,key_resp_2.corr,key_resp_2.rt,targ_click.x,targ_click.y,targ_click.leftButton,targ_click.midButton,targ_click.rightButton,targ_click.time,targ_click.clicked_name,break_done_touch.x,break_done_touch.y,break_done_touch.leftButton,break_done_touch.midButton,break_done_touch.rightButton,break_done_keyboard.keys,maintrials.thisRepN,maintrials.thisTrialN,maintrials.thisN,maintrials.thisIndex,maintrials.ran,string,blur,study,lex,stim_path,break_done_touch.clicked_name,test_instructions.thisRepN,test_instructions.thisTrialN,test_instructions.thisN,test_instructions.thisIndex,test_instructions.ran,key_resp.rt,key_resp_3.keys,key_resp_3.corr,key_resp_3.rt,test_click.x,test_click.y,test_click.leftButton,test_click.midButton,test_click.rightButton,test_click.time,test_click.clicked_name,test_phase.thisRepN,test_phase.thisTrialN,test_phase.thisN,test_phase.thisIndex,test_phase.ran,break_done_keyboard.rt
,0.02891059,-0.427899306,1,0,0,instr_done_button,0,0,0,0,1,1,instructions,"INSTRUCTIONS
At the start of each trial, look at the plus sign  (+) in the center of the screen.  This tells you that a trial is about to begin and where to look. Second, the plus sign will disappear and a string of letters will appear. Your task is to determine if the string of letters is a word or not. If the item is a word press the M key (on keyboard)  or touch the word button (phone/tablet).  If the item is not a word,  press the  Z key (on keyboard)  or touch the nonword button (on phone/tablet). 
Press the space bar or touch  continue.",0,,199540,19,2022-01-28_17h28.58.359,lexical_decision_task_DD_L5,2021.2.3,MacIntel,59.99880002,,,,,,,,,,,,,,,,,,,,,,,,,,,,,,,,,,,,,,,,,,,,,,,,,,,,,,,,,,,,,,,,,,,,,,,,,,
,0.02891059,-0.427899306,1,0,0,instr_done_button,0,1,1,1,1,2,instructions,"If your device has a keyboard, press the 'Z' key for nonwords and the 'M' key for words.





Press the space bar or touch the button below to continue.",0,keyboard-example.gif,199540,19,2022-01-28_17h28.58.359,lexical_decision_task_DD_L5,2021.2.3,MacIntel,59.99880002,,,,,,,,,,,,,,,,,,,,,,,,,,,,,,,,,,,,,,,,,,,,,,,,,,,,,,,,,,,,,,,,,,,,,,,,,,
,0.028654514,-0.427638889,1,0,0,instr_done_button,0,2,2,2,1,3,instructions,"If you are using a touchscreen only device, use the buttons on the screen. Do not use the mouse.





Press the space bar or touch the button below to continue.",0,touchscreen-example.gif,199540,19,2022-01-28_17h28.58.359,lexical_decision_task_DD_L5,2021.2.3,MacIntel,59.99880002,,,,,,,,,,,,,,,,,,,,,,,,,,,,,,,,,,,,,,,,,,,,,,,,,,,,,,,,,,,,,,,,,,,,,,,,,,
,0.028654514,-0.427382812,1,0,0,instr_done_button,0,3,3,3,1,4,instructions,"It is very important that you respond as quickly and accurately as possible, as each letter string will only be on the screen for two seconds. If you do not respond within this time, the message 'Too slow!' will be displayed and the experiment will progress to the next letter string. The first 20 trials will be practice trials and you will receive feedback on your answers. 

Press the space bar or touch the button below to start the practice trials.",0,,199540,19,2022-01-28_17h28.58.359,lexical_decision_task_DD_L5,2021.2.3,MacIntel,59.99880002,,,,,,,,,,,,,,,,,,,,,,,,,,,,,,,,,,,,,,,,,,,,,,,,,,,,,,,,,,,,,,,,,,,,,,,,,,
,,,,,,,,,,,,,,,,,199540,19,2022-01-28_17h28.58.359,lexical_decision_task_DD_L5,2021.2.3,MacIntel,59.99880002,z,1,5.3689,,,,,,,,5.3689,1,0,0,0,9,1,1001,FARINY,z,,,,,,,,,,,,,,,,,,,,,,,,,,,,,,,,,,,,,,,,,,,,,,,,,,,,,,
,,,,,,,,,,,,,,,,,199540,19,2022-01-28_17h28.58.359,lexical_decision_task_DD_L5,2021.2.3,MacIntel,59.99880002,m,1,1.9922,,,,,,,,1.9922,1,0,1,1,5,1,1001,OBTAIN,m,,,,,,,,,,,,,,,,,,,,,,,,,,,,,,,,,,,,,,,,,,,,,,,,,,,,,,
,,,,,,,,,,,,,,,,,199540,19,2022-01-28_17h28.58.359,lexical_decision_task_DD_L5,2021.2.3,MacIntel,59.99880002,m,1,1.4474,,,,,,,,1.4474,1,0,2,2,3,1,1001,MATRIX,m,,,,,,,,,,,,,,,,,,,,,,,,,,,,,,,,,,,,,,,,,,,,,,,,,,,,,,
,,,,,,,,,,,,,,,,,199540,19,2022-01-28_17h28.58.359,lexical_decision_task_DD_L5,2021.2.3,MacIntel,59.99880002,m,1,1.8666,,,,,,,,1.8666,1,0,3,3,4,1,1001,SQUEAK,m,,,,,,,,,,,,,,,,,,,,,,,,,,,,,,,,,,,,,,,,,,,,,,,,,,,,,,
,,,,,,,,,,,,,,,,,199540,19,2022-01-28_17h28.58.359,lexical_decision_task_DD_L5,2021.2.3,MacIntel,59.99880002,z,1,3.296,,,,,,,,3.296,1,0,4,4,13,1,1001,ROUPET,z,,,,,,,,,,,,,,,,,,,,,,,,,,,,,,,,,,,,,,,,,,,,,,,,,,,,,,
,,,,,,,,,,,,,,,,,199540,19,2022-01-28_17h28.58.359,lexical_decision_task_DD_L5,2021.2.3,MacIntel,59.99880002,z,1,3.3596,,,,,,,,3.3596,1,0,5,5,10,1,1001,INLADE,z,,,,,,,,,,,,,,,,,,,,,,,,,,,,,,,,,,,,,,,,,,,,,,,,,,,,,,
,,,,,,,,,,,,,,,,,199540,19,2022-01-28_17h28.58.359,lexical_decision_task_DD_L5,2021.2.3,MacIntel,59.99880002,z,1,2.3294,,,,,,,,2.3294,1,0,6,6,14,1,1001,THRALE,z,,,,,,,,,,,,,,,,,,,,,,,,,,,,,,,,,,,,,,,,,,,,,,,,,,,,,,
,,,,,,,,,,,,,,,,,199540,19,2022-01-28_17h28.58.359,lexical_decision_task_DD_L5,2021.2.3,MacIntel,59.99880002,m,1,1.362,,,,,,,,1.362,1,0,7,7,1,1,1001,ADJUST,m,,,,,,,,,,,,,,,,,,,,,,,,,,,,,,,,,,,,,,,,,,,,,,,,,,,,,,
,,,,,,,,,,,,,,,,,199540,19,2022-01-28_17h28.58.359,lexical_decision_task_DD_L5,2021.2.3,MacIntel,59.99880002,z,1,1.2525,,,,,,,,1.2525,1,0,8,8,15,1,1001,WHAISE,z,,,,,,,,,,,,,,,,,,,,,,,,,,,,,,,,,,,,,,,,,,,,,,,,,,,,,,
,,,,,,,,,,,,,,,,,199540,19,2022-01-28_17h28.58.359,lexical_decision_task_DD_L5,2021.2.3,MacIntel,59.99880002,z,1,1.1527,,,,,,,,1.1527,1,0,9,9,8,1,1001,ASLERT,z,,,,,,,,,,,,,,,,,,,,,,,,,,,,,,,,,,,,,,,,,,,,,,,,,,,,,,
,,,,,,,,,,,,,,,,,199540,19,2022-01-28_17h28.58.359,lexical_decision_task_DD_L5,2021.2.3,MacIntel,59.99880002,z,1,1.0829,,,,,,,,1.0829,1,0,10,10,11,1,1001,RASHET,z,,,,,,,,,,,,,,,,,,,,,,,,,,,,,,,,,,,,,,,,,,,,,,,,,,,,,,
,,,,,,,,,,,,,,,,,199540,19,2022-01-28_17h28.58.359,lexical_decision_task_DD_L5,2021.2.3,MacIntel,59.99880002,m,1,1.3906,,,,,,,,1.3906,1,0,11,11,2,1,1001,ALMOND,m,,,,,,,,,,,,,,,,,,,,,,,,,,,,,,,,,,,,,,,,,,,,,,,,,,,,,,
,,,,,,,,,,,,,,,,,199540,19,2022-01-28_17h28.58.359,lexical_decision_task_DD_L5,2021.2.3,MacIntel,59.99880002,z,1,1.7069,,,,,,,,1.7069,1,0,12,12,12,1,1001,SPRINY,z,,,,,,,,,,,,,,,,,,,,,,,,,,,,,,,,,,,,,,,,,,,,,,,,,,,,,,
,,,,,,,,,,,,,,,,,199540,19,2022-01-28_17h28.58.359,lexical_decision_task_DD_L5,2021.2.3,MacIntel,59.99880002,m,1,1.3518,,,,,,,,1.3518,1,0,13,13,7,1,1001,VOLUME,m,,,,,,,,,,,,,,,,,,,,,,,,,,,,,,,,,,,,,,,,,,,,,,,,,,,,,,
,,,,,,,,,,,,,,,,,199540,19,2022-01-28_17h28.58.359,lexical_decision_task_DD_L5,2021.2.3,MacIntel,59.99880002,m,1,1.1902,,,,,,,,1.1902,1,0,14,14,0,1,1001,UTOPIA,m,,,,,,,,,,,,,,,,,,,,,,,,,,,,,,,,,,,,,,,,,,,,,,,,,,,,,,
,,,,,,,,,,,,,,,,,199540,19,2022-01-28_17h28.58.359,lexical_decision_task_DD_L5,2021.2.3,MacIntel,59.99880002,m,1,0.7722,,,,,,,,0.7722,1,0,15,15,6,1,1001,ZOMBIE,m,,,,,,,,,,,,,,,,,,,,,,,,,,,,,,,,,,,,,,,,,,,,,,,,,,,,,,
,0.023428819,-0.405989583,1,0,0,instr_done_button,,,,,,1,end_of_practice,"You have completed the practice trials. During the experimental trials, you will not receive feedback. 
Before you begin, please ensure that you are in a comfortable and quiet location and will not be disturbed for about 15 minutes, as we cannot use your data if you do not complete all the trials. 
 When you are ready to start the experimental trials, please press space or touch the button below.",,,199540,19,2022-01-28_17h28.58.359,lexical_decision_task_DD_L5,2021.2.3,MacIntel,59.99880002,,,,,,,,,,,,,,,,,,,,,0,0,0,0,1,,,,,,,,,,,,,,,,,,,,,,,,,,,,,,,,,,,,,,,,,,,,,,,,,
,,,,,,,,,,,,,,,,,199540,19,2022-01-28_17h28.58.359,lexical_decision_task_DD_L5,2021.2.3,MacIntel,59.99880002,,,,,,,,,,,4.7584,1,,,,,,,,,,,,,,z,1,4.7584,,,,,,,,0.043476563,-0.340425347,0,0,0,,0,0,0,141,1,PLEET,C,old,z,./images/PLEET.png,,,,,,,,,,,,,,,,,,,,,,,
,,,,,,,,,,,,,,,,,199540,19,2022-01-28_17h28.58.359,lexical_decision_task_DD_L5,2021.2.3,MacIntel,59.99880002,,,,,,,,,,,4.0632,1,,,,,,,,,,,,,,m,1,4.0632,,,,,,,,0.043476563,-0.340425347,0,0,0,,0,1,1,39,1,CANDY,HB,old,m,./images/CANDYHB.png,,,,,,,,,,,,,,,,,,,,,,,
,,,,,,,,,,,,,,,,,199540,19,2022-01-28_17h28.58.359,lexical_decision_task_DD_L5,2021.2.3,MacIntel,59.99880002,,,,,,,,,,,1.3034,1,,,,,,,,,,,,,,z,1,1.3034,,,,,,,,0.043476563,-0.340425347,0,0,0,,0,2,2,111,1,HOSSE,C,old,z,./images/HOSSE.png,,,,,,,,,,,,,,,,,,,,,,,
,,,,,,,,,,,,,,,,,199540,19,2022-01-28_17h28.58.359,lexical_decision_task_DD_L5,2021.2.3,MacIntel,59.99880002,,,,,,,,,,,1.2542,1,,,,,,,,,,,,,,m,1,1.2542,,,,,,,,0.043476563,-0.340425347,0,0,0,,0,3,3,55,1,ALLEY,LB,old,m,./images/ALLEYLB.png,,,,,,,,,,,,,,,,,,,,,,,
,,,,,,,,,,,,,,,,,199540,19,2022-01-28_17h28.58.359,lexical_decision_task_DD_L5,2021.2.3,MacIntel,59.99880002,,,,,,,,,,,1.224,1,,,,,,,,,,,,,,z,1,1.224,,,,,,,,0.043476563,-0.340425347,0,0,0,,0,4,4,95,1,HANTY,LB,old,z,./images/HANTYLB.png,,,,,,,,,,,,,,,,,,,,,,,
,,,,,,,,,,,,,,,,,199540,19,2022-01-28_17h28.58.359,lexical_decision_task_DD_L5,2021.2.3,MacIntel,59.99880002,,,,,,,,,,,2.3932,1,,,,,,,,,,,,,,m,1,2.3932,,,,,,,,0.043476563,-0.340425347,0,0,0,,0,5,5,74,1,JUMPER,C,old,m,./images/JUMPER.png,,,,,,,,,,,,,,,,,,,,,,,
,,,,,,,,,,,,,,,,,199540,19,2022-01-28_17h28.58.359,lexical_decision_task_DD_L5,2021.2.3,MacIntel,59.99880002,,,,,,,,,,,1.0311,1,,,,,,,,,,,,,,m,1,1.0311,,,,,,,,0.043476563,-0.340425347,0,0,0,,0,6,6,50,1,PILOT,C,old,m,./images/PILOT.png,,,,,,,,,,,,,,,,,,,,,,,
,,,,,,,,,,,,,,,,,199540,19,2022-01-28_17h28.58.359,lexical_decision_task_DD_L5,2021.2.3,MacIntel,59.99880002,,,,,,,,,,,1.8628,1,,,,,,,,,,,,,,m,1,1.8628,,,,,,,,0.043476563,-0.340425347,0,0,0,,0,7,7,82,1,PEBBLE,LB,old,m,./images/PEBBLELB.png,,,,,,,,,,,,,,,,,,,,,,,
,,,,,,,,,,,,,,,,,199540,19,2022-01-28_17h28.58.359,lexical_decision_task_DD_L5,2021.2.3,MacIntel,59.99880002,,,,,,,,,,,1.3555,1,,,,,,,,,,,,,,z,1,1.3555,,,,,,,,0.043476563,-0.340425347,0,0,0,,0,8,8,155,1,CANGY,LB,old,z,./images/CANGYLB.png,,,,,,,,,,,,,,,,,,,,,,,
,,,,,,,,,,,,,,,,,199540,19,2022-01-28_17h28.58.359,lexical_decision_task_DD_L5,2021.2.3,MacIntel,59.99880002,,,,,,,,,,,1.2216,1,,,,,,,,,,,,,,z,1,1.2216,,,,,,,,0.043476563,-0.340425347,0,0,0,,0,9,9,147,1,ZOLES,C,old,z,./images/ZOLES.png,,,,,,,,,,,,,,,,,,,,,,,
,,,,,,,,,,,,,,,,,199540,19,2022-01-28_17h28.58.359,lexical_decision_task_DD_L5,2021.2.3,MacIntel,59.99880002,,,,,,,,,,,2.8299,1,,,,,,,,,,,,,,m,1,2.8299,,,,,,,,0.043476563,-0.340425347,0,0,0,,0,10,10,18,1,PARCEL,HB,old,m,./images/PARCELHB.png,,,,,,,,,,,,,,,,,,,,,,,
,,,,,,,,,,,,,,,,,199540,19,2022-01-28_17h28.58.359,lexical_decision_task_DD_L5,2021.2.3,MacIntel,59.99880002,,,,,,,,,,,1.4025,1,,,,,,,,,,,,,,z,1,1.4025,,,,,,,,0.043476563,-0.340425347,0,0,0,,0,11,11,165,1,TROWN,C,old,z,./images/TROWN.png,,,,,,,,,,,,,,,,,,,,,,,
,,,,,,,,,,,,,,,,,199540,19,2022-01-28_17h28.58.359,lexical_decision_task_DD_L5,2021.2.3,MacIntel,59.99880002,,,,,,,,,,,1.3324,1,,,,,,,,,,,,,,z,1,1.3324,,,,,,,,0.043476563,-0.340425347,0,0,0,,0,12,12,146,1,MOOST,LB,old,z,./images/MOOSTLB.png,,,,,,,,,,,,,,,,,,,,,,,
,,,,,,,,,,,,,,,,,199540,19,2022-01-28_17h28.58.359,lexical_decision_task_DD_L5,2021.2.3,MacIntel,59.99880002,,,,,,,,,,,1.2696,1,,,,,,,,,,,,,,z,1,1.2696,,,,,,,,0.043476563,-0.340425347,0,0,0,,0,13,13,86,1,AIFED,LB,old,z,./images/AIFEDLB.png,,,,,,,,,,,,,,,,,,,,,,,
,,,,,,,,,,,,,,,,,199540,19,2022-01-28_17h28.58.359,lexical_decision_task_DD_L5,2021.2.3,MacIntel,59.99880002,,,,,,,,,,,5.4304,1,,,,,,,,,,,,,,z,1,5.4304,,,,,,,,0.043476563,-0.340425347,0,0,0,,0,14,14,103,1,FLORT,HB,old,z,./images/FLORTHB.png,,,,,,,,,,,,,,,,,,,,,,,
,,,,,,,,,,,,,,,,,199540,19,2022-01-28_17h28.58.359,lexical_decision_task_DD_L5,2021.2.3,MacIntel,59.99880002,,,,,,,,,,,2.081,1,,,,,,,,,,,,,,m,1,2.081,,,,,,,,0.043476563,-0.340425347,0,0,0,,0,15,15,24,1,FLESH,HB,old,m,./images/FLESHHB.png,,,,,,,,,,,,,,,,,,,,,,,
,,,,,,,,,,,,,,,,,199540,19,2022-01-28_17h28.58.359,lexical_decision_task_DD_L5,2021.2.3,MacIntel,59.99880002,,,,,,,,,,,2.6336,1,,,,,,,,,,,,,,m,1,2.6336,,,,,,,,0.043476563,-0.340425347,0,0,0,,0,16,16,48,1,SHIELD,HB,old,m,./images/SHIELDHB.png,,,,,,,,,,,,,,,,,,,,,,,
,,,,,,,,,,,,,,,,,199540,19,2022-01-28_17h28.58.359,lexical_decision_task_DD_L5,2021.2.3,MacIntel,59.99880002,,,,,,,,,,,22.1818,1,,,,,,,,,,,,,,z,1,22.1818,,,,,,,,0.043476563,-0.340425347,0,0,0,,0,17,17,130,1,CRILL,HB,old,z,./images/CRILLHB.png,,,,,,,,,,,,,,,,,,,,,,,
,,,,,,,,,,,,,,,,,199540,19,2022-01-28_17h28.58.359,lexical_decision_task_DD_L5,2021.2.3,MacIntel,59.99880002,,,,,,,,,,,1.2923,1,,,,,,,,,,,,,,m,1,1.2923,,,,,,,,0.043476563,-0.340425347,0,0,0,,0,18,18,28,1,CASINO,LB,old,m,./images/CASINOLB.png,,,,,,,,,,,,,,,,,,,,,,,
,,,,,,,,,,,,,,,,,199540,19,2022-01-28_17h28.58.359,lexical_decision_task_DD_L5,2021.2.3,MacIntel,59.99880002,,,,,,,,,,,1.3252,1,,,,,,,,,,,,,,m,1,1.3252,,,,,,,,0.043476563,-0.340425347,0,0,0,,0,19,19,69,1,ARROW,HB,old,m,./images/ARROWHB.png,,,,,,,,,,,,,,,,,,,,,,,
,,,,,,,,,,,,,,,,,199540,19,2022-01-28_17h28.58.359,lexical_decision_task_DD_L5,2021.2.3,MacIntel,59.99880002,,,,,,,,,,,2.4196,1,,,,,,,,,,,,,,m,1,2.4196,,,,,,,,0.043476563,-0.340425347,0,0,0,,0,20,20,81,1,DRILL,HB,old,m,./images/DRILLHB.png,,,,,,,,,,,,,,,,,,,,,,,
,,,,,,,,,,,,,,,,,199540,19,2022-01-28_17h28.58.359,lexical_decision_task_DD_L5,2021.2.3,MacIntel,59.99880002,,,,,,,,,,,3.7996,1,,,,,,,,,,,,,,z,1,3.7996,,,,,,,,0.043476563,-0.340425347,0,0,0,,0,21,21,145,1,LAMEL,HB,old,z,./images/LAMELHB.png,,,,,,,,,,,,,,,,,,,,,,,
,,,,,,,,,,,,,,,,,199540,19,2022-01-28_17h28.58.359,lexical_decision_task_DD_L5,2021.2.3,MacIntel,59.99880002,,,,,,,,,,,1.2779,1,,,,,,,,,,,,,,m,1,1.2779,,,,,,,,0.043476563,-0.340425347,0,0,0,,0,22,22,7,1,WAGON,LB,old,m,./images/WAGONLB.png,,,,,,,,,,,,,,,,,,,,,,,
,,,,,,,,,,,,,,,,,199540,19,2022-01-28_17h28.58.359,lexical_decision_task_DD_L5,2021.2.3,MacIntel,59.99880002,,,,,,,,,,,1.0347,1,,,,,,,,,,,,,,z,1,1.0347,,,,,,,,0.043476563,-0.340425347,0,0,0,,0,23,23,99,1,BACKY,C,old,z,./images/BACKY.png,,,,,,,,,,,,,,,,,,,,,,,
,,,,,,,,,,,,,,,,,199540,19,2022-01-28_17h28.58.359,lexical_decision_task_DD_L5,2021.2.3,MacIntel,59.99880002,,,,,,,,,,,1.149,1,,,,,,,,,,,,,,z,1,1.149,,,,,,,,0.043476563,-0.340425347,0,0,0,,0,24,24,101,1,GLEET,LB,old,z,./images/GLEETLB.png,,,,,,,,,,,,,,,,,,,,,,,
,,,,,,,,,,,,,,,,,199540,19,2022-01-28_17h28.58.359,lexical_decision_task_DD_L5,2021.2.3,MacIntel,59.99880002,,,,,,,,,,,0.9664,1,,,,,,,,,,,,,,m,1,0.9664,,,,,,,,0.043476563,-0.340425347,0,0,0,,0,25,25,80,1,PLANET,C,old,m,./images/PLANET.png,,,,,,,,,,,,,,,,,,,,,,,
,,,,,,,,,,,,,,,,,199540,19,2022-01-28_17h28.58.359,lexical_decision_task_DD_L5,2021.2.3,MacIntel,59.99880002,,,,,,,,,,,0.7368,1,,,,,,,,,,,,,,m,1,0.7368,,,,,,,,0.043476563,-0.340425347,0,0,0,,0,26,26,14,1,FENCE,C,old,m,./images/FENCE.png,,,,,,,,,,,,,,,,,,,,,,,
,,,,,,,,,,,,,,,,,199540,19,2022-01-28_17h28.58.359,lexical_decision_task_DD_L5,2021.2.3,MacIntel,59.99880002,,,,,,,,,,,2.0324,1,,,,,,,,,,,,,,z,1,2.0324,,,,,,,,0.043476563,-0.340425347,0,0,0,,0,27,27,88,1,GLUSH,HB,old,z,./images/GLUSHHB.png,,,,,,,,,,,,,,,,,,,,,,,
,,,,,,,,,,,,,,,,,199540,19,2022-01-28_17h28.58.359,lexical_decision_task_DD_L5,2021.2.3,MacIntel,59.99880002,,,,,,,,,,,0.88,1,,,,,,,,,,,,,,m,1,0.88,,,,,,,,0.043476563,-0.340425347,0,0,0,,0,28,28,52,1,DESERT,LB,old,m,./images/DESERTLB.png,,,,,,,,,,,,,,,,,,,,,,,
,,,,,,,,,,,,,,,,,199540,19,2022-01-28_17h28.58.359,lexical_decision_task_DD_L5,2021.2.3,MacIntel,59.99880002,,,,,,,,,,,0.8123,1,,,,,,,,,,,,,,z,1,0.8123,,,,,,,,0.043476563,-0.340425347,0,0,0,,0,29,29,84,1,HAXES,C,old,z,./images/HAXES.png,,,,,,,,,,,,,,,,,,,,,,,
,,,,,,,,,,,,,,,,,199540,19,2022-01-28_17h28.58.359,lexical_decision_task_DD_L5,2021.2.3,MacIntel,59.99880002,,,,,,,,,,,0.7229,1,,,,,,,,,,,,,,m,1,0.7229,,,,,,,,0.043476563,-0.340425347,0,0,0,,0,30,30,31,1,STEAK,LB,old,m,./images/STEAKLB.png,,,,,,,,,,,,,,,,,,,,,,,
,,,,,,,,,,,,,,,,,199540,19,2022-01-28_17h28.58.359,lexical_decision_task_DD_L5,2021.2.3,MacIntel,59.99880002,,,,,,,,,,,0.7206,1,,,,,,,,,,,,,,m,1,0.7206,,,,,,,,0.043476563,-0.340425347,0,0,0,,0,31,31,65,1,SPINE,C,old,m,./images/SPINE.png,,,,,,,,,,,,,,,,,,,,,,,
,,,,,,,,,,,,,,,,,199540,19,2022-01-28_17h28.58.359,lexical_decision_task_DD_L5,2021.2.3,MacIntel,59.99880002,,,,,,,,,,,0.7676,1,,,,,,,,,,,,,,z,1,0.7676,,,,,,,,0.043476563,-0.340425347,0,0,0,,0,32,32,92,1,PAIMS,LB,old,z,./images/PAIMSLB.png,,,,,,,,,,,,,,,,,,,,,,,
,,,,,,,,,,,,,,,,,199540,19,2022-01-28_17h28.58.359,lexical_decision_task_DD_L5,2021.2.3,MacIntel,59.99880002,,,,,,,,,,,1.6815,1,,,,,,,,,,,,,,m,1,1.6815,,,,,,,,0.043476563,-0.340425347,0,0,0,,0,33,33,27,1,BUTTER,HB,old,m,./images/BUTTERHB.png,,,,,,,,,,,,,,,,,,,,,,,
,,,,,,,,,,,,,,,,,199540,19,2022-01-28_17h28.58.359,lexical_decision_task_DD_L5,2021.2.3,MacIntel,59.99880002,,,,,,,,,,,1.1722,1,,,,,,,,,,,,,,m,1,1.1722,,,,,,,,0.043476563,-0.340425347,0,0,0,,0,34,34,51,1,SAUCE,HB,old,m,./images/SAUCEHB.png,,,,,,,,,,,,,,,,,,,,,,,
,,,,,,,,,,,,,,,,,199540,19,2022-01-28_17h28.58.359,lexical_decision_task_DD_L5,2021.2.3,MacIntel,59.99880002,,,,,,,,,,,1.1814,1,,,,,,,,,,,,,,z,1,1.1814,,,,,,,,0.043476563,-0.340425347,0,0,0,,0,35,35,104,1,GITTY,LB,old,z,./images/GITTYLB.png,,,,,,,,,,,,,,,,,,,,,,,
,,,,,,,,,,,,,,,,,199540,19,2022-01-28_17h28.58.359,lexical_decision_task_DD_L5,2021.2.3,MacIntel,59.99880002,,,,,,,,,,,1.9634,1,,,,,,,,,,,,,,m,1,1.9634,,,,,,,,0.043476563,-0.340425347,0,0,0,,0,36,36,46,1,MUMMY,LB,old,m,./images/MUMMYLB.png,,,,,,,,,,,,,,,,,,,,,,,
,,,,,,,,,,,,,,,,,199540,19,2022-01-28_17h28.58.359,lexical_decision_task_DD_L5,2021.2.3,MacIntel,59.99880002,,,,,,,,,,,0.7443,1,,,,,,,,,,,,,,z,1,0.7443,,,,,,,,0.043476563,-0.340425347,0,0,0,,0,37,37,117,1,STEEG,C,old,z,./images/STEEG.png,,,,,,,,,,,,,,,,,,,,,,,
,,,,,,,,,,,,,,,,,199540,19,2022-01-28_17h28.58.359,lexical_decision_task_DD_L5,2021.2.3,MacIntel,59.99880002,,,,,,,,,,,2.7097,1,,,,,,,,,,,,,,z,1,2.7097,,,,,,,,0.043476563,-0.340425347,0,0,0,,0,38,38,113,1,LINEW,LB,old,z,./images/LINEWLB.png,,,,,,,,,,,,,,,,,,,,,,,
,,,,,,,,,,,,,,,,,199540,19,2022-01-28_17h28.58.359,lexical_decision_task_DD_L5,2021.2.3,MacIntel,59.99880002,,,,,,,,,,,1.0812,1,,,,,,,,,,,,,,z,1,1.0812,,,,,,,,0.043476563,-0.340425347,0,0,0,,0,39,39,107,1,FASKS,LB,old,z,./images/FASKSLB.png,,,,,,,,,,,,,,,,,,,,,,,
,,,,,,,,,,,,,,,,,199540,19,2022-01-28_17h28.58.359,lexical_decision_task_DD_L5,2021.2.3,MacIntel,59.99880002,,,,,,,,,,,0.6297,1,,,,,,,,,,,,,,m,1,0.6297,,,,,,,,0.043476563,-0.340425347,0,0,0,,0,40,40,22,1,CLOWN,LB,old,m,./images/CLOWNLB.png,,,,,,,,,,,,,,,,,,,,,,,
,,,,,,,,,,,,,,,,,199540,19,2022-01-28_17h28.58.359,lexical_decision_task_DD_L5,2021.2.3,MacIntel,59.99880002,,,,,,,,,,,2.2886,1,,,,,,,,,,,,,,z,1,2.2886,,,,,,,,0.016679687,-0.400833333,1,0,0,,0,41,41,154,1,THINT,HB,old,z,./images/THINTHB.png,break_done_button,,,,,,,,,,,,,,,,,,,,,,
,,,,,,,,,,,,,,,,,199540,19,2022-01-28_17h28.58.359,lexical_decision_task_DD_L5,2021.2.3,MacIntel,59.99880002,,,,,,,,,,,2.8955,1,,,,,,,,,,,,,,m,1,2.8955,,,,,,,,0.016679687,-0.400833333,0,0,0,,0,42,42,66,1,STATUE,HB,old,m,./images/STATUEHB.png,,,,,,,,,,,,,,,,,,,,,,,
,,,,,,,,,,,,,,,,,199540,19,2022-01-28_17h28.58.359,lexical_decision_task_DD_L5,2021.2.3,MacIntel,59.99880002,,,,,,,,,,,3.955,1,,,,,,,,,,,,,,z,1,3.955,,,,,,,,0.016679687,-0.400833333,0,0,0,,0,43,43,158,1,EGECT,LB,old,z,./images/EGECTLB.png,,,,,,,,,,,,,,,,,,,,,,,
,,,,,,,,,,,,,,,,,199540,19,2022-01-28_17h28.58.359,lexical_decision_task_DD_L5,2021.2.3,MacIntel,59.99880002,,,,,,,,,,,0.9977,1,,,,,,,,,,,,,,z,1,0.9977,,,,,,,,0.016679687,-0.400833333,0,0,0,,0,44,44,134,1,TROSS,LB,old,z,./images/TROSSLB.png,,,,,,,,,,,,,,,,,,,,,,,
,,,,,,,,,,,,,,,,,199540,19,2022-01-28_17h28.58.359,lexical_decision_task_DD_L5,2021.2.3,MacIntel,59.99880002,,,,,,,,,,,6.8243,0,,,,,,,,,,,,,,m,0,6.8243,,,,,,,,0.016679687,-0.400833333,0,0,0,,0,45,45,152,1,FRAIN,LB,old,z,./images/FRAINLB.png,,,,,,,,,,,,,,,,,,,,,,,
,,,,,,,,,,,,,,,,,199540,19,2022-01-28_17h28.58.359,lexical_decision_task_DD_L5,2021.2.3,MacIntel,59.99880002,,,,,,,,,,,4.3313,1,,,,,,,,,,,,,,z,1,4.3313,,,,,,,,0.016679687,-0.400833333,0,0,0,,0,46,46,142,1,PLASK,HB,old,z,./images/PLASKHB.png,,,,,,,,,,,,,,,,,,,,,,,
,,,,,,,,,,,,,,,,,199540,19,2022-01-28_17h28.58.359,lexical_decision_task_DD_L5,2021.2.3,MacIntel,59.99880002,,,,,,,,,,,1.3538,1,,,,,,,,,,,,,,z,1,1.3538,,,,,,,,0.016679687,-0.400833333,0,0,0,,0,47,47,129,1,PRANS,C,old,z,./images/PRANS.png,,,,,,,,,,,,,,,,,,,,,,,
,,,,,,,,,,,,,,,,,199540,19,2022-01-28_17h28.58.359,lexical_decision_task_DD_L5,2021.2.3,MacIntel,59.99880002,,,,,,,,,,,3.4488,1,,,,,,,,,,,,,,m,1,3.4488,,,,,,,,0.016679687,-0.400833333,0,0,0,,0,48,48,12,1,BLOKE,HB,old,m,./images/BLOKEHB.png,,,,,,,,,,,,,,,,,,,,,,,
,,,,,,,,,,,,,,,,,199540,19,2022-01-28_17h28.58.359,lexical_decision_task_DD_L5,2021.2.3,MacIntel,59.99880002,,,,,,,,,,,1.2278,1,,,,,,,,,,,,,,m,1,1.2278,,,,,,,,0.016679687,-0.400833333,0,0,0,,0,49,49,19,1,DONKEY,LB,old,m,./images/DONKEYLB.png,,,,,,,,,,,,,,,,,,,,,,,
,,,,,,,,,,,,,,,,,199540,19,2022-01-28_17h28.58.359,lexical_decision_task_DD_L5,2021.2.3,MacIntel,59.99880002,,,,,,,,,,,2.2221,1,,,,,,,,,,,,,,z,1,2.2221,,,,,,,,0.016679687,-0.400833333,0,0,0,,0,50,50,115,1,MAWNS,HB,old,z,./images/MAWNSHB.png,,,,,,,,,,,,,,,,,,,,,,,
,,,,,,,,,,,,,,,,,199540,19,2022-01-28_17h28.58.359,lexical_decision_task_DD_L5,2021.2.3,MacIntel,59.99880002,,,,,,,,,,,0.8213,1,,,,,,,,,,,,,,z,1,0.8213,,,,,,,,0.016679687,-0.400833333,0,0,0,,0,51,51,137,1,JOOST,LB,old,z,./images/JOOSTLB.png,,,,,,,,,,,,,,,,,,,,,,,
,,,,,,,,,,,,,,,,,199540,19,2022-01-28_17h28.58.359,lexical_decision_task_DD_L5,2021.2.3,MacIntel,59.99880002,,,,,,,,,,,0.672,1,,,,,,,,,,,,,,m,1,0.672,,,,,,,,0.016679687,-0.400833333,0,0,0,,0,52,52,41,1,STREAM,C,old,m,./images/STREAM.png,,,,,,,,,,,,,,,,,,,,,,,
,,,,,,,,,,,,,,,,,199540,19,2022-01-28_17h28.58.359,lexical_decision_task_DD_L5,2021.2.3,MacIntel,59.99880002,,,,,,,,,,,1.9136,1,,,,,,,,,,,,,,m,1,1.9136,,,,,,,,0.016679687,-0.400833333,0,0,0,,0,53,53,54,1,CHERRY,HB,old,m,./images/CHERRYHB.png,,,,,,,,,,,,,,,,,,,,,,,
,,,,,,,,,,,,,,,,,199540,19,2022-01-28_17h28.58.359,lexical_decision_task_DD_L5,2021.2.3,MacIntel,59.99880002,,,,,,,,,,,1.0028,1,,,,,,,,,,,,,,m,1,1.0028,,,,,,,,0.016679687,-0.400833333,0,0,0,,0,54,54,23,1,CLOTH,C,old,m,./images/CLOTH.png,,,,,,,,,,,,,,,,,,,,,,,
,,,,,,,,,,,,,,,,,199540,19,2022-01-28_17h28.58.359,lexical_decision_task_DD_L5,2021.2.3,MacIntel,59.99880002,,,,,,,,,,,0.999,1,,,,,,,,,,,,,,z,1,0.999,,,,,,,,0.016679687,-0.400833333,0,0,0,,0,55,55,93,1,SMONE,C,old,z,./images/SMONE.png,,,,,,,,,,,,,,,,,,,,,,,
,,,,,,,,,,,,,,,,,199540,19,2022-01-28_17h28.58.359,lexical_decision_task_DD_L5,2021.2.3,MacIntel,59.99880002,,,,,,,,,,,3.4858,1,,,,,,,,,,,,,,z,1,3.4858,,,,,,,,0.016679687,-0.400833333,0,0,0,,0,56,56,131,1,NACES,LB,old,z,./images/NACESLB.png,,,,,,,,,,,,,,,,,,,,,,,
,,,,,,,,,,,,,,,,,199540,19,2022-01-28_17h28.58.359,lexical_decision_task_DD_L5,2021.2.3,MacIntel,59.99880002,,,,,,,,,,,1.0376,1,,,,,,,,,,,,,,z,1,1.0376,,,,,,,,0.016679687,-0.400833333,0,0,0,,0,57,57,162,1,LEICH,C,old,z,./images/LEICH.png,,,,,,,,,,,,,,,,,,,,,,,
,,,,,,,,,,,,,,,,,199540,19,2022-01-28_17h28.58.359,lexical_decision_task_DD_L5,2021.2.3,MacIntel,59.99880002,,,,,,,,,,,1.8873,1,,,,,,,,,,,,,,z,1,1.8873,,,,,,,,0.016679687,-0.400833333,0,0,0,,0,58,58,156,1,HIXES,C,old,z,./images/HIXES.png,,,,,,,,,,,,,,,,,,,,,,,
,,,,,,,,,,,,,,,,,199540,19,2022-01-28_17h28.58.359,lexical_decision_task_DD_L5,2021.2.3,MacIntel,59.99880002,,,,,,,,,,,7.4862,1,,,,,,,,,,,,,,z,1,7.4862,,,,,,,,0.016679687,-0.400833333,0,0,0,,0,59,59,159,1,CUDDY,C,old,z,./images/CUDDY.png,,,,,,,,,,,,,,,,,,,,,,,
,,,,,,,,,,,,,,,,,199540,19,2022-01-28_17h28.58.359,lexical_decision_task_DD_L5,2021.2.3,MacIntel,59.99880002,,,,,,,,,,,1.6716,1,,,,,,,,,,,,,,m,1,1.6716,,,,,,,,0.016679687,-0.400833333,0,0,0,,0,60,60,78,1,BROOM,HB,old,m,./images/BROOMHB.png,,,,,,,,,,,,,,,,,,,,,,,
,,,,,,,,,,,,,,,,,199540,19,2022-01-28_17h28.58.359,lexical_decision_task_DD_L5,2021.2.3,MacIntel,59.99880002,,,,,,,,,,,3.4659,1,,,,,,,,,,,,,,z,1,3.4659,,,,,,,,0.016679687,-0.400833333,0,0,0,,0,61,61,97,1,CHIDS,HB,old,z,./images/CHIDSHB.png,,,,,,,,,,,,,,,,,,,,,,,
,,,,,,,,,,,,,,,,,199540,19,2022-01-28_17h28.58.359,lexical_decision_task_DD_L5,2021.2.3,MacIntel,59.99880002,,,,,,,,,,,1.2323,1,,,,,,,,,,,,,,m,1,1.2323,,,,,,,,0.016679687,-0.400833333,0,0,0,,0,62,62,9,1,DIVER,HB,old,m,./images/DIVERHB.png,,,,,,,,,,,,,,,,,,,,,,,
,,,,,,,,,,,,,,,,,199540,19,2022-01-28_17h28.58.359,lexical_decision_task_DD_L5,2021.2.3,MacIntel,59.99880002,,,,,,,,,,,0.9732,1,,,,,,,,,,,,,,m,1,0.9732,,,,,,,,0.016679687,-0.400833333,0,0,0,,0,63,63,6,1,STAIN,HB,old,m,./images/STAINHB.png,,,,,,,,,,,,,,,,,,,,,,,
,,,,,,,,,,,,,,,,,199540,19,2022-01-28_17h28.58.359,lexical_decision_task_DD_L5,2021.2.3,MacIntel,59.99880002,,,,,,,,,,,0.6799,1,,,,,,,,,,,,,,m,1,0.6799,,,,,,,,0.016679687,-0.400833333,0,0,0,,0,64,64,56,1,HEATER,C,old,m,./images/HEATER.png,,,,,,,,,,,,,,,,,,,,,,,
,,,,,,,,,,,,,,,,,199540,19,2022-01-28_17h28.58.359,lexical_decision_task_DD_L5,2021.2.3,MacIntel,59.99880002,,,,,,,,,,,1.6648,1,,,,,,,,,,,,,,z,1,1.6648,,,,,,,,0.016679687,-0.400833333,0,0,0,,0,65,65,151,1,TINKY,HB,old,z,./images/TINKYHB.png,,,,,,,,,,,,,,,,,,,,,,,
,,,,,,,,,,,,,,,,,199540,19,2022-01-28_17h28.58.359,lexical_decision_task_DD_L5,2021.2.3,MacIntel,59.99880002,,,,,,,,,,,0.9456,1,,,,,,,,,,,,,,z,1,0.9456,,,,,,,,0.016679687,-0.400833333,0,0,0,,0,66,66,135,1,JOODY,C,old,z,./images/JOODY.png,,,,,,,,,,,,,,,,,,,,,,,
,,,,,,,,,,,,,,,,,199540,19,2022-01-28_17h28.58.359,lexical_decision_task_DD_L5,2021.2.3,MacIntel,59.99880002,,,,,,,,,,,1.3705,1,,,,,,,,,,,,,,z,1,1.3705,,,,,,,,0.016679687,-0.400833333,0,0,0,,0,67,67,160,1,VEETS,HB,old,z,./images/VEETSHB.png,,,,,,,,,,,,,,,,,,,,,,,
,,,,,,,,,,,,,,,,,199540,19,2022-01-28_17h28.58.359,lexical_decision_task_DD_L5,2021.2.3,MacIntel,59.99880002,,,,,,,,,,,1.3857,1,,,,,,,,,,,,,,z,1,1.3857,,,,,,,,0.016679687,-0.400833333,0,0,0,,0,68,68,118,1,BAVEL,HB,old,z,./images/BAVELHB.png,,,,,,,,,,,,,,,,,,,,,,,
,,,,,,,,,,,,,,,,,199540,19,2022-01-28_17h28.58.359,lexical_decision_task_DD_L5,2021.2.3,MacIntel,59.99880002,,,,,,,,,,,0.8036,1,,,,,,,,,,,,,,m,1,0.8036,,,,,,,,0.016679687,-0.400833333,0,0,0,,0,69,69,73,1,GLOVE,LB,old,m,./images/GLOVELB.png,,,,,,,,,,,,,,,,,,,,,,,
,,,,,,,,,,,,,,,,,199540,19,2022-01-28_17h28.58.359,lexical_decision_task_DD_L5,2021.2.3,MacIntel,59.99880002,,,,,,,,,,,3.5625,0,,,,,,,,,,,,,,z,0,3.5625,,,,,,,,0.016679687,-0.400833333,0,0,0,,0,70,70,83,1,WHISKY,C,old,m,./images/WHISKY.png,,,,,,,,,,,,,,,,,,,,,,,
,,,,,,,,,,,,,,,,,199540,19,2022-01-28_17h28.58.359,lexical_decision_task_DD_L5,2021.2.3,MacIntel,59.99880002,,,,,,,,,,,1.2965,1,,,,,,,,,,,,,,z,1,1.2965,,,,,,,,0.016679687,-0.400833333,0,0,0,,0,71,71,128,1,GRIFT,LB,old,z,./images/GRIFTLB.png,,,,,,,,,,,,,,,,,,,,,,,
,,,,,,,,,,,,,,,,,199540,19,2022-01-28_17h28.58.359,lexical_decision_task_DD_L5,2021.2.3,MacIntel,59.99880002,,,,,,,,,,,1.2638,1,,,,,,,,,,,,,,z,1,1.2638,,,,,,,,0.016679687,-0.400833333,0,0,0,,0,72,72,100,1,DRIBS,HB,old,z,./images/DRIBSHB.png,,,,,,,,,,,,,,,,,,,,,,,
,,,,,,,,,,,,,,,,,199540,19,2022-01-28_17h28.58.359,lexical_decision_task_DD_L5,2021.2.3,MacIntel,59.99880002,,,,,,,,,,,2.099,1,,,,,,,,,,,,,,z,1,2.099,,,,,,,,0.016679687,-0.400833333,0,0,0,,0,73,73,91,1,SHENS,HB,old,z,./images/SHENSHB.png,,,,,,,,,,,,,,,,,,,,,,,
,,,,,,,,,,,,,,,,,199540,19,2022-01-28_17h28.58.359,lexical_decision_task_DD_L5,2021.2.3,MacIntel,59.99880002,,,,,,,,,,,4.779,1,,,,,,,,,,,,,,z,1,4.779,,,,,,,,0.016679687,-0.400833333,0,0,0,,0,74,74,94,1,BLANS,HB,old,z,./images/BLANSHB.png,,,,,,,,,,,,,,,,,,,,,,,
,,,,,,,,,,,,,,,,,199540,19,2022-01-28_17h28.58.359,lexical_decision_task_DD_L5,2021.2.3,MacIntel,59.99880002,,,,,,,,,,,0.9518,1,,,,,,,,,,,,,,m,1,0.9518,,,,,,,,0.016679687,-0.400833333,0,0,0,,0,75,75,76,1,MIDGET,LB,old,m,./images/MIDGETLB.png,,,,,,,,,,,,,,,,,,,,,,,
,,,,,,,,,,,,,,,,,199540,19,2022-01-28_17h28.58.359,lexical_decision_task_DD_L5,2021.2.3,MacIntel,59.99880002,,,,,,,,,,,1.2609,1,,,,,,,,,,,,,,m,1,1.2609,,,,,,,,0.016679687,-0.400833333,0,0,0,,0,76,76,32,1,HOCKEY,C,old,m,./images/HOCKEY.png,,,,,,,,,,,,,,,,,,,,,,,
,,,,,,,,,,,,,,,,,199540,19,2022-01-28_17h28.58.359,lexical_decision_task_DD_L5,2021.2.3,MacIntel,59.99880002,,,,,,,,,,,0.9334,1,,,,,,,,,,,,,,m,1,0.9334,,,,,,,,0.016679687,-0.400833333,0,0,0,,0,77,77,77,1,WHEEL,C,old,m,./images/WHEEL.png,,,,,,,,,,,,,,,,,,,,,,,
,,,,,,,,,,,,,,,,,199540,19,2022-01-28_17h28.58.359,lexical_decision_task_DD_L5,2021.2.3,MacIntel,59.99880002,,,,,,,,,,,1.9476,1,,,,,,,,,,,,,,z,1,1.9476,,,,,,,,0.016679687,-0.400833333,0,0,0,,0,78,78,112,1,MYING,HB,old,z,./images/MYINGHB.png,,,,,,,,,,,,,,,,,,,,,,,
,,,,,,,,,,,,,,,,,199540,19,2022-01-28_17h28.58.359,lexical_decision_task_DD_L5,2021.2.3,MacIntel,59.99880002,,,,,,,,,,,2.4127,1,,,,,,,,,,,,,,z,1,2.4127,,,,,,,,0.016679687,-0.400833333,0,0,0,,0,79,79,167,1,ZONET,LB,old,z,./images/ZONETLB.png,,,,,,,,,,,,,,,,,,,,,,,
,,,,,,,,,,,,,,,,,199540,19,2022-01-28_17h28.58.359,lexical_decision_task_DD_L5,2021.2.3,MacIntel,59.99880002,,,,,,,,,,,2.9485,1,,,,,,,,,,,,,,z,1,2.9485,,,,,,,,0.016679687,-0.400833333,0,0,0,,0,80,80,116,1,BALGY,LB,old,z,./images/BALGYLB.png,,,,,,,,,,,,,,,,,,,,,,,
,,,,,,,,,,,,,,,,,199540,19,2022-01-28_17h28.58.359,lexical_decision_task_DD_L5,2021.2.3,MacIntel,59.99880002,,,,,,,,,,,0.7726,1,,,,,,,,,,,,,,m,1,0.7726,,,,,,,,0.016679687,-0.400833333,0,0,0,,0,81,81,8,1,CLIFF,C,old,m,./images/CLIFF.png,,,,,,,,,,,,,,,,,,,,,,,
,,,,,,,,,,,,,,,,,199540,19,2022-01-28_17h28.58.359,lexical_decision_task_DD_L5,2021.2.3,MacIntel,59.99880002,,,,,,,,,,,3.8656,1,,,,,,,,,,,,,,m,1,3.8656,,,,,,,,0.016679687,-0.400833333,0,0,0,,0,82,82,57,1,FERRY,HB,old,m,./images/FERRYHB.png,,,,,,,,,,,,,,,,,,,,,,,
,,,,,,,,,,,,,,,,,199540,19,2022-01-28_17h28.58.359,lexical_decision_task_DD_L5,2021.2.3,MacIntel,59.99880002,,,,,,,,,,,3.0719,0,,,,,,,,,,,,,,m,0,3.0719,,,,,,,,-0.144249132,-0.405256076,1,0,0,,0,83,83,120,1,RINED,C,old,z,./images/RINED.png,break_done_button,,,,,,,,,,,,,,,,,,,,,,
,,,,,,,,,,,,,,,,,199540,19,2022-01-28_17h28.58.359,lexical_decision_task_DD_L5,2021.2.3,MacIntel,59.99880002,,,,,,,,,,,1.6743,1,,,,,,,,,,,,,,z,1,1.6743,,,,,,,,-0.13953559,-0.405256076,0,0,0,,0,84,84,163,1,GAMBA,HB,old,z,./images/GAMBAHB.png,,,,,,,,,,,,,,,,,,,,,,,
,,,,,,,,,,,,,,,,,199540,19,2022-01-28_17h28.58.359,lexical_decision_task_DD_L5,2021.2.3,MacIntel,59.99880002,,,,,,,,,,,2.8688,1,,,,,,,,,,,,,,m,1,2.8688,,,,,,,,-0.13953559,-0.405256076,0,0,0,,0,85,85,36,1,BOILER,HB,old,m,./images/BOILERHB.png,,,,,,,,,,,,,,,,,,,,,,,
,,,,,,,,,,,,,,,,,199540,19,2022-01-28_17h28.58.359,lexical_decision_task_DD_L5,2021.2.3,MacIntel,59.99880002,,,,,,,,,,,0.9149,1,,,,,,,,,,,,,,m,1,0.9149,,,,,,,,-0.13953559,-0.405256076,0,0,0,,0,86,86,34,1,RAZOR,LB,old,m,./images/RAZORLB.png,,,,,,,,,,,,,,,,,,,,,,,
,,,,,,,,,,,,,,,,,199540,19,2022-01-28_17h28.58.359,lexical_decision_task_DD_L5,2021.2.3,MacIntel,59.99880002,,,,,,,,,,,0.6623,1,,,,,,,,,,,,,,m,1,0.6623,,,,,,,,-0.13953559,-0.405256076,0,0,0,,0,87,87,59,1,BRUSH,C,old,m,./images/BRUSH.png,,,,,,,,,,,,,,,,,,,,,,,
,,,,,,,,,,,,,,,,,199540,19,2022-01-28_17h28.58.359,lexical_decision_task_DD_L5,2021.2.3,MacIntel,59.99880002,,,,,,,,,,,7.8937,0,,,,,,,,,,,,,,z,0,7.8937,,,,,,,,-0.13953559,-0.405256076,0,0,0,,0,88,88,20,1,GRANNY,C,old,m,./images/GRANNY.png,,,,,,,,,,,,,,,,,,,,,,,
,,,,,,,,,,,,,,,,,199540,19,2022-01-28_17h28.58.359,lexical_decision_task_DD_L5,2021.2.3,MacIntel,59.99880002,,,,,,,,,,,1.0098,1,,,,,,,,,,,,,,z,1,1.0098,,,,,,,,-0.13953559,-0.405256076,0,0,0,,0,89,89,126,1,GUELS,C,old,z,./images/GUELS.png,,,,,,,,,,,,,,,,,,,,,,,
,,,,,,,,,,,,,,,,,199540,19,2022-01-28_17h28.58.359,lexical_decision_task_DD_L5,2021.2.3,MacIntel,59.99880002,,,,,,,,,,,0.8942,1,,,,,,,,,,,,,,z,1,0.8942,,,,,,,,-0.13953559,-0.405256076,0,0,0,,0,90,90,132,1,SCIFF,C,old,z,./images/SCIFF.png,,,,,,,,,,,,,,,,,,,,,,,
,,,,,,,,,,,,,,,,,199540,19,2022-01-28_17h28.58.359,lexical_decision_task_DD_L5,2021.2.3,MacIntel,59.99880002,,,,,,,,,,,1.5859,1,,,,,,,,,,,,,,m,1,1.5859,,,,,,,,-0.13953559,-0.405256076,0,0,0,,0,91,91,43,1,STOOL,LB,old,m,./images/STOOLLB.png,,,,,,,,,,,,,,,,,,,,,,,
,,,,,,,,,,,,,,,,,199540,19,2022-01-28_17h28.58.359,lexical_decision_task_DD_L5,2021.2.3,MacIntel,59.99880002,,,,,,,,,,,0.97,1,,,,,,,,,,,,,,z,1,0.97,,,,,,,,-0.13953559,-0.405256076,0,0,0,,0,92,92,125,1,MOOKY,LB,old,z,./images/MOOKYLB.png,,,,,,,,,,,,,,,,,,,,,,,
,,,,,,,,,,,,,,,,,199540,19,2022-01-28_17h28.58.359,lexical_decision_task_DD_L5,2021.2.3,MacIntel,59.99880002,,,,,,,,,,,1.6141,1,,,,,,,,,,,,,,m,1,1.6141,,,,,,,,-0.13953559,-0.405256076,0,0,0,,0,93,93,3,1,CRATER,HB,old,m,./images/CRATERHB.png,,,,,,,,,,,,,,,,,,,,,,,
,,,,,,,,,,,,,,,,,199540,19,2022-01-28_17h28.58.359,lexical_decision_task_DD_L5,2021.2.3,MacIntel,59.99880002,,,,,,,,,,,0.8707,1,,,,,,,,,,,,,,m,1,0.8707,,,,,,,,-0.13953559,-0.405256076,0,0,0,,0,94,94,29,1,PISTOL,C,old,m,./images/PISTOL.png,,,,,,,,,,,,,,,,,,,,,,,
,,,,,,,,,,,,,,,,,199540,19,2022-01-28_17h28.58.359,lexical_decision_task_DD_L5,2021.2.3,MacIntel,59.99880002,,,,,,,,,,,1.2634,1,,,,,,,,,,,,,,m,1,1.2634,,,,,,,,-0.13953559,-0.405256076,0,0,0,,0,95,95,49,1,BISHOP,LB,old,m,./images/BISHOPLB.png,,,,,,,,,,,,,,,,,,,,,,,
,,,,,,,,,,,,,,,,,199540,19,2022-01-28_17h28.58.359,lexical_decision_task_DD_L5,2021.2.3,MacIntel,59.99880002,,,,,,,,,,,1.503,1,,,,,,,,,,,,,,m,1,1.503,,,,,,,,-0.13953559,-0.405256076,0,0,0,,0,96,96,60,1,CURRY,HB,old,m,./images/CURRYHB.png,,,,,,,,,,,,,,,,,,,,,,,
,,,,,,,,,,,,,,,,,199540,19,2022-01-28_17h28.58.359,lexical_decision_task_DD_L5,2021.2.3,MacIntel,59.99880002,,,,,,,,,,,2.1188,1,,,,,,,,,,,,,,z,1,2.1188,,,,,,,,-0.13953559,-0.405256076,0,0,0,,0,97,97,106,1,CLUMS,HB,old,z,./images/CLUMSHB.png,,,,,,,,,,,,,,,,,,,,,,,
,,,,,,,,,,,,,,,,,199540,19,2022-01-28_17h28.58.359,lexical_decision_task_DD_L5,2021.2.3,MacIntel,59.99880002,,,,,,,,,,,0.8206,1,,,,,,,,,,,,,,m,1,0.8206,,,,,,,,-0.13953559,-0.405256076,0,0,0,,0,98,98,47,1,LAGOON,C,old,m,./images/LAGOON.png,,,,,,,,,,,,,,,,,,,,,,,
,,,,,,,,,,,,,,,,,199540,19,2022-01-28_17h28.58.359,lexical_decision_task_DD_L5,2021.2.3,MacIntel,59.99880002,,,,,,,,,,,0.8778,1,,,,,,,,,,,,,,m,1,0.8778,,,,,,,,-0.13953559,-0.405256076,0,0,0,,0,99,99,11,1,MEDAL,C,old,m,./images/MEDAL.png,,,,,,,,,,,,,,,,,,,,,,,
,,,,,,,,,,,,,,,,,199540,19,2022-01-28_17h28.58.359,lexical_decision_task_DD_L5,2021.2.3,MacIntel,59.99880002,,,,,,,,,,,0.8801,1,,,,,,,,,,,,,,z,1,0.8801,,,,,,,,-0.13953559,-0.405256076,0,0,0,,0,100,100,138,1,PLICE,C,old,z,./images/PLICE.png,,,,,,,,,,,,,,,,,,,,,,,
,,,,,,,,,,,,,,,,,199540,19,2022-01-28_17h28.58.359,lexical_decision_task_DD_L5,2021.2.3,MacIntel,59.99880002,,,,,,,,,,,1.3482,1,,,,,,,,,,,,,,z,1,1.3482,,,,,,,,-0.13953559,-0.405256076,0,0,0,,0,101,101,139,1,BLEAR,HB,old,z,./images/BLEARHB.png,,,,,,,,,,,,,,,,,,,,,,,
,,,,,,,,,,,,,,,,,199540,19,2022-01-28_17h28.58.359,lexical_decision_task_DD_L5,2021.2.3,MacIntel,59.99880002,,,,,,,,,,,0.6567,1,,,,,,,,,,,,,,m,1,0.6567,,,,,,,,-0.13953559,-0.405256076,0,0,0,,0,102,102,1,1,TOWEL,LB,old,m,./images/TOWELLB.png,,,,,,,,,,,,,,,,,,,,,,,
,,,,,,,,,,,,,,,,,199540,19,2022-01-28_17h28.58.359,lexical_decision_task_DD_L5,2021.2.3,MacIntel,59.99880002,,,,,,,,,,,0.8843,1,,,,,,,,,,,,,,z,1,0.8843,,,,,,,,-0.13953559,-0.405256076,0,0,0,,0,103,103,143,1,MONGS,LB,old,z,./images/MONGSLB.png,,,,,,,,,,,,,,,,,,,,,,,
,,,,,,,,,,,,,,,,,199540,19,2022-01-28_17h28.58.359,lexical_decision_task_DD_L5,2021.2.3,MacIntel,59.99880002,,,,,,,,,,,0.9866,1,,,,,,,,,,,,,,z,1,0.9866,,,,,,,,-0.13953559,-0.405256076,0,0,0,,0,104,104,105,1,MOKER,C,old,z,./images/MOKER.png,,,,,,,,,,,,,,,,,,,,,,,
,,,,,,,,,,,,,,,,,199540,19,2022-01-28_17h28.58.359,lexical_decision_task_DD_L5,2021.2.3,MacIntel,59.99880002,,,,,,,,,,,1.5705,1,,,,,,,,,,,,,,z,1,1.5705,,,,,,,,-0.13953559,-0.405256076,0,0,0,,0,105,105,122,1,BLOOT,LB,old,z,./images/BLOOTLB.png,,,,,,,,,,,,,,,,,,,,,,,
,,,,,,,,,,,,,,,,,199540,19,2022-01-28_17h28.58.359,lexical_decision_task_DD_L5,2021.2.3,MacIntel,59.99880002,,,,,,,,,,,1.9325,1,,,,,,,,,,,,,,z,1,1.9325,,,,,,,,-0.13953559,-0.405256076,0,0,0,,0,106,106,157,1,INLER,HB,old,z,./images/INLERHB.png,,,,,,,,,,,,,,,,,,,,,,,
,,,,,,,,,,,,,,,,,199540,19,2022-01-28_17h28.58.359,lexical_decision_task_DD_L5,2021.2.3,MacIntel,59.99880002,,,,,,,,,,,1.6686,1,,,,,,,,,,,,,,z,1,1.6686,,,,,,,,-0.13953559,-0.405256076,0,0,0,,0,107,107,127,1,NINDY,HB,old,z,./images/NINDYHB.png,,,,,,,,,,,,,,,,,,,,,,,
,,,,,,,,,,,,,,,,,199540,19,2022-01-28_17h28.58.359,lexical_decision_task_DD_L5,2021.2.3,MacIntel,59.99880002,,,,,,,,,,,0.7549,1,,,,,,,,,,,,,,z,1,0.7549,,,,,,,,-0.13953559,-0.405256076,0,0,0,,0,108,108,150,1,NOOLS,C,old,z,./images/NOOLS.png,,,,,,,,,,,,,,,,,,,,,,,
,,,,,,,,,,,,,,,,,199540,19,2022-01-28_17h28.58.359,lexical_decision_task_DD_L5,2021.2.3,MacIntel,59.99880002,,,,,,,,,,,1.5574,1,,,,,,,,,,,,,,z,1,1.5574,,,,,,,,-0.13953559,-0.405256076,0,0,0,,0,109,109,108,1,GRUET,C,old,z,./images/GRUET.png,,,,,,,,,,,,,,,,,,,,,,,
,,,,,,,,,,,,,,,,,199540,19,2022-01-28_17h28.58.359,lexical_decision_task_DD_L5,2021.2.3,MacIntel,59.99880002,,,,,,,,,,,0.6047,1,,,,,,,,,,,,,,m,1,0.6047,,,,,,,,-0.13953559,-0.405256076,0,0,0,,0,110,110,64,1,BRIDE,LB,old,m,./images/BRIDELB.png,,,,,,,,,,,,,,,,,,,,,,,
,,,,,,,,,,,,,,,,,199540,19,2022-01-28_17h28.58.359,lexical_decision_task_DD_L5,2021.2.3,MacIntel,59.99880002,,,,,,,,,,,0.6472,1,,,,,,,,,,,,,,m,1,0.6472,,,,,,,,-0.13953559,-0.405256076,0,0,0,,0,111,111,10,1,GARDEN,LB,old,m,./images/GARDENLB.png,,,,,,,,,,,,,,,,,,,,,,,
,,,,,,,,,,,,,,,,,199540,19,2022-01-28_17h28.58.359,lexical_decision_task_DD_L5,2021.2.3,MacIntel,59.99880002,,,,,,,,,,,1.547,1,,,,,,,,,,,,,,z,1,1.547,,,,,,,,-0.13953559,-0.405256076,0,0,0,,0,112,112,161,1,BLAPS,LB,old,z,./images/BLAPSLB.png,,,,,,,,,,,,,,,,,,,,,,,
,,,,,,,,,,,,,,,,,199540,19,2022-01-28_17h28.58.359,lexical_decision_task_DD_L5,2021.2.3,MacIntel,59.99880002,,,,,,,,,,,0.6771,1,,,,,,,,,,,,,,m,1,0.6771,,,,,,,,-0.13953559,-0.405256076,0,0,0,,0,113,113,68,1,VALLEY,C,old,m,./images/VALLEY.png,,,,,,,,,,,,,,,,,,,,,,,
,,,,,,,,,,,,,,,,,199540,19,2022-01-28_17h28.58.359,lexical_decision_task_DD_L5,2021.2.3,MacIntel,59.99880002,,,,,,,,,,,0.696,1,,,,,,,,,,,,,,m,1,0.696,,,,,,,,-0.13953559,-0.405256076,0,0,0,,0,114,114,4,1,BOXER,LB,old,m,./images/BOXERLB.png,,,,,,,,,,,,,,,,,,,,,,,
,,,,,,,,,,,,,,,,,199540,19,2022-01-28_17h28.58.359,lexical_decision_task_DD_L5,2021.2.3,MacIntel,59.99880002,,,,,,,,,,,0.7819,1,,,,,,,,,,,,,,m,1,0.7819,,,,,,,,-0.13953559,-0.405256076,0,0,0,,0,115,115,42,1,CHAIN,HB,old,m,./images/CHAINHB.png,,,,,,,,,,,,,,,,,,,,,,,
,,,,,,,,,,,,,,,,,199540,19,2022-01-28_17h28.58.359,lexical_decision_task_DD_L5,2021.2.3,MacIntel,59.99880002,,,,,,,,,,,1.0732,1,,,,,,,,,,,,,,z,1,1.0732,,,,,,,,-0.13953559,-0.405256076,0,0,0,,0,116,116,164,1,SGREW,LB,old,z,./images/SGREWLB.png,,,,,,,,,,,,,,,,,,,,,,,
,,,,,,,,,,,,,,,,,199540,19,2022-01-28_17h28.58.359,lexical_decision_task_DD_L5,2021.2.3,MacIntel,59.99880002,,,,,,,,,,,0.6562,1,,,,,,,,,,,,,,m,1,0.6562,,,,,,,,-0.13953559,-0.405256076,0,0,0,,0,117,117,25,1,CHALK,LB,old,m,./images/CHALKLB.png,,,,,,,,,,,,,,,,,,,,,,,
,,,,,,,,,,,,,,,,,199540,19,2022-01-28_17h28.58.359,lexical_decision_task_DD_L5,2021.2.3,MacIntel,59.99880002,,,,,,,,,,,0.6634,1,,,,,,,,,,,,,,m,1,0.6634,,,,,,,,-0.13953559,-0.405256076,0,0,0,,0,118,118,70,1,BANANA,LB,old,m,./images/BANANALB.png,,,,,,,,,,,,,,,,,,,,,,,
,,,,,,,,,,,,,,,,,199540,19,2022-01-28_17h28.58.359,lexical_decision_task_DD_L5,2021.2.3,MacIntel,59.99880002,,,,,,,,,,,1.0396,1,,,,,,,,,,,,,,m,1,1.0396,,,,,,,,-0.13953559,-0.405256076,0,0,0,,0,119,119,33,1,SAUNA,HB,old,m,./images/SAUNAHB.png,,,,,,,,,,,,,,,,,,,,,,,
,,,,,,,,,,,,,,,,,199540,19,2022-01-28_17h28.58.359,lexical_decision_task_DD_L5,2021.2.3,MacIntel,59.99880002,,,,,,,,,,,1.251,1,,,,,,,,,,,,,,z,1,1.251,,,,,,,,-0.13953559,-0.405256076,0,0,0,,0,120,120,133,1,POWDY,HB,old,z,./images/POWDYHB.png,,,,,,,,,,,,,,,,,,,,,,,
,,,,,,,,,,,,,,,,,199540,19,2022-01-28_17h28.58.359,lexical_decision_task_DD_L5,2021.2.3,MacIntel,59.99880002,,,,,,,,,,,0.7249,1,,,,,,,,,,,,,,z,1,0.7249,,,,,,,,-0.13953559,-0.405256076,0,0,0,,0,121,121,89,1,DRIEK,LB,old,z,./images/DRIEKLB.png,,,,,,,,,,,,,,,,,,,,,,,
,,,,,,,,,,,,,,,,,199540,19,2022-01-28_17h28.58.359,lexical_decision_task_DD_L5,2021.2.3,MacIntel,59.99880002,,,,,,,,,,,0.7187,1,,,,,,,,,,,,,,m,1,0.7187,,,,,,,,-0.13953559,-0.405256076,0,0,0,,0,122,122,2,1,STOVE,C,old,m,./images/STOVE.png,,,,,,,,,,,,,,,,,,,,,,,
,,,,,,,,,,,,,,,,,199540,19,2022-01-28_17h28.58.359,lexical_decision_task_DD_L5,2021.2.3,MacIntel,59.99880002,,,,,,,,,,,0.6157,1,,,,,,,,,,,,,,m,1,0.6157,,,,,,,,-0.13953559,-0.405256076,0,0,0,,0,123,123,40,1,SNAKE,LB,old,m,./images/SNAKELB.png,,,,,,,,,,,,,,,,,,,,,,,
,,,,,,,,,,,,,,,,,199540,19,2022-01-28_17h28.58.359,lexical_decision_task_DD_L5,2021.2.3,MacIntel,59.99880002,,,,,,,,,,,0.5859,1,,,,,,,,,,,,,,m,1,0.5859,,,,,,,,-0.13953559,-0.405256076,0,0,0,,0,124,124,44,1,BASKET,C,old,m,./images/BASKET.png,,,,,,,,,,,,,,,,,,,,,,,
,,,,,,,,,,,,,,,,,199540,19,2022-01-28_17h28.58.359,lexical_decision_task_DD_L5,2021.2.3,MacIntel,59.99880002,,,,,,,,,,,0.9177,1,,,,,,,,,,,,,,z,1,0.9177,,,,,,,,-0.121579861,-0.405759549,1,0,0,,0,125,125,144,1,NAIRY,C,old,z,./images/NAIRY.png,break_done_button,,,,,,,,,,,,,,,,,,,,,,
,,,,,,,,,,,,,,,,,199540,19,2022-01-28_17h28.58.359,lexical_decision_task_DD_L5,2021.2.3,MacIntel,59.99880002,,,,,,,,,,,1.2386,1,,,,,,,,,,,,,,m,1,1.2386,,,,,,,,-0.121579861,-0.405759549,0,0,0,,0,126,126,71,1,BUBBLE,C,old,m,./images/BUBBLE.png,,,,,,,,,,,,,,,,,,,,,,,
,,,,,,,,,,,,,,,,,199540,19,2022-01-28_17h28.58.359,lexical_decision_task_DD_L5,2021.2.3,MacIntel,59.99880002,,,,,,,,,,,1.8278,1,,,,,,,,,,,,,,m,1,1.8278,,,,,,,,-0.121579861,-0.405759549,0,0,0,,0,127,127,35,1,LLAMA,C,old,m,./images/LLAMA.png,,,,,,,,,,,,,,,,,,,,,,,
,,,,,,,,,,,,,,,,,199540,19,2022-01-28_17h28.58.359,lexical_decision_task_DD_L5,2021.2.3,MacIntel,59.99880002,,,,,,,,,,,0.684,1,,,,,,,,,,,,,,m,1,0.684,,,,,,,,-0.121579861,-0.405759549,0,0,0,,0,128,128,53,1,POSTER,C,old,m,./images/POSTER.png,,,,,,,,,,,,,,,,,,,,,,,
,,,,,,,,,,,,,,,,,199540,19,2022-01-28_17h28.58.359,lexical_decision_task_DD_L5,2021.2.3,MacIntel,59.99880002,,,,,,,,,,,0.9501,1,,,,,,,,,,,,,,m,1,0.9501,,,,,,,,-0.121579861,-0.405759549,0,0,0,,0,129,129,26,1,CLOUD,C,old,m,./images/CLOUD.png,,,,,,,,,,,,,,,,,,,,,,,
,,,,,,,,,,,,,,,,,199540,19,2022-01-28_17h28.58.359,lexical_decision_task_DD_L5,2021.2.3,MacIntel,59.99880002,,,,,,,,,,,0.5817,1,,,,,,,,,,,,,,m,1,0.5817,,,,,,,,-0.121579861,-0.405759549,0,0,0,,0,130,130,16,1,GRAPE,LB,old,m,./images/GRAPELB.png,,,,,,,,,,,,,,,,,,,,,,,
,,,,,,,,,,,,,,,,,199540,19,2022-01-28_17h28.58.359,lexical_decision_task_DD_L5,2021.2.3,MacIntel,59.99880002,,,,,,,,,,,1.0528,1,,,,,,,,,,,,,,z,1,1.0528,,,,,,,,-0.121579861,-0.405759549,0,0,0,,0,131,131,90,1,NEAST,C,old,z,./images/NEAST.png,,,,,,,,,,,,,,,,,,,,,,,
,,,,,,,,,,,,,,,,,199540,19,2022-01-28_17h28.58.359,lexical_decision_task_DD_L5,2021.2.3,MacIntel,59.99880002,,,,,,,,,,,0.6423,1,,,,,,,,,,,,,,m,1,0.6423,,,,,,,,-0.121579861,-0.405759549,0,0,0,,0,132,132,13,1,BUNNY,LB,old,m,./images/BUNNYLB.png,,,,,,,,,,,,,,,,,,,,,,,
,,,,,,,,,,,,,,,,,199540,19,2022-01-28_17h28.58.359,lexical_decision_task_DD_L5,2021.2.3,MacIntel,59.99880002,,,,,,,,,,,3.4603,1,,,,,,,,,,,,,,m,1,3.4603,,,,,,,,-0.121579861,-0.405759549,0,0,0,,0,133,133,62,1,MAMMAL,C,old,m,./images/MAMMAL.png,,,,,,,,,,,,,,,,,,,,,,,
,,,,,,,,,,,,,,,,,199540,19,2022-01-28_17h28.58.359,lexical_decision_task_DD_L5,2021.2.3,MacIntel,59.99880002,,,,,,,,,,,0.672,1,,,,,,,,,,,,,,z,1,0.672,,,,,,,,-0.121579861,-0.405759549,0,0,0,,0,134,134,149,1,VEASE,LB,old,z,./images/VEASELB.png,,,,,,,,,,,,,,,,,,,,,,,
,,,,,,,,,,,,,,,,,199540,19,2022-01-28_17h28.58.359,lexical_decision_task_DD_L5,2021.2.3,MacIntel,59.99880002,,,,,,,,,,,0.7358,1,,,,,,,,,,,,,,z,1,0.7358,,,,,,,,-0.121579861,-0.405759549,0,0,0,,0,135,135,123,1,SEDGE,C,old,z,./images/SEDGE.png,,,,,,,,,,,,,,,,,,,,,,,
,,,,,,,,,,,,,,,,,199540,19,2022-01-28_17h28.58.359,lexical_decision_task_DD_L5,2021.2.3,MacIntel,59.99880002,,,,,,,,,,,17.8478,1,,,,,,,,,,,,,,z,1,17.8478,,,,,,,,-0.121579861,-0.405759549,0,0,0,,0,136,136,124,1,TUNCH,HB,old,z,./images/TUNCHHB.png,,,,,,,,,,,,,,,,,,,,,,,
,,,,,,,,,,,,,,,,,199540,19,2022-01-28_17h28.58.359,lexical_decision_task_DD_L5,2021.2.3,MacIntel,59.99880002,,,,,,,,,,,2.5205,1,,,,,,,,,,,,,,z,1,2.5205,,,,,,,,-0.121579861,-0.405759549,0,0,0,,0,137,137,87,1,TRING,C,old,z,./images/TRING.png,,,,,,,,,,,,,,,,,,,,,,,
,,,,,,,,,,,,,,,,,199540,19,2022-01-28_17h28.58.359,lexical_decision_task_DD_L5,2021.2.3,MacIntel,59.99880002,,,,,,,,,,,1.7907,1,,,,,,,,,,,,,,z,1,1.7907,,,,,,,,-0.121579861,-0.405759549,0,0,0,,0,138,138,121,1,CEERS,HB,old,z,./images/CEERSHB.png,,,,,,,,,,,,,,,,,,,,,,,
,,,,,,,,,,,,,,,,,199540,19,2022-01-28_17h28.58.359,lexical_decision_task_DD_L5,2021.2.3,MacIntel,59.99880002,,,,,,,,,,,0.8896,1,,,,,,,,,,,,,,m,1,0.8896,,,,,,,,-0.121579861,-0.405759549,0,0,0,,0,139,139,21,1,DANCER,HB,old,m,./images/DANCERHB.png,,,,,,,,,,,,,,,,,,,,,,,
,,,,,,,,,,,,,,,,,199540,19,2022-01-28_17h28.58.359,lexical_decision_task_DD_L5,2021.2.3,MacIntel,59.99880002,,,,,,,,,,,0.853,1,,,,,,,,,,,,,,m,1,0.853,,,,,,,,-0.121579861,-0.405759549,0,0,0,,0,140,140,30,1,SLOPE,HB,old,m,./images/SLOPEHB.png,,,,,,,,,,,,,,,,,,,,,,,
,,,,,,,,,,,,,,,,,199540,19,2022-01-28_17h28.58.359,lexical_decision_task_DD_L5,2021.2.3,MacIntel,59.99880002,,,,,,,,,,,0.7682,1,,,,,,,,,,,,,,z,1,0.7682,,,,,,,,-0.121579861,-0.405759549,0,0,0,,0,141,141,140,1,DOVET,LB,old,z,./images/DOVETLB.png,,,,,,,,,,,,,,,,,,,,,,,
,,,,,,,,,,,,,,,,,199540,19,2022-01-28_17h28.58.359,lexical_decision_task_DD_L5,2021.2.3,MacIntel,59.99880002,,,,,,,,,,,1.3326,1,,,,,,,,,,,,,,z,1,1.3326,,,,,,,,-0.121579861,-0.405759549,0,0,0,,0,142,142,110,1,CRUNK,LB,old,z,./images/CRUNKLB.png,,,,,,,,,,,,,,,,,,,,,,,
,,,,,,,,,,,,,,,,,199540,19,2022-01-28_17h28.58.359,lexical_decision_task_DD_L5,2021.2.3,MacIntel,59.99880002,,,,,,,,,,,0.8431,1,,,,,,,,,,,,,,m,1,0.8431,,,,,,,,-0.121579861,-0.405759549,0,0,0,,0,143,143,17,1,PARADE,C,old,m,./images/PARADE.png,,,,,,,,,,,,,,,,,,,,,,,
,,,,,,,,,,,,,,,,,199540,19,2022-01-28_17h28.58.359,lexical_decision_task_DD_L5,2021.2.3,MacIntel,59.99880002,,,,,,,,,,,1.2521,1,,,,,,,,,,,,,,m,1,1.2521,,,,,,,,-0.121579861,-0.405759549,0,0,0,,0,144,144,38,1,ENGINE,C,old,m,./images/ENGINE.png,,,,,,,,,,,,,,,,,,,,,,,
,,,,,,,,,,,,,,,,,199540,19,2022-01-28_17h28.58.359,lexical_decision_task_DD_L5,2021.2.3,MacIntel,59.99880002,,,,,,,,,,,0.9146,1,,,,,,,,,,,,,,m,1,0.9146,,,,,,,,-0.121579861,-0.405759549,0,0,0,,0,145,145,15,1,COLLAR,HB,old,m,./images/COLLARHB.png,,,,,,,,,,,,,,,,,,,,,,,
,,,,,,,,,,,,,,,,,199540,19,2022-01-28_17h28.58.359,lexical_decision_task_DD_L5,2021.2.3,MacIntel,59.99880002,,,,,,,,,,,0.7682,1,,,,,,,,,,,,,,m,1,0.7682,,,,,,,,-0.121579861,-0.405759549,0,0,0,,0,146,146,45,1,MONKEY,HB,old,m,./images/MONKEYHB.png,,,,,,,,,,,,,,,,,,,,,,,
,,,,,,,,,,,,,,,,,199540,19,2022-01-28_17h28.58.359,lexical_decision_task_DD_L5,2021.2.3,MacIntel,59.99880002,,,,,,,,,,,2.114,1,,,,,,,,,,,,,,z,1,2.114,,,,,,,,-0.121579861,-0.405759549,0,0,0,,0,147,147,166,1,SHORY,HB,old,z,./images/SHORYHB.png,,,,,,,,,,,,,,,,,,,,,,,
,,,,,,,,,,,,,,,,,199540,19,2022-01-28_17h28.58.359,lexical_decision_task_DD_L5,2021.2.3,MacIntel,59.99880002,,,,,,,,,,,0.8377,1,,,,,,,,,,,,,,z,1,0.8377,,,,,,,,-0.121579861,-0.405759549,0,0,0,,0,148,148,114,1,RIKES,C,old,z,./images/RIKES.png,,,,,,,,,,,,,,,,,,,,,,,
,,,,,,,,,,,,,,,,,199540,19,2022-01-28_17h28.58.359,lexical_decision_task_DD_L5,2021.2.3,MacIntel,59.99880002,,,,,,,,,,,0.5817,1,,,,,,,,,,,,,,m,1,0.5817,,,,,,,,-0.121579861,-0.405759549,0,0,0,,0,149,149,67,1,POKER,LB,old,m,./images/POKERLB.png,,,,,,,,,,,,,,,,,,,,,,,
,,,,,,,,,,,,,,,,,199540,19,2022-01-28_17h28.58.359,lexical_decision_task_DD_L5,2021.2.3,MacIntel,59.99880002,,,,,,,,,,,2.0283,1,,,,,,,,,,,,,,z,1,2.0283,,,,,,,,-0.121579861,-0.405759549,0,0,0,,0,150,150,85,1,CHULK,HB,old,z,./images/CHULKHB.png,,,,,,,,,,,,,,,,,,,,,,,
,,,,,,,,,,,,,,,,,199540,19,2022-01-28_17h28.58.359,lexical_decision_task_DD_L5,2021.2.3,MacIntel,59.99880002,,,,,,,,,,,5.1703,1,,,,,,,,,,,,,,m,1,5.1703,,,,,,,,-0.121579861,-0.405759549,0,0,0,,0,151,151,72,1,FLASK,HB,old,m,./images/FLASKHB.png,,,,,,,,,,,,,,,,,,,,,,,
,,,,,,,,,,,,,,,,,199540,19,2022-01-28_17h28.58.359,lexical_decision_task_DD_L5,2021.2.3,MacIntel,59.99880002,,,,,,,,,,,0.7317,1,,,,,,,,,,,,,,m,1,0.7317,,,,,,,,-0.121579861,-0.405759549,0,0,0,,0,152,152,37,1,TIGER,LB,old,m,./images/TIGERLB.png,,,,,,,,,,,,,,,,,,,,,,,
,,,,,,,,,,,,,,,,,199540,19,2022-01-28_17h28.58.359,lexical_decision_task_DD_L5,2021.2.3,MacIntel,59.99880002,,,,,,,,,,,0.7639,1,,,,,,,,,,,,,,m,1,0.7639,,,,,,,,-0.121579861,-0.405759549,0,0,0,,0,153,153,79,1,RULER,LB,old,m,./images/RULERLB.png,,,,,,,,,,,,,,,,,,,,,,,
,,,,,,,,,,,,,,,,,199540,19,2022-01-28_17h28.58.359,lexical_decision_task_DD_L5,2021.2.3,MacIntel,59.99880002,,,,,,,,,,,1.2402,1,,,,,,,,,,,,,,z,1,1.2402,,,,,,,,-0.121579861,-0.405759549,0,0,0,,0,154,154,109,1,BURGE,HB,old,z,./images/BURGEHB.png,,,,,,,,,,,,,,,,,,,,,,,
,,,,,,,,,,,,,,,,,199540,19,2022-01-28_17h28.58.359,lexical_decision_task_DD_L5,2021.2.3,MacIntel,59.99880002,,,,,,,,,,,1.3013,1,,,,,,,,,,,,,,z,1,1.3013,,,,,,,,-0.121579861,-0.405759549,0,0,0,,0,155,155,148,1,JOMS,HB,old,z,./images/JOMSHB.png,,,,,,,,,,,,,,,,,,,,,,,
,,,,,,,,,,,,,,,,,199540,19,2022-01-28_17h28.58.359,lexical_decision_task_DD_L5,2021.2.3,MacIntel,59.99880002,,,,,,,,,,,1.1287,1,,,,,,,,,,,,,,z,1,1.1287,,,,,,,,-0.121579861,-0.405759549,0,0,0,,0,156,156,96,1,KEAMS,C,old,z,./images/KEAMS.png,,,,,,,,,,,,,,,,,,,,,,,
,,,,,,,,,,,,,,,,,199540,19,2022-01-28_17h28.58.359,lexical_decision_task_DD_L5,2021.2.3,MacIntel,59.99880002,,,,,,,,,,,1.4634,1,,,,,,,,,,,,,,z,1,1.4634,,,,,,,,-0.121579861,-0.405759549,0,0,0,,0,157,157,98,1,BAMPS,LB,old,z,./images/BAMPSLB.png,,,,,,,,,,,,,,,,,,,,,,,
,,,,,,,,,,,,,,,,,199540,19,2022-01-28_17h28.58.359,lexical_decision_task_DD_L5,2021.2.3,MacIntel,59.99880002,,,,,,,,,,,9.5614,1,,,,,,,,,,,,,,z,1,9.5614,,,,,,,,-0.121579861,-0.405759549,0,0,0,,0,158,158,153,1,CLUPS,C,old,z,./images/CLUPS.png,,,,,,,,,,,,,,,,,,,,,,,
,,,,,,,,,,,,,,,,,199540,19,2022-01-28_17h28.58.359,lexical_decision_task_DD_L5,2021.2.3,MacIntel,59.99880002,,,,,,,,,,,7.0824,1,,,,,,,,,,,,,,m,1,7.0824,,,,,,,,-0.121579861,-0.405759549,0,0,0,,0,159,159,0,1,WALNUT,HB,old,m,./images/WALNUTHB.png,,,,,,,,,,,,,,,,,,,,,,,
,,,,,,,,,,,,,,,,,199540,19,2022-01-28_17h28.58.359,lexical_decision_task_DD_L5,2021.2.3,MacIntel,59.99880002,,,,,,,,,,,0.6965,1,,,,,,,,,,,,,,m,1,0.6965,,,,,,,,-0.121579861,-0.405759549,0,0,0,,0,160,160,61,1,ARTIST,LB,old,m,./images/ARTISTLB.png,,,,,,,,,,,,,,,,,,,,,,,
,,,,,,,,,,,,,,,,,199540,19,2022-01-28_17h28.58.359,lexical_decision_task_DD_L5,2021.2.3,MacIntel,59.99880002,,,,,,,,,,,1.6385,1,,,,,,,,,,,,,,m,1,1.6385,,,,,,,,-0.121579861,-0.405759549,0,0,0,,0,161,161,75,1,HAMMER,HB,old,m,./images/HAMMERHB.png,,,,,,,,,,,,,,,,,,,,,,,
,,,,,,,,,,,,,,,,,199540,19,2022-01-28_17h28.58.359,lexical_decision_task_DD_L5,2021.2.3,MacIntel,59.99880002,,,,,,,,,,,0.9533,1,,,,,,,,,,,,,,z,1,0.9533,,,,,,,,-0.121579861,-0.405759549,0,0,0,,0,162,162,102,1,DULLE,C,old,z,./images/DULLE.png,,,,,,,,,,,,,,,,,,,,,,,
,,,,,,,,,,,,,,,,,199540,19,2022-01-28_17h28.58.359,lexical_decision_task_DD_L5,2021.2.3,MacIntel,59.99880002,,,,,,,,,,,0.7273,1,,,,,,,,,,,,,,m,1,0.7273,,,,,,,,-0.121579861,-0.405759549,0,0,0,,0,163,163,5,1,BAMBOO,C,old,m,./images/BAMBOO.png,,,,,,,,,,,,,,,,,,,,,,,
,,,,,,,,,,,,,,,,,199540,19,2022-01-28_17h28.58.359,lexical_decision_task_DD_L5,2021.2.3,MacIntel,59.99880002,,,,,,,,,,,0.7871,1,,,,,,,,,,,,,,m,1,0.7871,,,,,,,,-0.121579861,-0.405759549,0,0,0,,0,164,164,58,1,CANOE,LB,old,m,./images/CANOELB.png,,,,,,,,,,,,,,,,,,,,,,,
,,,,,,,,,,,,,,,,,199540,19,2022-01-28_17h28.58.359,lexical_decision_task_DD_L5,2021.2.3,MacIntel,59.99880002,,,,,,,,,,,0.869,1,,,,,,,,,,,,,,z,1,0.869,,,,,,,,-0.121579861,-0.405759549,0,0,0,,0,165,165,136,1,WERVE,HB,old,z,./images/WERVEHB.png,,,,,,,,,,,,,,,,,,,,,,,
,,,,,,,,,,,,,,,,,199540,19,2022-01-28_17h28.58.359,lexical_decision_task_DD_L5,2021.2.3,MacIntel,59.99880002,,,,,,,,,,,1.0802,1,,,,,,,,,,,,,,m,1,1.0802,,,,,,,,-0.121579861,-0.405759549,0,0,0,,0,166,166,63,1,BAKER,HB,old,m,./images/BAKERHB.png,,,,,,,,,,,,,,,,,,,,,,,
,,,,,,,,,,,,,,,,,199540,19,2022-01-28_17h28.58.359,lexical_decision_task_DD_L5,2021.2.3,MacIntel,59.99880002,,,,,,,,,,,1.5153,1,,,,,,,,,,,,,,z,1,1.5153,,,,,,,,-0.121579861,-0.405759549,0,0,0,,0,167,167,119,1,PAFER,LB,old,z,./images/PAFERLB.png,,,,,,,,,,,,,,,,,,,,,,,
,-0.048420139,-0.406323785,1,0,0,instr_done_button,,,,,,1,test,"In the next phase you will be presented with the words from the the first phase. Your job is to decide whether you remember seeing the word or not. If you remember seeing the word press ""old"" or type ""m"". If you do not remember seeing the word press ""new"" or type ""z"". Please press the space bar or click on continue to begin. ",,,199540,19,2022-01-28_17h28.58.359,lexical_decision_task_DD_L5,2021.2.3,MacIntel,59.99880002,,,,,,,,,,,,,,,,,,,,,,,,,,,,,,,,,,,,,,,,,,,,,,,,,,,,,0,0,0,0,1,,,,,,,,,,,,,,,,,
,-0.016297743,-0.392105035,1,0,0,instr_done_button,,,,,,1,test,"In the next phase you will be presented with the words from the the first phase. Your job is to decide whether you remember seeing the word or not. If you remember seeing the word press ""old"" or type ""m"". If you do not remember seeing the word press ""new"" or type ""z"". Please press the space bar or click on continue to begin. ",,,199540,19,2022-01-28_17h28.58.359,lexical_decision_task_DD_L5,2021.2.3,MacIntel,59.99880002,,,,,,,,,,,,,,,,,,,,,,,,,,,,,,,,,,,,,,,,,,,,,,,,,,,,,1,0,1,0,1,,,,,,,,,,,,,,,,,
,-0.004262153,-0.409661458,1,0,0,instr_done_button,,,,,,1,test,"In the next phase you will be presented with the words from the the first phase. Your job is to decide whether you remember seeing the word or not. If you remember seeing the word press ""old"" or type ""m"". If you do not remember seeing the word press ""new"" or type ""z"". Please press the space bar or click on continue to begin. ",,,199540,19,2022-01-28_17h28.58.359,lexical_decision_task_DD_L5,2021.2.3,MacIntel,59.99880002,,,,,,,,,,,,,,,,,,,,,,,,,,,,,,,,,,,,,,,,,,,,,,,,,,,,,2,0,2,0,1,,,,,,,,,,,,,,,,,
,-0.004262153,-0.409661458,1,0,0,instr_done_button,,,,,,1,test,"In the next phase you will be presented with the words from the the first phase. Your job is to decide whether you remember seeing the word or not. If you remember seeing the word press ""old"" or type ""m"". If you do not remember seeing the word press ""new"" or type ""z"". Please press the space bar or click on continue to begin. ",,,199540,19,2022-01-28_17h28.58.359,lexical_decision_task_DD_L5,2021.2.3,MacIntel,59.99880002,,,,,,,,,,,,,,,,,,,,,,,,,,,,,,,,,,,,,,,,,,,,,,,,,,,,,3,0,3,0,1,,,,,,,,,,,,,,,,,
space,-0.003459201,-0.391540799,0,0,0,,,,,,,1,test,"In the next phase you will be presented with the words from the the first phase. Your job is to decide whether you remember seeing the word or not. If you remember seeing the word press ""old"" or type ""m"". If you do not remember seeing the word press ""new"" or type ""z"". Please press the space bar or click on continue to begin. ",,,199540,19,2022-01-28_17h28.58.359,lexical_decision_task_DD_L5,2021.2.3,MacIntel,59.99880002,,,,,,,,,,,,,,,,,,,,,,,,,,,,,,,,,,,,,,,,,,,,,,,,,,,,,4,0,4,0,1,1.8859,,,,,,,,,,,,,,,,
,,,,,,,,,,,,,,,,,199540,19,2022-01-28_17h28.58.359,lexical_decision_task_DD_L5,2021.2.3,MacIntel,59.99880002,,,,,,,,,,,9.4608,1,,,,,,,,,,,,,,,,,,,,,,,,-0.003459201,-0.391540799,0,0,0,,,,,,,BOXER,LB,m,y,./images/BOXERLB.png,,,,,,,,m,1,9.4608,,,,,,,,0,0,0,4,1,
,,,,,,,,,,,,,,,,,199540,19,2022-01-28_17h28.58.359,lexical_decision_task_DD_L5,2021.2.3,MacIntel,59.99880002,,,,,,,,,,,2.0251,1,,,,,,,,,,,,,,,,,,,,,,,,-0.003459201,-0.391540799,0,0,0,,,,,,,SPINE,C,m,y,./images/SPINE.png,,,,,,,,m,1,2.0251,,,,,,,,0,1,1,65,1,
,,,,,,,,,,,,,,,,,199540,19,2022-01-28_17h28.58.359,lexical_decision_task_DD_L5,2021.2.3,MacIntel,59.99880002,,,,,,,,,,,0.7154,1,,,,,,,,,,,,,,,,,,,,,,,,-0.003459201,-0.391540799,0,0,0,,,,,,,CLOTH,C,m,y,./images/CLOTH.png,,,,,,,,m,1,0.7154,,,,,,,,0,2,2,23,1,
,,,,,,,,,,,,,,,,,199540,19,2022-01-28_17h28.58.359,lexical_decision_task_DD_L5,2021.2.3,MacIntel,59.99880002,,,,,,,,,,,6.0318,1,,,,,,,,,,,,,,,,,,,,,,,,-0.003459201,-0.391540799,0,0,0,,,,,,,STRING,C,z,y,./images/STRING.png,,,,,,,,z,1,6.0318,,,,,,,,0,3,3,125,1,
,,,,,,,,,,,,,,,,,199540,19,2022-01-28_17h28.58.359,lexical_decision_task_DD_L5,2021.2.3,MacIntel,59.99880002,,,,,,,,,,,2.21,1,,,,,,,,,,,,,,,,,,,,,,,,-0.003459201,-0.391540799,0,0,0,,,,,,,HAMMER,HB,m,y,./images/HAMMERHB.png,,,,,,,,m,1,2.21,,,,,,,,0,4,4,75,1,
,,,,,,,,,,,,,,,,,199540,19,2022-01-28_17h28.58.359,lexical_decision_task_DD_L5,2021.2.3,MacIntel,59.99880002,,,,,,,,,,,1.1413,1,,,,,,,,,,,,,,,,,,,,,,,,-0.003459201,-0.391540799,0,0,0,,,,,,,SAUCE,HB,m,y,./images/SAUCEHB.png,,,,,,,,m,1,1.1413,,,,,,,,0,5,5,51,1,
,,,,,,,,,,,,,,,,,199540,19,2022-01-28_17h28.58.359,lexical_decision_task_DD_L5,2021.2.3,MacIntel,59.99880002,,,,,,,,,,,1.5343,1,,,,,,,,,,,,,,,,,,,,,,,,-0.003459201,-0.391540799,0,0,0,,,,,,,GRANNY,C,m,y,./images/GRANNY.png,,,,,,,,m,1,1.5343,,,,,,,,0,6,6,20,1,
,,,,,,,,,,,,,,,,,199540,19,2022-01-28_17h28.58.359,lexical_decision_task_DD_L5,2021.2.3,MacIntel,59.99880002,,,,,,,,,,,0.6572,1,,,,,,,,,,,,,,,,,,,,,,,,-0.003459201,-0.391540799,0,0,0,,,,,,,TIGER,LB,m,y,./images/TIGERLB.png,,,,,,,,m,1,0.6572,,,,,,,,0,7,7,37,1,
,,,,,,,,,,,,,,,,,199540,19,2022-01-28_17h28.58.359,lexical_decision_task_DD_L5,2021.2.3,MacIntel,59.99880002,,,,,,,,,,,0.9497,0,,,,,,,,,,,,,,,,,,,,,,,,-0.003459201,-0.391540799,0,0,0,,,,,,,COUCH,C,z,y,./images/COUCH.png,,,,,,,,m,0,0.9497,,,,,,,,0,8,8,161,1,
,,,,,,,,,,,,,,,,,199540,19,2022-01-28_17h28.58.359,lexical_decision_task_DD_L5,2021.2.3,MacIntel,59.99880002,,,,,,,,,,,0.7703,1,,,,,,,,,,,,,,,,,,,,,,,,-0.003459201,-0.391540799,0,0,0,,,,,,,BISHOP,LB,m,y,./images/BISHOPLB.png,,,,,,,,m,1,0.7703,,,,,,,,0,9,9,49,1,
,,,,,,,,,,,,,,,,,199540,19,2022-01-28_17h28.58.359,lexical_decision_task_DD_L5,2021.2.3,MacIntel,59.99880002,,,,,,,,,,,0.8317,1,,,,,,,,,,,,,,,,,,,,,,,,-0.003459201,-0.391540799,0,0,0,,,,,,,ONION,HB,z,y,./images/ONIONHB.png,,,,,,,,z,1,0.8317,,,,,,,,0,10,10,135,1,
,,,,,,,,,,,,,,,,,199540,19,2022-01-28_17h28.58.359,lexical_decision_task_DD_L5,2021.2.3,MacIntel,59.99880002,,,,,,,,,,,0.6393,0,,,,,,,,,,,,,,,,,,,,,,,,-0.003459201,-0.391540799,0,0,0,,,,,,,SMOKER,C,z,y,./images/SMOKER.png,,,,,,,,m,0,0.6393,,,,,,,,0,11,11,110,1,
,,,,,,,,,,,,,,,,,199540,19,2022-01-28_17h28.58.359,lexical_decision_task_DD_L5,2021.2.3,MacIntel,59.99880002,,,,,,,,,,,1.3692,1,,,,,,,,,,,,,,,,,,,,,,,,-0.003459201,-0.391540799,0,0,0,,,,,,,SKIING,C,z,y,./images/SKIING.png,,,,,,,,z,1,1.3692,,,,,,,,0,12,12,101,1,
,,,,,,,,,,,,,,,,,199540,19,2022-01-28_17h28.58.359,lexical_decision_task_DD_L5,2021.2.3,MacIntel,59.99880002,,,,,,,,,,,1.7329,1,,,,,,,,,,,,,,,,,,,,,,,,-0.003459201,-0.391540799,0,0,0,,,,,,,QUILL,LB,z,y,./images/QUILLLB.png,,,,,,,,z,1,1.7329,,,,,,,,0,13,13,115,1,
,,,,,,,,,,,,,,,,,199540,19,2022-01-28_17h28.58.359,lexical_decision_task_DD_L5,2021.2.3,MacIntel,59.99880002,,,,,,,,,,,1.7232,1,,,,,,,,,,,,,,,,,,,,,,,,-0.003459201,-0.391540799,0,0,0,,,,,,,JUMPER,C,m,y,./images/JUMPER.png,,,,,,,,m,1,1.7232,,,,,,,,0,14,14,74,1,
,,,,,,,,,,,,,,,,,199540,19,2022-01-28_17h28.58.359,lexical_decision_task_DD_L5,2021.2.3,MacIntel,59.99880002,,,,,,,,,,,1.0083,1,,,,,,,,,,,,,,,,,,,,,,,,-0.003459201,-0.391540799,0,0,0,,,,,,,LITTER,HB,z,y,./images/LITTERHB.png,,,,,,,,z,1,1.0083,,,,,,,,0,15,15,162,1,
,,,,,,,,,,,,,,,,,199540,19,2022-01-28_17h28.58.359,lexical_decision_task_DD_L5,2021.2.3,MacIntel,59.99880002,,,,,,,,,,,0.8329,1,,,,,,,,,,,,,,,,,,,,,,,,-0.003459201,-0.391540799,0,0,0,,,,,,,PISTOL,C,m,y,./images/PISTOL.png,,,,,,,,m,1,0.8329,,,,,,,,0,16,16,29,1,
,,,,,,,,,,,,,,,,,199540,19,2022-01-28_17h28.58.359,lexical_decision_task_DD_L5,2021.2.3,MacIntel,59.99880002,,,,,,,,,,,0.7479,0,,,,,,,,,,,,,,,,,,,,,,,,-0.003459201,-0.391540799,0,0,0,,,,,,,PARADE,C,m,y,./images/PARADE.png,,,,,,,,z,0,0.7479,,,,,,,,0,17,17,17,1,
,,,,,,,,,,,,,,,,,199540,19,2022-01-28_17h28.58.359,lexical_decision_task_DD_L5,2021.2.3,MacIntel,59.99880002,,,,,,,,,,,0.7347,1,,,,,,,,,,,,,,,,,,,,,,,,-0.003459201,-0.391540799,0,0,0,,,,,,,TRIPOD,HB,z,y,./images/TRIPODHB.png,,,,,,,,z,1,0.7347,,,,,,,,0,18,18,138,1,
,,,,,,,,,,,,,,,,,199540,19,2022-01-28_17h28.58.359,lexical_decision_task_DD_L5,2021.2.3,MacIntel,59.99880002,,,,,,,,,,,1.5818,1,,,,,,,,,,,,,,,,,,,,,,,,-0.003459201,-0.391540799,0,0,0,,,,,,,DANCER,HB,m,y,./images/DANCERHB.png,,,,,,,,m,1,1.5818,,,,,,,,0,19,19,21,1,
,,,,,,,,,,,,,,,,,199540,19,2022-01-28_17h28.58.359,lexical_decision_task_DD_L5,2021.2.3,MacIntel,59.99880002,,,,,,,,,,,1.6317,1,,,,,,,,,,,,,,,,,,,,,,,,-0.003459201,-0.391540799,0,0,0,,,,,,,HEATER,C,m,y,./images/HEATER.png,,,,,,,,m,1,1.6317,,,,,,,,0,20,20,56,1,
,,,,,,,,,,,,,,,,,199540,19,2022-01-28_17h28.58.359,lexical_decision_task_DD_L5,2021.2.3,MacIntel,59.99880002,,,,,,,,,,,0.7964,1,,,,,,,,,,,,,,,,,,,,,,,,-0.003459201,-0.391540799,0,0,0,,,,,,,TWINS,HB,z,y,./images/TWINSHB.png,,,,,,,,z,1,0.7964,,,,,,,,0,21,21,144,1,
,,,,,,,,,,,,,,,,,199540,19,2022-01-28_17h28.58.359,lexical_decision_task_DD_L5,2021.2.3,MacIntel,59.99880002,,,,,,,,,,,0.6569,1,,,,,,,,,,,,,,,,,,,,,,,,-0.003459201,-0.391540799,0,0,0,,,,,,,PASTA,C,z,y,./images/PASTA.png,,,,,,,,z,1,0.6569,,,,,,,,0,22,22,89,1,
,,,,,,,,,,,,,,,,,199540,19,2022-01-28_17h28.58.359,lexical_decision_task_DD_L5,2021.2.3,MacIntel,59.99880002,,,,,,,,,,,1.4234,1,,,,,,,,,,,,,,,,,,,,,,,,-0.003459201,-0.391540799,0,0,0,,,,,,,SWING,LB,z,y,./images/SWINGLB.png,,,,,,,,z,1,1.4234,,,,,,,,0,23,23,124,1,
,,,,,,,,,,,,,,,,,199540,19,2022-01-28_17h28.58.359,lexical_decision_task_DD_L5,2021.2.3,MacIntel,59.99880002,,,,,,,,,,,1.2839,1,,,,,,,,,,,,,,,,,,,,,,,,-0.003459201,-0.391540799,0,0,0,,,,,,,MIRROR,HB,z,y,./images/MIRRORHB.png,,,,,,,,z,1,1.2839,,,,,,,,0,24,24,147,1,
,,,,,,,,,,,,,,,,,199540,19,2022-01-28_17h28.58.359,lexical_decision_task_DD_L5,2021.2.3,MacIntel,59.99880002,,,,,,,,,,,0.7322,1,,,,,,,,,,,,,,,,,,,,,,,,-0.003459201,-0.391540799,0,0,0,,,,,,,CRUMB,C,z,y,./images/CRUMB.png,,,,,,,,z,1,0.7322,,,,,,,,0,25,25,113,1,
,,,,,,,,,,,,,,,,,199540,19,2022-01-28_17h28.58.359,lexical_decision_task_DD_L5,2021.2.3,MacIntel,59.99880002,,,,,,,,,,,1.0335,1,,,,,,,,,,,,,,,,,,,,,,,,-0.003459201,-0.391540799,0,0,0,,,,,,,PURSE,C,z,y,./images/PURSE.png,,,,,,,,z,1,1.0335,,,,,,,,0,26,26,146,1,
,,,,,,,,,,,,,,,,,199540,19,2022-01-28_17h28.58.359,lexical_decision_task_DD_L5,2021.2.3,MacIntel,59.99880002,,,,,,,,,,,0.9814,1,,,,,,,,,,,,,,,,,,,,,,,,-0.003459201,-0.391540799,0,0,0,,,,,,,GREASE,HB,z,y,./images/GREASEHB.png,,,,,,,,z,1,0.9814,,,,,,,,0,27,27,99,1,
,,,,,,,,,,,,,,,,,199540,19,2022-01-28_17h28.58.359,lexical_decision_task_DD_L5,2021.2.3,MacIntel,59.99880002,,,,,,,,,,,1.6975,0,,,,,,,,,,,,,,,,,,,,,,,,-0.003459201,-0.391540799,0,0,0,,,,,,,PENCE,LB,z,y,./images/PENCELB.png,,,,,,,,m,0,1.6975,,,,,,,,0,28,28,100,1,
,,,,,,,,,,,,,,,,,199540,19,2022-01-28_17h28.58.359,lexical_decision_task_DD_L5,2021.2.3,MacIntel,59.99880002,,,,,,,,,,,0.6164,1,,,,,,,,,,,,,,,,,,,,,,,,-0.003459201,-0.391540799,0,0,0,,,,,,,MAMMAL,C,m,y,./images/MAMMAL.png,,,,,,,,m,1,0.6164,,,,,,,,0,29,29,62,1,
,,,,,,,,,,,,,,,,,199540,19,2022-01-28_17h28.58.359,lexical_decision_task_DD_L5,2021.2.3,MacIntel,59.99880002,,,,,,,,,,,0.5822,1,,,,,,,,,,,,,,,,,,,,,,,,-0.003459201,-0.391540799,0,0,0,,,,,,,MIDGET,LB,m,y,./images/MIDGETLB.png,,,,,,,,m,1,0.5822,,,,,,,,0,30,30,76,1,
,,,,,,,,,,,,,,,,,199540,19,2022-01-28_17h28.58.359,lexical_decision_task_DD_L5,2021.2.3,MacIntel,59.99880002,,,,,,,,,,,0.9333,1,,,,,,,,,,,,,,,,,,,,,,,,-0.003459201,-0.391540799,0,0,0,,,,,,,KIDNEY,HB,z,y,./images/KIDNEYHB.png,,,,,,,,z,1,0.9333,,,,,,,,0,31,31,105,1,
,,,,,,,,,,,,,,,,,199540,19,2022-01-28_17h28.58.359,lexical_decision_task_DD_L5,2021.2.3,MacIntel,59.99880002,,,,,,,,,,,1.2054,1,,,,,,,,,,,,,,,,,,,,,,,,-0.003459201,-0.391540799,0,0,0,,,,,,,MALLET,C,z,y,./images/MALLET.png,,,,,,,,z,1,1.2054,,,,,,,,0,32,32,134,1,
,,,,,,,,,,,,,,,,,199540,19,2022-01-28_17h28.58.359,lexical_decision_task_DD_L5,2021.2.3,MacIntel,59.99880002,,,,,,,,,,,1.4161,1,,,,,,,,,,,,,,,,,,,,,,,,-0.003459201,-0.391540799,0,0,0,,,,,,,MONKEY,HB,m,y,./images/MONKEYHB.png,,,,,,,,m,1,1.4161,,,,,,,,0,33,33,45,1,
,,,,,,,,,,,,,,,,,199540,19,2022-01-28_17h28.58.359,lexical_decision_task_DD_L5,2021.2.3,MacIntel,59.99880002,,,,,,,,,,,1.123,1,,,,,,,,,,,,,,,,,,,,,,,,-0.003459201,-0.391540799,0,0,0,,,,,,,MOSQUE,LB,z,y,./images/MOSQUELB.png,,,,,,,,z,1,1.123,,,,,,,,0,34,34,127,1,
,,,,,,,,,,,,,,,,,199540,19,2022-01-28_17h28.58.359,lexical_decision_task_DD_L5,2021.2.3,MacIntel,59.99880002,,,,,,,,,,,0.9331,0,,,,,,,,,,,,,,,,,,,,,,,,-0.003459201,-0.391540799,0,0,0,,,,,,,CHERRY,HB,m,y,./images/CHERRYHB.png,,,,,,,,z,0,0.9331,,,,,,,,0,35,35,54,1,
,,,,,,,,,,,,,,,,,199540,19,2022-01-28_17h28.58.359,lexical_decision_task_DD_L5,2021.2.3,MacIntel,59.99880002,,,,,,,,,,,0.7191,1,,,,,,,,,,,,,,,,,,,,,,,,-0.003459201,-0.391540799,0,0,0,,,,,,,TULIP,C,z,y,./images/TULIP.png,,,,,,,,z,1,0.7191,,,,,,,,0,36,36,92,1,
,,,,,,,,,,,,,,,,,199540,19,2022-01-28_17h28.58.359,lexical_decision_task_DD_L5,2021.2.3,MacIntel,59.99880002,,,,,,,,,,,2.0741,1,,,,,,,,,,,,,,,,,,,,,,,,-0.003459201,-0.391540799,0,0,0,,,,,,,WALRUS,C,z,y,./images/WALRUS.png,,,,,,,,z,1,2.0741,,,,,,,,0,37,37,107,1,
,,,,,,,,,,,,,,,,,199540,19,2022-01-28_17h28.58.359,lexical_decision_task_DD_L5,2021.2.3,MacIntel,59.99880002,,,,,,,,,,,0.8747,1,,,,,,,,,,,,,,,,,,,,,,,,-0.003459201,-0.391540799,0,0,0,,,,,,,RHINO,HB,z,y,./images/RHINOHB.png,,,,,,,,z,1,0.8747,,,,,,,,0,38,38,93,1,
,,,,,,,,,,,,,,,,,199540,19,2022-01-28_17h28.58.359,lexical_decision_task_DD_L5,2021.2.3,MacIntel,59.99880002,,,,,,,,,,,1.1591,1,,,,,,,,,,,,,,,,,,,,,,,,-0.003459201,-0.391540799,0,0,0,,,,,,,PEACH,C,z,y,./images/PEACH.png,,,,,,,,z,1,1.1591,,,,,,,,0,39,39,119,1,
,,,,,,,,,,,,,,,,,199540,19,2022-01-28_17h28.58.359,lexical_decision_task_DD_L5,2021.2.3,MacIntel,59.99880002,,,,,,,,,,,1.126,0,,,,,,,,,,,,,,,,,,,,,,,,-0.003459201,-0.391540799,0,0,0,,,,,,,CLOWN,LB,m,y,./images/CLOWNLB.png,,,,,,,,z,0,1.126,,,,,,,,0,40,40,22,1,
,,,,,,,,,,,,,,,,,199540,19,2022-01-28_17h28.58.359,lexical_decision_task_DD_L5,2021.2.3,MacIntel,59.99880002,,,,,,,,,,,0.648,0,,,,,,,,,,,,,,,,,,,,,,,,0.019014757,-0.382625868,0,0,0,space,,,,,,MEDAL,C,m,y,./images/MEDAL.png,,,,,,,,z,0,0.648,,,,,,,,0,41,41,11,1,508.4961
,,,,,,,,,,,,,,,,,199540,19,2022-01-28_17h28.58.359,lexical_decision_task_DD_L5,2021.2.3,MacIntel,59.99880002,,,,,,,,,,,3.1982,1,,,,,,,,,,,,,,,,,,,,,,,,0.019014757,-0.382625868,0,0,0,,,,,,,PILOT,C,m,y,./images/PILOT.png,,,,,,,,m,1,3.1982,,,,,,,,0,42,42,50,1,
,,,,,,,,,,,,,,,,,199540,19,2022-01-28_17h28.58.359,lexical_decision_task_DD_L5,2021.2.3,MacIntel,59.99880002,,,,,,,,,,,1.4485,1,,,,,,,,,,,,,,,,,,,,,,,,0.019014757,-0.382625868,0,0,0,,,,,,,BEARD,C,z,y,./images/BEARD.png,,,,,,,,z,1,1.4485,,,,,,,,0,43,43,86,1,
,,,,,,,,,,,,,,,,,199540,19,2022-01-28_17h28.58.359,lexical_decision_task_DD_L5,2021.2.3,MacIntel,59.99880002,,,,,,,,,,,2.7479,1,,,,,,,,,,,,,,,,,,,,,,,,0.019014757,-0.382625868,0,0,0,,,,,,,MUSCLE,LB,z,y,./images/MUSCLELB.png,,,,,,,,z,1,2.7479,,,,,,,,0,44,44,88,1,
,,,,,,,,,,,,,,,,,199540,19,2022-01-28_17h28.58.359,lexical_decision_task_DD_L5,2021.2.3,MacIntel,59.99880002,,,,,,,,,,,0.8766,1,,,,,,,,,,,,,,,,,,,,,,,,0.019014757,-0.382625868,0,0,0,,,,,,,WALNUT,HB,m,y,./images/WALNUTHB.png,,,,,,,,m,1,0.8766,,,,,,,,0,45,45,0,1,
,,,,,,,,,,,,,,,,,199540,19,2022-01-28_17h28.58.359,lexical_decision_task_DD_L5,2021.2.3,MacIntel,59.99880002,,,,,,,,,,,1.7642,1,,,,,,,,,,,,,,,,,,,,,,,,0.019014757,-0.382625868,0,0,0,,,,,,,MOTOR,LB,z,y,./images/MOTORLB.png,,,,,,,,z,1,1.7642,,,,,,,,0,46,46,97,1,
,,,,,,,,,,,,,,,,,199540,19,2022-01-28_17h28.58.359,lexical_decision_task_DD_L5,2021.2.3,MacIntel,59.99880002,,,,,,,,,,,0.835,1,,,,,,,,,,,,,,,,,,,,,,,,0.019014757,-0.382625868,0,0,0,,,,,,,PLANK,LB,z,y,./images/PLANKLB.png,,,,,,,,z,1,0.835,,,,,,,,0,47,47,85,1,
,,,,,,,,,,,,,,,,,199540,19,2022-01-28_17h28.58.359,lexical_decision_task_DD_L5,2021.2.3,MacIntel,59.99880002,,,,,,,,,,,0.8373,0,,,,,,,,,,,,,,,,,,,,,,,,0.019014757,-0.382625868,0,0,0,,,,,,,PLANET,C,m,y,./images/PLANET.png,,,,,,,,z,0,0.8373,,,,,,,,0,48,48,80,1,
,,,,,,,,,,,,,,,,,199540,19,2022-01-28_17h28.58.359,lexical_decision_task_DD_L5,2021.2.3,MacIntel,59.99880002,,,,,,,,,,,1.3882,1,,,,,,,,,,,,,,,,,,,,,,,,0.019014757,-0.382625868,0,0,0,,,,,,,ATTIC,HB,z,y,./images/ATTICHB.png,,,,,,,,z,1,1.3882,,,,,,,,0,49,49,111,1,
,,,,,,,,,,,,,,,,,199540,19,2022-01-28_17h28.58.359,lexical_decision_task_DD_L5,2021.2.3,MacIntel,59.99880002,,,,,,,,,,,1.8833,1,,,,,,,,,,,,,,,,,,,,,,,,0.019014757,-0.382625868,0,0,0,,,,,,,CANYON,LB,z,y,./images/CANYONLB.png,,,,,,,,z,1,1.8833,,,,,,,,0,50,50,118,1,
,,,,,,,,,,,,,,,,,199540,19,2022-01-28_17h28.58.359,lexical_decision_task_DD_L5,2021.2.3,MacIntel,59.99880002,,,,,,,,,,,1.6538,1,,,,,,,,,,,,,,,,,,,,,,,,0.019014757,-0.382625868,0,0,0,,,,,,,PARCEL,HB,m,y,./images/PARCELHB.png,,,,,,,,m,1,1.6538,,,,,,,,0,51,51,18,1,
,,,,,,,,,,,,,,,,,199540,19,2022-01-28_17h28.58.359,lexical_decision_task_DD_L5,2021.2.3,MacIntel,59.99880002,,,,,,,,,,,1.4057,1,,,,,,,,,,,,,,,,,,,,,,,,0.019014757,-0.382625868,0,0,0,,,,,,,COLLAR,HB,m,y,./images/COLLARHB.png,,,,,,,,m,1,1.4057,,,,,,,,0,52,52,15,1,
,,,,,,,,,,,,,,,,,199540,19,2022-01-28_17h28.58.359,lexical_decision_task_DD_L5,2021.2.3,MacIntel,59.99880002,,,,,,,,,,,2.4827,1,,,,,,,,,,,,,,,,,,,,,,,,0.019014757,-0.382625868,0,0,0,,,,,,,DOUGH,LB,z,y,./images/DOUGHLB.png,,,,,,,,z,1,2.4827,,,,,,,,0,53,53,103,1,
,,,,,,,,,,,,,,,,,199540,19,2022-01-28_17h28.58.359,lexical_decision_task_DD_L5,2021.2.3,MacIntel,59.99880002,,,,,,,,,,,0.8526,1,,,,,,,,,,,,,,,,,,,,,,,,0.019014757,-0.382625868,0,0,0,,,,,,,CRATER,HB,m,y,./images/CRATERHB.png,,,,,,,,m,1,0.8526,,,,,,,,0,54,54,3,1,
,,,,,,,,,,,,,,,,,199540,19,2022-01-28_17h28.58.359,lexical_decision_task_DD_L5,2021.2.3,MacIntel,59.99880002,,,,,,,,,,,0.6647,1,,,,,,,,,,,,,,,,,,,,,,,,0.019014757,-0.382625868,0,0,0,,,,,,,BOILER,HB,m,y,./images/BOILERHB.png,,,,,,,,m,1,0.6647,,,,,,,,0,55,55,36,1,
,,,,,,,,,,,,,,,,,199540,19,2022-01-28_17h28.58.359,lexical_decision_task_DD_L5,2021.2.3,MacIntel,59.99880002,,,,,,,,,,,0.5487,1,,,,,,,,,,,,,,,,,,,,,,,,0.019014757,-0.382625868,0,0,0,,,,,,,LIZARD,C,z,y,./images/LIZARD.png,,,,,,,,z,1,0.5487,,,,,,,,0,56,56,128,1,
,,,,,,,,,,,,,,,,,199540,19,2022-01-28_17h28.58.359,lexical_decision_task_DD_L5,2021.2.3,MacIntel,59.99880002,,,,,,,,,,,0.5322,0,,,,,,,,,,,,,,,,,,,,,,,,0.019014757,-0.382625868,0,0,0,,,,,,,CEMENT,C,z,y,./images/CEMENT.png,,,,,,,,m,0,0.5322,,,,,,,,0,57,57,158,1,
,,,,,,,,,,,,,,,,,199540,19,2022-01-28_17h28.58.359,lexical_decision_task_DD_L5,2021.2.3,MacIntel,59.99880002,,,,,,,,,,,0.6001,0,,,,,,,,,,,,,,,,,,,,,,,,0.019014757,-0.382625868,0,0,0,,,,,,,BUNNY,LB,m,y,./images/BUNNYLB.png,,,,,,,,z,0,0.6001,,,,,,,,0,58,58,13,1,
,,,,,,,,,,,,,,,,,199540,19,2022-01-28_17h28.58.359,lexical_decision_task_DD_L5,2021.2.3,MacIntel,59.99880002,,,,,,,,,,,0.899,1,,,,,,,,,,,,,,,,,,,,,,,,0.019014757,-0.382625868,0,0,0,,,,,,,JELLY,LB,z,y,./images/JELLYLB.png,,,,,,,,z,1,0.899,,,,,,,,0,59,59,148,1,
,,,,,,,,,,,,,,,,,199540,19,2022-01-28_17h28.58.359,lexical_decision_task_DD_L5,2021.2.3,MacIntel,59.99880002,,,,,,,,,,,0.5738,0,,,,,,,,,,,,,,,,,,,,,,,,0.019014757,-0.382625868,0,0,0,,,,,,,BRUSH,C,m,y,./images/BRUSH.png,,,,,,,,z,0,0.5738,,,,,,,,0,60,60,59,1,
,,,,,,,,,,,,,,,,,199540,19,2022-01-28_17h28.58.359,lexical_decision_task_DD_L5,2021.2.3,MacIntel,59.99880002,,,,,,,,,,,0.7481,0,,,,,,,,,,,,,,,,,,,,,,,,0.019014757,-0.382625868,0,0,0,,,,,,,PAINT,LB,z,y,./images/PAINTLB.png,,,,,,,,m,0,0.7481,,,,,,,,0,61,61,91,1,
,,,,,,,,,,,,,,,,,199540,19,2022-01-28_17h28.58.359,lexical_decision_task_DD_L5,2021.2.3,MacIntel,59.99880002,,,,,,,,,,,0.6722,0,,,,,,,,,,,,,,,,,,,,,,,,0.019014757,-0.382625868,0,0,0,,,,,,,BROOM,HB,m,y,./images/BROOMHB.png,,,,,,,,z,0,0.6722,,,,,,,,0,62,62,78,1,
,,,,,,,,,,,,,,,,,199540,19,2022-01-28_17h28.58.359,lexical_decision_task_DD_L5,2021.2.3,MacIntel,59.99880002,,,,,,,,,,,0.3333,1,,,,,,,,,,,,,,,,,,,,,,,,0.019014757,-0.382625868,0,0,0,,,,,,,THROAT,HB,z,y,./images/THROATHB.png,,,,,,,,z,1,0.3333,,,,,,,,0,63,63,120,1,
,,,,,,,,,,,,,,,,,199540,19,2022-01-28_17h28.58.359,lexical_decision_task_DD_L5,2021.2.3,MacIntel,59.99880002,,,,,,,,,,,0.6535,1,,,,,,,,,,,,,,,,,,,,,,,,0.019014757,-0.382625868,0,0,0,,,,,,,FENCE,C,m,y,./images/FENCE.png,,,,,,,,m,1,0.6535,,,,,,,,0,64,64,14,1,
,,,,,,,,,,,,,,,,,199540,19,2022-01-28_17h28.58.359,lexical_decision_task_DD_L5,2021.2.3,MacIntel,59.99880002,,,,,,,,,,,0.8482,1,,,,,,,,,,,,,,,,,,,,,,,,0.019014757,-0.382625868,0,0,0,,,,,,,FALCON,LB,z,y,./images/FALCONLB.png,,,,,,,,z,1,0.8482,,,,,,,,0,65,65,112,1,
,,,,,,,,,,,,,,,,,199540,19,2022-01-28_17h28.58.359,lexical_decision_task_DD_L5,2021.2.3,MacIntel,59.99880002,,,,,,,,,,,0.6711,0,,,,,,,,,,,,,,,,,,,,,,,,0.019014757,-0.382625868,0,0,0,,,,,,,CASINO,LB,m,y,./images/CASINOLB.png,,,,,,,,z,0,0.6711,,,,,,,,0,66,66,28,1,
,,,,,,,,,,,,,,,,,199540,19,2022-01-28_17h28.58.359,lexical_decision_task_DD_L5,2021.2.3,MacIntel,59.99880002,,,,,,,,,,,0.9854,0,,,,,,,,,,,,,,,,,,,,,,,,0.019014757,-0.382625868,0,0,0,,,,,,,TORCH,C,z,y,./images/TORCH.png,,,,,,,,m,0,0.9854,,,,,,,,0,67,67,152,1,
,,,,,,,,,,,,,,,,,199540,19,2022-01-28_17h28.58.359,lexical_decision_task_DD_L5,2021.2.3,MacIntel,59.99880002,,,,,,,,,,,0.8307,0,,,,,,,,,,,,,,,,,,,,,,,,0.019014757,-0.382625868,0,0,0,,,,,,,LAGOON,C,m,y,./images/LAGOON.png,,,,,,,,z,0,0.8307,,,,,,,,0,68,68,47,1,
,,,,,,,,,,,,,,,,,199540,19,2022-01-28_17h28.58.359,lexical_decision_task_DD_L5,2021.2.3,MacIntel,59.99880002,,,,,,,,,,,0.6201,1,,,,,,,,,,,,,,,,,,,,,,,,0.019014757,-0.382625868,0,0,0,,,,,,,CANDY,HB,m,y,./images/CANDYHB.png,,,,,,,,m,1,0.6201,,,,,,,,0,69,69,39,1,
,,,,,,,,,,,,,,,,,199540,19,2022-01-28_17h28.58.359,lexical_decision_task_DD_L5,2021.2.3,MacIntel,59.99880002,,,,,,,,,,,0.6171,0,,,,,,,,,,,,,,,,,,,,,,,,0.019014757,-0.382625868,0,0,0,,,,,,,CANDLE,LB,z,y,./images/CANDLELB.png,,,,,,,,m,0,0.6171,,,,,,,,0,70,70,145,1,
,,,,,,,,,,,,,,,,,199540,19,2022-01-28_17h28.58.359,lexical_decision_task_DD_L5,2021.2.3,MacIntel,59.99880002,,,,,,,,,,,1.016,1,,,,,,,,,,,,,,,,,,,,,,,,0.019014757,-0.382625868,0,0,0,,,,,,,BUTTER,HB,m,y,./images/BUTTERHB.png,,,,,,,,m,1,1.016,,,,,,,,0,71,71,27,1,
,,,,,,,,,,,,,,,,,199540,19,2022-01-28_17h28.58.359,lexical_decision_task_DD_L5,2021.2.3,MacIntel,59.99880002,,,,,,,,,,,0.946,0,,,,,,,,,,,,,,,,,,,,,,,,0.019014757,-0.382625868,0,0,0,,,,,,,SAILOR,LB,z,y,./images/SAILORLB.png,,,,,,,,m,0,0.946,,,,,,,,0,72,72,151,1,
,,,,,,,,,,,,,,,,,199540,19,2022-01-28_17h28.58.359,lexical_decision_task_DD_L5,2021.2.3,MacIntel,59.99880002,,,,,,,,,,,0.7838,1,,,,,,,,,,,,,,,,,,,,,,,,0.019014757,-0.382625868,0,0,0,,,,,,,STOOL,LB,m,y,./images/STOOLLB.png,,,,,,,,m,1,0.7838,,,,,,,,0,73,73,43,1,
,,,,,,,,,,,,,,,,,199540,19,2022-01-28_17h28.58.359,lexical_decision_task_DD_L5,2021.2.3,MacIntel,59.99880002,,,,,,,,,,,1.4676,1,,,,,,,,,,,,,,,,,,,,,,,,0.019014757,-0.382625868,0,0,0,,,,,,,POSTER,C,m,y,./images/POSTER.png,,,,,,,,m,1,1.4676,,,,,,,,0,74,74,53,1,
,,,,,,,,,,,,,,,,,199540,19,2022-01-28_17h28.58.359,lexical_decision_task_DD_L5,2021.2.3,MacIntel,59.99880002,,,,,,,,,,,0.7218,1,,,,,,,,,,,,,,,,,,,,,,,,0.019014757,-0.382625868,0,0,0,,,,,,,BIRTH,LB,z,y,./images/BIRTHLB.png,,,,,,,,z,1,0.7218,,,,,,,,0,75,75,121,1,
,,,,,,,,,,,,,,,,,199540,19,2022-01-28_17h28.58.359,lexical_decision_task_DD_L5,2021.2.3,MacIntel,59.99880002,,,,,,,,,,,0.8345,1,,,,,,,,,,,,,,,,,,,,,,,,0.019014757,-0.382625868,0,0,0,,,,,,,ARROW,HB,m,y,./images/ARROWHB.png,,,,,,,,m,1,0.8345,,,,,,,,0,76,76,69,1,
,,,,,,,,,,,,,,,,,199540,19,2022-01-28_17h28.58.359,lexical_decision_task_DD_L5,2021.2.3,MacIntel,59.99880002,,,,,,,,,,,1.0162,1,,,,,,,,,,,,,,,,,,,,,,,,0.019014757,-0.382625868,0,0,0,,,,,,,SAUNA,HB,m,y,./images/SAUNAHB.png,,,,,,,,m,1,1.0162,,,,,,,,0,77,77,33,1,
,,,,,,,,,,,,,,,,,199540,19,2022-01-28_17h28.58.359,lexical_decision_task_DD_L5,2021.2.3,MacIntel,59.99880002,,,,,,,,,,,1.7062,0,,,,,,,,,,,,,,,,,,,,,,,,0.019014757,-0.382625868,0,0,0,,,,,,,STORM,HB,z,y,./images/STORMHB.png,,,,,,,,m,0,1.7062,,,,,,,,0,78,78,114,1,
,,,,,,,,,,,,,,,,,199540,19,2022-01-28_17h28.58.359,lexical_decision_task_DD_L5,2021.2.3,MacIntel,59.99880002,,,,,,,,,,,2.2005,0,,,,,,,,,,,,,,,,,,,,,,,,0.019014757,-0.382625868,0,0,0,,,,,,,PICKLE,C,z,y,./images/PICKLE.png,,,,,,,,m,0,2.2005,,,,,,,,0,79,79,98,1,
,,,,,,,,,,,,,,,,,199540,19,2022-01-28_17h28.58.359,lexical_decision_task_DD_L5,2021.2.3,MacIntel,59.99880002,,,,,,,,,,,3.1023,1,,,,,,,,,,,,,,,,,,,,,,,,0.019014757,-0.382625868,0,0,0,,,,,,,STREAM,C,m,y,./images/STREAM.png,,,,,,,,m,1,3.1023,,,,,,,,0,80,80,41,1,
,,,,,,,,,,,,,,,,,199540,19,2022-01-28_17h28.58.359,lexical_decision_task_DD_L5,2021.2.3,MacIntel,59.99880002,,,,,,,,,,,1.1543,1,,,,,,,,,,,,,,,,,,,,,,,,0.019014757,-0.382625868,0,0,0,,,,,,,PIMPLE,C,z,y,./images/PIMPLE.png,,,,,,,,z,1,1.1543,,,,,,,,0,81,81,155,1,
,,,,,,,,,,,,,,,,,199540,19,2022-01-28_17h28.58.359,lexical_decision_task_DD_L5,2021.2.3,MacIntel,59.99880002,,,,,,,,,,,3.2713,1,,,,,,,,,,,,,,,,,,,,,,,,0.019014757,-0.382625868,0,0,0,,,,,,,BANANA,LB,m,y,./images/BANANALB.png,,,,,,,,m,1,3.2713,,,,,,,,0,82,82,70,1,
,,,,,,,,,,,,,,,,,199540,19,2022-01-28_17h28.58.359,lexical_decision_task_DD_L5,2021.2.3,MacIntel,59.99880002,,,,,,,,,,,5.7016,0,,,,,,,,,,,,,,,,,,,,,,,,0.057829861,-0.425499132,0,0,0,space,,,,,,WEASEL,C,z,y,./images/WEASEL.png,,,,,,,,m,0,5.7016,,,,,,,,0,83,83,164,1,152.9735
,,,,,,,,,,,,,,,,,199540,19,2022-01-28_17h28.58.359,lexical_decision_task_DD_L5,2021.2.3,MacIntel,59.99880002,,,,,,,,,,,2.0318,0,,,,,,,,,,,,,,,,,,,,,,,,0.057829861,-0.425499132,0,0,0,,,,,,,CARPET,C,z,y,./images/CARPET.png,,,,,,,,m,0,2.0318,,,,,,,,0,84,84,137,1,
,,,,,,,,,,,,,,,,,199540,19,2022-01-28_17h28.58.359,lexical_decision_task_DD_L5,2021.2.3,MacIntel,59.99880002,,,,,,,,,,,1.4136,1,,,,,,,,,,,,,,,,,,,,,,,,0.057829861,-0.425499132,0,0,0,,,,,,,BURIAL,C,z,y,./images/BURIAL.png,,,,,,,,z,1,1.4136,,,,,,,,0,85,85,143,1,
,,,,,,,,,,,,,,,,,199540,19,2022-01-28_17h28.58.359,lexical_decision_task_DD_L5,2021.2.3,MacIntel,59.99880002,,,,,,,,,,,1.052,1,,,,,,,,,,,,,,,,,,,,,,,,0.057829861,-0.425499132,0,0,0,,,,,,,BRIDE,LB,m,y,./images/BRIDELB.png,,,,,,,,m,1,1.052,,,,,,,,0,86,86,64,1,
,,,,,,,,,,,,,,,,,199540,19,2022-01-28_17h28.58.359,lexical_decision_task_DD_L5,2021.2.3,MacIntel,59.99880002,,,,,,,,,,,2.4187,0,,,,,,,,,,,,,,,,,,,,,,,,0.057829861,-0.425499132,0,0,0,,,,,,,URINE,LB,z,y,./images/URINELB.png,,,,,,,,m,0,2.4187,,,,,,,,0,87,87,154,1,
,,,,,,,,,,,,,,,,,199540,19,2022-01-28_17h28.58.359,lexical_decision_task_DD_L5,2021.2.3,MacIntel,59.99880002,,,,,,,,,,,4.1336,1,,,,,,,,,,,,,,,,,,,,,,,,0.057829861,-0.425499132,0,0,0,,,,,,,RAZOR,LB,m,y,./images/RAZORLB.png,,,,,,,,m,1,4.1336,,,,,,,,0,88,88,34,1,
,,,,,,,,,,,,,,,,,199540,19,2022-01-28_17h28.58.359,lexical_decision_task_DD_L5,2021.2.3,MacIntel,59.99880002,,,,,,,,,,,1.0653,1,,,,,,,,,,,,,,,,,,,,,,,,0.057829861,-0.425499132,0,0,0,,,,,,,BAMBOO,C,m,y,./images/BAMBOO.png,,,,,,,,m,1,1.0653,,,,,,,,0,89,89,5,1,
,,,,,,,,,,,,,,,,,199540,19,2022-01-28_17h28.58.359,lexical_decision_task_DD_L5,2021.2.3,MacIntel,59.99880002,,,,,,,,,,,1.1822,1,,,,,,,,,,,,,,,,,,,,,,,,0.057829861,-0.425499132,0,0,0,,,,,,,SHIELD,HB,m,y,./images/SHIELDHB.png,,,,,,,,m,1,1.1822,,,,,,,,0,90,90,48,1,
,,,,,,,,,,,,,,,,,199540,19,2022-01-28_17h28.58.359,lexical_decision_task_DD_L5,2021.2.3,MacIntel,59.99880002,,,,,,,,,,,1.7986,1,,,,,,,,,,,,,,,,,,,,,,,,0.057829861,-0.425499132,0,0,0,,,,,,,MUMMY,LB,m,y,./images/MUMMYLB.png,,,,,,,,m,1,1.7986,,,,,,,,0,91,91,46,1,
,,,,,,,,,,,,,,,,,199540,19,2022-01-28_17h28.58.359,lexical_decision_task_DD_L5,2021.2.3,MacIntel,59.99880002,,,,,,,,,,,0.8315,1,,,,,,,,,,,,,,,,,,,,,,,,0.057829861,-0.425499132,0,0,0,,,,,,,STAIN,HB,m,y,./images/STAINHB.png,,,,,,,,m,1,0.8315,,,,,,,,0,92,92,6,1,
,,,,,,,,,,,,,,,,,199540,19,2022-01-28_17h28.58.359,lexical_decision_task_DD_L5,2021.2.3,MacIntel,59.99880002,,,,,,,,,,,1.0928,1,,,,,,,,,,,,,,,,,,,,,,,,0.057829861,-0.425499132,0,0,0,,,,,,,BELLY,LB,z,y,./images/BELLYLB.png,,,,,,,,z,1,1.0928,,,,,,,,0,93,93,94,1,
,,,,,,,,,,,,,,,,,199540,19,2022-01-28_17h28.58.359,lexical_decision_task_DD_L5,2021.2.3,MacIntel,59.99880002,,,,,,,,,,,0.9643,1,,,,,,,,,,,,,,,,,,,,,,,,0.057829861,-0.425499132,0,0,0,,,,,,,SWEAT,HB,z,y,./images/SWEATHB.png,,,,,,,,z,1,0.9643,,,,,,,,0,94,94,150,1,
,,,,,,,,,,,,,,,,,199540,19,2022-01-28_17h28.58.359,lexical_decision_task_DD_L5,2021.2.3,MacIntel,59.99880002,,,,,,,,,,,1.3037,1,,,,,,,,,,,,,,,,,,,,,,,,0.057829861,-0.425499132,0,0,0,,,,,,,BASKET,C,m,y,./images/BASKET.png,,,,,,,,m,1,1.3037,,,,,,,,0,95,95,44,1,
,,,,,,,,,,,,,,,,,199540,19,2022-01-28_17h28.58.359,lexical_decision_task_DD_L5,2021.2.3,MacIntel,59.99880002,,,,,,,,,,,1.5836,0,,,,,,,,,,,,,,,,,,,,,,,,0.057829861,-0.425499132,0,0,0,,,,,,,SNACK,LB,z,y,./images/SNACKLB.png,,,,,,,,m,0,1.5836,,,,,,,,0,96,96,157,1,
,,,,,,,,,,,,,,,,,199540,19,2022-01-28_17h28.58.359,lexical_decision_task_DD_L5,2021.2.3,MacIntel,59.99880002,,,,,,,,,,,1.1994,1,,,,,,,,,,,,,,,,,,,,,,,,0.057829861,-0.425499132,0,0,0,,,,,,,LLAMA,C,m,y,./images/LLAMA.png,,,,,,,,m,1,1.1994,,,,,,,,0,97,97,35,1,
,,,,,,,,,,,,,,,,,199540,19,2022-01-28_17h28.58.359,lexical_decision_task_DD_L5,2021.2.3,MacIntel,59.99880002,,,,,,,,,,,1.0416,1,,,,,,,,,,,,,,,,,,,,,,,,0.057829861,-0.425499132,0,0,0,,,,,,,FLASK,HB,m,y,./images/FLASKHB.png,,,,,,,,m,1,1.0416,,,,,,,,0,98,98,72,1,
,,,,,,,,,,,,,,,,,199540,19,2022-01-28_17h28.58.359,lexical_decision_task_DD_L5,2021.2.3,MacIntel,59.99880002,,,,,,,,,,,0.9309,1,,,,,,,,,,,,,,,,,,,,,,,,0.057829861,-0.425499132,0,0,0,,,,,,,BAKER,HB,m,y,./images/BAKERHB.png,,,,,,,,m,1,0.9309,,,,,,,,0,99,99,63,1,
,,,,,,,,,,,,,,,,,199540,19,2022-01-28_17h28.58.359,lexical_decision_task_DD_L5,2021.2.3,MacIntel,59.99880002,,,,,,,,,,,1.9185,1,,,,,,,,,,,,,,,,,,,,,,,,0.057829861,-0.425499132,0,0,0,,,,,,,CHALK,LB,m,y,./images/CHALKLB.png,,,,,,,,m,1,1.9185,,,,,,,,0,100,100,25,1,
,,,,,,,,,,,,,,,,,199540,19,2022-01-28_17h28.58.359,lexical_decision_task_DD_L5,2021.2.3,MacIntel,59.99880002,,,,,,,,,,,2.4073,0,,,,,,,,,,,,,,,,,,,,,,,,0.057829861,-0.425499132,0,0,0,,,,,,,BARREL,C,z,y,./images/BARREL.png,,,,,,,,m,0,2.4073,,,,,,,,0,101,101,116,1,
,,,,,,,,,,,,,,,,,199540,19,2022-01-28_17h28.58.359,lexical_decision_task_DD_L5,2021.2.3,MacIntel,59.99880002,,,,,,,,,,,0.9803,1,,,,,,,,,,,,,,,,,,,,,,,,0.057829861,-0.425499132,0,0,0,,,,,,,FLESH,HB,m,y,./images/FLESHHB.png,,,,,,,,m,1,0.9803,,,,,,,,0,102,102,24,1,
,,,,,,,,,,,,,,,,,199540,19,2022-01-28_17h28.58.359,lexical_decision_task_DD_L5,2021.2.3,MacIntel,59.99880002,,,,,,,,,,,1.3832,1,,,,,,,,,,,,,,,,,,,,,,,,0.057829861,-0.425499132,0,0,0,,,,,,,MELON,LB,z,y,./images/MELONLB.png,,,,,,,,z,1,1.3832,,,,,,,,0,103,103,106,1,
,,,,,,,,,,,,,,,,,199540,19,2022-01-28_17h28.58.359,lexical_decision_task_DD_L5,2021.2.3,MacIntel,59.99880002,,,,,,,,,,,1.5348,1,,,,,,,,,,,,,,,,,,,,,,,,0.057829861,-0.425499132,0,0,0,,,,,,,STEAK,LB,m,y,./images/STEAKLB.png,,,,,,,,m,1,1.5348,,,,,,,,0,104,104,31,1,
,,,,,,,,,,,,,,,,,199540,19,2022-01-28_17h28.58.359,lexical_decision_task_DD_L5,2021.2.3,MacIntel,59.99880002,,,,,,,,,,,1.2064,1,,,,,,,,,,,,,,,,,,,,,,,,0.057829861,-0.425499132,0,0,0,,,,,,,WHISKY,C,m,y,./images/WHISKY.png,,,,,,,,m,1,1.2064,,,,,,,,0,105,105,83,1,
,,,,,,,,,,,,,,,,,199540,19,2022-01-28_17h28.58.359,lexical_decision_task_DD_L5,2021.2.3,MacIntel,59.99880002,,,,,,,,,,,1.5409,0,,,,,,,,,,,,,,,,,,,,,,,,0.057829861,-0.425499132,0,0,0,,,,,,,CRADLE,C,z,y,./images/CRADLE.png,,,,,,,,m,0,1.5409,,,,,,,,0,106,106,104,1,
,,,,,,,,,,,,,,,,,199540,19,2022-01-28_17h28.58.359,lexical_decision_task_DD_L5,2021.2.3,MacIntel,59.99880002,,,,,,,,,,,1.5883,0,,,,,,,,,,,,,,,,,,,,,,,,0.057829861,-0.425499132,0,0,0,,,,,,,WHEEL,C,m,y,./images/WHEEL.png,,,,,,,,z,0,1.5883,,,,,,,,0,107,107,77,1,
,,,,,,,,,,,,,,,,,199540,19,2022-01-28_17h28.58.359,lexical_decision_task_DD_L5,2021.2.3,MacIntel,59.99880002,,,,,,,,,,,9.5805,1,,,,,,,,,,,,,,,,,,,,,,,,0.057829861,-0.425499132,0,0,0,,,,,,,SHELF,HB,z,y,./images/SHELFHB.png,,,,,,,,z,1,9.5805,,,,,,,,0,108,108,123,1,
,,,,,,,,,,,,,,,,,199540,19,2022-01-28_17h28.58.359,lexical_decision_task_DD_L5,2021.2.3,MacIntel,59.99880002,,,,,,,,,,,28.1255,0,,,,,,,,,,,,,,,,,,,,,,,,0.057829861,-0.425499132,0,0,0,,,,,,,LADDER,C,z,y,./images/LADDER.png,,,,,,,,m,0,28.1255,,,,,,,,0,109,109,122,1,
,,,,,,,,,,,,,,,,,199540,19,2022-01-28_17h28.58.359,lexical_decision_task_DD_L5,2021.2.3,MacIntel,59.99880002,,,,,,,,,,,1.9069,1,,,,,,,,,,,,,,,,,,,,,,,,0.057829861,-0.425499132,0,0,0,,,,,,,CHAIN,HB,m,y,./images/CHAINHB.png,,,,,,,,m,1,1.9069,,,,,,,,0,110,110,42,1,
,,,,,,,,,,,,,,,,,199540,19,2022-01-28_17h28.58.359,lexical_decision_task_DD_L5,2021.2.3,MacIntel,59.99880002,,,,,,,,,,,4.5313,1,,,,,,,,,,,,,,,,,,,,,,,,0.057829861,-0.425499132,0,0,0,,,,,,,KITTEN,HB,z,y,./images/KITTENHB.png,,,,,,,,z,1,4.5313,,,,,,,,0,111,111,129,1,
,,,,,,,,,,,,,,,,,199540,19,2022-01-28_17h28.58.359,lexical_decision_task_DD_L5,2021.2.3,MacIntel,59.99880002,,,,,,,,,,,1.4513,1,,,,,,,,,,,,,,,,,,,,,,,,0.057829861,-0.425499132,0,0,0,,,,,,,TOMATO,HB,z,y,./images/TOMATOHB.png,,,,,,,,z,1,1.4513,,,,,,,,0,112,112,84,1,
,,,,,,,,,,,,,,,,,199540,19,2022-01-28_17h28.58.359,lexical_decision_task_DD_L5,2021.2.3,MacIntel,59.99880002,,,,,,,,,,,4.7823,0,,,,,,,,,,,,,,,,,,,,,,,,0.057829861,-0.425499132,0,0,0,,,,,,,ALLEY,LB,m,y,./images/ALLEYLB.png,,,,,,,,z,0,4.7823,,,,,,,,0,113,113,55,1,
,,,,,,,,,,,,,,,,,199540,19,2022-01-28_17h28.58.359,lexical_decision_task_DD_L5,2021.2.3,MacIntel,59.99880002,,,,,,,,,,,0.7996,1,,,,,,,,,,,,,,,,,,,,,,,,0.057829861,-0.425499132,0,0,0,,,,,,,BANNER,LB,z,y,./images/BANNERLB.png,,,,,,,,z,1,0.7996,,,,,,,,0,114,114,136,1,
,,,,,,,,,,,,,,,,,199540,19,2022-01-28_17h28.58.359,lexical_decision_task_DD_L5,2021.2.3,MacIntel,59.99880002,,,,,,,,,,,1.699,1,,,,,,,,,,,,,,,,,,,,,,,,0.057829861,-0.425499132,0,0,0,,,,,,,ARTIST,LB,m,y,./images/ARTISTLB.png,,,,,,,,m,1,1.699,,,,,,,,0,115,115,61,1,
,,,,,,,,,,,,,,,,,199540,19,2022-01-28_17h28.58.359,lexical_decision_task_DD_L5,2021.2.3,MacIntel,59.99880002,,,,,,,,,,,0.8196,1,,,,,,,,,,,,,,,,,,,,,,,,0.057829861,-0.425499132,0,0,0,,,,,,,FARMER,C,z,y,./images/FARMER.png,,,,,,,,z,1,0.8196,,,,,,,,0,116,116,149,1,
,,,,,,,,,,,,,,,,,199540,19,2022-01-28_17h28.58.359,lexical_decision_task_DD_L5,2021.2.3,MacIntel,59.99880002,,,,,,,,,,,0.9173,1,,,,,,,,,,,,,,,,,,,,,,,,0.057829861,-0.425499132,0,0,0,,,,,,,GRAPE,LB,m,y,./images/GRAPELB.png,,,,,,,,m,1,0.9173,,,,,,,,0,117,117,16,1,
,,,,,,,,,,,,,,,,,199540,19,2022-01-28_17h28.58.359,lexical_decision_task_DD_L5,2021.2.3,MacIntel,59.99880002,,,,,,,,,,,0.7156,1,,,,,,,,,,,,,,,,,,,,,,,,0.057829861,-0.425499132,0,0,0,,,,,,,VALLEY,C,m,y,./images/VALLEY.png,,,,,,,,m,1,0.7156,,,,,,,,0,118,118,68,1,
,,,,,,,,,,,,,,,,,199540,19,2022-01-28_17h28.58.359,lexical_decision_task_DD_L5,2021.2.3,MacIntel,59.99880002,,,,,,,,,,,0.8664,1,,,,,,,,,,,,,,,,,,,,,,,,0.057829861,-0.425499132,0,0,0,,,,,,,WRIST,LB,z,y,./images/WRISTLB.png,,,,,,,,z,1,0.8664,,,,,,,,0,119,119,109,1,
,,,,,,,,,,,,,,,,,199540,19,2022-01-28_17h28.58.359,lexical_decision_task_DD_L5,2021.2.3,MacIntel,59.99880002,,,,,,,,,,,1.1013,1,,,,,,,,,,,,,,,,,,,,,,,,0.057829861,-0.425499132,0,0,0,,,,,,,SUNSET,LB,z,y,./images/SUNSETLB.png,,,,,,,,z,1,1.1013,,,,,,,,0,120,120,166,1,
,,,,,,,,,,,,,,,,,199540,19,2022-01-28_17h28.58.359,lexical_decision_task_DD_L5,2021.2.3,MacIntel,59.99880002,,,,,,,,,,,1.1142,1,,,,,,,,,,,,,,,,,,,,,,,,0.057829861,-0.425499132,0,0,0,,,,,,,MOOSE,HB,z,y,./images/MOOSEHB.png,,,,,,,,z,1,1.1142,,,,,,,,0,121,121,141,1,
,,,,,,,,,,,,,,,,,199540,19,2022-01-28_17h28.58.359,lexical_decision_task_DD_L5,2021.2.3,MacIntel,59.99880002,,,,,,,,,,,1.3146,1,,,,,,,,,,,,,,,,,,,,,,,,0.057829861,-0.425499132,0,0,0,,,,,,,BUBBLE,C,m,y,./images/BUBBLE.png,,,,,,,,m,1,1.3146,,,,,,,,0,122,122,71,1,
,,,,,,,,,,,,,,,,,199540,19,2022-01-28_17h28.58.359,lexical_decision_task_DD_L5,2021.2.3,MacIntel,59.99880002,,,,,,,,,,,0.8351,1,,,,,,,,,,,,,,,,,,,,,,,,0.057829861,-0.425499132,0,0,0,,,,,,,DONKEY,LB,m,y,./images/DONKEYLB.png,,,,,,,,m,1,0.8351,,,,,,,,0,123,123,19,1,
,,,,,,,,,,,,,,,,,199540,19,2022-01-28_17h28.58.359,lexical_decision_task_DD_L5,2021.2.3,MacIntel,59.99880002,,,,,,,,,,,2.3296,1,,,,,,,,,,,,,,,,,,,,,,,,0.057829861,-0.425499132,0,0,0,,,,,,,FINGER,HB,z,y,./images/FINGERHB.png,,,,,,,,z,1,2.3296,,,,,,,,0,124,124,87,1,
,,,,,,,,,,,,,,,,,199540,19,2022-01-28_17h28.58.359,lexical_decision_task_DD_L5,2021.2.3,MacIntel,59.99880002,,,,,,,,,,,3.7028,1,,,,,,,,,,,,,,,,,,,,,,,,0.057829861,-0.425499132,0,0,0,space,,,,,,POODLE,HB,z,y,./images/POODLEHB.png,,,,,,,,z,1,3.7028,,,,,,,,0,125,125,165,1,166.7
,,,,,,,,,,,,,,,,,199540,19,2022-01-28_17h28.58.359,lexical_decision_task_DD_L5,2021.2.3,MacIntel,59.99880002,,,,,,,,,,,4.518,1,,,,,,,,,,,,,,,,,,,,,,,,0.057829861,-0.425499132,0,0,0,,,,,,,RULER,LB,m,y,./images/RULERLB.png,,,,,,,,m,1,4.518,,,,,,,,0,126,126,79,1,
,,,,,,,,,,,,,,,,,199540,19,2022-01-28_17h28.58.359,lexical_decision_task_DD_L5,2021.2.3,MacIntel,59.99880002,,,,,,,,,,,1.0568,1,,,,,,,,,,,,,,,,,,,,,,,,0.057829861,-0.425499132,0,0,0,,,,,,,BLOKE,HB,m,y,./images/BLOKEHB.png,,,,,,,,m,1,1.0568,,,,,,,,0,127,127,12,1,
,,,,,,,,,,,,,,,,,199540,19,2022-01-28_17h28.58.359,lexical_decision_task_DD_L5,2021.2.3,MacIntel,59.99880002,,,,,,,,,,,1.3651,1,,,,,,,,,,,,,,,,,,,,,,,,0.057829861,-0.425499132,0,0,0,,,,,,,BONNET,C,z,y,./images/BONNET.png,,,,,,,,z,1,1.3651,,,,,,,,0,128,128,95,1,
,,,,,,,,,,,,,,,,,199540,19,2022-01-28_17h28.58.359,lexical_decision_task_DD_L5,2021.2.3,MacIntel,59.99880002,,,,,,,,,,,1.6667,0,,,,,,,,,,,,,,,,,,,,,,,,0.057829861,-0.425499132,0,0,0,,,,,,,SPORT,HB,z,y,./images/SPORTHB.png,,,,,,,,m,0,1.6667,,,,,,,,0,129,129,132,1,
,,,,,,,,,,,,,,,,,199540,19,2022-01-28_17h28.58.359,lexical_decision_task_DD_L5,2021.2.3,MacIntel,59.99880002,,,,,,,,,,,1.5499,0,,,,,,,,,,,,,,,,,,,,,,,,0.057829861,-0.425499132,0,0,0,,,,,,,CLIFF,C,m,y,./images/CLIFF.png,,,,,,,,z,0,1.5499,,,,,,,,0,130,130,8,1,
,,,,,,,,,,,,,,,,,199540,19,2022-01-28_17h28.58.359,lexical_decision_task_DD_L5,2021.2.3,MacIntel,59.99880002,,,,,,,,,,,0.9706,0,,,,,,,,,,,,,,,,,,,,,,,,0.057829861,-0.425499132,0,0,0,,,,,,,DIVER,HB,m,y,./images/DIVERHB.png,,,,,,,,z,0,0.9706,,,,,,,,0,131,131,9,1,
,,,,,,,,,,,,,,,,,199540,19,2022-01-28_17h28.58.359,lexical_decision_task_DD_L5,2021.2.3,MacIntel,59.99880002,,,,,,,,,,,0.9167,1,,,,,,,,,,,,,,,,,,,,,,,,0.057829861,-0.425499132,0,0,0,,,,,,,JAGUAR,HB,z,y,./images/JAGUARHB.png,,,,,,,,z,1,0.9167,,,,,,,,0,132,132,102,1,
,,,,,,,,,,,,,,,,,199540,19,2022-01-28_17h28.58.359,lexical_decision_task_DD_L5,2021.2.3,MacIntel,59.99880002,,,,,,,,,,,1.4336,0,,,,,,,,,,,,,,,,,,,,,,,,0.057829861,-0.425499132,0,0,0,,,,,,,MAGGOT,HB,z,y,./images/MAGGOTHB.png,,,,,,,,m,0,1.4336,,,,,,,,0,133,133,117,1,
,,,,,,,,,,,,,,,,,199540,19,2022-01-28_17h28.58.359,lexical_decision_task_DD_L5,2021.2.3,MacIntel,59.99880002,,,,,,,,,,,0.9465,0,,,,,,,,,,,,,,,,,,,,,,,,0.057829861,-0.425499132,0,0,0,,,,,,,STOVE,C,m,y,./images/STOVE.png,,,,,,,,z,0,0.9465,,,,,,,,0,134,134,2,1,
,,,,,,,,,,,,,,,,,199540,19,2022-01-28_17h28.58.359,lexical_decision_task_DD_L5,2021.2.3,MacIntel,59.99880002,,,,,,,,,,,0.6056,1,,,,,,,,,,,,,,,,,,,,,,,,0.057829861,-0.425499132,0,0,0,,,,,,,FOLDER,HB,z,y,./images/FOLDERHB.png,,,,,,,,z,1,0.6056,,,,,,,,0,135,135,126,1,
,,,,,,,,,,,,,,,,,199540,19,2022-01-28_17h28.58.359,lexical_decision_task_DD_L5,2021.2.3,MacIntel,59.99880002,,,,,,,,,,,0.9043,1,,,,,,,,,,,,,,,,,,,,,,,,0.057829861,-0.425499132,0,0,0,,,,,,,PACKET,C,z,y,./images/PACKET.png,,,,,,,,z,1,0.9043,,,,,,,,0,136,136,140,1,
,,,,,,,,,,,,,,,,,199540,19,2022-01-28_17h28.58.359,lexical_decision_task_DD_L5,2021.2.3,MacIntel,59.99880002,,,,,,,,,,,0.6036,1,,,,,,,,,,,,,,,,,,,,,,,,0.057829861,-0.425499132,0,0,0,,,,,,,PEARL,LB,z,y,./images/PEARLLB.png,,,,,,,,z,1,0.6036,,,,,,,,0,137,137,130,1,
,,,,,,,,,,,,,,,,,199540,19,2022-01-28_17h28.58.359,lexical_decision_task_DD_L5,2021.2.3,MacIntel,59.99880002,,,,,,,,,,,0.9172,1,,,,,,,,,,,,,,,,,,,,,,,,0.057829861,-0.425499132,0,0,0,,,,,,,BABOON,LB,z,y,./images/BABOONLB.png,,,,,,,,z,1,0.9172,,,,,,,,0,138,138,142,1,
,,,,,,,,,,,,,,,,,199540,19,2022-01-28_17h28.58.359,lexical_decision_task_DD_L5,2021.2.3,MacIntel,59.99880002,,,,,,,,,,,0.7306,0,,,,,,,,,,,,,,,,,,,,,,,,0.057829861,-0.425499132,0,0,0,,,,,,,FERRY,HB,m,y,./images/FERRYHB.png,,,,,,,,z,0,0.7306,,,,,,,,0,139,139,57,1,
,,,,,,,,,,,,,,,,,199540,19,2022-01-28_17h28.58.359,lexical_decision_task_DD_L5,2021.2.3,MacIntel,59.99880002,,,,,,,,,,,0.9883,1,,,,,,,,,,,,,,,,,,,,,,,,0.057829861,-0.425499132,0,0,0,,,,,,,POKER,LB,m,y,./images/POKERLB.png,,,,,,,,m,1,0.9883,,,,,,,,0,140,140,67,1,
,,,,,,,,,,,,,,,,,199540,19,2022-01-28_17h28.58.359,lexical_decision_task_DD_L5,2021.2.3,MacIntel,59.99880002,,,,,,,,,,,0.5375,0,,,,,,,,,,,,,,,,,,,,,,,,0.057829861,-0.425499132,0,0,0,,,,,,,BERRY,C,z,y,./images/BERRY.png,,,,,,,,m,0,0.5375,,,,,,,,0,141,141,131,1,
,,,,,,,,,,,,,,,,,199540,19,2022-01-28_17h28.58.359,lexical_decision_task_DD_L5,2021.2.3,MacIntel,59.99880002,,,,,,,,,,,1.1971,0,,,,,,,,,,,,,,,,,,,,,,,,0.057829861,-0.425499132,0,0,0,,,,,,,WAGON,LB,m,y,./images/WAGONLB.png,,,,,,,,z,0,1.1971,,,,,,,,0,142,142,7,1,
,,,,,,,,,,,,,,,,,199540,19,2022-01-28_17h28.58.359,lexical_decision_task_DD_L5,2021.2.3,MacIntel,59.99880002,,,,,,,,,,,1.3514,1,,,,,,,,,,,,,,,,,,,,,,,,0.057829861,-0.425499132,0,0,0,,,,,,,STATUE,HB,m,y,./images/STATUEHB.png,,,,,,,,m,1,1.3514,,,,,,,,0,143,143,66,1,
,,,,,,,,,,,,,,,,,199540,19,2022-01-28_17h28.58.359,lexical_decision_task_DD_L5,2021.2.3,MacIntel,59.99880002,,,,,,,,,,,1.0898,1,,,,,,,,,,,,,,,,,,,,,,,,0.057829861,-0.425499132,0,0,0,,,,,,,INFANT,LB,z,y,./images/INFANTLB.png,,,,,,,,z,1,1.0898,,,,,,,,0,144,144,160,1,
,,,,,,,,,,,,,,,,,199540,19,2022-01-28_17h28.58.359,lexical_decision_task_DD_L5,2021.2.3,MacIntel,59.99880002,,,,,,,,,,,1.7738,1,,,,,,,,,,,,,,,,,,,,,,,,0.057829861,-0.425499132,0,0,0,,,,,,,SQUARE,HB,z,y,./images/SQUAREHB.png,,,,,,,,z,1,1.7738,,,,,,,,0,145,145,90,1,
,,,,,,,,,,,,,,,,,199540,19,2022-01-28_17h28.58.359,lexical_decision_task_DD_L5,2021.2.3,MacIntel,59.99880002,,,,,,,,,,,3.0874,1,,,,,,,,,,,,,,,,,,,,,,,,0.057829861,-0.425499132,0,0,0,,,,,,,MUFFIN,LB,z,y,./images/MUFFINLB.png,,,,,,,,z,1,3.0874,,,,,,,,0,146,146,139,1,
,,,,,,,,,,,,,,,,,199540,19,2022-01-28_17h28.58.359,lexical_decision_task_DD_L5,2021.2.3,MacIntel,59.99880002,,,,,,,,,,,2.1182,1,,,,,,,,,,,,,,,,,,,,,,,,0.057829861,-0.425499132,0,0,0,,,,,,,PEBBLE,LB,m,y,./images/PEBBLELB.png,,,,,,,,m,1,2.1182,,,,,,,,0,147,147,82,1,
,,,,,,,,,,,,,,,,,199540,19,2022-01-28_17h28.58.359,lexical_decision_task_DD_L5,2021.2.3,MacIntel,59.99880002,,,,,,,,,,,4.4043,0,,,,,,,,,,,,,,,,,,,,,,,,0.057829861,-0.425499132,0,0,0,,,,,,,SCREW,HB,z,y,./images/SCREWHB.png,,,,,,,,m,0,4.4043,,,,,,,,0,148,148,108,1,
,,,,,,,,,,,,,,,,,199540,19,2022-01-28_17h28.58.359,lexical_decision_task_DD_L5,2021.2.3,MacIntel,59.99880002,,,,,,,,,,,1.5421,0,,,,,,,,,,,,,,,,,,,,,,,,0.057829861,-0.425499132,0,0,0,,,,,,,SNAKE,LB,m,y,./images/SNAKELB.png,,,,,,,,z,0,1.5421,,,,,,,,0,149,149,40,1,
,,,,,,,,,,,,,,,,,199540,19,2022-01-28_17h28.58.359,lexical_decision_task_DD_L5,2021.2.3,MacIntel,59.99880002,,,,,,,,,,,1.0987,0,,,,,,,,,,,,,,,,,,,,,,,,0.057829861,-0.425499132,0,0,0,,,,,,,JUNGLE,C,z,y,./images/JUNGLE.png,,,,,,,,m,0,1.0987,,,,,,,,0,150,150,167,1,
,,,,,,,,,,,,,,,,,199540,19,2022-01-28_17h28.58.359,lexical_decision_task_DD_L5,2021.2.3,MacIntel,59.99880002,,,,,,,,,,,2.9575,1,,,,,,,,,,,,,,,,,,,,,,,,0.057829861,-0.425499132,0,0,0,,,,,,,ENGINE,C,m,y,./images/ENGINE.png,,,,,,,,m,1,2.9575,,,,,,,,0,151,151,38,1,
,,,,,,,,,,,,,,,,,199540,19,2022-01-28_17h28.58.359,lexical_decision_task_DD_L5,2021.2.3,MacIntel,59.99880002,,,,,,,,,,,1.0503,0,,,,,,,,,,,,,,,,,,,,,,,,0.057829861,-0.425499132,0,0,0,,,,,,,GRAIN,HB,z,y,./images/GRAINHB.png,,,,,,,,m,0,1.0503,,,,,,,,0,152,152,159,1,
,,,,,,,,,,,,,,,,,199540,19,2022-01-28_17h28.58.359,lexical_decision_task_DD_L5,2021.2.3,MacIntel,59.99880002,,,,,,,,,,,1.6017,0,,,,,,,,,,,,,,,,,,,,,,,,0.057829861,-0.425499132,0,0,0,,,,,,,DRUMS,LB,z,y,./images/DRUMSLB.png,,,,,,,,m,0,1.6017,,,,,,,,0,153,153,133,1,
,,,,,,,,,,,,,,,,,199540,19,2022-01-28_17h28.58.359,lexical_decision_task_DD_L5,2021.2.3,MacIntel,59.99880002,,,,,,,,,,,1.0509,1,,,,,,,,,,,,,,,,,,,,,,,,0.057829861,-0.425499132,0,0,0,,,,,,,SHORE,HB,z,y,./images/SHOREHB.png,,,,,,,,z,1,1.0509,,,,,,,,0,154,154,96,1,
,,,,,,,,,,,,,,,,,199540,19,2022-01-28_17h28.58.359,lexical_decision_task_DD_L5,2021.2.3,MacIntel,59.99880002,,,,,,,,,,,3.4819,0,,,,,,,,,,,,,,,,,,,,,,,,0.057829861,-0.425499132,0,0,0,,,,,,,DRILL,HB,m,y,./images/DRILLHB.png,,,,,,,,z,0,3.4819,,,,,,,,0,155,155,81,1,
,,,,,,,,,,,,,,,,,199540,19,2022-01-28_17h28.58.359,lexical_decision_task_DD_L5,2021.2.3,MacIntel,59.99880002,,,,,,,,,,,0.998,1,,,,,,,,,,,,,,,,,,,,,,,,0.057829861,-0.425499132,0,0,0,,,,,,,CLOUD,C,m,y,./images/CLOUD.png,,,,,,,,m,1,0.998,,,,,,,,0,156,156,26,1,
,,,,,,,,,,,,,,,,,199540,19,2022-01-28_17h28.58.359,lexical_decision_task_DD_L5,2021.2.3,MacIntel,59.99880002,,,,,,,,,,,1.4584,0,,,,,,,,,,,,,,,,,,,,,,,,0.057829861,-0.425499132,0,0,0,,,,,,,TOWEL,LB,m,y,./images/TOWELLB.png,,,,,,,,z,0,1.4584,,,,,,,,0,157,157,1,1,
,,,,,,,,,,,,,,,,,199540,19,2022-01-28_17h28.58.359,lexical_decision_task_DD_L5,2021.2.3,MacIntel,59.99880002,,,,,,,,,,,0.6155,1,,,,,,,,,,,,,,,,,,,,,,,,0.057829861,-0.425499132,0,0,0,,,,,,,CANOE,LB,m,y,./images/CANOELB.png,,,,,,,,m,1,0.6155,,,,,,,,0,158,158,58,1,
,,,,,,,,,,,,,,,,,199540,19,2022-01-28_17h28.58.359,lexical_decision_task_DD_L5,2021.2.3,MacIntel,59.99880002,,,,,,,,,,,2.7331,0,,,,,,,,,,,,,,,,,,,,,,,,0.057829861,-0.425499132,0,0,0,,,,,,,HOCKEY,C,m,y,./images/HOCKEY.png,,,,,,,,z,0,2.7331,,,,,,,,0,159,159,32,1,
,,,,,,,,,,,,,,,,,199540,19,2022-01-28_17h28.58.359,lexical_decision_task_DD_L5,2021.2.3,MacIntel,59.99880002,,,,,,,,,,,2.2205,1,,,,,,,,,,,,,,,,,,,,,,,,0.057829861,-0.425499132,0,0,0,,,,,,,GLOVE,LB,m,y,./images/GLOVELB.png,,,,,,,,m,1,2.2205,,,,,,,,0,160,160,73,1,
,,,,,,,,,,,,,,,,,199540,19,2022-01-28_17h28.58.359,lexical_decision_task_DD_L5,2021.2.3,MacIntel,59.99880002,,,,,,,,,,,1.0497,1,,,,,,,,,,,,,,,,,,,,,,,,0.057829861,-0.425499132,0,0,0,,,,,,,CRUST,LB,z,y,./images/CRUSTLB.png,,,,,,,,z,1,1.0497,,,,,,,,0,161,161,163,1,
,,,,,,,,,,,,,,,,,199540,19,2022-01-28_17h28.58.359,lexical_decision_task_DD_L5,2021.2.3,MacIntel,59.99880002,,,,,,,,,,,1.277,1,,,,,,,,,,,,,,,,,,,,,,,,0.057829861,-0.425499132,0,0,0,,,,,,,DESERT,LB,m,y,./images/DESERTLB.png,,,,,,,,m,1,1.277,,,,,,,,0,162,162,52,1,
,,,,,,,,,,,,,,,,,199540,19,2022-01-28_17h28.58.359,lexical_decision_task_DD_L5,2021.2.3,MacIntel,59.99880002,,,,,,,,,,,1.2418,0,,,,,,,,,,,,,,,,,,,,,,,,0.057829861,-0.425499132,0,0,0,,,,,,,CURRY,HB,m,y,./images/CURRYHB.png,,,,,,,,z,0,1.2418,,,,,,,,0,163,163,60,1,
,,,,,,,,,,,,,,,,,199540,19,2022-01-28_17h28.58.359,lexical_decision_task_DD_L5,2021.2.3,MacIntel,59.99880002,,,,,,,,,,,0.6567,0,,,,,,,,,,,,,,,,,,,,,,,,0.057829861,-0.425499132,0,0,0,,,,,,,COOKER,HB,z,y,./images/COOKERHB.png,,,,,,,,m,0,0.6567,,,,,,,,0,164,164,153,1,
,,,,,,,,,,,,,,,,,199540,19,2022-01-28_17h28.58.359,lexical_decision_task_DD_L5,2021.2.3,MacIntel,59.99880002,,,,,,,,,,,0.9015,0,,,,,,,,,,,,,,,,,,,,,,,,0.057829861,-0.425499132,0,0,0,,,,,,,SLOPE,HB,m,y,./images/SLOPEHB.png,,,,,,,,z,0,0.9015,,,,,,,,0,165,165,30,1,
,,,,,,,,,,,,,,,,,199540,19,2022-01-28_17h28.58.359,lexical_decision_task_DD_L5,2021.2.3,MacIntel,59.99880002,,,,,,,,,,,0.5971,1,,,,,,,,,,,,,,,,,,,,,,,,0.057829861,-0.425499132,0,0,0,,,,,,,GARDEN,LB,m,y,./images/GARDENLB.png,,,,,,,,m,1,0.5971,,,,,,,,0,166,166,10,1,
,,,,,,,,,,,,,,,,,199540,19,2022-01-28_17h28.58.359,lexical_decision_task_DD_L5,2021.2.3,MacIntel,59.99880002,,,,,,,,,,,0.6992,1,,,,,,,,,,,,,,,,,,,,,,,,0.057829861,-0.425499132,0,0,0,,,,,,,NOOSE,HB,z,y,./images/NOOSEHB.png,,,,,,,,z,1,0.6992,,,,,,,,0,167,167,156,1,
