key_resp.keys,instr_done_touch.x,instr_done_touch.y,instr_done_touch.leftButton,instr_done_touch.midButton,instr_done_touch.rightButton,instr_done_touch.clicked_name,instruction_pages.thisRepN,instruction_pages.thisTrialN,instruction_pages.thisN,instruction_pages.thisIndex,instruction_pages.ran,pageN,phase,instruct_text,has_image,instruct_image,participant,age,date,expName,psychopyVersion,OS,frameRate,response.keys,response.corr,response.rt,touch_resp.x,touch_resp.y,touch_resp.leftButton,touch_resp.midButton,touch_resp.rightButton,touch_resp.time,touch_resp.clicked_name,rt,corr,practrials.thisRepN,practrials.thisTrialN,practrials.thisN,practrials.thisIndex,practrials.ran,TrialID,Target,corrAns,end_of_practice_trials_pages.thisRepN,end_of_practice_trials_pages.thisTrialN,end_of_practice_trials_pages.thisN,end_of_practice_trials_pages.thisIndex,end_of_practice_trials_pages.ran,key_resp_2.keys,key_resp_2.corr,key_resp_2.rt,targ_click.x,targ_click.y,targ_click.leftButton,targ_click.midButton,targ_click.rightButton,targ_click.time,targ_click.clicked_name,break_done_touch.x,break_done_touch.y,break_done_touch.leftButton,break_done_touch.midButton,break_done_touch.rightButton,break_done_keyboard.keys,maintrials.thisRepN,maintrials.thisTrialN,maintrials.thisN,maintrials.thisIndex,maintrials.ran,string,blur,study,lex,stim_path,break_done_touch.clicked_name,break_done_keyboard.rt,test_instructions.thisRepN,test_instructions.thisTrialN,test_instructions.thisN,test_instructions.thisIndex,test_instructions.ran,key_resp.rt,key_resp_3.keys,key_resp_3.corr,key_resp_3.rt,test_click.x,test_click.y,test_click.leftButton,test_click.midButton,test_click.rightButton,test_click.time,test_click.clicked_name,test_phase.thisRepN,test_phase.thisTrialN,test_phase.thisN,test_phase.thisIndex,test_phase.ran
,0.02563992,-0.390109253,1,0,0,instr_done_button,0,0,0,0,1,1,instructions,"INSTRUCTIONS
At the start of each trial, look at the plus sign  (+) in the center of the screen.  This tells you that a trial is about to begin and where to look. Second, the plus sign will disappear and a string of letters will appear. Your task is to determine if the string of letters is a word or not. If the item is a word press the M key (on keyboard)  or touch the word button (phone/tablet).  If the item is not a word,  press the  Z key (on keyboard)  or touch the nonword button (on phone/tablet). 
Press the space bar or touch  continue.",0,,199513,18,2022-01-29_14h09.39.938,lexical_decision_task_DD_L6,2021.2.3,MacIntel,60.0024001,,,,,,,,,,,,,,,,,,,,,,,,,,,,,,,,,,,,,,,,,,,,,,,,,,,,,,,,,,,,,,,,,,,,,,,,,,
,0.014570109,-0.417724067,1,0,0,instr_done_button,0,1,1,1,1,2,instructions,"If your device has a keyboard, press the 'Z' key for nonwords and the 'M' key for words.





Press the space bar or touch the button below to continue.",0,keyboard-example.gif,199513,18,2022-01-29_14h09.39.938,lexical_decision_task_DD_L6,2021.2.3,MacIntel,60.0024001,,,,,,,,,,,,,,,,,,,,,,,,,,,,,,,,,,,,,,,,,,,,,,,,,,,,,,,,,,,,,,,,,,,,,,,,,,
,-0.045407104,-0.373287218,1,0,0,instr_done_button,0,2,2,2,1,3,instructions,"If you are using a touchscreen only device, use the buttons on the screen. Do not use the mouse.





Press the space bar or touch the button below to continue.",0,touchscreen-example.gif,199513,18,2022-01-29_14h09.39.938,lexical_decision_task_DD_L6,2021.2.3,MacIntel,60.0024001,,,,,,,,,,,,,,,,,,,,,,,,,,,,,,,,,,,,,,,,,,,,,,,,,,,,,,,,,,,,,,,,,,,,,,,,,,
,-0.042142877,-0.376265191,1,0,0,instr_done_button,0,3,3,3,1,4,instructions,"It is very important that you respond as quickly and accurately as possible, as each letter string will only be on the screen for two seconds. If you do not respond within this time, the message 'Too slow!' will be displayed and the experiment will progress to the next letter string. The first 20 trials will be practice trials and you will receive feedback on your answers. 

Press the space bar or touch the button below to start the practice trials.",0,,199513,18,2022-01-29_14h09.39.938,lexical_decision_task_DD_L6,2021.2.3,MacIntel,60.0024001,,,,,,,,,,,,,,,,,,,,,,,,,,,,,,,,,,,,,,,,,,,,,,,,,,,,,,,,,,,,,,,,,,,,,,,,,,
,,,,,,,,,,,,,,,,,199513,18,2022-01-29_14h09.39.938,lexical_decision_task_DD_L6,2021.2.3,MacIntel,60.0024001,m,1,1.1016,,,,,,,,1.1016,1,0,0,0,4,1,1001,SQUEAK,m,,,,,,,,,,,,,,,,,,,,,,,,,,,,,,,,,,,,,,,,,,,,,,,,,,,,,,
,,,,,,,,,,,,,,,,,199513,18,2022-01-29_14h09.39.938,lexical_decision_task_DD_L6,2021.2.3,MacIntel,60.0024001,m,1,0.6983,,,,,,,,0.6983,1,0,1,1,1,1,1001,ADJUST,m,,,,,,,,,,,,,,,,,,,,,,,,,,,,,,,,,,,,,,,,,,,,,,,,,,,,,,
,,,,,,,,,,,,,,,,,199513,18,2022-01-29_14h09.39.938,lexical_decision_task_DD_L6,2021.2.3,MacIntel,60.0024001,z,1,1.6933,,,,,,,,1.6933,1,0,2,2,15,1,1001,WHAISE,z,,,,,,,,,,,,,,,,,,,,,,,,,,,,,,,,,,,,,,,,,,,,,,,,,,,,,,
,,,,,,,,,,,,,,,,,199513,18,2022-01-29_14h09.39.938,lexical_decision_task_DD_L6,2021.2.3,MacIntel,60.0024001,m,1,0.5865,,,,,,,,0.5865,1,0,3,3,5,1,1001,OBTAIN,m,,,,,,,,,,,,,,,,,,,,,,,,,,,,,,,,,,,,,,,,,,,,,,,,,,,,,,
,,,,,,,,,,,,,,,,,199513,18,2022-01-29_14h09.39.938,lexical_decision_task_DD_L6,2021.2.3,MacIntel,60.0024001,z,1,0.7237,,,,,,,,0.7237,1,0,4,4,8,1,1001,ASLERT,z,,,,,,,,,,,,,,,,,,,,,,,,,,,,,,,,,,,,,,,,,,,,,,,,,,,,,,
,,,,,,,,,,,,,,,,,199513,18,2022-01-29_14h09.39.938,lexical_decision_task_DD_L6,2021.2.3,MacIntel,60.0024001,z,1,0.6332,,,,,,,,0.6332,1,0,5,5,12,1,1001,SPRINY,z,,,,,,,,,,,,,,,,,,,,,,,,,,,,,,,,,,,,,,,,,,,,,,,,,,,,,,
,,,,,,,,,,,,,,,,,199513,18,2022-01-29_14h09.39.938,lexical_decision_task_DD_L6,2021.2.3,MacIntel,60.0024001,z,1,0.6338,,,,,,,,0.6338,1,0,6,6,11,1,1001,RASHET,z,,,,,,,,,,,,,,,,,,,,,,,,,,,,,,,,,,,,,,,,,,,,,,,,,,,,,,
,,,,,,,,,,,,,,,,,199513,18,2022-01-29_14h09.39.938,lexical_decision_task_DD_L6,2021.2.3,MacIntel,60.0024001,m,1,0.5102,,,,,,,,0.5102,1,0,7,7,7,1,1001,VOLUME,m,,,,,,,,,,,,,,,,,,,,,,,,,,,,,,,,,,,,,,,,,,,,,,,,,,,,,,
,,,,,,,,,,,,,,,,,199513,18,2022-01-29_14h09.39.938,lexical_decision_task_DD_L6,2021.2.3,MacIntel,60.0024001,z,1,0.6889,,,,,,,,0.6889,1,0,8,8,9,1,1001,FARINY,z,,,,,,,,,,,,,,,,,,,,,,,,,,,,,,,,,,,,,,,,,,,,,,,,,,,,,,
,,,,,,,,,,,,,,,,,199513,18,2022-01-29_14h09.39.938,lexical_decision_task_DD_L6,2021.2.3,MacIntel,60.0024001,z,1,0.5509,,,,,,,,0.5509,1,0,9,9,14,1,1001,THRALE,z,,,,,,,,,,,,,,,,,,,,,,,,,,,,,,,,,,,,,,,,,,,,,,,,,,,,,,
,,,,,,,,,,,,,,,,,199513,18,2022-01-29_14h09.39.938,lexical_decision_task_DD_L6,2021.2.3,MacIntel,60.0024001,m,1,1.0502,,,,,,,,1.0502,1,0,10,10,2,1,1001,ALMOND,m,,,,,,,,,,,,,,,,,,,,,,,,,,,,,,,,,,,,,,,,,,,,,,,,,,,,,,
,,,,,,,,,,,,,,,,,199513,18,2022-01-29_14h09.39.938,lexical_decision_task_DD_L6,2021.2.3,MacIntel,60.0024001,z,1,0.7748,,,,,,,,0.7748,1,0,11,11,13,1,1001,ROUPET,z,,,,,,,,,,,,,,,,,,,,,,,,,,,,,,,,,,,,,,,,,,,,,,,,,,,,,,
,,,,,,,,,,,,,,,,,199513,18,2022-01-29_14h09.39.938,lexical_decision_task_DD_L6,2021.2.3,MacIntel,60.0024001,m,1,0.5154,,,,,,,,0.5154,1,0,12,12,6,1,1001,ZOMBIE,m,,,,,,,,,,,,,,,,,,,,,,,,,,,,,,,,,,,,,,,,,,,,,,,,,,,,,,
,,,,,,,,,,,,,,,,,199513,18,2022-01-29_14h09.39.938,lexical_decision_task_DD_L6,2021.2.3,MacIntel,60.0024001,z,1,0.6,,,,,,,,0.6,1,0,13,13,10,1,1001,INLADE,z,,,,,,,,,,,,,,,,,,,,,,,,,,,,,,,,,,,,,,,,,,,,,,,,,,,,,,
,,,,,,,,,,,,,,,,,199513,18,2022-01-29_14h09.39.938,lexical_decision_task_DD_L6,2021.2.3,MacIntel,60.0024001,m,1,0.6536,,,,,,,,0.6536,1,0,14,14,3,1,1001,MATRIX,m,,,,,,,,,,,,,,,,,,,,,,,,,,,,,,,,,,,,,,,,,,,,,,,,,,,,,,
,,,,,,,,,,,,,,,,,199513,18,2022-01-29_14h09.39.938,lexical_decision_task_DD_L6,2021.2.3,MacIntel,60.0024001,m,1,0.6987,,,,,,,,0.6987,1,0,15,15,0,1,1001,UTOPIA,m,,,,,,,,,,,,,,,,,,,,,,,,,,,,,,,,,,,,,,,,,,,,,,,,,,,,,,
,-0.031565891,-0.3979815,1,0,0,instr_done_button,,,,,,1,end_of_practice,"You have completed the practice trials. During the experimental trials, you will not receive feedback. 
Before you begin, please ensure that you are in a comfortable and quiet location and will not be disturbed for about 15 minutes, as we cannot use your data if you do not complete all the trials. 
 When you are ready to start the experimental trials, please press space or touch the button below.",,,199513,18,2022-01-29_14h09.39.938,lexical_decision_task_DD_L6,2021.2.3,MacIntel,60.0024001,,,,,,,,,,,,,,,,,,,,,0,0,0,0,1,,,,,,,,,,,,,,,,,,,,,,,,,,,,,,,,,,,,,,,,,,,,,,,,,
,,,,,,,,,,,,,,,,,199513,18,2022-01-29_14h09.39.938,lexical_decision_task_DD_L6,2021.2.3,MacIntel,60.0024001,,,,,,,,,,,0.6254,1,,,,,,,,,,,,,,m,1,0.6254,,,,,,,,-0.005599162,-0.35125373,0,0,0,,0,0,0,22,1,CLOWN,C,old,m,./images/CLOWN.png,,,,,,,,,,,,,,,,,,,,,,,
,,,,,,,,,,,,,,,,,199513,18,2022-01-29_14h09.39.938,lexical_decision_task_DD_L6,2021.2.3,MacIntel,60.0024001,,,,,,,,,,,1.5351,1,,,,,,,,,,,,,,m,1,1.5351,,,,,,,,-0.005599162,-0.35125373,0,0,0,,0,1,1,8,1,CLIFF,HB,old,m,./images/CLIFFHB.png,,,,,,,,,,,,,,,,,,,,,,,
,,,,,,,,,,,,,,,,,199513,18,2022-01-29_14h09.39.938,lexical_decision_task_DD_L6,2021.2.3,MacIntel,60.0024001,,,,,,,,,,,0.6228,1,,,,,,,,,,,,,,z,1,0.6228,,,,,,,,-0.005599162,-0.35125373,0,0,0,,0,2,2,156,1,HIXES,C,old,z,./images/HIXES.png,,,,,,,,,,,,,,,,,,,,,,,
,,,,,,,,,,,,,,,,,199513,18,2022-01-29_14h09.39.938,lexical_decision_task_DD_L6,2021.2.3,MacIntel,60.0024001,,,,,,,,,,,0.7442,1,,,,,,,,,,,,,,z,1,0.7442,,,,,,,,-0.005599162,-0.35125373,0,0,0,,0,3,3,87,1,TRING,C,old,z,./images/TRING.png,,,,,,,,,,,,,,,,,,,,,,,
,,,,,,,,,,,,,,,,,199513,18,2022-01-29_14h09.39.938,lexical_decision_task_DD_L6,2021.2.3,MacIntel,60.0024001,,,,,,,,,,,0.8185,1,,,,,,,,,,,,,,z,1,0.8185,,,,,,,,-0.005599162,-0.35125373,0,0,0,,0,4,4,143,1,MONGS,LB,old,z,./images/MONGSLB.png,,,,,,,,,,,,,,,,,,,,,,,
,,,,,,,,,,,,,,,,,199513,18,2022-01-29_14h09.39.938,lexical_decision_task_DD_L6,2021.2.3,MacIntel,60.0024001,,,,,,,,,,,0.5902,1,,,,,,,,,,,,,,m,1,0.5902,,,,,,,,-0.005599162,-0.35125373,0,0,0,,0,5,5,36,1,BOILER,LB,old,m,./images/BOILERLB.png,,,,,,,,,,,,,,,,,,,,,,,
,,,,,,,,,,,,,,,,,199513,18,2022-01-29_14h09.39.938,lexical_decision_task_DD_L6,2021.2.3,MacIntel,60.0024001,,,,,,,,,,,0.549,1,,,,,,,,,,,,,,z,1,0.549,,,,,,,,-0.005599162,-0.35125373,0,0,0,,0,6,6,135,1,JOODY,C,old,z,./images/JOODY.png,,,,,,,,,,,,,,,,,,,,,,,
,,,,,,,,,,,,,,,,,199513,18,2022-01-29_14h09.39.938,lexical_decision_task_DD_L6,2021.2.3,MacIntel,60.0024001,,,,,,,,,,,0.9913,1,,,,,,,,,,,,,,z,1,0.9913,,,,,,,,-0.005599162,-0.35125373,0,0,0,,0,7,7,148,1,JOMS,HB,old,z,./images/JOMSHB.png,,,,,,,,,,,,,,,,,,,,,,,
,,,,,,,,,,,,,,,,,199513,18,2022-01-29_14h09.39.938,lexical_decision_task_DD_L6,2021.2.3,MacIntel,60.0024001,,,,,,,,,,,0.522,1,,,,,,,,,,,,,,m,1,0.522,,,,,,,,-0.005599162,-0.35125373,0,0,0,,0,8,8,49,1,BISHOP,C,old,m,./images/BISHOP.png,,,,,,,,,,,,,,,,,,,,,,,
,,,,,,,,,,,,,,,,,199513,18,2022-01-29_14h09.39.938,lexical_decision_task_DD_L6,2021.2.3,MacIntel,60.0024001,,,,,,,,,,,0.6504,1,,,,,,,,,,,,,,z,1,0.6504,,,,,,,,-0.005599162,-0.35125373,0,0,0,,0,9,9,101,1,GLEET,LB,old,z,./images/GLEETLB.png,,,,,,,,,,,,,,,,,,,,,,,
,,,,,,,,,,,,,,,,,199513,18,2022-01-29_14h09.39.938,lexical_decision_task_DD_L6,2021.2.3,MacIntel,60.0024001,,,,,,,,,,,0.9799,1,,,,,,,,,,,,,,z,1,0.9799,,,,,,,,-0.005599162,-0.35125373,0,0,0,,0,10,10,109,1,BURGE,HB,old,z,./images/BURGEHB.png,,,,,,,,,,,,,,,,,,,,,,,
,,,,,,,,,,,,,,,,,199513,18,2022-01-29_14h09.39.938,lexical_decision_task_DD_L6,2021.2.3,MacIntel,60.0024001,,,,,,,,,,,0.7427,1,,,,,,,,,,,,,,m,1,0.7427,,,,,,,,-0.005599162,-0.35125373,0,0,0,,0,11,11,83,1,WHISKY,HB,old,m,./images/WHISKYHB.png,,,,,,,,,,,,,,,,,,,,,,,
,,,,,,,,,,,,,,,,,199513,18,2022-01-29_14h09.39.938,lexical_decision_task_DD_L6,2021.2.3,MacIntel,60.0024001,,,,,,,,,,,0.5668,1,,,,,,,,,,,,,,m,1,0.5668,,,,,,,,-0.005599162,-0.35125373,0,0,0,,0,12,12,0,1,WALNUT,LB,old,m,./images/WALNUTLB.png,,,,,,,,,,,,,,,,,,,,,,,
,,,,,,,,,,,,,,,,,199513,18,2022-01-29_14h09.39.938,lexical_decision_task_DD_L6,2021.2.3,MacIntel,60.0024001,,,,,,,,,,,0.5926,1,,,,,,,,,,,,,,m,1,0.5926,,,,,,,,-0.005599162,-0.35125373,0,0,0,,0,13,13,15,1,COLLAR,LB,old,m,./images/COLLARLB.png,,,,,,,,,,,,,,,,,,,,,,,
,,,,,,,,,,,,,,,,,199513,18,2022-01-29_14h09.39.938,lexical_decision_task_DD_L6,2021.2.3,MacIntel,60.0024001,,,,,,,,,,,0.4986,1,,,,,,,,,,,,,,m,1,0.4986,,,,,,,,-0.005599162,-0.35125373,0,0,0,,0,14,14,40,1,SNAKE,C,old,m,./images/SNAKE.png,,,,,,,,,,,,,,,,,,,,,,,
,,,,,,,,,,,,,,,,,199513,18,2022-01-29_14h09.39.938,lexical_decision_task_DD_L6,2021.2.3,MacIntel,60.0024001,,,,,,,,,,,0.6006,1,,,,,,,,,,,,,,m,1,0.6006,,,,,,,,-0.005599162,-0.35125373,0,0,0,,0,15,15,45,1,MONKEY,LB,old,m,./images/MONKEYLB.png,,,,,,,,,,,,,,,,,,,,,,,
,,,,,,,,,,,,,,,,,199513,18,2022-01-29_14h09.39.938,lexical_decision_task_DD_L6,2021.2.3,MacIntel,60.0024001,,,,,,,,,,,0.6675,1,,,,,,,,,,,,,,m,1,0.6675,,,,,,,,-0.005599162,-0.35125373,0,0,0,,0,16,16,17,1,PARADE,HB,old,m,./images/PARADEHB.png,,,,,,,,,,,,,,,,,,,,,,,
,,,,,,,,,,,,,,,,,199513,18,2022-01-29_14h09.39.938,lexical_decision_task_DD_L6,2021.2.3,MacIntel,60.0024001,,,,,,,,,,,0.7641,1,,,,,,,,,,,,,,z,1,0.7641,,,,,,,,-0.005599162,-0.35125373,0,0,0,,0,17,17,151,1,TINKY,HB,old,z,./images/TINKYHB.png,,,,,,,,,,,,,,,,,,,,,,,
,,,,,,,,,,,,,,,,,199513,18,2022-01-29_14h09.39.938,lexical_decision_task_DD_L6,2021.2.3,MacIntel,60.0024001,,,,,,,,,,,0.6103,1,,,,,,,,,,,,,,m,1,0.6103,,,,,,,,-0.005599162,-0.35125373,0,0,0,,0,18,18,5,1,BAMBOO,HB,old,m,./images/BAMBOOHB.png,,,,,,,,,,,,,,,,,,,,,,,
,,,,,,,,,,,,,,,,,199513,18,2022-01-29_14h09.39.938,lexical_decision_task_DD_L6,2021.2.3,MacIntel,60.0024001,,,,,,,,,,,1.0499,0,,,,,,,,,,,,,,z,0,1.0499,,,,,,,,-0.005599162,-0.35125373,0,0,0,,0,19,19,20,1,GRANNY,HB,old,m,./images/GRANNYHB.png,,,,,,,,,,,,,,,,,,,,,,,
,,,,,,,,,,,,,,,,,199513,18,2022-01-29_14h09.39.938,lexical_decision_task_DD_L6,2021.2.3,MacIntel,60.0024001,,,,,,,,,,,0.7116,1,,,,,,,,,,,,,,z,1,0.7116,,,,,,,,-0.005599162,-0.35125373,0,0,0,,0,20,20,105,1,MOKER,C,old,z,./images/MOKER.png,,,,,,,,,,,,,,,,,,,,,,,
,,,,,,,,,,,,,,,,,199513,18,2022-01-29_14h09.39.938,lexical_decision_task_DD_L6,2021.2.3,MacIntel,60.0024001,,,,,,,,,,,0.7342,1,,,,,,,,,,,,,,z,1,0.7342,,,,,,,,-0.005599162,-0.35125373,0,0,0,,0,21,21,134,1,TROSS,LB,old,z,./images/TROSSLB.png,,,,,,,,,,,,,,,,,,,,,,,
,,,,,,,,,,,,,,,,,199513,18,2022-01-29_14h09.39.938,lexical_decision_task_DD_L6,2021.2.3,MacIntel,60.0024001,,,,,,,,,,,0.6592,1,,,,,,,,,,,,,,z,1,0.6592,,,,,,,,-0.005599162,-0.35125373,0,0,0,,0,22,22,140,1,DOVET,LB,old,z,./images/DOVETLB.png,,,,,,,,,,,,,,,,,,,,,,,
,,,,,,,,,,,,,,,,,199513,18,2022-01-29_14h09.39.938,lexical_decision_task_DD_L6,2021.2.3,MacIntel,60.0024001,,,,,,,,,,,0.8678,1,,,,,,,,,,,,,,m,1,0.8678,,,,,,,,-0.005599162,-0.35125373,0,0,0,,0,23,23,38,1,ENGINE,HB,old,m,./images/ENGINEHB.png,,,,,,,,,,,,,,,,,,,,,,,
,,,,,,,,,,,,,,,,,199513,18,2022-01-29_14h09.39.938,lexical_decision_task_DD_L6,2021.2.3,MacIntel,60.0024001,,,,,,,,,,,0.6673,1,,,,,,,,,,,,,,m,1,0.6673,,,,,,,,-0.005599162,-0.35125373,0,0,0,,0,24,24,35,1,LLAMA,HB,old,m,./images/LLAMAHB.png,,,,,,,,,,,,,,,,,,,,,,,
,,,,,,,,,,,,,,,,,199513,18,2022-01-29_14h09.39.938,lexical_decision_task_DD_L6,2021.2.3,MacIntel,60.0024001,,,,,,,,,,,1.0019,1,,,,,,,,,,,,,,z,1,1.0019,,,,,,,,-0.005599162,-0.35125373,0,0,0,,0,25,25,120,1,RINED,C,old,z,./images/RINED.png,,,,,,,,,,,,,,,,,,,,,,,
,,,,,,,,,,,,,,,,,199513,18,2022-01-29_14h09.39.938,lexical_decision_task_DD_L6,2021.2.3,MacIntel,60.0024001,,,,,,,,,,,0.5599,1,,,,,,,,,,,,,,m,1,0.5599,,,,,,,,-0.005599162,-0.35125373,0,0,0,,0,26,26,48,1,SHIELD,LB,old,m,./images/SHIELDLB.png,,,,,,,,,,,,,,,,,,,,,,,
,,,,,,,,,,,,,,,,,199513,18,2022-01-29_14h09.39.938,lexical_decision_task_DD_L6,2021.2.3,MacIntel,60.0024001,,,,,,,,,,,1.0478,1,,,,,,,,,,,,,,z,1,1.0478,,,,,,,,-0.005599162,-0.35125373,0,0,0,,0,27,27,150,1,NOOLS,C,old,z,./images/NOOLS.png,,,,,,,,,,,,,,,,,,,,,,,
,,,,,,,,,,,,,,,,,199513,18,2022-01-29_14h09.39.938,lexical_decision_task_DD_L6,2021.2.3,MacIntel,60.0024001,,,,,,,,,,,0.9607,1,,,,,,,,,,,,,,z,1,0.9607,,,,,,,,-0.005599162,-0.35125373,0,0,0,,0,28,28,163,1,GAMBA,HB,old,z,./images/GAMBAHB.png,,,,,,,,,,,,,,,,,,,,,,,
,,,,,,,,,,,,,,,,,199513,18,2022-01-29_14h09.39.938,lexical_decision_task_DD_L6,2021.2.3,MacIntel,60.0024001,,,,,,,,,,,0.8162,1,,,,,,,,,,,,,,m,1,0.8162,,,,,,,,-0.005599162,-0.35125373,0,0,0,,0,29,29,3,1,CRATER,LB,old,m,./images/CRATERLB.png,,,,,,,,,,,,,,,,,,,,,,,
,,,,,,,,,,,,,,,,,199513,18,2022-01-29_14h09.39.938,lexical_decision_task_DD_L6,2021.2.3,MacIntel,60.0024001,,,,,,,,,,,0.5614,1,,,,,,,,,,,,,,z,1,0.5614,,,,,,,,-0.005599162,-0.35125373,0,0,0,,0,30,30,84,1,HAXES,C,old,z,./images/HAXES.png,,,,,,,,,,,,,,,,,,,,,,,
,,,,,,,,,,,,,,,,,199513,18,2022-01-29_14h09.39.938,lexical_decision_task_DD_L6,2021.2.3,MacIntel,60.0024001,,,,,,,,,,,0.5677,1,,,,,,,,,,,,,,m,1,0.5677,,,,,,,,-0.005599162,-0.35125373,0,0,0,,0,31,31,51,1,SAUCE,LB,old,m,./images/SAUCELB.png,,,,,,,,,,,,,,,,,,,,,,,
,,,,,,,,,,,,,,,,,199513,18,2022-01-29_14h09.39.938,lexical_decision_task_DD_L6,2021.2.3,MacIntel,60.0024001,,,,,,,,,,,0.6411,1,,,,,,,,,,,,,,m,1,0.6411,,,,,,,,-0.005599162,-0.35125373,0,0,0,,0,32,32,34,1,RAZOR,C,old,m,./images/RAZOR.png,,,,,,,,,,,,,,,,,,,,,,,
,,,,,,,,,,,,,,,,,199513,18,2022-01-29_14h09.39.938,lexical_decision_task_DD_L6,2021.2.3,MacIntel,60.0024001,,,,,,,,,,,0.6571,1,,,,,,,,,,,,,,z,1,0.6571,,,,,,,,-0.005599162,-0.35125373,0,0,0,,0,33,33,114,1,RIKES,C,old,z,./images/RIKES.png,,,,,,,,,,,,,,,,,,,,,,,
,,,,,,,,,,,,,,,,,199513,18,2022-01-29_14h09.39.938,lexical_decision_task_DD_L6,2021.2.3,MacIntel,60.0024001,,,,,,,,,,,0.9268,1,,,,,,,,,,,,,,z,1,0.9268,,,,,,,,-0.005599162,-0.35125373,0,0,0,,0,34,34,115,1,MAWNS,HB,old,z,./images/MAWNSHB.png,,,,,,,,,,,,,,,,,,,,,,,
,,,,,,,,,,,,,,,,,199513,18,2022-01-29_14h09.39.938,lexical_decision_task_DD_L6,2021.2.3,MacIntel,60.0024001,,,,,,,,,,,1.1795,0,,,,,,,,,,,,,,m,0,1.1795,,,,,,,,-0.005599162,-0.35125373,0,0,0,,0,35,35,130,1,CRILL,HB,old,z,./images/CRILLHB.png,,,,,,,,,,,,,,,,,,,,,,,
,,,,,,,,,,,,,,,,,199513,18,2022-01-29_14h09.39.938,lexical_decision_task_DD_L6,2021.2.3,MacIntel,60.0024001,,,,,,,,,,,0.858,1,,,,,,,,,,,,,,m,1,0.858,,,,,,,,-0.005599162,-0.35125373,0,0,0,,0,36,36,32,1,HOCKEY,HB,old,m,./images/HOCKEYHB.png,,,,,,,,,,,,,,,,,,,,,,,
,,,,,,,,,,,,,,,,,199513,18,2022-01-29_14h09.39.938,lexical_decision_task_DD_L6,2021.2.3,MacIntel,60.0024001,,,,,,,,,,,0.6166,1,,,,,,,,,,,,,,z,1,0.6166,,,,,,,,-0.005599162,-0.35125373,0,0,0,,0,37,37,153,1,CLUPS,C,old,z,./images/CLUPS.png,,,,,,,,,,,,,,,,,,,,,,,
,,,,,,,,,,,,,,,,,199513,18,2022-01-29_14h09.39.938,lexical_decision_task_DD_L6,2021.2.3,MacIntel,60.0024001,,,,,,,,,,,0.6311,1,,,,,,,,,,,,,,m,1,0.6311,,,,,,,,-0.005599162,-0.35125373,0,0,0,,0,38,38,6,1,STAIN,LB,old,m,./images/STAINLB.png,,,,,,,,,,,,,,,,,,,,,,,
,,,,,,,,,,,,,,,,,199513,18,2022-01-29_14h09.39.938,lexical_decision_task_DD_L6,2021.2.3,MacIntel,60.0024001,,,,,,,,,,,0.6172,1,,,,,,,,,,,,,,m,1,0.6172,,,,,,,,-0.005599162,-0.35125373,0,0,0,,0,39,39,26,1,CLOUD,HB,old,m,./images/CLOUDHB.png,,,,,,,,,,,,,,,,,,,,,,,
,,,,,,,,,,,,,,,,,199513,18,2022-01-29_14h09.39.938,lexical_decision_task_DD_L6,2021.2.3,MacIntel,60.0024001,,,,,,,,,,,0.5079,1,,,,,,,,,,,,,,m,1,0.5079,,,,,,,,-0.005599162,-0.35125373,0,0,0,,0,40,40,16,1,GRAPE,C,old,m,./images/GRAPE.png,,,,,,,,,,,,,,,,,,,,,,,
,,,,,,,,,,,,,,,,,199513,18,2022-01-29_14h09.39.938,lexical_decision_task_DD_L6,2021.2.3,MacIntel,60.0024001,,,,,,,,,,,0.5324,1,,,,,,,,,,,,,,m,1,0.5324,,,,,,,,-0.040155097,-0.408038873,1,0,0,,0,41,41,61,1,ARTIST,C,old,m,./images/ARTIST.png,break_done_button,,,,,,,,,,,,,,,,,,,,,,
,,,,,,,,,,,,,,,,,199513,18,2022-01-29_14h09.39.938,lexical_decision_task_DD_L6,2021.2.3,MacIntel,60.0024001,,,,,,,,,,,0.631,1,,,,,,,,,,,,,,m,1,0.631,,,,,,,,-0.040155097,-0.408038873,0,0,0,,0,42,42,73,1,GLOVE,C,old,m,./images/GLOVE.png,,,,,,,,,,,,,,,,,,,,,,,
,,,,,,,,,,,,,,,,,199513,18,2022-01-29_14h09.39.938,lexical_decision_task_DD_L6,2021.2.3,MacIntel,60.0024001,,,,,,,,,,,0.5723,1,,,,,,,,,,,,,,m,1,0.5723,,,,,,,,-0.040155097,-0.408038873,0,0,0,,0,43,43,10,1,GARDEN,C,old,m,./images/GARDEN.png,,,,,,,,,,,,,,,,,,,,,,,
,,,,,,,,,,,,,,,,,199513,18,2022-01-29_14h09.39.938,lexical_decision_task_DD_L6,2021.2.3,MacIntel,60.0024001,,,,,,,,,,,0.6586,1,,,,,,,,,,,,,,z,1,0.6586,,,,,,,,-0.040155097,-0.408038873,0,0,0,,0,44,44,104,1,GITTY,LB,old,z,./images/GITTYLB.png,,,,,,,,,,,,,,,,,,,,,,,
,,,,,,,,,,,,,,,,,199513,18,2022-01-29_14h09.39.938,lexical_decision_task_DD_L6,2021.2.3,MacIntel,60.0024001,,,,,,,,,,,1.383,1,,,,,,,,,,,,,,z,1,1.383,,,,,,,,-0.040155097,-0.408038873,0,0,0,,0,45,45,95,1,HANTY,LB,old,z,./images/HANTYLB.png,,,,,,,,,,,,,,,,,,,,,,,
,,,,,,,,,,,,,,,,,199513,18,2022-01-29_14h09.39.938,lexical_decision_task_DD_L6,2021.2.3,MacIntel,60.0024001,,,,,,,,,,,0.9343,1,,,,,,,,,,,,,,m,1,0.9343,,,,,,,,-0.040155097,-0.408038873,0,0,0,,0,46,46,12,1,BLOKE,LB,old,m,./images/BLOKELB.png,,,,,,,,,,,,,,,,,,,,,,,
,,,,,,,,,,,,,,,,,199513,18,2022-01-29_14h09.39.938,lexical_decision_task_DD_L6,2021.2.3,MacIntel,60.0024001,,,,,,,,,,,0.534,1,,,,,,,,,,,,,,m,1,0.534,,,,,,,,-0.040155097,-0.408038873,0,0,0,,0,47,47,69,1,ARROW,LB,old,m,./images/ARROWLB.png,,,,,,,,,,,,,,,,,,,,,,,
,,,,,,,,,,,,,,,,,199513,18,2022-01-29_14h09.39.938,lexical_decision_task_DD_L6,2021.2.3,MacIntel,60.0024001,,,,,,,,,,,0.5662,1,,,,,,,,,,,,,,m,1,0.5662,,,,,,,,-0.040155097,-0.408038873,0,0,0,,0,48,48,7,1,WAGON,C,old,m,./images/WAGON.png,,,,,,,,,,,,,,,,,,,,,,,
,,,,,,,,,,,,,,,,,199513,18,2022-01-29_14h09.39.938,lexical_decision_task_DD_L6,2021.2.3,MacIntel,60.0024001,,,,,,,,,,,0.6462,1,,,,,,,,,,,,,,z,1,0.6462,,,,,,,,-0.040155097,-0.408038873,0,0,0,,0,49,49,149,1,VEASE,LB,old,z,./images/VEASELB.png,,,,,,,,,,,,,,,,,,,,,,,
,,,,,,,,,,,,,,,,,199513,18,2022-01-29_14h09.39.938,lexical_decision_task_DD_L6,2021.2.3,MacIntel,60.0024001,,,,,,,,,,,0.7012,1,,,,,,,,,,,,,,z,1,0.7012,,,,,,,,-0.040155097,-0.408038873,0,0,0,,0,50,50,164,1,SGREW,LB,old,z,./images/SGREWLB.png,,,,,,,,,,,,,,,,,,,,,,,
,,,,,,,,,,,,,,,,,199513,18,2022-01-29_14h09.39.938,lexical_decision_task_DD_L6,2021.2.3,MacIntel,60.0024001,,,,,,,,,,,0.6787,1,,,,,,,,,,,,,,m,1,0.6787,,,,,,,,-0.040155097,-0.408038873,0,0,0,,0,51,51,60,1,CURRY,LB,old,m,./images/CURRYLB.png,,,,,,,,,,,,,,,,,,,,,,,
,,,,,,,,,,,,,,,,,199513,18,2022-01-29_14h09.39.938,lexical_decision_task_DD_L6,2021.2.3,MacIntel,60.0024001,,,,,,,,,,,1.2758,1,,,,,,,,,,,,,,z,1,1.2758,,,,,,,,-0.040155097,-0.408038873,0,0,0,,0,52,52,106,1,CLUMS,HB,old,z,./images/CLUMSHB.png,,,,,,,,,,,,,,,,,,,,,,,
,,,,,,,,,,,,,,,,,199513,18,2022-01-29_14h09.39.938,lexical_decision_task_DD_L6,2021.2.3,MacIntel,60.0024001,,,,,,,,,,,0.6596,1,,,,,,,,,,,,,,z,1,0.6596,,,,,,,,-0.040155097,-0.408038873,0,0,0,,0,53,53,117,1,STEEG,C,old,z,./images/STEEG.png,,,,,,,,,,,,,,,,,,,,,,,
,,,,,,,,,,,,,,,,,199513,18,2022-01-29_14h09.39.938,lexical_decision_task_DD_L6,2021.2.3,MacIntel,60.0024001,,,,,,,,,,,0.8496,1,,,,,,,,,,,,,,z,1,0.8496,,,,,,,,-0.040155097,-0.408038873,0,0,0,,0,54,54,139,1,BLEAR,HB,old,z,./images/BLEARHB.png,,,,,,,,,,,,,,,,,,,,,,,
,,,,,,,,,,,,,,,,,199513,18,2022-01-29_14h09.39.938,lexical_decision_task_DD_L6,2021.2.3,MacIntel,60.0024001,,,,,,,,,,,1.1947,1,,,,,,,,,,,,,,m,1,1.1947,,,,,,,,-0.040155097,-0.408038873,0,0,0,,0,55,55,56,1,HEATER,HB,old,m,./images/HEATERHB.png,,,,,,,,,,,,,,,,,,,,,,,
,,,,,,,,,,,,,,,,,199513,18,2022-01-29_14h09.39.938,lexical_decision_task_DD_L6,2021.2.3,MacIntel,60.0024001,,,,,,,,,,,0.5469,1,,,,,,,,,,,,,,m,1,0.5469,,,,,,,,-0.040155097,-0.408038873,0,0,0,,0,56,56,67,1,POKER,C,old,m,./images/POKER.png,,,,,,,,,,,,,,,,,,,,,,,
,,,,,,,,,,,,,,,,,199513,18,2022-01-29_14h09.39.938,lexical_decision_task_DD_L6,2021.2.3,MacIntel,60.0024001,,,,,,,,,,,1.4458,1,,,,,,,,,,,,,,z,1,1.4458,,,,,,,,-0.040155097,-0.408038873,0,0,0,,0,57,57,97,1,CHIDS,HB,old,z,./images/CHIDSHB.png,,,,,,,,,,,,,,,,,,,,,,,
,,,,,,,,,,,,,,,,,199513,18,2022-01-29_14h09.39.938,lexical_decision_task_DD_L6,2021.2.3,MacIntel,60.0024001,,,,,,,,,,,0.7458,1,,,,,,,,,,,,,,m,1,0.7458,,,,,,,,-0.040155097,-0.408038873,0,0,0,,0,58,58,80,1,PLANET,HB,old,m,./images/PLANETHB.png,,,,,,,,,,,,,,,,,,,,,,,
,,,,,,,,,,,,,,,,,199513,18,2022-01-29_14h09.39.938,lexical_decision_task_DD_L6,2021.2.3,MacIntel,60.0024001,,,,,,,,,,,0.7618,1,,,,,,,,,,,,,,z,1,0.7618,,,,,,,,-0.040155097,-0.408038873,0,0,0,,0,59,59,98,1,BAMPS,LB,old,z,./images/BAMPSLB.png,,,,,,,,,,,,,,,,,,,,,,,
,,,,,,,,,,,,,,,,,199513,18,2022-01-29_14h09.39.938,lexical_decision_task_DD_L6,2021.2.3,MacIntel,60.0024001,,,,,,,,,,,0.7438,1,,,,,,,,,,,,,,m,1,0.7438,,,,,,,,-0.040155097,-0.408038873,0,0,0,,0,60,60,76,1,MIDGET,C,old,m,./images/MIDGET.png,,,,,,,,,,,,,,,,,,,,,,,
,,,,,,,,,,,,,,,,,199513,18,2022-01-29_14h09.39.938,lexical_decision_task_DD_L6,2021.2.3,MacIntel,60.0024001,,,,,,,,,,,0.7286,1,,,,,,,,,,,,,,m,1,0.7286,,,,,,,,-0.040155097,-0.408038873,0,0,0,,0,61,61,75,1,HAMMER,LB,old,m,./images/HAMMERLB.png,,,,,,,,,,,,,,,,,,,,,,,
,,,,,,,,,,,,,,,,,199513,18,2022-01-29_14h09.39.938,lexical_decision_task_DD_L6,2021.2.3,MacIntel,60.0024001,,,,,,,,,,,1.2191,0,,,,,,,,,,,,,,m,0,1.2191,,,,,,,,-0.040155097,-0.408038873,0,0,0,,0,62,62,142,1,PLASK,HB,old,z,./images/PLASKHB.png,,,,,,,,,,,,,,,,,,,,,,,
,,,,,,,,,,,,,,,,,199513,18,2022-01-29_14h09.39.938,lexical_decision_task_DD_L6,2021.2.3,MacIntel,60.0024001,,,,,,,,,,,0.6604,1,,,,,,,,,,,,,,z,1,0.6604,,,,,,,,-0.040155097,-0.408038873,0,0,0,,0,63,63,138,1,PLICE,C,old,z,./images/PLICE.png,,,,,,,,,,,,,,,,,,,,,,,
,,,,,,,,,,,,,,,,,199513,18,2022-01-29_14h09.39.938,lexical_decision_task_DD_L6,2021.2.3,MacIntel,60.0024001,,,,,,,,,,,0.7578,1,,,,,,,,,,,,,,z,1,0.7578,,,,,,,,-0.040155097,-0.408038873,0,0,0,,0,64,64,155,1,CANGY,LB,old,z,./images/CANGYLB.png,,,,,,,,,,,,,,,,,,,,,,,
,,,,,,,,,,,,,,,,,199513,18,2022-01-29_14h09.39.938,lexical_decision_task_DD_L6,2021.2.3,MacIntel,60.0024001,,,,,,,,,,,1.0337,1,,,,,,,,,,,,,,z,1,1.0337,,,,,,,,-0.040155097,-0.408038873,0,0,0,,0,65,65,121,1,CEERS,HB,old,z,./images/CEERSHB.png,,,,,,,,,,,,,,,,,,,,,,,
,,,,,,,,,,,,,,,,,199513,18,2022-01-29_14h09.39.938,lexical_decision_task_DD_L6,2021.2.3,MacIntel,60.0024001,,,,,,,,,,,0.6511,1,,,,,,,,,,,,,,z,1,0.6511,,,,,,,,-0.040155097,-0.408038873,0,0,0,,0,66,66,146,1,MOOST,LB,old,z,./images/MOOSTLB.png,,,,,,,,,,,,,,,,,,,,,,,
,,,,,,,,,,,,,,,,,199513,18,2022-01-29_14h09.39.938,lexical_decision_task_DD_L6,2021.2.3,MacIntel,60.0024001,,,,,,,,,,,0.8924,1,,,,,,,,,,,,,,m,1,0.8924,,,,,,,,-0.040155097,-0.408038873,0,0,0,,0,67,67,50,1,PILOT,HB,old,m,./images/PILOTHB.png,,,,,,,,,,,,,,,,,,,,,,,
,,,,,,,,,,,,,,,,,199513,18,2022-01-29_14h09.39.938,lexical_decision_task_DD_L6,2021.2.3,MacIntel,60.0024001,,,,,,,,,,,0.5306,1,,,,,,,,,,,,,,m,1,0.5306,,,,,,,,-0.040155097,-0.408038873,0,0,0,,0,68,68,82,1,PEBBLE,C,old,m,./images/PEBBLE.png,,,,,,,,,,,,,,,,,,,,,,,
,,,,,,,,,,,,,,,,,199513,18,2022-01-29_14h09.39.938,lexical_decision_task_DD_L6,2021.2.3,MacIntel,60.0024001,,,,,,,,,,,0.5821,1,,,,,,,,,,,,,,m,1,0.5821,,,,,,,,-0.040155097,-0.408038873,0,0,0,,0,69,69,37,1,TIGER,C,old,m,./images/TIGER.png,,,,,,,,,,,,,,,,,,,,,,,
,,,,,,,,,,,,,,,,,199513,18,2022-01-29_14h09.39.938,lexical_decision_task_DD_L6,2021.2.3,MacIntel,60.0024001,,,,,,,,,,,0.5666,1,,,,,,,,,,,,,,m,1,0.5666,,,,,,,,-0.040155097,-0.408038873,0,0,0,,0,70,70,21,1,DANCER,LB,old,m,./images/DANCERLB.png,,,,,,,,,,,,,,,,,,,,,,,
,,,,,,,,,,,,,,,,,199513,18,2022-01-29_14h09.39.938,lexical_decision_task_DD_L6,2021.2.3,MacIntel,60.0024001,,,,,,,,,,,0.617,1,,,,,,,,,,,,,,z,1,0.617,,,,,,,,-0.040155097,-0.408038873,0,0,0,,0,71,71,161,1,BLAPS,LB,old,z,./images/BLAPSLB.png,,,,,,,,,,,,,,,,,,,,,,,
,,,,,,,,,,,,,,,,,199513,18,2022-01-29_14h09.39.938,lexical_decision_task_DD_L6,2021.2.3,MacIntel,60.0024001,,,,,,,,,,,0.7011,1,,,,,,,,,,,,,,z,1,0.7011,,,,,,,,-0.040155097,-0.408038873,0,0,0,,0,72,72,158,1,EGECT,LB,old,z,./images/EGECTLB.png,,,,,,,,,,,,,,,,,,,,,,,
,,,,,,,,,,,,,,,,,199513,18,2022-01-29_14h09.39.938,lexical_decision_task_DD_L6,2021.2.3,MacIntel,60.0024001,,,,,,,,,,,0.6322,1,,,,,,,,,,,,,,z,1,0.6322,,,,,,,,-0.040155097,-0.408038873,0,0,0,,0,73,73,137,1,JOOST,LB,old,z,./images/JOOSTLB.png,,,,,,,,,,,,,,,,,,,,,,,
,,,,,,,,,,,,,,,,,199513,18,2022-01-29_14h09.39.938,lexical_decision_task_DD_L6,2021.2.3,MacIntel,60.0024001,,,,,,,,,,,0.5679,1,,,,,,,,,,,,,,m,1,0.5679,,,,,,,,-0.040155097,-0.408038873,0,0,0,,0,74,74,27,1,BUTTER,LB,old,m,./images/BUTTERLB.png,,,,,,,,,,,,,,,,,,,,,,,
,,,,,,,,,,,,,,,,,199513,18,2022-01-29_14h09.39.938,lexical_decision_task_DD_L6,2021.2.3,MacIntel,60.0024001,,,,,,,,,,,0.546,1,,,,,,,,,,,,,,m,1,0.546,,,,,,,,-0.040155097,-0.408038873,0,0,0,,0,75,75,25,1,CHALK,C,old,m,./images/CHALK.png,,,,,,,,,,,,,,,,,,,,,,,
,,,,,,,,,,,,,,,,,199513,18,2022-01-29_14h09.39.938,lexical_decision_task_DD_L6,2021.2.3,MacIntel,60.0024001,,,,,,,,,,,0.6836,1,,,,,,,,,,,,,,z,1,0.6836,,,,,,,,-0.040155097,-0.408038873,0,0,0,,0,76,76,113,1,LINEW,LB,old,z,./images/LINEWLB.png,,,,,,,,,,,,,,,,,,,,,,,
,,,,,,,,,,,,,,,,,199513,18,2022-01-29_14h09.39.938,lexical_decision_task_DD_L6,2021.2.3,MacIntel,60.0024001,,,,,,,,,,,0.7179,1,,,,,,,,,,,,,,m,1,0.7179,,,,,,,,-0.040155097,-0.408038873,0,0,0,,0,77,77,77,1,WHEEL,HB,old,m,./images/WHEELHB.png,,,,,,,,,,,,,,,,,,,,,,,
,,,,,,,,,,,,,,,,,199513,18,2022-01-29_14h09.39.938,lexical_decision_task_DD_L6,2021.2.3,MacIntel,60.0024001,,,,,,,,,,,0.6043,1,,,,,,,,,,,,,,z,1,0.6043,,,,,,,,-0.040155097,-0.408038873,0,0,0,,0,78,78,102,1,DULLE,C,old,z,./images/DULLE.png,,,,,,,,,,,,,,,,,,,,,,,
,,,,,,,,,,,,,,,,,199513,18,2022-01-29_14h09.39.938,lexical_decision_task_DD_L6,2021.2.3,MacIntel,60.0024001,,,,,,,,,,,0.5897,1,,,,,,,,,,,,,,m,1,0.5897,,,,,,,,-0.040155097,-0.408038873,0,0,0,,0,79,79,1,1,TOWEL,C,old,m,./images/TOWEL.png,,,,,,,,,,,,,,,,,,,,,,,
,,,,,,,,,,,,,,,,,199513,18,2022-01-29_14h09.39.938,lexical_decision_task_DD_L6,2021.2.3,MacIntel,60.0024001,,,,,,,,,,,0.5429,1,,,,,,,,,,,,,,m,1,0.5429,,,,,,,,-0.040155097,-0.408038873,0,0,0,,0,80,80,70,1,BANANA,C,old,m,./images/BANANA.png,,,,,,,,,,,,,,,,,,,,,,,
,,,,,,,,,,,,,,,,,199513,18,2022-01-29_14h09.39.938,lexical_decision_task_DD_L6,2021.2.3,MacIntel,60.0024001,,,,,,,,,,,0.9165,1,,,,,,,,,,,,,,z,1,0.9165,,,,,,,,-0.040155097,-0.408038873,0,0,0,,0,81,81,124,1,TUNCH,HB,old,z,./images/TUNCHHB.png,,,,,,,,,,,,,,,,,,,,,,,
,,,,,,,,,,,,,,,,,199513,18,2022-01-29_14h09.39.938,lexical_decision_task_DD_L6,2021.2.3,MacIntel,60.0024001,,,,,,,,,,,0.6565,1,,,,,,,,,,,,,,z,1,0.6565,,,,,,,,-0.040155097,-0.408038873,0,0,0,,0,82,82,129,1,PRANS,C,old,z,./images/PRANS.png,,,,,,,,,,,,,,,,,,,,,,,
,,,,,,,,,,,,,,,,,199513,18,2022-01-29_14h09.39.938,lexical_decision_task_DD_L6,2021.2.3,MacIntel,60.0024001,,,,,,,,,,,0.651,1,,,,,,,,,,,,,,m,1,0.651,,,,,,,,-0.040155097,-0.408038873,0,0,0,space,0,83,83,55,1,ALLEY,C,old,m,./images/ALLEY.png,,1.2249,,,,,,,,,,,,,,,,,,,,,
,,,,,,,,,,,,,,,,,199513,18,2022-01-29_14h09.39.938,lexical_decision_task_DD_L6,2021.2.3,MacIntel,60.0024001,,,,,,,,,,,1.1185,1,,,,,,,,,,,,,,m,1,1.1185,,,,,,,,-0.040155097,-0.408038873,0,0,0,,0,84,84,62,1,MAMMAL,HB,old,m,./images/MAMMALHB.png,,,,,,,,,,,,,,,,,,,,,,,
,,,,,,,,,,,,,,,,,199513,18,2022-01-29_14h09.39.938,lexical_decision_task_DD_L6,2021.2.3,MacIntel,60.0024001,,,,,,,,,,,0.5152,1,,,,,,,,,,,,,,m,1,0.5152,,,,,,,,-0.040155097,-0.408038873,0,0,0,,0,85,85,31,1,STEAK,C,old,m,./images/STEAK.png,,,,,,,,,,,,,,,,,,,,,,,
,,,,,,,,,,,,,,,,,199513,18,2022-01-29_14h09.39.938,lexical_decision_task_DD_L6,2021.2.3,MacIntel,60.0024001,,,,,,,,,,,0.8972,1,,,,,,,,,,,,,,z,1,0.8972,,,,,,,,-0.040155097,-0.408038873,0,0,0,,0,86,86,154,1,THINT,HB,old,z,./images/THINTHB.png,,,,,,,,,,,,,,,,,,,,,,,
,,,,,,,,,,,,,,,,,199513,18,2022-01-29_14h09.39.938,lexical_decision_task_DD_L6,2021.2.3,MacIntel,60.0024001,,,,,,,,,,,1.2427,1,,,,,,,,,,,,,,z,1,1.2427,,,,,,,,-0.040155097,-0.408038873,0,0,0,,0,87,87,85,1,CHULK,HB,old,z,./images/CHULKHB.png,,,,,,,,,,,,,,,,,,,,,,,
,,,,,,,,,,,,,,,,,199513,18,2022-01-29_14h09.39.938,lexical_decision_task_DD_L6,2021.2.3,MacIntel,60.0024001,,,,,,,,,,,0.6251,1,,,,,,,,,,,,,,z,1,0.6251,,,,,,,,-0.040155097,-0.408038873,0,0,0,,0,88,88,89,1,DRIEK,LB,old,z,./images/DRIEKLB.png,,,,,,,,,,,,,,,,,,,,,,,
,,,,,,,,,,,,,,,,,199513,18,2022-01-29_14h09.39.938,lexical_decision_task_DD_L6,2021.2.3,MacIntel,60.0024001,,,,,,,,,,,0.582,1,,,,,,,,,,,,,,m,1,0.582,,,,,,,,-0.040155097,-0.408038873,0,0,0,,0,89,89,19,1,DONKEY,C,old,m,./images/DONKEY.png,,,,,,,,,,,,,,,,,,,,,,,
,,,,,,,,,,,,,,,,,199513,18,2022-01-29_14h09.39.938,lexical_decision_task_DD_L6,2021.2.3,MacIntel,60.0024001,,,,,,,,,,,0.5849,1,,,,,,,,,,,,,,z,1,0.5849,,,,,,,,-0.040155097,-0.408038873,0,0,0,,0,90,90,167,1,ZONET,LB,old,z,./images/ZONETLB.png,,,,,,,,,,,,,,,,,,,,,,,
,,,,,,,,,,,,,,,,,199513,18,2022-01-29_14h09.39.938,lexical_decision_task_DD_L6,2021.2.3,MacIntel,60.0024001,,,,,,,,,,,1.051,1,,,,,,,,,,,,,,m,1,1.051,,,,,,,,-0.040155097,-0.408038873,0,0,0,,0,91,91,74,1,JUMPER,HB,old,m,./images/JUMPERHB.png,,,,,,,,,,,,,,,,,,,,,,,
,,,,,,,,,,,,,,,,,199513,18,2022-01-29_14h09.39.938,lexical_decision_task_DD_L6,2021.2.3,MacIntel,60.0024001,,,,,,,,,,,1.2489,1,,,,,,,,,,,,,,z,1,1.2489,,,,,,,,-0.040155097,-0.408038873,0,0,0,,0,92,92,166,1,SHORY,HB,old,z,./images/SHORYHB.png,,,,,,,,,,,,,,,,,,,,,,,
,,,,,,,,,,,,,,,,,199513,18,2022-01-29_14h09.39.938,lexical_decision_task_DD_L6,2021.2.3,MacIntel,60.0024001,,,,,,,,,,,0.6183,1,,,,,,,,,,,,,,m,1,0.6183,,,,,,,,-0.040155097,-0.408038873,0,0,0,,0,93,93,57,1,FERRY,LB,old,m,./images/FERRYLB.png,,,,,,,,,,,,,,,,,,,,,,,
,,,,,,,,,,,,,,,,,199513,18,2022-01-29_14h09.39.938,lexical_decision_task_DD_L6,2021.2.3,MacIntel,60.0024001,,,,,,,,,,,0.9506,1,,,,,,,,,,,,,,z,1,0.9506,,,,,,,,-0.040155097,-0.408038873,0,0,0,,0,94,94,145,1,LAMEL,HB,old,z,./images/LAMELHB.png,,,,,,,,,,,,,,,,,,,,,,,
,,,,,,,,,,,,,,,,,199513,18,2022-01-29_14h09.39.938,lexical_decision_task_DD_L6,2021.2.3,MacIntel,60.0024001,,,,,,,,,,,0.6017,1,,,,,,,,,,,,,,m,1,0.6017,,,,,,,,-0.040155097,-0.408038873,0,0,0,,0,95,95,72,1,FLASK,LB,old,m,./images/FLASKLB.png,,,,,,,,,,,,,,,,,,,,,,,
,,,,,,,,,,,,,,,,,199513,18,2022-01-29_14h09.39.938,lexical_decision_task_DD_L6,2021.2.3,MacIntel,60.0024001,,,,,,,,,,,0.6035,1,,,,,,,,,,,,,,m,1,0.6035,,,,,,,,-0.040155097,-0.408038873,0,0,0,,0,96,96,13,1,BUNNY,C,old,m,./images/BUNNY.png,,,,,,,,,,,,,,,,,,,,,,,
,,,,,,,,,,,,,,,,,199513,18,2022-01-29_14h09.39.938,lexical_decision_task_DD_L6,2021.2.3,MacIntel,60.0024001,,,,,,,,,,,0.6715,1,,,,,,,,,,,,,,z,1,0.6715,,,,,,,,-0.040155097,-0.408038873,0,0,0,,0,97,97,111,1,HOSSE,C,old,z,./images/HOSSE.png,,,,,,,,,,,,,,,,,,,,,,,
,,,,,,,,,,,,,,,,,199513,18,2022-01-29_14h09.39.938,lexical_decision_task_DD_L6,2021.2.3,MacIntel,60.0024001,,,,,,,,,,,0.7006,1,,,,,,,,,,,,,,z,1,0.7006,,,,,,,,-0.040155097,-0.408038873,0,0,0,,0,98,98,116,1,BALGY,LB,old,z,./images/BALGYLB.png,,,,,,,,,,,,,,,,,,,,,,,
,,,,,,,,,,,,,,,,,199513,18,2022-01-29_14h09.39.938,lexical_decision_task_DD_L6,2021.2.3,MacIntel,60.0024001,,,,,,,,,,,0.5335,1,,,,,,,,,,,,,,z,1,0.5335,,,,,,,,-0.040155097,-0.408038873,0,0,0,,0,99,99,126,1,GUELS,C,old,z,./images/GUELS.png,,,,,,,,,,,,,,,,,,,,,,,
,,,,,,,,,,,,,,,,,199513,18,2022-01-29_14h09.39.938,lexical_decision_task_DD_L6,2021.2.3,MacIntel,60.0024001,,,,,,,,,,,0.6162,1,,,,,,,,,,,,,,m,1,0.6162,,,,,,,,-0.040155097,-0.408038873,0,0,0,,0,100,100,43,1,STOOL,C,old,m,./images/STOOL.png,,,,,,,,,,,,,,,,,,,,,,,
,,,,,,,,,,,,,,,,,199513,18,2022-01-29_14h09.39.938,lexical_decision_task_DD_L6,2021.2.3,MacIntel,60.0024001,,,,,,,,,,,1.2171,1,,,,,,,,,,,,,,z,1,1.2171,,,,,,,,-0.040155097,-0.408038873,0,0,0,,0,101,101,110,1,CRUNK,LB,old,z,./images/CRUNKLB.png,,,,,,,,,,,,,,,,,,,,,,,
,,,,,,,,,,,,,,,,,199513,18,2022-01-29_14h09.39.938,lexical_decision_task_DD_L6,2021.2.3,MacIntel,60.0024001,,,,,,,,,,,0.6471,1,,,,,,,,,,,,,,z,1,0.6471,,,,,,,,-0.040155097,-0.408038873,0,0,0,,0,102,102,96,1,KEAMS,C,old,z,./images/KEAMS.png,,,,,,,,,,,,,,,,,,,,,,,
,,,,,,,,,,,,,,,,,199513,18,2022-01-29_14h09.39.938,lexical_decision_task_DD_L6,2021.2.3,MacIntel,60.0024001,,,,,,,,,,,0.6436,1,,,,,,,,,,,,,,m,1,0.6436,,,,,,,,-0.040155097,-0.408038873,0,0,0,,0,103,103,66,1,STATUE,LB,old,m,./images/STATUELB.png,,,,,,,,,,,,,,,,,,,,,,,
,,,,,,,,,,,,,,,,,199513,18,2022-01-29_14h09.39.938,lexical_decision_task_DD_L6,2021.2.3,MacIntel,60.0024001,,,,,,,,,,,0.6967,1,,,,,,,,,,,,,,m,1,0.6967,,,,,,,,-0.040155097,-0.408038873,0,0,0,,0,104,104,28,1,CASINO,C,old,m,./images/CASINO.png,,,,,,,,,,,,,,,,,,,,,,,
,,,,,,,,,,,,,,,,,199513,18,2022-01-29_14h09.39.938,lexical_decision_task_DD_L6,2021.2.3,MacIntel,60.0024001,,,,,,,,,,,1.1004,0,,,,,,,,,,,,,,z,0,1.1004,,,,,,,,-0.040155097,-0.408038873,0,0,0,,0,105,105,53,1,POSTER,HB,old,m,./images/POSTERHB.png,,,,,,,,,,,,,,,,,,,,,,,
,,,,,,,,,,,,,,,,,199513,18,2022-01-29_14h09.39.938,lexical_decision_task_DD_L6,2021.2.3,MacIntel,60.0024001,,,,,,,,,,,1.165,1,,,,,,,,,,,,,,z,1,1.165,,,,,,,,-0.040155097,-0.408038873,0,0,0,,0,106,106,136,1,WERVE,HB,old,z,./images/WERVEHB.png,,,,,,,,,,,,,,,,,,,,,,,
,,,,,,,,,,,,,,,,,199513,18,2022-01-29_14h09.39.938,lexical_decision_task_DD_L6,2021.2.3,MacIntel,60.0024001,,,,,,,,,,,0.6722,1,,,,,,,,,,,,,,z,1,0.6722,,,,,,,,-0.040155097,-0.408038873,0,0,0,,0,107,107,144,1,NAIRY,C,old,z,./images/NAIRY.png,,,,,,,,,,,,,,,,,,,,,,,
,,,,,,,,,,,,,,,,,199513,18,2022-01-29_14h09.39.938,lexical_decision_task_DD_L6,2021.2.3,MacIntel,60.0024001,,,,,,,,,,,0.7647,1,,,,,,,,,,,,,,m,1,0.7647,,,,,,,,-0.040155097,-0.408038873,0,0,0,,0,108,108,79,1,RULER,C,old,m,./images/RULER.png,,,,,,,,,,,,,,,,,,,,,,,
,,,,,,,,,,,,,,,,,199513,18,2022-01-29_14h09.39.938,lexical_decision_task_DD_L6,2021.2.3,MacIntel,60.0024001,,,,,,,,,,,0.6439,1,,,,,,,,,,,,,,m,1,0.6439,,,,,,,,-0.040155097,-0.408038873,0,0,0,,0,109,109,68,1,VALLEY,HB,old,m,./images/VALLEYHB.png,,,,,,,,,,,,,,,,,,,,,,,
,,,,,,,,,,,,,,,,,199513,18,2022-01-29_14h09.39.938,lexical_decision_task_DD_L6,2021.2.3,MacIntel,60.0024001,,,,,,,,,,,0.7347,1,,,,,,,,,,,,,,m,1,0.7347,,,,,,,,-0.040155097,-0.408038873,0,0,0,,0,110,110,2,1,STOVE,HB,old,m,./images/STOVEHB.png,,,,,,,,,,,,,,,,,,,,,,,
,,,,,,,,,,,,,,,,,199513,18,2022-01-29_14h09.39.938,lexical_decision_task_DD_L6,2021.2.3,MacIntel,60.0024001,,,,,,,,,,,0.6094,1,,,,,,,,,,,,,,z,1,0.6094,,,,,,,,-0.040155097,-0.408038873,0,0,0,,0,111,111,90,1,NEAST,C,old,z,./images/NEAST.png,,,,,,,,,,,,,,,,,,,,,,,
,,,,,,,,,,,,,,,,,199513,18,2022-01-29_14h09.39.938,lexical_decision_task_DD_L6,2021.2.3,MacIntel,60.0024001,,,,,,,,,,,0.6322,1,,,,,,,,,,,,,,m,1,0.6322,,,,,,,,-0.040155097,-0.408038873,0,0,0,,0,112,112,42,1,CHAIN,LB,old,m,./images/CHAINLB.png,,,,,,,,,,,,,,,,,,,,,,,
,,,,,,,,,,,,,,,,,199513,18,2022-01-29_14h09.39.938,lexical_decision_task_DD_L6,2021.2.3,MacIntel,60.0024001,,,,,,,,,,,0.6476,1,,,,,,,,,,,,,,z,1,0.6476,,,,,,,,-0.040155097,-0.408038873,0,0,0,,0,113,113,122,1,BLOOT,LB,old,z,./images/BLOOTLB.png,,,,,,,,,,,,,,,,,,,,,,,
,,,,,,,,,,,,,,,,,199513,18,2022-01-29_14h09.39.938,lexical_decision_task_DD_L6,2021.2.3,MacIntel,60.0024001,,,,,,,,,,,0.4666,1,,,,,,,,,,,,,,m,1,0.4666,,,,,,,,-0.040155097,-0.408038873,0,0,0,,0,114,114,9,1,DIVER,LB,old,m,./images/DIVERLB.png,,,,,,,,,,,,,,,,,,,,,,,
,,,,,,,,,,,,,,,,,199513,18,2022-01-29_14h09.39.938,lexical_decision_task_DD_L6,2021.2.3,MacIntel,60.0024001,,,,,,,,,,,0.7134,1,,,,,,,,,,,,,,z,1,0.7134,,,,,,,,-0.040155097,-0.408038873,0,0,0,,0,115,115,93,1,SMONE,C,old,z,./images/SMONE.png,,,,,,,,,,,,,,,,,,,,,,,
,,,,,,,,,,,,,,,,,199513,18,2022-01-29_14h09.39.938,lexical_decision_task_DD_L6,2021.2.3,MacIntel,60.0024001,,,,,,,,,,,0.7342,1,,,,,,,,,,,,,,m,1,0.7342,,,,,,,,-0.040155097,-0.408038873,0,0,0,,0,116,116,65,1,SPINE,HB,old,m,./images/SPINEHB.png,,,,,,,,,,,,,,,,,,,,,,,
,,,,,,,,,,,,,,,,,199513,18,2022-01-29_14h09.39.938,lexical_decision_task_DD_L6,2021.2.3,MacIntel,60.0024001,,,,,,,,,,,1.0459,1,,,,,,,,,,,,,,z,1,1.0459,,,,,,,,-0.040155097,-0.408038873,0,0,0,,0,117,117,133,1,POWDY,HB,old,z,./images/POWDYHB.png,,,,,,,,,,,,,,,,,,,,,,,
,,,,,,,,,,,,,,,,,199513,18,2022-01-29_14h09.39.938,lexical_decision_task_DD_L6,2021.2.3,MacIntel,60.0024001,,,,,,,,,,,0.628,1,,,,,,,,,,,,,,z,1,0.628,,,,,,,,-0.040155097,-0.408038873,0,0,0,,0,118,118,141,1,PLEET,C,old,z,./images/PLEET.png,,,,,,,,,,,,,,,,,,,,,,,
,,,,,,,,,,,,,,,,,199513,18,2022-01-29_14h09.39.938,lexical_decision_task_DD_L6,2021.2.3,MacIntel,60.0024001,,,,,,,,,,,0.7195,1,,,,,,,,,,,,,,z,1,0.7195,,,,,,,,-0.040155097,-0.408038873,0,0,0,,0,119,119,99,1,BACKY,C,old,z,./images/BACKY.png,,,,,,,,,,,,,,,,,,,,,,,
,,,,,,,,,,,,,,,,,199513,18,2022-01-29_14h09.39.938,lexical_decision_task_DD_L6,2021.2.3,MacIntel,60.0024001,,,,,,,,,,,0.6847,1,,,,,,,,,,,,,,m,1,0.6847,,,,,,,,-0.040155097,-0.408038873,0,0,0,,0,120,120,58,1,CANOE,C,old,m,./images/CANOE.png,,,,,,,,,,,,,,,,,,,,,,,
,,,,,,,,,,,,,,,,,199513,18,2022-01-29_14h09.39.938,lexical_decision_task_DD_L6,2021.2.3,MacIntel,60.0024001,,,,,,,,,,,1.3505,1,,,,,,,,,,,,,,m,1,1.3505,,,,,,,,-0.040155097,-0.408038873,0,0,0,,0,121,121,41,1,STREAM,HB,old,m,./images/STREAMHB.png,,,,,,,,,,,,,,,,,,,,,,,
,,,,,,,,,,,,,,,,,199513,18,2022-01-29_14h09.39.938,lexical_decision_task_DD_L6,2021.2.3,MacIntel,60.0024001,,,,,,,,,,,0.7578,1,,,,,,,,,,,,,,z,1,0.7578,,,,,,,,-0.040155097,-0.408038873,0,0,0,,0,122,122,88,1,GLUSH,HB,old,z,./images/GLUSHHB.png,,,,,,,,,,,,,,,,,,,,,,,
,,,,,,,,,,,,,,,,,199513,18,2022-01-29_14h09.39.938,lexical_decision_task_DD_L6,2021.2.3,MacIntel,60.0024001,,,,,,,,,,,0.8335,1,,,,,,,,,,,,,,m,1,0.8335,,,,,,,,-0.040155097,-0.408038873,0,0,0,,0,123,123,47,1,LAGOON,HB,old,m,./images/LAGOONHB.png,,,,,,,,,,,,,,,,,,,,,,,
,,,,,,,,,,,,,,,,,199513,18,2022-01-29_14h09.39.938,lexical_decision_task_DD_L6,2021.2.3,MacIntel,60.0024001,,,,,,,,,,,0.5251,1,,,,,,,,,,,,,,m,1,0.5251,,,,,,,,-0.040155097,-0.408038873,0,0,0,,0,124,124,54,1,CHERRY,LB,old,m,./images/CHERRYLB.png,,,,,,,,,,,,,,,,,,,,,,,
,,,,,,,,,,,,,,,,,199513,18,2022-01-29_14h09.39.938,lexical_decision_task_DD_L6,2021.2.3,MacIntel,60.0024001,,,,,,,,,,,1.0658,1,,,,,,,,,,,,,,z,1,1.0658,,,,,,,,-0.040155097,-0.408038873,0,0,0,space,0,125,125,127,1,NINDY,HB,old,z,./images/NINDYHB.png,,2.3666,,,,,,,,,,,,,,,,,,,,,
,,,,,,,,,,,,,,,,,199513,18,2022-01-29_14h09.39.938,lexical_decision_task_DD_L6,2021.2.3,MacIntel,60.0024001,,,,,,,,,,,0.7004,1,,,,,,,,,,,,,,z,1,0.7004,,,,,,,,-0.040155097,-0.408038873,0,0,0,,0,126,126,125,1,MOOKY,LB,old,z,./images/MOOKYLB.png,,,,,,,,,,,,,,,,,,,,,,,
,,,,,,,,,,,,,,,,,199513,18,2022-01-29_14h09.39.938,lexical_decision_task_DD_L6,2021.2.3,MacIntel,60.0024001,,,,,,,,,,,0.6406,1,,,,,,,,,,,,,,z,1,0.6406,,,,,,,,-0.040155097,-0.408038873,0,0,0,,0,127,127,159,1,CUDDY,C,old,z,./images/CUDDY.png,,,,,,,,,,,,,,,,,,,,,,,
,,,,,,,,,,,,,,,,,199513,18,2022-01-29_14h09.39.938,lexical_decision_task_DD_L6,2021.2.3,MacIntel,60.0024001,,,,,,,,,,,0.5006,1,,,,,,,,,,,,,,m,1,0.5006,,,,,,,,-0.040155097,-0.408038873,0,0,0,,0,128,128,52,1,DESERT,C,old,m,./images/DESERT.png,,,,,,,,,,,,,,,,,,,,,,,
,,,,,,,,,,,,,,,,,199513,18,2022-01-29_14h09.39.938,lexical_decision_task_DD_L6,2021.2.3,MacIntel,60.0024001,,,,,,,,,,,0.6174,1,,,,,,,,,,,,,,z,1,0.6174,,,,,,,,-0.040155097,-0.408038873,0,0,0,,0,129,129,131,1,NACES,LB,old,z,./images/NACESLB.png,,,,,,,,,,,,,,,,,,,,,,,
,,,,,,,,,,,,,,,,,199513,18,2022-01-29_14h09.39.938,lexical_decision_task_DD_L6,2021.2.3,MacIntel,60.0024001,,,,,,,,,,,0.7173,1,,,,,,,,,,,,,,z,1,0.7173,,,,,,,,-0.040155097,-0.408038873,0,0,0,,0,130,130,160,1,VEETS,HB,old,z,./images/VEETSHB.png,,,,,,,,,,,,,,,,,,,,,,,
,,,,,,,,,,,,,,,,,199513,18,2022-01-29_14h09.39.938,lexical_decision_task_DD_L6,2021.2.3,MacIntel,60.0024001,,,,,,,,,,,1.3185,1,,,,,,,,,,,,,,m,1,1.3185,,,,,,,,-0.040155097,-0.408038873,0,0,0,,0,131,131,63,1,BAKER,LB,old,m,./images/BAKERLB.png,,,,,,,,,,,,,,,,,,,,,,,
,,,,,,,,,,,,,,,,,199513,18,2022-01-29_14h09.39.938,lexical_decision_task_DD_L6,2021.2.3,MacIntel,60.0024001,,,,,,,,,,,0.7175,1,,,,,,,,,,,,,,m,1,0.7175,,,,,,,,-0.040155097,-0.408038873,0,0,0,,0,132,132,11,1,MEDAL,HB,old,m,./images/MEDALHB.png,,,,,,,,,,,,,,,,,,,,,,,
,,,,,,,,,,,,,,,,,199513,18,2022-01-29_14h09.39.938,lexical_decision_task_DD_L6,2021.2.3,MacIntel,60.0024001,,,,,,,,,,,0.9595,1,,,,,,,,,,,,,,z,1,0.9595,,,,,,,,-0.040155097,-0.408038873,0,0,0,,0,133,133,100,1,DRIBS,HB,old,z,./images/DRIBSHB.png,,,,,,,,,,,,,,,,,,,,,,,
,,,,,,,,,,,,,,,,,199513,18,2022-01-29_14h09.39.938,lexical_decision_task_DD_L6,2021.2.3,MacIntel,60.0024001,,,,,,,,,,,0.9952,1,,,,,,,,,,,,,,z,1,0.9952,,,,,,,,-0.040155097,-0.408038873,0,0,0,,0,134,134,91,1,SHENS,HB,old,z,./images/SHENSHB.png,,,,,,,,,,,,,,,,,,,,,,,
,,,,,,,,,,,,,,,,,199513,18,2022-01-29_14h09.39.938,lexical_decision_task_DD_L6,2021.2.3,MacIntel,60.0024001,,,,,,,,,,,0.685,1,,,,,,,,,,,,,,z,1,0.685,,,,,,,,-0.040155097,-0.408038873,0,0,0,,0,135,135,118,1,BAVEL,HB,old,z,./images/BAVELHB.png,,,,,,,,,,,,,,,,,,,,,,,
,,,,,,,,,,,,,,,,,199513,18,2022-01-29_14h09.39.938,lexical_decision_task_DD_L6,2021.2.3,MacIntel,60.0024001,,,,,,,,,,,0.7003,1,,,,,,,,,,,,,,z,1,0.7003,,,,,,,,-0.040155097,-0.408038873,0,0,0,,0,136,136,132,1,SCIFF,C,old,z,./images/SCIFF.png,,,,,,,,,,,,,,,,,,,,,,,
,,,,,,,,,,,,,,,,,199513,18,2022-01-29_14h09.39.938,lexical_decision_task_DD_L6,2021.2.3,MacIntel,60.0024001,,,,,,,,,,,0.5505,0,,,,,,,,,,,,,,z,0,0.5505,,,,,,,,-0.040155097,-0.408038873,0,0,0,,0,137,137,18,1,PARCEL,LB,old,m,./images/PARCELLB.png,,,,,,,,,,,,,,,,,,,,,,,
,,,,,,,,,,,,,,,,,199513,18,2022-01-29_14h09.39.938,lexical_decision_task_DD_L6,2021.2.3,MacIntel,60.0024001,,,,,,,,,,,0.6023,1,,,,,,,,,,,,,,m,1,0.6023,,,,,,,,-0.040155097,-0.408038873,0,0,0,,0,138,138,33,1,SAUNA,LB,old,m,./images/SAUNALB.png,,,,,,,,,,,,,,,,,,,,,,,
,,,,,,,,,,,,,,,,,199513,18,2022-01-29_14h09.39.938,lexical_decision_task_DD_L6,2021.2.3,MacIntel,60.0024001,,,,,,,,,,,0.7999,1,,,,,,,,,,,,,,z,1,0.7999,,,,,,,,-0.040155097,-0.408038873,0,0,0,,0,139,139,103,1,FLORT,HB,old,z,./images/FLORTHB.png,,,,,,,,,,,,,,,,,,,,,,,
,,,,,,,,,,,,,,,,,199513,18,2022-01-29_14h09.39.938,lexical_decision_task_DD_L6,2021.2.3,MacIntel,60.0024001,,,,,,,,,,,0.7246,1,,,,,,,,,,,,,,m,1,0.7246,,,,,,,,-0.040155097,-0.408038873,0,0,0,,0,140,140,59,1,BRUSH,HB,old,m,./images/BRUSHHB.png,,,,,,,,,,,,,,,,,,,,,,,
,,,,,,,,,,,,,,,,,199513,18,2022-01-29_14h09.39.938,lexical_decision_task_DD_L6,2021.2.3,MacIntel,60.0024001,,,,,,,,,,,0.6949,1,,,,,,,,,,,,,,z,1,0.6949,,,,,,,,-0.040155097,-0.408038873,0,0,0,,0,141,141,107,1,FASKS,LB,old,z,./images/FASKSLB.png,,,,,,,,,,,,,,,,,,,,,,,
,,,,,,,,,,,,,,,,,199513,18,2022-01-29_14h09.39.938,lexical_decision_task_DD_L6,2021.2.3,MacIntel,60.0024001,,,,,,,,,,,0.6861,1,,,,,,,,,,,,,,z,1,0.6861,,,,,,,,-0.040155097,-0.408038873,0,0,0,,0,142,142,165,1,TROWN,C,old,z,./images/TROWN.png,,,,,,,,,,,,,,,,,,,,,,,
,,,,,,,,,,,,,,,,,199513,18,2022-01-29_14h09.39.938,lexical_decision_task_DD_L6,2021.2.3,MacIntel,60.0024001,,,,,,,,,,,0.618,1,,,,,,,,,,,,,,z,1,0.618,,,,,,,,-0.040155097,-0.408038873,0,0,0,,0,143,143,92,1,PAIMS,LB,old,z,./images/PAIMSLB.png,,,,,,,,,,,,,,,,,,,,,,,
,,,,,,,,,,,,,,,,,199513,18,2022-01-29_14h09.39.938,lexical_decision_task_DD_L6,2021.2.3,MacIntel,60.0024001,,,,,,,,,,,0.6409,1,,,,,,,,,,,,,,m,1,0.6409,,,,,,,,-0.040155097,-0.408038873,0,0,0,,0,144,144,39,1,CANDY,LB,old,m,./images/CANDYLB.png,,,,,,,,,,,,,,,,,,,,,,,
,,,,,,,,,,,,,,,,,199513,18,2022-01-29_14h09.39.938,lexical_decision_task_DD_L6,2021.2.3,MacIntel,60.0024001,,,,,,,,,,,0.4924,1,,,,,,,,,,,,,,z,1,0.4924,,,,,,,,-0.040155097,-0.408038873,0,0,0,,0,145,145,119,1,PAFER,LB,old,z,./images/PAFERLB.png,,,,,,,,,,,,,,,,,,,,,,,
,,,,,,,,,,,,,,,,,199513,18,2022-01-29_14h09.39.938,lexical_decision_task_DD_L6,2021.2.3,MacIntel,60.0024001,,,,,,,,,,,0.6346,1,,,,,,,,,,,,,,m,1,0.6346,,,,,,,,-0.040155097,-0.408038873,0,0,0,,0,146,146,78,1,BROOM,LB,old,m,./images/BROOMLB.png,,,,,,,,,,,,,,,,,,,,,,,
,,,,,,,,,,,,,,,,,199513,18,2022-01-29_14h09.39.938,lexical_decision_task_DD_L6,2021.2.3,MacIntel,60.0024001,,,,,,,,,,,0.5794,1,,,,,,,,,,,,,,z,1,0.5794,,,,,,,,-0.040155097,-0.408038873,0,0,0,,0,147,147,152,1,FRAIN,LB,old,z,./images/FRAINLB.png,,,,,,,,,,,,,,,,,,,,,,,
,,,,,,,,,,,,,,,,,199513,18,2022-01-29_14h09.39.938,lexical_decision_task_DD_L6,2021.2.3,MacIntel,60.0024001,,,,,,,,,,,0.7351,1,,,,,,,,,,,,,,z,1,0.7351,,,,,,,,-0.040155097,-0.408038873,0,0,0,,0,148,148,94,1,BLANS,HB,old,z,./images/BLANSHB.png,,,,,,,,,,,,,,,,,,,,,,,
,,,,,,,,,,,,,,,,,199513,18,2022-01-29_14h09.39.938,lexical_decision_task_DD_L6,2021.2.3,MacIntel,60.0024001,,,,,,,,,,,0.7756,1,,,,,,,,,,,,,,m,1,0.7756,,,,,,,,-0.040155097,-0.408038873,0,0,0,,0,149,149,23,1,CLOTH,HB,old,m,./images/CLOTHHB.png,,,,,,,,,,,,,,,,,,,,,,,
,,,,,,,,,,,,,,,,,199513,18,2022-01-29_14h09.39.938,lexical_decision_task_DD_L6,2021.2.3,MacIntel,60.0024001,,,,,,,,,,,0.6347,1,,,,,,,,,,,,,,m,1,0.6347,,,,,,,,-0.040155097,-0.408038873,0,0,0,,0,150,150,14,1,FENCE,HB,old,m,./images/FENCEHB.png,,,,,,,,,,,,,,,,,,,,,,,
,,,,,,,,,,,,,,,,,199513,18,2022-01-29_14h09.39.938,lexical_decision_task_DD_L6,2021.2.3,MacIntel,60.0024001,,,,,,,,,,,0.6163,1,,,,,,,,,,,,,,z,1,0.6163,,,,,,,,-0.040155097,-0.408038873,0,0,0,,0,151,151,128,1,GRIFT,LB,old,z,./images/GRIFTLB.png,,,,,,,,,,,,,,,,,,,,,,,
,,,,,,,,,,,,,,,,,199513,18,2022-01-29_14h09.39.938,lexical_decision_task_DD_L6,2021.2.3,MacIntel,60.0024001,,,,,,,,,,,0.5743,1,,,,,,,,,,,,,,m,1,0.5743,,,,,,,,-0.040155097,-0.408038873,0,0,0,,0,152,152,81,1,DRILL,LB,old,m,./images/DRILLLB.png,,,,,,,,,,,,,,,,,,,,,,,
,,,,,,,,,,,,,,,,,199513,18,2022-01-29_14h09.39.938,lexical_decision_task_DD_L6,2021.2.3,MacIntel,60.0024001,,,,,,,,,,,0.8824,1,,,,,,,,,,,,,,m,1,0.8824,,,,,,,,-0.040155097,-0.408038873,0,0,0,,0,153,153,44,1,BASKET,HB,old,m,./images/BASKETHB.png,,,,,,,,,,,,,,,,,,,,,,,
,,,,,,,,,,,,,,,,,199513,18,2022-01-29_14h09.39.938,lexical_decision_task_DD_L6,2021.2.3,MacIntel,60.0024001,,,,,,,,,,,0.581,1,,,,,,,,,,,,,,z,1,0.581,,,,,,,,-0.040155097,-0.408038873,0,0,0,,0,154,154,123,1,SEDGE,C,old,z,./images/SEDGE.png,,,,,,,,,,,,,,,,,,,,,,,
,,,,,,,,,,,,,,,,,199513,18,2022-01-29_14h09.39.938,lexical_decision_task_DD_L6,2021.2.3,MacIntel,60.0024001,,,,,,,,,,,0.5606,1,,,,,,,,,,,,,,m,1,0.5606,,,,,,,,-0.040155097,-0.408038873,0,0,0,,0,155,155,71,1,BUBBLE,HB,old,m,./images/BUBBLEHB.png,,,,,,,,,,,,,,,,,,,,,,,
,,,,,,,,,,,,,,,,,199513,18,2022-01-29_14h09.39.938,lexical_decision_task_DD_L6,2021.2.3,MacIntel,60.0024001,,,,,,,,,,,0.9846,1,,,,,,,,,,,,,,m,1,0.9846,,,,,,,,-0.040155097,-0.408038873,0,0,0,,0,156,156,29,1,PISTOL,HB,old,m,./images/PISTOLHB.png,,,,,,,,,,,,,,,,,,,,,,,
,,,,,,,,,,,,,,,,,199513,18,2022-01-29_14h09.39.938,lexical_decision_task_DD_L6,2021.2.3,MacIntel,60.0024001,,,,,,,,,,,0.8423,1,,,,,,,,,,,,,,z,1,0.8423,,,,,,,,-0.040155097,-0.408038873,0,0,0,,0,157,157,147,1,ZOLES,C,old,z,./images/ZOLES.png,,,,,,,,,,,,,,,,,,,,,,,
,,,,,,,,,,,,,,,,,199513,18,2022-01-29_14h09.39.938,lexical_decision_task_DD_L6,2021.2.3,MacIntel,60.0024001,,,,,,,,,,,0.4866,1,,,,,,,,,,,,,,m,1,0.4866,,,,,,,,-0.040155097,-0.408038873,0,0,0,,0,158,158,64,1,BRIDE,C,old,m,./images/BRIDE.png,,,,,,,,,,,,,,,,,,,,,,,
,,,,,,,,,,,,,,,,,199513,18,2022-01-29_14h09.39.938,lexical_decision_task_DD_L6,2021.2.3,MacIntel,60.0024001,,,,,,,,,,,1.382,1,,,,,,,,,,,,,,z,1,1.382,,,,,,,,-0.040155097,-0.408038873,0,0,0,,0,159,159,108,1,GRUET,C,old,z,./images/GRUET.png,,,,,,,,,,,,,,,,,,,,,,,
,,,,,,,,,,,,,,,,,199513,18,2022-01-29_14h09.39.938,lexical_decision_task_DD_L6,2021.2.3,MacIntel,60.0024001,,,,,,,,,,,0.5149,1,,,,,,,,,,,,,,m,1,0.5149,,,,,,,,-0.040155097,-0.408038873,0,0,0,,0,160,160,46,1,MUMMY,C,old,m,./images/MUMMY.png,,,,,,,,,,,,,,,,,,,,,,,
,,,,,,,,,,,,,,,,,199513,18,2022-01-29_14h09.39.938,lexical_decision_task_DD_L6,2021.2.3,MacIntel,60.0024001,,,,,,,,,,,1.5141,1,,,,,,,,,,,,,,m,1,1.5141,,,,,,,,-0.040155097,-0.408038873,0,0,0,,0,161,161,24,1,FLESH,LB,old,m,./images/FLESHLB.png,,,,,,,,,,,,,,,,,,,,,,,
,,,,,,,,,,,,,,,,,199513,18,2022-01-29_14h09.39.938,lexical_decision_task_DD_L6,2021.2.3,MacIntel,60.0024001,,,,,,,,,,,0.5828,1,,,,,,,,,,,,,,z,1,0.5828,,,,,,,,-0.040155097,-0.408038873,0,0,0,,0,162,162,162,1,LEICH,C,old,z,./images/LEICH.png,,,,,,,,,,,,,,,,,,,,,,,
,,,,,,,,,,,,,,,,,199513,18,2022-01-29_14h09.39.938,lexical_decision_task_DD_L6,2021.2.3,MacIntel,60.0024001,,,,,,,,,,,0.4427,1,,,,,,,,,,,,,,m,1,0.4427,,,,,,,,-0.040155097,-0.408038873,0,0,0,,0,163,163,30,1,SLOPE,LB,old,m,./images/SLOPELB.png,,,,,,,,,,,,,,,,,,,,,,,
,,,,,,,,,,,,,,,,,199513,18,2022-01-29_14h09.39.938,lexical_decision_task_DD_L6,2021.2.3,MacIntel,60.0024001,,,,,,,,,,,0.5767,1,,,,,,,,,,,,,,z,1,0.5767,,,,,,,,-0.040155097,-0.408038873,0,0,0,,0,164,164,112,1,MYING,HB,old,z,./images/MYINGHB.png,,,,,,,,,,,,,,,,,,,,,,,
,,,,,,,,,,,,,,,,,199513,18,2022-01-29_14h09.39.938,lexical_decision_task_DD_L6,2021.2.3,MacIntel,60.0024001,,,,,,,,,,,0.474,1,,,,,,,,,,,,,,m,1,0.474,,,,,,,,-0.040155097,-0.408038873,0,0,0,,0,165,165,4,1,BOXER,C,old,m,./images/BOXER.png,,,,,,,,,,,,,,,,,,,,,,,
,,,,,,,,,,,,,,,,,199513,18,2022-01-29_14h09.39.938,lexical_decision_task_DD_L6,2021.2.3,MacIntel,60.0024001,,,,,,,,,,,0.6175,1,,,,,,,,,,,,,,z,1,0.6175,,,,,,,,-0.040155097,-0.408038873,0,0,0,,0,166,166,86,1,AIFED,LB,old,z,./images/AIFEDLB.png,,,,,,,,,,,,,,,,,,,,,,,
,,,,,,,,,,,,,,,,,199513,18,2022-01-29_14h09.39.938,lexical_decision_task_DD_L6,2021.2.3,MacIntel,60.0024001,,,,,,,,,,,1.3414,1,,,,,,,,,,,,,,z,1,1.3414,,,,,,,,-0.040155097,-0.408038873,0,0,0,,0,167,167,157,1,INLER,HB,old,z,./images/INLERHB.png,,,,,,,,,,,,,,,,,,,,,,,
,-0.018194173,-0.394456787,1,0,0,instr_done_button,,,,,,1,test,"In the next phase you will be presented with the words from the the first phase. Your job is to decide whether you remember seeing the word or not. If you remember seeing the word press ""old"" or type ""m"". If you do not remember seeing the word press ""new"" or type ""z"". Please press the space bar or click on continue to begin. ",,,199513,18,2022-01-29_14h09.39.938,lexical_decision_task_DD_L6,2021.2.3,MacIntel,60.0024001,,,,,,,,,,,,,,,,,,,,,,,,,,,,,,,,,,,,,,,,,,,,,,,,,,,,,,0,0,0,0,1,,,,,,,,,,,,,,,,
,-0.047390272,-0.400881958,1,0,0,instr_done_button,,,,,,1,test,"In the next phase you will be presented with the words from the the first phase. Your job is to decide whether you remember seeing the word or not. If you remember seeing the word press ""old"" or type ""m"". If you do not remember seeing the word press ""new"" or type ""z"". Please press the space bar or click on continue to begin. ",,,199513,18,2022-01-29_14h09.39.938,lexical_decision_task_DD_L6,2021.2.3,MacIntel,60.0024001,,,,,,,,,,,,,,,,,,,,,,,,,,,,,,,,,,,,,,,,,,,,,,,,,,,,,,1,0,1,0,1,,,,,,,,,,,,,,,,
,-0.043091431,-0.384210815,1,0,0,instr_done_button,,,,,,1,test,"In the next phase you will be presented with the words from the the first phase. Your job is to decide whether you remember seeing the word or not. If you remember seeing the word press ""old"" or type ""m"". If you do not remember seeing the word press ""new"" or type ""z"". Please press the space bar or click on continue to begin. ",,,199513,18,2022-01-29_14h09.39.938,lexical_decision_task_DD_L6,2021.2.3,MacIntel,60.0024001,,,,,,,,,,,,,,,,,,,,,,,,,,,,,,,,,,,,,,,,,,,,,,,,,,,,,,2,0,2,0,1,,,,,,,,,,,,,,,,
space,0.01118042,-0.231287503,0,0,0,,,,,,,1,test,"In the next phase you will be presented with the words from the the first phase. Your job is to decide whether you remember seeing the word or not. If you remember seeing the word press ""old"" or type ""m"". If you do not remember seeing the word press ""new"" or type ""z"". Please press the space bar or click on continue to begin. ",,,199513,18,2022-01-29_14h09.39.938,lexical_decision_task_DD_L6,2021.2.3,MacIntel,60.0024001,,,,,,,,,,,,,,,,,,,,,,,,,,,,,,,,,,,,,,,,,,,,,,,,,,,,,,3,0,3,0,1,15.7805,,,,,,,,,,,,,,,
,0.02532647,-0.360208266,1,0,0,instr_done_button,,,,,,1,test,"In the next phase you will be presented with the words from the the first phase. Your job is to decide whether you remember seeing the word or not. If you remember seeing the word press ""old"" or type ""m"". If you do not remember seeing the word press ""new"" or type ""z"". Please press the space bar or click on continue to begin. ",,,199513,18,2022-01-29_14h09.39.938,lexical_decision_task_DD_L6,2021.2.3,MacIntel,60.0024001,,,,,,,,,,,,,,,,,,,,,,,,,,,,,,,,,,,,,,,,,,,,,,,,,,,,,,4,0,4,0,1,,,,,,,,,,,,,,,,
,,,,,,,,,,,,,,,,,199513,18,2022-01-29_14h09.39.938,lexical_decision_task_DD_L6,2021.2.3,MacIntel,60.0024001,,,,,,,,,,,2.565,1,,,,,,,,,,,,,,,,,,,,,,,,0.044230754,-0.151334635,0,0,0,,,,,,,PEARL,C,z,y,./images/PEARL.png,,,,,,,,,z,1,2.565,,,,,,,,0,0,0,130,1
,,,,,,,,,,,,,,,,,199513,18,2022-01-29_14h09.39.938,lexical_decision_task_DD_L6,2021.2.3,MacIntel,60.0024001,,,,,,,,,,,1.1573,1,,,,,,,,,,,,,,,,,,,,,,,,0.044230754,-0.151334635,0,0,0,,,,,,,SNACK,C,z,y,./images/SNACK.png,,,,,,,,,z,1,1.1573,,,,,,,,0,1,1,157,1
,,,,,,,,,,,,,,,,,199513,18,2022-01-29_14h09.39.938,lexical_decision_task_DD_L6,2021.2.3,MacIntel,60.0024001,,,,,,,,,,,0.851,1,,,,,,,,,,,,,,,,,,,,,,,,0.044230754,-0.151334635,0,0,0,,,,,,,INFANT,C,z,y,./images/INFANT.png,,,,,,,,,z,1,0.851,,,,,,,,0,2,2,160,1
,,,,,,,,,,,,,,,,,199513,18,2022-01-29_14h09.39.938,lexical_decision_task_DD_L6,2021.2.3,MacIntel,60.0024001,,,,,,,,,,,1.3722,1,,,,,,,,,,,,,,,,,,,,,,,,0.044230754,-0.151334635,0,0,0,,,,,,,CLOUD,HB,m,y,./images/CLOUDHB.png,,,,,,,,,m,1,1.3722,,,,,,,,0,3,3,26,1
,,,,,,,,,,,,,,,,,199513,18,2022-01-29_14h09.39.938,lexical_decision_task_DD_L6,2021.2.3,MacIntel,60.0024001,,,,,,,,,,,0.9586,1,,,,,,,,,,,,,,,,,,,,,,,,0.044230754,-0.151334635,0,0,0,,,,,,,MAGGOT,LB,z,y,./images/MAGGOTLB.png,,,,,,,,,z,1,0.9586,,,,,,,,0,4,4,117,1
,,,,,,,,,,,,,,,,,199513,18,2022-01-29_14h09.39.938,lexical_decision_task_DD_L6,2021.2.3,MacIntel,60.0024001,,,,,,,,,,,0.6505,1,,,,,,,,,,,,,,,,,,,,,,,,0.044230754,-0.151334635,0,0,0,,,,,,,WHISKY,HB,m,y,./images/WHISKYHB.png,,,,,,,,,m,1,0.6505,,,,,,,,0,5,5,83,1
,,,,,,,,,,,,,,,,,199513,18,2022-01-29_14h09.39.938,lexical_decision_task_DD_L6,2021.2.3,MacIntel,60.0024001,,,,,,,,,,,0.7172,1,,,,,,,,,,,,,,,,,,,,,,,,0.044230754,-0.151334635,0,0,0,,,,,,,CANDLE,C,z,y,./images/CANDLE.png,,,,,,,,,z,1,0.7172,,,,,,,,0,6,6,145,1
,,,,,,,,,,,,,,,,,199513,18,2022-01-29_14h09.39.938,lexical_decision_task_DD_L6,2021.2.3,MacIntel,60.0024001,,,,,,,,,,,0.6506,1,,,,,,,,,,,,,,,,,,,,,,,,0.044230754,-0.151334635,0,0,0,,,,,,,CARPET,HB,z,y,./images/CARPETHB.png,,,,,,,,,z,1,0.6506,,,,,,,,0,7,7,137,1
,,,,,,,,,,,,,,,,,199513,18,2022-01-29_14h09.39.938,lexical_decision_task_DD_L6,2021.2.3,MacIntel,60.0024001,,,,,,,,,,,1.0667,1,,,,,,,,,,,,,,,,,,,,,,,,0.044230754,-0.151334635,0,0,0,,,,,,,HEATER,HB,m,y,./images/HEATERHB.png,,,,,,,,,m,1,1.0667,,,,,,,,0,8,8,56,1
,,,,,,,,,,,,,,,,,199513,18,2022-01-29_14h09.39.938,lexical_decision_task_DD_L6,2021.2.3,MacIntel,60.0024001,,,,,,,,,,,0.6239,1,,,,,,,,,,,,,,,,,,,,,,,,0.044230754,-0.151334635,0,0,0,,,,,,,PURSE,HB,z,y,./images/PURSEHB.png,,,,,,,,,z,1,0.6239,,,,,,,,0,9,9,146,1
,,,,,,,,,,,,,,,,,199513,18,2022-01-29_14h09.39.938,lexical_decision_task_DD_L6,2021.2.3,MacIntel,60.0024001,,,,,,,,,,,0.6342,1,,,,,,,,,,,,,,,,,,,,,,,,0.044230754,-0.151334635,0,0,0,,,,,,,DONKEY,C,m,y,./images/DONKEY.png,,,,,,,,,m,1,0.6342,,,,,,,,0,10,10,19,1
,,,,,,,,,,,,,,,,,199513,18,2022-01-29_14h09.39.938,lexical_decision_task_DD_L6,2021.2.3,MacIntel,60.0024001,,,,,,,,,,,0.602,1,,,,,,,,,,,,,,,,,,,,,,,,0.044230754,-0.151334635,0,0,0,,,,,,,BISHOP,C,m,y,./images/BISHOP.png,,,,,,,,,m,1,0.602,,,,,,,,0,11,11,49,1
,,,,,,,,,,,,,,,,,199513,18,2022-01-29_14h09.39.938,lexical_decision_task_DD_L6,2021.2.3,MacIntel,60.0024001,,,,,,,,,,,0.5794,1,,,,,,,,,,,,,,,,,,,,,,,,0.044230754,-0.151334635,0,0,0,,,,,,,FLASK,LB,m,y,./images/FLASKLB.png,,,,,,,,,m,1,0.5794,,,,,,,,0,12,12,72,1
,,,,,,,,,,,,,,,,,199513,18,2022-01-29_14h09.39.938,lexical_decision_task_DD_L6,2021.2.3,MacIntel,60.0024001,,,,,,,,,,,1.3109,0,,,,,,,,,,,,,,,,,,,,,,,,0.044230754,-0.151334635,0,0,0,,,,,,,FERRY,LB,m,y,./images/FERRYLB.png,,,,,,,,,z,0,1.3109,,,,,,,,0,13,13,57,1
,,,,,,,,,,,,,,,,,199513,18,2022-01-29_14h09.39.938,lexical_decision_task_DD_L6,2021.2.3,MacIntel,60.0024001,,,,,,,,,,,0.763,1,,,,,,,,,,,,,,,,,,,,,,,,0.044230754,-0.151334635,0,0,0,,,,,,,LITTER,LB,z,y,./images/LITTERLB.png,,,,,,,,,z,1,0.763,,,,,,,,0,14,14,162,1
,,,,,,,,,,,,,,,,,199513,18,2022-01-29_14h09.39.938,lexical_decision_task_DD_L6,2021.2.3,MacIntel,60.0024001,,,,,,,,,,,0.6586,1,,,,,,,,,,,,,,,,,,,,,,,,0.044230754,-0.151334635,0,0,0,,,,,,,WRIST,C,z,y,./images/WRIST.png,,,,,,,,,z,1,0.6586,,,,,,,,0,15,15,109,1
,,,,,,,,,,,,,,,,,199513,18,2022-01-29_14h09.39.938,lexical_decision_task_DD_L6,2021.2.3,MacIntel,60.0024001,,,,,,,,,,,0.6167,1,,,,,,,,,,,,,,,,,,,,,,,,0.044230754,-0.151334635,0,0,0,,,,,,,GRAPE,C,m,y,./images/GRAPE.png,,,,,,,,,m,1,0.6167,,,,,,,,0,16,16,16,1
,,,,,,,,,,,,,,,,,199513,18,2022-01-29_14h09.39.938,lexical_decision_task_DD_L6,2021.2.3,MacIntel,60.0024001,,,,,,,,,,,0.5673,1,,,,,,,,,,,,,,,,,,,,,,,,0.044230754,-0.151334635,0,0,0,,,,,,,TOMATO,LB,z,y,./images/TOMATOLB.png,,,,,,,,,z,1,0.5673,,,,,,,,0,17,17,84,1
,,,,,,,,,,,,,,,,,199513,18,2022-01-29_14h09.39.938,lexical_decision_task_DD_L6,2021.2.3,MacIntel,60.0024001,,,,,,,,,,,1.2307,0,,,,,,,,,,,,,,,,,,,,,,,,0.044230754,-0.151334635,0,0,0,,,,,,,MOTOR,C,z,y,./images/MOTOR.png,,,,,,,,,m,0,1.2307,,,,,,,,0,18,18,97,1
,,,,,,,,,,,,,,,,,199513,18,2022-01-29_14h09.39.938,lexical_decision_task_DD_L6,2021.2.3,MacIntel,60.0024001,,,,,,,,,,,1.2674,1,,,,,,,,,,,,,,,,,,,,,,,,0.044230754,-0.151334635,0,0,0,,,,,,,PAINT,C,z,y,./images/PAINT.png,,,,,,,,,z,1,1.2674,,,,,,,,0,19,19,91,1
,,,,,,,,,,,,,,,,,199513,18,2022-01-29_14h09.39.938,lexical_decision_task_DD_L6,2021.2.3,MacIntel,60.0024001,,,,,,,,,,,0.5333,1,,,,,,,,,,,,,,,,,,,,,,,,0.044230754,-0.151334635,0,0,0,,,,,,,STREAM,HB,m,y,./images/STREAMHB.png,,,,,,,,,m,1,0.5333,,,,,,,,0,20,20,41,1
,,,,,,,,,,,,,,,,,199513,18,2022-01-29_14h09.39.938,lexical_decision_task_DD_L6,2021.2.3,MacIntel,60.0024001,,,,,,,,,,,0.5594,1,,,,,,,,,,,,,,,,,,,,,,,,0.044230754,-0.151334635,0,0,0,,,,,,,BRUSH,HB,m,y,./images/BRUSHHB.png,,,,,,,,,m,1,0.5594,,,,,,,,0,21,21,59,1
,,,,,,,,,,,,,,,,,199513,18,2022-01-29_14h09.39.938,lexical_decision_task_DD_L6,2021.2.3,MacIntel,60.0024001,,,,,,,,,,,0.517,0,,,,,,,,,,,,,,,,,,,,,,,,0.044230754,-0.151334635,0,0,0,,,,,,,WALRUS,HB,z,y,./images/WALRUSHB.png,,,,,,,,,m,0,0.517,,,,,,,,0,22,22,107,1
,,,,,,,,,,,,,,,,,199513,18,2022-01-29_14h09.39.938,lexical_decision_task_DD_L6,2021.2.3,MacIntel,60.0024001,,,,,,,,,,,0.5842,1,,,,,,,,,,,,,,,,,,,,,,,,0.044230754,-0.151334635,0,0,0,,,,,,,BUBBLE,HB,m,y,./images/BUBBLEHB.png,,,,,,,,,m,1,0.5842,,,,,,,,0,23,23,71,1
,,,,,,,,,,,,,,,,,199513,18,2022-01-29_14h09.39.938,lexical_decision_task_DD_L6,2021.2.3,MacIntel,60.0024001,,,,,,,,,,,0.6508,0,,,,,,,,,,,,,,,,,,,,,,,,0.044230754,-0.151334635,0,0,0,,,,,,,BABOON,C,z,y,./images/BABOON.png,,,,,,,,,m,0,0.6508,,,,,,,,0,24,24,142,1
,,,,,,,,,,,,,,,,,199513,18,2022-01-29_14h09.39.938,lexical_decision_task_DD_L6,2021.2.3,MacIntel,60.0024001,,,,,,,,,,,1.6525,1,,,,,,,,,,,,,,,,,,,,,,,,0.044230754,-0.151334635,0,0,0,,,,,,,SKIING,HB,z,y,./images/SKIINGHB.png,,,,,,,,,z,1,1.6525,,,,,,,,0,25,25,101,1
,,,,,,,,,,,,,,,,,199513,18,2022-01-29_14h09.39.938,lexical_decision_task_DD_L6,2021.2.3,MacIntel,60.0024001,,,,,,,,,,,0.7672,1,,,,,,,,,,,,,,,,,,,,,,,,0.044230754,-0.151334635,0,0,0,,,,,,,GREASE,LB,z,y,./images/GREASELB.png,,,,,,,,,z,1,0.7672,,,,,,,,0,26,26,99,1
,,,,,,,,,,,,,,,,,199513,18,2022-01-29_14h09.39.938,lexical_decision_task_DD_L6,2021.2.3,MacIntel,60.0024001,,,,,,,,,,,0.7049,1,,,,,,,,,,,,,,,,,,,,,,,,0.044230754,-0.151334635,0,0,0,,,,,,,CHAIN,LB,m,y,./images/CHAINLB.png,,,,,,,,,m,1,0.7049,,,,,,,,0,27,27,42,1
,,,,,,,,,,,,,,,,,199513,18,2022-01-29_14h09.39.938,lexical_decision_task_DD_L6,2021.2.3,MacIntel,60.0024001,,,,,,,,,,,0.6941,1,,,,,,,,,,,,,,,,,,,,,,,,0.044230754,-0.151334635,0,0,0,,,,,,,BEARD,HB,z,y,./images/BEARDHB.png,,,,,,,,,z,1,0.6941,,,,,,,,0,28,28,86,1
,,,,,,,,,,,,,,,,,199513,18,2022-01-29_14h09.39.938,lexical_decision_task_DD_L6,2021.2.3,MacIntel,60.0024001,,,,,,,,,,,0.7836,1,,,,,,,,,,,,,,,,,,,,,,,,0.044230754,-0.151334635,0,0,0,,,,,,,DANCER,LB,m,y,./images/DANCERLB.png,,,,,,,,,m,1,0.7836,,,,,,,,0,29,29,21,1
,,,,,,,,,,,,,,,,,199513,18,2022-01-29_14h09.39.938,lexical_decision_task_DD_L6,2021.2.3,MacIntel,60.0024001,,,,,,,,,,,1.1013,0,,,,,,,,,,,,,,,,,,,,,,,,0.044230754,-0.151334635,0,0,0,,,,,,,CANDY,LB,m,y,./images/CANDYLB.png,,,,,,,,,z,0,1.1013,,,,,,,,0,30,30,39,1
,,,,,,,,,,,,,,,,,199513,18,2022-01-29_14h09.39.938,lexical_decision_task_DD_L6,2021.2.3,MacIntel,60.0024001,,,,,,,,,,,0.9601,1,,,,,,,,,,,,,,,,,,,,,,,,0.044230754,-0.151334635,0,0,0,,,,,,,MAMMAL,HB,m,y,./images/MAMMALHB.png,,,,,,,,,m,1,0.9601,,,,,,,,0,31,31,62,1
,,,,,,,,,,,,,,,,,199513,18,2022-01-29_14h09.39.938,lexical_decision_task_DD_L6,2021.2.3,MacIntel,60.0024001,,,,,,,,,,,3.5768,1,,,,,,,,,,,,,,,,,,,,,,,,0.044230754,-0.151334635,0,0,0,,,,,,,MONKEY,LB,m,y,./images/MONKEYLB.png,,,,,,,,,m,1,3.5768,,,,,,,,0,32,32,45,1
,,,,,,,,,,,,,,,,,199513,18,2022-01-29_14h09.39.938,lexical_decision_task_DD_L6,2021.2.3,MacIntel,60.0024001,,,,,,,,,,,1.4502,1,,,,,,,,,,,,,,,,,,,,,,,,0.044230754,-0.151334635,0,0,0,,,,,,,MOOSE,LB,z,y,./images/MOOSELB.png,,,,,,,,,z,1,1.4502,,,,,,,,0,33,33,141,1
,,,,,,,,,,,,,,,,,199513,18,2022-01-29_14h09.39.938,lexical_decision_task_DD_L6,2021.2.3,MacIntel,60.0024001,,,,,,,,,,,1.0507,1,,,,,,,,,,,,,,,,,,,,,,,,0.044230754,-0.151334635,0,0,0,,,,,,,MUFFIN,C,z,y,./images/MUFFIN.png,,,,,,,,,z,1,1.0507,,,,,,,,0,34,34,139,1
,,,,,,,,,,,,,,,,,199513,18,2022-01-29_14h09.39.938,lexical_decision_task_DD_L6,2021.2.3,MacIntel,60.0024001,,,,,,,,,,,0.8248,1,,,,,,,,,,,,,,,,,,,,,,,,0.044230754,-0.151334635,0,0,0,,,,,,,CANOE,C,m,y,./images/CANOE.png,,,,,,,,,m,1,0.8248,,,,,,,,0,35,35,58,1
,,,,,,,,,,,,,,,,,199513,18,2022-01-29_14h09.39.938,lexical_decision_task_DD_L6,2021.2.3,MacIntel,60.0024001,,,,,,,,,,,0.8338,0,,,,,,,,,,,,,,,,,,,,,,,,0.044230754,-0.151334635,0,0,0,,,,,,,PLANK,C,z,y,./images/PLANK.png,,,,,,,,,m,0,0.8338,,,,,,,,0,36,36,85,1
,,,,,,,,,,,,,,,,,199513,18,2022-01-29_14h09.39.938,lexical_decision_task_DD_L6,2021.2.3,MacIntel,60.0024001,,,,,,,,,,,1.0499,1,,,,,,,,,,,,,,,,,,,,,,,,0.044230754,-0.151334635,0,0,0,,,,,,,NOOSE,LB,z,y,./images/NOOSELB.png,,,,,,,,,z,1,1.0499,,,,,,,,0,37,37,156,1
,,,,,,,,,,,,,,,,,199513,18,2022-01-29_14h09.39.938,lexical_decision_task_DD_L6,2021.2.3,MacIntel,60.0024001,,,,,,,,,,,1.2771,1,,,,,,,,,,,,,,,,,,,,,,,,0.044230754,-0.151334635,0,0,0,,,,,,,STRING,HB,z,y,./images/STRINGHB.png,,,,,,,,,z,1,1.2771,,,,,,,,0,38,38,125,1
,,,,,,,,,,,,,,,,,199513,18,2022-01-29_14h09.39.938,lexical_decision_task_DD_L6,2021.2.3,MacIntel,60.0024001,,,,,,,,,,,0.9504,1,,,,,,,,,,,,,,,,,,,,,,,,0.044230754,-0.151334635,0,0,0,,,,,,,ONION,LB,z,y,./images/ONIONLB.png,,,,,,,,,z,1,0.9504,,,,,,,,0,39,39,135,1
,,,,,,,,,,,,,,,,,199513,18,2022-01-29_14h09.39.938,lexical_decision_task_DD_L6,2021.2.3,MacIntel,60.0024001,,,,,,,,,,,1.1334,1,,,,,,,,,,,,,,,,,,,,,,,,0.044230754,-0.151334635,0,0,0,,,,,,,DRILL,LB,m,y,./images/DRILLLB.png,,,,,,,,,m,1,1.1334,,,,,,,,0,40,40,81,1
,,,,,,,,,,,,,,,,,199513,18,2022-01-29_14h09.39.938,lexical_decision_task_DD_L6,2021.2.3,MacIntel,60.0024001,,,,,,,,,,,0.6596,1,,,,,,,,,,,,,,,,,,,,,,,,0.044230754,-0.151334635,0,0,0,space,,,,,,STOOL,C,m,y,./images/STOOL.png,,0.9854,,,,,,,m,1,0.6596,,,,,,,,0,41,41,43,1
,,,,,,,,,,,,,,,,,199513,18,2022-01-29_14h09.39.938,lexical_decision_task_DD_L6,2021.2.3,MacIntel,60.0024001,,,,,,,,,,,1.1131,1,,,,,,,,,,,,,,,,,,,,,,,,0.044230754,-0.151334635,0,0,0,,,,,,,BIRTH,C,z,y,./images/BIRTH.png,,,,,,,,,z,1,1.1131,,,,,,,,0,42,42,121,1
,,,,,,,,,,,,,,,,,199513,18,2022-01-29_14h09.39.938,lexical_decision_task_DD_L6,2021.2.3,MacIntel,60.0024001,,,,,,,,,,,1.0527,1,,,,,,,,,,,,,,,,,,,,,,,,0.044230754,-0.151334635,0,0,0,,,,,,,PARCEL,LB,m,y,./images/PARCELLB.png,,,,,,,,,m,1,1.0527,,,,,,,,0,43,43,18,1
,,,,,,,,,,,,,,,,,199513,18,2022-01-29_14h09.39.938,lexical_decision_task_DD_L6,2021.2.3,MacIntel,60.0024001,,,,,,,,,,,1.2639,0,,,,,,,,,,,,,,,,,,,,,,,,0.044230754,-0.151334635,0,0,0,,,,,,,CLOWN,C,m,y,./images/CLOWN.png,,,,,,,,,z,0,1.2639,,,,,,,,0,44,44,22,1
,,,,,,,,,,,,,,,,,199513,18,2022-01-29_14h09.39.938,lexical_decision_task_DD_L6,2021.2.3,MacIntel,60.0024001,,,,,,,,,,,1.2705,1,,,,,,,,,,,,,,,,,,,,,,,,0.044230754,-0.151334635,0,0,0,,,,,,,WALNUT,LB,m,y,./images/WALNUTLB.png,,,,,,,,,m,1,1.2705,,,,,,,,0,45,45,0,1
,,,,,,,,,,,,,,,,,199513,18,2022-01-29_14h09.39.938,lexical_decision_task_DD_L6,2021.2.3,MacIntel,60.0024001,,,,,,,,,,,0.6015,1,,,,,,,,,,,,,,,,,,,,,,,,0.044230754,-0.151334635,0,0,0,,,,,,,SAUCE,LB,m,y,./images/SAUCELB.png,,,,,,,,,m,1,0.6015,,,,,,,,0,46,46,51,1
,,,,,,,,,,,,,,,,,199513,18,2022-01-29_14h09.39.938,lexical_decision_task_DD_L6,2021.2.3,MacIntel,60.0024001,,,,,,,,,,,0.6846,1,,,,,,,,,,,,,,,,,,,,,,,,0.044230754,-0.151334635,0,0,0,,,,,,,BANANA,C,m,y,./images/BANANA.png,,,,,,,,,m,1,0.6846,,,,,,,,0,47,47,70,1
,,,,,,,,,,,,,,,,,199513,18,2022-01-29_14h09.39.938,lexical_decision_task_DD_L6,2021.2.3,MacIntel,60.0024001,,,,,,,,,,,1.0302,1,,,,,,,,,,,,,,,,,,,,,,,,0.044230754,-0.151334635,0,0,0,,,,,,,THROAT,LB,z,y,./images/THROATLB.png,,,,,,,,,z,1,1.0302,,,,,,,,0,48,48,120,1
,,,,,,,,,,,,,,,,,199513,18,2022-01-29_14h09.39.938,lexical_decision_task_DD_L6,2021.2.3,MacIntel,60.0024001,,,,,,,,,,,1.1347,1,,,,,,,,,,,,,,,,,,,,,,,,0.044230754,-0.151334635,0,0,0,,,,,,,GRANNY,HB,m,y,./images/GRANNYHB.png,,,,,,,,,m,1,1.1347,,,,,,,,0,49,49,20,1
,,,,,,,,,,,,,,,,,199513,18,2022-01-29_14h09.39.938,lexical_decision_task_DD_L6,2021.2.3,MacIntel,60.0024001,,,,,,,,,,,1.1007,1,,,,,,,,,,,,,,,,,,,,,,,,0.044230754,-0.151334635,0,0,0,,,,,,,COUCH,HB,z,y,./images/COUCHHB.png,,,,,,,,,z,1,1.1007,,,,,,,,0,50,50,161,1
,,,,,,,,,,,,,,,,,199513,18,2022-01-29_14h09.39.938,lexical_decision_task_DD_L6,2021.2.3,MacIntel,60.0024001,,,,,,,,,,,0.9671,1,,,,,,,,,,,,,,,,,,,,,,,,0.044230754,-0.151334635,0,0,0,,,,,,,CRADLE,HB,z,y,./images/CRADLEHB.png,,,,,,,,,z,1,0.9671,,,,,,,,0,51,51,104,1
,,,,,,,,,,,,,,,,,199513,18,2022-01-29_14h09.39.938,lexical_decision_task_DD_L6,2021.2.3,MacIntel,60.0024001,,,,,,,,,,,0.9444,1,,,,,,,,,,,,,,,,,,,,,,,,0.044230754,-0.151334635,0,0,0,,,,,,,BLOKE,LB,m,y,./images/BLOKELB.png,,,,,,,,,m,1,0.9444,,,,,,,,0,52,52,12,1
,,,,,,,,,,,,,,,,,199513,18,2022-01-29_14h09.39.938,lexical_decision_task_DD_L6,2021.2.3,MacIntel,60.0024001,,,,,,,,,,,0.8662,1,,,,,,,,,,,,,,,,,,,,,,,,0.044230754,-0.151334635,0,0,0,,,,,,,JUMPER,HB,m,y,./images/JUMPERHB.png,,,,,,,,,m,1,0.8662,,,,,,,,0,53,53,74,1
,,,,,,,,,,,,,,,,,199513,18,2022-01-29_14h09.39.938,lexical_decision_task_DD_L6,2021.2.3,MacIntel,60.0024001,,,,,,,,,,,1.1678,1,,,,,,,,,,,,,,,,,,,,,,,,0.044230754,-0.151334635,0,0,0,,,,,,,PACKET,HB,z,y,./images/PACKETHB.png,,,,,,,,,z,1,1.1678,,,,,,,,0,54,54,140,1
,,,,,,,,,,,,,,,,,199513,18,2022-01-29_14h09.39.938,lexical_decision_task_DD_L6,2021.2.3,MacIntel,60.0024001,,,,,,,,,,,0.9344,0,,,,,,,,,,,,,,,,,,,,,,,,0.044230754,-0.151334635,0,0,0,,,,,,,BUNNY,C,m,y,./images/BUNNY.png,,,,,,,,,z,0,0.9344,,,,,,,,0,55,55,13,1
,,,,,,,,,,,,,,,,,199513,18,2022-01-29_14h09.39.938,lexical_decision_task_DD_L6,2021.2.3,MacIntel,60.0024001,,,,,,,,,,,1.0764,0,,,,,,,,,,,,,,,,,,,,,,,,0.044230754,-0.151334635,0,0,0,,,,,,,BAKER,LB,m,y,./images/BAKERLB.png,,,,,,,,,z,0,1.0764,,,,,,,,0,56,56,63,1
,,,,,,,,,,,,,,,,,199513,18,2022-01-29_14h09.39.938,lexical_decision_task_DD_L6,2021.2.3,MacIntel,60.0024001,,,,,,,,,,,1.0507,1,,,,,,,,,,,,,,,,,,,,,,,,0.044230754,-0.151334635,0,0,0,,,,,,,PASTA,HB,z,y,./images/PASTAHB.png,,,,,,,,,z,1,1.0507,,,,,,,,0,57,57,89,1
,,,,,,,,,,,,,,,,,199513,18,2022-01-29_14h09.39.938,lexical_decision_task_DD_L6,2021.2.3,MacIntel,60.0024001,,,,,,,,,,,1.1841,1,,,,,,,,,,,,,,,,,,,,,,,,0.044230754,-0.151334635,0,0,0,,,,,,,CANYON,C,z,y,./images/CANYON.png,,,,,,,,,z,1,1.1841,,,,,,,,0,58,58,118,1
,,,,,,,,,,,,,,,,,199513,18,2022-01-29_14h09.39.938,lexical_decision_task_DD_L6,2021.2.3,MacIntel,60.0024001,,,,,,,,,,,0.967,1,,,,,,,,,,,,,,,,,,,,,,,,0.044230754,-0.151334635,0,0,0,,,,,,,STOVE,HB,m,y,./images/STOVEHB.png,,,,,,,,,m,1,0.967,,,,,,,,0,59,59,2,1
,,,,,,,,,,,,,,,,,199513,18,2022-01-29_14h09.39.938,lexical_decision_task_DD_L6,2021.2.3,MacIntel,60.0024001,,,,,,,,,,,1.0517,1,,,,,,,,,,,,,,,,,,,,,,,,0.044230754,-0.151334635,0,0,0,,,,,,,TORCH,HB,z,y,./images/TORCHHB.png,,,,,,,,,z,1,1.0517,,,,,,,,0,60,60,152,1
,,,,,,,,,,,,,,,,,199513,18,2022-01-29_14h09.39.938,lexical_decision_task_DD_L6,2021.2.3,MacIntel,60.0024001,,,,,,,,,,,1.6183,1,,,,,,,,,,,,,,,,,,,,,,,,0.044230754,-0.151334635,0,0,0,,,,,,,HAMMER,LB,m,y,./images/HAMMERLB.png,,,,,,,,,m,1,1.6183,,,,,,,,0,61,61,75,1
,,,,,,,,,,,,,,,,,199513,18,2022-01-29_14h09.39.938,lexical_decision_task_DD_L6,2021.2.3,MacIntel,60.0024001,,,,,,,,,,,1.0562,1,,,,,,,,,,,,,,,,,,,,,,,,0.044230754,-0.151334635,0,0,0,,,,,,,COOKER,LB,z,y,./images/COOKERLB.png,,,,,,,,,z,1,1.0562,,,,,,,,0,62,62,153,1
,,,,,,,,,,,,,,,,,199513,18,2022-01-29_14h09.39.938,lexical_decision_task_DD_L6,2021.2.3,MacIntel,60.0024001,,,,,,,,,,,0.9511,1,,,,,,,,,,,,,,,,,,,,,,,,0.044230754,-0.151334635,0,0,0,,,,,,,BARREL,HB,z,y,./images/BARRELHB.png,,,,,,,,,z,1,0.9511,,,,,,,,0,63,63,116,1
,,,,,,,,,,,,,,,,,199513,18,2022-01-29_14h09.39.938,lexical_decision_task_DD_L6,2021.2.3,MacIntel,60.0024001,,,,,,,,,,,0.7,1,,,,,,,,,,,,,,,,,,,,,,,,0.044230754,-0.151334635,0,0,0,,,,,,,COLLAR,LB,m,y,./images/COLLARLB.png,,,,,,,,,m,1,0.7,,,,,,,,0,64,64,15,1
,,,,,,,,,,,,,,,,,199513,18,2022-01-29_14h09.39.938,lexical_decision_task_DD_L6,2021.2.3,MacIntel,60.0024001,,,,,,,,,,,0.695,1,,,,,,,,,,,,,,,,,,,,,,,,0.044230754,-0.151334635,0,0,0,,,,,,,RULER,C,m,y,./images/RULER.png,,,,,,,,,m,1,0.695,,,,,,,,0,65,65,79,1
,,,,,,,,,,,,,,,,,199513,18,2022-01-29_14h09.39.938,lexical_decision_task_DD_L6,2021.2.3,MacIntel,60.0024001,,,,,,,,,,,0.7012,1,,,,,,,,,,,,,,,,,,,,,,,,0.044230754,-0.151334635,0,0,0,,,,,,,SWING,C,z,y,./images/SWING.png,,,,,,,,,z,1,0.7012,,,,,,,,0,66,66,124,1
,,,,,,,,,,,,,,,,,199513,18,2022-01-29_14h09.39.938,lexical_decision_task_DD_L6,2021.2.3,MacIntel,60.0024001,,,,,,,,,,,0.6846,1,,,,,,,,,,,,,,,,,,,,,,,,0.044230754,-0.151334635,0,0,0,,,,,,,VALLEY,HB,m,y,./images/VALLEYHB.png,,,,,,,,,m,1,0.6846,,,,,,,,0,67,67,68,1
,,,,,,,,,,,,,,,,,199513,18,2022-01-29_14h09.39.938,lexical_decision_task_DD_L6,2021.2.3,MacIntel,60.0024001,,,,,,,,,,,0.5953,1,,,,,,,,,,,,,,,,,,,,,,,,0.044230754,-0.151334635,0,0,0,,,,,,,FENCE,HB,m,y,./images/FENCEHB.png,,,,,,,,,m,1,0.5953,,,,,,,,0,68,68,14,1
,,,,,,,,,,,,,,,,,199513,18,2022-01-29_14h09.39.938,lexical_decision_task_DD_L6,2021.2.3,MacIntel,60.0024001,,,,,,,,,,,0.5506,1,,,,,,,,,,,,,,,,,,,,,,,,0.044230754,-0.151334635,0,0,0,,,,,,,PILOT,HB,m,y,./images/PILOTHB.png,,,,,,,,,m,1,0.5506,,,,,,,,0,69,69,50,1
,,,,,,,,,,,,,,,,,199513,18,2022-01-29_14h09.39.938,lexical_decision_task_DD_L6,2021.2.3,MacIntel,60.0024001,,,,,,,,,,,0.8511,1,,,,,,,,,,,,,,,,,,,,,,,,0.044230754,-0.151334635,0,0,0,,,,,,,STAIN,LB,m,y,./images/STAINLB.png,,,,,,,,,m,1,0.8511,,,,,,,,0,70,70,6,1
,,,,,,,,,,,,,,,,,199513,18,2022-01-29_14h09.39.938,lexical_decision_task_DD_L6,2021.2.3,MacIntel,60.0024001,,,,,,,,,,,1.1664,1,,,,,,,,,,,,,,,,,,,,,,,,0.044230754,-0.151334635,0,0,0,,,,,,,BANNER,C,z,y,./images/BANNER.png,,,,,,,,,z,1,1.1664,,,,,,,,0,71,71,136,1
,,,,,,,,,,,,,,,,,199513,18,2022-01-29_14h09.39.938,lexical_decision_task_DD_L6,2021.2.3,MacIntel,60.0024001,,,,,,,,,,,1.0334,1,,,,,,,,,,,,,,,,,,,,,,,,0.044230754,-0.151334635,0,0,0,,,,,,,RAZOR,C,m,y,./images/RAZOR.png,,,,,,,,,m,1,1.0334,,,,,,,,0,72,72,34,1
,,,,,,,,,,,,,,,,,199513,18,2022-01-29_14h09.39.938,lexical_decision_task_DD_L6,2021.2.3,MacIntel,60.0024001,,,,,,,,,,,0.5675,1,,,,,,,,,,,,,,,,,,,,,,,,0.044230754,-0.151334635,0,0,0,,,,,,,LAGOON,HB,m,y,./images/LAGOONHB.png,,,,,,,,,m,1,0.5675,,,,,,,,0,73,73,47,1
,,,,,,,,,,,,,,,,,199513,18,2022-01-29_14h09.39.938,lexical_decision_task_DD_L6,2021.2.3,MacIntel,60.0024001,,,,,,,,,,,0.6356,0,,,,,,,,,,,,,,,,,,,,,,,,0.044230754,-0.151334635,0,0,0,,,,,,,BRIDE,C,m,y,./images/BRIDE.png,,,,,,,,,z,0,0.6356,,,,,,,,0,74,74,64,1
,,,,,,,,,,,,,,,,,199513,18,2022-01-29_14h09.39.938,lexical_decision_task_DD_L6,2021.2.3,MacIntel,60.0024001,,,,,,,,,,,0.6355,1,,,,,,,,,,,,,,,,,,,,,,,,0.044230754,-0.151334635,0,0,0,,,,,,,SHIELD,LB,m,y,./images/SHIELDLB.png,,,,,,,,,m,1,0.6355,,,,,,,,0,75,75,48,1
,,,,,,,,,,,,,,,,,199513,18,2022-01-29_14h09.39.938,lexical_decision_task_DD_L6,2021.2.3,MacIntel,60.0024001,,,,,,,,,,,0.7679,0,,,,,,,,,,,,,,,,,,,,,,,,0.044230754,-0.151334635,0,0,0,,,,,,,SLOPE,LB,m,y,./images/SLOPELB.png,,,,,,,,,z,0,0.7679,,,,,,,,0,76,76,30,1
,,,,,,,,,,,,,,,,,199513,18,2022-01-29_14h09.39.938,lexical_decision_task_DD_L6,2021.2.3,MacIntel,60.0024001,,,,,,,,,,,0.7337,1,,,,,,,,,,,,,,,,,,,,,,,,0.044230754,-0.151334635,0,0,0,,,,,,,FOLDER,LB,z,y,./images/FOLDERLB.png,,,,,,,,,z,1,0.7337,,,,,,,,0,77,77,126,1
,,,,,,,,,,,,,,,,,199513,18,2022-01-29_14h09.39.938,lexical_decision_task_DD_L6,2021.2.3,MacIntel,60.0024001,,,,,,,,,,,0.6457,1,,,,,,,,,,,,,,,,,,,,,,,,0.044230754,-0.151334635,0,0,0,,,,,,,BOILER,LB,m,y,./images/BOILERLB.png,,,,,,,,,m,1,0.6457,,,,,,,,0,78,78,36,1
,,,,,,,,,,,,,,,,,199513,18,2022-01-29_14h09.39.938,lexical_decision_task_DD_L6,2021.2.3,MacIntel,60.0024001,,,,,,,,,,,0.569,1,,,,,,,,,,,,,,,,,,,,,,,,0.044230754,-0.151334635,0,0,0,,,,,,,TRIPOD,LB,z,y,./images/TRIPODLB.png,,,,,,,,,z,1,0.569,,,,,,,,0,79,79,138,1
,,,,,,,,,,,,,,,,,199513,18,2022-01-29_14h09.39.938,lexical_decision_task_DD_L6,2021.2.3,MacIntel,60.0024001,,,,,,,,,,,0.5672,1,,,,,,,,,,,,,,,,,,,,,,,,0.044230754,-0.151334635,0,0,0,,,,,,,SPINE,HB,m,y,./images/SPINEHB.png,,,,,,,,,m,1,0.5672,,,,,,,,0,80,80,65,1
,,,,,,,,,,,,,,,,,199513,18,2022-01-29_14h09.39.938,lexical_decision_task_DD_L6,2021.2.3,MacIntel,60.0024001,,,,,,,,,,,0.6009,1,,,,,,,,,,,,,,,,,,,,,,,,0.044230754,-0.151334635,0,0,0,,,,,,,MUMMY,C,m,y,./images/MUMMY.png,,,,,,,,,m,1,0.6009,,,,,,,,0,81,81,46,1
,,,,,,,,,,,,,,,,,199513,18,2022-01-29_14h09.39.938,lexical_decision_task_DD_L6,2021.2.3,MacIntel,60.0024001,,,,,,,,,,,0.5609,1,,,,,,,,,,,,,,,,,,,,,,,,0.044230754,-0.151334635,0,0,0,,,,,,,WAGON,C,m,y,./images/WAGON.png,,,,,,,,,m,1,0.5609,,,,,,,,0,82,82,7,1
,,,,,,,,,,,,,,,,,199513,18,2022-01-29_14h09.39.938,lexical_decision_task_DD_L6,2021.2.3,MacIntel,60.0024001,,,,,,,,,,,0.6848,1,,,,,,,,,,,,,,,,,,,,,,,,0.044230754,-0.151334635,0,0,0,space,,,,,,FALCON,C,z,y,./images/FALCON.png,,0.7649,,,,,,,z,1,0.6848,,,,,,,,0,83,83,112,1
,,,,,,,,,,,,,,,,,199513,18,2022-01-29_14h09.39.938,lexical_decision_task_DD_L6,2021.2.3,MacIntel,60.0024001,,,,,,,,,,,0.6925,1,,,,,,,,,,,,,,,,,,,,,,,,0.044230754,-0.151334635,0,0,0,,,,,,,BERRY,HB,z,y,./images/BERRYHB.png,,,,,,,,,z,1,0.6925,,,,,,,,0,84,84,131,1
,,,,,,,,,,,,,,,,,199513,18,2022-01-29_14h09.39.938,lexical_decision_task_DD_L6,2021.2.3,MacIntel,60.0024001,,,,,,,,,,,0.6145,1,,,,,,,,,,,,,,,,,,,,,,,,0.044230754,-0.151334635,0,0,0,,,,,,,PIMPLE,HB,z,y,./images/PIMPLEHB.png,,,,,,,,,z,1,0.6145,,,,,,,,0,85,85,155,1
,,,,,,,,,,,,,,,,,199513,18,2022-01-29_14h09.39.938,lexical_decision_task_DD_L6,2021.2.3,MacIntel,60.0024001,,,,,,,,,,,0.6645,1,,,,,,,,,,,,,,,,,,,,,,,,0.044230754,-0.151334635,0,0,0,,,,,,,WHEEL,HB,m,y,./images/WHEELHB.png,,,,,,,,,m,1,0.6645,,,,,,,,0,86,86,77,1
,,,,,,,,,,,,,,,,,199513,18,2022-01-29_14h09.39.938,lexical_decision_task_DD_L6,2021.2.3,MacIntel,60.0024001,,,,,,,,,,,0.6285,1,,,,,,,,,,,,,,,,,,,,,,,,0.044230754,-0.151334635,0,0,0,,,,,,,MIRROR,LB,z,y,./images/MIRRORLB.png,,,,,,,,,z,1,0.6285,,,,,,,,0,87,87,147,1
,,,,,,,,,,,,,,,,,199513,18,2022-01-29_14h09.39.938,lexical_decision_task_DD_L6,2021.2.3,MacIntel,60.0024001,,,,,,,,,,,0.5697,1,,,,,,,,,,,,,,,,,,,,,,,,0.044230754,-0.151334635,0,0,0,,,,,,,BOXER,C,m,y,./images/BOXER.png,,,,,,,,,m,1,0.5697,,,,,,,,0,88,88,4,1
,,,,,,,,,,,,,,,,,199513,18,2022-01-29_14h09.39.938,lexical_decision_task_DD_L6,2021.2.3,MacIntel,60.0024001,,,,,,,,,,,0.6611,1,,,,,,,,,,,,,,,,,,,,,,,,0.044230754,-0.151334635,0,0,0,,,,,,,DOUGH,C,z,y,./images/DOUGH.png,,,,,,,,,z,1,0.6611,,,,,,,,0,89,89,103,1
,,,,,,,,,,,,,,,,,199513,18,2022-01-29_14h09.39.938,lexical_decision_task_DD_L6,2021.2.3,MacIntel,60.0024001,,,,,,,,,,,0.5861,1,,,,,,,,,,,,,,,,,,,,,,,,0.044230754,-0.151334635,0,0,0,,,,,,,CLOTH,HB,m,y,./images/CLOTHHB.png,,,,,,,,,m,1,0.5861,,,,,,,,0,90,90,23,1
,,,,,,,,,,,,,,,,,199513,18,2022-01-29_14h09.39.938,lexical_decision_task_DD_L6,2021.2.3,MacIntel,60.0024001,,,,,,,,,,,0.615,1,,,,,,,,,,,,,,,,,,,,,,,,0.044230754,-0.151334635,0,0,0,,,,,,,MOSQUE,C,z,y,./images/MOSQUE.png,,,,,,,,,z,1,0.615,,,,,,,,0,91,91,127,1
,,,,,,,,,,,,,,,,,199513,18,2022-01-29_14h09.39.938,lexical_decision_task_DD_L6,2021.2.3,MacIntel,60.0024001,,,,,,,,,,,0.5986,1,,,,,,,,,,,,,,,,,,,,,,,,0.044230754,-0.151334635,0,0,0,,,,,,,BONNET,HB,z,y,./images/BONNETHB.png,,,,,,,,,z,1,0.5986,,,,,,,,0,92,92,95,1
,,,,,,,,,,,,,,,,,199513,18,2022-01-29_14h09.39.938,lexical_decision_task_DD_L6,2021.2.3,MacIntel,60.0024001,,,,,,,,,,,0.9936,1,,,,,,,,,,,,,,,,,,,,,,,,0.044230754,-0.151334635,0,0,0,,,,,,,SHELF,LB,z,y,./images/SHELFLB.png,,,,,,,,,z,1,0.9936,,,,,,,,0,93,93,123,1
,,,,,,,,,,,,,,,,,199513,18,2022-01-29_14h09.39.938,lexical_decision_task_DD_L6,2021.2.3,MacIntel,60.0024001,,,,,,,,,,,0.5816,0,,,,,,,,,,,,,,,,,,,,,,,,0.044230754,-0.151334635,0,0,0,,,,,,,CLIFF,HB,m,y,./images/CLIFFHB.png,,,,,,,,,z,0,0.5816,,,,,,,,0,94,94,8,1
,,,,,,,,,,,,,,,,,199513,18,2022-01-29_14h09.39.938,lexical_decision_task_DD_L6,2021.2.3,MacIntel,60.0024001,,,,,,,,,,,0.5837,1,,,,,,,,,,,,,,,,,,,,,,,,0.044230754,-0.151334635,0,0,0,,,,,,,BURIAL,HB,z,y,./images/BURIALHB.png,,,,,,,,,z,1,0.5837,,,,,,,,0,95,95,143,1
,,,,,,,,,,,,,,,,,199513,18,2022-01-29_14h09.39.938,lexical_decision_task_DD_L6,2021.2.3,MacIntel,60.0024001,,,,,,,,,,,0.7338,1,,,,,,,,,,,,,,,,,,,,,,,,0.044230754,-0.151334635,0,0,0,,,,,,,MEDAL,HB,m,y,./images/MEDALHB.png,,,,,,,,,m,1,0.7338,,,,,,,,0,96,96,11,1
,,,,,,,,,,,,,,,,,199513,18,2022-01-29_14h09.39.938,lexical_decision_task_DD_L6,2021.2.3,MacIntel,60.0024001,,,,,,,,,,,0.5169,1,,,,,,,,,,,,,,,,,,,,,,,,0.044230754,-0.151334635,0,0,0,,,,,,,SPORT,LB,z,y,./images/SPORTLB.png,,,,,,,,,z,1,0.5169,,,,,,,,0,97,97,132,1
,,,,,,,,,,,,,,,,,199513,18,2022-01-29_14h09.39.938,lexical_decision_task_DD_L6,2021.2.3,MacIntel,60.0024001,,,,,,,,,,,0.6835,1,,,,,,,,,,,,,,,,,,,,,,,,0.044230754,-0.151334635,0,0,0,,,,,,,PICKLE,HB,z,y,./images/PICKLEHB.png,,,,,,,,,z,1,0.6835,,,,,,,,0,98,98,98,1
,,,,,,,,,,,,,,,,,199513,18,2022-01-29_14h09.39.938,lexical_decision_task_DD_L6,2021.2.3,MacIntel,60.0024001,,,,,,,,,,,0.6191,0,,,,,,,,,,,,,,,,,,,,,,,,0.044230754,-0.151334635,0,0,0,,,,,,,TOWEL,C,m,y,./images/TOWEL.png,,,,,,,,,z,0,0.6191,,,,,,,,0,99,99,1,1
,,,,,,,,,,,,,,,,,199513,18,2022-01-29_14h09.39.938,lexical_decision_task_DD_L6,2021.2.3,MacIntel,60.0024001,,,,,,,,,,,0.567,1,,,,,,,,,,,,,,,,,,,,,,,,0.044230754,-0.151334635,0,0,0,,,,,,,BELLY,C,z,y,./images/BELLY.png,,,,,,,,,z,1,0.567,,,,,,,,0,100,100,94,1
,,,,,,,,,,,,,,,,,199513,18,2022-01-29_14h09.39.938,lexical_decision_task_DD_L6,2021.2.3,MacIntel,60.0024001,,,,,,,,,,,0.7281,0,,,,,,,,,,,,,,,,,,,,,,,,0.044230754,-0.151334635,0,0,0,,,,,,,STATUE,LB,m,y,./images/STATUELB.png,,,,,,,,,z,0,0.7281,,,,,,,,0,101,101,66,1
,,,,,,,,,,,,,,,,,199513,18,2022-01-29_14h09.39.938,lexical_decision_task_DD_L6,2021.2.3,MacIntel,60.0024001,,,,,,,,,,,0.5501,1,,,,,,,,,,,,,,,,,,,,,,,,0.044230754,-0.151334635,0,0,0,,,,,,,PEBBLE,C,m,y,./images/PEBBLE.png,,,,,,,,,m,1,0.5501,,,,,,,,0,102,102,82,1
,,,,,,,,,,,,,,,,,199513,18,2022-01-29_14h09.39.938,lexical_decision_task_DD_L6,2021.2.3,MacIntel,60.0024001,,,,,,,,,,,0.8811,1,,,,,,,,,,,,,,,,,,,,,,,,0.044230754,-0.151334635,0,0,0,,,,,,,LADDER,HB,z,y,./images/LADDERHB.png,,,,,,,,,z,1,0.8811,,,,,,,,0,103,103,122,1
,,,,,,,,,,,,,,,,,199513,18,2022-01-29_14h09.39.938,lexical_decision_task_DD_L6,2021.2.3,MacIntel,60.0024001,,,,,,,,,,,0.701,0,,,,,,,,,,,,,,,,,,,,,,,,0.044230754,-0.151334635,0,0,0,,,,,,,CASINO,C,m,y,./images/CASINO.png,,,,,,,,,z,0,0.701,,,,,,,,0,104,104,28,1
,,,,,,,,,,,,,,,,,199513,18,2022-01-29_14h09.39.938,lexical_decision_task_DD_L6,2021.2.3,MacIntel,60.0024001,,,,,,,,,,,0.8671,1,,,,,,,,,,,,,,,,,,,,,,,,0.044230754,-0.151334635,0,0,0,,,,,,,SWEAT,LB,z,y,./images/SWEATLB.png,,,,,,,,,z,1,0.8671,,,,,,,,0,105,105,150,1
,,,,,,,,,,,,,,,,,199513,18,2022-01-29_14h09.39.938,lexical_decision_task_DD_L6,2021.2.3,MacIntel,60.0024001,,,,,,,,,,,0.835,1,,,,,,,,,,,,,,,,,,,,,,,,0.044230754,-0.151334635,0,0,0,,,,,,,POODLE,LB,z,y,./images/POODLELB.png,,,,,,,,,z,1,0.835,,,,,,,,0,106,106,165,1
,,,,,,,,,,,,,,,,,199513,18,2022-01-29_14h09.39.938,lexical_decision_task_DD_L6,2021.2.3,MacIntel,60.0024001,,,,,,,,,,,0.9165,0,,,,,,,,,,,,,,,,,,,,,,,,0.044230754,-0.151334635,0,0,0,,,,,,,GLOVE,C,m,y,./images/GLOVE.png,,,,,,,,,z,0,0.9165,,,,,,,,0,107,107,73,1
,,,,,,,,,,,,,,,,,199513,18,2022-01-29_14h09.39.938,lexical_decision_task_DD_L6,2021.2.3,MacIntel,60.0024001,,,,,,,,,,,0.6336,1,,,,,,,,,,,,,,,,,,,,,,,,0.044230754,-0.151334635,0,0,0,,,,,,,SMOKER,HB,z,y,./images/SMOKERHB.png,,,,,,,,,z,1,0.6336,,,,,,,,0,108,108,110,1
,,,,,,,,,,,,,,,,,199513,18,2022-01-29_14h09.39.938,lexical_decision_task_DD_L6,2021.2.3,MacIntel,60.0024001,,,,,,,,,,,0.8435,1,,,,,,,,,,,,,,,,,,,,,,,,0.044230754,-0.151334635,0,0,0,,,,,,,BASKET,HB,m,y,./images/BASKETHB.png,,,,,,,,,m,1,0.8435,,,,,,,,0,109,109,44,1
,,,,,,,,,,,,,,,,,199513,18,2022-01-29_14h09.39.938,lexical_decision_task_DD_L6,2021.2.3,MacIntel,60.0024001,,,,,,,,,,,0.6332,0,,,,,,,,,,,,,,,,,,,,,,,,0.044230754,-0.151334635,0,0,0,,,,,,,BROOM,LB,m,y,./images/BROOMLB.png,,,,,,,,,z,0,0.6332,,,,,,,,0,110,110,78,1
,,,,,,,,,,,,,,,,,199513,18,2022-01-29_14h09.39.938,lexical_decision_task_DD_L6,2021.2.3,MacIntel,60.0024001,,,,,,,,,,,0.616,1,,,,,,,,,,,,,,,,,,,,,,,,0.044230754,-0.151334635,0,0,0,,,,,,,CHALK,C,m,y,./images/CHALK.png,,,,,,,,,m,1,0.616,,,,,,,,0,111,111,25,1
,,,,,,,,,,,,,,,,,199513,18,2022-01-29_14h09.39.938,lexical_decision_task_DD_L6,2021.2.3,MacIntel,60.0024001,,,,,,,,,,,0.7781,1,,,,,,,,,,,,,,,,,,,,,,,,0.044230754,-0.151334635,0,0,0,,,,,,,ALLEY,C,m,y,./images/ALLEY.png,,,,,,,,,m,1,0.7781,,,,,,,,0,112,112,55,1
,,,,,,,,,,,,,,,,,199513,18,2022-01-29_14h09.39.938,lexical_decision_task_DD_L6,2021.2.3,MacIntel,60.0024001,,,,,,,,,,,0.6341,0,,,,,,,,,,,,,,,,,,,,,,,,0.044230754,-0.151334635,0,0,0,,,,,,,PLANET,HB,m,y,./images/PLANETHB.png,,,,,,,,,z,0,0.6341,,,,,,,,0,113,113,80,1
,,,,,,,,,,,,,,,,,199513,18,2022-01-29_14h09.39.938,lexical_decision_task_DD_L6,2021.2.3,MacIntel,60.0024001,,,,,,,,,,,0.7328,1,,,,,,,,,,,,,,,,,,,,,,,,0.044230754,-0.151334635,0,0,0,,,,,,,PEACH,HB,z,y,./images/PEACHHB.png,,,,,,,,,z,1,0.7328,,,,,,,,0,114,114,119,1
,,,,,,,,,,,,,,,,,199513,18,2022-01-29_14h09.39.938,lexical_decision_task_DD_L6,2021.2.3,MacIntel,60.0024001,,,,,,,,,,,0.7839,1,,,,,,,,,,,,,,,,,,,,,,,,0.044230754,-0.151334635,0,0,0,,,,,,,KIDNEY,LB,z,y,./images/KIDNEYLB.png,,,,,,,,,z,1,0.7839,,,,,,,,0,115,115,105,1
,,,,,,,,,,,,,,,,,199513,18,2022-01-29_14h09.39.938,lexical_decision_task_DD_L6,2021.2.3,MacIntel,60.0024001,,,,,,,,,,,0.6456,1,,,,,,,,,,,,,,,,,,,,,,,,0.044230754,-0.151334635,0,0,0,,,,,,,MUSCLE,C,z,y,./images/MUSCLE.png,,,,,,,,,z,1,0.6456,,,,,,,,0,116,116,88,1
,,,,,,,,,,,,,,,,,199513,18,2022-01-29_14h09.39.938,lexical_decision_task_DD_L6,2021.2.3,MacIntel,60.0024001,,,,,,,,,,,1.1998,1,,,,,,,,,,,,,,,,,,,,,,,,0.044230754,-0.151334635,0,0,0,,,,,,,GARDEN,C,m,y,./images/GARDEN.png,,,,,,,,,m,1,1.1998,,,,,,,,0,117,117,10,1
,,,,,,,,,,,,,,,,,199513,18,2022-01-29_14h09.39.938,lexical_decision_task_DD_L6,2021.2.3,MacIntel,60.0024001,,,,,,,,,,,0.6174,1,,,,,,,,,,,,,,,,,,,,,,,,0.044230754,-0.151334635,0,0,0,,,,,,,JELLY,C,z,y,./images/JELLY.png,,,,,,,,,z,1,0.6174,,,,,,,,0,118,118,148,1
,,,,,,,,,,,,,,,,,199513,18,2022-01-29_14h09.39.938,lexical_decision_task_DD_L6,2021.2.3,MacIntel,60.0024001,,,,,,,,,,,0.8338,0,,,,,,,,,,,,,,,,,,,,,,,,0.044230754,-0.151334635,0,0,0,,,,,,,FLESH,LB,m,y,./images/FLESHLB.png,,,,,,,,,z,0,0.8338,,,,,,,,0,119,119,24,1
,,,,,,,,,,,,,,,,,199513,18,2022-01-29_14h09.39.938,lexical_decision_task_DD_L6,2021.2.3,MacIntel,60.0024001,,,,,,,,,,,0.8341,1,,,,,,,,,,,,,,,,,,,,,,,,0.044230754,-0.151334635,0,0,0,,,,,,,PARADE,HB,m,y,./images/PARADEHB.png,,,,,,,,,m,1,0.8341,,,,,,,,0,120,120,17,1
,,,,,,,,,,,,,,,,,199513,18,2022-01-29_14h09.39.938,lexical_decision_task_DD_L6,2021.2.3,MacIntel,60.0024001,,,,,,,,,,,0.861,1,,,,,,,,,,,,,,,,,,,,,,,,0.044230754,-0.151334635,0,0,0,,,,,,,PENCE,C,z,y,./images/PENCE.png,,,,,,,,,z,1,0.861,,,,,,,,0,121,121,100,1
,,,,,,,,,,,,,,,,,199513,18,2022-01-29_14h09.39.938,lexical_decision_task_DD_L6,2021.2.3,MacIntel,60.0024001,,,,,,,,,,,0.7854,1,,,,,,,,,,,,,,,,,,,,,,,,0.044230754,-0.151334635,0,0,0,,,,,,,POSTER,HB,m,y,./images/POSTERHB.png,,,,,,,,,m,1,0.7854,,,,,,,,0,122,122,53,1
,,,,,,,,,,,,,,,,,199513,18,2022-01-29_14h09.39.938,lexical_decision_task_DD_L6,2021.2.3,MacIntel,60.0024001,,,,,,,,,,,0.8335,1,,,,,,,,,,,,,,,,,,,,,,,,0.044230754,-0.151334635,0,0,0,,,,,,,ARROW,LB,m,y,./images/ARROWLB.png,,,,,,,,,m,1,0.8335,,,,,,,,0,123,123,69,1
,,,,,,,,,,,,,,,,,199513,18,2022-01-29_14h09.39.938,lexical_decision_task_DD_L6,2021.2.3,MacIntel,60.0024001,,,,,,,,,,,0.6341,1,,,,,,,,,,,,,,,,,,,,,,,,0.044230754,-0.151334635,0,0,0,,,,,,,TIGER,C,m,y,./images/TIGER.png,,,,,,,,,m,1,0.6341,,,,,,,,0,124,124,37,1
,,,,,,,,,,,,,,,,,199513,18,2022-01-29_14h09.39.938,lexical_decision_task_DD_L6,2021.2.3,MacIntel,60.0024001,,,,,,,,,,,0.6663,0,,,,,,,,,,,,,,,,,,,,,,,,0.044230754,-0.151334635,0,0,0,space,,,,,,ARTIST,C,m,y,./images/ARTIST.png,,0.8016,,,,,,,z,0,0.6663,,,,,,,,0,125,125,61,1
,,,,,,,,,,,,,,,,,199513,18,2022-01-29_14h09.39.938,lexical_decision_task_DD_L6,2021.2.3,MacIntel,60.0024001,,,,,,,,,,,0.8001,0,,,,,,,,,,,,,,,,,,,,,,,,0.044230754,-0.151334635,0,0,0,,,,,,,STEAK,C,m,y,./images/STEAK.png,,,,,,,,,z,0,0.8001,,,,,,,,0,126,126,31,1
,,,,,,,,,,,,,,,,,199513,18,2022-01-29_14h09.39.938,lexical_decision_task_DD_L6,2021.2.3,MacIntel,60.0024001,,,,,,,,,,,1.1439,1,,,,,,,,,,,,,,,,,,,,,,,,0.044230754,-0.151334635,0,0,0,,,,,,,SQUARE,LB,z,y,./images/SQUARELB.png,,,,,,,,,z,1,1.1439,,,,,,,,0,127,127,90,1
,,,,,,,,,,,,,,,,,199513,18,2022-01-29_14h09.39.938,lexical_decision_task_DD_L6,2021.2.3,MacIntel,60.0024001,,,,,,,,,,,0.6837,1,,,,,,,,,,,,,,,,,,,,,,,,0.044230754,-0.151334635,0,0,0,,,,,,,MALLET,HB,z,y,./images/MALLETHB.png,,,,,,,,,z,1,0.6837,,,,,,,,0,128,128,134,1
,,,,,,,,,,,,,,,,,199513,18,2022-01-29_14h09.39.938,lexical_decision_task_DD_L6,2021.2.3,MacIntel,60.0024001,,,,,,,,,,,0.6256,1,,,,,,,,,,,,,,,,,,,,,,,,0.044230754,-0.151334635,0,0,0,,,,,,,ENGINE,HB,m,y,./images/ENGINEHB.png,,,,,,,,,m,1,0.6256,,,,,,,,0,129,129,38,1
,,,,,,,,,,,,,,,,,199513,18,2022-01-29_14h09.39.938,lexical_decision_task_DD_L6,2021.2.3,MacIntel,60.0024001,,,,,,,,,,,0.624,1,,,,,,,,,,,,,,,,,,,,,,,,0.044230754,-0.151334635,0,0,0,,,,,,,MELON,C,z,y,./images/MELON.png,,,,,,,,,z,1,0.624,,,,,,,,0,130,130,106,1
,,,,,,,,,,,,,,,,,199513,18,2022-01-29_14h09.39.938,lexical_decision_task_DD_L6,2021.2.3,MacIntel,60.0024001,,,,,,,,,,,0.6733,1,,,,,,,,,,,,,,,,,,,,,,,,0.044230754,-0.151334635,0,0,0,,,,,,,SNAKE,C,m,y,./images/SNAKE.png,,,,,,,,,m,1,0.6733,,,,,,,,0,131,131,40,1
,,,,,,,,,,,,,,,,,199513,18,2022-01-29_14h09.39.938,lexical_decision_task_DD_L6,2021.2.3,MacIntel,60.0024001,,,,,,,,,,,0.7006,1,,,,,,,,,,,,,,,,,,,,,,,,0.044230754,-0.151334635,0,0,0,,,,,,,MIDGET,C,m,y,./images/MIDGET.png,,,,,,,,,m,1,0.7006,,,,,,,,0,132,132,76,1
,,,,,,,,,,,,,,,,,199513,18,2022-01-29_14h09.39.938,lexical_decision_task_DD_L6,2021.2.3,MacIntel,60.0024001,,,,,,,,,,,0.5677,1,,,,,,,,,,,,,,,,,,,,,,,,0.044230754,-0.151334635,0,0,0,,,,,,,TWINS,LB,z,y,./images/TWINSLB.png,,,,,,,,,z,1,0.5677,,,,,,,,0,133,133,144,1
,,,,,,,,,,,,,,,,,199513,18,2022-01-29_14h09.39.938,lexical_decision_task_DD_L6,2021.2.3,MacIntel,60.0024001,,,,,,,,,,,0.6681,1,,,,,,,,,,,,,,,,,,,,,,,,0.044230754,-0.151334635,0,0,0,,,,,,,SAUNA,LB,m,y,./images/SAUNALB.png,,,,,,,,,m,1,0.6681,,,,,,,,0,134,134,33,1
,,,,,,,,,,,,,,,,,199513,18,2022-01-29_14h09.39.938,lexical_decision_task_DD_L6,2021.2.3,MacIntel,60.0024001,,,,,,,,,,,0.6462,1,,,,,,,,,,,,,,,,,,,,,,,,0.044230754,-0.151334635,0,0,0,,,,,,,DESERT,C,m,y,./images/DESERT.png,,,,,,,,,m,1,0.6462,,,,,,,,0,135,135,52,1
,,,,,,,,,,,,,,,,,199513,18,2022-01-29_14h09.39.938,lexical_decision_task_DD_L6,2021.2.3,MacIntel,60.0024001,,,,,,,,,,,0.6251,1,,,,,,,,,,,,,,,,,,,,,,,,0.044230754,-0.151334635,0,0,0,,,,,,,JAGUAR,LB,z,y,./images/JAGUARLB.png,,,,,,,,,z,1,0.6251,,,,,,,,0,136,136,102,1
,,,,,,,,,,,,,,,,,199513,18,2022-01-29_14h09.39.938,lexical_decision_task_DD_L6,2021.2.3,MacIntel,60.0024001,,,,,,,,,,,0.5858,1,,,,,,,,,,,,,,,,,,,,,,,,0.044230754,-0.151334635,0,0,0,,,,,,,PISTOL,HB,m,y,./images/PISTOLHB.png,,,,,,,,,m,1,0.5858,,,,,,,,0,137,137,29,1
,,,,,,,,,,,,,,,,,199513,18,2022-01-29_14h09.39.938,lexical_decision_task_DD_L6,2021.2.3,MacIntel,60.0024001,,,,,,,,,,,1.2277,1,,,,,,,,,,,,,,,,,,,,,,,,0.044230754,-0.151334635,0,0,0,,,,,,,POKER,C,m,y,./images/POKER.png,,,,,,,,,m,1,1.2277,,,,,,,,0,138,138,67,1
,,,,,,,,,,,,,,,,,199513,18,2022-01-29_14h09.39.938,lexical_decision_task_DD_L6,2021.2.3,MacIntel,60.0024001,,,,,,,,,,,1.1497,1,,,,,,,,,,,,,,,,,,,,,,,,0.044230754,-0.151334635,0,0,0,,,,,,,SAILOR,C,z,y,./images/SAILOR.png,,,,,,,,,z,1,1.1497,,,,,,,,0,139,139,151,1
,,,,,,,,,,,,,,,,,199513,18,2022-01-29_14h09.39.938,lexical_decision_task_DD_L6,2021.2.3,MacIntel,60.0024001,,,,,,,,,,,1.0592,1,,,,,,,,,,,,,,,,,,,,,,,,0.044230754,-0.151334635,0,0,0,,,,,,,WEASEL,HB,z,y,./images/WEASELHB.png,,,,,,,,,z,1,1.0592,,,,,,,,0,140,140,164,1
,,,,,,,,,,,,,,,,,199513,18,2022-01-29_14h09.39.938,lexical_decision_task_DD_L6,2021.2.3,MacIntel,60.0024001,,,,,,,,,,,1.0182,0,,,,,,,,,,,,,,,,,,,,,,,,0.044230754,-0.151334635,0,0,0,,,,,,,SCREW,LB,z,y,./images/SCREWLB.png,,,,,,,,,m,0,1.0182,,,,,,,,0,141,141,108,1
,,,,,,,,,,,,,,,,,199513,18,2022-01-29_14h09.39.938,lexical_decision_task_DD_L6,2021.2.3,MacIntel,60.0024001,,,,,,,,,,,0.9675,1,,,,,,,,,,,,,,,,,,,,,,,,0.044230754,-0.151334635,0,0,0,,,,,,,JUNGLE,HB,z,y,./images/JUNGLEHB.png,,,,,,,,,z,1,0.9675,,,,,,,,0,142,142,167,1
,,,,,,,,,,,,,,,,,199513,18,2022-01-29_14h09.39.938,lexical_decision_task_DD_L6,2021.2.3,MacIntel,60.0024001,,,,,,,,,,,0.8279,1,,,,,,,,,,,,,,,,,,,,,,,,0.044230754,-0.151334635,0,0,0,,,,,,,RHINO,LB,z,y,./images/RHINOLB.png,,,,,,,,,z,1,0.8279,,,,,,,,0,143,143,93,1
,,,,,,,,,,,,,,,,,199513,18,2022-01-29_14h09.39.938,lexical_decision_task_DD_L6,2021.2.3,MacIntel,60.0024001,,,,,,,,,,,0.883,1,,,,,,,,,,,,,,,,,,,,,,,,0.044230754,-0.151334635,0,0,0,,,,,,,FARMER,HB,z,y,./images/FARMERHB.png,,,,,,,,,z,1,0.883,,,,,,,,0,144,144,149,1
,,,,,,,,,,,,,,,,,199513,18,2022-01-29_14h09.39.938,lexical_decision_task_DD_L6,2021.2.3,MacIntel,60.0024001,,,,,,,,,,,0.8476,1,,,,,,,,,,,,,,,,,,,,,,,,0.044230754,-0.151334635,0,0,0,,,,,,,SUNSET,C,z,y,./images/SUNSET.png,,,,,,,,,z,1,0.8476,,,,,,,,0,145,145,166,1
,,,,,,,,,,,,,,,,,199513,18,2022-01-29_14h09.39.938,lexical_decision_task_DD_L6,2021.2.3,MacIntel,60.0024001,,,,,,,,,,,1.0839,1,,,,,,,,,,,,,,,,,,,,,,,,0.044230754,-0.151334635,0,0,0,,,,,,,CRATER,LB,m,y,./images/CRATERLB.png,,,,,,,,,m,1,1.0839,,,,,,,,0,146,146,3,1
,,,,,,,,,,,,,,,,,199513,18,2022-01-29_14h09.39.938,lexical_decision_task_DD_L6,2021.2.3,MacIntel,60.0024001,,,,,,,,,,,0.9509,1,,,,,,,,,,,,,,,,,,,,,,,,0.044230754,-0.151334635,0,0,0,,,,,,,SHORE,LB,z,y,./images/SHORELB.png,,,,,,,,,z,1,0.9509,,,,,,,,0,147,147,96,1
,,,,,,,,,,,,,,,,,199513,18,2022-01-29_14h09.39.938,lexical_decision_task_DD_L6,2021.2.3,MacIntel,60.0024001,,,,,,,,,,,0.934,1,,,,,,,,,,,,,,,,,,,,,,,,0.044230754,-0.151334635,0,0,0,,,,,,,BAMBOO,HB,m,y,./images/BAMBOOHB.png,,,,,,,,,m,1,0.934,,,,,,,,0,148,148,5,1
,,,,,,,,,,,,,,,,,199513,18,2022-01-29_14h09.39.938,lexical_decision_task_DD_L6,2021.2.3,MacIntel,60.0024001,,,,,,,,,,,0.9168,1,,,,,,,,,,,,,,,,,,,,,,,,0.044230754,-0.151334635,0,0,0,,,,,,,KITTEN,LB,z,y,./images/KITTENLB.png,,,,,,,,,z,1,0.9168,,,,,,,,0,149,149,129,1
,,,,,,,,,,,,,,,,,199513,18,2022-01-29_14h09.39.938,lexical_decision_task_DD_L6,2021.2.3,MacIntel,60.0024001,,,,,,,,,,,1.0452,1,,,,,,,,,,,,,,,,,,,,,,,,0.044230754,-0.151334635,0,0,0,,,,,,,QUILL,C,z,y,./images/QUILL.png,,,,,,,,,z,1,1.0452,,,,,,,,0,150,150,115,1
,,,,,,,,,,,,,,,,,199513,18,2022-01-29_14h09.39.938,lexical_decision_task_DD_L6,2021.2.3,MacIntel,60.0024001,,,,,,,,,,,0.8997,1,,,,,,,,,,,,,,,,,,,,,,,,0.044230754,-0.151334635,0,0,0,,,,,,,LIZARD,HB,z,y,./images/LIZARDHB.png,,,,,,,,,z,1,0.8997,,,,,,,,0,151,151,128,1
,,,,,,,,,,,,,,,,,199513,18,2022-01-29_14h09.39.938,lexical_decision_task_DD_L6,2021.2.3,MacIntel,60.0024001,,,,,,,,,,,0.7593,1,,,,,,,,,,,,,,,,,,,,,,,,0.044230754,-0.151334635,0,0,0,,,,,,,CEMENT,HB,z,y,./images/CEMENTHB.png,,,,,,,,,z,1,0.7593,,,,,,,,0,152,152,158,1
,,,,,,,,,,,,,,,,,199513,18,2022-01-29_14h09.39.938,lexical_decision_task_DD_L6,2021.2.3,MacIntel,60.0024001,,,,,,,,,,,0.7006,1,,,,,,,,,,,,,,,,,,,,,,,,0.044230754,-0.151334635,0,0,0,,,,,,,URINE,C,z,y,./images/URINE.png,,,,,,,,,z,1,0.7006,,,,,,,,0,153,153,154,1
,,,,,,,,,,,,,,,,,199513,18,2022-01-29_14h09.39.938,lexical_decision_task_DD_L6,2021.2.3,MacIntel,60.0024001,,,,,,,,,,,1.3319,1,,,,,,,,,,,,,,,,,,,,,,,,0.044230754,-0.151334635,0,0,0,,,,,,,CHERRY,LB,m,y,./images/CHERRYLB.png,,,,,,,,,m,1,1.3319,,,,,,,,0,154,154,54,1
,,,,,,,,,,,,,,,,,199513,18,2022-01-29_14h09.39.938,lexical_decision_task_DD_L6,2021.2.3,MacIntel,60.0024001,,,,,,,,,,,0.9158,1,,,,,,,,,,,,,,,,,,,,,,,,0.044230754,-0.151334635,0,0,0,,,,,,,FINGER,LB,z,y,./images/FINGERLB.png,,,,,,,,,z,1,0.9158,,,,,,,,0,155,155,87,1
,,,,,,,,,,,,,,,,,199513,18,2022-01-29_14h09.39.938,lexical_decision_task_DD_L6,2021.2.3,MacIntel,60.0024001,,,,,,,,,,,0.799,1,,,,,,,,,,,,,,,,,,,,,,,,0.044230754,-0.151334635,0,0,0,,,,,,,ATTIC,LB,z,y,./images/ATTICLB.png,,,,,,,,,z,1,0.799,,,,,,,,0,156,156,111,1
,,,,,,,,,,,,,,,,,199513,18,2022-01-29_14h09.39.938,lexical_decision_task_DD_L6,2021.2.3,MacIntel,60.0024001,,,,,,,,,,,0.951,1,,,,,,,,,,,,,,,,,,,,,,,,0.044230754,-0.151334635,0,0,0,,,,,,,LLAMA,HB,m,y,./images/LLAMAHB.png,,,,,,,,,m,1,0.951,,,,,,,,0,157,157,35,1
,,,,,,,,,,,,,,,,,199513,18,2022-01-29_14h09.39.938,lexical_decision_task_DD_L6,2021.2.3,MacIntel,60.0024001,,,,,,,,,,,0.8836,1,,,,,,,,,,,,,,,,,,,,,,,,0.044230754,-0.151334635,0,0,0,,,,,,,TULIP,HB,z,y,./images/TULIPHB.png,,,,,,,,,z,1,0.8836,,,,,,,,0,158,158,92,1
,,,,,,,,,,,,,,,,,199513,18,2022-01-29_14h09.39.938,lexical_decision_task_DD_L6,2021.2.3,MacIntel,60.0024001,,,,,,,,,,,0.8349,1,,,,,,,,,,,,,,,,,,,,,,,,0.044230754,-0.151334635,0,0,0,,,,,,,CRUST,C,z,y,./images/CRUST.png,,,,,,,,,z,1,0.8349,,,,,,,,0,159,159,163,1
,,,,,,,,,,,,,,,,,199513,18,2022-01-29_14h09.39.938,lexical_decision_task_DD_L6,2021.2.3,MacIntel,60.0024001,,,,,,,,,,,1.2592,1,,,,,,,,,,,,,,,,,,,,,,,,0.044230754,-0.151334635,0,0,0,,,,,,,BUTTER,LB,m,y,./images/BUTTERLB.png,,,,,,,,,m,1,1.2592,,,,,,,,0,160,160,27,1
,,,,,,,,,,,,,,,,,199513,18,2022-01-29_14h09.39.938,lexical_decision_task_DD_L6,2021.2.3,MacIntel,60.0024001,,,,,,,,,,,0.7833,1,,,,,,,,,,,,,,,,,,,,,,,,0.044230754,-0.151334635,0,0,0,,,,,,,CURRY,LB,m,y,./images/CURRYLB.png,,,,,,,,,m,1,0.7833,,,,,,,,0,161,161,60,1
,,,,,,,,,,,,,,,,,199513,18,2022-01-29_14h09.39.938,lexical_decision_task_DD_L6,2021.2.3,MacIntel,60.0024001,,,,,,,,,,,0.942,1,,,,,,,,,,,,,,,,,,,,,,,,0.044230754,-0.151334635,0,0,0,,,,,,,STORM,LB,z,y,./images/STORMLB.png,,,,,,,,,z,1,0.942,,,,,,,,0,162,162,114,1
,,,,,,,,,,,,,,,,,199513,18,2022-01-29_14h09.39.938,lexical_decision_task_DD_L6,2021.2.3,MacIntel,60.0024001,,,,,,,,,,,0.7503,1,,,,,,,,,,,,,,,,,,,,,,,,0.044230754,-0.151334635,0,0,0,,,,,,,HOCKEY,HB,m,y,./images/HOCKEYHB.png,,,,,,,,,m,1,0.7503,,,,,,,,0,163,163,32,1
,,,,,,,,,,,,,,,,,199513,18,2022-01-29_14h09.39.938,lexical_decision_task_DD_L6,2021.2.3,MacIntel,60.0024001,,,,,,,,,,,0.8174,1,,,,,,,,,,,,,,,,,,,,,,,,0.044230754,-0.151334635,0,0,0,,,,,,,DIVER,LB,m,y,./images/DIVERLB.png,,,,,,,,,m,1,0.8174,,,,,,,,0,164,164,9,1
,,,,,,,,,,,,,,,,,199513,18,2022-01-29_14h09.39.938,lexical_decision_task_DD_L6,2021.2.3,MacIntel,60.0024001,,,,,,,,,,,1.1047,1,,,,,,,,,,,,,,,,,,,,,,,,0.044230754,-0.151334635,0,0,0,,,,,,,CRUMB,HB,z,y,./images/CRUMBHB.png,,,,,,,,,z,1,1.1047,,,,,,,,0,165,165,113,1
,,,,,,,,,,,,,,,,,199513,18,2022-01-29_14h09.39.938,lexical_decision_task_DD_L6,2021.2.3,MacIntel,60.0024001,,,,,,,,,,,0.8969,1,,,,,,,,,,,,,,,,,,,,,,,,0.044230754,-0.151334635,0,0,0,,,,,,,DRUMS,C,z,y,./images/DRUMS.png,,,,,,,,,z,1,0.8969,,,,,,,,0,166,166,133,1
,,,,,,,,,,,,,,,,,199513,18,2022-01-29_14h09.39.938,lexical_decision_task_DD_L6,2021.2.3,MacIntel,60.0024001,,,,,,,,,,,0.9156,1,,,,,,,,,,,,,,,,,,,,,,,,0.044230754,-0.151334635,0,0,0,,,,,,,GRAIN,LB,z,y,./images/GRAINLB.png,,,,,,,,,z,1,0.9156,,,,,,,,0,167,167,159,1
