key_resp.keys,instr_done_touch.x,instr_done_touch.y,instr_done_touch.leftButton,instr_done_touch.midButton,instr_done_touch.rightButton,instr_done_touch.clicked_name,instruction_pages.thisRepN,instruction_pages.thisTrialN,instruction_pages.thisN,instruction_pages.thisIndex,instruction_pages.ran,pageN,phase,instruct_text,has_image,instruct_image,participant,age,date,expName,psychopyVersion,OS,frameRate,key_resp.rt,response.keys,response.corr,response.rt,touch_resp.x,touch_resp.y,touch_resp.leftButton,touch_resp.midButton,touch_resp.rightButton,touch_resp.time,touch_resp.clicked_name,rt,corr,practrials.thisRepN,practrials.thisTrialN,practrials.thisN,practrials.thisIndex,practrials.ran,TrialID,Target,corrAns,end_of_practice_trials_pages.thisRepN,end_of_practice_trials_pages.thisTrialN,end_of_practice_trials_pages.thisN,end_of_practice_trials_pages.thisIndex,end_of_practice_trials_pages.ran,key_resp_2.keys,key_resp_2.corr,key_resp_2.rt,targ_click.x,targ_click.y,targ_click.leftButton,targ_click.midButton,targ_click.rightButton,targ_click.time,targ_click.clicked_name,break_done_touch.x,break_done_touch.y,break_done_touch.leftButton,break_done_touch.midButton,break_done_touch.rightButton,break_done_keyboard.keys,maintrials.thisRepN,maintrials.thisTrialN,maintrials.thisN,maintrials.thisIndex,maintrials.ran,string,blur,study,lex,stim_path,break_done_keyboard.rt,break_done_touch.clicked_name,test_instructions.thisRepN,test_instructions.thisTrialN,test_instructions.thisN,test_instructions.thisIndex,test_instructions.ran,key_resp_3.keys,key_resp_3.corr,key_resp_3.rt,test_click.x,test_click.y,test_click.leftButton,test_click.midButton,test_click.rightButton,test_click.time,test_click.clicked_name,test_phase.thisRepN,test_phase.thisTrialN,test_phase.thisN,test_phase.thisIndex,test_phase.ran
,0.122222222,-0.384444444,1,0,0,instr_done_button,0,0,0,0,1,1,instructions,"INSTRUCTIONS
At the start of each trial, look at the plus sign  (+) in the center of the screen.  This tells you that a trial is about to begin and where to look. Second, the plus sign will disappear and a string of letters will appear. Your task is to determine if the string of letters is a word or not. If the item is a word press the M key (on keyboard)  or touch the word button (phone/tablet).  If the item is not a word,  press the  Z key (on keyboard)  or touch the nonword button (on phone/tablet). 
Press the space bar or touch  continue.",0,,199555,18,2022-01-28_15h59.58.447,lexical_decision_task_DD_L5,2021.2.3,MacIntel,66.66666667,,,,,,,,,,,,,,,,,,,,,,,,,,,,,,,,,,,,,,,,,,,,,,,,,,,,,,,,,,,,,,,,,,,,,,,,,,
space,0.177777778,-0.246666667,0,0,0,,0,1,1,1,1,2,instructions,"If your device has a keyboard, press the 'Z' key for nonwords and the 'M' key for words.





Press the space bar or touch the button below to continue.",0,keyboard-example.gif,199555,18,2022-01-28_15h59.58.447,lexical_decision_task_DD_L5,2021.2.3,MacIntel,66.66666667,93.021,,,,,,,,,,,,,,,,,,,,,,,,,,,,,,,,,,,,,,,,,,,,,,,,,,,,,,,,,,,,,,,,,,,,,,,,,
space,0.167777778,-0.217777778,0,0,0,,0,2,2,2,1,3,instructions,"If you are using a touchscreen only device, use the buttons on the screen. Do not use the mouse.





Press the space bar or touch the button below to continue.",0,touchscreen-example.gif,199555,18,2022-01-28_15h59.58.447,lexical_decision_task_DD_L5,2021.2.3,MacIntel,66.66666667,15.467,,,,,,,,,,,,,,,,,,,,,,,,,,,,,,,,,,,,,,,,,,,,,,,,,,,,,,,,,,,,,,,,,,,,,,,,,
space,0.167777778,-0.217777778,0,0,0,,0,3,3,3,1,4,instructions,"It is very important that you respond as quickly and accurately as possible, as each letter string will only be on the screen for two seconds. If you do not respond within this time, the message 'Too slow!' will be displayed and the experiment will progress to the next letter string. The first 20 trials will be practice trials and you will receive feedback on your answers. 

Press the space bar or touch the button below to start the practice trials.",0,,199555,18,2022-01-28_15h59.58.447,lexical_decision_task_DD_L5,2021.2.3,MacIntel,66.66666667,16.188,,,,,,,,,,,,,,,,,,,,,,,,,,,,,,,,,,,,,,,,,,,,,,,,,,,,,,,,,,,,,,,,,,,,,,,,,
,,,,,,,,,,,,,,,,,199555,18,2022-01-28_15h59.58.447,lexical_decision_task_DD_L5,2021.2.3,MacIntel,66.66666667,,z,1,0.778,,,,,,,,0.778,1,0,0,0,15,1,1001,WHAISE,z,,,,,,,,,,,,,,,,,,,,,,,,,,,,,,,,,,,,,,,,,,,,,,,,,,,,,
,,,,,,,,,,,,,,,,,199555,18,2022-01-28_15h59.58.447,lexical_decision_task_DD_L5,2021.2.3,MacIntel,66.66666667,,m,1,0.629,,,,,,,,0.629,1,0,1,1,5,1,1001,OBTAIN,m,,,,,,,,,,,,,,,,,,,,,,,,,,,,,,,,,,,,,,,,,,,,,,,,,,,,,
,,,,,,,,,,,,,,,,,199555,18,2022-01-28_15h59.58.447,lexical_decision_task_DD_L5,2021.2.3,MacIntel,66.66666667,,m,1,0.764,,,,,,,,0.764,1,0,2,2,0,1,1001,UTOPIA,m,,,,,,,,,,,,,,,,,,,,,,,,,,,,,,,,,,,,,,,,,,,,,,,,,,,,,
,,,,,,,,,,,,,,,,,199555,18,2022-01-28_15h59.58.447,lexical_decision_task_DD_L5,2021.2.3,MacIntel,66.66666667,,z,1,0.796,,,,,,,,0.796,1,0,3,3,13,1,1001,ROUPET,z,,,,,,,,,,,,,,,,,,,,,,,,,,,,,,,,,,,,,,,,,,,,,,,,,,,,,
,,,,,,,,,,,,,,,,,199555,18,2022-01-28_15h59.58.447,lexical_decision_task_DD_L5,2021.2.3,MacIntel,66.66666667,,z,1,0.67,,,,,,,,0.67,1,0,4,4,14,1,1001,THRALE,z,,,,,,,,,,,,,,,,,,,,,,,,,,,,,,,,,,,,,,,,,,,,,,,,,,,,,
,,,,,,,,,,,,,,,,,199555,18,2022-01-28_15h59.58.447,lexical_decision_task_DD_L5,2021.2.3,MacIntel,66.66666667,,m,1,0.55,,,,,,,,0.55,1,0,5,5,7,1,1001,VOLUME,m,,,,,,,,,,,,,,,,,,,,,,,,,,,,,,,,,,,,,,,,,,,,,,,,,,,,,
,,,,,,,,,,,,,,,,,199555,18,2022-01-28_15h59.58.447,lexical_decision_task_DD_L5,2021.2.3,MacIntel,66.66666667,,z,1,0.753,,,,,,,,0.753,1,0,6,6,10,1,1001,INLADE,z,,,,,,,,,,,,,,,,,,,,,,,,,,,,,,,,,,,,,,,,,,,,,,,,,,,,,
,,,,,,,,,,,,,,,,,199555,18,2022-01-28_15h59.58.447,lexical_decision_task_DD_L5,2021.2.3,MacIntel,66.66666667,,z,1,0.58,,,,,,,,0.58,1,0,7,7,8,1,1001,ASLERT,z,,,,,,,,,,,,,,,,,,,,,,,,,,,,,,,,,,,,,,,,,,,,,,,,,,,,,
,,,,,,,,,,,,,,,,,199555,18,2022-01-28_15h59.58.447,lexical_decision_task_DD_L5,2021.2.3,MacIntel,66.66666667,,m,1,0.562,,,,,,,,0.562,1,0,8,8,6,1,1001,ZOMBIE,m,,,,,,,,,,,,,,,,,,,,,,,,,,,,,,,,,,,,,,,,,,,,,,,,,,,,,
,,,,,,,,,,,,,,,,,199555,18,2022-01-28_15h59.58.447,lexical_decision_task_DD_L5,2021.2.3,MacIntel,66.66666667,,m,0,0.888,,,,,,,,0.888,0,0,9,9,12,1,1001,SPRINY,z,,,,,,,,,,,,,,,,,,,,,,,,,,,,,,,,,,,,,,,,,,,,,,,,,,,,,
,,,,,,,,,,,,,,,,,199555,18,2022-01-28_15h59.58.447,lexical_decision_task_DD_L5,2021.2.3,MacIntel,66.66666667,,z,1,2.18,,,,,,,,2.18,1,0,10,10,9,1,1001,FARINY,z,,,,,,,,,,,,,,,,,,,,,,,,,,,,,,,,,,,,,,,,,,,,,,,,,,,,,
,,,,,,,,,,,,,,,,,199555,18,2022-01-28_15h59.58.447,lexical_decision_task_DD_L5,2021.2.3,MacIntel,66.66666667,,m,1,0.749,,,,,,,,0.749,1,0,11,11,3,1,1001,MATRIX,m,,,,,,,,,,,,,,,,,,,,,,,,,,,,,,,,,,,,,,,,,,,,,,,,,,,,,
,,,,,,,,,,,,,,,,,199555,18,2022-01-28_15h59.58.447,lexical_decision_task_DD_L5,2021.2.3,MacIntel,66.66666667,,m,1,0.533,,,,,,,,0.533,1,0,12,12,1,1,1001,ADJUST,m,,,,,,,,,,,,,,,,,,,,,,,,,,,,,,,,,,,,,,,,,,,,,,,,,,,,,
,,,,,,,,,,,,,,,,,199555,18,2022-01-28_15h59.58.447,lexical_decision_task_DD_L5,2021.2.3,MacIntel,66.66666667,,z,1,0.499,,,,,,,,0.499,1,0,13,13,11,1,1001,RASHET,z,,,,,,,,,,,,,,,,,,,,,,,,,,,,,,,,,,,,,,,,,,,,,,,,,,,,,
,,,,,,,,,,,,,,,,,199555,18,2022-01-28_15h59.58.447,lexical_decision_task_DD_L5,2021.2.3,MacIntel,66.66666667,,m,1,0.477,,,,,,,,0.477,1,0,14,14,2,1,1001,ALMOND,m,,,,,,,,,,,,,,,,,,,,,,,,,,,,,,,,,,,,,,,,,,,,,,,,,,,,,
,,,,,,,,,,,,,,,,,199555,18,2022-01-28_15h59.58.447,lexical_decision_task_DD_L5,2021.2.3,MacIntel,66.66666667,,z,0,0.546,,,,,,,,0.546,0,0,15,15,4,1,1001,SQUEAK,m,,,,,,,,,,,,,,,,,,,,,,,,,,,,,,,,,,,,,,,,,,,,,,,,,,,,,
,0.062222222,-0.4,1,0,0,instr_done_button,,,,,,1,end_of_practice,"You have completed the practice trials. During the experimental trials, you will not receive feedback. 
Before you begin, please ensure that you are in a comfortable and quiet location and will not be disturbed for about 15 minutes, as we cannot use your data if you do not complete all the trials. 
 When you are ready to start the experimental trials, please press space or touch the button below.",,,199555,18,2022-01-28_15h59.58.447,lexical_decision_task_DD_L5,2021.2.3,MacIntel,66.66666667,,,,,,,,,,,,,,,,,,,,,,0,0,0,0,1,,,,,,,,,,,,,,,,,,,,,,,,,,,,,,,,,,,,,,,,,,,,,,,,
,,,,,,,,,,,,,,,,,199555,18,2022-01-28_15h59.58.447,lexical_decision_task_DD_L5,2021.2.3,MacIntel,66.66666667,,,,,,,,,,,,1.634,0,,,,,,,,,,,,,,m,0,1.634,,,,,,,,0.062222222,-0.4,0,0,0,,0,0,0,152,1,FRAIN,LB,old,z,./images/FRAINLB.png,,,,,,,,,,,,,,,,,,,,,,
,,,,,,,,,,,,,,,,,199555,18,2022-01-28_15h59.58.447,lexical_decision_task_DD_L5,2021.2.3,MacIntel,66.66666667,,,,,,,,,,,,0.768,1,,,,,,,,,,,,,,z,1,0.768,,,,,,,,0.062222222,-0.4,0,0,0,,0,1,1,102,1,DULLE,C,old,z,./images/DULLE.png,,,,,,,,,,,,,,,,,,,,,,
,,,,,,,,,,,,,,,,,199555,18,2022-01-28_15h59.58.447,lexical_decision_task_DD_L5,2021.2.3,MacIntel,66.66666667,,,,,,,,,,,,1.202,0,,,,,,,,,,,,,,m,0,1.202,,,,,,,,0.062222222,-0.4,0,0,0,,0,2,2,133,1,POWDY,HB,old,z,./images/POWDYHB.png,,,,,,,,,,,,,,,,,,,,,,
,,,,,,,,,,,,,,,,,199555,18,2022-01-28_15h59.58.447,lexical_decision_task_DD_L5,2021.2.3,MacIntel,66.66666667,,,,,,,,,,,,0.856,1,,,,,,,,,,,,,,z,1,0.856,,,,,,,,0.062222222,-0.4,0,0,0,,0,3,3,113,1,LINEW,LB,old,z,./images/LINEWLB.png,,,,,,,,,,,,,,,,,,,,,,
,,,,,,,,,,,,,,,,,199555,18,2022-01-28_15h59.58.447,lexical_decision_task_DD_L5,2021.2.3,MacIntel,66.66666667,,,,,,,,,,,,0.777,0,,,,,,,,,,,,,,z,0,0.777,,,,,,,,0.062222222,-0.4,0,0,0,,0,4,4,38,1,ENGINE,C,old,m,./images/ENGINE.png,,,,,,,,,,,,,,,,,,,,,,
,,,,,,,,,,,,,,,,,199555,18,2022-01-28_15h59.58.447,lexical_decision_task_DD_L5,2021.2.3,MacIntel,66.66666667,,,,,,,,,,,,0.468,1,,,,,,,,,,,,,,m,1,0.468,,,,,,,,0.062222222,-0.4,0,0,0,,0,5,5,77,1,WHEEL,C,old,m,./images/WHEEL.png,,,,,,,,,,,,,,,,,,,,,,
,,,,,,,,,,,,,,,,,199555,18,2022-01-28_15h59.58.447,lexical_decision_task_DD_L5,2021.2.3,MacIntel,66.66666667,,,,,,,,,,,,0.549,1,,,,,,,,,,,,,,m,1,0.549,,,,,,,,0.062222222,-0.4,0,0,0,,0,6,6,23,1,CLOTH,C,old,m,./images/CLOTH.png,,,,,,,,,,,,,,,,,,,,,,
,,,,,,,,,,,,,,,,,199555,18,2022-01-28_15h59.58.447,lexical_decision_task_DD_L5,2021.2.3,MacIntel,66.66666667,,,,,,,,,,,,0.613,1,,,,,,,,,,,,,,m,1,0.613,,,,,,,,0.062222222,-0.4,0,0,0,,0,7,7,80,1,PLANET,C,old,m,./images/PLANET.png,,,,,,,,,,,,,,,,,,,,,,
,,,,,,,,,,,,,,,,,199555,18,2022-01-28_15h59.58.447,lexical_decision_task_DD_L5,2021.2.3,MacIntel,66.66666667,,,,,,,,,,,,0.535,0,,,,,,,,,,,,,,z,0,0.535,,,,,,,,0.062222222,-0.4,0,0,0,,0,8,8,34,1,RAZOR,LB,old,m,./images/RAZORLB.png,,,,,,,,,,,,,,,,,,,,,,
,,,,,,,,,,,,,,,,,199555,18,2022-01-28_15h59.58.447,lexical_decision_task_DD_L5,2021.2.3,MacIntel,66.66666667,,,,,,,,,,,,0.863,1,,,,,,,,,,,,,,z,1,0.863,,,,,,,,0.062222222,-0.4,0,0,0,,0,9,9,156,1,HIXES,C,old,z,./images/HIXES.png,,,,,,,,,,,,,,,,,,,,,,
,,,,,,,,,,,,,,,,,199555,18,2022-01-28_15h59.58.447,lexical_decision_task_DD_L5,2021.2.3,MacIntel,66.66666667,,,,,,,,,,,,1.233,1,,,,,,,,,,,,,,m,1,1.233,,,,,,,,0.062222222,-0.4,0,0,0,,0,10,10,3,1,CRATER,HB,old,m,./images/CRATERHB.png,,,,,,,,,,,,,,,,,,,,,,
,,,,,,,,,,,,,,,,,199555,18,2022-01-28_15h59.58.447,lexical_decision_task_DD_L5,2021.2.3,MacIntel,66.66666667,,,,,,,,,,,,0.747,1,,,,,,,,,,,,,,m,1,0.747,,,,,,,,0.062222222,-0.4,0,0,0,,0,11,11,82,1,PEBBLE,LB,old,m,./images/PEBBLELB.png,,,,,,,,,,,,,,,,,,,,,,
,,,,,,,,,,,,,,,,,199555,18,2022-01-28_15h59.58.447,lexical_decision_task_DD_L5,2021.2.3,MacIntel,66.66666667,,,,,,,,,,,,0.612,1,,,,,,,,,,,,,,m,1,0.612,,,,,,,,0.062222222,-0.4,0,0,0,,0,12,12,0,1,WALNUT,HB,old,m,./images/WALNUTHB.png,,,,,,,,,,,,,,,,,,,,,,
,,,,,,,,,,,,,,,,,199555,18,2022-01-28_15h59.58.447,lexical_decision_task_DD_L5,2021.2.3,MacIntel,66.66666667,,,,,,,,,,,,0.531,1,,,,,,,,,,,,,,m,1,0.531,,,,,,,,0.062222222,-0.4,0,0,0,,0,13,13,8,1,CLIFF,C,old,m,./images/CLIFF.png,,,,,,,,,,,,,,,,,,,,,,
,,,,,,,,,,,,,,,,,199555,18,2022-01-28_15h59.58.447,lexical_decision_task_DD_L5,2021.2.3,MacIntel,66.66666667,,,,,,,,,,,,0.481,1,,,,,,,,,,,,,,m,1,0.481,,,,,,,,0.062222222,-0.4,0,0,0,,0,14,14,41,1,STREAM,C,old,m,./images/STREAM.png,,,,,,,,,,,,,,,,,,,,,,
,,,,,,,,,,,,,,,,,199555,18,2022-01-28_15h59.58.447,lexical_decision_task_DD_L5,2021.2.3,MacIntel,66.66666667,,,,,,,,,,,,0.666,1,,,,,,,,,,,,,,z,1,0.666,,,,,,,,0.062222222,-0.4,0,0,0,,0,15,15,129,1,PRANS,C,old,z,./images/PRANS.png,,,,,,,,,,,,,,,,,,,,,,
,,,,,,,,,,,,,,,,,199555,18,2022-01-28_15h59.58.447,lexical_decision_task_DD_L5,2021.2.3,MacIntel,66.66666667,,,,,,,,,,,,0.553,1,,,,,,,,,,,,,,m,1,0.553,,,,,,,,0.062222222,-0.4,0,0,0,,0,16,16,32,1,HOCKEY,C,old,m,./images/HOCKEY.png,,,,,,,,,,,,,,,,,,,,,,
,,,,,,,,,,,,,,,,,199555,18,2022-01-28_15h59.58.447,lexical_decision_task_DD_L5,2021.2.3,MacIntel,66.66666667,,,,,,,,,,,,0.508,1,,,,,,,,,,,,,,m,1,0.508,,,,,,,,0.062222222,-0.4,0,0,0,,0,17,17,17,1,PARADE,C,old,m,./images/PARADE.png,,,,,,,,,,,,,,,,,,,,,,
,,,,,,,,,,,,,,,,,199555,18,2022-01-28_15h59.58.447,lexical_decision_task_DD_L5,2021.2.3,MacIntel,66.66666667,,,,,,,,,,,,0.535,1,,,,,,,,,,,,,,z,1,0.535,,,,,,,,0.062222222,-0.4,0,0,0,,0,18,18,140,1,DOVET,LB,old,z,./images/DOVETLB.png,,,,,,,,,,,,,,,,,,,,,,
,,,,,,,,,,,,,,,,,199555,18,2022-01-28_15h59.58.447,lexical_decision_task_DD_L5,2021.2.3,MacIntel,66.66666667,,,,,,,,,,,,0.675,1,,,,,,,,,,,,,,z,1,0.675,,,,,,,,0.062222222,-0.4,0,0,0,,0,19,19,131,1,NACES,LB,old,z,./images/NACESLB.png,,,,,,,,,,,,,,,,,,,,,,
,,,,,,,,,,,,,,,,,199555,18,2022-01-28_15h59.58.447,lexical_decision_task_DD_L5,2021.2.3,MacIntel,66.66666667,,,,,,,,,,,,0.447,1,,,,,,,,,,,,,,m,1,0.447,,,,,,,,0.062222222,-0.4,0,0,0,,0,20,20,19,1,DONKEY,LB,old,m,./images/DONKEYLB.png,,,,,,,,,,,,,,,,,,,,,,
,,,,,,,,,,,,,,,,,199555,18,2022-01-28_15h59.58.447,lexical_decision_task_DD_L5,2021.2.3,MacIntel,66.66666667,,,,,,,,,,,,2.121,1,,,,,,,,,,,,,,z,1,2.121,,,,,,,,0.062222222,-0.4,0,0,0,,0,21,21,115,1,MAWNS,HB,old,z,./images/MAWNSHB.png,,,,,,,,,,,,,,,,,,,,,,
,,,,,,,,,,,,,,,,,199555,18,2022-01-28_15h59.58.447,lexical_decision_task_DD_L5,2021.2.3,MacIntel,66.66666667,,,,,,,,,,,,1.123,1,,,,,,,,,,,,,,z,1,1.123,,,,,,,,0.062222222,-0.4,0,0,0,,0,22,22,160,1,VEETS,HB,old,z,./images/VEETSHB.png,,,,,,,,,,,,,,,,,,,,,,
,,,,,,,,,,,,,,,,,199555,18,2022-01-28_15h59.58.447,lexical_decision_task_DD_L5,2021.2.3,MacIntel,66.66666667,,,,,,,,,,,,1.487,1,,,,,,,,,,,,,,m,1,1.487,,,,,,,,0.062222222,-0.4,0,0,0,,0,23,23,64,1,BRIDE,LB,old,m,./images/BRIDELB.png,,,,,,,,,,,,,,,,,,,,,,
,,,,,,,,,,,,,,,,,199555,18,2022-01-28_15h59.58.447,lexical_decision_task_DD_L5,2021.2.3,MacIntel,66.66666667,,,,,,,,,,,,0.616,1,,,,,,,,,,,,,,z,1,0.616,,,,,,,,0.062222222,-0.4,0,0,0,,0,24,24,161,1,BLAPS,LB,old,z,./images/BLAPSLB.png,,,,,,,,,,,,,,,,,,,,,,
,,,,,,,,,,,,,,,,,199555,18,2022-01-28_15h59.58.447,lexical_decision_task_DD_L5,2021.2.3,MacIntel,66.66666667,,,,,,,,,,,,1.588,1,,,,,,,,,,,,,,z,1,1.588,,,,,,,,0.062222222,-0.4,0,0,0,,0,25,25,112,1,MYING,HB,old,z,./images/MYINGHB.png,,,,,,,,,,,,,,,,,,,,,,
,,,,,,,,,,,,,,,,,199555,18,2022-01-28_15h59.58.447,lexical_decision_task_DD_L5,2021.2.3,MacIntel,66.66666667,,,,,,,,,,,,0.535,1,,,,,,,,,,,,,,m,1,0.535,,,,,,,,0.062222222,-0.4,0,0,0,,0,26,26,59,1,BRUSH,C,old,m,./images/BRUSH.png,,,,,,,,,,,,,,,,,,,,,,
,,,,,,,,,,,,,,,,,199555,18,2022-01-28_15h59.58.447,lexical_decision_task_DD_L5,2021.2.3,MacIntel,66.66666667,,,,,,,,,,,,1.032,1,,,,,,,,,,,,,,m,1,1.032,,,,,,,,0.062222222,-0.4,0,0,0,,0,27,27,18,1,PARCEL,HB,old,m,./images/PARCELHB.png,,,,,,,,,,,,,,,,,,,,,,
,,,,,,,,,,,,,,,,,199555,18,2022-01-28_15h59.58.447,lexical_decision_task_DD_L5,2021.2.3,MacIntel,66.66666667,,,,,,,,,,,,0.538,1,,,,,,,,,,,,,,m,1,0.538,,,,,,,,0.062222222,-0.4,0,0,0,,0,28,28,37,1,TIGER,LB,old,m,./images/TIGERLB.png,,,,,,,,,,,,,,,,,,,,,,
,,,,,,,,,,,,,,,,,199555,18,2022-01-28_15h59.58.447,lexical_decision_task_DD_L5,2021.2.3,MacIntel,66.66666667,,,,,,,,,,,,0.712,1,,,,,,,,,,,,,,m,1,0.712,,,,,,,,0.062222222,-0.4,0,0,0,,0,29,29,49,1,BISHOP,LB,old,m,./images/BISHOPLB.png,,,,,,,,,,,,,,,,,,,,,,
,,,,,,,,,,,,,,,,,199555,18,2022-01-28_15h59.58.447,lexical_decision_task_DD_L5,2021.2.3,MacIntel,66.66666667,,,,,,,,,,,,1.628,1,,,,,,,,,,,,,,z,1,1.628,,,,,,,,0.062222222,-0.4,0,0,0,,0,30,30,158,1,EGECT,LB,old,z,./images/EGECTLB.png,,,,,,,,,,,,,,,,,,,,,,
,,,,,,,,,,,,,,,,,199555,18,2022-01-28_15h59.58.447,lexical_decision_task_DD_L5,2021.2.3,MacIntel,66.66666667,,,,,,,,,,,,0.916,1,,,,,,,,,,,,,,m,1,0.916,,,,,,,,0.062222222,-0.4,0,0,0,,0,31,31,45,1,MONKEY,HB,old,m,./images/MONKEYHB.png,,,,,,,,,,,,,,,,,,,,,,
,,,,,,,,,,,,,,,,,199555,18,2022-01-28_15h59.58.447,lexical_decision_task_DD_L5,2021.2.3,MacIntel,66.66666667,,,,,,,,,,,,1.442,1,,,,,,,,,,,,,,m,1,1.442,,,,,,,,0.062222222,-0.4,0,0,0,,0,32,32,56,1,HEATER,C,old,m,./images/HEATER.png,,,,,,,,,,,,,,,,,,,,,,
,,,,,,,,,,,,,,,,,199555,18,2022-01-28_15h59.58.447,lexical_decision_task_DD_L5,2021.2.3,MacIntel,66.66666667,,,,,,,,,,,,1.265,1,,,,,,,,,,,,,,z,1,1.265,,,,,,,,0.062222222,-0.4,0,0,0,,0,33,33,148,1,JOMS,HB,old,z,./images/JOMSHB.png,,,,,,,,,,,,,,,,,,,,,,
,,,,,,,,,,,,,,,,,199555,18,2022-01-28_15h59.58.447,lexical_decision_task_DD_L5,2021.2.3,MacIntel,66.66666667,,,,,,,,,,,,0.608,1,,,,,,,,,,,,,,m,1,0.608,,,,,,,,0.062222222,-0.4,0,0,0,,0,34,34,42,1,CHAIN,HB,old,m,./images/CHAINHB.png,,,,,,,,,,,,,,,,,,,,,,
,,,,,,,,,,,,,,,,,199555,18,2022-01-28_15h59.58.447,lexical_decision_task_DD_L5,2021.2.3,MacIntel,66.66666667,,,,,,,,,,,,0.597,1,,,,,,,,,,,,,,z,1,0.597,,,,,,,,0.062222222,-0.4,0,0,0,,0,35,35,95,1,HANTY,LB,old,z,./images/HANTYLB.png,,,,,,,,,,,,,,,,,,,,,,
,,,,,,,,,,,,,,,,,199555,18,2022-01-28_15h59.58.447,lexical_decision_task_DD_L5,2021.2.3,MacIntel,66.66666667,,,,,,,,,,,,1.56,1,,,,,,,,,,,,,,z,1,1.56,,,,,,,,0.062222222,-0.4,0,0,0,,0,36,36,166,1,SHORY,HB,old,z,./images/SHORYHB.png,,,,,,,,,,,,,,,,,,,,,,
,,,,,,,,,,,,,,,,,199555,18,2022-01-28_15h59.58.447,lexical_decision_task_DD_L5,2021.2.3,MacIntel,66.66666667,,,,,,,,,,,,0.719,1,,,,,,,,,,,,,,m,1,0.719,,,,,,,,0.062222222,-0.4,0,0,0,,0,37,37,57,1,FERRY,HB,old,m,./images/FERRYHB.png,,,,,,,,,,,,,,,,,,,,,,
,,,,,,,,,,,,,,,,,199555,18,2022-01-28_15h59.58.447,lexical_decision_task_DD_L5,2021.2.3,MacIntel,66.66666667,,,,,,,,,,,,0.665,1,,,,,,,,,,,,,,z,1,0.665,,,,,,,,0.062222222,-0.4,0,0,0,,0,38,38,136,1,WERVE,HB,old,z,./images/WERVEHB.png,,,,,,,,,,,,,,,,,,,,,,
,,,,,,,,,,,,,,,,,199555,18,2022-01-28_15h59.58.447,lexical_decision_task_DD_L5,2021.2.3,MacIntel,66.66666667,,,,,,,,,,,,0.679,1,,,,,,,,,,,,,,m,1,0.679,,,,,,,,0.062222222,-0.4,0,0,0,,0,39,39,27,1,BUTTER,HB,old,m,./images/BUTTERHB.png,,,,,,,,,,,,,,,,,,,,,,
,,,,,,,,,,,,,,,,,199555,18,2022-01-28_15h59.58.447,lexical_decision_task_DD_L5,2021.2.3,MacIntel,66.66666667,,,,,,,,,,,,1.398,1,,,,,,,,,,,,,,z,1,1.398,,,,,,,,0.062222222,-0.4,0,0,0,,0,40,40,109,1,BURGE,HB,old,z,./images/BURGEHB.png,,,,,,,,,,,,,,,,,,,,,,
,,,,,,,,,,,,,,,,,199555,18,2022-01-28_15h59.58.447,lexical_decision_task_DD_L5,2021.2.3,MacIntel,66.66666667,,,,,,,,,,,,0.721,1,,,,,,,,,,,,,,z,1,0.721,,,,,,,,0.062222222,-0.4,0,0,0,space,0,41,41,125,1,MOOKY,LB,old,z,./images/MOOKYLB.png,4.298,,,,,,,,,,,,,,,,,,,,,
,,,,,,,,,,,,,,,,,199555,18,2022-01-28_15h59.58.447,lexical_decision_task_DD_L5,2021.2.3,MacIntel,66.66666667,,,,,,,,,,,,0.605,1,,,,,,,,,,,,,,z,1,0.605,,,,,,,,0.062222222,-0.4,0,0,0,,0,42,42,165,1,TROWN,C,old,z,./images/TROWN.png,,,,,,,,,,,,,,,,,,,,,,
,,,,,,,,,,,,,,,,,199555,18,2022-01-28_15h59.58.447,lexical_decision_task_DD_L5,2021.2.3,MacIntel,66.66666667,,,,,,,,,,,,0.55,1,,,,,,,,,,,,,,m,1,0.55,,,,,,,,0.062222222,-0.4,0,0,0,,0,43,43,79,1,RULER,LB,old,m,./images/RULERLB.png,,,,,,,,,,,,,,,,,,,,,,
,,,,,,,,,,,,,,,,,199555,18,2022-01-28_15h59.58.447,lexical_decision_task_DD_L5,2021.2.3,MacIntel,66.66666667,,,,,,,,,,,,0.498,1,,,,,,,,,,,,,,z,1,0.498,,,,,,,,0.062222222,-0.4,0,0,0,,0,44,44,85,1,CHULK,HB,old,z,./images/CHULKHB.png,,,,,,,,,,,,,,,,,,,,,,
,,,,,,,,,,,,,,,,,199555,18,2022-01-28_15h59.58.447,lexical_decision_task_DD_L5,2021.2.3,MacIntel,66.66666667,,,,,,,,,,,,0.476,0,,,,,,,,,,,,,,z,0,0.476,,,,,,,,0.062222222,-0.4,0,0,0,,0,45,45,73,1,GLOVE,LB,old,m,./images/GLOVELB.png,,,,,,,,,,,,,,,,,,,,,,
,,,,,,,,,,,,,,,,,199555,18,2022-01-28_15h59.58.447,lexical_decision_task_DD_L5,2021.2.3,MacIntel,66.66666667,,,,,,,,,,,,0.57,1,,,,,,,,,,,,,,z,1,0.57,,,,,,,,0.062222222,-0.4,0,0,0,,0,46,46,117,1,STEEG,C,old,z,./images/STEEG.png,,,,,,,,,,,,,,,,,,,,,,
,,,,,,,,,,,,,,,,,199555,18,2022-01-28_15h59.58.447,lexical_decision_task_DD_L5,2021.2.3,MacIntel,66.66666667,,,,,,,,,,,,0.831,0,,,,,,,,,,,,,,m,0,0.831,,,,,,,,0.062222222,-0.4,0,0,0,,0,47,47,92,1,PAIMS,LB,old,z,./images/PAIMSLB.png,,,,,,,,,,,,,,,,,,,,,,
,,,,,,,,,,,,,,,,,199555,18,2022-01-28_15h59.58.447,lexical_decision_task_DD_L5,2021.2.3,MacIntel,66.66666667,,,,,,,,,,,,0.536,1,,,,,,,,,,,,,,m,1,0.536,,,,,,,,0.062222222,-0.4,0,0,0,,0,48,48,58,1,CANOE,LB,old,m,./images/CANOELB.png,,,,,,,,,,,,,,,,,,,,,,
,,,,,,,,,,,,,,,,,199555,18,2022-01-28_15h59.58.447,lexical_decision_task_DD_L5,2021.2.3,MacIntel,66.66666667,,,,,,,,,,,,0.746,1,,,,,,,,,,,,,,m,1,0.746,,,,,,,,0.062222222,-0.4,0,0,0,,0,49,49,36,1,BOILER,HB,old,m,./images/BOILERHB.png,,,,,,,,,,,,,,,,,,,,,,
,,,,,,,,,,,,,,,,,199555,18,2022-01-28_15h59.58.447,lexical_decision_task_DD_L5,2021.2.3,MacIntel,66.66666667,,,,,,,,,,,,0.654,1,,,,,,,,,,,,,,z,1,0.654,,,,,,,,0.062222222,-0.4,0,0,0,,0,50,50,143,1,MONGS,LB,old,z,./images/MONGSLB.png,,,,,,,,,,,,,,,,,,,,,,
,,,,,,,,,,,,,,,,,199555,18,2022-01-28_15h59.58.447,lexical_decision_task_DD_L5,2021.2.3,MacIntel,66.66666667,,,,,,,,,,,,0.528,0,,,,,,,,,,,,,,m,0,0.528,,,,,,,,0.062222222,-0.4,0,0,0,,0,51,51,88,1,GLUSH,HB,old,z,./images/GLUSHHB.png,,,,,,,,,,,,,,,,,,,,,,
,,,,,,,,,,,,,,,,,199555,18,2022-01-28_15h59.58.447,lexical_decision_task_DD_L5,2021.2.3,MacIntel,66.66666667,,,,,,,,,,,,0.589,0,,,,,,,,,,,,,,m,0,0.589,,,,,,,,0.062222222,-0.4,0,0,0,,0,52,52,164,1,SGREW,LB,old,z,./images/SGREWLB.png,,,,,,,,,,,,,,,,,,,,,,
,,,,,,,,,,,,,,,,,199555,18,2022-01-28_15h59.58.447,lexical_decision_task_DD_L5,2021.2.3,MacIntel,66.66666667,,,,,,,,,,,,0.535,0,,,,,,,,,,,,,,z,0,0.535,,,,,,,,0.062222222,-0.4,0,0,0,,0,53,53,55,1,ALLEY,LB,old,m,./images/ALLEYLB.png,,,,,,,,,,,,,,,,,,,,,,
,,,,,,,,,,,,,,,,,199555,18,2022-01-28_15h59.58.447,lexical_decision_task_DD_L5,2021.2.3,MacIntel,66.66666667,,,,,,,,,,,,2.403,0,,,,,,,,,,,,,,m,0,2.403,,,,,,,,0.062222222,-0.4,0,0,0,,0,54,54,110,1,CRUNK,LB,old,z,./images/CRUNKLB.png,,,,,,,,,,,,,,,,,,,,,,
,,,,,,,,,,,,,,,,,199555,18,2022-01-28_15h59.58.447,lexical_decision_task_DD_L5,2021.2.3,MacIntel,66.66666667,,,,,,,,,,,,0.53,1,,,,,,,,,,,,,,m,1,0.53,,,,,,,,0.062222222,-0.4,0,0,0,,0,55,55,28,1,CASINO,LB,old,m,./images/CASINOLB.png,,,,,,,,,,,,,,,,,,,,,,
,,,,,,,,,,,,,,,,,199555,18,2022-01-28_15h59.58.447,lexical_decision_task_DD_L5,2021.2.3,MacIntel,66.66666667,,,,,,,,,,,,0.663,1,,,,,,,,,,,,,,z,1,0.663,,,,,,,,0.062222222,-0.4,0,0,0,,0,56,56,107,1,FASKS,LB,old,z,./images/FASKSLB.png,,,,,,,,,,,,,,,,,,,,,,
,,,,,,,,,,,,,,,,,199555,18,2022-01-28_15h59.58.447,lexical_decision_task_DD_L5,2021.2.3,MacIntel,66.66666667,,,,,,,,,,,,0.495,1,,,,,,,,,,,,,,m,1,0.495,,,,,,,,0.062222222,-0.4,0,0,0,,0,57,57,10,1,GARDEN,LB,old,m,./images/GARDENLB.png,,,,,,,,,,,,,,,,,,,,,,
,,,,,,,,,,,,,,,,,199555,18,2022-01-28_15h59.58.447,lexical_decision_task_DD_L5,2021.2.3,MacIntel,66.66666667,,,,,,,,,,,,1.418,1,,,,,,,,,,,,,,z,1,1.418,,,,,,,,0.062222222,-0.4,0,0,0,,0,58,58,118,1,BAVEL,HB,old,z,./images/BAVELHB.png,,,,,,,,,,,,,,,,,,,,,,
,,,,,,,,,,,,,,,,,199555,18,2022-01-28_15h59.58.447,lexical_decision_task_DD_L5,2021.2.3,MacIntel,66.66666667,,,,,,,,,,,,0.508,1,,,,,,,,,,,,,,m,1,0.508,,,,,,,,0.062222222,-0.4,0,0,0,,0,59,59,67,1,POKER,LB,old,m,./images/POKERLB.png,,,,,,,,,,,,,,,,,,,,,,
,,,,,,,,,,,,,,,,,199555,18,2022-01-28_15h59.58.447,lexical_decision_task_DD_L5,2021.2.3,MacIntel,66.66666667,,,,,,,,,,,,0.847,1,,,,,,,,,,,,,,m,1,0.847,,,,,,,,0.062222222,-0.4,0,0,0,,0,60,60,43,1,STOOL,LB,old,m,./images/STOOLLB.png,,,,,,,,,,,,,,,,,,,,,,
,,,,,,,,,,,,,,,,,199555,18,2022-01-28_15h59.58.447,lexical_decision_task_DD_L5,2021.2.3,MacIntel,66.66666667,,,,,,,,,,,,0.689,1,,,,,,,,,,,,,,m,1,0.689,,,,,,,,0.062222222,-0.4,0,0,0,,0,61,61,35,1,LLAMA,C,old,m,./images/LLAMA.png,,,,,,,,,,,,,,,,,,,,,,
,,,,,,,,,,,,,,,,,199555,18,2022-01-28_15h59.58.447,lexical_decision_task_DD_L5,2021.2.3,MacIntel,66.66666667,,,,,,,,,,,,1.136,0,,,,,,,,,,,,,,m,0,1.136,,,,,,,,0.062222222,-0.4,0,0,0,,0,62,62,154,1,THINT,HB,old,z,./images/THINTHB.png,,,,,,,,,,,,,,,,,,,,,,
,,,,,,,,,,,,,,,,,199555,18,2022-01-28_15h59.58.447,lexical_decision_task_DD_L5,2021.2.3,MacIntel,66.66666667,,,,,,,,,,,,0.455,1,,,,,,,,,,,,,,m,1,0.455,,,,,,,,0.062222222,-0.4,0,0,0,,0,63,63,4,1,BOXER,LB,old,m,./images/BOXERLB.png,,,,,,,,,,,,,,,,,,,,,,
,,,,,,,,,,,,,,,,,199555,18,2022-01-28_15h59.58.447,lexical_decision_task_DD_L5,2021.2.3,MacIntel,66.66666667,,,,,,,,,,,,0.532,0,,,,,,,,,,,,,,m,0,0.532,,,,,,,,0.062222222,-0.4,0,0,0,,0,64,64,128,1,GRIFT,LB,old,z,./images/GRIFTLB.png,,,,,,,,,,,,,,,,,,,,,,
,,,,,,,,,,,,,,,,,199555,18,2022-01-28_15h59.58.447,lexical_decision_task_DD_L5,2021.2.3,MacIntel,66.66666667,,,,,,,,,,,,0.999,1,,,,,,,,,,,,,,z,1,0.999,,,,,,,,0.062222222,-0.4,0,0,0,,0,65,65,114,1,RIKES,C,old,z,./images/RIKES.png,,,,,,,,,,,,,,,,,,,,,,
,,,,,,,,,,,,,,,,,199555,18,2022-01-28_15h59.58.447,lexical_decision_task_DD_L5,2021.2.3,MacIntel,66.66666667,,,,,,,,,,,,1.215,1,,,,,,,,,,,,,,z,1,1.215,,,,,,,,0.062222222,-0.4,0,0,0,,0,66,66,86,1,AIFED,LB,old,z,./images/AIFEDLB.png,,,,,,,,,,,,,,,,,,,,,,
,,,,,,,,,,,,,,,,,199555,18,2022-01-28_15h59.58.447,lexical_decision_task_DD_L5,2021.2.3,MacIntel,66.66666667,,,,,,,,,,,,0.738,1,,,,,,,,,,,,,,m,1,0.738,,,,,,,,0.062222222,-0.4,0,0,0,,0,67,67,52,1,DESERT,LB,old,m,./images/DESERTLB.png,,,,,,,,,,,,,,,,,,,,,,
,,,,,,,,,,,,,,,,,199555,18,2022-01-28_15h59.58.447,lexical_decision_task_DD_L5,2021.2.3,MacIntel,66.66666667,,,,,,,,,,,,0.815,1,,,,,,,,,,,,,,m,1,0.815,,,,,,,,0.062222222,-0.4,0,0,0,,0,68,68,81,1,DRILL,HB,old,m,./images/DRILLHB.png,,,,,,,,,,,,,,,,,,,,,,
,,,,,,,,,,,,,,,,,199555,18,2022-01-28_15h59.58.447,lexical_decision_task_DD_L5,2021.2.3,MacIntel,66.66666667,,,,,,,,,,,,0.563,1,,,,,,,,,,,,,,z,1,0.563,,,,,,,,0.062222222,-0.4,0,0,0,,0,69,69,138,1,PLICE,C,old,z,./images/PLICE.png,,,,,,,,,,,,,,,,,,,,,,
,,,,,,,,,,,,,,,,,199555,18,2022-01-28_15h59.58.447,lexical_decision_task_DD_L5,2021.2.3,MacIntel,66.66666667,,,,,,,,,,,,1.523,1,,,,,,,,,,,,,,z,1,1.523,,,,,,,,0.062222222,-0.4,0,0,0,,0,70,70,121,1,CEERS,HB,old,z,./images/CEERSHB.png,,,,,,,,,,,,,,,,,,,,,,
,,,,,,,,,,,,,,,,,199555,18,2022-01-28_15h59.58.447,lexical_decision_task_DD_L5,2021.2.3,MacIntel,66.66666667,,,,,,,,,,,,0.493,1,,,,,,,,,,,,,,m,1,0.493,,,,,,,,0.062222222,-0.4,0,0,0,,0,71,71,26,1,CLOUD,C,old,m,./images/CLOUD.png,,,,,,,,,,,,,,,,,,,,,,
,,,,,,,,,,,,,,,,,199555,18,2022-01-28_15h59.58.447,lexical_decision_task_DD_L5,2021.2.3,MacIntel,66.66666667,,,,,,,,,,,,0.776,1,,,,,,,,,,,,,,z,1,0.776,,,,,,,,0.062222222,-0.4,0,0,0,,0,72,72,124,1,TUNCH,HB,old,z,./images/TUNCHHB.png,,,,,,,,,,,,,,,,,,,,,,
,,,,,,,,,,,,,,,,,199555,18,2022-01-28_15h59.58.447,lexical_decision_task_DD_L5,2021.2.3,MacIntel,66.66666667,,,,,,,,,,,,1.246,0,,,,,,,,,,,,,,m,0,1.246,,,,,,,,0.062222222,-0.4,0,0,0,,0,73,73,157,1,INLER,HB,old,z,./images/INLERHB.png,,,,,,,,,,,,,,,,,,,,,,
,,,,,,,,,,,,,,,,,199555,18,2022-01-28_15h59.58.447,lexical_decision_task_DD_L5,2021.2.3,MacIntel,66.66666667,,,,,,,,,,,,0.562,1,,,,,,,,,,,,,,m,1,0.562,,,,,,,,0.062222222,-0.4,0,0,0,,0,74,74,50,1,PILOT,C,old,m,./images/PILOT.png,,,,,,,,,,,,,,,,,,,,,,
,,,,,,,,,,,,,,,,,199555,18,2022-01-28_15h59.58.447,lexical_decision_task_DD_L5,2021.2.3,MacIntel,66.66666667,,,,,,,,,,,,0.63,1,,,,,,,,,,,,,,z,1,0.63,,,,,,,,0.062222222,-0.4,0,0,0,,0,75,75,135,1,JOODY,C,old,z,./images/JOODY.png,,,,,,,,,,,,,,,,,,,,,,
,,,,,,,,,,,,,,,,,199555,18,2022-01-28_15h59.58.447,lexical_decision_task_DD_L5,2021.2.3,MacIntel,66.66666667,,,,,,,,,,,,0.904,1,,,,,,,,,,,,,,m,1,0.904,,,,,,,,0.062222222,-0.4,0,0,0,,0,76,76,24,1,FLESH,HB,old,m,./images/FLESHHB.png,,,,,,,,,,,,,,,,,,,,,,
,,,,,,,,,,,,,,,,,199555,18,2022-01-28_15h59.58.447,lexical_decision_task_DD_L5,2021.2.3,MacIntel,66.66666667,,,,,,,,,,,,0.666,1,,,,,,,,,,,,,,z,1,0.666,,,,,,,,0.062222222,-0.4,0,0,0,,0,77,77,149,1,VEASE,LB,old,z,./images/VEASELB.png,,,,,,,,,,,,,,,,,,,,,,
,,,,,,,,,,,,,,,,,199555,18,2022-01-28_15h59.58.447,lexical_decision_task_DD_L5,2021.2.3,MacIntel,66.66666667,,,,,,,,,,,,0.747,0,,,,,,,,,,,,,,m,0,0.747,,,,,,,,0.062222222,-0.4,0,0,0,,0,78,78,127,1,NINDY,HB,old,z,./images/NINDYHB.png,,,,,,,,,,,,,,,,,,,,,,
,,,,,,,,,,,,,,,,,199555,18,2022-01-28_15h59.58.447,lexical_decision_task_DD_L5,2021.2.3,MacIntel,66.66666667,,,,,,,,,,,,0.833,1,,,,,,,,,,,,,,z,1,0.833,,,,,,,,0.062222222,-0.4,0,0,0,,0,79,79,99,1,BACKY,C,old,z,./images/BACKY.png,,,,,,,,,,,,,,,,,,,,,,
,,,,,,,,,,,,,,,,,199555,18,2022-01-28_15h59.58.447,lexical_decision_task_DD_L5,2021.2.3,MacIntel,66.66666667,,,,,,,,,,,,2.016,1,,,,,,,,,,,,,,z,1,2.016,,,,,,,,0.062222222,-0.4,0,0,0,,0,80,80,97,1,CHIDS,HB,old,z,./images/CHIDSHB.png,,,,,,,,,,,,,,,,,,,,,,
,,,,,,,,,,,,,,,,,199555,18,2022-01-28_15h59.58.447,lexical_decision_task_DD_L5,2021.2.3,MacIntel,66.66666667,,,,,,,,,,,,0.886,1,,,,,,,,,,,,,,m,1,0.886,,,,,,,,0.062222222,-0.4,0,0,0,,0,81,81,51,1,SAUCE,HB,old,m,./images/SAUCEHB.png,,,,,,,,,,,,,,,,,,,,,,
,,,,,,,,,,,,,,,,,199555,18,2022-01-28_15h59.58.447,lexical_decision_task_DD_L5,2021.2.3,MacIntel,66.66666667,,,,,,,,,,,,2.254,1,,,,,,,,,,,,,,z,1,2.254,,,,,,,,0.062222222,-0.4,0,0,0,,0,82,82,106,1,CLUMS,HB,old,z,./images/CLUMSHB.png,,,,,,,,,,,,,,,,,,,,,,
,,,,,,,,,,,,,,,,,199555,18,2022-01-28_15h59.58.447,lexical_decision_task_DD_L5,2021.2.3,MacIntel,66.66666667,,,,,,,,,,,,0.645,1,,,,,,,,,,,,,,m,1,0.645,,,,,,,,0.062222222,-0.4,0,0,0,space,0,83,83,30,1,SLOPE,HB,old,m,./images/SLOPEHB.png,2.349,,,,,,,,,,,,,,,,,,,,,
,,,,,,,,,,,,,,,,,199555,18,2022-01-28_15h59.58.447,lexical_decision_task_DD_L5,2021.2.3,MacIntel,66.66666667,,,,,,,,,,,,0.547,1,,,,,,,,,,,,,,m,1,0.547,,,,,,,,0.062222222,-0.4,0,0,0,,0,84,84,13,1,BUNNY,LB,old,m,./images/BUNNYLB.png,,,,,,,,,,,,,,,,,,,,,,
,,,,,,,,,,,,,,,,,199555,18,2022-01-28_15h59.58.447,lexical_decision_task_DD_L5,2021.2.3,MacIntel,66.66666667,,,,,,,,,,,,0.598,1,,,,,,,,,,,,,,z,1,0.598,,,,,,,,0.062222222,-0.4,0,0,0,,0,85,85,141,1,PLEET,C,old,z,./images/PLEET.png,,,,,,,,,,,,,,,,,,,,,,
,,,,,,,,,,,,,,,,,199555,18,2022-01-28_15h59.58.447,lexical_decision_task_DD_L5,2021.2.3,MacIntel,66.66666667,,,,,,,,,,,,0.989,1,,,,,,,,,,,,,,z,1,0.989,,,,,,,,0.062222222,-0.4,0,0,0,,0,86,86,139,1,BLEAR,HB,old,z,./images/BLEARHB.png,,,,,,,,,,,,,,,,,,,,,,
,,,,,,,,,,,,,,,,,199555,18,2022-01-28_15h59.58.447,lexical_decision_task_DD_L5,2021.2.3,MacIntel,66.66666667,,,,,,,,,,,,0.574,1,,,,,,,,,,,,,,z,1,0.574,,,,,,,,0.062222222,-0.4,0,0,0,,0,87,87,116,1,BALGY,LB,old,z,./images/BALGYLB.png,,,,,,,,,,,,,,,,,,,,,,
,,,,,,,,,,,,,,,,,199555,18,2022-01-28_15h59.58.447,lexical_decision_task_DD_L5,2021.2.3,MacIntel,66.66666667,,,,,,,,,,,,4.883,0,,,,,,,,,,,,,,z,0,4.883,,,,,,,,0.175555556,-0.214444444,0,0,0,,0,88,88,33,1,SAUNA,HB,old,m,./images/SAUNAHB.png,,,,,,,,,,,,,,,,,,,,,,
,,,,,,,,,,,,,,,,,199555,18,2022-01-28_15h59.58.447,lexical_decision_task_DD_L5,2021.2.3,MacIntel,66.66666667,,,,,,,,,,,,0.604,1,,,,,,,,,,,,,,m,1,0.604,,,,,,,,0.175555556,-0.214444444,0,0,0,,0,89,89,14,1,FENCE,C,old,m,./images/FENCE.png,,,,,,,,,,,,,,,,,,,,,,
,,,,,,,,,,,,,,,,,199555,18,2022-01-28_15h59.58.447,lexical_decision_task_DD_L5,2021.2.3,MacIntel,66.66666667,,,,,,,,,,,,0.513,1,,,,,,,,,,,,,,z,1,0.513,,,,,,,,0.175555556,-0.214444444,0,0,0,,0,90,90,147,1,ZOLES,C,old,z,./images/ZOLES.png,,,,,,,,,,,,,,,,,,,,,,
,,,,,,,,,,,,,,,,,199555,18,2022-01-28_15h59.58.447,lexical_decision_task_DD_L5,2021.2.3,MacIntel,66.66666667,,,,,,,,,,,,0.565,1,,,,,,,,,,,,,,m,1,0.565,,,,,,,,0.175555556,-0.214444444,0,0,0,,0,91,91,71,1,BUBBLE,C,old,m,./images/BUBBLE.png,,,,,,,,,,,,,,,,,,,,,,
,,,,,,,,,,,,,,,,,199555,18,2022-01-28_15h59.58.447,lexical_decision_task_DD_L5,2021.2.3,MacIntel,66.66666667,,,,,,,,,,,,0.588,1,,,,,,,,,,,,,,z,1,0.588,,,,,,,,0.175555556,-0.214444444,0,0,0,,0,92,92,155,1,CANGY,LB,old,z,./images/CANGYLB.png,,,,,,,,,,,,,,,,,,,,,,
,,,,,,,,,,,,,,,,,199555,18,2022-01-28_15h59.58.447,lexical_decision_task_DD_L5,2021.2.3,MacIntel,66.66666667,,,,,,,,,,,,0.567,1,,,,,,,,,,,,,,m,1,0.567,,,,,,,,0.175555556,-0.214444444,0,0,0,,0,93,93,44,1,BASKET,C,old,m,./images/BASKET.png,,,,,,,,,,,,,,,,,,,,,,
,,,,,,,,,,,,,,,,,199555,18,2022-01-28_15h59.58.447,lexical_decision_task_DD_L5,2021.2.3,MacIntel,66.66666667,,,,,,,,,,,,1.372,1,,,,,,,,,,,,,,m,1,1.372,,,,,,,,0.175555556,-0.214444444,0,0,0,,0,94,94,63,1,BAKER,HB,old,m,./images/BAKERHB.png,,,,,,,,,,,,,,,,,,,,,,
,,,,,,,,,,,,,,,,,199555,18,2022-01-28_15h59.58.447,lexical_decision_task_DD_L5,2021.2.3,MacIntel,66.66666667,,,,,,,,,,,,0.533,1,,,,,,,,,,,,,,z,1,0.533,,,,,,,,0.175555556,-0.214444444,0,0,0,,0,95,95,108,1,GRUET,C,old,z,./images/GRUET.png,,,,,,,,,,,,,,,,,,,,,,
,,,,,,,,,,,,,,,,,199555,18,2022-01-28_15h59.58.447,lexical_decision_task_DD_L5,2021.2.3,MacIntel,66.66666667,,,,,,,,,,,,0.624,1,,,,,,,,,,,,,,m,1,0.624,,,,,,,,0.175555556,-0.214444444,0,0,0,,0,96,96,62,1,MAMMAL,C,old,m,./images/MAMMAL.png,,,,,,,,,,,,,,,,,,,,,,
,,,,,,,,,,,,,,,,,199555,18,2022-01-28_15h59.58.447,lexical_decision_task_DD_L5,2021.2.3,MacIntel,66.66666667,,,,,,,,,,,,0.562,1,,,,,,,,,,,,,,m,1,0.562,,,,,,,,0.175555556,-0.214444444,0,0,0,,0,97,97,76,1,MIDGET,LB,old,m,./images/MIDGETLB.png,,,,,,,,,,,,,,,,,,,,,,
,,,,,,,,,,,,,,,,,199555,18,2022-01-28_15h59.58.447,lexical_decision_task_DD_L5,2021.2.3,MacIntel,66.66666667,,,,,,,,,,,,0.651,1,,,,,,,,,,,,,,z,1,0.651,,,,,,,,0.175555556,-0.214444444,0,0,0,,0,98,98,90,1,NEAST,C,old,z,./images/NEAST.png,,,,,,,,,,,,,,,,,,,,,,
,,,,,,,,,,,,,,,,,199555,18,2022-01-28_15h59.58.447,lexical_decision_task_DD_L5,2021.2.3,MacIntel,66.66666667,,,,,,,,,,,,0.546,1,,,,,,,,,,,,,,m,1,0.546,,,,,,,,0.175555556,-0.214444444,0,0,0,,0,99,99,1,1,TOWEL,LB,old,m,./images/TOWELLB.png,,,,,,,,,,,,,,,,,,,,,,
,,,,,,,,,,,,,,,,,199555,18,2022-01-28_15h59.58.447,lexical_decision_task_DD_L5,2021.2.3,MacIntel,66.66666667,,,,,,,,,,,,0.632,1,,,,,,,,,,,,,,m,1,0.632,,,,,,,,0.175555556,-0.214444444,0,0,0,,0,100,100,69,1,ARROW,HB,old,m,./images/ARROWHB.png,,,,,,,,,,,,,,,,,,,,,,
,,,,,,,,,,,,,,,,,199555,18,2022-01-28_15h59.58.447,lexical_decision_task_DD_L5,2021.2.3,MacIntel,66.66666667,,,,,,,,,,,,0.78,1,,,,,,,,,,,,,,m,1,0.78,,,,,,,,0.175555556,-0.214444444,0,0,0,,0,101,101,48,1,SHIELD,HB,old,m,./images/SHIELDHB.png,,,,,,,,,,,,,,,,,,,,,,
,,,,,,,,,,,,,,,,,199555,18,2022-01-28_15h59.58.447,lexical_decision_task_DD_L5,2021.2.3,MacIntel,66.66666667,,,,,,,,,,,,0.934,1,,,,,,,,,,,,,,m,1,0.934,,,,,,,,0.175555556,-0.214444444,0,0,0,,0,102,102,75,1,HAMMER,HB,old,m,./images/HAMMERHB.png,,,,,,,,,,,,,,,,,,,,,,
,,,,,,,,,,,,,,,,,199555,18,2022-01-28_15h59.58.447,lexical_decision_task_DD_L5,2021.2.3,MacIntel,66.66666667,,,,,,,,,,,,1.913,1,,,,,,,,,,,,,,z,1,1.913,,,,,,,,0.175555556,-0.214444444,0,0,0,,0,103,103,91,1,SHENS,HB,old,z,./images/SHENSHB.png,,,,,,,,,,,,,,,,,,,,,,
,,,,,,,,,,,,,,,,,199555,18,2022-01-28_15h59.58.447,lexical_decision_task_DD_L5,2021.2.3,MacIntel,66.66666667,,,,,,,,,,,,0.578,1,,,,,,,,,,,,,,m,1,0.578,,,,,,,,0.175555556,-0.214444444,0,0,0,,0,104,104,5,1,BAMBOO,C,old,m,./images/BAMBOO.png,,,,,,,,,,,,,,,,,,,,,,
,,,,,,,,,,,,,,,,,199555,18,2022-01-28_15h59.58.447,lexical_decision_task_DD_L5,2021.2.3,MacIntel,66.66666667,,,,,,,,,,,,1.181,1,,,,,,,,,,,,,,z,1,1.181,,,,,,,,0.175555556,-0.214444444,0,0,0,,0,105,105,145,1,LAMEL,HB,old,z,./images/LAMELHB.png,,,,,,,,,,,,,,,,,,,,,,
,,,,,,,,,,,,,,,,,199555,18,2022-01-28_15h59.58.447,lexical_decision_task_DD_L5,2021.2.3,MacIntel,66.66666667,,,,,,,,,,,,0.455,1,,,,,,,,,,,,,,m,1,0.455,,,,,,,,0.175555556,-0.214444444,0,0,0,,0,106,106,29,1,PISTOL,C,old,m,./images/PISTOL.png,,,,,,,,,,,,,,,,,,,,,,
,,,,,,,,,,,,,,,,,199555,18,2022-01-28_15h59.58.447,lexical_decision_task_DD_L5,2021.2.3,MacIntel,66.66666667,,,,,,,,,,,,1.15,1,,,,,,,,,,,,,,m,1,1.15,,,,,,,,0.175555556,-0.214444444,0,0,0,,0,107,107,31,1,STEAK,LB,old,m,./images/STEAKLB.png,,,,,,,,,,,,,,,,,,,,,,
,,,,,,,,,,,,,,,,,199555,18,2022-01-28_15h59.58.447,lexical_decision_task_DD_L5,2021.2.3,MacIntel,66.66666667,,,,,,,,,,,,0.902,1,,,,,,,,,,,,,,m,1,0.902,,,,,,,,0.175555556,-0.214444444,0,0,0,,0,108,108,53,1,POSTER,C,old,m,./images/POSTER.png,,,,,,,,,,,,,,,,,,,,,,
,,,,,,,,,,,,,,,,,199555,18,2022-01-28_15h59.58.447,lexical_decision_task_DD_L5,2021.2.3,MacIntel,66.66666667,,,,,,,,,,,,0.669,1,,,,,,,,,,,,,,z,1,0.669,,,,,,,,0.175555556,-0.214444444,0,0,0,,0,109,109,146,1,MOOST,LB,old,z,./images/MOOSTLB.png,,,,,,,,,,,,,,,,,,,,,,
,,,,,,,,,,,,,,,,,199555,18,2022-01-28_15h59.58.447,lexical_decision_task_DD_L5,2021.2.3,MacIntel,66.66666667,,,,,,,,,,,,0.964,1,,,,,,,,,,,,,,z,1,0.964,,,,,,,,0.175555556,-0.214444444,0,0,0,,0,110,110,119,1,PAFER,LB,old,z,./images/PAFERLB.png,,,,,,,,,,,,,,,,,,,,,,
,,,,,,,,,,,,,,,,,199555,18,2022-01-28_15h59.58.447,lexical_decision_task_DD_L5,2021.2.3,MacIntel,66.66666667,,,,,,,,,,,,2.056,1,,,,,,,,,,,,,,z,1,2.056,,,,,,,,0.175555556,-0.24,0,0,0,,0,111,111,105,1,MOKER,C,old,z,./images/MOKER.png,,,,,,,,,,,,,,,,,,,,,,
,,,,,,,,,,,,,,,,,199555,18,2022-01-28_15h59.58.447,lexical_decision_task_DD_L5,2021.2.3,MacIntel,66.66666667,,,,,,,,,,,,1.412,1,,,,,,,,,,,,,,m,1,1.412,,,,,,,,0.175555556,-0.24,0,0,0,,0,112,112,21,1,DANCER,HB,old,m,./images/DANCERHB.png,,,,,,,,,,,,,,,,,,,,,,
,,,,,,,,,,,,,,,,,199555,18,2022-01-28_15h59.58.447,lexical_decision_task_DD_L5,2021.2.3,MacIntel,66.66666667,,,,,,,,,,,,0.64,1,,,,,,,,,,,,,,z,1,0.64,,,,,,,,0.175555556,-0.24,0,0,0,,0,113,113,98,1,BAMPS,LB,old,z,./images/BAMPSLB.png,,,,,,,,,,,,,,,,,,,,,,
,,,,,,,,,,,,,,,,,199555,18,2022-01-28_15h59.58.447,lexical_decision_task_DD_L5,2021.2.3,MacIntel,66.66666667,,,,,,,,,,,,0.682,1,,,,,,,,,,,,,,z,1,0.682,,,,,,,,0.175555556,-0.24,0,0,0,,0,114,114,134,1,TROSS,LB,old,z,./images/TROSSLB.png,,,,,,,,,,,,,,,,,,,,,,
,,,,,,,,,,,,,,,,,199555,18,2022-01-28_15h59.58.447,lexical_decision_task_DD_L5,2021.2.3,MacIntel,66.66666667,,,,,,,,,,,,0.601,1,,,,,,,,,,,,,,z,1,0.601,,,,,,,,0.175555556,-0.24,0,0,0,,0,115,115,144,1,NAIRY,C,old,z,./images/NAIRY.png,,,,,,,,,,,,,,,,,,,,,,
,,,,,,,,,,,,,,,,,199555,18,2022-01-28_15h59.58.447,lexical_decision_task_DD_L5,2021.2.3,MacIntel,66.66666667,,,,,,,,,,,,0.664,1,,,,,,,,,,,,,,m,1,0.664,,,,,,,,0.175555556,-0.24,0,0,0,,0,116,116,16,1,GRAPE,LB,old,m,./images/GRAPELB.png,,,,,,,,,,,,,,,,,,,,,,
,,,,,,,,,,,,,,,,,199555,18,2022-01-28_15h59.58.447,lexical_decision_task_DD_L5,2021.2.3,MacIntel,66.66666667,,,,,,,,,,,,0.801,1,,,,,,,,,,,,,,m,1,0.801,,,,,,,,0.175555556,-0.24,0,0,0,,0,117,117,70,1,BANANA,LB,old,m,./images/BANANALB.png,,,,,,,,,,,,,,,,,,,,,,
,,,,,,,,,,,,,,,,,199555,18,2022-01-28_15h59.58.447,lexical_decision_task_DD_L5,2021.2.3,MacIntel,66.66666667,,,,,,,,,,,,1.58,1,,,,,,,,,,,,,,m,1,1.58,,,,,,,,0.175555556,-0.24,0,0,0,,0,118,118,9,1,DIVER,HB,old,m,./images/DIVERHB.png,,,,,,,,,,,,,,,,,,,,,,
,,,,,,,,,,,,,,,,,199555,18,2022-01-28_15h59.58.447,lexical_decision_task_DD_L5,2021.2.3,MacIntel,66.66666667,,,,,,,,,,,,0.555,1,,,,,,,,,,,,,,z,1,0.555,,,,,,,,0.175555556,-0.24,0,0,0,,0,119,119,96,1,KEAMS,C,old,z,./images/KEAMS.png,,,,,,,,,,,,,,,,,,,,,,
,,,,,,,,,,,,,,,,,199555,18,2022-01-28_15h59.58.447,lexical_decision_task_DD_L5,2021.2.3,MacIntel,66.66666667,,,,,,,,,,,,0.904,1,,,,,,,,,,,,,,m,1,0.904,,,,,,,,0.175555556,-0.24,0,0,0,,0,120,120,83,1,WHISKY,C,old,m,./images/WHISKY.png,,,,,,,,,,,,,,,,,,,,,,
,,,,,,,,,,,,,,,,,199555,18,2022-01-28_15h59.58.447,lexical_decision_task_DD_L5,2021.2.3,MacIntel,66.66666667,,,,,,,,,,,,0.587,1,,,,,,,,,,,,,,z,1,0.587,,,,,,,,0.175555556,-0.24,0,0,0,,0,121,121,132,1,SCIFF,C,old,z,./images/SCIFF.png,,,,,,,,,,,,,,,,,,,,,,
,,,,,,,,,,,,,,,,,199555,18,2022-01-28_15h59.58.447,lexical_decision_task_DD_L5,2021.2.3,MacIntel,66.66666667,,,,,,,,,,,,0.602,0,,,,,,,,,,,,,,m,0,0.602,,,,,,,,0.175555556,-0.24,0,0,0,,0,122,122,122,1,BLOOT,LB,old,z,./images/BLOOTLB.png,,,,,,,,,,,,,,,,,,,,,,
,,,,,,,,,,,,,,,,,199555,18,2022-01-28_15h59.58.447,lexical_decision_task_DD_L5,2021.2.3,MacIntel,66.66666667,,,,,,,,,,,,1.193,1,,,,,,,,,,,,,,m,1,1.193,,,,,,,,0.175555556,-0.24,0,0,0,,0,123,123,78,1,BROOM,HB,old,m,./images/BROOMHB.png,,,,,,,,,,,,,,,,,,,,,,
,,,,,,,,,,,,,,,,,199555,18,2022-01-28_15h59.58.447,lexical_decision_task_DD_L5,2021.2.3,MacIntel,66.66666667,,,,,,,,,,,,0.731,1,,,,,,,,,,,,,,m,1,0.731,,,,,,,,0.175555556,-0.24,0,0,0,,0,124,124,20,1,GRANNY,C,old,m,./images/GRANNY.png,,,,,,,,,,,,,,,,,,,,,,
,,,,,,,,,,,,,,,,,199555,18,2022-01-28_15h59.58.447,lexical_decision_task_DD_L5,2021.2.3,MacIntel,66.66666667,,,,,,,,,,,,0.581,1,,,,,,,,,,,,,,m,1,0.581,,,,,,,,0.124444444,-0.386666667,1,0,0,,0,125,125,61,1,ARTIST,LB,old,m,./images/ARTISTLB.png,,break_done_button,,,,,,,,,,,,,,,,,,,,
,,,,,,,,,,,,,,,,,199555,18,2022-01-28_15h59.58.447,lexical_decision_task_DD_L5,2021.2.3,MacIntel,66.66666667,,,,,,,,,,,,1.164,1,,,,,,,,,,,,,,z,1,1.164,,,,,,,,0.124444444,-0.386666667,0,0,0,,0,126,126,151,1,TINKY,HB,old,z,./images/TINKYHB.png,,,,,,,,,,,,,,,,,,,,,,
,,,,,,,,,,,,,,,,,199555,18,2022-01-28_15h59.58.447,lexical_decision_task_DD_L5,2021.2.3,MacIntel,66.66666667,,,,,,,,,,,,2.895,1,,,,,,,,,,,,,,z,1,2.895,,,,,,,,0.124444444,-0.386666667,0,0,0,,0,127,127,100,1,DRIBS,HB,old,z,./images/DRIBSHB.png,,,,,,,,,,,,,,,,,,,,,,
,,,,,,,,,,,,,,,,,199555,18,2022-01-28_15h59.58.447,lexical_decision_task_DD_L5,2021.2.3,MacIntel,66.66666667,,,,,,,,,,,,0.799,1,,,,,,,,,,,,,,z,1,0.799,,,,,,,,0.124444444,-0.386666667,0,0,0,,0,128,128,101,1,GLEET,LB,old,z,./images/GLEETLB.png,,,,,,,,,,,,,,,,,,,,,,
,,,,,,,,,,,,,,,,,199555,18,2022-01-28_15h59.58.447,lexical_decision_task_DD_L5,2021.2.3,MacIntel,66.66666667,,,,,,,,,,,,0.595,1,,,,,,,,,,,,,,z,1,0.595,,,,,,,,0.124444444,-0.386666667,0,0,0,,0,129,129,89,1,DRIEK,LB,old,z,./images/DRIEKLB.png,,,,,,,,,,,,,,,,,,,,,,
,,,,,,,,,,,,,,,,,199555,18,2022-01-28_15h59.58.447,lexical_decision_task_DD_L5,2021.2.3,MacIntel,66.66666667,,,,,,,,,,,,1.14,1,,,,,,,,,,,,,,z,1,1.14,,,,,,,,0.124444444,-0.386666667,0,0,0,,0,130,130,94,1,BLANS,HB,old,z,./images/BLANSHB.png,,,,,,,,,,,,,,,,,,,,,,
,,,,,,,,,,,,,,,,,199555,18,2022-01-28_15h59.58.447,lexical_decision_task_DD_L5,2021.2.3,MacIntel,66.66666667,,,,,,,,,,,,2.549,0,,,,,,,,,,,,,,m,0,2.549,,,,,,,,0.124444444,-0.386666667,0,0,0,,0,131,131,130,1,CRILL,HB,old,z,./images/CRILLHB.png,,,,,,,,,,,,,,,,,,,,,,
,,,,,,,,,,,,,,,,,199555,18,2022-01-28_15h59.58.447,lexical_decision_task_DD_L5,2021.2.3,MacIntel,66.66666667,,,,,,,,,,,,0.625,1,,,,,,,,,,,,,,m,1,0.625,,,,,,,,0.124444444,-0.386666667,0,0,0,,0,132,132,47,1,LAGOON,C,old,m,./images/LAGOON.png,,,,,,,,,,,,,,,,,,,,,,
,,,,,,,,,,,,,,,,,199555,18,2022-01-28_15h59.58.447,lexical_decision_task_DD_L5,2021.2.3,MacIntel,66.66666667,,,,,,,,,,,,1.17,1,,,,,,,,,,,,,,z,1,1.17,,,,,,,,0.124444444,-0.386666667,0,0,0,,0,133,133,111,1,HOSSE,C,old,z,./images/HOSSE.png,,,,,,,,,,,,,,,,,,,,,,
,,,,,,,,,,,,,,,,,199555,18,2022-01-28_15h59.58.447,lexical_decision_task_DD_L5,2021.2.3,MacIntel,66.66666667,,,,,,,,,,,,0.773,1,,,,,,,,,,,,,,m,1,0.773,,,,,,,,0.124444444,-0.386666667,0,0,0,,0,134,134,60,1,CURRY,HB,old,m,./images/CURRYHB.png,,,,,,,,,,,,,,,,,,,,,,
,,,,,,,,,,,,,,,,,199555,18,2022-01-28_15h59.58.447,lexical_decision_task_DD_L5,2021.2.3,MacIntel,66.66666667,,,,,,,,,,,,1.25,1,,,,,,,,,,,,,,z,1,1.25,,,,,,,,0.124444444,-0.386666667,0,0,0,,0,135,135,120,1,RINED,C,old,z,./images/RINED.png,,,,,,,,,,,,,,,,,,,,,,
,,,,,,,,,,,,,,,,,199555,18,2022-01-28_15h59.58.447,lexical_decision_task_DD_L5,2021.2.3,MacIntel,66.66666667,,,,,,,,,,,,0.609,1,,,,,,,,,,,,,,z,1,0.609,,,,,,,,0.124444444,-0.386666667,0,0,0,,0,136,136,150,1,NOOLS,C,old,z,./images/NOOLS.png,,,,,,,,,,,,,,,,,,,,,,
,,,,,,,,,,,,,,,,,199555,18,2022-01-28_15h59.58.447,lexical_decision_task_DD_L5,2021.2.3,MacIntel,66.66666667,,,,,,,,,,,,0.529,1,,,,,,,,,,,,,,z,1,0.529,,,,,,,,0.124444444,-0.386666667,0,0,0,,0,137,137,137,1,JOOST,LB,old,z,./images/JOOSTLB.png,,,,,,,,,,,,,,,,,,,,,,
,,,,,,,,,,,,,,,,,199555,18,2022-01-28_15h59.58.447,lexical_decision_task_DD_L5,2021.2.3,MacIntel,66.66666667,,,,,,,,,,,,0.586,1,,,,,,,,,,,,,,z,1,0.586,,,,,,,,0.124444444,-0.386666667,0,0,0,,0,138,138,126,1,GUELS,C,old,z,./images/GUELS.png,,,,,,,,,,,,,,,,,,,,,,
,,,,,,,,,,,,,,,,,199555,18,2022-01-28_15h59.58.447,lexical_decision_task_DD_L5,2021.2.3,MacIntel,66.66666667,,,,,,,,,,,,0.45,0,,,,,,,,,,,,,,z,0,0.45,,,,,,,,0.124444444,-0.386666667,0,0,0,,0,139,139,65,1,SPINE,C,old,m,./images/SPINE.png,,,,,,,,,,,,,,,,,,,,,,
,,,,,,,,,,,,,,,,,199555,18,2022-01-28_15h59.58.447,lexical_decision_task_DD_L5,2021.2.3,MacIntel,66.66666667,,,,,,,,,,,,0.598,1,,,,,,,,,,,,,,m,1,0.598,,,,,,,,0.124444444,-0.386666667,0,0,0,,0,140,140,2,1,STOVE,C,old,m,./images/STOVE.png,,,,,,,,,,,,,,,,,,,,,,
,,,,,,,,,,,,,,,,,199555,18,2022-01-28_15h59.58.447,lexical_decision_task_DD_L5,2021.2.3,MacIntel,66.66666667,,,,,,,,,,,,0.468,0,,,,,,,,,,,,,,m,0,0.468,,,,,,,,0.124444444,-0.386666667,0,0,0,,0,141,141,159,1,CUDDY,C,old,z,./images/CUDDY.png,,,,,,,,,,,,,,,,,,,,,,
,,,,,,,,,,,,,,,,,199555,18,2022-01-28_15h59.58.447,lexical_decision_task_DD_L5,2021.2.3,MacIntel,66.66666667,,,,,,,,,,,,0.89,1,,,,,,,,,,,,,,z,1,0.89,,,,,,,,0.124444444,-0.386666667,0,0,0,,0,142,142,93,1,SMONE,C,old,z,./images/SMONE.png,,,,,,,,,,,,,,,,,,,,,,
,,,,,,,,,,,,,,,,,199555,18,2022-01-28_15h59.58.447,lexical_decision_task_DD_L5,2021.2.3,MacIntel,66.66666667,,,,,,,,,,,,0.574,1,,,,,,,,,,,,,,m,1,0.574,,,,,,,,0.124444444,-0.386666667,0,0,0,,0,143,143,68,1,VALLEY,C,old,m,./images/VALLEY.png,,,,,,,,,,,,,,,,,,,,,,
,,,,,,,,,,,,,,,,,199555,18,2022-01-28_15h59.58.447,lexical_decision_task_DD_L5,2021.2.3,MacIntel,66.66666667,,,,,,,,,,,,1.729,1,,,,,,,,,,,,,,z,1,1.729,,,,,,,,0.124444444,-0.386666667,0,0,0,,0,144,144,103,1,FLORT,HB,old,z,./images/FLORTHB.png,,,,,,,,,,,,,,,,,,,,,,
,,,,,,,,,,,,,,,,,199555,18,2022-01-28_15h59.58.447,lexical_decision_task_DD_L5,2021.2.3,MacIntel,66.66666667,,,,,,,,,,,,1.871,1,,,,,,,,,,,,,,z,1,1.871,,,,,,,,0.124444444,-0.386666667,0,0,0,,0,145,145,163,1,GAMBA,HB,old,z,./images/GAMBAHB.png,,,,,,,,,,,,,,,,,,,,,,
,,,,,,,,,,,,,,,,,199555,18,2022-01-28_15h59.58.447,lexical_decision_task_DD_L5,2021.2.3,MacIntel,66.66666667,,,,,,,,,,,,0.836,1,,,,,,,,,,,,,,z,1,0.836,,,,,,,,0.124444444,-0.386666667,0,0,0,,0,146,146,104,1,GITTY,LB,old,z,./images/GITTYLB.png,,,,,,,,,,,,,,,,,,,,,,
,,,,,,,,,,,,,,,,,199555,18,2022-01-28_15h59.58.447,lexical_decision_task_DD_L5,2021.2.3,MacIntel,66.66666667,,,,,,,,,,,,0.58,1,,,,,,,,,,,,,,z,1,0.58,,,,,,,,0.124444444,-0.386666667,0,0,0,,0,147,147,153,1,CLUPS,C,old,z,./images/CLUPS.png,,,,,,,,,,,,,,,,,,,,,,
,,,,,,,,,,,,,,,,,199555,18,2022-01-28_15h59.58.447,lexical_decision_task_DD_L5,2021.2.3,MacIntel,66.66666667,,,,,,,,,,,,0.597,1,,,,,,,,,,,,,,z,1,0.597,,,,,,,,0.124444444,-0.386666667,0,0,0,,0,148,148,162,1,LEICH,C,old,z,./images/LEICH.png,,,,,,,,,,,,,,,,,,,,,,
,,,,,,,,,,,,,,,,,199555,18,2022-01-28_15h59.58.447,lexical_decision_task_DD_L5,2021.2.3,MacIntel,66.66666667,,,,,,,,,,,,0.747,1,,,,,,,,,,,,,,m,1,0.747,,,,,,,,0.124444444,-0.386666667,0,0,0,,0,149,149,39,1,CANDY,HB,old,m,./images/CANDYHB.png,,,,,,,,,,,,,,,,,,,,,,
,,,,,,,,,,,,,,,,,199555,18,2022-01-28_15h59.58.447,lexical_decision_task_DD_L5,2021.2.3,MacIntel,66.66666667,,,,,,,,,,,,0.536,1,,,,,,,,,,,,,,m,1,0.536,,,,,,,,0.124444444,-0.386666667,0,0,0,,0,150,150,46,1,MUMMY,LB,old,m,./images/MUMMYLB.png,,,,,,,,,,,,,,,,,,,,,,
,,,,,,,,,,,,,,,,,199555,18,2022-01-28_15h59.58.447,lexical_decision_task_DD_L5,2021.2.3,MacIntel,66.66666667,,,,,,,,,,,,0.616,1,,,,,,,,,,,,,,m,1,0.616,,,,,,,,0.124444444,-0.386666667,0,0,0,,0,151,151,74,1,JUMPER,C,old,m,./images/JUMPER.png,,,,,,,,,,,,,,,,,,,,,,
,,,,,,,,,,,,,,,,,199555,18,2022-01-28_15h59.58.447,lexical_decision_task_DD_L5,2021.2.3,MacIntel,66.66666667,,,,,,,,,,,,1.101,1,,,,,,,,,,,,,,z,1,1.101,,,,,,,,0.124444444,-0.386666667,0,0,0,,0,152,152,123,1,SEDGE,C,old,z,./images/SEDGE.png,,,,,,,,,,,,,,,,,,,,,,
,,,,,,,,,,,,,,,,,199555,18,2022-01-28_15h59.58.447,lexical_decision_task_DD_L5,2021.2.3,MacIntel,66.66666667,,,,,,,,,,,,0.814,1,,,,,,,,,,,,,,m,1,0.814,,,,,,,,0.124444444,-0.386666667,0,0,0,,0,153,153,11,1,MEDAL,C,old,m,./images/MEDAL.png,,,,,,,,,,,,,,,,,,,,,,
,,,,,,,,,,,,,,,,,199555,18,2022-01-28_15h59.58.447,lexical_decision_task_DD_L5,2021.2.3,MacIntel,66.66666667,,,,,,,,,,,,0.62,1,,,,,,,,,,,,,,z,1,0.62,,,,,,,,0.124444444,-0.386666667,0,0,0,,0,154,154,84,1,HAXES,C,old,z,./images/HAXES.png,,,,,,,,,,,,,,,,,,,,,,
,,,,,,,,,,,,,,,,,199555,18,2022-01-28_15h59.58.447,lexical_decision_task_DD_L5,2021.2.3,MacIntel,66.66666667,,,,,,,,,,,,0.898,1,,,,,,,,,,,,,,m,1,0.898,,,,,,,,0.124444444,-0.386666667,0,0,0,,0,155,155,72,1,FLASK,HB,old,m,./images/FLASKHB.png,,,,,,,,,,,,,,,,,,,,,,
,,,,,,,,,,,,,,,,,199555,18,2022-01-28_15h59.58.447,lexical_decision_task_DD_L5,2021.2.3,MacIntel,66.66666667,,,,,,,,,,,,0.785,1,,,,,,,,,,,,,,m,1,0.785,,,,,,,,0.124444444,-0.386666667,0,0,0,,0,156,156,54,1,CHERRY,HB,old,m,./images/CHERRYHB.png,,,,,,,,,,,,,,,,,,,,,,
,,,,,,,,,,,,,,,,,199555,18,2022-01-28_15h59.58.447,lexical_decision_task_DD_L5,2021.2.3,MacIntel,66.66666667,,,,,,,,,,,,0.642,1,,,,,,,,,,,,,,m,1,0.642,,,,,,,,0.124444444,-0.386666667,0,0,0,,0,157,157,25,1,CHALK,LB,old,m,./images/CHALKLB.png,,,,,,,,,,,,,,,,,,,,,,
,,,,,,,,,,,,,,,,,199555,18,2022-01-28_15h59.58.447,lexical_decision_task_DD_L5,2021.2.3,MacIntel,66.66666667,,,,,,,,,,,,0.516,1,,,,,,,,,,,,,,m,1,0.516,,,,,,,,0.124444444,-0.386666667,0,0,0,,0,158,158,40,1,SNAKE,LB,old,m,./images/SNAKELB.png,,,,,,,,,,,,,,,,,,,,,,
,,,,,,,,,,,,,,,,,199555,18,2022-01-28_15h59.58.447,lexical_decision_task_DD_L5,2021.2.3,MacIntel,66.66666667,,,,,,,,,,,,0.766,1,,,,,,,,,,,,,,m,1,0.766,,,,,,,,0.124444444,-0.386666667,0,0,0,,0,159,159,6,1,STAIN,HB,old,m,./images/STAINHB.png,,,,,,,,,,,,,,,,,,,,,,
,,,,,,,,,,,,,,,,,199555,18,2022-01-28_15h59.58.447,lexical_decision_task_DD_L5,2021.2.3,MacIntel,66.66666667,,,,,,,,,,,,0.533,1,,,,,,,,,,,,,,m,1,0.533,,,,,,,,0.124444444,-0.386666667,0,0,0,,0,160,160,7,1,WAGON,LB,old,m,./images/WAGONLB.png,,,,,,,,,,,,,,,,,,,,,,
,,,,,,,,,,,,,,,,,199555,18,2022-01-28_15h59.58.447,lexical_decision_task_DD_L5,2021.2.3,MacIntel,66.66666667,,,,,,,,,,,,0.912,1,,,,,,,,,,,,,,m,1,0.912,,,,,,,,0.124444444,-0.386666667,0,0,0,,0,161,161,66,1,STATUE,HB,old,m,./images/STATUEHB.png,,,,,,,,,,,,,,,,,,,,,,
,,,,,,,,,,,,,,,,,199555,18,2022-01-28_15h59.58.447,lexical_decision_task_DD_L5,2021.2.3,MacIntel,66.66666667,,,,,,,,,,,,0.635,1,,,,,,,,,,,,,,z,1,0.635,,,,,,,,0.124444444,-0.386666667,0,0,0,,0,162,162,87,1,TRING,C,old,z,./images/TRING.png,,,,,,,,,,,,,,,,,,,,,,
,,,,,,,,,,,,,,,,,199555,18,2022-01-28_15h59.58.447,lexical_decision_task_DD_L5,2021.2.3,MacIntel,66.66666667,,,,,,,,,,,,0.928,1,,,,,,,,,,,,,,m,1,0.928,,,,,,,,0.124444444,-0.386666667,0,0,0,,0,163,163,12,1,BLOKE,HB,old,m,./images/BLOKEHB.png,,,,,,,,,,,,,,,,,,,,,,
,,,,,,,,,,,,,,,,,199555,18,2022-01-28_15h59.58.447,lexical_decision_task_DD_L5,2021.2.3,MacIntel,66.66666667,,,,,,,,,,,,0.723,1,,,,,,,,,,,,,,z,1,0.723,,,,,,,,0.124444444,-0.386666667,0,0,0,,0,164,164,167,1,ZONET,LB,old,z,./images/ZONETLB.png,,,,,,,,,,,,,,,,,,,,,,
,,,,,,,,,,,,,,,,,199555,18,2022-01-28_15h59.58.447,lexical_decision_task_DD_L5,2021.2.3,MacIntel,66.66666667,,,,,,,,,,,,1.063,1,,,,,,,,,,,,,,m,1,1.063,,,,,,,,0.124444444,-0.386666667,0,0,0,,0,165,165,15,1,COLLAR,HB,old,m,./images/COLLARHB.png,,,,,,,,,,,,,,,,,,,,,,
,,,,,,,,,,,,,,,,,199555,18,2022-01-28_15h59.58.447,lexical_decision_task_DD_L5,2021.2.3,MacIntel,66.66666667,,,,,,,,,,,,0.542,0,,,,,,,,,,,,,,z,0,0.542,,,,,,,,0.124444444,-0.386666667,0,0,0,,0,166,166,22,1,CLOWN,LB,old,m,./images/CLOWNLB.png,,,,,,,,,,,,,,,,,,,,,,
,,,,,,,,,,,,,,,,,199555,18,2022-01-28_15h59.58.447,lexical_decision_task_DD_L5,2021.2.3,MacIntel,66.66666667,,,,,,,,,,,,2.313,1,,,,,,,,,,,,,,z,1,2.313,,,,,,,,0.124444444,-0.386666667,0,0,0,,0,167,167,142,1,PLASK,HB,old,z,./images/PLASKHB.png,,,,,,,,,,,,,,,,,,,,,,
space,0.124444444,-0.386666667,0,0,0,,,,,,,1,test,"In the next phase you will be presented with the words from the the first phase. Your job is to decide whether you remember seeing the word or not. If you remember seeing the word press ""old"" or type ""m"". If you do not remember seeing the word press ""new"" or type ""z"". Please press the space bar or click on continue to begin. ",,,199555,18,2022-01-28_15h59.58.447,lexical_decision_task_DD_L5,2021.2.3,MacIntel,66.66666667,20.098,,,,,,,,,,,,,,,,,,,,,,,,,,,,,,,,,,,,,,,,,,,,,,,,,,,,,,0,0,0,0,1,,,,,,,,,,,,,,,
space,0.124444444,-0.386666667,0,0,0,,,,,,,1,test,"In the next phase you will be presented with the words from the the first phase. Your job is to decide whether you remember seeing the word or not. If you remember seeing the word press ""old"" or type ""m"". If you do not remember seeing the word press ""new"" or type ""z"". Please press the space bar or click on continue to begin. ",,,199555,18,2022-01-28_15h59.58.447,lexical_decision_task_DD_L5,2021.2.3,MacIntel,66.66666667,3.321,,,,,,,,,,,,,,,,,,,,,,,,,,,,,,,,,,,,,,,,,,,,,,,,,,,,,,1,0,1,0,1,,,,,,,,,,,,,,,
,0.124444444,-0.386666667,1,0,0,instr_done_button,,,,,,1,test,"In the next phase you will be presented with the words from the the first phase. Your job is to decide whether you remember seeing the word or not. If you remember seeing the word press ""old"" or type ""m"". If you do not remember seeing the word press ""new"" or type ""z"". Please press the space bar or click on continue to begin. ",,,199555,18,2022-01-28_15h59.58.447,lexical_decision_task_DD_L5,2021.2.3,MacIntel,66.66666667,,,,,,,,,,,,,,,,,,,,,,,,,,,,,,,,,,,,,,,,,,,,,,,,,,,,,,,2,0,2,0,1,,,,,,,,,,,,,,,
,-0.018888889,-0.412222222,1,0,0,instr_done_button,,,,,,1,test,"In the next phase you will be presented with the words from the the first phase. Your job is to decide whether you remember seeing the word or not. If you remember seeing the word press ""old"" or type ""m"". If you do not remember seeing the word press ""new"" or type ""z"". Please press the space bar or click on continue to begin. ",,,199555,18,2022-01-28_15h59.58.447,lexical_decision_task_DD_L5,2021.2.3,MacIntel,66.66666667,,,,,,,,,,,,,,,,,,,,,,,,,,,,,,,,,,,,,,,,,,,,,,,,,,,,,,,3,0,3,0,1,,,,,,,,,,,,,,,
,0.008888889,-0.393333333,1,0,0,instr_done_button,,,,,,1,test,"In the next phase you will be presented with the words from the the first phase. Your job is to decide whether you remember seeing the word or not. If you remember seeing the word press ""old"" or type ""m"". If you do not remember seeing the word press ""new"" or type ""z"". Please press the space bar or click on continue to begin. ",,,199555,18,2022-01-28_15h59.58.447,lexical_decision_task_DD_L5,2021.2.3,MacIntel,66.66666667,,,,,,,,,,,,,,,,,,,,,,,,,,,,,,,,,,,,,,,,,,,,,,,,,,,,,,,4,0,4,0,1,,,,,,,,,,,,,,,
,,,,,,,,,,,,,,,,,199555,18,2022-01-28_15h59.58.447,lexical_decision_task_DD_L5,2021.2.3,MacIntel,66.66666667,,,,,,,,,,,,1.444,0,,,,,,,,,,,,,,,,,,,,,,,,0.008888889,-0.393333333,0,0,0,,,,,,,SAUCE,HB,m,y,./images/SAUCEHB.png,,,,,,,,z,0,1.444,,,,,,,,0,0,0,51,1
,,,,,,,,,,,,,,,,,199555,18,2022-01-28_15h59.58.447,lexical_decision_task_DD_L5,2021.2.3,MacIntel,66.66666667,,,,,,,,,,,,0.719,1,,,,,,,,,,,,,,,,,,,,,,,,0.008888889,-0.393333333,0,0,0,,,,,,,DONKEY,LB,m,y,./images/DONKEYLB.png,,,,,,,,m,1,0.719,,,,,,,,0,1,1,19,1
,,,,,,,,,,,,,,,,,199555,18,2022-01-28_15h59.58.447,lexical_decision_task_DD_L5,2021.2.3,MacIntel,66.66666667,,,,,,,,,,,,0.641,1,,,,,,,,,,,,,,,,,,,,,,,,0.008888889,-0.393333333,0,0,0,,,,,,,CRADLE,C,z,y,./images/CRADLE.png,,,,,,,,z,1,0.641,,,,,,,,0,2,2,104,1
,,,,,,,,,,,,,,,,,199555,18,2022-01-28_15h59.58.447,lexical_decision_task_DD_L5,2021.2.3,MacIntel,66.66666667,,,,,,,,,,,,0.747,1,,,,,,,,,,,,,,,,,,,,,,,,0.008888889,-0.393333333,0,0,0,,,,,,,SUNSET,LB,z,y,./images/SUNSETLB.png,,,,,,,,z,1,0.747,,,,,,,,0,3,3,166,1
,,,,,,,,,,,,,,,,,199555,18,2022-01-28_15h59.58.447,lexical_decision_task_DD_L5,2021.2.3,MacIntel,66.66666667,,,,,,,,,,,,0.603,0,,,,,,,,,,,,,,,,,,,,,,,,0.008888889,-0.393333333,0,0,0,,,,,,,MOOSE,HB,z,y,./images/MOOSEHB.png,,,,,,,,m,0,0.603,,,,,,,,0,4,4,141,1
,,,,,,,,,,,,,,,,,199555,18,2022-01-28_15h59.58.447,lexical_decision_task_DD_L5,2021.2.3,MacIntel,66.66666667,,,,,,,,,,,,0.621,1,,,,,,,,,,,,,,,,,,,,,,,,0.008888889,-0.393333333,0,0,0,,,,,,,GARDEN,LB,m,y,./images/GARDENLB.png,,,,,,,,m,1,0.621,,,,,,,,0,5,5,10,1
,,,,,,,,,,,,,,,,,199555,18,2022-01-28_15h59.58.447,lexical_decision_task_DD_L5,2021.2.3,MacIntel,66.66666667,,,,,,,,,,,,0.698,1,,,,,,,,,,,,,,,,,,,,,,,,0.008888889,-0.393333333,0,0,0,,,,,,,INFANT,LB,z,y,./images/INFANTLB.png,,,,,,,,z,1,0.698,,,,,,,,0,6,6,160,1
,,,,,,,,,,,,,,,,,199555,18,2022-01-28_15h59.58.447,lexical_decision_task_DD_L5,2021.2.3,MacIntel,66.66666667,,,,,,,,,,,,0.714,1,,,,,,,,,,,,,,,,,,,,,,,,0.008888889,-0.393333333,0,0,0,,,,,,,STAIN,HB,m,y,./images/STAINHB.png,,,,,,,,m,1,0.714,,,,,,,,0,7,7,6,1
,,,,,,,,,,,,,,,,,199555,18,2022-01-28_15h59.58.447,lexical_decision_task_DD_L5,2021.2.3,MacIntel,66.66666667,,,,,,,,,,,,0.697,1,,,,,,,,,,,,,,,,,,,,,,,,0.008888889,-0.393333333,0,0,0,,,,,,,MUSCLE,LB,z,y,./images/MUSCLELB.png,,,,,,,,z,1,0.697,,,,,,,,0,8,8,88,1
,,,,,,,,,,,,,,,,,199555,18,2022-01-28_15h59.58.447,lexical_decision_task_DD_L5,2021.2.3,MacIntel,66.66666667,,,,,,,,,,,,0.882,1,,,,,,,,,,,,,,,,,,,,,,,,0.008888889,-0.393333333,0,0,0,,,,,,,BRUSH,C,m,y,./images/BRUSH.png,,,,,,,,m,1,0.882,,,,,,,,0,9,9,59,1
,,,,,,,,,,,,,,,,,199555,18,2022-01-28_15h59.58.447,lexical_decision_task_DD_L5,2021.2.3,MacIntel,66.66666667,,,,,,,,,,,,0.772,1,,,,,,,,,,,,,,,,,,,,,,,,0.008888889,-0.393333333,0,0,0,,,,,,,BAKER,HB,m,y,./images/BAKERHB.png,,,,,,,,m,1,0.772,,,,,,,,0,10,10,63,1
,,,,,,,,,,,,,,,,,199555,18,2022-01-28_15h59.58.447,lexical_decision_task_DD_L5,2021.2.3,MacIntel,66.66666667,,,,,,,,,,,,0.849,1,,,,,,,,,,,,,,,,,,,,,,,,0.008888889,-0.393333333,0,0,0,,,,,,,ALLEY,LB,m,y,./images/ALLEYLB.png,,,,,,,,m,1,0.849,,,,,,,,0,11,11,55,1
,,,,,,,,,,,,,,,,,199555,18,2022-01-28_15h59.58.447,lexical_decision_task_DD_L5,2021.2.3,MacIntel,66.66666667,,,,,,,,,,,,0.829,1,,,,,,,,,,,,,,,,,,,,,,,,0.008888889,-0.393333333,0,0,0,,,,,,,KITTEN,HB,z,y,./images/KITTENHB.png,,,,,,,,z,1,0.829,,,,,,,,0,12,12,129,1
,,,,,,,,,,,,,,,,,199555,18,2022-01-28_15h59.58.447,lexical_decision_task_DD_L5,2021.2.3,MacIntel,66.66666667,,,,,,,,,,,,0.527,1,,,,,,,,,,,,,,,,,,,,,,,,0.008888889,-0.393333333,0,0,0,,,,,,,CURRY,HB,m,y,./images/CURRYHB.png,,,,,,,,m,1,0.527,,,,,,,,0,13,13,60,1
,,,,,,,,,,,,,,,,,199555,18,2022-01-28_15h59.58.447,lexical_decision_task_DD_L5,2021.2.3,MacIntel,66.66666667,,,,,,,,,,,,0.58,1,,,,,,,,,,,,,,,,,,,,,,,,0.008888889,-0.393333333,0,0,0,,,,,,,STOOL,LB,m,y,./images/STOOLLB.png,,,,,,,,m,1,0.58,,,,,,,,0,14,14,43,1
,,,,,,,,,,,,,,,,,199555,18,2022-01-28_15h59.58.447,lexical_decision_task_DD_L5,2021.2.3,MacIntel,66.66666667,,,,,,,,,,,,2.046,1,,,,,,,,,,,,,,,,,,,,,,,,0.008888889,-0.393333333,0,0,0,,,,,,,COUCH,C,z,y,./images/COUCH.png,,,,,,,,z,1,2.046,,,,,,,,0,15,15,161,1
,,,,,,,,,,,,,,,,,199555,18,2022-01-28_15h59.58.447,lexical_decision_task_DD_L5,2021.2.3,MacIntel,66.66666667,,,,,,,,,,,,0.666,1,,,,,,,,,,,,,,,,,,,,,,,,0.008888889,-0.393333333,0,0,0,,,,,,,ARTIST,LB,m,y,./images/ARTISTLB.png,,,,,,,,m,1,0.666,,,,,,,,0,16,16,61,1
,,,,,,,,,,,,,,,,,199555,18,2022-01-28_15h59.58.447,lexical_decision_task_DD_L5,2021.2.3,MacIntel,66.66666667,,,,,,,,,,,,0.702,1,,,,,,,,,,,,,,,,,,,,,,,,0.008888889,-0.393333333,0,0,0,,,,,,,BURIAL,C,z,y,./images/BURIAL.png,,,,,,,,z,1,0.702,,,,,,,,0,17,17,143,1
,,,,,,,,,,,,,,,,,199555,18,2022-01-28_15h59.58.447,lexical_decision_task_DD_L5,2021.2.3,MacIntel,66.66666667,,,,,,,,,,,,0.914,1,,,,,,,,,,,,,,,,,,,,,,,,0.008888889,-0.393333333,0,0,0,,,,,,,PENCE,LB,z,y,./images/PENCELB.png,,,,,,,,z,1,0.914,,,,,,,,0,18,18,100,1
,,,,,,,,,,,,,,,,,199555,18,2022-01-28_15h59.58.447,lexical_decision_task_DD_L5,2021.2.3,MacIntel,66.66666667,,,,,,,,,,,,0.886,1,,,,,,,,,,,,,,,,,,,,,,,,0.008888889,-0.393333333,0,0,0,,,,,,,SMOKER,C,z,y,./images/SMOKER.png,,,,,,,,z,1,0.886,,,,,,,,0,19,19,110,1
,,,,,,,,,,,,,,,,,199555,18,2022-01-28_15h59.58.447,lexical_decision_task_DD_L5,2021.2.3,MacIntel,66.66666667,,,,,,,,,,,,1.749,1,,,,,,,,,,,,,,,,,,,,,,,,0.008888889,-0.393333333,0,0,0,,,,,,,BARREL,C,z,y,./images/BARREL.png,,,,,,,,z,1,1.749,,,,,,,,0,20,20,116,1
,,,,,,,,,,,,,,,,,199555,18,2022-01-28_15h59.58.447,lexical_decision_task_DD_L5,2021.2.3,MacIntel,66.66666667,,,,,,,,,,,,0.59,1,,,,,,,,,,,,,,,,,,,,,,,,0.008888889,-0.393333333,0,0,0,,,,,,,COLLAR,HB,m,y,./images/COLLARHB.png,,,,,,,,m,1,0.59,,,,,,,,0,21,21,15,1
,,,,,,,,,,,,,,,,,199555,18,2022-01-28_15h59.58.447,lexical_decision_task_DD_L5,2021.2.3,MacIntel,66.66666667,,,,,,,,,,,,0.505,0,,,,,,,,,,,,,,,,,,,,,,,,0.008888889,-0.393333333,0,0,0,,,,,,,SQUARE,HB,z,y,./images/SQUAREHB.png,,,,,,,,m,0,0.505,,,,,,,,0,22,22,90,1
,,,,,,,,,,,,,,,,,199555,18,2022-01-28_15h59.58.447,lexical_decision_task_DD_L5,2021.2.3,MacIntel,66.66666667,,,,,,,,,,,,0.522,1,,,,,,,,,,,,,,,,,,,,,,,,0.008888889,-0.393333333,0,0,0,,,,,,,MUMMY,LB,m,y,./images/MUMMYLB.png,,,,,,,,m,1,0.522,,,,,,,,0,23,23,46,1
,,,,,,,,,,,,,,,,,199555,18,2022-01-28_15h59.58.447,lexical_decision_task_DD_L5,2021.2.3,MacIntel,66.66666667,,,,,,,,,,,,0.614,1,,,,,,,,,,,,,,,,,,,,,,,,0.008888889,-0.393333333,0,0,0,,,,,,,MIDGET,LB,m,y,./images/MIDGETLB.png,,,,,,,,m,1,0.614,,,,,,,,0,24,24,76,1
,,,,,,,,,,,,,,,,,199555,18,2022-01-28_15h59.58.447,lexical_decision_task_DD_L5,2021.2.3,MacIntel,66.66666667,,,,,,,,,,,,1.679,1,,,,,,,,,,,,,,,,,,,,,,,,0.008888889,-0.393333333,0,0,0,,,,,,,LADDER,C,z,y,./images/LADDER.png,,,,,,,,z,1,1.679,,,,,,,,0,25,25,122,1
,,,,,,,,,,,,,,,,,199555,18,2022-01-28_15h59.58.447,lexical_decision_task_DD_L5,2021.2.3,MacIntel,66.66666667,,,,,,,,,,,,1.089,1,,,,,,,,,,,,,,,,,,,,,,,,0.008888889,-0.393333333,0,0,0,,,,,,,MAGGOT,HB,z,y,./images/MAGGOTHB.png,,,,,,,,z,1,1.089,,,,,,,,0,26,26,117,1
,,,,,,,,,,,,,,,,,199555,18,2022-01-28_15h59.58.447,lexical_decision_task_DD_L5,2021.2.3,MacIntel,66.66666667,,,,,,,,,,,,1.27,1,,,,,,,,,,,,,,,,,,,,,,,,0.008888889,-0.393333333,0,0,0,,,,,,,GRAPE,LB,m,y,./images/GRAPELB.png,,,,,,,,m,1,1.27,,,,,,,,0,27,27,16,1
,,,,,,,,,,,,,,,,,199555,18,2022-01-28_15h59.58.447,lexical_decision_task_DD_L5,2021.2.3,MacIntel,66.66666667,,,,,,,,,,,,0.7,1,,,,,,,,,,,,,,,,,,,,,,,,0.008888889,-0.393333333,0,0,0,,,,,,,PURSE,C,z,y,./images/PURSE.png,,,,,,,,z,1,0.7,,,,,,,,0,28,28,146,1
,,,,,,,,,,,,,,,,,199555,18,2022-01-28_15h59.58.447,lexical_decision_task_DD_L5,2021.2.3,MacIntel,66.66666667,,,,,,,,,,,,0.981,1,,,,,,,,,,,,,,,,,,,,,,,,0.008888889,-0.393333333,0,0,0,,,,,,,BUBBLE,C,m,y,./images/BUBBLE.png,,,,,,,,m,1,0.981,,,,,,,,0,29,29,71,1
,,,,,,,,,,,,,,,,,199555,18,2022-01-28_15h59.58.447,lexical_decision_task_DD_L5,2021.2.3,MacIntel,66.66666667,,,,,,,,,,,,0.895,0,,,,,,,,,,,,,,,,,,,,,,,,0.008888889,-0.393333333,0,0,0,,,,,,,BIRTH,LB,z,y,./images/BIRTHLB.png,,,,,,,,m,0,0.895,,,,,,,,0,30,30,121,1
,,,,,,,,,,,,,,,,,199555,18,2022-01-28_15h59.58.447,lexical_decision_task_DD_L5,2021.2.3,MacIntel,66.66666667,,,,,,,,,,,,0.674,1,,,,,,,,,,,,,,,,,,,,,,,,0.008888889,-0.393333333,0,0,0,,,,,,,PIMPLE,C,z,y,./images/PIMPLE.png,,,,,,,,z,1,0.674,,,,,,,,0,31,31,155,1
,,,,,,,,,,,,,,,,,199555,18,2022-01-28_15h59.58.447,lexical_decision_task_DD_L5,2021.2.3,MacIntel,66.66666667,,,,,,,,,,,,1.884,0,,,,,,,,,,,,,,,,,,,,,,,,0.008888889,-0.393333333,0,0,0,,,,,,,ENGINE,C,m,y,./images/ENGINE.png,,,,,,,,z,0,1.884,,,,,,,,0,32,32,38,1
,,,,,,,,,,,,,,,,,199555,18,2022-01-28_15h59.58.447,lexical_decision_task_DD_L5,2021.2.3,MacIntel,66.66666667,,,,,,,,,,,,0.602,1,,,,,,,,,,,,,,,,,,,,,,,,0.008888889,-0.393333333,0,0,0,,,,,,,SAUNA,HB,m,y,./images/SAUNAHB.png,,,,,,,,m,1,0.602,,,,,,,,0,33,33,33,1
,,,,,,,,,,,,,,,,,199555,18,2022-01-28_15h59.58.447,lexical_decision_task_DD_L5,2021.2.3,MacIntel,66.66666667,,,,,,,,,,,,0.548,1,,,,,,,,,,,,,,,,,,,,,,,,0.008888889,-0.393333333,0,0,0,,,,,,,DESERT,LB,m,y,./images/DESERTLB.png,,,,,,,,m,1,0.548,,,,,,,,0,34,34,52,1
,,,,,,,,,,,,,,,,,199555,18,2022-01-28_15h59.58.447,lexical_decision_task_DD_L5,2021.2.3,MacIntel,66.66666667,,,,,,,,,,,,1.435,1,,,,,,,,,,,,,,,,,,,,,,,,0.008888889,-0.393333333,0,0,0,,,,,,,SHORE,HB,z,y,./images/SHOREHB.png,,,,,,,,z,1,1.435,,,,,,,,0,35,35,96,1
,,,,,,,,,,,,,,,,,199555,18,2022-01-28_15h59.58.447,lexical_decision_task_DD_L5,2021.2.3,MacIntel,66.66666667,,,,,,,,,,,,0.88,1,,,,,,,,,,,,,,,,,,,,,,,,0.008888889,-0.393333333,0,0,0,,,,,,,PASTA,C,z,y,./images/PASTA.png,,,,,,,,z,1,0.88,,,,,,,,0,36,36,89,1
,,,,,,,,,,,,,,,,,199555,18,2022-01-28_15h59.58.447,lexical_decision_task_DD_L5,2021.2.3,MacIntel,66.66666667,,,,,,,,,,,,0.98,0,,,,,,,,,,,,,,,,,,,,,,,,0.008888889,-0.393333333,0,0,0,,,,,,,MELON,LB,z,y,./images/MELONLB.png,,,,,,,,m,0,0.98,,,,,,,,0,37,37,106,1
,,,,,,,,,,,,,,,,,199555,18,2022-01-28_15h59.58.447,lexical_decision_task_DD_L5,2021.2.3,MacIntel,66.66666667,,,,,,,,,,,,0.582,1,,,,,,,,,,,,,,,,,,,,,,,,0.008888889,-0.393333333,0,0,0,,,,,,,WAGON,LB,m,y,./images/WAGONLB.png,,,,,,,,m,1,0.582,,,,,,,,0,38,38,7,1
,,,,,,,,,,,,,,,,,199555,18,2022-01-28_15h59.58.447,lexical_decision_task_DD_L5,2021.2.3,MacIntel,66.66666667,,,,,,,,,,,,2.522,1,,,,,,,,,,,,,,,,,,,,,,,,0.008888889,-0.393333333,0,0,0,,,,,,,BRIDE,LB,m,y,./images/BRIDELB.png,,,,,,,,m,1,2.522,,,,,,,,0,39,39,64,1
,,,,,,,,,,,,,,,,,199555,18,2022-01-28_15h59.58.447,lexical_decision_task_DD_L5,2021.2.3,MacIntel,66.66666667,,,,,,,,,,,,0.588,1,,,,,,,,,,,,,,,,,,,,,,,,0.008888889,-0.393333333,0,0,0,,,,,,,FLESH,HB,m,y,./images/FLESHHB.png,,,,,,,,m,1,0.588,,,,,,,,0,40,40,24,1
,,,,,,,,,,,,,,,,,199555,18,2022-01-28_15h59.58.447,lexical_decision_task_DD_L5,2021.2.3,MacIntel,66.66666667,,,,,,,,,,,,0.575,1,,,,,,,,,,,,,,,,,,,,,,,,-0.041111111,-0.428888889,1,0,0,,,,,,,BLOKE,HB,m,y,./images/BLOKEHB.png,,break_done_button,,,,,,m,1,0.575,,,,,,,,0,41,41,12,1
,,,,,,,,,,,,,,,,,199555,18,2022-01-28_15h59.58.447,lexical_decision_task_DD_L5,2021.2.3,MacIntel,66.66666667,,,,,,,,,,,,2.967,0,,,,,,,,,,,,,,,,,,,,,,,,-0.041111111,-0.428888889,0,0,0,,,,,,,MEDAL,C,m,y,./images/MEDAL.png,,,,,,,,z,0,2.967,,,,,,,,0,42,42,11,1
,,,,,,,,,,,,,,,,,199555,18,2022-01-28_15h59.58.447,lexical_decision_task_DD_L5,2021.2.3,MacIntel,66.66666667,,,,,,,,,,,,2.382,1,,,,,,,,,,,,,,,,,,,,,,,,-0.041111111,-0.428888889,0,0,0,,,,,,,FENCE,C,m,y,./images/FENCE.png,,,,,,,,m,1,2.382,,,,,,,,0,43,43,14,1
,,,,,,,,,,,,,,,,,199555,18,2022-01-28_15h59.58.447,lexical_decision_task_DD_L5,2021.2.3,MacIntel,66.66666667,,,,,,,,,,,,1.879,1,,,,,,,,,,,,,,,,,,,,,,,,-0.041111111,-0.428888889,0,0,0,,,,,,,STATUE,HB,m,y,./images/STATUEHB.png,,,,,,,,m,1,1.879,,,,,,,,0,44,44,66,1
,,,,,,,,,,,,,,,,,199555,18,2022-01-28_15h59.58.447,lexical_decision_task_DD_L5,2021.2.3,MacIntel,66.66666667,,,,,,,,,,,,1.186,1,,,,,,,,,,,,,,,,,,,,,,,,-0.041111111,-0.428888889,0,0,0,,,,,,,TORCH,C,z,y,./images/TORCH.png,,,,,,,,z,1,1.186,,,,,,,,0,45,45,152,1
,,,,,,,,,,,,,,,,,199555,18,2022-01-28_15h59.58.447,lexical_decision_task_DD_L5,2021.2.3,MacIntel,66.66666667,,,,,,,,,,,,0.631,0,,,,,,,,,,,,,,,,,,,,,,,,-0.041111111,-0.428888889,0,0,0,,,,,,,SCREW,HB,z,y,./images/SCREWHB.png,,,,,,,,m,0,0.631,,,,,,,,0,46,46,108,1
,,,,,,,,,,,,,,,,,199555,18,2022-01-28_15h59.58.447,lexical_decision_task_DD_L5,2021.2.3,MacIntel,66.66666667,,,,,,,,,,,,0.796,1,,,,,,,,,,,,,,,,,,,,,,,,-0.041111111,-0.428888889,0,0,0,,,,,,,CLIFF,C,m,y,./images/CLIFF.png,,,,,,,,m,1,0.796,,,,,,,,0,47,47,8,1
,,,,,,,,,,,,,,,,,199555,18,2022-01-28_15h59.58.447,lexical_decision_task_DD_L5,2021.2.3,MacIntel,66.66666667,,,,,,,,,,,,0.966,1,,,,,,,,,,,,,,,,,,,,,,,,-0.041111111,-0.428888889,0,0,0,,,,,,,CARPET,C,z,y,./images/CARPET.png,,,,,,,,z,1,0.966,,,,,,,,0,48,48,137,1
,,,,,,,,,,,,,,,,,199555,18,2022-01-28_15h59.58.447,lexical_decision_task_DD_L5,2021.2.3,MacIntel,66.66666667,,,,,,,,,,,,1.155,1,,,,,,,,,,,,,,,,,,,,,,,,-0.041111111,-0.428888889,0,0,0,,,,,,,MONKEY,HB,m,y,./images/MONKEYHB.png,,,,,,,,m,1,1.155,,,,,,,,0,49,49,45,1
,,,,,,,,,,,,,,,,,199555,18,2022-01-28_15h59.58.447,lexical_decision_task_DD_L5,2021.2.3,MacIntel,66.66666667,,,,,,,,,,,,4.399,1,,,,,,,,,,,,,,,,,,,,,,,,-0.041111111,-0.428888889,0,0,0,,,,,,,GRANNY,C,m,y,./images/GRANNY.png,,,,,,,,m,1,4.399,,,,,,,,0,50,50,20,1
,,,,,,,,,,,,,,,,,199555,18,2022-01-28_15h59.58.447,lexical_decision_task_DD_L5,2021.2.3,MacIntel,66.66666667,,,,,,,,,,,,2.166,1,,,,,,,,,,,,,,,,,,,,,,,,-0.041111111,-0.428888889,0,0,0,,,,,,,CANOE,LB,m,y,./images/CANOELB.png,,,,,,,,m,1,2.166,,,,,,,,0,51,51,58,1
,,,,,,,,,,,,,,,,,199555,18,2022-01-28_15h59.58.447,lexical_decision_task_DD_L5,2021.2.3,MacIntel,66.66666667,,,,,,,,,,,,0.681,1,,,,,,,,,,,,,,,,,,,,,,,,-0.041111111,-0.428888889,0,0,0,,,,,,,TOMATO,HB,z,y,./images/TOMATOHB.png,,,,,,,,z,1,0.681,,,,,,,,0,52,52,84,1
,,,,,,,,,,,,,,,,,199555,18,2022-01-28_15h59.58.447,lexical_decision_task_DD_L5,2021.2.3,MacIntel,66.66666667,,,,,,,,,,,,0.747,1,,,,,,,,,,,,,,,,,,,,,,,,-0.041111111,-0.428888889,0,0,0,,,,,,,MOSQUE,LB,z,y,./images/MOSQUELB.png,,,,,,,,z,1,0.747,,,,,,,,0,53,53,127,1
,,,,,,,,,,,,,,,,,199555,18,2022-01-28_15h59.58.447,lexical_decision_task_DD_L5,2021.2.3,MacIntel,66.66666667,,,,,,,,,,,,0.845,1,,,,,,,,,,,,,,,,,,,,,,,,-0.041111111,-0.428888889,0,0,0,,,,,,,PICKLE,C,z,y,./images/PICKLE.png,,,,,,,,z,1,0.845,,,,,,,,0,54,54,98,1
,,,,,,,,,,,,,,,,,199555,18,2022-01-28_15h59.58.447,lexical_decision_task_DD_L5,2021.2.3,MacIntel,66.66666667,,,,,,,,,,,,0.662,1,,,,,,,,,,,,,,,,,,,,,,,,-0.041111111,-0.428888889,0,0,0,,,,,,,TWINS,HB,z,y,./images/TWINSHB.png,,,,,,,,z,1,0.662,,,,,,,,0,55,55,144,1
,,,,,,,,,,,,,,,,,199555,18,2022-01-28_15h59.58.447,lexical_decision_task_DD_L5,2021.2.3,MacIntel,66.66666667,,,,,,,,,,,,0.73,0,,,,,,,,,,,,,,,,,,,,,,,,-0.041111111,-0.428888889,0,0,0,,,,,,,LITTER,HB,z,y,./images/LITTERHB.png,,,,,,,,m,0,0.73,,,,,,,,0,56,56,162,1
,,,,,,,,,,,,,,,,,199555,18,2022-01-28_15h59.58.447,lexical_decision_task_DD_L5,2021.2.3,MacIntel,66.66666667,,,,,,,,,,,,0.613,0,,,,,,,,,,,,,,,,,,,,,,,,-0.041111111,-0.428888889,0,0,0,,,,,,,SHELF,HB,z,y,./images/SHELFHB.png,,,,,,,,m,0,0.613,,,,,,,,0,57,57,123,1
,,,,,,,,,,,,,,,,,199555,18,2022-01-28_15h59.58.447,lexical_decision_task_DD_L5,2021.2.3,MacIntel,66.66666667,,,,,,,,,,,,0.681,0,,,,,,,,,,,,,,,,,,,,,,,,-0.041111111,-0.428888889,0,0,0,,,,,,,HOCKEY,C,m,y,./images/HOCKEY.png,,,,,,,,z,0,0.681,,,,,,,,0,58,58,32,1
,,,,,,,,,,,,,,,,,199555,18,2022-01-28_15h59.58.447,lexical_decision_task_DD_L5,2021.2.3,MacIntel,66.66666667,,,,,,,,,,,,0.721,1,,,,,,,,,,,,,,,,,,,,,,,,-0.041111111,-0.428888889,0,0,0,,,,,,,MUFFIN,LB,z,y,./images/MUFFINLB.png,,,,,,,,z,1,0.721,,,,,,,,0,59,59,139,1
,,,,,,,,,,,,,,,,,199555,18,2022-01-28_15h59.58.447,lexical_decision_task_DD_L5,2021.2.3,MacIntel,66.66666667,,,,,,,,,,,,1.005,1,,,,,,,,,,,,,,,,,,,,,,,,-0.041111111,-0.428888889,0,0,0,,,,,,,LAGOON,C,m,y,./images/LAGOON.png,,,,,,,,m,1,1.005,,,,,,,,0,60,60,47,1
,,,,,,,,,,,,,,,,,199555,18,2022-01-28_15h59.58.447,lexical_decision_task_DD_L5,2021.2.3,MacIntel,66.66666667,,,,,,,,,,,,0.747,1,,,,,,,,,,,,,,,,,,,,,,,,-0.041111111,-0.428888889,0,0,0,,,,,,,CLOUD,C,m,y,./images/CLOUD.png,,,,,,,,m,1,0.747,,,,,,,,0,61,61,26,1
,,,,,,,,,,,,,,,,,199555,18,2022-01-28_15h59.58.447,lexical_decision_task_DD_L5,2021.2.3,MacIntel,66.66666667,,,,,,,,,,,,0.773,1,,,,,,,,,,,,,,,,,,,,,,,,-0.041111111,-0.428888889,0,0,0,,,,,,,JUMPER,C,m,y,./images/JUMPER.png,,,,,,,,m,1,0.773,,,,,,,,0,62,62,74,1
,,,,,,,,,,,,,,,,,199555,18,2022-01-28_15h59.58.447,lexical_decision_task_DD_L5,2021.2.3,MacIntel,66.66666667,,,,,,,,,,,,0.604,1,,,,,,,,,,,,,,,,,,,,,,,,-0.041111111,-0.428888889,0,0,0,,,,,,,WHEEL,C,m,y,./images/WHEEL.png,,,,,,,,m,1,0.604,,,,,,,,0,63,63,77,1
,,,,,,,,,,,,,,,,,199555,18,2022-01-28_15h59.58.447,lexical_decision_task_DD_L5,2021.2.3,MacIntel,66.66666667,,,,,,,,,,,,1.204,1,,,,,,,,,,,,,,,,,,,,,,,,-0.041111111,-0.428888889,0,0,0,,,,,,,SPORT,HB,z,y,./images/SPORTHB.png,,,,,,,,z,1,1.204,,,,,,,,0,64,64,132,1
,,,,,,,,,,,,,,,,,199555,18,2022-01-28_15h59.58.447,lexical_decision_task_DD_L5,2021.2.3,MacIntel,66.66666667,,,,,,,,,,,,2.869,0,,,,,,,,,,,,,,,,,,,,,,,,-0.041111111,-0.428888889,0,0,0,,,,,,,PISTOL,C,m,y,./images/PISTOL.png,,,,,,,,z,0,2.869,,,,,,,,0,65,65,29,1
,,,,,,,,,,,,,,,,,199555,18,2022-01-28_15h59.58.447,lexical_decision_task_DD_L5,2021.2.3,MacIntel,66.66666667,,,,,,,,,,,,0.6,1,,,,,,,,,,,,,,,,,,,,,,,,-0.041111111,-0.428888889,0,0,0,,,,,,,ONION,HB,z,y,./images/ONIONHB.png,,,,,,,,z,1,0.6,,,,,,,,0,66,66,135,1
,,,,,,,,,,,,,,,,,199555,18,2022-01-28_15h59.58.447,lexical_decision_task_DD_L5,2021.2.3,MacIntel,66.66666667,,,,,,,,,,,,0.919,1,,,,,,,,,,,,,,,,,,,,,,,,-0.041111111,-0.428888889,0,0,0,,,,,,,FOLDER,HB,z,y,./images/FOLDERHB.png,,,,,,,,z,1,0.919,,,,,,,,0,67,67,126,1
,,,,,,,,,,,,,,,,,199555,18,2022-01-28_15h59.58.447,lexical_decision_task_DD_L5,2021.2.3,MacIntel,66.66666667,,,,,,,,,,,,0.684,1,,,,,,,,,,,,,,,,,,,,,,,,-0.041111111,-0.428888889,0,0,0,,,,,,,CHALK,LB,m,y,./images/CHALKLB.png,,,,,,,,m,1,0.684,,,,,,,,0,68,68,25,1
,,,,,,,,,,,,,,,,,199555,18,2022-01-28_15h59.58.447,lexical_decision_task_DD_L5,2021.2.3,MacIntel,66.66666667,,,,,,,,,,,,0.643,0,,,,,,,,,,,,,,,,,,,,,,,,-0.041111111,-0.428888889,0,0,0,,,,,,,STORM,HB,z,y,./images/STORMHB.png,,,,,,,,m,0,0.643,,,,,,,,0,69,69,114,1
,,,,,,,,,,,,,,,,,199555,18,2022-01-28_15h59.58.447,lexical_decision_task_DD_L5,2021.2.3,MacIntel,66.66666667,,,,,,,,,,,,0.716,1,,,,,,,,,,,,,,,,,,,,,,,,-0.041111111,-0.428888889,0,0,0,,,,,,,URINE,LB,z,y,./images/URINELB.png,,,,,,,,z,1,0.716,,,,,,,,0,70,70,154,1
,,,,,,,,,,,,,,,,,199555,18,2022-01-28_15h59.58.447,lexical_decision_task_DD_L5,2021.2.3,MacIntel,66.66666667,,,,,,,,,,,,0.643,0,,,,,,,,,,,,,,,,,,,,,,,,-0.041111111,-0.428888889,0,0,0,,,,,,,SWING,LB,z,y,./images/SWINGLB.png,,,,,,,,m,0,0.643,,,,,,,,0,71,71,124,1
,,,,,,,,,,,,,,,,,199555,18,2022-01-28_15h59.58.447,lexical_decision_task_DD_L5,2021.2.3,MacIntel,66.66666667,,,,,,,,,,,,0.788,1,,,,,,,,,,,,,,,,,,,,,,,,-0.041111111,-0.428888889,0,0,0,,,,,,,SKIING,C,z,y,./images/SKIING.png,,,,,,,,z,1,0.788,,,,,,,,0,72,72,101,1
,,,,,,,,,,,,,,,,,199555,18,2022-01-28_15h59.58.447,lexical_decision_task_DD_L5,2021.2.3,MacIntel,66.66666667,,,,,,,,,,,,0.639,1,,,,,,,,,,,,,,,,,,,,,,,,-0.041111111,-0.428888889,0,0,0,,,,,,,PARADE,C,m,y,./images/PARADE.png,,,,,,,,m,1,0.639,,,,,,,,0,73,73,17,1
,,,,,,,,,,,,,,,,,199555,18,2022-01-28_15h59.58.447,lexical_decision_task_DD_L5,2021.2.3,MacIntel,66.66666667,,,,,,,,,,,,1.106,0,,,,,,,,,,,,,,,,,,,,,,,,-0.041111111,-0.428888889,0,0,0,,,,,,,QUILL,LB,z,y,./images/QUILLLB.png,,,,,,,,m,0,1.106,,,,,,,,0,74,74,115,1
,,,,,,,,,,,,,,,,,199555,18,2022-01-28_15h59.58.447,lexical_decision_task_DD_L5,2021.2.3,MacIntel,66.66666667,,,,,,,,,,,,2.217,1,,,,,,,,,,,,,,,,,,,,,,,,-0.041111111,-0.428888889,0,0,0,,,,,,,WALRUS,C,z,y,./images/WALRUS.png,,,,,,,,z,1,2.217,,,,,,,,0,75,75,107,1
,,,,,,,,,,,,,,,,,199555,18,2022-01-28_15h59.58.447,lexical_decision_task_DD_L5,2021.2.3,MacIntel,66.66666667,,,,,,,,,,,,1.408,1,,,,,,,,,,,,,,,,,,,,,,,,-0.041111111,-0.428888889,0,0,0,,,,,,,BELLY,LB,z,y,./images/BELLYLB.png,,,,,,,,z,1,1.408,,,,,,,,0,76,76,94,1
,,,,,,,,,,,,,,,,,199555,18,2022-01-28_15h59.58.447,lexical_decision_task_DD_L5,2021.2.3,MacIntel,66.66666667,,,,,,,,,,,,0.837,1,,,,,,,,,,,,,,,,,,,,,,,,-0.041111111,-0.428888889,0,0,0,,,,,,,POODLE,HB,z,y,./images/POODLEHB.png,,,,,,,,z,1,0.837,,,,,,,,0,77,77,165,1
,,,,,,,,,,,,,,,,,199555,18,2022-01-28_15h59.58.447,lexical_decision_task_DD_L5,2021.2.3,MacIntel,66.66666667,,,,,,,,,,,,1.596,0,,,,,,,,,,,,,,,,,,,,,,,,-0.041111111,-0.428888889,0,0,0,,,,,,,NOOSE,HB,z,y,./images/NOOSEHB.png,,,,,,,,m,0,1.596,,,,,,,,0,78,78,156,1
,,,,,,,,,,,,,,,,,199555,18,2022-01-28_15h59.58.447,lexical_decision_task_DD_L5,2021.2.3,MacIntel,66.66666667,,,,,,,,,,,,0.663,1,,,,,,,,,,,,,,,,,,,,,,,,-0.041111111,-0.428888889,0,0,0,,,,,,,BISHOP,LB,m,y,./images/BISHOPLB.png,,,,,,,,m,1,0.663,,,,,,,,0,79,79,49,1
,,,,,,,,,,,,,,,,,199555,18,2022-01-28_15h59.58.447,lexical_decision_task_DD_L5,2021.2.3,MacIntel,66.66666667,,,,,,,,,,,,1.183,1,,,,,,,,,,,,,,,,,,,,,,,,-0.041111111,-0.428888889,0,0,0,,,,,,,SPINE,C,m,y,./images/SPINE.png,,,,,,,,m,1,1.183,,,,,,,,0,80,80,65,1
,,,,,,,,,,,,,,,,,199555,18,2022-01-28_15h59.58.447,lexical_decision_task_DD_L5,2021.2.3,MacIntel,66.66666667,,,,,,,,,,,,0.731,1,,,,,,,,,,,,,,,,,,,,,,,,-0.041111111,-0.428888889,0,0,0,,,,,,,JAGUAR,HB,z,y,./images/JAGUARHB.png,,,,,,,,z,1,0.731,,,,,,,,0,81,81,102,1
,,,,,,,,,,,,,,,,,199555,18,2022-01-28_15h59.58.447,lexical_decision_task_DD_L5,2021.2.3,MacIntel,66.66666667,,,,,,,,,,,,0.9,1,,,,,,,,,,,,,,,,,,,,,,,,-0.041111111,-0.428888889,0,0,0,,,,,,,RULER,LB,m,y,./images/RULERLB.png,,,,,,,,m,1,0.9,,,,,,,,0,82,82,79,1
,,,,,,,,,,,,,,,,,199555,18,2022-01-28_15h59.58.447,lexical_decision_task_DD_L5,2021.2.3,MacIntel,66.66666667,,,,,,,,,,,,1.274,1,,,,,,,,,,,,,,,,,,,,,,,,-0.037777778,-0.4,1,0,0,,,,,,,WRIST,LB,z,y,./images/WRISTLB.png,,break_done_button,,,,,,z,1,1.274,,,,,,,,0,83,83,109,1
,,,,,,,,,,,,,,,,,199555,18,2022-01-28_15h59.58.447,lexical_decision_task_DD_L5,2021.2.3,MacIntel,66.66666667,,,,,,,,,,,,1.576,0,,,,,,,,,,,,,,,,,,,,,,,,-0.037777778,-0.4,0,0,0,,,,,,,CRATER,HB,m,y,./images/CRATERHB.png,,,,,,,,z,0,1.576,,,,,,,,0,84,84,3,1
,,,,,,,,,,,,,,,,,199555,18,2022-01-28_15h59.58.447,lexical_decision_task_DD_L5,2021.2.3,MacIntel,66.66666667,,,,,,,,,,,,0.984,1,,,,,,,,,,,,,,,,,,,,,,,,-0.037777778,-0.4,0,0,0,,,,,,,DOUGH,LB,z,y,./images/DOUGHLB.png,,,,,,,,z,1,0.984,,,,,,,,0,85,85,103,1
,,,,,,,,,,,,,,,,,199555,18,2022-01-28_15h59.58.447,lexical_decision_task_DD_L5,2021.2.3,MacIntel,66.66666667,,,,,,,,,,,,0.574,0,,,,,,,,,,,,,,,,,,,,,,,,-0.037777778,-0.4,0,0,0,,,,,,,PAINT,LB,z,y,./images/PAINTLB.png,,,,,,,,m,0,0.574,,,,,,,,0,86,86,91,1
,,,,,,,,,,,,,,,,,199555,18,2022-01-28_15h59.58.447,lexical_decision_task_DD_L5,2021.2.3,MacIntel,66.66666667,,,,,,,,,,,,0.648,1,,,,,,,,,,,,,,,,,,,,,,,,-0.037777778,-0.4,0,0,0,,,,,,,POSTER,C,m,y,./images/POSTER.png,,,,,,,,m,1,0.648,,,,,,,,0,87,87,53,1
,,,,,,,,,,,,,,,,,199555,18,2022-01-28_15h59.58.447,lexical_decision_task_DD_L5,2021.2.3,MacIntel,66.66666667,,,,,,,,,,,,0.517,1,,,,,,,,,,,,,,,,,,,,,,,,-0.037777778,-0.4,0,0,0,,,,,,,GLOVE,LB,m,y,./images/GLOVELB.png,,,,,,,,m,1,0.517,,,,,,,,0,88,88,73,1
,,,,,,,,,,,,,,,,,199555,18,2022-01-28_15h59.58.447,lexical_decision_task_DD_L5,2021.2.3,MacIntel,66.66666667,,,,,,,,,,,,0.762,1,,,,,,,,,,,,,,,,,,,,,,,,-0.037777778,-0.4,0,0,0,,,,,,,TRIPOD,HB,z,y,./images/TRIPODHB.png,,,,,,,,z,1,0.762,,,,,,,,0,89,89,138,1
,,,,,,,,,,,,,,,,,199555,18,2022-01-28_15h59.58.447,lexical_decision_task_DD_L5,2021.2.3,MacIntel,66.66666667,,,,,,,,,,,,1.665,0,,,,,,,,,,,,,,,,,,,,,,,,-0.037777778,-0.4,0,0,0,,,,,,,BOXER,LB,m,y,./images/BOXERLB.png,,,,,,,,z,0,1.665,,,,,,,,0,90,90,4,1
,,,,,,,,,,,,,,,,,199555,18,2022-01-28_15h59.58.447,lexical_decision_task_DD_L5,2021.2.3,MacIntel,66.66666667,,,,,,,,,,,,3.094,1,,,,,,,,,,,,,,,,,,,,,,,,0.146666667,-0.222222222,0,0,0,,,,,,,HEATER,C,m,y,./images/HEATER.png,,,,,,,,m,1,3.094,,,,,,,,0,91,91,56,1
,,,,,,,,,,,,,,,,,199555,18,2022-01-28_15h59.58.447,lexical_decision_task_DD_L5,2021.2.3,MacIntel,66.66666667,,,,,,,,,,,,0.864,1,,,,,,,,,,,,,,,,,,,,,,,,0.146666667,-0.222222222,0,0,0,,,,,,,CEMENT,C,z,y,./images/CEMENT.png,,,,,,,,z,1,0.864,,,,,,,,0,92,92,158,1
,,,,,,,,,,,,,,,,,199555,18,2022-01-28_15h59.58.447,lexical_decision_task_DD_L5,2021.2.3,MacIntel,66.66666667,,,,,,,,,,,,1.417,1,,,,,,,,,,,,,,,,,,,,,,,,0.146666667,-0.222222222,0,0,0,,,,,,,CANDLE,LB,z,y,./images/CANDLELB.png,,,,,,,,z,1,1.417,,,,,,,,0,93,93,145,1
,,,,,,,,,,,,,,,,,199555,18,2022-01-28_15h59.58.447,lexical_decision_task_DD_L5,2021.2.3,MacIntel,66.66666667,,,,,,,,,,,,2.047,1,,,,,,,,,,,,,,,,,,,,,,,,0.146666667,-0.222222222,0,0,0,,,,,,,ARROW,HB,m,y,./images/ARROWHB.png,,,,,,,,m,1,2.047,,,,,,,,0,94,94,69,1
,,,,,,,,,,,,,,,,,199555,18,2022-01-28_15h59.58.447,lexical_decision_task_DD_L5,2021.2.3,MacIntel,66.66666667,,,,,,,,,,,,0.653,1,,,,,,,,,,,,,,,,,,,,,,,,0.146666667,-0.222222222,0,0,0,,,,,,,MALLET,C,z,y,./images/MALLET.png,,,,,,,,z,1,0.653,,,,,,,,0,95,95,134,1
,,,,,,,,,,,,,,,,,199555,18,2022-01-28_15h59.58.447,lexical_decision_task_DD_L5,2021.2.3,MacIntel,66.66666667,,,,,,,,,,,,0.616,1,,,,,,,,,,,,,,,,,,,,,,,,0.146666667,-0.222222222,0,0,0,,,,,,,MAMMAL,C,m,y,./images/MAMMAL.png,,,,,,,,m,1,0.616,,,,,,,,0,96,96,62,1
,,,,,,,,,,,,,,,,,199555,18,2022-01-28_15h59.58.447,lexical_decision_task_DD_L5,2021.2.3,MacIntel,66.66666667,,,,,,,,,,,,1.33,0,,,,,,,,,,,,,,,,,,,,,,,,0.146666667,-0.222222222,0,0,0,,,,,,,VALLEY,C,m,y,./images/VALLEY.png,,,,,,,,z,0,1.33,,,,,,,,0,97,97,68,1
,,,,,,,,,,,,,,,,,199555,18,2022-01-28_15h59.58.447,lexical_decision_task_DD_L5,2021.2.3,MacIntel,66.66666667,,,,,,,,,,,,0.622,1,,,,,,,,,,,,,,,,,,,,,,,,0.146666667,-0.222222222,0,0,0,,,,,,,DANCER,HB,m,y,./images/DANCERHB.png,,,,,,,,m,1,0.622,,,,,,,,0,98,98,21,1
,,,,,,,,,,,,,,,,,199555,18,2022-01-28_15h59.58.447,lexical_decision_task_DD_L5,2021.2.3,MacIntel,66.66666667,,,,,,,,,,,,1.335,1,,,,,,,,,,,,,,,,,,,,,,,,0.146666667,-0.222222222,0,0,0,,,,,,,JELLY,LB,z,y,./images/JELLYLB.png,,,,,,,,z,1,1.335,,,,,,,,0,99,99,148,1
,,,,,,,,,,,,,,,,,199555,18,2022-01-28_15h59.58.447,lexical_decision_task_DD_L5,2021.2.3,MacIntel,66.66666667,,,,,,,,,,,,1.959,0,,,,,,,,,,,,,,,,,,,,,,,,0.146666667,-0.222222222,0,0,0,,,,,,,PEBBLE,LB,m,y,./images/PEBBLELB.png,,,,,,,,z,0,1.959,,,,,,,,0,100,100,82,1
,,,,,,,,,,,,,,,,,199555,18,2022-01-28_15h59.58.447,lexical_decision_task_DD_L5,2021.2.3,MacIntel,66.66666667,,,,,,,,,,,,2.197,1,,,,,,,,,,,,,,,,,,,,,,,,0.146666667,-0.222222222,0,0,0,,,,,,,COOKER,HB,z,y,./images/COOKERHB.png,,,,,,,,z,1,2.197,,,,,,,,0,101,101,153,1
,,,,,,,,,,,,,,,,,199555,18,2022-01-28_15h59.58.447,lexical_decision_task_DD_L5,2021.2.3,MacIntel,66.66666667,,,,,,,,,,,,0.585,0,,,,,,,,,,,,,,,,,,,,,,,,0.146666667,-0.222222222,0,0,0,,,,,,,BONNET,C,z,y,./images/BONNET.png,,,,,,,,m,0,0.585,,,,,,,,0,102,102,95,1
,,,,,,,,,,,,,,,,,199555,18,2022-01-28_15h59.58.447,lexical_decision_task_DD_L5,2021.2.3,MacIntel,66.66666667,,,,,,,,,,,,0.587,1,,,,,,,,,,,,,,,,,,,,,,,,0.146666667,-0.222222222,0,0,0,,,,,,,CLOTH,C,m,y,./images/CLOTH.png,,,,,,,,m,1,0.587,,,,,,,,0,103,103,23,1
,,,,,,,,,,,,,,,,,199555,18,2022-01-28_15h59.58.447,lexical_decision_task_DD_L5,2021.2.3,MacIntel,66.66666667,,,,,,,,,,,,2.461,1,,,,,,,,,,,,,,,,,,,,,,,,0.146666667,-0.222222222,0,0,0,,,,,,,CANYON,LB,z,y,./images/CANYONLB.png,,,,,,,,z,1,2.461,,,,,,,,0,104,104,118,1
,,,,,,,,,,,,,,,,,199555,18,2022-01-28_15h59.58.447,lexical_decision_task_DD_L5,2021.2.3,MacIntel,66.66666667,,,,,,,,,,,,1.202,1,,,,,,,,,,,,,,,,,,,,,,,,0.146666667,-0.222222222,0,0,0,,,,,,,FINGER,HB,z,y,./images/FINGERHB.png,,,,,,,,z,1,1.202,,,,,,,,0,105,105,87,1
,,,,,,,,,,,,,,,,,199555,18,2022-01-28_15h59.58.447,lexical_decision_task_DD_L5,2021.2.3,MacIntel,66.66666667,,,,,,,,,,,,0.574,1,,,,,,,,,,,,,,,,,,,,,,,,0.146666667,-0.222222222,0,0,0,,,,,,,CHERRY,HB,m,y,./images/CHERRYHB.png,,,,,,,,m,1,0.574,,,,,,,,0,106,106,54,1
,,,,,,,,,,,,,,,,,199555,18,2022-01-28_15h59.58.447,lexical_decision_task_DD_L5,2021.2.3,MacIntel,66.66666667,,,,,,,,,,,,0.982,1,,,,,,,,,,,,,,,,,,,,,,,,0.146666667,-0.222222222,0,0,0,,,,,,,DIVER,HB,m,y,./images/DIVERHB.png,,,,,,,,m,1,0.982,,,,,,,,0,107,107,9,1
,,,,,,,,,,,,,,,,,199555,18,2022-01-28_15h59.58.447,lexical_decision_task_DD_L5,2021.2.3,MacIntel,66.66666667,,,,,,,,,,,,0.622,0,,,,,,,,,,,,,,,,,,,,,,,,0.146666667,-0.222222222,0,0,0,,,,,,,SAILOR,LB,z,y,./images/SAILORLB.png,,,,,,,,m,0,0.622,,,,,,,,0,108,108,151,1
,,,,,,,,,,,,,,,,,199555,18,2022-01-28_15h59.58.447,lexical_decision_task_DD_L5,2021.2.3,MacIntel,66.66666667,,,,,,,,,,,,0.751,1,,,,,,,,,,,,,,,,,,,,,,,,0.146666667,-0.222222222,0,0,0,,,,,,,FLASK,HB,m,y,./images/FLASKHB.png,,,,,,,,m,1,0.751,,,,,,,,0,109,109,72,1
,,,,,,,,,,,,,,,,,199555,18,2022-01-28_15h59.58.447,lexical_decision_task_DD_L5,2021.2.3,MacIntel,66.66666667,,,,,,,,,,,,0.669,1,,,,,,,,,,,,,,,,,,,,,,,,0.146666667,-0.222222222,0,0,0,,,,,,,FALCON,LB,z,y,./images/FALCONLB.png,,,,,,,,z,1,0.669,,,,,,,,0,110,110,112,1
,,,,,,,,,,,,,,,,,199555,18,2022-01-28_15h59.58.447,lexical_decision_task_DD_L5,2021.2.3,MacIntel,66.66666667,,,,,,,,,,,,0.658,1,,,,,,,,,,,,,,,,,,,,,,,,0.146666667,-0.222222222,0,0,0,,,,,,,BASKET,C,m,y,./images/BASKET.png,,,,,,,,m,1,0.658,,,,,,,,0,111,111,44,1
,,,,,,,,,,,,,,,,,199555,18,2022-01-28_15h59.58.447,lexical_decision_task_DD_L5,2021.2.3,MacIntel,66.66666667,,,,,,,,,,,,2.606,0,,,,,,,,,,,,,,,,,,,,,,,,0.146666667,-0.222222222,0,0,0,,,,,,,BOILER,HB,m,y,./images/BOILERHB.png,,,,,,,,z,0,2.606,,,,,,,,0,112,112,36,1
,,,,,,,,,,,,,,,,,199555,18,2022-01-28_15h59.58.447,lexical_decision_task_DD_L5,2021.2.3,MacIntel,66.66666667,,,,,,,,,,,,2.103,0,,,,,,,,,,,,,,,,,,,,,,,,0.146666667,-0.222222222,0,0,0,,,,,,,HAMMER,HB,m,y,./images/HAMMERHB.png,,,,,,,,z,0,2.103,,,,,,,,0,113,113,75,1
,,,,,,,,,,,,,,,,,199555,18,2022-01-28_15h59.58.447,lexical_decision_task_DD_L5,2021.2.3,MacIntel,66.66666667,,,,,,,,,,,,0.937,1,,,,,,,,,,,,,,,,,,,,,,,,0.146666667,-0.222222222,0,0,0,,,,,,,POKER,LB,m,y,./images/POKERLB.png,,,,,,,,m,1,0.937,,,,,,,,0,114,114,67,1
,,,,,,,,,,,,,,,,,199555,18,2022-01-28_15h59.58.447,lexical_decision_task_DD_L5,2021.2.3,MacIntel,66.66666667,,,,,,,,,,,,0.589,0,,,,,,,,,,,,,,,,,,,,,,,,0.146666667,-0.222222222,0,0,0,,,,,,,PLANK,LB,z,y,./images/PLANKLB.png,,,,,,,,m,0,0.589,,,,,,,,0,115,115,85,1
,,,,,,,,,,,,,,,,,199555,18,2022-01-28_15h59.58.447,lexical_decision_task_DD_L5,2021.2.3,MacIntel,66.66666667,,,,,,,,,,,,1.332,0,,,,,,,,,,,,,,,,,,,,,,,,0.146666667,-0.222222222,0,0,0,,,,,,,BUNNY,LB,m,y,./images/BUNNYLB.png,,,,,,,,z,0,1.332,,,,,,,,0,116,116,13,1
,,,,,,,,,,,,,,,,,199555,18,2022-01-28_15h59.58.447,lexical_decision_task_DD_L5,2021.2.3,MacIntel,66.66666667,,,,,,,,,,,,0.633,1,,,,,,,,,,,,,,,,,,,,,,,,0.146666667,-0.222222222,0,0,0,,,,,,,CANDY,HB,m,y,./images/CANDYHB.png,,,,,,,,m,1,0.633,,,,,,,,0,117,117,39,1
,,,,,,,,,,,,,,,,,199555,18,2022-01-28_15h59.58.447,lexical_decision_task_DD_L5,2021.2.3,MacIntel,66.66666667,,,,,,,,,,,,0.782,1,,,,,,,,,,,,,,,,,,,,,,,,0.146666667,-0.222222222,0,0,0,,,,,,,WEASEL,C,z,y,./images/WEASEL.png,,,,,,,,z,1,0.782,,,,,,,,0,118,118,164,1
,,,,,,,,,,,,,,,,,199555,18,2022-01-28_15h59.58.447,lexical_decision_task_DD_L5,2021.2.3,MacIntel,66.66666667,,,,,,,,,,,,2.654,1,,,,,,,,,,,,,,,,,,,,,,,,0.146666667,-0.222222222,0,0,0,,,,,,,PILOT,C,m,y,./images/PILOT.png,,,,,,,,m,1,2.654,,,,,,,,0,119,119,50,1
,,,,,,,,,,,,,,,,,199555,18,2022-01-28_15h59.58.447,lexical_decision_task_DD_L5,2021.2.3,MacIntel,66.66666667,,,,,,,,,,,,1.452,0,,,,,,,,,,,,,,,,,,,,,,,,0.146666667,-0.222222222,0,0,0,,,,,,,SLOPE,HB,m,y,./images/SLOPEHB.png,,,,,,,,z,0,1.452,,,,,,,,0,120,120,30,1
,,,,,,,,,,,,,,,,,199555,18,2022-01-28_15h59.58.447,lexical_decision_task_DD_L5,2021.2.3,MacIntel,66.66666667,,,,,,,,,,,,0.639,1,,,,,,,,,,,,,,,,,,,,,,,,0.146666667,-0.222222222,0,0,0,,,,,,,LIZARD,C,z,y,./images/LIZARD.png,,,,,,,,z,1,0.639,,,,,,,,0,121,121,128,1
,,,,,,,,,,,,,,,,,199555,18,2022-01-28_15h59.58.447,lexical_decision_task_DD_L5,2021.2.3,MacIntel,66.66666667,,,,,,,,,,,,0.715,0,,,,,,,,,,,,,,,,,,,,,,,,0.146666667,-0.222222222,0,0,0,,,,,,,SNACK,LB,z,y,./images/SNACKLB.png,,,,,,,,m,0,0.715,,,,,,,,0,122,122,157,1
,,,,,,,,,,,,,,,,,199555,18,2022-01-28_15h59.58.447,lexical_decision_task_DD_L5,2021.2.3,MacIntel,66.66666667,,,,,,,,,,,,0.588,0,,,,,,,,,,,,,,,,,,,,,,,,0.146666667,-0.222222222,0,0,0,,,,,,,CRUST,LB,z,y,./images/CRUSTLB.png,,,,,,,,m,0,0.588,,,,,,,,0,123,123,163,1
,,,,,,,,,,,,,,,,,199555,18,2022-01-28_15h59.58.447,lexical_decision_task_DD_L5,2021.2.3,MacIntel,66.66666667,,,,,,,,,,,,0.851,0,,,,,,,,,,,,,,,,,,,,,,,,0.146666667,-0.222222222,0,0,0,,,,,,,STRING,C,z,y,./images/STRING.png,,,,,,,,m,0,0.851,,,,,,,,0,124,124,125,1
,,,,,,,,,,,,,,,,,199555,18,2022-01-28_15h59.58.447,lexical_decision_task_DD_L5,2021.2.3,MacIntel,66.66666667,,,,,,,,,,,,0.667,1,,,,,,,,,,,,,,,,,,,,,,,,0.085555556,-0.404444444,1,0,0,,,,,,,GREASE,HB,z,y,./images/GREASEHB.png,,break_done_button,,,,,,z,1,0.667,,,,,,,,0,125,125,99,1
,,,,,,,,,,,,,,,,,199555,18,2022-01-28_15h59.58.447,lexical_decision_task_DD_L5,2021.2.3,MacIntel,66.66666667,,,,,,,,,,,,4.113,1,,,,,,,,,,,,,,,,,,,,,,,,0.162222222,-0.233333333,0,0,0,,,,,,,BANANA,LB,m,y,./images/BANANALB.png,,,,,,,,m,1,4.113,,,,,,,,0,126,126,70,1
,,,,,,,,,,,,,,,,,199555,18,2022-01-28_15h59.58.447,lexical_decision_task_DD_L5,2021.2.3,MacIntel,66.66666667,,,,,,,,,,,,0.699,1,,,,,,,,,,,,,,,,,,,,,,,,0.162222222,-0.233333333,0,0,0,,,,,,,LLAMA,C,m,y,./images/LLAMA.png,,,,,,,,m,1,0.699,,,,,,,,0,127,127,35,1
,,,,,,,,,,,,,,,,,199555,18,2022-01-28_15h59.58.447,lexical_decision_task_DD_L5,2021.2.3,MacIntel,66.66666667,,,,,,,,,,,,0.93,0,,,,,,,,,,,,,,,,,,,,,,,,0.162222222,-0.233333333,0,0,0,,,,,,,PLANET,C,m,y,./images/PLANET.png,,,,,,,,z,0,0.93,,,,,,,,0,128,128,80,1
,,,,,,,,,,,,,,,,,199555,18,2022-01-28_15h59.58.447,lexical_decision_task_DD_L5,2021.2.3,MacIntel,66.66666667,,,,,,,,,,,,1.498,0,,,,,,,,,,,,,,,,,,,,,,,,0.162222222,-0.233333333,0,0,0,,,,,,,PACKET,C,z,y,./images/PACKET.png,,,,,,,,m,0,1.498,,,,,,,,0,129,129,140,1
,,,,,,,,,,,,,,,,,199555,18,2022-01-28_15h59.58.447,lexical_decision_task_DD_L5,2021.2.3,MacIntel,66.66666667,,,,,,,,,,,,0.614,0,,,,,,,,,,,,,,,,,,,,,,,,0.162222222,-0.233333333,0,0,0,,,,,,,DRUMS,LB,z,y,./images/DRUMSLB.png,,,,,,,,m,0,0.614,,,,,,,,0,130,130,133,1
,,,,,,,,,,,,,,,,,199555,18,2022-01-28_15h59.58.447,lexical_decision_task_DD_L5,2021.2.3,MacIntel,66.66666667,,,,,,,,,,,,0.538,0,,,,,,,,,,,,,,,,,,,,,,,,0.162222222,-0.233333333,0,0,0,,,,,,,MIRROR,HB,z,y,./images/MIRRORHB.png,,,,,,,,m,0,0.538,,,,,,,,0,131,131,147,1
,,,,,,,,,,,,,,,,,199555,18,2022-01-28_15h59.58.447,lexical_decision_task_DD_L5,2021.2.3,MacIntel,66.66666667,,,,,,,,,,,,0.603,0,,,,,,,,,,,,,,,,,,,,,,,,0.162222222,-0.233333333,0,0,0,,,,,,,PEARL,LB,z,y,./images/PEARLLB.png,,,,,,,,m,0,0.603,,,,,,,,0,132,132,130,1
,,,,,,,,,,,,,,,,,199555,18,2022-01-28_15h59.58.447,lexical_decision_task_DD_L5,2021.2.3,MacIntel,66.66666667,,,,,,,,,,,,2.308,0,,,,,,,,,,,,,,,,,,,,,,,,0.162222222,-0.233333333,0,0,0,,,,,,,BABOON,LB,z,y,./images/BABOONLB.png,,,,,,,,m,0,2.308,,,,,,,,0,133,133,142,1
,,,,,,,,,,,,,,,,,199555,18,2022-01-28_15h59.58.447,lexical_decision_task_DD_L5,2021.2.3,MacIntel,66.66666667,,,,,,,,,,,,0.663,1,,,,,,,,,,,,,,,,,,,,,,,,0.162222222,-0.233333333,0,0,0,,,,,,,BROOM,HB,m,y,./images/BROOMHB.png,,,,,,,,m,1,0.663,,,,,,,,0,134,134,78,1
,,,,,,,,,,,,,,,,,199555,18,2022-01-28_15h59.58.447,lexical_decision_task_DD_L5,2021.2.3,MacIntel,66.66666667,,,,,,,,,,,,0.952,1,,,,,,,,,,,,,,,,,,,,,,,,0.162222222,-0.233333333,0,0,0,,,,,,,TOWEL,LB,m,y,./images/TOWELLB.png,,,,,,,,m,1,0.952,,,,,,,,0,135,135,1,1
,,,,,,,,,,,,,,,,,199555,18,2022-01-28_15h59.58.447,lexical_decision_task_DD_L5,2021.2.3,MacIntel,66.66666667,,,,,,,,,,,,3.303,0,,,,,,,,,,,,,,,,,,,,,,,,0.162222222,-0.233333333,0,0,0,,,,,,,RHINO,HB,z,y,./images/RHINOHB.png,,,,,,,,m,0,3.303,,,,,,,,0,136,136,93,1
,,,,,,,,,,,,,,,,,199555,18,2022-01-28_15h59.58.447,lexical_decision_task_DD_L5,2021.2.3,MacIntel,66.66666667,,,,,,,,,,,,0.725,0,,,,,,,,,,,,,,,,,,,,,,,,0.162222222,-0.233333333,0,0,0,,,,,,,GRAIN,HB,z,y,./images/GRAINHB.png,,,,,,,,m,0,0.725,,,,,,,,0,137,137,159,1
,,,,,,,,,,,,,,,,,199555,18,2022-01-28_15h59.58.447,lexical_decision_task_DD_L5,2021.2.3,MacIntel,66.66666667,,,,,,,,,,,,3.165,0,,,,,,,,,,,,,,,,,,,,,,,,0.162222222,-0.233333333,0,0,0,,,,,,,WHISKY,C,m,y,./images/WHISKY.png,,,,,,,,z,0,3.165,,,,,,,,0,138,138,83,1
,,,,,,,,,,,,,,,,,199555,18,2022-01-28_15h59.58.447,lexical_decision_task_DD_L5,2021.2.3,MacIntel,66.66666667,,,,,,,,,,,,0.689,1,,,,,,,,,,,,,,,,,,,,,,,,0.162222222,-0.233333333,0,0,0,,,,,,,DRILL,HB,m,y,./images/DRILLHB.png,,,,,,,,m,1,0.689,,,,,,,,0,139,139,81,1
,,,,,,,,,,,,,,,,,199555,18,2022-01-28_15h59.58.447,lexical_decision_task_DD_L5,2021.2.3,MacIntel,66.66666667,,,,,,,,,,,,0.727,1,,,,,,,,,,,,,,,,,,,,,,,,0.162222222,-0.233333333,0,0,0,,,,,,,ATTIC,HB,z,y,./images/ATTICHB.png,,,,,,,,z,1,0.727,,,,,,,,0,140,140,111,1
,,,,,,,,,,,,,,,,,199555,18,2022-01-28_15h59.58.447,lexical_decision_task_DD_L5,2021.2.3,MacIntel,66.66666667,,,,,,,,,,,,1.216,1,,,,,,,,,,,,,,,,,,,,,,,,0.162222222,-0.233333333,0,0,0,,,,,,,SNAKE,LB,m,y,./images/SNAKELB.png,,,,,,,,m,1,1.216,,,,,,,,0,141,141,40,1
,,,,,,,,,,,,,,,,,199555,18,2022-01-28_15h59.58.447,lexical_decision_task_DD_L5,2021.2.3,MacIntel,66.66666667,,,,,,,,,,,,0.6,1,,,,,,,,,,,,,,,,,,,,,,,,0.162222222,-0.233333333,0,0,0,,,,,,,CHAIN,HB,m,y,./images/CHAINHB.png,,,,,,,,m,1,0.6,,,,,,,,0,142,142,42,1
,,,,,,,,,,,,,,,,,199555,18,2022-01-28_15h59.58.447,lexical_decision_task_DD_L5,2021.2.3,MacIntel,66.66666667,,,,,,,,,,,,1.175,0,,,,,,,,,,,,,,,,,,,,,,,,0.162222222,-0.233333333,0,0,0,,,,,,,MOTOR,LB,z,y,./images/MOTORLB.png,,,,,,,,m,0,1.175,,,,,,,,0,143,143,97,1
,,,,,,,,,,,,,,,,,199555,18,2022-01-28_15h59.58.447,lexical_decision_task_DD_L5,2021.2.3,MacIntel,66.66666667,,,,,,,,,,,,0.916,1,,,,,,,,,,,,,,,,,,,,,,,,0.162222222,-0.233333333,0,0,0,,,,,,,CASINO,LB,m,y,./images/CASINOLB.png,,,,,,,,m,1,0.916,,,,,,,,0,144,144,28,1
,,,,,,,,,,,,,,,,,199555,18,2022-01-28_15h59.58.447,lexical_decision_task_DD_L5,2021.2.3,MacIntel,66.66666667,,,,,,,,,,,,0.655,0,,,,,,,,,,,,,,,,,,,,,,,,0.162222222,-0.233333333,0,0,0,,,,,,,PEACH,C,z,y,./images/PEACH.png,,,,,,,,m,0,0.655,,,,,,,,0,145,145,119,1
,,,,,,,,,,,,,,,,,199555,18,2022-01-28_15h59.58.447,lexical_decision_task_DD_L5,2021.2.3,MacIntel,66.66666667,,,,,,,,,,,,1.829,0,,,,,,,,,,,,,,,,,,,,,,,,0.162222222,-0.233333333,0,0,0,,,,,,,CRUMB,C,z,y,./images/CRUMB.png,,,,,,,,m,0,1.829,,,,,,,,0,146,146,113,1
,,,,,,,,,,,,,,,,,199555,18,2022-01-28_15h59.58.447,lexical_decision_task_DD_L5,2021.2.3,MacIntel,66.66666667,,,,,,,,,,,,0.767,1,,,,,,,,,,,,,,,,,,,,,,,,0.162222222,-0.233333333,0,0,0,,,,,,,THROAT,HB,z,y,./images/THROATHB.png,,,,,,,,z,1,0.767,,,,,,,,0,147,147,120,1
,,,,,,,,,,,,,,,,,199555,18,2022-01-28_15h59.58.447,lexical_decision_task_DD_L5,2021.2.3,MacIntel,66.66666667,,,,,,,,,,,,0.805,1,,,,,,,,,,,,,,,,,,,,,,,,0.162222222,-0.233333333,0,0,0,,,,,,,WALNUT,HB,m,y,./images/WALNUTHB.png,,,,,,,,m,1,0.805,,,,,,,,0,148,148,0,1
,,,,,,,,,,,,,,,,,199555,18,2022-01-28_15h59.58.447,lexical_decision_task_DD_L5,2021.2.3,MacIntel,66.66666667,,,,,,,,,,,,0.684,1,,,,,,,,,,,,,,,,,,,,,,,,0.162222222,-0.233333333,0,0,0,,,,,,,CLOWN,LB,m,y,./images/CLOWNLB.png,,,,,,,,m,1,0.684,,,,,,,,0,149,149,22,1
,,,,,,,,,,,,,,,,,199555,18,2022-01-28_15h59.58.447,lexical_decision_task_DD_L5,2021.2.3,MacIntel,66.66666667,,,,,,,,,,,,0.969,1,,,,,,,,,,,,,,,,,,,,,,,,0.162222222,-0.233333333,0,0,0,,,,,,,SHIELD,HB,m,y,./images/SHIELDHB.png,,,,,,,,m,1,0.969,,,,,,,,0,150,150,48,1
,,,,,,,,,,,,,,,,,199555,18,2022-01-28_15h59.58.447,lexical_decision_task_DD_L5,2021.2.3,MacIntel,66.66666667,,,,,,,,,,,,2.51,1,,,,,,,,,,,,,,,,,,,,,,,,0.162222222,-0.233333333,0,0,0,,,,,,,BANNER,LB,z,y,./images/BANNERLB.png,,,,,,,,z,1,2.51,,,,,,,,0,151,151,136,1
,,,,,,,,,,,,,,,,,199555,18,2022-01-28_15h59.58.447,lexical_decision_task_DD_L5,2021.2.3,MacIntel,66.66666667,,,,,,,,,,,,1.271,1,,,,,,,,,,,,,,,,,,,,,,,,0.162222222,-0.233333333,0,0,0,,,,,,,BEARD,C,z,y,./images/BEARD.png,,,,,,,,z,1,1.271,,,,,,,,0,152,152,86,1
,,,,,,,,,,,,,,,,,199555,18,2022-01-28_15h59.58.447,lexical_decision_task_DD_L5,2021.2.3,MacIntel,66.66666667,,,,,,,,,,,,1.024,0,,,,,,,,,,,,,,,,,,,,,,,,0.162222222,-0.233333333,0,0,0,,,,,,,FARMER,C,z,y,./images/FARMER.png,,,,,,,,m,0,1.024,,,,,,,,0,153,153,149,1
,,,,,,,,,,,,,,,,,199555,18,2022-01-28_15h59.58.447,lexical_decision_task_DD_L5,2021.2.3,MacIntel,66.66666667,,,,,,,,,,,,2.817,1,,,,,,,,,,,,,,,,,,,,,,,,0.162222222,-0.233333333,0,0,0,,,,,,,JUNGLE,C,z,y,./images/JUNGLE.png,,,,,,,,z,1,2.817,,,,,,,,0,154,154,167,1
,,,,,,,,,,,,,,,,,199555,18,2022-01-28_15h59.58.447,lexical_decision_task_DD_L5,2021.2.3,MacIntel,66.66666667,,,,,,,,,,,,2.961,1,,,,,,,,,,,,,,,,,,,,,,,,0.162222222,-0.233333333,0,0,0,,,,,,,TIGER,LB,m,y,./images/TIGERLB.png,,,,,,,,m,1,2.961,,,,,,,,0,155,155,37,1
,,,,,,,,,,,,,,,,,199555,18,2022-01-28_15h59.58.447,lexical_decision_task_DD_L5,2021.2.3,MacIntel,66.66666667,,,,,,,,,,,,0.783,1,,,,,,,,,,,,,,,,,,,,,,,,0.162222222,-0.233333333,0,0,0,,,,,,,RAZOR,LB,m,y,./images/RAZORLB.png,,,,,,,,m,1,0.783,,,,,,,,0,156,156,34,1
,,,,,,,,,,,,,,,,,199555,18,2022-01-28_15h59.58.447,lexical_decision_task_DD_L5,2021.2.3,MacIntel,66.66666667,,,,,,,,,,,,2.082,0,,,,,,,,,,,,,,,,,,,,,,,,0.162222222,-0.233333333,0,0,0,,,,,,,STEAK,LB,m,y,./images/STEAKLB.png,,,,,,,,z,0,2.082,,,,,,,,0,157,157,31,1
,,,,,,,,,,,,,,,,,199555,18,2022-01-28_15h59.58.447,lexical_decision_task_DD_L5,2021.2.3,MacIntel,66.66666667,,,,,,,,,,,,0.683,1,,,,,,,,,,,,,,,,,,,,,,,,0.162222222,-0.233333333,0,0,0,,,,,,,FERRY,HB,m,y,./images/FERRYHB.png,,,,,,,,m,1,0.683,,,,,,,,0,158,158,57,1
,,,,,,,,,,,,,,,,,199555,18,2022-01-28_15h59.58.447,lexical_decision_task_DD_L5,2021.2.3,MacIntel,66.66666667,,,,,,,,,,,,2.007,0,,,,,,,,,,,,,,,,,,,,,,,,0.162222222,-0.233333333,0,0,0,,,,,,,TULIP,C,z,y,./images/TULIP.png,,,,,,,,m,0,2.007,,,,,,,,0,159,159,92,1
,,,,,,,,,,,,,,,,,199555,18,2022-01-28_15h59.58.447,lexical_decision_task_DD_L5,2021.2.3,MacIntel,66.66666667,,,,,,,,,,,,0.688,0,,,,,,,,,,,,,,,,,,,,,,,,0.162222222,-0.233333333,0,0,0,,,,,,,SWEAT,HB,z,y,./images/SWEATHB.png,,,,,,,,m,0,0.688,,,,,,,,0,160,160,150,1
,,,,,,,,,,,,,,,,,199555,18,2022-01-28_15h59.58.447,lexical_decision_task_DD_L5,2021.2.3,MacIntel,66.66666667,,,,,,,,,,,,0.975,1,,,,,,,,,,,,,,,,,,,,,,,,0.162222222,-0.233333333,0,0,0,,,,,,,PARCEL,HB,m,y,./images/PARCELHB.png,,,,,,,,m,1,0.975,,,,,,,,0,161,161,18,1
,,,,,,,,,,,,,,,,,199555,18,2022-01-28_15h59.58.447,lexical_decision_task_DD_L5,2021.2.3,MacIntel,66.66666667,,,,,,,,,,,,0.618,1,,,,,,,,,,,,,,,,,,,,,,,,0.162222222,-0.233333333,0,0,0,,,,,,,KIDNEY,HB,z,y,./images/KIDNEYHB.png,,,,,,,,z,1,0.618,,,,,,,,0,162,162,105,1
,,,,,,,,,,,,,,,,,199555,18,2022-01-28_15h59.58.447,lexical_decision_task_DD_L5,2021.2.3,MacIntel,66.66666667,,,,,,,,,,,,0.71,1,,,,,,,,,,,,,,,,,,,,,,,,0.162222222,-0.233333333,0,0,0,,,,,,,BERRY,C,z,y,./images/BERRY.png,,,,,,,,z,1,0.71,,,,,,,,0,163,163,131,1
,,,,,,,,,,,,,,,,,199555,18,2022-01-28_15h59.58.447,lexical_decision_task_DD_L5,2021.2.3,MacIntel,66.66666667,,,,,,,,,,,,2.711,1,,,,,,,,,,,,,,,,,,,,,,,,0.162222222,-0.233333333,0,0,0,,,,,,,BUTTER,HB,m,y,./images/BUTTERHB.png,,,,,,,,m,1,2.711,,,,,,,,0,164,164,27,1
,,,,,,,,,,,,,,,,,199555,18,2022-01-28_15h59.58.447,lexical_decision_task_DD_L5,2021.2.3,MacIntel,66.66666667,,,,,,,,,,,,0.737,1,,,,,,,,,,,,,,,,,,,,,,,,0.162222222,-0.233333333,0,0,0,,,,,,,STREAM,C,m,y,./images/STREAM.png,,,,,,,,m,1,0.737,,,,,,,,0,165,165,41,1
,,,,,,,,,,,,,,,,,199555,18,2022-01-28_15h59.58.447,lexical_decision_task_DD_L5,2021.2.3,MacIntel,66.66666667,,,,,,,,,,,,0.867,1,,,,,,,,,,,,,,,,,,,,,,,,0.162222222,-0.233333333,0,0,0,,,,,,,STOVE,C,m,y,./images/STOVE.png,,,,,,,,m,1,0.867,,,,,,,,0,166,166,2,1
,,,,,,,,,,,,,,,,,199555,18,2022-01-28_15h59.58.447,lexical_decision_task_DD_L5,2021.2.3,MacIntel,66.66666667,,,,,,,,,,,,4.181,0,,,,,,,,,,,,,,,,,,,,,,,,0.162222222,-0.233333333,0,0,0,,,,,,,BAMBOO,C,m,y,./images/BAMBOO.png,,,,,,,,z,0,4.181,,,,,,,,0,167,167,5,1
