key_resp.keys,instr_done_touch.x,instr_done_touch.y,instr_done_touch.leftButton,instr_done_touch.midButton,instr_done_touch.rightButton,instr_done_touch.clicked_name,instruction_pages.thisRepN,instruction_pages.thisTrialN,instruction_pages.thisN,instruction_pages.thisIndex,instruction_pages.ran,pageN,phase,instruct_text,has_image,instruct_image,participant,age,date,expName,psychopyVersion,OS,frameRate,key_resp.rt,response.keys,response.corr,response.rt,touch_resp.x,touch_resp.y,touch_resp.leftButton,touch_resp.midButton,touch_resp.rightButton,touch_resp.time,touch_resp.clicked_name,rt,corr,practrials.thisRepN,practrials.thisTrialN,practrials.thisN,practrials.thisIndex,practrials.ran,TrialID,Target,corrAns,end_of_practice_trials_pages.thisRepN,end_of_practice_trials_pages.thisTrialN,end_of_practice_trials_pages.thisN,end_of_practice_trials_pages.thisIndex,end_of_practice_trials_pages.ran,key_resp_2.keys,key_resp_2.corr,key_resp_2.rt,targ_click.x,targ_click.y,targ_click.leftButton,targ_click.midButton,targ_click.rightButton,targ_click.time,targ_click.clicked_name,break_done_touch.x,break_done_touch.y,break_done_touch.leftButton,break_done_touch.midButton,break_done_touch.rightButton,break_done_keyboard.keys,maintrials.thisRepN,maintrials.thisTrialN,maintrials.thisN,maintrials.thisIndex,maintrials.ran,string,blur,study,lex,stim_path,break_done_keyboard.rt,test_instructions.thisRepN,test_instructions.thisTrialN,test_instructions.thisN,test_instructions.thisIndex,test_instructions.ran,key_resp_3.keys,key_resp_3.corr,key_resp_3.rt,test_click.x,test_click.y,test_click.leftButton,test_click.midButton,test_click.rightButton,test_click.time,test_click.clicked_name,test_phase.thisRepN,test_phase.thisTrialN,test_phase.thisN,test_phase.thisIndex,test_phase.ran
,0.037962977,-0.406481495,1,0,0,instr_done_button,0,0,0,0,1,1,instructions,"INSTRUCTIONS
At the start of each trial, look at the plus sign  (+) in the center of the screen.  This tells you that a trial is about to begin and where to look. Second, the plus sign will disappear and a string of letters will appear. Your task is to determine if the string of letters is a word or not. If the item is a word press the M key (on keyboard)  or touch the word button (phone/tablet).  If the item is not a word,  press the  Z key (on keyboard)  or touch the nonword button (on phone/tablet). 
Press the space bar or touch  continue.",0,,199507,19,2022-01-28_17h07.23.236,lexical_decision_task_DD_L2,2021.2.3,Win32,58.09225049,,,,,,,,,,,,,,,,,,,,,,,,,,,,,,,,,,,,,,,,,,,,,,,,,,,,,,,,,,,,,,,,,,,,,,,,,
space,0.037962977,-0.406481495,0,0,0,,0,1,1,1,1,2,instructions,"If your device has a keyboard, press the 'Z' key for nonwords and the 'M' key for words.





Press the space bar or touch the button below to continue.",0,keyboard-example.gif,199507,19,2022-01-28_17h07.23.236,lexical_decision_task_DD_L2,2021.2.3,Win32,58.09225049,14.8587,,,,,,,,,,,,,,,,,,,,,,,,,,,,,,,,,,,,,,,,,,,,,,,,,,,,,,,,,,,,,,,,,,,,,,,,
space,0.037962977,-0.406481495,0,0,0,,0,2,2,2,1,3,instructions,"If you are using a touchscreen only device, use the buttons on the screen. Do not use the mouse.





Press the space bar or touch the button below to continue.",0,touchscreen-example.gif,199507,19,2022-01-28_17h07.23.236,lexical_decision_task_DD_L2,2021.2.3,Win32,58.09225049,4.7037,,,,,,,,,,,,,,,,,,,,,,,,,,,,,,,,,,,,,,,,,,,,,,,,,,,,,,,,,,,,,,,,,,,,,,,,
space,-0.070370358,0.104629624,0,0,0,,0,3,3,3,1,4,instructions,"It is very important that you respond as quickly and accurately as possible, as each letter string will only be on the screen for two seconds. If you do not respond within this time, the message 'Too slow!' will be displayed and the experiment will progress to the next letter string. The first 20 trials will be practice trials and you will receive feedback on your answers. 

Press the space bar or touch the button below to start the practice trials.",0,,199507,19,2022-01-28_17h07.23.236,lexical_decision_task_DD_L2,2021.2.3,Win32,58.09225049,15.8548,,,,,,,,,,,,,,,,,,,,,,,,,,,,,,,,,,,,,,,,,,,,,,,,,,,,,,,,,,,,,,,,,,,,,,,,
,,,,,,,,,,,,,,,,,199507,19,2022-01-28_17h07.23.236,lexical_decision_task_DD_L2,2021.2.3,Win32,58.09225049,,m,0,2.086,,,,,,,,2.086,0,0,0,0,11,1,1001,RASHET,z,,,,,,,,,,,,,,,,,,,,,,,,,,,,,,,,,,,,,,,,,,,,,,,,,,,,
,,,,,,,,,,,,,,,,,199507,19,2022-01-28_17h07.23.236,lexical_decision_task_DD_L2,2021.2.3,Win32,58.09225049,,m,1,1.1083,,,,,,,,1.1083,1,0,1,1,5,1,1001,OBTAIN,m,,,,,,,,,,,,,,,,,,,,,,,,,,,,,,,,,,,,,,,,,,,,,,,,,,,,
,,,,,,,,,,,,,,,,,199507,19,2022-01-28_17h07.23.236,lexical_decision_task_DD_L2,2021.2.3,Win32,58.09225049,,z,1,1.3116,,,,,,,,1.3116,1,0,2,2,8,1,1001,ASLERT,z,,,,,,,,,,,,,,,,,,,,,,,,,,,,,,,,,,,,,,,,,,,,,,,,,,,,
,,,,,,,,,,,,,,,,,199507,19,2022-01-28_17h07.23.236,lexical_decision_task_DD_L2,2021.2.3,Win32,58.09225049,,z,1,0.89,,,,,,,,0.89,1,0,3,3,12,1,1001,SPRINY,z,,,,,,,,,,,,,,,,,,,,,,,,,,,,,,,,,,,,,,,,,,,,,,,,,,,,
,,,,,,,,,,,,,,,,,199507,19,2022-01-28_17h07.23.236,lexical_decision_task_DD_L2,2021.2.3,Win32,58.09225049,,m,1,0.5254,,,,,,,,0.5254,1,0,4,4,6,1,1001,ZOMBIE,m,,,,,,,,,,,,,,,,,,,,,,,,,,,,,,,,,,,,,,,,,,,,,,,,,,,,
,,,,,,,,,,,,,,,,,199507,19,2022-01-28_17h07.23.236,lexical_decision_task_DD_L2,2021.2.3,Win32,58.09225049,,m,1,0.5386,,,,,,,,0.5386,1,0,5,5,2,1,1001,ALMOND,m,,,,,,,,,,,,,,,,,,,,,,,,,,,,,,,,,,,,,,,,,,,,,,,,,,,,
,,,,,,,,,,,,,,,,,199507,19,2022-01-28_17h07.23.236,lexical_decision_task_DD_L2,2021.2.3,Win32,58.09225049,,z,1,0.7598,,,,,,,,0.7598,1,0,6,6,14,1,1001,THRALE,z,,,,,,,,,,,,,,,,,,,,,,,,,,,,,,,,,,,,,,,,,,,,,,,,,,,,
,,,,,,,,,,,,,,,,,199507,19,2022-01-28_17h07.23.236,lexical_decision_task_DD_L2,2021.2.3,Win32,58.09225049,,m,1,0.5453,,,,,,,,0.5453,1,0,7,7,0,1,1001,UTOPIA,m,,,,,,,,,,,,,,,,,,,,,,,,,,,,,,,,,,,,,,,,,,,,,,,,,,,,
,,,,,,,,,,,,,,,,,199507,19,2022-01-28_17h07.23.236,lexical_decision_task_DD_L2,2021.2.3,Win32,58.09225049,,m,1,0.4698,,,,,,,,0.4698,1,0,8,8,7,1,1001,VOLUME,m,,,,,,,,,,,,,,,,,,,,,,,,,,,,,,,,,,,,,,,,,,,,,,,,,,,,
,,,,,,,,,,,,,,,,,199507,19,2022-01-28_17h07.23.236,lexical_decision_task_DD_L2,2021.2.3,Win32,58.09225049,,z,1,0.6625,,,,,,,,0.6625,1,0,9,9,10,1,1001,INLADE,z,,,,,,,,,,,,,,,,,,,,,,,,,,,,,,,,,,,,,,,,,,,,,,,,,,,,
,,,,,,,,,,,,,,,,,199507,19,2022-01-28_17h07.23.236,lexical_decision_task_DD_L2,2021.2.3,Win32,58.09225049,,z,1,0.8004,,,,,,,,0.8004,1,0,10,10,9,1,1001,FARINY,z,,,,,,,,,,,,,,,,,,,,,,,,,,,,,,,,,,,,,,,,,,,,,,,,,,,,
,,,,,,,,,,,,,,,,,199507,19,2022-01-28_17h07.23.236,lexical_decision_task_DD_L2,2021.2.3,Win32,58.09225049,,z,1,0.7073,,,,,,,,0.7073,1,0,11,11,15,1,1001,WHAISE,z,,,,,,,,,,,,,,,,,,,,,,,,,,,,,,,,,,,,,,,,,,,,,,,,,,,,
,,,,,,,,,,,,,,,,,199507,19,2022-01-28_17h07.23.236,lexical_decision_task_DD_L2,2021.2.3,Win32,58.09225049,,z,1,0.4803,,,,,,,,0.4803,1,0,12,12,13,1,1001,ROUPET,z,,,,,,,,,,,,,,,,,,,,,,,,,,,,,,,,,,,,,,,,,,,,,,,,,,,,
,,,,,,,,,,,,,,,,,199507,19,2022-01-28_17h07.23.236,lexical_decision_task_DD_L2,2021.2.3,Win32,58.09225049,,m,1,0.5996,,,,,,,,0.5996,1,0,13,13,1,1,1001,ADJUST,m,,,,,,,,,,,,,,,,,,,,,,,,,,,,,,,,,,,,,,,,,,,,,,,,,,,,
,,,,,,,,,,,,,,,,,199507,19,2022-01-28_17h07.23.236,lexical_decision_task_DD_L2,2021.2.3,Win32,58.09225049,,m,1,0.5004,,,,,,,,0.5004,1,0,14,14,4,1,1001,SQUEAK,m,,,,,,,,,,,,,,,,,,,,,,,,,,,,,,,,,,,,,,,,,,,,,,,,,,,,
,,,,,,,,,,,,,,,,,199507,19,2022-01-28_17h07.23.236,lexical_decision_task_DD_L2,2021.2.3,Win32,58.09225049,,m,1,0.5564,,,,,,,,0.5564,1,0,15,15,3,1,1001,MATRIX,m,,,,,,,,,,,,,,,,,,,,,,,,,,,,,,,,,,,,,,,,,,,,,,,,,,,,
,-0.076851783,-0.374074087,1,0,0,instr_done_button,,,,,,1,end_of_practice,"You have completed the practice trials. During the experimental trials, you will not receive feedback. 
Before you begin, please ensure that you are in a comfortable and quiet location and will not be disturbed for about 15 minutes, as we cannot use your data if you do not complete all the trials. 
 When you are ready to start the experimental trials, please press space or touch the button below.",,,199507,19,2022-01-28_17h07.23.236,lexical_decision_task_DD_L2,2021.2.3,Win32,58.09225049,,,,,,,,,,,,,,,,,,,,,,0,0,0,0,1,,,,,,,,,,,,,,,,,,,,,,,,,,,,,,,,,,,,,,,,,,,,,,,
,,,,,,,,,,,,,,,,,199507,19,2022-01-28_17h07.23.236,lexical_decision_task_DD_L2,2021.2.3,Win32,58.09225049,,,,,,,,,,,,1.1912,1,,,,,,,,,,,,,,m,1,1.1912,,,,,,,,-0.076851783,-0.374074087,0,0,0,,0,0,0,72,1,NOOSE,HB,old,m,./images/NOOSEHB.png,,,,,,,,,,,,,,,,,,,,,
,,,,,,,,,,,,,,,,,199507,19,2022-01-28_17h07.23.236,lexical_decision_task_DD_L2,2021.2.3,Win32,58.09225049,,,,,,,,,,,,1.0565,1,,,,,,,,,,,,,,z,1,1.0565,,,,,,,,-0.076851783,-0.374074087,0,0,0,,0,1,1,167,1,ZONET,LB,old,z,./images/ZONETLB.png,,,,,,,,,,,,,,,,,,,,,
,,,,,,,,,,,,,,,,,199507,19,2022-01-28_17h07.23.236,lexical_decision_task_DD_L2,2021.2.3,Win32,58.09225049,,,,,,,,,,,,0.5806,1,,,,,,,,,,,,,,m,1,0.5806,,,,,,,,-0.076851783,-0.374074087,0,0,0,,0,2,2,38,1,LADDER,C,old,m,./images/LADDER.png,,,,,,,,,,,,,,,,,,,,,
,,,,,,,,,,,,,,,,,199507,19,2022-01-28_17h07.23.236,lexical_decision_task_DD_L2,2021.2.3,Win32,58.09225049,,,,,,,,,,,,0.6477,1,,,,,,,,,,,,,,z,1,0.6477,,,,,,,,-0.076851783,-0.374074087,0,0,0,,0,3,3,87,1,TRING,C,old,z,./images/TRING.png,,,,,,,,,,,,,,,,,,,,,
,,,,,,,,,,,,,,,,,199507,19,2022-01-28_17h07.23.236,lexical_decision_task_DD_L2,2021.2.3,Win32,58.09225049,,,,,,,,,,,,0.6402,1,,,,,,,,,,,,,,m,1,0.6402,,,,,,,,-0.076851783,-0.374074087,0,0,0,,0,4,4,75,1,GRAIN,HB,old,m,./images/GRAINHB.png,,,,,,,,,,,,,,,,,,,,,
,,,,,,,,,,,,,,,,,199507,19,2022-01-28_17h07.23.236,lexical_decision_task_DD_L2,2021.2.3,Win32,58.09225049,,,,,,,,,,,,0.7134,1,,,,,,,,,,,,,,z,1,0.7134,,,,,,,,-0.076851783,-0.374074087,0,0,0,,0,5,5,164,1,SGREW,LB,old,z,./images/SGREWLB.png,,,,,,,,,,,,,,,,,,,,,
,,,,,,,,,,,,,,,,,199507,19,2022-01-28_17h07.23.236,lexical_decision_task_DD_L2,2021.2.3,Win32,58.09225049,,,,,,,,,,,,0.5363,1,,,,,,,,,,,,,,m,1,0.5363,,,,,,,,-0.076851783,-0.374074087,0,0,0,,0,6,6,66,1,SWEAT,HB,old,m,./images/SWEATHB.png,,,,,,,,,,,,,,,,,,,,,
,,,,,,,,,,,,,,,,,199507,19,2022-01-28_17h07.23.236,lexical_decision_task_DD_L2,2021.2.3,Win32,58.09225049,,,,,,,,,,,,0.7547,1,,,,,,,,,,,,,,m,1,0.7547,,,,,,,,-0.076851783,-0.374074087,0,0,0,,0,7,7,57,1,MOOSE,HB,old,m,./images/MOOSEHB.png,,,,,,,,,,,,,,,,,,,,,
,,,,,,,,,,,,,,,,,199507,19,2022-01-28_17h07.23.236,lexical_decision_task_DD_L2,2021.2.3,Win32,58.09225049,,,,,,,,,,,,0.7741,0,,,,,,,,,,,,,,m,0,0.7741,,,,,,,,-0.076851783,-0.374074087,0,0,0,,0,8,8,104,1,GITTY,LB,old,z,./images/GITTYLB.png,,,,,,,,,,,,,,,,,,,,,
,,,,,,,,,,,,,,,,,199507,19,2022-01-28_17h07.23.236,lexical_decision_task_DD_L2,2021.2.3,Win32,58.09225049,,,,,,,,,,,,0.7153,1,,,,,,,,,,,,,,m,1,0.7153,,,,,,,,-0.076851783,-0.374074087,0,0,0,,0,9,9,59,1,BURIAL,C,old,m,./images/BURIAL.png,,,,,,,,,,,,,,,,,,,,,
,,,,,,,,,,,,,,,,,199507,19,2022-01-28_17h07.23.236,lexical_decision_task_DD_L2,2021.2.3,Win32,58.09225049,,,,,,,,,,,,0.6449,1,,,,,,,,,,,,,,m,1,0.6449,,,,,,,,-0.076851783,-0.374074087,0,0,0,,0,10,10,47,1,BERRY,C,old,m,./images/BERRY.png,,,,,,,,,,,,,,,,,,,,,
,,,,,,,,,,,,,,,,,199507,19,2022-01-28_17h07.23.236,lexical_decision_task_DD_L2,2021.2.3,Win32,58.09225049,,,,,,,,,,,,1.1299,1,,,,,,,,,,,,,,z,1,1.1299,,,,,,,,-0.076851783,-0.374074087,0,0,0,,0,11,11,88,1,GLUSH,HB,old,z,./images/GLUSHHB.png,,,,,,,,,,,,,,,,,,,,,
,,,,,,,,,,,,,,,,,199507,19,2022-01-28_17h07.23.236,lexical_decision_task_DD_L2,2021.2.3,Win32,58.09225049,,,,,,,,,,,,0.7074,1,,,,,,,,,,,,,,z,1,0.7074,,,,,,,,-0.076851783,-0.374074087,0,0,0,,0,12,12,155,1,CANGY,LB,old,z,./images/CANGYLB.png,,,,,,,,,,,,,,,,,,,,,
,,,,,,,,,,,,,,,,,199507,19,2022-01-28_17h07.23.236,lexical_decision_task_DD_L2,2021.2.3,Win32,58.09225049,,,,,,,,,,,,1.7189,1,,,,,,,,,,,,,,z,1,1.7189,,,,,,,,-0.076851783,-0.374074087,0,0,0,,0,13,13,112,1,MYING,HB,old,z,./images/MYINGHB.png,,,,,,,,,,,,,,,,,,,,,
,,,,,,,,,,,,,,,,,199507,19,2022-01-28_17h07.23.236,lexical_decision_task_DD_L2,2021.2.3,Win32,58.09225049,,,,,,,,,,,,0.715,1,,,,,,,,,,,,,,z,1,0.715,,,,,,,,-0.076851783,-0.374074087,0,0,0,,0,14,14,144,1,NAIRY,C,old,z,./images/NAIRY.png,,,,,,,,,,,,,,,,,,,,,
,,,,,,,,,,,,,,,,,199507,19,2022-01-28_17h07.23.236,lexical_decision_task_DD_L2,2021.2.3,Win32,58.09225049,,,,,,,,,,,,0.8176,1,,,,,,,,,,,,,,m,1,0.8176,,,,,,,,-0.076851783,-0.374074087,0,0,0,,0,15,15,45,1,KITTEN,HB,old,m,./images/KITTENHB.png,,,,,,,,,,,,,,,,,,,,,
,,,,,,,,,,,,,,,,,199507,19,2022-01-28_17h07.23.236,lexical_decision_task_DD_L2,2021.2.3,Win32,58.09225049,,,,,,,,,,,,0.5548,1,,,,,,,,,,,,,,m,1,0.5548,,,,,,,,-0.076851783,-0.374074087,0,0,0,,0,16,16,81,1,POODLE,HB,old,m,./images/POODLEHB.png,,,,,,,,,,,,,,,,,,,,,
,,,,,,,,,,,,,,,,,199507,19,2022-01-28_17h07.23.236,lexical_decision_task_DD_L2,2021.2.3,Win32,58.09225049,,,,,,,,,,,,1.7263,1,,,,,,,,,,,,,,z,1,1.7263,,,,,,,,-0.076851783,-0.374074087,0,0,0,,0,17,17,85,1,CHULK,HB,old,z,./images/CHULKHB.png,,,,,,,,,,,,,,,,,,,,,
,,,,,,,,,,,,,,,,,199507,19,2022-01-28_17h07.23.236,lexical_decision_task_DD_L2,2021.2.3,Win32,58.09225049,,,,,,,,,,,,0.9358,0,,,,,,,,,,,,,,m,0,0.9358,,,,,,,,-0.076851783,-0.374074087,0,0,0,,0,18,18,162,1,LEICH,C,old,z,./images/LEICH.png,,,,,,,,,,,,,,,,,,,,,
,,,,,,,,,,,,,,,,,199507,19,2022-01-28_17h07.23.236,lexical_decision_task_DD_L2,2021.2.3,Win32,58.09225049,,,,,,,,,,,,1.9231,1,,,,,,,,,,,,,,z,1,1.9231,,,,,,,,-0.076851783,-0.374074087,0,0,0,,0,19,19,109,1,BURGE,HB,old,z,./images/BURGEHB.png,,,,,,,,,,,,,,,,,,,,,
,,,,,,,,,,,,,,,,,199507,19,2022-01-28_17h07.23.236,lexical_decision_task_DD_L2,2021.2.3,Win32,58.09225049,,,,,,,,,,,,1.2223,1,,,,,,,,,,,,,,m,1,1.2223,,,,,,,,-0.076851783,-0.374074087,0,0,0,,0,20,20,43,1,MOSQUE,LB,old,m,./images/MOSQUELB.png,,,,,,,,,,,,,,,,,,,,,
,,,,,,,,,,,,,,,,,199507,19,2022-01-28_17h07.23.236,lexical_decision_task_DD_L2,2021.2.3,Win32,58.09225049,,,,,,,,,,,,1.4226,1,,,,,,,,,,,,,,z,1,1.4226,,,,,,,,-0.076851783,-0.374074087,0,0,0,,0,21,21,166,1,SHORY,HB,old,z,./images/SHORYHB.png,,,,,,,,,,,,,,,,,,,,,
,,,,,,,,,,,,,,,,,199507,19,2022-01-28_17h07.23.236,lexical_decision_task_DD_L2,2021.2.3,Win32,58.09225049,,,,,,,,,,,,1.5997,1,,,,,,,,,,,,,,z,1,1.5997,,,,,,,,-0.076851783,-0.374074087,0,0,0,,0,22,22,94,1,BLANS,HB,old,z,./images/BLANSHB.png,,,,,,,,,,,,,,,,,,,,,
,,,,,,,,,,,,,,,,,199507,19,2022-01-28_17h07.23.236,lexical_decision_task_DD_L2,2021.2.3,Win32,58.09225049,,,,,,,,,,,,0.7612,1,,,,,,,,,,,,,,z,1,0.7612,,,,,,,,-0.076851783,-0.374074087,0,0,0,,0,23,23,128,1,GRIFT,LB,old,z,./images/GRIFTLB.png,,,,,,,,,,,,,,,,,,,,,
,,,,,,,,,,,,,,,,,199507,19,2022-01-28_17h07.23.236,lexical_decision_task_DD_L2,2021.2.3,Win32,58.09225049,,,,,,,,,,,,0.6525,1,,,,,,,,,,,,,,z,1,0.6525,,,,,,,,-0.076851783,-0.374074087,0,0,0,,0,24,24,134,1,TROSS,LB,old,z,./images/TROSSLB.png,,,,,,,,,,,,,,,,,,,,,
,,,,,,,,,,,,,,,,,199507,19,2022-01-28_17h07.23.236,lexical_decision_task_DD_L2,2021.2.3,Win32,58.09225049,,,,,,,,,,,,0.6757,1,,,,,,,,,,,,,,m,1,0.6757,,,,,,,,-0.076851783,-0.374074087,0,0,0,,0,25,25,73,1,SNACK,LB,old,m,./images/SNACKLB.png,,,,,,,,,,,,,,,,,,,,,
,,,,,,,,,,,,,,,,,199507,19,2022-01-28_17h07.23.236,lexical_decision_task_DD_L2,2021.2.3,Win32,58.09225049,,,,,,,,,,,,0.6728,1,,,,,,,,,,,,,,m,1,0.6728,,,,,,,,-0.076851783,-0.374074087,0,0,0,,0,26,26,54,1,TRIPOD,HB,old,m,./images/TRIPODHB.png,,,,,,,,,,,,,,,,,,,,,
,,,,,,,,,,,,,,,,,199507,19,2022-01-28_17h07.23.236,lexical_decision_task_DD_L2,2021.2.3,Win32,58.09225049,,,,,,,,,,,,0.576,1,,,,,,,,,,,,,,z,1,0.576,,,,,,,,-0.076851783,-0.374074087,0,0,0,,0,27,27,161,1,BLAPS,LB,old,z,./images/BLAPSLB.png,,,,,,,,,,,,,,,,,,,,,
,,,,,,,,,,,,,,,,,199507,19,2022-01-28_17h07.23.236,lexical_decision_task_DD_L2,2021.2.3,Win32,58.09225049,,,,,,,,,,,,0.6392,1,,,,,,,,,,,,,,z,1,0.6392,,,,,,,,-0.076851783,-0.374074087,0,0,0,,0,28,28,150,1,NOOLS,C,old,z,./images/NOOLS.png,,,,,,,,,,,,,,,,,,,,,
,,,,,,,,,,,,,,,,,199507,19,2022-01-28_17h07.23.236,lexical_decision_task_DD_L2,2021.2.3,Win32,58.09225049,,,,,,,,,,,,0.8135,1,,,,,,,,,,,,,,m,1,0.8135,,,,,,,,-0.076851783,-0.374074087,0,0,0,,0,29,29,23,1,WALRUS,C,old,m,./images/WALRUS.png,,,,,,,,,,,,,,,,,,,,,
,,,,,,,,,,,,,,,,,199507,19,2022-01-28_17h07.23.236,lexical_decision_task_DD_L2,2021.2.3,Win32,58.09225049,,,,,,,,,,,,0.5877,1,,,,,,,,,,,,,,m,1,0.5877,,,,,,,,-0.076851783,-0.374074087,0,0,0,,0,30,30,13,1,MOTOR,LB,old,m,./images/MOTORLB.png,,,,,,,,,,,,,,,,,,,,,
,,,,,,,,,,,,,,,,,199507,19,2022-01-28_17h07.23.236,lexical_decision_task_DD_L2,2021.2.3,Win32,58.09225049,,,,,,,,,,,,0.7027,1,,,,,,,,,,,,,,m,1,0.7027,,,,,,,,-0.076851783,-0.374074087,0,0,0,,0,31,31,58,1,BABOON,LB,old,m,./images/BABOONLB.png,,,,,,,,,,,,,,,,,,,,,
,,,,,,,,,,,,,,,,,199507,19,2022-01-28_17h07.23.236,lexical_decision_task_DD_L2,2021.2.3,Win32,58.09225049,,,,,,,,,,,,0.5669,1,,,,,,,,,,,,,,m,1,0.5669,,,,,,,,-0.076851783,-0.374074087,0,0,0,,0,32,32,2,1,BEARD,C,old,m,./images/BEARD.png,,,,,,,,,,,,,,,,,,,,,
,,,,,,,,,,,,,,,,,199507,19,2022-01-28_17h07.23.236,lexical_decision_task_DD_L2,2021.2.3,Win32,58.09225049,,,,,,,,,,,,1.2597,1,,,,,,,,,,,,,,z,1,1.2597,,,,,,,,-0.076851783,-0.374074087,0,0,0,,0,33,33,121,1,CEERS,HB,old,z,./images/CEERSHB.png,,,,,,,,,,,,,,,,,,,,,
,,,,,,,,,,,,,,,,,199507,19,2022-01-28_17h07.23.236,lexical_decision_task_DD_L2,2021.2.3,Win32,58.09225049,,,,,,,,,,,,1.441,1,,,,,,,,,,,,,,z,1,1.441,,,,,,,,-0.076851783,-0.374074087,0,0,0,,0,34,34,154,1,THINT,HB,old,z,./images/THINTHB.png,,,,,,,,,,,,,,,,,,,,,
,,,,,,,,,,,,,,,,,199507,19,2022-01-28_17h07.23.236,lexical_decision_task_DD_L2,2021.2.3,Win32,58.09225049,,,,,,,,,,,,0.8478,1,,,,,,,,,,,,,,m,1,0.8478,,,,,,,,-0.076851783,-0.374074087,0,0,0,,0,35,35,17,1,SKIING,C,old,m,./images/SKIING.png,,,,,,,,,,,,,,,,,,,,,
,,,,,,,,,,,,,,,,,199507,19,2022-01-28_17h07.23.236,lexical_decision_task_DD_L2,2021.2.3,Win32,58.09225049,,,,,,,,,,,,0.5948,1,,,,,,,,,,,,,,m,1,0.5948,,,,,,,,-0.076851783,-0.374074087,0,0,0,,0,36,36,49,1,DRUMS,LB,old,m,./images/DRUMSLB.png,,,,,,,,,,,,,,,,,,,,,
,,,,,,,,,,,,,,,,,199507,19,2022-01-28_17h07.23.236,lexical_decision_task_DD_L2,2021.2.3,Win32,58.09225049,,,,,,,,,,,,0.6058,1,,,,,,,,,,,,,,m,1,0.6058,,,,,,,,-0.076851783,-0.374074087,0,0,0,,0,37,37,34,1,CANYON,LB,old,m,./images/CANYONLB.png,,,,,,,,,,,,,,,,,,,,,
,,,,,,,,,,,,,,,,,199507,19,2022-01-28_17h07.23.236,lexical_decision_task_DD_L2,2021.2.3,Win32,58.09225049,,,,,,,,,,,,0.6043,1,,,,,,,,,,,,,,z,1,0.6043,,,,,,,,-0.076851783,-0.374074087,0,0,0,,0,38,38,99,1,BACKY,C,old,z,./images/BACKY.png,,,,,,,,,,,,,,,,,,,,,
,,,,,,,,,,,,,,,,,199507,19,2022-01-28_17h07.23.236,lexical_decision_task_DD_L2,2021.2.3,Win32,58.09225049,,,,,,,,,,,,0.7393,1,,,,,,,,,,,,,,z,1,0.7393,,,,,,,,-0.076851783,-0.374074087,0,0,0,,0,39,39,107,1,FASKS,LB,old,z,./images/FASKSLB.png,,,,,,,,,,,,,,,,,,,,,
,,,,,,,,,,,,,,,,,199507,19,2022-01-28_17h07.23.236,lexical_decision_task_DD_L2,2021.2.3,Win32,58.09225049,,,,,,,,,,,,0.7171,1,,,,,,,,,,,,,,m,1,0.7171,,,,,,,,-0.076851783,-0.374074087,0,0,0,,0,40,40,39,1,SHELF,HB,old,m,./images/SHELFHB.png,,,,,,,,,,,,,,,,,,,,,
,,,,,,,,,,,,,,,,,199507,19,2022-01-28_17h07.23.236,lexical_decision_task_DD_L2,2021.2.3,Win32,58.09225049,,,,,,,,,,,,0.718,1,,,,,,,,,,,,,,m,1,0.718,,,,,,,,-0.076851783,-0.374074087,0,0,0,space,0,41,41,18,1,JAGUAR,HB,old,m,./images/JAGUARHB.png,13.2678,,,,,,,,,,,,,,,,,,,,
,,,,,,,,,,,,,,,,,199507,19,2022-01-28_17h07.23.236,lexical_decision_task_DD_L2,2021.2.3,Win32,58.09225049,,,,,,,,,,,,0.8708,1,,,,,,,,,,,,,,z,1,0.8708,,,,,,,,-0.076851783,-0.374074087,0,0,0,,0,42,42,90,1,NEAST,C,old,z,./images/NEAST.png,,,,,,,,,,,,,,,,,,,,,
,,,,,,,,,,,,,,,,,199507,19,2022-01-28_17h07.23.236,lexical_decision_task_DD_L2,2021.2.3,Win32,58.09225049,,,,,,,,,,,,0.5668,1,,,,,,,,,,,,,,m,1,0.5668,,,,,,,,-0.076851783,-0.374074087,0,0,0,,0,43,43,27,1,ATTIC,HB,old,m,./images/ATTICHB.png,,,,,,,,,,,,,,,,,,,,,
,,,,,,,,,,,,,,,,,199507,19,2022-01-28_17h07.23.236,lexical_decision_task_DD_L2,2021.2.3,Win32,58.09225049,,,,,,,,,,,,0.6131,1,,,,,,,,,,,,,,m,1,0.6131,,,,,,,,-0.076851783,-0.374074087,0,0,0,,0,44,44,50,1,MALLET,C,old,m,./images/MALLET.png,,,,,,,,,,,,,,,,,,,,,
,,,,,,,,,,,,,,,,,199507,19,2022-01-28_17h07.23.236,lexical_decision_task_DD_L2,2021.2.3,Win32,58.09225049,,,,,,,,,,,,0.5554,1,,,,,,,,,,,,,,m,1,0.5554,,,,,,,,-0.076851783,-0.374074087,0,0,0,,0,45,45,51,1,ONION,HB,old,m,./images/ONIONHB.png,,,,,,,,,,,,,,,,,,,,,
,,,,,,,,,,,,,,,,,199507,19,2022-01-28_17h07.23.236,lexical_decision_task_DD_L2,2021.2.3,Win32,58.09225049,,,,,,,,,,,,0.6007,1,,,,,,,,,,,,,,z,1,0.6007,,,,,,,,-0.076851783,-0.374074087,0,0,0,,0,46,46,122,1,BLOOT,LB,old,z,./images/BLOOTLB.png,,,,,,,,,,,,,,,,,,,,,
,,,,,,,,,,,,,,,,,199507,19,2022-01-28_17h07.23.236,lexical_decision_task_DD_L2,2021.2.3,Win32,58.09225049,,,,,,,,,,,,0.5444,1,,,,,,,,,,,,,,m,1,0.5444,,,,,,,,-0.076851783,-0.374074087,0,0,0,,0,47,47,20,1,CRADLE,C,old,m,./images/CRADLE.png,,,,,,,,,,,,,,,,,,,,,
,,,,,,,,,,,,,,,,,199507,19,2022-01-28_17h07.23.236,lexical_decision_task_DD_L2,2021.2.3,Win32,58.09225049,,,,,,,,,,,,0.6116,1,,,,,,,,,,,,,,m,1,0.6116,,,,,,,,-0.076851783,-0.374074087,0,0,0,,0,48,48,60,1,TWINS,HB,old,m,./images/TWINSHB.png,,,,,,,,,,,,,,,,,,,,,
,,,,,,,,,,,,,,,,,199507,19,2022-01-28_17h07.23.236,lexical_decision_task_DD_L2,2021.2.3,Win32,58.09225049,,,,,,,,,,,,0.6556,1,,,,,,,,,,,,,,z,1,0.6556,,,,,,,,-0.076851783,-0.374074087,0,0,0,,0,49,49,101,1,GLEET,LB,old,z,./images/GLEETLB.png,,,,,,,,,,,,,,,,,,,,,
,,,,,,,,,,,,,,,,,199507,19,2022-01-28_17h07.23.236,lexical_decision_task_DD_L2,2021.2.3,Win32,58.09225049,,,,,,,,,,,,0.5842,1,,,,,,,,,,,,,,z,1,0.5842,,,,,,,,-0.076851783,-0.374074087,0,0,0,,0,50,50,95,1,HANTY,LB,old,z,./images/HANTYLB.png,,,,,,,,,,,,,,,,,,,,,
,,,,,,,,,,,,,,,,,199507,19,2022-01-28_17h07.23.236,lexical_decision_task_DD_L2,2021.2.3,Win32,58.09225049,,,,,,,,,,,,1.0036,1,,,,,,,,,,,,,,z,1,1.0036,,,,,,,,-0.076851783,-0.374074087,0,0,0,,0,51,51,136,1,WERVE,HB,old,z,./images/WERVEHB.png,,,,,,,,,,,,,,,,,,,,,
,,,,,,,,,,,,,,,,,199507,19,2022-01-28_17h07.23.236,lexical_decision_task_DD_L2,2021.2.3,Win32,58.09225049,,,,,,,,,,,,0.6104,1,,,,,,,,,,,,,,m,1,0.6104,,,,,,,,-0.076851783,-0.374074087,0,0,0,,0,52,52,30,1,STORM,HB,old,m,./images/STORMHB.png,,,,,,,,,,,,,,,,,,,,,
,,,,,,,,,,,,,,,,,199507,19,2022-01-28_17h07.23.236,lexical_decision_task_DD_L2,2021.2.3,Win32,58.09225049,,,,,,,,,,,,0.5563,1,,,,,,,,,,,,,,m,1,0.5563,,,,,,,,-0.076851783,-0.374074087,0,0,0,,0,53,53,6,1,SQUARE,HB,old,m,./images/SQUAREHB.png,,,,,,,,,,,,,,,,,,,,,
,,,,,,,,,,,,,,,,,199507,19,2022-01-28_17h07.23.236,lexical_decision_task_DD_L2,2021.2.3,Win32,58.09225049,,,,,,,,,,,,0.5789,1,,,,,,,,,,,,,,m,1,0.5789,,,,,,,,-0.076851783,-0.374074087,0,0,0,,0,54,54,40,1,SWING,LB,old,m,./images/SWINGLB.png,,,,,,,,,,,,,,,,,,,,,
,,,,,,,,,,,,,,,,,199507,19,2022-01-28_17h07.23.236,lexical_decision_task_DD_L2,2021.2.3,Win32,58.09225049,,,,,,,,,,,,1.1728,1,,,,,,,,,,,,,,m,1,1.1728,,,,,,,,-0.076851783,-0.374074087,0,0,0,,0,55,55,83,1,JUNGLE,C,old,m,./images/JUNGLE.png,,,,,,,,,,,,,,,,,,,,,
,,,,,,,,,,,,,,,,,199507,19,2022-01-28_17h07.23.236,lexical_decision_task_DD_L2,2021.2.3,Win32,58.09225049,,,,,,,,,,,,0.5947,1,,,,,,,,,,,,,,m,1,0.5947,,,,,,,,-0.076851783,-0.374074087,0,0,0,,0,56,56,31,1,QUILL,LB,old,m,./images/QUILLLB.png,,,,,,,,,,,,,,,,,,,,,
,,,,,,,,,,,,,,,,,199507,19,2022-01-28_17h07.23.236,lexical_decision_task_DD_L2,2021.2.3,Win32,58.09225049,,,,,,,,,,,,0.4628,0,,,,,,,,,,,,,,z,0,0.4628,,,,,,,,-0.076851783,-0.374074087,0,0,0,,0,57,57,5,1,PASTA,C,old,m,./images/PASTA.png,,,,,,,,,,,,,,,,,,,,,
,,,,,,,,,,,,,,,,,199507,19,2022-01-28_17h07.23.236,lexical_decision_task_DD_L2,2021.2.3,Win32,58.09225049,,,,,,,,,,,,0.6499,1,,,,,,,,,,,,,,m,1,0.6499,,,,,,,,-0.076851783,-0.374074087,0,0,0,,0,58,58,65,1,FARMER,C,old,m,./images/FARMER.png,,,,,,,,,,,,,,,,,,,,,
,,,,,,,,,,,,,,,,,199507,19,2022-01-28_17h07.23.236,lexical_decision_task_DD_L2,2021.2.3,Win32,58.09225049,,,,,,,,,,,,0.7218,1,,,,,,,,,,,,,,z,1,0.7218,,,,,,,,-0.076851783,-0.374074087,0,0,0,,0,59,59,138,1,PLICE,C,old,z,./images/PLICE.png,,,,,,,,,,,,,,,,,,,,,
,,,,,,,,,,,,,,,,,199507,19,2022-01-28_17h07.23.236,lexical_decision_task_DD_L2,2021.2.3,Win32,58.09225049,,,,,,,,,,,,0.5714,1,,,,,,,,,,,,,,z,1,0.5714,,,,,,,,-0.076851783,-0.374074087,0,0,0,,0,60,60,141,1,PLEET,C,old,z,./images/PLEET.png,,,,,,,,,,,,,,,,,,,,,
,,,,,,,,,,,,,,,,,199507,19,2022-01-28_17h07.23.236,lexical_decision_task_DD_L2,2021.2.3,Win32,58.09225049,,,,,,,,,,,,0.7159,1,,,,,,,,,,,,,,z,1,0.7159,,,,,,,,-0.076851783,-0.374074087,0,0,0,,0,61,61,152,1,FRAIN,LB,old,z,./images/FRAINLB.png,,,,,,,,,,,,,,,,,,,,,
,,,,,,,,,,,,,,,,,199507,19,2022-01-28_17h07.23.236,lexical_decision_task_DD_L2,2021.2.3,Win32,58.09225049,,,,,,,,,,,,0.7425,1,,,,,,,,,,,,,,m,1,0.7425,,,,,,,,-0.076851783,-0.374074087,0,0,0,,0,62,62,10,1,BELLY,LB,old,m,./images/BELLYLB.png,,,,,,,,,,,,,,,,,,,,,
,,,,,,,,,,,,,,,,,199507,19,2022-01-28_17h07.23.236,lexical_decision_task_DD_L2,2021.2.3,Win32,58.09225049,,,,,,,,,,,,0.6161,1,,,,,,,,,,,,,,m,1,0.6161,,,,,,,,-0.076851783,-0.374074087,0,0,0,,0,63,63,14,1,PICKLE,C,old,m,./images/PICKLE.png,,,,,,,,,,,,,,,,,,,,,
,,,,,,,,,,,,,,,,,199507,19,2022-01-28_17h07.23.236,lexical_decision_task_DD_L2,2021.2.3,Win32,58.09225049,,,,,,,,,,,,1.4344,1,,,,,,,,,,,,,,z,1,1.4344,,,,,,,,-0.076851783,-0.374074087,0,0,0,,0,64,64,97,1,CHIDS,HB,old,z,./images/CHIDSHB.png,,,,,,,,,,,,,,,,,,,,,
,,,,,,,,,,,,,,,,,199507,19,2022-01-28_17h07.23.236,lexical_decision_task_DD_L2,2021.2.3,Win32,58.09225049,,,,,,,,,,,,1.0793,1,,,,,,,,,,,,,,z,1,1.0793,,,,,,,,-0.076851783,-0.374074087,0,0,0,,0,65,65,106,1,CLUMS,HB,old,z,./images/CLUMSHB.png,,,,,,,,,,,,,,,,,,,,,
,,,,,,,,,,,,,,,,,199507,19,2022-01-28_17h07.23.236,lexical_decision_task_DD_L2,2021.2.3,Win32,58.09225049,,,,,,,,,,,,0.802,1,,,,,,,,,,,,,,z,1,0.802,,,,,,,,-0.076851783,-0.374074087,0,0,0,,0,66,66,108,1,GRUET,C,old,z,./images/GRUET.png,,,,,,,,,,,,,,,,,,,,,
,,,,,,,,,,,,,,,,,199507,19,2022-01-28_17h07.23.236,lexical_decision_task_DD_L2,2021.2.3,Win32,58.09225049,,,,,,,,,,,,0.574,1,,,,,,,,,,,,,,m,1,0.574,,,,,,,,-0.076851783,-0.374074087,0,0,0,,0,67,67,46,1,PEARL,LB,old,m,./images/PEARLLB.png,,,,,,,,,,,,,,,,,,,,,
,,,,,,,,,,,,,,,,,199507,19,2022-01-28_17h07.23.236,lexical_decision_task_DD_L2,2021.2.3,Win32,58.09225049,,,,,,,,,,,,0.6836,1,,,,,,,,,,,,,,m,1,0.6836,,,,,,,,-0.076851783,-0.374074087,0,0,0,,0,68,68,48,1,SPORT,HB,old,m,./images/SPORTHB.png,,,,,,,,,,,,,,,,,,,,,
,,,,,,,,,,,,,,,,,199507,19,2022-01-28_17h07.23.236,lexical_decision_task_DD_L2,2021.2.3,Win32,58.09225049,,,,,,,,,,,,0.8199,1,,,,,,,,,,,,,,m,1,0.8199,,,,,,,,-0.076851783,-0.374074087,0,0,0,,0,69,69,61,1,CANDLE,LB,old,m,./images/CANDLELB.png,,,,,,,,,,,,,,,,,,,,,
,,,,,,,,,,,,,,,,,199507,19,2022-01-28_17h07.23.236,lexical_decision_task_DD_L2,2021.2.3,Win32,58.09225049,,,,,,,,,,,,0.5356,1,,,,,,,,,,,,,,m,1,0.5356,,,,,,,,-0.076851783,-0.374074087,0,0,0,,0,70,70,26,1,SMOKER,C,old,m,./images/SMOKER.png,,,,,,,,,,,,,,,,,,,,,
,,,,,,,,,,,,,,,,,199507,19,2022-01-28_17h07.23.236,lexical_decision_task_DD_L2,2021.2.3,Win32,58.09225049,,,,,,,,,,,,0.533,1,,,,,,,,,,,,,,m,1,0.533,,,,,,,,-0.076851783,-0.374074087,0,0,0,,0,71,71,64,1,JELLY,LB,old,m,./images/JELLYLB.png,,,,,,,,,,,,,,,,,,,,,
,,,,,,,,,,,,,,,,,199507,19,2022-01-28_17h07.23.236,lexical_decision_task_DD_L2,2021.2.3,Win32,58.09225049,,,,,,,,,,,,0.593,1,,,,,,,,,,,,,,m,1,0.593,,,,,,,,-0.076851783,-0.374074087,0,0,0,,0,72,72,11,1,BONNET,C,old,m,./images/BONNET.png,,,,,,,,,,,,,,,,,,,,,
,,,,,,,,,,,,,,,,,199507,19,2022-01-28_17h07.23.236,lexical_decision_task_DD_L2,2021.2.3,Win32,58.09225049,,,,,,,,,,,,1.4379,1,,,,,,,,,,,,,,m,1,1.4379,,,,,,,,-0.076851783,-0.374074087,0,0,0,,0,73,73,44,1,LIZARD,C,old,m,./images/LIZARD.png,,,,,,,,,,,,,,,,,,,,,
,,,,,,,,,,,,,,,,,199507,19,2022-01-28_17h07.23.236,lexical_decision_task_DD_L2,2021.2.3,Win32,58.09225049,,,,,,,,,,,,1.1704,1,,,,,,,,,,,,,,z,1,1.1704,,,,,,,,-0.076851783,-0.374074087,0,0,0,,0,74,74,145,1,LAMEL,HB,old,z,./images/LAMELHB.png,,,,,,,,,,,,,,,,,,,,,
,,,,,,,,,,,,,,,,,199507,19,2022-01-28_17h07.23.236,lexical_decision_task_DD_L2,2021.2.3,Win32,58.09225049,,,,,,,,,,,,1.4837,1,,,,,,,,,,,,,,z,1,1.4837,,,,,,,,-0.076851783,-0.374074087,0,0,0,,0,75,75,127,1,NINDY,HB,old,z,./images/NINDYHB.png,,,,,,,,,,,,,,,,,,,,,
,,,,,,,,,,,,,,,,,199507,19,2022-01-28_17h07.23.236,lexical_decision_task_DD_L2,2021.2.3,Win32,58.09225049,,,,,,,,,,,,0.6026,1,,,,,,,,,,,,,,m,1,0.6026,,,,,,,,-0.076851783,-0.374074087,0,0,0,,0,76,76,63,1,MIRROR,HB,old,m,./images/MIRRORHB.png,,,,,,,,,,,,,,,,,,,,,
,,,,,,,,,,,,,,,,,199507,19,2022-01-28_17h07.23.236,lexical_decision_task_DD_L2,2021.2.3,Win32,58.09225049,,,,,,,,,,,,0.6984,1,,,,,,,,,,,,,,m,1,0.6984,,,,,,,,-0.076851783,-0.374074087,0,0,0,,0,77,77,1,1,PLANK,LB,old,m,./images/PLANKLB.png,,,,,,,,,,,,,,,,,,,,,
,,,,,,,,,,,,,,,,,199507,19,2022-01-28_17h07.23.236,lexical_decision_task_DD_L2,2021.2.3,Win32,58.09225049,,,,,,,,,,,,0.6225,1,,,,,,,,,,,,,,m,1,0.6225,,,,,,,,-0.076851783,-0.374074087,0,0,0,,0,78,78,82,1,SUNSET,LB,old,m,./images/SUNSETLB.png,,,,,,,,,,,,,,,,,,,,,
,,,,,,,,,,,,,,,,,199507,19,2022-01-28_17h07.23.236,lexical_decision_task_DD_L2,2021.2.3,Win32,58.09225049,,,,,,,,,,,,0.6046,1,,,,,,,,,,,,,,m,1,0.6046,,,,,,,,-0.076851783,-0.374074087,0,0,0,,0,79,79,53,1,CARPET,C,old,m,./images/CARPET.png,,,,,,,,,,,,,,,,,,,,,
,,,,,,,,,,,,,,,,,199507,19,2022-01-28_17h07.23.236,lexical_decision_task_DD_L2,2021.2.3,Win32,58.09225049,,,,,,,,,,,,0.5569,1,,,,,,,,,,,,,,m,1,0.5569,,,,,,,,-0.076851783,-0.374074087,0,0,0,,0,80,80,68,1,TORCH,C,old,m,./images/TORCH.png,,,,,,,,,,,,,,,,,,,,,
,,,,,,,,,,,,,,,,,199507,19,2022-01-28_17h07.23.236,lexical_decision_task_DD_L2,2021.2.3,Win32,58.09225049,,,,,,,,,,,,1.0554,1,,,,,,,,,,,,,,m,1,1.0554,,,,,,,,-0.076851783,-0.374074087,0,0,0,,0,81,81,78,1,LITTER,HB,old,m,./images/LITTERHB.png,,,,,,,,,,,,,,,,,,,,,
,,,,,,,,,,,,,,,,,199507,19,2022-01-28_17h07.23.236,lexical_decision_task_DD_L2,2021.2.3,Win32,58.09225049,,,,,,,,,,,,0.9742,1,,,,,,,,,,,,,,z,1,0.9742,,,,,,,,-0.076851783,-0.374074087,0,0,0,,0,82,82,142,1,PLASK,HB,old,z,./images/PLASKHB.png,,,,,,,,,,,,,,,,,,,,,
,,,,,,,,,,,,,,,,,199507,19,2022-01-28_17h07.23.236,lexical_decision_task_DD_L2,2021.2.3,Win32,58.09225049,,,,,,,,,,,,1.1606,1,,,,,,,,,,,,,,z,1,1.1606,,,,,,,,-0.076851783,-0.374074087,0,0,0,space,0,83,83,139,1,BLEAR,HB,old,z,./images/BLEARHB.png,1.9474,,,,,,,,,,,,,,,,,,,,
,,,,,,,,,,,,,,,,,199507,19,2022-01-28_17h07.23.236,lexical_decision_task_DD_L2,2021.2.3,Win32,58.09225049,,,,,,,,,,,,3.2815,0,,,,,,,,,,,,,,m,0,3.2815,,,,,,,,-0.076851783,-0.374074087,0,0,0,,0,84,84,143,1,MONGS,LB,old,z,./images/MONGSLB.png,,,,,,,,,,,,,,,,,,,,,
,,,,,,,,,,,,,,,,,199507,19,2022-01-28_17h07.23.236,lexical_decision_task_DD_L2,2021.2.3,Win32,58.09225049,,,,,,,,,,,,0.5159,1,,,,,,,,,,,,,,m,1,0.5159,,,,,,,,-0.076851783,-0.374074087,0,0,0,,0,85,85,29,1,CRUMB,C,old,m,./images/CRUMB.png,,,,,,,,,,,,,,,,,,,,,
,,,,,,,,,,,,,,,,,199507,19,2022-01-28_17h07.23.236,lexical_decision_task_DD_L2,2021.2.3,Win32,58.09225049,,,,,,,,,,,,0.6409,1,,,,,,,,,,,,,,z,1,0.6409,,,,,,,,-0.076851783,-0.374074087,0,0,0,,0,86,86,119,1,PAFER,LB,old,z,./images/PAFERLB.png,,,,,,,,,,,,,,,,,,,,,
,,,,,,,,,,,,,,,,,199507,19,2022-01-28_17h07.23.236,lexical_decision_task_DD_L2,2021.2.3,Win32,58.09225049,,,,,,,,,,,,1.8111,0,,,,,,,,,,,,,,m,0,1.8111,,,,,,,,-0.076851783,-0.374074087,0,0,0,,0,87,87,130,1,CRILL,HB,old,z,./images/CRILLHB.png,,,,,,,,,,,,,,,,,,,,,
,,,,,,,,,,,,,,,,,199507,19,2022-01-28_17h07.23.236,lexical_decision_task_DD_L2,2021.2.3,Win32,58.09225049,,,,,,,,,,,,0.9898,0,,,,,,,,,,,,,,m,0,0.9898,,,,,,,,-0.076851783,-0.374074087,0,0,0,,0,88,88,96,1,KEAMS,C,old,z,./images/KEAMS.png,,,,,,,,,,,,,,,,,,,,,
,,,,,,,,,,,,,,,,,199507,19,2022-01-28_17h07.23.236,lexical_decision_task_DD_L2,2021.2.3,Win32,58.09225049,,,,,,,,,,,,0.6603,1,,,,,,,,,,,,,,z,1,0.6603,,,,,,,,-0.076851783,-0.374074087,0,0,0,,0,89,89,98,1,BAMPS,LB,old,z,./images/BAMPSLB.png,,,,,,,,,,,,,,,,,,,,,
,,,,,,,,,,,,,,,,,199507,19,2022-01-28_17h07.23.236,lexical_decision_task_DD_L2,2021.2.3,Win32,58.09225049,,,,,,,,,,,,0.6495,1,,,,,,,,,,,,,,m,1,0.6495,,,,,,,,-0.076851783,-0.374074087,0,0,0,,0,90,90,62,1,PURSE,C,old,m,./images/PURSE.png,,,,,,,,,,,,,,,,,,,,,
,,,,,,,,,,,,,,,,,199507,19,2022-01-28_17h07.23.236,lexical_decision_task_DD_L2,2021.2.3,Win32,58.09225049,,,,,,,,,,,,0.8745,1,,,,,,,,,,,,,,z,1,0.8745,,,,,,,,-0.076851783,-0.374074087,0,0,0,,0,91,91,124,1,TUNCH,HB,old,z,./images/TUNCHHB.png,,,,,,,,,,,,,,,,,,,,,
,,,,,,,,,,,,,,,,,199507,19,2022-01-28_17h07.23.236,lexical_decision_task_DD_L2,2021.2.3,Win32,58.09225049,,,,,,,,,,,,0.6556,1,,,,,,,,,,,,,,m,1,0.6556,,,,,,,,-0.076851783,-0.374074087,0,0,0,,0,92,92,71,1,PIMPLE,C,old,m,./images/PIMPLE.png,,,,,,,,,,,,,,,,,,,,,
,,,,,,,,,,,,,,,,,199507,19,2022-01-28_17h07.23.236,lexical_decision_task_DD_L2,2021.2.3,Win32,58.09225049,,,,,,,,,,,,0.5822,1,,,,,,,,,,,,,,m,1,0.5822,,,,,,,,-0.076851783,-0.374074087,0,0,0,,0,93,93,28,1,FALCON,LB,old,m,./images/FALCONLB.png,,,,,,,,,,,,,,,,,,,,,
,,,,,,,,,,,,,,,,,199507,19,2022-01-28_17h07.23.236,lexical_decision_task_DD_L2,2021.2.3,Win32,58.09225049,,,,,,,,,,,,0.6416,1,,,,,,,,,,,,,,z,1,0.6416,,,,,,,,-0.076851783,-0.374074087,0,0,0,,0,94,94,129,1,PRANS,C,old,z,./images/PRANS.png,,,,,,,,,,,,,,,,,,,,,
,,,,,,,,,,,,,,,,,199507,19,2022-01-28_17h07.23.236,lexical_decision_task_DD_L2,2021.2.3,Win32,58.09225049,,,,,,,,,,,,0.5079,1,,,,,,,,,,,,,,m,1,0.5079,,,,,,,,-0.076851783,-0.374074087,0,0,0,,0,95,95,42,1,FOLDER,HB,old,m,./images/FOLDERHB.png,,,,,,,,,,,,,,,,,,,,,
,,,,,,,,,,,,,,,,,199507,19,2022-01-28_17h07.23.236,lexical_decision_task_DD_L2,2021.2.3,Win32,58.09225049,,,,,,,,,,,,0.7618,1,,,,,,,,,,,,,,z,1,0.7618,,,,,,,,-0.076851783,-0.374074087,0,0,0,,0,96,96,92,1,PAIMS,LB,old,z,./images/PAIMSLB.png,,,,,,,,,,,,,,,,,,,,,
,,,,,,,,,,,,,,,,,199507,19,2022-01-28_17h07.23.236,lexical_decision_task_DD_L2,2021.2.3,Win32,58.09225049,,,,,,,,,,,,0.7084,1,,,,,,,,,,,,,,m,1,0.7084,,,,,,,,-0.076851783,-0.374074087,0,0,0,,0,97,97,12,1,SHORE,HB,old,m,./images/SHOREHB.png,,,,,,,,,,,,,,,,,,,,,
,,,,,,,,,,,,,,,,,199507,19,2022-01-28_17h07.23.236,lexical_decision_task_DD_L2,2021.2.3,Win32,58.09225049,,,,,,,,,,,,0.5406,1,,,,,,,,,,,,,,m,1,0.5406,,,,,,,,-0.076851783,-0.374074087,0,0,0,,0,98,98,74,1,CEMENT,C,old,m,./images/CEMENT.png,,,,,,,,,,,,,,,,,,,,,
,,,,,,,,,,,,,,,,,199507,19,2022-01-28_17h07.23.236,lexical_decision_task_DD_L2,2021.2.3,Win32,58.09225049,,,,,,,,,,,,0.6787,0,,,,,,,,,,,,,,z,0,0.6787,,,,,,,,-0.076851783,-0.374074087,0,0,0,,0,99,99,16,1,PENCE,LB,old,m,./images/PENCELB.png,,,,,,,,,,,,,,,,,,,,,
,,,,,,,,,,,,,,,,,199507,19,2022-01-28_17h07.23.236,lexical_decision_task_DD_L2,2021.2.3,Win32,58.09225049,,,,,,,,,,,,3.2045,1,,,,,,,,,,,,,,z,1,3.2045,,,,,,,,-0.076851783,-0.374074087,0,0,0,,0,100,100,135,1,JOODY,C,old,z,./images/JOODY.png,,,,,,,,,,,,,,,,,,,,,
,,,,,,,,,,,,,,,,,199507,19,2022-01-28_17h07.23.236,lexical_decision_task_DD_L2,2021.2.3,Win32,58.09225049,,,,,,,,,,,,0.9289,1,,,,,,,,,,,,,,z,1,0.9289,,,,,,,,-0.076851783,-0.374074087,0,0,0,,0,101,101,137,1,JOOST,LB,old,z,./images/JOOSTLB.png,,,,,,,,,,,,,,,,,,,,,
,,,,,,,,,,,,,,,,,199507,19,2022-01-28_17h07.23.236,lexical_decision_task_DD_L2,2021.2.3,Win32,58.09225049,,,,,,,,,,,,1.2033,1,,,,,,,,,,,,,,m,1,1.2033,,,,,,,,-0.076851783,-0.374074087,0,0,0,,0,102,102,0,1,TOMATO,HB,old,m,./images/TOMATOHB.png,,,,,,,,,,,,,,,,,,,,,
,,,,,,,,,,,,,,,,,199507,19,2022-01-28_17h07.23.236,lexical_decision_task_DD_L2,2021.2.3,Win32,58.09225049,,,,,,,,,,,,0.7023,1,,,,,,,,,,,,,,z,1,0.7023,,,,,,,,-0.076851783,-0.374074087,0,0,0,,0,103,103,159,1,CUDDY,C,old,z,./images/CUDDY.png,,,,,,,,,,,,,,,,,,,,,
,,,,,,,,,,,,,,,,,199507,19,2022-01-28_17h07.23.236,lexical_decision_task_DD_L2,2021.2.3,Win32,58.09225049,,,,,,,,,,,,0.5434,1,,,,,,,,,,,,,,m,1,0.5434,,,,,,,,-0.076851783,-0.374074087,0,0,0,,0,104,104,4,1,MUSCLE,LB,old,m,./images/MUSCLELB.png,,,,,,,,,,,,,,,,,,,,,
,,,,,,,,,,,,,,,,,199507,19,2022-01-28_17h07.23.236,lexical_decision_task_DD_L2,2021.2.3,Win32,58.09225049,,,,,,,,,,,,3.8137,0,,,,,,,,,,,,,,z,0,3.8137,,,,,,,,-0.076851783,-0.374074087,0,0,0,,0,105,105,33,1,MAGGOT,HB,old,m,./images/MAGGOTHB.png,,,,,,,,,,,,,,,,,,,,,
,,,,,,,,,,,,,,,,,199507,19,2022-01-28_17h07.23.236,lexical_decision_task_DD_L2,2021.2.3,Win32,58.09225049,,,,,,,,,,,,1.9663,1,,,,,,,,,,,,,,m,1,1.9663,,,,,,,,-0.076851783,-0.374074087,0,0,0,,0,106,106,69,1,COOKER,HB,old,m,./images/COOKERHB.png,,,,,,,,,,,,,,,,,,,,,
,,,,,,,,,,,,,,,,,199507,19,2022-01-28_17h07.23.236,lexical_decision_task_DD_L2,2021.2.3,Win32,58.09225049,,,,,,,,,,,,0.7108,1,,,,,,,,,,,,,,z,1,0.7108,,,,,,,,-0.076851783,-0.374074087,0,0,0,,0,107,107,165,1,TROWN,C,old,z,./images/TROWN.png,,,,,,,,,,,,,,,,,,,,,
,,,,,,,,,,,,,,,,,199507,19,2022-01-28_17h07.23.236,lexical_decision_task_DD_L2,2021.2.3,Win32,58.09225049,,,,,,,,,,,,0.9548,1,,,,,,,,,,,,,,z,1,0.9548,,,,,,,,-0.076851783,-0.374074087,0,0,0,,0,108,108,158,1,EGECT,LB,old,z,./images/EGECTLB.png,,,,,,,,,,,,,,,,,,,,,
,,,,,,,,,,,,,,,,,199507,19,2022-01-28_17h07.23.236,lexical_decision_task_DD_L2,2021.2.3,Win32,58.09225049,,,,,,,,,,,,0.5646,1,,,,,,,,,,,,,,m,1,0.5646,,,,,,,,-0.076851783,-0.374074087,0,0,0,,0,109,109,52,1,BANNER,LB,old,m,./images/BANNERLB.png,,,,,,,,,,,,,,,,,,,,,
,,,,,,,,,,,,,,,,,199507,19,2022-01-28_17h07.23.236,lexical_decision_task_DD_L2,2021.2.3,Win32,58.09225049,,,,,,,,,,,,0.6613,1,,,,,,,,,,,,,,z,1,0.6613,,,,,,,,-0.076851783,-0.374074087,0,0,0,,0,110,110,149,1,VEASE,LB,old,z,./images/VEASELB.png,,,,,,,,,,,,,,,,,,,,,
,,,,,,,,,,,,,,,,,199507,19,2022-01-28_17h07.23.236,lexical_decision_task_DD_L2,2021.2.3,Win32,58.09225049,,,,,,,,,,,,2.3614,0,,,,,,,,,,,,,,m,0,2.3614,,,,,,,,-0.076851783,-0.374074087,0,0,0,,0,111,111,118,1,BAVEL,HB,old,z,./images/BAVELHB.png,,,,,,,,,,,,,,,,,,,,,
,,,,,,,,,,,,,,,,,199507,19,2022-01-28_17h07.23.236,lexical_decision_task_DD_L2,2021.2.3,Win32,58.09225049,,,,,,,,,,,,0.8509,1,,,,,,,,,,,,,,m,1,0.8509,,,,,,,,-0.076851783,-0.374074087,0,0,0,,0,112,112,56,1,PACKET,C,old,m,./images/PACKET.png,,,,,,,,,,,,,,,,,,,,,
,,,,,,,,,,,,,,,,,199507,19,2022-01-28_17h07.23.236,lexical_decision_task_DD_L2,2021.2.3,Win32,58.09225049,,,,,,,,,,,,0.6362,1,,,,,,,,,,,,,,z,1,0.6362,,,,,,,,-0.076851783,-0.374074087,0,0,0,,0,113,113,147,1,ZOLES,C,old,z,./images/ZOLES.png,,,,,,,,,,,,,,,,,,,,,
,,,,,,,,,,,,,,,,,199507,19,2022-01-28_17h07.23.236,lexical_decision_task_DD_L2,2021.2.3,Win32,58.09225049,,,,,,,,,,,,0.5445,1,,,,,,,,,,,,,,m,1,0.5445,,,,,,,,-0.076851783,-0.374074087,0,0,0,,0,114,114,41,1,STRING,C,old,m,./images/STRING.png,,,,,,,,,,,,,,,,,,,,,
,,,,,,,,,,,,,,,,,199507,19,2022-01-28_17h07.23.236,lexical_decision_task_DD_L2,2021.2.3,Win32,58.09225049,,,,,,,,,,,,0.4811,1,,,,,,,,,,,,,,m,1,0.4811,,,,,,,,-0.076851783,-0.374074087,0,0,0,,0,115,115,80,1,WEASEL,C,old,m,./images/WEASEL.png,,,,,,,,,,,,,,,,,,,,,
,,,,,,,,,,,,,,,,,199507,19,2022-01-28_17h07.23.236,lexical_decision_task_DD_L2,2021.2.3,Win32,58.09225049,,,,,,,,,,,,0.5695,1,,,,,,,,,,,,,,m,1,0.5695,,,,,,,,-0.076851783,-0.374074087,0,0,0,,0,116,116,70,1,URINE,LB,old,m,./images/URINELB.png,,,,,,,,,,,,,,,,,,,,,
,,,,,,,,,,,,,,,,,199507,19,2022-01-28_17h07.23.236,lexical_decision_task_DD_L2,2021.2.3,Win32,58.09225049,,,,,,,,,,,,0.5158,1,,,,,,,,,,,,,,m,1,0.5158,,,,,,,,-0.076851783,-0.374074087,0,0,0,,0,117,117,36,1,THROAT,HB,old,m,./images/THROATHB.png,,,,,,,,,,,,,,,,,,,,,
,,,,,,,,,,,,,,,,,199507,19,2022-01-28_17h07.23.236,lexical_decision_task_DD_L2,2021.2.3,Win32,58.09225049,,,,,,,,,,,,0.5612,1,,,,,,,,,,,,,,m,1,0.5612,,,,,,,,-0.076851783,-0.374074087,0,0,0,,0,118,118,8,1,TULIP,C,old,m,./images/TULIP.png,,,,,,,,,,,,,,,,,,,,,
,,,,,,,,,,,,,,,,,199507,19,2022-01-28_17h07.23.236,lexical_decision_task_DD_L2,2021.2.3,Win32,58.09225049,,,,,,,,,,,,0.5362,1,,,,,,,,,,,,,,m,1,0.5362,,,,,,,,-0.076851783,-0.374074087,0,0,0,,0,119,119,76,1,INFANT,LB,old,m,./images/INFANTLB.png,,,,,,,,,,,,,,,,,,,,,
,,,,,,,,,,,,,,,,,199507,19,2022-01-28_17h07.23.236,lexical_decision_task_DD_L2,2021.2.3,Win32,58.09225049,,,,,,,,,,,,0.6696,1,,,,,,,,,,,,,,m,1,0.6696,,,,,,,,-0.076851783,-0.374074087,0,0,0,,0,120,120,9,1,RHINO,HB,old,m,./images/RHINOHB.png,,,,,,,,,,,,,,,,,,,,,
,,,,,,,,,,,,,,,,,199507,19,2022-01-28_17h07.23.236,lexical_decision_task_DD_L2,2021.2.3,Win32,58.09225049,,,,,,,,,,,,0.4841,1,,,,,,,,,,,,,,m,1,0.4841,,,,,,,,-0.076851783,-0.374074087,0,0,0,,0,121,121,37,1,BIRTH,LB,old,m,./images/BIRTHLB.png,,,,,,,,,,,,,,,,,,,,,
,,,,,,,,,,,,,,,,,199507,19,2022-01-28_17h07.23.236,lexical_decision_task_DD_L2,2021.2.3,Win32,58.09225049,,,,,,,,,,,,0.9625,1,,,,,,,,,,,,,,z,1,0.9625,,,,,,,,-0.076851783,-0.374074087,0,0,0,,0,122,122,146,1,MOOST,LB,old,z,./images/MOOSTLB.png,,,,,,,,,,,,,,,,,,,,,
,,,,,,,,,,,,,,,,,199507,19,2022-01-28_17h07.23.236,lexical_decision_task_DD_L2,2021.2.3,Win32,58.09225049,,,,,,,,,,,,1.2008,1,,,,,,,,,,,,,,z,1,1.2008,,,,,,,,-0.076851783,-0.374074087,0,0,0,,0,123,123,115,1,MAWNS,HB,old,z,./images/MAWNSHB.png,,,,,,,,,,,,,,,,,,,,,
,,,,,,,,,,,,,,,,,199507,19,2022-01-28_17h07.23.236,lexical_decision_task_DD_L2,2021.2.3,Win32,58.09225049,,,,,,,,,,,,3.6536,0,,,,,,,,,,,,,,m,0,3.6536,,,,,,,,-0.076851783,-0.374074087,0,0,0,,0,124,124,163,1,GAMBA,HB,old,z,./images/GAMBAHB.png,,,,,,,,,,,,,,,,,,,,,
,,,,,,,,,,,,,,,,,199507,19,2022-01-28_17h07.23.236,lexical_decision_task_DD_L2,2021.2.3,Win32,58.09225049,,,,,,,,,,,,0.6357,1,,,,,,,,,,,,,,m,1,0.6357,,,,,,,,-0.076851783,-0.374074087,0,0,0,space,0,125,125,3,1,FINGER,HB,old,m,./images/FINGERHB.png,1.2363,,,,,,,,,,,,,,,,,,,,
,,,,,,,,,,,,,,,,,199507,19,2022-01-28_17h07.23.236,lexical_decision_task_DD_L2,2021.2.3,Win32,58.09225049,,,,,,,,,,,,0.6183,1,,,,,,,,,,,,,,m,1,0.6183,,,,,,,,-0.076851783,-0.374074087,0,0,0,,0,126,126,25,1,WRIST,LB,old,m,./images/WRISTLB.png,,,,,,,,,,,,,,,,,,,,,
,,,,,,,,,,,,,,,,,199507,19,2022-01-28_17h07.23.236,lexical_decision_task_DD_L2,2021.2.3,Win32,58.09225049,,,,,,,,,,,,0.5276,1,,,,,,,,,,,,,,m,1,0.5276,,,,,,,,-0.076851783,-0.374074087,0,0,0,,0,127,127,15,1,GREASE,HB,old,m,./images/GREASEHB.png,,,,,,,,,,,,,,,,,,,,,
,,,,,,,,,,,,,,,,,199507,19,2022-01-28_17h07.23.236,lexical_decision_task_DD_L2,2021.2.3,Win32,58.09225049,,,,,,,,,,,,0.617,1,,,,,,,,,,,,,,m,1,0.617,,,,,,,,-0.076851783,-0.374074087,0,0,0,,0,128,128,67,1,SAILOR,LB,old,m,./images/SAILORLB.png,,,,,,,,,,,,,,,,,,,,,
,,,,,,,,,,,,,,,,,199507,19,2022-01-28_17h07.23.236,lexical_decision_task_DD_L2,2021.2.3,Win32,58.09225049,,,,,,,,,,,,0.7505,1,,,,,,,,,,,,,,z,1,0.7505,,,,,,,,-0.076851783,-0.374074087,0,0,0,,0,129,129,153,1,CLUPS,C,old,z,./images/CLUPS.png,,,,,,,,,,,,,,,,,,,,,
,,,,,,,,,,,,,,,,,199507,19,2022-01-28_17h07.23.236,lexical_decision_task_DD_L2,2021.2.3,Win32,58.09225049,,,,,,,,,,,,0.8792,1,,,,,,,,,,,,,,z,1,0.8792,,,,,,,,-0.076851783,-0.374074087,0,0,0,,0,130,130,111,1,HOSSE,C,old,z,./images/HOSSE.png,,,,,,,,,,,,,,,,,,,,,
,,,,,,,,,,,,,,,,,199507,19,2022-01-28_17h07.23.236,lexical_decision_task_DD_L2,2021.2.3,Win32,58.09225049,,,,,,,,,,,,0.5737,1,,,,,,,,,,,,,,m,1,0.5737,,,,,,,,-0.076851783,-0.374074087,0,0,0,,0,131,131,19,1,DOUGH,LB,old,m,./images/DOUGHLB.png,,,,,,,,,,,,,,,,,,,,,
,,,,,,,,,,,,,,,,,199507,19,2022-01-28_17h07.23.236,lexical_decision_task_DD_L2,2021.2.3,Win32,58.09225049,,,,,,,,,,,,1.0251,1,,,,,,,,,,,,,,z,1,1.0251,,,,,,,,-0.076851783,-0.374074087,0,0,0,,0,132,132,160,1,VEETS,HB,old,z,./images/VEETSHB.png,,,,,,,,,,,,,,,,,,,,,
,,,,,,,,,,,,,,,,,199507,19,2022-01-28_17h07.23.236,lexical_decision_task_DD_L2,2021.2.3,Win32,58.09225049,,,,,,,,,,,,5.5346,0,,,,,,,,,,,,,,m,0,5.5346,,,,,,,,-0.076851783,-0.374074087,0,0,0,,0,133,133,100,1,DRIBS,HB,old,z,./images/DRIBSHB.png,,,,,,,,,,,,,,,,,,,,,
,,,,,,,,,,,,,,,,,199507,19,2022-01-28_17h07.23.236,lexical_decision_task_DD_L2,2021.2.3,Win32,58.09225049,,,,,,,,,,,,0.9083,1,,,,,,,,,,,,,,z,1,0.9083,,,,,,,,-0.076851783,-0.374074087,0,0,0,,0,134,134,123,1,SEDGE,C,old,z,./images/SEDGE.png,,,,,,,,,,,,,,,,,,,,,
,,,,,,,,,,,,,,,,,199507,19,2022-01-28_17h07.23.236,lexical_decision_task_DD_L2,2021.2.3,Win32,58.09225049,,,,,,,,,,,,1.2337,0,,,,,,,,,,,,,,m,0,1.2337,,,,,,,,-0.076851783,-0.374074087,0,0,0,,0,135,135,120,1,RINED,C,old,z,./images/RINED.png,,,,,,,,,,,,,,,,,,,,,
,,,,,,,,,,,,,,,,,199507,19,2022-01-28_17h07.23.236,lexical_decision_task_DD_L2,2021.2.3,Win32,58.09225049,,,,,,,,,,,,2.4835,1,,,,,,,,,,,,,,z,1,2.4835,,,,,,,,-0.076851783,-0.374074087,0,0,0,,0,136,136,157,1,INLER,HB,old,z,./images/INLERHB.png,,,,,,,,,,,,,,,,,,,,,
,,,,,,,,,,,,,,,,,199507,19,2022-01-28_17h07.23.236,lexical_decision_task_DD_L2,2021.2.3,Win32,58.09225049,,,,,,,,,,,,0.6683,1,,,,,,,,,,,,,,m,1,0.6683,,,,,,,,-0.076851783,-0.374074087,0,0,0,,0,137,137,22,1,MELON,LB,old,m,./images/MELONLB.png,,,,,,,,,,,,,,,,,,,,,
,,,,,,,,,,,,,,,,,199507,19,2022-01-28_17h07.23.236,lexical_decision_task_DD_L2,2021.2.3,Win32,58.09225049,,,,,,,,,,,,0.515,1,,,,,,,,,,,,,,m,1,0.515,,,,,,,,-0.076851783,-0.374074087,0,0,0,,0,138,138,35,1,PEACH,C,old,m,./images/PEACH.png,,,,,,,,,,,,,,,,,,,,,
,,,,,,,,,,,,,,,,,199507,19,2022-01-28_17h07.23.236,lexical_decision_task_DD_L2,2021.2.3,Win32,58.09225049,,,,,,,,,,,,0.6948,1,,,,,,,,,,,,,,z,1,0.6948,,,,,,,,-0.076851783,-0.374074087,0,0,0,,0,139,139,131,1,NACES,LB,old,z,./images/NACESLB.png,,,,,,,,,,,,,,,,,,,,,
,,,,,,,,,,,,,,,,,199507,19,2022-01-28_17h07.23.236,lexical_decision_task_DD_L2,2021.2.3,Win32,58.09225049,,,,,,,,,,,,0.5358,1,,,,,,,,,,,,,,m,1,0.5358,,,,,,,,-0.076851783,-0.374074087,0,0,0,,0,140,140,7,1,PAINT,LB,old,m,./images/PAINTLB.png,,,,,,,,,,,,,,,,,,,,,
,,,,,,,,,,,,,,,,,199507,19,2022-01-28_17h07.23.236,lexical_decision_task_DD_L2,2021.2.3,Win32,58.09225049,,,,,,,,,,,,2.2952,1,,,,,,,,,,,,,,z,1,2.2952,,,,,,,,-0.076851783,-0.374074087,0,0,0,,0,141,141,91,1,SHENS,HB,old,z,./images/SHENSHB.png,,,,,,,,,,,,,,,,,,,,,
,,,,,,,,,,,,,,,,,199507,19,2022-01-28_17h07.23.236,lexical_decision_task_DD_L2,2021.2.3,Win32,58.09225049,,,,,,,,,,,,1.1973,1,,,,,,,,,,,,,,z,1,1.1973,,,,,,,,-0.076851783,-0.374074087,0,0,0,,0,142,142,84,1,HAXES,C,old,z,./images/HAXES.png,,,,,,,,,,,,,,,,,,,,,
,,,,,,,,,,,,,,,,,199507,19,2022-01-28_17h07.23.236,lexical_decision_task_DD_L2,2021.2.3,Win32,58.09225049,,,,,,,,,,,,0.8681,0,,,,,,,,,,,,,,m,0,0.8681,,,,,,,,-0.076851783,-0.374074087,0,0,0,,0,143,143,140,1,DOVET,LB,old,z,./images/DOVETLB.png,,,,,,,,,,,,,,,,,,,,,
,,,,,,,,,,,,,,,,,199507,19,2022-01-28_17h07.23.236,lexical_decision_task_DD_L2,2021.2.3,Win32,58.09225049,,,,,,,,,,,,0.5041,1,,,,,,,,,,,,,,m,1,0.5041,,,,,,,,-0.076851783,-0.374074087,0,0,0,,0,144,144,77,1,COUCH,C,old,m,./images/COUCH.png,,,,,,,,,,,,,,,,,,,,,
,,,,,,,,,,,,,,,,,199507,19,2022-01-28_17h07.23.236,lexical_decision_task_DD_L2,2021.2.3,Win32,58.09225049,,,,,,,,,,,,0.5509,1,,,,,,,,,,,,,,m,1,0.5509,,,,,,,,-0.076851783,-0.374074087,0,0,0,,0,145,145,55,1,MUFFIN,LB,old,m,./images/MUFFINLB.png,,,,,,,,,,,,,,,,,,,,,
,,,,,,,,,,,,,,,,,199507,19,2022-01-28_17h07.23.236,lexical_decision_task_DD_L2,2021.2.3,Win32,58.09225049,,,,,,,,,,,,0.523,1,,,,,,,,,,,,,,m,1,0.523,,,,,,,,-0.076851783,-0.374074087,0,0,0,,0,146,146,32,1,BARREL,C,old,m,./images/BARREL.png,,,,,,,,,,,,,,,,,,,,,
,,,,,,,,,,,,,,,,,199507,19,2022-01-28_17h07.23.236,lexical_decision_task_DD_L2,2021.2.3,Win32,58.09225049,,,,,,,,,,,,0.6169,1,,,,,,,,,,,,,,z,1,0.6169,,,,,,,,-0.076851783,-0.374074087,0,0,0,,0,147,147,86,1,AIFED,LB,old,z,./images/AIFEDLB.png,,,,,,,,,,,,,,,,,,,,,
,,,,,,,,,,,,,,,,,199507,19,2022-01-28_17h07.23.236,lexical_decision_task_DD_L2,2021.2.3,Win32,58.09225049,,,,,,,,,,,,0.8498,0,,,,,,,,,,,,,,m,0,0.8498,,,,,,,,-0.076851783,-0.374074087,0,0,0,,0,148,148,114,1,RIKES,C,old,z,./images/RIKES.png,,,,,,,,,,,,,,,,,,,,,
,,,,,,,,,,,,,,,,,199507,19,2022-01-28_17h07.23.236,lexical_decision_task_DD_L2,2021.2.3,Win32,58.09225049,,,,,,,,,,,,0.66,1,,,,,,,,,,,,,,m,1,0.66,,,,,,,,-0.076851783,-0.374074087,0,0,0,,0,149,149,21,1,KIDNEY,HB,old,m,./images/KIDNEYHB.png,,,,,,,,,,,,,,,,,,,,,
,,,,,,,,,,,,,,,,,199507,19,2022-01-28_17h07.23.236,lexical_decision_task_DD_L2,2021.2.3,Win32,58.09225049,,,,,,,,,,,,1.6665,1,,,,,,,,,,,,,,z,1,1.6665,,,,,,,,-0.076851783,-0.374074087,0,0,0,,0,150,150,113,1,LINEW,LB,old,z,./images/LINEWLB.png,,,,,,,,,,,,,,,,,,,,,
,,,,,,,,,,,,,,,,,199507,19,2022-01-28_17h07.23.236,lexical_decision_task_DD_L2,2021.2.3,Win32,58.09225049,,,,,,,,,,,,1.6374,1,,,,,,,,,,,,,,z,1,1.6374,,,,,,,,-0.076851783,-0.374074087,0,0,0,,0,151,151,126,1,GUELS,C,old,z,./images/GUELS.png,,,,,,,,,,,,,,,,,,,,,
,,,,,,,,,,,,,,,,,199507,19,2022-01-28_17h07.23.236,lexical_decision_task_DD_L2,2021.2.3,Win32,58.09225049,,,,,,,,,,,,1.5833,0,,,,,,,,,,,,,,m,0,1.5833,,,,,,,,-0.076851783,-0.374074087,0,0,0,,0,152,152,102,1,DULLE,C,old,z,./images/DULLE.png,,,,,,,,,,,,,,,,,,,,,
,,,,,,,,,,,,,,,,,199507,19,2022-01-28_17h07.23.236,lexical_decision_task_DD_L2,2021.2.3,Win32,58.09225049,,,,,,,,,,,,0.8838,1,,,,,,,,,,,,,,z,1,0.8838,,,,,,,,-0.076851783,-0.374074087,0,0,0,,0,153,153,93,1,SMONE,C,old,z,./images/SMONE.png,,,,,,,,,,,,,,,,,,,,,
,,,,,,,,,,,,,,,,,199507,19,2022-01-28_17h07.23.236,lexical_decision_task_DD_L2,2021.2.3,Win32,58.09225049,,,,,,,,,,,,1.7531,1,,,,,,,,,,,,,,z,1,1.7531,,,,,,,,-0.076851783,-0.374074087,0,0,0,,0,154,154,148,1,JOMS,HB,old,z,./images/JOMSHB.png,,,,,,,,,,,,,,,,,,,,,
,,,,,,,,,,,,,,,,,199507,19,2022-01-28_17h07.23.236,lexical_decision_task_DD_L2,2021.2.3,Win32,58.09225049,,,,,,,,,,,,0.9041,1,,,,,,,,,,,,,,z,1,0.9041,,,,,,,,-0.076851783,-0.374074087,0,0,0,,0,155,155,156,1,HIXES,C,old,z,./images/HIXES.png,,,,,,,,,,,,,,,,,,,,,
,,,,,,,,,,,,,,,,,199507,19,2022-01-28_17h07.23.236,lexical_decision_task_DD_L2,2021.2.3,Win32,58.09225049,,,,,,,,,,,,1.0199,1,,,,,,,,,,,,,,z,1,1.0199,,,,,,,,-0.076851783,-0.374074087,0,0,0,,0,156,156,117,1,STEEG,C,old,z,./images/STEEG.png,,,,,,,,,,,,,,,,,,,,,
,,,,,,,,,,,,,,,,,199507,19,2022-01-28_17h07.23.236,lexical_decision_task_DD_L2,2021.2.3,Win32,58.09225049,,,,,,,,,,,,0.684,1,,,,,,,,,,,,,,m,1,0.684,,,,,,,,-0.076851783,-0.374074087,0,0,0,,0,157,157,79,1,CRUST,LB,old,m,./images/CRUSTLB.png,,,,,,,,,,,,,,,,,,,,,
,,,,,,,,,,,,,,,,,199507,19,2022-01-28_17h07.23.236,lexical_decision_task_DD_L2,2021.2.3,Win32,58.09225049,,,,,,,,,,,,0.661,1,,,,,,,,,,,,,,m,1,0.661,,,,,,,,-0.076851783,-0.374074087,0,0,0,,0,158,158,24,1,SCREW,HB,old,m,./images/SCREWHB.png,,,,,,,,,,,,,,,,,,,,,
,,,,,,,,,,,,,,,,,199507,19,2022-01-28_17h07.23.236,lexical_decision_task_DD_L2,2021.2.3,Win32,58.09225049,,,,,,,,,,,,0.8936,1,,,,,,,,,,,,,,z,1,0.8936,,,,,,,,-0.076851783,-0.374074087,0,0,0,,0,159,159,133,1,POWDY,HB,old,z,./images/POWDYHB.png,,,,,,,,,,,,,,,,,,,,,
,,,,,,,,,,,,,,,,,199507,19,2022-01-28_17h07.23.236,lexical_decision_task_DD_L2,2021.2.3,Win32,58.09225049,,,,,,,,,,,,0.6755,1,,,,,,,,,,,,,,z,1,0.6755,,,,,,,,-0.076851783,-0.374074087,0,0,0,,0,160,160,125,1,MOOKY,LB,old,z,./images/MOOKYLB.png,,,,,,,,,,,,,,,,,,,,,
,,,,,,,,,,,,,,,,,199507,19,2022-01-28_17h07.23.236,lexical_decision_task_DD_L2,2021.2.3,Win32,58.09225049,,,,,,,,,,,,0.9214,1,,,,,,,,,,,,,,z,1,0.9214,,,,,,,,-0.076851783,-0.374074087,0,0,0,,0,161,161,103,1,FLORT,HB,old,z,./images/FLORTHB.png,,,,,,,,,,,,,,,,,,,,,
,,,,,,,,,,,,,,,,,199507,19,2022-01-28_17h07.23.236,lexical_decision_task_DD_L2,2021.2.3,Win32,58.09225049,,,,,,,,,,,,0.7119,1,,,,,,,,,,,,,,z,1,0.7119,,,,,,,,-0.076851783,-0.374074087,0,0,0,,0,162,162,105,1,MOKER,C,old,z,./images/MOKER.png,,,,,,,,,,,,,,,,,,,,,
,,,,,,,,,,,,,,,,,199507,19,2022-01-28_17h07.23.236,lexical_decision_task_DD_L2,2021.2.3,Win32,58.09225049,,,,,,,,,,,,0.8605,0,,,,,,,,,,,,,,m,0,0.8605,,,,,,,,-0.076851783,-0.374074087,0,0,0,,0,163,163,110,1,CRUNK,LB,old,z,./images/CRUNKLB.png,,,,,,,,,,,,,,,,,,,,,
,,,,,,,,,,,,,,,,,199507,19,2022-01-28_17h07.23.236,lexical_decision_task_DD_L2,2021.2.3,Win32,58.09225049,,,,,,,,,,,,0.8364,1,,,,,,,,,,,,,,z,1,0.8364,,,,,,,,-0.076851783,-0.374074087,0,0,0,,0,164,164,89,1,DRIEK,LB,old,z,./images/DRIEKLB.png,,,,,,,,,,,,,,,,,,,,,
,,,,,,,,,,,,,,,,,199507,19,2022-01-28_17h07.23.236,lexical_decision_task_DD_L2,2021.2.3,Win32,58.09225049,,,,,,,,,,,,0.7102,1,,,,,,,,,,,,,,z,1,0.7102,,,,,,,,-0.076851783,-0.374074087,0,0,0,,0,165,165,116,1,BALGY,LB,old,z,./images/BALGYLB.png,,,,,,,,,,,,,,,,,,,,,
,,,,,,,,,,,,,,,,,199507,19,2022-01-28_17h07.23.236,lexical_decision_task_DD_L2,2021.2.3,Win32,58.09225049,,,,,,,,,,,,0.6907,1,,,,,,,,,,,,,,z,1,0.6907,,,,,,,,-0.076851783,-0.374074087,0,0,0,,0,166,166,132,1,SCIFF,C,old,z,./images/SCIFF.png,,,,,,,,,,,,,,,,,,,,,
,,,,,,,,,,,,,,,,,199507,19,2022-01-28_17h07.23.236,lexical_decision_task_DD_L2,2021.2.3,Win32,58.09225049,,,,,,,,,,,,2.3904,1,,,,,,,,,,,,,,z,1,2.3904,,,,,,,,-0.076851783,-0.374074087,0,0,0,,0,167,167,151,1,TINKY,HB,old,z,./images/TINKYHB.png,,,,,,,,,,,,,,,,,,,,,
space,-0.076851783,-0.374074087,0,0,0,,,,,,,1,test,"In the next phase you will be presented with the words from the the first phase. Your job is to decide whether you remember seeing the word or not. If you remember seeing the word press ""old"" or type ""m"". If you do not remember seeing the word press ""new"" or type ""z"". Please press the space bar or click on continue to begin. ",,,199507,19,2022-01-28_17h07.23.236,lexical_decision_task_DD_L2,2021.2.3,Win32,58.09225049,13.4333,,,,,,,,,,,,,,,,,,,,,,,,,,,,,,,,,,,,,,,,,,,,,,,,,,,,,0,0,0,0,1,,,,,,,,,,,,,,,
space,-0.023148135,-0.499074089,0,0,0,,,,,,,1,test,"In the next phase you will be presented with the words from the the first phase. Your job is to decide whether you remember seeing the word or not. If you remember seeing the word press ""old"" or type ""m"". If you do not remember seeing the word press ""new"" or type ""z"". Please press the space bar or click on continue to begin. ",,,199507,19,2022-01-28_17h07.23.236,lexical_decision_task_DD_L2,2021.2.3,Win32,58.09225049,1.7445,,,,,,,,,,,,,,,,,,,,,,,,,,,,,,,,,,,,,,,,,,,,,,,,,,,,,1,0,1,0,1,,,,,,,,,,,,,,,
,-0.058333264,-0.41666668,1,0,0,instr_done_button,,,,,,1,test,"In the next phase you will be presented with the words from the the first phase. Your job is to decide whether you remember seeing the word or not. If you remember seeing the word press ""old"" or type ""m"". If you do not remember seeing the word press ""new"" or type ""z"". Please press the space bar or click on continue to begin. ",,,199507,19,2022-01-28_17h07.23.236,lexical_decision_task_DD_L2,2021.2.3,Win32,58.09225049,,,,,,,,,,,,,,,,,,,,,,,,,,,,,,,,,,,,,,,,,,,,,,,,,,,,,,2,0,2,0,1,,,,,,,,,,,,,,,
space,-0.058333264,-0.41666668,0,0,0,,,,,,,1,test,"In the next phase you will be presented with the words from the the first phase. Your job is to decide whether you remember seeing the word or not. If you remember seeing the word press ""old"" or type ""m"". If you do not remember seeing the word press ""new"" or type ""z"". Please press the space bar or click on continue to begin. ",,,199507,19,2022-01-28_17h07.23.236,lexical_decision_task_DD_L2,2021.2.3,Win32,58.09225049,1.7763,,,,,,,,,,,,,,,,,,,,,,,,,,,,,,,,,,,,,,,,,,,,,,,,,,,,,3,0,3,0,1,,,,,,,,,,,,,,,
space,0.005555569,-0.230555566,0,0,0,,,,,,,1,test,"In the next phase you will be presented with the words from the the first phase. Your job is to decide whether you remember seeing the word or not. If you remember seeing the word press ""old"" or type ""m"". If you do not remember seeing the word press ""new"" or type ""z"". Please press the space bar or click on continue to begin. ",,,199507,19,2022-01-28_17h07.23.236,lexical_decision_task_DD_L2,2021.2.3,Win32,58.09225049,4.873,,,,,,,,,,,,,,,,,,,,,,,,,,,,,,,,,,,,,,,,,,,,,,,,,,,,,4,0,4,0,1,,,,,,,,,,,,,,,
,,,,,,,,,,,,,,,,,199507,19,2022-01-28_17h07.23.236,lexical_decision_task_DD_L2,2021.2.3,Win32,58.09225049,,,,,,,,,,,,2.9987,1,,,,,,,,,,,,,,,,,,,,,,,,0.005555569,-0.230555566,0,0,0,,,,,,,FALCON,LB,m,y,./images/FALCONLB.png,,,,,,,m,1,2.9987,,,,,,,,0,0,0,28,1
,,,,,,,,,,,,,,,,,199507,19,2022-01-28_17h07.23.236,lexical_decision_task_DD_L2,2021.2.3,Win32,58.09225049,,,,,,,,,,,,0.9009,1,,,,,,,,,,,,,,,,,,,,,,,,0.005555569,-0.230555566,0,0,0,,,,,,,PAINT,LB,m,y,./images/PAINTLB.png,,,,,,,m,1,0.9009,,,,,,,,0,1,1,7,1
,,,,,,,,,,,,,,,,,199507,19,2022-01-28_17h07.23.236,lexical_decision_task_DD_L2,2021.2.3,Win32,58.09225049,,,,,,,,,,,,0.6303,1,,,,,,,,,,,,,,,,,,,,,,,,0.005555569,-0.230555566,0,0,0,,,,,,,CASINO,LB,z,y,./images/CASINOLB.png,,,,,,,z,1,0.6303,,,,,,,,0,2,2,112,1
,,,,,,,,,,,,,,,,,199507,19,2022-01-28_17h07.23.236,lexical_decision_task_DD_L2,2021.2.3,Win32,58.09225049,,,,,,,,,,,,0.6671,1,,,,,,,,,,,,,,,,,,,,,,,,0.005555569,-0.230555566,0,0,0,,,,,,,BAMBOO,C,z,y,./images/BAMBOO.png,,,,,,,z,1,0.6671,,,,,,,,0,3,3,89,1
,,,,,,,,,,,,,,,,,199507,19,2022-01-28_17h07.23.236,lexical_decision_task_DD_L2,2021.2.3,Win32,58.09225049,,,,,,,,,,,,0.6776,1,,,,,,,,,,,,,,,,,,,,,,,,0.005555569,-0.230555566,0,0,0,,,,,,,STAIN,HB,z,y,./images/STAINHB.png,,,,,,,z,1,0.6776,,,,,,,,0,4,4,90,1
,,,,,,,,,,,,,,,,,199507,19,2022-01-28_17h07.23.236,lexical_decision_task_DD_L2,2021.2.3,Win32,58.09225049,,,,,,,,,,,,0.7614,1,,,,,,,,,,,,,,,,,,,,,,,,0.005555569,-0.230555566,0,0,0,,,,,,,STREAM,C,z,y,./images/STREAM.png,,,,,,,z,1,0.7614,,,,,,,,0,5,5,125,1
,,,,,,,,,,,,,,,,,199507,19,2022-01-28_17h07.23.236,lexical_decision_task_DD_L2,2021.2.3,Win32,58.09225049,,,,,,,,,,,,0.616,1,,,,,,,,,,,,,,,,,,,,,,,,0.005555569,-0.230555566,0,0,0,,,,,,,DANCER,HB,z,y,./images/DANCERHB.png,,,,,,,z,1,0.616,,,,,,,,0,6,6,105,1
,,,,,,,,,,,,,,,,,199507,19,2022-01-28_17h07.23.236,lexical_decision_task_DD_L2,2021.2.3,Win32,58.09225049,,,,,,,,,,,,0.6928,1,,,,,,,,,,,,,,,,,,,,,,,,0.005555569,-0.230555566,0,0,0,,,,,,,COLLAR,HB,z,y,./images/COLLARHB.png,,,,,,,z,1,0.6928,,,,,,,,0,7,7,99,1
,,,,,,,,,,,,,,,,,199507,19,2022-01-28_17h07.23.236,lexical_decision_task_DD_L2,2021.2.3,Win32,58.09225049,,,,,,,,,,,,4.2602,1,,,,,,,,,,,,,,,,,,,,,,,,0.005555569,-0.230555566,0,0,0,,,,,,,BLOKE,HB,z,y,./images/BLOKEHB.png,,,,,,,z,1,4.2602,,,,,,,,0,8,8,96,1
,,,,,,,,,,,,,,,,,199507,19,2022-01-28_17h07.23.236,lexical_decision_task_DD_L2,2021.2.3,Win32,58.09225049,,,,,,,,,,,,1.4106,0,,,,,,,,,,,,,,,,,,,,,,,,0.005555569,-0.230555566,0,0,0,,,,,,,FLESH,HB,z,y,./images/FLESHHB.png,,,,,,,m,0,1.4106,,,,,,,,0,9,9,108,1
,,,,,,,,,,,,,,,,,199507,19,2022-01-28_17h07.23.236,lexical_decision_task_DD_L2,2021.2.3,Win32,58.09225049,,,,,,,,,,,,0.5654,1,,,,,,,,,,,,,,,,,,,,,,,,0.005555569,-0.230555566,0,0,0,,,,,,,MOOSE,HB,m,y,./images/MOOSEHB.png,,,,,,,m,1,0.5654,,,,,,,,0,10,10,57,1
,,,,,,,,,,,,,,,,,199507,19,2022-01-28_17h07.23.236,lexical_decision_task_DD_L2,2021.2.3,Win32,58.09225049,,,,,,,,,,,,0.5673,1,,,,,,,,,,,,,,,,,,,,,,,,0.005555569,-0.230555566,0,0,0,,,,,,,GRAIN,HB,m,y,./images/GRAINHB.png,,,,,,,m,1,0.5673,,,,,,,,0,11,11,75,1
,,,,,,,,,,,,,,,,,199507,19,2022-01-28_17h07.23.236,lexical_decision_task_DD_L2,2021.2.3,Win32,58.09225049,,,,,,,,,,,,0.5436,0,,,,,,,,,,,,,,,,,,,,,,,,0.005555569,-0.230555566,0,0,0,,,,,,,CANDY,HB,z,y,./images/CANDYHB.png,,,,,,,m,0,0.5436,,,,,,,,0,12,12,123,1
,,,,,,,,,,,,,,,,,199507,19,2022-01-28_17h07.23.236,lexical_decision_task_DD_L2,2021.2.3,Win32,58.09225049,,,,,,,,,,,,0.6293,1,,,,,,,,,,,,,,,,,,,,,,,,0.005555569,-0.230555566,0,0,0,,,,,,,CRADLE,C,m,y,./images/CRADLE.png,,,,,,,m,1,0.6293,,,,,,,,0,13,13,20,1
,,,,,,,,,,,,,,,,,199507,19,2022-01-28_17h07.23.236,lexical_decision_task_DD_L2,2021.2.3,Win32,58.09225049,,,,,,,,,,,,0.6352,1,,,,,,,,,,,,,,,,,,,,,,,,0.005555569,-0.230555566,0,0,0,,,,,,,COOKER,HB,m,y,./images/COOKERHB.png,,,,,,,m,1,0.6352,,,,,,,,0,14,14,69,1
,,,,,,,,,,,,,,,,,199507,19,2022-01-28_17h07.23.236,lexical_decision_task_DD_L2,2021.2.3,Win32,58.09225049,,,,,,,,,,,,1.0837,0,,,,,,,,,,,,,,,,,,,,,,,,0.005555569,-0.230555566,0,0,0,,,,,,,SPINE,C,z,y,./images/SPINE.png,,,,,,,m,0,1.0837,,,,,,,,0,15,15,149,1
,,,,,,,,,,,,,,,,,199507,19,2022-01-28_17h07.23.236,lexical_decision_task_DD_L2,2021.2.3,Win32,58.09225049,,,,,,,,,,,,0.7791,1,,,,,,,,,,,,,,,,,,,,,,,,0.005555569,-0.230555566,0,0,0,,,,,,,WRIST,LB,m,y,./images/WRISTLB.png,,,,,,,m,1,0.7791,,,,,,,,0,16,16,25,1
,,,,,,,,,,,,,,,,,199507,19,2022-01-28_17h07.23.236,lexical_decision_task_DD_L2,2021.2.3,Win32,58.09225049,,,,,,,,,,,,0.7104,1,,,,,,,,,,,,,,,,,,,,,,,,0.005555569,-0.230555566,0,0,0,,,,,,,SAUNA,HB,z,y,./images/SAUNAHB.png,,,,,,,z,1,0.7104,,,,,,,,0,17,17,117,1
,,,,,,,,,,,,,,,,,199507,19,2022-01-28_17h07.23.236,lexical_decision_task_DD_L2,2021.2.3,Win32,58.09225049,,,,,,,,,,,,0.8376,1,,,,,,,,,,,,,,,,,,,,,,,,0.005555569,-0.230555566,0,0,0,,,,,,,PLANK,LB,m,y,./images/PLANKLB.png,,,,,,,m,1,0.8376,,,,,,,,0,18,18,1,1
,,,,,,,,,,,,,,,,,199507,19,2022-01-28_17h07.23.236,lexical_decision_task_DD_L2,2021.2.3,Win32,58.09225049,,,,,,,,,,,,1.0984,1,,,,,,,,,,,,,,,,,,,,,,,,0.005555569,-0.230555566,0,0,0,,,,,,,FLASK,HB,z,y,./images/FLASKHB.png,,,,,,,z,1,1.0984,,,,,,,,0,19,19,156,1
,,,,,,,,,,,,,,,,,199507,19,2022-01-28_17h07.23.236,lexical_decision_task_DD_L2,2021.2.3,Win32,58.09225049,,,,,,,,,,,,1.0532,1,,,,,,,,,,,,,,,,,,,,,,,,0.005555569,-0.230555566,0,0,0,,,,,,,MEDAL,C,z,y,./images/MEDAL.png,,,,,,,z,1,1.0532,,,,,,,,0,20,20,95,1
,,,,,,,,,,,,,,,,,199507,19,2022-01-28_17h07.23.236,lexical_decision_task_DD_L2,2021.2.3,Win32,58.09225049,,,,,,,,,,,,3.1754,1,,,,,,,,,,,,,,,,,,,,,,,,0.005555569,-0.230555566,0,0,0,,,,,,,CHAIN,HB,z,y,./images/CHAINHB.png,,,,,,,z,1,3.1754,,,,,,,,0,21,21,126,1
,,,,,,,,,,,,,,,,,199507,19,2022-01-28_17h07.23.236,lexical_decision_task_DD_L2,2021.2.3,Win32,58.09225049,,,,,,,,,,,,0.8821,1,,,,,,,,,,,,,,,,,,,,,,,,0.005555569,-0.230555566,0,0,0,,,,,,,SAUCE,HB,z,y,./images/SAUCEHB.png,,,,,,,z,1,0.8821,,,,,,,,0,22,22,135,1
,,,,,,,,,,,,,,,,,199507,19,2022-01-28_17h07.23.236,lexical_decision_task_DD_L2,2021.2.3,Win32,58.09225049,,,,,,,,,,,,1.0114,0,,,,,,,,,,,,,,,,,,,,,,,,0.005555569,-0.230555566,0,0,0,,,,,,,SNAKE,LB,z,y,./images/SNAKELB.png,,,,,,,m,0,1.0114,,,,,,,,0,23,23,124,1
,,,,,,,,,,,,,,,,,199507,19,2022-01-28_17h07.23.236,lexical_decision_task_DD_L2,2021.2.3,Win32,58.09225049,,,,,,,,,,,,0.6553,1,,,,,,,,,,,,,,,,,,,,,,,,0.005555569,-0.230555566,0,0,0,,,,,,,BURIAL,C,m,y,./images/BURIAL.png,,,,,,,m,1,0.6553,,,,,,,,0,24,24,59,1
,,,,,,,,,,,,,,,,,199507,19,2022-01-28_17h07.23.236,lexical_decision_task_DD_L2,2021.2.3,Win32,58.09225049,,,,,,,,,,,,0.6117,1,,,,,,,,,,,,,,,,,,,,,,,,0.005555569,-0.230555566,0,0,0,,,,,,,BABOON,LB,m,y,./images/BABOONLB.png,,,,,,,m,1,0.6117,,,,,,,,0,25,25,58,1
,,,,,,,,,,,,,,,,,199507,19,2022-01-28_17h07.23.236,lexical_decision_task_DD_L2,2021.2.3,Win32,58.09225049,,,,,,,,,,,,0.6331,1,,,,,,,,,,,,,,,,,,,,,,,,0.005555569,-0.230555566,0,0,0,,,,,,,SWEAT,HB,m,y,./images/SWEATHB.png,,,,,,,m,1,0.6331,,,,,,,,0,26,26,66,1
,,,,,,,,,,,,,,,,,199507,19,2022-01-28_17h07.23.236,lexical_decision_task_DD_L2,2021.2.3,Win32,58.09225049,,,,,,,,,,,,0.5455,1,,,,,,,,,,,,,,,,,,,,,,,,0.005555569,-0.230555566,0,0,0,,,,,,,LITTER,HB,m,y,./images/LITTERHB.png,,,,,,,m,1,0.5455,,,,,,,,0,27,27,78,1
,,,,,,,,,,,,,,,,,199507,19,2022-01-28_17h07.23.236,lexical_decision_task_DD_L2,2021.2.3,Win32,58.09225049,,,,,,,,,,,,0.6292,1,,,,,,,,,,,,,,,,,,,,,,,,0.005555569,-0.230555566,0,0,0,,,,,,,PEBBLE,LB,z,y,./images/PEBBLELB.png,,,,,,,z,1,0.6292,,,,,,,,0,28,28,166,1
,,,,,,,,,,,,,,,,,199507,19,2022-01-28_17h07.23.236,lexical_decision_task_DD_L2,2021.2.3,Win32,58.09225049,,,,,,,,,,,,1.338,0,,,,,,,,,,,,,,,,,,,,,,,,0.005555569,-0.230555566,0,0,0,,,,,,,SHORE,HB,m,y,./images/SHOREHB.png,,,,,,,z,0,1.338,,,,,,,,0,29,29,12,1
,,,,,,,,,,,,,,,,,199507,19,2022-01-28_17h07.23.236,lexical_decision_task_DD_L2,2021.2.3,Win32,58.09225049,,,,,,,,,,,,1.0318,1,,,,,,,,,,,,,,,,,,,,,,,,0.005555569,-0.230555566,0,0,0,,,,,,,PISTOL,C,z,y,./images/PISTOL.png,,,,,,,z,1,1.0318,,,,,,,,0,30,30,113,1
,,,,,,,,,,,,,,,,,199507,19,2022-01-28_17h07.23.236,lexical_decision_task_DD_L2,2021.2.3,Win32,58.09225049,,,,,,,,,,,,1.2177,1,,,,,,,,,,,,,,,,,,,,,,,,0.005555569,-0.230555566,0,0,0,,,,,,,BUBBLE,C,z,y,./images/BUBBLE.png,,,,,,,z,1,1.2177,,,,,,,,0,31,31,155,1
,,,,,,,,,,,,,,,,,199507,19,2022-01-28_17h07.23.236,lexical_decision_task_DD_L2,2021.2.3,Win32,58.09225049,,,,,,,,,,,,1.0724,1,,,,,,,,,,,,,,,,,,,,,,,,0.005555569,-0.230555566,0,0,0,,,,,,,CRUST,LB,m,y,./images/CRUSTLB.png,,,,,,,m,1,1.0724,,,,,,,,0,32,32,79,1
,,,,,,,,,,,,,,,,,199507,19,2022-01-28_17h07.23.236,lexical_decision_task_DD_L2,2021.2.3,Win32,58.09225049,,,,,,,,,,,,0.6064,1,,,,,,,,,,,,,,,,,,,,,,,,0.005555569,-0.230555566,0,0,0,,,,,,,PIMPLE,C,m,y,./images/PIMPLE.png,,,,,,,m,1,0.6064,,,,,,,,0,33,33,71,1
,,,,,,,,,,,,,,,,,199507,19,2022-01-28_17h07.23.236,lexical_decision_task_DD_L2,2021.2.3,Win32,58.09225049,,,,,,,,,,,,0.5826,1,,,,,,,,,,,,,,,,,,,,,,,,0.005555569,-0.230555566,0,0,0,,,,,,,BERRY,C,m,y,./images/BERRY.png,,,,,,,m,1,0.5826,,,,,,,,0,34,34,47,1
,,,,,,,,,,,,,,,,,199507,19,2022-01-28_17h07.23.236,lexical_decision_task_DD_L2,2021.2.3,Win32,58.09225049,,,,,,,,,,,,0.8898,1,,,,,,,,,,,,,,,,,,,,,,,,0.005555569,-0.230555566,0,0,0,,,,,,,TOWEL,LB,z,y,./images/TOWELLB.png,,,,,,,z,1,0.8898,,,,,,,,0,35,35,85,1
,,,,,,,,,,,,,,,,,199507,19,2022-01-28_17h07.23.236,lexical_decision_task_DD_L2,2021.2.3,Win32,58.09225049,,,,,,,,,,,,0.7655,1,,,,,,,,,,,,,,,,,,,,,,,,0.005555569,-0.230555566,0,0,0,,,,,,,TIGER,LB,z,y,./images/TIGERLB.png,,,,,,,z,1,0.7655,,,,,,,,0,36,36,121,1
,,,,,,,,,,,,,,,,,199507,19,2022-01-28_17h07.23.236,lexical_decision_task_DD_L2,2021.2.3,Win32,58.09225049,,,,,,,,,,,,1.6779,1,,,,,,,,,,,,,,,,,,,,,,,,0.005555569,-0.230555566,0,0,0,,,,,,,PACKET,C,m,y,./images/PACKET.png,,,,,,,m,1,1.6779,,,,,,,,0,37,37,56,1
,,,,,,,,,,,,,,,,,199507,19,2022-01-28_17h07.23.236,lexical_decision_task_DD_L2,2021.2.3,Win32,58.09225049,,,,,,,,,,,,0.8852,0,,,,,,,,,,,,,,,,,,,,,,,,0.005555569,-0.230555566,0,0,0,,,,,,,BANNER,LB,m,y,./images/BANNERLB.png,,,,,,,z,0,0.8852,,,,,,,,0,38,38,52,1
,,,,,,,,,,,,,,,,,199507,19,2022-01-28_17h07.23.236,lexical_decision_task_DD_L2,2021.2.3,Win32,58.09225049,,,,,,,,,,,,0.6068,1,,,,,,,,,,,,,,,,,,,,,,,,0.005555569,-0.230555566,0,0,0,,,,,,,CLOWN,LB,z,y,./images/CLOWNLB.png,,,,,,,z,1,0.6068,,,,,,,,0,39,39,106,1
,,,,,,,,,,,,,,,,,199507,19,2022-01-28_17h07.23.236,lexical_decision_task_DD_L2,2021.2.3,Win32,58.09225049,,,,,,,,,,,,0.6492,1,,,,,,,,,,,,,,,,,,,,,,,,0.005555569,-0.230555566,0,0,0,,,,,,,GRAPE,LB,z,y,./images/GRAPELB.png,,,,,,,z,1,0.6492,,,,,,,,0,40,40,100,1
,,,,,,,,,,,,,,,,,199507,19,2022-01-28_17h07.23.236,lexical_decision_task_DD_L2,2021.2.3,Win32,58.09225049,,,,,,,,,,,,0.8257,0,,,,,,,,,,,,,,,,,,,,,,,,0.005555569,-0.230555566,0,0,0,space,,,,,,WEASEL,C,m,y,./images/WEASEL.png,0.772,,,,,,z,0,0.8257,,,,,,,,0,41,41,80,1
,,,,,,,,,,,,,,,,,199507,19,2022-01-28_17h07.23.236,lexical_decision_task_DD_L2,2021.2.3,Win32,58.09225049,,,,,,,,,,,,0.5927,1,,,,,,,,,,,,,,,,,,,,,,,,0.005555569,-0.230555566,0,0,0,,,,,,,VALLEY,C,z,y,./images/VALLEY.png,,,,,,,z,1,0.5927,,,,,,,,0,42,42,152,1
,,,,,,,,,,,,,,,,,199507,19,2022-01-28_17h07.23.236,lexical_decision_task_DD_L2,2021.2.3,Win32,58.09225049,,,,,,,,,,,,0.5855,0,,,,,,,,,,,,,,,,,,,,,,,,0.005555569,-0.230555566,0,0,0,,,,,,,MUFFIN,LB,m,y,./images/MUFFINLB.png,,,,,,,z,0,0.5855,,,,,,,,0,43,43,55,1
,,,,,,,,,,,,,,,,,199507,19,2022-01-28_17h07.23.236,lexical_decision_task_DD_L2,2021.2.3,Win32,58.09225049,,,,,,,,,,,,0.8029,1,,,,,,,,,,,,,,,,,,,,,,,,0.005555569,-0.230555566,0,0,0,,,,,,,STATUE,HB,z,y,./images/STATUEHB.png,,,,,,,z,1,0.8029,,,,,,,,0,44,44,150,1
,,,,,,,,,,,,,,,,,199507,19,2022-01-28_17h07.23.236,lexical_decision_task_DD_L2,2021.2.3,Win32,58.09225049,,,,,,,,,,,,0.6104,1,,,,,,,,,,,,,,,,,,,,,,,,0.005555569,-0.230555566,0,0,0,,,,,,,TULIP,C,m,y,./images/TULIP.png,,,,,,,m,1,0.6104,,,,,,,,0,45,45,8,1
,,,,,,,,,,,,,,,,,199507,19,2022-01-28_17h07.23.236,lexical_decision_task_DD_L2,2021.2.3,Win32,58.09225049,,,,,,,,,,,,0.8615,1,,,,,,,,,,,,,,,,,,,,,,,,0.005555569,-0.230555566,0,0,0,,,,,,,BARREL,C,m,y,./images/BARREL.png,,,,,,,m,1,0.8615,,,,,,,,0,46,46,32,1
,,,,,,,,,,,,,,,,,199507,19,2022-01-28_17h07.23.236,lexical_decision_task_DD_L2,2021.2.3,Win32,58.09225049,,,,,,,,,,,,0.6098,1,,,,,,,,,,,,,,,,,,,,,,,,0.005555569,-0.230555566,0,0,0,,,,,,,PENCE,LB,m,y,./images/PENCELB.png,,,,,,,m,1,0.6098,,,,,,,,0,47,47,16,1
,,,,,,,,,,,,,,,,,199507,19,2022-01-28_17h07.23.236,lexical_decision_task_DD_L2,2021.2.3,Win32,58.09225049,,,,,,,,,,,,0.6112,1,,,,,,,,,,,,,,,,,,,,,,,,0.005555569,-0.230555566,0,0,0,,,,,,,QUILL,LB,m,y,./images/QUILLLB.png,,,,,,,m,1,0.6112,,,,,,,,0,48,48,31,1
,,,,,,,,,,,,,,,,,199507,19,2022-01-28_17h07.23.236,lexical_decision_task_DD_L2,2021.2.3,Win32,58.09225049,,,,,,,,,,,,0.6793,1,,,,,,,,,,,,,,,,,,,,,,,,0.005555569,-0.230555566,0,0,0,,,,,,,ALLEY,LB,z,y,./images/ALLEYLB.png,,,,,,,z,1,0.6793,,,,,,,,0,49,49,139,1
,,,,,,,,,,,,,,,,,199507,19,2022-01-28_17h07.23.236,lexical_decision_task_DD_L2,2021.2.3,Win32,58.09225049,,,,,,,,,,,,0.6415,1,,,,,,,,,,,,,,,,,,,,,,,,0.005555569,-0.230555566,0,0,0,,,,,,,JELLY,LB,m,y,./images/JELLYLB.png,,,,,,,m,1,0.6415,,,,,,,,0,50,50,64,1
,,,,,,,,,,,,,,,,,199507,19,2022-01-28_17h07.23.236,lexical_decision_task_DD_L2,2021.2.3,Win32,58.09225049,,,,,,,,,,,,0.5984,1,,,,,,,,,,,,,,,,,,,,,,,,-0.001851839,-0.254629641,0,0,0,,,,,,,MAGGOT,HB,m,y,./images/MAGGOTHB.png,,,,,,,m,1,0.5984,,,,,,,,0,51,51,33,1
,,,,,,,,,,,,,,,,,199507,19,2022-01-28_17h07.23.236,lexical_decision_task_DD_L2,2021.2.3,Win32,58.09225049,,,,,,,,,,,,1.8368,1,,,,,,,,,,,,,,,,,,,,,,,,-0.001851839,-0.254629641,0,0,0,,,,,,,CLOTH,C,z,y,./images/CLOTH.png,,,,,,,z,1,1.8368,,,,,,,,0,52,52,107,1
,,,,,,,,,,,,,,,,,199507,19,2022-01-28_17h07.23.236,lexical_decision_task_DD_L2,2021.2.3,Win32,58.09225049,,,,,,,,,,,,0.8208,0,,,,,,,,,,,,,,,,,,,,,,,,-0.001851839,-0.254629641,0,0,0,,,,,,,KIDNEY,HB,m,y,./images/KIDNEYHB.png,,,,,,,z,0,0.8208,,,,,,,,0,53,53,21,1
,,,,,,,,,,,,,,,,,199507,19,2022-01-28_17h07.23.236,lexical_decision_task_DD_L2,2021.2.3,Win32,58.09225049,,,,,,,,,,,,0.6286,1,,,,,,,,,,,,,,,,,,,,,,,,-0.001851839,-0.254629641,0,0,0,,,,,,,LLAMA,C,z,y,./images/LLAMA.png,,,,,,,z,1,0.6286,,,,,,,,0,54,54,119,1
,,,,,,,,,,,,,,,,,199507,19,2022-01-28_17h07.23.236,lexical_decision_task_DD_L2,2021.2.3,Win32,58.09225049,,,,,,,,,,,,0.8617,1,,,,,,,,,,,,,,,,,,,,,,,,-0.001851839,-0.254629641,0,0,0,,,,,,,MIRROR,HB,m,y,./images/MIRRORHB.png,,,,,,,m,1,0.8617,,,,,,,,0,55,55,63,1
,,,,,,,,,,,,,,,,,199507,19,2022-01-28_17h07.23.236,lexical_decision_task_DD_L2,2021.2.3,Win32,58.09225049,,,,,,,,,,,,0.7173,0,,,,,,,,,,,,,,,,,,,,,,,,-0.001851839,-0.254629641,0,0,0,,,,,,,SQUARE,HB,m,y,./images/SQUAREHB.png,,,,,,,z,0,0.7173,,,,,,,,0,56,56,6,1
,,,,,,,,,,,,,,,,,199507,19,2022-01-28_17h07.23.236,lexical_decision_task_DD_L2,2021.2.3,Win32,58.09225049,,,,,,,,,,,,2.3599,0,,,,,,,,,,,,,,,,,,,,,,,,-0.001851839,-0.254629641,0,0,0,,,,,,,STRING,C,m,y,./images/STRING.png,,,,,,,z,0,2.3599,,,,,,,,0,57,57,41,1
,,,,,,,,,,,,,,,,,199507,19,2022-01-28_17h07.23.236,lexical_decision_task_DD_L2,2021.2.3,Win32,58.09225049,,,,,,,,,,,,1.4712,0,,,,,,,,,,,,,,,,,,,,,,,,-0.001851839,-0.254629641,0,0,0,,,,,,,DESERT,LB,z,y,./images/DESERTLB.png,,,,,,,m,0,1.4712,,,,,,,,0,58,58,136,1
,,,,,,,,,,,,,,,,,199507,19,2022-01-28_17h07.23.236,lexical_decision_task_DD_L2,2021.2.3,Win32,58.09225049,,,,,,,,,,,,0.5892,1,,,,,,,,,,,,,,,,,,,,,,,,-0.001851839,-0.254629641,0,0,0,,,,,,,KITTEN,HB,m,y,./images/KITTENHB.png,,,,,,,m,1,0.5892,,,,,,,,0,59,59,45,1
,,,,,,,,,,,,,,,,,199507,19,2022-01-28_17h07.23.236,lexical_decision_task_DD_L2,2021.2.3,Win32,58.09225049,,,,,,,,,,,,0.6427,1,,,,,,,,,,,,,,,,,,,,,,,,-0.001851839,-0.254629641,0,0,0,,,,,,,ONION,HB,m,y,./images/ONIONHB.png,,,,,,,m,1,0.6427,,,,,,,,0,60,60,51,1
,,,,,,,,,,,,,,,,,199507,19,2022-01-28_17h07.23.236,lexical_decision_task_DD_L2,2021.2.3,Win32,58.09225049,,,,,,,,,,,,0.7355,1,,,,,,,,,,,,,,,,,,,,,,,,-0.001851839,-0.254629641,0,0,0,,,,,,,BUNNY,LB,z,y,./images/BUNNYLB.png,,,,,,,z,1,0.7355,,,,,,,,0,61,61,97,1
,,,,,,,,,,,,,,,,,199507,19,2022-01-28_17h07.23.236,lexical_decision_task_DD_L2,2021.2.3,Win32,58.09225049,,,,,,,,,,,,0.5732,1,,,,,,,,,,,,,,,,,,,,,,,,-0.001851839,-0.254629641,0,0,0,,,,,,,CRUMB,C,m,y,./images/CRUMB.png,,,,,,,m,1,0.5732,,,,,,,,0,62,62,29,1
,,,,,,,,,,,,,,,,,199507,19,2022-01-28_17h07.23.236,lexical_decision_task_DD_L2,2021.2.3,Win32,58.09225049,,,,,,,,,,,,0.6649,0,,,,,,,,,,,,,,,,,,,,,,,,-0.001851839,-0.254629641,0,0,0,,,,,,,CLIFF,C,z,y,./images/CLIFF.png,,,,,,,m,0,0.6649,,,,,,,,0,63,63,92,1
,,,,,,,,,,,,,,,,,199507,19,2022-01-28_17h07.23.236,lexical_decision_task_DD_L2,2021.2.3,Win32,58.09225049,,,,,,,,,,,,0.7452,1,,,,,,,,,,,,,,,,,,,,,,,,-0.001851839,-0.254629641,0,0,0,,,,,,,WALNUT,HB,z,y,./images/WALNUTHB.png,,,,,,,z,1,0.7452,,,,,,,,0,64,64,84,1
,,,,,,,,,,,,,,,,,199507,19,2022-01-28_17h07.23.236,lexical_decision_task_DD_L2,2021.2.3,Win32,58.09225049,,,,,,,,,,,,0.708,1,,,,,,,,,,,,,,,,,,,,,,,,-0.001851839,-0.254629641,0,0,0,,,,,,,JAGUAR,HB,m,y,./images/JAGUARHB.png,,,,,,,m,1,0.708,,,,,,,,0,65,65,18,1
,,,,,,,,,,,,,,,,,199507,19,2022-01-28_17h07.23.236,lexical_decision_task_DD_L2,2021.2.3,Win32,58.09225049,,,,,,,,,,,,0.6423,1,,,,,,,,,,,,,,,,,,,,,,,,-0.001851839,-0.254629641,0,0,0,,,,,,,SMOKER,C,m,y,./images/SMOKER.png,,,,,,,m,1,0.6423,,,,,,,,0,66,66,26,1
,,,,,,,,,,,,,,,,,199507,19,2022-01-28_17h07.23.236,lexical_decision_task_DD_L2,2021.2.3,Win32,58.09225049,,,,,,,,,,,,0.5948,1,,,,,,,,,,,,,,,,,,,,,,,,-0.001851839,-0.254629641,0,0,0,,,,,,,CLOUD,C,z,y,./images/CLOUD.png,,,,,,,z,1,0.5948,,,,,,,,0,67,67,110,1
,,,,,,,,,,,,,,,,,199507,19,2022-01-28_17h07.23.236,lexical_decision_task_DD_L2,2021.2.3,Win32,58.09225049,,,,,,,,,,,,0.8199,1,,,,,,,,,,,,,,,,,,,,,,,,-0.001851839,-0.254629641,0,0,0,,,,,,,BEARD,C,m,y,./images/BEARD.png,,,,,,,m,1,0.8199,,,,,,,,0,68,68,2,1
,,,,,,,,,,,,,,,,,199507,19,2022-01-28_17h07.23.236,lexical_decision_task_DD_L2,2021.2.3,Win32,58.09225049,,,,,,,,,,,,3.2254,1,,,,,,,,,,,,,,,,,,,,,,,,-0.001851839,-0.254629641,0,0,0,,,,,,,TOMATO,HB,m,y,./images/TOMATOHB.png,,,,,,,m,1,3.2254,,,,,,,,0,69,69,0,1
,,,,,,,,,,,,,,,,,199507,19,2022-01-28_17h07.23.236,lexical_decision_task_DD_L2,2021.2.3,Win32,58.09225049,,,,,,,,,,,,0.7391,1,,,,,,,,,,,,,,,,,,,,,,,,-0.001851839,-0.254629641,0,0,0,,,,,,,PURSE,C,m,y,./images/PURSE.png,,,,,,,m,1,0.7391,,,,,,,,0,70,70,62,1
,,,,,,,,,,,,,,,,,199507,19,2022-01-28_17h07.23.236,lexical_decision_task_DD_L2,2021.2.3,Win32,58.09225049,,,,,,,,,,,,0.7025,1,,,,,,,,,,,,,,,,,,,,,,,,-0.001851839,-0.254629641,0,0,0,,,,,,,BROOM,HB,z,y,./images/BROOMHB.png,,,,,,,z,1,0.7025,,,,,,,,0,71,71,162,1
,,,,,,,,,,,,,,,,,199507,19,2022-01-28_17h07.23.236,lexical_decision_task_DD_L2,2021.2.3,Win32,58.09225049,,,,,,,,,,,,0.6151,1,,,,,,,,,,,,,,,,,,,,,,,,-0.001851839,-0.254629641,0,0,0,,,,,,,CANDLE,LB,m,y,./images/CANDLELB.png,,,,,,,m,1,0.6151,,,,,,,,0,72,72,61,1
,,,,,,,,,,,,,,,,,199507,19,2022-01-28_17h07.23.236,lexical_decision_task_DD_L2,2021.2.3,Win32,58.09225049,,,,,,,,,,,,0.7967,1,,,,,,,,,,,,,,,,,,,,,,,,-0.001851839,-0.254629641,0,0,0,,,,,,,SPORT,HB,m,y,./images/SPORTHB.png,,,,,,,m,1,0.7967,,,,,,,,0,73,73,48,1
,,,,,,,,,,,,,,,,,199507,19,2022-01-28_17h07.23.236,lexical_decision_task_DD_L2,2021.2.3,Win32,58.09225049,,,,,,,,,,,,0.9435,1,,,,,,,,,,,,,,,,,,,,,,,,-0.001851839,-0.254629641,0,0,0,,,,,,,RAZOR,LB,z,y,./images/RAZORLB.png,,,,,,,z,1,0.9435,,,,,,,,0,74,74,118,1
,,,,,,,,,,,,,,,,,199507,19,2022-01-28_17h07.23.236,lexical_decision_task_DD_L2,2021.2.3,Win32,58.09225049,,,,,,,,,,,,0.9029,1,,,,,,,,,,,,,,,,,,,,,,,,-0.001851839,-0.254629641,0,0,0,,,,,,,FINGER,HB,m,y,./images/FINGERHB.png,,,,,,,m,1,0.9029,,,,,,,,0,75,75,3,1
,,,,,,,,,,,,,,,,,199507,19,2022-01-28_17h07.23.236,lexical_decision_task_DD_L2,2021.2.3,Win32,58.09225049,,,,,,,,,,,,1.1602,1,,,,,,,,,,,,,,,,,,,,,,,,-0.001851839,-0.254629641,0,0,0,,,,,,,LADDER,C,m,y,./images/LADDER.png,,,,,,,m,1,1.1602,,,,,,,,0,76,76,38,1
,,,,,,,,,,,,,,,,,199507,19,2022-01-28_17h07.23.236,lexical_decision_task_DD_L2,2021.2.3,Win32,58.09225049,,,,,,,,,,,,0.633,0,,,,,,,,,,,,,,,,,,,,,,,,-0.001851839,-0.254629641,1,0,0,,,,,,,CANYON,LB,m,y,./images/CANYONLB.png,,,,,,,z,0,0.633,-0.001851839,-0.254629641,1,0,0,0.6469,,0,77,77,34,1
,,,,,,,,,,,,,,,,,199507,19,2022-01-28_17h07.23.236,lexical_decision_task_DD_L2,2021.2.3,Win32,58.09225049,,,,,,,,,,,,0.6456,1,,,,,,,,,,,,,,,,,,,,,,,,-0.001851839,-0.254629641,0,0,0,,,,,,,TRIPOD,HB,m,y,./images/TRIPODHB.png,,,,,,,m,1,0.6456,,,,,,,,0,78,78,54,1
,,,,,,,,,,,,,,,,,199507,19,2022-01-28_17h07.23.236,lexical_decision_task_DD_L2,2021.2.3,Win32,58.09225049,,,,,,,,,,,,0.6454,1,,,,,,,,,,,,,,,,,,,,,,,,-0.000925913,-0.255555567,0,0,0,,,,,,,GLOVE,LB,z,y,./images/GLOVELB.png,,,,,,,z,1,0.6454,,,,,,,,0,79,79,157,1
,,,,,,,,,,,,,,,,,199507,19,2022-01-28_17h07.23.236,lexical_decision_task_DD_L2,2021.2.3,Win32,58.09225049,,,,,,,,,,,,1.3793,0,,,,,,,,,,,,,,,,,,,,,,,,-0.000925913,-0.255555567,0,0,0,,,,,,,MAMMAL,C,z,y,./images/MAMMAL.png,,,,,,,m,0,1.3793,,,,,,,,0,80,80,146,1
,,,,,,,,,,,,,,,,,199507,19,2022-01-28_17h07.23.236,lexical_decision_task_DD_L2,2021.2.3,Win32,58.09225049,,,,,,,,,,,,0.5978,1,,,,,,,,,,,,,,,,,,,,,,,,-0.000925913,-0.255555567,0,0,0,,,,,,,FOLDER,HB,m,y,./images/FOLDERHB.png,,,,,,,m,1,0.5978,,,,,,,,0,81,81,42,1
,,,,,,,,,,,,,,,,,199507,19,2022-01-28_17h07.23.236,lexical_decision_task_DD_L2,2021.2.3,Win32,58.09225049,,,,,,,,,,,,0.6674,1,,,,,,,,,,,,,,,,,,,,,,,,-0.000925913,-0.255555567,0,0,0,,,,,,,PEARL,LB,m,y,./images/PEARLLB.png,,,,,,,m,1,0.6674,,,,,,,,0,82,82,46,1
,,,,,,,,,,,,,,,,,199507,19,2022-01-28_17h07.23.236,lexical_decision_task_DD_L2,2021.2.3,Win32,58.09225049,,,,,,,,,,,,0.9126,1,,,,,,,,,,,,,,,,,,,,,,,,-0.002777708,-0.280555567,0,0,0,space,,,,,,RULER,LB,z,y,./images/RULERLB.png,0.9349,,,,,,z,1,0.9126,,,,,,,,0,83,83,163,1
,,,,,,,,,,,,,,,,,199507,19,2022-01-28_17h07.23.236,lexical_decision_task_DD_L2,2021.2.3,Win32,58.09225049,,,,,,,,,,,,1.5917,0,,,,,,,,,,,,,,,,,,,,,,,,-0.002777708,-0.280555567,0,0,0,,,,,,,SUNSET,LB,m,y,./images/SUNSETLB.png,,,,,,,z,0,1.5917,,,,,,,,0,84,84,82,1
,,,,,,,,,,,,,,,,,199507,19,2022-01-28_17h07.23.236,lexical_decision_task_DD_L2,2021.2.3,Win32,58.09225049,,,,,,,,,,,,0.8559,1,,,,,,,,,,,,,,,,,,,,,,,,-0.002777708,-0.280555567,0,0,0,,,,,,,SLOPE,HB,z,y,./images/SLOPEHB.png,,,,,,,z,1,0.8559,,,,,,,,0,85,85,114,1
,,,,,,,,,,,,,,,,,199507,19,2022-01-28_17h07.23.236,lexical_decision_task_DD_L2,2021.2.3,Win32,58.09225049,,,,,,,,,,,,0.7334,1,,,,,,,,,,,,,,,,,,,,,,,,-0.002777708,-0.280555567,0,0,0,,,,,,,BUTTER,HB,z,y,./images/BUTTERHB.png,,,,,,,z,1,0.7334,,,,,,,,0,86,86,111,1
,,,,,,,,,,,,,,,,,199507,19,2022-01-28_17h07.23.236,lexical_decision_task_DD_L2,2021.2.3,Win32,58.09225049,,,,,,,,,,,,0.6713,1,,,,,,,,,,,,,,,,,,,,,,,,-0.002777708,-0.280555567,0,0,0,,,,,,,SKIING,C,m,y,./images/SKIING.png,,,,,,,m,1,0.6713,,,,,,,,0,87,87,17,1
,,,,,,,,,,,,,,,,,199507,19,2022-01-28_17h07.23.236,lexical_decision_task_DD_L2,2021.2.3,Win32,58.09225049,,,,,,,,,,,,0.6295,1,,,,,,,,,,,,,,,,,,,,,,,,-0.002777708,-0.280555567,0,0,0,,,,,,,RHINO,HB,m,y,./images/RHINOHB.png,,,,,,,m,1,0.6295,,,,,,,,0,88,88,9,1
,,,,,,,,,,,,,,,,,199507,19,2022-01-28_17h07.23.236,lexical_decision_task_DD_L2,2021.2.3,Win32,58.09225049,,,,,,,,,,,,0.6617,1,,,,,,,,,,,,,,,,,,,,,,,,-0.002777708,-0.280555567,0,0,0,,,,,,,FERRY,HB,z,y,./images/FERRYHB.png,,,,,,,z,1,0.6617,,,,,,,,0,89,89,141,1
,,,,,,,,,,,,,,,,,199507,19,2022-01-28_17h07.23.236,lexical_decision_task_DD_L2,2021.2.3,Win32,58.09225049,,,,,,,,,,,,1.8055,1,,,,,,,,,,,,,,,,,,,,,,,,-0.002777708,-0.280555567,0,0,0,,,,,,,STOVE,C,z,y,./images/STOVE.png,,,,,,,z,1,1.8055,,,,,,,,0,90,90,86,1
,,,,,,,,,,,,,,,,,199507,19,2022-01-28_17h07.23.236,lexical_decision_task_DD_L2,2021.2.3,Win32,58.09225049,,,,,,,,,,,,0.7543,0,,,,,,,,,,,,,,,,,,,,,,,,-0.002777708,-0.280555567,0,0,0,,,,,,,CARPET,C,m,y,./images/CARPET.png,,,,,,,z,0,0.7543,,,,,,,,0,91,91,53,1
,,,,,,,,,,,,,,,,,199507,19,2022-01-28_17h07.23.236,lexical_decision_task_DD_L2,2021.2.3,Win32,58.09225049,,,,,,,,,,,,1.256,1,,,,,,,,,,,,,,,,,,,,,,,,-0.002777708,-0.280555567,0,0,0,,,,,,,BOXER,LB,z,y,./images/BOXERLB.png,,,,,,,z,1,1.256,,,,,,,,0,92,92,88,1
,,,,,,,,,,,,,,,,,199507,19,2022-01-28_17h07.23.236,lexical_decision_task_DD_L2,2021.2.3,Win32,58.09225049,,,,,,,,,,,,0.7534,1,,,,,,,,,,,,,,,,,,,,,,,,-0.002777708,-0.280555567,0,0,0,,,,,,,BISHOP,LB,z,y,./images/BISHOPLB.png,,,,,,,z,1,0.7534,,,,,,,,0,93,93,133,1
,,,,,,,,,,,,,,,,,199507,19,2022-01-28_17h07.23.236,lexical_decision_task_DD_L2,2021.2.3,Win32,58.09225049,,,,,,,,,,,,2.4154,1,,,,,,,,,,,,,,,,,,,,,,,,-0.002777708,-0.280555567,0,0,0,,,,,,,PARCEL,HB,z,y,./images/PARCELHB.png,,,,,,,z,1,2.4154,,,,,,,,0,94,94,102,1
,,,,,,,,,,,,,,,,,199507,19,2022-01-28_17h07.23.236,lexical_decision_task_DD_L2,2021.2.3,Win32,58.09225049,,,,,,,,,,,,0.8145,1,,,,,,,,,,,,,,,,,,,,,,,,-0.002777708,-0.280555567,0,0,0,,,,,,,GRANNY,C,z,y,./images/GRANNY.png,,,,,,,z,1,0.8145,,,,,,,,0,95,95,104,1
,,,,,,,,,,,,,,,,,199507,19,2022-01-28_17h07.23.236,lexical_decision_task_DD_L2,2021.2.3,Win32,58.09225049,,,,,,,,,,,,0.5321,1,,,,,,,,,,,,,,,,,,,,,,,,-0.002777708,-0.280555567,0,0,0,,,,,,,URINE,LB,m,y,./images/URINELB.png,,,,,,,m,1,0.5321,,,,,,,,0,96,96,70,1
,,,,,,,,,,,,,,,,,199507,19,2022-01-28_17h07.23.236,lexical_decision_task_DD_L2,2021.2.3,Win32,58.09225049,,,,,,,,,,,,3.3895,1,,,,,,,,,,,,,,,,,,,,,,,,-0.002777708,-0.280555567,0,0,0,,,,,,,CRATER,HB,z,y,./images/CRATERHB.png,,,,,,,z,1,3.3895,,,,,,,,0,97,97,87,1
,,,,,,,,,,,,,,,,,199507,19,2022-01-28_17h07.23.236,lexical_decision_task_DD_L2,2021.2.3,Win32,58.09225049,,,,,,,,,,,,0.5793,1,,,,,,,,,,,,,,,,,,,,,,,,-0.002777708,-0.280555567,0,0,0,,,,,,,POODLE,HB,m,y,./images/POODLEHB.png,,,,,,,m,1,0.5793,,,,,,,,0,98,98,81,1
,,,,,,,,,,,,,,,,,199507,19,2022-01-28_17h07.23.236,lexical_decision_task_DD_L2,2021.2.3,Win32,58.09225049,,,,,,,,,,,,1.0639,0,,,,,,,,,,,,,,,,,,,,,,,,-0.002777708,-0.280555567,0,0,0,,,,,,,WHEEL,C,z,y,./images/WHEEL.png,,,,,,,m,0,1.0639,,,,,,,,0,99,99,161,1
,,,,,,,,,,,,,,,,,199507,19,2022-01-28_17h07.23.236,lexical_decision_task_DD_L2,2021.2.3,Win32,58.09225049,,,,,,,,,,,,1.0046,1,,,,,,,,,,,,,,,,,,,,,,,,-0.002777708,-0.280555567,0,0,0,,,,,,,DIVER,HB,z,y,./images/DIVERHB.png,,,,,,,z,1,1.0046,,,,,,,,0,100,100,93,1
,,,,,,,,,,,,,,,,,199507,19,2022-01-28_17h07.23.236,lexical_decision_task_DD_L2,2021.2.3,Win32,58.09225049,,,,,,,,,,,,0.6589,1,,,,,,,,,,,,,,,,,,,,,,,,-0.002777708,-0.280555567,0,0,0,,,,,,,GREASE,HB,m,y,./images/GREASEHB.png,,,,,,,m,1,0.6589,,,,,,,,0,101,101,15,1
,,,,,,,,,,,,,,,,,199507,19,2022-01-28_17h07.23.236,lexical_decision_task_DD_L2,2021.2.3,Win32,58.09225049,,,,,,,,,,,,0.6153,1,,,,,,,,,,,,,,,,,,,,,,,,-0.002777708,-0.280555567,0,0,0,,,,,,,NOOSE,HB,m,y,./images/NOOSEHB.png,,,,,,,m,1,0.6153,,,,,,,,0,102,102,72,1
,,,,,,,,,,,,,,,,,199507,19,2022-01-28_17h07.23.236,lexical_decision_task_DD_L2,2021.2.3,Win32,58.09225049,,,,,,,,,,,,0.7663,1,,,,,,,,,,,,,,,,,,,,,,,,-0.002777708,-0.280555567,0,0,0,,,,,,,CANOE,LB,z,y,./images/CANOELB.png,,,,,,,z,1,0.7663,,,,,,,,0,103,103,142,1
,,,,,,,,,,,,,,,,,199507,19,2022-01-28_17h07.23.236,lexical_decision_task_DD_L2,2021.2.3,Win32,58.09225049,,,,,,,,,,,,0.6509,1,,,,,,,,,,,,,,,,,,,,,,,,-0.002777708,-0.280555567,0,0,0,,,,,,,BONNET,C,m,y,./images/BONNET.png,,,,,,,m,1,0.6509,,,,,,,,0,104,104,11,1
,,,,,,,,,,,,,,,,,199507,19,2022-01-28_17h07.23.236,lexical_decision_task_DD_L2,2021.2.3,Win32,58.09225049,,,,,,,,,,,,0.688,1,,,,,,,,,,,,,,,,,,,,,,,,-0.002777708,-0.280555567,0,0,0,,,,,,,JUMPER,C,z,y,./images/JUMPER.png,,,,,,,z,1,0.688,,,,,,,,0,105,105,158,1
,,,,,,,,,,,,,,,,,199507,19,2022-01-28_17h07.23.236,lexical_decision_task_DD_L2,2021.2.3,Win32,58.09225049,,,,,,,,,,,,1.2115,1,,,,,,,,,,,,,,,,,,,,,,,,-0.002777708,-0.280555567,0,0,0,,,,,,,PEACH,C,m,y,./images/PEACH.png,,,,,,,m,1,1.2115,,,,,,,,0,106,106,35,1
,,,,,,,,,,,,,,,,,199507,19,2022-01-28_17h07.23.236,lexical_decision_task_DD_L2,2021.2.3,Win32,58.09225049,,,,,,,,,,,,0.6389,1,,,,,,,,,,,,,,,,,,,,,,,,-0.002777708,-0.280555567,0,0,0,,,,,,,ARTIST,LB,z,y,./images/ARTISTLB.png,,,,,,,z,1,0.6389,,,,,,,,0,107,107,145,1
,,,,,,,,,,,,,,,,,199507,19,2022-01-28_17h07.23.236,lexical_decision_task_DD_L2,2021.2.3,Win32,58.09225049,,,,,,,,,,,,1.0064,0,,,,,,,,,,,,,,,,,,,,,,,,-0.002777708,-0.280555567,0,0,0,,,,,,,SWING,LB,m,y,./images/SWINGLB.png,,,,,,,z,0,1.0064,,,,,,,,0,108,108,40,1
,,,,,,,,,,,,,,,,,199507,19,2022-01-28_17h07.23.236,lexical_decision_task_DD_L2,2021.2.3,Win32,58.09225049,,,,,,,,,,,,0.7223,1,,,,,,,,,,,,,,,,,,,,,,,,-0.002777708,-0.280555567,0,0,0,,,,,,,INFANT,LB,m,y,./images/INFANTLB.png,,,,,,,m,1,0.7223,,,,,,,,0,109,109,76,1
,,,,,,,,,,,,,,,,,199507,19,2022-01-28_17h07.23.236,lexical_decision_task_DD_L2,2021.2.3,Win32,58.09225049,,,,,,,,,,,,0.7881,0,,,,,,,,,,,,,,,,,,,,,,,,-0.002777708,-0.280555567,0,0,0,,,,,,,TWINS,HB,m,y,./images/TWINSHB.png,,,,,,,z,0,0.7881,,,,,,,,0,110,110,60,1
,,,,,,,,,,,,,,,,,199507,19,2022-01-28_17h07.23.236,lexical_decision_task_DD_L2,2021.2.3,Win32,58.09225049,,,,,,,,,,,,0.7286,1,,,,,,,,,,,,,,,,,,,,,,,,-0.002777708,-0.280555567,0,0,0,,,,,,,PLANET,C,z,y,./images/PLANET.png,,,,,,,z,1,0.7286,,,,,,,,0,111,111,164,1
,,,,,,,,,,,,,,,,,199507,19,2022-01-28_17h07.23.236,lexical_decision_task_DD_L2,2021.2.3,Win32,58.09225049,,,,,,,,,,,,0.6198,1,,,,,,,,,,,,,,,,,,,,,,,,-0.002777708,-0.280555567,0,0,0,,,,,,,ENGINE,C,z,y,./images/ENGINE.png,,,,,,,z,1,0.6198,,,,,,,,0,112,112,122,1
,,,,,,,,,,,,,,,,,199507,19,2022-01-28_17h07.23.236,lexical_decision_task_DD_L2,2021.2.3,Win32,58.09225049,,,,,,,,,,,,0.6203,1,,,,,,,,,,,,,,,,,,,,,,,,-0.002777708,-0.280555567,0,0,0,,,,,,,COUCH,C,m,y,./images/COUCH.png,,,,,,,m,1,0.6203,,,,,,,,0,113,113,77,1
,,,,,,,,,,,,,,,,,199507,19,2022-01-28_17h07.23.236,lexical_decision_task_DD_L2,2021.2.3,Win32,58.09225049,,,,,,,,,,,,10.386,0,,,,,,,,,,,,,,,,,,,,,,,,-0.002777708,-0.280555567,0,0,0,,,,,,,PASTA,C,m,y,./images/PASTA.png,,,,,,,z,0,10.386,,,,,,,,0,114,114,5,1
,,,,,,,,,,,,,,,,,199507,19,2022-01-28_17h07.23.236,lexical_decision_task_DD_L2,2021.2.3,Win32,58.09225049,,,,,,,,,,,,1.1148,1,,,,,,,,,,,,,,,,,,,,,,,,-0.002777708,-0.280555567,0,0,0,,,,,,,HAMMER,HB,z,y,./images/HAMMERHB.png,,,,,,,z,1,1.1148,,,,,,,,0,115,115,159,1
,,,,,,,,,,,,,,,,,199507,19,2022-01-28_17h07.23.236,lexical_decision_task_DD_L2,2021.2.3,Win32,58.09225049,,,,,,,,,,,,1.6614,1,,,,,,,,,,,,,,,,,,,,,,,,-0.002777708,-0.280555567,0,0,0,,,,,,,DONKEY,LB,z,y,./images/DONKEYLB.png,,,,,,,z,1,1.6614,,,,,,,,0,116,116,103,1
,,,,,,,,,,,,,,,,,199507,19,2022-01-28_17h07.23.236,lexical_decision_task_DD_L2,2021.2.3,Win32,58.09225049,,,,,,,,,,,,0.9799,0,,,,,,,,,,,,,,,,,,,,,,,,-0.002777708,-0.280555567,0,0,0,,,,,,,CHERRY,HB,z,y,./images/CHERRYHB.png,,,,,,,m,0,0.9799,,,,,,,,0,117,117,138,1
,,,,,,,,,,,,,,,,,199507,19,2022-01-28_17h07.23.236,lexical_decision_task_DD_L2,2021.2.3,Win32,58.09225049,,,,,,,,,,,,5.6589,0,,,,,,,,,,,,,,,,,,,,,,,,-0.002777708,-0.280555567,0,0,0,,,,,,,FARMER,C,m,y,./images/FARMER.png,,,,,,,z,0,5.6589,,,,,,,,0,118,118,65,1
,,,,,,,,,,,,,,,,,199507,19,2022-01-28_17h07.23.236,lexical_decision_task_DD_L2,2021.2.3,Win32,58.09225049,,,,,,,,,,,,1.3817,1,,,,,,,,,,,,,,,,,,,,,,,,-0.002777708,-0.280555567,0,0,0,,,,,,,SNACK,LB,m,y,./images/SNACKLB.png,,,,,,,m,1,1.3817,,,,,,,,0,119,119,73,1
,,,,,,,,,,,,,,,,,199507,19,2022-01-28_17h07.23.236,lexical_decision_task_DD_L2,2021.2.3,Win32,58.09225049,,,,,,,,,,,,0.794,1,,,,,,,,,,,,,,,,,,,,,,,,-0.002777708,-0.280555567,0,0,0,,,,,,,BRIDE,LB,z,y,./images/BRIDELB.png,,,,,,,z,1,0.794,,,,,,,,0,120,120,148,1
,,,,,,,,,,,,,,,,,199507,19,2022-01-28_17h07.23.236,lexical_decision_task_DD_L2,2021.2.3,Win32,58.09225049,,,,,,,,,,,,1.0002,1,,,,,,,,,,,,,,,,,,,,,,,,-0.002777708,-0.280555567,0,0,0,,,,,,,MOSQUE,LB,m,y,./images/MOSQUELB.png,,,,,,,m,1,1.0002,,,,,,,,0,121,121,43,1
,,,,,,,,,,,,,,,,,199507,19,2022-01-28_17h07.23.236,lexical_decision_task_DD_L2,2021.2.3,Win32,58.09225049,,,,,,,,,,,,0.7781,1,,,,,,,,,,,,,,,,,,,,,,,,-0.002777708,-0.280555567,0,0,0,,,,,,,CEMENT,C,m,y,./images/CEMENT.png,,,,,,,m,1,0.7781,,,,,,,,0,122,122,74,1
,,,,,,,,,,,,,,,,,199507,19,2022-01-28_17h07.23.236,lexical_decision_task_DD_L2,2021.2.3,Win32,58.09225049,,,,,,,,,,,,0.7272,1,,,,,,,,,,,,,,,,,,,,,,,,-0.002777708,-0.280555567,0,0,0,,,,,,,BRUSH,C,z,y,./images/BRUSH.png,,,,,,,z,1,0.7272,,,,,,,,0,123,123,143,1
,,,,,,,,,,,,,,,,,199507,19,2022-01-28_17h07.23.236,lexical_decision_task_DD_L2,2021.2.3,Win32,58.09225049,,,,,,,,,,,,0.627,1,,,,,,,,,,,,,,,,,,,,,,,,-0.002777708,-0.280555567,0,0,0,,,,,,,MIDGET,LB,z,y,./images/MIDGETLB.png,,,,,,,z,1,0.627,,,,,,,,0,124,124,160,1
,,,,,,,,,,,,,,,,,199507,19,2022-01-28_17h07.23.236,lexical_decision_task_DD_L2,2021.2.3,Win32,58.09225049,,,,,,,,,,,,0.7899,1,,,,,,,,,,,,,,,,,,,,,,,,-0.002777708,-0.280555567,0,0,0,space,,,,,,PILOT,C,z,y,./images/PILOT.png,0.7652,,,,,,z,1,0.7899,,,,,,,,0,125,125,134,1
,,,,,,,,,,,,,,,,,199507,19,2022-01-28_17h07.23.236,lexical_decision_task_DD_L2,2021.2.3,Win32,58.09225049,,,,,,,,,,,,0.9121,1,,,,,,,,,,,,,,,,,,,,,,,,-0.002777708,-0.280555567,0,0,0,,,,,,,POSTER,C,z,y,./images/POSTER.png,,,,,,,z,1,0.9121,,,,,,,,0,126,126,137,1
,,,,,,,,,,,,,,,,,199507,19,2022-01-28_17h07.23.236,lexical_decision_task_DD_L2,2021.2.3,Win32,58.09225049,,,,,,,,,,,,0.5964,1,,,,,,,,,,,,,,,,,,,,,,,,-0.002777708,-0.280555567,0,0,0,,,,,,,ARROW,HB,z,y,./images/ARROWHB.png,,,,,,,z,1,0.5964,,,,,,,,0,127,127,153,1
,,,,,,,,,,,,,,,,,199507,19,2022-01-28_17h07.23.236,lexical_decision_task_DD_L2,2021.2.3,Win32,58.09225049,,,,,,,,,,,,1.0117,1,,,,,,,,,,,,,,,,,,,,,,,,-0.002777708,-0.280555567,0,0,0,,,,,,,WAGON,LB,z,y,./images/WAGONLB.png,,,,,,,z,1,1.0117,,,,,,,,0,128,128,91,1
,,,,,,,,,,,,,,,,,199507,19,2022-01-28_17h07.23.236,lexical_decision_task_DD_L2,2021.2.3,Win32,58.09225049,,,,,,,,,,,,1.1032,0,,,,,,,,,,,,,,,,,,,,,,,,-0.002777708,-0.280555567,0,0,0,,,,,,,MUSCLE,LB,m,y,./images/MUSCLELB.png,,,,,,,z,0,1.1032,,,,,,,,0,129,129,4,1
,,,,,,,,,,,,,,,,,199507,19,2022-01-28_17h07.23.236,lexical_decision_task_DD_L2,2021.2.3,Win32,58.09225049,,,,,,,,,,,,0.6642,1,,,,,,,,,,,,,,,,,,,,,,,,-0.002777708,-0.280555567,0,0,0,,,,,,,MUMMY,LB,z,y,./images/MUMMYLB.png,,,,,,,z,1,0.6642,,,,,,,,0,130,130,130,1
,,,,,,,,,,,,,,,,,199507,19,2022-01-28_17h07.23.236,lexical_decision_task_DD_L2,2021.2.3,Win32,58.09225049,,,,,,,,,,,,0.6652,1,,,,,,,,,,,,,,,,,,,,,,,,-0.002777708,-0.280555567,0,0,0,,,,,,,CURRY,HB,z,y,./images/CURRYHB.png,,,,,,,z,1,0.6652,,,,,,,,0,131,131,144,1
,,,,,,,,,,,,,,,,,199507,19,2022-01-28_17h07.23.236,lexical_decision_task_DD_L2,2021.2.3,Win32,58.09225049,,,,,,,,,,,,1.0613,1,,,,,,,,,,,,,,,,,,,,,,,,-0.002777708,-0.280555567,0,0,0,,,,,,,STORM,HB,m,y,./images/STORMHB.png,,,,,,,m,1,1.0613,,,,,,,,0,132,132,30,1
,,,,,,,,,,,,,,,,,199507,19,2022-01-28_17h07.23.236,lexical_decision_task_DD_L2,2021.2.3,Win32,58.09225049,,,,,,,,,,,,1.271,1,,,,,,,,,,,,,,,,,,,,,,,,-0.002777708,-0.280555567,0,0,0,,,,,,,TORCH,C,m,y,./images/TORCH.png,,,,,,,m,1,1.271,,,,,,,,0,133,133,68,1
,,,,,,,,,,,,,,,,,199507,19,2022-01-28_17h07.23.236,lexical_decision_task_DD_L2,2021.2.3,Win32,58.09225049,,,,,,,,,,,,0.5784,1,,,,,,,,,,,,,,,,,,,,,,,,-0.002777708,-0.280555567,0,0,0,,,,,,,THROAT,HB,m,y,./images/THROATHB.png,,,,,,,m,1,0.5784,,,,,,,,0,134,134,36,1
,,,,,,,,,,,,,,,,,199507,19,2022-01-28_17h07.23.236,lexical_decision_task_DD_L2,2021.2.3,Win32,58.09225049,,,,,,,,,,,,0.7681,1,,,,,,,,,,,,,,,,,,,,,,,,-0.002777708,-0.280555567,0,0,0,,,,,,,STEAK,LB,z,y,./images/STEAKLB.png,,,,,,,z,1,0.7681,,,,,,,,0,135,135,115,1
,,,,,,,,,,,,,,,,,199507,19,2022-01-28_17h07.23.236,lexical_decision_task_DD_L2,2021.2.3,Win32,58.09225049,,,,,,,,,,,,0.6218,0,,,,,,,,,,,,,,,,,,,,,,,,-0.002777708,-0.280555567,0,0,0,,,,,,,DRUMS,LB,m,y,./images/DRUMSLB.png,,,,,,,z,0,0.6218,,,,,,,,0,136,136,49,1
,,,,,,,,,,,,,,,,,199507,19,2022-01-28_17h07.23.236,lexical_decision_task_DD_L2,2021.2.3,Win32,58.09225049,,,,,,,,,,,,0.5612,1,,,,,,,,,,,,,,,,,,,,,,,,-0.002777708,-0.280555567,0,0,0,,,,,,,BOILER,HB,z,y,./images/BOILERHB.png,,,,,,,z,1,0.5612,,,,,,,,0,137,137,120,1
,,,,,,,,,,,,,,,,,199507,19,2022-01-28_17h07.23.236,lexical_decision_task_DD_L2,2021.2.3,Win32,58.09225049,,,,,,,,,,,,2.7648,1,,,,,,,,,,,,,,,,,,,,,,,,-0.002777708,-0.280555567,0,0,0,,,,,,,LIZARD,C,m,y,./images/LIZARD.png,,,,,,,m,1,2.7648,,,,,,,,0,138,138,44,1
,,,,,,,,,,,,,,,,,199507,19,2022-01-28_17h07.23.236,lexical_decision_task_DD_L2,2021.2.3,Win32,58.09225049,,,,,,,,,,,,1.0123,0,,,,,,,,,,,,,,,,,,,,,,,,-0.002777708,-0.280555567,0,0,0,,,,,,,PICKLE,C,m,y,./images/PICKLE.png,,,,,,,z,0,1.0123,,,,,,,,0,139,139,14,1
,,,,,,,,,,,,,,,,,199507,19,2022-01-28_17h07.23.236,lexical_decision_task_DD_L2,2021.2.3,Win32,58.09225049,,,,,,,,,,,,0.7681,1,,,,,,,,,,,,,,,,,,,,,,,,-0.002777708,-0.280555567,0,0,0,,,,,,,DOUGH,LB,m,y,./images/DOUGHLB.png,,,,,,,m,1,0.7681,,,,,,,,0,140,140,19,1
,,,,,,,,,,,,,,,,,199507,19,2022-01-28_17h07.23.236,lexical_decision_task_DD_L2,2021.2.3,Win32,58.09225049,,,,,,,,,,,,1.5315,1,,,,,,,,,,,,,,,,,,,,,,,,-0.002777708,-0.280555567,0,0,0,,,,,,,WHISKY,C,z,y,./images/WHISKY.png,,,,,,,z,1,1.5315,,,,,,,,0,141,141,167,1
,,,,,,,,,,,,,,,,,199507,19,2022-01-28_17h07.23.236,lexical_decision_task_DD_L2,2021.2.3,Win32,58.09225049,,,,,,,,,,,,0.9719,1,,,,,,,,,,,,,,,,,,,,,,,,-0.002777708,-0.280555567,0,0,0,,,,,,,SHELF,HB,m,y,./images/SHELFHB.png,,,,,,,m,1,0.9719,,,,,,,,0,142,142,39,1
,,,,,,,,,,,,,,,,,199507,19,2022-01-28_17h07.23.236,lexical_decision_task_DD_L2,2021.2.3,Win32,58.09225049,,,,,,,,,,,,0.6781,1,,,,,,,,,,,,,,,,,,,,,,,,-0.002777708,-0.280555567,0,0,0,,,,,,,LAGOON,C,z,y,./images/LAGOON.png,,,,,,,z,1,0.6781,,,,,,,,0,143,143,131,1
,,,,,,,,,,,,,,,,,199507,19,2022-01-28_17h07.23.236,lexical_decision_task_DD_L2,2021.2.3,Win32,58.09225049,,,,,,,,,,,,0.9413,0,,,,,,,,,,,,,,,,,,,,,,,,-0.002777708,-0.280555567,0,0,0,,,,,,,SAILOR,LB,m,y,./images/SAILORLB.png,,,,,,,z,0,0.9413,,,,,,,,0,144,144,67,1
,,,,,,,,,,,,,,,,,199507,19,2022-01-28_17h07.23.236,lexical_decision_task_DD_L2,2021.2.3,Win32,58.09225049,,,,,,,,,,,,2.271,1,,,,,,,,,,,,,,,,,,,,,,,,-0.002777708,-0.280555567,0,0,0,,,,,,,BASKET,C,z,y,./images/BASKET.png,,,,,,,z,1,2.271,,,,,,,,0,145,145,128,1
,,,,,,,,,,,,,,,,,199507,19,2022-01-28_17h07.23.236,lexical_decision_task_DD_L2,2021.2.3,Win32,58.09225049,,,,,,,,,,,,0.8224,0,,,,,,,,,,,,,,,,,,,,,,,,-0.002777708,-0.280555567,0,0,0,,,,,,,FENCE,C,z,y,./images/FENCE.png,,,,,,,m,0,0.8224,,,,,,,,0,146,146,98,1
,,,,,,,,,,,,,,,,,199507,19,2022-01-28_17h07.23.236,lexical_decision_task_DD_L2,2021.2.3,Win32,58.09225049,,,,,,,,,,,,2.4487,0,,,,,,,,,,,,,,,,,,,,,,,,-0.002777708,-0.280555567,0,0,0,,,,,,,WALRUS,C,m,y,./images/WALRUS.png,,,,,,,z,0,2.4487,,,,,,,,0,147,147,23,1
,,,,,,,,,,,,,,,,,199507,19,2022-01-28_17h07.23.236,lexical_decision_task_DD_L2,2021.2.3,Win32,58.09225049,,,,,,,,,,,,0.7724,1,,,,,,,,,,,,,,,,,,,,,,,,-0.002777708,-0.280555567,0,0,0,,,,,,,BIRTH,LB,m,y,./images/BIRTHLB.png,,,,,,,m,1,0.7724,,,,,,,,0,148,148,37,1
,,,,,,,,,,,,,,,,,199507,19,2022-01-28_17h07.23.236,lexical_decision_task_DD_L2,2021.2.3,Win32,58.09225049,,,,,,,,,,,,2.2364,0,,,,,,,,,,,,,,,,,,,,,,,,-0.002777708,-0.280555567,0,0,0,,,,,,,MELON,LB,m,y,./images/MELONLB.png,,,,,,,z,0,2.2364,,,,,,,,0,149,149,22,1
,,,,,,,,,,,,,,,,,199507,19,2022-01-28_17h07.23.236,lexical_decision_task_DD_L2,2021.2.3,Win32,58.09225049,,,,,,,,,,,,1.0001,1,,,,,,,,,,,,,,,,,,,,,,,,-0.002777708,-0.280555567,0,0,0,,,,,,,GARDEN,LB,z,y,./images/GARDENLB.png,,,,,,,z,1,1.0001,,,,,,,,0,150,150,94,1
,,,,,,,,,,,,,,,,,199507,19,2022-01-28_17h07.23.236,lexical_decision_task_DD_L2,2021.2.3,Win32,58.09225049,,,,,,,,,,,,0.8733,1,,,,,,,,,,,,,,,,,,,,,,,,-0.002777708,-0.280555567,0,0,0,,,,,,,BAKER,HB,z,y,./images/BAKERHB.png,,,,,,,z,1,0.8733,,,,,,,,0,151,151,147,1
,,,,,,,,,,,,,,,,,199507,19,2022-01-28_17h07.23.236,lexical_decision_task_DD_L2,2021.2.3,Win32,58.09225049,,,,,,,,,,,,2.1028,1,,,,,,,,,,,,,,,,,,,,,,,,-0.002777708,-0.280555567,0,0,0,,,,,,,ATTIC,HB,m,y,./images/ATTICHB.png,,,,,,,m,1,2.1028,,,,,,,,0,152,152,27,1
,,,,,,,,,,,,,,,,,199507,19,2022-01-28_17h07.23.236,lexical_decision_task_DD_L2,2021.2.3,Win32,58.09225049,,,,,,,,,,,,0.7348,1,,,,,,,,,,,,,,,,,,,,,,,,-0.002777708,-0.280555567,0,0,0,,,,,,,SCREW,HB,m,y,./images/SCREWHB.png,,,,,,,m,1,0.7348,,,,,,,,0,153,153,24,1
,,,,,,,,,,,,,,,,,199507,19,2022-01-28_17h07.23.236,lexical_decision_task_DD_L2,2021.2.3,Win32,58.09225049,,,,,,,,,,,,0.7914,1,,,,,,,,,,,,,,,,,,,,,,,,-0.002777708,-0.280555567,0,0,0,,,,,,,BANANA,LB,z,y,./images/BANANALB.png,,,,,,,z,1,0.7914,,,,,,,,0,154,154,154,1
,,,,,,,,,,,,,,,,,199507,19,2022-01-28_17h07.23.236,lexical_decision_task_DD_L2,2021.2.3,Win32,58.09225049,,,,,,,,,,,,0.957,0,,,,,,,,,,,,,,,,,,,,,,,,-0.002777708,-0.280555567,0,0,0,,,,,,,MALLET,C,m,y,./images/MALLET.png,,,,,,,z,0,0.957,,,,,,,,0,155,155,50,1
,,,,,,,,,,,,,,,,,199507,19,2022-01-28_17h07.23.236,lexical_decision_task_DD_L2,2021.2.3,Win32,58.09225049,,,,,,,,,,,,1.0003,1,,,,,,,,,,,,,,,,,,,,,,,,-0.002777708,-0.280555567,0,0,0,,,,,,,PARADE,C,z,y,./images/PARADE.png,,,,,,,z,1,1.0003,,,,,,,,0,156,156,101,1
,,,,,,,,,,,,,,,,,199507,19,2022-01-28_17h07.23.236,lexical_decision_task_DD_L2,2021.2.3,Win32,58.09225049,,,,,,,,,,,,0.7779,1,,,,,,,,,,,,,,,,,,,,,,,,-0.002777708,-0.280555567,0,0,0,,,,,,,SHIELD,HB,z,y,./images/SHIELDHB.png,,,,,,,z,1,0.7779,,,,,,,,0,157,157,132,1
,,,,,,,,,,,,,,,,,199507,19,2022-01-28_17h07.23.236,lexical_decision_task_DD_L2,2021.2.3,Win32,58.09225049,,,,,,,,,,,,0.6504,1,,,,,,,,,,,,,,,,,,,,,,,,-0.002777708,-0.280555567,0,0,0,,,,,,,HEATER,C,z,y,./images/HEATER.png,,,,,,,z,1,0.6504,,,,,,,,0,158,158,140,1
,,,,,,,,,,,,,,,,,199507,19,2022-01-28_17h07.23.236,lexical_decision_task_DD_L2,2021.2.3,Win32,58.09225049,,,,,,,,,,,,0.8679,1,,,,,,,,,,,,,,,,,,,,,,,,-0.002777708,-0.280555567,0,0,0,,,,,,,BELLY,LB,m,y,./images/BELLYLB.png,,,,,,,m,1,0.8679,,,,,,,,0,159,159,10,1
,,,,,,,,,,,,,,,,,199507,19,2022-01-28_17h07.23.236,lexical_decision_task_DD_L2,2021.2.3,Win32,58.09225049,,,,,,,,,,,,4.0496,1,,,,,,,,,,,,,,,,,,,,,,,,-0.002777708,-0.280555567,0,0,0,,,,,,,STOOL,LB,z,y,./images/STOOLLB.png,,,,,,,z,1,4.0496,,,,,,,,0,160,160,127,1
,,,,,,,,,,,,,,,,,199507,19,2022-01-28_17h07.23.236,lexical_decision_task_DD_L2,2021.2.3,Win32,58.09225049,,,,,,,,,,,,1.3393,1,,,,,,,,,,,,,,,,,,,,,,,,-0.002777708,-0.280555567,0,0,0,,,,,,,POKER,LB,z,y,./images/POKERLB.png,,,,,,,z,1,1.3393,,,,,,,,0,161,161,151,1
,,,,,,,,,,,,,,,,,199507,19,2022-01-28_17h07.23.236,lexical_decision_task_DD_L2,2021.2.3,Win32,58.09225049,,,,,,,,,,,,6.0284,1,,,,,,,,,,,,,,,,,,,,,,,,-0.002777708,-0.280555567,0,0,0,,,,,,,MONKEY,HB,z,y,./images/MONKEYHB.png,,,,,,,z,1,6.0284,,,,,,,,0,162,162,129,1
,,,,,,,,,,,,,,,,,199507,19,2022-01-28_17h07.23.236,lexical_decision_task_DD_L2,2021.2.3,Win32,58.09225049,,,,,,,,,,,,0.9412,1,,,,,,,,,,,,,,,,,,,,,,,,-0.002777708,-0.280555567,0,0,0,,,,,,,CHALK,LB,z,y,./images/CHALKLB.png,,,,,,,z,1,0.9412,,,,,,,,0,163,163,109,1
,,,,,,,,,,,,,,,,,199507,19,2022-01-28_17h07.23.236,lexical_decision_task_DD_L2,2021.2.3,Win32,58.09225049,,,,,,,,,,,,2.0042,1,,,,,,,,,,,,,,,,,,,,,,,,-0.002777708,-0.280555567,0,0,0,,,,,,,JUNGLE,C,m,y,./images/JUNGLE.png,,,,,,,m,1,2.0042,,,,,,,,0,164,164,83,1
,,,,,,,,,,,,,,,,,199507,19,2022-01-28_17h07.23.236,lexical_decision_task_DD_L2,2021.2.3,Win32,58.09225049,,,,,,,,,,,,0.8398,1,,,,,,,,,,,,,,,,,,,,,,,,-0.002777708,-0.280555567,0,0,0,,,,,,,HOCKEY,C,z,y,./images/HOCKEY.png,,,,,,,z,1,0.8398,,,,,,,,0,165,165,116,1
,,,,,,,,,,,,,,,,,199507,19,2022-01-28_17h07.23.236,lexical_decision_task_DD_L2,2021.2.3,Win32,58.09225049,,,,,,,,,,,,0.8934,0,,,,,,,,,,,,,,,,,,,,,,,,-0.002777708,-0.280555567,0,0,0,,,,,,,DRILL,HB,z,y,./images/DRILLHB.png,,,,,,,m,0,0.8934,,,,,,,,0,166,166,165,1
,,,,,,,,,,,,,,,,,199507,19,2022-01-28_17h07.23.236,lexical_decision_task_DD_L2,2021.2.3,Win32,58.09225049,,,,,,,,,,,,0.7217,1,,,,,,,,,,,,,,,,,,,,,,,,-0.002777708,-0.280555567,0,0,0,,,,,,,MOTOR,LB,m,y,./images/MOTORLB.png,,,,,,,m,1,0.7217,,,,,,,,0,167,167,13,1
