key_resp.keys,instr_done_touch.x,instr_done_touch.y,instr_done_touch.leftButton,instr_done_touch.midButton,instr_done_touch.rightButton,instr_done_touch.clicked_name,instruction_pages.thisRepN,instruction_pages.thisTrialN,instruction_pages.thisN,instruction_pages.thisIndex,instruction_pages.ran,pageN,phase,instruct_text,has_image,instruct_image,participant,age,date,expName,psychopyVersion,OS,frameRate,response.keys,response.corr,touch_resp.x,touch_resp.y,touch_resp.leftButton,touch_resp.midButton,touch_resp.rightButton,touch_resp.time,touch_resp.clicked_name,rt,corr,practrials.thisRepN,practrials.thisTrialN,practrials.thisN,practrials.thisIndex,practrials.ran,TrialID,Target,corrAns,end_of_practice_trials_pages.thisRepN,end_of_practice_trials_pages.thisTrialN,end_of_practice_trials_pages.thisN,end_of_practice_trials_pages.thisIndex,end_of_practice_trials_pages.ran,key_resp_2.keys,key_resp_2.corr,targ_click.x,targ_click.y,targ_click.leftButton,targ_click.midButton,targ_click.rightButton,targ_click.time,targ_click.clicked_name,break_done_touch.x,break_done_touch.y,break_done_touch.leftButton,break_done_touch.midButton,break_done_touch.rightButton,break_done_keyboard.keys,maintrials.thisRepN,maintrials.thisTrialN,maintrials.thisN,maintrials.thisIndex,maintrials.ran,string,blur,study,lex,stim_path,break_done_touch.clicked_name,test_instructions.thisRepN,test_instructions.thisTrialN,test_instructions.thisN,test_instructions.thisIndex,test_instructions.ran,key_resp.rt,key_resp_3.keys,key_resp_3.corr,test_click.x,test_click.y,test_click.leftButton,test_click.midButton,test_click.rightButton,test_click.time,test_click.clicked_name,test_phase.thisRepN,test_phase.thisTrialN,test_phase.thisN,test_phase.thisIndex,test_phase.ran
,0.118164063,-0.387695313,1,0,0,instr_done_button,0,0,0,0,1,1,instructions,"INSTRUCTIONS
At the start of each trial, look at the plus sign  (+) in the center of the screen.  This tells you that a trial is about to begin and where to look. Second, the plus sign will disappear and a string of letters will appear. Your task is to determine if the string of letters is a word or not. If the item is a word press the M key (on keyboard)  or touch the word button (phone/tablet).  If the item is not a word,  press the  Z key (on keyboard)  or touch the nonword button (on phone/tablet). 
Press the space bar or touch  continue.",0,,199567,18,2022-01-28_15h57.06.049,lexical_decision_task_DD_L6,2021.2.3,MacIntel,58.82352941,,,,,,,,,,,,,,,,,,,,,,,,,,,,,,,,,,,,,,,,,,,,,,,,,,,,,,,,,,,,,,,,,,,,,,
,0.116210938,-0.390625,1,0,0,instr_done_button,0,1,1,1,1,2,instructions,"If your device has a keyboard, press the 'Z' key for nonwords and the 'M' key for words.





Press the space bar or touch the button below to continue.",0,keyboard-example.gif,199567,18,2022-01-28_15h57.06.049,lexical_decision_task_DD_L6,2021.2.3,MacIntel,58.82352941,,,,,,,,,,,,,,,,,,,,,,,,,,,,,,,,,,,,,,,,,,,,,,,,,,,,,,,,,,,,,,,,,,,,,,
,0.08984375,-0.392578125,1,0,0,instr_done_button,0,2,2,2,1,3,instructions,"If you are using a touchscreen only device, use the buttons on the screen. Do not use the mouse.





Press the space bar or touch the button below to continue.",0,touchscreen-example.gif,199567,18,2022-01-28_15h57.06.049,lexical_decision_task_DD_L6,2021.2.3,MacIntel,58.82352941,,,,,,,,,,,,,,,,,,,,,,,,,,,,,,,,,,,,,,,,,,,,,,,,,,,,,,,,,,,,,,,,,,,,,,
,0.08203125,-0.395507813,1,0,0,instr_done_button,0,3,3,3,1,4,instructions,"It is very important that you respond as quickly and accurately as possible, as each letter string will only be on the screen for two seconds. If you do not respond within this time, the message 'Too slow!' will be displayed and the experiment will progress to the next letter string. The first 20 trials will be practice trials and you will receive feedback on your answers. 

Press the space bar or touch the button below to start the practice trials.",0,,199567,18,2022-01-28_15h57.06.049,lexical_decision_task_DD_L6,2021.2.3,MacIntel,58.82352941,,,,,,,,,,,,,,,,,,,,,,,,,,,,,,,,,,,,,,,,,,,,,,,,,,,,,,,,,,,,,,,,,,,,,,
,,,,,,,,,,,,,,,,,199567,18,2022-01-28_15h57.06.049,lexical_decision_task_DD_L6,2021.2.3,MacIntel,58.82352941,,0,0.459960938,-0.297851563,1,0,0,3.809,button_right,3.809,1,0,0,0,2,1,1001,ALMOND,m,,,,,,,,,,,,,,,,,,,,,,,,,,,,,,,,,,,,,,,,,,,,,,,,,,,
,,,,,,,,,,,,,,,,,199567,18,2022-01-28_15h57.06.049,lexical_decision_task_DD_L6,2021.2.3,MacIntel,58.82352941,,0,0.46875,-0.297851563,1,0,0,1.462,button_right,1.462,1,0,1,1,6,1,1001,ZOMBIE,m,,,,,,,,,,,,,,,,,,,,,,,,,,,,,,,,,,,,,,,,,,,,,,,,,,,
,,,,,,,,,,,,,,,,,199567,18,2022-01-28_15h57.06.049,lexical_decision_task_DD_L6,2021.2.3,MacIntel,58.82352941,,0,0.466796875,-0.32421875,1,0,0,1.03,button_right,1.03,1,0,2,2,3,1,1001,MATRIX,m,,,,,,,,,,,,,,,,,,,,,,,,,,,,,,,,,,,,,,,,,,,,,,,,,,,
,,,,,,,,,,,,,,,,,199567,18,2022-01-28_15h57.06.049,lexical_decision_task_DD_L6,2021.2.3,MacIntel,58.82352941,,0,-0.299804688,-0.30859375,1,0,0,2.167,button_left,2.167,1,0,3,3,10,1,1001,INLADE,z,,,,,,,,,,,,,,,,,,,,,,,,,,,,,,,,,,,,,,,,,,,,,,,,,,,
,,,,,,,,,,,,,,,,,199567,18,2022-01-28_15h57.06.049,lexical_decision_task_DD_L6,2021.2.3,MacIntel,58.82352941,,0,0.423828125,-0.296875,1,0,0,0.965,button_right,0.965,1,0,4,4,7,1,1001,VOLUME,m,,,,,,,,,,,,,,,,,,,,,,,,,,,,,,,,,,,,,,,,,,,,,,,,,,,
,,,,,,,,,,,,,,,,,199567,18,2022-01-28_15h57.06.049,lexical_decision_task_DD_L6,2021.2.3,MacIntel,58.82352941,,0,-0.274414063,-0.323242188,1,0,0,1.33,button_left,1.33,1,0,5,5,13,1,1001,ROUPET,z,,,,,,,,,,,,,,,,,,,,,,,,,,,,,,,,,,,,,,,,,,,,,,,,,,,
,,,,,,,,,,,,,,,,,199567,18,2022-01-28_15h57.06.049,lexical_decision_task_DD_L6,2021.2.3,MacIntel,58.82352941,,0,-0.258789063,-0.325195313,1,0,0,0.981,button_left,0.981,1,0,6,6,9,1,1001,FARINY,z,,,,,,,,,,,,,,,,,,,,,,,,,,,,,,,,,,,,,,,,,,,,,,,,,,,
,,,,,,,,,,,,,,,,,199567,18,2022-01-28_15h57.06.049,lexical_decision_task_DD_L6,2021.2.3,MacIntel,58.82352941,,0,-0.26171875,-0.315429688,1,0,0,0.981,button_left,0.981,1,0,7,7,12,1,1001,SPRINY,z,,,,,,,,,,,,,,,,,,,,,,,,,,,,,,,,,,,,,,,,,,,,,,,,,,,
,,,,,,,,,,,,,,,,,199567,18,2022-01-28_15h57.06.049,lexical_decision_task_DD_L6,2021.2.3,MacIntel,58.82352941,,0,-0.26953125,-0.310546875,1,0,0,0.946,button_left,0.946,1,0,8,8,8,1,1001,ASLERT,z,,,,,,,,,,,,,,,,,,,,,,,,,,,,,,,,,,,,,,,,,,,,,,,,,,,
,,,,,,,,,,,,,,,,,199567,18,2022-01-28_15h57.06.049,lexical_decision_task_DD_L6,2021.2.3,MacIntel,58.82352941,,0,-0.290039063,-0.293945313,1,0,0,0.967,button_left,0.967,1,0,9,9,11,1,1001,RASHET,z,,,,,,,,,,,,,,,,,,,,,,,,,,,,,,,,,,,,,,,,,,,,,,,,,,,
,,,,,,,,,,,,,,,,,199567,18,2022-01-28_15h57.06.049,lexical_decision_task_DD_L6,2021.2.3,MacIntel,58.82352941,,0,-0.267578125,-0.306640625,1,0,0,0.896,button_left,0.896,1,0,10,10,15,1,1001,WHAISE,z,,,,,,,,,,,,,,,,,,,,,,,,,,,,,,,,,,,,,,,,,,,,,,,,,,,
,,,,,,,,,,,,,,,,,199567,18,2022-01-28_15h57.06.049,lexical_decision_task_DD_L6,2021.2.3,MacIntel,58.82352941,,0,0.325195313,-0.282226563,1,0,0,1.028,button_right,1.028,1,0,11,11,5,1,1001,OBTAIN,m,,,,,,,,,,,,,,,,,,,,,,,,,,,,,,,,,,,,,,,,,,,,,,,,,,,
,,,,,,,,,,,,,,,,,199567,18,2022-01-28_15h57.06.049,lexical_decision_task_DD_L6,2021.2.3,MacIntel,58.82352941,,0,0.360351563,-0.286132813,1,0,0,0.765,button_right,0.765,1,0,12,12,4,1,1001,SQUEAK,m,,,,,,,,,,,,,,,,,,,,,,,,,,,,,,,,,,,,,,,,,,,,,,,,,,,
,,,,,,,,,,,,,,,,,199567,18,2022-01-28_15h57.06.049,lexical_decision_task_DD_L6,2021.2.3,MacIntel,58.82352941,,0,-0.26171875,-0.279296875,1,0,0,1.546,button_left,1.546,1,0,13,13,14,1,1001,THRALE,z,,,,,,,,,,,,,,,,,,,,,,,,,,,,,,,,,,,,,,,,,,,,,,,,,,,
,,,,,,,,,,,,,,,,,199567,18,2022-01-28_15h57.06.049,lexical_decision_task_DD_L6,2021.2.3,MacIntel,58.82352941,,0,0.301757813,-0.319335938,1,0,0,0.962,button_right,0.962,1,0,14,14,0,1,1001,UTOPIA,m,,,,,,,,,,,,,,,,,,,,,,,,,,,,,,,,,,,,,,,,,,,,,,,,,,,
,,,,,,,,,,,,,,,,,199567,18,2022-01-28_15h57.06.049,lexical_decision_task_DD_L6,2021.2.3,MacIntel,58.82352941,,0,0.298828125,-0.280273438,1,0,0,0.746,button_right,0.746,1,0,15,15,1,1,1001,ADJUST,m,,,,,,,,,,,,,,,,,,,,,,,,,,,,,,,,,,,,,,,,,,,,,,,,,,,
,0.098632813,-0.397460938,1,0,0,instr_done_button,,,,,,1,end_of_practice,"You have completed the practice trials. During the experimental trials, you will not receive feedback. 
Before you begin, please ensure that you are in a comfortable and quiet location and will not be disturbed for about 15 minutes, as we cannot use your data if you do not complete all the trials. 
 When you are ready to start the experimental trials, please press space or touch the button below.",,,199567,18,2022-01-28_15h57.06.049,lexical_decision_task_DD_L6,2021.2.3,MacIntel,58.82352941,,,,,,,,,,,,,,,,,,,,0,0,0,0,1,,,,,,,,,,,,,,,,,,,,,,,,,,,,,,,,,,,,,,,,,,,,,,
,,,,,,,,,,,,,,,,,199567,18,2022-01-28_15h57.06.049,lexical_decision_task_DD_L6,2021.2.3,MacIntel,58.82352941,,,,,,,,,,0.979,1,,,,,,,,,,,,,,,0,0.323242188,-0.3359375,1,0,0,0.979,button_right_main,0.323242188,-0.3359375,1,0,0,,0,0,0,55,1,ALLEY,C,old,m,./images/ALLEY.png,,,,,,,,,,,,,,,,,,,,,
,,,,,,,,,,,,,,,,,199567,18,2022-01-28_15h57.06.049,lexical_decision_task_DD_L6,2021.2.3,MacIntel,58.82352941,,,,,,,,,,2.584,0,,,,,,,,,,,,,,,0,0.354492188,-0.317382813,1,0,0,2.584,button_right_main,0.354492188,-0.317382813,1,0,0,,0,1,1,152,1,FRAIN,LB,old,z,./images/FRAINLB.png,,,,,,,,,,,,,,,,,,,,,
,,,,,,,,,,,,,,,,,199567,18,2022-01-28_15h57.06.049,lexical_decision_task_DD_L6,2021.2.3,MacIntel,58.82352941,,,,,,,,,,1.963,1,,,,,,,,,,,,,,,0,0.349609375,-0.297851563,1,0,0,1.963,button_right_main,0.349609375,-0.297851563,1,0,0,,0,2,2,38,1,ENGINE,HB,old,m,./images/ENGINEHB.png,,,,,,,,,,,,,,,,,,,,,
,,,,,,,,,,,,,,,,,199567,18,2022-01-28_15h57.06.049,lexical_decision_task_DD_L6,2021.2.3,MacIntel,58.82352941,,,,,,,,,,0.747,1,,,,,,,,,,,,,,,0,0.3203125,-0.298828125,1,0,0,0.747,button_right_main,0.3203125,-0.298828125,1,0,0,,0,3,3,16,1,GRAPE,C,old,m,./images/GRAPE.png,,,,,,,,,,,,,,,,,,,,,
,,,,,,,,,,,,,,,,,199567,18,2022-01-28_15h57.06.049,lexical_decision_task_DD_L6,2021.2.3,MacIntel,58.82352941,,,,,,,,,,1.218,1,,,,,,,,,,,,,,,0,-0.270507813,-0.317382813,1,0,0,1.218,button_left_main,-0.270507813,-0.317382813,1,0,0,,0,4,4,104,1,GITTY,LB,old,z,./images/GITTYLB.png,,,,,,,,,,,,,,,,,,,,,
,,,,,,,,,,,,,,,,,199567,18,2022-01-28_15h57.06.049,lexical_decision_task_DD_L6,2021.2.3,MacIntel,58.82352941,,,,,,,,,,0.681,1,,,,,,,,,,,,,,,0,0.305664063,-0.31640625,1,0,0,0.681,button_right_main,0.305664063,-0.31640625,1,0,0,,0,5,5,4,1,BOXER,C,old,m,./images/BOXER.png,,,,,,,,,,,,,,,,,,,,,
,,,,,,,,,,,,,,,,,199567,18,2022-01-28_15h57.06.049,lexical_decision_task_DD_L6,2021.2.3,MacIntel,58.82352941,,,,,,,,,,0.664,1,,,,,,,,,,,,,,,0,0.290039063,-0.301757813,1,0,0,0.664,button_right_main,0.290039063,-0.301757813,1,0,0,,0,6,6,19,1,DONKEY,C,old,m,./images/DONKEY.png,,,,,,,,,,,,,,,,,,,,,
,,,,,,,,,,,,,,,,,199567,18,2022-01-28_15h57.06.049,lexical_decision_task_DD_L6,2021.2.3,MacIntel,58.82352941,,,,,,,,,,0.848,1,,,,,,,,,,,,,,,0,0.314453125,-0.317382813,1,0,0,0.848,button_right_main,0.314453125,-0.317382813,1,0,0,,0,7,7,15,1,COLLAR,LB,old,m,./images/COLLARLB.png,,,,,,,,,,,,,,,,,,,,,
,,,,,,,,,,,,,,,,,199567,18,2022-01-28_15h57.06.049,lexical_decision_task_DD_L6,2021.2.3,MacIntel,58.82352941,,,,,,,,,,3.799,1,,,,,,,,,,,,,,,0,-0.291992188,-0.28515625,1,0,0,3.799,button_left_main,-0.291992188,-0.28515625,1,0,0,,0,8,8,124,1,TUNCH,HB,old,z,./images/TUNCHHB.png,,,,,,,,,,,,,,,,,,,,,
,,,,,,,,,,,,,,,,,199567,18,2022-01-28_15h57.06.049,lexical_decision_task_DD_L6,2021.2.3,MacIntel,58.82352941,,,,,,,,,,0.949,1,,,,,,,,,,,,,,,0,-0.330078125,-0.3203125,1,0,0,0.949,button_left_main,-0.330078125,-0.3203125,1,0,0,,0,9,9,143,1,MONGS,LB,old,z,./images/MONGSLB.png,,,,,,,,,,,,,,,,,,,,,
,,,,,,,,,,,,,,,,,199567,18,2022-01-28_15h57.06.049,lexical_decision_task_DD_L6,2021.2.3,MacIntel,58.82352941,,,,,,,,,,0.912,1,,,,,,,,,,,,,,,0,0.365234375,-0.31640625,1,0,0,0.912,button_right_main,0.365234375,-0.31640625,1,0,0,,0,10,10,46,1,MUMMY,C,old,m,./images/MUMMY.png,,,,,,,,,,,,,,,,,,,,,
,,,,,,,,,,,,,,,,,199567,18,2022-01-28_15h57.06.049,lexical_decision_task_DD_L6,2021.2.3,MacIntel,58.82352941,,,,,,,,,,0.797,1,,,,,,,,,,,,,,,0,0.38671875,-0.315429688,1,0,0,0.797,button_right_main,0.38671875,-0.315429688,1,0,0,,0,11,11,49,1,BISHOP,C,old,m,./images/BISHOP.png,,,,,,,,,,,,,,,,,,,,,
,,,,,,,,,,,,,,,,,199567,18,2022-01-28_15h57.06.049,lexical_decision_task_DD_L6,2021.2.3,MacIntel,58.82352941,,,,,,,,,,0.962,1,,,,,,,,,,,,,,,0,-0.263671875,-0.286132813,1,0,0,0.962,button_left_main,-0.263671875,-0.286132813,1,0,0,,0,12,12,87,1,TRING,C,old,z,./images/TRING.png,,,,,,,,,,,,,,,,,,,,,
,,,,,,,,,,,,,,,,,199567,18,2022-01-28_15h57.06.049,lexical_decision_task_DD_L6,2021.2.3,MacIntel,58.82352941,,,,,,,,,,1.114,1,,,,,,,,,,,,,,,0,0.373046875,-0.341796875,1,0,0,1.114,button_right_main,0.373046875,-0.341796875,1,0,0,,0,13,13,29,1,PISTOL,HB,old,m,./images/PISTOLHB.png,,,,,,,,,,,,,,,,,,,,,
,,,,,,,,,,,,,,,,,199567,18,2022-01-28_15h57.06.049,lexical_decision_task_DD_L6,2021.2.3,MacIntel,58.82352941,,,,,,,,,,0.979,1,,,,,,,,,,,,,,,0,0.349609375,-0.307617188,1,0,0,0.979,button_right_main,0.349609375,-0.307617188,1,0,0,,0,14,14,62,1,MAMMAL,HB,old,m,./images/MAMMALHB.png,,,,,,,,,,,,,,,,,,,,,
,,,,,,,,,,,,,,,,,199567,18,2022-01-28_15h57.06.049,lexical_decision_task_DD_L6,2021.2.3,MacIntel,58.82352941,,,,,,,,,,1.014,1,,,,,,,,,,,,,,,0,-0.280273438,-0.297851563,1,0,0,1.014,button_left_main,-0.280273438,-0.297851563,1,0,0,,0,15,15,132,1,SCIFF,C,old,z,./images/SCIFF.png,,,,,,,,,,,,,,,,,,,,,
,,,,,,,,,,,,,,,,,199567,18,2022-01-28_15h57.06.049,lexical_decision_task_DD_L6,2021.2.3,MacIntel,58.82352941,,,,,,,,,,0.915,1,,,,,,,,,,,,,,,0,0.34765625,-0.298828125,1,0,0,0.915,button_right_main,0.34765625,-0.298828125,1,0,0,,0,16,16,18,1,PARCEL,LB,old,m,./images/PARCELLB.png,,,,,,,,,,,,,,,,,,,,,
,,,,,,,,,,,,,,,,,199567,18,2022-01-28_15h57.06.049,lexical_decision_task_DD_L6,2021.2.3,MacIntel,58.82352941,,,,,,,,,,0.812,1,,,,,,,,,,,,,,,0,0.333984375,-0.338867188,1,0,0,0.812,button_right_main,0.333984375,-0.338867188,1,0,0,,0,17,17,45,1,MONKEY,LB,old,m,./images/MONKEYLB.png,,,,,,,,,,,,,,,,,,,,,
,,,,,,,,,,,,,,,,,199567,18,2022-01-28_15h57.06.049,lexical_decision_task_DD_L6,2021.2.3,MacIntel,58.82352941,,,,,,,,,,0.767,1,,,,,,,,,,,,,,,0,0.330078125,-0.309570313,1,0,0,0.767,button_right_main,0.330078125,-0.309570313,1,0,0,,0,18,18,81,1,DRILL,LB,old,m,./images/DRILLLB.png,,,,,,,,,,,,,,,,,,,,,
,,,,,,,,,,,,,,,,,199567,18,2022-01-28_15h57.06.049,lexical_decision_task_DD_L6,2021.2.3,MacIntel,58.82352941,,,,,,,,,,2.097,1,,,,,,,,,,,,,,,0,-0.325195313,-0.294921875,1,0,0,2.097,button_left_main,-0.325195313,-0.294921875,1,0,0,,0,19,19,103,1,FLORT,HB,old,z,./images/FLORTHB.png,,,,,,,,,,,,,,,,,,,,,
,,,,,,,,,,,,,,,,,199567,18,2022-01-28_15h57.06.049,lexical_decision_task_DD_L6,2021.2.3,MacIntel,58.82352941,,,,,,,,,,1.864,0,,,,,,,,,,,,,,,0,0.452148438,-0.2890625,1,0,0,1.864,button_right_main,0.452148438,-0.2890625,1,0,0,,0,20,20,109,1,BURGE,HB,old,z,./images/BURGEHB.png,,,,,,,,,,,,,,,,,,,,,
,,,,,,,,,,,,,,,,,199567,18,2022-01-28_15h57.06.049,lexical_decision_task_DD_L6,2021.2.3,MacIntel,58.82352941,,,,,,,,,,1.03,1,,,,,,,,,,,,,,,0,-0.3125,-0.299804688,1,0,0,1.03,button_left_main,-0.3125,-0.299804688,1,0,0,,0,21,21,162,1,LEICH,C,old,z,./images/LEICH.png,,,,,,,,,,,,,,,,,,,,,
,,,,,,,,,,,,,,,,,199567,18,2022-01-28_15h57.06.049,lexical_decision_task_DD_L6,2021.2.3,MacIntel,58.82352941,,,,,,,,,,1.047,1,,,,,,,,,,,,,,,0,-0.2734375,-0.296875,1,0,0,1.047,button_left_main,-0.2734375,-0.296875,1,0,0,,0,22,22,140,1,DOVET,LB,old,z,./images/DOVETLB.png,,,,,,,,,,,,,,,,,,,,,
,,,,,,,,,,,,,,,,,199567,18,2022-01-28_15h57.06.049,lexical_decision_task_DD_L6,2021.2.3,MacIntel,58.82352941,,,,,,,,,,1.914,1,,,,,,,,,,,,,,,0,-0.291015625,-0.282226563,1,0,0,1.914,button_left_main,-0.291015625,-0.282226563,1,0,0,,0,23,23,85,1,CHULK,HB,old,z,./images/CHULKHB.png,,,,,,,,,,,,,,,,,,,,,
,,,,,,,,,,,,,,,,,199567,18,2022-01-28_15h57.06.049,lexical_decision_task_DD_L6,2021.2.3,MacIntel,58.82352941,,,,,,,,,,3.316,1,,,,,,,,,,,,,,,0,0.358398438,-0.196289063,1,0,0,3.316,button_right_main,0.346679688,-0.2734375,1,0,0,,0,24,24,39,1,CANDY,LB,old,m,./images/CANDYLB.png,,,,,,,,,,,,,,,,,,,,,
,,,,,,,,,,,,,,,,,199567,18,2022-01-28_15h57.06.049,lexical_decision_task_DD_L6,2021.2.3,MacIntel,58.82352941,,,,,,,,,,2.748,1,,,,,,,,,,,,,,,0,-0.216796875,-0.305664063,1,0,0,2.748,button_left_main,-0.216796875,-0.305664063,1,0,0,,0,25,25,145,1,LAMEL,HB,old,z,./images/LAMELHB.png,,,,,,,,,,,,,,,,,,,,,
,,,,,,,,,,,,,,,,,199567,18,2022-01-28_15h57.06.049,lexical_decision_task_DD_L6,2021.2.3,MacIntel,58.82352941,,,,,,,,,,0.98,1,,,,,,,,,,,,,,,0,-0.2421875,-0.297851563,1,0,0,0.98,button_left_main,-0.2421875,-0.297851563,1,0,0,,0,26,26,138,1,PLICE,C,old,z,./images/PLICE.png,,,,,,,,,,,,,,,,,,,,,
,,,,,,,,,,,,,,,,,199567,18,2022-01-28_15h57.06.049,lexical_decision_task_DD_L6,2021.2.3,MacIntel,58.82352941,,,,,,,,,,0.83,0,,,,,,,,,,,,,,,0,-0.2578125,-0.311523438,1,0,0,0.83,button_left_main,-0.2578125,-0.311523438,1,0,0,,0,27,27,57,1,FERRY,LB,old,m,./images/FERRYLB.png,,,,,,,,,,,,,,,,,,,,,
,,,,,,,,,,,,,,,,,199567,18,2022-01-28_15h57.06.049,lexical_decision_task_DD_L6,2021.2.3,MacIntel,58.82352941,,,,,,,,,,1.118,1,,,,,,,,,,,,,,,0,0.309570313,-0.28125,1,0,0,1.118,button_right_main,0.309570313,-0.28125,1,0,0,,0,28,28,20,1,GRANNY,HB,old,m,./images/GRANNYHB.png,,,,,,,,,,,,,,,,,,,,,
,,,,,,,,,,,,,,,,,199567,18,2022-01-28_15h57.06.049,lexical_decision_task_DD_L6,2021.2.3,MacIntel,58.82352941,,,,,,,,,,1.752,1,,,,,,,,,,,,,,,0,-0.298828125,-0.331054688,1,0,0,1.752,button_left_main,-0.298828125,-0.331054688,1,0,0,,0,29,29,127,1,NINDY,HB,old,z,./images/NINDYHB.png,,,,,,,,,,,,,,,,,,,,,
,,,,,,,,,,,,,,,,,199567,18,2022-01-28_15h57.06.049,lexical_decision_task_DD_L6,2021.2.3,MacIntel,58.82352941,,,,,,,,,,11.824,1,,,,,,,,,,,,,,,0,0.334960938,-0.310546875,1,0,0,11.824,button_right_main,0.334960938,-0.310546875,1,0,0,,0,30,30,66,1,STATUE,LB,old,m,./images/STATUELB.png,,,,,,,,,,,,,,,,,,,,,
,,,,,,,,,,,,,,,,,199567,18,2022-01-28_15h57.06.049,lexical_decision_task_DD_L6,2021.2.3,MacIntel,58.82352941,,,,,,,,,,1.183,1,,,,,,,,,,,,,,,0,0.374023438,-0.283203125,1,0,0,1.183,button_right_main,0.374023438,-0.283203125,1,0,0,,0,31,31,8,1,CLIFF,HB,old,m,./images/CLIFFHB.png,,,,,,,,,,,,,,,,,,,,,
,,,,,,,,,,,,,,,,,199567,18,2022-01-28_15h57.06.049,lexical_decision_task_DD_L6,2021.2.3,MacIntel,58.82352941,,,,,,,,,,0.763,1,,,,,,,,,,,,,,,0,0.3359375,-0.293945313,1,0,0,0.763,button_right_main,0.3359375,-0.293945313,1,0,0,,0,32,32,43,1,STOOL,C,old,m,./images/STOOL.png,,,,,,,,,,,,,,,,,,,,,
,,,,,,,,,,,,,,,,,199567,18,2022-01-28_15h57.06.049,lexical_decision_task_DD_L6,2021.2.3,MacIntel,58.82352941,,,,,,,,,,1.714,1,,,,,,,,,,,,,,,0,-0.245117188,-0.322265625,1,0,0,1.714,button_left_main,-0.245117188,-0.322265625,1,0,0,,0,33,33,159,1,CUDDY,C,old,z,./images/CUDDY.png,,,,,,,,,,,,,,,,,,,,,
,,,,,,,,,,,,,,,,,199567,18,2022-01-28_15h57.06.049,lexical_decision_task_DD_L6,2021.2.3,MacIntel,58.82352941,,,,,,,,,,0.798,1,,,,,,,,,,,,,,,0,0.3984375,-0.307617188,1,0,0,0.798,button_right_main,0.3984375,-0.307617188,1,0,0,,0,34,34,61,1,ARTIST,C,old,m,./images/ARTIST.png,,,,,,,,,,,,,,,,,,,,,
,,,,,,,,,,,,,,,,,199567,18,2022-01-28_15h57.06.049,lexical_decision_task_DD_L6,2021.2.3,MacIntel,58.82352941,,,,,,,,,,0.648,1,,,,,,,,,,,,,,,0,0.326171875,-0.288085938,1,0,0,0.648,button_right_main,0.326171875,-0.288085938,1,0,0,,0,35,35,6,1,STAIN,LB,old,m,./images/STAINLB.png,,,,,,,,,,,,,,,,,,,,,
,,,,,,,,,,,,,,,,,199567,18,2022-01-28_15h57.06.049,lexical_decision_task_DD_L6,2021.2.3,MacIntel,58.82352941,,,,,,,,,,0.864,1,,,,,,,,,,,,,,,0,0.362304688,-0.319335938,1,0,0,0.864,button_right_main,0.362304688,-0.319335938,1,0,0,,0,36,36,11,1,MEDAL,HB,old,m,./images/MEDALHB.png,,,,,,,,,,,,,,,,,,,,,
,,,,,,,,,,,,,,,,,199567,18,2022-01-28_15h57.06.049,lexical_decision_task_DD_L6,2021.2.3,MacIntel,58.82352941,,,,,,,,,,0.928,1,,,,,,,,,,,,,,,0,0.349609375,-0.318359375,1,0,0,0.928,button_right_main,0.349609375,-0.318359375,1,0,0,,0,37,37,71,1,BUBBLE,HB,old,m,./images/BUBBLEHB.png,,,,,,,,,,,,,,,,,,,,,
,,,,,,,,,,,,,,,,,199567,18,2022-01-28_15h57.06.049,lexical_decision_task_DD_L6,2021.2.3,MacIntel,58.82352941,,,,,,,,,,0.614,1,,,,,,,,,,,,,,,0,0.326171875,-0.295898438,1,0,0,0.614,button_right_main,0.326171875,-0.295898438,1,0,0,,0,38,38,31,1,STEAK,C,old,m,./images/STEAK.png,,,,,,,,,,,,,,,,,,,,,
,,,,,,,,,,,,,,,,,199567,18,2022-01-28_15h57.06.049,lexical_decision_task_DD_L6,2021.2.3,MacIntel,58.82352941,,,,,,,,,,0.581,1,,,,,,,,,,,,,,,0,0.344726563,-0.30859375,1,0,0,0.581,button_right_main,0.344726563,-0.30859375,1,0,0,,0,39,39,40,1,SNAKE,C,old,m,./images/SNAKE.png,,,,,,,,,,,,,,,,,,,,,
,,,,,,,,,,,,,,,,,199567,18,2022-01-28_15h57.06.049,lexical_decision_task_DD_L6,2021.2.3,MacIntel,58.82352941,,,,,,,,,,0.784,1,,,,,,,,,,,,,,,0,-0.271484375,-0.3046875,1,0,0,0.784,button_left_main,-0.271484375,-0.3046875,1,0,0,,0,40,40,120,1,RINED,C,old,z,./images/RINED.png,,,,,,,,,,,,,,,,,,,,,
,,,,,,,,,,,,,,,,,199567,18,2022-01-28_15h57.06.049,lexical_decision_task_DD_L6,2021.2.3,MacIntel,58.82352941,,,,,,,,,,0.797,1,,,,,,,,,,,,,,,0,0.328125,-0.291015625,1,0,0,0.797,button_right_main,0.090820313,-0.387695313,1,0,0,,0,41,41,27,1,BUTTER,LB,old,m,./images/BUTTERLB.png,break_done_button,,,,,,,,,,,,,,,,,,,,
,,,,,,,,,,,,,,,,,199567,18,2022-01-28_15h57.06.049,lexical_decision_task_DD_L6,2021.2.3,MacIntel,58.82352941,,,,,,,,,,1.113,1,,,,,,,,,,,,,,,0,-0.276367188,-0.287109375,1,0,0,1.113,button_left_main,-0.276367188,-0.287109375,1,0,0,,0,42,42,164,1,SGREW,LB,old,z,./images/SGREWLB.png,,,,,,,,,,,,,,,,,,,,,
,,,,,,,,,,,,,,,,,199567,18,2022-01-28_15h57.06.049,lexical_decision_task_DD_L6,2021.2.3,MacIntel,58.82352941,,,,,,,,,,5.183,1,,,,,,,,,,,,,,,0,-0.30859375,-0.31640625,1,0,0,5.183,button_left_main,-0.30859375,-0.31640625,1,0,0,,0,43,43,107,1,FASKS,LB,old,z,./images/FASKSLB.png,,,,,,,,,,,,,,,,,,,,,
,,,,,,,,,,,,,,,,,199567,18,2022-01-28_15h57.06.049,lexical_decision_task_DD_L6,2021.2.3,MacIntel,58.82352941,,,,,,,,,,1.03,1,,,,,,,,,,,,,,,0,0.306640625,-0.352539063,1,0,0,1.03,button_right_main,0.306640625,-0.352539063,1,0,0,,0,44,44,1,1,TOWEL,C,old,m,./images/TOWEL.png,,,,,,,,,,,,,,,,,,,,,
,,,,,,,,,,,,,,,,,199567,18,2022-01-28_15h57.06.049,lexical_decision_task_DD_L6,2021.2.3,MacIntel,58.82352941,,,,,,,,,,1.363,1,,,,,,,,,,,,,,,0,-0.295898438,-0.30859375,1,0,0,1.363,button_left_main,-0.295898438,-0.30859375,1,0,0,,0,45,45,94,1,BLANS,HB,old,z,./images/BLANSHB.png,,,,,,,,,,,,,,,,,,,,,
,,,,,,,,,,,,,,,,,199567,18,2022-01-28_15h57.06.049,lexical_decision_task_DD_L6,2021.2.3,MacIntel,58.82352941,,,,,,,,,,0.849,1,,,,,,,,,,,,,,,0,-0.2578125,-0.326171875,1,0,0,0.849,button_left_main,-0.2578125,-0.326171875,1,0,0,,0,46,46,92,1,PAIMS,LB,old,z,./images/PAIMSLB.png,,,,,,,,,,,,,,,,,,,,,
,,,,,,,,,,,,,,,,,199567,18,2022-01-28_15h57.06.049,lexical_decision_task_DD_L6,2021.2.3,MacIntel,58.82352941,,,,,,,,,,1.096,1,,,,,,,,,,,,,,,0,-0.227539063,-0.28125,1,0,0,1.096,button_left_main,-0.227539063,-0.28125,1,0,0,,0,47,47,160,1,VEETS,HB,old,z,./images/VEETSHB.png,,,,,,,,,,,,,,,,,,,,,
,,,,,,,,,,,,,,,,,199567,18,2022-01-28_15h57.06.049,lexical_decision_task_DD_L6,2021.2.3,MacIntel,58.82352941,,,,,,,,,,1.431,1,,,,,,,,,,,,,,,0,-0.243164063,-0.321289063,1,0,0,1.431,button_left_main,-0.243164063,-0.321289063,1,0,0,,0,48,48,100,1,DRIBS,HB,old,z,./images/DRIBSHB.png,,,,,,,,,,,,,,,,,,,,,
,,,,,,,,,,,,,,,,,199567,18,2022-01-28_15h57.06.049,lexical_decision_task_DD_L6,2021.2.3,MacIntel,58.82352941,,,,,,,,,,1.13,1,,,,,,,,,,,,,,,0,0.309570313,-0.299804688,1,0,0,1.13,button_right_main,0.309570313,-0.299804688,1,0,0,,0,49,49,25,1,CHALK,C,old,m,./images/CHALK.png,,,,,,,,,,,,,,,,,,,,,
,,,,,,,,,,,,,,,,,199567,18,2022-01-28_15h57.06.049,lexical_decision_task_DD_L6,2021.2.3,MacIntel,58.82352941,,,,,,,,,,0.564,1,,,,,,,,,,,,,,,0,0.262695313,-0.28125,1,0,0,0.564,button_right_main,0.262695313,-0.28125,1,0,0,,0,50,50,79,1,RULER,C,old,m,./images/RULER.png,,,,,,,,,,,,,,,,,,,,,
,,,,,,,,,,,,,,,,,199567,18,2022-01-28_15h57.06.049,lexical_decision_task_DD_L6,2021.2.3,MacIntel,58.82352941,,,,,,,,,,0.95,1,,,,,,,,,,,,,,,0,0.333007813,-0.321289063,1,0,0,0.95,button_right_main,0.333007813,-0.321289063,1,0,0,,0,51,51,50,1,PILOT,HB,old,m,./images/PILOTHB.png,,,,,,,,,,,,,,,,,,,,,
,,,,,,,,,,,,,,,,,199567,18,2022-01-28_15h57.06.049,lexical_decision_task_DD_L6,2021.2.3,MacIntel,58.82352941,,,,,,,,,,3.865,1,,,,,,,,,,,,,,,0,-0.264648438,-0.325195313,1,0,0,3.865,button_left_main,-0.264648438,-0.325195313,1,0,0,,0,52,52,118,1,BAVEL,HB,old,z,./images/BAVELHB.png,,,,,,,,,,,,,,,,,,,,,
,,,,,,,,,,,,,,,,,199567,18,2022-01-28_15h57.06.049,lexical_decision_task_DD_L6,2021.2.3,MacIntel,58.82352941,,,,,,,,,,7.785,1,,,,,,,,,,,,,,,0,-0.314453125,-0.32421875,1,0,0,7.785,button_left_main,-0.314453125,-0.32421875,1,0,0,,0,53,53,95,1,HANTY,LB,old,z,./images/HANTYLB.png,,,,,,,,,,,,,,,,,,,,,
,,,,,,,,,,,,,,,,,199567,18,2022-01-28_15h57.06.049,lexical_decision_task_DD_L6,2021.2.3,MacIntel,58.82352941,,,,,,,,,,1.163,1,,,,,,,,,,,,,,,0,0.352539063,-0.302734375,1,0,0,1.163,button_right_main,0.352539063,-0.302734375,1,0,0,,0,54,54,52,1,DESERT,C,old,m,./images/DESERT.png,,,,,,,,,,,,,,,,,,,,,
,,,,,,,,,,,,,,,,,199567,18,2022-01-28_15h57.06.049,lexical_decision_task_DD_L6,2021.2.3,MacIntel,58.82352941,,,,,,,,,,2.165,1,,,,,,,,,,,,,,,0,-0.27734375,-0.279296875,1,0,0,2.165,button_left_main,-0.27734375,-0.279296875,1,0,0,,0,55,55,157,1,INLER,HB,old,z,./images/INLERHB.png,,,,,,,,,,,,,,,,,,,,,
,,,,,,,,,,,,,,,,,199567,18,2022-01-28_15h57.06.049,lexical_decision_task_DD_L6,2021.2.3,MacIntel,58.82352941,,,,,,,,,,0.996,1,,,,,,,,,,,,,,,0,-0.267578125,-0.288085938,1,0,0,0.996,button_left_main,-0.267578125,-0.288085938,1,0,0,,0,56,56,134,1,TROSS,LB,old,z,./images/TROSSLB.png,,,,,,,,,,,,,,,,,,,,,
,,,,,,,,,,,,,,,,,199567,18,2022-01-28_15h57.06.049,lexical_decision_task_DD_L6,2021.2.3,MacIntel,58.82352941,,,,,,,,,,1.031,1,,,,,,,,,,,,,,,0,0.39453125,-0.314453125,1,0,0,1.031,button_right_main,0.39453125,-0.314453125,1,0,0,,0,57,57,33,1,SAUNA,LB,old,m,./images/SAUNALB.png,,,,,,,,,,,,,,,,,,,,,
,,,,,,,,,,,,,,,,,199567,18,2022-01-28_15h57.06.049,lexical_decision_task_DD_L6,2021.2.3,MacIntel,58.82352941,,,,,,,,,,0.829,1,,,,,,,,,,,,,,,0,-0.25390625,-0.3359375,1,0,0,0.829,button_left_main,-0.25390625,-0.3359375,1,0,0,,0,58,58,153,1,CLUPS,C,old,z,./images/CLUPS.png,,,,,,,,,,,,,,,,,,,,,
,,,,,,,,,,,,,,,,,199567,18,2022-01-28_15h57.06.049,lexical_decision_task_DD_L6,2021.2.3,MacIntel,58.82352941,,,,,,,,,,0.736,1,,,,,,,,,,,,,,,0,-0.2578125,-0.284179688,1,0,0,0.736,button_left_main,-0.2578125,-0.284179688,1,0,0,,0,59,59,122,1,BLOOT,LB,old,z,./images/BLOOTLB.png,,,,,,,,,,,,,,,,,,,,,
,,,,,,,,,,,,,,,,,199567,18,2022-01-28_15h57.06.049,lexical_decision_task_DD_L6,2021.2.3,MacIntel,58.82352941,,,,,,,,,,1.08,1,,,,,,,,,,,,,,,0,0.279296875,-0.256835938,1,0,0,1.08,button_right_main,0.279296875,-0.256835938,1,0,0,,0,60,60,9,1,DIVER,LB,old,m,./images/DIVERLB.png,,,,,,,,,,,,,,,,,,,,,
,,,,,,,,,,,,,,,,,199567,18,2022-01-28_15h57.06.049,lexical_decision_task_DD_L6,2021.2.3,MacIntel,58.82352941,,,,,,,,,,1.013,1,,,,,,,,,,,,,,,0,-0.258789063,-0.32421875,1,0,0,1.013,button_left_main,-0.258789063,-0.32421875,1,0,0,,0,61,61,121,1,CEERS,HB,old,z,./images/CEERSHB.png,,,,,,,,,,,,,,,,,,,,,
,,,,,,,,,,,,,,,,,199567,18,2022-01-28_15h57.06.049,lexical_decision_task_DD_L6,2021.2.3,MacIntel,58.82352941,,,,,,,,,,1.198,1,,,,,,,,,,,,,,,0,-0.264648438,-0.352539063,1,0,0,1.198,button_left_main,-0.264648438,-0.352539063,1,0,0,,0,62,62,158,1,EGECT,LB,old,z,./images/EGECTLB.png,,,,,,,,,,,,,,,,,,,,,
,,,,,,,,,,,,,,,,,199567,18,2022-01-28_15h57.06.049,lexical_decision_task_DD_L6,2021.2.3,MacIntel,58.82352941,,,,,,,,,,1.129,1,,,,,,,,,,,,,,,0,-0.249023438,-0.34765625,1,0,0,1.129,button_left_main,-0.249023438,-0.34765625,1,0,0,,0,63,63,125,1,MOOKY,LB,old,z,./images/MOOKYLB.png,,,,,,,,,,,,,,,,,,,,,
,,,,,,,,,,,,,,,,,199567,18,2022-01-28_15h57.06.049,lexical_decision_task_DD_L6,2021.2.3,MacIntel,58.82352941,,,,,,,,,,0.65,1,,,,,,,,,,,,,,,0,-0.25390625,-0.348632813,1,0,0,0.65,button_left_main,-0.25390625,-0.348632813,1,0,0,,0,64,64,147,1,ZOLES,C,old,z,./images/ZOLES.png,,,,,,,,,,,,,,,,,,,,,
,,,,,,,,,,,,,,,,,199567,18,2022-01-28_15h57.06.049,lexical_decision_task_DD_L6,2021.2.3,MacIntel,58.82352941,,,,,,,,,,0.963,1,,,,,,,,,,,,,,,0,0.340820313,-0.342773438,1,0,0,0.963,button_right_main,0.340820313,-0.342773438,1,0,0,,0,65,65,69,1,ARROW,LB,old,m,./images/ARROWLB.png,,,,,,,,,,,,,,,,,,,,,
,,,,,,,,,,,,,,,,,199567,18,2022-01-28_15h57.06.049,lexical_decision_task_DD_L6,2021.2.3,MacIntel,58.82352941,,,,,,,,,,0.764,1,,,,,,,,,,,,,,,0,-0.272460938,-0.310546875,1,0,0,0.764,button_left_main,-0.272460938,-0.310546875,1,0,0,,0,66,66,126,1,GUELS,C,old,z,./images/GUELS.png,,,,,,,,,,,,,,,,,,,,,
,,,,,,,,,,,,,,,,,199567,18,2022-01-28_15h57.06.049,lexical_decision_task_DD_L6,2021.2.3,MacIntel,58.82352941,,,,,,,,,,1.598,0,,,,,,,,,,,,,,,0,0.334960938,-0.29296875,1,0,0,1.598,button_right_main,0.334960938,-0.29296875,1,0,0,,0,67,67,163,1,GAMBA,HB,old,z,./images/GAMBAHB.png,,,,,,,,,,,,,,,,,,,,,
,,,,,,,,,,,,,,,,,199567,18,2022-01-28_15h57.06.049,lexical_decision_task_DD_L6,2021.2.3,MacIntel,58.82352941,,,,,,,,,,0.735,1,,,,,,,,,,,,,,,0,-0.25,-0.337890625,1,0,0,0.735,button_left_main,-0.25,-0.337890625,1,0,0,,0,68,68,105,1,MOKER,C,old,z,./images/MOKER.png,,,,,,,,,,,,,,,,,,,,,
,,,,,,,,,,,,,,,,,199567,18,2022-01-28_15h57.06.049,lexical_decision_task_DD_L6,2021.2.3,MacIntel,58.82352941,,,,,,,,,,1.232,1,,,,,,,,,,,,,,,0,-0.276367188,-0.326171875,1,0,0,1.232,button_left_main,-0.276367188,-0.326171875,1,0,0,,0,69,69,99,1,BACKY,C,old,z,./images/BACKY.png,,,,,,,,,,,,,,,,,,,,,
,,,,,,,,,,,,,,,,,199567,18,2022-01-28_15h57.06.049,lexical_decision_task_DD_L6,2021.2.3,MacIntel,58.82352941,,,,,,,,,,0.779,1,,,,,,,,,,,,,,,0,-0.227539063,-0.331054688,1,0,0,0.779,button_left_main,-0.227539063,-0.331054688,1,0,0,,0,70,70,128,1,GRIFT,LB,old,z,./images/GRIFTLB.png,,,,,,,,,,,,,,,,,,,,,
,,,,,,,,,,,,,,,,,199567,18,2022-01-28_15h57.06.049,lexical_decision_task_DD_L6,2021.2.3,MacIntel,58.82352941,,,,,,,,,,0.713,1,,,,,,,,,,,,,,,0,0.286132813,-0.309570313,1,0,0,0.713,button_right_main,0.286132813,-0.309570313,1,0,0,,0,71,71,37,1,TIGER,C,old,m,./images/TIGER.png,,,,,,,,,,,,,,,,,,,,,
,,,,,,,,,,,,,,,,,199567,18,2022-01-28_15h57.06.049,lexical_decision_task_DD_L6,2021.2.3,MacIntel,58.82352941,,,,,,,,,,0.655,1,,,,,,,,,,,,,,,0,0.325195313,-0.305664063,1,0,0,0.655,button_right_main,0.325195313,-0.305664063,1,0,0,,0,72,72,23,1,CLOTH,HB,old,m,./images/CLOTHHB.png,,,,,,,,,,,,,,,,,,,,,
,,,,,,,,,,,,,,,,,199567,18,2022-01-28_15h57.06.049,lexical_decision_task_DD_L6,2021.2.3,MacIntel,58.82352941,,,,,,,,,,0.617,1,,,,,,,,,,,,,,,0,0.330078125,-0.30078125,1,0,0,0.617,button_right_main,0.330078125,-0.30078125,1,0,0,,0,73,73,72,1,FLASK,LB,old,m,./images/FLASKLB.png,,,,,,,,,,,,,,,,,,,,,
,,,,,,,,,,,,,,,,,199567,18,2022-01-28_15h57.06.049,lexical_decision_task_DD_L6,2021.2.3,MacIntel,58.82352941,,,,,,,,,,0.68,1,,,,,,,,,,,,,,,0,0.321289063,-0.305664063,1,0,0,0.68,button_right_main,0.321289063,-0.305664063,1,0,0,,0,74,74,82,1,PEBBLE,C,old,m,./images/PEBBLE.png,,,,,,,,,,,,,,,,,,,,,
,,,,,,,,,,,,,,,,,199567,18,2022-01-28_15h57.06.049,lexical_decision_task_DD_L6,2021.2.3,MacIntel,58.82352941,,,,,,,,,,0.617,1,,,,,,,,,,,,,,,0,0.322265625,-0.314453125,1,0,0,0.617,button_right_main,0.322265625,-0.314453125,1,0,0,,0,75,75,73,1,GLOVE,C,old,m,./images/GLOVE.png,,,,,,,,,,,,,,,,,,,,,
,,,,,,,,,,,,,,,,,199567,18,2022-01-28_15h57.06.049,lexical_decision_task_DD_L6,2021.2.3,MacIntel,58.82352941,,,,,,,,,,0.831,1,,,,,,,,,,,,,,,0,-0.262695313,-0.303710938,1,0,0,0.831,button_left_main,-0.262695313,-0.303710938,1,0,0,,0,76,76,84,1,HAXES,C,old,z,./images/HAXES.png,,,,,,,,,,,,,,,,,,,,,
,,,,,,,,,,,,,,,,,199567,18,2022-01-28_15h57.06.049,lexical_decision_task_DD_L6,2021.2.3,MacIntel,58.82352941,,,,,,,,,,1.981,1,,,,,,,,,,,,,,,0,-0.267578125,-0.327148438,1,0,0,1.981,button_left_main,-0.267578125,-0.327148438,1,0,0,,0,77,77,91,1,SHENS,HB,old,z,./images/SHENSHB.png,,,,,,,,,,,,,,,,,,,,,
,,,,,,,,,,,,,,,,,199567,18,2022-01-28_15h57.06.049,lexical_decision_task_DD_L6,2021.2.3,MacIntel,58.82352941,,,,,,,,,,0.897,1,,,,,,,,,,,,,,,0,-0.255859375,-0.334960938,1,0,0,0.897,button_left_main,-0.255859375,-0.334960938,1,0,0,,0,78,78,111,1,HOSSE,C,old,z,./images/HOSSE.png,,,,,,,,,,,,,,,,,,,,,
,,,,,,,,,,,,,,,,,199567,18,2022-01-28_15h57.06.049,lexical_decision_task_DD_L6,2021.2.3,MacIntel,58.82352941,,,,,,,,,,0.998,1,,,,,,,,,,,,,,,0,0.331054688,-0.274414063,1,0,0,0.998,button_right_main,0.331054688,-0.274414063,1,0,0,,0,79,79,26,1,CLOUD,HB,old,m,./images/CLOUDHB.png,,,,,,,,,,,,,,,,,,,,,
,,,,,,,,,,,,,,,,,199567,18,2022-01-28_15h57.06.049,lexical_decision_task_DD_L6,2021.2.3,MacIntel,58.82352941,,,,,,,,,,0.617,1,,,,,,,,,,,,,,,0,0.319335938,-0.283203125,1,0,0,0.617,button_right_main,0.319335938,-0.283203125,1,0,0,,0,80,80,64,1,BRIDE,C,old,m,./images/BRIDE.png,,,,,,,,,,,,,,,,,,,,,
,,,,,,,,,,,,,,,,,199567,18,2022-01-28_15h57.06.049,lexical_decision_task_DD_L6,2021.2.3,MacIntel,58.82352941,,,,,,,,,,0.764,1,,,,,,,,,,,,,,,0,-0.240234375,-0.328125,1,0,0,0.764,button_left_main,-0.240234375,-0.328125,1,0,0,,0,81,81,135,1,JOODY,C,old,z,./images/JOODY.png,,,,,,,,,,,,,,,,,,,,,
,,,,,,,,,,,,,,,,,199567,18,2022-01-28_15h57.06.049,lexical_decision_task_DD_L6,2021.2.3,MacIntel,58.82352941,,,,,,,,,,0.797,1,,,,,,,,,,,,,,,0,-0.263671875,-0.3359375,1,0,0,0.797,button_left_main,-0.263671875,-0.3359375,1,0,0,,0,82,82,146,1,MOOST,LB,old,z,./images/MOOSTLB.png,,,,,,,,,,,,,,,,,,,,,
,,,,,,,,,,,,,,,,,199567,18,2022-01-28_15h57.06.049,lexical_decision_task_DD_L6,2021.2.3,MacIntel,58.82352941,,,,,,,,,,0.73,1,,,,,,,,,,,,,,,0,-0.263671875,-0.334960938,1,0,0,0.73,button_left_main,0.063476563,-0.379882813,1,0,0,,0,83,83,102,1,DULLE,C,old,z,./images/DULLE.png,break_done_button,,,,,,,,,,,,,,,,,,,,
,,,,,,,,,,,,,,,,,199567,18,2022-01-28_15h57.06.049,lexical_decision_task_DD_L6,2021.2.3,MacIntel,58.82352941,,,,,,,,,,0.996,1,,,,,,,,,,,,,,,0,0.334960938,-0.32421875,1,0,0,0.996,button_right_main,0.334960938,-0.32421875,1,0,0,,0,84,84,53,1,POSTER,HB,old,m,./images/POSTERHB.png,,,,,,,,,,,,,,,,,,,,,
,,,,,,,,,,,,,,,,,199567,18,2022-01-28_15h57.06.049,lexical_decision_task_DD_L6,2021.2.3,MacIntel,58.82352941,,,,,,,,,,0.766,1,,,,,,,,,,,,,,,0,-0.250976563,-0.349609375,1,0,0,0.766,button_left_main,-0.250976563,-0.349609375,1,0,0,,0,85,85,131,1,NACES,LB,old,z,./images/NACESLB.png,,,,,,,,,,,,,,,,,,,,,
,,,,,,,,,,,,,,,,,199567,18,2022-01-28_15h57.06.049,lexical_decision_task_DD_L6,2021.2.3,MacIntel,58.82352941,,,,,,,,,,2.249,1,,,,,,,,,,,,,,,0,-0.241210938,-0.35546875,1,0,0,2.249,button_left_main,-0.241210938,-0.35546875,1,0,0,,0,86,86,115,1,MAWNS,HB,old,z,./images/MAWNSHB.png,,,,,,,,,,,,,,,,,,,,,
,,,,,,,,,,,,,,,,,199567,18,2022-01-28_15h57.06.049,lexical_decision_task_DD_L6,2021.2.3,MacIntel,58.82352941,,,,,,,,,,0.747,1,,,,,,,,,,,,,,,0,0.288085938,-0.296875,1,0,0,0.747,button_right_main,0.288085938,-0.296875,1,0,0,,0,87,87,63,1,BAKER,LB,old,m,./images/BAKERLB.png,,,,,,,,,,,,,,,,,,,,,
,,,,,,,,,,,,,,,,,199567,18,2022-01-28_15h57.06.049,lexical_decision_task_DD_L6,2021.2.3,MacIntel,58.82352941,,,,,,,,,,1.013,1,,,,,,,,,,,,,,,0,0.305664063,-0.298828125,1,0,0,1.013,button_right_main,0.305664063,-0.298828125,1,0,0,,0,88,88,41,1,STREAM,HB,old,m,./images/STREAMHB.png,,,,,,,,,,,,,,,,,,,,,
,,,,,,,,,,,,,,,,,199567,18,2022-01-28_15h57.06.049,lexical_decision_task_DD_L6,2021.2.3,MacIntel,58.82352941,,,,,,,,,,0.544,1,,,,,,,,,,,,,,,0,0.296875,-0.309570313,1,0,0,0.544,button_right_main,0.296875,-0.309570313,1,0,0,,0,89,89,42,1,CHAIN,LB,old,m,./images/CHAINLB.png,,,,,,,,,,,,,,,,,,,,,
,,,,,,,,,,,,,,,,,199567,18,2022-01-28_15h57.06.049,lexical_decision_task_DD_L6,2021.2.3,MacIntel,58.82352941,,,,,,,,,,0.597,1,,,,,,,,,,,,,,,0,0.303710938,-0.331054688,1,0,0,0.597,button_right_main,0.303710938,-0.331054688,1,0,0,,0,90,90,36,1,BOILER,LB,old,m,./images/BOILERLB.png,,,,,,,,,,,,,,,,,,,,,
,,,,,,,,,,,,,,,,,199567,18,2022-01-28_15h57.06.049,lexical_decision_task_DD_L6,2021.2.3,MacIntel,58.82352941,,,,,,,,,,0.801,1,,,,,,,,,,,,,,,0,-0.244140625,-0.356445313,1,0,0,0.801,button_left_main,-0.244140625,-0.356445313,1,0,0,,0,91,91,141,1,PLEET,C,old,z,./images/PLEET.png,,,,,,,,,,,,,,,,,,,,,
,,,,,,,,,,,,,,,,,199567,18,2022-01-28_15h57.06.049,lexical_decision_task_DD_L6,2021.2.3,MacIntel,58.82352941,,,,,,,,,,0.872,0,,,,,,,,,,,,,,,0,-0.2578125,-0.322265625,1,0,0,0.872,button_left_main,-0.2578125,-0.322265625,1,0,0,,0,92,92,35,1,LLAMA,HB,old,m,./images/LLAMAHB.png,,,,,,,,,,,,,,,,,,,,,
,,,,,,,,,,,,,,,,,199567,18,2022-01-28_15h57.06.049,lexical_decision_task_DD_L6,2021.2.3,MacIntel,58.82352941,,,,,,,,,,0.73,1,,,,,,,,,,,,,,,0,-0.252929688,-0.291015625,1,0,0,0.73,button_left_main,-0.252929688,-0.291015625,1,0,0,,0,93,93,156,1,HIXES,C,old,z,./images/HIXES.png,,,,,,,,,,,,,,,,,,,,,
,,,,,,,,,,,,,,,,,199567,18,2022-01-28_15h57.06.049,lexical_decision_task_DD_L6,2021.2.3,MacIntel,58.82352941,,,,,,,,,,1.165,1,,,,,,,,,,,,,,,0,0.310546875,-0.283203125,1,0,0,1.165,button_right_main,0.310546875,-0.283203125,1,0,0,,0,94,94,75,1,HAMMER,LB,old,m,./images/HAMMERLB.png,,,,,,,,,,,,,,,,,,,,,
,,,,,,,,,,,,,,,,,199567,18,2022-01-28_15h57.06.049,lexical_decision_task_DD_L6,2021.2.3,MacIntel,58.82352941,,,,,,,,,,0.748,1,,,,,,,,,,,,,,,0,0.323242188,-0.299804688,1,0,0,0.748,button_right_main,0.323242188,-0.299804688,1,0,0,,0,95,95,44,1,BASKET,HB,old,m,./images/BASKETHB.png,,,,,,,,,,,,,,,,,,,,,
,,,,,,,,,,,,,,,,,199567,18,2022-01-28_15h57.06.049,lexical_decision_task_DD_L6,2021.2.3,MacIntel,58.82352941,,,,,,,,,,0.679,1,,,,,,,,,,,,,,,0,0.331054688,-0.319335938,1,0,0,0.679,button_right_main,0.331054688,-0.319335938,1,0,0,,0,96,96,56,1,HEATER,HB,old,m,./images/HEATERHB.png,,,,,,,,,,,,,,,,,,,,,
,,,,,,,,,,,,,,,,,199567,18,2022-01-28_15h57.06.049,lexical_decision_task_DD_L6,2021.2.3,MacIntel,58.82352941,,,,,,,,,,0.818,1,,,,,,,,,,,,,,,0,0.345703125,-0.322265625,1,0,0,0.818,button_right_main,0.345703125,-0.322265625,1,0,0,,0,97,97,83,1,WHISKY,HB,old,m,./images/WHISKYHB.png,,,,,,,,,,,,,,,,,,,,,
,,,,,,,,,,,,,,,,,199567,18,2022-01-28_15h57.06.049,lexical_decision_task_DD_L6,2021.2.3,MacIntel,58.82352941,,,,,,,,,,0.818,1,,,,,,,,,,,,,,,0,0.334960938,-0.302734375,1,0,0,0.818,button_right_main,0.334960938,-0.302734375,1,0,0,,0,98,98,65,1,SPINE,HB,old,m,./images/SPINEHB.png,,,,,,,,,,,,,,,,,,,,,
,,,,,,,,,,,,,,,,,199567,18,2022-01-28_15h57.06.049,lexical_decision_task_DD_L6,2021.2.3,MacIntel,58.82352941,,,,,,,,,,0.896,1,,,,,,,,,,,,,,,0,-0.28125,-0.354492188,1,0,0,0.896,button_left_main,-0.28125,-0.354492188,1,0,0,,0,99,99,123,1,SEDGE,C,old,z,./images/SEDGE.png,,,,,,,,,,,,,,,,,,,,,
,,,,,,,,,,,,,,,,,199567,18,2022-01-28_15h57.06.049,lexical_decision_task_DD_L6,2021.2.3,MacIntel,58.82352941,,,,,,,,,,0.764,1,,,,,,,,,,,,,,,0,-0.245117188,-0.33984375,1,0,0,0.764,button_left_main,-0.245117188,-0.33984375,1,0,0,,0,100,100,167,1,ZONET,LB,old,z,./images/ZONETLB.png,,,,,,,,,,,,,,,,,,,,,
,,,,,,,,,,,,,,,,,199567,18,2022-01-28_15h57.06.049,lexical_decision_task_DD_L6,2021.2.3,MacIntel,58.82352941,,,,,,,,,,1.133,1,,,,,,,,,,,,,,,0,0.3515625,-0.303710938,1,0,0,1.133,button_right_main,0.3515625,-0.303710938,1,0,0,,0,101,101,24,1,FLESH,LB,old,m,./images/FLESHLB.png,,,,,,,,,,,,,,,,,,,,,
,,,,,,,,,,,,,,,,,199567,18,2022-01-28_15h57.06.049,lexical_decision_task_DD_L6,2021.2.3,MacIntel,58.82352941,,,,,,,,,,2.867,1,,,,,,,,,,,,,,,0,0.325195313,-0.311523438,1,0,0,2.867,button_right_main,0.325195313,-0.311523438,1,0,0,,0,102,102,3,1,CRATER,LB,old,m,./images/CRATERLB.png,,,,,,,,,,,,,,,,,,,,,
,,,,,,,,,,,,,,,,,199567,18,2022-01-28_15h57.06.049,lexical_decision_task_DD_L6,2021.2.3,MacIntel,58.82352941,,,,,,,,,,0.83,1,,,,,,,,,,,,,,,0,-0.279296875,-0.2890625,1,0,0,0.83,button_left_main,-0.279296875,-0.2890625,1,0,0,,0,103,103,129,1,PRANS,C,old,z,./images/PRANS.png,,,,,,,,,,,,,,,,,,,,,
,,,,,,,,,,,,,,,,,199567,18,2022-01-28_15h57.06.049,lexical_decision_task_DD_L6,2021.2.3,MacIntel,58.82352941,,,,,,,,,,0.779,1,,,,,,,,,,,,,,,0,0.302734375,-0.309570313,1,0,0,0.779,button_right_main,0.302734375,-0.309570313,1,0,0,,0,104,104,2,1,STOVE,HB,old,m,./images/STOVEHB.png,,,,,,,,,,,,,,,,,,,,,
,,,,,,,,,,,,,,,,,199567,18,2022-01-28_15h57.06.049,lexical_decision_task_DD_L6,2021.2.3,MacIntel,58.82352941,,,,,,,,,,0.982,1,,,,,,,,,,,,,,,0,-0.249023438,-0.340820313,1,0,0,0.982,button_left_main,-0.249023438,-0.340820313,1,0,0,,0,105,105,110,1,CRUNK,LB,old,z,./images/CRUNKLB.png,,,,,,,,,,,,,,,,,,,,,
,,,,,,,,,,,,,,,,,199567,18,2022-01-28_15h57.06.049,lexical_decision_task_DD_L6,2021.2.3,MacIntel,58.82352941,,,,,,,,,,1.131,1,,,,,,,,,,,,,,,0,-0.247070313,-0.336914063,1,0,0,1.131,button_left_main,-0.247070313,-0.336914063,1,0,0,,0,106,106,97,1,CHIDS,HB,old,z,./images/CHIDSHB.png,,,,,,,,,,,,,,,,,,,,,
,,,,,,,,,,,,,,,,,199567,18,2022-01-28_15h57.06.049,lexical_decision_task_DD_L6,2021.2.3,MacIntel,58.82352941,,,,,,,,,,0.981,0,,,,,,,,,,,,,,,0,-0.276367188,-0.302734375,1,0,0,0.981,button_left_main,-0.276367188,-0.302734375,1,0,0,,0,107,107,12,1,BLOKE,LB,old,m,./images/BLOKELB.png,,,,,,,,,,,,,,,,,,,,,
,,,,,,,,,,,,,,,,,199567,18,2022-01-28_15h57.06.049,lexical_decision_task_DD_L6,2021.2.3,MacIntel,58.82352941,,,,,,,,,,0.897,1,,,,,,,,,,,,,,,0,0.301757813,-0.276367188,1,0,0,0.897,button_right_main,0.301757813,-0.276367188,1,0,0,,0,108,108,32,1,HOCKEY,HB,old,m,./images/HOCKEYHB.png,,,,,,,,,,,,,,,,,,,,,
,,,,,,,,,,,,,,,,,199567,18,2022-01-28_15h57.06.049,lexical_decision_task_DD_L6,2021.2.3,MacIntel,58.82352941,,,,,,,,,,0.88,1,,,,,,,,,,,,,,,0,-0.252929688,-0.353515625,1,0,0,0.88,button_left_main,-0.252929688,-0.353515625,1,0,0,,0,109,109,113,1,LINEW,LB,old,z,./images/LINEWLB.png,,,,,,,,,,,,,,,,,,,,,
,,,,,,,,,,,,,,,,,199567,18,2022-01-28_15h57.06.049,lexical_decision_task_DD_L6,2021.2.3,MacIntel,58.82352941,,,,,,,,,,0.833,1,,,,,,,,,,,,,,,0,0.328125,-0.288085938,1,0,0,0.833,button_right_main,0.328125,-0.288085938,1,0,0,,0,110,110,58,1,CANOE,C,old,m,./images/CANOE.png,,,,,,,,,,,,,,,,,,,,,
,,,,,,,,,,,,,,,,,199567,18,2022-01-28_15h57.06.049,lexical_decision_task_DD_L6,2021.2.3,MacIntel,58.82352941,,,,,,,,,,0.813,1,,,,,,,,,,,,,,,0,-0.245117188,-0.334960938,1,0,0,0.813,button_left_main,-0.245117188,-0.334960938,1,0,0,,0,111,111,149,1,VEASE,LB,old,z,./images/VEASELB.png,,,,,,,,,,,,,,,,,,,,,
,,,,,,,,,,,,,,,,,199567,18,2022-01-28_15h57.06.049,lexical_decision_task_DD_L6,2021.2.3,MacIntel,58.82352941,,,,,,,,,,0.834,1,,,,,,,,,,,,,,,0,-0.252929688,-0.331054688,1,0,0,0.834,button_left_main,-0.252929688,-0.331054688,1,0,0,,0,112,112,155,1,CANGY,LB,old,z,./images/CANGYLB.png,,,,,,,,,,,,,,,,,,,,,
,,,,,,,,,,,,,,,,,199567,18,2022-01-28_15h57.06.049,lexical_decision_task_DD_L6,2021.2.3,MacIntel,58.82352941,,,,,,,,,,0.83,1,,,,,,,,,,,,,,,0,0.3359375,-0.295898438,1,0,0,0.83,button_right_main,0.3359375,-0.295898438,1,0,0,,0,113,113,21,1,DANCER,LB,old,m,./images/DANCERLB.png,,,,,,,,,,,,,,,,,,,,,
,,,,,,,,,,,,,,,,,199567,18,2022-01-28_15h57.06.049,lexical_decision_task_DD_L6,2021.2.3,MacIntel,58.82352941,,,,,,,,,,1.351,1,,,,,,,,,,,,,,,0,-0.239257813,-0.322265625,1,0,0,1.351,button_left_main,-0.239257813,-0.322265625,1,0,0,,0,114,114,112,1,MYING,HB,old,z,./images/MYINGHB.png,,,,,,,,,,,,,,,,,,,,,
,,,,,,,,,,,,,,,,,199567,18,2022-01-28_15h57.06.049,lexical_decision_task_DD_L6,2021.2.3,MacIntel,58.82352941,,,,,,,,,,0.764,1,,,,,,,,,,,,,,,0,0.354492188,-0.307617188,1,0,0,0.764,button_right_main,0.354492188,-0.307617188,1,0,0,,0,115,115,17,1,PARADE,HB,old,m,./images/PARADEHB.png,,,,,,,,,,,,,,,,,,,,,
,,,,,,,,,,,,,,,,,199567,18,2022-01-28_15h57.06.049,lexical_decision_task_DD_L6,2021.2.3,MacIntel,58.82352941,,,,,,,,,,1.212,1,,,,,,,,,,,,,,,0,-0.275390625,-0.303710938,1,0,0,1.212,button_left_main,-0.275390625,-0.303710938,1,0,0,,0,116,116,86,1,AIFED,LB,old,z,./images/AIFEDLB.png,,,,,,,,,,,,,,,,,,,,,
,,,,,,,,,,,,,,,,,199567,18,2022-01-28_15h57.06.049,lexical_decision_task_DD_L6,2021.2.3,MacIntel,58.82352941,,,,,,,,,,0.813,1,,,,,,,,,,,,,,,0,-0.2421875,-0.333984375,1,0,0,0.813,button_left_main,-0.2421875,-0.333984375,1,0,0,,0,117,117,150,1,NOOLS,C,old,z,./images/NOOLS.png,,,,,,,,,,,,,,,,,,,,,
,,,,,,,,,,,,,,,,,199567,18,2022-01-28_15h57.06.049,lexical_decision_task_DD_L6,2021.2.3,MacIntel,58.82352941,,,,,,,,,,0.697,1,,,,,,,,,,,,,,,0,0.29296875,-0.3125,1,0,0,0.697,button_right_main,0.29296875,-0.3125,1,0,0,,0,118,118,10,1,GARDEN,C,old,m,./images/GARDEN.png,,,,,,,,,,,,,,,,,,,,,
,,,,,,,,,,,,,,,,,199567,18,2022-01-28_15h57.06.049,lexical_decision_task_DD_L6,2021.2.3,MacIntel,58.82352941,,,,,,,,,,0.814,1,,,,,,,,,,,,,,,0,-0.255859375,-0.306640625,1,0,0,0.814,button_left_main,-0.255859375,-0.306640625,1,0,0,,0,119,119,142,1,PLASK,HB,old,z,./images/PLASKHB.png,,,,,,,,,,,,,,,,,,,,,
,,,,,,,,,,,,,,,,,199567,18,2022-01-28_15h57.06.049,lexical_decision_task_DD_L6,2021.2.3,MacIntel,58.82352941,,,,,,,,,,1.431,1,,,,,,,,,,,,,,,0,0.356445313,-0.272460938,1,0,0,1.431,button_right_main,0.356445313,-0.272460938,1,0,0,,0,120,120,77,1,WHEEL,HB,old,m,./images/WHEELHB.png,,,,,,,,,,,,,,,,,,,,,
,,,,,,,,,,,,,,,,,199567,18,2022-01-28_15h57.06.049,lexical_decision_task_DD_L6,2021.2.3,MacIntel,58.82352941,,,,,,,,,,1.463,1,,,,,,,,,,,,,,,0,-0.262695313,-0.33984375,1,0,0,1.463,button_left_main,-0.262695313,-0.33984375,1,0,0,,0,121,121,116,1,BALGY,LB,old,z,./images/BALGYLB.png,,,,,,,,,,,,,,,,,,,,,
,,,,,,,,,,,,,,,,,199567,18,2022-01-28_15h57.06.049,lexical_decision_task_DD_L6,2021.2.3,MacIntel,58.82352941,,,,,,,,,,0.813,1,,,,,,,,,,,,,,,0,-0.250976563,-0.328125,1,0,0,0.813,button_left_main,-0.250976563,-0.328125,1,0,0,,0,122,122,108,1,GRUET,C,old,z,./images/GRUET.png,,,,,,,,,,,,,,,,,,,,,
,,,,,,,,,,,,,,,,,199567,18,2022-01-28_15h57.06.049,lexical_decision_task_DD_L6,2021.2.3,MacIntel,58.82352941,,,,,,,,,,1.448,0,,,,,,,,,,,,,,,0,0.297851563,-0.2890625,1,0,0,1.448,button_right_main,0.297851563,-0.2890625,1,0,0,,0,123,123,133,1,POWDY,HB,old,z,./images/POWDYHB.png,,,,,,,,,,,,,,,,,,,,,
,,,,,,,,,,,,,,,,,199567,18,2022-01-28_15h57.06.049,lexical_decision_task_DD_L6,2021.2.3,MacIntel,58.82352941,,,,,,,,,,0.814,1,,,,,,,,,,,,,,,0,-0.249023438,-0.310546875,1,0,0,0.814,button_left_main,-0.249023438,-0.310546875,1,0,0,,0,124,124,96,1,KEAMS,C,old,z,./images/KEAMS.png,,,,,,,,,,,,,,,,,,,,,
,,,,,,,,,,,,,,,,,199567,18,2022-01-28_15h57.06.049,lexical_decision_task_DD_L6,2021.2.3,MacIntel,58.82352941,,,,,,,,,,0.762,1,,,,,,,,,,,,,,,0,-0.274414063,-0.361328125,1,0,0,0.762,button_left_main,0.076171875,-0.381835938,1,0,0,,0,125,125,137,1,JOOST,LB,old,z,./images/JOOSTLB.png,break_done_button,,,,,,,,,,,,,,,,,,,,
,,,,,,,,,,,,,,,,,199567,18,2022-01-28_15h57.06.049,lexical_decision_task_DD_L6,2021.2.3,MacIntel,58.82352941,,,,,,,,,,0.601,1,,,,,,,,,,,,,,,0,0.30859375,-0.265625,1,0,0,0.601,button_right_main,0.30859375,-0.265625,1,0,0,,0,126,126,70,1,BANANA,C,old,m,./images/BANANA.png,,,,,,,,,,,,,,,,,,,,,
,,,,,,,,,,,,,,,,,199567,18,2022-01-28_15h57.06.049,lexical_decision_task_DD_L6,2021.2.3,MacIntel,58.82352941,,,,,,,,,,0.533,0,,,,,,,,,,,,,,,0,0.268554688,-0.240234375,1,0,0,0.533,button_right_main,0.268554688,-0.240234375,1,0,0,,0,127,127,93,1,SMONE,C,old,z,./images/SMONE.png,,,,,,,,,,,,,,,,,,,,,
,,,,,,,,,,,,,,,,,199567,18,2022-01-28_15h57.06.049,lexical_decision_task_DD_L6,2021.2.3,MacIntel,58.82352941,,,,,,,,,,0.814,1,,,,,,,,,,,,,,,0,-0.272460938,-0.3125,1,0,0,0.814,button_left_main,-0.272460938,-0.3125,1,0,0,,0,128,128,114,1,RIKES,C,old,z,./images/RIKES.png,,,,,,,,,,,,,,,,,,,,,
,,,,,,,,,,,,,,,,,199567,18,2022-01-28_15h57.06.049,lexical_decision_task_DD_L6,2021.2.3,MacIntel,58.82352941,,,,,,,,,,0.782,1,,,,,,,,,,,,,,,0,0.33203125,-0.30859375,1,0,0,0.782,button_right_main,0.33203125,-0.30859375,1,0,0,,0,129,129,7,1,WAGON,C,old,m,./images/WAGON.png,,,,,,,,,,,,,,,,,,,,,
,,,,,,,,,,,,,,,,,199567,18,2022-01-28_15h57.06.049,lexical_decision_task_DD_L6,2021.2.3,MacIntel,58.82352941,,,,,,,,,,0.78,1,,,,,,,,,,,,,,,0,-0.30078125,-0.362304688,1,0,0,0.78,button_left_main,-0.30078125,-0.362304688,1,0,0,,0,130,130,90,1,NEAST,C,old,z,./images/NEAST.png,,,,,,,,,,,,,,,,,,,,,
,,,,,,,,,,,,,,,,,199567,18,2022-01-28_15h57.06.049,lexical_decision_task_DD_L6,2021.2.3,MacIntel,58.82352941,,,,,,,,,,0.769,1,,,,,,,,,,,,,,,0,-0.302734375,-0.319335938,1,0,0,0.769,button_left_main,-0.302734375,-0.319335938,1,0,0,,0,131,131,165,1,TROWN,C,old,z,./images/TROWN.png,,,,,,,,,,,,,,,,,,,,,
,,,,,,,,,,,,,,,,,199567,18,2022-01-28_15h57.06.049,lexical_decision_task_DD_L6,2021.2.3,MacIntel,58.82352941,,,,,,,,,,0.781,1,,,,,,,,,,,,,,,0,0.3046875,-0.266601563,1,0,0,0.781,button_right_main,0.3046875,-0.266601563,1,0,0,,0,132,132,51,1,SAUCE,LB,old,m,./images/SAUCELB.png,,,,,,,,,,,,,,,,,,,,,
,,,,,,,,,,,,,,,,,199567,18,2022-01-28_15h57.06.049,lexical_decision_task_DD_L6,2021.2.3,MacIntel,58.82352941,,,,,,,,,,0.847,1,,,,,,,,,,,,,,,0,0.350585938,-0.330078125,1,0,0,0.847,button_right_main,0.350585938,-0.330078125,1,0,0,,0,133,133,74,1,JUMPER,HB,old,m,./images/JUMPERHB.png,,,,,,,,,,,,,,,,,,,,,
,,,,,,,,,,,,,,,,,199567,18,2022-01-28_15h57.06.049,lexical_decision_task_DD_L6,2021.2.3,MacIntel,58.82352941,,,,,,,,,,0.833,1,,,,,,,,,,,,,,,0,-0.29296875,-0.34765625,1,0,0,0.833,button_left_main,-0.29296875,-0.34765625,1,0,0,,0,134,134,89,1,DRIEK,LB,old,z,./images/DRIEKLB.png,,,,,,,,,,,,,,,,,,,,,
,,,,,,,,,,,,,,,,,199567,18,2022-01-28_15h57.06.049,lexical_decision_task_DD_L6,2021.2.3,MacIntel,58.82352941,,,,,,,,,,0.747,1,,,,,,,,,,,,,,,0,0.26953125,-0.309570313,1,0,0,0.747,button_right_main,0.26953125,-0.309570313,1,0,0,,0,135,135,13,1,BUNNY,C,old,m,./images/BUNNY.png,,,,,,,,,,,,,,,,,,,,,
,,,,,,,,,,,,,,,,,199567,18,2022-01-28_15h57.06.049,lexical_decision_task_DD_L6,2021.2.3,MacIntel,58.82352941,,,,,,,,,,1.451,1,,,,,,,,,,,,,,,0,-0.265625,-0.310546875,1,0,0,1.451,button_left_main,-0.265625,-0.310546875,1,0,0,,0,136,136,151,1,TINKY,HB,old,z,./images/TINKYHB.png,,,,,,,,,,,,,,,,,,,,,
,,,,,,,,,,,,,,,,,199567,18,2022-01-28_15h57.06.049,lexical_decision_task_DD_L6,2021.2.3,MacIntel,58.82352941,,,,,,,,,,0.598,1,,,,,,,,,,,,,,,0,0.318359375,-0.314453125,1,0,0,0.598,button_right_main,0.318359375,-0.314453125,1,0,0,,0,137,137,60,1,CURRY,LB,old,m,./images/CURRYLB.png,,,,,,,,,,,,,,,,,,,,,
,,,,,,,,,,,,,,,,,199567,18,2022-01-28_15h57.06.049,lexical_decision_task_DD_L6,2021.2.3,MacIntel,58.82352941,,,,,,,,,,0.551,1,,,,,,,,,,,,,,,0,0.30078125,-0.322265625,1,0,0,0.551,button_right_main,0.30078125,-0.322265625,1,0,0,,0,138,138,22,1,CLOWN,C,old,m,./images/CLOWN.png,,,,,,,,,,,,,,,,,,,,,
,,,,,,,,,,,,,,,,,199567,18,2022-01-28_15h57.06.049,lexical_decision_task_DD_L6,2021.2.3,MacIntel,58.82352941,,,,,,,,,,1.031,1,,,,,,,,,,,,,,,0,-0.3046875,-0.362304688,1,0,0,1.031,button_left_main,-0.3046875,-0.362304688,1,0,0,,0,139,139,88,1,GLUSH,HB,old,z,./images/GLUSHHB.png,,,,,,,,,,,,,,,,,,,,,
,,,,,,,,,,,,,,,,,199567,18,2022-01-28_15h57.06.049,lexical_decision_task_DD_L6,2021.2.3,MacIntel,58.82352941,,,,,,,,,,0.549,1,,,,,,,,,,,,,,,0,0.331054688,-0.3046875,1,0,0,0.549,button_right_main,0.331054688,-0.3046875,1,0,0,,0,140,140,30,1,SLOPE,LB,old,m,./images/SLOPELB.png,,,,,,,,,,,,,,,,,,,,,
,,,,,,,,,,,,,,,,,199567,18,2022-01-28_15h57.06.049,lexical_decision_task_DD_L6,2021.2.3,MacIntel,58.82352941,,,,,,,,,,0.914,1,,,,,,,,,,,,,,,0,0.310546875,-0.331054688,1,0,0,0.914,button_right_main,0.310546875,-0.331054688,1,0,0,,0,141,141,59,1,BRUSH,HB,old,m,./images/BRUSHHB.png,,,,,,,,,,,,,,,,,,,,,
,,,,,,,,,,,,,,,,,199567,18,2022-01-28_15h57.06.049,lexical_decision_task_DD_L6,2021.2.3,MacIntel,58.82352941,,,,,,,,,,1.247,1,,,,,,,,,,,,,,,0,-0.291992188,-0.313476563,1,0,0,1.247,button_left_main,-0.291992188,-0.313476563,1,0,0,,0,142,142,130,1,CRILL,HB,old,z,./images/CRILLHB.png,,,,,,,,,,,,,,,,,,,,,
,,,,,,,,,,,,,,,,,199567,18,2022-01-28_15h57.06.049,lexical_decision_task_DD_L6,2021.2.3,MacIntel,58.82352941,,,,,,,,,,0.733,1,,,,,,,,,,,,,,,0,0.315429688,-0.326171875,1,0,0,0.733,button_right_main,0.315429688,-0.326171875,1,0,0,,0,143,143,28,1,CASINO,C,old,m,./images/CASINO.png,,,,,,,,,,,,,,,,,,,,,
,,,,,,,,,,,,,,,,,199567,18,2022-01-28_15h57.06.049,lexical_decision_task_DD_L6,2021.2.3,MacIntel,58.82352941,,,,,,,,,,0.698,1,,,,,,,,,,,,,,,0,-0.291992188,-0.323242188,1,0,0,0.698,button_left_main,-0.291992188,-0.323242188,1,0,0,,0,144,144,144,1,NAIRY,C,old,z,./images/NAIRY.png,,,,,,,,,,,,,,,,,,,,,
,,,,,,,,,,,,,,,,,199567,18,2022-01-28_15h57.06.049,lexical_decision_task_DD_L6,2021.2.3,MacIntel,58.82352941,,,,,,,,,,0.98,1,,,,,,,,,,,,,,,0,-0.241210938,-0.291992188,1,0,0,0.98,button_left_main,-0.241210938,-0.291992188,1,0,0,,0,145,145,139,1,BLEAR,HB,old,z,./images/BLEARHB.png,,,,,,,,,,,,,,,,,,,,,
,,,,,,,,,,,,,,,,,199567,18,2022-01-28_15h57.06.049,lexical_decision_task_DD_L6,2021.2.3,MacIntel,58.82352941,,,,,,,,,,0.681,1,,,,,,,,,,,,,,,0,0.317382813,-0.31640625,1,0,0,0.681,button_right_main,0.317382813,-0.31640625,1,0,0,,0,146,146,48,1,SHIELD,LB,old,m,./images/SHIELDLB.png,,,,,,,,,,,,,,,,,,,,,
,,,,,,,,,,,,,,,,,199567,18,2022-01-28_15h57.06.049,lexical_decision_task_DD_L6,2021.2.3,MacIntel,58.82352941,,,,,,,,,,0.698,1,,,,,,,,,,,,,,,0,-0.276367188,-0.333007813,1,0,0,0.698,button_left_main,-0.276367188,-0.333007813,1,0,0,,0,147,147,117,1,STEEG,C,old,z,./images/STEEG.png,,,,,,,,,,,,,,,,,,,,,
,,,,,,,,,,,,,,,,,199567,18,2022-01-28_15h57.06.049,lexical_decision_task_DD_L6,2021.2.3,MacIntel,58.82352941,,,,,,,,,,0.564,1,,,,,,,,,,,,,,,0,0.337890625,-0.317382813,1,0,0,0.564,button_right_main,0.337890625,-0.317382813,1,0,0,,0,148,148,34,1,RAZOR,C,old,m,./images/RAZOR.png,,,,,,,,,,,,,,,,,,,,,
,,,,,,,,,,,,,,,,,199567,18,2022-01-28_15h57.06.049,lexical_decision_task_DD_L6,2021.2.3,MacIntel,58.82352941,,,,,,,,,,1.263,1,,,,,,,,,,,,,,,0,0.282226563,-0.315429688,1,0,0,1.263,button_right_main,0.282226563,-0.315429688,1,0,0,,0,149,149,76,1,MIDGET,C,old,m,./images/MIDGET.png,,,,,,,,,,,,,,,,,,,,,
,,,,,,,,,,,,,,,,,199567,18,2022-01-28_15h57.06.049,lexical_decision_task_DD_L6,2021.2.3,MacIntel,58.82352941,,,,,,,,,,0.597,1,,,,,,,,,,,,,,,0,0.32421875,-0.337890625,1,0,0,0.597,button_right_main,0.32421875,-0.337890625,1,0,0,,0,150,150,0,1,WALNUT,LB,old,m,./images/WALNUTLB.png,,,,,,,,,,,,,,,,,,,,,
,,,,,,,,,,,,,,,,,199567,18,2022-01-28_15h57.06.049,lexical_decision_task_DD_L6,2021.2.3,MacIntel,58.82352941,,,,,,,,,,1.084,1,,,,,,,,,,,,,,,0,-0.29296875,-0.276367188,1,0,0,1.084,button_left_main,-0.29296875,-0.276367188,1,0,0,,0,151,151,154,1,THINT,HB,old,z,./images/THINTHB.png,,,,,,,,,,,,,,,,,,,,,
,,,,,,,,,,,,,,,,,199567,18,2022-01-28_15h57.06.049,lexical_decision_task_DD_L6,2021.2.3,MacIntel,58.82352941,,,,,,,,,,0.915,1,,,,,,,,,,,,,,,0,-0.264648438,-0.297851563,1,0,0,0.915,button_left_main,-0.264648438,-0.297851563,1,0,0,,0,152,152,98,1,BAMPS,LB,old,z,./images/BAMPSLB.png,,,,,,,,,,,,,,,,,,,,,
,,,,,,,,,,,,,,,,,199567,18,2022-01-28_15h57.06.049,lexical_decision_task_DD_L6,2021.2.3,MacIntel,58.82352941,,,,,,,,,,1.714,1,,,,,,,,,,,,,,,0,-0.26171875,-0.299804688,1,0,0,1.714,button_left_main,-0.26171875,-0.299804688,1,0,0,,0,153,153,136,1,WERVE,HB,old,z,./images/WERVEHB.png,,,,,,,,,,,,,,,,,,,,,
,,,,,,,,,,,,,,,,,199567,18,2022-01-28_15h57.06.049,lexical_decision_task_DD_L6,2021.2.3,MacIntel,58.82352941,,,,,,,,,,0.93,1,,,,,,,,,,,,,,,0,0.28515625,-0.33203125,1,0,0,0.93,button_right_main,0.28515625,-0.33203125,1,0,0,,0,154,154,54,1,CHERRY,LB,old,m,./images/CHERRYLB.png,,,,,,,,,,,,,,,,,,,,,
,,,,,,,,,,,,,,,,,199567,18,2022-01-28_15h57.06.049,lexical_decision_task_DD_L6,2021.2.3,MacIntel,58.82352941,,,,,,,,,,0.651,1,,,,,,,,,,,,,,,0,0.283203125,-0.313476563,1,0,0,0.651,button_right_main,0.283203125,-0.313476563,1,0,0,,0,155,155,78,1,BROOM,LB,old,m,./images/BROOMLB.png,,,,,,,,,,,,,,,,,,,,,
,,,,,,,,,,,,,,,,,199567,18,2022-01-28_15h57.06.049,lexical_decision_task_DD_L6,2021.2.3,MacIntel,58.82352941,,,,,,,,,,1.531,1,,,,,,,,,,,,,,,0,-0.267578125,-0.3671875,1,0,0,1.531,button_left_main,-0.267578125,-0.3671875,1,0,0,,0,156,156,161,1,BLAPS,LB,old,z,./images/BLAPSLB.png,,,,,,,,,,,,,,,,,,,,,
,,,,,,,,,,,,,,,,,199567,18,2022-01-28_15h57.06.049,lexical_decision_task_DD_L6,2021.2.3,MacIntel,58.82352941,,,,,,,,,,0.778,1,,,,,,,,,,,,,,,0,0.291015625,-0.279296875,1,0,0,0.778,button_right_main,0.291015625,-0.279296875,1,0,0,,0,157,157,68,1,VALLEY,HB,old,m,./images/VALLEYHB.png,,,,,,,,,,,,,,,,,,,,,
,,,,,,,,,,,,,,,,,199567,18,2022-01-28_15h57.06.049,lexical_decision_task_DD_L6,2021.2.3,MacIntel,58.82352941,,,,,,,,,,1.3,1,,,,,,,,,,,,,,,0,-0.26953125,-0.336914063,1,0,0,1.3,button_left_main,-0.26953125,-0.336914063,1,0,0,,0,158,158,106,1,CLUMS,HB,old,z,./images/CLUMSHB.png,,,,,,,,,,,,,,,,,,,,,
,,,,,,,,,,,,,,,,,199567,18,2022-01-28_15h57.06.049,lexical_decision_task_DD_L6,2021.2.3,MacIntel,58.82352941,,,,,,,,,,0.964,1,,,,,,,,,,,,,,,0,0.278320313,-0.298828125,1,0,0,0.964,button_right_main,0.278320313,-0.298828125,1,0,0,,0,159,159,5,1,BAMBOO,HB,old,m,./images/BAMBOOHB.png,,,,,,,,,,,,,,,,,,,,,
,,,,,,,,,,,,,,,,,199567,18,2022-01-28_15h57.06.049,lexical_decision_task_DD_L6,2021.2.3,MacIntel,58.82352941,,,,,,,,,,0.946,1,,,,,,,,,,,,,,,0,-0.278320313,-0.297851563,1,0,0,0.946,button_left_main,-0.278320313,-0.297851563,1,0,0,,0,160,160,148,1,JOMS,HB,old,z,./images/JOMSHB.png,,,,,,,,,,,,,,,,,,,,,
,,,,,,,,,,,,,,,,,199567,18,2022-01-28_15h57.06.049,lexical_decision_task_DD_L6,2021.2.3,MacIntel,58.82352941,,,,,,,,,,0.78,1,,,,,,,,,,,,,,,0,0.271484375,-0.314453125,1,0,0,0.78,button_right_main,0.271484375,-0.314453125,1,0,0,,0,161,161,47,1,LAGOON,HB,old,m,./images/LAGOONHB.png,,,,,,,,,,,,,,,,,,,,,
,,,,,,,,,,,,,,,,,199567,18,2022-01-28_15h57.06.049,lexical_decision_task_DD_L6,2021.2.3,MacIntel,58.82352941,,,,,,,,,,0.668,1,,,,,,,,,,,,,,,0,0.295898438,-0.3359375,1,0,0,0.668,button_right_main,0.295898438,-0.3359375,1,0,0,,0,162,162,80,1,PLANET,HB,old,m,./images/PLANETHB.png,,,,,,,,,,,,,,,,,,,,,
,,,,,,,,,,,,,,,,,199567,18,2022-01-28_15h57.06.049,lexical_decision_task_DD_L6,2021.2.3,MacIntel,58.82352941,,,,,,,,,,0.797,1,,,,,,,,,,,,,,,0,0.319335938,-0.305664063,1,0,0,0.797,button_right_main,0.319335938,-0.305664063,1,0,0,,0,163,163,14,1,FENCE,HB,old,m,./images/FENCEHB.png,,,,,,,,,,,,,,,,,,,,,
,,,,,,,,,,,,,,,,,199567,18,2022-01-28_15h57.06.049,lexical_decision_task_DD_L6,2021.2.3,MacIntel,58.82352941,,,,,,,,,,0.596,1,,,,,,,,,,,,,,,0,0.314453125,-0.311523438,1,0,0,0.596,button_right_main,0.314453125,-0.311523438,1,0,0,,0,164,164,67,1,POKER,C,old,m,./images/POKER.png,,,,,,,,,,,,,,,,,,,,,
,,,,,,,,,,,,,,,,,199567,18,2022-01-28_15h57.06.049,lexical_decision_task_DD_L6,2021.2.3,MacIntel,58.82352941,,,,,,,,,,0.781,1,,,,,,,,,,,,,,,0,-0.264648438,-0.3125,1,0,0,0.781,button_left_main,-0.264648438,-0.3125,1,0,0,,0,165,165,119,1,PAFER,LB,old,z,./images/PAFERLB.png,,,,,,,,,,,,,,,,,,,,,
,,,,,,,,,,,,,,,,,199567,18,2022-01-28_15h57.06.049,lexical_decision_task_DD_L6,2021.2.3,MacIntel,58.82352941,,,,,,,,,,1.634,1,,,,,,,,,,,,,,,0,-0.287109375,-0.331054688,1,0,0,1.634,button_left_main,-0.287109375,-0.331054688,1,0,0,,0,166,166,166,1,SHORY,HB,old,z,./images/SHORYHB.png,,,,,,,,,,,,,,,,,,,,,
,,,,,,,,,,,,,,,,,199567,18,2022-01-28_15h57.06.049,lexical_decision_task_DD_L6,2021.2.3,MacIntel,58.82352941,,,,,,,,,,1.713,1,,,,,,,,,,,,,,,0,-0.298828125,-0.310546875,1,0,0,1.713,button_left_main,-0.298828125,-0.310546875,1,0,0,,0,167,167,101,1,GLEET,LB,old,z,./images/GLEETLB.png,,,,,,,,,,,,,,,,,,,,,
,-0.010742188,-0.377929688,1,0,0,instr_done_button,,,,,,1,test,"In the next phase you will be presented with the words from the the first phase. Your job is to decide whether you remember seeing the word or not. If you remember seeing the word press ""old"" or type ""m"". If you do not remember seeing the word press ""new"" or type ""z"". Please press the space bar or click on continue to begin. ",,,199567,18,2022-01-28_15h57.06.049,lexical_decision_task_DD_L6,2021.2.3,MacIntel,58.82352941,,,,,,,,,,,,,,,,,,,,,,,,,,,,,,,,,,,,,,,,,,,,,,,,,,,0,0,0,0,1,,,,,,,,,,,,,,,
,0.043945313,-0.387695313,1,0,0,instr_done_button,,,,,,1,test,"In the next phase you will be presented with the words from the the first phase. Your job is to decide whether you remember seeing the word or not. If you remember seeing the word press ""old"" or type ""m"". If you do not remember seeing the word press ""new"" or type ""z"". Please press the space bar or click on continue to begin. ",,,199567,18,2022-01-28_15h57.06.049,lexical_decision_task_DD_L6,2021.2.3,MacIntel,58.82352941,,,,,,,,,,,,,,,,,,,,,,,,,,,,,,,,,,,,,,,,,,,,,,,,,,,1,0,1,0,1,,,,,,,,,,,,,,,
,0.065429688,-0.391601563,1,0,0,instr_done_button,,,,,,1,test,"In the next phase you will be presented with the words from the the first phase. Your job is to decide whether you remember seeing the word or not. If you remember seeing the word press ""old"" or type ""m"". If you do not remember seeing the word press ""new"" or type ""z"". Please press the space bar or click on continue to begin. ",,,199567,18,2022-01-28_15h57.06.049,lexical_decision_task_DD_L6,2021.2.3,MacIntel,58.82352941,,,,,,,,,,,,,,,,,,,,,,,,,,,,,,,,,,,,,,,,,,,,,,,,,,,2,0,2,0,1,,,,,,,,,,,,,,,
,0.043945313,-0.399414063,1,0,0,instr_done_button,,,,,,1,test,"In the next phase you will be presented with the words from the the first phase. Your job is to decide whether you remember seeing the word or not. If you remember seeing the word press ""old"" or type ""m"". If you do not remember seeing the word press ""new"" or type ""z"". Please press the space bar or click on continue to begin. ",,,199567,18,2022-01-28_15h57.06.049,lexical_decision_task_DD_L6,2021.2.3,MacIntel,58.82352941,,,,,,,,,,,,,,,,,,,,,,,,,,,,,,,,,,,,,,,,,,,,,,,,,,,3,0,3,0,1,,,,,,,,,,,,,,,
space,0.043945313,-0.399414063,0,0,0,,,,,,,1,test,"In the next phase you will be presented with the words from the the first phase. Your job is to decide whether you remember seeing the word or not. If you remember seeing the word press ""old"" or type ""m"". If you do not remember seeing the word press ""new"" or type ""z"". Please press the space bar or click on continue to begin. ",,,199567,18,2022-01-28_15h57.06.049,lexical_decision_task_DD_L6,2021.2.3,MacIntel,58.82352941,,,,,,,,,,,,,,,,,,,,,,,,,,,,,,,,,,,,,,,,,,,,,,,,,,,4,0,4,0,1,0.691,,,,,,,,,,,,,,
,,,,,,,,,,,,,,,,,199567,18,2022-01-28_15h57.06.049,lexical_decision_task_DD_L6,2021.2.3,MacIntel,58.82352941,,,,,,,,,,3.959,0,,,,,,,,,,,,,,,,,,,,,,,0.303710938,-0.2734375,1,0,0,,,,,,,COUCH,HB,z,y,./images/COUCHHB.png,,,,,,,,,0,0.303710938,-0.2734375,1,0,0,3.959,button_right_test,0,0,0,161,1
,,,,,,,,,,,,,,,,,199567,18,2022-01-28_15h57.06.049,lexical_decision_task_DD_L6,2021.2.3,MacIntel,58.82352941,,,,,,,,,,1.212,1,,,,,,,,,,,,,,,,,,,,,,,0.296875,-0.318359375,1,0,0,,,,,,,SPINE,HB,m,y,./images/SPINEHB.png,,,,,,,,,0,0.296875,-0.318359375,1,0,0,1.212,button_right_test,0,1,1,65,1
,,,,,,,,,,,,,,,,,199567,18,2022-01-28_15h57.06.049,lexical_decision_task_DD_L6,2021.2.3,MacIntel,58.82352941,,,,,,,,,,1.813,1,,,,,,,,,,,,,,,,,,,,,,,-0.319335938,-0.3046875,1,0,0,,,,,,,INFANT,C,z,y,./images/INFANT.png,,,,,,,,,0,-0.319335938,-0.3046875,1,0,0,1.813,button_left_test,0,2,2,160,1
,,,,,,,,,,,,,,,,,199567,18,2022-01-28_15h57.06.049,lexical_decision_task_DD_L6,2021.2.3,MacIntel,58.82352941,,,,,,,,,,1.246,1,,,,,,,,,,,,,,,,,,,,,,,0.245117188,-0.251953125,1,0,0,,,,,,,BISHOP,C,m,y,./images/BISHOP.png,,,,,,,,,0,0.245117188,-0.251953125,1,0,0,1.246,button_right_test,0,3,3,49,1
,,,,,,,,,,,,,,,,,199567,18,2022-01-28_15h57.06.049,lexical_decision_task_DD_L6,2021.2.3,MacIntel,58.82352941,,,,,,,,,,1.246,1,,,,,,,,,,,,,,,,,,,,,,,-0.283203125,-0.333984375,1,0,0,,,,,,,FALCON,C,z,y,./images/FALCON.png,,,,,,,,,0,-0.283203125,-0.333984375,1,0,0,1.246,button_left_test,0,4,4,112,1
,,,,,,,,,,,,,,,,,199567,18,2022-01-28_15h57.06.049,lexical_decision_task_DD_L6,2021.2.3,MacIntel,58.82352941,,,,,,,,,,1.296,0,,,,,,,,,,,,,,,,,,,,,,,-0.283203125,-0.358398438,1,0,0,,,,,,,LAGOON,HB,m,y,./images/LAGOONHB.png,,,,,,,,,0,-0.283203125,-0.358398438,1,0,0,1.296,button_left_test,0,5,5,47,1
,,,,,,,,,,,,,,,,,199567,18,2022-01-28_15h57.06.049,lexical_decision_task_DD_L6,2021.2.3,MacIntel,58.82352941,,,,,,,,,,0.846,1,,,,,,,,,,,,,,,,,,,,,,,-0.274414063,-0.348632813,1,0,0,,,,,,,ONION,LB,z,y,./images/ONIONLB.png,,,,,,,,,0,-0.274414063,-0.348632813,1,0,0,0.846,button_left_test,0,6,6,135,1
,,,,,,,,,,,,,,,,,199567,18,2022-01-28_15h57.06.049,lexical_decision_task_DD_L6,2021.2.3,MacIntel,58.82352941,,,,,,,,,,1.346,1,,,,,,,,,,,,,,,,,,,,,,,0.314453125,-0.29296875,1,0,0,,,,,,,SNAKE,C,m,y,./images/SNAKE.png,,,,,,,,,0,0.314453125,-0.29296875,1,0,0,1.346,button_right_test,0,7,7,40,1
,,,,,,,,,,,,,,,,,199567,18,2022-01-28_15h57.06.049,lexical_decision_task_DD_L6,2021.2.3,MacIntel,58.82352941,,,,,,,,,,0.995,1,,,,,,,,,,,,,,,,,,,,,,,0.299804688,-0.301757813,1,0,0,,,,,,,STATUE,LB,m,y,./images/STATUELB.png,,,,,,,,,0,0.299804688,-0.301757813,1,0,0,0.995,button_right_test,0,8,8,66,1
,,,,,,,,,,,,,,,,,199567,18,2022-01-28_15h57.06.049,lexical_decision_task_DD_L6,2021.2.3,MacIntel,58.82352941,,,,,,,,,,0.912,1,,,,,,,,,,,,,,,,,,,,,,,-0.275390625,-0.328125,1,0,0,,,,,,,WRIST,C,z,y,./images/WRIST.png,,,,,,,,,0,-0.275390625,-0.328125,1,0,0,0.912,button_left_test,0,9,9,109,1
,,,,,,,,,,,,,,,,,199567,18,2022-01-28_15h57.06.049,lexical_decision_task_DD_L6,2021.2.3,MacIntel,58.82352941,,,,,,,,,,0.977,1,,,,,,,,,,,,,,,,,,,,,,,0.331054688,-0.299804688,1,0,0,,,,,,,PARADE,HB,m,y,./images/PARADEHB.png,,,,,,,,,0,0.331054688,-0.299804688,1,0,0,0.977,button_right_test,0,10,10,17,1
,,,,,,,,,,,,,,,,,199567,18,2022-01-28_15h57.06.049,lexical_decision_task_DD_L6,2021.2.3,MacIntel,58.82352941,,,,,,,,,,1.06,0,,,,,,,,,,,,,,,,,,,,,,,-0.245117188,-0.315429688,1,0,0,,,,,,,DIVER,LB,m,y,./images/DIVERLB.png,,,,,,,,,0,-0.245117188,-0.315429688,1,0,0,1.06,button_left_test,0,11,11,9,1
,,,,,,,,,,,,,,,,,199567,18,2022-01-28_15h57.06.049,lexical_decision_task_DD_L6,2021.2.3,MacIntel,58.82352941,,,,,,,,,,1.014,1,,,,,,,,,,,,,,,,,,,,,,,0.274414063,-0.30078125,1,0,0,,,,,,,POKER,C,m,y,./images/POKER.png,,,,,,,,,0,0.274414063,-0.30078125,1,0,0,1.014,button_right_test,0,12,12,67,1
,,,,,,,,,,,,,,,,,199567,18,2022-01-28_15h57.06.049,lexical_decision_task_DD_L6,2021.2.3,MacIntel,58.82352941,,,,,,,,,,1.583,1,,,,,,,,,,,,,,,,,,,,,,,-0.291992188,-0.303710938,1,0,0,,,,,,,RHINO,LB,z,y,./images/RHINOLB.png,,,,,,,,,0,-0.291992188,-0.303710938,1,0,0,1.583,button_left_test,0,13,13,93,1
,,,,,,,,,,,,,,,,,199567,18,2022-01-28_15h57.06.049,lexical_decision_task_DD_L6,2021.2.3,MacIntel,58.82352941,,,,,,,,,,0.877,1,,,,,,,,,,,,,,,,,,,,,,,0.272460938,-0.258789063,1,0,0,,,,,,,CASINO,C,m,y,./images/CASINO.png,,,,,,,,,0,0.272460938,-0.258789063,1,0,0,0.877,button_right_test,0,14,14,28,1
,,,,,,,,,,,,,,,,,199567,18,2022-01-28_15h57.06.049,lexical_decision_task_DD_L6,2021.2.3,MacIntel,58.82352941,,,,,,,,,,0.88,1,,,,,,,,,,,,,,,,,,,,,,,-0.245117188,-0.309570313,1,0,0,,,,,,,ATTIC,LB,z,y,./images/ATTICLB.png,,,,,,,,,0,-0.245117188,-0.309570313,1,0,0,0.88,button_left_test,0,15,15,111,1
,,,,,,,,,,,,,,,,,199567,18,2022-01-28_15h57.06.049,lexical_decision_task_DD_L6,2021.2.3,MacIntel,58.82352941,,,,,,,,,,1.213,1,,,,,,,,,,,,,,,,,,,,,,,-0.283203125,-0.32421875,1,0,0,,,,,,,POODLE,LB,z,y,./images/POODLELB.png,,,,,,,,,0,-0.283203125,-0.32421875,1,0,0,1.213,button_left_test,0,16,16,165,1
,,,,,,,,,,,,,,,,,199567,18,2022-01-28_15h57.06.049,lexical_decision_task_DD_L6,2021.2.3,MacIntel,58.82352941,,,,,,,,,,0.896,1,,,,,,,,,,,,,,,,,,,,,,,-0.272460938,-0.326171875,1,0,0,,,,,,,SKIING,HB,z,y,./images/SKIINGHB.png,,,,,,,,,0,-0.272460938,-0.326171875,1,0,0,0.896,button_left_test,0,17,17,101,1
,,,,,,,,,,,,,,,,,199567,18,2022-01-28_15h57.06.049,lexical_decision_task_DD_L6,2021.2.3,MacIntel,58.82352941,,,,,,,,,,0.846,1,,,,,,,,,,,,,,,,,,,,,,,0.24609375,-0.309570313,1,0,0,,,,,,,JUMPER,HB,m,y,./images/JUMPERHB.png,,,,,,,,,0,0.24609375,-0.309570313,1,0,0,0.846,button_right_test,0,18,18,74,1
,,,,,,,,,,,,,,,,,199567,18,2022-01-28_15h57.06.049,lexical_decision_task_DD_L6,2021.2.3,MacIntel,58.82352941,,,,,,,,,,0.962,1,,,,,,,,,,,,,,,,,,,,,,,-0.251953125,-0.32421875,1,0,0,,,,,,,TOMATO,LB,z,y,./images/TOMATOLB.png,,,,,,,,,0,-0.251953125,-0.32421875,1,0,0,0.962,button_left_test,0,19,19,84,1
,,,,,,,,,,,,,,,,,199567,18,2022-01-28_15h57.06.049,lexical_decision_task_DD_L6,2021.2.3,MacIntel,58.82352941,,,,,,,,,,1.679,1,,,,,,,,,,,,,,,,,,,,,,,-0.279296875,-0.352539063,1,0,0,,,,,,,SAILOR,C,z,y,./images/SAILOR.png,,,,,,,,,0,-0.279296875,-0.352539063,1,0,0,1.679,button_left_test,0,20,20,151,1
,,,,,,,,,,,,,,,,,199567,18,2022-01-28_15h57.06.049,lexical_decision_task_DD_L6,2021.2.3,MacIntel,58.82352941,,,,,,,,,,1.096,1,,,,,,,,,,,,,,,,,,,,,,,0.220703125,-0.309570313,1,0,0,,,,,,,STEAK,C,m,y,./images/STEAK.png,,,,,,,,,0,0.220703125,-0.309570313,1,0,0,1.096,button_right_test,0,21,21,31,1
,,,,,,,,,,,,,,,,,199567,18,2022-01-28_15h57.06.049,lexical_decision_task_DD_L6,2021.2.3,MacIntel,58.82352941,,,,,,,,,,1.933,0,,,,,,,,,,,,,,,,,,,,,,,-0.250976563,-0.302734375,1,0,0,,,,,,,MONKEY,LB,m,y,./images/MONKEYLB.png,,,,,,,,,0,-0.250976563,-0.302734375,1,0,0,1.933,button_left_test,0,22,22,45,1
,,,,,,,,,,,,,,,,,199567,18,2022-01-28_15h57.06.049,lexical_decision_task_DD_L6,2021.2.3,MacIntel,58.82352941,,,,,,,,,,1.263,1,,,,,,,,,,,,,,,,,,,,,,,0.293945313,-0.279296875,1,0,0,,,,,,,POSTER,HB,m,y,./images/POSTERHB.png,,,,,,,,,0,0.293945313,-0.279296875,1,0,0,1.263,button_right_test,0,23,23,53,1
,,,,,,,,,,,,,,,,,199567,18,2022-01-28_15h57.06.049,lexical_decision_task_DD_L6,2021.2.3,MacIntel,58.82352941,,,,,,,,,,0.982,1,,,,,,,,,,,,,,,,,,,,,,,-0.245117188,-0.311523438,1,0,0,,,,,,,DOUGH,C,z,y,./images/DOUGH.png,,,,,,,,,0,-0.245117188,-0.311523438,1,0,0,0.982,button_left_test,0,24,24,103,1
,,,,,,,,,,,,,,,,,199567,18,2022-01-28_15h57.06.049,lexical_decision_task_DD_L6,2021.2.3,MacIntel,58.82352941,,,,,,,,,,1.895,0,,,,,,,,,,,,,,,,,,,,,,,0.28515625,-0.315429688,1,0,0,,,,,,,MOOSE,LB,z,y,./images/MOOSELB.png,,,,,,,,,0,0.28515625,-0.315429688,1,0,0,1.895,button_right_test,0,25,25,141,1
,,,,,,,,,,,,,,,,,199567,18,2022-01-28_15h57.06.049,lexical_decision_task_DD_L6,2021.2.3,MacIntel,58.82352941,,,,,,,,,,1.476,1,,,,,,,,,,,,,,,,,,,,,,,-0.323242188,-0.330078125,1,0,0,,,,,,,BARREL,HB,z,y,./images/BARRELHB.png,,,,,,,,,0,-0.323242188,-0.330078125,1,0,0,1.476,button_left_test,0,26,26,116,1
,,,,,,,,,,,,,,,,,199567,18,2022-01-28_15h57.06.049,lexical_decision_task_DD_L6,2021.2.3,MacIntel,58.82352941,,,,,,,,,,5.632,1,,,,,,,,,,,,,,,,,,,,,,,-0.225585938,-0.30859375,1,0,0,,,,,,,THROAT,LB,z,y,./images/THROATLB.png,,,,,,,,,0,-0.225585938,-0.30859375,1,0,0,5.632,button_left_test,0,27,27,120,1
,,,,,,,,,,,,,,,,,199567,18,2022-01-28_15h57.06.049,lexical_decision_task_DD_L6,2021.2.3,MacIntel,58.82352941,,,,,,,,,,1.213,1,,,,,,,,,,,,,,,,,,,,,,,-0.271484375,-0.3125,1,0,0,,,,,,,SHORE,LB,z,y,./images/SHORELB.png,,,,,,,,,0,-0.271484375,-0.3125,1,0,0,1.213,button_left_test,0,28,28,96,1
,,,,,,,,,,,,,,,,,199567,18,2022-01-28_15h57.06.049,lexical_decision_task_DD_L6,2021.2.3,MacIntel,58.82352941,,,,,,,,,,6.749,1,,,,,,,,,,,,,,,,,,,,,,,-0.301757813,-0.322265625,1,0,0,,,,,,,CEMENT,HB,z,y,./images/CEMENTHB.png,,,,,,,,,0,-0.301757813,-0.322265625,1,0,0,6.749,button_left_test,0,29,29,158,1
,,,,,,,,,,,,,,,,,199567,18,2022-01-28_15h57.06.049,lexical_decision_task_DD_L6,2021.2.3,MacIntel,58.82352941,,,,,,,,,,1.378,1,,,,,,,,,,,,,,,,,,,,,,,0.260742188,-0.288085938,1,0,0,,,,,,,BANANA,C,m,y,./images/BANANA.png,,,,,,,,,0,0.260742188,-0.288085938,1,0,0,1.378,button_right_test,0,30,30,70,1
,,,,,,,,,,,,,,,,,199567,18,2022-01-28_15h57.06.049,lexical_decision_task_DD_L6,2021.2.3,MacIntel,58.82352941,,,,,,,,,,0.599,0,,,,,,,,,,,,,,,,,,,,,,,0.2578125,-0.244140625,1,0,0,,,,,,,PAINT,C,z,y,./images/PAINT.png,,,,,,,,,0,0.2578125,-0.244140625,1,0,0,0.599,button_right_test,0,31,31,91,1
,,,,,,,,,,,,,,,,,199567,18,2022-01-28_15h57.06.049,lexical_decision_task_DD_L6,2021.2.3,MacIntel,58.82352941,,,,,,,,,,0.695,1,,,,,,,,,,,,,,,,,,,,,,,0.225585938,-0.284179688,1,0,0,,,,,,,WHEEL,HB,m,y,./images/WHEELHB.png,,,,,,,,,0,0.225585938,-0.284179688,1,0,0,0.695,button_right_test,0,32,32,77,1
,,,,,,,,,,,,,,,,,199567,18,2022-01-28_15h57.06.049,lexical_decision_task_DD_L6,2021.2.3,MacIntel,58.82352941,,,,,,,,,,1.297,0,,,,,,,,,,,,,,,,,,,,,,,0.248046875,-0.275390625,1,0,0,,,,,,,NOOSE,LB,z,y,./images/NOOSELB.png,,,,,,,,,0,0.248046875,-0.275390625,1,0,0,1.297,button_right_test,0,33,33,156,1
,,,,,,,,,,,,,,,,,199567,18,2022-01-28_15h57.06.049,lexical_decision_task_DD_L6,2021.2.3,MacIntel,58.82352941,,,,,,,,,,1.712,0,,,,,,,,,,,,,,,,,,,,,,,-0.284179688,-0.346679688,1,0,0,,,,,,,WHISKY,HB,m,y,./images/WHISKYHB.png,,,,,,,,,0,-0.284179688,-0.346679688,1,0,0,1.712,button_left_test,0,34,34,83,1
,,,,,,,,,,,,,,,,,199567,18,2022-01-28_15h57.06.049,lexical_decision_task_DD_L6,2021.2.3,MacIntel,58.82352941,,,,,,,,,,0.813,1,,,,,,,,,,,,,,,,,,,,,,,0.24609375,-0.30859375,1,0,0,,,,,,,BRIDE,C,m,y,./images/BRIDE.png,,,,,,,,,0,0.24609375,-0.30859375,1,0,0,0.813,button_right_test,0,35,35,64,1
,,,,,,,,,,,,,,,,,199567,18,2022-01-28_15h57.06.049,lexical_decision_task_DD_L6,2021.2.3,MacIntel,58.82352941,,,,,,,,,,0.913,0,,,,,,,,,,,,,,,,,,,,,,,-0.248046875,-0.3203125,1,0,0,,,,,,,CLIFF,HB,m,y,./images/CLIFFHB.png,,,,,,,,,0,-0.248046875,-0.3203125,1,0,0,0.913,button_left_test,0,36,36,8,1
,,,,,,,,,,,,,,,,,199567,18,2022-01-28_15h57.06.049,lexical_decision_task_DD_L6,2021.2.3,MacIntel,58.82352941,,,,,,,,,,1.296,1,,,,,,,,,,,,,,,,,,,,,,,-0.252929688,-0.322265625,1,0,0,,,,,,,URINE,C,z,y,./images/URINE.png,,,,,,,,,0,-0.252929688,-0.322265625,1,0,0,1.296,button_left_test,0,37,37,154,1
,,,,,,,,,,,,,,,,,199567,18,2022-01-28_15h57.06.049,lexical_decision_task_DD_L6,2021.2.3,MacIntel,58.82352941,,,,,,,,,,0.966,1,,,,,,,,,,,,,,,,,,,,,,,-0.23046875,-0.345703125,1,0,0,,,,,,,CANDLE,C,z,y,./images/CANDLE.png,,,,,,,,,0,-0.23046875,-0.345703125,1,0,0,0.966,button_left_test,0,38,38,145,1
,,,,,,,,,,,,,,,,,199567,18,2022-01-28_15h57.06.049,lexical_decision_task_DD_L6,2021.2.3,MacIntel,58.82352941,,,,,,,,,,1.631,1,,,,,,,,,,,,,,,,,,,,,,,-0.213867188,-0.354492188,1,0,0,,,,,,,SPORT,LB,z,y,./images/SPORTLB.png,,,,,,,,,0,-0.213867188,-0.354492188,1,0,0,1.631,button_left_test,0,39,39,132,1
,,,,,,,,,,,,,,,,,199567,18,2022-01-28_15h57.06.049,lexical_decision_task_DD_L6,2021.2.3,MacIntel,58.82352941,,,,,,,,,,1.444,1,,,,,,,,,,,,,,,,,,,,,,,0.263671875,-0.30859375,1,0,0,,,,,,,COLLAR,LB,m,y,./images/COLLARLB.png,,,,,,,,,0,0.263671875,-0.30859375,1,0,0,1.444,button_right_test,0,40,40,15,1
,,,,,,,,,,,,,,,,,199567,18,2022-01-28_15h57.06.049,lexical_decision_task_DD_L6,2021.2.3,MacIntel,58.82352941,,,,,,,,,,1.363,0,,,,,,,,,,,,,,,,,,,,,,,0.037109375,-0.379882813,1,0,0,,,,,,,BROOM,LB,m,y,./images/BROOMLB.png,break_done_button,,,,,,,,0,-0.243164063,-0.321289063,1,0,0,1.363,button_left_test,0,41,41,78,1
,,,,,,,,,,,,,,,,,199567,18,2022-01-28_15h57.06.049,lexical_decision_task_DD_L6,2021.2.3,MacIntel,58.82352941,,,,,,,,,,1.263,1,,,,,,,,,,,,,,,,,,,,,,,0.239257813,-0.295898438,1,0,0,,,,,,,PLANET,HB,m,y,./images/PLANETHB.png,,,,,,,,,0,0.239257813,-0.295898438,1,0,0,1.263,button_right_test,0,42,42,80,1
,,,,,,,,,,,,,,,,,199567,18,2022-01-28_15h57.06.049,lexical_decision_task_DD_L6,2021.2.3,MacIntel,58.82352941,,,,,,,,,,1.015,1,,,,,,,,,,,,,,,,,,,,,,,-0.262695313,-0.291992188,1,0,0,,,,,,,BERRY,HB,z,y,./images/BERRYHB.png,,,,,,,,,0,-0.262695313,-0.291992188,1,0,0,1.015,button_left_test,0,43,43,131,1
,,,,,,,,,,,,,,,,,199567,18,2022-01-28_15h57.06.049,lexical_decision_task_DD_L6,2021.2.3,MacIntel,58.82352941,,,,,,,,,,0.796,1,,,,,,,,,,,,,,,,,,,,,,,-0.247070313,-0.3359375,1,0,0,,,,,,,KITTEN,LB,z,y,./images/KITTENLB.png,,,,,,,,,0,-0.247070313,-0.3359375,1,0,0,0.796,button_left_test,0,44,44,129,1
,,,,,,,,,,,,,,,,,199567,18,2022-01-28_15h57.06.049,lexical_decision_task_DD_L6,2021.2.3,MacIntel,58.82352941,,,,,,,,,,0.948,1,,,,,,,,,,,,,,,,,,,,,,,-0.279296875,-0.341796875,1,0,0,,,,,,,PACKET,HB,z,y,./images/PACKETHB.png,,,,,,,,,0,-0.279296875,-0.341796875,1,0,0,0.948,button_left_test,0,45,45,140,1
,,,,,,,,,,,,,,,,,199567,18,2022-01-28_15h57.06.049,lexical_decision_task_DD_L6,2021.2.3,MacIntel,58.82352941,,,,,,,,,,0.997,0,,,,,,,,,,,,,,,,,,,,,,,-0.241210938,-0.342773438,1,0,0,,,,,,,GARDEN,C,m,y,./images/GARDEN.png,,,,,,,,,0,-0.241210938,-0.342773438,1,0,0,0.997,button_left_test,0,46,46,10,1
,,,,,,,,,,,,,,,,,199567,18,2022-01-28_15h57.06.049,lexical_decision_task_DD_L6,2021.2.3,MacIntel,58.82352941,,,,,,,,,,1.129,0,,,,,,,,,,,,,,,,,,,,,,,-0.28125,-0.329101563,1,0,0,,,,,,,STOVE,HB,m,y,./images/STOVEHB.png,,,,,,,,,0,-0.28125,-0.329101563,1,0,0,1.129,button_left_test,0,47,47,2,1
,,,,,,,,,,,,,,,,,199567,18,2022-01-28_15h57.06.049,lexical_decision_task_DD_L6,2021.2.3,MacIntel,58.82352941,,,,,,,,,,1.113,0,,,,,,,,,,,,,,,,,,,,,,,0.247070313,-0.28125,1,0,0,,,,,,,LADDER,HB,z,y,./images/LADDERHB.png,,,,,,,,,0,0.247070313,-0.28125,1,0,0,1.113,button_right_test,0,48,48,122,1
,,,,,,,,,,,,,,,,,199567,18,2022-01-28_15h57.06.049,lexical_decision_task_DD_L6,2021.2.3,MacIntel,58.82352941,,,,,,,,,,1.182,1,,,,,,,,,,,,,,,,,,,,,,,-0.244140625,-0.28125,1,0,0,,,,,,,FARMER,HB,z,y,./images/FARMERHB.png,,,,,,,,,0,-0.244140625,-0.28125,1,0,0,1.182,button_left_test,0,49,49,149,1
,,,,,,,,,,,,,,,,,199567,18,2022-01-28_15h57.06.049,lexical_decision_task_DD_L6,2021.2.3,MacIntel,58.82352941,,,,,,,,,,0.815,1,,,,,,,,,,,,,,,,,,,,,,,-0.322265625,-0.302734375,1,0,0,,,,,,,TRIPOD,LB,z,y,./images/TRIPODLB.png,,,,,,,,,0,-0.322265625,-0.302734375,1,0,0,0.815,button_left_test,0,50,50,138,1
,,,,,,,,,,,,,,,,,199567,18,2022-01-28_15h57.06.049,lexical_decision_task_DD_L6,2021.2.3,MacIntel,58.82352941,,,,,,,,,,0.782,1,,,,,,,,,,,,,,,,,,,,,,,-0.262695313,-0.319335938,1,0,0,,,,,,,MALLET,HB,z,y,./images/MALLETHB.png,,,,,,,,,0,-0.262695313,-0.319335938,1,0,0,0.782,button_left_test,0,51,51,134,1
,,,,,,,,,,,,,,,,,199567,18,2022-01-28_15h57.06.049,lexical_decision_task_DD_L6,2021.2.3,MacIntel,58.82352941,,,,,,,,,,1.028,1,,,,,,,,,,,,,,,,,,,,,,,-0.307617188,-0.3046875,1,0,0,,,,,,,MELON,C,z,y,./images/MELON.png,,,,,,,,,0,-0.307617188,-0.3046875,1,0,0,1.028,button_left_test,0,52,52,106,1
,,,,,,,,,,,,,,,,,199567,18,2022-01-28_15h57.06.049,lexical_decision_task_DD_L6,2021.2.3,MacIntel,58.82352941,,,,,,,,,,0.813,1,,,,,,,,,,,,,,,,,,,,,,,0.323242188,-0.295898438,1,0,0,,,,,,,PISTOL,HB,m,y,./images/PISTOLHB.png,,,,,,,,,0,0.323242188,-0.295898438,1,0,0,0.813,button_right_test,0,53,53,29,1
,,,,,,,,,,,,,,,,,199567,18,2022-01-28_15h57.06.049,lexical_decision_task_DD_L6,2021.2.3,MacIntel,58.82352941,,,,,,,,,,0.879,1,,,,,,,,,,,,,,,,,,,,,,,-0.268554688,-0.291015625,1,0,0,,,,,,,FINGER,LB,z,y,./images/FINGERLB.png,,,,,,,,,0,-0.268554688,-0.291015625,1,0,0,0.879,button_left_test,0,54,54,87,1
,,,,,,,,,,,,,,,,,199567,18,2022-01-28_15h57.06.049,lexical_decision_task_DD_L6,2021.2.3,MacIntel,58.82352941,,,,,,,,,,0.866,1,,,,,,,,,,,,,,,,,,,,,,,0.346679688,-0.310546875,1,0,0,,,,,,,BUTTER,LB,m,y,./images/BUTTERLB.png,,,,,,,,,0,0.346679688,-0.310546875,1,0,0,0.866,button_right_test,0,55,55,27,1
,,,,,,,,,,,,,,,,,199567,18,2022-01-28_15h57.06.049,lexical_decision_task_DD_L6,2021.2.3,MacIntel,58.82352941,,,,,,,,,,0.698,1,,,,,,,,,,,,,,,,,,,,,,,0.306640625,-0.297851563,1,0,0,,,,,,,MEDAL,HB,m,y,./images/MEDALHB.png,,,,,,,,,0,0.306640625,-0.297851563,1,0,0,0.698,button_right_test,0,56,56,11,1
,,,,,,,,,,,,,,,,,199567,18,2022-01-28_15h57.06.049,lexical_decision_task_DD_L6,2021.2.3,MacIntel,58.82352941,,,,,,,,,,0.882,0,,,,,,,,,,,,,,,,,,,,,,,-0.262695313,-0.32421875,1,0,0,,,,,,,HEATER,HB,m,y,./images/HEATERHB.png,,,,,,,,,0,-0.262695313,-0.32421875,1,0,0,0.882,button_left_test,0,57,57,56,1
,,,,,,,,,,,,,,,,,199567,18,2022-01-28_15h57.06.049,lexical_decision_task_DD_L6,2021.2.3,MacIntel,58.82352941,,,,,,,,,,1.511,0,,,,,,,,,,,,,,,,,,,,,,,-0.260742188,-0.328125,1,0,0,,,,,,,BOXER,C,m,y,./images/BOXER.png,,,,,,,,,0,-0.260742188,-0.328125,1,0,0,1.511,button_left_test,0,58,58,4,1
,,,,,,,,,,,,,,,,,199567,18,2022-01-28_15h57.06.049,lexical_decision_task_DD_L6,2021.2.3,MacIntel,58.82352941,,,,,,,,,,0.795,1,,,,,,,,,,,,,,,,,,,,,,,0.319335938,-0.340820313,1,0,0,,,,,,,BOILER,LB,m,y,./images/BOILERLB.png,,,,,,,,,0,0.319335938,-0.340820313,1,0,0,0.795,button_right_test,0,59,59,36,1
,,,,,,,,,,,,,,,,,199567,18,2022-01-28_15h57.06.049,lexical_decision_task_DD_L6,2021.2.3,MacIntel,58.82352941,,,,,,,,,,0.762,1,,,,,,,,,,,,,,,,,,,,,,,0.284179688,-0.310546875,1,0,0,,,,,,,DRILL,LB,m,y,./images/DRILLLB.png,,,,,,,,,0,0.284179688,-0.310546875,1,0,0,0.762,button_right_test,0,60,60,81,1
,,,,,,,,,,,,,,,,,199567,18,2022-01-28_15h57.06.049,lexical_decision_task_DD_L6,2021.2.3,MacIntel,58.82352941,,,,,,,,,,0.699,1,,,,,,,,,,,,,,,,,,,,,,,0.302734375,-0.306640625,1,0,0,,,,,,,TIGER,C,m,y,./images/TIGER.png,,,,,,,,,0,0.302734375,-0.306640625,1,0,0,0.699,button_right_test,0,61,61,37,1
,,,,,,,,,,,,,,,,,199567,18,2022-01-28_15h57.06.049,lexical_decision_task_DD_L6,2021.2.3,MacIntel,58.82352941,,,,,,,,,,1.045,1,,,,,,,,,,,,,,,,,,,,,,,-0.28515625,-0.32421875,1,0,0,,,,,,,WALRUS,HB,z,y,./images/WALRUSHB.png,,,,,,,,,0,-0.28515625,-0.32421875,1,0,0,1.045,button_left_test,0,62,62,107,1
,,,,,,,,,,,,,,,,,199567,18,2022-01-28_15h57.06.049,lexical_decision_task_DD_L6,2021.2.3,MacIntel,58.82352941,,,,,,,,,,1.095,1,,,,,,,,,,,,,,,,,,,,,,,-0.234375,-0.342773438,1,0,0,,,,,,,SCREW,LB,z,y,./images/SCREWLB.png,,,,,,,,,0,-0.234375,-0.342773438,1,0,0,1.095,button_left_test,0,63,63,108,1
,,,,,,,,,,,,,,,,,199567,18,2022-01-28_15h57.06.049,lexical_decision_task_DD_L6,2021.2.3,MacIntel,58.82352941,,,,,,,,,,1.162,1,,,,,,,,,,,,,,,,,,,,,,,-0.258789063,-0.357421875,1,0,0,,,,,,,PLANK,C,z,y,./images/PLANK.png,,,,,,,,,0,-0.258789063,-0.357421875,1,0,0,1.162,button_left_test,0,64,64,85,1
,,,,,,,,,,,,,,,,,199567,18,2022-01-28_15h57.06.049,lexical_decision_task_DD_L6,2021.2.3,MacIntel,58.82352941,,,,,,,,,,1.03,0,,,,,,,,,,,,,,,,,,,,,,,-0.2265625,-0.37890625,1,0,0,,,,,,,LLAMA,HB,m,y,./images/LLAMAHB.png,,,,,,,,,0,-0.2265625,-0.37890625,1,0,0,1.03,button_left_test,0,65,65,35,1
,,,,,,,,,,,,,,,,,199567,18,2022-01-28_15h57.06.049,lexical_decision_task_DD_L6,2021.2.3,MacIntel,58.82352941,,,,,,,,,,0.694,1,,,,,,,,,,,,,,,,,,,,,,,-0.228515625,-0.359375,1,0,0,,,,,,,PIMPLE,HB,z,y,./images/PIMPLEHB.png,,,,,,,,,0,-0.228515625,-0.359375,1,0,0,0.694,button_left_test,0,66,66,155,1
,,,,,,,,,,,,,,,,,199567,18,2022-01-28_15h57.06.049,lexical_decision_task_DD_L6,2021.2.3,MacIntel,58.82352941,,,,,,,,,,0.931,1,,,,,,,,,,,,,,,,,,,,,,,-0.241210938,-0.370117188,1,0,0,,,,,,,TORCH,HB,z,y,./images/TORCHHB.png,,,,,,,,,0,-0.241210938,-0.370117188,1,0,0,0.931,button_left_test,0,67,67,152,1
,,,,,,,,,,,,,,,,,199567,18,2022-01-28_15h57.06.049,lexical_decision_task_DD_L6,2021.2.3,MacIntel,58.82352941,,,,,,,,,,1.778,1,,,,,,,,,,,,,,,,,,,,,,,0.272460938,-0.33203125,1,0,0,,,,,,,CHERRY,LB,m,y,./images/CHERRYLB.png,,,,,,,,,0,0.272460938,-0.33203125,1,0,0,1.778,button_right_test,0,68,68,54,1
,,,,,,,,,,,,,,,,,199567,18,2022-01-28_15h57.06.049,lexical_decision_task_DD_L6,2021.2.3,MacIntel,58.82352941,,,,,,,,,,0.88,1,,,,,,,,,,,,,,,,,,,,,,,-0.284179688,-0.348632813,1,0,0,,,,,,,KIDNEY,LB,z,y,./images/KIDNEYLB.png,,,,,,,,,0,-0.284179688,-0.348632813,1,0,0,0.88,button_left_test,0,69,69,105,1
,,,,,,,,,,,,,,,,,199567,18,2022-01-28_15h57.06.049,lexical_decision_task_DD_L6,2021.2.3,MacIntel,58.82352941,,,,,,,,,,1.147,1,,,,,,,,,,,,,,,,,,,,,,,-0.235351563,-0.36328125,1,0,0,,,,,,,SHELF,LB,z,y,./images/SHELFLB.png,,,,,,,,,0,-0.235351563,-0.36328125,1,0,0,1.147,button_left_test,0,70,70,123,1
,,,,,,,,,,,,,,,,,199567,18,2022-01-28_15h57.06.049,lexical_decision_task_DD_L6,2021.2.3,MacIntel,58.82352941,,,,,,,,,,0.929,1,,,,,,,,,,,,,,,,,,,,,,,0.334960938,-0.3359375,1,0,0,,,,,,,PEBBLE,C,m,y,./images/PEBBLE.png,,,,,,,,,0,0.334960938,-0.3359375,1,0,0,0.929,button_right_test,0,71,71,82,1
,,,,,,,,,,,,,,,,,199567,18,2022-01-28_15h57.06.049,lexical_decision_task_DD_L6,2021.2.3,MacIntel,58.82352941,,,,,,,,,,0.963,0,,,,,,,,,,,,,,,,,,,,,,,-0.264648438,-0.333007813,1,0,0,,,,,,,HAMMER,LB,m,y,./images/HAMMERLB.png,,,,,,,,,0,-0.264648438,-0.333007813,1,0,0,0.963,button_left_test,0,72,72,75,1
,,,,,,,,,,,,,,,,,199567,18,2022-01-28_15h57.06.049,lexical_decision_task_DD_L6,2021.2.3,MacIntel,58.82352941,,,,,,,,,,0.648,1,,,,,,,,,,,,,,,,,,,,,,,-0.274414063,-0.354492188,1,0,0,,,,,,,BONNET,HB,z,y,./images/BONNETHB.png,,,,,,,,,0,-0.274414063,-0.354492188,1,0,0,0.648,button_left_test,0,73,73,95,1
,,,,,,,,,,,,,,,,,199567,18,2022-01-28_15h57.06.049,lexical_decision_task_DD_L6,2021.2.3,MacIntel,58.82352941,,,,,,,,,,0.862,1,,,,,,,,,,,,,,,,,,,,,,,-0.234375,-0.340820313,1,0,0,,,,,,,GREASE,LB,z,y,./images/GREASELB.png,,,,,,,,,0,-0.234375,-0.340820313,1,0,0,0.862,button_left_test,0,74,74,99,1
,,,,,,,,,,,,,,,,,199567,18,2022-01-28_15h57.06.049,lexical_decision_task_DD_L6,2021.2.3,MacIntel,58.82352941,,,,,,,,,,0.828,1,,,,,,,,,,,,,,,,,,,,,,,0.354492188,-0.314453125,1,0,0,,,,,,,DESERT,C,m,y,./images/DESERT.png,,,,,,,,,0,0.354492188,-0.314453125,1,0,0,0.828,button_right_test,0,75,75,52,1
,,,,,,,,,,,,,,,,,199567,18,2022-01-28_15h57.06.049,lexical_decision_task_DD_L6,2021.2.3,MacIntel,58.82352941,,,,,,,,,,0.63,1,,,,,,,,,,,,,,,,,,,,,,,0.284179688,-0.340820313,1,0,0,,,,,,,CLOWN,C,m,y,./images/CLOWN.png,,,,,,,,,0,0.284179688,-0.340820313,1,0,0,0.63,button_right_test,0,76,76,22,1
,,,,,,,,,,,,,,,,,199567,18,2022-01-28_15h57.06.049,lexical_decision_task_DD_L6,2021.2.3,MacIntel,58.82352941,,,,,,,,,,0.654,1,,,,,,,,,,,,,,,,,,,,,,,0.255859375,-0.330078125,1,0,0,,,,,,,WAGON,C,m,y,./images/WAGON.png,,,,,,,,,0,0.255859375,-0.330078125,1,0,0,0.654,button_right_test,0,77,77,7,1
,,,,,,,,,,,,,,,,,199567,18,2022-01-28_15h57.06.049,lexical_decision_task_DD_L6,2021.2.3,MacIntel,58.82352941,,,,,,,,,,0.682,0,,,,,,,,,,,,,,,,,,,,,,,0.274414063,-0.318359375,1,0,0,,,,,,,BANNER,C,z,y,./images/BANNER.png,,,,,,,,,0,0.274414063,-0.318359375,1,0,0,0.682,button_right_test,0,78,78,136,1
,,,,,,,,,,,,,,,,,199567,18,2022-01-28_15h57.06.049,lexical_decision_task_DD_L6,2021.2.3,MacIntel,58.82352941,,,,,,,,,,1.145,1,,,,,,,,,,,,,,,,,,,,,,,0.336914063,-0.336914063,1,0,0,,,,,,,BAKER,LB,m,y,./images/BAKERLB.png,,,,,,,,,0,0.336914063,-0.336914063,1,0,0,1.145,button_right_test,0,79,79,63,1
,,,,,,,,,,,,,,,,,199567,18,2022-01-28_15h57.06.049,lexical_decision_task_DD_L6,2021.2.3,MacIntel,58.82352941,,,,,,,,,,0.626,1,,,,,,,,,,,,,,,,,,,,,,,0.297851563,-0.333007813,1,0,0,,,,,,,FENCE,HB,m,y,./images/FENCEHB.png,,,,,,,,,0,0.297851563,-0.333007813,1,0,0,0.626,button_right_test,0,80,80,14,1
,,,,,,,,,,,,,,,,,199567,18,2022-01-28_15h57.06.049,lexical_decision_task_DD_L6,2021.2.3,MacIntel,58.82352941,,,,,,,,,,0.913,1,,,,,,,,,,,,,,,,,,,,,,,-0.270507813,-0.327148438,1,0,0,,,,,,,BABOON,C,z,y,./images/BABOON.png,,,,,,,,,0,-0.270507813,-0.327148438,1,0,0,0.913,button_left_test,0,81,81,142,1
,,,,,,,,,,,,,,,,,199567,18,2022-01-28_15h57.06.049,lexical_decision_task_DD_L6,2021.2.3,MacIntel,58.82352941,,,,,,,,,,0.779,1,,,,,,,,,,,,,,,,,,,,,,,-0.250976563,-0.342773438,1,0,0,,,,,,,TWINS,LB,z,y,./images/TWINSLB.png,,,,,,,,,0,-0.250976563,-0.342773438,1,0,0,0.779,button_left_test,0,82,82,144,1
,,,,,,,,,,,,,,,,,199567,18,2022-01-28_15h57.06.049,lexical_decision_task_DD_L6,2021.2.3,MacIntel,58.82352941,,,,,,,,,,0.933,0,,,,,,,,,,,,,,,,,,,,,,,0.014648438,-0.422851563,1,0,0,,,,,,,STORM,LB,z,y,./images/STORMLB.png,break_done_button,,,,,,,,0,0.265625,-0.28515625,1,0,0,0.933,button_right_test,0,83,83,114,1
,,,,,,,,,,,,,,,,,199567,18,2022-01-28_15h57.06.049,lexical_decision_task_DD_L6,2021.2.3,MacIntel,58.82352941,,,,,,,,,,1.032,0,,,,,,,,,,,,,,,,,,,,,,,0.366210938,-0.311523438,1,0,0,,,,,,,PEACH,HB,z,y,./images/PEACHHB.png,,,,,,,,,0,0.366210938,-0.311523438,1,0,0,1.032,button_right_test,0,84,84,119,1
,,,,,,,,,,,,,,,,,199567,18,2022-01-28_15h57.06.049,lexical_decision_task_DD_L6,2021.2.3,MacIntel,58.82352941,,,,,,,,,,1.212,0,,,,,,,,,,,,,,,,,,,,,,,0.33203125,-0.319335938,1,0,0,,,,,,,DRUMS,C,z,y,./images/DRUMS.png,,,,,,,,,0,0.33203125,-0.319335938,1,0,0,1.212,button_right_test,0,85,85,133,1
,,,,,,,,,,,,,,,,,199567,18,2022-01-28_15h57.06.049,lexical_decision_task_DD_L6,2021.2.3,MacIntel,58.82352941,,,,,,,,,,0.929,0,,,,,,,,,,,,,,,,,,,,,,,0.3046875,-0.353515625,1,0,0,,,,,,,WEASEL,HB,z,y,./images/WEASELHB.png,,,,,,,,,0,0.3046875,-0.353515625,1,0,0,0.929,button_right_test,0,86,86,164,1
,,,,,,,,,,,,,,,,,199567,18,2022-01-28_15h57.06.049,lexical_decision_task_DD_L6,2021.2.3,MacIntel,58.82352941,,,,,,,,,,1.112,1,,,,,,,,,,,,,,,,,,,,,,,0.271484375,-0.280273438,1,0,0,,,,,,,BLOKE,LB,m,y,./images/BLOKELB.png,,,,,,,,,0,0.271484375,-0.280273438,1,0,0,1.112,button_right_test,0,87,87,12,1
,,,,,,,,,,,,,,,,,199567,18,2022-01-28_15h57.06.049,lexical_decision_task_DD_L6,2021.2.3,MacIntel,58.82352941,,,,,,,,,,0.682,1,,,,,,,,,,,,,,,,,,,,,,,0.293945313,-0.310546875,1,0,0,,,,,,,MIDGET,C,m,y,./images/MIDGET.png,,,,,,,,,0,0.293945313,-0.310546875,1,0,0,0.682,button_right_test,0,88,88,76,1
,,,,,,,,,,,,,,,,,199567,18,2022-01-28_15h57.06.049,lexical_decision_task_DD_L6,2021.2.3,MacIntel,58.82352941,,,,,,,,,,0.912,1,,,,,,,,,,,,,,,,,,,,,,,-0.245117188,-0.345703125,1,0,0,,,,,,,TULIP,HB,z,y,./images/TULIPHB.png,,,,,,,,,0,-0.245117188,-0.345703125,1,0,0,0.912,button_left_test,0,89,89,92,1
,,,,,,,,,,,,,,,,,199567,18,2022-01-28_15h57.06.049,lexical_decision_task_DD_L6,2021.2.3,MacIntel,58.82352941,,,,,,,,,,1.394,1,,,,,,,,,,,,,,,,,,,,,,,0.293945313,-0.333007813,1,0,0,,,,,,,BUBBLE,HB,m,y,./images/BUBBLEHB.png,,,,,,,,,0,0.293945313,-0.333007813,1,0,0,1.394,button_right_test,0,90,90,71,1
,,,,,,,,,,,,,,,,,199567,18,2022-01-28_15h57.06.049,lexical_decision_task_DD_L6,2021.2.3,MacIntel,58.82352941,,,,,,,,,,0.963,1,,,,,,,,,,,,,,,,,,,,,,,-0.256835938,-0.344726563,1,0,0,,,,,,,SUNSET,C,z,y,./images/SUNSET.png,,,,,,,,,0,-0.256835938,-0.344726563,1,0,0,0.963,button_left_test,0,91,91,166,1
,,,,,,,,,,,,,,,,,199567,18,2022-01-28_15h57.06.049,lexical_decision_task_DD_L6,2021.2.3,MacIntel,58.82352941,,,,,,,,,,0.794,1,,,,,,,,,,,,,,,,,,,,,,,-0.249023438,-0.361328125,1,0,0,,,,,,,BEARD,HB,z,y,./images/BEARDHB.png,,,,,,,,,0,-0.249023438,-0.361328125,1,0,0,0.794,button_left_test,0,92,92,86,1
,,,,,,,,,,,,,,,,,199567,18,2022-01-28_15h57.06.049,lexical_decision_task_DD_L6,2021.2.3,MacIntel,58.82352941,,,,,,,,,,0.98,0,,,,,,,,,,,,,,,,,,,,,,,-0.249023438,-0.373046875,1,0,0,,,,,,,BRUSH,HB,m,y,./images/BRUSHHB.png,,,,,,,,,0,-0.249023438,-0.373046875,1,0,0,0.98,button_left_test,0,93,93,59,1
,,,,,,,,,,,,,,,,,199567,18,2022-01-28_15h57.06.049,lexical_decision_task_DD_L6,2021.2.3,MacIntel,58.82352941,,,,,,,,,,1.013,1,,,,,,,,,,,,,,,,,,,,,,,-0.244140625,-0.326171875,1,0,0,,,,,,,SMOKER,HB,z,y,./images/SMOKERHB.png,,,,,,,,,0,-0.244140625,-0.326171875,1,0,0,1.013,button_left_test,0,94,94,110,1
,,,,,,,,,,,,,,,,,199567,18,2022-01-28_15h57.06.049,lexical_decision_task_DD_L6,2021.2.3,MacIntel,58.82352941,,,,,,,,,,1.231,0,,,,,,,,,,,,,,,,,,,,,,,0.280273438,-0.30078125,1,0,0,,,,,,,MAGGOT,LB,z,y,./images/MAGGOTLB.png,,,,,,,,,0,0.280273438,-0.30078125,1,0,0,1.231,button_right_test,0,95,95,117,1
,,,,,,,,,,,,,,,,,199567,18,2022-01-28_15h57.06.049,lexical_decision_task_DD_L6,2021.2.3,MacIntel,58.82352941,,,,,,,,,,0.943,1,,,,,,,,,,,,,,,,,,,,,,,0.258789063,-0.295898438,1,0,0,,,,,,,VALLEY,HB,m,y,./images/VALLEYHB.png,,,,,,,,,0,0.258789063,-0.295898438,1,0,0,0.943,button_right_test,0,96,96,68,1
,,,,,,,,,,,,,,,,,199567,18,2022-01-28_15h57.06.049,lexical_decision_task_DD_L6,2021.2.3,MacIntel,58.82352941,,,,,,,,,,0.748,1,,,,,,,,,,,,,,,,,,,,,,,0.2890625,-0.319335938,1,0,0,,,,,,,CHAIN,LB,m,y,./images/CHAINLB.png,,,,,,,,,0,0.2890625,-0.319335938,1,0,0,0.748,button_right_test,0,97,97,42,1
,,,,,,,,,,,,,,,,,199567,18,2022-01-28_15h57.06.049,lexical_decision_task_DD_L6,2021.2.3,MacIntel,58.82352941,,,,,,,,,,0.945,1,,,,,,,,,,,,,,,,,,,,,,,-0.252929688,-0.345703125,1,0,0,,,,,,,BURIAL,HB,z,y,./images/BURIALHB.png,,,,,,,,,0,-0.252929688,-0.345703125,1,0,0,0.945,button_left_test,0,98,98,143,1
,,,,,,,,,,,,,,,,,199567,18,2022-01-28_15h57.06.049,lexical_decision_task_DD_L6,2021.2.3,MacIntel,58.82352941,,,,,,,,,,0.779,1,,,,,,,,,,,,,,,,,,,,,,,-0.2421875,-0.354492188,1,0,0,,,,,,,MIRROR,LB,z,y,./images/MIRRORLB.png,,,,,,,,,0,-0.2421875,-0.354492188,1,0,0,0.779,button_left_test,0,99,99,147,1
,,,,,,,,,,,,,,,,,199567,18,2022-01-28_15h57.06.049,lexical_decision_task_DD_L6,2021.2.3,MacIntel,58.82352941,,,,,,,,,,0.896,0,,,,,,,,,,,,,,,,,,,,,,,-0.235351563,-0.357421875,1,0,0,,,,,,,SLOPE,LB,m,y,./images/SLOPELB.png,,,,,,,,,0,-0.235351563,-0.357421875,1,0,0,0.896,button_left_test,0,100,100,30,1
,,,,,,,,,,,,,,,,,199567,18,2022-01-28_15h57.06.049,lexical_decision_task_DD_L6,2021.2.3,MacIntel,58.82352941,,,,,,,,,,0.728,0,,,,,,,,,,,,,,,,,,,,,,,-0.255859375,-0.331054688,1,0,0,,,,,,,GLOVE,C,m,y,./images/GLOVE.png,,,,,,,,,0,-0.255859375,-0.331054688,1,0,0,0.728,button_left_test,0,101,101,73,1
,,,,,,,,,,,,,,,,,199567,18,2022-01-28_15h57.06.049,lexical_decision_task_DD_L6,2021.2.3,MacIntel,58.82352941,,,,,,,,,,0.712,1,,,,,,,,,,,,,,,,,,,,,,,-0.263671875,-0.31640625,1,0,0,,,,,,,PENCE,C,z,y,./images/PENCE.png,,,,,,,,,0,-0.263671875,-0.31640625,1,0,0,0.712,button_left_test,0,102,102,100,1
,,,,,,,,,,,,,,,,,199567,18,2022-01-28_15h57.06.049,lexical_decision_task_DD_L6,2021.2.3,MacIntel,58.82352941,,,,,,,,,,0.563,1,,,,,,,,,,,,,,,,,,,,,,,-0.249023438,-0.345703125,1,0,0,,,,,,,PEARL,C,z,y,./images/PEARL.png,,,,,,,,,0,-0.249023438,-0.345703125,1,0,0,0.563,button_left_test,0,103,103,130,1
,,,,,,,,,,,,,,,,,199567,18,2022-01-28_15h57.06.049,lexical_decision_task_DD_L6,2021.2.3,MacIntel,58.82352941,,,,,,,,,,0.811,1,,,,,,,,,,,,,,,,,,,,,,,0.314453125,-0.30859375,1,0,0,,,,,,,WALNUT,LB,m,y,./images/WALNUTLB.png,,,,,,,,,0,0.314453125,-0.30859375,1,0,0,0.811,button_right_test,0,104,104,0,1
,,,,,,,,,,,,,,,,,199567,18,2022-01-28_15h57.06.049,lexical_decision_task_DD_L6,2021.2.3,MacIntel,58.82352941,,,,,,,,,,0.879,1,,,,,,,,,,,,,,,,,,,,,,,-0.25390625,-0.334960938,1,0,0,,,,,,,LITTER,LB,z,y,./images/LITTERLB.png,,,,,,,,,0,-0.25390625,-0.334960938,1,0,0,0.879,button_left_test,0,105,105,162,1
,,,,,,,,,,,,,,,,,199567,18,2022-01-28_15h57.06.049,lexical_decision_task_DD_L6,2021.2.3,MacIntel,58.82352941,,,,,,,,,,0.881,1,,,,,,,,,,,,,,,,,,,,,,,0.321289063,-0.317382813,1,0,0,,,,,,,CANOE,C,m,y,./images/CANOE.png,,,,,,,,,0,0.321289063,-0.317382813,1,0,0,0.881,button_right_test,0,106,106,58,1
,,,,,,,,,,,,,,,,,199567,18,2022-01-28_15h57.06.049,lexical_decision_task_DD_L6,2021.2.3,MacIntel,58.82352941,,,,,,,,,,0.999,1,,,,,,,,,,,,,,,,,,,,,,,0.315429688,-0.319335938,1,0,0,,,,,,,FLASK,LB,m,y,./images/FLASKLB.png,,,,,,,,,0,0.315429688,-0.319335938,1,0,0,0.999,button_right_test,0,107,107,72,1
,,,,,,,,,,,,,,,,,199567,18,2022-01-28_15h57.06.049,lexical_decision_task_DD_L6,2021.2.3,MacIntel,58.82352941,,,,,,,,,,1.295,1,,,,,,,,,,,,,,,,,,,,,,,-0.266601563,-0.329101563,1,0,0,,,,,,,BELLY,C,z,y,./images/BELLY.png,,,,,,,,,0,-0.266601563,-0.329101563,1,0,0,1.295,button_left_test,0,108,108,94,1
,,,,,,,,,,,,,,,,,199567,18,2022-01-28_15h57.06.049,lexical_decision_task_DD_L6,2021.2.3,MacIntel,58.82352941,,,,,,,,,,0.912,0,,,,,,,,,,,,,,,,,,,,,,,-0.241210938,-0.348632813,1,0,0,,,,,,,SHIELD,LB,m,y,./images/SHIELDLB.png,,,,,,,,,0,-0.241210938,-0.348632813,1,0,0,0.912,button_left_test,0,109,109,48,1
,,,,,,,,,,,,,,,,,199567,18,2022-01-28_15h57.06.049,lexical_decision_task_DD_L6,2021.2.3,MacIntel,58.82352941,,,,,,,,,,1.098,0,,,,,,,,,,,,,,,,,,,,,,,-0.23046875,-0.34765625,1,0,0,,,,,,,SAUCE,LB,m,y,./images/SAUCELB.png,,,,,,,,,0,-0.23046875,-0.34765625,1,0,0,1.098,button_left_test,0,110,110,51,1
,,,,,,,,,,,,,,,,,199567,18,2022-01-28_15h57.06.049,lexical_decision_task_DD_L6,2021.2.3,MacIntel,58.82352941,,,,,,,,,,0.696,0,,,,,,,,,,,,,,,,,,,,,,,-0.24609375,-0.34375,1,0,0,,,,,,,CANDY,LB,m,y,./images/CANDYLB.png,,,,,,,,,0,-0.24609375,-0.34375,1,0,0,0.696,button_left_test,0,111,111,39,1
,,,,,,,,,,,,,,,,,199567,18,2022-01-28_15h57.06.049,lexical_decision_task_DD_L6,2021.2.3,MacIntel,58.82352941,,,,,,,,,,0.73,1,,,,,,,,,,,,,,,,,,,,,,,-0.22265625,-0.340820313,1,0,0,,,,,,,LIZARD,HB,z,y,./images/LIZARDHB.png,,,,,,,,,0,-0.22265625,-0.340820313,1,0,0,0.73,button_left_test,0,112,112,128,1
,,,,,,,,,,,,,,,,,199567,18,2022-01-28_15h57.06.049,lexical_decision_task_DD_L6,2021.2.3,MacIntel,58.82352941,,,,,,,,,,0.844,1,,,,,,,,,,,,,,,,,,,,,,,0.26953125,-0.346679688,1,0,0,,,,,,,CURRY,LB,m,y,./images/CURRYLB.png,,,,,,,,,0,0.26953125,-0.346679688,1,0,0,0.844,button_right_test,0,113,113,60,1
,,,,,,,,,,,,,,,,,199567,18,2022-01-28_15h57.06.049,lexical_decision_task_DD_L6,2021.2.3,MacIntel,58.82352941,,,,,,,,,,0.897,0,,,,,,,,,,,,,,,,,,,,,,,-0.268554688,-0.254882813,1,0,0,,,,,,,FLESH,LB,m,y,./images/FLESHLB.png,,,,,,,,,0,-0.268554688,-0.254882813,1,0,0,0.897,button_left_test,0,114,114,24,1
,,,,,,,,,,,,,,,,,199567,18,2022-01-28_15h57.06.049,lexical_decision_task_DD_L6,2021.2.3,MacIntel,58.82352941,,,,,,,,,,0.698,1,,,,,,,,,,,,,,,,,,,,,,,-0.249023438,-0.368164063,1,0,0,,,,,,,BIRTH,C,z,y,./images/BIRTH.png,,,,,,,,,0,-0.249023438,-0.368164063,1,0,0,0.698,button_left_test,0,115,115,121,1
,,,,,,,,,,,,,,,,,199567,18,2022-01-28_15h57.06.049,lexical_decision_task_DD_L6,2021.2.3,MacIntel,58.82352941,,,,,,,,,,1.225,1,,,,,,,,,,,,,,,,,,,,,,,-0.25,-0.287109375,1,0,0,,,,,,,CRUST,C,z,y,./images/CRUST.png,,,,,,,,,0,-0.25,-0.287109375,1,0,0,1.225,button_left_test,0,116,116,163,1
,,,,,,,,,,,,,,,,,199567,18,2022-01-28_15h57.06.049,lexical_decision_task_DD_L6,2021.2.3,MacIntel,58.82352941,,,,,,,,,,0.962,0,,,,,,,,,,,,,,,,,,,,,,,-0.237304688,-0.331054688,1,0,0,,,,,,,STOOL,C,m,y,./images/STOOL.png,,,,,,,,,0,-0.237304688,-0.331054688,1,0,0,0.962,button_left_test,0,117,117,43,1
,,,,,,,,,,,,,,,,,199567,18,2022-01-28_15h57.06.049,lexical_decision_task_DD_L6,2021.2.3,MacIntel,58.82352941,,,,,,,,,,0.679,1,,,,,,,,,,,,,,,,,,,,,,,-0.224609375,-0.333007813,1,0,0,,,,,,,JELLY,C,z,y,./images/JELLY.png,,,,,,,,,0,-0.224609375,-0.333007813,1,0,0,0.679,button_left_test,0,118,118,148,1
,,,,,,,,,,,,,,,,,199567,18,2022-01-28_15h57.06.049,lexical_decision_task_DD_L6,2021.2.3,MacIntel,58.82352941,,,,,,,,,,1.013,0,,,,,,,,,,,,,,,,,,,,,,,0.25,-0.31640625,1,0,0,,,,,,,PURSE,HB,z,y,./images/PURSEHB.png,,,,,,,,,0,0.25,-0.31640625,1,0,0,1.013,button_right_test,0,119,119,146,1
,,,,,,,,,,,,,,,,,199567,18,2022-01-28_15h57.06.049,lexical_decision_task_DD_L6,2021.2.3,MacIntel,58.82352941,,,,,,,,,,1.029,1,,,,,,,,,,,,,,,,,,,,,,,0.256835938,-0.319335938,1,0,0,,,,,,,FERRY,LB,m,y,./images/FERRYLB.png,,,,,,,,,0,0.256835938,-0.319335938,1,0,0,1.029,button_right_test,0,120,120,57,1
,,,,,,,,,,,,,,,,,199567,18,2022-01-28_15h57.06.049,lexical_decision_task_DD_L6,2021.2.3,MacIntel,58.82352941,,,,,,,,,,0.762,1,,,,,,,,,,,,,,,,,,,,,,,0.239257813,-0.34765625,1,0,0,,,,,,,PILOT,HB,m,y,./images/PILOTHB.png,,,,,,,,,0,0.239257813,-0.34765625,1,0,0,0.762,button_right_test,0,121,121,50,1
,,,,,,,,,,,,,,,,,199567,18,2022-01-28_15h57.06.049,lexical_decision_task_DD_L6,2021.2.3,MacIntel,58.82352941,,,,,,,,,,0.631,1,,,,,,,,,,,,,,,,,,,,,,,0.221679688,-0.337890625,1,0,0,,,,,,,STREAM,HB,m,y,./images/STREAMHB.png,,,,,,,,,0,0.221679688,-0.337890625,1,0,0,0.631,button_right_test,0,122,122,41,1
,,,,,,,,,,,,,,,,,199567,18,2022-01-28_15h57.06.049,lexical_decision_task_DD_L6,2021.2.3,MacIntel,58.82352941,,,,,,,,,,0.712,1,,,,,,,,,,,,,,,,,,,,,,,0.2265625,-0.326171875,1,0,0,,,,,,,SAUNA,LB,m,y,./images/SAUNALB.png,,,,,,,,,0,0.2265625,-0.326171875,1,0,0,0.712,button_right_test,0,123,123,33,1
,,,,,,,,,,,,,,,,,199567,18,2022-01-28_15h57.06.049,lexical_decision_task_DD_L6,2021.2.3,MacIntel,58.82352941,,,,,,,,,,0.93,1,,,,,,,,,,,,,,,,,,,,,,,-0.264648438,-0.33203125,1,0,0,,,,,,,CARPET,HB,z,y,./images/CARPETHB.png,,,,,,,,,0,-0.264648438,-0.33203125,1,0,0,0.93,button_left_test,0,124,124,137,1
,,,,,,,,,,,,,,,,,199567,18,2022-01-28_15h57.06.049,lexical_decision_task_DD_L6,2021.2.3,MacIntel,58.82352941,,,,,,,,,,0.767,1,,,,,,,,,,,,,,,,,,,,,,,-0.076171875,-0.362304688,1,0,0,,,,,,,GRAIN,LB,z,y,./images/GRAINLB.png,break_done_button,,,,,,,,0,-0.258789063,-0.384765625,1,0,0,0.767,button_left_test,0,125,125,159,1
,,,,,,,,,,,,,,,,,199567,18,2022-01-28_15h57.06.049,lexical_decision_task_DD_L6,2021.2.3,MacIntel,58.82352941,,,,,,,,,,0.95,1,,,,,,,,,,,,,,,,,,,,,,,0.28125,-0.3125,1,0,0,,,,,,,BUNNY,C,m,y,./images/BUNNY.png,,,,,,,,,0,0.28125,-0.3125,1,0,0,0.95,button_right_test,0,126,126,13,1
,,,,,,,,,,,,,,,,,199567,18,2022-01-28_15h57.06.049,lexical_decision_task_DD_L6,2021.2.3,MacIntel,58.82352941,,,,,,,,,,0.712,1,,,,,,,,,,,,,,,,,,,,,,,0.23828125,-0.319335938,1,0,0,,,,,,,DONKEY,C,m,y,./images/DONKEY.png,,,,,,,,,0,0.23828125,-0.319335938,1,0,0,0.712,button_right_test,0,127,127,19,1
,,,,,,,,,,,,,,,,,199567,18,2022-01-28_15h57.06.049,lexical_decision_task_DD_L6,2021.2.3,MacIntel,58.82352941,,,,,,,,,,0.796,1,,,,,,,,,,,,,,,,,,,,,,,-0.264648438,-0.33203125,1,0,0,,,,,,,SNACK,C,z,y,./images/SNACK.png,,,,,,,,,0,-0.264648438,-0.33203125,1,0,0,0.796,button_left_test,0,128,128,157,1
