key_resp.keys,key_resp.rt,instr_done_touch.x,instr_done_touch.y,instr_done_touch.leftButton,instr_done_touch.midButton,instr_done_touch.rightButton,instruction_pages.thisRepN,instruction_pages.thisTrialN,instruction_pages.thisN,instruction_pages.thisIndex,instruction_pages.ran,pageN,phase,instruct_text,has_image,instruct_image,participant,age,date,expName,psychopyVersion,OS,frameRate,response.keys,response.corr,response.rt,touch_resp.x,touch_resp.y,touch_resp.leftButton,touch_resp.midButton,touch_resp.rightButton,touch_resp.time,touch_resp.clicked_name,rt,corr,practrials.thisRepN,practrials.thisTrialN,practrials.thisN,practrials.thisIndex,practrials.ran,TrialID,Target,corrAns,end_of_practice_trials_pages.thisRepN,end_of_practice_trials_pages.thisTrialN,end_of_practice_trials_pages.thisN,end_of_practice_trials_pages.thisIndex,end_of_practice_trials_pages.ran,key_resp_2.keys,key_resp_2.corr,key_resp_2.rt,targ_click.x,targ_click.y,targ_click.leftButton,targ_click.midButton,targ_click.rightButton,targ_click.time,targ_click.clicked_name,break_done_touch.x,break_done_touch.y,break_done_touch.leftButton,break_done_touch.midButton,break_done_touch.rightButton,break_done_keyboard.keys,maintrials.thisRepN,maintrials.thisTrialN,maintrials.thisN,maintrials.thisIndex,maintrials.ran,string,blur,study,lex,stim_path,break_done_keyboard.rt,test_instructions.thisRepN,test_instructions.thisTrialN,test_instructions.thisN,test_instructions.thisIndex,test_instructions.ran,instr_done_touch.clicked_name,key_resp_3.keys,key_resp_3.corr,key_resp_3.rt,test_click.x,test_click.y,test_click.leftButton,test_click.midButton,test_click.rightButton,test_click.time,test_click.clicked_name,test_phase.thisRepN,test_phase.thisTrialN,test_phase.thisN,test_phase.thisIndex,test_phase.ran
space,26.704,0.121111111,-0.386666667,0,0,0,0,0,0,0,1,1,instructions,"INSTRUCTIONS
At the start of each trial, look at the plus sign  (+) in the center of the screen.  This tells you that a trial is about to begin and where to look. Second, the plus sign will disappear and a string of letters will appear. Your task is to determine if the string of letters is a word or not. If the item is a word press the M key (on keyboard)  or touch the word button (phone/tablet).  If the item is not a word,  press the  Z key (on keyboard)  or touch the nonword button (on phone/tablet). 
Press the space bar or touch  continue.",0,,199543,20,2022-01-28_14h32.38.502,lexical_decision_task_DD_L2,2021.2.3,MacIntel,62.5,,,,,,,,,,,,,,,,,,,,,,,,,,,,,,,,,,,,,,,,,,,,,,,,,,,,,,,,,,,,,,,,,,,,,,,,,
space,5.285,0.195555556,0,0,0,0,0,1,1,1,1,2,instructions,"If your device has a keyboard, press the 'Z' key for nonwords and the 'M' key for words.





Press the space bar or touch the button below to continue.",0,keyboard-example.gif,199543,20,2022-01-28_14h32.38.502,lexical_decision_task_DD_L2,2021.2.3,MacIntel,62.5,,,,,,,,,,,,,,,,,,,,,,,,,,,,,,,,,,,,,,,,,,,,,,,,,,,,,,,,,,,,,,,,,,,,,,,,,
space,4.254,0.195555556,0,0,0,0,0,2,2,2,1,3,instructions,"If you are using a touchscreen only device, use the buttons on the screen. Do not use the mouse.





Press the space bar or touch the button below to continue.",0,touchscreen-example.gif,199543,20,2022-01-28_14h32.38.502,lexical_decision_task_DD_L2,2021.2.3,MacIntel,62.5,,,,,,,,,,,,,,,,,,,,,,,,,,,,,,,,,,,,,,,,,,,,,,,,,,,,,,,,,,,,,,,,,,,,,,,,,
space,14.346,0.195555556,0,0,0,0,0,3,3,3,1,4,instructions,"It is very important that you respond as quickly and accurately as possible, as each letter string will only be on the screen for two seconds. If you do not respond within this time, the message 'Too slow!' will be displayed and the experiment will progress to the next letter string. The first 20 trials will be practice trials and you will receive feedback on your answers. 

Press the space bar or touch the button below to start the practice trials.",0,,199543,20,2022-01-28_14h32.38.502,lexical_decision_task_DD_L2,2021.2.3,MacIntel,62.5,,,,,,,,,,,,,,,,,,,,,,,,,,,,,,,,,,,,,,,,,,,,,,,,,,,,,,,,,,,,,,,,,,,,,,,,,
,,,,,,,,,,,,,,,,,199543,20,2022-01-28_14h32.38.502,lexical_decision_task_DD_L2,2021.2.3,MacIntel,62.5,z,1,2.23,,,,,,,,2.23,1,0,0,0,9,1,1001,FARINY,z,,,,,,,,,,,,,,,,,,,,,,,,,,,,,,,,,,,,,,,,,,,,,,,,,,,,,
,,,,,,,,,,,,,,,,,199543,20,2022-01-28_14h32.38.502,lexical_decision_task_DD_L2,2021.2.3,MacIntel,62.5,m,0,1.336,,,,,,,,1.336,0,0,1,1,15,1,1001,WHAISE,z,,,,,,,,,,,,,,,,,,,,,,,,,,,,,,,,,,,,,,,,,,,,,,,,,,,,,
,,,,,,,,,,,,,,,,,199543,20,2022-01-28_14h32.38.502,lexical_decision_task_DD_L2,2021.2.3,MacIntel,62.5,z,1,0.841,,,,,,,,0.841,1,0,2,2,14,1,1001,THRALE,z,,,,,,,,,,,,,,,,,,,,,,,,,,,,,,,,,,,,,,,,,,,,,,,,,,,,,
,,,,,,,,,,,,,,,,,199543,20,2022-01-28_14h32.38.502,lexical_decision_task_DD_L2,2021.2.3,MacIntel,62.5,m,1,0.715,,,,,,,,0.715,1,0,3,3,4,1,1001,SQUEAK,m,,,,,,,,,,,,,,,,,,,,,,,,,,,,,,,,,,,,,,,,,,,,,,,,,,,,,
,,,,,,,,,,,,,,,,,199543,20,2022-01-28_14h32.38.502,lexical_decision_task_DD_L2,2021.2.3,MacIntel,62.5,m,1,0.572,,,,,,,,0.572,1,0,4,4,5,1,1001,OBTAIN,m,,,,,,,,,,,,,,,,,,,,,,,,,,,,,,,,,,,,,,,,,,,,,,,,,,,,,
,,,,,,,,,,,,,,,,,199543,20,2022-01-28_14h32.38.502,lexical_decision_task_DD_L2,2021.2.3,MacIntel,62.5,z,1,0.743,,,,,,,,0.743,1,0,5,5,13,1,1001,ROUPET,z,,,,,,,,,,,,,,,,,,,,,,,,,,,,,,,,,,,,,,,,,,,,,,,,,,,,,
,,,,,,,,,,,,,,,,,199543,20,2022-01-28_14h32.38.502,lexical_decision_task_DD_L2,2021.2.3,MacIntel,62.5,m,0,0.945,,,,,,,,0.945,0,0,6,6,11,1,1001,RASHET,z,,,,,,,,,,,,,,,,,,,,,,,,,,,,,,,,,,,,,,,,,,,,,,,,,,,,,
,,,,,,,,,,,,,,,,,199543,20,2022-01-28_14h32.38.502,lexical_decision_task_DD_L2,2021.2.3,MacIntel,62.5,z,1,1.161,,,,,,,,1.161,1,0,7,7,8,1,1001,ASLERT,z,,,,,,,,,,,,,,,,,,,,,,,,,,,,,,,,,,,,,,,,,,,,,,,,,,,,,
,,,,,,,,,,,,,,,,,199543,20,2022-01-28_14h32.38.502,lexical_decision_task_DD_L2,2021.2.3,MacIntel,62.5,m,1,0.591,,,,,,,,0.591,1,0,8,8,6,1,1001,ZOMBIE,m,,,,,,,,,,,,,,,,,,,,,,,,,,,,,,,,,,,,,,,,,,,,,,,,,,,,,
,,,,,,,,,,,,,,,,,199543,20,2022-01-28_14h32.38.502,lexical_decision_task_DD_L2,2021.2.3,MacIntel,62.5,m,1,0.581,,,,,,,,0.581,1,0,9,9,3,1,1001,MATRIX,m,,,,,,,,,,,,,,,,,,,,,,,,,,,,,,,,,,,,,,,,,,,,,,,,,,,,,
,,,,,,,,,,,,,,,,,199543,20,2022-01-28_14h32.38.502,lexical_decision_task_DD_L2,2021.2.3,MacIntel,62.5,m,0,0.818,,,,,,,,0.818,0,0,10,10,10,1,1001,INLADE,z,,,,,,,,,,,,,,,,,,,,,,,,,,,,,,,,,,,,,,,,,,,,,,,,,,,,,
,,,,,,,,,,,,,,,,,199543,20,2022-01-28_14h32.38.502,lexical_decision_task_DD_L2,2021.2.3,MacIntel,62.5,z,1,0.789,,,,,,,,0.789,1,0,11,11,12,1,1001,SPRINY,z,,,,,,,,,,,,,,,,,,,,,,,,,,,,,,,,,,,,,,,,,,,,,,,,,,,,,
,,,,,,,,,,,,,,,,,199543,20,2022-01-28_14h32.38.502,lexical_decision_task_DD_L2,2021.2.3,MacIntel,62.5,m,1,0.424,,,,,,,,0.424,1,0,12,12,1,1,1001,ADJUST,m,,,,,,,,,,,,,,,,,,,,,,,,,,,,,,,,,,,,,,,,,,,,,,,,,,,,,
,,,,,,,,,,,,,,,,,199543,20,2022-01-28_14h32.38.502,lexical_decision_task_DD_L2,2021.2.3,MacIntel,62.5,m,1,0.61,,,,,,,,0.61,1,0,13,13,7,1,1001,VOLUME,m,,,,,,,,,,,,,,,,,,,,,,,,,,,,,,,,,,,,,,,,,,,,,,,,,,,,,
,,,,,,,,,,,,,,,,,199543,20,2022-01-28_14h32.38.502,lexical_decision_task_DD_L2,2021.2.3,MacIntel,62.5,m,1,0.731,,,,,,,,0.731,1,0,14,14,0,1,1001,UTOPIA,m,,,,,,,,,,,,,,,,,,,,,,,,,,,,,,,,,,,,,,,,,,,,,,,,,,,,,
,,,,,,,,,,,,,,,,,199543,20,2022-01-28_14h32.38.502,lexical_decision_task_DD_L2,2021.2.3,MacIntel,62.5,m,1,0.574,,,,,,,,0.574,1,0,15,15,2,1,1001,ALMOND,m,,,,,,,,,,,,,,,,,,,,,,,,,,,,,,,,,,,,,,,,,,,,,,,,,,,,,
space,4.428,0.176666667,0.015555556,0,0,0,,,,,,1,end_of_practice,"You have completed the practice trials. During the experimental trials, you will not receive feedback. 
Before you begin, please ensure that you are in a comfortable and quiet location and will not be disturbed for about 15 minutes, as we cannot use your data if you do not complete all the trials. 
 When you are ready to start the experimental trials, please press space or touch the button below.",,,199543,20,2022-01-28_14h32.38.502,lexical_decision_task_DD_L2,2021.2.3,MacIntel,62.5,,,,,,,,,,,,,,,,,,,,,0,0,0,0,1,,,,,,,,,,,,,,,,,,,,,,,,,,,,,,,,,,,,,,,,,,,,,,,,
,,,,,,,,,,,,,,,,,199543,20,2022-01-28_14h32.38.502,lexical_decision_task_DD_L2,2021.2.3,MacIntel,62.5,,,,,,,,,,,0.503,1,,,,,,,,,,,,,,m,1,0.503,,,,,,,,0.176666667,0.015555556,0,0,0,,0,0,0,35,1,PEACH,C,old,m,./images/PEACH.png,,,,,,,,,,,,,,,,,,,,,,
,,,,,,,,,,,,,,,,,199543,20,2022-01-28_14h32.38.502,lexical_decision_task_DD_L2,2021.2.3,MacIntel,62.5,,,,,,,,,,,0.705,1,,,,,,,,,,,,,,z,1,0.705,,,,,,,,0.176666667,0.015555556,0,0,0,,0,1,1,132,1,SCIFF,C,old,z,./images/SCIFF.png,,,,,,,,,,,,,,,,,,,,,,
,,,,,,,,,,,,,,,,,199543,20,2022-01-28_14h32.38.502,lexical_decision_task_DD_L2,2021.2.3,MacIntel,62.5,,,,,,,,,,,0.706,1,,,,,,,,,,,,,,z,1,0.706,,,,,,,,0.176666667,0.015555556,0,0,0,,0,2,2,111,1,HOSSE,C,old,z,./images/HOSSE.png,,,,,,,,,,,,,,,,,,,,,,
,,,,,,,,,,,,,,,,,199543,20,2022-01-28_14h32.38.502,lexical_decision_task_DD_L2,2021.2.3,MacIntel,62.5,,,,,,,,,,,0.816,1,,,,,,,,,,,,,,m,1,0.816,,,,,,,,0.176666667,0.015555556,0,0,0,,0,3,3,33,1,MAGGOT,HB,old,m,./images/MAGGOTHB.png,,,,,,,,,,,,,,,,,,,,,,
,,,,,,,,,,,,,,,,,199543,20,2022-01-28_14h32.38.502,lexical_decision_task_DD_L2,2021.2.3,MacIntel,62.5,,,,,,,,,,,0.64,1,,,,,,,,,,,,,,z,1,0.64,,,,,,,,0.176666667,0.015555556,0,0,0,,0,4,4,162,1,LEICH,C,old,z,./images/LEICH.png,,,,,,,,,,,,,,,,,,,,,,
,,,,,,,,,,,,,,,,,199543,20,2022-01-28_14h32.38.502,lexical_decision_task_DD_L2,2021.2.3,MacIntel,62.5,,,,,,,,,,,0.614,1,,,,,,,,,,,,,,m,1,0.614,,,,,,,,0.176666667,0.015555556,0,0,0,,0,5,5,51,1,ONION,HB,old,m,./images/ONIONHB.png,,,,,,,,,,,,,,,,,,,,,,
,,,,,,,,,,,,,,,,,199543,20,2022-01-28_14h32.38.502,lexical_decision_task_DD_L2,2021.2.3,MacIntel,62.5,,,,,,,,,,,1.014,1,,,,,,,,,,,,,,z,1,1.014,,,,,,,,0.176666667,0.015555556,0,0,0,,0,6,6,141,1,PLEET,C,old,z,./images/PLEET.png,,,,,,,,,,,,,,,,,,,,,,
,,,,,,,,,,,,,,,,,199543,20,2022-01-28_14h32.38.502,lexical_decision_task_DD_L2,2021.2.3,MacIntel,62.5,,,,,,,,,,,0.683,1,,,,,,,,,,,,,,z,1,0.683,,,,,,,,0.176666667,0.015555556,0,0,0,,0,7,7,87,1,TRING,C,old,z,./images/TRING.png,,,,,,,,,,,,,,,,,,,,,,
,,,,,,,,,,,,,,,,,199543,20,2022-01-28_14h32.38.502,lexical_decision_task_DD_L2,2021.2.3,MacIntel,62.5,,,,,,,,,,,0.539,1,,,,,,,,,,,,,,m,1,0.539,,,,,,,,0.176666667,0.015555556,0,0,0,,0,8,8,2,1,BEARD,C,old,m,./images/BEARD.png,,,,,,,,,,,,,,,,,,,,,,
,,,,,,,,,,,,,,,,,199543,20,2022-01-28_14h32.38.502,lexical_decision_task_DD_L2,2021.2.3,MacIntel,62.5,,,,,,,,,,,1.424,1,,,,,,,,,,,,,,z,1,1.424,,,,,,,,0.176666667,0.015555556,0,0,0,,0,9,9,127,1,NINDY,HB,old,z,./images/NINDYHB.png,,,,,,,,,,,,,,,,,,,,,,
,,,,,,,,,,,,,,,,,199543,20,2022-01-28_14h32.38.502,lexical_decision_task_DD_L2,2021.2.3,MacIntel,62.5,,,,,,,,,,,0.588,1,,,,,,,,,,,,,,m,1,0.588,,,,,,,,0.176666667,0.015555556,0,0,0,,0,10,10,4,1,MUSCLE,LB,old,m,./images/MUSCLELB.png,,,,,,,,,,,,,,,,,,,,,,
,,,,,,,,,,,,,,,,,199543,20,2022-01-28_14h32.38.502,lexical_decision_task_DD_L2,2021.2.3,MacIntel,62.5,,,,,,,,,,,0.518,1,,,,,,,,,,,,,,z,1,0.518,,,,,,,,0.176666667,0.015555556,0,0,0,,0,11,11,165,1,TROWN,C,old,z,./images/TROWN.png,,,,,,,,,,,,,,,,,,,,,,
,,,,,,,,,,,,,,,,,199543,20,2022-01-28_14h32.38.502,lexical_decision_task_DD_L2,2021.2.3,MacIntel,62.5,,,,,,,,,,,0.562,0,,,,,,,,,,,,,,m,0,0.562,,,,,,,,0.176666667,0.015555556,0,0,0,,0,12,12,107,1,FASKS,LB,old,z,./images/FASKSLB.png,,,,,,,,,,,,,,,,,,,,,,
,,,,,,,,,,,,,,,,,199543,20,2022-01-28_14h32.38.502,lexical_decision_task_DD_L2,2021.2.3,MacIntel,62.5,,,,,,,,,,,0.967,1,,,,,,,,,,,,,,z,1,0.967,,,,,,,,0.176666667,0.015555556,0,0,0,,0,13,13,139,1,BLEAR,HB,old,z,./images/BLEARHB.png,,,,,,,,,,,,,,,,,,,,,,
,,,,,,,,,,,,,,,,,199543,20,2022-01-28_14h32.38.502,lexical_decision_task_DD_L2,2021.2.3,MacIntel,62.5,,,,,,,,,,,0.521,1,,,,,,,,,,,,,,m,1,0.521,,,,,,,,0.176666667,0.015555556,0,0,0,,0,14,14,83,1,JUNGLE,C,old,m,./images/JUNGLE.png,,,,,,,,,,,,,,,,,,,,,,
,,,,,,,,,,,,,,,,,199543,20,2022-01-28_14h32.38.502,lexical_decision_task_DD_L2,2021.2.3,MacIntel,62.5,,,,,,,,,,,0.693,1,,,,,,,,,,,,,,z,1,0.693,,,,,,,,0.176666667,0.015555556,0,0,0,,0,15,15,110,1,CRUNK,LB,old,z,./images/CRUNKLB.png,,,,,,,,,,,,,,,,,,,,,,
,,,,,,,,,,,,,,,,,199543,20,2022-01-28_14h32.38.502,lexical_decision_task_DD_L2,2021.2.3,MacIntel,62.5,,,,,,,,,,,0.749,0,,,,,,,,,,,,,,z,0,0.749,,,,,,,,0.176666667,0.015555556,0,0,0,,0,16,16,72,1,NOOSE,HB,old,m,./images/NOOSEHB.png,,,,,,,,,,,,,,,,,,,,,,
,,,,,,,,,,,,,,,,,199543,20,2022-01-28_14h32.38.502,lexical_decision_task_DD_L2,2021.2.3,MacIntel,62.5,,,,,,,,,,,0.539,1,,,,,,,,,,,,,,m,1,0.539,,,,,,,,0.176666667,0.015555556,0,0,0,,0,17,17,63,1,MIRROR,HB,old,m,./images/MIRRORHB.png,,,,,,,,,,,,,,,,,,,,,,
,,,,,,,,,,,,,,,,,199543,20,2022-01-28_14h32.38.502,lexical_decision_task_DD_L2,2021.2.3,MacIntel,62.5,,,,,,,,,,,0.657,1,,,,,,,,,,,,,,m,1,0.657,,,,,,,,0.176666667,0.015555556,0,0,0,,0,18,18,18,1,JAGUAR,HB,old,m,./images/JAGUARHB.png,,,,,,,,,,,,,,,,,,,,,,
,,,,,,,,,,,,,,,,,199543,20,2022-01-28_14h32.38.502,lexical_decision_task_DD_L2,2021.2.3,MacIntel,62.5,,,,,,,,,,,0.565,1,,,,,,,,,,,,,,z,1,0.565,,,,,,,,0.176666667,0.015555556,0,0,0,,0,19,19,95,1,HANTY,LB,old,z,./images/HANTYLB.png,,,,,,,,,,,,,,,,,,,,,,
,,,,,,,,,,,,,,,,,199543,20,2022-01-28_14h32.38.502,lexical_decision_task_DD_L2,2021.2.3,MacIntel,62.5,,,,,,,,,,,0.638,1,,,,,,,,,,,,,,z,1,0.638,,,,,,,,0.176666667,0.015555556,0,0,0,,0,20,20,114,1,RIKES,C,old,z,./images/RIKES.png,,,,,,,,,,,,,,,,,,,,,,
,,,,,,,,,,,,,,,,,199543,20,2022-01-28_14h32.38.502,lexical_decision_task_DD_L2,2021.2.3,MacIntel,62.5,,,,,,,,,,,0.517,1,,,,,,,,,,,,,,m,1,0.517,,,,,,,,0.176666667,0.015555556,0,0,0,,0,21,21,53,1,CARPET,C,old,m,./images/CARPET.png,,,,,,,,,,,,,,,,,,,,,,
,,,,,,,,,,,,,,,,,199543,20,2022-01-28_14h32.38.502,lexical_decision_task_DD_L2,2021.2.3,MacIntel,62.5,,,,,,,,,,,0.58,1,,,,,,,,,,,,,,m,1,0.58,,,,,,,,0.176666667,0.015555556,0,0,0,,0,22,22,45,1,KITTEN,HB,old,m,./images/KITTENHB.png,,,,,,,,,,,,,,,,,,,,,,
,,,,,,,,,,,,,,,,,199543,20,2022-01-28_14h32.38.502,lexical_decision_task_DD_L2,2021.2.3,MacIntel,62.5,,,,,,,,,,,0.669,1,,,,,,,,,,,,,,z,1,0.669,,,,,,,,0.176666667,0.015555556,0,0,0,,0,23,23,118,1,BAVEL,HB,old,z,./images/BAVELHB.png,,,,,,,,,,,,,,,,,,,,,,
,,,,,,,,,,,,,,,,,199543,20,2022-01-28_14h32.38.502,lexical_decision_task_DD_L2,2021.2.3,MacIntel,62.5,,,,,,,,,,,0.512,1,,,,,,,,,,,,,,m,1,0.512,,,,,,,,0.176666667,0.015555556,0,0,0,,0,24,24,73,1,SNACK,LB,old,m,./images/SNACKLB.png,,,,,,,,,,,,,,,,,,,,,,
,,,,,,,,,,,,,,,,,199543,20,2022-01-28_14h32.38.502,lexical_decision_task_DD_L2,2021.2.3,MacIntel,62.5,,,,,,,,,,,0.467,1,,,,,,,,,,,,,,m,1,0.467,,,,,,,,0.176666667,0.015555556,0,0,0,,0,25,25,1,1,PLANK,LB,old,m,./images/PLANKLB.png,,,,,,,,,,,,,,,,,,,,,,
,,,,,,,,,,,,,,,,,199543,20,2022-01-28_14h32.38.502,lexical_decision_task_DD_L2,2021.2.3,MacIntel,62.5,,,,,,,,,,,0.618,1,,,,,,,,,,,,,,z,1,0.618,,,,,,,,0.176666667,0.015555556,0,0,0,,0,26,26,113,1,LINEW,LB,old,z,./images/LINEWLB.png,,,,,,,,,,,,,,,,,,,,,,
,,,,,,,,,,,,,,,,,199543,20,2022-01-28_14h32.38.502,lexical_decision_task_DD_L2,2021.2.3,MacIntel,62.5,,,,,,,,,,,0.625,1,,,,,,,,,,,,,,z,1,0.625,,,,,,,,0.176666667,0.015555556,0,0,0,,0,27,27,112,1,MYING,HB,old,z,./images/MYINGHB.png,,,,,,,,,,,,,,,,,,,,,,
,,,,,,,,,,,,,,,,,199543,20,2022-01-28_14h32.38.502,lexical_decision_task_DD_L2,2021.2.3,MacIntel,62.5,,,,,,,,,,,0.713,1,,,,,,,,,,,,,,z,1,0.713,,,,,,,,0.176666667,0.015555556,0,0,0,,0,28,28,129,1,PRANS,C,old,z,./images/PRANS.png,,,,,,,,,,,,,,,,,,,,,,
,,,,,,,,,,,,,,,,,199543,20,2022-01-28_14h32.38.502,lexical_decision_task_DD_L2,2021.2.3,MacIntel,62.5,,,,,,,,,,,0.699,1,,,,,,,,,,,,,,z,1,0.699,,,,,,,,0.176666667,0.015555556,0,0,0,,0,29,29,94,1,BLANS,HB,old,z,./images/BLANSHB.png,,,,,,,,,,,,,,,,,,,,,,
,,,,,,,,,,,,,,,,,199543,20,2022-01-28_14h32.38.502,lexical_decision_task_DD_L2,2021.2.3,MacIntel,62.5,,,,,,,,,,,0.507,1,,,,,,,,,,,,,,m,1,0.507,,,,,,,,0.176666667,0.015555556,0,0,0,,0,30,30,49,1,DRUMS,LB,old,m,./images/DRUMSLB.png,,,,,,,,,,,,,,,,,,,,,,
,,,,,,,,,,,,,,,,,199543,20,2022-01-28_14h32.38.502,lexical_decision_task_DD_L2,2021.2.3,MacIntel,62.5,,,,,,,,,,,0.504,1,,,,,,,,,,,,,,m,1,0.504,,,,,,,,0.176666667,0.015555556,0,0,0,,0,31,31,61,1,CANDLE,LB,old,m,./images/CANDLELB.png,,,,,,,,,,,,,,,,,,,,,,
,,,,,,,,,,,,,,,,,199543,20,2022-01-28_14h32.38.502,lexical_decision_task_DD_L2,2021.2.3,MacIntel,62.5,,,,,,,,,,,0.72,0,,,,,,,,,,,,,,z,0,0.72,,,,,,,,0.176666667,0.015555556,0,0,0,,0,32,32,34,1,CANYON,LB,old,m,./images/CANYONLB.png,,,,,,,,,,,,,,,,,,,,,,
,,,,,,,,,,,,,,,,,199543,20,2022-01-28_14h32.38.502,lexical_decision_task_DD_L2,2021.2.3,MacIntel,62.5,,,,,,,,,,,0.699,1,,,,,,,,,,,,,,z,1,0.699,,,,,,,,0.176666667,0.015555556,0,0,0,,0,33,33,150,1,NOOLS,C,old,z,./images/NOOLS.png,,,,,,,,,,,,,,,,,,,,,,
,,,,,,,,,,,,,,,,,199543,20,2022-01-28_14h32.38.502,lexical_decision_task_DD_L2,2021.2.3,MacIntel,62.5,,,,,,,,,,,0.556,1,,,,,,,,,,,,,,m,1,0.556,,,,,,,,0.176666667,0.015555556,0,0,0,,0,34,34,0,1,TOMATO,HB,old,m,./images/TOMATOHB.png,,,,,,,,,,,,,,,,,,,,,,
,,,,,,,,,,,,,,,,,199543,20,2022-01-28_14h32.38.502,lexical_decision_task_DD_L2,2021.2.3,MacIntel,62.5,,,,,,,,,,,0.594,1,,,,,,,,,,,,,,z,1,0.594,,,,,,,,0.176666667,0.015555556,0,0,0,,0,35,35,101,1,GLEET,LB,old,z,./images/GLEETLB.png,,,,,,,,,,,,,,,,,,,,,,
,,,,,,,,,,,,,,,,,199543,20,2022-01-28_14h32.38.502,lexical_decision_task_DD_L2,2021.2.3,MacIntel,62.5,,,,,,,,,,,0.629,1,,,,,,,,,,,,,,m,1,0.629,,,,,,,,0.176666667,0.015555556,0,0,0,,0,36,36,60,1,TWINS,HB,old,m,./images/TWINSHB.png,,,,,,,,,,,,,,,,,,,,,,
,,,,,,,,,,,,,,,,,199543,20,2022-01-28_14h32.38.502,lexical_decision_task_DD_L2,2021.2.3,MacIntel,62.5,,,,,,,,,,,0.541,0,,,,,,,,,,,,,,z,0,0.541,,,,,,,,0.176666667,0.015555556,0,0,0,,0,37,37,17,1,SKIING,C,old,m,./images/SKIING.png,,,,,,,,,,,,,,,,,,,,,,
,,,,,,,,,,,,,,,,,199543,20,2022-01-28_14h32.38.502,lexical_decision_task_DD_L2,2021.2.3,MacIntel,62.5,,,,,,,,,,,0.589,1,,,,,,,,,,,,,,z,1,0.589,,,,,,,,0.176666667,0.015555556,0,0,0,,0,38,38,123,1,SEDGE,C,old,z,./images/SEDGE.png,,,,,,,,,,,,,,,,,,,,,,
,,,,,,,,,,,,,,,,,199543,20,2022-01-28_14h32.38.502,lexical_decision_task_DD_L2,2021.2.3,MacIntel,62.5,,,,,,,,,,,0.538,1,,,,,,,,,,,,,,z,1,0.538,,,,,,,,0.176666667,0.015555556,0,0,0,,0,39,39,108,1,GRUET,C,old,z,./images/GRUET.png,,,,,,,,,,,,,,,,,,,,,,
,,,,,,,,,,,,,,,,,199543,20,2022-01-28_14h32.38.502,lexical_decision_task_DD_L2,2021.2.3,MacIntel,62.5,,,,,,,,,,,0.449,1,,,,,,,,,,,,,,m,1,0.449,,,,,,,,0.176666667,0.015555556,0,0,0,,0,40,40,44,1,LIZARD,C,old,m,./images/LIZARD.png,,,,,,,,,,,,,,,,,,,,,,
,,,,,,,,,,,,,,,,,199543,20,2022-01-28_14h32.38.502,lexical_decision_task_DD_L2,2021.2.3,MacIntel,62.5,,,,,,,,,,,0.654,1,,,,,,,,,,,,,,m,1,0.654,,,,,,,,0.176666667,0.015555556,0,0,0,space,0,41,41,36,1,THROAT,HB,old,m,./images/THROATHB.png,6.51,,,,,,,,,,,,,,,,,,,,,
,,,,,,,,,,,,,,,,,199543,20,2022-01-28_14h32.38.502,lexical_decision_task_DD_L2,2021.2.3,MacIntel,62.5,,,,,,,,,,,0.624,1,,,,,,,,,,,,,,z,1,0.624,,,,,,,,0.176666667,0.015555556,0,0,0,,0,42,42,120,1,RINED,C,old,z,./images/RINED.png,,,,,,,,,,,,,,,,,,,,,,
,,,,,,,,,,,,,,,,,199543,20,2022-01-28_14h32.38.502,lexical_decision_task_DD_L2,2021.2.3,MacIntel,62.5,,,,,,,,,,,0.863,0,,,,,,,,,,,,,,m,0,0.863,,,,,,,,0.176666667,0.015555556,0,0,0,,0,43,43,163,1,GAMBA,HB,old,z,./images/GAMBAHB.png,,,,,,,,,,,,,,,,,,,,,,
,,,,,,,,,,,,,,,,,199543,20,2022-01-28_14h32.38.502,lexical_decision_task_DD_L2,2021.2.3,MacIntel,62.5,,,,,,,,,,,0.628,1,,,,,,,,,,,,,,m,1,0.628,,,,,,,,0.176666667,0.015555556,0,0,0,,0,44,44,79,1,CRUST,LB,old,m,./images/CRUSTLB.png,,,,,,,,,,,,,,,,,,,,,,
,,,,,,,,,,,,,,,,,199543,20,2022-01-28_14h32.38.502,lexical_decision_task_DD_L2,2021.2.3,MacIntel,62.5,,,,,,,,,,,0.473,1,,,,,,,,,,,,,,z,1,0.473,,,,,,,,0.176666667,0.015555556,0,0,0,,0,45,45,156,1,HIXES,C,old,z,./images/HIXES.png,,,,,,,,,,,,,,,,,,,,,,
,,,,,,,,,,,,,,,,,199543,20,2022-01-28_14h32.38.502,lexical_decision_task_DD_L2,2021.2.3,MacIntel,62.5,,,,,,,,,,,0.501,1,,,,,,,,,,,,,,m,1,0.501,,,,,,,,0.176666667,0.015555556,0,0,0,,0,46,46,52,1,BANNER,LB,old,m,./images/BANNERLB.png,,,,,,,,,,,,,,,,,,,,,,
,,,,,,,,,,,,,,,,,199543,20,2022-01-28_14h32.38.502,lexical_decision_task_DD_L2,2021.2.3,MacIntel,62.5,,,,,,,,,,,0.612,1,,,,,,,,,,,,,,m,1,0.612,,,,,,,,0.176666667,0.015555556,0,0,0,,0,47,47,58,1,BABOON,LB,old,m,./images/BABOONLB.png,,,,,,,,,,,,,,,,,,,,,,
,,,,,,,,,,,,,,,,,199543,20,2022-01-28_14h32.38.502,lexical_decision_task_DD_L2,2021.2.3,MacIntel,62.5,,,,,,,,,,,0.997,1,,,,,,,,,,,,,,z,1,0.997,,,,,,,,0.176666667,0.015555556,0,0,0,,0,48,48,85,1,CHULK,HB,old,z,./images/CHULKHB.png,,,,,,,,,,,,,,,,,,,,,,
,,,,,,,,,,,,,,,,,199543,20,2022-01-28_14h32.38.502,lexical_decision_task_DD_L2,2021.2.3,MacIntel,62.5,,,,,,,,,,,0.623,1,,,,,,,,,,,,,,z,1,0.623,,,,,,,,0.176666667,0.015555556,0,0,0,,0,49,49,151,1,TINKY,HB,old,z,./images/TINKYHB.png,,,,,,,,,,,,,,,,,,,,,,
,,,,,,,,,,,,,,,,,199543,20,2022-01-28_14h32.38.502,lexical_decision_task_DD_L2,2021.2.3,MacIntel,62.5,,,,,,,,,,,0.749,1,,,,,,,,,,,,,,z,1,0.749,,,,,,,,0.176666667,0.015555556,0,0,0,,0,50,50,89,1,DRIEK,LB,old,z,./images/DRIEKLB.png,,,,,,,,,,,,,,,,,,,,,,
,,,,,,,,,,,,,,,,,199543,20,2022-01-28_14h32.38.502,lexical_decision_task_DD_L2,2021.2.3,MacIntel,62.5,,,,,,,,,,,0.671,1,,,,,,,,,,,,,,z,1,0.671,,,,,,,,0.176666667,0.015555556,0,0,0,,0,51,51,103,1,FLORT,HB,old,z,./images/FLORTHB.png,,,,,,,,,,,,,,,,,,,,,,
,,,,,,,,,,,,,,,,,199543,20,2022-01-28_14h32.38.502,lexical_decision_task_DD_L2,2021.2.3,MacIntel,62.5,,,,,,,,,,,0.506,1,,,,,,,,,,,,,,z,1,0.506,,,,,,,,0.176666667,0.015555556,0,0,0,,0,52,52,105,1,MOKER,C,old,z,./images/MOKER.png,,,,,,,,,,,,,,,,,,,,,,
,,,,,,,,,,,,,,,,,199543,20,2022-01-28_14h32.38.502,lexical_decision_task_DD_L2,2021.2.3,MacIntel,62.5,,,,,,,,,,,0.629,1,,,,,,,,,,,,,,m,1,0.629,,,,,,,,0.176666667,0.015555556,0,0,0,,0,53,53,68,1,TORCH,C,old,m,./images/TORCH.png,,,,,,,,,,,,,,,,,,,,,,
,,,,,,,,,,,,,,,,,199543,20,2022-01-28_14h32.38.502,lexical_decision_task_DD_L2,2021.2.3,MacIntel,62.5,,,,,,,,,,,0.54,1,,,,,,,,,,,,,,z,1,0.54,,,,,,,,0.176666667,0.015555556,0,0,0,,0,54,54,158,1,EGECT,LB,old,z,./images/EGECTLB.png,,,,,,,,,,,,,,,,,,,,,,
,,,,,,,,,,,,,,,,,199543,20,2022-01-28_14h32.38.502,lexical_decision_task_DD_L2,2021.2.3,MacIntel,62.5,,,,,,,,,,,0.678,1,,,,,,,,,,,,,,m,1,0.678,,,,,,,,0.176666667,0.015555556,0,0,0,,0,55,55,75,1,GRAIN,HB,old,m,./images/GRAINHB.png,,,,,,,,,,,,,,,,,,,,,,
,,,,,,,,,,,,,,,,,199543,20,2022-01-28_14h32.38.502,lexical_decision_task_DD_L2,2021.2.3,MacIntel,62.5,,,,,,,,,,,0.649,1,,,,,,,,,,,,,,m,1,0.649,,,,,,,,0.176666667,0.015555556,0,0,0,,0,56,56,78,1,LITTER,HB,old,m,./images/LITTERHB.png,,,,,,,,,,,,,,,,,,,,,,
,,,,,,,,,,,,,,,,,199543,20,2022-01-28_14h32.38.502,lexical_decision_task_DD_L2,2021.2.3,MacIntel,62.5,,,,,,,,,,,0.534,1,,,,,,,,,,,,,,m,1,0.534,,,,,,,,0.176666667,0.015555556,0,0,0,,0,57,57,37,1,BIRTH,LB,old,m,./images/BIRTHLB.png,,,,,,,,,,,,,,,,,,,,,,
,,,,,,,,,,,,,,,,,199543,20,2022-01-28_14h32.38.502,lexical_decision_task_DD_L2,2021.2.3,MacIntel,62.5,,,,,,,,,,,0.681,1,,,,,,,,,,,,,,z,1,0.681,,,,,,,,0.176666667,0.015555556,0,0,0,,0,58,58,131,1,NACES,LB,old,z,./images/NACESLB.png,,,,,,,,,,,,,,,,,,,,,,
,,,,,,,,,,,,,,,,,199543,20,2022-01-28_14h32.38.502,lexical_decision_task_DD_L2,2021.2.3,MacIntel,62.5,,,,,,,,,,,0.556,1,,,,,,,,,,,,,,m,1,0.556,,,,,,,,0.176666667,0.015555556,0,0,0,,0,59,59,11,1,BONNET,C,old,m,./images/BONNET.png,,,,,,,,,,,,,,,,,,,,,,
,,,,,,,,,,,,,,,,,199543,20,2022-01-28_14h32.38.502,lexical_decision_task_DD_L2,2021.2.3,MacIntel,62.5,,,,,,,,,,,0.646,1,,,,,,,,,,,,,,z,1,0.646,,,,,,,,0.176666667,0.015555556,0,0,0,,0,60,60,99,1,BACKY,C,old,z,./images/BACKY.png,,,,,,,,,,,,,,,,,,,,,,
,,,,,,,,,,,,,,,,,199543,20,2022-01-28_14h32.38.502,lexical_decision_task_DD_L2,2021.2.3,MacIntel,62.5,,,,,,,,,,,0.631,1,,,,,,,,,,,,,,m,1,0.631,,,,,,,,0.176666667,0.015555556,0,0,0,,0,61,61,6,1,SQUARE,HB,old,m,./images/SQUAREHB.png,,,,,,,,,,,,,,,,,,,,,,
,,,,,,,,,,,,,,,,,199543,20,2022-01-28_14h32.38.502,lexical_decision_task_DD_L2,2021.2.3,MacIntel,62.5,,,,,,,,,,,0.65,1,,,,,,,,,,,,,,m,1,0.65,,,,,,,,0.176666667,0.015555556,0,0,0,,0,62,62,21,1,KIDNEY,HB,old,m,./images/KIDNEYHB.png,,,,,,,,,,,,,,,,,,,,,,
,,,,,,,,,,,,,,,,,199543,20,2022-01-28_14h32.38.502,lexical_decision_task_DD_L2,2021.2.3,MacIntel,62.5,,,,,,,,,,,0.601,1,,,,,,,,,,,,,,z,1,0.601,,,,,,,,0.176666667,0.015555556,0,0,0,,0,63,63,104,1,GITTY,LB,old,z,./images/GITTYLB.png,,,,,,,,,,,,,,,,,,,,,,
,,,,,,,,,,,,,,,,,199543,20,2022-01-28_14h32.38.502,lexical_decision_task_DD_L2,2021.2.3,MacIntel,62.5,,,,,,,,,,,0.533,1,,,,,,,,,,,,,,m,1,0.533,,,,,,,,0.176666667,0.015555556,0,0,0,,0,64,64,40,1,SWING,LB,old,m,./images/SWINGLB.png,,,,,,,,,,,,,,,,,,,,,,
,,,,,,,,,,,,,,,,,199543,20,2022-01-28_14h32.38.502,lexical_decision_task_DD_L2,2021.2.3,MacIntel,62.5,,,,,,,,,,,0.58,1,,,,,,,,,,,,,,m,1,0.58,,,,,,,,0.176666667,0.015555556,0,0,0,,0,65,65,14,1,PICKLE,C,old,m,./images/PICKLE.png,,,,,,,,,,,,,,,,,,,,,,
,,,,,,,,,,,,,,,,,199543,20,2022-01-28_14h32.38.502,lexical_decision_task_DD_L2,2021.2.3,MacIntel,62.5,,,,,,,,,,,1.072,1,,,,,,,,,,,,,,m,1,1.072,,,,,,,,0.176666667,0.015555556,0,0,0,,0,66,66,56,1,PACKET,C,old,m,./images/PACKET.png,,,,,,,,,,,,,,,,,,,,,,
,,,,,,,,,,,,,,,,,199543,20,2022-01-28_14h32.38.502,lexical_decision_task_DD_L2,2021.2.3,MacIntel,62.5,,,,,,,,,,,0.674,1,,,,,,,,,,,,,,z,1,0.674,,,,,,,,0.176666667,0.015555556,0,0,0,,0,67,67,144,1,NAIRY,C,old,z,./images/NAIRY.png,,,,,,,,,,,,,,,,,,,,,,
,,,,,,,,,,,,,,,,,199543,20,2022-01-28_14h32.38.502,lexical_decision_task_DD_L2,2021.2.3,MacIntel,62.5,,,,,,,,,,,0.472,1,,,,,,,,,,,,,,m,1,0.472,,,,,,,,0.176666667,0.015555556,0,0,0,,0,68,68,62,1,PURSE,C,old,m,./images/PURSE.png,,,,,,,,,,,,,,,,,,,,,,
,,,,,,,,,,,,,,,,,199543,20,2022-01-28_14h32.38.502,lexical_decision_task_DD_L2,2021.2.3,MacIntel,62.5,,,,,,,,,,,0.546,1,,,,,,,,,,,,,,m,1,0.546,,,,,,,,0.176666667,0.015555556,0,0,0,,0,69,69,7,1,PAINT,LB,old,m,./images/PAINTLB.png,,,,,,,,,,,,,,,,,,,,,,
,,,,,,,,,,,,,,,,,199543,20,2022-01-28_14h32.38.502,lexical_decision_task_DD_L2,2021.2.3,MacIntel,62.5,,,,,,,,,,,0.763,1,,,,,,,,,,,,,,m,1,0.763,,,,,,,,0.176666667,0.015555556,0,0,0,,0,70,70,15,1,GREASE,HB,old,m,./images/GREASEHB.png,,,,,,,,,,,,,,,,,,,,,,
,,,,,,,,,,,,,,,,,199543,20,2022-01-28_14h32.38.502,lexical_decision_task_DD_L2,2021.2.3,MacIntel,62.5,,,,,,,,,,,0.481,1,,,,,,,,,,,,,,m,1,0.481,,,,,,,,0.176666667,0.015555556,0,0,0,,0,71,71,57,1,MOOSE,HB,old,m,./images/MOOSEHB.png,,,,,,,,,,,,,,,,,,,,,,
,,,,,,,,,,,,,,,,,199543,20,2022-01-28_14h32.38.502,lexical_decision_task_DD_L2,2021.2.3,MacIntel,62.5,,,,,,,,,,,0.464,0,,,,,,,,,,,,,,m,0,0.464,,,,,,,,0.176666667,0.015555556,0,0,0,,0,72,72,124,1,TUNCH,HB,old,z,./images/TUNCHHB.png,,,,,,,,,,,,,,,,,,,,,,
,,,,,,,,,,,,,,,,,199543,20,2022-01-28_14h32.38.502,lexical_decision_task_DD_L2,2021.2.3,MacIntel,62.5,,,,,,,,,,,0.563,1,,,,,,,,,,,,,,m,1,0.563,,,,,,,,0.176666667,0.015555556,0,0,0,,0,73,73,38,1,LADDER,C,old,m,./images/LADDER.png,,,,,,,,,,,,,,,,,,,,,,
,,,,,,,,,,,,,,,,,199543,20,2022-01-28_14h32.38.502,lexical_decision_task_DD_L2,2021.2.3,MacIntel,62.5,,,,,,,,,,,0.656,1,,,,,,,,,,,,,,z,1,0.656,,,,,,,,0.176666667,0.015555556,0,0,0,,0,74,74,125,1,MOOKY,LB,old,z,./images/MOOKYLB.png,,,,,,,,,,,,,,,,,,,,,,
,,,,,,,,,,,,,,,,,199543,20,2022-01-28_14h32.38.502,lexical_decision_task_DD_L2,2021.2.3,MacIntel,62.5,,,,,,,,,,,1.385,1,,,,,,,,,,,,,,z,1,1.385,,,,,,,,0.176666667,0.015555556,0,0,0,,0,75,75,91,1,SHENS,HB,old,z,./images/SHENSHB.png,,,,,,,,,,,,,,,,,,,,,,
,,,,,,,,,,,,,,,,,199543,20,2022-01-28_14h32.38.502,lexical_decision_task_DD_L2,2021.2.3,MacIntel,62.5,,,,,,,,,,,0.614,1,,,,,,,,,,,,,,z,1,0.614,,,,,,,,0.176666667,0.015555556,0,0,0,,0,76,76,153,1,CLUPS,C,old,z,./images/CLUPS.png,,,,,,,,,,,,,,,,,,,,,,
,,,,,,,,,,,,,,,,,199543,20,2022-01-28_14h32.38.502,lexical_decision_task_DD_L2,2021.2.3,MacIntel,62.5,,,,,,,,,,,0.571,1,,,,,,,,,,,,,,z,1,0.571,,,,,,,,0.176666667,0.015555556,0,0,0,,0,77,77,135,1,JOODY,C,old,z,./images/JOODY.png,,,,,,,,,,,,,,,,,,,,,,
,,,,,,,,,,,,,,,,,199543,20,2022-01-28_14h32.38.502,lexical_decision_task_DD_L2,2021.2.3,MacIntel,62.5,,,,,,,,,,,0.953,1,,,,,,,,,,,,,,z,1,0.953,,,,,,,,0.176666667,0.015555556,0,0,0,,0,78,78,106,1,CLUMS,HB,old,z,./images/CLUMSHB.png,,,,,,,,,,,,,,,,,,,,,,
,,,,,,,,,,,,,,,,,199543,20,2022-01-28_14h32.38.502,lexical_decision_task_DD_L2,2021.2.3,MacIntel,62.5,,,,,,,,,,,0.88,1,,,,,,,,,,,,,,z,1,0.88,,,,,,,,0.176666667,0.015555556,0,0,0,,0,79,79,119,1,PAFER,LB,old,z,./images/PAFERLB.png,,,,,,,,,,,,,,,,,,,,,,
,,,,,,,,,,,,,,,,,199543,20,2022-01-28_14h32.38.502,lexical_decision_task_DD_L2,2021.2.3,MacIntel,62.5,,,,,,,,,,,1.123,1,,,,,,,,,,,,,,z,1,1.123,,,,,,,,0.176666667,0.015555556,0,0,0,,0,80,80,100,1,DRIBS,HB,old,z,./images/DRIBSHB.png,,,,,,,,,,,,,,,,,,,,,,
,,,,,,,,,,,,,,,,,199543,20,2022-01-28_14h32.38.502,lexical_decision_task_DD_L2,2021.2.3,MacIntel,62.5,,,,,,,,,,,0.681,1,,,,,,,,,,,,,,m,1,0.681,,,,,,,,0.176666667,0.015555556,0,0,0,,0,81,81,80,1,WEASEL,C,old,m,./images/WEASEL.png,,,,,,,,,,,,,,,,,,,,,,
,,,,,,,,,,,,,,,,,199543,20,2022-01-28_14h32.38.502,lexical_decision_task_DD_L2,2021.2.3,MacIntel,62.5,,,,,,,,,,,0.631,1,,,,,,,,,,,,,,m,1,0.631,,,,,,,,0.176666667,0.015555556,0,0,0,,0,82,82,59,1,BURIAL,C,old,m,./images/BURIAL.png,,,,,,,,,,,,,,,,,,,,,,
,,,,,,,,,,,,,,,,,199543,20,2022-01-28_14h32.38.502,lexical_decision_task_DD_L2,2021.2.3,MacIntel,62.5,,,,,,,,,,,0.786,1,,,,,,,,,,,,,,z,1,0.786,,,,,,,,0.176666667,0.015555556,0,0,0,space,0,83,83,154,1,THINT,HB,old,z,./images/THINTHB.png,57.53,,,,,,,,,,,,,,,,,,,,,
,,,,,,,,,,,,,,,,,199543,20,2022-01-28_14h32.38.502,lexical_decision_task_DD_L2,2021.2.3,MacIntel,62.5,,,,,,,,,,,0.605,1,,,,,,,,,,,,,,m,1,0.605,,,,,,,,0.176666667,0.015555556,0,0,0,,0,84,84,8,1,TULIP,C,old,m,./images/TULIP.png,,,,,,,,,,,,,,,,,,,,,,
,,,,,,,,,,,,,,,,,199543,20,2022-01-28_14h32.38.502,lexical_decision_task_DD_L2,2021.2.3,MacIntel,62.5,,,,,,,,,,,0.662,1,,,,,,,,,,,,,,m,1,0.662,,,,,,,,0.176666667,0.015555556,0,0,0,,0,85,85,30,1,STORM,HB,old,m,./images/STORMHB.png,,,,,,,,,,,,,,,,,,,,,,
,,,,,,,,,,,,,,,,,199543,20,2022-01-28_14h32.38.502,lexical_decision_task_DD_L2,2021.2.3,MacIntel,62.5,,,,,,,,,,,0.536,1,,,,,,,,,,,,,,m,1,0.536,,,,,,,,0.176666667,0.015555556,0,0,0,,0,86,86,32,1,BARREL,C,old,m,./images/BARREL.png,,,,,,,,,,,,,,,,,,,,,,
,,,,,,,,,,,,,,,,,199543,20,2022-01-28_14h32.38.502,lexical_decision_task_DD_L2,2021.2.3,MacIntel,62.5,,,,,,,,,,,0.689,1,,,,,,,,,,,,,,m,1,0.689,,,,,,,,0.176666667,0.015555556,0,0,0,,0,87,87,31,1,QUILL,LB,old,m,./images/QUILLLB.png,,,,,,,,,,,,,,,,,,,,,,
,,,,,,,,,,,,,,,,,199543,20,2022-01-28_14h32.38.502,lexical_decision_task_DD_L2,2021.2.3,MacIntel,62.5,,,,,,,,,,,0.576,1,,,,,,,,,,,,,,z,1,0.576,,,,,,,,0.176666667,0.015555556,0,0,0,,0,88,88,147,1,ZOLES,C,old,z,./images/ZOLES.png,,,,,,,,,,,,,,,,,,,,,,
,,,,,,,,,,,,,,,,,199543,20,2022-01-28_14h32.38.502,lexical_decision_task_DD_L2,2021.2.3,MacIntel,62.5,,,,,,,,,,,0.844,1,,,,,,,,,,,,,,z,1,0.844,,,,,,,,0.176666667,0.015555556,0,0,0,,0,89,89,109,1,BURGE,HB,old,z,./images/BURGEHB.png,,,,,,,,,,,,,,,,,,,,,,
,,,,,,,,,,,,,,,,,199543,20,2022-01-28_14h32.38.502,lexical_decision_task_DD_L2,2021.2.3,MacIntel,62.5,,,,,,,,,,,0.682,1,,,,,,,,,,,,,,z,1,0.682,,,,,,,,0.176666667,0.015555556,0,0,0,,0,90,90,149,1,VEASE,LB,old,z,./images/VEASELB.png,,,,,,,,,,,,,,,,,,,,,,
,,,,,,,,,,,,,,,,,199543,20,2022-01-28_14h32.38.502,lexical_decision_task_DD_L2,2021.2.3,MacIntel,62.5,,,,,,,,,,,1,1,,,,,,,,,,,,,,z,1,1,,,,,,,,0.176666667,0.015555556,0,0,0,,0,91,91,88,1,GLUSH,HB,old,z,./images/GLUSHHB.png,,,,,,,,,,,,,,,,,,,,,,
,,,,,,,,,,,,,,,,,199543,20,2022-01-28_14h32.38.502,lexical_decision_task_DD_L2,2021.2.3,MacIntel,62.5,,,,,,,,,,,0.681,1,,,,,,,,,,,,,,z,1,0.681,,,,,,,,0.176666667,0.015555556,0,0,0,,0,92,92,160,1,VEETS,HB,old,z,./images/VEETSHB.png,,,,,,,,,,,,,,,,,,,,,,
,,,,,,,,,,,,,,,,,199543,20,2022-01-28_14h32.38.502,lexical_decision_task_DD_L2,2021.2.3,MacIntel,62.5,,,,,,,,,,,0.87,1,,,,,,,,,,,,,,z,1,0.87,,,,,,,,0.176666667,0.015555556,0,0,0,,0,93,93,92,1,PAIMS,LB,old,z,./images/PAIMSLB.png,,,,,,,,,,,,,,,,,,,,,,
,,,,,,,,,,,,,,,,,199543,20,2022-01-28_14h32.38.502,lexical_decision_task_DD_L2,2021.2.3,MacIntel,62.5,,,,,,,,,,,0.566,1,,,,,,,,,,,,,,m,1,0.566,,,,,,,,0.176666667,0.015555556,0,0,0,,0,94,94,22,1,MELON,LB,old,m,./images/MELONLB.png,,,,,,,,,,,,,,,,,,,,,,
,,,,,,,,,,,,,,,,,199543,20,2022-01-28_14h32.38.502,lexical_decision_task_DD_L2,2021.2.3,MacIntel,62.5,,,,,,,,,,,0.537,1,,,,,,,,,,,,,,m,1,0.537,,,,,,,,0.176666667,0.015555556,0,0,0,,0,95,95,25,1,WRIST,LB,old,m,./images/WRISTLB.png,,,,,,,,,,,,,,,,,,,,,,
,,,,,,,,,,,,,,,,,199543,20,2022-01-28_14h32.38.502,lexical_decision_task_DD_L2,2021.2.3,MacIntel,62.5,,,,,,,,,,,0.548,1,,,,,,,,,,,,,,z,1,0.548,,,,,,,,0.176666667,0.015555556,0,0,0,,0,96,96,102,1,DULLE,C,old,z,./images/DULLE.png,,,,,,,,,,,,,,,,,,,,,,
,,,,,,,,,,,,,,,,,199543,20,2022-01-28_14h32.38.502,lexical_decision_task_DD_L2,2021.2.3,MacIntel,62.5,,,,,,,,,,,0.488,1,,,,,,,,,,,,,,m,1,0.488,,,,,,,,0.176666667,0.015555556,0,0,0,,0,97,97,5,1,PASTA,C,old,m,./images/PASTA.png,,,,,,,,,,,,,,,,,,,,,,
,,,,,,,,,,,,,,,,,199543,20,2022-01-28_14h32.38.502,lexical_decision_task_DD_L2,2021.2.3,MacIntel,62.5,,,,,,,,,,,0.583,1,,,,,,,,,,,,,,z,1,0.583,,,,,,,,0.176666667,0.015555556,0,0,0,,0,98,98,90,1,NEAST,C,old,z,./images/NEAST.png,,,,,,,,,,,,,,,,,,,,,,
,,,,,,,,,,,,,,,,,199543,20,2022-01-28_14h32.38.502,lexical_decision_task_DD_L2,2021.2.3,MacIntel,62.5,,,,,,,,,,,1.097,1,,,,,,,,,,,,,,z,1,1.097,,,,,,,,0.176666667,0.015555556,0,0,0,,0,99,99,145,1,LAMEL,HB,old,z,./images/LAMELHB.png,,,,,,,,,,,,,,,,,,,,,,
,,,,,,,,,,,,,,,,,199543,20,2022-01-28_14h32.38.502,lexical_decision_task_DD_L2,2021.2.3,MacIntel,62.5,,,,,,,,,,,0.721,1,,,,,,,,,,,,,,z,1,0.721,,,,,,,,0.176666667,0.015555556,0,0,0,,0,100,100,159,1,CUDDY,C,old,z,./images/CUDDY.png,,,,,,,,,,,,,,,,,,,,,,
,,,,,,,,,,,,,,,,,199543,20,2022-01-28_14h32.38.502,lexical_decision_task_DD_L2,2021.2.3,MacIntel,62.5,,,,,,,,,,,0.655,1,,,,,,,,,,,,,,z,1,0.655,,,,,,,,0.176666667,0.015555556,0,0,0,,0,101,101,97,1,CHIDS,HB,old,z,./images/CHIDSHB.png,,,,,,,,,,,,,,,,,,,,,,
,,,,,,,,,,,,,,,,,199543,20,2022-01-28_14h32.38.502,lexical_decision_task_DD_L2,2021.2.3,MacIntel,62.5,,,,,,,,,,,0.82,1,,,,,,,,,,,,,,m,1,0.82,,,,,,,,0.176666667,0.015555556,0,0,0,,0,102,102,50,1,MALLET,C,old,m,./images/MALLET.png,,,,,,,,,,,,,,,,,,,,,,
,,,,,,,,,,,,,,,,,199543,20,2022-01-28_14h32.38.502,lexical_decision_task_DD_L2,2021.2.3,MacIntel,62.5,,,,,,,,,,,0.755,1,,,,,,,,,,,,,,z,1,0.755,,,,,,,,0.176666667,0.015555556,0,0,0,,0,103,103,133,1,POWDY,HB,old,z,./images/POWDYHB.png,,,,,,,,,,,,,,,,,,,,,,
,,,,,,,,,,,,,,,,,199543,20,2022-01-28_14h32.38.502,lexical_decision_task_DD_L2,2021.2.3,MacIntel,62.5,,,,,,,,,,,0.563,1,,,,,,,,,,,,,,z,1,0.563,,,,,,,,0.176666667,0.015555556,0,0,0,,0,104,104,161,1,BLAPS,LB,old,z,./images/BLAPSLB.png,,,,,,,,,,,,,,,,,,,,,,
,,,,,,,,,,,,,,,,,199543,20,2022-01-28_14h32.38.502,lexical_decision_task_DD_L2,2021.2.3,MacIntel,62.5,,,,,,,,,,,0.765,1,,,,,,,,,,,,,,z,1,0.765,,,,,,,,0.176666667,0.015555556,0,0,0,,0,105,105,142,1,PLASK,HB,old,z,./images/PLASKHB.png,,,,,,,,,,,,,,,,,,,,,,
,,,,,,,,,,,,,,,,,199543,20,2022-01-28_14h32.38.502,lexical_decision_task_DD_L2,2021.2.3,MacIntel,62.5,,,,,,,,,,,0.547,1,,,,,,,,,,,,,,z,1,0.547,,,,,,,,0.176666667,0.015555556,0,0,0,,0,106,106,140,1,DOVET,LB,old,z,./images/DOVETLB.png,,,,,,,,,,,,,,,,,,,,,,
,,,,,,,,,,,,,,,,,199543,20,2022-01-28_14h32.38.502,lexical_decision_task_DD_L2,2021.2.3,MacIntel,62.5,,,,,,,,,,,0.55,1,,,,,,,,,,,,,,z,1,0.55,,,,,,,,0.176666667,0.015555556,0,0,0,,0,107,107,134,1,TROSS,LB,old,z,./images/TROSSLB.png,,,,,,,,,,,,,,,,,,,,,,
,,,,,,,,,,,,,,,,,199543,20,2022-01-28_14h32.38.502,lexical_decision_task_DD_L2,2021.2.3,MacIntel,62.5,,,,,,,,,,,0.794,0,,,,,,,,,,,,,,z,0,0.794,,,,,,,,0.176666667,0.015555556,0,0,0,,0,108,108,54,1,TRIPOD,HB,old,m,./images/TRIPODHB.png,,,,,,,,,,,,,,,,,,,,,,
,,,,,,,,,,,,,,,,,199543,20,2022-01-28_14h32.38.502,lexical_decision_task_DD_L2,2021.2.3,MacIntel,62.5,,,,,,,,,,,1.011,1,,,,,,,,,,,,,,m,1,1.011,,,,,,,,0.176666667,0.015555556,0,0,0,,0,109,109,12,1,SHORE,HB,old,m,./images/SHOREHB.png,,,,,,,,,,,,,,,,,,,,,,
,,,,,,,,,,,,,,,,,199543,20,2022-01-28_14h32.38.502,lexical_decision_task_DD_L2,2021.2.3,MacIntel,62.5,,,,,,,,,,,0.517,1,,,,,,,,,,,,,,z,1,0.517,,,,,,,,0.176666667,0.015555556,0,0,0,,0,110,110,138,1,PLICE,C,old,z,./images/PLICE.png,,,,,,,,,,,,,,,,,,,,,,
,,,,,,,,,,,,,,,,,199543,20,2022-01-28_14h32.38.502,lexical_decision_task_DD_L2,2021.2.3,MacIntel,62.5,,,,,,,,,,,0.611,1,,,,,,,,,,,,,,m,1,0.611,,,,,,,,0.176666667,0.015555556,0,0,0,,0,111,111,48,1,SPORT,HB,old,m,./images/SPORTHB.png,,,,,,,,,,,,,,,,,,,,,,
,,,,,,,,,,,,,,,,,199543,20,2022-01-28_14h32.38.502,lexical_decision_task_DD_L2,2021.2.3,MacIntel,62.5,,,,,,,,,,,0.546,1,,,,,,,,,,,,,,m,1,0.546,,,,,,,,0.176666667,0.015555556,0,0,0,,0,112,112,19,1,DOUGH,LB,old,m,./images/DOUGHLB.png,,,,,,,,,,,,,,,,,,,,,,
,,,,,,,,,,,,,,,,,199543,20,2022-01-28_14h32.38.502,lexical_decision_task_DD_L2,2021.2.3,MacIntel,62.5,,,,,,,,,,,0.651,1,,,,,,,,,,,,,,z,1,0.651,,,,,,,,0.176666667,0.015555556,0,0,0,,0,113,113,143,1,MONGS,LB,old,z,./images/MONGSLB.png,,,,,,,,,,,,,,,,,,,,,,
,,,,,,,,,,,,,,,,,199543,20,2022-01-28_14h32.38.502,lexical_decision_task_DD_L2,2021.2.3,MacIntel,62.5,,,,,,,,,,,1.138,1,,,,,,,,,,,,,,m,1,1.138,,,,,,,,0.176666667,0.015555556,0,0,0,,0,114,114,69,1,COOKER,HB,old,m,./images/COOKERHB.png,,,,,,,,,,,,,,,,,,,,,,
,,,,,,,,,,,,,,,,,199543,20,2022-01-28_14h32.38.502,lexical_decision_task_DD_L2,2021.2.3,MacIntel,62.5,,,,,,,,,,,0.574,1,,,,,,,,,,,,,,z,1,0.574,,,,,,,,0.176666667,0.015555556,0,0,0,,0,115,115,167,1,ZONET,LB,old,z,./images/ZONETLB.png,,,,,,,,,,,,,,,,,,,,,,
,,,,,,,,,,,,,,,,,199543,20,2022-01-28_14h32.38.502,lexical_decision_task_DD_L2,2021.2.3,MacIntel,62.5,,,,,,,,,,,0.982,1,,,,,,,,,,,,,,z,1,0.982,,,,,,,,0.176666667,0.015555556,0,0,0,,0,116,116,86,1,AIFED,LB,old,z,./images/AIFEDLB.png,,,,,,,,,,,,,,,,,,,,,,
,,,,,,,,,,,,,,,,,199543,20,2022-01-28_14h32.38.502,lexical_decision_task_DD_L2,2021.2.3,MacIntel,62.5,,,,,,,,,,,0.538,1,,,,,,,,,,,,,,m,1,0.538,,,,,,,,0.176666667,0.015555556,0,0,0,,0,117,117,82,1,SUNSET,LB,old,m,./images/SUNSETLB.png,,,,,,,,,,,,,,,,,,,,,,
,,,,,,,,,,,,,,,,,199543,20,2022-01-28_14h32.38.502,lexical_decision_task_DD_L2,2021.2.3,MacIntel,62.5,,,,,,,,,,,0.534,1,,,,,,,,,,,,,,m,1,0.534,,,,,,,,0.176666667,0.015555556,0,0,0,,0,118,118,71,1,PIMPLE,C,old,m,./images/PIMPLE.png,,,,,,,,,,,,,,,,,,,,,,
,,,,,,,,,,,,,,,,,199543,20,2022-01-28_14h32.38.502,lexical_decision_task_DD_L2,2021.2.3,MacIntel,62.5,,,,,,,,,,,0.601,1,,,,,,,,,,,,,,z,1,0.601,,,,,,,,0.176666667,0.015555556,0,0,0,,0,119,119,128,1,GRIFT,LB,old,z,./images/GRIFTLB.png,,,,,,,,,,,,,,,,,,,,,,
,,,,,,,,,,,,,,,,,199543,20,2022-01-28_14h32.38.502,lexical_decision_task_DD_L2,2021.2.3,MacIntel,62.5,,,,,,,,,,,0.539,1,,,,,,,,,,,,,,m,1,0.539,,,,,,,,0.176666667,0.015555556,0,0,0,,0,120,120,29,1,CRUMB,C,old,m,./images/CRUMB.png,,,,,,,,,,,,,,,,,,,,,,
,,,,,,,,,,,,,,,,,199543,20,2022-01-28_14h32.38.502,lexical_decision_task_DD_L2,2021.2.3,MacIntel,62.5,,,,,,,,,,,0.548,1,,,,,,,,,,,,,,z,1,0.548,,,,,,,,0.176666667,0.015555556,0,0,0,,0,121,121,164,1,SGREW,LB,old,z,./images/SGREWLB.png,,,,,,,,,,,,,,,,,,,,,,
,,,,,,,,,,,,,,,,,199543,20,2022-01-28_14h32.38.502,lexical_decision_task_DD_L2,2021.2.3,MacIntel,62.5,,,,,,,,,,,0.59,1,,,,,,,,,,,,,,m,1,0.59,,,,,,,,0.176666667,0.015555556,0,0,0,,0,122,122,77,1,COUCH,C,old,m,./images/COUCH.png,,,,,,,,,,,,,,,,,,,,,,
,,,,,,,,,,,,,,,,,199543,20,2022-01-28_14h32.38.502,lexical_decision_task_DD_L2,2021.2.3,MacIntel,62.5,,,,,,,,,,,0.706,0,,,,,,,,,,,,,,z,0,0.706,,,,,,,,0.176666667,0.015555556,0,0,0,,0,123,123,16,1,PENCE,LB,old,m,./images/PENCELB.png,,,,,,,,,,,,,,,,,,,,,,
,,,,,,,,,,,,,,,,,199543,20,2022-01-28_14h32.38.502,lexical_decision_task_DD_L2,2021.2.3,MacIntel,62.5,,,,,,,,,,,0.59,1,,,,,,,,,,,,,,m,1,0.59,,,,,,,,0.176666667,0.015555556,0,0,0,,0,124,124,26,1,SMOKER,C,old,m,./images/SMOKER.png,,,,,,,,,,,,,,,,,,,,,,
,,,,,,,,,,,,,,,,,199543,20,2022-01-28_14h32.38.502,lexical_decision_task_DD_L2,2021.2.3,MacIntel,62.5,,,,,,,,,,,1.04,1,,,,,,,,,,,,,,m,1,1.04,,,,,,,,0.176666667,0.015555556,0,0,0,space,0,125,125,39,1,SHELF,HB,old,m,./images/SHELFHB.png,9.766,,,,,,,,,,,,,,,,,,,,,
,,,,,,,,,,,,,,,,,199543,20,2022-01-28_14h32.38.502,lexical_decision_task_DD_L2,2021.2.3,MacIntel,62.5,,,,,,,,,,,0.907,1,,,,,,,,,,,,,,m,1,0.907,,,,,,,,0.176666667,0.015555556,0,0,0,,0,126,126,76,1,INFANT,LB,old,m,./images/INFANTLB.png,,,,,,,,,,,,,,,,,,,,,,
,,,,,,,,,,,,,,,,,199543,20,2022-01-28_14h32.38.502,lexical_decision_task_DD_L2,2021.2.3,MacIntel,62.5,,,,,,,,,,,0.607,1,,,,,,,,,,,,,,z,1,0.607,,,,,,,,0.176666667,0.015555556,0,0,0,,0,127,127,126,1,GUELS,C,old,z,./images/GUELS.png,,,,,,,,,,,,,,,,,,,,,,
,,,,,,,,,,,,,,,,,199543,20,2022-01-28_14h32.38.502,lexical_decision_task_DD_L2,2021.2.3,MacIntel,62.5,,,,,,,,,,,0.599,1,,,,,,,,,,,,,,z,1,0.599,,,,,,,,0.176666667,0.015555556,0,0,0,,0,128,128,96,1,KEAMS,C,old,z,./images/KEAMS.png,,,,,,,,,,,,,,,,,,,,,,
,,,,,,,,,,,,,,,,,199543,20,2022-01-28_14h32.38.502,lexical_decision_task_DD_L2,2021.2.3,MacIntel,62.5,,,,,,,,,,,0.595,1,,,,,,,,,,,,,,z,1,0.595,,,,,,,,0.176666667,0.015555556,0,0,0,,0,129,129,122,1,BLOOT,LB,old,z,./images/BLOOTLB.png,,,,,,,,,,,,,,,,,,,,,,
,,,,,,,,,,,,,,,,,199543,20,2022-01-28_14h32.38.502,lexical_decision_task_DD_L2,2021.2.3,MacIntel,62.5,,,,,,,,,,,0.54,1,,,,,,,,,,,,,,m,1,0.54,,,,,,,,0.176666667,0.015555556,0,0,0,,0,130,130,70,1,URINE,LB,old,m,./images/URINELB.png,,,,,,,,,,,,,,,,,,,,,,
,,,,,,,,,,,,,,,,,199543,20,2022-01-28_14h32.38.502,lexical_decision_task_DD_L2,2021.2.3,MacIntel,62.5,,,,,,,,,,,0.514,1,,,,,,,,,,,,,,m,1,0.514,,,,,,,,0.176666667,0.015555556,0,0,0,,0,131,131,41,1,STRING,C,old,m,./images/STRING.png,,,,,,,,,,,,,,,,,,,,,,
,,,,,,,,,,,,,,,,,199543,20,2022-01-28_14h32.38.502,lexical_decision_task_DD_L2,2021.2.3,MacIntel,62.5,,,,,,,,,,,0.654,1,,,,,,,,,,,,,,m,1,0.654,,,,,,,,0.176666667,0.015555556,0,0,0,,0,132,132,66,1,SWEAT,HB,old,m,./images/SWEATHB.png,,,,,,,,,,,,,,,,,,,,,,
,,,,,,,,,,,,,,,,,199543,20,2022-01-28_14h32.38.502,lexical_decision_task_DD_L2,2021.2.3,MacIntel,62.5,,,,,,,,,,,0.699,0,,,,,,,,,,,,,,z,0,0.699,,,,,,,,0.176666667,0.015555556,0,0,0,,0,133,133,43,1,MOSQUE,LB,old,m,./images/MOSQUELB.png,,,,,,,,,,,,,,,,,,,,,,
,,,,,,,,,,,,,,,,,199543,20,2022-01-28_14h32.38.502,lexical_decision_task_DD_L2,2021.2.3,MacIntel,62.5,,,,,,,,,,,0.607,1,,,,,,,,,,,,,,m,1,0.607,,,,,,,,0.176666667,0.015555556,0,0,0,,0,134,134,55,1,MUFFIN,LB,old,m,./images/MUFFINLB.png,,,,,,,,,,,,,,,,,,,,,,
,,,,,,,,,,,,,,,,,199543,20,2022-01-28_14h32.38.502,lexical_decision_task_DD_L2,2021.2.3,MacIntel,62.5,,,,,,,,,,,0.491,1,,,,,,,,,,,,,,m,1,0.491,,,,,,,,0.176666667,0.015555556,0,0,0,,0,135,135,10,1,BELLY,LB,old,m,./images/BELLYLB.png,,,,,,,,,,,,,,,,,,,,,,
,,,,,,,,,,,,,,,,,199543,20,2022-01-28_14h32.38.502,lexical_decision_task_DD_L2,2021.2.3,MacIntel,62.5,,,,,,,,,,,0.54,1,,,,,,,,,,,,,,m,1,0.54,,,,,,,,0.176666667,0.015555556,0,0,0,,0,136,136,67,1,SAILOR,LB,old,m,./images/SAILORLB.png,,,,,,,,,,,,,,,,,,,,,,
,,,,,,,,,,,,,,,,,199543,20,2022-01-28_14h32.38.502,lexical_decision_task_DD_L2,2021.2.3,MacIntel,62.5,,,,,,,,,,,0.491,1,,,,,,,,,,,,,,m,1,0.491,,,,,,,,0.176666667,0.015555556,0,0,0,,0,137,137,28,1,FALCON,LB,old,m,./images/FALCONLB.png,,,,,,,,,,,,,,,,,,,,,,
,,,,,,,,,,,,,,,,,199543,20,2022-01-28_14h32.38.502,lexical_decision_task_DD_L2,2021.2.3,MacIntel,62.5,,,,,,,,,,,0.78,1,,,,,,,,,,,,,,z,1,0.78,,,,,,,,0.176666667,0.015555556,0,0,0,,0,138,138,121,1,CEERS,HB,old,z,./images/CEERSHB.png,,,,,,,,,,,,,,,,,,,,,,
,,,,,,,,,,,,,,,,,199543,20,2022-01-28_14h32.38.502,lexical_decision_task_DD_L2,2021.2.3,MacIntel,62.5,,,,,,,,,,,0.525,1,,,,,,,,,,,,,,m,1,0.525,,,,,,,,0.176666667,0.015555556,0,0,0,,0,139,139,46,1,PEARL,LB,old,m,./images/PEARLLB.png,,,,,,,,,,,,,,,,,,,,,,
,,,,,,,,,,,,,,,,,199543,20,2022-01-28_14h32.38.502,lexical_decision_task_DD_L2,2021.2.3,MacIntel,62.5,,,,,,,,,,,0.74,1,,,,,,,,,,,,,,z,1,0.74,,,,,,,,0.176666667,0.015555556,0,0,0,,0,140,140,130,1,CRILL,HB,old,z,./images/CRILLHB.png,,,,,,,,,,,,,,,,,,,,,,
,,,,,,,,,,,,,,,,,199543,20,2022-01-28_14h32.38.502,lexical_decision_task_DD_L2,2021.2.3,MacIntel,62.5,,,,,,,,,,,0.587,1,,,,,,,,,,,,,,z,1,0.587,,,,,,,,0.176666667,0.015555556,0,0,0,,0,141,141,152,1,FRAIN,LB,old,z,./images/FRAINLB.png,,,,,,,,,,,,,,,,,,,,,,
,,,,,,,,,,,,,,,,,199543,20,2022-01-28_14h32.38.502,lexical_decision_task_DD_L2,2021.2.3,MacIntel,62.5,,,,,,,,,,,0.509,1,,,,,,,,,,,,,,z,1,0.509,,,,,,,,0.176666667,0.015555556,0,0,0,,0,142,142,137,1,JOOST,LB,old,z,./images/JOOSTLB.png,,,,,,,,,,,,,,,,,,,,,,
,,,,,,,,,,,,,,,,,199543,20,2022-01-28_14h32.38.502,lexical_decision_task_DD_L2,2021.2.3,MacIntel,62.5,,,,,,,,,,,0.597,1,,,,,,,,,,,,,,m,1,0.597,,,,,,,,0.176666667,0.015555556,0,0,0,,0,143,143,3,1,FINGER,HB,old,m,./images/FINGERHB.png,,,,,,,,,,,,,,,,,,,,,,
,,,,,,,,,,,,,,,,,199543,20,2022-01-28_14h32.38.502,lexical_decision_task_DD_L2,2021.2.3,MacIntel,62.5,,,,,,,,,,,0.651,1,,,,,,,,,,,,,,m,1,0.651,,,,,,,,0.176666667,0.015555556,0,0,0,,0,144,144,27,1,ATTIC,HB,old,m,./images/ATTICHB.png,,,,,,,,,,,,,,,,,,,,,,
,,,,,,,,,,,,,,,,,199543,20,2022-01-28_14h32.38.502,lexical_decision_task_DD_L2,2021.2.3,MacIntel,62.5,,,,,,,,,,,0.748,1,,,,,,,,,,,,,,z,1,0.748,,,,,,,,0.176666667,0.015555556,0,0,0,,0,145,145,166,1,SHORY,HB,old,z,./images/SHORYHB.png,,,,,,,,,,,,,,,,,,,,,,
,,,,,,,,,,,,,,,,,199543,20,2022-01-28_14h32.38.502,lexical_decision_task_DD_L2,2021.2.3,MacIntel,62.5,,,,,,,,,,,0.558,1,,,,,,,,,,,,,,m,1,0.558,,,,,,,,0.176666667,0.015555556,0,0,0,,0,146,146,13,1,MOTOR,LB,old,m,./images/MOTORLB.png,,,,,,,,,,,,,,,,,,,,,,
,,,,,,,,,,,,,,,,,199543,20,2022-01-28_14h32.38.502,lexical_decision_task_DD_L2,2021.2.3,MacIntel,62.5,,,,,,,,,,,0.498,1,,,,,,,,,,,,,,m,1,0.498,,,,,,,,0.176666667,0.015555556,0,0,0,,0,147,147,47,1,BERRY,C,old,m,./images/BERRY.png,,,,,,,,,,,,,,,,,,,,,,
,,,,,,,,,,,,,,,,,199543,20,2022-01-28_14h32.38.502,lexical_decision_task_DD_L2,2021.2.3,MacIntel,62.5,,,,,,,,,,,0.612,1,,,,,,,,,,,,,,m,1,0.612,,,,,,,,0.176666667,0.015555556,0,0,0,,0,148,148,24,1,SCREW,HB,old,m,./images/SCREWHB.png,,,,,,,,,,,,,,,,,,,,,,
,,,,,,,,,,,,,,,,,199543,20,2022-01-28_14h32.38.502,lexical_decision_task_DD_L2,2021.2.3,MacIntel,62.5,,,,,,,,,,,0.543,1,,,,,,,,,,,,,,m,1,0.543,,,,,,,,0.176666667,0.015555556,0,0,0,,0,149,149,74,1,CEMENT,C,old,m,./images/CEMENT.png,,,,,,,,,,,,,,,,,,,,,,
,,,,,,,,,,,,,,,,,199543,20,2022-01-28_14h32.38.502,lexical_decision_task_DD_L2,2021.2.3,MacIntel,62.5,,,,,,,,,,,0.681,1,,,,,,,,,,,,,,z,1,0.681,,,,,,,,0.176666667,0.015555556,0,0,0,,0,150,150,115,1,MAWNS,HB,old,z,./images/MAWNSHB.png,,,,,,,,,,,,,,,,,,,,,,
,,,,,,,,,,,,,,,,,199543,20,2022-01-28_14h32.38.502,lexical_decision_task_DD_L2,2021.2.3,MacIntel,62.5,,,,,,,,,,,0.633,1,,,,,,,,,,,,,,z,1,0.633,,,,,,,,0.176666667,0.015555556,0,0,0,,0,151,151,116,1,BALGY,LB,old,z,./images/BALGYLB.png,,,,,,,,,,,,,,,,,,,,,,
,,,,,,,,,,,,,,,,,199543,20,2022-01-28_14h32.38.502,lexical_decision_task_DD_L2,2021.2.3,MacIntel,62.5,,,,,,,,,,,0.549,1,,,,,,,,,,,,,,z,1,0.549,,,,,,,,0.176666667,0.015555556,0,0,0,,0,152,152,117,1,STEEG,C,old,z,./images/STEEG.png,,,,,,,,,,,,,,,,,,,,,,
,,,,,,,,,,,,,,,,,199543,20,2022-01-28_14h32.38.502,lexical_decision_task_DD_L2,2021.2.3,MacIntel,62.5,,,,,,,,,,,1.26,1,,,,,,,,,,,,,,m,1,1.26,,,,,,,,0.176666667,0.015555556,0,0,0,,0,153,153,20,1,CRADLE,C,old,m,./images/CRADLE.png,,,,,,,,,,,,,,,,,,,,,,
,,,,,,,,,,,,,,,,,199543,20,2022-01-28_14h32.38.502,lexical_decision_task_DD_L2,2021.2.3,MacIntel,62.5,,,,,,,,,,,1.201,1,,,,,,,,,,,,,,z,1,1.201,,,,,,,,0.176666667,0.015555556,0,0,0,,0,154,154,136,1,WERVE,HB,old,z,./images/WERVEHB.png,,,,,,,,,,,,,,,,,,,,,,
,,,,,,,,,,,,,,,,,199543,20,2022-01-28_14h32.38.502,lexical_decision_task_DD_L2,2021.2.3,MacIntel,62.5,,,,,,,,,,,0.548,1,,,,,,,,,,,,,,m,1,0.548,,,,,,,,0.176666667,0.015555556,0,0,0,,0,155,155,64,1,JELLY,LB,old,m,./images/JELLYLB.png,,,,,,,,,,,,,,,,,,,,,,
,,,,,,,,,,,,,,,,,199543,20,2022-01-28_14h32.38.502,lexical_decision_task_DD_L2,2021.2.3,MacIntel,62.5,,,,,,,,,,,0.722,1,,,,,,,,,,,,,,m,1,0.722,,,,,,,,0.176666667,0.015555556,0,0,0,,0,156,156,9,1,RHINO,HB,old,m,./images/RHINOHB.png,,,,,,,,,,,,,,,,,,,,,,
,,,,,,,,,,,,,,,,,199543,20,2022-01-28_14h32.38.502,lexical_decision_task_DD_L2,2021.2.3,MacIntel,62.5,,,,,,,,,,,0.647,1,,,,,,,,,,,,,,z,1,0.647,,,,,,,,0.176666667,0.015555556,0,0,0,,0,157,157,93,1,SMONE,C,old,z,./images/SMONE.png,,,,,,,,,,,,,,,,,,,,,,
,,,,,,,,,,,,,,,,,199543,20,2022-01-28_14h32.38.502,lexical_decision_task_DD_L2,2021.2.3,MacIntel,62.5,,,,,,,,,,,0.58,1,,,,,,,,,,,,,,m,1,0.58,,,,,,,,0.176666667,0.015555556,0,0,0,,0,158,158,42,1,FOLDER,HB,old,m,./images/FOLDERHB.png,,,,,,,,,,,,,,,,,,,,,,
,,,,,,,,,,,,,,,,,199543,20,2022-01-28_14h32.38.502,lexical_decision_task_DD_L2,2021.2.3,MacIntel,62.5,,,,,,,,,,,0.983,1,,,,,,,,,,,,,,z,1,0.983,,,,,,,,0.176666667,0.015555556,0,0,0,,0,159,159,157,1,INLER,HB,old,z,./images/INLERHB.png,,,,,,,,,,,,,,,,,,,,,,
,,,,,,,,,,,,,,,,,199543,20,2022-01-28_14h32.38.502,lexical_decision_task_DD_L2,2021.2.3,MacIntel,62.5,,,,,,,,,,,0.8,1,,,,,,,,,,,,,,z,1,0.8,,,,,,,,0.176666667,0.015555556,0,0,0,,0,160,160,146,1,MOOST,LB,old,z,./images/MOOSTLB.png,,,,,,,,,,,,,,,,,,,,,,
,,,,,,,,,,,,,,,,,199543,20,2022-01-28_14h32.38.502,lexical_decision_task_DD_L2,2021.2.3,MacIntel,62.5,,,,,,,,,,,0.54,1,,,,,,,,,,,,,,m,1,0.54,,,,,,,,0.176666667,0.015555556,0,0,0,,0,161,161,81,1,POODLE,HB,old,m,./images/POODLEHB.png,,,,,,,,,,,,,,,,,,,,,,
,,,,,,,,,,,,,,,,,199543,20,2022-01-28_14h32.38.502,lexical_decision_task_DD_L2,2021.2.3,MacIntel,62.5,,,,,,,,,,,0.65,1,,,,,,,,,,,,,,z,1,0.65,,,,,,,,0.176666667,0.015555556,0,0,0,,0,162,162,148,1,JOMS,HB,old,z,./images/JOMSHB.png,,,,,,,,,,,,,,,,,,,,,,
,,,,,,,,,,,,,,,,,199543,20,2022-01-28_14h32.38.502,lexical_decision_task_DD_L2,2021.2.3,MacIntel,62.5,,,,,,,,,,,0.518,1,,,,,,,,,,,,,,z,1,0.518,,,,,,,,0.176666667,0.015555556,0,0,0,,0,163,163,84,1,HAXES,C,old,z,./images/HAXES.png,,,,,,,,,,,,,,,,,,,,,,
,,,,,,,,,,,,,,,,,199543,20,2022-01-28_14h32.38.502,lexical_decision_task_DD_L2,2021.2.3,MacIntel,62.5,,,,,,,,,,,0.517,1,,,,,,,,,,,,,,z,1,0.517,,,,,,,,0.176666667,0.015555556,0,0,0,,0,164,164,98,1,BAMPS,LB,old,z,./images/BAMPSLB.png,,,,,,,,,,,,,,,,,,,,,,
,,,,,,,,,,,,,,,,,199543,20,2022-01-28_14h32.38.502,lexical_decision_task_DD_L2,2021.2.3,MacIntel,62.5,,,,,,,,,,,0.578,1,,,,,,,,,,,,,,z,1,0.578,,,,,,,,0.176666667,0.015555556,0,0,0,,0,165,165,155,1,CANGY,LB,old,z,./images/CANGYLB.png,,,,,,,,,,,,,,,,,,,,,,
,,,,,,,,,,,,,,,,,199543,20,2022-01-28_14h32.38.502,lexical_decision_task_DD_L2,2021.2.3,MacIntel,62.5,,,,,,,,,,,0.573,1,,,,,,,,,,,,,,m,1,0.573,,,,,,,,0.176666667,0.015555556,0,0,0,,0,166,166,65,1,FARMER,C,old,m,./images/FARMER.png,,,,,,,,,,,,,,,,,,,,,,
,,,,,,,,,,,,,,,,,199543,20,2022-01-28_14h32.38.502,lexical_decision_task_DD_L2,2021.2.3,MacIntel,62.5,,,,,,,,,,,0.733,1,,,,,,,,,,,,,,m,1,0.733,,,,,,,,0.176666667,0.015555556,0,0,0,,0,167,167,23,1,WALRUS,C,old,m,./images/WALRUS.png,,,,,,,,,,,,,,,,,,,,,,
space,235.613,0.16,0.148888889,0,0,0,,,,,,1,test,"In the next phase you will be presented with the words from the the first phase. Your job is to decide whether you remember seeing the word or not. If you remember seeing the word press ""old"" or type ""m"". If you do not remember seeing the word press ""new"" or type ""z"". Please press the space bar or click on continue to begin. ",,,199543,20,2022-01-28_14h32.38.502,lexical_decision_task_DD_L2,2021.2.3,MacIntel,62.5,,,,,,,,,,,,,,,,,,,,,,,,,,,,,,,,,,,,,,,,,,,,,,,,,,,,,0,0,0,0,1,,,,,,,,,,,,,,,,
space,1.987,0.16,0.148888889,0,0,0,,,,,,1,test,"In the next phase you will be presented with the words from the the first phase. Your job is to decide whether you remember seeing the word or not. If you remember seeing the word press ""old"" or type ""m"". If you do not remember seeing the word press ""new"" or type ""z"". Please press the space bar or click on continue to begin. ",,,199543,20,2022-01-28_14h32.38.502,lexical_decision_task_DD_L2,2021.2.3,MacIntel,62.5,,,,,,,,,,,,,,,,,,,,,,,,,,,,,,,,,,,,,,,,,,,,,,,,,,,,,1,0,1,0,1,,,,,,,,,,,,,,,,
,,0.086666667,-0.363333333,1,0,0,,,,,,1,test,"In the next phase you will be presented with the words from the the first phase. Your job is to decide whether you remember seeing the word or not. If you remember seeing the word press ""old"" or type ""m"". If you do not remember seeing the word press ""new"" or type ""z"". Please press the space bar or click on continue to begin. ",,,199543,20,2022-01-28_14h32.38.502,lexical_decision_task_DD_L2,2021.2.3,MacIntel,62.5,,,,,,,,,,,,,,,,,,,,,,,,,,,,,,,,,,,,,,,,,,,,,,,,,,,,,2,0,2,0,1,instr_done_button,,,,,,,,,,,,,,,
space,1.103,0.326666667,0.032222222,0,0,0,,,,,,1,test,"In the next phase you will be presented with the words from the the first phase. Your job is to decide whether you remember seeing the word or not. If you remember seeing the word press ""old"" or type ""m"". If you do not remember seeing the word press ""new"" or type ""z"". Please press the space bar or click on continue to begin. ",,,199543,20,2022-01-28_14h32.38.502,lexical_decision_task_DD_L2,2021.2.3,MacIntel,62.5,,,,,,,,,,,,,,,,,,,,,,,,,,,,,,,,,,,,,,,,,,,,,,,,,,,,,3,0,3,0,1,,,,,,,,,,,,,,,,
,,-0.043333333,-0.36,1,0,0,,,,,,1,test,"In the next phase you will be presented with the words from the the first phase. Your job is to decide whether you remember seeing the word or not. If you remember seeing the word press ""old"" or type ""m"". If you do not remember seeing the word press ""new"" or type ""z"". Please press the space bar or click on continue to begin. ",,,199543,20,2022-01-28_14h32.38.502,lexical_decision_task_DD_L2,2021.2.3,MacIntel,62.5,,,,,,,,,,,,,,,,,,,,,,,,,,,,,,,,,,,,,,,,,,,,,,,,,,,,,4,0,4,0,1,instr_done_button,,,,,,,,,,,,,,,
,,,,,,,,,,,,,,,,,199543,20,2022-01-28_14h32.38.502,lexical_decision_task_DD_L2,2021.2.3,MacIntel,62.5,,,,,,,,,,,2.569,0,,,,,,,,,,,,,,,,,,,,,,,,0.351111111,0.282222222,0,0,0,,,,,,,MIRROR,HB,m,y,./images/MIRRORHB.png,,,,,,,,z,0,2.569,,,,,,,,0,0,0,63,1
,,,,,,,,,,,,,,,,,199543,20,2022-01-28_14h32.38.502,lexical_decision_task_DD_L2,2021.2.3,MacIntel,62.5,,,,,,,,,,,0.776,0,,,,,,,,,,,,,,,,,,,,,,,,0.351111111,0.282222222,0,0,0,,,,,,,HAMMER,HB,z,y,./images/HAMMERHB.png,,,,,,,,m,0,0.776,,,,,,,,0,1,1,159,1
,,,,,,,,,,,,,,,,,199543,20,2022-01-28_14h32.38.502,lexical_decision_task_DD_L2,2021.2.3,MacIntel,62.5,,,,,,,,,,,0.999,1,,,,,,,,,,,,,,,,,,,,,,,,0.351111111,0.282222222,0,0,0,,,,,,,MAGGOT,HB,m,y,./images/MAGGOTHB.png,,,,,,,,m,1,0.999,,,,,,,,0,2,2,33,1
,,,,,,,,,,,,,,,,,199543,20,2022-01-28_14h32.38.502,lexical_decision_task_DD_L2,2021.2.3,MacIntel,62.5,,,,,,,,,,,0.631,0,,,,,,,,,,,,,,,,,,,,,,,,0.351111111,0.282222222,0,0,0,,,,,,,FENCE,C,z,y,./images/FENCE.png,,,,,,,,m,0,0.631,,,,,,,,0,3,3,98,1
,,,,,,,,,,,,,,,,,199543,20,2022-01-28_14h32.38.502,lexical_decision_task_DD_L2,2021.2.3,MacIntel,62.5,,,,,,,,,,,0.728,1,,,,,,,,,,,,,,,,,,,,,,,,0.351111111,0.282222222,0,0,0,,,,,,,POODLE,HB,m,y,./images/POODLEHB.png,,,,,,,,m,1,0.728,,,,,,,,0,4,4,81,1
,,,,,,,,,,,,,,,,,199543,20,2022-01-28_14h32.38.502,lexical_decision_task_DD_L2,2021.2.3,MacIntel,62.5,,,,,,,,,,,0.876,0,,,,,,,,,,,,,,,,,,,,,,,,0.351111111,0.282222222,0,0,0,,,,,,,CLIFF,C,z,y,./images/CLIFF.png,,,,,,,,m,0,0.876,,,,,,,,0,5,5,92,1
,,,,,,,,,,,,,,,,,199543,20,2022-01-28_14h32.38.502,lexical_decision_task_DD_L2,2021.2.3,MacIntel,62.5,,,,,,,,,,,0.716,1,,,,,,,,,,,,,,,,,,,,,,,,0.351111111,0.282222222,0,0,0,,,,,,,NOOSE,HB,m,y,./images/NOOSEHB.png,,,,,,,,m,1,0.716,,,,,,,,0,6,6,72,1
,,,,,,,,,,,,,,,,,199543,20,2022-01-28_14h32.38.502,lexical_decision_task_DD_L2,2021.2.3,MacIntel,62.5,,,,,,,,,,,0.523,1,,,,,,,,,,,,,,,,,,,,,,,,0.351111111,0.282222222,0,0,0,,,,,,,JUNGLE,C,m,y,./images/JUNGLE.png,,,,,,,,m,1,0.523,,,,,,,,0,7,7,83,1
,,,,,,,,,,,,,,,,,199543,20,2022-01-28_14h32.38.502,lexical_decision_task_DD_L2,2021.2.3,MacIntel,62.5,,,,,,,,,,,0.75,1,,,,,,,,,,,,,,,,,,,,,,,,0.351111111,0.282222222,0,0,0,,,,,,,CANYON,LB,m,y,./images/CANYONLB.png,,,,,,,,m,1,0.75,,,,,,,,0,8,8,34,1
,,,,,,,,,,,,,,,,,199543,20,2022-01-28_14h32.38.502,lexical_decision_task_DD_L2,2021.2.3,MacIntel,62.5,,,,,,,,,,,0.842,1,,,,,,,,,,,,,,,,,,,,,,,,0.351111111,0.282222222,0,0,0,,,,,,,PISTOL,C,z,y,./images/PISTOL.png,,,,,,,,z,1,0.842,,,,,,,,0,9,9,113,1
,,,,,,,,,,,,,,,,,199543,20,2022-01-28_14h32.38.502,lexical_decision_task_DD_L2,2021.2.3,MacIntel,62.5,,,,,,,,,,,0.924,1,,,,,,,,,,,,,,,,,,,,,,,,0.351111111,0.282222222,0,0,0,,,,,,,BRUSH,C,z,y,./images/BRUSH.png,,,,,,,,z,1,0.924,,,,,,,,0,10,10,143,1
,,,,,,,,,,,,,,,,,199543,20,2022-01-28_14h32.38.502,lexical_decision_task_DD_L2,2021.2.3,MacIntel,62.5,,,,,,,,,,,1.183,1,,,,,,,,,,,,,,,,,,,,,,,,0.351111111,0.282222222,0,0,0,,,,,,,STOVE,C,z,y,./images/STOVE.png,,,,,,,,z,1,1.183,,,,,,,,0,11,11,86,1
,,,,,,,,,,,,,,,,,199543,20,2022-01-28_14h32.38.502,lexical_decision_task_DD_L2,2021.2.3,MacIntel,62.5,,,,,,,,,,,0.728,1,,,,,,,,,,,,,,,,,,,,,,,,0.351111111,0.282222222,0,0,0,,,,,,,PEBBLE,LB,z,y,./images/PEBBLELB.png,,,,,,,,z,1,0.728,,,,,,,,0,12,12,166,1
,,,,,,,,,,,,,,,,,199543,20,2022-01-28_14h32.38.502,lexical_decision_task_DD_L2,2021.2.3,MacIntel,62.5,,,,,,,,,,,0.677,0,,,,,,,,,,,,,,,,,,,,,,,,0.351111111,0.282222222,0,0,0,,,,,,,PIMPLE,C,m,y,./images/PIMPLE.png,,,,,,,,z,0,0.677,,,,,,,,0,13,13,71,1
,,,,,,,,,,,,,,,,,199543,20,2022-01-28_14h32.38.502,lexical_decision_task_DD_L2,2021.2.3,MacIntel,62.5,,,,,,,,,,,0.756,0,,,,,,,,,,,,,,,,,,,,,,,,0.351111111,0.282222222,0,0,0,,,,,,,PASTA,C,m,y,./images/PASTA.png,,,,,,,,z,0,0.756,,,,,,,,0,14,14,5,1
,,,,,,,,,,,,,,,,,199543,20,2022-01-28_14h32.38.502,lexical_decision_task_DD_L2,2021.2.3,MacIntel,62.5,,,,,,,,,,,0.808,1,,,,,,,,,,,,,,,,,,,,,,,,0.351111111,0.282222222,0,0,0,,,,,,,DIVER,HB,z,y,./images/DIVERHB.png,,,,,,,,z,1,0.808,,,,,,,,0,15,15,93,1
,,,,,,,,,,,,,,,,,199543,20,2022-01-28_14h32.38.502,lexical_decision_task_DD_L2,2021.2.3,MacIntel,62.5,,,,,,,,,,,0.582,1,,,,,,,,,,,,,,,,,,,,,,,,0.351111111,0.282222222,0,0,0,,,,,,,JAGUAR,HB,m,y,./images/JAGUARHB.png,,,,,,,,m,1,0.582,,,,,,,,0,16,16,18,1
,,,,,,,,,,,,,,,,,199543,20,2022-01-28_14h32.38.502,lexical_decision_task_DD_L2,2021.2.3,MacIntel,62.5,,,,,,,,,,,1.545,1,,,,,,,,,,,,,,,,,,,,,,,,0.351111111,0.282222222,0,0,0,,,,,,,FLESH,HB,z,y,./images/FLESHHB.png,,,,,,,,z,1,1.545,,,,,,,,0,17,17,108,1
,,,,,,,,,,,,,,,,,199543,20,2022-01-28_14h32.38.502,lexical_decision_task_DD_L2,2021.2.3,MacIntel,62.5,,,,,,,,,,,0.983,0,,,,,,,,,,,,,,,,,,,,,,,,0.351111111,0.282222222,0,0,0,,,,,,,SLOPE,HB,z,y,./images/SLOPEHB.png,,,,,,,,m,0,0.983,,,,,,,,0,18,18,114,1
,,,,,,,,,,,,,,,,,199543,20,2022-01-28_14h32.38.502,lexical_decision_task_DD_L2,2021.2.3,MacIntel,62.5,,,,,,,,,,,0.692,0,,,,,,,,,,,,,,,,,,,,,,,,0.351111111,0.282222222,0,0,0,,,,,,,SAUCE,HB,z,y,./images/SAUCEHB.png,,,,,,,,m,0,0.692,,,,,,,,0,19,19,135,1
,,,,,,,,,,,,,,,,,199543,20,2022-01-28_14h32.38.502,lexical_decision_task_DD_L2,2021.2.3,MacIntel,62.5,,,,,,,,,,,0.641,0,,,,,,,,,,,,,,,,,,,,,,,,0.351111111,0.282222222,0,0,0,,,,,,,CHAIN,HB,z,y,./images/CHAINHB.png,,,,,,,,m,0,0.641,,,,,,,,0,20,20,126,1
,,,,,,,,,,,,,,,,,199543,20,2022-01-28_14h32.38.502,lexical_decision_task_DD_L2,2021.2.3,MacIntel,62.5,,,,,,,,,,,0.917,1,,,,,,,,,,,,,,,,,,,,,,,,0.351111111,0.282222222,0,0,0,,,,,,,SCREW,HB,m,y,./images/SCREWHB.png,,,,,,,,m,1,0.917,,,,,,,,0,21,21,24,1
,,,,,,,,,,,,,,,,,199543,20,2022-01-28_14h32.38.502,lexical_decision_task_DD_L2,2021.2.3,MacIntel,62.5,,,,,,,,,,,0.797,1,,,,,,,,,,,,,,,,,,,,,,,,0.351111111,0.282222222,0,0,0,,,,,,,WALRUS,C,m,y,./images/WALRUS.png,,,,,,,,m,1,0.797,,,,,,,,0,22,22,23,1
,,,,,,,,,,,,,,,,,199543,20,2022-01-28_14h32.38.502,lexical_decision_task_DD_L2,2021.2.3,MacIntel,62.5,,,,,,,,,,,1,1,,,,,,,,,,,,,,,,,,,,,,,,0.351111111,0.282222222,0,0,0,,,,,,,TRIPOD,HB,m,y,./images/TRIPODHB.png,,,,,,,,m,1,1,,,,,,,,0,23,23,54,1
,,,,,,,,,,,,,,,,,199543,20,2022-01-28_14h32.38.502,lexical_decision_task_DD_L2,2021.2.3,MacIntel,62.5,,,,,,,,,,,0.649,0,,,,,,,,,,,,,,,,,,,,,,,,0.351111111,0.282222222,0,0,0,,,,,,,BLOKE,HB,z,y,./images/BLOKEHB.png,,,,,,,,m,0,0.649,,,,,,,,0,24,24,96,1
,,,,,,,,,,,,,,,,,199543,20,2022-01-28_14h32.38.502,lexical_decision_task_DD_L2,2021.2.3,MacIntel,62.5,,,,,,,,,,,0.558,0,,,,,,,,,,,,,,,,,,,,,,,,0.351111111,0.282222222,0,0,0,,,,,,,PILOT,C,z,y,./images/PILOT.png,,,,,,,,m,0,0.558,,,,,,,,0,25,25,134,1
,,,,,,,,,,,,,,,,,199543,20,2022-01-28_14h32.38.502,lexical_decision_task_DD_L2,2021.2.3,MacIntel,62.5,,,,,,,,,,,0.545,0,,,,,,,,,,,,,,,,,,,,,,,,0.351111111,0.282222222,0,0,0,,,,,,,MAMMAL,C,z,y,./images/MAMMAL.png,,,,,,,,m,0,0.545,,,,,,,,0,26,26,146,1
,,,,,,,,,,,,,,,,,199543,20,2022-01-28_14h32.38.502,lexical_decision_task_DD_L2,2021.2.3,MacIntel,62.5,,,,,,,,,,,0.541,0,,,,,,,,,,,,,,,,,,,,,,,,0.351111111,0.282222222,0,0,0,,,,,,,STEAK,LB,z,y,./images/STEAKLB.png,,,,,,,,m,0,0.541,,,,,,,,0,27,27,115,1
,,,,,,,,,,,,,,,,,199543,20,2022-01-28_14h32.38.502,lexical_decision_task_DD_L2,2021.2.3,MacIntel,62.5,,,,,,,,,,,0.615,1,,,,,,,,,,,,,,,,,,,,,,,,0.351111111,0.282222222,0,0,0,,,,,,,KIDNEY,HB,m,y,./images/KIDNEYHB.png,,,,,,,,m,1,0.615,,,,,,,,0,28,28,21,1
,,,,,,,,,,,,,,,,,199543,20,2022-01-28_14h32.38.502,lexical_decision_task_DD_L2,2021.2.3,MacIntel,62.5,,,,,,,,,,,0.807,0,,,,,,,,,,,,,,,,,,,,,,,,0.351111111,0.282222222,0,0,0,,,,,,,TOMATO,HB,m,y,./images/TOMATOHB.png,,,,,,,,z,0,0.807,,,,,,,,0,29,29,0,1
,,,,,,,,,,,,,,,,,199543,20,2022-01-28_14h32.38.502,lexical_decision_task_DD_L2,2021.2.3,MacIntel,62.5,,,,,,,,,,,0.602,0,,,,,,,,,,,,,,,,,,,,,,,,0.351111111,0.282222222,0,0,0,,,,,,,WEASEL,C,m,y,./images/WEASEL.png,,,,,,,,z,0,0.602,,,,,,,,0,30,30,80,1
,,,,,,,,,,,,,,,,,199543,20,2022-01-28_14h32.38.502,lexical_decision_task_DD_L2,2021.2.3,MacIntel,62.5,,,,,,,,,,,0.773,1,,,,,,,,,,,,,,,,,,,,,,,,0.351111111,0.282222222,0,0,0,,,,,,,CEMENT,C,m,y,./images/CEMENT.png,,,,,,,,m,1,0.773,,,,,,,,0,31,31,74,1
,,,,,,,,,,,,,,,,,199543,20,2022-01-28_14h32.38.502,lexical_decision_task_DD_L2,2021.2.3,MacIntel,62.5,,,,,,,,,,,0.733,1,,,,,,,,,,,,,,,,,,,,,,,,0.351111111,0.282222222,0,0,0,,,,,,,WHISKY,C,z,y,./images/WHISKY.png,,,,,,,,z,1,0.733,,,,,,,,0,32,32,167,1
,,,,,,,,,,,,,,,,,199543,20,2022-01-28_14h32.38.502,lexical_decision_task_DD_L2,2021.2.3,MacIntel,62.5,,,,,,,,,,,0.882,1,,,,,,,,,,,,,,,,,,,,,,,,0.351111111,0.282222222,0,0,0,,,,,,,SMOKER,C,m,y,./images/SMOKER.png,,,,,,,,m,1,0.882,,,,,,,,0,33,33,26,1
,,,,,,,,,,,,,,,,,199543,20,2022-01-28_14h32.38.502,lexical_decision_task_DD_L2,2021.2.3,MacIntel,62.5,,,,,,,,,,,0.461,1,,,,,,,,,,,,,,,,,,,,,,,,0.351111111,0.282222222,0,0,0,,,,,,,WRIST,LB,m,y,./images/WRISTLB.png,,,,,,,,m,1,0.461,,,,,,,,0,34,34,25,1
,,,,,,,,,,,,,,,,,199543,20,2022-01-28_14h32.38.502,lexical_decision_task_DD_L2,2021.2.3,MacIntel,62.5,,,,,,,,,,,0.626,0,,,,,,,,,,,,,,,,,,,,,,,,0.351111111,0.282222222,0,0,0,,,,,,,TORCH,C,m,y,./images/TORCH.png,,,,,,,,z,0,0.626,,,,,,,,0,35,35,68,1
,,,,,,,,,,,,,,,,,199543,20,2022-01-28_14h32.38.502,lexical_decision_task_DD_L2,2021.2.3,MacIntel,62.5,,,,,,,,,,,1.092,1,,,,,,,,,,,,,,,,,,,,,,,,0.351111111,0.282222222,0,0,0,,,,,,,CASINO,LB,z,y,./images/CASINOLB.png,,,,,,,,z,1,1.092,,,,,,,,0,36,36,112,1
,,,,,,,,,,,,,,,,,199543,20,2022-01-28_14h32.38.502,lexical_decision_task_DD_L2,2021.2.3,MacIntel,62.5,,,,,,,,,,,1.055,0,,,,,,,,,,,,,,,,,,,,,,,,0.351111111,0.282222222,0,0,0,,,,,,,TOWEL,LB,z,y,./images/TOWELLB.png,,,,,,,,m,0,1.055,,,,,,,,0,37,37,85,1
,,,,,,,,,,,,,,,,,199543,20,2022-01-28_14h32.38.502,lexical_decision_task_DD_L2,2021.2.3,MacIntel,62.5,,,,,,,,,,,1.123,1,,,,,,,,,,,,,,,,,,,,,,,,0.351111111,0.282222222,0,0,0,,,,,,,LAGOON,C,z,y,./images/LAGOON.png,,,,,,,,z,1,1.123,,,,,,,,0,38,38,131,1
,,,,,,,,,,,,,,,,,199543,20,2022-01-28_14h32.38.502,lexical_decision_task_DD_L2,2021.2.3,MacIntel,62.5,,,,,,,,,,,1.196,0,,,,,,,,,,,,,,,,,,,,,,,,0.351111111,0.282222222,0,0,0,,,,,,,BURIAL,C,m,y,./images/BURIAL.png,,,,,,,,z,0,1.196,,,,,,,,0,39,39,59,1
,,,,,,,,,,,,,,,,,199543,20,2022-01-28_14h32.38.502,lexical_decision_task_DD_L2,2021.2.3,MacIntel,62.5,,,,,,,,,,,0.849,1,,,,,,,,,,,,,,,,,,,,,,,,0.351111111,0.282222222,0,0,0,,,,,,,KITTEN,HB,m,y,./images/KITTENHB.png,,,,,,,,m,1,0.849,,,,,,,,0,40,40,45,1
,,,,,,,,,,,,,,,,,199543,20,2022-01-28_14h32.38.502,lexical_decision_task_DD_L2,2021.2.3,MacIntel,62.5,,,,,,,,,,,0.614,0,,,,,,,,,,,,,,,,,,,,,,,,0.566666667,0.2,0,0,0,space,,,,,,BAMBOO,C,z,y,./images/BAMBOO.png,4.795,,,,,,,m,0,0.614,,,,,,,,0,41,41,89,1
,,,,,,,,,,,,,,,,,199543,20,2022-01-28_14h32.38.502,lexical_decision_task_DD_L2,2021.2.3,MacIntel,62.5,,,,,,,,,,,0.765,0,,,,,,,,,,,,,,,,,,,,,,,,0.566666667,0.2,0,0,0,,,,,,,CRADLE,C,m,y,./images/CRADLE.png,,,,,,,,z,0,0.765,,,,,,,,0,42,42,20,1
,,,,,,,,,,,,,,,,,199543,20,2022-01-28_14h32.38.502,lexical_decision_task_DD_L2,2021.2.3,MacIntel,62.5,,,,,,,,,,,0.674,1,,,,,,,,,,,,,,,,,,,,,,,,0.566666667,0.2,0,0,0,,,,,,,CRUMB,C,m,y,./images/CRUMB.png,,,,,,,,m,1,0.674,,,,,,,,0,43,43,29,1
,,,,,,,,,,,,,,,,,199543,20,2022-01-28_14h32.38.502,lexical_decision_task_DD_L2,2021.2.3,MacIntel,62.5,,,,,,,,,,,0.831,1,,,,,,,,,,,,,,,,,,,,,,,,0.566666667,0.2,0,0,0,,,,,,,BANNER,LB,m,y,./images/BANNERLB.png,,,,,,,,m,1,0.831,,,,,,,,0,44,44,52,1
,,,,,,,,,,,,,,,,,199543,20,2022-01-28_14h32.38.502,lexical_decision_task_DD_L2,2021.2.3,MacIntel,62.5,,,,,,,,,,,0.849,1,,,,,,,,,,,,,,,,,,,,,,,,0.566666667,0.2,0,0,0,,,,,,,CRUST,LB,m,y,./images/CRUSTLB.png,,,,,,,,m,1,0.849,,,,,,,,0,45,45,79,1
,,,,,,,,,,,,,,,,,199543,20,2022-01-28_14h32.38.502,lexical_decision_task_DD_L2,2021.2.3,MacIntel,62.5,,,,,,,,,,,0.848,1,,,,,,,,,,,,,,,,,,,,,,,,0.566666667,0.2,0,0,0,,,,,,,POSTER,C,z,y,./images/POSTER.png,,,,,,,,z,1,0.848,,,,,,,,0,46,46,137,1
,,,,,,,,,,,,,,,,,199543,20,2022-01-28_14h32.38.502,lexical_decision_task_DD_L2,2021.2.3,MacIntel,62.5,,,,,,,,,,,0.657,1,,,,,,,,,,,,,,,,,,,,,,,,0.566666667,0.2,0,0,0,,,,,,,BEARD,C,m,y,./images/BEARD.png,,,,,,,,m,1,0.657,,,,,,,,0,47,47,2,1
,,,,,,,,,,,,,,,,,199543,20,2022-01-28_14h32.38.502,lexical_decision_task_DD_L2,2021.2.3,MacIntel,62.5,,,,,,,,,,,1.065,1,,,,,,,,,,,,,,,,,,,,,,,,0.566666667,0.2,0,0,0,,,,,,,LADDER,C,m,y,./images/LADDER.png,,,,,,,,m,1,1.065,,,,,,,,0,48,48,38,1
,,,,,,,,,,,,,,,,,199543,20,2022-01-28_14h32.38.502,lexical_decision_task_DD_L2,2021.2.3,MacIntel,62.5,,,,,,,,,,,0.76,1,,,,,,,,,,,,,,,,,,,,,,,,0.566666667,0.2,0,0,0,,,,,,,BISHOP,LB,z,y,./images/BISHOPLB.png,,,,,,,,z,1,0.76,,,,,,,,0,49,49,133,1
,,,,,,,,,,,,,,,,,199543,20,2022-01-28_14h32.38.502,lexical_decision_task_DD_L2,2021.2.3,MacIntel,62.5,,,,,,,,,,,0.524,1,,,,,,,,,,,,,,,,,,,,,,,,0.566666667,0.2,0,0,0,,,,,,,THROAT,HB,m,y,./images/THROATHB.png,,,,,,,,m,1,0.524,,,,,,,,0,50,50,36,1
,,,,,,,,,,,,,,,,,199543,20,2022-01-28_14h32.38.502,lexical_decision_task_DD_L2,2021.2.3,MacIntel,62.5,,,,,,,,,,,0.681,1,,,,,,,,,,,,,,,,,,,,,,,,0.566666667,0.2,0,0,0,,,,,,,CARPET,C,m,y,./images/CARPET.png,,,,,,,,m,1,0.681,,,,,,,,0,51,51,53,1
,,,,,,,,,,,,,,,,,199543,20,2022-01-28_14h32.38.502,lexical_decision_task_DD_L2,2021.2.3,MacIntel,62.5,,,,,,,,,,,0.729,1,,,,,,,,,,,,,,,,,,,,,,,,0.566666667,0.2,0,0,0,,,,,,,INFANT,LB,m,y,./images/INFANTLB.png,,,,,,,,m,1,0.729,,,,,,,,0,52,52,76,1
,,,,,,,,,,,,,,,,,199543,20,2022-01-28_14h32.38.502,lexical_decision_task_DD_L2,2021.2.3,MacIntel,62.5,,,,,,,,,,,0.698,1,,,,,,,,,,,,,,,,,,,,,,,,0.566666667,0.2,0,0,0,,,,,,,CLOUD,C,z,y,./images/CLOUD.png,,,,,,,,z,1,0.698,,,,,,,,0,53,53,110,1
,,,,,,,,,,,,,,,,,199543,20,2022-01-28_14h32.38.502,lexical_decision_task_DD_L2,2021.2.3,MacIntel,62.5,,,,,,,,,,,0.96,0,,,,,,,,,,,,,,,,,,,,,,,,0.566666667,0.2,0,0,0,,,,,,,WAGON,LB,z,y,./images/WAGONLB.png,,,,,,,,m,0,0.96,,,,,,,,0,54,54,91,1
,,,,,,,,,,,,,,,,,199543,20,2022-01-28_14h32.38.502,lexical_decision_task_DD_L2,2021.2.3,MacIntel,62.5,,,,,,,,,,,0.898,0,,,,,,,,,,,,,,,,,,,,,,,,0.566666667,0.2,0,0,0,,,,,,,MUMMY,LB,z,y,./images/MUMMYLB.png,,,,,,,,m,0,0.898,,,,,,,,0,55,55,130,1
,,,,,,,,,,,,,,,,,199543,20,2022-01-28_14h32.38.502,lexical_decision_task_DD_L2,2021.2.3,MacIntel,62.5,,,,,,,,,,,0.673,0,,,,,,,,,,,,,,,,,,,,,,,,0.566666667,0.2,0,0,0,,,,,,,MIDGET,LB,z,y,./images/MIDGETLB.png,,,,,,,,m,0,0.673,,,,,,,,0,56,56,160,1
,,,,,,,,,,,,,,,,,199543,20,2022-01-28_14h32.38.502,lexical_decision_task_DD_L2,2021.2.3,MacIntel,62.5,,,,,,,,,,,0.732,1,,,,,,,,,,,,,,,,,,,,,,,,0.566666667,0.2,0,0,0,,,,,,,MELON,LB,m,y,./images/MELONLB.png,,,,,,,,m,1,0.732,,,,,,,,0,57,57,22,1
,,,,,,,,,,,,,,,,,199543,20,2022-01-28_14h32.38.502,lexical_decision_task_DD_L2,2021.2.3,MacIntel,62.5,,,,,,,,,,,0.709,1,,,,,,,,,,,,,,,,,,,,,,,,0.566666667,0.2,0,0,0,,,,,,,BUBBLE,C,z,y,./images/BUBBLE.png,,,,,,,,z,1,0.709,,,,,,,,0,58,58,155,1
,,,,,,,,,,,,,,,,,199543,20,2022-01-28_14h32.38.502,lexical_decision_task_DD_L2,2021.2.3,MacIntel,62.5,,,,,,,,,,,0.727,1,,,,,,,,,,,,,,,,,,,,,,,,0.566666667,0.2,0,0,0,,,,,,,QUILL,LB,m,y,./images/QUILLLB.png,,,,,,,,m,1,0.727,,,,,,,,0,59,59,31,1
,,,,,,,,,,,,,,,,,199543,20,2022-01-28_14h32.38.502,lexical_decision_task_DD_L2,2021.2.3,MacIntel,62.5,,,,,,,,,,,0.683,0,,,,,,,,,,,,,,,,,,,,,,,,0.566666667,0.2,0,0,0,,,,,,,DOUGH,LB,m,y,./images/DOUGHLB.png,,,,,,,,z,0,0.683,,,,,,,,0,60,60,19,1
,,,,,,,,,,,,,,,,,199543,20,2022-01-28_14h32.38.502,lexical_decision_task_DD_L2,2021.2.3,MacIntel,62.5,,,,,,,,,,,0.7,1,,,,,,,,,,,,,,,,,,,,,,,,0.566666667,0.2,0,0,0,,,,,,,BUNNY,LB,z,y,./images/BUNNYLB.png,,,,,,,,z,1,0.7,,,,,,,,0,61,61,97,1
,,,,,,,,,,,,,,,,,199543,20,2022-01-28_14h32.38.502,lexical_decision_task_DD_L2,2021.2.3,MacIntel,62.5,,,,,,,,,,,0.601,1,,,,,,,,,,,,,,,,,,,,,,,,0.566666667,0.2,0,0,0,,,,,,,SPINE,C,z,y,./images/SPINE.png,,,,,,,,z,1,0.601,,,,,,,,0,62,62,149,1
,,,,,,,,,,,,,,,,,199543,20,2022-01-28_14h32.38.502,lexical_decision_task_DD_L2,2021.2.3,MacIntel,62.5,,,,,,,,,,,1.934,1,,,,,,,,,,,,,,,,,,,,,,,,0.566666667,0.2,0,0,0,,,,,,,SHELF,HB,m,y,./images/SHELFHB.png,,,,,,,,m,1,1.934,,,,,,,,0,63,63,39,1
,,,,,,,,,,,,,,,,,199543,20,2022-01-28_14h32.38.502,lexical_decision_task_DD_L2,2021.2.3,MacIntel,62.5,,,,,,,,,,,1.425,1,,,,,,,,,,,,,,,,,,,,,,,,0.566666667,0.2,0,0,0,,,,,,,FLASK,HB,z,y,./images/FLASKHB.png,,,,,,,,z,1,1.425,,,,,,,,0,64,64,156,1
,,,,,,,,,,,,,,,,,199543,20,2022-01-28_14h32.38.502,lexical_decision_task_DD_L2,2021.2.3,MacIntel,62.5,,,,,,,,,,,0.707,1,,,,,,,,,,,,,,,,,,,,,,,,0.566666667,0.2,0,0,0,,,,,,,URINE,LB,m,y,./images/URINELB.png,,,,,,,,m,1,0.707,,,,,,,,0,65,65,70,1
,,,,,,,,,,,,,,,,,199543,20,2022-01-28_14h32.38.502,lexical_decision_task_DD_L2,2021.2.3,MacIntel,62.5,,,,,,,,,,,0.809,1,,,,,,,,,,,,,,,,,,,,,,,,0.566666667,0.2,0,0,0,,,,,,,BOXER,LB,z,y,./images/BOXERLB.png,,,,,,,,z,1,0.809,,,,,,,,0,66,66,88,1
,,,,,,,,,,,,,,,,,199543,20,2022-01-28_14h32.38.502,lexical_decision_task_DD_L2,2021.2.3,MacIntel,62.5,,,,,,,,,,,0.864,0,,,,,,,,,,,,,,,,,,,,,,,,0.566666667,0.2,0,0,0,,,,,,,GREASE,HB,m,y,./images/GREASEHB.png,,,,,,,,z,0,0.864,,,,,,,,0,67,67,15,1
,,,,,,,,,,,,,,,,,199543,20,2022-01-28_14h32.38.502,lexical_decision_task_DD_L2,2021.2.3,MacIntel,62.5,,,,,,,,,,,0.689,1,,,,,,,,,,,,,,,,,,,,,,,,0.566666667,0.2,0,0,0,,,,,,,BOILER,HB,z,y,./images/BOILERHB.png,,,,,,,,z,1,0.689,,,,,,,,0,68,68,120,1
,,,,,,,,,,,,,,,,,199543,20,2022-01-28_14h32.38.502,lexical_decision_task_DD_L2,2021.2.3,MacIntel,62.5,,,,,,,,,,,0.775,0,,,,,,,,,,,,,,,,,,,,,,,,0.566666667,0.2,0,0,0,,,,,,,BASKET,C,z,y,./images/BASKET.png,,,,,,,,m,0,0.775,,,,,,,,0,69,69,128,1
,,,,,,,,,,,,,,,,,199543,20,2022-01-28_14h32.38.502,lexical_decision_task_DD_L2,2021.2.3,MacIntel,62.5,,,,,,,,,,,1.183,1,,,,,,,,,,,,,,,,,,,,,,,,0.566666667,0.2,0,0,0,,,,,,,MUSCLE,LB,m,y,./images/MUSCLELB.png,,,,,,,,m,1,1.183,,,,,,,,0,70,70,4,1
,,,,,,,,,,,,,,,,,199543,20,2022-01-28_14h32.38.502,lexical_decision_task_DD_L2,2021.2.3,MacIntel,62.5,,,,,,,,,,,0.584,0,,,,,,,,,,,,,,,,,,,,,,,,0.566666667,0.2,0,0,0,,,,,,,TULIP,C,m,y,./images/TULIP.png,,,,,,,,z,0,0.584,,,,,,,,0,71,71,8,1
,,,,,,,,,,,,,,,,,199543,20,2022-01-28_14h32.38.502,lexical_decision_task_DD_L2,2021.2.3,MacIntel,62.5,,,,,,,,,,,0.557,0,,,,,,,,,,,,,,,,,,,,,,,,0.566666667,0.2,0,0,0,,,,,,,SUNSET,LB,m,y,./images/SUNSETLB.png,,,,,,,,z,0,0.557,,,,,,,,0,72,72,82,1
,,,,,,,,,,,,,,,,,199543,20,2022-01-28_14h32.38.502,lexical_decision_task_DD_L2,2021.2.3,MacIntel,62.5,,,,,,,,,,,0.718,1,,,,,,,,,,,,,,,,,,,,,,,,0.566666667,0.2,0,0,0,,,,,,,POKER,LB,z,y,./images/POKERLB.png,,,,,,,,z,1,0.718,,,,,,,,0,73,73,151,1
,,,,,,,,,,,,,,,,,199543,20,2022-01-28_14h32.38.502,lexical_decision_task_DD_L2,2021.2.3,MacIntel,62.5,,,,,,,,,,,0.975,1,,,,,,,,,,,,,,,,,,,,,,,,0.566666667,0.2,0,0,0,,,,,,,HEATER,C,z,y,./images/HEATER.png,,,,,,,,z,1,0.975,,,,,,,,0,74,74,140,1
,,,,,,,,,,,,,,,,,199543,20,2022-01-28_14h32.38.502,lexical_decision_task_DD_L2,2021.2.3,MacIntel,62.5,,,,,,,,,,,0.647,1,,,,,,,,,,,,,,,,,,,,,,,,0.566666667,0.2,0,0,0,,,,,,,SAUNA,HB,z,y,./images/SAUNAHB.png,,,,,,,,z,1,0.647,,,,,,,,0,75,75,117,1
,,,,,,,,,,,,,,,,,199543,20,2022-01-28_14h32.38.502,lexical_decision_task_DD_L2,2021.2.3,MacIntel,62.5,,,,,,,,,,,0.743,1,,,,,,,,,,,,,,,,,,,,,,,,0.566666667,0.2,0,0,0,,,,,,,LIZARD,C,m,y,./images/LIZARD.png,,,,,,,,m,1,0.743,,,,,,,,0,76,76,44,1
,,,,,,,,,,,,,,,,,199543,20,2022-01-28_14h32.38.502,lexical_decision_task_DD_L2,2021.2.3,MacIntel,62.5,,,,,,,,,,,0.608,1,,,,,,,,,,,,,,,,,,,,,,,,0.566666667,0.2,0,0,0,,,,,,,VALLEY,C,z,y,./images/VALLEY.png,,,,,,,,z,1,0.608,,,,,,,,0,77,77,152,1
,,,,,,,,,,,,,,,,,199543,20,2022-01-28_14h32.38.502,lexical_decision_task_DD_L2,2021.2.3,MacIntel,62.5,,,,,,,,,,,0.631,1,,,,,,,,,,,,,,,,,,,,,,,,0.566666667,0.2,0,0,0,,,,,,,SWEAT,HB,m,y,./images/SWEATHB.png,,,,,,,,m,1,0.631,,,,,,,,0,78,78,66,1
,,,,,,,,,,,,,,,,,199543,20,2022-01-28_14h32.38.502,lexical_decision_task_DD_L2,2021.2.3,MacIntel,62.5,,,,,,,,,,,0.615,1,,,,,,,,,,,,,,,,,,,,,,,,0.566666667,0.2,0,0,0,,,,,,,RULER,LB,z,y,./images/RULERLB.png,,,,,,,,z,1,0.615,,,,,,,,0,79,79,163,1
,,,,,,,,,,,,,,,,,199543,20,2022-01-28_14h32.38.502,lexical_decision_task_DD_L2,2021.2.3,MacIntel,62.5,,,,,,,,,,,0.614,0,,,,,,,,,,,,,,,,,,,,,,,,0.566666667,0.2,0,0,0,,,,,,,JELLY,LB,m,y,./images/JELLYLB.png,,,,,,,,z,0,0.614,,,,,,,,0,80,80,64,1
,,,,,,,,,,,,,,,,,199543,20,2022-01-28_14h32.38.502,lexical_decision_task_DD_L2,2021.2.3,MacIntel,62.5,,,,,,,,,,,0.53,1,,,,,,,,,,,,,,,,,,,,,,,,0.566666667,0.2,0,0,0,,,,,,,SNACK,LB,m,y,./images/SNACKLB.png,,,,,,,,m,1,0.53,,,,,,,,0,81,81,73,1
,,,,,,,,,,,,,,,,,199543,20,2022-01-28_14h32.38.502,lexical_decision_task_DD_L2,2021.2.3,MacIntel,62.5,,,,,,,,,,,0.58,1,,,,,,,,,,,,,,,,,,,,,,,,0.566666667,0.2,0,0,0,,,,,,,MEDAL,C,z,y,./images/MEDAL.png,,,,,,,,z,1,0.58,,,,,,,,0,82,82,95,1
,,,,,,,,,,,,,,,,,199543,20,2022-01-28_14h32.38.502,lexical_decision_task_DD_L2,2021.2.3,MacIntel,62.5,,,,,,,,,,,0.501,1,,,,,,,,,,,,,,,,,,,,,,,,0.566666667,0.2,0,0,0,space,,,,,,STORM,HB,m,y,./images/STORMHB.png,3.445,,,,,,,m,1,0.501,,,,,,,,0,83,83,30,1
,,,,,,,,,,,,,,,,,199543,20,2022-01-28_14h32.38.502,lexical_decision_task_DD_L2,2021.2.3,MacIntel,62.5,,,,,,,,,,,0.634,1,,,,,,,,,,,,,,,,,,,,,,,,0.566666667,0.2,0,0,0,,,,,,,PAINT,LB,m,y,./images/PAINTLB.png,,,,,,,,m,1,0.634,,,,,,,,0,84,84,7,1
,,,,,,,,,,,,,,,,,199543,20,2022-01-28_14h32.38.502,lexical_decision_task_DD_L2,2021.2.3,MacIntel,62.5,,,,,,,,,,,0.765,1,,,,,,,,,,,,,,,,,,,,,,,,0.566666667,0.2,0,0,0,,,,,,,RHINO,HB,m,y,./images/RHINOHB.png,,,,,,,,m,1,0.765,,,,,,,,0,85,85,9,1
,,,,,,,,,,,,,,,,,199543,20,2022-01-28_14h32.38.502,lexical_decision_task_DD_L2,2021.2.3,MacIntel,62.5,,,,,,,,,,,0.656,0,,,,,,,,,,,,,,,,,,,,,,,,0.566666667,0.2,0,0,0,,,,,,,CANOE,LB,z,y,./images/CANOELB.png,,,,,,,,m,0,0.656,,,,,,,,0,86,86,142,1
,,,,,,,,,,,,,,,,,199543,20,2022-01-28_14h32.38.502,lexical_decision_task_DD_L2,2021.2.3,MacIntel,62.5,,,,,,,,,,,0.816,1,,,,,,,,,,,,,,,,,,,,,,,,0.566666667,0.2,0,0,0,,,,,,,SPORT,HB,m,y,./images/SPORTHB.png,,,,,,,,m,1,0.816,,,,,,,,0,87,87,48,1
,,,,,,,,,,,,,,,,,199543,20,2022-01-28_14h32.38.502,lexical_decision_task_DD_L2,2021.2.3,MacIntel,62.5,,,,,,,,,,,0.666,0,,,,,,,,,,,,,,,,,,,,,,,,0.566666667,0.2,0,0,0,,,,,,,ALLEY,LB,z,y,./images/ALLEYLB.png,,,,,,,,m,0,0.666,,,,,,,,0,88,88,139,1
,,,,,,,,,,,,,,,,,199543,20,2022-01-28_14h32.38.502,lexical_decision_task_DD_L2,2021.2.3,MacIntel,62.5,,,,,,,,,,,0.609,0,,,,,,,,,,,,,,,,,,,,,,,,0.566666667,0.2,0,0,0,,,,,,,BUTTER,HB,z,y,./images/BUTTERHB.png,,,,,,,,m,0,0.609,,,,,,,,0,89,89,111,1
,,,,,,,,,,,,,,,,,199543,20,2022-01-28_14h32.38.502,lexical_decision_task_DD_L2,2021.2.3,MacIntel,62.5,,,,,,,,,,,0.847,0,,,,,,,,,,,,,,,,,,,,,,,,0.566666667,0.2,0,0,0,,,,,,,LLAMA,C,z,y,./images/LLAMA.png,,,,,,,,m,0,0.847,,,,,,,,0,90,90,119,1
,,,,,,,,,,,,,,,,,199543,20,2022-01-28_14h32.38.502,lexical_decision_task_DD_L2,2021.2.3,MacIntel,62.5,,,,,,,,,,,0.726,1,,,,,,,,,,,,,,,,,,,,,,,,0.566666667,0.2,0,0,0,,,,,,,DESERT,LB,z,y,./images/DESERTLB.png,,,,,,,,z,1,0.726,,,,,,,,0,91,91,136,1
,,,,,,,,,,,,,,,,,199543,20,2022-01-28_14h32.38.502,lexical_decision_task_DD_L2,2021.2.3,MacIntel,62.5,,,,,,,,,,,0.872,0,,,,,,,,,,,,,,,,,,,,,,,,0.566666667,0.2,0,0,0,,,,,,,BROOM,HB,z,y,./images/BROOMHB.png,,,,,,,,m,0,0.872,,,,,,,,0,92,92,162,1
,,,,,,,,,,,,,,,,,199543,20,2022-01-28_14h32.38.502,lexical_decision_task_DD_L2,2021.2.3,MacIntel,62.5,,,,,,,,,,,0.731,0,,,,,,,,,,,,,,,,,,,,,,,,0.566666667,0.2,0,0,0,,,,,,,BELLY,LB,m,y,./images/BELLYLB.png,,,,,,,,z,0,0.731,,,,,,,,0,93,93,10,1
,,,,,,,,,,,,,,,,,199543,20,2022-01-28_14h32.38.502,lexical_decision_task_DD_L2,2021.2.3,MacIntel,62.5,,,,,,,,,,,0.746,0,,,,,,,,,,,,,,,,,,,,,,,,0.566666667,0.2,0,0,0,,,,,,,ARTIST,LB,z,y,./images/ARTISTLB.png,,,,,,,,m,0,0.746,,,,,,,,0,94,94,145,1
,,,,,,,,,,,,,,,,,199543,20,2022-01-28_14h32.38.502,lexical_decision_task_DD_L2,2021.2.3,MacIntel,62.5,,,,,,,,,,,0.689,0,,,,,,,,,,,,,,,,,,,,,,,,0.566666667,0.2,0,0,0,,,,,,,DRILL,HB,z,y,./images/DRILLHB.png,,,,,,,,m,0,0.689,,,,,,,,0,95,95,165,1
,,,,,,,,,,,,,,,,,199543,20,2022-01-28_14h32.38.502,lexical_decision_task_DD_L2,2021.2.3,MacIntel,62.5,,,,,,,,,,,0.831,0,,,,,,,,,,,,,,,,,,,,,,,,0.566666667,0.2,0,0,0,,,,,,,BAKER,HB,z,y,./images/BAKERHB.png,,,,,,,,m,0,0.831,,,,,,,,0,96,96,147,1
,,,,,,,,,,,,,,,,,199543,20,2022-01-28_14h32.38.502,lexical_decision_task_DD_L2,2021.2.3,MacIntel,62.5,,,,,,,,,,,0.66,0,,,,,,,,,,,,,,,,,,,,,,,,0.566666667,0.2,0,0,0,,,,,,,STREAM,C,z,y,./images/STREAM.png,,,,,,,,m,0,0.66,,,,,,,,0,97,97,125,1
,,,,,,,,,,,,,,,,,199543,20,2022-01-28_14h32.38.502,lexical_decision_task_DD_L2,2021.2.3,MacIntel,62.5,,,,,,,,,,,0.843,1,,,,,,,,,,,,,,,,,,,,,,,,0.566666667,0.2,0,0,0,,,,,,,COLLAR,HB,z,y,./images/COLLARHB.png,,,,,,,,z,1,0.843,,,,,,,,0,98,98,99,1
,,,,,,,,,,,,,,,,,199543,20,2022-01-28_14h32.38.502,lexical_decision_task_DD_L2,2021.2.3,MacIntel,62.5,,,,,,,,,,,1.063,1,,,,,,,,,,,,,,,,,,,,,,,,0.566666667,0.2,0,0,0,,,,,,,LITTER,HB,m,y,./images/LITTERHB.png,,,,,,,,m,1,1.063,,,,,,,,0,99,99,78,1
,,,,,,,,,,,,,,,,,199543,20,2022-01-28_14h32.38.502,lexical_decision_task_DD_L2,2021.2.3,MacIntel,62.5,,,,,,,,,,,0.815,1,,,,,,,,,,,,,,,,,,,,,,,,0.566666667,0.2,0,0,0,,,,,,,PURSE,C,m,y,./images/PURSE.png,,,,,,,,m,1,0.815,,,,,,,,0,100,100,62,1
,,,,,,,,,,,,,,,,,199543,20,2022-01-28_14h32.38.502,lexical_decision_task_DD_L2,2021.2.3,MacIntel,62.5,,,,,,,,,,,0.729,1,,,,,,,,,,,,,,,,,,,,,,,,0.566666667,0.2,0,0,0,,,,,,,MALLET,C,m,y,./images/MALLET.png,,,,,,,,m,1,0.729,,,,,,,,0,101,101,50,1
,,,,,,,,,,,,,,,,,199543,20,2022-01-28_14h32.38.502,lexical_decision_task_DD_L2,2021.2.3,MacIntel,62.5,,,,,,,,,,,0.783,1,,,,,,,,,,,,,,,,,,,,,,,,0.566666667,0.2,0,0,0,,,,,,,TIGER,LB,z,y,./images/TIGERLB.png,,,,,,,,z,1,0.783,,,,,,,,0,102,102,121,1
,,,,,,,,,,,,,,,,,199543,20,2022-01-28_14h32.38.502,lexical_decision_task_DD_L2,2021.2.3,MacIntel,62.5,,,,,,,,,,,1.175,1,,,,,,,,,,,,,,,,,,,,,,,,0.566666667,0.2,0,0,0,,,,,,,PARCEL,HB,z,y,./images/PARCELHB.png,,,,,,,,z,1,1.175,,,,,,,,0,103,103,102,1
,,,,,,,,,,,,,,,,,199543,20,2022-01-28_14h32.38.502,lexical_decision_task_DD_L2,2021.2.3,MacIntel,62.5,,,,,,,,,,,0.826,1,,,,,,,,,,,,,,,,,,,,,,,,0.566666667,0.2,0,0,0,,,,,,,DANCER,HB,z,y,./images/DANCERHB.png,,,,,,,,z,1,0.826,,,,,,,,0,104,104,105,1
,,,,,,,,,,,,,,,,,199543,20,2022-01-28_14h32.38.502,lexical_decision_task_DD_L2,2021.2.3,MacIntel,62.5,,,,,,,,,,,1.199,1,,,,,,,,,,,,,,,,,,,,,,,,0.566666667,0.2,0,0,0,,,,,,,PENCE,LB,m,y,./images/PENCELB.png,,,,,,,,m,1,1.199,,,,,,,,0,105,105,16,1
,,,,,,,,,,,,,,,,,199543,20,2022-01-28_14h32.38.502,lexical_decision_task_DD_L2,2021.2.3,MacIntel,62.5,,,,,,,,,,,1.016,1,,,,,,,,,,,,,,,,,,,,,,,,0.566666667,0.2,0,0,0,,,,,,,BRIDE,LB,z,y,./images/BRIDELB.png,,,,,,,,z,1,1.016,,,,,,,,0,106,106,148,1
,,,,,,,,,,,,,,,,,199543,20,2022-01-28_14h32.38.502,lexical_decision_task_DD_L2,2021.2.3,MacIntel,62.5,,,,,,,,,,,1.642,0,,,,,,,,,,,,,,,,,,,,,,,,0.566666667,0.2,0,0,0,,,,,,,MUFFIN,LB,m,y,./images/MUFFINLB.png,,,,,,,,z,0,1.642,,,,,,,,0,107,107,55,1
,,,,,,,,,,,,,,,,,199543,20,2022-01-28_14h32.38.502,lexical_decision_task_DD_L2,2021.2.3,MacIntel,62.5,,,,,,,,,,,0.841,0,,,,,,,,,,,,,,,,,,,,,,,,0.566666667,0.2,0,0,0,,,,,,,PARADE,C,z,y,./images/PARADE.png,,,,,,,,m,0,0.841,,,,,,,,0,108,108,101,1
,,,,,,,,,,,,,,,,,199543,20,2022-01-28_14h32.38.502,lexical_decision_task_DD_L2,2021.2.3,MacIntel,62.5,,,,,,,,,,,0.847,1,,,,,,,,,,,,,,,,,,,,,,,,0.566666667,0.2,0,0,0,,,,,,,STATUE,HB,z,y,./images/STATUEHB.png,,,,,,,,z,1,0.847,,,,,,,,0,109,109,150,1
,,,,,,,,,,,,,,,,,199543,20,2022-01-28_14h32.38.502,lexical_decision_task_DD_L2,2021.2.3,MacIntel,62.5,,,,,,,,,,,0.714,1,,,,,,,,,,,,,,,,,,,,,,,,0.566666667,0.2,0,0,0,,,,,,,SNAKE,LB,z,y,./images/SNAKELB.png,,,,,,,,z,1,0.714,,,,,,,,0,110,110,124,1
,,,,,,,,,,,,,,,,,199543,20,2022-01-28_14h32.38.502,lexical_decision_task_DD_L2,2021.2.3,MacIntel,62.5,,,,,,,,,,,0.601,1,,,,,,,,,,,,,,,,,,,,,,,,0.566666667,0.2,0,0,0,,,,,,,SWING,LB,m,y,./images/SWINGLB.png,,,,,,,,m,1,0.601,,,,,,,,0,111,111,40,1
,,,,,,,,,,,,,,,,,199543,20,2022-01-28_14h32.38.502,lexical_decision_task_DD_L2,2021.2.3,MacIntel,62.5,,,,,,,,,,,0.666,0,,,,,,,,,,,,,,,,,,,,,,,,0.566666667,0.2,0,0,0,,,,,,,FARMER,C,m,y,./images/FARMER.png,,,,,,,,z,0,0.666,,,,,,,,0,112,112,65,1
,,,,,,,,,,,,,,,,,199543,20,2022-01-28_14h32.38.502,lexical_decision_task_DD_L2,2021.2.3,MacIntel,62.5,,,,,,,,,,,0.675,1,,,,,,,,,,,,,,,,,,,,,,,,0.566666667,0.2,0,0,0,,,,,,,BONNET,C,m,y,./images/BONNET.png,,,,,,,,m,1,0.675,,,,,,,,0,113,113,11,1
,,,,,,,,,,,,,,,,,199543,20,2022-01-28_14h32.38.502,lexical_decision_task_DD_L2,2021.2.3,MacIntel,62.5,,,,,,,,,,,0.58,1,,,,,,,,,,,,,,,,,,,,,,,,0.566666667,0.2,0,0,0,,,,,,,SQUARE,HB,m,y,./images/SQUAREHB.png,,,,,,,,m,1,0.58,,,,,,,,0,114,114,6,1
,,,,,,,,,,,,,,,,,199543,20,2022-01-28_14h32.38.502,lexical_decision_task_DD_L2,2021.2.3,MacIntel,62.5,,,,,,,,,,,0.75,1,,,,,,,,,,,,,,,,,,,,,,,,0.566666667,0.2,0,0,0,,,,,,,BIRTH,LB,m,y,./images/BIRTHLB.png,,,,,,,,m,1,0.75,,,,,,,,0,115,115,37,1
,,,,,,,,,,,,,,,,,199543,20,2022-01-28_14h32.38.502,lexical_decision_task_DD_L2,2021.2.3,MacIntel,62.5,,,,,,,,,,,0.773,0,,,,,,,,,,,,,,,,,,,,,,,,0.566666667,0.2,0,0,0,,,,,,,MOSQUE,LB,m,y,./images/MOSQUELB.png,,,,,,,,z,0,0.773,,,,,,,,0,116,116,43,1
,,,,,,,,,,,,,,,,,199543,20,2022-01-28_14h32.38.502,lexical_decision_task_DD_L2,2021.2.3,MacIntel,62.5,,,,,,,,,,,0.842,1,,,,,,,,,,,,,,,,,,,,,,,,0.566666667,0.2,0,0,0,,,,,,,CURRY,HB,z,y,./images/CURRYHB.png,,,,,,,,z,1,0.842,,,,,,,,0,117,117,144,1
,,,,,,,,,,,,,,,,,199543,20,2022-01-28_14h32.38.502,lexical_decision_task_DD_L2,2021.2.3,MacIntel,62.5,,,,,,,,,,,0.95,1,,,,,,,,,,,,,,,,,,,,,,,,0.566666667,0.2,0,0,0,,,,,,,PACKET,C,m,y,./images/PACKET.png,,,,,,,,m,1,0.95,,,,,,,,0,118,118,56,1
,,,,,,,,,,,,,,,,,199543,20,2022-01-28_14h32.38.502,lexical_decision_task_DD_L2,2021.2.3,MacIntel,62.5,,,,,,,,,,,0.808,1,,,,,,,,,,,,,,,,,,,,,,,,0.566666667,0.2,0,0,0,,,,,,,MONKEY,HB,z,y,./images/MONKEYHB.png,,,,,,,,z,1,0.808,,,,,,,,0,119,119,129,1
,,,,,,,,,,,,,,,,,199543,20,2022-01-28_14h32.38.502,lexical_decision_task_DD_L2,2021.2.3,MacIntel,62.5,,,,,,,,,,,0.882,0,,,,,,,,,,,,,,,,,,,,,,,,0.566666667,0.2,0,0,0,,,,,,,GRAPE,LB,z,y,./images/GRAPELB.png,,,,,,,,m,0,0.882,,,,,,,,0,120,120,100,1
,,,,,,,,,,,,,,,,,199543,20,2022-01-28_14h32.38.502,lexical_decision_task_DD_L2,2021.2.3,MacIntel,62.5,,,,,,,,,,,0.691,0,,,,,,,,,,,,,,,,,,,,,,,,0.566666667,0.2,0,0,0,,,,,,,FERRY,HB,z,y,./images/FERRYHB.png,,,,,,,,m,0,0.691,,,,,,,,0,121,121,141,1
,,,,,,,,,,,,,,,,,199543,20,2022-01-28_14h32.38.502,lexical_decision_task_DD_L2,2021.2.3,MacIntel,62.5,,,,,,,,,,,0.748,1,,,,,,,,,,,,,,,,,,,,,,,,0.566666667,0.2,0,0,0,,,,,,,PEARL,LB,m,y,./images/PEARLLB.png,,,,,,,,m,1,0.748,,,,,,,,0,122,122,46,1
,,,,,,,,,,,,,,,,,199543,20,2022-01-28_14h32.38.502,lexical_decision_task_DD_L2,2021.2.3,MacIntel,62.5,,,,,,,,,,,0.848,0,,,,,,,,,,,,,,,,,,,,,,,,0.566666667,0.2,0,0,0,,,,,,,STOOL,LB,z,y,./images/STOOLLB.png,,,,,,,,m,0,0.848,,,,,,,,0,123,123,127,1
,,,,,,,,,,,,,,,,,199543,20,2022-01-28_14h32.38.502,lexical_decision_task_DD_L2,2021.2.3,MacIntel,62.5,,,,,,,,,,,0.709,1,,,,,,,,,,,,,,,,,,,,,,,,0.566666667,0.2,0,0,0,,,,,,,FALCON,LB,m,y,./images/FALCONLB.png,,,,,,,,m,1,0.709,,,,,,,,0,124,124,28,1
,,,,,,,,,,,,,,,,,199543,20,2022-01-28_14h32.38.502,lexical_decision_task_DD_L2,2021.2.3,MacIntel,62.5,,,,,,,,,,,0.531,0,,,,,,,,,,,,,,,,,,,,,,,,0.566666667,0.2,0,0,0,space,,,,,,WALNUT,HB,z,y,./images/WALNUTHB.png,2.115,,,,,,,m,0,0.531,,,,,,,,0,125,125,84,1
,,,,,,,,,,,,,,,,,199543,20,2022-01-28_14h32.38.502,lexical_decision_task_DD_L2,2021.2.3,MacIntel,62.5,,,,,,,,,,,0.965,1,,,,,,,,,,,,,,,,,,,,,,,,0.566666667,0.2,0,0,0,,,,,,,PLANET,C,z,y,./images/PLANET.png,,,,,,,,z,1,0.965,,,,,,,,0,126,126,164,1
,,,,,,,,,,,,,,,,,199543,20,2022-01-28_14h32.38.502,lexical_decision_task_DD_L2,2021.2.3,MacIntel,62.5,,,,,,,,,,,0.741,0,,,,,,,,,,,,,,,,,,,,,,,,0.566666667,0.2,0,0,0,,,,,,,CANDY,HB,z,y,./images/CANDYHB.png,,,,,,,,m,0,0.741,,,,,,,,0,127,127,123,1
,,,,,,,,,,,,,,,,,199543,20,2022-01-28_14h32.38.502,lexical_decision_task_DD_L2,2021.2.3,MacIntel,62.5,,,,,,,,,,,1.036,0,,,,,,,,,,,,,,,,,,,,,,,,0.566666667,0.2,0,0,0,,,,,,,SAILOR,LB,m,y,./images/SAILORLB.png,,,,,,,,z,0,1.036,,,,,,,,0,128,128,67,1
,,,,,,,,,,,,,,,,,199543,20,2022-01-28_14h32.38.502,lexical_decision_task_DD_L2,2021.2.3,MacIntel,62.5,,,,,,,,,,,0.965,1,,,,,,,,,,,,,,,,,,,,,,,,0.566666667,0.2,0,0,0,,,,,,,COOKER,HB,m,y,./images/COOKERHB.png,,,,,,,,m,1,0.965,,,,,,,,0,129,129,69,1
,,,,,,,,,,,,,,,,,199543,20,2022-01-28_14h32.38.502,lexical_decision_task_DD_L2,2021.2.3,MacIntel,62.5,,,,,,,,,,,0.743,1,,,,,,,,,,,,,,,,,,,,,,,,0.566666667,0.2,0,0,0,,,,,,,BANANA,LB,z,y,./images/BANANALB.png,,,,,,,,z,1,0.743,,,,,,,,0,130,130,154,1
,,,,,,,,,,,,,,,,,199543,20,2022-01-28_14h32.38.502,lexical_decision_task_DD_L2,2021.2.3,MacIntel,62.5,,,,,,,,,,,0.858,1,,,,,,,,,,,,,,,,,,,,,,,,0.566666667,0.2,0,0,0,,,,,,,JUMPER,C,z,y,./images/JUMPER.png,,,,,,,,z,1,0.858,,,,,,,,0,131,131,158,1
,,,,,,,,,,,,,,,,,199543,20,2022-01-28_14h32.38.502,lexical_decision_task_DD_L2,2021.2.3,MacIntel,62.5,,,,,,,,,,,0.647,1,,,,,,,,,,,,,,,,,,,,,,,,0.566666667,0.2,0,0,0,,,,,,,ATTIC,HB,m,y,./images/ATTICHB.png,,,,,,,,m,1,0.647,,,,,,,,0,132,132,27,1
,,,,,,,,,,,,,,,,,199543,20,2022-01-28_14h32.38.502,lexical_decision_task_DD_L2,2021.2.3,MacIntel,62.5,,,,,,,,,,,0.891,1,,,,,,,,,,,,,,,,,,,,,,,,0.566666667,0.2,0,0,0,,,,,,,ENGINE,C,z,y,./images/ENGINE.png,,,,,,,,z,1,0.891,,,,,,,,0,133,133,122,1
,,,,,,,,,,,,,,,,,199543,20,2022-01-28_14h32.38.502,lexical_decision_task_DD_L2,2021.2.3,MacIntel,62.5,,,,,,,,,,,0.743,1,,,,,,,,,,,,,,,,,,,,,,,,0.566666667,0.2,0,0,0,,,,,,,PEACH,C,m,y,./images/PEACH.png,,,,,,,,m,1,0.743,,,,,,,,0,134,134,35,1
,,,,,,,,,,,,,,,,,199543,20,2022-01-28_14h32.38.502,lexical_decision_task_DD_L2,2021.2.3,MacIntel,62.5,,,,,,,,,,,0.574,1,,,,,,,,,,,,,,,,,,,,,,,,0.566666667,0.2,0,0,0,,,,,,,CANDLE,LB,m,y,./images/CANDLELB.png,,,,,,,,m,1,0.574,,,,,,,,0,135,135,61,1
,,,,,,,,,,,,,,,,,199543,20,2022-01-28_14h32.38.502,lexical_decision_task_DD_L2,2021.2.3,MacIntel,62.5,,,,,,,,,,,0.642,1,,,,,,,,,,,,,,,,,,,,,,,,0.566666667,0.2,0,0,0,,,,,,,COUCH,C,m,y,./images/COUCH.png,,,,,,,,m,1,0.642,,,,,,,,0,136,136,77,1
,,,,,,,,,,,,,,,,,199543,20,2022-01-28_14h32.38.502,lexical_decision_task_DD_L2,2021.2.3,MacIntel,62.5,,,,,,,,,,,0.593,1,,,,,,,,,,,,,,,,,,,,,,,,0.566666667,0.2,0,0,0,,,,,,,MOOSE,HB,m,y,./images/MOOSEHB.png,,,,,,,,m,1,0.593,,,,,,,,0,137,137,57,1
,,,,,,,,,,,,,,,,,199543,20,2022-01-28_14h32.38.502,lexical_decision_task_DD_L2,2021.2.3,MacIntel,62.5,,,,,,,,,,,0.536,1,,,,,,,,,,,,,,,,,,,,,,,,0.566666667,0.2,0,0,0,,,,,,,SHORE,HB,m,y,./images/SHOREHB.png,,,,,,,,m,1,0.536,,,,,,,,0,138,138,12,1
,,,,,,,,,,,,,,,,,199543,20,2022-01-28_14h32.38.502,lexical_decision_task_DD_L2,2021.2.3,MacIntel,62.5,,,,,,,,,,,0.49,1,,,,,,,,,,,,,,,,,,,,,,,,0.566666667,0.2,0,0,0,,,,,,,PLANK,LB,m,y,./images/PLANKLB.png,,,,,,,,m,1,0.49,,,,,,,,0,139,139,1,1
,,,,,,,,,,,,,,,,,199543,20,2022-01-28_14h32.38.502,lexical_decision_task_DD_L2,2021.2.3,MacIntel,62.5,,,,,,,,,,,0.924,0,,,,,,,,,,,,,,,,,,,,,,,,0.566666667,0.2,0,0,0,,,,,,,CHALK,LB,z,y,./images/CHALKLB.png,,,,,,,,m,0,0.924,,,,,,,,0,140,140,109,1
,,,,,,,,,,,,,,,,,199543,20,2022-01-28_14h32.38.502,lexical_decision_task_DD_L2,2021.2.3,MacIntel,62.5,,,,,,,,,,,0.605,0,,,,,,,,,,,,,,,,,,,,,,,,0.566666667,0.2,0,0,0,,,,,,,CLOWN,LB,z,y,./images/CLOWNLB.png,,,,,,,,m,0,0.605,,,,,,,,0,141,141,106,1
,,,,,,,,,,,,,,,,,199543,20,2022-01-28_14h32.38.502,lexical_decision_task_DD_L2,2021.2.3,MacIntel,62.5,,,,,,,,,,,0.547,0,,,,,,,,,,,,,,,,,,,,,,,,0.566666667,0.2,0,0,0,,,,,,,WHEEL,C,z,y,./images/WHEEL.png,,,,,,,,m,0,0.547,,,,,,,,0,142,142,161,1
,,,,,,,,,,,,,,,,,199543,20,2022-01-28_14h32.38.502,lexical_decision_task_DD_L2,2021.2.3,MacIntel,62.5,,,,,,,,,,,0.807,1,,,,,,,,,,,,,,,,,,,,,,,,0.566666667,0.2,0,0,0,,,,,,,DONKEY,LB,z,y,./images/DONKEYLB.png,,,,,,,,z,1,0.807,,,,,,,,0,143,143,103,1
,,,,,,,,,,,,,,,,,199543,20,2022-01-28_14h32.38.502,lexical_decision_task_DD_L2,2021.2.3,MacIntel,62.5,,,,,,,,,,,0.986,0,,,,,,,,,,,,,,,,,,,,,,,,0.566666667,0.2,0,0,0,,,,,,,BERRY,C,m,y,./images/BERRY.png,,,,,,,,z,0,0.986,,,,,,,,0,144,144,47,1
,,,,,,,,,,,,,,,,,199543,20,2022-01-28_14h32.38.502,lexical_decision_task_DD_L2,2021.2.3,MacIntel,62.5,,,,,,,,,,,0.734,0,,,,,,,,,,,,,,,,,,,,,,,,0.566666667,0.2,0,0,0,,,,,,,ONION,HB,m,y,./images/ONIONHB.png,,,,,,,,z,0,0.734,,,,,,,,0,145,145,51,1
,,,,,,,,,,,,,,,,,199543,20,2022-01-28_14h32.38.502,lexical_decision_task_DD_L2,2021.2.3,MacIntel,62.5,,,,,,,,,,,0.89,1,,,,,,,,,,,,,,,,,,,,,,,,0.566666667,0.2,0,0,0,,,,,,,GARDEN,LB,z,y,./images/GARDENLB.png,,,,,,,,z,1,0.89,,,,,,,,0,146,146,94,1
,,,,,,,,,,,,,,,,,199543,20,2022-01-28_14h32.38.502,lexical_decision_task_DD_L2,2021.2.3,MacIntel,62.5,,,,,,,,,,,0.992,1,,,,,,,,,,,,,,,,,,,,,,,,0.566666667,0.2,0,0,0,,,,,,,GLOVE,LB,z,y,./images/GLOVELB.png,,,,,,,,z,1,0.992,,,,,,,,0,147,147,157,1
,,,,,,,,,,,,,,,,,199543,20,2022-01-28_14h32.38.502,lexical_decision_task_DD_L2,2021.2.3,MacIntel,62.5,,,,,,,,,,,0.797,1,,,,,,,,,,,,,,,,,,,,,,,,0.566666667,0.2,0,0,0,,,,,,,GRANNY,C,z,y,./images/GRANNY.png,,,,,,,,z,1,0.797,,,,,,,,0,148,148,104,1
,,,,,,,,,,,,,,,,,199543,20,2022-01-28_14h32.38.502,lexical_decision_task_DD_L2,2021.2.3,MacIntel,62.5,,,,,,,,,,,0.886,1,,,,,,,,,,,,,,,,,,,,,,,,0.566666667,0.2,0,0,0,,,,,,,SKIING,C,m,y,./images/SKIING.png,,,,,,,,m,1,0.886,,,,,,,,0,149,149,17,1
,,,,,,,,,,,,,,,,,199543,20,2022-01-28_14h32.38.502,lexical_decision_task_DD_L2,2021.2.3,MacIntel,62.5,,,,,,,,,,,1.603,1,,,,,,,,,,,,,,,,,,,,,,,,0.566666667,0.2,0,0,0,,,,,,,TWINS,HB,m,y,./images/TWINSHB.png,,,,,,,,m,1,1.603,,,,,,,,0,150,150,60,1
,,,,,,,,,,,,,,,,,199543,20,2022-01-28_14h32.38.502,lexical_decision_task_DD_L2,2021.2.3,MacIntel,62.5,,,,,,,,,,,0.634,0,,,,,,,,,,,,,,,,,,,,,,,,0.566666667,0.2,0,0,0,,,,,,,CRATER,HB,z,y,./images/CRATERHB.png,,,,,,,,m,0,0.634,,,,,,,,0,151,151,87,1
,,,,,,,,,,,,,,,,,199543,20,2022-01-28_14h32.38.502,lexical_decision_task_DD_L2,2021.2.3,MacIntel,62.5,,,,,,,,,,,0.657,0,,,,,,,,,,,,,,,,,,,,,,,,0.566666667,0.2,0,0,0,,,,,,,CLOTH,C,z,y,./images/CLOTH.png,,,,,,,,m,0,0.657,,,,,,,,0,152,152,107,1
,,,,,,,,,,,,,,,,,199543,20,2022-01-28_14h32.38.502,lexical_decision_task_DD_L2,2021.2.3,MacIntel,62.5,,,,,,,,,,,1.278,1,,,,,,,,,,,,,,,,,,,,,,,,0.566666667,0.2,0,0,0,,,,,,,MOTOR,LB,m,y,./images/MOTORLB.png,,,,,,,,m,1,1.278,,,,,,,,0,153,153,13,1
,,,,,,,,,,,,,,,,,199543,20,2022-01-28_14h32.38.502,lexical_decision_task_DD_L2,2021.2.3,MacIntel,62.5,,,,,,,,,,,0.642,1,,,,,,,,,,,,,,,,,,,,,,,,0.566666667,0.2,0,0,0,,,,,,,FINGER,HB,m,y,./images/FINGERHB.png,,,,,,,,m,1,0.642,,,,,,,,0,154,154,3,1
,,,,,,,,,,,,,,,,,199543,20,2022-01-28_14h32.38.502,lexical_decision_task_DD_L2,2021.2.3,MacIntel,62.5,,,,,,,,,,,0.701,1,,,,,,,,,,,,,,,,,,,,,,,,0.566666667,0.2,0,0,0,,,,,,,DRUMS,LB,m,y,./images/DRUMSLB.png,,,,,,,,m,1,0.701,,,,,,,,0,155,155,49,1
,,,,,,,,,,,,,,,,,199543,20,2022-01-28_14h32.38.502,lexical_decision_task_DD_L2,2021.2.3,MacIntel,62.5,,,,,,,,,,,0.799,0,,,,,,,,,,,,,,,,,,,,,,,,0.566666667,0.2,0,0,0,,,,,,,STAIN,HB,z,y,./images/STAINHB.png,,,,,,,,m,0,0.799,,,,,,,,0,156,156,90,1
,,,,,,,,,,,,,,,,,199543,20,2022-01-28_14h32.38.502,lexical_decision_task_DD_L2,2021.2.3,MacIntel,62.5,,,,,,,,,,,0.732,1,,,,,,,,,,,,,,,,,,,,,,,,0.566666667,0.2,0,0,0,,,,,,,GRAIN,HB,m,y,./images/GRAINHB.png,,,,,,,,m,1,0.732,,,,,,,,0,157,157,75,1
,,,,,,,,,,,,,,,,,199543,20,2022-01-28_14h32.38.502,lexical_decision_task_DD_L2,2021.2.3,MacIntel,62.5,,,,,,,,,,,0.717,1,,,,,,,,,,,,,,,,,,,,,,,,0.566666667,0.2,0,0,0,,,,,,,BABOON,LB,m,y,./images/BABOONLB.png,,,,,,,,m,1,0.717,,,,,,,,0,158,158,58,1
,,,,,,,,,,,,,,,,,199543,20,2022-01-28_14h32.38.502,lexical_decision_task_DD_L2,2021.2.3,MacIntel,62.5,,,,,,,,,,,0.875,1,,,,,,,,,,,,,,,,,,,,,,,,0.566666667,0.2,0,0,0,,,,,,,PICKLE,C,m,y,./images/PICKLE.png,,,,,,,,m,1,0.875,,,,,,,,0,159,159,14,1
,,,,,,,,,,,,,,,,,199543,20,2022-01-28_14h32.38.502,lexical_decision_task_DD_L2,2021.2.3,MacIntel,62.5,,,,,,,,,,,0.692,1,,,,,,,,,,,,,,,,,,,,,,,,0.566666667,0.2,0,0,0,,,,,,,HOCKEY,C,z,y,./images/HOCKEY.png,,,,,,,,z,1,0.692,,,,,,,,0,160,160,116,1
,,,,,,,,,,,,,,,,,199543,20,2022-01-28_14h32.38.502,lexical_decision_task_DD_L2,2021.2.3,MacIntel,62.5,,,,,,,,,,,0.75,1,,,,,,,,,,,,,,,,,,,,,,,,0.566666667,0.2,0,0,0,,,,,,,CHERRY,HB,z,y,./images/CHERRYHB.png,,,,,,,,z,1,0.75,,,,,,,,0,161,161,138,1
,,,,,,,,,,,,,,,,,199543,20,2022-01-28_14h32.38.502,lexical_decision_task_DD_L2,2021.2.3,MacIntel,62.5,,,,,,,,,,,1.09,0,,,,,,,,,,,,,,,,,,,,,,,,0.566666667,0.2,0,0,0,,,,,,,FOLDER,HB,m,y,./images/FOLDERHB.png,,,,,,,,z,0,1.09,,,,,,,,0,162,162,42,1
,,,,,,,,,,,,,,,,,199543,20,2022-01-28_14h32.38.502,lexical_decision_task_DD_L2,2021.2.3,MacIntel,62.5,,,,,,,,,,,0.732,0,,,,,,,,,,,,,,,,,,,,,,,,0.566666667,0.2,0,0,0,,,,,,,SHIELD,HB,z,y,./images/SHIELDHB.png,,,,,,,,m,0,0.732,,,,,,,,0,163,163,132,1
,,,,,,,,,,,,,,,,,199543,20,2022-01-28_14h32.38.502,lexical_decision_task_DD_L2,2021.2.3,MacIntel,62.5,,,,,,,,,,,0.791,1,,,,,,,,,,,,,,,,,,,,,,,,0.566666667,0.2,0,0,0,,,,,,,RAZOR,LB,z,y,./images/RAZORLB.png,,,,,,,,z,1,0.791,,,,,,,,0,164,164,118,1
,,,,,,,,,,,,,,,,,199543,20,2022-01-28_14h32.38.502,lexical_decision_task_DD_L2,2021.2.3,MacIntel,62.5,,,,,,,,,,,0.748,0,,,,,,,,,,,,,,,,,,,,,,,,0.566666667,0.2,0,0,0,,,,,,,ARROW,HB,z,y,./images/ARROWHB.png,,,,,,,,m,0,0.748,,,,,,,,0,165,165,153,1
,,,,,,,,,,,,,,,,,199543,20,2022-01-28_14h32.38.502,lexical_decision_task_DD_L2,2021.2.3,MacIntel,62.5,,,,,,,,,,,0.549,1,,,,,,,,,,,,,,,,,,,,,,,,0.566666667,0.2,0,0,0,,,,,,,STRING,C,m,y,./images/STRING.png,,,,,,,,m,1,0.549,,,,,,,,0,166,166,41,1
,,,,,,,,,,,,,,,,,199543,20,2022-01-28_14h32.38.502,lexical_decision_task_DD_L2,2021.2.3,MacIntel,62.5,,,,,,,,,,,2.357,0,,,,,,,,,,,,,,,,,,,,,,,,0.566666667,0.2,0,0,0,,,,,,,BARREL,C,m,y,./images/BARREL.png,,,,,,,,z,0,2.357,,,,,,,,0,167,167,32,1
