key_resp.keys,key_resp.rt,instr_done_touch.x,instr_done_touch.y,instr_done_touch.leftButton,instr_done_touch.midButton,instr_done_touch.rightButton,instruction_pages.thisRepN,instruction_pages.thisTrialN,instruction_pages.thisN,instruction_pages.thisIndex,instruction_pages.ran,pageN,phase,instruct_text,has_image,instruct_image,participant,age,date,expName,psychopyVersion,OS,frameRate,response.keys,response.corr,response.rt,touch_resp.x,touch_resp.y,touch_resp.leftButton,touch_resp.midButton,touch_resp.rightButton,touch_resp.time,touch_resp.clicked_name,rt,corr,practrials.thisRepN,practrials.thisTrialN,practrials.thisN,practrials.thisIndex,practrials.ran,TrialID,Target,corrAns,end_of_practice_trials_pages.thisRepN,end_of_practice_trials_pages.thisTrialN,end_of_practice_trials_pages.thisN,end_of_practice_trials_pages.thisIndex,end_of_practice_trials_pages.ran,key_resp_2.keys,key_resp_2.corr,key_resp_2.rt,targ_click.x,targ_click.y,targ_click.leftButton,targ_click.midButton,targ_click.rightButton,targ_click.time,targ_click.clicked_name,break_done_touch.x,break_done_touch.y,break_done_touch.leftButton,break_done_touch.midButton,break_done_touch.rightButton,break_done_keyboard.keys,maintrials.thisRepN,maintrials.thisTrialN,maintrials.thisN,maintrials.thisIndex,maintrials.ran,string,blur,study,lex,stim_path,break_done_keyboard.rt,test_instructions.thisRepN,test_instructions.thisTrialN,test_instructions.thisN,test_instructions.thisIndex,test_instructions.ran,instr_done_touch.clicked_name,key_resp_3.keys,key_resp_3.corr,key_resp_3.rt,test_click.x,test_click.y,test_click.leftButton,test_click.midButton,test_click.rightButton,test_click.time,test_click.clicked_name,test_phase.thisRepN,test_phase.thisTrialN,test_phase.thisN,test_phase.thisIndex,test_phase.ran
space,52.8012,0.235347222,-0.221124132,0,0,0,0,0,0,0,1,1,instructions,"INSTRUCTIONS
At the start of each trial, look at the plus sign  (+) in the center of the screen.  This tells you that a trial is about to begin and where to look. Second, the plus sign will disappear and a string of letters will appear. Your task is to determine if the string of letters is a word or not. If the item is a word press the M key (on keyboard)  or touch the word button (phone/tablet).  If the item is not a word,  press the  Z key (on keyboard)  or touch the nonword button (on phone/tablet). 
Press the space bar or touch  continue.",0,,199564,18,2022-01-29_24h05.55.585,lexical_decision_task_DD,2021.2.3,MacIntel,59.99880002,,,,,,,,,,,,,,,,,,,,,,,,,,,,,,,,,,,,,,,,,,,,,,,,,,,,,,,,,,,,,,,,,,,,,,,,,
space,15.9646,0.231536458,-0.217287326,0,0,0,0,1,1,1,1,2,instructions,"If your device has a keyboard, press the 'Z' key for nonwords and the 'M' key for words.





Press the space bar or touch the button below to continue.",0,keyboard-example.gif,199564,18,2022-01-29_24h05.55.585,lexical_decision_task_DD,2021.2.3,MacIntel,59.99880002,,,,,,,,,,,,,,,,,,,,,,,,,,,,,,,,,,,,,,,,,,,,,,,,,,,,,,,,,,,,,,,,,,,,,,,,,
space,2.885,0.23124566,-0.217287326,0,0,0,0,2,2,2,1,3,instructions,"If you are using a touchscreen only device, use the buttons on the screen. Do not use the mouse.





Press the space bar or touch the button below to continue.",0,touchscreen-example.gif,199564,18,2022-01-29_24h05.55.585,lexical_decision_task_DD,2021.2.3,MacIntel,59.99880002,,,,,,,,,,,,,,,,,,,,,,,,,,,,,,,,,,,,,,,,,,,,,,,,,,,,,,,,,,,,,,,,,,,,,,,,,
space,15.0947,0.230607639,-0.216996528,0,0,0,0,3,3,3,1,4,instructions,"It is very important that you respond as quickly and accurately as possible, as each letter string will only be on the screen for two seconds. If you do not respond within this time, the message 'Too slow!' will be displayed and the experiment will progress to the next letter string. The first 20 trials will be practice trials and you will receive feedback on your answers. 

Press the space bar or touch the button below to start the practice trials.",0,,199564,18,2022-01-29_24h05.55.585,lexical_decision_task_DD,2021.2.3,MacIntel,59.99880002,,,,,,,,,,,,,,,,,,,,,,,,,,,,,,,,,,,,,,,,,,,,,,,,,,,,,,,,,,,,,,,,,,,,,,,,,
,,,,,,,,,,,,,,,,,199564,18,2022-01-29_24h05.55.585,lexical_decision_task_DD,2021.2.3,MacIntel,59.99880002,m,1,2.833,,,,,,,,2.833,1,0,0,0,5,1,1001,OBTAIN,m,,,,,,,,,,,,,,,,,,,,,,,,,,,,,,,,,,,,,,,,,,,,,,,,,,,,,
,,,,,,,,,,,,,,,,,199564,18,2022-01-29_24h05.55.585,lexical_decision_task_DD,2021.2.3,MacIntel,59.99880002,m,1,1.3009,,,,,,,,1.3009,1,0,1,1,2,1,1001,ALMOND,m,,,,,,,,,,,,,,,,,,,,,,,,,,,,,,,,,,,,,,,,,,,,,,,,,,,,,
,,,,,,,,,,,,,,,,,199564,18,2022-01-29_24h05.55.585,lexical_decision_task_DD,2021.2.3,MacIntel,59.99880002,z,1,1.3323,,,,,,,,1.3323,1,0,2,2,10,1,1001,INLADE,z,,,,,,,,,,,,,,,,,,,,,,,,,,,,,,,,,,,,,,,,,,,,,,,,,,,,,
,,,,,,,,,,,,,,,,,199564,18,2022-01-29_24h05.55.585,lexical_decision_task_DD,2021.2.3,MacIntel,59.99880002,m,1,0.9184,,,,,,,,0.9184,1,0,3,3,1,1,1001,ADJUST,m,,,,,,,,,,,,,,,,,,,,,,,,,,,,,,,,,,,,,,,,,,,,,,,,,,,,,
,,,,,,,,,,,,,,,,,199564,18,2022-01-29_24h05.55.585,lexical_decision_task_DD,2021.2.3,MacIntel,59.99880002,m,1,0.7541,,,,,,,,0.7541,1,0,4,4,4,1,1001,SQUEAK,m,,,,,,,,,,,,,,,,,,,,,,,,,,,,,,,,,,,,,,,,,,,,,,,,,,,,,
,,,,,,,,,,,,,,,,,199564,18,2022-01-29_24h05.55.585,lexical_decision_task_DD,2021.2.3,MacIntel,59.99880002,z,1,1.1168,,,,,,,,1.1168,1,0,5,5,11,1,1001,RASHET,z,,,,,,,,,,,,,,,,,,,,,,,,,,,,,,,,,,,,,,,,,,,,,,,,,,,,,
,,,,,,,,,,,,,,,,,199564,18,2022-01-29_24h05.55.585,lexical_decision_task_DD,2021.2.3,MacIntel,59.99880002,z,1,0.9659,,,,,,,,0.9659,1,0,6,6,8,1,1001,ASLERT,z,,,,,,,,,,,,,,,,,,,,,,,,,,,,,,,,,,,,,,,,,,,,,,,,,,,,,
,,,,,,,,,,,,,,,,,199564,18,2022-01-29_24h05.55.585,lexical_decision_task_DD,2021.2.3,MacIntel,59.99880002,m,0,1.0138,,,,,,,,1.0138,0,0,7,7,15,1,1001,WHAISE,z,,,,,,,,,,,,,,,,,,,,,,,,,,,,,,,,,,,,,,,,,,,,,,,,,,,,,
,,,,,,,,,,,,,,,,,199564,18,2022-01-29_24h05.55.585,lexical_decision_task_DD,2021.2.3,MacIntel,59.99880002,m,1,0.6949,,,,,,,,0.6949,1,0,8,8,7,1,1001,VOLUME,m,,,,,,,,,,,,,,,,,,,,,,,,,,,,,,,,,,,,,,,,,,,,,,,,,,,,,
,,,,,,,,,,,,,,,,,199564,18,2022-01-29_24h05.55.585,lexical_decision_task_DD,2021.2.3,MacIntel,59.99880002,m,1,0.7023,,,,,,,,0.7023,1,0,9,9,6,1,1001,ZOMBIE,m,,,,,,,,,,,,,,,,,,,,,,,,,,,,,,,,,,,,,,,,,,,,,,,,,,,,,
,,,,,,,,,,,,,,,,,199564,18,2022-01-29_24h05.55.585,lexical_decision_task_DD,2021.2.3,MacIntel,59.99880002,z,1,0.7415,,,,,,,,0.7415,1,0,10,10,14,1,1001,THRALE,z,,,,,,,,,,,,,,,,,,,,,,,,,,,,,,,,,,,,,,,,,,,,,,,,,,,,,
,,,,,,,,,,,,,,,,,199564,18,2022-01-29_24h05.55.585,lexical_decision_task_DD,2021.2.3,MacIntel,59.99880002,z,1,0.8838,,,,,,,,0.8838,1,0,11,11,9,1,1001,FARINY,z,,,,,,,,,,,,,,,,,,,,,,,,,,,,,,,,,,,,,,,,,,,,,,,,,,,,,
,,,,,,,,,,,,,,,,,199564,18,2022-01-29_24h05.55.585,lexical_decision_task_DD,2021.2.3,MacIntel,59.99880002,m,1,0.7729,,,,,,,,0.7729,1,0,12,12,3,1,1001,MATRIX,m,,,,,,,,,,,,,,,,,,,,,,,,,,,,,,,,,,,,,,,,,,,,,,,,,,,,,
,,,,,,,,,,,,,,,,,199564,18,2022-01-29_24h05.55.585,lexical_decision_task_DD,2021.2.3,MacIntel,59.99880002,z,1,0.7662,,,,,,,,0.7662,1,0,13,13,13,1,1001,ROUPET,z,,,,,,,,,,,,,,,,,,,,,,,,,,,,,,,,,,,,,,,,,,,,,,,,,,,,,
,,,,,,,,,,,,,,,,,199564,18,2022-01-29_24h05.55.585,lexical_decision_task_DD,2021.2.3,MacIntel,59.99880002,m,1,0.841,,,,,,,,0.841,1,0,14,14,0,1,1001,UTOPIA,m,,,,,,,,,,,,,,,,,,,,,,,,,,,,,,,,,,,,,,,,,,,,,,,,,,,,,
,,,,,,,,,,,,,,,,,199564,18,2022-01-29_24h05.55.585,lexical_decision_task_DD,2021.2.3,MacIntel,59.99880002,z,1,0.9988,,,,,,,,0.9988,1,0,15,15,12,1,1001,SPRINY,z,,,,,,,,,,,,,,,,,,,,,,,,,,,,,,,,,,,,,,,,,,,,,,,,,,,,,
space,12.2917,0.226948785,-0.216983507,0,0,0,,,,,,1,end_of_practice,"You have completed the practice trials. During the experimental trials, you will not receive feedback. 
Before you begin, please ensure that you are in a comfortable and quiet location and will not be disturbed for about 15 minutes, as we cannot use your data if you do not complete all the trials. 
 When you are ready to start the experimental trials, please press space or touch the button below.",,,199564,18,2022-01-29_24h05.55.585,lexical_decision_task_DD,2021.2.3,MacIntel,59.99880002,,,,,,,,,,,,,,,,,,,,,0,0,0,0,1,,,,,,,,,,,,,,,,,,,,,,,,,,,,,,,,,,,,,,,,,,,,,,,,
,,,,,,,,,,,,,,,,,199564,18,2022-01-29_24h05.55.585,lexical_decision_task_DD,2021.2.3,MacIntel,59.99880002,,,,,,,,,,,1.9132,1,,,,,,,,,,,,,,m,1,1.9132,,,,,,,,0.226948785,-0.216983507,0,0,0,,0,0,0,19,1,DOUGH,HB,old,m,./images/DOUGHHB.png,,,,,,,,,,,,,,,,,,,,,,
,,,,,,,,,,,,,,,,,199564,18,2022-01-29_24h05.55.585,lexical_decision_task_DD,2021.2.3,MacIntel,59.99880002,,,,,,,,,,,1.6092,1,,,,,,,,,,,,,,z,1,1.6092,,,,,,,,0.226948785,-0.216983507,0,0,0,,0,1,1,88,1,GLUSH,HB,old,z,./images/GLUSHHB.png,,,,,,,,,,,,,,,,,,,,,,
,,,,,,,,,,,,,,,,,199564,18,2022-01-29_24h05.55.585,lexical_decision_task_DD,2021.2.3,MacIntel,59.99880002,,,,,,,,,,,1.2538,1,,,,,,,,,,,,,,z,1,1.2538,,,,,,,,0.226948785,-0.216983507,0,0,0,,0,2,2,108,1,GRUET,C,old,z,./images/GRUET.png,,,,,,,,,,,,,,,,,,,,,,
,,,,,,,,,,,,,,,,,199564,18,2022-01-29_24h05.55.585,lexical_decision_task_DD,2021.2.3,MacIntel,59.99880002,,,,,,,,,,,2.6766,1,,,,,,,,,,,,,,z,1,2.6766,,,,,,,,0.226948785,-0.216983507,0,0,0,,0,3,3,106,1,CLUMS,HB,old,z,./images/CLUMSHB.png,,,,,,,,,,,,,,,,,,,,,,
,,,,,,,,,,,,,,,,,199564,18,2022-01-29_24h05.55.585,lexical_decision_task_DD,2021.2.3,MacIntel,59.99880002,,,,,,,,,,,1.472,1,,,,,,,,,,,,,,m,1,1.472,,,,,,,,0.226948785,-0.216983507,0,0,0,,0,4,4,9,1,RHINO,C,old,m,./images/RHINO.png,,,,,,,,,,,,,,,,,,,,,,
,,,,,,,,,,,,,,,,,199564,18,2022-01-29_24h05.55.585,lexical_decision_task_DD,2021.2.3,MacIntel,59.99880002,,,,,,,,,,,0.917,1,,,,,,,,,,,,,,m,1,0.917,,,,,,,,0.226948785,-0.216983507,0,0,0,,0,5,5,50,1,MALLET,LB,old,m,./images/MALLETLB.png,,,,,,,,,,,,,,,,,,,,,,
,,,,,,,,,,,,,,,,,199564,18,2022-01-29_24h05.55.585,lexical_decision_task_DD,2021.2.3,MacIntel,59.99880002,,,,,,,,,,,1.7253,1,,,,,,,,,,,,,,z,1,1.7253,,,,,,,,0.226948785,-0.216983507,0,0,0,,0,6,6,113,1,LINEW,LB,old,z,./images/LINEWLB.png,,,,,,,,,,,,,,,,,,,,,,
,,,,,,,,,,,,,,,,,199564,18,2022-01-29_24h05.55.585,lexical_decision_task_DD,2021.2.3,MacIntel,59.99880002,,,,,,,,,,,1.5191,1,,,,,,,,,,,,,,m,1,1.5191,,,,,,,,0.226948785,-0.216983507,0,0,0,,0,7,7,34,1,CANYON,HB,old,m,./images/CANYONHB.png,,,,,,,,,,,,,,,,,,,,,,
,,,,,,,,,,,,,,,,,199564,18,2022-01-29_24h05.55.585,lexical_decision_task_DD,2021.2.3,MacIntel,59.99880002,,,,,,,,,,,0.9809,1,,,,,,,,,,,,,,m,1,0.9809,,,,,,,,0.226948785,-0.216983507,0,0,0,,0,8,8,3,1,FINGER,C,old,m,./images/FINGER.png,,,,,,,,,,,,,,,,,,,,,,
,,,,,,,,,,,,,,,,,199564,18,2022-01-29_24h05.55.585,lexical_decision_task_DD,2021.2.3,MacIntel,59.99880002,,,,,,,,,,,1.0608,1,,,,,,,,,,,,,,z,1,1.0608,,,,,,,,0.226948785,-0.216983507,0,0,0,,0,9,9,129,1,PRANS,C,old,z,./images/PRANS.png,,,,,,,,,,,,,,,,,,,,,,
,,,,,,,,,,,,,,,,,199564,18,2022-01-29_24h05.55.585,lexical_decision_task_DD,2021.2.3,MacIntel,59.99880002,,,,,,,,,,,1.6798,1,,,,,,,,,,,,,,m,1,1.6798,,,,,,,,0.226948785,-0.216983507,0,0,0,,0,10,10,27,1,ATTIC,C,old,m,./images/ATTIC.png,,,,,,,,,,,,,,,,,,,,,,
,,,,,,,,,,,,,,,,,199564,18,2022-01-29_24h05.55.585,lexical_decision_task_DD,2021.2.3,MacIntel,59.99880002,,,,,,,,,,,2.778,1,,,,,,,,,,,,,,z,1,2.778,,,,,,,,0.226948785,-0.216983507,0,0,0,,0,11,11,97,1,CHIDS,HB,old,z,./images/CHIDSHB.png,,,,,,,,,,,,,,,,,,,,,,
,,,,,,,,,,,,,,,,,199564,18,2022-01-29_24h05.55.585,lexical_decision_task_DD,2021.2.3,MacIntel,59.99880002,,,,,,,,,,,2.008,1,,,,,,,,,,,,,,m,1,2.008,,,,,,,,0.226948785,-0.216983507,0,0,0,,0,12,12,33,1,MAGGOT,C,old,m,./images/MAGGOT.png,,,,,,,,,,,,,,,,,,,,,,
,,,,,,,,,,,,,,,,,199564,18,2022-01-29_24h05.55.585,lexical_decision_task_DD,2021.2.3,MacIntel,59.99880002,,,,,,,,,,,1.2402,1,,,,,,,,,,,,,,z,1,1.2402,,,,,,,,0.226948785,-0.216983507,0,0,0,,0,13,13,105,1,MOKER,C,old,z,./images/MOKER.png,,,,,,,,,,,,,,,,,,,,,,
,,,,,,,,,,,,,,,,,199564,18,2022-01-29_24h05.55.585,lexical_decision_task_DD,2021.2.3,MacIntel,59.99880002,,,,,,,,,,,0.9255,1,,,,,,,,,,,,,,z,1,0.9255,,,,,,,,0.226948785,-0.216983507,0,0,0,,0,14,14,159,1,CUDDY,C,old,z,./images/CUDDY.png,,,,,,,,,,,,,,,,,,,,,,
,,,,,,,,,,,,,,,,,199564,18,2022-01-29_24h05.55.585,lexical_decision_task_DD,2021.2.3,MacIntel,59.99880002,,,,,,,,,,,0.6873,1,,,,,,,,,,,,,,m,1,0.6873,,,,,,,,0.226948785,-0.216983507,0,0,0,,0,15,15,45,1,KITTEN,C,old,m,./images/KITTEN.png,,,,,,,,,,,,,,,,,,,,,,
,,,,,,,,,,,,,,,,,199564,18,2022-01-29_24h05.55.585,lexical_decision_task_DD,2021.2.3,MacIntel,59.99880002,,,,,,,,,,,0.7609,1,,,,,,,,,,,,,,m,1,0.7609,,,,,,,,0.226948785,-0.216983507,0,0,0,,0,16,16,39,1,SHELF,C,old,m,./images/SHELF.png,,,,,,,,,,,,,,,,,,,,,,
,,,,,,,,,,,,,,,,,199564,18,2022-01-29_24h05.55.585,lexical_decision_task_DD,2021.2.3,MacIntel,59.99880002,,,,,,,,,,,1.1429,1,,,,,,,,,,,,,,m,1,1.1429,,,,,,,,0.226948785,-0.216983507,0,0,0,,0,17,17,55,1,MUFFIN,HB,old,m,./images/MUFFINHB.png,,,,,,,,,,,,,,,,,,,,,,
,,,,,,,,,,,,,,,,,199564,18,2022-01-29_24h05.55.585,lexical_decision_task_DD,2021.2.3,MacIntel,59.99880002,,,,,,,,,,,1.1807,0,,,,,,,,,,,,,,z,0,1.1807,,,,,,,,0.226948785,-0.216983507,0,0,0,,0,18,18,72,1,NOOSE,C,old,m,./images/NOOSE.png,,,,,,,,,,,,,,,,,,,,,,
,,,,,,,,,,,,,,,,,199564,18,2022-01-29_24h05.55.585,lexical_decision_task_DD,2021.2.3,MacIntel,59.99880002,,,,,,,,,,,0.6244,1,,,,,,,,,,,,,,m,1,0.6244,,,,,,,,0.226948785,-0.216983507,0,0,0,,0,19,19,60,1,TWINS,C,old,m,./images/TWINS.png,,,,,,,,,,,,,,,,,,,,,,
,,,,,,,,,,,,,,,,,199564,18,2022-01-29_24h05.55.585,lexical_decision_task_DD,2021.2.3,MacIntel,59.99880002,,,,,,,,,,,1.2368,1,,,,,,,,,,,,,,z,1,1.2368,,,,,,,,0.226948785,-0.216983507,0,0,0,,0,20,20,158,1,EGECT,LB,old,z,./images/EGECTLB.png,,,,,,,,,,,,,,,,,,,,,,
,,,,,,,,,,,,,,,,,199564,18,2022-01-29_24h05.55.585,lexical_decision_task_DD,2021.2.3,MacIntel,59.99880002,,,,,,,,,,,0.6956,1,,,,,,,,,,,,,,m,1,0.6956,,,,,,,,0.226948785,-0.216983507,0,0,0,,0,21,21,29,1,CRUMB,LB,old,m,./images/CRUMBLB.png,,,,,,,,,,,,,,,,,,,,,,
,,,,,,,,,,,,,,,,,199564,18,2022-01-29_24h05.55.585,lexical_decision_task_DD,2021.2.3,MacIntel,59.99880002,,,,,,,,,,,0.7935,1,,,,,,,,,,,,,,m,1,0.7935,,,,,,,,0.226948785,-0.216983507,0,0,0,,0,22,22,1,1,PLANK,HB,old,m,./images/PLANKHB.png,,,,,,,,,,,,,,,,,,,,,,
,,,,,,,,,,,,,,,,,199564,18,2022-01-29_24h05.55.585,lexical_decision_task_DD,2021.2.3,MacIntel,59.99880002,,,,,,,,,,,1.4969,1,,,,,,,,,,,,,,z,1,1.4969,,,,,,,,0.226948785,-0.216983507,0,0,0,,0,23,23,153,1,CLUPS,C,old,z,./images/CLUPS.png,,,,,,,,,,,,,,,,,,,,,,
,,,,,,,,,,,,,,,,,199564,18,2022-01-29_24h05.55.585,lexical_decision_task_DD,2021.2.3,MacIntel,59.99880002,,,,,,,,,,,0.8943,1,,,,,,,,,,,,,,m,1,0.8943,,,,,,,,0.226948785,-0.216983507,0,0,0,,0,24,24,17,1,SKIING,LB,old,m,./images/SKIINGLB.png,,,,,,,,,,,,,,,,,,,,,,
,,,,,,,,,,,,,,,,,199564,18,2022-01-29_24h05.55.585,lexical_decision_task_DD,2021.2.3,MacIntel,59.99880002,,,,,,,,,,,1.0601,1,,,,,,,,,,,,,,m,1,1.0601,,,,,,,,0.226948785,-0.216983507,0,0,0,,0,25,25,37,1,BIRTH,HB,old,m,./images/BIRTHHB.png,,,,,,,,,,,,,,,,,,,,,,
,,,,,,,,,,,,,,,,,199564,18,2022-01-29_24h05.55.585,lexical_decision_task_DD,2021.2.3,MacIntel,59.99880002,,,,,,,,,,,1.6758,1,,,,,,,,,,,,,,z,1,1.6758,,,,,,,,0.226948785,-0.216983507,0,0,0,,0,26,26,86,1,AIFED,LB,old,z,./images/AIFEDLB.png,,,,,,,,,,,,,,,,,,,,,,
,,,,,,,,,,,,,,,,,199564,18,2022-01-29_24h05.55.585,lexical_decision_task_DD,2021.2.3,MacIntel,59.99880002,,,,,,,,,,,0.8153,1,,,,,,,,,,,,,,m,1,0.8153,,,,,,,,0.226948785,-0.216983507,0,0,0,,0,27,27,0,1,TOMATO,C,old,m,./images/TOMATO.png,,,,,,,,,,,,,,,,,,,,,,
,,,,,,,,,,,,,,,,,199564,18,2022-01-29_24h05.55.585,lexical_decision_task_DD,2021.2.3,MacIntel,59.99880002,,,,,,,,,,,0.8679,1,,,,,,,,,,,,,,m,1,0.8679,,,,,,,,0.226948785,-0.216983507,0,0,0,,0,28,28,53,1,CARPET,LB,old,m,./images/CARPETLB.png,,,,,,,,,,,,,,,,,,,,,,
,,,,,,,,,,,,,,,,,199564,18,2022-01-29_24h05.55.585,lexical_decision_task_DD,2021.2.3,MacIntel,59.99880002,,,,,,,,,,,0.8123,1,,,,,,,,,,,,,,m,1,0.8123,,,,,,,,0.226948785,-0.216983507,0,0,0,,0,29,29,13,1,MOTOR,HB,old,m,./images/MOTORHB.png,,,,,,,,,,,,,,,,,,,,,,
,,,,,,,,,,,,,,,,,199564,18,2022-01-29_24h05.55.585,lexical_decision_task_DD,2021.2.3,MacIntel,59.99880002,,,,,,,,,,,1.0842,1,,,,,,,,,,,,,,m,1,1.0842,,,,,,,,0.226948785,-0.216983507,0,0,0,,0,30,30,52,1,BANNER,HB,old,m,./images/BANNERHB.png,,,,,,,,,,,,,,,,,,,,,,
,,,,,,,,,,,,,,,,,199564,18,2022-01-29_24h05.55.585,lexical_decision_task_DD,2021.2.3,MacIntel,59.99880002,,,,,,,,,,,1.4619,1,,,,,,,,,,,,,,z,1,1.4619,,,,,,,,0.226948785,-0.216983507,0,0,0,,0,31,31,118,1,BAVEL,HB,old,z,./images/BAVELHB.png,,,,,,,,,,,,,,,,,,,,,,
,,,,,,,,,,,,,,,,,199564,18,2022-01-29_24h05.55.585,lexical_decision_task_DD,2021.2.3,MacIntel,59.99880002,,,,,,,,,,,1.6613,1,,,,,,,,,,,,,,m,1,1.6613,,,,,,,,0.226657986,-0.216111111,0,0,0,,0,32,32,77,1,COUCH,LB,old,m,./images/COUCHLB.png,,,,,,,,,,,,,,,,,,,,,,
,,,,,,,,,,,,,,,,,199564,18,2022-01-29_24h05.55.585,lexical_decision_task_DD,2021.2.3,MacIntel,59.99880002,,,,,,,,,,,1.2527,1,,,,,,,,,,,,,,z,1,1.2527,,,,,,,,0.226657986,-0.215820313,0,0,0,,0,33,33,140,1,DOVET,LB,old,z,./images/DOVETLB.png,,,,,,,,,,,,,,,,,,,,,,
,,,,,,,,,,,,,,,,,199564,18,2022-01-29_24h05.55.585,lexical_decision_task_DD,2021.2.3,MacIntel,59.99880002,,,,,,,,,,,0.8638,1,,,,,,,,,,,,,,m,1,0.8638,,,,,,,,0.226657986,-0.215820313,0,0,0,,0,34,34,42,1,FOLDER,C,old,m,./images/FOLDER.png,,,,,,,,,,,,,,,,,,,,,,
,,,,,,,,,,,,,,,,,199564,18,2022-01-29_24h05.55.585,lexical_decision_task_DD,2021.2.3,MacIntel,59.99880002,,,,,,,,,,,1.0725,1,,,,,,,,,,,,,,z,1,1.0725,,,,,,,,0.226657986,-0.215820313,0,0,0,,0,35,35,156,1,HIXES,C,old,z,./images/HIXES.png,,,,,,,,,,,,,,,,,,,,,,
,,,,,,,,,,,,,,,,,199564,18,2022-01-29_24h05.55.585,lexical_decision_task_DD,2021.2.3,MacIntel,59.99880002,,,,,,,,,,,0.6631,1,,,,,,,,,,,,,,m,1,0.6631,,,,,,,,0.226657986,-0.215820313,0,0,0,,0,36,36,5,1,PASTA,LB,old,m,./images/PASTALB.png,,,,,,,,,,,,,,,,,,,,,,
,,,,,,,,,,,,,,,,,199564,18,2022-01-29_24h05.55.585,lexical_decision_task_DD,2021.2.3,MacIntel,59.99880002,,,,,,,,,,,0.8231,1,,,,,,,,,,,,,,z,1,0.8231,,,,,,,,0.226657986,-0.215820313,0,0,0,,0,37,37,144,1,NAIRY,C,old,z,./images/NAIRY.png,,,,,,,,,,,,,,,,,,,,,,
,,,,,,,,,,,,,,,,,199564,18,2022-01-29_24h05.55.585,lexical_decision_task_DD,2021.2.3,MacIntel,59.99880002,,,,,,,,,,,1.0321,0,,,,,,,,,,,,,,m,0,1.0321,,,,,,,,0.226657986,-0.215820313,0,0,0,,0,38,38,104,1,GITTY,LB,old,z,./images/GITTYLB.png,,,,,,,,,,,,,,,,,,,,,,
,,,,,,,,,,,,,,,,,199564,18,2022-01-29_24h05.55.585,lexical_decision_task_DD,2021.2.3,MacIntel,59.99880002,,,,,,,,,,,0.7984,1,,,,,,,,,,,,,,m,1,0.7984,,,,,,,,0.226657986,-0.215820313,0,0,0,,0,39,39,25,1,WRIST,HB,old,m,./images/WRISTHB.png,,,,,,,,,,,,,,,,,,,,,,
,,,,,,,,,,,,,,,,,199564,18,2022-01-29_24h05.55.585,lexical_decision_task_DD,2021.2.3,MacIntel,59.99880002,,,,,,,,,,,1.6121,1,,,,,,,,,,,,,,z,1,1.6121,,,,,,,,0.226657986,-0.215820313,0,0,0,,0,40,40,100,1,DRIBS,HB,old,z,./images/DRIBSHB.png,,,,,,,,,,,,,,,,,,,,,,
,,,,,,,,,,,,,,,,,199564,18,2022-01-29_24h05.55.585,lexical_decision_task_DD,2021.2.3,MacIntel,59.99880002,,,,,,,,,,,0.7417,1,,,,,,,,,,,,,,z,1,0.7417,,,,,,,,0.226657986,-0.215820313,0,0,0,space,0,41,41,135,1,JOODY,C,old,z,./images/JOODY.png,5.0044,,,,,,,,,,,,,,,,,,,,,
,,,,,,,,,,,,,,,,,199564,18,2022-01-29_24h05.55.585,lexical_decision_task_DD,2021.2.3,MacIntel,59.99880002,,,,,,,,,,,0.8182,1,,,,,,,,,,,,,,m,1,0.8182,,,,,,,,0.226657986,-0.215820313,0,0,0,,0,42,42,68,1,TORCH,LB,old,m,./images/TORCHLB.png,,,,,,,,,,,,,,,,,,,,,,
,,,,,,,,,,,,,,,,,199564,18,2022-01-29_24h05.55.585,lexical_decision_task_DD,2021.2.3,MacIntel,59.99880002,,,,,,,,,,,0.9433,1,,,,,,,,,,,,,,z,1,0.9433,,,,,,,,0.226657986,-0.215820313,0,0,0,,0,43,43,146,1,MOOST,LB,old,z,./images/MOOSTLB.png,,,,,,,,,,,,,,,,,,,,,,
,,,,,,,,,,,,,,,,,199564,18,2022-01-29_24h05.55.585,lexical_decision_task_DD,2021.2.3,MacIntel,59.99880002,,,,,,,,,,,0.8568,1,,,,,,,,,,,,,,z,1,0.8568,,,,,,,,0.226657986,-0.215820313,0,0,0,,0,44,44,114,1,RIKES,C,old,z,./images/RIKES.png,,,,,,,,,,,,,,,,,,,,,,
,,,,,,,,,,,,,,,,,199564,18,2022-01-29_24h05.55.585,lexical_decision_task_DD,2021.2.3,MacIntel,59.99880002,,,,,,,,,,,2.1792,1,,,,,,,,,,,,,,z,1,2.1792,,,,,,,,0.226657986,-0.215820313,0,0,0,,0,45,45,154,1,THINT,HB,old,z,./images/THINTHB.png,,,,,,,,,,,,,,,,,,,,,,
,,,,,,,,,,,,,,,,,199564,18,2022-01-29_24h05.55.585,lexical_decision_task_DD,2021.2.3,MacIntel,59.99880002,,,,,,,,,,,0.8895,1,,,,,,,,,,,,,,z,1,0.8895,,,,,,,,0.226657986,-0.215820313,0,0,0,,0,46,46,93,1,SMONE,C,old,z,./images/SMONE.png,,,,,,,,,,,,,,,,,,,,,,
,,,,,,,,,,,,,,,,,199564,18,2022-01-29_24h05.55.585,lexical_decision_task_DD,2021.2.3,MacIntel,59.99880002,,,,,,,,,,,0.8753,1,,,,,,,,,,,,,,m,1,0.8753,,,,,,,,0.226657986,-0.215820313,0,0,0,,0,47,47,75,1,GRAIN,C,old,m,./images/GRAIN.png,,,,,,,,,,,,,,,,,,,,,,
,,,,,,,,,,,,,,,,,199564,18,2022-01-29_24h05.55.585,lexical_decision_task_DD,2021.2.3,MacIntel,59.99880002,,,,,,,,,,,0.9279,1,,,,,,,,,,,,,,z,1,0.9279,,,,,,,,0.226657986,-0.215820313,0,0,0,,0,48,48,126,1,GUELS,C,old,z,./images/GUELS.png,,,,,,,,,,,,,,,,,,,,,,
,,,,,,,,,,,,,,,,,199564,18,2022-01-29_24h05.55.585,lexical_decision_task_DD,2021.2.3,MacIntel,59.99880002,,,,,,,,,,,1.0622,1,,,,,,,,,,,,,,m,1,1.0622,,,,,,,,0.226657986,-0.215820313,0,0,0,,0,49,49,70,1,URINE,HB,old,m,./images/URINEHB.png,,,,,,,,,,,,,,,,,,,,,,
,,,,,,,,,,,,,,,,,199564,18,2022-01-29_24h05.55.585,lexical_decision_task_DD,2021.2.3,MacIntel,59.99880002,,,,,,,,,,,1.21,1,,,,,,,,,,,,,,z,1,1.21,,,,,,,,0.226657986,-0.215820313,0,0,0,,0,50,50,136,1,WERVE,HB,old,z,./images/WERVEHB.png,,,,,,,,,,,,,,,,,,,,,,
,,,,,,,,,,,,,,,,,199564,18,2022-01-29_24h05.55.585,lexical_decision_task_DD,2021.2.3,MacIntel,59.99880002,,,,,,,,,,,0.5981,1,,,,,,,,,,,,,,m,1,0.5981,,,,,,,,0.226657986,-0.215820313,0,0,0,,0,51,51,6,1,SQUARE,C,old,m,./images/SQUARE.png,,,,,,,,,,,,,,,,,,,,,,
,,,,,,,,,,,,,,,,,199564,18,2022-01-29_24h05.55.585,lexical_decision_task_DD,2021.2.3,MacIntel,59.99880002,,,,,,,,,,,0.7425,1,,,,,,,,,,,,,,m,1,0.7425,,,,,,,,0.226657986,-0.215820313,0,0,0,,0,52,52,44,1,LIZARD,LB,old,m,./images/LIZARDLB.png,,,,,,,,,,,,,,,,,,,,,,
,,,,,,,,,,,,,,,,,199564,18,2022-01-29_24h05.55.585,lexical_decision_task_DD,2021.2.3,MacIntel,59.99880002,,,,,,,,,,,1.2662,1,,,,,,,,,,,,,,z,1,1.2662,,,,,,,,0.226657986,-0.215820313,0,0,0,,0,53,53,132,1,SCIFF,C,old,z,./images/SCIFF.png,,,,,,,,,,,,,,,,,,,,,,
,,,,,,,,,,,,,,,,,199564,18,2022-01-29_24h05.55.585,lexical_decision_task_DD,2021.2.3,MacIntel,59.99880002,,,,,,,,,,,0.5664,1,,,,,,,,,,,,,,m,1,0.5664,,,,,,,,0.226657986,-0.215820313,0,0,0,,0,54,54,14,1,PICKLE,LB,old,m,./images/PICKLELB.png,,,,,,,,,,,,,,,,,,,,,,
,,,,,,,,,,,,,,,,,199564,18,2022-01-29_24h05.55.585,lexical_decision_task_DD,2021.2.3,MacIntel,59.99880002,,,,,,,,,,,0.9319,1,,,,,,,,,,,,,,z,1,0.9319,,,,,,,,0.226657986,-0.215820313,0,0,0,,0,55,55,125,1,MOOKY,LB,old,z,./images/MOOKYLB.png,,,,,,,,,,,,,,,,,,,,,,
,,,,,,,,,,,,,,,,,199564,18,2022-01-29_24h05.55.585,lexical_decision_task_DD,2021.2.3,MacIntel,59.99880002,,,,,,,,,,,0.599,1,,,,,,,,,,,,,,m,1,0.599,,,,,,,,0.226657986,-0.215820313,0,0,0,,0,56,56,62,1,PURSE,LB,old,m,./images/PURSELB.png,,,,,,,,,,,,,,,,,,,,,,
,,,,,,,,,,,,,,,,,199564,18,2022-01-29_24h05.55.585,lexical_decision_task_DD,2021.2.3,MacIntel,59.99880002,,,,,,,,,,,0.5427,1,,,,,,,,,,,,,,m,1,0.5427,,,,,,,,0.226657986,-0.215820313,0,0,0,,0,57,57,71,1,PIMPLE,LB,old,m,./images/PIMPLELB.png,,,,,,,,,,,,,,,,,,,,,,
,,,,,,,,,,,,,,,,,199564,18,2022-01-29_24h05.55.585,lexical_decision_task_DD,2021.2.3,MacIntel,59.99880002,,,,,,,,,,,2.4144,1,,,,,,,,,,,,,,z,1,2.4144,,,,,,,,0.226657986,-0.215820313,0,0,0,,0,58,58,127,1,NINDY,HB,old,z,./images/NINDYHB.png,,,,,,,,,,,,,,,,,,,,,,
,,,,,,,,,,,,,,,,,199564,18,2022-01-29_24h05.55.585,lexical_decision_task_DD,2021.2.3,MacIntel,59.99880002,,,,,,,,,,,0.7228,1,,,,,,,,,,,,,,m,1,0.7228,,,,,,,,0.226657986,-0.215820313,0,0,0,,0,59,59,57,1,MOOSE,C,old,m,./images/MOOSE.png,,,,,,,,,,,,,,,,,,,,,,
,,,,,,,,,,,,,,,,,199564,18,2022-01-29_24h05.55.585,lexical_decision_task_DD,2021.2.3,MacIntel,59.99880002,,,,,,,,,,,0.6319,1,,,,,,,,,,,,,,m,1,0.6319,,,,,,,,0.226657986,-0.215820313,0,0,0,,0,60,60,61,1,CANDLE,HB,old,m,./images/CANDLEHB.png,,,,,,,,,,,,,,,,,,,,,,
,,,,,,,,,,,,,,,,,199564,18,2022-01-29_24h05.55.585,lexical_decision_task_DD,2021.2.3,MacIntel,59.99880002,,,,,,,,,,,2.225,1,,,,,,,,,,,,,,m,1,2.225,,,,,,,,0.226657986,-0.215820313,0,0,0,,0,61,61,16,1,PENCE,HB,old,m,./images/PENCEHB.png,,,,,,,,,,,,,,,,,,,,,,
,,,,,,,,,,,,,,,,,199564,18,2022-01-29_24h05.55.585,lexical_decision_task_DD,2021.2.3,MacIntel,59.99880002,,,,,,,,,,,1.0523,1,,,,,,,,,,,,,,m,1,1.0523,,,,,,,,0.226657986,-0.215820313,0,0,0,,0,62,62,4,1,MUSCLE,HB,old,m,./images/MUSCLEHB.png,,,,,,,,,,,,,,,,,,,,,,
,,,,,,,,,,,,,,,,,199564,18,2022-01-29_24h05.55.585,lexical_decision_task_DD,2021.2.3,MacIntel,59.99880002,,,,,,,,,,,0.8613,1,,,,,,,,,,,,,,z,1,0.8613,,,,,,,,0.226657986,-0.215820313,0,0,0,,0,63,63,167,1,ZONET,LB,old,z,./images/ZONETLB.png,,,,,,,,,,,,,,,,,,,,,,
,,,,,,,,,,,,,,,,,199564,18,2022-01-29_24h05.55.585,lexical_decision_task_DD,2021.2.3,MacIntel,59.99880002,,,,,,,,,,,0.6192,1,,,,,,,,,,,,,,m,1,0.6192,,,,,,,,0.226657986,-0.215820313,0,0,0,,0,64,64,20,1,CRADLE,LB,old,m,./images/CRADLELB.png,,,,,,,,,,,,,,,,,,,,,,
,,,,,,,,,,,,,,,,,199564,18,2022-01-29_24h05.55.585,lexical_decision_task_DD,2021.2.3,MacIntel,59.99880002,,,,,,,,,,,0.7849,1,,,,,,,,,,,,,,m,1,0.7849,,,,,,,,0.226657986,-0.215820313,0,0,0,,0,65,65,81,1,POODLE,C,old,m,./images/POODLE.png,,,,,,,,,,,,,,,,,,,,,,
,,,,,,,,,,,,,,,,,199564,18,2022-01-29_24h05.55.585,lexical_decision_task_DD,2021.2.3,MacIntel,59.99880002,,,,,,,,,,,0.6811,1,,,,,,,,,,,,,,m,1,0.6811,,,,,,,,0.226657986,-0.215820313,0,0,0,,0,66,66,36,1,THROAT,C,old,m,./images/THROAT.png,,,,,,,,,,,,,,,,,,,,,,
,,,,,,,,,,,,,,,,,199564,18,2022-01-29_24h05.55.585,lexical_decision_task_DD,2021.2.3,MacIntel,59.99880002,,,,,,,,,,,0.5052,1,,,,,,,,,,,,,,m,1,0.5052,,,,,,,,0.226657986,-0.215820313,0,0,0,,0,67,67,63,1,MIRROR,C,old,m,./images/MIRROR.png,,,,,,,,,,,,,,,,,,,,,,
,,,,,,,,,,,,,,,,,199564,18,2022-01-29_24h05.55.585,lexical_decision_task_DD,2021.2.3,MacIntel,59.99880002,,,,,,,,,,,0.9114,1,,,,,,,,,,,,,,m,1,0.9114,,,,,,,,0.226657986,-0.215820313,0,0,0,,0,68,68,76,1,INFANT,HB,old,m,./images/INFANTHB.png,,,,,,,,,,,,,,,,,,,,,,
,,,,,,,,,,,,,,,,,199564,18,2022-01-29_24h05.55.585,lexical_decision_task_DD,2021.2.3,MacIntel,59.99880002,,,,,,,,,,,0.8297,1,,,,,,,,,,,,,,z,1,0.8297,,,,,,,,0.226657986,-0.215820313,0,0,0,,0,69,69,150,1,NOOLS,C,old,z,./images/NOOLS.png,,,,,,,,,,,,,,,,,,,,,,
,,,,,,,,,,,,,,,,,199564,18,2022-01-29_24h05.55.585,lexical_decision_task_DD,2021.2.3,MacIntel,59.99880002,,,,,,,,,,,0.7958,1,,,,,,,,,,,,,,z,1,0.7958,,,,,,,,0.226657986,-0.215820313,0,0,0,,0,70,70,102,1,DULLE,C,old,z,./images/DULLE.png,,,,,,,,,,,,,,,,,,,,,,
,,,,,,,,,,,,,,,,,199564,18,2022-01-29_24h05.55.585,lexical_decision_task_DD,2021.2.3,MacIntel,59.99880002,,,,,,,,,,,1.0281,1,,,,,,,,,,,,,,z,1,1.0281,,,,,,,,0.226657986,-0.215820313,0,0,0,,0,71,71,119,1,PAFER,LB,old,z,./images/PAFERLB.png,,,,,,,,,,,,,,,,,,,,,,
,,,,,,,,,,,,,,,,,199564,18,2022-01-29_24h05.55.585,lexical_decision_task_DD,2021.2.3,MacIntel,59.99880002,,,,,,,,,,,1.4457,1,,,,,,,,,,,,,,z,1,1.4457,,,,,,,,0.226657986,-0.215820313,0,0,0,,0,72,72,121,1,CEERS,HB,old,z,./images/CEERSHB.png,,,,,,,,,,,,,,,,,,,,,,
,,,,,,,,,,,,,,,,,199564,18,2022-01-29_24h05.55.585,lexical_decision_task_DD,2021.2.3,MacIntel,59.99880002,,,,,,,,,,,1.2099,1,,,,,,,,,,,,,,m,1,1.2099,,,,,,,,0.226657986,-0.215820313,0,0,0,,0,73,73,58,1,BABOON,HB,old,m,./images/BABOONHB.png,,,,,,,,,,,,,,,,,,,,,,
,,,,,,,,,,,,,,,,,199564,18,2022-01-29_24h05.55.585,lexical_decision_task_DD,2021.2.3,MacIntel,59.99880002,,,,,,,,,,,0.942,1,,,,,,,,,,,,,,z,1,0.942,,,,,,,,0.226657986,-0.215820313,0,0,0,,0,74,74,87,1,TRING,C,old,z,./images/TRING.png,,,,,,,,,,,,,,,,,,,,,,
,,,,,,,,,,,,,,,,,199564,18,2022-01-29_24h05.55.585,lexical_decision_task_DD,2021.2.3,MacIntel,59.99880002,,,,,,,,,,,1.1921,0,,,,,,,,,,,,,,m,0,1.1921,,,,,,,,0.226657986,-0.215820313,0,0,0,,0,75,75,152,1,FRAIN,LB,old,z,./images/FRAINLB.png,,,,,,,,,,,,,,,,,,,,,,
,,,,,,,,,,,,,,,,,199564,18,2022-01-29_24h05.55.585,lexical_decision_task_DD,2021.2.3,MacIntel,59.99880002,,,,,,,,,,,0.812,1,,,,,,,,,,,,,,z,1,0.812,,,,,,,,0.226657986,-0.215820313,0,0,0,,0,76,76,134,1,TROSS,LB,old,z,./images/TROSSLB.png,,,,,,,,,,,,,,,,,,,,,,
,,,,,,,,,,,,,,,,,199564,18,2022-01-29_24h05.55.585,lexical_decision_task_DD,2021.2.3,MacIntel,59.99880002,,,,,,,,,,,0.9283,1,,,,,,,,,,,,,,z,1,0.9283,,,,,,,,0.226657986,-0.215820313,0,0,0,,0,77,77,95,1,HANTY,LB,old,z,./images/HANTYLB.png,,,,,,,,,,,,,,,,,,,,,,
,,,,,,,,,,,,,,,,,199564,18,2022-01-29_24h05.55.585,lexical_decision_task_DD,2021.2.3,MacIntel,59.99880002,,,,,,,,,,,1.8577,0,,,,,,,,,,,,,,m,0,1.8577,,,,,,,,0.226657986,-0.215820313,0,0,0,,0,78,78,151,1,TINKY,HB,old,z,./images/TINKYHB.png,,,,,,,,,,,,,,,,,,,,,,
,,,,,,,,,,,,,,,,,199564,18,2022-01-29_24h05.55.585,lexical_decision_task_DD,2021.2.3,MacIntel,59.99880002,,,,,,,,,,,1.1948,1,,,,,,,,,,,,,,z,1,1.1948,,,,,,,,0.226657986,-0.215820313,0,0,0,,0,79,79,139,1,BLEAR,HB,old,z,./images/BLEARHB.png,,,,,,,,,,,,,,,,,,,,,,
,,,,,,,,,,,,,,,,,199564,18,2022-01-29_24h05.55.585,lexical_decision_task_DD,2021.2.3,MacIntel,59.99880002,,,,,,,,,,,0.6881,1,,,,,,,,,,,,,,m,1,0.6881,,,,,,,,0.226657986,-0.215820313,0,0,0,,0,80,80,32,1,BARREL,LB,old,m,./images/BARRELLB.png,,,,,,,,,,,,,,,,,,,,,,
,,,,,,,,,,,,,,,,,199564,18,2022-01-29_24h05.55.585,lexical_decision_task_DD,2021.2.3,MacIntel,59.99880002,,,,,,,,,,,1.3125,1,,,,,,,,,,,,,,z,1,1.3125,,,,,,,,0.226657986,-0.215820313,0,0,0,,0,81,81,148,1,JOMS,HB,old,z,./images/JOMSHB.png,,,,,,,,,,,,,,,,,,,,,,
,,,,,,,,,,,,,,,,,199564,18,2022-01-29_24h05.55.585,lexical_decision_task_DD,2021.2.3,MacIntel,59.99880002,,,,,,,,,,,1.0286,1,,,,,,,,,,,,,,z,1,1.0286,,,,,,,,0.226657986,-0.215820313,0,0,0,,0,82,82,161,1,BLAPS,LB,old,z,./images/BLAPSLB.png,,,,,,,,,,,,,,,,,,,,,,
,,,,,,,,,,,,,,,,,199564,18,2022-01-29_24h05.55.585,lexical_decision_task_DD,2021.2.3,MacIntel,59.99880002,,,,,,,,,,,1.8645,1,,,,,,,,,,,,,,m,1,1.8645,,,,,,,,0.226657986,-0.215820313,0,0,0,space,0,83,83,67,1,SAILOR,HB,old,m,./images/SAILORHB.png,5.4191,,,,,,,,,,,,,,,,,,,,,
,,,,,,,,,,,,,,,,,199564,18,2022-01-29_24h05.55.585,lexical_decision_task_DD,2021.2.3,MacIntel,59.99880002,,,,,,,,,,,0.7103,1,,,,,,,,,,,,,,m,1,0.7103,,,,,,,,0.226657986,-0.215820313,0,0,0,,0,84,84,2,1,BEARD,LB,old,m,./images/BEARDLB.png,,,,,,,,,,,,,,,,,,,,,,
,,,,,,,,,,,,,,,,,199564,18,2022-01-29_24h05.55.585,lexical_decision_task_DD,2021.2.3,MacIntel,59.99880002,,,,,,,,,,,2.1442,1,,,,,,,,,,,,,,z,1,2.1442,,,,,,,,0.226657986,-0.215820313,0,0,0,,0,85,85,133,1,POWDY,HB,old,z,./images/POWDYHB.png,,,,,,,,,,,,,,,,,,,,,,
,,,,,,,,,,,,,,,,,199564,18,2022-01-29_24h05.55.585,lexical_decision_task_DD,2021.2.3,MacIntel,59.99880002,,,,,,,,,,,0.5759,1,,,,,,,,,,,,,,m,1,0.5759,,,,,,,,0.226657986,-0.215820313,0,0,0,,0,86,86,66,1,SWEAT,C,old,m,./images/SWEAT.png,,,,,,,,,,,,,,,,,,,,,,
,,,,,,,,,,,,,,,,,199564,18,2022-01-29_24h05.55.585,lexical_decision_task_DD,2021.2.3,MacIntel,59.99880002,,,,,,,,,,,1.2958,1,,,,,,,,,,,,,,z,1,1.2958,,,,,,,,0.226657986,-0.215820313,0,0,0,,0,87,87,138,1,PLICE,C,old,z,./images/PLICE.png,,,,,,,,,,,,,,,,,,,,,,
,,,,,,,,,,,,,,,,,199564,18,2022-01-29_24h05.55.585,lexical_decision_task_DD,2021.2.3,MacIntel,59.99880002,,,,,,,,,,,0.9951,1,,,,,,,,,,,,,,m,1,0.9951,,,,,,,,0.226657986,-0.215820313,0,0,0,,0,88,88,7,1,PAINT,HB,old,m,./images/PAINTHB.png,,,,,,,,,,,,,,,,,,,,,,
,,,,,,,,,,,,,,,,,199564,18,2022-01-29_24h05.55.585,lexical_decision_task_DD,2021.2.3,MacIntel,59.99880002,,,,,,,,,,,1.6792,1,,,,,,,,,,,,,,m,1,1.6792,,,,,,,,0.226657986,-0.215820313,0,0,0,,0,89,89,31,1,QUILL,HB,old,m,./images/QUILLHB.png,,,,,,,,,,,,,,,,,,,,,,
,,,,,,,,,,,,,,,,,199564,18,2022-01-29_24h05.55.585,lexical_decision_task_DD,2021.2.3,MacIntel,59.99880002,,,,,,,,,,,0.9518,1,,,,,,,,,,,,,,z,1,0.9518,,,,,,,,0.226657986,-0.215820313,0,0,0,,0,90,90,164,1,SGREW,LB,old,z,./images/SGREWLB.png,,,,,,,,,,,,,,,,,,,,,,
,,,,,,,,,,,,,,,,,199564,18,2022-01-29_24h05.55.585,lexical_decision_task_DD,2021.2.3,MacIntel,59.99880002,,,,,,,,,,,0.7158,1,,,,,,,,,,,,,,m,1,0.7158,,,,,,,,0.226657986,-0.215820313,0,0,0,,0,91,91,30,1,STORM,C,old,m,./images/STORM.png,,,,,,,,,,,,,,,,,,,,,,
,,,,,,,,,,,,,,,,,199564,18,2022-01-29_24h05.55.585,lexical_decision_task_DD,2021.2.3,MacIntel,59.99880002,,,,,,,,,,,1.2433,1,,,,,,,,,,,,,,z,1,1.2433,,,,,,,,0.226657986,-0.215820313,0,0,0,,0,92,92,155,1,CANGY,LB,old,z,./images/CANGYLB.png,,,,,,,,,,,,,,,,,,,,,,
,,,,,,,,,,,,,,,,,199564,18,2022-01-29_24h05.55.585,lexical_decision_task_DD,2021.2.3,MacIntel,59.99880002,,,,,,,,,,,1.331,1,,,,,,,,,,,,,,z,1,1.331,,,,,,,,0.226657986,-0.215820313,0,0,0,,0,93,93,143,1,MONGS,LB,old,z,./images/MONGSLB.png,,,,,,,,,,,,,,,,,,,,,,
,,,,,,,,,,,,,,,,,199564,18,2022-01-29_24h05.55.585,lexical_decision_task_DD,2021.2.3,MacIntel,59.99880002,,,,,,,,,,,1.1453,1,,,,,,,,,,,,,,z,1,1.1453,,,,,,,,0.226657986,-0.215820313,0,0,0,,0,94,94,103,1,FLORT,HB,old,z,./images/FLORTHB.png,,,,,,,,,,,,,,,,,,,,,,
,,,,,,,,,,,,,,,,,199564,18,2022-01-29_24h05.55.585,lexical_decision_task_DD,2021.2.3,MacIntel,59.99880002,,,,,,,,,,,0.8616,1,,,,,,,,,,,,,,m,1,0.8616,,,,,,,,0.226657986,-0.215820313,0,0,0,,0,95,95,54,1,TRIPOD,C,old,m,./images/TRIPOD.png,,,,,,,,,,,,,,,,,,,,,,
,,,,,,,,,,,,,,,,,199564,18,2022-01-29_24h05.55.585,lexical_decision_task_DD,2021.2.3,MacIntel,59.99880002,,,,,,,,,,,0.8936,1,,,,,,,,,,,,,,z,1,0.8936,,,,,,,,0.226657986,-0.215820313,0,0,0,,0,96,96,101,1,GLEET,LB,old,z,./images/GLEETLB.png,,,,,,,,,,,,,,,,,,,,,,
,,,,,,,,,,,,,,,,,199564,18,2022-01-29_24h05.55.585,lexical_decision_task_DD,2021.2.3,MacIntel,59.99880002,,,,,,,,,,,0.8469,1,,,,,,,,,,,,,,m,1,0.8469,,,,,,,,0.226657986,-0.215820313,0,0,0,,0,97,97,64,1,JELLY,HB,old,m,./images/JELLYHB.png,,,,,,,,,,,,,,,,,,,,,,
,,,,,,,,,,,,,,,,,199564,18,2022-01-29_24h05.55.585,lexical_decision_task_DD,2021.2.3,MacIntel,59.99880002,,,,,,,,,,,1.4996,1,,,,,,,,,,,,,,z,1,1.4996,,,,,,,,0.226657986,-0.215820313,0,0,0,,0,98,98,109,1,BURGE,HB,old,z,./images/BURGEHB.png,,,,,,,,,,,,,,,,,,,,,,
,,,,,,,,,,,,,,,,,199564,18,2022-01-29_24h05.55.585,lexical_decision_task_DD,2021.2.3,MacIntel,59.99880002,,,,,,,,,,,1.1276,1,,,,,,,,,,,,,,z,1,1.1276,,,,,,,,0.226657986,-0.215820313,0,0,0,,0,99,99,122,1,BLOOT,LB,old,z,./images/BLOOTLB.png,,,,,,,,,,,,,,,,,,,,,,
,,,,,,,,,,,,,,,,,199564,18,2022-01-29_24h05.55.585,lexical_decision_task_DD,2021.2.3,MacIntel,59.99880002,,,,,,,,,,,1.0306,1,,,,,,,,,,,,,,m,1,1.0306,,,,,,,,0.226657986,-0.215820313,0,0,0,,0,100,100,82,1,SUNSET,HB,old,m,./images/SUNSETHB.png,,,,,,,,,,,,,,,,,,,,,,
,,,,,,,,,,,,,,,,,199564,18,2022-01-29_24h05.55.585,lexical_decision_task_DD,2021.2.3,MacIntel,59.99880002,,,,,,,,,,,2.3365,1,,,,,,,,,,,,,,z,1,2.3365,,,,,,,,0.226657986,-0.215820313,0,0,0,,0,101,101,163,1,GAMBA,HB,old,z,./images/GAMBAHB.png,,,,,,,,,,,,,,,,,,,,,,
,,,,,,,,,,,,,,,,,199564,18,2022-01-29_24h05.55.585,lexical_decision_task_DD,2021.2.3,MacIntel,59.99880002,,,,,,,,,,,0.7638,1,,,,,,,,,,,,,,z,1,0.7638,,,,,,,,0.226657986,-0.215820313,0,0,0,,0,102,102,84,1,HAXES,C,old,z,./images/HAXES.png,,,,,,,,,,,,,,,,,,,,,,
,,,,,,,,,,,,,,,,,199564,18,2022-01-29_24h05.55.585,lexical_decision_task_DD,2021.2.3,MacIntel,59.99880002,,,,,,,,,,,1.0794,1,,,,,,,,,,,,,,m,1,1.0794,,,,,,,,0.226657986,-0.215820313,0,0,0,,0,103,103,23,1,WALRUS,LB,old,m,./images/WALRUSLB.png,,,,,,,,,,,,,,,,,,,,,,
,,,,,,,,,,,,,,,,,199564,18,2022-01-29_24h05.55.585,lexical_decision_task_DD,2021.2.3,MacIntel,59.99880002,,,,,,,,,,,0.7945,1,,,,,,,,,,,,,,m,1,0.7945,,,,,,,,0.226657986,-0.215820313,0,0,0,,0,104,104,69,1,COOKER,C,old,m,./images/COOKER.png,,,,,,,,,,,,,,,,,,,,,,
,,,,,,,,,,,,,,,,,199564,18,2022-01-29_24h05.55.585,lexical_decision_task_DD,2021.2.3,MacIntel,59.99880002,,,,,,,,,,,0.6495,1,,,,,,,,,,,,,,m,1,0.6495,,,,,,,,0.226657986,-0.215820313,0,0,0,,0,105,105,10,1,BELLY,HB,old,m,./images/BELLYHB.png,,,,,,,,,,,,,,,,,,,,,,
,,,,,,,,,,,,,,,,,199564,18,2022-01-29_24h05.55.585,lexical_decision_task_DD,2021.2.3,MacIntel,59.99880002,,,,,,,,,,,0.5719,1,,,,,,,,,,,,,,m,1,0.5719,,,,,,,,0.226657986,-0.215820313,0,0,0,,0,106,106,48,1,SPORT,C,old,m,./images/SPORT.png,,,,,,,,,,,,,,,,,,,,,,
,,,,,,,,,,,,,,,,,199564,18,2022-01-29_24h05.55.585,lexical_decision_task_DD,2021.2.3,MacIntel,59.99880002,,,,,,,,,,,1.9687,0,,,,,,,,,,,,,,z,0,1.9687,,,,,,,,0.226657986,-0.215820313,0,0,0,,0,107,107,43,1,MOSQUE,HB,old,m,./images/MOSQUEHB.png,,,,,,,,,,,,,,,,,,,,,,
,,,,,,,,,,,,,,,,,199564,18,2022-01-29_24h05.55.585,lexical_decision_task_DD,2021.2.3,MacIntel,59.99880002,,,,,,,,,,,0.7958,1,,,,,,,,,,,,,,z,1,0.7958,,,,,,,,0.226657986,-0.215820313,0,0,0,,0,108,108,117,1,STEEG,C,old,z,./images/STEEG.png,,,,,,,,,,,,,,,,,,,,,,
,,,,,,,,,,,,,,,,,199564,18,2022-01-29_24h05.55.585,lexical_decision_task_DD,2021.2.3,MacIntel,59.99880002,,,,,,,,,,,0.6434,1,,,,,,,,,,,,,,m,1,0.6434,,,,,,,,0.226657986,-0.215820313,0,0,0,,0,109,109,80,1,WEASEL,LB,old,m,./images/WEASELLB.png,,,,,,,,,,,,,,,,,,,,,,
,,,,,,,,,,,,,,,,,199564,18,2022-01-29_24h05.55.585,lexical_decision_task_DD,2021.2.3,MacIntel,59.99880002,,,,,,,,,,,0.8658,1,,,,,,,,,,,,,,m,1,0.8658,,,,,,,,0.226657986,-0.215820313,0,0,0,,0,110,110,56,1,PACKET,LB,old,m,./images/PACKETLB.png,,,,,,,,,,,,,,,,,,,,,,
,,,,,,,,,,,,,,,,,199564,18,2022-01-29_24h05.55.585,lexical_decision_task_DD,2021.2.3,MacIntel,59.99880002,,,,,,,,,,,1.0748,1,,,,,,,,,,,,,,z,1,1.0748,,,,,,,,0.226657986,-0.215820313,0,0,0,,0,111,111,98,1,BAMPS,LB,old,z,./images/BAMPSLB.png,,,,,,,,,,,,,,,,,,,,,,
,,,,,,,,,,,,,,,,,199564,18,2022-01-29_24h05.55.585,lexical_decision_task_DD,2021.2.3,MacIntel,59.99880002,,,,,,,,,,,0.7003,1,,,,,,,,,,,,,,m,1,0.7003,,,,,,,,0.226657986,-0.215820313,0,0,0,,0,112,112,46,1,PEARL,HB,old,m,./images/PEARLHB.png,,,,,,,,,,,,,,,,,,,,,,
,,,,,,,,,,,,,,,,,199564,18,2022-01-29_24h05.55.585,lexical_decision_task_DD,2021.2.3,MacIntel,59.99880002,,,,,,,,,,,0.8087,1,,,,,,,,,,,,,,m,1,0.8087,,,,,,,,0.226657986,-0.215820313,0,0,0,,0,113,113,73,1,SNACK,HB,old,m,./images/SNACKHB.png,,,,,,,,,,,,,,,,,,,,,,
,,,,,,,,,,,,,,,,,199564,18,2022-01-29_24h05.55.585,lexical_decision_task_DD,2021.2.3,MacIntel,59.99880002,,,,,,,,,,,1.674,1,,,,,,,,,,,,,,z,1,1.674,,,,,,,,0.226657986,-0.215820313,0,0,0,,0,114,114,141,1,PLEET,C,old,z,./images/PLEET.png,,,,,,,,,,,,,,,,,,,,,,
,,,,,,,,,,,,,,,,,199564,18,2022-01-29_24h05.55.585,lexical_decision_task_DD,2021.2.3,MacIntel,59.99880002,,,,,,,,,,,1.7107,1,,,,,,,,,,,,,,z,1,1.7107,,,,,,,,0.226657986,-0.215820313,0,0,0,,0,115,115,110,1,CRUNK,LB,old,z,./images/CRUNKLB.png,,,,,,,,,,,,,,,,,,,,,,
,,,,,,,,,,,,,,,,,199564,18,2022-01-29_24h05.55.585,lexical_decision_task_DD,2021.2.3,MacIntel,59.99880002,,,,,,,,,,,0.5934,1,,,,,,,,,,,,,,m,1,0.5934,,,,,,,,0.226657986,-0.215820313,0,0,0,,0,116,116,83,1,JUNGLE,LB,old,m,./images/JUNGLELB.png,,,,,,,,,,,,,,,,,,,,,,
,,,,,,,,,,,,,,,,,199564,18,2022-01-29_24h05.55.585,lexical_decision_task_DD,2021.2.3,MacIntel,59.99880002,,,,,,,,,,,1.7092,1,,,,,,,,,,,,,,z,1,1.7092,,,,,,,,0.226367188,-0.213198785,0,0,0,,0,117,117,91,1,SHENS,HB,old,z,./images/SHENSHB.png,,,,,,,,,,,,,,,,,,,,,,
,,,,,,,,,,,,,,,,,199564,18,2022-01-29_24h05.55.585,lexical_decision_task_DD,2021.2.3,MacIntel,59.99880002,,,,,,,,,,,0.9765,1,,,,,,,,,,,,,,m,1,0.9765,,,,,,,,0.226367188,-0.212617187,0,0,0,,0,118,118,22,1,MELON,HB,old,m,./images/MELONHB.png,,,,,,,,,,,,,,,,,,,,,,
,,,,,,,,,,,,,,,,,199564,18,2022-01-29_24h05.55.585,lexical_decision_task_DD,2021.2.3,MacIntel,59.99880002,,,,,,,,,,,0.7097,1,,,,,,,,,,,,,,m,1,0.7097,,,,,,,,0.227226563,-0.211740451,0,0,0,,0,119,119,74,1,CEMENT,LB,old,m,./images/CEMENTLB.png,,,,,,,,,,,,,,,,,,,,,,
,,,,,,,,,,,,,,,,,199564,18,2022-01-29_24h05.55.585,lexical_decision_task_DD,2021.2.3,MacIntel,59.99880002,,,,,,,,,,,1.0631,1,,,,,,,,,,,,,,m,1,1.0631,,,,,,,,0.227513021,-0.212591146,0,0,0,,0,120,120,28,1,FALCON,HB,old,m,./images/FALCONHB.png,,,,,,,,,,,,,,,,,,,,,,
,,,,,,,,,,,,,,,,,199564,18,2022-01-29_24h05.55.585,lexical_decision_task_DD,2021.2.3,MacIntel,59.99880002,,,,,,,,,,,0.825,1,,,,,,,,,,,,,,z,1,0.825,,,,,,,,0.227513021,-0.211414931,0,0,0,,0,121,121,99,1,BACKY,C,old,z,./images/BACKY.png,,,,,,,,,,,,,,,,,,,,,,
,,,,,,,,,,,,,,,,,199564,18,2022-01-29_24h05.55.585,lexical_decision_task_DD,2021.2.3,MacIntel,59.99880002,,,,,,,,,,,1.6798,1,,,,,,,,,,,,,,z,1,1.6798,,,,,,,,0.227513021,-0.211414931,0,0,0,,0,122,122,115,1,MAWNS,HB,old,z,./images/MAWNSHB.png,,,,,,,,,,,,,,,,,,,,,,
,,,,,,,,,,,,,,,,,199564,18,2022-01-29_24h05.55.585,lexical_decision_task_DD,2021.2.3,MacIntel,59.99880002,,,,,,,,,,,0.7285,1,,,,,,,,,,,,,,m,1,0.7285,,,,,,,,0.227513021,-0.211414931,0,0,0,,0,123,123,8,1,TULIP,LB,old,m,./images/TULIPLB.png,,,,,,,,,,,,,,,,,,,,,,
,,,,,,,,,,,,,,,,,199564,18,2022-01-29_24h05.55.585,lexical_decision_task_DD,2021.2.3,MacIntel,59.99880002,,,,,,,,,,,0.8004,1,,,,,,,,,,,,,,z,1,0.8004,,,,,,,,0.227222222,-0.212847222,0,0,0,,0,124,124,107,1,FASKS,LB,old,z,./images/FASKSLB.png,,,,,,,,,,,,,,,,,,,,,,
,,,,,,,,,,,,,,,,,199564,18,2022-01-29_24h05.55.585,lexical_decision_task_DD,2021.2.3,MacIntel,59.99880002,,,,,,,,,,,1.0249,1,,,,,,,,,,,,,,z,1,1.0249,,,,,,,,0.227222222,-0.212847222,0,0,0,space,0,125,125,124,1,TUNCH,HB,old,z,./images/TUNCHHB.png,1.8107,,,,,,,,,,,,,,,,,,,,,
,,,,,,,,,,,,,,,,,199564,18,2022-01-29_24h05.55.585,lexical_decision_task_DD,2021.2.3,MacIntel,59.99880002,,,,,,,,,,,1.4085,1,,,,,,,,,,,,,,z,1,1.4085,,,,,,,,0.227222222,-0.212847222,0,0,0,,0,126,126,166,1,SHORY,HB,old,z,./images/SHORYHB.png,,,,,,,,,,,,,,,,,,,,,,
,,,,,,,,,,,,,,,,,199564,18,2022-01-29_24h05.55.585,lexical_decision_task_DD,2021.2.3,MacIntel,59.99880002,,,,,,,,,,,1.2118,1,,,,,,,,,,,,,,z,1,1.2118,,,,,,,,0.227222222,-0.212847222,0,0,0,,0,127,127,160,1,VEETS,HB,old,z,./images/VEETSHB.png,,,,,,,,,,,,,,,,,,,,,,
,,,,,,,,,,,,,,,,,199564,18,2022-01-29_24h05.55.585,lexical_decision_task_DD,2021.2.3,MacIntel,59.99880002,,,,,,,,,,,0.8961,1,,,,,,,,,,,,,,z,1,0.8961,,,,,,,,0.227222222,-0.212847222,0,0,0,,0,128,128,137,1,JOOST,LB,old,z,./images/JOOSTLB.png,,,,,,,,,,,,,,,,,,,,,,
,,,,,,,,,,,,,,,,,199564,18,2022-01-29_24h05.55.585,lexical_decision_task_DD,2021.2.3,MacIntel,59.99880002,,,,,,,,,,,1.793,1,,,,,,,,,,,,,,z,1,1.793,,,,,,,,0.227222222,-0.212847222,0,0,0,,0,129,129,130,1,CRILL,HB,old,z,./images/CRILLHB.png,,,,,,,,,,,,,,,,,,,,,,
,,,,,,,,,,,,,,,,,199564,18,2022-01-29_24h05.55.585,lexical_decision_task_DD,2021.2.3,MacIntel,59.99880002,,,,,,,,,,,0.5933,1,,,,,,,,,,,,,,m,1,0.5933,,,,,,,,0.227222222,-0.212847222,0,0,0,,0,130,130,35,1,PEACH,LB,old,m,./images/PEACHLB.png,,,,,,,,,,,,,,,,,,,,,,
,,,,,,,,,,,,,,,,,199564,18,2022-01-29_24h05.55.585,lexical_decision_task_DD,2021.2.3,MacIntel,59.99880002,,,,,,,,,,,0.7636,1,,,,,,,,,,,,,,m,1,0.7636,,,,,,,,0.227222222,-0.212847222,0,0,0,,0,131,131,12,1,SHORE,C,old,m,./images/SHORE.png,,,,,,,,,,,,,,,,,,,,,,
,,,,,,,,,,,,,,,,,199564,18,2022-01-29_24h05.55.585,lexical_decision_task_DD,2021.2.3,MacIntel,59.99880002,,,,,,,,,,,0.7247,1,,,,,,,,,,,,,,z,1,0.7247,,,,,,,,0.227222222,-0.212847222,0,0,0,,0,132,132,120,1,RINED,C,old,z,./images/RINED.png,,,,,,,,,,,,,,,,,,,,,,
,,,,,,,,,,,,,,,,,199564,18,2022-01-29_24h05.55.585,lexical_decision_task_DD,2021.2.3,MacIntel,59.99880002,,,,,,,,,,,1.1954,1,,,,,,,,,,,,,,z,1,1.1954,,,,,,,,0.227222222,-0.212847222,0,0,0,,0,133,133,145,1,LAMEL,HB,old,z,./images/LAMELHB.png,,,,,,,,,,,,,,,,,,,,,,
,,,,,,,,,,,,,,,,,199564,18,2022-01-29_24h05.55.585,lexical_decision_task_DD,2021.2.3,MacIntel,59.99880002,,,,,,,,,,,0.8634,1,,,,,,,,,,,,,,z,1,0.8634,,,,,,,,0.227222222,-0.212847222,0,0,0,,0,134,134,123,1,SEDGE,C,old,z,./images/SEDGE.png,,,,,,,,,,,,,,,,,,,,,,
,,,,,,,,,,,,,,,,,199564,18,2022-01-29_24h05.55.585,lexical_decision_task_DD,2021.2.3,MacIntel,59.99880002,,,,,,,,,,,0.8773,1,,,,,,,,,,,,,,z,1,0.8773,,,,,,,,0.227222222,-0.212847222,0,0,0,,0,135,135,149,1,VEASE,LB,old,z,./images/VEASELB.png,,,,,,,,,,,,,,,,,,,,,,
,,,,,,,,,,,,,,,,,199564,18,2022-01-29_24h05.55.585,lexical_decision_task_DD,2021.2.3,MacIntel,59.99880002,,,,,,,,,,,0.9138,1,,,,,,,,,,,,,,m,1,0.9138,,,,,,,,0.227222222,-0.212847222,0,0,0,,0,136,136,59,1,BURIAL,LB,old,m,./images/BURIALLB.png,,,,,,,,,,,,,,,,,,,,,,
,,,,,,,,,,,,,,,,,199564,18,2022-01-29_24h05.55.585,lexical_decision_task_DD,2021.2.3,MacIntel,59.99880002,,,,,,,,,,,0.7781,1,,,,,,,,,,,,,,z,1,0.7781,,,,,,,,0.227222222,-0.212847222,0,0,0,,0,137,137,92,1,PAIMS,LB,old,z,./images/PAIMSLB.png,,,,,,,,,,,,,,,,,,,,,,
,,,,,,,,,,,,,,,,,199564,18,2022-01-29_24h05.55.585,lexical_decision_task_DD,2021.2.3,MacIntel,59.99880002,,,,,,,,,,,1.5608,1,,,,,,,,,,,,,,m,1,1.5608,,,,,,,,0.227222222,-0.212847222,0,0,0,,0,138,138,49,1,DRUMS,HB,old,m,./images/DRUMSHB.png,,,,,,,,,,,,,,,,,,,,,,
,,,,,,,,,,,,,,,,,199564,18,2022-01-29_24h05.55.585,lexical_decision_task_DD,2021.2.3,MacIntel,59.99880002,,,,,,,,,,,1.5241,1,,,,,,,,,,,,,,z,1,1.5241,,,,,,,,0.227222222,-0.212847222,0,0,0,,0,139,139,90,1,NEAST,C,old,z,./images/NEAST.png,,,,,,,,,,,,,,,,,,,,,,
,,,,,,,,,,,,,,,,,199564,18,2022-01-29_24h05.55.585,lexical_decision_task_DD,2021.2.3,MacIntel,59.99880002,,,,,,,,,,,0.862,1,,,,,,,,,,,,,,z,1,0.862,,,,,,,,0.227222222,-0.212847222,0,0,0,,0,140,140,111,1,HOSSE,C,old,z,./images/HOSSE.png,,,,,,,,,,,,,,,,,,,,,,
,,,,,,,,,,,,,,,,,199564,18,2022-01-29_24h05.55.585,lexical_decision_task_DD,2021.2.3,MacIntel,59.99880002,,,,,,,,,,,0.6725,1,,,,,,,,,,,,,,m,1,0.6725,,,,,,,,0.227222222,-0.212847222,0,0,0,,0,141,141,51,1,ONION,C,old,m,./images/ONION.png,,,,,,,,,,,,,,,,,,,,,,
,,,,,,,,,,,,,,,,,199564,18,2022-01-29_24h05.55.585,lexical_decision_task_DD,2021.2.3,MacIntel,59.99880002,,,,,,,,,,,1.6784,1,,,,,,,,,,,,,,z,1,1.6784,,,,,,,,0.227222222,-0.212847222,0,0,0,,0,142,142,85,1,CHULK,HB,old,z,./images/CHULKHB.png,,,,,,,,,,,,,,,,,,,,,,
,,,,,,,,,,,,,,,,,199564,18,2022-01-29_24h05.55.585,lexical_decision_task_DD,2021.2.3,MacIntel,59.99880002,,,,,,,,,,,0.7762,1,,,,,,,,,,,,,,m,1,0.7762,,,,,,,,0.227222222,-0.212847222,0,0,0,,0,143,143,18,1,JAGUAR,C,old,m,./images/JAGUAR.png,,,,,,,,,,,,,,,,,,,,,,
,,,,,,,,,,,,,,,,,199564,18,2022-01-29_24h05.55.585,lexical_decision_task_DD,2021.2.3,MacIntel,59.99880002,,,,,,,,,,,1.885,1,,,,,,,,,,,,,,z,1,1.885,,,,,,,,0.227222222,-0.212847222,0,0,0,,0,144,144,112,1,MYING,HB,old,z,./images/MYINGHB.png,,,,,,,,,,,,,,,,,,,,,,
,,,,,,,,,,,,,,,,,199564,18,2022-01-29_24h05.55.585,lexical_decision_task_DD,2021.2.3,MacIntel,59.99880002,,,,,,,,,,,0.8375,1,,,,,,,,,,,,,,z,1,0.8375,,,,,,,,0.227222222,-0.212847222,0,0,0,,0,145,145,131,1,NACES,LB,old,z,./images/NACESLB.png,,,,,,,,,,,,,,,,,,,,,,
,,,,,,,,,,,,,,,,,199564,18,2022-01-29_24h05.55.585,lexical_decision_task_DD,2021.2.3,MacIntel,59.99880002,,,,,,,,,,,1.9941,1,,,,,,,,,,,,,,z,1,1.9941,,,,,,,,0.227222222,-0.212847222,0,0,0,,0,146,146,157,1,INLER,HB,old,z,./images/INLERHB.png,,,,,,,,,,,,,,,,,,,,,,
,,,,,,,,,,,,,,,,,199564,18,2022-01-29_24h05.55.585,lexical_decision_task_DD,2021.2.3,MacIntel,59.99880002,,,,,,,,,,,0.6242,1,,,,,,,,,,,,,,m,1,0.6242,,,,,,,,0.227222222,-0.212847222,0,0,0,,0,147,147,78,1,LITTER,C,old,m,./images/LITTER.png,,,,,,,,,,,,,,,,,,,,,,
,,,,,,,,,,,,,,,,,199564,18,2022-01-29_24h05.55.585,lexical_decision_task_DD,2021.2.3,MacIntel,59.99880002,,,,,,,,,,,1.4319,1,,,,,,,,,,,,,,m,1,1.4319,,,,,,,,0.227222222,-0.212847222,0,0,0,,0,148,148,40,1,SWING,HB,old,m,./images/SWINGHB.png,,,,,,,,,,,,,,,,,,,,,,
,,,,,,,,,,,,,,,,,199564,18,2022-01-29_24h05.55.585,lexical_decision_task_DD,2021.2.3,MacIntel,59.99880002,,,,,,,,,,,0.8781,1,,,,,,,,,,,,,,m,1,0.8781,,,,,,,,0.227222222,-0.212847222,0,0,0,,0,149,149,41,1,STRING,LB,old,m,./images/STRINGLB.png,,,,,,,,,,,,,,,,,,,,,,
,,,,,,,,,,,,,,,,,199564,18,2022-01-29_24h05.55.585,lexical_decision_task_DD,2021.2.3,MacIntel,59.99880002,,,,,,,,,,,0.7133,1,,,,,,,,,,,,,,m,1,0.7133,,,,,,,,0.227222222,-0.212847222,0,0,0,,0,150,150,65,1,FARMER,LB,old,m,./images/FARMERLB.png,,,,,,,,,,,,,,,,,,,,,,
,,,,,,,,,,,,,,,,,199564,18,2022-01-29_24h05.55.585,lexical_decision_task_DD,2021.2.3,MacIntel,59.99880002,,,,,,,,,,,2.2689,1,,,,,,,,,,,,,,z,1,2.2689,,,,,,,,0.227222222,-0.212847222,0,0,0,,0,151,151,142,1,PLASK,HB,old,z,./images/PLASKHB.png,,,,,,,,,,,,,,,,,,,,,,
,,,,,,,,,,,,,,,,,199564,18,2022-01-29_24h05.55.585,lexical_decision_task_DD,2021.2.3,MacIntel,59.99880002,,,,,,,,,,,0.9106,1,,,,,,,,,,,,,,z,1,0.9106,,,,,,,,0.227222222,-0.212847222,0,0,0,,0,152,152,116,1,BALGY,LB,old,z,./images/BALGYLB.png,,,,,,,,,,,,,,,,,,,,,,
,,,,,,,,,,,,,,,,,199564,18,2022-01-29_24h05.55.585,lexical_decision_task_DD,2021.2.3,MacIntel,59.99880002,,,,,,,,,,,0.7056,1,,,,,,,,,,,,,,z,1,0.7056,,,,,,,,0.227222222,-0.212847222,0,0,0,,0,153,153,89,1,DRIEK,LB,old,z,./images/DRIEKLB.png,,,,,,,,,,,,,,,,,,,,,,
,,,,,,,,,,,,,,,,,199564,18,2022-01-29_24h05.55.585,lexical_decision_task_DD,2021.2.3,MacIntel,59.99880002,,,,,,,,,,,0.7454,1,,,,,,,,,,,,,,m,1,0.7454,,,,,,,,0.227222222,-0.212847222,0,0,0,,0,154,154,26,1,SMOKER,LB,old,m,./images/SMOKERLB.png,,,,,,,,,,,,,,,,,,,,,,
,,,,,,,,,,,,,,,,,199564,18,2022-01-29_24h05.55.585,lexical_decision_task_DD,2021.2.3,MacIntel,59.99880002,,,,,,,,,,,0.6914,1,,,,,,,,,,,,,,z,1,0.6914,,,,,,,,0.227222222,-0.212847222,0,0,0,,0,155,155,147,1,ZOLES,C,old,z,./images/ZOLES.png,,,,,,,,,,,,,,,,,,,,,,
,,,,,,,,,,,,,,,,,199564,18,2022-01-29_24h05.55.585,lexical_decision_task_DD,2021.2.3,MacIntel,59.99880002,,,,,,,,,,,0.6719,1,,,,,,,,,,,,,,m,1,0.6719,,,,,,,,0.227222222,-0.212847222,0,0,0,,0,156,156,21,1,KIDNEY,C,old,m,./images/KIDNEY.png,,,,,,,,,,,,,,,,,,,,,,
,,,,,,,,,,,,,,,,,199564,18,2022-01-29_24h05.55.585,lexical_decision_task_DD,2021.2.3,MacIntel,59.99880002,,,,,,,,,,,0.9447,1,,,,,,,,,,,,,,m,1,0.9447,,,,,,,,0.227222222,-0.212847222,0,0,0,,0,157,157,11,1,BONNET,LB,old,m,./images/BONNETLB.png,,,,,,,,,,,,,,,,,,,,,,
,,,,,,,,,,,,,,,,,199564,18,2022-01-29_24h05.55.585,lexical_decision_task_DD,2021.2.3,MacIntel,59.99880002,,,,,,,,,,,0.7771,1,,,,,,,,,,,,,,m,1,0.7771,,,,,,,,0.227222222,-0.212847222,0,0,0,,0,158,158,79,1,CRUST,HB,old,m,./images/CRUSTHB.png,,,,,,,,,,,,,,,,,,,,,,
,,,,,,,,,,,,,,,,,199564,18,2022-01-29_24h05.55.585,lexical_decision_task_DD,2021.2.3,MacIntel,59.99880002,,,,,,,,,,,1.0935,1,,,,,,,,,,,,,,z,1,1.0935,,,,,,,,0.227222222,-0.212847222,0,0,0,,0,159,159,94,1,BLANS,HB,old,z,./images/BLANSHB.png,,,,,,,,,,,,,,,,,,,,,,
,,,,,,,,,,,,,,,,,199564,18,2022-01-29_24h05.55.585,lexical_decision_task_DD,2021.2.3,MacIntel,59.99880002,,,,,,,,,,,0.68,1,,,,,,,,,,,,,,m,1,0.68,,,,,,,,0.227222222,-0.212847222,0,0,0,,0,160,160,47,1,BERRY,LB,old,m,./images/BERRYLB.png,,,,,,,,,,,,,,,,,,,,,,
,,,,,,,,,,,,,,,,,199564,18,2022-01-29_24h05.55.585,lexical_decision_task_DD,2021.2.3,MacIntel,59.99880002,,,,,,,,,,,0.6237,1,,,,,,,,,,,,,,m,1,0.6237,,,,,,,,0.227222222,-0.212847222,0,0,0,,0,161,161,24,1,SCREW,C,old,m,./images/SCREW.png,,,,,,,,,,,,,,,,,,,,,,
,,,,,,,,,,,,,,,,,199564,18,2022-01-29_24h05.55.585,lexical_decision_task_DD,2021.2.3,MacIntel,59.99880002,,,,,,,,,,,0.7407,1,,,,,,,,,,,,,,m,1,0.7407,,,,,,,,0.227222222,-0.212847222,0,0,0,,0,162,162,38,1,LADDER,LB,old,m,./images/LADDERLB.png,,,,,,,,,,,,,,,,,,,,,,
,,,,,,,,,,,,,,,,,199564,18,2022-01-29_24h05.55.585,lexical_decision_task_DD,2021.2.3,MacIntel,59.99880002,,,,,,,,,,,0.781,1,,,,,,,,,,,,,,z,1,0.781,,,,,,,,0.227222222,-0.212847222,0,0,0,,0,163,163,165,1,TROWN,C,old,z,./images/TROWN.png,,,,,,,,,,,,,,,,,,,,,,
,,,,,,,,,,,,,,,,,199564,18,2022-01-29_24h05.55.585,lexical_decision_task_DD,2021.2.3,MacIntel,59.99880002,,,,,,,,,,,1.2614,1,,,,,,,,,,,,,,z,1,1.2614,,,,,,,,0.227222222,-0.212847222,0,0,0,,0,164,164,128,1,GRIFT,LB,old,z,./images/GRIFTLB.png,,,,,,,,,,,,,,,,,,,,,,
,,,,,,,,,,,,,,,,,199564,18,2022-01-29_24h05.55.585,lexical_decision_task_DD,2021.2.3,MacIntel,59.99880002,,,,,,,,,,,0.7597,1,,,,,,,,,,,,,,z,1,0.7597,,,,,,,,0.227222222,-0.212847222,0,0,0,,0,165,165,162,1,LEICH,C,old,z,./images/LEICH.png,,,,,,,,,,,,,,,,,,,,,,
,,,,,,,,,,,,,,,,,199564,18,2022-01-29_24h05.55.585,lexical_decision_task_DD,2021.2.3,MacIntel,59.99880002,,,,,,,,,,,1.0071,1,,,,,,,,,,,,,,z,1,1.0071,,,,,,,,0.227222222,-0.212847222,0,0,0,,0,166,166,96,1,KEAMS,C,old,z,./images/KEAMS.png,,,,,,,,,,,,,,,,,,,,,,
,,,,,,,,,,,,,,,,,199564,18,2022-01-29_24h05.55.585,lexical_decision_task_DD,2021.2.3,MacIntel,59.99880002,,,,,,,,,,,0.7728,1,,,,,,,,,,,,,,m,1,0.7728,,,,,,,,0.227222222,-0.212847222,0,0,0,,0,167,167,15,1,GREASE,C,old,m,./images/GREASE.png,,,,,,,,,,,,,,,,,,,,,,
space,21.2871,0.227222222,-0.212847222,0,0,0,,,,,,1,test,"In the next phase you will be presented with the words from the the first phase. Your job is to decide whether you remember seeing the word or not. If you remember seeing the word press ""old"" or type ""m"". If you do not remember seeing the word press ""new"" or type ""z"". Please press the space bar or click on continue to begin. ",,,199564,18,2022-01-29_24h05.55.585,lexical_decision_task_DD,2021.2.3,MacIntel,59.99880002,,,,,,,,,,,,,,,,,,,,,,,,,,,,,,,,,,,,,,,,,,,,,,,,,,,,,0,0,0,0,1,,,,,,,,,,,,,,,,
,,0.074548611,-0.388984375,1,0,0,,,,,,1,test,"In the next phase you will be presented with the words from the the first phase. Your job is to decide whether you remember seeing the word or not. If you remember seeing the word press ""old"" or type ""m"". If you do not remember seeing the word press ""new"" or type ""z"". Please press the space bar or click on continue to begin. ",,,199564,18,2022-01-29_24h05.55.585,lexical_decision_task_DD,2021.2.3,MacIntel,59.99880002,,,,,,,,,,,,,,,,,,,,,,,,,,,,,,,,,,,,,,,,,,,,,,,,,,,,,1,0,1,0,1,instr_done_button,,,,,,,,,,,,,,,
,,0.040512153,-0.388046875,1,0,0,,,,,,1,test,"In the next phase you will be presented with the words from the the first phase. Your job is to decide whether you remember seeing the word or not. If you remember seeing the word press ""old"" or type ""m"". If you do not remember seeing the word press ""new"" or type ""z"". Please press the space bar or click on continue to begin. ",,,199564,18,2022-01-29_24h05.55.585,lexical_decision_task_DD,2021.2.3,MacIntel,59.99880002,,,,,,,,,,,,,,,,,,,,,,,,,,,,,,,,,,,,,,,,,,,,,,,,,,,,,2,0,2,0,1,instr_done_button,,,,,,,,,,,,,,,
,,0.030746528,-0.420546875,1,0,0,,,,,,1,test,"In the next phase you will be presented with the words from the the first phase. Your job is to decide whether you remember seeing the word or not. If you remember seeing the word press ""old"" or type ""m"". If you do not remember seeing the word press ""new"" or type ""z"". Please press the space bar or click on continue to begin. ",,,199564,18,2022-01-29_24h05.55.585,lexical_decision_task_DD,2021.2.3,MacIntel,59.99880002,,,,,,,,,,,,,,,,,,,,,,,,,,,,,,,,,,,,,,,,,,,,,,,,,,,,,3,0,3,0,1,instr_done_button,,,,,,,,,,,,,,,
space,0.4523,0.030746528,-0.420546875,0,0,0,,,,,,1,test,"In the next phase you will be presented with the words from the the first phase. Your job is to decide whether you remember seeing the word or not. If you remember seeing the word press ""old"" or type ""m"". If you do not remember seeing the word press ""new"" or type ""z"". Please press the space bar or click on continue to begin. ",,,199564,18,2022-01-29_24h05.55.585,lexical_decision_task_DD,2021.2.3,MacIntel,59.99880002,,,,,,,,,,,,,,,,,,,,,,,,,,,,,,,,,,,,,,,,,,,,,,,,,,,,,4,0,4,0,1,,,,,,,,,,,,,,,,
,,,,,,,,,,,,,,,,,199564,18,2022-01-29_24h05.55.585,lexical_decision_task_DD,2021.2.3,MacIntel,59.99880002,,,,,,,,,,,3.6051,1,,,,,,,,,,,,,,,,,,,,,,,,0.030746528,-0.420546875,0,0,0,,,,,,,MIDGET,HB,z,m,./images/MIDGETHB.png,,,,,,,,z,1,3.6051,,,,,,,,0,0,0,160,1
,,,,,,,,,,,,,,,,,199564,18,2022-01-29_24h05.55.585,lexical_decision_task_DD,2021.2.3,MacIntel,59.99880002,,,,,,,,,,,2.7184,1,,,,,,,,,,,,,,,,,,,,,,,,0.030746528,-0.420546875,0,0,0,,,,,,,LIZARD,LB,m,m,./images/LIZARDLB.png,,,,,,,,m,1,2.7184,,,,,,,,0,1,1,44,1
,,,,,,,,,,,,,,,,,199564,18,2022-01-29_24h05.55.585,lexical_decision_task_DD,2021.2.3,MacIntel,59.99880002,,,,,,,,,,,2.1527,1,,,,,,,,,,,,,,,,,,,,,,,,0.030746528,-0.420546875,0,0,0,,,,,,,MUMMY,HB,z,m,./images/MUMMYHB.png,,,,,,,,z,1,2.1527,,,,,,,,0,2,2,130,1
,,,,,,,,,,,,,,,,,199564,18,2022-01-29_24h05.55.585,lexical_decision_task_DD,2021.2.3,MacIntel,59.99880002,,,,,,,,,,,2.3218,1,,,,,,,,,,,,,,,,,,,,,,,,0.030746528,-0.420546875,0,0,0,,,,,,,STOVE,LB,z,m,./images/STOVELB.png,,,,,,,,z,1,2.3218,,,,,,,,0,3,3,86,1
,,,,,,,,,,,,,,,,,199564,18,2022-01-29_24h05.55.585,lexical_decision_task_DD,2021.2.3,MacIntel,59.99880002,,,,,,,,,,,1.65,1,,,,,,,,,,,,,,,,,,,,,,,,0.030746528,-0.420546875,0,0,0,,,,,,,RHINO,C,m,m,./images/RHINO.png,,,,,,,,m,1,1.65,,,,,,,,0,4,4,9,1
,,,,,,,,,,,,,,,,,199564,18,2022-01-29_24h05.55.585,lexical_decision_task_DD,2021.2.3,MacIntel,59.99880002,,,,,,,,,,,1.5535,1,,,,,,,,,,,,,,,,,,,,,,,,0.030746528,-0.420546875,0,0,0,,,,,,,COLLAR,C,z,m,./images/COLLAR.png,,,,,,,,z,1,1.5535,,,,,,,,0,5,5,99,1
,,,,,,,,,,,,,,,,,199564,18,2022-01-29_24h05.55.585,lexical_decision_task_DD,2021.2.3,MacIntel,59.99880002,,,,,,,,,,,2.1518,1,,,,,,,,,,,,,,,,,,,,,,,,0.030746528,-0.420546875,0,0,0,,,,,,,CLIFF,LB,z,m,./images/CLIFFLB.png,,,,,,,,z,1,2.1518,,,,,,,,0,6,6,92,1
,,,,,,,,,,,,,,,,,199564,18,2022-01-29_24h05.55.585,lexical_decision_task_DD,2021.2.3,MacIntel,59.99880002,,,,,,,,,,,1.521,1,,,,,,,,,,,,,,,,,,,,,,,,0.030746528,-0.420546875,0,0,0,,,,,,,PAINT,HB,m,m,./images/PAINTHB.png,,,,,,,,m,1,1.521,,,,,,,,0,7,7,7,1
,,,,,,,,,,,,,,,,,199564,18,2022-01-29_24h05.55.585,lexical_decision_task_DD,2021.2.3,MacIntel,59.99880002,,,,,,,,,,,0.9893,1,,,,,,,,,,,,,,,,,,,,,,,,0.030746528,-0.420546875,0,0,0,,,,,,,WRIST,HB,m,m,./images/WRISTHB.png,,,,,,,,m,1,0.9893,,,,,,,,0,8,8,25,1
,,,,,,,,,,,,,,,,,199564,18,2022-01-29_24h05.55.585,lexical_decision_task_DD,2021.2.3,MacIntel,59.99880002,,,,,,,,,,,0.8824,1,,,,,,,,,,,,,,,,,,,,,,,,0.030746528,-0.420546875,0,0,0,,,,,,,BUNNY,HB,z,m,./images/BUNNYHB.png,,,,,,,,z,1,0.8824,,,,,,,,0,9,9,97,1
,,,,,,,,,,,,,,,,,199564,18,2022-01-29_24h05.55.585,lexical_decision_task_DD,2021.2.3,MacIntel,59.99880002,,,,,,,,,,,1.6311,0,,,,,,,,,,,,,,,,,,,,,,,,0.030746528,-0.420546875,0,0,0,,,,,,,SPINE,LB,z,m,./images/SPINELB.png,,,,,,,,m,0,1.6311,,,,,,,,0,10,10,149,1
,,,,,,,,,,,,,,,,,199564,18,2022-01-29_24h05.55.585,lexical_decision_task_DD,2021.2.3,MacIntel,59.99880002,,,,,,,,,,,1.1298,1,,,,,,,,,,,,,,,,,,,,,,,,0.030746528,-0.420546875,0,0,0,,,,,,,STATUE,C,z,m,./images/STATUE.png,,,,,,,,z,1,1.1298,,,,,,,,0,11,11,150,1
,,,,,,,,,,,,,,,,,199564,18,2022-01-29_24h05.55.585,lexical_decision_task_DD,2021.2.3,MacIntel,59.99880002,,,,,,,,,,,1.3219,1,,,,,,,,,,,,,,,,,,,,,,,,0.030746528,-0.420546875,0,0,0,,,,,,,RAZOR,HB,z,m,./images/RAZORHB.png,,,,,,,,z,1,1.3219,,,,,,,,0,12,12,118,1
,,,,,,,,,,,,,,,,,199564,18,2022-01-29_24h05.55.585,lexical_decision_task_DD,2021.2.3,MacIntel,59.99880002,,,,,,,,,,,1.8665,1,,,,,,,,,,,,,,,,,,,,,,,,0.030746528,-0.420546875,0,0,0,,,,,,,MALLET,LB,m,m,./images/MALLETLB.png,,,,,,,,m,1,1.8665,,,,,,,,0,13,13,50,1
,,,,,,,,,,,,,,,,,199564,18,2022-01-29_24h05.55.585,lexical_decision_task_DD,2021.2.3,MacIntel,59.99880002,,,,,,,,,,,1.2192,1,,,,,,,,,,,,,,,,,,,,,,,,0.030746528,-0.420546875,0,0,0,,,,,,,CANYON,HB,m,m,./images/CANYONHB.png,,,,,,,,m,1,1.2192,,,,,,,,0,14,14,34,1
,,,,,,,,,,,,,,,,,199564,18,2022-01-29_24h05.55.585,lexical_decision_task_DD,2021.2.3,MacIntel,59.99880002,,,,,,,,,,,0.8566,1,,,,,,,,,,,,,,,,,,,,,,,,0.030746528,-0.420546875,0,0,0,,,,,,,SAUCE,C,z,m,./images/SAUCE.png,,,,,,,,z,1,0.8566,,,,,,,,0,15,15,135,1
,,,,,,,,,,,,,,,,,199564,18,2022-01-29_24h05.55.585,lexical_decision_task_DD,2021.2.3,MacIntel,59.99880002,,,,,,,,,,,1.3139,1,,,,,,,,,,,,,,,,,,,,,,,,0.030746528,-0.420546875,0,0,0,,,,,,,BARREL,LB,m,m,./images/BARRELLB.png,,,,,,,,m,1,1.3139,,,,,,,,0,16,16,32,1
,,,,,,,,,,,,,,,,,199564,18,2022-01-29_24h05.55.585,lexical_decision_task_DD,2021.2.3,MacIntel,59.99880002,,,,,,,,,,,1.3671,1,,,,,,,,,,,,,,,,,,,,,,,,0.030746528,-0.420546875,0,0,0,,,,,,,COOKER,C,m,m,./images/COOKER.png,,,,,,,,m,1,1.3671,,,,,,,,0,17,17,69,1
,,,,,,,,,,,,,,,,,199564,18,2022-01-29_24h05.55.585,lexical_decision_task_DD,2021.2.3,MacIntel,59.99880002,,,,,,,,,,,1.1474,1,,,,,,,,,,,,,,,,,,,,,,,,0.030746528,-0.420546875,0,0,0,,,,,,,DOUGH,HB,m,m,./images/DOUGHHB.png,,,,,,,,m,1,1.1474,,,,,,,,0,18,18,19,1
,,,,,,,,,,,,,,,,,199564,18,2022-01-29_24h05.55.585,lexical_decision_task_DD,2021.2.3,MacIntel,59.99880002,,,,,,,,,,,1.2842,1,,,,,,,,,,,,,,,,,,,,,,,,0.030746528,-0.420546875,0,0,0,,,,,,,DONKEY,HB,z,m,./images/DONKEYHB.png,,,,,,,,z,1,1.2842,,,,,,,,0,19,19,103,1
,,,,,,,,,,,,,,,,,199564,18,2022-01-29_24h05.55.585,lexical_decision_task_DD,2021.2.3,MacIntel,59.99880002,,,,,,,,,,,0.7986,1,,,,,,,,,,,,,,,,,,,,,,,,0.030746528,-0.420546875,0,0,0,,,,,,,SHORE,C,m,m,./images/SHORE.png,,,,,,,,m,1,0.7986,,,,,,,,0,20,20,12,1
,,,,,,,,,,,,,,,,,199564,18,2022-01-29_24h05.55.585,lexical_decision_task_DD,2021.2.3,MacIntel,59.99880002,,,,,,,,,,,1.456,0,,,,,,,,,,,,,,,,,,,,,,,,0.030746528,-0.420546875,0,0,0,,,,,,,INFANT,HB,m,m,./images/INFANTHB.png,,,,,,,,z,0,1.456,,,,,,,,0,21,21,76,1
,,,,,,,,,,,,,,,,,199564,18,2022-01-29_24h05.55.585,lexical_decision_task_DD,2021.2.3,MacIntel,59.99880002,,,,,,,,,,,1.2484,0,,,,,,,,,,,,,,,,,,,,,,,,0.030746528,-0.420546875,0,0,0,,,,,,,CLOWN,HB,z,m,./images/CLOWNHB.png,,,,,,,,m,0,1.2484,,,,,,,,0,22,22,106,1
,,,,,,,,,,,,,,,,,199564,18,2022-01-29_24h05.55.585,lexical_decision_task_DD,2021.2.3,MacIntel,59.99880002,,,,,,,,,,,0.9859,1,,,,,,,,,,,,,,,,,,,,,,,,0.030746528,-0.420546875,0,0,0,,,,,,,BIRTH,HB,m,m,./images/BIRTHHB.png,,,,,,,,m,1,0.9859,,,,,,,,0,23,23,37,1
,,,,,,,,,,,,,,,,,199564,18,2022-01-29_24h05.55.585,lexical_decision_task_DD,2021.2.3,MacIntel,59.99880002,,,,,,,,,,,0.7086,1,,,,,,,,,,,,,,,,,,,,,,,,0.030746528,-0.420546875,0,0,0,,,,,,,LITTER,C,m,m,./images/LITTER.png,,,,,,,,m,1,0.7086,,,,,,,,0,24,24,78,1
,,,,,,,,,,,,,,,,,199564,18,2022-01-29_24h05.55.585,lexical_decision_task_DD,2021.2.3,MacIntel,59.99880002,,,,,,,,,,,0.6674,1,,,,,,,,,,,,,,,,,,,,,,,,0.030746528,-0.420546875,0,0,0,,,,,,,JAGUAR,C,m,m,./images/JAGUAR.png,,,,,,,,m,1,0.6674,,,,,,,,0,25,25,18,1
,,,,,,,,,,,,,,,,,199564,18,2022-01-29_24h05.55.585,lexical_decision_task_DD,2021.2.3,MacIntel,59.99880002,,,,,,,,,,,1.3073,1,,,,,,,,,,,,,,,,,,,,,,,,0.030746528,-0.420546875,0,0,0,,,,,,,MOTOR,HB,m,m,./images/MOTORHB.png,,,,,,,,m,1,1.3073,,,,,,,,0,26,26,13,1
,,,,,,,,,,,,,,,,,199564,18,2022-01-29_24h05.55.585,lexical_decision_task_DD,2021.2.3,MacIntel,59.99880002,,,,,,,,,,,0.9178,1,,,,,,,,,,,,,,,,,,,,,,,,0.030746528,-0.420546875,0,0,0,,,,,,,PILOT,LB,z,m,./images/PILOTLB.png,,,,,,,,z,1,0.9178,,,,,,,,0,27,27,134,1
,,,,,,,,,,,,,,,,,199564,18,2022-01-29_24h05.55.585,lexical_decision_task_DD,2021.2.3,MacIntel,59.99880002,,,,,,,,,,,1.4541,1,,,,,,,,,,,,,,,,,,,,,,,,0.030746528,-0.420546875,0,0,0,,,,,,,MONKEY,C,z,m,./images/MONKEY.png,,,,,,,,z,1,1.4541,,,,,,,,0,28,28,129,1
,,,,,,,,,,,,,,,,,199564,18,2022-01-29_24h05.55.585,lexical_decision_task_DD,2021.2.3,MacIntel,59.99880002,,,,,,,,,,,0.7844,1,,,,,,,,,,,,,,,,,,,,,,,,0.030746528,-0.420546875,0,0,0,,,,,,,JUNGLE,LB,m,m,./images/JUNGLELB.png,,,,,,,,m,1,0.7844,,,,,,,,0,29,29,83,1
,,,,,,,,,,,,,,,,,199564,18,2022-01-29_24h05.55.585,lexical_decision_task_DD,2021.2.3,MacIntel,59.99880002,,,,,,,,,,,0.9163,1,,,,,,,,,,,,,,,,,,,,,,,,0.030746528,-0.420546875,0,0,0,,,,,,,MOSQUE,HB,m,m,./images/MOSQUEHB.png,,,,,,,,m,1,0.9163,,,,,,,,0,30,30,43,1
,,,,,,,,,,,,,,,,,199564,18,2022-01-29_24h05.55.585,lexical_decision_task_DD,2021.2.3,MacIntel,59.99880002,,,,,,,,,,,1.3833,1,,,,,,,,,,,,,,,,,,,,,,,,0.030746528,-0.420546875,0,0,0,,,,,,,FLESH,C,z,m,./images/FLESH.png,,,,,,,,z,1,1.3833,,,,,,,,0,31,31,108,1
,,,,,,,,,,,,,,,,,199564,18,2022-01-29_24h05.55.585,lexical_decision_task_DD,2021.2.3,MacIntel,59.99880002,,,,,,,,,,,1.0712,1,,,,,,,,,,,,,,,,,,,,,,,,0.030746528,-0.420546875,0,0,0,,,,,,,PEARL,HB,m,m,./images/PEARLHB.png,,,,,,,,m,1,1.0712,,,,,,,,0,32,32,46,1
,,,,,,,,,,,,,,,,,199564,18,2022-01-29_24h05.55.585,lexical_decision_task_DD,2021.2.3,MacIntel,59.99880002,,,,,,,,,,,0.8478,1,,,,,,,,,,,,,,,,,,,,,,,,0.030746528,-0.420546875,0,0,0,,,,,,,TORCH,LB,m,m,./images/TORCHLB.png,,,,,,,,m,1,0.8478,,,,,,,,0,33,33,68,1
,,,,,,,,,,,,,,,,,199564,18,2022-01-29_24h05.55.585,lexical_decision_task_DD,2021.2.3,MacIntel,59.99880002,,,,,,,,,,,1.1539,1,,,,,,,,,,,,,,,,,,,,,,,,0.030746528,-0.420546875,0,0,0,,,,,,,CANDLE,HB,m,m,./images/CANDLEHB.png,,,,,,,,m,1,1.1539,,,,,,,,0,34,34,61,1
,,,,,,,,,,,,,,,,,199564,18,2022-01-29_24h05.55.585,lexical_decision_task_DD,2021.2.3,MacIntel,59.99880002,,,,,,,,,,,1.0358,0,,,,,,,,,,,,,,,,,,,,,,,,0.030746528,-0.420546875,0,0,0,,,,,,,CURRY,C,z,m,./images/CURRY.png,,,,,,,,m,0,1.0358,,,,,,,,0,35,35,144,1
,,,,,,,,,,,,,,,,,199564,18,2022-01-29_24h05.55.585,lexical_decision_task_DD,2021.2.3,MacIntel,59.99880002,,,,,,,,,,,0.7818,1,,,,,,,,,,,,,,,,,,,,,,,,0.030746528,-0.420546875,0,0,0,,,,,,,FALCON,HB,m,m,./images/FALCONHB.png,,,,,,,,m,1,0.7818,,,,,,,,0,36,36,28,1
,,,,,,,,,,,,,,,,,199564,18,2022-01-29_24h05.55.585,lexical_decision_task_DD,2021.2.3,MacIntel,59.99880002,,,,,,,,,,,1.6002,1,,,,,,,,,,,,,,,,,,,,,,,,0.030746528,-0.420546875,0,0,0,,,,,,,CANOE,HB,z,m,./images/CANOEHB.png,,,,,,,,z,1,1.6002,,,,,,,,0,37,37,142,1
,,,,,,,,,,,,,,,,,199564,18,2022-01-29_24h05.55.585,lexical_decision_task_DD,2021.2.3,MacIntel,59.99880002,,,,,,,,,,,0.8231,1,,,,,,,,,,,,,,,,,,,,,,,,0.030746528,-0.420546875,0,0,0,,,,,,,JELLY,HB,m,m,./images/JELLYHB.png,,,,,,,,m,1,0.8231,,,,,,,,0,38,38,64,1
,,,,,,,,,,,,,,,,,199564,18,2022-01-29_24h05.55.585,lexical_decision_task_DD,2021.2.3,MacIntel,59.99880002,,,,,,,,,,,0.7177,1,,,,,,,,,,,,,,,,,,,,,,,,0.030746528,-0.420546875,0,0,0,,,,,,,MAGGOT,C,m,m,./images/MAGGOT.png,,,,,,,,m,1,0.7177,,,,,,,,0,39,39,33,1
,,,,,,,,,,,,,,,,,199564,18,2022-01-29_24h05.55.585,lexical_decision_task_DD,2021.2.3,MacIntel,59.99880002,,,,,,,,,,,1.0664,0,,,,,,,,,,,,,,,,,,,,,,,,0.030746528,-0.420546875,0,0,0,,,,,,,FENCE,LB,z,m,./images/FENCELB.png,,,,,,,,m,0,1.0664,,,,,,,,0,40,40,98,1
,,,,,,,,,,,,,,,,,199564,18,2022-01-29_24h05.55.585,lexical_decision_task_DD,2021.2.3,MacIntel,59.99880002,,,,,,,,,,,0.8917,1,,,,,,,,,,,,,,,,,,,,,,,,0.030746528,-0.420546875,0,0,0,space,,,,,,SLOPE,C,z,m,./images/SLOPE.png,2.4697,,,,,,,z,1,0.8917,,,,,,,,0,41,41,114,1
,,,,,,,,,,,,,,,,,199564,18,2022-01-29_24h05.55.585,lexical_decision_task_DD,2021.2.3,MacIntel,59.99880002,,,,,,,,,,,0.9566,1,,,,,,,,,,,,,,,,,,,,,,,,0.030746528,-0.420546875,0,0,0,,,,,,,FARMER,LB,m,m,./images/FARMERLB.png,,,,,,,,m,1,0.9566,,,,,,,,0,42,42,65,1
,,,,,,,,,,,,,,,,,199564,18,2022-01-29_24h05.55.585,lexical_decision_task_DD,2021.2.3,MacIntel,59.99880002,,,,,,,,,,,0.7685,1,,,,,,,,,,,,,,,,,,,,,,,,0.030746528,-0.420546875,0,0,0,,,,,,,SQUARE,C,m,m,./images/SQUARE.png,,,,,,,,m,1,0.7685,,,,,,,,0,43,43,6,1
,,,,,,,,,,,,,,,,,199564,18,2022-01-29_24h05.55.585,lexical_decision_task_DD,2021.2.3,MacIntel,59.99880002,,,,,,,,,,,0.7711,1,,,,,,,,,,,,,,,,,,,,,,,,0.030746528,-0.420546875,0,0,0,,,,,,,TULIP,LB,m,m,./images/TULIPLB.png,,,,,,,,m,1,0.7711,,,,,,,,0,44,44,8,1
,,,,,,,,,,,,,,,,,199564,18,2022-01-29_24h05.55.585,lexical_decision_task_DD,2021.2.3,MacIntel,59.99880002,,,,,,,,,,,1.1551,1,,,,,,,,,,,,,,,,,,,,,,,,0.030746528,-0.420546875,0,0,0,,,,,,,PARADE,LB,z,m,./images/PARADELB.png,,,,,,,,z,1,1.1551,,,,,,,,0,45,45,101,1
,,,,,,,,,,,,,,,,,199564,18,2022-01-29_24h05.55.585,lexical_decision_task_DD,2021.2.3,MacIntel,59.99880002,,,,,,,,,,,0.9153,1,,,,,,,,,,,,,,,,,,,,,,,,0.030746528,-0.420546875,0,0,0,,,,,,,STAIN,C,z,m,./images/STAIN.png,,,,,,,,z,1,0.9153,,,,,,,,0,46,46,90,1
,,,,,,,,,,,,,,,,,199564,18,2022-01-29_24h05.55.585,lexical_decision_task_DD,2021.2.3,MacIntel,59.99880002,,,,,,,,,,,0.8189,1,,,,,,,,,,,,,,,,,,,,,,,,0.030746528,-0.420546875,0,0,0,,,,,,,PIMPLE,LB,m,m,./images/PIMPLELB.png,,,,,,,,m,1,0.8189,,,,,,,,0,47,47,71,1
,,,,,,,,,,,,,,,,,199564,18,2022-01-29_24h05.55.585,lexical_decision_task_DD,2021.2.3,MacIntel,59.99880002,,,,,,,,,,,0.9816,1,,,,,,,,,,,,,,,,,,,,,,,,0.030746528,-0.420546875,0,0,0,,,,,,,RULER,HB,z,m,./images/RULERHB.png,,,,,,,,z,1,0.9816,,,,,,,,0,48,48,163,1
,,,,,,,,,,,,,,,,,199564,18,2022-01-29_24h05.55.585,lexical_decision_task_DD,2021.2.3,MacIntel,59.99880002,,,,,,,,,,,0.8637,1,,,,,,,,,,,,,,,,,,,,,,,,0.030746528,-0.420546875,0,0,0,,,,,,,FERRY,C,z,m,./images/FERRY.png,,,,,,,,z,1,0.8637,,,,,,,,0,49,49,141,1
,,,,,,,,,,,,,,,,,199564,18,2022-01-29_24h05.55.585,lexical_decision_task_DD,2021.2.3,MacIntel,59.99880002,,,,,,,,,,,0.9834,0,,,,,,,,,,,,,,,,,,,,,,,,0.030746528,-0.420546875,0,0,0,,,,,,,BAKER,C,z,m,./images/BAKER.png,,,,,,,,m,0,0.9834,,,,,,,,0,50,50,147,1
,,,,,,,,,,,,,,,,,199564,18,2022-01-29_24h05.55.585,lexical_decision_task_DD,2021.2.3,MacIntel,59.99880002,,,,,,,,,,,1.006,1,,,,,,,,,,,,,,,,,,,,,,,,0.030746528,-0.420546875,0,0,0,,,,,,,WALRUS,LB,m,m,./images/WALRUSLB.png,,,,,,,,m,1,1.006,,,,,,,,0,51,51,23,1
,,,,,,,,,,,,,,,,,199564,18,2022-01-29_24h05.55.585,lexical_decision_task_DD,2021.2.3,MacIntel,59.99880002,,,,,,,,,,,0.9842,1,,,,,,,,,,,,,,,,,,,,,,,,0.030746528,-0.420546875,0,0,0,,,,,,,SHIELD,C,z,m,./images/SHIELD.png,,,,,,,,z,1,0.9842,,,,,,,,0,52,52,132,1
,,,,,,,,,,,,,,,,,199564,18,2022-01-29_24h05.55.585,lexical_decision_task_DD,2021.2.3,MacIntel,59.99880002,,,,,,,,,,,0.6577,1,,,,,,,,,,,,,,,,,,,,,,,,0.030746528,-0.420546875,0,0,0,,,,,,,TRIPOD,C,m,m,./images/TRIPOD.png,,,,,,,,m,1,0.6577,,,,,,,,0,53,53,54,1
,,,,,,,,,,,,,,,,,199564,18,2022-01-29_24h05.55.585,lexical_decision_task_DD,2021.2.3,MacIntel,59.99880002,,,,,,,,,,,0.8151,1,,,,,,,,,,,,,,,,,,,,,,,,0.030746528,-0.420546875,0,0,0,,,,,,,PISTOL,LB,z,m,./images/PISTOLLB.png,,,,,,,,z,1,0.8151,,,,,,,,0,54,54,113,1
,,,,,,,,,,,,,,,,,199564,18,2022-01-29_24h05.55.585,lexical_decision_task_DD,2021.2.3,MacIntel,59.99880002,,,,,,,,,,,1.3483,1,,,,,,,,,,,,,,,,,,,,,,,,0.030746528,-0.420546875,0,0,0,,,,,,,SCREW,C,m,m,./images/SCREW.png,,,,,,,,m,1,1.3483,,,,,,,,0,55,55,24,1
,,,,,,,,,,,,,,,,,199564,18,2022-01-29_24h05.55.585,lexical_decision_task_DD,2021.2.3,MacIntel,59.99880002,,,,,,,,,,,0.7478,1,,,,,,,,,,,,,,,,,,,,,,,,0.030746528,-0.420546875,0,0,0,,,,,,,DIVER,C,z,m,./images/DIVER.png,,,,,,,,z,1,0.7478,,,,,,,,0,56,56,93,1
,,,,,,,,,,,,,,,,,199564,18,2022-01-29_24h05.55.585,lexical_decision_task_DD,2021.2.3,MacIntel,59.99880002,,,,,,,,,,,0.7846,1,,,,,,,,,,,,,,,,,,,,,,,,0.030746528,-0.420546875,0,0,0,,,,,,,STRING,LB,m,m,./images/STRINGLB.png,,,,,,,,m,1,0.7846,,,,,,,,0,57,57,41,1
,,,,,,,,,,,,,,,,,199564,18,2022-01-29_24h05.55.585,lexical_decision_task_DD,2021.2.3,MacIntel,59.99880002,,,,,,,,,,,1.1647,1,,,,,,,,,,,,,,,,,,,,,,,,0.030746528,-0.420546875,0,0,0,,,,,,,WAGON,HB,z,m,./images/WAGONHB.png,,,,,,,,z,1,1.1647,,,,,,,,0,58,58,91,1
,,,,,,,,,,,,,,,,,199564,18,2022-01-29_24h05.55.585,lexical_decision_task_DD,2021.2.3,MacIntel,59.99880002,,,,,,,,,,,1.9368,1,,,,,,,,,,,,,,,,,,,,,,,,0.030746528,-0.420546875,0,0,0,,,,,,,TOMATO,C,m,m,./images/TOMATO.png,,,,,,,,m,1,1.9368,,,,,,,,0,59,59,0,1
,,,,,,,,,,,,,,,,,199564,18,2022-01-29_24h05.55.585,lexical_decision_task_DD,2021.2.3,MacIntel,59.99880002,,,,,,,,,,,0.9059,1,,,,,,,,,,,,,,,,,,,,,,,,0.030746528,-0.420546875,0,0,0,,,,,,,BABOON,HB,m,m,./images/BABOONHB.png,,,,,,,,m,1,0.9059,,,,,,,,0,60,60,58,1
,,,,,,,,,,,,,,,,,199564,18,2022-01-29_24h05.55.585,lexical_decision_task_DD,2021.2.3,MacIntel,59.99880002,,,,,,,,,,,1.6494,0,,,,,,,,,,,,,,,,,,,,,,,,0.028307292,-0.419965278,0,0,0,,,,,,,BAMBOO,LB,z,m,./images/BAMBOOLB.png,,,,,,,,m,0,1.6494,,,,,,,,0,61,61,89,1
,,,,,,,,,,,,,,,,,199564,18,2022-01-29_24h05.55.585,lexical_decision_task_DD,2021.2.3,MacIntel,59.99880002,,,,,,,,,,,0.8331,1,,,,,,,,,,,,,,,,,,,,,,,,0.028307292,-0.419965278,0,0,0,,,,,,,CRATER,C,z,m,./images/CRATER.png,,,,,,,,z,1,0.8331,,,,,,,,0,62,62,87,1
,,,,,,,,,,,,,,,,,199564,18,2022-01-29_24h05.55.585,lexical_decision_task_DD,2021.2.3,MacIntel,59.99880002,,,,,,,,,,,1.0291,1,,,,,,,,,,,,,,,,,,,,,,,,0.028307292,-0.419965278,0,0,0,,,,,,,STEAK,HB,z,m,./images/STEAKHB.png,,,,,,,,z,1,1.0291,,,,,,,,0,63,63,115,1
,,,,,,,,,,,,,,,,,199564,18,2022-01-29_24h05.55.585,lexical_decision_task_DD,2021.2.3,MacIntel,59.99880002,,,,,,,,,,,1.6667,1,,,,,,,,,,,,,,,,,,,,,,,,0.028016493,-0.419965278,0,0,0,,,,,,,LLAMA,LB,z,m,./images/LLAMALB.png,,,,,,,,z,1,1.6667,,,,,,,,0,64,64,119,1
,,,,,,,,,,,,,,,,,199564,18,2022-01-29_24h05.55.585,lexical_decision_task_DD,2021.2.3,MacIntel,59.99880002,,,,,,,,,,,1.7003,1,,,,,,,,,,,,,,,,,,,,,,,,0.027947049,-0.421397569,0,0,0,,,,,,,BUTTER,C,z,m,./images/BUTTER.png,,,,,,,,z,1,1.7003,,,,,,,,0,65,65,111,1
,,,,,,,,,,,,,,,,,199564,18,2022-01-29_24h05.55.585,lexical_decision_task_DD,2021.2.3,MacIntel,59.99880002,,,,,,,,,,,0.8505,1,,,,,,,,,,,,,,,,,,,,,,,,0.028233507,-0.421332465,0,0,0,,,,,,,SNAKE,HB,z,m,./images/SNAKEHB.png,,,,,,,,z,1,0.8505,,,,,,,,0,66,66,124,1
,,,,,,,,,,,,,,,,,199564,18,2022-01-29_24h05.55.585,lexical_decision_task_DD,2021.2.3,MacIntel,59.99880002,,,,,,,,,,,0.9826,1,,,,,,,,,,,,,,,,,,,,,,,,0.028233507,-0.421332465,0,0,0,,,,,,,POODLE,C,m,m,./images/POODLE.png,,,,,,,,m,1,0.9826,,,,,,,,0,67,67,81,1
,,,,,,,,,,,,,,,,,199564,18,2022-01-29_24h05.55.585,lexical_decision_task_DD,2021.2.3,MacIntel,59.99880002,,,,,,,,,,,0.723,1,,,,,,,,,,,,,,,,,,,,,,,,0.028233507,-0.421332465,0,0,0,,,,,,,DRUMS,HB,m,m,./images/DRUMSHB.png,,,,,,,,m,1,0.723,,,,,,,,0,68,68,49,1
,,,,,,,,,,,,,,,,,199564,18,2022-01-29_24h05.55.585,lexical_decision_task_DD,2021.2.3,MacIntel,59.99880002,,,,,,,,,,,0.7661,1,,,,,,,,,,,,,,,,,,,,,,,,0.028233507,-0.421332465,0,0,0,,,,,,,MUFFIN,HB,m,m,./images/MUFFINHB.png,,,,,,,,m,1,0.7661,,,,,,,,0,69,69,55,1
,,,,,,,,,,,,,,,,,199564,18,2022-01-29_24h05.55.585,lexical_decision_task_DD,2021.2.3,MacIntel,59.99880002,,,,,,,,,,,0.7504,1,,,,,,,,,,,,,,,,,,,,,,,,0.028233507,-0.421332465,0,0,0,,,,,,,BANANA,HB,z,m,./images/BANANAHB.png,,,,,,,,z,1,0.7504,,,,,,,,0,70,70,154,1
,,,,,,,,,,,,,,,,,199564,18,2022-01-29_24h05.55.585,lexical_decision_task_DD,2021.2.3,MacIntel,59.99880002,,,,,,,,,,,0.8313,1,,,,,,,,,,,,,,,,,,,,,,,,0.028233507,-0.421332465,0,0,0,,,,,,,GRAPE,HB,z,m,./images/GRAPEHB.png,,,,,,,,z,1,0.8313,,,,,,,,0,71,71,100,1
,,,,,,,,,,,,,,,,,199564,18,2022-01-29_24h05.55.585,lexical_decision_task_DD,2021.2.3,MacIntel,59.99880002,,,,,,,,,,,1.4585,0,,,,,,,,,,,,,,,,,,,,,,,,0.028233507,-0.421332465,0,0,0,,,,,,,FLASK,C,z,m,./images/FLASK.png,,,,,,,,m,0,1.4585,,,,,,,,0,72,72,156,1
,,,,,,,,,,,,,,,,,199564,18,2022-01-29_24h05.55.585,lexical_decision_task_DD,2021.2.3,MacIntel,59.99880002,,,,,,,,,,,0.8844,1,,,,,,,,,,,,,,,,,,,,,,,,0.028233507,-0.421332465,0,0,0,,,,,,,BUBBLE,LB,z,m,./images/BUBBLELB.png,,,,,,,,z,1,0.8844,,,,,,,,0,73,73,155,1
,,,,,,,,,,,,,,,,,199564,18,2022-01-29_24h05.55.585,lexical_decision_task_DD,2021.2.3,MacIntel,59.99880002,,,,,,,,,,,1.2667,1,,,,,,,,,,,,,,,,,,,,,,,,0.028233507,-0.421332465,0,0,0,,,,,,,TIGER,HB,z,m,./images/TIGERHB.png,,,,,,,,z,1,1.2667,,,,,,,,0,74,74,121,1
,,,,,,,,,,,,,,,,,199564,18,2022-01-29_24h05.55.585,lexical_decision_task_DD,2021.2.3,MacIntel,59.99880002,,,,,,,,,,,1.848,1,,,,,,,,,,,,,,,,,,,,,,,,0.028233507,-0.421332465,0,0,0,,,,,,,QUILL,HB,m,m,./images/QUILLHB.png,,,,,,,,m,1,1.848,,,,,,,,0,75,75,31,1
,,,,,,,,,,,,,,,,,199564,18,2022-01-29_24h05.55.585,lexical_decision_task_DD,2021.2.3,MacIntel,59.99880002,,,,,,,,,,,1.0813,1,,,,,,,,,,,,,,,,,,,,,,,,0.028233507,-0.421332465,0,0,0,,,,,,,GLOVE,HB,z,m,./images/GLOVEHB.png,,,,,,,,z,1,1.0813,,,,,,,,0,76,76,157,1
,,,,,,,,,,,,,,,,,199564,18,2022-01-29_24h05.55.585,lexical_decision_task_DD,2021.2.3,MacIntel,59.99880002,,,,,,,,,,,1.1213,1,,,,,,,,,,,,,,,,,,,,,,,,0.028233507,-0.421332465,0,0,0,,,,,,,GRANNY,LB,z,m,./images/GRANNYLB.png,,,,,,,,z,1,1.1213,,,,,,,,0,77,77,104,1
,,,,,,,,,,,,,,,,,199564,18,2022-01-29_24h05.55.585,lexical_decision_task_DD,2021.2.3,MacIntel,59.99880002,,,,,,,,,,,1.8048,1,,,,,,,,,,,,,,,,,,,,,,,,0.028233507,-0.421332465,0,0,0,,,,,,,NOOSE,C,m,m,./images/NOOSE.png,,,,,,,,m,1,1.8048,,,,,,,,0,78,78,72,1
,,,,,,,,,,,,,,,,,199564,18,2022-01-29_24h05.55.585,lexical_decision_task_DD,2021.2.3,MacIntel,59.99880002,,,,,,,,,,,0.9388,1,,,,,,,,,,,,,,,,,,,,,,,,0.028233507,-0.421332465,0,0,0,,,,,,,BROOM,C,z,m,./images/BROOM.png,,,,,,,,z,1,0.9388,,,,,,,,0,79,79,162,1
,,,,,,,,,,,,,,,,,199564,18,2022-01-29_24h05.55.585,lexical_decision_task_DD,2021.2.3,MacIntel,59.99880002,,,,,,,,,,,1.6185,0,,,,,,,,,,,,,,,,,,,,,,,,0.028233507,-0.421332465,0,0,0,,,,,,,POKER,HB,z,m,./images/POKERHB.png,,,,,,,,m,0,1.6185,,,,,,,,0,80,80,151,1
,,,,,,,,,,,,,,,,,199564,18,2022-01-29_24h05.55.585,lexical_decision_task_DD,2021.2.3,MacIntel,59.99880002,,,,,,,,,,,0.7655,1,,,,,,,,,,,,,,,,,,,,,,,,0.028233507,-0.421332465,0,0,0,,,,,,,SMOKER,LB,m,m,./images/SMOKERLB.png,,,,,,,,m,1,0.7655,,,,,,,,0,81,81,26,1
,,,,,,,,,,,,,,,,,199564,18,2022-01-29_24h05.55.585,lexical_decision_task_DD,2021.2.3,MacIntel,59.99880002,,,,,,,,,,,0.8517,0,,,,,,,,,,,,,,,,,,,,,,,,0.028233507,-0.421332465,0,0,0,,,,,,,FOLDER,C,m,m,./images/FOLDER.png,,,,,,,,z,0,0.8517,,,,,,,,0,82,82,42,1
,,,,,,,,,,,,,,,,,199564,18,2022-01-29_24h05.55.585,lexical_decision_task_DD,2021.2.3,MacIntel,59.99880002,,,,,,,,,,,1.2189,0,,,,,,,,,,,,,,,,,,,,,,,,0.028233507,-0.421332465,0,0,0,space,,,,,,PEACH,LB,m,m,./images/PEACHLB.png,4.4747,,,,,,,z,0,1.2189,,,,,,,,0,83,83,35,1
,,,,,,,,,,,,,,,,,199564,18,2022-01-29_24h05.55.585,lexical_decision_task_DD,2021.2.3,MacIntel,59.99880002,,,,,,,,,,,1.2183,1,,,,,,,,,,,,,,,,,,,,,,,,0.028233507,-0.421332465,0,0,0,,,,,,,HAMMER,C,z,m,./images/HAMMER.png,,,,,,,,z,1,1.2183,,,,,,,,0,84,84,159,1
,,,,,,,,,,,,,,,,,199564,18,2022-01-29_24h05.55.585,lexical_decision_task_DD,2021.2.3,MacIntel,59.99880002,,,,,,,,,,,0.8998,1,,,,,,,,,,,,,,,,,,,,,,,,0.028233507,-0.421332465,0,0,0,,,,,,,ONION,C,m,m,./images/ONION.png,,,,,,,,m,1,0.8998,,,,,,,,0,85,85,51,1
,,,,,,,,,,,,,,,,,199564,18,2022-01-29_24h05.55.585,lexical_decision_task_DD,2021.2.3,MacIntel,59.99880002,,,,,,,,,,,1.1734,1,,,,,,,,,,,,,,,,,,,,,,,,0.028233507,-0.421332465,0,0,0,,,,,,,SAUNA,C,z,m,./images/SAUNA.png,,,,,,,,z,1,1.1734,,,,,,,,0,86,86,117,1
,,,,,,,,,,,,,,,,,199564,18,2022-01-29_24h05.55.585,lexical_decision_task_DD,2021.2.3,MacIntel,59.99880002,,,,,,,,,,,1.1501,1,,,,,,,,,,,,,,,,,,,,,,,,0.028233507,-0.421332465,0,0,0,,,,,,,BANNER,HB,m,m,./images/BANNERHB.png,,,,,,,,m,1,1.1501,,,,,,,,0,87,87,52,1
,,,,,,,,,,,,,,,,,199564,18,2022-01-29_24h05.55.585,lexical_decision_task_DD,2021.2.3,MacIntel,59.99880002,,,,,,,,,,,0.8116,1,,,,,,,,,,,,,,,,,,,,,,,,0.027942708,-0.421905382,0,0,0,,,,,,,DANCER,C,z,m,./images/DANCER.png,,,,,,,,z,1,0.8116,,,,,,,,0,88,88,105,1
,,,,,,,,,,,,,,,,,199564,18,2022-01-29_24h05.55.585,lexical_decision_task_DD,2021.2.3,MacIntel,59.99880002,,,,,,,,,,,2.4688,1,,,,,,,,,,,,,,,,,,,,,,,,0.02765191,-0.421614583,0,0,0,,,,,,,CANDY,C,z,m,./images/CANDY.png,,,,,,,,z,1,2.4688,,,,,,,,0,89,89,123,1
,,,,,,,,,,,,,,,,,199564,18,2022-01-29_24h05.55.585,lexical_decision_task_DD,2021.2.3,MacIntel,59.99880002,,,,,,,,,,,1.4483,1,,,,,,,,,,,,,,,,,,,,,,,,0.027934028,-0.421610243,0,0,0,,,,,,,WEASEL,LB,m,m,./images/WEASELLB.png,,,,,,,,m,1,1.4483,,,,,,,,0,90,90,80,1
,,,,,,,,,,,,,,,,,199564,18,2022-01-29_24h05.55.585,lexical_decision_task_DD,2021.2.3,MacIntel,59.99880002,,,,,,,,,,,0.9399,1,,,,,,,,,,,,,,,,,,,,,,,,0.027934028,-0.421896701,0,0,0,,,,,,,PARCEL,C,z,m,./images/PARCEL.png,,,,,,,,z,1,0.9399,,,,,,,,0,91,91,102,1
,,,,,,,,,,,,,,,,,199564,18,2022-01-29_24h05.55.585,lexical_decision_task_DD,2021.2.3,MacIntel,59.99880002,,,,,,,,,,,0.9137,1,,,,,,,,,,,,,,,,,,,,,,,,0.027934028,-0.421892361,0,0,0,,,,,,,CLOUD,LB,z,m,./images/CLOUDLB.png,,,,,,,,z,1,0.9137,,,,,,,,0,92,92,110,1
,,,,,,,,,,,,,,,,,199564,18,2022-01-29_24h05.55.585,lexical_decision_task_DD,2021.2.3,MacIntel,59.99880002,,,,,,,,,,,1.622,1,,,,,,,,,,,,,,,,,,,,,,,,0.027934028,-0.421892361,0,0,0,,,,,,,STREAM,LB,z,m,./images/STREAMLB.png,,,,,,,,z,1,1.622,,,,,,,,0,93,93,125,1
,,,,,,,,,,,,,,,,,199564,18,2022-01-29_24h05.55.585,lexical_decision_task_DD,2021.2.3,MacIntel,59.99880002,,,,,,,,,,,1.5126,1,,,,,,,,,,,,,,,,,,,,,,,,0.027934028,-0.421892361,0,0,0,,,,,,,WHEEL,LB,z,m,./images/WHEELLB.png,,,,,,,,z,1,1.5126,,,,,,,,0,94,94,161,1
,,,,,,,,,,,,,,,,,199564,18,2022-01-29_24h05.55.585,lexical_decision_task_DD,2021.2.3,MacIntel,59.99880002,,,,,,,,,,,1.0744,0,,,,,,,,,,,,,,,,,,,,,,,,0.027934028,-0.421892361,0,0,0,,,,,,,GARDEN,HB,z,m,./images/GARDENHB.png,,,,,,,,m,0,1.0744,,,,,,,,0,95,95,94,1
,,,,,,,,,,,,,,,,,199564,18,2022-01-29_24h05.55.585,lexical_decision_task_DD,2021.2.3,MacIntel,59.99880002,,,,,,,,,,,1.6073,1,,,,,,,,,,,,,,,,,,,,,,,,0.027934028,-0.421892361,0,0,0,,,,,,,ENGINE,LB,z,m,./images/ENGINELB.png,,,,,,,,z,1,1.6073,,,,,,,,0,96,96,122,1
,,,,,,,,,,,,,,,,,199564,18,2022-01-29_24h05.55.585,lexical_decision_task_DD,2021.2.3,MacIntel,59.99880002,,,,,,,,,,,1.0881,1,,,,,,,,,,,,,,,,,,,,,,,,0.028502604,-0.422460938,0,0,0,,,,,,,WHISKY,LB,z,m,./images/WHISKYLB.png,,,,,,,,z,1,1.0881,,,,,,,,0,97,97,167,1
,,,,,,,,,,,,,,,,,199564,18,2022-01-29_24h05.55.585,lexical_decision_task_DD,2021.2.3,MacIntel,59.99880002,,,,,,,,,,,2.722,1,,,,,,,,,,,,,,,,,,,,,,,,0.028502604,-0.422170139,0,0,0,,,,,,,PICKLE,LB,m,m,./images/PICKLELB.png,,,,,,,,m,1,2.722,,,,,,,,0,98,98,14,1
,,,,,,,,,,,,,,,,,199564,18,2022-01-29_24h05.55.585,lexical_decision_task_DD,2021.2.3,MacIntel,59.99880002,,,,,,,,,,,0.9017,1,,,,,,,,,,,,,,,,,,,,,,,,0.029071181,-0.422387153,0,0,0,,,,,,,COUCH,LB,m,m,./images/COUCHLB.png,,,,,,,,m,1,0.9017,,,,,,,,0,99,99,77,1
,,,,,,,,,,,,,,,,,199564,18,2022-01-29_24h05.55.585,lexical_decision_task_DD,2021.2.3,MacIntel,59.99880002,,,,,,,,,,,0.8172,1,,,,,,,,,,,,,,,,,,,,,,,,0.029357639,-0.422387153,0,0,0,,,,,,,BELLY,HB,m,m,./images/BELLYHB.png,,,,,,,,m,1,0.8172,,,,,,,,0,100,100,10,1
,,,,,,,,,,,,,,,,,199564,18,2022-01-29_24h05.55.585,lexical_decision_task_DD,2021.2.3,MacIntel,59.99880002,,,,,,,,,,,0.781,1,,,,,,,,,,,,,,,,,,,,,,,,0.029357639,-0.422387153,0,0,0,,,,,,,CEMENT,LB,m,m,./images/CEMENTLB.png,,,,,,,,m,1,0.781,,,,,,,,0,101,101,74,1
,,,,,,,,,,,,,,,,,199564,18,2022-01-29_24h05.55.585,lexical_decision_task_DD,2021.2.3,MacIntel,59.99880002,,,,,,,,,,,0.7476,1,,,,,,,,,,,,,,,,,,,,,,,,0.029357639,-0.422092014,0,0,0,,,,,,,SHELF,C,m,m,./images/SHELF.png,,,,,,,,m,1,0.7476,,,,,,,,0,102,102,39,1
,,,,,,,,,,,,,,,,,199564,18,2022-01-29_24h05.55.585,lexical_decision_task_DD,2021.2.3,MacIntel,59.99880002,,,,,,,,,,,1.1461,1,,,,,,,,,,,,,,,,,,,,,,,,0.029357639,-0.421453993,0,0,0,,,,,,,GRAIN,C,m,m,./images/GRAIN.png,,,,,,,,m,1,1.1461,,,,,,,,0,103,103,75,1
,,,,,,,,,,,,,,,,,199564,18,2022-01-29_24h05.55.585,lexical_decision_task_DD,2021.2.3,MacIntel,59.99880002,,,,,,,,,,,0.9643,1,,,,,,,,,,,,,,,,,,,,,,,,0.029357639,-0.421453993,0,0,0,,,,,,,JUMPER,LB,z,m,./images/JUMPERLB.png,,,,,,,,z,1,0.9643,,,,,,,,0,104,104,158,1
,,,,,,,,,,,,,,,,,199564,18,2022-01-29_24h05.55.585,lexical_decision_task_DD,2021.2.3,MacIntel,59.99880002,,,,,,,,,,,0.7522,1,,,,,,,,,,,,,,,,,,,,,,,,0.029357639,-0.421453993,0,0,0,,,,,,,FINGER,C,m,m,./images/FINGER.png,,,,,,,,m,1,0.7522,,,,,,,,0,105,105,3,1
,,,,,,,,,,,,,,,,,199564,18,2022-01-29_24h05.55.585,lexical_decision_task_DD,2021.2.3,MacIntel,59.99880002,,,,,,,,,,,0.8466,1,,,,,,,,,,,,,,,,,,,,,,,,0.029357639,-0.421453993,0,0,0,,,,,,,SUNSET,HB,m,m,./images/SUNSETHB.png,,,,,,,,m,1,0.8466,,,,,,,,0,106,106,82,1
,,,,,,,,,,,,,,,,,199564,18,2022-01-29_24h05.55.585,lexical_decision_task_DD,2021.2.3,MacIntel,59.99880002,,,,,,,,,,,1.5485,0,,,,,,,,,,,,,,,,,,,,,,,,0.029357639,-0.423172743,0,0,0,,,,,,,BOILER,C,z,m,./images/BOILER.png,,,,,,,,m,0,1.5485,,,,,,,,0,107,107,120,1
,,,,,,,,,,,,,,,,,199564,18,2022-01-29_24h05.55.585,lexical_decision_task_DD,2021.2.3,MacIntel,59.99880002,,,,,,,,,,,1.1191,1,,,,,,,,,,,,,,,,,,,,,,,,0.029357639,-0.423172743,0,0,0,,,,,,,CHALK,HB,z,m,./images/CHALKHB.png,,,,,,,,z,1,1.1191,,,,,,,,0,108,108,109,1
,,,,,,,,,,,,,,,,,199564,18,2022-01-29_24h05.55.585,lexical_decision_task_DD,2021.2.3,MacIntel,59.99880002,,,,,,,,,,,0.8352,1,,,,,,,,,,,,,,,,,,,,,,,,0.029357639,-0.423172743,0,0,0,,,,,,,HOCKEY,LB,z,m,./images/HOCKEYLB.png,,,,,,,,z,1,0.8352,,,,,,,,0,109,109,116,1
,,,,,,,,,,,,,,,,,199564,18,2022-01-29_24h05.55.585,lexical_decision_task_DD,2021.2.3,MacIntel,59.99880002,,,,,,,,,,,0.8667,0,,,,,,,,,,,,,,,,,,,,,,,,0.029357639,-0.423172743,0,0,0,,,,,,,CRUMB,LB,m,m,./images/CRUMBLB.png,,,,,,,,z,0,0.8667,,,,,,,,0,110,110,29,1
,,,,,,,,,,,,,,,,,199564,18,2022-01-29_24h05.55.585,lexical_decision_task_DD,2021.2.3,MacIntel,59.99880002,,,,,,,,,,,0.6684,1,,,,,,,,,,,,,,,,,,,,,,,,0.029357639,-0.423172743,0,0,0,,,,,,,MUSCLE,HB,m,m,./images/MUSCLEHB.png,,,,,,,,m,1,0.6684,,,,,,,,0,111,111,4,1
,,,,,,,,,,,,,,,,,199564,18,2022-01-29_24h05.55.585,lexical_decision_task_DD,2021.2.3,MacIntel,59.99880002,,,,,,,,,,,1.1752,0,,,,,,,,,,,,,,,,,,,,,,,,0.029357639,-0.423172743,0,0,0,,,,,,,MAMMAL,LB,z,m,./images/MAMMALLB.png,,,,,,,,m,0,1.1752,,,,,,,,0,112,112,146,1
,,,,,,,,,,,,,,,,,199564,18,2022-01-29_24h05.55.585,lexical_decision_task_DD,2021.2.3,MacIntel,59.99880002,,,,,,,,,,,0.7518,1,,,,,,,,,,,,,,,,,,,,,,,,0.029357639,-0.423172743,0,0,0,,,,,,,HEATER,LB,z,m,./images/HEATERLB.png,,,,,,,,z,1,0.7518,,,,,,,,0,113,113,140,1
,,,,,,,,,,,,,,,,,199564,18,2022-01-29_24h05.55.585,lexical_decision_task_DD,2021.2.3,MacIntel,59.99880002,,,,,,,,,,,0.6504,1,,,,,,,,,,,,,,,,,,,,,,,,0.029357639,-0.423172743,0,0,0,,,,,,,LADDER,LB,m,m,./images/LADDERLB.png,,,,,,,,m,1,0.6504,,,,,,,,0,114,114,38,1
,,,,,,,,,,,,,,,,,199564,18,2022-01-29_24h05.55.585,lexical_decision_task_DD,2021.2.3,MacIntel,59.99880002,,,,,,,,,,,0.8469,1,,,,,,,,,,,,,,,,,,,,,,,,0.029357639,-0.423172743,0,0,0,,,,,,,PENCE,HB,m,m,./images/PENCEHB.png,,,,,,,,m,1,0.8469,,,,,,,,0,115,115,16,1
,,,,,,,,,,,,,,,,,199564,18,2022-01-29_24h05.55.585,lexical_decision_task_DD,2021.2.3,MacIntel,59.99880002,,,,,,,,,,,1.5207,0,,,,,,,,,,,,,,,,,,,,,,,,0.029357639,-0.423172743,0,0,0,,,,,,,SWING,HB,m,m,./images/SWINGHB.png,,,,,,,,z,0,1.5207,,,,,,,,0,116,116,40,1
,,,,,,,,,,,,,,,,,199564,18,2022-01-29_24h05.55.585,lexical_decision_task_DD,2021.2.3,MacIntel,59.99880002,,,,,,,,,,,0.8874,1,,,,,,,,,,,,,,,,,,,,,,,,0.029357639,-0.423172743,0,0,0,,,,,,,CRADLE,LB,m,m,./images/CRADLELB.png,,,,,,,,m,1,0.8874,,,,,,,,0,117,117,20,1
,,,,,,,,,,,,,,,,,199564,18,2022-01-29_24h05.55.585,lexical_decision_task_DD,2021.2.3,MacIntel,59.99880002,,,,,,,,,,,0.815,0,,,,,,,,,,,,,,,,,,,,,,,,0.029357639,-0.423172743,0,0,0,,,,,,,BEARD,LB,m,m,./images/BEARDLB.png,,,,,,,,z,0,0.815,,,,,,,,0,118,118,2,1
,,,,,,,,,,,,,,,,,199564,18,2022-01-29_24h05.55.585,lexical_decision_task_DD,2021.2.3,MacIntel,59.99880002,,,,,,,,,,,0.6808,1,,,,,,,,,,,,,,,,,,,,,,,,0.029357639,-0.423172743,0,0,0,,,,,,,TWINS,C,m,m,./images/TWINS.png,,,,,,,,m,1,0.6808,,,,,,,,0,119,119,60,1
,,,,,,,,,,,,,,,,,199564,18,2022-01-29_24h05.55.585,lexical_decision_task_DD,2021.2.3,MacIntel,59.99880002,,,,,,,,,,,0.8564,1,,,,,,,,,,,,,,,,,,,,,,,,0.029357639,-0.423172743,0,0,0,,,,,,,BISHOP,HB,z,m,./images/BISHOPHB.png,,,,,,,,z,1,0.8564,,,,,,,,0,120,120,133,1
,,,,,,,,,,,,,,,,,199564,18,2022-01-29_24h05.55.585,lexical_decision_task_DD,2021.2.3,MacIntel,59.99880002,,,,,,,,,,,0.8068,1,,,,,,,,,,,,,,,,,,,,,,,,0.029357639,-0.423172743,0,0,0,,,,,,,PURSE,LB,m,m,./images/PURSELB.png,,,,,,,,m,1,0.8068,,,,,,,,0,121,121,62,1
,,,,,,,,,,,,,,,,,199564,18,2022-01-29_24h05.55.585,lexical_decision_task_DD,2021.2.3,MacIntel,59.99880002,,,,,,,,,,,0.9989,1,,,,,,,,,,,,,,,,,,,,,,,,0.029357639,-0.423172743,0,0,0,,,,,,,DESERT,HB,z,m,./images/DESERTHB.png,,,,,,,,z,1,0.9989,,,,,,,,0,122,122,136,1
,,,,,,,,,,,,,,,,,199564,18,2022-01-29_24h05.55.585,lexical_decision_task_DD,2021.2.3,MacIntel,59.99880002,,,,,,,,,,,1.3477,1,,,,,,,,,,,,,,,,,,,,,,,,0.029357639,-0.423172743,0,0,0,,,,,,,WALNUT,C,z,m,./images/WALNUT.png,,,,,,,,z,1,1.3477,,,,,,,,0,123,123,84,1
,,,,,,,,,,,,,,,,,199564,18,2022-01-29_24h05.55.585,lexical_decision_task_DD,2021.2.3,MacIntel,59.99880002,,,,,,,,,,,0.9992,0,,,,,,,,,,,,,,,,,,,,,,,,0.029357639,-0.423172743,0,0,0,,,,,,,THROAT,C,m,m,./images/THROAT.png,,,,,,,,z,0,0.9992,,,,,,,,0,124,124,36,1
,,,,,,,,,,,,,,,,,199564,18,2022-01-29_24h05.55.585,lexical_decision_task_DD,2021.2.3,MacIntel,59.99880002,,,,,,,,,,,0.906,1,,,,,,,,,,,,,,,,,,,,,,,,0.028138021,-0.422300347,0,0,0,space,,,,,,CLOTH,LB,z,m,./images/CLOTHLB.png,39.7208,,,,,,,z,1,0.906,,,,,,,,0,125,125,107,1
,,,,,,,,,,,,,,,,,199564,18,2022-01-29_24h05.55.585,lexical_decision_task_DD,2021.2.3,MacIntel,59.99880002,,,,,,,,,,,0.9334,1,,,,,,,,,,,,,,,,,,,,,,,,0.028138021,-0.422300347,0,0,0,,,,,,,DRILL,C,z,m,./images/DRILL.png,,,,,,,,z,1,0.9334,,,,,,,,0,126,126,165,1
,,,,,,,,,,,,,,,,,199564,18,2022-01-29_24h05.55.585,lexical_decision_task_DD,2021.2.3,MacIntel,59.99880002,,,,,,,,,,,1.3194,1,,,,,,,,,,,,,,,,,,,,,,,,0.028138021,-0.422300347,0,0,0,,,,,,,PLANK,HB,m,m,./images/PLANKHB.png,,,,,,,,m,1,1.3194,,,,,,,,0,127,127,1,1
,,,,,,,,,,,,,,,,,199564,18,2022-01-29_24h05.55.585,lexical_decision_task_DD,2021.2.3,MacIntel,59.99880002,,,,,,,,,,,0.9048,1,,,,,,,,,,,,,,,,,,,,,,,,0.028138021,-0.422300347,0,0,0,,,,,,,POSTER,LB,z,m,./images/POSTERLB.png,,,,,,,,z,1,0.9048,,,,,,,,0,128,128,137,1
,,,,,,,,,,,,,,,,,199564,18,2022-01-29_24h05.55.585,lexical_decision_task_DD,2021.2.3,MacIntel,59.99880002,,,,,,,,,,,0.7325,1,,,,,,,,,,,,,,,,,,,,,,,,0.028138021,-0.422300347,0,0,0,,,,,,,BLOKE,C,z,m,./images/BLOKE.png,,,,,,,,z,1,0.7325,,,,,,,,0,129,129,96,1
,,,,,,,,,,,,,,,,,199564,18,2022-01-29_24h05.55.585,lexical_decision_task_DD,2021.2.3,MacIntel,59.99880002,,,,,,,,,,,0.7339,1,,,,,,,,,,,,,,,,,,,,,,,,0.028138021,-0.422300347,0,0,0,,,,,,,ARTIST,HB,z,m,./images/ARTISTHB.png,,,,,,,,z,1,0.7339,,,,,,,,0,130,130,145,1
,,,,,,,,,,,,,,,,,199564,18,2022-01-29_24h05.55.585,lexical_decision_task_DD,2021.2.3,MacIntel,59.99880002,,,,,,,,,,,0.8672,0,,,,,,,,,,,,,,,,,,,,,,,,0.028138021,-0.422300347,0,0,0,,,,,,,PASTA,LB,m,m,./images/PASTALB.png,,,,,,,,z,0,0.8672,,,,,,,,0,131,131,5,1
,,,,,,,,,,,,,,,,,199564,18,2022-01-29_24h05.55.585,lexical_decision_task_DD,2021.2.3,MacIntel,59.99880002,,,,,,,,,,,0.6385,1,,,,,,,,,,,,,,,,,,,,,,,,0.028138021,-0.422300347,0,0,0,,,,,,,MOOSE,C,m,m,./images/MOOSE.png,,,,,,,,m,1,0.6385,,,,,,,,0,132,132,57,1
,,,,,,,,,,,,,,,,,199564,18,2022-01-29_24h05.55.585,lexical_decision_task_DD,2021.2.3,MacIntel,59.99880002,,,,,,,,,,,0.8187,1,,,,,,,,,,,,,,,,,,,,,,,,0.028138021,-0.422300347,0,0,0,,,,,,,ALLEY,HB,z,m,./images/ALLEYHB.png,,,,,,,,z,1,0.8187,,,,,,,,0,133,133,139,1
,,,,,,,,,,,,,,,,,199564,18,2022-01-29_24h05.55.585,lexical_decision_task_DD,2021.2.3,MacIntel,59.99880002,,,,,,,,,,,0.6978,1,,,,,,,,,,,,,,,,,,,,,,,,0.028138021,-0.422300347,0,0,0,,,,,,,MIRROR,C,m,m,./images/MIRROR.png,,,,,,,,m,1,0.6978,,,,,,,,0,134,134,63,1
,,,,,,,,,,,,,,,,,199564,18,2022-01-29_24h05.55.585,lexical_decision_task_DD,2021.2.3,MacIntel,59.99880002,,,,,,,,,,,0.7467,1,,,,,,,,,,,,,,,,,,,,,,,,0.028138021,-0.422300347,0,0,0,,,,,,,TOWEL,HB,z,m,./images/TOWELHB.png,,,,,,,,z,1,0.7467,,,,,,,,0,135,135,85,1
,,,,,,,,,,,,,,,,,199564,18,2022-01-29_24h05.55.585,lexical_decision_task_DD,2021.2.3,MacIntel,59.99880002,,,,,,,,,,,1.3296,1,,,,,,,,,,,,,,,,,,,,,,,,0.028138021,-0.422300347,0,0,0,,,,,,,CHERRY,C,z,m,./images/CHERRY.png,,,,,,,,z,1,1.3296,,,,,,,,0,136,136,138,1
,,,,,,,,,,,,,,,,,199564,18,2022-01-29_24h05.55.585,lexical_decision_task_DD,2021.2.3,MacIntel,59.99880002,,,,,,,,,,,0.8381,1,,,,,,,,,,,,,,,,,,,,,,,,0.028138021,-0.422300347,0,0,0,,,,,,,PACKET,LB,m,m,./images/PACKETLB.png,,,,,,,,m,1,0.8381,,,,,,,,0,137,137,56,1
,,,,,,,,,,,,,,,,,199564,18,2022-01-29_24h05.55.585,lexical_decision_task_DD,2021.2.3,MacIntel,59.99880002,,,,,,,,,,,0.8096,0,,,,,,,,,,,,,,,,,,,,,,,,0.028138021,-0.422300347,0,0,0,,,,,,,LAGOON,LB,z,m,./images/LAGOONLB.png,,,,,,,,m,0,0.8096,,,,,,,,0,138,138,131,1
,,,,,,,,,,,,,,,,,199564,18,2022-01-29_24h05.55.585,lexical_decision_task_DD,2021.2.3,MacIntel,59.99880002,,,,,,,,,,,0.6576,1,,,,,,,,,,,,,,,,,,,,,,,,0.028138021,-0.422300347,0,0,0,,,,,,,STORM,C,m,m,./images/STORM.png,,,,,,,,m,1,0.6576,,,,,,,,0,139,139,30,1
,,,,,,,,,,,,,,,,,199564,18,2022-01-29_24h05.55.585,lexical_decision_task_DD,2021.2.3,MacIntel,59.99880002,,,,,,,,,,,0.639,1,,,,,,,,,,,,,,,,,,,,,,,,0.028138021,-0.422300347,0,0,0,,,,,,,KIDNEY,C,m,m,./images/KIDNEY.png,,,,,,,,m,1,0.639,,,,,,,,0,140,140,21,1
,,,,,,,,,,,,,,,,,199564,18,2022-01-29_24h05.55.585,lexical_decision_task_DD,2021.2.3,MacIntel,59.99880002,,,,,,,,,,,0.839,1,,,,,,,,,,,,,,,,,,,,,,,,0.028138021,-0.422300347,0,0,0,,,,,,,CARPET,LB,m,m,./images/CARPETLB.png,,,,,,,,m,1,0.839,,,,,,,,0,141,141,53,1
,,,,,,,,,,,,,,,,,199564,18,2022-01-29_24h05.55.585,lexical_decision_task_DD,2021.2.3,MacIntel,59.99880002,,,,,,,,,,,0.7373,1,,,,,,,,,,,,,,,,,,,,,,,,0.028138021,-0.422300347,0,0,0,,,,,,,SPORT,C,m,m,./images/SPORT.png,,,,,,,,m,1,0.7373,,,,,,,,0,142,142,48,1
,,,,,,,,,,,,,,,,,199564,18,2022-01-29_24h05.55.585,lexical_decision_task_DD,2021.2.3,MacIntel,59.99880002,,,,,,,,,,,0.8639,1,,,,,,,,,,,,,,,,,,,,,,,,0.028138021,-0.422300347,0,0,0,,,,,,,BRIDE,HB,z,m,./images/BRIDEHB.png,,,,,,,,z,1,0.8639,,,,,,,,0,143,143,148,1
,,,,,,,,,,,,,,,,,199564,18,2022-01-29_24h05.55.585,lexical_decision_task_DD,2021.2.3,MacIntel,59.99880002,,,,,,,,,,,1.0842,0,,,,,,,,,,,,,,,,,,,,,,,,0.028138021,-0.422300347,0,0,0,,,,,,,SWEAT,C,m,m,./images/SWEAT.png,,,,,,,,z,0,1.0842,,,,,,,,0,144,144,66,1
,,,,,,,,,,,,,,,,,199564,18,2022-01-29_24h05.55.585,lexical_decision_task_DD,2021.2.3,MacIntel,59.99880002,,,,,,,,,,,0.9003,1,,,,,,,,,,,,,,,,,,,,,,,,0.028138021,-0.422300347,0,0,0,,,,,,,CHAIN,C,z,m,./images/CHAIN.png,,,,,,,,z,1,0.9003,,,,,,,,0,145,145,126,1
,,,,,,,,,,,,,,,,,199564,18,2022-01-29_24h05.55.585,lexical_decision_task_DD,2021.2.3,MacIntel,59.99880002,,,,,,,,,,,1.0153,0,,,,,,,,,,,,,,,,,,,,,,,,0.028138021,-0.422300347,0,0,0,,,,,,,SNACK,HB,m,m,./images/SNACKHB.png,,,,,,,,z,0,1.0153,,,,,,,,0,146,146,73,1
,,,,,,,,,,,,,,,,,199564,18,2022-01-29_24h05.55.585,lexical_decision_task_DD,2021.2.3,MacIntel,59.99880002,,,,,,,,,,,0.9524,1,,,,,,,,,,,,,,,,,,,,,,,,0.028138021,-0.422300347,0,0,0,,,,,,,BONNET,LB,m,m,./images/BONNETLB.png,,,,,,,,m,1,0.9524,,,,,,,,0,147,147,11,1
,,,,,,,,,,,,,,,,,199564,18,2022-01-29_24h05.55.585,lexical_decision_task_DD,2021.2.3,MacIntel,59.99880002,,,,,,,,,,,0.9305,1,,,,,,,,,,,,,,,,,,,,,,,,0.028138021,-0.422300347,0,0,0,,,,,,,STOOL,HB,z,m,./images/STOOLHB.png,,,,,,,,z,1,0.9305,,,,,,,,0,148,148,127,1
,,,,,,,,,,,,,,,,,199564,18,2022-01-29_24h05.55.585,lexical_decision_task_DD,2021.2.3,MacIntel,59.99880002,,,,,,,,,,,0.8326,1,,,,,,,,,,,,,,,,,,,,,,,,0.028138021,-0.422300347,0,0,0,,,,,,,BURIAL,LB,m,m,./images/BURIALLB.png,,,,,,,,m,1,0.8326,,,,,,,,0,149,149,59,1
,,,,,,,,,,,,,,,,,199564,18,2022-01-29_24h05.55.585,lexical_decision_task_DD,2021.2.3,MacIntel,59.99880002,,,,,,,,,,,0.7664,1,,,,,,,,,,,,,,,,,,,,,,,,0.028138021,-0.422300347,0,0,0,,,,,,,ATTIC,C,m,m,./images/ATTIC.png,,,,,,,,m,1,0.7664,,,,,,,,0,150,150,27,1
,,,,,,,,,,,,,,,,,199564,18,2022-01-29_24h05.55.585,lexical_decision_task_DD,2021.2.3,MacIntel,59.99880002,,,,,,,,,,,0.7168,1,,,,,,,,,,,,,,,,,,,,,,,,0.028138021,-0.422300347,0,0,0,,,,,,,URINE,HB,m,m,./images/URINEHB.png,,,,,,,,m,1,0.7168,,,,,,,,0,151,151,70,1
,,,,,,,,,,,,,,,,,199564,18,2022-01-29_24h05.55.585,lexical_decision_task_DD,2021.2.3,MacIntel,59.99880002,,,,,,,,,,,0.9721,0,,,,,,,,,,,,,,,,,,,,,,,,0.028138021,-0.422300347,0,0,0,,,,,,,PEBBLE,HB,z,m,./images/PEBBLEHB.png,,,,,,,,m,0,0.9721,,,,,,,,0,152,152,166,1
,,,,,,,,,,,,,,,,,199564,18,2022-01-29_24h05.55.585,lexical_decision_task_DD,2021.2.3,MacIntel,59.99880002,,,,,,,,,,,0.7483,1,,,,,,,,,,,,,,,,,,,,,,,,0.028138021,-0.422300347,0,0,0,,,,,,,ARROW,C,z,m,./images/ARROW.png,,,,,,,,z,1,0.7483,,,,,,,,0,153,153,153,1
,,,,,,,,,,,,,,,,,199564,18,2022-01-29_24h05.55.585,lexical_decision_task_DD,2021.2.3,MacIntel,59.99880002,,,,,,,,,,,0.8914,1,,,,,,,,,,,,,,,,,,,,,,,,0.028138021,-0.422300347,0,0,0,,,,,,,BRUSH,LB,z,m,./images/BRUSHLB.png,,,,,,,,z,1,0.8914,,,,,,,,0,154,154,143,1
,,,,,,,,,,,,,,,,,199564,18,2022-01-29_24h05.55.585,lexical_decision_task_DD,2021.2.3,MacIntel,59.99880002,,,,,,,,,,,0.6984,1,,,,,,,,,,,,,,,,,,,,,,,,0.028138021,-0.422300347,0,0,0,,,,,,,BOXER,HB,z,m,./images/BOXERHB.png,,,,,,,,z,1,0.6984,,,,,,,,0,155,155,88,1
,,,,,,,,,,,,,,,,,199564,18,2022-01-29_24h05.55.585,lexical_decision_task_DD,2021.2.3,MacIntel,59.99880002,,,,,,,,,,,0.8641,1,,,,,,,,,,,,,,,,,,,,,,,,0.028138021,-0.422300347,0,0,0,,,,,,,BASKET,LB,z,m,./images/BASKETLB.png,,,,,,,,z,1,0.8641,,,,,,,,0,156,156,128,1
,,,,,,,,,,,,,,,,,199564,18,2022-01-29_24h05.55.585,lexical_decision_task_DD,2021.2.3,MacIntel,59.99880002,,,,,,,,,,,0.9979,1,,,,,,,,,,,,,,,,,,,,,,,,0.028138021,-0.422300347,0,0,0,,,,,,,CRUST,HB,m,m,./images/CRUSTHB.png,,,,,,,,m,1,0.9979,,,,,,,,0,157,157,79,1
,,,,,,,,,,,,,,,,,199564,18,2022-01-29_24h05.55.585,lexical_decision_task_DD,2021.2.3,MacIntel,59.99880002,,,,,,,,,,,0.6845,1,,,,,,,,,,,,,,,,,,,,,,,,0.028138021,-0.422300347,0,0,0,,,,,,,KITTEN,C,m,m,./images/KITTEN.png,,,,,,,,m,1,0.6845,,,,,,,,0,158,158,45,1
,,,,,,,,,,,,,,,,,199564,18,2022-01-29_24h05.55.585,lexical_decision_task_DD,2021.2.3,MacIntel,59.99880002,,,,,,,,,,,0.684,1,,,,,,,,,,,,,,,,,,,,,,,,0.028138021,-0.422300347,0,0,0,,,,,,,SAILOR,HB,m,m,./images/SAILORHB.png,,,,,,,,m,1,0.684,,,,,,,,0,159,159,67,1
,,,,,,,,,,,,,,,,,199564,18,2022-01-29_24h05.55.585,lexical_decision_task_DD,2021.2.3,MacIntel,59.99880002,,,,,,,,,,,0.7814,1,,,,,,,,,,,,,,,,,,,,,,,,0.028138021,-0.422300347,0,0,0,,,,,,,VALLEY,LB,z,m,./images/VALLEYLB.png,,,,,,,,z,1,0.7814,,,,,,,,0,160,160,152,1
,,,,,,,,,,,,,,,,,199564,18,2022-01-29_24h05.55.585,lexical_decision_task_DD,2021.2.3,MacIntel,59.99880002,,,,,,,,,,,0.688,1,,,,,,,,,,,,,,,,,,,,,,,,0.028138021,-0.422300347,0,0,0,,,,,,,BERRY,LB,m,m,./images/BERRYLB.png,,,,,,,,m,1,0.688,,,,,,,,0,161,161,47,1
,,,,,,,,,,,,,,,,,199564,18,2022-01-29_24h05.55.585,lexical_decision_task_DD,2021.2.3,MacIntel,59.99880002,,,,,,,,,,,0.835,1,,,,,,,,,,,,,,,,,,,,,,,,0.028138021,-0.422300347,0,0,0,,,,,,,GREASE,C,m,m,./images/GREASE.png,,,,,,,,m,1,0.835,,,,,,,,0,162,162,15,1
,,,,,,,,,,,,,,,,,199564,18,2022-01-29_24h05.55.585,lexical_decision_task_DD,2021.2.3,MacIntel,59.99880002,,,,,,,,,,,0.7648,1,,,,,,,,,,,,,,,,,,,,,,,,0.028138021,-0.422300347,0,0,0,,,,,,,SKIING,LB,m,m,./images/SKIINGLB.png,,,,,,,,m,1,0.7648,,,,,,,,0,163,163,17,1
,,,,,,,,,,,,,,,,,199564,18,2022-01-29_24h05.55.585,lexical_decision_task_DD,2021.2.3,MacIntel,59.99880002,,,,,,,,,,,1.5565,1,,,,,,,,,,,,,,,,,,,,,,,,0.028138021,-0.422300347,0,0,0,,,,,,,PLANET,LB,z,m,./images/PLANETLB.png,,,,,,,,z,1,1.5565,,,,,,,,0,164,164,164,1
,,,,,,,,,,,,,,,,,199564,18,2022-01-29_24h05.55.585,lexical_decision_task_DD,2021.2.3,MacIntel,59.99880002,,,,,,,,,,,0.9378,1,,,,,,,,,,,,,,,,,,,,,,,,0.028138021,-0.422300347,0,0,0,,,,,,,MELON,HB,m,m,./images/MELONHB.png,,,,,,,,m,1,0.9378,,,,,,,,0,165,165,22,1
,,,,,,,,,,,,,,,,,199564,18,2022-01-29_24h05.55.585,lexical_decision_task_DD,2021.2.3,MacIntel,59.99880002,,,,,,,,,,,1.7153,0,,,,,,,,,,,,,,,,,,,,,,,,0.028138021,-0.422300347,0,0,0,,,,,,,CASINO,HB,z,m,./images/CASINOHB.png,,,,,,,,m,0,1.7153,,,,,,,,0,166,166,112,1
,,,,,,,,,,,,,,,,,199564,18,2022-01-29_24h05.55.585,lexical_decision_task_DD,2021.2.3,MacIntel,59.99880002,,,,,,,,,,,1.9656,1,,,,,,,,,,,,,,,,,,,,,,,,0.028138021,-0.422300347,0,0,0,,,,,,,MEDAL,LB,z,m,./images/MEDALLB.png,,,,,,,,z,1,1.9656,,,,,,,,0,167,167,95,1
