key_resp.keys,instr_done_touch.x,instr_done_touch.y,instr_done_touch.leftButton,instr_done_touch.midButton,instr_done_touch.rightButton,instr_done_touch.clicked_name,instruction_pages.thisRepN,instruction_pages.thisTrialN,instruction_pages.thisN,instruction_pages.thisIndex,instruction_pages.ran,pageN,phase,instruct_text,has_image,instruct_image,participant,age,date,expName,psychopyVersion,OS,frameRate,key_resp.rt,response.keys,response.corr,response.rt,touch_resp.x,touch_resp.y,touch_resp.leftButton,touch_resp.midButton,touch_resp.rightButton,touch_resp.time,touch_resp.clicked_name,rt,corr,practrials.thisRepN,practrials.thisTrialN,practrials.thisN,practrials.thisIndex,practrials.ran,TrialID,Target,corrAns,end_of_practice_trials_pages.thisRepN,end_of_practice_trials_pages.thisTrialN,end_of_practice_trials_pages.thisN,end_of_practice_trials_pages.thisIndex,end_of_practice_trials_pages.ran,key_resp_2.keys,key_resp_2.corr,key_resp_2.rt,targ_click.x,targ_click.y,targ_click.leftButton,targ_click.midButton,targ_click.rightButton,targ_click.time,targ_click.clicked_name,break_done_touch.x,break_done_touch.y,break_done_touch.leftButton,break_done_touch.midButton,break_done_touch.rightButton,break_done_keyboard.keys,maintrials.thisRepN,maintrials.thisTrialN,maintrials.thisN,maintrials.thisIndex,maintrials.ran,string,blur,study,lex,stim_path,break_done_touch.clicked_name,test_instructions.thisRepN,test_instructions.thisTrialN,test_instructions.thisN,test_instructions.thisIndex,test_instructions.ran,key_resp_3.keys,key_resp_3.corr,key_resp_3.rt,test_click.x,test_click.y,test_click.leftButton,test_click.midButton,test_click.rightButton,test_click.time,test_click.clicked_name,test_phase.thisRepN,test_phase.thisTrialN,test_phase.thisN,test_phase.thisIndex,test_phase.ran,break_done_keyboard.rt
,0.079705584,-0.36703559,1,0,0,instr_done_button,0,0,0,0,1,1,instructions,"INSTRUCTIONS
At the start of each trial, look at the plus sign  (+) in the center of the screen.  This tells you that a trial is about to begin and where to look. Second, the plus sign will disappear and a string of letters will appear. Your task is to determine if the string of letters is a word or not. If the item is a word press the M key (on keyboard)  or touch the word button (phone/tablet).  If the item is not a word,  press the  Z key (on keyboard)  or touch the nonword button (on phone/tablet). 
Press the space bar or touch  continue.",0,,199576,18,2022-01-28_14h48.04.687,lexical_decision_task_DD,2021.2.3,MacIntel,120.0048002,,,,,,,,,,,,,,,,,,,,,,,,,,,,,,,,,,,,,,,,,,,,,,,,,,,,,,,,,,,,,,,,,,,,,,,,,,
space,0.079705584,-0.36703559,0,0,0,,0,1,1,1,1,2,instructions,"If your device has a keyboard, press the 'Z' key for nonwords and the 'M' key for words.





Press the space bar or touch the button below to continue.",0,keyboard-example.gif,199576,18,2022-01-28_14h48.04.687,lexical_decision_task_DD,2021.2.3,MacIntel,120.0048002,8.6589,,,,,,,,,,,,,,,,,,,,,,,,,,,,,,,,,,,,,,,,,,,,,,,,,,,,,,,,,,,,,,,,,,,,,,,,,
space,0.079705584,-0.36703559,0,0,0,,0,2,2,2,1,3,instructions,"If you are using a touchscreen only device, use the buttons on the screen. Do not use the mouse.





Press the space bar or touch the button below to continue.",0,touchscreen-example.gif,199576,18,2022-01-28_14h48.04.687,lexical_decision_task_DD,2021.2.3,MacIntel,120.0048002,3.1544,,,,,,,,,,,,,,,,,,,,,,,,,,,,,,,,,,,,,,,,,,,,,,,,,,,,,,,,,,,,,,,,,,,,,,,,,
space,0.079705584,-0.36703559,0,0,0,,0,3,3,3,1,4,instructions,"It is very important that you respond as quickly and accurately as possible, as each letter string will only be on the screen for two seconds. If you do not respond within this time, the message 'Too slow!' will be displayed and the experiment will progress to the next letter string. The first 20 trials will be practice trials and you will receive feedback on your answers. 

Press the space bar or touch the button below to start the practice trials.",0,,199576,18,2022-01-28_14h48.04.687,lexical_decision_task_DD,2021.2.3,MacIntel,120.0048002,14.2793,,,,,,,,,,,,,,,,,,,,,,,,,,,,,,,,,,,,,,,,,,,,,,,,,,,,,,,,,,,,,,,,,,,,,,,,,
,,,,,,,,,,,,,,,,,199576,18,2022-01-28_14h48.04.687,lexical_decision_task_DD,2021.2.3,MacIntel,120.0048002,,z,1,1.0364,,,,,,,,1.0364,1,0,0,0,14,1,1001,THRALE,z,,,,,,,,,,,,,,,,,,,,,,,,,,,,,,,,,,,,,,,,,,,,,,,,,,,,,
,,,,,,,,,,,,,,,,,199576,18,2022-01-28_14h48.04.687,lexical_decision_task_DD,2021.2.3,MacIntel,120.0048002,,z,1,0.8086,,,,,,,,0.8086,1,0,1,1,8,1,1001,ASLERT,z,,,,,,,,,,,,,,,,,,,,,,,,,,,,,,,,,,,,,,,,,,,,,,,,,,,,,
,,,,,,,,,,,,,,,,,199576,18,2022-01-28_14h48.04.687,lexical_decision_task_DD,2021.2.3,MacIntel,120.0048002,,m,0,0.6643,,,,,,,,0.6643,0,0,2,2,10,1,1001,INLADE,z,,,,,,,,,,,,,,,,,,,,,,,,,,,,,,,,,,,,,,,,,,,,,,,,,,,,,
,,,,,,,,,,,,,,,,,199576,18,2022-01-28_14h48.04.687,lexical_decision_task_DD,2021.2.3,MacIntel,120.0048002,,m,1,0.8044,,,,,,,,0.8044,1,0,3,3,4,1,1001,SQUEAK,m,,,,,,,,,,,,,,,,,,,,,,,,,,,,,,,,,,,,,,,,,,,,,,,,,,,,,
,,,,,,,,,,,,,,,,,199576,18,2022-01-28_14h48.04.687,lexical_decision_task_DD,2021.2.3,MacIntel,120.0048002,,m,1,0.6818,,,,,,,,0.6818,1,0,4,4,1,1,1001,ADJUST,m,,,,,,,,,,,,,,,,,,,,,,,,,,,,,,,,,,,,,,,,,,,,,,,,,,,,,
,,,,,,,,,,,,,,,,,199576,18,2022-01-28_14h48.04.687,lexical_decision_task_DD,2021.2.3,MacIntel,120.0048002,,m,1,0.7005,,,,,,,,0.7005,1,0,5,5,0,1,1001,UTOPIA,m,,,,,,,,,,,,,,,,,,,,,,,,,,,,,,,,,,,,,,,,,,,,,,,,,,,,,
,,,,,,,,,,,,,,,,,199576,18,2022-01-28_14h48.04.687,lexical_decision_task_DD,2021.2.3,MacIntel,120.0048002,,m,1,0.6015,,,,,,,,0.6015,1,0,6,6,5,1,1001,OBTAIN,m,,,,,,,,,,,,,,,,,,,,,,,,,,,,,,,,,,,,,,,,,,,,,,,,,,,,,
,,,,,,,,,,,,,,,,,199576,18,2022-01-28_14h48.04.687,lexical_decision_task_DD,2021.2.3,MacIntel,120.0048002,,z,1,0.7282,,,,,,,,0.7282,1,0,7,7,15,1,1001,WHAISE,z,,,,,,,,,,,,,,,,,,,,,,,,,,,,,,,,,,,,,,,,,,,,,,,,,,,,,
,,,,,,,,,,,,,,,,,199576,18,2022-01-28_14h48.04.687,lexical_decision_task_DD,2021.2.3,MacIntel,120.0048002,,m,1,0.6577,,,,,,,,0.6577,1,0,8,8,3,1,1001,MATRIX,m,,,,,,,,,,,,,,,,,,,,,,,,,,,,,,,,,,,,,,,,,,,,,,,,,,,,,
,,,,,,,,,,,,,,,,,199576,18,2022-01-28_14h48.04.687,lexical_decision_task_DD,2021.2.3,MacIntel,120.0048002,,m,1,0.7685,,,,,,,,0.7685,1,0,9,9,7,1,1001,VOLUME,m,,,,,,,,,,,,,,,,,,,,,,,,,,,,,,,,,,,,,,,,,,,,,,,,,,,,,
,,,,,,,,,,,,,,,,,199576,18,2022-01-28_14h48.04.687,lexical_decision_task_DD,2021.2.3,MacIntel,120.0048002,,z,1,0.808,,,,,,,,0.808,1,0,10,10,9,1,1001,FARINY,z,,,,,,,,,,,,,,,,,,,,,,,,,,,,,,,,,,,,,,,,,,,,,,,,,,,,,
,,,,,,,,,,,,,,,,,199576,18,2022-01-28_14h48.04.687,lexical_decision_task_DD,2021.2.3,MacIntel,120.0048002,,m,1,0.6395,,,,,,,,0.6395,1,0,11,11,2,1,1001,ALMOND,m,,,,,,,,,,,,,,,,,,,,,,,,,,,,,,,,,,,,,,,,,,,,,,,,,,,,,
,,,,,,,,,,,,,,,,,199576,18,2022-01-28_14h48.04.687,lexical_decision_task_DD,2021.2.3,MacIntel,120.0048002,,m,0,0.8757,,,,,,,,0.8757,0,0,12,12,13,1,1001,ROUPET,z,,,,,,,,,,,,,,,,,,,,,,,,,,,,,,,,,,,,,,,,,,,,,,,,,,,,,
,,,,,,,,,,,,,,,,,199576,18,2022-01-28_14h48.04.687,lexical_decision_task_DD,2021.2.3,MacIntel,120.0048002,,z,1,0.8378,,,,,,,,0.8378,1,0,13,13,12,1,1001,SPRINY,z,,,,,,,,,,,,,,,,,,,,,,,,,,,,,,,,,,,,,,,,,,,,,,,,,,,,,
,,,,,,,,,,,,,,,,,199576,18,2022-01-28_14h48.04.687,lexical_decision_task_DD,2021.2.3,MacIntel,120.0048002,,m,1,0.7097,,,,,,,,0.7097,1,0,14,14,6,1,1001,ZOMBIE,m,,,,,,,,,,,,,,,,,,,,,,,,,,,,,,,,,,,,,,,,,,,,,,,,,,,,,
,,,,,,,,,,,,,,,,,199576,18,2022-01-28_14h48.04.687,lexical_decision_task_DD,2021.2.3,MacIntel,120.0048002,,z,1,0.7397,,,,,,,,0.7397,1,0,15,15,11,1,1001,RASHET,z,,,,,,,,,,,,,,,,,,,,,,,,,,,,,,,,,,,,,,,,,,,,,,,,,,,,,
space,0.079705584,-0.36703559,0,0,0,,,,,,,1,end_of_practice,"You have completed the practice trials. During the experimental trials, you will not receive feedback. 
Before you begin, please ensure that you are in a comfortable and quiet location and will not be disturbed for about 15 minutes, as we cannot use your data if you do not complete all the trials. 
 When you are ready to start the experimental trials, please press space or touch the button below.",,,199576,18,2022-01-28_14h48.04.687,lexical_decision_task_DD,2021.2.3,MacIntel,120.0048002,49.8618,,,,,,,,,,,,,,,,,,,,,0,0,0,0,1,,,,,,,,,,,,,,,,,,,,,,,,,,,,,,,,,,,,,,,,,,,,,,,,
,,,,,,,,,,,,,,,,,199576,18,2022-01-28_14h48.04.687,lexical_decision_task_DD,2021.2.3,MacIntel,120.0048002,,,,,,,,,,,,1.0312,0,,,,,,,,,,,,,,z,0,1.0312,,,,,,,,0.079705584,-0.36703559,0,0,0,,0,0,0,41,1,STRING,LB,old,m,./images/STRINGLB.png,,,,,,,,,,,,,,,,,,,,,,
,,,,,,,,,,,,,,,,,199576,18,2022-01-28_14h48.04.687,lexical_decision_task_DD,2021.2.3,MacIntel,120.0048002,,,,,,,,,,,,0.8307,0,,,,,,,,,,,,,,m,0,0.8307,,,,,,,,0.079705584,-0.36703559,0,0,0,,0,1,1,127,1,NINDY,HB,old,z,./images/NINDYHB.png,,,,,,,,,,,,,,,,,,,,,,
,,,,,,,,,,,,,,,,,199576,18,2022-01-28_14h48.04.687,lexical_decision_task_DD,2021.2.3,MacIntel,120.0048002,,,,,,,,,,,,0.9515,1,,,,,,,,,,,,,,z,1,0.9515,,,,,,,,0.079705584,-0.36703559,0,0,0,,0,2,2,114,1,RIKES,C,old,z,./images/RIKES.png,,,,,,,,,,,,,,,,,,,,,,
,,,,,,,,,,,,,,,,,199576,18,2022-01-28_14h48.04.687,lexical_decision_task_DD,2021.2.3,MacIntel,120.0048002,,,,,,,,,,,,0.8635,0,,,,,,,,,,,,,,m,0,0.8635,,,,,,,,0.079705584,-0.36703559,0,0,0,,0,3,3,106,1,CLUMS,HB,old,z,./images/CLUMSHB.png,,,,,,,,,,,,,,,,,,,,,,
,,,,,,,,,,,,,,,,,199576,18,2022-01-28_14h48.04.687,lexical_decision_task_DD,2021.2.3,MacIntel,120.0048002,,,,,,,,,,,,0.7297,1,,,,,,,,,,,,,,z,1,0.7297,,,,,,,,0.079705584,-0.36703559,0,0,0,,0,4,4,108,1,GRUET,C,old,z,./images/GRUET.png,,,,,,,,,,,,,,,,,,,,,,
,,,,,,,,,,,,,,,,,199576,18,2022-01-28_14h48.04.687,lexical_decision_task_DD,2021.2.3,MacIntel,120.0048002,,,,,,,,,,,,0.8055,1,,,,,,,,,,,,,,z,1,0.8055,,,,,,,,0.079705584,-0.36703559,0,0,0,,0,5,5,146,1,MOOST,LB,old,z,./images/MOOSTLB.png,,,,,,,,,,,,,,,,,,,,,,
,,,,,,,,,,,,,,,,,199576,18,2022-01-28_14h48.04.687,lexical_decision_task_DD,2021.2.3,MacIntel,120.0048002,,,,,,,,,,,,0.9221,0,,,,,,,,,,,,,,m,0,0.9221,,,,,,,,0.079705584,-0.36703559,0,0,0,,0,6,6,112,1,MYING,HB,old,z,./images/MYINGHB.png,,,,,,,,,,,,,,,,,,,,,,
,,,,,,,,,,,,,,,,,199576,18,2022-01-28_14h48.04.687,lexical_decision_task_DD,2021.2.3,MacIntel,120.0048002,,,,,,,,,,,,1.015,1,,,,,,,,,,,,,,z,1,1.015,,,,,,,,0.079705584,-0.36703559,0,0,0,,0,7,7,141,1,PLEET,C,old,z,./images/PLEET.png,,,,,,,,,,,,,,,,,,,,,,
,,,,,,,,,,,,,,,,,199576,18,2022-01-28_14h48.04.687,lexical_decision_task_DD,2021.2.3,MacIntel,120.0048002,,,,,,,,,,,,0.6487,1,,,,,,,,,,,,,,m,1,0.6487,,,,,,,,0.079705584,-0.36703559,0,0,0,,0,8,8,29,1,CRUMB,LB,old,m,./images/CRUMBLB.png,,,,,,,,,,,,,,,,,,,,,,
,,,,,,,,,,,,,,,,,199576,18,2022-01-28_14h48.04.687,lexical_decision_task_DD,2021.2.3,MacIntel,120.0048002,,,,,,,,,,,,0.8894,1,,,,,,,,,,,,,,z,1,0.8894,,,,,,,,0.079705584,-0.36703559,0,0,0,,0,9,9,144,1,NAIRY,C,old,z,./images/NAIRY.png,,,,,,,,,,,,,,,,,,,,,,
,,,,,,,,,,,,,,,,,199576,18,2022-01-28_14h48.04.687,lexical_decision_task_DD,2021.2.3,MacIntel,120.0048002,,,,,,,,,,,,0.8034,1,,,,,,,,,,,,,,z,1,0.8034,,,,,,,,0.079705584,-0.36703559,0,0,0,,0,10,10,126,1,GUELS,C,old,z,./images/GUELS.png,,,,,,,,,,,,,,,,,,,,,,
,,,,,,,,,,,,,,,,,199576,18,2022-01-28_14h48.04.687,lexical_decision_task_DD,2021.2.3,MacIntel,120.0048002,,,,,,,,,,,,1.021,1,,,,,,,,,,,,,,m,1,1.021,,,,,,,,0.079705584,-0.36703559,0,0,0,,0,11,11,47,1,BERRY,LB,old,m,./images/BERRYLB.png,,,,,,,,,,,,,,,,,,,,,,
,,,,,,,,,,,,,,,,,199576,18,2022-01-28_14h48.04.687,lexical_decision_task_DD,2021.2.3,MacIntel,120.0048002,,,,,,,,,,,,0.8467,1,,,,,,,,,,,,,,m,1,0.8467,,,,,,,,0.079705584,-0.36703559,0,0,0,,0,12,12,16,1,PENCE,HB,old,m,./images/PENCEHB.png,,,,,,,,,,,,,,,,,,,,,,
,,,,,,,,,,,,,,,,,199576,18,2022-01-28_14h48.04.687,lexical_decision_task_DD,2021.2.3,MacIntel,120.0048002,,,,,,,,,,,,0.7955,1,,,,,,,,,,,,,,z,1,0.7955,,,,,,,,0.079705584,-0.36703559,0,0,0,,0,13,13,158,1,EGECT,LB,old,z,./images/EGECTLB.png,,,,,,,,,,,,,,,,,,,,,,
,,,,,,,,,,,,,,,,,199576,18,2022-01-28_14h48.04.687,lexical_decision_task_DD,2021.2.3,MacIntel,120.0048002,,,,,,,,,,,,0.8415,0,,,,,,,,,,,,,,z,0,0.8415,,,,,,,,0.079705584,-0.36703559,0,0,0,,0,14,14,28,1,FALCON,HB,old,m,./images/FALCONHB.png,,,,,,,,,,,,,,,,,,,,,,
,,,,,,,,,,,,,,,,,199576,18,2022-01-28_14h48.04.687,lexical_decision_task_DD,2021.2.3,MacIntel,120.0048002,,,,,,,,,,,,0.606,1,,,,,,,,,,,,,,m,1,0.606,,,,,,,,0.079705584,-0.36703559,0,0,0,,0,15,15,45,1,KITTEN,C,old,m,./images/KITTEN.png,,,,,,,,,,,,,,,,,,,,,,
,,,,,,,,,,,,,,,,,199576,18,2022-01-28_14h48.04.687,lexical_decision_task_DD,2021.2.3,MacIntel,120.0048002,,,,,,,,,,,,0.8553,1,,,,,,,,,,,,,,m,1,0.8553,,,,,,,,0.079705584,-0.36703559,0,0,0,,0,16,16,56,1,PACKET,LB,old,m,./images/PACKETLB.png,,,,,,,,,,,,,,,,,,,,,,
,,,,,,,,,,,,,,,,,199576,18,2022-01-28_14h48.04.687,lexical_decision_task_DD,2021.2.3,MacIntel,120.0048002,,,,,,,,,,,,0.9875,0,,,,,,,,,,,,,,z,0,0.9875,,,,,,,,0.079705584,-0.36703559,0,0,0,,0,17,17,1,1,PLANK,HB,old,m,./images/PLANKHB.png,,,,,,,,,,,,,,,,,,,,,,
,,,,,,,,,,,,,,,,,199576,18,2022-01-28_14h48.04.687,lexical_decision_task_DD,2021.2.3,MacIntel,120.0048002,,,,,,,,,,,,0.8372,1,,,,,,,,,,,,,,z,1,0.8372,,,,,,,,0.079705584,-0.36703559,0,0,0,,0,18,18,160,1,VEETS,HB,old,z,./images/VEETSHB.png,,,,,,,,,,,,,,,,,,,,,,
,,,,,,,,,,,,,,,,,199576,18,2022-01-28_14h48.04.687,lexical_decision_task_DD,2021.2.3,MacIntel,120.0048002,,,,,,,,,,,,0.9806,1,,,,,,,,,,,,,,z,1,0.9806,,,,,,,,0.079705584,-0.36703559,0,0,0,,0,19,19,157,1,INLER,HB,old,z,./images/INLERHB.png,,,,,,,,,,,,,,,,,,,,,,
,,,,,,,,,,,,,,,,,199576,18,2022-01-28_14h48.04.687,lexical_decision_task_DD,2021.2.3,MacIntel,120.0048002,,,,,,,,,,,,0.8401,0,,,,,,,,,,,,,,m,0,0.8401,,,,,,,,0.079705584,-0.36703559,0,0,0,,0,20,20,151,1,TINKY,HB,old,z,./images/TINKYHB.png,,,,,,,,,,,,,,,,,,,,,,
,,,,,,,,,,,,,,,,,199576,18,2022-01-28_14h48.04.687,lexical_decision_task_DD,2021.2.3,MacIntel,120.0048002,,,,,,,,,,,,0.8798,1,,,,,,,,,,,,,,z,1,0.8798,,,,,,,,0.079705584,-0.36703559,0,0,0,,0,21,21,164,1,SGREW,LB,old,z,./images/SGREWLB.png,,,,,,,,,,,,,,,,,,,,,,
,,,,,,,,,,,,,,,,,199576,18,2022-01-28_14h48.04.687,lexical_decision_task_DD,2021.2.3,MacIntel,120.0048002,,,,,,,,,,,,0.8965,1,,,,,,,,,,,,,,m,1,0.8965,,,,,,,,0.079705584,-0.36703559,0,0,0,,0,22,22,77,1,COUCH,LB,old,m,./images/COUCHLB.png,,,,,,,,,,,,,,,,,,,,,,
,,,,,,,,,,,,,,,,,199576,18,2022-01-28_14h48.04.687,lexical_decision_task_DD,2021.2.3,MacIntel,120.0048002,,,,,,,,,,,,0.9702,1,,,,,,,,,,,,,,z,1,0.9702,,,,,,,,0.079705584,-0.36703559,0,0,0,,0,23,23,102,1,DULLE,C,old,z,./images/DULLE.png,,,,,,,,,,,,,,,,,,,,,,
,,,,,,,,,,,,,,,,,199576,18,2022-01-28_14h48.04.687,lexical_decision_task_DD,2021.2.3,MacIntel,120.0048002,,,,,,,,,,,,0.8622,1,,,,,,,,,,,,,,m,1,0.8622,,,,,,,,0.079705584,-0.36703559,0,0,0,,0,24,24,4,1,MUSCLE,HB,old,m,./images/MUSCLEHB.png,,,,,,,,,,,,,,,,,,,,,,
,,,,,,,,,,,,,,,,,199576,18,2022-01-28_14h48.04.687,lexical_decision_task_DD,2021.2.3,MacIntel,120.0048002,,,,,,,,,,,,0.6823,1,,,,,,,,,,,,,,z,1,0.6823,,,,,,,,0.079705584,-0.36703559,0,0,0,,0,25,25,104,1,GITTY,LB,old,z,./images/GITTYLB.png,,,,,,,,,,,,,,,,,,,,,,
,,,,,,,,,,,,,,,,,199576,18,2022-01-28_14h48.04.687,lexical_decision_task_DD,2021.2.3,MacIntel,120.0048002,,,,,,,,,,,,0.7119,1,,,,,,,,,,,,,,z,1,0.7119,,,,,,,,0.079705584,-0.36703559,0,0,0,,0,26,26,122,1,BLOOT,LB,old,z,./images/BLOOTLB.png,,,,,,,,,,,,,,,,,,,,,,
,,,,,,,,,,,,,,,,,199576,18,2022-01-28_14h48.04.687,lexical_decision_task_DD,2021.2.3,MacIntel,120.0048002,,,,,,,,,,,,0.7128,1,,,,,,,,,,,,,,m,1,0.7128,,,,,,,,0.079705584,-0.36703559,0,0,0,,0,27,27,35,1,PEACH,LB,old,m,./images/PEACHLB.png,,,,,,,,,,,,,,,,,,,,,,
,,,,,,,,,,,,,,,,,199576,18,2022-01-28_14h48.04.687,lexical_decision_task_DD,2021.2.3,MacIntel,120.0048002,,,,,,,,,,,,0.805,1,,,,,,,,,,,,,,z,1,0.805,,,,,,,,0.079705584,-0.36703559,0,0,0,,0,28,28,150,1,NOOLS,C,old,z,./images/NOOLS.png,,,,,,,,,,,,,,,,,,,,,,
,,,,,,,,,,,,,,,,,199576,18,2022-01-28_14h48.04.687,lexical_decision_task_DD,2021.2.3,MacIntel,120.0048002,,,,,,,,,,,,0.7631,1,,,,,,,,,,,,,,z,1,0.7631,,,,,,,,0.079705584,-0.36703559,0,0,0,,0,29,29,131,1,NACES,LB,old,z,./images/NACESLB.png,,,,,,,,,,,,,,,,,,,,,,
,,,,,,,,,,,,,,,,,199576,18,2022-01-28_14h48.04.687,lexical_decision_task_DD,2021.2.3,MacIntel,120.0048002,,,,,,,,,,,,0.6579,1,,,,,,,,,,,,,,m,1,0.6579,,,,,,,,0.079705584,-0.36703559,0,0,0,,0,30,30,60,1,TWINS,C,old,m,./images/TWINS.png,,,,,,,,,,,,,,,,,,,,,,
,,,,,,,,,,,,,,,,,199576,18,2022-01-28_14h48.04.687,lexical_decision_task_DD,2021.2.3,MacIntel,120.0048002,,,,,,,,,,,,0.8557,0,,,,,,,,,,,,,,z,0,0.8557,,,,,,,,0.079705584,-0.36703559,0,0,0,,0,31,31,73,1,SNACK,HB,old,m,./images/SNACKHB.png,,,,,,,,,,,,,,,,,,,,,,
,,,,,,,,,,,,,,,,,199576,18,2022-01-28_14h48.04.687,lexical_decision_task_DD,2021.2.3,MacIntel,120.0048002,,,,,,,,,,,,0.8819,1,,,,,,,,,,,,,,z,1,0.8819,,,,,,,,0.079705584,-0.36703559,0,0,0,,0,32,32,109,1,BURGE,HB,old,z,./images/BURGEHB.png,,,,,,,,,,,,,,,,,,,,,,
,,,,,,,,,,,,,,,,,199576,18,2022-01-28_14h48.04.687,lexical_decision_task_DD,2021.2.3,MacIntel,120.0048002,,,,,,,,,,,,0.8291,1,,,,,,,,,,,,,,m,1,0.8291,,,,,,,,0.079705584,-0.36703559,0,0,0,,0,33,33,79,1,CRUST,HB,old,m,./images/CRUSTHB.png,,,,,,,,,,,,,,,,,,,,,,
,,,,,,,,,,,,,,,,,199576,18,2022-01-28_14h48.04.687,lexical_decision_task_DD,2021.2.3,MacIntel,120.0048002,,,,,,,,,,,,0.7413,1,,,,,,,,,,,,,,m,1,0.7413,,,,,,,,0.079705584,-0.36703559,0,0,0,,0,34,34,18,1,JAGUAR,C,old,m,./images/JAGUAR.png,,,,,,,,,,,,,,,,,,,,,,
,,,,,,,,,,,,,,,,,199576,18,2022-01-28_14h48.04.687,lexical_decision_task_DD,2021.2.3,MacIntel,120.0048002,,,,,,,,,,,,0.7792,1,,,,,,,,,,,,,,m,1,0.7792,,,,,,,,0.079705584,-0.36703559,0,0,0,,0,35,35,12,1,SHORE,C,old,m,./images/SHORE.png,,,,,,,,,,,,,,,,,,,,,,
,,,,,,,,,,,,,,,,,199576,18,2022-01-28_14h48.04.687,lexical_decision_task_DD,2021.2.3,MacIntel,120.0048002,,,,,,,,,,,,0.6281,1,,,,,,,,,,,,,,z,1,0.6281,,,,,,,,0.079705584,-0.36703559,0,0,0,,0,36,36,129,1,PRANS,C,old,z,./images/PRANS.png,,,,,,,,,,,,,,,,,,,,,,
,,,,,,,,,,,,,,,,,199576,18,2022-01-28_14h48.04.687,lexical_decision_task_DD,2021.2.3,MacIntel,120.0048002,,,,,,,,,,,,0.5812,1,,,,,,,,,,,,,,z,1,0.5812,,,,,,,,0.079705584,-0.36703559,0,0,0,,0,37,37,84,1,HAXES,C,old,z,./images/HAXES.png,,,,,,,,,,,,,,,,,,,,,,
,,,,,,,,,,,,,,,,,199576,18,2022-01-28_14h48.04.687,lexical_decision_task_DD,2021.2.3,MacIntel,120.0048002,,,,,,,,,,,,0.7906,1,,,,,,,,,,,,,,m,1,0.7906,,,,,,,,0.079705584,-0.36703559,0,0,0,,0,38,38,23,1,WALRUS,LB,old,m,./images/WALRUSLB.png,,,,,,,,,,,,,,,,,,,,,,
,,,,,,,,,,,,,,,,,199576,18,2022-01-28_14h48.04.687,lexical_decision_task_DD,2021.2.3,MacIntel,120.0048002,,,,,,,,,,,,1.1372,1,,,,,,,,,,,,,,m,1,1.1372,,,,,,,,0.079705584,-0.36703559,0,0,0,,0,39,39,62,1,PURSE,LB,old,m,./images/PURSELB.png,,,,,,,,,,,,,,,,,,,,,,
,,,,,,,,,,,,,,,,,199576,18,2022-01-28_14h48.04.687,lexical_decision_task_DD,2021.2.3,MacIntel,120.0048002,,,,,,,,,,,,0.8723,1,,,,,,,,,,,,,,m,1,0.8723,,,,,,,,0.079705584,-0.36703559,0,0,0,,0,40,40,8,1,TULIP,LB,old,m,./images/TULIPLB.png,,,,,,,,,,,,,,,,,,,,,,
,,,,,,,,,,,,,,,,,199576,18,2022-01-28_14h48.04.687,lexical_decision_task_DD,2021.2.3,MacIntel,120.0048002,,,,,,,,,,,,0.6561,1,,,,,,,,,,,,,,m,1,0.6561,,,,,,,,0.096180556,-0.390961372,1,0,0,,0,41,41,9,1,RHINO,C,old,m,./images/RHINO.png,break_done_button,,,,,,,,,,,,,,,,,,,,,
,,,,,,,,,,,,,,,,,199576,18,2022-01-28_14h48.04.687,lexical_decision_task_DD,2021.2.3,MacIntel,120.0048002,,,,,,,,,,,,0.8293,1,,,,,,,,,,,,,,z,1,0.8293,,,,,,,,0.096180556,-0.390961372,0,0,0,,0,42,42,161,1,BLAPS,LB,old,z,./images/BLAPSLB.png,,,,,,,,,,,,,,,,,,,,,,
,,,,,,,,,,,,,,,,,199576,18,2022-01-28_14h48.04.687,lexical_decision_task_DD,2021.2.3,MacIntel,120.0048002,,,,,,,,,,,,1.0966,1,,,,,,,,,,,,,,m,1,1.0966,,,,,,,,0.096180556,-0.390961372,0,0,0,,0,43,43,24,1,SCREW,C,old,m,./images/SCREW.png,,,,,,,,,,,,,,,,,,,,,,
,,,,,,,,,,,,,,,,,199576,18,2022-01-28_14h48.04.687,lexical_decision_task_DD,2021.2.3,MacIntel,120.0048002,,,,,,,,,,,,0.9968,1,,,,,,,,,,,,,,m,1,0.9968,,,,,,,,0.096180556,-0.390961372,0,0,0,,0,44,44,19,1,DOUGH,HB,old,m,./images/DOUGHHB.png,,,,,,,,,,,,,,,,,,,,,,
,,,,,,,,,,,,,,,,,199576,18,2022-01-28_14h48.04.687,lexical_decision_task_DD,2021.2.3,MacIntel,120.0048002,,,,,,,,,,,,0.9031,1,,,,,,,,,,,,,,z,1,0.9031,,,,,,,,0.096180556,-0.390961372,0,0,0,,0,45,45,124,1,TUNCH,HB,old,z,./images/TUNCHHB.png,,,,,,,,,,,,,,,,,,,,,,
,,,,,,,,,,,,,,,,,199576,18,2022-01-28_14h48.04.687,lexical_decision_task_DD,2021.2.3,MacIntel,120.0048002,,,,,,,,,,,,1.038,0,,,,,,,,,,,,,,m,0,1.038,,,,,,,,0.096180556,-0.390961372,0,0,0,,0,46,46,154,1,THINT,HB,old,z,./images/THINTHB.png,,,,,,,,,,,,,,,,,,,,,,
,,,,,,,,,,,,,,,,,199576,18,2022-01-28_14h48.04.687,lexical_decision_task_DD,2021.2.3,MacIntel,120.0048002,,,,,,,,,,,,0.853,1,,,,,,,,,,,,,,m,1,0.853,,,,,,,,0.096180556,-0.390961372,0,0,0,,0,47,47,10,1,BELLY,HB,old,m,./images/BELLYHB.png,,,,,,,,,,,,,,,,,,,,,,
,,,,,,,,,,,,,,,,,199576,18,2022-01-28_14h48.04.687,lexical_decision_task_DD,2021.2.3,MacIntel,120.0048002,,,,,,,,,,,,0.7566,1,,,,,,,,,,,,,,z,1,0.7566,,,,,,,,0.096180556,-0.390961372,0,0,0,,0,48,48,159,1,CUDDY,C,old,z,./images/CUDDY.png,,,,,,,,,,,,,,,,,,,,,,
,,,,,,,,,,,,,,,,,199576,18,2022-01-28_14h48.04.687,lexical_decision_task_DD,2021.2.3,MacIntel,120.0048002,,,,,,,,,,,,0.843,1,,,,,,,,,,,,,,z,1,0.843,,,,,,,,0.096180556,-0.390961372,0,0,0,,0,49,49,132,1,SCIFF,C,old,z,./images/SCIFF.png,,,,,,,,,,,,,,,,,,,,,,
,,,,,,,,,,,,,,,,,199576,18,2022-01-28_14h48.04.687,lexical_decision_task_DD,2021.2.3,MacIntel,120.0048002,,,,,,,,,,,,1.2551,1,,,,,,,,,,,,,,z,1,1.2551,,,,,,,,0.096180556,-0.390961372,0,0,0,,0,50,50,153,1,CLUPS,C,old,z,./images/CLUPS.png,,,,,,,,,,,,,,,,,,,,,,
,,,,,,,,,,,,,,,,,199576,18,2022-01-28_14h48.04.687,lexical_decision_task_DD,2021.2.3,MacIntel,120.0048002,,,,,,,,,,,,0.5825,1,,,,,,,,,,,,,,m,1,0.5825,,,,,,,,0.096180556,-0.390961372,0,0,0,,0,51,51,36,1,THROAT,C,old,m,./images/THROAT.png,,,,,,,,,,,,,,,,,,,,,,
,,,,,,,,,,,,,,,,,199576,18,2022-01-28_14h48.04.687,lexical_decision_task_DD,2021.2.3,MacIntel,120.0048002,,,,,,,,,,,,0.5848,1,,,,,,,,,,,,,,m,1,0.5848,,,,,,,,0.096180556,-0.390961372,0,0,0,,0,52,52,2,1,BEARD,LB,old,m,./images/BEARDLB.png,,,,,,,,,,,,,,,,,,,,,,
,,,,,,,,,,,,,,,,,199576,18,2022-01-28_14h48.04.687,lexical_decision_task_DD,2021.2.3,MacIntel,120.0048002,,,,,,,,,,,,0.7957,1,,,,,,,,,,,,,,m,1,0.7957,,,,,,,,0.096180556,-0.390961372,0,0,0,,0,53,53,39,1,SHELF,C,old,m,./images/SHELF.png,,,,,,,,,,,,,,,,,,,,,,
,,,,,,,,,,,,,,,,,199576,18,2022-01-28_14h48.04.687,lexical_decision_task_DD,2021.2.3,MacIntel,120.0048002,,,,,,,,,,,,0.8042,1,,,,,,,,,,,,,,z,1,0.8042,,,,,,,,0.096180556,-0.390961372,0,0,0,,0,54,54,87,1,TRING,C,old,z,./images/TRING.png,,,,,,,,,,,,,,,,,,,,,,
,,,,,,,,,,,,,,,,,199576,18,2022-01-28_14h48.04.687,lexical_decision_task_DD,2021.2.3,MacIntel,120.0048002,,,,,,,,,,,,0.997,1,,,,,,,,,,,,,,z,1,0.997,,,,,,,,0.096180556,-0.390961372,0,0,0,,0,55,55,125,1,MOOKY,LB,old,z,./images/MOOKYLB.png,,,,,,,,,,,,,,,,,,,,,,
,,,,,,,,,,,,,,,,,199576,18,2022-01-28_14h48.04.687,lexical_decision_task_DD,2021.2.3,MacIntel,120.0048002,,,,,,,,,,,,1.0797,1,,,,,,,,,,,,,,z,1,1.0797,,,,,,,,0.096180556,-0.390961372,0,0,0,,0,56,56,163,1,GAMBA,HB,old,z,./images/GAMBAHB.png,,,,,,,,,,,,,,,,,,,,,,
,,,,,,,,,,,,,,,,,199576,18,2022-01-28_14h48.04.687,lexical_decision_task_DD,2021.2.3,MacIntel,120.0048002,,,,,,,,,,,,1.0349,1,,,,,,,,,,,,,,z,1,1.0349,,,,,,,,0.096180556,-0.390961372,0,0,0,,0,57,57,139,1,BLEAR,HB,old,z,./images/BLEARHB.png,,,,,,,,,,,,,,,,,,,,,,
,,,,,,,,,,,,,,,,,199576,18,2022-01-28_14h48.04.687,lexical_decision_task_DD,2021.2.3,MacIntel,120.0048002,,,,,,,,,,,,0.9151,1,,,,,,,,,,,,,,m,1,0.9151,,,,,,,,0.096180556,-0.390961372,0,0,0,,0,58,58,76,1,INFANT,HB,old,m,./images/INFANTHB.png,,,,,,,,,,,,,,,,,,,,,,
,,,,,,,,,,,,,,,,,199576,18,2022-01-28_14h48.04.687,lexical_decision_task_DD,2021.2.3,MacIntel,120.0048002,,,,,,,,,,,,0.7372,1,,,,,,,,,,,,,,m,1,0.7372,,,,,,,,0.096180556,-0.390961372,0,0,0,,0,59,59,53,1,CARPET,LB,old,m,./images/CARPETLB.png,,,,,,,,,,,,,,,,,,,,,,
,,,,,,,,,,,,,,,,,199576,18,2022-01-28_14h48.04.687,lexical_decision_task_DD,2021.2.3,MacIntel,120.0048002,,,,,,,,,,,,0.8814,0,,,,,,,,,,,,,,z,0,0.8814,,,,,,,,0.096180556,-0.390961372,0,0,0,,0,60,60,40,1,SWING,HB,old,m,./images/SWINGHB.png,,,,,,,,,,,,,,,,,,,,,,
,,,,,,,,,,,,,,,,,199576,18,2022-01-28_14h48.04.687,lexical_decision_task_DD,2021.2.3,MacIntel,120.0048002,,,,,,,,,,,,0.7136,1,,,,,,,,,,,,,,z,1,0.7136,,,,,,,,0.096180556,-0.390961372,0,0,0,,0,61,61,152,1,FRAIN,LB,old,z,./images/FRAINLB.png,,,,,,,,,,,,,,,,,,,,,,
,,,,,,,,,,,,,,,,,199576,18,2022-01-28_14h48.04.687,lexical_decision_task_DD,2021.2.3,MacIntel,120.0048002,,,,,,,,,,,,0.7379,1,,,,,,,,,,,,,,z,1,0.7379,,,,,,,,0.096180556,-0.390961372,0,0,0,,0,62,62,116,1,BALGY,LB,old,z,./images/BALGYLB.png,,,,,,,,,,,,,,,,,,,,,,
,,,,,,,,,,,,,,,,,199576,18,2022-01-28_14h48.04.687,lexical_decision_task_DD,2021.2.3,MacIntel,120.0048002,,,,,,,,,,,,0.7806,1,,,,,,,,,,,,,,m,1,0.7806,,,,,,,,0.096180556,-0.390961372,0,0,0,,0,63,63,50,1,MALLET,LB,old,m,./images/MALLETLB.png,,,,,,,,,,,,,,,,,,,,,,
,,,,,,,,,,,,,,,,,199576,18,2022-01-28_14h48.04.687,lexical_decision_task_DD,2021.2.3,MacIntel,120.0048002,,,,,,,,,,,,0.5834,1,,,,,,,,,,,,,,m,1,0.5834,,,,,,,,0.096180556,-0.390961372,0,0,0,,0,64,64,3,1,FINGER,C,old,m,./images/FINGER.png,,,,,,,,,,,,,,,,,,,,,,
,,,,,,,,,,,,,,,,,199576,18,2022-01-28_14h48.04.687,lexical_decision_task_DD,2021.2.3,MacIntel,120.0048002,,,,,,,,,,,,0.5718,1,,,,,,,,,,,,,,m,1,0.5718,,,,,,,,0.096180556,-0.390961372,0,0,0,,0,65,65,44,1,LIZARD,LB,old,m,./images/LIZARDLB.png,,,,,,,,,,,,,,,,,,,,,,
,,,,,,,,,,,,,,,,,199576,18,2022-01-28_14h48.04.687,lexical_decision_task_DD,2021.2.3,MacIntel,120.0048002,,,,,,,,,,,,0.589,1,,,,,,,,,,,,,,m,1,0.589,,,,,,,,0.096180556,-0.390961372,0,0,0,,0,66,66,65,1,FARMER,LB,old,m,./images/FARMERLB.png,,,,,,,,,,,,,,,,,,,,,,
,,,,,,,,,,,,,,,,,199576,18,2022-01-28_14h48.04.687,lexical_decision_task_DD,2021.2.3,MacIntel,120.0048002,,,,,,,,,,,,0.7625,1,,,,,,,,,,,,,,z,1,0.7625,,,,,,,,0.096180556,-0.390961372,0,0,0,,0,67,67,140,1,DOVET,LB,old,z,./images/DOVETLB.png,,,,,,,,,,,,,,,,,,,,,,
,,,,,,,,,,,,,,,,,199576,18,2022-01-28_14h48.04.687,lexical_decision_task_DD,2021.2.3,MacIntel,120.0048002,,,,,,,,,,,,0.9985,1,,,,,,,,,,,,,,m,1,0.9985,,,,,,,,0.096180556,-0.390961372,0,0,0,,0,68,68,67,1,SAILOR,HB,old,m,./images/SAILORHB.png,,,,,,,,,,,,,,,,,,,,,,
,,,,,,,,,,,,,,,,,199576,18,2022-01-28_14h48.04.687,lexical_decision_task_DD,2021.2.3,MacIntel,120.0048002,,,,,,,,,,,,0.6219,1,,,,,,,,,,,,,,m,1,0.6219,,,,,,,,0.096180556,-0.390961372,0,0,0,,0,69,69,5,1,PASTA,LB,old,m,./images/PASTALB.png,,,,,,,,,,,,,,,,,,,,,,
,,,,,,,,,,,,,,,,,199576,18,2022-01-28_14h48.04.687,lexical_decision_task_DD,2021.2.3,MacIntel,120.0048002,,,,,,,,,,,,0.5684,1,,,,,,,,,,,,,,m,1,0.5684,,,,,,,,0.096180556,-0.390961372,0,0,0,,0,70,70,7,1,PAINT,HB,old,m,./images/PAINTHB.png,,,,,,,,,,,,,,,,,,,,,,
,,,,,,,,,,,,,,,,,199576,18,2022-01-28_14h48.04.687,lexical_decision_task_DD,2021.2.3,MacIntel,120.0048002,,,,,,,,,,,,0.5467,1,,,,,,,,,,,,,,m,1,0.5467,,,,,,,,0.096180556,-0.390961372,0,0,0,,0,71,71,15,1,GREASE,C,old,m,./images/GREASE.png,,,,,,,,,,,,,,,,,,,,,,
,,,,,,,,,,,,,,,,,199576,18,2022-01-28_14h48.04.687,lexical_decision_task_DD,2021.2.3,MacIntel,120.0048002,,,,,,,,,,,,0.8149,1,,,,,,,,,,,,,,z,1,0.8149,,,,,,,,0.096180556,-0.390961372,0,0,0,,0,72,72,90,1,NEAST,C,old,z,./images/NEAST.png,,,,,,,,,,,,,,,,,,,,,,
,,,,,,,,,,,,,,,,,199576,18,2022-01-28_14h48.04.687,lexical_decision_task_DD,2021.2.3,MacIntel,120.0048002,,,,,,,,,,,,0.8718,1,,,,,,,,,,,,,,z,1,0.8718,,,,,,,,0.096180556,-0.390961372,0,0,0,,0,73,73,105,1,MOKER,C,old,z,./images/MOKER.png,,,,,,,,,,,,,,,,,,,,,,
,,,,,,,,,,,,,,,,,199576,18,2022-01-28_14h48.04.687,lexical_decision_task_DD,2021.2.3,MacIntel,120.0048002,,,,,,,,,,,,0.7872,1,,,,,,,,,,,,,,z,1,0.7872,,,,,,,,0.096180556,-0.390961372,0,0,0,,0,74,74,155,1,CANGY,LB,old,z,./images/CANGYLB.png,,,,,,,,,,,,,,,,,,,,,,
,,,,,,,,,,,,,,,,,199576,18,2022-01-28_14h48.04.687,lexical_decision_task_DD,2021.2.3,MacIntel,120.0048002,,,,,,,,,,,,0.8817,1,,,,,,,,,,,,,,m,1,0.8817,,,,,,,,0.096180556,-0.390961372,0,0,0,,0,75,75,82,1,SUNSET,HB,old,m,./images/SUNSETHB.png,,,,,,,,,,,,,,,,,,,,,,
,,,,,,,,,,,,,,,,,199576,18,2022-01-28_14h48.04.687,lexical_decision_task_DD,2021.2.3,MacIntel,120.0048002,,,,,,,,,,,,1.0056,1,,,,,,,,,,,,,,z,1,1.0056,,,,,,,,0.096180556,-0.390961372,0,0,0,,0,76,76,134,1,TROSS,LB,old,z,./images/TROSSLB.png,,,,,,,,,,,,,,,,,,,,,,
,,,,,,,,,,,,,,,,,199576,18,2022-01-28_14h48.04.687,lexical_decision_task_DD,2021.2.3,MacIntel,120.0048002,,,,,,,,,,,,0.6911,1,,,,,,,,,,,,,,m,1,0.6911,,,,,,,,0.096180556,-0.390961372,0,0,0,,0,77,77,37,1,BIRTH,HB,old,m,./images/BIRTHHB.png,,,,,,,,,,,,,,,,,,,,,,
,,,,,,,,,,,,,,,,,199576,18,2022-01-28_14h48.04.687,lexical_decision_task_DD,2021.2.3,MacIntel,120.0048002,,,,,,,,,,,,0.9329,0,,,,,,,,,,,,,,z,0,0.9329,,,,,,,,0.096180556,-0.390961372,0,0,0,,0,78,78,46,1,PEARL,HB,old,m,./images/PEARLHB.png,,,,,,,,,,,,,,,,,,,,,,
,,,,,,,,,,,,,,,,,199576,18,2022-01-28_14h48.04.687,lexical_decision_task_DD,2021.2.3,MacIntel,120.0048002,,,,,,,,,,,,0.7547,1,,,,,,,,,,,,,,m,1,0.7547,,,,,,,,0.096180556,-0.390961372,0,0,0,,0,79,79,26,1,SMOKER,LB,old,m,./images/SMOKERLB.png,,,,,,,,,,,,,,,,,,,,,,
,,,,,,,,,,,,,,,,,199576,18,2022-01-28_14h48.04.687,lexical_decision_task_DD,2021.2.3,MacIntel,120.0048002,,,,,,,,,,,,0.9204,1,,,,,,,,,,,,,,m,1,0.9204,,,,,,,,0.096180556,-0.390961372,0,0,0,,0,80,80,31,1,QUILL,HB,old,m,./images/QUILLHB.png,,,,,,,,,,,,,,,,,,,,,,
,,,,,,,,,,,,,,,,,199576,18,2022-01-28_14h48.04.687,lexical_decision_task_DD,2021.2.3,MacIntel,120.0048002,,,,,,,,,,,,0.5922,1,,,,,,,,,,,,,,z,1,0.5922,,,,,,,,0.096180556,-0.390961372,0,0,0,,0,81,81,156,1,HIXES,C,old,z,./images/HIXES.png,,,,,,,,,,,,,,,,,,,,,,
,,,,,,,,,,,,,,,,,199576,18,2022-01-28_14h48.04.687,lexical_decision_task_DD,2021.2.3,MacIntel,120.0048002,,,,,,,,,,,,0.5339,1,,,,,,,,,,,,,,m,1,0.5339,,,,,,,,0.096180556,-0.390961372,0,0,0,,0,82,82,38,1,LADDER,LB,old,m,./images/LADDERLB.png,,,,,,,,,,,,,,,,,,,,,,
,,,,,,,,,,,,,,,,,199576,18,2022-01-28_14h48.04.687,lexical_decision_task_DD,2021.2.3,MacIntel,120.0048002,,,,,,,,,,,,0.4632,1,,,,,,,,,,,,,,m,1,0.4632,,,,,,,,0.056922743,-0.43270761,1,0,0,,0,83,83,14,1,PICKLE,LB,old,m,./images/PICKLELB.png,break_done_button,,,,,,,,,,,,,,,,,,,,,
,,,,,,,,,,,,,,,,,199576,18,2022-01-28_14h48.04.687,lexical_decision_task_DD,2021.2.3,MacIntel,120.0048002,,,,,,,,,,,,0.6643,1,,,,,,,,,,,,,,z,1,0.6643,,,,,,,,0.061516204,-0.421535012,0,0,0,,0,84,84,136,1,WERVE,HB,old,z,./images/WERVEHB.png,,,,,,,,,,,,,,,,,,,,,,
,,,,,,,,,,,,,,,,,199576,18,2022-01-28_14h48.04.687,lexical_decision_task_DD,2021.2.3,MacIntel,120.0048002,,,,,,,,,,,,0.704,1,,,,,,,,,,,,,,z,1,0.704,,,,,,,,0.061516204,-0.421535012,0,0,0,,0,85,85,137,1,JOOST,LB,old,z,./images/JOOSTLB.png,,,,,,,,,,,,,,,,,,,,,,
,,,,,,,,,,,,,,,,,199576,18,2022-01-28_14h48.04.687,lexical_decision_task_DD,2021.2.3,MacIntel,120.0048002,,,,,,,,,,,,0.681,1,,,,,,,,,,,,,,m,1,0.681,,,,,,,,0.061516204,-0.421535012,0,0,0,,0,86,86,57,1,MOOSE,C,old,m,./images/MOOSE.png,,,,,,,,,,,,,,,,,,,,,,
,,,,,,,,,,,,,,,,,199576,18,2022-01-28_14h48.04.687,lexical_decision_task_DD,2021.2.3,MacIntel,120.0048002,,,,,,,,,,,,0.642,1,,,,,,,,,,,,,,m,1,0.642,,,,,,,,0.061516204,-0.421535012,0,0,0,,0,87,87,17,1,SKIING,LB,old,m,./images/SKIINGLB.png,,,,,,,,,,,,,,,,,,,,,,
,,,,,,,,,,,,,,,,,199576,18,2022-01-28_14h48.04.687,lexical_decision_task_DD,2021.2.3,MacIntel,120.0048002,,,,,,,,,,,,0.8215,1,,,,,,,,,,,,,,m,1,0.8215,,,,,,,,0.061516204,-0.421535012,0,0,0,,0,88,88,55,1,MUFFIN,HB,old,m,./images/MUFFINHB.png,,,,,,,,,,,,,,,,,,,,,,
,,,,,,,,,,,,,,,,,199576,18,2022-01-28_14h48.04.687,lexical_decision_task_DD,2021.2.3,MacIntel,120.0048002,,,,,,,,,,,,0.6228,1,,,,,,,,,,,,,,z,1,0.6228,,,,,,,,0.061516204,-0.421535012,0,0,0,,0,89,89,147,1,ZOLES,C,old,z,./images/ZOLES.png,,,,,,,,,,,,,,,,,,,,,,
,,,,,,,,,,,,,,,,,199576,18,2022-01-28_14h48.04.687,lexical_decision_task_DD,2021.2.3,MacIntel,120.0048002,,,,,,,,,,,,0.6945,1,,,,,,,,,,,,,,z,1,0.6945,,,,,,,,0.061516204,-0.421535012,0,0,0,,0,90,90,95,1,HANTY,LB,old,z,./images/HANTYLB.png,,,,,,,,,,,,,,,,,,,,,,
,,,,,,,,,,,,,,,,,199576,18,2022-01-28_14h48.04.687,lexical_decision_task_DD,2021.2.3,MacIntel,120.0048002,,,,,,,,,,,,0.6027,1,,,,,,,,,,,,,,m,1,0.6027,,,,,,,,0.061516204,-0.421535012,0,0,0,,0,91,91,59,1,BURIAL,LB,old,m,./images/BURIALLB.png,,,,,,,,,,,,,,,,,,,,,,
,,,,,,,,,,,,,,,,,199576,18,2022-01-28_14h48.04.687,lexical_decision_task_DD,2021.2.3,MacIntel,120.0048002,,,,,,,,,,,,0.7292,0,,,,,,,,,,,,,,z,0,0.7292,,,,,,,,0.061516204,-0.421535012,0,0,0,,0,92,92,58,1,BABOON,HB,old,m,./images/BABOONHB.png,,,,,,,,,,,,,,,,,,,,,,
,,,,,,,,,,,,,,,,,199576,18,2022-01-28_14h48.04.687,lexical_decision_task_DD,2021.2.3,MacIntel,120.0048002,,,,,,,,,,,,0.7238,1,,,,,,,,,,,,,,z,1,0.7238,,,,,,,,0.061516204,-0.421535012,0,0,0,,0,93,93,119,1,PAFER,LB,old,z,./images/PAFERLB.png,,,,,,,,,,,,,,,,,,,,,,
,,,,,,,,,,,,,,,,,199576,18,2022-01-28_14h48.04.687,lexical_decision_task_DD,2021.2.3,MacIntel,120.0048002,,,,,,,,,,,,0.5726,1,,,,,,,,,,,,,,m,1,0.5726,,,,,,,,0.061516204,-0.421535012,0,0,0,,0,94,94,21,1,KIDNEY,C,old,m,./images/KIDNEY.png,,,,,,,,,,,,,,,,,,,,,,
,,,,,,,,,,,,,,,,,199576,18,2022-01-28_14h48.04.687,lexical_decision_task_DD,2021.2.3,MacIntel,120.0048002,,,,,,,,,,,,0.6801,1,,,,,,,,,,,,,,m,1,0.6801,,,,,,,,0.061516204,-0.421535012,0,0,0,,0,95,95,34,1,CANYON,HB,old,m,./images/CANYONHB.png,,,,,,,,,,,,,,,,,,,,,,
,,,,,,,,,,,,,,,,,199576,18,2022-01-28_14h48.04.687,lexical_decision_task_DD,2021.2.3,MacIntel,120.0048002,,,,,,,,,,,,0.5216,0,,,,,,,,,,,,,,z,0,0.5216,,,,,,,,0.061516204,-0.421535012,0,0,0,,0,96,96,27,1,ATTIC,C,old,m,./images/ATTIC.png,,,,,,,,,,,,,,,,,,,,,,
,,,,,,,,,,,,,,,,,199576,18,2022-01-28_14h48.04.687,lexical_decision_task_DD,2021.2.3,MacIntel,120.0048002,,,,,,,,,,,,0.9624,1,,,,,,,,,,,,,,m,1,0.9624,,,,,,,,0.061516204,-0.421535012,0,0,0,,0,97,97,52,1,BANNER,HB,old,m,./images/BANNERHB.png,,,,,,,,,,,,,,,,,,,,,,
,,,,,,,,,,,,,,,,,199576,18,2022-01-28_14h48.04.687,lexical_decision_task_DD,2021.2.3,MacIntel,120.0048002,,,,,,,,,,,,0.7552,1,,,,,,,,,,,,,,m,1,0.7552,,,,,,,,0.061516204,-0.421535012,0,0,0,,0,98,98,25,1,WRIST,HB,old,m,./images/WRISTHB.png,,,,,,,,,,,,,,,,,,,,,,
,,,,,,,,,,,,,,,,,199576,18,2022-01-28_14h48.04.687,lexical_decision_task_DD,2021.2.3,MacIntel,120.0048002,,,,,,,,,,,,0.7899,1,,,,,,,,,,,,,,m,1,0.7899,,,,,,,,0.061516204,-0.421535012,0,0,0,,0,99,99,6,1,SQUARE,C,old,m,./images/SQUARE.png,,,,,,,,,,,,,,,,,,,,,,
,,,,,,,,,,,,,,,,,199576,18,2022-01-28_14h48.04.687,lexical_decision_task_DD,2021.2.3,MacIntel,120.0048002,,,,,,,,,,,,0.9258,1,,,,,,,,,,,,,,m,1,0.9258,,,,,,,,0.061516204,-0.421535012,0,0,0,,0,100,100,22,1,MELON,HB,old,m,./images/MELONHB.png,,,,,,,,,,,,,,,,,,,,,,
,,,,,,,,,,,,,,,,,199576,18,2022-01-28_14h48.04.687,lexical_decision_task_DD,2021.2.3,MacIntel,120.0048002,,,,,,,,,,,,0.9642,1,,,,,,,,,,,,,,z,1,0.9642,,,,,,,,0.061516204,-0.421535012,0,0,0,,0,101,101,165,1,TROWN,C,old,z,./images/TROWN.png,,,,,,,,,,,,,,,,,,,,,,
,,,,,,,,,,,,,,,,,199576,18,2022-01-28_14h48.04.687,lexical_decision_task_DD,2021.2.3,MacIntel,120.0048002,,,,,,,,,,,,1.1458,1,,,,,,,,,,,,,,z,1,1.1458,,,,,,,,0.061516204,-0.421535012,0,0,0,,0,102,102,97,1,CHIDS,HB,old,z,./images/CHIDSHB.png,,,,,,,,,,,,,,,,,,,,,,
,,,,,,,,,,,,,,,,,199576,18,2022-01-28_14h48.04.687,lexical_decision_task_DD,2021.2.3,MacIntel,120.0048002,,,,,,,,,,,,0.9365,1,,,,,,,,,,,,,,z,1,0.9365,,,,,,,,0.061516204,-0.421535012,0,0,0,,0,103,103,148,1,JOMS,HB,old,z,./images/JOMSHB.png,,,,,,,,,,,,,,,,,,,,,,
,,,,,,,,,,,,,,,,,199576,18,2022-01-28_14h48.04.687,lexical_decision_task_DD,2021.2.3,MacIntel,120.0048002,,,,,,,,,,,,0.9115,1,,,,,,,,,,,,,,z,1,0.9115,,,,,,,,0.061516204,-0.421535012,0,0,0,,0,104,104,143,1,MONGS,LB,old,z,./images/MONGSLB.png,,,,,,,,,,,,,,,,,,,,,,
,,,,,,,,,,,,,,,,,199576,18,2022-01-28_14h48.04.687,lexical_decision_task_DD,2021.2.3,MacIntel,120.0048002,,,,,,,,,,,,1.1457,1,,,,,,,,,,,,,,z,1,1.1457,,,,,,,,0.061516204,-0.421535012,0,0,0,,0,105,105,88,1,GLUSH,HB,old,z,./images/GLUSHHB.png,,,,,,,,,,,,,,,,,,,,,,
,,,,,,,,,,,,,,,,,199576,18,2022-01-28_14h48.04.687,lexical_decision_task_DD,2021.2.3,MacIntel,120.0048002,,,,,,,,,,,,0.948,1,,,,,,,,,,,,,,z,1,0.948,,,,,,,,0.061516204,-0.421535012,0,0,0,,0,106,106,121,1,CEERS,HB,old,z,./images/CEERSHB.png,,,,,,,,,,,,,,,,,,,,,,
,,,,,,,,,,,,,,,,,199576,18,2022-01-28_14h48.04.687,lexical_decision_task_DD,2021.2.3,MacIntel,120.0048002,,,,,,,,,,,,0.7757,1,,,,,,,,,,,,,,m,1,0.7757,,,,,,,,0.061516204,-0.421535012,0,0,0,,0,107,107,70,1,URINE,HB,old,m,./images/URINEHB.png,,,,,,,,,,,,,,,,,,,,,,
,,,,,,,,,,,,,,,,,199576,18,2022-01-28_14h48.04.687,lexical_decision_task_DD,2021.2.3,MacIntel,120.0048002,,,,,,,,,,,,0.654,1,,,,,,,,,,,,,,m,1,0.654,,,,,,,,0.061516204,-0.421535012,0,0,0,,0,108,108,49,1,DRUMS,HB,old,m,./images/DRUMSHB.png,,,,,,,,,,,,,,,,,,,,,,
,,,,,,,,,,,,,,,,,199576,18,2022-01-28_14h48.04.687,lexical_decision_task_DD,2021.2.3,MacIntel,120.0048002,,,,,,,,,,,,0.624,1,,,,,,,,,,,,,,z,1,0.624,,,,,,,,0.061516204,-0.421535012,0,0,0,,0,109,109,111,1,HOSSE,C,old,z,./images/HOSSE.png,,,,,,,,,,,,,,,,,,,,,,
,,,,,,,,,,,,,,,,,199576,18,2022-01-28_14h48.04.687,lexical_decision_task_DD,2021.2.3,MacIntel,120.0048002,,,,,,,,,,,,0.8407,1,,,,,,,,,,,,,,z,1,0.8407,,,,,,,,0.061516204,-0.421535012,0,0,0,,0,110,110,128,1,GRIFT,LB,old,z,./images/GRIFTLB.png,,,,,,,,,,,,,,,,,,,,,,
,,,,,,,,,,,,,,,,,199576,18,2022-01-28_14h48.04.687,lexical_decision_task_DD,2021.2.3,MacIntel,120.0048002,,,,,,,,,,,,1.1014,0,,,,,,,,,,,,,,m,0,1.1014,,,,,,,,0.061516204,-0.421535012,0,0,0,,0,111,111,120,1,RINED,C,old,z,./images/RINED.png,,,,,,,,,,,,,,,,,,,,,,
,,,,,,,,,,,,,,,,,199576,18,2022-01-28_14h48.04.687,lexical_decision_task_DD,2021.2.3,MacIntel,120.0048002,,,,,,,,,,,,0.8562,1,,,,,,,,,,,,,,m,1,0.8562,,,,,,,,0.061516204,-0.421535012,0,0,0,,0,112,112,78,1,LITTER,C,old,m,./images/LITTER.png,,,,,,,,,,,,,,,,,,,,,,
,,,,,,,,,,,,,,,,,199576,18,2022-01-28_14h48.04.687,lexical_decision_task_DD,2021.2.3,MacIntel,120.0048002,,,,,,,,,,,,0.6483,1,,,,,,,,,,,,,,m,1,0.6483,,,,,,,,0.061516204,-0.421535012,0,0,0,,0,113,113,69,1,COOKER,C,old,m,./images/COOKER.png,,,,,,,,,,,,,,,,,,,,,,
,,,,,,,,,,,,,,,,,199576,18,2022-01-28_14h48.04.687,lexical_decision_task_DD,2021.2.3,MacIntel,120.0048002,,,,,,,,,,,,0.7033,1,,,,,,,,,,,,,,z,1,0.7033,,,,,,,,0.061516204,-0.421535012,0,0,0,,0,114,114,93,1,SMONE,C,old,z,./images/SMONE.png,,,,,,,,,,,,,,,,,,,,,,
,,,,,,,,,,,,,,,,,199576,18,2022-01-28_14h48.04.687,lexical_decision_task_DD,2021.2.3,MacIntel,120.0048002,,,,,,,,,,,,0.6713,1,,,,,,,,,,,,,,m,1,0.6713,,,,,,,,0.061516204,-0.421535012,0,0,0,,0,115,115,13,1,MOTOR,HB,old,m,./images/MOTORHB.png,,,,,,,,,,,,,,,,,,,,,,
,,,,,,,,,,,,,,,,,199576,18,2022-01-28_14h48.04.687,lexical_decision_task_DD,2021.2.3,MacIntel,120.0048002,,,,,,,,,,,,0.6295,1,,,,,,,,,,,,,,m,1,0.6295,,,,,,,,0.061516204,-0.421535012,0,0,0,,0,116,116,74,1,CEMENT,LB,old,m,./images/CEMENTLB.png,,,,,,,,,,,,,,,,,,,,,,
,,,,,,,,,,,,,,,,,199576,18,2022-01-28_14h48.04.687,lexical_decision_task_DD,2021.2.3,MacIntel,120.0048002,,,,,,,,,,,,0.7108,1,,,,,,,,,,,,,,m,1,0.7108,,,,,,,,0.061516204,-0.421535012,0,0,0,,0,117,117,33,1,MAGGOT,C,old,m,./images/MAGGOT.png,,,,,,,,,,,,,,,,,,,,,,
,,,,,,,,,,,,,,,,,199576,18,2022-01-28_14h48.04.687,lexical_decision_task_DD,2021.2.3,MacIntel,120.0048002,,,,,,,,,,,,0.6876,1,,,,,,,,,,,,,,z,1,0.6876,,,,,,,,0.061516204,-0.421535012,0,0,0,,0,118,118,86,1,AIFED,LB,old,z,./images/AIFEDLB.png,,,,,,,,,,,,,,,,,,,,,,
,,,,,,,,,,,,,,,,,199576,18,2022-01-28_14h48.04.687,lexical_decision_task_DD,2021.2.3,MacIntel,120.0048002,,,,,,,,,,,,0.8456,1,,,,,,,,,,,,,,z,1,0.8456,,,,,,,,0.061516204,-0.421535012,0,0,0,,0,119,119,101,1,GLEET,LB,old,z,./images/GLEETLB.png,,,,,,,,,,,,,,,,,,,,,,
,,,,,,,,,,,,,,,,,199576,18,2022-01-28_14h48.04.687,lexical_decision_task_DD,2021.2.3,MacIntel,120.0048002,,,,,,,,,,,,0.8281,1,,,,,,,,,,,,,,z,1,0.8281,,,,,,,,0.061516204,-0.421535012,0,0,0,,0,120,120,162,1,LEICH,C,old,z,./images/LEICH.png,,,,,,,,,,,,,,,,,,,,,,
,,,,,,,,,,,,,,,,,199576,18,2022-01-28_14h48.04.687,lexical_decision_task_DD,2021.2.3,MacIntel,120.0048002,,,,,,,,,,,,0.8466,1,,,,,,,,,,,,,,z,1,0.8466,,,,,,,,0.061516204,-0.421535012,0,0,0,,0,121,121,167,1,ZONET,LB,old,z,./images/ZONETLB.png,,,,,,,,,,,,,,,,,,,,,,
,,,,,,,,,,,,,,,,,199576,18,2022-01-28_14h48.04.687,lexical_decision_task_DD,2021.2.3,MacIntel,120.0048002,,,,,,,,,,,,1.078,1,,,,,,,,,,,,,,z,1,1.078,,,,,,,,0.061516204,-0.421535012,0,0,0,,0,122,122,103,1,FLORT,HB,old,z,./images/FLORTHB.png,,,,,,,,,,,,,,,,,,,,,,
,,,,,,,,,,,,,,,,,199576,18,2022-01-28_14h48.04.687,lexical_decision_task_DD,2021.2.3,MacIntel,120.0048002,,,,,,,,,,,,0.9636,1,,,,,,,,,,,,,,z,1,0.9636,,,,,,,,0.061516204,-0.421535012,0,0,0,,0,123,123,145,1,LAMEL,HB,old,z,./images/LAMELHB.png,,,,,,,,,,,,,,,,,,,,,,
,,,,,,,,,,,,,,,,,199576,18,2022-01-28_14h48.04.687,lexical_decision_task_DD,2021.2.3,MacIntel,120.0048002,,,,,,,,,,,,0.7798,1,,,,,,,,,,,,,,z,1,0.7798,,,,,,,,0.061516204,-0.421535012,0,0,0,,0,124,124,110,1,CRUNK,LB,old,z,./images/CRUNKLB.png,,,,,,,,,,,,,,,,,,,,,,
,,,,,,,,,,,,,,,,,199576,18,2022-01-28_14h48.04.687,lexical_decision_task_DD,2021.2.3,MacIntel,120.0048002,,,,,,,,,,,,0.523,1,,,,,,,,,,,,,,m,1,0.523,,,,,,,,0.061516204,-0.421535012,1,0,0,,0,125,125,63,1,MIRROR,C,old,m,./images/MIRROR.png,break_done_button,,,,,,,,,,,,,,,,,,,,,
,,,,,,,,,,,,,,,,,199576,18,2022-01-28_14h48.04.687,lexical_decision_task_DD,2021.2.3,MacIntel,120.0048002,,,,,,,,,,,,0.6952,1,,,,,,,,,,,,,,m,1,0.6952,,,,,,,,0.061516204,-0.421535012,0,0,0,,0,126,126,11,1,BONNET,LB,old,m,./images/BONNETLB.png,,,,,,,,,,,,,,,,,,,,,,
,,,,,,,,,,,,,,,,,199576,18,2022-01-28_14h48.04.687,lexical_decision_task_DD,2021.2.3,MacIntel,120.0048002,,,,,,,,,,,,0.5972,1,,,,,,,,,,,,,,m,1,0.5972,,,,,,,,0.061516204,-0.421535012,0,0,0,,0,127,127,71,1,PIMPLE,LB,old,m,./images/PIMPLELB.png,,,,,,,,,,,,,,,,,,,,,,
,,,,,,,,,,,,,,,,,199576,18,2022-01-28_14h48.04.687,lexical_decision_task_DD,2021.2.3,MacIntel,120.0048002,,,,,,,,,,,,0.5811,1,,,,,,,,,,,,,,z,1,0.5811,,,,,,,,0.061516204,-0.421535012,0,0,0,,0,128,128,117,1,STEEG,C,old,z,./images/STEEG.png,,,,,,,,,,,,,,,,,,,,,,
,,,,,,,,,,,,,,,,,199576,18,2022-01-28_14h48.04.687,lexical_decision_task_DD,2021.2.3,MacIntel,120.0048002,,,,,,,,,,,,0.6649,1,,,,,,,,,,,,,,m,1,0.6649,,,,,,,,0.061516204,-0.421535012,0,0,0,,0,129,129,81,1,POODLE,C,old,m,./images/POODLE.png,,,,,,,,,,,,,,,,,,,,,,
,,,,,,,,,,,,,,,,,199576,18,2022-01-28_14h48.04.687,lexical_decision_task_DD,2021.2.3,MacIntel,120.0048002,,,,,,,,,,,,0.6769,1,,,,,,,,,,,,,,z,1,0.6769,,,,,,,,0.061516204,-0.421535012,0,0,0,,0,130,130,89,1,DRIEK,LB,old,z,./images/DRIEKLB.png,,,,,,,,,,,,,,,,,,,,,,
,,,,,,,,,,,,,,,,,199576,18,2022-01-28_14h48.04.687,lexical_decision_task_DD,2021.2.3,MacIntel,120.0048002,,,,,,,,,,,,0.8437,1,,,,,,,,,,,,,,z,1,0.8437,,,,,,,,0.061516204,-0.421535012,0,0,0,,0,131,131,135,1,JOODY,C,old,z,./images/JOODY.png,,,,,,,,,,,,,,,,,,,,,,
,,,,,,,,,,,,,,,,,199576,18,2022-01-28_14h48.04.687,lexical_decision_task_DD,2021.2.3,MacIntel,120.0048002,,,,,,,,,,,,0.6463,1,,,,,,,,,,,,,,m,1,0.6463,,,,,,,,0.061516204,-0.421535012,0,0,0,,0,132,132,30,1,STORM,C,old,m,./images/STORM.png,,,,,,,,,,,,,,,,,,,,,,
,,,,,,,,,,,,,,,,,199576,18,2022-01-28_14h48.04.687,lexical_decision_task_DD,2021.2.3,MacIntel,120.0048002,,,,,,,,,,,,0.6231,1,,,,,,,,,,,,,,z,1,0.6231,,,,,,,,0.061516204,-0.421535012,0,0,0,,0,133,133,123,1,SEDGE,C,old,z,./images/SEDGE.png,,,,,,,,,,,,,,,,,,,,,,
,,,,,,,,,,,,,,,,,199576,18,2022-01-28_14h48.04.687,lexical_decision_task_DD,2021.2.3,MacIntel,120.0048002,,,,,,,,,,,,0.9724,1,,,,,,,,,,,,,,z,1,0.9724,,,,,,,,0.061516204,-0.421535012,0,0,0,,0,134,134,115,1,MAWNS,HB,old,z,./images/MAWNSHB.png,,,,,,,,,,,,,,,,,,,,,,
,,,,,,,,,,,,,,,,,199576,18,2022-01-28_14h48.04.687,lexical_decision_task_DD,2021.2.3,MacIntel,120.0048002,,,,,,,,,,,,0.6033,1,,,,,,,,,,,,,,z,1,0.6033,,,,,,,,0.061516204,-0.421535012,0,0,0,,0,135,135,92,1,PAIMS,LB,old,z,./images/PAIMSLB.png,,,,,,,,,,,,,,,,,,,,,,
,,,,,,,,,,,,,,,,,199576,18,2022-01-28_14h48.04.687,lexical_decision_task_DD,2021.2.3,MacIntel,120.0048002,,,,,,,,,,,,0.5969,0,,,,,,,,,,,,,,z,0,0.5969,,,,,,,,0.061516204,-0.421535012,0,0,0,,0,136,136,54,1,TRIPOD,C,old,m,./images/TRIPOD.png,,,,,,,,,,,,,,,,,,,,,,
,,,,,,,,,,,,,,,,,199576,18,2022-01-28_14h48.04.687,lexical_decision_task_DD,2021.2.3,MacIntel,120.0048002,,,,,,,,,,,,0.7775,1,,,,,,,,,,,,,,m,1,0.7775,,,,,,,,0.061516204,-0.421535012,0,0,0,,0,137,137,64,1,JELLY,HB,old,m,./images/JELLYHB.png,,,,,,,,,,,,,,,,,,,,,,
,,,,,,,,,,,,,,,,,199576,18,2022-01-28_14h48.04.687,lexical_decision_task_DD,2021.2.3,MacIntel,120.0048002,,,,,,,,,,,,0.6477,1,,,,,,,,,,,,,,m,1,0.6477,,,,,,,,0.061516204,-0.421535012,0,0,0,,0,138,138,68,1,TORCH,LB,old,m,./images/TORCHLB.png,,,,,,,,,,,,,,,,,,,,,,
,,,,,,,,,,,,,,,,,199576,18,2022-01-28_14h48.04.687,lexical_decision_task_DD,2021.2.3,MacIntel,120.0048002,,,,,,,,,,,,1.3042,0,,,,,,,,,,,,,,m,0,1.3042,,,,,,,,0.061516204,-0.421535012,0,0,0,,0,139,139,142,1,PLASK,HB,old,z,./images/PLASKHB.png,,,,,,,,,,,,,,,,,,,,,,
,,,,,,,,,,,,,,,,,199576,18,2022-01-28_14h48.04.687,lexical_decision_task_DD,2021.2.3,MacIntel,120.0048002,,,,,,,,,,,,1.045,1,,,,,,,,,,,,,,z,1,1.045,,,,,,,,0.061516204,-0.421535012,0,0,0,,0,140,140,138,1,PLICE,C,old,z,./images/PLICE.png,,,,,,,,,,,,,,,,,,,,,,
,,,,,,,,,,,,,,,,,199576,18,2022-01-28_14h48.04.687,lexical_decision_task_DD,2021.2.3,MacIntel,120.0048002,,,,,,,,,,,,0.6285,1,,,,,,,,,,,,,,z,1,0.6285,,,,,,,,0.061516204,-0.421535012,0,0,0,,0,141,141,98,1,BAMPS,LB,old,z,./images/BAMPSLB.png,,,,,,,,,,,,,,,,,,,,,,
,,,,,,,,,,,,,,,,,199576,18,2022-01-28_14h48.04.687,lexical_decision_task_DD,2021.2.3,MacIntel,120.0048002,,,,,,,,,,,,0.5325,1,,,,,,,,,,,,,,z,1,0.5325,,,,,,,,0.061516204,-0.421535012,0,0,0,,0,142,142,96,1,KEAMS,C,old,z,./images/KEAMS.png,,,,,,,,,,,,,,,,,,,,,,
,,,,,,,,,,,,,,,,,199576,18,2022-01-28_14h48.04.687,lexical_decision_task_DD,2021.2.3,MacIntel,120.0048002,,,,,,,,,,,,1.4065,0,,,,,,,,,,,,,,m,0,1.4065,,,,,,,,0.061516204,-0.421535012,0,0,0,,0,143,143,166,1,SHORY,HB,old,z,./images/SHORYHB.png,,,,,,,,,,,,,,,,,,,,,,
,,,,,,,,,,,,,,,,,199576,18,2022-01-28_14h48.04.687,lexical_decision_task_DD,2021.2.3,MacIntel,120.0048002,,,,,,,,,,,,0.5731,1,,,,,,,,,,,,,,m,1,0.5731,,,,,,,,0.061516204,-0.421535012,0,0,0,,0,144,144,75,1,GRAIN,C,old,m,./images/GRAIN.png,,,,,,,,,,,,,,,,,,,,,,
,,,,,,,,,,,,,,,,,199576,18,2022-01-28_14h48.04.687,lexical_decision_task_DD,2021.2.3,MacIntel,120.0048002,,,,,,,,,,,,0.6041,1,,,,,,,,,,,,,,m,1,0.6041,,,,,,,,0.061516204,-0.421535012,0,0,0,,0,145,145,42,1,FOLDER,C,old,m,./images/FOLDER.png,,,,,,,,,,,,,,,,,,,,,,
,,,,,,,,,,,,,,,,,199576,18,2022-01-28_14h48.04.687,lexical_decision_task_DD,2021.2.3,MacIntel,120.0048002,,,,,,,,,,,,0.7764,1,,,,,,,,,,,,,,m,1,0.7764,,,,,,,,0.061516204,-0.421535012,0,0,0,,0,146,146,83,1,JUNGLE,LB,old,m,./images/JUNGLELB.png,,,,,,,,,,,,,,,,,,,,,,
,,,,,,,,,,,,,,,,,199576,18,2022-01-28_14h48.04.687,lexical_decision_task_DD,2021.2.3,MacIntel,120.0048002,,,,,,,,,,,,0.673,1,,,,,,,,,,,,,,z,1,0.673,,,,,,,,0.061516204,-0.421535012,0,0,0,,0,147,147,99,1,BACKY,C,old,z,./images/BACKY.png,,,,,,,,,,,,,,,,,,,,,,
,,,,,,,,,,,,,,,,,199576,18,2022-01-28_14h48.04.687,lexical_decision_task_DD,2021.2.3,MacIntel,120.0048002,,,,,,,,,,,,0.5001,1,,,,,,,,,,,,,,m,1,0.5001,,,,,,,,0.061516204,-0.421535012,0,0,0,,0,148,148,51,1,ONION,C,old,m,./images/ONION.png,,,,,,,,,,,,,,,,,,,,,,
,,,,,,,,,,,,,,,,,199576,18,2022-01-28_14h48.04.687,lexical_decision_task_DD,2021.2.3,MacIntel,120.0048002,,,,,,,,,,,,0.995,1,,,,,,,,,,,,,,m,1,0.995,,,,,,,,0.061516204,-0.421535012,0,0,0,,0,149,149,43,1,MOSQUE,HB,old,m,./images/MOSQUEHB.png,,,,,,,,,,,,,,,,,,,,,,
,,,,,,,,,,,,,,,,,199576,18,2022-01-28_14h48.04.687,lexical_decision_task_DD,2021.2.3,MacIntel,120.0048002,,,,,,,,,,,,1.2341,1,,,,,,,,,,,,,,z,1,1.2341,,,,,,,,0.061516204,-0.421535012,0,0,0,,0,150,150,149,1,VEASE,LB,old,z,./images/VEASELB.png,,,,,,,,,,,,,,,,,,,,,,
,,,,,,,,,,,,,,,,,199576,18,2022-01-28_14h48.04.687,lexical_decision_task_DD,2021.2.3,MacIntel,120.0048002,,,,,,,,,,,,0.5332,1,,,,,,,,,,,,,,m,1,0.5332,,,,,,,,0.061516204,-0.421535012,0,0,0,,0,151,151,0,1,TOMATO,C,old,m,./images/TOMATO.png,,,,,,,,,,,,,,,,,,,,,,
,,,,,,,,,,,,,,,,,199576,18,2022-01-28_14h48.04.687,lexical_decision_task_DD,2021.2.3,MacIntel,120.0048002,,,,,,,,,,,,0.9556,1,,,,,,,,,,,,,,m,1,0.9556,,,,,,,,0.061516204,-0.421535012,0,0,0,,0,152,152,72,1,NOOSE,C,old,m,./images/NOOSE.png,,,,,,,,,,,,,,,,,,,,,,
,,,,,,,,,,,,,,,,,199576,18,2022-01-28_14h48.04.687,lexical_decision_task_DD,2021.2.3,MacIntel,120.0048002,,,,,,,,,,,,1.2639,1,,,,,,,,,,,,,,z,1,1.2639,,,,,,,,0.061516204,-0.421535012,0,0,0,,0,153,153,85,1,CHULK,HB,old,z,./images/CHULKHB.png,,,,,,,,,,,,,,,,,,,,,,
,,,,,,,,,,,,,,,,,199576,18,2022-01-28_14h48.04.687,lexical_decision_task_DD,2021.2.3,MacIntel,120.0048002,,,,,,,,,,,,0.6131,1,,,,,,,,,,,,,,m,1,0.6131,,,,,,,,0.061516204,-0.421535012,0,0,0,,0,154,154,66,1,SWEAT,C,old,m,./images/SWEAT.png,,,,,,,,,,,,,,,,,,,,,,
,,,,,,,,,,,,,,,,,199576,18,2022-01-28_14h48.04.687,lexical_decision_task_DD,2021.2.3,MacIntel,120.0048002,,,,,,,,,,,,1.0594,1,,,,,,,,,,,,,,z,1,1.0594,,,,,,,,0.061516204,-0.421535012,0,0,0,,0,155,155,130,1,CRILL,HB,old,z,./images/CRILLHB.png,,,,,,,,,,,,,,,,,,,,,,
,,,,,,,,,,,,,,,,,199576,18,2022-01-28_14h48.04.687,lexical_decision_task_DD,2021.2.3,MacIntel,120.0048002,,,,,,,,,,,,0.6254,1,,,,,,,,,,,,,,m,1,0.6254,,,,,,,,0.061516204,-0.421535012,0,0,0,,0,156,156,48,1,SPORT,C,old,m,./images/SPORT.png,,,,,,,,,,,,,,,,,,,,,,
,,,,,,,,,,,,,,,,,199576,18,2022-01-28_14h48.04.687,lexical_decision_task_DD,2021.2.3,MacIntel,120.0048002,,,,,,,,,,,,1.1478,1,,,,,,,,,,,,,,m,1,1.1478,,,,,,,,0.061516204,-0.421535012,0,0,0,,0,157,157,61,1,CANDLE,HB,old,m,./images/CANDLEHB.png,,,,,,,,,,,,,,,,,,,,,,
,,,,,,,,,,,,,,,,,199576,18,2022-01-28_14h48.04.687,lexical_decision_task_DD,2021.2.3,MacIntel,120.0048002,,,,,,,,,,,,0.6226,1,,,,,,,,,,,,,,z,1,0.6226,,,,,,,,0.061516204,-0.421535012,0,0,0,,0,158,158,113,1,LINEW,LB,old,z,./images/LINEWLB.png,,,,,,,,,,,,,,,,,,,,,,
,,,,,,,,,,,,,,,,,199576,18,2022-01-28_14h48.04.687,lexical_decision_task_DD,2021.2.3,MacIntel,120.0048002,,,,,,,,,,,,1.1165,1,,,,,,,,,,,,,,z,1,1.1165,,,,,,,,0.061516204,-0.421535012,0,0,0,,0,159,159,100,1,DRIBS,HB,old,z,./images/DRIBSHB.png,,,,,,,,,,,,,,,,,,,,,,
,,,,,,,,,,,,,,,,,199576,18,2022-01-28_14h48.04.687,lexical_decision_task_DD,2021.2.3,MacIntel,120.0048002,,,,,,,,,,,,0.5692,1,,,,,,,,,,,,,,m,1,0.5692,,,,,,,,0.061516204,-0.421535012,0,0,0,,0,160,160,32,1,BARREL,LB,old,m,./images/BARRELLB.png,,,,,,,,,,,,,,,,,,,,,,
,,,,,,,,,,,,,,,,,199576,18,2022-01-28_14h48.04.687,lexical_decision_task_DD,2021.2.3,MacIntel,120.0048002,,,,,,,,,,,,0.6325,1,,,,,,,,,,,,,,m,1,0.6325,,,,,,,,0.061516204,-0.421535012,0,0,0,,0,161,161,80,1,WEASEL,LB,old,m,./images/WEASELLB.png,,,,,,,,,,,,,,,,,,,,,,
,,,,,,,,,,,,,,,,,199576,18,2022-01-28_14h48.04.687,lexical_decision_task_DD,2021.2.3,MacIntel,120.0048002,,,,,,,,,,,,1.1022,1,,,,,,,,,,,,,,z,1,1.1022,,,,,,,,0.061516204,-0.421535012,0,0,0,,0,162,162,107,1,FASKS,LB,old,z,./images/FASKSLB.png,,,,,,,,,,,,,,,,,,,,,,
,,,,,,,,,,,,,,,,,199576,18,2022-01-28_14h48.04.687,lexical_decision_task_DD,2021.2.3,MacIntel,120.0048002,,,,,,,,,,,,1.0591,1,,,,,,,,,,,,,,z,1,1.0591,,,,,,,,0.061516204,-0.421535012,0,0,0,,0,163,163,118,1,BAVEL,HB,old,z,./images/BAVELHB.png,,,,,,,,,,,,,,,,,,,,,,
,,,,,,,,,,,,,,,,,199576,18,2022-01-28_14h48.04.687,lexical_decision_task_DD,2021.2.3,MacIntel,120.0048002,,,,,,,,,,,,1.2341,1,,,,,,,,,,,,,,z,1,1.2341,,,,,,,,0.061516204,-0.421535012,0,0,0,,0,164,164,91,1,SHENS,HB,old,z,./images/SHENSHB.png,,,,,,,,,,,,,,,,,,,,,,
,,,,,,,,,,,,,,,,,199576,18,2022-01-28_14h48.04.687,lexical_decision_task_DD,2021.2.3,MacIntel,120.0048002,,,,,,,,,,,,0.8576,1,,,,,,,,,,,,,,z,1,0.8576,,,,,,,,0.061516204,-0.421535012,0,0,0,,0,165,165,133,1,POWDY,HB,old,z,./images/POWDYHB.png,,,,,,,,,,,,,,,,,,,,,,
,,,,,,,,,,,,,,,,,199576,18,2022-01-28_14h48.04.687,lexical_decision_task_DD,2021.2.3,MacIntel,120.0048002,,,,,,,,,,,,1.2048,1,,,,,,,,,,,,,,z,1,1.2048,,,,,,,,0.061516204,-0.421535012,0,0,0,,0,166,166,94,1,BLANS,HB,old,z,./images/BLANSHB.png,,,,,,,,,,,,,,,,,,,,,,
,,,,,,,,,,,,,,,,,199576,18,2022-01-28_14h48.04.687,lexical_decision_task_DD,2021.2.3,MacIntel,120.0048002,,,,,,,,,,,,1.0149,1,,,,,,,,,,,,,,m,1,1.0149,,,,,,,,0.061516204,-0.421535012,0,0,0,,0,167,167,20,1,CRADLE,LB,old,m,./images/CRADLELB.png,,,,,,,,,,,,,,,,,,,,,,
,0.061516204,-0.421535012,1,0,0,instr_done_button,,,,,,1,test,"In the next phase you will be presented with the words from the the first phase. Your job is to decide whether you remember seeing the word or not. If you remember seeing the word press ""old"" or type ""m"". If you do not remember seeing the word press ""new"" or type ""z"". Please press the space bar or click on continue to begin. ",,,199576,18,2022-01-28_14h48.04.687,lexical_decision_task_DD,2021.2.3,MacIntel,120.0048002,,,,,,,,,,,,,,,,,,,,,,,,,,,,,,,,,,,,,,,,,,,,,,,,,,,,,,0,0,0,0,1,,,,,,,,,,,,,,,,
,0.061516204,-0.420468027,1,0,0,instr_done_button,,,,,,1,test,"In the next phase you will be presented with the words from the the first phase. Your job is to decide whether you remember seeing the word or not. If you remember seeing the word press ""old"" or type ""m"". If you do not remember seeing the word press ""new"" or type ""z"". Please press the space bar or click on continue to begin. ",,,199576,18,2022-01-28_14h48.04.687,lexical_decision_task_DD,2021.2.3,MacIntel,120.0048002,,,,,,,,,,,,,,,,,,,,,,,,,,,,,,,,,,,,,,,,,,,,,,,,,,,,,,1,0,1,0,1,,,,,,,,,,,,,,,,
,0.061270255,-0.36754919,1,0,0,instr_done_button,,,,,,1,test,"In the next phase you will be presented with the words from the the first phase. Your job is to decide whether you remember seeing the word or not. If you remember seeing the word press ""old"" or type ""m"". If you do not remember seeing the word press ""new"" or type ""z"". Please press the space bar or click on continue to begin. ",,,199576,18,2022-01-28_14h48.04.687,lexical_decision_task_DD,2021.2.3,MacIntel,120.0048002,,,,,,,,,,,,,,,,,,,,,,,,,,,,,,,,,,,,,,,,,,,,,,,,,,,,,,2,0,2,0,1,,,,,,,,,,,,,,,,
,0.049128328,-0.389521846,1,0,0,instr_done_button,,,,,,1,test,"In the next phase you will be presented with the words from the the first phase. Your job is to decide whether you remember seeing the word or not. If you remember seeing the word press ""old"" or type ""m"". If you do not remember seeing the word press ""new"" or type ""z"". Please press the space bar or click on continue to begin. ",,,199576,18,2022-01-28_14h48.04.687,lexical_decision_task_DD,2021.2.3,MacIntel,120.0048002,,,,,,,,,,,,,,,,,,,,,,,,,,,,,,,,,,,,,,,,,,,,,,,,,,,,,,3,0,3,0,1,,,,,,,,,,,,,,,,
space,0.048665365,-0.390447772,0,0,0,,,,,,,1,test,"In the next phase you will be presented with the words from the the first phase. Your job is to decide whether you remember seeing the word or not. If you remember seeing the word press ""old"" or type ""m"". If you do not remember seeing the word press ""new"" or type ""z"". Please press the space bar or click on continue to begin. ",,,199576,18,2022-01-28_14h48.04.687,lexical_decision_task_DD,2021.2.3,MacIntel,120.0048002,0.5196,,,,,,,,,,,,,,,,,,,,,,,,,,,,,,,,,,,,,,,,,,,,,,,,,,,,,4,0,4,0,1,,,,,,,,,,,,,,,,
,,,,,,,,,,,,,,,,,199576,18,2022-01-28_14h48.04.687,lexical_decision_task_DD,2021.2.3,MacIntel,120.0048002,,,,,,,,,,,,1.5926,1,,,,,,,,,,,,,,,,,,,,,,,,0.048665365,-0.390447772,0,0,0,,,,,,,TWINS,C,m,m,./images/TWINS.png,,,,,,,m,1,1.5926,,,,,,,,0,0,0,60,1,
,,,,,,,,,,,,,,,,,199576,18,2022-01-28_14h48.04.687,lexical_decision_task_DD,2021.2.3,MacIntel,120.0048002,,,,,,,,,,,,0.9661,1,,,,,,,,,,,,,,,,,,,,,,,,0.048665365,-0.390447772,0,0,0,,,,,,,CHALK,HB,z,m,./images/CHALKHB.png,,,,,,,z,1,0.9661,,,,,,,,0,1,1,109,1,
,,,,,,,,,,,,,,,,,199576,18,2022-01-28_14h48.04.687,lexical_decision_task_DD,2021.2.3,MacIntel,120.0048002,,,,,,,,,,,,0.8906,1,,,,,,,,,,,,,,,,,,,,,,,,0.048665365,-0.390447772,0,0,0,,,,,,,URINE,HB,m,m,./images/URINEHB.png,,,,,,,m,1,0.8906,,,,,,,,0,2,2,70,1,
,,,,,,,,,,,,,,,,,199576,18,2022-01-28_14h48.04.687,lexical_decision_task_DD,2021.2.3,MacIntel,120.0048002,,,,,,,,,,,,1.3489,1,,,,,,,,,,,,,,,,,,,,,,,,0.048665365,-0.390447772,0,0,0,,,,,,,PISTOL,LB,z,m,./images/PISTOLLB.png,,,,,,,z,1,1.3489,,,,,,,,0,3,3,113,1,
,,,,,,,,,,,,,,,,,199576,18,2022-01-28_14h48.04.687,lexical_decision_task_DD,2021.2.3,MacIntel,120.0048002,,,,,,,,,,,,0.7787,1,,,,,,,,,,,,,,,,,,,,,,,,0.048665365,-0.390447772,0,0,0,,,,,,,SHORE,C,m,m,./images/SHORE.png,,,,,,,m,1,0.7787,,,,,,,,0,4,4,12,1,
,,,,,,,,,,,,,,,,,199576,18,2022-01-28_14h48.04.687,lexical_decision_task_DD,2021.2.3,MacIntel,120.0048002,,,,,,,,,,,,1.116,1,,,,,,,,,,,,,,,,,,,,,,,,0.048665365,-0.390447772,0,0,0,,,,,,,STEAK,HB,z,m,./images/STEAKHB.png,,,,,,,z,1,1.116,,,,,,,,0,5,5,115,1,
,,,,,,,,,,,,,,,,,199576,18,2022-01-28_14h48.04.687,lexical_decision_task_DD,2021.2.3,MacIntel,120.0048002,,,,,,,,,,,,0.8469,0,,,,,,,,,,,,,,,,,,,,,,,,0.048665365,-0.390447772,0,0,0,,,,,,,SHELF,C,m,m,./images/SHELF.png,,,,,,,z,0,0.8469,,,,,,,,0,6,6,39,1,
,,,,,,,,,,,,,,,,,199576,18,2022-01-28_14h48.04.687,lexical_decision_task_DD,2021.2.3,MacIntel,120.0048002,,,,,,,,,,,,1.3144,1,,,,,,,,,,,,,,,,,,,,,,,,0.048665365,-0.390447772,0,0,0,,,,,,,CANDY,C,z,m,./images/CANDY.png,,,,,,,z,1,1.3144,,,,,,,,0,7,7,123,1,
,,,,,,,,,,,,,,,,,199576,18,2022-01-28_14h48.04.687,lexical_decision_task_DD,2021.2.3,MacIntel,120.0048002,,,,,,,,,,,,0.655,1,,,,,,,,,,,,,,,,,,,,,,,,0.048665365,-0.390447772,0,0,0,,,,,,,ARROW,C,z,m,./images/ARROW.png,,,,,,,z,1,0.655,,,,,,,,0,8,8,153,1,
,,,,,,,,,,,,,,,,,199576,18,2022-01-28_14h48.04.687,lexical_decision_task_DD,2021.2.3,MacIntel,120.0048002,,,,,,,,,,,,0.6041,1,,,,,,,,,,,,,,,,,,,,,,,,0.048665365,-0.390447772,0,0,0,,,,,,,POSTER,LB,z,m,./images/POSTERLB.png,,,,,,,z,1,0.6041,,,,,,,,0,9,9,137,1,
,,,,,,,,,,,,,,,,,199576,18,2022-01-28_14h48.04.687,lexical_decision_task_DD,2021.2.3,MacIntel,120.0048002,,,,,,,,,,,,0.5642,0,,,,,,,,,,,,,,,,,,,,,,,,0.048665365,-0.390447772,0,0,0,,,,,,,SQUARE,C,m,m,./images/SQUARE.png,,,,,,,z,0,0.5642,,,,,,,,0,10,10,6,1,
,,,,,,,,,,,,,,,,,199576,18,2022-01-28_14h48.04.687,lexical_decision_task_DD,2021.2.3,MacIntel,120.0048002,,,,,,,,,,,,0.5853,1,,,,,,,,,,,,,,,,,,,,,,,,0.048665365,-0.390447772,0,0,0,,,,,,,FENCE,LB,z,m,./images/FENCELB.png,,,,,,,z,1,0.5853,,,,,,,,0,11,11,98,1,
,,,,,,,,,,,,,,,,,199576,18,2022-01-28_14h48.04.687,lexical_decision_task_DD,2021.2.3,MacIntel,120.0048002,,,,,,,,,,,,0.6157,0,,,,,,,,,,,,,,,,,,,,,,,,0.048665365,-0.390447772,0,0,0,,,,,,,BROOM,C,z,m,./images/BROOM.png,,,,,,,m,0,0.6157,,,,,,,,0,12,12,162,1,
,,,,,,,,,,,,,,,,,199576,18,2022-01-28_14h48.04.687,lexical_decision_task_DD,2021.2.3,MacIntel,120.0048002,,,,,,,,,,,,0.532,1,,,,,,,,,,,,,,,,,,,,,,,,0.048665365,-0.390447772,0,0,0,,,,,,,BELLY,HB,m,m,./images/BELLYHB.png,,,,,,,m,1,0.532,,,,,,,,0,13,13,10,1,
,,,,,,,,,,,,,,,,,199576,18,2022-01-28_14h48.04.687,lexical_decision_task_DD,2021.2.3,MacIntel,120.0048002,,,,,,,,,,,,1.0995,1,,,,,,,,,,,,,,,,,,,,,,,,0.048665365,-0.390447772,0,0,0,,,,,,,BOILER,C,z,m,./images/BOILER.png,,,,,,,z,1,1.0995,,,,,,,,0,14,14,120,1,
,,,,,,,,,,,,,,,,,199576,18,2022-01-28_14h48.04.687,lexical_decision_task_DD,2021.2.3,MacIntel,120.0048002,,,,,,,,,,,,0.5821,1,,,,,,,,,,,,,,,,,,,,,,,,0.048665365,-0.390447772,0,0,0,,,,,,,LIZARD,LB,m,m,./images/LIZARDLB.png,,,,,,,m,1,0.5821,,,,,,,,0,15,15,44,1,
,,,,,,,,,,,,,,,,,199576,18,2022-01-28_14h48.04.687,lexical_decision_task_DD,2021.2.3,MacIntel,120.0048002,,,,,,,,,,,,0.2858,0,,,,,,,,,,,,,,,,,,,,,,,,0.048665365,-0.390447772,0,0,0,,,,,,,MAGGOT,C,m,m,./images/MAGGOT.png,,,,,,,z,0,0.2858,,,,,,,,0,16,16,33,1,
,,,,,,,,,,,,,,,,,199576,18,2022-01-28_14h48.04.687,lexical_decision_task_DD,2021.2.3,MacIntel,120.0048002,,,,,,,,,,,,0.2498,0,,,,,,,,,,,,,,,,,,,,,,,,0.048665365,-0.390447772,0,0,0,,,,,,,PILOT,LB,z,m,./images/PILOTLB.png,,,,,,,m,0,0.2498,,,,,,,,0,17,17,134,1,
,,,,,,,,,,,,,,,,,199576,18,2022-01-28_14h48.04.687,lexical_decision_task_DD,2021.2.3,MacIntel,120.0048002,,,,,,,,,,,,0.253,1,,,,,,,,,,,,,,,,,,,,,,,,0.048665365,-0.390447772,0,0,0,,,,,,,MIRROR,C,m,m,./images/MIRROR.png,,,,,,,m,1,0.253,,,,,,,,0,18,18,63,1,
,,,,,,,,,,,,,,,,,199576,18,2022-01-28_14h48.04.687,lexical_decision_task_DD,2021.2.3,MacIntel,120.0048002,,,,,,,,,,,,0.2,1,,,,,,,,,,,,,,,,,,,,,,,,0.048665365,-0.390447772,0,0,0,,,,,,,MALLET,LB,m,m,./images/MALLETLB.png,,,,,,,m,1,0.2,,,,,,,,0,19,19,50,1,
,,,,,,,,,,,,,,,,,199576,18,2022-01-28_14h48.04.687,lexical_decision_task_DD,2021.2.3,MacIntel,120.0048002,,,,,,,,,,,,0.106,1,,,,,,,,,,,,,,,,,,,,,,,,0.048665365,-0.390447772,0,0,0,,,,,,,SAILOR,HB,m,m,./images/SAILORHB.png,,,,,,,m,1,0.106,,,,,,,,0,20,20,67,1,
,,,,,,,,,,,,,,,,,199576,18,2022-01-28_14h48.04.687,lexical_decision_task_DD,2021.2.3,MacIntel,120.0048002,,,,,,,,,,,,0.0586,0,,,,,,,,,,,,,,,,,,,,,,,,0.048665365,-0.390447772,0,0,0,,,,,,,MEDAL,LB,z,m,./images/MEDALLB.png,,,,,,,m,0,0.0586,,,,,,,,0,21,21,95,1,
,,,,,,,,,,,,,,,,,199576,18,2022-01-28_14h48.04.687,lexical_decision_task_DD,2021.2.3,MacIntel,120.0048002,,,,,,,,,,,,0.0025,0,,,,,,,,,,,,,,,,,,,,,,,,0.048665365,-0.390447772,0,0,0,,,,,,,DRILL,C,z,m,./images/DRILL.png,,,,,,,m,0,0.0025,,,,,,,,0,22,22,165,1,
,,,,,,,,,,,,,,,,,199576,18,2022-01-28_14h48.04.687,lexical_decision_task_DD,2021.2.3,MacIntel,120.0048002,,,,,,,,,,,,0.0389,1,,,,,,,,,,,,,,,,,,,,,,,,0.048665365,-0.390447772,0,0,0,,,,,,,BIRTH,HB,m,m,./images/BIRTHHB.png,,,,,,,m,1,0.0389,,,,,,,,0,23,23,37,1,
,,,,,,,,,,,,,,,,,199576,18,2022-01-28_14h48.04.687,lexical_decision_task_DD,2021.2.3,MacIntel,120.0048002,,,,,,,,,,,,0.2028,1,,,,,,,,,,,,,,,,,,,,,,,,0.048665365,-0.390447772,0,0,0,,,,,,,CANOE,HB,z,m,./images/CANOEHB.png,,,,,,,z,1,0.2028,,,,,,,,0,24,24,142,1,
,,,,,,,,,,,,,,,,,199576,18,2022-01-28_14h48.04.687,lexical_decision_task_DD,2021.2.3,MacIntel,120.0048002,,,,,,,,,,,,0.0899,1,,,,,,,,,,,,,,,,,,,,,,,,0.048665365,-0.390447772,0,0,0,,,,,,,JELLY,HB,m,m,./images/JELLYHB.png,,,,,,,m,1,0.0899,,,,,,,,0,25,25,64,1,
,,,,,,,,,,,,,,,,,199576,18,2022-01-28_14h48.04.687,lexical_decision_task_DD,2021.2.3,MacIntel,120.0048002,,,,,,,,,,,,0.0726,1,,,,,,,,,,,,,,,,,,,,,,,,0.048665365,-0.390447772,0,0,0,,,,,,,SLOPE,C,z,m,./images/SLOPE.png,,,,,,,z,1,0.0726,,,,,,,,0,26,26,114,1,
,,,,,,,,,,,,,,,,,199576,18,2022-01-28_14h48.04.687,lexical_decision_task_DD,2021.2.3,MacIntel,120.0048002,,,,,,,,,,,,0.198,1,,,,,,,,,,,,,,,,,,,,,,,,0.048665365,-0.390447772,0,0,0,,,,,,,LADDER,LB,m,m,./images/LADDERLB.png,,,,,,,m,1,0.198,,,,,,,,0,27,27,38,1,
,,,,,,,,,,,,,,,,,199576,18,2022-01-28_14h48.04.687,lexical_decision_task_DD,2021.2.3,MacIntel,120.0048002,,,,,,,,,,,,0.0005,1,,,,,,,,,,,,,,,,,,,,,,,,0.048665365,-0.390447772,0,0,0,,,,,,,BANANA,HB,z,m,./images/BANANAHB.png,,,,,,,z,1,0.0005,,,,,,,,0,28,28,154,1,
,,,,,,,,,,,,,,,,,199576,18,2022-01-28_14h48.04.687,lexical_decision_task_DD,2021.2.3,MacIntel,120.0048002,,,,,,,,,,,,0.146,1,,,,,,,,,,,,,,,,,,,,,,,,0.048665365,-0.390447772,0,0,0,,,,,,,COOKER,C,m,m,./images/COOKER.png,,,,,,,m,1,0.146,,,,,,,,0,29,29,69,1,
,,,,,,,,,,,,,,,,,199576,18,2022-01-28_14h48.04.687,lexical_decision_task_DD,2021.2.3,MacIntel,120.0048002,,,,,,,,,,,,0.3063,1,,,,,,,,,,,,,,,,,,,,,,,,0.048665365,-0.390447772,0,0,0,,,,,,,BLOKE,C,z,m,./images/BLOKE.png,,,,,,,z,1,0.3063,,,,,,,,0,30,30,96,1,
,,,,,,,,,,,,,,,,,199576,18,2022-01-28_14h48.04.687,lexical_decision_task_DD,2021.2.3,MacIntel,120.0048002,,,,,,,,,,,,0.2108,1,,,,,,,,,,,,,,,,,,,,,,,,0.048665365,-0.390447772,0,0,0,,,,,,,RULER,HB,z,m,./images/RULERHB.png,,,,,,,z,1,0.2108,,,,,,,,0,31,31,163,1,
,,,,,,,,,,,,,,,,,199576,18,2022-01-28_14h48.04.687,lexical_decision_task_DD,2021.2.3,MacIntel,120.0048002,,,,,,,,,,,,0.1213,0,,,,,,,,,,,,,,,,,,,,,,,,0.048665365,-0.390447772,0,0,0,,,,,,,STOVE,LB,z,m,./images/STOVELB.png,,,,,,,m,0,0.1213,,,,,,,,0,32,32,86,1,
,,,,,,,,,,,,,,,,,199576,18,2022-01-28_14h48.04.687,lexical_decision_task_DD,2021.2.3,MacIntel,120.0048002,,,,,,,,,,,,0.066,0,,,,,,,,,,,,,,,,,,,,,,,,0.048665365,-0.390447772,0,0,0,,,,,,,SHIELD,C,z,m,./images/SHIELD.png,,,,,,,m,0,0.066,,,,,,,,0,33,33,132,1,
,,,,,,,,,,,,,,,,,199576,18,2022-01-28_14h48.04.687,lexical_decision_task_DD,2021.2.3,MacIntel,120.0048002,,,,,,,,,,,,0.1224,0,,,,,,,,,,,,,,,,,,,,,,,,0.048665365,-0.390447772,0,0,0,,,,,,,JAGUAR,C,m,m,./images/JAGUAR.png,,,,,,,z,0,0.1224,,,,,,,,0,34,34,18,1,
,,,,,,,,,,,,,,,,,199576,18,2022-01-28_14h48.04.687,lexical_decision_task_DD,2021.2.3,MacIntel,120.0048002,,,,,,,,,,,,0.0383,0,,,,,,,,,,,,,,,,,,,,,,,,0.048665365,-0.390447772,0,0,0,,,,,,,BASKET,LB,z,m,./images/BASKETLB.png,,,,,,,m,0,0.0383,,,,,,,,0,35,35,128,1,
,,,,,,,,,,,,,,,,,199576,18,2022-01-28_14h48.04.687,lexical_decision_task_DD,2021.2.3,MacIntel,120.0048002,,,,,,,,,,,,0.106,1,,,,,,,,,,,,,,,,,,,,,,,,0.048665365,-0.390447772,0,0,0,,,,,,,PAINT,HB,m,m,./images/PAINTHB.png,,,,,,,m,1,0.106,,,,,,,,0,36,36,7,1,
,,,,,,,,,,,,,,,,,199576,18,2022-01-28_14h48.04.687,lexical_decision_task_DD,2021.2.3,MacIntel,120.0048002,,,,,,,,,,,,0.1476,0,,,,,,,,,,,,,,,,,,,,,,,,0.048665365,-0.390447772,0,0,0,,,,,,,PENCE,HB,m,m,./images/PENCEHB.png,,,,,,,z,0,0.1476,,,,,,,,0,37,37,16,1,
,,,,,,,,,,,,,,,,,199576,18,2022-01-28_14h48.04.687,lexical_decision_task_DD,2021.2.3,MacIntel,120.0048002,,,,,,,,,,,,0.1065,0,,,,,,,,,,,,,,,,,,,,,,,,0.048665365,-0.390447772,0,0,0,,,,,,,CURRY,C,z,m,./images/CURRY.png,,,,,,,m,0,0.1065,,,,,,,,0,38,38,144,1,
,,,,,,,,,,,,,,,,,199576,18,2022-01-28_14h48.04.687,lexical_decision_task_DD,2021.2.3,MacIntel,120.0048002,,,,,,,,,,,,0.1217,1,,,,,,,,,,,,,,,,,,,,,,,,0.048665365,-0.390447772,0,0,0,,,,,,,CRUMB,LB,m,m,./images/CRUMBLB.png,,,,,,,m,1,0.1217,,,,,,,,0,39,39,29,1,
,,,,,,,,,,,,,,,,,199576,18,2022-01-28_14h48.04.687,lexical_decision_task_DD,2021.2.3,MacIntel,120.0048002,,,,,,,,,,,,0.017,1,,,,,,,,,,,,,,,,,,,,,,,,0.048665365,-0.390447772,0,0,0,,,,,,,STREAM,LB,z,m,./images/STREAMLB.png,,,,,,,z,1,0.017,,,,,,,,0,40,40,125,1,
,,,,,,,,,,,,,,,,,199576,18,2022-01-28_14h48.04.687,lexical_decision_task_DD,2021.2.3,MacIntel,120.0048002,,,,,,,,,,,,0.164,1,,,,,,,,,,,,,,,,,,,,,,,,0.048665365,-0.391380932,0,0,0,space,,,,,,CLOTH,LB,z,m,./images/CLOTHLB.png,,,,,,,z,1,0.164,,,,,,,,0,41,41,107,1,1.8269
,,,,,,,,,,,,,,,,,199576,18,2022-01-28_14h48.04.687,lexical_decision_task_DD,2021.2.3,MacIntel,120.0048002,,,,,,,,,,,,0.1703,1,,,,,,,,,,,,,,,,,,,,,,,,0.048665365,-0.391380932,0,0,0,,,,,,,VALLEY,LB,z,m,./images/VALLEYLB.png,,,,,,,z,1,0.1703,,,,,,,,0,42,42,152,1,
,,,,,,,,,,,,,,,,,199576,18,2022-01-28_14h48.04.687,lexical_decision_task_DD,2021.2.3,MacIntel,120.0048002,,,,,,,,,,,,0.0887,0,,,,,,,,,,,,,,,,,,,,,,,,0.048665365,-0.391380932,0,0,0,,,,,,,WHISKY,LB,z,m,./images/WHISKYLB.png,,,,,,,m,0,0.0887,,,,,,,,0,43,43,167,1,
,,,,,,,,,,,,,,,,,199576,18,2022-01-28_14h48.04.687,lexical_decision_task_DD,2021.2.3,MacIntel,120.0048002,,,,,,,,,,,,0.0006,1,,,,,,,,,,,,,,,,,,,,,,,,0.048665365,-0.391380932,0,0,0,,,,,,,CHAIN,C,z,m,./images/CHAIN.png,,,,,,,z,1,0.0006,,,,,,,,0,44,44,126,1,
,,,,,,,,,,,,,,,,,199576,18,2022-01-28_14h48.04.687,lexical_decision_task_DD,2021.2.3,MacIntel,120.0048002,,,,,,,,,,,,0.1398,0,,,,,,,,,,,,,,,,,,,,,,,,0.048665365,-0.391380932,0,0,0,,,,,,,STAIN,C,z,m,./images/STAIN.png,,,,,,,m,0,0.1398,,,,,,,,0,45,45,90,1,
,,,,,,,,,,,,,,,,,199576,18,2022-01-28_14h48.04.687,lexical_decision_task_DD,2021.2.3,MacIntel,120.0048002,,,,,,,,,,,,0.105,0,,,,,,,,,,,,,,,,,,,,,,,,0.048665365,-0.391380932,0,0,0,,,,,,,FINGER,C,m,m,./images/FINGER.png,,,,,,,z,0,0.105,,,,,,,,0,46,46,3,1,
,,,,,,,,,,,,,,,,,199576,18,2022-01-28_14h48.04.687,lexical_decision_task_DD,2021.2.3,MacIntel,120.0048002,,,,,,,,,,,,0.2319,1,,,,,,,,,,,,,,,,,,,,,,,,0.048665365,-0.391380932,0,0,0,,,,,,,SPORT,C,m,m,./images/SPORT.png,,,,,,,m,1,0.2319,,,,,,,,0,47,47,48,1,
,,,,,,,,,,,,,,,,,199576,18,2022-01-28_14h48.04.687,lexical_decision_task_DD,2021.2.3,MacIntel,120.0048002,,,,,,,,,,,,0.1035,0,,,,,,,,,,,,,,,,,,,,,,,,0.048665365,-0.391380932,0,0,0,,,,,,,ENGINE,LB,z,m,./images/ENGINELB.png,,,,,,,m,0,0.1035,,,,,,,,0,48,48,122,1,
,,,,,,,,,,,,,,,,,199576,18,2022-01-28_14h48.04.687,lexical_decision_task_DD,2021.2.3,MacIntel,120.0048002,,,,,,,,,,,,0.1072,0,,,,,,,,,,,,,,,,,,,,,,,,0.048665365,-0.391380932,0,0,0,,,,,,,BAKER,C,z,m,./images/BAKER.png,,,,,,,m,0,0.1072,,,,,,,,0,49,49,147,1,
,,,,,,,,,,,,,,,,,199576,18,2022-01-28_14h48.04.687,lexical_decision_task_DD,2021.2.3,MacIntel,120.0048002,,,,,,,,,,,,0.1785,1,,,,,,,,,,,,,,,,,,,,,,,,0.048665365,-0.391380932,0,0,0,,,,,,,TOMATO,C,m,m,./images/TOMATO.png,,,,,,,m,1,0.1785,,,,,,,,0,50,50,0,1,
,,,,,,,,,,,,,,,,,199576,18,2022-01-28_14h48.04.687,lexical_decision_task_DD,2021.2.3,MacIntel,120.0048002,,,,,,,,,,,,0.2135,0,,,,,,,,,,,,,,,,,,,,,,,,0.048665365,-0.391380932,0,0,0,,,,,,,PEACH,LB,m,m,./images/PEACHLB.png,,,,,,,z,0,0.2135,,,,,,,,0,51,51,35,1,
,,,,,,,,,,,,,,,,,199576,18,2022-01-28_14h48.04.687,lexical_decision_task_DD,2021.2.3,MacIntel,120.0048002,,,,,,,,,,,,0.0916,1,,,,,,,,,,,,,,,,,,,,,,,,0.048665365,-0.391380932,0,0,0,,,,,,,MOTOR,HB,m,m,./images/MOTORHB.png,,,,,,,m,1,0.0916,,,,,,,,0,52,52,13,1,
,,,,,,,,,,,,,,,,,199576,18,2022-01-28_14h48.04.687,lexical_decision_task_DD,2021.2.3,MacIntel,120.0048002,,,,,,,,,,,,0.1963,1,,,,,,,,,,,,,,,,,,,,,,,,0.048665365,-0.391380932,0,0,0,,,,,,,RHINO,C,m,m,./images/RHINO.png,,,,,,,m,1,0.1963,,,,,,,,0,53,53,9,1,
,,,,,,,,,,,,,,,,,199576,18,2022-01-28_14h48.04.687,lexical_decision_task_DD,2021.2.3,MacIntel,120.0048002,,,,,,,,,,,,0.1303,0,,,,,,,,,,,,,,,,,,,,,,,,0.048665365,-0.391380932,0,0,0,,,,,,,LITTER,C,m,m,./images/LITTER.png,,,,,,,z,0,0.1303,,,,,,,,0,54,54,78,1,
,,,,,,,,,,,,,,,,,199576,18,2022-01-28_14h48.04.687,lexical_decision_task_DD,2021.2.3,MacIntel,120.0048002,,,,,,,,,,,,0.1694,0,,,,,,,,,,,,,,,,,,,,,,,,0.048665365,-0.391380932,0,0,0,,,,,,,PICKLE,LB,m,m,./images/PICKLELB.png,,,,,,,z,0,0.1694,,,,,,,,0,55,55,14,1,
,,,,,,,,,,,,,,,,,199576,18,2022-01-28_14h48.04.687,lexical_decision_task_DD,2021.2.3,MacIntel,120.0048002,,,,,,,,,,,,0.0895,0,,,,,,,,,,,,,,,,,,,,,,,,0.048665365,-0.391380932,0,0,0,,,,,,,STOOL,HB,z,m,./images/STOOLHB.png,,,,,,,m,0,0.0895,,,,,,,,0,56,56,127,1,
,,,,,,,,,,,,,,,,,199576,18,2022-01-28_14h48.04.687,lexical_decision_task_DD,2021.2.3,MacIntel,120.0048002,,,,,,,,,,,,0.4327,1,,,,,,,,,,,,,,,,,,,,,,,,0.048665365,-0.391380932,0,0,0,,,,,,,DOUGH,HB,m,m,./images/DOUGHHB.png,,,,,,,m,1,0.4327,,,,,,,,0,57,57,19,1,
,,,,,,,,,,,,,,,,,199576,18,2022-01-28_14h48.04.687,lexical_decision_task_DD,2021.2.3,MacIntel,120.0048002,,,,,,,,,,,,0.0331,1,,,,,,,,,,,,,,,,,,,,,,,,0.048665365,-0.391380932,0,0,0,,,,,,,MAMMAL,LB,z,m,./images/MAMMALLB.png,,,,,,,z,1,0.0331,,,,,,,,0,58,58,146,1,
,,,,,,,,,,,,,,,,,199576,18,2022-01-28_14h48.04.687,lexical_decision_task_DD,2021.2.3,MacIntel,120.0048002,,,,,,,,,,,,0.0875,1,,,,,,,,,,,,,,,,,,,,,,,,0.048665365,-0.391380932,0,0,0,,,,,,,FOLDER,C,m,m,./images/FOLDER.png,,,,,,,m,1,0.0875,,,,,,,,0,59,59,42,1,
,,,,,,,,,,,,,,,,,199576,18,2022-01-28_14h48.04.687,lexical_decision_task_DD,2021.2.3,MacIntel,120.0048002,,,,,,,,,,,,0.0637,0,,,,,,,,,,,,,,,,,,,,,,,,0.048665365,-0.391380932,0,0,0,,,,,,,CANYON,HB,m,m,./images/CANYONHB.png,,,,,,,z,0,0.0637,,,,,,,,0,60,60,34,1,
,,,,,,,,,,,,,,,,,199576,18,2022-01-28_14h48.04.687,lexical_decision_task_DD,2021.2.3,MacIntel,120.0048002,,,,,,,,,,,,0.1919,1,,,,,,,,,,,,,,,,,,,,,,,,0.048665365,-0.391380932,0,0,0,,,,,,,NOOSE,C,m,m,./images/NOOSE.png,,,,,,,m,1,0.1919,,,,,,,,0,61,61,72,1,
,,,,,,,,,,,,,,,,,199576,18,2022-01-28_14h48.04.687,lexical_decision_task_DD,2021.2.3,MacIntel,120.0048002,,,,,,,,,,,,0.0815,1,,,,,,,,,,,,,,,,,,,,,,,,0.048665365,-0.391380932,0,0,0,,,,,,,BUBBLE,LB,z,m,./images/BUBBLELB.png,,,,,,,z,1,0.0815,,,,,,,,0,62,62,155,1,
,,,,,,,,,,,,,,,,,199576,18,2022-01-28_14h48.04.687,lexical_decision_task_DD,2021.2.3,MacIntel,120.0048002,,,,,,,,,,,,0.0997,1,,,,,,,,,,,,,,,,,,,,,,,,0.048665365,-0.391380932,0,0,0,,,,,,,SWEAT,C,m,m,./images/SWEAT.png,,,,,,,m,1,0.0997,,,,,,,,0,63,63,66,1,
,,,,,,,,,,,,,,,,,199576,18,2022-01-28_14h48.04.687,lexical_decision_task_DD,2021.2.3,MacIntel,120.0048002,,,,,,,,,,,,0.2265,1,,,,,,,,,,,,,,,,,,,,,,,,0.048665365,-0.391380932,0,0,0,,,,,,,BEARD,LB,m,m,./images/BEARDLB.png,,,,,,,m,1,0.2265,,,,,,,,0,64,64,2,1,
,,,,,,,,,,,,,,,,,199576,18,2022-01-28_14h48.04.687,lexical_decision_task_DD,2021.2.3,MacIntel,120.0048002,,,,,,,,,,,,0.2159,0,,,,,,,,,,,,,,,,,,,,,,,,0.048665365,-0.391380932,0,0,0,,,,,,,BONNET,LB,m,m,./images/BONNETLB.png,,,,,,,z,0,0.2159,,,,,,,,0,65,65,11,1,
,,,,,,,,,,,,,,,,,199576,18,2022-01-28_14h48.04.687,lexical_decision_task_DD,2021.2.3,MacIntel,120.0048002,,,,,,,,,,,,0.0723,0,,,,,,,,,,,,,,,,,,,,,,,,0.048665365,-0.391380932,0,0,0,,,,,,,BAMBOO,LB,z,m,./images/BAMBOOLB.png,,,,,,,m,0,0.0723,,,,,,,,0,66,66,89,1,
,,,,,,,,,,,,,,,,,199576,18,2022-01-28_14h48.04.687,lexical_decision_task_DD,2021.2.3,MacIntel,120.0048002,,,,,,,,,,,,0.1347,1,,,,,,,,,,,,,,,,,,,,,,,,0.048665365,-0.391380932,0,0,0,,,,,,,ATTIC,C,m,m,./images/ATTIC.png,,,,,,,m,1,0.1347,,,,,,,,0,67,67,27,1,
,,,,,,,,,,,,,,,,,199576,18,2022-01-28_14h48.04.687,lexical_decision_task_DD,2021.2.3,MacIntel,120.0048002,,,,,,,,,,,,0.1603,1,,,,,,,,,,,,,,,,,,,,,,,,0.048665365,-0.391380932,0,0,0,,,,,,,JUMPER,LB,z,m,./images/JUMPERLB.png,,,,,,,z,1,0.1603,,,,,,,,0,68,68,158,1,
,,,,,,,,,,,,,,,,,199576,18,2022-01-28_14h48.04.687,lexical_decision_task_DD,2021.2.3,MacIntel,120.0048002,,,,,,,,,,,,0.1094,1,,,,,,,,,,,,,,,,,,,,,,,,0.048665365,-0.391380932,0,0,0,,,,,,,POODLE,C,m,m,./images/POODLE.png,,,,,,,m,1,0.1094,,,,,,,,0,69,69,81,1,
,,,,,,,,,,,,,,,,,199576,18,2022-01-28_14h48.04.687,lexical_decision_task_DD,2021.2.3,MacIntel,120.0048002,,,,,,,,,,,,0.1801,0,,,,,,,,,,,,,,,,,,,,,,,,0.048665365,-0.391380932,0,0,0,,,,,,,KIDNEY,C,m,m,./images/KIDNEY.png,,,,,,,z,0,0.1801,,,,,,,,0,70,70,21,1,
,,,,,,,,,,,,,,,,,199576,18,2022-01-28_14h48.04.687,lexical_decision_task_DD,2021.2.3,MacIntel,120.0048002,,,,,,,,,,,,0.164,1,,,,,,,,,,,,,,,,,,,,,,,,0.048665365,-0.391380932,0,0,0,,,,,,,FALCON,HB,m,m,./images/FALCONHB.png,,,,,,,m,1,0.164,,,,,,,,0,71,71,28,1,
,,,,,,,,,,,,,,,,,199576,18,2022-01-28_14h48.04.687,lexical_decision_task_DD,2021.2.3,MacIntel,120.0048002,,,,,,,,,,,,0.1881,1,,,,,,,,,,,,,,,,,,,,,,,,0.048665365,-0.391380932,0,0,0,,,,,,,WALRUS,LB,m,m,./images/WALRUSLB.png,,,,,,,m,1,0.1881,,,,,,,,0,72,72,23,1,
,,,,,,,,,,,,,,,,,199576,18,2022-01-28_14h48.04.687,lexical_decision_task_DD,2021.2.3,MacIntel,120.0048002,,,,,,,,,,,,0.7549,0,,,,,,,,,,,,,,,,,,,,,,,,0.048665365,-0.391380932,0,0,0,,,,,,,PARCEL,C,z,m,./images/PARCEL.png,,,,,,,m,0,0.7549,,,,,,,,0,73,73,102,1,
,,,,,,,,,,,,,,,,,199576,18,2022-01-28_14h48.04.687,lexical_decision_task_DD,2021.2.3,MacIntel,120.0048002,,,,,,,,,,,,0.2077,0,,,,,,,,,,,,,,,,,,,,,,,,0.048665365,-0.391380932,0,0,0,,,,,,,CHERRY,C,z,m,./images/CHERRY.png,,,,,,,m,0,0.2077,,,,,,,,0,74,74,138,1,
,,,,,,,,,,,,,,,,,199576,18,2022-01-28_14h48.04.687,lexical_decision_task_DD,2021.2.3,MacIntel,120.0048002,,,,,,,,,,,,0.1463,1,,,,,,,,,,,,,,,,,,,,,,,,0.048665365,-0.391380932,0,0,0,,,,,,,BARREL,LB,m,m,./images/BARRELLB.png,,,,,,,m,1,0.1463,,,,,,,,0,75,75,32,1,
,,,,,,,,,,,,,,,,,199576,18,2022-01-28_14h48.04.687,lexical_decision_task_DD,2021.2.3,MacIntel,120.0048002,,,,,,,,,,,,0.216,0,,,,,,,,,,,,,,,,,,,,,,,,0.048665365,-0.391380932,0,0,0,,,,,,,BERRY,LB,m,m,./images/BERRYLB.png,,,,,,,z,0,0.216,,,,,,,,0,76,76,47,1,
,,,,,,,,,,,,,,,,,199576,18,2022-01-28_14h48.04.687,lexical_decision_task_DD,2021.2.3,MacIntel,120.0048002,,,,,,,,,,,,0.2631,1,,,,,,,,,,,,,,,,,,,,,,,,0.048665365,-0.391380932,0,0,0,,,,,,,GARDEN,HB,z,m,./images/GARDENHB.png,,,,,,,z,1,0.2631,,,,,,,,0,77,77,94,1,
,,,,,,,,,,,,,,,,,199576,18,2022-01-28_14h48.04.687,lexical_decision_task_DD,2021.2.3,MacIntel,120.0048002,,,,,,,,,,,,0.2327,1,,,,,,,,,,,,,,,,,,,,,,,,0.048665365,-0.391380932,0,0,0,,,,,,,BURIAL,LB,m,m,./images/BURIALLB.png,,,,,,,m,1,0.2327,,,,,,,,0,78,78,59,1,
,,,,,,,,,,,,,,,,,199576,18,2022-01-28_14h48.04.687,lexical_decision_task_DD,2021.2.3,MacIntel,120.0048002,,,,,,,,,,,,0.0646,1,,,,,,,,,,,,,,,,,,,,,,,,0.048665365,-0.391380932,0,0,0,,,,,,,TIGER,HB,z,m,./images/TIGERHB.png,,,,,,,z,1,0.0646,,,,,,,,0,79,79,121,1,
,,,,,,,,,,,,,,,,,199576,18,2022-01-28_14h48.04.687,lexical_decision_task_DD,2021.2.3,MacIntel,120.0048002,,,,,,,,,,,,0.0878,0,,,,,,,,,,,,,,,,,,,,,,,,0.048665365,-0.391380932,0,0,0,,,,,,,CLOUD,LB,z,m,./images/CLOUDLB.png,,,,,,,m,0,0.0878,,,,,,,,0,80,80,110,1,
,,,,,,,,,,,,,,,,,199576,18,2022-01-28_14h48.04.687,lexical_decision_task_DD,2021.2.3,MacIntel,120.0048002,,,,,,,,,,,,0.0536,0,,,,,,,,,,,,,,,,,,,,,,,,0.048665365,-0.391380932,0,0,0,,,,,,,INFANT,HB,m,m,./images/INFANTHB.png,,,,,,,z,0,0.0536,,,,,,,,0,81,81,76,1,
,,,,,,,,,,,,,,,,,199576,18,2022-01-28_14h48.04.687,lexical_decision_task_DD,2021.2.3,MacIntel,120.0048002,,,,,,,,,,,,0.6725,1,,,,,,,,,,,,,,,,,,,,,,,,0.048665365,-0.391380932,0,0,0,,,,,,,MUMMY,HB,z,m,./images/MUMMYHB.png,,,,,,,z,1,0.6725,,,,,,,,0,82,82,130,1,
,,,,,,,,,,,,,,,,,199576,18,2022-01-28_14h48.04.687,lexical_decision_task_DD,2021.2.3,MacIntel,120.0048002,,,,,,,,,,,,0.1833,1,,,,,,,,,,,,,,,,,,,,,,,,0.048665365,-0.391380932,0,0,0,space,,,,,,ONION,C,m,m,./images/ONION.png,,,,,,,m,1,0.1833,,,,,,,,0,83,83,51,1,1.1771
,,,,,,,,,,,,,,,,,199576,18,2022-01-28_14h48.04.687,lexical_decision_task_DD,2021.2.3,MacIntel,120.0048002,,,,,,,,,,,,0.2245,1,,,,,,,,,,,,,,,,,,,,,,,,0.048665365,-0.391380932,0,0,0,,,,,,,GRAIN,C,m,m,./images/GRAIN.png,,,,,,,m,1,0.2245,,,,,,,,0,84,84,75,1,
,,,,,,,,,,,,,,,,,199576,18,2022-01-28_14h48.04.687,lexical_decision_task_DD,2021.2.3,MacIntel,120.0048002,,,,,,,,,,,,0.1588,0,,,,,,,,,,,,,,,,,,,,,,,,0.048665365,-0.391380932,0,0,0,,,,,,,QUILL,HB,m,m,./images/QUILLHB.png,,,,,,,z,0,0.1588,,,,,,,,0,85,85,31,1,
,,,,,,,,,,,,,,,,,199576,18,2022-01-28_14h48.04.687,lexical_decision_task_DD,2021.2.3,MacIntel,120.0048002,,,,,,,,,,,,0.1807,1,,,,,,,,,,,,,,,,,,,,,,,,0.048665365,-0.391380932,0,0,0,,,,,,,PIMPLE,LB,m,m,./images/PIMPLELB.png,,,,,,,m,1,0.1807,,,,,,,,0,86,86,71,1,
,,,,,,,,,,,,,,,,,199576,18,2022-01-28_14h48.04.687,lexical_decision_task_DD,2021.2.3,MacIntel,120.0048002,,,,,,,,,,,,0.1434,0,,,,,,,,,,,,,,,,,,,,,,,,0.048665365,-0.391380932,0,0,0,,,,,,,PACKET,LB,m,m,./images/PACKETLB.png,,,,,,,z,0,0.1434,,,,,,,,0,87,87,56,1,
,,,,,,,,,,,,,,,,,199576,18,2022-01-28_14h48.04.687,lexical_decision_task_DD,2021.2.3,MacIntel,120.0048002,,,,,,,,,,,,0.247,0,,,,,,,,,,,,,,,,,,,,,,,,0.048665365,-0.391380932,0,0,0,,,,,,,PLANK,HB,m,m,./images/PLANKHB.png,,,,,,,z,0,0.247,,,,,,,,0,88,88,1,1,
,,,,,,,,,,,,,,,,,199576,18,2022-01-28_14h48.04.687,lexical_decision_task_DD,2021.2.3,MacIntel,120.0048002,,,,,,,,,,,,0.1458,1,,,,,,,,,,,,,,,,,,,,,,,,0.048665365,-0.391380932,0,0,0,,,,,,,DIVER,C,z,m,./images/DIVER.png,,,,,,,z,1,0.1458,,,,,,,,0,89,89,93,1,
,,,,,,,,,,,,,,,,,199576,18,2022-01-28_14h48.04.687,lexical_decision_task_DD,2021.2.3,MacIntel,120.0048002,,,,,,,,,,,,0.0005,1,,,,,,,,,,,,,,,,,,,,,,,,0.048665365,-0.391380932,0,0,0,,,,,,,SPINE,LB,z,m,./images/SPINELB.png,,,,,,,z,1,0.0005,,,,,,,,0,90,90,149,1,
,,,,,,,,,,,,,,,,,199576,18,2022-01-28_14h48.04.687,lexical_decision_task_DD,2021.2.3,MacIntel,120.0048002,,,,,,,,,,,,0.2323,0,,,,,,,,,,,,,,,,,,,,,,,,0.048665365,-0.391380932,0,0,0,,,,,,,COUCH,LB,m,m,./images/COUCHLB.png,,,,,,,z,0,0.2323,,,,,,,,0,91,91,77,1,
,,,,,,,,,,,,,,,,,199576,18,2022-01-28_14h48.04.687,lexical_decision_task_DD,2021.2.3,MacIntel,120.0048002,,,,,,,,,,,,0.1574,1,,,,,,,,,,,,,,,,,,,,,,,,0.048665365,-0.391380932,0,0,0,,,,,,,WALNUT,C,z,m,./images/WALNUT.png,,,,,,,z,1,0.1574,,,,,,,,0,92,92,84,1,
,,,,,,,,,,,,,,,,,199576,18,2022-01-28_14h48.04.687,lexical_decision_task_DD,2021.2.3,MacIntel,120.0048002,,,,,,,,,,,,0.2738,1,,,,,,,,,,,,,,,,,,,,,,,,0.048665365,-0.391380932,0,0,0,,,,,,,ARTIST,HB,z,m,./images/ARTISTHB.png,,,,,,,z,1,0.2738,,,,,,,,0,93,93,145,1,
,,,,,,,,,,,,,,,,,199576,18,2022-01-28_14h48.04.687,lexical_decision_task_DD,2021.2.3,MacIntel,120.0048002,,,,,,,,,,,,0.1148,1,,,,,,,,,,,,,,,,,,,,,,,,0.048665365,-0.391380932,0,0,0,,,,,,,SNAKE,HB,z,m,./images/SNAKEHB.png,,,,,,,z,1,0.1148,,,,,,,,0,94,94,124,1,
,,,,,,,,,,,,,,,,,199576,18,2022-01-28_14h48.04.687,lexical_decision_task_DD,2021.2.3,MacIntel,120.0048002,,,,,,,,,,,,0.1895,1,,,,,,,,,,,,,,,,,,,,,,,,0.048665365,-0.391380932,0,0,0,,,,,,,DANCER,C,z,m,./images/DANCER.png,,,,,,,z,1,0.1895,,,,,,,,0,95,95,105,1,
,,,,,,,,,,,,,,,,,199576,18,2022-01-28_14h48.04.687,lexical_decision_task_DD,2021.2.3,MacIntel,120.0048002,,,,,,,,,,,,0.5917,1,,,,,,,,,,,,,,,,,,,,,,,,0.048665365,-0.391380932,0,0,0,,,,,,,COLLAR,C,z,m,./images/COLLAR.png,,,,,,,z,1,0.5917,,,,,,,,0,96,96,99,1,
,,,,,,,,,,,,,,,,,199576,18,2022-01-28_14h48.04.687,lexical_decision_task_DD,2021.2.3,MacIntel,120.0048002,,,,,,,,,,,,0.19,0,,,,,,,,,,,,,,,,,,,,,,,,0.048665365,-0.391380932,0,0,0,,,,,,,JUNGLE,LB,m,m,./images/JUNGLELB.png,,,,,,,z,0,0.19,,,,,,,,0,97,97,83,1,
,,,,,,,,,,,,,,,,,199576,18,2022-01-28_14h48.04.687,lexical_decision_task_DD,2021.2.3,MacIntel,120.0048002,,,,,,,,,,,,0.1382,1,,,,,,,,,,,,,,,,,,,,,,,,0.048665365,-0.391380932,0,0,0,,,,,,,BUTTER,C,z,m,./images/BUTTER.png,,,,,,,z,1,0.1382,,,,,,,,0,98,98,111,1,
,,,,,,,,,,,,,,,,,199576,18,2022-01-28_14h48.04.687,lexical_decision_task_DD,2021.2.3,MacIntel,120.0048002,,,,,,,,,,,,0.4619,1,,,,,,,,,,,,,,,,,,,,,,,,0.048665365,-0.391380932,0,0,0,,,,,,,GRAPE,HB,z,m,./images/GRAPEHB.png,,,,,,,z,1,0.4619,,,,,,,,0,99,99,100,1,
,,,,,,,,,,,,,,,,,199576,18,2022-01-28_14h48.04.687,lexical_decision_task_DD,2021.2.3,MacIntel,120.0048002,,,,,,,,,,,,0.2595,1,,,,,,,,,,,,,,,,,,,,,,,,0.048665365,-0.391380932,0,0,0,,,,,,,DONKEY,HB,z,m,./images/DONKEYHB.png,,,,,,,z,1,0.2595,,,,,,,,0,100,100,103,1,
,,,,,,,,,,,,,,,,,199576,18,2022-01-28_14h48.04.687,lexical_decision_task_DD,2021.2.3,MacIntel,120.0048002,,,,,,,,,,,,0.2746,0,,,,,,,,,,,,,,,,,,,,,,,,0.048665365,-0.391380932,0,0,0,,,,,,,RAZOR,HB,z,m,./images/RAZORHB.png,,,,,,,m,0,0.2746,,,,,,,,0,101,101,118,1,
,,,,,,,,,,,,,,,,,199576,18,2022-01-28_14h48.04.687,lexical_decision_task_DD,2021.2.3,MacIntel,120.0048002,,,,,,,,,,,,0.2986,0,,,,,,,,,,,,,,,,,,,,,,,,0.048665365,-0.391380932,0,0,0,,,,,,,SAUNA,C,z,m,./images/SAUNA.png,,,,,,,m,0,0.2986,,,,,,,,0,102,102,117,1,
,,,,,,,,,,,,,,,,,199576,18,2022-01-28_14h48.04.687,lexical_decision_task_DD,2021.2.3,MacIntel,120.0048002,,,,,,,,,,,,0.2502,1,,,,,,,,,,,,,,,,,,,,,,,,0.048665365,-0.391380932,0,0,0,,,,,,,PASTA,LB,m,m,./images/PASTALB.png,,,,,,,m,1,0.2502,,,,,,,,0,103,103,5,1,
,,,,,,,,,,,,,,,,,199576,18,2022-01-28_14h48.04.687,lexical_decision_task_DD,2021.2.3,MacIntel,120.0048002,,,,,,,,,,,,0.2585,1,,,,,,,,,,,,,,,,,,,,,,,,0.048665365,-0.391380932,0,0,0,,,,,,,CRADLE,LB,m,m,./images/CRADLELB.png,,,,,,,m,1,0.2585,,,,,,,,0,104,104,20,1,
,,,,,,,,,,,,,,,,,199576,18,2022-01-28_14h48.04.687,lexical_decision_task_DD,2021.2.3,MacIntel,120.0048002,,,,,,,,,,,,0.1844,0,,,,,,,,,,,,,,,,,,,,,,,,0.048665365,-0.391380932,0,0,0,,,,,,,SWING,HB,m,m,./images/SWINGHB.png,,,,,,,z,0,0.1844,,,,,,,,0,105,105,40,1,
,,,,,,,,,,,,,,,,,199576,18,2022-01-28_14h48.04.687,lexical_decision_task_DD,2021.2.3,MacIntel,120.0048002,,,,,,,,,,,,0.2629,0,,,,,,,,,,,,,,,,,,,,,,,,0.048665365,-0.391380932,0,0,0,,,,,,,PEBBLE,HB,z,m,./images/PEBBLEHB.png,,,,,,,m,0,0.2629,,,,,,,,0,106,106,166,1,
,,,,,,,,,,,,,,,,,199576,18,2022-01-28_14h48.04.687,lexical_decision_task_DD,2021.2.3,MacIntel,120.0048002,,,,,,,,,,,,0.1572,0,,,,,,,,,,,,,,,,,,,,,,,,0.048665365,-0.391380932,0,0,0,,,,,,,CASINO,HB,z,m,./images/CASINOHB.png,,,,,,,m,0,0.1572,,,,,,,,0,107,107,112,1,
,,,,,,,,,,,,,,,,,199576,18,2022-01-28_14h48.04.687,lexical_decision_task_DD,2021.2.3,MacIntel,120.0048002,,,,,,,,,,,,0.1186,0,,,,,,,,,,,,,,,,,,,,,,,,0.048665365,-0.391380932,0,0,0,,,,,,,HAMMER,C,z,m,./images/HAMMER.png,,,,,,,m,0,0.1186,,,,,,,,0,108,108,159,1,
,,,,,,,,,,,,,,,,,199576,18,2022-01-28_14h48.04.687,lexical_decision_task_DD,2021.2.3,MacIntel,120.0048002,,,,,,,,,,,,0.2065,1,,,,,,,,,,,,,,,,,,,,,,,,0.048665365,-0.391380932,0,0,0,,,,,,,THROAT,C,m,m,./images/THROAT.png,,,,,,,m,1,0.2065,,,,,,,,0,109,109,36,1,
,,,,,,,,,,,,,,,,,199576,18,2022-01-28_14h48.04.687,lexical_decision_task_DD,2021.2.3,MacIntel,120.0048002,,,,,,,,,,,,0.2561,0,,,,,,,,,,,,,,,,,,,,,,,,0.048665365,-0.391380932,0,0,0,,,,,,,CRATER,C,z,m,./images/CRATER.png,,,,,,,m,0,0.2561,,,,,,,,0,110,110,87,1,
,,,,,,,,,,,,,,,,,199576,18,2022-01-28_14h48.04.687,lexical_decision_task_DD,2021.2.3,MacIntel,120.0048002,,,,,,,,,,,,0.1653,0,,,,,,,,,,,,,,,,,,,,,,,,0.048665365,-0.391380932,0,0,0,,,,,,,SAUCE,C,z,m,./images/SAUCE.png,,,,,,,m,0,0.1653,,,,,,,,0,111,111,135,1,
,,,,,,,,,,,,,,,,,199576,18,2022-01-28_14h48.04.687,lexical_decision_task_DD,2021.2.3,MacIntel,120.0048002,,,,,,,,,,,,0.2813,0,,,,,,,,,,,,,,,,,,,,,,,,0.048665365,-0.391380932,0,0,0,,,,,,,SKIING,LB,m,m,./images/SKIINGLB.png,,,,,,,z,0,0.2813,,,,,,,,0,112,112,17,1,
,,,,,,,,,,,,,,,,,199576,18,2022-01-28_14h48.04.687,lexical_decision_task_DD,2021.2.3,MacIntel,120.0048002,,,,,,,,,,,,0.107,1,,,,,,,,,,,,,,,,,,,,,,,,0.048665365,-0.391380932,0,0,0,,,,,,,TRIPOD,C,m,m,./images/TRIPOD.png,,,,,,,m,1,0.107,,,,,,,,0,113,113,54,1,
,,,,,,,,,,,,,,,,,199576,18,2022-01-28_14h48.04.687,lexical_decision_task_DD,2021.2.3,MacIntel,120.0048002,,,,,,,,,,,,0.2642,1,,,,,,,,,,,,,,,,,,,,,,,,0.048665365,-0.391380932,0,0,0,,,,,,,HEATER,LB,z,m,./images/HEATERLB.png,,,,,,,z,1,0.2642,,,,,,,,0,114,114,140,1,
,,,,,,,,,,,,,,,,,199576,18,2022-01-28_14h48.04.687,lexical_decision_task_DD,2021.2.3,MacIntel,120.0048002,,,,,,,,,,,,0.3644,0,,,,,,,,,,,,,,,,,,,,,,,,0.048665365,-0.391380932,0,0,0,,,,,,,PARADE,LB,z,m,./images/PARADELB.png,,,,,,,m,0,0.3644,,,,,,,,0,115,115,101,1,
,,,,,,,,,,,,,,,,,199576,18,2022-01-28_14h48.04.687,lexical_decision_task_DD,2021.2.3,MacIntel,120.0048002,,,,,,,,,,,,0.1103,1,,,,,,,,,,,,,,,,,,,,,,,,0.048665365,-0.391380932,0,0,0,,,,,,,GRANNY,LB,z,m,./images/GRANNYLB.png,,,,,,,z,1,0.1103,,,,,,,,0,116,116,104,1,
,,,,,,,,,,,,,,,,,199576,18,2022-01-28_14h48.04.687,lexical_decision_task_DD,2021.2.3,MacIntel,120.0048002,,,,,,,,,,,,0.1161,1,,,,,,,,,,,,,,,,,,,,,,,,0.048665365,-0.391380932,0,0,0,,,,,,,MUSCLE,HB,m,m,./images/MUSCLEHB.png,,,,,,,m,1,0.1161,,,,,,,,0,117,117,4,1,
,,,,,,,,,,,,,,,,,199576,18,2022-01-28_14h48.04.687,lexical_decision_task_DD,2021.2.3,MacIntel,120.0048002,,,,,,,,,,,,0.3367,0,,,,,,,,,,,,,,,,,,,,,,,,0.048665365,-0.391380932,0,0,0,,,,,,,WRIST,HB,m,m,./images/WRISTHB.png,,,,,,,z,0,0.3367,,,,,,,,0,118,118,25,1,
,,,,,,,,,,,,,,,,,199576,18,2022-01-28_14h48.04.687,lexical_decision_task_DD,2021.2.3,MacIntel,120.0048002,,,,,,,,,,,,0.0734,1,,,,,,,,,,,,,,,,,,,,,,,,0.048665365,-0.391380932,0,0,0,,,,,,,FARMER,LB,m,m,./images/FARMERLB.png,,,,,,,m,1,0.0734,,,,,,,,0,119,119,65,1,
,,,,,,,,,,,,,,,,,199576,18,2022-01-28_14h48.04.687,lexical_decision_task_DD,2021.2.3,MacIntel,120.0048002,,,,,,,,,,,,0.2308,0,,,,,,,,,,,,,,,,,,,,,,,,0.048665365,-0.391380932,0,0,0,,,,,,,PEARL,HB,m,m,./images/PEARLHB.png,,,,,,,z,0,0.2308,,,,,,,,0,120,120,46,1,
,,,,,,,,,,,,,,,,,199576,18,2022-01-28_14h48.04.687,lexical_decision_task_DD,2021.2.3,MacIntel,120.0048002,,,,,,,,,,,,0.189,1,,,,,,,,,,,,,,,,,,,,,,,,0.048665365,-0.391380932,0,0,0,,,,,,,MOOSE,C,m,m,./images/MOOSE.png,,,,,,,m,1,0.189,,,,,,,,0,121,121,57,1,
,,,,,,,,,,,,,,,,,199576,18,2022-01-28_14h48.04.687,lexical_decision_task_DD,2021.2.3,MacIntel,120.0048002,,,,,,,,,,,,0.2389,0,,,,,,,,,,,,,,,,,,,,,,,,0.048665365,-0.391380932,0,0,0,,,,,,,GLOVE,HB,z,m,./images/GLOVEHB.png,,,,,,,m,0,0.2389,,,,,,,,0,122,122,157,1,
,,,,,,,,,,,,,,,,,199576,18,2022-01-28_14h48.04.687,lexical_decision_task_DD,2021.2.3,MacIntel,120.0048002,,,,,,,,,,,,0.0564,1,,,,,,,,,,,,,,,,,,,,,,,,0.048665365,-0.391380932,0,0,0,,,,,,,CANDLE,HB,m,m,./images/CANDLEHB.png,,,,,,,m,1,0.0564,,,,,,,,0,123,123,61,1,
,,,,,,,,,,,,,,,,,199576,18,2022-01-28_14h48.04.687,lexical_decision_task_DD,2021.2.3,MacIntel,120.0048002,,,,,,,,,,,,0.1481,0,,,,,,,,,,,,,,,,,,,,,,,,0.048665365,-0.391380932,0,0,0,,,,,,,PLANET,LB,z,m,./images/PLANETLB.png,,,,,,,m,0,0.1481,,,,,,,,0,124,124,164,1,
,,,,,,,,,,,,,,,,,199576,18,2022-01-28_14h48.04.687,lexical_decision_task_DD,2021.2.3,MacIntel,120.0048002,,,,,,,,,,,,0.0967,0,,,,,,,,,,,,,,,,,,,,,,,,0.048665365,-0.391380932,0,0,0,space,,,,,,MIDGET,HB,z,m,./images/MIDGETHB.png,,,,,,,m,0,0.0967,,,,,,,,0,125,125,160,1,0.8626
,,,,,,,,,,,,,,,,,199576,18,2022-01-28_14h48.04.687,lexical_decision_task_DD,2021.2.3,MacIntel,120.0048002,,,,,,,,,,,,0.0884,1,,,,,,,,,,,,,,,,,,,,,,,,0.048665365,-0.391380932,0,0,0,,,,,,,FLESH,C,z,m,./images/FLESH.png,,,,,,,z,1,0.0884,,,,,,,,0,126,126,108,1,
,,,,,,,,,,,,,,,,,199576,18,2022-01-28_14h48.04.687,lexical_decision_task_DD,2021.2.3,MacIntel,120.0048002,,,,,,,,,,,,0.1155,0,,,,,,,,,,,,,,,,,,,,,,,,0.048665365,-0.391380932,0,0,0,,,,,,,POKER,HB,z,m,./images/POKERHB.png,,,,,,,m,0,0.1155,,,,,,,,0,127,127,151,1,
,,,,,,,,,,,,,,,,,199576,18,2022-01-28_14h48.04.687,lexical_decision_task_DD,2021.2.3,MacIntel,120.0048002,,,,,,,,,,,,0.1313,1,,,,,,,,,,,,,,,,,,,,,,,,0.048665365,-0.391380932,0,0,0,,,,,,,SMOKER,LB,m,m,./images/SMOKERLB.png,,,,,,,m,1,0.1313,,,,,,,,0,128,128,26,1,
,,,,,,,,,,,,,,,,,199576,18,2022-01-28_14h48.04.687,lexical_decision_task_DD,2021.2.3,MacIntel,120.0048002,,,,,,,,,,,,0.0057,1,,,,,,,,,,,,,,,,,,,,,,,,0.048665365,-0.391380932,0,0,0,,,,,,,STORM,C,m,m,./images/STORM.png,,,,,,,m,1,0.0057,,,,,,,,0,129,129,30,1,
,,,,,,,,,,,,,,,,,199576,18,2022-01-28_14h48.04.687,lexical_decision_task_DD,2021.2.3,MacIntel,120.0048002,,,,,,,,,,,,0.167,0,,,,,,,,,,,,,,,,,,,,,,,,0.048665365,-0.391380932,0,0,0,,,,,,,MELON,HB,m,m,./images/MELONHB.png,,,,,,,z,0,0.167,,,,,,,,0,130,130,22,1,
,,,,,,,,,,,,,,,,,199576,18,2022-01-28_14h48.04.687,lexical_decision_task_DD,2021.2.3,MacIntel,120.0048002,,,,,,,,,,,,0.1183,1,,,,,,,,,,,,,,,,,,,,,,,,0.048665365,-0.391380932,0,0,0,,,,,,,TOWEL,HB,z,m,./images/TOWELHB.png,,,,,,,z,1,0.1183,,,,,,,,0,131,131,85,1,
,,,,,,,,,,,,,,,,,199576,18,2022-01-28_14h48.04.687,lexical_decision_task_DD,2021.2.3,MacIntel,120.0048002,,,,,,,,,,,,0.0299,0,,,,,,,,,,,,,,,,,,,,,,,,0.048665365,-0.391380932,0,0,0,,,,,,,FLASK,C,z,m,./images/FLASK.png,,,,,,,m,0,0.0299,,,,,,,,0,132,132,156,1,
,,,,,,,,,,,,,,,,,199576,18,2022-01-28_14h48.04.687,lexical_decision_task_DD,2021.2.3,MacIntel,120.0048002,,,,,,,,,,,,0.1909,1,,,,,,,,,,,,,,,,,,,,,,,,0.048665365,-0.391380932,0,0,0,,,,,,,WHEEL,LB,z,m,./images/WHEELLB.png,,,,,,,z,1,0.1909,,,,,,,,0,133,133,161,1,
,,,,,,,,,,,,,,,,,199576,18,2022-01-28_14h48.04.687,lexical_decision_task_DD,2021.2.3,MacIntel,120.0048002,,,,,,,,,,,,0.0708,0,,,,,,,,,,,,,,,,,,,,,,,,0.048665365,-0.391380932,0,0,0,,,,,,,BRIDE,HB,z,m,./images/BRIDEHB.png,,,,,,,m,0,0.0708,,,,,,,,0,134,134,148,1,
,,,,,,,,,,,,,,,,,199576,18,2022-01-28_14h48.04.687,lexical_decision_task_DD,2021.2.3,MacIntel,120.0048002,,,,,,,,,,,,0.1448,1,,,,,,,,,,,,,,,,,,,,,,,,0.048665365,-0.391380932,0,0,0,,,,,,,MONKEY,C,z,m,./images/MONKEY.png,,,,,,,z,1,0.1448,,,,,,,,0,135,135,129,1,
,,,,,,,,,,,,,,,,,199576,18,2022-01-28_14h48.04.687,lexical_decision_task_DD,2021.2.3,MacIntel,120.0048002,,,,,,,,,,,,0.1211,0,,,,,,,,,,,,,,,,,,,,,,,,0.048665365,-0.391380932,0,0,0,,,,,,,HOCKEY,LB,z,m,./images/HOCKEYLB.png,,,,,,,m,0,0.1211,,,,,,,,0,136,136,116,1,
,,,,,,,,,,,,,,,,,199576,18,2022-01-28_14h48.04.687,lexical_decision_task_DD,2021.2.3,MacIntel,120.0048002,,,,,,,,,,,,0.2417,1,,,,,,,,,,,,,,,,,,,,,,,,0.048665365,-0.391380932,0,0,0,,,,,,,STATUE,C,z,m,./images/STATUE.png,,,,,,,z,1,0.2417,,,,,,,,0,137,137,150,1,
,,,,,,,,,,,,,,,,,199576,18,2022-01-28_14h48.04.687,lexical_decision_task_DD,2021.2.3,MacIntel,120.0048002,,,,,,,,,,,,0.0383,1,,,,,,,,,,,,,,,,,,,,,,,,0.048665365,-0.391380932,0,0,0,,,,,,,CEMENT,LB,m,m,./images/CEMENTLB.png,,,,,,,m,1,0.0383,,,,,,,,0,138,138,74,1,
,,,,,,,,,,,,,,,,,199576,18,2022-01-28_14h48.04.687,lexical_decision_task_DD,2021.2.3,MacIntel,120.0048002,,,,,,,,,,,,0.088,1,,,,,,,,,,,,,,,,,,,,,,,,0.048665365,-0.391380932,0,0,0,,,,,,,BUNNY,HB,z,m,./images/BUNNYHB.png,,,,,,,z,1,0.088,,,,,,,,0,139,139,97,1,
,,,,,,,,,,,,,,,,,199576,18,2022-01-28_14h48.04.687,lexical_decision_task_DD,2021.2.3,MacIntel,120.0048002,,,,,,,,,,,,0.1478,1,,,,,,,,,,,,,,,,,,,,,,,,0.048665365,-0.391380932,0,0,0,,,,,,,BRUSH,LB,z,m,./images/BRUSHLB.png,,,,,,,z,1,0.1478,,,,,,,,0,140,140,143,1,
,,,,,,,,,,,,,,,,,199576,18,2022-01-28_14h48.04.687,lexical_decision_task_DD,2021.2.3,MacIntel,120.0048002,,,,,,,,,,,,0.2469,0,,,,,,,,,,,,,,,,,,,,,,,,0.048665365,-0.391380932,0,0,0,,,,,,,BISHOP,HB,z,m,./images/BISHOPHB.png,,,,,,,m,0,0.2469,,,,,,,,0,141,141,133,1,
,,,,,,,,,,,,,,,,,199576,18,2022-01-28_14h48.04.687,lexical_decision_task_DD,2021.2.3,MacIntel,120.0048002,,,,,,,,,,,,0.2249,1,,,,,,,,,,,,,,,,,,,,,,,,0.048665365,-0.391380932,0,0,0,,,,,,,WAGON,HB,z,m,./images/WAGONHB.png,,,,,,,z,1,0.2249,,,,,,,,0,142,142,91,1,
,,,,,,,,,,,,,,,,,199576,18,2022-01-28_14h48.04.687,lexical_decision_task_DD,2021.2.3,MacIntel,120.0048002,,,,,,,,,,,,0.2939,0,,,,,,,,,,,,,,,,,,,,,,,,0.048665365,-0.391380932,0,0,0,,,,,,,DESERT,HB,z,m,./images/DESERTHB.png,,,,,,,m,0,0.2939,,,,,,,,0,143,143,136,1,
,,,,,,,,,,,,,,,,,199576,18,2022-01-28_14h48.04.687,lexical_decision_task_DD,2021.2.3,MacIntel,120.0048002,,,,,,,,,,,,0.1534,1,,,,,,,,,,,,,,,,,,,,,,,,0.048665365,-0.391380932,0,0,0,,,,,,,LAGOON,LB,z,m,./images/LAGOONLB.png,,,,,,,z,1,0.1534,,,,,,,,0,144,144,131,1,
,,,,,,,,,,,,,,,,,199576,18,2022-01-28_14h48.04.687,lexical_decision_task_DD,2021.2.3,MacIntel,120.0048002,,,,,,,,,,,,0.2648,1,,,,,,,,,,,,,,,,,,,,,,,,0.048665365,-0.391380932,0,0,0,,,,,,,KITTEN,C,m,m,./images/KITTEN.png,,,,,,,m,1,0.2648,,,,,,,,0,145,145,45,1,
,,,,,,,,,,,,,,,,,199576,18,2022-01-28_14h48.04.687,lexical_decision_task_DD,2021.2.3,MacIntel,120.0048002,,,,,,,,,,,,0.1619,0,,,,,,,,,,,,,,,,,,,,,,,,0.048665365,-0.391380932,0,0,0,,,,,,,SUNSET,HB,m,m,./images/SUNSETHB.png,,,,,,,z,0,0.1619,,,,,,,,0,146,146,82,1,
,,,,,,,,,,,,,,,,,199576,18,2022-01-28_14h48.04.687,lexical_decision_task_DD,2021.2.3,MacIntel,120.0048002,,,,,,,,,,,,0.1226,1,,,,,,,,,,,,,,,,,,,,,,,,0.048665365,-0.391380932,0,0,0,,,,,,,GREASE,C,m,m,./images/GREASE.png,,,,,,,m,1,0.1226,,,,,,,,0,147,147,15,1,
,,,,,,,,,,,,,,,,,199576,18,2022-01-28_14h48.04.687,lexical_decision_task_DD,2021.2.3,MacIntel,120.0048002,,,,,,,,,,,,0.1377,0,,,,,,,,,,,,,,,,,,,,,,,,0.048665365,-0.391380932,0,0,0,,,,,,,MOSQUE,HB,m,m,./images/MOSQUEHB.png,,,,,,,z,0,0.1377,,,,,,,,0,148,148,43,1,
,,,,,,,,,,,,,,,,,199576,18,2022-01-28_14h48.04.687,lexical_decision_task_DD,2021.2.3,MacIntel,120.0048002,,,,,,,,,,,,0.1154,1,,,,,,,,,,,,,,,,,,,,,,,,0.048665365,-0.391380932,0,0,0,,,,,,,CARPET,LB,m,m,./images/CARPETLB.png,,,,,,,m,1,0.1154,,,,,,,,0,149,149,53,1,
,,,,,,,,,,,,,,,,,199576,18,2022-01-28_14h48.04.687,lexical_decision_task_DD,2021.2.3,MacIntel,120.0048002,,,,,,,,,,,,0.3918,1,,,,,,,,,,,,,,,,,,,,,,,,0.048665365,-0.391380932,0,0,0,,,,,,,STRING,LB,m,m,./images/STRINGLB.png,,,,,,,m,1,0.3918,,,,,,,,0,150,150,41,1,
,,,,,,,,,,,,,,,,,199576,18,2022-01-28_14h48.04.687,lexical_decision_task_DD,2021.2.3,MacIntel,120.0048002,,,,,,,,,,,,0.1818,0,,,,,,,,,,,,,,,,,,,,,,,,0.048665365,-0.391380932,0,0,0,,,,,,,SCREW,C,m,m,./images/SCREW.png,,,,,,,z,0,0.1818,,,,,,,,0,151,151,24,1,
,,,,,,,,,,,,,,,,,199576,18,2022-01-28_14h48.04.687,lexical_decision_task_DD,2021.2.3,MacIntel,120.0048002,,,,,,,,,,,,0.1033,0,,,,,,,,,,,,,,,,,,,,,,,,0.048665365,-0.391380932,0,0,0,,,,,,,CLIFF,LB,z,m,./images/CLIFFLB.png,,,,,,,m,0,0.1033,,,,,,,,0,152,152,92,1,
,,,,,,,,,,,,,,,,,199576,18,2022-01-28_14h48.04.687,lexical_decision_task_DD,2021.2.3,MacIntel,120.0048002,,,,,,,,,,,,0.1796,1,,,,,,,,,,,,,,,,,,,,,,,,0.048665365,-0.391380932,0,0,0,,,,,,,CRUST,HB,m,m,./images/CRUSTHB.png,,,,,,,m,1,0.1796,,,,,,,,0,153,153,79,1,
,,,,,,,,,,,,,,,,,199576,18,2022-01-28_14h48.04.687,lexical_decision_task_DD,2021.2.3,MacIntel,120.0048002,,,,,,,,,,,,0.1751,0,,,,,,,,,,,,,,,,,,,,,,,,0.048665365,-0.391380932,0,0,0,,,,,,,SNACK,HB,m,m,./images/SNACKHB.png,,,,,,,z,0,0.1751,,,,,,,,0,154,154,73,1,
,,,,,,,,,,,,,,,,,199576,18,2022-01-28_14h48.04.687,lexical_decision_task_DD,2021.2.3,MacIntel,120.0048002,,,,,,,,,,,,0.4379,1,,,,,,,,,,,,,,,,,,,,,,,,0.048665365,-0.391380932,0,0,0,,,,,,,FERRY,C,z,m,./images/FERRY.png,,,,,,,z,1,0.4379,,,,,,,,0,155,155,141,1,
,,,,,,,,,,,,,,,,,199576,18,2022-01-28_14h48.04.687,lexical_decision_task_DD,2021.2.3,MacIntel,120.0048002,,,,,,,,,,,,0.2165,1,,,,,,,,,,,,,,,,,,,,,,,,0.048665365,-0.391380932,0,0,0,,,,,,,BABOON,HB,m,m,./images/BABOONHB.png,,,,,,,m,1,0.2165,,,,,,,,0,156,156,58,1,
,,,,,,,,,,,,,,,,,199576,18,2022-01-28_14h48.04.687,lexical_decision_task_DD,2021.2.3,MacIntel,120.0048002,,,,,,,,,,,,0.2456,0,,,,,,,,,,,,,,,,,,,,,,,,0.048665365,-0.391380932,0,0,0,,,,,,,BANNER,HB,m,m,./images/BANNERHB.png,,,,,,,z,0,0.2456,,,,,,,,0,157,157,52,1,
,,,,,,,,,,,,,,,,,199576,18,2022-01-28_14h48.04.687,lexical_decision_task_DD,2021.2.3,MacIntel,120.0048002,,,,,,,,,,,,0.1904,0,,,,,,,,,,,,,,,,,,,,,,,,0.048665365,-0.391380932,0,0,0,,,,,,,BOXER,HB,z,m,./images/BOXERHB.png,,,,,,,m,0,0.1904,,,,,,,,0,158,158,88,1,
,,,,,,,,,,,,,,,,,199576,18,2022-01-28_14h48.04.687,lexical_decision_task_DD,2021.2.3,MacIntel,120.0048002,,,,,,,,,,,,0.0383,0,,,,,,,,,,,,,,,,,,,,,,,,0.048665365,-0.391380932,0,0,0,,,,,,,LLAMA,LB,z,m,./images/LLAMALB.png,,,,,,,m,0,0.0383,,,,,,,,0,159,159,119,1,
,,,,,,,,,,,,,,,,,199576,18,2022-01-28_14h48.04.687,lexical_decision_task_DD,2021.2.3,MacIntel,120.0048002,,,,,,,,,,,,0.0073,1,,,,,,,,,,,,,,,,,,,,,,,,0.048665365,-0.391380932,0,0,0,,,,,,,ALLEY,HB,z,m,./images/ALLEYHB.png,,,,,,,z,1,0.0073,,,,,,,,0,160,160,139,1,
,,,,,,,,,,,,,,,,,199576,18,2022-01-28_14h48.04.687,lexical_decision_task_DD,2021.2.3,MacIntel,120.0048002,,,,,,,,,,,,0.108,0,,,,,,,,,,,,,,,,,,,,,,,,0.048665365,-0.391380932,0,0,0,,,,,,,PURSE,LB,m,m,./images/PURSELB.png,,,,,,,z,0,0.108,,,,,,,,0,161,161,62,1,
,,,,,,,,,,,,,,,,,199576,18,2022-01-28_14h48.04.687,lexical_decision_task_DD,2021.2.3,MacIntel,120.0048002,,,,,,,,,,,,0.0411,0,,,,,,,,,,,,,,,,,,,,,,,,0.048665365,-0.391380932,0,0,0,,,,,,,WEASEL,LB,m,m,./images/WEASELLB.png,,,,,,,z,0,0.0411,,,,,,,,0,162,162,80,1,
,,,,,,,,,,,,,,,,,199576,18,2022-01-28_14h48.04.687,lexical_decision_task_DD,2021.2.3,MacIntel,120.0048002,,,,,,,,,,,,0.2017,1,,,,,,,,,,,,,,,,,,,,,,,,0.048665365,-0.391380932,0,0,0,,,,,,,TULIP,LB,m,m,./images/TULIPLB.png,,,,,,,m,1,0.2017,,,,,,,,0,163,163,8,1,
,,,,,,,,,,,,,,,,,199576,18,2022-01-28_14h48.04.687,lexical_decision_task_DD,2021.2.3,MacIntel,120.0048002,,,,,,,,,,,,0.2045,0,,,,,,,,,,,,,,,,,,,,,,,,0.048665365,-0.391380932,0,0,0,,,,,,,MUFFIN,HB,m,m,./images/MUFFINHB.png,,,,,,,z,0,0.2045,,,,,,,,0,164,164,55,1,
,,,,,,,,,,,,,,,,,199576,18,2022-01-28_14h48.04.687,lexical_decision_task_DD,2021.2.3,MacIntel,120.0048002,,,,,,,,,,,,0.1623,1,,,,,,,,,,,,,,,,,,,,,,,,0.048665365,-0.391380932,0,0,0,,,,,,,DRUMS,HB,m,m,./images/DRUMSHB.png,,,,,,,m,1,0.1623,,,,,,,,0,165,165,49,1,
,,,,,,,,,,,,,,,,,199576,18,2022-01-28_14h48.04.687,lexical_decision_task_DD,2021.2.3,MacIntel,120.0048002,,,,,,,,,,,,0.2979,0,,,,,,,,,,,,,,,,,,,,,,,,0.048665365,-0.391380932,0,0,0,,,,,,,CLOWN,HB,z,m,./images/CLOWNHB.png,,,,,,,m,0,0.2979,,,,,,,,0,166,166,106,1,
,,,,,,,,,,,,,,,,,199576,18,2022-01-28_14h48.04.687,lexical_decision_task_DD,2021.2.3,MacIntel,120.0048002,,,,,,,,,,,,0.2739,1,,,,,,,,,,,,,,,,,,,,,,,,0.048665365,-0.391380932,0,0,0,,,,,,,TORCH,LB,m,m,./images/TORCHLB.png,,,,,,,m,1,0.2739,,,,,,,,0,167,167,68,1,
