key_resp.keys,instr_done_touch.x,instr_done_touch.y,instr_done_touch.leftButton,instr_done_touch.midButton,instr_done_touch.rightButton,instr_done_touch.clicked_name,instruction_pages.thisRepN,instruction_pages.thisTrialN,instruction_pages.thisN,instruction_pages.thisIndex,instruction_pages.ran,pageN,phase,instruct_text,has_image,instruct_image,participant,age,date,expName,psychopyVersion,OS,frameRate,key_resp.rt,response.keys,response.corr,response.rt,touch_resp.x,touch_resp.y,touch_resp.leftButton,touch_resp.midButton,touch_resp.rightButton,touch_resp.time,touch_resp.clicked_name,rt,corr,practrials.thisRepN,practrials.thisTrialN,practrials.thisN,practrials.thisIndex,practrials.ran,TrialID,Target,corrAns,end_of_practice_trials_pages.thisRepN,end_of_practice_trials_pages.thisTrialN,end_of_practice_trials_pages.thisN,end_of_practice_trials_pages.thisIndex,end_of_practice_trials_pages.ran,key_resp_2.keys,key_resp_2.corr,key_resp_2.rt,targ_click.x,targ_click.y,targ_click.leftButton,targ_click.midButton,targ_click.rightButton,targ_click.time,targ_click.clicked_name,break_done_touch.x,break_done_touch.y,break_done_touch.leftButton,break_done_touch.midButton,break_done_touch.rightButton,break_done_keyboard.keys,maintrials.thisRepN,maintrials.thisTrialN,maintrials.thisN,maintrials.thisIndex,maintrials.ran,string,blur,study,lex,stim_path,break_done_touch.clicked_name,test_instructions.thisRepN,test_instructions.thisTrialN,test_instructions.thisN,test_instructions.thisIndex,test_instructions.ran,key_resp_3.keys,key_resp_3.corr,key_resp_3.rt,test_click.x,test_click.y,test_click.leftButton,test_click.midButton,test_click.rightButton,test_click.time,test_click.clicked_name,test_phase.thisRepN,test_phase.thisTrialN,test_phase.thisN,test_phase.thisIndex,test_phase.ran
,0.049074088,-0.393518532,1,0,0,instr_done_button,0,0,0,0,1,1,instructions,"INSTRUCTIONS
At the start of each trial, look at the plus sign  (+) in the center of the screen.  This tells you that a trial is about to begin and where to look. Second, the plus sign will disappear and a string of letters will appear. Your task is to determine if the string of letters is a word or not. If the item is a word press the M key (on keyboard)  or touch the word button (phone/tablet).  If the item is not a word,  press the  Z key (on keyboard)  or touch the nonword button (on phone/tablet). 
Press the space bar or touch  continue.",0,,199657,19,2022-01-29_12h59.22.371,lexical_decision_task_DD_L5,2021.2.3,Win32,119.3032689,,,,,,,,,,,,,,,,,,,,,,,,,,,,,,,,,,,,,,,,,,,,,,,,,,,,,,,,,,,,,,,,,,,,,,,,,
space,0.090740755,-0.042592601,0,0,0,,0,1,1,1,1,2,instructions,"If your device has a keyboard, press the 'Z' key for nonwords and the 'M' key for words.





Press the space bar or touch the button below to continue.",0,keyboard-example.gif,199657,19,2022-01-29_12h59.22.371,lexical_decision_task_DD_L5,2021.2.3,Win32,119.3032689,9.4613,,,,,,,,,,,,,,,,,,,,,,,,,,,,,,,,,,,,,,,,,,,,,,,,,,,,,,,,,,,,,,,,,,,,,,,,
,0.109259274,-0.360185198,1,0,0,instr_done_button,0,2,2,2,1,3,instructions,"If you are using a touchscreen only device, use the buttons on the screen. Do not use the mouse.





Press the space bar or touch the button below to continue.",0,touchscreen-example.gif,199657,19,2022-01-29_12h59.22.371,lexical_decision_task_DD_L5,2021.2.3,Win32,119.3032689,,,,,,,,,,,,,,,,,,,,,,,,,,,,,,,,,,,,,,,,,,,,,,,,,,,,,,,,,,,,,,,,,,,,,,,,,
,0.109259274,-0.360185198,1,0,0,instr_done_button,0,3,3,3,1,4,instructions,"It is very important that you respond as quickly and accurately as possible, as each letter string will only be on the screen for two seconds. If you do not respond within this time, the message 'Too slow!' will be displayed and the experiment will progress to the next letter string. The first 20 trials will be practice trials and you will receive feedback on your answers. 

Press the space bar or touch the button below to start the practice trials.",0,,199657,19,2022-01-29_12h59.22.371,lexical_decision_task_DD_L5,2021.2.3,Win32,119.3032689,,,,,,,,,,,,,,,,,,,,,,,,,,,,,,,,,,,,,,,,,,,,,,,,,,,,,,,,,,,,,,,,,,,,,,,,,
,,,,,,,,,,,,,,,,,199657,19,2022-01-29_12h59.22.371,lexical_decision_task_DD_L5,2021.2.3,Win32,119.3032689,,m,1,2.2066,,,,,,,,2.2066,1,0,0,0,2,1,1001,ALMOND,m,,,,,,,,,,,,,,,,,,,,,,,,,,,,,,,,,,,,,,,,,,,,,,,,,,,,
,,,,,,,,,,,,,,,,,199657,19,2022-01-29_12h59.22.371,lexical_decision_task_DD_L5,2021.2.3,Win32,119.3032689,,z,1,3.4496,,,,,,,,3.4496,1,0,1,1,12,1,1001,SPRINY,z,,,,,,,,,,,,,,,,,,,,,,,,,,,,,,,,,,,,,,,,,,,,,,,,,,,,
,,,,,,,,,,,,,,,,,199657,19,2022-01-29_12h59.22.371,lexical_decision_task_DD_L5,2021.2.3,Win32,119.3032689,,z,1,1.9242,,,,,,,,1.9242,1,0,2,2,14,1,1001,THRALE,z,,,,,,,,,,,,,,,,,,,,,,,,,,,,,,,,,,,,,,,,,,,,,,,,,,,,
,,,,,,,,,,,,,,,,,199657,19,2022-01-29_12h59.22.371,lexical_decision_task_DD_L5,2021.2.3,Win32,119.3032689,,m,1,0.845,,,,,,,,0.845,1,0,3,3,0,1,1001,UTOPIA,m,,,,,,,,,,,,,,,,,,,,,,,,,,,,,,,,,,,,,,,,,,,,,,,,,,,,
,,,,,,,,,,,,,,,,,199657,19,2022-01-29_12h59.22.371,lexical_decision_task_DD_L5,2021.2.3,Win32,119.3032689,,z,1,1.3643,,,,,,,,1.3643,1,0,4,4,10,1,1001,INLADE,z,,,,,,,,,,,,,,,,,,,,,,,,,,,,,,,,,,,,,,,,,,,,,,,,,,,,
,,,,,,,,,,,,,,,,,199657,19,2022-01-29_12h59.22.371,lexical_decision_task_DD_L5,2021.2.3,Win32,119.3032689,,m,1,0.9095,,,,,,,,0.9095,1,0,5,5,4,1,1001,SQUEAK,m,,,,,,,,,,,,,,,,,,,,,,,,,,,,,,,,,,,,,,,,,,,,,,,,,,,,
,,,,,,,,,,,,,,,,,199657,19,2022-01-29_12h59.22.371,lexical_decision_task_DD_L5,2021.2.3,Win32,119.3032689,,m,1,0.7974,,,,,,,,0.7974,1,0,6,6,3,1,1001,MATRIX,m,,,,,,,,,,,,,,,,,,,,,,,,,,,,,,,,,,,,,,,,,,,,,,,,,,,,
,,,,,,,,,,,,,,,,,199657,19,2022-01-29_12h59.22.371,lexical_decision_task_DD_L5,2021.2.3,Win32,119.3032689,,m,1,0.572,,,,,,,,0.572,1,0,7,7,1,1,1001,ADJUST,m,,,,,,,,,,,,,,,,,,,,,,,,,,,,,,,,,,,,,,,,,,,,,,,,,,,,
,,,,,,,,,,,,,,,,,199657,19,2022-01-29_12h59.22.371,lexical_decision_task_DD_L5,2021.2.3,Win32,119.3032689,,z,1,0.9285,,,,,,,,0.9285,1,0,8,8,8,1,1001,ASLERT,z,,,,,,,,,,,,,,,,,,,,,,,,,,,,,,,,,,,,,,,,,,,,,,,,,,,,
,,,,,,,,,,,,,,,,,199657,19,2022-01-29_12h59.22.371,lexical_decision_task_DD_L5,2021.2.3,Win32,119.3032689,,m,1,0.6905,,,,,,,,0.6905,1,0,9,9,5,1,1001,OBTAIN,m,,,,,,,,,,,,,,,,,,,,,,,,,,,,,,,,,,,,,,,,,,,,,,,,,,,,
,,,,,,,,,,,,,,,,,199657,19,2022-01-29_12h59.22.371,lexical_decision_task_DD_L5,2021.2.3,Win32,119.3032689,,z,1,2.4973,,,,,,,,2.4973,1,0,10,10,9,1,1001,FARINY,z,,,,,,,,,,,,,,,,,,,,,,,,,,,,,,,,,,,,,,,,,,,,,,,,,,,,
,,,,,,,,,,,,,,,,,199657,19,2022-01-29_12h59.22.371,lexical_decision_task_DD_L5,2021.2.3,Win32,119.3032689,,m,1,0.6267,,,,,,,,0.6267,1,0,11,11,6,1,1001,ZOMBIE,m,,,,,,,,,,,,,,,,,,,,,,,,,,,,,,,,,,,,,,,,,,,,,,,,,,,,
,,,,,,,,,,,,,,,,,199657,19,2022-01-29_12h59.22.371,lexical_decision_task_DD_L5,2021.2.3,Win32,119.3032689,,z,1,1.7731,,,,,,,,1.7731,1,0,12,12,11,1,1001,RASHET,z,,,,,,,,,,,,,,,,,,,,,,,,,,,,,,,,,,,,,,,,,,,,,,,,,,,,
,,,,,,,,,,,,,,,,,199657,19,2022-01-29_12h59.22.371,lexical_decision_task_DD_L5,2021.2.3,Win32,119.3032689,,z,1,1.2493,,,,,,,,1.2493,1,0,13,13,13,1,1001,ROUPET,z,,,,,,,,,,,,,,,,,,,,,,,,,,,,,,,,,,,,,,,,,,,,,,,,,,,,
,,,,,,,,,,,,,,,,,199657,19,2022-01-29_12h59.22.371,lexical_decision_task_DD_L5,2021.2.3,Win32,119.3032689,,z,1,1.0572,,,,,,,,1.0572,1,0,14,14,15,1,1001,WHAISE,z,,,,,,,,,,,,,,,,,,,,,,,,,,,,,,,,,,,,,,,,,,,,,,,,,,,,
,,,,,,,,,,,,,,,,,199657,19,2022-01-29_12h59.22.371,lexical_decision_task_DD_L5,2021.2.3,Win32,119.3032689,,m,1,0.7669,,,,,,,,0.7669,1,0,15,15,7,1,1001,VOLUME,m,,,,,,,,,,,,,,,,,,,,,,,,,,,,,,,,,,,,,,,,,,,,,,,,,,,,
,0.109259274,-0.360185198,1,0,0,instr_done_button,,,,,,1,end_of_practice,"You have completed the practice trials. During the experimental trials, you will not receive feedback. 
Before you begin, please ensure that you are in a comfortable and quiet location and will not be disturbed for about 15 minutes, as we cannot use your data if you do not complete all the trials. 
 When you are ready to start the experimental trials, please press space or touch the button below.",,,199657,19,2022-01-29_12h59.22.371,lexical_decision_task_DD_L5,2021.2.3,Win32,119.3032689,,,,,,,,,,,,,,,,,,,,,,0,0,0,0,1,,,,,,,,,,,,,,,,,,,,,,,,,,,,,,,,,,,,,,,,,,,,,,,
,,,,,,,,,,,,,,,,,199657,19,2022-01-29_12h59.22.371,lexical_decision_task_DD_L5,2021.2.3,Win32,119.3032689,,,,,,,,,,,,1.454,1,,,,,,,,,,,,,,m,1,1.454,,,,,,,,0.120370385,-0.302777846,0,0,0,,0,0,0,73,1,GLOVE,LB,old,m,./images/GLOVELB.png,,,,,,,,,,,,,,,,,,,,,
,,,,,,,,,,,,,,,,,199657,19,2022-01-29_12h59.22.371,lexical_decision_task_DD_L5,2021.2.3,Win32,119.3032689,,,,,,,,,,,,1.3654,1,,,,,,,,,,,,,,m,1,1.3654,,,,,,,,0.120370385,-0.302777846,0,0,0,,0,1,1,44,1,BASKET,C,old,m,./images/BASKET.png,,,,,,,,,,,,,,,,,,,,,
,,,,,,,,,,,,,,,,,199657,19,2022-01-29_12h59.22.371,lexical_decision_task_DD_L5,2021.2.3,Win32,119.3032689,,,,,,,,,,,,2.1803,1,,,,,,,,,,,,,,z,1,2.1803,,,,,,,,0.120370385,-0.302777846,0,0,0,,0,2,2,163,1,GAMBA,HB,old,z,./images/GAMBAHB.png,,,,,,,,,,,,,,,,,,,,,
,,,,,,,,,,,,,,,,,199657,19,2022-01-29_12h59.22.371,lexical_decision_task_DD_L5,2021.2.3,Win32,119.3032689,,,,,,,,,,,,0.807,1,,,,,,,,,,,,,,m,1,0.807,,,,,,,,0.120370385,-0.302777846,0,0,0,,0,3,3,30,1,SLOPE,HB,old,m,./images/SLOPEHB.png,,,,,,,,,,,,,,,,,,,,,
,,,,,,,,,,,,,,,,,199657,19,2022-01-29_12h59.22.371,lexical_decision_task_DD_L5,2021.2.3,Win32,119.3032689,,,,,,,,,,,,1.7048,1,,,,,,,,,,,,,,z,1,1.7048,,,,,,,,0.120370385,-0.302777846,0,0,0,,0,4,4,94,1,BLANS,HB,old,z,./images/BLANSHB.png,,,,,,,,,,,,,,,,,,,,,
,,,,,,,,,,,,,,,,,199657,19,2022-01-29_12h59.22.371,lexical_decision_task_DD_L5,2021.2.3,Win32,119.3032689,,,,,,,,,,,,1.1055,1,,,,,,,,,,,,,,z,1,1.1055,,,,,,,,0.120370385,-0.302777846,0,0,0,,0,5,5,126,1,GUELS,C,old,z,./images/GUELS.png,,,,,,,,,,,,,,,,,,,,,
,,,,,,,,,,,,,,,,,199657,19,2022-01-29_12h59.22.371,lexical_decision_task_DD_L5,2021.2.3,Win32,119.3032689,,,,,,,,,,,,5.7188,1,,,,,,,,,,,,,,z,1,5.7188,,,,,,,,0.120370385,-0.302777846,0,0,0,,0,6,6,100,1,DRIBS,HB,old,z,./images/DRIBSHB.png,,,,,,,,,,,,,,,,,,,,,
,,,,,,,,,,,,,,,,,199657,19,2022-01-29_12h59.22.371,lexical_decision_task_DD_L5,2021.2.3,Win32,119.3032689,,,,,,,,,,,,2.138,1,,,,,,,,,,,,,,z,1,2.138,,,,,,,,0.120370385,-0.302777846,0,0,0,,0,7,7,123,1,SEDGE,C,old,z,./images/SEDGE.png,,,,,,,,,,,,,,,,,,,,,
,,,,,,,,,,,,,,,,,199657,19,2022-01-29_12h59.22.371,lexical_decision_task_DD_L5,2021.2.3,Win32,119.3032689,,,,,,,,,,,,0.8906,1,,,,,,,,,,,,,,m,1,0.8906,,,,,,,,0.120370385,-0.302777846,0,0,0,,0,8,8,63,1,BAKER,HB,old,m,./images/BAKERHB.png,,,,,,,,,,,,,,,,,,,,,
,,,,,,,,,,,,,,,,,199657,19,2022-01-29_12h59.22.371,lexical_decision_task_DD_L5,2021.2.3,Win32,119.3032689,,,,,,,,,,,,0.6748,1,,,,,,,,,,,,,,m,1,0.6748,,,,,,,,0.120370385,-0.302777846,0,0,0,,0,9,9,19,1,DONKEY,LB,old,m,./images/DONKEYLB.png,,,,,,,,,,,,,,,,,,,,,
,,,,,,,,,,,,,,,,,199657,19,2022-01-29_12h59.22.371,lexical_decision_task_DD_L5,2021.2.3,Win32,119.3032689,,,,,,,,,,,,0.7614,1,,,,,,,,,,,,,,m,1,0.7614,,,,,,,,0.120370385,-0.302777846,0,0,0,,0,10,10,82,1,PEBBLE,LB,old,m,./images/PEBBLELB.png,,,,,,,,,,,,,,,,,,,,,
,,,,,,,,,,,,,,,,,199657,19,2022-01-29_12h59.22.371,lexical_decision_task_DD_L5,2021.2.3,Win32,119.3032689,,,,,,,,,,,,0.8074,1,,,,,,,,,,,,,,z,1,0.8074,,,,,,,,0.120370385,-0.302777846,0,0,0,,0,11,11,141,1,PLEET,C,old,z,./images/PLEET.png,,,,,,,,,,,,,,,,,,,,,
,,,,,,,,,,,,,,,,,199657,19,2022-01-29_12h59.22.371,lexical_decision_task_DD_L5,2021.2.3,Win32,119.3032689,,,,,,,,,,,,1.6857,1,,,,,,,,,,,,,,m,1,1.6857,,,,,,,,0.120370385,-0.302777846,0,0,0,,0,12,12,3,1,CRATER,HB,old,m,./images/CRATERHB.png,,,,,,,,,,,,,,,,,,,,,
,,,,,,,,,,,,,,,,,199657,19,2022-01-29_12h59.22.371,lexical_decision_task_DD_L5,2021.2.3,Win32,119.3032689,,,,,,,,,,,,1.0938,1,,,,,,,,,,,,,,z,1,1.0938,,,,,,,,0.120370385,-0.302777846,0,0,0,,0,13,13,138,1,PLICE,C,old,z,./images/PLICE.png,,,,,,,,,,,,,,,,,,,,,
,,,,,,,,,,,,,,,,,199657,19,2022-01-29_12h59.22.371,lexical_decision_task_DD_L5,2021.2.3,Win32,119.3032689,,,,,,,,,,,,0.8325,1,,,,,,,,,,,,,,m,1,0.8325,,,,,,,,0.120370385,-0.302777846,0,0,0,,0,14,14,64,1,BRIDE,LB,old,m,./images/BRIDELB.png,,,,,,,,,,,,,,,,,,,,,
,,,,,,,,,,,,,,,,,199657,19,2022-01-29_12h59.22.371,lexical_decision_task_DD_L5,2021.2.3,Win32,119.3032689,,,,,,,,,,,,1.1951,1,,,,,,,,,,,,,,z,1,1.1951,,,,,,,,0.120370385,-0.302777846,0,0,0,,0,15,15,97,1,CHIDS,HB,old,z,./images/CHIDSHB.png,,,,,,,,,,,,,,,,,,,,,
,,,,,,,,,,,,,,,,,199657,19,2022-01-29_12h59.22.371,lexical_decision_task_DD_L5,2021.2.3,Win32,119.3032689,,,,,,,,,,,,1.4576,1,,,,,,,,,,,,,,z,1,1.4576,,,,,,,,0.120370385,-0.302777846,0,0,0,,0,16,16,125,1,MOOKY,LB,old,z,./images/MOOKYLB.png,,,,,,,,,,,,,,,,,,,,,
,,,,,,,,,,,,,,,,,199657,19,2022-01-29_12h59.22.371,lexical_decision_task_DD_L5,2021.2.3,Win32,119.3032689,,,,,,,,,,,,0.92,0,,,,,,,,,,,,,,m,0,0.92,,,,,,,,0.120370385,-0.302777846,0,0,0,,0,17,17,110,1,CRUNK,LB,old,z,./images/CRUNKLB.png,,,,,,,,,,,,,,,,,,,,,
,,,,,,,,,,,,,,,,,199657,19,2022-01-29_12h59.22.371,lexical_decision_task_DD_L5,2021.2.3,Win32,119.3032689,,,,,,,,,,,,1.3659,1,,,,,,,,,,,,,,m,1,1.3659,,,,,,,,0.120370385,-0.302777846,0,0,0,,0,18,18,72,1,FLASK,HB,old,m,./images/FLASKHB.png,,,,,,,,,,,,,,,,,,,,,
,,,,,,,,,,,,,,,,,199657,19,2022-01-29_12h59.22.371,lexical_decision_task_DD_L5,2021.2.3,Win32,119.3032689,,,,,,,,,,,,0.9109,1,,,,,,,,,,,,,,z,1,0.9109,,,,,,,,0.120370385,-0.302777846,0,0,0,,0,19,19,86,1,AIFED,LB,old,z,./images/AIFEDLB.png,,,,,,,,,,,,,,,,,,,,,
,,,,,,,,,,,,,,,,,199657,19,2022-01-29_12h59.22.371,lexical_decision_task_DD_L5,2021.2.3,Win32,119.3032689,,,,,,,,,,,,2.333,1,,,,,,,,,,,,,,z,1,2.333,,,,,,,,0.120370385,-0.302777846,0,0,0,,0,20,20,88,1,GLUSH,HB,old,z,./images/GLUSHHB.png,,,,,,,,,,,,,,,,,,,,,
,,,,,,,,,,,,,,,,,199657,19,2022-01-29_12h59.22.371,lexical_decision_task_DD_L5,2021.2.3,Win32,119.3032689,,,,,,,,,,,,2.6703,1,,,,,,,,,,,,,,z,1,2.6703,,,,,,,,0.120370385,-0.302777846,0,0,0,,0,21,21,106,1,CLUMS,HB,old,z,./images/CLUMSHB.png,,,,,,,,,,,,,,,,,,,,,
,,,,,,,,,,,,,,,,,199657,19,2022-01-29_12h59.22.371,lexical_decision_task_DD_L5,2021.2.3,Win32,119.3032689,,,,,,,,,,,,1.1578,1,,,,,,,,,,,,,,z,1,1.1578,,,,,,,,0.120370385,-0.302777846,0,0,0,,0,22,22,146,1,MOOST,LB,old,z,./images/MOOSTLB.png,,,,,,,,,,,,,,,,,,,,,
,,,,,,,,,,,,,,,,,199657,19,2022-01-29_12h59.22.371,lexical_decision_task_DD_L5,2021.2.3,Win32,119.3032689,,,,,,,,,,,,0.9378,1,,,,,,,,,,,,,,z,1,0.9378,,,,,,,,0.120370385,-0.302777846,0,0,0,,0,23,23,161,1,BLAPS,LB,old,z,./images/BLAPSLB.png,,,,,,,,,,,,,,,,,,,,,
,,,,,,,,,,,,,,,,,199657,19,2022-01-29_12h59.22.371,lexical_decision_task_DD_L5,2021.2.3,Win32,119.3032689,,,,,,,,,,,,1.3741,1,,,,,,,,,,,,,,z,1,1.3741,,,,,,,,0.120370385,-0.302777846,0,0,0,,0,24,24,111,1,HOSSE,C,old,z,./images/HOSSE.png,,,,,,,,,,,,,,,,,,,,,
,,,,,,,,,,,,,,,,,199657,19,2022-01-29_12h59.22.371,lexical_decision_task_DD_L5,2021.2.3,Win32,119.3032689,,,,,,,,,,,,0.7441,1,,,,,,,,,,,,,,m,1,0.7441,,,,,,,,0.120370385,-0.302777846,0,0,0,,0,25,25,27,1,BUTTER,HB,old,m,./images/BUTTERHB.png,,,,,,,,,,,,,,,,,,,,,
,,,,,,,,,,,,,,,,,199657,19,2022-01-29_12h59.22.371,lexical_decision_task_DD_L5,2021.2.3,Win32,119.3032689,,,,,,,,,,,,0.7758,1,,,,,,,,,,,,,,m,1,0.7758,,,,,,,,0.120370385,-0.302777846,0,0,0,,0,26,26,54,1,CHERRY,HB,old,m,./images/CHERRYHB.png,,,,,,,,,,,,,,,,,,,,,
,,,,,,,,,,,,,,,,,199657,19,2022-01-29_12h59.22.371,lexical_decision_task_DD_L5,2021.2.3,Win32,119.3032689,,,,,,,,,,,,0.6282,1,,,,,,,,,,,,,,z,1,0.6282,,,,,,,,0.120370385,-0.302777846,0,0,0,,0,27,27,132,1,SCIFF,C,old,z,./images/SCIFF.png,,,,,,,,,,,,,,,,,,,,,
,,,,,,,,,,,,,,,,,199657,19,2022-01-29_12h59.22.371,lexical_decision_task_DD_L5,2021.2.3,Win32,119.3032689,,,,,,,,,,,,0.7825,1,,,,,,,,,,,,,,m,1,0.7825,,,,,,,,0.120370385,-0.302777846,0,0,0,,0,28,28,17,1,PARADE,C,old,m,./images/PARADE.png,,,,,,,,,,,,,,,,,,,,,
,,,,,,,,,,,,,,,,,199657,19,2022-01-29_12h59.22.371,lexical_decision_task_DD_L5,2021.2.3,Win32,119.3032689,,,,,,,,,,,,0.7205,1,,,,,,,,,,,,,,z,1,0.7205,,,,,,,,0.120370385,-0.302777846,0,0,0,,0,29,29,93,1,SMONE,C,old,z,./images/SMONE.png,,,,,,,,,,,,,,,,,,,,,
,,,,,,,,,,,,,,,,,199657,19,2022-01-29_12h59.22.371,lexical_decision_task_DD_L5,2021.2.3,Win32,119.3032689,,,,,,,,,,,,1.125,1,,,,,,,,,,,,,,z,1,1.125,,,,,,,,0.120370385,-0.302777846,0,0,0,,0,30,30,119,1,PAFER,LB,old,z,./images/PAFERLB.png,,,,,,,,,,,,,,,,,,,,,
,,,,,,,,,,,,,,,,,199657,19,2022-01-29_12h59.22.371,lexical_decision_task_DD_L5,2021.2.3,Win32,119.3032689,,,,,,,,,,,,0.9161,1,,,,,,,,,,,,,,z,1,0.9161,,,,,,,,0.120370385,-0.302777846,0,0,0,,0,31,31,147,1,ZOLES,C,old,z,./images/ZOLES.png,,,,,,,,,,,,,,,,,,,,,
,,,,,,,,,,,,,,,,,199657,19,2022-01-29_12h59.22.371,lexical_decision_task_DD_L5,2021.2.3,Win32,119.3032689,,,,,,,,,,,,1.37,1,,,,,,,,,,,,,,m,1,1.37,,,,,,,,0.120370385,-0.302777846,0,0,0,,0,32,32,77,1,WHEEL,C,old,m,./images/WHEEL.png,,,,,,,,,,,,,,,,,,,,,
,,,,,,,,,,,,,,,,,199657,19,2022-01-29_12h59.22.371,lexical_decision_task_DD_L5,2021.2.3,Win32,119.3032689,,,,,,,,,,,,0.8786,1,,,,,,,,,,,,,,z,1,0.8786,,,,,,,,0.120370385,-0.302777846,0,0,0,,0,33,33,121,1,CEERS,HB,old,z,./images/CEERSHB.png,,,,,,,,,,,,,,,,,,,,,
,,,,,,,,,,,,,,,,,199657,19,2022-01-29_12h59.22.371,lexical_decision_task_DD_L5,2021.2.3,Win32,119.3032689,,,,,,,,,,,,0.703,1,,,,,,,,,,,,,,m,1,0.703,,,,,,,,0.120370385,-0.302777846,0,0,0,,0,34,34,37,1,TIGER,LB,old,m,./images/TIGERLB.png,,,,,,,,,,,,,,,,,,,,,
,,,,,,,,,,,,,,,,,199657,19,2022-01-29_12h59.22.371,lexical_decision_task_DD_L5,2021.2.3,Win32,119.3032689,,,,,,,,,,,,0.5663,1,,,,,,,,,,,,,,z,1,0.5663,,,,,,,,0.120370385,-0.302777846,0,0,0,,0,35,35,137,1,JOOST,LB,old,z,./images/JOOSTLB.png,,,,,,,,,,,,,,,,,,,,,
,,,,,,,,,,,,,,,,,199657,19,2022-01-29_12h59.22.371,lexical_decision_task_DD_L5,2021.2.3,Win32,119.3032689,,,,,,,,,,,,0.7735,1,,,,,,,,,,,,,,z,1,0.7735,,,,,,,,0.120370385,-0.302777846,0,0,0,,0,36,36,108,1,GRUET,C,old,z,./images/GRUET.png,,,,,,,,,,,,,,,,,,,,,
,,,,,,,,,,,,,,,,,199657,19,2022-01-29_12h59.22.371,lexical_decision_task_DD_L5,2021.2.3,Win32,119.3032689,,,,,,,,,,,,1.8311,1,,,,,,,,,,,,,,m,1,1.8311,,,,,,,,0.120370385,-0.302777846,0,0,0,,0,37,37,9,1,DIVER,HB,old,m,./images/DIVERHB.png,,,,,,,,,,,,,,,,,,,,,
,,,,,,,,,,,,,,,,,199657,19,2022-01-29_12h59.22.371,lexical_decision_task_DD_L5,2021.2.3,Win32,119.3032689,,,,,,,,,,,,0.6377,1,,,,,,,,,,,,,,m,1,0.6377,,,,,,,,0.120370385,-0.302777846,0,0,0,,0,38,38,51,1,SAUCE,HB,old,m,./images/SAUCEHB.png,,,,,,,,,,,,,,,,,,,,,
,,,,,,,,,,,,,,,,,199657,19,2022-01-29_12h59.22.371,lexical_decision_task_DD_L5,2021.2.3,Win32,119.3032689,,,,,,,,,,,,0.7658,1,,,,,,,,,,,,,,m,1,0.7658,,,,,,,,0.120370385,-0.302777846,0,0,0,,0,39,39,10,1,GARDEN,LB,old,m,./images/GARDENLB.png,,,,,,,,,,,,,,,,,,,,,
,,,,,,,,,,,,,,,,,199657,19,2022-01-29_12h59.22.371,lexical_decision_task_DD_L5,2021.2.3,Win32,119.3032689,,,,,,,,,,,,0.7084,1,,,,,,,,,,,,,,z,1,0.7084,,,,,,,,0.120370385,-0.302777846,0,0,0,,0,40,40,128,1,GRIFT,LB,old,z,./images/GRIFTLB.png,,,,,,,,,,,,,,,,,,,,,
,,,,,,,,,,,,,,,,,199657,19,2022-01-29_12h59.22.371,lexical_decision_task_DD_L5,2021.2.3,Win32,119.3032689,,,,,,,,,,,,1.4165,1,,,,,,,,,,,,,,z,1,1.4165,,,,,,,,0.022222236,-0.38703705,1,0,0,,0,41,41,139,1,BLEAR,HB,old,z,./images/BLEARHB.png,break_done_button,,,,,,,,,,,,,,,,,,,,
,,,,,,,,,,,,,,,,,199657,19,2022-01-29_12h59.22.371,lexical_decision_task_DD_L5,2021.2.3,Win32,119.3032689,,,,,,,,,,,,1.3677,1,,,,,,,,,,,,,,z,1,1.3677,,,,,,,,0.023148162,-0.387962976,0,0,0,,0,42,42,116,1,BALGY,LB,old,z,./images/BALGYLB.png,,,,,,,,,,,,,,,,,,,,,
,,,,,,,,,,,,,,,,,199657,19,2022-01-29_12h59.22.371,lexical_decision_task_DD_L5,2021.2.3,Win32,119.3032689,,,,,,,,,,,,0.9578,1,,,,,,,,,,,,,,z,1,0.9578,,,,,,,,0.023148162,-0.387962976,0,0,0,,0,43,43,153,1,CLUPS,C,old,z,./images/CLUPS.png,,,,,,,,,,,,,,,,,,,,,
,,,,,,,,,,,,,,,,,199657,19,2022-01-29_12h59.22.371,lexical_decision_task_DD_L5,2021.2.3,Win32,119.3032689,,,,,,,,,,,,1.7336,1,,,,,,,,,,,,,,m,1,1.7336,,,,,,,,0.023148162,-0.387962976,0,0,0,,0,44,44,45,1,MONKEY,HB,old,m,./images/MONKEYHB.png,,,,,,,,,,,,,,,,,,,,,
,,,,,,,,,,,,,,,,,199657,19,2022-01-29_12h59.22.371,lexical_decision_task_DD_L5,2021.2.3,Win32,119.3032689,,,,,,,,,,,,1.0159,1,,,,,,,,,,,,,,m,1,1.0159,,,,,,,,0.023148162,-0.387962976,0,0,0,,0,45,45,70,1,BANANA,LB,old,m,./images/BANANALB.png,,,,,,,,,,,,,,,,,,,,,
,,,,,,,,,,,,,,,,,199657,19,2022-01-29_12h59.22.371,lexical_decision_task_DD_L5,2021.2.3,Win32,119.3032689,,,,,,,,,,,,1.1083,1,,,,,,,,,,,,,,z,1,1.1083,,,,,,,,0.023148162,-0.387962976,0,0,0,,0,46,46,167,1,ZONET,LB,old,z,./images/ZONETLB.png,,,,,,,,,,,,,,,,,,,,,
,,,,,,,,,,,,,,,,,199657,19,2022-01-29_12h59.22.371,lexical_decision_task_DD_L5,2021.2.3,Win32,119.3032689,,,,,,,,,,,,0.8661,1,,,,,,,,,,,,,,m,1,0.8661,,,,,,,,0.023148162,-0.387962976,0,0,0,,0,47,47,14,1,FENCE,C,old,m,./images/FENCE.png,,,,,,,,,,,,,,,,,,,,,
,,,,,,,,,,,,,,,,,199657,19,2022-01-29_12h59.22.371,lexical_decision_task_DD_L5,2021.2.3,Win32,119.3032689,,,,,,,,,,,,0.8858,1,,,,,,,,,,,,,,z,1,0.8858,,,,,,,,0.023148162,-0.387962976,0,0,0,,0,48,48,84,1,HAXES,C,old,z,./images/HAXES.png,,,,,,,,,,,,,,,,,,,,,
,,,,,,,,,,,,,,,,,199657,19,2022-01-29_12h59.22.371,lexical_decision_task_DD_L5,2021.2.3,Win32,119.3032689,,,,,,,,,,,,1.0538,1,,,,,,,,,,,,,,z,1,1.0538,,,,,,,,0.023148162,-0.387962976,0,0,0,,0,49,49,130,1,CRILL,HB,old,z,./images/CRILLHB.png,,,,,,,,,,,,,,,,,,,,,
,,,,,,,,,,,,,,,,,199657,19,2022-01-29_12h59.22.371,lexical_decision_task_DD_L5,2021.2.3,Win32,119.3032689,,,,,,,,,,,,0.7658,1,,,,,,,,,,,,,,z,1,0.7658,,,,,,,,0.023148162,-0.387962976,0,0,0,,0,50,50,92,1,PAIMS,LB,old,z,./images/PAIMSLB.png,,,,,,,,,,,,,,,,,,,,,
,,,,,,,,,,,,,,,,,199657,19,2022-01-29_12h59.22.371,lexical_decision_task_DD_L5,2021.2.3,Win32,119.3032689,,,,,,,,,,,,0.6459,1,,,,,,,,,,,,,,m,1,0.6459,,,,,,,,0.023148162,-0.387962976,0,0,0,,0,51,51,39,1,CANDY,HB,old,m,./images/CANDYHB.png,,,,,,,,,,,,,,,,,,,,,
,,,,,,,,,,,,,,,,,199657,19,2022-01-29_12h59.22.371,lexical_decision_task_DD_L5,2021.2.3,Win32,119.3032689,,,,,,,,,,,,0.5908,1,,,,,,,,,,,,,,m,1,0.5908,,,,,,,,0.023148162,-0.387962976,0,0,0,,0,52,52,80,1,PLANET,C,old,m,./images/PLANET.png,,,,,,,,,,,,,,,,,,,,,
,,,,,,,,,,,,,,,,,199657,19,2022-01-29_12h59.22.371,lexical_decision_task_DD_L5,2021.2.3,Win32,119.3032689,,,,,,,,,,,,0.601,1,,,,,,,,,,,,,,m,1,0.601,,,,,,,,0.023148162,-0.387962976,0,0,0,,0,53,53,71,1,BUBBLE,C,old,m,./images/BUBBLE.png,,,,,,,,,,,,,,,,,,,,,
,,,,,,,,,,,,,,,,,199657,19,2022-01-29_12h59.22.371,lexical_decision_task_DD_L5,2021.2.3,Win32,119.3032689,,,,,,,,,,,,0.591,1,,,,,,,,,,,,,,z,1,0.591,,,,,,,,0.023148162,-0.387962976,0,0,0,,0,54,54,144,1,NAIRY,C,old,z,./images/NAIRY.png,,,,,,,,,,,,,,,,,,,,,
,,,,,,,,,,,,,,,,,199657,19,2022-01-29_12h59.22.371,lexical_decision_task_DD_L5,2021.2.3,Win32,119.3032689,,,,,,,,,,,,0.886,1,,,,,,,,,,,,,,m,1,0.886,,,,,,,,0.023148162,-0.387962976,0,0,0,,0,55,55,68,1,VALLEY,C,old,m,./images/VALLEY.png,,,,,,,,,,,,,,,,,,,,,
,,,,,,,,,,,,,,,,,199657,19,2022-01-29_12h59.22.371,lexical_decision_task_DD_L5,2021.2.3,Win32,119.3032689,,,,,,,,,,,,0.7182,1,,,,,,,,,,,,,,m,1,0.7182,,,,,,,,0.023148162,-0.387962976,0,0,0,,0,56,56,53,1,POSTER,C,old,m,./images/POSTER.png,,,,,,,,,,,,,,,,,,,,,
,,,,,,,,,,,,,,,,,199657,19,2022-01-29_12h59.22.371,lexical_decision_task_DD_L5,2021.2.3,Win32,119.3032689,,,,,,,,,,,,0.7552,1,,,,,,,,,,,,,,z,1,0.7552,,,,,,,,0.023148162,-0.387962976,0,0,0,,0,57,57,95,1,HANTY,LB,old,z,./images/HANTYLB.png,,,,,,,,,,,,,,,,,,,,,
,,,,,,,,,,,,,,,,,199657,19,2022-01-29_12h59.22.371,lexical_decision_task_DD_L5,2021.2.3,Win32,119.3032689,,,,,,,,,,,,1.1926,1,,,,,,,,,,,,,,z,1,1.1926,,,,,,,,0.023148162,-0.387962976,0,0,0,,0,58,58,91,1,SHENS,HB,old,z,./images/SHENSHB.png,,,,,,,,,,,,,,,,,,,,,
,,,,,,,,,,,,,,,,,199657,19,2022-01-29_12h59.22.371,lexical_decision_task_DD_L5,2021.2.3,Win32,119.3032689,,,,,,,,,,,,2.2977,1,,,,,,,,,,,,,,m,1,2.2977,,,,,,,,0.023148162,-0.387962976,0,0,0,,0,59,59,41,1,STREAM,C,old,m,./images/STREAM.png,,,,,,,,,,,,,,,,,,,,,
,,,,,,,,,,,,,,,,,199657,19,2022-01-29_12h59.22.371,lexical_decision_task_DD_L5,2021.2.3,Win32,119.3032689,,,,,,,,,,,,0.8245,1,,,,,,,,,,,,,,m,1,0.8245,,,,,,,,0.023148162,-0.387962976,0,0,0,,0,60,60,48,1,SHIELD,HB,old,m,./images/SHIELDHB.png,,,,,,,,,,,,,,,,,,,,,
,,,,,,,,,,,,,,,,,199657,19,2022-01-29_12h59.22.371,lexical_decision_task_DD_L5,2021.2.3,Win32,119.3032689,,,,,,,,,,,,0.6337,1,,,,,,,,,,,,,,m,1,0.6337,,,,,,,,0.023148162,-0.387962976,0,0,0,,0,61,61,65,1,SPINE,C,old,m,./images/SPINE.png,,,,,,,,,,,,,,,,,,,,,
,,,,,,,,,,,,,,,,,199657,19,2022-01-29_12h59.22.371,lexical_decision_task_DD_L5,2021.2.3,Win32,119.3032689,,,,,,,,,,,,0.5409,1,,,,,,,,,,,,,,m,1,0.5409,,,,,,,,0.023148162,-0.387962976,0,0,0,,0,62,62,69,1,ARROW,HB,old,m,./images/ARROWHB.png,,,,,,,,,,,,,,,,,,,,,
,,,,,,,,,,,,,,,,,199657,19,2022-01-29_12h59.22.371,lexical_decision_task_DD_L5,2021.2.3,Win32,119.3032689,,,,,,,,,,,,0.6743,1,,,,,,,,,,,,,,z,1,0.6743,,,,,,,,0.023148162,-0.387962976,0,0,0,,0,63,63,127,1,NINDY,HB,old,z,./images/NINDYHB.png,,,,,,,,,,,,,,,,,,,,,
,,,,,,,,,,,,,,,,,199657,19,2022-01-29_12h59.22.371,lexical_decision_task_DD_L5,2021.2.3,Win32,119.3032689,,,,,,,,,,,,0.5698,1,,,,,,,,,,,,,,m,1,0.5698,,,,,,,,0.023148162,-0.387962976,0,0,0,,0,64,64,42,1,CHAIN,HB,old,m,./images/CHAINHB.png,,,,,,,,,,,,,,,,,,,,,
,,,,,,,,,,,,,,,,,199657,19,2022-01-29_12h59.22.371,lexical_decision_task_DD_L5,2021.2.3,Win32,119.3032689,,,,,,,,,,,,0.6545,1,,,,,,,,,,,,,,m,1,0.6545,,,,,,,,0.023148162,-0.387962976,0,0,0,,0,65,65,52,1,DESERT,LB,old,m,./images/DESERTLB.png,,,,,,,,,,,,,,,,,,,,,
,,,,,,,,,,,,,,,,,199657,19,2022-01-29_12h59.22.371,lexical_decision_task_DD_L5,2021.2.3,Win32,119.3032689,,,,,,,,,,,,0.8911,1,,,,,,,,,,,,,,z,1,0.8911,,,,,,,,0.023148162,-0.387962976,0,0,0,,0,66,66,154,1,THINT,HB,old,z,./images/THINTHB.png,,,,,,,,,,,,,,,,,,,,,
,,,,,,,,,,,,,,,,,199657,19,2022-01-29_12h59.22.371,lexical_decision_task_DD_L5,2021.2.3,Win32,119.3032689,,,,,,,,,,,,0.9934,1,,,,,,,,,,,,,,z,1,0.9934,,,,,,,,0.023148162,-0.387962976,0,0,0,,0,67,67,107,1,FASKS,LB,old,z,./images/FASKSLB.png,,,,,,,,,,,,,,,,,,,,,
,,,,,,,,,,,,,,,,,199657,19,2022-01-29_12h59.22.371,lexical_decision_task_DD_L5,2021.2.3,Win32,119.3032689,,,,,,,,,,,,1.0696,1,,,,,,,,,,,,,,z,1,1.0696,,,,,,,,0.023148162,-0.387962976,0,0,0,,0,68,68,145,1,LAMEL,HB,old,z,./images/LAMELHB.png,,,,,,,,,,,,,,,,,,,,,
,,,,,,,,,,,,,,,,,199657,19,2022-01-29_12h59.22.371,lexical_decision_task_DD_L5,2021.2.3,Win32,119.3032689,,,,,,,,,,,,0.8661,1,,,,,,,,,,,,,,z,1,0.8661,,,,,,,,0.023148162,-0.387962976,0,0,0,,0,69,69,159,1,CUDDY,C,old,z,./images/CUDDY.png,,,,,,,,,,,,,,,,,,,,,
,,,,,,,,,,,,,,,,,199657,19,2022-01-29_12h59.22.371,lexical_decision_task_DD_L5,2021.2.3,Win32,119.3032689,,,,,,,,,,,,0.5343,1,,,,,,,,,,,,,,m,1,0.5343,,,,,,,,0.023148162,-0.387962976,0,0,0,,0,70,70,26,1,CLOUD,C,old,m,./images/CLOUD.png,,,,,,,,,,,,,,,,,,,,,
,,,,,,,,,,,,,,,,,199657,19,2022-01-29_12h59.22.371,lexical_decision_task_DD_L5,2021.2.3,Win32,119.3032689,,,,,,,,,,,,0.7445,0,,,,,,,,,,,,,,z,0,0.7445,,,,,,,,0.023148162,-0.387962976,0,0,0,,0,71,71,12,1,BLOKE,HB,old,m,./images/BLOKEHB.png,,,,,,,,,,,,,,,,,,,,,
,,,,,,,,,,,,,,,,,199657,19,2022-01-29_12h59.22.371,lexical_decision_task_DD_L5,2021.2.3,Win32,119.3032689,,,,,,,,,,,,0.8079,1,,,,,,,,,,,,,,z,1,0.8079,,,,,,,,0.023148162,-0.387962976,0,0,0,,0,72,72,109,1,BURGE,HB,old,z,./images/BURGEHB.png,,,,,,,,,,,,,,,,,,,,,
,,,,,,,,,,,,,,,,,199657,19,2022-01-29_12h59.22.371,lexical_decision_task_DD_L5,2021.2.3,Win32,119.3032689,,,,,,,,,,,,0.791,0,,,,,,,,,,,,,,z,0,0.791,,,,,,,,0.023148162,-0.387962976,0,0,0,,0,73,73,57,1,FERRY,HB,old,m,./images/FERRYHB.png,,,,,,,,,,,,,,,,,,,,,
,,,,,,,,,,,,,,,,,199657,19,2022-01-29_12h59.22.371,lexical_decision_task_DD_L5,2021.2.3,Win32,119.3032689,,,,,,,,,,,,0.817,1,,,,,,,,,,,,,,m,1,0.817,,,,,,,,0.023148162,-0.387962976,0,0,0,,0,74,74,75,1,HAMMER,HB,old,m,./images/HAMMERHB.png,,,,,,,,,,,,,,,,,,,,,
,,,,,,,,,,,,,,,,,199657,19,2022-01-29_12h59.22.371,lexical_decision_task_DD_L5,2021.2.3,Win32,119.3032689,,,,,,,,,,,,1.6164,1,,,,,,,,,,,,,,z,1,1.6164,,,,,,,,0.023148162,-0.387962976,0,0,0,,0,75,75,140,1,DOVET,LB,old,z,./images/DOVETLB.png,,,,,,,,,,,,,,,,,,,,,
,,,,,,,,,,,,,,,,,199657,19,2022-01-29_12h59.22.371,lexical_decision_task_DD_L5,2021.2.3,Win32,119.3032689,,,,,,,,,,,,0.7767,1,,,,,,,,,,,,,,m,1,0.7767,,,,,,,,0.023148162,-0.387962976,0,0,0,,0,76,76,11,1,MEDAL,C,old,m,./images/MEDAL.png,,,,,,,,,,,,,,,,,,,,,
,,,,,,,,,,,,,,,,,199657,19,2022-01-29_12h59.22.371,lexical_decision_task_DD_L5,2021.2.3,Win32,119.3032689,,,,,,,,,,,,0.6527,1,,,,,,,,,,,,,,z,1,0.6527,,,,,,,,0.023148162,-0.387962976,0,0,0,,0,77,77,114,1,RIKES,C,old,z,./images/RIKES.png,,,,,,,,,,,,,,,,,,,,,
,,,,,,,,,,,,,,,,,199657,19,2022-01-29_12h59.22.371,lexical_decision_task_DD_L5,2021.2.3,Win32,119.3032689,,,,,,,,,,,,1.4,1,,,,,,,,,,,,,,z,1,1.4,,,,,,,,0.023148162,-0.387962976,0,0,0,,0,78,78,142,1,PLASK,HB,old,z,./images/PLASKHB.png,,,,,,,,,,,,,,,,,,,,,
,,,,,,,,,,,,,,,,,199657,19,2022-01-29_12h59.22.371,lexical_decision_task_DD_L5,2021.2.3,Win32,119.3032689,,,,,,,,,,,,0.8676,1,,,,,,,,,,,,,,z,1,0.8676,,,,,,,,0.023148162,-0.387962976,0,0,0,,0,79,79,90,1,NEAST,C,old,z,./images/NEAST.png,,,,,,,,,,,,,,,,,,,,,
,,,,,,,,,,,,,,,,,199657,19,2022-01-29_12h59.22.371,lexical_decision_task_DD_L5,2021.2.3,Win32,119.3032689,,,,,,,,,,,,0.6491,1,,,,,,,,,,,,,,m,1,0.6491,,,,,,,,0.023148162,-0.387962976,0,0,0,,0,80,80,22,1,CLOWN,LB,old,m,./images/CLOWNLB.png,,,,,,,,,,,,,,,,,,,,,
,,,,,,,,,,,,,,,,,199657,19,2022-01-29_12h59.22.371,lexical_decision_task_DD_L5,2021.2.3,Win32,119.3032689,,,,,,,,,,,,0.7195,1,,,,,,,,,,,,,,z,1,0.7195,,,,,,,,0.023148162,-0.387962976,0,0,0,,0,81,81,104,1,GITTY,LB,old,z,./images/GITTYLB.png,,,,,,,,,,,,,,,,,,,,,
,,,,,,,,,,,,,,,,,199657,19,2022-01-29_12h59.22.371,lexical_decision_task_DD_L5,2021.2.3,Win32,119.3032689,,,,,,,,,,,,0.8761,1,,,,,,,,,,,,,,z,1,0.8761,,,,,,,,0.023148162,-0.387962976,0,0,0,,0,82,82,133,1,POWDY,HB,old,z,./images/POWDYHB.png,,,,,,,,,,,,,,,,,,,,,
,,,,,,,,,,,,,,,,,199657,19,2022-01-29_12h59.22.371,lexical_decision_task_DD_L5,2021.2.3,Win32,119.3032689,,,,,,,,,,,,0.7205,1,,,,,,,,,,,,,,m,1,0.7205,,,,,,,,0.082407422,-0.384259272,1,0,0,,0,83,83,78,1,BROOM,HB,old,m,./images/BROOMHB.png,break_done_button,,,,,,,,,,,,,,,,,,,,
,,,,,,,,,,,,,,,,,199657,19,2022-01-29_12h59.22.371,lexical_decision_task_DD_L5,2021.2.3,Win32,119.3032689,,,,,,,,,,,,1.1018,1,,,,,,,,,,,,,,m,1,1.1018,,,,,,,,0.087962978,-0.376851921,0,0,0,,0,84,84,83,1,WHISKY,C,old,m,./images/WHISKY.png,,,,,,,,,,,,,,,,,,,,,
,,,,,,,,,,,,,,,,,199657,19,2022-01-29_12h59.22.371,lexical_decision_task_DD_L5,2021.2.3,Win32,119.3032689,,,,,,,,,,,,0.8994,1,,,,,,,,,,,,,,z,1,0.8994,,,,,,,,0.087962978,-0.376851921,0,0,0,,0,85,85,103,1,FLORT,HB,old,z,./images/FLORTHB.png,,,,,,,,,,,,,,,,,,,,,
,,,,,,,,,,,,,,,,,199657,19,2022-01-29_12h59.22.371,lexical_decision_task_DD_L5,2021.2.3,Win32,119.3032689,,,,,,,,,,,,0.8827,1,,,,,,,,,,,,,,z,1,0.8827,,,,,,,,0.087962978,-0.376851921,0,0,0,,0,86,86,99,1,BACKY,C,old,z,./images/BACKY.png,,,,,,,,,,,,,,,,,,,,,
,,,,,,,,,,,,,,,,,199657,19,2022-01-29_12h59.22.371,lexical_decision_task_DD_L5,2021.2.3,Win32,119.3032689,,,,,,,,,,,,0.9625,1,,,,,,,,,,,,,,z,1,0.9625,,,,,,,,0.087962978,-0.376851921,0,0,0,,0,87,87,157,1,INLER,HB,old,z,./images/INLERHB.png,,,,,,,,,,,,,,,,,,,,,
,,,,,,,,,,,,,,,,,199657,19,2022-01-29_12h59.22.371,lexical_decision_task_DD_L5,2021.2.3,Win32,119.3032689,,,,,,,,,,,,0.5496,1,,,,,,,,,,,,,,m,1,0.5496,,,,,,,,0.087962978,-0.376851921,0,0,0,,0,88,88,74,1,JUMPER,C,old,m,./images/JUMPER.png,,,,,,,,,,,,,,,,,,,,,
,,,,,,,,,,,,,,,,,199657,19,2022-01-29_12h59.22.371,lexical_decision_task_DD_L5,2021.2.3,Win32,119.3032689,,,,,,,,,,,,0.8508,1,,,,,,,,,,,,,,z,1,0.8508,,,,,,,,0.087962978,-0.376851921,0,0,0,,0,89,89,112,1,MYING,HB,old,z,./images/MYINGHB.png,,,,,,,,,,,,,,,,,,,,,
,,,,,,,,,,,,,,,,,199657,19,2022-01-29_12h59.22.371,lexical_decision_task_DD_L5,2021.2.3,Win32,119.3032689,,,,,,,,,,,,0.6782,1,,,,,,,,,,,,,,m,1,0.6782,,,,,,,,0.087962978,-0.376851921,0,0,0,,0,90,90,81,1,DRILL,HB,old,m,./images/DRILLHB.png,,,,,,,,,,,,,,,,,,,,,
,,,,,,,,,,,,,,,,,199657,19,2022-01-29_12h59.22.371,lexical_decision_task_DD_L5,2021.2.3,Win32,119.3032689,,,,,,,,,,,,0.9991,1,,,,,,,,,,,,,,z,1,0.9991,,,,,,,,0.087962978,-0.376851921,0,0,0,,0,91,91,164,1,SGREW,LB,old,z,./images/SGREWLB.png,,,,,,,,,,,,,,,,,,,,,
,,,,,,,,,,,,,,,,,199657,19,2022-01-29_12h59.22.371,lexical_decision_task_DD_L5,2021.2.3,Win32,119.3032689,,,,,,,,,,,,0.6878,1,,,,,,,,,,,,,,m,1,0.6878,,,,,,,,0.087962978,-0.376851921,0,0,0,,0,92,92,34,1,RAZOR,LB,old,m,./images/RAZORLB.png,,,,,,,,,,,,,,,,,,,,,
,,,,,,,,,,,,,,,,,199657,19,2022-01-29_12h59.22.371,lexical_decision_task_DD_L5,2021.2.3,Win32,119.3032689,,,,,,,,,,,,0.5998,1,,,,,,,,,,,,,,z,1,0.5998,,,,,,,,0.087962978,-0.376851921,0,0,0,,0,93,93,118,1,BAVEL,HB,old,z,./images/BAVELHB.png,,,,,,,,,,,,,,,,,,,,,
,,,,,,,,,,,,,,,,,199657,19,2022-01-29_12h59.22.371,lexical_decision_task_DD_L5,2021.2.3,Win32,119.3032689,,,,,,,,,,,,0.6313,1,,,,,,,,,,,,,,z,1,0.6313,,,,,,,,0.087962978,-0.376851921,0,0,0,,0,94,94,96,1,KEAMS,C,old,z,./images/KEAMS.png,,,,,,,,,,,,,,,,,,,,,
,,,,,,,,,,,,,,,,,199657,19,2022-01-29_12h59.22.371,lexical_decision_task_DD_L5,2021.2.3,Win32,119.3032689,,,,,,,,,,,,0.7274,1,,,,,,,,,,,,,,z,1,0.7274,,,,,,,,0.087962978,-0.376851921,0,0,0,,0,95,95,148,1,JOMS,HB,old,z,./images/JOMSHB.png,,,,,,,,,,,,,,,,,,,,,
,,,,,,,,,,,,,,,,,199657,19,2022-01-29_12h59.22.371,lexical_decision_task_DD_L5,2021.2.3,Win32,119.3032689,,,,,,,,,,,,0.6676,1,,,,,,,,,,,,,,m,1,0.6676,,,,,,,,0.087962978,-0.376851921,0,0,0,,0,96,96,67,1,POKER,LB,old,m,./images/POKERLB.png,,,,,,,,,,,,,,,,,,,,,
,,,,,,,,,,,,,,,,,199657,19,2022-01-29_12h59.22.371,lexical_decision_task_DD_L5,2021.2.3,Win32,119.3032689,,,,,,,,,,,,0.6325,1,,,,,,,,,,,,,,m,1,0.6325,,,,,,,,0.087962978,-0.376851921,0,0,0,,0,97,97,13,1,BUNNY,LB,old,m,./images/BUNNYLB.png,,,,,,,,,,,,,,,,,,,,,
,,,,,,,,,,,,,,,,,199657,19,2022-01-29_12h59.22.371,lexical_decision_task_DD_L5,2021.2.3,Win32,119.3032689,,,,,,,,,,,,0.6626,1,,,,,,,,,,,,,,m,1,0.6626,,,,,,,,0.087962978,-0.376851921,0,0,0,,0,98,98,0,1,WALNUT,HB,old,m,./images/WALNUTHB.png,,,,,,,,,,,,,,,,,,,,,
,,,,,,,,,,,,,,,,,199657,19,2022-01-29_12h59.22.371,lexical_decision_task_DD_L5,2021.2.3,Win32,119.3032689,,,,,,,,,,,,0.6673,1,,,,,,,,,,,,,,z,1,0.6673,,,,,,,,0.087962978,-0.376851921,0,0,0,,0,99,99,136,1,WERVE,HB,old,z,./images/WERVEHB.png,,,,,,,,,,,,,,,,,,,,,
,,,,,,,,,,,,,,,,,199657,19,2022-01-29_12h59.22.371,lexical_decision_task_DD_L5,2021.2.3,Win32,119.3032689,,,,,,,,,,,,0.6204,1,,,,,,,,,,,,,,m,1,0.6204,,,,,,,,0.087962978,-0.376851921,0,0,0,,0,100,100,60,1,CURRY,HB,old,m,./images/CURRYHB.png,,,,,,,,,,,,,,,,,,,,,
,,,,,,,,,,,,,,,,,199657,19,2022-01-29_12h59.22.371,lexical_decision_task_DD_L5,2021.2.3,Win32,119.3032689,,,,,,,,,,,,0.6326,1,,,,,,,,,,,,,,z,1,0.6326,,,,,,,,0.087962978,-0.376851921,0,0,0,,0,101,101,129,1,PRANS,C,old,z,./images/PRANS.png,,,,,,,,,,,,,,,,,,,,,
,,,,,,,,,,,,,,,,,199657,19,2022-01-29_12h59.22.371,lexical_decision_task_DD_L5,2021.2.3,Win32,119.3032689,,,,,,,,,,,,0.5708,1,,,,,,,,,,,,,,m,1,0.5708,,,,,,,,0.087962978,-0.376851921,0,0,0,,0,102,102,62,1,MAMMAL,C,old,m,./images/MAMMAL.png,,,,,,,,,,,,,,,,,,,,,
,,,,,,,,,,,,,,,,,199657,19,2022-01-29_12h59.22.371,lexical_decision_task_DD_L5,2021.2.3,Win32,119.3032689,,,,,,,,,,,,0.6497,1,,,,,,,,,,,,,,z,1,0.6497,,,,,,,,0.087962978,-0.376851921,0,0,0,,0,103,103,98,1,BAMPS,LB,old,z,./images/BAMPSLB.png,,,,,,,,,,,,,,,,,,,,,
,,,,,,,,,,,,,,,,,199657,19,2022-01-29_12h59.22.371,lexical_decision_task_DD_L5,2021.2.3,Win32,119.3032689,,,,,,,,,,,,0.7376,1,,,,,,,,,,,,,,z,1,0.7376,,,,,,,,0.087962978,-0.376851921,0,0,0,,0,104,104,105,1,MOKER,C,old,z,./images/MOKER.png,,,,,,,,,,,,,,,,,,,,,
,,,,,,,,,,,,,,,,,199657,19,2022-01-29_12h59.22.371,lexical_decision_task_DD_L5,2021.2.3,Win32,119.3032689,,,,,,,,,,,,0.5935,1,,,,,,,,,,,,,,z,1,0.5935,,,,,,,,0.087962978,-0.376851921,0,0,0,,0,105,105,117,1,STEEG,C,old,z,./images/STEEG.png,,,,,,,,,,,,,,,,,,,,,
,,,,,,,,,,,,,,,,,199657,19,2022-01-29_12h59.22.371,lexical_decision_task_DD_L5,2021.2.3,Win32,119.3032689,,,,,,,,,,,,0.6903,1,,,,,,,,,,,,,,z,1,0.6903,,,,,,,,0.087962978,-0.376851921,0,0,0,,0,106,106,152,1,FRAIN,LB,old,z,./images/FRAINLB.png,,,,,,,,,,,,,,,,,,,,,
,,,,,,,,,,,,,,,,,199657,19,2022-01-29_12h59.22.371,lexical_decision_task_DD_L5,2021.2.3,Win32,119.3032689,,,,,,,,,,,,0.5398,1,,,,,,,,,,,,,,m,1,0.5398,,,,,,,,0.087962978,-0.376851921,0,0,0,,0,107,107,49,1,BISHOP,LB,old,m,./images/BISHOPLB.png,,,,,,,,,,,,,,,,,,,,,
,,,,,,,,,,,,,,,,,199657,19,2022-01-29_12h59.22.371,lexical_decision_task_DD_L5,2021.2.3,Win32,119.3032689,,,,,,,,,,,,0.5575,1,,,,,,,,,,,,,,m,1,0.5575,,,,,,,,0.087962978,-0.376851921,0,0,0,,0,108,108,4,1,BOXER,LB,old,m,./images/BOXERLB.png,,,,,,,,,,,,,,,,,,,,,
,,,,,,,,,,,,,,,,,199657,19,2022-01-29_12h59.22.371,lexical_decision_task_DD_L5,2021.2.3,Win32,119.3032689,,,,,,,,,,,,0.6842,0,,,,,,,,,,,,,,z,0,0.6842,,,,,,,,0.087962978,-0.376851921,0,0,0,,0,109,109,33,1,SAUNA,HB,old,m,./images/SAUNAHB.png,,,,,,,,,,,,,,,,,,,,,
,,,,,,,,,,,,,,,,,199657,19,2022-01-29_12h59.22.371,lexical_decision_task_DD_L5,2021.2.3,Win32,119.3032689,,,,,,,,,,,,0.7937,1,,,,,,,,,,,,,,m,1,0.7937,,,,,,,,0.087962978,-0.376851921,0,0,0,,0,110,110,36,1,BOILER,HB,old,m,./images/BOILERHB.png,,,,,,,,,,,,,,,,,,,,,
,,,,,,,,,,,,,,,,,199657,19,2022-01-29_12h59.22.371,lexical_decision_task_DD_L5,2021.2.3,Win32,119.3032689,,,,,,,,,,,,0.6227,1,,,,,,,,,,,,,,z,1,0.6227,,,,,,,,0.087962978,-0.376851921,0,0,0,,0,111,111,165,1,TROWN,C,old,z,./images/TROWN.png,,,,,,,,,,,,,,,,,,,,,
,,,,,,,,,,,,,,,,,199657,19,2022-01-29_12h59.22.371,lexical_decision_task_DD_L5,2021.2.3,Win32,119.3032689,,,,,,,,,,,,1.6533,1,,,,,,,,,,,,,,z,1,1.6533,,,,,,,,0.087962978,-0.376851921,0,0,0,,0,112,112,134,1,TROSS,LB,old,z,./images/TROSSLB.png,,,,,,,,,,,,,,,,,,,,,
,,,,,,,,,,,,,,,,,199657,19,2022-01-29_12h59.22.371,lexical_decision_task_DD_L5,2021.2.3,Win32,119.3032689,,,,,,,,,,,,0.6367,1,,,,,,,,,,,,,,m,1,0.6367,,,,,,,,0.087962978,-0.376851921,0,0,0,,0,113,113,6,1,STAIN,HB,old,m,./images/STAINHB.png,,,,,,,,,,,,,,,,,,,,,
,,,,,,,,,,,,,,,,,199657,19,2022-01-29_12h59.22.371,lexical_decision_task_DD_L5,2021.2.3,Win32,119.3032689,,,,,,,,,,,,2.1425,1,,,,,,,,,,,,,,z,1,2.1425,,,,,,,,0.087962978,-0.376851921,0,0,0,,0,114,114,166,1,SHORY,HB,old,z,./images/SHORYHB.png,,,,,,,,,,,,,,,,,,,,,
,,,,,,,,,,,,,,,,,199657,19,2022-01-29_12h59.22.371,lexical_decision_task_DD_L5,2021.2.3,Win32,119.3032689,,,,,,,,,,,,0.6247,1,,,,,,,,,,,,,,m,1,0.6247,,,,,,,,0.087962978,-0.376851921,0,0,0,,0,115,115,7,1,WAGON,LB,old,m,./images/WAGONLB.png,,,,,,,,,,,,,,,,,,,,,
,,,,,,,,,,,,,,,,,199657,19,2022-01-29_12h59.22.371,lexical_decision_task_DD_L5,2021.2.3,Win32,119.3032689,,,,,,,,,,,,0.6576,1,,,,,,,,,,,,,,m,1,0.6576,,,,,,,,0.087962978,-0.376851921,0,0,0,,0,116,116,32,1,HOCKEY,C,old,m,./images/HOCKEY.png,,,,,,,,,,,,,,,,,,,,,
,,,,,,,,,,,,,,,,,199657,19,2022-01-29_12h59.22.371,lexical_decision_task_DD_L5,2021.2.3,Win32,119.3032689,,,,,,,,,,,,0.9003,1,,,,,,,,,,,,,,z,1,0.9003,,,,,,,,0.087962978,-0.376851921,0,0,0,,0,117,117,85,1,CHULK,HB,old,z,./images/CHULKHB.png,,,,,,,,,,,,,,,,,,,,,
,,,,,,,,,,,,,,,,,199657,19,2022-01-29_12h59.22.371,lexical_decision_task_DD_L5,2021.2.3,Win32,119.3032689,,,,,,,,,,,,0.6274,1,,,,,,,,,,,,,,m,1,0.6274,,,,,,,,0.087962978,-0.376851921,0,0,0,,0,118,118,38,1,ENGINE,C,old,m,./images/ENGINE.png,,,,,,,,,,,,,,,,,,,,,
,,,,,,,,,,,,,,,,,199657,19,2022-01-29_12h59.22.371,lexical_decision_task_DD_L5,2021.2.3,Win32,119.3032689,,,,,,,,,,,,0.5938,1,,,,,,,,,,,,,,m,1,0.5938,,,,,,,,0.087962978,-0.376851921,0,0,0,,0,119,119,5,1,BAMBOO,C,old,m,./images/BAMBOO.png,,,,,,,,,,,,,,,,,,,,,
,,,,,,,,,,,,,,,,,199657,19,2022-01-29_12h59.22.371,lexical_decision_task_DD_L5,2021.2.3,Win32,119.3032689,,,,,,,,,,,,0.933,1,,,,,,,,,,,,,,z,1,0.933,,,,,,,,0.087962978,-0.376851921,0,0,0,,0,120,120,162,1,LEICH,C,old,z,./images/LEICH.png,,,,,,,,,,,,,,,,,,,,,
,,,,,,,,,,,,,,,,,199657,19,2022-01-29_12h59.22.371,lexical_decision_task_DD_L5,2021.2.3,Win32,119.3032689,,,,,,,,,,,,0.7663,1,,,,,,,,,,,,,,m,1,0.7663,,,,,,,,0.087962978,-0.376851921,0,0,0,,0,121,121,35,1,LLAMA,C,old,m,./images/LLAMA.png,,,,,,,,,,,,,,,,,,,,,
,,,,,,,,,,,,,,,,,199657,19,2022-01-29_12h59.22.371,lexical_decision_task_DD_L5,2021.2.3,Win32,119.3032689,,,,,,,,,,,,0.584,1,,,,,,,,,,,,,,m,1,0.584,,,,,,,,0.087962978,-0.376851921,0,0,0,,0,122,122,28,1,CASINO,LB,old,m,./images/CASINOLB.png,,,,,,,,,,,,,,,,,,,,,
,,,,,,,,,,,,,,,,,199657,19,2022-01-29_12h59.22.371,lexical_decision_task_DD_L5,2021.2.3,Win32,119.3032689,,,,,,,,,,,,0.4284,1,,,,,,,,,,,,,,m,1,0.4284,,,,,,,,0.087962978,-0.376851921,0,0,0,,0,123,123,59,1,BRUSH,C,old,m,./images/BRUSH.png,,,,,,,,,,,,,,,,,,,,,
,,,,,,,,,,,,,,,,,199657,19,2022-01-29_12h59.22.371,lexical_decision_task_DD_L5,2021.2.3,Win32,119.3032689,,,,,,,,,,,,1.8326,1,,,,,,,,,,,,,,m,1,1.8326,,,,,,,,0.087962978,-0.376851921,0,0,0,,0,124,124,20,1,GRANNY,C,old,m,./images/GRANNY.png,,,,,,,,,,,,,,,,,,,,,
,,,,,,,,,,,,,,,,,199657,19,2022-01-29_12h59.22.371,lexical_decision_task_DD_L5,2021.2.3,Win32,119.3032689,,,,,,,,,,,,1.8409,1,,,,,,,,,,,,,,z,1,1.8409,,,,,,,,0.087962978,-0.376851921,1,0,0,,0,125,125,158,1,EGECT,LB,old,z,./images/EGECTLB.png,break_done_button,,,,,,,,,,,,,,,,,,,,
,,,,,,,,,,,,,,,,,199657,19,2022-01-29_12h59.22.371,lexical_decision_task_DD_L5,2021.2.3,Win32,119.3032689,,,,,,,,,,,,1.283,0,,,,,,,,,,,,,,z,0,1.283,,,,,,,,0.087962978,-0.376851921,0,0,0,,0,126,126,24,1,FLESH,HB,old,m,./images/FLESHHB.png,,,,,,,,,,,,,,,,,,,,,
,,,,,,,,,,,,,,,,,199657,19,2022-01-29_12h59.22.371,lexical_decision_task_DD_L5,2021.2.3,Win32,119.3032689,,,,,,,,,,,,0.6527,1,,,,,,,,,,,,,,m,1,0.6527,,,,,,,,0.087962978,-0.376851921,0,0,0,,0,127,127,61,1,ARTIST,LB,old,m,./images/ARTISTLB.png,,,,,,,,,,,,,,,,,,,,,
,,,,,,,,,,,,,,,,,199657,19,2022-01-29_12h59.22.371,lexical_decision_task_DD_L5,2021.2.3,Win32,119.3032689,,,,,,,,,,,,0.7483,1,,,,,,,,,,,,,,z,1,0.7483,,,,,,,,0.087962978,-0.376851921,0,0,0,,0,128,128,151,1,TINKY,HB,old,z,./images/TINKYHB.png,,,,,,,,,,,,,,,,,,,,,
,,,,,,,,,,,,,,,,,199657,19,2022-01-29_12h59.22.371,lexical_decision_task_DD_L5,2021.2.3,Win32,119.3032689,,,,,,,,,,,,0.6675,1,,,,,,,,,,,,,,m,1,0.6675,,,,,,,,0.087962978,-0.376851921,0,0,0,,0,129,129,29,1,PISTOL,C,old,m,./images/PISTOL.png,,,,,,,,,,,,,,,,,,,,,
,,,,,,,,,,,,,,,,,199657,19,2022-01-29_12h59.22.371,lexical_decision_task_DD_L5,2021.2.3,Win32,119.3032689,,,,,,,,,,,,0.684,1,,,,,,,,,,,,,,z,1,0.684,,,,,,,,0.087962978,-0.376851921,0,0,0,,0,130,130,122,1,BLOOT,LB,old,z,./images/BLOOTLB.png,,,,,,,,,,,,,,,,,,,,,
,,,,,,,,,,,,,,,,,199657,19,2022-01-29_12h59.22.371,lexical_decision_task_DD_L5,2021.2.3,Win32,119.3032689,,,,,,,,,,,,0.6207,1,,,,,,,,,,,,,,m,1,0.6207,,,,,,,,0.087962978,-0.376851921,0,0,0,,0,131,131,25,1,CHALK,LB,old,m,./images/CHALKLB.png,,,,,,,,,,,,,,,,,,,,,
,,,,,,,,,,,,,,,,,199657,19,2022-01-29_12h59.22.371,lexical_decision_task_DD_L5,2021.2.3,Win32,119.3032689,,,,,,,,,,,,0.9689,1,,,,,,,,,,,,,,z,1,0.9689,,,,,,,,0.087962978,-0.376851921,0,0,0,,0,132,132,115,1,MAWNS,HB,old,z,./images/MAWNSHB.png,,,,,,,,,,,,,,,,,,,,,
,,,,,,,,,,,,,,,,,199657,19,2022-01-29_12h59.22.371,lexical_decision_task_DD_L5,2021.2.3,Win32,119.3032689,,,,,,,,,,,,0.5937,1,,,,,,,,,,,,,,z,1,0.5937,,,,,,,,0.087962978,-0.376851921,0,0,0,,0,133,133,135,1,JOODY,C,old,z,./images/JOODY.png,,,,,,,,,,,,,,,,,,,,,
,,,,,,,,,,,,,,,,,199657,19,2022-01-29_12h59.22.371,lexical_decision_task_DD_L5,2021.2.3,Win32,119.3032689,,,,,,,,,,,,0.9433,1,,,,,,,,,,,,,,m,1,0.9433,,,,,,,,0.087962978,-0.376851921,0,0,0,,0,134,134,58,1,CANOE,LB,old,m,./images/CANOELB.png,,,,,,,,,,,,,,,,,,,,,
,,,,,,,,,,,,,,,,,199657,19,2022-01-29_12h59.22.371,lexical_decision_task_DD_L5,2021.2.3,Win32,119.3032689,,,,,,,,,,,,0.5788,1,,,,,,,,,,,,,,z,1,0.5788,,,,,,,,0.087962978,-0.376851921,0,0,0,,0,135,135,102,1,DULLE,C,old,z,./images/DULLE.png,,,,,,,,,,,,,,,,,,,,,
,,,,,,,,,,,,,,,,,199657,19,2022-01-29_12h59.22.371,lexical_decision_task_DD_L5,2021.2.3,Win32,119.3032689,,,,,,,,,,,,0.627,1,,,,,,,,,,,,,,m,1,0.627,,,,,,,,0.087962978,-0.376851921,0,0,0,,0,136,136,55,1,ALLEY,LB,old,m,./images/ALLEYLB.png,,,,,,,,,,,,,,,,,,,,,
,,,,,,,,,,,,,,,,,199657,19,2022-01-29_12h59.22.371,lexical_decision_task_DD_L5,2021.2.3,Win32,119.3032689,,,,,,,,,,,,0.7955,1,,,,,,,,,,,,,,m,1,0.7955,,,,,,,,0.087962978,-0.376851921,0,0,0,,0,137,137,8,1,CLIFF,C,old,m,./images/CLIFF.png,,,,,,,,,,,,,,,,,,,,,
,,,,,,,,,,,,,,,,,199657,19,2022-01-29_12h59.22.371,lexical_decision_task_DD_L5,2021.2.3,Win32,119.3032689,,,,,,,,,,,,0.6034,1,,,,,,,,,,,,,,m,1,0.6034,,,,,,,,0.087962978,-0.376851921,0,0,0,,0,138,138,79,1,RULER,LB,old,m,./images/RULERLB.png,,,,,,,,,,,,,,,,,,,,,
,,,,,,,,,,,,,,,,,199657,19,2022-01-29_12h59.22.371,lexical_decision_task_DD_L5,2021.2.3,Win32,119.3032689,,,,,,,,,,,,0.8576,1,,,,,,,,,,,,,,m,1,0.8576,,,,,,,,0.087962978,-0.376851921,0,0,0,,0,139,139,21,1,DANCER,HB,old,m,./images/DANCERHB.png,,,,,,,,,,,,,,,,,,,,,
,,,,,,,,,,,,,,,,,199657,19,2022-01-29_12h59.22.371,lexical_decision_task_DD_L5,2021.2.3,Win32,119.3032689,,,,,,,,,,,,0.6328,1,,,,,,,,,,,,,,m,1,0.6328,,,,,,,,0.087962978,-0.376851921,0,0,0,,0,140,140,2,1,STOVE,C,old,m,./images/STOVE.png,,,,,,,,,,,,,,,,,,,,,
,,,,,,,,,,,,,,,,,199657,19,2022-01-29_12h59.22.371,lexical_decision_task_DD_L5,2021.2.3,Win32,119.3032689,,,,,,,,,,,,0.6034,1,,,,,,,,,,,,,,m,1,0.6034,,,,,,,,0.087962978,-0.376851921,0,0,0,,0,141,141,50,1,PILOT,C,old,m,./images/PILOT.png,,,,,,,,,,,,,,,,,,,,,
,,,,,,,,,,,,,,,,,199657,19,2022-01-29_12h59.22.371,lexical_decision_task_DD_L5,2021.2.3,Win32,119.3032689,,,,,,,,,,,,0.6447,1,,,,,,,,,,,,,,m,1,0.6447,,,,,,,,0.087962978,-0.376851921,0,0,0,,0,142,142,40,1,SNAKE,LB,old,m,./images/SNAKELB.png,,,,,,,,,,,,,,,,,,,,,
,,,,,,,,,,,,,,,,,199657,19,2022-01-29_12h59.22.371,lexical_decision_task_DD_L5,2021.2.3,Win32,119.3032689,,,,,,,,,,,,0.8424,1,,,,,,,,,,,,,,m,1,0.8424,,,,,,,,0.087962978,-0.376851921,0,0,0,,0,143,143,18,1,PARCEL,HB,old,m,./images/PARCELHB.png,,,,,,,,,,,,,,,,,,,,,
,,,,,,,,,,,,,,,,,199657,19,2022-01-29_12h59.22.371,lexical_decision_task_DD_L5,2021.2.3,Win32,119.3032689,,,,,,,,,,,,0.9163,1,,,,,,,,,,,,,,z,1,0.9163,,,,,,,,0.087962978,-0.376851921,0,0,0,,0,144,144,113,1,LINEW,LB,old,z,./images/LINEWLB.png,,,,,,,,,,,,,,,,,,,,,
,,,,,,,,,,,,,,,,,199657,19,2022-01-29_12h59.22.371,lexical_decision_task_DD_L5,2021.2.3,Win32,119.3032689,,,,,,,,,,,,0.9164,1,,,,,,,,,,,,,,z,1,0.9164,,,,,,,,0.087962978,-0.376851921,0,0,0,,0,145,145,150,1,NOOLS,C,old,z,./images/NOOLS.png,,,,,,,,,,,,,,,,,,,,,
,,,,,,,,,,,,,,,,,199657,19,2022-01-29_12h59.22.371,lexical_decision_task_DD_L5,2021.2.3,Win32,119.3032689,,,,,,,,,,,,0.5937,1,,,,,,,,,,,,,,m,1,0.5937,,,,,,,,0.087962978,-0.376851921,0,0,0,,0,146,146,31,1,STEAK,LB,old,m,./images/STEAKLB.png,,,,,,,,,,,,,,,,,,,,,
,,,,,,,,,,,,,,,,,199657,19,2022-01-29_12h59.22.371,lexical_decision_task_DD_L5,2021.2.3,Win32,119.3032689,,,,,,,,,,,,0.7282,1,,,,,,,,,,,,,,z,1,0.7282,,,,,,,,0.087962978,-0.376851921,0,0,0,,0,147,147,124,1,TUNCH,HB,old,z,./images/TUNCHHB.png,,,,,,,,,,,,,,,,,,,,,
,,,,,,,,,,,,,,,,,199657,19,2022-01-29_12h59.22.371,lexical_decision_task_DD_L5,2021.2.3,Win32,119.3032689,,,,,,,,,,,,0.55,1,,,,,,,,,,,,,,m,1,0.55,,,,,,,,0.087962978,-0.376851921,0,0,0,,0,148,148,15,1,COLLAR,HB,old,m,./images/COLLARHB.png,,,,,,,,,,,,,,,,,,,,,
,,,,,,,,,,,,,,,,,199657,19,2022-01-29_12h59.22.371,lexical_decision_task_DD_L5,2021.2.3,Win32,119.3032689,,,,,,,,,,,,0.6504,1,,,,,,,,,,,,,,z,1,0.6504,,,,,,,,0.087962978,-0.376851921,0,0,0,,0,149,149,156,1,HIXES,C,old,z,./images/HIXES.png,,,,,,,,,,,,,,,,,,,,,
,,,,,,,,,,,,,,,,,199657,19,2022-01-29_12h59.22.371,lexical_decision_task_DD_L5,2021.2.3,Win32,119.3032689,,,,,,,,,,,,1.1359,1,,,,,,,,,,,,,,z,1,1.1359,,,,,,,,0.087962978,-0.376851921,0,0,0,,0,150,150,143,1,MONGS,LB,old,z,./images/MONGSLB.png,,,,,,,,,,,,,,,,,,,,,
,,,,,,,,,,,,,,,,,199657,19,2022-01-29_12h59.22.371,lexical_decision_task_DD_L5,2021.2.3,Win32,119.3032689,,,,,,,,,,,,0.7327,1,,,,,,,,,,,,,,z,1,0.7327,,,,,,,,0.087962978,-0.376851921,0,0,0,,0,151,151,87,1,TRING,C,old,z,./images/TRING.png,,,,,,,,,,,,,,,,,,,,,
,,,,,,,,,,,,,,,,,199657,19,2022-01-29_12h59.22.371,lexical_decision_task_DD_L5,2021.2.3,Win32,119.3032689,,,,,,,,,,,,0.5826,1,,,,,,,,,,,,,,m,1,0.5826,,,,,,,,0.087962978,-0.376851921,0,0,0,,0,152,152,76,1,MIDGET,LB,old,m,./images/MIDGETLB.png,,,,,,,,,,,,,,,,,,,,,
,,,,,,,,,,,,,,,,,199657,19,2022-01-29_12h59.22.371,lexical_decision_task_DD_L5,2021.2.3,Win32,119.3032689,,,,,,,,,,,,0.5598,1,,,,,,,,,,,,,,m,1,0.5598,,,,,,,,0.087962978,-0.376851921,0,0,0,,0,153,153,46,1,MUMMY,LB,old,m,./images/MUMMYLB.png,,,,,,,,,,,,,,,,,,,,,
,,,,,,,,,,,,,,,,,199657,19,2022-01-29_12h59.22.371,lexical_decision_task_DD_L5,2021.2.3,Win32,119.3032689,,,,,,,,,,,,0.5927,1,,,,,,,,,,,,,,m,1,0.5927,,,,,,,,0.087962978,-0.376851921,0,0,0,,0,154,154,66,1,STATUE,HB,old,m,./images/STATUEHB.png,,,,,,,,,,,,,,,,,,,,,
,,,,,,,,,,,,,,,,,199657,19,2022-01-29_12h59.22.371,lexical_decision_task_DD_L5,2021.2.3,Win32,119.3032689,,,,,,,,,,,,0.6544,1,,,,,,,,,,,,,,z,1,0.6544,,,,,,,,0.087962978,-0.376851921,0,0,0,,0,155,155,120,1,RINED,C,old,z,./images/RINED.png,,,,,,,,,,,,,,,,,,,,,
,,,,,,,,,,,,,,,,,199657,19,2022-01-29_12h59.22.371,lexical_decision_task_DD_L5,2021.2.3,Win32,119.3032689,,,,,,,,,,,,0.82,1,,,,,,,,,,,,,,z,1,0.82,,,,,,,,0.087962978,-0.376851921,0,0,0,,0,156,156,149,1,VEASE,LB,old,z,./images/VEASELB.png,,,,,,,,,,,,,,,,,,,,,
,,,,,,,,,,,,,,,,,199657,19,2022-01-29_12h59.22.371,lexical_decision_task_DD_L5,2021.2.3,Win32,119.3032689,,,,,,,,,,,,0.5343,1,,,,,,,,,,,,,,m,1,0.5343,,,,,,,,0.087962978,-0.376851921,0,0,0,,0,157,157,56,1,HEATER,C,old,m,./images/HEATER.png,,,,,,,,,,,,,,,,,,,,,
,,,,,,,,,,,,,,,,,199657,19,2022-01-29_12h59.22.371,lexical_decision_task_DD_L5,2021.2.3,Win32,119.3032689,,,,,,,,,,,,0.6446,1,,,,,,,,,,,,,,z,1,0.6446,,,,,,,,0.087962978,-0.376851921,0,0,0,,0,158,158,101,1,GLEET,LB,old,z,./images/GLEETLB.png,,,,,,,,,,,,,,,,,,,,,
,,,,,,,,,,,,,,,,,199657,19,2022-01-29_12h59.22.371,lexical_decision_task_DD_L5,2021.2.3,Win32,119.3032689,,,,,,,,,,,,0.6204,1,,,,,,,,,,,,,,m,1,0.6204,,,,,,,,0.087962978,-0.376851921,0,0,0,,0,159,159,47,1,LAGOON,C,old,m,./images/LAGOON.png,,,,,,,,,,,,,,,,,,,,,
,,,,,,,,,,,,,,,,,199657,19,2022-01-29_12h59.22.371,lexical_decision_task_DD_L5,2021.2.3,Win32,119.3032689,,,,,,,,,,,,0.5428,1,,,,,,,,,,,,,,m,1,0.5428,,,,,,,,0.087962978,-0.376851921,0,0,0,,0,160,160,16,1,GRAPE,LB,old,m,./images/GRAPELB.png,,,,,,,,,,,,,,,,,,,,,
,,,,,,,,,,,,,,,,,199657,19,2022-01-29_12h59.22.371,lexical_decision_task_DD_L5,2021.2.3,Win32,119.3032689,,,,,,,,,,,,0.5331,1,,,,,,,,,,,,,,m,1,0.5331,,,,,,,,0.087962978,-0.376851921,0,0,0,,0,161,161,43,1,STOOL,LB,old,m,./images/STOOLLB.png,,,,,,,,,,,,,,,,,,,,,
,,,,,,,,,,,,,,,,,199657,19,2022-01-29_12h59.22.371,lexical_decision_task_DD_L5,2021.2.3,Win32,119.3032689,,,,,,,,,,,,0.6326,1,,,,,,,,,,,,,,z,1,0.6326,,,,,,,,0.087962978,-0.376851921,0,0,0,,0,162,162,131,1,NACES,LB,old,z,./images/NACESLB.png,,,,,,,,,,,,,,,,,,,,,
,,,,,,,,,,,,,,,,,199657,19,2022-01-29_12h59.22.371,lexical_decision_task_DD_L5,2021.2.3,Win32,119.3032689,,,,,,,,,,,,0.5126,1,,,,,,,,,,,,,,m,1,0.5126,,,,,,,,0.087962978,-0.376851921,0,0,0,,0,163,163,23,1,CLOTH,C,old,m,./images/CLOTH.png,,,,,,,,,,,,,,,,,,,,,
,,,,,,,,,,,,,,,,,199657,19,2022-01-29_12h59.22.371,lexical_decision_task_DD_L5,2021.2.3,Win32,119.3032689,,,,,,,,,,,,0.6413,1,,,,,,,,,,,,,,m,1,0.6413,,,,,,,,0.087962978,-0.376851921,0,0,0,,0,164,164,1,1,TOWEL,LB,old,m,./images/TOWELLB.png,,,,,,,,,,,,,,,,,,,,,
,,,,,,,,,,,,,,,,,199657,19,2022-01-29_12h59.22.371,lexical_decision_task_DD_L5,2021.2.3,Win32,119.3032689,,,,,,,,,,,,0.7834,1,,,,,,,,,,,,,,z,1,0.7834,,,,,,,,0.087962978,-0.376851921,0,0,0,,0,165,165,160,1,VEETS,HB,old,z,./images/VEETSHB.png,,,,,,,,,,,,,,,,,,,,,
,,,,,,,,,,,,,,,,,199657,19,2022-01-29_12h59.22.371,lexical_decision_task_DD_L5,2021.2.3,Win32,119.3032689,,,,,,,,,,,,0.9114,1,,,,,,,,,,,,,,z,1,0.9114,,,,,,,,0.087962978,-0.376851921,0,0,0,,0,166,166,155,1,CANGY,LB,old,z,./images/CANGYLB.png,,,,,,,,,,,,,,,,,,,,,
,,,,,,,,,,,,,,,,,199657,19,2022-01-29_12h59.22.371,lexical_decision_task_DD_L5,2021.2.3,Win32,119.3032689,,,,,,,,,,,,0.8223,1,,,,,,,,,,,,,,z,1,0.8223,,,,,,,,0.087962978,-0.376851921,0,0,0,,0,167,167,89,1,DRIEK,LB,old,z,./images/DRIEKLB.png,,,,,,,,,,,,,,,,,,,,,
,-0.091666655,-0.383333346,1,0,0,instr_done_button,,,,,,1,test,"In the next phase you will be presented with the words from the the first phase. Your job is to decide whether you remember seeing the word or not. If you remember seeing the word press ""old"" or type ""m"". If you do not remember seeing the word press ""new"" or type ""z"". Please press the space bar or click on continue to begin. ",,,199657,19,2022-01-29_12h59.22.371,lexical_decision_task_DD_L5,2021.2.3,Win32,119.3032689,,,,,,,,,,,,,,,,,,,,,,,,,,,,,,,,,,,,,,,,,,,,,,,,,,,,,,0,0,0,0,1,,,,,,,,,,,,,,,
,0.023148162,-0.39537044,1,0,0,instr_done_button,,,,,,1,test,"In the next phase you will be presented with the words from the the first phase. Your job is to decide whether you remember seeing the word or not. If you remember seeing the word press ""old"" or type ""m"". If you do not remember seeing the word press ""new"" or type ""z"". Please press the space bar or click on continue to begin. ",,,199657,19,2022-01-29_12h59.22.371,lexical_decision_task_DD_L5,2021.2.3,Win32,119.3032689,,,,,,,,,,,,,,,,,,,,,,,,,,,,,,,,,,,,,,,,,,,,,,,,,,,,,,1,0,1,0,1,,,,,,,,,,,,,,,
,0.077777792,-0.368518531,1,0,0,instr_done_button,,,,,,1,test,"In the next phase you will be presented with the words from the the first phase. Your job is to decide whether you remember seeing the word or not. If you remember seeing the word press ""old"" or type ""m"". If you do not remember seeing the word press ""new"" or type ""z"". Please press the space bar or click on continue to begin. ",,,199657,19,2022-01-29_12h59.22.371,lexical_decision_task_DD_L5,2021.2.3,Win32,119.3032689,,,,,,,,,,,,,,,,,,,,,,,,,,,,,,,,,,,,,,,,,,,,,,,,,,,,,,2,0,2,0,1,,,,,,,,,,,,,,,
,0.022222236,-0.383333346,1,0,0,instr_done_button,,,,,,1,test,"In the next phase you will be presented with the words from the the first phase. Your job is to decide whether you remember seeing the word or not. If you remember seeing the word press ""old"" or type ""m"". If you do not remember seeing the word press ""new"" or type ""z"". Please press the space bar or click on continue to begin. ",,,199657,19,2022-01-29_12h59.22.371,lexical_decision_task_DD_L5,2021.2.3,Win32,119.3032689,,,,,,,,,,,,,,,,,,,,,,,,,,,,,,,,,,,,,,,,,,,,,,,,,,,,,,3,0,3,0,1,,,,,,,,,,,,,,,
,0.023148162,-0.402777791,1,0,0,instr_done_button,,,,,,1,test,"In the next phase you will be presented with the words from the the first phase. Your job is to decide whether you remember seeing the word or not. If you remember seeing the word press ""old"" or type ""m"". If you do not remember seeing the word press ""new"" or type ""z"". Please press the space bar or click on continue to begin. ",,,199657,19,2022-01-29_12h59.22.371,lexical_decision_task_DD_L5,2021.2.3,Win32,119.3032689,,,,,,,,,,,,,,,,,,,,,,,,,,,,,,,,,,,,,,,,,,,,,,,,,,,,,,4,0,4,0,1,,,,,,,,,,,,,,,
,,,,,,,,,,,,,,,,,199657,19,2022-01-29_12h59.22.371,lexical_decision_task_DD_L5,2021.2.3,Win32,119.3032689,,,,,,,,,,,,3.968,1,,,,,,,,,,,,,,,,,,,,,,,,0.022222236,-0.189814825,0,0,0,,,,,,,DOUGH,LB,z,y,./images/DOUGHLB.png,,,,,,,z,1,3.968,,,,,,,,0,0,0,103,1
,,,,,,,,,,,,,,,,,199657,19,2022-01-29_12h59.22.371,lexical_decision_task_DD_L5,2021.2.3,Win32,119.3032689,,,,,,,,,,,,1.0498,1,,,,,,,,,,,,,,,,,,,,,,,,0.022222236,-0.189814825,0,0,0,,,,,,,CRADLE,C,z,y,./images/CRADLE.png,,,,,,,z,1,1.0498,,,,,,,,0,1,1,104,1
,,,,,,,,,,,,,,,,,199657,19,2022-01-29_12h59.22.371,lexical_decision_task_DD_L5,2021.2.3,Win32,119.3032689,,,,,,,,,,,,0.707,1,,,,,,,,,,,,,,,,,,,,,,,,0.022222236,-0.189814825,0,0,0,,,,,,,SPINE,C,m,y,./images/SPINE.png,,,,,,,m,1,0.707,,,,,,,,0,2,2,65,1
,,,,,,,,,,,,,,,,,199657,19,2022-01-29_12h59.22.371,lexical_decision_task_DD_L5,2021.2.3,Win32,119.3032689,,,,,,,,,,,,1.1681,1,,,,,,,,,,,,,,,,,,,,,,,,0.022222236,-0.189814825,0,0,0,,,,,,,PEARL,LB,z,y,./images/PEARLLB.png,,,,,,,z,1,1.1681,,,,,,,,0,3,3,130,1
,,,,,,,,,,,,,,,,,199657,19,2022-01-29_12h59.22.371,lexical_decision_task_DD_L5,2021.2.3,Win32,119.3032689,,,,,,,,,,,,1.0422,1,,,,,,,,,,,,,,,,,,,,,,,,0.022222236,-0.189814825,0,0,0,,,,,,,TOMATO,HB,z,y,./images/TOMATOHB.png,,,,,,,z,1,1.0422,,,,,,,,0,4,4,84,1
,,,,,,,,,,,,,,,,,199657,19,2022-01-29_12h59.22.371,lexical_decision_task_DD_L5,2021.2.3,Win32,119.3032689,,,,,,,,,,,,1.0081,1,,,,,,,,,,,,,,,,,,,,,,,,0.022222236,-0.189814825,0,0,0,,,,,,,CASINO,LB,m,y,./images/CASINOLB.png,,,,,,,m,1,1.0081,,,,,,,,0,5,5,28,1
,,,,,,,,,,,,,,,,,199657,19,2022-01-29_12h59.22.371,lexical_decision_task_DD_L5,2021.2.3,Win32,119.3032689,,,,,,,,,,,,0.6252,1,,,,,,,,,,,,,,,,,,,,,,,,0.022222236,-0.189814825,0,0,0,,,,,,,MIDGET,LB,m,y,./images/MIDGETLB.png,,,,,,,m,1,0.6252,,,,,,,,0,6,6,76,1
,,,,,,,,,,,,,,,,,199657,19,2022-01-29_12h59.22.371,lexical_decision_task_DD_L5,2021.2.3,Win32,119.3032689,,,,,,,,,,,,0.5955,1,,,,,,,,,,,,,,,,,,,,,,,,0.022222236,-0.189814825,0,0,0,,,,,,,HOCKEY,C,m,y,./images/HOCKEY.png,,,,,,,m,1,0.5955,,,,,,,,0,7,7,32,1
,,,,,,,,,,,,,,,,,199657,19,2022-01-29_12h59.22.371,lexical_decision_task_DD_L5,2021.2.3,Win32,119.3032689,,,,,,,,,,,,0.5533,1,,,,,,,,,,,,,,,,,,,,,,,,0.022222236,-0.189814825,0,0,0,,,,,,,CHALK,LB,m,y,./images/CHALKLB.png,,,,,,,m,1,0.5533,,,,,,,,0,8,8,25,1
,,,,,,,,,,,,,,,,,199657,19,2022-01-29_12h59.22.371,lexical_decision_task_DD_L5,2021.2.3,Win32,119.3032689,,,,,,,,,,,,0.7687,1,,,,,,,,,,,,,,,,,,,,,,,,0.022222236,-0.189814825,0,0,0,,,,,,,STOVE,C,m,y,./images/STOVE.png,,,,,,,m,1,0.7687,,,,,,,,0,9,9,2,1
,,,,,,,,,,,,,,,,,199657,19,2022-01-29_12h59.22.371,lexical_decision_task_DD_L5,2021.2.3,Win32,119.3032689,,,,,,,,,,,,1.3293,1,,,,,,,,,,,,,,,,,,,,,,,,0.022222236,-0.189814825,0,0,0,,,,,,,PEACH,C,z,y,./images/PEACH.png,,,,,,,z,1,1.3293,,,,,,,,0,10,10,119,1
,,,,,,,,,,,,,,,,,199657,19,2022-01-29_12h59.22.371,lexical_decision_task_DD_L5,2021.2.3,Win32,119.3032689,,,,,,,,,,,,0.9279,0,,,,,,,,,,,,,,,,,,,,,,,,0.022222236,-0.189814825,0,0,0,,,,,,,SLOPE,HB,m,y,./images/SLOPEHB.png,,,,,,,z,0,0.9279,,,,,,,,0,11,11,30,1
,,,,,,,,,,,,,,,,,199657,19,2022-01-29_12h59.22.371,lexical_decision_task_DD_L5,2021.2.3,Win32,119.3032689,,,,,,,,,,,,0.8245,1,,,,,,,,,,,,,,,,,,,,,,,,0.022222236,-0.189814825,0,0,0,,,,,,,FERRY,HB,m,y,./images/FERRYHB.png,,,,,,,m,1,0.8245,,,,,,,,0,12,12,57,1
,,,,,,,,,,,,,,,,,199657,19,2022-01-29_12h59.22.371,lexical_decision_task_DD_L5,2021.2.3,Win32,119.3032689,,,,,,,,,,,,0.7964,1,,,,,,,,,,,,,,,,,,,,,,,,0.022222236,-0.189814825,0,0,0,,,,,,,PEBBLE,LB,m,y,./images/PEBBLELB.png,,,,,,,m,1,0.7964,,,,,,,,0,13,13,82,1
,,,,,,,,,,,,,,,,,199657,19,2022-01-29_12h59.22.371,lexical_decision_task_DD_L5,2021.2.3,Win32,119.3032689,,,,,,,,,,,,0.5748,0,,,,,,,,,,,,,,,,,,,,,,,,0.022222236,-0.189814825,0,0,0,,,,,,,CARPET,C,z,y,./images/CARPET.png,,,,,,,m,0,0.5748,,,,,,,,0,14,14,137,1
,,,,,,,,,,,,,,,,,199657,19,2022-01-29_12h59.22.371,lexical_decision_task_DD_L5,2021.2.3,Win32,119.3032689,,,,,,,,,,,,1.0165,1,,,,,,,,,,,,,,,,,,,,,,,,0.022222236,-0.189814825,0,0,0,,,,,,,MOSQUE,LB,z,y,./images/MOSQUELB.png,,,,,,,z,1,1.0165,,,,,,,,0,15,15,127,1
,,,,,,,,,,,,,,,,,199657,19,2022-01-29_12h59.22.371,lexical_decision_task_DD_L5,2021.2.3,Win32,119.3032689,,,,,,,,,,,,0.8167,1,,,,,,,,,,,,,,,,,,,,,,,,0.022222236,-0.189814825,0,0,0,,,,,,,MELON,LB,z,y,./images/MELONLB.png,,,,,,,z,1,0.8167,,,,,,,,0,16,16,106,1
,,,,,,,,,,,,,,,,,199657,19,2022-01-29_12h59.22.371,lexical_decision_task_DD_L5,2021.2.3,Win32,119.3032689,,,,,,,,,,,,0.7755,1,,,,,,,,,,,,,,,,,,,,,,,,0.022222236,-0.189814825,0,0,0,,,,,,,MAGGOT,HB,z,y,./images/MAGGOTHB.png,,,,,,,z,1,0.7755,,,,,,,,0,17,17,117,1
,,,,,,,,,,,,,,,,,199657,19,2022-01-29_12h59.22.371,lexical_decision_task_DD_L5,2021.2.3,Win32,119.3032689,,,,,,,,,,,,0.7746,1,,,,,,,,,,,,,,,,,,,,,,,,0.022222236,-0.189814825,0,0,0,,,,,,,CLIFF,C,m,y,./images/CLIFF.png,,,,,,,m,1,0.7746,,,,,,,,0,18,18,8,1
,,,,,,,,,,,,,,,,,199657,19,2022-01-29_12h59.22.371,lexical_decision_task_DD_L5,2021.2.3,Win32,119.3032689,,,,,,,,,,,,0.8307,1,,,,,,,,,,,,,,,,,,,,,,,,0.022222236,-0.189814825,0,0,0,,,,,,,LITTER,HB,z,y,./images/LITTERHB.png,,,,,,,z,1,0.8307,,,,,,,,0,19,19,162,1
,,,,,,,,,,,,,,,,,199657,19,2022-01-29_12h59.22.371,lexical_decision_task_DD_L5,2021.2.3,Win32,119.3032689,,,,,,,,,,,,0.7341,1,,,,,,,,,,,,,,,,,,,,,,,,0.022222236,-0.189814825,0,0,0,,,,,,,CANDY,HB,m,y,./images/CANDYHB.png,,,,,,,m,1,0.7341,,,,,,,,0,20,20,39,1
,,,,,,,,,,,,,,,,,199657,19,2022-01-29_12h59.22.371,lexical_decision_task_DD_L5,2021.2.3,Win32,119.3032689,,,,,,,,,,,,1.0938,1,,,,,,,,,,,,,,,,,,,,,,,,0.022222236,-0.189814825,0,0,0,,,,,,,BRUSH,C,m,y,./images/BRUSH.png,,,,,,,m,1,1.0938,,,,,,,,0,21,21,59,1
,,,,,,,,,,,,,,,,,199657,19,2022-01-29_12h59.22.371,lexical_decision_task_DD_L5,2021.2.3,Win32,119.3032689,,,,,,,,,,,,0.641,1,,,,,,,,,,,,,,,,,,,,,,,,0.022222236,-0.189814825,0,0,0,,,,,,,ARTIST,LB,m,y,./images/ARTISTLB.png,,,,,,,m,1,0.641,,,,,,,,0,22,22,61,1
,,,,,,,,,,,,,,,,,199657,19,2022-01-29_12h59.22.371,lexical_decision_task_DD_L5,2021.2.3,Win32,119.3032689,,,,,,,,,,,,0.7335,1,,,,,,,,,,,,,,,,,,,,,,,,0.022222236,-0.189814825,0,0,0,,,,,,,SQUARE,HB,z,y,./images/SQUAREHB.png,,,,,,,z,1,0.7335,,,,,,,,0,23,23,90,1
,,,,,,,,,,,,,,,,,199657,19,2022-01-29_12h59.22.371,lexical_decision_task_DD_L5,2021.2.3,Win32,119.3032689,,,,,,,,,,,,0.6836,1,,,,,,,,,,,,,,,,,,,,,,,,0.022222236,-0.189814825,0,0,0,,,,,,,DIVER,HB,m,y,./images/DIVERHB.png,,,,,,,m,1,0.6836,,,,,,,,0,24,24,9,1
,,,,,,,,,,,,,,,,,199657,19,2022-01-29_12h59.22.371,lexical_decision_task_DD_L5,2021.2.3,Win32,119.3032689,,,,,,,,,,,,1.3083,1,,,,,,,,,,,,,,,,,,,,,,,,0.022222236,-0.189814825,0,0,0,,,,,,,DRUMS,LB,z,y,./images/DRUMSLB.png,,,,,,,z,1,1.3083,,,,,,,,0,25,25,133,1
,,,,,,,,,,,,,,,,,199657,19,2022-01-29_12h59.22.371,lexical_decision_task_DD_L5,2021.2.3,Win32,119.3032689,,,,,,,,,,,,1.2028,1,,,,,,,,,,,,,,,,,,,,,,,,0.022222236,-0.189814825,0,0,0,,,,,,,BARREL,C,z,y,./images/BARREL.png,,,,,,,z,1,1.2028,,,,,,,,0,26,26,116,1
,,,,,,,,,,,,,,,,,199657,19,2022-01-29_12h59.22.371,lexical_decision_task_DD_L5,2021.2.3,Win32,119.3032689,,,,,,,,,,,,0.6498,1,,,,,,,,,,,,,,,,,,,,,,,,0.022222236,-0.189814825,0,0,0,,,,,,,RULER,LB,m,y,./images/RULERLB.png,,,,,,,m,1,0.6498,,,,,,,,0,27,27,79,1
,,,,,,,,,,,,,,,,,199657,19,2022-01-29_12h59.22.371,lexical_decision_task_DD_L5,2021.2.3,Win32,119.3032689,,,,,,,,,,,,0.5498,1,,,,,,,,,,,,,,,,,,,,,,,,0.022222236,-0.189814825,0,0,0,,,,,,,BANANA,LB,m,y,./images/BANANALB.png,,,,,,,m,1,0.5498,,,,,,,,0,28,28,70,1
,,,,,,,,,,,,,,,,,199657,19,2022-01-29_12h59.22.371,lexical_decision_task_DD_L5,2021.2.3,Win32,119.3032689,,,,,,,,,,,,0.5914,1,,,,,,,,,,,,,,,,,,,,,,,,0.022222236,-0.189814825,0,0,0,,,,,,,BAKER,HB,m,y,./images/BAKERHB.png,,,,,,,m,1,0.5914,,,,,,,,0,29,29,63,1
,,,,,,,,,,,,,,,,,199657,19,2022-01-29_12h59.22.371,lexical_decision_task_DD_L5,2021.2.3,Win32,119.3032689,,,,,,,,,,,,0.6383,1,,,,,,,,,,,,,,,,,,,,,,,,0.022222236,-0.189814825,0,0,0,,,,,,,CURRY,HB,m,y,./images/CURRYHB.png,,,,,,,m,1,0.6383,,,,,,,,0,30,30,60,1
,,,,,,,,,,,,,,,,,199657,19,2022-01-29_12h59.22.371,lexical_decision_task_DD_L5,2021.2.3,Win32,119.3032689,,,,,,,,,,,,0.7944,1,,,,,,,,,,,,,,,,,,,,,,,,0.022222236,-0.189814825,0,0,0,,,,,,,GRAPE,LB,m,y,./images/GRAPELB.png,,,,,,,m,1,0.7944,,,,,,,,0,31,31,16,1
,,,,,,,,,,,,,,,,,199657,19,2022-01-29_12h59.22.371,lexical_decision_task_DD_L5,2021.2.3,Win32,119.3032689,,,,,,,,,,,,0.7578,1,,,,,,,,,,,,,,,,,,,,,,,,0.022222236,-0.189814825,0,0,0,,,,,,,MEDAL,C,m,y,./images/MEDAL.png,,,,,,,m,1,0.7578,,,,,,,,0,32,32,11,1
,,,,,,,,,,,,,,,,,199657,19,2022-01-29_12h59.22.371,lexical_decision_task_DD_L5,2021.2.3,Win32,119.3032689,,,,,,,,,,,,0.7164,1,,,,,,,,,,,,,,,,,,,,,,,,0.022222236,-0.189814825,0,0,0,,,,,,,FALCON,LB,z,y,./images/FALCONLB.png,,,,,,,z,1,0.7164,,,,,,,,0,33,33,112,1
,,,,,,,,,,,,,,,,,199657,19,2022-01-29_12h59.22.371,lexical_decision_task_DD_L5,2021.2.3,Win32,119.3032689,,,,,,,,,,,,1.1357,1,,,,,,,,,,,,,,,,,,,,,,,,0.022222236,-0.189814825,0,0,0,,,,,,,FLESH,HB,m,y,./images/FLESHHB.png,,,,,,,m,1,1.1357,,,,,,,,0,34,34,24,1
,,,,,,,,,,,,,,,,,199657,19,2022-01-29_12h59.22.371,lexical_decision_task_DD_L5,2021.2.3,Win32,119.3032689,,,,,,,,,,,,0.6411,1,,,,,,,,,,,,,,,,,,,,,,,,0.022222236,-0.189814825,0,0,0,,,,,,,BAMBOO,C,m,y,./images/BAMBOO.png,,,,,,,m,1,0.6411,,,,,,,,0,35,35,5,1
,,,,,,,,,,,,,,,,,199657,19,2022-01-29_12h59.22.371,lexical_decision_task_DD_L5,2021.2.3,Win32,119.3032689,,,,,,,,,,,,0.7455,1,,,,,,,,,,,,,,,,,,,,,,,,0.022222236,-0.189814825,0,0,0,,,,,,,TWINS,HB,z,y,./images/TWINSHB.png,,,,,,,z,1,0.7455,,,,,,,,0,36,36,144,1
,,,,,,,,,,,,,,,,,199657,19,2022-01-29_12h59.22.371,lexical_decision_task_DD_L5,2021.2.3,Win32,119.3032689,,,,,,,,,,,,0.5498,1,,,,,,,,,,,,,,,,,,,,,,,,0.022222236,-0.189814825,0,0,0,,,,,,,CHERRY,HB,m,y,./images/CHERRYHB.png,,,,,,,m,1,0.5498,,,,,,,,0,37,37,54,1
,,,,,,,,,,,,,,,,,199657,19,2022-01-29_12h59.22.371,lexical_decision_task_DD_L5,2021.2.3,Win32,119.3032689,,,,,,,,,,,,0.6047,1,,,,,,,,,,,,,,,,,,,,,,,,0.022222236,-0.189814825,0,0,0,,,,,,,MONKEY,HB,m,y,./images/MONKEYHB.png,,,,,,,m,1,0.6047,,,,,,,,0,38,38,45,1
,,,,,,,,,,,,,,,,,199657,19,2022-01-29_12h59.22.371,lexical_decision_task_DD_L5,2021.2.3,Win32,119.3032689,,,,,,,,,,,,0.8386,1,,,,,,,,,,,,,,,,,,,,,,,,0.022222236,-0.189814825,0,0,0,,,,,,,STREAM,C,m,y,./images/STREAM.png,,,,,,,m,1,0.8386,,,,,,,,0,39,39,41,1
,,,,,,,,,,,,,,,,,199657,19,2022-01-29_12h59.22.371,lexical_decision_task_DD_L5,2021.2.3,Win32,119.3032689,,,,,,,,,,,,0.9181,1,,,,,,,,,,,,,,,,,,,,,,,,0.022222236,-0.189814825,0,0,0,,,,,,,TORCH,C,z,y,./images/TORCH.png,,,,,,,z,1,0.9181,,,,,,,,0,40,40,152,1
,,,,,,,,,,,,,,,,,199657,19,2022-01-29_12h59.22.371,lexical_decision_task_DD_L5,2021.2.3,Win32,119.3032689,,,,,,,,,,,,0.6419,1,,,,,,,,,,,,,,,,,,,,,,,,-0.010185172,-0.399074087,1,0,0,,,,,,,BASKET,C,m,y,./images/BASKET.png,break_done_button,,,,,,m,1,0.6419,,,,,,,,0,41,41,44,1
,,,,,,,,,,,,,,,,,199657,19,2022-01-29_12h59.22.371,lexical_decision_task_DD_L5,2021.2.3,Win32,119.3032689,,,,,,,,,,,,1.1669,1,,,,,,,,,,,,,,,,,,,,,,,,0.062962977,-0.23796303,0,0,0,,,,,,,LIZARD,C,z,y,./images/LIZARD.png,,,,,,,z,1,1.1669,,,,,,,,0,42,42,128,1
,,,,,,,,,,,,,,,,,199657,19,2022-01-29_12h59.22.371,lexical_decision_task_DD_L5,2021.2.3,Win32,119.3032689,,,,,,,,,,,,0.8937,1,,,,,,,,,,,,,,,,,,,,,,,,0.062962977,-0.23796303,0,0,0,,,,,,,LADDER,C,z,y,./images/LADDER.png,,,,,,,z,1,0.8937,,,,,,,,0,43,43,122,1
,,,,,,,,,,,,,,,,,199657,19,2022-01-29_12h59.22.371,lexical_decision_task_DD_L5,2021.2.3,Win32,119.3032689,,,,,,,,,,,,0.7412,1,,,,,,,,,,,,,,,,,,,,,,,,0.062962977,-0.23796303,0,0,0,,,,,,,PLANK,LB,z,y,./images/PLANKLB.png,,,,,,,z,1,0.7412,,,,,,,,0,44,44,85,1
,,,,,,,,,,,,,,,,,199657,19,2022-01-29_12h59.22.371,lexical_decision_task_DD_L5,2021.2.3,Win32,119.3032689,,,,,,,,,,,,2.4245,1,,,,,,,,,,,,,,,,,,,,,,,,0.062962977,-0.23796303,0,0,0,,,,,,,SHORE,HB,z,y,./images/SHOREHB.png,,,,,,,z,1,2.4245,,,,,,,,0,45,45,96,1
,,,,,,,,,,,,,,,,,199657,19,2022-01-29_12h59.22.371,lexical_decision_task_DD_L5,2021.2.3,Win32,119.3032689,,,,,,,,,,,,0.8513,1,,,,,,,,,,,,,,,,,,,,,,,,0.062962977,-0.23796303,0,0,0,,,,,,,CLOUD,C,m,y,./images/CLOUD.png,,,,,,,m,1,0.8513,,,,,,,,0,46,46,26,1
,,,,,,,,,,,,,,,,,199657,19,2022-01-29_12h59.22.371,lexical_decision_task_DD_L5,2021.2.3,Win32,119.3032689,,,,,,,,,,,,0.5912,1,,,,,,,,,,,,,,,,,,,,,,,,0.062962977,-0.23796303,0,0,0,,,,,,,TOWEL,LB,m,y,./images/TOWELLB.png,,,,,,,m,1,0.5912,,,,,,,,0,47,47,1,1
,,,,,,,,,,,,,,,,,199657,19,2022-01-29_12h59.22.371,lexical_decision_task_DD_L5,2021.2.3,Win32,119.3032689,,,,,,,,,,,,0.6523,1,,,,,,,,,,,,,,,,,,,,,,,,0.062962977,-0.23796303,0,0,0,,,,,,,RHINO,HB,z,y,./images/RHINOHB.png,,,,,,,z,1,0.6523,,,,,,,,0,48,48,93,1
,,,,,,,,,,,,,,,,,199657,19,2022-01-29_12h59.22.371,lexical_decision_task_DD_L5,2021.2.3,Win32,119.3032689,,,,,,,,,,,,0.5757,0,,,,,,,,,,,,,,,,,,,,,,,,0.062962977,-0.23796303,0,0,0,,,,,,,MOTOR,LB,z,y,./images/MOTORLB.png,,,,,,,m,0,0.5757,,,,,,,,0,49,49,97,1
,,,,,,,,,,,,,,,,,199657,19,2022-01-29_12h59.22.371,lexical_decision_task_DD_L5,2021.2.3,Win32,119.3032689,,,,,,,,,,,,0.6421,1,,,,,,,,,,,,,,,,,,,,,,,,0.062962977,-0.23796303,0,0,0,,,,,,,SHIELD,HB,m,y,./images/SHIELDHB.png,,,,,,,m,1,0.6421,,,,,,,,0,50,50,48,1
,,,,,,,,,,,,,,,,,199657,19,2022-01-29_12h59.22.371,lexical_decision_task_DD_L5,2021.2.3,Win32,119.3032689,,,,,,,,,,,,0.8619,1,,,,,,,,,,,,,,,,,,,,,,,,0.062962977,-0.23796303,0,0,0,,,,,,,INFANT,LB,z,y,./images/INFANTLB.png,,,,,,,z,1,0.8619,,,,,,,,0,51,51,160,1
,,,,,,,,,,,,,,,,,199657,19,2022-01-29_12h59.22.371,lexical_decision_task_DD_L5,2021.2.3,Win32,119.3032689,,,,,,,,,,,,0.5822,1,,,,,,,,,,,,,,,,,,,,,,,,0.062962977,-0.23796303,0,0,0,,,,,,,CRATER,HB,m,y,./images/CRATERHB.png,,,,,,,m,1,0.5822,,,,,,,,0,52,52,3,1
,,,,,,,,,,,,,,,,,199657,19,2022-01-29_12h59.22.371,lexical_decision_task_DD_L5,2021.2.3,Win32,119.3032689,,,,,,,,,,,,0.601,1,,,,,,,,,,,,,,,,,,,,,,,,0.062962977,-0.23796303,0,0,0,,,,,,,WALNUT,HB,m,y,./images/WALNUTHB.png,,,,,,,m,1,0.601,,,,,,,,0,53,53,0,1
,,,,,,,,,,,,,,,,,199657,19,2022-01-29_12h59.22.371,lexical_decision_task_DD_L5,2021.2.3,Win32,119.3032689,,,,,,,,,,,,0.7167,1,,,,,,,,,,,,,,,,,,,,,,,,0.062962977,-0.23796303,0,0,0,,,,,,,COOKER,HB,z,y,./images/COOKERHB.png,,,,,,,z,1,0.7167,,,,,,,,0,54,54,153,1
,,,,,,,,,,,,,,,,,199657,19,2022-01-29_12h59.22.371,lexical_decision_task_DD_L5,2021.2.3,Win32,119.3032689,,,,,,,,,,,,0.5873,1,,,,,,,,,,,,,,,,,,,,,,,,0.062962977,-0.23796303,0,0,0,,,,,,,COLLAR,HB,m,y,./images/COLLARHB.png,,,,,,,m,1,0.5873,,,,,,,,0,55,55,15,1
,,,,,,,,,,,,,,,,,199657,19,2022-01-29_12h59.22.371,lexical_decision_task_DD_L5,2021.2.3,Win32,119.3032689,,,,,,,,,,,,1.0375,1,,,,,,,,,,,,,,,,,,,,,,,,0.062962977,-0.23796303,0,0,0,,,,,,,SNACK,LB,z,y,./images/SNACKLB.png,,,,,,,z,1,1.0375,,,,,,,,0,56,56,157,1
,,,,,,,,,,,,,,,,,199657,19,2022-01-29_12h59.22.371,lexical_decision_task_DD_L5,2021.2.3,Win32,119.3032689,,,,,,,,,,,,0.9596,1,,,,,,,,,,,,,,,,,,,,,,,,0.062962977,-0.23796303,0,0,0,,,,,,,COUCH,C,z,y,./images/COUCH.png,,,,,,,z,1,0.9596,,,,,,,,0,57,57,161,1
,,,,,,,,,,,,,,,,,199657,19,2022-01-29_12h59.22.371,lexical_decision_task_DD_L5,2021.2.3,Win32,119.3032689,,,,,,,,,,,,1.8761,1,,,,,,,,,,,,,,,,,,,,,,,,0.062962977,-0.23796303,0,0,0,,,,,,,BUTTER,HB,m,y,./images/BUTTERHB.png,,,,,,,m,1,1.8761,,,,,,,,0,58,58,27,1
,,,,,,,,,,,,,,,,,199657,19,2022-01-29_12h59.22.371,lexical_decision_task_DD_L5,2021.2.3,Win32,119.3032689,,,,,,,,,,,,0.9665,1,,,,,,,,,,,,,,,,,,,,,,,,0.062962977,-0.23796303,0,0,0,,,,,,,CHAIN,HB,m,y,./images/CHAINHB.png,,,,,,,m,1,0.9665,,,,,,,,0,59,59,42,1
,,,,,,,,,,,,,,,,,199657,19,2022-01-29_12h59.22.371,lexical_decision_task_DD_L5,2021.2.3,Win32,119.3032689,,,,,,,,,,,,0.8832,1,,,,,,,,,,,,,,,,,,,,,,,,0.062962977,-0.23796303,0,0,0,,,,,,,PURSE,C,z,y,./images/PURSE.png,,,,,,,z,1,0.8832,,,,,,,,0,60,60,146,1
,,,,,,,,,,,,,,,,,199657,19,2022-01-29_12h59.22.371,lexical_decision_task_DD_L5,2021.2.3,Win32,119.3032689,,,,,,,,,,,,0.7013,1,,,,,,,,,,,,,,,,,,,,,,,,0.062962977,-0.23796303,0,0,0,,,,,,,STORM,HB,z,y,./images/STORMHB.png,,,,,,,z,1,0.7013,,,,,,,,0,61,61,114,1
,,,,,,,,,,,,,,,,,199657,19,2022-01-29_12h59.22.371,lexical_decision_task_DD_L5,2021.2.3,Win32,119.3032689,,,,,,,,,,,,0.658,1,,,,,,,,,,,,,,,,,,,,,,,,0.062962977,-0.23796303,0,0,0,,,,,,,POKER,LB,m,y,./images/POKERLB.png,,,,,,,m,1,0.658,,,,,,,,0,62,62,67,1
,,,,,,,,,,,,,,,,,199657,19,2022-01-29_12h59.22.371,lexical_decision_task_DD_L5,2021.2.3,Win32,119.3032689,,,,,,,,,,,,0.7337,1,,,,,,,,,,,,,,,,,,,,,,,,0.062962977,-0.23796303,0,0,0,,,,,,,CANOE,LB,m,y,./images/CANOELB.png,,,,,,,m,1,0.7337,,,,,,,,0,63,63,58,1
,,,,,,,,,,,,,,,,,199657,19,2022-01-29_12h59.22.371,lexical_decision_task_DD_L5,2021.2.3,Win32,119.3032689,,,,,,,,,,,,0.7415,1,,,,,,,,,,,,,,,,,,,,,,,,0.062962977,-0.23796303,0,0,0,,,,,,,JUNGLE,C,z,y,./images/JUNGLE.png,,,,,,,z,1,0.7415,,,,,,,,0,64,64,167,1
,,,,,,,,,,,,,,,,,199657,19,2022-01-29_12h59.22.371,lexical_decision_task_DD_L5,2021.2.3,Win32,119.3032689,,,,,,,,,,,,0.6581,1,,,,,,,,,,,,,,,,,,,,,,,,0.062962977,-0.23796303,0,0,0,,,,,,,GARDEN,LB,m,y,./images/GARDENLB.png,,,,,,,m,1,0.6581,,,,,,,,0,65,65,10,1
,,,,,,,,,,,,,,,,,199657,19,2022-01-29_12h59.22.371,lexical_decision_task_DD_L5,2021.2.3,Win32,119.3032689,,,,,,,,,,,,0.6246,1,,,,,,,,,,,,,,,,,,,,,,,,0.062962977,-0.23796303,0,0,0,,,,,,,WAGON,LB,m,y,./images/WAGONLB.png,,,,,,,m,1,0.6246,,,,,,,,0,66,66,7,1
,,,,,,,,,,,,,,,,,199657,19,2022-01-29_12h59.22.371,lexical_decision_task_DD_L5,2021.2.3,Win32,119.3032689,,,,,,,,,,,,0.5768,1,,,,,,,,,,,,,,,,,,,,,,,,0.062962977,-0.23796303,0,0,0,,,,,,,DESERT,LB,m,y,./images/DESERTLB.png,,,,,,,m,1,0.5768,,,,,,,,0,67,67,52,1
,,,,,,,,,,,,,,,,,199657,19,2022-01-29_12h59.22.371,lexical_decision_task_DD_L5,2021.2.3,Win32,119.3032689,,,,,,,,,,,,1.2853,0,,,,,,,,,,,,,,,,,,,,,,,,0.062962977,-0.23796303,0,0,0,,,,,,,SHELF,HB,z,y,./images/SHELFHB.png,,,,,,,m,0,1.2853,,,,,,,,0,68,68,123,1
,,,,,,,,,,,,,,,,,199657,19,2022-01-29_12h59.22.371,lexical_decision_task_DD_L5,2021.2.3,Win32,119.3032689,,,,,,,,,,,,0.811,1,,,,,,,,,,,,,,,,,,,,,,,,0.062962977,-0.23796303,0,0,0,,,,,,,BURIAL,C,z,y,./images/BURIAL.png,,,,,,,z,1,0.811,,,,,,,,0,69,69,143,1
,,,,,,,,,,,,,,,,,199657,19,2022-01-29_12h59.22.371,lexical_decision_task_DD_L5,2021.2.3,Win32,119.3032689,,,,,,,,,,,,0.7998,1,,,,,,,,,,,,,,,,,,,,,,,,0.062962977,-0.23796303,0,0,0,,,,,,,FINGER,HB,z,y,./images/FINGERHB.png,,,,,,,z,1,0.7998,,,,,,,,0,70,70,87,1
,,,,,,,,,,,,,,,,,199657,19,2022-01-29_12h59.22.371,lexical_decision_task_DD_L5,2021.2.3,Win32,119.3032689,,,,,,,,,,,,0.9673,1,,,,,,,,,,,,,,,,,,,,,,,,0.062962977,-0.23796303,0,0,0,,,,,,,WHEEL,C,m,y,./images/WHEEL.png,,,,,,,m,1,0.9673,,,,,,,,0,71,71,77,1
,,,,,,,,,,,,,,,,,199657,19,2022-01-29_12h59.22.371,lexical_decision_task_DD_L5,2021.2.3,Win32,119.3032689,,,,,,,,,,,,0.9415,1,,,,,,,,,,,,,,,,,,,,,,,,0.062962977,-0.23796303,0,0,0,,,,,,,CEMENT,C,z,y,./images/CEMENT.png,,,,,,,z,1,0.9415,,,,,,,,0,72,72,158,1
,,,,,,,,,,,,,,,,,199657,19,2022-01-29_12h59.22.371,lexical_decision_task_DD_L5,2021.2.3,Win32,119.3032689,,,,,,,,,,,,0.7549,0,,,,,,,,,,,,,,,,,,,,,,,,0.062962977,-0.23796303,0,0,0,,,,,,,SMOKER,C,z,y,./images/SMOKER.png,,,,,,,m,0,0.7549,,,,,,,,0,73,73,110,1
,,,,,,,,,,,,,,,,,199657,19,2022-01-29_12h59.22.371,lexical_decision_task_DD_L5,2021.2.3,Win32,119.3032689,,,,,,,,,,,,0.6432,1,,,,,,,,,,,,,,,,,,,,,,,,0.062962977,-0.23796303,0,0,0,,,,,,,STAIN,HB,m,y,./images/STAINHB.png,,,,,,,m,1,0.6432,,,,,,,,0,74,74,6,1
,,,,,,,,,,,,,,,,,199657,19,2022-01-29_12h59.22.371,lexical_decision_task_DD_L5,2021.2.3,Win32,119.3032689,,,,,,,,,,,,0.76,1,,,,,,,,,,,,,,,,,,,,,,,,0.062962977,-0.23796303,0,0,0,,,,,,,CRUMB,C,z,y,./images/CRUMB.png,,,,,,,z,1,0.76,,,,,,,,0,75,75,113,1
,,,,,,,,,,,,,,,,,199657,19,2022-01-29_12h59.22.371,lexical_decision_task_DD_L5,2021.2.3,Win32,119.3032689,,,,,,,,,,,,0.8277,1,,,,,,,,,,,,,,,,,,,,,,,,0.062962977,-0.23796303,0,0,0,,,,,,,KITTEN,HB,z,y,./images/KITTENHB.png,,,,,,,z,1,0.8277,,,,,,,,0,76,76,129,1
,,,,,,,,,,,,,,,,,199657,19,2022-01-29_12h59.22.371,lexical_decision_task_DD_L5,2021.2.3,Win32,119.3032689,,,,,,,,,,,,0.7082,1,,,,,,,,,,,,,,,,,,,,,,,,0.062962977,-0.23796303,0,0,0,,,,,,,FLASK,HB,m,y,./images/FLASKHB.png,,,,,,,m,1,0.7082,,,,,,,,0,77,77,72,1
,,,,,,,,,,,,,,,,,199657,19,2022-01-29_12h59.22.371,lexical_decision_task_DD_L5,2021.2.3,Win32,119.3032689,,,,,,,,,,,,0.6913,1,,,,,,,,,,,,,,,,,,,,,,,,0.062962977,-0.23796303,0,0,0,,,,,,,ONION,HB,z,y,./images/ONIONHB.png,,,,,,,z,1,0.6913,,,,,,,,0,78,78,135,1
,,,,,,,,,,,,,,,,,199657,19,2022-01-29_12h59.22.371,lexical_decision_task_DD_L5,2021.2.3,Win32,119.3032689,,,,,,,,,,,,0.7669,0,,,,,,,,,,,,,,,,,,,,,,,,0.062962977,-0.23796303,0,0,0,,,,,,,PASTA,C,z,y,./images/PASTA.png,,,,,,,m,0,0.7669,,,,,,,,0,79,79,89,1
,,,,,,,,,,,,,,,,,199657,19,2022-01-29_12h59.22.371,lexical_decision_task_DD_L5,2021.2.3,Win32,119.3032689,,,,,,,,,,,,1.0633,1,,,,,,,,,,,,,,,,,,,,,,,,0.062962977,-0.23796303,0,0,0,,,,,,,PIMPLE,C,z,y,./images/PIMPLE.png,,,,,,,z,1,1.0633,,,,,,,,0,80,80,155,1
,,,,,,,,,,,,,,,,,199657,19,2022-01-29_12h59.22.371,lexical_decision_task_DD_L5,2021.2.3,Win32,119.3032689,,,,,,,,,,,,4.483,0,,,,,,,,,,,,,,,,,,,,,,,,0.062962977,-0.23796303,0,0,0,,,,,,,BRIDE,LB,m,y,./images/BRIDELB.png,,,,,,,z,0,4.483,,,,,,,,0,81,81,64,1
,,,,,,,,,,,,,,,,,199657,19,2022-01-29_12h59.22.371,lexical_decision_task_DD_L5,2021.2.3,Win32,119.3032689,,,,,,,,,,,,0.9367,1,,,,,,,,,,,,,,,,,,,,,,,,0.062962977,-0.23796303,0,0,0,,,,,,,SUNSET,LB,z,y,./images/SUNSETLB.png,,,,,,,z,1,0.9367,,,,,,,,0,82,82,166,1
,,,,,,,,,,,,,,,,,199657,19,2022-01-29_12h59.22.371,lexical_decision_task_DD_L5,2021.2.3,Win32,119.3032689,,,,,,,,,,,,0.9749,1,,,,,,,,,,,,,,,,,,,,,,,,0.028703717,-0.409259329,1,0,0,,,,,,,SAUNA,HB,m,y,./images/SAUNAHB.png,break_done_button,,,,,,m,1,0.9749,,,,,,,,0,83,83,33,1
,,,,,,,,,,,,,,,,,199657,19,2022-01-29_12h59.22.371,lexical_decision_task_DD_L5,2021.2.3,Win32,119.3032689,,,,,,,,,,,,1.6217,1,,,,,,,,,,,,,,,,,,,,,,,,0.037037051,-0.40000007,0,0,0,,,,,,,BEARD,C,z,y,./images/BEARD.png,,,,,,,z,1,1.6217,,,,,,,,0,84,84,86,1
,,,,,,,,,,,,,,,,,199657,19,2022-01-29_12h59.22.371,lexical_decision_task_DD_L5,2021.2.3,Win32,119.3032689,,,,,,,,,,,,1.2278,1,,,,,,,,,,,,,,,,,,,,,,,,0.037037051,-0.40000007,0,0,0,,,,,,,CANYON,LB,z,y,./images/CANYONLB.png,,,,,,,z,1,1.2278,,,,,,,,0,85,85,118,1
,,,,,,,,,,,,,,,,,199657,19,2022-01-29_12h59.22.371,lexical_decision_task_DD_L5,2021.2.3,Win32,119.3032689,,,,,,,,,,,,0.8163,1,,,,,,,,,,,,,,,,,,,,,,,,0.037037051,-0.40000007,0,0,0,,,,,,,WHISKY,C,m,y,./images/WHISKY.png,,,,,,,m,1,0.8163,,,,,,,,0,86,86,83,1
,,,,,,,,,,,,,,,,,199657,19,2022-01-29_12h59.22.371,lexical_decision_task_DD_L5,2021.2.3,Win32,119.3032689,,,,,,,,,,,,0.6931,1,,,,,,,,,,,,,,,,,,,,,,,,0.037037051,-0.40000007,0,0,0,,,,,,,GRANNY,C,m,y,./images/GRANNY.png,,,,,,,m,1,0.6931,,,,,,,,0,87,87,20,1
,,,,,,,,,,,,,,,,,199657,19,2022-01-29_12h59.22.371,lexical_decision_task_DD_L5,2021.2.3,Win32,119.3032689,,,,,,,,,,,,0.7082,1,,,,,,,,,,,,,,,,,,,,,,,,0.037037051,-0.40000007,0,0,0,,,,,,,QUILL,LB,z,y,./images/QUILLLB.png,,,,,,,z,1,0.7082,,,,,,,,0,88,88,115,1
,,,,,,,,,,,,,,,,,199657,19,2022-01-29_12h59.22.371,lexical_decision_task_DD_L5,2021.2.3,Win32,119.3032689,,,,,,,,,,,,1.2579,1,,,,,,,,,,,,,,,,,,,,,,,,0.037037051,-0.40000007,0,0,0,,,,,,,POODLE,HB,z,y,./images/POODLEHB.png,,,,,,,z,1,1.2579,,,,,,,,0,89,89,165,1
,,,,,,,,,,,,,,,,,199657,19,2022-01-29_12h59.22.371,lexical_decision_task_DD_L5,2021.2.3,Win32,119.3032689,,,,,,,,,,,,0.6267,1,,,,,,,,,,,,,,,,,,,,,,,,0.037037051,-0.40000007,0,0,0,,,,,,,CLOTH,C,m,y,./images/CLOTH.png,,,,,,,m,1,0.6267,,,,,,,,0,90,90,23,1
,,,,,,,,,,,,,,,,,199657,19,2022-01-29_12h59.22.371,lexical_decision_task_DD_L5,2021.2.3,Win32,119.3032689,,,,,,,,,,,,0.6872,1,,,,,,,,,,,,,,,,,,,,,,,,0.037037051,-0.40000007,0,0,0,,,,,,,VALLEY,C,m,y,./images/VALLEY.png,,,,,,,m,1,0.6872,,,,,,,,0,91,91,68,1
,,,,,,,,,,,,,,,,,199657,19,2022-01-29_12h59.22.371,lexical_decision_task_DD_L5,2021.2.3,Win32,119.3032689,,,,,,,,,,,,0.9249,1,,,,,,,,,,,,,,,,,,,,,,,,0.037037051,-0.40000007,0,0,0,,,,,,,FARMER,C,z,y,./images/FARMER.png,,,,,,,z,1,0.9249,,,,,,,,0,92,92,149,1
,,,,,,,,,,,,,,,,,199657,19,2022-01-29_12h59.22.371,lexical_decision_task_DD_L5,2021.2.3,Win32,119.3032689,,,,,,,,,,,,0.8677,1,,,,,,,,,,,,,,,,,,,,,,,,0.037037051,-0.40000007,0,0,0,,,,,,,GRAIN,HB,z,y,./images/GRAINHB.png,,,,,,,z,1,0.8677,,,,,,,,0,93,93,159,1
,,,,,,,,,,,,,,,,,199657,19,2022-01-29_12h59.22.371,lexical_decision_task_DD_L5,2021.2.3,Win32,119.3032689,,,,,,,,,,,,0.634,1,,,,,,,,,,,,,,,,,,,,,,,,0.037037051,-0.40000007,0,0,0,,,,,,,STOOL,LB,m,y,./images/STOOLLB.png,,,,,,,m,1,0.634,,,,,,,,0,94,94,43,1
,,,,,,,,,,,,,,,,,199657,19,2022-01-29_12h59.22.371,lexical_decision_task_DD_L5,2021.2.3,Win32,119.3032689,,,,,,,,,,,,0.6498,1,,,,,,,,,,,,,,,,,,,,,,,,0.037037051,-0.40000007,0,0,0,,,,,,,SNAKE,LB,m,y,./images/SNAKELB.png,,,,,,,m,1,0.6498,,,,,,,,0,95,95,40,1
,,,,,,,,,,,,,,,,,199657,19,2022-01-29_12h59.22.371,lexical_decision_task_DD_L5,2021.2.3,Win32,119.3032689,,,,,,,,,,,,0.7665,1,,,,,,,,,,,,,,,,,,,,,,,,0.037037051,-0.40000007,0,0,0,,,,,,,TRIPOD,HB,z,y,./images/TRIPODHB.png,,,,,,,z,1,0.7665,,,,,,,,0,96,96,138,1
,,,,,,,,,,,,,,,,,199657,19,2022-01-29_12h59.22.371,lexical_decision_task_DD_L5,2021.2.3,Win32,119.3032689,,,,,,,,,,,,0.5581,1,,,,,,,,,,,,,,,,,,,,,,,,0.037037051,-0.40000007,0,0,0,,,,,,,DONKEY,LB,m,y,./images/DONKEYLB.png,,,,,,,m,1,0.5581,,,,,,,,0,97,97,19,1
,,,,,,,,,,,,,,,,,199657,19,2022-01-29_12h59.22.371,lexical_decision_task_DD_L5,2021.2.3,Win32,119.3032689,,,,,,,,,,,,0.6,1,,,,,,,,,,,,,,,,,,,,,,,,0.037037051,-0.40000007,0,0,0,,,,,,,HAMMER,HB,m,y,./images/HAMMERHB.png,,,,,,,m,1,0.6,,,,,,,,0,98,98,75,1
,,,,,,,,,,,,,,,,,199657,19,2022-01-29_12h59.22.371,lexical_decision_task_DD_L5,2021.2.3,Win32,119.3032689,,,,,,,,,,,,0.5846,1,,,,,,,,,,,,,,,,,,,,,,,,0.037037051,-0.40000007,0,0,0,,,,,,,ALLEY,LB,m,y,./images/ALLEYLB.png,,,,,,,m,1,0.5846,,,,,,,,0,99,99,55,1
,,,,,,,,,,,,,,,,,199657,19,2022-01-29_12h59.22.371,lexical_decision_task_DD_L5,2021.2.3,Win32,119.3032689,,,,,,,,,,,,0.8413,0,,,,,,,,,,,,,,,,,,,,,,,,0.037037051,-0.40000007,0,0,0,,,,,,,PLANET,C,m,y,./images/PLANET.png,,,,,,,z,0,0.8413,,,,,,,,0,100,100,80,1
,,,,,,,,,,,,,,,,,199657,19,2022-01-29_12h59.22.371,lexical_decision_task_DD_L5,2021.2.3,Win32,119.3032689,,,,,,,,,,,,0.5498,1,,,,,,,,,,,,,,,,,,,,,,,,0.037037051,-0.40000007,0,0,0,,,,,,,CLOWN,LB,m,y,./images/CLOWNLB.png,,,,,,,m,1,0.5498,,,,,,,,0,101,101,22,1
,,,,,,,,,,,,,,,,,199657,19,2022-01-29_12h59.22.371,lexical_decision_task_DD_L5,2021.2.3,Win32,119.3032689,,,,,,,,,,,,0.7875,1,,,,,,,,,,,,,,,,,,,,,,,,0.037037051,-0.40000007,0,0,0,,,,,,,BONNET,C,z,y,./images/BONNET.png,,,,,,,z,1,0.7875,,,,,,,,0,102,102,95,1
,,,,,,,,,,,,,,,,,199657,19,2022-01-29_12h59.22.371,lexical_decision_task_DD_L5,2021.2.3,Win32,119.3032689,,,,,,,,,,,,0.7796,1,,,,,,,,,,,,,,,,,,,,,,,,0.037037051,-0.40000007,0,0,0,,,,,,,MUFFIN,LB,z,y,./images/MUFFINLB.png,,,,,,,z,1,0.7796,,,,,,,,0,103,103,139,1
,,,,,,,,,,,,,,,,,199657,19,2022-01-29_12h59.22.371,lexical_decision_task_DD_L5,2021.2.3,Win32,119.3032689,,,,,,,,,,,,0.7333,0,,,,,,,,,,,,,,,,,,,,,,,,0.037037051,-0.40000007,0,0,0,,,,,,,BLOKE,HB,m,y,./images/BLOKEHB.png,,,,,,,z,0,0.7333,,,,,,,,0,104,104,12,1
,,,,,,,,,,,,,,,,,199657,19,2022-01-29_12h59.22.371,lexical_decision_task_DD_L5,2021.2.3,Win32,119.3032689,,,,,,,,,,,,0.836,1,,,,,,,,,,,,,,,,,,,,,,,,0.037037051,-0.40000007,0,0,0,,,,,,,MIRROR,HB,z,y,./images/MIRRORHB.png,,,,,,,z,1,0.836,,,,,,,,0,105,105,147,1
,,,,,,,,,,,,,,,,,199657,19,2022-01-29_12h59.22.371,lexical_decision_task_DD_L5,2021.2.3,Win32,119.3032689,,,,,,,,,,,,0.5998,1,,,,,,,,,,,,,,,,,,,,,,,,0.037037051,-0.40000007,0,0,0,,,,,,,BOXER,LB,m,y,./images/BOXERLB.png,,,,,,,m,1,0.5998,,,,,,,,0,106,106,4,1
,,,,,,,,,,,,,,,,,199657,19,2022-01-29_12h59.22.371,lexical_decision_task_DD_L5,2021.2.3,Win32,119.3032689,,,,,,,,,,,,0.7063,1,,,,,,,,,,,,,,,,,,,,,,,,0.037037051,-0.40000007,0,0,0,,,,,,,BELLY,LB,z,y,./images/BELLYLB.png,,,,,,,z,1,0.7063,,,,,,,,0,107,107,94,1
,,,,,,,,,,,,,,,,,199657,19,2022-01-29_12h59.22.371,lexical_decision_task_DD_L5,2021.2.3,Win32,119.3032689,,,,,,,,,,,,2.3233,1,,,,,,,,,,,,,,,,,,,,,,,,0.037037051,-0.40000007,0,0,0,,,,,,,CRUST,LB,z,y,./images/CRUSTLB.png,,,,,,,z,1,2.3233,,,,,,,,0,108,108,163,1
,,,,,,,,,,,,,,,,,199657,19,2022-01-29_12h59.22.371,lexical_decision_task_DD_L5,2021.2.3,Win32,119.3032689,,,,,,,,,,,,0.6267,1,,,,,,,,,,,,,,,,,,,,,,,,0.037037051,-0.40000007,0,0,0,,,,,,,ARROW,HB,m,y,./images/ARROWHB.png,,,,,,,m,1,0.6267,,,,,,,,0,109,109,69,1
,,,,,,,,,,,,,,,,,199657,19,2022-01-29_12h59.22.371,lexical_decision_task_DD_L5,2021.2.3,Win32,119.3032689,,,,,,,,,,,,0.6511,1,,,,,,,,,,,,,,,,,,,,,,,,0.037037051,-0.40000007,0,0,0,,,,,,,PARCEL,HB,m,y,./images/PARCELHB.png,,,,,,,m,1,0.6511,,,,,,,,0,110,110,18,1
,,,,,,,,,,,,,,,,,199657,19,2022-01-29_12h59.22.371,lexical_decision_task_DD_L5,2021.2.3,Win32,119.3032689,,,,,,,,,,,,0.6965,1,,,,,,,,,,,,,,,,,,,,,,,,0.037037051,-0.40000007,0,0,0,,,,,,,BIRTH,LB,z,y,./images/BIRTHLB.png,,,,,,,z,1,0.6965,,,,,,,,0,111,111,121,1
,,,,,,,,,,,,,,,,,199657,19,2022-01-29_12h59.22.371,lexical_decision_task_DD_L5,2021.2.3,Win32,119.3032689,,,,,,,,,,,,0.894,1,,,,,,,,,,,,,,,,,,,,,,,,0.037037051,-0.40000007,0,0,0,,,,,,,WEASEL,C,z,y,./images/WEASEL.png,,,,,,,z,1,0.894,,,,,,,,0,112,112,164,1
,,,,,,,,,,,,,,,,,199657,19,2022-01-29_12h59.22.371,lexical_decision_task_DD_L5,2021.2.3,Win32,119.3032689,,,,,,,,,,,,1.1798,1,,,,,,,,,,,,,,,,,,,,,,,,0.037037051,-0.40000007,0,0,0,,,,,,,BERRY,C,z,y,./images/BERRY.png,,,,,,,z,1,1.1798,,,,,,,,0,113,113,131,1
,,,,,,,,,,,,,,,,,199657,19,2022-01-29_12h59.22.371,lexical_decision_task_DD_L5,2021.2.3,Win32,119.3032689,,,,,,,,,,,,1.0881,1,,,,,,,,,,,,,,,,,,,,,,,,0.037037051,-0.40000007,0,0,0,,,,,,,SWEAT,HB,z,y,./images/SWEATHB.png,,,,,,,z,1,1.0881,,,,,,,,0,114,114,150,1
,,,,,,,,,,,,,,,,,199657,19,2022-01-29_12h59.22.371,lexical_decision_task_DD_L5,2021.2.3,Win32,119.3032689,,,,,,,,,,,,0.7945,0,,,,,,,,,,,,,,,,,,,,,,,,0.037037051,-0.40000007,0,0,0,,,,,,,PAINT,LB,z,y,./images/PAINTLB.png,,,,,,,m,0,0.7945,,,,,,,,0,115,115,91,1
,,,,,,,,,,,,,,,,,199657,19,2022-01-29_12h59.22.371,lexical_decision_task_DD_L5,2021.2.3,Win32,119.3032689,,,,,,,,,,,,0.6336,1,,,,,,,,,,,,,,,,,,,,,,,,0.037037051,-0.40000007,0,0,0,,,,,,,BISHOP,LB,m,y,./images/BISHOPLB.png,,,,,,,m,1,0.6336,,,,,,,,0,116,116,49,1
,,,,,,,,,,,,,,,,,199657,19,2022-01-29_12h59.22.371,lexical_decision_task_DD_L5,2021.2.3,Win32,119.3032689,,,,,,,,,,,,1.3043,1,,,,,,,,,,,,,,,,,,,,,,,,0.037037051,-0.40000007,0,0,0,,,,,,,BROOM,HB,m,y,./images/BROOMHB.png,,,,,,,m,1,1.3043,,,,,,,,0,117,117,78,1
,,,,,,,,,,,,,,,,,199657,19,2022-01-29_12h59.22.371,lexical_decision_task_DD_L5,2021.2.3,Win32,119.3032689,,,,,,,,,,,,0.6586,1,,,,,,,,,,,,,,,,,,,,,,,,0.037037051,-0.40000007,0,0,0,,,,,,,MAMMAL,C,m,y,./images/MAMMAL.png,,,,,,,m,1,0.6586,,,,,,,,0,118,118,62,1
,,,,,,,,,,,,,,,,,199657,19,2022-01-29_12h59.22.371,lexical_decision_task_DD_L5,2021.2.3,Win32,119.3032689,,,,,,,,,,,,0.6116,0,,,,,,,,,,,,,,,,,,,,,,,,0.037037051,-0.40000007,0,0,0,,,,,,,KIDNEY,HB,z,y,./images/KIDNEYHB.png,,,,,,,m,0,0.6116,,,,,,,,0,119,119,105,1
,,,,,,,,,,,,,,,,,199657,19,2022-01-29_12h59.22.371,lexical_decision_task_DD_L5,2021.2.3,Win32,119.3032689,,,,,,,,,,,,0.9189,1,,,,,,,,,,,,,,,,,,,,,,,,0.037037051,-0.40000007,0,0,0,,,,,,,JELLY,LB,z,y,./images/JELLYLB.png,,,,,,,z,1,0.9189,,,,,,,,0,120,120,148,1
,,,,,,,,,,,,,,,,,199657,19,2022-01-29_12h59.22.371,lexical_decision_task_DD_L5,2021.2.3,Win32,119.3032689,,,,,,,,,,,,1.1249,0,,,,,,,,,,,,,,,,,,,,,,,,0.037037051,-0.40000007,0,0,0,,,,,,,ENGINE,C,m,y,./images/ENGINE.png,,,,,,,z,0,1.1249,,,,,,,,0,121,121,38,1
,,,,,,,,,,,,,,,,,199657,19,2022-01-29_12h59.22.371,lexical_decision_task_DD_L5,2021.2.3,Win32,119.3032689,,,,,,,,,,,,0.7679,1,,,,,,,,,,,,,,,,,,,,,,,,0.037037051,-0.40000007,0,0,0,,,,,,,PARADE,C,m,y,./images/PARADE.png,,,,,,,m,1,0.7679,,,,,,,,0,122,122,17,1
,,,,,,,,,,,,,,,,,199657,19,2022-01-29_12h59.22.371,lexical_decision_task_DD_L5,2021.2.3,Win32,119.3032689,,,,,,,,,,,,1.8624,0,,,,,,,,,,,,,,,,,,,,,,,,0.037037051,-0.40000007,0,0,0,,,,,,,BUBBLE,C,m,y,./images/BUBBLE.png,,,,,,,z,0,1.8624,,,,,,,,0,123,123,71,1
,,,,,,,,,,,,,,,,,199657,19,2022-01-29_12h59.22.371,lexical_decision_task_DD_L5,2021.2.3,Win32,119.3032689,,,,,,,,,,,,0.6414,1,,,,,,,,,,,,,,,,,,,,,,,,0.037037051,-0.40000007,0,0,0,,,,,,,DANCER,HB,m,y,./images/DANCERHB.png,,,,,,,m,1,0.6414,,,,,,,,0,124,124,21,1
,,,,,,,,,,,,,,,,,199657,19,2022-01-29_12h59.22.371,lexical_decision_task_DD_L5,2021.2.3,Win32,119.3032689,,,,,,,,,,,,1.0074,1,,,,,,,,,,,,,,,,,,,,,,,,0.037037051,-0.40000007,1,0,0,,,,,,,THROAT,HB,z,y,./images/THROATHB.png,break_done_button,,,,,,z,1,1.0074,,,,,,,,0,125,125,120,1
,,,,,,,,,,,,,,,,,199657,19,2022-01-29_12h59.22.371,lexical_decision_task_DD_L5,2021.2.3,Win32,119.3032689,,,,,,,,,,,,1.0251,1,,,,,,,,,,,,,,,,,,,,,,,,0.037037051,-0.40000007,0,0,0,,,,,,,MUSCLE,LB,z,y,./images/MUSCLELB.png,,,,,,,z,1,1.0251,,,,,,,,0,126,126,88,1
,,,,,,,,,,,,,,,,,199657,19,2022-01-29_12h59.22.371,lexical_decision_task_DD_L5,2021.2.3,Win32,119.3032689,,,,,,,,,,,,1.7082,1,,,,,,,,,,,,,,,,,,,,,,,,0.037037051,-0.40000007,0,0,0,,,,,,,SCREW,HB,z,y,./images/SCREWHB.png,,,,,,,z,1,1.7082,,,,,,,,0,127,127,108,1
,,,,,,,,,,,,,,,,,199657,19,2022-01-29_12h59.22.371,lexical_decision_task_DD_L5,2021.2.3,Win32,119.3032689,,,,,,,,,,,,1.0963,1,,,,,,,,,,,,,,,,,,,,,,,,0.037037051,-0.40000007,0,0,0,,,,,,,PACKET,C,z,y,./images/PACKET.png,,,,,,,z,1,1.0963,,,,,,,,0,128,128,140,1
,,,,,,,,,,,,,,,,,199657,19,2022-01-29_12h59.22.371,lexical_decision_task_DD_L5,2021.2.3,Win32,119.3032689,,,,,,,,,,,,0.808,1,,,,,,,,,,,,,,,,,,,,,,,,0.037037051,-0.40000007,0,0,0,,,,,,,SKIING,C,z,y,./images/SKIING.png,,,,,,,z,1,0.808,,,,,,,,0,129,129,101,1
,,,,,,,,,,,,,,,,,199657,19,2022-01-29_12h59.22.371,lexical_decision_task_DD_L5,2021.2.3,Win32,119.3032689,,,,,,,,,,,,0.7531,1,,,,,,,,,,,,,,,,,,,,,,,,0.037037051,-0.40000007,0,0,0,,,,,,,TULIP,C,z,y,./images/TULIP.png,,,,,,,z,1,0.7531,,,,,,,,0,130,130,92,1
,,,,,,,,,,,,,,,,,199657,19,2022-01-29_12h59.22.371,lexical_decision_task_DD_L5,2021.2.3,Win32,119.3032689,,,,,,,,,,,,0.6604,1,,,,,,,,,,,,,,,,,,,,,,,,0.037037051,-0.40000007,0,0,0,,,,,,,GLOVE,LB,m,y,./images/GLOVELB.png,,,,,,,m,1,0.6604,,,,,,,,0,131,131,73,1
,,,,,,,,,,,,,,,,,199657,19,2022-01-29_12h59.22.371,lexical_decision_task_DD_L5,2021.2.3,Win32,119.3032689,,,,,,,,,,,,0.9333,1,,,,,,,,,,,,,,,,,,,,,,,,0.037037051,-0.40000007,0,0,0,,,,,,,LAGOON,C,m,y,./images/LAGOON.png,,,,,,,m,1,0.9333,,,,,,,,0,132,132,47,1
,,,,,,,,,,,,,,,,,199657,19,2022-01-29_12h59.22.371,lexical_decision_task_DD_L5,2021.2.3,Win32,119.3032689,,,,,,,,,,,,0.9216,1,,,,,,,,,,,,,,,,,,,,,,,,0.037037051,-0.40000007,0,0,0,,,,,,,PICKLE,C,z,y,./images/PICKLE.png,,,,,,,z,1,0.9216,,,,,,,,0,133,133,98,1
,,,,,,,,,,,,,,,,,199657,19,2022-01-29_12h59.22.371,lexical_decision_task_DD_L5,2021.2.3,Win32,119.3032689,,,,,,,,,,,,1.2414,1,,,,,,,,,,,,,,,,,,,,,,,,0.037037051,-0.40000007,0,0,0,,,,,,,HEATER,C,m,y,./images/HEATER.png,,,,,,,m,1,1.2414,,,,,,,,0,134,134,56,1
,,,,,,,,,,,,,,,,,199657,19,2022-01-29_12h59.22.371,lexical_decision_task_DD_L5,2021.2.3,Win32,119.3032689,,,,,,,,,,,,0.8838,1,,,,,,,,,,,,,,,,,,,,,,,,0.037037051,-0.40000007,0,0,0,,,,,,,BANNER,LB,z,y,./images/BANNERLB.png,,,,,,,z,1,0.8838,,,,,,,,0,135,135,136,1
,,,,,,,,,,,,,,,,,199657,19,2022-01-29_12h59.22.371,lexical_decision_task_DD_L5,2021.2.3,Win32,119.3032689,,,,,,,,,,,,0.7176,1,,,,,,,,,,,,,,,,,,,,,,,,0.037037051,-0.40000007,0,0,0,,,,,,,NOOSE,HB,z,y,./images/NOOSEHB.png,,,,,,,z,1,0.7176,,,,,,,,0,136,136,156,1
,,,,,,,,,,,,,,,,,199657,19,2022-01-29_12h59.22.371,lexical_decision_task_DD_L5,2021.2.3,Win32,119.3032689,,,,,,,,,,,,0.8345,1,,,,,,,,,,,,,,,,,,,,,,,,0.037037051,-0.40000007,0,0,0,,,,,,,SWING,LB,z,y,./images/SWINGLB.png,,,,,,,z,1,0.8345,,,,,,,,0,137,137,124,1
,,,,,,,,,,,,,,,,,199657,19,2022-01-29_12h59.22.371,lexical_decision_task_DD_L5,2021.2.3,Win32,119.3032689,,,,,,,,,,,,2.1705,1,,,,,,,,,,,,,,,,,,,,,,,,0.037037051,-0.40000007,0,0,0,,,,,,,BABOON,LB,z,y,./images/BABOONLB.png,,,,,,,z,1,2.1705,,,,,,,,0,138,138,142,1
,,,,,,,,,,,,,,,,,199657,19,2022-01-29_12h59.22.371,lexical_decision_task_DD_L5,2021.2.3,Win32,119.3032689,,,,,,,,,,,,0.5916,1,,,,,,,,,,,,,,,,,,,,,,,,0.037037051,-0.40000007,0,0,0,,,,,,,MUMMY,LB,m,y,./images/MUMMYLB.png,,,,,,,m,1,0.5916,,,,,,,,0,139,139,46,1
,,,,,,,,,,,,,,,,,199657,19,2022-01-29_12h59.22.371,lexical_decision_task_DD_L5,2021.2.3,Win32,119.3032689,,,,,,,,,,,,0.9334,1,,,,,,,,,,,,,,,,,,,,,,,,0.037037051,-0.40000007,0,0,0,,,,,,,PISTOL,C,m,y,./images/PISTOL.png,,,,,,,m,1,0.9334,,,,,,,,0,140,140,29,1
,,,,,,,,,,,,,,,,,199657,19,2022-01-29_12h59.22.371,lexical_decision_task_DD_L5,2021.2.3,Win32,119.3032689,,,,,,,,,,,,0.5915,1,,,,,,,,,,,,,,,,,,,,,,,,0.037037051,-0.40000007,0,0,0,,,,,,,BOILER,HB,m,y,./images/BOILERHB.png,,,,,,,m,1,0.5915,,,,,,,,0,141,141,36,1
,,,,,,,,,,,,,,,,,199657,19,2022-01-29_12h59.22.371,lexical_decision_task_DD_L5,2021.2.3,Win32,119.3032689,,,,,,,,,,,,0.8922,0,,,,,,,,,,,,,,,,,,,,,,,,0.037037051,-0.40000007,0,0,0,,,,,,,BUNNY,LB,m,y,./images/BUNNYLB.png,,,,,,,z,0,0.8922,,,,,,,,0,142,142,13,1
,,,,,,,,,,,,,,,,,199657,19,2022-01-29_12h59.22.371,lexical_decision_task_DD_L5,2021.2.3,Win32,119.3032689,,,,,,,,,,,,0.7085,1,,,,,,,,,,,,,,,,,,,,,,,,0.037037051,-0.40000007,0,0,0,,,,,,,URINE,LB,z,y,./images/URINELB.png,,,,,,,z,1,0.7085,,,,,,,,0,143,143,154,1
,,,,,,,,,,,,,,,,,199657,19,2022-01-29_12h59.22.371,lexical_decision_task_DD_L5,2021.2.3,Win32,119.3032689,,,,,,,,,,,,0.7271,1,,,,,,,,,,,,,,,,,,,,,,,,0.037037051,-0.40000007,0,0,0,,,,,,,SAILOR,LB,z,y,./images/SAILORLB.png,,,,,,,z,1,0.7271,,,,,,,,0,144,144,151,1
,,,,,,,,,,,,,,,,,199657,19,2022-01-29_12h59.22.371,lexical_decision_task_DD_L5,2021.2.3,Win32,119.3032689,,,,,,,,,,,,0.7456,1,,,,,,,,,,,,,,,,,,,,,,,,0.037037051,-0.40000007,0,0,0,,,,,,,FOLDER,HB,z,y,./images/FOLDERHB.png,,,,,,,z,1,0.7456,,,,,,,,0,145,145,126,1
,,,,,,,,,,,,,,,,,199657,19,2022-01-29_12h59.22.371,lexical_decision_task_DD_L5,2021.2.3,Win32,119.3032689,,,,,,,,,,,,0.8749,0,,,,,,,,,,,,,,,,,,,,,,,,0.037037051,-0.40000007,0,0,0,,,,,,,CANDLE,LB,z,y,./images/CANDLELB.png,,,,,,,m,0,0.8749,,,,,,,,0,146,146,145,1
,,,,,,,,,,,,,,,,,199657,19,2022-01-29_12h59.22.371,lexical_decision_task_DD_L5,2021.2.3,Win32,119.3032689,,,,,,,,,,,,0.5995,1,,,,,,,,,,,,,,,,,,,,,,,,0.037037051,-0.40000007,0,0,0,,,,,,,JUMPER,C,m,y,./images/JUMPER.png,,,,,,,m,1,0.5995,,,,,,,,0,147,147,74,1
,,,,,,,,,,,,,,,,,199657,19,2022-01-29_12h59.22.371,lexical_decision_task_DD_L5,2021.2.3,Win32,119.3032689,,,,,,,,,,,,0.6749,1,,,,,,,,,,,,,,,,,,,,,,,,0.037037051,-0.40000007,0,0,0,,,,,,,GREASE,HB,z,y,./images/GREASEHB.png,,,,,,,z,1,0.6749,,,,,,,,0,148,148,99,1
,,,,,,,,,,,,,,,,,199657,19,2022-01-29_12h59.22.371,lexical_decision_task_DD_L5,2021.2.3,Win32,119.3032689,,,,,,,,,,,,0.6872,1,,,,,,,,,,,,,,,,,,,,,,,,0.037037051,-0.40000007,0,0,0,,,,,,,SPORT,HB,z,y,./images/SPORTHB.png,,,,,,,z,1,0.6872,,,,,,,,0,149,149,132,1
,,,,,,,,,,,,,,,,,199657,19,2022-01-29_12h59.22.371,lexical_decision_task_DD_L5,2021.2.3,Win32,119.3032689,,,,,,,,,,,,0.7083,1,,,,,,,,,,,,,,,,,,,,,,,,0.037037051,-0.40000007,0,0,0,,,,,,,TIGER,LB,m,y,./images/TIGERLB.png,,,,,,,m,1,0.7083,,,,,,,,0,150,150,37,1
,,,,,,,,,,,,,,,,,199657,19,2022-01-29_12h59.22.371,lexical_decision_task_DD_L5,2021.2.3,Win32,119.3032689,,,,,,,,,,,,0.6914,1,,,,,,,,,,,,,,,,,,,,,,,,0.037037051,-0.40000007,0,0,0,,,,,,,WALRUS,C,z,y,./images/WALRUS.png,,,,,,,z,1,0.6914,,,,,,,,0,151,151,107,1
,,,,,,,,,,,,,,,,,199657,19,2022-01-29_12h59.22.371,lexical_decision_task_DD_L5,2021.2.3,Win32,119.3032689,,,,,,,,,,,,0.6458,1,,,,,,,,,,,,,,,,,,,,,,,,0.037037051,-0.40000007,0,0,0,,,,,,,STATUE,HB,m,y,./images/STATUEHB.png,,,,,,,m,1,0.6458,,,,,,,,0,152,152,66,1
,,,,,,,,,,,,,,,,,199657,19,2022-01-29_12h59.22.371,lexical_decision_task_DD_L5,2021.2.3,Win32,119.3032689,,,,,,,,,,,,0.6411,1,,,,,,,,,,,,,,,,,,,,,,,,0.037037051,-0.40000007,0,0,0,,,,,,,RAZOR,LB,m,y,./images/RAZORLB.png,,,,,,,m,1,0.6411,,,,,,,,0,153,153,34,1
,,,,,,,,,,,,,,,,,199657,19,2022-01-29_12h59.22.371,lexical_decision_task_DD_L5,2021.2.3,Win32,119.3032689,,,,,,,,,,,,0.6246,1,,,,,,,,,,,,,,,,,,,,,,,,0.037037051,-0.40000007,0,0,0,,,,,,,POSTER,C,m,y,./images/POSTER.png,,,,,,,m,1,0.6246,,,,,,,,0,154,154,53,1
,,,,,,,,,,,,,,,,,199657,19,2022-01-29_12h59.22.371,lexical_decision_task_DD_L5,2021.2.3,Win32,119.3032689,,,,,,,,,,,,0.7247,0,,,,,,,,,,,,,,,,,,,,,,,,0.037037051,-0.40000007,0,0,0,,,,,,,PILOT,C,m,y,./images/PILOT.png,,,,,,,z,0,0.7247,,,,,,,,0,155,155,50,1
,,,,,,,,,,,,,,,,,199657,19,2022-01-29_12h59.22.371,lexical_decision_task_DD_L5,2021.2.3,Win32,119.3032689,,,,,,,,,,,,0.612,1,,,,,,,,,,,,,,,,,,,,,,,,0.037037051,-0.40000007,0,0,0,,,,,,,LLAMA,C,m,y,./images/LLAMA.png,,,,,,,m,1,0.612,,,,,,,,0,156,156,35,1
,,,,,,,,,,,,,,,,,199657,19,2022-01-29_12h59.22.371,lexical_decision_task_DD_L5,2021.2.3,Win32,119.3032689,,,,,,,,,,,,0.7533,1,,,,,,,,,,,,,,,,,,,,,,,,0.037037051,-0.40000007,0,0,0,,,,,,,DRILL,HB,m,y,./images/DRILLHB.png,,,,,,,m,1,0.7533,,,,,,,,0,157,157,81,1
,,,,,,,,,,,,,,,,,199657,19,2022-01-29_12h59.22.371,lexical_decision_task_DD_L5,2021.2.3,Win32,119.3032689,,,,,,,,,,,,0.8249,1,,,,,,,,,,,,,,,,,,,,,,,,0.037037051,-0.40000007,0,0,0,,,,,,,WRIST,LB,z,y,./images/WRISTLB.png,,,,,,,z,1,0.8249,,,,,,,,0,158,158,109,1
,,,,,,,,,,,,,,,,,199657,19,2022-01-29_12h59.22.371,lexical_decision_task_DD_L5,2021.2.3,Win32,119.3032689,,,,,,,,,,,,0.8548,1,,,,,,,,,,,,,,,,,,,,,,,,0.037037051,-0.40000007,0,0,0,,,,,,,PENCE,LB,z,y,./images/PENCELB.png,,,,,,,z,1,0.8548,,,,,,,,0,159,159,100,1
,,,,,,,,,,,,,,,,,199657,19,2022-01-29_12h59.22.371,lexical_decision_task_DD_L5,2021.2.3,Win32,119.3032689,,,,,,,,,,,,0.7961,1,,,,,,,,,,,,,,,,,,,,,,,,0.037037051,-0.40000007,0,0,0,,,,,,,FENCE,C,m,y,./images/FENCE.png,,,,,,,m,1,0.7961,,,,,,,,0,160,160,14,1
,,,,,,,,,,,,,,,,,199657,19,2022-01-29_12h59.22.371,lexical_decision_task_DD_L5,2021.2.3,Win32,119.3032689,,,,,,,,,,,,0.9379,1,,,,,,,,,,,,,,,,,,,,,,,,0.037037051,-0.40000007,0,0,0,,,,,,,SAUCE,HB,m,y,./images/SAUCEHB.png,,,,,,,m,1,0.9379,,,,,,,,0,161,161,51,1
,,,,,,,,,,,,,,,,,199657,19,2022-01-29_12h59.22.371,lexical_decision_task_DD_L5,2021.2.3,Win32,119.3032689,,,,,,,,,,,,0.6042,1,,,,,,,,,,,,,,,,,,,,,,,,0.037037051,-0.40000007,0,0,0,,,,,,,STEAK,LB,m,y,./images/STEAKLB.png,,,,,,,m,1,0.6042,,,,,,,,0,162,162,31,1
,,,,,,,,,,,,,,,,,199657,19,2022-01-29_12h59.22.371,lexical_decision_task_DD_L5,2021.2.3,Win32,119.3032689,,,,,,,,,,,,0.6497,1,,,,,,,,,,,,,,,,,,,,,,,,0.037037051,-0.40000007,0,0,0,,,,,,,JAGUAR,HB,z,y,./images/JAGUARHB.png,,,,,,,z,1,0.6497,,,,,,,,0,163,163,102,1
,,,,,,,,,,,,,,,,,199657,19,2022-01-29_12h59.22.371,lexical_decision_task_DD_L5,2021.2.3,Win32,119.3032689,,,,,,,,,,,,1.3447,1,,,,,,,,,,,,,,,,,,,,,,,,0.037037051,-0.40000007,0,0,0,,,,,,,STRING,C,z,y,./images/STRING.png,,,,,,,z,1,1.3447,,,,,,,,0,164,164,125,1
,,,,,,,,,,,,,,,,,199657,19,2022-01-29_12h59.22.371,lexical_decision_task_DD_L5,2021.2.3,Win32,119.3032689,,,,,,,,,,,,0.776,1,,,,,,,,,,,,,,,,,,,,,,,,0.037037051,-0.40000007,0,0,0,,,,,,,ATTIC,HB,z,y,./images/ATTICHB.png,,,,,,,z,1,0.776,,,,,,,,0,165,165,111,1
,,,,,,,,,,,,,,,,,199657,19,2022-01-29_12h59.22.371,lexical_decision_task_DD_L5,2021.2.3,Win32,119.3032689,,,,,,,,,,,,0.7496,1,,,,,,,,,,,,,,,,,,,,,,,,0.037037051,-0.40000007,0,0,0,,,,,,,MALLET,C,z,y,./images/MALLET.png,,,,,,,z,1,0.7496,,,,,,,,0,166,166,134,1
,,,,,,,,,,,,,,,,,199657,19,2022-01-29_12h59.22.371,lexical_decision_task_DD_L5,2021.2.3,Win32,119.3032689,,,,,,,,,,,,1.342,1,,,,,,,,,,,,,,,,,,,,,,,,0.037037051,-0.40000007,0,0,0,,,,,,,MOOSE,HB,z,y,./images/MOOSEHB.png,,,,,,,z,1,1.342,,,,,,,,0,167,167,141,1
