key_resp.keys,instr_done_touch.x,instr_done_touch.y,instr_done_touch.leftButton,instr_done_touch.midButton,instr_done_touch.rightButton,instr_done_touch.clicked_name,instruction_pages.thisRepN,instruction_pages.thisTrialN,instruction_pages.thisN,instruction_pages.thisIndex,instruction_pages.ran,pageN,phase,instruct_text,has_image,instruct_image,participant,age,date,expName,psychopyVersion,OS,frameRate,response.keys,response.corr,touch_resp.x,touch_resp.y,touch_resp.leftButton,touch_resp.midButton,touch_resp.rightButton,touch_resp.time,touch_resp.clicked_name,rt,corr,practrials.thisRepN,practrials.thisTrialN,practrials.thisN,practrials.thisIndex,practrials.ran,TrialID,Target,corrAns,end_of_practice_trials_pages.thisRepN,end_of_practice_trials_pages.thisTrialN,end_of_practice_trials_pages.thisN,end_of_practice_trials_pages.thisIndex,end_of_practice_trials_pages.ran,key_resp_2.keys,key_resp_2.corr,targ_click.x,targ_click.y,targ_click.leftButton,targ_click.midButton,targ_click.rightButton,targ_click.time,targ_click.clicked_name,break_done_touch.x,break_done_touch.y,break_done_touch.leftButton,break_done_touch.midButton,break_done_touch.rightButton,break_done_keyboard.keys,maintrials.thisRepN,maintrials.thisTrialN,maintrials.thisN,maintrials.thisIndex,maintrials.ran,string,blur,study,lex,stim_path,break_done_touch.clicked_name,test_instructions.thisRepN,test_instructions.thisTrialN,test_instructions.thisN,test_instructions.thisIndex,test_instructions.ran,key_resp_3.keys,key_resp_3.corr,test_click.x,test_click.y,test_click.leftButton,test_click.midButton,test_click.rightButton,test_click.time,test_click.clicked_name,test_phase.thisRepN,test_phase.thisTrialN,test_phase.thisN,test_phase.thisIndex,test_phase.ran
,0.110204082,-0.400510204,1,0,0,instr_done_button,0,0,0,0,1,1,instructions,"INSTRUCTIONS
At the start of each trial, look at the plus sign  (+) in the center of the screen.  This tells you that a trial is about to begin and where to look. Second, the plus sign will disappear and a string of letters will appear. Your task is to determine if the string of letters is a word or not. If the item is a word press the M key (on keyboard)  or touch the word button (phone/tablet).  If the item is not a word,  press the  Z key (on keyboard)  or touch the nonword button (on phone/tablet). 
Press the space bar or touch  continue.",0,,199633,19,2022-01-28_17h14.21.747,lexical_decision_task_DD_L3,2021.2.3,iPhone,58.82352941,,,,,,,,,,,,,,,,,,,,,,,,,,,,,,,,,,,,,,,,,,,,,,,,,,,,,,,,,,,,,,,,,,,,,
,0.107142857,-0.404591837,1,0,0,instr_done_button,0,1,1,1,1,2,instructions,"If your device has a keyboard, press the 'Z' key for nonwords and the 'M' key for words.





Press the space bar or touch the button below to continue.",0,keyboard-example.gif,199633,19,2022-01-28_17h14.21.747,lexical_decision_task_DD_L3,2021.2.3,iPhone,58.82352941,,,,,,,,,,,,,,,,,,,,,,,,,,,,,,,,,,,,,,,,,,,,,,,,,,,,,,,,,,,,,,,,,,,,,
,0.087755102,-0.390306122,1,0,0,instr_done_button,0,2,2,2,1,3,instructions,"If you are using a touchscreen only device, use the buttons on the screen. Do not use the mouse.





Press the space bar or touch the button below to continue.",0,touchscreen-example.gif,199633,19,2022-01-28_17h14.21.747,lexical_decision_task_DD_L3,2021.2.3,iPhone,58.82352941,,,,,,,,,,,,,,,,,,,,,,,,,,,,,,,,,,,,,,,,,,,,,,,,,,,,,,,,,,,,,,,,,,,,,
,0.094897959,-0.388265306,1,0,0,instr_done_button,0,3,3,3,1,4,instructions,"It is very important that you respond as quickly and accurately as possible, as each letter string will only be on the screen for two seconds. If you do not respond within this time, the message 'Too slow!' will be displayed and the experiment will progress to the next letter string. The first 20 trials will be practice trials and you will receive feedback on your answers. 

Press the space bar or touch the button below to start the practice trials.",0,,199633,19,2022-01-28_17h14.21.747,lexical_decision_task_DD_L3,2021.2.3,iPhone,58.82352941,,,,,,,,,,,,,,,,,,,,,,,,,,,,,,,,,,,,,,,,,,,,,,,,,,,,,,,,,,,,,,,,,,,,,
,,,,,,,,,,,,,,,,,199633,19,2022-01-28_17h14.21.747,lexical_decision_task_DD_L3,2021.2.3,iPhone,58.82352941,,0,-0.259183673,-0.309693878,1,0,0,2.685,button_left,2.685,0,0,0,0,5,1,1001,OBTAIN,m,,,,,,,,,,,,,,,,,,,,,,,,,,,,,,,,,,,,,,,,,,,,,,,,,,
,,,,,,,,,,,,,,,,,199633,19,2022-01-28_17h14.21.747,lexical_decision_task_DD_L3,2021.2.3,iPhone,58.82352941,,0,0.340816327,-0.33622449,1,0,0,1.722,button_right,1.722,0,0,1,1,10,1,1001,INLADE,z,,,,,,,,,,,,,,,,,,,,,,,,,,,,,,,,,,,,,,,,,,,,,,,,,,
,,,,,,,,,,,,,,,,,199633,19,2022-01-28_17h14.21.747,lexical_decision_task_DD_L3,2021.2.3,iPhone,58.82352941,,0,0.32244898,-0.242346939,1,0,0,1.755,button_right,1.755,1,0,2,2,7,1,1001,VOLUME,m,,,,,,,,,,,,,,,,,,,,,,,,,,,,,,,,,,,,,,,,,,,,,,,,,,
,,,,,,,,,,,,,,,,,199633,19,2022-01-28_17h14.21.747,lexical_decision_task_DD_L3,2021.2.3,iPhone,58.82352941,,0,-0.284693878,-0.293367347,1,0,0,1.587,button_left,1.587,1,0,3,3,13,1,1001,ROUPET,z,,,,,,,,,,,,,,,,,,,,,,,,,,,,,,,,,,,,,,,,,,,,,,,,,,
,,,,,,,,,,,,,,,,,199633,19,2022-01-28_17h14.21.747,lexical_decision_task_DD_L3,2021.2.3,iPhone,58.82352941,,0,0.310204082,-0.344387755,1,0,0,1.554,button_right,1.554,1,0,4,4,2,1,1001,ALMOND,m,,,,,,,,,,,,,,,,,,,,,,,,,,,,,,,,,,,,,,,,,,,,,,,,,,
,,,,,,,,,,,,,,,,,199633,19,2022-01-28_17h14.21.747,lexical_decision_task_DD_L3,2021.2.3,iPhone,58.82352941,,0,-0.246938776,-0.318877551,1,0,0,1.538,button_left,1.538,1,0,5,5,12,1,1001,SPRINY,z,,,,,,,,,,,,,,,,,,,,,,,,,,,,,,,,,,,,,,,,,,,,,,,,,,
,,,,,,,,,,,,,,,,,199633,19,2022-01-28_17h14.21.747,lexical_decision_task_DD_L3,2021.2.3,iPhone,58.82352941,,0,0.366326531,-0.289285714,1,0,0,1.806,button_right,1.806,1,0,6,6,1,1,1001,ADJUST,m,,,,,,,,,,,,,,,,,,,,,,,,,,,,,,,,,,,,,,,,,,,,,,,,,,
,,,,,,,,,,,,,,,,,199633,19,2022-01-28_17h14.21.747,lexical_decision_task_DD_L3,2021.2.3,iPhone,58.82352941,,0,-0.27755102,-0.308673469,1,0,0,1.721,button_left,1.721,1,0,7,7,11,1,1001,RASHET,z,,,,,,,,,,,,,,,,,,,,,,,,,,,,,,,,,,,,,,,,,,,,,,,,,,
,,,,,,,,,,,,,,,,,199633,19,2022-01-28_17h14.21.747,lexical_decision_task_DD_L3,2021.2.3,iPhone,58.82352941,,0,-0.264285714,-0.281122449,1,0,0,1.521,button_left,1.521,1,0,8,8,8,1,1001,ASLERT,z,,,,,,,,,,,,,,,,,,,,,,,,,,,,,,,,,,,,,,,,,,,,,,,,,,
,,,,,,,,,,,,,,,,,199633,19,2022-01-28_17h14.21.747,lexical_decision_task_DD_L3,2021.2.3,iPhone,58.82352941,,0,-0.314285714,-0.288265306,1,0,0,1.12,button_left,1.12,1,0,9,9,14,1,1001,THRALE,z,,,,,,,,,,,,,,,,,,,,,,,,,,,,,,,,,,,,,,,,,,,,,,,,,,
,,,,,,,,,,,,,,,,,199633,19,2022-01-28_17h14.21.747,lexical_decision_task_DD_L3,2021.2.3,iPhone,58.82352941,,0,0.316326531,-0.266836735,1,0,0,1.137,button_right,1.137,1,0,10,10,0,1,1001,UTOPIA,m,,,,,,,,,,,,,,,,,,,,,,,,,,,,,,,,,,,,,,,,,,,,,,,,,,
,,,,,,,,,,,,,,,,,199633,19,2022-01-28_17h14.21.747,lexical_decision_task_DD_L3,2021.2.3,iPhone,58.82352941,,0,0.391836735,-0.303571429,1,0,0,1.138,button_right,1.138,1,0,11,11,4,1,1001,SQUEAK,m,,,,,,,,,,,,,,,,,,,,,,,,,,,,,,,,,,,,,,,,,,,,,,,,,,
,,,,,,,,,,,,,,,,,199633,19,2022-01-28_17h14.21.747,lexical_decision_task_DD_L3,2021.2.3,iPhone,58.82352941,,0,0.362244898,-0.314795918,1,0,0,0.787,button_right,0.787,1,0,12,12,3,1,1001,MATRIX,m,,,,,,,,,,,,,,,,,,,,,,,,,,,,,,,,,,,,,,,,,,,,,,,,,,
,,,,,,,,,,,,,,,,,199633,19,2022-01-28_17h14.21.747,lexical_decision_task_DD_L3,2021.2.3,iPhone,58.82352941,,0,0.358163265,-0.349489796,1,0,0,0.704,button_right,0.704,1,0,13,13,6,1,1001,ZOMBIE,m,,,,,,,,,,,,,,,,,,,,,,,,,,,,,,,,,,,,,,,,,,,,,,,,,,
,,,,,,,,,,,,,,,,,199633,19,2022-01-28_17h14.21.747,lexical_decision_task_DD_L3,2021.2.3,iPhone,58.82352941,,0,-0.374489796,-0.320918367,1,0,0,0.922,button_left,0.922,1,0,14,14,15,1,1001,WHAISE,z,,,,,,,,,,,,,,,,,,,,,,,,,,,,,,,,,,,,,,,,,,,,,,,,,,
,,,,,,,,,,,,,,,,,199633,19,2022-01-28_17h14.21.747,lexical_decision_task_DD_L3,2021.2.3,iPhone,58.82352941,,0,-0.363265306,-0.326020408,1,0,0,0.954,button_left,0.954,1,0,15,15,9,1,1001,FARINY,z,,,,,,,,,,,,,,,,,,,,,,,,,,,,,,,,,,,,,,,,,,,,,,,,,,
,0.136734694,-0.387244898,1,0,0,instr_done_button,,,,,,1,end_of_practice,"You have completed the practice trials. During the experimental trials, you will not receive feedback. 
Before you begin, please ensure that you are in a comfortable and quiet location and will not be disturbed for about 15 minutes, as we cannot use your data if you do not complete all the trials. 
 When you are ready to start the experimental trials, please press space or touch the button below.",,,199633,19,2022-01-28_17h14.21.747,lexical_decision_task_DD_L3,2021.2.3,iPhone,58.82352941,,,,,,,,,,,,,,,,,,,,0,0,0,0,1,,,,,,,,,,,,,,,,,,,,,,,,,,,,,,,,,,,,,,,,,,,,,
,,,,,,,,,,,,,,,,,199633,19,2022-01-28_17h14.21.747,lexical_decision_task_DD_L3,2021.2.3,iPhone,58.82352941,,,,,,,,,,1.298,1,,,,,,,,,,,,,,,0,-0.352040816,-0.34744898,1,0,0,1.298,button_left_main,-0.352040816,-0.34744898,1,0,0,,0,0,0,144,1,NAIRY,C,old,z,./images/NAIRY.png,,,,,,,,,,,,,,,,,,,,
,,,,,,,,,,,,,,,,,199633,19,2022-01-28_17h14.21.747,lexical_decision_task_DD_L3,2021.2.3,iPhone,58.82352941,,,,,,,,,,1.587,1,,,,,,,,,,,,,,,0,0.334693878,-0.332142857,1,0,0,1.587,button_right_main,0.334693878,-0.332142857,1,0,0,,0,1,1,71,1,PIMPLE,HB,old,m,./images/PIMPLEHB.png,,,,,,,,,,,,,,,,,,,,
,,,,,,,,,,,,,,,,,199633,19,2022-01-28_17h14.21.747,lexical_decision_task_DD_L3,2021.2.3,iPhone,58.82352941,,,,,,,,,,1.371,1,,,,,,,,,,,,,,,0,0.364285714,-0.311734694,1,0,0,1.371,button_right_main,0.364285714,-0.311734694,1,0,0,,0,2,2,65,1,FARMER,HB,old,m,./images/FARMERHB.png,,,,,,,,,,,,,,,,,,,,
,,,,,,,,,,,,,,,,,199633,19,2022-01-28_17h14.21.747,lexical_decision_task_DD_L3,2021.2.3,iPhone,58.82352941,,,,,,,,,,0.973,1,,,,,,,,,,,,,,,0,-0.37244898,-0.348469388,1,0,0,0.973,button_left_main,-0.37244898,-0.348469388,1,0,0,,0,3,3,159,1,CUDDY,C,old,z,./images/CUDDY.png,,,,,,,,,,,,,,,,,,,,
,,,,,,,,,,,,,,,,,199633,19,2022-01-28_17h14.21.747,lexical_decision_task_DD_L3,2021.2.3,iPhone,58.82352941,,,,,,,,,,1.005,1,,,,,,,,,,,,,,,0,-0.391836735,-0.342346939,1,0,0,1.005,button_left_main,-0.391836735,-0.342346939,1,0,0,,0,4,4,155,1,CANGY,LB,old,z,./images/CANGYLB.png,,,,,,,,,,,,,,,,,,,,
,,,,,,,,,,,,,,,,,199633,19,2022-01-28_17h14.21.747,lexical_decision_task_DD_L3,2021.2.3,iPhone,58.82352941,,,,,,,,,,1.287,1,,,,,,,,,,,,,,,0,-0.383673469,-0.358673469,1,0,0,1.287,button_left_main,-0.383673469,-0.358673469,1,0,0,,0,5,5,128,1,GRIFT,LB,old,z,./images/GRIFTLB.png,,,,,,,,,,,,,,,,,,,,
,,,,,,,,,,,,,,,,,199633,19,2022-01-28_17h14.21.747,lexical_decision_task_DD_L3,2021.2.3,iPhone,58.82352941,,,,,,,,,,0.988,1,,,,,,,,,,,,,,,0,-0.389795918,-0.317857143,1,0,0,0.988,button_left_main,-0.389795918,-0.317857143,1,0,0,,0,6,6,113,1,LINEW,LB,old,z,./images/LINEWLB.png,,,,,,,,,,,,,,,,,,,,
,,,,,,,,,,,,,,,,,199633,19,2022-01-28_17h14.21.747,lexical_decision_task_DD_L3,2021.2.3,iPhone,58.82352941,,,,,,,,,,0.939,1,,,,,,,,,,,,,,,0,0.373469388,-0.294387755,1,0,0,0.939,button_right_main,0.373469388,-0.294387755,1,0,0,,0,7,7,62,1,PURSE,HB,old,m,./images/PURSEHB.png,,,,,,,,,,,,,,,,,,,,
,,,,,,,,,,,,,,,,,199633,19,2022-01-28_17h14.21.747,lexical_decision_task_DD_L3,2021.2.3,iPhone,58.82352941,,,,,,,,,,0.774,1,,,,,,,,,,,,,,,0,0.368367347,-0.321938776,1,0,0,0.774,button_right_main,0.368367347,-0.321938776,1,0,0,,0,8,8,57,1,MOOSE,LB,old,m,./images/MOOSELB.png,,,,,,,,,,,,,,,,,,,,
,,,,,,,,,,,,,,,,,199633,19,2022-01-28_17h14.21.747,lexical_decision_task_DD_L3,2021.2.3,iPhone,58.82352941,,,,,,,,,,1.369,1,,,,,,,,,,,,,,,0,0.359183673,-0.325,1,0,0,1.369,button_right_main,0.359183673,-0.325,1,0,0,,0,9,9,77,1,COUCH,HB,old,m,./images/COUCHHB.png,,,,,,,,,,,,,,,,,,,,
,,,,,,,,,,,,,,,,,199633,19,2022-01-28_17h14.21.747,lexical_decision_task_DD_L3,2021.2.3,iPhone,58.82352941,,,,,,,,,,0.769,1,,,,,,,,,,,,,,,0,-0.38877551,-0.31377551,1,0,0,0.769,button_left_main,-0.38877551,-0.31377551,1,0,0,,0,10,10,156,1,HIXES,C,old,z,./images/HIXES.png,,,,,,,,,,,,,,,,,,,,
,,,,,,,,,,,,,,,,,199633,19,2022-01-28_17h14.21.747,lexical_decision_task_DD_L3,2021.2.3,iPhone,58.82352941,,,,,,,,,,0.804,1,,,,,,,,,,,,,,,0,-0.386734694,-0.316836735,1,0,0,0.804,button_left_main,-0.386734694,-0.316836735,1,0,0,,0,11,11,93,1,SMONE,C,old,z,./images/SMONE.png,,,,,,,,,,,,,,,,,,,,
,,,,,,,,,,,,,,,,,199633,19,2022-01-28_17h14.21.747,lexical_decision_task_DD_L3,2021.2.3,iPhone,58.82352941,,,,,,,,,,0.821,1,,,,,,,,,,,,,,,0,0.347959184,-0.332142857,1,0,0,0.821,button_right_main,0.347959184,-0.332142857,1,0,0,,0,12,12,49,1,DRUMS,C,old,m,./images/DRUMS.png,,,,,,,,,,,,,,,,,,,,
,,,,,,,,,,,,,,,,,199633,19,2022-01-28_17h14.21.747,lexical_decision_task_DD_L3,2021.2.3,iPhone,58.82352941,,,,,,,,,,0.823,1,,,,,,,,,,,,,,,0,-0.390816327,-0.343367347,1,0,0,0.823,button_left_main,-0.390816327,-0.343367347,1,0,0,,0,13,13,149,1,VEASE,LB,old,z,./images/VEASELB.png,,,,,,,,,,,,,,,,,,,,
,,,,,,,,,,,,,,,,,199633,19,2022-01-28_17h14.21.747,lexical_decision_task_DD_L3,2021.2.3,iPhone,58.82352941,,,,,,,,,,0.739,1,,,,,,,,,,,,,,,0,0.339795918,-0.330102041,1,0,0,0.739,button_right_main,0.339795918,-0.330102041,1,0,0,,0,14,14,60,1,TWINS,LB,old,m,./images/TWINSLB.png,,,,,,,,,,,,,,,,,,,,
,,,,,,,,,,,,,,,,,199633,19,2022-01-28_17h14.21.747,lexical_decision_task_DD_L3,2021.2.3,iPhone,58.82352941,,,,,,,,,,0.815,1,,,,,,,,,,,,,,,0,-0.363265306,-0.371938776,1,0,0,0.815,button_left_main,-0.363265306,-0.371938776,1,0,0,,0,15,15,152,1,FRAIN,LB,old,z,./images/FRAINLB.png,,,,,,,,,,,,,,,,,,,,
,,,,,,,,,,,,,,,,,199633,19,2022-01-28_17h14.21.747,lexical_decision_task_DD_L3,2021.2.3,iPhone,58.82352941,,,,,,,,,,0.755,1,,,,,,,,,,,,,,,0,-0.389795918,-0.337244898,1,0,0,0.755,button_left_main,-0.389795918,-0.337244898,1,0,0,,0,16,16,135,1,JOODY,C,old,z,./images/JOODY.png,,,,,,,,,,,,,,,,,,,,
,,,,,,,,,,,,,,,,,199633,19,2022-01-28_17h14.21.747,lexical_decision_task_DD_L3,2021.2.3,iPhone,58.82352941,,,,,,,,,,0.77,1,,,,,,,,,,,,,,,0,0.358163265,-0.315816327,1,0,0,0.77,button_right_main,0.358163265,-0.315816327,1,0,0,,0,17,17,16,1,PENCE,C,old,m,./images/PENCE.png,,,,,,,,,,,,,,,,,,,,
,,,,,,,,,,,,,,,,,199633,19,2022-01-28_17h14.21.747,lexical_decision_task_DD_L3,2021.2.3,iPhone,58.82352941,,,,,,,,,,0.805,1,,,,,,,,,,,,,,,0,0.346938776,-0.314795918,1,0,0,0.805,button_right_main,0.346938776,-0.314795918,1,0,0,,0,18,18,6,1,SQUARE,LB,old,m,./images/SQUARELB.png,,,,,,,,,,,,,,,,,,,,
,,,,,,,,,,,,,,,,,199633,19,2022-01-28_17h14.21.747,lexical_decision_task_DD_L3,2021.2.3,iPhone,58.82352941,,,,,,,,,,0.838,1,,,,,,,,,,,,,,,0,0.332653061,-0.327040816,1,0,0,0.838,button_right_main,0.332653061,-0.327040816,1,0,0,,0,19,19,8,1,TULIP,HB,old,m,./images/TULIPHB.png,,,,,,,,,,,,,,,,,,,,
,,,,,,,,,,,,,,,,,199633,19,2022-01-28_17h14.21.747,lexical_decision_task_DD_L3,2021.2.3,iPhone,58.82352941,,,,,,,,,,0.77,1,,,,,,,,,,,,,,,0,-0.394897959,-0.346428571,1,0,0,0.77,button_left_main,-0.394897959,-0.346428571,1,0,0,,0,20,20,105,1,MOKER,C,old,z,./images/MOKER.png,,,,,,,,,,,,,,,,,,,,
,,,,,,,,,,,,,,,,,199633,19,2022-01-28_17h14.21.747,lexical_decision_task_DD_L3,2021.2.3,iPhone,58.82352941,,,,,,,,,,0.822,1,,,,,,,,,,,,,,,0,0.33877551,-0.323979592,1,0,0,0.822,button_right_main,0.33877551,-0.323979592,1,0,0,,0,21,21,30,1,STORM,LB,old,m,./images/STORMLB.png,,,,,,,,,,,,,,,,,,,,
,,,,,,,,,,,,,,,,,199633,19,2022-01-28_17h14.21.747,lexical_decision_task_DD_L3,2021.2.3,iPhone,58.82352941,,,,,,,,,,1.256,1,,,,,,,,,,,,,,,0,-0.386734694,-0.337244898,1,0,0,1.256,button_left_main,-0.386734694,-0.337244898,1,0,0,,0,22,22,139,1,BLEAR,HB,old,z,./images/BLEARHB.png,,,,,,,,,,,,,,,,,,,,
,,,,,,,,,,,,,,,,,199633,19,2022-01-28_17h14.21.747,lexical_decision_task_DD_L3,2021.2.3,iPhone,58.82352941,,,,,,,,,,1.105,1,,,,,,,,,,,,,,,0,-0.390816327,-0.351530612,1,0,0,1.105,button_left_main,-0.390816327,-0.351530612,1,0,0,,0,23,23,134,1,TROSS,LB,old,z,./images/TROSSLB.png,,,,,,,,,,,,,,,,,,,,
,,,,,,,,,,,,,,,,,199633,19,2022-01-28_17h14.21.747,lexical_decision_task_DD_L3,2021.2.3,iPhone,58.82352941,,,,,,,,,,0.788,1,,,,,,,,,,,,,,,0,-0.392857143,-0.358673469,1,0,0,0.788,button_left_main,-0.392857143,-0.358673469,1,0,0,,0,24,24,126,1,GUELS,C,old,z,./images/GUELS.png,,,,,,,,,,,,,,,,,,,,
,,,,,,,,,,,,,,,,,199633,19,2022-01-28_17h14.21.747,lexical_decision_task_DD_L3,2021.2.3,iPhone,58.82352941,,,,,,,,,,0.687,1,,,,,,,,,,,,,,,0,-0.409183673,-0.35255102,1,0,0,0.687,button_left_main,-0.409183673,-0.35255102,1,0,0,,0,25,25,129,1,PRANS,C,old,z,./images/PRANS.png,,,,,,,,,,,,,,,,,,,,
,,,,,,,,,,,,,,,,,199633,19,2022-01-28_17h14.21.747,lexical_decision_task_DD_L3,2021.2.3,iPhone,58.82352941,,,,,,,,,,1.005,1,,,,,,,,,,,,,,,0,0.346938776,-0.343367347,1,0,0,1.005,button_right_main,0.346938776,-0.343367347,1,0,0,,0,26,26,42,1,FOLDER,LB,old,m,./images/FOLDERLB.png,,,,,,,,,,,,,,,,,,,,
,,,,,,,,,,,,,,,,,199633,19,2022-01-28_17h14.21.747,lexical_decision_task_DD_L3,2021.2.3,iPhone,58.82352941,,,,,,,,,,1.068,1,,,,,,,,,,,,,,,0,-0.379591837,-0.332142857,1,0,0,1.068,button_left_main,-0.379591837,-0.332142857,1,0,0,,0,27,27,107,1,FASKS,LB,old,z,./images/FASKSLB.png,,,,,,,,,,,,,,,,,,,,
,,,,,,,,,,,,,,,,,199633,19,2022-01-28_17h14.21.747,lexical_decision_task_DD_L3,2021.2.3,iPhone,58.82352941,,,,,,,,,,0.722,1,,,,,,,,,,,,,,,0,-0.386734694,-0.35255102,1,0,0,0.722,button_left_main,-0.386734694,-0.35255102,1,0,0,,0,28,28,153,1,CLUPS,C,old,z,./images/CLUPS.png,,,,,,,,,,,,,,,,,,,,
,,,,,,,,,,,,,,,,,199633,19,2022-01-28_17h14.21.747,lexical_decision_task_DD_L3,2021.2.3,iPhone,58.82352941,,,,,,,,,,2.239,1,,,,,,,,,,,,,,,0,-0.379591837,-0.334183673,1,0,0,2.239,button_left_main,-0.379591837,-0.334183673,1,0,0,,0,29,29,112,1,MYING,HB,old,z,./images/MYINGHB.png,,,,,,,,,,,,,,,,,,,,
,,,,,,,,,,,,,,,,,199633,19,2022-01-28_17h14.21.747,lexical_decision_task_DD_L3,2021.2.3,iPhone,58.82352941,,,,,,,,,,0.688,1,,,,,,,,,,,,,,,0,-0.37244898,-0.348469388,1,0,0,0.688,button_left_main,-0.37244898,-0.348469388,1,0,0,,0,30,30,96,1,KEAMS,C,old,z,./images/KEAMS.png,,,,,,,,,,,,,,,,,,,,
,,,,,,,,,,,,,,,,,199633,19,2022-01-28_17h14.21.747,lexical_decision_task_DD_L3,2021.2.3,iPhone,58.82352941,,,,,,,,,,0.805,1,,,,,,,,,,,,,,,0,0.312244898,-0.356632653,1,0,0,0.805,button_right_main,0.312244898,-0.356632653,1,0,0,,0,31,31,59,1,BURIAL,HB,old,m,./images/BURIALHB.png,,,,,,,,,,,,,,,,,,,,
,,,,,,,,,,,,,,,,,199633,19,2022-01-28_17h14.21.747,lexical_decision_task_DD_L3,2021.2.3,iPhone,58.82352941,,,,,,,,,,1.04,1,,,,,,,,,,,,,,,0,-0.379591837,-0.358673469,1,0,0,1.04,button_left_main,-0.379591837,-0.358673469,1,0,0,,0,32,32,160,1,VEETS,HB,old,z,./images/VEETSHB.png,,,,,,,,,,,,,,,,,,,,
,,,,,,,,,,,,,,,,,199633,19,2022-01-28_17h14.21.747,lexical_decision_task_DD_L3,2021.2.3,iPhone,58.82352941,,,,,,,,,,0.639,1,,,,,,,,,,,,,,,0,0.331632653,-0.342346939,1,0,0,0.639,button_right_main,0.331632653,-0.342346939,1,0,0,,0,33,33,5,1,PASTA,HB,old,m,./images/PASTAHB.png,,,,,,,,,,,,,,,,,,,,
,,,,,,,,,,,,,,,,,199633,19,2022-01-28_17h14.21.747,lexical_decision_task_DD_L3,2021.2.3,iPhone,58.82352941,,,,,,,,,,0.804,1,,,,,,,,,,,,,,,0,-0.353061224,-0.325,1,0,0,0.804,button_left_main,-0.353061224,-0.325,1,0,0,,0,34,34,104,1,GITTY,LB,old,z,./images/GITTYLB.png,,,,,,,,,,,,,,,,,,,,
,,,,,,,,,,,,,,,,,199633,19,2022-01-28_17h14.21.747,lexical_decision_task_DD_L3,2021.2.3,iPhone,58.82352941,,,,,,,,,,0.788,1,,,,,,,,,,,,,,,0,-0.386734694,-0.342346939,1,0,0,0.788,button_left_main,-0.386734694,-0.342346939,1,0,0,,0,35,35,98,1,BAMPS,LB,old,z,./images/BAMPSLB.png,,,,,,,,,,,,,,,,,,,,
,,,,,,,,,,,,,,,,,199633,19,2022-01-28_17h14.21.747,lexical_decision_task_DD_L3,2021.2.3,iPhone,58.82352941,,,,,,,,,,0.822,1,,,,,,,,,,,,,,,0,0.32755102,-0.298469388,1,0,0,0.822,button_right_main,0.32755102,-0.298469388,1,0,0,,0,36,36,23,1,WALRUS,HB,old,m,./images/WALRUSHB.png,,,,,,,,,,,,,,,,,,,,
,,,,,,,,,,,,,,,,,199633,19,2022-01-28_17h14.21.747,lexical_decision_task_DD_L3,2021.2.3,iPhone,58.82352941,,,,,,,,,,0.987,1,,,,,,,,,,,,,,,0,0.36122449,-0.285204082,1,0,0,0.987,button_right_main,0.36122449,-0.285204082,1,0,0,,0,37,37,29,1,CRUMB,HB,old,m,./images/CRUMBHB.png,,,,,,,,,,,,,,,,,,,,
,,,,,,,,,,,,,,,,,199633,19,2022-01-28_17h14.21.747,lexical_decision_task_DD_L3,2021.2.3,iPhone,58.82352941,,,,,,,,,,0.954,0,,,,,,,,,,,,,,,0,0.341836735,-0.344387755,1,0,0,0.954,button_right_main,0.341836735,-0.344387755,1,0,0,,0,38,38,151,1,TINKY,HB,old,z,./images/TINKYHB.png,,,,,,,,,,,,,,,,,,,,
,,,,,,,,,,,,,,,,,199633,19,2022-01-28_17h14.21.747,lexical_decision_task_DD_L3,2021.2.3,iPhone,58.82352941,,,,,,,,,,1.271,1,,,,,,,,,,,,,,,0,-0.376530612,-0.339285714,1,0,0,1.271,button_left_main,-0.376530612,-0.339285714,1,0,0,,0,39,39,157,1,INLER,HB,old,z,./images/INLERHB.png,,,,,,,,,,,,,,,,,,,,
,,,,,,,,,,,,,,,,,199633,19,2022-01-28_17h14.21.747,lexical_decision_task_DD_L3,2021.2.3,iPhone,58.82352941,,,,,,,,,,1.027,1,,,,,,,,,,,,,,,0,-0.392857143,-0.335204082,1,0,0,1.027,button_left_main,-0.392857143,-0.335204082,1,0,0,,0,40,40,115,1,MAWNS,HB,old,z,./images/MAWNSHB.png,,,,,,,,,,,,,,,,,,,,
,,,,,,,,,,,,,,,,,199633,19,2022-01-28_17h14.21.747,lexical_decision_task_DD_L3,2021.2.3,iPhone,58.82352941,,,,,,,,,,0.751,0,,,,,,,,,,,,,,,0,-0.386734694,-0.339285714,1,0,0,0.751,button_left_main,0.140816327,-0.372959184,1,0,0,,0,41,41,50,1,MALLET,HB,old,m,./images/MALLETHB.png,break_done_button,,,,,,,,,,,,,,,,,,,
,,,,,,,,,,,,,,,,,199633,19,2022-01-28_17h14.21.747,lexical_decision_task_DD_L3,2021.2.3,iPhone,58.82352941,,,,,,,,,,0.755,1,,,,,,,,,,,,,,,0,0.351020408,-0.290306122,1,0,0,0.755,button_right_main,0.351020408,-0.290306122,1,0,0,,0,42,42,11,1,BONNET,HB,old,m,./images/BONNETHB.png,,,,,,,,,,,,,,,,,,,,
,,,,,,,,,,,,,,,,,199633,19,2022-01-28_17h14.21.747,lexical_decision_task_DD_L3,2021.2.3,iPhone,58.82352941,,,,,,,,,,0.604,1,,,,,,,,,,,,,,,0,0.325510204,-0.320918367,1,0,0,0.604,button_right_main,0.325510204,-0.320918367,1,0,0,,0,43,43,63,1,MIRROR,LB,old,m,./images/MIRRORLB.png,,,,,,,,,,,,,,,,,,,,
,,,,,,,,,,,,,,,,,199633,19,2022-01-28_17h14.21.747,lexical_decision_task_DD_L3,2021.2.3,iPhone,58.82352941,,,,,,,,,,0.639,1,,,,,,,,,,,,,,,0,0.318367347,-0.343367347,1,0,0,0.639,button_right_main,0.318367347,-0.343367347,1,0,0,,0,44,44,47,1,BERRY,HB,old,m,./images/BERRYHB.png,,,,,,,,,,,,,,,,,,,,
,,,,,,,,,,,,,,,,,199633,19,2022-01-28_17h14.21.747,lexical_decision_task_DD_L3,2021.2.3,iPhone,58.82352941,,,,,,,,,,0.622,1,,,,,,,,,,,,,,,0,-0.362244898,-0.390306122,1,0,0,0.622,button_left_main,-0.362244898,-0.390306122,1,0,0,,0,45,45,116,1,BALGY,LB,old,z,./images/BALGYLB.png,,,,,,,,,,,,,,,,,,,,
,,,,,,,,,,,,,,,,,199633,19,2022-01-28_17h14.21.747,lexical_decision_task_DD_L3,2021.2.3,iPhone,58.82352941,,,,,,,,,,0.638,1,,,,,,,,,,,,,,,0,0.331632653,-0.305612245,1,0,0,0.638,button_right_main,0.331632653,-0.305612245,1,0,0,,0,46,46,81,1,POODLE,LB,old,m,./images/POODLELB.png,,,,,,,,,,,,,,,,,,,,
,,,,,,,,,,,,,,,,,199633,19,2022-01-28_17h14.21.747,lexical_decision_task_DD_L3,2021.2.3,iPhone,58.82352941,,,,,,,,,,0.722,1,,,,,,,,,,,,,,,0,0.331632653,-0.308673469,1,0,0,0.722,button_right_main,0.331632653,-0.308673469,1,0,0,,0,47,47,18,1,JAGUAR,LB,old,m,./images/JAGUARLB.png,,,,,,,,,,,,,,,,,,,,
,,,,,,,,,,,,,,,,,199633,19,2022-01-28_17h14.21.747,lexical_decision_task_DD_L3,2021.2.3,iPhone,58.82352941,,,,,,,,,,0.489,1,,,,,,,,,,,,,,,0,0.32755102,-0.292346939,1,0,0,0.489,button_right_main,0.32755102,-0.292346939,1,0,0,,0,48,48,72,1,NOOSE,LB,old,m,./images/NOOSELB.png,,,,,,,,,,,,,,,,,,,,
,,,,,,,,,,,,,,,,,199633,19,2022-01-28_17h14.21.747,lexical_decision_task_DD_L3,2021.2.3,iPhone,58.82352941,,,,,,,,,,0.789,1,,,,,,,,,,,,,,,0,-0.386734694,-0.35255102,1,0,0,0.789,button_left_main,-0.386734694,-0.35255102,1,0,0,,0,49,49,146,1,MOOST,LB,old,z,./images/MOOSTLB.png,,,,,,,,,,,,,,,,,,,,
,,,,,,,,,,,,,,,,,199633,19,2022-01-28_17h14.21.747,lexical_decision_task_DD_L3,2021.2.3,iPhone,58.82352941,,,,,,,,,,0.988,1,,,,,,,,,,,,,,,0,-0.386734694,-0.331122449,1,0,0,0.988,button_left_main,-0.386734694,-0.331122449,1,0,0,,0,50,50,124,1,TUNCH,HB,old,z,./images/TUNCHHB.png,,,,,,,,,,,,,,,,,,,,
,,,,,,,,,,,,,,,,,199633,19,2022-01-28_17h14.21.747,lexical_decision_task_DD_L3,2021.2.3,iPhone,58.82352941,,,,,,,,,,0.823,0,,,,,,,,,,,,,,,0,-0.393877551,-0.337244898,1,0,0,0.823,button_left_main,-0.393877551,-0.337244898,1,0,0,,0,51,51,69,1,COOKER,LB,old,m,./images/COOKERLB.png,,,,,,,,,,,,,,,,,,,,
,,,,,,,,,,,,,,,,,199633,19,2022-01-28_17h14.21.747,lexical_decision_task_DD_L3,2021.2.3,iPhone,58.82352941,,,,,,,,,,1.105,1,,,,,,,,,,,,,,,0,0.307142857,-0.329081633,1,0,0,1.105,button_right_main,0.307142857,-0.329081633,1,0,0,,0,52,52,80,1,WEASEL,HB,old,m,./images/WEASELHB.png,,,,,,,,,,,,,,,,,,,,
,,,,,,,,,,,,,,,,,199633,19,2022-01-28_17h14.21.747,lexical_decision_task_DD_L3,2021.2.3,iPhone,58.82352941,,,,,,,,,,1.372,1,,,,,,,,,,,,,,,0,0.326530612,-0.332142857,1,0,0,1.372,button_right_main,0.326530612,-0.332142857,1,0,0,,0,53,53,17,1,SKIING,HB,old,m,./images/SKIINGHB.png,,,,,,,,,,,,,,,,,,,,
,,,,,,,,,,,,,,,,,199633,19,2022-01-28_17h14.21.747,lexical_decision_task_DD_L3,2021.2.3,iPhone,58.82352941,,,,,,,,,,1.023,1,,,,,,,,,,,,,,,0,0.341836735,-0.290306122,1,0,0,1.023,button_right_main,0.341836735,-0.290306122,1,0,0,,0,54,54,52,1,BANNER,C,old,m,./images/BANNER.png,,,,,,,,,,,,,,,,,,,,
,,,,,,,,,,,,,,,,,199633,19,2022-01-28_17h14.21.747,lexical_decision_task_DD_L3,2021.2.3,iPhone,58.82352941,,,,,,,,,,0.638,1,,,,,,,,,,,,,,,0,-0.384693878,-0.345408163,1,0,0,0.638,button_left_main,-0.384693878,-0.345408163,1,0,0,,0,55,55,141,1,PLEET,C,old,z,./images/PLEET.png,,,,,,,,,,,,,,,,,,,,
,,,,,,,,,,,,,,,,,199633,19,2022-01-28_17h14.21.747,lexical_decision_task_DD_L3,2021.2.3,iPhone,58.82352941,,,,,,,,,,1.588,1,,,,,,,,,,,,,,,0,-0.368367347,-0.370918367,1,0,0,1.588,button_left_main,-0.368367347,-0.370918367,1,0,0,,0,56,56,118,1,BAVEL,HB,old,z,./images/BAVELHB.png,,,,,,,,,,,,,,,,,,,,
,,,,,,,,,,,,,,,,,199633,19,2022-01-28_17h14.21.747,lexical_decision_task_DD_L3,2021.2.3,iPhone,58.82352941,,,,,,,,,,0.807,0,,,,,,,,,,,,,,,0,-0.374489796,-0.320918367,1,0,0,0.807,button_left_main,-0.374489796,-0.320918367,1,0,0,,0,57,57,14,1,PICKLE,HB,old,m,./images/PICKLEHB.png,,,,,,,,,,,,,,,,,,,,
,,,,,,,,,,,,,,,,,199633,19,2022-01-28_17h14.21.747,lexical_decision_task_DD_L3,2021.2.3,iPhone,58.82352941,,,,,,,,,,0.872,1,,,,,,,,,,,,,,,0,0.325510204,-0.332142857,1,0,0,0.872,button_right_main,0.325510204,-0.332142857,1,0,0,,0,58,58,74,1,CEMENT,HB,old,m,./images/CEMENTHB.png,,,,,,,,,,,,,,,,,,,,
,,,,,,,,,,,,,,,,,199633,19,2022-01-28_17h14.21.747,lexical_decision_task_DD_L3,2021.2.3,iPhone,58.82352941,,,,,,,,,,0.806,1,,,,,,,,,,,,,,,0,0.354081633,-0.298469388,1,0,0,0.806,button_right_main,0.354081633,-0.298469388,1,0,0,,0,59,59,64,1,JELLY,C,old,m,./images/JELLY.png,,,,,,,,,,,,,,,,,,,,
,,,,,,,,,,,,,,,,,199633,19,2022-01-28_17h14.21.747,lexical_decision_task_DD_L3,2021.2.3,iPhone,58.82352941,,,,,,,,,,0.854,1,,,,,,,,,,,,,,,0,0.329591837,-0.332142857,1,0,0,0.854,button_right_main,0.329591837,-0.332142857,1,0,0,,0,60,60,54,1,TRIPOD,LB,old,m,./images/TRIPODLB.png,,,,,,,,,,,,,,,,,,,,
,,,,,,,,,,,,,,,,,199633,19,2022-01-28_17h14.21.747,lexical_decision_task_DD_L3,2021.2.3,iPhone,58.82352941,,,,,,,,,,0.588,1,,,,,,,,,,,,,,,0,0.3,-0.348469388,1,0,0,0.588,button_right_main,0.3,-0.348469388,1,0,0,,0,61,61,75,1,GRAIN,LB,old,m,./images/GRAINLB.png,,,,,,,,,,,,,,,,,,,,
,,,,,,,,,,,,,,,,,199633,19,2022-01-28_17h14.21.747,lexical_decision_task_DD_L3,2021.2.3,iPhone,58.82352941,,,,,,,,,,0.938,1,,,,,,,,,,,,,,,0,-0.376530612,-0.342346939,1,0,0,0.938,button_left_main,-0.376530612,-0.342346939,1,0,0,,0,62,62,109,1,BURGE,HB,old,z,./images/BURGEHB.png,,,,,,,,,,,,,,,,,,,,
,,,,,,,,,,,,,,,,,199633,19,2022-01-28_17h14.21.747,lexical_decision_task_DD_L3,2021.2.3,iPhone,58.82352941,,,,,,,,,,1.006,1,,,,,,,,,,,,,,,0,-0.373469388,-0.310714286,1,0,0,1.006,button_left_main,-0.373469388,-0.310714286,1,0,0,,0,63,63,127,1,NINDY,HB,old,z,./images/NINDYHB.png,,,,,,,,,,,,,,,,,,,,
,,,,,,,,,,,,,,,,,199633,19,2022-01-28_17h14.21.747,lexical_decision_task_DD_L3,2021.2.3,iPhone,58.82352941,,,,,,,,,,0.756,1,,,,,,,,,,,,,,,0,0.348979592,-0.304591837,1,0,0,0.756,button_right_main,0.348979592,-0.304591837,1,0,0,,0,64,64,9,1,RHINO,LB,old,m,./images/RHINOLB.png,,,,,,,,,,,,,,,,,,,,
,,,,,,,,,,,,,,,,,199633,19,2022-01-28_17h14.21.747,lexical_decision_task_DD_L3,2021.2.3,iPhone,58.82352941,,,,,,,,,,0.753,1,,,,,,,,,,,,,,,0,-0.366326531,-0.377040816,1,0,0,0.753,button_left_main,-0.366326531,-0.377040816,1,0,0,,0,65,65,122,1,BLOOT,LB,old,z,./images/BLOOTLB.png,,,,,,,,,,,,,,,,,,,,
,,,,,,,,,,,,,,,,,199633,19,2022-01-28_17h14.21.747,lexical_decision_task_DD_L3,2021.2.3,iPhone,58.82352941,,,,,,,,,,0.638,1,,,,,,,,,,,,,,,0,0.340816327,-0.310714286,1,0,0,0.638,button_right_main,0.340816327,-0.310714286,1,0,0,,0,66,66,19,1,DOUGH,C,old,m,./images/DOUGH.png,,,,,,,,,,,,,,,,,,,,
,,,,,,,,,,,,,,,,,199633,19,2022-01-28_17h14.21.747,lexical_decision_task_DD_L3,2021.2.3,iPhone,58.82352941,,,,,,,,,,0.736,1,,,,,,,,,,,,,,,0,0.342857143,-0.295408163,1,0,0,0.736,button_right_main,0.342857143,-0.295408163,1,0,0,,0,67,67,39,1,SHELF,LB,old,m,./images/SHELFLB.png,,,,,,,,,,,,,,,,,,,,
,,,,,,,,,,,,,,,,,199633,19,2022-01-28_17h14.21.747,lexical_decision_task_DD_L3,2021.2.3,iPhone,58.82352941,,,,,,,,,,0.771,1,,,,,,,,,,,,,,,0,-0.376530612,-0.353571429,1,0,0,0.771,button_left_main,-0.376530612,-0.353571429,1,0,0,,0,68,68,125,1,MOOKY,LB,old,z,./images/MOOKYLB.png,,,,,,,,,,,,,,,,,,,,
,,,,,,,,,,,,,,,,,199633,19,2022-01-28_17h14.21.747,lexical_decision_task_DD_L3,2021.2.3,iPhone,58.82352941,,,,,,,,,,0.872,1,,,,,,,,,,,,,,,0,0.325510204,-0.317857143,1,0,0,0.872,button_right_main,0.325510204,-0.317857143,1,0,0,,0,69,69,32,1,BARREL,HB,old,m,./images/BARRELHB.png,,,,,,,,,,,,,,,,,,,,
,,,,,,,,,,,,,,,,,199633,19,2022-01-28_17h14.21.747,lexical_decision_task_DD_L3,2021.2.3,iPhone,58.82352941,,,,,,,,,,0.621,1,,,,,,,,,,,,,,,0,-0.386734694,-0.345408163,1,0,0,0.621,button_left_main,-0.386734694,-0.345408163,1,0,0,,0,70,70,87,1,TRING,C,old,z,./images/TRING.png,,,,,,,,,,,,,,,,,,,,
,,,,,,,,,,,,,,,,,199633,19,2022-01-28_17h14.21.747,lexical_decision_task_DD_L3,2021.2.3,iPhone,58.82352941,,,,,,,,,,0.938,1,,,,,,,,,,,,,,,0,0.320408163,-0.350510204,1,0,0,0.938,button_right_main,0.320408163,-0.350510204,1,0,0,,0,71,71,68,1,TORCH,HB,old,m,./images/TORCHHB.png,,,,,,,,,,,,,,,,,,,,
,,,,,,,,,,,,,,,,,199633,19,2022-01-28_17h14.21.747,lexical_decision_task_DD_L3,2021.2.3,iPhone,58.82352941,,,,,,,,,,0.772,1,,,,,,,,,,,,,,,0,0.324489796,-0.310714286,1,0,0,0.772,button_right_main,0.324489796,-0.310714286,1,0,0,,0,72,72,78,1,LITTER,LB,old,m,./images/LITTERLB.png,,,,,,,,,,,,,,,,,,,,
,,,,,,,,,,,,,,,,,199633,19,2022-01-28_17h14.21.747,lexical_decision_task_DD_L3,2021.2.3,iPhone,58.82352941,,,,,,,,,,0.705,1,,,,,,,,,,,,,,,0,-0.390816327,-0.341326531,1,0,0,0.705,button_left_main,-0.390816327,-0.341326531,1,0,0,,0,73,73,133,1,POWDY,HB,old,z,./images/POWDYHB.png,,,,,,,,,,,,,,,,,,,,
,,,,,,,,,,,,,,,,,199633,19,2022-01-28_17h14.21.747,lexical_decision_task_DD_L3,2021.2.3,iPhone,58.82352941,,,,,,,,,,0.804,1,,,,,,,,,,,,,,,0,-0.389795918,-0.354591837,1,0,0,0.804,button_left_main,-0.389795918,-0.354591837,1,0,0,,0,74,74,161,1,BLAPS,LB,old,z,./images/BLAPSLB.png,,,,,,,,,,,,,,,,,,,,
,,,,,,,,,,,,,,,,,199633,19,2022-01-28_17h14.21.747,lexical_decision_task_DD_L3,2021.2.3,iPhone,58.82352941,,,,,,,,,,0.688,1,,,,,,,,,,,,,,,0,0.314285714,-0.332142857,1,0,0,0.688,button_right_main,0.314285714,-0.332142857,1,0,0,,0,75,75,13,1,MOTOR,C,old,m,./images/MOTOR.png,,,,,,,,,,,,,,,,,,,,
,,,,,,,,,,,,,,,,,199633,19,2022-01-28_17h14.21.747,lexical_decision_task_DD_L3,2021.2.3,iPhone,58.82352941,,,,,,,,,,0.886,1,,,,,,,,,,,,,,,0,-0.363265306,-0.348469388,1,0,0,0.886,button_left_main,-0.363265306,-0.348469388,1,0,0,,0,76,76,143,1,MONGS,LB,old,z,./images/MONGSLB.png,,,,,,,,,,,,,,,,,,,,
,,,,,,,,,,,,,,,,,199633,19,2022-01-28_17h14.21.747,lexical_decision_task_DD_L3,2021.2.3,iPhone,58.82352941,,,,,,,,,,0.604,1,,,,,,,,,,,,,,,0,0.323469388,-0.311734694,1,0,0,0.604,button_right_main,0.323469388,-0.311734694,1,0,0,,0,77,77,55,1,MUFFIN,C,old,m,./images/MUFFIN.png,,,,,,,,,,,,,,,,,,,,
,,,,,,,,,,,,,,,,,199633,19,2022-01-28_17h14.21.747,lexical_decision_task_DD_L3,2021.2.3,iPhone,58.82352941,,,,,,,,,,0.671,1,,,,,,,,,,,,,,,0,-0.389795918,-0.334183673,1,0,0,0.671,button_left_main,-0.389795918,-0.334183673,1,0,0,,0,78,78,89,1,DRIEK,LB,old,z,./images/DRIEKLB.png,,,,,,,,,,,,,,,,,,,,
,,,,,,,,,,,,,,,,,199633,19,2022-01-28_17h14.21.747,lexical_decision_task_DD_L3,2021.2.3,iPhone,58.82352941,,,,,,,,,,0.738,1,,,,,,,,,,,,,,,0,-0.392857143,-0.341326531,1,0,0,0.738,button_left_main,-0.392857143,-0.341326531,1,0,0,,0,79,79,119,1,PAFER,LB,old,z,./images/PAFERLB.png,,,,,,,,,,,,,,,,,,,,
,,,,,,,,,,,,,,,,,199633,19,2022-01-28_17h14.21.747,lexical_decision_task_DD_L3,2021.2.3,iPhone,58.82352941,,,,,,,,,,1.089,1,,,,,,,,,,,,,,,0,0.321428571,-0.335204082,1,0,0,1.089,button_right_main,0.321428571,-0.335204082,1,0,0,,0,80,80,31,1,QUILL,C,old,m,./images/QUILL.png,,,,,,,,,,,,,,,,,,,,
,,,,,,,,,,,,,,,,,199633,19,2022-01-28_17h14.21.747,lexical_decision_task_DD_L3,2021.2.3,iPhone,58.82352941,,,,,,,,,,0.558,1,,,,,,,,,,,,,,,0,0.32244898,-0.290306122,1,0,0,0.558,button_right_main,0.32244898,-0.290306122,1,0,0,,0,81,81,10,1,BELLY,C,old,m,./images/BELLY.png,,,,,,,,,,,,,,,,,,,,
,,,,,,,,,,,,,,,,,199633,19,2022-01-28_17h14.21.747,lexical_decision_task_DD_L3,2021.2.3,iPhone,58.82352941,,,,,,,,,,0.57,1,,,,,,,,,,,,,,,0,-0.384693878,-0.366836735,1,0,0,0.57,button_left_main,-0.384693878,-0.366836735,1,0,0,,0,82,82,86,1,AIFED,LB,old,z,./images/AIFEDLB.png,,,,,,,,,,,,,,,,,,,,
,,,,,,,,,,,,,,,,,199633,19,2022-01-28_17h14.21.747,lexical_decision_task_DD_L3,2021.2.3,iPhone,58.82352941,,,,,,,,,,1.406,1,,,,,,,,,,,,,,,0,-0.36122449,-0.304591837,1,0,0,1.406,button_left_main,0.123469388,-0.421938776,1,0,0,,0,83,83,154,1,THINT,HB,old,z,./images/THINTHB.png,break_done_button,,,,,,,,,,,,,,,,,,,
,,,,,,,,,,,,,,,,,199633,19,2022-01-28_17h14.21.747,lexical_decision_task_DD_L3,2021.2.3,iPhone,58.82352941,,,,,,,,,,0.721,1,,,,,,,,,,,,,,,0,0.33877551,-0.304591837,1,0,0,0.721,button_right_main,0.33877551,-0.304591837,1,0,0,,0,84,84,15,1,GREASE,LB,old,m,./images/GREASELB.png,,,,,,,,,,,,,,,,,,,,
,,,,,,,,,,,,,,,,,199633,19,2022-01-28_17h14.21.747,lexical_decision_task_DD_L3,2021.2.3,iPhone,58.82352941,,,,,,,,,,0.535,1,,,,,,,,,,,,,,,0,0.32244898,-0.305612245,1,0,0,0.535,button_right_main,0.32244898,-0.305612245,1,0,0,,0,85,85,24,1,SCREW,LB,old,m,./images/SCREWLB.png,,,,,,,,,,,,,,,,,,,,
,,,,,,,,,,,,,,,,,199633,19,2022-01-28_17h14.21.747,lexical_decision_task_DD_L3,2021.2.3,iPhone,58.82352941,,,,,,,,,,0.721,1,,,,,,,,,,,,,,,0,-0.394897959,-0.339285714,1,0,0,0.721,button_left_main,-0.394897959,-0.339285714,1,0,0,,0,86,86,99,1,BACKY,C,old,z,./images/BACKY.png,,,,,,,,,,,,,,,,,,,,
,,,,,,,,,,,,,,,,,199633,19,2022-01-28_17h14.21.747,lexical_decision_task_DD_L3,2021.2.3,iPhone,58.82352941,,,,,,,,,,1.019,1,,,,,,,,,,,,,,,0,0.32244898,-0.316836735,1,0,0,1.019,button_right_main,0.32244898,-0.316836735,1,0,0,,0,87,87,20,1,CRADLE,HB,old,m,./images/CRADLEHB.png,,,,,,,,,,,,,,,,,,,,
,,,,,,,,,,,,,,,,,199633,19,2022-01-28_17h14.21.747,lexical_decision_task_DD_L3,2021.2.3,iPhone,58.82352941,,,,,,,,,,0.74,1,,,,,,,,,,,,,,,0,-0.396938776,-0.331122449,1,0,0,0.74,button_left_main,-0.396938776,-0.331122449,1,0,0,,0,88,88,131,1,NACES,LB,old,z,./images/NACESLB.png,,,,,,,,,,,,,,,,,,,,
,,,,,,,,,,,,,,,,,199633,19,2022-01-28_17h14.21.747,lexical_decision_task_DD_L3,2021.2.3,iPhone,58.82352941,,,,,,,,,,0.738,1,,,,,,,,,,,,,,,0,-0.386734694,-0.344387755,1,0,0,0.738,button_left_main,-0.386734694,-0.344387755,1,0,0,,0,89,89,102,1,DULLE,C,old,z,./images/DULLE.png,,,,,,,,,,,,,,,,,,,,
,,,,,,,,,,,,,,,,,199633,19,2022-01-28_17h14.21.747,lexical_decision_task_DD_L3,2021.2.3,iPhone,58.82352941,,,,,,,,,,0.706,1,,,,,,,,,,,,,,,0,-0.383673469,-0.315816327,1,0,0,0.706,button_left_main,-0.383673469,-0.315816327,1,0,0,,0,90,90,84,1,HAXES,C,old,z,./images/HAXES.png,,,,,,,,,,,,,,,,,,,,
,,,,,,,,,,,,,,,,,199633,19,2022-01-28_17h14.21.747,lexical_decision_task_DD_L3,2021.2.3,iPhone,58.82352941,,,,,,,,,,0.806,1,,,,,,,,,,,,,,,0,0.329591837,-0.321938776,1,0,0,0.806,button_right_main,0.329591837,-0.321938776,1,0,0,,0,91,91,26,1,SMOKER,HB,old,m,./images/SMOKERHB.png,,,,,,,,,,,,,,,,,,,,
,,,,,,,,,,,,,,,,,199633,19,2022-01-28_17h14.21.747,lexical_decision_task_DD_L3,2021.2.3,iPhone,58.82352941,,,,,,,,,,1.19,1,,,,,,,,,,,,,,,0,0.33877551,-0.320918367,1,0,0,1.19,button_right_main,0.33877551,-0.320918367,1,0,0,,0,92,92,51,1,ONION,LB,old,m,./images/ONIONLB.png,,,,,,,,,,,,,,,,,,,,
,,,,,,,,,,,,,,,,,199633,19,2022-01-28_17h14.21.747,lexical_decision_task_DD_L3,2021.2.3,iPhone,58.82352941,,,,,,,,,,0.834,1,,,,,,,,,,,,,,,0,0.312244898,-0.344387755,1,0,0,0.834,button_right_main,0.312244898,-0.344387755,1,0,0,,0,93,93,58,1,BABOON,C,old,m,./images/BABOON.png,,,,,,,,,,,,,,,,,,,,
,,,,,,,,,,,,,,,,,199633,19,2022-01-28_17h14.21.747,lexical_decision_task_DD_L3,2021.2.3,iPhone,58.82352941,,,,,,,,,,0.724,1,,,,,,,,,,,,,,,0,-0.380612245,-0.349489796,1,0,0,0.724,button_left_main,-0.380612245,-0.349489796,1,0,0,,0,94,94,108,1,GRUET,C,old,z,./images/GRUET.png,,,,,,,,,,,,,,,,,,,,
,,,,,,,,,,,,,,,,,199633,19,2022-01-28_17h14.21.747,lexical_decision_task_DD_L3,2021.2.3,iPhone,58.82352941,,,,,,,,,,0.705,1,,,,,,,,,,,,,,,0,0.309183673,-0.34744898,1,0,0,0.705,button_right_main,0.309183673,-0.34744898,1,0,0,,0,95,95,67,1,SAILOR,C,old,m,./images/SAILOR.png,,,,,,,,,,,,,,,,,,,,
,,,,,,,,,,,,,,,,,199633,19,2022-01-28_17h14.21.747,lexical_decision_task_DD_L3,2021.2.3,iPhone,58.82352941,,,,,,,,,,0.62,1,,,,,,,,,,,,,,,0,-0.384693878,-0.341326531,1,0,0,0.62,button_left_main,-0.384693878,-0.341326531,1,0,0,,0,96,96,117,1,STEEG,C,old,z,./images/STEEG.png,,,,,,,,,,,,,,,,,,,,
,,,,,,,,,,,,,,,,,199633,19,2022-01-28_17h14.21.747,lexical_decision_task_DD_L3,2021.2.3,iPhone,58.82352941,,,,,,,,,,0.652,1,,,,,,,,,,,,,,,0,0.333673469,-0.345408163,1,0,0,0.652,button_right_main,0.333673469,-0.345408163,1,0,0,,0,97,97,2,1,BEARD,HB,old,m,./images/BEARDHB.png,,,,,,,,,,,,,,,,,,,,
,,,,,,,,,,,,,,,,,199633,19,2022-01-28_17h14.21.747,lexical_decision_task_DD_L3,2021.2.3,iPhone,58.82352941,,,,,,,,,,0.82,1,,,,,,,,,,,,,,,0,0.337755102,-0.300510204,1,0,0,0.82,button_right_main,0.337755102,-0.300510204,1,0,0,,0,98,98,27,1,ATTIC,LB,old,m,./images/ATTICLB.png,,,,,,,,,,,,,,,,,,,,
,,,,,,,,,,,,,,,,,199633,19,2022-01-28_17h14.21.747,lexical_decision_task_DD_L3,2021.2.3,iPhone,58.82352941,,,,,,,,,,0.639,1,,,,,,,,,,,,,,,0,0.310204082,-0.326020408,1,0,0,0.639,button_right_main,0.310204082,-0.326020408,1,0,0,,0,99,99,3,1,FINGER,LB,old,m,./images/FINGERLB.png,,,,,,,,,,,,,,,,,,,,
,,,,,,,,,,,,,,,,,199633,19,2022-01-28_17h14.21.747,lexical_decision_task_DD_L3,2021.2.3,iPhone,58.82352941,,,,,,,,,,0.705,1,,,,,,,,,,,,,,,0,0.310204082,-0.33622449,1,0,0,0.705,button_right_main,0.310204082,-0.33622449,1,0,0,,0,100,100,28,1,FALCON,C,old,m,./images/FALCON.png,,,,,,,,,,,,,,,,,,,,
,,,,,,,,,,,,,,,,,199633,19,2022-01-28_17h14.21.747,lexical_decision_task_DD_L3,2021.2.3,iPhone,58.82352941,,,,,,,,,,0.588,1,,,,,,,,,,,,,,,0,0.331632653,-0.298469388,1,0,0,0.588,button_right_main,0.331632653,-0.298469388,1,0,0,,0,101,101,33,1,MAGGOT,LB,old,m,./images/MAGGOTLB.png,,,,,,,,,,,,,,,,,,,,
,,,,,,,,,,,,,,,,,199633,19,2022-01-28_17h14.21.747,lexical_decision_task_DD_L3,2021.2.3,iPhone,58.82352941,,,,,,,,,,0.654,1,,,,,,,,,,,,,,,0,0.312244898,-0.337244898,1,0,0,0.654,button_right_main,0.312244898,-0.337244898,1,0,0,,0,102,102,76,1,INFANT,C,old,m,./images/INFANT.png,,,,,,,,,,,,,,,,,,,,
,,,,,,,,,,,,,,,,,199633,19,2022-01-28_17h14.21.747,lexical_decision_task_DD_L3,2021.2.3,iPhone,58.82352941,,,,,,,,,,0.711,1,,,,,,,,,,,,,,,0,0.341836735,-0.311734694,1,0,0,0.711,button_right_main,0.341836735,-0.311734694,1,0,0,,0,103,103,22,1,MELON,C,old,m,./images/MELON.png,,,,,,,,,,,,,,,,,,,,
,,,,,,,,,,,,,,,,,199633,19,2022-01-28_17h14.21.747,lexical_decision_task_DD_L3,2021.2.3,iPhone,58.82352941,,,,,,,,,,1.302,1,,,,,,,,,,,,,,,0,-0.393877551,-0.342346939,1,0,0,1.302,button_left_main,-0.393877551,-0.342346939,1,0,0,,0,104,104,164,1,SGREW,LB,old,z,./images/SGREWLB.png,,,,,,,,,,,,,,,,,,,,
,,,,,,,,,,,,,,,,,199633,19,2022-01-28_17h14.21.747,lexical_decision_task_DD_L3,2021.2.3,iPhone,58.82352941,,,,,,,,,,1.166,1,,,,,,,,,,,,,,,0,-0.363265306,-0.318877551,1,0,0,1.166,button_left_main,-0.363265306,-0.318877551,1,0,0,,0,105,105,136,1,WERVE,HB,old,z,./images/WERVEHB.png,,,,,,,,,,,,,,,,,,,,
,,,,,,,,,,,,,,,,,199633,19,2022-01-28_17h14.21.747,lexical_decision_task_DD_L3,2021.2.3,iPhone,58.82352941,,,,,,,,,,0.764,1,,,,,,,,,,,,,,,0,-0.371428571,-0.358673469,1,0,0,0.764,button_left_main,-0.371428571,-0.358673469,1,0,0,,0,106,106,165,1,TROWN,C,old,z,./images/TROWN.png,,,,,,,,,,,,,,,,,,,,
,,,,,,,,,,,,,,,,,199633,19,2022-01-28_17h14.21.747,lexical_decision_task_DD_L3,2021.2.3,iPhone,58.82352941,,,,,,,,,,1.065,1,,,,,,,,,,,,,,,0,0.310204082,-0.339285714,1,0,0,1.065,button_right_main,0.310204082,-0.339285714,1,0,0,,0,107,107,38,1,LADDER,HB,old,m,./images/LADDERHB.png,,,,,,,,,,,,,,,,,,,,
,,,,,,,,,,,,,,,,,199633,19,2022-01-28_17h14.21.747,lexical_decision_task_DD_L3,2021.2.3,iPhone,58.82352941,,,,,,,,,,1.044,1,,,,,,,,,,,,,,,0,-0.378571429,-0.309693878,1,0,0,1.044,button_left_main,-0.378571429,-0.309693878,1,0,0,,0,108,108,148,1,JOMS,HB,old,z,./images/JOMSHB.png,,,,,,,,,,,,,,,,,,,,
,,,,,,,,,,,,,,,,,199633,19,2022-01-28_17h14.21.747,lexical_decision_task_DD_L3,2021.2.3,iPhone,58.82352941,,,,,,,,,,1.51,1,,,,,,,,,,,,,,,0,-0.36122449,-0.275,1,0,0,1.51,button_left_main,-0.36122449,-0.275,1,0,0,,0,109,109,130,1,CRILL,HB,old,z,./images/CRILLHB.png,,,,,,,,,,,,,,,,,,,,
,,,,,,,,,,,,,,,,,199633,19,2022-01-28_17h14.21.747,lexical_decision_task_DD_L3,2021.2.3,iPhone,58.82352941,,,,,,,,,,0.711,1,,,,,,,,,,,,,,,0,0.325510204,-0.332142857,1,0,0,0.711,button_right_main,0.325510204,-0.332142857,1,0,0,,0,110,110,44,1,LIZARD,HB,old,m,./images/LIZARDHB.png,,,,,,,,,,,,,,,,,,,,
,,,,,,,,,,,,,,,,,199633,19,2022-01-28_17h14.21.747,lexical_decision_task_DD_L3,2021.2.3,iPhone,58.82352941,,,,,,,,,,0.765,1,,,,,,,,,,,,,,,0,-0.376530612,-0.332142857,1,0,0,0.765,button_left_main,-0.376530612,-0.332142857,1,0,0,,0,111,111,95,1,HANTY,LB,old,z,./images/HANTYLB.png,,,,,,,,,,,,,,,,,,,,
,,,,,,,,,,,,,,,,,199633,19,2022-01-28_17h14.21.747,lexical_decision_task_DD_L3,2021.2.3,iPhone,58.82352941,,,,,,,,,,1.114,1,,,,,,,,,,,,,,,0,-0.376530612,-0.338265306,1,0,0,1.114,button_left_main,-0.376530612,-0.338265306,1,0,0,,0,112,112,110,1,CRUNK,LB,old,z,./images/CRUNKLB.png,,,,,,,,,,,,,,,,,,,,
,,,,,,,,,,,,,,,,,199633,19,2022-01-28_17h14.21.747,lexical_decision_task_DD_L3,2021.2.3,iPhone,58.82352941,,,,,,,,,,1.165,1,,,,,,,,,,,,,,,0,0.317346939,-0.328061224,1,0,0,1.165,button_right_main,0.317346939,-0.328061224,1,0,0,,0,113,113,79,1,CRUST,C,old,m,./images/CRUST.png,,,,,,,,,,,,,,,,,,,,
,,,,,,,,,,,,,,,,,199633,19,2022-01-28_17h14.21.747,lexical_decision_task_DD_L3,2021.2.3,iPhone,58.82352941,,,,,,,,,,1.465,1,,,,,,,,,,,,,,,0,-0.386734694,-0.325,1,0,0,1.465,button_left_main,-0.386734694,-0.325,1,0,0,,0,114,114,106,1,CLUMS,HB,old,z,./images/CLUMSHB.png,,,,,,,,,,,,,,,,,,,,
,,,,,,,,,,,,,,,,,199633,19,2022-01-28_17h14.21.747,lexical_decision_task_DD_L3,2021.2.3,iPhone,58.82352941,,,,,,,,,,0.731,1,,,,,,,,,,,,,,,0,-0.362244898,-0.348469388,1,0,0,0.731,button_left_main,-0.362244898,-0.348469388,1,0,0,,0,115,115,114,1,RIKES,C,old,z,./images/RIKES.png,,,,,,,,,,,,,,,,,,,,
,,,,,,,,,,,,,,,,,199633,19,2022-01-28_17h14.21.747,lexical_decision_task_DD_L3,2021.2.3,iPhone,58.82352941,,,,,,,,,,0.793,1,,,,,,,,,,,,,,,0,-0.373469388,-0.335204082,1,0,0,0.793,button_left_main,-0.373469388,-0.335204082,1,0,0,,0,116,116,121,1,CEERS,HB,old,z,./images/CEERSHB.png,,,,,,,,,,,,,,,,,,,,
,,,,,,,,,,,,,,,,,199633,19,2022-01-28_17h14.21.747,lexical_decision_task_DD_L3,2021.2.3,iPhone,58.82352941,,,,,,,,,,0.631,1,,,,,,,,,,,,,,,0,-0.382653061,-0.309693878,1,0,0,0.631,button_left_main,-0.382653061,-0.309693878,1,0,0,,0,117,117,150,1,NOOLS,C,old,z,./images/NOOLS.png,,,,,,,,,,,,,,,,,,,,
,,,,,,,,,,,,,,,,,199633,19,2022-01-28_17h14.21.747,lexical_decision_task_DD_L3,2021.2.3,iPhone,58.82352941,,,,,,,,,,0.698,1,,,,,,,,,,,,,,,0,-0.363265306,-0.325,1,0,0,0.698,button_left_main,-0.363265306,-0.325,1,0,0,,0,118,118,103,1,FLORT,HB,old,z,./images/FLORTHB.png,,,,,,,,,,,,,,,,,,,,
,,,,,,,,,,,,,,,,,199633,19,2022-01-28_17h14.21.747,lexical_decision_task_DD_L3,2021.2.3,iPhone,58.82352941,,,,,,,,,,0.645,1,,,,,,,,,,,,,,,0,-0.347959184,-0.33622449,1,0,0,0.645,button_left_main,-0.347959184,-0.33622449,1,0,0,,0,119,119,142,1,PLASK,HB,old,z,./images/PLASKHB.png,,,,,,,,,,,,,,,,,,,,
,,,,,,,,,,,,,,,,,199633,19,2022-01-28_17h14.21.747,lexical_decision_task_DD_L3,2021.2.3,iPhone,58.82352941,,,,,,,,,,0.777,1,,,,,,,,,,,,,,,0,0.340816327,-0.306632653,1,0,0,0.777,button_right_main,0.340816327,-0.306632653,1,0,0,,0,120,120,83,1,JUNGLE,HB,old,m,./images/JUNGLEHB.png,,,,,,,,,,,,,,,,,,,,
,,,,,,,,,,,,,,,,,199633,19,2022-01-28_17h14.21.747,lexical_decision_task_DD_L3,2021.2.3,iPhone,58.82352941,,,,,,,,,,0.544,1,,,,,,,,,,,,,,,0,0.297959184,-0.320918367,1,0,0,0.544,button_right_main,0.297959184,-0.320918367,1,0,0,,0,121,121,66,1,SWEAT,LB,old,m,./images/SWEATLB.png,,,,,,,,,,,,,,,,,,,,
,,,,,,,,,,,,,,,,,199633,19,2022-01-28_17h14.21.747,lexical_decision_task_DD_L3,2021.2.3,iPhone,58.82352941,,,,,,,,,,0.644,1,,,,,,,,,,,,,,,0,0.298979592,-0.315816327,1,0,0,0.644,button_right_main,0.298979592,-0.315816327,1,0,0,,0,122,122,82,1,SUNSET,C,old,m,./images/SUNSET.png,,,,,,,,,,,,,,,,,,,,
,,,,,,,,,,,,,,,,,199633,19,2022-01-28_17h14.21.747,lexical_decision_task_DD_L3,2021.2.3,iPhone,58.82352941,,,,,,,,,,1.312,1,,,,,,,,,,,,,,,0,-0.367346939,-0.315816327,1,0,0,1.312,button_left_main,-0.367346939,-0.315816327,1,0,0,,0,123,123,166,1,SHORY,HB,old,z,./images/SHORYHB.png,,,,,,,,,,,,,,,,,,,,
,,,,,,,,,,,,,,,,,199633,19,2022-01-28_17h14.21.747,lexical_decision_task_DD_L3,2021.2.3,iPhone,58.82352941,,,,,,,,,,0.68,1,,,,,,,,,,,,,,,0,-0.373469388,-0.343367347,1,0,0,0.68,button_left_main,-0.373469388,-0.343367347,1,0,0,,0,124,124,111,1,HOSSE,C,old,z,./images/HOSSE.png,,,,,,,,,,,,,,,,,,,,
,,,,,,,,,,,,,,,,,199633,19,2022-01-28_17h14.21.747,lexical_decision_task_DD_L3,2021.2.3,iPhone,58.82352941,,,,,,,,,,0.698,1,,,,,,,,,,,,,,,0,0.307142857,-0.357653061,1,0,0,0.698,button_right_main,0.157142857,-0.40255102,1,0,0,,0,125,125,41,1,STRING,HB,old,m,./images/STRINGHB.png,break_done_button,,,,,,,,,,,,,,,,,,,
,,,,,,,,,,,,,,,,,199633,19,2022-01-28_17h14.21.747,lexical_decision_task_DD_L3,2021.2.3,iPhone,58.82352941,,,,,,,,,,0.733,1,,,,,,,,,,,,,,,0,-0.380612245,-0.343367347,1,0,0,0.733,button_left_main,-0.380612245,-0.343367347,1,0,0,,0,126,126,92,1,PAIMS,LB,old,z,./images/PAIMSLB.png,,,,,,,,,,,,,,,,,,,,
,,,,,,,,,,,,,,,,,199633,19,2022-01-28_17h14.21.747,lexical_decision_task_DD_L3,2021.2.3,iPhone,58.82352941,,,,,,,,,,0.843,1,,,,,,,,,,,,,,,0,0.341836735,-0.279081633,1,0,0,0.843,button_right_main,0.341836735,-0.279081633,1,0,0,,0,127,127,25,1,WRIST,C,old,m,./images/WRIST.png,,,,,,,,,,,,,,,,,,,,
,,,,,,,,,,,,,,,,,199633,19,2022-01-28_17h14.21.747,lexical_decision_task_DD_L3,2021.2.3,iPhone,58.82352941,,,,,,,,,,0.611,1,,,,,,,,,,,,,,,0,0.324489796,-0.287244898,1,0,0,0.611,button_right_main,0.324489796,-0.287244898,1,0,0,,0,128,128,36,1,THROAT,LB,old,m,./images/THROATLB.png,,,,,,,,,,,,,,,,,,,,
,,,,,,,,,,,,,,,,,199633,19,2022-01-28_17h14.21.747,lexical_decision_task_DD_L3,2021.2.3,iPhone,58.82352941,,,,,,,,,,0.646,1,,,,,,,,,,,,,,,0,0.314285714,-0.290306122,1,0,0,0.646,button_right_main,0.314285714,-0.290306122,1,0,0,,0,129,129,4,1,MUSCLE,C,old,m,./images/MUSCLE.png,,,,,,,,,,,,,,,,,,,,
,,,,,,,,,,,,,,,,,199633,19,2022-01-28_17h14.21.747,lexical_decision_task_DD_L3,2021.2.3,iPhone,58.82352941,,,,,,,,,,0.581,1,,,,,,,,,,,,,,,0,0.334693878,-0.290306122,1,0,0,0.581,button_right_main,0.334693878,-0.290306122,1,0,0,,0,130,130,46,1,PEARL,C,old,m,./images/PEARL.png,,,,,,,,,,,,,,,,,,,,
,,,,,,,,,,,,,,,,,199633,19,2022-01-28_17h14.21.747,lexical_decision_task_DD_L3,2021.2.3,iPhone,58.82352941,,,,,,,,,,0.511,1,,,,,,,,,,,,,,,0,0.329591837,-0.301530612,1,0,0,0.511,button_right_main,0.329591837,-0.301530612,1,0,0,,0,131,131,61,1,CANDLE,C,old,m,./images/CANDLE.png,,,,,,,,,,,,,,,,,,,,
,,,,,,,,,,,,,,,,,199633,19,2022-01-28_17h14.21.747,lexical_decision_task_DD_L3,2021.2.3,iPhone,58.82352941,,,,,,,,,,0.932,0,,,,,,,,,,,,,,,0,0.292857143,-0.339285714,1,0,0,0.932,button_right_main,0.292857143,-0.339285714,1,0,0,,0,132,132,94,1,BLANS,HB,old,z,./images/BLANSHB.png,,,,,,,,,,,,,,,,,,,,
,,,,,,,,,,,,,,,,,199633,19,2022-01-28_17h14.21.747,lexical_decision_task_DD_L3,2021.2.3,iPhone,58.82352941,,,,,,,,,,0.71,1,,,,,,,,,,,,,,,0,0.326530612,-0.351530612,1,0,0,0.71,button_right_main,0.326530612,-0.351530612,1,0,0,,0,133,133,48,1,SPORT,LB,old,m,./images/SPORTLB.png,,,,,,,,,,,,,,,,,,,,
,,,,,,,,,,,,,,,,,199633,19,2022-01-28_17h14.21.747,lexical_decision_task_DD_L3,2021.2.3,iPhone,58.82352941,,,,,,,,,,0.611,1,,,,,,,,,,,,,,,0,-0.384693878,-0.337244898,1,0,0,0.611,button_left_main,-0.384693878,-0.337244898,1,0,0,,0,134,134,132,1,SCIFF,C,old,z,./images/SCIFF.png,,,,,,,,,,,,,,,,,,,,
,,,,,,,,,,,,,,,,,199633,19,2022-01-28_17h14.21.747,lexical_decision_task_DD_L3,2021.2.3,iPhone,58.82352941,,,,,,,,,,0.844,1,,,,,,,,,,,,,,,0,-0.364285714,-0.371938776,1,0,0,0.844,button_left_main,-0.364285714,-0.371938776,1,0,0,,0,135,135,163,1,GAMBA,HB,old,z,./images/GAMBAHB.png,,,,,,,,,,,,,,,,,,,,
,,,,,,,,,,,,,,,,,199633,19,2022-01-28_17h14.21.747,lexical_decision_task_DD_L3,2021.2.3,iPhone,58.82352941,,,,,,,,,,0.81,1,,,,,,,,,,,,,,,0,-0.394897959,-0.316836735,1,0,0,0.81,button_left_main,-0.394897959,-0.316836735,1,0,0,,0,136,136,100,1,DRIBS,HB,old,z,./images/DRIBSHB.png,,,,,,,,,,,,,,,,,,,,
,,,,,,,,,,,,,,,,,199633,19,2022-01-28_17h14.21.747,lexical_decision_task_DD_L3,2021.2.3,iPhone,58.82352941,,,,,,,,,,0.932,1,,,,,,,,,,,,,,,0,-0.383673469,-0.316836735,1,0,0,0.932,button_left_main,-0.383673469,-0.316836735,1,0,0,,0,137,137,85,1,CHULK,HB,old,z,./images/CHULKHB.png,,,,,,,,,,,,,,,,,,,,
,,,,,,,,,,,,,,,,,199633,19,2022-01-28_17h14.21.747,lexical_decision_task_DD_L3,2021.2.3,iPhone,58.82352941,,,,,,,,,,0.644,1,,,,,,,,,,,,,,,0,-0.383673469,-0.332142857,1,0,0,0.644,button_left_main,-0.383673469,-0.332142857,1,0,0,,0,138,138,137,1,JOOST,LB,old,z,./images/JOOSTLB.png,,,,,,,,,,,,,,,,,,,,
,,,,,,,,,,,,,,,,,199633,19,2022-01-28_17h14.21.747,lexical_decision_task_DD_L3,2021.2.3,iPhone,58.82352941,,,,,,,,,,0.711,1,,,,,,,,,,,,,,,0,-0.379591837,-0.357653061,1,0,0,0.711,button_left_main,-0.379591837,-0.357653061,1,0,0,,0,139,139,101,1,GLEET,LB,old,z,./images/GLEETLB.png,,,,,,,,,,,,,,,,,,,,
,,,,,,,,,,,,,,,,,199633,19,2022-01-28_17h14.21.747,lexical_decision_task_DD_L3,2021.2.3,iPhone,58.82352941,,,,,,,,,,0.632,1,,,,,,,,,,,,,,,0,-0.369387755,-0.34744898,1,0,0,0.632,button_left_main,-0.369387755,-0.34744898,1,0,0,,0,140,140,90,1,NEAST,C,old,z,./images/NEAST.png,,,,,,,,,,,,,,,,,,,,
,,,,,,,,,,,,,,,,,199633,19,2022-01-28_17h14.21.747,lexical_decision_task_DD_L3,2021.2.3,iPhone,58.82352941,,,,,,,,,,0.781,1,,,,,,,,,,,,,,,0,-0.374489796,-0.361734694,1,0,0,0.781,button_left_main,-0.374489796,-0.361734694,1,0,0,,0,141,141,88,1,GLUSH,HB,old,z,./images/GLUSHHB.png,,,,,,,,,,,,,,,,,,,,
,,,,,,,,,,,,,,,,,199633,19,2022-01-28_17h14.21.747,lexical_decision_task_DD_L3,2021.2.3,iPhone,58.82352941,,,,,,,,,,0.545,1,,,,,,,,,,,,,,,0,-0.370408163,-0.321938776,1,0,0,0.545,button_left_main,-0.370408163,-0.321938776,1,0,0,,0,142,142,147,1,ZOLES,C,old,z,./images/ZOLES.png,,,,,,,,,,,,,,,,,,,,
,,,,,,,,,,,,,,,,,199633,19,2022-01-28_17h14.21.747,lexical_decision_task_DD_L3,2021.2.3,iPhone,58.82352941,,,,,,,,,,0.665,1,,,,,,,,,,,,,,,0,-0.373469388,-0.355612245,1,0,0,0.665,button_left_main,-0.373469388,-0.355612245,1,0,0,,0,143,143,145,1,LAMEL,HB,old,z,./images/LAMELHB.png,,,,,,,,,,,,,,,,,,,,
,,,,,,,,,,,,,,,,,199633,19,2022-01-28_17h14.21.747,lexical_decision_task_DD_L3,2021.2.3,iPhone,58.82352941,,,,,,,,,,0.765,1,,,,,,,,,,,,,,,0,-0.380612245,-0.348469388,1,0,0,0.765,button_left_main,-0.380612245,-0.348469388,1,0,0,,0,144,144,97,1,CHIDS,HB,old,z,./images/CHIDSHB.png,,,,,,,,,,,,,,,,,,,,
,,,,,,,,,,,,,,,,,199633,19,2022-01-28_17h14.21.747,lexical_decision_task_DD_L3,2021.2.3,iPhone,58.82352941,,,,,,,,,,0.678,1,,,,,,,,,,,,,,,0,0.310204082,-0.334183673,1,0,0,0.678,button_right_main,0.310204082,-0.334183673,1,0,0,,0,145,145,21,1,KIDNEY,LB,old,m,./images/KIDNEYLB.png,,,,,,,,,,,,,,,,,,,,
,,,,,,,,,,,,,,,,,199633,19,2022-01-28_17h14.21.747,lexical_decision_task_DD_L3,2021.2.3,iPhone,58.82352941,,,,,,,,,,0.664,1,,,,,,,,,,,,,,,0,0.330612245,-0.269897959,1,0,0,0.664,button_right_main,0.330612245,-0.269897959,1,0,0,,0,146,146,34,1,CANYON,C,old,m,./images/CANYON.png,,,,,,,,,,,,,,,,,,,,
,,,,,,,,,,,,,,,,,199633,19,2022-01-28_17h14.21.747,lexical_decision_task_DD_L3,2021.2.3,iPhone,58.82352941,,,,,,,,,,0.644,1,,,,,,,,,,,,,,,0,0.310204082,-0.337244898,1,0,0,0.644,button_right_main,0.310204082,-0.337244898,1,0,0,,0,147,147,70,1,URINE,C,old,m,./images/URINE.png,,,,,,,,,,,,,,,,,,,,
,,,,,,,,,,,,,,,,,199633,19,2022-01-28_17h14.21.747,lexical_decision_task_DD_L3,2021.2.3,iPhone,58.82352941,,,,,,,,,,0.514,1,,,,,,,,,,,,,,,0,0.308163265,-0.348469388,1,0,0,0.514,button_right_main,0.308163265,-0.348469388,1,0,0,,0,148,148,7,1,PAINT,C,old,m,./images/PAINT.png,,,,,,,,,,,,,,,,,,,,
,,,,,,,,,,,,,,,,,199633,19,2022-01-28_17h14.21.747,lexical_decision_task_DD_L3,2021.2.3,iPhone,58.82352941,,,,,,,,,,0.644,1,,,,,,,,,,,,,,,0,-0.396938776,-0.315816327,1,0,0,0.644,button_left_main,-0.396938776,-0.315816327,1,0,0,,0,149,149,138,1,PLICE,C,old,z,./images/PLICE.png,,,,,,,,,,,,,,,,,,,,
,,,,,,,,,,,,,,,,,199633,19,2022-01-28_17h14.21.747,lexical_decision_task_DD_L3,2021.2.3,iPhone,58.82352941,,,,,,,,,,0.731,1,,,,,,,,,,,,,,,0,-0.378571429,-0.306632653,1,0,0,0.731,button_left_main,-0.378571429,-0.306632653,1,0,0,,0,150,150,123,1,SEDGE,C,old,z,./images/SEDGE.png,,,,,,,,,,,,,,,,,,,,
,,,,,,,,,,,,,,,,,199633,19,2022-01-28_17h14.21.747,lexical_decision_task_DD_L3,2021.2.3,iPhone,58.82352941,,,,,,,,,,0.699,1,,,,,,,,,,,,,,,0,0.305102041,-0.333163265,1,0,0,0.699,button_right_main,0.305102041,-0.333163265,1,0,0,,0,151,151,1,1,PLANK,C,old,m,./images/PLANK.png,,,,,,,,,,,,,,,,,,,,
,,,,,,,,,,,,,,,,,199633,19,2022-01-28_17h14.21.747,lexical_decision_task_DD_L3,2021.2.3,iPhone,58.82352941,,,,,,,,,,0.701,1,,,,,,,,,,,,,,,0,0.308163265,-0.31377551,1,0,0,0.701,button_right_main,0.308163265,-0.31377551,1,0,0,,0,152,152,35,1,PEACH,HB,old,m,./images/PEACHHB.png,,,,,,,,,,,,,,,,,,,,
,,,,,,,,,,,,,,,,,199633,19,2022-01-28_17h14.21.747,lexical_decision_task_DD_L3,2021.2.3,iPhone,58.82352941,,,,,,,,,,0.58,1,,,,,,,,,,,,,,,0,-0.379591837,-0.31377551,1,0,0,0.58,button_left_main,-0.379591837,-0.31377551,1,0,0,,0,153,153,162,1,LEICH,C,old,z,./images/LEICH.png,,,,,,,,,,,,,,,,,,,,
,,,,,,,,,,,,,,,,,199633,19,2022-01-28_17h14.21.747,lexical_decision_task_DD_L3,2021.2.3,iPhone,58.82352941,,,,,,,,,,0.811,1,,,,,,,,,,,,,,,0,0.303061224,-0.350510204,1,0,0,0.811,button_right_main,0.303061224,-0.350510204,1,0,0,,0,154,154,0,1,TOMATO,LB,old,m,./images/TOMATOLB.png,,,,,,,,,,,,,,,,,,,,
,,,,,,,,,,,,,,,,,199633,19,2022-01-28_17h14.21.747,lexical_decision_task_DD_L3,2021.2.3,iPhone,58.82352941,,,,,,,,,,0.813,1,,,,,,,,,,,,,,,0,-0.385714286,-0.319897959,1,0,0,0.813,button_left_main,-0.385714286,-0.319897959,1,0,0,,0,155,155,91,1,SHENS,HB,old,z,./images/SHENSHB.png,,,,,,,,,,,,,,,,,,,,
,,,,,,,,,,,,,,,,,199633,19,2022-01-28_17h14.21.747,lexical_decision_task_DD_L3,2021.2.3,iPhone,58.82352941,,,,,,,,,,0.844,0,,,,,,,,,,,,,,,0,-0.369387755,-0.339285714,1,0,0,0.844,button_left_main,-0.369387755,-0.339285714,1,0,0,,0,156,156,56,1,PACKET,HB,old,m,./images/PACKETHB.png,,,,,,,,,,,,,,,,,,,,
,,,,,,,,,,,,,,,,,199633,19,2022-01-28_17h14.21.747,lexical_decision_task_DD_L3,2021.2.3,iPhone,58.82352941,,,,,,,,,,0.699,1,,,,,,,,,,,,,,,0,0.312244898,-0.325,1,0,0,0.699,button_right_main,0.312244898,-0.325,1,0,0,,0,157,157,12,1,SHORE,LB,old,m,./images/SHORELB.png,,,,,,,,,,,,,,,,,,,,
,,,,,,,,,,,,,,,,,199633,19,2022-01-28_17h14.21.747,lexical_decision_task_DD_L3,2021.2.3,iPhone,58.82352941,,,,,,,,,,0.617,1,,,,,,,,,,,,,,,0,-0.37244898,-0.351530612,1,0,0,0.617,button_left_main,-0.37244898,-0.351530612,1,0,0,,0,158,158,120,1,RINED,C,old,z,./images/RINED.png,,,,,,,,,,,,,,,,,,,,
,,,,,,,,,,,,,,,,,199633,19,2022-01-28_17h14.21.747,lexical_decision_task_DD_L3,2021.2.3,iPhone,58.82352941,,,,,,,,,,0.711,1,,,,,,,,,,,,,,,0,0.321428571,-0.312755102,1,0,0,0.711,button_right_main,0.321428571,-0.312755102,1,0,0,,0,159,159,45,1,KITTEN,LB,old,m,./images/KITTENLB.png,,,,,,,,,,,,,,,,,,,,
,,,,,,,,,,,,,,,,,199633,19,2022-01-28_17h14.21.747,lexical_decision_task_DD_L3,2021.2.3,iPhone,58.82352941,,,,,,,,,,0.665,1,,,,,,,,,,,,,,,0,0.293877551,-0.303571429,1,0,0,0.665,button_right_main,0.293877551,-0.303571429,1,0,0,,0,160,160,40,1,SWING,C,old,m,./images/SWING.png,,,,,,,,,,,,,,,,,,,,
,,,,,,,,,,,,,,,,,199633,19,2022-01-28_17h14.21.747,lexical_decision_task_DD_L3,2021.2.3,iPhone,58.82352941,,,,,,,,,,0.665,1,,,,,,,,,,,,,,,0,-0.35,-0.365816327,1,0,0,0.665,button_left_main,-0.35,-0.365816327,1,0,0,,0,161,161,140,1,DOVET,LB,old,z,./images/DOVETLB.png,,,,,,,,,,,,,,,,,,,,
,,,,,,,,,,,,,,,,,199633,19,2022-01-28_17h14.21.747,lexical_decision_task_DD_L3,2021.2.3,iPhone,58.82352941,,,,,,,,,,0.765,1,,,,,,,,,,,,,,,0,0.328571429,-0.288265306,1,0,0,0.765,button_right_main,0.328571429,-0.288265306,1,0,0,,0,162,162,53,1,CARPET,HB,old,m,./images/CARPETHB.png,,,,,,,,,,,,,,,,,,,,
,,,,,,,,,,,,,,,,,199633,19,2022-01-28_17h14.21.747,lexical_decision_task_DD_L3,2021.2.3,iPhone,58.82352941,,,,,,,,,,0.598,1,,,,,,,,,,,,,,,0,0.292857143,-0.290306122,1,0,0,0.598,button_right_main,0.292857143,-0.290306122,1,0,0,,0,163,163,73,1,SNACK,C,old,m,./images/SNACK.png,,,,,,,,,,,,,,,,,,,,
,,,,,,,,,,,,,,,,,199633,19,2022-01-28_17h14.21.747,lexical_decision_task_DD_L3,2021.2.3,iPhone,58.82352941,,,,,,,,,,0.798,1,,,,,,,,,,,,,,,0,0.328571429,-0.28622449,1,0,0,0.798,button_right_main,0.328571429,-0.28622449,1,0,0,,0,164,164,37,1,BIRTH,C,old,m,./images/BIRTH.png,,,,,,,,,,,,,,,,,,,,
,,,,,,,,,,,,,,,,,199633,19,2022-01-28_17h14.21.747,lexical_decision_task_DD_L3,2021.2.3,iPhone,58.82352941,,,,,,,,,,1.047,1,,,,,,,,,,,,,,,0,-0.385714286,-0.312755102,1,0,0,1.047,button_left_main,-0.385714286,-0.312755102,1,0,0,,0,165,165,167,1,ZONET,LB,old,z,./images/ZONETLB.png,,,,,,,,,,,,,,,,,,,,
,,,,,,,,,,,,,,,,,199633,19,2022-01-28_17h14.21.747,lexical_decision_task_DD_L3,2021.2.3,iPhone,58.82352941,,,,,,,,,,1.312,1,,,,,,,,,,,,,,,0,0.357142857,-0.301530612,1,0,0,1.312,button_right_main,0.357142857,-0.301530612,1,0,0,,0,166,166,43,1,MOSQUE,C,old,m,./images/MOSQUE.png,,,,,,,,,,,,,,,,,,,,
,,,,,,,,,,,,,,,,,199633,19,2022-01-28_17h14.21.747,lexical_decision_task_DD_L3,2021.2.3,iPhone,58.82352941,,,,,,,,,,1.845,1,,,,,,,,,,,,,,,0,-0.354081633,-0.355612245,1,0,0,1.845,button_left_main,-0.354081633,-0.355612245,1,0,0,,0,167,167,158,1,EGECT,LB,old,z,./images/EGECTLB.png,,,,,,,,,,,,,,,,,,,,
,0.134693878,-0.406632653,1,0,0,instr_done_button,,,,,,1,test,"In the next phase you will be presented with the words from the the first phase. Your job is to decide whether you remember seeing the word or not. If you remember seeing the word press ""old"" or type ""m"". If you do not remember seeing the word press ""new"" or type ""z"". Please press the space bar or click on continue to begin. ",,,199633,19,2022-01-28_17h14.21.747,lexical_decision_task_DD_L3,2021.2.3,iPhone,58.82352941,,,,,,,,,,,,,,,,,,,,,,,,,,,,,,,,,,,,,,,,,,,,,,,,,,,0,0,0,0,1,,,,,,,,,,,,,,
,0.046938776,-0.392346939,1,0,0,instr_done_button,,,,,,1,test,"In the next phase you will be presented with the words from the the first phase. Your job is to decide whether you remember seeing the word or not. If you remember seeing the word press ""old"" or type ""m"". If you do not remember seeing the word press ""new"" or type ""z"". Please press the space bar or click on continue to begin. ",,,199633,19,2022-01-28_17h14.21.747,lexical_decision_task_DD_L3,2021.2.3,iPhone,58.82352941,,,,,,,,,,,,,,,,,,,,,,,,,,,,,,,,,,,,,,,,,,,,,,,,,,,1,0,1,0,1,,,,,,,,,,,,,,
,0.023469388,-0.389285714,1,0,0,instr_done_button,,,,,,1,test,"In the next phase you will be presented with the words from the the first phase. Your job is to decide whether you remember seeing the word or not. If you remember seeing the word press ""old"" or type ""m"". If you do not remember seeing the word press ""new"" or type ""z"". Please press the space bar or click on continue to begin. ",,,199633,19,2022-01-28_17h14.21.747,lexical_decision_task_DD_L3,2021.2.3,iPhone,58.82352941,,,,,,,,,,,,,,,,,,,,,,,,,,,,,,,,,,,,,,,,,,,,,,,,,,,2,0,2,0,1,,,,,,,,,,,,,,
,0.130612245,-0.378061224,1,0,0,instr_done_button,,,,,,1,test,"In the next phase you will be presented with the words from the the first phase. Your job is to decide whether you remember seeing the word or not. If you remember seeing the word press ""old"" or type ""m"". If you do not remember seeing the word press ""new"" or type ""z"". Please press the space bar or click on continue to begin. ",,,199633,19,2022-01-28_17h14.21.747,lexical_decision_task_DD_L3,2021.2.3,iPhone,58.82352941,,,,,,,,,,,,,,,,,,,,,,,,,,,,,,,,,,,,,,,,,,,,,,,,,,,3,0,3,0,1,,,,,,,,,,,,,,
,0.1,-0.400510204,1,0,0,instr_done_button,,,,,,1,test,"In the next phase you will be presented with the words from the the first phase. Your job is to decide whether you remember seeing the word or not. If you remember seeing the word press ""old"" or type ""m"". If you do not remember seeing the word press ""new"" or type ""z"". Please press the space bar or click on continue to begin. ",,,199633,19,2022-01-28_17h14.21.747,lexical_decision_task_DD_L3,2021.2.3,iPhone,58.82352941,,,,,,,,,,,,,,,,,,,,,,,,,,,,,,,,,,,,,,,,,,,,,,,,,,,4,0,4,0,1,,,,,,,,,,,,,,
,,,,,,,,,,,,,,,,,199633,19,2022-01-28_17h14.21.747,lexical_decision_task_DD_L3,2021.2.3,iPhone,58.82352941,,,,,,,,,,2.507,1,,,,,,,,,,,,,,,,,,,,,,,0.341836735,-0.280102041,1,0,0,,,,,,,MELON,C,m,m,./images/MELON.png,,,,,,,,0,0.341836735,-0.280102041,1,0,0,2.507,button_right_test,0,0,0,22,1
,,,,,,,,,,,,,,,,,199633,19,2022-01-28_17h14.21.747,lexical_decision_task_DD_L3,2021.2.3,iPhone,58.82352941,,,,,,,,,,0.83,1,,,,,,,,,,,,,,,,,,,,,,,0.336734694,-0.281122449,1,0,0,,,,,,,KIDNEY,LB,m,m,./images/KIDNEYLB.png,,,,,,,,0,0.336734694,-0.281122449,1,0,0,0.83,button_right_test,0,1,1,21,1
,,,,,,,,,,,,,,,,,199633,19,2022-01-28_17h14.21.747,lexical_decision_task_DD_L3,2021.2.3,iPhone,58.82352941,,,,,,,,,,0.943,1,,,,,,,,,,,,,,,,,,,,,,,0.314285714,-0.283163265,1,0,0,,,,,,,POODLE,LB,m,m,./images/POODLELB.png,,,,,,,,0,0.314285714,-0.283163265,1,0,0,0.943,button_right_test,0,2,2,81,1
,,,,,,,,,,,,,,,,,199633,19,2022-01-28_17h14.21.747,lexical_decision_task_DD_L3,2021.2.3,iPhone,58.82352941,,,,,,,,,,0.998,0,,,,,,,,,,,,,,,,,,,,,,,-0.386734694,-0.327040816,1,0,0,,,,,,,GRAIN,LB,m,m,./images/GRAINLB.png,,,,,,,,0,-0.386734694,-0.327040816,1,0,0,0.998,button_left_test,0,3,3,75,1
,,,,,,,,,,,,,,,,,199633,19,2022-01-28_17h14.21.747,lexical_decision_task_DD_L3,2021.2.3,iPhone,58.82352941,,,,,,,,,,1.197,1,,,,,,,,,,,,,,,,,,,,,,,0.32755102,-0.26377551,1,0,0,,,,,,,COUCH,HB,m,m,./images/COUCHHB.png,,,,,,,,0,0.32755102,-0.26377551,1,0,0,1.197,button_right_test,0,4,4,77,1
,,,,,,,,,,,,,,,,,199633,19,2022-01-28_17h14.21.747,lexical_decision_task_DD_L3,2021.2.3,iPhone,58.82352941,,,,,,,,,,1.798,0,,,,,,,,,,,,,,,,,,,,,,,-0.37244898,-0.330102041,1,0,0,,,,,,,BURIAL,HB,m,m,./images/BURIALHB.png,,,,,,,,0,-0.37244898,-0.330102041,1,0,0,1.798,button_left_test,0,5,5,59,1
,,,,,,,,,,,,,,,,,199633,19,2022-01-28_17h14.21.747,lexical_decision_task_DD_L3,2021.2.3,iPhone,58.82352941,,,,,,,,,,1.298,0,,,,,,,,,,,,,,,,,,,,,,,-0.369387755,-0.316836735,1,0,0,,,,,,,STRING,HB,m,m,./images/STRINGHB.png,,,,,,,,0,-0.369387755,-0.316836735,1,0,0,1.298,button_left_test,0,6,6,41,1
,,,,,,,,,,,,,,,,,199633,19,2022-01-28_17h14.21.747,lexical_decision_task_DD_L3,2021.2.3,iPhone,58.82352941,,,,,,,,,,0.897,1,,,,,,,,,,,,,,,,,,,,,,,0.330612245,-0.285204082,1,0,0,,,,,,,NOOSE,LB,m,m,./images/NOOSELB.png,,,,,,,,0,0.330612245,-0.285204082,1,0,0,0.897,button_right_test,0,7,7,72,1
,,,,,,,,,,,,,,,,,199633,19,2022-01-28_17h14.21.747,lexical_decision_task_DD_L3,2021.2.3,iPhone,58.82352941,,,,,,,,,,0.864,1,,,,,,,,,,,,,,,,,,,,,,,0.320408163,-0.280102041,1,0,0,,,,,,,WEASEL,HB,m,m,./images/WEASELHB.png,,,,,,,,0,0.320408163,-0.280102041,1,0,0,0.864,button_right_test,0,8,8,80,1
,,,,,,,,,,,,,,,,,199633,19,2022-01-28_17h14.21.747,lexical_decision_task_DD_L3,2021.2.3,iPhone,58.82352941,,,,,,,,,,1.198,1,,,,,,,,,,,,,,,,,,,,,,,-0.375510204,-0.328061224,1,0,0,,,,,,,CASINO,C,z,m,./images/CASINO.png,,,,,,,,0,-0.375510204,-0.328061224,1,0,0,1.198,button_left_test,0,9,9,112,1
,,,,,,,,,,,,,,,,,199633,19,2022-01-28_17h14.21.747,lexical_decision_task_DD_L3,2021.2.3,iPhone,58.82352941,,,,,,,,,,0.943,1,,,,,,,,,,,,,,,,,,,,,,,0.335714286,-0.258673469,1,0,0,,,,,,,TRIPOD,LB,m,m,./images/TRIPODLB.png,,,,,,,,0,0.335714286,-0.258673469,1,0,0,0.943,button_right_test,0,10,10,54,1
,,,,,,,,,,,,,,,,,199633,19,2022-01-28_17h14.21.747,lexical_decision_task_DD_L3,2021.2.3,iPhone,58.82352941,,,,,,,,,,0.846,1,,,,,,,,,,,,,,,,,,,,,,,0.330612245,-0.292346939,1,0,0,,,,,,,SNACK,C,m,m,./images/SNACK.png,,,,,,,,0,0.330612245,-0.292346939,1,0,0,0.846,button_right_test,0,11,11,73,1
,,,,,,,,,,,,,,,,,199633,19,2022-01-28_17h14.21.747,lexical_decision_task_DD_L3,2021.2.3,iPhone,58.82352941,,,,,,,,,,0.943,1,,,,,,,,,,,,,,,,,,,,,,,0.320408163,-0.258673469,1,0,0,,,,,,,FALCON,C,m,m,./images/FALCON.png,,,,,,,,0,0.320408163,-0.258673469,1,0,0,0.943,button_right_test,0,12,12,28,1
,,,,,,,,,,,,,,,,,199633,19,2022-01-28_17h14.21.747,lexical_decision_task_DD_L3,2021.2.3,iPhone,58.82352941,,,,,,,,,,1.044,1,,,,,,,,,,,,,,,,,,,,,,,-0.354081633,-0.353571429,1,0,0,,,,,,,MAMMAL,HB,z,m,./images/MAMMALHB.png,,,,,,,,0,-0.354081633,-0.353571429,1,0,0,1.044,button_left_test,0,13,13,146,1
,,,,,,,,,,,,,,,,,199633,19,2022-01-28_17h14.21.747,lexical_decision_task_DD_L3,2021.2.3,iPhone,58.82352941,,,,,,,,,,0.91,1,,,,,,,,,,,,,,,,,,,,,,,-0.357142857,-0.304591837,1,0,0,,,,,,,SAUCE,LB,z,m,./images/SAUCELB.png,,,,,,,,0,-0.357142857,-0.304591837,1,0,0,0.91,button_left_test,0,14,14,135,1
,,,,,,,,,,,,,,,,,199633,19,2022-01-28_17h14.21.747,lexical_decision_task_DD_L3,2021.2.3,iPhone,58.82352941,,,,,,,,,,1.365,1,,,,,,,,,,,,,,,,,,,,,,,0.28877551,-0.333163265,1,0,0,,,,,,,SKIING,HB,m,m,./images/SKIINGHB.png,,,,,,,,0,0.28877551,-0.333163265,1,0,0,1.365,button_right_test,0,15,15,17,1
,,,,,,,,,,,,,,,,,199633,19,2022-01-28_17h14.21.747,lexical_decision_task_DD_L3,2021.2.3,iPhone,58.82352941,,,,,,,,,,1.78,0,,,,,,,,,,,,,,,,,,,,,,,-0.352040816,-0.315816327,1,0,0,,,,,,,MOOSE,LB,m,m,./images/MOOSELB.png,,,,,,,,0,-0.352040816,-0.315816327,1,0,0,1.78,button_left_test,0,16,16,57,1
,,,,,,,,,,,,,,,,,199633,19,2022-01-28_17h14.21.747,lexical_decision_task_DD_L3,2021.2.3,iPhone,58.82352941,,,,,,,,,,0.898,1,,,,,,,,,,,,,,,,,,,,,,,0.329591837,-0.300510204,1,0,0,,,,,,,BONNET,HB,m,m,./images/BONNETHB.png,,,,,,,,0,0.329591837,-0.300510204,1,0,0,0.898,button_right_test,0,17,17,11,1
,,,,,,,,,,,,,,,,,199633,19,2022-01-28_17h14.21.747,lexical_decision_task_DD_L3,2021.2.3,iPhone,58.82352941,,,,,,,,,,0.844,1,,,,,,,,,,,,,,,,,,,,,,,-0.352040816,-0.309693878,1,0,0,,,,,,,BAKER,LB,z,m,./images/BAKERLB.png,,,,,,,,0,-0.352040816,-0.309693878,1,0,0,0.844,button_left_test,0,18,18,147,1
,,,,,,,,,,,,,,,,,199633,19,2022-01-28_17h14.21.747,lexical_decision_task_DD_L3,2021.2.3,iPhone,58.82352941,,,,,,,,,,1.198,1,,,,,,,,,,,,,,,,,,,,,,,-0.354081633,-0.29744898,1,0,0,,,,,,,SAUNA,LB,z,m,./images/SAUNALB.png,,,,,,,,0,-0.354081633,-0.29744898,1,0,0,1.198,button_left_test,0,19,19,117,1
,,,,,,,,,,,,,,,,,199633,19,2022-01-28_17h14.21.747,lexical_decision_task_DD_L3,2021.2.3,iPhone,58.82352941,,,,,,,,,,0.81,1,,,,,,,,,,,,,,,,,,,,,,,-0.366326531,-0.296428571,1,0,0,,,,,,,TIGER,C,z,m,./images/TIGER.png,,,,,,,,0,-0.366326531,-0.296428571,1,0,0,0.81,button_left_test,0,20,20,121,1
,,,,,,,,,,,,,,,,,199633,19,2022-01-28_17h14.21.747,lexical_decision_task_DD_L3,2021.2.3,iPhone,58.82352941,,,,,,,,,,0.998,0,,,,,,,,,,,,,,,,,,,,,,,-0.357142857,-0.319897959,1,0,0,,,,,,,TULIP,HB,m,m,./images/TULIPHB.png,,,,,,,,0,-0.357142857,-0.319897959,1,0,0,0.998,button_left_test,0,21,21,8,1
,,,,,,,,,,,,,,,,,199633,19,2022-01-28_17h14.21.747,lexical_decision_task_DD_L3,2021.2.3,iPhone,58.82352941,,,,,,,,,,0.778,0,,,,,,,,,,,,,,,,,,,,,,,-0.340816327,-0.337244898,1,0,0,,,,,,,SUNSET,C,m,m,./images/SUNSET.png,,,,,,,,0,-0.340816327,-0.337244898,1,0,0,0.778,button_left_test,0,22,22,82,1
,,,,,,,,,,,,,,,,,199633,19,2022-01-28_17h14.21.747,lexical_decision_task_DD_L3,2021.2.3,iPhone,58.82352941,,,,,,,,,,1.01,0,,,,,,,,,,,,,,,,,,,,,,,0.376530612,-0.316836735,1,0,0,,,,,,,BASKET,HB,z,m,./images/BASKETHB.png,,,,,,,,0,0.376530612,-0.316836735,1,0,0,1.01,button_right_test,0,23,23,128,1
,,,,,,,,,,,,,,,,,199633,19,2022-01-28_17h14.21.747,lexical_decision_task_DD_L3,2021.2.3,iPhone,58.82352941,,,,,,,,,,0.676,0,,,,,,,,,,,,,,,,,,,,,,,0.326530612,-0.282142857,1,0,0,,,,,,,CLOUD,HB,z,m,./images/CLOUDHB.png,,,,,,,,0,0.326530612,-0.282142857,1,0,0,0.676,button_right_test,0,24,24,110,1
,,,,,,,,,,,,,,,,,199633,19,2022-01-28_17h14.21.747,lexical_decision_task_DD_L3,2021.2.3,iPhone,58.82352941,,,,,,,,,,0.798,1,,,,,,,,,,,,,,,,,,,,,,,-0.358163265,-0.315816327,1,0,0,,,,,,,DANCER,LB,z,m,./images/DANCERLB.png,,,,,,,,0,-0.358163265,-0.315816327,1,0,0,0.798,button_left_test,0,25,25,105,1
,,,,,,,,,,,,,,,,,199633,19,2022-01-28_17h14.21.747,lexical_decision_task_DD_L3,2021.2.3,iPhone,58.82352941,,,,,,,,,,0.898,1,,,,,,,,,,,,,,,,,,,,,,,0.298979592,-0.278061224,1,0,0,,,,,,,MOSQUE,C,m,m,./images/MOSQUE.png,,,,,,,,0,0.298979592,-0.278061224,1,0,0,0.898,button_right_test,0,26,26,43,1
,,,,,,,,,,,,,,,,,199633,19,2022-01-28_17h14.21.747,lexical_decision_task_DD_L3,2021.2.3,iPhone,58.82352941,,,,,,,,,,1.177,1,,,,,,,,,,,,,,,,,,,,,,,0.32244898,-0.299489796,1,0,0,,,,,,,PEACH,HB,m,m,./images/PEACHHB.png,,,,,,,,0,0.32244898,-0.299489796,1,0,0,1.177,button_right_test,0,27,27,35,1
,,,,,,,,,,,,,,,,,199633,19,2022-01-28_17h14.21.747,lexical_decision_task_DD_L3,2021.2.3,iPhone,58.82352941,,,,,,,,,,0.745,0,,,,,,,,,,,,,,,,,,,,,,,-0.371428571,-0.273979592,1,0,0,,,,,,,BERRY,HB,m,m,./images/BERRYHB.png,,,,,,,,0,-0.371428571,-0.273979592,1,0,0,0.745,button_left_test,0,28,28,47,1
,,,,,,,,,,,,,,,,,199633,19,2022-01-28_17h14.21.747,lexical_decision_task_DD_L3,2021.2.3,iPhone,58.82352941,,,,,,,,,,1.498,0,,,,,,,,,,,,,,,,,,,,,,,-0.337755102,-0.317857143,1,0,0,,,,,,,TWINS,LB,m,m,./images/TWINSLB.png,,,,,,,,0,-0.337755102,-0.317857143,1,0,0,1.498,button_left_test,0,29,29,60,1
,,,,,,,,,,,,,,,,,199633,19,2022-01-28_17h14.21.747,lexical_decision_task_DD_L3,2021.2.3,iPhone,58.82352941,,,,,,,,,,1.065,1,,,,,,,,,,,,,,,,,,,,,,,-0.334693878,-0.310714286,1,0,0,,,,,,,PARCEL,LB,z,m,./images/PARCELLB.png,,,,,,,,0,-0.334693878,-0.310714286,1,0,0,1.065,button_left_test,0,30,30,102,1
,,,,,,,,,,,,,,,,,199633,19,2022-01-28_17h14.21.747,lexical_decision_task_DD_L3,2021.2.3,iPhone,58.82352941,,,,,,,,,,1.032,0,,,,,,,,,,,,,,,,,,,,,,,-0.356122449,-0.290306122,1,0,0,,,,,,,SHORE,LB,m,m,./images/SHORELB.png,,,,,,,,0,-0.356122449,-0.290306122,1,0,0,1.032,button_left_test,0,31,31,12,1
,,,,,,,,,,,,,,,,,199633,19,2022-01-28_17h14.21.747,lexical_decision_task_DD_L3,2021.2.3,iPhone,58.82352941,,,,,,,,,,0.765,1,,,,,,,,,,,,,,,,,,,,,,,-0.35,-0.310714286,1,0,0,,,,,,,HOCKEY,HB,z,m,./images/HOCKEYHB.png,,,,,,,,0,-0.35,-0.310714286,1,0,0,0.765,button_left_test,0,32,32,116,1
,,,,,,,,,,,,,,,,,199633,19,2022-01-28_17h14.21.747,lexical_decision_task_DD_L3,2021.2.3,iPhone,58.82352941,,,,,,,,,,0.831,0,,,,,,,,,,,,,,,,,,,,,,,-0.337755102,-0.311734694,1,0,0,,,,,,,THROAT,LB,m,m,./images/THROATLB.png,,,,,,,,0,-0.337755102,-0.311734694,1,0,0,0.831,button_left_test,0,33,33,36,1
,,,,,,,,,,,,,,,,,199633,19,2022-01-28_17h14.21.747,lexical_decision_task_DD_L3,2021.2.3,iPhone,58.82352941,,,,,,,,,,0.932,0,,,,,,,,,,,,,,,,,,,,,,,-0.323469388,-0.289285714,1,0,0,,,,,,,BEARD,HB,m,m,./images/BEARDHB.png,,,,,,,,0,-0.323469388,-0.289285714,1,0,0,0.932,button_left_test,0,34,34,2,1
,,,,,,,,,,,,,,,,,199633,19,2022-01-28_17h14.21.747,lexical_decision_task_DD_L3,2021.2.3,iPhone,58.82352941,,,,,,,,,,0.878,0,,,,,,,,,,,,,,,,,,,,,,,-0.336734694,-0.293367347,1,0,0,,,,,,,CRUMB,HB,m,m,./images/CRUMBHB.png,,,,,,,,0,-0.336734694,-0.293367347,1,0,0,0.878,button_left_test,0,35,35,29,1
,,,,,,,,,,,,,,,,,199633,19,2022-01-28_17h14.21.747,lexical_decision_task_DD_L3,2021.2.3,iPhone,58.82352941,,,,,,,,,,0.811,1,,,,,,,,,,,,,,,,,,,,,,,-0.313265306,-0.312755102,1,0,0,,,,,,,BROOM,LB,z,m,./images/BROOMLB.png,,,,,,,,0,-0.313265306,-0.312755102,1,0,0,0.811,button_left_test,0,36,36,162,1
,,,,,,,,,,,,,,,,,199633,19,2022-01-28_17h14.21.747,lexical_decision_task_DD_L3,2021.2.3,iPhone,58.82352941,,,,,,,,,,0.732,0,,,,,,,,,,,,,,,,,,,,,,,-0.332653061,-0.273979592,1,0,0,,,,,,,COOKER,LB,m,m,./images/COOKERLB.png,,,,,,,,0,-0.332653061,-0.273979592,1,0,0,0.732,button_left_test,0,37,37,69,1
,,,,,,,,,,,,,,,,,199633,19,2022-01-28_17h14.21.747,lexical_decision_task_DD_L3,2021.2.3,iPhone,58.82352941,,,,,,,,,,0.778,1,,,,,,,,,,,,,,,,,,,,,,,-0.331632653,-0.285204082,1,0,0,,,,,,,MEDAL,HB,z,m,./images/MEDALHB.png,,,,,,,,0,-0.331632653,-0.285204082,1,0,0,0.778,button_left_test,0,38,38,95,1
,,,,,,,,,,,,,,,,,199633,19,2022-01-28_17h14.21.747,lexical_decision_task_DD_L3,2021.2.3,iPhone,58.82352941,,,,,,,,,,0.731,1,,,,,,,,,,,,,,,,,,,,,,,-0.31122449,-0.295408163,1,0,0,,,,,,,BAMBOO,HB,z,m,./images/BAMBOOHB.png,,,,,,,,0,-0.31122449,-0.295408163,1,0,0,0.731,button_left_test,0,39,39,89,1
,,,,,,,,,,,,,,,,,199633,19,2022-01-28_17h14.21.747,lexical_decision_task_DD_L3,2021.2.3,iPhone,58.82352941,,,,,,,,,,0.744,1,,,,,,,,,,,,,,,,,,,,,,,-0.314285714,-0.305612245,1,0,0,,,,,,,BUBBLE,HB,z,m,./images/BUBBLEHB.png,,,,,,,,0,-0.314285714,-0.305612245,1,0,0,0.744,button_left_test,0,40,40,155,1
,,,,,,,,,,,,,,,,,199633,19,2022-01-28_17h14.21.747,lexical_decision_task_DD_L3,2021.2.3,iPhone,58.82352941,,,,,,,,,,1.045,1,,,,,,,,,,,,,,,,,,,,,,,0.105102041,-0.415816327,1,0,0,,,,,,,FOLDER,LB,m,m,./images/FOLDERLB.png,break_done_button,,,,,,,0,0.346938776,-0.222959184,1,0,0,1.045,button_right_test,0,41,41,42,1
,,,,,,,,,,,,,,,,,199633,19,2022-01-28_17h14.21.747,lexical_decision_task_DD_L3,2021.2.3,iPhone,58.82352941,,,,,,,,,,1.044,1,,,,,,,,,,,,,,,,,,,,,,,-0.355102041,-0.300510204,1,0,0,,,,,,,PISTOL,HB,z,m,./images/PISTOLHB.png,,,,,,,,0,-0.355102041,-0.300510204,1,0,0,1.044,button_left_test,0,42,42,113,1
,,,,,,,,,,,,,,,,,199633,19,2022-01-28_17h14.21.747,lexical_decision_task_DD_L3,2021.2.3,iPhone,58.82352941,,,,,,,,,,0.797,1,,,,,,,,,,,,,,,,,,,,,,,-0.354081633,-0.285204082,1,0,0,,,,,,,TOWEL,C,z,m,./images/TOWEL.png,,,,,,,,0,-0.354081633,-0.285204082,1,0,0,0.797,button_left_test,0,43,43,85,1
,,,,,,,,,,,,,,,,,199633,19,2022-01-28_17h14.21.747,lexical_decision_task_DD_L3,2021.2.3,iPhone,58.82352941,,,,,,,,,,1.08,1,,,,,,,,,,,,,,,,,,,,,,,0.341836735,-0.318877551,1,0,0,,,,,,,BELLY,C,m,m,./images/BELLY.png,,,,,,,,0,0.341836735,-0.318877551,1,0,0,1.08,button_right_test,0,44,44,10,1
,,,,,,,,,,,,,,,,,199633,19,2022-01-28_17h14.21.747,lexical_decision_task_DD_L3,2021.2.3,iPhone,58.82352941,,,,,,,,,,0.966,1,,,,,,,,,,,,,,,,,,,,,,,-0.353061224,-0.298469388,1,0,0,,,,,,,CLOTH,HB,z,m,./images/CLOTHHB.png,,,,,,,,0,-0.353061224,-0.298469388,1,0,0,0.966,button_left_test,0,45,45,107,1
,,,,,,,,,,,,,,,,,199633,19,2022-01-28_17h14.21.747,lexical_decision_task_DD_L3,2021.2.3,iPhone,58.82352941,,,,,,,,,,0.764,1,,,,,,,,,,,,,,,,,,,,,,,-0.32755102,-0.334183673,1,0,0,,,,,,,GARDEN,C,z,m,./images/GARDEN.png,,,,,,,,0,-0.32755102,-0.334183673,1,0,0,0.764,button_left_test,0,46,46,94,1
,,,,,,,,,,,,,,,,,199633,19,2022-01-28_17h14.21.747,lexical_decision_task_DD_L3,2021.2.3,iPhone,58.82352941,,,,,,,,,,1.264,1,,,,,,,,,,,,,,,,,,,,,,,0.331632653,-0.300510204,1,0,0,,,,,,,WALRUS,HB,m,m,./images/WALRUSHB.png,,,,,,,,0,0.331632653,-0.300510204,1,0,0,1.264,button_right_test,0,47,47,23,1
,,,,,,,,,,,,,,,,,199633,19,2022-01-28_17h14.21.747,lexical_decision_task_DD_L3,2021.2.3,iPhone,58.82352941,,,,,,,,,,0.778,0,,,,,,,,,,,,,,,,,,,,,,,-0.335714286,-0.314795918,1,0,0,,,,,,,PAINT,C,m,m,./images/PAINT.png,,,,,,,,0,-0.335714286,-0.314795918,1,0,0,0.778,button_left_test,0,48,48,7,1
,,,,,,,,,,,,,,,,,199633,19,2022-01-28_17h14.21.747,lexical_decision_task_DD_L3,2021.2.3,iPhone,58.82352941,,,,,,,,,,0.764,1,,,,,,,,,,,,,,,,,,,,,,,-0.342857143,-0.309693878,1,0,0,,,,,,,CHERRY,LB,z,m,./images/CHERRYLB.png,,,,,,,,0,-0.342857143,-0.309693878,1,0,0,0.764,button_left_test,0,49,49,138,1
,,,,,,,,,,,,,,,,,199633,19,2022-01-28_17h14.21.747,lexical_decision_task_DD_L3,2021.2.3,iPhone,58.82352941,,,,,,,,,,0.898,1,,,,,,,,,,,,,,,,,,,,,,,-0.321428571,-0.338265306,1,0,0,,,,,,,CRATER,LB,z,m,./images/CRATERLB.png,,,,,,,,0,-0.321428571,-0.338265306,1,0,0,0.898,button_left_test,0,50,50,87,1
,,,,,,,,,,,,,,,,,199633,19,2022-01-28_17h14.21.747,lexical_decision_task_DD_L3,2021.2.3,iPhone,58.82352941,,,,,,,,,,1.011,0,,,,,,,,,,,,,,,,,,,,,,,-0.336734694,-0.334183673,1,0,0,,,,,,,DOUGH,C,m,m,./images/DOUGH.png,,,,,,,,0,-0.336734694,-0.334183673,1,0,0,1.011,button_left_test,0,51,51,19,1
,,,,,,,,,,,,,,,,,199633,19,2022-01-28_17h14.21.747,lexical_decision_task_DD_L3,2021.2.3,iPhone,58.82352941,,,,,,,,,,1.065,1,,,,,,,,,,,,,,,,,,,,,,,0.319387755,-0.25255102,1,0,0,,,,,,,ONION,LB,m,m,./images/ONIONLB.png,,,,,,,,0,0.319387755,-0.25255102,1,0,0,1.065,button_right_test,0,52,52,51,1
,,,,,,,,,,,,,,,,,199633,19,2022-01-28_17h14.21.747,lexical_decision_task_DD_L3,2021.2.3,iPhone,58.82352941,,,,,,,,,,0.644,1,,,,,,,,,,,,,,,,,,,,,,,-0.333673469,-0.314795918,1,0,0,,,,,,,STEAK,C,z,m,./images/STEAK.png,,,,,,,,0,-0.333673469,-0.314795918,1,0,0,0.644,button_left_test,0,53,53,115,1
,,,,,,,,,,,,,,,,,199633,19,2022-01-28_17h14.21.747,lexical_decision_task_DD_L3,2021.2.3,iPhone,58.82352941,,,,,,,,,,1.033,0,,,,,,,,,,,,,,,,,,,,,,,-0.314285714,-0.338265306,1,0,0,,,,,,,JELLY,C,m,m,./images/JELLY.png,,,,,,,,0,-0.314285714,-0.338265306,1,0,0,1.033,button_left_test,0,54,54,64,1
,,,,,,,,,,,,,,,,,199633,19,2022-01-28_17h14.21.747,lexical_decision_task_DD_L3,2021.2.3,iPhone,58.82352941,,,,,,,,,,0.744,1,,,,,,,,,,,,,,,,,,,,,,,-0.324489796,-0.308673469,1,0,0,,,,,,,STREAM,HB,z,m,./images/STREAMHB.png,,,,,,,,0,-0.324489796,-0.308673469,1,0,0,0.744,button_left_test,0,55,55,125,1
,,,,,,,,,,,,,,,,,199633,19,2022-01-28_17h14.21.747,lexical_decision_task_DD_L3,2021.2.3,iPhone,58.82352941,,,,,,,,,,0.864,1,,,,,,,,,,,,,,,,,,,,,,,-0.284693878,-0.333163265,1,0,0,,,,,,,FENCE,HB,z,m,./images/FENCEHB.png,,,,,,,,0,-0.284693878,-0.333163265,1,0,0,0.864,button_left_test,0,56,56,98,1
,,,,,,,,,,,,,,,,,199633,19,2022-01-28_17h14.21.747,lexical_decision_task_DD_L3,2021.2.3,iPhone,58.82352941,,,,,,,,,,1.181,1,,,,,,,,,,,,,,,,,,,,,,,0.32755102,-0.320918367,1,0,0,,,,,,,FINGER,LB,m,m,./images/FINGERLB.png,,,,,,,,0,0.32755102,-0.320918367,1,0,0,1.181,button_right_test,0,57,57,3,1
,,,,,,,,,,,,,,,,,199633,19,2022-01-28_17h14.21.747,lexical_decision_task_DD_L3,2021.2.3,iPhone,58.82352941,,,,,,,,,,1.5,1,,,,,,,,,,,,,,,,,,,,,,,0.329591837,-0.253571429,1,0,0,,,,,,,SCREW,LB,m,m,./images/SCREWLB.png,,,,,,,,0,0.329591837,-0.253571429,1,0,0,1.5,button_right_test,0,58,58,24,1
,,,,,,,,,,,,,,,,,199633,19,2022-01-28_17h14.21.747,lexical_decision_task_DD_L3,2021.2.3,iPhone,58.82352941,,,,,,,,,,0.997,1,,,,,,,,,,,,,,,,,,,,,,,0.342857143,-0.259693878,1,0,0,,,,,,,PLANK,C,m,m,./images/PLANK.png,,,,,,,,0,0.342857143,-0.259693878,1,0,0,0.997,button_right_test,0,59,59,1,1
,,,,,,,,,,,,,,,,,199633,19,2022-01-28_17h14.21.747,lexical_decision_task_DD_L3,2021.2.3,iPhone,58.82352941,,,,,,,,,,0.759,1,,,,,,,,,,,,,,,,,,,,,,,-0.353061224,-0.312755102,1,0,0,,,,,,,PEBBLE,C,z,m,./images/PEBBLE.png,,,,,,,,0,-0.353061224,-0.312755102,1,0,0,0.759,button_left_test,0,60,60,166,1
,,,,,,,,,,,,,,,,,199633,19,2022-01-28_17h14.21.747,lexical_decision_task_DD_L3,2021.2.3,iPhone,58.82352941,,,,,,,,,,1.312,1,,,,,,,,,,,,,,,,,,,,,,,0.315306122,-0.30255102,1,0,0,,,,,,,BANNER,C,m,m,./images/BANNER.png,,,,,,,,0,0.315306122,-0.30255102,1,0,0,1.312,button_right_test,0,61,61,52,1
,,,,,,,,,,,,,,,,,199633,19,2022-01-28_17h14.21.747,lexical_decision_task_DD_L3,2021.2.3,iPhone,58.82352941,,,,,,,,,,0.978,1,,,,,,,,,,,,,,,,,,,,,,,-0.358163265,-0.316836735,1,0,0,,,,,,,CLOWN,C,z,m,./images/CLOWN.png,,,,,,,,0,-0.358163265,-0.316836735,1,0,0,0.978,button_left_test,0,62,62,106,1
,,,,,,,,,,,,,,,,,199633,19,2022-01-28_17h14.21.747,lexical_decision_task_DD_L3,2021.2.3,iPhone,58.82352941,,,,,,,,,,0.844,0,,,,,,,,,,,,,,,,,,,,,,,-0.331632653,-0.348469388,1,0,0,,,,,,,PASTA,HB,m,m,./images/PASTAHB.png,,,,,,,,0,-0.331632653,-0.348469388,1,0,0,0.844,button_left_test,0,63,63,5,1
,,,,,,,,,,,,,,,,,199633,19,2022-01-28_17h14.21.747,lexical_decision_task_DD_L3,2021.2.3,iPhone,58.82352941,,,,,,,,,,1.699,0,,,,,,,,,,,,,,,,,,,,,,,-0.331632653,-0.350510204,1,0,0,,,,,,,JUNGLE,HB,m,m,./images/JUNGLEHB.png,,,,,,,,0,-0.331632653,-0.350510204,1,0,0,1.699,button_left_test,0,64,64,83,1
,,,,,,,,,,,,,,,,,199633,19,2022-01-28_17h14.21.747,lexical_decision_task_DD_L3,2021.2.3,iPhone,58.82352941,,,,,,,,,,0.916,1,,,,,,,,,,,,,,,,,,,,,,,-0.33877551,-0.330102041,1,0,0,,,,,,,BISHOP,C,z,m,./images/BISHOP.png,,,,,,,,0,-0.33877551,-0.330102041,1,0,0,0.916,button_left_test,0,65,65,133,1
,,,,,,,,,,,,,,,,,199633,19,2022-01-28_17h14.21.747,lexical_decision_task_DD_L3,2021.2.3,iPhone,58.82352941,,,,,,,,,,0.91,1,,,,,,,,,,,,,,,,,,,,,,,-0.330612245,-0.380102041,1,0,0,,,,,,,SNAKE,C,z,m,./images/SNAKE.png,,,,,,,,0,-0.330612245,-0.380102041,1,0,0,0.91,button_left_test,0,66,66,124,1
,,,,,,,,,,,,,,,,,199633,19,2022-01-28_17h14.21.747,lexical_decision_task_DD_L3,2021.2.3,iPhone,58.82352941,,,,,,,,,,0.864,1,,,,,,,,,,,,,,,,,,,,,,,-0.305102041,-0.356632653,1,0,0,,,,,,,SLOPE,LB,z,m,./images/SLOPELB.png,,,,,,,,0,-0.305102041,-0.356632653,1,0,0,0.864,button_left_test,0,67,67,114,1
,,,,,,,,,,,,,,,,,199633,19,2022-01-28_17h14.21.747,lexical_decision_task_DD_L3,2021.2.3,iPhone,58.82352941,,,,,,,,,,0.845,1,,,,,,,,,,,,,,,,,,,,,,,-0.321428571,-0.295408163,1,0,0,,,,,,,FLESH,LB,z,m,./images/FLESHLB.png,,,,,,,,0,-0.321428571,-0.295408163,1,0,0,0.845,button_left_test,0,68,68,108,1
,,,,,,,,,,,,,,,,,199633,19,2022-01-28_17h14.21.747,lexical_decision_task_DD_L3,2021.2.3,iPhone,58.82352941,,,,,,,,,,0.778,1,,,,,,,,,,,,,,,,,,,,,,,-0.314285714,-0.321938776,1,0,0,,,,,,,BUTTER,LB,z,m,./images/BUTTERLB.png,,,,,,,,0,-0.314285714,-0.321938776,1,0,0,0.778,button_left_test,0,69,69,111,1
,,,,,,,,,,,,,,,,,199633,19,2022-01-28_17h14.21.747,lexical_decision_task_DD_L3,2021.2.3,iPhone,58.82352941,,,,,,,,,,0.646,1,,,,,,,,,,,,,,,,,,,,,,,-0.306122449,-0.312755102,1,0,0,,,,,,,WHEEL,HB,z,m,./images/WHEELHB.png,,,,,,,,0,-0.306122449,-0.312755102,1,0,0,0.646,button_left_test,0,70,70,161,1
,,,,,,,,,,,,,,,,,199633,19,2022-01-28_17h14.21.747,lexical_decision_task_DD_L3,2021.2.3,iPhone,58.82352941,,,,,,,,,,0.864,1,,,,,,,,,,,,,,,,,,,,,,,-0.316326531,-0.316836735,1,0,0,,,,,,,WAGON,C,z,m,./images/WAGON.png,,,,,,,,0,-0.316326531,-0.316836735,1,0,0,0.864,button_left_test,0,71,71,91,1
,,,,,,,,,,,,,,,,,199633,19,2022-01-28_17h14.21.747,lexical_decision_task_DD_L3,2021.2.3,iPhone,58.82352941,,,,,,,,,,0.912,0,,,,,,,,,,,,,,,,,,,,,,,-0.363265306,-0.301530612,1,0,0,,,,,,,SHELF,LB,m,m,./images/SHELFLB.png,,,,,,,,0,-0.363265306,-0.301530612,1,0,0,0.912,button_left_test,0,72,72,39,1
,,,,,,,,,,,,,,,,,199633,19,2022-01-28_17h14.21.747,lexical_decision_task_DD_L3,2021.2.3,iPhone,58.82352941,,,,,,,,,,1.211,1,,,,,,,,,,,,,,,,,,,,,,,0.348979592,-0.299489796,1,0,0,,,,,,,SMOKER,HB,m,m,./images/SMOKERHB.png,,,,,,,,0,0.348979592,-0.299489796,1,0,0,1.211,button_right_test,0,73,73,26,1
,,,,,,,,,,,,,,,,,199633,19,2022-01-28_17h14.21.747,lexical_decision_task_DD_L3,2021.2.3,iPhone,58.82352941,,,,,,,,,,2.479,1,,,,,,,,,,,,,,,,,,,,,,,-0.317346939,-0.337244898,1,0,0,,,,,,,DRILL,LB,z,m,./images/DRILLLB.png,,,,,,,,0,-0.317346939,-0.337244898,1,0,0,2.479,button_left_test,0,74,74,165,1
,,,,,,,,,,,,,,,,,199633,19,2022-01-28_17h14.21.747,lexical_decision_task_DD_L3,2021.2.3,iPhone,58.82352941,,,,,,,,,,0.764,1,,,,,,,,,,,,,,,,,,,,,,,-0.334693878,-0.294387755,1,0,0,,,,,,,CHAIN,LB,z,m,./images/CHAINLB.png,,,,,,,,0,-0.334693878,-0.294387755,1,0,0,0.764,button_left_test,0,75,75,126,1
,,,,,,,,,,,,,,,,,199633,19,2022-01-28_17h14.21.747,lexical_decision_task_DD_L3,2021.2.3,iPhone,58.82352941,,,,,,,,,,0.711,1,,,,,,,,,,,,,,,,,,,,,,,-0.3,-0.373979592,1,0,0,,,,,,,DESERT,C,z,m,./images/DESERT.png,,,,,,,,0,-0.3,-0.373979592,1,0,0,0.711,button_left_test,0,76,76,136,1
,,,,,,,,,,,,,,,,,199633,19,2022-01-28_17h14.21.747,lexical_decision_task_DD_L3,2021.2.3,iPhone,58.82352941,,,,,,,,,,0.78,1,,,,,,,,,,,,,,,,,,,,,,,0.234693878,-0.291326531,1,0,0,,,,,,,CANYON,C,m,m,./images/CANYON.png,,,,,,,,0,0.234693878,-0.291326531,1,0,0,0.78,button_right_test,0,77,77,34,1
,,,,,,,,,,,,,,,,,199633,19,2022-01-28_17h14.21.747,lexical_decision_task_DD_L3,2021.2.3,iPhone,58.82352941,,,,,,,,,,0.798,0,,,,,,,,,,,,,,,,,,,,,,,-0.353061224,-0.293367347,1,0,0,,,,,,,MALLET,HB,m,m,./images/MALLETHB.png,,,,,,,,0,-0.353061224,-0.293367347,1,0,0,0.798,button_left_test,0,78,78,50,1
,,,,,,,,,,,,,,,,,199633,19,2022-01-28_17h14.21.747,lexical_decision_task_DD_L3,2021.2.3,iPhone,58.82352941,,,,,,,,,,1.178,1,,,,,,,,,,,,,,,,,,,,,,,0.318367347,-0.26377551,1,0,0,,,,,,,SAILOR,C,m,m,./images/SAILOR.png,,,,,,,,0,0.318367347,-0.26377551,1,0,0,1.178,button_right_test,0,79,79,67,1
,,,,,,,,,,,,,,,,,199633,19,2022-01-28_17h14.21.747,lexical_decision_task_DD_L3,2021.2.3,iPhone,58.82352941,,,,,,,,,,1.111,0,,,,,,,,,,,,,,,,,,,,,,,-0.379591837,-0.280102041,1,0,0,,,,,,,SWING,C,m,m,./images/SWING.png,,,,,,,,0,-0.379591837,-0.280102041,1,0,0,1.111,button_left_test,0,80,80,40,1
,,,,,,,,,,,,,,,,,199633,19,2022-01-28_17h14.21.747,lexical_decision_task_DD_L3,2021.2.3,iPhone,58.82352941,,,,,,,,,,0.71,1,,,,,,,,,,,,,,,,,,,,,,,-0.358163265,-0.287244898,1,0,0,,,,,,,STATUE,LB,z,m,./images/STATUELB.png,,,,,,,,0,-0.358163265,-0.287244898,1,0,0,0.71,button_left_test,0,81,81,150,1
,,,,,,,,,,,,,,,,,199633,19,2022-01-28_17h14.21.747,lexical_decision_task_DD_L3,2021.2.3,iPhone,58.82352941,,,,,,,,,,0.879,0,,,,,,,,,,,,,,,,,,,,,,,-0.358163265,-0.319897959,1,0,0,,,,,,,CEMENT,HB,m,m,./images/CEMENTHB.png,,,,,,,,0,-0.358163265,-0.319897959,1,0,0,0.879,button_left_test,0,82,82,74,1
,,,,,,,,,,,,,,,,,199633,19,2022-01-28_17h14.21.747,lexical_decision_task_DD_L3,2021.2.3,iPhone,58.82352941,,,,,,,,,,0.765,1,,,,,,,,,,,,,,,,,,,,,,,0.115306122,-0.417857143,1,0,0,,,,,,,CANDY,LB,z,m,./images/CANDYLB.png,break_done_button,,,,,,,0,-0.36122449,-0.285204082,1,0,0,0.765,button_left_test,0,83,83,123,1
,,,,,,,,,,,,,,,,,199633,19,2022-01-28_17h14.21.747,lexical_decision_task_DD_L3,2021.2.3,iPhone,58.82352941,,,,,,,,,,0.899,1,,,,,,,,,,,,,,,,,,,,,,,-0.356122449,-0.290306122,1,0,0,,,,,,,CANOE,C,z,m,./images/CANOE.png,,,,,,,,0,-0.356122449,-0.290306122,1,0,0,0.899,button_left_test,0,84,84,142,1
,,,,,,,,,,,,,,,,,199633,19,2022-01-28_17h14.21.747,lexical_decision_task_DD_L3,2021.2.3,iPhone,58.82352941,,,,,,,,,,0.931,0,,,,,,,,,,,,,,,,,,,,,,,-0.340816327,-0.321938776,1,0,0,,,,,,,LIZARD,HB,m,m,./images/LIZARDHB.png,,,,,,,,0,-0.340816327,-0.321938776,1,0,0,0.931,button_left_test,0,85,85,44,1
,,,,,,,,,,,,,,,,,199633,19,2022-01-28_17h14.21.747,lexical_decision_task_DD_L3,2021.2.3,iPhone,58.82352941,,,,,,,,,,0.898,1,,,,,,,,,,,,,,,,,,,,,,,-0.33877551,-0.321938776,1,0,0,,,,,,,CLIFF,HB,z,m,./images/CLIFFHB.png,,,,,,,,0,-0.33877551,-0.321938776,1,0,0,0.898,button_left_test,0,86,86,92,1
,,,,,,,,,,,,,,,,,199633,19,2022-01-28_17h14.21.747,lexical_decision_task_DD_L3,2021.2.3,iPhone,58.82352941,,,,,,,,,,0.597,1,,,,,,,,,,,,,,,,,,,,,,,-0.335714286,-0.322959184,1,0,0,,,,,,,BRIDE,C,z,m,./images/BRIDE.png,,,,,,,,0,-0.335714286,-0.322959184,1,0,0,0.597,button_left_test,0,87,87,148,1
,,,,,,,,,,,,,,,,,199633,19,2022-01-28_17h14.21.747,lexical_decision_task_DD_L3,2021.2.3,iPhone,58.82352941,,,,,,,,,,0.777,1,,,,,,,,,,,,,,,,,,,,,,,-0.36122449,-0.309693878,1,0,0,,,,,,,ENGINE,HB,z,m,./images/ENGINEHB.png,,,,,,,,0,-0.36122449,-0.309693878,1,0,0,0.777,button_left_test,0,88,88,122,1
,,,,,,,,,,,,,,,,,199633,19,2022-01-28_17h14.21.747,lexical_decision_task_DD_L3,2021.2.3,iPhone,58.82352941,,,,,,,,,,0.578,1,,,,,,,,,,,,,,,,,,,,,,,-0.36122449,-0.323979592,1,0,0,,,,,,,RULER,C,z,m,./images/RULER.png,,,,,,,,0,-0.36122449,-0.323979592,1,0,0,0.578,button_left_test,0,89,89,163,1
,,,,,,,,,,,,,,,,,199633,19,2022-01-28_17h14.21.747,lexical_decision_task_DD_L3,2021.2.3,iPhone,58.82352941,,,,,,,,,,0.831,1,,,,,,,,,,,,,,,,,,,,,,,-0.326530612,-0.337244898,1,0,0,,,,,,,SHIELD,LB,z,m,./images/SHIELDLB.png,,,,,,,,0,-0.326530612,-0.337244898,1,0,0,0.831,button_left_test,0,90,90,132,1
,,,,,,,,,,,,,,,,,199633,19,2022-01-28_17h14.21.747,lexical_decision_task_DD_L3,2021.2.3,iPhone,58.82352941,,,,,,,,,,0.647,0,,,,,,,,,,,,,,,,,,,,,,,-0.346938776,-0.327040816,1,0,0,,,,,,,BIRTH,C,m,m,./images/BIRTH.png,,,,,,,,0,-0.346938776,-0.327040816,1,0,0,0.647,button_left_test,0,91,91,37,1
,,,,,,,,,,,,,,,,,199633,19,2022-01-28_17h14.21.747,lexical_decision_task_DD_L3,2021.2.3,iPhone,58.82352941,,,,,,,,,,0.645,0,,,,,,,,,,,,,,,,,,,,,,,-0.365306122,-0.31377551,1,0,0,,,,,,,DRUMS,C,m,m,./images/DRUMS.png,,,,,,,,0,-0.365306122,-0.31377551,1,0,0,0.645,button_left_test,0,92,92,49,1
,,,,,,,,,,,,,,,,,199633,19,2022-01-28_17h14.21.747,lexical_decision_task_DD_L3,2021.2.3,iPhone,58.82352941,,,,,,,,,,0.612,0,,,,,,,,,,,,,,,,,,,,,,,-0.36122449,-0.318877551,1,0,0,,,,,,,PENCE,C,m,m,./images/PENCE.png,,,,,,,,0,-0.36122449,-0.318877551,1,0,0,0.612,button_left_test,0,93,93,16,1
,,,,,,,,,,,,,,,,,199633,19,2022-01-28_17h14.21.747,lexical_decision_task_DD_L3,2021.2.3,iPhone,58.82352941,,,,,,,,,,1.378,1,,,,,,,,,,,,,,,,,,,,,,,0.308163265,-0.329081633,1,0,0,,,,,,,MIRROR,LB,m,m,./images/MIRRORLB.png,,,,,,,,0,0.308163265,-0.329081633,1,0,0,1.378,button_right_test,0,94,94,63,1
,,,,,,,,,,,,,,,,,199633,19,2022-01-28_17h14.21.747,lexical_decision_task_DD_L3,2021.2.3,iPhone,58.82352941,,,,,,,,,,0.831,1,,,,,,,,,,,,,,,,,,,,,,,-0.380612245,-0.298469388,1,0,0,,,,,,,WALNUT,LB,z,m,./images/WALNUTLB.png,,,,,,,,0,-0.380612245,-0.298469388,1,0,0,0.831,button_left_test,0,95,95,84,1
,,,,,,,,,,,,,,,,,199633,19,2022-01-28_17h14.21.747,lexical_decision_task_DD_L3,2021.2.3,iPhone,58.82352941,,,,,,,,,,0.964,1,,,,,,,,,,,,,,,,,,,,,,,-0.358163265,-0.338265306,1,0,0,,,,,,,POKER,C,z,m,./images/POKER.png,,,,,,,,0,-0.358163265,-0.338265306,1,0,0,0.964,button_left_test,0,96,96,151,1
,,,,,,,,,,,,,,,,,199633,19,2022-01-28_17h14.21.747,lexical_decision_task_DD_L3,2021.2.3,iPhone,58.82352941,,,,,,,,,,0.845,0,,,,,,,,,,,,,,,,,,,,,,,-0.357142857,-0.306632653,1,0,0,,,,,,,SPORT,LB,m,m,./images/SPORTLB.png,,,,,,,,0,-0.357142857,-0.306632653,1,0,0,0.845,button_left_test,0,97,97,48,1
,,,,,,,,,,,,,,,,,199633,19,2022-01-28_17h14.21.747,lexical_decision_task_DD_L3,2021.2.3,iPhone,58.82352941,,,,,,,,,,0.845,0,,,,,,,,,,,,,,,,,,,,,,,-0.355102041,-0.329081633,1,0,0,,,,,,,ATTIC,LB,m,m,./images/ATTICLB.png,,,,,,,,0,-0.355102041,-0.329081633,1,0,0,0.845,button_left_test,0,98,98,27,1
,,,,,,,,,,,,,,,,,199633,19,2022-01-28_17h14.21.747,lexical_decision_task_DD_L3,2021.2.3,iPhone,58.82352941,,,,,,,,,,0.773,1,,,,,,,,,,,,,,,,,,,,,,,-0.323469388,-0.327040816,1,0,0,,,,,,,PLANET,HB,z,m,./images/PLANETHB.png,,,,,,,,0,-0.323469388,-0.327040816,1,0,0,0.773,button_left_test,0,99,99,164,1
,,,,,,,,,,,,,,,,,199633,19,2022-01-28_17h14.21.747,lexical_decision_task_DD_L3,2021.2.3,iPhone,58.82352941,,,,,,,,,,0.68,1,,,,,,,,,,,,,,,,,,,,,,,-0.33877551,-0.341326531,1,0,0,,,,,,,HEATER,HB,z,m,./images/HEATERHB.png,,,,,,,,0,-0.33877551,-0.341326531,1,0,0,0.68,button_left_test,0,100,100,140,1
,,,,,,,,,,,,,,,,,199633,19,2022-01-28_17h14.21.747,lexical_decision_task_DD_L3,2021.2.3,iPhone,58.82352941,,,,,,,,,,0.678,1,,,,,,,,,,,,,,,,,,,,,,,-0.307142857,-0.348469388,1,0,0,,,,,,,GLOVE,C,z,m,./images/GLOVE.png,,,,,,,,0,-0.307142857,-0.348469388,1,0,0,0.678,button_left_test,0,101,101,157,1
,,,,,,,,,,,,,,,,,199633,19,2022-01-28_17h14.21.747,lexical_decision_task_DD_L3,2021.2.3,iPhone,58.82352941,,,,,,,,,,0.846,0,,,,,,,,,,,,,,,,,,,,,,,-0.358163265,-0.333163265,1,0,0,,,,,,,CARPET,HB,m,m,./images/CARPETHB.png,,,,,,,,0,-0.358163265,-0.333163265,1,0,0,0.846,button_left_test,0,102,102,53,1
,,,,,,,,,,,,,,,,,199633,19,2022-01-28_17h14.21.747,lexical_decision_task_DD_L3,2021.2.3,iPhone,58.82352941,,,,,,,,,,0.731,1,,,,,,,,,,,,,,,,,,,,,,,-0.345918367,-0.36377551,1,0,0,,,,,,,MIDGET,C,z,m,./images/MIDGET.png,,,,,,,,0,-0.345918367,-0.36377551,1,0,0,0.731,button_left_test,0,103,103,160,1
,,,,,,,,,,,,,,,,,199633,19,2022-01-28_17h14.21.747,lexical_decision_task_DD_L3,2021.2.3,iPhone,58.82352941,,,,,,,,,,0.578,1,,,,,,,,,,,,,,,,,,,,,,,-0.379591837,-0.327040816,1,0,0,,,,,,,BANANA,C,z,m,./images/BANANA.png,,,,,,,,0,-0.379591837,-0.327040816,1,0,0,0.578,button_left_test,0,104,104,154,1
,,,,,,,,,,,,,,,,,199633,19,2022-01-28_17h14.21.747,lexical_decision_task_DD_L3,2021.2.3,iPhone,58.82352941,,,,,,,,,,0.711,1,,,,,,,,,,,,,,,,,,,,,,,-0.371428571,-0.322959184,1,0,0,,,,,,,DIVER,LB,z,m,./images/DIVERLB.png,,,,,,,,0,-0.371428571,-0.322959184,1,0,0,0.711,button_left_test,0,105,105,93,1
,,,,,,,,,,,,,,,,,199633,19,2022-01-28_17h14.21.747,lexical_decision_task_DD_L3,2021.2.3,iPhone,58.82352941,,,,,,,,,,0.678,1,,,,,,,,,,,,,,,,,,,,,,,-0.374489796,-0.327040816,1,0,0,,,,,,,ARTIST,C,z,m,./images/ARTIST.png,,,,,,,,0,-0.374489796,-0.327040816,1,0,0,0.678,button_left_test,0,106,106,145,1
,,,,,,,,,,,,,,,,,199633,19,2022-01-28_17h14.21.747,lexical_decision_task_DD_L3,2021.2.3,iPhone,58.82352941,,,,,,,,,,0.714,1,,,,,,,,,,,,,,,,,,,,,,,-0.365306122,-0.325,1,0,0,,,,,,,MONKEY,LB,z,m,./images/MONKEYLB.png,,,,,,,,0,-0.365306122,-0.325,1,0,0,0.714,button_left_test,0,107,107,129,1
,,,,,,,,,,,,,,,,,199633,19,2022-01-28_17h14.21.747,lexical_decision_task_DD_L3,2021.2.3,iPhone,58.82352941,,,,,,,,,,0.898,0,,,,,,,,,,,,,,,,,,,,,,,-0.321428571,-0.337244898,1,0,0,,,,,,,FARMER,HB,m,m,./images/FARMERHB.png,,,,,,,,0,-0.321428571,-0.337244898,1,0,0,0.898,button_left_test,0,108,108,65,1
,,,,,,,,,,,,,,,,,199633,19,2022-01-28_17h14.21.747,lexical_decision_task_DD_L3,2021.2.3,iPhone,58.82352941,,,,,,,,,,0.565,1,,,,,,,,,,,,,,,,,,,,,,,-0.35,-0.298469388,1,0,0,,,,,,,CHALK,C,z,m,./images/CHALK.png,,,,,,,,0,-0.35,-0.298469388,1,0,0,0.565,button_left_test,0,109,109,109,1
,,,,,,,,,,,,,,,,,199633,19,2022-01-28_17h14.21.747,lexical_decision_task_DD_L3,2021.2.3,iPhone,58.82352941,,,,,,,,,,0.911,1,,,,,,,,,,,,,,,,,,,,,,,0.347959184,-0.312755102,1,0,0,,,,,,,MAGGOT,LB,m,m,./images/MAGGOTLB.png,,,,,,,,0,0.347959184,-0.312755102,1,0,0,0.911,button_right_test,0,110,110,33,1
,,,,,,,,,,,,,,,,,199633,19,2022-01-28_17h14.21.747,lexical_decision_task_DD_L3,2021.2.3,iPhone,58.82352941,,,,,,,,,,0.864,0,,,,,,,,,,,,,,,,,,,,,,,-0.370408163,-0.312755102,1,0,0,,,,,,,SQUARE,LB,m,m,./images/SQUARELB.png,,,,,,,,0,-0.370408163,-0.312755102,1,0,0,0.864,button_left_test,0,111,111,6,1
,,,,,,,,,,,,,,,,,199633,19,2022-01-28_17h14.21.747,lexical_decision_task_DD_L3,2021.2.3,iPhone,58.82352941,,,,,,,,,,0.779,1,,,,,,,,,,,,,,,,,,,,,,,-0.379591837,-0.305612245,1,0,0,,,,,,,BOILER,LB,z,m,./images/BOILERLB.png,,,,,,,,0,-0.379591837,-0.305612245,1,0,0,0.779,button_left_test,0,112,112,120,1
,,,,,,,,,,,,,,,,,199633,19,2022-01-28_17h14.21.747,lexical_decision_task_DD_L3,2021.2.3,iPhone,58.82352941,,,,,,,,,,0.811,1,,,,,,,,,,,,,,,,,,,,,,,-0.391836735,-0.281122449,1,0,0,,,,,,,MUMMY,C,z,m,./images/MUMMY.png,,,,,,,,0,-0.391836735,-0.281122449,1,0,0,0.811,button_left_test,0,113,113,130,1
,,,,,,,,,,,,,,,,,199633,19,2022-01-28_17h14.21.747,lexical_decision_task_DD_L3,2021.2.3,iPhone,58.82352941,,,,,,,,,,0.778,0,,,,,,,,,,,,,,,,,,,,,,,-0.35,-0.318877551,1,0,0,,,,,,,MOTOR,C,m,m,./images/MOTOR.png,,,,,,,,0,-0.35,-0.318877551,1,0,0,0.778,button_left_test,0,114,114,13,1
,,,,,,,,,,,,,,,,,199633,19,2022-01-28_17h14.21.747,lexical_decision_task_DD_L3,2021.2.3,iPhone,58.82352941,,,,,,,,,,0.812,1,,,,,,,,,,,,,,,,,,,,,,,-0.354081633,-0.348469388,1,0,0,,,,,,,DONKEY,C,z,m,./images/DONKEY.png,,,,,,,,0,-0.354081633,-0.348469388,1,0,0,0.812,button_left_test,0,115,115,103,1
,,,,,,,,,,,,,,,,,199633,19,2022-01-28_17h14.21.747,lexical_decision_task_DD_L3,2021.2.3,iPhone,58.82352941,,,,,,,,,,0.598,1,,,,,,,,,,,,,,,,,,,,,,,-0.356122449,-0.334183673,1,0,0,,,,,,,LLAMA,HB,z,m,./images/LLAMAHB.png,,,,,,,,0,-0.356122449,-0.334183673,1,0,0,0.598,button_left_test,0,116,116,119,1
,,,,,,,,,,,,,,,,,199633,19,2022-01-28_17h14.21.747,lexical_decision_task_DD_L3,2021.2.3,iPhone,58.82352941,,,,,,,,,,0.765,1,,,,,,,,,,,,,,,,,,,,,,,-0.378571429,-0.373979592,1,0,0,,,,,,,FLASK,LB,z,m,./images/FLASKLB.png,,,,,,,,0,-0.378571429,-0.373979592,1,0,0,0.765,button_left_test,0,117,117,156,1
,,,,,,,,,,,,,,,,,199633,19,2022-01-28_17h14.21.747,lexical_decision_task_DD_L3,2021.2.3,iPhone,58.82352941,,,,,,,,,,0.765,1,,,,,,,,,,,,,,,,,,,,,,,-0.382653061,-0.318877551,1,0,0,,,,,,,HAMMER,LB,z,m,./images/HAMMERLB.png,,,,,,,,0,-0.382653061,-0.318877551,1,0,0,0.765,button_left_test,0,118,118,159,1
,,,,,,,,,,,,,,,,,199633,19,2022-01-28_17h14.21.747,lexical_decision_task_DD_L3,2021.2.3,iPhone,58.82352941,,,,,,,,,,0.597,1,,,,,,,,,,,,,,,,,,,,,,,-0.403061224,-0.333163265,1,0,0,,,,,,,RAZOR,C,z,m,./images/RAZOR.png,,,,,,,,0,-0.403061224,-0.333163265,1,0,0,0.597,button_left_test,0,119,119,118,1
,,,,,,,,,,,,,,,,,199633,19,2022-01-28_17h14.21.747,lexical_decision_task_DD_L3,2021.2.3,iPhone,58.82352941,,,,,,,,,,1.011,0,,,,,,,,,,,,,,,,,,,,,,,-0.360204082,-0.372959184,1,0,0,,,,,,,URINE,C,m,m,./images/URINE.png,,,,,,,,0,-0.360204082,-0.372959184,1,0,0,1.011,button_left_test,0,120,120,70,1
,,,,,,,,,,,,,,,,,199633,19,2022-01-28_17h14.21.747,lexical_decision_task_DD_L3,2021.2.3,iPhone,58.82352941,,,,,,,,,,0.631,1,,,,,,,,,,,,,,,,,,,,,,,-0.355102041,-0.338265306,1,0,0,,,,,,,PARADE,HB,z,m,./images/PARADEHB.png,,,,,,,,0,-0.355102041,-0.338265306,1,0,0,0.631,button_left_test,0,121,121,101,1
,,,,,,,,,,,,,,,,,199633,19,2022-01-28_17h14.21.747,lexical_decision_task_DD_L3,2021.2.3,iPhone,58.82352941,,,,,,,,,,0.707,0,,,,,,,,,,,,,,,,,,,,,,,-0.371428571,-0.332142857,1,0,0,,,,,,,SWEAT,LB,m,m,./images/SWEATLB.png,,,,,,,,0,-0.371428571,-0.332142857,1,0,0,0.707,button_left_test,0,122,122,66,1
,,,,,,,,,,,,,,,,,199633,19,2022-01-28_17h14.21.747,lexical_decision_task_DD_L3,2021.2.3,iPhone,58.82352941,,,,,,,,,,1.312,1,,,,,,,,,,,,,,,,,,,,,,,-0.390816327,-0.307653061,1,0,0,,,,,,,STOOL,C,z,m,./images/STOOL.png,,,,,,,,0,-0.390816327,-0.307653061,1,0,0,1.312,button_left_test,0,123,123,127,1
,,,,,,,,,,,,,,,,,199633,19,2022-01-28_17h14.21.747,lexical_decision_task_DD_L3,2021.2.3,iPhone,58.82352941,,,,,,,,,,0.577,1,,,,,,,,,,,,,,,,,,,,,,,-0.366326531,-0.311734694,1,0,0,,,,,,,GRANNY,HB,z,m,./images/GRANNYHB.png,,,,,,,,0,-0.366326531,-0.311734694,1,0,0,0.577,button_left_test,0,124,124,104,1
,,,,,,,,,,,,,,,,,199633,19,2022-01-28_17h14.21.747,lexical_decision_task_DD_L3,2021.2.3,iPhone,58.82352941,,,,,,,,,,1.111,1,,,,,,,,,,,,,,,,,,,,,,,0.145918367,-0.382142857,1,0,0,,,,,,,LADDER,HB,m,m,./images/LADDERHB.png,break_done_button,,,,,,,0,0.354081633,-0.277040816,1,0,0,1.111,button_right_test,0,125,125,38,1
,,,,,,,,,,,,,,,,,199633,19,2022-01-28_17h14.21.747,lexical_decision_task_DD_L3,2021.2.3,iPhone,58.82352941,,,,,,,,,,0.565,0,,,,,,,,,,,,,,,,,,,,,,,-0.389795918,-0.272959184,1,0,0,,,,,,,TOMATO,LB,m,m,./images/TOMATOLB.png,,,,,,,,0,-0.389795918,-0.272959184,1,0,0,0.565,button_left_test,0,126,126,0,1
,,,,,,,,,,,,,,,,,199633,19,2022-01-28_17h14.21.747,lexical_decision_task_DD_L3,2021.2.3,iPhone,58.82352941,,,,,,,,,,0.812,0,,,,,,,,,,,,,,,,,,,,,,,0.295918367,-0.33622449,1,0,0,,,,,,,COLLAR,LB,z,m,./images/COLLARLB.png,,,,,,,,0,0.295918367,-0.33622449,1,0,0,0.812,button_right_test,0,127,127,99,1
,,,,,,,,,,,,,,,,,199633,19,2022-01-28_17h14.21.747,lexical_decision_task_DD_L3,2021.2.3,iPhone,58.82352941,,,,,,,,,,1.698,0,,,,,,,,,,,,,,,,,,,,,,,-0.373469388,-0.301530612,1,0,0,,,,,,,QUILL,C,m,m,./images/QUILL.png,,,,,,,,0,-0.373469388,-0.301530612,1,0,0,1.698,button_left_test,0,128,128,31,1
,,,,,,,,,,,,,,,,,199633,19,2022-01-28_17h14.21.747,lexical_decision_task_DD_L3,2021.2.3,iPhone,58.82352941,,,,,,,,,,0.964,1,,,,,,,,,,,,,,,,,,,,,,,-0.389795918,-0.303571429,1,0,0,,,,,,,PILOT,HB,z,m,./images/PILOTHB.png,,,,,,,,0,-0.389795918,-0.303571429,1,0,0,0.964,button_left_test,0,129,129,134,1
,,,,,,,,,,,,,,,,,199633,19,2022-01-28_17h14.21.747,lexical_decision_task_DD_L3,2021.2.3,iPhone,58.82352941,,,,,,,,,,0.978,0,,,,,,,,,,,,,,,,,,,,,,,-0.380612245,-0.315816327,1,0,0,,,,,,,TORCH,HB,m,m,./images/TORCHHB.png,,,,,,,,0,-0.380612245,-0.315816327,1,0,0,0.978,button_left_test,0,130,130,68,1
