key_resp.keys,instr_done_touch.x,instr_done_touch.y,instr_done_touch.leftButton,instr_done_touch.midButton,instr_done_touch.rightButton,instr_done_touch.clicked_name,instruction_pages.thisRepN,instruction_pages.thisTrialN,instruction_pages.thisN,instruction_pages.thisIndex,instruction_pages.ran,pageN,phase,instruct_text,has_image,instruct_image,participant,age,date,expName,psychopyVersion,OS,frameRate,key_resp.rt,response.keys,response.corr,response.rt,touch_resp.x,touch_resp.y,touch_resp.leftButton,touch_resp.midButton,touch_resp.rightButton,touch_resp.time,touch_resp.clicked_name,rt,corr,practrials.thisRepN,practrials.thisTrialN,practrials.thisN,practrials.thisIndex,practrials.ran,TrialID,Target,corrAns,end_of_practice_trials_pages.thisRepN,end_of_practice_trials_pages.thisTrialN,end_of_practice_trials_pages.thisN,end_of_practice_trials_pages.thisIndex,end_of_practice_trials_pages.ran,key_resp_2.keys,key_resp_2.corr,key_resp_2.rt,targ_click.x,targ_click.y,targ_click.leftButton,targ_click.midButton,targ_click.rightButton,targ_click.time,targ_click.clicked_name,break_done_touch.x,break_done_touch.y,break_done_touch.leftButton,break_done_touch.midButton,break_done_touch.rightButton,break_done_keyboard.keys,maintrials.thisRepN,maintrials.thisTrialN,maintrials.thisN,maintrials.thisIndex,maintrials.ran,string,blur,study,lex,stim_path,break_done_keyboard.rt,test_instructions.thisRepN,test_instructions.thisTrialN,test_instructions.thisN,test_instructions.thisIndex,test_instructions.ran,key_resp_3.keys,key_resp_3.corr,key_resp_3.rt,test_click.x,test_click.y,test_click.leftButton,test_click.midButton,test_click.rightButton,test_click.time,test_click.clicked_name,test_phase.thisRepN,test_phase.thisTrialN,test_phase.thisN,test_phase.thisIndex,test_phase.ran
,0.133711005,-0.434397108,1,0,0,instr_done_button,0,0,0,0,1,1,instructions,"INSTRUCTIONS
At the start of each trial, look at the plus sign  (+) in the center of the screen.  This tells you that a trial is about to begin and where to look. Second, the plus sign will disappear and a string of letters will appear. Your task is to determine if the string of letters is a word or not. If the item is a word press the M key (on keyboard)  or touch the word button (phone/tablet).  If the item is not a word,  press the  Z key (on keyboard)  or touch the nonword button (on phone/tablet). 
Press the space bar or touch  continue.",0,,199636,19,2022-01-29_14h22.37.298,lexical_decision_task_DD_L5,2021.2.3,MacIntel,59.84082341,,,,,,,,,,,,,,,,,,,,,,,,,,,,,,,,,,,,,,,,,,,,,,,,,,,,,,,,,,,,,,,,,,,,,,,,,
space,0.133711005,-0.434397108,0,0,0,,0,1,1,1,1,2,instructions,"If your device has a keyboard, press the 'Z' key for nonwords and the 'M' key for words.





Press the space bar or touch the button below to continue.",0,keyboard-example.gif,199636,19,2022-01-29_14h22.37.298,lexical_decision_task_DD_L5,2021.2.3,MacIntel,59.84082341,5.449,,,,,,,,,,,,,,,,,,,,,,,,,,,,,,,,,,,,,,,,,,,,,,,,,,,,,,,,,,,,,,,,,,,,,,,,
space,0.133711005,-0.434397108,0,0,0,,0,2,2,2,1,3,instructions,"If you are using a touchscreen only device, use the buttons on the screen. Do not use the mouse.





Press the space bar or touch the button below to continue.",0,touchscreen-example.gif,199636,19,2022-01-29_14h22.37.298,lexical_decision_task_DD_L5,2021.2.3,MacIntel,59.84082341,7.8318,,,,,,,,,,,,,,,,,,,,,,,,,,,,,,,,,,,,,,,,,,,,,,,,,,,,,,,,,,,,,,,,,,,,,,,,
space,0.133711005,-0.434397108,0,0,0,,0,3,3,3,1,4,instructions,"It is very important that you respond as quickly and accurately as possible, as each letter string will only be on the screen for two seconds. If you do not respond within this time, the message 'Too slow!' will be displayed and the experiment will progress to the next letter string. The first 20 trials will be practice trials and you will receive feedback on your answers. 

Press the space bar or touch the button below to start the practice trials.",0,,199636,19,2022-01-29_14h22.37.298,lexical_decision_task_DD_L5,2021.2.3,MacIntel,59.84082341,10.9455,,,,,,,,,,,,,,,,,,,,,,,,,,,,,,,,,,,,,,,,,,,,,,,,,,,,,,,,,,,,,,,,,,,,,,,,
,,,,,,,,,,,,,,,,,199636,19,2022-01-29_14h22.37.298,lexical_decision_task_DD_L5,2021.2.3,MacIntel,59.84082341,,m,1,1.8481,,,,,,,,1.8481,1,0,0,0,2,1,1001,ALMOND,m,,,,,,,,,,,,,,,,,,,,,,,,,,,,,,,,,,,,,,,,,,,,,,,,,,,,
,,,,,,,,,,,,,,,,,199636,19,2022-01-29_14h22.37.298,lexical_decision_task_DD_L5,2021.2.3,MacIntel,59.84082341,,m,1,1.0015,,,,,,,,1.0015,1,0,1,1,3,1,1001,MATRIX,m,,,,,,,,,,,,,,,,,,,,,,,,,,,,,,,,,,,,,,,,,,,,,,,,,,,,
,,,,,,,,,,,,,,,,,199636,19,2022-01-29_14h22.37.298,lexical_decision_task_DD_L5,2021.2.3,MacIntel,59.84082341,,z,1,1.6108,,,,,,,,1.6108,1,0,2,2,10,1,1001,INLADE,z,,,,,,,,,,,,,,,,,,,,,,,,,,,,,,,,,,,,,,,,,,,,,,,,,,,,
,,,,,,,,,,,,,,,,,199636,19,2022-01-29_14h22.37.298,lexical_decision_task_DD_L5,2021.2.3,MacIntel,59.84082341,,z,1,1.0825,,,,,,,,1.0825,1,0,3,3,9,1,1001,FARINY,z,,,,,,,,,,,,,,,,,,,,,,,,,,,,,,,,,,,,,,,,,,,,,,,,,,,,
,,,,,,,,,,,,,,,,,199636,19,2022-01-29_14h22.37.298,lexical_decision_task_DD_L5,2021.2.3,MacIntel,59.84082341,,z,1,1.0704,,,,,,,,1.0704,1,0,4,4,8,1,1001,ASLERT,z,,,,,,,,,,,,,,,,,,,,,,,,,,,,,,,,,,,,,,,,,,,,,,,,,,,,
,,,,,,,,,,,,,,,,,199636,19,2022-01-29_14h22.37.298,lexical_decision_task_DD_L5,2021.2.3,MacIntel,59.84082341,,z,1,0.9577,,,,,,,,0.9577,1,0,5,5,11,1,1001,RASHET,z,,,,,,,,,,,,,,,,,,,,,,,,,,,,,,,,,,,,,,,,,,,,,,,,,,,,
,,,,,,,,,,,,,,,,,199636,19,2022-01-29_14h22.37.298,lexical_decision_task_DD_L5,2021.2.3,MacIntel,59.84082341,,m,1,0.7369,,,,,,,,0.7369,1,0,6,6,5,1,1001,OBTAIN,m,,,,,,,,,,,,,,,,,,,,,,,,,,,,,,,,,,,,,,,,,,,,,,,,,,,,
,,,,,,,,,,,,,,,,,199636,19,2022-01-29_14h22.37.298,lexical_decision_task_DD_L5,2021.2.3,MacIntel,59.84082341,,m,1,0.6684,,,,,,,,0.6684,1,0,7,7,6,1,1001,ZOMBIE,m,,,,,,,,,,,,,,,,,,,,,,,,,,,,,,,,,,,,,,,,,,,,,,,,,,,,
,,,,,,,,,,,,,,,,,199636,19,2022-01-29_14h22.37.298,lexical_decision_task_DD_L5,2021.2.3,MacIntel,59.84082341,,m,1,0.6685,,,,,,,,0.6685,1,0,8,8,4,1,1001,SQUEAK,m,,,,,,,,,,,,,,,,,,,,,,,,,,,,,,,,,,,,,,,,,,,,,,,,,,,,
,,,,,,,,,,,,,,,,,199636,19,2022-01-29_14h22.37.298,lexical_decision_task_DD_L5,2021.2.3,MacIntel,59.84082341,,m,1,0.6338,,,,,,,,0.6338,1,0,9,9,0,1,1001,UTOPIA,m,,,,,,,,,,,,,,,,,,,,,,,,,,,,,,,,,,,,,,,,,,,,,,,,,,,,
,,,,,,,,,,,,,,,,,199636,19,2022-01-29_14h22.37.298,lexical_decision_task_DD_L5,2021.2.3,MacIntel,59.84082341,,z,1,0.7921,,,,,,,,0.7921,1,0,10,10,12,1,1001,SPRINY,z,,,,,,,,,,,,,,,,,,,,,,,,,,,,,,,,,,,,,,,,,,,,,,,,,,,,
,,,,,,,,,,,,,,,,,199636,19,2022-01-29_14h22.37.298,lexical_decision_task_DD_L5,2021.2.3,MacIntel,59.84082341,,m,1,0.5385,,,,,,,,0.5385,1,0,11,11,7,1,1001,VOLUME,m,,,,,,,,,,,,,,,,,,,,,,,,,,,,,,,,,,,,,,,,,,,,,,,,,,,,
,,,,,,,,,,,,,,,,,199636,19,2022-01-29_14h22.37.298,lexical_decision_task_DD_L5,2021.2.3,MacIntel,59.84082341,,m,1,0.6412,,,,,,,,0.6412,1,0,12,12,1,1,1001,ADJUST,m,,,,,,,,,,,,,,,,,,,,,,,,,,,,,,,,,,,,,,,,,,,,,,,,,,,,
,,,,,,,,,,,,,,,,,199636,19,2022-01-29_14h22.37.298,lexical_decision_task_DD_L5,2021.2.3,MacIntel,59.84082341,,m,0,0.584,,,,,,,,0.584,0,0,13,13,13,1,1001,ROUPET,z,,,,,,,,,,,,,,,,,,,,,,,,,,,,,,,,,,,,,,,,,,,,,,,,,,,,
,,,,,,,,,,,,,,,,,199636,19,2022-01-29_14h22.37.298,lexical_decision_task_DD_L5,2021.2.3,MacIntel,59.84082341,,z,1,0.8554,,,,,,,,0.8554,1,0,14,14,15,1,1001,WHAISE,z,,,,,,,,,,,,,,,,,,,,,,,,,,,,,,,,,,,,,,,,,,,,,,,,,,,,
,,,,,,,,,,,,,,,,,199636,19,2022-01-29_14h22.37.298,lexical_decision_task_DD_L5,2021.2.3,MacIntel,59.84082341,,z,1,0.7664,,,,,,,,0.7664,1,0,15,15,14,1,1001,THRALE,z,,,,,,,,,,,,,,,,,,,,,,,,,,,,,,,,,,,,,,,,,,,,,,,,,,,,
space,0.133711005,-0.434397108,0,0,0,,,,,,,1,end_of_practice,"You have completed the practice trials. During the experimental trials, you will not receive feedback. 
Before you begin, please ensure that you are in a comfortable and quiet location and will not be disturbed for about 15 minutes, as we cannot use your data if you do not complete all the trials. 
 When you are ready to start the experimental trials, please press space or touch the button below.",,,199636,19,2022-01-29_14h22.37.298,lexical_decision_task_DD_L5,2021.2.3,MacIntel,59.84082341,3.6658,,,,,,,,,,,,,,,,,,,,,0,0,0,0,1,,,,,,,,,,,,,,,,,,,,,,,,,,,,,,,,,,,,,,,,,,,,,,,
,,,,,,,,,,,,,,,,,199636,19,2022-01-29_14h22.37.298,lexical_decision_task_DD_L5,2021.2.3,MacIntel,59.84082341,,,,,,,,,,,,1.7939,1,,,,,,,,,,,,,,m,1,1.7939,,,,,,,,0.133711005,-0.434397108,0,0,0,,0,0,0,46,1,MUMMY,LB,old,m,./images/MUMMYLB.png,,,,,,,,,,,,,,,,,,,,,
,,,,,,,,,,,,,,,,,199636,19,2022-01-29_14h22.37.298,lexical_decision_task_DD_L5,2021.2.3,MacIntel,59.84082341,,,,,,,,,,,,1.315,1,,,,,,,,,,,,,,m,1,1.315,,,,,,,,0.133711005,-0.434397108,0,0,0,,0,1,1,72,1,FLASK,HB,old,m,./images/FLASKHB.png,,,,,,,,,,,,,,,,,,,,,
,,,,,,,,,,,,,,,,,199636,19,2022-01-29_14h22.37.298,lexical_decision_task_DD_L5,2021.2.3,MacIntel,59.84082341,,,,,,,,,,,,0.6665,1,,,,,,,,,,,,,,m,1,0.6665,,,,,,,,0.133711005,-0.434397108,0,0,0,,0,2,2,13,1,BUNNY,LB,old,m,./images/BUNNYLB.png,,,,,,,,,,,,,,,,,,,,,
,,,,,,,,,,,,,,,,,199636,19,2022-01-29_14h22.37.298,lexical_decision_task_DD_L5,2021.2.3,MacIntel,59.84082341,,,,,,,,,,,,1.0616,1,,,,,,,,,,,,,,z,1,1.0616,,,,,,,,0.133711005,-0.434397108,0,0,0,,0,3,3,147,1,ZOLES,C,old,z,./images/ZOLES.png,,,,,,,,,,,,,,,,,,,,,
,,,,,,,,,,,,,,,,,199636,19,2022-01-29_14h22.37.298,lexical_decision_task_DD_L5,2021.2.3,MacIntel,59.84082341,,,,,,,,,,,,0.6494,1,,,,,,,,,,,,,,m,1,0.6494,,,,,,,,0.133711005,-0.434397108,0,0,0,,0,4,4,68,1,VALLEY,C,old,m,./images/VALLEY.png,,,,,,,,,,,,,,,,,,,,,
,,,,,,,,,,,,,,,,,199636,19,2022-01-29_14h22.37.298,lexical_decision_task_DD_L5,2021.2.3,MacIntel,59.84082341,,,,,,,,,,,,4.2293,1,,,,,,,,,,,,,,z,1,4.2293,,,,,,,,0.133711005,-0.434397108,0,0,0,,0,5,5,121,1,CEERS,HB,old,z,./images/CEERSHB.png,,,,,,,,,,,,,,,,,,,,,
,,,,,,,,,,,,,,,,,199636,19,2022-01-29_14h22.37.298,lexical_decision_task_DD_L5,2021.2.3,MacIntel,59.84082341,,,,,,,,,,,,1.3821,1,,,,,,,,,,,,,,m,1,1.3821,,,,,,,,0.133711005,-0.434397108,0,0,0,,0,6,6,17,1,PARADE,C,old,m,./images/PARADE.png,,,,,,,,,,,,,,,,,,,,,
,,,,,,,,,,,,,,,,,199636,19,2022-01-29_14h22.37.298,lexical_decision_task_DD_L5,2021.2.3,MacIntel,59.84082341,,,,,,,,,,,,1.3479,1,,,,,,,,,,,,,,z,1,1.3479,,,,,,,,0.133711005,-0.434397108,0,0,0,,0,7,7,146,1,MOOST,LB,old,z,./images/MOOSTLB.png,,,,,,,,,,,,,,,,,,,,,
,,,,,,,,,,,,,,,,,199636,19,2022-01-29_14h22.37.298,lexical_decision_task_DD_L5,2021.2.3,MacIntel,59.84082341,,,,,,,,,,,,1.4126,1,,,,,,,,,,,,,,z,1,1.4126,,,,,,,,0.133711005,-0.434397108,0,0,0,,0,8,8,88,1,GLUSH,HB,old,z,./images/GLUSHHB.png,,,,,,,,,,,,,,,,,,,,,
,,,,,,,,,,,,,,,,,199636,19,2022-01-29_14h22.37.298,lexical_decision_task_DD_L5,2021.2.3,MacIntel,59.84082341,,,,,,,,,,,,2.2948,1,,,,,,,,,,,,,,z,1,2.2948,,,,,,,,0.133711005,-0.434397108,0,0,0,,0,9,9,94,1,BLANS,HB,old,z,./images/BLANSHB.png,,,,,,,,,,,,,,,,,,,,,
,,,,,,,,,,,,,,,,,199636,19,2022-01-29_14h22.37.298,lexical_decision_task_DD_L5,2021.2.3,MacIntel,59.84082341,,,,,,,,,,,,0.9303,1,,,,,,,,,,,,,,z,1,0.9303,,,,,,,,0.133711005,-0.434397108,0,0,0,,0,10,10,89,1,DRIEK,LB,old,z,./images/DRIEKLB.png,,,,,,,,,,,,,,,,,,,,,
,,,,,,,,,,,,,,,,,199636,19,2022-01-29_14h22.37.298,lexical_decision_task_DD_L5,2021.2.3,MacIntel,59.84082341,,,,,,,,,,,,1.3479,0,,,,,,,,,,,,,,m,0,1.3479,,,,,,,,0.133711005,-0.434397108,0,0,0,,0,11,11,166,1,SHORY,HB,old,z,./images/SHORYHB.png,,,,,,,,,,,,,,,,,,,,,
,,,,,,,,,,,,,,,,,199636,19,2022-01-29_14h22.37.298,lexical_decision_task_DD_L5,2021.2.3,MacIntel,59.84082341,,,,,,,,,,,,1.0641,1,,,,,,,,,,,,,,m,1,1.0641,,,,,,,,0.133711005,-0.434397108,0,0,0,,0,12,12,22,1,CLOWN,LB,old,m,./images/CLOWNLB.png,,,,,,,,,,,,,,,,,,,,,
,,,,,,,,,,,,,,,,,199636,19,2022-01-29_14h22.37.298,lexical_decision_task_DD_L5,2021.2.3,MacIntel,59.84082341,,,,,,,,,,,,0.9968,1,,,,,,,,,,,,,,z,1,0.9968,,,,,,,,0.133711005,-0.434397108,0,0,0,,0,13,13,153,1,CLUPS,C,old,z,./images/CLUPS.png,,,,,,,,,,,,,,,,,,,,,
,,,,,,,,,,,,,,,,,199636,19,2022-01-29_14h22.37.298,lexical_decision_task_DD_L5,2021.2.3,MacIntel,59.84082341,,,,,,,,,,,,0.6294,1,,,,,,,,,,,,,,z,1,0.6294,,,,,,,,0.133711005,-0.434397108,0,0,0,,0,14,14,96,1,KEAMS,C,old,z,./images/KEAMS.png,,,,,,,,,,,,,,,,,,,,,
,,,,,,,,,,,,,,,,,199636,19,2022-01-29_14h22.37.298,lexical_decision_task_DD_L5,2021.2.3,MacIntel,59.84082341,,,,,,,,,,,,0.6948,1,,,,,,,,,,,,,,z,1,0.6948,,,,,,,,0.133711005,-0.434397108,0,0,0,,0,15,15,87,1,TRING,C,old,z,./images/TRING.png,,,,,,,,,,,,,,,,,,,,,
,,,,,,,,,,,,,,,,,199636,19,2022-01-29_14h22.37.298,lexical_decision_task_DD_L5,2021.2.3,MacIntel,59.84082341,,,,,,,,,,,,1.6169,1,,,,,,,,,,,,,,z,1,1.6169,,,,,,,,0.133711005,-0.434397108,0,0,0,,0,16,16,127,1,NINDY,HB,old,z,./images/NINDYHB.png,,,,,,,,,,,,,,,,,,,,,
,,,,,,,,,,,,,,,,,199636,19,2022-01-29_14h22.37.298,lexical_decision_task_DD_L5,2021.2.3,MacIntel,59.84082341,,,,,,,,,,,,0.6671,1,,,,,,,,,,,,,,m,1,0.6671,,,,,,,,0.133711005,-0.434397108,0,0,0,,0,17,17,70,1,BANANA,LB,old,m,./images/BANANALB.png,,,,,,,,,,,,,,,,,,,,,
,,,,,,,,,,,,,,,,,199636,19,2022-01-29_14h22.37.298,lexical_decision_task_DD_L5,2021.2.3,MacIntel,59.84082341,,,,,,,,,,,,0.5998,1,,,,,,,,,,,,,,m,1,0.5998,,,,,,,,0.133711005,-0.434397108,0,0,0,,0,18,18,67,1,POKER,LB,old,m,./images/POKERLB.png,,,,,,,,,,,,,,,,,,,,,
,,,,,,,,,,,,,,,,,199636,19,2022-01-29_14h22.37.298,lexical_decision_task_DD_L5,2021.2.3,MacIntel,59.84082341,,,,,,,,,,,,0.6929,1,,,,,,,,,,,,,,z,1,0.6929,,,,,,,,0.133711005,-0.434397108,0,0,0,,0,19,19,117,1,STEEG,C,old,z,./images/STEEG.png,,,,,,,,,,,,,,,,,,,,,
,,,,,,,,,,,,,,,,,199636,19,2022-01-29_14h22.37.298,lexical_decision_task_DD_L5,2021.2.3,MacIntel,59.84082341,,,,,,,,,,,,1.1818,1,,,,,,,,,,,,,,z,1,1.1818,,,,,,,,0.133711005,-0.434397108,0,0,0,,0,20,20,85,1,CHULK,HB,old,z,./images/CHULKHB.png,,,,,,,,,,,,,,,,,,,,,
,,,,,,,,,,,,,,,,,199636,19,2022-01-29_14h22.37.298,lexical_decision_task_DD_L5,2021.2.3,MacIntel,59.84082341,,,,,,,,,,,,0.8457,1,,,,,,,,,,,,,,m,1,0.8457,,,,,,,,0.133711005,-0.434397108,0,0,0,,0,21,21,63,1,BAKER,HB,old,m,./images/BAKERHB.png,,,,,,,,,,,,,,,,,,,,,
,,,,,,,,,,,,,,,,,199636,19,2022-01-29_14h22.37.298,lexical_decision_task_DD_L5,2021.2.3,MacIntel,59.84082341,,,,,,,,,,,,2.319,1,,,,,,,,,,,,,,z,1,2.319,,,,,,,,0.133711005,-0.434397108,0,0,0,,0,22,22,106,1,CLUMS,HB,old,z,./images/CLUMSHB.png,,,,,,,,,,,,,,,,,,,,,
,,,,,,,,,,,,,,,,,199636,19,2022-01-29_14h22.37.298,lexical_decision_task_DD_L5,2021.2.3,MacIntel,59.84082341,,,,,,,,,,,,1.3309,1,,,,,,,,,,,,,,z,1,1.3309,,,,,,,,0.133711005,-0.434397108,0,0,0,,0,23,23,142,1,PLASK,HB,old,z,./images/PLASKHB.png,,,,,,,,,,,,,,,,,,,,,
,,,,,,,,,,,,,,,,,199636,19,2022-01-29_14h22.37.298,lexical_decision_task_DD_L5,2021.2.3,MacIntel,59.84082341,,,,,,,,,,,,0.8357,1,,,,,,,,,,,,,,z,1,0.8357,,,,,,,,0.133711005,-0.434397108,0,0,0,,0,24,24,131,1,NACES,LB,old,z,./images/NACESLB.png,,,,,,,,,,,,,,,,,,,,,
,,,,,,,,,,,,,,,,,199636,19,2022-01-29_14h22.37.298,lexical_decision_task_DD_L5,2021.2.3,MacIntel,59.84082341,,,,,,,,,,,,0.6957,1,,,,,,,,,,,,,,m,1,0.6957,,,,,,,,0.133711005,-0.434397108,0,0,0,,0,25,25,20,1,GRANNY,C,old,m,./images/GRANNY.png,,,,,,,,,,,,,,,,,,,,,
,,,,,,,,,,,,,,,,,199636,19,2022-01-29_14h22.37.298,lexical_decision_task_DD_L5,2021.2.3,MacIntel,59.84082341,,,,,,,,,,,,0.8138,1,,,,,,,,,,,,,,z,1,0.8138,,,,,,,,0.133711005,-0.434397108,0,0,0,,0,26,26,107,1,FASKS,LB,old,z,./images/FASKSLB.png,,,,,,,,,,,,,,,,,,,,,
,,,,,,,,,,,,,,,,,199636,19,2022-01-29_14h22.37.298,lexical_decision_task_DD_L5,2021.2.3,MacIntel,59.84082341,,,,,,,,,,,,1.3166,1,,,,,,,,,,,,,,m,1,1.3166,,,,,,,,0.133711005,-0.434397108,0,0,0,,0,27,27,41,1,STREAM,C,old,m,./images/STREAM.png,,,,,,,,,,,,,,,,,,,,,
,,,,,,,,,,,,,,,,,199636,19,2022-01-29_14h22.37.298,lexical_decision_task_DD_L5,2021.2.3,MacIntel,59.84082341,,,,,,,,,,,,1.4499,1,,,,,,,,,,,,,,m,1,1.4499,,,,,,,,0.133711005,-0.434397108,0,0,0,,0,28,28,78,1,BROOM,HB,old,m,./images/BROOMHB.png,,,,,,,,,,,,,,,,,,,,,
,,,,,,,,,,,,,,,,,199636,19,2022-01-29_14h22.37.298,lexical_decision_task_DD_L5,2021.2.3,MacIntel,59.84082341,,,,,,,,,,,,0.7603,1,,,,,,,,,,,,,,z,1,0.7603,,,,,,,,0.133711005,-0.434397108,0,0,0,,0,29,29,111,1,HOSSE,C,old,z,./images/HOSSE.png,,,,,,,,,,,,,,,,,,,,,
,,,,,,,,,,,,,,,,,199636,19,2022-01-29_14h22.37.298,lexical_decision_task_DD_L5,2021.2.3,MacIntel,59.84082341,,,,,,,,,,,,1.0698,1,,,,,,,,,,,,,,m,1,1.0698,,,,,,,,0.133711005,-0.434397108,0,0,0,,0,30,30,52,1,DESERT,LB,old,m,./images/DESERTLB.png,,,,,,,,,,,,,,,,,,,,,
,,,,,,,,,,,,,,,,,199636,19,2022-01-29_14h22.37.298,lexical_decision_task_DD_L5,2021.2.3,MacIntel,59.84082341,,,,,,,,,,,,0.747,1,,,,,,,,,,,,,,z,1,0.747,,,,,,,,0.133711005,-0.434397108,0,0,0,,0,31,31,92,1,PAIMS,LB,old,z,./images/PAIMSLB.png,,,,,,,,,,,,,,,,,,,,,
,,,,,,,,,,,,,,,,,199636,19,2022-01-29_14h22.37.298,lexical_decision_task_DD_L5,2021.2.3,MacIntel,59.84082341,,,,,,,,,,,,0.8151,1,,,,,,,,,,,,,,z,1,0.8151,,,,,,,,0.133711005,-0.434397108,0,0,0,,0,32,32,150,1,NOOLS,C,old,z,./images/NOOLS.png,,,,,,,,,,,,,,,,,,,,,
,,,,,,,,,,,,,,,,,199636,19,2022-01-29_14h22.37.298,lexical_decision_task_DD_L5,2021.2.3,MacIntel,59.84082341,,,,,,,,,,,,1.374,1,,,,,,,,,,,,,,m,1,1.374,,,,,,,,0.133711005,-0.434397108,0,0,0,,0,33,33,12,1,BLOKE,HB,old,m,./images/BLOKEHB.png,,,,,,,,,,,,,,,,,,,,,
,,,,,,,,,,,,,,,,,199636,19,2022-01-29_14h22.37.298,lexical_decision_task_DD_L5,2021.2.3,MacIntel,59.84082341,,,,,,,,,,,,0.7003,1,,,,,,,,,,,,,,m,1,0.7003,,,,,,,,0.133711005,-0.434397108,0,0,0,,0,34,34,4,1,BOXER,LB,old,m,./images/BOXERLB.png,,,,,,,,,,,,,,,,,,,,,
,,,,,,,,,,,,,,,,,199636,19,2022-01-29_14h22.37.298,lexical_decision_task_DD_L5,2021.2.3,MacIntel,59.84082341,,,,,,,,,,,,0.7164,1,,,,,,,,,,,,,,m,1,0.7164,,,,,,,,0.133711005,-0.434397108,0,0,0,,0,35,35,69,1,ARROW,HB,old,m,./images/ARROWHB.png,,,,,,,,,,,,,,,,,,,,,
,,,,,,,,,,,,,,,,,199636,19,2022-01-29_14h22.37.298,lexical_decision_task_DD_L5,2021.2.3,MacIntel,59.84082341,,,,,,,,,,,,1.8081,1,,,,,,,,,,,,,,z,1,1.8081,,,,,,,,0.133711005,-0.434397108,0,0,0,,0,36,36,115,1,MAWNS,HB,old,z,./images/MAWNSHB.png,,,,,,,,,,,,,,,,,,,,,
,,,,,,,,,,,,,,,,,199636,19,2022-01-29_14h22.37.298,lexical_decision_task_DD_L5,2021.2.3,MacIntel,59.84082341,,,,,,,,,,,,1.7824,1,,,,,,,,,,,,,,z,1,1.7824,,,,,,,,0.133711005,-0.434397108,0,0,0,,0,37,37,97,1,CHIDS,HB,old,z,./images/CHIDSHB.png,,,,,,,,,,,,,,,,,,,,,
,,,,,,,,,,,,,,,,,199636,19,2022-01-29_14h22.37.298,lexical_decision_task_DD_L5,2021.2.3,MacIntel,59.84082341,,,,,,,,,,,,0.7768,1,,,,,,,,,,,,,,z,1,0.7768,,,,,,,,0.133711005,-0.434397108,0,0,0,,0,38,38,120,1,RINED,C,old,z,./images/RINED.png,,,,,,,,,,,,,,,,,,,,,
,,,,,,,,,,,,,,,,,199636,19,2022-01-29_14h22.37.298,lexical_decision_task_DD_L5,2021.2.3,MacIntel,59.84082341,,,,,,,,,,,,0.8266,1,,,,,,,,,,,,,,z,1,0.8266,,,,,,,,0.133711005,-0.434397108,0,0,0,,0,39,39,114,1,RIKES,C,old,z,./images/RIKES.png,,,,,,,,,,,,,,,,,,,,,
,,,,,,,,,,,,,,,,,199636,19,2022-01-29_14h22.37.298,lexical_decision_task_DD_L5,2021.2.3,MacIntel,59.84082341,,,,,,,,,,,,0.8232,1,,,,,,,,,,,,,,m,1,0.8232,,,,,,,,0.133711005,-0.434397108,0,0,0,,0,40,40,54,1,CHERRY,HB,old,m,./images/CHERRYHB.png,,,,,,,,,,,,,,,,,,,,,
,,,,,,,,,,,,,,,,,199636,19,2022-01-29_14h22.37.298,lexical_decision_task_DD_L5,2021.2.3,MacIntel,59.84082341,,,,,,,,,,,,0.7617,1,,,,,,,,,,,,,,m,1,0.7617,,,,,,,,0.133711005,-0.434397108,0,0,0,space,0,41,41,74,1,JUMPER,C,old,m,./images/JUMPER.png,5.5644,,,,,,,,,,,,,,,,,,,,
,,,,,,,,,,,,,,,,,199636,19,2022-01-29_14h22.37.298,lexical_decision_task_DD_L5,2021.2.3,MacIntel,59.84082341,,,,,,,,,,,,0.9681,1,,,,,,,,,,,,,,m,1,0.9681,,,,,,,,0.133711005,-0.434397108,0,0,0,,0,42,42,18,1,PARCEL,HB,old,m,./images/PARCELHB.png,,,,,,,,,,,,,,,,,,,,,
,,,,,,,,,,,,,,,,,199636,19,2022-01-29_14h22.37.298,lexical_decision_task_DD_L5,2021.2.3,MacIntel,59.84082341,,,,,,,,,,,,1.4753,1,,,,,,,,,,,,,,z,1,1.4753,,,,,,,,0.133711005,-0.434397108,0,0,0,,0,43,43,112,1,MYING,HB,old,z,./images/MYINGHB.png,,,,,,,,,,,,,,,,,,,,,
,,,,,,,,,,,,,,,,,199636,19,2022-01-29_14h22.37.298,lexical_decision_task_DD_L5,2021.2.3,MacIntel,59.84082341,,,,,,,,,,,,2.5909,1,,,,,,,,,,,,,,z,1,2.5909,,,,,,,,0.133711005,-0.434397108,0,0,0,,0,44,44,100,1,DRIBS,HB,old,z,./images/DRIBSHB.png,,,,,,,,,,,,,,,,,,,,,
,,,,,,,,,,,,,,,,,199636,19,2022-01-29_14h22.37.298,lexical_decision_task_DD_L5,2021.2.3,MacIntel,59.84082341,,,,,,,,,,,,1.1275,1,,,,,,,,,,,,,,z,1,1.1275,,,,,,,,0.133711005,-0.434397108,0,0,0,,0,45,45,126,1,GUELS,C,old,z,./images/GUELS.png,,,,,,,,,,,,,,,,,,,,,
,,,,,,,,,,,,,,,,,199636,19,2022-01-29_14h22.37.298,lexical_decision_task_DD_L5,2021.2.3,MacIntel,59.84082341,,,,,,,,,,,,0.7772,1,,,,,,,,,,,,,,z,1,0.7772,,,,,,,,0.133711005,-0.434397108,0,0,0,,0,46,46,105,1,MOKER,C,old,z,./images/MOKER.png,,,,,,,,,,,,,,,,,,,,,
,,,,,,,,,,,,,,,,,199636,19,2022-01-29_14h22.37.298,lexical_decision_task_DD_L5,2021.2.3,MacIntel,59.84082341,,,,,,,,,,,,2.0263,1,,,,,,,,,,,,,,m,1,2.0263,,,,,,,,0.133711005,-0.434397108,0,0,0,,0,47,47,36,1,BOILER,HB,old,m,./images/BOILERHB.png,,,,,,,,,,,,,,,,,,,,,
,,,,,,,,,,,,,,,,,199636,19,2022-01-29_14h22.37.298,lexical_decision_task_DD_L5,2021.2.3,MacIntel,59.84082341,,,,,,,,,,,,0.7465,1,,,,,,,,,,,,,,z,1,0.7465,,,,,,,,0.133711005,-0.434397108,0,0,0,,0,48,48,95,1,HANTY,LB,old,z,./images/HANTYLB.png,,,,,,,,,,,,,,,,,,,,,
,,,,,,,,,,,,,,,,,199636,19,2022-01-29_14h22.37.298,lexical_decision_task_DD_L5,2021.2.3,MacIntel,59.84082341,,,,,,,,,,,,0.5979,1,,,,,,,,,,,,,,m,1,0.5979,,,,,,,,0.133711005,-0.434397108,0,0,0,,0,49,49,71,1,BUBBLE,C,old,m,./images/BUBBLE.png,,,,,,,,,,,,,,,,,,,,,
,,,,,,,,,,,,,,,,,199636,19,2022-01-29_14h22.37.298,lexical_decision_task_DD_L5,2021.2.3,MacIntel,59.84082341,,,,,,,,,,,,0.5818,1,,,,,,,,,,,,,,m,1,0.5818,,,,,,,,0.133711005,-0.434397108,0,0,0,,0,50,50,16,1,GRAPE,LB,old,m,./images/GRAPELB.png,,,,,,,,,,,,,,,,,,,,,
,,,,,,,,,,,,,,,,,199636,19,2022-01-29_14h22.37.298,lexical_decision_task_DD_L5,2021.2.3,MacIntel,59.84082341,,,,,,,,,,,,0.8022,1,,,,,,,,,,,,,,m,1,0.8022,,,,,,,,0.133711005,-0.434397108,0,0,0,,0,51,51,60,1,CURRY,HB,old,m,./images/CURRYHB.png,,,,,,,,,,,,,,,,,,,,,
,,,,,,,,,,,,,,,,,199636,19,2022-01-29_14h22.37.298,lexical_decision_task_DD_L5,2021.2.3,MacIntel,59.84082341,,,,,,,,,,,,1.7825,1,,,,,,,,,,,,,,z,1,1.7825,,,,,,,,0.133711005,-0.434397108,0,0,0,,0,52,52,163,1,GAMBA,HB,old,z,./images/GAMBAHB.png,,,,,,,,,,,,,,,,,,,,,
,,,,,,,,,,,,,,,,,199636,19,2022-01-29_14h22.37.298,lexical_decision_task_DD_L5,2021.2.3,MacIntel,59.84082341,,,,,,,,,,,,0.6282,1,,,,,,,,,,,,,,m,1,0.6282,,,,,,,,0.133711005,-0.434397108,0,0,0,,0,53,53,21,1,DANCER,HB,old,m,./images/DANCERHB.png,,,,,,,,,,,,,,,,,,,,,
,,,,,,,,,,,,,,,,,199636,19,2022-01-29_14h22.37.298,lexical_decision_task_DD_L5,2021.2.3,MacIntel,59.84082341,,,,,,,,,,,,0.9982,1,,,,,,,,,,,,,,m,1,0.9982,,,,,,,,0.133711005,-0.434397108,0,0,0,,0,54,54,15,1,COLLAR,HB,old,m,./images/COLLARHB.png,,,,,,,,,,,,,,,,,,,,,
,,,,,,,,,,,,,,,,,199636,19,2022-01-29_14h22.37.298,lexical_decision_task_DD_L5,2021.2.3,MacIntel,59.84082341,,,,,,,,,,,,0.7937,1,,,,,,,,,,,,,,z,1,0.7937,,,,,,,,0.133711005,-0.434397108,0,0,0,,0,55,55,138,1,PLICE,C,old,z,./images/PLICE.png,,,,,,,,,,,,,,,,,,,,,
,,,,,,,,,,,,,,,,,199636,19,2022-01-29_14h22.37.298,lexical_decision_task_DD_L5,2021.2.3,MacIntel,59.84082341,,,,,,,,,,,,0.632,1,,,,,,,,,,,,,,m,1,0.632,,,,,,,,0.133711005,-0.434397108,0,0,0,,0,56,56,29,1,PISTOL,C,old,m,./images/PISTOL.png,,,,,,,,,,,,,,,,,,,,,
,,,,,,,,,,,,,,,,,199636,19,2022-01-29_14h22.37.298,lexical_decision_task_DD_L5,2021.2.3,MacIntel,59.84082341,,,,,,,,,,,,0.811,1,,,,,,,,,,,,,,z,1,0.811,,,,,,,,0.133711005,-0.434397108,0,0,0,,0,57,57,102,1,DULLE,C,old,z,./images/DULLE.png,,,,,,,,,,,,,,,,,,,,,
,,,,,,,,,,,,,,,,,199636,19,2022-01-29_14h22.37.298,lexical_decision_task_DD_L5,2021.2.3,MacIntel,59.84082341,,,,,,,,,,,,1.2161,1,,,,,,,,,,,,,,z,1,1.2161,,,,,,,,0.133711005,-0.434397108,0,0,0,,0,58,58,140,1,DOVET,LB,old,z,./images/DOVETLB.png,,,,,,,,,,,,,,,,,,,,,
,,,,,,,,,,,,,,,,,199636,19,2022-01-29_14h22.37.298,lexical_decision_task_DD_L5,2021.2.3,MacIntel,59.84082341,,,,,,,,,,,,1.919,1,,,,,,,,,,,,,,m,1,1.919,,,,,,,,0.133711005,-0.434397108,0,0,0,,0,59,59,0,1,WALNUT,HB,old,m,./images/WALNUTHB.png,,,,,,,,,,,,,,,,,,,,,
,,,,,,,,,,,,,,,,,199636,19,2022-01-29_14h22.37.298,lexical_decision_task_DD_L5,2021.2.3,MacIntel,59.84082341,,,,,,,,,,,,1.2641,1,,,,,,,,,,,,,,z,1,1.2641,,,,,,,,0.133711005,-0.434397108,0,0,0,,0,60,60,134,1,TROSS,LB,old,z,./images/TROSSLB.png,,,,,,,,,,,,,,,,,,,,,
,,,,,,,,,,,,,,,,,199636,19,2022-01-29_14h22.37.298,lexical_decision_task_DD_L5,2021.2.3,MacIntel,59.84082341,,,,,,,,,,,,0.6782,1,,,,,,,,,,,,,,z,1,0.6782,,,,,,,,0.133711005,-0.434397108,0,0,0,,0,61,61,156,1,HIXES,C,old,z,./images/HIXES.png,,,,,,,,,,,,,,,,,,,,,
,,,,,,,,,,,,,,,,,199636,19,2022-01-29_14h22.37.298,lexical_decision_task_DD_L5,2021.2.3,MacIntel,59.84082341,,,,,,,,,,,,0.7484,1,,,,,,,,,,,,,,z,1,0.7484,,,,,,,,0.133711005,-0.434397108,0,0,0,,0,62,62,98,1,BAMPS,LB,old,z,./images/BAMPSLB.png,,,,,,,,,,,,,,,,,,,,,
,,,,,,,,,,,,,,,,,199636,19,2022-01-29_14h22.37.298,lexical_decision_task_DD_L5,2021.2.3,MacIntel,59.84082341,,,,,,,,,,,,0.7307,1,,,,,,,,,,,,,,m,1,0.7307,,,,,,,,0.133711005,-0.434397108,0,0,0,,0,63,63,49,1,BISHOP,LB,old,m,./images/BISHOPLB.png,,,,,,,,,,,,,,,,,,,,,
,,,,,,,,,,,,,,,,,199636,19,2022-01-29_14h22.37.298,lexical_decision_task_DD_L5,2021.2.3,MacIntel,59.84082341,,,,,,,,,,,,1.077,1,,,,,,,,,,,,,,m,1,1.077,,,,,,,,0.133711005,-0.434397108,0,0,0,,0,64,64,59,1,BRUSH,C,old,m,./images/BRUSH.png,,,,,,,,,,,,,,,,,,,,,
,,,,,,,,,,,,,,,,,199636,19,2022-01-29_14h22.37.298,lexical_decision_task_DD_L5,2021.2.3,MacIntel,59.84082341,,,,,,,,,,,,0.9493,1,,,,,,,,,,,,,,m,1,0.9493,,,,,,,,0.133711005,-0.434397108,0,0,0,,0,65,65,19,1,DONKEY,LB,old,m,./images/DONKEYLB.png,,,,,,,,,,,,,,,,,,,,,
,,,,,,,,,,,,,,,,,199636,19,2022-01-29_14h22.37.298,lexical_decision_task_DD_L5,2021.2.3,MacIntel,59.84082341,,,,,,,,,,,,1.5202,1,,,,,,,,,,,,,,z,1,1.5202,,,,,,,,0.133711005,-0.434397108,0,0,0,,0,66,66,91,1,SHENS,HB,old,z,./images/SHENSHB.png,,,,,,,,,,,,,,,,,,,,,
,,,,,,,,,,,,,,,,,199636,19,2022-01-29_14h22.37.298,lexical_decision_task_DD_L5,2021.2.3,MacIntel,59.84082341,,,,,,,,,,,,1.0504,1,,,,,,,,,,,,,,z,1,1.0504,,,,,,,,0.133711005,-0.434397108,0,0,0,,0,67,67,164,1,SGREW,LB,old,z,./images/SGREWLB.png,,,,,,,,,,,,,,,,,,,,,
,,,,,,,,,,,,,,,,,199636,19,2022-01-29_14h22.37.298,lexical_decision_task_DD_L5,2021.2.3,MacIntel,59.84082341,,,,,,,,,,,,0.5748,1,,,,,,,,,,,,,,m,1,0.5748,,,,,,,,0.133711005,-0.434397108,0,0,0,,0,68,68,34,1,RAZOR,LB,old,m,./images/RAZORLB.png,,,,,,,,,,,,,,,,,,,,,
,,,,,,,,,,,,,,,,,199636,19,2022-01-29_14h22.37.298,lexical_decision_task_DD_L5,2021.2.3,MacIntel,59.84082341,,,,,,,,,,,,0.6276,1,,,,,,,,,,,,,,z,1,0.6276,,,,,,,,0.133711005,-0.434397108,0,0,0,,0,69,69,132,1,SCIFF,C,old,z,./images/SCIFF.png,,,,,,,,,,,,,,,,,,,,,
,,,,,,,,,,,,,,,,,199636,19,2022-01-29_14h22.37.298,lexical_decision_task_DD_L5,2021.2.3,MacIntel,59.84082341,,,,,,,,,,,,0.8132,1,,,,,,,,,,,,,,m,1,0.8132,,,,,,,,0.133711005,-0.434397108,0,0,0,,0,70,70,48,1,SHIELD,HB,old,m,./images/SHIELDHB.png,,,,,,,,,,,,,,,,,,,,,
,,,,,,,,,,,,,,,,,199636,19,2022-01-29_14h22.37.298,lexical_decision_task_DD_L5,2021.2.3,MacIntel,59.84082341,,,,,,,,,,,,0.664,1,,,,,,,,,,,,,,m,1,0.664,,,,,,,,0.133711005,-0.434397108,0,0,0,,0,71,71,80,1,PLANET,C,old,m,./images/PLANET.png,,,,,,,,,,,,,,,,,,,,,
,,,,,,,,,,,,,,,,,199636,19,2022-01-29_14h22.37.298,lexical_decision_task_DD_L5,2021.2.3,MacIntel,59.84082341,,,,,,,,,,,,0.7298,1,,,,,,,,,,,,,,m,1,0.7298,,,,,,,,0.133711005,-0.434397108,0,0,0,,0,72,72,73,1,GLOVE,LB,old,m,./images/GLOVELB.png,,,,,,,,,,,,,,,,,,,,,
,,,,,,,,,,,,,,,,,199636,19,2022-01-29_14h22.37.298,lexical_decision_task_DD_L5,2021.2.3,MacIntel,59.84082341,,,,,,,,,,,,0.4974,1,,,,,,,,,,,,,,m,1,0.4974,,,,,,,,0.133711005,-0.434397108,0,0,0,,0,73,73,79,1,RULER,LB,old,m,./images/RULERLB.png,,,,,,,,,,,,,,,,,,,,,
,,,,,,,,,,,,,,,,,199636,19,2022-01-29_14h22.37.298,lexical_decision_task_DD_L5,2021.2.3,MacIntel,59.84082341,,,,,,,,,,,,0.6266,1,,,,,,,,,,,,,,m,1,0.6266,,,,,,,,0.133711005,-0.434397108,0,0,0,,0,74,74,65,1,SPINE,C,old,m,./images/SPINE.png,,,,,,,,,,,,,,,,,,,,,
,,,,,,,,,,,,,,,,,199636,19,2022-01-29_14h22.37.298,lexical_decision_task_DD_L5,2021.2.3,MacIntel,59.84082341,,,,,,,,,,,,0.6817,1,,,,,,,,,,,,,,z,1,0.6817,,,,,,,,0.133711005,-0.434397108,0,0,0,,0,75,75,161,1,BLAPS,LB,old,z,./images/BLAPSLB.png,,,,,,,,,,,,,,,,,,,,,
,,,,,,,,,,,,,,,,,199636,19,2022-01-29_14h22.37.298,lexical_decision_task_DD_L5,2021.2.3,MacIntel,59.84082341,,,,,,,,,,,,0.6501,1,,,,,,,,,,,,,,m,1,0.6501,,,,,,,,0.133711005,-0.434397108,0,0,0,,0,76,76,45,1,MONKEY,HB,old,m,./images/MONKEYHB.png,,,,,,,,,,,,,,,,,,,,,
,,,,,,,,,,,,,,,,,199636,19,2022-01-29_14h22.37.298,lexical_decision_task_DD_L5,2021.2.3,MacIntel,59.84082341,,,,,,,,,,,,0.6323,1,,,,,,,,,,,,,,z,1,0.6323,,,,,,,,0.133711005,-0.434397108,0,0,0,,0,77,77,86,1,AIFED,LB,old,z,./images/AIFEDLB.png,,,,,,,,,,,,,,,,,,,,,
,,,,,,,,,,,,,,,,,199636,19,2022-01-29_14h22.37.298,lexical_decision_task_DD_L5,2021.2.3,MacIntel,59.84082341,,,,,,,,,,,,0.5826,1,,,,,,,,,,,,,,m,1,0.5826,,,,,,,,0.133711005,-0.434397108,0,0,0,,0,78,78,55,1,ALLEY,LB,old,m,./images/ALLEYLB.png,,,,,,,,,,,,,,,,,,,,,
,,,,,,,,,,,,,,,,,199636,19,2022-01-29_14h22.37.298,lexical_decision_task_DD_L5,2021.2.3,MacIntel,59.84082341,,,,,,,,,,,,0.6708,1,,,,,,,,,,,,,,z,1,0.6708,,,,,,,,0.133711005,-0.434397108,0,0,0,,0,79,79,152,1,FRAIN,LB,old,z,./images/FRAINLB.png,,,,,,,,,,,,,,,,,,,,,
,,,,,,,,,,,,,,,,,199636,19,2022-01-29_14h22.37.298,lexical_decision_task_DD_L5,2021.2.3,MacIntel,59.84082341,,,,,,,,,,,,0.8436,1,,,,,,,,,,,,,,m,1,0.8436,,,,,,,,0.133711005,-0.434397108,0,0,0,,0,80,80,11,1,MEDAL,C,old,m,./images/MEDAL.png,,,,,,,,,,,,,,,,,,,,,
,,,,,,,,,,,,,,,,,199636,19,2022-01-29_14h22.37.298,lexical_decision_task_DD_L5,2021.2.3,MacIntel,59.84082341,,,,,,,,,,,,0.6493,1,,,,,,,,,,,,,,z,1,0.6493,,,,,,,,0.133711005,-0.434397108,0,0,0,,0,81,81,135,1,JOODY,C,old,z,./images/JOODY.png,,,,,,,,,,,,,,,,,,,,,
,,,,,,,,,,,,,,,,,199636,19,2022-01-29_14h22.37.298,lexical_decision_task_DD_L5,2021.2.3,MacIntel,59.84082341,,,,,,,,,,,,0.7642,1,,,,,,,,,,,,,,m,1,0.7642,,,,,,,,0.133711005,-0.434397108,0,0,0,,0,82,82,24,1,FLESH,HB,old,m,./images/FLESHHB.png,,,,,,,,,,,,,,,,,,,,,
,,,,,,,,,,,,,,,,,199636,19,2022-01-29_14h22.37.298,lexical_decision_task_DD_L5,2021.2.3,MacIntel,59.84082341,,,,,,,,,,,,0.5623,1,,,,,,,,,,,,,,m,1,0.5623,,,,,,,,0.133711005,-0.434397108,0,0,0,space,0,83,83,25,1,CHALK,LB,old,m,./images/CHALKLB.png,9.6277,,,,,,,,,,,,,,,,,,,,
,,,,,,,,,,,,,,,,,199636,19,2022-01-29_14h22.37.298,lexical_decision_task_DD_L5,2021.2.3,MacIntel,59.84082341,,,,,,,,,,,,0.8837,1,,,,,,,,,,,,,,m,1,0.8837,,,,,,,,0.133711005,-0.434397108,0,0,0,,0,84,84,3,1,CRATER,HB,old,m,./images/CRATERHB.png,,,,,,,,,,,,,,,,,,,,,
,,,,,,,,,,,,,,,,,199636,19,2022-01-29_14h22.37.298,lexical_decision_task_DD_L5,2021.2.3,MacIntel,59.84082341,,,,,,,,,,,,1.0319,1,,,,,,,,,,,,,,z,1,1.0319,,,,,,,,0.133711005,-0.434397108,0,0,0,,0,85,85,160,1,VEETS,HB,old,z,./images/VEETSHB.png,,,,,,,,,,,,,,,,,,,,,
,,,,,,,,,,,,,,,,,199636,19,2022-01-29_14h22.37.298,lexical_decision_task_DD_L5,2021.2.3,MacIntel,59.84082341,,,,,,,,,,,,0.8552,1,,,,,,,,,,,,,,z,1,0.8552,,,,,,,,0.133711005,-0.434397108,0,0,0,,0,86,86,124,1,TUNCH,HB,old,z,./images/TUNCHHB.png,,,,,,,,,,,,,,,,,,,,,
,,,,,,,,,,,,,,,,,199636,19,2022-01-29_14h22.37.298,lexical_decision_task_DD_L5,2021.2.3,MacIntel,59.84082341,,,,,,,,,,,,0.511,1,,,,,,,,,,,,,,m,1,0.511,,,,,,,,0.133711005,-0.434397108,0,0,0,,0,87,87,56,1,HEATER,C,old,m,./images/HEATER.png,,,,,,,,,,,,,,,,,,,,,
,,,,,,,,,,,,,,,,,199636,19,2022-01-29_14h22.37.298,lexical_decision_task_DD_L5,2021.2.3,MacIntel,59.84082341,,,,,,,,,,,,0.6857,1,,,,,,,,,,,,,,m,1,0.6857,,,,,,,,0.133711005,-0.434397108,0,0,0,,0,88,88,33,1,SAUNA,HB,old,m,./images/SAUNAHB.png,,,,,,,,,,,,,,,,,,,,,
,,,,,,,,,,,,,,,,,199636,19,2022-01-29_14h22.37.298,lexical_decision_task_DD_L5,2021.2.3,MacIntel,59.84082341,,,,,,,,,,,,0.7704,1,,,,,,,,,,,,,,z,1,0.7704,,,,,,,,0.133711005,-0.434397108,0,0,0,,0,89,89,103,1,FLORT,HB,old,z,./images/FLORTHB.png,,,,,,,,,,,,,,,,,,,,,
,,,,,,,,,,,,,,,,,199636,19,2022-01-29_14h22.37.298,lexical_decision_task_DD_L5,2021.2.3,MacIntel,59.84082341,,,,,,,,,,,,0.47,1,,,,,,,,,,,,,,m,1,0.47,,,,,,,,0.133711005,-0.434397108,0,0,0,,0,90,90,14,1,FENCE,C,old,m,./images/FENCE.png,,,,,,,,,,,,,,,,,,,,,
,,,,,,,,,,,,,,,,,199636,19,2022-01-29_14h22.37.298,lexical_decision_task_DD_L5,2021.2.3,MacIntel,59.84082341,,,,,,,,,,,,0.543,1,,,,,,,,,,,,,,m,1,0.543,,,,,,,,0.133711005,-0.434397108,0,0,0,,0,91,91,83,1,WHISKY,C,old,m,./images/WHISKY.png,,,,,,,,,,,,,,,,,,,,,
,,,,,,,,,,,,,,,,,199636,19,2022-01-29_14h22.37.298,lexical_decision_task_DD_L5,2021.2.3,MacIntel,59.84082341,,,,,,,,,,,,0.6944,1,,,,,,,,,,,,,,z,1,0.6944,,,,,,,,0.133711005,-0.434397108,0,0,0,,0,92,92,158,1,EGECT,LB,old,z,./images/EGECTLB.png,,,,,,,,,,,,,,,,,,,,,
,,,,,,,,,,,,,,,,,199636,19,2022-01-29_14h22.37.298,lexical_decision_task_DD_L5,2021.2.3,MacIntel,59.84082341,,,,,,,,,,,,0.7814,1,,,,,,,,,,,,,,z,1,0.7814,,,,,,,,0.133711005,-0.434397108,0,0,0,,0,93,93,119,1,PAFER,LB,old,z,./images/PAFERLB.png,,,,,,,,,,,,,,,,,,,,,
,,,,,,,,,,,,,,,,,199636,19,2022-01-29_14h22.37.298,lexical_decision_task_DD_L5,2021.2.3,MacIntel,59.84082341,,,,,,,,,,,,0.9483,1,,,,,,,,,,,,,,z,1,0.9483,,,,,,,,0.133711005,-0.434397108,0,0,0,,0,94,94,136,1,WERVE,HB,old,z,./images/WERVEHB.png,,,,,,,,,,,,,,,,,,,,,
,,,,,,,,,,,,,,,,,199636,19,2022-01-29_14h22.37.298,lexical_decision_task_DD_L5,2021.2.3,MacIntel,59.84082341,,,,,,,,,,,,0.9151,1,,,,,,,,,,,,,,z,1,0.9151,,,,,,,,0.133711005,-0.434397108,0,0,0,,0,95,95,118,1,BAVEL,HB,old,z,./images/BAVELHB.png,,,,,,,,,,,,,,,,,,,,,
,,,,,,,,,,,,,,,,,199636,19,2022-01-29_14h22.37.298,lexical_decision_task_DD_L5,2021.2.3,MacIntel,59.84082341,,,,,,,,,,,,0.7837,1,,,,,,,,,,,,,,z,1,0.7837,,,,,,,,0.133711005,-0.434397108,0,0,0,,0,96,96,159,1,CUDDY,C,old,z,./images/CUDDY.png,,,,,,,,,,,,,,,,,,,,,
,,,,,,,,,,,,,,,,,199636,19,2022-01-29_14h22.37.298,lexical_decision_task_DD_L5,2021.2.3,MacIntel,59.84082341,,,,,,,,,,,,0.7043,1,,,,,,,,,,,,,,m,1,0.7043,,,,,,,,0.133711005,-0.434397108,0,0,0,,0,97,97,5,1,BAMBOO,C,old,m,./images/BAMBOO.png,,,,,,,,,,,,,,,,,,,,,
,,,,,,,,,,,,,,,,,199636,19,2022-01-29_14h22.37.298,lexical_decision_task_DD_L5,2021.2.3,MacIntel,59.84082341,,,,,,,,,,,,0.8809,1,,,,,,,,,,,,,,z,1,0.8809,,,,,,,,0.133711005,-0.434397108,0,0,0,,0,98,98,144,1,NAIRY,C,old,z,./images/NAIRY.png,,,,,,,,,,,,,,,,,,,,,
,,,,,,,,,,,,,,,,,199636,19,2022-01-29_14h22.37.298,lexical_decision_task_DD_L5,2021.2.3,MacIntel,59.84082341,,,,,,,,,,,,1.3244,1,,,,,,,,,,,,,,z,1,1.3244,,,,,,,,0.133711005,-0.434397108,0,0,0,,0,99,99,148,1,JOMS,HB,old,z,./images/JOMSHB.png,,,,,,,,,,,,,,,,,,,,,
,,,,,,,,,,,,,,,,,199636,19,2022-01-29_14h22.37.298,lexical_decision_task_DD_L5,2021.2.3,MacIntel,59.84082341,,,,,,,,,,,,0.7578,1,,,,,,,,,,,,,,m,1,0.7578,,,,,,,,0.133711005,-0.434397108,0,0,0,,0,100,100,6,1,STAIN,HB,old,m,./images/STAINHB.png,,,,,,,,,,,,,,,,,,,,,
,,,,,,,,,,,,,,,,,199636,19,2022-01-29_14h22.37.298,lexical_decision_task_DD_L5,2021.2.3,MacIntel,59.84082341,,,,,,,,,,,,0.8491,1,,,,,,,,,,,,,,m,1,0.8491,,,,,,,,0.133711005,-0.434397108,0,0,0,,0,101,101,30,1,SLOPE,HB,old,m,./images/SLOPEHB.png,,,,,,,,,,,,,,,,,,,,,
,,,,,,,,,,,,,,,,,199636,19,2022-01-29_14h22.37.298,lexical_decision_task_DD_L5,2021.2.3,MacIntel,59.84082341,,,,,,,,,,,,0.6043,1,,,,,,,,,,,,,,m,1,0.6043,,,,,,,,0.133711005,-0.434397108,0,0,0,,0,102,102,58,1,CANOE,LB,old,m,./images/CANOELB.png,,,,,,,,,,,,,,,,,,,,,
,,,,,,,,,,,,,,,,,199636,19,2022-01-29_14h22.37.298,lexical_decision_task_DD_L5,2021.2.3,MacIntel,59.84082341,,,,,,,,,,,,0.6112,1,,,,,,,,,,,,,,z,1,0.6112,,,,,,,,0.133711005,-0.434397108,0,0,0,,0,103,103,108,1,GRUET,C,old,z,./images/GRUET.png,,,,,,,,,,,,,,,,,,,,,
,,,,,,,,,,,,,,,,,199636,19,2022-01-29_14h22.37.298,lexical_decision_task_DD_L5,2021.2.3,MacIntel,59.84082341,,,,,,,,,,,,1.2983,1,,,,,,,,,,,,,,z,1,1.2983,,,,,,,,0.133711005,-0.434397108,0,0,0,,0,104,104,101,1,GLEET,LB,old,z,./images/GLEETLB.png,,,,,,,,,,,,,,,,,,,,,
,,,,,,,,,,,,,,,,,199636,19,2022-01-29_14h22.37.298,lexical_decision_task_DD_L5,2021.2.3,MacIntel,59.84082341,,,,,,,,,,,,0.9178,1,,,,,,,,,,,,,,m,1,0.9178,,,,,,,,0.133711005,-0.434397108,0,0,0,,0,105,105,2,1,STOVE,C,old,m,./images/STOVE.png,,,,,,,,,,,,,,,,,,,,,
,,,,,,,,,,,,,,,,,199636,19,2022-01-29_14h22.37.298,lexical_decision_task_DD_L5,2021.2.3,MacIntel,59.84082341,,,,,,,,,,,,0.8339,1,,,,,,,,,,,,,,m,1,0.8339,,,,,,,,0.133711005,-0.434397108,0,0,0,,0,106,106,75,1,HAMMER,HB,old,m,./images/HAMMERHB.png,,,,,,,,,,,,,,,,,,,,,
,,,,,,,,,,,,,,,,,199636,19,2022-01-29_14h22.37.298,lexical_decision_task_DD_L5,2021.2.3,MacIntel,59.84082341,,,,,,,,,,,,0.6766,1,,,,,,,,,,,,,,z,1,0.6766,,,,,,,,0.133711005,-0.434397108,0,0,0,,0,107,107,93,1,SMONE,C,old,z,./images/SMONE.png,,,,,,,,,,,,,,,,,,,,,
,,,,,,,,,,,,,,,,,199636,19,2022-01-29_14h22.37.298,lexical_decision_task_DD_L5,2021.2.3,MacIntel,59.84082341,,,,,,,,,,,,0.7471,1,,,,,,,,,,,,,,z,1,0.7471,,,,,,,,0.133711005,-0.434397108,0,0,0,,0,108,108,128,1,GRIFT,LB,old,z,./images/GRIFTLB.png,,,,,,,,,,,,,,,,,,,,,
,,,,,,,,,,,,,,,,,199636,19,2022-01-29_14h22.37.298,lexical_decision_task_DD_L5,2021.2.3,MacIntel,59.84082341,,,,,,,,,,,,1.0112,1,,,,,,,,,,,,,,z,1,1.0112,,,,,,,,0.133711005,-0.434397108,0,0,0,,0,109,109,99,1,BACKY,C,old,z,./images/BACKY.png,,,,,,,,,,,,,,,,,,,,,
,,,,,,,,,,,,,,,,,199636,19,2022-01-29_14h22.37.298,lexical_decision_task_DD_L5,2021.2.3,MacIntel,59.84082341,,,,,,,,,,,,0.6939,1,,,,,,,,,,,,,,z,1,0.6939,,,,,,,,0.133711005,-0.434397108,0,0,0,,0,110,110,84,1,HAXES,C,old,z,./images/HAXES.png,,,,,,,,,,,,,,,,,,,,,
,,,,,,,,,,,,,,,,,199636,19,2022-01-29_14h22.37.298,lexical_decision_task_DD_L5,2021.2.3,MacIntel,59.84082341,,,,,,,,,,,,0.7357,1,,,,,,,,,,,,,,z,1,0.7357,,,,,,,,0.133711005,-0.434397108,0,0,0,,0,111,111,145,1,LAMEL,HB,old,z,./images/LAMELHB.png,,,,,,,,,,,,,,,,,,,,,
,,,,,,,,,,,,,,,,,199636,19,2022-01-29_14h22.37.298,lexical_decision_task_DD_L5,2021.2.3,MacIntel,59.84082341,,,,,,,,,,,,0.755,1,,,,,,,,,,,,,,z,1,0.755,,,,,,,,0.133711005,-0.434397108,0,0,0,,0,112,112,149,1,VEASE,LB,old,z,./images/VEASELB.png,,,,,,,,,,,,,,,,,,,,,
,,,,,,,,,,,,,,,,,199636,19,2022-01-29_14h22.37.298,lexical_decision_task_DD_L5,2021.2.3,MacIntel,59.84082341,,,,,,,,,,,,0.4922,1,,,,,,,,,,,,,,m,1,0.4922,,,,,,,,0.133711005,-0.434397108,0,0,0,,0,113,113,50,1,PILOT,C,old,m,./images/PILOT.png,,,,,,,,,,,,,,,,,,,,,
,,,,,,,,,,,,,,,,,199636,19,2022-01-29_14h22.37.298,lexical_decision_task_DD_L5,2021.2.3,MacIntel,59.84082341,,,,,,,,,,,,0.5779,1,,,,,,,,,,,,,,m,1,0.5779,,,,,,,,0.133711005,-0.434397108,0,0,0,,0,114,114,62,1,MAMMAL,C,old,m,./images/MAMMAL.png,,,,,,,,,,,,,,,,,,,,,
,,,,,,,,,,,,,,,,,199636,19,2022-01-29_14h22.37.298,lexical_decision_task_DD_L5,2021.2.3,MacIntel,59.84082341,,,,,,,,,,,,0.5164,1,,,,,,,,,,,,,,m,1,0.5164,,,,,,,,0.133711005,-0.434397108,0,0,0,,0,115,115,35,1,LLAMA,C,old,m,./images/LLAMA.png,,,,,,,,,,,,,,,,,,,,,
,,,,,,,,,,,,,,,,,199636,19,2022-01-29_14h22.37.298,lexical_decision_task_DD_L5,2021.2.3,MacIntel,59.84082341,,,,,,,,,,,,0.6877,1,,,,,,,,,,,,,,z,1,0.6877,,,,,,,,0.133711005,-0.434397108,0,0,0,,0,116,116,167,1,ZONET,LB,old,z,./images/ZONETLB.png,,,,,,,,,,,,,,,,,,,,,
,,,,,,,,,,,,,,,,,199636,19,2022-01-29_14h22.37.298,lexical_decision_task_DD_L5,2021.2.3,MacIntel,59.84082341,,,,,,,,,,,,0.5892,1,,,,,,,,,,,,,,m,1,0.5892,,,,,,,,0.133711005,-0.434397108,0,0,0,,0,117,117,31,1,STEAK,LB,old,m,./images/STEAKLB.png,,,,,,,,,,,,,,,,,,,,,
,,,,,,,,,,,,,,,,,199636,19,2022-01-29_14h22.37.298,lexical_decision_task_DD_L5,2021.2.3,MacIntel,59.84082341,,,,,,,,,,,,1.6516,1,,,,,,,,,,,,,,z,1,1.6516,,,,,,,,0.133711005,-0.434397108,0,0,0,,0,118,118,151,1,TINKY,HB,old,z,./images/TINKYHB.png,,,,,,,,,,,,,,,,,,,,,
,,,,,,,,,,,,,,,,,199636,19,2022-01-29_14h22.37.298,lexical_decision_task_DD_L5,2021.2.3,MacIntel,59.84082341,,,,,,,,,,,,0.5849,1,,,,,,,,,,,,,,m,1,0.5849,,,,,,,,0.133711005,-0.434397108,0,0,0,,0,119,119,82,1,PEBBLE,LB,old,m,./images/PEBBLELB.png,,,,,,,,,,,,,,,,,,,,,
,,,,,,,,,,,,,,,,,199636,19,2022-01-29_14h22.37.298,lexical_decision_task_DD_L5,2021.2.3,MacIntel,59.84082341,,,,,,,,,,,,0.6541,1,,,,,,,,,,,,,,m,1,0.6541,,,,,,,,0.133711005,-0.434397108,0,0,0,,0,120,120,39,1,CANDY,HB,old,m,./images/CANDYHB.png,,,,,,,,,,,,,,,,,,,,,
,,,,,,,,,,,,,,,,,199636,19,2022-01-29_14h22.37.298,lexical_decision_task_DD_L5,2021.2.3,MacIntel,59.84082341,,,,,,,,,,,,0.6696,1,,,,,,,,,,,,,,m,1,0.6696,,,,,,,,0.133711005,-0.434397108,0,0,0,,0,121,121,27,1,BUTTER,HB,old,m,./images/BUTTERHB.png,,,,,,,,,,,,,,,,,,,,,
,,,,,,,,,,,,,,,,,199636,19,2022-01-29_14h22.37.298,lexical_decision_task_DD_L5,2021.2.3,MacIntel,59.84082341,,,,,,,,,,,,0.6463,1,,,,,,,,,,,,,,z,1,0.6463,,,,,,,,0.133711005,-0.434397108,0,0,0,,0,122,122,125,1,MOOKY,LB,old,z,./images/MOOKYLB.png,,,,,,,,,,,,,,,,,,,,,
,,,,,,,,,,,,,,,,,199636,19,2022-01-29_14h22.37.298,lexical_decision_task_DD_L5,2021.2.3,MacIntel,59.84082341,,,,,,,,,,,,0.7616,1,,,,,,,,,,,,,,m,1,0.7616,,,,,,,,0.133711005,-0.434397108,0,0,0,,0,123,123,44,1,BASKET,C,old,m,./images/BASKET.png,,,,,,,,,,,,,,,,,,,,,
,,,,,,,,,,,,,,,,,199636,19,2022-01-29_14h22.37.298,lexical_decision_task_DD_L5,2021.2.3,MacIntel,59.84082341,,,,,,,,,,,,0.5212,1,,,,,,,,,,,,,,m,1,0.5212,,,,,,,,0.133711005,-0.434397108,0,0,0,,0,124,124,23,1,CLOTH,C,old,m,./images/CLOTH.png,,,,,,,,,,,,,,,,,,,,,
,,,,,,,,,,,,,,,,,199636,19,2022-01-29_14h22.37.298,lexical_decision_task_DD_L5,2021.2.3,MacIntel,59.84082341,,,,,,,,,,,,0.7317,1,,,,,,,,,,,,,,z,1,0.7317,,,,,,,,0.133711005,-0.434397108,0,0,0,space,0,125,125,104,1,GITTY,LB,old,z,./images/GITTYLB.png,1.8735,,,,,,,,,,,,,,,,,,,,
,,,,,,,,,,,,,,,,,199636,19,2022-01-29_14h22.37.298,lexical_decision_task_DD_L5,2021.2.3,MacIntel,59.84082341,,,,,,,,,,,,0.5668,1,,,,,,,,,,,,,,z,1,0.5668,,,,,,,,0.133711005,-0.434397108,0,0,0,,0,126,126,141,1,PLEET,C,old,z,./images/PLEET.png,,,,,,,,,,,,,,,,,,,,,
,,,,,,,,,,,,,,,,,199636,19,2022-01-29_14h22.37.298,lexical_decision_task_DD_L5,2021.2.3,MacIntel,59.84082341,,,,,,,,,,,,1.1138,1,,,,,,,,,,,,,,m,1,1.1138,,,,,,,,0.133711005,-0.434397108,0,0,0,,0,127,127,42,1,CHAIN,HB,old,m,./images/CHAINHB.png,,,,,,,,,,,,,,,,,,,,,
,,,,,,,,,,,,,,,,,199636,19,2022-01-29_14h22.37.298,lexical_decision_task_DD_L5,2021.2.3,MacIntel,59.84082341,,,,,,,,,,,,0.8479,1,,,,,,,,,,,,,,z,1,0.8479,,,,,,,,0.133711005,-0.434397108,0,0,0,,0,128,128,165,1,TROWN,C,old,z,./images/TROWN.png,,,,,,,,,,,,,,,,,,,,,
,,,,,,,,,,,,,,,,,199636,19,2022-01-29_14h22.37.298,lexical_decision_task_DD_L5,2021.2.3,MacIntel,59.84082341,,,,,,,,,,,,0.9872,1,,,,,,,,,,,,,,z,1,0.9872,,,,,,,,0.133711005,-0.434397108,0,0,0,,0,129,129,133,1,POWDY,HB,old,z,./images/POWDYHB.png,,,,,,,,,,,,,,,,,,,,,
,,,,,,,,,,,,,,,,,199636,19,2022-01-29_14h22.37.298,lexical_decision_task_DD_L5,2021.2.3,MacIntel,59.84082341,,,,,,,,,,,,0.9958,0,,,,,,,,,,,,,,z,0,0.9958,,,,,,,,0.133711005,-0.434397108,0,0,0,,0,130,130,76,1,MIDGET,LB,old,m,./images/MIDGETLB.png,,,,,,,,,,,,,,,,,,,,,
,,,,,,,,,,,,,,,,,199636,19,2022-01-29_14h22.37.298,lexical_decision_task_DD_L5,2021.2.3,MacIntel,59.84082341,,,,,,,,,,,,1.1488,1,,,,,,,,,,,,,,z,1,1.1488,,,,,,,,0.133711005,-0.434397108,0,0,0,,0,131,131,155,1,CANGY,LB,old,z,./images/CANGYLB.png,,,,,,,,,,,,,,,,,,,,,
,,,,,,,,,,,,,,,,,199636,19,2022-01-29_14h22.37.298,lexical_decision_task_DD_L5,2021.2.3,MacIntel,59.84082341,,,,,,,,,,,,0.6822,1,,,,,,,,,,,,,,m,1,0.6822,,,,,,,,0.133711005,-0.434397108,0,0,0,,0,132,132,28,1,CASINO,LB,old,m,./images/CASINOLB.png,,,,,,,,,,,,,,,,,,,,,
,,,,,,,,,,,,,,,,,199636,19,2022-01-29_14h22.37.298,lexical_decision_task_DD_L5,2021.2.3,MacIntel,59.84082341,,,,,,,,,,,,1.5488,1,,,,,,,,,,,,,,z,1,1.5488,,,,,,,,0.133711005,-0.434397108,0,0,0,,0,133,133,154,1,THINT,HB,old,z,./images/THINTHB.png,,,,,,,,,,,,,,,,,,,,,
,,,,,,,,,,,,,,,,,199636,19,2022-01-29_14h22.37.298,lexical_decision_task_DD_L5,2021.2.3,MacIntel,59.84082341,,,,,,,,,,,,0.7473,1,,,,,,,,,,,,,,m,1,0.7473,,,,,,,,0.133711005,-0.434397108,0,0,0,,0,134,134,7,1,WAGON,LB,old,m,./images/WAGONLB.png,,,,,,,,,,,,,,,,,,,,,
,,,,,,,,,,,,,,,,,199636,19,2022-01-29_14h22.37.298,lexical_decision_task_DD_L5,2021.2.3,MacIntel,59.84082341,,,,,,,,,,,,0.9664,1,,,,,,,,,,,,,,m,1,0.9664,,,,,,,,0.133711005,-0.434397108,0,0,0,,0,135,135,57,1,FERRY,HB,old,m,./images/FERRYHB.png,,,,,,,,,,,,,,,,,,,,,
,,,,,,,,,,,,,,,,,199636,19,2022-01-29_14h22.37.298,lexical_decision_task_DD_L5,2021.2.3,MacIntel,59.84082341,,,,,,,,,,,,0.6734,1,,,,,,,,,,,,,,z,1,0.6734,,,,,,,,0.133711005,-0.434397108,0,0,0,,0,136,136,143,1,MONGS,LB,old,z,./images/MONGSLB.png,,,,,,,,,,,,,,,,,,,,,
,,,,,,,,,,,,,,,,,199636,19,2022-01-29_14h22.37.298,lexical_decision_task_DD_L5,2021.2.3,MacIntel,59.84082341,,,,,,,,,,,,0.699,1,,,,,,,,,,,,,,m,1,0.699,,,,,,,,0.133711005,-0.434397108,0,0,0,,0,137,137,66,1,STATUE,HB,old,m,./images/STATUEHB.png,,,,,,,,,,,,,,,,,,,,,
,,,,,,,,,,,,,,,,,199636,19,2022-01-29_14h22.37.298,lexical_decision_task_DD_L5,2021.2.3,MacIntel,59.84082341,,,,,,,,,,,,0.781,1,,,,,,,,,,,,,,z,1,0.781,,,,,,,,0.133711005,-0.434397108,0,0,0,,0,138,138,110,1,CRUNK,LB,old,z,./images/CRUNKLB.png,,,,,,,,,,,,,,,,,,,,,
,,,,,,,,,,,,,,,,,199636,19,2022-01-29_14h22.37.298,lexical_decision_task_DD_L5,2021.2.3,MacIntel,59.84082341,,,,,,,,,,,,0.6703,1,,,,,,,,,,,,,,m,1,0.6703,,,,,,,,0.133711005,-0.434397108,0,0,0,,0,139,139,64,1,BRIDE,LB,old,m,./images/BRIDELB.png,,,,,,,,,,,,,,,,,,,,,
,,,,,,,,,,,,,,,,,199636,19,2022-01-29_14h22.37.298,lexical_decision_task_DD_L5,2021.2.3,MacIntel,59.84082341,,,,,,,,,,,,0.634,1,,,,,,,,,,,,,,z,1,0.634,,,,,,,,0.133711005,-0.434397108,0,0,0,,0,140,140,129,1,PRANS,C,old,z,./images/PRANS.png,,,,,,,,,,,,,,,,,,,,,
,,,,,,,,,,,,,,,,,199636,19,2022-01-29_14h22.37.298,lexical_decision_task_DD_L5,2021.2.3,MacIntel,59.84082341,,,,,,,,,,,,0.6074,1,,,,,,,,,,,,,,m,1,0.6074,,,,,,,,0.133711005,-0.434397108,0,0,0,,0,141,141,37,1,TIGER,LB,old,m,./images/TIGERLB.png,,,,,,,,,,,,,,,,,,,,,
,,,,,,,,,,,,,,,,,199636,19,2022-01-29_14h22.37.298,lexical_decision_task_DD_L5,2021.2.3,MacIntel,59.84082341,,,,,,,,,,,,0.9511,1,,,,,,,,,,,,,,m,1,0.9511,,,,,,,,0.133711005,-0.434397108,0,0,0,,0,142,142,43,1,STOOL,LB,old,m,./images/STOOLLB.png,,,,,,,,,,,,,,,,,,,,,
,,,,,,,,,,,,,,,,,199636,19,2022-01-29_14h22.37.298,lexical_decision_task_DD_L5,2021.2.3,MacIntel,59.84082341,,,,,,,,,,,,0.6477,1,,,,,,,,,,,,,,z,1,0.6477,,,,,,,,0.133711005,-0.434397108,0,0,0,,0,143,143,113,1,LINEW,LB,old,z,./images/LINEWLB.png,,,,,,,,,,,,,,,,,,,,,
,,,,,,,,,,,,,,,,,199636,19,2022-01-29_14h22.37.298,lexical_decision_task_DD_L5,2021.2.3,MacIntel,59.84082341,,,,,,,,,,,,0.8966,1,,,,,,,,,,,,,,m,1,0.8966,,,,,,,,0.133711005,-0.434397108,0,0,0,,0,144,144,51,1,SAUCE,HB,old,m,./images/SAUCEHB.png,,,,,,,,,,,,,,,,,,,,,
,,,,,,,,,,,,,,,,,199636,19,2022-01-29_14h22.37.298,lexical_decision_task_DD_L5,2021.2.3,MacIntel,59.84082341,,,,,,,,,,,,0.644,1,,,,,,,,,,,,,,m,1,0.644,,,,,,,,0.133711005,-0.434397108,0,0,0,,0,145,145,38,1,ENGINE,C,old,m,./images/ENGINE.png,,,,,,,,,,,,,,,,,,,,,
,,,,,,,,,,,,,,,,,199636,19,2022-01-29_14h22.37.298,lexical_decision_task_DD_L5,2021.2.3,MacIntel,59.84082341,,,,,,,,,,,,0.8651,1,,,,,,,,,,,,,,m,1,0.8651,,,,,,,,0.133711005,-0.434397108,0,0,0,,0,146,146,8,1,CLIFF,C,old,m,./images/CLIFF.png,,,,,,,,,,,,,,,,,,,,,
,,,,,,,,,,,,,,,,,199636,19,2022-01-29_14h22.37.298,lexical_decision_task_DD_L5,2021.2.3,MacIntel,59.84082341,,,,,,,,,,,,0.8296,1,,,,,,,,,,,,,,z,1,0.8296,,,,,,,,0.133711005,-0.434397108,0,0,0,,0,147,147,122,1,BLOOT,LB,old,z,./images/BLOOTLB.png,,,,,,,,,,,,,,,,,,,,,
,,,,,,,,,,,,,,,,,199636,19,2022-01-29_14h22.37.298,lexical_decision_task_DD_L5,2021.2.3,MacIntel,59.84082341,,,,,,,,,,,,0.8001,1,,,,,,,,,,,,,,z,1,0.8001,,,,,,,,0.133711005,-0.434397108,0,0,0,,0,148,148,123,1,SEDGE,C,old,z,./images/SEDGE.png,,,,,,,,,,,,,,,,,,,,,
,,,,,,,,,,,,,,,,,199636,19,2022-01-29_14h22.37.298,lexical_decision_task_DD_L5,2021.2.3,MacIntel,59.84082341,,,,,,,,,,,,1.06,1,,,,,,,,,,,,,,z,1,1.06,,,,,,,,0.133711005,-0.434397108,0,0,0,,0,149,149,162,1,LEICH,C,old,z,./images/LEICH.png,,,,,,,,,,,,,,,,,,,,,
,,,,,,,,,,,,,,,,,199636,19,2022-01-29_14h22.37.298,lexical_decision_task_DD_L5,2021.2.3,MacIntel,59.84082341,,,,,,,,,,,,0.6473,1,,,,,,,,,,,,,,m,1,0.6473,,,,,,,,0.133711005,-0.434397108,0,0,0,,0,150,150,32,1,HOCKEY,C,old,m,./images/HOCKEY.png,,,,,,,,,,,,,,,,,,,,,
,,,,,,,,,,,,,,,,,199636,19,2022-01-29_14h22.37.298,lexical_decision_task_DD_L5,2021.2.3,MacIntel,59.84082341,,,,,,,,,,,,0.6475,1,,,,,,,,,,,,,,z,1,0.6475,,,,,,,,0.133711005,-0.434397108,0,0,0,,0,151,151,90,1,NEAST,C,old,z,./images/NEAST.png,,,,,,,,,,,,,,,,,,,,,
,,,,,,,,,,,,,,,,,199636,19,2022-01-29_14h22.37.298,lexical_decision_task_DD_L5,2021.2.3,MacIntel,59.84082341,,,,,,,,,,,,2.2353,0,,,,,,,,,,,,,,m,0,2.2353,,,,,,,,0.133711005,-0.434397108,0,0,0,,0,152,152,130,1,CRILL,HB,old,z,./images/CRILLHB.png,,,,,,,,,,,,,,,,,,,,,
,,,,,,,,,,,,,,,,,199636,19,2022-01-29_14h22.37.298,lexical_decision_task_DD_L5,2021.2.3,MacIntel,59.84082341,,,,,,,,,,,,0.9003,1,,,,,,,,,,,,,,m,1,0.9003,,,,,,,,0.133711005,-0.434397108,0,0,0,,0,153,153,1,1,TOWEL,LB,old,m,./images/TOWELLB.png,,,,,,,,,,,,,,,,,,,,,
,,,,,,,,,,,,,,,,,199636,19,2022-01-29_14h22.37.298,lexical_decision_task_DD_L5,2021.2.3,MacIntel,59.84082341,,,,,,,,,,,,1.5377,1,,,,,,,,,,,,,,z,1,1.5377,,,,,,,,0.133711005,-0.434397108,0,0,0,,0,154,154,109,1,BURGE,HB,old,z,./images/BURGEHB.png,,,,,,,,,,,,,,,,,,,,,
,,,,,,,,,,,,,,,,,199636,19,2022-01-29_14h22.37.298,lexical_decision_task_DD_L5,2021.2.3,MacIntel,59.84082341,,,,,,,,,,,,1.0983,1,,,,,,,,,,,,,,m,1,1.0983,,,,,,,,0.133711005,-0.434397108,0,0,0,,0,155,155,9,1,DIVER,HB,old,m,./images/DIVERHB.png,,,,,,,,,,,,,,,,,,,,,
,,,,,,,,,,,,,,,,,199636,19,2022-01-29_14h22.37.298,lexical_decision_task_DD_L5,2021.2.3,MacIntel,59.84082341,,,,,,,,,,,,0.7358,1,,,,,,,,,,,,,,m,1,0.7358,,,,,,,,0.133711005,-0.434397108,0,0,0,,0,156,156,61,1,ARTIST,LB,old,m,./images/ARTISTLB.png,,,,,,,,,,,,,,,,,,,,,
,,,,,,,,,,,,,,,,,199636,19,2022-01-29_14h22.37.298,lexical_decision_task_DD_L5,2021.2.3,MacIntel,59.84082341,,,,,,,,,,,,3.3051,1,,,,,,,,,,,,,,z,1,3.3051,,,,,,,,0.133711005,-0.434397108,0,0,0,,0,157,157,157,1,INLER,HB,old,z,./images/INLERHB.png,,,,,,,,,,,,,,,,,,,,,
,,,,,,,,,,,,,,,,,199636,19,2022-01-29_14h22.37.298,lexical_decision_task_DD_L5,2021.2.3,MacIntel,59.84082341,,,,,,,,,,,,0.594,1,,,,,,,,,,,,,,m,1,0.594,,,,,,,,0.133711005,-0.434397108,0,0,0,,0,158,158,26,1,CLOUD,C,old,m,./images/CLOUD.png,,,,,,,,,,,,,,,,,,,,,
,,,,,,,,,,,,,,,,,199636,19,2022-01-29_14h22.37.298,lexical_decision_task_DD_L5,2021.2.3,MacIntel,59.84082341,,,,,,,,,,,,0.6958,1,,,,,,,,,,,,,,m,1,0.6958,,,,,,,,0.133711005,-0.434397108,0,0,0,,0,159,159,47,1,LAGOON,C,old,m,./images/LAGOON.png,,,,,,,,,,,,,,,,,,,,,
,,,,,,,,,,,,,,,,,199636,19,2022-01-29_14h22.37.298,lexical_decision_task_DD_L5,2021.2.3,MacIntel,59.84082341,,,,,,,,,,,,1.1139,1,,,,,,,,,,,,,,z,1,1.1139,,,,,,,,0.133711005,-0.434397108,0,0,0,,0,160,160,139,1,BLEAR,HB,old,z,./images/BLEARHB.png,,,,,,,,,,,,,,,,,,,,,
,,,,,,,,,,,,,,,,,199636,19,2022-01-29_14h22.37.298,lexical_decision_task_DD_L5,2021.2.3,MacIntel,59.84082341,,,,,,,,,,,,0.641,1,,,,,,,,,,,,,,z,1,0.641,,,,,,,,0.133711005,-0.434397108,0,0,0,,0,161,161,137,1,JOOST,LB,old,z,./images/JOOSTLB.png,,,,,,,,,,,,,,,,,,,,,
,,,,,,,,,,,,,,,,,199636,19,2022-01-29_14h22.37.298,lexical_decision_task_DD_L5,2021.2.3,MacIntel,59.84082341,,,,,,,,,,,,0.509,1,,,,,,,,,,,,,,m,1,0.509,,,,,,,,0.133711005,-0.434397108,0,0,0,,0,162,162,77,1,WHEEL,C,old,m,./images/WHEEL.png,,,,,,,,,,,,,,,,,,,,,
,,,,,,,,,,,,,,,,,199636,19,2022-01-29_14h22.37.298,lexical_decision_task_DD_L5,2021.2.3,MacIntel,59.84082341,,,,,,,,,,,,0.7322,1,,,,,,,,,,,,,,m,1,0.7322,,,,,,,,0.133711005,-0.434397108,0,0,0,,0,163,163,81,1,DRILL,HB,old,m,./images/DRILLHB.png,,,,,,,,,,,,,,,,,,,,,
,,,,,,,,,,,,,,,,,199636,19,2022-01-29_14h22.37.298,lexical_decision_task_DD_L5,2021.2.3,MacIntel,59.84082341,,,,,,,,,,,,0.764,1,,,,,,,,,,,,,,z,1,0.764,,,,,,,,0.133711005,-0.434397108,0,0,0,,0,164,164,116,1,BALGY,LB,old,z,./images/BALGYLB.png,,,,,,,,,,,,,,,,,,,,,
,,,,,,,,,,,,,,,,,199636,19,2022-01-29_14h22.37.298,lexical_decision_task_DD_L5,2021.2.3,MacIntel,59.84082341,,,,,,,,,,,,0.8759,1,,,,,,,,,,,,,,m,1,0.8759,,,,,,,,0.133711005,-0.434397108,0,0,0,,0,165,165,10,1,GARDEN,LB,old,m,./images/GARDENLB.png,,,,,,,,,,,,,,,,,,,,,
,,,,,,,,,,,,,,,,,199636,19,2022-01-29_14h22.37.298,lexical_decision_task_DD_L5,2021.2.3,MacIntel,59.84082341,,,,,,,,,,,,0.565,1,,,,,,,,,,,,,,m,1,0.565,,,,,,,,0.133711005,-0.434397108,0,0,0,,0,166,166,40,1,SNAKE,LB,old,m,./images/SNAKELB.png,,,,,,,,,,,,,,,,,,,,,
,,,,,,,,,,,,,,,,,199636,19,2022-01-29_14h22.37.298,lexical_decision_task_DD_L5,2021.2.3,MacIntel,59.84082341,,,,,,,,,,,,1.0767,1,,,,,,,,,,,,,,m,1,1.0767,,,,,,,,0.133711005,-0.434397108,0,0,0,,0,167,167,53,1,POSTER,C,old,m,./images/POSTER.png,,,,,,,,,,,,,,,,,,,,,
space,0.133711005,-0.434397108,0,0,0,,,,,,,1,test,"In the next phase you will be presented with the words from the the first phase. Your job is to decide whether you remember seeing the word or not. If you remember seeing the word press ""old"" or type ""m"". If you do not remember seeing the word press ""new"" or type ""z"". Please press the space bar or click on continue to begin. ",,,199636,19,2022-01-29_14h22.37.298,lexical_decision_task_DD_L5,2021.2.3,MacIntel,59.84082341,13.4446,,,,,,,,,,,,,,,,,,,,,,,,,,,,,,,,,,,,,,,,,,,,,,,,,,,,,0,0,0,0,1,,,,,,,,,,,,,,,
space,0.133711005,-0.434397108,0,0,0,,,,,,,1,test,"In the next phase you will be presented with the words from the the first phase. Your job is to decide whether you remember seeing the word or not. If you remember seeing the word press ""old"" or type ""m"". If you do not remember seeing the word press ""new"" or type ""z"". Please press the space bar or click on continue to begin. ",,,199636,19,2022-01-29_14h22.37.298,lexical_decision_task_DD_L5,2021.2.3,MacIntel,59.84082341,1.8183,,,,,,,,,,,,,,,,,,,,,,,,,,,,,,,,,,,,,,,,,,,,,,,,,,,,,1,0,1,0,1,,,,,,,,,,,,,,,
,0.127013346,-0.430905897,1,0,0,instr_done_button,,,,,,1,test,"In the next phase you will be presented with the words from the the first phase. Your job is to decide whether you remember seeing the word or not. If you remember seeing the word press ""old"" or type ""m"". If you do not remember seeing the word press ""new"" or type ""z"". Please press the space bar or click on continue to begin. ",,,199636,19,2022-01-29_14h22.37.298,lexical_decision_task_DD_L5,2021.2.3,MacIntel,59.84082341,,,,,,,,,,,,,,,,,,,,,,,,,,,,,,,,,,,,,,,,,,,,,,,,,,,,,,2,0,2,0,1,,,,,,,,,,,,,,,
space,0.002396783,-0.37611457,0,0,0,,,,,,,1,test,"In the next phase you will be presented with the words from the the first phase. Your job is to decide whether you remember seeing the word or not. If you remember seeing the word press ""old"" or type ""m"". If you do not remember seeing the word press ""new"" or type ""z"". Please press the space bar or click on continue to begin. ",,,199636,19,2022-01-29_14h22.37.298,lexical_decision_task_DD_L5,2021.2.3,MacIntel,59.84082341,2.4401,,,,,,,,,,,,,,,,,,,,,,,,,,,,,,,,,,,,,,,,,,,,,,,,,,,,,3,0,3,0,1,,,,,,,,,,,,,,,
,-0.078820801,-0.402808906,1,0,0,instr_done_button,,,,,,1,test,"In the next phase you will be presented with the words from the the first phase. Your job is to decide whether you remember seeing the word or not. If you remember seeing the word press ""old"" or type ""m"". If you do not remember seeing the word press ""new"" or type ""z"". Please press the space bar or click on continue to begin. ",,,199636,19,2022-01-29_14h22.37.298,lexical_decision_task_DD_L5,2021.2.3,MacIntel,59.84082341,,,,,,,,,,,,,,,,,,,,,,,,,,,,,,,,,,,,,,,,,,,,,,,,,,,,,,4,0,4,0,1,,,,,,,,,,,,,,,
,,,,,,,,,,,,,,,,,199636,19,2022-01-29_14h22.37.298,lexical_decision_task_DD_L5,2021.2.3,MacIntel,59.84082341,,,,,,,,,,,,2.8124,1,,,,,,,,,,,,,,,,,,,,,,,,0.182920939,-0.177903985,0,0,0,,,,,,,CRUST,LB,z,y,./images/CRUSTLB.png,,,,,,,z,1,2.8124,,,,,,,,0,0,0,163,1
,,,,,,,,,,,,,,,,,199636,19,2022-01-29_14h22.37.298,lexical_decision_task_DD_L5,2021.2.3,MacIntel,59.84082341,,,,,,,,,,,,1.051,1,,,,,,,,,,,,,,,,,,,,,,,,0.182920939,-0.177903985,0,0,0,,,,,,,STREAM,C,m,y,./images/STREAM.png,,,,,,,m,1,1.051,,,,,,,,0,1,1,41,1
,,,,,,,,,,,,,,,,,199636,19,2022-01-29_14h22.37.298,lexical_decision_task_DD_L5,2021.2.3,MacIntel,59.84082341,,,,,,,,,,,,0.9217,0,,,,,,,,,,,,,,,,,,,,,,,,0.182920939,-0.177903985,0,0,0,,,,,,,SAILOR,LB,z,y,./images/SAILORLB.png,,,,,,,m,0,0.9217,,,,,,,,0,2,2,151,1
,,,,,,,,,,,,,,,,,199636,19,2022-01-29_14h22.37.298,lexical_decision_task_DD_L5,2021.2.3,MacIntel,59.84082341,,,,,,,,,,,,0.7031,1,,,,,,,,,,,,,,,,,,,,,,,,0.182920939,-0.177903985,0,0,0,,,,,,,ENGINE,C,m,y,./images/ENGINE.png,,,,,,,m,1,0.7031,,,,,,,,0,3,3,38,1
,,,,,,,,,,,,,,,,,199636,19,2022-01-29_14h22.37.298,lexical_decision_task_DD_L5,2021.2.3,MacIntel,59.84082341,,,,,,,,,,,,1.1839,1,,,,,,,,,,,,,,,,,,,,,,,,0.182920939,-0.177903985,0,0,0,,,,,,,SWEAT,HB,z,y,./images/SWEATHB.png,,,,,,,z,1,1.1839,,,,,,,,0,4,4,150,1
,,,,,,,,,,,,,,,,,199636,19,2022-01-29_14h22.37.298,lexical_decision_task_DD_L5,2021.2.3,MacIntel,59.84082341,,,,,,,,,,,,0.9192,1,,,,,,,,,,,,,,,,,,,,,,,,0.182920939,-0.177903985,0,0,0,,,,,,,CLOTH,C,m,y,./images/CLOTH.png,,,,,,,m,1,0.9192,,,,,,,,0,5,5,23,1
,,,,,,,,,,,,,,,,,199636,19,2022-01-29_14h22.37.298,lexical_decision_task_DD_L5,2021.2.3,MacIntel,59.84082341,,,,,,,,,,,,0.6005,1,,,,,,,,,,,,,,,,,,,,,,,,0.182920939,-0.177903985,0,0,0,,,,,,,CANOE,LB,m,y,./images/CANOELB.png,,,,,,,m,1,0.6005,,,,,,,,0,6,6,58,1
,,,,,,,,,,,,,,,,,199636,19,2022-01-29_14h22.37.298,lexical_decision_task_DD_L5,2021.2.3,MacIntel,59.84082341,,,,,,,,,,,,1.8375,0,,,,,,,,,,,,,,,,,,,,,,,,0.182920939,-0.177903985,0,0,0,,,,,,,STRING,C,z,y,./images/STRING.png,,,,,,,m,0,1.8375,,,,,,,,0,7,7,125,1
,,,,,,,,,,,,,,,,,199636,19,2022-01-29_14h22.37.298,lexical_decision_task_DD_L5,2021.2.3,MacIntel,59.84082341,,,,,,,,,,,,0.9056,0,,,,,,,,,,,,,,,,,,,,,,,,0.182920939,-0.177903985,0,0,0,,,,,,,MALLET,C,z,y,./images/MALLET.png,,,,,,,m,0,0.9056,,,,,,,,0,8,8,134,1
,,,,,,,,,,,,,,,,,199636,19,2022-01-29_14h22.37.298,lexical_decision_task_DD_L5,2021.2.3,MacIntel,59.84082341,,,,,,,,,,,,0.7245,1,,,,,,,,,,,,,,,,,,,,,,,,0.182920939,-0.177903985,0,0,0,,,,,,,MIDGET,LB,m,y,./images/MIDGETLB.png,,,,,,,m,1,0.7245,,,,,,,,0,9,9,76,1
,,,,,,,,,,,,,,,,,199636,19,2022-01-29_14h22.37.298,lexical_decision_task_DD_L5,2021.2.3,MacIntel,59.84082341,,,,,,,,,,,,1.032,1,,,,,,,,,,,,,,,,,,,,,,,,0.182920939,-0.177903985,0,0,0,,,,,,,POODLE,HB,z,y,./images/POODLEHB.png,,,,,,,z,1,1.032,,,,,,,,0,10,10,165,1
,,,,,,,,,,,,,,,,,199636,19,2022-01-29_14h22.37.298,lexical_decision_task_DD_L5,2021.2.3,MacIntel,59.84082341,,,,,,,,,,,,0.8519,1,,,,,,,,,,,,,,,,,,,,,,,,0.182920939,-0.177903985,0,0,0,,,,,,,MIRROR,HB,z,y,./images/MIRRORHB.png,,,,,,,z,1,0.8519,,,,,,,,0,11,11,147,1
,,,,,,,,,,,,,,,,,199636,19,2022-01-29_14h22.37.298,lexical_decision_task_DD_L5,2021.2.3,MacIntel,59.84082341,,,,,,,,,,,,0.7669,1,,,,,,,,,,,,,,,,,,,,,,,,0.182920939,-0.177903985,0,0,0,,,,,,,SQUARE,HB,z,y,./images/SQUAREHB.png,,,,,,,z,1,0.7669,,,,,,,,0,12,12,90,1
,,,,,,,,,,,,,,,,,199636,19,2022-01-29_14h22.37.298,lexical_decision_task_DD_L5,2021.2.3,MacIntel,59.84082341,,,,,,,,,,,,1.7532,0,,,,,,,,,,,,,,,,,,,,,,,,0.182920939,-0.177903985,0,0,0,,,,,,,STORM,HB,z,y,./images/STORMHB.png,,,,,,,m,0,1.7532,,,,,,,,0,13,13,114,1
,,,,,,,,,,,,,,,,,199636,19,2022-01-29_14h22.37.298,lexical_decision_task_DD_L5,2021.2.3,MacIntel,59.84082341,,,,,,,,,,,,1.0225,0,,,,,,,,,,,,,,,,,,,,,,,,0.182920939,-0.177903985,0,0,0,,,,,,,COOKER,HB,z,y,./images/COOKERHB.png,,,,,,,m,0,1.0225,,,,,,,,0,14,14,153,1
,,,,,,,,,,,,,,,,,199636,19,2022-01-29_14h22.37.298,lexical_decision_task_DD_L5,2021.2.3,MacIntel,59.84082341,,,,,,,,,,,,0.6155,1,,,,,,,,,,,,,,,,,,,,,,,,0.182920939,-0.177903985,0,0,0,,,,,,,STEAK,LB,m,y,./images/STEAKLB.png,,,,,,,m,1,0.6155,,,,,,,,0,15,15,31,1
,,,,,,,,,,,,,,,,,199636,19,2022-01-29_14h22.37.298,lexical_decision_task_DD_L5,2021.2.3,MacIntel,59.84082341,,,,,,,,,,,,0.7582,0,,,,,,,,,,,,,,,,,,,,,,,,0.182920939,-0.177903985,0,0,0,,,,,,,GLOVE,LB,m,y,./images/GLOVELB.png,,,,,,,z,0,0.7582,,,,,,,,0,16,16,73,1
,,,,,,,,,,,,,,,,,199636,19,2022-01-29_14h22.37.298,lexical_decision_task_DD_L5,2021.2.3,MacIntel,59.84082341,,,,,,,,,,,,0.6508,1,,,,,,,,,,,,,,,,,,,,,,,,0.182920939,-0.177903985,0,0,0,,,,,,,TIGER,LB,m,y,./images/TIGERLB.png,,,,,,,m,1,0.6508,,,,,,,,0,17,17,37,1
,,,,,,,,,,,,,,,,,199636,19,2022-01-29_14h22.37.298,lexical_decision_task_DD_L5,2021.2.3,MacIntel,59.84082341,,,,,,,,,,,,0.8231,1,,,,,,,,,,,,,,,,,,,,,,,,0.182920939,-0.177903985,0,0,0,,,,,,,COUCH,C,z,y,./images/COUCH.png,,,,,,,z,1,0.8231,,,,,,,,0,18,18,161,1
,,,,,,,,,,,,,,,,,199636,19,2022-01-29_14h22.37.298,lexical_decision_task_DD_L5,2021.2.3,MacIntel,59.84082341,,,,,,,,,,,,0.6887,1,,,,,,,,,,,,,,,,,,,,,,,,0.182920939,-0.177903985,0,0,0,,,,,,,PARCEL,HB,m,y,./images/PARCELHB.png,,,,,,,m,1,0.6887,,,,,,,,0,19,19,18,1
,,,,,,,,,,,,,,,,,199636,19,2022-01-29_14h22.37.298,lexical_decision_task_DD_L5,2021.2.3,MacIntel,59.84082341,,,,,,,,,,,,0.8184,1,,,,,,,,,,,,,,,,,,,,,,,,0.182920939,-0.177903985,0,0,0,,,,,,,RAZOR,LB,m,y,./images/RAZORLB.png,,,,,,,m,1,0.8184,,,,,,,,0,20,20,34,1
,,,,,,,,,,,,,,,,,199636,19,2022-01-29_14h22.37.298,lexical_decision_task_DD_L5,2021.2.3,MacIntel,59.84082341,,,,,,,,,,,,0.7997,1,,,,,,,,,,,,,,,,,,,,,,,,0.182920939,-0.177903985,0,0,0,,,,,,,MUSCLE,LB,z,y,./images/MUSCLELB.png,,,,,,,z,1,0.7997,,,,,,,,0,21,21,88,1
,,,,,,,,,,,,,,,,,199636,19,2022-01-29_14h22.37.298,lexical_decision_task_DD_L5,2021.2.3,MacIntel,59.84082341,,,,,,,,,,,,1.1353,0,,,,,,,,,,,,,,,,,,,,,,,,0.182920939,-0.177903985,0,0,0,,,,,,,SCREW,HB,z,y,./images/SCREWHB.png,,,,,,,m,0,1.1353,,,,,,,,0,22,22,108,1
,,,,,,,,,,,,,,,,,199636,19,2022-01-29_14h22.37.298,lexical_decision_task_DD_L5,2021.2.3,MacIntel,59.84082341,,,,,,,,,,,,0.8676,1,,,,,,,,,,,,,,,,,,,,,,,,0.182920939,-0.177903985,0,0,0,,,,,,,INFANT,LB,z,y,./images/INFANTLB.png,,,,,,,z,1,0.8676,,,,,,,,0,23,23,160,1
,,,,,,,,,,,,,,,,,199636,19,2022-01-29_14h22.37.298,lexical_decision_task_DD_L5,2021.2.3,MacIntel,59.84082341,,,,,,,,,,,,0.7339,1,,,,,,,,,,,,,,,,,,,,,,,,0.182920939,-0.177903985,0,0,0,,,,,,,SHIELD,HB,m,y,./images/SHIELDHB.png,,,,,,,m,1,0.7339,,,,,,,,0,24,24,48,1
,,,,,,,,,,,,,,,,,199636,19,2022-01-29_14h22.37.298,lexical_decision_task_DD_L5,2021.2.3,MacIntel,59.84082341,,,,,,,,,,,,0.7507,1,,,,,,,,,,,,,,,,,,,,,,,,0.182920939,-0.177903985,0,0,0,,,,,,,ALLEY,LB,m,y,./images/ALLEYLB.png,,,,,,,m,1,0.7507,,,,,,,,0,25,25,55,1
,,,,,,,,,,,,,,,,,199636,19,2022-01-29_14h22.37.298,lexical_decision_task_DD_L5,2021.2.3,MacIntel,59.84082341,,,,,,,,,,,,2.4964,1,,,,,,,,,,,,,,,,,,,,,,,,0.182920939,-0.177903985,0,0,0,,,,,,,FENCE,C,m,y,./images/FENCE.png,,,,,,,m,1,2.4964,,,,,,,,0,26,26,14,1
,,,,,,,,,,,,,,,,,199636,19,2022-01-29_14h22.37.298,lexical_decision_task_DD_L5,2021.2.3,MacIntel,59.84082341,,,,,,,,,,,,0.9913,1,,,,,,,,,,,,,,,,,,,,,,,,0.182920939,-0.177903985,0,0,0,,,,,,,PICKLE,C,z,y,./images/PICKLE.png,,,,,,,z,1,0.9913,,,,,,,,0,27,27,98,1
,,,,,,,,,,,,,,,,,199636,19,2022-01-29_14h22.37.298,lexical_decision_task_DD_L5,2021.2.3,MacIntel,59.84082341,,,,,,,,,,,,0.7015,1,,,,,,,,,,,,,,,,,,,,,,,,0.182920939,-0.177903985,0,0,0,,,,,,,DIVER,HB,m,y,./images/DIVERHB.png,,,,,,,m,1,0.7015,,,,,,,,0,28,28,9,1
,,,,,,,,,,,,,,,,,199636,19,2022-01-29_14h22.37.298,lexical_decision_task_DD_L5,2021.2.3,MacIntel,59.84082341,,,,,,,,,,,,0.8285,1,,,,,,,,,,,,,,,,,,,,,,,,0.182920939,-0.177903985,0,0,0,,,,,,,SMOKER,C,z,y,./images/SMOKER.png,,,,,,,z,1,0.8285,,,,,,,,0,29,29,110,1
,,,,,,,,,,,,,,,,,199636,19,2022-01-29_14h22.37.298,lexical_decision_task_DD_L5,2021.2.3,MacIntel,59.84082341,,,,,,,,,,,,1.5271,0,,,,,,,,,,,,,,,,,,,,,,,,0.182920939,-0.177903985,0,0,0,,,,,,,PEBBLE,LB,m,y,./images/PEBBLELB.png,,,,,,,z,0,1.5271,,,,,,,,0,30,30,82,1
,,,,,,,,,,,,,,,,,199636,19,2022-01-29_14h22.37.298,lexical_decision_task_DD_L5,2021.2.3,MacIntel,59.84082341,,,,,,,,,,,,1.018,1,,,,,,,,,,,,,,,,,,,,,,,,0.182920939,-0.177903985,0,0,0,,,,,,,TWINS,HB,z,y,./images/TWINSHB.png,,,,,,,z,1,1.018,,,,,,,,0,31,31,144,1
,,,,,,,,,,,,,,,,,199636,19,2022-01-29_14h22.37.298,lexical_decision_task_DD_L5,2021.2.3,MacIntel,59.84082341,,,,,,,,,,,,0.6012,1,,,,,,,,,,,,,,,,,,,,,,,,0.182920939,-0.177903985,0,0,0,,,,,,,BRIDE,LB,m,y,./images/BRIDELB.png,,,,,,,m,1,0.6012,,,,,,,,0,32,32,64,1
,,,,,,,,,,,,,,,,,199636,19,2022-01-29_14h22.37.298,lexical_decision_task_DD_L5,2021.2.3,MacIntel,59.84082341,,,,,,,,,,,,2.1412,1,,,,,,,,,,,,,,,,,,,,,,,,0.182920939,-0.177903985,0,0,0,,,,,,,SKIING,C,z,y,./images/SKIING.png,,,,,,,z,1,2.1412,,,,,,,,0,33,33,101,1
,,,,,,,,,,,,,,,,,199636,19,2022-01-29_14h22.37.298,lexical_decision_task_DD_L5,2021.2.3,MacIntel,59.84082341,,,,,,,,,,,,0.9569,1,,,,,,,,,,,,,,,,,,,,,,,,0.182920939,-0.177903985,0,0,0,,,,,,,BUBBLE,C,m,y,./images/BUBBLE.png,,,,,,,m,1,0.9569,,,,,,,,0,34,34,71,1
,,,,,,,,,,,,,,,,,199636,19,2022-01-29_14h22.37.298,lexical_decision_task_DD_L5,2021.2.3,MacIntel,59.84082341,,,,,,,,,,,,1.2069,1,,,,,,,,,,,,,,,,,,,,,,,,0.182920939,-0.177903985,0,0,0,,,,,,,CLOWN,LB,m,y,./images/CLOWNLB.png,,,,,,,m,1,1.2069,,,,,,,,0,35,35,22,1
,,,,,,,,,,,,,,,,,199636,19,2022-01-29_14h22.37.298,lexical_decision_task_DD_L5,2021.2.3,MacIntel,59.84082341,,,,,,,,,,,,0.7012,1,,,,,,,,,,,,,,,,,,,,,,,,0.182920939,-0.177903985,0,0,0,,,,,,,JUMPER,C,m,y,./images/JUMPER.png,,,,,,,m,1,0.7012,,,,,,,,0,36,36,74,1
,,,,,,,,,,,,,,,,,199636,19,2022-01-29_14h22.37.298,lexical_decision_task_DD_L5,2021.2.3,MacIntel,59.84082341,,,,,,,,,,,,0.5699,1,,,,,,,,,,,,,,,,,,,,,,,,0.182920939,-0.177903985,0,0,0,,,,,,,COLLAR,HB,m,y,./images/COLLARHB.png,,,,,,,m,1,0.5699,,,,,,,,0,37,37,15,1
,,,,,,,,,,,,,,,,,199636,19,2022-01-29_14h22.37.298,lexical_decision_task_DD_L5,2021.2.3,MacIntel,59.84082341,,,,,,,,,,,,1.764,0,,,,,,,,,,,,,,,,,,,,,,,,0.182920939,-0.177903985,0,0,0,,,,,,,WALNUT,HB,m,y,./images/WALNUTHB.png,,,,,,,z,0,1.764,,,,,,,,0,38,38,0,1
,,,,,,,,,,,,,,,,,199636,19,2022-01-29_14h22.37.298,lexical_decision_task_DD_L5,2021.2.3,MacIntel,59.84082341,,,,,,,,,,,,0.79,1,,,,,,,,,,,,,,,,,,,,,,,,0.182920939,-0.177903985,0,0,0,,,,,,,ATTIC,HB,z,y,./images/ATTICHB.png,,,,,,,z,1,0.79,,,,,,,,0,39,39,111,1
,,,,,,,,,,,,,,,,,199636,19,2022-01-29_14h22.37.298,lexical_decision_task_DD_L5,2021.2.3,MacIntel,59.84082341,,,,,,,,,,,,0.7846,1,,,,,,,,,,,,,,,,,,,,,,,,0.182920939,-0.177903985,0,0,0,,,,,,,SPORT,HB,z,y,./images/SPORTHB.png,,,,,,,z,1,0.7846,,,,,,,,0,40,40,132,1
,,,,,,,,,,,,,,,,,199636,19,2022-01-29_14h22.37.298,lexical_decision_task_DD_L5,2021.2.3,MacIntel,59.84082341,,,,,,,,,,,,1.2687,1,,,,,,,,,,,,,,,,,,,,,,,,0.182920939,-0.177903985,0,0,0,space,,,,,,BELLY,LB,z,y,./images/BELLYLB.png,1.6872,,,,,,z,1,1.2687,,,,,,,,0,41,41,94,1
,,,,,,,,,,,,,,,,,199636,19,2022-01-29_14h22.37.298,lexical_decision_task_DD_L5,2021.2.3,MacIntel,59.84082341,,,,,,,,,,,,0.7213,1,,,,,,,,,,,,,,,,,,,,,,,,0.182920939,-0.177903985,0,0,0,,,,,,,MUMMY,LB,m,y,./images/MUMMYLB.png,,,,,,,m,1,0.7213,,,,,,,,0,42,42,46,1
,,,,,,,,,,,,,,,,,199636,19,2022-01-29_14h22.37.298,lexical_decision_task_DD_L5,2021.2.3,MacIntel,59.84082341,,,,,,,,,,,,0.8175,1,,,,,,,,,,,,,,,,,,,,,,,,0.182920939,-0.177903985,0,0,0,,,,,,,PARADE,C,m,y,./images/PARADE.png,,,,,,,m,1,0.8175,,,,,,,,0,43,43,17,1
,,,,,,,,,,,,,,,,,199636,19,2022-01-29_14h22.37.298,lexical_decision_task_DD_L5,2021.2.3,MacIntel,59.84082341,,,,,,,,,,,,0.7845,1,,,,,,,,,,,,,,,,,,,,,,,,0.182920939,-0.177903985,0,0,0,,,,,,,MONKEY,HB,m,y,./images/MONKEYHB.png,,,,,,,m,1,0.7845,,,,,,,,0,44,44,45,1
,,,,,,,,,,,,,,,,,199636,19,2022-01-29_14h22.37.298,lexical_decision_task_DD_L5,2021.2.3,MacIntel,59.84082341,,,,,,,,,,,,0.6498,1,,,,,,,,,,,,,,,,,,,,,,,,0.182920939,-0.177903985,0,0,0,,,,,,,RULER,LB,m,y,./images/RULERLB.png,,,,,,,m,1,0.6498,,,,,,,,0,45,45,79,1
,,,,,,,,,,,,,,,,,199636,19,2022-01-29_14h22.37.298,lexical_decision_task_DD_L5,2021.2.3,MacIntel,59.84082341,,,,,,,,,,,,0.816,1,,,,,,,,,,,,,,,,,,,,,,,,0.182920939,-0.177903985,0,0,0,,,,,,,CHAIN,HB,m,y,./images/CHAINHB.png,,,,,,,m,1,0.816,,,,,,,,0,46,46,42,1
,,,,,,,,,,,,,,,,,199636,19,2022-01-29_14h22.37.298,lexical_decision_task_DD_L5,2021.2.3,MacIntel,59.84082341,,,,,,,,,,,,0.7498,1,,,,,,,,,,,,,,,,,,,,,,,,0.182920939,-0.177903985,0,0,0,,,,,,,MOSQUE,LB,z,y,./images/MOSQUELB.png,,,,,,,z,1,0.7498,,,,,,,,0,47,47,127,1
,,,,,,,,,,,,,,,,,199636,19,2022-01-29_14h22.37.298,lexical_decision_task_DD_L5,2021.2.3,MacIntel,59.84082341,,,,,,,,,,,,0.6835,1,,,,,,,,,,,,,,,,,,,,,,,,0.182920939,-0.177903985,0,0,0,,,,,,,CEMENT,C,z,y,./images/CEMENT.png,,,,,,,z,1,0.6835,,,,,,,,0,48,48,158,1
,,,,,,,,,,,,,,,,,199636,19,2022-01-29_14h22.37.298,lexical_decision_task_DD_L5,2021.2.3,MacIntel,59.84082341,,,,,,,,,,,,0.6522,1,,,,,,,,,,,,,,,,,,,,,,,,0.182920939,-0.177903985,0,0,0,,,,,,,BANANA,LB,m,y,./images/BANANALB.png,,,,,,,m,1,0.6522,,,,,,,,0,49,49,70,1
,,,,,,,,,,,,,,,,,199636,19,2022-01-29_14h22.37.298,lexical_decision_task_DD_L5,2021.2.3,MacIntel,59.84082341,,,,,,,,,,,,0.582,1,,,,,,,,,,,,,,,,,,,,,,,,0.182920939,-0.177903985,0,0,0,,,,,,,ARTIST,LB,m,y,./images/ARTISTLB.png,,,,,,,m,1,0.582,,,,,,,,0,50,50,61,1
,,,,,,,,,,,,,,,,,199636,19,2022-01-29_14h22.37.298,lexical_decision_task_DD_L5,2021.2.3,MacIntel,59.84082341,,,,,,,,,,,,0.7172,1,,,,,,,,,,,,,,,,,,,,,,,,0.182920939,-0.177903985,0,0,0,,,,,,,GRANNY,C,m,y,./images/GRANNY.png,,,,,,,m,1,0.7172,,,,,,,,0,51,51,20,1
,,,,,,,,,,,,,,,,,199636,19,2022-01-29_14h22.37.298,lexical_decision_task_DD_L5,2021.2.3,MacIntel,59.84082341,,,,,,,,,,,,0.7051,1,,,,,,,,,,,,,,,,,,,,,,,,0.182920939,-0.177903985,0,0,0,,,,,,,GARDEN,LB,m,y,./images/GARDENLB.png,,,,,,,m,1,0.7051,,,,,,,,0,52,52,10,1
,,,,,,,,,,,,,,,,,199636,19,2022-01-29_14h22.37.298,lexical_decision_task_DD_L5,2021.2.3,MacIntel,59.84082341,,,,,,,,,,,,0.8374,1,,,,,,,,,,,,,,,,,,,,,,,,0.182920939,-0.177903985,0,0,0,,,,,,,FINGER,HB,z,y,./images/FINGERHB.png,,,,,,,z,1,0.8374,,,,,,,,0,53,53,87,1
,,,,,,,,,,,,,,,,,199636,19,2022-01-29_14h22.37.298,lexical_decision_task_DD_L5,2021.2.3,MacIntel,59.84082341,,,,,,,,,,,,0.7339,1,,,,,,,,,,,,,,,,,,,,,,,,0.182920939,-0.177903985,0,0,0,,,,,,,PISTOL,C,m,y,./images/PISTOL.png,,,,,,,m,1,0.7339,,,,,,,,0,54,54,29,1
,,,,,,,,,,,,,,,,,199636,19,2022-01-29_14h22.37.298,lexical_decision_task_DD_L5,2021.2.3,MacIntel,59.84082341,,,,,,,,,,,,0.8525,1,,,,,,,,,,,,,,,,,,,,,,,,0.182920939,-0.177903985,0,0,0,,,,,,,WALRUS,C,z,y,./images/WALRUS.png,,,,,,,z,1,0.8525,,,,,,,,0,55,55,107,1
,,,,,,,,,,,,,,,,,199636,19,2022-01-29_14h22.37.298,lexical_decision_task_DD_L5,2021.2.3,MacIntel,59.84082341,,,,,,,,,,,,0.961,1,,,,,,,,,,,,,,,,,,,,,,,,0.182920939,-0.177903985,0,0,0,,,,,,,CRUMB,C,z,y,./images/CRUMB.png,,,,,,,z,1,0.961,,,,,,,,0,56,56,113,1
,,,,,,,,,,,,,,,,,199636,19,2022-01-29_14h22.37.298,lexical_decision_task_DD_L5,2021.2.3,MacIntel,59.84082341,,,,,,,,,,,,1.2203,1,,,,,,,,,,,,,,,,,,,,,,,,0.182920939,-0.177903985,0,0,0,,,,,,,MAMMAL,C,m,y,./images/MAMMAL.png,,,,,,,m,1,1.2203,,,,,,,,0,57,57,62,1
,,,,,,,,,,,,,,,,,199636,19,2022-01-29_14h22.37.298,lexical_decision_task_DD_L5,2021.2.3,MacIntel,59.84082341,,,,,,,,,,,,1.034,1,,,,,,,,,,,,,,,,,,,,,,,,0.182920939,-0.177903985,0,0,0,,,,,,,BERRY,C,z,y,./images/BERRY.png,,,,,,,z,1,1.034,,,,,,,,0,58,58,131,1
,,,,,,,,,,,,,,,,,199636,19,2022-01-29_14h22.37.298,lexical_decision_task_DD_L5,2021.2.3,MacIntel,59.84082341,,,,,,,,,,,,1.1847,1,,,,,,,,,,,,,,,,,,,,,,,,0.182920939,-0.177903985,0,0,0,,,,,,,FLASK,HB,m,y,./images/FLASKHB.png,,,,,,,m,1,1.1847,,,,,,,,0,59,59,72,1
,,,,,,,,,,,,,,,,,199636,19,2022-01-29_14h22.37.298,lexical_decision_task_DD_L5,2021.2.3,MacIntel,59.84082341,,,,,,,,,,,,0.9029,1,,,,,,,,,,,,,,,,,,,,,,,,0.182920939,-0.177903985,0,0,0,,,,,,,SUNSET,LB,z,y,./images/SUNSETLB.png,,,,,,,z,1,0.9029,,,,,,,,0,60,60,166,1
,,,,,,,,,,,,,,,,,199636,19,2022-01-29_14h22.37.298,lexical_decision_task_DD_L5,2021.2.3,MacIntel,59.84082341,,,,,,,,,,,,0.8171,0,,,,,,,,,,,,,,,,,,,,,,,,0.182920939,-0.177903985,0,0,0,,,,,,,CARPET,C,z,y,./images/CARPET.png,,,,,,,m,0,0.8171,,,,,,,,0,61,61,137,1
,,,,,,,,,,,,,,,,,199636,19,2022-01-29_14h22.37.298,lexical_decision_task_DD_L5,2021.2.3,MacIntel,59.84082341,,,,,,,,,,,,0.8003,1,,,,,,,,,,,,,,,,,,,,,,,,0.182920939,-0.177903985,0,0,0,,,,,,,POKER,LB,m,y,./images/POKERLB.png,,,,,,,m,1,0.8003,,,,,,,,0,62,62,67,1
,,,,,,,,,,,,,,,,,199636,19,2022-01-29_14h22.37.298,lexical_decision_task_DD_L5,2021.2.3,MacIntel,59.84082341,,,,,,,,,,,,0.7843,1,,,,,,,,,,,,,,,,,,,,,,,,0.182920939,-0.177903985,0,0,0,,,,,,,LITTER,HB,z,y,./images/LITTERHB.png,,,,,,,z,1,0.7843,,,,,,,,0,63,63,162,1
,,,,,,,,,,,,,,,,,199636,19,2022-01-29_14h22.37.298,lexical_decision_task_DD_L5,2021.2.3,MacIntel,59.84082341,,,,,,,,,,,,0.7043,1,,,,,,,,,,,,,,,,,,,,,,,,0.182920939,-0.177903985,0,0,0,,,,,,,ARROW,HB,m,y,./images/ARROWHB.png,,,,,,,m,1,0.7043,,,,,,,,0,64,64,69,1
,,,,,,,,,,,,,,,,,199636,19,2022-01-29_14h22.37.298,lexical_decision_task_DD_L5,2021.2.3,MacIntel,59.84082341,,,,,,,,,,,,0.6697,1,,,,,,,,,,,,,,,,,,,,,,,,0.182920939,-0.177903985,0,0,0,,,,,,,RHINO,HB,z,y,./images/RHINOHB.png,,,,,,,z,1,0.6697,,,,,,,,0,65,65,93,1
,,,,,,,,,,,,,,,,,199636,19,2022-01-29_14h22.37.298,lexical_decision_task_DD_L5,2021.2.3,MacIntel,59.84082341,,,,,,,,,,,,0.7511,1,,,,,,,,,,,,,,,,,,,,,,,,0.182920939,-0.177903985,0,0,0,,,,,,,CRATER,HB,m,y,./images/CRATERHB.png,,,,,,,m,1,0.7511,,,,,,,,0,66,66,3,1
,,,,,,,,,,,,,,,,,199636,19,2022-01-29_14h22.37.298,lexical_decision_task_DD_L5,2021.2.3,MacIntel,59.84082341,,,,,,,,,,,,0.8832,1,,,,,,,,,,,,,,,,,,,,,,,,0.182920939,-0.177903985,0,0,0,,,,,,,CHERRY,HB,m,y,./images/CHERRYHB.png,,,,,,,m,1,0.8832,,,,,,,,0,67,67,54,1
,,,,,,,,,,,,,,,,,199636,19,2022-01-29_14h22.37.298,lexical_decision_task_DD_L5,2021.2.3,MacIntel,59.84082341,,,,,,,,,,,,0.8762,1,,,,,,,,,,,,,,,,,,,,,,,,0.182920939,-0.177903985,0,0,0,,,,,,,KIDNEY,HB,z,y,./images/KIDNEYHB.png,,,,,,,z,1,0.8762,,,,,,,,0,68,68,105,1
,,,,,,,,,,,,,,,,,199636,19,2022-01-29_14h22.37.298,lexical_decision_task_DD_L5,2021.2.3,MacIntel,59.84082341,,,,,,,,,,,,0.7171,1,,,,,,,,,,,,,,,,,,,,,,,,0.182920939,-0.177903985,0,0,0,,,,,,,LIZARD,C,z,y,./images/LIZARD.png,,,,,,,z,1,0.7171,,,,,,,,0,69,69,128,1
,,,,,,,,,,,,,,,,,199636,19,2022-01-29_14h22.37.298,lexical_decision_task_DD_L5,2021.2.3,MacIntel,59.84082341,,,,,,,,,,,,0.8697,1,,,,,,,,,,,,,,,,,,,,,,,,0.182920939,-0.177903985,0,0,0,,,,,,,WEASEL,C,z,y,./images/WEASEL.png,,,,,,,z,1,0.8697,,,,,,,,0,70,70,164,1
,,,,,,,,,,,,,,,,,199636,19,2022-01-29_14h22.37.298,lexical_decision_task_DD_L5,2021.2.3,MacIntel,59.84082341,,,,,,,,,,,,0.9207,0,,,,,,,,,,,,,,,,,,,,,,,,0.182920939,-0.177903985,0,0,0,,,,,,,WHEEL,C,m,y,./images/WHEEL.png,,,,,,,z,0,0.9207,,,,,,,,0,71,71,77,1
,,,,,,,,,,,,,,,,,199636,19,2022-01-29_14h22.37.298,lexical_decision_task_DD_L5,2021.2.3,MacIntel,59.84082341,,,,,,,,,,,,1.0256,1,,,,,,,,,,,,,,,,,,,,,,,,0.182920939,-0.177903985,0,0,0,,,,,,,TOWEL,LB,m,y,./images/TOWELLB.png,,,,,,,m,1,1.0256,,,,,,,,0,72,72,1,1
,,,,,,,,,,,,,,,,,199636,19,2022-01-29_14h22.37.298,lexical_decision_task_DD_L5,2021.2.3,MacIntel,59.84082341,,,,,,,,,,,,0.6499,1,,,,,,,,,,,,,,,,,,,,,,,,0.182920939,-0.177903985,0,0,0,,,,,,,FLESH,HB,m,y,./images/FLESHHB.png,,,,,,,m,1,0.6499,,,,,,,,0,73,73,24,1
,,,,,,,,,,,,,,,,,199636,19,2022-01-29_14h22.37.298,lexical_decision_task_DD_L5,2021.2.3,MacIntel,59.84082341,,,,,,,,,,,,0.6995,1,,,,,,,,,,,,,,,,,,,,,,,,0.182920939,-0.177903985,0,0,0,,,,,,,PASTA,C,z,y,./images/PASTA.png,,,,,,,z,1,0.6995,,,,,,,,0,74,74,89,1
,,,,,,,,,,,,,,,,,199636,19,2022-01-29_14h22.37.298,lexical_decision_task_DD_L5,2021.2.3,MacIntel,59.84082341,,,,,,,,,,,,0.7156,1,,,,,,,,,,,,,,,,,,,,,,,,0.182920939,-0.177903985,0,0,0,,,,,,,BUTTER,HB,m,y,./images/BUTTERHB.png,,,,,,,m,1,0.7156,,,,,,,,0,75,75,27,1
,,,,,,,,,,,,,,,,,199636,19,2022-01-29_14h22.37.298,lexical_decision_task_DD_L5,2021.2.3,MacIntel,59.84082341,,,,,,,,,,,,0.6859,1,,,,,,,,,,,,,,,,,,,,,,,,0.182920939,-0.177903985,0,0,0,,,,,,,DANCER,HB,m,y,./images/DANCERHB.png,,,,,,,m,1,0.6859,,,,,,,,0,76,76,21,1
,,,,,,,,,,,,,,,,,199636,19,2022-01-29_14h22.37.298,lexical_decision_task_DD_L5,2021.2.3,MacIntel,59.84082341,,,,,,,,,,,,0.6851,1,,,,,,,,,,,,,,,,,,,,,,,,0.182920939,-0.177903985,0,0,0,,,,,,,VALLEY,C,m,y,./images/VALLEY.png,,,,,,,m,1,0.6851,,,,,,,,0,77,77,68,1
,,,,,,,,,,,,,,,,,199636,19,2022-01-29_14h22.37.298,lexical_decision_task_DD_L5,2021.2.3,MacIntel,59.84082341,,,,,,,,,,,,0.9932,1,,,,,,,,,,,,,,,,,,,,,,,,0.182920939,-0.177903985,0,0,0,,,,,,,PAINT,LB,z,y,./images/PAINTLB.png,,,,,,,z,1,0.9932,,,,,,,,0,78,78,91,1
,,,,,,,,,,,,,,,,,199636,19,2022-01-29_14h22.37.298,lexical_decision_task_DD_L5,2021.2.3,MacIntel,59.84082341,,,,,,,,,,,,0.7726,1,,,,,,,,,,,,,,,,,,,,,,,,0.182920939,-0.177903985,0,0,0,,,,,,,CANDLE,LB,z,y,./images/CANDLELB.png,,,,,,,z,1,0.7726,,,,,,,,0,79,79,145,1
,,,,,,,,,,,,,,,,,199636,19,2022-01-29_14h22.37.298,lexical_decision_task_DD_L5,2021.2.3,MacIntel,59.84082341,,,,,,,,,,,,0.9447,1,,,,,,,,,,,,,,,,,,,,,,,,0.182920939,-0.177903985,0,0,0,,,,,,,JUNGLE,C,z,y,./images/JUNGLE.png,,,,,,,z,1,0.9447,,,,,,,,0,80,80,167,1
,,,,,,,,,,,,,,,,,199636,19,2022-01-29_14h22.37.298,lexical_decision_task_DD_L5,2021.2.3,MacIntel,59.84082341,,,,,,,,,,,,1.0688,0,,,,,,,,,,,,,,,,,,,,,,,,0.182920939,-0.177903985,0,0,0,,,,,,,GRAIN,HB,z,y,./images/GRAINHB.png,,,,,,,m,0,1.0688,,,,,,,,0,81,81,159,1
,,,,,,,,,,,,,,,,,199636,19,2022-01-29_14h22.37.298,lexical_decision_task_DD_L5,2021.2.3,MacIntel,59.84082341,,,,,,,,,,,,1.339,1,,,,,,,,,,,,,,,,,,,,,,,,0.182920939,-0.177903985,0,0,0,,,,,,,PACKET,C,z,y,./images/PACKET.png,,,,,,,z,1,1.339,,,,,,,,0,82,82,140,1
,,,,,,,,,,,,,,,,,199636,19,2022-01-29_14h22.37.298,lexical_decision_task_DD_L5,2021.2.3,MacIntel,59.84082341,,,,,,,,,,,,0.9618,1,,,,,,,,,,,,,,,,,,,,,,,,0.182920939,-0.177903985,0,0,0,space,,,,,,STAIN,HB,m,y,./images/STAINHB.png,1.7051,,,,,,m,1,0.9618,,,,,,,,0,83,83,6,1
,,,,,,,,,,,,,,,,,199636,19,2022-01-29_14h22.37.298,lexical_decision_task_DD_L5,2021.2.3,MacIntel,59.84082341,,,,,,,,,,,,1.2206,0,,,,,,,,,,,,,,,,,,,,,,,,0.182920939,-0.177903985,0,0,0,,,,,,,SPINE,C,m,y,./images/SPINE.png,,,,,,,z,0,1.2206,,,,,,,,0,84,84,65,1
,,,,,,,,,,,,,,,,,199636,19,2022-01-29_14h22.37.298,lexical_decision_task_DD_L5,2021.2.3,MacIntel,59.84082341,,,,,,,,,,,,0.7402,1,,,,,,,,,,,,,,,,,,,,,,,,0.182920939,-0.177903985,0,0,0,,,,,,,WRIST,LB,z,y,./images/WRISTLB.png,,,,,,,z,1,0.7402,,,,,,,,0,85,85,109,1
,,,,,,,,,,,,,,,,,199636,19,2022-01-29_14h22.37.298,lexical_decision_task_DD_L5,2021.2.3,MacIntel,59.84082341,,,,,,,,,,,,0.6496,1,,,,,,,,,,,,,,,,,,,,,,,,0.182920939,-0.177903985,0,0,0,,,,,,,CANDY,HB,m,y,./images/CANDYHB.png,,,,,,,m,1,0.6496,,,,,,,,0,86,86,39,1
,,,,,,,,,,,,,,,,,199636,19,2022-01-29_14h22.37.298,lexical_decision_task_DD_L5,2021.2.3,MacIntel,59.84082341,,,,,,,,,,,,0.6374,0,,,,,,,,,,,,,,,,,,,,,,,,0.182920939,-0.177903985,0,0,0,,,,,,,BEARD,C,z,y,./images/BEARD.png,,,,,,,m,0,0.6374,,,,,,,,0,87,87,86,1
,,,,,,,,,,,,,,,,,199636,19,2022-01-29_14h22.37.298,lexical_decision_task_DD_L5,2021.2.3,MacIntel,59.84082341,,,,,,,,,,,,0.7176,0,,,,,,,,,,,,,,,,,,,,,,,,0.182920939,-0.177903985,0,0,0,,,,,,,JELLY,LB,z,y,./images/JELLYLB.png,,,,,,,m,0,0.7176,,,,,,,,0,88,88,148,1
,,,,,,,,,,,,,,,,,199636,19,2022-01-29_14h22.37.298,lexical_decision_task_DD_L5,2021.2.3,MacIntel,59.84082341,,,,,,,,,,,,1.5699,0,,,,,,,,,,,,,,,,,,,,,,,,0.182920939,-0.177903985,0,0,0,,,,,,,GREASE,HB,z,y,./images/GREASEHB.png,,,,,,,m,0,1.5699,,,,,,,,0,89,89,99,1
,,,,,,,,,,,,,,,,,199636,19,2022-01-29_14h22.37.298,lexical_decision_task_DD_L5,2021.2.3,MacIntel,59.84082341,,,,,,,,,,,,0.7835,1,,,,,,,,,,,,,,,,,,,,,,,,0.182920939,-0.177903985,0,0,0,,,,,,,DRILL,HB,m,y,./images/DRILLHB.png,,,,,,,m,1,0.7835,,,,,,,,0,90,90,81,1
,,,,,,,,,,,,,,,,,199636,19,2022-01-29_14h22.37.298,lexical_decision_task_DD_L5,2021.2.3,MacIntel,59.84082341,,,,,,,,,,,,0.6434,1,,,,,,,,,,,,,,,,,,,,,,,,0.182920939,-0.177903985,0,0,0,,,,,,,TRIPOD,HB,z,y,./images/TRIPODHB.png,,,,,,,z,1,0.6434,,,,,,,,0,91,91,138,1
,,,,,,,,,,,,,,,,,199636,19,2022-01-29_14h22.37.298,lexical_decision_task_DD_L5,2021.2.3,MacIntel,59.84082341,,,,,,,,,,,,0.6244,1,,,,,,,,,,,,,,,,,,,,,,,,0.182920939,-0.177903985,0,0,0,,,,,,,URINE,LB,z,y,./images/URINELB.png,,,,,,,z,1,0.6244,,,,,,,,0,92,92,154,1
,,,,,,,,,,,,,,,,,199636,19,2022-01-29_14h22.37.298,lexical_decision_task_DD_L5,2021.2.3,MacIntel,59.84082341,,,,,,,,,,,,0.8357,1,,,,,,,,,,,,,,,,,,,,,,,,0.182920939,-0.177903985,0,0,0,,,,,,,FALCON,LB,z,y,./images/FALCONLB.png,,,,,,,z,1,0.8357,,,,,,,,0,93,93,112,1
,,,,,,,,,,,,,,,,,199636,19,2022-01-29_14h22.37.298,lexical_decision_task_DD_L5,2021.2.3,MacIntel,59.84082341,,,,,,,,,,,,0.8666,1,,,,,,,,,,,,,,,,,,,,,,,,0.182920939,-0.177903985,0,0,0,,,,,,,PURSE,C,z,y,./images/PURSE.png,,,,,,,z,1,0.8666,,,,,,,,0,94,94,146,1
,,,,,,,,,,,,,,,,,199636,19,2022-01-29_14h22.37.298,lexical_decision_task_DD_L5,2021.2.3,MacIntel,59.84082341,,,,,,,,,,,,0.9337,1,,,,,,,,,,,,,,,,,,,,,,,,0.182920939,-0.177903985,0,0,0,,,,,,,SAUCE,HB,m,y,./images/SAUCEHB.png,,,,,,,m,1,0.9337,,,,,,,,0,95,95,51,1
,,,,,,,,,,,,,,,,,199636,19,2022-01-29_14h22.37.298,lexical_decision_task_DD_L5,2021.2.3,MacIntel,59.84082341,,,,,,,,,,,,1.1857,0,,,,,,,,,,,,,,,,,,,,,,,,0.182920939,-0.177903985,0,0,0,,,,,,,SLOPE,HB,m,y,./images/SLOPEHB.png,,,,,,,z,0,1.1857,,,,,,,,0,96,96,30,1
,,,,,,,,,,,,,,,,,199636,19,2022-01-29_14h22.37.298,lexical_decision_task_DD_L5,2021.2.3,MacIntel,59.84082341,,,,,,,,,,,,0.8018,1,,,,,,,,,,,,,,,,,,,,,,,,0.182920939,-0.177903985,0,0,0,,,,,,,PEARL,LB,z,y,./images/PEARLLB.png,,,,,,,z,1,0.8018,,,,,,,,0,97,97,130,1
,,,,,,,,,,,,,,,,,199636,19,2022-01-29_14h22.37.298,lexical_decision_task_DD_L5,2021.2.3,MacIntel,59.84082341,,,,,,,,,,,,0.617,1,,,,,,,,,,,,,,,,,,,,,,,,0.182920939,-0.177903985,0,0,0,,,,,,,PILOT,C,m,y,./images/PILOT.png,,,,,,,m,1,0.617,,,,,,,,0,98,98,50,1
,,,,,,,,,,,,,,,,,199636,19,2022-01-29_14h22.37.298,lexical_decision_task_DD_L5,2021.2.3,MacIntel,59.84082341,,,,,,,,,,,,0.9685,0,,,,,,,,,,,,,,,,,,,,,,,,0.182920939,-0.177903985,0,0,0,,,,,,,MUFFIN,LB,z,y,./images/MUFFINLB.png,,,,,,,m,0,0.9685,,,,,,,,0,99,99,139,1
,,,,,,,,,,,,,,,,,199636,19,2022-01-29_14h22.37.298,lexical_decision_task_DD_L5,2021.2.3,MacIntel,59.84082341,,,,,,,,,,,,0.6495,1,,,,,,,,,,,,,,,,,,,,,,,,0.182920939,-0.177903985,0,0,0,,,,,,,TULIP,C,z,y,./images/TULIP.png,,,,,,,z,1,0.6495,,,,,,,,0,100,100,92,1
,,,,,,,,,,,,,,,,,199636,19,2022-01-29_14h22.37.298,lexical_decision_task_DD_L5,2021.2.3,MacIntel,59.84082341,,,,,,,,,,,,0.8511,1,,,,,,,,,,,,,,,,,,,,,,,,0.182920939,-0.177903985,0,0,0,,,,,,,LLAMA,C,m,y,./images/LLAMA.png,,,,,,,m,1,0.8511,,,,,,,,0,101,101,35,1
,,,,,,,,,,,,,,,,,199636,19,2022-01-29_14h22.37.298,lexical_decision_task_DD_L5,2021.2.3,MacIntel,59.84082341,,,,,,,,,,,,0.8189,1,,,,,,,,,,,,,,,,,,,,,,,,0.182920939,-0.177903985,0,0,0,,,,,,,QUILL,LB,z,y,./images/QUILLLB.png,,,,,,,z,1,0.8189,,,,,,,,0,102,102,115,1
,,,,,,,,,,,,,,,,,199636,19,2022-01-29_14h22.37.298,lexical_decision_task_DD_L5,2021.2.3,MacIntel,59.84082341,,,,,,,,,,,,1.8211,1,,,,,,,,,,,,,,,,,,,,,,,,0.182920939,-0.177903985,0,0,0,,,,,,,STATUE,HB,m,y,./images/STATUEHB.png,,,,,,,m,1,1.8211,,,,,,,,0,103,103,66,1
,,,,,,,,,,,,,,,,,199636,19,2022-01-29_14h22.37.298,lexical_decision_task_DD_L5,2021.2.3,MacIntel,59.84082341,,,,,,,,,,,,0.8387,1,,,,,,,,,,,,,,,,,,,,,,,,0.182920939,-0.177903985,0,0,0,,,,,,,KITTEN,HB,z,y,./images/KITTENHB.png,,,,,,,z,1,0.8387,,,,,,,,0,104,104,129,1
,,,,,,,,,,,,,,,,,199636,19,2022-01-29_14h22.37.298,lexical_decision_task_DD_L5,2021.2.3,MacIntel,59.84082341,,,,,,,,,,,,1.1187,1,,,,,,,,,,,,,,,,,,,,,,,,0.182920939,-0.177903985,0,0,0,,,,,,,FOLDER,HB,z,y,./images/FOLDERHB.png,,,,,,,z,1,1.1187,,,,,,,,0,105,105,126,1
,,,,,,,,,,,,,,,,,199636,19,2022-01-29_14h22.37.298,lexical_decision_task_DD_L5,2021.2.3,MacIntel,59.84082341,,,,,,,,,,,,0.7496,0,,,,,,,,,,,,,,,,,,,,,,,,0.182920939,-0.177903985,0,0,0,,,,,,,TORCH,C,z,y,./images/TORCH.png,,,,,,,m,0,0.7496,,,,,,,,0,106,106,152,1
,,,,,,,,,,,,,,,,,199636,19,2022-01-29_14h22.37.298,lexical_decision_task_DD_L5,2021.2.3,MacIntel,59.84082341,,,,,,,,,,,,0.6333,1,,,,,,,,,,,,,,,,,,,,,,,,0.182920939,-0.177903985,0,0,0,,,,,,,BAMBOO,C,m,y,./images/BAMBOO.png,,,,,,,m,1,0.6333,,,,,,,,0,107,107,5,1
,,,,,,,,,,,,,,,,,199636,19,2022-01-29_14h22.37.298,lexical_decision_task_DD_L5,2021.2.3,MacIntel,59.84082341,,,,,,,,,,,,0.5688,0,,,,,,,,,,,,,,,,,,,,,,,,0.182920939,-0.177903985,0,0,0,,,,,,,SHELF,HB,z,y,./images/SHELFHB.png,,,,,,,m,0,0.5688,,,,,,,,0,108,108,123,1
,,,,,,,,,,,,,,,,,199636,19,2022-01-29_14h22.37.298,lexical_decision_task_DD_L5,2021.2.3,MacIntel,59.84082341,,,,,,,,,,,,0.5391,1,,,,,,,,,,,,,,,,,,,,,,,,0.182920939,-0.177903985,0,0,0,,,,,,,STOVE,C,m,y,./images/STOVE.png,,,,,,,m,1,0.5391,,,,,,,,0,109,109,2,1
,,,,,,,,,,,,,,,,,199636,19,2022-01-29_14h22.37.298,lexical_decision_task_DD_L5,2021.2.3,MacIntel,59.84082341,,,,,,,,,,,,0.6501,1,,,,,,,,,,,,,,,,,,,,,,,,0.182920939,-0.177903985,0,0,0,,,,,,,CLIFF,C,m,y,./images/CLIFF.png,,,,,,,m,1,0.6501,,,,,,,,0,110,110,8,1
,,,,,,,,,,,,,,,,,199636,19,2022-01-29_14h22.37.298,lexical_decision_task_DD_L5,2021.2.3,MacIntel,59.84082341,,,,,,,,,,,,1.118,0,,,,,,,,,,,,,,,,,,,,,,,,0.182920939,-0.177903985,0,0,0,,,,,,,SHORE,HB,z,y,./images/SHOREHB.png,,,,,,,m,0,1.118,,,,,,,,0,111,111,96,1
,,,,,,,,,,,,,,,,,199636,19,2022-01-29_14h22.37.298,lexical_decision_task_DD_L5,2021.2.3,MacIntel,59.84082341,,,,,,,,,,,,0.8015,0,,,,,,,,,,,,,,,,,,,,,,,,0.182920939,-0.177903985,0,0,0,,,,,,,HOCKEY,C,m,y,./images/HOCKEY.png,,,,,,,z,0,0.8015,,,,,,,,0,112,112,32,1
,,,,,,,,,,,,,,,,,199636,19,2022-01-29_14h22.37.298,lexical_decision_task_DD_L5,2021.2.3,MacIntel,59.84082341,,,,,,,,,,,,0.6857,1,,,,,,,,,,,,,,,,,,,,,,,,0.182920939,-0.177903985,0,0,0,,,,,,,BUNNY,LB,m,y,./images/BUNNYLB.png,,,,,,,m,1,0.6857,,,,,,,,0,113,113,13,1
,,,,,,,,,,,,,,,,,199636,19,2022-01-29_14h22.37.298,lexical_decision_task_DD_L5,2021.2.3,MacIntel,59.84082341,,,,,,,,,,,,0.6007,1,,,,,,,,,,,,,,,,,,,,,,,,0.182920939,-0.177903985,0,0,0,,,,,,,BURIAL,C,z,y,./images/BURIAL.png,,,,,,,z,1,0.6007,,,,,,,,0,114,114,143,1
,,,,,,,,,,,,,,,,,199636,19,2022-01-29_14h22.37.298,lexical_decision_task_DD_L5,2021.2.3,MacIntel,59.84082341,,,,,,,,,,,,0.6388,1,,,,,,,,,,,,,,,,,,,,,,,,0.182920939,-0.177903985,0,0,0,,,,,,,HEATER,C,m,y,./images/HEATER.png,,,,,,,m,1,0.6388,,,,,,,,0,115,115,56,1
,,,,,,,,,,,,,,,,,199636,19,2022-01-29_14h22.37.298,lexical_decision_task_DD_L5,2021.2.3,MacIntel,59.84082341,,,,,,,,,,,,1.0268,1,,,,,,,,,,,,,,,,,,,,,,,,0.182920939,-0.177903985,0,0,0,,,,,,,DESERT,LB,m,y,./images/DESERTLB.png,,,,,,,m,1,1.0268,,,,,,,,0,116,116,52,1
,,,,,,,,,,,,,,,,,199636,19,2022-01-29_14h22.37.298,lexical_decision_task_DD_L5,2021.2.3,MacIntel,59.84082341,,,,,,,,,,,,0.7505,1,,,,,,,,,,,,,,,,,,,,,,,,0.182920939,-0.177903985,0,0,0,,,,,,,DRUMS,LB,z,y,./images/DRUMSLB.png,,,,,,,z,1,0.7505,,,,,,,,0,117,117,133,1
,,,,,,,,,,,,,,,,,199636,19,2022-01-29_14h22.37.298,lexical_decision_task_DD_L5,2021.2.3,MacIntel,59.84082341,,,,,,,,,,,,0.7187,1,,,,,,,,,,,,,,,,,,,,,,,,0.182920939,-0.177903985,0,0,0,,,,,,,BASKET,C,m,y,./images/BASKET.png,,,,,,,m,1,0.7187,,,,,,,,0,118,118,44,1
,,,,,,,,,,,,,,,,,199636,19,2022-01-29_14h22.37.298,lexical_decision_task_DD_L5,2021.2.3,MacIntel,59.84082341,,,,,,,,,,,,1.285,1,,,,,,,,,,,,,,,,,,,,,,,,0.182920939,-0.177903985,0,0,0,,,,,,,DOUGH,LB,z,y,./images/DOUGHLB.png,,,,,,,z,1,1.285,,,,,,,,0,119,119,103,1
,,,,,,,,,,,,,,,,,199636,19,2022-01-29_14h22.37.298,lexical_decision_task_DD_L5,2021.2.3,MacIntel,59.84082341,,,,,,,,,,,,0.7019,1,,,,,,,,,,,,,,,,,,,,,,,,0.182920939,-0.177903985,0,0,0,,,,,,,PLANET,C,m,y,./images/PLANET.png,,,,,,,m,1,0.7019,,,,,,,,0,120,120,80,1
,,,,,,,,,,,,,,,,,199636,19,2022-01-29_14h22.37.298,lexical_decision_task_DD_L5,2021.2.3,MacIntel,59.84082341,,,,,,,,,,,,0.6524,1,,,,,,,,,,,,,,,,,,,,,,,,0.182920939,-0.177903985,0,0,0,,,,,,,BRUSH,C,m,y,./images/BRUSH.png,,,,,,,m,1,0.6524,,,,,,,,0,121,121,59,1
,,,,,,,,,,,,,,,,,199636,19,2022-01-29_14h22.37.298,lexical_decision_task_DD_L5,2021.2.3,MacIntel,59.84082341,,,,,,,,,,,,1.3894,1,,,,,,,,,,,,,,,,,,,,,,,,0.182920939,-0.177903985,0,0,0,,,,,,,PIMPLE,C,z,y,./images/PIMPLE.png,,,,,,,z,1,1.3894,,,,,,,,0,122,122,155,1
,,,,,,,,,,,,,,,,,199636,19,2022-01-29_14h22.37.298,lexical_decision_task_DD_L5,2021.2.3,MacIntel,59.84082341,,,,,,,,,,,,0.7221,1,,,,,,,,,,,,,,,,,,,,,,,,0.182920939,-0.177903985,0,0,0,,,,,,,CURRY,HB,m,y,./images/CURRYHB.png,,,,,,,m,1,0.7221,,,,,,,,0,123,123,60,1
,,,,,,,,,,,,,,,,,199636,19,2022-01-29_14h22.37.298,lexical_decision_task_DD_L5,2021.2.3,MacIntel,59.84082341,,,,,,,,,,,,0.7426,0,,,,,,,,,,,,,,,,,,,,,,,,0.182920939,-0.177903985,0,0,0,,,,,,,FERRY,HB,m,y,./images/FERRYHB.png,,,,,,,z,0,0.7426,,,,,,,,0,124,124,57,1
,,,,,,,,,,,,,,,,,199636,19,2022-01-29_14h22.37.298,lexical_decision_task_DD_L5,2021.2.3,MacIntel,59.84082341,,,,,,,,,,,,1.2358,1,,,,,,,,,,,,,,,,,,,,,,,,0.182920939,-0.177903985,0,0,0,space,,,,,,BAKER,HB,m,y,./images/BAKERHB.png,18.954,,,,,,m,1,1.2358,,,,,,,,0,125,125,63,1
,,,,,,,,,,,,,,,,,199636,19,2022-01-29_14h22.37.298,lexical_decision_task_DD_L5,2021.2.3,MacIntel,59.84082341,,,,,,,,,,,,1.5801,1,,,,,,,,,,,,,,,,,,,,,,,,0.182920939,-0.177903985,0,0,0,,,,,,,BLOKE,HB,m,y,./images/BLOKEHB.png,,,,,,,m,1,1.5801,,,,,,,,0,126,126,12,1
,,,,,,,,,,,,,,,,,199636,19,2022-01-29_14h22.37.298,lexical_decision_task_DD_L5,2021.2.3,MacIntel,59.84082341,,,,,,,,,,,,0.6646,1,,,,,,,,,,,,,,,,,,,,,,,,0.182920939,-0.177903985,0,0,0,,,,,,,HAMMER,HB,m,y,./images/HAMMERHB.png,,,,,,,m,1,0.6646,,,,,,,,0,127,127,75,1
,,,,,,,,,,,,,,,,,199636,19,2022-01-29_14h22.37.298,lexical_decision_task_DD_L5,2021.2.3,MacIntel,59.84082341,,,,,,,,,,,,0.5994,1,,,,,,,,,,,,,,,,,,,,,,,,0.182920939,-0.177903985,0,0,0,,,,,,,BROOM,HB,m,y,./images/BROOMHB.png,,,,,,,m,1,0.5994,,,,,,,,0,128,128,78,1
,,,,,,,,,,,,,,,,,199636,19,2022-01-29_14h22.37.298,lexical_decision_task_DD_L5,2021.2.3,MacIntel,59.84082341,,,,,,,,,,,,0.8848,1,,,,,,,,,,,,,,,,,,,,,,,,0.182920939,-0.177903985,0,0,0,,,,,,,BABOON,LB,z,y,./images/BABOONLB.png,,,,,,,z,1,0.8848,,,,,,,,0,129,129,142,1
,,,,,,,,,,,,,,,,,199636,19,2022-01-29_14h22.37.298,lexical_decision_task_DD_L5,2021.2.3,MacIntel,59.84082341,,,,,,,,,,,,0.5876,1,,,,,,,,,,,,,,,,,,,,,,,,0.182920939,-0.177903985,0,0,0,,,,,,,MEDAL,C,m,y,./images/MEDAL.png,,,,,,,m,1,0.5876,,,,,,,,0,130,130,11,1
,,,,,,,,,,,,,,,,,199636,19,2022-01-29_14h22.37.298,lexical_decision_task_DD_L5,2021.2.3,MacIntel,59.84082341,,,,,,,,,,,,0.8699,1,,,,,,,,,,,,,,,,,,,,,,,,0.182920939,-0.177903985,0,0,0,,,,,,,MAGGOT,HB,z,y,./images/MAGGOTHB.png,,,,,,,z,1,0.8699,,,,,,,,0,131,131,117,1
,,,,,,,,,,,,,,,,,199636,19,2022-01-29_14h22.37.298,lexical_decision_task_DD_L5,2021.2.3,MacIntel,59.84082341,,,,,,,,,,,,1.3284,1,,,,,,,,,,,,,,,,,,,,,,,,0.182920939,-0.177903985,0,0,0,,,,,,,MOOSE,HB,z,y,./images/MOOSEHB.png,,,,,,,z,1,1.3284,,,,,,,,0,132,132,141,1
,,,,,,,,,,,,,,,,,199636,19,2022-01-29_14h22.37.298,lexical_decision_task_DD_L5,2021.2.3,MacIntel,59.84082341,,,,,,,,,,,,0.6702,0,,,,,,,,,,,,,,,,,,,,,,,,0.182920939,-0.177903985,0,0,0,,,,,,,PLANK,LB,z,y,./images/PLANKLB.png,,,,,,,m,0,0.6702,,,,,,,,0,133,133,85,1
,,,,,,,,,,,,,,,,,199636,19,2022-01-29_14h22.37.298,lexical_decision_task_DD_L5,2021.2.3,MacIntel,59.84082341,,,,,,,,,,,,1.1019,1,,,,,,,,,,,,,,,,,,,,,,,,0.182920939,-0.177903985,0,0,0,,,,,,,SNACK,LB,z,y,./images/SNACKLB.png,,,,,,,z,1,1.1019,,,,,,,,0,134,134,157,1
,,,,,,,,,,,,,,,,,199636,19,2022-01-29_14h22.37.298,lexical_decision_task_DD_L5,2021.2.3,MacIntel,59.84082341,,,,,,,,,,,,0.6187,1,,,,,,,,,,,,,,,,,,,,,,,,0.182920939,-0.177903985,0,0,0,,,,,,,CHALK,LB,m,y,./images/CHALKLB.png,,,,,,,m,1,0.6187,,,,,,,,0,135,135,25,1
,,,,,,,,,,,,,,,,,199636,19,2022-01-29_14h22.37.298,lexical_decision_task_DD_L5,2021.2.3,MacIntel,59.84082341,,,,,,,,,,,,0.8065,1,,,,,,,,,,,,,,,,,,,,,,,,0.182920939,-0.177903985,0,0,0,,,,,,,POSTER,C,m,y,./images/POSTER.png,,,,,,,m,1,0.8065,,,,,,,,0,136,136,53,1
,,,,,,,,,,,,,,,,,199636,19,2022-01-29_14h22.37.298,lexical_decision_task_DD_L5,2021.2.3,MacIntel,59.84082341,,,,,,,,,,,,0.7561,1,,,,,,,,,,,,,,,,,,,,,,,,0.182920939,-0.177903985,0,0,0,,,,,,,BISHOP,LB,m,y,./images/BISHOPLB.png,,,,,,,m,1,0.7561,,,,,,,,0,137,137,49,1
,,,,,,,,,,,,,,,,,199636,19,2022-01-29_14h22.37.298,lexical_decision_task_DD_L5,2021.2.3,MacIntel,59.84082341,,,,,,,,,,,,0.7236,1,,,,,,,,,,,,,,,,,,,,,,,,0.182920939,-0.177903985,0,0,0,,,,,,,JAGUAR,HB,z,y,./images/JAGUARHB.png,,,,,,,z,1,0.7236,,,,,,,,0,138,138,102,1
,,,,,,,,,,,,,,,,,199636,19,2022-01-29_14h22.37.298,lexical_decision_task_DD_L5,2021.2.3,MacIntel,59.84082341,,,,,,,,,,,,0.7337,1,,,,,,,,,,,,,,,,,,,,,,,,0.182920939,-0.177903985,0,0,0,,,,,,,BIRTH,LB,z,y,./images/BIRTHLB.png,,,,,,,z,1,0.7337,,,,,,,,0,139,139,121,1
,,,,,,,,,,,,,,,,,199636,19,2022-01-29_14h22.37.298,lexical_decision_task_DD_L5,2021.2.3,MacIntel,59.84082341,,,,,,,,,,,,0.717,1,,,,,,,,,,,,,,,,,,,,,,,,0.182920939,-0.177903985,0,0,0,,,,,,,PEACH,C,z,y,./images/PEACH.png,,,,,,,z,1,0.717,,,,,,,,0,140,140,119,1
,,,,,,,,,,,,,,,,,199636,19,2022-01-29_14h22.37.298,lexical_decision_task_DD_L5,2021.2.3,MacIntel,59.84082341,,,,,,,,,,,,0.5328,0,,,,,,,,,,,,,,,,,,,,,,,,0.182920939,-0.177903985,0,0,0,,,,,,,BONNET,C,z,y,./images/BONNET.png,,,,,,,m,0,0.5328,,,,,,,,0,141,141,95,1
,,,,,,,,,,,,,,,,,199636,19,2022-01-29_14h22.37.298,lexical_decision_task_DD_L5,2021.2.3,MacIntel,59.84082341,,,,,,,,,,,,1.135,0,,,,,,,,,,,,,,,,,,,,,,,,0.182920939,-0.177903985,0,0,0,,,,,,,CRADLE,C,z,y,./images/CRADLE.png,,,,,,,m,0,1.135,,,,,,,,0,142,142,104,1
,,,,,,,,,,,,,,,,,199636,19,2022-01-29_14h22.37.298,lexical_decision_task_DD_L5,2021.2.3,MacIntel,59.84082341,,,,,,,,,,,,0.8675,1,,,,,,,,,,,,,,,,,,,,,,,,0.182920939,-0.177903985,0,0,0,,,,,,,CLOUD,C,m,y,./images/CLOUD.png,,,,,,,m,1,0.8675,,,,,,,,0,143,143,26,1
,,,,,,,,,,,,,,,,,199636,19,2022-01-29_14h22.37.298,lexical_decision_task_DD_L5,2021.2.3,MacIntel,59.84082341,,,,,,,,,,,,0.8498,1,,,,,,,,,,,,,,,,,,,,,,,,0.182920939,-0.177903985,0,0,0,,,,,,,BANNER,LB,z,y,./images/BANNERLB.png,,,,,,,z,1,0.8498,,,,,,,,0,144,144,136,1
,,,,,,,,,,,,,,,,,199636,19,2022-01-29_14h22.37.298,lexical_decision_task_DD_L5,2021.2.3,MacIntel,59.84082341,,,,,,,,,,,,0.6037,1,,,,,,,,,,,,,,,,,,,,,,,,0.182920939,-0.177903985,0,0,0,,,,,,,BOXER,LB,m,y,./images/BOXERLB.png,,,,,,,m,1,0.6037,,,,,,,,0,145,145,4,1
,,,,,,,,,,,,,,,,,199636,19,2022-01-29_14h22.37.298,lexical_decision_task_DD_L5,2021.2.3,MacIntel,59.84082341,,,,,,,,,,,,1.0414,0,,,,,,,,,,,,,,,,,,,,,,,,0.182920939,-0.177903985,0,0,0,,,,,,,BARREL,C,z,y,./images/BARREL.png,,,,,,,m,0,1.0414,,,,,,,,0,146,146,116,1
,,,,,,,,,,,,,,,,,199636,19,2022-01-29_14h22.37.298,lexical_decision_task_DD_L5,2021.2.3,MacIntel,59.84082341,,,,,,,,,,,,0.8681,1,,,,,,,,,,,,,,,,,,,,,,,,0.182920939,-0.177903985,0,0,0,,,,,,,LAGOON,C,m,y,./images/LAGOON.png,,,,,,,m,1,0.8681,,,,,,,,0,147,147,47,1
,,,,,,,,,,,,,,,,,199636,19,2022-01-29_14h22.37.298,lexical_decision_task_DD_L5,2021.2.3,MacIntel,59.84082341,,,,,,,,,,,,0.7621,1,,,,,,,,,,,,,,,,,,,,,,,,0.182920939,-0.177903985,0,0,0,,,,,,,WHISKY,C,m,y,./images/WHISKY.png,,,,,,,m,1,0.7621,,,,,,,,0,148,148,83,1
,,,,,,,,,,,,,,,,,199636,19,2022-01-29_14h22.37.298,lexical_decision_task_DD_L5,2021.2.3,MacIntel,59.84082341,,,,,,,,,,,,0.7532,1,,,,,,,,,,,,,,,,,,,,,,,,0.182920939,-0.177903985,0,0,0,,,,,,,SWING,LB,z,y,./images/SWINGLB.png,,,,,,,z,1,0.7532,,,,,,,,0,149,149,124,1
,,,,,,,,,,,,,,,,,199636,19,2022-01-29_14h22.37.298,lexical_decision_task_DD_L5,2021.2.3,MacIntel,59.84082341,,,,,,,,,,,,0.8166,1,,,,,,,,,,,,,,,,,,,,,,,,0.182920939,-0.177903985,0,0,0,,,,,,,DONKEY,LB,m,y,./images/DONKEYLB.png,,,,,,,m,1,0.8166,,,,,,,,0,150,150,19,1
,,,,,,,,,,,,,,,,,199636,19,2022-01-29_14h22.37.298,lexical_decision_task_DD_L5,2021.2.3,MacIntel,59.84082341,,,,,,,,,,,,0.8356,1,,,,,,,,,,,,,,,,,,,,,,,,0.182920939,-0.177903985,0,0,0,,,,,,,SAUNA,HB,m,y,./images/SAUNAHB.png,,,,,,,m,1,0.8356,,,,,,,,0,151,151,33,1
,,,,,,,,,,,,,,,,,199636,19,2022-01-29_14h22.37.298,lexical_decision_task_DD_L5,2021.2.3,MacIntel,59.84082341,,,,,,,,,,,,0.855,1,,,,,,,,,,,,,,,,,,,,,,,,0.182920939,-0.177903985,0,0,0,,,,,,,LADDER,C,z,y,./images/LADDER.png,,,,,,,z,1,0.855,,,,,,,,0,152,152,122,1
,,,,,,,,,,,,,,,,,199636,19,2022-01-29_14h22.37.298,lexical_decision_task_DD_L5,2021.2.3,MacIntel,59.84082341,,,,,,,,,,,,0.6004,1,,,,,,,,,,,,,,,,,,,,,,,,0.182920939,-0.177903985,0,0,0,,,,,,,CASINO,LB,m,y,./images/CASINOLB.png,,,,,,,m,1,0.6004,,,,,,,,0,153,153,28,1
,,,,,,,,,,,,,,,,,199636,19,2022-01-29_14h22.37.298,lexical_decision_task_DD_L5,2021.2.3,MacIntel,59.84082341,,,,,,,,,,,,1.1672,1,,,,,,,,,,,,,,,,,,,,,,,,0.182920939,-0.177903985,0,0,0,,,,,,,ONION,HB,z,y,./images/ONIONHB.png,,,,,,,z,1,1.1672,,,,,,,,0,154,154,135,1
,,,,,,,,,,,,,,,,,199636,19,2022-01-29_14h22.37.298,lexical_decision_task_DD_L5,2021.2.3,MacIntel,59.84082341,,,,,,,,,,,,1.4587,1,,,,,,,,,,,,,,,,,,,,,,,,0.182920939,-0.177903985,0,0,0,,,,,,,FARMER,C,z,y,./images/FARMER.png,,,,,,,z,1,1.4587,,,,,,,,0,155,155,149,1
,,,,,,,,,,,,,,,,,199636,19,2022-01-29_14h22.37.298,lexical_decision_task_DD_L5,2021.2.3,MacIntel,59.84082341,,,,,,,,,,,,0.9833,1,,,,,,,,,,,,,,,,,,,,,,,,0.182920939,-0.177903985,0,0,0,,,,,,,TOMATO,HB,z,y,./images/TOMATOHB.png,,,,,,,z,1,0.9833,,,,,,,,0,156,156,84,1
,,,,,,,,,,,,,,,,,199636,19,2022-01-29_14h22.37.298,lexical_decision_task_DD_L5,2021.2.3,MacIntel,59.84082341,,,,,,,,,,,,0.6669,1,,,,,,,,,,,,,,,,,,,,,,,,0.182920939,-0.177903985,0,0,0,,,,,,,BOILER,HB,m,y,./images/BOILERHB.png,,,,,,,m,1,0.6669,,,,,,,,0,157,157,36,1
,,,,,,,,,,,,,,,,,199636,19,2022-01-29_14h22.37.298,lexical_decision_task_DD_L5,2021.2.3,MacIntel,59.84082341,,,,,,,,,,,,0.7835,1,,,,,,,,,,,,,,,,,,,,,,,,0.182920939,-0.177903985,0,0,0,,,,,,,SNAKE,LB,m,y,./images/SNAKELB.png,,,,,,,m,1,0.7835,,,,,,,,0,158,158,40,1
,,,,,,,,,,,,,,,,,199636,19,2022-01-29_14h22.37.298,lexical_decision_task_DD_L5,2021.2.3,MacIntel,59.84082341,,,,,,,,,,,,0.736,1,,,,,,,,,,,,,,,,,,,,,,,,0.182920939,-0.177903985,0,0,0,,,,,,,NOOSE,HB,z,y,./images/NOOSEHB.png,,,,,,,z,1,0.736,,,,,,,,0,159,159,156,1
,,,,,,,,,,,,,,,,,199636,19,2022-01-29_14h22.37.298,lexical_decision_task_DD_L5,2021.2.3,MacIntel,59.84082341,,,,,,,,,,,,1.9364,1,,,,,,,,,,,,,,,,,,,,,,,,0.182920939,-0.177903985,0,0,0,,,,,,,STOOL,LB,m,y,./images/STOOLLB.png,,,,,,,m,1,1.9364,,,,,,,,0,160,160,43,1
,,,,,,,,,,,,,,,,,199636,19,2022-01-29_14h22.37.298,lexical_decision_task_DD_L5,2021.2.3,MacIntel,59.84082341,,,,,,,,,,,,0.8837,1,,,,,,,,,,,,,,,,,,,,,,,,0.182920939,-0.177903985,0,0,0,,,,,,,MELON,LB,z,y,./images/MELONLB.png,,,,,,,z,1,0.8837,,,,,,,,0,161,161,106,1
,,,,,,,,,,,,,,,,,199636,19,2022-01-29_14h22.37.298,lexical_decision_task_DD_L5,2021.2.3,MacIntel,59.84082341,,,,,,,,,,,,3.1599,1,,,,,,,,,,,,,,,,,,,,,,,,0.182920939,-0.177903985,0,0,0,,,,,,,THROAT,HB,z,y,./images/THROATHB.png,,,,,,,z,1,3.1599,,,,,,,,0,162,162,120,1
,,,,,,,,,,,,,,,,,199636,19,2022-01-29_14h22.37.298,lexical_decision_task_DD_L5,2021.2.3,MacIntel,59.84082341,,,,,,,,,,,,1.6088,1,,,,,,,,,,,,,,,,,,,,,,,,0.182920939,-0.177903985,0,0,0,,,,,,,MOTOR,LB,z,y,./images/MOTORLB.png,,,,,,,z,1,1.6088,,,,,,,,0,163,163,97,1
,,,,,,,,,,,,,,,,,199636,19,2022-01-29_14h22.37.298,lexical_decision_task_DD_L5,2021.2.3,MacIntel,59.84082341,,,,,,,,,,,,0.6842,0,,,,,,,,,,,,,,,,,,,,,,,,0.182920939,-0.177903985,0,0,0,,,,,,,CANYON,LB,z,y,./images/CANYONLB.png,,,,,,,m,0,0.6842,,,,,,,,0,164,164,118,1
,,,,,,,,,,,,,,,,,199636,19,2022-01-29_14h22.37.298,lexical_decision_task_DD_L5,2021.2.3,MacIntel,59.84082341,,,,,,,,,,,,1.571,0,,,,,,,,,,,,,,,,,,,,,,,,0.182920939,-0.177903985,0,0,0,,,,,,,PENCE,LB,z,y,./images/PENCELB.png,,,,,,,m,0,1.571,,,,,,,,0,165,165,100,1
,,,,,,,,,,,,,,,,,199636,19,2022-01-29_14h22.37.298,lexical_decision_task_DD_L5,2021.2.3,MacIntel,59.84082341,,,,,,,,,,,,1.5902,0,,,,,,,,,,,,,,,,,,,,,,,,0.182920939,-0.177903985,0,0,0,,,,,,,GRAPE,LB,m,y,./images/GRAPELB.png,,,,,,,z,0,1.5902,,,,,,,,0,166,166,16,1
,,,,,,,,,,,,,,,,,199636,19,2022-01-29_14h22.37.298,lexical_decision_task_DD_L5,2021.2.3,MacIntel,59.84082341,,,,,,,,,,,,2.049,1,,,,,,,,,,,,,,,,,,,,,,,,0.182920939,-0.177903985,0,0,0,,,,,,,WAGON,LB,m,y,./images/WAGONLB.png,,,,,,,m,1,2.049,,,,,,,,0,167,167,7,1
