key_resp.keys,key_resp.rt,instr_done_touch.x,instr_done_touch.y,instr_done_touch.leftButton,instr_done_touch.midButton,instr_done_touch.rightButton,instruction_pages.thisRepN,instruction_pages.thisTrialN,instruction_pages.thisN,instruction_pages.thisIndex,instruction_pages.ran,pageN,phase,instruct_text,has_image,instruct_image,participant,age,date,expName,psychopyVersion,OS,frameRate,response.keys,response.corr,response.rt,touch_resp.x,touch_resp.y,touch_resp.leftButton,touch_resp.midButton,touch_resp.rightButton,touch_resp.time,touch_resp.clicked_name,rt,corr,practrials.thisRepN,practrials.thisTrialN,practrials.thisN,practrials.thisIndex,practrials.ran,TrialID,Target,corrAns,end_of_practice_trials_pages.thisRepN,end_of_practice_trials_pages.thisTrialN,end_of_practice_trials_pages.thisN,end_of_practice_trials_pages.thisIndex,end_of_practice_trials_pages.ran,key_resp_2.keys,key_resp_2.corr,key_resp_2.rt,targ_click.x,targ_click.y,targ_click.leftButton,targ_click.midButton,targ_click.rightButton,targ_click.time,targ_click.clicked_name,break_done_touch.x,break_done_touch.y,break_done_touch.leftButton,break_done_touch.midButton,break_done_touch.rightButton,break_done_keyboard.keys,maintrials.thisRepN,maintrials.thisTrialN,maintrials.thisN,maintrials.thisIndex,maintrials.ran,string,blur,study,lex,stim_path,break_done_keyboard.rt,test_instructions.thisRepN,test_instructions.thisTrialN,test_instructions.thisN,test_instructions.thisIndex,test_instructions.ran,instr_done_touch.clicked_name,key_resp_3.keys,key_resp_3.corr,key_resp_3.rt,test_click.x,test_click.y,test_click.leftButton,test_click.midButton,test_click.rightButton,test_click.time,test_click.clicked_name,test_phase.thisRepN,test_phase.thisTrialN,test_phase.thisN,test_phase.thisIndex,test_phase.ran,break_done_touch.clicked_name
space,24.2229,-0.067747396,-0.466636285,0,0,0,0,0,0,0,1,1,instructions,"INSTRUCTIONS
At the start of each trial, look at the plus sign  (+) in the center of the screen.  This tells you that a trial is about to begin and where to look. Second, the plus sign will disappear and a string of letters will appear. Your task is to determine if the string of letters is a word or not. If the item is a word press the M key (on keyboard)  or touch the word button (phone/tablet).  If the item is not a word,  press the  Z key (on keyboard)  or touch the nonword button (on phone/tablet). 
Press the space bar or touch  continue.",0,,199723,18,2022-01-28_21h08.23.492,lexical_decision_task_DD_L2,2021.2.3,MacIntel,60.0024001,,,,,,,,,,,,,,,,,,,,,,,,,,,,,,,,,,,,,,,,,,,,,,,,,,,,,,,,,,,,,,,,,,,,,,,,,,
space,8.4848,-0.067747396,-0.466636285,0,0,0,0,1,1,1,1,2,instructions,"If your device has a keyboard, press the 'Z' key for nonwords and the 'M' key for words.





Press the space bar or touch the button below to continue.",0,keyboard-example.gif,199723,18,2022-01-28_21h08.23.492,lexical_decision_task_DD_L2,2021.2.3,MacIntel,60.0024001,,,,,,,,,,,,,,,,,,,,,,,,,,,,,,,,,,,,,,,,,,,,,,,,,,,,,,,,,,,,,,,,,,,,,,,,,,
space,2.7044,-0.067747396,-0.466636285,0,0,0,0,2,2,2,1,3,instructions,"If you are using a touchscreen only device, use the buttons on the screen. Do not use the mouse.





Press the space bar or touch the button below to continue.",0,touchscreen-example.gif,199723,18,2022-01-28_21h08.23.492,lexical_decision_task_DD_L2,2021.2.3,MacIntel,60.0024001,,,,,,,,,,,,,,,,,,,,,,,,,,,,,,,,,,,,,,,,,,,,,,,,,,,,,,,,,,,,,,,,,,,,,,,,,,
space,2.9684,-0.067747396,-0.466636285,0,0,0,0,3,3,3,1,4,instructions,"It is very important that you respond as quickly and accurately as possible, as each letter string will only be on the screen for two seconds. If you do not respond within this time, the message 'Too slow!' will be displayed and the experiment will progress to the next letter string. The first 20 trials will be practice trials and you will receive feedback on your answers. 

Press the space bar or touch the button below to start the practice trials.",0,,199723,18,2022-01-28_21h08.23.492,lexical_decision_task_DD_L2,2021.2.3,MacIntel,60.0024001,,,,,,,,,,,,,,,,,,,,,,,,,,,,,,,,,,,,,,,,,,,,,,,,,,,,,,,,,,,,,,,,,,,,,,,,,,
,,,,,,,,,,,,,,,,,199723,18,2022-01-28_21h08.23.492,lexical_decision_task_DD_L2,2021.2.3,MacIntel,60.0024001,z,1,5.4755,,,,,,,,5.4755,1,0,0,0,8,1,1001,ASLERT,z,,,,,,,,,,,,,,,,,,,,,,,,,,,,,,,,,,,,,,,,,,,,,,,,,,,,,,
,,,,,,,,,,,,,,,,,199723,18,2022-01-28_21h08.23.492,lexical_decision_task_DD_L2,2021.2.3,MacIntel,60.0024001,m,1,3.2124,,,,,,,,3.2124,1,0,1,1,3,1,1001,MATRIX,m,,,,,,,,,,,,,,,,,,,,,,,,,,,,,,,,,,,,,,,,,,,,,,,,,,,,,,
,,,,,,,,,,,,,,,,,199723,18,2022-01-28_21h08.23.492,lexical_decision_task_DD_L2,2021.2.3,MacIntel,60.0024001,z,1,1.6558,,,,,,,,1.6558,1,0,2,2,9,1,1001,FARINY,z,,,,,,,,,,,,,,,,,,,,,,,,,,,,,,,,,,,,,,,,,,,,,,,,,,,,,,
,,,,,,,,,,,,,,,,,199723,18,2022-01-28_21h08.23.492,lexical_decision_task_DD_L2,2021.2.3,MacIntel,60.0024001,m,1,1.9274,,,,,,,,1.9274,1,0,3,3,0,1,1001,UTOPIA,m,,,,,,,,,,,,,,,,,,,,,,,,,,,,,,,,,,,,,,,,,,,,,,,,,,,,,,
,,,,,,,,,,,,,,,,,199723,18,2022-01-28_21h08.23.492,lexical_decision_task_DD_L2,2021.2.3,MacIntel,60.0024001,m,1,1.363,,,,,,,,1.363,1,0,4,4,6,1,1001,ZOMBIE,m,,,,,,,,,,,,,,,,,,,,,,,,,,,,,,,,,,,,,,,,,,,,,,,,,,,,,,
,,,,,,,,,,,,,,,,,199723,18,2022-01-28_21h08.23.492,lexical_decision_task_DD_L2,2021.2.3,MacIntel,60.0024001,m,1,0.942,,,,,,,,0.942,1,0,5,5,1,1,1001,ADJUST,m,,,,,,,,,,,,,,,,,,,,,,,,,,,,,,,,,,,,,,,,,,,,,,,,,,,,,,
,,,,,,,,,,,,,,,,,199723,18,2022-01-28_21h08.23.492,lexical_decision_task_DD_L2,2021.2.3,MacIntel,60.0024001,m,1,0.9275,,,,,,,,0.9275,1,0,6,6,4,1,1001,SQUEAK,m,,,,,,,,,,,,,,,,,,,,,,,,,,,,,,,,,,,,,,,,,,,,,,,,,,,,,,
,,,,,,,,,,,,,,,,,199723,18,2022-01-28_21h08.23.492,lexical_decision_task_DD_L2,2021.2.3,MacIntel,60.0024001,z,1,1.0714,,,,,,,,1.0714,1,0,7,7,10,1,1001,INLADE,z,,,,,,,,,,,,,,,,,,,,,,,,,,,,,,,,,,,,,,,,,,,,,,,,,,,,,,
,,,,,,,,,,,,,,,,,199723,18,2022-01-28_21h08.23.492,lexical_decision_task_DD_L2,2021.2.3,MacIntel,60.0024001,z,1,1.3454,,,,,,,,1.3454,1,0,8,8,15,1,1001,WHAISE,z,,,,,,,,,,,,,,,,,,,,,,,,,,,,,,,,,,,,,,,,,,,,,,,,,,,,,,
,,,,,,,,,,,,,,,,,199723,18,2022-01-28_21h08.23.492,lexical_decision_task_DD_L2,2021.2.3,MacIntel,60.0024001,z,1,1.2082,,,,,,,,1.2082,1,0,9,9,14,1,1001,THRALE,z,,,,,,,,,,,,,,,,,,,,,,,,,,,,,,,,,,,,,,,,,,,,,,,,,,,,,,
,,,,,,,,,,,,,,,,,199723,18,2022-01-28_21h08.23.492,lexical_decision_task_DD_L2,2021.2.3,MacIntel,60.0024001,m,1,0.6056,,,,,,,,0.6056,1,0,10,10,2,1,1001,ALMOND,m,,,,,,,,,,,,,,,,,,,,,,,,,,,,,,,,,,,,,,,,,,,,,,,,,,,,,,
,,,,,,,,,,,,,,,,,199723,18,2022-01-28_21h08.23.492,lexical_decision_task_DD_L2,2021.2.3,MacIntel,60.0024001,z,1,0.9056,,,,,,,,0.9056,1,0,11,11,13,1,1001,ROUPET,z,,,,,,,,,,,,,,,,,,,,,,,,,,,,,,,,,,,,,,,,,,,,,,,,,,,,,,
,,,,,,,,,,,,,,,,,199723,18,2022-01-28_21h08.23.492,lexical_decision_task_DD_L2,2021.2.3,MacIntel,60.0024001,m,1,0.8985,,,,,,,,0.8985,1,0,12,12,5,1,1001,OBTAIN,m,,,,,,,,,,,,,,,,,,,,,,,,,,,,,,,,,,,,,,,,,,,,,,,,,,,,,,
,,,,,,,,,,,,,,,,,199723,18,2022-01-28_21h08.23.492,lexical_decision_task_DD_L2,2021.2.3,MacIntel,60.0024001,z,1,0.7512,,,,,,,,0.7512,1,0,13,13,12,1,1001,SPRINY,z,,,,,,,,,,,,,,,,,,,,,,,,,,,,,,,,,,,,,,,,,,,,,,,,,,,,,,
,,,,,,,,,,,,,,,,,199723,18,2022-01-28_21h08.23.492,lexical_decision_task_DD_L2,2021.2.3,MacIntel,60.0024001,m,1,0.5922,,,,,,,,0.5922,1,0,14,14,7,1,1001,VOLUME,m,,,,,,,,,,,,,,,,,,,,,,,,,,,,,,,,,,,,,,,,,,,,,,,,,,,,,,
,,,,,,,,,,,,,,,,,199723,18,2022-01-28_21h08.23.492,lexical_decision_task_DD_L2,2021.2.3,MacIntel,60.0024001,z,1,1.1912,,,,,,,,1.1912,1,0,15,15,11,1,1001,RASHET,z,,,,,,,,,,,,,,,,,,,,,,,,,,,,,,,,,,,,,,,,,,,,,,,,,,,,,,
space,2.8526,-0.053059896,-0.447751736,0,0,0,,,,,,1,end_of_practice,"You have completed the practice trials. During the experimental trials, you will not receive feedback. 
Before you begin, please ensure that you are in a comfortable and quiet location and will not be disturbed for about 15 minutes, as we cannot use your data if you do not complete all the trials. 
 When you are ready to start the experimental trials, please press space or touch the button below.",,,199723,18,2022-01-28_21h08.23.492,lexical_decision_task_DD_L2,2021.2.3,MacIntel,60.0024001,,,,,,,,,,,,,,,,,,,,,0,0,0,0,1,,,,,,,,,,,,,,,,,,,,,,,,,,,,,,,,,,,,,,,,,,,,,,,,,
,,,,,,,,,,,,,,,,,199723,18,2022-01-28_21h08.23.492,lexical_decision_task_DD_L2,2021.2.3,MacIntel,60.0024001,,,,,,,,,,,1.3417,1,,,,,,,,,,,,,,z,1,1.3417,,,,,,,,-0.053059896,-0.447751736,0,0,0,,0,0,0,117,1,STEEG,C,old,z,./images/STEEG.png,,,,,,,,,,,,,,,,,,,,,,,
,,,,,,,,,,,,,,,,,199723,18,2022-01-28_21h08.23.492,lexical_decision_task_DD_L2,2021.2.3,MacIntel,60.0024001,,,,,,,,,,,3.6386,1,,,,,,,,,,,,,,z,1,3.6386,,,,,,,,-0.053059896,-0.447751736,0,0,0,,0,1,1,112,1,MYING,HB,old,z,./images/MYINGHB.png,,,,,,,,,,,,,,,,,,,,,,,
,,,,,,,,,,,,,,,,,199723,18,2022-01-28_21h08.23.492,lexical_decision_task_DD_L2,2021.2.3,MacIntel,60.0024001,,,,,,,,,,,0.9663,1,,,,,,,,,,,,,,m,1,0.9663,,,,,,,,-0.053059896,-0.447751736,0,0,0,,0,2,2,81,1,POODLE,HB,old,m,./images/POODLEHB.png,,,,,,,,,,,,,,,,,,,,,,,
,,,,,,,,,,,,,,,,,199723,18,2022-01-28_21h08.23.492,lexical_decision_task_DD_L2,2021.2.3,MacIntel,60.0024001,,,,,,,,,,,1.1434,1,,,,,,,,,,,,,,m,1,1.1434,,,,,,,,-0.053059896,-0.447751736,0,0,0,,0,3,3,59,1,BURIAL,C,old,m,./images/BURIAL.png,,,,,,,,,,,,,,,,,,,,,,,
,,,,,,,,,,,,,,,,,199723,18,2022-01-28_21h08.23.492,lexical_decision_task_DD_L2,2021.2.3,MacIntel,60.0024001,,,,,,,,,,,1.1209,1,,,,,,,,,,,,,,m,1,1.1209,,,,,,,,-0.053059896,-0.447751736,0,0,0,,0,4,4,74,1,CEMENT,C,old,m,./images/CEMENT.png,,,,,,,,,,,,,,,,,,,,,,,
,,,,,,,,,,,,,,,,,199723,18,2022-01-28_21h08.23.492,lexical_decision_task_DD_L2,2021.2.3,MacIntel,60.0024001,,,,,,,,,,,0.8919,1,,,,,,,,,,,,,,z,1,0.8919,,,,,,,,-0.053059896,-0.447751736,0,0,0,,0,5,5,144,1,NAIRY,C,old,z,./images/NAIRY.png,,,,,,,,,,,,,,,,,,,,,,,
,,,,,,,,,,,,,,,,,199723,18,2022-01-28_21h08.23.492,lexical_decision_task_DD_L2,2021.2.3,MacIntel,60.0024001,,,,,,,,,,,0.7222,1,,,,,,,,,,,,,,m,1,0.7222,,,,,,,,-0.053059896,-0.447751736,0,0,0,,0,6,6,0,1,TOMATO,HB,old,m,./images/TOMATOHB.png,,,,,,,,,,,,,,,,,,,,,,,
,,,,,,,,,,,,,,,,,199723,18,2022-01-28_21h08.23.492,lexical_decision_task_DD_L2,2021.2.3,MacIntel,60.0024001,,,,,,,,,,,0.6904,1,,,,,,,,,,,,,,m,1,0.6904,,,,,,,,-0.053059896,-0.447751736,0,0,0,,0,7,7,83,1,JUNGLE,C,old,m,./images/JUNGLE.png,,,,,,,,,,,,,,,,,,,,,,,
,,,,,,,,,,,,,,,,,199723,18,2022-01-28_21h08.23.492,lexical_decision_task_DD_L2,2021.2.3,MacIntel,60.0024001,,,,,,,,,,,0.6556,1,,,,,,,,,,,,,,z,1,0.6556,,,,,,,,-0.053059896,-0.447751736,0,0,0,,0,8,8,162,1,LEICH,C,old,z,./images/LEICH.png,,,,,,,,,,,,,,,,,,,,,,,
,,,,,,,,,,,,,,,,,199723,18,2022-01-28_21h08.23.492,lexical_decision_task_DD_L2,2021.2.3,MacIntel,60.0024001,,,,,,,,,,,0.578,1,,,,,,,,,,,,,,m,1,0.578,,,,,,,,-0.053059896,-0.447751736,0,0,0,,0,9,9,26,1,SMOKER,C,old,m,./images/SMOKER.png,,,,,,,,,,,,,,,,,,,,,,,
,,,,,,,,,,,,,,,,,199723,18,2022-01-28_21h08.23.492,lexical_decision_task_DD_L2,2021.2.3,MacIntel,60.0024001,,,,,,,,,,,0.7973,1,,,,,,,,,,,,,,m,1,0.7973,,,,,,,,-0.053059896,-0.447751736,0,0,0,,0,10,10,60,1,TWINS,HB,old,m,./images/TWINSHB.png,,,,,,,,,,,,,,,,,,,,,,,
,,,,,,,,,,,,,,,,,199723,18,2022-01-28_21h08.23.492,lexical_decision_task_DD_L2,2021.2.3,MacIntel,60.0024001,,,,,,,,,,,0.6963,1,,,,,,,,,,,,,,m,1,0.6963,,,,,,,,-0.053059896,-0.447751736,0,0,0,,0,11,11,25,1,WRIST,LB,old,m,./images/WRISTLB.png,,,,,,,,,,,,,,,,,,,,,,,
,,,,,,,,,,,,,,,,,199723,18,2022-01-28_21h08.23.492,lexical_decision_task_DD_L2,2021.2.3,MacIntel,60.0024001,,,,,,,,,,,0.9516,1,,,,,,,,,,,,,,m,1,0.9516,,,,,,,,-0.053059896,-0.447751736,0,0,0,,0,12,12,15,1,GREASE,HB,old,m,./images/GREASEHB.png,,,,,,,,,,,,,,,,,,,,,,,
,,,,,,,,,,,,,,,,,199723,18,2022-01-28_21h08.23.492,lexical_decision_task_DD_L2,2021.2.3,MacIntel,60.0024001,,,,,,,,,,,0.5962,1,,,,,,,,,,,,,,m,1,0.5962,,,,,,,,-0.053059896,-0.447751736,0,0,0,,0,13,13,56,1,PACKET,C,old,m,./images/PACKET.png,,,,,,,,,,,,,,,,,,,,,,,
,,,,,,,,,,,,,,,,,199723,18,2022-01-28_21h08.23.492,lexical_decision_task_DD_L2,2021.2.3,MacIntel,60.0024001,,,,,,,,,,,0.8849,1,,,,,,,,,,,,,,m,1,0.8849,,,,,,,,-0.053059896,-0.447751736,0,0,0,,0,14,14,34,1,CANYON,LB,old,m,./images/CANYONLB.png,,,,,,,,,,,,,,,,,,,,,,,
,,,,,,,,,,,,,,,,,199723,18,2022-01-28_21h08.23.492,lexical_decision_task_DD_L2,2021.2.3,MacIntel,60.0024001,,,,,,,,,,,1.008,1,,,,,,,,,,,,,,m,1,1.008,,,,,,,,-0.053059896,-0.447751736,0,0,0,,0,15,15,80,1,WEASEL,C,old,m,./images/WEASEL.png,,,,,,,,,,,,,,,,,,,,,,,
,,,,,,,,,,,,,,,,,199723,18,2022-01-28_21h08.23.492,lexical_decision_task_DD_L2,2021.2.3,MacIntel,60.0024001,,,,,,,,,,,1.0247,1,,,,,,,,,,,,,,m,1,1.0247,,,,,,,,-0.053059896,-0.447751736,0,0,0,,0,16,16,54,1,TRIPOD,HB,old,m,./images/TRIPODHB.png,,,,,,,,,,,,,,,,,,,,,,,
,,,,,,,,,,,,,,,,,199723,18,2022-01-28_21h08.23.492,lexical_decision_task_DD_L2,2021.2.3,MacIntel,60.0024001,,,,,,,,,,,0.6393,1,,,,,,,,,,,,,,m,1,0.6393,,,,,,,,-0.053059896,-0.447751736,0,0,0,,0,17,17,67,1,SAILOR,LB,old,m,./images/SAILORLB.png,,,,,,,,,,,,,,,,,,,,,,,
,,,,,,,,,,,,,,,,,199723,18,2022-01-28_21h08.23.492,lexical_decision_task_DD_L2,2021.2.3,MacIntel,60.0024001,,,,,,,,,,,0.833,1,,,,,,,,,,,,,,z,1,0.833,,,,,,,,-0.053059896,-0.447751736,0,0,0,,0,18,18,164,1,SGREW,LB,old,z,./images/SGREWLB.png,,,,,,,,,,,,,,,,,,,,,,,
,,,,,,,,,,,,,,,,,199723,18,2022-01-28_21h08.23.492,lexical_decision_task_DD_L2,2021.2.3,MacIntel,60.0024001,,,,,,,,,,,0.8196,1,,,,,,,,,,,,,,m,1,0.8196,,,,,,,,-0.053059896,-0.447751736,0,0,0,,0,19,19,18,1,JAGUAR,HB,old,m,./images/JAGUARHB.png,,,,,,,,,,,,,,,,,,,,,,,
,,,,,,,,,,,,,,,,,199723,18,2022-01-28_21h08.23.492,lexical_decision_task_DD_L2,2021.2.3,MacIntel,60.0024001,,,,,,,,,,,2.5301,0,,,,,,,,,,,,,,m,0,2.5301,,,,,,,,-0.053059896,-0.447751736,0,0,0,,0,20,20,158,1,EGECT,LB,old,z,./images/EGECTLB.png,,,,,,,,,,,,,,,,,,,,,,,
,,,,,,,,,,,,,,,,,199723,18,2022-01-28_21h08.23.492,lexical_decision_task_DD_L2,2021.2.3,MacIntel,60.0024001,,,,,,,,,,,0.6221,1,,,,,,,,,,,,,,m,1,0.6221,,,,,,,,-0.053059896,-0.447751736,0,0,0,,0,21,21,82,1,SUNSET,LB,old,m,./images/SUNSETLB.png,,,,,,,,,,,,,,,,,,,,,,,
,,,,,,,,,,,,,,,,,199723,18,2022-01-28_21h08.23.492,lexical_decision_task_DD_L2,2021.2.3,MacIntel,60.0024001,,,,,,,,,,,1.7367,1,,,,,,,,,,,,,,z,1,1.7367,,,,,,,,-0.053059896,-0.447751736,0,0,0,,0,22,22,121,1,CEERS,HB,old,z,./images/CEERSHB.png,,,,,,,,,,,,,,,,,,,,,,,
,,,,,,,,,,,,,,,,,199723,18,2022-01-28_21h08.23.492,lexical_decision_task_DD_L2,2021.2.3,MacIntel,60.0024001,,,,,,,,,,,1.0154,1,,,,,,,,,,,,,,z,1,1.0154,,,,,,,,-0.053059896,-0.447751736,0,0,0,,0,23,23,167,1,ZONET,LB,old,z,./images/ZONETLB.png,,,,,,,,,,,,,,,,,,,,,,,
,,,,,,,,,,,,,,,,,199723,18,2022-01-28_21h08.23.492,lexical_decision_task_DD_L2,2021.2.3,MacIntel,60.0024001,,,,,,,,,,,0.9835,1,,,,,,,,,,,,,,m,1,0.9835,,,,,,,,-0.053059896,-0.447751736,0,0,0,,0,24,24,12,1,SHORE,HB,old,m,./images/SHOREHB.png,,,,,,,,,,,,,,,,,,,,,,,
,,,,,,,,,,,,,,,,,199723,18,2022-01-28_21h08.23.492,lexical_decision_task_DD_L2,2021.2.3,MacIntel,60.0024001,,,,,,,,,,,0.8689,1,,,,,,,,,,,,,,z,1,0.8689,,,,,,,,-0.053059896,-0.447751736,0,0,0,,0,25,25,110,1,CRUNK,LB,old,z,./images/CRUNKLB.png,,,,,,,,,,,,,,,,,,,,,,,
,,,,,,,,,,,,,,,,,199723,18,2022-01-28_21h08.23.492,lexical_decision_task_DD_L2,2021.2.3,MacIntel,60.0024001,,,,,,,,,,,0.5673,1,,,,,,,,,,,,,,m,1,0.5673,,,,,,,,-0.053059896,-0.447751736,0,0,0,,0,26,26,64,1,JELLY,LB,old,m,./images/JELLYLB.png,,,,,,,,,,,,,,,,,,,,,,,
,,,,,,,,,,,,,,,,,199723,18,2022-01-28_21h08.23.492,lexical_decision_task_DD_L2,2021.2.3,MacIntel,60.0024001,,,,,,,,,,,0.7858,1,,,,,,,,,,,,,,m,1,0.7858,,,,,,,,-0.053059896,-0.447751736,0,0,0,,0,27,27,24,1,SCREW,HB,old,m,./images/SCREWHB.png,,,,,,,,,,,,,,,,,,,,,,,
,,,,,,,,,,,,,,,,,199723,18,2022-01-28_21h08.23.492,lexical_decision_task_DD_L2,2021.2.3,MacIntel,60.0024001,,,,,,,,,,,0.5421,1,,,,,,,,,,,,,,m,1,0.5421,,,,,,,,-0.053059896,-0.447751736,0,0,0,,0,28,28,7,1,PAINT,LB,old,m,./images/PAINTLB.png,,,,,,,,,,,,,,,,,,,,,,,
,,,,,,,,,,,,,,,,,199723,18,2022-01-28_21h08.23.492,lexical_decision_task_DD_L2,2021.2.3,MacIntel,60.0024001,,,,,,,,,,,0.7047,1,,,,,,,,,,,,,,m,1,0.7047,,,,,,,,-0.053059896,-0.447751736,0,0,0,,0,29,29,44,1,LIZARD,C,old,m,./images/LIZARD.png,,,,,,,,,,,,,,,,,,,,,,,
,,,,,,,,,,,,,,,,,199723,18,2022-01-28_21h08.23.492,lexical_decision_task_DD_L2,2021.2.3,MacIntel,60.0024001,,,,,,,,,,,2.1997,1,,,,,,,,,,,,,,z,1,2.1997,,,,,,,,-0.053059896,-0.447751736,0,0,0,,0,30,30,145,1,LAMEL,HB,old,z,./images/LAMELHB.png,,,,,,,,,,,,,,,,,,,,,,,
,,,,,,,,,,,,,,,,,199723,18,2022-01-28_21h08.23.492,lexical_decision_task_DD_L2,2021.2.3,MacIntel,60.0024001,,,,,,,,,,,1.1244,1,,,,,,,,,,,,,,z,1,1.1244,,,,,,,,-0.053059896,-0.447751736,0,0,0,,0,31,31,126,1,GUELS,C,old,z,./images/GUELS.png,,,,,,,,,,,,,,,,,,,,,,,
,,,,,,,,,,,,,,,,,199723,18,2022-01-28_21h08.23.492,lexical_decision_task_DD_L2,2021.2.3,MacIntel,60.0024001,,,,,,,,,,,2.8433,1,,,,,,,,,,,,,,z,1,2.8433,,,,,,,,-0.053059896,-0.447751736,0,0,0,,0,32,32,151,1,TINKY,HB,old,z,./images/TINKYHB.png,,,,,,,,,,,,,,,,,,,,,,,
,,,,,,,,,,,,,,,,,199723,18,2022-01-28_21h08.23.492,lexical_decision_task_DD_L2,2021.2.3,MacIntel,60.0024001,,,,,,,,,,,1.389,1,,,,,,,,,,,,,,z,1,1.389,,,,,,,,-0.053059896,-0.447751736,0,0,0,,0,33,33,85,1,CHULK,HB,old,z,./images/CHULKHB.png,,,,,,,,,,,,,,,,,,,,,,,
,,,,,,,,,,,,,,,,,199723,18,2022-01-28_21h08.23.492,lexical_decision_task_DD_L2,2021.2.3,MacIntel,60.0024001,,,,,,,,,,,0.775,1,,,,,,,,,,,,,,z,1,0.775,,,,,,,,-0.053059896,-0.447751736,0,0,0,,0,34,34,155,1,CANGY,LB,old,z,./images/CANGYLB.png,,,,,,,,,,,,,,,,,,,,,,,
,,,,,,,,,,,,,,,,,199723,18,2022-01-28_21h08.23.492,lexical_decision_task_DD_L2,2021.2.3,MacIntel,60.0024001,,,,,,,,,,,0.9086,1,,,,,,,,,,,,,,z,1,0.9086,,,,,,,,-0.053059896,-0.447751736,0,0,0,,0,35,35,123,1,SEDGE,C,old,z,./images/SEDGE.png,,,,,,,,,,,,,,,,,,,,,,,
,,,,,,,,,,,,,,,,,199723,18,2022-01-28_21h08.23.492,lexical_decision_task_DD_L2,2021.2.3,MacIntel,60.0024001,,,,,,,,,,,1.3889,1,,,,,,,,,,,,,,m,1,1.3889,,,,,,,,-0.053059896,-0.447751736,0,0,0,,0,36,36,31,1,QUILL,LB,old,m,./images/QUILLLB.png,,,,,,,,,,,,,,,,,,,,,,,
,,,,,,,,,,,,,,,,,199723,18,2022-01-28_21h08.23.492,lexical_decision_task_DD_L2,2021.2.3,MacIntel,60.0024001,,,,,,,,,,,0.733,0,,,,,,,,,,,,,,m,0,0.733,,,,,,,,-0.053059896,-0.447751736,0,0,0,,0,37,37,97,1,CHIDS,HB,old,z,./images/CHIDSHB.png,,,,,,,,,,,,,,,,,,,,,,,
,,,,,,,,,,,,,,,,,199723,18,2022-01-28_21h08.23.492,lexical_decision_task_DD_L2,2021.2.3,MacIntel,60.0024001,,,,,,,,,,,0.6546,1,,,,,,,,,,,,,,m,1,0.6546,,,,,,,,-0.053059896,-0.447751736,0,0,0,,0,38,38,32,1,BARREL,C,old,m,./images/BARREL.png,,,,,,,,,,,,,,,,,,,,,,,
,,,,,,,,,,,,,,,,,199723,18,2022-01-28_21h08.23.492,lexical_decision_task_DD_L2,2021.2.3,MacIntel,60.0024001,,,,,,,,,,,0.7163,0,,,,,,,,,,,,,,m,0,0.7163,,,,,,,,-0.053059896,-0.447751736,0,0,0,,0,39,39,90,1,NEAST,C,old,z,./images/NEAST.png,,,,,,,,,,,,,,,,,,,,,,,
,,,,,,,,,,,,,,,,,199723,18,2022-01-28_21h08.23.492,lexical_decision_task_DD_L2,2021.2.3,MacIntel,60.0024001,,,,,,,,,,,0.5024,1,,,,,,,,,,,,,,m,1,0.5024,,,,,,,,-0.053059896,-0.447751736,0,0,0,,0,40,40,13,1,MOTOR,LB,old,m,./images/MOTORLB.png,,,,,,,,,,,,,,,,,,,,,,,
,,,,,,,,,,,,,,,,,199723,18,2022-01-28_21h08.23.492,lexical_decision_task_DD_L2,2021.2.3,MacIntel,60.0024001,,,,,,,,,,,0.5234,1,,,,,,,,,,,,,,m,1,0.5234,,,,,,,,-0.053059896,-0.447751736,0,0,0,space,0,41,41,38,1,LADDER,C,old,m,./images/LADDER.png,48.8017,,,,,,,,,,,,,,,,,,,,,,
,,,,,,,,,,,,,,,,,199723,18,2022-01-28_21h08.23.492,lexical_decision_task_DD_L2,2021.2.3,MacIntel,60.0024001,,,,,,,,,,,1.9739,1,,,,,,,,,,,,,,z,1,1.9739,,,,,,,,-0.053059896,-0.447751736,0,0,0,,0,42,42,89,1,DRIEK,LB,old,z,./images/DRIEKLB.png,,,,,,,,,,,,,,,,,,,,,,,
,,,,,,,,,,,,,,,,,199723,18,2022-01-28_21h08.23.492,lexical_decision_task_DD_L2,2021.2.3,MacIntel,60.0024001,,,,,,,,,,,0.9843,1,,,,,,,,,,,,,,z,1,0.9843,,,,,,,,-0.055672743,-0.447751736,0,0,0,,0,43,43,143,1,MONGS,LB,old,z,./images/MONGSLB.png,,,,,,,,,,,,,,,,,,,,,,,
,,,,,,,,,,,,,,,,,199723,18,2022-01-28_21h08.23.492,lexical_decision_task_DD_L2,2021.2.3,MacIntel,60.0024001,,,,,,,,,,,1.7886,1,,,,,,,,,,,,,,z,1,1.7886,,,,,,,,-0.055672743,-0.447751736,0,0,0,,0,44,44,87,1,TRING,C,old,z,./images/TRING.png,,,,,,,,,,,,,,,,,,,,,,,
,,,,,,,,,,,,,,,,,199723,18,2022-01-28_21h08.23.492,lexical_decision_task_DD_L2,2021.2.3,MacIntel,60.0024001,,,,,,,,,,,1.6179,1,,,,,,,,,,,,,,z,1,1.6179,,,,,,,,-0.055672743,-0.447751736,0,0,0,,0,45,45,119,1,PAFER,LB,old,z,./images/PAFERLB.png,,,,,,,,,,,,,,,,,,,,,,,
,,,,,,,,,,,,,,,,,199723,18,2022-01-28_21h08.23.492,lexical_decision_task_DD_L2,2021.2.3,MacIntel,60.0024001,,,,,,,,,,,2.1429,1,,,,,,,,,,,,,,z,1,2.1429,,,,,,,,-0.055672743,-0.447751736,0,0,0,,0,46,46,115,1,MAWNS,HB,old,z,./images/MAWNSHB.png,,,,,,,,,,,,,,,,,,,,,,,
,,,,,,,,,,,,,,,,,199723,18,2022-01-28_21h08.23.492,lexical_decision_task_DD_L2,2021.2.3,MacIntel,60.0024001,,,,,,,,,,,0.7647,1,,,,,,,,,,,,,,m,1,0.7647,,,,,,,,-0.055672743,-0.447751736,0,0,0,,0,47,47,70,1,URINE,LB,old,m,./images/URINELB.png,,,,,,,,,,,,,,,,,,,,,,,
,,,,,,,,,,,,,,,,,199723,18,2022-01-28_21h08.23.492,lexical_decision_task_DD_L2,2021.2.3,MacIntel,60.0024001,,,,,,,,,,,0.5834,1,,,,,,,,,,,,,,m,1,0.5834,,,,,,,,-0.055672743,-0.447751736,0,0,0,,0,48,48,10,1,BELLY,LB,old,m,./images/BELLYLB.png,,,,,,,,,,,,,,,,,,,,,,,
,,,,,,,,,,,,,,,,,199723,18,2022-01-28_21h08.23.492,lexical_decision_task_DD_L2,2021.2.3,MacIntel,60.0024001,,,,,,,,,,,1.486,0,,,,,,,,,,,,,,m,0,1.486,,,,,,,,-0.055672743,-0.447751736,0,0,0,,0,49,49,135,1,JOODY,C,old,z,./images/JOODY.png,,,,,,,,,,,,,,,,,,,,,,,
,,,,,,,,,,,,,,,,,199723,18,2022-01-28_21h08.23.492,lexical_decision_task_DD_L2,2021.2.3,MacIntel,60.0024001,,,,,,,,,,,1.2008,1,,,,,,,,,,,,,,z,1,1.2008,,,,,,,,-0.055672743,-0.447751736,0,0,0,,0,50,50,161,1,BLAPS,LB,old,z,./images/BLAPSLB.png,,,,,,,,,,,,,,,,,,,,,,,
,,,,,,,,,,,,,,,,,199723,18,2022-01-28_21h08.23.492,lexical_decision_task_DD_L2,2021.2.3,MacIntel,60.0024001,,,,,,,,,,,0.8983,1,,,,,,,,,,,,,,m,1,0.8983,,,,,,,,-0.055672743,-0.447751736,0,0,0,,0,51,51,1,1,PLANK,LB,old,m,./images/PLANKLB.png,,,,,,,,,,,,,,,,,,,,,,,
,,,,,,,,,,,,,,,,,199723,18,2022-01-28_21h08.23.492,lexical_decision_task_DD_L2,2021.2.3,MacIntel,60.0024001,,,,,,,,,,,0.872,1,,,,,,,,,,,,,,z,1,0.872,,,,,,,,-0.055672743,-0.447751736,0,0,0,,0,52,52,159,1,CUDDY,C,old,z,./images/CUDDY.png,,,,,,,,,,,,,,,,,,,,,,,
,,,,,,,,,,,,,,,,,199723,18,2022-01-28_21h08.23.492,lexical_decision_task_DD_L2,2021.2.3,MacIntel,60.0024001,,,,,,,,,,,1.4149,1,,,,,,,,,,,,,,m,1,1.4149,,,,,,,,-0.055672743,-0.447751736,0,0,0,,0,53,53,50,1,MALLET,C,old,m,./images/MALLET.png,,,,,,,,,,,,,,,,,,,,,,,
,,,,,,,,,,,,,,,,,199723,18,2022-01-28_21h08.23.492,lexical_decision_task_DD_L2,2021.2.3,MacIntel,60.0024001,,,,,,,,,,,0.8857,1,,,,,,,,,,,,,,m,1,0.8857,,,,,,,,-0.055672743,-0.447751736,0,0,0,,0,54,54,43,1,MOSQUE,LB,old,m,./images/MOSQUELB.png,,,,,,,,,,,,,,,,,,,,,,,
,,,,,,,,,,,,,,,,,199723,18,2022-01-28_21h08.23.492,lexical_decision_task_DD_L2,2021.2.3,MacIntel,60.0024001,,,,,,,,,,,0.652,1,,,,,,,,,,,,,,m,1,0.652,,,,,,,,-0.055672743,-0.447751736,0,0,0,,0,55,55,28,1,FALCON,LB,old,m,./images/FALCONLB.png,,,,,,,,,,,,,,,,,,,,,,,
,,,,,,,,,,,,,,,,,199723,18,2022-01-28_21h08.23.492,lexical_decision_task_DD_L2,2021.2.3,MacIntel,60.0024001,,,,,,,,,,,0.4998,1,,,,,,,,,,,,,,m,1,0.4998,,,,,,,,-0.055672743,-0.447751736,0,0,0,,0,56,56,4,1,MUSCLE,LB,old,m,./images/MUSCLELB.png,,,,,,,,,,,,,,,,,,,,,,,
,,,,,,,,,,,,,,,,,199723,18,2022-01-28_21h08.23.492,lexical_decision_task_DD_L2,2021.2.3,MacIntel,60.0024001,,,,,,,,,,,0.7167,1,,,,,,,,,,,,,,z,1,0.7167,,,,,,,,-0.055672743,-0.447751736,0,0,0,,0,57,57,131,1,NACES,LB,old,z,./images/NACESLB.png,,,,,,,,,,,,,,,,,,,,,,,
,,,,,,,,,,,,,,,,,199723,18,2022-01-28_21h08.23.492,lexical_decision_task_DD_L2,2021.2.3,MacIntel,60.0024001,,,,,,,,,,,1.2169,1,,,,,,,,,,,,,,z,1,1.2169,,,,,,,,-0.055672743,-0.447751736,0,0,0,,0,58,58,124,1,TUNCH,HB,old,z,./images/TUNCHHB.png,,,,,,,,,,,,,,,,,,,,,,,
,,,,,,,,,,,,,,,,,199723,18,2022-01-28_21h08.23.492,lexical_decision_task_DD_L2,2021.2.3,MacIntel,60.0024001,,,,,,,,,,,2.0161,1,,,,,,,,,,,,,,z,1,2.0161,,,,,,,,-0.055672743,-0.447751736,0,0,0,,0,59,59,149,1,VEASE,LB,old,z,./images/VEASELB.png,,,,,,,,,,,,,,,,,,,,,,,
,,,,,,,,,,,,,,,,,199723,18,2022-01-28_21h08.23.492,lexical_decision_task_DD_L2,2021.2.3,MacIntel,60.0024001,,,,,,,,,,,0.7817,1,,,,,,,,,,,,,,m,1,0.7817,,,,,,,,-0.055672743,-0.447751736,0,0,0,,0,60,60,6,1,SQUARE,HB,old,m,./images/SQUAREHB.png,,,,,,,,,,,,,,,,,,,,,,,
,,,,,,,,,,,,,,,,,199723,18,2022-01-28_21h08.23.492,lexical_decision_task_DD_L2,2021.2.3,MacIntel,60.0024001,,,,,,,,,,,0.8442,0,,,,,,,,,,,,,,m,0,0.8442,,,,,,,,-0.055672743,-0.447751736,0,0,0,,0,61,61,165,1,TROWN,C,old,z,./images/TROWN.png,,,,,,,,,,,,,,,,,,,,,,,
,,,,,,,,,,,,,,,,,199723,18,2022-01-28_21h08.23.492,lexical_decision_task_DD_L2,2021.2.3,MacIntel,60.0024001,,,,,,,,,,,0.741,1,,,,,,,,,,,,,,m,1,0.741,,,,,,,,-0.055672743,-0.447751736,0,0,0,,0,62,62,23,1,WALRUS,C,old,m,./images/WALRUS.png,,,,,,,,,,,,,,,,,,,,,,,
,,,,,,,,,,,,,,,,,199723,18,2022-01-28_21h08.23.492,lexical_decision_task_DD_L2,2021.2.3,MacIntel,60.0024001,,,,,,,,,,,0.5803,1,,,,,,,,,,,,,,m,1,0.5803,,,,,,,,-0.055672743,-0.447751736,0,0,0,,0,63,63,73,1,SNACK,LB,old,m,./images/SNACKLB.png,,,,,,,,,,,,,,,,,,,,,,,
,,,,,,,,,,,,,,,,,199723,18,2022-01-28_21h08.23.492,lexical_decision_task_DD_L2,2021.2.3,MacIntel,60.0024001,,,,,,,,,,,2.2669,1,,,,,,,,,,,,,,z,1,2.2669,,,,,,,,-0.055672743,-0.447751736,0,0,0,,0,64,64,136,1,WERVE,HB,old,z,./images/WERVEHB.png,,,,,,,,,,,,,,,,,,,,,,,
,,,,,,,,,,,,,,,,,199723,18,2022-01-28_21h08.23.492,lexical_decision_task_DD_L2,2021.2.3,MacIntel,60.0024001,,,,,,,,,,,0.8718,1,,,,,,,,,,,,,,m,1,0.8718,,,,,,,,-0.055672743,-0.447751736,0,0,0,,0,65,65,9,1,RHINO,HB,old,m,./images/RHINOHB.png,,,,,,,,,,,,,,,,,,,,,,,
,,,,,,,,,,,,,,,,,199723,18,2022-01-28_21h08.23.492,lexical_decision_task_DD_L2,2021.2.3,MacIntel,60.0024001,,,,,,,,,,,0.6362,1,,,,,,,,,,,,,,m,1,0.6362,,,,,,,,-0.055672743,-0.447751736,0,0,0,,0,66,66,11,1,BONNET,C,old,m,./images/BONNET.png,,,,,,,,,,,,,,,,,,,,,,,
,,,,,,,,,,,,,,,,,199723,18,2022-01-28_21h08.23.492,lexical_decision_task_DD_L2,2021.2.3,MacIntel,60.0024001,,,,,,,,,,,2.799,1,,,,,,,,,,,,,,z,1,2.799,,,,,,,,-0.055672743,-0.447751736,0,0,0,,0,67,67,154,1,THINT,HB,old,z,./images/THINTHB.png,,,,,,,,,,,,,,,,,,,,,,,
,,,,,,,,,,,,,,,,,199723,18,2022-01-28_21h08.23.492,lexical_decision_task_DD_L2,2021.2.3,MacIntel,60.0024001,,,,,,,,,,,1.3408,1,,,,,,,,,,,,,,z,1,1.3408,,,,,,,,-0.055672743,-0.447751736,0,0,0,,0,68,68,105,1,MOKER,C,old,z,./images/MOKER.png,,,,,,,,,,,,,,,,,,,,,,,
,,,,,,,,,,,,,,,,,199723,18,2022-01-28_21h08.23.492,lexical_decision_task_DD_L2,2021.2.3,MacIntel,60.0024001,,,,,,,,,,,1.0154,1,,,,,,,,,,,,,,z,1,1.0154,,,,,,,,-0.055672743,-0.447751736,0,0,0,,0,69,69,125,1,MOOKY,LB,old,z,./images/MOOKYLB.png,,,,,,,,,,,,,,,,,,,,,,,
,,,,,,,,,,,,,,,,,199723,18,2022-01-28_21h08.23.492,lexical_decision_task_DD_L2,2021.2.3,MacIntel,60.0024001,,,,,,,,,,,1.6823,1,,,,,,,,,,,,,,z,1,1.6823,,,,,,,,0.122790799,-0.019583333,0,0,0,,0,70,70,104,1,GITTY,LB,old,z,./images/GITTYLB.png,,,,,,,,,,,,,,,,,,,,,,,
,,,,,,,,,,,,,,,,,199723,18,2022-01-28_21h08.23.492,lexical_decision_task_DD_L2,2021.2.3,MacIntel,60.0024001,,,,,,,,,,,0.5305,1,,,,,,,,,,,,,,m,1,0.5305,,,,,,,,0.122790799,-0.019583333,0,0,0,,0,71,71,71,1,PIMPLE,C,old,m,./images/PIMPLE.png,,,,,,,,,,,,,,,,,,,,,,,
,,,,,,,,,,,,,,,,,199723,18,2022-01-28_21h08.23.492,lexical_decision_task_DD_L2,2021.2.3,MacIntel,60.0024001,,,,,,,,,,,1.4675,1,,,,,,,,,,,,,,z,1,1.4675,,,,,,,,0.122790799,-0.019583333,0,0,0,,0,72,72,101,1,GLEET,LB,old,z,./images/GLEETLB.png,,,,,,,,,,,,,,,,,,,,,,,
,,,,,,,,,,,,,,,,,199723,18,2022-01-28_21h08.23.492,lexical_decision_task_DD_L2,2021.2.3,MacIntel,60.0024001,,,,,,,,,,,0.7683,1,,,,,,,,,,,,,,m,1,0.7683,,,,,,,,0.122790799,-0.019583333,0,0,0,,0,73,73,36,1,THROAT,HB,old,m,./images/THROATHB.png,,,,,,,,,,,,,,,,,,,,,,,
,,,,,,,,,,,,,,,,,199723,18,2022-01-28_21h08.23.492,lexical_decision_task_DD_L2,2021.2.3,MacIntel,60.0024001,,,,,,,,,,,3.0967,1,,,,,,,,,,,,,,z,1,3.0967,,,,,,,,0.122790799,-0.019583333,0,0,0,,0,74,74,139,1,BLEAR,HB,old,z,./images/BLEARHB.png,,,,,,,,,,,,,,,,,,,,,,,
,,,,,,,,,,,,,,,,,199723,18,2022-01-28_21h08.23.492,lexical_decision_task_DD_L2,2021.2.3,MacIntel,60.0024001,,,,,,,,,,,1.8247,0,,,,,,,,,,,,,,m,0,1.8247,,,,,,,,0.122790799,-0.019583333,0,0,0,,0,75,75,102,1,DULLE,C,old,z,./images/DULLE.png,,,,,,,,,,,,,,,,,,,,,,,
,,,,,,,,,,,,,,,,,199723,18,2022-01-28_21h08.23.492,lexical_decision_task_DD_L2,2021.2.3,MacIntel,60.0024001,,,,,,,,,,,0.671,1,,,,,,,,,,,,,,m,1,0.671,,,,,,,,0.122790799,-0.019583333,0,0,0,,0,76,76,20,1,CRADLE,C,old,m,./images/CRADLE.png,,,,,,,,,,,,,,,,,,,,,,,
,,,,,,,,,,,,,,,,,199723,18,2022-01-28_21h08.23.492,lexical_decision_task_DD_L2,2021.2.3,MacIntel,60.0024001,,,,,,,,,,,0.6879,1,,,,,,,,,,,,,,m,1,0.6879,,,,,,,,0.122790799,-0.019583333,0,0,0,,0,77,77,3,1,FINGER,HB,old,m,./images/FINGERHB.png,,,,,,,,,,,,,,,,,,,,,,,
,,,,,,,,,,,,,,,,,199723,18,2022-01-28_21h08.23.492,lexical_decision_task_DD_L2,2021.2.3,MacIntel,60.0024001,,,,,,,,,,,14.145,0,,,,,,,,,,,,,,m,0,14.145,,,,,,,,0.122790799,-0.019583333,0,0,0,,0,78,78,111,1,HOSSE,C,old,z,./images/HOSSE.png,,,,,,,,,,,,,,,,,,,,,,,
,,,,,,,,,,,,,,,,,199723,18,2022-01-28_21h08.23.492,lexical_decision_task_DD_L2,2021.2.3,MacIntel,60.0024001,,,,,,,,,,,1.1696,1,,,,,,,,,,,,,,z,1,1.1696,,,,,,,,0.122790799,-0.019583333,0,0,0,,0,79,79,103,1,FLORT,HB,old,z,./images/FLORTHB.png,,,,,,,,,,,,,,,,,,,,,,,
,,,,,,,,,,,,,,,,,199723,18,2022-01-28_21h08.23.492,lexical_decision_task_DD_L2,2021.2.3,MacIntel,60.0024001,,,,,,,,,,,0.616,1,,,,,,,,,,,,,,m,1,0.616,,,,,,,,0.122790799,-0.019583333,0,0,0,,0,80,80,76,1,INFANT,LB,old,m,./images/INFANTLB.png,,,,,,,,,,,,,,,,,,,,,,,
,,,,,,,,,,,,,,,,,199723,18,2022-01-28_21h08.23.492,lexical_decision_task_DD_L2,2021.2.3,MacIntel,60.0024001,,,,,,,,,,,0.5319,1,,,,,,,,,,,,,,m,1,0.5319,,,,,,,,0.122790799,-0.019583333,0,0,0,,0,81,81,35,1,PEACH,C,old,m,./images/PEACH.png,,,,,,,,,,,,,,,,,,,,,,,
,,,,,,,,,,,,,,,,,199723,18,2022-01-28_21h08.23.492,lexical_decision_task_DD_L2,2021.2.3,MacIntel,60.0024001,,,,,,,,,,,0.5315,1,,,,,,,,,,,,,,m,1,0.5315,,,,,,,,0.122790799,-0.019583333,0,0,0,,0,82,82,68,1,TORCH,C,old,m,./images/TORCH.png,,,,,,,,,,,,,,,,,,,,,,,
,,,,,,,,,,,,,,,,,199723,18,2022-01-28_21h08.23.492,lexical_decision_task_DD_L2,2021.2.3,MacIntel,60.0024001,,,,,,,,,,,0.5074,1,,,,,,,,,,,,,,m,1,0.5074,,,,,,,,0.122790799,-0.019583333,0,0,0,space,0,83,83,61,1,CANDLE,LB,old,m,./images/CANDLELB.png,72.4402,,,,,,,,,,,,,,,,,,,,,,
,,,,,,,,,,,,,,,,,199723,18,2022-01-28_21h08.23.492,lexical_decision_task_DD_L2,2021.2.3,MacIntel,60.0024001,,,,,,,,,,,2.6109,0,,,,,,,,,,,,,,m,0,2.6109,,,,,,,,0.122790799,-0.033867187,0,0,0,,0,84,84,163,1,GAMBA,HB,old,z,./images/GAMBAHB.png,,,,,,,,,,,,,,,,,,,,,,,
,,,,,,,,,,,,,,,,,199723,18,2022-01-28_21h08.23.492,lexical_decision_task_DD_L2,2021.2.3,MacIntel,60.0024001,,,,,,,,,,,0.6341,1,,,,,,,,,,,,,,m,1,0.6341,,,,,,,,0.122790799,-0.033867187,0,0,0,,0,85,85,21,1,KIDNEY,HB,old,m,./images/KIDNEYHB.png,,,,,,,,,,,,,,,,,,,,,,,
,,,,,,,,,,,,,,,,,199723,18,2022-01-28_21h08.23.492,lexical_decision_task_DD_L2,2021.2.3,MacIntel,60.0024001,,,,,,,,,,,0.5743,0,,,,,,,,,,,,,,m,0,0.5743,,,,,,,,0.122790799,-0.033867187,0,0,0,,0,86,86,150,1,NOOLS,C,old,z,./images/NOOLS.png,,,,,,,,,,,,,,,,,,,,,,,
,,,,,,,,,,,,,,,,,199723,18,2022-01-28_21h08.23.492,lexical_decision_task_DD_L2,2021.2.3,MacIntel,60.0024001,,,,,,,,,,,0.9154,1,,,,,,,,,,,,,,z,1,0.9154,,,,,,,,0.122790799,-0.033867187,0,0,0,,0,87,87,137,1,JOOST,LB,old,z,./images/JOOSTLB.png,,,,,,,,,,,,,,,,,,,,,,,
,,,,,,,,,,,,,,,,,199723,18,2022-01-28_21h08.23.492,lexical_decision_task_DD_L2,2021.2.3,MacIntel,60.0024001,,,,,,,,,,,0.7985,1,,,,,,,,,,,,,,m,1,0.7985,,,,,,,,0.122790799,-0.033867187,0,0,0,,0,88,88,57,1,MOOSE,HB,old,m,./images/MOOSEHB.png,,,,,,,,,,,,,,,,,,,,,,,
,,,,,,,,,,,,,,,,,199723,18,2022-01-28_21h08.23.492,lexical_decision_task_DD_L2,2021.2.3,MacIntel,60.0024001,,,,,,,,,,,0.8918,1,,,,,,,,,,,,,,z,1,0.8918,,,,,,,,0.122790799,-0.033867187,0,0,0,,0,89,89,156,1,HIXES,C,old,z,./images/HIXES.png,,,,,,,,,,,,,,,,,,,,,,,
,,,,,,,,,,,,,,,,,199723,18,2022-01-28_21h08.23.492,lexical_decision_task_DD_L2,2021.2.3,MacIntel,60.0024001,,,,,,,,,,,0.5474,1,,,,,,,,,,,,,,m,1,0.5474,,,,,,,,0.122790799,-0.033867187,0,0,0,,0,90,90,52,1,BANNER,LB,old,m,./images/BANNERLB.png,,,,,,,,,,,,,,,,,,,,,,,
,,,,,,,,,,,,,,,,,199723,18,2022-01-28_21h08.23.492,lexical_decision_task_DD_L2,2021.2.3,MacIntel,60.0024001,,,,,,,,,,,0.8888,1,,,,,,,,,,,,,,z,1,0.8888,,,,,,,,0.122790799,-0.033867187,0,0,0,,0,91,91,132,1,SCIFF,C,old,z,./images/SCIFF.png,,,,,,,,,,,,,,,,,,,,,,,
,,,,,,,,,,,,,,,,,199723,18,2022-01-28_21h08.23.492,lexical_decision_task_DD_L2,2021.2.3,MacIntel,60.0024001,,,,,,,,,,,2.2,1,,,,,,,,,,,,,,z,1,2.2,,,,,,,,0.122790799,-0.033867187,0,0,0,,0,92,92,160,1,VEETS,HB,old,z,./images/VEETSHB.png,,,,,,,,,,,,,,,,,,,,,,,
,,,,,,,,,,,,,,,,,199723,18,2022-01-28_21h08.23.492,lexical_decision_task_DD_L2,2021.2.3,MacIntel,60.0024001,,,,,,,,,,,2.5882,0,,,,,,,,,,,,,,m,0,2.5882,,,,,,,,0.122790799,-0.033867187,0,0,0,,0,93,93,142,1,PLASK,HB,old,z,./images/PLASKHB.png,,,,,,,,,,,,,,,,,,,,,,,
,,,,,,,,,,,,,,,,,199723,18,2022-01-28_21h08.23.492,lexical_decision_task_DD_L2,2021.2.3,MacIntel,60.0024001,,,,,,,,,,,1.4497,1,,,,,,,,,,,,,,m,1,1.4497,,,,,,,,0.030203993,0.342374132,0,0,0,,0,94,94,39,1,SHELF,HB,old,m,./images/SHELFHB.png,,,,,,,,,,,,,,,,,,,,,,,
,,,,,,,,,,,,,,,,,199723,18,2022-01-28_21h08.23.492,lexical_decision_task_DD_L2,2021.2.3,MacIntel,60.0024001,,,,,,,,,,,0.9008,1,,,,,,,,,,,,,,m,1,0.9008,,,,,,,,0.030203993,0.342374132,0,0,0,,0,95,95,58,1,BABOON,LB,old,m,./images/BABOONLB.png,,,,,,,,,,,,,,,,,,,,,,,
,,,,,,,,,,,,,,,,,199723,18,2022-01-28_21h08.23.492,lexical_decision_task_DD_L2,2021.2.3,MacIntel,60.0024001,,,,,,,,,,,0.7459,1,,,,,,,,,,,,,,m,1,0.7459,,,,,,,,0.030203993,0.342374132,0,0,0,,0,96,96,78,1,LITTER,HB,old,m,./images/LITTERHB.png,,,,,,,,,,,,,,,,,,,,,,,
,,,,,,,,,,,,,,,,,199723,18,2022-01-28_21h08.23.492,lexical_decision_task_DD_L2,2021.2.3,MacIntel,60.0024001,,,,,,,,,,,0.9148,1,,,,,,,,,,,,,,z,1,0.9148,,,,,,,,0.030203993,0.342374132,0,0,0,,0,97,97,146,1,MOOST,LB,old,z,./images/MOOSTLB.png,,,,,,,,,,,,,,,,,,,,,,,
,,,,,,,,,,,,,,,,,199723,18,2022-01-28_21h08.23.492,lexical_decision_task_DD_L2,2021.2.3,MacIntel,60.0024001,,,,,,,,,,,1.652,0,,,,,,,,,,,,,,m,0,1.652,,,,,,,,0.030203993,0.342374132,0,0,0,,0,98,98,134,1,TROSS,LB,old,z,./images/TROSSLB.png,,,,,,,,,,,,,,,,,,,,,,,
,,,,,,,,,,,,,,,,,199723,18,2022-01-28_21h08.23.492,lexical_decision_task_DD_L2,2021.2.3,MacIntel,60.0024001,,,,,,,,,,,0.578,1,,,,,,,,,,,,,,m,1,0.578,,,,,,,,0.030203993,0.342374132,0,0,0,,0,99,99,30,1,STORM,HB,old,m,./images/STORMHB.png,,,,,,,,,,,,,,,,,,,,,,,
,,,,,,,,,,,,,,,,,199723,18,2022-01-28_21h08.23.492,lexical_decision_task_DD_L2,2021.2.3,MacIntel,60.0024001,,,,,,,,,,,0.5194,1,,,,,,,,,,,,,,m,1,0.5194,,,,,,,,0.030203993,0.342374132,0,0,0,,0,100,100,22,1,MELON,LB,old,m,./images/MELONLB.png,,,,,,,,,,,,,,,,,,,,,,,
,,,,,,,,,,,,,,,,,199723,18,2022-01-28_21h08.23.492,lexical_decision_task_DD_L2,2021.2.3,MacIntel,60.0024001,,,,,,,,,,,0.6848,1,,,,,,,,,,,,,,z,1,0.6848,,,,,,,,0.030203993,0.342374132,0,0,0,,0,101,101,140,1,DOVET,LB,old,z,./images/DOVETLB.png,,,,,,,,,,,,,,,,,,,,,,,
,,,,,,,,,,,,,,,,,199723,18,2022-01-28_21h08.23.492,lexical_decision_task_DD_L2,2021.2.3,MacIntel,60.0024001,,,,,,,,,,,1.6753,1,,,,,,,,,,,,,,z,1,1.6753,,,,,,,,0.030203993,0.342374132,0,0,0,,0,102,102,153,1,CLUPS,C,old,z,./images/CLUPS.png,,,,,,,,,,,,,,,,,,,,,,,
,,,,,,,,,,,,,,,,,199723,18,2022-01-28_21h08.23.492,lexical_decision_task_DD_L2,2021.2.3,MacIntel,60.0024001,,,,,,,,,,,0.6215,1,,,,,,,,,,,,,,z,1,0.6215,,,,,,,,0.030203993,0.342374132,0,0,0,,0,103,103,84,1,HAXES,C,old,z,./images/HAXES.png,,,,,,,,,,,,,,,,,,,,,,,
,,,,,,,,,,,,,,,,,199723,18,2022-01-28_21h08.23.492,lexical_decision_task_DD_L2,2021.2.3,MacIntel,60.0024001,,,,,,,,,,,0.9544,1,,,,,,,,,,,,,,m,1,0.9544,,,,,,,,0.030203993,0.342374132,0,0,0,,0,104,104,75,1,GRAIN,HB,old,m,./images/GRAINHB.png,,,,,,,,,,,,,,,,,,,,,,,
,,,,,,,,,,,,,,,,,199723,18,2022-01-28_21h08.23.492,lexical_decision_task_DD_L2,2021.2.3,MacIntel,60.0024001,,,,,,,,,,,1.8602,1,,,,,,,,,,,,,,z,1,1.8602,,,,,,,,0.030203993,0.342374132,0,0,0,,0,105,105,130,1,CRILL,HB,old,z,./images/CRILLHB.png,,,,,,,,,,,,,,,,,,,,,,,
,,,,,,,,,,,,,,,,,199723,18,2022-01-28_21h08.23.492,lexical_decision_task_DD_L2,2021.2.3,MacIntel,60.0024001,,,,,,,,,,,3.0924,1,,,,,,,,,,,,,,z,1,3.0924,,,,,,,,0.030203993,0.342374132,0,0,0,,0,106,106,116,1,BALGY,LB,old,z,./images/BALGYLB.png,,,,,,,,,,,,,,,,,,,,,,,
,,,,,,,,,,,,,,,,,199723,18,2022-01-28_21h08.23.492,lexical_decision_task_DD_L2,2021.2.3,MacIntel,60.0024001,,,,,,,,,,,0.8848,1,,,,,,,,,,,,,,m,1,0.8848,,,,,,,,0.030203993,0.342374132,0,0,0,,0,107,107,63,1,MIRROR,HB,old,m,./images/MIRRORHB.png,,,,,,,,,,,,,,,,,,,,,,,
,,,,,,,,,,,,,,,,,199723,18,2022-01-28_21h08.23.492,lexical_decision_task_DD_L2,2021.2.3,MacIntel,60.0024001,,,,,,,,,,,1.3648,1,,,,,,,,,,,,,,m,1,1.3648,,,,,,,,0.030203993,0.342374132,0,0,0,,0,108,108,16,1,PENCE,LB,old,m,./images/PENCELB.png,,,,,,,,,,,,,,,,,,,,,,,
,,,,,,,,,,,,,,,,,199723,18,2022-01-28_21h08.23.492,lexical_decision_task_DD_L2,2021.2.3,MacIntel,60.0024001,,,,,,,,,,,0.6216,1,,,,,,,,,,,,,,m,1,0.6216,,,,,,,,0.030203993,0.342374132,0,0,0,,0,109,109,53,1,CARPET,C,old,m,./images/CARPET.png,,,,,,,,,,,,,,,,,,,,,,,
,,,,,,,,,,,,,,,,,199723,18,2022-01-28_21h08.23.492,lexical_decision_task_DD_L2,2021.2.3,MacIntel,60.0024001,,,,,,,,,,,0.6287,1,,,,,,,,,,,,,,m,1,0.6287,,,,,,,,0.030203993,0.342374132,0,0,0,,0,110,110,8,1,TULIP,C,old,m,./images/TULIP.png,,,,,,,,,,,,,,,,,,,,,,,
,,,,,,,,,,,,,,,,,199723,18,2022-01-28_21h08.23.492,lexical_decision_task_DD_L2,2021.2.3,MacIntel,60.0024001,,,,,,,,,,,4.0897,1,,,,,,,,,,,,,,m,1,4.0897,,,,,,,,0.030203993,0.342374132,0,0,0,,0,111,111,33,1,MAGGOT,HB,old,m,./images/MAGGOTHB.png,,,,,,,,,,,,,,,,,,,,,,,
,,,,,,,,,,,,,,,,,199723,18,2022-01-28_21h08.23.492,lexical_decision_task_DD_L2,2021.2.3,MacIntel,60.0024001,,,,,,,,,,,1.275,1,,,,,,,,,,,,,,m,1,1.275,,,,,,,,-0.059878472,-0.034335937,0,0,0,,0,112,112,47,1,BERRY,C,old,m,./images/BERRY.png,,,,,,,,,,,,,,,,,,,,,,,
,,,,,,,,,,,,,,,,,199723,18,2022-01-28_21h08.23.492,lexical_decision_task_DD_L2,2021.2.3,MacIntel,60.0024001,,,,,,,,,,,3.1195,1,,,,,,,,,,,,,,m,1,3.1195,,,,,,,,-0.059878472,-0.034335937,0,0,0,,0,113,113,46,1,PEARL,LB,old,m,./images/PEARLLB.png,,,,,,,,,,,,,,,,,,,,,,,
,,,,,,,,,,,,,,,,,199723,18,2022-01-28_21h08.23.492,lexical_decision_task_DD_L2,2021.2.3,MacIntel,60.0024001,,,,,,,,,,,6.7482,1,,,,,,,,,,,,,,m,1,6.7482,,,,,,,,-0.059878472,-0.034335937,0,0,0,,0,114,114,48,1,SPORT,HB,old,m,./images/SPORTHB.png,,,,,,,,,,,,,,,,,,,,,,,
,,,,,,,,,,,,,,,,,199723,18,2022-01-28_21h08.23.492,lexical_decision_task_DD_L2,2021.2.3,MacIntel,60.0024001,,,,,,,,,,,0.8009,1,,,,,,,,,,,,,,z,1,0.8009,,,,,,,,-0.059878472,-0.034335937,0,0,0,,0,115,115,92,1,PAIMS,LB,old,z,./images/PAIMSLB.png,,,,,,,,,,,,,,,,,,,,,,,
,,,,,,,,,,,,,,,,,199723,18,2022-01-28_21h08.23.492,lexical_decision_task_DD_L2,2021.2.3,MacIntel,60.0024001,,,,,,,,,,,5.8306,1,,,,,,,,,,,,,,z,1,5.8306,,,,,,,,-0.059878472,-0.034335937,0,0,0,,0,116,116,100,1,DRIBS,HB,old,z,./images/DRIBSHB.png,,,,,,,,,,,,,,,,,,,,,,,
,,,,,,,,,,,,,,,,,199723,18,2022-01-28_21h08.23.492,lexical_decision_task_DD_L2,2021.2.3,MacIntel,60.0024001,,,,,,,,,,,2.058,1,,,,,,,,,,,,,,z,1,2.058,,,,,,,,-0.059878472,-0.034335937,0,0,0,,0,117,117,138,1,PLICE,C,old,z,./images/PLICE.png,,,,,,,,,,,,,,,,,,,,,,,
,,,,,,,,,,,,,,,,,199723,18,2022-01-28_21h08.23.492,lexical_decision_task_DD_L2,2021.2.3,MacIntel,60.0024001,,,,,,,,,,,0.6143,1,,,,,,,,,,,,,,m,1,0.6143,,,,,,,,-0.059878472,-0.034335937,0,0,0,,0,118,118,42,1,FOLDER,HB,old,m,./images/FOLDERHB.png,,,,,,,,,,,,,,,,,,,,,,,
,,,,,,,,,,,,,,,,,199723,18,2022-01-28_21h08.23.492,lexical_decision_task_DD_L2,2021.2.3,MacIntel,60.0024001,,,,,,,,,,,0.6964,1,,,,,,,,,,,,,,z,1,0.6964,,,,,,,,-0.059878472,-0.034335937,0,0,0,,0,119,119,86,1,AIFED,LB,old,z,./images/AIFEDLB.png,,,,,,,,,,,,,,,,,,,,,,,
,,,,,,,,,,,,,,,,,199723,18,2022-01-28_21h08.23.492,lexical_decision_task_DD_L2,2021.2.3,MacIntel,60.0024001,,,,,,,,,,,0.679,0,,,,,,,,,,,,,,m,0,0.679,,,,,,,,-0.059878472,-0.034335937,0,0,0,,0,120,120,106,1,CLUMS,HB,old,z,./images/CLUMSHB.png,,,,,,,,,,,,,,,,,,,,,,,
,,,,,,,,,,,,,,,,,199723,18,2022-01-28_21h08.23.492,lexical_decision_task_DD_L2,2021.2.3,MacIntel,60.0024001,,,,,,,,,,,0.6383,1,,,,,,,,,,,,,,m,1,0.6383,,,,,,,,-0.059878472,-0.034335937,0,0,0,,0,121,121,65,1,FARMER,C,old,m,./images/FARMER.png,,,,,,,,,,,,,,,,,,,,,,,
,,,,,,,,,,,,,,,,,199723,18,2022-01-28_21h08.23.492,lexical_decision_task_DD_L2,2021.2.3,MacIntel,60.0024001,,,,,,,,,,,0.5608,1,,,,,,,,,,,,,,m,1,0.5608,,,,,,,,-0.059878472,-0.034335937,0,0,0,,0,122,122,40,1,SWING,LB,old,m,./images/SWINGLB.png,,,,,,,,,,,,,,,,,,,,,,,
,,,,,,,,,,,,,,,,,199723,18,2022-01-28_21h08.23.492,lexical_decision_task_DD_L2,2021.2.3,MacIntel,60.0024001,,,,,,,,,,,2.8318,1,,,,,,,,,,,,,,z,1,2.8318,,,,,,,,-0.059878472,-0.034335937,0,0,0,,0,123,123,95,1,HANTY,LB,old,z,./images/HANTYLB.png,,,,,,,,,,,,,,,,,,,,,,,
,,,,,,,,,,,,,,,,,199723,18,2022-01-28_21h08.23.492,lexical_decision_task_DD_L2,2021.2.3,MacIntel,60.0024001,,,,,,,,,,,1.0548,1,,,,,,,,,,,,,,z,1,1.0548,,,,,,,,-0.059878472,-0.034335937,0,0,0,,0,124,124,120,1,RINED,C,old,z,./images/RINED.png,,,,,,,,,,,,,,,,,,,,,,,
,,,,,,,,,,,,,,,,,199723,18,2022-01-28_21h08.23.492,lexical_decision_task_DD_L2,2021.2.3,MacIntel,60.0024001,,,,,,,,,,,1.8085,1,,,,,,,,,,,,,,z,1,1.8085,,,,,,,,-0.059878472,-0.034335937,0,0,0,space,0,125,125,129,1,PRANS,C,old,z,./images/PRANS.png,41.5038,,,,,,,,,,,,,,,,,,,,,,
,,,,,,,,,,,,,,,,,199723,18,2022-01-28_21h08.23.492,lexical_decision_task_DD_L2,2021.2.3,MacIntel,60.0024001,,,,,,,,,,,1.121,1,,,,,,,,,,,,,,z,1,1.121,,,,,,,,-0.059878472,-0.034335937,0,0,0,,0,126,126,99,1,BACKY,C,old,z,./images/BACKY.png,,,,,,,,,,,,,,,,,,,,,,,
,,,,,,,,,,,,,,,,,199723,18,2022-01-28_21h08.23.492,lexical_decision_task_DD_L2,2021.2.3,MacIntel,60.0024001,,,,,,,,,,,0.5568,1,,,,,,,,,,,,,,m,1,0.5568,,,,,,,,-0.059878472,-0.034335937,0,0,0,,0,127,127,5,1,PASTA,C,old,m,./images/PASTA.png,,,,,,,,,,,,,,,,,,,,,,,
,,,,,,,,,,,,,,,,,199723,18,2022-01-28_21h08.23.492,lexical_decision_task_DD_L2,2021.2.3,MacIntel,60.0024001,,,,,,,,,,,2.068,1,,,,,,,,,,,,,,z,1,2.068,,,,,,,,-0.059878472,-0.034335937,0,0,0,,0,128,128,133,1,POWDY,HB,old,z,./images/POWDYHB.png,,,,,,,,,,,,,,,,,,,,,,,
,,,,,,,,,,,,,,,,,199723,18,2022-01-28_21h08.23.492,lexical_decision_task_DD_L2,2021.2.3,MacIntel,60.0024001,,,,,,,,,,,0.4962,1,,,,,,,,,,,,,,m,1,0.4962,,,,,,,,-0.059878472,-0.034335937,0,0,0,,0,129,129,77,1,COUCH,C,old,m,./images/COUCH.png,,,,,,,,,,,,,,,,,,,,,,,
,,,,,,,,,,,,,,,,,199723,18,2022-01-28_21h08.23.492,lexical_decision_task_DD_L2,2021.2.3,MacIntel,60.0024001,,,,,,,,,,,0.888,1,,,,,,,,,,,,,,z,1,0.888,,,,,,,,-0.059878472,-0.034335937,0,0,0,,0,130,130,114,1,RIKES,C,old,z,./images/RIKES.png,,,,,,,,,,,,,,,,,,,,,,,
,,,,,,,,,,,,,,,,,199723,18,2022-01-28_21h08.23.492,lexical_decision_task_DD_L2,2021.2.3,MacIntel,60.0024001,,,,,,,,,,,1.2876,0,,,,,,,,,,,,,,m,0,1.2876,,,,,,,,-0.059878472,-0.034335937,0,0,0,,0,131,131,157,1,INLER,HB,old,z,./images/INLERHB.png,,,,,,,,,,,,,,,,,,,,,,,
,,,,,,,,,,,,,,,,,199723,18,2022-01-28_21h08.23.492,lexical_decision_task_DD_L2,2021.2.3,MacIntel,60.0024001,,,,,,,,,,,0.7065,1,,,,,,,,,,,,,,z,1,0.7065,,,,,,,,-0.059878472,-0.034335937,0,0,0,,0,132,132,96,1,KEAMS,C,old,z,./images/KEAMS.png,,,,,,,,,,,,,,,,,,,,,,,
,,,,,,,,,,,,,,,,,199723,18,2022-01-28_21h08.23.492,lexical_decision_task_DD_L2,2021.2.3,MacIntel,60.0024001,,,,,,,,,,,0.6774,1,,,,,,,,,,,,,,z,1,0.6774,,,,,,,,-0.059878472,-0.034335937,0,0,0,,0,133,133,147,1,ZOLES,C,old,z,./images/ZOLES.png,,,,,,,,,,,,,,,,,,,,,,,
,,,,,,,,,,,,,,,,,199723,18,2022-01-28_21h08.23.492,lexical_decision_task_DD_L2,2021.2.3,MacIntel,60.0024001,,,,,,,,,,,2.1664,1,,,,,,,,,,,,,,z,1,2.1664,,,,,,,,-0.059878472,-0.034335937,0,0,0,,0,134,134,94,1,BLANS,HB,old,z,./images/BLANSHB.png,,,,,,,,,,,,,,,,,,,,,,,
,,,,,,,,,,,,,,,,,199723,18,2022-01-28_21h08.23.492,lexical_decision_task_DD_L2,2021.2.3,MacIntel,60.0024001,,,,,,,,,,,0.6016,1,,,,,,,,,,,,,,m,1,0.6016,,,,,,,,-0.059878472,-0.034335937,0,0,0,,0,135,135,2,1,BEARD,C,old,m,./images/BEARD.png,,,,,,,,,,,,,,,,,,,,,,,
,,,,,,,,,,,,,,,,,199723,18,2022-01-28_21h08.23.492,lexical_decision_task_DD_L2,2021.2.3,MacIntel,60.0024001,,,,,,,,,,,0.6391,1,,,,,,,,,,,,,,m,1,0.6391,,,,,,,,-0.059878472,-0.034335937,0,0,0,,0,136,136,19,1,DOUGH,LB,old,m,./images/DOUGHLB.png,,,,,,,,,,,,,,,,,,,,,,,
,,,,,,,,,,,,,,,,,199723,18,2022-01-28_21h08.23.492,lexical_decision_task_DD_L2,2021.2.3,MacIntel,60.0024001,,,,,,,,,,,0.532,1,,,,,,,,,,,,,,m,1,0.532,,,,,,,,-0.059878472,-0.034335937,0,0,0,,0,137,137,55,1,MUFFIN,LB,old,m,./images/MUFFINLB.png,,,,,,,,,,,,,,,,,,,,,,,
,,,,,,,,,,,,,,,,,199723,18,2022-01-28_21h08.23.492,lexical_decision_task_DD_L2,2021.2.3,MacIntel,60.0024001,,,,,,,,,,,4.6225,0,,,,,,,,,,,,,,z,0,4.6225,,,,,,,,-0.059878472,-0.034335937,0,0,0,,0,138,138,17,1,SKIING,C,old,m,./images/SKIING.png,,,,,,,,,,,,,,,,,,,,,,,
,,,,,,,,,,,,,,,,,199723,18,2022-01-28_21h08.23.492,lexical_decision_task_DD_L2,2021.2.3,MacIntel,60.0024001,,,,,,,,,,,0.769,1,,,,,,,,,,,,,,z,1,0.769,,,,,,,,-0.059878472,-0.034335937,0,0,0,,0,139,139,113,1,LINEW,LB,old,z,./images/LINEWLB.png,,,,,,,,,,,,,,,,,,,,,,,
,,,,,,,,,,,,,,,,,199723,18,2022-01-28_21h08.23.492,lexical_decision_task_DD_L2,2021.2.3,MacIntel,60.0024001,,,,,,,,,,,1.9543,1,,,,,,,,,,,,,,z,1,1.9543,,,,,,,,-0.059878472,-0.034335937,0,0,0,,0,140,140,148,1,JOMS,HB,old,z,./images/JOMSHB.png,,,,,,,,,,,,,,,,,,,,,,,
,,,,,,,,,,,,,,,,,199723,18,2022-01-28_21h08.23.492,lexical_decision_task_DD_L2,2021.2.3,MacIntel,60.0024001,,,,,,,,,,,1.4467,1,,,,,,,,,,,,,,z,1,1.4467,,,,,,,,-0.059878472,-0.034335937,0,0,0,,0,141,141,118,1,BAVEL,HB,old,z,./images/BAVELHB.png,,,,,,,,,,,,,,,,,,,,,,,
,,,,,,,,,,,,,,,,,199723,18,2022-01-28_21h08.23.492,lexical_decision_task_DD_L2,2021.2.3,MacIntel,60.0024001,,,,,,,,,,,1.2938,0,,,,,,,,,,,,,,m,0,1.2938,,,,,,,,-0.059878472,-0.034335937,0,0,0,,0,142,142,109,1,BURGE,HB,old,z,./images/BURGEHB.png,,,,,,,,,,,,,,,,,,,,,,,
,,,,,,,,,,,,,,,,,199723,18,2022-01-28_21h08.23.492,lexical_decision_task_DD_L2,2021.2.3,MacIntel,60.0024001,,,,,,,,,,,2.1181,1,,,,,,,,,,,,,,m,1,2.1181,,,,,,,,-0.059878472,-0.034335937,0,0,0,,0,143,143,69,1,COOKER,HB,old,m,./images/COOKERHB.png,,,,,,,,,,,,,,,,,,,,,,,
,,,,,,,,,,,,,,,,,199723,18,2022-01-28_21h08.23.492,lexical_decision_task_DD_L2,2021.2.3,MacIntel,60.0024001,,,,,,,,,,,0.5459,1,,,,,,,,,,,,,,m,1,0.5459,,,,,,,,-0.059878472,-0.034335937,0,0,0,,0,144,144,14,1,PICKLE,C,old,m,./images/PICKLE.png,,,,,,,,,,,,,,,,,,,,,,,
,,,,,,,,,,,,,,,,,199723,18,2022-01-28_21h08.23.492,lexical_decision_task_DD_L2,2021.2.3,MacIntel,60.0024001,,,,,,,,,,,0.7041,1,,,,,,,,,,,,,,z,1,0.7041,,,,,,,,-0.059878472,-0.034335937,0,0,0,,0,145,145,93,1,SMONE,C,old,z,./images/SMONE.png,,,,,,,,,,,,,,,,,,,,,,,
,,,,,,,,,,,,,,,,,199723,18,2022-01-28_21h08.23.492,lexical_decision_task_DD_L2,2021.2.3,MacIntel,60.0024001,,,,,,,,,,,0.548,1,,,,,,,,,,,,,,m,1,0.548,,,,,,,,-0.059878472,-0.034335937,0,0,0,,0,146,146,66,1,SWEAT,HB,old,m,./images/SWEATHB.png,,,,,,,,,,,,,,,,,,,,,,,
,,,,,,,,,,,,,,,,,199723,18,2022-01-28_21h08.23.492,lexical_decision_task_DD_L2,2021.2.3,MacIntel,60.0024001,,,,,,,,,,,3.1475,1,,,,,,,,,,,,,,z,1,3.1475,,,,,,,,-0.059878472,-0.034335937,0,0,0,,0,147,147,91,1,SHENS,HB,old,z,./images/SHENSHB.png,,,,,,,,,,,,,,,,,,,,,,,
,,,,,,,,,,,,,,,,,199723,18,2022-01-28_21h08.23.492,lexical_decision_task_DD_L2,2021.2.3,MacIntel,60.0024001,,,,,,,,,,,0.518,1,,,,,,,,,,,,,,m,1,0.518,,,,,,,,-0.059878472,-0.034335937,0,0,0,,0,148,148,72,1,NOOSE,HB,old,m,./images/NOOSEHB.png,,,,,,,,,,,,,,,,,,,,,,,
,,,,,,,,,,,,,,,,,199723,18,2022-01-28_21h08.23.492,lexical_decision_task_DD_L2,2021.2.3,MacIntel,60.0024001,,,,,,,,,,,1.4142,1,,,,,,,,,,,,,,z,1,1.4142,,,,,,,,-0.059878472,-0.034335937,0,0,0,,0,149,149,127,1,NINDY,HB,old,z,./images/NINDYHB.png,,,,,,,,,,,,,,,,,,,,,,,
,,,,,,,,,,,,,,,,,199723,18,2022-01-28_21h08.23.492,lexical_decision_task_DD_L2,2021.2.3,MacIntel,60.0024001,,,,,,,,,,,0.7509,1,,,,,,,,,,,,,,m,1,0.7509,,,,,,,,-0.059878472,-0.034335937,0,0,0,,0,150,150,29,1,CRUMB,C,old,m,./images/CRUMB.png,,,,,,,,,,,,,,,,,,,,,,,
,,,,,,,,,,,,,,,,,199723,18,2022-01-28_21h08.23.492,lexical_decision_task_DD_L2,2021.2.3,MacIntel,60.0024001,,,,,,,,,,,0.867,1,,,,,,,,,,,,,,m,1,0.867,,,,,,,,-0.059878472,-0.034335937,0,0,0,,0,151,151,79,1,CRUST,LB,old,m,./images/CRUSTLB.png,,,,,,,,,,,,,,,,,,,,,,,
,,,,,,,,,,,,,,,,,199723,18,2022-01-28_21h08.23.492,lexical_decision_task_DD_L2,2021.2.3,MacIntel,60.0024001,,,,,,,,,,,0.9864,0,,,,,,,,,,,,,,z,0,0.9864,,,,,,,,-0.059878472,-0.034335937,0,0,0,,0,152,152,27,1,ATTIC,HB,old,m,./images/ATTICHB.png,,,,,,,,,,,,,,,,,,,,,,,
,,,,,,,,,,,,,,,,,199723,18,2022-01-28_21h08.23.492,lexical_decision_task_DD_L2,2021.2.3,MacIntel,60.0024001,,,,,,,,,,,0.7735,1,,,,,,,,,,,,,,m,1,0.7735,,,,,,,,-0.059878472,-0.034335937,0,0,0,,0,153,153,62,1,PURSE,C,old,m,./images/PURSE.png,,,,,,,,,,,,,,,,,,,,,,,
,,,,,,,,,,,,,,,,,199723,18,2022-01-28_21h08.23.492,lexical_decision_task_DD_L2,2021.2.3,MacIntel,60.0024001,,,,,,,,,,,1.1179,1,,,,,,,,,,,,,,z,1,1.1179,,,,,,,,-0.059878472,-0.034335937,0,0,0,,0,154,154,128,1,GRIFT,LB,old,z,./images/GRIFTLB.png,,,,,,,,,,,,,,,,,,,,,,,
,,,,,,,,,,,,,,,,,199723,18,2022-01-28_21h08.23.492,lexical_decision_task_DD_L2,2021.2.3,MacIntel,60.0024001,,,,,,,,,,,0.9161,1,,,,,,,,,,,,,,z,1,0.9161,,,,,,,,-0.059878472,-0.034335937,0,0,0,,0,155,155,98,1,BAMPS,LB,old,z,./images/BAMPSLB.png,,,,,,,,,,,,,,,,,,,,,,,
,,,,,,,,,,,,,,,,,199723,18,2022-01-28_21h08.23.492,lexical_decision_task_DD_L2,2021.2.3,MacIntel,60.0024001,,,,,,,,,,,0.5671,1,,,,,,,,,,,,,,m,1,0.5671,,,,,,,,-0.059878472,-0.034335937,0,0,0,,0,156,156,37,1,BIRTH,LB,old,m,./images/BIRTHLB.png,,,,,,,,,,,,,,,,,,,,,,,
,,,,,,,,,,,,,,,,,199723,18,2022-01-28_21h08.23.492,lexical_decision_task_DD_L2,2021.2.3,MacIntel,60.0024001,,,,,,,,,,,1.2766,0,,,,,,,,,,,,,,m,0,1.2766,,,,,,,,-0.059878472,-0.034335937,0,0,0,,0,157,157,166,1,SHORY,HB,old,z,./images/SHORYHB.png,,,,,,,,,,,,,,,,,,,,,,,
,,,,,,,,,,,,,,,,,199723,18,2022-01-28_21h08.23.492,lexical_decision_task_DD_L2,2021.2.3,MacIntel,60.0024001,,,,,,,,,,,0.6802,1,,,,,,,,,,,,,,z,1,0.6802,,,,,,,,-0.059878472,-0.034335937,0,0,0,,0,158,158,152,1,FRAIN,LB,old,z,./images/FRAINLB.png,,,,,,,,,,,,,,,,,,,,,,,
,,,,,,,,,,,,,,,,,199723,18,2022-01-28_21h08.23.492,lexical_decision_task_DD_L2,2021.2.3,MacIntel,60.0024001,,,,,,,,,,,0.8666,1,,,,,,,,,,,,,,m,1,0.8666,,,,,,,,-0.059878472,-0.034335937,0,0,0,,0,159,159,51,1,ONION,HB,old,m,./images/ONIONHB.png,,,,,,,,,,,,,,,,,,,,,,,
,,,,,,,,,,,,,,,,,199723,18,2022-01-28_21h08.23.492,lexical_decision_task_DD_L2,2021.2.3,MacIntel,60.0024001,,,,,,,,,,,0.7433,1,,,,,,,,,,,,,,z,1,0.7433,,,,,,,,-0.059878472,-0.034335937,0,0,0,,0,160,160,108,1,GRUET,C,old,z,./images/GRUET.png,,,,,,,,,,,,,,,,,,,,,,,
,,,,,,,,,,,,,,,,,199723,18,2022-01-28_21h08.23.492,lexical_decision_task_DD_L2,2021.2.3,MacIntel,60.0024001,,,,,,,,,,,1.7984,0,,,,,,,,,,,,,,m,0,1.7984,,,,,,,,-0.059878472,-0.034335937,0,0,0,,0,161,161,107,1,FASKS,LB,old,z,./images/FASKSLB.png,,,,,,,,,,,,,,,,,,,,,,,
,,,,,,,,,,,,,,,,,199723,18,2022-01-28_21h08.23.492,lexical_decision_task_DD_L2,2021.2.3,MacIntel,60.0024001,,,,,,,,,,,0.8014,1,,,,,,,,,,,,,,z,1,0.8014,,,,,,,,-0.059878472,-0.034335937,0,0,0,,0,162,162,122,1,BLOOT,LB,old,z,./images/BLOOTLB.png,,,,,,,,,,,,,,,,,,,,,,,
,,,,,,,,,,,,,,,,,199723,18,2022-01-28_21h08.23.492,lexical_decision_task_DD_L2,2021.2.3,MacIntel,60.0024001,,,,,,,,,,,0.5741,1,,,,,,,,,,,,,,m,1,0.5741,,,,,,,,-0.059878472,-0.034335937,0,0,0,,0,163,163,41,1,STRING,C,old,m,./images/STRING.png,,,,,,,,,,,,,,,,,,,,,,,
,,,,,,,,,,,,,,,,,199723,18,2022-01-28_21h08.23.492,lexical_decision_task_DD_L2,2021.2.3,MacIntel,60.0024001,,,,,,,,,,,2.0028,1,,,,,,,,,,,,,,z,1,2.0028,,,,,,,,-0.059878472,-0.034335937,0,0,0,,0,164,164,88,1,GLUSH,HB,old,z,./images/GLUSHHB.png,,,,,,,,,,,,,,,,,,,,,,,
,,,,,,,,,,,,,,,,,199723,18,2022-01-28_21h08.23.492,lexical_decision_task_DD_L2,2021.2.3,MacIntel,60.0024001,,,,,,,,,,,0.5473,1,,,,,,,,,,,,,,m,1,0.5473,,,,,,,,-0.059878472,-0.034335937,0,0,0,,0,165,165,45,1,KITTEN,HB,old,m,./images/KITTENHB.png,,,,,,,,,,,,,,,,,,,,,,,
,,,,,,,,,,,,,,,,,199723,18,2022-01-28_21h08.23.492,lexical_decision_task_DD_L2,2021.2.3,MacIntel,60.0024001,,,,,,,,,,,0.8639,1,,,,,,,,,,,,,,m,1,0.8639,,,,,,,,-0.059878472,-0.034335937,0,0,0,,0,166,166,49,1,DRUMS,LB,old,m,./images/DRUMSLB.png,,,,,,,,,,,,,,,,,,,,,,,
,,,,,,,,,,,,,,,,,199723,18,2022-01-28_21h08.23.492,lexical_decision_task_DD_L2,2021.2.3,MacIntel,60.0024001,,,,,,,,,,,2.1692,1,,,,,,,,,,,,,,z,1,2.1692,,,,,,,,-0.059878472,-0.034335937,0,0,0,,0,167,167,141,1,PLEET,C,old,z,./images/PLEET.png,,,,,,,,,,,,,,,,,,,,,,,
space,23.8997,-0.059878472,-0.034335937,0,0,0,,,,,,1,test,"In the next phase you will be presented with the words from the the first phase. Your job is to decide whether you remember seeing the word or not. If you remember seeing the word press ""old"" or type ""m"". If you do not remember seeing the word press ""new"" or type ""z"". Please press the space bar or click on continue to begin. ",,,199723,18,2022-01-28_21h08.23.492,lexical_decision_task_DD_L2,2021.2.3,MacIntel,60.0024001,,,,,,,,,,,,,,,,,,,,,,,,,,,,,,,,,,,,,,,,,,,,,,,,,,,,,0,0,0,0,1,,,,,,,,,,,,,,,,,
space,1.0308,-0.059878472,-0.034335937,0,0,0,,,,,,1,test,"In the next phase you will be presented with the words from the the first phase. Your job is to decide whether you remember seeing the word or not. If you remember seeing the word press ""old"" or type ""m"". If you do not remember seeing the word press ""new"" or type ""z"". Please press the space bar or click on continue to begin. ",,,199723,18,2022-01-28_21h08.23.492,lexical_decision_task_DD_L2,2021.2.3,MacIntel,60.0024001,,,,,,,,,,,,,,,,,,,,,,,,,,,,,,,,,,,,,,,,,,,,,,,,,,,,,1,0,1,0,1,,,,,,,,,,,,,,,,,
,,0.000329861,-0.439440104,1,0,0,,,,,,1,test,"In the next phase you will be presented with the words from the the first phase. Your job is to decide whether you remember seeing the word or not. If you remember seeing the word press ""old"" or type ""m"". If you do not remember seeing the word press ""new"" or type ""z"". Please press the space bar or click on continue to begin. ",,,199723,18,2022-01-28_21h08.23.492,lexical_decision_task_DD_L2,2021.2.3,MacIntel,60.0024001,,,,,,,,,,,,,,,,,,,,,,,,,,,,,,,,,,,,,,,,,,,,,,,,,,,,,2,0,2,0,1,instr_done_button,,,,,,,,,,,,,,,,
,,0.017612847,-0.400698785,1,0,0,,,,,,1,test,"In the next phase you will be presented with the words from the the first phase. Your job is to decide whether you remember seeing the word or not. If you remember seeing the word press ""old"" or type ""m"". If you do not remember seeing the word press ""new"" or type ""z"". Please press the space bar or click on continue to begin. ",,,199723,18,2022-01-28_21h08.23.492,lexical_decision_task_DD_L2,2021.2.3,MacIntel,60.0024001,,,,,,,,,,,,,,,,,,,,,,,,,,,,,,,,,,,,,,,,,,,,,,,,,,,,,3,0,3,0,1,instr_done_button,,,,,,,,,,,,,,,,
space,0.6879,0.083576389,-0.254644097,0,0,0,,,,,,1,test,"In the next phase you will be presented with the words from the the first phase. Your job is to decide whether you remember seeing the word or not. If you remember seeing the word press ""old"" or type ""m"". If you do not remember seeing the word press ""new"" or type ""z"". Please press the space bar or click on continue to begin. ",,,199723,18,2022-01-28_21h08.23.492,lexical_decision_task_DD_L2,2021.2.3,MacIntel,60.0024001,,,,,,,,,,,,,,,,,,,,,,,,,,,,,,,,,,,,,,,,,,,,,,,,,,,,,4,0,4,0,1,,,,,,,,,,,,,,,,,
,,,,,,,,,,,,,,,,,199723,18,2022-01-28_21h08.23.492,lexical_decision_task_DD_L2,2021.2.3,MacIntel,60.0024001,,,,,,,,,,,4.5939,1,,,,,,,,,,,,,,,,,,,,,,,,0.083576389,-0.254644097,0,0,0,,,,,,,GRANNY,C,z,y,./images/GRANNY.png,,,,,,,,z,1,4.5939,,,,,,,,0,0,0,104,1,
,,,,,,,,,,,,,,,,,199723,18,2022-01-28_21h08.23.492,lexical_decision_task_DD_L2,2021.2.3,MacIntel,60.0024001,,,,,,,,,,,2.5334,1,,,,,,,,,,,,,,,,,,,,,,,,0.083576389,-0.254644097,0,0,0,,,,,,,STRING,C,m,y,./images/STRING.png,,,,,,,,m,1,2.5334,,,,,,,,0,1,1,41,1,
,,,,,,,,,,,,,,,,,199723,18,2022-01-28_21h08.23.492,lexical_decision_task_DD_L2,2021.2.3,MacIntel,60.0024001,,,,,,,,,,,1.1068,0,,,,,,,,,,,,,,,,,,,,,,,,0.083576389,-0.254644097,0,0,0,,,,,,,WEASEL,C,m,y,./images/WEASEL.png,,,,,,,,z,0,1.1068,,,,,,,,0,2,2,80,1,
,,,,,,,,,,,,,,,,,199723,18,2022-01-28_21h08.23.492,lexical_decision_task_DD_L2,2021.2.3,MacIntel,60.0024001,,,,,,,,,,,1.2757,0,,,,,,,,,,,,,,,,,,,,,,,,0.083576389,-0.254644097,0,0,0,,,,,,,PAINT,LB,m,y,./images/PAINTLB.png,,,,,,,,z,0,1.2757,,,,,,,,0,3,3,7,1,
,,,,,,,,,,,,,,,,,199723,18,2022-01-28_21h08.23.492,lexical_decision_task_DD_L2,2021.2.3,MacIntel,60.0024001,,,,,,,,,,,0.8839,0,,,,,,,,,,,,,,,,,,,,,,,,0.083576389,-0.254644097,0,0,0,,,,,,,PURSE,C,m,y,./images/PURSE.png,,,,,,,,z,0,0.8839,,,,,,,,0,4,4,62,1,
,,,,,,,,,,,,,,,,,199723,18,2022-01-28_21h08.23.492,lexical_decision_task_DD_L2,2021.2.3,MacIntel,60.0024001,,,,,,,,,,,1.3479,0,,,,,,,,,,,,,,,,,,,,,,,,0.083576389,-0.254644097,0,0,0,,,,,,,BELLY,LB,m,y,./images/BELLYLB.png,,,,,,,,z,0,1.3479,,,,,,,,0,5,5,10,1,
,,,,,,,,,,,,,,,,,199723,18,2022-01-28_21h08.23.492,lexical_decision_task_DD_L2,2021.2.3,MacIntel,60.0024001,,,,,,,,,,,0.7691,0,,,,,,,,,,,,,,,,,,,,,,,,0.083576389,-0.254644097,0,0,0,,,,,,,LIZARD,C,m,y,./images/LIZARD.png,,,,,,,,z,0,0.7691,,,,,,,,0,6,6,44,1,
,,,,,,,,,,,,,,,,,199723,18,2022-01-28_21h08.23.492,lexical_decision_task_DD_L2,2021.2.3,MacIntel,60.0024001,,,,,,,,,,,0.6975,1,,,,,,,,,,,,,,,,,,,,,,,,0.083576389,-0.254644097,0,0,0,,,,,,,CLOWN,LB,z,y,./images/CLOWNLB.png,,,,,,,,z,1,0.6975,,,,,,,,0,7,7,106,1,
,,,,,,,,,,,,,,,,,199723,18,2022-01-28_21h08.23.492,lexical_decision_task_DD_L2,2021.2.3,MacIntel,60.0024001,,,,,,,,,,,0.7443,1,,,,,,,,,,,,,,,,,,,,,,,,0.083576389,-0.254644097,0,0,0,,,,,,,FOLDER,HB,m,y,./images/FOLDERHB.png,,,,,,,,m,1,0.7443,,,,,,,,0,8,8,42,1,
,,,,,,,,,,,,,,,,,199723,18,2022-01-28_21h08.23.492,lexical_decision_task_DD_L2,2021.2.3,MacIntel,60.0024001,,,,,,,,,,,0.9512,1,,,,,,,,,,,,,,,,,,,,,,,,0.083576389,-0.254644097,0,0,0,,,,,,,STOVE,C,z,y,./images/STOVE.png,,,,,,,,z,1,0.9512,,,,,,,,0,9,9,86,1,
,,,,,,,,,,,,,,,,,199723,18,2022-01-28_21h08.23.492,lexical_decision_task_DD_L2,2021.2.3,MacIntel,60.0024001,,,,,,,,,,,1.1684,1,,,,,,,,,,,,,,,,,,,,,,,,0.083576389,-0.254644097,0,0,0,,,,,,,DIVER,HB,z,y,./images/DIVERHB.png,,,,,,,,z,1,1.1684,,,,,,,,0,10,10,93,1,
,,,,,,,,,,,,,,,,,199723,18,2022-01-28_21h08.23.492,lexical_decision_task_DD_L2,2021.2.3,MacIntel,60.0024001,,,,,,,,,,,3.1216,0,,,,,,,,,,,,,,,,,,,,,,,,0.083576389,-0.254644097,0,0,0,,,,,,,MELON,LB,m,y,./images/MELONLB.png,,,,,,,,z,0,3.1216,,,,,,,,0,11,11,22,1,
,,,,,,,,,,,,,,,,,199723,18,2022-01-28_21h08.23.492,lexical_decision_task_DD_L2,2021.2.3,MacIntel,60.0024001,,,,,,,,,,,0.8585,1,,,,,,,,,,,,,,,,,,,,,,,,0.083576389,-0.254644097,0,0,0,,,,,,,LLAMA,C,z,y,./images/LLAMA.png,,,,,,,,z,1,0.8585,,,,,,,,0,12,12,119,1,
,,,,,,,,,,,,,,,,,199723,18,2022-01-28_21h08.23.492,lexical_decision_task_DD_L2,2021.2.3,MacIntel,60.0024001,,,,,,,,,,,1.3283,0,,,,,,,,,,,,,,,,,,,,,,,,0.083576389,-0.254644097,0,0,0,,,,,,,BANNER,LB,m,y,./images/BANNERLB.png,,,,,,,,z,0,1.3283,,,,,,,,0,13,13,52,1,
,,,,,,,,,,,,,,,,,199723,18,2022-01-28_21h08.23.492,lexical_decision_task_DD_L2,2021.2.3,MacIntel,60.0024001,,,,,,,,,,,0.8164,0,,,,,,,,,,,,,,,,,,,,,,,,0.083576389,-0.254644097,0,0,0,,,,,,,BONNET,C,m,y,./images/BONNET.png,,,,,,,,z,0,0.8164,,,,,,,,0,14,14,11,1,
,,,,,,,,,,,,,,,,,199723,18,2022-01-28_21h08.23.492,lexical_decision_task_DD_L2,2021.2.3,MacIntel,60.0024001,,,,,,,,,,,1.369,0,,,,,,,,,,,,,,,,,,,,,,,,0.083576389,-0.254644097,0,0,0,,,,,,,CANYON,LB,m,y,./images/CANYONLB.png,,,,,,,,z,0,1.369,,,,,,,,0,15,15,34,1,
,,,,,,,,,,,,,,,,,199723,18,2022-01-28_21h08.23.492,lexical_decision_task_DD_L2,2021.2.3,MacIntel,60.0024001,,,,,,,,,,,0.7188,1,,,,,,,,,,,,,,,,,,,,,,,,0.083576389,-0.254644097,0,0,0,,,,,,,MONKEY,HB,z,y,./images/MONKEYHB.png,,,,,,,,z,1,0.7188,,,,,,,,0,16,16,129,1,
,,,,,,,,,,,,,,,,,199723,18,2022-01-28_21h08.23.492,lexical_decision_task_DD_L2,2021.2.3,MacIntel,60.0024001,,,,,,,,,,,1.1579,1,,,,,,,,,,,,,,,,,,,,,,,,0.083576389,-0.254644097,0,0,0,,,,,,,STEAK,LB,z,y,./images/STEAKLB.png,,,,,,,,z,1,1.1579,,,,,,,,0,17,17,115,1,
,,,,,,,,,,,,,,,,,199723,18,2022-01-28_21h08.23.492,lexical_decision_task_DD_L2,2021.2.3,MacIntel,60.0024001,,,,,,,,,,,0.8689,1,,,,,,,,,,,,,,,,,,,,,,,,0.083576389,-0.254644097,0,0,0,,,,,,,SKIING,C,m,y,./images/SKIING.png,,,,,,,,m,1,0.8689,,,,,,,,0,18,18,17,1,
,,,,,,,,,,,,,,,,,199723,18,2022-01-28_21h08.23.492,lexical_decision_task_DD_L2,2021.2.3,MacIntel,60.0024001,,,,,,,,,,,1.337,1,,,,,,,,,,,,,,,,,,,,,,,,0.083576389,-0.254644097,0,0,0,,,,,,,PLANET,C,z,y,./images/PLANET.png,,,,,,,,z,1,1.337,,,,,,,,0,19,19,164,1,
,,,,,,,,,,,,,,,,,199723,18,2022-01-28_21h08.23.492,lexical_decision_task_DD_L2,2021.2.3,MacIntel,60.0024001,,,,,,,,,,,1.3353,0,,,,,,,,,,,,,,,,,,,,,,,,0.083576389,-0.254644097,0,0,0,,,,,,,LAGOON,C,z,y,./images/LAGOON.png,,,,,,,,m,0,1.3353,,,,,,,,0,20,20,131,1,
,,,,,,,,,,,,,,,,,199723,18,2022-01-28_21h08.23.492,lexical_decision_task_DD_L2,2021.2.3,MacIntel,60.0024001,,,,,,,,,,,0.6877,1,,,,,,,,,,,,,,,,,,,,,,,,0.083576389,-0.254644097,0,0,0,,,,,,,MOSQUE,LB,m,y,./images/MOSQUELB.png,,,,,,,,m,1,0.6877,,,,,,,,0,21,21,43,1,
,,,,,,,,,,,,,,,,,199723,18,2022-01-28_21h08.23.492,lexical_decision_task_DD_L2,2021.2.3,MacIntel,60.0024001,,,,,,,,,,,1.9334,1,,,,,,,,,,,,,,,,,,,,,,,,0.083576389,-0.254644097,0,0,0,,,,,,,GARDEN,LB,z,y,./images/GARDENLB.png,,,,,,,,z,1,1.9334,,,,,,,,0,22,22,94,1,
,,,,,,,,,,,,,,,,,199723,18,2022-01-28_21h08.23.492,lexical_decision_task_DD_L2,2021.2.3,MacIntel,60.0024001,,,,,,,,,,,0.6703,1,,,,,,,,,,,,,,,,,,,,,,,,0.083576389,-0.254644097,0,0,0,,,,,,,BARREL,C,m,y,./images/BARREL.png,,,,,,,,m,1,0.6703,,,,,,,,0,23,23,32,1,
,,,,,,,,,,,,,,,,,199723,18,2022-01-28_21h08.23.492,lexical_decision_task_DD_L2,2021.2.3,MacIntel,60.0024001,,,,,,,,,,,1.0023,0,,,,,,,,,,,,,,,,,,,,,,,,0.083576389,-0.254644097,0,0,0,,,,,,,SLOPE,HB,z,y,./images/SLOPEHB.png,,,,,,,,m,0,1.0023,,,,,,,,0,24,24,114,1,
,,,,,,,,,,,,,,,,,199723,18,2022-01-28_21h08.23.492,lexical_decision_task_DD_L2,2021.2.3,MacIntel,60.0024001,,,,,,,,,,,1.02,0,,,,,,,,,,,,,,,,,,,,,,,,0.083576389,-0.254644097,0,0,0,,,,,,,CARPET,C,m,y,./images/CARPET.png,,,,,,,,z,0,1.02,,,,,,,,0,25,25,53,1,
,,,,,,,,,,,,,,,,,199723,18,2022-01-28_21h08.23.492,lexical_decision_task_DD_L2,2021.2.3,MacIntel,60.0024001,,,,,,,,,,,0.9816,1,,,,,,,,,,,,,,,,,,,,,,,,0.083576389,-0.254644097,0,0,0,,,,,,,JUNGLE,C,m,y,./images/JUNGLE.png,,,,,,,,m,1,0.9816,,,,,,,,0,26,26,83,1,
,,,,,,,,,,,,,,,,,199723,18,2022-01-28_21h08.23.492,lexical_decision_task_DD_L2,2021.2.3,MacIntel,60.0024001,,,,,,,,,,,1.3357,1,,,,,,,,,,,,,,,,,,,,,,,,0.083576389,-0.254644097,0,0,0,,,,,,,POSTER,C,z,y,./images/POSTER.png,,,,,,,,z,1,1.3357,,,,,,,,0,27,27,137,1,
,,,,,,,,,,,,,,,,,199723,18,2022-01-28_21h08.23.492,lexical_decision_task_DD_L2,2021.2.3,MacIntel,60.0024001,,,,,,,,,,,1.1318,1,,,,,,,,,,,,,,,,,,,,,,,,0.083576389,-0.254644097,0,0,0,,,,,,,GRAIN,HB,m,y,./images/GRAINHB.png,,,,,,,,m,1,1.1318,,,,,,,,0,28,28,75,1,
,,,,,,,,,,,,,,,,,199723,18,2022-01-28_21h08.23.492,lexical_decision_task_DD_L2,2021.2.3,MacIntel,60.0024001,,,,,,,,,,,0.9182,0,,,,,,,,,,,,,,,,,,,,,,,,0.083576389,-0.254644097,0,0,0,,,,,,,MOTOR,LB,m,y,./images/MOTORLB.png,,,,,,,,z,0,0.9182,,,,,,,,0,29,29,13,1,
,,,,,,,,,,,,,,,,,199723,18,2022-01-28_21h08.23.492,lexical_decision_task_DD_L2,2021.2.3,MacIntel,60.0024001,,,,,,,,,,,2.652,1,,,,,,,,,,,,,,,,,,,,,,,,0.083576389,-0.254644097,0,0,0,,,,,,,BASKET,C,z,y,./images/BASKET.png,,,,,,,,z,1,2.652,,,,,,,,0,30,30,128,1,
,,,,,,,,,,,,,,,,,199723,18,2022-01-28_21h08.23.492,lexical_decision_task_DD_L2,2021.2.3,MacIntel,60.0024001,,,,,,,,,,,1.2232,0,,,,,,,,,,,,,,,,,,,,,,,,0.083576389,-0.254644097,0,0,0,,,,,,,COLLAR,HB,z,y,./images/COLLARHB.png,,,,,,,,m,0,1.2232,,,,,,,,0,31,31,99,1,
,,,,,,,,,,,,,,,,,199723,18,2022-01-28_21h08.23.492,lexical_decision_task_DD_L2,2021.2.3,MacIntel,60.0024001,,,,,,,,,,,0.7581,1,,,,,,,,,,,,,,,,,,,,,,,,0.083576389,-0.254644097,0,0,0,,,,,,,BROOM,HB,z,y,./images/BROOMHB.png,,,,,,,,z,1,0.7581,,,,,,,,0,32,32,162,1,
,,,,,,,,,,,,,,,,,199723,18,2022-01-28_21h08.23.492,lexical_decision_task_DD_L2,2021.2.3,MacIntel,60.0024001,,,,,,,,,,,0.671,1,,,,,,,,,,,,,,,,,,,,,,,,0.083576389,-0.254644097,0,0,0,,,,,,,TULIP,C,m,y,./images/TULIP.png,,,,,,,,m,1,0.671,,,,,,,,0,33,33,8,1,
,,,,,,,,,,,,,,,,,199723,18,2022-01-28_21h08.23.492,lexical_decision_task_DD_L2,2021.2.3,MacIntel,60.0024001,,,,,,,,,,,0.7317,1,,,,,,,,,,,,,,,,,,,,,,,,0.083576389,-0.254644097,0,0,0,,,,,,,ARTIST,LB,z,y,./images/ARTISTLB.png,,,,,,,,z,1,0.7317,,,,,,,,0,34,34,145,1,
,,,,,,,,,,,,,,,,,199723,18,2022-01-28_21h08.23.492,lexical_decision_task_DD_L2,2021.2.3,MacIntel,60.0024001,,,,,,,,,,,1.5024,1,,,,,,,,,,,,,,,,,,,,,,,,0.083576389,-0.254644097,0,0,0,,,,,,,DESERT,LB,z,y,./images/DESERTLB.png,,,,,,,,z,1,1.5024,,,,,,,,0,35,35,136,1,
,,,,,,,,,,,,,,,,,199723,18,2022-01-28_21h08.23.492,lexical_decision_task_DD_L2,2021.2.3,MacIntel,60.0024001,,,,,,,,,,,1.1694,1,,,,,,,,,,,,,,,,,,,,,,,,0.083576389,-0.254644097,0,0,0,,,,,,,GREASE,HB,m,y,./images/GREASEHB.png,,,,,,,,m,1,1.1694,,,,,,,,0,36,36,15,1,
,,,,,,,,,,,,,,,,,199723,18,2022-01-28_21h08.23.492,lexical_decision_task_DD_L2,2021.2.3,MacIntel,60.0024001,,,,,,,,,,,1.2665,0,,,,,,,,,,,,,,,,,,,,,,,,0.083576389,-0.254644097,0,0,0,,,,,,,FLASK,HB,z,y,./images/FLASKHB.png,,,,,,,,m,0,1.2665,,,,,,,,0,37,37,156,1,
,,,,,,,,,,,,,,,,,199723,18,2022-01-28_21h08.23.492,lexical_decision_task_DD_L2,2021.2.3,MacIntel,60.0024001,,,,,,,,,,,0.7838,0,,,,,,,,,,,,,,,,,,,,,,,,0.083576389,-0.254644097,0,0,0,,,,,,,RHINO,HB,m,y,./images/RHINOHB.png,,,,,,,,z,0,0.7838,,,,,,,,0,38,38,9,1,
,,,,,,,,,,,,,,,,,199723,18,2022-01-28_21h08.23.492,lexical_decision_task_DD_L2,2021.2.3,MacIntel,60.0024001,,,,,,,,,,,0.8055,1,,,,,,,,,,,,,,,,,,,,,,,,0.083576389,-0.254644097,0,0,0,,,,,,,BEARD,C,m,y,./images/BEARD.png,,,,,,,,m,1,0.8055,,,,,,,,0,39,39,2,1,
,,,,,,,,,,,,,,,,,199723,18,2022-01-28_21h08.23.492,lexical_decision_task_DD_L2,2021.2.3,MacIntel,60.0024001,,,,,,,,,,,0.9401,1,,,,,,,,,,,,,,,,,,,,,,,,0.083576389,-0.254644097,0,0,0,,,,,,,BUTTER,HB,z,y,./images/BUTTERHB.png,,,,,,,,z,1,0.9401,,,,,,,,0,40,40,111,1,
,,,,,,,,,,,,,,,,,199723,18,2022-01-28_21h08.23.492,lexical_decision_task_DD_L2,2021.2.3,MacIntel,60.0024001,,,,,,,,,,,2.3579,1,,,,,,,,,,,,,,,,,,,,,,,,0.07827691,-0.411710069,1,0,0,,,,,,,POKER,LB,z,y,./images/POKERLB.png,,,,,,,,z,1,2.3579,,,,,,,,0,41,41,151,1,break_done_button
,,,,,,,,,,,,,,,,,199723,18,2022-01-28_21h08.23.492,lexical_decision_task_DD_L2,2021.2.3,MacIntel,60.0024001,,,,,,,,,,,2.0746,1,,,,,,,,,,,,,,,,,,,,,,,,0.012690972,-0.003450521,0,0,0,,,,,,,BRIDE,LB,z,y,./images/BRIDELB.png,,,,,,,,z,1,2.0746,,,,,,,,0,42,42,148,1,
,,,,,,,,,,,,,,,,,199723,18,2022-01-28_21h08.23.492,lexical_decision_task_DD_L2,2021.2.3,MacIntel,60.0024001,,,,,,,,,,,2.1506,1,,,,,,,,,,,,,,,,,,,,,,,,0.012690972,-0.003450521,0,0,0,,,,,,,DONKEY,LB,z,y,./images/DONKEYLB.png,,,,,,,,z,1,2.1506,,,,,,,,0,43,43,103,1,
,,,,,,,,,,,,,,,,,199723,18,2022-01-28_21h08.23.492,lexical_decision_task_DD_L2,2021.2.3,MacIntel,60.0024001,,,,,,,,,,,1,1,,,,,,,,,,,,,,,,,,,,,,,,0.012690972,-0.003450521,0,0,0,,,,,,,CLOUD,C,z,y,./images/CLOUD.png,,,,,,,,z,1,1,,,,,,,,0,44,44,110,1,
,,,,,,,,,,,,,,,,,199723,18,2022-01-28_21h08.23.492,lexical_decision_task_DD_L2,2021.2.3,MacIntel,60.0024001,,,,,,,,,,,0.7012,1,,,,,,,,,,,,,,,,,,,,,,,,0.012690972,-0.003450521,0,0,0,,,,,,,URINE,LB,m,y,./images/URINELB.png,,,,,,,,m,1,0.7012,,,,,,,,0,45,45,70,1,
,,,,,,,,,,,,,,,,,199723,18,2022-01-28_21h08.23.492,lexical_decision_task_DD_L2,2021.2.3,MacIntel,60.0024001,,,,,,,,,,,0.8396,1,,,,,,,,,,,,,,,,,,,,,,,,0.012690972,-0.003450521,0,0,0,,,,,,,PENCE,LB,m,y,./images/PENCELB.png,,,,,,,,m,1,0.8396,,,,,,,,0,46,46,16,1,
,,,,,,,,,,,,,,,,,199723,18,2022-01-28_21h08.23.492,lexical_decision_task_DD_L2,2021.2.3,MacIntel,60.0024001,,,,,,,,,,,0.567,1,,,,,,,,,,,,,,,,,,,,,,,,0.012690972,-0.003450521,0,0,0,,,,,,,CANDLE,LB,m,y,./images/CANDLELB.png,,,,,,,,m,1,0.567,,,,,,,,0,47,47,61,1,
,,,,,,,,,,,,,,,,,199723,18,2022-01-28_21h08.23.492,lexical_decision_task_DD_L2,2021.2.3,MacIntel,60.0024001,,,,,,,,,,,0.9657,0,,,,,,,,,,,,,,,,,,,,,,,,0.012690972,-0.003450521,0,0,0,,,,,,,THROAT,HB,m,y,./images/THROATHB.png,,,,,,,,z,0,0.9657,,,,,,,,0,48,48,36,1,
,,,,,,,,,,,,,,,,,199723,18,2022-01-28_21h08.23.492,lexical_decision_task_DD_L2,2021.2.3,MacIntel,60.0024001,,,,,,,,,,,1.4527,1,,,,,,,,,,,,,,,,,,,,,,,,0.012690972,-0.003450521,0,0,0,,,,,,,BRUSH,C,z,y,./images/BRUSH.png,,,,,,,,z,1,1.4527,,,,,,,,0,49,49,143,1,
,,,,,,,,,,,,,,,,,199723,18,2022-01-28_21h08.23.492,lexical_decision_task_DD_L2,2021.2.3,MacIntel,60.0024001,,,,,,,,,,,0.9827,1,,,,,,,,,,,,,,,,,,,,,,,,0.012690972,-0.003450521,0,0,0,,,,,,,FLESH,HB,z,y,./images/FLESHHB.png,,,,,,,,z,1,0.9827,,,,,,,,0,50,50,108,1,
,,,,,,,,,,,,,,,,,199723,18,2022-01-28_21h08.23.492,lexical_decision_task_DD_L2,2021.2.3,MacIntel,60.0024001,,,,,,,,,,,1.2366,1,,,,,,,,,,,,,,,,,,,,,,,,0.012690972,-0.003450521,0,0,0,,,,,,,HAMMER,HB,z,y,./images/HAMMERHB.png,,,,,,,,z,1,1.2366,,,,,,,,0,51,51,159,1,
,,,,,,,,,,,,,,,,,199723,18,2022-01-28_21h08.23.492,lexical_decision_task_DD_L2,2021.2.3,MacIntel,60.0024001,,,,,,,,,,,0.7657,1,,,,,,,,,,,,,,,,,,,,,,,,0.012690972,-0.003450521,0,0,0,,,,,,,SHORE,HB,m,y,./images/SHOREHB.png,,,,,,,,m,1,0.7657,,,,,,,,0,52,52,12,1,
,,,,,,,,,,,,,,,,,199723,18,2022-01-28_21h08.23.492,lexical_decision_task_DD_L2,2021.2.3,MacIntel,60.0024001,,,,,,,,,,,0.9521,1,,,,,,,,,,,,,,,,,,,,,,,,0.012690972,-0.003450521,0,0,0,,,,,,,FALCON,LB,m,y,./images/FALCONLB.png,,,,,,,,m,1,0.9521,,,,,,,,0,53,53,28,1,
,,,,,,,,,,,,,,,,,199723,18,2022-01-28_21h08.23.492,lexical_decision_task_DD_L2,2021.2.3,MacIntel,60.0024001,,,,,,,,,,,0.735,1,,,,,,,,,,,,,,,,,,,,,,,,0.012690972,-0.003450521,0,0,0,,,,,,,TRIPOD,HB,m,y,./images/TRIPODHB.png,,,,,,,,m,1,0.735,,,,,,,,0,54,54,54,1,
,,,,,,,,,,,,,,,,,199723,18,2022-01-28_21h08.23.492,lexical_decision_task_DD_L2,2021.2.3,MacIntel,60.0024001,,,,,,,,,,,0.5251,1,,,,,,,,,,,,,,,,,,,,,,,,0.012690972,-0.003450521,0,0,0,,,,,,,STORM,HB,m,y,./images/STORMHB.png,,,,,,,,m,1,0.5251,,,,,,,,0,55,55,30,1,
,,,,,,,,,,,,,,,,,199723,18,2022-01-28_21h08.23.492,lexical_decision_task_DD_L2,2021.2.3,MacIntel,60.0024001,,,,,,,,,,,0.6662,1,,,,,,,,,,,,,,,,,,,,,,,,0.012690972,-0.003450521,0,0,0,,,,,,,FINGER,HB,m,y,./images/FINGERHB.png,,,,,,,,m,1,0.6662,,,,,,,,0,56,56,3,1,
,,,,,,,,,,,,,,,,,199723,18,2022-01-28_21h08.23.492,lexical_decision_task_DD_L2,2021.2.3,MacIntel,60.0024001,,,,,,,,,,,0.8513,0,,,,,,,,,,,,,,,,,,,,,,,,0.012690972,-0.003450521,0,0,0,,,,,,,BERRY,C,m,y,./images/BERRY.png,,,,,,,,z,0,0.8513,,,,,,,,0,57,57,47,1,
,,,,,,,,,,,,,,,,,199723,18,2022-01-28_21h08.23.492,lexical_decision_task_DD_L2,2021.2.3,MacIntel,60.0024001,,,,,,,,,,,0.6154,1,,,,,,,,,,,,,,,,,,,,,,,,0.012690972,-0.003450521,0,0,0,,,,,,,JAGUAR,HB,m,y,./images/JAGUARHB.png,,,,,,,,m,1,0.6154,,,,,,,,0,58,58,18,1,
,,,,,,,,,,,,,,,,,199723,18,2022-01-28_21h08.23.492,lexical_decision_task_DD_L2,2021.2.3,MacIntel,60.0024001,,,,,,,,,,,0.6518,1,,,,,,,,,,,,,,,,,,,,,,,,0.012690972,-0.003450521,0,0,0,,,,,,,SAUCE,HB,z,y,./images/SAUCEHB.png,,,,,,,,z,1,0.6518,,,,,,,,0,59,59,135,1,
,,,,,,,,,,,,,,,,,199723,18,2022-01-28_21h08.23.492,lexical_decision_task_DD_L2,2021.2.3,MacIntel,60.0024001,,,,,,,,,,,0.8716,1,,,,,,,,,,,,,,,,,,,,,,,,0.012690972,-0.003450521,0,0,0,,,,,,,KITTEN,HB,m,y,./images/KITTENHB.png,,,,,,,,m,1,0.8716,,,,,,,,0,60,60,45,1,
,,,,,,,,,,,,,,,,,199723,18,2022-01-28_21h08.23.492,lexical_decision_task_DD_L2,2021.2.3,MacIntel,60.0024001,,,,,,,,,,,0.7529,1,,,,,,,,,,,,,,,,,,,,,,,,0.012690972,-0.003450521,0,0,0,,,,,,,PEBBLE,LB,z,y,./images/PEBBLELB.png,,,,,,,,z,1,0.7529,,,,,,,,0,61,61,166,1,
,,,,,,,,,,,,,,,,,199723,18,2022-01-28_21h08.23.492,lexical_decision_task_DD_L2,2021.2.3,MacIntel,60.0024001,,,,,,,,,,,1.0015,1,,,,,,,,,,,,,,,,,,,,,,,,0.012690972,-0.003450521,0,0,0,,,,,,,CLIFF,C,z,y,./images/CLIFF.png,,,,,,,,z,1,1.0015,,,,,,,,0,62,62,92,1,
,,,,,,,,,,,,,,,,,199723,18,2022-01-28_21h08.23.492,lexical_decision_task_DD_L2,2021.2.3,MacIntel,60.0024001,,,,,,,,,,,0.8633,1,,,,,,,,,,,,,,,,,,,,,,,,0.012690972,-0.003450521,0,0,0,,,,,,,RULER,LB,z,y,./images/RULERLB.png,,,,,,,,z,1,0.8633,,,,,,,,0,63,63,163,1,
,,,,,,,,,,,,,,,,,199723,18,2022-01-28_21h08.23.492,lexical_decision_task_DD_L2,2021.2.3,MacIntel,60.0024001,,,,,,,,,,,1.1003,1,,,,,,,,,,,,,,,,,,,,,,,,0.012690972,-0.003450521,0,0,0,,,,,,,CRATER,HB,z,y,./images/CRATERHB.png,,,,,,,,z,1,1.1003,,,,,,,,0,64,64,87,1,
,,,,,,,,,,,,,,,,,199723,18,2022-01-28_21h08.23.492,lexical_decision_task_DD_L2,2021.2.3,MacIntel,60.0024001,,,,,,,,,,,0.5973,0,,,,,,,,,,,,,,,,,,,,,,,,0.012690972,-0.003450521,0,0,0,,,,,,,TOWEL,LB,z,y,./images/TOWELLB.png,,,,,,,,m,0,0.5973,,,,,,,,0,65,65,85,1,
,,,,,,,,,,,,,,,,,199723,18,2022-01-28_21h08.23.492,lexical_decision_task_DD_L2,2021.2.3,MacIntel,60.0024001,,,,,,,,,,,0.8324,0,,,,,,,,,,,,,,,,,,,,,,,,0.012690972,-0.003450521,0,0,0,,,,,,,WALRUS,C,m,y,./images/WALRUS.png,,,,,,,,z,0,0.8324,,,,,,,,0,66,66,23,1,
,,,,,,,,,,,,,,,,,199723,18,2022-01-28_21h08.23.492,lexical_decision_task_DD_L2,2021.2.3,MacIntel,60.0024001,,,,,,,,,,,0.817,1,,,,,,,,,,,,,,,,,,,,,,,,0.012690972,-0.003450521,0,0,0,,,,,,,MUSCLE,LB,m,y,./images/MUSCLELB.png,,,,,,,,m,1,0.817,,,,,,,,0,67,67,4,1,
,,,,,,,,,,,,,,,,,199723,18,2022-01-28_21h08.23.492,lexical_decision_task_DD_L2,2021.2.3,MacIntel,60.0024001,,,,,,,,,,,2.5019,1,,,,,,,,,,,,,,,,,,,,,,,,0.012690972,-0.003450521,0,0,0,,,,,,,PASTA,C,m,y,./images/PASTA.png,,,,,,,,m,1,2.5019,,,,,,,,0,68,68,5,1,
,,,,,,,,,,,,,,,,,199723,18,2022-01-28_21h08.23.492,lexical_decision_task_DD_L2,2021.2.3,MacIntel,60.0024001,,,,,,,,,,,1.9214,1,,,,,,,,,,,,,,,,,,,,,,,,0.012690972,-0.003450521,0,0,0,,,,,,,MIDGET,LB,z,y,./images/MIDGETLB.png,,,,,,,,z,1,1.9214,,,,,,,,0,69,69,160,1,
,,,,,,,,,,,,,,,,,199723,18,2022-01-28_21h08.23.492,lexical_decision_task_DD_L2,2021.2.3,MacIntel,60.0024001,,,,,,,,,,,0.9926,0,,,,,,,,,,,,,,,,,,,,,,,,0.012690972,-0.003450521,0,0,0,,,,,,,DRILL,HB,z,y,./images/DRILLHB.png,,,,,,,,m,0,0.9926,,,,,,,,0,70,70,165,1,
,,,,,,,,,,,,,,,,,199723,18,2022-01-28_21h08.23.492,lexical_decision_task_DD_L2,2021.2.3,MacIntel,60.0024001,,,,,,,,,,,0.7748,1,,,,,,,,,,,,,,,,,,,,,,,,0.012690972,-0.003450521,0,0,0,,,,,,,MEDAL,C,z,y,./images/MEDAL.png,,,,,,,,z,1,0.7748,,,,,,,,0,71,71,95,1,
,,,,,,,,,,,,,,,,,199723,18,2022-01-28_21h08.23.492,lexical_decision_task_DD_L2,2021.2.3,MacIntel,60.0024001,,,,,,,,,,,0.8182,1,,,,,,,,,,,,,,,,,,,,,,,,0.012690972,-0.003450521,0,0,0,,,,,,,HOCKEY,C,z,y,./images/HOCKEY.png,,,,,,,,z,1,0.8182,,,,,,,,0,72,72,116,1,
,,,,,,,,,,,,,,,,,199723,18,2022-01-28_21h08.23.492,lexical_decision_task_DD_L2,2021.2.3,MacIntel,60.0024001,,,,,,,,,,,0.9338,1,,,,,,,,,,,,,,,,,,,,,,,,0.012690972,-0.003450521,0,0,0,,,,,,,CANOE,LB,z,y,./images/CANOELB.png,,,,,,,,z,1,0.9338,,,,,,,,0,73,73,142,1,
,,,,,,,,,,,,,,,,,199723,18,2022-01-28_21h08.23.492,lexical_decision_task_DD_L2,2021.2.3,MacIntel,60.0024001,,,,,,,,,,,0.6818,1,,,,,,,,,,,,,,,,,,,,,,,,0.012690972,-0.003450521,0,0,0,,,,,,,SHIELD,HB,z,y,./images/SHIELDHB.png,,,,,,,,z,1,0.6818,,,,,,,,0,74,74,132,1,
,,,,,,,,,,,,,,,,,199723,18,2022-01-28_21h08.23.492,lexical_decision_task_DD_L2,2021.2.3,MacIntel,60.0024001,,,,,,,,,,,0.7755,0,,,,,,,,,,,,,,,,,,,,,,,,0.012690972,-0.003450521,0,0,0,,,,,,,STREAM,C,z,y,./images/STREAM.png,,,,,,,,m,0,0.7755,,,,,,,,0,75,75,125,1,
,,,,,,,,,,,,,,,,,199723,18,2022-01-28_21h08.23.492,lexical_decision_task_DD_L2,2021.2.3,MacIntel,60.0024001,,,,,,,,,,,0.7875,0,,,,,,,,,,,,,,,,,,,,,,,,0.012690972,-0.003450521,0,0,0,,,,,,,STOOL,LB,z,y,./images/STOOLLB.png,,,,,,,,m,0,0.7875,,,,,,,,0,76,76,127,1,
,,,,,,,,,,,,,,,,,199723,18,2022-01-28_21h08.23.492,lexical_decision_task_DD_L2,2021.2.3,MacIntel,60.0024001,,,,,,,,,,,0.6225,1,,,,,,,,,,,,,,,,,,,,,,,,0.012690972,-0.003450521,0,0,0,,,,,,,DRUMS,LB,m,y,./images/DRUMSLB.png,,,,,,,,m,1,0.6225,,,,,,,,0,77,77,49,1,
,,,,,,,,,,,,,,,,,199723,18,2022-01-28_21h08.23.492,lexical_decision_task_DD_L2,2021.2.3,MacIntel,60.0024001,,,,,,,,,,,1.1234,0,,,,,,,,,,,,,,,,,,,,,,,,0.012690972,-0.003450521,0,0,0,,,,,,,SNAKE,LB,z,y,./images/SNAKELB.png,,,,,,,,m,0,1.1234,,,,,,,,0,78,78,124,1,
,,,,,,,,,,,,,,,,,199723,18,2022-01-28_21h08.23.492,lexical_decision_task_DD_L2,2021.2.3,MacIntel,60.0024001,,,,,,,,,,,0.7509,1,,,,,,,,,,,,,,,,,,,,,,,,0.012690972,-0.003450521,0,0,0,,,,,,,JUMPER,C,z,y,./images/JUMPER.png,,,,,,,,z,1,0.7509,,,,,,,,0,79,79,158,1,
,,,,,,,,,,,,,,,,,199723,18,2022-01-28_21h08.23.492,lexical_decision_task_DD_L2,2021.2.3,MacIntel,60.0024001,,,,,,,,,,,1.1168,1,,,,,,,,,,,,,,,,,,,,,,,,0.012690972,-0.003450521,0,0,0,,,,,,,TOMATO,HB,m,y,./images/TOMATOHB.png,,,,,,,,m,1,1.1168,,,,,,,,0,80,80,0,1,
,,,,,,,,,,,,,,,,,199723,18,2022-01-28_21h08.23.492,lexical_decision_task_DD_L2,2021.2.3,MacIntel,60.0024001,,,,,,,,,,,0.4668,0,,,,,,,,,,,,,,,,,,,,,,,,0.012690972,-0.003450521,0,0,0,,,,,,,MOOSE,HB,m,y,./images/MOOSEHB.png,,,,,,,,z,0,0.4668,,,,,,,,0,81,81,57,1,
,,,,,,,,,,,,,,,,,199723,18,2022-01-28_21h08.23.492,lexical_decision_task_DD_L2,2021.2.3,MacIntel,60.0024001,,,,,,,,,,,0.8852,1,,,,,,,,,,,,,,,,,,,,,,,,0.012690972,-0.003450521,0,0,0,,,,,,,TIGER,LB,z,y,./images/TIGERLB.png,,,,,,,,z,1,0.8852,,,,,,,,0,82,82,121,1,
,,,,,,,,,,,,,,,,,199723,18,2022-01-28_21h08.23.492,lexical_decision_task_DD_L2,2021.2.3,MacIntel,60.0024001,,,,,,,,,,,1.051,0,,,,,,,,,,,,,,,,,,,,,,,,0.012690972,-0.003450521,0,0,0,space,,,,,,JELLY,LB,m,y,./images/JELLYLB.png,0.8423,,,,,,,z,0,1.051,,,,,,,,0,83,83,64,1,
,,,,,,,,,,,,,,,,,199723,18,2022-01-28_21h08.23.492,lexical_decision_task_DD_L2,2021.2.3,MacIntel,60.0024001,,,,,,,,,,,0.7339,0,,,,,,,,,,,,,,,,,,,,,,,,0.012690972,-0.003450521,0,0,0,,,,,,,SAILOR,LB,m,y,./images/SAILORLB.png,,,,,,,,z,0,0.7339,,,,,,,,0,84,84,67,1,
,,,,,,,,,,,,,,,,,199723,18,2022-01-28_21h08.23.492,lexical_decision_task_DD_L2,2021.2.3,MacIntel,60.0024001,,,,,,,,,,,0.7071,1,,,,,,,,,,,,,,,,,,,,,,,,0.012690972,-0.003450521,0,0,0,,,,,,,ENGINE,C,z,y,./images/ENGINE.png,,,,,,,,z,1,0.7071,,,,,,,,0,85,85,122,1,
,,,,,,,,,,,,,,,,,199723,18,2022-01-28_21h08.23.492,lexical_decision_task_DD_L2,2021.2.3,MacIntel,60.0024001,,,,,,,,,,,0.6931,1,,,,,,,,,,,,,,,,,,,,,,,,0.012690972,-0.003450521,0,0,0,,,,,,,NOOSE,HB,m,y,./images/NOOSEHB.png,,,,,,,,m,1,0.6931,,,,,,,,0,86,86,72,1,
,,,,,,,,,,,,,,,,,199723,18,2022-01-28_21h08.23.492,lexical_decision_task_DD_L2,2021.2.3,MacIntel,60.0024001,,,,,,,,,,,1.5016,1,,,,,,,,,,,,,,,,,,,,,,,,0.012690972,-0.003450521,0,0,0,,,,,,,FENCE,C,z,y,./images/FENCE.png,,,,,,,,z,1,1.5016,,,,,,,,0,87,87,98,1,
,,,,,,,,,,,,,,,,,199723,18,2022-01-28_21h08.23.492,lexical_decision_task_DD_L2,2021.2.3,MacIntel,60.0024001,,,,,,,,,,,0.9356,1,,,,,,,,,,,,,,,,,,,,,,,,0.012690972,-0.003450521,0,0,0,,,,,,,CURRY,HB,z,y,./images/CURRYHB.png,,,,,,,,z,1,0.9356,,,,,,,,0,88,88,144,1,
,,,,,,,,,,,,,,,,,199723,18,2022-01-28_21h08.23.492,lexical_decision_task_DD_L2,2021.2.3,MacIntel,60.0024001,,,,,,,,,,,1.7414,1,,,,,,,,,,,,,,,,,,,,,,,,0.012690972,-0.003450521,0,0,0,,,,,,,SWEAT,HB,m,y,./images/SWEATHB.png,,,,,,,,m,1,1.7414,,,,,,,,0,89,89,66,1,
,,,,,,,,,,,,,,,,,199723,18,2022-01-28_21h08.23.492,lexical_decision_task_DD_L2,2021.2.3,MacIntel,60.0024001,,,,,,,,,,,0.5951,0,,,,,,,,,,,,,,,,,,,,,,,,0.012690972,-0.003450521,0,0,0,,,,,,,SUNSET,LB,m,y,./images/SUNSETLB.png,,,,,,,,z,0,0.5951,,,,,,,,0,90,90,82,1,
,,,,,,,,,,,,,,,,,199723,18,2022-01-28_21h08.23.492,lexical_decision_task_DD_L2,2021.2.3,MacIntel,60.0024001,,,,,,,,,,,0.7223,1,,,,,,,,,,,,,,,,,,,,,,,,0.012690972,-0.003450521,0,0,0,,,,,,,PISTOL,C,z,y,./images/PISTOL.png,,,,,,,,z,1,0.7223,,,,,,,,0,91,91,113,1,
,,,,,,,,,,,,,,,,,199723,18,2022-01-28_21h08.23.492,lexical_decision_task_DD_L2,2021.2.3,MacIntel,60.0024001,,,,,,,,,,,0.7714,0,,,,,,,,,,,,,,,,,,,,,,,,0.012690972,-0.003450521,0,0,0,,,,,,,SNACK,LB,m,y,./images/SNACKLB.png,,,,,,,,z,0,0.7714,,,,,,,,0,92,92,73,1,
,,,,,,,,,,,,,,,,,199723,18,2022-01-28_21h08.23.492,lexical_decision_task_DD_L2,2021.2.3,MacIntel,60.0024001,,,,,,,,,,,0.5653,1,,,,,,,,,,,,,,,,,,,,,,,,0.012690972,-0.003450521,0,0,0,,,,,,,QUILL,LB,m,y,./images/QUILLLB.png,,,,,,,,m,1,0.5653,,,,,,,,0,93,93,31,1,
,,,,,,,,,,,,,,,,,199723,18,2022-01-28_21h08.23.492,lexical_decision_task_DD_L2,2021.2.3,MacIntel,60.0024001,,,,,,,,,,,0.5822,1,,,,,,,,,,,,,,,,,,,,,,,,0.012690972,-0.003450521,0,0,0,,,,,,,LADDER,C,m,y,./images/LADDER.png,,,,,,,,m,1,0.5822,,,,,,,,0,94,94,38,1,
,,,,,,,,,,,,,,,,,199723,18,2022-01-28_21h08.23.492,lexical_decision_task_DD_L2,2021.2.3,MacIntel,60.0024001,,,,,,,,,,,0.5328,1,,,,,,,,,,,,,,,,,,,,,,,,0.012690972,-0.003450521,0,0,0,,,,,,,CRUMB,C,m,y,./images/CRUMB.png,,,,,,,,m,1,0.5328,,,,,,,,0,95,95,29,1,
,,,,,,,,,,,,,,,,,199723,18,2022-01-28_21h08.23.492,lexical_decision_task_DD_L2,2021.2.3,MacIntel,60.0024001,,,,,,,,,,,0.6035,0,,,,,,,,,,,,,,,,,,,,,,,,0.012690972,-0.003450521,0,0,0,,,,,,,SPINE,C,z,y,./images/SPINE.png,,,,,,,,m,0,0.6035,,,,,,,,0,96,96,149,1,
,,,,,,,,,,,,,,,,,199723,18,2022-01-28_21h08.23.492,lexical_decision_task_DD_L2,2021.2.3,MacIntel,60.0024001,,,,,,,,,,,0.5689,1,,,,,,,,,,,,,,,,,,,,,,,,0.012690972,-0.003450521,0,0,0,,,,,,,PIMPLE,C,m,y,./images/PIMPLE.png,,,,,,,,m,1,0.5689,,,,,,,,0,97,97,71,1,
,,,,,,,,,,,,,,,,,199723,18,2022-01-28_21h08.23.492,lexical_decision_task_DD_L2,2021.2.3,MacIntel,60.0024001,,,,,,,,,,,0.8422,1,,,,,,,,,,,,,,,,,,,,,,,,0.012690972,-0.003450521,0,0,0,,,,,,,SMOKER,C,m,y,./images/SMOKER.png,,,,,,,,m,1,0.8422,,,,,,,,0,98,98,26,1,
,,,,,,,,,,,,,,,,,199723,18,2022-01-28_21h08.23.492,lexical_decision_task_DD_L2,2021.2.3,MacIntel,60.0024001,,,,,,,,,,,0.7993,1,,,,,,,,,,,,,,,,,,,,,,,,0.012690972,-0.003450521,0,0,0,,,,,,,TORCH,C,m,y,./images/TORCH.png,,,,,,,,m,1,0.7993,,,,,,,,0,99,99,68,1,
,,,,,,,,,,,,,,,,,199723,18,2022-01-28_21h08.23.492,lexical_decision_task_DD_L2,2021.2.3,MacIntel,60.0024001,,,,,,,,,,,0.7348,1,,,,,,,,,,,,,,,,,,,,,,,,0.012690972,-0.003450521,0,0,0,,,,,,,WHISKY,C,z,y,./images/WHISKY.png,,,,,,,,z,1,0.7348,,,,,,,,0,100,100,167,1,
,,,,,,,,,,,,,,,,,199723,18,2022-01-28_21h08.23.492,lexical_decision_task_DD_L2,2021.2.3,MacIntel,60.0024001,,,,,,,,,,,1.3554,1,,,,,,,,,,,,,,,,,,,,,,,,0.012690972,-0.003450521,0,0,0,,,,,,,BAMBOO,C,z,y,./images/BAMBOO.png,,,,,,,,z,1,1.3554,,,,,,,,0,101,101,89,1,
,,,,,,,,,,,,,,,,,199723,18,2022-01-28_21h08.23.492,lexical_decision_task_DD_L2,2021.2.3,MacIntel,60.0024001,,,,,,,,,,,0.6689,1,,,,,,,,,,,,,,,,,,,,,,,,0.012690972,-0.003450521,0,0,0,,,,,,,BOILER,HB,z,y,./images/BOILERHB.png,,,,,,,,z,1,0.6689,,,,,,,,0,102,102,120,1,
,,,,,,,,,,,,,,,,,199723,18,2022-01-28_21h08.23.492,lexical_decision_task_DD_L2,2021.2.3,MacIntel,60.0024001,,,,,,,,,,,0.7911,1,,,,,,,,,,,,,,,,,,,,,,,,0.012690972,-0.003450521,0,0,0,,,,,,,ATTIC,HB,m,y,./images/ATTICHB.png,,,,,,,,m,1,0.7911,,,,,,,,0,103,103,27,1,
,,,,,,,,,,,,,,,,,199723,18,2022-01-28_21h08.23.492,lexical_decision_task_DD_L2,2021.2.3,MacIntel,60.0024001,,,,,,,,,,,1.3961,0,,,,,,,,,,,,,,,,,,,,,,,,0.012690972,-0.003450521,0,0,0,,,,,,,FARMER,C,m,y,./images/FARMER.png,,,,,,,,z,0,1.3961,,,,,,,,0,104,104,65,1,
,,,,,,,,,,,,,,,,,199723,18,2022-01-28_21h08.23.492,lexical_decision_task_DD_L2,2021.2.3,MacIntel,60.0024001,,,,,,,,,,,2.0504,1,,,,,,,,,,,,,,,,,,,,,,,,0.012690972,-0.003450521,0,0,0,,,,,,,WAGON,LB,z,y,./images/WAGONLB.png,,,,,,,,z,1,2.0504,,,,,,,,0,105,105,91,1,
,,,,,,,,,,,,,,,,,199723,18,2022-01-28_21h08.23.492,lexical_decision_task_DD_L2,2021.2.3,MacIntel,60.0024001,,,,,,,,,,,0.9456,1,,,,,,,,,,,,,,,,,,,,,,,,0.012690972,-0.003450521,0,0,0,,,,,,,GRAPE,LB,z,y,./images/GRAPELB.png,,,,,,,,z,1,0.9456,,,,,,,,0,106,106,100,1,
,,,,,,,,,,,,,,,,,199723,18,2022-01-28_21h08.23.492,lexical_decision_task_DD_L2,2021.2.3,MacIntel,60.0024001,,,,,,,,,,,1.4162,0,,,,,,,,,,,,,,,,,,,,,,,,0.012690972,-0.003450521,0,0,0,,,,,,,CASINO,LB,z,y,./images/CASINOLB.png,,,,,,,,m,0,1.4162,,,,,,,,0,107,107,112,1,
,,,,,,,,,,,,,,,,,199723,18,2022-01-28_21h08.23.492,lexical_decision_task_DD_L2,2021.2.3,MacIntel,60.0024001,,,,,,,,,,,1.5857,0,,,,,,,,,,,,,,,,,,,,,,,,-0.007569444,-0.135828993,0,0,0,,,,,,,BUBBLE,C,z,y,./images/BUBBLE.png,,,,,,,,m,0,1.5857,,,,,,,,0,108,108,155,1,
,,,,,,,,,,,,,,,,,199723,18,2022-01-28_21h08.23.492,lexical_decision_task_DD_L2,2021.2.3,MacIntel,60.0024001,,,,,,,,,,,0.5812,1,,,,,,,,,,,,,,,,,,,,,,,,-0.007569444,-0.135828993,0,0,0,,,,,,,BISHOP,LB,z,y,./images/BISHOPLB.png,,,,,,,,z,1,0.5812,,,,,,,,0,109,109,133,1,
,,,,,,,,,,,,,,,,,199723,18,2022-01-28_21h08.23.492,lexical_decision_task_DD_L2,2021.2.3,MacIntel,60.0024001,,,,,,,,,,,0.9513,1,,,,,,,,,,,,,,,,,,,,,,,,-0.007569444,-0.135828993,0,0,0,,,,,,,KIDNEY,HB,m,y,./images/KIDNEYHB.png,,,,,,,,m,1,0.9513,,,,,,,,0,110,110,21,1,
,,,,,,,,,,,,,,,,,199723,18,2022-01-28_21h08.23.492,lexical_decision_task_DD_L2,2021.2.3,MacIntel,60.0024001,,,,,,,,,,,0.992,1,,,,,,,,,,,,,,,,,,,,,,,,-0.007569444,-0.135828993,0,0,0,,,,,,,PILOT,C,z,y,./images/PILOT.png,,,,,,,,z,1,0.992,,,,,,,,0,111,111,134,1,
,,,,,,,,,,,,,,,,,199723,18,2022-01-28_21h08.23.492,lexical_decision_task_DD_L2,2021.2.3,MacIntel,60.0024001,,,,,,,,,,,0.9319,1,,,,,,,,,,,,,,,,,,,,,,,,-0.007569444,-0.135828993,0,0,0,,,,,,,PLANK,LB,m,y,./images/PLANKLB.png,,,,,,,,m,1,0.9319,,,,,,,,0,112,112,1,1,
,,,,,,,,,,,,,,,,,199723,18,2022-01-28_21h08.23.492,lexical_decision_task_DD_L2,2021.2.3,MacIntel,60.0024001,,,,,,,,,,,0.675,1,,,,,,,,,,,,,,,,,,,,,,,,-0.007569444,-0.135828993,0,0,0,,,,,,,BABOON,LB,m,y,./images/BABOONLB.png,,,,,,,,m,1,0.675,,,,,,,,0,113,113,58,1,
,,,,,,,,,,,,,,,,,199723,18,2022-01-28_21h08.23.492,lexical_decision_task_DD_L2,2021.2.3,MacIntel,60.0024001,,,,,,,,,,,1.5089,0,,,,,,,,,,,,,,,,,,,,,,,,-0.007569444,-0.135828993,0,0,0,,,,,,,INFANT,LB,m,y,./images/INFANTLB.png,,,,,,,,z,0,1.5089,,,,,,,,0,114,114,76,1,
,,,,,,,,,,,,,,,,,199723,18,2022-01-28_21h08.23.492,lexical_decision_task_DD_L2,2021.2.3,MacIntel,60.0024001,,,,,,,,,,,0.8205,1,,,,,,,,,,,,,,,,,,,,,,,,-0.007569444,-0.135828993,0,0,0,,,,,,,COOKER,HB,m,y,./images/COOKERHB.png,,,,,,,,m,1,0.8205,,,,,,,,0,115,115,69,1,
,,,,,,,,,,,,,,,,,199723,18,2022-01-28_21h08.23.492,lexical_decision_task_DD_L2,2021.2.3,MacIntel,60.0024001,,,,,,,,,,,0.6528,1,,,,,,,,,,,,,,,,,,,,,,,,-0.007569444,-0.135828993,0,0,0,,,,,,,STAIN,HB,z,y,./images/STAINHB.png,,,,,,,,z,1,0.6528,,,,,,,,0,116,116,90,1,
,,,,,,,,,,,,,,,,,199723,18,2022-01-28_21h08.23.492,lexical_decision_task_DD_L2,2021.2.3,MacIntel,60.0024001,,,,,,,,,,,0.5724,0,,,,,,,,,,,,,,,,,,,,,,,,-0.007569444,-0.135828993,0,0,0,,,,,,,CEMENT,C,m,y,./images/CEMENT.png,,,,,,,,z,0,0.5724,,,,,,,,0,117,117,74,1,
,,,,,,,,,,,,,,,,,199723,18,2022-01-28_21h08.23.492,lexical_decision_task_DD_L2,2021.2.3,MacIntel,60.0024001,,,,,,,,,,,0.9091,0,,,,,,,,,,,,,,,,,,,,,,,,-0.007569444,-0.135828993,0,0,0,,,,,,,SAUNA,HB,z,y,./images/SAUNAHB.png,,,,,,,,m,0,0.9091,,,,,,,,0,118,118,117,1,
,,,,,,,,,,,,,,,,,199723,18,2022-01-28_21h08.23.492,lexical_decision_task_DD_L2,2021.2.3,MacIntel,60.0024001,,,,,,,,,,,0.683,1,,,,,,,,,,,,,,,,,,,,,,,,-0.007569444,-0.135828993,0,0,0,,,,,,,MIRROR,HB,m,y,./images/MIRRORHB.png,,,,,,,,m,1,0.683,,,,,,,,0,119,119,63,1,
,,,,,,,,,,,,,,,,,199723,18,2022-01-28_21h08.23.492,lexical_decision_task_DD_L2,2021.2.3,MacIntel,60.0024001,,,,,,,,,,,0.6514,0,,,,,,,,,,,,,,,,,,,,,,,,-0.007569444,-0.135828993,0,0,0,,,,,,,WALNUT,HB,z,y,./images/WALNUTHB.png,,,,,,,,m,0,0.6514,,,,,,,,0,120,120,84,1,
,,,,,,,,,,,,,,,,,199723,18,2022-01-28_21h08.23.492,lexical_decision_task_DD_L2,2021.2.3,MacIntel,60.0024001,,,,,,,,,,,0.8186,0,,,,,,,,,,,,,,,,,,,,,,,,-0.007569444,-0.135828993,0,0,0,,,,,,,PACKET,C,m,y,./images/PACKET.png,,,,,,,,z,0,0.8186,,,,,,,,0,121,121,56,1,
,,,,,,,,,,,,,,,,,199723,18,2022-01-28_21h08.23.492,lexical_decision_task_DD_L2,2021.2.3,MacIntel,60.0024001,,,,,,,,,,,0.8581,0,,,,,,,,,,,,,,,,,,,,,,,,-0.007569444,-0.135828993,0,0,0,,,,,,,POODLE,HB,m,y,./images/POODLEHB.png,,,,,,,,z,0,0.8581,,,,,,,,0,122,122,81,1,
,,,,,,,,,,,,,,,,,199723,18,2022-01-28_21h08.23.492,lexical_decision_task_DD_L2,2021.2.3,MacIntel,60.0024001,,,,,,,,,,,0.573,1,,,,,,,,,,,,,,,,,,,,,,,,-0.007569444,-0.135828993,0,0,0,,,,,,,BOXER,LB,z,y,./images/BOXERLB.png,,,,,,,,z,1,0.573,,,,,,,,0,123,123,88,1,
,,,,,,,,,,,,,,,,,199723,18,2022-01-28_21h08.23.492,lexical_decision_task_DD_L2,2021.2.3,MacIntel,60.0024001,,,,,,,,,,,1.2184,1,,,,,,,,,,,,,,,,,,,,,,,,-0.007569444,-0.135828993,0,0,0,,,,,,,CLOTH,C,z,y,./images/CLOTH.png,,,,,,,,z,1,1.2184,,,,,,,,0,124,124,107,1,
,,,,,,,,,,,,,,,,,199723,18,2022-01-28_21h08.23.492,lexical_decision_task_DD_L2,2021.2.3,MacIntel,60.0024001,,,,,,,,,,,0.7189,1,,,,,,,,,,,,,,,,,,,,,,,,-0.007569444,-0.135828993,0,0,0,space,,,,,,COUCH,C,m,y,./images/COUCH.png,1.0423,,,,,,,m,1,0.7189,,,,,,,,0,125,125,77,1,
,,,,,,,,,,,,,,,,,199723,18,2022-01-28_21h08.23.492,lexical_decision_task_DD_L2,2021.2.3,MacIntel,60.0024001,,,,,,,,,,,0.609,1,,,,,,,,,,,,,,,,,,,,,,,,-0.007569444,-0.135828993,0,0,0,,,,,,,WHEEL,C,z,y,./images/WHEEL.png,,,,,,,,z,1,0.609,,,,,,,,0,126,126,161,1,
,,,,,,,,,,,,,,,,,199723,18,2022-01-28_21h08.23.492,lexical_decision_task_DD_L2,2021.2.3,MacIntel,60.0024001,,,,,,,,,,,0.8189,1,,,,,,,,,,,,,,,,,,,,,,,,-0.007569444,-0.135828993,0,0,0,,,,,,,CRADLE,C,m,y,./images/CRADLE.png,,,,,,,,m,1,0.8189,,,,,,,,0,127,127,20,1,
,,,,,,,,,,,,,,,,,199723,18,2022-01-28_21h08.23.492,lexical_decision_task_DD_L2,2021.2.3,MacIntel,60.0024001,,,,,,,,,,,0.9355,0,,,,,,,,,,,,,,,,,,,,,,,,-0.007569444,-0.135828993,0,0,0,,,,,,,ARROW,HB,z,y,./images/ARROWHB.png,,,,,,,,m,0,0.9355,,,,,,,,0,128,128,153,1,
,,,,,,,,,,,,,,,,,199723,18,2022-01-28_21h08.23.492,lexical_decision_task_DD_L2,2021.2.3,MacIntel,60.0024001,,,,,,,,,,,0.579,1,,,,,,,,,,,,,,,,,,,,,,,,-0.007569444,-0.135828993,0,0,0,,,,,,,TWINS,HB,m,y,./images/TWINSHB.png,,,,,,,,m,1,0.579,,,,,,,,0,129,129,60,1,
,,,,,,,,,,,,,,,,,199723,18,2022-01-28_21h08.23.492,lexical_decision_task_DD_L2,2021.2.3,MacIntel,60.0024001,,,,,,,,,,,0.7208,1,,,,,,,,,,,,,,,,,,,,,,,,-0.007569444,-0.135828993,0,0,0,,,,,,,CHALK,LB,z,y,./images/CHALKLB.png,,,,,,,,z,1,0.7208,,,,,,,,0,130,130,109,1,
,,,,,,,,,,,,,,,,,199723,18,2022-01-28_21h08.23.492,lexical_decision_task_DD_L2,2021.2.3,MacIntel,60.0024001,,,,,,,,,,,0.6513,1,,,,,,,,,,,,,,,,,,,,,,,,-0.007569444,-0.135828993,0,0,0,,,,,,,PEARL,LB,m,y,./images/PEARLLB.png,,,,,,,,m,1,0.6513,,,,,,,,0,131,131,46,1,
,,,,,,,,,,,,,,,,,199723,18,2022-01-28_21h08.23.492,lexical_decision_task_DD_L2,2021.2.3,MacIntel,60.0024001,,,,,,,,,,,0.842,1,,,,,,,,,,,,,,,,,,,,,,,,-0.007569444,-0.135828993,0,0,0,,,,,,,HEATER,C,z,y,./images/HEATER.png,,,,,,,,z,1,0.842,,,,,,,,0,132,132,140,1,
,,,,,,,,,,,,,,,,,199723,18,2022-01-28_21h08.23.492,lexical_decision_task_DD_L2,2021.2.3,MacIntel,60.0024001,,,,,,,,,,,0.7979,1,,,,,,,,,,,,,,,,,,,,,,,,-0.007569444,-0.135828993,0,0,0,,,,,,,BAKER,HB,z,y,./images/BAKERHB.png,,,,,,,,z,1,0.7979,,,,,,,,0,133,133,147,1,
,,,,,,,,,,,,,,,,,199723,18,2022-01-28_21h08.23.492,lexical_decision_task_DD_L2,2021.2.3,MacIntel,60.0024001,,,,,,,,,,,0.5712,1,,,,,,,,,,,,,,,,,,,,,,,,-0.007569444,-0.135828993,0,0,0,,,,,,,BURIAL,C,m,y,./images/BURIAL.png,,,,,,,,m,1,0.5712,,,,,,,,0,134,134,59,1,
,,,,,,,,,,,,,,,,,199723,18,2022-01-28_21h08.23.492,lexical_decision_task_DD_L2,2021.2.3,MacIntel,60.0024001,,,,,,,,,,,0.5433,1,,,,,,,,,,,,,,,,,,,,,,,,-0.007569444,-0.135828993,0,0,0,,,,,,,DANCER,HB,z,y,./images/DANCERHB.png,,,,,,,,z,1,0.5433,,,,,,,,0,135,135,105,1,
,,,,,,,,,,,,,,,,,199723,18,2022-01-28_21h08.23.492,lexical_decision_task_DD_L2,2021.2.3,MacIntel,60.0024001,,,,,,,,,,,0.5958,1,,,,,,,,,,,,,,,,,,,,,,,,-0.007569444,-0.135828993,0,0,0,,,,,,,BLOKE,HB,z,y,./images/BLOKEHB.png,,,,,,,,z,1,0.5958,,,,,,,,0,136,136,96,1,
,,,,,,,,,,,,,,,,,199723,18,2022-01-28_21h08.23.492,lexical_decision_task_DD_L2,2021.2.3,MacIntel,60.0024001,,,,,,,,,,,0.9173,0,,,,,,,,,,,,,,,,,,,,,,,,-0.007569444,-0.135828993,0,0,0,,,,,,,WRIST,LB,m,y,./images/WRISTLB.png,,,,,,,,z,0,0.9173,,,,,,,,0,137,137,25,1,
,,,,,,,,,,,,,,,,,199723,18,2022-01-28_21h08.23.492,lexical_decision_task_DD_L2,2021.2.3,MacIntel,60.0024001,,,,,,,,,,,0.3916,1,,,,,,,,,,,,,,,,,,,,,,,,-0.007569444,-0.135828993,0,0,0,,,,,,,BUNNY,LB,z,y,./images/BUNNYLB.png,,,,,,,,z,1,0.3916,,,,,,,,0,138,138,97,1,
,,,,,,,,,,,,,,,,,199723,18,2022-01-28_21h08.23.492,lexical_decision_task_DD_L2,2021.2.3,MacIntel,60.0024001,,,,,,,,,,,0.8406,0,,,,,,,,,,,,,,,,,,,,,,,,-0.007569444,-0.135828993,0,0,0,,,,,,,RAZOR,LB,z,y,./images/RAZORLB.png,,,,,,,,m,0,0.8406,,,,,,,,0,139,139,118,1,
,,,,,,,,,,,,,,,,,199723,18,2022-01-28_21h08.23.492,lexical_decision_task_DD_L2,2021.2.3,MacIntel,60.0024001,,,,,,,,,,,0.7485,1,,,,,,,,,,,,,,,,,,,,,,,,-0.007569444,-0.135828993,0,0,0,,,,,,,VALLEY,C,z,y,./images/VALLEY.png,,,,,,,,z,1,0.7485,,,,,,,,0,140,140,152,1,
,,,,,,,,,,,,,,,,,199723,18,2022-01-28_21h08.23.492,lexical_decision_task_DD_L2,2021.2.3,MacIntel,60.0024001,,,,,,,,,,,0.7511,1,,,,,,,,,,,,,,,,,,,,,,,,-0.007569444,-0.135828993,0,0,0,,,,,,,GLOVE,LB,z,y,./images/GLOVELB.png,,,,,,,,z,1,0.7511,,,,,,,,0,141,141,157,1,
,,,,,,,,,,,,,,,,,199723,18,2022-01-28_21h08.23.492,lexical_decision_task_DD_L2,2021.2.3,MacIntel,60.0024001,,,,,,,,,,,0.7074,1,,,,,,,,,,,,,,,,,,,,,,,,-0.007569444,-0.135828993,0,0,0,,,,,,,MALLET,C,m,y,./images/MALLET.png,,,,,,,,m,1,0.7074,,,,,,,,0,142,142,50,1,
,,,,,,,,,,,,,,,,,199723,18,2022-01-28_21h08.23.492,lexical_decision_task_DD_L2,2021.2.3,MacIntel,60.0024001,,,,,,,,,,,0.6551,0,,,,,,,,,,,,,,,,,,,,,,,,-0.007569444,-0.135828993,0,0,0,,,,,,,ALLEY,LB,z,y,./images/ALLEYLB.png,,,,,,,,m,0,0.6551,,,,,,,,0,143,143,139,1,
,,,,,,,,,,,,,,,,,199723,18,2022-01-28_21h08.23.492,lexical_decision_task_DD_L2,2021.2.3,MacIntel,60.0024001,,,,,,,,,,,0.4841,1,,,,,,,,,,,,,,,,,,,,,,,,-0.007569444,-0.135828993,0,0,0,,,,,,,ONION,HB,m,y,./images/ONIONHB.png,,,,,,,,m,1,0.4841,,,,,,,,0,144,144,51,1,
,,,,,,,,,,,,,,,,,199723,18,2022-01-28_21h08.23.492,lexical_decision_task_DD_L2,2021.2.3,MacIntel,60.0024001,,,,,,,,,,,0.6849,0,,,,,,,,,,,,,,,,,,,,,,,,-0.007569444,-0.135828993,0,0,0,,,,,,,SPORT,HB,m,y,./images/SPORTHB.png,,,,,,,,z,0,0.6849,,,,,,,,0,145,145,48,1,
,,,,,,,,,,,,,,,,,199723,18,2022-01-28_21h08.23.492,lexical_decision_task_DD_L2,2021.2.3,MacIntel,60.0024001,,,,,,,,,,,1.4349,0,,,,,,,,,,,,,,,,,,,,,,,,-0.007569444,-0.135828993,0,0,0,,,,,,,SQUARE,HB,m,y,./images/SQUAREHB.png,,,,,,,,z,0,1.4349,,,,,,,,0,146,146,6,1,
,,,,,,,,,,,,,,,,,199723,18,2022-01-28_21h08.23.492,lexical_decision_task_DD_L2,2021.2.3,MacIntel,60.0024001,,,,,,,,,,,0.875,1,,,,,,,,,,,,,,,,,,,,,,,,-0.007569444,-0.135828993,0,0,0,,,,,,,SWING,LB,m,y,./images/SWINGLB.png,,,,,,,,m,1,0.875,,,,,,,,0,147,147,40,1,
,,,,,,,,,,,,,,,,,199723,18,2022-01-28_21h08.23.492,lexical_decision_task_DD_L2,2021.2.3,MacIntel,60.0024001,,,,,,,,,,,0.9581,1,,,,,,,,,,,,,,,,,,,,,,,,-0.007569444,-0.135828993,0,0,0,,,,,,,PARCEL,HB,z,y,./images/PARCELHB.png,,,,,,,,z,1,0.9581,,,,,,,,0,148,148,102,1,
,,,,,,,,,,,,,,,,,199723,18,2022-01-28_21h08.23.492,lexical_decision_task_DD_L2,2021.2.3,MacIntel,60.0024001,,,,,,,,,,,0.8847,1,,,,,,,,,,,,,,,,,,,,,,,,-0.007569444,-0.135828993,0,0,0,,,,,,,DOUGH,LB,m,y,./images/DOUGHLB.png,,,,,,,,m,1,0.8847,,,,,,,,0,149,149,19,1,
,,,,,,,,,,,,,,,,,199723,18,2022-01-28_21h08.23.492,lexical_decision_task_DD_L2,2021.2.3,MacIntel,60.0024001,,,,,,,,,,,0.6464,1,,,,,,,,,,,,,,,,,,,,,,,,-0.007569444,-0.135828993,0,0,0,,,,,,,SCREW,HB,m,y,./images/SCREWHB.png,,,,,,,,m,1,0.6464,,,,,,,,0,150,150,24,1,
,,,,,,,,,,,,,,,,,199723,18,2022-01-28_21h08.23.492,lexical_decision_task_DD_L2,2021.2.3,MacIntel,60.0024001,,,,,,,,,,,0.569,0,,,,,,,,,,,,,,,,,,,,,,,,-0.007569444,-0.135828993,0,0,0,,,,,,,PARADE,C,z,y,./images/PARADE.png,,,,,,,,m,0,0.569,,,,,,,,0,151,151,101,1,
,,,,,,,,,,,,,,,,,199723,18,2022-01-28_21h08.23.492,lexical_decision_task_DD_L2,2021.2.3,MacIntel,60.0024001,,,,,,,,,,,0.6177,1,,,,,,,,,,,,,,,,,,,,,,,,-0.007569444,-0.135828993,0,0,0,,,,,,,MUMMY,LB,z,y,./images/MUMMYLB.png,,,,,,,,z,1,0.6177,,,,,,,,0,152,152,130,1,
,,,,,,,,,,,,,,,,,199723,18,2022-01-28_21h08.23.492,lexical_decision_task_DD_L2,2021.2.3,MacIntel,60.0024001,,,,,,,,,,,0.8352,1,,,,,,,,,,,,,,,,,,,,,,,,-0.007569444,-0.135828993,0,0,0,,,,,,,PEACH,C,m,y,./images/PEACH.png,,,,,,,,m,1,0.8352,,,,,,,,0,153,153,35,1,
,,,,,,,,,,,,,,,,,199723,18,2022-01-28_21h08.23.492,lexical_decision_task_DD_L2,2021.2.3,MacIntel,60.0024001,,,,,,,,,,,0.9357,1,,,,,,,,,,,,,,,,,,,,,,,,-0.007569444,-0.135828993,0,0,0,,,,,,,FERRY,HB,z,y,./images/FERRYHB.png,,,,,,,,z,1,0.9357,,,,,,,,0,154,154,141,1,
,,,,,,,,,,,,,,,,,199723,18,2022-01-28_21h08.23.492,lexical_decision_task_DD_L2,2021.2.3,MacIntel,60.0024001,,,,,,,,,,,1.7841,1,,,,,,,,,,,,,,,,,,,,,,,,-0.007569444,-0.135828993,0,0,0,,,,,,,MAGGOT,HB,m,y,./images/MAGGOTHB.png,,,,,,,,m,1,1.7841,,,,,,,,0,155,155,33,1,
,,,,,,,,,,,,,,,,,199723,18,2022-01-28_21h08.23.492,lexical_decision_task_DD_L2,2021.2.3,MacIntel,60.0024001,,,,,,,,,,,0.5635,0,,,,,,,,,,,,,,,,,,,,,,,,-0.007569444,-0.135828993,0,0,0,,,,,,,CHAIN,HB,z,y,./images/CHAINHB.png,,,,,,,,m,0,0.5635,,,,,,,,0,156,156,126,1,
,,,,,,,,,,,,,,,,,199723,18,2022-01-28_21h08.23.492,lexical_decision_task_DD_L2,2021.2.3,MacIntel,60.0024001,,,,,,,,,,,0.6949,1,,,,,,,,,,,,,,,,,,,,,,,,-0.007569444,-0.135828993,0,0,0,,,,,,,STATUE,HB,z,y,./images/STATUEHB.png,,,,,,,,z,1,0.6949,,,,,,,,0,157,157,150,1,
,,,,,,,,,,,,,,,,,199723,18,2022-01-28_21h08.23.492,lexical_decision_task_DD_L2,2021.2.3,MacIntel,60.0024001,,,,,,,,,,,0.5538,1,,,,,,,,,,,,,,,,,,,,,,,,-0.007569444,-0.135828993,0,0,0,,,,,,,CRUST,LB,m,y,./images/CRUSTLB.png,,,,,,,,m,1,0.5538,,,,,,,,0,158,158,79,1,
,,,,,,,,,,,,,,,,,199723,18,2022-01-28_21h08.23.492,lexical_decision_task_DD_L2,2021.2.3,MacIntel,60.0024001,,,,,,,,,,,0.8225,0,,,,,,,,,,,,,,,,,,,,,,,,-0.007569444,-0.135828993,0,0,0,,,,,,,MUFFIN,LB,m,y,./images/MUFFINLB.png,,,,,,,,z,0,0.8225,,,,,,,,0,159,159,55,1,
,,,,,,,,,,,,,,,,,199723,18,2022-01-28_21h08.23.492,lexical_decision_task_DD_L2,2021.2.3,MacIntel,60.0024001,,,,,,,,,,,0.7723,1,,,,,,,,,,,,,,,,,,,,,,,,-0.007569444,-0.135828993,0,0,0,,,,,,,BANANA,LB,z,y,./images/BANANALB.png,,,,,,,,z,1,0.7723,,,,,,,,0,160,160,154,1,
,,,,,,,,,,,,,,,,,199723,18,2022-01-28_21h08.23.492,lexical_decision_task_DD_L2,2021.2.3,MacIntel,60.0024001,,,,,,,,,,,0.9497,0,,,,,,,,,,,,,,,,,,,,,,,,-0.007569444,-0.135828993,0,0,0,,,,,,,LITTER,HB,m,y,./images/LITTERHB.png,,,,,,,,z,0,0.9497,,,,,,,,0,161,161,78,1,
,,,,,,,,,,,,,,,,,199723,18,2022-01-28_21h08.23.492,lexical_decision_task_DD_L2,2021.2.3,MacIntel,60.0024001,,,,,,,,,,,0.8238,0,,,,,,,,,,,,,,,,,,,,,,,,-0.007569444,-0.135828993,0,0,0,,,,,,,MAMMAL,C,z,y,./images/MAMMAL.png,,,,,,,,m,0,0.8238,,,,,,,,0,162,162,146,1,
,,,,,,,,,,,,,,,,,199723,18,2022-01-28_21h08.23.492,lexical_decision_task_DD_L2,2021.2.3,MacIntel,60.0024001,,,,,,,,,,,1.0995,0,,,,,,,,,,,,,,,,,,,,,,,,-0.007569444,-0.135828993,0,0,0,,,,,,,SHELF,HB,m,y,./images/SHELFHB.png,,,,,,,,z,0,1.0995,,,,,,,,0,163,163,39,1,
,,,,,,,,,,,,,,,,,199723,18,2022-01-28_21h08.23.492,lexical_decision_task_DD_L2,2021.2.3,MacIntel,60.0024001,,,,,,,,,,,0.8407,1,,,,,,,,,,,,,,,,,,,,,,,,-0.007569444,-0.135828993,0,0,0,,,,,,,PICKLE,C,m,y,./images/PICKLE.png,,,,,,,,m,1,0.8407,,,,,,,,0,164,164,14,1,
,,,,,,,,,,,,,,,,,199723,18,2022-01-28_21h08.23.492,lexical_decision_task_DD_L2,2021.2.3,MacIntel,60.0024001,,,,,,,,,,,0.7707,1,,,,,,,,,,,,,,,,,,,,,,,,-0.007569444,-0.135828993,0,0,0,,,,,,,CHERRY,HB,z,y,./images/CHERRYHB.png,,,,,,,,z,1,0.7707,,,,,,,,0,165,165,138,1,
,,,,,,,,,,,,,,,,,199723,18,2022-01-28_21h08.23.492,lexical_decision_task_DD_L2,2021.2.3,MacIntel,60.0024001,,,,,,,,,,,2.2672,0,,,,,,,,,,,,,,,,,,,,,,,,-0.007569444,-0.135828993,0,0,0,,,,,,,BIRTH,LB,m,y,./images/BIRTHLB.png,,,,,,,,z,0,2.2672,,,,,,,,0,166,166,37,1,
,,,,,,,,,,,,,,,,,199723,18,2022-01-28_21h08.23.492,lexical_decision_task_DD_L2,2021.2.3,MacIntel,60.0024001,,,,,,,,,,,2.1504,1,,,,,,,,,,,,,,,,,,,,,,,,-0.007569444,-0.135828993,0,0,0,,,,,,,CANDY,HB,z,y,./images/CANDYHB.png,,,,,,,,z,1,2.1504,,,,,,,,0,167,167,123,1,
