key_resp.keys,key_resp.rt,instr_done_touch.x,instr_done_touch.y,instr_done_touch.leftButton,instr_done_touch.midButton,instr_done_touch.rightButton,instruction_pages.thisRepN,instruction_pages.thisTrialN,instruction_pages.thisN,instruction_pages.thisIndex,instruction_pages.ran,pageN,phase,instruct_text,has_image,instruct_image,participant,age,date,expName,psychopyVersion,OS,frameRate,response.keys,response.corr,response.rt,touch_resp.x,touch_resp.y,touch_resp.leftButton,touch_resp.midButton,touch_resp.rightButton,touch_resp.time,touch_resp.clicked_name,rt,corr,practrials.thisRepN,practrials.thisTrialN,practrials.thisN,practrials.thisIndex,practrials.ran,TrialID,Target,corrAns,end_of_practice_trials_pages.thisRepN,end_of_practice_trials_pages.thisTrialN,end_of_practice_trials_pages.thisN,end_of_practice_trials_pages.thisIndex,end_of_practice_trials_pages.ran,key_resp_2.keys,key_resp_2.corr,key_resp_2.rt,targ_click.x,targ_click.y,targ_click.leftButton,targ_click.midButton,targ_click.rightButton,targ_click.time,targ_click.clicked_name,break_done_touch.x,break_done_touch.y,break_done_touch.leftButton,break_done_touch.midButton,break_done_touch.rightButton,break_done_keyboard.keys,maintrials.thisRepN,maintrials.thisTrialN,maintrials.thisN,maintrials.thisIndex,maintrials.ran,string,blur,study,lex,stim_path,break_done_keyboard.rt,test_instructions.thisRepN,test_instructions.thisTrialN,test_instructions.thisN,test_instructions.thisIndex,test_instructions.ran,instr_done_touch.clicked_name,key_resp_3.keys,key_resp_3.corr,key_resp_3.rt,test_click.x,test_click.y,test_click.leftButton,test_click.midButton,test_click.rightButton,test_click.time,test_click.clicked_name,test_phase.thisRepN,test_phase.thisTrialN,test_phase.thisN,test_phase.thisIndex,test_phase.ran
space,212.7048,0.110096096,-0.405109931,0,0,0,0,0,0,0,1,1,instructions,"INSTRUCTIONS
At the start of each trial, look at the plus sign  (+) in the center of the screen.  This tells you that a trial is about to begin and where to look. Second, the plus sign will disappear and a string of letters will appear. Your task is to determine if the string of letters is a word or not. If the item is a word press the M key (on keyboard)  or touch the word button (phone/tablet).  If the item is not a word,  press the  Z key (on keyboard)  or touch the nonword button (on phone/tablet). 
Press the space bar or touch  continue.",0,,199726,18,2022-01-29_16h44.25.266,lexical_decision_task_DD,2021.2.3,MacIntel,60.0024001,,,,,,,,,,,,,,,,,,,,,,,,,,,,,,,,,,,,,,,,,,,,,,,,,,,,,,,,,,,,,,,,,,,,,,,,,
space,4.6747,0.110096096,-0.405109931,0,0,0,0,1,1,1,1,2,instructions,"If your device has a keyboard, press the 'Z' key for nonwords and the 'M' key for words.





Press the space bar or touch the button below to continue.",0,keyboard-example.gif,199726,18,2022-01-29_16h44.25.266,lexical_decision_task_DD,2021.2.3,MacIntel,60.0024001,,,,,,,,,,,,,,,,,,,,,,,,,,,,,,,,,,,,,,,,,,,,,,,,,,,,,,,,,,,,,,,,,,,,,,,,,
space,4.3604,0.110096096,-0.405109931,0,0,0,0,2,2,2,1,3,instructions,"If you are using a touchscreen only device, use the buttons on the screen. Do not use the mouse.





Press the space bar or touch the button below to continue.",0,touchscreen-example.gif,199726,18,2022-01-29_16h44.25.266,lexical_decision_task_DD,2021.2.3,MacIntel,60.0024001,,,,,,,,,,,,,,,,,,,,,,,,,,,,,,,,,,,,,,,,,,,,,,,,,,,,,,,,,,,,,,,,,,,,,,,,,
space,8.2009,0.110096096,-0.405109931,0,0,0,0,3,3,3,1,4,instructions,"It is very important that you respond as quickly and accurately as possible, as each letter string will only be on the screen for two seconds. If you do not respond within this time, the message 'Too slow!' will be displayed and the experiment will progress to the next letter string. The first 20 trials will be practice trials and you will receive feedback on your answers. 

Press the space bar or touch the button below to start the practice trials.",0,,199726,18,2022-01-29_16h44.25.266,lexical_decision_task_DD,2021.2.3,MacIntel,60.0024001,,,,,,,,,,,,,,,,,,,,,,,,,,,,,,,,,,,,,,,,,,,,,,,,,,,,,,,,,,,,,,,,,,,,,,,,,
,,,,,,,,,,,,,,,,,199726,18,2022-01-29_16h44.25.266,lexical_decision_task_DD,2021.2.3,MacIntel,60.0024001,z,1,1.7947,,,,,,,,1.7947,1,0,0,0,11,1,1001,RASHET,z,,,,,,,,,,,,,,,,,,,,,,,,,,,,,,,,,,,,,,,,,,,,,,,,,,,,,
,,,,,,,,,,,,,,,,,199726,18,2022-01-29_16h44.25.266,lexical_decision_task_DD,2021.2.3,MacIntel,60.0024001,m,1,0.6857,,,,,,,,0.6857,1,0,1,1,4,1,1001,SQUEAK,m,,,,,,,,,,,,,,,,,,,,,,,,,,,,,,,,,,,,,,,,,,,,,,,,,,,,,
,,,,,,,,,,,,,,,,,199726,18,2022-01-29_16h44.25.266,lexical_decision_task_DD,2021.2.3,MacIntel,60.0024001,z,1,0.5432,,,,,,,,0.5432,1,0,2,2,13,1,1001,ROUPET,z,,,,,,,,,,,,,,,,,,,,,,,,,,,,,,,,,,,,,,,,,,,,,,,,,,,,,
,,,,,,,,,,,,,,,,,199726,18,2022-01-29_16h44.25.266,lexical_decision_task_DD,2021.2.3,MacIntel,60.0024001,m,1,0.6457,,,,,,,,0.6457,1,0,3,3,3,1,1001,MATRIX,m,,,,,,,,,,,,,,,,,,,,,,,,,,,,,,,,,,,,,,,,,,,,,,,,,,,,,
,,,,,,,,,,,,,,,,,199726,18,2022-01-29_16h44.25.266,lexical_decision_task_DD,2021.2.3,MacIntel,60.0024001,z,1,0.6224,,,,,,,,0.6224,1,0,4,4,9,1,1001,FARINY,z,,,,,,,,,,,,,,,,,,,,,,,,,,,,,,,,,,,,,,,,,,,,,,,,,,,,,
,,,,,,,,,,,,,,,,,199726,18,2022-01-29_16h44.25.266,lexical_decision_task_DD,2021.2.3,MacIntel,60.0024001,m,1,0.4568,,,,,,,,0.4568,1,0,5,5,1,1,1001,ADJUST,m,,,,,,,,,,,,,,,,,,,,,,,,,,,,,,,,,,,,,,,,,,,,,,,,,,,,,
,,,,,,,,,,,,,,,,,199726,18,2022-01-29_16h44.25.266,lexical_decision_task_DD,2021.2.3,MacIntel,60.0024001,z,1,0.6,,,,,,,,0.6,1,0,6,6,15,1,1001,WHAISE,z,,,,,,,,,,,,,,,,,,,,,,,,,,,,,,,,,,,,,,,,,,,,,,,,,,,,,
,,,,,,,,,,,,,,,,,199726,18,2022-01-29_16h44.25.266,lexical_decision_task_DD,2021.2.3,MacIntel,60.0024001,m,1,0.4629,,,,,,,,0.4629,1,0,7,7,2,1,1001,ALMOND,m,,,,,,,,,,,,,,,,,,,,,,,,,,,,,,,,,,,,,,,,,,,,,,,,,,,,,
,,,,,,,,,,,,,,,,,199726,18,2022-01-29_16h44.25.266,lexical_decision_task_DD,2021.2.3,MacIntel,60.0024001,z,1,0.5409,,,,,,,,0.5409,1,0,8,8,12,1,1001,SPRINY,z,,,,,,,,,,,,,,,,,,,,,,,,,,,,,,,,,,,,,,,,,,,,,,,,,,,,,
,,,,,,,,,,,,,,,,,199726,18,2022-01-29_16h44.25.266,lexical_decision_task_DD,2021.2.3,MacIntel,60.0024001,m,1,0.4669,,,,,,,,0.4669,1,0,9,9,0,1,1001,UTOPIA,m,,,,,,,,,,,,,,,,,,,,,,,,,,,,,,,,,,,,,,,,,,,,,,,,,,,,,
,,,,,,,,,,,,,,,,,199726,18,2022-01-29_16h44.25.266,lexical_decision_task_DD,2021.2.3,MacIntel,60.0024001,z,1,0.582,,,,,,,,0.582,1,0,10,10,14,1,1001,THRALE,z,,,,,,,,,,,,,,,,,,,,,,,,,,,,,,,,,,,,,,,,,,,,,,,,,,,,,
,,,,,,,,,,,,,,,,,199726,18,2022-01-29_16h44.25.266,lexical_decision_task_DD,2021.2.3,MacIntel,60.0024001,z,1,0.762,,,,,,,,0.762,1,0,11,11,8,1,1001,ASLERT,z,,,,,,,,,,,,,,,,,,,,,,,,,,,,,,,,,,,,,,,,,,,,,,,,,,,,,
,,,,,,,,,,,,,,,,,199726,18,2022-01-29_16h44.25.266,lexical_decision_task_DD,2021.2.3,MacIntel,60.0024001,z,1,0.5559,,,,,,,,0.5559,1,0,12,12,10,1,1001,INLADE,z,,,,,,,,,,,,,,,,,,,,,,,,,,,,,,,,,,,,,,,,,,,,,,,,,,,,,
,,,,,,,,,,,,,,,,,199726,18,2022-01-29_16h44.25.266,lexical_decision_task_DD,2021.2.3,MacIntel,60.0024001,m,1,0.4585,,,,,,,,0.4585,1,0,13,13,6,1,1001,ZOMBIE,m,,,,,,,,,,,,,,,,,,,,,,,,,,,,,,,,,,,,,,,,,,,,,,,,,,,,,
,,,,,,,,,,,,,,,,,199726,18,2022-01-29_16h44.25.266,lexical_decision_task_DD,2021.2.3,MacIntel,60.0024001,m,1,0.5832,,,,,,,,0.5832,1,0,14,14,5,1,1001,OBTAIN,m,,,,,,,,,,,,,,,,,,,,,,,,,,,,,,,,,,,,,,,,,,,,,,,,,,,,,
,,,,,,,,,,,,,,,,,199726,18,2022-01-29_16h44.25.266,lexical_decision_task_DD,2021.2.3,MacIntel,60.0024001,m,1,0.6428,,,,,,,,0.6428,1,0,15,15,7,1,1001,VOLUME,m,,,,,,,,,,,,,,,,,,,,,,,,,,,,,,,,,,,,,,,,,,,,,,,,,,,,,
space,7.9004,0.110096096,-0.405109931,0,0,0,,,,,,1,end_of_practice,"You have completed the practice trials. During the experimental trials, you will not receive feedback. 
Before you begin, please ensure that you are in a comfortable and quiet location and will not be disturbed for about 15 minutes, as we cannot use your data if you do not complete all the trials. 
 When you are ready to start the experimental trials, please press space or touch the button below.",,,199726,18,2022-01-29_16h44.25.266,lexical_decision_task_DD,2021.2.3,MacIntel,60.0024001,,,,,,,,,,,,,,,,,,,,,0,0,0,0,1,,,,,,,,,,,,,,,,,,,,,,,,,,,,,,,,,,,,,,,,,,,,,,,,
,,,,,,,,,,,,,,,,,199726,18,2022-01-29_16h44.25.266,lexical_decision_task_DD,2021.2.3,MacIntel,60.0024001,,,,,,,,,,,0.6733,1,,,,,,,,,,,,,,z,1,0.6733,,,,,,,,0.110096096,-0.405109931,0,0,0,,0,0,0,144,1,NAIRY,C,old,z,./images/NAIRY.png,,,,,,,,,,,,,,,,,,,,,,
,,,,,,,,,,,,,,,,,199726,18,2022-01-29_16h44.25.266,lexical_decision_task_DD,2021.2.3,MacIntel,60.0024001,,,,,,,,,,,0.413,1,,,,,,,,,,,,,,m,1,0.413,,,,,,,,0.110096096,-0.405109931,0,0,0,,0,1,1,39,1,SHELF,C,old,m,./images/SHELF.png,,,,,,,,,,,,,,,,,,,,,,
,,,,,,,,,,,,,,,,,199726,18,2022-01-29_16h44.25.266,lexical_decision_task_DD,2021.2.3,MacIntel,60.0024001,,,,,,,,,,,0.5818,1,,,,,,,,,,,,,,z,1,0.5818,,,,,,,,0.110096096,-0.405109931,0,0,0,,0,2,2,150,1,NOOLS,C,old,z,./images/NOOLS.png,,,,,,,,,,,,,,,,,,,,,,
,,,,,,,,,,,,,,,,,199726,18,2022-01-29_16h44.25.266,lexical_decision_task_DD,2021.2.3,MacIntel,60.0024001,,,,,,,,,,,0.4772,1,,,,,,,,,,,,,,m,1,0.4772,,,,,,,,0.110096096,-0.405109931,0,0,0,,0,3,3,53,1,CARPET,LB,old,m,./images/CARPETLB.png,,,,,,,,,,,,,,,,,,,,,,
,,,,,,,,,,,,,,,,,199726,18,2022-01-29_16h44.25.266,lexical_decision_task_DD,2021.2.3,MacIntel,60.0024001,,,,,,,,,,,0.5631,1,,,,,,,,,,,,,,z,1,0.5631,,,,,,,,0.110096096,-0.405109931,0,0,0,,0,4,4,167,1,ZONET,LB,old,z,./images/ZONETLB.png,,,,,,,,,,,,,,,,,,,,,,
,,,,,,,,,,,,,,,,,199726,18,2022-01-29_16h44.25.266,lexical_decision_task_DD,2021.2.3,MacIntel,60.0024001,,,,,,,,,,,0.3914,0,,,,,,,,,,,,,,m,0,0.3914,,,,,,,,0.110096096,-0.405109931,0,0,0,,0,5,5,141,1,PLEET,C,old,z,./images/PLEET.png,,,,,,,,,,,,,,,,,,,,,,
,,,,,,,,,,,,,,,,,199726,18,2022-01-29_16h44.25.266,lexical_decision_task_DD,2021.2.3,MacIntel,60.0024001,,,,,,,,,,,0.6566,1,,,,,,,,,,,,,,m,1,0.6566,,,,,,,,0.110096096,-0.405109931,0,0,0,,0,6,6,75,1,GRAIN,C,old,m,./images/GRAIN.png,,,,,,,,,,,,,,,,,,,,,,
,,,,,,,,,,,,,,,,,199726,18,2022-01-29_16h44.25.266,lexical_decision_task_DD,2021.2.3,MacIntel,60.0024001,,,,,,,,,,,0.612,1,,,,,,,,,,,,,,m,1,0.612,,,,,,,,0.110096096,-0.405109931,0,0,0,,0,7,7,29,1,CRUMB,LB,old,m,./images/CRUMBLB.png,,,,,,,,,,,,,,,,,,,,,,
,,,,,,,,,,,,,,,,,199726,18,2022-01-29_16h44.25.266,lexical_decision_task_DD,2021.2.3,MacIntel,60.0024001,,,,,,,,,,,0.4809,0,,,,,,,,,,,,,,z,0,0.4809,,,,,,,,0.110096096,-0.405109931,0,0,0,,0,8,8,38,1,LADDER,LB,old,m,./images/LADDERLB.png,,,,,,,,,,,,,,,,,,,,,,
,,,,,,,,,,,,,,,,,199726,18,2022-01-29_16h44.25.266,lexical_decision_task_DD,2021.2.3,MacIntel,60.0024001,,,,,,,,,,,1.3962,1,,,,,,,,,,,,,,z,1,1.3962,,,,,,,,0.110096096,-0.405109931,0,0,0,,0,9,9,109,1,BURGE,HB,old,z,./images/BURGEHB.png,,,,,,,,,,,,,,,,,,,,,,
,,,,,,,,,,,,,,,,,199726,18,2022-01-29_16h44.25.266,lexical_decision_task_DD,2021.2.3,MacIntel,60.0024001,,,,,,,,,,,0.684,1,,,,,,,,,,,,,,z,1,0.684,,,,,,,,0.110096096,-0.405109931,0,0,0,,0,10,10,119,1,PAFER,LB,old,z,./images/PAFERLB.png,,,,,,,,,,,,,,,,,,,,,,
,,,,,,,,,,,,,,,,,199726,18,2022-01-29_16h44.25.266,lexical_decision_task_DD,2021.2.3,MacIntel,60.0024001,,,,,,,,,,,0.7318,1,,,,,,,,,,,,,,z,1,0.7318,,,,,,,,0.110096096,-0.405109931,0,0,0,,0,11,11,126,1,GUELS,C,old,z,./images/GUELS.png,,,,,,,,,,,,,,,,,,,,,,
,,,,,,,,,,,,,,,,,199726,18,2022-01-29_16h44.25.266,lexical_decision_task_DD,2021.2.3,MacIntel,60.0024001,,,,,,,,,,,0.6971,1,,,,,,,,,,,,,,z,1,0.6971,,,,,,,,0.110096096,-0.405109931,0,0,0,,0,12,12,101,1,GLEET,LB,old,z,./images/GLEETLB.png,,,,,,,,,,,,,,,,,,,,,,
,,,,,,,,,,,,,,,,,199726,18,2022-01-29_16h44.25.266,lexical_decision_task_DD,2021.2.3,MacIntel,60.0024001,,,,,,,,,,,0.6813,1,,,,,,,,,,,,,,m,1,0.6813,,,,,,,,0.110096096,-0.405109931,0,0,0,,0,13,13,64,1,JELLY,HB,old,m,./images/JELLYHB.png,,,,,,,,,,,,,,,,,,,,,,
,,,,,,,,,,,,,,,,,199726,18,2022-01-29_16h44.25.266,lexical_decision_task_DD,2021.2.3,MacIntel,60.0024001,,,,,,,,,,,0.5262,1,,,,,,,,,,,,,,m,1,0.5262,,,,,,,,0.110096096,-0.405109931,0,0,0,,0,14,14,21,1,KIDNEY,C,old,m,./images/KIDNEY.png,,,,,,,,,,,,,,,,,,,,,,
,,,,,,,,,,,,,,,,,199726,18,2022-01-29_16h44.25.266,lexical_decision_task_DD,2021.2.3,MacIntel,60.0024001,,,,,,,,,,,0.75,1,,,,,,,,,,,,,,z,1,0.75,,,,,,,,0.110096096,-0.405109931,0,0,0,,0,15,15,118,1,BAVEL,HB,old,z,./images/BAVELHB.png,,,,,,,,,,,,,,,,,,,,,,
,,,,,,,,,,,,,,,,,199726,18,2022-01-29_16h44.25.266,lexical_decision_task_DD,2021.2.3,MacIntel,60.0024001,,,,,,,,,,,0.7112,1,,,,,,,,,,,,,,z,1,0.7112,,,,,,,,0.110096096,-0.405109931,0,0,0,,0,16,16,104,1,GITTY,LB,old,z,./images/GITTYLB.png,,,,,,,,,,,,,,,,,,,,,,
,,,,,,,,,,,,,,,,,199726,18,2022-01-29_16h44.25.266,lexical_decision_task_DD,2021.2.3,MacIntel,60.0024001,,,,,,,,,,,1.1076,1,,,,,,,,,,,,,,z,1,1.1076,,,,,,,,0.110096096,-0.405109931,0,0,0,,0,17,17,121,1,CEERS,HB,old,z,./images/CEERSHB.png,,,,,,,,,,,,,,,,,,,,,,
,,,,,,,,,,,,,,,,,199726,18,2022-01-29_16h44.25.266,lexical_decision_task_DD,2021.2.3,MacIntel,60.0024001,,,,,,,,,,,0.5807,1,,,,,,,,,,,,,,m,1,0.5807,,,,,,,,0.110096096,-0.405109931,0,0,0,,0,18,18,30,1,STORM,C,old,m,./images/STORM.png,,,,,,,,,,,,,,,,,,,,,,
,,,,,,,,,,,,,,,,,199726,18,2022-01-29_16h44.25.266,lexical_decision_task_DD,2021.2.3,MacIntel,60.0024001,,,,,,,,,,,0.8422,1,,,,,,,,,,,,,,m,1,0.8422,,,,,,,,0.110096096,-0.405109931,0,0,0,,0,19,19,50,1,MALLET,LB,old,m,./images/MALLETLB.png,,,,,,,,,,,,,,,,,,,,,,
,,,,,,,,,,,,,,,,,199726,18,2022-01-29_16h44.25.266,lexical_decision_task_DD,2021.2.3,MacIntel,60.0024001,,,,,,,,,,,0.6465,1,,,,,,,,,,,,,,m,1,0.6465,,,,,,,,0.110096096,-0.405109931,0,0,0,,0,20,20,1,1,PLANK,HB,old,m,./images/PLANKHB.png,,,,,,,,,,,,,,,,,,,,,,
,,,,,,,,,,,,,,,,,199726,18,2022-01-29_16h44.25.266,lexical_decision_task_DD,2021.2.3,MacIntel,60.0024001,,,,,,,,,,,0.5368,1,,,,,,,,,,,,,,m,1,0.5368,,,,,,,,0.110096096,-0.405109931,0,0,0,,0,21,21,8,1,TULIP,LB,old,m,./images/TULIPLB.png,,,,,,,,,,,,,,,,,,,,,,
,,,,,,,,,,,,,,,,,199726,18,2022-01-29_16h44.25.266,lexical_decision_task_DD,2021.2.3,MacIntel,60.0024001,,,,,,,,,,,0.6288,1,,,,,,,,,,,,,,z,1,0.6288,,,,,,,,0.110096096,-0.405109931,0,0,0,,0,22,22,131,1,NACES,LB,old,z,./images/NACESLB.png,,,,,,,,,,,,,,,,,,,,,,
,,,,,,,,,,,,,,,,,199726,18,2022-01-29_16h44.25.266,lexical_decision_task_DD,2021.2.3,MacIntel,60.0024001,,,,,,,,,,,1.1255,0,,,,,,,,,,,,,,m,0,1.1255,,,,,,,,0.110096096,-0.405109931,0,0,0,,0,23,23,130,1,CRILL,HB,old,z,./images/CRILLHB.png,,,,,,,,,,,,,,,,,,,,,,
,,,,,,,,,,,,,,,,,199726,18,2022-01-29_16h44.25.266,lexical_decision_task_DD,2021.2.3,MacIntel,60.0024001,,,,,,,,,,,0.5635,1,,,,,,,,,,,,,,m,1,0.5635,,,,,,,,0.110096096,-0.405109931,0,0,0,,0,24,24,20,1,CRADLE,LB,old,m,./images/CRADLELB.png,,,,,,,,,,,,,,,,,,,,,,
,,,,,,,,,,,,,,,,,199726,18,2022-01-29_16h44.25.266,lexical_decision_task_DD,2021.2.3,MacIntel,60.0024001,,,,,,,,,,,0.6079,1,,,,,,,,,,,,,,z,1,0.6079,,,,,,,,0.110096096,-0.405109931,0,0,0,,0,25,25,147,1,ZOLES,C,old,z,./images/ZOLES.png,,,,,,,,,,,,,,,,,,,,,,
,,,,,,,,,,,,,,,,,199726,18,2022-01-29_16h44.25.266,lexical_decision_task_DD,2021.2.3,MacIntel,60.0024001,,,,,,,,,,,0.6316,1,,,,,,,,,,,,,,z,1,0.6316,,,,,,,,0.110096096,-0.405109931,0,0,0,,0,26,26,90,1,NEAST,C,old,z,./images/NEAST.png,,,,,,,,,,,,,,,,,,,,,,
,,,,,,,,,,,,,,,,,199726,18,2022-01-29_16h44.25.266,lexical_decision_task_DD,2021.2.3,MacIntel,60.0024001,,,,,,,,,,,0.5089,1,,,,,,,,,,,,,,m,1,0.5089,,,,,,,,0.110096096,-0.405109931,0,0,0,,0,27,27,81,1,POODLE,C,old,m,./images/POODLE.png,,,,,,,,,,,,,,,,,,,,,,
,,,,,,,,,,,,,,,,,199726,18,2022-01-29_16h44.25.266,lexical_decision_task_DD,2021.2.3,MacIntel,60.0024001,,,,,,,,,,,0.6423,1,,,,,,,,,,,,,,z,1,0.6423,,,,,,,,0.110096096,-0.405109931,0,0,0,,0,28,28,120,1,RINED,C,old,z,./images/RINED.png,,,,,,,,,,,,,,,,,,,,,,
,,,,,,,,,,,,,,,,,199726,18,2022-01-29_16h44.25.266,lexical_decision_task_DD,2021.2.3,MacIntel,60.0024001,,,,,,,,,,,0.4616,1,,,,,,,,,,,,,,m,1,0.4616,,,,,,,,0.110096096,-0.405109931,0,0,0,,0,29,29,14,1,PICKLE,LB,old,m,./images/PICKLELB.png,,,,,,,,,,,,,,,,,,,,,,
,,,,,,,,,,,,,,,,,199726,18,2022-01-29_16h44.25.266,lexical_decision_task_DD,2021.2.3,MacIntel,60.0024001,,,,,,,,,,,0.716,1,,,,,,,,,,,,,,z,1,0.716,,,,,,,,0.110096096,-0.405109931,0,0,0,,0,30,30,108,1,GRUET,C,old,z,./images/GRUET.png,,,,,,,,,,,,,,,,,,,,,,
,,,,,,,,,,,,,,,,,199726,18,2022-01-29_16h44.25.266,lexical_decision_task_DD,2021.2.3,MacIntel,60.0024001,,,,,,,,,,,0.646,1,,,,,,,,,,,,,,m,1,0.646,,,,,,,,0.110096096,-0.405109931,0,0,0,,0,31,31,28,1,FALCON,HB,old,m,./images/FALCONHB.png,,,,,,,,,,,,,,,,,,,,,,
,,,,,,,,,,,,,,,,,199726,18,2022-01-29_16h44.25.266,lexical_decision_task_DD,2021.2.3,MacIntel,60.0024001,,,,,,,,,,,0.6828,1,,,,,,,,,,,,,,z,1,0.6828,,,,,,,,0.110096096,-0.405109931,0,0,0,,0,32,32,99,1,BACKY,C,old,z,./images/BACKY.png,,,,,,,,,,,,,,,,,,,,,,
,,,,,,,,,,,,,,,,,199726,18,2022-01-29_16h44.25.266,lexical_decision_task_DD,2021.2.3,MacIntel,60.0024001,,,,,,,,,,,0.5651,1,,,,,,,,,,,,,,z,1,0.5651,,,,,,,,0.110096096,-0.405109931,0,0,0,,0,33,33,156,1,HIXES,C,old,z,./images/HIXES.png,,,,,,,,,,,,,,,,,,,,,,
,,,,,,,,,,,,,,,,,199726,18,2022-01-29_16h44.25.266,lexical_decision_task_DD,2021.2.3,MacIntel,60.0024001,,,,,,,,,,,0.5962,1,,,,,,,,,,,,,,z,1,0.5962,,,,,,,,0.110096096,-0.405109931,0,0,0,,0,34,34,117,1,STEEG,C,old,z,./images/STEEG.png,,,,,,,,,,,,,,,,,,,,,,
,,,,,,,,,,,,,,,,,199726,18,2022-01-29_16h44.25.266,lexical_decision_task_DD,2021.2.3,MacIntel,60.0024001,,,,,,,,,,,0.4928,1,,,,,,,,,,,,,,m,1,0.4928,,,,,,,,0.110096096,-0.405109931,0,0,0,,0,35,35,48,1,SPORT,C,old,m,./images/SPORT.png,,,,,,,,,,,,,,,,,,,,,,
,,,,,,,,,,,,,,,,,199726,18,2022-01-29_16h44.25.266,lexical_decision_task_DD,2021.2.3,MacIntel,60.0024001,,,,,,,,,,,0.5329,1,,,,,,,,,,,,,,z,1,0.5329,,,,,,,,0.110096096,-0.405109931,0,0,0,,0,36,36,129,1,PRANS,C,old,z,./images/PRANS.png,,,,,,,,,,,,,,,,,,,,,,
,,,,,,,,,,,,,,,,,199726,18,2022-01-29_16h44.25.266,lexical_decision_task_DD,2021.2.3,MacIntel,60.0024001,,,,,,,,,,,0.5315,1,,,,,,,,,,,,,,m,1,0.5315,,,,,,,,0.110096096,-0.405109931,0,0,0,,0,37,37,32,1,BARREL,LB,old,m,./images/BARRELLB.png,,,,,,,,,,,,,,,,,,,,,,
,,,,,,,,,,,,,,,,,199726,18,2022-01-29_16h44.25.266,lexical_decision_task_DD,2021.2.3,MacIntel,60.0024001,,,,,,,,,,,0.5102,1,,,,,,,,,,,,,,m,1,0.5102,,,,,,,,0.110096096,-0.405109931,0,0,0,,0,38,38,68,1,TORCH,LB,old,m,./images/TORCHLB.png,,,,,,,,,,,,,,,,,,,,,,
,,,,,,,,,,,,,,,,,199726,18,2022-01-29_16h44.25.266,lexical_decision_task_DD,2021.2.3,MacIntel,60.0024001,,,,,,,,,,,1.1173,1,,,,,,,,,,,,,,m,1,1.1173,,,,,,,,0.110096096,-0.405109931,0,0,0,,0,39,39,49,1,DRUMS,HB,old,m,./images/DRUMSHB.png,,,,,,,,,,,,,,,,,,,,,,
,,,,,,,,,,,,,,,,,199726,18,2022-01-29_16h44.25.266,lexical_decision_task_DD,2021.2.3,MacIntel,60.0024001,,,,,,,,,,,0.9842,1,,,,,,,,,,,,,,m,1,0.9842,,,,,,,,0.110096096,-0.405109931,0,0,0,,0,40,40,25,1,WRIST,HB,old,m,./images/WRISTHB.png,,,,,,,,,,,,,,,,,,,,,,
,,,,,,,,,,,,,,,,,199726,18,2022-01-29_16h44.25.266,lexical_decision_task_DD,2021.2.3,MacIntel,60.0024001,,,,,,,,,,,0.6336,0,,,,,,,,,,,,,,m,0,0.6336,,,,,,,,0.110096096,-0.405109931,0,0,0,space,0,41,41,85,1,CHULK,HB,old,z,./images/CHULKHB.png,3.7393,,,,,,,,,,,,,,,,,,,,,
,,,,,,,,,,,,,,,,,199726,18,2022-01-29_16h44.25.266,lexical_decision_task_DD,2021.2.3,MacIntel,60.0024001,,,,,,,,,,,0.6169,1,,,,,,,,,,,,,,m,1,0.6169,,,,,,,,0.110096096,-0.405109931,0,0,0,,0,42,42,70,1,URINE,HB,old,m,./images/URINEHB.png,,,,,,,,,,,,,,,,,,,,,,
,,,,,,,,,,,,,,,,,199726,18,2022-01-29_16h44.25.266,lexical_decision_task_DD,2021.2.3,MacIntel,60.0024001,,,,,,,,,,,0.6433,1,,,,,,,,,,,,,,z,1,0.6433,,,,,,,,0.110096096,-0.405109931,0,0,0,,0,43,43,137,1,JOOST,LB,old,z,./images/JOOSTLB.png,,,,,,,,,,,,,,,,,,,,,,
,,,,,,,,,,,,,,,,,199726,18,2022-01-29_16h44.25.266,lexical_decision_task_DD,2021.2.3,MacIntel,60.0024001,,,,,,,,,,,1.2205,1,,,,,,,,,,,,,,z,1,1.2205,,,,,,,,0.110096096,-0.405109931,0,0,0,,0,44,44,145,1,LAMEL,HB,old,z,./images/LAMELHB.png,,,,,,,,,,,,,,,,,,,,,,
,,,,,,,,,,,,,,,,,199726,18,2022-01-29_16h44.25.266,lexical_decision_task_DD,2021.2.3,MacIntel,60.0024001,,,,,,,,,,,0.4823,1,,,,,,,,,,,,,,m,1,0.4823,,,,,,,,0.110096096,-0.405109931,0,0,0,,0,45,45,2,1,BEARD,LB,old,m,./images/BEARDLB.png,,,,,,,,,,,,,,,,,,,,,,
,,,,,,,,,,,,,,,,,199726,18,2022-01-29_16h44.25.266,lexical_decision_task_DD,2021.2.3,MacIntel,60.0024001,,,,,,,,,,,1.1101,1,,,,,,,,,,,,,,z,1,1.1101,,,,,,,,0.110096096,-0.405109931,0,0,0,,0,46,46,91,1,SHENS,HB,old,z,./images/SHENSHB.png,,,,,,,,,,,,,,,,,,,,,,
,,,,,,,,,,,,,,,,,199726,18,2022-01-29_16h44.25.266,lexical_decision_task_DD,2021.2.3,MacIntel,60.0024001,,,,,,,,,,,1.1673,1,,,,,,,,,,,,,,m,1,1.1673,,,,,,,,0.110096096,-0.405109931,0,0,0,,0,47,47,43,1,MOSQUE,HB,old,m,./images/MOSQUEHB.png,,,,,,,,,,,,,,,,,,,,,,
,,,,,,,,,,,,,,,,,199726,18,2022-01-29_16h44.25.266,lexical_decision_task_DD,2021.2.3,MacIntel,60.0024001,,,,,,,,,,,0.6347,1,,,,,,,,,,,,,,m,1,0.6347,,,,,,,,0.110096096,-0.405109931,0,0,0,,0,48,48,37,1,BIRTH,HB,old,m,./images/BIRTHHB.png,,,,,,,,,,,,,,,,,,,,,,
,,,,,,,,,,,,,,,,,199726,18,2022-01-29_16h44.25.266,lexical_decision_task_DD,2021.2.3,MacIntel,60.0024001,,,,,,,,,,,0.7433,1,,,,,,,,,,,,,,z,1,0.7433,,,,,,,,0.110096096,-0.405109931,0,0,0,,0,49,49,136,1,WERVE,HB,old,z,./images/WERVEHB.png,,,,,,,,,,,,,,,,,,,,,,
,,,,,,,,,,,,,,,,,199726,18,2022-01-29_16h44.25.266,lexical_decision_task_DD,2021.2.3,MacIntel,60.0024001,,,,,,,,,,,0.4679,1,,,,,,,,,,,,,,m,1,0.4679,,,,,,,,0.110096096,-0.405109931,0,0,0,,0,50,50,41,1,STRING,LB,old,m,./images/STRINGLB.png,,,,,,,,,,,,,,,,,,,,,,
,,,,,,,,,,,,,,,,,199726,18,2022-01-29_16h44.25.266,lexical_decision_task_DD,2021.2.3,MacIntel,60.0024001,,,,,,,,,,,0.793,1,,,,,,,,,,,,,,z,1,0.793,,,,,,,,0.110096096,-0.405109931,0,0,0,,0,51,51,143,1,MONGS,LB,old,z,./images/MONGSLB.png,,,,,,,,,,,,,,,,,,,,,,
,,,,,,,,,,,,,,,,,199726,18,2022-01-29_16h44.25.266,lexical_decision_task_DD,2021.2.3,MacIntel,60.0024001,,,,,,,,,,,0.492,1,,,,,,,,,,,,,,m,1,0.492,,,,,,,,0.110096096,-0.405109931,0,0,0,,0,52,52,15,1,GREASE,C,old,m,./images/GREASE.png,,,,,,,,,,,,,,,,,,,,,,
,,,,,,,,,,,,,,,,,199726,18,2022-01-29_16h44.25.266,lexical_decision_task_DD,2021.2.3,MacIntel,60.0024001,,,,,,,,,,,0.5511,1,,,,,,,,,,,,,,m,1,0.5511,,,,,,,,0.110096096,-0.405109931,0,0,0,,0,53,53,54,1,TRIPOD,C,old,m,./images/TRIPOD.png,,,,,,,,,,,,,,,,,,,,,,
,,,,,,,,,,,,,,,,,199726,18,2022-01-29_16h44.25.266,lexical_decision_task_DD,2021.2.3,MacIntel,60.0024001,,,,,,,,,,,0.6685,1,,,,,,,,,,,,,,z,1,0.6685,,,,,,,,0.110096096,-0.405109931,0,0,0,,0,54,54,112,1,MYING,HB,old,z,./images/MYINGHB.png,,,,,,,,,,,,,,,,,,,,,,
,,,,,,,,,,,,,,,,,199726,18,2022-01-29_16h44.25.266,lexical_decision_task_DD,2021.2.3,MacIntel,60.0024001,,,,,,,,,,,0.6827,1,,,,,,,,,,,,,,m,1,0.6827,,,,,,,,0.110096096,-0.405109931,0,0,0,,0,55,55,72,1,NOOSE,C,old,m,./images/NOOSE.png,,,,,,,,,,,,,,,,,,,,,,
,,,,,,,,,,,,,,,,,199726,18,2022-01-29_16h44.25.266,lexical_decision_task_DD,2021.2.3,MacIntel,60.0024001,,,,,,,,,,,0.4297,1,,,,,,,,,,,,,,m,1,0.4297,,,,,,,,0.110096096,-0.405109931,0,0,0,,0,56,56,60,1,TWINS,C,old,m,./images/TWINS.png,,,,,,,,,,,,,,,,,,,,,,
,,,,,,,,,,,,,,,,,199726,18,2022-01-29_16h44.25.266,lexical_decision_task_DD,2021.2.3,MacIntel,60.0024001,,,,,,,,,,,0.5794,1,,,,,,,,,,,,,,m,1,0.5794,,,,,,,,0.110096096,-0.405109931,0,0,0,,0,57,57,7,1,PAINT,HB,old,m,./images/PAINTHB.png,,,,,,,,,,,,,,,,,,,,,,
,,,,,,,,,,,,,,,,,199726,18,2022-01-29_16h44.25.266,lexical_decision_task_DD,2021.2.3,MacIntel,60.0024001,,,,,,,,,,,0.5665,1,,,,,,,,,,,,,,m,1,0.5665,,,,,,,,0.110096096,-0.405109931,0,0,0,,0,58,58,79,1,CRUST,HB,old,m,./images/CRUSTHB.png,,,,,,,,,,,,,,,,,,,,,,
,,,,,,,,,,,,,,,,,199726,18,2022-01-29_16h44.25.266,lexical_decision_task_DD,2021.2.3,MacIntel,60.0024001,,,,,,,,,,,0.8606,1,,,,,,,,,,,,,,m,1,0.8606,,,,,,,,0.110096096,-0.405109931,0,0,0,,0,59,59,22,1,MELON,HB,old,m,./images/MELONHB.png,,,,,,,,,,,,,,,,,,,,,,
,,,,,,,,,,,,,,,,,199726,18,2022-01-29_16h44.25.266,lexical_decision_task_DD,2021.2.3,MacIntel,60.0024001,,,,,,,,,,,0.5975,1,,,,,,,,,,,,,,z,1,0.5975,,,,,,,,0.110096096,-0.405109931,0,0,0,,0,60,60,96,1,KEAMS,C,old,z,./images/KEAMS.png,,,,,,,,,,,,,,,,,,,,,,
,,,,,,,,,,,,,,,,,199726,18,2022-01-29_16h44.25.266,lexical_decision_task_DD,2021.2.3,MacIntel,60.0024001,,,,,,,,,,,1.2356,1,,,,,,,,,,,,,,z,1,1.2356,,,,,,,,0.110096096,-0.405109931,0,0,0,,0,61,61,106,1,CLUMS,HB,old,z,./images/CLUMSHB.png,,,,,,,,,,,,,,,,,,,,,,
,,,,,,,,,,,,,,,,,199726,18,2022-01-29_16h44.25.266,lexical_decision_task_DD,2021.2.3,MacIntel,60.0024001,,,,,,,,,,,1.0326,1,,,,,,,,,,,,,,z,1,1.0326,,,,,,,,0.110096096,-0.405109931,0,0,0,,0,62,62,159,1,CUDDY,C,old,z,./images/CUDDY.png,,,,,,,,,,,,,,,,,,,,,,
,,,,,,,,,,,,,,,,,199726,18,2022-01-29_16h44.25.266,lexical_decision_task_DD,2021.2.3,MacIntel,60.0024001,,,,,,,,,,,0.792,1,,,,,,,,,,,,,,z,1,0.792,,,,,,,,0.110096096,-0.405109931,0,0,0,,0,63,63,146,1,MOOST,LB,old,z,./images/MOOSTLB.png,,,,,,,,,,,,,,,,,,,,,,
,,,,,,,,,,,,,,,,,199726,18,2022-01-29_16h44.25.266,lexical_decision_task_DD,2021.2.3,MacIntel,60.0024001,,,,,,,,,,,0.727,1,,,,,,,,,,,,,,m,1,0.727,,,,,,,,0.110096096,-0.405109931,0,0,0,,0,64,64,11,1,BONNET,LB,old,m,./images/BONNETLB.png,,,,,,,,,,,,,,,,,,,,,,
,,,,,,,,,,,,,,,,,199726,18,2022-01-29_16h44.25.266,lexical_decision_task_DD,2021.2.3,MacIntel,60.0024001,,,,,,,,,,,0.5922,1,,,,,,,,,,,,,,z,1,0.5922,,,,,,,,0.110096096,-0.405109931,0,0,0,,0,65,65,128,1,GRIFT,LB,old,z,./images/GRIFTLB.png,,,,,,,,,,,,,,,,,,,,,,
,,,,,,,,,,,,,,,,,199726,18,2022-01-29_16h44.25.266,lexical_decision_task_DD,2021.2.3,MacIntel,60.0024001,,,,,,,,,,,1.1085,1,,,,,,,,,,,,,,z,1,1.1085,,,,,,,,0.110096096,-0.405109931,0,0,0,,0,66,66,88,1,GLUSH,HB,old,z,./images/GLUSHHB.png,,,,,,,,,,,,,,,,,,,,,,
,,,,,,,,,,,,,,,,,199726,18,2022-01-29_16h44.25.266,lexical_decision_task_DD,2021.2.3,MacIntel,60.0024001,,,,,,,,,,,0.6066,1,,,,,,,,,,,,,,m,1,0.6066,,,,,,,,0.110096096,-0.405109931,0,0,0,,0,67,67,45,1,KITTEN,C,old,m,./images/KITTEN.png,,,,,,,,,,,,,,,,,,,,,,
,,,,,,,,,,,,,,,,,199726,18,2022-01-29_16h44.25.266,lexical_decision_task_DD,2021.2.3,MacIntel,60.0024001,,,,,,,,,,,0.5002,1,,,,,,,,,,,,,,m,1,0.5002,,,,,,,,0.110096096,-0.405109931,0,0,0,,0,68,68,5,1,PASTA,LB,old,m,./images/PASTALB.png,,,,,,,,,,,,,,,,,,,,,,
,,,,,,,,,,,,,,,,,199726,18,2022-01-29_16h44.25.266,lexical_decision_task_DD,2021.2.3,MacIntel,60.0024001,,,,,,,,,,,0.6604,1,,,,,,,,,,,,,,m,1,0.6604,,,,,,,,0.110096096,-0.405109931,0,0,0,,0,69,69,52,1,BANNER,HB,old,m,./images/BANNERHB.png,,,,,,,,,,,,,,,,,,,,,,
,,,,,,,,,,,,,,,,,199726,18,2022-01-29_16h44.25.266,lexical_decision_task_DD,2021.2.3,MacIntel,60.0024001,,,,,,,,,,,0.5151,1,,,,,,,,,,,,,,m,1,0.5151,,,,,,,,0.110096096,-0.405109931,0,0,0,,0,70,70,9,1,RHINO,C,old,m,./images/RHINO.png,,,,,,,,,,,,,,,,,,,,,,
,,,,,,,,,,,,,,,,,199726,18,2022-01-29_16h44.25.266,lexical_decision_task_DD,2021.2.3,MacIntel,60.0024001,,,,,,,,,,,0.5424,1,,,,,,,,,,,,,,m,1,0.5424,,,,,,,,0.110096096,-0.405109931,0,0,0,,0,71,71,71,1,PIMPLE,LB,old,m,./images/PIMPLELB.png,,,,,,,,,,,,,,,,,,,,,,
,,,,,,,,,,,,,,,,,199726,18,2022-01-29_16h44.25.266,lexical_decision_task_DD,2021.2.3,MacIntel,60.0024001,,,,,,,,,,,0.5742,1,,,,,,,,,,,,,,z,1,0.5742,,,,,,,,0.110096096,-0.405109931,0,0,0,,0,72,72,111,1,HOSSE,C,old,z,./images/HOSSE.png,,,,,,,,,,,,,,,,,,,,,,
,,,,,,,,,,,,,,,,,199726,18,2022-01-29_16h44.25.266,lexical_decision_task_DD,2021.2.3,MacIntel,60.0024001,,,,,,,,,,,0.4822,1,,,,,,,,,,,,,,m,1,0.4822,,,,,,,,0.110096096,-0.405109931,0,0,0,,0,73,73,23,1,WALRUS,LB,old,m,./images/WALRUSLB.png,,,,,,,,,,,,,,,,,,,,,,
,,,,,,,,,,,,,,,,,199726,18,2022-01-29_16h44.25.266,lexical_decision_task_DD,2021.2.3,MacIntel,60.0024001,,,,,,,,,,,0.4805,1,,,,,,,,,,,,,,m,1,0.4805,,,,,,,,0.110096096,-0.405109931,0,0,0,,0,74,74,66,1,SWEAT,C,old,m,./images/SWEAT.png,,,,,,,,,,,,,,,,,,,,,,
,,,,,,,,,,,,,,,,,199726,18,2022-01-29_16h44.25.266,lexical_decision_task_DD,2021.2.3,MacIntel,60.0024001,,,,,,,,,,,0.535,1,,,,,,,,,,,,,,m,1,0.535,,,,,,,,0.110096096,-0.405109931,0,0,0,,0,75,75,59,1,BURIAL,LB,old,m,./images/BURIALLB.png,,,,,,,,,,,,,,,,,,,,,,
,,,,,,,,,,,,,,,,,199726,18,2022-01-29_16h44.25.266,lexical_decision_task_DD,2021.2.3,MacIntel,60.0024001,,,,,,,,,,,0.6072,1,,,,,,,,,,,,,,m,1,0.6072,,,,,,,,0.110096096,-0.405109931,0,0,0,,0,76,76,57,1,MOOSE,C,old,m,./images/MOOSE.png,,,,,,,,,,,,,,,,,,,,,,
,,,,,,,,,,,,,,,,,199726,18,2022-01-29_16h44.25.266,lexical_decision_task_DD,2021.2.3,MacIntel,60.0024001,,,,,,,,,,,0.5935,1,,,,,,,,,,,,,,z,1,0.5935,,,,,,,,0.110096096,-0.405109931,0,0,0,,0,77,77,153,1,CLUPS,C,old,z,./images/CLUPS.png,,,,,,,,,,,,,,,,,,,,,,
,,,,,,,,,,,,,,,,,199726,18,2022-01-29_16h44.25.266,lexical_decision_task_DD,2021.2.3,MacIntel,60.0024001,,,,,,,,,,,1.3088,1,,,,,,,,,,,,,,z,1,1.3088,,,,,,,,0.110096096,-0.405109931,0,0,0,,0,78,78,127,1,NINDY,HB,old,z,./images/NINDYHB.png,,,,,,,,,,,,,,,,,,,,,,
,,,,,,,,,,,,,,,,,199726,18,2022-01-29_16h44.25.266,lexical_decision_task_DD,2021.2.3,MacIntel,60.0024001,,,,,,,,,,,0.7579,1,,,,,,,,,,,,,,z,1,0.7579,,,,,,,,0.110096096,-0.405109931,0,0,0,,0,79,79,124,1,TUNCH,HB,old,z,./images/TUNCHHB.png,,,,,,,,,,,,,,,,,,,,,,
,,,,,,,,,,,,,,,,,199726,18,2022-01-29_16h44.25.266,lexical_decision_task_DD,2021.2.3,MacIntel,60.0024001,,,,,,,,,,,0.5485,1,,,,,,,,,,,,,,m,1,0.5485,,,,,,,,0.110096096,-0.405109931,0,0,0,,0,80,80,36,1,THROAT,C,old,m,./images/THROAT.png,,,,,,,,,,,,,,,,,,,,,,
,,,,,,,,,,,,,,,,,199726,18,2022-01-29_16h44.25.266,lexical_decision_task_DD,2021.2.3,MacIntel,60.0024001,,,,,,,,,,,0.5499,1,,,,,,,,,,,,,,m,1,0.5499,,,,,,,,0.110096096,-0.405109931,0,0,0,,0,81,81,33,1,MAGGOT,C,old,m,./images/MAGGOT.png,,,,,,,,,,,,,,,,,,,,,,
,,,,,,,,,,,,,,,,,199726,18,2022-01-29_16h44.25.266,lexical_decision_task_DD,2021.2.3,MacIntel,60.0024001,,,,,,,,,,,0.8144,1,,,,,,,,,,,,,,z,1,0.8144,,,,,,,,0.110096096,-0.405109931,0,0,0,,0,82,82,160,1,VEETS,HB,old,z,./images/VEETSHB.png,,,,,,,,,,,,,,,,,,,,,,
,,,,,,,,,,,,,,,,,199726,18,2022-01-29_16h44.25.266,lexical_decision_task_DD,2021.2.3,MacIntel,60.0024001,,,,,,,,,,,0.7242,1,,,,,,,,,,,,,,z,1,0.7242,,,,,,,,0.110096096,-0.405109931,0,0,0,space,0,83,83,93,1,SMONE,C,old,z,./images/SMONE.png,46.8174,,,,,,,,,,,,,,,,,,,,,
,,,,,,,,,,,,,,,,,199726,18,2022-01-29_16h44.25.266,lexical_decision_task_DD,2021.2.3,MacIntel,60.0024001,,,,,,,,,,,1.0785,1,,,,,,,,,,,,,,z,1,1.0785,,,,,,,,0.110096096,-0.405109931,0,0,0,,0,84,84,148,1,JOMS,HB,old,z,./images/JOMSHB.png,,,,,,,,,,,,,,,,,,,,,,
,,,,,,,,,,,,,,,,,199726,18,2022-01-29_16h44.25.266,lexical_decision_task_DD,2021.2.3,MacIntel,60.0024001,,,,,,,,,,,1.2288,0,,,,,,,,,,,,,,z,0,1.2288,,,,,,,,0.110096096,-0.405109931,0,0,0,,0,85,85,67,1,SAILOR,HB,old,m,./images/SAILORHB.png,,,,,,,,,,,,,,,,,,,,,,
,,,,,,,,,,,,,,,,,199726,18,2022-01-29_16h44.25.266,lexical_decision_task_DD,2021.2.3,MacIntel,60.0024001,,,,,,,,,,,0.6088,1,,,,,,,,,,,,,,z,1,0.6088,,,,,,,,0.110096096,-0.405109931,0,0,0,,0,86,86,164,1,SGREW,LB,old,z,./images/SGREWLB.png,,,,,,,,,,,,,,,,,,,,,,
,,,,,,,,,,,,,,,,,199726,18,2022-01-29_16h44.25.266,lexical_decision_task_DD,2021.2.3,MacIntel,60.0024001,,,,,,,,,,,0.5967,1,,,,,,,,,,,,,,z,1,0.5967,,,,,,,,0.110096096,-0.405109931,0,0,0,,0,87,87,123,1,SEDGE,C,old,z,./images/SEDGE.png,,,,,,,,,,,,,,,,,,,,,,
,,,,,,,,,,,,,,,,,199726,18,2022-01-29_16h44.25.266,lexical_decision_task_DD,2021.2.3,MacIntel,60.0024001,,,,,,,,,,,0.6441,1,,,,,,,,,,,,,,z,1,0.6441,,,,,,,,0.110096096,-0.405109931,0,0,0,,0,88,88,110,1,CRUNK,LB,old,z,./images/CRUNKLB.png,,,,,,,,,,,,,,,,,,,,,,
,,,,,,,,,,,,,,,,,199726,18,2022-01-29_16h44.25.266,lexical_decision_task_DD,2021.2.3,MacIntel,60.0024001,,,,,,,,,,,0.4999,1,,,,,,,,,,,,,,m,1,0.4999,,,,,,,,0.110096096,-0.405109931,0,0,0,,0,89,89,24,1,SCREW,C,old,m,./images/SCREW.png,,,,,,,,,,,,,,,,,,,,,,
,,,,,,,,,,,,,,,,,199726,18,2022-01-29_16h44.25.266,lexical_decision_task_DD,2021.2.3,MacIntel,60.0024001,,,,,,,,,,,0.5611,1,,,,,,,,,,,,,,m,1,0.5611,,,,,,,,0.110096096,-0.405109931,0,0,0,,0,90,90,3,1,FINGER,C,old,m,./images/FINGER.png,,,,,,,,,,,,,,,,,,,,,,
,,,,,,,,,,,,,,,,,199726,18,2022-01-29_16h44.25.266,lexical_decision_task_DD,2021.2.3,MacIntel,60.0024001,,,,,,,,,,,1.2004,1,,,,,,,,,,,,,,z,1,1.2004,,,,,,,,0.110096096,-0.405109931,0,0,0,,0,91,91,100,1,DRIBS,HB,old,z,./images/DRIBSHB.png,,,,,,,,,,,,,,,,,,,,,,
,,,,,,,,,,,,,,,,,199726,18,2022-01-29_16h44.25.266,lexical_decision_task_DD,2021.2.3,MacIntel,60.0024001,,,,,,,,,,,0.5348,1,,,,,,,,,,,,,,z,1,0.5348,,,,,,,,0.110096096,-0.405109931,0,0,0,,0,92,92,87,1,TRING,C,old,z,./images/TRING.png,,,,,,,,,,,,,,,,,,,,,,
,,,,,,,,,,,,,,,,,199726,18,2022-01-29_16h44.25.266,lexical_decision_task_DD,2021.2.3,MacIntel,60.0024001,,,,,,,,,,,0.5331,1,,,,,,,,,,,,,,z,1,0.5331,,,,,,,,0.110096096,-0.405109931,0,0,0,,0,93,93,105,1,MOKER,C,old,z,./images/MOKER.png,,,,,,,,,,,,,,,,,,,,,,
,,,,,,,,,,,,,,,,,199726,18,2022-01-29_16h44.25.266,lexical_decision_task_DD,2021.2.3,MacIntel,60.0024001,,,,,,,,,,,0.6465,1,,,,,,,,,,,,,,z,1,0.6465,,,,,,,,0.110096096,-0.405109931,0,0,0,,0,94,94,125,1,MOOKY,LB,old,z,./images/MOOKYLB.png,,,,,,,,,,,,,,,,,,,,,,
,,,,,,,,,,,,,,,,,199726,18,2022-01-29_16h44.25.266,lexical_decision_task_DD,2021.2.3,MacIntel,60.0024001,,,,,,,,,,,0.8875,1,,,,,,,,,,,,,,z,1,0.8875,,,,,,,,0.110096096,-0.405109931,0,0,0,,0,95,95,139,1,BLEAR,HB,old,z,./images/BLEARHB.png,,,,,,,,,,,,,,,,,,,,,,
,,,,,,,,,,,,,,,,,199726,18,2022-01-29_16h44.25.266,lexical_decision_task_DD,2021.2.3,MacIntel,60.0024001,,,,,,,,,,,0.9817,1,,,,,,,,,,,,,,z,1,0.9817,,,,,,,,0.110096096,-0.405109931,0,0,0,,0,96,96,151,1,TINKY,HB,old,z,./images/TINKYHB.png,,,,,,,,,,,,,,,,,,,,,,
,,,,,,,,,,,,,,,,,199726,18,2022-01-29_16h44.25.266,lexical_decision_task_DD,2021.2.3,MacIntel,60.0024001,,,,,,,,,,,1.2763,1,,,,,,,,,,,,,,z,1,1.2763,,,,,,,,0.110096096,-0.405109931,0,0,0,,0,97,97,115,1,MAWNS,HB,old,z,./images/MAWNSHB.png,,,,,,,,,,,,,,,,,,,,,,
,,,,,,,,,,,,,,,,,199726,18,2022-01-29_16h44.25.266,lexical_decision_task_DD,2021.2.3,MacIntel,60.0024001,,,,,,,,,,,1.0763,1,,,,,,,,,,,,,,z,1,1.0763,,,,,,,,0.110096096,-0.405109931,0,0,0,,0,98,98,157,1,INLER,HB,old,z,./images/INLERHB.png,,,,,,,,,,,,,,,,,,,,,,
,,,,,,,,,,,,,,,,,199726,18,2022-01-29_16h44.25.266,lexical_decision_task_DD,2021.2.3,MacIntel,60.0024001,,,,,,,,,,,0.6835,1,,,,,,,,,,,,,,z,1,0.6835,,,,,,,,0.110096096,-0.405109931,0,0,0,,0,99,99,134,1,TROSS,LB,old,z,./images/TROSSLB.png,,,,,,,,,,,,,,,,,,,,,,
,,,,,,,,,,,,,,,,,199726,18,2022-01-29_16h44.25.266,lexical_decision_task_DD,2021.2.3,MacIntel,60.0024001,,,,,,,,,,,0.6114,1,,,,,,,,,,,,,,m,1,0.6114,,,,,,,,0.110096096,-0.405109931,0,0,0,,0,100,100,55,1,MUFFIN,HB,old,m,./images/MUFFINHB.png,,,,,,,,,,,,,,,,,,,,,,
,,,,,,,,,,,,,,,,,199726,18,2022-01-29_16h44.25.266,lexical_decision_task_DD,2021.2.3,MacIntel,60.0024001,,,,,,,,,,,0.7663,1,,,,,,,,,,,,,,z,1,0.7663,,,,,,,,0.110096096,-0.405109931,0,0,0,,0,101,101,114,1,RIKES,C,old,z,./images/RIKES.png,,,,,,,,,,,,,,,,,,,,,,
,,,,,,,,,,,,,,,,,199726,18,2022-01-29_16h44.25.266,lexical_decision_task_DD,2021.2.3,MacIntel,60.0024001,,,,,,,,,,,0.4593,1,,,,,,,,,,,,,,m,1,0.4593,,,,,,,,0.110096096,-0.405109931,0,0,0,,0,102,102,63,1,MIRROR,C,old,m,./images/MIRROR.png,,,,,,,,,,,,,,,,,,,,,,
,,,,,,,,,,,,,,,,,199726,18,2022-01-29_16h44.25.266,lexical_decision_task_DD,2021.2.3,MacIntel,60.0024001,,,,,,,,,,,0.6655,1,,,,,,,,,,,,,,m,1,0.6655,,,,,,,,0.110096096,-0.405109931,0,0,0,,0,103,103,74,1,CEMENT,LB,old,m,./images/CEMENTLB.png,,,,,,,,,,,,,,,,,,,,,,
,,,,,,,,,,,,,,,,,199726,18,2022-01-29_16h44.25.266,lexical_decision_task_DD,2021.2.3,MacIntel,60.0024001,,,,,,,,,,,0.5934,1,,,,,,,,,,,,,,m,1,0.5934,,,,,,,,0.110096096,-0.405109931,0,0,0,,0,104,104,47,1,BERRY,LB,old,m,./images/BERRYLB.png,,,,,,,,,,,,,,,,,,,,,,
,,,,,,,,,,,,,,,,,199726,18,2022-01-29_16h44.25.266,lexical_decision_task_DD,2021.2.3,MacIntel,60.0024001,,,,,,,,,,,0.5432,1,,,,,,,,,,,,,,z,1,0.5432,,,,,,,,0.110096096,-0.405109931,0,0,0,,0,105,105,138,1,PLICE,C,old,z,./images/PLICE.png,,,,,,,,,,,,,,,,,,,,,,
,,,,,,,,,,,,,,,,,199726,18,2022-01-29_16h44.25.266,lexical_decision_task_DD,2021.2.3,MacIntel,60.0024001,,,,,,,,,,,0.5802,1,,,,,,,,,,,,,,m,1,0.5802,,,,,,,,0.110096096,-0.405109931,0,0,0,,0,106,106,82,1,SUNSET,HB,old,m,./images/SUNSETHB.png,,,,,,,,,,,,,,,,,,,,,,
,,,,,,,,,,,,,,,,,199726,18,2022-01-29_16h44.25.266,lexical_decision_task_DD,2021.2.3,MacIntel,60.0024001,,,,,,,,,,,0.4455,1,,,,,,,,,,,,,,m,1,0.4455,,,,,,,,0.110096096,-0.405109931,0,0,0,,0,107,107,44,1,LIZARD,LB,old,m,./images/LIZARDLB.png,,,,,,,,,,,,,,,,,,,,,,
,,,,,,,,,,,,,,,,,199726,18,2022-01-29_16h44.25.266,lexical_decision_task_DD,2021.2.3,MacIntel,60.0024001,,,,,,,,,,,0.527,1,,,,,,,,,,,,,,z,1,0.527,,,,,,,,0.110096096,-0.405109931,0,0,0,,0,108,108,162,1,LEICH,C,old,z,./images/LEICH.png,,,,,,,,,,,,,,,,,,,,,,
,,,,,,,,,,,,,,,,,199726,18,2022-01-29_16h44.25.266,lexical_decision_task_DD,2021.2.3,MacIntel,60.0024001,,,,,,,,,,,0.5158,1,,,,,,,,,,,,,,m,1,0.5158,,,,,,,,0.110096096,-0.405109931,0,0,0,,0,109,109,17,1,SKIING,LB,old,m,./images/SKIINGLB.png,,,,,,,,,,,,,,,,,,,,,,
,,,,,,,,,,,,,,,,,199726,18,2022-01-29_16h44.25.266,lexical_decision_task_DD,2021.2.3,MacIntel,60.0024001,,,,,,,,,,,0.5594,1,,,,,,,,,,,,,,z,1,0.5594,,,,,,,,0.110096096,-0.405109931,0,0,0,,0,110,110,135,1,JOODY,C,old,z,./images/JOODY.png,,,,,,,,,,,,,,,,,,,,,,
,,,,,,,,,,,,,,,,,199726,18,2022-01-29_16h44.25.266,lexical_decision_task_DD,2021.2.3,MacIntel,60.0024001,,,,,,,,,,,1.4117,1,,,,,,,,,,,,,,z,1,1.4117,,,,,,,,0.110096096,-0.405109931,0,0,0,,0,111,111,166,1,SHORY,HB,old,z,./images/SHORYHB.png,,,,,,,,,,,,,,,,,,,,,,
,,,,,,,,,,,,,,,,,199726,18,2022-01-29_16h44.25.266,lexical_decision_task_DD,2021.2.3,MacIntel,60.0024001,,,,,,,,,,,0.5096,1,,,,,,,,,,,,,,m,1,0.5096,,,,,,,,0.110096096,-0.405109931,0,0,0,,0,112,112,73,1,SNACK,HB,old,m,./images/SNACKHB.png,,,,,,,,,,,,,,,,,,,,,,
,,,,,,,,,,,,,,,,,199726,18,2022-01-29_16h44.25.266,lexical_decision_task_DD,2021.2.3,MacIntel,60.0024001,,,,,,,,,,,0.5763,1,,,,,,,,,,,,,,m,1,0.5763,,,,,,,,0.110096096,-0.405109931,0,0,0,,0,113,113,69,1,COOKER,C,old,m,./images/COOKER.png,,,,,,,,,,,,,,,,,,,,,,
,,,,,,,,,,,,,,,,,199726,18,2022-01-29_16h44.25.266,lexical_decision_task_DD,2021.2.3,MacIntel,60.0024001,,,,,,,,,,,0.8661,1,,,,,,,,,,,,,,m,1,0.8661,,,,,,,,0.110096096,-0.405109931,0,0,0,,0,114,114,61,1,CANDLE,HB,old,m,./images/CANDLEHB.png,,,,,,,,,,,,,,,,,,,,,,
,,,,,,,,,,,,,,,,,199726,18,2022-01-29_16h44.25.266,lexical_decision_task_DD,2021.2.3,MacIntel,60.0024001,,,,,,,,,,,0.6265,1,,,,,,,,,,,,,,m,1,0.6265,,,,,,,,0.110096096,-0.405109931,0,0,0,,0,115,115,4,1,MUSCLE,HB,old,m,./images/MUSCLEHB.png,,,,,,,,,,,,,,,,,,,,,,
,,,,,,,,,,,,,,,,,199726,18,2022-01-29_16h44.25.266,lexical_decision_task_DD,2021.2.3,MacIntel,60.0024001,,,,,,,,,,,0.6446,1,,,,,,,,,,,,,,z,1,0.6446,,,,,,,,0.110096096,-0.405109931,0,0,0,,0,116,116,152,1,FRAIN,LB,old,z,./images/FRAINLB.png,,,,,,,,,,,,,,,,,,,,,,
,,,,,,,,,,,,,,,,,199726,18,2022-01-29_16h44.25.266,lexical_decision_task_DD,2021.2.3,MacIntel,60.0024001,,,,,,,,,,,0.427,1,,,,,,,,,,,,,,m,1,0.427,,,,,,,,0.110096096,-0.405109931,0,0,0,,0,117,117,83,1,JUNGLE,LB,old,m,./images/JUNGLELB.png,,,,,,,,,,,,,,,,,,,,,,
,,,,,,,,,,,,,,,,,199726,18,2022-01-29_16h44.25.266,lexical_decision_task_DD,2021.2.3,MacIntel,60.0024001,,,,,,,,,,,1.7472,1,,,,,,,,,,,,,,m,1,1.7472,,,,,,,,0.110096096,-0.405109931,0,0,0,,0,118,118,16,1,PENCE,HB,old,m,./images/PENCEHB.png,,,,,,,,,,,,,,,,,,,,,,
,,,,,,,,,,,,,,,,,199726,18,2022-01-29_16h44.25.266,lexical_decision_task_DD,2021.2.3,MacIntel,60.0024001,,,,,,,,,,,0.7819,1,,,,,,,,,,,,,,m,1,0.7819,,,,,,,,0.110096096,-0.405109931,0,0,0,,0,119,119,76,1,INFANT,HB,old,m,./images/INFANTHB.png,,,,,,,,,,,,,,,,,,,,,,
,,,,,,,,,,,,,,,,,199726,18,2022-01-29_16h44.25.266,lexical_decision_task_DD,2021.2.3,MacIntel,60.0024001,,,,,,,,,,,0.9263,0,,,,,,,,,,,,,,m,0,0.9263,,,,,,,,0.110096096,-0.405109931,0,0,0,,0,120,120,149,1,VEASE,LB,old,z,./images/VEASELB.png,,,,,,,,,,,,,,,,,,,,,,
,,,,,,,,,,,,,,,,,199726,18,2022-01-29_16h44.25.266,lexical_decision_task_DD,2021.2.3,MacIntel,60.0024001,,,,,,,,,,,0.7326,1,,,,,,,,,,,,,,m,1,0.7326,,,,,,,,0.110096096,-0.405109931,0,0,0,,0,121,121,78,1,LITTER,C,old,m,./images/LITTER.png,,,,,,,,,,,,,,,,,,,,,,
,,,,,,,,,,,,,,,,,199726,18,2022-01-29_16h44.25.266,lexical_decision_task_DD,2021.2.3,MacIntel,60.0024001,,,,,,,,,,,1.0976,1,,,,,,,,,,,,,,z,1,1.0976,,,,,,,,0.110096096,-0.405109931,0,0,0,,0,122,122,154,1,THINT,HB,old,z,./images/THINTHB.png,,,,,,,,,,,,,,,,,,,,,,
,,,,,,,,,,,,,,,,,199726,18,2022-01-29_16h44.25.266,lexical_decision_task_DD,2021.2.3,MacIntel,60.0024001,,,,,,,,,,,0.7838,1,,,,,,,,,,,,,,z,1,0.7838,,,,,,,,0.110096096,-0.405109931,0,0,0,,0,123,123,97,1,CHIDS,HB,old,z,./images/CHIDSHB.png,,,,,,,,,,,,,,,,,,,,,,
,,,,,,,,,,,,,,,,,199726,18,2022-01-29_16h44.25.266,lexical_decision_task_DD,2021.2.3,MacIntel,60.0024001,,,,,,,,,,,0.6444,1,,,,,,,,,,,,,,z,1,0.6444,,,,,,,,0.110096096,-0.405109931,0,0,0,,0,124,124,92,1,PAIMS,LB,old,z,./images/PAIMSLB.png,,,,,,,,,,,,,,,,,,,,,,
,,,,,,,,,,,,,,,,,199726,18,2022-01-29_16h44.25.266,lexical_decision_task_DD,2021.2.3,MacIntel,60.0024001,,,,,,,,,,,0.6279,1,,,,,,,,,,,,,,z,1,0.6279,,,,,,,,0.110096096,-0.405109931,0,0,0,space,0,125,125,103,1,FLORT,HB,old,z,./images/FLORTHB.png,1.6194,,,,,,,,,,,,,,,,,,,,,
,,,,,,,,,,,,,,,,,199726,18,2022-01-29_16h44.25.266,lexical_decision_task_DD,2021.2.3,MacIntel,60.0024001,,,,,,,,,,,0.5996,1,,,,,,,,,,,,,,z,1,0.5996,,,,,,,,0.110096096,-0.405109931,0,0,0,,0,126,126,165,1,TROWN,C,old,z,./images/TROWN.png,,,,,,,,,,,,,,,,,,,,,,
,,,,,,,,,,,,,,,,,199726,18,2022-01-29_16h44.25.266,lexical_decision_task_DD,2021.2.3,MacIntel,60.0024001,,,,,,,,,,,0.5137,1,,,,,,,,,,,,,,m,1,0.5137,,,,,,,,0.110096096,-0.405109931,0,0,0,,0,127,127,65,1,FARMER,LB,old,m,./images/FARMERLB.png,,,,,,,,,,,,,,,,,,,,,,
,,,,,,,,,,,,,,,,,199726,18,2022-01-29_16h44.25.266,lexical_decision_task_DD,2021.2.3,MacIntel,60.0024001,,,,,,,,,,,0.5414,1,,,,,,,,,,,,,,z,1,0.5414,,,,,,,,0.110096096,-0.405109931,0,0,0,,0,128,128,84,1,HAXES,C,old,z,./images/HAXES.png,,,,,,,,,,,,,,,,,,,,,,
,,,,,,,,,,,,,,,,,199726,18,2022-01-29_16h44.25.266,lexical_decision_task_DD,2021.2.3,MacIntel,60.0024001,,,,,,,,,,,0.5335,1,,,,,,,,,,,,,,m,1,0.5335,,,,,,,,0.110096096,-0.405109931,0,0,0,,0,129,129,56,1,PACKET,LB,old,m,./images/PACKETLB.png,,,,,,,,,,,,,,,,,,,,,,
,,,,,,,,,,,,,,,,,199726,18,2022-01-29_16h44.25.266,lexical_decision_task_DD,2021.2.3,MacIntel,60.0024001,,,,,,,,,,,0.5932,1,,,,,,,,,,,,,,m,1,0.5932,,,,,,,,0.110096096,-0.405109931,0,0,0,,0,130,130,58,1,BABOON,HB,old,m,./images/BABOONHB.png,,,,,,,,,,,,,,,,,,,,,,
,,,,,,,,,,,,,,,,,199726,18,2022-01-29_16h44.25.266,lexical_decision_task_DD,2021.2.3,MacIntel,60.0024001,,,,,,,,,,,0.567,1,,,,,,,,,,,,,,z,1,0.567,,,,,,,,0.110096096,-0.405109931,0,0,0,,0,131,131,86,1,AIFED,LB,old,z,./images/AIFEDLB.png,,,,,,,,,,,,,,,,,,,,,,
,,,,,,,,,,,,,,,,,199726,18,2022-01-29_16h44.25.266,lexical_decision_task_DD,2021.2.3,MacIntel,60.0024001,,,,,,,,,,,0.9469,1,,,,,,,,,,,,,,z,1,0.9469,,,,,,,,0.110096096,-0.405109931,0,0,0,,0,132,132,94,1,BLANS,HB,old,z,./images/BLANSHB.png,,,,,,,,,,,,,,,,,,,,,,
,,,,,,,,,,,,,,,,,199726,18,2022-01-29_16h44.25.266,lexical_decision_task_DD,2021.2.3,MacIntel,60.0024001,,,,,,,,,,,0.9973,1,,,,,,,,,,,,,,m,1,0.9973,,,,,,,,0.110096096,-0.405109931,0,0,0,,0,133,133,40,1,SWING,HB,old,m,./images/SWINGHB.png,,,,,,,,,,,,,,,,,,,,,,
,,,,,,,,,,,,,,,,,199726,18,2022-01-29_16h44.25.266,lexical_decision_task_DD,2021.2.3,MacIntel,60.0024001,,,,,,,,,,,0.5923,1,,,,,,,,,,,,,,m,1,0.5923,,,,,,,,0.110096096,-0.405109931,0,0,0,,0,134,134,34,1,CANYON,HB,old,m,./images/CANYONHB.png,,,,,,,,,,,,,,,,,,,,,,
,,,,,,,,,,,,,,,,,199726,18,2022-01-29_16h44.25.266,lexical_decision_task_DD,2021.2.3,MacIntel,60.0024001,,,,,,,,,,,0.4755,1,,,,,,,,,,,,,,m,1,0.4755,,,,,,,,0.110096096,-0.405109931,0,0,0,,0,135,135,18,1,JAGUAR,C,old,m,./images/JAGUAR.png,,,,,,,,,,,,,,,,,,,,,,
,,,,,,,,,,,,,,,,,199726,18,2022-01-29_16h44.25.266,lexical_decision_task_DD,2021.2.3,MacIntel,60.0024001,,,,,,,,,,,0.4935,1,,,,,,,,,,,,,,m,1,0.4935,,,,,,,,0.110096096,-0.405109931,0,0,0,,0,136,136,80,1,WEASEL,LB,old,m,./images/WEASELLB.png,,,,,,,,,,,,,,,,,,,,,,
,,,,,,,,,,,,,,,,,199726,18,2022-01-29_16h44.25.266,lexical_decision_task_DD,2021.2.3,MacIntel,60.0024001,,,,,,,,,,,0.4333,1,,,,,,,,,,,,,,m,1,0.4333,,,,,,,,0.110096096,-0.405109931,0,0,0,,0,137,137,26,1,SMOKER,LB,old,m,./images/SMOKERLB.png,,,,,,,,,,,,,,,,,,,,,,
,,,,,,,,,,,,,,,,,199726,18,2022-01-29_16h44.25.266,lexical_decision_task_DD,2021.2.3,MacIntel,60.0024001,,,,,,,,,,,0.4603,1,,,,,,,,,,,,,,m,1,0.4603,,,,,,,,0.110096096,-0.405109931,0,0,0,,0,138,138,6,1,SQUARE,C,old,m,./images/SQUARE.png,,,,,,,,,,,,,,,,,,,,,,
,,,,,,,,,,,,,,,,,199726,18,2022-01-29_16h44.25.266,lexical_decision_task_DD,2021.2.3,MacIntel,60.0024001,,,,,,,,,,,0.5345,1,,,,,,,,,,,,,,z,1,0.5345,,,,,,,,0.110096096,-0.405109931,0,0,0,,0,139,139,163,1,GAMBA,HB,old,z,./images/GAMBAHB.png,,,,,,,,,,,,,,,,,,,,,,
,,,,,,,,,,,,,,,,,199726,18,2022-01-29_16h44.25.266,lexical_decision_task_DD,2021.2.3,MacIntel,60.0024001,,,,,,,,,,,0.5488,1,,,,,,,,,,,,,,z,1,0.5488,,,,,,,,0.110096096,-0.405109931,0,0,0,,0,140,140,132,1,SCIFF,C,old,z,./images/SCIFF.png,,,,,,,,,,,,,,,,,,,,,,
,,,,,,,,,,,,,,,,,199726,18,2022-01-29_16h44.25.266,lexical_decision_task_DD,2021.2.3,MacIntel,60.0024001,,,,,,,,,,,0.7441,0,,,,,,,,,,,,,,z,0,0.7441,,,,,,,,0.110096096,-0.405109931,0,0,0,,0,141,141,31,1,QUILL,HB,old,m,./images/QUILLHB.png,,,,,,,,,,,,,,,,,,,,,,
,,,,,,,,,,,,,,,,,199726,18,2022-01-29_16h44.25.266,lexical_decision_task_DD,2021.2.3,MacIntel,60.0024001,,,,,,,,,,,0.4125,1,,,,,,,,,,,,,,m,1,0.4125,,,,,,,,0.110096096,-0.405109931,0,0,0,,0,142,142,0,1,TOMATO,C,old,m,./images/TOMATO.png,,,,,,,,,,,,,,,,,,,,,,
,,,,,,,,,,,,,,,,,199726,18,2022-01-29_16h44.25.266,lexical_decision_task_DD,2021.2.3,MacIntel,60.0024001,,,,,,,,,,,0.6199,1,,,,,,,,,,,,,,z,1,0.6199,,,,,,,,0.110096096,-0.405109931,0,0,0,,0,143,143,155,1,CANGY,LB,old,z,./images/CANGYLB.png,,,,,,,,,,,,,,,,,,,,,,
,,,,,,,,,,,,,,,,,199726,18,2022-01-29_16h44.25.266,lexical_decision_task_DD,2021.2.3,MacIntel,60.0024001,,,,,,,,,,,0.5465,1,,,,,,,,,,,,,,z,1,0.5465,,,,,,,,0.110096096,-0.405109931,0,0,0,,0,144,144,107,1,FASKS,LB,old,z,./images/FASKSLB.png,,,,,,,,,,,,,,,,,,,,,,
,,,,,,,,,,,,,,,,,199726,18,2022-01-29_16h44.25.266,lexical_decision_task_DD,2021.2.3,MacIntel,60.0024001,,,,,,,,,,,0.5973,1,,,,,,,,,,,,,,m,1,0.5973,,,,,,,,0.110096096,-0.405109931,0,0,0,,0,145,145,19,1,DOUGH,HB,old,m,./images/DOUGHHB.png,,,,,,,,,,,,,,,,,,,,,,
,,,,,,,,,,,,,,,,,199726,18,2022-01-29_16h44.25.266,lexical_decision_task_DD,2021.2.3,MacIntel,60.0024001,,,,,,,,,,,0.5615,1,,,,,,,,,,,,,,z,1,0.5615,,,,,,,,0.110096096,-0.405109931,0,0,0,,0,146,146,161,1,BLAPS,LB,old,z,./images/BLAPSLB.png,,,,,,,,,,,,,,,,,,,,,,
,,,,,,,,,,,,,,,,,199726,18,2022-01-29_16h44.25.266,lexical_decision_task_DD,2021.2.3,MacIntel,60.0024001,,,,,,,,,,,0.5861,1,,,,,,,,,,,,,,z,1,0.5861,,,,,,,,0.110096096,-0.405109931,0,0,0,,0,147,147,95,1,HANTY,LB,old,z,./images/HANTYLB.png,,,,,,,,,,,,,,,,,,,,,,
,,,,,,,,,,,,,,,,,199726,18,2022-01-29_16h44.25.266,lexical_decision_task_DD,2021.2.3,MacIntel,60.0024001,,,,,,,,,,,0.9845,1,,,,,,,,,,,,,,m,1,0.9845,,,,,,,,0.110096096,-0.405109931,0,0,0,,0,148,148,46,1,PEARL,HB,old,m,./images/PEARLHB.png,,,,,,,,,,,,,,,,,,,,,,
,,,,,,,,,,,,,,,,,199726,18,2022-01-29_16h44.25.266,lexical_decision_task_DD,2021.2.3,MacIntel,60.0024001,,,,,,,,,,,0.5781,1,,,,,,,,,,,,,,z,1,0.5781,,,,,,,,0.110096096,-0.405109931,0,0,0,,0,149,149,122,1,BLOOT,LB,old,z,./images/BLOOTLB.png,,,,,,,,,,,,,,,,,,,,,,
,,,,,,,,,,,,,,,,,199726,18,2022-01-29_16h44.25.266,lexical_decision_task_DD,2021.2.3,MacIntel,60.0024001,,,,,,,,,,,1.1633,1,,,,,,,,,,,,,,z,1,1.1633,,,,,,,,0.110096096,-0.405109931,0,0,0,,0,150,150,142,1,PLASK,HB,old,z,./images/PLASKHB.png,,,,,,,,,,,,,,,,,,,,,,
,,,,,,,,,,,,,,,,,199726,18,2022-01-29_16h44.25.266,lexical_decision_task_DD,2021.2.3,MacIntel,60.0024001,,,,,,,,,,,0.5393,1,,,,,,,,,,,,,,m,1,0.5393,,,,,,,,0.110096096,-0.405109931,0,0,0,,0,151,151,51,1,ONION,C,old,m,./images/ONION.png,,,,,,,,,,,,,,,,,,,,,,
,,,,,,,,,,,,,,,,,199726,18,2022-01-29_16h44.25.266,lexical_decision_task_DD,2021.2.3,MacIntel,60.0024001,,,,,,,,,,,0.5576,1,,,,,,,,,,,,,,m,1,0.5576,,,,,,,,0.110096096,-0.405109931,0,0,0,,0,152,152,27,1,ATTIC,C,old,m,./images/ATTIC.png,,,,,,,,,,,,,,,,,,,,,,
,,,,,,,,,,,,,,,,,199726,18,2022-01-29_16h44.25.266,lexical_decision_task_DD,2021.2.3,MacIntel,60.0024001,,,,,,,,,,,0.5459,1,,,,,,,,,,,,,,z,1,0.5459,,,,,,,,0.110096096,-0.405109931,0,0,0,,0,153,153,102,1,DULLE,C,old,z,./images/DULLE.png,,,,,,,,,,,,,,,,,,,,,,
,,,,,,,,,,,,,,,,,199726,18,2022-01-29_16h44.25.266,lexical_decision_task_DD,2021.2.3,MacIntel,60.0024001,,,,,,,,,,,0.5807,1,,,,,,,,,,,,,,m,1,0.5807,,,,,,,,0.110096096,-0.405109931,0,0,0,,0,154,154,62,1,PURSE,LB,old,m,./images/PURSELB.png,,,,,,,,,,,,,,,,,,,,,,
,,,,,,,,,,,,,,,,,199726,18,2022-01-29_16h44.25.266,lexical_decision_task_DD,2021.2.3,MacIntel,60.0024001,,,,,,,,,,,0.6005,1,,,,,,,,,,,,,,m,1,0.6005,,,,,,,,0.110096096,-0.405109931,0,0,0,,0,155,155,10,1,BELLY,HB,old,m,./images/BELLYHB.png,,,,,,,,,,,,,,,,,,,,,,
,,,,,,,,,,,,,,,,,199726,18,2022-01-29_16h44.25.266,lexical_decision_task_DD,2021.2.3,MacIntel,60.0024001,,,,,,,,,,,0.7294,0,,,,,,,,,,,,,,m,0,0.7294,,,,,,,,0.110096096,-0.405109931,0,0,0,,0,156,156,140,1,DOVET,LB,old,z,./images/DOVETLB.png,,,,,,,,,,,,,,,,,,,,,,
,,,,,,,,,,,,,,,,,199726,18,2022-01-29_16h44.25.266,lexical_decision_task_DD,2021.2.3,MacIntel,60.0024001,,,,,,,,,,,0.741,1,,,,,,,,,,,,,,z,1,0.741,,,,,,,,0.110096096,-0.405109931,0,0,0,,0,157,157,133,1,POWDY,HB,old,z,./images/POWDYHB.png,,,,,,,,,,,,,,,,,,,,,,
,,,,,,,,,,,,,,,,,199726,18,2022-01-29_16h44.25.266,lexical_decision_task_DD,2021.2.3,MacIntel,60.0024001,,,,,,,,,,,0.6973,1,,,,,,,,,,,,,,m,1,0.6973,,,,,,,,0.110096096,-0.405109931,0,0,0,,0,158,158,13,1,MOTOR,HB,old,m,./images/MOTORHB.png,,,,,,,,,,,,,,,,,,,,,,
,,,,,,,,,,,,,,,,,199726,18,2022-01-29_16h44.25.266,lexical_decision_task_DD,2021.2.3,MacIntel,60.0024001,,,,,,,,,,,0.8146,1,,,,,,,,,,,,,,z,1,0.8146,,,,,,,,0.110096096,-0.405109931,0,0,0,,0,159,159,158,1,EGECT,LB,old,z,./images/EGECTLB.png,,,,,,,,,,,,,,,,,,,,,,
,,,,,,,,,,,,,,,,,199726,18,2022-01-29_16h44.25.266,lexical_decision_task_DD,2021.2.3,MacIntel,60.0024001,,,,,,,,,,,0.5146,1,,,,,,,,,,,,,,m,1,0.5146,,,,,,,,0.110096096,-0.405109931,0,0,0,,0,160,160,12,1,SHORE,C,old,m,./images/SHORE.png,,,,,,,,,,,,,,,,,,,,,,
,,,,,,,,,,,,,,,,,199726,18,2022-01-29_16h44.25.266,lexical_decision_task_DD,2021.2.3,MacIntel,60.0024001,,,,,,,,,,,0.432,1,,,,,,,,,,,,,,m,1,0.432,,,,,,,,0.110096096,-0.405109931,0,0,0,,0,161,161,35,1,PEACH,LB,old,m,./images/PEACHLB.png,,,,,,,,,,,,,,,,,,,,,,
,,,,,,,,,,,,,,,,,199726,18,2022-01-29_16h44.25.266,lexical_decision_task_DD,2021.2.3,MacIntel,60.0024001,,,,,,,,,,,0.5961,1,,,,,,,,,,,,,,z,1,0.5961,,,,,,,,0.110096096,-0.405109931,0,0,0,,0,162,162,98,1,BAMPS,LB,old,z,./images/BAMPSLB.png,,,,,,,,,,,,,,,,,,,,,,
,,,,,,,,,,,,,,,,,199726,18,2022-01-29_16h44.25.266,lexical_decision_task_DD,2021.2.3,MacIntel,60.0024001,,,,,,,,,,,0.4991,1,,,,,,,,,,,,,,m,1,0.4991,,,,,,,,0.110096096,-0.405109931,0,0,0,,0,163,163,42,1,FOLDER,C,old,m,./images/FOLDER.png,,,,,,,,,,,,,,,,,,,,,,
,,,,,,,,,,,,,,,,,199726,18,2022-01-29_16h44.25.266,lexical_decision_task_DD,2021.2.3,MacIntel,60.0024001,,,,,,,,,,,0.6788,1,,,,,,,,,,,,,,z,1,0.6788,,,,,,,,0.110096096,-0.405109931,0,0,0,,0,164,164,113,1,LINEW,LB,old,z,./images/LINEWLB.png,,,,,,,,,,,,,,,,,,,,,,
,,,,,,,,,,,,,,,,,199726,18,2022-01-29_16h44.25.266,lexical_decision_task_DD,2021.2.3,MacIntel,60.0024001,,,,,,,,,,,0.6432,1,,,,,,,,,,,,,,z,1,0.6432,,,,,,,,0.110096096,-0.405109931,0,0,0,,0,165,165,89,1,DRIEK,LB,old,z,./images/DRIEKLB.png,,,,,,,,,,,,,,,,,,,,,,
,,,,,,,,,,,,,,,,,199726,18,2022-01-29_16h44.25.266,lexical_decision_task_DD,2021.2.3,MacIntel,60.0024001,,,,,,,,,,,0.6174,1,,,,,,,,,,,,,,z,1,0.6174,,,,,,,,0.110096096,-0.405109931,0,0,0,,0,166,166,116,1,BALGY,LB,old,z,./images/BALGYLB.png,,,,,,,,,,,,,,,,,,,,,,
,,,,,,,,,,,,,,,,,199726,18,2022-01-29_16h44.25.266,lexical_decision_task_DD,2021.2.3,MacIntel,60.0024001,,,,,,,,,,,0.4517,1,,,,,,,,,,,,,,m,1,0.4517,,,,,,,,0.110096096,-0.405109931,0,0,0,,0,167,167,77,1,COUCH,LB,old,m,./images/COUCHLB.png,,,,,,,,,,,,,,,,,,,,,,
space,12.9135,0.110096096,-0.405109931,0,0,0,,,,,,1,test,"In the next phase you will be presented with the words from the the first phase. Your job is to decide whether you remember seeing the word or not. If you remember seeing the word press ""old"" or type ""m"". If you do not remember seeing the word press ""new"" or type ""z"". Please press the space bar or click on continue to begin. ",,,199726,18,2022-01-29_16h44.25.266,lexical_decision_task_DD,2021.2.3,MacIntel,60.0024001,,,,,,,,,,,,,,,,,,,,,,,,,,,,,,,,,,,,,,,,,,,,,,,,,,,,,0,0,0,0,1,,,,,,,,,,,,,,,,
space,1.327,0.110096096,-0.405109931,0,0,0,,,,,,1,test,"In the next phase you will be presented with the words from the the first phase. Your job is to decide whether you remember seeing the word or not. If you remember seeing the word press ""old"" or type ""m"". If you do not remember seeing the word press ""new"" or type ""z"". Please press the space bar or click on continue to begin. ",,,199726,18,2022-01-29_16h44.25.266,lexical_decision_task_DD,2021.2.3,MacIntel,60.0024001,,,,,,,,,,,,,,,,,,,,,,,,,,,,,,,,,,,,,,,,,,,,,,,,,,,,,1,0,1,0,1,,,,,,,,,,,,,,,,
space,1.4184,0.110096096,-0.405109931,0,0,0,,,,,,1,test,"In the next phase you will be presented with the words from the the first phase. Your job is to decide whether you remember seeing the word or not. If you remember seeing the word press ""old"" or type ""m"". If you do not remember seeing the word press ""new"" or type ""z"". Please press the space bar or click on continue to begin. ",,,199726,18,2022-01-29_16h44.25.266,lexical_decision_task_DD,2021.2.3,MacIntel,60.0024001,,,,,,,,,,,,,,,,,,,,,,,,,,,,,,,,,,,,,,,,,,,,,,,,,,,,,2,0,2,0,1,,,,,,,,,,,,,,,,
,,0.107439236,-0.396034139,1,0,0,,,,,,1,test,"In the next phase you will be presented with the words from the the first phase. Your job is to decide whether you remember seeing the word or not. If you remember seeing the word press ""old"" or type ""m"". If you do not remember seeing the word press ""new"" or type ""z"". Please press the space bar or click on continue to begin. ",,,199726,18,2022-01-29_16h44.25.266,lexical_decision_task_DD,2021.2.3,MacIntel,60.0024001,,,,,,,,,,,,,,,,,,,,,,,,,,,,,,,,,,,,,,,,,,,,,,,,,,,,,3,0,3,0,1,instr_done_button,,,,,,,,,,,,,,,
space,1.4456,0.40608941,0.068192105,0,0,0,,,,,,1,test,"In the next phase you will be presented with the words from the the first phase. Your job is to decide whether you remember seeing the word or not. If you remember seeing the word press ""old"" or type ""m"". If you do not remember seeing the word press ""new"" or type ""z"". Please press the space bar or click on continue to begin. ",,,199726,18,2022-01-29_16h44.25.266,lexical_decision_task_DD,2021.2.3,MacIntel,60.0024001,,,,,,,,,,,,,,,,,,,,,,,,,,,,,,,,,,,,,,,,,,,,,,,,,,,,,4,0,4,0,1,,,,,,,,,,,,,,,,
,,,,,,,,,,,,,,,,,199726,18,2022-01-29_16h44.25.266,lexical_decision_task_DD,2021.2.3,MacIntel,60.0024001,,,,,,,,,,,3.0999,1,,,,,,,,,,,,,,,,,,,,,,,,0.40608941,0.068192105,0,0,0,,,,,,,CHALK,HB,z,m,./images/CHALKHB.png,,,,,,,,z,1,3.0999,,,,,,,,0,0,0,109,1
,,,,,,,,,,,,,,,,,199726,18,2022-01-29_16h44.25.266,lexical_decision_task_DD,2021.2.3,MacIntel,60.0024001,,,,,,,,,,,1.8184,1,,,,,,,,,,,,,,,,,,,,,,,,0.40608941,0.068192105,0,0,0,,,,,,,BRIDE,HB,z,m,./images/BRIDEHB.png,,,,,,,,z,1,1.8184,,,,,,,,0,1,1,148,1
,,,,,,,,,,,,,,,,,199726,18,2022-01-29_16h44.25.266,lexical_decision_task_DD,2021.2.3,MacIntel,60.0024001,,,,,,,,,,,1.361,1,,,,,,,,,,,,,,,,,,,,,,,,0.40608941,0.068192105,0,0,0,,,,,,,PURSE,LB,m,m,./images/PURSELB.png,,,,,,,,m,1,1.361,,,,,,,,0,2,2,62,1
,,,,,,,,,,,,,,,,,199726,18,2022-01-29_16h44.25.266,lexical_decision_task_DD,2021.2.3,MacIntel,60.0024001,,,,,,,,,,,0.6152,0,,,,,,,,,,,,,,,,,,,,,,,,0.40608941,0.068192105,0,0,0,,,,,,,BASKET,LB,z,m,./images/BASKETLB.png,,,,,,,,m,0,0.6152,,,,,,,,0,3,3,128,1
,,,,,,,,,,,,,,,,,199726,18,2022-01-29_16h44.25.266,lexical_decision_task_DD,2021.2.3,MacIntel,60.0024001,,,,,,,,,,,0.6114,0,,,,,,,,,,,,,,,,,,,,,,,,0.40608941,0.068192105,0,0,0,,,,,,,CRATER,C,z,m,./images/CRATER.png,,,,,,,,m,0,0.6114,,,,,,,,0,4,4,87,1
,,,,,,,,,,,,,,,,,199726,18,2022-01-29_16h44.25.266,lexical_decision_task_DD,2021.2.3,MacIntel,60.0024001,,,,,,,,,,,0.7753,1,,,,,,,,,,,,,,,,,,,,,,,,0.40608941,0.068192105,0,0,0,,,,,,,GARDEN,HB,z,m,./images/GARDENHB.png,,,,,,,,z,1,0.7753,,,,,,,,0,5,5,94,1
,,,,,,,,,,,,,,,,,199726,18,2022-01-29_16h44.25.266,lexical_decision_task_DD,2021.2.3,MacIntel,60.0024001,,,,,,,,,,,0.8835,0,,,,,,,,,,,,,,,,,,,,,,,,0.40608941,0.068192105,0,0,0,,,,,,,FALCON,HB,m,m,./images/FALCONHB.png,,,,,,,,z,0,0.8835,,,,,,,,0,6,6,28,1
,,,,,,,,,,,,,,,,,199726,18,2022-01-29_16h44.25.266,lexical_decision_task_DD,2021.2.3,MacIntel,60.0024001,,,,,,,,,,,0.5754,1,,,,,,,,,,,,,,,,,,,,,,,,0.40608941,0.068192105,0,0,0,,,,,,,PICKLE,LB,m,m,./images/PICKLELB.png,,,,,,,,m,1,0.5754,,,,,,,,0,7,7,14,1
,,,,,,,,,,,,,,,,,199726,18,2022-01-29_16h44.25.266,lexical_decision_task_DD,2021.2.3,MacIntel,60.0024001,,,,,,,,,,,0.6929,1,,,,,,,,,,,,,,,,,,,,,,,,0.40608941,0.068192105,0,0,0,,,,,,,JUNGLE,LB,m,m,./images/JUNGLELB.png,,,,,,,,m,1,0.6929,,,,,,,,0,8,8,83,1
,,,,,,,,,,,,,,,,,199726,18,2022-01-29_16h44.25.266,lexical_decision_task_DD,2021.2.3,MacIntel,60.0024001,,,,,,,,,,,0.6669,1,,,,,,,,,,,,,,,,,,,,,,,,0.40608941,0.068192105,0,0,0,,,,,,,SQUARE,C,m,m,./images/SQUARE.png,,,,,,,,m,1,0.6669,,,,,,,,0,9,9,6,1
,,,,,,,,,,,,,,,,,199726,18,2022-01-29_16h44.25.266,lexical_decision_task_DD,2021.2.3,MacIntel,60.0024001,,,,,,,,,,,0.5337,1,,,,,,,,,,,,,,,,,,,,,,,,0.40608941,0.068192105,0,0,0,,,,,,,MIRROR,C,m,m,./images/MIRROR.png,,,,,,,,m,1,0.5337,,,,,,,,0,10,10,63,1
,,,,,,,,,,,,,,,,,199726,18,2022-01-29_16h44.25.266,lexical_decision_task_DD,2021.2.3,MacIntel,60.0024001,,,,,,,,,,,0.7003,1,,,,,,,,,,,,,,,,,,,,,,,,0.40608941,0.068192105,0,0,0,,,,,,,GRANNY,LB,z,m,./images/GRANNYLB.png,,,,,,,,z,1,0.7003,,,,,,,,0,11,11,104,1
,,,,,,,,,,,,,,,,,199726,18,2022-01-29_16h44.25.266,lexical_decision_task_DD,2021.2.3,MacIntel,60.0024001,,,,,,,,,,,0.5277,1,,,,,,,,,,,,,,,,,,,,,,,,0.40608941,0.068192105,0,0,0,,,,,,,WEASEL,LB,m,m,./images/WEASELLB.png,,,,,,,,m,1,0.5277,,,,,,,,0,12,12,80,1
,,,,,,,,,,,,,,,,,199726,18,2022-01-29_16h44.25.266,lexical_decision_task_DD,2021.2.3,MacIntel,60.0024001,,,,,,,,,,,0.701,1,,,,,,,,,,,,,,,,,,,,,,,,0.40608941,0.068192105,0,0,0,,,,,,,PLANET,LB,z,m,./images/PLANETLB.png,,,,,,,,z,1,0.701,,,,,,,,0,13,13,164,1
,,,,,,,,,,,,,,,,,199726,18,2022-01-29_16h44.25.266,lexical_decision_task_DD,2021.2.3,MacIntel,60.0024001,,,,,,,,,,,0.4829,0,,,,,,,,,,,,,,,,,,,,,,,,0.40608941,0.068192105,0,0,0,,,,,,,HAMMER,C,z,m,./images/HAMMER.png,,,,,,,,m,0,0.4829,,,,,,,,0,14,14,159,1
,,,,,,,,,,,,,,,,,199726,18,2022-01-29_16h44.25.266,lexical_decision_task_DD,2021.2.3,MacIntel,60.0024001,,,,,,,,,,,0.5089,1,,,,,,,,,,,,,,,,,,,,,,,,0.40608941,0.068192105,0,0,0,,,,,,,MUSCLE,HB,m,m,./images/MUSCLEHB.png,,,,,,,,m,1,0.5089,,,,,,,,0,15,15,4,1
,,,,,,,,,,,,,,,,,199726,18,2022-01-29_16h44.25.266,lexical_decision_task_DD,2021.2.3,MacIntel,60.0024001,,,,,,,,,,,0.5706,0,,,,,,,,,,,,,,,,,,,,,,,,0.40608941,0.068192105,0,0,0,,,,,,,BUNNY,HB,z,m,./images/BUNNYHB.png,,,,,,,,m,0,0.5706,,,,,,,,0,16,16,97,1
,,,,,,,,,,,,,,,,,199726,18,2022-01-29_16h44.25.266,lexical_decision_task_DD,2021.2.3,MacIntel,60.0024001,,,,,,,,,,,0.5524,1,,,,,,,,,,,,,,,,,,,,,,,,0.40608941,0.068192105,0,0,0,,,,,,,COOKER,C,m,m,./images/COOKER.png,,,,,,,,m,1,0.5524,,,,,,,,0,17,17,69,1
,,,,,,,,,,,,,,,,,199726,18,2022-01-29_16h44.25.266,lexical_decision_task_DD,2021.2.3,MacIntel,60.0024001,,,,,,,,,,,0.6609,0,,,,,,,,,,,,,,,,,,,,,,,,0.40608941,0.068192105,0,0,0,,,,,,,WAGON,HB,z,m,./images/WAGONHB.png,,,,,,,,m,0,0.6609,,,,,,,,0,18,18,91,1
,,,,,,,,,,,,,,,,,199726,18,2022-01-29_16h44.25.266,lexical_decision_task_DD,2021.2.3,MacIntel,60.0024001,,,,,,,,,,,1.1411,0,,,,,,,,,,,,,,,,,,,,,,,,0.40608941,0.068192105,0,0,0,,,,,,,WHEEL,LB,z,m,./images/WHEELLB.png,,,,,,,,m,0,1.1411,,,,,,,,0,19,19,161,1
,,,,,,,,,,,,,,,,,199726,18,2022-01-29_16h44.25.266,lexical_decision_task_DD,2021.2.3,MacIntel,60.0024001,,,,,,,,,,,0.7931,1,,,,,,,,,,,,,,,,,,,,,,,,0.40608941,0.068192105,0,0,0,,,,,,,RHINO,C,m,m,./images/RHINO.png,,,,,,,,m,1,0.7931,,,,,,,,0,20,20,9,1
,,,,,,,,,,,,,,,,,199726,18,2022-01-29_16h44.25.266,lexical_decision_task_DD,2021.2.3,MacIntel,60.0024001,,,,,,,,,,,0.8488,0,,,,,,,,,,,,,,,,,,,,,,,,0.40608941,0.068192105,0,0,0,,,,,,,LAGOON,LB,z,m,./images/LAGOONLB.png,,,,,,,,m,0,0.8488,,,,,,,,0,21,21,131,1
,,,,,,,,,,,,,,,,,199726,18,2022-01-29_16h44.25.266,lexical_decision_task_DD,2021.2.3,MacIntel,60.0024001,,,,,,,,,,,0.849,0,,,,,,,,,,,,,,,,,,,,,,,,0.40608941,0.068192105,0,0,0,,,,,,,POKER,HB,z,m,./images/POKERHB.png,,,,,,,,m,0,0.849,,,,,,,,0,22,22,151,1
,,,,,,,,,,,,,,,,,199726,18,2022-01-29_16h44.25.266,lexical_decision_task_DD,2021.2.3,MacIntel,60.0024001,,,,,,,,,,,0.6769,1,,,,,,,,,,,,,,,,,,,,,,,,0.40608941,0.068192105,0,0,0,,,,,,,CRUMB,LB,m,m,./images/CRUMBLB.png,,,,,,,,m,1,0.6769,,,,,,,,0,23,23,29,1
,,,,,,,,,,,,,,,,,199726,18,2022-01-29_16h44.25.266,lexical_decision_task_DD,2021.2.3,MacIntel,60.0024001,,,,,,,,,,,0.7007,1,,,,,,,,,,,,,,,,,,,,,,,,0.40608941,0.068192105,0,0,0,,,,,,,STOOL,HB,z,m,./images/STOOLHB.png,,,,,,,,z,1,0.7007,,,,,,,,0,24,24,127,1
,,,,,,,,,,,,,,,,,199726,18,2022-01-29_16h44.25.266,lexical_decision_task_DD,2021.2.3,MacIntel,60.0024001,,,,,,,,,,,0.7167,1,,,,,,,,,,,,,,,,,,,,,,,,0.40608941,0.068192105,0,0,0,,,,,,,STATUE,C,z,m,./images/STATUE.png,,,,,,,,z,1,0.7167,,,,,,,,0,25,25,150,1
,,,,,,,,,,,,,,,,,199726,18,2022-01-29_16h44.25.266,lexical_decision_task_DD,2021.2.3,MacIntel,60.0024001,,,,,,,,,,,0.591,1,,,,,,,,,,,,,,,,,,,,,,,,0.40608941,0.068192105,0,0,0,,,,,,,CRUST,HB,m,m,./images/CRUSTHB.png,,,,,,,,m,1,0.591,,,,,,,,0,26,26,79,1
,,,,,,,,,,,,,,,,,199726,18,2022-01-29_16h44.25.266,lexical_decision_task_DD,2021.2.3,MacIntel,60.0024001,,,,,,,,,,,0.9487,1,,,,,,,,,,,,,,,,,,,,,,,,0.40608941,0.068192105,0,0,0,,,,,,,WHISKY,LB,z,m,./images/WHISKYLB.png,,,,,,,,z,1,0.9487,,,,,,,,0,27,27,167,1
,,,,,,,,,,,,,,,,,199726,18,2022-01-29_16h44.25.266,lexical_decision_task_DD,2021.2.3,MacIntel,60.0024001,,,,,,,,,,,1.1594,1,,,,,,,,,,,,,,,,,,,,,,,,0.40608941,0.068192105,0,0,0,,,,,,,PASTA,LB,m,m,./images/PASTALB.png,,,,,,,,m,1,1.1594,,,,,,,,0,28,28,5,1
,,,,,,,,,,,,,,,,,199726,18,2022-01-29_16h44.25.266,lexical_decision_task_DD,2021.2.3,MacIntel,60.0024001,,,,,,,,,,,1.0121,1,,,,,,,,,,,,,,,,,,,,,,,,0.40608941,0.068192105,0,0,0,,,,,,,ALLEY,HB,z,m,./images/ALLEYHB.png,,,,,,,,z,1,1.0121,,,,,,,,0,29,29,139,1
,,,,,,,,,,,,,,,,,199726,18,2022-01-29_16h44.25.266,lexical_decision_task_DD,2021.2.3,MacIntel,60.0024001,,,,,,,,,,,0.7589,1,,,,,,,,,,,,,,,,,,,,,,,,0.40608941,0.068192105,0,0,0,,,,,,,LADDER,LB,m,m,./images/LADDERLB.png,,,,,,,,m,1,0.7589,,,,,,,,0,30,30,38,1
,,,,,,,,,,,,,,,,,199726,18,2022-01-29_16h44.25.266,lexical_decision_task_DD,2021.2.3,MacIntel,60.0024001,,,,,,,,,,,1.2422,1,,,,,,,,,,,,,,,,,,,,,,,,0.40608941,0.068192105,0,0,0,,,,,,,WRIST,HB,m,m,./images/WRISTHB.png,,,,,,,,m,1,1.2422,,,,,,,,0,31,31,25,1
,,,,,,,,,,,,,,,,,199726,18,2022-01-29_16h44.25.266,lexical_decision_task_DD,2021.2.3,MacIntel,60.0024001,,,,,,,,,,,0.7946,1,,,,,,,,,,,,,,,,,,,,,,,,0.40608941,0.068192105,0,0,0,,,,,,,BELLY,HB,m,m,./images/BELLYHB.png,,,,,,,,m,1,0.7946,,,,,,,,0,32,32,10,1
,,,,,,,,,,,,,,,,,199726,18,2022-01-29_16h44.25.266,lexical_decision_task_DD,2021.2.3,MacIntel,60.0024001,,,,,,,,,,,0.7081,1,,,,,,,,,,,,,,,,,,,,,,,,0.40608941,0.068192105,0,0,0,,,,,,,PISTOL,LB,z,m,./images/PISTOLLB.png,,,,,,,,z,1,0.7081,,,,,,,,0,33,33,113,1
,,,,,,,,,,,,,,,,,199726,18,2022-01-29_16h44.25.266,lexical_decision_task_DD,2021.2.3,MacIntel,60.0024001,,,,,,,,,,,0.693,1,,,,,,,,,,,,,,,,,,,,,,,,0.40608941,0.068192105,0,0,0,,,,,,,ONION,C,m,m,./images/ONION.png,,,,,,,,m,1,0.693,,,,,,,,0,34,34,51,1
,,,,,,,,,,,,,,,,,199726,18,2022-01-29_16h44.25.266,lexical_decision_task_DD,2021.2.3,MacIntel,60.0024001,,,,,,,,,,,0.6952,0,,,,,,,,,,,,,,,,,,,,,,,,0.40608941,0.068192105,0,0,0,,,,,,,SAILOR,HB,m,m,./images/SAILORHB.png,,,,,,,,z,0,0.6952,,,,,,,,0,35,35,67,1
,,,,,,,,,,,,,,,,,199726,18,2022-01-29_16h44.25.266,lexical_decision_task_DD,2021.2.3,MacIntel,60.0024001,,,,,,,,,,,0.5955,0,,,,,,,,,,,,,,,,,,,,,,,,0.40608941,0.068192105,0,0,0,,,,,,,PARADE,LB,z,m,./images/PARADELB.png,,,,,,,,m,0,0.5955,,,,,,,,0,36,36,101,1
,,,,,,,,,,,,,,,,,199726,18,2022-01-29_16h44.25.266,lexical_decision_task_DD,2021.2.3,MacIntel,60.0024001,,,,,,,,,,,0.8758,1,,,,,,,,,,,,,,,,,,,,,,,,0.40608941,0.068192105,0,0,0,,,,,,,TOWEL,HB,z,m,./images/TOWELHB.png,,,,,,,,z,1,0.8758,,,,,,,,0,37,37,85,1
,,,,,,,,,,,,,,,,,199726,18,2022-01-29_16h44.25.266,lexical_decision_task_DD,2021.2.3,MacIntel,60.0024001,,,,,,,,,,,0.5107,1,,,,,,,,,,,,,,,,,,,,,,,,0.40608941,0.068192105,0,0,0,,,,,,,POODLE,C,m,m,./images/POODLE.png,,,,,,,,m,1,0.5107,,,,,,,,0,38,38,81,1
,,,,,,,,,,,,,,,,,199726,18,2022-01-29_16h44.25.266,lexical_decision_task_DD,2021.2.3,MacIntel,60.0024001,,,,,,,,,,,0.4927,1,,,,,,,,,,,,,,,,,,,,,,,,0.40608941,0.068192105,0,0,0,,,,,,,BONNET,LB,m,m,./images/BONNETLB.png,,,,,,,,m,1,0.4927,,,,,,,,0,39,39,11,1
,,,,,,,,,,,,,,,,,199726,18,2022-01-29_16h44.25.266,lexical_decision_task_DD,2021.2.3,MacIntel,60.0024001,,,,,,,,,,,0.5276,1,,,,,,,,,,,,,,,,,,,,,,,,0.40608941,0.068192105,0,0,0,,,,,,,STORM,C,m,m,./images/STORM.png,,,,,,,,m,1,0.5276,,,,,,,,0,40,40,30,1
,,,,,,,,,,,,,,,,,199726,18,2022-01-29_16h44.25.266,lexical_decision_task_DD,2021.2.3,MacIntel,60.0024001,,,,,,,,,,,0.5783,0,,,,,,,,,,,,,,,,,,,,,,,,-0.126573622,-0.164094916,0,0,0,space,,,,,,HOCKEY,LB,z,m,./images/HOCKEYLB.png,257.1195,,,,,,,m,0,0.5783,,,,,,,,0,41,41,116,1
,,,,,,,,,,,,,,,,,199726,18,2022-01-29_16h44.25.266,lexical_decision_task_DD,2021.2.3,MacIntel,60.0024001,,,,,,,,,,,0.9816,0,,,,,,,,,,,,,,,,,,,,,,,,-0.128201972,-0.164379883,0,0,0,,,,,,,SHELF,C,m,m,./images/SHELF.png,,,,,,,,z,0,0.9816,,,,,,,,0,42,42,39,1
,,,,,,,,,,,,,,,,,199726,18,2022-01-29_16h44.25.266,lexical_decision_task_DD,2021.2.3,MacIntel,60.0024001,,,,,,,,,,,0.7073,1,,,,,,,,,,,,,,,,,,,,,,,,-0.128201972,-0.164379883,0,0,0,,,,,,,BUBBLE,LB,z,m,./images/BUBBLELB.png,,,,,,,,z,1,0.7073,,,,,,,,0,43,43,155,1
,,,,,,,,,,,,,,,,,199726,18,2022-01-29_16h44.25.266,lexical_decision_task_DD,2021.2.3,MacIntel,60.0024001,,,,,,,,,,,0.7598,0,,,,,,,,,,,,,,,,,,,,,,,,-0.128201972,-0.164379883,0,0,0,,,,,,,BROOM,C,z,m,./images/BROOM.png,,,,,,,,m,0,0.7598,,,,,,,,0,44,44,162,1
,,,,,,,,,,,,,,,,,199726,18,2022-01-29_16h44.25.266,lexical_decision_task_DD,2021.2.3,MacIntel,60.0024001,,,,,,,,,,,0.6089,0,,,,,,,,,,,,,,,,,,,,,,,,-0.128201972,-0.164379883,0,0,0,,,,,,,BLOKE,C,z,m,./images/BLOKE.png,,,,,,,,m,0,0.6089,,,,,,,,0,45,45,96,1
,,,,,,,,,,,,,,,,,199726,18,2022-01-29_16h44.25.266,lexical_decision_task_DD,2021.2.3,MacIntel,60.0024001,,,,,,,,,,,0.6649,1,,,,,,,,,,,,,,,,,,,,,,,,-0.128201972,-0.164379883,0,0,0,,,,,,,MOOSE,C,m,m,./images/MOOSE.png,,,,,,,,m,1,0.6649,,,,,,,,0,46,46,57,1
,,,,,,,,,,,,,,,,,199726,18,2022-01-29_16h44.25.266,lexical_decision_task_DD,2021.2.3,MacIntel,60.0024001,,,,,,,,,,,0.5799,0,,,,,,,,,,,,,,,,,,,,,,,,-0.128201972,-0.164379883,0,0,0,,,,,,,MONKEY,C,z,m,./images/MONKEY.png,,,,,,,,m,0,0.5799,,,,,,,,0,47,47,129,1
,,,,,,,,,,,,,,,,,199726,18,2022-01-29_16h44.25.266,lexical_decision_task_DD,2021.2.3,MacIntel,60.0024001,,,,,,,,,,,0.6648,1,,,,,,,,,,,,,,,,,,,,,,,,-0.128201972,-0.164379883,0,0,0,,,,,,,CANYON,HB,m,m,./images/CANYONHB.png,,,,,,,,m,1,0.6648,,,,,,,,0,48,48,34,1
,,,,,,,,,,,,,,,,,199726,18,2022-01-29_16h44.25.266,lexical_decision_task_DD,2021.2.3,MacIntel,60.0024001,,,,,,,,,,,0.6964,1,,,,,,,,,,,,,,,,,,,,,,,,-0.128201972,-0.164379883,0,0,0,,,,,,,WALNUT,C,z,m,./images/WALNUT.png,,,,,,,,z,1,0.6964,,,,,,,,0,49,49,84,1
,,,,,,,,,,,,,,,,,199726,18,2022-01-29_16h44.25.266,lexical_decision_task_DD,2021.2.3,MacIntel,60.0024001,,,,,,,,,,,0.8604,0,,,,,,,,,,,,,,,,,,,,,,,,-0.128201972,-0.164379883,0,0,0,,,,,,,FINGER,C,m,m,./images/FINGER.png,,,,,,,,z,0,0.8604,,,,,,,,0,50,50,3,1
,,,,,,,,,,,,,,,,,199726,18,2022-01-29_16h44.25.266,lexical_decision_task_DD,2021.2.3,MacIntel,60.0024001,,,,,,,,,,,0.7529,1,,,,,,,,,,,,,,,,,,,,,,,,-0.128201972,-0.164379883,0,0,0,,,,,,,SUNSET,HB,m,m,./images/SUNSETHB.png,,,,,,,,m,1,0.7529,,,,,,,,0,51,51,82,1
,,,,,,,,,,,,,,,,,199726,18,2022-01-29_16h44.25.266,lexical_decision_task_DD,2021.2.3,MacIntel,60.0024001,,,,,,,,,,,1.7445,1,,,,,,,,,,,,,,,,,,,,,,,,-0.128201972,-0.164379883,0,0,0,,,,,,,PAINT,HB,m,m,./images/PAINTHB.png,,,,,,,,m,1,1.7445,,,,,,,,0,52,52,7,1
,,,,,,,,,,,,,,,,,199726,18,2022-01-29_16h44.25.266,lexical_decision_task_DD,2021.2.3,MacIntel,60.0024001,,,,,,,,,,,0.7395,1,,,,,,,,,,,,,,,,,,,,,,,,-0.128201972,-0.164379883,0,0,0,,,,,,,DIVER,C,z,m,./images/DIVER.png,,,,,,,,z,1,0.7395,,,,,,,,0,53,53,93,1
,,,,,,,,,,,,,,,,,199726,18,2022-01-29_16h44.25.266,lexical_decision_task_DD,2021.2.3,MacIntel,60.0024001,,,,,,,,,,,0.9245,1,,,,,,,,,,,,,,,,,,,,,,,,-0.128201972,-0.164379883,0,0,0,,,,,,,SWEAT,C,m,m,./images/SWEAT.png,,,,,,,,m,1,0.9245,,,,,,,,0,54,54,66,1
,,,,,,,,,,,,,,,,,199726,18,2022-01-29_16h44.25.266,lexical_decision_task_DD,2021.2.3,MacIntel,60.0024001,,,,,,,,,,,0.7746,1,,,,,,,,,,,,,,,,,,,,,,,,-0.128201972,-0.164379883,0,0,0,,,,,,,JUMPER,LB,z,m,./images/JUMPERLB.png,,,,,,,,z,1,0.7746,,,,,,,,0,55,55,158,1
,,,,,,,,,,,,,,,,,199726,18,2022-01-29_16h44.25.266,lexical_decision_task_DD,2021.2.3,MacIntel,60.0024001,,,,,,,,,,,0.674,1,,,,,,,,,,,,,,,,,,,,,,,,-0.128201972,-0.164379883,0,0,0,,,,,,,SKIING,LB,m,m,./images/SKIINGLB.png,,,,,,,,m,1,0.674,,,,,,,,0,56,56,17,1
,,,,,,,,,,,,,,,,,199726,18,2022-01-29_16h44.25.266,lexical_decision_task_DD,2021.2.3,MacIntel,60.0024001,,,,,,,,,,,0.8758,0,,,,,,,,,,,,,,,,,,,,,,,,-0.128201972,-0.164379883,0,0,0,,,,,,,TOMATO,C,m,m,./images/TOMATO.png,,,,,,,,z,0,0.8758,,,,,,,,0,57,57,0,1
,,,,,,,,,,,,,,,,,199726,18,2022-01-29_16h44.25.266,lexical_decision_task_DD,2021.2.3,MacIntel,60.0024001,,,,,,,,,,,0.8243,1,,,,,,,,,,,,,,,,,,,,,,,,-0.128201972,-0.164379883,0,0,0,,,,,,,PACKET,LB,m,m,./images/PACKETLB.png,,,,,,,,m,1,0.8243,,,,,,,,0,58,58,56,1
,,,,,,,,,,,,,,,,,199726,18,2022-01-29_16h44.25.266,lexical_decision_task_DD,2021.2.3,MacIntel,60.0024001,,,,,,,,,,,0.6913,1,,,,,,,,,,,,,,,,,,,,,,,,-0.128201972,-0.164379883,0,0,0,,,,,,,CURRY,C,z,m,./images/CURRY.png,,,,,,,,z,1,0.6913,,,,,,,,0,59,59,144,1
,,,,,,,,,,,,,,,,,199726,18,2022-01-29_16h44.25.266,lexical_decision_task_DD,2021.2.3,MacIntel,60.0024001,,,,,,,,,,,0.8091,1,,,,,,,,,,,,,,,,,,,,,,,,-0.128201972,-0.164379883,0,0,0,,,,,,,CLOUD,LB,z,m,./images/CLOUDLB.png,,,,,,,,z,1,0.8091,,,,,,,,0,60,60,110,1
,,,,,,,,,,,,,,,,,199726,18,2022-01-29_16h44.25.266,lexical_decision_task_DD,2021.2.3,MacIntel,60.0024001,,,,,,,,,,,0.5584,1,,,,,,,,,,,,,,,,,,,,,,,,-0.128201972,-0.164379883,0,0,0,,,,,,,PEACH,LB,m,m,./images/PEACHLB.png,,,,,,,,m,1,0.5584,,,,,,,,0,61,61,35,1
,,,,,,,,,,,,,,,,,199726,18,2022-01-29_16h44.25.266,lexical_decision_task_DD,2021.2.3,MacIntel,60.0024001,,,,,,,,,,,0.6911,1,,,,,,,,,,,,,,,,,,,,,,,,-0.128201972,-0.164379883,0,0,0,,,,,,,HEATER,LB,z,m,./images/HEATERLB.png,,,,,,,,z,1,0.6911,,,,,,,,0,62,62,140,1
,,,,,,,,,,,,,,,,,199726,18,2022-01-29_16h44.25.266,lexical_decision_task_DD,2021.2.3,MacIntel,60.0024001,,,,,,,,,,,0.7798,1,,,,,,,,,,,,,,,,,,,,,,,,-0.128201972,-0.164379883,0,0,0,,,,,,,RAZOR,HB,z,m,./images/RAZORHB.png,,,,,,,,z,1,0.7798,,,,,,,,0,63,63,118,1
,,,,,,,,,,,,,,,,,199726,18,2022-01-29_16h44.25.266,lexical_decision_task_DD,2021.2.3,MacIntel,60.0024001,,,,,,,,,,,0.6754,0,,,,,,,,,,,,,,,,,,,,,,,,-0.128201972,-0.164379883,0,0,0,,,,,,,SNAKE,HB,z,m,./images/SNAKEHB.png,,,,,,,,m,0,0.6754,,,,,,,,0,64,64,124,1
,,,,,,,,,,,,,,,,,199726,18,2022-01-29_16h44.25.266,lexical_decision_task_DD,2021.2.3,MacIntel,60.0024001,,,,,,,,,,,3.6446,1,,,,,,,,,,,,,,,,,,,,,,,,-0.128201972,-0.164379883,0,0,0,,,,,,,FLESH,C,z,m,./images/FLESH.png,,,,,,,,z,1,3.6446,,,,,,,,0,65,65,108,1
,,,,,,,,,,,,,,,,,199726,18,2022-01-29_16h44.25.266,lexical_decision_task_DD,2021.2.3,MacIntel,60.0024001,,,,,,,,,,,0.6812,0,,,,,,,,,,,,,,,,,,,,,,,,-0.128201972,-0.164379883,0,0,0,,,,,,,MALLET,LB,m,m,./images/MALLETLB.png,,,,,,,,z,0,0.6812,,,,,,,,0,66,66,50,1
,,,,,,,,,,,,,,,,,199726,18,2022-01-29_16h44.25.266,lexical_decision_task_DD,2021.2.3,MacIntel,60.0024001,,,,,,,,,,,1.0313,1,,,,,,,,,,,,,,,,,,,,,,,,-0.128201972,-0.164379883,0,0,0,,,,,,,GREASE,C,m,m,./images/GREASE.png,,,,,,,,m,1,1.0313,,,,,,,,0,67,67,15,1
,,,,,,,,,,,,,,,,,199726,18,2022-01-29_16h44.25.266,lexical_decision_task_DD,2021.2.3,MacIntel,60.0024001,,,,,,,,,,,0.7467,1,,,,,,,,,,,,,,,,,,,,,,,,-0.128201972,-0.164379883,0,0,0,,,,,,,COLLAR,C,z,m,./images/COLLAR.png,,,,,,,,z,1,0.7467,,,,,,,,0,68,68,99,1
,,,,,,,,,,,,,,,,,199726,18,2022-01-29_16h44.25.266,lexical_decision_task_DD,2021.2.3,MacIntel,60.0024001,,,,,,,,,,,0.583,1,,,,,,,,,,,,,,,,,,,,,,,,-0.128201972,-0.164379883,0,0,0,,,,,,,SHORE,C,m,m,./images/SHORE.png,,,,,,,,m,1,0.583,,,,,,,,0,69,69,12,1
,,,,,,,,,,,,,,,,,199726,18,2022-01-29_16h44.25.266,lexical_decision_task_DD,2021.2.3,MacIntel,60.0024001,,,,,,,,,,,0.7214,1,,,,,,,,,,,,,,,,,,,,,,,,-0.128201972,-0.164379883,0,0,0,,,,,,,ENGINE,LB,z,m,./images/ENGINELB.png,,,,,,,,z,1,0.7214,,,,,,,,0,70,70,122,1
,,,,,,,,,,,,,,,,,199726,18,2022-01-29_16h44.25.266,lexical_decision_task_DD,2021.2.3,MacIntel,60.0024001,,,,,,,,,,,0.5632,1,,,,,,,,,,,,,,,,,,,,,,,,-0.128201972,-0.164379883,0,0,0,,,,,,,THROAT,C,m,m,./images/THROAT.png,,,,,,,,m,1,0.5632,,,,,,,,0,71,71,36,1
,,,,,,,,,,,,,,,,,199726,18,2022-01-29_16h44.25.266,lexical_decision_task_DD,2021.2.3,MacIntel,60.0024001,,,,,,,,,,,0.5254,1,,,,,,,,,,,,,,,,,,,,,,,,-0.128201972,-0.164379883,0,0,0,,,,,,,CARPET,LB,m,m,./images/CARPETLB.png,,,,,,,,m,1,0.5254,,,,,,,,0,72,72,53,1
,,,,,,,,,,,,,,,,,199726,18,2022-01-29_16h44.25.266,lexical_decision_task_DD,2021.2.3,MacIntel,60.0024001,,,,,,,,,,,0.6919,1,,,,,,,,,,,,,,,,,,,,,,,,-0.128201972,-0.164379883,0,0,0,,,,,,,PILOT,LB,z,m,./images/PILOTLB.png,,,,,,,,z,1,0.6919,,,,,,,,0,73,73,134,1
,,,,,,,,,,,,,,,,,199726,18,2022-01-29_16h44.25.266,lexical_decision_task_DD,2021.2.3,MacIntel,60.0024001,,,,,,,,,,,0.7578,0,,,,,,,,,,,,,,,,,,,,,,,,-0.128201972,-0.164379883,0,0,0,,,,,,,CLIFF,LB,z,m,./images/CLIFFLB.png,,,,,,,,m,0,0.7578,,,,,,,,0,74,74,92,1
,,,,,,,,,,,,,,,,,199726,18,2022-01-29_16h44.25.266,lexical_decision_task_DD,2021.2.3,MacIntel,60.0024001,,,,,,,,,,,1.2807,1,,,,,,,,,,,,,,,,,,,,,,,,-0.128201972,-0.164379883,0,0,0,,,,,,,STEAK,HB,z,m,./images/STEAKHB.png,,,,,,,,z,1,1.2807,,,,,,,,0,75,75,115,1
,,,,,,,,,,,,,,,,,199726,18,2022-01-29_16h44.25.266,lexical_decision_task_DD,2021.2.3,MacIntel,60.0024001,,,,,,,,,,,0.779,1,,,,,,,,,,,,,,,,,,,,,,,,-0.128201972,-0.164379883,0,0,0,,,,,,,FERRY,C,z,m,./images/FERRY.png,,,,,,,,z,1,0.779,,,,,,,,0,76,76,141,1
,,,,,,,,,,,,,,,,,199726,18,2022-01-29_16h44.25.266,lexical_decision_task_DD,2021.2.3,MacIntel,60.0024001,,,,,,,,,,,0.5924,0,,,,,,,,,,,,,,,,,,,,,,,,-0.128201972,-0.164379883,0,0,0,,,,,,,BOXER,HB,z,m,./images/BOXERHB.png,,,,,,,,m,0,0.5924,,,,,,,,0,77,77,88,1
,,,,,,,,,,,,,,,,,199726,18,2022-01-29_16h44.25.266,lexical_decision_task_DD,2021.2.3,MacIntel,60.0024001,,,,,,,,,,,0.8798,0,,,,,,,,,,,,,,,,,,,,,,,,-0.128201972,-0.164379883,0,0,0,,,,,,,TORCH,LB,m,m,./images/TORCHLB.png,,,,,,,,z,0,0.8798,,,,,,,,0,78,78,68,1
,,,,,,,,,,,,,,,,,199726,18,2022-01-29_16h44.25.266,lexical_decision_task_DD,2021.2.3,MacIntel,60.0024001,,,,,,,,,,,0.9225,1,,,,,,,,,,,,,,,,,,,,,,,,-0.128201972,-0.164379883,0,0,0,,,,,,,BARREL,LB,m,m,./images/BARRELLB.png,,,,,,,,m,1,0.9225,,,,,,,,0,79,79,32,1
,,,,,,,,,,,,,,,,,199726,18,2022-01-29_16h44.25.266,lexical_decision_task_DD,2021.2.3,MacIntel,60.0024001,,,,,,,,,,,0.5948,1,,,,,,,,,,,,,,,,,,,,,,,,-0.128201972,-0.164379883,0,0,0,,,,,,,TRIPOD,C,m,m,./images/TRIPOD.png,,,,,,,,m,1,0.5948,,,,,,,,0,80,80,54,1
,,,,,,,,,,,,,,,,,199726,18,2022-01-29_16h44.25.266,lexical_decision_task_DD,2021.2.3,MacIntel,60.0024001,,,,,,,,,,,0.5748,0,,,,,,,,,,,,,,,,,,,,,,,,-0.128201972,-0.164379883,0,0,0,,,,,,,BRUSH,LB,z,m,./images/BRUSHLB.png,,,,,,,,m,0,0.5748,,,,,,,,0,81,81,143,1
,,,,,,,,,,,,,,,,,199726,18,2022-01-29_16h44.25.266,lexical_decision_task_DD,2021.2.3,MacIntel,60.0024001,,,,,,,,,,,0.526,1,,,,,,,,,,,,,,,,,,,,,,,,-0.128201972,-0.164379883,0,0,0,,,,,,,KIDNEY,C,m,m,./images/KIDNEY.png,,,,,,,,m,1,0.526,,,,,,,,0,82,82,21,1
,,,,,,,,,,,,,,,,,199726,18,2022-01-29_16h44.25.266,lexical_decision_task_DD,2021.2.3,MacIntel,60.0024001,,,,,,,,,,,0.6417,1,,,,,,,,,,,,,,,,,,,,,,,,-0.128201972,-0.164379883,0,0,0,space,,,,,,BIRTH,HB,m,m,./images/BIRTHHB.png,4.2298,,,,,,,m,1,0.6417,,,,,,,,0,83,83,37,1
,,,,,,,,,,,,,,,,,199726,18,2022-01-29_16h44.25.266,lexical_decision_task_DD,2021.2.3,MacIntel,60.0024001,,,,,,,,,,,0.6923,0,,,,,,,,,,,,,,,,,,,,,,,,-0.128201972,-0.164379883,0,0,0,,,,,,,SHIELD,C,z,m,./images/SHIELD.png,,,,,,,,m,0,0.6923,,,,,,,,0,84,84,132,1
,,,,,,,,,,,,,,,,,199726,18,2022-01-29_16h44.25.266,lexical_decision_task_DD,2021.2.3,MacIntel,60.0024001,,,,,,,,,,,0.8649,1,,,,,,,,,,,,,,,,,,,,,,,,-0.128201972,-0.164379883,0,0,0,,,,,,,ARTIST,HB,z,m,./images/ARTISTHB.png,,,,,,,,z,1,0.8649,,,,,,,,0,85,85,145,1
,,,,,,,,,,,,,,,,,199726,18,2022-01-29_16h44.25.266,lexical_decision_task_DD,2021.2.3,MacIntel,60.0024001,,,,,,,,,,,0.877,0,,,,,,,,,,,,,,,,,,,,,,,,-0.128201972,-0.164379883,0,0,0,,,,,,,URINE,HB,m,m,./images/URINEHB.png,,,,,,,,z,0,0.877,,,,,,,,0,86,86,70,1
,,,,,,,,,,,,,,,,,199726,18,2022-01-29_16h44.25.266,lexical_decision_task_DD,2021.2.3,MacIntel,60.0024001,,,,,,,,,,,0.58,0,,,,,,,,,,,,,,,,,,,,,,,,-0.128201972,-0.164379883,0,0,0,,,,,,,BAKER,C,z,m,./images/BAKER.png,,,,,,,,m,0,0.58,,,,,,,,0,87,87,147,1
,,,,,,,,,,,,,,,,,199726,18,2022-01-29_16h44.25.266,lexical_decision_task_DD,2021.2.3,MacIntel,60.0024001,,,,,,,,,,,0.6623,1,,,,,,,,,,,,,,,,,,,,,,,,-0.128201972,-0.164379883,0,0,0,,,,,,,MOSQUE,HB,m,m,./images/MOSQUEHB.png,,,,,,,,m,1,0.6623,,,,,,,,0,88,88,43,1
,,,,,,,,,,,,,,,,,199726,18,2022-01-29_16h44.25.266,lexical_decision_task_DD,2021.2.3,MacIntel,60.0024001,,,,,,,,,,,0.6413,1,,,,,,,,,,,,,,,,,,,,,,,,-0.128201972,-0.164379883,0,0,0,,,,,,,BURIAL,LB,m,m,./images/BURIALLB.png,,,,,,,,m,1,0.6413,,,,,,,,0,89,89,59,1
,,,,,,,,,,,,,,,,,199726,18,2022-01-29_16h44.25.266,lexical_decision_task_DD,2021.2.3,MacIntel,60.0024001,,,,,,,,,,,0.8733,1,,,,,,,,,,,,,,,,,,,,,,,,-0.128201972,-0.164379883,0,0,0,,,,,,,SCREW,C,m,m,./images/SCREW.png,,,,,,,,m,1,0.8733,,,,,,,,0,90,90,24,1
,,,,,,,,,,,,,,,,,199726,18,2022-01-29_16h44.25.266,lexical_decision_task_DD,2021.2.3,MacIntel,60.0024001,,,,,,,,,,,0.6778,1,,,,,,,,,,,,,,,,,,,,,,,,-0.128201972,-0.164379883,0,0,0,,,,,,,ATTIC,C,m,m,./images/ATTIC.png,,,,,,,,m,1,0.6778,,,,,,,,0,91,91,27,1
,,,,,,,,,,,,,,,,,199726,18,2022-01-29_16h44.25.266,lexical_decision_task_DD,2021.2.3,MacIntel,60.0024001,,,,,,,,,,,0.7943,1,,,,,,,,,,,,,,,,,,,,,,,,-0.128201972,-0.164379883,0,0,0,,,,,,,LIZARD,LB,m,m,./images/LIZARDLB.png,,,,,,,,m,1,0.7943,,,,,,,,0,92,92,44,1
,,,,,,,,,,,,,,,,,199726,18,2022-01-29_16h44.25.266,lexical_decision_task_DD,2021.2.3,MacIntel,60.0024001,,,,,,,,,,,0.8624,1,,,,,,,,,,,,,,,,,,,,,,,,-0.128201972,-0.164379883,0,0,0,,,,,,,STRING,LB,m,m,./images/STRINGLB.png,,,,,,,,m,1,0.8624,,,,,,,,0,93,93,41,1
,,,,,,,,,,,,,,,,,199726,18,2022-01-29_16h44.25.266,lexical_decision_task_DD,2021.2.3,MacIntel,60.0024001,,,,,,,,,,,0.8084,0,,,,,,,,,,,,,,,,,,,,,,,,-0.128201972,-0.164379883,0,0,0,,,,,,,VALLEY,LB,z,m,./images/VALLEYLB.png,,,,,,,,m,0,0.8084,,,,,,,,0,94,94,152,1
,,,,,,,,,,,,,,,,,199726,18,2022-01-29_16h44.25.266,lexical_decision_task_DD,2021.2.3,MacIntel,60.0024001,,,,,,,,,,,0.6262,0,,,,,,,,,,,,,,,,,,,,,,,,-0.128201972,-0.164379883,0,0,0,,,,,,,COUCH,LB,m,m,./images/COUCHLB.png,,,,,,,,z,0,0.6262,,,,,,,,0,95,95,77,1
,,,,,,,,,,,,,,,,,199726,18,2022-01-29_16h44.25.266,lexical_decision_task_DD,2021.2.3,MacIntel,60.0024001,,,,,,,,,,,0.7916,1,,,,,,,,,,,,,,,,,,,,,,,,-0.128201972,-0.164379883,0,0,0,,,,,,,CEMENT,LB,m,m,./images/CEMENTLB.png,,,,,,,,m,1,0.7916,,,,,,,,0,96,96,74,1
,,,,,,,,,,,,,,,,,199726,18,2022-01-29_16h44.25.266,lexical_decision_task_DD,2021.2.3,MacIntel,60.0024001,,,,,,,,,,,0.8488,1,,,,,,,,,,,,,,,,,,,,,,,,-0.128201972,-0.164379883,0,0,0,,,,,,,BERRY,LB,m,m,./images/BERRYLB.png,,,,,,,,m,1,0.8488,,,,,,,,0,97,97,47,1
,,,,,,,,,,,,,,,,,199726,18,2022-01-29_16h44.25.266,lexical_decision_task_DD,2021.2.3,MacIntel,60.0024001,,,,,,,,,,,2.1,1,,,,,,,,,,,,,,,,,,,,,,,,-0.128201972,-0.164379883,0,0,0,,,,,,,MEDAL,LB,z,m,./images/MEDALLB.png,,,,,,,,z,1,2.1,,,,,,,,0,98,98,95,1
,,,,,,,,,,,,,,,,,199726,18,2022-01-29_16h44.25.266,lexical_decision_task_DD,2021.2.3,MacIntel,60.0024001,,,,,,,,,,,0.6092,1,,,,,,,,,,,,,,,,,,,,,,,,-0.128201972,-0.164379883,0,0,0,,,,,,,TWINS,C,m,m,./images/TWINS.png,,,,,,,,m,1,0.6092,,,,,,,,0,99,99,60,1
,,,,,,,,,,,,,,,,,199726,18,2022-01-29_16h44.25.266,lexical_decision_task_DD,2021.2.3,MacIntel,60.0024001,,,,,,,,,,,1.7597,0,,,,,,,,,,,,,,,,,,,,,,,,-0.095870022,-0.154102783,0,0,0,,,,,,,CHERRY,C,z,m,./images/CHERRY.png,,,,,,,,m,0,1.7597,,,,,,,,0,100,100,138,1
,,,,,,,,,,,,,,,,,199726,18,2022-01-29_16h44.25.266,lexical_decision_task_DD,2021.2.3,MacIntel,60.0024001,,,,,,,,,,,1.141,1,,,,,,,,,,,,,,,,,,,,,,,,-0.095870022,-0.154102783,0,0,0,,,,,,,FARMER,LB,m,m,./images/FARMERLB.png,,,,,,,,m,1,1.141,,,,,,,,0,101,101,65,1
,,,,,,,,,,,,,,,,,199726,18,2022-01-29_16h44.25.266,lexical_decision_task_DD,2021.2.3,MacIntel,60.0024001,,,,,,,,,,,0.9283,1,,,,,,,,,,,,,,,,,,,,,,,,-0.095870022,-0.154102783,0,0,0,,,,,,,NOOSE,C,m,m,./images/NOOSE.png,,,,,,,,m,1,0.9283,,,,,,,,0,102,102,72,1
,,,,,,,,,,,,,,,,,199726,18,2022-01-29_16h44.25.266,lexical_decision_task_DD,2021.2.3,MacIntel,60.0024001,,,,,,,,,,,0.7944,1,,,,,,,,,,,,,,,,,,,,,,,,-0.095870022,-0.154102783,0,0,0,,,,,,,SNACK,HB,m,m,./images/SNACKHB.png,,,,,,,,m,1,0.7944,,,,,,,,0,103,103,73,1
,,,,,,,,,,,,,,,,,199726,18,2022-01-29_16h44.25.266,lexical_decision_task_DD,2021.2.3,MacIntel,60.0024001,,,,,,,,,,,0.7123,1,,,,,,,,,,,,,,,,,,,,,,,,-0.095870022,-0.154102783,0,0,0,,,,,,,SMOKER,LB,m,m,./images/SMOKERLB.png,,,,,,,,m,1,0.7123,,,,,,,,0,104,104,26,1
,,,,,,,,,,,,,,,,,199726,18,2022-01-29_16h44.25.266,lexical_decision_task_DD,2021.2.3,MacIntel,60.0024001,,,,,,,,,,,0.645,0,,,,,,,,,,,,,,,,,,,,,,,,-0.095870022,-0.154102783,0,0,0,,,,,,,CLOTH,LB,z,m,./images/CLOTHLB.png,,,,,,,,m,0,0.645,,,,,,,,0,105,105,107,1
,,,,,,,,,,,,,,,,,199726,18,2022-01-29_16h44.25.266,lexical_decision_task_DD,2021.2.3,MacIntel,60.0024001,,,,,,,,,,,1.0682,1,,,,,,,,,,,,,,,,,,,,,,,,-0.095870022,-0.154102783,0,0,0,,,,,,,WALRUS,LB,m,m,./images/WALRUSLB.png,,,,,,,,m,1,1.0682,,,,,,,,0,106,106,23,1
,,,,,,,,,,,,,,,,,199726,18,2022-01-29_16h44.25.266,lexical_decision_task_DD,2021.2.3,MacIntel,60.0024001,,,,,,,,,,,1.1912,0,,,,,,,,,,,,,,,,,,,,,,,,-0.095870022,-0.154102783,0,0,0,,,,,,,POSTER,LB,z,m,./images/POSTERLB.png,,,,,,,,m,0,1.1912,,,,,,,,0,107,107,137,1
,,,,,,,,,,,,,,,,,199726,18,2022-01-29_16h44.25.266,lexical_decision_task_DD,2021.2.3,MacIntel,60.0024001,,,,,,,,,,,3.4577,0,,,,,,,,,,,,,,,,,,,,,,,,-0.095870022,-0.154102783,0,0,0,,,,,,,STOVE,LB,z,m,./images/STOVELB.png,,,,,,,,m,0,3.4577,,,,,,,,0,108,108,86,1
,,,,,,,,,,,,,,,,,199726,18,2022-01-29_16h44.25.266,lexical_decision_task_DD,2021.2.3,MacIntel,60.0024001,,,,,,,,,,,0.7415,0,,,,,,,,,,,,,,,,,,,,,,,,-0.095870022,-0.154102783,0,0,0,,,,,,,CASINO,HB,z,m,./images/CASINOHB.png,,,,,,,,m,0,0.7415,,,,,,,,0,109,109,112,1
,,,,,,,,,,,,,,,,,199726,18,2022-01-29_16h44.25.266,lexical_decision_task_DD,2021.2.3,MacIntel,60.0024001,,,,,,,,,,,0.5816,0,,,,,,,,,,,,,,,,,,,,,,,,-0.095870022,-0.154102783,0,0,0,,,,,,,SLOPE,C,z,m,./images/SLOPE.png,,,,,,,,m,0,0.5816,,,,,,,,0,110,110,114,1
,,,,,,,,,,,,,,,,,199726,18,2022-01-29_16h44.25.266,lexical_decision_task_DD,2021.2.3,MacIntel,60.0024001,,,,,,,,,,,0.9343,1,,,,,,,,,,,,,,,,,,,,,,,,-0.095870022,-0.154102783,0,0,0,,,,,,,RULER,HB,z,m,./images/RULERHB.png,,,,,,,,z,1,0.9343,,,,,,,,0,111,111,163,1
,,,,,,,,,,,,,,,,,199726,18,2022-01-29_16h44.25.266,lexical_decision_task_DD,2021.2.3,MacIntel,60.0024001,,,,,,,,,,,0.5783,1,,,,,,,,,,,,,,,,,,,,,,,,-0.095870022,-0.154102783,0,0,0,,,,,,,SPINE,LB,z,m,./images/SPINELB.png,,,,,,,,z,1,0.5783,,,,,,,,0,112,112,149,1
,,,,,,,,,,,,,,,,,199726,18,2022-01-29_16h44.25.266,lexical_decision_task_DD,2021.2.3,MacIntel,60.0024001,,,,,,,,,,,0.71,0,,,,,,,,,,,,,,,,,,,,,,,,-0.095870022,-0.154102783,0,0,0,,,,,,,PENCE,HB,m,m,./images/PENCEHB.png,,,,,,,,z,0,0.71,,,,,,,,0,113,113,16,1
,,,,,,,,,,,,,,,,,199726,18,2022-01-29_16h44.25.266,lexical_decision_task_DD,2021.2.3,MacIntel,60.0024001,,,,,,,,,,,0.7836,0,,,,,,,,,,,,,,,,,,,,,,,,-0.095870022,-0.154102783,0,0,0,,,,,,,MUMMY,HB,z,m,./images/MUMMYHB.png,,,,,,,,m,0,0.7836,,,,,,,,0,114,114,130,1
,,,,,,,,,,,,,,,,,199726,18,2022-01-29_16h44.25.266,lexical_decision_task_DD,2021.2.3,MacIntel,60.0024001,,,,,,,,,,,0.6358,0,,,,,,,,,,,,,,,,,,,,,,,,-0.095870022,-0.154102783,0,0,0,,,,,,,SAUCE,C,z,m,./images/SAUCE.png,,,,,,,,m,0,0.6358,,,,,,,,0,115,115,135,1
,,,,,,,,,,,,,,,,,199726,18,2022-01-29_16h44.25.266,lexical_decision_task_DD,2021.2.3,MacIntel,60.0024001,,,,,,,,,,,0.8453,0,,,,,,,,,,,,,,,,,,,,,,,,-0.095870022,-0.154102783,0,0,0,,,,,,,BOILER,C,z,m,./images/BOILER.png,,,,,,,,m,0,0.8453,,,,,,,,0,116,116,120,1
,,,,,,,,,,,,,,,,,199726,18,2022-01-29_16h44.25.266,lexical_decision_task_DD,2021.2.3,MacIntel,60.0024001,,,,,,,,,,,0.8319,1,,,,,,,,,,,,,,,,,,,,,,,,-0.095870022,-0.154102783,0,0,0,,,,,,,CANDY,C,z,m,./images/CANDY.png,,,,,,,,z,1,0.8319,,,,,,,,0,117,117,123,1
,,,,,,,,,,,,,,,,,199726,18,2022-01-29_16h44.25.266,lexical_decision_task_DD,2021.2.3,MacIntel,60.0024001,,,,,,,,,,,0.812,1,,,,,,,,,,,,,,,,,,,,,,,,-0.095870022,-0.154102783,0,0,0,,,,,,,CLOWN,HB,z,m,./images/CLOWNHB.png,,,,,,,,z,1,0.812,,,,,,,,0,118,118,106,1
,,,,,,,,,,,,,,,,,199726,18,2022-01-29_16h44.25.266,lexical_decision_task_DD,2021.2.3,MacIntel,60.0024001,,,,,,,,,,,1.976,1,,,,,,,,,,,,,,,,,,,,,,,,-0.095870022,-0.154102783,0,0,0,,,,,,,CANOE,HB,z,m,./images/CANOEHB.png,,,,,,,,z,1,1.976,,,,,,,,0,119,119,142,1
,,,,,,,,,,,,,,,,,199726,18,2022-01-29_16h44.25.266,lexical_decision_task_DD,2021.2.3,MacIntel,60.0024001,,,,,,,,,,,0.591,1,,,,,,,,,,,,,,,,,,,,,,,,-0.095870022,-0.154102783,0,0,0,,,,,,,BABOON,HB,m,m,./images/BABOONHB.png,,,,,,,,m,1,0.591,,,,,,,,0,120,120,58,1
,,,,,,,,,,,,,,,,,199726,18,2022-01-29_16h44.25.266,lexical_decision_task_DD,2021.2.3,MacIntel,60.0024001,,,,,,,,,,,0.5663,0,,,,,,,,,,,,,,,,,,,,,,,,-0.095870022,-0.154102783,0,0,0,,,,,,,STAIN,C,z,m,./images/STAIN.png,,,,,,,,m,0,0.5663,,,,,,,,0,121,121,90,1
,,,,,,,,,,,,,,,,,199726,18,2022-01-29_16h44.25.266,lexical_decision_task_DD,2021.2.3,MacIntel,60.0024001,,,,,,,,,,,0.9818,0,,,,,,,,,,,,,,,,,,,,,,,,-0.095870022,-0.154102783,0,0,0,,,,,,,GRAPE,HB,z,m,./images/GRAPEHB.png,,,,,,,,m,0,0.9818,,,,,,,,0,122,122,100,1
,,,,,,,,,,,,,,,,,199726,18,2022-01-29_16h44.25.266,lexical_decision_task_DD,2021.2.3,MacIntel,60.0024001,,,,,,,,,,,0.7582,1,,,,,,,,,,,,,,,,,,,,,,,,-0.095870022,-0.154102783,0,0,0,,,,,,,CANDLE,HB,m,m,./images/CANDLEHB.png,,,,,,,,m,1,0.7582,,,,,,,,0,123,123,61,1
,,,,,,,,,,,,,,,,,199726,18,2022-01-29_16h44.25.266,lexical_decision_task_DD,2021.2.3,MacIntel,60.0024001,,,,,,,,,,,0.5483,0,,,,,,,,,,,,,,,,,,,,,,,,-0.095870022,-0.154102783,0,0,0,,,,,,,CHAIN,C,z,m,./images/CHAIN.png,,,,,,,,m,0,0.5483,,,,,,,,0,124,124,126,1
,,,,,,,,,,,,,,,,,199726,18,2022-01-29_16h44.25.266,lexical_decision_task_DD,2021.2.3,MacIntel,60.0024001,,,,,,,,,,,0.6597,1,,,,,,,,,,,,,,,,,,,,,,,,-0.095870022,-0.154102783,0,0,0,space,,,,,,GRAIN,C,m,m,./images/GRAIN.png,2.7658,,,,,,,m,1,0.6597,,,,,,,,0,125,125,75,1
,,,,,,,,,,,,,,,,,199726,18,2022-01-29_16h44.25.266,lexical_decision_task_DD,2021.2.3,MacIntel,60.0024001,,,,,,,,,,,0.5891,1,,,,,,,,,,,,,,,,,,,,,,,,-0.095870022,-0.154102783,0,0,0,,,,,,,CRADLE,LB,m,m,./images/CRADLELB.png,,,,,,,,m,1,0.5891,,,,,,,,0,126,126,20,1
,,,,,,,,,,,,,,,,,199726,18,2022-01-29_16h44.25.266,lexical_decision_task_DD,2021.2.3,MacIntel,60.0024001,,,,,,,,,,,0.5317,0,,,,,,,,,,,,,,,,,,,,,,,,-0.095870022,-0.154102783,0,0,0,,,,,,,STREAM,LB,z,m,./images/STREAMLB.png,,,,,,,,m,0,0.5317,,,,,,,,0,127,127,125,1
,,,,,,,,,,,,,,,,,199726,18,2022-01-29_16h44.25.266,lexical_decision_task_DD,2021.2.3,MacIntel,60.0024001,,,,,,,,,,,0.643,1,,,,,,,,,,,,,,,,,,,,,,,,-0.095870022,-0.154102783,0,0,0,,,,,,,TULIP,LB,m,m,./images/TULIPLB.png,,,,,,,,m,1,0.643,,,,,,,,0,128,128,8,1
,,,,,,,,,,,,,,,,,199726,18,2022-01-29_16h44.25.266,lexical_decision_task_DD,2021.2.3,MacIntel,60.0024001,,,,,,,,,,,0.5082,1,,,,,,,,,,,,,,,,,,,,,,,,-0.095870022,-0.154102783,0,0,0,,,,,,,FOLDER,C,m,m,./images/FOLDER.png,,,,,,,,m,1,0.5082,,,,,,,,0,129,129,42,1
,,,,,,,,,,,,,,,,,199726,18,2022-01-29_16h44.25.266,lexical_decision_task_DD,2021.2.3,MacIntel,60.0024001,,,,,,,,,,,0.6106,0,,,,,,,,,,,,,,,,,,,,,,,,-0.095870022,-0.154102783,0,0,0,,,,,,,MAMMAL,LB,z,m,./images/MAMMALLB.png,,,,,,,,m,0,0.6106,,,,,,,,0,130,130,146,1
,,,,,,,,,,,,,,,,,199726,18,2022-01-29_16h44.25.266,lexical_decision_task_DD,2021.2.3,MacIntel,60.0024001,,,,,,,,,,,0.7419,1,,,,,,,,,,,,,,,,,,,,,,,,-0.095870022,-0.154102783,0,0,0,,,,,,,KITTEN,C,m,m,./images/KITTEN.png,,,,,,,,m,1,0.7419,,,,,,,,0,131,131,45,1
,,,,,,,,,,,,,,,,,199726,18,2022-01-29_16h44.25.266,lexical_decision_task_DD,2021.2.3,MacIntel,60.0024001,,,,,,,,,,,0.5988,1,,,,,,,,,,,,,,,,,,,,,,,,-0.095870022,-0.154102783,0,0,0,,,,,,,FLASK,C,z,m,./images/FLASK.png,,,,,,,,z,1,0.5988,,,,,,,,0,132,132,156,1
,,,,,,,,,,,,,,,,,199726,18,2022-01-29_16h44.25.266,lexical_decision_task_DD,2021.2.3,MacIntel,60.0024001,,,,,,,,,,,0.7618,1,,,,,,,,,,,,,,,,,,,,,,,,-0.095870022,-0.154102783,0,0,0,,,,,,,PEARL,HB,m,m,./images/PEARLHB.png,,,,,,,,m,1,0.7618,,,,,,,,0,133,133,46,1
,,,,,,,,,,,,,,,,,199726,18,2022-01-29_16h44.25.266,lexical_decision_task_DD,2021.2.3,MacIntel,60.0024001,,,,,,,,,,,0.6444,1,,,,,,,,,,,,,,,,,,,,,,,,-0.095870022,-0.154102783,0,0,0,,,,,,,MUFFIN,HB,m,m,./images/MUFFINHB.png,,,,,,,,m,1,0.6444,,,,,,,,0,134,134,55,1
,,,,,,,,,,,,,,,,,199726,18,2022-01-29_16h44.25.266,lexical_decision_task_DD,2021.2.3,MacIntel,60.0024001,,,,,,,,,,,0.6688,1,,,,,,,,,,,,,,,,,,,,,,,,-0.095870022,-0.154102783,0,0,0,,,,,,,ARROW,C,z,m,./images/ARROW.png,,,,,,,,z,1,0.6688,,,,,,,,0,135,135,153,1
,,,,,,,,,,,,,,,,,199726,18,2022-01-29_16h44.25.266,lexical_decision_task_DD,2021.2.3,MacIntel,60.0024001,,,,,,,,,,,0.7694,1,,,,,,,,,,,,,,,,,,,,,,,,-0.095870022,-0.154102783,0,0,0,,,,,,,PLANK,HB,m,m,./images/PLANKHB.png,,,,,,,,m,1,0.7694,,,,,,,,0,136,136,1,1
,,,,,,,,,,,,,,,,,199726,18,2022-01-29_16h44.25.266,lexical_decision_task_DD,2021.2.3,MacIntel,60.0024001,,,,,,,,,,,0.6869,0,,,,,,,,,,,,,,,,,,,,,,,,-0.095870022,-0.154102783,0,0,0,,,,,,,DRUMS,HB,m,m,./images/DRUMSHB.png,,,,,,,,z,0,0.6869,,,,,,,,0,137,137,49,1
,,,,,,,,,,,,,,,,,199726,18,2022-01-29_16h44.25.266,lexical_decision_task_DD,2021.2.3,MacIntel,60.0024001,,,,,,,,,,,0.6773,1,,,,,,,,,,,,,,,,,,,,,,,,-0.095870022,-0.154102783,0,0,0,,,,,,,LITTER,C,m,m,./images/LITTER.png,,,,,,,,m,1,0.6773,,,,,,,,0,138,138,78,1
,,,,,,,,,,,,,,,,,199726,18,2022-01-29_16h44.25.266,lexical_decision_task_DD,2021.2.3,MacIntel,60.0024001,,,,,,,,,,,0.7312,1,,,,,,,,,,,,,,,,,,,,,,,,-0.095870022,-0.154102783,0,0,0,,,,,,,PEBBLE,HB,z,m,./images/PEBBLEHB.png,,,,,,,,z,1,0.7312,,,,,,,,0,139,139,166,1
,,,,,,,,,,,,,,,,,199726,18,2022-01-29_16h44.25.266,lexical_decision_task_DD,2021.2.3,MacIntel,60.0024001,,,,,,,,,,,1.2944,1,,,,,,,,,,,,,,,,,,,,,,,,-0.095870022,-0.154102783,0,0,0,,,,,,,BANANA,HB,z,m,./images/BANANAHB.png,,,,,,,,z,1,1.2944,,,,,,,,0,140,140,154,1
,,,,,,,,,,,,,,,,,199726,18,2022-01-29_16h44.25.266,lexical_decision_task_DD,2021.2.3,MacIntel,60.0024001,,,,,,,,,,,0.7208,1,,,,,,,,,,,,,,,,,,,,,,,,-0.095870022,-0.154102783,0,0,0,,,,,,,BUTTER,C,z,m,./images/BUTTER.png,,,,,,,,z,1,0.7208,,,,,,,,0,141,141,111,1
,,,,,,,,,,,,,,,,,199726,18,2022-01-29_16h44.25.266,lexical_decision_task_DD,2021.2.3,MacIntel,60.0024001,,,,,,,,,,,0.5785,1,,,,,,,,,,,,,,,,,,,,,,,,-0.095870022,-0.154102783,0,0,0,,,,,,,MAGGOT,C,m,m,./images/MAGGOT.png,,,,,,,,m,1,0.5785,,,,,,,,0,142,142,33,1
,,,,,,,,,,,,,,,,,199726,18,2022-01-29_16h44.25.266,lexical_decision_task_DD,2021.2.3,MacIntel,60.0024001,,,,,,,,,,,0.5784,1,,,,,,,,,,,,,,,,,,,,,,,,-0.095870022,-0.154102783,0,0,0,,,,,,,SWING,HB,m,m,./images/SWINGHB.png,,,,,,,,m,1,0.5784,,,,,,,,0,143,143,40,1
,,,,,,,,,,,,,,,,,199726,18,2022-01-29_16h44.25.266,lexical_decision_task_DD,2021.2.3,MacIntel,60.0024001,,,,,,,,,,,0.7916,1,,,,,,,,,,,,,,,,,,,,,,,,-0.095870022,-0.154102783,0,0,0,,,,,,,JELLY,HB,m,m,./images/JELLYHB.png,,,,,,,,m,1,0.7916,,,,,,,,0,144,144,64,1
,,,,,,,,,,,,,,,,,199726,18,2022-01-29_16h44.25.266,lexical_decision_task_DD,2021.2.3,MacIntel,60.0024001,,,,,,,,,,,0.7417,1,,,,,,,,,,,,,,,,,,,,,,,,-0.095870022,-0.154102783,0,0,0,,,,,,,BANNER,HB,m,m,./images/BANNERHB.png,,,,,,,,m,1,0.7417,,,,,,,,0,145,145,52,1
,,,,,,,,,,,,,,,,,199726,18,2022-01-29_16h44.25.266,lexical_decision_task_DD,2021.2.3,MacIntel,60.0024001,,,,,,,,,,,0.7577,0,,,,,,,,,,,,,,,,,,,,,,,,-0.095870022,-0.154102783,0,0,0,,,,,,,TIGER,HB,z,m,./images/TIGERHB.png,,,,,,,,m,0,0.7577,,,,,,,,0,146,146,121,1
,,,,,,,,,,,,,,,,,199726,18,2022-01-29_16h44.25.266,lexical_decision_task_DD,2021.2.3,MacIntel,60.0024001,,,,,,,,,,,0.7407,1,,,,,,,,,,,,,,,,,,,,,,,,-0.095870022,-0.154102783,0,0,0,,,,,,,INFANT,HB,m,m,./images/INFANTHB.png,,,,,,,,m,1,0.7407,,,,,,,,0,147,147,76,1
,,,,,,,,,,,,,,,,,199726,18,2022-01-29_16h44.25.266,lexical_decision_task_DD,2021.2.3,MacIntel,60.0024001,,,,,,,,,,,1.0757,1,,,,,,,,,,,,,,,,,,,,,,,,-0.095870022,-0.154102783,0,0,0,,,,,,,FENCE,LB,z,m,./images/FENCELB.png,,,,,,,,z,1,1.0757,,,,,,,,0,148,148,98,1
,,,,,,,,,,,,,,,,,199726,18,2022-01-29_16h44.25.266,lexical_decision_task_DD,2021.2.3,MacIntel,60.0024001,,,,,,,,,,,0.878,1,,,,,,,,,,,,,,,,,,,,,,,,-0.095870022,-0.154102783,0,0,0,,,,,,,DOUGH,HB,m,m,./images/DOUGHHB.png,,,,,,,,m,1,0.878,,,,,,,,0,149,149,19,1
,,,,,,,,,,,,,,,,,199726,18,2022-01-29_16h44.25.266,lexical_decision_task_DD,2021.2.3,MacIntel,60.0024001,,,,,,,,,,,0.7291,1,,,,,,,,,,,,,,,,,,,,,,,,-0.095870022,-0.154102783,0,0,0,,,,,,,DESERT,HB,z,m,./images/DESERTHB.png,,,,,,,,z,1,0.7291,,,,,,,,0,150,150,136,1
,,,,,,,,,,,,,,,,,199726,18,2022-01-29_16h44.25.266,lexical_decision_task_DD,2021.2.3,MacIntel,60.0024001,,,,,,,,,,,0.7192,0,,,,,,,,,,,,,,,,,,,,,,,,-0.095870022,-0.154102783,0,0,0,,,,,,,MIDGET,HB,z,m,./images/MIDGETHB.png,,,,,,,,m,0,0.7192,,,,,,,,0,151,151,160,1
,,,,,,,,,,,,,,,,,199726,18,2022-01-29_16h44.25.266,lexical_decision_task_DD,2021.2.3,MacIntel,60.0024001,,,,,,,,,,,0.7452,1,,,,,,,,,,,,,,,,,,,,,,,,-0.095870022,-0.154102783,0,0,0,,,,,,,SAUNA,C,z,m,./images/SAUNA.png,,,,,,,,z,1,0.7452,,,,,,,,0,152,152,117,1
,,,,,,,,,,,,,,,,,199726,18,2022-01-29_16h44.25.266,lexical_decision_task_DD,2021.2.3,MacIntel,60.0024001,,,,,,,,,,,0.6625,1,,,,,,,,,,,,,,,,,,,,,,,,-0.095870022,-0.154102783,0,0,0,,,,,,,PIMPLE,LB,m,m,./images/PIMPLELB.png,,,,,,,,m,1,0.6625,,,,,,,,0,153,153,71,1
,,,,,,,,,,,,,,,,,199726,18,2022-01-29_16h44.25.266,lexical_decision_task_DD,2021.2.3,MacIntel,60.0024001,,,,,,,,,,,0.9412,0,,,,,,,,,,,,,,,,,,,,,,,,-0.095870022,-0.154102783,0,0,0,,,,,,,MELON,HB,m,m,./images/MELONHB.png,,,,,,,,z,0,0.9412,,,,,,,,0,154,154,22,1
,,,,,,,,,,,,,,,,,199726,18,2022-01-29_16h44.25.266,lexical_decision_task_DD,2021.2.3,MacIntel,60.0024001,,,,,,,,,,,0.702,0,,,,,,,,,,,,,,,,,,,,,,,,-0.095870022,-0.154102783,0,0,0,,,,,,,DRILL,C,z,m,./images/DRILL.png,,,,,,,,m,0,0.702,,,,,,,,0,155,155,165,1
,,,,,,,,,,,,,,,,,199726,18,2022-01-29_16h44.25.266,lexical_decision_task_DD,2021.2.3,MacIntel,60.0024001,,,,,,,,,,,0.747,1,,,,,,,,,,,,,,,,,,,,,,,,-0.095870022,-0.154102783,0,0,0,,,,,,,BEARD,LB,m,m,./images/BEARDLB.png,,,,,,,,m,1,0.747,,,,,,,,0,156,156,2,1
,,,,,,,,,,,,,,,,,199726,18,2022-01-29_16h44.25.266,lexical_decision_task_DD,2021.2.3,MacIntel,60.0024001,,,,,,,,,,,0.7331,0,,,,,,,,,,,,,,,,,,,,,,,,-0.095870022,-0.154102783,0,0,0,,,,,,,SPORT,C,m,m,./images/SPORT.png,,,,,,,,z,0,0.7331,,,,,,,,0,157,157,48,1
,,,,,,,,,,,,,,,,,199726,18,2022-01-29_16h44.25.266,lexical_decision_task_DD,2021.2.3,MacIntel,60.0024001,,,,,,,,,,,0.6955,1,,,,,,,,,,,,,,,,,,,,,,,,-0.095870022,-0.154102783,0,0,0,,,,,,,PARCEL,C,z,m,./images/PARCEL.png,,,,,,,,z,1,0.6955,,,,,,,,0,158,158,102,1
,,,,,,,,,,,,,,,,,199726,18,2022-01-29_16h44.25.266,lexical_decision_task_DD,2021.2.3,MacIntel,60.0024001,,,,,,,,,,,0.758,1,,,,,,,,,,,,,,,,,,,,,,,,-0.095870022,-0.154102783,0,0,0,,,,,,,MOTOR,HB,m,m,./images/MOTORHB.png,,,,,,,,m,1,0.758,,,,,,,,0,159,159,13,1
,,,,,,,,,,,,,,,,,199726,18,2022-01-29_16h44.25.266,lexical_decision_task_DD,2021.2.3,MacIntel,60.0024001,,,,,,,,,,,0.6111,1,,,,,,,,,,,,,,,,,,,,,,,,-0.095870022,-0.154102783,0,0,0,,,,,,,QUILL,HB,m,m,./images/QUILLHB.png,,,,,,,,m,1,0.6111,,,,,,,,0,160,160,31,1
,,,,,,,,,,,,,,,,,199726,18,2022-01-29_16h44.25.266,lexical_decision_task_DD,2021.2.3,MacIntel,60.0024001,,,,,,,,,,,0.6289,0,,,,,,,,,,,,,,,,,,,,,,,,-0.095870022,-0.154102783,0,0,0,,,,,,,BAMBOO,LB,z,m,./images/BAMBOOLB.png,,,,,,,,m,0,0.6289,,,,,,,,0,161,161,89,1
,,,,,,,,,,,,,,,,,199726,18,2022-01-29_16h44.25.266,lexical_decision_task_DD,2021.2.3,MacIntel,60.0024001,,,,,,,,,,,0.7471,0,,,,,,,,,,,,,,,,,,,,,,,,-0.095870022,-0.154102783,0,0,0,,,,,,,GLOVE,HB,z,m,./images/GLOVEHB.png,,,,,,,,m,0,0.7471,,,,,,,,0,162,162,157,1
,,,,,,,,,,,,,,,,,199726,18,2022-01-29_16h44.25.266,lexical_decision_task_DD,2021.2.3,MacIntel,60.0024001,,,,,,,,,,,0.7282,1,,,,,,,,,,,,,,,,,,,,,,,,-0.095870022,-0.154102783,0,0,0,,,,,,,LLAMA,LB,z,m,./images/LLAMALB.png,,,,,,,,z,1,0.7282,,,,,,,,0,163,163,119,1
,,,,,,,,,,,,,,,,,199726,18,2022-01-29_16h44.25.266,lexical_decision_task_DD,2021.2.3,MacIntel,60.0024001,,,,,,,,,,,0.847,1,,,,,,,,,,,,,,,,,,,,,,,,-0.095870022,-0.154102783,0,0,0,,,,,,,JAGUAR,C,m,m,./images/JAGUAR.png,,,,,,,,m,1,0.847,,,,,,,,0,164,164,18,1
,,,,,,,,,,,,,,,,,199726,18,2022-01-29_16h44.25.266,lexical_decision_task_DD,2021.2.3,MacIntel,60.0024001,,,,,,,,,,,0.7953,1,,,,,,,,,,,,,,,,,,,,,,,,-0.095870022,-0.154102783,0,0,0,,,,,,,DANCER,C,z,m,./images/DANCER.png,,,,,,,,z,1,0.7953,,,,,,,,0,165,165,105,1
,,,,,,,,,,,,,,,,,199726,18,2022-01-29_16h44.25.266,lexical_decision_task_DD,2021.2.3,MacIntel,60.0024001,,,,,,,,,,,0.8557,1,,,,,,,,,,,,,,,,,,,,,,,,-0.095870022,-0.154102783,0,0,0,,,,,,,BISHOP,HB,z,m,./images/BISHOPHB.png,,,,,,,,z,1,0.8557,,,,,,,,0,166,166,133,1
,,,,,,,,,,,,,,,,,199726,18,2022-01-29_16h44.25.266,lexical_decision_task_DD,2021.2.3,MacIntel,60.0024001,,,,,,,,,,,0.8769,0,,,,,,,,,,,,,,,,,,,,,,,,-0.095870022,-0.154102783,0,0,0,,,,,,,DONKEY,HB,z,m,./images/DONKEYHB.png,,,,,,,,m,0,0.8769,,,,,,,,0,167,167,103,1
