key_resp.keys,instr_done_touch.x,instr_done_touch.y,instr_done_touch.leftButton,instr_done_touch.midButton,instr_done_touch.rightButton,instr_done_touch.clicked_name,instruction_pages.thisRepN,instruction_pages.thisTrialN,instruction_pages.thisN,instruction_pages.thisIndex,instruction_pages.ran,pageN,phase,instruct_text,has_image,instruct_image,participant,age,date,expName,psychopyVersion,OS,frameRate,key_resp.rt,response.keys,response.corr,response.rt,touch_resp.x,touch_resp.y,touch_resp.leftButton,touch_resp.midButton,touch_resp.rightButton,touch_resp.time,touch_resp.clicked_name,rt,corr,practrials.thisRepN,practrials.thisTrialN,practrials.thisN,practrials.thisIndex,practrials.ran,TrialID,Target,corrAns,end_of_practice_trials_pages.thisRepN,end_of_practice_trials_pages.thisTrialN,end_of_practice_trials_pages.thisN,end_of_practice_trials_pages.thisIndex,end_of_practice_trials_pages.ran,key_resp_2.keys,key_resp_2.corr,key_resp_2.rt,targ_click.x,targ_click.y,targ_click.leftButton,targ_click.midButton,targ_click.rightButton,targ_click.time,targ_click.clicked_name,break_done_touch.x,break_done_touch.y,break_done_touch.leftButton,break_done_touch.midButton,break_done_touch.rightButton,break_done_keyboard.keys,maintrials.thisRepN,maintrials.thisTrialN,maintrials.thisN,maintrials.thisIndex,maintrials.ran,string,blur,study,lex,stim_path,break_done_keyboard.rt,test_instructions.thisRepN,test_instructions.thisTrialN,test_instructions.thisN,test_instructions.thisIndex,test_instructions.ran,key_resp_3.keys,key_resp_3.corr,key_resp_3.rt,test_click.x,test_click.y,test_click.leftButton,test_click.midButton,test_click.rightButton,test_click.time,test_click.clicked_name,test_phase.thisRepN,test_phase.thisTrialN,test_phase.thisN,test_phase.thisIndex,test_phase.ran
,0.080555556,-0.388888889,1,0,0,instr_done_button,0,0,0,0,1,1,instructions,"INSTRUCTIONS
At the start of each trial, look at the plus sign  (+) in the center of the screen.  This tells you that a trial is about to begin and where to look. Second, the plus sign will disappear and a string of letters will appear. Your task is to determine if the string of letters is a word or not. If the item is a word press the M key (on keyboard)  or touch the word button (phone/tablet).  If the item is not a word,  press the  Z key (on keyboard)  or touch the nonword button (on phone/tablet). 
Press the space bar or touch  continue.",0,,199780,19,2022-01-29_13h03.27.659,lexical_decision_task_DD_L3,2021.2.3,Win32,60.22282445,,,,,,,,,,,,,,,,,,,,,,,,,,,,,,,,,,,,,,,,,,,,,,,,,,,,,,,,,,,,,,,,,,,,,,,,,
space,0.107407407,-0.336111111,0,0,0,,0,1,1,1,1,2,instructions,"If your device has a keyboard, press the 'Z' key for nonwords and the 'M' key for words.





Press the space bar or touch the button below to continue.",0,keyboard-example.gif,199780,19,2022-01-29_13h03.27.659,lexical_decision_task_DD_L3,2021.2.3,Win32,60.22282445,15.1031,,,,,,,,,,,,,,,,,,,,,,,,,,,,,,,,,,,,,,,,,,,,,,,,,,,,,,,,,,,,,,,,,,,,,,,,
space,0.107407407,-0.336111111,0,0,0,,0,2,2,2,1,3,instructions,"If you are using a touchscreen only device, use the buttons on the screen. Do not use the mouse.





Press the space bar or touch the button below to continue.",0,touchscreen-example.gif,199780,19,2022-01-29_13h03.27.659,lexical_decision_task_DD_L3,2021.2.3,Win32,60.22282445,9.0214,,,,,,,,,,,,,,,,,,,,,,,,,,,,,,,,,,,,,,,,,,,,,,,,,,,,,,,,,,,,,,,,,,,,,,,,
space,0.107407407,-0.336111111,0,0,0,,0,3,3,3,1,4,instructions,"It is very important that you respond as quickly and accurately as possible, as each letter string will only be on the screen for two seconds. If you do not respond within this time, the message 'Too slow!' will be displayed and the experiment will progress to the next letter string. The first 20 trials will be practice trials and you will receive feedback on your answers. 

Press the space bar or touch the button below to start the practice trials.",0,,199780,19,2022-01-29_13h03.27.659,lexical_decision_task_DD_L3,2021.2.3,Win32,60.22282445,12.1406,,,,,,,,,,,,,,,,,,,,,,,,,,,,,,,,,,,,,,,,,,,,,,,,,,,,,,,,,,,,,,,,,,,,,,,,
,,,,,,,,,,,,,,,,,199780,19,2022-01-29_13h03.27.659,lexical_decision_task_DD_L3,2021.2.3,Win32,60.22282445,,m,1,1.0497,,,,,,,,1.0497,1,0,0,0,1,1,1001,ADJUST,m,,,,,,,,,,,,,,,,,,,,,,,,,,,,,,,,,,,,,,,,,,,,,,,,,,,,
,,,,,,,,,,,,,,,,,199780,19,2022-01-29_13h03.27.659,lexical_decision_task_DD_L3,2021.2.3,Win32,60.22282445,,z,1,0.8828,,,,,,,,0.8828,1,0,1,1,8,1,1001,ASLERT,z,,,,,,,,,,,,,,,,,,,,,,,,,,,,,,,,,,,,,,,,,,,,,,,,,,,,
,,,,,,,,,,,,,,,,,199780,19,2022-01-29_13h03.27.659,lexical_decision_task_DD_L3,2021.2.3,Win32,60.22282445,,z,1,0.746,,,,,,,,0.746,1,0,2,2,13,1,1001,ROUPET,z,,,,,,,,,,,,,,,,,,,,,,,,,,,,,,,,,,,,,,,,,,,,,,,,,,,,
,,,,,,,,,,,,,,,,,199780,19,2022-01-29_13h03.27.659,lexical_decision_task_DD_L3,2021.2.3,Win32,60.22282445,,z,1,0.9947,,,,,,,,0.9947,1,0,3,3,11,1,1001,RASHET,z,,,,,,,,,,,,,,,,,,,,,,,,,,,,,,,,,,,,,,,,,,,,,,,,,,,,
,,,,,,,,,,,,,,,,,199780,19,2022-01-29_13h03.27.659,lexical_decision_task_DD_L3,2021.2.3,Win32,60.22282445,,m,1,0.8002,,,,,,,,0.8002,1,0,4,4,0,1,1001,UTOPIA,m,,,,,,,,,,,,,,,,,,,,,,,,,,,,,,,,,,,,,,,,,,,,,,,,,,,,
,,,,,,,,,,,,,,,,,199780,19,2022-01-29_13h03.27.659,lexical_decision_task_DD_L3,2021.2.3,Win32,60.22282445,,z,1,0.8503,,,,,,,,0.8503,1,0,5,5,14,1,1001,THRALE,z,,,,,,,,,,,,,,,,,,,,,,,,,,,,,,,,,,,,,,,,,,,,,,,,,,,,
,,,,,,,,,,,,,,,,,199780,19,2022-01-29_13h03.27.659,lexical_decision_task_DD_L3,2021.2.3,Win32,60.22282445,,z,1,1.1406,,,,,,,,1.1406,1,0,6,6,10,1,1001,INLADE,z,,,,,,,,,,,,,,,,,,,,,,,,,,,,,,,,,,,,,,,,,,,,,,,,,,,,
,,,,,,,,,,,,,,,,,199780,19,2022-01-29_13h03.27.659,lexical_decision_task_DD_L3,2021.2.3,Win32,60.22282445,,m,1,0.5728,,,,,,,,0.5728,1,0,7,7,3,1,1001,MATRIX,m,,,,,,,,,,,,,,,,,,,,,,,,,,,,,,,,,,,,,,,,,,,,,,,,,,,,
,,,,,,,,,,,,,,,,,199780,19,2022-01-29_13h03.27.659,lexical_decision_task_DD_L3,2021.2.3,Win32,60.22282445,,m,1,0.5904,,,,,,,,0.5904,1,0,8,8,5,1,1001,OBTAIN,m,,,,,,,,,,,,,,,,,,,,,,,,,,,,,,,,,,,,,,,,,,,,,,,,,,,,
,,,,,,,,,,,,,,,,,199780,19,2022-01-29_13h03.27.659,lexical_decision_task_DD_L3,2021.2.3,Win32,60.22282445,,m,1,0.5459,,,,,,,,0.5459,1,0,9,9,6,1,1001,ZOMBIE,m,,,,,,,,,,,,,,,,,,,,,,,,,,,,,,,,,,,,,,,,,,,,,,,,,,,,
,,,,,,,,,,,,,,,,,199780,19,2022-01-29_13h03.27.659,lexical_decision_task_DD_L3,2021.2.3,Win32,60.22282445,,m,1,0.5059,,,,,,,,0.5059,1,0,10,10,7,1,1001,VOLUME,m,,,,,,,,,,,,,,,,,,,,,,,,,,,,,,,,,,,,,,,,,,,,,,,,,,,,
,,,,,,,,,,,,,,,,,199780,19,2022-01-29_13h03.27.659,lexical_decision_task_DD_L3,2021.2.3,Win32,60.22282445,,m,1,0.501,,,,,,,,0.501,1,0,11,11,2,1,1001,ALMOND,m,,,,,,,,,,,,,,,,,,,,,,,,,,,,,,,,,,,,,,,,,,,,,,,,,,,,
,,,,,,,,,,,,,,,,,199780,19,2022-01-29_13h03.27.659,lexical_decision_task_DD_L3,2021.2.3,Win32,60.22282445,,m,1,0.4962,,,,,,,,0.4962,1,0,12,12,4,1,1001,SQUEAK,m,,,,,,,,,,,,,,,,,,,,,,,,,,,,,,,,,,,,,,,,,,,,,,,,,,,,
,,,,,,,,,,,,,,,,,199780,19,2022-01-29_13h03.27.659,lexical_decision_task_DD_L3,2021.2.3,Win32,60.22282445,,z,1,0.5925,,,,,,,,0.5925,1,0,13,13,15,1,1001,WHAISE,z,,,,,,,,,,,,,,,,,,,,,,,,,,,,,,,,,,,,,,,,,,,,,,,,,,,,
,,,,,,,,,,,,,,,,,199780,19,2022-01-29_13h03.27.659,lexical_decision_task_DD_L3,2021.2.3,Win32,60.22282445,,z,1,0.7792,,,,,,,,0.7792,1,0,14,14,9,1,1001,FARINY,z,,,,,,,,,,,,,,,,,,,,,,,,,,,,,,,,,,,,,,,,,,,,,,,,,,,,
,,,,,,,,,,,,,,,,,199780,19,2022-01-29_13h03.27.659,lexical_decision_task_DD_L3,2021.2.3,Win32,60.22282445,,z,1,1.165,,,,,,,,1.165,1,0,15,15,12,1,1001,SPRINY,z,,,,,,,,,,,,,,,,,,,,,,,,,,,,,,,,,,,,,,,,,,,,,,,,,,,,
space,0.107407407,-0.336111111,0,0,0,,,,,,,1,end_of_practice,"You have completed the practice trials. During the experimental trials, you will not receive feedback. 
Before you begin, please ensure that you are in a comfortable and quiet location and will not be disturbed for about 15 minutes, as we cannot use your data if you do not complete all the trials. 
 When you are ready to start the experimental trials, please press space or touch the button below.",,,199780,19,2022-01-29_13h03.27.659,lexical_decision_task_DD_L3,2021.2.3,Win32,60.22282445,22.2686,,,,,,,,,,,,,,,,,,,,,0,0,0,0,1,,,,,,,,,,,,,,,,,,,,,,,,,,,,,,,,,,,,,,,,,,,,,,,
,,,,,,,,,,,,,,,,,199780,19,2022-01-29_13h03.27.659,lexical_decision_task_DD_L3,2021.2.3,Win32,60.22282445,,,,,,,,,,,,1.5348,1,,,,,,,,,,,,,,m,1,1.5348,,,,,,,,0.107407407,-0.336111111,0,0,0,,0,0,0,29,1,CRUMB,HB,old,m,./images/CRUMBHB.png,,,,,,,,,,,,,,,,,,,,,
,,,,,,,,,,,,,,,,,199780,19,2022-01-29_13h03.27.659,lexical_decision_task_DD_L3,2021.2.3,Win32,60.22282445,,,,,,,,,,,,1.6619,1,,,,,,,,,,,,,,z,1,1.6619,,,,,,,,0.107407407,-0.336111111,0,0,0,,0,1,1,94,1,BLANS,HB,old,z,./images/BLANSHB.png,,,,,,,,,,,,,,,,,,,,,
,,,,,,,,,,,,,,,,,199780,19,2022-01-29_13h03.27.659,lexical_decision_task_DD_L3,2021.2.3,Win32,60.22282445,,,,,,,,,,,,0.8501,1,,,,,,,,,,,,,,m,1,0.8501,,,,,,,,0.107407407,-0.336111111,0,0,0,,0,2,2,41,1,STRING,HB,old,m,./images/STRINGHB.png,,,,,,,,,,,,,,,,,,,,,
,,,,,,,,,,,,,,,,,199780,19,2022-01-29_13h03.27.659,lexical_decision_task_DD_L3,2021.2.3,Win32,60.22282445,,,,,,,,,,,,0.7368,1,,,,,,,,,,,,,,z,1,0.7368,,,,,,,,0.107407407,-0.336111111,0,0,0,,0,3,3,161,1,BLAPS,LB,old,z,./images/BLAPSLB.png,,,,,,,,,,,,,,,,,,,,,
,,,,,,,,,,,,,,,,,199780,19,2022-01-29_13h03.27.659,lexical_decision_task_DD_L3,2021.2.3,Win32,60.22282445,,,,,,,,,,,,0.8166,1,,,,,,,,,,,,,,z,1,0.8166,,,,,,,,0.107407407,-0.336111111,0,0,0,,0,4,4,149,1,VEASE,LB,old,z,./images/VEASELB.png,,,,,,,,,,,,,,,,,,,,,
,,,,,,,,,,,,,,,,,199780,19,2022-01-29_13h03.27.659,lexical_decision_task_DD_L3,2021.2.3,Win32,60.22282445,,,,,,,,,,,,0.6167,1,,,,,,,,,,,,,,m,1,0.6167,,,,,,,,0.107407407,-0.336111111,0,0,0,,0,5,5,24,1,SCREW,LB,old,m,./images/SCREWLB.png,,,,,,,,,,,,,,,,,,,,,
,,,,,,,,,,,,,,,,,199780,19,2022-01-29_13h03.27.659,lexical_decision_task_DD_L3,2021.2.3,Win32,60.22282445,,,,,,,,,,,,1.2827,1,,,,,,,,,,,,,,m,1,1.2827,,,,,,,,0.107407407,-0.336111111,0,0,0,,0,6,6,74,1,CEMENT,HB,old,m,./images/CEMENTHB.png,,,,,,,,,,,,,,,,,,,,,
,,,,,,,,,,,,,,,,,199780,19,2022-01-29_13h03.27.659,lexical_decision_task_DD_L3,2021.2.3,Win32,60.22282445,,,,,,,,,,,,0.6837,1,,,,,,,,,,,,,,z,1,0.6837,,,,,,,,0.107407407,-0.336111111,0,0,0,,0,7,7,95,1,HANTY,LB,old,z,./images/HANTYLB.png,,,,,,,,,,,,,,,,,,,,,
,,,,,,,,,,,,,,,,,199780,19,2022-01-29_13h03.27.659,lexical_decision_task_DD_L3,2021.2.3,Win32,60.22282445,,,,,,,,,,,,0.6336,1,,,,,,,,,,,,,,m,1,0.6336,,,,,,,,0.107407407,-0.336111111,0,0,0,,0,8,8,80,1,WEASEL,HB,old,m,./images/WEASELHB.png,,,,,,,,,,,,,,,,,,,,,
,,,,,,,,,,,,,,,,,199780,19,2022-01-29_13h03.27.659,lexical_decision_task_DD_L3,2021.2.3,Win32,60.22282445,,,,,,,,,,,,0.9155,1,,,,,,,,,,,,,,z,1,0.9155,,,,,,,,0.107407407,-0.336111111,0,0,0,,0,9,9,123,1,SEDGE,C,old,z,./images/SEDGE.png,,,,,,,,,,,,,,,,,,,,,
,,,,,,,,,,,,,,,,,199780,19,2022-01-29_13h03.27.659,lexical_decision_task_DD_L3,2021.2.3,Win32,60.22282445,,,,,,,,,,,,0.5394,1,,,,,,,,,,,,,,m,1,0.5394,,,,,,,,0.107407407,-0.336111111,0,0,0,,0,10,10,36,1,THROAT,LB,old,m,./images/THROATLB.png,,,,,,,,,,,,,,,,,,,,,
,,,,,,,,,,,,,,,,,199780,19,2022-01-29_13h03.27.659,lexical_decision_task_DD_L3,2021.2.3,Win32,60.22282445,,,,,,,,,,,,0.5158,1,,,,,,,,,,,,,,z,1,0.5158,,,,,,,,0.107407407,-0.336111111,0,0,0,,0,11,11,93,1,SMONE,C,old,z,./images/SMONE.png,,,,,,,,,,,,,,,,,,,,,
,,,,,,,,,,,,,,,,,199780,19,2022-01-29_13h03.27.659,lexical_decision_task_DD_L3,2021.2.3,Win32,60.22282445,,,,,,,,,,,,0.7462,1,,,,,,,,,,,,,,z,1,0.7462,,,,,,,,0.107407407,-0.336111111,0,0,0,,0,12,12,158,1,EGECT,LB,old,z,./images/EGECTLB.png,,,,,,,,,,,,,,,,,,,,,
,,,,,,,,,,,,,,,,,199780,19,2022-01-29_13h03.27.659,lexical_decision_task_DD_L3,2021.2.3,Win32,60.22282445,,,,,,,,,,,,0.5664,1,,,,,,,,,,,,,,z,1,0.5664,,,,,,,,0.107407407,-0.336111111,0,0,0,,0,13,13,146,1,MOOST,LB,old,z,./images/MOOSTLB.png,,,,,,,,,,,,,,,,,,,,,
,,,,,,,,,,,,,,,,,199780,19,2022-01-29_13h03.27.659,lexical_decision_task_DD_L3,2021.2.3,Win32,60.22282445,,,,,,,,,,,,0.5222,1,,,,,,,,,,,,,,m,1,0.5222,,,,,,,,0.107407407,-0.336111111,0,0,0,,0,14,14,55,1,MUFFIN,C,old,m,./images/MUFFIN.png,,,,,,,,,,,,,,,,,,,,,
,,,,,,,,,,,,,,,,,199780,19,2022-01-29_13h03.27.659,lexical_decision_task_DD_L3,2021.2.3,Win32,60.22282445,,,,,,,,,,,,0.5783,1,,,,,,,,,,,,,,m,1,0.5783,,,,,,,,0.107407407,-0.336111111,0,0,0,,0,15,15,33,1,MAGGOT,LB,old,m,./images/MAGGOTLB.png,,,,,,,,,,,,,,,,,,,,,
,,,,,,,,,,,,,,,,,199780,19,2022-01-29_13h03.27.659,lexical_decision_task_DD_L3,2021.2.3,Win32,60.22282445,,,,,,,,,,,,0.7335,0,,,,,,,,,,,,,,z,0,0.7335,,,,,,,,0.107407407,-0.336111111,0,0,0,,0,16,16,11,1,BONNET,HB,old,m,./images/BONNETHB.png,,,,,,,,,,,,,,,,,,,,,
,,,,,,,,,,,,,,,,,199780,19,2022-01-29_13h03.27.659,lexical_decision_task_DD_L3,2021.2.3,Win32,60.22282445,,,,,,,,,,,,0.7121,1,,,,,,,,,,,,,,z,1,0.7121,,,,,,,,0.107407407,-0.336111111,0,0,0,,0,17,17,87,1,TRING,C,old,z,./images/TRING.png,,,,,,,,,,,,,,,,,,,,,
,,,,,,,,,,,,,,,,,199780,19,2022-01-29_13h03.27.659,lexical_decision_task_DD_L3,2021.2.3,Win32,60.22282445,,,,,,,,,,,,0.882,1,,,,,,,,,,,,,,z,1,0.882,,,,,,,,0.107407407,-0.336111111,0,0,0,,0,18,18,159,1,CUDDY,C,old,z,./images/CUDDY.png,,,,,,,,,,,,,,,,,,,,,
,,,,,,,,,,,,,,,,,199780,19,2022-01-29_13h03.27.659,lexical_decision_task_DD_L3,2021.2.3,Win32,60.22282445,,,,,,,,,,,,1.2874,1,,,,,,,,,,,,,,z,1,1.2874,,,,,,,,0.107407407,-0.336111111,0,0,0,,0,19,19,97,1,CHIDS,HB,old,z,./images/CHIDSHB.png,,,,,,,,,,,,,,,,,,,,,
,,,,,,,,,,,,,,,,,199780,19,2022-01-29_13h03.27.659,lexical_decision_task_DD_L3,2021.2.3,Win32,60.22282445,,,,,,,,,,,,0.5669,1,,,,,,,,,,,,,,m,1,0.5669,,,,,,,,0.107407407,-0.336111111,0,0,0,,0,20,20,22,1,MELON,C,old,m,./images/MELON.png,,,,,,,,,,,,,,,,,,,,,
,,,,,,,,,,,,,,,,,199780,19,2022-01-29_13h03.27.659,lexical_decision_task_DD_L3,2021.2.3,Win32,60.22282445,,,,,,,,,,,,0.6008,1,,,,,,,,,,,,,,m,1,0.6008,,,,,,,,0.107407407,-0.336111111,0,0,0,,0,21,21,76,1,INFANT,C,old,m,./images/INFANT.png,,,,,,,,,,,,,,,,,,,,,
,,,,,,,,,,,,,,,,,199780,19,2022-01-29_13h03.27.659,lexical_decision_task_DD_L3,2021.2.3,Win32,60.22282445,,,,,,,,,,,,0.6674,1,,,,,,,,,,,,,,z,1,0.6674,,,,,,,,0.107407407,-0.336111111,0,0,0,,0,22,22,162,1,LEICH,C,old,z,./images/LEICH.png,,,,,,,,,,,,,,,,,,,,,
,,,,,,,,,,,,,,,,,199780,19,2022-01-29_13h03.27.659,lexical_decision_task_DD_L3,2021.2.3,Win32,60.22282445,,,,,,,,,,,,1.2289,1,,,,,,,,,,,,,,m,1,1.2289,,,,,,,,0.107407407,-0.336111111,0,0,0,,0,23,23,31,1,QUILL,C,old,m,./images/QUILL.png,,,,,,,,,,,,,,,,,,,,,
,,,,,,,,,,,,,,,,,199780,19,2022-01-29_13h03.27.659,lexical_decision_task_DD_L3,2021.2.3,Win32,60.22282445,,,,,,,,,,,,0.5838,1,,,,,,,,,,,,,,z,1,0.5838,,,,,,,,0.107407407,-0.336111111,0,0,0,,0,24,24,144,1,NAIRY,C,old,z,./images/NAIRY.png,,,,,,,,,,,,,,,,,,,,,
,,,,,,,,,,,,,,,,,199780,19,2022-01-29_13h03.27.659,lexical_decision_task_DD_L3,2021.2.3,Win32,60.22282445,,,,,,,,,,,,0.9503,1,,,,,,,,,,,,,,m,1,0.9503,,,,,,,,0.107407407,-0.336111111,0,0,0,,0,25,25,47,1,BERRY,HB,old,m,./images/BERRYHB.png,,,,,,,,,,,,,,,,,,,,,
,,,,,,,,,,,,,,,,,199780,19,2022-01-29_13h03.27.659,lexical_decision_task_DD_L3,2021.2.3,Win32,60.22282445,,,,,,,,,,,,0.6405,1,,,,,,,,,,,,,,m,1,0.6405,,,,,,,,0.107407407,-0.336111111,0,0,0,,0,26,26,20,1,CRADLE,HB,old,m,./images/CRADLEHB.png,,,,,,,,,,,,,,,,,,,,,
,,,,,,,,,,,,,,,,,199780,19,2022-01-29_13h03.27.659,lexical_decision_task_DD_L3,2021.2.3,Win32,60.22282445,,,,,,,,,,,,0.6099,1,,,,,,,,,,,,,,z,1,0.6099,,,,,,,,0.107407407,-0.336111111,0,0,0,,0,27,27,134,1,TROSS,LB,old,z,./images/TROSSLB.png,,,,,,,,,,,,,,,,,,,,,
,,,,,,,,,,,,,,,,,199780,19,2022-01-29_13h03.27.659,lexical_decision_task_DD_L3,2021.2.3,Win32,60.22282445,,,,,,,,,,,,0.6155,1,,,,,,,,,,,,,,z,1,0.6155,,,,,,,,0.107407407,-0.336111111,0,0,0,,0,28,28,132,1,SCIFF,C,old,z,./images/SCIFF.png,,,,,,,,,,,,,,,,,,,,,
,,,,,,,,,,,,,,,,,199780,19,2022-01-29_13h03.27.659,lexical_decision_task_DD_L3,2021.2.3,Win32,60.22282445,,,,,,,,,,,,5.0986,0,,,,,,,,,,,,,,m,0,5.0986,,,,,,,,0.107407407,-0.336111111,0,0,0,,0,29,29,142,1,PLASK,HB,old,z,./images/PLASKHB.png,,,,,,,,,,,,,,,,,,,,,
,,,,,,,,,,,,,,,,,199780,19,2022-01-29_13h03.27.659,lexical_decision_task_DD_L3,2021.2.3,Win32,60.22282445,,,,,,,,,,,,0.6859,1,,,,,,,,,,,,,,m,1,0.6859,,,,,,,,0.107407407,-0.336111111,0,0,0,,0,30,30,43,1,MOSQUE,C,old,m,./images/MOSQUE.png,,,,,,,,,,,,,,,,,,,,,
,,,,,,,,,,,,,,,,,199780,19,2022-01-29_13h03.27.659,lexical_decision_task_DD_L3,2021.2.3,Win32,60.22282445,,,,,,,,,,,,0.7413,1,,,,,,,,,,,,,,m,1,0.7413,,,,,,,,0.107407407,-0.336111111,0,0,0,,0,31,31,2,1,BEARD,HB,old,m,./images/BEARDHB.png,,,,,,,,,,,,,,,,,,,,,
,,,,,,,,,,,,,,,,,199780,19,2022-01-29_13h03.27.659,lexical_decision_task_DD_L3,2021.2.3,Win32,60.22282445,,,,,,,,,,,,0.7258,1,,,,,,,,,,,,,,z,1,0.7258,,,,,,,,0.107407407,-0.336111111,0,0,0,,0,32,32,140,1,DOVET,LB,old,z,./images/DOVETLB.png,,,,,,,,,,,,,,,,,,,,,
,,,,,,,,,,,,,,,,,199780,19,2022-01-29_13h03.27.659,lexical_decision_task_DD_L3,2021.2.3,Win32,60.22282445,,,,,,,,,,,,0.6009,1,,,,,,,,,,,,,,m,1,0.6009,,,,,,,,0.107407407,-0.336111111,0,0,0,,0,33,33,54,1,TRIPOD,LB,old,m,./images/TRIPODLB.png,,,,,,,,,,,,,,,,,,,,,
,,,,,,,,,,,,,,,,,199780,19,2022-01-29_13h03.27.659,lexical_decision_task_DD_L3,2021.2.3,Win32,60.22282445,,,,,,,,,,,,0.6351,1,,,,,,,,,,,,,,m,1,0.6351,,,,,,,,0.107407407,-0.336111111,0,0,0,,0,34,34,5,1,PASTA,HB,old,m,./images/PASTAHB.png,,,,,,,,,,,,,,,,,,,,,
,,,,,,,,,,,,,,,,,199780,19,2022-01-29_13h03.27.659,lexical_decision_task_DD_L3,2021.2.3,Win32,60.22282445,,,,,,,,,,,,0.57,1,,,,,,,,,,,,,,z,1,0.57,,,,,,,,0.107407407,-0.336111111,0,0,0,,0,35,35,105,1,MOKER,C,old,z,./images/MOKER.png,,,,,,,,,,,,,,,,,,,,,
,,,,,,,,,,,,,,,,,199780,19,2022-01-29_13h03.27.659,lexical_decision_task_DD_L3,2021.2.3,Win32,60.22282445,,,,,,,,,,,,2.615,1,,,,,,,,,,,,,,z,1,2.615,,,,,,,,0.107407407,-0.336111111,0,0,0,,0,36,36,115,1,MAWNS,HB,old,z,./images/MAWNSHB.png,,,,,,,,,,,,,,,,,,,,,
,,,,,,,,,,,,,,,,,199780,19,2022-01-29_13h03.27.659,lexical_decision_task_DD_L3,2021.2.3,Win32,60.22282445,,,,,,,,,,,,0.544,1,,,,,,,,,,,,,,m,1,0.544,,,,,,,,0.107407407,-0.336111111,0,0,0,,0,37,37,82,1,SUNSET,C,old,m,./images/SUNSET.png,,,,,,,,,,,,,,,,,,,,,
,,,,,,,,,,,,,,,,,199780,19,2022-01-29_13h03.27.659,lexical_decision_task_DD_L3,2021.2.3,Win32,60.22282445,,,,,,,,,,,,0.5995,1,,,,,,,,,,,,,,z,1,0.5995,,,,,,,,0.107407407,-0.336111111,0,0,0,,0,38,38,129,1,PRANS,C,old,z,./images/PRANS.png,,,,,,,,,,,,,,,,,,,,,
,,,,,,,,,,,,,,,,,199780,19,2022-01-29_13h03.27.659,lexical_decision_task_DD_L3,2021.2.3,Win32,60.22282445,,,,,,,,,,,,0.6549,1,,,,,,,,,,,,,,m,1,0.6549,,,,,,,,0.107407407,-0.336111111,0,0,0,,0,39,39,32,1,BARREL,HB,old,m,./images/BARRELHB.png,,,,,,,,,,,,,,,,,,,,,
,,,,,,,,,,,,,,,,,199780,19,2022-01-29_13h03.27.659,lexical_decision_task_DD_L3,2021.2.3,Win32,60.22282445,,,,,,,,,,,,0.9932,1,,,,,,,,,,,,,,m,1,0.9932,,,,,,,,0.107407407,-0.336111111,0,0,0,,0,40,40,65,1,FARMER,HB,old,m,./images/FARMERHB.png,,,,,,,,,,,,,,,,,,,,,
,,,,,,,,,,,,,,,,,199780,19,2022-01-29_13h03.27.659,lexical_decision_task_DD_L3,2021.2.3,Win32,60.22282445,,,,,,,,,,,,0.6348,1,,,,,,,,,,,,,,z,1,0.6348,,,,,,,,0.107407407,-0.336111111,0,0,0,space,0,41,41,108,1,GRUET,C,old,z,./images/GRUET.png,5.6047,,,,,,,,,,,,,,,,,,,,
,,,,,,,,,,,,,,,,,199780,19,2022-01-29_13h03.27.659,lexical_decision_task_DD_L3,2021.2.3,Win32,60.22282445,,,,,,,,,,,,0.6738,1,,,,,,,,,,,,,,m,1,0.6738,,,,,,,,0.107407407,-0.336111111,0,0,0,,0,42,42,39,1,SHELF,LB,old,m,./images/SHELFLB.png,,,,,,,,,,,,,,,,,,,,,
,,,,,,,,,,,,,,,,,199780,19,2022-01-29_13h03.27.659,lexical_decision_task_DD_L3,2021.2.3,Win32,60.22282445,,,,,,,,,,,,0.8493,1,,,,,,,,,,,,,,z,1,0.8493,,,,,,,,0.107407407,-0.336111111,0,0,0,,0,43,43,160,1,VEETS,HB,old,z,./images/VEETSHB.png,,,,,,,,,,,,,,,,,,,,,
,,,,,,,,,,,,,,,,,199780,19,2022-01-29_13h03.27.659,lexical_decision_task_DD_L3,2021.2.3,Win32,60.22282445,,,,,,,,,,,,0.6468,1,,,,,,,,,,,,,,m,1,0.6468,,,,,,,,0.107407407,-0.336111111,0,0,0,,0,44,44,77,1,COUCH,HB,old,m,./images/COUCHHB.png,,,,,,,,,,,,,,,,,,,,,
,,,,,,,,,,,,,,,,,199780,19,2022-01-29_13h03.27.659,lexical_decision_task_DD_L3,2021.2.3,Win32,60.22282445,,,,,,,,,,,,0.5464,1,,,,,,,,,,,,,,z,1,0.5464,,,,,,,,0.107407407,-0.336111111,0,0,0,,0,45,45,120,1,RINED,C,old,z,./images/RINED.png,,,,,,,,,,,,,,,,,,,,,
,,,,,,,,,,,,,,,,,199780,19,2022-01-29_13h03.27.659,lexical_decision_task_DD_L3,2021.2.3,Win32,60.22282445,,,,,,,,,,,,0.6169,1,,,,,,,,,,,,,,m,1,0.6169,,,,,,,,0.107407407,-0.336111111,0,0,0,,0,46,46,72,1,NOOSE,LB,old,m,./images/NOOSELB.png,,,,,,,,,,,,,,,,,,,,,
,,,,,,,,,,,,,,,,,199780,19,2022-01-29_13h03.27.659,lexical_decision_task_DD_L3,2021.2.3,Win32,60.22282445,,,,,,,,,,,,0.5081,1,,,,,,,,,,,,,,z,1,0.5081,,,,,,,,0.107407407,-0.336111111,0,0,0,,0,47,47,126,1,GUELS,C,old,z,./images/GUELS.png,,,,,,,,,,,,,,,,,,,,,
,,,,,,,,,,,,,,,,,199780,19,2022-01-29_13h03.27.659,lexical_decision_task_DD_L3,2021.2.3,Win32,60.22282445,,,,,,,,,,,,0.6567,0,,,,,,,,,,,,,,m,0,0.6567,,,,,,,,0.107407407,-0.336111111,0,0,0,,0,48,48,103,1,FLORT,HB,old,z,./images/FLORTHB.png,,,,,,,,,,,,,,,,,,,,,
,,,,,,,,,,,,,,,,,199780,19,2022-01-29_13h03.27.659,lexical_decision_task_DD_L3,2021.2.3,Win32,60.22282445,,,,,,,,,,,,1.1027,1,,,,,,,,,,,,,,z,1,1.1027,,,,,,,,0.107407407,-0.336111111,0,0,0,,0,49,49,119,1,PAFER,LB,old,z,./images/PAFERLB.png,,,,,,,,,,,,,,,,,,,,,
,,,,,,,,,,,,,,,,,199780,19,2022-01-29_13h03.27.659,lexical_decision_task_DD_L3,2021.2.3,Win32,60.22282445,,,,,,,,,,,,0.7414,1,,,,,,,,,,,,,,m,1,0.7414,,,,,,,,0.107407407,-0.336111111,0,0,0,,0,50,50,71,1,PIMPLE,HB,old,m,./images/PIMPLEHB.png,,,,,,,,,,,,,,,,,,,,,
,,,,,,,,,,,,,,,,,199780,19,2022-01-29_13h03.27.659,lexical_decision_task_DD_L3,2021.2.3,Win32,60.22282445,,,,,,,,,,,,0.7666,0,,,,,,,,,,,,,,z,0,0.7666,,,,,,,,0.107407407,-0.336111111,0,0,0,,0,51,51,16,1,PENCE,C,old,m,./images/PENCE.png,,,,,,,,,,,,,,,,,,,,,
,,,,,,,,,,,,,,,,,199780,19,2022-01-29_13h03.27.659,lexical_decision_task_DD_L3,2021.2.3,Win32,60.22282445,,,,,,,,,,,,2.3481,1,,,,,,,,,,,,,,z,1,2.3481,,,,,,,,0.107407407,-0.336111111,0,0,0,,0,52,52,145,1,LAMEL,HB,old,z,./images/LAMELHB.png,,,,,,,,,,,,,,,,,,,,,
,,,,,,,,,,,,,,,,,199780,19,2022-01-29_13h03.27.659,lexical_decision_task_DD_L3,2021.2.3,Win32,60.22282445,,,,,,,,,,,,0.835,1,,,,,,,,,,,,,,z,1,0.835,,,,,,,,0.107407407,-0.336111111,0,0,0,,0,53,53,98,1,BAMPS,LB,old,z,./images/BAMPSLB.png,,,,,,,,,,,,,,,,,,,,,
,,,,,,,,,,,,,,,,,199780,19,2022-01-29_13h03.27.659,lexical_decision_task_DD_L3,2021.2.3,Win32,60.22282445,,,,,,,,,,,,1.1166,1,,,,,,,,,,,,,,z,1,1.1166,,,,,,,,0.107407407,-0.336111111,0,0,0,,0,54,54,136,1,WERVE,HB,old,z,./images/WERVEHB.png,,,,,,,,,,,,,,,,,,,,,
,,,,,,,,,,,,,,,,,199780,19,2022-01-29_13h03.27.659,lexical_decision_task_DD_L3,2021.2.3,Win32,60.22282445,,,,,,,,,,,,2.0823,1,,,,,,,,,,,,,,z,1,2.0823,,,,,,,,0.107407407,-0.336111111,0,0,0,,0,55,55,154,1,THINT,HB,old,z,./images/THINTHB.png,,,,,,,,,,,,,,,,,,,,,
,,,,,,,,,,,,,,,,,199780,19,2022-01-29_13h03.27.659,lexical_decision_task_DD_L3,2021.2.3,Win32,60.22282445,,,,,,,,,,,,0.7369,1,,,,,,,,,,,,,,z,1,0.7369,,,,,,,,0.107407407,-0.336111111,0,0,0,,0,56,56,122,1,BLOOT,LB,old,z,./images/BLOOTLB.png,,,,,,,,,,,,,,,,,,,,,
,,,,,,,,,,,,,,,,,199780,19,2022-01-29_13h03.27.659,lexical_decision_task_DD_L3,2021.2.3,Win32,60.22282445,,,,,,,,,,,,0.504,1,,,,,,,,,,,,,,m,1,0.504,,,,,,,,0.107407407,-0.336111111,0,0,0,,0,57,57,30,1,STORM,LB,old,m,./images/STORMLB.png,,,,,,,,,,,,,,,,,,,,,
,,,,,,,,,,,,,,,,,199780,19,2022-01-29_13h03.27.659,lexical_decision_task_DD_L3,2021.2.3,Win32,60.22282445,,,,,,,,,,,,0.6666,1,,,,,,,,,,,,,,m,1,0.6666,,,,,,,,0.107407407,-0.336111111,0,0,0,,0,58,58,70,1,URINE,C,old,m,./images/URINE.png,,,,,,,,,,,,,,,,,,,,,
,,,,,,,,,,,,,,,,,199780,19,2022-01-29_13h03.27.659,lexical_decision_task_DD_L3,2021.2.3,Win32,60.22282445,,,,,,,,,,,,0.5533,1,,,,,,,,,,,,,,m,1,0.5533,,,,,,,,0.107407407,-0.336111111,0,0,0,,0,59,59,57,1,MOOSE,LB,old,m,./images/MOOSELB.png,,,,,,,,,,,,,,,,,,,,,
,,,,,,,,,,,,,,,,,199780,19,2022-01-29_13h03.27.659,lexical_decision_task_DD_L3,2021.2.3,Win32,60.22282445,,,,,,,,,,,,0.8579,1,,,,,,,,,,,,,,m,1,0.8579,,,,,,,,0.107407407,-0.336111111,0,0,0,,0,60,60,50,1,MALLET,HB,old,m,./images/MALLETHB.png,,,,,,,,,,,,,,,,,,,,,
,,,,,,,,,,,,,,,,,199780,19,2022-01-29_13h03.27.659,lexical_decision_task_DD_L3,2021.2.3,Win32,60.22282445,,,,,,,,,,,,1.4436,1,,,,,,,,,,,,,,z,1,1.4436,,,,,,,,0.107407407,-0.336111111,0,0,0,,0,61,61,124,1,TUNCH,HB,old,z,./images/TUNCHHB.png,,,,,,,,,,,,,,,,,,,,,
,,,,,,,,,,,,,,,,,199780,19,2022-01-29_13h03.27.659,lexical_decision_task_DD_L3,2021.2.3,Win32,60.22282445,,,,,,,,,,,,0.6834,1,,,,,,,,,,,,,,z,1,0.6834,,,,,,,,0.107407407,-0.336111111,0,0,0,,0,62,62,89,1,DRIEK,LB,old,z,./images/DRIEKLB.png,,,,,,,,,,,,,,,,,,,,,
,,,,,,,,,,,,,,,,,199780,19,2022-01-29_13h03.27.659,lexical_decision_task_DD_L3,2021.2.3,Win32,60.22282445,,,,,,,,,,,,0.9122,1,,,,,,,,,,,,,,m,1,0.9122,,,,,,,,0.107407407,-0.336111111,0,0,0,,0,63,63,53,1,CARPET,HB,old,m,./images/CARPETHB.png,,,,,,,,,,,,,,,,,,,,,
,,,,,,,,,,,,,,,,,199780,19,2022-01-29_13h03.27.659,lexical_decision_task_DD_L3,2021.2.3,Win32,60.22282445,,,,,,,,,,,,0.7523,1,,,,,,,,,,,,,,m,1,0.7523,,,,,,,,0.107407407,-0.336111111,0,0,0,,0,64,64,79,1,CRUST,C,old,m,./images/CRUST.png,,,,,,,,,,,,,,,,,,,,,
,,,,,,,,,,,,,,,,,199780,19,2022-01-29_13h03.27.659,lexical_decision_task_DD_L3,2021.2.3,Win32,60.22282445,,,,,,,,,,,,0.5068,1,,,,,,,,,,,,,,z,1,0.5068,,,,,,,,0.107407407,-0.336111111,0,0,0,,0,65,65,113,1,LINEW,LB,old,z,./images/LINEWLB.png,,,,,,,,,,,,,,,,,,,,,
,,,,,,,,,,,,,,,,,199780,19,2022-01-29_13h03.27.659,lexical_decision_task_DD_L3,2021.2.3,Win32,60.22282445,,,,,,,,,,,,0.7078,1,,,,,,,,,,,,,,m,1,0.7078,,,,,,,,0.107407407,-0.336111111,0,0,0,,0,66,66,14,1,PICKLE,HB,old,m,./images/PICKLEHB.png,,,,,,,,,,,,,,,,,,,,,
,,,,,,,,,,,,,,,,,199780,19,2022-01-29_13h03.27.659,lexical_decision_task_DD_L3,2021.2.3,Win32,60.22282445,,,,,,,,,,,,0.5165,1,,,,,,,,,,,,,,z,1,0.5165,,,,,,,,0.107407407,-0.336111111,0,0,0,,0,67,67,96,1,KEAMS,C,old,z,./images/KEAMS.png,,,,,,,,,,,,,,,,,,,,,
,,,,,,,,,,,,,,,,,199780,19,2022-01-29_13h03.27.659,lexical_decision_task_DD_L3,2021.2.3,Win32,60.22282445,,,,,,,,,,,,0.5838,1,,,,,,,,,,,,,,m,1,0.5838,,,,,,,,0.107407407,-0.336111111,0,0,0,,0,68,68,75,1,GRAIN,LB,old,m,./images/GRAINLB.png,,,,,,,,,,,,,,,,,,,,,
,,,,,,,,,,,,,,,,,199780,19,2022-01-29_13h03.27.659,lexical_decision_task_DD_L3,2021.2.3,Win32,60.22282445,,,,,,,,,,,,1.3327,1,,,,,,,,,,,,,,z,1,1.3327,,,,,,,,0.107407407,-0.336111111,0,0,0,,0,69,69,91,1,SHENS,HB,old,z,./images/SHENSHB.png,,,,,,,,,,,,,,,,,,,,,
,,,,,,,,,,,,,,,,,199780,19,2022-01-29_13h03.27.659,lexical_decision_task_DD_L3,2021.2.3,Win32,60.22282445,,,,,,,,,,,,0.6113,1,,,,,,,,,,,,,,m,1,0.6113,,,,,,,,0.107407407,-0.336111111,0,0,0,,0,70,70,25,1,WRIST,C,old,m,./images/WRIST.png,,,,,,,,,,,,,,,,,,,,,
,,,,,,,,,,,,,,,,,199780,19,2022-01-29_13h03.27.659,lexical_decision_task_DD_L3,2021.2.3,Win32,60.22282445,,,,,,,,,,,,0.6894,1,,,,,,,,,,,,,,m,1,0.6894,,,,,,,,0.107407407,-0.336111111,0,0,0,,0,71,71,13,1,MOTOR,C,old,m,./images/MOTOR.png,,,,,,,,,,,,,,,,,,,,,
,,,,,,,,,,,,,,,,,199780,19,2022-01-29_13h03.27.659,lexical_decision_task_DD_L3,2021.2.3,Win32,60.22282445,,,,,,,,,,,,0.5509,1,,,,,,,,,,,,,,m,1,0.5509,,,,,,,,0.107407407,-0.336111111,0,0,0,,0,72,72,60,1,TWINS,LB,old,m,./images/TWINSLB.png,,,,,,,,,,,,,,,,,,,,,
,,,,,,,,,,,,,,,,,199780,19,2022-01-29_13h03.27.659,lexical_decision_task_DD_L3,2021.2.3,Win32,60.22282445,,,,,,,,,,,,1.2665,1,,,,,,,,,,,,,,z,1,1.2665,,,,,,,,0.107407407,-0.336111111,0,0,0,,0,73,73,125,1,MOOKY,LB,old,z,./images/MOOKYLB.png,,,,,,,,,,,,,,,,,,,,,
,,,,,,,,,,,,,,,,,199780,19,2022-01-29_13h03.27.659,lexical_decision_task_DD_L3,2021.2.3,Win32,60.22282445,,,,,,,,,,,,0.6407,1,,,,,,,,,,,,,,z,1,0.6407,,,,,,,,0.107407407,-0.336111111,0,0,0,,0,74,74,128,1,GRIFT,LB,old,z,./images/GRIFTLB.png,,,,,,,,,,,,,,,,,,,,,
,,,,,,,,,,,,,,,,,199780,19,2022-01-29_13h03.27.659,lexical_decision_task_DD_L3,2021.2.3,Win32,60.22282445,,,,,,,,,,,,2.8084,0,,,,,,,,,,,,,,z,0,2.8084,,,,,,,,0.107407407,-0.336111111,0,0,0,,0,75,75,17,1,SKIING,HB,old,m,./images/SKIINGHB.png,,,,,,,,,,,,,,,,,,,,,
,,,,,,,,,,,,,,,,,199780,19,2022-01-29_13h03.27.659,lexical_decision_task_DD_L3,2021.2.3,Win32,60.22282445,,,,,,,,,,,,0.7333,1,,,,,,,,,,,,,,z,1,0.7333,,,,,,,,0.107407407,-0.336111111,0,0,0,,0,76,76,150,1,NOOLS,C,old,z,./images/NOOLS.png,,,,,,,,,,,,,,,,,,,,,
,,,,,,,,,,,,,,,,,199780,19,2022-01-29_13h03.27.659,lexical_decision_task_DD_L3,2021.2.3,Win32,60.22282445,,,,,,,,,,,,0.7109,1,,,,,,,,,,,,,,z,1,0.7109,,,,,,,,0.107407407,-0.336111111,0,0,0,,0,77,77,102,1,DULLE,C,old,z,./images/DULLE.png,,,,,,,,,,,,,,,,,,,,,
,,,,,,,,,,,,,,,,,199780,19,2022-01-29_13h03.27.659,lexical_decision_task_DD_L3,2021.2.3,Win32,60.22282445,,,,,,,,,,,,1.6493,1,,,,,,,,,,,,,,z,1,1.6493,,,,,,,,0.107407407,-0.336111111,0,0,0,,0,78,78,88,1,GLUSH,HB,old,z,./images/GLUSHHB.png,,,,,,,,,,,,,,,,,,,,,
,,,,,,,,,,,,,,,,,199780,19,2022-01-29_13h03.27.659,lexical_decision_task_DD_L3,2021.2.3,Win32,60.22282445,,,,,,,,,,,,0.6383,1,,,,,,,,,,,,,,m,1,0.6383,,,,,,,,0.107407407,-0.336111111,0,0,0,,0,79,79,59,1,BURIAL,HB,old,m,./images/BURIALHB.png,,,,,,,,,,,,,,,,,,,,,
,,,,,,,,,,,,,,,,,199780,19,2022-01-29_13h03.27.659,lexical_decision_task_DD_L3,2021.2.3,Win32,60.22282445,,,,,,,,,,,,0.6671,1,,,,,,,,,,,,,,m,1,0.6671,,,,,,,,0.107407407,-0.336111111,0,0,0,,0,80,80,6,1,SQUARE,LB,old,m,./images/SQUARELB.png,,,,,,,,,,,,,,,,,,,,,
,,,,,,,,,,,,,,,,,199780,19,2022-01-29_13h03.27.659,lexical_decision_task_DD_L3,2021.2.3,Win32,60.22282445,,,,,,,,,,,,1.5168,1,,,,,,,,,,,,,,m,1,1.5168,,,,,,,,0.107407407,-0.336111111,0,0,0,,0,81,81,56,1,PACKET,HB,old,m,./images/PACKETHB.png,,,,,,,,,,,,,,,,,,,,,
,,,,,,,,,,,,,,,,,199780,19,2022-01-29_13h03.27.659,lexical_decision_task_DD_L3,2021.2.3,Win32,60.22282445,,,,,,,,,,,,0.8273,1,,,,,,,,,,,,,,z,1,0.8273,,,,,,,,0.107407407,-0.336111111,0,0,0,,0,82,82,85,1,CHULK,HB,old,z,./images/CHULKHB.png,,,,,,,,,,,,,,,,,,,,,
,,,,,,,,,,,,,,,,,199780,19,2022-01-29_13h03.27.659,lexical_decision_task_DD_L3,2021.2.3,Win32,60.22282445,,,,,,,,,,,,0.7202,1,,,,,,,,,,,,,,m,1,0.7202,,,,,,,,0.107407407,-0.336111111,0,0,0,space,0,83,83,21,1,KIDNEY,LB,old,m,./images/KIDNEYLB.png,7.966,,,,,,,,,,,,,,,,,,,,
,,,,,,,,,,,,,,,,,199780,19,2022-01-29_13h03.27.659,lexical_decision_task_DD_L3,2021.2.3,Win32,60.22282445,,,,,,,,,,,,0.5687,1,,,,,,,,,,,,,,m,1,0.5687,,,,,,,,0.107407407,-0.336111111,0,0,0,,0,84,84,78,1,LITTER,LB,old,m,./images/LITTERLB.png,,,,,,,,,,,,,,,,,,,,,
,,,,,,,,,,,,,,,,,199780,19,2022-01-29_13h03.27.659,lexical_decision_task_DD_L3,2021.2.3,Win32,60.22282445,,,,,,,,,,,,1.1174,1,,,,,,,,,,,,,,z,1,1.1174,,,,,,,,0.107407407,-0.336111111,0,0,0,,0,85,85,106,1,CLUMS,HB,old,z,./images/CLUMSHB.png,,,,,,,,,,,,,,,,,,,,,
,,,,,,,,,,,,,,,,,199780,19,2022-01-29_13h03.27.659,lexical_decision_task_DD_L3,2021.2.3,Win32,60.22282445,,,,,,,,,,,,1.2176,1,,,,,,,,,,,,,,z,1,1.2176,,,,,,,,0.107407407,-0.336111111,0,0,0,,0,86,86,133,1,POWDY,HB,old,z,./images/POWDYHB.png,,,,,,,,,,,,,,,,,,,,,
,,,,,,,,,,,,,,,,,199780,19,2022-01-29_13h03.27.659,lexical_decision_task_DD_L3,2021.2.3,Win32,60.22282445,,,,,,,,,,,,0.7649,1,,,,,,,,,,,,,,z,1,0.7649,,,,,,,,0.107407407,-0.336111111,0,0,0,,0,87,87,110,1,CRUNK,LB,old,z,./images/CRUNKLB.png,,,,,,,,,,,,,,,,,,,,,
,,,,,,,,,,,,,,,,,199780,19,2022-01-29_13h03.27.659,lexical_decision_task_DD_L3,2021.2.3,Win32,60.22282445,,,,,,,,,,,,0.727,1,,,,,,,,,,,,,,z,1,0.727,,,,,,,,0.107407407,-0.336111111,0,0,0,,0,88,88,84,1,HAXES,C,old,z,./images/HAXES.png,,,,,,,,,,,,,,,,,,,,,
,,,,,,,,,,,,,,,,,199780,19,2022-01-29_13h03.27.659,lexical_decision_task_DD_L3,2021.2.3,Win32,60.22282445,,,,,,,,,,,,1.0373,1,,,,,,,,,,,,,,m,1,1.0373,,,,,,,,0.107407407,-0.336111111,0,0,0,,0,89,89,62,1,PURSE,HB,old,m,./images/PURSEHB.png,,,,,,,,,,,,,,,,,,,,,
,,,,,,,,,,,,,,,,,199780,19,2022-01-29_13h03.27.659,lexical_decision_task_DD_L3,2021.2.3,Win32,60.22282445,,,,,,,,,,,,1.1662,1,,,,,,,,,,,,,,z,1,1.1662,,,,,,,,0.107407407,-0.336111111,0,0,0,,0,90,90,166,1,SHORY,HB,old,z,./images/SHORYHB.png,,,,,,,,,,,,,,,,,,,,,
,,,,,,,,,,,,,,,,,199780,19,2022-01-29_13h03.27.659,lexical_decision_task_DD_L3,2021.2.3,Win32,60.22282445,,,,,,,,,,,,0.6998,1,,,,,,,,,,,,,,z,1,0.6998,,,,,,,,0.107407407,-0.336111111,0,0,0,,0,91,91,147,1,ZOLES,C,old,z,./images/ZOLES.png,,,,,,,,,,,,,,,,,,,,,
,,,,,,,,,,,,,,,,,199780,19,2022-01-29_13h03.27.659,lexical_decision_task_DD_L3,2021.2.3,Win32,60.22282445,,,,,,,,,,,,0.5836,1,,,,,,,,,,,,,,m,1,0.5836,,,,,,,,0.107407407,-0.336111111,0,0,0,,0,92,92,40,1,SWING,C,old,m,./images/SWING.png,,,,,,,,,,,,,,,,,,,,,
,,,,,,,,,,,,,,,,,199780,19,2022-01-29_13h03.27.659,lexical_decision_task_DD_L3,2021.2.3,Win32,60.22282445,,,,,,,,,,,,0.6167,1,,,,,,,,,,,,,,z,1,0.6167,,,,,,,,0.107407407,-0.336111111,0,0,0,,0,93,93,153,1,CLUPS,C,old,z,./images/CLUPS.png,,,,,,,,,,,,,,,,,,,,,
,,,,,,,,,,,,,,,,,199780,19,2022-01-29_13h03.27.659,lexical_decision_task_DD_L3,2021.2.3,Win32,60.22282445,,,,,,,,,,,,1.5123,1,,,,,,,,,,,,,,m,1,1.5123,,,,,,,,0.107407407,-0.336111111,0,0,0,,0,94,94,8,1,TULIP,HB,old,m,./images/TULIPHB.png,,,,,,,,,,,,,,,,,,,,,
,,,,,,,,,,,,,,,,,199780,19,2022-01-29_13h03.27.659,lexical_decision_task_DD_L3,2021.2.3,Win32,60.22282445,,,,,,,,,,,,0.6204,1,,,,,,,,,,,,,,z,1,0.6204,,,,,,,,0.107407407,-0.336111111,0,0,0,,0,95,95,137,1,JOOST,LB,old,z,./images/JOOSTLB.png,,,,,,,,,,,,,,,,,,,,,
,,,,,,,,,,,,,,,,,199780,19,2022-01-29_13h03.27.659,lexical_decision_task_DD_L3,2021.2.3,Win32,60.22282445,,,,,,,,,,,,0.4848,1,,,,,,,,,,,,,,m,1,0.4848,,,,,,,,0.107407407,-0.336111111,0,0,0,,0,96,96,3,1,FINGER,LB,old,m,./images/FINGERLB.png,,,,,,,,,,,,,,,,,,,,,
,,,,,,,,,,,,,,,,,199780,19,2022-01-29_13h03.27.659,lexical_decision_task_DD_L3,2021.2.3,Win32,60.22282445,,,,,,,,,,,,0.5201,1,,,,,,,,,,,,,,m,1,0.5201,,,,,,,,0.107407407,-0.336111111,0,0,0,,0,97,97,7,1,PAINT,C,old,m,./images/PAINT.png,,,,,,,,,,,,,,,,,,,,,
,,,,,,,,,,,,,,,,,199780,19,2022-01-29_13h03.27.659,lexical_decision_task_DD_L3,2021.2.3,Win32,60.22282445,,,,,,,,,,,,1.9342,1,,,,,,,,,,,,,,z,1,1.9342,,,,,,,,0.107407407,-0.336111111,0,0,0,,0,98,98,163,1,GAMBA,HB,old,z,./images/GAMBAHB.png,,,,,,,,,,,,,,,,,,,,,
,,,,,,,,,,,,,,,,,199780,19,2022-01-29_13h03.27.659,lexical_decision_task_DD_L3,2021.2.3,Win32,60.22282445,,,,,,,,,,,,1.1021,1,,,,,,,,,,,,,,m,1,1.1021,,,,,,,,0.107407407,-0.336111111,0,0,0,,0,99,99,44,1,LIZARD,HB,old,m,./images/LIZARDHB.png,,,,,,,,,,,,,,,,,,,,,
,,,,,,,,,,,,,,,,,199780,19,2022-01-29_13h03.27.659,lexical_decision_task_DD_L3,2021.2.3,Win32,60.22282445,,,,,,,,,,,,0.6165,1,,,,,,,,,,,,,,m,1,0.6165,,,,,,,,0.107407407,-0.336111111,0,0,0,,0,100,100,38,1,LADDER,HB,old,m,./images/LADDERHB.png,,,,,,,,,,,,,,,,,,,,,
,,,,,,,,,,,,,,,,,199780,19,2022-01-29_13h03.27.659,lexical_decision_task_DD_L3,2021.2.3,Win32,60.22282445,,,,,,,,,,,,1.3881,1,,,,,,,,,,,,,,z,1,1.3881,,,,,,,,0.107407407,-0.336111111,0,0,0,,0,101,101,112,1,MYING,HB,old,z,./images/MYINGHB.png,,,,,,,,,,,,,,,,,,,,,
,,,,,,,,,,,,,,,,,199780,19,2022-01-29_13h03.27.659,lexical_decision_task_DD_L3,2021.2.3,Win32,60.22282445,,,,,,,,,,,,0.5837,1,,,,,,,,,,,,,,m,1,0.5837,,,,,,,,0.107407407,-0.336111111,0,0,0,,0,102,102,51,1,ONION,LB,old,m,./images/ONIONLB.png,,,,,,,,,,,,,,,,,,,,,
,,,,,,,,,,,,,,,,,199780,19,2022-01-29_13h03.27.659,lexical_decision_task_DD_L3,2021.2.3,Win32,60.22282445,,,,,,,,,,,,0.5167,1,,,,,,,,,,,,,,m,1,0.5167,,,,,,,,0.107407407,-0.336111111,0,0,0,,0,103,103,0,1,TOMATO,LB,old,m,./images/TOMATOLB.png,,,,,,,,,,,,,,,,,,,,,
,,,,,,,,,,,,,,,,,199780,19,2022-01-29_13h03.27.659,lexical_decision_task_DD_L3,2021.2.3,Win32,60.22282445,,,,,,,,,,,,0.5693,1,,,,,,,,,,,,,,m,1,0.5693,,,,,,,,0.107407407,-0.336111111,0,0,0,,0,104,104,48,1,SPORT,LB,old,m,./images/SPORTLB.png,,,,,,,,,,,,,,,,,,,,,
,,,,,,,,,,,,,,,,,199780,19,2022-01-29_13h03.27.659,lexical_decision_task_DD_L3,2021.2.3,Win32,60.22282445,,,,,,,,,,,,1.4995,1,,,,,,,,,,,,,,z,1,1.4995,,,,,,,,0.107407407,-0.336111111,0,0,0,,0,105,105,100,1,DRIBS,HB,old,z,./images/DRIBSHB.png,,,,,,,,,,,,,,,,,,,,,
,,,,,,,,,,,,,,,,,199780,19,2022-01-29_13h03.27.659,lexical_decision_task_DD_L3,2021.2.3,Win32,60.22282445,,,,,,,,,,,,0.6427,1,,,,,,,,,,,,,,m,1,0.6427,,,,,,,,0.107407407,-0.336111111,0,0,0,,0,106,106,81,1,POODLE,LB,old,m,./images/POODLELB.png,,,,,,,,,,,,,,,,,,,,,
,,,,,,,,,,,,,,,,,199780,19,2022-01-29_13h03.27.659,lexical_decision_task_DD_L3,2021.2.3,Win32,60.22282445,,,,,,,,,,,,0.6055,1,,,,,,,,,,,,,,m,1,0.6055,,,,,,,,0.107407407,-0.336111111,0,0,0,,0,107,107,10,1,BELLY,C,old,m,./images/BELLY.png,,,,,,,,,,,,,,,,,,,,,
,,,,,,,,,,,,,,,,,199780,19,2022-01-29_13h03.27.659,lexical_decision_task_DD_L3,2021.2.3,Win32,60.22282445,,,,,,,,,,,,0.6572,1,,,,,,,,,,,,,,z,1,0.6572,,,,,,,,0.107407407,-0.336111111,0,0,0,,0,108,108,90,1,NEAST,C,old,z,./images/NEAST.png,,,,,,,,,,,,,,,,,,,,,
,,,,,,,,,,,,,,,,,199780,19,2022-01-29_13h03.27.659,lexical_decision_task_DD_L3,2021.2.3,Win32,60.22282445,,,,,,,,,,,,0.5008,1,,,,,,,,,,,,,,m,1,0.5008,,,,,,,,0.107407407,-0.336111111,0,0,0,,0,109,109,37,1,BIRTH,C,old,m,./images/BIRTH.png,,,,,,,,,,,,,,,,,,,,,
,,,,,,,,,,,,,,,,,199780,19,2022-01-29_13h03.27.659,lexical_decision_task_DD_L3,2021.2.3,Win32,60.22282445,,,,,,,,,,,,0.5361,1,,,,,,,,,,,,,,m,1,0.5361,,,,,,,,0.107407407,-0.336111111,0,0,0,,0,110,110,69,1,COOKER,LB,old,m,./images/COOKERLB.png,,,,,,,,,,,,,,,,,,,,,
,,,,,,,,,,,,,,,,,199780,19,2022-01-29_13h03.27.659,lexical_decision_task_DD_L3,2021.2.3,Win32,60.22282445,,,,,,,,,,,,1.4728,1,,,,,,,,,,,,,,z,1,1.4728,,,,,,,,0.107407407,-0.336111111,0,0,0,,0,111,111,121,1,CEERS,HB,old,z,./images/CEERSHB.png,,,,,,,,,,,,,,,,,,,,,
,,,,,,,,,,,,,,,,,199780,19,2022-01-29_13h03.27.659,lexical_decision_task_DD_L3,2021.2.3,Win32,60.22282445,,,,,,,,,,,,1.9534,1,,,,,,,,,,,,,,z,1,1.9534,,,,,,,,0.107407407,-0.336111111,0,0,0,,0,112,112,151,1,TINKY,HB,old,z,./images/TINKYHB.png,,,,,,,,,,,,,,,,,,,,,
,,,,,,,,,,,,,,,,,199780,19,2022-01-29_13h03.27.659,lexical_decision_task_DD_L3,2021.2.3,Win32,60.22282445,,,,,,,,,,,,0.7664,1,,,,,,,,,,,,,,m,1,0.7664,,,,,,,,0.107407407,-0.336111111,0,0,0,,0,113,113,27,1,ATTIC,LB,old,m,./images/ATTICLB.png,,,,,,,,,,,,,,,,,,,,,
,,,,,,,,,,,,,,,,,199780,19,2022-01-29_13h03.27.659,lexical_decision_task_DD_L3,2021.2.3,Win32,60.22282445,,,,,,,,,,,,1.4006,1,,,,,,,,,,,,,,z,1,1.4006,,,,,,,,0.107407407,-0.336111111,0,0,0,,0,114,114,148,1,JOMS,HB,old,z,./images/JOMSHB.png,,,,,,,,,,,,,,,,,,,,,
,,,,,,,,,,,,,,,,,199780,19,2022-01-29_13h03.27.659,lexical_decision_task_DD_L3,2021.2.3,Win32,60.22282445,,,,,,,,,,,,0.7883,1,,,,,,,,,,,,,,z,1,0.7883,,,,,,,,0.107407407,-0.336111111,0,0,0,,0,115,115,116,1,BALGY,LB,old,z,./images/BALGYLB.png,,,,,,,,,,,,,,,,,,,,,
,,,,,,,,,,,,,,,,,199780,19,2022-01-29_13h03.27.659,lexical_decision_task_DD_L3,2021.2.3,Win32,60.22282445,,,,,,,,,,,,0.7589,1,,,,,,,,,,,,,,z,1,0.7589,,,,,,,,0.107407407,-0.336111111,0,0,0,,0,116,116,165,1,TROWN,C,old,z,./images/TROWN.png,,,,,,,,,,,,,,,,,,,,,
,,,,,,,,,,,,,,,,,199780,19,2022-01-29_13h03.27.659,lexical_decision_task_DD_L3,2021.2.3,Win32,60.22282445,,,,,,,,,,,,0.6234,1,,,,,,,,,,,,,,m,1,0.6234,,,,,,,,0.107407407,-0.336111111,0,0,0,,0,117,117,34,1,CANYON,C,old,m,./images/CANYON.png,,,,,,,,,,,,,,,,,,,,,
,,,,,,,,,,,,,,,,,199780,19,2022-01-29_13h03.27.659,lexical_decision_task_DD_L3,2021.2.3,Win32,60.22282445,,,,,,,,,,,,0.8157,1,,,,,,,,,,,,,,z,1,0.8157,,,,,,,,0.107407407,-0.336111111,0,0,0,,0,118,118,99,1,BACKY,C,old,z,./images/BACKY.png,,,,,,,,,,,,,,,,,,,,,
,,,,,,,,,,,,,,,,,199780,19,2022-01-29_13h03.27.659,lexical_decision_task_DD_L3,2021.2.3,Win32,60.22282445,,,,,,,,,,,,1.3156,1,,,,,,,,,,,,,,z,1,1.3156,,,,,,,,0.107407407,-0.336111111,0,0,0,,0,119,119,139,1,BLEAR,HB,old,z,./images/BLEARHB.png,,,,,,,,,,,,,,,,,,,,,
,,,,,,,,,,,,,,,,,199780,19,2022-01-29_13h03.27.659,lexical_decision_task_DD_L3,2021.2.3,Win32,60.22282445,,,,,,,,,,,,0.8693,1,,,,,,,,,,,,,,m,1,0.8693,,,,,,,,0.107407407,-0.336111111,0,0,0,,0,120,120,73,1,SNACK,C,old,m,./images/SNACK.png,,,,,,,,,,,,,,,,,,,,,
,,,,,,,,,,,,,,,,,199780,19,2022-01-29_13h03.27.659,lexical_decision_task_DD_L3,2021.2.3,Win32,60.22282445,,,,,,,,,,,,1.3329,1,,,,,,,,,,,,,,m,1,1.3329,,,,,,,,0.107407407,-0.336111111,0,0,0,,0,121,121,23,1,WALRUS,HB,old,m,./images/WALRUSHB.png,,,,,,,,,,,,,,,,,,,,,
,,,,,,,,,,,,,,,,,199780,19,2022-01-29_13h03.27.659,lexical_decision_task_DD_L3,2021.2.3,Win32,60.22282445,,,,,,,,,,,,0.9124,1,,,,,,,,,,,,,,z,1,0.9124,,,,,,,,0.107407407,-0.336111111,0,0,0,,0,122,122,111,1,HOSSE,C,old,z,./images/HOSSE.png,,,,,,,,,,,,,,,,,,,,,
,,,,,,,,,,,,,,,,,199780,19,2022-01-29_13h03.27.659,lexical_decision_task_DD_L3,2021.2.3,Win32,60.22282445,,,,,,,,,,,,0.9202,1,,,,,,,,,,,,,,z,1,0.9202,,,,,,,,0.107407407,-0.336111111,0,0,0,,0,123,123,117,1,STEEG,C,old,z,./images/STEEG.png,,,,,,,,,,,,,,,,,,,,,
,,,,,,,,,,,,,,,,,199780,19,2022-01-29_13h03.27.659,lexical_decision_task_DD_L3,2021.2.3,Win32,60.22282445,,,,,,,,,,,,0.6632,1,,,,,,,,,,,,,,m,1,0.6632,,,,,,,,0.107407407,-0.336111111,0,0,0,,0,124,124,18,1,JAGUAR,LB,old,m,./images/JAGUARLB.png,,,,,,,,,,,,,,,,,,,,,
,,,,,,,,,,,,,,,,,199780,19,2022-01-29_13h03.27.659,lexical_decision_task_DD_L3,2021.2.3,Win32,60.22282445,,,,,,,,,,,,0.6163,1,,,,,,,,,,,,,,m,1,0.6163,,,,,,,,0.107407407,-0.336111111,0,0,0,space,0,125,125,42,1,FOLDER,LB,old,m,./images/FOLDERLB.png,4.4859,,,,,,,,,,,,,,,,,,,,
,,,,,,,,,,,,,,,,,199780,19,2022-01-29_13h03.27.659,lexical_decision_task_DD_L3,2021.2.3,Win32,60.22282445,,,,,,,,,,,,1.4164,1,,,,,,,,,,,,,,z,1,1.4164,,,,,,,,0.107407407,-0.336111111,0,0,0,,0,126,126,127,1,NINDY,HB,old,z,./images/NINDYHB.png,,,,,,,,,,,,,,,,,,,,,
,,,,,,,,,,,,,,,,,199780,19,2022-01-29_13h03.27.659,lexical_decision_task_DD_L3,2021.2.3,Win32,60.22282445,,,,,,,,,,,,0.5464,1,,,,,,,,,,,,,,m,1,0.5464,,,,,,,,0.107407407,-0.336111111,0,0,0,,0,127,127,4,1,MUSCLE,C,old,m,./images/MUSCLE.png,,,,,,,,,,,,,,,,,,,,,
,,,,,,,,,,,,,,,,,199780,19,2022-01-29_13h03.27.659,lexical_decision_task_DD_L3,2021.2.3,Win32,60.22282445,,,,,,,,,,,,0.5506,1,,,,,,,,,,,,,,z,1,0.5506,,,,,,,,0.107407407,-0.336111111,0,0,0,,0,128,128,101,1,GLEET,LB,old,z,./images/GLEETLB.png,,,,,,,,,,,,,,,,,,,,,
,,,,,,,,,,,,,,,,,199780,19,2022-01-29_13h03.27.659,lexical_decision_task_DD_L3,2021.2.3,Win32,60.22282445,,,,,,,,,,,,0.5058,1,,,,,,,,,,,,,,z,1,0.5058,,,,,,,,0.107407407,-0.336111111,0,0,0,,0,129,129,135,1,JOODY,C,old,z,./images/JOODY.png,,,,,,,,,,,,,,,,,,,,,
,,,,,,,,,,,,,,,,,199780,19,2022-01-29_13h03.27.659,lexical_decision_task_DD_L3,2021.2.3,Win32,60.22282445,,,,,,,,,,,,0.5094,1,,,,,,,,,,,,,,z,1,0.5094,,,,,,,,0.107407407,-0.336111111,0,0,0,,0,130,130,155,1,CANGY,LB,old,z,./images/CANGYLB.png,,,,,,,,,,,,,,,,,,,,,
,,,,,,,,,,,,,,,,,199780,19,2022-01-29_13h03.27.659,lexical_decision_task_DD_L3,2021.2.3,Win32,60.22282445,,,,,,,,,,,,0.5413,1,,,,,,,,,,,,,,z,1,0.5413,,,,,,,,0.107407407,-0.336111111,0,0,0,,0,131,131,143,1,MONGS,LB,old,z,./images/MONGSLB.png,,,,,,,,,,,,,,,,,,,,,
,,,,,,,,,,,,,,,,,199780,19,2022-01-29_13h03.27.659,lexical_decision_task_DD_L3,2021.2.3,Win32,60.22282445,,,,,,,,,,,,1.1411,1,,,,,,,,,,,,,,m,1,1.1411,,,,,,,,0.107407407,-0.336111111,0,0,0,,0,132,132,83,1,JUNGLE,HB,old,m,./images/JUNGLEHB.png,,,,,,,,,,,,,,,,,,,,,
,,,,,,,,,,,,,,,,,199780,19,2022-01-29_13h03.27.659,lexical_decision_task_DD_L3,2021.2.3,Win32,60.22282445,,,,,,,,,,,,0.529,1,,,,,,,,,,,,,,m,1,0.529,,,,,,,,0.107407407,-0.336111111,0,0,0,,0,133,133,63,1,MIRROR,LB,old,m,./images/MIRRORLB.png,,,,,,,,,,,,,,,,,,,,,
,,,,,,,,,,,,,,,,,199780,19,2022-01-29_13h03.27.659,lexical_decision_task_DD_L3,2021.2.3,Win32,60.22282445,,,,,,,,,,,,1.2446,1,,,,,,,,,,,,,,z,1,1.2446,,,,,,,,0.107407407,-0.336111111,0,0,0,,0,134,134,157,1,INLER,HB,old,z,./images/INLERHB.png,,,,,,,,,,,,,,,,,,,,,
,,,,,,,,,,,,,,,,,199780,19,2022-01-29_13h03.27.659,lexical_decision_task_DD_L3,2021.2.3,Win32,60.22282445,,,,,,,,,,,,0.5025,1,,,,,,,,,,,,,,m,1,0.5025,,,,,,,,0.107407407,-0.336111111,0,0,0,,0,135,135,66,1,SWEAT,LB,old,m,./images/SWEATLB.png,,,,,,,,,,,,,,,,,,,,,
,,,,,,,,,,,,,,,,,199780,19,2022-01-29_13h03.27.659,lexical_decision_task_DD_L3,2021.2.3,Win32,60.22282445,,,,,,,,,,,,0.4928,1,,,,,,,,,,,,,,z,1,0.4928,,,,,,,,0.107407407,-0.336111111,0,0,0,,0,136,136,156,1,HIXES,C,old,z,./images/HIXES.png,,,,,,,,,,,,,,,,,,,,,
,,,,,,,,,,,,,,,,,199780,19,2022-01-29_13h03.27.659,lexical_decision_task_DD_L3,2021.2.3,Win32,60.22282445,,,,,,,,,,,,0.6598,1,,,,,,,,,,,,,,m,1,0.6598,,,,,,,,0.107407407,-0.336111111,0,0,0,,0,137,137,35,1,PEACH,HB,old,m,./images/PEACHHB.png,,,,,,,,,,,,,,,,,,,,,
,,,,,,,,,,,,,,,,,199780,19,2022-01-29_13h03.27.659,lexical_decision_task_DD_L3,2021.2.3,Win32,60.22282445,,,,,,,,,,,,0.5785,1,,,,,,,,,,,,,,m,1,0.5785,,,,,,,,0.107407407,-0.336111111,0,0,0,,0,138,138,46,1,PEARL,C,old,m,./images/PEARL.png,,,,,,,,,,,,,,,,,,,,,
,,,,,,,,,,,,,,,,,199780,19,2022-01-29_13h03.27.659,lexical_decision_task_DD_L3,2021.2.3,Win32,60.22282445,,,,,,,,,,,,0.5609,1,,,,,,,,,,,,,,z,1,0.5609,,,,,,,,0.107407407,-0.336111111,0,0,0,,0,139,139,138,1,PLICE,C,old,z,./images/PLICE.png,,,,,,,,,,,,,,,,,,,,,
,,,,,,,,,,,,,,,,,199780,19,2022-01-29_13h03.27.659,lexical_decision_task_DD_L3,2021.2.3,Win32,60.22282445,,,,,,,,,,,,1.8608,1,,,,,,,,,,,,,,z,1,1.8608,,,,,,,,0.107407407,-0.336111111,0,0,0,,0,140,140,118,1,BAVEL,HB,old,z,./images/BAVELHB.png,,,,,,,,,,,,,,,,,,,,,
,,,,,,,,,,,,,,,,,199780,19,2022-01-29_13h03.27.659,lexical_decision_task_DD_L3,2021.2.3,Win32,60.22282445,,,,,,,,,,,,0.7098,1,,,,,,,,,,,,,,z,1,0.7098,,,,,,,,0.107407407,-0.336111111,0,0,0,,0,141,141,164,1,SGREW,LB,old,z,./images/SGREWLB.png,,,,,,,,,,,,,,,,,,,,,
,,,,,,,,,,,,,,,,,199780,19,2022-01-29_13h03.27.659,lexical_decision_task_DD_L3,2021.2.3,Win32,60.22282445,,,,,,,,,,,,0.7121,1,,,,,,,,,,,,,,m,1,0.7121,,,,,,,,0.107407407,-0.336111111,0,0,0,,0,142,142,45,1,KITTEN,LB,old,m,./images/KITTENLB.png,,,,,,,,,,,,,,,,,,,,,
,,,,,,,,,,,,,,,,,199780,19,2022-01-29_13h03.27.659,lexical_decision_task_DD_L3,2021.2.3,Win32,60.22282445,,,,,,,,,,,,0.5709,1,,,,,,,,,,,,,,m,1,0.5709,,,,,,,,0.107407407,-0.336111111,0,0,0,,0,143,143,12,1,SHORE,LB,old,m,./images/SHORELB.png,,,,,,,,,,,,,,,,,,,,,
,,,,,,,,,,,,,,,,,199780,19,2022-01-29_13h03.27.659,lexical_decision_task_DD_L3,2021.2.3,Win32,60.22282445,,,,,,,,,,,,0.6416,1,,,,,,,,,,,,,,z,1,0.6416,,,,,,,,0.107407407,-0.336111111,0,0,0,,0,144,144,107,1,FASKS,LB,old,z,./images/FASKSLB.png,,,,,,,,,,,,,,,,,,,,,
,,,,,,,,,,,,,,,,,199780,19,2022-01-29_13h03.27.659,lexical_decision_task_DD_L3,2021.2.3,Win32,60.22282445,,,,,,,,,,,,1.6034,1,,,,,,,,,,,,,,z,1,1.6034,,,,,,,,0.107407407,-0.336111111,0,0,0,,0,145,145,109,1,BURGE,HB,old,z,./images/BURGEHB.png,,,,,,,,,,,,,,,,,,,,,
,,,,,,,,,,,,,,,,,199780,19,2022-01-29_13h03.27.659,lexical_decision_task_DD_L3,2021.2.3,Win32,60.22282445,,,,,,,,,,,,0.5777,1,,,,,,,,,,,,,,m,1,0.5777,,,,,,,,0.107407407,-0.336111111,0,0,0,,0,146,146,61,1,CANDLE,C,old,m,./images/CANDLE.png,,,,,,,,,,,,,,,,,,,,,
,,,,,,,,,,,,,,,,,199780,19,2022-01-29_13h03.27.659,lexical_decision_task_DD_L3,2021.2.3,Win32,60.22282445,,,,,,,,,,,,0.5663,1,,,,,,,,,,,,,,z,1,0.5663,,,,,,,,0.107407407,-0.336111111,0,0,0,,0,147,147,152,1,FRAIN,LB,old,z,./images/FRAINLB.png,,,,,,,,,,,,,,,,,,,,,
,,,,,,,,,,,,,,,,,199780,19,2022-01-29_13h03.27.659,lexical_decision_task_DD_L3,2021.2.3,Win32,60.22282445,,,,,,,,,,,,0.5444,1,,,,,,,,,,,,,,z,1,0.5444,,,,,,,,0.107407407,-0.336111111,0,0,0,,0,148,148,86,1,AIFED,LB,old,z,./images/AIFEDLB.png,,,,,,,,,,,,,,,,,,,,,
,,,,,,,,,,,,,,,,,199780,19,2022-01-29_13h03.27.659,lexical_decision_task_DD_L3,2021.2.3,Win32,60.22282445,,,,,,,,,,,,1.3336,1,,,,,,,,,,,,,,m,1,1.3336,,,,,,,,0.107407407,-0.336111111,0,0,0,,0,149,149,68,1,TORCH,HB,old,m,./images/TORCHHB.png,,,,,,,,,,,,,,,,,,,,,
,,,,,,,,,,,,,,,,,199780,19,2022-01-29_13h03.27.659,lexical_decision_task_DD_L3,2021.2.3,Win32,60.22282445,,,,,,,,,,,,0.8942,1,,,,,,,,,,,,,,m,1,0.8942,,,,,,,,0.107407407,-0.336111111,0,0,0,,0,150,150,9,1,RHINO,LB,old,m,./images/RHINOLB.png,,,,,,,,,,,,,,,,,,,,,
,,,,,,,,,,,,,,,,,199780,19,2022-01-29_13h03.27.659,lexical_decision_task_DD_L3,2021.2.3,Win32,60.22282445,,,,,,,,,,,,0.7943,1,,,,,,,,,,,,,,m,1,0.7943,,,,,,,,0.107407407,-0.336111111,0,0,0,,0,151,151,49,1,DRUMS,C,old,m,./images/DRUMS.png,,,,,,,,,,,,,,,,,,,,,
,,,,,,,,,,,,,,,,,199780,19,2022-01-29_13h03.27.659,lexical_decision_task_DD_L3,2021.2.3,Win32,60.22282445,,,,,,,,,,,,0.6388,1,,,,,,,,,,,,,,m,1,0.6388,,,,,,,,0.107407407,-0.336111111,0,0,0,,0,152,152,58,1,BABOON,C,old,m,./images/BABOON.png,,,,,,,,,,,,,,,,,,,,,
,,,,,,,,,,,,,,,,,199780,19,2022-01-29_13h03.27.659,lexical_decision_task_DD_L3,2021.2.3,Win32,60.22282445,,,,,,,,,,,,0.9064,1,,,,,,,,,,,,,,z,1,0.9064,,,,,,,,0.107407407,-0.336111111,0,0,0,,0,153,153,141,1,PLEET,C,old,z,./images/PLEET.png,,,,,,,,,,,,,,,,,,,,,
,,,,,,,,,,,,,,,,,199780,19,2022-01-29_13h03.27.659,lexical_decision_task_DD_L3,2021.2.3,Win32,60.22282445,,,,,,,,,,,,0.5785,1,,,,,,,,,,,,,,m,1,0.5785,,,,,,,,0.107407407,-0.336111111,0,0,0,,0,154,154,19,1,DOUGH,C,old,m,./images/DOUGH.png,,,,,,,,,,,,,,,,,,,,,
,,,,,,,,,,,,,,,,,199780,19,2022-01-29_13h03.27.659,lexical_decision_task_DD_L3,2021.2.3,Win32,60.22282445,,,,,,,,,,,,1.0523,1,,,,,,,,,,,,,,m,1,1.0523,,,,,,,,0.107407407,-0.336111111,0,0,0,,0,155,155,26,1,SMOKER,HB,old,m,./images/SMOKERHB.png,,,,,,,,,,,,,,,,,,,,,
,,,,,,,,,,,,,,,,,199780,19,2022-01-29_13h03.27.659,lexical_decision_task_DD_L3,2021.2.3,Win32,60.22282445,,,,,,,,,,,,0.6034,1,,,,,,,,,,,,,,z,1,0.6034,,,,,,,,0.107407407,-0.336111111,0,0,0,,0,156,156,167,1,ZONET,LB,old,z,./images/ZONETLB.png,,,,,,,,,,,,,,,,,,,,,
,,,,,,,,,,,,,,,,,199780,19,2022-01-29_13h03.27.659,lexical_decision_task_DD_L3,2021.2.3,Win32,60.22282445,,,,,,,,,,,,0.5732,1,,,,,,,,,,,,,,m,1,0.5732,,,,,,,,0.107407407,-0.336111111,0,0,0,,0,157,157,64,1,JELLY,C,old,m,./images/JELLY.png,,,,,,,,,,,,,,,,,,,,,
,,,,,,,,,,,,,,,,,199780,19,2022-01-29_13h03.27.659,lexical_decision_task_DD_L3,2021.2.3,Win32,60.22282445,,,,,,,,,,,,0.5665,1,,,,,,,,,,,,,,m,1,0.5665,,,,,,,,0.107407407,-0.336111111,0,0,0,,0,158,158,67,1,SAILOR,C,old,m,./images/SAILOR.png,,,,,,,,,,,,,,,,,,,,,
,,,,,,,,,,,,,,,,,199780,19,2022-01-29_13h03.27.659,lexical_decision_task_DD_L3,2021.2.3,Win32,60.22282445,,,,,,,,,,,,0.537,1,,,,,,,,,,,,,,m,1,0.537,,,,,,,,0.107407407,-0.336111111,0,0,0,,0,159,159,52,1,BANNER,C,old,m,./images/BANNER.png,,,,,,,,,,,,,,,,,,,,,
,,,,,,,,,,,,,,,,,199780,19,2022-01-29_13h03.27.659,lexical_decision_task_DD_L3,2021.2.3,Win32,60.22282445,,,,,,,,,,,,0.6024,1,,,,,,,,,,,,,,z,1,0.6024,,,,,,,,0.107407407,-0.336111111,0,0,0,,0,160,160,92,1,PAIMS,LB,old,z,./images/PAIMSLB.png,,,,,,,,,,,,,,,,,,,,,
,,,,,,,,,,,,,,,,,199780,19,2022-01-29_13h03.27.659,lexical_decision_task_DD_L3,2021.2.3,Win32,60.22282445,,,,,,,,,,,,0.5393,1,,,,,,,,,,,,,,m,1,0.5393,,,,,,,,0.107407407,-0.336111111,0,0,0,,0,161,161,15,1,GREASE,LB,old,m,./images/GREASELB.png,,,,,,,,,,,,,,,,,,,,,
,,,,,,,,,,,,,,,,,199780,19,2022-01-29_13h03.27.659,lexical_decision_task_DD_L3,2021.2.3,Win32,60.22282445,,,,,,,,,,,,0.6369,1,,,,,,,,,,,,,,z,1,0.6369,,,,,,,,0.107407407,-0.336111111,0,0,0,,0,162,162,104,1,GITTY,LB,old,z,./images/GITTYLB.png,,,,,,,,,,,,,,,,,,,,,
,,,,,,,,,,,,,,,,,199780,19,2022-01-29_13h03.27.659,lexical_decision_task_DD_L3,2021.2.3,Win32,60.22282445,,,,,,,,,,,,1.7081,1,,,,,,,,,,,,,,z,1,1.7081,,,,,,,,0.107407407,-0.336111111,0,0,0,,0,163,163,130,1,CRILL,HB,old,z,./images/CRILLHB.png,,,,,,,,,,,,,,,,,,,,,
,,,,,,,,,,,,,,,,,199780,19,2022-01-29_13h03.27.659,lexical_decision_task_DD_L3,2021.2.3,Win32,60.22282445,,,,,,,,,,,,0.5032,1,,,,,,,,,,,,,,m,1,0.5032,,,,,,,,0.107407407,-0.336111111,0,0,0,,0,164,164,28,1,FALCON,C,old,m,./images/FALCON.png,,,,,,,,,,,,,,,,,,,,,
,,,,,,,,,,,,,,,,,199780,19,2022-01-29_13h03.27.659,lexical_decision_task_DD_L3,2021.2.3,Win32,60.22282445,,,,,,,,,,,,0.5361,1,,,,,,,,,,,,,,m,1,0.5361,,,,,,,,0.107407407,-0.336111111,0,0,0,,0,165,165,1,1,PLANK,C,old,m,./images/PLANK.png,,,,,,,,,,,,,,,,,,,,,
,,,,,,,,,,,,,,,,,199780,19,2022-01-29_13h03.27.659,lexical_decision_task_DD_L3,2021.2.3,Win32,60.22282445,,,,,,,,,,,,0.6289,1,,,,,,,,,,,,,,z,1,0.6289,,,,,,,,0.107407407,-0.336111111,0,0,0,,0,166,166,114,1,RIKES,C,old,z,./images/RIKES.png,,,,,,,,,,,,,,,,,,,,,
,,,,,,,,,,,,,,,,,199780,19,2022-01-29_13h03.27.659,lexical_decision_task_DD_L3,2021.2.3,Win32,60.22282445,,,,,,,,,,,,0.7517,1,,,,,,,,,,,,,,z,1,0.7517,,,,,,,,0.107407407,-0.336111111,0,0,0,,0,167,167,131,1,NACES,LB,old,z,./images/NACESLB.png,,,,,,,,,,,,,,,,,,,,,
space,0.107407407,-0.336111111,0,0,0,,,,,,,1,test,"In the next phase you will be presented with the words from the the first phase. Your job is to decide whether you remember seeing the word or not. If you remember seeing the word press ""old"" or type ""m"". If you do not remember seeing the word press ""new"" or type ""z"". Please press the space bar or click on continue to begin. ",,,199780,19,2022-01-29_13h03.27.659,lexical_decision_task_DD_L3,2021.2.3,Win32,60.22282445,10.2695,,,,,,,,,,,,,,,,,,,,,,,,,,,,,,,,,,,,,,,,,,,,,,,,,,,,,0,0,0,0,1,,,,,,,,,,,,,,,
space,0.107407407,-0.336111111,0,0,0,,,,,,,1,test,"In the next phase you will be presented with the words from the the first phase. Your job is to decide whether you remember seeing the word or not. If you remember seeing the word press ""old"" or type ""m"". If you do not remember seeing the word press ""new"" or type ""z"". Please press the space bar or click on continue to begin. ",,,199780,19,2022-01-29_13h03.27.659,lexical_decision_task_DD_L3,2021.2.3,Win32,60.22282445,1.278,,,,,,,,,,,,,,,,,,,,,,,,,,,,,,,,,,,,,,,,,,,,,,,,,,,,,1,0,1,0,1,,,,,,,,,,,,,,,
space,0.107407407,-0.336111111,0,0,0,,,,,,,1,test,"In the next phase you will be presented with the words from the the first phase. Your job is to decide whether you remember seeing the word or not. If you remember seeing the word press ""old"" or type ""m"". If you do not remember seeing the word press ""new"" or type ""z"". Please press the space bar or click on continue to begin. ",,,199780,19,2022-01-29_13h03.27.659,lexical_decision_task_DD_L3,2021.2.3,Win32,60.22282445,1.6163,,,,,,,,,,,,,,,,,,,,,,,,,,,,,,,,,,,,,,,,,,,,,,,,,,,,,2,0,2,0,1,,,,,,,,,,,,,,,
space,0.076851852,-0.375,0,0,0,,,,,,,1,test,"In the next phase you will be presented with the words from the the first phase. Your job is to decide whether you remember seeing the word or not. If you remember seeing the word press ""old"" or type ""m"". If you do not remember seeing the word press ""new"" or type ""z"". Please press the space bar or click on continue to begin. ",,,199780,19,2022-01-29_13h03.27.659,lexical_decision_task_DD_L3,2021.2.3,Win32,60.22282445,2.3503,,,,,,,,,,,,,,,,,,,,,,,,,,,,,,,,,,,,,,,,,,,,,,,,,,,,,3,0,3,0,1,,,,,,,,,,,,,,,
space,0.076851852,-0.375,0,0,0,,,,,,,1,test,"In the next phase you will be presented with the words from the the first phase. Your job is to decide whether you remember seeing the word or not. If you remember seeing the word press ""old"" or type ""m"". If you do not remember seeing the word press ""new"" or type ""z"". Please press the space bar or click on continue to begin. ",,,199780,19,2022-01-29_13h03.27.659,lexical_decision_task_DD_L3,2021.2.3,Win32,60.22282445,2.6727,,,,,,,,,,,,,,,,,,,,,,,,,,,,,,,,,,,,,,,,,,,,,,,,,,,,,4,0,4,0,1,,,,,,,,,,,,,,,
,,,,,,,,,,,,,,,,,199780,19,2022-01-29_13h03.27.659,lexical_decision_task_DD_L3,2021.2.3,Win32,60.22282445,,,,,,,,,,,,1.6597,1,,,,,,,,,,,,,,,,,,,,,,,,0.076851852,-0.375,0,0,0,,,,,,,ARTIST,C,z,m,./images/ARTIST.png,,,,,,,z,1,1.6597,,,,,,,,0,0,0,145,1
,,,,,,,,,,,,,,,,,199780,19,2022-01-29_13h03.27.659,lexical_decision_task_DD_L3,2021.2.3,Win32,60.22282445,,,,,,,,,,,,0.9023,1,,,,,,,,,,,,,,,,,,,,,,,,0.076851852,-0.375,0,0,0,,,,,,,GREASE,LB,m,m,./images/GREASELB.png,,,,,,,m,1,0.9023,,,,,,,,0,1,1,15,1
,,,,,,,,,,,,,,,,,199780,19,2022-01-29_13h03.27.659,lexical_decision_task_DD_L3,2021.2.3,Win32,60.22282445,,,,,,,,,,,,0.6576,1,,,,,,,,,,,,,,,,,,,,,,,,0.076851852,-0.375,0,0,0,,,,,,,PACKET,HB,m,m,./images/PACKETHB.png,,,,,,,m,1,0.6576,,,,,,,,0,2,2,56,1
,,,,,,,,,,,,,,,,,199780,19,2022-01-29_13h03.27.659,lexical_decision_task_DD_L3,2021.2.3,Win32,60.22282445,,,,,,,,,,,,0.8655,1,,,,,,,,,,,,,,,,,,,,,,,,0.076851852,-0.375,0,0,0,,,,,,,LLAMA,HB,z,m,./images/LLAMAHB.png,,,,,,,z,1,0.8655,,,,,,,,0,3,3,119,1
,,,,,,,,,,,,,,,,,199780,19,2022-01-29_13h03.27.659,lexical_decision_task_DD_L3,2021.2.3,Win32,60.22282445,,,,,,,,,,,,0.8025,1,,,,,,,,,,,,,,,,,,,,,,,,0.076851852,-0.375,0,0,0,,,,,,,PEACH,HB,m,m,./images/PEACHHB.png,,,,,,,m,1,0.8025,,,,,,,,0,4,4,35,1
,,,,,,,,,,,,,,,,,199780,19,2022-01-29_13h03.27.659,lexical_decision_task_DD_L3,2021.2.3,Win32,60.22282445,,,,,,,,,,,,2.1035,1,,,,,,,,,,,,,,,,,,,,,,,,0.076851852,-0.375,0,0,0,,,,,,,WRIST,C,m,m,./images/WRIST.png,,,,,,,m,1,2.1035,,,,,,,,0,5,5,25,1
,,,,,,,,,,,,,,,,,199780,19,2022-01-29_13h03.27.659,lexical_decision_task_DD_L3,2021.2.3,Win32,60.22282445,,,,,,,,,,,,0.7161,1,,,,,,,,,,,,,,,,,,,,,,,,0.076851852,-0.375,0,0,0,,,,,,,LIZARD,HB,m,m,./images/LIZARDHB.png,,,,,,,m,1,0.7161,,,,,,,,0,6,6,44,1
,,,,,,,,,,,,,,,,,199780,19,2022-01-29_13h03.27.659,lexical_decision_task_DD_L3,2021.2.3,Win32,60.22282445,,,,,,,,,,,,1.3056,1,,,,,,,,,,,,,,,,,,,,,,,,0.076851852,-0.375,0,0,0,,,,,,,CHAIN,LB,z,m,./images/CHAINLB.png,,,,,,,z,1,1.3056,,,,,,,,0,7,7,126,1
,,,,,,,,,,,,,,,,,199780,19,2022-01-29_13h03.27.659,lexical_decision_task_DD_L3,2021.2.3,Win32,60.22282445,,,,,,,,,,,,0.7512,1,,,,,,,,,,,,,,,,,,,,,,,,0.076851852,-0.375,0,0,0,,,,,,,NOOSE,LB,m,m,./images/NOOSELB.png,,,,,,,m,1,0.7512,,,,,,,,0,8,8,72,1
,,,,,,,,,,,,,,,,,199780,19,2022-01-29_13h03.27.659,lexical_decision_task_DD_L3,2021.2.3,Win32,60.22282445,,,,,,,,,,,,0.7869,1,,,,,,,,,,,,,,,,,,,,,,,,0.076851852,-0.375,0,0,0,,,,,,,SAILOR,C,m,m,./images/SAILOR.png,,,,,,,m,1,0.7869,,,,,,,,0,9,9,67,1
,,,,,,,,,,,,,,,,,199780,19,2022-01-29_13h03.27.659,lexical_decision_task_DD_L3,2021.2.3,Win32,60.22282445,,,,,,,,,,,,0.5765,1,,,,,,,,,,,,,,,,,,,,,,,,0.076851852,-0.375,0,0,0,,,,,,,KITTEN,LB,m,m,./images/KITTENLB.png,,,,,,,m,1,0.5765,,,,,,,,0,10,10,45,1
,,,,,,,,,,,,,,,,,199780,19,2022-01-29_13h03.27.659,lexical_decision_task_DD_L3,2021.2.3,Win32,60.22282445,,,,,,,,,,,,0.9674,1,,,,,,,,,,,,,,,,,,,,,,,,0.076851852,-0.375,0,0,0,,,,,,,FARMER,HB,m,m,./images/FARMERHB.png,,,,,,,m,1,0.9674,,,,,,,,0,11,11,65,1
,,,,,,,,,,,,,,,,,199780,19,2022-01-29_13h03.27.659,lexical_decision_task_DD_L3,2021.2.3,Win32,60.22282445,,,,,,,,,,,,1.8184,1,,,,,,,,,,,,,,,,,,,,,,,,0.076851852,-0.375,0,0,0,,,,,,,PEBBLE,C,z,m,./images/PEBBLE.png,,,,,,,z,1,1.8184,,,,,,,,0,12,12,166,1
,,,,,,,,,,,,,,,,,199780,19,2022-01-29_13h03.27.659,lexical_decision_task_DD_L3,2021.2.3,Win32,60.22282445,,,,,,,,,,,,1.0825,1,,,,,,,,,,,,,,,,,,,,,,,,0.076851852,-0.375,0,0,0,,,,,,,MEDAL,HB,z,m,./images/MEDALHB.png,,,,,,,z,1,1.0825,,,,,,,,0,13,13,95,1
,,,,,,,,,,,,,,,,,199780,19,2022-01-29_13h03.27.659,lexical_decision_task_DD_L3,2021.2.3,Win32,60.22282445,,,,,,,,,,,,1.0163,1,,,,,,,,,,,,,,,,,,,,,,,,0.076851852,-0.375,0,0,0,,,,,,,CANOE,C,z,m,./images/CANOE.png,,,,,,,z,1,1.0163,,,,,,,,0,14,14,142,1
,,,,,,,,,,,,,,,,,199780,19,2022-01-29_13h03.27.659,lexical_decision_task_DD_L3,2021.2.3,Win32,60.22282445,,,,,,,,,,,,0.6218,1,,,,,,,,,,,,,,,,,,,,,,,,0.076851852,-0.375,0,0,0,,,,,,,MELON,C,m,m,./images/MELON.png,,,,,,,m,1,0.6218,,,,,,,,0,15,15,22,1
,,,,,,,,,,,,,,,,,199780,19,2022-01-29_13h03.27.659,lexical_decision_task_DD_L3,2021.2.3,Win32,60.22282445,,,,,,,,,,,,0.5333,1,,,,,,,,,,,,,,,,,,,,,,,,0.076851852,-0.375,0,0,0,,,,,,,CANYON,C,m,m,./images/CANYON.png,,,,,,,m,1,0.5333,,,,,,,,0,16,16,34,1
,,,,,,,,,,,,,,,,,199780,19,2022-01-29_13h03.27.659,lexical_decision_task_DD_L3,2021.2.3,Win32,60.22282445,,,,,,,,,,,,1.8481,1,,,,,,,,,,,,,,,,,,,,,,,,0.076851852,-0.375,0,0,0,,,,,,,PARCEL,LB,z,m,./images/PARCELLB.png,,,,,,,z,1,1.8481,,,,,,,,0,17,17,102,1
,,,,,,,,,,,,,,,,,199780,19,2022-01-29_13h03.27.659,lexical_decision_task_DD_L3,2021.2.3,Win32,60.22282445,,,,,,,,,,,,0.5685,1,,,,,,,,,,,,,,,,,,,,,,,,0.076851852,-0.375,0,0,0,,,,,,,URINE,C,m,m,./images/URINE.png,,,,,,,m,1,0.5685,,,,,,,,0,18,18,70,1
,,,,,,,,,,,,,,,,,199780,19,2022-01-29_13h03.27.659,lexical_decision_task_DD_L3,2021.2.3,Win32,60.22282445,,,,,,,,,,,,1.0352,1,,,,,,,,,,,,,,,,,,,,,,,,0.076851852,-0.375,0,0,0,,,,,,,DRILL,LB,z,m,./images/DRILLLB.png,,,,,,,z,1,1.0352,,,,,,,,0,19,19,165,1
,,,,,,,,,,,,,,,,,199780,19,2022-01-29_13h03.27.659,lexical_decision_task_DD_L3,2021.2.3,Win32,60.22282445,,,,,,,,,,,,0.8348,1,,,,,,,,,,,,,,,,,,,,,,,,0.076851852,-0.375,0,0,0,,,,,,,BLOKE,LB,z,m,./images/BLOKELB.png,,,,,,,z,1,0.8348,,,,,,,,0,20,20,96,1
,,,,,,,,,,,,,,,,,199780,19,2022-01-29_13h03.27.659,lexical_decision_task_DD_L3,2021.2.3,Win32,60.22282445,,,,,,,,,,,,1.189,1,,,,,,,,,,,,,,,,,,,,,,,,0.076851852,-0.375,0,0,0,,,,,,,GRAPE,C,z,m,./images/GRAPE.png,,,,,,,z,1,1.189,,,,,,,,0,21,21,100,1
,,,,,,,,,,,,,,,,,199780,19,2022-01-29_13h03.27.659,lexical_decision_task_DD_L3,2021.2.3,Win32,60.22282445,,,,,,,,,,,,1.8436,1,,,,,,,,,,,,,,,,,,,,,,,,0.076851852,-0.375,0,0,0,,,,,,,TWINS,LB,m,m,./images/TWINSLB.png,,,,,,,m,1,1.8436,,,,,,,,0,22,22,60,1
,,,,,,,,,,,,,,,,,199780,19,2022-01-29_13h03.27.659,lexical_decision_task_DD_L3,2021.2.3,Win32,60.22282445,,,,,,,,,,,,0.7611,1,,,,,,,,,,,,,,,,,,,,,,,,0.076851852,-0.375,0,0,0,,,,,,,HEATER,HB,z,m,./images/HEATERHB.png,,,,,,,z,1,0.7611,,,,,,,,0,23,23,140,1
,,,,,,,,,,,,,,,,,199780,19,2022-01-29_13h03.27.659,lexical_decision_task_DD_L3,2021.2.3,Win32,60.22282445,,,,,,,,,,,,0.9328,1,,,,,,,,,,,,,,,,,,,,,,,,0.076851852,-0.375,0,0,0,,,,,,,PENCE,C,m,m,./images/PENCE.png,,,,,,,m,1,0.9328,,,,,,,,0,24,24,16,1
,,,,,,,,,,,,,,,,,199780,19,2022-01-29_13h03.27.659,lexical_decision_task_DD_L3,2021.2.3,Win32,60.22282445,,,,,,,,,,,,0.6671,1,,,,,,,,,,,,,,,,,,,,,,,,0.076851852,-0.375,0,0,0,,,,,,,CLOWN,C,z,m,./images/CLOWN.png,,,,,,,z,1,0.6671,,,,,,,,0,25,25,106,1
,,,,,,,,,,,,,,,,,199780,19,2022-01-29_13h03.27.659,lexical_decision_task_DD_L3,2021.2.3,Win32,60.22282445,,,,,,,,,,,,0.6375,1,,,,,,,,,,,,,,,,,,,,,,,,0.076851852,-0.375,0,0,0,,,,,,,SQUARE,LB,m,m,./images/SQUARELB.png,,,,,,,m,1,0.6375,,,,,,,,0,26,26,6,1
,,,,,,,,,,,,,,,,,199780,19,2022-01-29_13h03.27.659,lexical_decision_task_DD_L3,2021.2.3,Win32,60.22282445,,,,,,,,,,,,0.5343,1,,,,,,,,,,,,,,,,,,,,,,,,0.076851852,-0.375,0,0,0,,,,,,,JELLY,C,m,m,./images/JELLY.png,,,,,,,m,1,0.5343,,,,,,,,0,27,27,64,1
,,,,,,,,,,,,,,,,,199780,19,2022-01-29_13h03.27.659,lexical_decision_task_DD_L3,2021.2.3,Win32,60.22282445,,,,,,,,,,,,0.6106,1,,,,,,,,,,,,,,,,,,,,,,,,0.076851852,-0.375,0,0,0,,,,,,,LADDER,HB,m,m,./images/LADDERHB.png,,,,,,,m,1,0.6106,,,,,,,,0,28,28,38,1
,,,,,,,,,,,,,,,,,199780,19,2022-01-29_13h03.27.659,lexical_decision_task_DD_L3,2021.2.3,Win32,60.22282445,,,,,,,,,,,,0.7555,1,,,,,,,,,,,,,,,,,,,,,,,,0.076851852,-0.375,0,0,0,,,,,,,DANCER,LB,z,m,./images/DANCERLB.png,,,,,,,z,1,0.7555,,,,,,,,0,29,29,105,1
,,,,,,,,,,,,,,,,,199780,19,2022-01-29_13h03.27.659,lexical_decision_task_DD_L3,2021.2.3,Win32,60.22282445,,,,,,,,,,,,0.7048,0,,,,,,,,,,,,,,,,,,,,,,,,0.076851852,-0.375,0,0,0,,,,,,,SNACK,C,m,m,./images/SNACK.png,,,,,,,z,0,0.7048,,,,,,,,0,30,30,73,1
,,,,,,,,,,,,,,,,,199780,19,2022-01-29_13h03.27.659,lexical_decision_task_DD_L3,2021.2.3,Win32,60.22282445,,,,,,,,,,,,0.7828,1,,,,,,,,,,,,,,,,,,,,,,,,0.076851852,-0.375,0,0,0,,,,,,,LAGOON,HB,z,m,./images/LAGOONHB.png,,,,,,,z,1,0.7828,,,,,,,,0,31,31,131,1
,,,,,,,,,,,,,,,,,199780,19,2022-01-29_13h03.27.659,lexical_decision_task_DD_L3,2021.2.3,Win32,60.22282445,,,,,,,,,,,,0.6789,0,,,,,,,,,,,,,,,,,,,,,,,,0.076851852,-0.375,0,0,0,,,,,,,ALLEY,C,z,m,./images/ALLEY.png,,,,,,,m,0,0.6789,,,,,,,,0,32,32,139,1
,,,,,,,,,,,,,,,,,199780,19,2022-01-29_13h03.27.659,lexical_decision_task_DD_L3,2021.2.3,Win32,60.22282445,,,,,,,,,,,,1.6009,1,,,,,,,,,,,,,,,,,,,,,,,,0.076851852,-0.375,0,0,0,,,,,,,PARADE,HB,z,m,./images/PARADEHB.png,,,,,,,z,1,1.6009,,,,,,,,0,33,33,101,1
,,,,,,,,,,,,,,,,,199780,19,2022-01-29_13h03.27.659,lexical_decision_task_DD_L3,2021.2.3,Win32,60.22282445,,,,,,,,,,,,0.7502,1,,,,,,,,,,,,,,,,,,,,,,,,0.076851852,-0.375,0,0,0,,,,,,,SPINE,HB,z,m,./images/SPINEHB.png,,,,,,,z,1,0.7502,,,,,,,,0,34,34,149,1
,,,,,,,,,,,,,,,,,199780,19,2022-01-29_13h03.27.659,lexical_decision_task_DD_L3,2021.2.3,Win32,60.22282445,,,,,,,,,,,,0.8124,1,,,,,,,,,,,,,,,,,,,,,,,,0.076851852,-0.375,0,0,0,,,,,,,STAIN,LB,z,m,./images/STAINLB.png,,,,,,,z,1,0.8124,,,,,,,,0,35,35,90,1
,,,,,,,,,,,,,,,,,199780,19,2022-01-29_13h03.27.659,lexical_decision_task_DD_L3,2021.2.3,Win32,60.22282445,,,,,,,,,,,,1.0286,1,,,,,,,,,,,,,,,,,,,,,,,,0.076851852,-0.375,0,0,0,,,,,,,SLOPE,LB,z,m,./images/SLOPELB.png,,,,,,,z,1,1.0286,,,,,,,,0,36,36,114,1
,,,,,,,,,,,,,,,,,199780,19,2022-01-29_13h03.27.659,lexical_decision_task_DD_L3,2021.2.3,Win32,60.22282445,,,,,,,,,,,,0.6165,1,,,,,,,,,,,,,,,,,,,,,,,,0.076851852,-0.375,0,0,0,,,,,,,PICKLE,HB,m,m,./images/PICKLEHB.png,,,,,,,m,1,0.6165,,,,,,,,0,37,37,14,1
,,,,,,,,,,,,,,,,,199780,19,2022-01-29_13h03.27.659,lexical_decision_task_DD_L3,2021.2.3,Win32,60.22282445,,,,,,,,,,,,0.6049,1,,,,,,,,,,,,,,,,,,,,,,,,0.076851852,-0.375,0,0,0,,,,,,,BEARD,HB,m,m,./images/BEARDHB.png,,,,,,,m,1,0.6049,,,,,,,,0,38,38,2,1
,,,,,,,,,,,,,,,,,199780,19,2022-01-29_13h03.27.659,lexical_decision_task_DD_L3,2021.2.3,Win32,60.22282445,,,,,,,,,,,,0.7992,1,,,,,,,,,,,,,,,,,,,,,,,,0.076851852,-0.375,0,0,0,,,,,,,BISHOP,C,z,m,./images/BISHOP.png,,,,,,,z,1,0.7992,,,,,,,,0,39,39,133,1
,,,,,,,,,,,,,,,,,199780,19,2022-01-29_13h03.27.659,lexical_decision_task_DD_L3,2021.2.3,Win32,60.22282445,,,,,,,,,,,,0.8186,1,,,,,,,,,,,,,,,,,,,,,,,,0.076851852,-0.375,0,0,0,,,,,,,PILOT,HB,z,m,./images/PILOTHB.png,,,,,,,z,1,0.8186,,,,,,,,0,40,40,134,1
,,,,,,,,,,,,,,,,,199780,19,2022-01-29_13h03.27.659,lexical_decision_task_DD_L3,2021.2.3,Win32,60.22282445,,,,,,,,,,,,0.8944,0,,,,,,,,,,,,,,,,,,,,,,,,0.076851852,-0.375,0,0,0,space,,,,,,GRAIN,LB,m,m,./images/GRAINLB.png,4.3965,,,,,,z,0,0.8944,,,,,,,,0,41,41,75,1
,,,,,,,,,,,,,,,,,199780,19,2022-01-29_13h03.27.659,lexical_decision_task_DD_L3,2021.2.3,Win32,60.22282445,,,,,,,,,,,,0.7189,1,,,,,,,,,,,,,,,,,,,,,,,,0.076851852,-0.375,0,0,0,,,,,,,MUSCLE,C,m,m,./images/MUSCLE.png,,,,,,,m,1,0.7189,,,,,,,,0,42,42,4,1
,,,,,,,,,,,,,,,,,199780,19,2022-01-29_13h03.27.659,lexical_decision_task_DD_L3,2021.2.3,Win32,60.22282445,,,,,,,,,,,,0.5545,1,,,,,,,,,,,,,,,,,,,,,,,,0.076851852,-0.375,0,0,0,,,,,,,PURSE,HB,m,m,./images/PURSEHB.png,,,,,,,m,1,0.5545,,,,,,,,0,43,43,62,1
,,,,,,,,,,,,,,,,,199780,19,2022-01-29_13h03.27.659,lexical_decision_task_DD_L3,2021.2.3,Win32,60.22282445,,,,,,,,,,,,0.7663,1,,,,,,,,,,,,,,,,,,,,,,,,0.076851852,-0.375,0,0,0,,,,,,,FLESH,LB,z,m,./images/FLESHLB.png,,,,,,,z,1,0.7663,,,,,,,,0,44,44,108,1
,,,,,,,,,,,,,,,,,199780,19,2022-01-29_13h03.27.659,lexical_decision_task_DD_L3,2021.2.3,Win32,60.22282445,,,,,,,,,,,,0.6413,1,,,,,,,,,,,,,,,,,,,,,,,,0.076851852,-0.375,0,0,0,,,,,,,TOWEL,C,z,m,./images/TOWEL.png,,,,,,,z,1,0.6413,,,,,,,,0,45,45,85,1
,,,,,,,,,,,,,,,,,199780,19,2022-01-29_13h03.27.659,lexical_decision_task_DD_L3,2021.2.3,Win32,60.22282445,,,,,,,,,,,,0.5721,1,,,,,,,,,,,,,,,,,,,,,,,,0.076851852,-0.375,0,0,0,,,,,,,RHINO,LB,m,m,./images/RHINOLB.png,,,,,,,m,1,0.5721,,,,,,,,0,46,46,9,1
,,,,,,,,,,,,,,,,,199780,19,2022-01-29_13h03.27.659,lexical_decision_task_DD_L3,2021.2.3,Win32,60.22282445,,,,,,,,,,,,0.6337,1,,,,,,,,,,,,,,,,,,,,,,,,0.076851852,-0.375,0,0,0,,,,,,,STOVE,HB,z,m,./images/STOVEHB.png,,,,,,,z,1,0.6337,,,,,,,,0,47,47,86,1
,,,,,,,,,,,,,,,,,199780,19,2022-01-29_13h03.27.659,lexical_decision_task_DD_L3,2021.2.3,Win32,60.22282445,,,,,,,,,,,,0.6347,1,,,,,,,,,,,,,,,,,,,,,,,,0.076851852,-0.375,0,0,0,,,,,,,BONNET,HB,m,m,./images/BONNETHB.png,,,,,,,m,1,0.6347,,,,,,,,0,48,48,11,1
,,,,,,,,,,,,,,,,,199780,19,2022-01-29_13h03.27.659,lexical_decision_task_DD_L3,2021.2.3,Win32,60.22282445,,,,,,,,,,,,0.6887,0,,,,,,,,,,,,,,,,,,,,,,,,0.076851852,-0.375,0,0,0,,,,,,,MOTOR,C,m,m,./images/MOTOR.png,,,,,,,z,0,0.6887,,,,,,,,0,49,49,13,1
,,,,,,,,,,,,,,,,,199780,19,2022-01-29_13h03.27.659,lexical_decision_task_DD_L3,2021.2.3,Win32,60.22282445,,,,,,,,,,,,1.0667,0,,,,,,,,,,,,,,,,,,,,,,,,0.076851852,-0.375,0,0,0,,,,,,,QUILL,C,m,m,./images/QUILL.png,,,,,,,z,0,1.0667,,,,,,,,0,50,50,31,1
,,,,,,,,,,,,,,,,,199780,19,2022-01-29_13h03.27.659,lexical_decision_task_DD_L3,2021.2.3,Win32,60.22282445,,,,,,,,,,,,0.6441,1,,,,,,,,,,,,,,,,,,,,,,,,0.076851852,-0.375,0,0,0,,,,,,,CRATER,LB,z,m,./images/CRATERLB.png,,,,,,,z,1,0.6441,,,,,,,,0,51,51,87,1
,,,,,,,,,,,,,,,,,199780,19,2022-01-29_13h03.27.659,lexical_decision_task_DD_L3,2021.2.3,Win32,60.22282445,,,,,,,,,,,,0.658,1,,,,,,,,,,,,,,,,,,,,,,,,0.076851852,-0.375,0,0,0,,,,,,,CANDY,LB,z,m,./images/CANDYLB.png,,,,,,,z,1,0.658,,,,,,,,0,52,52,123,1
,,,,,,,,,,,,,,,,,199780,19,2022-01-29_13h03.27.659,lexical_decision_task_DD_L3,2021.2.3,Win32,60.22282445,,,,,,,,,,,,0.5725,1,,,,,,,,,,,,,,,,,,,,,,,,0.076851852,-0.375,0,0,0,,,,,,,SHORE,LB,m,m,./images/SHORELB.png,,,,,,,m,1,0.5725,,,,,,,,0,53,53,12,1
,,,,,,,,,,,,,,,,,199780,19,2022-01-29_13h03.27.659,lexical_decision_task_DD_L3,2021.2.3,Win32,60.22282445,,,,,,,,,,,,0.5162,1,,,,,,,,,,,,,,,,,,,,,,,,0.076851852,-0.375,0,0,0,,,,,,,PEARL,C,m,m,./images/PEARL.png,,,,,,,m,1,0.5162,,,,,,,,0,54,54,46,1
,,,,,,,,,,,,,,,,,199780,19,2022-01-29_13h03.27.659,lexical_decision_task_DD_L3,2021.2.3,Win32,60.22282445,,,,,,,,,,,,0.6698,0,,,,,,,,,,,,,,,,,,,,,,,,0.076851852,-0.375,0,0,0,,,,,,,LITTER,LB,m,m,./images/LITTERLB.png,,,,,,,z,0,0.6698,,,,,,,,0,55,55,78,1
,,,,,,,,,,,,,,,,,199780,19,2022-01-29_13h03.27.659,lexical_decision_task_DD_L3,2021.2.3,Win32,60.22282445,,,,,,,,,,,,1.0512,1,,,,,,,,,,,,,,,,,,,,,,,,0.076851852,-0.375,0,0,0,,,,,,,BANNER,C,m,m,./images/BANNER.png,,,,,,,m,1,1.0512,,,,,,,,0,56,56,52,1
,,,,,,,,,,,,,,,,,199780,19,2022-01-29_13h03.27.659,lexical_decision_task_DD_L3,2021.2.3,Win32,60.22282445,,,,,,,,,,,,0.6506,0,,,,,,,,,,,,,,,,,,,,,,,,0.076851852,-0.375,0,0,0,,,,,,,SPORT,LB,m,m,./images/SPORTLB.png,,,,,,,z,0,0.6506,,,,,,,,0,57,57,48,1
,,,,,,,,,,,,,,,,,199780,19,2022-01-29_13h03.27.659,lexical_decision_task_DD_L3,2021.2.3,Win32,60.22282445,,,,,,,,,,,,0.584,1,,,,,,,,,,,,,,,,,,,,,,,,0.076851852,-0.375,0,0,0,,,,,,,TULIP,HB,m,m,./images/TULIPHB.png,,,,,,,m,1,0.584,,,,,,,,0,58,58,8,1
,,,,,,,,,,,,,,,,,199780,19,2022-01-29_13h03.27.659,lexical_decision_task_DD_L3,2021.2.3,Win32,60.22282445,,,,,,,,,,,,0.7189,1,,,,,,,,,,,,,,,,,,,,,,,,0.076851852,-0.375,0,0,0,,,,,,,DIVER,LB,z,m,./images/DIVERLB.png,,,,,,,z,1,0.7189,,,,,,,,0,59,59,93,1
,,,,,,,,,,,,,,,,,199780,19,2022-01-29_13h03.27.659,lexical_decision_task_DD_L3,2021.2.3,Win32,60.22282445,,,,,,,,,,,,0.6418,1,,,,,,,,,,,,,,,,,,,,,,,,0.076851852,-0.375,0,0,0,,,,,,,CASINO,C,z,m,./images/CASINO.png,,,,,,,z,1,0.6418,,,,,,,,0,60,60,112,1
,,,,,,,,,,,,,,,,,199780,19,2022-01-29_13h03.27.659,lexical_decision_task_DD_L3,2021.2.3,Win32,60.22282445,,,,,,,,,,,,0.6621,1,,,,,,,,,,,,,,,,,,,,,,,,0.076851852,-0.375,0,0,0,,,,,,,CHERRY,LB,z,m,./images/CHERRYLB.png,,,,,,,z,1,0.6621,,,,,,,,0,61,61,138,1
,,,,,,,,,,,,,,,,,199780,19,2022-01-29_13h03.27.659,lexical_decision_task_DD_L3,2021.2.3,Win32,60.22282445,,,,,,,,,,,,0.8492,1,,,,,,,,,,,,,,,,,,,,,,,,0.076851852,-0.375,0,0,0,,,,,,,BRUSH,HB,z,m,./images/BRUSHHB.png,,,,,,,z,1,0.8492,,,,,,,,0,62,62,143,1
,,,,,,,,,,,,,,,,,199780,19,2022-01-29_13h03.27.659,lexical_decision_task_DD_L3,2021.2.3,Win32,60.22282445,,,,,,,,,,,,0.6335,1,,,,,,,,,,,,,,,,,,,,,,,,0.076851852,-0.375,0,0,0,,,,,,,MAGGOT,LB,m,m,./images/MAGGOTLB.png,,,,,,,m,1,0.6335,,,,,,,,0,63,63,33,1
,,,,,,,,,,,,,,,,,199780,19,2022-01-29_13h03.27.659,lexical_decision_task_DD_L3,2021.2.3,Win32,60.22282445,,,,,,,,,,,,0.669,0,,,,,,,,,,,,,,,,,,,,,,,,0.076851852,-0.375,0,0,0,,,,,,,MOSQUE,C,m,m,./images/MOSQUE.png,,,,,,,z,0,0.669,,,,,,,,0,64,64,43,1
,,,,,,,,,,,,,,,,,199780,19,2022-01-29_13h03.27.659,lexical_decision_task_DD_L3,2021.2.3,Win32,60.22282445,,,,,,,,,,,,0.9386,1,,,,,,,,,,,,,,,,,,,,,,,,0.076851852,-0.375,0,0,0,,,,,,,WALNUT,LB,z,m,./images/WALNUTLB.png,,,,,,,z,1,0.9386,,,,,,,,0,65,65,84,1
,,,,,,,,,,,,,,,,,199780,19,2022-01-29_13h03.27.659,lexical_decision_task_DD_L3,2021.2.3,Win32,60.22282445,,,,,,,,,,,,1.3917,1,,,,,,,,,,,,,,,,,,,,,,,,0.076851852,-0.375,0,0,0,,,,,,,MIRROR,LB,m,m,./images/MIRRORLB.png,,,,,,,m,1,1.3917,,,,,,,,0,66,66,63,1
,,,,,,,,,,,,,,,,,199780,19,2022-01-29_13h03.27.659,lexical_decision_task_DD_L3,2021.2.3,Win32,60.22282445,,,,,,,,,,,,0.9991,0,,,,,,,,,,,,,,,,,,,,,,,,0.076851852,-0.375,0,0,0,,,,,,,MONKEY,LB,z,m,./images/MONKEYLB.png,,,,,,,m,0,0.9991,,,,,,,,0,67,67,129,1
,,,,,,,,,,,,,,,,,199780,19,2022-01-29_13h03.27.659,lexical_decision_task_DD_L3,2021.2.3,Win32,60.22282445,,,,,,,,,,,,1.6665,1,,,,,,,,,,,,,,,,,,,,,,,,0.076851852,-0.375,0,0,0,,,,,,,PASTA,HB,m,m,./images/PASTAHB.png,,,,,,,m,1,1.6665,,,,,,,,0,68,68,5,1
,,,,,,,,,,,,,,,,,199780,19,2022-01-29_13h03.27.659,lexical_decision_task_DD_L3,2021.2.3,Win32,60.22282445,,,,,,,,,,,,1.3378,0,,,,,,,,,,,,,,,,,,,,,,,,0.076851852,-0.375,0,0,0,,,,,,,SKIING,HB,m,m,./images/SKIINGHB.png,,,,,,,z,0,1.3378,,,,,,,,0,69,69,17,1
,,,,,,,,,,,,,,,,,199780,19,2022-01-29_13h03.27.659,lexical_decision_task_DD_L3,2021.2.3,Win32,60.22282445,,,,,,,,,,,,0.6245,1,,,,,,,,,,,,,,,,,,,,,,,,0.076851852,-0.375,0,0,0,,,,,,,MAMMAL,HB,z,m,./images/MAMMALHB.png,,,,,,,z,1,0.6245,,,,,,,,0,70,70,146,1
,,,,,,,,,,,,,,,,,199780,19,2022-01-29_13h03.27.659,lexical_decision_task_DD_L3,2021.2.3,Win32,60.22282445,,,,,,,,,,,,0.8898,1,,,,,,,,,,,,,,,,,,,,,,,,0.076851852,-0.375,0,0,0,,,,,,,SHIELD,LB,z,m,./images/SHIELDLB.png,,,,,,,z,1,0.8898,,,,,,,,0,71,71,132,1
,,,,,,,,,,,,,,,,,199780,19,2022-01-29_13h03.27.659,lexical_decision_task_DD_L3,2021.2.3,Win32,60.22282445,,,,,,,,,,,,1.2627,1,,,,,,,,,,,,,,,,,,,,,,,,0.076851852,-0.375,0,0,0,,,,,,,BANANA,C,z,m,./images/BANANA.png,,,,,,,z,1,1.2627,,,,,,,,0,72,72,154,1
,,,,,,,,,,,,,,,,,199780,19,2022-01-29_13h03.27.659,lexical_decision_task_DD_L3,2021.2.3,Win32,60.22282445,,,,,,,,,,,,1.0001,1,,,,,,,,,,,,,,,,,,,,,,,,0.076851852,-0.375,0,0,0,,,,,,,COLLAR,LB,z,m,./images/COLLARLB.png,,,,,,,z,1,1.0001,,,,,,,,0,73,73,99,1
,,,,,,,,,,,,,,,,,199780,19,2022-01-29_13h03.27.659,lexical_decision_task_DD_L3,2021.2.3,Win32,60.22282445,,,,,,,,,,,,1.0328,1,,,,,,,,,,,,,,,,,,,,,,,,0.076851852,-0.375,0,0,0,,,,,,,BUBBLE,HB,z,m,./images/BUBBLEHB.png,,,,,,,z,1,1.0328,,,,,,,,0,74,74,155,1
,,,,,,,,,,,,,,,,,199780,19,2022-01-29_13h03.27.659,lexical_decision_task_DD_L3,2021.2.3,Win32,60.22282445,,,,,,,,,,,,1.2995,1,,,,,,,,,,,,,,,,,,,,,,,,0.076851852,-0.375,0,0,0,,,,,,,COUCH,HB,m,m,./images/COUCHHB.png,,,,,,,m,1,1.2995,,,,,,,,0,75,75,77,1
,,,,,,,,,,,,,,,,,199780,19,2022-01-29_13h03.27.659,lexical_decision_task_DD_L3,2021.2.3,Win32,60.22282445,,,,,,,,,,,,0.7046,1,,,,,,,,,,,,,,,,,,,,,,,,0.076851852,-0.375,0,0,0,,,,,,,SNAKE,C,z,m,./images/SNAKE.png,,,,,,,z,1,0.7046,,,,,,,,0,76,76,124,1
,,,,,,,,,,,,,,,,,199780,19,2022-01-29_13h03.27.659,lexical_decision_task_DD_L3,2021.2.3,Win32,60.22282445,,,,,,,,,,,,0.6354,1,,,,,,,,,,,,,,,,,,,,,,,,0.076851852,-0.375,0,0,0,,,,,,,PISTOL,HB,z,m,./images/PISTOLHB.png,,,,,,,z,1,0.6354,,,,,,,,0,77,77,113,1
,,,,,,,,,,,,,,,,,199780,19,2022-01-29_13h03.27.659,lexical_decision_task_DD_L3,2021.2.3,Win32,60.22282445,,,,,,,,,,,,1.0157,1,,,,,,,,,,,,,,,,,,,,,,,,0.076851852,-0.375,0,0,0,,,,,,,SHELF,LB,m,m,./images/SHELFLB.png,,,,,,,m,1,1.0157,,,,,,,,0,78,78,39,1
,,,,,,,,,,,,,,,,,199780,19,2022-01-29_13h03.27.659,lexical_decision_task_DD_L3,2021.2.3,Win32,60.22282445,,,,,,,,,,,,0.7062,1,,,,,,,,,,,,,,,,,,,,,,,,0.076851852,-0.375,0,0,0,,,,,,,GRANNY,HB,z,m,./images/GRANNYHB.png,,,,,,,z,1,0.7062,,,,,,,,0,79,79,104,1
,,,,,,,,,,,,,,,,,199780,19,2022-01-29_13h03.27.659,lexical_decision_task_DD_L3,2021.2.3,Win32,60.22282445,,,,,,,,,,,,0.7291,1,,,,,,,,,,,,,,,,,,,,,,,,0.076851852,-0.375,0,0,0,,,,,,,TRIPOD,LB,m,m,./images/TRIPODLB.png,,,,,,,m,1,0.7291,,,,,,,,0,80,80,54,1
,,,,,,,,,,,,,,,,,199780,19,2022-01-29_13h03.27.659,lexical_decision_task_DD_L3,2021.2.3,Win32,60.22282445,,,,,,,,,,,,0.7165,1,,,,,,,,,,,,,,,,,,,,,,,,0.076851852,-0.375,0,0,0,,,,,,,COOKER,LB,m,m,./images/COOKERLB.png,,,,,,,m,1,0.7165,,,,,,,,0,81,81,69,1
,,,,,,,,,,,,,,,,,199780,19,2022-01-29_13h03.27.659,lexical_decision_task_DD_L3,2021.2.3,Win32,60.22282445,,,,,,,,,,,,2.3053,0,,,,,,,,,,,,,,,,,,,,,,,,0.076851852,-0.375,0,0,0,,,,,,,CRADLE,HB,m,m,./images/CRADLEHB.png,,,,,,,z,0,2.3053,,,,,,,,0,82,82,20,1
,,,,,,,,,,,,,,,,,199780,19,2022-01-29_13h03.27.659,lexical_decision_task_DD_L3,2021.2.3,Win32,60.22282445,,,,,,,,,,,,0.9492,1,,,,,,,,,,,,,,,,,,,,,,,,0.076851852,-0.375,0,0,0,space,,,,,,HAMMER,LB,z,m,./images/HAMMERLB.png,13.8106,,,,,,z,1,0.9492,,,,,,,,0,83,83,159,1
,,,,,,,,,,,,,,,,,199780,19,2022-01-29_13h03.27.659,lexical_decision_task_DD_L3,2021.2.3,Win32,60.22282445,,,,,,,,,,,,1.2431,1,,,,,,,,,,,,,,,,,,,,,,,,0.076851852,-0.375,0,0,0,,,,,,,STRING,HB,m,m,./images/STRINGHB.png,,,,,,,m,1,1.2431,,,,,,,,0,84,84,41,1
,,,,,,,,,,,,,,,,,199780,19,2022-01-29_13h03.27.659,lexical_decision_task_DD_L3,2021.2.3,Win32,60.22282445,,,,,,,,,,,,0.6911,1,,,,,,,,,,,,,,,,,,,,,,,,0.076851852,-0.375,0,0,0,,,,,,,KIDNEY,LB,m,m,./images/KIDNEYLB.png,,,,,,,m,1,0.6911,,,,,,,,0,85,85,21,1
,,,,,,,,,,,,,,,,,199780,19,2022-01-29_13h03.27.659,lexical_decision_task_DD_L3,2021.2.3,Win32,60.22282445,,,,,,,,,,,,0.6997,0,,,,,,,,,,,,,,,,,,,,,,,,0.076851852,-0.375,0,0,0,,,,,,,FINGER,LB,m,m,./images/FINGERLB.png,,,,,,,z,0,0.6997,,,,,,,,0,86,86,3,1
,,,,,,,,,,,,,,,,,199780,19,2022-01-29_13h03.27.659,lexical_decision_task_DD_L3,2021.2.3,Win32,60.22282445,,,,,,,,,,,,0.7234,1,,,,,,,,,,,,,,,,,,,,,,,,0.076851852,-0.375,0,0,0,,,,,,,PAINT,C,m,m,./images/PAINT.png,,,,,,,m,1,0.7234,,,,,,,,0,87,87,7,1
,,,,,,,,,,,,,,,,,199780,19,2022-01-29_13h03.27.659,lexical_decision_task_DD_L3,2021.2.3,Win32,60.22282445,,,,,,,,,,,,0.6495,1,,,,,,,,,,,,,,,,,,,,,,,,0.076851852,-0.375,0,0,0,,,,,,,CEMENT,HB,m,m,./images/CEMENTHB.png,,,,,,,m,1,0.6495,,,,,,,,0,88,88,74,1
,,,,,,,,,,,,,,,,,199780,19,2022-01-29_13h03.27.659,lexical_decision_task_DD_L3,2021.2.3,Win32,60.22282445,,,,,,,,,,,,0.5562,1,,,,,,,,,,,,,,,,,,,,,,,,0.076851852,-0.375,0,0,0,,,,,,,FERRY,LB,z,m,./images/FERRYLB.png,,,,,,,z,1,0.5562,,,,,,,,0,89,89,141,1
,,,,,,,,,,,,,,,,,199780,19,2022-01-29_13h03.27.659,lexical_decision_task_DD_L3,2021.2.3,Win32,60.22282445,,,,,,,,,,,,1.0207,1,,,,,,,,,,,,,,,,,,,,,,,,0.076851852,-0.375,0,0,0,,,,,,,BRIDE,C,z,m,./images/BRIDE.png,,,,,,,z,1,1.0207,,,,,,,,0,90,90,148,1
,,,,,,,,,,,,,,,,,199780,19,2022-01-29_13h03.27.659,lexical_decision_task_DD_L3,2021.2.3,Win32,60.22282445,,,,,,,,,,,,0.5896,1,,,,,,,,,,,,,,,,,,,,,,,,0.076851852,-0.375,0,0,0,,,,,,,BROOM,LB,z,m,./images/BROOMLB.png,,,,,,,z,1,0.5896,,,,,,,,0,91,91,162,1
,,,,,,,,,,,,,,,,,199780,19,2022-01-29_13h03.27.659,lexical_decision_task_DD_L3,2021.2.3,Win32,60.22282445,,,,,,,,,,,,0.587,1,,,,,,,,,,,,,,,,,,,,,,,,0.076851852,-0.375,0,0,0,,,,,,,CARPET,HB,m,m,./images/CARPETHB.png,,,,,,,m,1,0.587,,,,,,,,0,92,92,53,1
,,,,,,,,,,,,,,,,,199780,19,2022-01-29_13h03.27.659,lexical_decision_task_DD_L3,2021.2.3,Win32,60.22282445,,,,,,,,,,,,0.5738,1,,,,,,,,,,,,,,,,,,,,,,,,0.076851852,-0.375,0,0,0,,,,,,,RULER,C,z,m,./images/RULER.png,,,,,,,z,1,0.5738,,,,,,,,0,93,93,163,1
,,,,,,,,,,,,,,,,,199780,19,2022-01-29_13h03.27.659,lexical_decision_task_DD_L3,2021.2.3,Win32,60.22282445,,,,,,,,,,,,0.7327,1,,,,,,,,,,,,,,,,,,,,,,,,0.076851852,-0.375,0,0,0,,,,,,,GARDEN,C,z,m,./images/GARDEN.png,,,,,,,z,1,0.7327,,,,,,,,0,94,94,94,1
,,,,,,,,,,,,,,,,,199780,19,2022-01-29_13h03.27.659,lexical_decision_task_DD_L3,2021.2.3,Win32,60.22282445,,,,,,,,,,,,0.6884,1,,,,,,,,,,,,,,,,,,,,,,,,0.076851852,-0.375,0,0,0,,,,,,,BIRTH,C,m,m,./images/BIRTH.png,,,,,,,m,1,0.6884,,,,,,,,0,95,95,37,1
,,,,,,,,,,,,,,,,,199780,19,2022-01-29_13h03.27.659,lexical_decision_task_DD_L3,2021.2.3,Win32,60.22282445,,,,,,,,,,,,0.8014,1,,,,,,,,,,,,,,,,,,,,,,,,0.076851852,-0.375,0,0,0,,,,,,,VALLEY,HB,z,m,./images/VALLEYHB.png,,,,,,,z,1,0.8014,,,,,,,,0,96,96,152,1
,,,,,,,,,,,,,,,,,199780,19,2022-01-29_13h03.27.659,lexical_decision_task_DD_L3,2021.2.3,Win32,60.22282445,,,,,,,,,,,,0.8054,1,,,,,,,,,,,,,,,,,,,,,,,,0.076851852,-0.375,0,0,0,,,,,,,JUMPER,HB,z,m,./images/JUMPERHB.png,,,,,,,z,1,0.8054,,,,,,,,0,97,97,158,1
,,,,,,,,,,,,,,,,,199780,19,2022-01-29_13h03.27.659,lexical_decision_task_DD_L3,2021.2.3,Win32,60.22282445,,,,,,,,,,,,0.7263,0,,,,,,,,,,,,,,,,,,,,,,,,0.076851852,-0.375,0,0,0,,,,,,,DRUMS,C,m,m,./images/DRUMS.png,,,,,,,z,0,0.7263,,,,,,,,0,98,98,49,1
,,,,,,,,,,,,,,,,,199780,19,2022-01-29_13h03.27.659,lexical_decision_task_DD_L3,2021.2.3,Win32,60.22282445,,,,,,,,,,,,0.8404,1,,,,,,,,,,,,,,,,,,,,,,,,0.076851852,-0.375,0,0,0,,,,,,,BOILER,LB,z,m,./images/BOILERLB.png,,,,,,,z,1,0.8404,,,,,,,,0,99,99,120,1
,,,,,,,,,,,,,,,,,199780,19,2022-01-29_13h03.27.659,lexical_decision_task_DD_L3,2021.2.3,Win32,60.22282445,,,,,,,,,,,,0.7687,1,,,,,,,,,,,,,,,,,,,,,,,,0.076851852,-0.375,0,0,0,,,,,,,BERRY,HB,m,m,./images/BERRYHB.png,,,,,,,m,1,0.7687,,,,,,,,0,100,100,47,1
,,,,,,,,,,,,,,,,,199780,19,2022-01-29_13h03.27.659,lexical_decision_task_DD_L3,2021.2.3,Win32,60.22282445,,,,,,,,,,,,0.7928,1,,,,,,,,,,,,,,,,,,,,,,,,0.076851852,-0.375,0,0,0,,,,,,,POKER,C,z,m,./images/POKER.png,,,,,,,z,1,0.7928,,,,,,,,0,101,101,151,1
,,,,,,,,,,,,,,,,,199780,19,2022-01-29_13h03.27.659,lexical_decision_task_DD_L3,2021.2.3,Win32,60.22282445,,,,,,,,,,,,0.6668,1,,,,,,,,,,,,,,,,,,,,,,,,0.076851852,-0.375,0,0,0,,,,,,,DONKEY,C,z,m,./images/DONKEY.png,,,,,,,z,1,0.6668,,,,,,,,0,102,102,103,1
,,,,,,,,,,,,,,,,,199780,19,2022-01-29_13h03.27.659,lexical_decision_task_DD_L3,2021.2.3,Win32,60.22282445,,,,,,,,,,,,0.7003,1,,,,,,,,,,,,,,,,,,,,,,,,0.076851852,-0.375,0,0,0,,,,,,,BAMBOO,HB,z,m,./images/BAMBOOHB.png,,,,,,,z,1,0.7003,,,,,,,,0,103,103,89,1
,,,,,,,,,,,,,,,,,199780,19,2022-01-29_13h03.27.659,lexical_decision_task_DD_L3,2021.2.3,Win32,60.22282445,,,,,,,,,,,,0.6593,1,,,,,,,,,,,,,,,,,,,,,,,,0.076851852,-0.375,0,0,0,,,,,,,JAGUAR,LB,m,m,./images/JAGUARLB.png,,,,,,,m,1,0.6593,,,,,,,,0,104,104,18,1
,,,,,,,,,,,,,,,,,199780,19,2022-01-29_13h03.27.659,lexical_decision_task_DD_L3,2021.2.3,Win32,60.22282445,,,,,,,,,,,,0.7003,1,,,,,,,,,,,,,,,,,,,,,,,,0.076851852,-0.375,0,0,0,,,,,,,PIMPLE,HB,m,m,./images/PIMPLEHB.png,,,,,,,m,1,0.7003,,,,,,,,0,105,105,71,1
,,,,,,,,,,,,,,,,,199780,19,2022-01-29_13h03.27.659,lexical_decision_task_DD_L3,2021.2.3,Win32,60.22282445,,,,,,,,,,,,0.6703,1,,,,,,,,,,,,,,,,,,,,,,,,0.076851852,-0.375,0,0,0,,,,,,,BOXER,C,z,m,./images/BOXER.png,,,,,,,z,1,0.6703,,,,,,,,0,106,106,88,1
,,,,,,,,,,,,,,,,,199780,19,2022-01-29_13h03.27.659,lexical_decision_task_DD_L3,2021.2.3,Win32,60.22282445,,,,,,,,,,,,0.6554,1,,,,,,,,,,,,,,,,,,,,,,,,0.076851852,-0.375,0,0,0,,,,,,,FALCON,C,m,m,./images/FALCON.png,,,,,,,m,1,0.6554,,,,,,,,0,107,107,28,1
,,,,,,,,,,,,,,,,,199780,19,2022-01-29_13h03.27.659,lexical_decision_task_DD_L3,2021.2.3,Win32,60.22282445,,,,,,,,,,,,0.6619,1,,,,,,,,,,,,,,,,,,,,,,,,0.076851852,-0.375,0,0,0,,,,,,,MIDGET,C,z,m,./images/MIDGET.png,,,,,,,z,1,0.6619,,,,,,,,0,108,108,160,1
,,,,,,,,,,,,,,,,,199780,19,2022-01-29_13h03.27.659,lexical_decision_task_DD_L3,2021.2.3,Win32,60.22282445,,,,,,,,,,,,0.6336,1,,,,,,,,,,,,,,,,,,,,,,,,0.076851852,-0.375,0,0,0,,,,,,,MUFFIN,C,m,m,./images/MUFFIN.png,,,,,,,m,1,0.6336,,,,,,,,0,109,109,55,1
,,,,,,,,,,,,,,,,,199780,19,2022-01-29_13h03.27.659,lexical_decision_task_DD_L3,2021.2.3,Win32,60.22282445,,,,,,,,,,,,0.7843,1,,,,,,,,,,,,,,,,,,,,,,,,0.076851852,-0.375,0,0,0,,,,,,,CLIFF,HB,z,m,./images/CLIFFHB.png,,,,,,,z,1,0.7843,,,,,,,,0,110,110,92,1
,,,,,,,,,,,,,,,,,199780,19,2022-01-29_13h03.27.659,lexical_decision_task_DD_L3,2021.2.3,Win32,60.22282445,,,,,,,,,,,,0.7558,1,,,,,,,,,,,,,,,,,,,,,,,,0.076851852,-0.375,0,0,0,,,,,,,CLOTH,HB,z,m,./images/CLOTHHB.png,,,,,,,z,1,0.7558,,,,,,,,0,111,111,107,1
,,,,,,,,,,,,,,,,,199780,19,2022-01-29_13h03.27.659,lexical_decision_task_DD_L3,2021.2.3,Win32,60.22282445,,,,,,,,,,,,0.5919,1,,,,,,,,,,,,,,,,,,,,,,,,0.076851852,-0.375,0,0,0,,,,,,,ARROW,LB,z,m,./images/ARROWLB.png,,,,,,,z,1,0.5919,,,,,,,,0,112,112,153,1
,,,,,,,,,,,,,,,,,199780,19,2022-01-29_13h03.27.659,lexical_decision_task_DD_L3,2021.2.3,Win32,60.22282445,,,,,,,,,,,,0.6337,1,,,,,,,,,,,,,,,,,,,,,,,,0.076851852,-0.375,0,0,0,,,,,,,BARREL,HB,m,m,./images/BARRELHB.png,,,,,,,m,1,0.6337,,,,,,,,0,113,113,32,1
,,,,,,,,,,,,,,,,,199780,19,2022-01-29_13h03.27.659,lexical_decision_task_DD_L3,2021.2.3,Win32,60.22282445,,,,,,,,,,,,0.5569,1,,,,,,,,,,,,,,,,,,,,,,,,0.076851852,-0.375,0,0,0,,,,,,,CANDLE,C,m,m,./images/CANDLE.png,,,,,,,m,1,0.5569,,,,,,,,0,114,114,61,1
,,,,,,,,,,,,,,,,,199780,19,2022-01-29_13h03.27.659,lexical_decision_task_DD_L3,2021.2.3,Win32,60.22282445,,,,,,,,,,,,0.7662,1,,,,,,,,,,,,,,,,,,,,,,,,0.076851852,-0.375,0,0,0,,,,,,,FOLDER,LB,m,m,./images/FOLDERLB.png,,,,,,,m,1,0.7662,,,,,,,,0,115,115,42,1
,,,,,,,,,,,,,,,,,199780,19,2022-01-29_13h03.27.659,lexical_decision_task_DD_L3,2021.2.3,Win32,60.22282445,,,,,,,,,,,,0.5687,1,,,,,,,,,,,,,,,,,,,,,,,,0.076851852,-0.375,0,0,0,,,,,,,GLOVE,C,z,m,./images/GLOVE.png,,,,,,,z,1,0.5687,,,,,,,,0,116,116,157,1
,,,,,,,,,,,,,,,,,199780,19,2022-01-29_13h03.27.659,lexical_decision_task_DD_L3,2021.2.3,Win32,60.22282445,,,,,,,,,,,,0.8005,0,,,,,,,,,,,,,,,,,,,,,,,,0.076851852,-0.375,0,0,0,,,,,,,INFANT,C,m,m,./images/INFANT.png,,,,,,,z,0,0.8005,,,,,,,,0,117,117,76,1
,,,,,,,,,,,,,,,,,199780,19,2022-01-29_13h03.27.659,lexical_decision_task_DD_L3,2021.2.3,Win32,60.22282445,,,,,,,,,,,,0.5955,1,,,,,,,,,,,,,,,,,,,,,,,,0.076851852,-0.375,0,0,0,,,,,,,THROAT,LB,m,m,./images/THROATLB.png,,,,,,,m,1,0.5955,,,,,,,,0,118,118,36,1
,,,,,,,,,,,,,,,,,199780,19,2022-01-29_13h03.27.659,lexical_decision_task_DD_L3,2021.2.3,Win32,60.22282445,,,,,,,,,,,,0.9359,1,,,,,,,,,,,,,,,,,,,,,,,,0.076851852,-0.375,0,0,0,,,,,,,STOOL,C,z,m,./images/STOOL.png,,,,,,,z,1,0.9359,,,,,,,,0,119,119,127,1
,,,,,,,,,,,,,,,,,199780,19,2022-01-29_13h03.27.659,lexical_decision_task_DD_L3,2021.2.3,Win32,60.22282445,,,,,,,,,,,,0.578,1,,,,,,,,,,,,,,,,,,,,,,,,0.076851852,-0.375,0,0,0,,,,,,,SMOKER,HB,m,m,./images/SMOKERHB.png,,,,,,,m,1,0.578,,,,,,,,0,120,120,26,1
,,,,,,,,,,,,,,,,,199780,19,2022-01-29_13h03.27.659,lexical_decision_task_DD_L3,2021.2.3,Win32,60.22282445,,,,,,,,,,,,0.9278,0,,,,,,,,,,,,,,,,,,,,,,,,0.076851852,-0.375,0,0,0,,,,,,,POSTER,HB,z,m,./images/POSTERHB.png,,,,,,,m,0,0.9278,,,,,,,,0,121,121,137,1
,,,,,,,,,,,,,,,,,199780,19,2022-01-29_13h03.27.659,lexical_decision_task_DD_L3,2021.2.3,Win32,60.22282445,,,,,,,,,,,,0.7991,1,,,,,,,,,,,,,,,,,,,,,,,,0.076851852,-0.375,0,0,0,,,,,,,BAKER,LB,z,m,./images/BAKERLB.png,,,,,,,z,1,0.7991,,,,,,,,0,122,122,147,1
,,,,,,,,,,,,,,,,,199780,19,2022-01-29_13h03.27.659,lexical_decision_task_DD_L3,2021.2.3,Win32,60.22282445,,,,,,,,,,,,1.068,1,,,,,,,,,,,,,,,,,,,,,,,,0.076851852,-0.375,0,0,0,,,,,,,JUNGLE,HB,m,m,./images/JUNGLEHB.png,,,,,,,m,1,1.068,,,,,,,,0,123,123,83,1
,,,,,,,,,,,,,,,,,199780,19,2022-01-29_13h03.27.659,lexical_decision_task_DD_L3,2021.2.3,Win32,60.22282445,,,,,,,,,,,,0.6541,1,,,,,,,,,,,,,,,,,,,,,,,,0.076851852,-0.375,0,0,0,,,,,,,MUMMY,C,z,m,./images/MUMMY.png,,,,,,,z,1,0.6541,,,,,,,,0,124,124,130,1
,,,,,,,,,,,,,,,,,199780,19,2022-01-29_13h03.27.659,lexical_decision_task_DD_L3,2021.2.3,Win32,60.22282445,,,,,,,,,,,,0.629,1,,,,,,,,,,,,,,,,,,,,,,,,0.076851852,-0.375,0,0,0,space,,,,,,CRUMB,HB,m,m,./images/CRUMBHB.png,1.4958,,,,,,m,1,0.629,,,,,,,,0,125,125,29,1
,,,,,,,,,,,,,,,,,199780,19,2022-01-29_13h03.27.659,lexical_decision_task_DD_L3,2021.2.3,Win32,60.22282445,,,,,,,,,,,,0.6106,1,,,,,,,,,,,,,,,,,,,,,,,,0.076851852,-0.375,0,0,0,,,,,,,WAGON,C,z,m,./images/WAGON.png,,,,,,,z,1,0.6106,,,,,,,,0,126,126,91,1
,,,,,,,,,,,,,,,,,199780,19,2022-01-29_13h03.27.659,lexical_decision_task_DD_L3,2021.2.3,Win32,60.22282445,,,,,,,,,,,,0.57,1,,,,,,,,,,,,,,,,,,,,,,,,0.076851852,-0.375,0,0,0,,,,,,,STORM,LB,m,m,./images/STORMLB.png,,,,,,,m,1,0.57,,,,,,,,0,127,127,30,1
,,,,,,,,,,,,,,,,,199780,19,2022-01-29_13h03.27.659,lexical_decision_task_DD_L3,2021.2.3,Win32,60.22282445,,,,,,,,,,,,0.6766,1,,,,,,,,,,,,,,,,,,,,,,,,0.076851852,-0.375,0,0,0,,,,,,,WEASEL,HB,m,m,./images/WEASELHB.png,,,,,,,m,1,0.6766,,,,,,,,0,128,128,80,1
,,,,,,,,,,,,,,,,,199780,19,2022-01-29_13h03.27.659,lexical_decision_task_DD_L3,2021.2.3,Win32,60.22282445,,,,,,,,,,,,0.488,0,,,,,,,,,,,,,,,,,,,,,,,,0.076851852,-0.375,0,0,0,,,,,,,TOMATO,LB,m,m,./images/TOMATOLB.png,,,,,,,z,0,0.488,,,,,,,,0,129,129,0,1
,,,,,,,,,,,,,,,,,199780,19,2022-01-29_13h03.27.659,lexical_decision_task_DD_L3,2021.2.3,Win32,60.22282445,,,,,,,,,,,,0.7497,0,,,,,,,,,,,,,,,,,,,,,,,,0.076851852,-0.375,0,0,0,,,,,,,BURIAL,HB,m,m,./images/BURIALHB.png,,,,,,,z,0,0.7497,,,,,,,,0,130,130,59,1
,,,,,,,,,,,,,,,,,199780,19,2022-01-29_13h03.27.659,lexical_decision_task_DD_L3,2021.2.3,Win32,60.22282445,,,,,,,,,,,,0.8745,1,,,,,,,,,,,,,,,,,,,,,,,,0.076851852,-0.375,0,0,0,,,,,,,DESERT,C,z,m,./images/DESERT.png,,,,,,,z,1,0.8745,,,,,,,,0,131,131,136,1
,,,,,,,,,,,,,,,,,199780,19,2022-01-29_13h03.27.659,lexical_decision_task_DD_L3,2021.2.3,Win32,60.22282445,,,,,,,,,,,,1.0494,1,,,,,,,,,,,,,,,,,,,,,,,,0.076851852,-0.375,0,0,0,,,,,,,SAUCE,LB,z,m,./images/SAUCELB.png,,,,,,,z,1,1.0494,,,,,,,,0,132,132,135,1
,,,,,,,,,,,,,,,,,199780,19,2022-01-29_13h03.27.659,lexical_decision_task_DD_L3,2021.2.3,Win32,60.22282445,,,,,,,,,,,,0.6,1,,,,,,,,,,,,,,,,,,,,,,,,0.076851852,-0.375,0,0,0,,,,,,,BUNNY,C,z,m,./images/BUNNY.png,,,,,,,z,1,0.6,,,,,,,,0,133,133,97,1
,,,,,,,,,,,,,,,,,199780,19,2022-01-29_13h03.27.659,lexical_decision_task_DD_L3,2021.2.3,Win32,60.22282445,,,,,,,,,,,,0.6864,1,,,,,,,,,,,,,,,,,,,,,,,,0.076851852,-0.375,0,0,0,,,,,,,STATUE,LB,z,m,./images/STATUELB.png,,,,,,,z,1,0.6864,,,,,,,,0,134,134,150,1
,,,,,,,,,,,,,,,,,199780,19,2022-01-29_13h03.27.659,lexical_decision_task_DD_L3,2021.2.3,Win32,60.22282445,,,,,,,,,,,,1.6821,0,,,,,,,,,,,,,,,,,,,,,,,,0.076851852,-0.375,0,0,0,,,,,,,CRUST,C,m,m,./images/CRUST.png,,,,,,,z,0,1.6821,,,,,,,,0,135,135,79,1
,,,,,,,,,,,,,,,,,199780,19,2022-01-29_13h03.27.659,lexical_decision_task_DD_L3,2021.2.3,Win32,60.22282445,,,,,,,,,,,,0.6214,1,,,,,,,,,,,,,,,,,,,,,,,,0.076851852,-0.375,0,0,0,,,,,,,ATTIC,LB,m,m,./images/ATTICLB.png,,,,,,,m,1,0.6214,,,,,,,,0,136,136,27,1
,,,,,,,,,,,,,,,,,199780,19,2022-01-29_13h03.27.659,lexical_decision_task_DD_L3,2021.2.3,Win32,60.22282445,,,,,,,,,,,,0.7004,1,,,,,,,,,,,,,,,,,,,,,,,,0.076851852,-0.375,0,0,0,,,,,,,WALRUS,HB,m,m,./images/WALRUSHB.png,,,,,,,m,1,0.7004,,,,,,,,0,137,137,23,1
,,,,,,,,,,,,,,,,,199780,19,2022-01-29_13h03.27.659,lexical_decision_task_DD_L3,2021.2.3,Win32,60.22282445,,,,,,,,,,,,0.6653,1,,,,,,,,,,,,,,,,,,,,,,,,0.076851852,-0.375,0,0,0,,,,,,,BUTTER,LB,z,m,./images/BUTTERLB.png,,,,,,,z,1,0.6653,,,,,,,,0,138,138,111,1
,,,,,,,,,,,,,,,,,199780,19,2022-01-29_13h03.27.659,lexical_decision_task_DD_L3,2021.2.3,Win32,60.22282445,,,,,,,,,,,,0.7399,0,,,,,,,,,,,,,,,,,,,,,,,,0.076851852,-0.375,0,0,0,,,,,,,ONION,LB,m,m,./images/ONIONLB.png,,,,,,,z,0,0.7399,,,,,,,,0,139,139,51,1
,,,,,,,,,,,,,,,,,199780,19,2022-01-29_13h03.27.659,lexical_decision_task_DD_L3,2021.2.3,Win32,60.22282445,,,,,,,,,,,,0.9417,1,,,,,,,,,,,,,,,,,,,,,,,,0.076851852,-0.375,0,0,0,,,,,,,BABOON,C,m,m,./images/BABOON.png,,,,,,,m,1,0.9417,,,,,,,,0,140,140,58,1
,,,,,,,,,,,,,,,,,199780,19,2022-01-29_13h03.27.659,lexical_decision_task_DD_L3,2021.2.3,Win32,60.22282445,,,,,,,,,,,,0.8662,0,,,,,,,,,,,,,,,,,,,,,,,,0.076851852,-0.375,0,0,0,,,,,,,SWING,C,m,m,./images/SWING.png,,,,,,,z,0,0.8662,,,,,,,,0,141,141,40,1
,,,,,,,,,,,,,,,,,199780,19,2022-01-29_13h03.27.659,lexical_decision_task_DD_L3,2021.2.3,Win32,60.22282445,,,,,,,,,,,,0.79,1,,,,,,,,,,,,,,,,,,,,,,,,0.076851852,-0.375,0,0,0,,,,,,,FENCE,HB,z,m,./images/FENCEHB.png,,,,,,,z,1,0.79,,,,,,,,0,142,142,98,1
,,,,,,,,,,,,,,,,,199780,19,2022-01-29_13h03.27.659,lexical_decision_task_DD_L3,2021.2.3,Win32,60.22282445,,,,,,,,,,,,0.9493,1,,,,,,,,,,,,,,,,,,,,,,,,0.076851852,-0.375,0,0,0,,,,,,,FLASK,LB,z,m,./images/FLASKLB.png,,,,,,,z,1,0.9493,,,,,,,,0,143,143,156,1
,,,,,,,,,,,,,,,,,199780,19,2022-01-29_13h03.27.659,lexical_decision_task_DD_L3,2021.2.3,Win32,60.22282445,,,,,,,,,,,,0.7176,1,,,,,,,,,,,,,,,,,,,,,,,,0.076851852,-0.375,0,0,0,,,,,,,CURRY,LB,z,m,./images/CURRYLB.png,,,,,,,z,1,0.7176,,,,,,,,0,144,144,144,1
,,,,,,,,,,,,,,,,,199780,19,2022-01-29_13h03.27.659,lexical_decision_task_DD_L3,2021.2.3,Win32,60.22282445,,,,,,,,,,,,0.6688,1,,,,,,,,,,,,,,,,,,,,,,,,0.076851852,-0.375,0,0,0,,,,,,,ENGINE,HB,z,m,./images/ENGINEHB.png,,,,,,,z,1,0.6688,,,,,,,,0,145,145,122,1
,,,,,,,,,,,,,,,,,199780,19,2022-01-29_13h03.27.659,lexical_decision_task_DD_L3,2021.2.3,Win32,60.22282445,,,,,,,,,,,,1.0414,1,,,,,,,,,,,,,,,,,,,,,,,,0.076851852,-0.375,0,0,0,,,,,,,STREAM,HB,z,m,./images/STREAMHB.png,,,,,,,z,1,1.0414,,,,,,,,0,146,146,125,1
,,,,,,,,,,,,,,,,,199780,19,2022-01-29_13h03.27.659,lexical_decision_task_DD_L3,2021.2.3,Win32,60.22282445,,,,,,,,,,,,0.7714,0,,,,,,,,,,,,,,,,,,,,,,,,0.076851852,-0.375,0,0,0,,,,,,,DOUGH,C,m,m,./images/DOUGH.png,,,,,,,z,0,0.7714,,,,,,,,0,147,147,19,1
,,,,,,,,,,,,,,,,,199780,19,2022-01-29_13h03.27.659,lexical_decision_task_DD_L3,2021.2.3,Win32,60.22282445,,,,,,,,,,,,0.8614,1,,,,,,,,,,,,,,,,,,,,,,,,0.076851852,-0.375,0,0,0,,,,,,,BASKET,HB,z,m,./images/BASKETHB.png,,,,,,,z,1,0.8614,,,,,,,,0,148,148,128,1
,,,,,,,,,,,,,,,,,199780,19,2022-01-29_13h03.27.659,lexical_decision_task_DD_L3,2021.2.3,Win32,60.22282445,,,,,,,,,,,,0.9992,1,,,,,,,,,,,,,,,,,,,,,,,,0.076851852,-0.375,0,0,0,,,,,,,WHEEL,HB,z,m,./images/WHEELHB.png,,,,,,,z,1,0.9992,,,,,,,,0,149,149,161,1
,,,,,,,,,,,,,,,,,199780,19,2022-01-29_13h03.27.659,lexical_decision_task_DD_L3,2021.2.3,Win32,60.22282445,,,,,,,,,,,,0.7112,1,,,,,,,,,,,,,,,,,,,,,,,,0.076851852,-0.375,0,0,0,,,,,,,CLOUD,HB,z,m,./images/CLOUDHB.png,,,,,,,z,1,0.7112,,,,,,,,0,150,150,110,1
,,,,,,,,,,,,,,,,,199780,19,2022-01-29_13h03.27.659,lexical_decision_task_DD_L3,2021.2.3,Win32,60.22282445,,,,,,,,,,,,1.0841,1,,,,,,,,,,,,,,,,,,,,,,,,0.076851852,-0.375,0,0,0,,,,,,,PLANK,C,m,m,./images/PLANK.png,,,,,,,m,1,1.0841,,,,,,,,0,151,151,1,1
,,,,,,,,,,,,,,,,,199780,19,2022-01-29_13h03.27.659,lexical_decision_task_DD_L3,2021.2.3,Win32,60.22282445,,,,,,,,,,,,0.7257,1,,,,,,,,,,,,,,,,,,,,,,,,0.076851852,-0.375,0,0,0,,,,,,,RAZOR,C,z,m,./images/RAZOR.png,,,,,,,z,1,0.7257,,,,,,,,0,152,152,118,1
,,,,,,,,,,,,,,,,,199780,19,2022-01-29_13h03.27.659,lexical_decision_task_DD_L3,2021.2.3,Win32,60.22282445,,,,,,,,,,,,1.3165,1,,,,,,,,,,,,,,,,,,,,,,,,0.076851852,-0.375,0,0,0,,,,,,,CHALK,C,z,m,./images/CHALK.png,,,,,,,z,1,1.3165,,,,,,,,0,153,153,109,1
,,,,,,,,,,,,,,,,,199780,19,2022-01-29_13h03.27.659,lexical_decision_task_DD_L3,2021.2.3,Win32,60.22282445,,,,,,,,,,,,0.7326,1,,,,,,,,,,,,,,,,,,,,,,,,0.076851852,-0.375,0,0,0,,,,,,,SUNSET,C,m,m,./images/SUNSET.png,,,,,,,m,1,0.7326,,,,,,,,0,154,154,82,1
,,,,,,,,,,,,,,,,,199780,19,2022-01-29_13h03.27.659,lexical_decision_task_DD_L3,2021.2.3,Win32,60.22282445,,,,,,,,,,,,0.6051,1,,,,,,,,,,,,,,,,,,,,,,,,0.076851852,-0.375,0,0,0,,,,,,,SCREW,LB,m,m,./images/SCREWLB.png,,,,,,,m,1,0.6051,,,,,,,,0,155,155,24,1
,,,,,,,,,,,,,,,,,199780,19,2022-01-29_13h03.27.659,lexical_decision_task_DD_L3,2021.2.3,Win32,60.22282445,,,,,,,,,,,,1.2833,1,,,,,,,,,,,,,,,,,,,,,,,,0.076851852,-0.375,0,0,0,,,,,,,HOCKEY,HB,z,m,./images/HOCKEYHB.png,,,,,,,z,1,1.2833,,,,,,,,0,156,156,116,1
,,,,,,,,,,,,,,,,,199780,19,2022-01-29_13h03.27.659,lexical_decision_task_DD_L3,2021.2.3,Win32,60.22282445,,,,,,,,,,,,2.0757,1,,,,,,,,,,,,,,,,,,,,,,,,0.076851852,-0.375,0,0,0,,,,,,,BELLY,C,m,m,./images/BELLY.png,,,,,,,m,1,2.0757,,,,,,,,0,157,157,10,1
,,,,,,,,,,,,,,,,,199780,19,2022-01-29_13h03.27.659,lexical_decision_task_DD_L3,2021.2.3,Win32,60.22282445,,,,,,,,,,,,0.5954,1,,,,,,,,,,,,,,,,,,,,,,,,0.076851852,-0.375,0,0,0,,,,,,,TORCH,HB,m,m,./images/TORCHHB.png,,,,,,,m,1,0.5954,,,,,,,,0,158,158,68,1
,,,,,,,,,,,,,,,,,199780,19,2022-01-29_13h03.27.659,lexical_decision_task_DD_L3,2021.2.3,Win32,60.22282445,,,,,,,,,,,,0.6663,1,,,,,,,,,,,,,,,,,,,,,,,,0.076851852,-0.375,0,0,0,,,,,,,POODLE,LB,m,m,./images/POODLELB.png,,,,,,,m,1,0.6663,,,,,,,,0,159,159,81,1
,,,,,,,,,,,,,,,,,199780,19,2022-01-29_13h03.27.659,lexical_decision_task_DD_L3,2021.2.3,Win32,60.22282445,,,,,,,,,,,,0.6333,1,,,,,,,,,,,,,,,,,,,,,,,,0.076851852,-0.375,0,0,0,,,,,,,WHISKY,HB,z,m,./images/WHISKYHB.png,,,,,,,z,1,0.6333,,,,,,,,0,160,160,167,1
,,,,,,,,,,,,,,,,,199780,19,2022-01-29_13h03.27.659,lexical_decision_task_DD_L3,2021.2.3,Win32,60.22282445,,,,,,,,,,,,0.6926,1,,,,,,,,,,,,,,,,,,,,,,,,0.076851852,-0.375,0,0,0,,,,,,,SAUNA,LB,z,m,./images/SAUNALB.png,,,,,,,z,1,0.6926,,,,,,,,0,161,161,117,1
,,,,,,,,,,,,,,,,,199780,19,2022-01-29_13h03.27.659,lexical_decision_task_DD_L3,2021.2.3,Win32,60.22282445,,,,,,,,,,,,0.6831,1,,,,,,,,,,,,,,,,,,,,,,,,0.076851852,-0.375,0,0,0,,,,,,,PLANET,HB,z,m,./images/PLANETHB.png,,,,,,,z,1,0.6831,,,,,,,,0,162,162,164,1
,,,,,,,,,,,,,,,,,199780,19,2022-01-29_13h03.27.659,lexical_decision_task_DD_L3,2021.2.3,Win32,60.22282445,,,,,,,,,,,,0.8683,1,,,,,,,,,,,,,,,,,,,,,,,,0.076851852,-0.375,0,0,0,,,,,,,MOOSE,LB,m,m,./images/MOOSELB.png,,,,,,,m,1,0.8683,,,,,,,,0,163,163,57,1
,,,,,,,,,,,,,,,,,199780,19,2022-01-29_13h03.27.659,lexical_decision_task_DD_L3,2021.2.3,Win32,60.22282445,,,,,,,,,,,,0.6401,0,,,,,,,,,,,,,,,,,,,,,,,,0.076851852,-0.375,0,0,0,,,,,,,MALLET,HB,m,m,./images/MALLETHB.png,,,,,,,z,0,0.6401,,,,,,,,0,164,164,50,1
,,,,,,,,,,,,,,,,,199780,19,2022-01-29_13h03.27.659,lexical_decision_task_DD_L3,2021.2.3,Win32,60.22282445,,,,,,,,,,,,0.6243,0,,,,,,,,,,,,,,,,,,,,,,,,0.076851852,-0.375,0,0,0,,,,,,,SWEAT,LB,m,m,./images/SWEATLB.png,,,,,,,z,0,0.6243,,,,,,,,0,165,165,66,1
,,,,,,,,,,,,,,,,,199780,19,2022-01-29_13h03.27.659,lexical_decision_task_DD_L3,2021.2.3,Win32,60.22282445,,,,,,,,,,,,0.592,1,,,,,,,,,,,,,,,,,,,,,,,,0.076851852,-0.375,0,0,0,,,,,,,STEAK,C,z,m,./images/STEAK.png,,,,,,,z,1,0.592,,,,,,,,0,166,166,115,1
,,,,,,,,,,,,,,,,,199780,19,2022-01-29_13h03.27.659,lexical_decision_task_DD_L3,2021.2.3,Win32,60.22282445,,,,,,,,,,,,1.8356,1,,,,,,,,,,,,,,,,,,,,,,,,0.076851852,-0.375,0,0,0,,,,,,,TIGER,C,z,m,./images/TIGER.png,,,,,,,z,1,1.8356,,,,,,,,0,167,167,121,1
