key_resp.keys,instr_done_touch.x,instr_done_touch.y,instr_done_touch.leftButton,instr_done_touch.midButton,instr_done_touch.rightButton,instr_done_touch.clicked_name,instruction_pages.thisRepN,instruction_pages.thisTrialN,instruction_pages.thisN,instruction_pages.thisIndex,instruction_pages.ran,pageN,phase,instruct_text,has_image,instruct_image,participant,age,date,expName,psychopyVersion,OS,frameRate,key_resp.rt,response.keys,response.corr,response.rt,touch_resp.x,touch_resp.y,touch_resp.leftButton,touch_resp.midButton,touch_resp.rightButton,touch_resp.time,touch_resp.clicked_name,rt,corr,practrials.thisRepN,practrials.thisTrialN,practrials.thisN,practrials.thisIndex,practrials.ran,TrialID,Target,corrAns,end_of_practice_trials_pages.thisRepN,end_of_practice_trials_pages.thisTrialN,end_of_practice_trials_pages.thisN,end_of_practice_trials_pages.thisIndex,end_of_practice_trials_pages.ran,key_resp_2.keys,key_resp_2.corr,key_resp_2.rt,targ_click.x,targ_click.y,targ_click.leftButton,targ_click.midButton,targ_click.rightButton,targ_click.time,targ_click.clicked_name,break_done_touch.x,break_done_touch.y,break_done_touch.leftButton,break_done_touch.midButton,break_done_touch.rightButton,break_done_keyboard.keys,maintrials.thisRepN,maintrials.thisTrialN,maintrials.thisN,maintrials.thisIndex,maintrials.ran,string,blur,study,lex,stim_path,break_done_keyboard.rt,test_instructions.thisRepN,test_instructions.thisTrialN,test_instructions.thisN,test_instructions.thisIndex,test_instructions.ran,key_resp_3.keys,key_resp_3.corr,key_resp_3.rt,test_click.x,test_click.y,test_click.leftButton,test_click.midButton,test_click.rightButton,test_click.time,test_click.clicked_name,test_phase.thisRepN,test_phase.thisTrialN,test_phase.thisN,test_phase.thisIndex,test_phase.ran
,0.005555556,-0.395555556,1,0,0,instr_done_button,0,0,0,0,1,1,instructions,"INSTRUCTIONS
At the start of each trial, look at the plus sign  (+) in the center of the screen.  This tells you that a trial is about to begin and where to look. Second, the plus sign will disappear and a string of letters will appear. Your task is to determine if the string of letters is a word or not. If the item is a word press the M key (on keyboard)  or touch the word button (phone/tablet).  If the item is not a word,  press the  Z key (on keyboard)  or touch the nonword button (on phone/tablet). 
Press the space bar or touch  continue.",0,,199873,23,2022-01-25_21h36.26.341,lexical_decision_task_DD_L5,2021.2.3,MacIntel,58.82352941,,,,,,,,,,,,,,,,,,,,,,,,,,,,,,,,,,,,,,,,,,,,,,,,,,,,,,,,,,,,,,,,,,,,,,,,,
space,0.005555556,-0.395555556,0,0,0,,0,1,1,1,1,2,instructions,"If your device has a keyboard, press the 'Z' key for nonwords and the 'M' key for words.





Press the space bar or touch the button below to continue.",0,keyboard-example.gif,199873,23,2022-01-25_21h36.26.341,lexical_decision_task_DD_L5,2021.2.3,MacIntel,58.82352941,5.277,,,,,,,,,,,,,,,,,,,,,,,,,,,,,,,,,,,,,,,,,,,,,,,,,,,,,,,,,,,,,,,,,,,,,,,,
space,0.005555556,-0.395555556,0,0,0,,0,2,2,2,1,3,instructions,"If you are using a touchscreen only device, use the buttons on the screen. Do not use the mouse.





Press the space bar or touch the button below to continue.",0,touchscreen-example.gif,199873,23,2022-01-25_21h36.26.341,lexical_decision_task_DD_L5,2021.2.3,MacIntel,58.82352941,2.449,,,,,,,,,,,,,,,,,,,,,,,,,,,,,,,,,,,,,,,,,,,,,,,,,,,,,,,,,,,,,,,,,,,,,,,,
space,0.005555556,-0.395555556,0,0,0,,0,3,3,3,1,4,instructions,"It is very important that you respond as quickly and accurately as possible, as each letter string will only be on the screen for two seconds. If you do not respond within this time, the message 'Too slow!' will be displayed and the experiment will progress to the next letter string. The first 20 trials will be practice trials and you will receive feedback on your answers. 

Press the space bar or touch the button below to start the practice trials.",0,,199873,23,2022-01-25_21h36.26.341,lexical_decision_task_DD_L5,2021.2.3,MacIntel,58.82352941,10.683,,,,,,,,,,,,,,,,,,,,,,,,,,,,,,,,,,,,,,,,,,,,,,,,,,,,,,,,,,,,,,,,,,,,,,,,
,,,,,,,,,,,,,,,,,199873,23,2022-01-25_21h36.26.341,lexical_decision_task_DD_L5,2021.2.3,MacIntel,58.82352941,,m,1,0.821,,,,,,,,0.821,1,0,0,0,1,1,1001,ADJUST,m,,,,,,,,,,,,,,,,,,,,,,,,,,,,,,,,,,,,,,,,,,,,,,,,,,,,
,,,,,,,,,,,,,,,,,199873,23,2022-01-25_21h36.26.341,lexical_decision_task_DD_L5,2021.2.3,MacIntel,58.82352941,,m,1,0.474,,,,,,,,0.474,1,0,1,1,2,1,1001,ALMOND,m,,,,,,,,,,,,,,,,,,,,,,,,,,,,,,,,,,,,,,,,,,,,,,,,,,,,
,,,,,,,,,,,,,,,,,199873,23,2022-01-25_21h36.26.341,lexical_decision_task_DD_L5,2021.2.3,MacIntel,58.82352941,,m,0,0.614,,,,,,,,0.614,0,0,2,2,10,1,1001,INLADE,z,,,,,,,,,,,,,,,,,,,,,,,,,,,,,,,,,,,,,,,,,,,,,,,,,,,,
,,,,,,,,,,,,,,,,,199873,23,2022-01-25_21h36.26.341,lexical_decision_task_DD_L5,2021.2.3,MacIntel,58.82352941,,m,1,0.564,,,,,,,,0.564,1,0,3,3,5,1,1001,OBTAIN,m,,,,,,,,,,,,,,,,,,,,,,,,,,,,,,,,,,,,,,,,,,,,,,,,,,,,
,,,,,,,,,,,,,,,,,199873,23,2022-01-25_21h36.26.341,lexical_decision_task_DD_L5,2021.2.3,MacIntel,58.82352941,,z,1,0.671,,,,,,,,0.671,1,0,4,4,14,1,1001,THRALE,z,,,,,,,,,,,,,,,,,,,,,,,,,,,,,,,,,,,,,,,,,,,,,,,,,,,,
,,,,,,,,,,,,,,,,,199873,23,2022-01-25_21h36.26.341,lexical_decision_task_DD_L5,2021.2.3,MacIntel,58.82352941,,m,1,0.606,,,,,,,,0.606,1,0,5,5,0,1,1001,UTOPIA,m,,,,,,,,,,,,,,,,,,,,,,,,,,,,,,,,,,,,,,,,,,,,,,,,,,,,
,,,,,,,,,,,,,,,,,199873,23,2022-01-25_21h36.26.341,lexical_decision_task_DD_L5,2021.2.3,MacIntel,58.82352941,,m,1,0.545,,,,,,,,0.545,1,0,6,6,4,1,1001,SQUEAK,m,,,,,,,,,,,,,,,,,,,,,,,,,,,,,,,,,,,,,,,,,,,,,,,,,,,,
,,,,,,,,,,,,,,,,,199873,23,2022-01-25_21h36.26.341,lexical_decision_task_DD_L5,2021.2.3,MacIntel,58.82352941,,z,1,0.714,,,,,,,,0.714,1,0,7,7,8,1,1001,ASLERT,z,,,,,,,,,,,,,,,,,,,,,,,,,,,,,,,,,,,,,,,,,,,,,,,,,,,,
,,,,,,,,,,,,,,,,,199873,23,2022-01-25_21h36.26.341,lexical_decision_task_DD_L5,2021.2.3,MacIntel,58.82352941,,m,0,0.965,,,,,,,,0.965,0,0,8,8,11,1,1001,RASHET,z,,,,,,,,,,,,,,,,,,,,,,,,,,,,,,,,,,,,,,,,,,,,,,,,,,,,
,,,,,,,,,,,,,,,,,199873,23,2022-01-25_21h36.26.341,lexical_decision_task_DD_L5,2021.2.3,MacIntel,58.82352941,,m,0,0.643,,,,,,,,0.643,0,0,9,9,9,1,1001,FARINY,z,,,,,,,,,,,,,,,,,,,,,,,,,,,,,,,,,,,,,,,,,,,,,,,,,,,,
,,,,,,,,,,,,,,,,,199873,23,2022-01-25_21h36.26.341,lexical_decision_task_DD_L5,2021.2.3,MacIntel,58.82352941,,m,1,0.516,,,,,,,,0.516,1,0,10,10,6,1,1001,ZOMBIE,m,,,,,,,,,,,,,,,,,,,,,,,,,,,,,,,,,,,,,,,,,,,,,,,,,,,,
,,,,,,,,,,,,,,,,,199873,23,2022-01-25_21h36.26.341,lexical_decision_task_DD_L5,2021.2.3,MacIntel,58.82352941,,z,1,0.632,,,,,,,,0.632,1,0,11,11,12,1,1001,SPRINY,z,,,,,,,,,,,,,,,,,,,,,,,,,,,,,,,,,,,,,,,,,,,,,,,,,,,,
,,,,,,,,,,,,,,,,,199873,23,2022-01-25_21h36.26.341,lexical_decision_task_DD_L5,2021.2.3,MacIntel,58.82352941,,m,1,0.57,,,,,,,,0.57,1,0,12,12,3,1,1001,MATRIX,m,,,,,,,,,,,,,,,,,,,,,,,,,,,,,,,,,,,,,,,,,,,,,,,,,,,,
,,,,,,,,,,,,,,,,,199873,23,2022-01-25_21h36.26.341,lexical_decision_task_DD_L5,2021.2.3,MacIntel,58.82352941,,z,1,0.741,,,,,,,,0.741,1,0,13,13,13,1,1001,ROUPET,z,,,,,,,,,,,,,,,,,,,,,,,,,,,,,,,,,,,,,,,,,,,,,,,,,,,,
,,,,,,,,,,,,,,,,,199873,23,2022-01-25_21h36.26.341,lexical_decision_task_DD_L5,2021.2.3,MacIntel,58.82352941,,m,1,0.606,,,,,,,,0.606,1,0,14,14,7,1,1001,VOLUME,m,,,,,,,,,,,,,,,,,,,,,,,,,,,,,,,,,,,,,,,,,,,,,,,,,,,,
,,,,,,,,,,,,,,,,,199873,23,2022-01-25_21h36.26.341,lexical_decision_task_DD_L5,2021.2.3,MacIntel,58.82352941,,z,1,0.795,,,,,,,,0.795,1,0,15,15,15,1,1001,WHAISE,z,,,,,,,,,,,,,,,,,,,,,,,,,,,,,,,,,,,,,,,,,,,,,,,,,,,,
space,0.005555556,-0.395555556,0,0,0,,,,,,,1,end_of_practice,"You have completed the practice trials. During the experimental trials, you will not receive feedback. 
Before you begin, please ensure that you are in a comfortable and quiet location and will not be disturbed for about 15 minutes, as we cannot use your data if you do not complete all the trials. 
 When you are ready to start the experimental trials, please press space or touch the button below.",,,199873,23,2022-01-25_21h36.26.341,lexical_decision_task_DD_L5,2021.2.3,MacIntel,58.82352941,39.97,,,,,,,,,,,,,,,,,,,,,0,0,0,0,1,,,,,,,,,,,,,,,,,,,,,,,,,,,,,,,,,,,,,,,,,,,,,,,
,,,,,,,,,,,,,,,,,199873,23,2022-01-25_21h36.26.341,lexical_decision_task_DD_L5,2021.2.3,MacIntel,58.82352941,,,,,,,,,,,,1.507,0,,,,,,,,,,,,,,m,0,1.507,,,,,,,,0.005555556,-0.395555556,0,0,0,,0,0,0,12,1,BLOKE,HB,old,y,./images/BLOKEHB.png,,,,,,,,,,,,,,,,,,,,,
,,,,,,,,,,,,,,,,,199873,23,2022-01-25_21h36.26.341,lexical_decision_task_DD_L5,2021.2.3,MacIntel,58.82352941,,,,,,,,,,,,0.77,0,,,,,,,,,,,,,,m,0,0.77,,,,,,,,0.005555556,-0.395555556,0,0,0,,0,1,1,4,1,BOXER,LB,old,y,./images/BOXERLB.png,,,,,,,,,,,,,,,,,,,,,
,,,,,,,,,,,,,,,,,199873,23,2022-01-25_21h36.26.341,lexical_decision_task_DD_L5,2021.2.3,MacIntel,58.82352941,,,,,,,,,,,,0.705,0,,,,,,,,,,,,,,m,0,0.705,,,,,,,,0.005555556,-0.395555556,0,0,0,,0,2,2,83,1,WHISKY,C,old,y,./images/WHISKY.png,,,,,,,,,,,,,,,,,,,,,
,,,,,,,,,,,,,,,,,199873,23,2022-01-25_21h36.26.341,lexical_decision_task_DD_L5,2021.2.3,MacIntel,58.82352941,,,,,,,,,,,,0.861,0,,,,,,,,,,,,,,z,0,0.861,,,,,,,,0.005555556,-0.395555556,0,0,0,,0,3,3,130,1,CRILL,HB,old,n,./images/CRILLHB.png,,,,,,,,,,,,,,,,,,,,,
,,,,,,,,,,,,,,,,,199873,23,2022-01-25_21h36.26.341,lexical_decision_task_DD_L5,2021.2.3,MacIntel,58.82352941,,,,,,,,,,,,0.586,0,,,,,,,,,,,,,,m,0,0.586,,,,,,,,0.005555556,-0.395555556,0,0,0,,0,4,4,2,1,STOVE,C,old,y,./images/STOVE.png,,,,,,,,,,,,,,,,,,,,,
,,,,,,,,,,,,,,,,,199873,23,2022-01-25_21h36.26.341,lexical_decision_task_DD_L5,2021.2.3,MacIntel,58.82352941,,,,,,,,,,,,2.571,0,,,,,,,,,,,,,,z,0,2.571,,,,,,,,0.005555556,-0.395555556,0,0,0,,0,5,5,39,1,CANDY,HB,old,y,./images/CANDYHB.png,,,,,,,,,,,,,,,,,,,,,
,,,,,,,,,,,,,,,,,199873,23,2022-01-25_21h36.26.341,lexical_decision_task_DD_L5,2021.2.3,MacIntel,58.82352941,,,,,,,,,,,,0.754,0,,,,,,,,,,,,,,m,0,0.754,,,,,,,,0.005555556,-0.395555556,0,0,0,,0,6,6,49,1,BISHOP,LB,old,y,./images/BISHOPLB.png,,,,,,,,,,,,,,,,,,,,,
,,,,,,,,,,,,,,,,,199873,23,2022-01-25_21h36.26.341,lexical_decision_task_DD_L5,2021.2.3,MacIntel,58.82352941,,,,,,,,,,,,0.637,0,,,,,,,,,,,,,,m,0,0.637,,,,,,,,0.005555556,-0.395555556,0,0,0,,0,7,7,14,1,FENCE,C,old,y,./images/FENCE.png,,,,,,,,,,,,,,,,,,,,,
,,,,,,,,,,,,,,,,,199873,23,2022-01-25_21h36.26.341,lexical_decision_task_DD_L5,2021.2.3,MacIntel,58.82352941,,,,,,,,,,,,1.32,0,,,,,,,,,,,,,,z,0,1.32,,,,,,,,0.005555556,-0.395555556,0,0,0,,0,8,8,133,1,POWDY,HB,old,n,./images/POWDYHB.png,,,,,,,,,,,,,,,,,,,,,
,,,,,,,,,,,,,,,,,199873,23,2022-01-25_21h36.26.341,lexical_decision_task_DD_L5,2021.2.3,MacIntel,58.82352941,,,,,,,,,,,,0.766,0,,,,,,,,,,,,,,z,0,0.766,,,,,,,,0.005555556,-0.395555556,0,0,0,,0,9,9,18,1,PARCEL,HB,old,y,./images/PARCELHB.png,,,,,,,,,,,,,,,,,,,,,
,,,,,,,,,,,,,,,,,199873,23,2022-01-25_21h36.26.341,lexical_decision_task_DD_L5,2021.2.3,MacIntel,58.82352941,,,,,,,,,,,,0.653,0,,,,,,,,,,,,,,m,0,0.653,,,,,,,,0.005555556,-0.395555556,0,0,0,,0,10,10,13,1,BUNNY,LB,old,y,./images/BUNNYLB.png,,,,,,,,,,,,,,,,,,,,,
,,,,,,,,,,,,,,,,,199873,23,2022-01-25_21h36.26.341,lexical_decision_task_DD_L5,2021.2.3,MacIntel,58.82352941,,,,,,,,,,,,0.702,0,,,,,,,,,,,,,,z,0,0.702,,,,,,,,0.005555556,-0.395555556,0,0,0,,0,11,11,162,1,LEICH,C,old,n,./images/LEICH.png,,,,,,,,,,,,,,,,,,,,,
,,,,,,,,,,,,,,,,,199873,23,2022-01-25_21h36.26.341,lexical_decision_task_DD_L5,2021.2.3,MacIntel,58.82352941,,,,,,,,,,,,0.765,0,,,,,,,,,,,,,,m,0,0.765,,,,,,,,0.005555556,-0.395555556,0,0,0,,0,12,12,114,1,RIKES,C,old,n,./images/RIKES.png,,,,,,,,,,,,,,,,,,,,,
,,,,,,,,,,,,,,,,,199873,23,2022-01-25_21h36.26.341,lexical_decision_task_DD_L5,2021.2.3,MacIntel,58.82352941,,,,,,,,,,,,1.163,0,,,,,,,,,,,,,,m,0,1.163,,,,,,,,0.005555556,-0.395555556,0,0,0,,0,13,13,134,1,TROSS,LB,old,n,./images/TROSSLB.png,,,,,,,,,,,,,,,,,,,,,
,,,,,,,,,,,,,,,,,199873,23,2022-01-25_21h36.26.341,lexical_decision_task_DD_L5,2021.2.3,MacIntel,58.82352941,,,,,,,,,,,,0.857,0,,,,,,,,,,,,,,z,0,0.857,,,,,,,,0.005555556,-0.395555556,0,0,0,,0,14,14,96,1,KEAMS,C,old,n,./images/KEAMS.png,,,,,,,,,,,,,,,,,,,,,
,,,,,,,,,,,,,,,,,199873,23,2022-01-25_21h36.26.341,lexical_decision_task_DD_L5,2021.2.3,MacIntel,58.82352941,,,,,,,,,,,,0.803,0,,,,,,,,,,,,,,z,0,0.803,,,,,,,,0.005555556,-0.395555556,0,0,0,,0,15,15,51,1,SAUCE,HB,old,y,./images/SAUCEHB.png,,,,,,,,,,,,,,,,,,,,,
,,,,,,,,,,,,,,,,,199873,23,2022-01-25_21h36.26.341,lexical_decision_task_DD_L5,2021.2.3,MacIntel,58.82352941,,,,,,,,,,,,0.822,0,,,,,,,,,,,,,,z,0,0.822,,,,,,,,0.005555556,-0.395555556,0,0,0,,0,16,16,123,1,SEDGE,C,old,n,./images/SEDGE.png,,,,,,,,,,,,,,,,,,,,,
,,,,,,,,,,,,,,,,,199873,23,2022-01-25_21h36.26.341,lexical_decision_task_DD_L5,2021.2.3,MacIntel,58.82352941,,,,,,,,,,,,0.92,0,,,,,,,,,,,,,,z,0,0.92,,,,,,,,0.005555556,-0.395555556,0,0,0,,0,17,17,86,1,AIFED,LB,old,n,./images/AIFEDLB.png,,,,,,,,,,,,,,,,,,,,,
,,,,,,,,,,,,,,,,,199873,23,2022-01-25_21h36.26.341,lexical_decision_task_DD_L5,2021.2.3,MacIntel,58.82352941,,,,,,,,,,,,0.572,0,,,,,,,,,,,,,,m,0,0.572,,,,,,,,0.005555556,-0.395555556,0,0,0,,0,18,18,82,1,PEBBLE,LB,old,y,./images/PEBBLELB.png,,,,,,,,,,,,,,,,,,,,,
,,,,,,,,,,,,,,,,,199873,23,2022-01-25_21h36.26.341,lexical_decision_task_DD_L5,2021.2.3,MacIntel,58.82352941,,,,,,,,,,,,0.563,0,,,,,,,,,,,,,,m,0,0.563,,,,,,,,0.005555556,-0.395555556,0,0,0,,0,19,19,7,1,WAGON,LB,old,y,./images/WAGONLB.png,,,,,,,,,,,,,,,,,,,,,
,,,,,,,,,,,,,,,,,199873,23,2022-01-25_21h36.26.341,lexical_decision_task_DD_L5,2021.2.3,MacIntel,58.82352941,,,,,,,,,,,,0.533,0,,,,,,,,,,,,,,m,0,0.533,,,,,,,,0.005555556,-0.395555556,0,0,0,,0,20,20,50,1,PILOT,C,old,y,./images/PILOT.png,,,,,,,,,,,,,,,,,,,,,
,,,,,,,,,,,,,,,,,199873,23,2022-01-25_21h36.26.341,lexical_decision_task_DD_L5,2021.2.3,MacIntel,58.82352941,,,,,,,,,,,,1.891,0,,,,,,,,,,,,,,z,0,1.891,,,,,,,,0.005555556,-0.395555556,0,0,0,,0,21,21,136,1,WERVE,HB,old,n,./images/WERVEHB.png,,,,,,,,,,,,,,,,,,,,,
,,,,,,,,,,,,,,,,,199873,23,2022-01-25_21h36.26.341,lexical_decision_task_DD_L5,2021.2.3,MacIntel,58.82352941,,,,,,,,,,,,0.923,0,,,,,,,,,,,,,,z,0,0.923,,,,,,,,0.005555556,-0.395555556,0,0,0,,0,22,22,98,1,BAMPS,LB,old,n,./images/BAMPSLB.png,,,,,,,,,,,,,,,,,,,,,
,,,,,,,,,,,,,,,,,199873,23,2022-01-25_21h36.26.341,lexical_decision_task_DD_L5,2021.2.3,MacIntel,58.82352941,,,,,,,,,,,,1.221,0,,,,,,,,,,,,,,z,0,1.221,,,,,,,,0.005555556,-0.395555556,0,0,0,,0,23,23,124,1,TUNCH,HB,old,n,./images/TUNCHHB.png,,,,,,,,,,,,,,,,,,,,,
,,,,,,,,,,,,,,,,,199873,23,2022-01-25_21h36.26.341,lexical_decision_task_DD_L5,2021.2.3,MacIntel,58.82352941,,,,,,,,,,,,0.512,0,,,,,,,,,,,,,,m,0,0.512,,,,,,,,0.005555556,-0.395555556,0,0,0,,0,24,24,10,1,GARDEN,LB,old,y,./images/GARDENLB.png,,,,,,,,,,,,,,,,,,,,,
,,,,,,,,,,,,,,,,,199873,23,2022-01-25_21h36.26.341,lexical_decision_task_DD_L5,2021.2.3,MacIntel,58.82352941,,,,,,,,,,,,0.763,0,,,,,,,,,,,,,,m,0,0.763,,,,,,,,0.005555556,-0.395555556,0,0,0,,0,25,25,36,1,BOILER,HB,old,y,./images/BOILERHB.png,,,,,,,,,,,,,,,,,,,,,
,,,,,,,,,,,,,,,,,199873,23,2022-01-25_21h36.26.341,lexical_decision_task_DD_L5,2021.2.3,MacIntel,58.82352941,,,,,,,,,,,,0.735,0,,,,,,,,,,,,,,m,0,0.735,,,,,,,,0.005555556,-0.395555556,0,0,0,,0,26,26,32,1,HOCKEY,C,old,y,./images/HOCKEY.png,,,,,,,,,,,,,,,,,,,,,
,,,,,,,,,,,,,,,,,199873,23,2022-01-25_21h36.26.341,lexical_decision_task_DD_L5,2021.2.3,MacIntel,58.82352941,,,,,,,,,,,,1.906,0,,,,,,,,,,,,,,z,0,1.906,,,,,,,,0.005555556,-0.395555556,0,0,0,,0,27,27,115,1,MAWNS,HB,old,n,./images/MAWNSHB.png,,,,,,,,,,,,,,,,,,,,,
,,,,,,,,,,,,,,,,,199873,23,2022-01-25_21h36.26.341,lexical_decision_task_DD_L5,2021.2.3,MacIntel,58.82352941,,,,,,,,,,,,0.714,0,,,,,,,,,,,,,,m,0,0.714,,,,,,,,0.005555556,-0.395555556,0,0,0,,0,28,28,6,1,STAIN,HB,old,y,./images/STAINHB.png,,,,,,,,,,,,,,,,,,,,,
,,,,,,,,,,,,,,,,,199873,23,2022-01-25_21h36.26.341,lexical_decision_task_DD_L5,2021.2.3,MacIntel,58.82352941,,,,,,,,,,,,0.73,0,,,,,,,,,,,,,,z,0,0.73,,,,,,,,0.005555556,-0.395555556,0,0,0,,0,29,29,138,1,PLICE,C,old,n,./images/PLICE.png,,,,,,,,,,,,,,,,,,,,,
,,,,,,,,,,,,,,,,,199873,23,2022-01-25_21h36.26.341,lexical_decision_task_DD_L5,2021.2.3,MacIntel,58.82352941,,,,,,,,,,,,0.523,0,,,,,,,,,,,,,,m,0,0.523,,,,,,,,0.005555556,-0.395555556,0,0,0,,0,30,30,68,1,VALLEY,C,old,y,./images/VALLEY.png,,,,,,,,,,,,,,,,,,,,,
,,,,,,,,,,,,,,,,,199873,23,2022-01-25_21h36.26.341,lexical_decision_task_DD_L5,2021.2.3,MacIntel,58.82352941,,,,,,,,,,,,0.927,0,,,,,,,,,,,,,,z,0,0.927,,,,,,,,0.005555556,-0.395555556,0,0,0,,0,31,31,126,1,GUELS,C,old,n,./images/GUELS.png,,,,,,,,,,,,,,,,,,,,,
,,,,,,,,,,,,,,,,,199873,23,2022-01-25_21h36.26.341,lexical_decision_task_DD_L5,2021.2.3,MacIntel,58.82352941,,,,,,,,,,,,0.915,0,,,,,,,,,,,,,,z,0,0.915,,,,,,,,0.005555556,-0.395555556,0,0,0,,0,32,32,88,1,GLUSH,HB,old,n,./images/GLUSHHB.png,,,,,,,,,,,,,,,,,,,,,
,,,,,,,,,,,,,,,,,199873,23,2022-01-25_21h36.26.341,lexical_decision_task_DD_L5,2021.2.3,MacIntel,58.82352941,,,,,,,,,,,,0.733,0,,,,,,,,,,,,,,z,0,0.733,,,,,,,,0.005555556,-0.395555556,0,0,0,,0,33,33,116,1,BALGY,LB,old,n,./images/BALGYLB.png,,,,,,,,,,,,,,,,,,,,,
,,,,,,,,,,,,,,,,,199873,23,2022-01-25_21h36.26.341,lexical_decision_task_DD_L5,2021.2.3,MacIntel,58.82352941,,,,,,,,,,,,0.565,0,,,,,,,,,,,,,,m,0,0.565,,,,,,,,0.005555556,-0.395555556,0,0,0,,0,34,34,140,1,DOVET,LB,old,n,./images/DOVETLB.png,,,,,,,,,,,,,,,,,,,,,
,,,,,,,,,,,,,,,,,199873,23,2022-01-25_21h36.26.341,lexical_decision_task_DD_L5,2021.2.3,MacIntel,58.82352941,,,,,,,,,,,,1.703,0,,,,,,,,,,,,,,z,0,1.703,,,,,,,,0.005555556,-0.395555556,0,0,0,,0,35,35,112,1,MYING,HB,old,n,./images/MYINGHB.png,,,,,,,,,,,,,,,,,,,,,
,,,,,,,,,,,,,,,,,199873,23,2022-01-25_21h36.26.341,lexical_decision_task_DD_L5,2021.2.3,MacIntel,58.82352941,,,,,,,,,,,,0.681,0,,,,,,,,,,,,,,z,0,0.681,,,,,,,,0.005555556,-0.395555556,0,0,0,,0,36,36,161,1,BLAPS,LB,old,n,./images/BLAPSLB.png,,,,,,,,,,,,,,,,,,,,,
,,,,,,,,,,,,,,,,,199873,23,2022-01-25_21h36.26.341,lexical_decision_task_DD_L5,2021.2.3,MacIntel,58.82352941,,,,,,,,,,,,0.936,0,,,,,,,,,,,,,,z,0,0.936,,,,,,,,0.005555556,-0.395555556,0,0,0,,0,37,37,152,1,FRAIN,LB,old,n,./images/FRAINLB.png,,,,,,,,,,,,,,,,,,,,,
,,,,,,,,,,,,,,,,,199873,23,2022-01-25_21h36.26.341,lexical_decision_task_DD_L5,2021.2.3,MacIntel,58.82352941,,,,,,,,,,,,1.344,0,,,,,,,,,,,,,,m,0,1.344,,,,,,,,0.005555556,-0.395555556,0,0,0,,0,38,38,106,1,CLUMS,HB,old,n,./images/CLUMSHB.png,,,,,,,,,,,,,,,,,,,,,
,,,,,,,,,,,,,,,,,199873,23,2022-01-25_21h36.26.341,lexical_decision_task_DD_L5,2021.2.3,MacIntel,58.82352941,,,,,,,,,,,,0.656,0,,,,,,,,,,,,,,z,0,0.656,,,,,,,,0.005555556,-0.395555556,0,0,0,,0,39,39,132,1,SCIFF,C,old,n,./images/SCIFF.png,,,,,,,,,,,,,,,,,,,,,
,,,,,,,,,,,,,,,,,199873,23,2022-01-25_21h36.26.341,lexical_decision_task_DD_L5,2021.2.3,MacIntel,58.82352941,,,,,,,,,,,,0.693,0,,,,,,,,,,,,,,z,0,0.693,,,,,,,,0.005555556,-0.395555556,0,0,0,,0,40,40,92,1,PAIMS,LB,old,n,./images/PAIMSLB.png,,,,,,,,,,,,,,,,,,,,,
,,,,,,,,,,,,,,,,,199873,23,2022-01-25_21h36.26.341,lexical_decision_task_DD_L5,2021.2.3,MacIntel,58.82352941,,,,,,,,,,,,0.611,0,,,,,,,,,,,,,,z,0,0.611,,,,,,,,0.005555556,-0.395555556,0,0,0,space,0,41,41,129,1,PRANS,C,old,n,./images/PRANS.png,5.564,,,,,,,,,,,,,,,,,,,,
,,,,,,,,,,,,,,,,,199873,23,2022-01-25_21h36.26.341,lexical_decision_task_DD_L5,2021.2.3,MacIntel,58.82352941,,,,,,,,,,,,0.891,0,,,,,,,,,,,,,,m,0,0.891,,,,,,,,0.005555556,-0.395555556,0,0,0,,0,42,42,24,1,FLESH,HB,old,y,./images/FLESHHB.png,,,,,,,,,,,,,,,,,,,,,
,,,,,,,,,,,,,,,,,199873,23,2022-01-25_21h36.26.341,lexical_decision_task_DD_L5,2021.2.3,MacIntel,58.82352941,,,,,,,,,,,,0.554,0,,,,,,,,,,,,,,z,0,0.554,,,,,,,,0.005555556,-0.395555556,0,0,0,,0,43,43,87,1,TRING,C,old,n,./images/TRING.png,,,,,,,,,,,,,,,,,,,,,
,,,,,,,,,,,,,,,,,199873,23,2022-01-25_21h36.26.341,lexical_decision_task_DD_L5,2021.2.3,MacIntel,58.82352941,,,,,,,,,,,,0.611,0,,,,,,,,,,,,,,z,0,0.611,,,,,,,,0.005555556,-0.395555556,0,0,0,,0,44,44,142,1,PLASK,HB,old,n,./images/PLASKHB.png,,,,,,,,,,,,,,,,,,,,,
,,,,,,,,,,,,,,,,,199873,23,2022-01-25_21h36.26.341,lexical_decision_task_DD_L5,2021.2.3,MacIntel,58.82352941,,,,,,,,,,,,0.62,0,,,,,,,,,,,,,,m,0,0.62,,,,,,,,0.005555556,-0.395555556,0,0,0,,0,45,45,15,1,COLLAR,HB,old,y,./images/COLLARHB.png,,,,,,,,,,,,,,,,,,,,,
,,,,,,,,,,,,,,,,,199873,23,2022-01-25_21h36.26.341,lexical_decision_task_DD_L5,2021.2.3,MacIntel,58.82352941,,,,,,,,,,,,0.576,0,,,,,,,,,,,,,,m,0,0.576,,,,,,,,0.005555556,-0.395555556,0,0,0,,0,46,46,46,1,MUMMY,LB,old,y,./images/MUMMYLB.png,,,,,,,,,,,,,,,,,,,,,
,,,,,,,,,,,,,,,,,199873,23,2022-01-25_21h36.26.341,lexical_decision_task_DD_L5,2021.2.3,MacIntel,58.82352941,,,,,,,,,,,,0.645,0,,,,,,,,,,,,,,m,0,0.645,,,,,,,,0.005555556,-0.395555556,0,0,0,,0,47,47,81,1,DRILL,HB,old,y,./images/DRILLHB.png,,,,,,,,,,,,,,,,,,,,,
,,,,,,,,,,,,,,,,,199873,23,2022-01-25_21h36.26.341,lexical_decision_task_DD_L5,2021.2.3,MacIntel,58.82352941,,,,,,,,,,,,0.515,0,,,,,,,,,,,,,,m,0,0.515,,,,,,,,0.005555556,-0.395555556,0,0,0,,0,48,48,59,1,BRUSH,C,old,y,./images/BRUSH.png,,,,,,,,,,,,,,,,,,,,,
,,,,,,,,,,,,,,,,,199873,23,2022-01-25_21h36.26.341,lexical_decision_task_DD_L5,2021.2.3,MacIntel,58.82352941,,,,,,,,,,,,0.727,0,,,,,,,,,,,,,,z,0,0.727,,,,,,,,0.005555556,-0.395555556,0,0,0,,0,49,49,120,1,RINED,C,old,n,./images/RINED.png,,,,,,,,,,,,,,,,,,,,,
,,,,,,,,,,,,,,,,,199873,23,2022-01-25_21h36.26.341,lexical_decision_task_DD_L5,2021.2.3,MacIntel,58.82352941,,,,,,,,,,,,0.738,0,,,,,,,,,,,,,,m,0,0.738,,,,,,,,0.005555556,-0.395555556,0,0,0,,0,50,50,60,1,CURRY,HB,old,y,./images/CURRYHB.png,,,,,,,,,,,,,,,,,,,,,
,,,,,,,,,,,,,,,,,199873,23,2022-01-25_21h36.26.341,lexical_decision_task_DD_L5,2021.2.3,MacIntel,58.82352941,,,,,,,,,,,,0.998,0,,,,,,,,,,,,,,z,0,0.998,,,,,,,,0.005555556,-0.395555556,0,0,0,,0,51,51,149,1,VEASE,LB,old,n,./images/VEASELB.png,,,,,,,,,,,,,,,,,,,,,
,,,,,,,,,,,,,,,,,199873,23,2022-01-25_21h36.26.341,lexical_decision_task_DD_L5,2021.2.3,MacIntel,58.82352941,,,,,,,,,,,,0.551,0,,,,,,,,,,,,,,m,0,0.551,,,,,,,,0.005555556,-0.395555556,0,0,0,,0,52,52,11,1,MEDAL,C,old,y,./images/MEDAL.png,,,,,,,,,,,,,,,,,,,,,
,,,,,,,,,,,,,,,,,199873,23,2022-01-25_21h36.26.341,lexical_decision_task_DD_L5,2021.2.3,MacIntel,58.82352941,,,,,,,,,,,,0.647,0,,,,,,,,,,,,,,m,0,0.647,,,,,,,,0.005555556,-0.395555556,0,0,0,,0,53,53,54,1,CHERRY,HB,old,y,./images/CHERRYHB.png,,,,,,,,,,,,,,,,,,,,,
,,,,,,,,,,,,,,,,,199873,23,2022-01-25_21h36.26.341,lexical_decision_task_DD_L5,2021.2.3,MacIntel,58.82352941,,,,,,,,,,,,0.778,0,,,,,,,,,,,,,,z,0,0.778,,,,,,,,0.005555556,-0.395555556,0,0,0,,0,54,54,167,1,ZONET,LB,old,n,./images/ZONETLB.png,,,,,,,,,,,,,,,,,,,,,
,,,,,,,,,,,,,,,,,199873,23,2022-01-25_21h36.26.341,lexical_decision_task_DD_L5,2021.2.3,MacIntel,58.82352941,,,,,,,,,,,,0.481,0,,,,,,,,,,,,,,m,0,0.481,,,,,,,,0.005555556,-0.395555556,0,0,0,,0,55,55,1,1,TOWEL,LB,old,y,./images/TOWELLB.png,,,,,,,,,,,,,,,,,,,,,
,,,,,,,,,,,,,,,,,199873,23,2022-01-25_21h36.26.341,lexical_decision_task_DD_L5,2021.2.3,MacIntel,58.82352941,,,,,,,,,,,,0.615,0,,,,,,,,,,,,,,m,0,0.615,,,,,,,,0.005555556,-0.395555556,0,0,0,,0,56,56,29,1,PISTOL,C,old,y,./images/PISTOL.png,,,,,,,,,,,,,,,,,,,,,
,,,,,,,,,,,,,,,,,199873,23,2022-01-25_21h36.26.341,lexical_decision_task_DD_L5,2021.2.3,MacIntel,58.82352941,,,,,,,,,,,,0.672,0,,,,,,,,,,,,,,z,0,0.672,,,,,,,,0.005555556,-0.395555556,0,0,0,,0,57,57,141,1,PLEET,C,old,n,./images/PLEET.png,,,,,,,,,,,,,,,,,,,,,
,,,,,,,,,,,,,,,,,199873,23,2022-01-25_21h36.26.341,lexical_decision_task_DD_L5,2021.2.3,MacIntel,58.82352941,,,,,,,,,,,,1.172,0,,,,,,,,,,,,,,z,0,1.172,,,,,,,,0.005555556,-0.395555556,0,0,0,,0,58,58,148,1,JOMS,HB,old,n,./images/JOMSHB.png,,,,,,,,,,,,,,,,,,,,,
,,,,,,,,,,,,,,,,,199873,23,2022-01-25_21h36.26.341,lexical_decision_task_DD_L5,2021.2.3,MacIntel,58.82352941,,,,,,,,,,,,0.666,0,,,,,,,,,,,,,,z,0,0.666,,,,,,,,0.005555556,-0.395555556,0,0,0,,0,59,59,90,1,NEAST,C,old,n,./images/NEAST.png,,,,,,,,,,,,,,,,,,,,,
,,,,,,,,,,,,,,,,,199873,23,2022-01-25_21h36.26.341,lexical_decision_task_DD_L5,2021.2.3,MacIntel,58.82352941,,,,,,,,,,,,1.028,0,,,,,,,,,,,,,,z,0,1.028,,,,,,,,0.005555556,-0.395555556,0,0,0,,0,60,60,97,1,CHIDS,HB,old,n,./images/CHIDSHB.png,,,,,,,,,,,,,,,,,,,,,
,,,,,,,,,,,,,,,,,199873,23,2022-01-25_21h36.26.341,lexical_decision_task_DD_L5,2021.2.3,MacIntel,58.82352941,,,,,,,,,,,,0.534,0,,,,,,,,,,,,,,m,0,0.534,,,,,,,,0.005555556,-0.395555556,0,0,0,,0,61,61,40,1,SNAKE,LB,old,y,./images/SNAKELB.png,,,,,,,,,,,,,,,,,,,,,
,,,,,,,,,,,,,,,,,199873,23,2022-01-25_21h36.26.341,lexical_decision_task_DD_L5,2021.2.3,MacIntel,58.82352941,,,,,,,,,,,,0.847,0,,,,,,,,,,,,,,m,0,0.847,,,,,,,,0.005555556,-0.395555556,0,0,0,,0,62,62,48,1,SHIELD,HB,old,y,./images/SHIELDHB.png,,,,,,,,,,,,,,,,,,,,,
,,,,,,,,,,,,,,,,,199873,23,2022-01-25_21h36.26.341,lexical_decision_task_DD_L5,2021.2.3,MacIntel,58.82352941,,,,,,,,,,,,0.632,0,,,,,,,,,,,,,,m,0,0.632,,,,,,,,0.005555556,-0.395555556,0,0,0,,0,63,63,56,1,HEATER,C,old,y,./images/HEATER.png,,,,,,,,,,,,,,,,,,,,,
,,,,,,,,,,,,,,,,,199873,23,2022-01-25_21h36.26.341,lexical_decision_task_DD_L5,2021.2.3,MacIntel,58.82352941,,,,,,,,,,,,0.662,0,,,,,,,,,,,,,,z,0,0.662,,,,,,,,0.005555556,-0.395555556,0,0,0,,0,64,64,101,1,GLEET,LB,old,n,./images/GLEETLB.png,,,,,,,,,,,,,,,,,,,,,
,,,,,,,,,,,,,,,,,199873,23,2022-01-25_21h36.26.341,lexical_decision_task_DD_L5,2021.2.3,MacIntel,58.82352941,,,,,,,,,,,,0.578,0,,,,,,,,,,,,,,m,0,0.578,,,,,,,,0.005555556,-0.395555556,0,0,0,,0,65,65,69,1,ARROW,HB,old,y,./images/ARROWHB.png,,,,,,,,,,,,,,,,,,,,,
,,,,,,,,,,,,,,,,,199873,23,2022-01-25_21h36.26.341,lexical_decision_task_DD_L5,2021.2.3,MacIntel,58.82352941,,,,,,,,,,,,0.633,0,,,,,,,,,,,,,,m,0,0.633,,,,,,,,0.005555556,-0.395555556,0,0,0,,0,66,66,21,1,DANCER,HB,old,y,./images/DANCERHB.png,,,,,,,,,,,,,,,,,,,,,
,,,,,,,,,,,,,,,,,199873,23,2022-01-25_21h36.26.341,lexical_decision_task_DD_L5,2021.2.3,MacIntel,58.82352941,,,,,,,,,,,,0.63,0,,,,,,,,,,,,,,m,0,0.63,,,,,,,,0.005555556,-0.395555556,0,0,0,,0,67,67,63,1,BAKER,HB,old,y,./images/BAKERHB.png,,,,,,,,,,,,,,,,,,,,,
,,,,,,,,,,,,,,,,,199873,23,2022-01-25_21h36.26.341,lexical_decision_task_DD_L5,2021.2.3,MacIntel,58.82352941,,,,,,,,,,,,0.569,0,,,,,,,,,,,,,,m,0,0.569,,,,,,,,0.005555556,-0.395555556,0,0,0,,0,68,68,27,1,BUTTER,HB,old,y,./images/BUTTERHB.png,,,,,,,,,,,,,,,,,,,,,
,,,,,,,,,,,,,,,,,199873,23,2022-01-25_21h36.26.341,lexical_decision_task_DD_L5,2021.2.3,MacIntel,58.82352941,,,,,,,,,,,,0.596,0,,,,,,,,,,,,,,m,0,0.596,,,,,,,,0.005555556,-0.395555556,0,0,0,,0,69,69,30,1,SLOPE,HB,old,y,./images/SLOPEHB.png,,,,,,,,,,,,,,,,,,,,,
,,,,,,,,,,,,,,,,,199873,23,2022-01-25_21h36.26.341,lexical_decision_task_DD_L5,2021.2.3,MacIntel,58.82352941,,,,,,,,,,,,0.899,0,,,,,,,,,,,,,,z,0,0.899,,,,,,,,0.005555556,-0.395555556,0,0,0,,0,70,70,103,1,FLORT,HB,old,n,./images/FLORTHB.png,,,,,,,,,,,,,,,,,,,,,
,,,,,,,,,,,,,,,,,199873,23,2022-01-25_21h36.26.341,lexical_decision_task_DD_L5,2021.2.3,MacIntel,58.82352941,,,,,,,,,,,,0.612,0,,,,,,,,,,,,,,m,0,0.612,,,,,,,,0.005555556,-0.395555556,0,0,0,,0,71,71,110,1,CRUNK,LB,old,n,./images/CRUNKLB.png,,,,,,,,,,,,,,,,,,,,,
,,,,,,,,,,,,,,,,,199873,23,2022-01-25_21h36.26.341,lexical_decision_task_DD_L5,2021.2.3,MacIntel,58.82352941,,,,,,,,,,,,0.579,0,,,,,,,,,,,,,,m,0,0.579,,,,,,,,0.005555556,-0.395555556,0,0,0,,0,72,72,75,1,HAMMER,HB,old,y,./images/HAMMERHB.png,,,,,,,,,,,,,,,,,,,,,
,,,,,,,,,,,,,,,,,199873,23,2022-01-25_21h36.26.341,lexical_decision_task_DD_L5,2021.2.3,MacIntel,58.82352941,,,,,,,,,,,,0.52,0,,,,,,,,,,,,,,m,0,0.52,,,,,,,,0.005555556,-0.395555556,0,0,0,,0,73,73,38,1,ENGINE,C,old,y,./images/ENGINE.png,,,,,,,,,,,,,,,,,,,,,
,,,,,,,,,,,,,,,,,199873,23,2022-01-25_21h36.26.341,lexical_decision_task_DD_L5,2021.2.3,MacIntel,58.82352941,,,,,,,,,,,,1.572,0,,,,,,,,,,,,,,z,0,1.572,,,,,,,,0.005555556,-0.395555556,0,0,0,,0,74,74,91,1,SHENS,HB,old,n,./images/SHENSHB.png,,,,,,,,,,,,,,,,,,,,,
,,,,,,,,,,,,,,,,,199873,23,2022-01-25_21h36.26.341,lexical_decision_task_DD_L5,2021.2.3,MacIntel,58.82352941,,,,,,,,,,,,0.628,0,,,,,,,,,,,,,,z,0,0.628,,,,,,,,0.005555556,-0.395555556,0,0,0,,0,75,75,155,1,CANGY,LB,old,n,./images/CANGYLB.png,,,,,,,,,,,,,,,,,,,,,
,,,,,,,,,,,,,,,,,199873,23,2022-01-25_21h36.26.341,lexical_decision_task_DD_L5,2021.2.3,MacIntel,58.82352941,,,,,,,,,,,,0.714,0,,,,,,,,,,,,,,z,0,0.714,,,,,,,,0.005555556,-0.395555556,0,0,0,,0,76,76,153,1,CLUPS,C,old,n,./images/CLUPS.png,,,,,,,,,,,,,,,,,,,,,
,,,,,,,,,,,,,,,,,199873,23,2022-01-25_21h36.26.341,lexical_decision_task_DD_L5,2021.2.3,MacIntel,58.82352941,,,,,,,,,,,,0.71,0,,,,,,,,,,,,,,z,0,0.71,,,,,,,,0.005555556,-0.395555556,0,0,0,,0,77,77,128,1,GRIFT,LB,old,n,./images/GRIFTLB.png,,,,,,,,,,,,,,,,,,,,,
,,,,,,,,,,,,,,,,,199873,23,2022-01-25_21h36.26.341,lexical_decision_task_DD_L5,2021.2.3,MacIntel,58.82352941,,,,,,,,,,,,0.754,0,,,,,,,,,,,,,,m,0,0.754,,,,,,,,0.005555556,-0.395555556,0,0,0,,0,78,78,64,1,BRIDE,LB,old,y,./images/BRIDELB.png,,,,,,,,,,,,,,,,,,,,,
,,,,,,,,,,,,,,,,,199873,23,2022-01-25_21h36.26.341,lexical_decision_task_DD_L5,2021.2.3,MacIntel,58.82352941,,,,,,,,,,,,1.171,0,,,,,,,,,,,,,,z,0,1.171,,,,,,,,0.005555556,-0.395555556,0,0,0,,0,79,79,154,1,THINT,HB,old,n,./images/THINTHB.png,,,,,,,,,,,,,,,,,,,,,
,,,,,,,,,,,,,,,,,199873,23,2022-01-25_21h36.26.341,lexical_decision_task_DD_L5,2021.2.3,MacIntel,58.82352941,,,,,,,,,,,,0.599,0,,,,,,,,,,,,,,m,0,0.599,,,,,,,,0.005555556,-0.395555556,0,0,0,,0,80,80,78,1,BROOM,HB,old,y,./images/BROOMHB.png,,,,,,,,,,,,,,,,,,,,,
,,,,,,,,,,,,,,,,,199873,23,2022-01-25_21h36.26.341,lexical_decision_task_DD_L5,2021.2.3,MacIntel,58.82352941,,,,,,,,,,,,0.594,0,,,,,,,,,,,,,,z,0,0.594,,,,,,,,0.005555556,-0.395555556,0,0,0,,0,81,81,107,1,FASKS,LB,old,n,./images/FASKSLB.png,,,,,,,,,,,,,,,,,,,,,
,,,,,,,,,,,,,,,,,199873,23,2022-01-25_21h36.26.341,lexical_decision_task_DD_L5,2021.2.3,MacIntel,58.82352941,,,,,,,,,,,,0.626,0,,,,,,,,,,,,,,m,0,0.626,,,,,,,,0.005555556,-0.395555556,0,0,0,,0,82,82,19,1,DONKEY,LB,old,y,./images/DONKEYLB.png,,,,,,,,,,,,,,,,,,,,,
,,,,,,,,,,,,,,,,,199873,23,2022-01-25_21h36.26.341,lexical_decision_task_DD_L5,2021.2.3,MacIntel,58.82352941,,,,,,,,,,,,0.697,0,,,,,,,,,,,,,,z,0,0.697,,,,,,,,0.005555556,-0.395555556,0,0,0,space,0,83,83,93,1,SMONE,C,old,n,./images/SMONE.png,27.062,,,,,,,,,,,,,,,,,,,,
,,,,,,,,,,,,,,,,,199873,23,2022-01-25_21h36.26.341,lexical_decision_task_DD_L5,2021.2.3,MacIntel,58.82352941,,,,,,,,,,,,0.52,0,,,,,,,,,,,,,,m,0,0.52,,,,,,,,0.005555556,-0.395555556,0,0,0,,0,84,84,28,1,CASINO,LB,old,y,./images/CASINOLB.png,,,,,,,,,,,,,,,,,,,,,
,,,,,,,,,,,,,,,,,199873,23,2022-01-25_21h36.26.341,lexical_decision_task_DD_L5,2021.2.3,MacIntel,58.82352941,,,,,,,,,,,,0.535,0,,,,,,,,,,,,,,z,0,0.535,,,,,,,,0.005555556,-0.395555556,0,0,0,,0,85,85,104,1,GITTY,LB,old,n,./images/GITTYLB.png,,,,,,,,,,,,,,,,,,,,,
,,,,,,,,,,,,,,,,,199873,23,2022-01-25_21h36.26.341,lexical_decision_task_DD_L5,2021.2.3,MacIntel,58.82352941,,,,,,,,,,,,0.705,0,,,,,,,,,,,,,,z,0,0.705,,,,,,,,0.005555556,-0.395555556,0,0,0,,0,86,86,164,1,SGREW,LB,old,n,./images/SGREWLB.png,,,,,,,,,,,,,,,,,,,,,
,,,,,,,,,,,,,,,,,199873,23,2022-01-25_21h36.26.341,lexical_decision_task_DD_L5,2021.2.3,MacIntel,58.82352941,,,,,,,,,,,,0.687,0,,,,,,,,,,,,,,m,0,0.687,,,,,,,,0.005555556,-0.395555556,0,0,0,,0,87,87,3,1,CRATER,HB,old,y,./images/CRATERHB.png,,,,,,,,,,,,,,,,,,,,,
,,,,,,,,,,,,,,,,,199873,23,2022-01-25_21h36.26.341,lexical_decision_task_DD_L5,2021.2.3,MacIntel,58.82352941,,,,,,,,,,,,0.686,0,,,,,,,,,,,,,,m,0,0.686,,,,,,,,0.005555556,-0.395555556,0,0,0,,0,88,88,47,1,LAGOON,C,old,y,./images/LAGOON.png,,,,,,,,,,,,,,,,,,,,,
,,,,,,,,,,,,,,,,,199873,23,2022-01-25_21h36.26.341,lexical_decision_task_DD_L5,2021.2.3,MacIntel,58.82352941,,,,,,,,,,,,0.591,0,,,,,,,,,,,,,,z,0,0.591,,,,,,,,0.005555556,-0.395555556,0,0,0,,0,89,89,156,1,HIXES,C,old,n,./images/HIXES.png,,,,,,,,,,,,,,,,,,,,,
,,,,,,,,,,,,,,,,,199873,23,2022-01-25_21h36.26.341,lexical_decision_task_DD_L5,2021.2.3,MacIntel,58.82352941,,,,,,,,,,,,0.771,0,,,,,,,,,,,,,,m,0,0.771,,,,,,,,0.005555556,-0.395555556,0,0,0,,0,90,90,72,1,FLASK,HB,old,y,./images/FLASKHB.png,,,,,,,,,,,,,,,,,,,,,
,,,,,,,,,,,,,,,,,199873,23,2022-01-25_21h36.26.341,lexical_decision_task_DD_L5,2021.2.3,MacIntel,58.82352941,,,,,,,,,,,,0.483,0,,,,,,,,,,,,,,m,0,0.483,,,,,,,,0.005555556,-0.395555556,0,0,0,,0,91,91,44,1,BASKET,C,old,y,./images/BASKET.png,,,,,,,,,,,,,,,,,,,,,
,,,,,,,,,,,,,,,,,199873,23,2022-01-25_21h36.26.341,lexical_decision_task_DD_L5,2021.2.3,MacIntel,58.82352941,,,,,,,,,,,,0.422,0,,,,,,,,,,,,,,m,0,0.422,,,,,,,,0.005555556,-0.395555556,0,0,0,,0,92,92,37,1,TIGER,LB,old,y,./images/TIGERLB.png,,,,,,,,,,,,,,,,,,,,,
,,,,,,,,,,,,,,,,,199873,23,2022-01-25_21h36.26.341,lexical_decision_task_DD_L5,2021.2.3,MacIntel,58.82352941,,,,,,,,,,,,0.515,0,,,,,,,,,,,,,,z,0,0.515,,,,,,,,0.005555556,-0.395555556,0,0,0,,0,93,93,84,1,HAXES,C,old,n,./images/HAXES.png,,,,,,,,,,,,,,,,,,,,,
,,,,,,,,,,,,,,,,,199873,23,2022-01-25_21h36.26.341,lexical_decision_task_DD_L5,2021.2.3,MacIntel,58.82352941,,,,,,,,,,,,0.667,0,,,,,,,,,,,,,,z,0,0.667,,,,,,,,0.005555556,-0.395555556,0,0,0,,0,94,94,85,1,CHULK,HB,old,n,./images/CHULKHB.png,,,,,,,,,,,,,,,,,,,,,
,,,,,,,,,,,,,,,,,199873,23,2022-01-25_21h36.26.341,lexical_decision_task_DD_L5,2021.2.3,MacIntel,58.82352941,,,,,,,,,,,,0.621,0,,,,,,,,,,,,,,z,0,0.621,,,,,,,,0.005555556,-0.395555556,0,0,0,,0,95,95,143,1,MONGS,LB,old,n,./images/MONGSLB.png,,,,,,,,,,,,,,,,,,,,,
,,,,,,,,,,,,,,,,,199873,23,2022-01-25_21h36.26.341,lexical_decision_task_DD_L5,2021.2.3,MacIntel,58.82352941,,,,,,,,,,,,0.53,0,,,,,,,,,,,,,,m,0,0.53,,,,,,,,0.005555556,-0.395555556,0,0,0,,0,96,96,26,1,CLOUD,C,old,y,./images/CLOUD.png,,,,,,,,,,,,,,,,,,,,,
,,,,,,,,,,,,,,,,,199873,23,2022-01-25_21h36.26.341,lexical_decision_task_DD_L5,2021.2.3,MacIntel,58.82352941,,,,,,,,,,,,0.604,0,,,,,,,,,,,,,,m,0,0.604,,,,,,,,0.005555556,-0.395555556,0,0,0,,0,97,97,67,1,POKER,LB,old,y,./images/POKERLB.png,,,,,,,,,,,,,,,,,,,,,
,,,,,,,,,,,,,,,,,199873,23,2022-01-25_21h36.26.341,lexical_decision_task_DD_L5,2021.2.3,MacIntel,58.82352941,,,,,,,,,,,,0.761,0,,,,,,,,,,,,,,z,0,0.761,,,,,,,,0.005555556,-0.395555556,0,0,0,,0,98,98,121,1,CEERS,HB,old,n,./images/CEERSHB.png,,,,,,,,,,,,,,,,,,,,,
,,,,,,,,,,,,,,,,,199873,23,2022-01-25_21h36.26.341,lexical_decision_task_DD_L5,2021.2.3,MacIntel,58.82352941,,,,,,,,,,,,0.512,0,,,,,,,,,,,,,,m,0,0.512,,,,,,,,0.005555556,-0.395555556,0,0,0,,0,99,99,53,1,POSTER,C,old,y,./images/POSTER.png,,,,,,,,,,,,,,,,,,,,,
,,,,,,,,,,,,,,,,,199873,23,2022-01-25_21h36.26.341,lexical_decision_task_DD_L5,2021.2.3,MacIntel,58.82352941,,,,,,,,,,,,0.559,0,,,,,,,,,,,,,,z,0,0.559,,,,,,,,0.005555556,-0.395555556,0,0,0,,0,100,100,131,1,NACES,LB,old,n,./images/NACESLB.png,,,,,,,,,,,,,,,,,,,,,
,,,,,,,,,,,,,,,,,199873,23,2022-01-25_21h36.26.341,lexical_decision_task_DD_L5,2021.2.3,MacIntel,58.82352941,,,,,,,,,,,,0.995,0,,,,,,,,,,,,,,z,0,0.995,,,,,,,,0.005555556,-0.395555556,0,0,0,,0,101,101,151,1,TINKY,HB,old,n,./images/TINKYHB.png,,,,,,,,,,,,,,,,,,,,,
,,,,,,,,,,,,,,,,,199873,23,2022-01-25_21h36.26.341,lexical_decision_task_DD_L5,2021.2.3,MacIntel,58.82352941,,,,,,,,,,,,0.662,0,,,,,,,,,,,,,,z,0,0.662,,,,,,,,0.005555556,-0.395555556,0,0,0,,0,102,102,113,1,LINEW,LB,old,n,./images/LINEWLB.png,,,,,,,,,,,,,,,,,,,,,
,,,,,,,,,,,,,,,,,199873,23,2022-01-25_21h36.26.341,lexical_decision_task_DD_L5,2021.2.3,MacIntel,58.82352941,,,,,,,,,,,,1.03,0,,,,,,,,,,,,,,m,0,1.03,,,,,,,,0.005555556,-0.395555556,0,0,0,,0,103,103,9,1,DIVER,HB,old,y,./images/DIVERHB.png,,,,,,,,,,,,,,,,,,,,,
,,,,,,,,,,,,,,,,,199873,23,2022-01-25_21h36.26.341,lexical_decision_task_DD_L5,2021.2.3,MacIntel,58.82352941,,,,,,,,,,,,0.476,0,,,,,,,,,,,,,,m,0,0.476,,,,,,,,0.005555556,-0.395555556,0,0,0,,0,104,104,16,1,GRAPE,LB,old,y,./images/GRAPELB.png,,,,,,,,,,,,,,,,,,,,,
,,,,,,,,,,,,,,,,,199873,23,2022-01-25_21h36.26.341,lexical_decision_task_DD_L5,2021.2.3,MacIntel,58.82352941,,,,,,,,,,,,0.545,0,,,,,,,,,,,,,,z,0,0.545,,,,,,,,0.005555556,-0.395555556,0,0,0,,0,105,105,95,1,HANTY,LB,old,n,./images/HANTYLB.png,,,,,,,,,,,,,,,,,,,,,
,,,,,,,,,,,,,,,,,199873,23,2022-01-25_21h36.26.341,lexical_decision_task_DD_L5,2021.2.3,MacIntel,58.82352941,,,,,,,,,,,,0.622,0,,,,,,,,,,,,,,z,0,0.622,,,,,,,,0.005555556,-0.395555556,0,0,0,,0,106,106,102,1,DULLE,C,old,n,./images/DULLE.png,,,,,,,,,,,,,,,,,,,,,
,,,,,,,,,,,,,,,,,199873,23,2022-01-25_21h36.26.341,lexical_decision_task_DD_L5,2021.2.3,MacIntel,58.82352941,,,,,,,,,,,,0.74,0,,,,,,,,,,,,,,z,0,0.74,,,,,,,,0.005555556,-0.395555556,0,0,0,,0,107,107,165,1,TROWN,C,old,n,./images/TROWN.png,,,,,,,,,,,,,,,,,,,,,
,,,,,,,,,,,,,,,,,199873,23,2022-01-25_21h36.26.341,lexical_decision_task_DD_L5,2021.2.3,MacIntel,58.82352941,,,,,,,,,,,,0.555,0,,,,,,,,,,,,,,z,0,0.555,,,,,,,,0.005555556,-0.395555556,0,0,0,,0,108,108,144,1,NAIRY,C,old,n,./images/NAIRY.png,,,,,,,,,,,,,,,,,,,,,
,,,,,,,,,,,,,,,,,199873,23,2022-01-25_21h36.26.341,lexical_decision_task_DD_L5,2021.2.3,MacIntel,58.82352941,,,,,,,,,,,,0.573,0,,,,,,,,,,,,,,z,0,0.573,,,,,,,,0.005555556,-0.395555556,0,0,0,,0,109,109,158,1,EGECT,LB,old,n,./images/EGECTLB.png,,,,,,,,,,,,,,,,,,,,,
,,,,,,,,,,,,,,,,,199873,23,2022-01-25_21h36.26.341,lexical_decision_task_DD_L5,2021.2.3,MacIntel,58.82352941,,,,,,,,,,,,0.764,0,,,,,,,,,,,,,,m,0,0.764,,,,,,,,0.005555556,-0.395555556,0,0,0,,0,110,110,65,1,SPINE,C,old,y,./images/SPINE.png,,,,,,,,,,,,,,,,,,,,,
,,,,,,,,,,,,,,,,,199873,23,2022-01-25_21h36.26.341,lexical_decision_task_DD_L5,2021.2.3,MacIntel,58.82352941,,,,,,,,,,,,0.62,0,,,,,,,,,,,,,,m,0,0.62,,,,,,,,0.005555556,-0.395555556,0,0,0,,0,111,111,0,1,WALNUT,HB,old,y,./images/WALNUTHB.png,,,,,,,,,,,,,,,,,,,,,
,,,,,,,,,,,,,,,,,199873,23,2022-01-25_21h36.26.341,lexical_decision_task_DD_L5,2021.2.3,MacIntel,58.82352941,,,,,,,,,,,,0.73,0,,,,,,,,,,,,,,z,0,0.73,,,,,,,,0.005555556,-0.395555556,0,0,0,,0,112,112,159,1,CUDDY,C,old,n,./images/CUDDY.png,,,,,,,,,,,,,,,,,,,,,
,,,,,,,,,,,,,,,,,199873,23,2022-01-25_21h36.26.341,lexical_decision_task_DD_L5,2021.2.3,MacIntel,58.82352941,,,,,,,,,,,,0.751,0,,,,,,,,,,,,,,z,0,0.751,,,,,,,,0.005555556,-0.395555556,0,0,0,,0,113,113,160,1,VEETS,HB,old,n,./images/VEETSHB.png,,,,,,,,,,,,,,,,,,,,,
,,,,,,,,,,,,,,,,,199873,23,2022-01-25_21h36.26.341,lexical_decision_task_DD_L5,2021.2.3,MacIntel,58.82352941,,,,,,,,,,,,0.583,0,,,,,,,,,,,,,,z,0,0.583,,,,,,,,0.005555556,-0.395555556,0,0,0,,0,114,114,125,1,MOOKY,LB,old,n,./images/MOOKYLB.png,,,,,,,,,,,,,,,,,,,,,
,,,,,,,,,,,,,,,,,199873,23,2022-01-25_21h36.26.341,lexical_decision_task_DD_L5,2021.2.3,MacIntel,58.82352941,,,,,,,,,,,,0.712,0,,,,,,,,,,,,,,z,0,0.712,,,,,,,,0.005555556,-0.395555556,0,0,0,,0,115,115,94,1,BLANS,HB,old,n,./images/BLANSHB.png,,,,,,,,,,,,,,,,,,,,,
,,,,,,,,,,,,,,,,,199873,23,2022-01-25_21h36.26.341,lexical_decision_task_DD_L5,2021.2.3,MacIntel,58.82352941,,,,,,,,,,,,0.615,0,,,,,,,,,,,,,,m,0,0.615,,,,,,,,0.005555556,-0.395555556,0,0,0,,0,116,116,70,1,BANANA,LB,old,y,./images/BANANALB.png,,,,,,,,,,,,,,,,,,,,,
,,,,,,,,,,,,,,,,,199873,23,2022-01-25_21h36.26.341,lexical_decision_task_DD_L5,2021.2.3,MacIntel,58.82352941,,,,,,,,,,,,0.66,0,,,,,,,,,,,,,,m,0,0.66,,,,,,,,0.005555556,-0.395555556,0,0,0,,0,117,117,58,1,CANOE,LB,old,y,./images/CANOELB.png,,,,,,,,,,,,,,,,,,,,,
,,,,,,,,,,,,,,,,,199873,23,2022-01-25_21h36.26.341,lexical_decision_task_DD_L5,2021.2.3,MacIntel,58.82352941,,,,,,,,,,,,0.736,0,,,,,,,,,,,,,,z,0,0.736,,,,,,,,0.005555556,-0.395555556,0,0,0,,0,118,118,117,1,STEEG,C,old,n,./images/STEEG.png,,,,,,,,,,,,,,,,,,,,,
,,,,,,,,,,,,,,,,,199873,23,2022-01-25_21h36.26.341,lexical_decision_task_DD_L5,2021.2.3,MacIntel,58.82352941,,,,,,,,,,,,0.568,0,,,,,,,,,,,,,,m,0,0.568,,,,,,,,0.005555556,-0.395555556,0,0,0,,0,119,119,35,1,LLAMA,C,old,y,./images/LLAMA.png,,,,,,,,,,,,,,,,,,,,,
,,,,,,,,,,,,,,,,,199873,23,2022-01-25_21h36.26.341,lexical_decision_task_DD_L5,2021.2.3,MacIntel,58.82352941,,,,,,,,,,,,0.954,0,,,,,,,,,,,,,,z,0,0.954,,,,,,,,0.005555556,-0.395555556,0,0,0,,0,120,120,163,1,GAMBA,HB,old,n,./images/GAMBAHB.png,,,,,,,,,,,,,,,,,,,,,
,,,,,,,,,,,,,,,,,199873,23,2022-01-25_21h36.26.341,lexical_decision_task_DD_L5,2021.2.3,MacIntel,58.82352941,,,,,,,,,,,,0.626,0,,,,,,,,,,,,,,m,0,0.626,,,,,,,,0.005555556,-0.395555556,0,0,0,,0,121,121,25,1,CHALK,LB,old,y,./images/CHALKLB.png,,,,,,,,,,,,,,,,,,,,,
,,,,,,,,,,,,,,,,,199873,23,2022-01-25_21h36.26.341,lexical_decision_task_DD_L5,2021.2.3,MacIntel,58.82352941,,,,,,,,,,,,0.67,0,,,,,,,,,,,,,,z,0,0.67,,,,,,,,0.005555556,-0.395555556,0,0,0,,0,122,122,119,1,PAFER,LB,old,n,./images/PAFERLB.png,,,,,,,,,,,,,,,,,,,,,
,,,,,,,,,,,,,,,,,199873,23,2022-01-25_21h36.26.341,lexical_decision_task_DD_L5,2021.2.3,MacIntel,58.82352941,,,,,,,,,,,,0.594,0,,,,,,,,,,,,,,m,0,0.594,,,,,,,,0.005555556,-0.395555556,0,0,0,,0,123,123,8,1,CLIFF,C,old,y,./images/CLIFF.png,,,,,,,,,,,,,,,,,,,,,
,,,,,,,,,,,,,,,,,199873,23,2022-01-25_21h36.26.341,lexical_decision_task_DD_L5,2021.2.3,MacIntel,58.82352941,,,,,,,,,,,,0.821,0,,,,,,,,,,,,,,z,0,0.821,,,,,,,,0.005555556,-0.395555556,0,0,0,,0,124,124,127,1,NINDY,HB,old,n,./images/NINDYHB.png,,,,,,,,,,,,,,,,,,,,,
,,,,,,,,,,,,,,,,,199873,23,2022-01-25_21h36.26.341,lexical_decision_task_DD_L5,2021.2.3,MacIntel,58.82352941,,,,,,,,,,,,0.553,0,,,,,,,,,,,,,,m,0,0.553,,,,,,,,0.005555556,-0.395555556,0,0,0,space,0,125,125,61,1,ARTIST,LB,old,y,./images/ARTISTLB.png,1.46,,,,,,,,,,,,,,,,,,,,
,,,,,,,,,,,,,,,,,199873,23,2022-01-25_21h36.26.341,lexical_decision_task_DD_L5,2021.2.3,MacIntel,58.82352941,,,,,,,,,,,,0.701,0,,,,,,,,,,,,,,m,0,0.701,,,,,,,,0.005555556,-0.395555556,0,0,0,,0,126,126,57,1,FERRY,HB,old,y,./images/FERRYHB.png,,,,,,,,,,,,,,,,,,,,,
,,,,,,,,,,,,,,,,,199873,23,2022-01-25_21h36.26.341,lexical_decision_task_DD_L5,2021.2.3,MacIntel,58.82352941,,,,,,,,,,,,0.585,0,,,,,,,,,,,,,,m,0,0.585,,,,,,,,0.005555556,-0.395555556,0,0,0,,0,127,127,66,1,STATUE,HB,old,y,./images/STATUEHB.png,,,,,,,,,,,,,,,,,,,,,
,,,,,,,,,,,,,,,,,199873,23,2022-01-25_21h36.26.341,lexical_decision_task_DD_L5,2021.2.3,MacIntel,58.82352941,,,,,,,,,,,,0.498,0,,,,,,,,,,,,,,m,0,0.498,,,,,,,,0.005555556,-0.395555556,0,0,0,,0,128,128,43,1,STOOL,LB,old,y,./images/STOOLLB.png,,,,,,,,,,,,,,,,,,,,,
,,,,,,,,,,,,,,,,,199873,23,2022-01-25_21h36.26.341,lexical_decision_task_DD_L5,2021.2.3,MacIntel,58.82352941,,,,,,,,,,,,0.609,0,,,,,,,,,,,,,,z,0,0.609,,,,,,,,0.005555556,-0.395555556,0,0,0,,0,129,129,145,1,LAMEL,HB,old,n,./images/LAMELHB.png,,,,,,,,,,,,,,,,,,,,,
,,,,,,,,,,,,,,,,,199873,23,2022-01-25_21h36.26.341,lexical_decision_task_DD_L5,2021.2.3,MacIntel,58.82352941,,,,,,,,,,,,0.407,0,,,,,,,,,,,,,,m,0,0.407,,,,,,,,0.005555556,-0.395555556,0,0,0,,0,130,130,5,1,BAMBOO,C,old,y,./images/BAMBOO.png,,,,,,,,,,,,,,,,,,,,,
,,,,,,,,,,,,,,,,,199873,23,2022-01-25_21h36.26.341,lexical_decision_task_DD_L5,2021.2.3,MacIntel,58.82352941,,,,,,,,,,,,0.538,0,,,,,,,,,,,,,,m,0,0.538,,,,,,,,0.005555556,-0.395555556,0,0,0,,0,131,131,31,1,STEAK,LB,old,y,./images/STEAKLB.png,,,,,,,,,,,,,,,,,,,,,
,,,,,,,,,,,,,,,,,199873,23,2022-01-25_21h36.26.341,lexical_decision_task_DD_L5,2021.2.3,MacIntel,58.82352941,,,,,,,,,,,,0.554,0,,,,,,,,,,,,,,m,0,0.554,,,,,,,,0.005555556,-0.395555556,0,0,0,,0,132,132,79,1,RULER,LB,old,y,./images/RULERLB.png,,,,,,,,,,,,,,,,,,,,,
,,,,,,,,,,,,,,,,,199873,23,2022-01-25_21h36.26.341,lexical_decision_task_DD_L5,2021.2.3,MacIntel,58.82352941,,,,,,,,,,,,0.597,0,,,,,,,,,,,,,,z,0,0.597,,,,,,,,0.005555556,-0.395555556,0,0,0,,0,133,133,89,1,DRIEK,LB,old,n,./images/DRIEKLB.png,,,,,,,,,,,,,,,,,,,,,
,,,,,,,,,,,,,,,,,199873,23,2022-01-25_21h36.26.341,lexical_decision_task_DD_L5,2021.2.3,MacIntel,58.82352941,,,,,,,,,,,,1.361,0,,,,,,,,,,,,,,z,0,1.361,,,,,,,,0.005555556,-0.395555556,0,0,0,,0,134,134,166,1,SHORY,HB,old,n,./images/SHORYHB.png,,,,,,,,,,,,,,,,,,,,,
,,,,,,,,,,,,,,,,,199873,23,2022-01-25_21h36.26.341,lexical_decision_task_DD_L5,2021.2.3,MacIntel,58.82352941,,,,,,,,,,,,0.744,0,,,,,,,,,,,,,,z,0,0.744,,,,,,,,0.005555556,-0.395555556,0,0,0,,0,135,135,150,1,NOOLS,C,old,n,./images/NOOLS.png,,,,,,,,,,,,,,,,,,,,,
,,,,,,,,,,,,,,,,,199873,23,2022-01-25_21h36.26.341,lexical_decision_task_DD_L5,2021.2.3,MacIntel,58.82352941,,,,,,,,,,,,0.688,0,,,,,,,,,,,,,,m,0,0.688,,,,,,,,0.005555556,-0.395555556,0,0,0,,0,136,136,41,1,STREAM,C,old,y,./images/STREAM.png,,,,,,,,,,,,,,,,,,,,,
,,,,,,,,,,,,,,,,,199873,23,2022-01-25_21h36.26.341,lexical_decision_task_DD_L5,2021.2.3,MacIntel,58.82352941,,,,,,,,,,,,0.447,0,,,,,,,,,,,,,,m,0,0.447,,,,,,,,0.005555556,-0.395555556,0,0,0,,0,137,137,74,1,JUMPER,C,old,y,./images/JUMPER.png,,,,,,,,,,,,,,,,,,,,,
,,,,,,,,,,,,,,,,,199873,23,2022-01-25_21h36.26.341,lexical_decision_task_DD_L5,2021.2.3,MacIntel,58.82352941,,,,,,,,,,,,0.446,0,,,,,,,,,,,,,,m,0,0.446,,,,,,,,0.005555556,-0.395555556,0,0,0,,0,138,138,77,1,WHEEL,C,old,y,./images/WHEEL.png,,,,,,,,,,,,,,,,,,,,,
,,,,,,,,,,,,,,,,,199873,23,2022-01-25_21h36.26.341,lexical_decision_task_DD_L5,2021.2.3,MacIntel,58.82352941,,,,,,,,,,,,0.46,0,,,,,,,,,,,,,,m,0,0.46,,,,,,,,0.005555556,-0.395555556,0,0,0,,0,139,139,146,1,MOOST,LB,old,n,./images/MOOSTLB.png,,,,,,,,,,,,,,,,,,,,,
,,,,,,,,,,,,,,,,,199873,23,2022-01-25_21h36.26.341,lexical_decision_task_DD_L5,2021.2.3,MacIntel,58.82352941,,,,,,,,,,,,0.711,0,,,,,,,,,,,,,,z,0,0.711,,,,,,,,0.005555556,-0.395555556,0,0,0,,0,140,140,118,1,BAVEL,HB,old,n,./images/BAVELHB.png,,,,,,,,,,,,,,,,,,,,,
,,,,,,,,,,,,,,,,,199873,23,2022-01-25_21h36.26.341,lexical_decision_task_DD_L5,2021.2.3,MacIntel,58.82352941,,,,,,,,,,,,0.594,0,,,,,,,,,,,,,,m,0,0.594,,,,,,,,0.005555556,-0.395555556,0,0,0,,0,141,141,22,1,CLOWN,LB,old,y,./images/CLOWNLB.png,,,,,,,,,,,,,,,,,,,,,
,,,,,,,,,,,,,,,,,199873,23,2022-01-25_21h36.26.341,lexical_decision_task_DD_L5,2021.2.3,MacIntel,58.82352941,,,,,,,,,,,,0.964,0,,,,,,,,,,,,,,z,0,0.964,,,,,,,,0.005555556,-0.395555556,0,0,0,,0,142,142,139,1,BLEAR,HB,old,n,./images/BLEARHB.png,,,,,,,,,,,,,,,,,,,,,
,,,,,,,,,,,,,,,,,199873,23,2022-01-25_21h36.26.341,lexical_decision_task_DD_L5,2021.2.3,MacIntel,58.82352941,,,,,,,,,,,,0.503,0,,,,,,,,,,,,,,z,0,0.503,,,,,,,,0.005555556,-0.395555556,0,0,0,,0,143,143,111,1,HOSSE,C,old,n,./images/HOSSE.png,,,,,,,,,,,,,,,,,,,,,
,,,,,,,,,,,,,,,,,199873,23,2022-01-25_21h36.26.341,lexical_decision_task_DD_L5,2021.2.3,MacIntel,58.82352941,,,,,,,,,,,,0.57,0,,,,,,,,,,,,,,m,0,0.57,,,,,,,,0.005555556,-0.395555556,0,0,0,,0,144,144,45,1,MONKEY,HB,old,y,./images/MONKEYHB.png,,,,,,,,,,,,,,,,,,,,,
,,,,,,,,,,,,,,,,,199873,23,2022-01-25_21h36.26.341,lexical_decision_task_DD_L5,2021.2.3,MacIntel,58.82352941,,,,,,,,,,,,0.538,0,,,,,,,,,,,,,,m,0,0.538,,,,,,,,0.005555556,-0.395555556,0,0,0,,0,145,145,80,1,PLANET,C,old,y,./images/PLANET.png,,,,,,,,,,,,,,,,,,,,,
,,,,,,,,,,,,,,,,,199873,23,2022-01-25_21h36.26.341,lexical_decision_task_DD_L5,2021.2.3,MacIntel,58.82352941,,,,,,,,,,,,0.721,0,,,,,,,,,,,,,,m,0,0.721,,,,,,,,0.005555556,-0.395555556,0,0,0,,0,146,146,76,1,MIDGET,LB,old,y,./images/MIDGETLB.png,,,,,,,,,,,,,,,,,,,,,
,,,,,,,,,,,,,,,,,199873,23,2022-01-25_21h36.26.341,lexical_decision_task_DD_L5,2021.2.3,MacIntel,58.82352941,,,,,,,,,,,,1.247,0,,,,,,,,,,,,,,z,0,1.247,,,,,,,,0.005555556,-0.395555556,0,0,0,,0,147,147,33,1,SAUNA,HB,old,y,./images/SAUNAHB.png,,,,,,,,,,,,,,,,,,,,,
,,,,,,,,,,,,,,,,,199873,23,2022-01-25_21h36.26.341,lexical_decision_task_DD_L5,2021.2.3,MacIntel,58.82352941,,,,,,,,,,,,0.533,0,,,,,,,,,,,,,,z,0,0.533,,,,,,,,0.005555556,-0.395555556,0,0,0,,0,148,148,135,1,JOODY,C,old,n,./images/JOODY.png,,,,,,,,,,,,,,,,,,,,,
,,,,,,,,,,,,,,,,,199873,23,2022-01-25_21h36.26.341,lexical_decision_task_DD_L5,2021.2.3,MacIntel,58.82352941,,,,,,,,,,,,0.653,0,,,,,,,,,,,,,,m,0,0.653,,,,,,,,0.005555556,-0.395555556,0,0,0,,0,149,149,55,1,ALLEY,LB,old,y,./images/ALLEYLB.png,,,,,,,,,,,,,,,,,,,,,
,,,,,,,,,,,,,,,,,199873,23,2022-01-25_21h36.26.341,lexical_decision_task_DD_L5,2021.2.3,MacIntel,58.82352941,,,,,,,,,,,,0.745,0,,,,,,,,,,,,,,z,0,0.745,,,,,,,,0.005555556,-0.395555556,0,0,0,,0,150,150,99,1,BACKY,C,old,n,./images/BACKY.png,,,,,,,,,,,,,,,,,,,,,
,,,,,,,,,,,,,,,,,199873,23,2022-01-25_21h36.26.341,lexical_decision_task_DD_L5,2021.2.3,MacIntel,58.82352941,,,,,,,,,,,,0.888,0,,,,,,,,,,,,,,m,0,0.888,,,,,,,,0.005555556,-0.395555556,0,0,0,,0,151,151,52,1,DESERT,LB,old,y,./images/DESERTLB.png,,,,,,,,,,,,,,,,,,,,,
,,,,,,,,,,,,,,,,,199873,23,2022-01-25_21h36.26.341,lexical_decision_task_DD_L5,2021.2.3,MacIntel,58.82352941,,,,,,,,,,,,1.013,0,,,,,,,,,,,,,,z,0,1.013,,,,,,,,0.005555556,-0.395555556,0,0,0,,0,152,152,100,1,DRIBS,HB,old,n,./images/DRIBSHB.png,,,,,,,,,,,,,,,,,,,,,
,,,,,,,,,,,,,,,,,199873,23,2022-01-25_21h36.26.341,lexical_decision_task_DD_L5,2021.2.3,MacIntel,58.82352941,,,,,,,,,,,,0.629,0,,,,,,,,,,,,,,z,0,0.629,,,,,,,,0.005555556,-0.395555556,0,0,0,,0,153,153,137,1,JOOST,LB,old,n,./images/JOOSTLB.png,,,,,,,,,,,,,,,,,,,,,
,,,,,,,,,,,,,,,,,199873,23,2022-01-25_21h36.26.341,lexical_decision_task_DD_L5,2021.2.3,MacIntel,58.82352941,,,,,,,,,,,,1.686,0,,,,,,,,,,,,,,z,0,1.686,,,,,,,,0.005555556,-0.395555556,0,0,0,,0,154,154,157,1,INLER,HB,old,n,./images/INLERHB.png,,,,,,,,,,,,,,,,,,,,,
,,,,,,,,,,,,,,,,,199873,23,2022-01-25_21h36.26.341,lexical_decision_task_DD_L5,2021.2.3,MacIntel,58.82352941,,,,,,,,,,,,0.528,0,,,,,,,,,,,,,,m,0,0.528,,,,,,,,0.005555556,-0.395555556,0,0,0,,0,155,155,34,1,RAZOR,LB,old,y,./images/RAZORLB.png,,,,,,,,,,,,,,,,,,,,,
,,,,,,,,,,,,,,,,,199873,23,2022-01-25_21h36.26.341,lexical_decision_task_DD_L5,2021.2.3,MacIntel,58.82352941,,,,,,,,,,,,1.375,0,,,,,,,,,,,,,,z,0,1.375,,,,,,,,0.005555556,-0.395555556,0,0,0,,0,156,156,122,1,BLOOT,LB,old,n,./images/BLOOTLB.png,,,,,,,,,,,,,,,,,,,,,
,,,,,,,,,,,,,,,,,199873,23,2022-01-25_21h36.26.341,lexical_decision_task_DD_L5,2021.2.3,MacIntel,58.82352941,,,,,,,,,,,,2.327,0,,,,,,,,,,,,,,z,0,2.327,,,,,,,,0.005555556,-0.395555556,0,0,0,,0,157,157,108,1,GRUET,C,old,n,./images/GRUET.png,,,,,,,,,,,,,,,,,,,,,
,,,,,,,,,,,,,,,,,199873,23,2022-01-25_21h36.26.341,lexical_decision_task_DD_L5,2021.2.3,MacIntel,58.82352941,,,,,,,,,,,,0.564,0,,,,,,,,,,,,,,m,0,0.564,,,,,,,,0.005555556,-0.395555556,0,0,0,,0,158,158,42,1,CHAIN,HB,old,y,./images/CHAINHB.png,,,,,,,,,,,,,,,,,,,,,
,,,,,,,,,,,,,,,,,199873,23,2022-01-25_21h36.26.341,lexical_decision_task_DD_L5,2021.2.3,MacIntel,58.82352941,,,,,,,,,,,,0.579,0,,,,,,,,,,,,,,m,0,0.579,,,,,,,,0.005555556,-0.395555556,0,0,0,,0,159,159,17,1,PARADE,C,old,y,./images/PARADE.png,,,,,,,,,,,,,,,,,,,,,
,,,,,,,,,,,,,,,,,199873,23,2022-01-25_21h36.26.341,lexical_decision_task_DD_L5,2021.2.3,MacIntel,58.82352941,,,,,,,,,,,,0.431,0,,,,,,,,,,,,,,m,0,0.431,,,,,,,,0.005555556,-0.395555556,0,0,0,,0,160,160,73,1,GLOVE,LB,old,y,./images/GLOVELB.png,,,,,,,,,,,,,,,,,,,,,
,,,,,,,,,,,,,,,,,199873,23,2022-01-25_21h36.26.341,lexical_decision_task_DD_L5,2021.2.3,MacIntel,58.82352941,,,,,,,,,,,,1.029,0,,,,,,,,,,,,,,z,0,1.029,,,,,,,,0.005555556,-0.395555556,0,0,0,,0,161,161,109,1,BURGE,HB,old,n,./images/BURGEHB.png,,,,,,,,,,,,,,,,,,,,,
,,,,,,,,,,,,,,,,,199873,23,2022-01-25_21h36.26.341,lexical_decision_task_DD_L5,2021.2.3,MacIntel,58.82352941,,,,,,,,,,,,0.646,0,,,,,,,,,,,,,,m,0,0.646,,,,,,,,0.005555556,-0.395555556,0,0,0,,0,162,162,71,1,BUBBLE,C,old,y,./images/BUBBLE.png,,,,,,,,,,,,,,,,,,,,,
,,,,,,,,,,,,,,,,,199873,23,2022-01-25_21h36.26.341,lexical_decision_task_DD_L5,2021.2.3,MacIntel,58.82352941,,,,,,,,,,,,1.141,0,,,,,,,,,,,,,,m,0,1.141,,,,,,,,0.005555556,-0.395555556,0,0,0,,0,163,163,62,1,MAMMAL,C,old,y,./images/MAMMAL.png,,,,,,,,,,,,,,,,,,,,,
,,,,,,,,,,,,,,,,,199873,23,2022-01-25_21h36.26.341,lexical_decision_task_DD_L5,2021.2.3,MacIntel,58.82352941,,,,,,,,,,,,0.648,0,,,,,,,,,,,,,,z,0,0.648,,,,,,,,0.005555556,-0.395555556,0,0,0,,0,164,164,105,1,MOKER,C,old,n,./images/MOKER.png,,,,,,,,,,,,,,,,,,,,,
,,,,,,,,,,,,,,,,,199873,23,2022-01-25_21h36.26.341,lexical_decision_task_DD_L5,2021.2.3,MacIntel,58.82352941,,,,,,,,,,,,0.559,0,,,,,,,,,,,,,,m,0,0.559,,,,,,,,0.005555556,-0.395555556,0,0,0,,0,165,165,20,1,GRANNY,C,old,y,./images/GRANNY.png,,,,,,,,,,,,,,,,,,,,,
,,,,,,,,,,,,,,,,,199873,23,2022-01-25_21h36.26.341,lexical_decision_task_DD_L5,2021.2.3,MacIntel,58.82352941,,,,,,,,,,,,0.519,0,,,,,,,,,,,,,,z,0,0.519,,,,,,,,0.005555556,-0.395555556,0,0,0,,0,166,166,147,1,ZOLES,C,old,n,./images/ZOLES.png,,,,,,,,,,,,,,,,,,,,,
,,,,,,,,,,,,,,,,,199873,23,2022-01-25_21h36.26.341,lexical_decision_task_DD_L5,2021.2.3,MacIntel,58.82352941,,,,,,,,,,,,0.582,0,,,,,,,,,,,,,,m,0,0.582,,,,,,,,0.005555556,-0.395555556,0,0,0,,0,167,167,23,1,CLOTH,C,old,y,./images/CLOTH.png,,,,,,,,,,,,,,,,,,,,,
space,0.005555556,-0.395555556,0,0,0,,,,,,,1,test,"In the next phase you will be presented with the words from the the first phase. Your job is to decide whether you remember seeing the word or not. If you remember seeing the word press ""old"" or type ""m"". If you do not remember seeing the word press ""new"" or type ""z"". Please press the space bar or click on continue to begin. ",,,199873,23,2022-01-25_21h36.26.341,lexical_decision_task_DD_L5,2021.2.3,MacIntel,58.82352941,10.686,,,,,,,,,,,,,,,,,,,,,,,,,,,,,,,,,,,,,,,,,,,,,,,,,,,,,0,0,0,0,1,,,,,,,,,,,,,,,
space,0.005555556,-0.395555556,0,0,0,,,,,,,1,test,"In the next phase you will be presented with the words from the the first phase. Your job is to decide whether you remember seeing the word or not. If you remember seeing the word press ""old"" or type ""m"". If you do not remember seeing the word press ""new"" or type ""z"". Please press the space bar or click on continue to begin. ",,,199873,23,2022-01-25_21h36.26.341,lexical_decision_task_DD_L5,2021.2.3,MacIntel,58.82352941,0.925,,,,,,,,,,,,,,,,,,,,,,,,,,,,,,,,,,,,,,,,,,,,,,,,,,,,,1,0,1,0,1,,,,,,,,,,,,,,,
,0.005555556,-0.395555556,1,0,0,instr_done_button,,,,,,1,test,"In the next phase you will be presented with the words from the the first phase. Your job is to decide whether you remember seeing the word or not. If you remember seeing the word press ""old"" or type ""m"". If you do not remember seeing the word press ""new"" or type ""z"". Please press the space bar or click on continue to begin. ",,,199873,23,2022-01-25_21h36.26.341,lexical_decision_task_DD_L5,2021.2.3,MacIntel,58.82352941,,,,,,,,,,,,,,,,,,,,,,,,,,,,,,,,,,,,,,,,,,,,,,,,,,,,,,2,0,2,0,1,,,,,,,,,,,,,,,
,0.022222222,-0.416666667,1,0,0,instr_done_button,,,,,,1,test,"In the next phase you will be presented with the words from the the first phase. Your job is to decide whether you remember seeing the word or not. If you remember seeing the word press ""old"" or type ""m"". If you do not remember seeing the word press ""new"" or type ""z"". Please press the space bar or click on continue to begin. ",,,199873,23,2022-01-25_21h36.26.341,lexical_decision_task_DD_L5,2021.2.3,MacIntel,58.82352941,,,,,,,,,,,,,,,,,,,,,,,,,,,,,,,,,,,,,,,,,,,,,,,,,,,,,,3,0,3,0,1,,,,,,,,,,,,,,,
space,0.022222222,-0.416666667,0,0,0,,,,,,,1,test,"In the next phase you will be presented with the words from the the first phase. Your job is to decide whether you remember seeing the word or not. If you remember seeing the word press ""old"" or type ""m"". If you do not remember seeing the word press ""new"" or type ""z"". Please press the space bar or click on continue to begin. ",,,199873,23,2022-01-25_21h36.26.341,lexical_decision_task_DD_L5,2021.2.3,MacIntel,58.82352941,2.544,,,,,,,,,,,,,,,,,,,,,,,,,,,,,,,,,,,,,,,,,,,,,,,,,,,,,4,0,4,0,1,,,,,,,,,,,,,,,
,,,,,,,,,,,,,,,,,199873,23,2022-01-25_21h36.26.341,lexical_decision_task_DD_L5,2021.2.3,MacIntel,58.82352941,,,,,,,,,,,,0.977,0,,,,,,,,,,,,,,,,,,,,,,,,0.022222222,-0.416666667,0,0,0,,,,,,,BURIAL,C,new,y,./images/BURIAL.png,,,,,,,z,0,0.977,,,,,,,,0,0,0,143,1
,,,,,,,,,,,,,,,,,199873,23,2022-01-25_21h36.26.341,lexical_decision_task_DD_L5,2021.2.3,MacIntel,58.82352941,,,,,,,,,,,,1.09,0,,,,,,,,,,,,,,,,,,,,,,,,0.022222222,-0.416666667,0,0,0,,,,,,,SWING,LB,new,y,./images/SWINGLB.png,,,,,,,z,0,1.09,,,,,,,,0,1,1,124,1
,,,,,,,,,,,,,,,,,199873,23,2022-01-25_21h36.26.341,lexical_decision_task_DD_L5,2021.2.3,MacIntel,58.82352941,,,,,,,,,,,,0.99,0,,,,,,,,,,,,,,,,,,,,,,,,0.022222222,-0.416666667,0,0,0,,,,,,,WHEEL,C,old,y,./images/WHEEL.png,,,,,,,m,0,0.99,,,,,,,,0,2,2,77,1
,,,,,,,,,,,,,,,,,199873,23,2022-01-25_21h36.26.341,lexical_decision_task_DD_L5,2021.2.3,MacIntel,58.82352941,,,,,,,,,,,,0.654,0,,,,,,,,,,,,,,,,,,,,,,,,0.022222222,-0.416666667,0,0,0,,,,,,,POKER,LB,old,y,./images/POKERLB.png,,,,,,,m,0,0.654,,,,,,,,0,3,3,67,1
,,,,,,,,,,,,,,,,,199873,23,2022-01-25_21h36.26.341,lexical_decision_task_DD_L5,2021.2.3,MacIntel,58.82352941,,,,,,,,,,,,0.539,0,,,,,,,,,,,,,,,,,,,,,,,,0.022222222,-0.416666667,0,0,0,,,,,,,STOVE,C,old,y,./images/STOVE.png,,,,,,,m,0,0.539,,,,,,,,0,4,4,2,1
,,,,,,,,,,,,,,,,,199873,23,2022-01-25_21h36.26.341,lexical_decision_task_DD_L5,2021.2.3,MacIntel,58.82352941,,,,,,,,,,,,0.772,0,,,,,,,,,,,,,,,,,,,,,,,,0.022222222,-0.416666667,0,0,0,,,,,,,BLOKE,HB,old,y,./images/BLOKEHB.png,,,,,,,m,0,0.772,,,,,,,,0,5,5,12,1
,,,,,,,,,,,,,,,,,199873,23,2022-01-25_21h36.26.341,lexical_decision_task_DD_L5,2021.2.3,MacIntel,58.82352941,,,,,,,,,,,,0.642,0,,,,,,,,,,,,,,,,,,,,,,,,0.022222222,-0.416666667,0,0,0,,,,,,,CRUST,LB,new,y,./images/CRUSTLB.png,,,,,,,z,0,0.642,,,,,,,,0,6,6,163,1
,,,,,,,,,,,,,,,,,199873,23,2022-01-25_21h36.26.341,lexical_decision_task_DD_L5,2021.2.3,MacIntel,58.82352941,,,,,,,,,,,,0.537,0,,,,,,,,,,,,,,,,,,,,,,,,0.022222222,-0.416666667,0,0,0,,,,,,,HAMMER,HB,old,y,./images/HAMMERHB.png,,,,,,,m,0,0.537,,,,,,,,0,7,7,75,1
,,,,,,,,,,,,,,,,,199873,23,2022-01-25_21h36.26.341,lexical_decision_task_DD_L5,2021.2.3,MacIntel,58.82352941,,,,,,,,,,,,0.575,0,,,,,,,,,,,,,,,,,,,,,,,,0.022222222,-0.416666667,0,0,0,,,,,,,STATUE,HB,old,y,./images/STATUEHB.png,,,,,,,m,0,0.575,,,,,,,,0,8,8,66,1
,,,,,,,,,,,,,,,,,199873,23,2022-01-25_21h36.26.341,lexical_decision_task_DD_L5,2021.2.3,MacIntel,58.82352941,,,,,,,,,,,,0.8,0,,,,,,,,,,,,,,,,,,,,,,,,0.022222222,-0.416666667,0,0,0,,,,,,,PISTOL,C,old,y,./images/PISTOL.png,,,,,,,m,0,0.8,,,,,,,,0,9,9,29,1
,,,,,,,,,,,,,,,,,199873,23,2022-01-25_21h36.26.341,lexical_decision_task_DD_L5,2021.2.3,MacIntel,58.82352941,,,,,,,,,,,,0.654,0,,,,,,,,,,,,,,,,,,,,,,,,0.022222222,-0.416666667,0,0,0,,,,,,,BAKER,HB,old,y,./images/BAKERHB.png,,,,,,,m,0,0.654,,,,,,,,0,10,10,63,1
,,,,,,,,,,,,,,,,,199873,23,2022-01-25_21h36.26.341,lexical_decision_task_DD_L5,2021.2.3,MacIntel,58.82352941,,,,,,,,,,,,0.692,0,,,,,,,,,,,,,,,,,,,,,,,,0.022222222,-0.416666667,0,0,0,,,,,,,PEARL,LB,new,y,./images/PEARLLB.png,,,,,,,z,0,0.692,,,,,,,,0,11,11,130,1
,,,,,,,,,,,,,,,,,199873,23,2022-01-25_21h36.26.341,lexical_decision_task_DD_L5,2021.2.3,MacIntel,58.82352941,,,,,,,,,,,,0.615,0,,,,,,,,,,,,,,,,,,,,,,,,0.022222222,-0.416666667,0,0,0,,,,,,,ENGINE,C,old,y,./images/ENGINE.png,,,,,,,m,0,0.615,,,,,,,,0,12,12,38,1
,,,,,,,,,,,,,,,,,199873,23,2022-01-25_21h36.26.341,lexical_decision_task_DD_L5,2021.2.3,MacIntel,58.82352941,,,,,,,,,,,,0.541,0,,,,,,,,,,,,,,,,,,,,,,,,0.022222222,-0.416666667,0,0,0,,,,,,,MOTOR,LB,new,y,./images/MOTORLB.png,,,,,,,m,0,0.541,,,,,,,,0,13,13,97,1
,,,,,,,,,,,,,,,,,199873,23,2022-01-25_21h36.26.341,lexical_decision_task_DD_L5,2021.2.3,MacIntel,58.82352941,,,,,,,,,,,,0.776,0,,,,,,,,,,,,,,,,,,,,,,,,0.022222222,-0.416666667,0,0,0,,,,,,,SCREW,HB,new,y,./images/SCREWHB.png,,,,,,,m,0,0.776,,,,,,,,0,14,14,108,1
,,,,,,,,,,,,,,,,,199873,23,2022-01-25_21h36.26.341,lexical_decision_task_DD_L5,2021.2.3,MacIntel,58.82352941,,,,,,,,,,,,0.622,0,,,,,,,,,,,,,,,,,,,,,,,,0.022222222,-0.416666667,0,0,0,,,,,,,WALRUS,C,new,y,./images/WALRUS.png,,,,,,,m,0,0.622,,,,,,,,0,15,15,107,1
,,,,,,,,,,,,,,,,,199873,23,2022-01-25_21h36.26.341,lexical_decision_task_DD_L5,2021.2.3,MacIntel,58.82352941,,,,,,,,,,,,0.936,0,,,,,,,,,,,,,,,,,,,,,,,,0.022222222,-0.416666667,0,0,0,,,,,,,BUNNY,LB,old,y,./images/BUNNYLB.png,,,,,,,m,0,0.936,,,,,,,,0,16,16,13,1
,,,,,,,,,,,,,,,,,199873,23,2022-01-25_21h36.26.341,lexical_decision_task_DD_L5,2021.2.3,MacIntel,58.82352941,,,,,,,,,,,,0.561,0,,,,,,,,,,,,,,,,,,,,,,,,0.022222222,-0.416666667,0,0,0,,,,,,,JAGUAR,HB,new,y,./images/JAGUARHB.png,,,,,,,z,0,0.561,,,,,,,,0,17,17,102,1
,,,,,,,,,,,,,,,,,199873,23,2022-01-25_21h36.26.341,lexical_decision_task_DD_L5,2021.2.3,MacIntel,58.82352941,,,,,,,,,,,,0.622,0,,,,,,,,,,,,,,,,,,,,,,,,0.022222222,-0.416666667,0,0,0,,,,,,,SAUNA,HB,old,y,./images/SAUNAHB.png,,,,,,,m,0,0.622,,,,,,,,0,18,18,33,1
,,,,,,,,,,,,,,,,,199873,23,2022-01-25_21h36.26.341,lexical_decision_task_DD_L5,2021.2.3,MacIntel,58.82352941,,,,,,,,,,,,0.835,0,,,,,,,,,,,,,,,,,,,,,,,,0.022222222,-0.416666667,0,0,0,,,,,,,FLESH,HB,old,y,./images/FLESHHB.png,,,,,,,m,0,0.835,,,,,,,,0,19,19,24,1
,,,,,,,,,,,,,,,,,199873,23,2022-01-25_21h36.26.341,lexical_decision_task_DD_L5,2021.2.3,MacIntel,58.82352941,,,,,,,,,,,,0.562,0,,,,,,,,,,,,,,,,,,,,,,,,0.022222222,-0.416666667,0,0,0,,,,,,,POSTER,C,old,y,./images/POSTER.png,,,,,,,m,0,0.562,,,,,,,,0,20,20,53,1
,,,,,,,,,,,,,,,,,199873,23,2022-01-25_21h36.26.341,lexical_decision_task_DD_L5,2021.2.3,MacIntel,58.82352941,,,,,,,,,,,,0.729,0,,,,,,,,,,,,,,,,,,,,,,,,0.022222222,-0.416666667,0,0,0,,,,,,,ARTIST,LB,old,y,./images/ARTISTLB.png,,,,,,,m,0,0.729,,,,,,,,0,21,21,61,1
,,,,,,,,,,,,,,,,,199873,23,2022-01-25_21h36.26.341,lexical_decision_task_DD_L5,2021.2.3,MacIntel,58.82352941,,,,,,,,,,,,0.656,0,,,,,,,,,,,,,,,,,,,,,,,,0.022222222,-0.416666667,0,0,0,,,,,,,WAGON,LB,old,y,./images/WAGONLB.png,,,,,,,m,0,0.656,,,,,,,,0,22,22,7,1
,,,,,,,,,,,,,,,,,199873,23,2022-01-25_21h36.26.341,lexical_decision_task_DD_L5,2021.2.3,MacIntel,58.82352941,,,,,,,,,,,,0.704,0,,,,,,,,,,,,,,,,,,,,,,,,0.022222222,-0.416666667,0,0,0,,,,,,,LAGOON,C,old,y,./images/LAGOON.png,,,,,,,m,0,0.704,,,,,,,,0,23,23,47,1
,,,,,,,,,,,,,,,,,199873,23,2022-01-25_21h36.26.341,lexical_decision_task_DD_L5,2021.2.3,MacIntel,58.82352941,,,,,,,,,,,,0.947,0,,,,,,,,,,,,,,,,,,,,,,,,0.022222222,-0.416666667,0,0,0,,,,,,,PARADE,C,old,y,./images/PARADE.png,,,,,,,m,0,0.947,,,,,,,,0,24,24,17,1
,,,,,,,,,,,,,,,,,199873,23,2022-01-25_21h36.26.341,lexical_decision_task_DD_L5,2021.2.3,MacIntel,58.82352941,,,,,,,,,,,,0.697,0,,,,,,,,,,,,,,,,,,,,,,,,0.022222222,-0.416666667,0,0,0,,,,,,,DRUMS,LB,new,y,./images/DRUMSLB.png,,,,,,,m,0,0.697,,,,,,,,0,25,25,133,1
,,,,,,,,,,,,,,,,,199873,23,2022-01-25_21h36.26.341,lexical_decision_task_DD_L5,2021.2.3,MacIntel,58.82352941,,,,,,,,,,,,0.617,0,,,,,,,,,,,,,,,,,,,,,,,,0.022222222,-0.416666667,0,0,0,,,,,,,STAIN,HB,old,y,./images/STAINHB.png,,,,,,,m,0,0.617,,,,,,,,0,26,26,6,1
,,,,,,,,,,,,,,,,,199873,23,2022-01-25_21h36.26.341,lexical_decision_task_DD_L5,2021.2.3,MacIntel,58.82352941,,,,,,,,,,,,0.785,0,,,,,,,,,,,,,,,,,,,,,,,,0.022222222,-0.416666667,0,0,0,,,,,,,FLASK,HB,old,y,./images/FLASKHB.png,,,,,,,m,0,0.785,,,,,,,,0,27,27,72,1
,,,,,,,,,,,,,,,,,199873,23,2022-01-25_21h36.26.341,lexical_decision_task_DD_L5,2021.2.3,MacIntel,58.82352941,,,,,,,,,,,,0.925,0,,,,,,,,,,,,,,,,,,,,,,,,0.022222222,-0.416666667,0,0,0,,,,,,,SHORE,HB,new,y,./images/SHOREHB.png,,,,,,,z,0,0.925,,,,,,,,0,28,28,96,1
,,,,,,,,,,,,,,,,,199873,23,2022-01-25_21h36.26.341,lexical_decision_task_DD_L5,2021.2.3,MacIntel,58.82352941,,,,,,,,,,,,0.663,0,,,,,,,,,,,,,,,,,,,,,,,,0.022222222,-0.416666667,0,0,0,,,,,,,PICKLE,C,new,y,./images/PICKLE.png,,,,,,,m,0,0.663,,,,,,,,0,29,29,98,1
,,,,,,,,,,,,,,,,,199873,23,2022-01-25_21h36.26.341,lexical_decision_task_DD_L5,2021.2.3,MacIntel,58.82352941,,,,,,,,,,,,0.78,0,,,,,,,,,,,,,,,,,,,,,,,,0.022222222,-0.416666667,0,0,0,,,,,,,JELLY,LB,new,y,./images/JELLYLB.png,,,,,,,m,0,0.78,,,,,,,,0,30,30,148,1
,,,,,,,,,,,,,,,,,199873,23,2022-01-25_21h36.26.341,lexical_decision_task_DD_L5,2021.2.3,MacIntel,58.82352941,,,,,,,,,,,,0.549,0,,,,,,,,,,,,,,,,,,,,,,,,0.022222222,-0.416666667,0,0,0,,,,,,,MONKEY,HB,old,y,./images/MONKEYHB.png,,,,,,,m,0,0.549,,,,,,,,0,31,31,45,1
,,,,,,,,,,,,,,,,,199873,23,2022-01-25_21h36.26.341,lexical_decision_task_DD_L5,2021.2.3,MacIntel,58.82352941,,,,,,,,,,,,0.585,0,,,,,,,,,,,,,,,,,,,,,,,,0.022222222,-0.416666667,0,0,0,,,,,,,STEAK,LB,old,y,./images/STEAKLB.png,,,,,,,m,0,0.585,,,,,,,,0,32,32,31,1
,,,,,,,,,,,,,,,,,199873,23,2022-01-25_21h36.26.341,lexical_decision_task_DD_L5,2021.2.3,MacIntel,58.82352941,,,,,,,,,,,,1.066,0,,,,,,,,,,,,,,,,,,,,,,,,0.022222222,-0.416666667,0,0,0,,,,,,,CHAIN,HB,old,y,./images/CHAINHB.png,,,,,,,z,0,1.066,,,,,,,,0,33,33,42,1
,,,,,,,,,,,,,,,,,199873,23,2022-01-25_21h36.26.341,lexical_decision_task_DD_L5,2021.2.3,MacIntel,58.82352941,,,,,,,,,,,,1.29,0,,,,,,,,,,,,,,,,,,,,,,,,0.022222222,-0.416666667,0,0,0,,,,,,,SPORT,HB,new,y,./images/SPORTHB.png,,,,,,,z,0,1.29,,,,,,,,0,34,34,132,1
,,,,,,,,,,,,,,,,,199873,23,2022-01-25_21h36.26.341,lexical_decision_task_DD_L5,2021.2.3,MacIntel,58.82352941,,,,,,,,,,,,0.684,0,,,,,,,,,,,,,,,,,,,,,,,,0.022222222,-0.416666667,0,0,0,,,,,,,FINGER,HB,new,y,./images/FINGERHB.png,,,,,,,m,0,0.684,,,,,,,,0,35,35,87,1
,,,,,,,,,,,,,,,,,199873,23,2022-01-25_21h36.26.341,lexical_decision_task_DD_L5,2021.2.3,MacIntel,58.82352941,,,,,,,,,,,,0.496,0,,,,,,,,,,,,,,,,,,,,,,,,0.022222222,-0.416666667,0,0,0,,,,,,,ARROW,HB,old,y,./images/ARROWHB.png,,,,,,,m,0,0.496,,,,,,,,0,36,36,69,1
,,,,,,,,,,,,,,,,,199873,23,2022-01-25_21h36.26.341,lexical_decision_task_DD_L5,2021.2.3,MacIntel,58.82352941,,,,,,,,,,,,0.6,0,,,,,,,,,,,,,,,,,,,,,,,,0.022222222,-0.416666667,0,0,0,,,,,,,CANOE,LB,old,y,./images/CANOELB.png,,,,,,,m,0,0.6,,,,,,,,0,37,37,58,1
,,,,,,,,,,,,,,,,,199873,23,2022-01-25_21h36.26.341,lexical_decision_task_DD_L5,2021.2.3,MacIntel,58.82352941,,,,,,,,,,,,0.535,0,,,,,,,,,,,,,,,,,,,,,,,,0.022222222,-0.416666667,0,0,0,,,,,,,SNAKE,LB,old,y,./images/SNAKELB.png,,,,,,,m,0,0.535,,,,,,,,0,38,38,40,1
,,,,,,,,,,,,,,,,,199873,23,2022-01-25_21h36.26.341,lexical_decision_task_DD_L5,2021.2.3,MacIntel,58.82352941,,,,,,,,,,,,0.715,0,,,,,,,,,,,,,,,,,,,,,,,,0.022222222,-0.416666667,0,0,0,,,,,,,DRILL,HB,old,y,./images/DRILLHB.png,,,,,,,m,0,0.715,,,,,,,,0,39,39,81,1
,,,,,,,,,,,,,,,,,199873,23,2022-01-25_21h36.26.341,lexical_decision_task_DD_L5,2021.2.3,MacIntel,58.82352941,,,,,,,,,,,,0.677,0,,,,,,,,,,,,,,,,,,,,,,,,0.022222222,-0.416666667,0,0,0,,,,,,,DONKEY,LB,old,y,./images/DONKEYLB.png,,,,,,,z,0,0.677,,,,,,,,0,40,40,19,1
,,,,,,,,,,,,,,,,,199873,23,2022-01-25_21h36.26.341,lexical_decision_task_DD_L5,2021.2.3,MacIntel,58.82352941,,,,,,,,,,,,0.589,0,,,,,,,,,,,,,,,,,,,,,,,,0.022222222,-0.416666667,0,0,0,space,,,,,,SUNSET,LB,new,y,./images/SUNSETLB.png,31.134,,,,,,z,0,0.589,,,,,,,,0,41,41,166,1
,,,,,,,,,,,,,,,,,199873,23,2022-01-25_21h36.26.341,lexical_decision_task_DD_L5,2021.2.3,MacIntel,58.82352941,,,,,,,,,,,,0.6,0,,,,,,,,,,,,,,,,,,,,,,,,0.022222222,-0.416666667,0,0,0,,,,,,,PEBBLE,LB,old,y,./images/PEBBLELB.png,,,,,,,m,0,0.6,,,,,,,,0,42,42,82,1
,,,,,,,,,,,,,,,,,199873,23,2022-01-25_21h36.26.341,lexical_decision_task_DD_L5,2021.2.3,MacIntel,58.82352941,,,,,,,,,,,,0.441,0,,,,,,,,,,,,,,,,,,,,,,,,0.022222222,-0.416666667,0,0,0,,,,,,,QUILL,LB,new,y,./images/QUILLLB.png,,,,,,,z,0,0.441,,,,,,,,0,43,43,115,1
,,,,,,,,,,,,,,,,,199873,23,2022-01-25_21h36.26.341,lexical_decision_task_DD_L5,2021.2.3,MacIntel,58.82352941,,,,,,,,,,,,0.7,0,,,,,,,,,,,,,,,,,,,,,,,,0.022222222,-0.416666667,0,0,0,,,,,,,TULIP,C,new,y,./images/TULIP.png,,,,,,,z,0,0.7,,,,,,,,0,44,44,92,1
,,,,,,,,,,,,,,,,,199873,23,2022-01-25_21h36.26.341,lexical_decision_task_DD_L5,2021.2.3,MacIntel,58.82352941,,,,,,,,,,,,0.649,0,,,,,,,,,,,,,,,,,,,,,,,,0.022222222,-0.416666667,0,0,0,,,,,,,MIRROR,HB,new,y,./images/MIRRORHB.png,,,,,,,m,0,0.649,,,,,,,,0,45,45,147,1
,,,,,,,,,,,,,,,,,199873,23,2022-01-25_21h36.26.341,lexical_decision_task_DD_L5,2021.2.3,MacIntel,58.82352941,,,,,,,,,,,,0.788,0,,,,,,,,,,,,,,,,,,,,,,,,0.022222222,-0.416666667,0,0,0,,,,,,,STREAM,C,old,y,./images/STREAM.png,,,,,,,z,0,0.788,,,,,,,,0,46,46,41,1
,,,,,,,,,,,,,,,,,199873,23,2022-01-25_21h36.26.341,lexical_decision_task_DD_L5,2021.2.3,MacIntel,58.82352941,,,,,,,,,,,,0.683,0,,,,,,,,,,,,,,,,,,,,,,,,0.022222222,-0.416666667,0,0,0,,,,,,,BONNET,C,new,y,./images/BONNET.png,,,,,,,z,0,0.683,,,,,,,,0,47,47,95,1
,,,,,,,,,,,,,,,,,199873,23,2022-01-25_21h36.26.341,lexical_decision_task_DD_L5,2021.2.3,MacIntel,58.82352941,,,,,,,,,,,,0.655,0,,,,,,,,,,,,,,,,,,,,,,,,0.022222222,-0.416666667,0,0,0,,,,,,,MOSQUE,LB,new,y,./images/MOSQUELB.png,,,,,,,z,0,0.655,,,,,,,,0,48,48,127,1
,,,,,,,,,,,,,,,,,199873,23,2022-01-25_21h36.26.341,lexical_decision_task_DD_L5,2021.2.3,MacIntel,58.82352941,,,,,,,,,,,,0.601,0,,,,,,,,,,,,,,,,,,,,,,,,0.022222222,-0.416666667,0,0,0,,,,,,,FENCE,C,old,y,./images/FENCE.png,,,,,,,m,0,0.601,,,,,,,,0,49,49,14,1
,,,,,,,,,,,,,,,,,199873,23,2022-01-25_21h36.26.341,lexical_decision_task_DD_L5,2021.2.3,MacIntel,58.82352941,,,,,,,,,,,,0.613,0,,,,,,,,,,,,,,,,,,,,,,,,0.022222222,-0.416666667,0,0,0,,,,,,,CASINO,LB,old,y,./images/CASINOLB.png,,,,,,,m,0,0.613,,,,,,,,0,50,50,28,1
,,,,,,,,,,,,,,,,,199873,23,2022-01-25_21h36.26.341,lexical_decision_task_DD_L5,2021.2.3,MacIntel,58.82352941,,,,,,,,,,,,0.598,0,,,,,,,,,,,,,,,,,,,,,,,,0.022222222,-0.416666667,0,0,0,,,,,,,SKIING,C,new,y,./images/SKIING.png,,,,,,,z,0,0.598,,,,,,,,0,51,51,101,1
,,,,,,,,,,,,,,,,,199873,23,2022-01-25_21h36.26.341,lexical_decision_task_DD_L5,2021.2.3,MacIntel,58.82352941,,,,,,,,,,,,0.949,0,,,,,,,,,,,,,,,,,,,,,,,,0.022222222,-0.416666667,0,0,0,,,,,,,PEACH,C,new,y,./images/PEACH.png,,,,,,,z,0,0.949,,,,,,,,0,52,52,119,1
,,,,,,,,,,,,,,,,,199873,23,2022-01-25_21h36.26.341,lexical_decision_task_DD_L5,2021.2.3,MacIntel,58.82352941,,,,,,,,,,,,0.497,0,,,,,,,,,,,,,,,,,,,,,,,,0.022222222,-0.416666667,0,0,0,,,,,,,RULER,LB,old,y,./images/RULERLB.png,,,,,,,m,0,0.497,,,,,,,,0,53,53,79,1
,,,,,,,,,,,,,,,,,199873,23,2022-01-25_21h36.26.341,lexical_decision_task_DD_L5,2021.2.3,MacIntel,58.82352941,,,,,,,,,,,,0.595,0,,,,,,,,,,,,,,,,,,,,,,,,0.022222222,-0.416666667,0,0,0,,,,,,,CARPET,C,new,y,./images/CARPET.png,,,,,,,m,0,0.595,,,,,,,,0,54,54,137,1
,,,,,,,,,,,,,,,,,199873,23,2022-01-25_21h36.26.341,lexical_decision_task_DD_L5,2021.2.3,MacIntel,58.82352941,,,,,,,,,,,,0.596,0,,,,,,,,,,,,,,,,,,,,,,,,0.022222222,-0.416666667,0,0,0,,,,,,,PILOT,C,old,y,./images/PILOT.png,,,,,,,m,0,0.596,,,,,,,,0,55,55,50,1
,,,,,,,,,,,,,,,,,199873,23,2022-01-25_21h36.26.341,lexical_decision_task_DD_L5,2021.2.3,MacIntel,58.82352941,,,,,,,,,,,,0.78,0,,,,,,,,,,,,,,,,,,,,,,,,0.022222222,-0.416666667,0,0,0,,,,,,,CLOTH,C,old,y,./images/CLOTH.png,,,,,,,m,0,0.78,,,,,,,,0,56,56,23,1
,,,,,,,,,,,,,,,,,199873,23,2022-01-25_21h36.26.341,lexical_decision_task_DD_L5,2021.2.3,MacIntel,58.82352941,,,,,,,,,,,,0.388,0,,,,,,,,,,,,,,,,,,,,,,,,0.022222222,-0.416666667,0,0,0,,,,,,,SAILOR,LB,new,y,./images/SAILORLB.png,,,,,,,m,0,0.388,,,,,,,,0,57,57,151,1
,,,,,,,,,,,,,,,,,199873,23,2022-01-25_21h36.26.341,lexical_decision_task_DD_L5,2021.2.3,MacIntel,58.82352941,,,,,,,,,,,,0.605,0,,,,,,,,,,,,,,,,,,,,,,,,0.022222222,-0.416666667,0,0,0,,,,,,,MOOSE,HB,new,y,./images/MOOSEHB.png,,,,,,,m,0,0.605,,,,,,,,0,58,58,141,1
,,,,,,,,,,,,,,,,,199873,23,2022-01-25_21h36.26.341,lexical_decision_task_DD_L5,2021.2.3,MacIntel,58.82352941,,,,,,,,,,,,0.469,0,,,,,,,,,,,,,,,,,,,,,,,,0.022222222,-0.416666667,0,0,0,,,,,,,CLOWN,LB,old,y,./images/CLOWNLB.png,,,,,,,m,0,0.469,,,,,,,,0,59,59,22,1
,,,,,,,,,,,,,,,,,199873,23,2022-01-25_21h36.26.341,lexical_decision_task_DD_L5,2021.2.3,MacIntel,58.82352941,,,,,,,,,,,,0.65,0,,,,,,,,,,,,,,,,,,,,,,,,0.022222222,-0.416666667,0,0,0,,,,,,,CEMENT,C,new,y,./images/CEMENT.png,,,,,,,z,0,0.65,,,,,,,,0,60,60,158,1
,,,,,,,,,,,,,,,,,199873,23,2022-01-25_21h36.26.341,lexical_decision_task_DD_L5,2021.2.3,MacIntel,58.82352941,,,,,,,,,,,,0.733,0,,,,,,,,,,,,,,,,,,,,,,,,0.022222222,-0.416666667,0,0,0,,,,,,,LITTER,HB,new,y,./images/LITTERHB.png,,,,,,,z,0,0.733,,,,,,,,0,61,61,162,1
,,,,,,,,,,,,,,,,,199873,23,2022-01-25_21h36.26.341,lexical_decision_task_DD_L5,2021.2.3,MacIntel,58.82352941,,,,,,,,,,,,0.982,0,,,,,,,,,,,,,,,,,,,,,,,,0.022222222,-0.416666667,0,0,0,,,,,,,KIDNEY,HB,new,y,./images/KIDNEYHB.png,,,,,,,m,0,0.982,,,,,,,,0,62,62,105,1
,,,,,,,,,,,,,,,,,199873,23,2022-01-25_21h36.26.341,lexical_decision_task_DD_L5,2021.2.3,MacIntel,58.82352941,,,,,,,,,,,,0.666,0,,,,,,,,,,,,,,,,,,,,,,,,0.022222222,-0.416666667,0,0,0,,,,,,,CURRY,HB,old,y,./images/CURRYHB.png,,,,,,,m,0,0.666,,,,,,,,0,63,63,60,1
,,,,,,,,,,,,,,,,,199873,23,2022-01-25_21h36.26.341,lexical_decision_task_DD_L5,2021.2.3,MacIntel,58.82352941,,,,,,,,,,,,0.625,0,,,,,,,,,,,,,,,,,,,,,,,,0.022222222,-0.416666667,0,0,0,,,,,,,TOMATO,HB,new,y,./images/TOMATOHB.png,,,,,,,z,0,0.625,,,,,,,,0,64,64,84,1
,,,,,,,,,,,,,,,,,199873,23,2022-01-25_21h36.26.341,lexical_decision_task_DD_L5,2021.2.3,MacIntel,58.82352941,,,,,,,,,,,,0.889,0,,,,,,,,,,,,,,,,,,,,,,,,0.022222222,-0.416666667,0,0,0,,,,,,,WHISKY,C,old,y,./images/WHISKY.png,,,,,,,m,0,0.889,,,,,,,,0,65,65,83,1
,,,,,,,,,,,,,,,,,199873,23,2022-01-25_21h36.26.341,lexical_decision_task_DD_L5,2021.2.3,MacIntel,58.82352941,,,,,,,,,,,,0.786,0,,,,,,,,,,,,,,,,,,,,,,,,0.022222222,-0.416666667,0,0,0,,,,,,,STORM,HB,new,y,./images/STORMHB.png,,,,,,,z,0,0.786,,,,,,,,0,66,66,114,1
,,,,,,,,,,,,,,,,,199873,23,2022-01-25_21h36.26.341,lexical_decision_task_DD_L5,2021.2.3,MacIntel,58.82352941,,,,,,,,,,,,0.582,0,,,,,,,,,,,,,,,,,,,,,,,,0.022222222,-0.416666667,0,0,0,,,,,,,BIRTH,LB,new,y,./images/BIRTHLB.png,,,,,,,z,0,0.582,,,,,,,,0,67,67,121,1
,,,,,,,,,,,,,,,,,199873,23,2022-01-25_21h36.26.341,lexical_decision_task_DD_L5,2021.2.3,MacIntel,58.82352941,,,,,,,,,,,,0.716,0,,,,,,,,,,,,,,,,,,,,,,,,0.022222222,-0.416666667,0,0,0,,,,,,,SLOPE,HB,old,y,./images/SLOPEHB.png,,,,,,,m,0,0.716,,,,,,,,0,68,68,30,1
,,,,,,,,,,,,,,,,,199873,23,2022-01-25_21h36.26.341,lexical_decision_task_DD_L5,2021.2.3,MacIntel,58.82352941,,,,,,,,,,,,0.607,0,,,,,,,,,,,,,,,,,,,,,,,,0.022222222,-0.416666667,0,0,0,,,,,,,BARREL,C,new,y,./images/BARREL.png,,,,,,,m,0,0.607,,,,,,,,0,69,69,116,1
,,,,,,,,,,,,,,,,,199873,23,2022-01-25_21h36.26.341,lexical_decision_task_DD_L5,2021.2.3,MacIntel,58.82352941,,,,,,,,,,,,1.24,0,,,,,,,,,,,,,,,,,,,,,,,,0.022222222,-0.416666667,0,0,0,,,,,,,BANANA,LB,old,y,./images/BANANALB.png,,,,,,,m,0,1.24,,,,,,,,0,70,70,70,1
,,,,,,,,,,,,,,,,,199873,23,2022-01-25_21h36.26.341,lexical_decision_task_DD_L5,2021.2.3,MacIntel,58.82352941,,,,,,,,,,,,1.123,0,,,,,,,,,,,,,,,,,,,,,,,,0.022222222,-0.416666667,0,0,0,,,,,,,MALLET,C,new,y,./images/MALLET.png,,,,,,,m,0,1.123,,,,,,,,0,71,71,134,1
,,,,,,,,,,,,,,,,,199873,23,2022-01-25_21h36.26.341,lexical_decision_task_DD_L5,2021.2.3,MacIntel,58.82352941,,,,,,,,,,,,0.606,0,,,,,,,,,,,,,,,,,,,,,,,,0.022222222,-0.416666667,0,0,0,,,,,,,CRUMB,C,new,y,./images/CRUMB.png,,,,,,,m,0,0.606,,,,,,,,0,72,72,113,1
,,,,,,,,,,,,,,,,,199873,23,2022-01-25_21h36.26.341,lexical_decision_task_DD_L5,2021.2.3,MacIntel,58.82352941,,,,,,,,,,,,0.825,0,,,,,,,,,,,,,,,,,,,,,,,,0.022222222,-0.416666667,0,0,0,,,,,,,PACKET,C,new,y,./images/PACKET.png,,,,,,,z,0,0.825,,,,,,,,0,73,73,140,1
,,,,,,,,,,,,,,,,,199873,23,2022-01-25_21h36.26.341,lexical_decision_task_DD_L5,2021.2.3,MacIntel,58.82352941,,,,,,,,,,,,0.754,0,,,,,,,,,,,,,,,,,,,,,,,,0.022222222,-0.416666667,0,0,0,,,,,,,GARDEN,LB,old,y,./images/GARDENLB.png,,,,,,,m,0,0.754,,,,,,,,0,74,74,10,1
,,,,,,,,,,,,,,,,,199873,23,2022-01-25_21h36.26.341,lexical_decision_task_DD_L5,2021.2.3,MacIntel,58.82352941,,,,,,,,,,,,0.635,0,,,,,,,,,,,,,,,,,,,,,,,,0.022222222,-0.416666667,0,0,0,,,,,,,CLIFF,C,old,y,./images/CLIFF.png,,,,,,,z,0,0.635,,,,,,,,0,75,75,8,1
,,,,,,,,,,,,,,,,,199873,23,2022-01-25_21h36.26.341,lexical_decision_task_DD_L5,2021.2.3,MacIntel,58.82352941,,,,,,,,,,,,0.678,0,,,,,,,,,,,,,,,,,,,,,,,,0.022222222,-0.416666667,0,0,0,,,,,,,ATTIC,HB,new,y,./images/ATTICHB.png,,,,,,,z,0,0.678,,,,,,,,0,76,76,111,1
,,,,,,,,,,,,,,,,,199873,23,2022-01-25_21h36.26.341,lexical_decision_task_DD_L5,2021.2.3,MacIntel,58.82352941,,,,,,,,,,,,0.568,0,,,,,,,,,,,,,,,,,,,,,,,,0.022222222,-0.416666667,0,0,0,,,,,,,PAINT,LB,new,y,./images/PAINTLB.png,,,,,,,m,0,0.568,,,,,,,,0,77,77,91,1
,,,,,,,,,,,,,,,,,199873,23,2022-01-25_21h36.26.341,lexical_decision_task_DD_L5,2021.2.3,MacIntel,58.82352941,,,,,,,,,,,,0.516,0,,,,,,,,,,,,,,,,,,,,,,,,0.022222222,-0.416666667,0,0,0,,,,,,,BUTTER,HB,old,y,./images/BUTTERHB.png,,,,,,,m,0,0.516,,,,,,,,0,78,78,27,1
,,,,,,,,,,,,,,,,,199873,23,2022-01-25_21h36.26.341,lexical_decision_task_DD_L5,2021.2.3,MacIntel,58.82352941,,,,,,,,,,,,0.838,0,,,,,,,,,,,,,,,,,,,,,,,,0.022222222,-0.416666667,0,0,0,,,,,,,STOOL,LB,old,y,./images/STOOLLB.png,,,,,,,m,0,0.838,,,,,,,,0,79,79,43,1
,,,,,,,,,,,,,,,,,199873,23,2022-01-25_21h36.26.341,lexical_decision_task_DD_L5,2021.2.3,MacIntel,58.82352941,,,,,,,,,,,,0.714,0,,,,,,,,,,,,,,,,,,,,,,,,0.022222222,-0.416666667,0,0,0,,,,,,,THROAT,HB,new,y,./images/THROATHB.png,,,,,,,z,0,0.714,,,,,,,,0,80,80,120,1
,,,,,,,,,,,,,,,,,199873,23,2022-01-25_21h36.26.341,lexical_decision_task_DD_L5,2021.2.3,MacIntel,58.82352941,,,,,,,,,,,,0.589,0,,,,,,,,,,,,,,,,,,,,,,,,0.022222222,-0.416666667,0,0,0,,,,,,,SHIELD,HB,old,y,./images/SHIELDHB.png,,,,,,,m,0,0.589,,,,,,,,0,81,81,48,1
,,,,,,,,,,,,,,,,,199873,23,2022-01-25_21h36.26.341,lexical_decision_task_DD_L5,2021.2.3,MacIntel,58.82352941,,,,,,,,,,,,0.547,0,,,,,,,,,,,,,,,,,,,,,,,,0.022222222,-0.416666667,0,0,0,,,,,,,LLAMA,C,old,y,./images/LLAMA.png,,,,,,,m,0,0.547,,,,,,,,0,82,82,35,1
,,,,,,,,,,,,,,,,,199873,23,2022-01-25_21h36.26.341,lexical_decision_task_DD_L5,2021.2.3,MacIntel,58.82352941,,,,,,,,,,,,0.574,0,,,,,,,,,,,,,,,,,,,,,,,,0.022222222,-0.416666667,0,0,0,space,,,,,,DESERT,LB,old,y,./images/DESERTLB.png,1.902,,,,,,m,0,0.574,,,,,,,,0,83,83,52,1
,,,,,,,,,,,,,,,,,199873,23,2022-01-25_21h36.26.341,lexical_decision_task_DD_L5,2021.2.3,MacIntel,58.82352941,,,,,,,,,,,,0.654,0,,,,,,,,,,,,,,,,,,,,,,,,0.022222222,-0.416666667,0,0,0,,,,,,,SMOKER,C,new,y,./images/SMOKER.png,,,,,,,m,0,0.654,,,,,,,,0,84,84,110,1
,,,,,,,,,,,,,,,,,199873,23,2022-01-25_21h36.26.341,lexical_decision_task_DD_L5,2021.2.3,MacIntel,58.82352941,,,,,,,,,,,,0.523,0,,,,,,,,,,,,,,,,,,,,,,,,0.022222222,-0.416666667,0,0,0,,,,,,,TWINS,HB,new,y,./images/TWINSHB.png,,,,,,,z,0,0.523,,,,,,,,0,85,85,144,1
,,,,,,,,,,,,,,,,,199873,23,2022-01-25_21h36.26.341,lexical_decision_task_DD_L5,2021.2.3,MacIntel,58.82352941,,,,,,,,,,,,0.472,0,,,,,,,,,,,,,,,,,,,,,,,,0.022222222,-0.416666667,0,0,0,,,,,,,BAMBOO,C,old,y,./images/BAMBOO.png,,,,,,,m,0,0.472,,,,,,,,0,86,86,5,1
,,,,,,,,,,,,,,,,,199873,23,2022-01-25_21h36.26.341,lexical_decision_task_DD_L5,2021.2.3,MacIntel,58.82352941,,,,,,,,,,,,0.453,0,,,,,,,,,,,,,,,,,,,,,,,,0.022222222,-0.416666667,0,0,0,,,,,,,WALNUT,HB,old,y,./images/WALNUTHB.png,,,,,,,m,0,0.453,,,,,,,,0,87,87,0,1
,,,,,,,,,,,,,,,,,199873,23,2022-01-25_21h36.26.341,lexical_decision_task_DD_L5,2021.2.3,MacIntel,58.82352941,,,,,,,,,,,,0.665,0,,,,,,,,,,,,,,,,,,,,,,,,0.022222222,-0.416666667,0,0,0,,,,,,,MELON,LB,new,y,./images/MELONLB.png,,,,,,,z,0,0.665,,,,,,,,0,88,88,106,1
,,,,,,,,,,,,,,,,,199873,23,2022-01-25_21h36.26.341,lexical_decision_task_DD_L5,2021.2.3,MacIntel,58.82352941,,,,,,,,,,,,0.514,0,,,,,,,,,,,,,,,,,,,,,,,,0.022222222,-0.416666667,0,0,0,,,,,,,BRUSH,C,old,y,./images/BRUSH.png,,,,,,,m,0,0.514,,,,,,,,0,89,89,59,1
,,,,,,,,,,,,,,,,,199873,23,2022-01-25_21h36.26.341,lexical_decision_task_DD_L5,2021.2.3,MacIntel,58.82352941,,,,,,,,,,,,0.53,0,,,,,,,,,,,,,,,,,,,,,,,,0.022222222,-0.416666667,0,0,0,,,,,,,TRIPOD,HB,new,y,./images/TRIPODHB.png,,,,,,,z,0,0.53,,,,,,,,0,90,90,138,1
,,,,,,,,,,,,,,,,,199873,23,2022-01-25_21h36.26.341,lexical_decision_task_DD_L5,2021.2.3,MacIntel,58.82352941,,,,,,,,,,,,0.581,0,,,,,,,,,,,,,,,,,,,,,,,,0.022222222,-0.416666667,0,0,0,,,,,,,PARCEL,HB,old,y,./images/PARCELHB.png,,,,,,,z,0,0.581,,,,,,,,0,91,91,18,1
,,,,,,,,,,,,,,,,,199873,23,2022-01-25_21h36.26.341,lexical_decision_task_DD_L5,2021.2.3,MacIntel,58.82352941,,,,,,,,,,,,0.907,0,,,,,,,,,,,,,,,,,,,,,,,,0.022222222,-0.416666667,0,0,0,,,,,,,HEATER,C,old,y,./images/HEATER.png,,,,,,,m,0,0.907,,,,,,,,0,92,92,56,1
,,,,,,,,,,,,,,,,,199873,23,2022-01-25_21h36.26.341,lexical_decision_task_DD_L5,2021.2.3,MacIntel,58.82352941,,,,,,,,,,,,0.666,0,,,,,,,,,,,,,,,,,,,,,,,,0.022222222,-0.416666667,0,0,0,,,,,,,HOCKEY,C,old,y,./images/HOCKEY.png,,,,,,,m,0,0.666,,,,,,,,0,93,93,32,1
,,,,,,,,,,,,,,,,,199873,23,2022-01-25_21h36.26.341,lexical_decision_task_DD_L5,2021.2.3,MacIntel,58.82352941,,,,,,,,,,,,0.735,0,,,,,,,,,,,,,,,,,,,,,,,,0.022222222,-0.416666667,0,0,0,,,,,,,INFANT,LB,new,y,./images/INFANTLB.png,,,,,,,z,0,0.735,,,,,,,,0,94,94,160,1
,,,,,,,,,,,,,,,,,199873,23,2022-01-25_21h36.26.341,lexical_decision_task_DD_L5,2021.2.3,MacIntel,58.82352941,,,,,,,,,,,,0.682,0,,,,,,,,,,,,,,,,,,,,,,,,0.022222222,-0.416666667,0,0,0,,,,,,,BABOON,LB,new,y,./images/BABOONLB.png,,,,,,,z,0,0.682,,,,,,,,0,95,95,142,1
,,,,,,,,,,,,,,,,,199873,23,2022-01-25_21h36.26.341,lexical_decision_task_DD_L5,2021.2.3,MacIntel,58.82352941,,,,,,,,,,,,0.697,0,,,,,,,,,,,,,,,,,,,,,,,,0.022222222,-0.416666667,0,0,0,,,,,,,MUSCLE,LB,new,y,./images/MUSCLELB.png,,,,,,,z,0,0.697,,,,,,,,0,96,96,88,1
,,,,,,,,,,,,,,,,,199873,23,2022-01-25_21h36.26.341,lexical_decision_task_DD_L5,2021.2.3,MacIntel,58.82352941,,,,,,,,,,,,0.565,0,,,,,,,,,,,,,,,,,,,,,,,,0.022222222,-0.416666667,0,0,0,,,,,,,RAZOR,LB,old,y,./images/RAZORLB.png,,,,,,,m,0,0.565,,,,,,,,0,97,97,34,1
,,,,,,,,,,,,,,,,,199873,23,2022-01-25_21h36.26.341,lexical_decision_task_DD_L5,2021.2.3,MacIntel,58.82352941,,,,,,,,,,,,1.212,0,,,,,,,,,,,,,,,,,,,,,,,,0.022222222,-0.416666667,0,0,0,,,,,,,VALLEY,C,old,y,./images/VALLEY.png,,,,,,,m,0,1.212,,,,,,,,0,98,98,68,1
,,,,,,,,,,,,,,,,,199873,23,2022-01-25_21h36.26.341,lexical_decision_task_DD_L5,2021.2.3,MacIntel,58.82352941,,,,,,,,,,,,0.639,0,,,,,,,,,,,,,,,,,,,,,,,,0.022222222,-0.416666667,0,0,0,,,,,,,DANCER,HB,old,y,./images/DANCERHB.png,,,,,,,m,0,0.639,,,,,,,,0,99,99,21,1
,,,,,,,,,,,,,,,,,199873,23,2022-01-25_21h36.26.341,lexical_decision_task_DD_L5,2021.2.3,MacIntel,58.82352941,,,,,,,,,,,,0.714,0,,,,,,,,,,,,,,,,,,,,,,,,0.022222222,-0.416666667,0,0,0,,,,,,,LADDER,C,new,y,./images/LADDER.png,,,,,,,z,0,0.714,,,,,,,,0,100,100,122,1
,,,,,,,,,,,,,,,,,199873,23,2022-01-25_21h36.26.341,lexical_decision_task_DD_L5,2021.2.3,MacIntel,58.82352941,,,,,,,,,,,,0.797,0,,,,,,,,,,,,,,,,,,,,,,,,0.022222222,-0.416666667,0,0,0,,,,,,,DOUGH,LB,new,y,./images/DOUGHLB.png,,,,,,,z,0,0.797,,,,,,,,0,101,101,103,1
,,,,,,,,,,,,,,,,,199873,23,2022-01-25_21h36.26.341,lexical_decision_task_DD_L5,2021.2.3,MacIntel,58.82352941,,,,,,,,,,,,0.662,0,,,,,,,,,,,,,,,,,,,,,,,,0.022222222,-0.416666667,0,0,0,,,,,,,FALCON,LB,new,y,./images/FALCONLB.png,,,,,,,z,0,0.662,,,,,,,,0,102,102,112,1
,,,,,,,,,,,,,,,,,199873,23,2022-01-25_21h36.26.341,lexical_decision_task_DD_L5,2021.2.3,MacIntel,58.82352941,,,,,,,,,,,,0.681,0,,,,,,,,,,,,,,,,,,,,,,,,0.022222222,-0.416666667,0,0,0,,,,,,,PASTA,C,new,y,./images/PASTA.png,,,,,,,z,0,0.681,,,,,,,,0,103,103,89,1
,,,,,,,,,,,,,,,,,199873,23,2022-01-25_21h36.26.341,lexical_decision_task_DD_L5,2021.2.3,MacIntel,58.82352941,,,,,,,,,,,,0.656,0,,,,,,,,,,,,,,,,,,,,,,,,0.022222222,-0.416666667,0,0,0,,,,,,,WEASEL,C,new,y,./images/WEASEL.png,,,,,,,z,0,0.656,,,,,,,,0,104,104,164,1
,,,,,,,,,,,,,,,,,199873,23,2022-01-25_21h36.26.341,lexical_decision_task_DD_L5,2021.2.3,MacIntel,58.82352941,,,,,,,,,,,,0.691,0,,,,,,,,,,,,,,,,,,,,,,,,0.022222222,-0.416666667,0,0,0,,,,,,,MAMMAL,C,old,y,./images/MAMMAL.png,,,,,,,m,0,0.691,,,,,,,,0,105,105,62,1
,,,,,,,,,,,,,,,,,199873,23,2022-01-25_21h36.26.341,lexical_decision_task_DD_L5,2021.2.3,MacIntel,58.82352941,,,,,,,,,,,,0.63,0,,,,,,,,,,,,,,,,,,,,,,,,0.022222222,-0.416666667,0,0,0,,,,,,,CRATER,HB,old,y,./images/CRATERHB.png,,,,,,,m,0,0.63,,,,,,,,0,106,106,3,1
,,,,,,,,,,,,,,,,,199873,23,2022-01-25_21h36.26.341,lexical_decision_task_DD_L5,2021.2.3,MacIntel,58.82352941,,,,,,,,,,,,0.599,0,,,,,,,,,,,,,,,,,,,,,,,,0.022222222,-0.416666667,0,0,0,,,,,,,BROOM,HB,old,y,./images/BROOMHB.png,,,,,,,m,0,0.599,,,,,,,,0,107,107,78,1
,,,,,,,,,,,,,,,,,199873,23,2022-01-25_21h36.26.341,lexical_decision_task_DD_L5,2021.2.3,MacIntel,58.82352941,,,,,,,,,,,,0.765,0,,,,,,,,,,,,,,,,,,,,,,,,0.022222222,-0.416666667,0,0,0,,,,,,,SHELF,HB,new,y,./images/SHELFHB.png,,,,,,,m,0,0.765,,,,,,,,0,108,108,123,1
,,,,,,,,,,,,,,,,,199873,23,2022-01-25_21h36.26.341,lexical_decision_task_DD_L5,2021.2.3,MacIntel,58.82352941,,,,,,,,,,,,0.632,0,,,,,,,,,,,,,,,,,,,,,,,,0.022222222,-0.416666667,0,0,0,,,,,,,PENCE,LB,new,y,./images/PENCELB.png,,,,,,,z,0,0.632,,,,,,,,0,109,109,100,1
,,,,,,,,,,,,,,,,,199873,23,2022-01-25_21h36.26.341,lexical_decision_task_DD_L5,2021.2.3,MacIntel,58.82352941,,,,,,,,,,,,0.522,0,,,,,,,,,,,,,,,,,,,,,,,,0.022222222,-0.416666667,0,0,0,,,,,,,STRING,C,new,y,./images/STRING.png,,,,,,,m,0,0.522,,,,,,,,0,110,110,125,1
,,,,,,,,,,,,,,,,,199873,23,2022-01-25_21h36.26.341,lexical_decision_task_DD_L5,2021.2.3,MacIntel,58.82352941,,,,,,,,,,,,0.583,0,,,,,,,,,,,,,,,,,,,,,,,,0.022222222,-0.416666667,0,0,0,,,,,,,FERRY,HB,old,y,./images/FERRYHB.png,,,,,,,m,0,0.583,,,,,,,,0,111,111,57,1
,,,,,,,,,,,,,,,,,199873,23,2022-01-25_21h36.26.341,lexical_decision_task_DD_L5,2021.2.3,MacIntel,58.82352941,,,,,,,,,,,,0.6,0,,,,,,,,,,,,,,,,,,,,,,,,0.022222222,-0.416666667,0,0,0,,,,,,,SPINE,C,old,y,./images/SPINE.png,,,,,,,z,0,0.6,,,,,,,,0,112,112,65,1
,,,,,,,,,,,,,,,,,199873,23,2022-01-25_21h36.26.341,lexical_decision_task_DD_L5,2021.2.3,MacIntel,58.82352941,,,,,,,,,,,,0.615,0,,,,,,,,,,,,,,,,,,,,,,,,0.022222222,-0.416666667,0,0,0,,,,,,,PIMPLE,C,new,y,./images/PIMPLE.png,,,,,,,z,0,0.615,,,,,,,,0,113,113,155,1
,,,,,,,,,,,,,,,,,199873,23,2022-01-25_21h36.26.341,lexical_decision_task_DD_L5,2021.2.3,MacIntel,58.82352941,,,,,,,,,,,,0.756,0,,,,,,,,,,,,,,,,,,,,,,,,0.022222222,-0.416666667,0,0,0,,,,,,,FOLDER,HB,new,y,./images/FOLDERHB.png,,,,,,,z,0,0.756,,,,,,,,0,114,114,126,1
,,,,,,,,,,,,,,,,,199873,23,2022-01-25_21h36.26.341,lexical_decision_task_DD_L5,2021.2.3,MacIntel,58.82352941,,,,,,,,,,,,0.633,0,,,,,,,,,,,,,,,,,,,,,,,,0.022222222,-0.416666667,0,0,0,,,,,,,MAGGOT,HB,new,y,./images/MAGGOTHB.png,,,,,,,z,0,0.633,,,,,,,,0,115,115,117,1
,,,,,,,,,,,,,,,,,199873,23,2022-01-25_21h36.26.341,lexical_decision_task_DD_L5,2021.2.3,MacIntel,58.82352941,,,,,,,,,,,,0.597,0,,,,,,,,,,,,,,,,,,,,,,,,0.022222222,-0.416666667,0,0,0,,,,,,,TORCH,C,new,y,./images/TORCH.png,,,,,,,z,0,0.597,,,,,,,,0,116,116,152,1
,,,,,,,,,,,,,,,,,199873,23,2022-01-25_21h36.26.341,lexical_decision_task_DD_L5,2021.2.3,MacIntel,58.82352941,,,,,,,,,,,,0.596,0,,,,,,,,,,,,,,,,,,,,,,,,0.022222222,-0.416666667,0,0,0,,,,,,,GRANNY,C,old,y,./images/GRANNY.png,,,,,,,m,0,0.596,,,,,,,,0,117,117,20,1
,,,,,,,,,,,,,,,,,199873,23,2022-01-25_21h36.26.341,lexical_decision_task_DD_L5,2021.2.3,MacIntel,58.82352941,,,,,,,,,,,,0.483,0,,,,,,,,,,,,,,,,,,,,,,,,0.022222222,-0.416666667,0,0,0,,,,,,,BERRY,C,new,y,./images/BERRY.png,,,,,,,m,0,0.483,,,,,,,,0,118,118,131,1
,,,,,,,,,,,,,,,,,199873,23,2022-01-25_21h36.26.341,lexical_decision_task_DD_L5,2021.2.3,MacIntel,58.82352941,,,,,,,,,,,,0.446,0,,,,,,,,,,,,,,,,,,,,,,,,0.022222222,-0.416666667,0,0,0,,,,,,,BASKET,C,old,y,./images/BASKET.png,,,,,,,m,0,0.446,,,,,,,,0,119,119,44,1
,,,,,,,,,,,,,,,,,199873,23,2022-01-25_21h36.26.341,lexical_decision_task_DD_L5,2021.2.3,MacIntel,58.82352941,,,,,,,,,,,,0.56,0,,,,,,,,,,,,,,,,,,,,,,,,0.022222222,-0.416666667,0,0,0,,,,,,,RHINO,HB,new,y,./images/RHINOHB.png,,,,,,,z,0,0.56,,,,,,,,0,120,120,93,1
,,,,,,,,,,,,,,,,,199873,23,2022-01-25_21h36.26.341,lexical_decision_task_DD_L5,2021.2.3,MacIntel,58.82352941,,,,,,,,,,,,0.621,0,,,,,,,,,,,,,,,,,,,,,,,,0.022222222,-0.416666667,0,0,0,,,,,,,BOXER,LB,old,y,./images/BOXERLB.png,,,,,,,m,0,0.621,,,,,,,,0,121,121,4,1
,,,,,,,,,,,,,,,,,199873,23,2022-01-25_21h36.26.341,lexical_decision_task_DD_L5,2021.2.3,MacIntel,58.82352941,,,,,,,,,,,,0.596,0,,,,,,,,,,,,,,,,,,,,,,,,0.022222222,-0.416666667,0,0,0,,,,,,,BELLY,LB,new,y,./images/BELLYLB.png,,,,,,,z,0,0.596,,,,,,,,0,122,122,94,1
,,,,,,,,,,,,,,,,,199873,23,2022-01-25_21h36.26.341,lexical_decision_task_DD_L5,2021.2.3,MacIntel,58.82352941,,,,,,,,,,,,0.53,0,,,,,,,,,,,,,,,,,,,,,,,,0.022222222,-0.416666667,0,0,0,,,,,,,JUNGLE,C,new,y,./images/JUNGLE.png,,,,,,,m,0,0.53,,,,,,,,0,123,123,167,1
,,,,,,,,,,,,,,,,,199873,23,2022-01-25_21h36.26.341,lexical_decision_task_DD_L5,2021.2.3,MacIntel,58.82352941,,,,,,,,,,,,0.637,0,,,,,,,,,,,,,,,,,,,,,,,,0.022222222,-0.416666667,0,0,0,,,,,,,CHALK,LB,old,y,./images/CHALKLB.png,,,,,,,m,0,0.637,,,,,,,,0,124,124,25,1
,,,,,,,,,,,,,,,,,199873,23,2022-01-25_21h36.26.341,lexical_decision_task_DD_L5,2021.2.3,MacIntel,58.82352941,,,,,,,,,,,,0.398,0,,,,,,,,,,,,,,,,,,,,,,,,0.022222222,-0.416666667,0,0,0,space,,,,,,CANDLE,LB,new,y,./images/CANDLELB.png,1.349,,,,,,m,0,0.398,,,,,,,,0,125,125,145,1
,,,,,,,,,,,,,,,,,199873,23,2022-01-25_21h36.26.341,lexical_decision_task_DD_L5,2021.2.3,MacIntel,58.82352941,,,,,,,,,,,,0.555,0,,,,,,,,,,,,,,,,,,,,,,,,0.022222222,-0.416666667,0,0,0,,,,,,,BRIDE,LB,old,y,./images/BRIDELB.png,,,,,,,m,0,0.555,,,,,,,,0,126,126,64,1
,,,,,,,,,,,,,,,,,199873,23,2022-01-25_21h36.26.341,lexical_decision_task_DD_L5,2021.2.3,MacIntel,58.82352941,,,,,,,,,,,,0.624,0,,,,,,,,,,,,,,,,,,,,,,,,0.022222222,-0.416666667,0,0,0,,,,,,,WRIST,LB,new,y,./images/WRISTLB.png,,,,,,,m,0,0.624,,,,,,,,0,127,127,109,1
,,,,,,,,,,,,,,,,,199873,23,2022-01-25_21h36.26.341,lexical_decision_task_DD_L5,2021.2.3,MacIntel,58.82352941,,,,,,,,,,,,0.558,0,,,,,,,,,,,,,,,,,,,,,,,,0.022222222,-0.416666667,0,0,0,,,,,,,GRAIN,HB,new,y,./images/GRAINHB.png,,,,,,,z,0,0.558,,,,,,,,0,128,128,159,1
,,,,,,,,,,,,,,,,,199873,23,2022-01-25_21h36.26.341,lexical_decision_task_DD_L5,2021.2.3,MacIntel,58.82352941,,,,,,,,,,,,0.638,0,,,,,,,,,,,,,,,,,,,,,,,,0.022222222,-0.416666667,0,0,0,,,,,,,SWEAT,HB,new,y,./images/SWEATHB.png,,,,,,,m,0,0.638,,,,,,,,0,129,129,150,1
,,,,,,,,,,,,,,,,,199873,23,2022-01-25_21h36.26.341,lexical_decision_task_DD_L5,2021.2.3,MacIntel,58.82352941,,,,,,,,,,,,0.508,0,,,,,,,,,,,,,,,,,,,,,,,,0.022222222,-0.416666667,0,0,0,,,,,,,CANYON,LB,new,y,./images/CANYONLB.png,,,,,,,m,0,0.508,,,,,,,,0,130,130,118,1
,,,,,,,,,,,,,,,,,199873,23,2022-01-25_21h36.26.341,lexical_decision_task_DD_L5,2021.2.3,MacIntel,58.82352941,,,,,,,,,,,,0.755,0,,,,,,,,,,,,,,,,,,,,,,,,0.022222222,-0.416666667,0,0,0,,,,,,,MUMMY,LB,old,y,./images/MUMMYLB.png,,,,,,,m,0,0.755,,,,,,,,0,131,131,46,1
,,,,,,,,,,,,,,,,,199873,23,2022-01-25_21h36.26.341,lexical_decision_task_DD_L5,2021.2.3,MacIntel,58.82352941,,,,,,,,,,,,0.754,0,,,,,,,,,,,,,,,,,,,,,,,,0.022222222,-0.416666667,0,0,0,,,,,,,ALLEY,LB,old,y,./images/ALLEYLB.png,,,,,,,m,0,0.754,,,,,,,,0,132,132,55,1
,,,,,,,,,,,,,,,,,199873,23,2022-01-25_21h36.26.341,lexical_decision_task_DD_L5,2021.2.3,MacIntel,58.82352941,,,,,,,,,,,,0.73,0,,,,,,,,,,,,,,,,,,,,,,,,0.022222222,-0.416666667,0,0,0,,,,,,,NOOSE,HB,new,y,./images/NOOSEHB.png,,,,,,,z,0,0.73,,,,,,,,0,133,133,156,1
,,,,,,,,,,,,,,,,,199873,23,2022-01-25_21h36.26.341,lexical_decision_task_DD_L5,2021.2.3,MacIntel,58.82352941,,,,,,,,,,,,0.788,0,,,,,,,,,,,,,,,,,,,,,,,,0.022222222,-0.416666667,0,0,0,,,,,,,URINE,LB,new,y,./images/URINELB.png,,,,,,,z,0,0.788,,,,,,,,0,134,134,154,1
,,,,,,,,,,,,,,,,,199873,23,2022-01-25_21h36.26.341,lexical_decision_task_DD_L5,2021.2.3,MacIntel,58.82352941,,,,,,,,,,,,0.724,0,,,,,,,,,,,,,,,,,,,,,,,,0.022222222,-0.416666667,0,0,0,,,,,,,COUCH,C,new,y,./images/COUCH.png,,,,,,,z,0,0.724,,,,,,,,0,135,135,161,1
,,,,,,,,,,,,,,,,,199873,23,2022-01-25_21h36.26.341,lexical_decision_task_DD_L5,2021.2.3,MacIntel,58.82352941,,,,,,,,,,,,0.519,0,,,,,,,,,,,,,,,,,,,,,,,,0.022222222,-0.416666667,0,0,0,,,,,,,BISHOP,LB,old,y,./images/BISHOPLB.png,,,,,,,z,0,0.519,,,,,,,,0,136,136,49,1
,,,,,,,,,,,,,,,,,199873,23,2022-01-25_21h36.26.341,lexical_decision_task_DD_L5,2021.2.3,MacIntel,58.82352941,,,,,,,,,,,,0.528,0,,,,,,,,,,,,,,,,,,,,,,,,0.022222222,-0.416666667,0,0,0,,,,,,,CLOUD,C,old,y,./images/CLOUD.png,,,,,,,m,0,0.528,,,,,,,,0,137,137,26,1
,,,,,,,,,,,,,,,,,199873,23,2022-01-25_21h36.26.341,lexical_decision_task_DD_L5,2021.2.3,MacIntel,58.82352941,,,,,,,,,,,,0.539,0,,,,,,,,,,,,,,,,,,,,,,,,0.022222222,-0.416666667,0,0,0,,,,,,,COLLAR,HB,old,y,./images/COLLARHB.png,,,,,,,z,0,0.539,,,,,,,,0,138,138,15,1
,,,,,,,,,,,,,,,,,199873,23,2022-01-25_21h36.26.341,lexical_decision_task_DD_L5,2021.2.3,MacIntel,58.82352941,,,,,,,,,,,,0.842,0,,,,,,,,,,,,,,,,,,,,,,,,0.022222222,-0.416666667,0,0,0,,,,,,,JUMPER,C,old,y,./images/JUMPER.png,,,,,,,z,0,0.842,,,,,,,,0,139,139,74,1
,,,,,,,,,,,,,,,,,199873,23,2022-01-25_21h36.26.341,lexical_decision_task_DD_L5,2021.2.3,MacIntel,58.82352941,,,,,,,,,,,,0.582,0,,,,,,,,,,,,,,,,,,,,,,,,0.022222222,-0.416666667,0,0,0,,,,,,,PLANET,C,old,y,./images/PLANET.png,,,,,,,m,0,0.582,,,,,,,,0,140,140,80,1
,,,,,,,,,,,,,,,,,199873,23,2022-01-25_21h36.26.341,lexical_decision_task_DD_L5,2021.2.3,MacIntel,58.82352941,,,,,,,,,,,,1.003,0,,,,,,,,,,,,,,,,,,,,,,,,0.022222222,-0.416666667,0,0,0,,,,,,,PLANK,LB,new,y,./images/PLANKLB.png,,,,,,,z,0,1.003,,,,,,,,0,141,141,85,1
,,,,,,,,,,,,,,,,,199873,23,2022-01-25_21h36.26.341,lexical_decision_task_DD_L5,2021.2.3,MacIntel,58.82352941,,,,,,,,,,,,0.459,0,,,,,,,,,,,,,,,,,,,,,,,,0.022222222,-0.416666667,0,0,0,,,,,,,CANDY,HB,old,y,./images/CANDYHB.png,,,,,,,z,0,0.459,,,,,,,,0,142,142,39,1
,,,,,,,,,,,,,,,,,199873,23,2022-01-25_21h36.26.341,lexical_decision_task_DD_L5,2021.2.3,MacIntel,58.82352941,,,,,,,,,,,,0.506,0,,,,,,,,,,,,,,,,,,,,,,,,0.022222222,-0.416666667,0,0,0,,,,,,,MEDAL,C,old,y,./images/MEDAL.png,,,,,,,m,0,0.506,,,,,,,,0,143,143,11,1
,,,,,,,,,,,,,,,,,199873,23,2022-01-25_21h36.26.341,lexical_decision_task_DD_L5,2021.2.3,MacIntel,58.82352941,,,,,,,,,,,,0.665,0,,,,,,,,,,,,,,,,,,,,,,,,0.022222222,-0.416666667,0,0,0,,,,,,,SQUARE,HB,new,y,./images/SQUAREHB.png,,,,,,,m,0,0.665,,,,,,,,0,144,144,90,1
,,,,,,,,,,,,,,,,,199873,23,2022-01-25_21h36.26.341,lexical_decision_task_DD_L5,2021.2.3,MacIntel,58.82352941,,,,,,,,,,,,0.518,0,,,,,,,,,,,,,,,,,,,,,,,,0.022222222,-0.416666667,0,0,0,,,,,,,SNACK,LB,new,y,./images/SNACKLB.png,,,,,,,m,0,0.518,,,,,,,,0,145,145,157,1
,,,,,,,,,,,,,,,,,199873,23,2022-01-25_21h36.26.341,lexical_decision_task_DD_L5,2021.2.3,MacIntel,58.82352941,,,,,,,,,,,,0.675,0,,,,,,,,,,,,,,,,,,,,,,,,0.022222222,-0.416666667,0,0,0,,,,,,,PURSE,C,new,y,./images/PURSE.png,,,,,,,z,0,0.675,,,,,,,,0,146,146,146,1
,,,,,,,,,,,,,,,,,199873,23,2022-01-25_21h36.26.341,lexical_decision_task_DD_L5,2021.2.3,MacIntel,58.82352941,,,,,,,,,,,,0.741,0,,,,,,,,,,,,,,,,,,,,,,,,0.022222222,-0.416666667,0,0,0,,,,,,,BUBBLE,C,old,y,./images/BUBBLE.png,,,,,,,m,0,0.741,,,,,,,,0,147,147,71,1
,,,,,,,,,,,,,,,,,199873,23,2022-01-25_21h36.26.341,lexical_decision_task_DD_L5,2021.2.3,MacIntel,58.82352941,,,,,,,,,,,,0.523,0,,,,,,,,,,,,,,,,,,,,,,,,0.022222222,-0.416666667,0,0,0,,,,,,,TOWEL,LB,old,y,./images/TOWELLB.png,,,,,,,m,0,0.523,,,,,,,,0,148,148,1,1
,,,,,,,,,,,,,,,,,199873,23,2022-01-25_21h36.26.341,lexical_decision_task_DD_L5,2021.2.3,MacIntel,58.82352941,,,,,,,,,,,,0.419,0,,,,,,,,,,,,,,,,,,,,,,,,0.022222222,-0.416666667,0,0,0,,,,,,,COOKER,HB,new,y,./images/COOKERHB.png,,,,,,,m,0,0.419,,,,,,,,0,149,149,153,1
,,,,,,,,,,,,,,,,,199873,23,2022-01-25_21h36.26.341,lexical_decision_task_DD_L5,2021.2.3,MacIntel,58.82352941,,,,,,,,,,,,0.339,0,,,,,,,,,,,,,,,,,,,,,,,,0.022222222,-0.416666667,0,0,0,,,,,,,GREASE,HB,new,y,./images/GREASEHB.png,,,,,,,m,0,0.339,,,,,,,,0,150,150,99,1
,,,,,,,,,,,,,,,,,199873,23,2022-01-25_21h36.26.341,lexical_decision_task_DD_L5,2021.2.3,MacIntel,58.82352941,,,,,,,,,,,,0.577,0,,,,,,,,,,,,,,,,,,,,,,,,0.022222222,-0.416666667,0,0,0,,,,,,,TIGER,LB,old,y,./images/TIGERLB.png,,,,,,,m,0,0.577,,,,,,,,0,151,151,37,1
,,,,,,,,,,,,,,,,,199873,23,2022-01-25_21h36.26.341,lexical_decision_task_DD_L5,2021.2.3,MacIntel,58.82352941,,,,,,,,,,,,0.521,0,,,,,,,,,,,,,,,,,,,,,,,,0.022222222,-0.416666667,0,0,0,,,,,,,KITTEN,HB,new,y,./images/KITTENHB.png,,,,,,,m,0,0.521,,,,,,,,0,152,152,129,1
,,,,,,,,,,,,,,,,,199873,23,2022-01-25_21h36.26.341,lexical_decision_task_DD_L5,2021.2.3,MacIntel,58.82352941,,,,,,,,,,,,0.383,0,,,,,,,,,,,,,,,,,,,,,,,,0.022222222,-0.416666667,0,0,0,,,,,,,LIZARD,C,new,y,./images/LIZARD.png,,,,,,,m,0,0.383,,,,,,,,0,153,153,128,1
,,,,,,,,,,,,,,,,,199873,23,2022-01-25_21h36.26.341,lexical_decision_task_DD_L5,2021.2.3,MacIntel,58.82352941,,,,,,,,,,,,0.237,0,,,,,,,,,,,,,,,,,,,,,,,,0.022222222,-0.416666667,0,0,0,,,,,,,BANNER,LB,new,y,./images/BANNERLB.png,,,,,,,m,0,0.237,,,,,,,,0,154,154,136,1
,,,,,,,,,,,,,,,,,199873,23,2022-01-25_21h36.26.341,lexical_decision_task_DD_L5,2021.2.3,MacIntel,58.82352941,,,,,,,,,,,,0.546,0,,,,,,,,,,,,,,,,,,,,,,,,0.022222222,-0.416666667,0,0,0,,,,,,,ONION,HB,new,y,./images/ONIONHB.png,,,,,,,z,0,0.546,,,,,,,,0,155,155,135,1
,,,,,,,,,,,,,,,,,199873,23,2022-01-25_21h36.26.341,lexical_decision_task_DD_L5,2021.2.3,MacIntel,58.82352941,,,,,,,,,,,,0.641,0,,,,,,,,,,,,,,,,,,,,,,,,0.022222222,-0.416666667,0,0,0,,,,,,,FARMER,C,new,y,./images/FARMER.png,,,,,,,z,0,0.641,,,,,,,,0,156,156,149,1
,,,,,,,,,,,,,,,,,199873,23,2022-01-25_21h36.26.341,lexical_decision_task_DD_L5,2021.2.3,MacIntel,58.82352941,,,,,,,,,,,,0.563,0,,,,,,,,,,,,,,,,,,,,,,,,0.022222222,-0.416666667,0,0,0,,,,,,,GLOVE,LB,old,y,./images/GLOVELB.png,,,,,,,m,0,0.563,,,,,,,,0,157,157,73,1
,,,,,,,,,,,,,,,,,199873,23,2022-01-25_21h36.26.341,lexical_decision_task_DD_L5,2021.2.3,MacIntel,58.82352941,,,,,,,,,,,,0.54,0,,,,,,,,,,,,,,,,,,,,,,,,0.022222222,-0.416666667,0,0,0,,,,,,,BEARD,C,new,y,./images/BEARD.png,,,,,,,m,0,0.54,,,,,,,,0,158,158,86,1
,,,,,,,,,,,,,,,,,199873,23,2022-01-25_21h36.26.341,lexical_decision_task_DD_L5,2021.2.3,MacIntel,58.82352941,,,,,,,,,,,,0.839,0,,,,,,,,,,,,,,,,,,,,,,,,0.022222222,-0.416666667,0,0,0,,,,,,,CRADLE,C,new,y,./images/CRADLE.png,,,,,,,z,0,0.839,,,,,,,,0,159,159,104,1
,,,,,,,,,,,,,,,,,199873,23,2022-01-25_21h36.26.341,lexical_decision_task_DD_L5,2021.2.3,MacIntel,58.82352941,,,,,,,,,,,,0.607,0,,,,,,,,,,,,,,,,,,,,,,,,0.022222222,-0.416666667,0,0,0,,,,,,,POODLE,HB,new,y,./images/POODLEHB.png,,,,,,,z,0,0.607,,,,,,,,0,160,160,165,1
,,,,,,,,,,,,,,,,,199873,23,2022-01-25_21h36.26.341,lexical_decision_task_DD_L5,2021.2.3,MacIntel,58.82352941,,,,,,,,,,,,0.417,0,,,,,,,,,,,,,,,,,,,,,,,,0.022222222,-0.416666667,0,0,0,,,,,,,CHERRY,HB,old,y,./images/CHERRYHB.png,,,,,,,z,0,0.417,,,,,,,,0,161,161,54,1
,,,,,,,,,,,,,,,,,199873,23,2022-01-25_21h36.26.341,lexical_decision_task_DD_L5,2021.2.3,MacIntel,58.82352941,,,,,,,,,,,,0.53,0,,,,,,,,,,,,,,,,,,,,,,,,0.022222222,-0.416666667,0,0,0,,,,,,,SAUCE,HB,old,y,./images/SAUCEHB.png,,,,,,,z,0,0.53,,,,,,,,0,162,162,51,1
,,,,,,,,,,,,,,,,,199873,23,2022-01-25_21h36.26.341,lexical_decision_task_DD_L5,2021.2.3,MacIntel,58.82352941,,,,,,,,,,,,0.533,0,,,,,,,,,,,,,,,,,,,,,,,,0.022222222,-0.416666667,0,0,0,,,,,,,BOILER,HB,old,y,./images/BOILERHB.png,,,,,,,m,0,0.533,,,,,,,,0,163,163,36,1
,,,,,,,,,,,,,,,,,199873,23,2022-01-25_21h36.26.341,lexical_decision_task_DD_L5,2021.2.3,MacIntel,58.82352941,,,,,,,,,,,,0.592,0,,,,,,,,,,,,,,,,,,,,,,,,0.022222222,-0.416666667,0,0,0,,,,,,,DIVER,HB,old,y,./images/DIVERHB.png,,,,,,,m,0,0.592,,,,,,,,0,164,164,9,1
,,,,,,,,,,,,,,,,,199873,23,2022-01-25_21h36.26.341,lexical_decision_task_DD_L5,2021.2.3,MacIntel,58.82352941,,,,,,,,,,,,0.556,0,,,,,,,,,,,,,,,,,,,,,,,,0.022222222,-0.416666667,0,0,0,,,,,,,MUFFIN,LB,new,y,./images/MUFFINLB.png,,,,,,,m,0,0.556,,,,,,,,0,165,165,139,1
,,,,,,,,,,,,,,,,,199873,23,2022-01-25_21h36.26.341,lexical_decision_task_DD_L5,2021.2.3,MacIntel,58.82352941,,,,,,,,,,,,0.559,0,,,,,,,,,,,,,,,,,,,,,,,,0.022222222,-0.416666667,0,0,0,,,,,,,MIDGET,LB,old,y,./images/MIDGETLB.png,,,,,,,m,0,0.559,,,,,,,,0,166,166,76,1
,,,,,,,,,,,,,,,,,199873,23,2022-01-25_21h36.26.341,lexical_decision_task_DD_L5,2021.2.3,MacIntel,58.82352941,,,,,,,,,,,,0.606,0,,,,,,,,,,,,,,,,,,,,,,,,0.022222222,-0.416666667,0,0,0,,,,,,,GRAPE,LB,old,y,./images/GRAPELB.png,,,,,,,m,0,0.606,,,,,,,,0,167,167,16,1
