key_resp.keys,instr_done_touch.x,instr_done_touch.y,instr_done_touch.leftButton,instr_done_touch.midButton,instr_done_touch.rightButton,instr_done_touch.clicked_name,instruction_pages.thisRepN,instruction_pages.thisTrialN,instruction_pages.thisN,instruction_pages.thisIndex,instruction_pages.ran,pageN,phase,instruct_text,has_image,instruct_image,participant,age,date,expName,psychopyVersion,OS,frameRate,key_resp.rt,response.keys,response.corr,response.rt,touch_resp.x,touch_resp.y,touch_resp.leftButton,touch_resp.midButton,touch_resp.rightButton,touch_resp.time,touch_resp.clicked_name,rt,corr,practrials.thisRepN,practrials.thisTrialN,practrials.thisN,practrials.thisIndex,practrials.ran,TrialID,Target,corrAns,end_of_practice_trials_pages.thisRepN,end_of_practice_trials_pages.thisTrialN,end_of_practice_trials_pages.thisN,end_of_practice_trials_pages.thisIndex,end_of_practice_trials_pages.ran,key_resp_2.keys,key_resp_2.corr,key_resp_2.rt,targ_click.x,targ_click.y,targ_click.leftButton,targ_click.midButton,targ_click.rightButton,targ_click.time,targ_click.clicked_name,break_done_touch.x,break_done_touch.y,break_done_touch.leftButton,break_done_touch.midButton,break_done_touch.rightButton,break_done_keyboard.keys,maintrials.thisRepN,maintrials.thisTrialN,maintrials.thisN,maintrials.thisIndex,maintrials.ran,string,blur,study,lex,stim_path,break_done_keyboard.rt,test_instructions.thisRepN,test_instructions.thisTrialN,test_instructions.thisN,test_instructions.thisIndex,test_instructions.ran,key_resp_3.keys,key_resp_3.corr,key_resp_3.rt,test_click.x,test_click.y,test_click.leftButton,test_click.midButton,test_click.rightButton,test_click.time,test_click.clicked_name,test_phase.thisRepN,test_phase.thisTrialN,test_phase.thisN,test_phase.thisIndex,test_phase.ran
,-0.03,-0.361111111,1,0,0,instr_done_button,0,0,0,0,1,1,instructions,"INSTRUCTIONS
At the start of each trial, look at the plus sign  (+) in the center of the screen.  This tells you that a trial is about to begin and where to look. Second, the plus sign will disappear and a string of letters will appear. Your task is to determine if the string of letters is a word or not. If the item is a word press the M key (on keyboard)  or touch the word button (phone/tablet).  If the item is not a word,  press the  Z key (on keyboard)  or touch the nonword button (on phone/tablet). 
Press the space bar or touch  continue.",0,,199858,18,2022-01-28_15h18.10.081,lexical_decision_task_DD_L5,2021.2.3,MacIntel,62.5,,,,,,,,,,,,,,,,,,,,,,,,,,,,,,,,,,,,,,,,,,,,,,,,,,,,,,,,,,,,,,,,,,,,,,,,,
space,-0.03,-0.363333333,0,0,0,,0,1,1,1,1,2,instructions,"If your device has a keyboard, press the 'Z' key for nonwords and the 'M' key for words.





Press the space bar or touch the button below to continue.",0,keyboard-example.gif,199858,18,2022-01-28_15h18.10.081,lexical_decision_task_DD_L5,2021.2.3,MacIntel,62.5,13.509,,,,,,,,,,,,,,,,,,,,,,,,,,,,,,,,,,,,,,,,,,,,,,,,,,,,,,,,,,,,,,,,,,,,,,,,
space,-0.03,-0.363333333,0,0,0,,0,2,2,2,1,3,instructions,"If you are using a touchscreen only device, use the buttons on the screen. Do not use the mouse.





Press the space bar or touch the button below to continue.",0,touchscreen-example.gif,199858,18,2022-01-28_15h18.10.081,lexical_decision_task_DD_L5,2021.2.3,MacIntel,62.5,6.074,,,,,,,,,,,,,,,,,,,,,,,,,,,,,,,,,,,,,,,,,,,,,,,,,,,,,,,,,,,,,,,,,,,,,,,,
space,-0.03,-0.363333333,0,0,0,,0,3,3,3,1,4,instructions,"It is very important that you respond as quickly and accurately as possible, as each letter string will only be on the screen for two seconds. If you do not respond within this time, the message 'Too slow!' will be displayed and the experiment will progress to the next letter string. The first 20 trials will be practice trials and you will receive feedback on your answers. 

Press the space bar or touch the button below to start the practice trials.",0,,199858,18,2022-01-28_15h18.10.081,lexical_decision_task_DD_L5,2021.2.3,MacIntel,62.5,8.691,,,,,,,,,,,,,,,,,,,,,,,,,,,,,,,,,,,,,,,,,,,,,,,,,,,,,,,,,,,,,,,,,,,,,,,,
,,,,,,,,,,,,,,,,,199858,18,2022-01-28_15h18.10.081,lexical_decision_task_DD_L5,2021.2.3,MacIntel,62.5,,z,1,2.159,,,,,,,,2.159,1,0,0,0,12,1,1001,SPRINY,z,,,,,,,,,,,,,,,,,,,,,,,,,,,,,,,,,,,,,,,,,,,,,,,,,,,,
,,,,,,,,,,,,,,,,,199858,18,2022-01-28_15h18.10.081,lexical_decision_task_DD_L5,2021.2.3,MacIntel,62.5,,m,1,1.087,,,,,,,,1.087,1,0,1,1,5,1,1001,OBTAIN,m,,,,,,,,,,,,,,,,,,,,,,,,,,,,,,,,,,,,,,,,,,,,,,,,,,,,
,,,,,,,,,,,,,,,,,199858,18,2022-01-28_15h18.10.081,lexical_decision_task_DD_L5,2021.2.3,MacIntel,62.5,,z,1,1.178,,,,,,,,1.178,1,0,2,2,8,1,1001,ASLERT,z,,,,,,,,,,,,,,,,,,,,,,,,,,,,,,,,,,,,,,,,,,,,,,,,,,,,
,,,,,,,,,,,,,,,,,199858,18,2022-01-28_15h18.10.081,lexical_decision_task_DD_L5,2021.2.3,MacIntel,62.5,,m,1,0.589,,,,,,,,0.589,1,0,3,3,7,1,1001,VOLUME,m,,,,,,,,,,,,,,,,,,,,,,,,,,,,,,,,,,,,,,,,,,,,,,,,,,,,
,,,,,,,,,,,,,,,,,199858,18,2022-01-28_15h18.10.081,lexical_decision_task_DD_L5,2021.2.3,MacIntel,62.5,,m,1,0.66,,,,,,,,0.66,1,0,4,4,1,1,1001,ADJUST,m,,,,,,,,,,,,,,,,,,,,,,,,,,,,,,,,,,,,,,,,,,,,,,,,,,,,
,,,,,,,,,,,,,,,,,199858,18,2022-01-28_15h18.10.081,lexical_decision_task_DD_L5,2021.2.3,MacIntel,62.5,,z,1,0.756,,,,,,,,0.756,1,0,5,5,9,1,1001,FARINY,z,,,,,,,,,,,,,,,,,,,,,,,,,,,,,,,,,,,,,,,,,,,,,,,,,,,,
,,,,,,,,,,,,,,,,,199858,18,2022-01-28_15h18.10.081,lexical_decision_task_DD_L5,2021.2.3,MacIntel,62.5,,z,1,0.688,,,,,,,,0.688,1,0,6,6,13,1,1001,ROUPET,z,,,,,,,,,,,,,,,,,,,,,,,,,,,,,,,,,,,,,,,,,,,,,,,,,,,,
,,,,,,,,,,,,,,,,,199858,18,2022-01-28_15h18.10.081,lexical_decision_task_DD_L5,2021.2.3,MacIntel,62.5,,z,1,0.674,,,,,,,,0.674,1,0,7,7,11,1,1001,RASHET,z,,,,,,,,,,,,,,,,,,,,,,,,,,,,,,,,,,,,,,,,,,,,,,,,,,,,
,,,,,,,,,,,,,,,,,199858,18,2022-01-28_15h18.10.081,lexical_decision_task_DD_L5,2021.2.3,MacIntel,62.5,,z,1,0.565,,,,,,,,0.565,1,0,8,8,10,1,1001,INLADE,z,,,,,,,,,,,,,,,,,,,,,,,,,,,,,,,,,,,,,,,,,,,,,,,,,,,,
,,,,,,,,,,,,,,,,,199858,18,2022-01-28_15h18.10.081,lexical_decision_task_DD_L5,2021.2.3,MacIntel,62.5,,m,1,0.713,,,,,,,,0.713,1,0,9,9,0,1,1001,UTOPIA,m,,,,,,,,,,,,,,,,,,,,,,,,,,,,,,,,,,,,,,,,,,,,,,,,,,,,
,,,,,,,,,,,,,,,,,199858,18,2022-01-28_15h18.10.081,lexical_decision_task_DD_L5,2021.2.3,MacIntel,62.5,,z,1,0.689,,,,,,,,0.689,1,0,10,10,15,1,1001,WHAISE,z,,,,,,,,,,,,,,,,,,,,,,,,,,,,,,,,,,,,,,,,,,,,,,,,,,,,
,,,,,,,,,,,,,,,,,199858,18,2022-01-28_15h18.10.081,lexical_decision_task_DD_L5,2021.2.3,MacIntel,62.5,,m,1,0.648,,,,,,,,0.648,1,0,11,11,4,1,1001,SQUEAK,m,,,,,,,,,,,,,,,,,,,,,,,,,,,,,,,,,,,,,,,,,,,,,,,,,,,,
,,,,,,,,,,,,,,,,,199858,18,2022-01-28_15h18.10.081,lexical_decision_task_DD_L5,2021.2.3,MacIntel,62.5,,z,1,1.037,,,,,,,,1.037,1,0,12,12,14,1,1001,THRALE,z,,,,,,,,,,,,,,,,,,,,,,,,,,,,,,,,,,,,,,,,,,,,,,,,,,,,
,,,,,,,,,,,,,,,,,199858,18,2022-01-28_15h18.10.081,lexical_decision_task_DD_L5,2021.2.3,MacIntel,62.5,,m,1,0.743,,,,,,,,0.743,1,0,13,13,2,1,1001,ALMOND,m,,,,,,,,,,,,,,,,,,,,,,,,,,,,,,,,,,,,,,,,,,,,,,,,,,,,
,,,,,,,,,,,,,,,,,199858,18,2022-01-28_15h18.10.081,lexical_decision_task_DD_L5,2021.2.3,MacIntel,62.5,,m,1,0.793,,,,,,,,0.793,1,0,14,14,3,1,1001,MATRIX,m,,,,,,,,,,,,,,,,,,,,,,,,,,,,,,,,,,,,,,,,,,,,,,,,,,,,
,,,,,,,,,,,,,,,,,199858,18,2022-01-28_15h18.10.081,lexical_decision_task_DD_L5,2021.2.3,MacIntel,62.5,,m,1,0.664,,,,,,,,0.664,1,0,15,15,6,1,1001,ZOMBIE,m,,,,,,,,,,,,,,,,,,,,,,,,,,,,,,,,,,,,,,,,,,,,,,,,,,,,
,-0.042222222,-0.411111111,1,0,0,instr_done_button,,,,,,1,end_of_practice,"You have completed the practice trials. During the experimental trials, you will not receive feedback. 
Before you begin, please ensure that you are in a comfortable and quiet location and will not be disturbed for about 15 minutes, as we cannot use your data if you do not complete all the trials. 
 When you are ready to start the experimental trials, please press space or touch the button below.",,,199858,18,2022-01-28_15h18.10.081,lexical_decision_task_DD_L5,2021.2.3,MacIntel,62.5,,,,,,,,,,,,,,,,,,,,,,0,0,0,0,1,,,,,,,,,,,,,,,,,,,,,,,,,,,,,,,,,,,,,,,,,,,,,,,
,,,,,,,,,,,,,,,,,199858,18,2022-01-28_15h18.10.081,lexical_decision_task_DD_L5,2021.2.3,MacIntel,62.5,,,,,,,,,,,,1.171,1,,,,,,,,,,,,,,z,1,1.171,,,,,,,,0.004444444,-0.298888889,0,0,0,,0,0,0,99,1,BACKY,C,old,z,./images/BACKY.png,,,,,,,,,,,,,,,,,,,,,
,,,,,,,,,,,,,,,,,199858,18,2022-01-28_15h18.10.081,lexical_decision_task_DD_L5,2021.2.3,MacIntel,62.5,,,,,,,,,,,,0.77,1,,,,,,,,,,,,,,z,1,0.77,,,,,,,,0.004444444,-0.298888889,0,0,0,,0,1,1,84,1,HAXES,C,old,z,./images/HAXES.png,,,,,,,,,,,,,,,,,,,,,
,,,,,,,,,,,,,,,,,199858,18,2022-01-28_15h18.10.081,lexical_decision_task_DD_L5,2021.2.3,MacIntel,62.5,,,,,,,,,,,,2.03,1,,,,,,,,,,,,,,m,1,2.03,,,,,,,,0.004444444,-0.298888889,0,0,0,,0,2,2,45,1,MONKEY,HB,old,m,./images/MONKEYHB.png,,,,,,,,,,,,,,,,,,,,,
,,,,,,,,,,,,,,,,,199858,18,2022-01-28_15h18.10.081,lexical_decision_task_DD_L5,2021.2.3,MacIntel,62.5,,,,,,,,,,,,1.537,1,,,,,,,,,,,,,,m,1,1.537,,,,,,,,0.004444444,-0.298888889,0,0,0,,0,3,3,35,1,LLAMA,C,old,m,./images/LLAMA.png,,,,,,,,,,,,,,,,,,,,,
,,,,,,,,,,,,,,,,,199858,18,2022-01-28_15h18.10.081,lexical_decision_task_DD_L5,2021.2.3,MacIntel,62.5,,,,,,,,,,,,1.231,1,,,,,,,,,,,,,,m,1,1.231,,,,,,,,0.004444444,-0.298888889,0,0,0,,0,4,4,6,1,STAIN,HB,old,m,./images/STAINHB.png,,,,,,,,,,,,,,,,,,,,,
,,,,,,,,,,,,,,,,,199858,18,2022-01-28_15h18.10.081,lexical_decision_task_DD_L5,2021.2.3,MacIntel,62.5,,,,,,,,,,,,0.663,1,,,,,,,,,,,,,,m,1,0.663,,,,,,,,0.004444444,-0.298888889,0,0,0,,0,5,5,17,1,PARADE,C,old,m,./images/PARADE.png,,,,,,,,,,,,,,,,,,,,,
,,,,,,,,,,,,,,,,,199858,18,2022-01-28_15h18.10.081,lexical_decision_task_DD_L5,2021.2.3,MacIntel,62.5,,,,,,,,,,,,0.822,1,,,,,,,,,,,,,,z,1,0.822,,,,,,,,0.004444444,-0.298888889,0,0,0,,0,6,6,96,1,KEAMS,C,old,z,./images/KEAMS.png,,,,,,,,,,,,,,,,,,,,,
,,,,,,,,,,,,,,,,,199858,18,2022-01-28_15h18.10.081,lexical_decision_task_DD_L5,2021.2.3,MacIntel,62.5,,,,,,,,,,,,2.005,0,,,,,,,,,,,,,,z,0,2.005,,,,,,,,0.004444444,-0.298888889,0,0,0,,0,7,7,20,1,GRANNY,C,old,m,./images/GRANNY.png,,,,,,,,,,,,,,,,,,,,,
,,,,,,,,,,,,,,,,,199858,18,2022-01-28_15h18.10.081,lexical_decision_task_DD_L5,2021.2.3,MacIntel,62.5,,,,,,,,,,,,0.923,1,,,,,,,,,,,,,,m,1,0.923,,,,,,,,0.004444444,-0.298888889,0,0,0,,0,8,8,67,1,POKER,LB,old,m,./images/POKERLB.png,,,,,,,,,,,,,,,,,,,,,
,,,,,,,,,,,,,,,,,199858,18,2022-01-28_15h18.10.081,lexical_decision_task_DD_L5,2021.2.3,MacIntel,62.5,,,,,,,,,,,,0.783,1,,,,,,,,,,,,,,m,1,0.783,,,,,,,,0.004444444,-0.298888889,0,0,0,,0,9,9,71,1,BUBBLE,C,old,m,./images/BUBBLE.png,,,,,,,,,,,,,,,,,,,,,
,,,,,,,,,,,,,,,,,199858,18,2022-01-28_15h18.10.081,lexical_decision_task_DD_L5,2021.2.3,MacIntel,62.5,,,,,,,,,,,,0.936,1,,,,,,,,,,,,,,m,1,0.936,,,,,,,,0.004444444,-0.298888889,0,0,0,,0,10,10,36,1,BOILER,HB,old,m,./images/BOILERHB.png,,,,,,,,,,,,,,,,,,,,,
,,,,,,,,,,,,,,,,,199858,18,2022-01-28_15h18.10.081,lexical_decision_task_DD_L5,2021.2.3,MacIntel,62.5,,,,,,,,,,,,0.88,1,,,,,,,,,,,,,,z,1,0.88,,,,,,,,0.004444444,-0.298888889,0,0,0,,0,11,11,132,1,SCIFF,C,old,z,./images/SCIFF.png,,,,,,,,,,,,,,,,,,,,,
,,,,,,,,,,,,,,,,,199858,18,2022-01-28_15h18.10.081,lexical_decision_task_DD_L5,2021.2.3,MacIntel,62.5,,,,,,,,,,,,0.879,1,,,,,,,,,,,,,,z,1,0.879,,,,,,,,0.004444444,-0.298888889,0,0,0,,0,12,12,98,1,BAMPS,LB,old,z,./images/BAMPSLB.png,,,,,,,,,,,,,,,,,,,,,
,,,,,,,,,,,,,,,,,199858,18,2022-01-28_15h18.10.081,lexical_decision_task_DD_L5,2021.2.3,MacIntel,62.5,,,,,,,,,,,,0.773,1,,,,,,,,,,,,,,z,1,0.773,,,,,,,,0.004444444,-0.298888889,0,0,0,,0,13,13,122,1,BLOOT,LB,old,z,./images/BLOOTLB.png,,,,,,,,,,,,,,,,,,,,,
,,,,,,,,,,,,,,,,,199858,18,2022-01-28_15h18.10.081,lexical_decision_task_DD_L5,2021.2.3,MacIntel,62.5,,,,,,,,,,,,1.372,1,,,,,,,,,,,,,,z,1,1.372,,,,,,,,0.004444444,-0.298888889,0,0,0,,0,14,14,139,1,BLEAR,HB,old,z,./images/BLEARHB.png,,,,,,,,,,,,,,,,,,,,,
,,,,,,,,,,,,,,,,,199858,18,2022-01-28_15h18.10.081,lexical_decision_task_DD_L5,2021.2.3,MacIntel,62.5,,,,,,,,,,,,0.64,1,,,,,,,,,,,,,,m,1,0.64,,,,,,,,0.004444444,-0.298888889,0,0,0,,0,15,15,44,1,BASKET,C,old,m,./images/BASKET.png,,,,,,,,,,,,,,,,,,,,,
,,,,,,,,,,,,,,,,,199858,18,2022-01-28_15h18.10.081,lexical_decision_task_DD_L5,2021.2.3,MacIntel,62.5,,,,,,,,,,,,0.722,1,,,,,,,,,,,,,,z,1,0.722,,,,,,,,0.004444444,-0.298888889,0,0,0,,0,16,16,95,1,HANTY,LB,old,z,./images/HANTYLB.png,,,,,,,,,,,,,,,,,,,,,
,,,,,,,,,,,,,,,,,199858,18,2022-01-28_15h18.10.081,lexical_decision_task_DD_L5,2021.2.3,MacIntel,62.5,,,,,,,,,,,,1.154,1,,,,,,,,,,,,,,m,1,1.154,,,,,,,,0.004444444,-0.298888889,0,0,0,,0,17,17,34,1,RAZOR,LB,old,m,./images/RAZORLB.png,,,,,,,,,,,,,,,,,,,,,
,,,,,,,,,,,,,,,,,199858,18,2022-01-28_15h18.10.081,lexical_decision_task_DD_L5,2021.2.3,MacIntel,62.5,,,,,,,,,,,,0.444,1,,,,,,,,,,,,,,m,1,0.444,,,,,,,,0.008888889,-0.317777778,0,0,0,,0,18,18,26,1,CLOUD,C,old,m,./images/CLOUD.png,,,,,,,,,,,,,,,,,,,,,
,,,,,,,,,,,,,,,,,199858,18,2022-01-28_15h18.10.081,lexical_decision_task_DD_L5,2021.2.3,MacIntel,62.5,,,,,,,,,,,,0.631,1,,,,,,,,,,,,,,z,1,0.631,,,,,,,,0.008888889,-0.317777778,0,0,0,,0,19,19,90,1,NEAST,C,old,z,./images/NEAST.png,,,,,,,,,,,,,,,,,,,,,
,,,,,,,,,,,,,,,,,199858,18,2022-01-28_15h18.10.081,lexical_decision_task_DD_L5,2021.2.3,MacIntel,62.5,,,,,,,,,,,,1.527,1,,,,,,,,,,,,,,m,1,1.527,,,,,,,,0.008888889,-0.317777778,0,0,0,,0,20,20,68,1,VALLEY,C,old,m,./images/VALLEY.png,,,,,,,,,,,,,,,,,,,,,
,,,,,,,,,,,,,,,,,199858,18,2022-01-28_15h18.10.081,lexical_decision_task_DD_L5,2021.2.3,MacIntel,62.5,,,,,,,,,,,,0.827,1,,,,,,,,,,,,,,z,1,0.827,,,,,,,,0.008888889,-0.317777778,0,0,0,,0,21,21,159,1,CUDDY,C,old,z,./images/CUDDY.png,,,,,,,,,,,,,,,,,,,,,
,,,,,,,,,,,,,,,,,199858,18,2022-01-28_15h18.10.081,lexical_decision_task_DD_L5,2021.2.3,MacIntel,62.5,,,,,,,,,,,,0.712,1,,,,,,,,,,,,,,m,1,0.712,,,,,,,,0.008888889,-0.317777778,0,0,0,,0,22,22,61,1,ARTIST,LB,old,m,./images/ARTISTLB.png,,,,,,,,,,,,,,,,,,,,,
,,,,,,,,,,,,,,,,,199858,18,2022-01-28_15h18.10.081,lexical_decision_task_DD_L5,2021.2.3,MacIntel,62.5,,,,,,,,,,,,1.363,1,,,,,,,,,,,,,,m,1,1.363,,,,,,,,0.008888889,-0.317777778,0,0,0,,0,23,23,9,1,DIVER,HB,old,m,./images/DIVERHB.png,,,,,,,,,,,,,,,,,,,,,
,,,,,,,,,,,,,,,,,199858,18,2022-01-28_15h18.10.081,lexical_decision_task_DD_L5,2021.2.3,MacIntel,62.5,,,,,,,,,,,,0.54,1,,,,,,,,,,,,,,m,1,0.54,,,,,,,,0.008888889,-0.317777778,0,0,0,,0,24,24,7,1,WAGON,LB,old,m,./images/WAGONLB.png,,,,,,,,,,,,,,,,,,,,,
,,,,,,,,,,,,,,,,,199858,18,2022-01-28_15h18.10.081,lexical_decision_task_DD_L5,2021.2.3,MacIntel,62.5,,,,,,,,,,,,0.945,1,,,,,,,,,,,,,,m,1,0.945,,,,,,,,0.008888889,-0.317777778,0,0,0,,0,25,25,38,1,ENGINE,C,old,m,./images/ENGINE.png,,,,,,,,,,,,,,,,,,,,,
,,,,,,,,,,,,,,,,,199858,18,2022-01-28_15h18.10.081,lexical_decision_task_DD_L5,2021.2.3,MacIntel,62.5,,,,,,,,,,,,1.109,1,,,,,,,,,,,,,,z,1,1.109,,,,,,,,0.008888889,-0.317777778,0,0,0,,0,26,26,101,1,GLEET,LB,old,z,./images/GLEETLB.png,,,,,,,,,,,,,,,,,,,,,
,,,,,,,,,,,,,,,,,199858,18,2022-01-28_15h18.10.081,lexical_decision_task_DD_L5,2021.2.3,MacIntel,62.5,,,,,,,,,,,,1.254,1,,,,,,,,,,,,,,z,1,1.254,,,,,,,,0.008888889,-0.317777778,0,0,0,,0,27,27,103,1,FLORT,HB,old,z,./images/FLORTHB.png,,,,,,,,,,,,,,,,,,,,,
,,,,,,,,,,,,,,,,,199858,18,2022-01-28_15h18.10.081,lexical_decision_task_DD_L5,2021.2.3,MacIntel,62.5,,,,,,,,,,,,1.487,1,,,,,,,,,,,,,,z,1,1.487,,,,,,,,0.008888889,-0.317777778,0,0,0,,0,28,28,112,1,MYING,HB,old,z,./images/MYINGHB.png,,,,,,,,,,,,,,,,,,,,,
,,,,,,,,,,,,,,,,,199858,18,2022-01-28_15h18.10.081,lexical_decision_task_DD_L5,2021.2.3,MacIntel,62.5,,,,,,,,,,,,0.904,1,,,,,,,,,,,,,,z,1,0.904,,,,,,,,0.008888889,-0.317777778,0,0,0,,0,29,29,143,1,MONGS,LB,old,z,./images/MONGSLB.png,,,,,,,,,,,,,,,,,,,,,
,,,,,,,,,,,,,,,,,199858,18,2022-01-28_15h18.10.081,lexical_decision_task_DD_L5,2021.2.3,MacIntel,62.5,,,,,,,,,,,,0.857,1,,,,,,,,,,,,,,z,1,0.857,,,,,,,,0.008888889,-0.317777778,0,0,0,,0,30,30,135,1,JOODY,C,old,z,./images/JOODY.png,,,,,,,,,,,,,,,,,,,,,
,,,,,,,,,,,,,,,,,199858,18,2022-01-28_15h18.10.081,lexical_decision_task_DD_L5,2021.2.3,MacIntel,62.5,,,,,,,,,,,,1.743,1,,,,,,,,,,,,,,m,1,1.743,,,,,,,,0.008888889,-0.317777778,0,0,0,,0,31,31,66,1,STATUE,HB,old,m,./images/STATUEHB.png,,,,,,,,,,,,,,,,,,,,,
,,,,,,,,,,,,,,,,,199858,18,2022-01-28_15h18.10.081,lexical_decision_task_DD_L5,2021.2.3,MacIntel,62.5,,,,,,,,,,,,0.611,1,,,,,,,,,,,,,,m,1,0.611,,,,,,,,0.008888889,-0.317777778,0,0,0,,0,32,32,32,1,HOCKEY,C,old,m,./images/HOCKEY.png,,,,,,,,,,,,,,,,,,,,,
,,,,,,,,,,,,,,,,,199858,18,2022-01-28_15h18.10.081,lexical_decision_task_DD_L5,2021.2.3,MacIntel,62.5,,,,,,,,,,,,0.601,1,,,,,,,,,,,,,,m,1,0.601,,,,,,,,0.008888889,-0.317777778,0,0,0,,0,33,33,28,1,CASINO,LB,old,m,./images/CASINOLB.png,,,,,,,,,,,,,,,,,,,,,
,,,,,,,,,,,,,,,,,199858,18,2022-01-28_15h18.10.081,lexical_decision_task_DD_L5,2021.2.3,MacIntel,62.5,,,,,,,,,,,,0.947,1,,,,,,,,,,,,,,m,1,0.947,,,,,,,,0.008888889,-0.317777778,0,0,0,,0,34,34,76,1,MIDGET,LB,old,m,./images/MIDGETLB.png,,,,,,,,,,,,,,,,,,,,,
,,,,,,,,,,,,,,,,,199858,18,2022-01-28_15h18.10.081,lexical_decision_task_DD_L5,2021.2.3,MacIntel,62.5,,,,,,,,,,,,0.796,1,,,,,,,,,,,,,,m,1,0.796,,,,,,,,0.008888889,-0.317777778,0,0,0,,0,35,35,63,1,BAKER,HB,old,m,./images/BAKERHB.png,,,,,,,,,,,,,,,,,,,,,
,,,,,,,,,,,,,,,,,199858,18,2022-01-28_15h18.10.081,lexical_decision_task_DD_L5,2021.2.3,MacIntel,62.5,,,,,,,,,,,,0.619,1,,,,,,,,,,,,,,m,1,0.619,,,,,,,,0.008888889,-0.317777778,0,0,0,,0,36,36,64,1,BRIDE,LB,old,m,./images/BRIDELB.png,,,,,,,,,,,,,,,,,,,,,
,,,,,,,,,,,,,,,,,199858,18,2022-01-28_15h18.10.081,lexical_decision_task_DD_L5,2021.2.3,MacIntel,62.5,,,,,,,,,,,,0.796,1,,,,,,,,,,,,,,m,1,0.796,,,,,,,,0.008888889,-0.317777778,0,0,0,,0,37,37,69,1,ARROW,HB,old,m,./images/ARROWHB.png,,,,,,,,,,,,,,,,,,,,,
,,,,,,,,,,,,,,,,,199858,18,2022-01-28_15h18.10.081,lexical_decision_task_DD_L5,2021.2.3,MacIntel,62.5,,,,,,,,,,,,1.279,1,,,,,,,,,,,,,,m,1,1.279,,,,,,,,0.008888889,-0.317777778,0,0,0,,0,38,38,5,1,BAMBOO,C,old,m,./images/BAMBOO.png,,,,,,,,,,,,,,,,,,,,,
,,,,,,,,,,,,,,,,,199858,18,2022-01-28_15h18.10.081,lexical_decision_task_DD_L5,2021.2.3,MacIntel,62.5,,,,,,,,,,,,0.641,1,,,,,,,,,,,,,,z,1,0.641,,,,,,,,0.008888889,-0.317777778,0,0,0,,0,39,39,144,1,NAIRY,C,old,z,./images/NAIRY.png,,,,,,,,,,,,,,,,,,,,,
,,,,,,,,,,,,,,,,,199858,18,2022-01-28_15h18.10.081,lexical_decision_task_DD_L5,2021.2.3,MacIntel,62.5,,,,,,,,,,,,0.874,1,,,,,,,,,,,,,,m,1,0.874,,,,,,,,0.008888889,-0.317777778,0,0,0,,0,40,40,51,1,SAUCE,HB,old,m,./images/SAUCEHB.png,,,,,,,,,,,,,,,,,,,,,
,,,,,,,,,,,,,,,,,199858,18,2022-01-28_15h18.10.081,lexical_decision_task_DD_L5,2021.2.3,MacIntel,62.5,,,,,,,,,,,,0.796,1,,,,,,,,,,,,,,m,1,0.796,,,,,,,,0.008888889,-0.317777778,0,0,0,space,0,41,41,30,1,SLOPE,HB,old,m,./images/SLOPEHB.png,10.495,,,,,,,,,,,,,,,,,,,,
,,,,,,,,,,,,,,,,,199858,18,2022-01-28_15h18.10.081,lexical_decision_task_DD_L5,2021.2.3,MacIntel,62.5,,,,,,,,,,,,0.772,1,,,,,,,,,,,,,,z,1,0.772,,,,,,,,0.008888889,-0.317777778,0,0,0,,0,42,42,138,1,PLICE,C,old,z,./images/PLICE.png,,,,,,,,,,,,,,,,,,,,,
,,,,,,,,,,,,,,,,,199858,18,2022-01-28_15h18.10.081,lexical_decision_task_DD_L5,2021.2.3,MacIntel,62.5,,,,,,,,,,,,0.766,1,,,,,,,,,,,,,,m,1,0.766,,,,,,,,0.008888889,-0.317777778,0,0,0,,0,43,43,8,1,CLIFF,C,old,m,./images/CLIFF.png,,,,,,,,,,,,,,,,,,,,,
,,,,,,,,,,,,,,,,,199858,18,2022-01-28_15h18.10.081,lexical_decision_task_DD_L5,2021.2.3,MacIntel,62.5,,,,,,,,,,,,0.666,1,,,,,,,,,,,,,,z,1,0.666,,,,,,,,0.008888889,-0.317777778,0,0,0,,0,44,44,117,1,STEEG,C,old,z,./images/STEEG.png,,,,,,,,,,,,,,,,,,,,,
,,,,,,,,,,,,,,,,,199858,18,2022-01-28_15h18.10.081,lexical_decision_task_DD_L5,2021.2.3,MacIntel,62.5,,,,,,,,,,,,0.831,1,,,,,,,,,,,,,,z,1,0.831,,,,,,,,0.008888889,-0.317777778,0,0,0,,0,45,45,89,1,DRIEK,LB,old,z,./images/DRIEKLB.png,,,,,,,,,,,,,,,,,,,,,
,,,,,,,,,,,,,,,,,199858,18,2022-01-28_15h18.10.081,lexical_decision_task_DD_L5,2021.2.3,MacIntel,62.5,,,,,,,,,,,,0.658,1,,,,,,,,,,,,,,m,1,0.658,,,,,,,,0.008888889,-0.317777778,0,0,0,,0,46,46,70,1,BANANA,LB,old,m,./images/BANANALB.png,,,,,,,,,,,,,,,,,,,,,
,,,,,,,,,,,,,,,,,199858,18,2022-01-28_15h18.10.081,lexical_decision_task_DD_L5,2021.2.3,MacIntel,62.5,,,,,,,,,,,,0.529,1,,,,,,,,,,,,,,z,1,0.529,,,,,,,,0.008888889,-0.317777778,0,0,0,,0,47,47,150,1,NOOLS,C,old,z,./images/NOOLS.png,,,,,,,,,,,,,,,,,,,,,
,,,,,,,,,,,,,,,,,199858,18,2022-01-28_15h18.10.081,lexical_decision_task_DD_L5,2021.2.3,MacIntel,62.5,,,,,,,,,,,,0.754,1,,,,,,,,,,,,,,m,1,0.754,,,,,,,,0.008888889,-0.317777778,0,0,0,,0,48,48,19,1,DONKEY,LB,old,m,./images/DONKEYLB.png,,,,,,,,,,,,,,,,,,,,,
,,,,,,,,,,,,,,,,,199858,18,2022-01-28_15h18.10.081,lexical_decision_task_DD_L5,2021.2.3,MacIntel,62.5,,,,,,,,,,,,1.032,1,,,,,,,,,,,,,,z,1,1.032,,,,,,,,0.008888889,-0.317777778,0,0,0,,0,49,49,110,1,CRUNK,LB,old,z,./images/CRUNKLB.png,,,,,,,,,,,,,,,,,,,,,
,,,,,,,,,,,,,,,,,199858,18,2022-01-28_15h18.10.081,lexical_decision_task_DD_L5,2021.2.3,MacIntel,62.5,,,,,,,,,,,,0.674,1,,,,,,,,,,,,,,z,1,0.674,,,,,,,,0.008888889,-0.317777778,0,0,0,,0,50,50,114,1,RIKES,C,old,z,./images/RIKES.png,,,,,,,,,,,,,,,,,,,,,
,,,,,,,,,,,,,,,,,199858,18,2022-01-28_15h18.10.081,lexical_decision_task_DD_L5,2021.2.3,MacIntel,62.5,,,,,,,,,,,,0.995,1,,,,,,,,,,,,,,z,1,0.995,,,,,,,,0.008888889,-0.317777778,0,0,0,,0,51,51,124,1,TUNCH,HB,old,z,./images/TUNCHHB.png,,,,,,,,,,,,,,,,,,,,,
,,,,,,,,,,,,,,,,,199858,18,2022-01-28_15h18.10.081,lexical_decision_task_DD_L5,2021.2.3,MacIntel,62.5,,,,,,,,,,,,0.762,1,,,,,,,,,,,,,,m,1,0.762,,,,,,,,0.008888889,-0.317777778,0,0,0,,0,52,52,0,1,WALNUT,HB,old,m,./images/WALNUTHB.png,,,,,,,,,,,,,,,,,,,,,
,,,,,,,,,,,,,,,,,199858,18,2022-01-28_15h18.10.081,lexical_decision_task_DD_L5,2021.2.3,MacIntel,62.5,,,,,,,,,,,,1.657,1,,,,,,,,,,,,,,m,1,1.657,,,,,,,,0.008888889,-0.317777778,0,0,0,,0,53,53,23,1,CLOTH,C,old,m,./images/CLOTH.png,,,,,,,,,,,,,,,,,,,,,
,,,,,,,,,,,,,,,,,199858,18,2022-01-28_15h18.10.081,lexical_decision_task_DD_L5,2021.2.3,MacIntel,62.5,,,,,,,,,,,,0.59,1,,,,,,,,,,,,,,z,1,0.59,,,,,,,,0.008888889,-0.317777778,0,0,0,,0,54,54,102,1,DULLE,C,old,z,./images/DULLE.png,,,,,,,,,,,,,,,,,,,,,
,,,,,,,,,,,,,,,,,199858,18,2022-01-28_15h18.10.081,lexical_decision_task_DD_L5,2021.2.3,MacIntel,62.5,,,,,,,,,,,,0.631,1,,,,,,,,,,,,,,m,1,0.631,,,,,,,,0.008888889,-0.317777778,0,0,0,,0,55,55,1,1,TOWEL,LB,old,m,./images/TOWELLB.png,,,,,,,,,,,,,,,,,,,,,
,,,,,,,,,,,,,,,,,199858,18,2022-01-28_15h18.10.081,lexical_decision_task_DD_L5,2021.2.3,MacIntel,62.5,,,,,,,,,,,,0.579,1,,,,,,,,,,,,,,m,1,0.579,,,,,,,,0.008888889,-0.317777778,0,0,0,,0,56,56,52,1,DESERT,LB,old,m,./images/DESERTLB.png,,,,,,,,,,,,,,,,,,,,,
,,,,,,,,,,,,,,,,,199858,18,2022-01-28_15h18.10.081,lexical_decision_task_DD_L5,2021.2.3,MacIntel,62.5,,,,,,,,,,,,0.507,1,,,,,,,,,,,,,,z,1,0.507,,,,,,,,0.008888889,-0.317777778,0,0,0,,0,57,57,152,1,FRAIN,LB,old,z,./images/FRAINLB.png,,,,,,,,,,,,,,,,,,,,,
,,,,,,,,,,,,,,,,,199858,18,2022-01-28_15h18.10.081,lexical_decision_task_DD_L5,2021.2.3,MacIntel,62.5,,,,,,,,,,,,0.478,1,,,,,,,,,,,,,,z,1,0.478,,,,,,,,0.008888889,-0.317777778,0,0,0,,0,58,58,158,1,EGECT,LB,old,z,./images/EGECTLB.png,,,,,,,,,,,,,,,,,,,,,
,,,,,,,,,,,,,,,,,199858,18,2022-01-28_15h18.10.081,lexical_decision_task_DD_L5,2021.2.3,MacIntel,62.5,,,,,,,,,,,,0.472,1,,,,,,,,,,,,,,z,1,0.472,,,,,,,,0.008888889,-0.317777778,0,0,0,,0,59,59,147,1,ZOLES,C,old,z,./images/ZOLES.png,,,,,,,,,,,,,,,,,,,,,
,,,,,,,,,,,,,,,,,199858,18,2022-01-28_15h18.10.081,lexical_decision_task_DD_L5,2021.2.3,MacIntel,62.5,,,,,,,,,,,,0.664,1,,,,,,,,,,,,,,z,1,0.664,,,,,,,,0.008888889,-0.317777778,0,0,0,,0,60,60,92,1,PAIMS,LB,old,z,./images/PAIMSLB.png,,,,,,,,,,,,,,,,,,,,,
,,,,,,,,,,,,,,,,,199858,18,2022-01-28_15h18.10.081,lexical_decision_task_DD_L5,2021.2.3,MacIntel,62.5,,,,,,,,,,,,1.015,0,,,,,,,,,,,,,,z,0,1.015,,,,,,,,0.008888889,-0.317777778,0,0,0,,0,61,61,12,1,BLOKE,HB,old,m,./images/BLOKEHB.png,,,,,,,,,,,,,,,,,,,,,
,,,,,,,,,,,,,,,,,199858,18,2022-01-28_15h18.10.081,lexical_decision_task_DD_L5,2021.2.3,MacIntel,62.5,,,,,,,,,,,,0.388,1,,,,,,,,,,,,,,z,1,0.388,,,,,,,,0.008888889,-0.317777778,0,0,0,,0,62,62,113,1,LINEW,LB,old,z,./images/LINEWLB.png,,,,,,,,,,,,,,,,,,,,,
,,,,,,,,,,,,,,,,,199858,18,2022-01-28_15h18.10.081,lexical_decision_task_DD_L5,2021.2.3,MacIntel,62.5,,,,,,,,,,,,0.582,1,,,,,,,,,,,,,,m,1,0.582,,,,,,,,0.008888889,-0.317777778,0,0,0,,0,63,63,22,1,CLOWN,LB,old,m,./images/CLOWNLB.png,,,,,,,,,,,,,,,,,,,,,
,,,,,,,,,,,,,,,,,199858,18,2022-01-28_15h18.10.081,lexical_decision_task_DD_L5,2021.2.3,MacIntel,62.5,,,,,,,,,,,,0.714,1,,,,,,,,,,,,,,z,1,0.714,,,,,,,,0.008888889,-0.317777778,0,0,0,,0,64,64,125,1,MOOKY,LB,old,z,./images/MOOKYLB.png,,,,,,,,,,,,,,,,,,,,,
,,,,,,,,,,,,,,,,,199858,18,2022-01-28_15h18.10.081,lexical_decision_task_DD_L5,2021.2.3,MacIntel,62.5,,,,,,,,,,,,0.937,1,,,,,,,,,,,,,,m,1,0.937,,,,,,,,0.008888889,-0.317777778,0,0,0,,0,65,65,10,1,GARDEN,LB,old,m,./images/GARDENLB.png,,,,,,,,,,,,,,,,,,,,,
,,,,,,,,,,,,,,,,,199858,18,2022-01-28_15h18.10.081,lexical_decision_task_DD_L5,2021.2.3,MacIntel,62.5,,,,,,,,,,,,0.88,1,,,,,,,,,,,,,,z,1,0.88,,,,,,,,0.008888889,-0.317777778,0,0,0,,0,66,66,145,1,LAMEL,HB,old,z,./images/LAMELHB.png,,,,,,,,,,,,,,,,,,,,,
,,,,,,,,,,,,,,,,,199858,18,2022-01-28_15h18.10.081,lexical_decision_task_DD_L5,2021.2.3,MacIntel,62.5,,,,,,,,,,,,1.213,1,,,,,,,,,,,,,,m,1,1.213,,,,,,,,0.008888889,-0.317777778,0,0,0,,0,67,67,37,1,TIGER,LB,old,m,./images/TIGERLB.png,,,,,,,,,,,,,,,,,,,,,
,,,,,,,,,,,,,,,,,199858,18,2022-01-28_15h18.10.081,lexical_decision_task_DD_L5,2021.2.3,MacIntel,62.5,,,,,,,,,,,,0.837,1,,,,,,,,,,,,,,z,1,0.837,,,,,,,,0.008888889,-0.317777778,0,0,0,,0,68,68,151,1,TINKY,HB,old,z,./images/TINKYHB.png,,,,,,,,,,,,,,,,,,,,,
,,,,,,,,,,,,,,,,,199858,18,2022-01-28_15h18.10.081,lexical_decision_task_DD_L5,2021.2.3,MacIntel,62.5,,,,,,,,,,,,1.081,1,,,,,,,,,,,,,,z,1,1.081,,,,,,,,0.008888889,-0.317777778,0,0,0,,0,69,69,108,1,GRUET,C,old,z,./images/GRUET.png,,,,,,,,,,,,,,,,,,,,,
,,,,,,,,,,,,,,,,,199858,18,2022-01-28_15h18.10.081,lexical_decision_task_DD_L5,2021.2.3,MacIntel,62.5,,,,,,,,,,,,0.74,1,,,,,,,,,,,,,,z,1,0.74,,,,,,,,0.008888889,-0.317777778,0,0,0,,0,70,70,128,1,GRIFT,LB,old,z,./images/GRIFTLB.png,,,,,,,,,,,,,,,,,,,,,
,,,,,,,,,,,,,,,,,199858,18,2022-01-28_15h18.10.081,lexical_decision_task_DD_L5,2021.2.3,MacIntel,62.5,,,,,,,,,,,,0.708,1,,,,,,,,,,,,,,m,1,0.708,,,,,,,,0.008888889,-0.317777778,0,0,0,,0,71,71,74,1,JUMPER,C,old,m,./images/JUMPER.png,,,,,,,,,,,,,,,,,,,,,
,,,,,,,,,,,,,,,,,199858,18,2022-01-28_15h18.10.081,lexical_decision_task_DD_L5,2021.2.3,MacIntel,62.5,,,,,,,,,,,,1.07,1,,,,,,,,,,,,,,z,1,1.07,,,,,,,,0.008888889,-0.317777778,0,0,0,,0,72,72,129,1,PRANS,C,old,z,./images/PRANS.png,,,,,,,,,,,,,,,,,,,,,
,,,,,,,,,,,,,,,,,199858,18,2022-01-28_15h18.10.081,lexical_decision_task_DD_L5,2021.2.3,MacIntel,62.5,,,,,,,,,,,,0.718,1,,,,,,,,,,,,,,z,1,0.718,,,,,,,,0.008888889,-0.317777778,0,0,0,,0,73,73,111,1,HOSSE,C,old,z,./images/HOSSE.png,,,,,,,,,,,,,,,,,,,,,
,,,,,,,,,,,,,,,,,199858,18,2022-01-28_15h18.10.081,lexical_decision_task_DD_L5,2021.2.3,MacIntel,62.5,,,,,,,,,,,,1.142,1,,,,,,,,,,,,,,z,1,1.142,,,,,,,,0.008888889,-0.317777778,0,0,0,,0,74,74,155,1,CANGY,LB,old,z,./images/CANGYLB.png,,,,,,,,,,,,,,,,,,,,,
,,,,,,,,,,,,,,,,,199858,18,2022-01-28_15h18.10.081,lexical_decision_task_DD_L5,2021.2.3,MacIntel,62.5,,,,,,,,,,,,0.596,1,,,,,,,,,,,,,,z,1,0.596,,,,,,,,0.008888889,-0.317777778,0,0,0,,0,75,75,167,1,ZONET,LB,old,z,./images/ZONETLB.png,,,,,,,,,,,,,,,,,,,,,
,,,,,,,,,,,,,,,,,199858,18,2022-01-28_15h18.10.081,lexical_decision_task_DD_L5,2021.2.3,MacIntel,62.5,,,,,,,,,,,,0.746,1,,,,,,,,,,,,,,m,1,0.746,,,,,,,,0.008888889,-0.317777778,0,0,0,,0,76,76,27,1,BUTTER,HB,old,m,./images/BUTTERHB.png,,,,,,,,,,,,,,,,,,,,,
,,,,,,,,,,,,,,,,,199858,18,2022-01-28_15h18.10.081,lexical_decision_task_DD_L5,2021.2.3,MacIntel,62.5,,,,,,,,,,,,1.613,1,,,,,,,,,,,,,,z,1,1.613,,,,,,,,0.008888889,-0.317777778,0,0,0,,0,77,77,88,1,GLUSH,HB,old,z,./images/GLUSHHB.png,,,,,,,,,,,,,,,,,,,,,
,,,,,,,,,,,,,,,,,199858,18,2022-01-28_15h18.10.081,lexical_decision_task_DD_L5,2021.2.3,MacIntel,62.5,,,,,,,,,,,,0.839,1,,,,,,,,,,,,,,m,1,0.839,,,,,,,,0.008888889,-0.317777778,0,0,0,,0,78,78,58,1,CANOE,LB,old,m,./images/CANOELB.png,,,,,,,,,,,,,,,,,,,,,
,,,,,,,,,,,,,,,,,199858,18,2022-01-28_15h18.10.081,lexical_decision_task_DD_L5,2021.2.3,MacIntel,62.5,,,,,,,,,,,,1.004,1,,,,,,,,,,,,,,m,1,1.004,,,,,,,,0.008888889,-0.317777778,0,0,0,,0,79,79,73,1,GLOVE,LB,old,m,./images/GLOVELB.png,,,,,,,,,,,,,,,,,,,,,
,,,,,,,,,,,,,,,,,199858,18,2022-01-28_15h18.10.081,lexical_decision_task_DD_L5,2021.2.3,MacIntel,62.5,,,,,,,,,,,,1.163,0,,,,,,,,,,,,,,m,0,1.163,,,,,,,,0.008888889,-0.317777778,0,0,0,,0,80,80,140,1,DOVET,LB,old,z,./images/DOVETLB.png,,,,,,,,,,,,,,,,,,,,,
,,,,,,,,,,,,,,,,,199858,18,2022-01-28_15h18.10.081,lexical_decision_task_DD_L5,2021.2.3,MacIntel,62.5,,,,,,,,,,,,1.172,1,,,,,,,,,,,,,,m,1,1.172,,,,,,,,0.008888889,-0.317777778,0,0,0,,0,81,81,82,1,PEBBLE,LB,old,m,./images/PEBBLELB.png,,,,,,,,,,,,,,,,,,,,,
,,,,,,,,,,,,,,,,,199858,18,2022-01-28_15h18.10.081,lexical_decision_task_DD_L5,2021.2.3,MacIntel,62.5,,,,,,,,,,,,1.078,1,,,,,,,,,,,,,,z,1,1.078,,,,,,,,0.008888889,-0.317777778,0,0,0,,0,82,82,107,1,FASKS,LB,old,z,./images/FASKSLB.png,,,,,,,,,,,,,,,,,,,,,
,,,,,,,,,,,,,,,,,199858,18,2022-01-28_15h18.10.081,lexical_decision_task_DD_L5,2021.2.3,MacIntel,62.5,,,,,,,,,,,,2.024,1,,,,,,,,,,,,,,m,1,2.024,,,,,,,,0.008888889,-0.317777778,0,0,0,space,0,83,83,81,1,DRILL,HB,old,m,./images/DRILLHB.png,19.34,,,,,,,,,,,,,,,,,,,,
,,,,,,,,,,,,,,,,,199858,18,2022-01-28_15h18.10.081,lexical_decision_task_DD_L5,2021.2.3,MacIntel,62.5,,,,,,,,,,,,0.663,1,,,,,,,,,,,,,,z,1,0.663,,,,,,,,0.008888889,-0.317777778,0,0,0,,0,84,84,126,1,GUELS,C,old,z,./images/GUELS.png,,,,,,,,,,,,,,,,,,,,,
,,,,,,,,,,,,,,,,,199858,18,2022-01-28_15h18.10.081,lexical_decision_task_DD_L5,2021.2.3,MacIntel,62.5,,,,,,,,,,,,0.627,1,,,,,,,,,,,,,,z,1,0.627,,,,,,,,0.008888889,-0.317777778,0,0,0,,0,85,85,87,1,TRING,C,old,z,./images/TRING.png,,,,,,,,,,,,,,,,,,,,,
,,,,,,,,,,,,,,,,,199858,18,2022-01-28_15h18.10.081,lexical_decision_task_DD_L5,2021.2.3,MacIntel,62.5,,,,,,,,,,,,0.427,1,,,,,,,,,,,,,,z,1,0.427,,,,,,,,0.008888889,-0.317777778,0,0,0,,0,86,86,162,1,LEICH,C,old,z,./images/LEICH.png,,,,,,,,,,,,,,,,,,,,,
,,,,,,,,,,,,,,,,,199858,18,2022-01-28_15h18.10.081,lexical_decision_task_DD_L5,2021.2.3,MacIntel,62.5,,,,,,,,,,,,0.904,1,,,,,,,,,,,,,,m,1,0.904,,,,,,,,0.008888889,-0.317777778,0,0,0,,0,87,87,29,1,PISTOL,C,old,m,./images/PISTOL.png,,,,,,,,,,,,,,,,,,,,,
,,,,,,,,,,,,,,,,,199858,18,2022-01-28_15h18.10.081,lexical_decision_task_DD_L5,2021.2.3,MacIntel,62.5,,,,,,,,,,,,0.578,1,,,,,,,,,,,,,,m,1,0.578,,,,,,,,0.008888889,-0.317777778,0,0,0,,0,88,88,14,1,FENCE,C,old,m,./images/FENCE.png,,,,,,,,,,,,,,,,,,,,,
,,,,,,,,,,,,,,,,,199858,18,2022-01-28_15h18.10.081,lexical_decision_task_DD_L5,2021.2.3,MacIntel,62.5,,,,,,,,,,,,1.123,1,,,,,,,,,,,,,,m,1,1.123,,,,,,,,0.008888889,-0.317777778,0,0,0,,0,89,89,47,1,LAGOON,C,old,m,./images/LAGOON.png,,,,,,,,,,,,,,,,,,,,,
,,,,,,,,,,,,,,,,,199858,18,2022-01-28_15h18.10.081,lexical_decision_task_DD_L5,2021.2.3,MacIntel,62.5,,,,,,,,,,,,0.796,1,,,,,,,,,,,,,,z,1,0.796,,,,,,,,0.008888889,-0.317777778,0,0,0,,0,90,90,146,1,MOOST,LB,old,z,./images/MOOSTLB.png,,,,,,,,,,,,,,,,,,,,,
,,,,,,,,,,,,,,,,,199858,18,2022-01-28_15h18.10.081,lexical_decision_task_DD_L5,2021.2.3,MacIntel,62.5,,,,,,,,,,,,0.58,1,,,,,,,,,,,,,,m,1,0.58,,,,,,,,0.008888889,-0.317777778,0,0,0,,0,91,91,55,1,ALLEY,LB,old,m,./images/ALLEYLB.png,,,,,,,,,,,,,,,,,,,,,
,,,,,,,,,,,,,,,,,199858,18,2022-01-28_15h18.10.081,lexical_decision_task_DD_L5,2021.2.3,MacIntel,62.5,,,,,,,,,,,,1.095,1,,,,,,,,,,,,,,m,1,1.095,,,,,,,,0.008888889,-0.317777778,0,0,0,,0,92,92,42,1,CHAIN,HB,old,m,./images/CHAINHB.png,,,,,,,,,,,,,,,,,,,,,
,,,,,,,,,,,,,,,,,199858,18,2022-01-28_15h18.10.081,lexical_decision_task_DD_L5,2021.2.3,MacIntel,62.5,,,,,,,,,,,,0.489,1,,,,,,,,,,,,,,m,1,0.489,,,,,,,,0.008888889,-0.317777778,0,0,0,,0,93,93,16,1,GRAPE,LB,old,m,./images/GRAPELB.png,,,,,,,,,,,,,,,,,,,,,
,,,,,,,,,,,,,,,,,199858,18,2022-01-28_15h18.10.081,lexical_decision_task_DD_L5,2021.2.3,MacIntel,62.5,,,,,,,,,,,,0.53,1,,,,,,,,,,,,,,m,1,0.53,,,,,,,,0.008888889,-0.317777778,0,0,0,,0,94,94,43,1,STOOL,LB,old,m,./images/STOOLLB.png,,,,,,,,,,,,,,,,,,,,,
,,,,,,,,,,,,,,,,,199858,18,2022-01-28_15h18.10.081,lexical_decision_task_DD_L5,2021.2.3,MacIntel,62.5,,,,,,,,,,,,0.642,1,,,,,,,,,,,,,,z,1,0.642,,,,,,,,0.008888889,-0.317777778,0,0,0,,0,95,95,141,1,PLEET,C,old,z,./images/PLEET.png,,,,,,,,,,,,,,,,,,,,,
,,,,,,,,,,,,,,,,,199858,18,2022-01-28_15h18.10.081,lexical_decision_task_DD_L5,2021.2.3,MacIntel,62.5,,,,,,,,,,,,0.71,1,,,,,,,,,,,,,,z,1,0.71,,,,,,,,0.008888889,-0.317777778,0,0,0,,0,96,96,104,1,GITTY,LB,old,z,./images/GITTYLB.png,,,,,,,,,,,,,,,,,,,,,
,,,,,,,,,,,,,,,,,199858,18,2022-01-28_15h18.10.081,lexical_decision_task_DD_L5,2021.2.3,MacIntel,62.5,,,,,,,,,,,,1.296,1,,,,,,,,,,,,,,m,1,1.296,,,,,,,,0.008888889,-0.317777778,0,0,0,,0,97,97,11,1,MEDAL,C,old,m,./images/MEDAL.png,,,,,,,,,,,,,,,,,,,,,
,,,,,,,,,,,,,,,,,199858,18,2022-01-28_15h18.10.081,lexical_decision_task_DD_L5,2021.2.3,MacIntel,62.5,,,,,,,,,,,,2.683,0,,,,,,,,,,,,,,m,0,2.683,,,,,,,,0.008888889,-0.317777778,0,0,0,,0,98,98,166,1,SHORY,HB,old,z,./images/SHORYHB.png,,,,,,,,,,,,,,,,,,,,,
,,,,,,,,,,,,,,,,,199858,18,2022-01-28_15h18.10.081,lexical_decision_task_DD_L5,2021.2.3,MacIntel,62.5,,,,,,,,,,,,0.942,1,,,,,,,,,,,,,,z,1,0.942,,,,,,,,0.008888889,-0.317777778,0,0,0,,0,99,99,120,1,RINED,C,old,z,./images/RINED.png,,,,,,,,,,,,,,,,,,,,,
,,,,,,,,,,,,,,,,,199858,18,2022-01-28_15h18.10.081,lexical_decision_task_DD_L5,2021.2.3,MacIntel,62.5,,,,,,,,,,,,0.744,1,,,,,,,,,,,,,,m,1,0.744,,,,,,,,0.008888889,-0.317777778,0,0,0,,0,100,100,4,1,BOXER,LB,old,m,./images/BOXERLB.png,,,,,,,,,,,,,,,,,,,,,
,,,,,,,,,,,,,,,,,199858,18,2022-01-28_15h18.10.081,lexical_decision_task_DD_L5,2021.2.3,MacIntel,62.5,,,,,,,,,,,,0.658,1,,,,,,,,,,,,,,m,1,0.658,,,,,,,,0.008888889,-0.317777778,0,0,0,,0,101,101,31,1,STEAK,LB,old,m,./images/STEAKLB.png,,,,,,,,,,,,,,,,,,,,,
,,,,,,,,,,,,,,,,,199858,18,2022-01-28_15h18.10.081,lexical_decision_task_DD_L5,2021.2.3,MacIntel,62.5,,,,,,,,,,,,0.798,1,,,,,,,,,,,,,,z,1,0.798,,,,,,,,0.008888889,-0.317777778,0,0,0,,0,102,102,153,1,CLUPS,C,old,z,./images/CLUPS.png,,,,,,,,,,,,,,,,,,,,,
,,,,,,,,,,,,,,,,,199858,18,2022-01-28_15h18.10.081,lexical_decision_task_DD_L5,2021.2.3,MacIntel,62.5,,,,,,,,,,,,0.858,1,,,,,,,,,,,,,,m,1,0.858,,,,,,,,0.008888889,-0.317777778,0,0,0,,0,103,103,21,1,DANCER,HB,old,m,./images/DANCERHB.png,,,,,,,,,,,,,,,,,,,,,
,,,,,,,,,,,,,,,,,199858,18,2022-01-28_15h18.10.081,lexical_decision_task_DD_L5,2021.2.3,MacIntel,62.5,,,,,,,,,,,,0.996,1,,,,,,,,,,,,,,m,1,0.996,,,,,,,,0.008888889,-0.317777778,0,0,0,,0,104,104,18,1,PARCEL,HB,old,m,./images/PARCELHB.png,,,,,,,,,,,,,,,,,,,,,
,,,,,,,,,,,,,,,,,199858,18,2022-01-28_15h18.10.081,lexical_decision_task_DD_L5,2021.2.3,MacIntel,62.5,,,,,,,,,,,,0.829,1,,,,,,,,,,,,,,m,1,0.829,,,,,,,,0.008888889,-0.317777778,0,0,0,,0,105,105,60,1,CURRY,HB,old,m,./images/CURRYHB.png,,,,,,,,,,,,,,,,,,,,,
,,,,,,,,,,,,,,,,,199858,18,2022-01-28_15h18.10.081,lexical_decision_task_DD_L5,2021.2.3,MacIntel,62.5,,,,,,,,,,,,2.608,1,,,,,,,,,,,,,,z,1,2.608,,,,,,,,0.008888889,-0.317777778,0,0,0,,0,106,106,100,1,DRIBS,HB,old,z,./images/DRIBSHB.png,,,,,,,,,,,,,,,,,,,,,
,,,,,,,,,,,,,,,,,199858,18,2022-01-28_15h18.10.081,lexical_decision_task_DD_L5,2021.2.3,MacIntel,62.5,,,,,,,,,,,,0.978,1,,,,,,,,,,,,,,z,1,0.978,,,,,,,,0.008888889,-0.317777778,0,0,0,,0,107,107,148,1,JOMS,HB,old,z,./images/JOMSHB.png,,,,,,,,,,,,,,,,,,,,,
,,,,,,,,,,,,,,,,,199858,18,2022-01-28_15h18.10.081,lexical_decision_task_DD_L5,2021.2.3,MacIntel,62.5,,,,,,,,,,,,0.897,1,,,,,,,,,,,,,,z,1,0.897,,,,,,,,0.008888889,-0.317777778,0,0,0,,0,108,108,119,1,PAFER,LB,old,z,./images/PAFERLB.png,,,,,,,,,,,,,,,,,,,,,
,,,,,,,,,,,,,,,,,199858,18,2022-01-28_15h18.10.081,lexical_decision_task_DD_L5,2021.2.3,MacIntel,62.5,,,,,,,,,,,,0.691,1,,,,,,,,,,,,,,m,1,0.691,,,,,,,,0.008888889,-0.317777778,0,0,0,,0,109,109,56,1,HEATER,C,old,m,./images/HEATER.png,,,,,,,,,,,,,,,,,,,,,
,,,,,,,,,,,,,,,,,199858,18,2022-01-28_15h18.10.081,lexical_decision_task_DD_L5,2021.2.3,MacIntel,62.5,,,,,,,,,,,,1.082,1,,,,,,,,,,,,,,z,1,1.082,,,,,,,,0.008888889,-0.317777778,0,0,0,,0,110,110,109,1,BURGE,HB,old,z,./images/BURGEHB.png,,,,,,,,,,,,,,,,,,,,,
,,,,,,,,,,,,,,,,,199858,18,2022-01-28_15h18.10.081,lexical_decision_task_DD_L5,2021.2.3,MacIntel,62.5,,,,,,,,,,,,0.908,1,,,,,,,,,,,,,,m,1,0.908,,,,,,,,0.008888889,-0.317777778,0,0,0,,0,111,111,83,1,WHISKY,C,old,m,./images/WHISKY.png,,,,,,,,,,,,,,,,,,,,,
,,,,,,,,,,,,,,,,,199858,18,2022-01-28_15h18.10.081,lexical_decision_task_DD_L5,2021.2.3,MacIntel,62.5,,,,,,,,,,,,1.015,1,,,,,,,,,,,,,,z,1,1.015,,,,,,,,0.008888889,-0.317777778,0,0,0,,0,112,112,149,1,VEASE,LB,old,z,./images/VEASELB.png,,,,,,,,,,,,,,,,,,,,,
,,,,,,,,,,,,,,,,,199858,18,2022-01-28_15h18.10.081,lexical_decision_task_DD_L5,2021.2.3,MacIntel,62.5,,,,,,,,,,,,1.057,1,,,,,,,,,,,,,,z,1,1.057,,,,,,,,0.008888889,-0.317777778,0,0,0,,0,113,113,106,1,CLUMS,HB,old,z,./images/CLUMSHB.png,,,,,,,,,,,,,,,,,,,,,
,,,,,,,,,,,,,,,,,199858,18,2022-01-28_15h18.10.081,lexical_decision_task_DD_L5,2021.2.3,MacIntel,62.5,,,,,,,,,,,,0.69,1,,,,,,,,,,,,,,z,1,0.69,,,,,,,,0.008888889,-0.317777778,0,0,0,,0,114,114,161,1,BLAPS,LB,old,z,./images/BLAPSLB.png,,,,,,,,,,,,,,,,,,,,,
,,,,,,,,,,,,,,,,,199858,18,2022-01-28_15h18.10.081,lexical_decision_task_DD_L5,2021.2.3,MacIntel,62.5,,,,,,,,,,,,0.655,1,,,,,,,,,,,,,,z,1,0.655,,,,,,,,0.008888889,-0.317777778,0,0,0,,0,115,115,121,1,CEERS,HB,old,z,./images/CEERSHB.png,,,,,,,,,,,,,,,,,,,,,
,,,,,,,,,,,,,,,,,199858,18,2022-01-28_15h18.10.081,lexical_decision_task_DD_L5,2021.2.3,MacIntel,62.5,,,,,,,,,,,,1.918,1,,,,,,,,,,,,,,z,1,1.918,,,,,,,,0.008888889,-0.317777778,0,0,0,,0,116,116,91,1,SHENS,HB,old,z,./images/SHENSHB.png,,,,,,,,,,,,,,,,,,,,,
,,,,,,,,,,,,,,,,,199858,18,2022-01-28_15h18.10.081,lexical_decision_task_DD_L5,2021.2.3,MacIntel,62.5,,,,,,,,,,,,0.757,1,,,,,,,,,,,,,,z,1,0.757,,,,,,,,0.008888889,-0.317777778,0,0,0,,0,117,117,86,1,AIFED,LB,old,z,./images/AIFEDLB.png,,,,,,,,,,,,,,,,,,,,,
,,,,,,,,,,,,,,,,,199858,18,2022-01-28_15h18.10.081,lexical_decision_task_DD_L5,2021.2.3,MacIntel,62.5,,,,,,,,,,,,0.907,1,,,,,,,,,,,,,,m,1,0.907,,,,,,,,0.008888889,-0.317777778,0,0,0,,0,118,118,33,1,SAUNA,HB,old,m,./images/SAUNAHB.png,,,,,,,,,,,,,,,,,,,,,
,,,,,,,,,,,,,,,,,199858,18,2022-01-28_15h18.10.081,lexical_decision_task_DD_L5,2021.2.3,MacIntel,62.5,,,,,,,,,,,,0.579,1,,,,,,,,,,,,,,m,1,0.579,,,,,,,,0.008888889,-0.317777778,0,0,0,,0,119,119,25,1,CHALK,LB,old,m,./images/CHALKLB.png,,,,,,,,,,,,,,,,,,,,,
,,,,,,,,,,,,,,,,,199858,18,2022-01-28_15h18.10.081,lexical_decision_task_DD_L5,2021.2.3,MacIntel,62.5,,,,,,,,,,,,0.879,0,,,,,,,,,,,,,,m,0,0.879,,,,,,,,0.008888889,-0.317777778,0,0,0,,0,120,120,118,1,BAVEL,HB,old,z,./images/BAVELHB.png,,,,,,,,,,,,,,,,,,,,,
,,,,,,,,,,,,,,,,,199858,18,2022-01-28_15h18.10.081,lexical_decision_task_DD_L5,2021.2.3,MacIntel,62.5,,,,,,,,,,,,1.156,1,,,,,,,,,,,,,,z,1,1.156,,,,,,,,0.008888889,-0.317777778,0,0,0,,0,121,121,136,1,WERVE,HB,old,z,./images/WERVEHB.png,,,,,,,,,,,,,,,,,,,,,
,,,,,,,,,,,,,,,,,199858,18,2022-01-28_15h18.10.081,lexical_decision_task_DD_L5,2021.2.3,MacIntel,62.5,,,,,,,,,,,,1.625,1,,,,,,,,,,,,,,m,1,1.625,,,,,,,,0.008888889,-0.317777778,0,0,0,,0,122,122,62,1,MAMMAL,C,old,m,./images/MAMMAL.png,,,,,,,,,,,,,,,,,,,,,
,,,,,,,,,,,,,,,,,199858,18,2022-01-28_15h18.10.081,lexical_decision_task_DD_L5,2021.2.3,MacIntel,62.5,,,,,,,,,,,,1.281,1,,,,,,,,,,,,,,z,1,1.281,,,,,,,,0.008888889,-0.317777778,0,0,0,,0,123,123,163,1,GAMBA,HB,old,z,./images/GAMBAHB.png,,,,,,,,,,,,,,,,,,,,,
,,,,,,,,,,,,,,,,,199858,18,2022-01-28_15h18.10.081,lexical_decision_task_DD_L5,2021.2.3,MacIntel,62.5,,,,,,,,,,,,0.639,1,,,,,,,,,,,,,,m,1,0.639,,,,,,,,0.008888889,-0.317777778,0,0,0,,0,124,124,13,1,BUNNY,LB,old,m,./images/BUNNYLB.png,,,,,,,,,,,,,,,,,,,,,
,,,,,,,,,,,,,,,,,199858,18,2022-01-28_15h18.10.081,lexical_decision_task_DD_L5,2021.2.3,MacIntel,62.5,,,,,,,,,,,,1.252,1,,,,,,,,,,,,,,z,1,1.252,,,,,,,,0.008888889,-0.317777778,0,0,0,space,0,125,125,157,1,INLER,HB,old,z,./images/INLERHB.png,3.272,,,,,,,,,,,,,,,,,,,,
,,,,,,,,,,,,,,,,,199858,18,2022-01-28_15h18.10.081,lexical_decision_task_DD_L5,2021.2.3,MacIntel,62.5,,,,,,,,,,,,0.845,1,,,,,,,,,,,,,,z,1,0.845,,,,,,,,0.008888889,-0.317777778,0,0,0,,0,126,126,154,1,THINT,HB,old,z,./images/THINTHB.png,,,,,,,,,,,,,,,,,,,,,
,,,,,,,,,,,,,,,,,199858,18,2022-01-28_15h18.10.081,lexical_decision_task_DD_L5,2021.2.3,MacIntel,62.5,,,,,,,,,,,,0.806,1,,,,,,,,,,,,,,z,1,0.806,,,,,,,,0.008888889,-0.317777778,0,0,0,,0,127,127,164,1,SGREW,LB,old,z,./images/SGREWLB.png,,,,,,,,,,,,,,,,,,,,,
,,,,,,,,,,,,,,,,,199858,18,2022-01-28_15h18.10.081,lexical_decision_task_DD_L5,2021.2.3,MacIntel,62.5,,,,,,,,,,,,0.707,1,,,,,,,,,,,,,,m,1,0.707,,,,,,,,0.008888889,-0.317777778,0,0,0,,0,128,128,75,1,HAMMER,HB,old,m,./images/HAMMERHB.png,,,,,,,,,,,,,,,,,,,,,
,,,,,,,,,,,,,,,,,199858,18,2022-01-28_15h18.10.081,lexical_decision_task_DD_L5,2021.2.3,MacIntel,62.5,,,,,,,,,,,,1.067,1,,,,,,,,,,,,,,z,1,1.067,,,,,,,,0.008888889,-0.317777778,0,0,0,,0,129,129,134,1,TROSS,LB,old,z,./images/TROSSLB.png,,,,,,,,,,,,,,,,,,,,,
,,,,,,,,,,,,,,,,,199858,18,2022-01-28_15h18.10.081,lexical_decision_task_DD_L5,2021.2.3,MacIntel,62.5,,,,,,,,,,,,0.845,1,,,,,,,,,,,,,,m,1,0.845,,,,,,,,0.008888889,-0.317777778,0,0,0,,0,130,130,46,1,MUMMY,LB,old,m,./images/MUMMYLB.png,,,,,,,,,,,,,,,,,,,,,
,,,,,,,,,,,,,,,,,199858,18,2022-01-28_15h18.10.081,lexical_decision_task_DD_L5,2021.2.3,MacIntel,62.5,,,,,,,,,,,,0.673,1,,,,,,,,,,,,,,z,1,0.673,,,,,,,,0.008888889,-0.317777778,0,0,0,,0,131,131,160,1,VEETS,HB,old,z,./images/VEETSHB.png,,,,,,,,,,,,,,,,,,,,,
,,,,,,,,,,,,,,,,,199858,18,2022-01-28_15h18.10.081,lexical_decision_task_DD_L5,2021.2.3,MacIntel,62.5,,,,,,,,,,,,0.578,1,,,,,,,,,,,,,,m,1,0.578,,,,,,,,0.008888889,-0.317777778,0,0,0,,0,132,132,65,1,SPINE,C,old,m,./images/SPINE.png,,,,,,,,,,,,,,,,,,,,,
,,,,,,,,,,,,,,,,,199858,18,2022-01-28_15h18.10.081,lexical_decision_task_DD_L5,2021.2.3,MacIntel,62.5,,,,,,,,,,,,0.587,1,,,,,,,,,,,,,,m,1,0.587,,,,,,,,0.008888889,-0.317777778,0,0,0,,0,133,133,41,1,STREAM,C,old,m,./images/STREAM.png,,,,,,,,,,,,,,,,,,,,,
,,,,,,,,,,,,,,,,,199858,18,2022-01-28_15h18.10.081,lexical_decision_task_DD_L5,2021.2.3,MacIntel,62.5,,,,,,,,,,,,0.706,1,,,,,,,,,,,,,,z,1,0.706,,,,,,,,0.008888889,-0.317777778,0,0,0,,0,134,134,123,1,SEDGE,C,old,z,./images/SEDGE.png,,,,,,,,,,,,,,,,,,,,,
,,,,,,,,,,,,,,,,,199858,18,2022-01-28_15h18.10.081,lexical_decision_task_DD_L5,2021.2.3,MacIntel,62.5,,,,,,,,,,,,1.141,0,,,,,,,,,,,,,,z,0,1.141,,,,,,,,0.008888889,-0.317777778,0,0,0,,0,135,135,24,1,FLESH,HB,old,m,./images/FLESHHB.png,,,,,,,,,,,,,,,,,,,,,
,,,,,,,,,,,,,,,,,199858,18,2022-01-28_15h18.10.081,lexical_decision_task_DD_L5,2021.2.3,MacIntel,62.5,,,,,,,,,,,,1.33,1,,,,,,,,,,,,,,m,1,1.33,,,,,,,,0.008888889,-0.317777778,0,0,0,,0,136,136,54,1,CHERRY,HB,old,m,./images/CHERRYHB.png,,,,,,,,,,,,,,,,,,,,,
,,,,,,,,,,,,,,,,,199858,18,2022-01-28_15h18.10.081,lexical_decision_task_DD_L5,2021.2.3,MacIntel,62.5,,,,,,,,,,,,0.771,1,,,,,,,,,,,,,,m,1,0.771,,,,,,,,0.008888889,-0.317777778,0,0,0,,0,137,137,78,1,BROOM,HB,old,m,./images/BROOMHB.png,,,,,,,,,,,,,,,,,,,,,
,,,,,,,,,,,,,,,,,199858,18,2022-01-28_15h18.10.081,lexical_decision_task_DD_L5,2021.2.3,MacIntel,62.5,,,,,,,,,,,,1.258,1,,,,,,,,,,,,,,m,1,1.258,,,,,,,,0.008888889,-0.317777778,0,0,0,,0,138,138,39,1,CANDY,HB,old,m,./images/CANDYHB.png,,,,,,,,,,,,,,,,,,,,,
,,,,,,,,,,,,,,,,,199858,18,2022-01-28_15h18.10.081,lexical_decision_task_DD_L5,2021.2.3,MacIntel,62.5,,,,,,,,,,,,0.836,1,,,,,,,,,,,,,,m,1,0.836,,,,,,,,0.008888889,-0.317777778,0,0,0,,0,139,139,48,1,SHIELD,HB,old,m,./images/SHIELDHB.png,,,,,,,,,,,,,,,,,,,,,
,,,,,,,,,,,,,,,,,199858,18,2022-01-28_15h18.10.081,lexical_decision_task_DD_L5,2021.2.3,MacIntel,62.5,,,,,,,,,,,,1.231,1,,,,,,,,,,,,,,m,1,1.231,,,,,,,,0.008888889,-0.317777778,0,0,0,,0,140,140,50,1,PILOT,C,old,m,./images/PILOT.png,,,,,,,,,,,,,,,,,,,,,
,,,,,,,,,,,,,,,,,199858,18,2022-01-28_15h18.10.081,lexical_decision_task_DD_L5,2021.2.3,MacIntel,62.5,,,,,,,,,,,,0.406,1,,,,,,,,,,,,,,m,1,0.406,,,,,,,,0.008888889,-0.317777778,0,0,0,,0,141,141,80,1,PLANET,C,old,m,./images/PLANET.png,,,,,,,,,,,,,,,,,,,,,
,,,,,,,,,,,,,,,,,199858,18,2022-01-28_15h18.10.081,lexical_decision_task_DD_L5,2021.2.3,MacIntel,62.5,,,,,,,,,,,,1.298,1,,,,,,,,,,,,,,m,1,1.298,,,,,,,,0.008888889,-0.317777778,0,0,0,,0,142,142,57,1,FERRY,HB,old,m,./images/FERRYHB.png,,,,,,,,,,,,,,,,,,,,,
,,,,,,,,,,,,,,,,,199858,18,2022-01-28_15h18.10.081,lexical_decision_task_DD_L5,2021.2.3,MacIntel,62.5,,,,,,,,,,,,0.488,1,,,,,,,,,,,,,,m,1,0.488,,,,,,,,0.008888889,-0.317777778,0,0,0,,0,143,143,53,1,POSTER,C,old,m,./images/POSTER.png,,,,,,,,,,,,,,,,,,,,,
,,,,,,,,,,,,,,,,,199858,18,2022-01-28_15h18.10.081,lexical_decision_task_DD_L5,2021.2.3,MacIntel,62.5,,,,,,,,,,,,0.606,1,,,,,,,,,,,,,,m,1,0.606,,,,,,,,0.008888889,-0.317777778,0,0,0,,0,144,144,49,1,BISHOP,LB,old,m,./images/BISHOPLB.png,,,,,,,,,,,,,,,,,,,,,
,,,,,,,,,,,,,,,,,199858,18,2022-01-28_15h18.10.081,lexical_decision_task_DD_L5,2021.2.3,MacIntel,62.5,,,,,,,,,,,,0.898,1,,,,,,,,,,,,,,z,1,0.898,,,,,,,,0.008888889,-0.317777778,0,0,0,,0,145,145,93,1,SMONE,C,old,z,./images/SMONE.png,,,,,,,,,,,,,,,,,,,,,
,,,,,,,,,,,,,,,,,199858,18,2022-01-28_15h18.10.081,lexical_decision_task_DD_L5,2021.2.3,MacIntel,62.5,,,,,,,,,,,,0.566,1,,,,,,,,,,,,,,m,1,0.566,,,,,,,,0.008888889,-0.317777778,0,0,0,,0,146,146,79,1,RULER,LB,old,m,./images/RULERLB.png,,,,,,,,,,,,,,,,,,,,,
,,,,,,,,,,,,,,,,,199858,18,2022-01-28_15h18.10.081,lexical_decision_task_DD_L5,2021.2.3,MacIntel,62.5,,,,,,,,,,,,2.279,1,,,,,,,,,,,,,,z,1,2.279,,,,,,,,0.008888889,-0.317777778,0,0,0,,0,147,147,85,1,CHULK,HB,old,z,./images/CHULKHB.png,,,,,,,,,,,,,,,,,,,,,
,,,,,,,,,,,,,,,,,199858,18,2022-01-28_15h18.10.081,lexical_decision_task_DD_L5,2021.2.3,MacIntel,62.5,,,,,,,,,,,,0.89,1,,,,,,,,,,,,,,z,1,0.89,,,,,,,,0.008888889,-0.317777778,0,0,0,,0,148,148,94,1,BLANS,HB,old,z,./images/BLANSHB.png,,,,,,,,,,,,,,,,,,,,,
,,,,,,,,,,,,,,,,,199858,18,2022-01-28_15h18.10.081,lexical_decision_task_DD_L5,2021.2.3,MacIntel,62.5,,,,,,,,,,,,0.706,1,,,,,,,,,,,,,,z,1,0.706,,,,,,,,0.008888889,-0.317777778,0,0,0,,0,149,149,156,1,HIXES,C,old,z,./images/HIXES.png,,,,,,,,,,,,,,,,,,,,,
,,,,,,,,,,,,,,,,,199858,18,2022-01-28_15h18.10.081,lexical_decision_task_DD_L5,2021.2.3,MacIntel,62.5,,,,,,,,,,,,0.807,1,,,,,,,,,,,,,,z,1,0.807,,,,,,,,0.008888889,-0.317777778,0,0,0,,0,150,150,97,1,CHIDS,HB,old,z,./images/CHIDSHB.png,,,,,,,,,,,,,,,,,,,,,
,,,,,,,,,,,,,,,,,199858,18,2022-01-28_15h18.10.081,lexical_decision_task_DD_L5,2021.2.3,MacIntel,62.5,,,,,,,,,,,,0.776,1,,,,,,,,,,,,,,z,1,0.776,,,,,,,,0.008888889,-0.317777778,0,0,0,,0,151,151,133,1,POWDY,HB,old,z,./images/POWDYHB.png,,,,,,,,,,,,,,,,,,,,,
,,,,,,,,,,,,,,,,,199858,18,2022-01-28_15h18.10.081,lexical_decision_task_DD_L5,2021.2.3,MacIntel,62.5,,,,,,,,,,,,0.89,1,,,,,,,,,,,,,,z,1,0.89,,,,,,,,0.008888889,-0.317777778,0,0,0,,0,152,152,142,1,PLASK,HB,old,z,./images/PLASKHB.png,,,,,,,,,,,,,,,,,,,,,
,,,,,,,,,,,,,,,,,199858,18,2022-01-28_15h18.10.081,lexical_decision_task_DD_L5,2021.2.3,MacIntel,62.5,,,,,,,,,,,,0.809,1,,,,,,,,,,,,,,m,1,0.809,,,,,,,,0.008888889,-0.317777778,0,0,0,,0,153,153,15,1,COLLAR,HB,old,m,./images/COLLARHB.png,,,,,,,,,,,,,,,,,,,,,
,,,,,,,,,,,,,,,,,199858,18,2022-01-28_15h18.10.081,lexical_decision_task_DD_L5,2021.2.3,MacIntel,62.5,,,,,,,,,,,,2.211,1,,,,,,,,,,,,,,m,1,2.211,,,,,,,,0.008888889,-0.317777778,0,0,0,,0,154,154,3,1,CRATER,HB,old,m,./images/CRATERHB.png,,,,,,,,,,,,,,,,,,,,,
,,,,,,,,,,,,,,,,,199858,18,2022-01-28_15h18.10.081,lexical_decision_task_DD_L5,2021.2.3,MacIntel,62.5,,,,,,,,,,,,0.599,1,,,,,,,,,,,,,,m,1,0.599,,,,,,,,0.008888889,-0.317777778,0,0,0,,0,155,155,40,1,SNAKE,LB,old,m,./images/SNAKELB.png,,,,,,,,,,,,,,,,,,,,,
,,,,,,,,,,,,,,,,,199858,18,2022-01-28_15h18.10.081,lexical_decision_task_DD_L5,2021.2.3,MacIntel,62.5,,,,,,,,,,,,0.64,1,,,,,,,,,,,,,,m,1,0.64,,,,,,,,0.008888889,-0.317777778,0,0,0,,0,156,156,77,1,WHEEL,C,old,m,./images/WHEEL.png,,,,,,,,,,,,,,,,,,,,,
,,,,,,,,,,,,,,,,,199858,18,2022-01-28_15h18.10.081,lexical_decision_task_DD_L5,2021.2.3,MacIntel,62.5,,,,,,,,,,,,1.197,1,,,,,,,,,,,,,,z,1,1.197,,,,,,,,0.008888889,-0.317777778,0,0,0,,0,157,157,130,1,CRILL,HB,old,z,./images/CRILLHB.png,,,,,,,,,,,,,,,,,,,,,
,,,,,,,,,,,,,,,,,199858,18,2022-01-28_15h18.10.081,lexical_decision_task_DD_L5,2021.2.3,MacIntel,62.5,,,,,,,,,,,,1.13,1,,,,,,,,,,,,,,z,1,1.13,,,,,,,,0.008888889,-0.317777778,0,0,0,,0,158,158,165,1,TROWN,C,old,z,./images/TROWN.png,,,,,,,,,,,,,,,,,,,,,
,,,,,,,,,,,,,,,,,199858,18,2022-01-28_15h18.10.081,lexical_decision_task_DD_L5,2021.2.3,MacIntel,62.5,,,,,,,,,,,,1.245,1,,,,,,,,,,,,,,m,1,1.245,,,,,,,,0.008888889,-0.317777778,0,0,0,,0,159,159,72,1,FLASK,HB,old,m,./images/FLASKHB.png,,,,,,,,,,,,,,,,,,,,,
,,,,,,,,,,,,,,,,,199858,18,2022-01-28_15h18.10.081,lexical_decision_task_DD_L5,2021.2.3,MacIntel,62.5,,,,,,,,,,,,0.889,1,,,,,,,,,,,,,,m,1,0.889,,,,,,,,0.008888889,-0.317777778,0,0,0,,0,160,160,2,1,STOVE,C,old,m,./images/STOVE.png,,,,,,,,,,,,,,,,,,,,,
,,,,,,,,,,,,,,,,,199858,18,2022-01-28_15h18.10.081,lexical_decision_task_DD_L5,2021.2.3,MacIntel,62.5,,,,,,,,,,,,0.808,1,,,,,,,,,,,,,,z,1,0.808,,,,,,,,0.008888889,-0.317777778,0,0,0,,0,161,161,127,1,NINDY,HB,old,z,./images/NINDYHB.png,,,,,,,,,,,,,,,,,,,,,
,,,,,,,,,,,,,,,,,199858,18,2022-01-28_15h18.10.081,lexical_decision_task_DD_L5,2021.2.3,MacIntel,62.5,,,,,,,,,,,,0.986,1,,,,,,,,,,,,,,z,1,0.986,,,,,,,,0.008888889,-0.317777778,0,0,0,,0,162,162,115,1,MAWNS,HB,old,z,./images/MAWNSHB.png,,,,,,,,,,,,,,,,,,,,,
,,,,,,,,,,,,,,,,,199858,18,2022-01-28_15h18.10.081,lexical_decision_task_DD_L5,2021.2.3,MacIntel,62.5,,,,,,,,,,,,0.576,1,,,,,,,,,,,,,,z,1,0.576,,,,,,,,0.008888889,-0.317777778,0,0,0,,0,163,163,131,1,NACES,LB,old,z,./images/NACESLB.png,,,,,,,,,,,,,,,,,,,,,
,,,,,,,,,,,,,,,,,199858,18,2022-01-28_15h18.10.081,lexical_decision_task_DD_L5,2021.2.3,MacIntel,62.5,,,,,,,,,,,,0.539,1,,,,,,,,,,,,,,z,1,0.539,,,,,,,,0.008888889,-0.317777778,0,0,0,,0,164,164,105,1,MOKER,C,old,z,./images/MOKER.png,,,,,,,,,,,,,,,,,,,,,
,,,,,,,,,,,,,,,,,199858,18,2022-01-28_15h18.10.081,lexical_decision_task_DD_L5,2021.2.3,MacIntel,62.5,,,,,,,,,,,,0.602,1,,,,,,,,,,,,,,z,1,0.602,,,,,,,,0.008888889,-0.317777778,0,0,0,,0,165,165,137,1,JOOST,LB,old,z,./images/JOOSTLB.png,,,,,,,,,,,,,,,,,,,,,
,,,,,,,,,,,,,,,,,199858,18,2022-01-28_15h18.10.081,lexical_decision_task_DD_L5,2021.2.3,MacIntel,62.5,,,,,,,,,,,,0.579,1,,,,,,,,,,,,,,z,1,0.579,,,,,,,,0.008888889,-0.317777778,0,0,0,,0,166,166,116,1,BALGY,LB,old,z,./images/BALGYLB.png,,,,,,,,,,,,,,,,,,,,,
,,,,,,,,,,,,,,,,,199858,18,2022-01-28_15h18.10.081,lexical_decision_task_DD_L5,2021.2.3,MacIntel,62.5,,,,,,,,,,,,0.534,1,,,,,,,,,,,,,,m,1,0.534,,,,,,,,0.008888889,-0.317777778,0,0,0,,0,167,167,59,1,BRUSH,C,old,m,./images/BRUSH.png,,,,,,,,,,,,,,,,,,,,,
space,0.008888889,-0.317777778,0,0,0,,,,,,,1,test,"In the next phase you will be presented with the words from the the first phase. Your job is to decide whether you remember seeing the word or not. If you remember seeing the word press ""old"" or type ""m"". If you do not remember seeing the word press ""new"" or type ""z"". Please press the space bar or click on continue to begin. ",,,199858,18,2022-01-28_15h18.10.081,lexical_decision_task_DD_L5,2021.2.3,MacIntel,62.5,22.716,,,,,,,,,,,,,,,,,,,,,,,,,,,,,,,,,,,,,,,,,,,,,,,,,,,,,0,0,0,0,1,,,,,,,,,,,,,,,
space,0.008888889,-0.317777778,0,0,0,,,,,,,1,test,"In the next phase you will be presented with the words from the the first phase. Your job is to decide whether you remember seeing the word or not. If you remember seeing the word press ""old"" or type ""m"". If you do not remember seeing the word press ""new"" or type ""z"". Please press the space bar or click on continue to begin. ",,,199858,18,2022-01-28_15h18.10.081,lexical_decision_task_DD_L5,2021.2.3,MacIntel,62.5,0.947,,,,,,,,,,,,,,,,,,,,,,,,,,,,,,,,,,,,,,,,,,,,,,,,,,,,,1,0,1,0,1,,,,,,,,,,,,,,,
,-0.048888889,-0.436666667,1,0,0,instr_done_button,,,,,,1,test,"In the next phase you will be presented with the words from the the first phase. Your job is to decide whether you remember seeing the word or not. If you remember seeing the word press ""old"" or type ""m"". If you do not remember seeing the word press ""new"" or type ""z"". Please press the space bar or click on continue to begin. ",,,199858,18,2022-01-28_15h18.10.081,lexical_decision_task_DD_L5,2021.2.3,MacIntel,62.5,,,,,,,,,,,,,,,,,,,,,,,,,,,,,,,,,,,,,,,,,,,,,,,,,,,,,,2,0,2,0,1,,,,,,,,,,,,,,,
space,0.038888889,-0.313333333,0,0,0,,,,,,,1,test,"In the next phase you will be presented with the words from the the first phase. Your job is to decide whether you remember seeing the word or not. If you remember seeing the word press ""old"" or type ""m"". If you do not remember seeing the word press ""new"" or type ""z"". Please press the space bar or click on continue to begin. ",,,199858,18,2022-01-28_15h18.10.081,lexical_decision_task_DD_L5,2021.2.3,MacIntel,62.5,3.843,,,,,,,,,,,,,,,,,,,,,,,,,,,,,,,,,,,,,,,,,,,,,,,,,,,,,3,0,3,0,1,,,,,,,,,,,,,,,
,0.017777778,-0.417777778,1,0,0,instr_done_button,,,,,,1,test,"In the next phase you will be presented with the words from the the first phase. Your job is to decide whether you remember seeing the word or not. If you remember seeing the word press ""old"" or type ""m"". If you do not remember seeing the word press ""new"" or type ""z"". Please press the space bar or click on continue to begin. ",,,199858,18,2022-01-28_15h18.10.081,lexical_decision_task_DD_L5,2021.2.3,MacIntel,62.5,,,,,,,,,,,,,,,,,,,,,,,,,,,,,,,,,,,,,,,,,,,,,,,,,,,,,,4,0,4,0,1,,,,,,,,,,,,,,,
,,,,,,,,,,,,,,,,,199858,18,2022-01-28_15h18.10.081,lexical_decision_task_DD_L5,2021.2.3,MacIntel,62.5,,,,,,,,,,,,2.573,0,,,,,,,,,,,,,,,,,,,,,,,,0.033333333,-0.342222222,0,0,0,,,,,,,PACKET,C,z,y,./images/PACKET.png,,,,,,,m,0,2.573,,,,,,,,0,0,0,140,1
,,,,,,,,,,,,,,,,,199858,18,2022-01-28_15h18.10.081,lexical_decision_task_DD_L5,2021.2.3,MacIntel,62.5,,,,,,,,,,,,1.629,1,,,,,,,,,,,,,,,,,,,,,,,,0.033333333,-0.342222222,0,0,0,,,,,,,CLOUD,C,m,y,./images/CLOUD.png,,,,,,,m,1,1.629,,,,,,,,0,1,1,26,1
,,,,,,,,,,,,,,,,,199858,18,2022-01-28_15h18.10.081,lexical_decision_task_DD_L5,2021.2.3,MacIntel,62.5,,,,,,,,,,,,1.657,0,,,,,,,,,,,,,,,,,,,,,,,,0.033333333,-0.342222222,0,0,0,,,,,,,ENGINE,C,m,y,./images/ENGINE.png,,,,,,,z,0,1.657,,,,,,,,0,2,2,38,1
,,,,,,,,,,,,,,,,,199858,18,2022-01-28_15h18.10.081,lexical_decision_task_DD_L5,2021.2.3,MacIntel,62.5,,,,,,,,,,,,0.908,1,,,,,,,,,,,,,,,,,,,,,,,,0.033333333,-0.342222222,0,0,0,,,,,,,RHINO,HB,z,y,./images/RHINOHB.png,,,,,,,z,1,0.908,,,,,,,,0,3,3,93,1
,,,,,,,,,,,,,,,,,199858,18,2022-01-28_15h18.10.081,lexical_decision_task_DD_L5,2021.2.3,MacIntel,62.5,,,,,,,,,,,,0.963,1,,,,,,,,,,,,,,,,,,,,,,,,0.033333333,-0.342222222,0,0,0,,,,,,,CEMENT,C,z,y,./images/CEMENT.png,,,,,,,z,1,0.963,,,,,,,,0,4,4,158,1
,,,,,,,,,,,,,,,,,199858,18,2022-01-28_15h18.10.081,lexical_decision_task_DD_L5,2021.2.3,MacIntel,62.5,,,,,,,,,,,,0.831,1,,,,,,,,,,,,,,,,,,,,,,,,0.033333333,-0.342222222,0,0,0,,,,,,,MIDGET,LB,m,y,./images/MIDGETLB.png,,,,,,,m,1,0.831,,,,,,,,0,5,5,76,1
,,,,,,,,,,,,,,,,,199858,18,2022-01-28_15h18.10.081,lexical_decision_task_DD_L5,2021.2.3,MacIntel,62.5,,,,,,,,,,,,3.162,1,,,,,,,,,,,,,,,,,,,,,,,,0.033333333,-0.342222222,0,0,0,,,,,,,FOLDER,HB,z,y,./images/FOLDERHB.png,,,,,,,z,1,3.162,,,,,,,,0,6,6,126,1
,,,,,,,,,,,,,,,,,199858,18,2022-01-28_15h18.10.081,lexical_decision_task_DD_L5,2021.2.3,MacIntel,62.5,,,,,,,,,,,,2.437,0,,,,,,,,,,,,,,,,,,,,,,,,0.033333333,-0.342222222,0,0,0,,,,,,,BUTTER,HB,m,y,./images/BUTTERHB.png,,,,,,,z,0,2.437,,,,,,,,0,7,7,27,1
,,,,,,,,,,,,,,,,,199858,18,2022-01-28_15h18.10.081,lexical_decision_task_DD_L5,2021.2.3,MacIntel,62.5,,,,,,,,,,,,0.689,1,,,,,,,,,,,,,,,,,,,,,,,,0.033333333,-0.342222222,0,0,0,,,,,,,SUNSET,LB,z,y,./images/SUNSETLB.png,,,,,,,z,1,0.689,,,,,,,,0,8,8,166,1
,,,,,,,,,,,,,,,,,199858,18,2022-01-28_15h18.10.081,lexical_decision_task_DD_L5,2021.2.3,MacIntel,62.5,,,,,,,,,,,,0.995,1,,,,,,,,,,,,,,,,,,,,,,,,0.033333333,-0.342222222,0,0,0,,,,,,,SKIING,C,z,y,./images/SKIING.png,,,,,,,z,1,0.995,,,,,,,,0,9,9,101,1
,,,,,,,,,,,,,,,,,199858,18,2022-01-28_15h18.10.081,lexical_decision_task_DD_L5,2021.2.3,MacIntel,62.5,,,,,,,,,,,,0.756,1,,,,,,,,,,,,,,,,,,,,,,,,0.033333333,-0.342222222,0,0,0,,,,,,,BANNER,LB,z,y,./images/BANNERLB.png,,,,,,,z,1,0.756,,,,,,,,0,10,10,136,1
,,,,,,,,,,,,,,,,,199858,18,2022-01-28_15h18.10.081,lexical_decision_task_DD_L5,2021.2.3,MacIntel,62.5,,,,,,,,,,,,0.782,1,,,,,,,,,,,,,,,,,,,,,,,,0.033333333,-0.342222222,0,0,0,,,,,,,BURIAL,C,z,y,./images/BURIAL.png,,,,,,,z,1,0.782,,,,,,,,0,11,11,143,1
,,,,,,,,,,,,,,,,,199858,18,2022-01-28_15h18.10.081,lexical_decision_task_DD_L5,2021.2.3,MacIntel,62.5,,,,,,,,,,,,0.723,1,,,,,,,,,,,,,,,,,,,,,,,,0.033333333,-0.342222222,0,0,0,,,,,,,HAMMER,HB,m,y,./images/HAMMERHB.png,,,,,,,m,1,0.723,,,,,,,,0,12,12,75,1
,,,,,,,,,,,,,,,,,199858,18,2022-01-28_15h18.10.081,lexical_decision_task_DD_L5,2021.2.3,MacIntel,62.5,,,,,,,,,,,,0.698,1,,,,,,,,,,,,,,,,,,,,,,,,0.033333333,-0.342222222,0,0,0,,,,,,,CANOE,LB,m,y,./images/CANOELB.png,,,,,,,m,1,0.698,,,,,,,,0,13,13,58,1
,,,,,,,,,,,,,,,,,199858,18,2022-01-28_15h18.10.081,lexical_decision_task_DD_L5,2021.2.3,MacIntel,62.5,,,,,,,,,,,,0.746,1,,,,,,,,,,,,,,,,,,,,,,,,0.033333333,-0.342222222,0,0,0,,,,,,,CRATER,HB,m,y,./images/CRATERHB.png,,,,,,,m,1,0.746,,,,,,,,0,14,14,3,1
,,,,,,,,,,,,,,,,,199858,18,2022-01-28_15h18.10.081,lexical_decision_task_DD_L5,2021.2.3,MacIntel,62.5,,,,,,,,,,,,0.832,1,,,,,,,,,,,,,,,,,,,,,,,,0.033333333,-0.342222222,0,0,0,,,,,,,BAKER,HB,m,y,./images/BAKERHB.png,,,,,,,m,1,0.832,,,,,,,,0,15,15,63,1
,,,,,,,,,,,,,,,,,199858,18,2022-01-28_15h18.10.081,lexical_decision_task_DD_L5,2021.2.3,MacIntel,62.5,,,,,,,,,,,,0.564,0,,,,,,,,,,,,,,,,,,,,,,,,0.033333333,-0.342222222,0,0,0,,,,,,,SMOKER,C,z,y,./images/SMOKER.png,,,,,,,m,0,0.564,,,,,,,,0,16,16,110,1
,,,,,,,,,,,,,,,,,199858,18,2022-01-28_15h18.10.081,lexical_decision_task_DD_L5,2021.2.3,MacIntel,62.5,,,,,,,,,,,,0.831,1,,,,,,,,,,,,,,,,,,,,,,,,0.033333333,-0.342222222,0,0,0,,,,,,,SAILOR,LB,z,y,./images/SAILORLB.png,,,,,,,z,1,0.831,,,,,,,,0,17,17,151,1
,,,,,,,,,,,,,,,,,199858,18,2022-01-28_15h18.10.081,lexical_decision_task_DD_L5,2021.2.3,MacIntel,62.5,,,,,,,,,,,,0.627,0,,,,,,,,,,,,,,,,,,,,,,,,0.033333333,-0.342222222,0,0,0,,,,,,,DANCER,HB,m,y,./images/DANCERHB.png,,,,,,,z,0,0.627,,,,,,,,0,18,18,21,1
,,,,,,,,,,,,,,,,,199858,18,2022-01-28_15h18.10.081,lexical_decision_task_DD_L5,2021.2.3,MacIntel,62.5,,,,,,,,,,,,1.304,0,,,,,,,,,,,,,,,,,,,,,,,,0.033333333,-0.342222222,0,0,0,,,,,,,BROOM,HB,m,y,./images/BROOMHB.png,,,,,,,z,0,1.304,,,,,,,,0,19,19,78,1
,,,,,,,,,,,,,,,,,199858,18,2022-01-28_15h18.10.081,lexical_decision_task_DD_L5,2021.2.3,MacIntel,62.5,,,,,,,,,,,,1.774,1,,,,,,,,,,,,,,,,,,,,,,,,0.033333333,-0.342222222,0,0,0,,,,,,,LAGOON,C,m,y,./images/LAGOON.png,,,,,,,m,1,1.774,,,,,,,,0,20,20,47,1
,,,,,,,,,,,,,,,,,199858,18,2022-01-28_15h18.10.081,lexical_decision_task_DD_L5,2021.2.3,MacIntel,62.5,,,,,,,,,,,,1.323,0,,,,,,,,,,,,,,,,,,,,,,,,0.033333333,-0.342222222,0,0,0,,,,,,,TOWEL,LB,m,y,./images/TOWELLB.png,,,,,,,z,0,1.323,,,,,,,,0,21,21,1,1
,,,,,,,,,,,,,,,,,199858,18,2022-01-28_15h18.10.081,lexical_decision_task_DD_L5,2021.2.3,MacIntel,62.5,,,,,,,,,,,,0.872,0,,,,,,,,,,,,,,,,,,,,,,,,0.033333333,-0.342222222,0,0,0,,,,,,,BONNET,C,z,y,./images/BONNET.png,,,,,,,m,0,0.872,,,,,,,,0,22,22,95,1
,,,,,,,,,,,,,,,,,199858,18,2022-01-28_15h18.10.081,lexical_decision_task_DD_L5,2021.2.3,MacIntel,62.5,,,,,,,,,,,,1.423,1,,,,,,,,,,,,,,,,,,,,,,,,0.033333333,-0.342222222,0,0,0,,,,,,,FINGER,HB,z,y,./images/FINGERHB.png,,,,,,,z,1,1.423,,,,,,,,0,23,23,87,1
,,,,,,,,,,,,,,,,,199858,18,2022-01-28_15h18.10.081,lexical_decision_task_DD_L5,2021.2.3,MacIntel,62.5,,,,,,,,,,,,1.008,1,,,,,,,,,,,,,,,,,,,,,,,,0.033333333,-0.342222222,0,0,0,,,,,,,NOOSE,HB,z,y,./images/NOOSEHB.png,,,,,,,z,1,1.008,,,,,,,,0,24,24,156,1
,,,,,,,,,,,,,,,,,199858,18,2022-01-28_15h18.10.081,lexical_decision_task_DD_L5,2021.2.3,MacIntel,62.5,,,,,,,,,,,,1.031,1,,,,,,,,,,,,,,,,,,,,,,,,0.033333333,-0.342222222,0,0,0,,,,,,,MUFFIN,LB,z,y,./images/MUFFINLB.png,,,,,,,z,1,1.031,,,,,,,,0,25,25,139,1
,,,,,,,,,,,,,,,,,199858,18,2022-01-28_15h18.10.081,lexical_decision_task_DD_L5,2021.2.3,MacIntel,62.5,,,,,,,,,,,,1.132,1,,,,,,,,,,,,,,,,,,,,,,,,0.033333333,-0.342222222,0,0,0,,,,,,,CLIFF,C,m,y,./images/CLIFF.png,,,,,,,m,1,1.132,,,,,,,,0,26,26,8,1
,,,,,,,,,,,,,,,,,199858,18,2022-01-28_15h18.10.081,lexical_decision_task_DD_L5,2021.2.3,MacIntel,62.5,,,,,,,,,,,,1.03,1,,,,,,,,,,,,,,,,,,,,,,,,0.033333333,-0.342222222,0,0,0,,,,,,,PLANK,LB,z,y,./images/PLANKLB.png,,,,,,,z,1,1.03,,,,,,,,0,27,27,85,1
,,,,,,,,,,,,,,,,,199858,18,2022-01-28_15h18.10.081,lexical_decision_task_DD_L5,2021.2.3,MacIntel,62.5,,,,,,,,,,,,1.728,1,,,,,,,,,,,,,,,,,,,,,,,,0.033333333,-0.342222222,0,0,0,,,,,,,PARADE,C,m,y,./images/PARADE.png,,,,,,,m,1,1.728,,,,,,,,0,28,28,17,1
,,,,,,,,,,,,,,,,,199858,18,2022-01-28_15h18.10.081,lexical_decision_task_DD_L5,2021.2.3,MacIntel,62.5,,,,,,,,,,,,1.429,1,,,,,,,,,,,,,,,,,,,,,,,,0.033333333,-0.342222222,0,0,0,,,,,,,SHELF,HB,z,y,./images/SHELFHB.png,,,,,,,z,1,1.429,,,,,,,,0,29,29,123,1
,,,,,,,,,,,,,,,,,199858,18,2022-01-28_15h18.10.081,lexical_decision_task_DD_L5,2021.2.3,MacIntel,62.5,,,,,,,,,,,,0.64,1,,,,,,,,,,,,,,,,,,,,,,,,0.033333333,-0.342222222,0,0,0,,,,,,,VALLEY,C,m,y,./images/VALLEY.png,,,,,,,m,1,0.64,,,,,,,,0,30,30,68,1
,,,,,,,,,,,,,,,,,199858,18,2022-01-28_15h18.10.081,lexical_decision_task_DD_L5,2021.2.3,MacIntel,62.5,,,,,,,,,,,,0.59,1,,,,,,,,,,,,,,,,,,,,,,,,0.033333333,-0.342222222,0,0,0,,,,,,,CHAIN,HB,m,y,./images/CHAINHB.png,,,,,,,m,1,0.59,,,,,,,,0,31,31,42,1
,,,,,,,,,,,,,,,,,199858,18,2022-01-28_15h18.10.081,lexical_decision_task_DD_L5,2021.2.3,MacIntel,62.5,,,,,,,,,,,,0.621,1,,,,,,,,,,,,,,,,,,,,,,,,0.033333333,-0.342222222,0,0,0,,,,,,,COLLAR,HB,m,y,./images/COLLARHB.png,,,,,,,m,1,0.621,,,,,,,,0,32,32,15,1
,,,,,,,,,,,,,,,,,199858,18,2022-01-28_15h18.10.081,lexical_decision_task_DD_L5,2021.2.3,MacIntel,62.5,,,,,,,,,,,,0.733,1,,,,,,,,,,,,,,,,,,,,,,,,0.033333333,-0.342222222,0,0,0,,,,,,,SPINE,C,m,y,./images/SPINE.png,,,,,,,m,1,0.733,,,,,,,,0,33,33,65,1
,,,,,,,,,,,,,,,,,199858,18,2022-01-28_15h18.10.081,lexical_decision_task_DD_L5,2021.2.3,MacIntel,62.5,,,,,,,,,,,,0.543,0,,,,,,,,,,,,,,,,,,,,,,,,0.033333333,-0.342222222,0,0,0,,,,,,,SHORE,HB,z,y,./images/SHOREHB.png,,,,,,,m,0,0.543,,,,,,,,0,34,34,96,1
,,,,,,,,,,,,,,,,,199858,18,2022-01-28_15h18.10.081,lexical_decision_task_DD_L5,2021.2.3,MacIntel,62.5,,,,,,,,,,,,0.906,0,,,,,,,,,,,,,,,,,,,,,,,,0.033333333,-0.342222222,0,0,0,,,,,,,BELLY,LB,z,y,./images/BELLYLB.png,,,,,,,m,0,0.906,,,,,,,,0,35,35,94,1
,,,,,,,,,,,,,,,,,199858,18,2022-01-28_15h18.10.081,lexical_decision_task_DD_L5,2021.2.3,MacIntel,62.5,,,,,,,,,,,,0.757,1,,,,,,,,,,,,,,,,,,,,,,,,0.033333333,-0.342222222,0,0,0,,,,,,,PEBBLE,LB,m,y,./images/PEBBLELB.png,,,,,,,m,1,0.757,,,,,,,,0,36,36,82,1
,,,,,,,,,,,,,,,,,199858,18,2022-01-28_15h18.10.081,lexical_decision_task_DD_L5,2021.2.3,MacIntel,62.5,,,,,,,,,,,,1.107,1,,,,,,,,,,,,,,,,,,,,,,,,0.033333333,-0.342222222,0,0,0,,,,,,,GREASE,HB,z,y,./images/GREASEHB.png,,,,,,,z,1,1.107,,,,,,,,0,37,37,99,1
,,,,,,,,,,,,,,,,,199858,18,2022-01-28_15h18.10.081,lexical_decision_task_DD_L5,2021.2.3,MacIntel,62.5,,,,,,,,,,,,0.727,0,,,,,,,,,,,,,,,,,,,,,,,,0.033333333,-0.342222222,0,0,0,,,,,,,INFANT,LB,z,y,./images/INFANTLB.png,,,,,,,m,0,0.727,,,,,,,,0,38,38,160,1
,,,,,,,,,,,,,,,,,199858,18,2022-01-28_15h18.10.081,lexical_decision_task_DD_L5,2021.2.3,MacIntel,62.5,,,,,,,,,,,,1.103,1,,,,,,,,,,,,,,,,,,,,,,,,0.033333333,-0.342222222,0,0,0,,,,,,,DIVER,HB,m,y,./images/DIVERHB.png,,,,,,,m,1,1.103,,,,,,,,0,39,39,9,1
,,,,,,,,,,,,,,,,,199858,18,2022-01-28_15h18.10.081,lexical_decision_task_DD_L5,2021.2.3,MacIntel,62.5,,,,,,,,,,,,3.349,1,,,,,,,,,,,,,,,,,,,,,,,,0.033333333,-0.342222222,0,0,0,,,,,,,STOOL,LB,m,y,./images/STOOLLB.png,,,,,,,m,1,3.349,,,,,,,,0,40,40,43,1
,,,,,,,,,,,,,,,,,199858,18,2022-01-28_15h18.10.081,lexical_decision_task_DD_L5,2021.2.3,MacIntel,62.5,,,,,,,,,,,,0.929,1,,,,,,,,,,,,,,,,,,,,,,,,0.033333333,-0.342222222,0,0,0,space,,,,,,CANYON,LB,z,y,./images/CANYONLB.png,3.38,,,,,,z,1,0.929,,,,,,,,0,41,41,118,1
,,,,,,,,,,,,,,,,,199858,18,2022-01-28_15h18.10.081,lexical_decision_task_DD_L5,2021.2.3,MacIntel,62.5,,,,,,,,,,,,1.099,0,,,,,,,,,,,,,,,,,,,,,,,,0.033333333,-0.342222222,0,0,0,,,,,,,MEDAL,C,m,y,./images/MEDAL.png,,,,,,,z,0,1.099,,,,,,,,0,42,42,11,1
,,,,,,,,,,,,,,,,,199858,18,2022-01-28_15h18.10.081,lexical_decision_task_DD_L5,2021.2.3,MacIntel,62.5,,,,,,,,,,,,0.873,1,,,,,,,,,,,,,,,,,,,,,,,,0.033333333,-0.342222222,0,0,0,,,,,,,SAUNA,HB,m,y,./images/SAUNAHB.png,,,,,,,m,1,0.873,,,,,,,,0,43,43,33,1
,,,,,,,,,,,,,,,,,199858,18,2022-01-28_15h18.10.081,lexical_decision_task_DD_L5,2021.2.3,MacIntel,62.5,,,,,,,,,,,,1.747,1,,,,,,,,,,,,,,,,,,,,,,,,0.033333333,-0.342222222,0,0,0,,,,,,,CURRY,HB,m,y,./images/CURRYHB.png,,,,,,,m,1,1.747,,,,,,,,0,44,44,60,1
,,,,,,,,,,,,,,,,,199858,18,2022-01-28_15h18.10.081,lexical_decision_task_DD_L5,2021.2.3,MacIntel,62.5,,,,,,,,,,,,1.307,1,,,,,,,,,,,,,,,,,,,,,,,,0.033333333,-0.342222222,0,0,0,,,,,,,SNACK,LB,z,y,./images/SNACKLB.png,,,,,,,z,1,1.307,,,,,,,,0,45,45,157,1
,,,,,,,,,,,,,,,,,199858,18,2022-01-28_15h18.10.081,lexical_decision_task_DD_L5,2021.2.3,MacIntel,62.5,,,,,,,,,,,,1.062,1,,,,,,,,,,,,,,,,,,,,,,,,0.033333333,-0.342222222,0,0,0,,,,,,,BANANA,LB,m,y,./images/BANANALB.png,,,,,,,m,1,1.062,,,,,,,,0,46,46,70,1
,,,,,,,,,,,,,,,,,199858,18,2022-01-28_15h18.10.081,lexical_decision_task_DD_L5,2021.2.3,MacIntel,62.5,,,,,,,,,,,,1.008,0,,,,,,,,,,,,,,,,,,,,,,,,0.033333333,-0.342222222,0,0,0,,,,,,,STORM,HB,z,y,./images/STORMHB.png,,,,,,,m,0,1.008,,,,,,,,0,47,47,114,1
,,,,,,,,,,,,,,,,,199858,18,2022-01-28_15h18.10.081,lexical_decision_task_DD_L5,2021.2.3,MacIntel,62.5,,,,,,,,,,,,0.88,1,,,,,,,,,,,,,,,,,,,,,,,,0.033333333,-0.342222222,0,0,0,,,,,,,RAZOR,LB,m,y,./images/RAZORLB.png,,,,,,,m,1,0.88,,,,,,,,0,48,48,34,1
,,,,,,,,,,,,,,,,,199858,18,2022-01-28_15h18.10.081,lexical_decision_task_DD_L5,2021.2.3,MacIntel,62.5,,,,,,,,,,,,0.809,1,,,,,,,,,,,,,,,,,,,,,,,,0.033333333,-0.342222222,0,0,0,,,,,,,ATTIC,HB,z,y,./images/ATTICHB.png,,,,,,,z,1,0.809,,,,,,,,0,49,49,111,1
,,,,,,,,,,,,,,,,,199858,18,2022-01-28_15h18.10.081,lexical_decision_task_DD_L5,2021.2.3,MacIntel,62.5,,,,,,,,,,,,0.764,1,,,,,,,,,,,,,,,,,,,,,,,,0.033333333,-0.342222222,0,0,0,,,,,,,BASKET,C,m,y,./images/BASKET.png,,,,,,,m,1,0.764,,,,,,,,0,50,50,44,1
,,,,,,,,,,,,,,,,,199858,18,2022-01-28_15h18.10.081,lexical_decision_task_DD_L5,2021.2.3,MacIntel,62.5,,,,,,,,,,,,1.731,1,,,,,,,,,,,,,,,,,,,,,,,,0.033333333,-0.342222222,0,0,0,,,,,,,STOVE,C,m,y,./images/STOVE.png,,,,,,,m,1,1.731,,,,,,,,0,51,51,2,1
,,,,,,,,,,,,,,,,,199858,18,2022-01-28_15h18.10.081,lexical_decision_task_DD_L5,2021.2.3,MacIntel,62.5,,,,,,,,,,,,1.506,0,,,,,,,,,,,,,,,,,,,,,,,,0.033333333,-0.342222222,0,0,0,,,,,,,BABOON,LB,z,y,./images/BABOONLB.png,,,,,,,m,0,1.506,,,,,,,,0,52,52,142,1
,,,,,,,,,,,,,,,,,199858,18,2022-01-28_15h18.10.081,lexical_decision_task_DD_L5,2021.2.3,MacIntel,62.5,,,,,,,,,,,,1.001,1,,,,,,,,,,,,,,,,,,,,,,,,0.033333333,-0.342222222,0,0,0,,,,,,,SPORT,HB,z,y,./images/SPORTHB.png,,,,,,,z,1,1.001,,,,,,,,0,53,53,132,1
,,,,,,,,,,,,,,,,,199858,18,2022-01-28_15h18.10.081,lexical_decision_task_DD_L5,2021.2.3,MacIntel,62.5,,,,,,,,,,,,0.805,1,,,,,,,,,,,,,,,,,,,,,,,,0.033333333,-0.342222222,0,0,0,,,,,,,TIGER,LB,m,y,./images/TIGERLB.png,,,,,,,m,1,0.805,,,,,,,,0,54,54,37,1
,,,,,,,,,,,,,,,,,199858,18,2022-01-28_15h18.10.081,lexical_decision_task_DD_L5,2021.2.3,MacIntel,62.5,,,,,,,,,,,,0.776,1,,,,,,,,,,,,,,,,,,,,,,,,0.033333333,-0.342222222,0,0,0,,,,,,,SLOPE,HB,m,y,./images/SLOPEHB.png,,,,,,,m,1,0.776,,,,,,,,0,55,55,30,1
,,,,,,,,,,,,,,,,,199858,18,2022-01-28_15h18.10.081,lexical_decision_task_DD_L5,2021.2.3,MacIntel,62.5,,,,,,,,,,,,0.705,1,,,,,,,,,,,,,,,,,,,,,,,,0.033333333,-0.342222222,0,0,0,,,,,,,SAUCE,HB,m,y,./images/SAUCEHB.png,,,,,,,m,1,0.705,,,,,,,,0,56,56,51,1
,,,,,,,,,,,,,,,,,199858,18,2022-01-28_15h18.10.081,lexical_decision_task_DD_L5,2021.2.3,MacIntel,62.5,,,,,,,,,,,,0.597,1,,,,,,,,,,,,,,,,,,,,,,,,0.033333333,-0.342222222,0,0,0,,,,,,,TWINS,HB,z,y,./images/TWINSHB.png,,,,,,,z,1,0.597,,,,,,,,0,57,57,144,1
,,,,,,,,,,,,,,,,,199858,18,2022-01-28_15h18.10.081,lexical_decision_task_DD_L5,2021.2.3,MacIntel,62.5,,,,,,,,,,,,0.778,1,,,,,,,,,,,,,,,,,,,,,,,,0.033333333,-0.342222222,0,0,0,,,,,,,BEARD,C,z,y,./images/BEARD.png,,,,,,,z,1,0.778,,,,,,,,0,58,58,86,1
,,,,,,,,,,,,,,,,,199858,18,2022-01-28_15h18.10.081,lexical_decision_task_DD_L5,2021.2.3,MacIntel,62.5,,,,,,,,,,,,0.511,1,,,,,,,,,,,,,,,,,,,,,,,,0.033333333,-0.342222222,0,0,0,,,,,,,COUCH,C,z,y,./images/COUCH.png,,,,,,,z,1,0.511,,,,,,,,0,59,59,161,1
,,,,,,,,,,,,,,,,,199858,18,2022-01-28_15h18.10.081,lexical_decision_task_DD_L5,2021.2.3,MacIntel,62.5,,,,,,,,,,,,2.222,1,,,,,,,,,,,,,,,,,,,,,,,,0.033333333,-0.342222222,0,0,0,,,,,,,PEACH,C,z,y,./images/PEACH.png,,,,,,,z,1,2.222,,,,,,,,0,60,60,119,1
,,,,,,,,,,,,,,,,,199858,18,2022-01-28_15h18.10.081,lexical_decision_task_DD_L5,2021.2.3,MacIntel,62.5,,,,,,,,,,,,0.882,1,,,,,,,,,,,,,,,,,,,,,,,,0.033333333,-0.342222222,0,0,0,,,,,,,GRAIN,HB,z,y,./images/GRAINHB.png,,,,,,,z,1,0.882,,,,,,,,0,61,61,159,1
,,,,,,,,,,,,,,,,,199858,18,2022-01-28_15h18.10.081,lexical_decision_task_DD_L5,2021.2.3,MacIntel,62.5,,,,,,,,,,,,0.841,1,,,,,,,,,,,,,,,,,,,,,,,,0.033333333,-0.342222222,0,0,0,,,,,,,JUMPER,C,m,y,./images/JUMPER.png,,,,,,,m,1,0.841,,,,,,,,0,62,62,74,1
,,,,,,,,,,,,,,,,,199858,18,2022-01-28_15h18.10.081,lexical_decision_task_DD_L5,2021.2.3,MacIntel,62.5,,,,,,,,,,,,0.758,1,,,,,,,,,,,,,,,,,,,,,,,,0.033333333,-0.342222222,0,0,0,,,,,,,THROAT,HB,z,y,./images/THROATHB.png,,,,,,,z,1,0.758,,,,,,,,0,63,63,120,1
,,,,,,,,,,,,,,,,,199858,18,2022-01-28_15h18.10.081,lexical_decision_task_DD_L5,2021.2.3,MacIntel,62.5,,,,,,,,,,,,1.689,1,,,,,,,,,,,,,,,,,,,,,,,,0.033333333,-0.342222222,0,0,0,,,,,,,MOOSE,HB,z,y,./images/MOOSEHB.png,,,,,,,z,1,1.689,,,,,,,,0,64,64,141,1
,,,,,,,,,,,,,,,,,199858,18,2022-01-28_15h18.10.081,lexical_decision_task_DD_L5,2021.2.3,MacIntel,62.5,,,,,,,,,,,,0.863,1,,,,,,,,,,,,,,,,,,,,,,,,0.033333333,-0.342222222,0,0,0,,,,,,,TOMATO,HB,z,y,./images/TOMATOHB.png,,,,,,,z,1,0.863,,,,,,,,0,65,65,84,1
,,,,,,,,,,,,,,,,,199858,18,2022-01-28_15h18.10.081,lexical_decision_task_DD_L5,2021.2.3,MacIntel,62.5,,,,,,,,,,,,0.807,0,,,,,,,,,,,,,,,,,,,,,,,,0.033333333,-0.342222222,0,0,0,,,,,,,GRAPE,LB,m,y,./images/GRAPELB.png,,,,,,,z,0,0.807,,,,,,,,0,66,66,16,1
,,,,,,,,,,,,,,,,,199858,18,2022-01-28_15h18.10.081,lexical_decision_task_DD_L5,2021.2.3,MacIntel,62.5,,,,,,,,,,,,0.556,1,,,,,,,,,,,,,,,,,,,,,,,,0.033333333,-0.342222222,0,0,0,,,,,,,LIZARD,C,z,y,./images/LIZARD.png,,,,,,,z,1,0.556,,,,,,,,0,67,67,128,1
,,,,,,,,,,,,,,,,,199858,18,2022-01-28_15h18.10.081,lexical_decision_task_DD_L5,2021.2.3,MacIntel,62.5,,,,,,,,,,,,0.967,1,,,,,,,,,,,,,,,,,,,,,,,,0.033333333,-0.342222222,0,0,0,,,,,,,STATUE,HB,m,y,./images/STATUEHB.png,,,,,,,m,1,0.967,,,,,,,,0,68,68,66,1
,,,,,,,,,,,,,,,,,199858,18,2022-01-28_15h18.10.081,lexical_decision_task_DD_L5,2021.2.3,MacIntel,62.5,,,,,,,,,,,,0.771,1,,,,,,,,,,,,,,,,,,,,,,,,0.033333333,-0.342222222,0,0,0,,,,,,,URINE,LB,z,y,./images/URINELB.png,,,,,,,z,1,0.771,,,,,,,,0,69,69,154,1
,,,,,,,,,,,,,,,,,199858,18,2022-01-28_15h18.10.081,lexical_decision_task_DD_L5,2021.2.3,MacIntel,62.5,,,,,,,,,,,,0.913,0,,,,,,,,,,,,,,,,,,,,,,,,0.033333333,-0.342222222,0,0,0,,,,,,,ARTIST,LB,m,y,./images/ARTISTLB.png,,,,,,,z,0,0.913,,,,,,,,0,70,70,61,1
,,,,,,,,,,,,,,,,,199858,18,2022-01-28_15h18.10.081,lexical_decision_task_DD_L5,2021.2.3,MacIntel,62.5,,,,,,,,,,,,0.947,0,,,,,,,,,,,,,,,,,,,,,,,,0.033333333,-0.342222222,0,0,0,,,,,,,FALCON,LB,z,y,./images/FALCONLB.png,,,,,,,m,0,0.947,,,,,,,,0,71,71,112,1
,,,,,,,,,,,,,,,,,199858,18,2022-01-28_15h18.10.081,lexical_decision_task_DD_L5,2021.2.3,MacIntel,62.5,,,,,,,,,,,,0.857,1,,,,,,,,,,,,,,,,,,,,,,,,0.033333333,-0.342222222,0,0,0,,,,,,,SNAKE,LB,m,y,./images/SNAKELB.png,,,,,,,m,1,0.857,,,,,,,,0,72,72,40,1
,,,,,,,,,,,,,,,,,199858,18,2022-01-28_15h18.10.081,lexical_decision_task_DD_L5,2021.2.3,MacIntel,62.5,,,,,,,,,,,,0.584,1,,,,,,,,,,,,,,,,,,,,,,,,0.033333333,-0.342222222,0,0,0,,,,,,,RULER,LB,m,y,./images/RULERLB.png,,,,,,,m,1,0.584,,,,,,,,0,73,73,79,1
,,,,,,,,,,,,,,,,,199858,18,2022-01-28_15h18.10.081,lexical_decision_task_DD_L5,2021.2.3,MacIntel,62.5,,,,,,,,,,,,0.94,1,,,,,,,,,,,,,,,,,,,,,,,,0.033333333,-0.342222222,0,0,0,,,,,,,SQUARE,HB,z,y,./images/SQUAREHB.png,,,,,,,z,1,0.94,,,,,,,,0,74,74,90,1
,,,,,,,,,,,,,,,,,199858,18,2022-01-28_15h18.10.081,lexical_decision_task_DD_L5,2021.2.3,MacIntel,62.5,,,,,,,,,,,,1.373,1,,,,,,,,,,,,,,,,,,,,,,,,0.033333333,-0.342222222,0,0,0,,,,,,,MUMMY,LB,m,y,./images/MUMMYLB.png,,,,,,,m,1,1.373,,,,,,,,0,75,75,46,1
,,,,,,,,,,,,,,,,,199858,18,2022-01-28_15h18.10.081,lexical_decision_task_DD_L5,2021.2.3,MacIntel,62.5,,,,,,,,,,,,1.139,0,,,,,,,,,,,,,,,,,,,,,,,,0.033333333,-0.342222222,0,0,0,,,,,,,FLESH,HB,m,y,./images/FLESHHB.png,,,,,,,z,0,1.139,,,,,,,,0,76,76,24,1
,,,,,,,,,,,,,,,,,199858,18,2022-01-28_15h18.10.081,lexical_decision_task_DD_L5,2021.2.3,MacIntel,62.5,,,,,,,,,,,,0.923,1,,,,,,,,,,,,,,,,,,,,,,,,0.033333333,-0.342222222,0,0,0,,,,,,,CRUST,LB,z,y,./images/CRUSTLB.png,,,,,,,z,1,0.923,,,,,,,,0,77,77,163,1
,,,,,,,,,,,,,,,,,199858,18,2022-01-28_15h18.10.081,lexical_decision_task_DD_L5,2021.2.3,MacIntel,62.5,,,,,,,,,,,,0.788,1,,,,,,,,,,,,,,,,,,,,,,,,0.033333333,-0.342222222,0,0,0,,,,,,,CHALK,LB,m,y,./images/CHALKLB.png,,,,,,,m,1,0.788,,,,,,,,0,78,78,25,1
,,,,,,,,,,,,,,,,,199858,18,2022-01-28_15h18.10.081,lexical_decision_task_DD_L5,2021.2.3,MacIntel,62.5,,,,,,,,,,,,1.38,1,,,,,,,,,,,,,,,,,,,,,,,,0.033333333,-0.342222222,0,0,0,,,,,,,GLOVE,LB,m,y,./images/GLOVELB.png,,,,,,,m,1,1.38,,,,,,,,0,79,79,73,1
,,,,,,,,,,,,,,,,,199858,18,2022-01-28_15h18.10.081,lexical_decision_task_DD_L5,2021.2.3,MacIntel,62.5,,,,,,,,,,,,0.748,1,,,,,,,,,,,,,,,,,,,,,,,,0.033333333,-0.342222222,0,0,0,,,,,,,PEARL,LB,z,y,./images/PEARLLB.png,,,,,,,z,1,0.748,,,,,,,,0,80,80,130,1
,,,,,,,,,,,,,,,,,199858,18,2022-01-28_15h18.10.081,lexical_decision_task_DD_L5,2021.2.3,MacIntel,62.5,,,,,,,,,,,,0.729,1,,,,,,,,,,,,,,,,,,,,,,,,0.033333333,-0.342222222,0,0,0,,,,,,,PENCE,LB,z,y,./images/PENCELB.png,,,,,,,z,1,0.729,,,,,,,,0,81,81,100,1
,,,,,,,,,,,,,,,,,199858,18,2022-01-28_15h18.10.081,lexical_decision_task_DD_L5,2021.2.3,MacIntel,62.5,,,,,,,,,,,,3.232,0,,,,,,,,,,,,,,,,,,,,,,,,0.033333333,-0.342222222,0,0,0,,,,,,,BERRY,C,z,y,./images/BERRY.png,,,,,,,m,0,3.232,,,,,,,,0,82,82,131,1
,,,,,,,,,,,,,,,,,199858,18,2022-01-28_15h18.10.081,lexical_decision_task_DD_L5,2021.2.3,MacIntel,62.5,,,,,,,,,,,,0.859,0,,,,,,,,,,,,,,,,,,,,,,,,0.033333333,-0.342222222,0,0,0,space,,,,,,MIRROR,HB,z,y,./images/MIRRORHB.png,0.883,,,,,,m,0,0.859,,,,,,,,0,83,83,147,1
,,,,,,,,,,,,,,,,,199858,18,2022-01-28_15h18.10.081,lexical_decision_task_DD_L5,2021.2.3,MacIntel,62.5,,,,,,,,,,,,1.963,1,,,,,,,,,,,,,,,,,,,,,,,,0.033333333,-0.342222222,0,0,0,,,,,,,STREAM,C,m,y,./images/STREAM.png,,,,,,,m,1,1.963,,,,,,,,0,84,84,41,1
,,,,,,,,,,,,,,,,,199858,18,2022-01-28_15h18.10.081,lexical_decision_task_DD_L5,2021.2.3,MacIntel,62.5,,,,,,,,,,,,0.774,1,,,,,,,,,,,,,,,,,,,,,,,,0.033333333,-0.342222222,0,0,0,,,,,,,MOSQUE,LB,z,y,./images/MOSQUELB.png,,,,,,,z,1,0.774,,,,,,,,0,85,85,127,1
,,,,,,,,,,,,,,,,,199858,18,2022-01-28_15h18.10.081,lexical_decision_task_DD_L5,2021.2.3,MacIntel,62.5,,,,,,,,,,,,0.972,0,,,,,,,,,,,,,,,,,,,,,,,,0.033333333,-0.342222222,0,0,0,,,,,,,WEASEL,C,z,y,./images/WEASEL.png,,,,,,,m,0,0.972,,,,,,,,0,86,86,164,1
,,,,,,,,,,,,,,,,,199858,18,2022-01-28_15h18.10.081,lexical_decision_task_DD_L5,2021.2.3,MacIntel,62.5,,,,,,,,,,,,2.115,1,,,,,,,,,,,,,,,,,,,,,,,,0.033333333,-0.342222222,0,0,0,,,,,,,PURSE,C,z,y,./images/PURSE.png,,,,,,,z,1,2.115,,,,,,,,0,87,87,146,1
,,,,,,,,,,,,,,,,,199858,18,2022-01-28_15h18.10.081,lexical_decision_task_DD_L5,2021.2.3,MacIntel,62.5,,,,,,,,,,,,0.672,1,,,,,,,,,,,,,,,,,,,,,,,,0.033333333,-0.342222222,0,0,0,,,,,,,TULIP,C,z,y,./images/TULIP.png,,,,,,,z,1,0.672,,,,,,,,0,88,88,92,1
,,,,,,,,,,,,,,,,,199858,18,2022-01-28_15h18.10.081,lexical_decision_task_DD_L5,2021.2.3,MacIntel,62.5,,,,,,,,,,,,0.69,0,,,,,,,,,,,,,,,,,,,,,,,,0.033333333,-0.342222222,0,0,0,,,,,,,HEATER,C,m,y,./images/HEATER.png,,,,,,,z,0,0.69,,,,,,,,0,89,89,56,1
,,,,,,,,,,,,,,,,,199858,18,2022-01-28_15h18.10.081,lexical_decision_task_DD_L5,2021.2.3,MacIntel,62.5,,,,,,,,,,,,1.251,1,,,,,,,,,,,,,,,,,,,,,,,,0.384444444,0.026666667,0,0,0,,,,,,,BUNNY,LB,m,y,./images/BUNNYLB.png,,,,,,,m,1,1.251,,,,,,,,0,90,90,13,1
,,,,,,,,,,,,,,,,,199858,18,2022-01-28_15h18.10.081,lexical_decision_task_DD_L5,2021.2.3,MacIntel,62.5,,,,,,,,,,,,0.559,1,,,,,,,,,,,,,,,,,,,,,,,,0.384444444,0.026666667,0,0,0,,,,,,,MUSCLE,LB,z,y,./images/MUSCLELB.png,,,,,,,z,1,0.559,,,,,,,,0,91,91,88,1
,,,,,,,,,,,,,,,,,199858,18,2022-01-28_15h18.10.081,lexical_decision_task_DD_L5,2021.2.3,MacIntel,62.5,,,,,,,,,,,,0.924,1,,,,,,,,,,,,,,,,,,,,,,,,0.384444444,0.026666667,0,0,0,,,,,,,BOILER,HB,m,y,./images/BOILERHB.png,,,,,,,m,1,0.924,,,,,,,,0,92,92,36,1
,,,,,,,,,,,,,,,,,199858,18,2022-01-28_15h18.10.081,lexical_decision_task_DD_L5,2021.2.3,MacIntel,62.5,,,,,,,,,,,,0.629,1,,,,,,,,,,,,,,,,,,,,,,,,0.384444444,0.026666667,0,0,0,,,,,,,SHIELD,HB,m,y,./images/SHIELDHB.png,,,,,,,m,1,0.629,,,,,,,,0,93,93,48,1
,,,,,,,,,,,,,,,,,199858,18,2022-01-28_15h18.10.081,lexical_decision_task_DD_L5,2021.2.3,MacIntel,62.5,,,,,,,,,,,,0.701,1,,,,,,,,,,,,,,,,,,,,,,,,0.384444444,0.026666667,0,0,0,,,,,,,WAGON,LB,m,y,./images/WAGONLB.png,,,,,,,m,1,0.701,,,,,,,,0,94,94,7,1
,,,,,,,,,,,,,,,,,199858,18,2022-01-28_15h18.10.081,lexical_decision_task_DD_L5,2021.2.3,MacIntel,62.5,,,,,,,,,,,,0.913,0,,,,,,,,,,,,,,,,,,,,,,,,0.384444444,0.026666667,0,0,0,,,,,,,FENCE,C,m,y,./images/FENCE.png,,,,,,,z,0,0.913,,,,,,,,0,95,95,14,1
,,,,,,,,,,,,,,,,,199858,18,2022-01-28_15h18.10.081,lexical_decision_task_DD_L5,2021.2.3,MacIntel,62.5,,,,,,,,,,,,1.607,1,,,,,,,,,,,,,,,,,,,,,,,,0.384444444,0.026666667,0,0,0,,,,,,,WHISKY,C,m,y,./images/WHISKY.png,,,,,,,m,1,1.607,,,,,,,,0,96,96,83,1
,,,,,,,,,,,,,,,,,199858,18,2022-01-28_15h18.10.081,lexical_decision_task_DD_L5,2021.2.3,MacIntel,62.5,,,,,,,,,,,,0.929,0,,,,,,,,,,,,,,,,,,,,,,,,0.384444444,0.026666667,0,0,0,,,,,,,CANDLE,LB,z,y,./images/CANDLELB.png,,,,,,,m,0,0.929,,,,,,,,0,97,97,145,1
,,,,,,,,,,,,,,,,,199858,18,2022-01-28_15h18.10.081,lexical_decision_task_DD_L5,2021.2.3,MacIntel,62.5,,,,,,,,,,,,0.645,1,,,,,,,,,,,,,,,,,,,,,,,,0.384444444,0.026666667,0,0,0,,,,,,,QUILL,LB,z,y,./images/QUILLLB.png,,,,,,,z,1,0.645,,,,,,,,0,98,98,115,1
,,,,,,,,,,,,,,,,,199858,18,2022-01-28_15h18.10.081,lexical_decision_task_DD_L5,2021.2.3,MacIntel,62.5,,,,,,,,,,,,1.799,1,,,,,,,,,,,,,,,,,,,,,,,,0.384444444,0.026666667,0,0,0,,,,,,,BARREL,C,z,y,./images/BARREL.png,,,,,,,z,1,1.799,,,,,,,,0,99,99,116,1
,,,,,,,,,,,,,,,,,199858,18,2022-01-28_15h18.10.081,lexical_decision_task_DD_L5,2021.2.3,MacIntel,62.5,,,,,,,,,,,,0.674,1,,,,,,,,,,,,,,,,,,,,,,,,0.384444444,0.026666667,0,0,0,,,,,,,ALLEY,LB,m,y,./images/ALLEYLB.png,,,,,,,m,1,0.674,,,,,,,,0,100,100,55,1
,,,,,,,,,,,,,,,,,199858,18,2022-01-28_15h18.10.081,lexical_decision_task_DD_L5,2021.2.3,MacIntel,62.5,,,,,,,,,,,,1.267,1,,,,,,,,,,,,,,,,,,,,,,,,0.384444444,0.026666667,0,0,0,,,,,,,MELON,LB,z,y,./images/MELONLB.png,,,,,,,z,1,1.267,,,,,,,,0,101,101,106,1
,,,,,,,,,,,,,,,,,199858,18,2022-01-28_15h18.10.081,lexical_decision_task_DD_L5,2021.2.3,MacIntel,62.5,,,,,,,,,,,,1.347,0,,,,,,,,,,,,,,,,,,,,,,,,0.384444444,0.026666667,0,0,0,,,,,,,SWING,LB,z,y,./images/SWINGLB.png,,,,,,,m,0,1.347,,,,,,,,0,102,102,124,1
,,,,,,,,,,,,,,,,,199858,18,2022-01-28_15h18.10.081,lexical_decision_task_DD_L5,2021.2.3,MacIntel,62.5,,,,,,,,,,,,0.757,0,,,,,,,,,,,,,,,,,,,,,,,,0.384444444,0.026666667,0,0,0,,,,,,,CARPET,C,z,y,./images/CARPET.png,,,,,,,m,0,0.757,,,,,,,,0,103,103,137,1
,,,,,,,,,,,,,,,,,199858,18,2022-01-28_15h18.10.081,lexical_decision_task_DD_L5,2021.2.3,MacIntel,62.5,,,,,,,,,,,,0.907,1,,,,,,,,,,,,,,,,,,,,,,,,0.384444444,0.026666667,0,0,0,,,,,,,WRIST,LB,z,y,./images/WRISTLB.png,,,,,,,z,1,0.907,,,,,,,,0,104,104,109,1
,,,,,,,,,,,,,,,,,199858,18,2022-01-28_15h18.10.081,lexical_decision_task_DD_L5,2021.2.3,MacIntel,62.5,,,,,,,,,,,,1.248,0,,,,,,,,,,,,,,,,,,,,,,,,0.384444444,0.026666667,0,0,0,,,,,,,MONKEY,HB,m,y,./images/MONKEYHB.png,,,,,,,z,0,1.248,,,,,,,,0,105,105,45,1
,,,,,,,,,,,,,,,,,199858,18,2022-01-28_15h18.10.081,lexical_decision_task_DD_L5,2021.2.3,MacIntel,62.5,,,,,,,,,,,,1.017,0,,,,,,,,,,,,,,,,,,,,,,,,0.384444444,0.026666667,0,0,0,,,,,,,DOUGH,LB,z,y,./images/DOUGHLB.png,,,,,,,m,0,1.017,,,,,,,,0,106,106,103,1
,,,,,,,,,,,,,,,,,199858,18,2022-01-28_15h18.10.081,lexical_decision_task_DD_L5,2021.2.3,MacIntel,62.5,,,,,,,,,,,,0.85,1,,,,,,,,,,,,,,,,,,,,,,,,0.384444444,0.026666667,0,0,0,,,,,,,PILOT,C,m,y,./images/PILOT.png,,,,,,,m,1,0.85,,,,,,,,0,107,107,50,1
,,,,,,,,,,,,,,,,,199858,18,2022-01-28_15h18.10.081,lexical_decision_task_DD_L5,2021.2.3,MacIntel,62.5,,,,,,,,,,,,0.811,1,,,,,,,,,,,,,,,,,,,,,,,,0.384444444,0.026666667,0,0,0,,,,,,,BAMBOO,C,m,y,./images/BAMBOO.png,,,,,,,m,1,0.811,,,,,,,,0,108,108,5,1
,,,,,,,,,,,,,,,,,199858,18,2022-01-28_15h18.10.081,lexical_decision_task_DD_L5,2021.2.3,MacIntel,62.5,,,,,,,,,,,,1.229,1,,,,,,,,,,,,,,,,,,,,,,,,0.384444444,0.026666667,0,0,0,,,,,,,POSTER,C,m,y,./images/POSTER.png,,,,,,,m,1,1.229,,,,,,,,0,109,109,53,1
,,,,,,,,,,,,,,,,,199858,18,2022-01-28_15h18.10.081,lexical_decision_task_DD_L5,2021.2.3,MacIntel,62.5,,,,,,,,,,,,1.257,0,,,,,,,,,,,,,,,,,,,,,,,,0.384444444,0.026666667,0,0,0,,,,,,,DONKEY,LB,m,y,./images/DONKEYLB.png,,,,,,,z,0,1.257,,,,,,,,0,110,110,19,1
,,,,,,,,,,,,,,,,,199858,18,2022-01-28_15h18.10.081,lexical_decision_task_DD_L5,2021.2.3,MacIntel,62.5,,,,,,,,,,,,0.857,1,,,,,,,,,,,,,,,,,,,,,,,,0.384444444,0.026666667,0,0,0,,,,,,,HOCKEY,C,m,y,./images/HOCKEY.png,,,,,,,m,1,0.857,,,,,,,,0,111,111,32,1
,,,,,,,,,,,,,,,,,199858,18,2022-01-28_15h18.10.081,lexical_decision_task_DD_L5,2021.2.3,MacIntel,62.5,,,,,,,,,,,,1.062,1,,,,,,,,,,,,,,,,,,,,,,,,0.384444444,0.026666667,0,0,0,,,,,,,CASINO,LB,m,y,./images/CASINOLB.png,,,,,,,m,1,1.062,,,,,,,,0,112,112,28,1
,,,,,,,,,,,,,,,,,199858,18,2022-01-28_15h18.10.081,lexical_decision_task_DD_L5,2021.2.3,MacIntel,62.5,,,,,,,,,,,,1.406,1,,,,,,,,,,,,,,,,,,,,,,,,0.384444444,0.026666667,0,0,0,,,,,,,CHERRY,HB,m,y,./images/CHERRYHB.png,,,,,,,m,1,1.406,,,,,,,,0,113,113,54,1
,,,,,,,,,,,,,,,,,199858,18,2022-01-28_15h18.10.081,lexical_decision_task_DD_L5,2021.2.3,MacIntel,62.5,,,,,,,,,,,,0.925,1,,,,,,,,,,,,,,,,,,,,,,,,0.384444444,0.026666667,0,0,0,,,,,,,MAGGOT,HB,z,y,./images/MAGGOTHB.png,,,,,,,z,1,0.925,,,,,,,,0,114,114,117,1
,,,,,,,,,,,,,,,,,199858,18,2022-01-28_15h18.10.081,lexical_decision_task_DD_L5,2021.2.3,MacIntel,62.5,,,,,,,,,,,,0.859,1,,,,,,,,,,,,,,,,,,,,,,,,0.384444444,0.026666667,0,0,0,,,,,,,BRUSH,C,m,y,./images/BRUSH.png,,,,,,,m,1,0.859,,,,,,,,0,115,115,59,1
,,,,,,,,,,,,,,,,,199858,18,2022-01-28_15h18.10.081,lexical_decision_task_DD_L5,2021.2.3,MacIntel,62.5,,,,,,,,,,,,1.406,1,,,,,,,,,,,,,,,,,,,,,,,,0.384444444,0.026666667,0,0,0,,,,,,,DRILL,HB,m,y,./images/DRILLHB.png,,,,,,,m,1,1.406,,,,,,,,0,116,116,81,1
,,,,,,,,,,,,,,,,,199858,18,2022-01-28_15h18.10.081,lexical_decision_task_DD_L5,2021.2.3,MacIntel,62.5,,,,,,,,,,,,0.972,0,,,,,,,,,,,,,,,,,,,,,,,,0.384444444,0.026666667,0,0,0,,,,,,,CRADLE,C,z,y,./images/CRADLE.png,,,,,,,m,0,0.972,,,,,,,,0,117,117,104,1
,,,,,,,,,,,,,,,,,199858,18,2022-01-28_15h18.10.081,lexical_decision_task_DD_L5,2021.2.3,MacIntel,62.5,,,,,,,,,,,,0.889,1,,,,,,,,,,,,,,,,,,,,,,,,0.384444444,0.026666667,0,0,0,,,,,,,PISTOL,C,m,y,./images/PISTOL.png,,,,,,,m,1,0.889,,,,,,,,0,118,118,29,1
,,,,,,,,,,,,,,,,,199858,18,2022-01-28_15h18.10.081,lexical_decision_task_DD_L5,2021.2.3,MacIntel,62.5,,,,,,,,,,,,1.991,1,,,,,,,,,,,,,,,,,,,,,,,,0.384444444,0.026666667,0,0,0,,,,,,,PARCEL,HB,m,y,./images/PARCELHB.png,,,,,,,m,1,1.991,,,,,,,,0,119,119,18,1
,,,,,,,,,,,,,,,,,199858,18,2022-01-28_15h18.10.081,lexical_decision_task_DD_L5,2021.2.3,MacIntel,62.5,,,,,,,,,,,,0.874,1,,,,,,,,,,,,,,,,,,,,,,,,0.384444444,0.026666667,0,0,0,,,,,,,GRANNY,C,m,y,./images/GRANNY.png,,,,,,,m,1,0.874,,,,,,,,0,120,120,20,1
,,,,,,,,,,,,,,,,,199858,18,2022-01-28_15h18.10.081,lexical_decision_task_DD_L5,2021.2.3,MacIntel,62.5,,,,,,,,,,,,3.065,1,,,,,,,,,,,,,,,,,,,,,,,,0.384444444,0.026666667,0,0,0,,,,,,,BRIDE,LB,m,y,./images/BRIDELB.png,,,,,,,m,1,3.065,,,,,,,,0,121,121,64,1
,,,,,,,,,,,,,,,,,199858,18,2022-01-28_15h18.10.081,lexical_decision_task_DD_L5,2021.2.3,MacIntel,62.5,,,,,,,,,,,,1.066,1,,,,,,,,,,,,,,,,,,,,,,,,0.384444444,0.026666667,0,0,0,,,,,,,DRUMS,LB,z,y,./images/DRUMSLB.png,,,,,,,z,1,1.066,,,,,,,,0,122,122,133,1
,,,,,,,,,,,,,,,,,199858,18,2022-01-28_15h18.10.081,lexical_decision_task_DD_L5,2021.2.3,MacIntel,62.5,,,,,,,,,,,,0.808,0,,,,,,,,,,,,,,,,,,,,,,,,0.384444444,0.026666667,0,0,0,,,,,,,JUNGLE,C,z,y,./images/JUNGLE.png,,,,,,,m,0,0.808,,,,,,,,0,123,123,167,1
,,,,,,,,,,,,,,,,,199858,18,2022-01-28_15h18.10.081,lexical_decision_task_DD_L5,2021.2.3,MacIntel,62.5,,,,,,,,,,,,1.023,0,,,,,,,,,,,,,,,,,,,,,,,,0.384444444,0.026666667,0,0,0,,,,,,,ARROW,HB,m,y,./images/ARROWHB.png,,,,,,,z,0,1.023,,,,,,,,0,124,124,69,1
,,,,,,,,,,,,,,,,,199858,18,2022-01-28_15h18.10.081,lexical_decision_task_DD_L5,2021.2.3,MacIntel,62.5,,,,,,,,,,,,0.981,1,,,,,,,,,,,,,,,,,,,,,,,,0.384444444,0.026666667,0,0,0,space,,,,,,STRING,C,z,y,./images/STRING.png,0.858,,,,,,z,1,0.981,,,,,,,,0,125,125,125,1
,,,,,,,,,,,,,,,,,199858,18,2022-01-28_15h18.10.081,lexical_decision_task_DD_L5,2021.2.3,MacIntel,62.5,,,,,,,,,,,,1.045,0,,,,,,,,,,,,,,,,,,,,,,,,0.384444444,0.026666667,0,0,0,,,,,,,FARMER,C,z,y,./images/FARMER.png,,,,,,,m,0,1.045,,,,,,,,0,126,126,149,1
,,,,,,,,,,,,,,,,,199858,18,2022-01-28_15h18.10.081,lexical_decision_task_DD_L5,2021.2.3,MacIntel,62.5,,,,,,,,,,,,0.939,1,,,,,,,,,,,,,,,,,,,,,,,,0.384444444,0.026666667,0,0,0,,,,,,,LLAMA,C,m,y,./images/LLAMA.png,,,,,,,m,1,0.939,,,,,,,,0,127,127,35,1
,,,,,,,,,,,,,,,,,199858,18,2022-01-28_15h18.10.081,lexical_decision_task_DD_L5,2021.2.3,MacIntel,62.5,,,,,,,,,,,,0.807,0,,,,,,,,,,,,,,,,,,,,,,,,0.384444444,0.026666667,0,0,0,,,,,,,SWEAT,HB,z,y,./images/SWEATHB.png,,,,,,,m,0,0.807,,,,,,,,0,128,128,150,1
,,,,,,,,,,,,,,,,,199858,18,2022-01-28_15h18.10.081,lexical_decision_task_DD_L5,2021.2.3,MacIntel,62.5,,,,,,,,,,,,1.1,1,,,,,,,,,,,,,,,,,,,,,,,,0.384444444,0.026666667,0,0,0,,,,,,,COOKER,HB,z,y,./images/COOKERHB.png,,,,,,,z,1,1.1,,,,,,,,0,129,129,153,1
,,,,,,,,,,,,,,,,,199858,18,2022-01-28_15h18.10.081,lexical_decision_task_DD_L5,2021.2.3,MacIntel,62.5,,,,,,,,,,,,0.562,1,,,,,,,,,,,,,,,,,,,,,,,,0.384444444,0.026666667,0,0,0,,,,,,,MOTOR,LB,z,y,./images/MOTORLB.png,,,,,,,z,1,0.562,,,,,,,,0,130,130,97,1
,,,,,,,,,,,,,,,,,199858,18,2022-01-28_15h18.10.081,lexical_decision_task_DD_L5,2021.2.3,MacIntel,62.5,,,,,,,,,,,,0.994,0,,,,,,,,,,,,,,,,,,,,,,,,0.384444444,0.026666667,0,0,0,,,,,,,TORCH,C,z,y,./images/TORCH.png,,,,,,,m,0,0.994,,,,,,,,0,131,131,152,1
,,,,,,,,,,,,,,,,,199858,18,2022-01-28_15h18.10.081,lexical_decision_task_DD_L5,2021.2.3,MacIntel,62.5,,,,,,,,,,,,0.78,1,,,,,,,,,,,,,,,,,,,,,,,,0.384444444,0.026666667,0,0,0,,,,,,,PASTA,C,z,y,./images/PASTA.png,,,,,,,z,1,0.78,,,,,,,,0,132,132,89,1
,,,,,,,,,,,,,,,,,199858,18,2022-01-28_15h18.10.081,lexical_decision_task_DD_L5,2021.2.3,MacIntel,62.5,,,,,,,,,,,,0.72,0,,,,,,,,,,,,,,,,,,,,,,,,0.384444444,0.026666667,0,0,0,,,,,,,CANDY,HB,m,y,./images/CANDYHB.png,,,,,,,z,0,0.72,,,,,,,,0,133,133,39,1
,,,,,,,,,,,,,,,,,199858,18,2022-01-28_15h18.10.081,lexical_decision_task_DD_L5,2021.2.3,MacIntel,62.5,,,,,,,,,,,,0.732,0,,,,,,,,,,,,,,,,,,,,,,,,0.384444444,0.026666667,0,0,0,,,,,,,GARDEN,LB,m,y,./images/GARDENLB.png,,,,,,,z,0,0.732,,,,,,,,0,134,134,10,1
,,,,,,,,,,,,,,,,,199858,18,2022-01-28_15h18.10.081,lexical_decision_task_DD_L5,2021.2.3,MacIntel,62.5,,,,,,,,,,,,0.545,1,,,,,,,,,,,,,,,,,,,,,,,,0.384444444,0.026666667,0,0,0,,,,,,,TRIPOD,HB,z,y,./images/TRIPODHB.png,,,,,,,z,1,0.545,,,,,,,,0,135,135,138,1
,,,,,,,,,,,,,,,,,199858,18,2022-01-28_15h18.10.081,lexical_decision_task_DD_L5,2021.2.3,MacIntel,62.5,,,,,,,,,,,,0.631,0,,,,,,,,,,,,,,,,,,,,,,,,0.384444444,0.026666667,0,0,0,,,,,,,BOXER,LB,m,y,./images/BOXERLB.png,,,,,,,z,0,0.631,,,,,,,,0,136,136,4,1
,,,,,,,,,,,,,,,,,199858,18,2022-01-28_15h18.10.081,lexical_decision_task_DD_L5,2021.2.3,MacIntel,62.5,,,,,,,,,,,,0.604,1,,,,,,,,,,,,,,,,,,,,,,,,0.384444444,0.026666667,0,0,0,,,,,,,PICKLE,C,z,y,./images/PICKLE.png,,,,,,,z,1,0.604,,,,,,,,0,137,137,98,1
,,,,,,,,,,,,,,,,,199858,18,2022-01-28_15h18.10.081,lexical_decision_task_DD_L5,2021.2.3,MacIntel,62.5,,,,,,,,,,,,0.508,1,,,,,,,,,,,,,,,,,,,,,,,,0.384444444,0.026666667,0,0,0,,,,,,,JELLY,LB,z,y,./images/JELLYLB.png,,,,,,,z,1,0.508,,,,,,,,0,138,138,148,1
,,,,,,,,,,,,,,,,,199858,18,2022-01-28_15h18.10.081,lexical_decision_task_DD_L5,2021.2.3,MacIntel,62.5,,,,,,,,,,,,0.646,0,,,,,,,,,,,,,,,,,,,,,,,,0.384444444,0.026666667,0,0,0,,,,,,,PLANET,C,m,y,./images/PLANET.png,,,,,,,z,0,0.646,,,,,,,,0,139,139,80,1
,,,,,,,,,,,,,,,,,199858,18,2022-01-28_15h18.10.081,lexical_decision_task_DD_L5,2021.2.3,MacIntel,62.5,,,,,,,,,,,,0.532,1,,,,,,,,,,,,,,,,,,,,,,,,0.384444444,0.026666667,0,0,0,,,,,,,JAGUAR,HB,z,y,./images/JAGUARHB.png,,,,,,,z,1,0.532,,,,,,,,0,140,140,102,1
,,,,,,,,,,,,,,,,,199858,18,2022-01-28_15h18.10.081,lexical_decision_task_DD_L5,2021.2.3,MacIntel,62.5,,,,,,,,,,,,0.479,1,,,,,,,,,,,,,,,,,,,,,,,,0.384444444,0.026666667,0,0,0,,,,,,,SCREW,HB,z,y,./images/SCREWHB.png,,,,,,,z,1,0.479,,,,,,,,0,141,141,108,1
,,,,,,,,,,,,,,,,,199858,18,2022-01-28_15h18.10.081,lexical_decision_task_DD_L5,2021.2.3,MacIntel,62.5,,,,,,,,,,,,0.656,1,,,,,,,,,,,,,,,,,,,,,,,,0.384444444,0.026666667,0,0,0,,,,,,,BISHOP,LB,m,y,./images/BISHOPLB.png,,,,,,,m,1,0.656,,,,,,,,0,142,142,49,1
,,,,,,,,,,,,,,,,,199858,18,2022-01-28_15h18.10.081,lexical_decision_task_DD_L5,2021.2.3,MacIntel,62.5,,,,,,,,,,,,0.709,1,,,,,,,,,,,,,,,,,,,,,,,,0.384444444,0.026666667,0,0,0,,,,,,,FLASK,HB,m,y,./images/FLASKHB.png,,,,,,,m,1,0.709,,,,,,,,0,143,143,72,1
,,,,,,,,,,,,,,,,,199858,18,2022-01-28_15h18.10.081,lexical_decision_task_DD_L5,2021.2.3,MacIntel,62.5,,,,,,,,,,,,0.798,0,,,,,,,,,,,,,,,,,,,,,,,,0.384444444,0.026666667,0,0,0,,,,,,,WALNUT,HB,m,y,./images/WALNUTHB.png,,,,,,,z,0,0.798,,,,,,,,0,144,144,0,1
,,,,,,,,,,,,,,,,,199858,18,2022-01-28_15h18.10.081,lexical_decision_task_DD_L5,2021.2.3,MacIntel,62.5,,,,,,,,,,,,0.63,1,,,,,,,,,,,,,,,,,,,,,,,,0.384444444,0.026666667,0,0,0,,,,,,,PAINT,LB,z,y,./images/PAINTLB.png,,,,,,,z,1,0.63,,,,,,,,0,145,145,91,1
,,,,,,,,,,,,,,,,,199858,18,2022-01-28_15h18.10.081,lexical_decision_task_DD_L5,2021.2.3,MacIntel,62.5,,,,,,,,,,,,1.356,0,,,,,,,,,,,,,,,,,,,,,,,,0.384444444,0.026666667,0,0,0,,,,,,,WHEEL,C,m,y,./images/WHEEL.png,,,,,,,z,0,1.356,,,,,,,,0,146,146,77,1
,,,,,,,,,,,,,,,,,199858,18,2022-01-28_15h18.10.081,lexical_decision_task_DD_L5,2021.2.3,MacIntel,62.5,,,,,,,,,,,,0.756,1,,,,,,,,,,,,,,,,,,,,,,,,0.384444444,0.026666667,0,0,0,,,,,,,POKER,LB,m,y,./images/POKERLB.png,,,,,,,m,1,0.756,,,,,,,,0,147,147,67,1
,,,,,,,,,,,,,,,,,199858,18,2022-01-28_15h18.10.081,lexical_decision_task_DD_L5,2021.2.3,MacIntel,62.5,,,,,,,,,,,,0.833,1,,,,,,,,,,,,,,,,,,,,,,,,0.384444444,0.026666667,0,0,0,,,,,,,LITTER,HB,z,y,./images/LITTERHB.png,,,,,,,z,1,0.833,,,,,,,,0,148,148,162,1
,,,,,,,,,,,,,,,,,199858,18,2022-01-28_15h18.10.081,lexical_decision_task_DD_L5,2021.2.3,MacIntel,62.5,,,,,,,,,,,,1.13,1,,,,,,,,,,,,,,,,,,,,,,,,0.384444444,0.026666667,0,0,0,,,,,,,DESERT,LB,m,y,./images/DESERTLB.png,,,,,,,m,1,1.13,,,,,,,,0,149,149,52,1
,,,,,,,,,,,,,,,,,199858,18,2022-01-28_15h18.10.081,lexical_decision_task_DD_L5,2021.2.3,MacIntel,62.5,,,,,,,,,,,,0.901,1,,,,,,,,,,,,,,,,,,,,,,,,0.384444444,0.026666667,0,0,0,,,,,,,BIRTH,LB,z,y,./images/BIRTHLB.png,,,,,,,z,1,0.901,,,,,,,,0,150,150,121,1
,,,,,,,,,,,,,,,,,199858,18,2022-01-28_15h18.10.081,lexical_decision_task_DD_L5,2021.2.3,MacIntel,62.5,,,,,,,,,,,,1.676,0,,,,,,,,,,,,,,,,,,,,,,,,0.384444444,0.026666667,0,0,0,,,,,,,PIMPLE,C,z,y,./images/PIMPLE.png,,,,,,,m,0,1.676,,,,,,,,0,151,151,155,1
,,,,,,,,,,,,,,,,,199858,18,2022-01-28_15h18.10.081,lexical_decision_task_DD_L5,2021.2.3,MacIntel,62.5,,,,,,,,,,,,1.112,0,,,,,,,,,,,,,,,,,,,,,,,,0.384444444,0.026666667,0,0,0,,,,,,,STEAK,LB,m,y,./images/STEAKLB.png,,,,,,,z,0,1.112,,,,,,,,0,152,152,31,1
,,,,,,,,,,,,,,,,,199858,18,2022-01-28_15h18.10.081,lexical_decision_task_DD_L5,2021.2.3,MacIntel,62.5,,,,,,,,,,,,0.649,0,,,,,,,,,,,,,,,,,,,,,,,,0.384444444,0.026666667,0,0,0,,,,,,,BLOKE,HB,m,y,./images/BLOKEHB.png,,,,,,,z,0,0.649,,,,,,,,0,153,153,12,1
,,,,,,,,,,,,,,,,,199858,18,2022-01-28_15h18.10.081,lexical_decision_task_DD_L5,2021.2.3,MacIntel,62.5,,,,,,,,,,,,1.123,1,,,,,,,,,,,,,,,,,,,,,,,,0.384444444,0.026666667,0,0,0,,,,,,,BUBBLE,C,m,y,./images/BUBBLE.png,,,,,,,m,1,1.123,,,,,,,,0,154,154,71,1
,,,,,,,,,,,,,,,,,199858,18,2022-01-28_15h18.10.081,lexical_decision_task_DD_L5,2021.2.3,MacIntel,62.5,,,,,,,,,,,,0.957,1,,,,,,,,,,,,,,,,,,,,,,,,0.384444444,0.026666667,0,0,0,,,,,,,FERRY,HB,m,y,./images/FERRYHB.png,,,,,,,m,1,0.957,,,,,,,,0,155,155,57,1
,,,,,,,,,,,,,,,,,199858,18,2022-01-28_15h18.10.081,lexical_decision_task_DD_L5,2021.2.3,MacIntel,62.5,,,,,,,,,,,,0.671,1,,,,,,,,,,,,,,,,,,,,,,,,0.384444444,0.026666667,0,0,0,,,,,,,CLOWN,LB,m,y,./images/CLOWNLB.png,,,,,,,m,1,0.671,,,,,,,,0,156,156,22,1
,,,,,,,,,,,,,,,,,199858,18,2022-01-28_15h18.10.081,lexical_decision_task_DD_L5,2021.2.3,MacIntel,62.5,,,,,,,,,,,,1.032,1,,,,,,,,,,,,,,,,,,,,,,,,0.384444444,0.026666667,0,0,0,,,,,,,WALRUS,C,z,y,./images/WALRUS.png,,,,,,,z,1,1.032,,,,,,,,0,157,157,107,1
,,,,,,,,,,,,,,,,,199858,18,2022-01-28_15h18.10.081,lexical_decision_task_DD_L5,2021.2.3,MacIntel,62.5,,,,,,,,,,,,1.03,1,,,,,,,,,,,,,,,,,,,,,,,,0.384444444,0.026666667,0,0,0,,,,,,,MAMMAL,C,m,y,./images/MAMMAL.png,,,,,,,m,1,1.03,,,,,,,,0,158,158,62,1
,,,,,,,,,,,,,,,,,199858,18,2022-01-28_15h18.10.081,lexical_decision_task_DD_L5,2021.2.3,MacIntel,62.5,,,,,,,,,,,,0.798,0,,,,,,,,,,,,,,,,,,,,,,,,0.384444444,0.026666667,0,0,0,,,,,,,KITTEN,HB,z,y,./images/KITTENHB.png,,,,,,,m,0,0.798,,,,,,,,0,159,159,129,1
,,,,,,,,,,,,,,,,,199858,18,2022-01-28_15h18.10.081,lexical_decision_task_DD_L5,2021.2.3,MacIntel,62.5,,,,,,,,,,,,1.001,1,,,,,,,,,,,,,,,,,,,,,,,,0.384444444,0.026666667,0,0,0,,,,,,,STAIN,HB,m,y,./images/STAINHB.png,,,,,,,m,1,1.001,,,,,,,,0,160,160,6,1
,,,,,,,,,,,,,,,,,199858,18,2022-01-28_15h18.10.081,lexical_decision_task_DD_L5,2021.2.3,MacIntel,62.5,,,,,,,,,,,,0.773,1,,,,,,,,,,,,,,,,,,,,,,,,0.384444444,0.026666667,0,0,0,,,,,,,KIDNEY,HB,z,y,./images/KIDNEYHB.png,,,,,,,z,1,0.773,,,,,,,,0,161,161,105,1
,,,,,,,,,,,,,,,,,199858,18,2022-01-28_15h18.10.081,lexical_decision_task_DD_L5,2021.2.3,MacIntel,62.5,,,,,,,,,,,,1.141,1,,,,,,,,,,,,,,,,,,,,,,,,0.384444444,0.026666667,0,0,0,,,,,,,CRUMB,C,z,y,./images/CRUMB.png,,,,,,,z,1,1.141,,,,,,,,0,162,162,113,1
,,,,,,,,,,,,,,,,,199858,18,2022-01-28_15h18.10.081,lexical_decision_task_DD_L5,2021.2.3,MacIntel,62.5,,,,,,,,,,,,0.538,1,,,,,,,,,,,,,,,,,,,,,,,,0.384444444,0.026666667,0,0,0,,,,,,,MALLET,C,z,y,./images/MALLET.png,,,,,,,z,1,0.538,,,,,,,,0,163,163,134,1
,,,,,,,,,,,,,,,,,199858,18,2022-01-28_15h18.10.081,lexical_decision_task_DD_L5,2021.2.3,MacIntel,62.5,,,,,,,,,,,,1.375,0,,,,,,,,,,,,,,,,,,,,,,,,0.384444444,0.026666667,0,0,0,,,,,,,LADDER,C,z,y,./images/LADDER.png,,,,,,,m,0,1.375,,,,,,,,0,164,164,122,1
,,,,,,,,,,,,,,,,,199858,18,2022-01-28_15h18.10.081,lexical_decision_task_DD_L5,2021.2.3,MacIntel,62.5,,,,,,,,,,,,0.711,0,,,,,,,,,,,,,,,,,,,,,,,,0.384444444,0.026666667,0,0,0,,,,,,,ONION,HB,z,y,./images/ONIONHB.png,,,,,,,m,0,0.711,,,,,,,,0,165,165,135,1
,,,,,,,,,,,,,,,,,199858,18,2022-01-28_15h18.10.081,lexical_decision_task_DD_L5,2021.2.3,MacIntel,62.5,,,,,,,,,,,,0.706,1,,,,,,,,,,,,,,,,,,,,,,,,0.384444444,0.026666667,0,0,0,,,,,,,POODLE,HB,z,y,./images/POODLEHB.png,,,,,,,z,1,0.706,,,,,,,,0,166,166,165,1
,,,,,,,,,,,,,,,,,199858,18,2022-01-28_15h18.10.081,lexical_decision_task_DD_L5,2021.2.3,MacIntel,62.5,,,,,,,,,,,,2.013,0,,,,,,,,,,,,,,,,,,,,,,,,0.384444444,0.026666667,0,0,0,,,,,,,CLOTH,C,m,y,./images/CLOTH.png,,,,,,,z,0,2.013,,,,,,,,0,167,167,23,1
