key_resp.keys,instr_done_touch.x,instr_done_touch.y,instr_done_touch.leftButton,instr_done_touch.midButton,instr_done_touch.rightButton,instr_done_touch.clicked_name,instruction_pages.thisRepN,instruction_pages.thisTrialN,instruction_pages.thisN,instruction_pages.thisIndex,instruction_pages.ran,pageN,phase,instruct_text,has_image,instruct_image,participant,age,date,expName,psychopyVersion,OS,frameRate,key_resp.rt,response.keys,response.corr,response.rt,touch_resp.x,touch_resp.y,touch_resp.leftButton,touch_resp.midButton,touch_resp.rightButton,touch_resp.time,touch_resp.clicked_name,rt,corr,practrials.thisRepN,practrials.thisTrialN,practrials.thisN,practrials.thisIndex,practrials.ran,TrialID,Target,corrAns,end_of_practice_trials_pages.thisRepN,end_of_practice_trials_pages.thisTrialN,end_of_practice_trials_pages.thisN,end_of_practice_trials_pages.thisIndex,end_of_practice_trials_pages.ran,key_resp_2.keys,key_resp_2.corr,key_resp_2.rt,targ_click.x,targ_click.y,targ_click.leftButton,targ_click.midButton,targ_click.rightButton,targ_click.time,targ_click.clicked_name,break_done_touch.x,break_done_touch.y,break_done_touch.leftButton,break_done_touch.midButton,break_done_touch.rightButton,break_done_keyboard.keys,maintrials.thisRepN,maintrials.thisTrialN,maintrials.thisN,maintrials.thisIndex,maintrials.ran,string,blur,study,lex,stim_path,break_done_keyboard.rt,break_done_touch.clicked_name,test_instructions.thisRepN,test_instructions.thisTrialN,test_instructions.thisN,test_instructions.thisIndex,test_instructions.ran,key_resp_3.keys,key_resp_3.corr,key_resp_3.rt,test_click.x,test_click.y,test_click.leftButton,test_click.midButton,test_click.rightButton,test_click.time,test_click.clicked_name,test_phase.thisRepN,test_phase.thisTrialN,test_phase.thisN,test_phase.thisIndex,test_phase.ran
,0.02962963,-0.405555556,1,0,0,instr_done_button,0,0,0,0,1,1,instructions,"INSTRUCTIONS
At the start of each trial, look at the plus sign  (+) in the center of the screen.  This tells you that a trial is about to begin and where to look. Second, the plus sign will disappear and a string of letters will appear. Your task is to determine if the string of letters is a word or not. If the item is a word press the M key (on keyboard)  or touch the word button (phone/tablet).  If the item is not a word,  press the  Z key (on keyboard)  or touch the nonword button (on phone/tablet). 
Press the space bar or touch  continue.",0,,199855,,2022-01-28_15h55.26.810,lexical_decision_task_DD_L2,2021.2.3,Linux x86_64,61.88118812,,,,,,,,,,,,,,,,,,,,,,,,,,,,,,,,,,,,,,,,,,,,,,,,,,,,,,,,,,,,,,,,,,,,,,,,,,
,0.02962963,-0.405555556,1,0,0,instr_done_button,0,1,1,1,1,2,instructions,"If your device has a keyboard, press the 'Z' key for nonwords and the 'M' key for words.





Press the space bar or touch the button below to continue.",0,keyboard-example.gif,199855,,2022-01-28_15h55.26.810,lexical_decision_task_DD_L2,2021.2.3,Linux x86_64,61.88118812,,,,,,,,,,,,,,,,,,,,,,,,,,,,,,,,,,,,,,,,,,,,,,,,,,,,,,,,,,,,,,,,,,,,,,,,,,
space,0.02962963,-0.405555556,0,0,0,,0,2,2,2,1,3,instructions,"If you are using a touchscreen only device, use the buttons on the screen. Do not use the mouse.





Press the space bar or touch the button below to continue.",0,touchscreen-example.gif,199855,,2022-01-28_15h55.26.810,lexical_decision_task_DD_L2,2021.2.3,Linux x86_64,61.88118812,8.453,,,,,,,,,,,,,,,,,,,,,,,,,,,,,,,,,,,,,,,,,,,,,,,,,,,,,,,,,,,,,,,,,,,,,,,,,
space,0.02962963,-0.405555556,0,0,0,,0,3,3,3,1,4,instructions,"It is very important that you respond as quickly and accurately as possible, as each letter string will only be on the screen for two seconds. If you do not respond within this time, the message 'Too slow!' will be displayed and the experiment will progress to the next letter string. The first 20 trials will be practice trials and you will receive feedback on your answers. 

Press the space bar or touch the button below to start the practice trials.",0,,199855,,2022-01-28_15h55.26.810,lexical_decision_task_DD_L2,2021.2.3,Linux x86_64,61.88118812,11.143,,,,,,,,,,,,,,,,,,,,,,,,,,,,,,,,,,,,,,,,,,,,,,,,,,,,,,,,,,,,,,,,,,,,,,,,,
,,,,,,,,,,,,,,,,,199855,,2022-01-28_15h55.26.810,lexical_decision_task_DD_L2,2021.2.3,Linux x86_64,61.88118812,,m,1,0.793,,,,,,,,0.793,1,0,0,0,1,1,1001,ADJUST,m,,,,,,,,,,,,,,,,,,,,,,,,,,,,,,,,,,,,,,,,,,,,,,,,,,,,,
,,,,,,,,,,,,,,,,,199855,,2022-01-28_15h55.26.810,lexical_decision_task_DD_L2,2021.2.3,Linux x86_64,61.88118812,,z,0,1.206,,,,,,,,1.206,0,0,1,1,0,1,1001,UTOPIA,m,,,,,,,,,,,,,,,,,,,,,,,,,,,,,,,,,,,,,,,,,,,,,,,,,,,,,
,,,,,,,,,,,,,,,,,199855,,2022-01-28_15h55.26.810,lexical_decision_task_DD_L2,2021.2.3,Linux x86_64,61.88118812,,z,1,1.17,,,,,,,,1.17,1,0,2,2,14,1,1001,THRALE,z,,,,,,,,,,,,,,,,,,,,,,,,,,,,,,,,,,,,,,,,,,,,,,,,,,,,,
,,,,,,,,,,,,,,,,,199855,,2022-01-28_15h55.26.810,lexical_decision_task_DD_L2,2021.2.3,Linux x86_64,61.88118812,,z,1,1.539,,,,,,,,1.539,1,0,3,3,10,1,1001,INLADE,z,,,,,,,,,,,,,,,,,,,,,,,,,,,,,,,,,,,,,,,,,,,,,,,,,,,,,
,,,,,,,,,,,,,,,,,199855,,2022-01-28_15h55.26.810,lexical_decision_task_DD_L2,2021.2.3,Linux x86_64,61.88118812,,m,1,0.737,,,,,,,,0.737,1,0,4,4,5,1,1001,OBTAIN,m,,,,,,,,,,,,,,,,,,,,,,,,,,,,,,,,,,,,,,,,,,,,,,,,,,,,,
,,,,,,,,,,,,,,,,,199855,,2022-01-28_15h55.26.810,lexical_decision_task_DD_L2,2021.2.3,Linux x86_64,61.88118812,,z,1,0.912,,,,,,,,0.912,1,0,5,5,13,1,1001,ROUPET,z,,,,,,,,,,,,,,,,,,,,,,,,,,,,,,,,,,,,,,,,,,,,,,,,,,,,,
,,,,,,,,,,,,,,,,,199855,,2022-01-28_15h55.26.810,lexical_decision_task_DD_L2,2021.2.3,Linux x86_64,61.88118812,,z,1,0.849,,,,,,,,0.849,1,0,6,6,8,1,1001,ASLERT,z,,,,,,,,,,,,,,,,,,,,,,,,,,,,,,,,,,,,,,,,,,,,,,,,,,,,,
,,,,,,,,,,,,,,,,,199855,,2022-01-28_15h55.26.810,lexical_decision_task_DD_L2,2021.2.3,Linux x86_64,61.88118812,,m,1,0.597,,,,,,,,0.597,1,0,7,7,7,1,1001,VOLUME,m,,,,,,,,,,,,,,,,,,,,,,,,,,,,,,,,,,,,,,,,,,,,,,,,,,,,,
,,,,,,,,,,,,,,,,,199855,,2022-01-28_15h55.26.810,lexical_decision_task_DD_L2,2021.2.3,Linux x86_64,61.88118812,,m,1,0.765,,,,,,,,0.765,1,0,8,8,4,1,1001,SQUEAK,m,,,,,,,,,,,,,,,,,,,,,,,,,,,,,,,,,,,,,,,,,,,,,,,,,,,,,
,,,,,,,,,,,,,,,,,199855,,2022-01-28_15h55.26.810,lexical_decision_task_DD_L2,2021.2.3,Linux x86_64,61.88118812,,z,1,1.056,,,,,,,,1.056,1,0,9,9,11,1,1001,RASHET,z,,,,,,,,,,,,,,,,,,,,,,,,,,,,,,,,,,,,,,,,,,,,,,,,,,,,,
,,,,,,,,,,,,,,,,,199855,,2022-01-28_15h55.26.810,lexical_decision_task_DD_L2,2021.2.3,Linux x86_64,61.88118812,,z,1,0.772,,,,,,,,0.772,1,0,10,10,15,1,1001,WHAISE,z,,,,,,,,,,,,,,,,,,,,,,,,,,,,,,,,,,,,,,,,,,,,,,,,,,,,,
,,,,,,,,,,,,,,,,,199855,,2022-01-28_15h55.26.810,lexical_decision_task_DD_L2,2021.2.3,Linux x86_64,61.88118812,,z,1,1.013,,,,,,,,1.013,1,0,11,11,12,1,1001,SPRINY,z,,,,,,,,,,,,,,,,,,,,,,,,,,,,,,,,,,,,,,,,,,,,,,,,,,,,,
,,,,,,,,,,,,,,,,,199855,,2022-01-28_15h55.26.810,lexical_decision_task_DD_L2,2021.2.3,Linux x86_64,61.88118812,,m,1,0.61,,,,,,,,0.61,1,0,12,12,2,1,1001,ALMOND,m,,,,,,,,,,,,,,,,,,,,,,,,,,,,,,,,,,,,,,,,,,,,,,,,,,,,,
,,,,,,,,,,,,,,,,,199855,,2022-01-28_15h55.26.810,lexical_decision_task_DD_L2,2021.2.3,Linux x86_64,61.88118812,,z,1,0.751,,,,,,,,0.751,1,0,13,13,9,1,1001,FARINY,z,,,,,,,,,,,,,,,,,,,,,,,,,,,,,,,,,,,,,,,,,,,,,,,,,,,,,
,,,,,,,,,,,,,,,,,199855,,2022-01-28_15h55.26.810,lexical_decision_task_DD_L2,2021.2.3,Linux x86_64,61.88118812,,m,1,0.964,,,,,,,,0.964,1,0,14,14,6,1,1001,ZOMBIE,m,,,,,,,,,,,,,,,,,,,,,,,,,,,,,,,,,,,,,,,,,,,,,,,,,,,,,
,,,,,,,,,,,,,,,,,199855,,2022-01-28_15h55.26.810,lexical_decision_task_DD_L2,2021.2.3,Linux x86_64,61.88118812,,m,1,0.861,,,,,,,,0.861,1,0,15,15,3,1,1001,MATRIX,m,,,,,,,,,,,,,,,,,,,,,,,,,,,,,,,,,,,,,,,,,,,,,,,,,,,,,
space,0.02962963,-0.405555556,0,0,0,,,,,,,1,end_of_practice,"You have completed the practice trials. During the experimental trials, you will not receive feedback. 
Before you begin, please ensure that you are in a comfortable and quiet location and will not be disturbed for about 15 minutes, as we cannot use your data if you do not complete all the trials. 
 When you are ready to start the experimental trials, please press space or touch the button below.",,,199855,,2022-01-28_15h55.26.810,lexical_decision_task_DD_L2,2021.2.3,Linux x86_64,61.88118812,8.769,,,,,,,,,,,,,,,,,,,,,0,0,0,0,1,,,,,,,,,,,,,,,,,,,,,,,,,,,,,,,,,,,,,,,,,,,,,,,,
,,,,,,,,,,,,,,,,,199855,,2022-01-28_15h55.26.810,lexical_decision_task_DD_L2,2021.2.3,Linux x86_64,61.88118812,,,,,,,,,,,,1.78,1,,,,,,,,,,,,,,z,1,1.78,,,,,,,,0.02962963,-0.405555556,0,0,0,,0,0,0,85,1,CHULK,HB,old,z,./images/CHULKHB.png,,,,,,,,,,,,,,,,,,,,,,
,,,,,,,,,,,,,,,,,199855,,2022-01-28_15h55.26.810,lexical_decision_task_DD_L2,2021.2.3,Linux x86_64,61.88118812,,,,,,,,,,,,0.694,1,,,,,,,,,,,,,,m,1,0.694,,,,,,,,0.02962963,-0.405555556,0,0,0,,0,1,1,36,1,THROAT,HB,old,m,./images/THROATHB.png,,,,,,,,,,,,,,,,,,,,,,
,,,,,,,,,,,,,,,,,199855,,2022-01-28_15h55.26.810,lexical_decision_task_DD_L2,2021.2.3,Linux x86_64,61.88118812,,,,,,,,,,,,1.017,1,,,,,,,,,,,,,,z,1,1.017,,,,,,,,0.02962963,-0.405555556,0,0,0,,0,2,2,163,1,GAMBA,HB,old,z,./images/GAMBAHB.png,,,,,,,,,,,,,,,,,,,,,,
,,,,,,,,,,,,,,,,,199855,,2022-01-28_15h55.26.810,lexical_decision_task_DD_L2,2021.2.3,Linux x86_64,61.88118812,,,,,,,,,,,,0.952,1,,,,,,,,,,,,,,z,1,0.952,,,,,,,,0.02962963,-0.405555556,0,0,0,,0,3,3,103,1,FLORT,HB,old,z,./images/FLORTHB.png,,,,,,,,,,,,,,,,,,,,,,
,,,,,,,,,,,,,,,,,199855,,2022-01-28_15h55.26.810,lexical_decision_task_DD_L2,2021.2.3,Linux x86_64,61.88118812,,,,,,,,,,,,0.753,1,,,,,,,,,,,,,,m,1,0.753,,,,,,,,0.02962963,-0.405555556,0,0,0,,0,4,4,47,1,BERRY,C,old,m,./images/BERRY.png,,,,,,,,,,,,,,,,,,,,,,
,,,,,,,,,,,,,,,,,199855,,2022-01-28_15h55.26.810,lexical_decision_task_DD_L2,2021.2.3,Linux x86_64,61.88118812,,,,,,,,,,,,0.998,1,,,,,,,,,,,,,,m,1,0.998,,,,,,,,0.02962963,-0.405555556,0,0,0,,0,5,5,43,1,MOSQUE,LB,old,m,./images/MOSQUELB.png,,,,,,,,,,,,,,,,,,,,,,
,,,,,,,,,,,,,,,,,199855,,2022-01-28_15h55.26.810,lexical_decision_task_DD_L2,2021.2.3,Linux x86_64,61.88118812,,,,,,,,,,,,0.667,1,,,,,,,,,,,,,,z,1,0.667,,,,,,,,0.02962963,-0.405555556,0,0,0,,0,6,6,132,1,SCIFF,C,old,z,./images/SCIFF.png,,,,,,,,,,,,,,,,,,,,,,
,,,,,,,,,,,,,,,,,199855,,2022-01-28_15h55.26.810,lexical_decision_task_DD_L2,2021.2.3,Linux x86_64,61.88118812,,,,,,,,,,,,0.773,1,,,,,,,,,,,,,,z,1,0.773,,,,,,,,0.02962963,-0.405555556,0,0,0,,0,7,7,146,1,MOOST,LB,old,z,./images/MOOSTLB.png,,,,,,,,,,,,,,,,,,,,,,
,,,,,,,,,,,,,,,,,199855,,2022-01-28_15h55.26.810,lexical_decision_task_DD_L2,2021.2.3,Linux x86_64,61.88118812,,,,,,,,,,,,0.582,1,,,,,,,,,,,,,,m,1,0.582,,,,,,,,0.02962963,-0.405555556,0,0,0,,0,8,8,2,1,BEARD,C,old,m,./images/BEARD.png,,,,,,,,,,,,,,,,,,,,,,
,,,,,,,,,,,,,,,,,199855,,2022-01-28_15h55.26.810,lexical_decision_task_DD_L2,2021.2.3,Linux x86_64,61.88118812,,,,,,,,,,,,0.566,1,,,,,,,,,,,,,,z,1,0.566,,,,,,,,0.02962963,-0.405555556,0,0,0,,0,9,9,147,1,ZOLES,C,old,z,./images/ZOLES.png,,,,,,,,,,,,,,,,,,,,,,
,,,,,,,,,,,,,,,,,199855,,2022-01-28_15h55.26.810,lexical_decision_task_DD_L2,2021.2.3,Linux x86_64,61.88118812,,,,,,,,,,,,0.624,1,,,,,,,,,,,,,,m,1,0.624,,,,,,,,0.02962963,-0.405555556,0,0,0,,0,10,10,5,1,PASTA,C,old,m,./images/PASTA.png,,,,,,,,,,,,,,,,,,,,,,
,,,,,,,,,,,,,,,,,199855,,2022-01-28_15h55.26.810,lexical_decision_task_DD_L2,2021.2.3,Linux x86_64,61.88118812,,,,,,,,,,,,0.752,1,,,,,,,,,,,,,,m,1,0.752,,,,,,,,0.02962963,-0.405555556,0,0,0,,0,11,11,51,1,ONION,HB,old,m,./images/ONIONHB.png,,,,,,,,,,,,,,,,,,,,,,
,,,,,,,,,,,,,,,,,199855,,2022-01-28_15h55.26.810,lexical_decision_task_DD_L2,2021.2.3,Linux x86_64,61.88118812,,,,,,,,,,,,0.772,1,,,,,,,,,,,,,,m,1,0.772,,,,,,,,0.02962963,-0.405555556,0,0,0,,0,12,12,26,1,SMOKER,C,old,m,./images/SMOKER.png,,,,,,,,,,,,,,,,,,,,,,
,,,,,,,,,,,,,,,,,199855,,2022-01-28_15h55.26.810,lexical_decision_task_DD_L2,2021.2.3,Linux x86_64,61.88118812,,,,,,,,,,,,0.702,1,,,,,,,,,,,,,,z,1,0.702,,,,,,,,0.02962963,-0.405555556,0,0,0,,0,13,13,101,1,GLEET,LB,old,z,./images/GLEETLB.png,,,,,,,,,,,,,,,,,,,,,,
,,,,,,,,,,,,,,,,,199855,,2022-01-28_15h55.26.810,lexical_decision_task_DD_L2,2021.2.3,Linux x86_64,61.88118812,,,,,,,,,,,,1.224,1,,,,,,,,,,,,,,m,1,1.224,,,,,,,,0.02962963,-0.405555556,0,0,0,,0,14,14,17,1,SKIING,C,old,m,./images/SKIING.png,,,,,,,,,,,,,,,,,,,,,,
,,,,,,,,,,,,,,,,,199855,,2022-01-28_15h55.26.810,lexical_decision_task_DD_L2,2021.2.3,Linux x86_64,61.88118812,,,,,,,,,,,,0.603,1,,,,,,,,,,,,,,m,1,0.603,,,,,,,,0.02962963,-0.405555556,0,0,0,,0,15,15,4,1,MUSCLE,LB,old,m,./images/MUSCLELB.png,,,,,,,,,,,,,,,,,,,,,,
,,,,,,,,,,,,,,,,,199855,,2022-01-28_15h55.26.810,lexical_decision_task_DD_L2,2021.2.3,Linux x86_64,61.88118812,,,,,,,,,,,,1.352,1,,,,,,,,,,,,,,z,1,1.352,,,,,,,,0.02962963,-0.405555556,0,0,0,,0,16,16,97,1,CHIDS,HB,old,z,./images/CHIDSHB.png,,,,,,,,,,,,,,,,,,,,,,
,,,,,,,,,,,,,,,,,199855,,2022-01-28_15h55.26.810,lexical_decision_task_DD_L2,2021.2.3,Linux x86_64,61.88118812,,,,,,,,,,,,0.949,1,,,,,,,,,,,,,,z,1,0.949,,,,,,,,0.02962963,-0.405555556,0,0,0,,0,17,17,166,1,SHORY,HB,old,z,./images/SHORYHB.png,,,,,,,,,,,,,,,,,,,,,,
,,,,,,,,,,,,,,,,,199855,,2022-01-28_15h55.26.810,lexical_decision_task_DD_L2,2021.2.3,Linux x86_64,61.88118812,,,,,,,,,,,,0.82,1,,,,,,,,,,,,,,z,1,0.82,,,,,,,,0.02962963,-0.405555556,0,0,0,,0,18,18,123,1,SEDGE,C,old,z,./images/SEDGE.png,,,,,,,,,,,,,,,,,,,,,,
,,,,,,,,,,,,,,,,,199855,,2022-01-28_15h55.26.810,lexical_decision_task_DD_L2,2021.2.3,Linux x86_64,61.88118812,,,,,,,,,,,,0.787,1,,,,,,,,,,,,,,m,1,0.787,,,,,,,,0.02962963,-0.405555556,0,0,0,,0,19,19,79,1,CRUST,LB,old,m,./images/CRUSTLB.png,,,,,,,,,,,,,,,,,,,,,,
,,,,,,,,,,,,,,,,,199855,,2022-01-28_15h55.26.810,lexical_decision_task_DD_L2,2021.2.3,Linux x86_64,61.88118812,,,,,,,,,,,,0.682,1,,,,,,,,,,,,,,m,1,0.682,,,,,,,,0.02962963,-0.405555556,0,0,0,,0,20,20,71,1,PIMPLE,C,old,m,./images/PIMPLE.png,,,,,,,,,,,,,,,,,,,,,,
,,,,,,,,,,,,,,,,,199855,,2022-01-28_15h55.26.810,lexical_decision_task_DD_L2,2021.2.3,Linux x86_64,61.88118812,,,,,,,,,,,,1.485,1,,,,,,,,,,,,,,z,1,1.485,,,,,,,,0.02962963,-0.405555556,0,0,0,,0,21,21,112,1,MYING,HB,old,z,./images/MYINGHB.png,,,,,,,,,,,,,,,,,,,,,,
,,,,,,,,,,,,,,,,,199855,,2022-01-28_15h55.26.810,lexical_decision_task_DD_L2,2021.2.3,Linux x86_64,61.88118812,,,,,,,,,,,,0.589,1,,,,,,,,,,,,,,m,1,0.589,,,,,,,,0.02962963,-0.405555556,0,0,0,,0,22,22,82,1,SUNSET,LB,old,m,./images/SUNSETLB.png,,,,,,,,,,,,,,,,,,,,,,
,,,,,,,,,,,,,,,,,199855,,2022-01-28_15h55.26.810,lexical_decision_task_DD_L2,2021.2.3,Linux x86_64,61.88118812,,,,,,,,,,,,0.687,1,,,,,,,,,,,,,,z,1,0.687,,,,,,,,0.02962963,-0.405555556,0,0,0,,0,23,23,144,1,NAIRY,C,old,z,./images/NAIRY.png,,,,,,,,,,,,,,,,,,,,,,
,,,,,,,,,,,,,,,,,199855,,2022-01-28_15h55.26.810,lexical_decision_task_DD_L2,2021.2.3,Linux x86_64,61.88118812,,,,,,,,,,,,0.543,1,,,,,,,,,,,,,,m,1,0.543,,,,,,,,0.02962963,-0.405555556,0,0,0,,0,24,24,68,1,TORCH,C,old,m,./images/TORCH.png,,,,,,,,,,,,,,,,,,,,,,
,,,,,,,,,,,,,,,,,199855,,2022-01-28_15h55.26.810,lexical_decision_task_DD_L2,2021.2.3,Linux x86_64,61.88118812,,,,,,,,,,,,0.582,1,,,,,,,,,,,,,,m,1,0.582,,,,,,,,0.02962963,-0.405555556,0,0,0,,0,25,25,56,1,PACKET,C,old,m,./images/PACKET.png,,,,,,,,,,,,,,,,,,,,,,
,,,,,,,,,,,,,,,,,199855,,2022-01-28_15h55.26.810,lexical_decision_task_DD_L2,2021.2.3,Linux x86_64,61.88118812,,,,,,,,,,,,0.756,1,,,,,,,,,,,,,,m,1,0.756,,,,,,,,0.02962963,-0.405555556,0,0,0,,0,26,26,25,1,WRIST,LB,old,m,./images/WRISTLB.png,,,,,,,,,,,,,,,,,,,,,,
,,,,,,,,,,,,,,,,,199855,,2022-01-28_15h55.26.810,lexical_decision_task_DD_L2,2021.2.3,Linux x86_64,61.88118812,,,,,,,,,,,,0.592,1,,,,,,,,,,,,,,m,1,0.592,,,,,,,,0.02962963,-0.405555556,0,0,0,,0,27,27,13,1,MOTOR,LB,old,m,./images/MOTORLB.png,,,,,,,,,,,,,,,,,,,,,,
,,,,,,,,,,,,,,,,,199855,,2022-01-28_15h55.26.810,lexical_decision_task_DD_L2,2021.2.3,Linux x86_64,61.88118812,,,,,,,,,,,,0.683,1,,,,,,,,,,,,,,m,1,0.683,,,,,,,,0.02962963,-0.405555556,0,0,0,,0,28,28,20,1,CRADLE,C,old,m,./images/CRADLE.png,,,,,,,,,,,,,,,,,,,,,,
,,,,,,,,,,,,,,,,,199855,,2022-01-28_15h55.26.810,lexical_decision_task_DD_L2,2021.2.3,Linux x86_64,61.88118812,,,,,,,,,,,,0.687,1,,,,,,,,,,,,,,z,1,0.687,,,,,,,,0.02962963,-0.405555556,0,0,0,,0,29,29,113,1,LINEW,LB,old,z,./images/LINEWLB.png,,,,,,,,,,,,,,,,,,,,,,
,,,,,,,,,,,,,,,,,199855,,2022-01-28_15h55.26.810,lexical_decision_task_DD_L2,2021.2.3,Linux x86_64,61.88118812,,,,,,,,,,,,0.668,1,,,,,,,,,,,,,,z,1,0.668,,,,,,,,0.02962963,-0.405555556,0,0,0,,0,30,30,107,1,FASKS,LB,old,z,./images/FASKSLB.png,,,,,,,,,,,,,,,,,,,,,,
,,,,,,,,,,,,,,,,,199855,,2022-01-28_15h55.26.810,lexical_decision_task_DD_L2,2021.2.3,Linux x86_64,61.88118812,,,,,,,,,,,,0.639,1,,,,,,,,,,,,,,m,1,0.639,,,,,,,,0.02962963,-0.405555556,0,0,0,,0,31,31,70,1,URINE,LB,old,m,./images/URINELB.png,,,,,,,,,,,,,,,,,,,,,,
,,,,,,,,,,,,,,,,,199855,,2022-01-28_15h55.26.810,lexical_decision_task_DD_L2,2021.2.3,Linux x86_64,61.88118812,,,,,,,,,,,,0.639,1,,,,,,,,,,,,,,m,1,0.639,,,,,,,,0.02962963,-0.405555556,0,0,0,,0,32,32,3,1,FINGER,HB,old,m,./images/FINGERHB.png,,,,,,,,,,,,,,,,,,,,,,
,,,,,,,,,,,,,,,,,199855,,2022-01-28_15h55.26.810,lexical_decision_task_DD_L2,2021.2.3,Linux x86_64,61.88118812,,,,,,,,,,,,0.647,1,,,,,,,,,,,,,,z,1,0.647,,,,,,,,0.02962963,-0.405555556,0,0,0,,0,33,33,137,1,JOOST,LB,old,z,./images/JOOSTLB.png,,,,,,,,,,,,,,,,,,,,,,
,,,,,,,,,,,,,,,,,199855,,2022-01-28_15h55.26.810,lexical_decision_task_DD_L2,2021.2.3,Linux x86_64,61.88118812,,,,,,,,,,,,0.58,1,,,,,,,,,,,,,,m,1,0.58,,,,,,,,0.02962963,-0.405555556,0,0,0,,0,34,34,30,1,STORM,HB,old,m,./images/STORMHB.png,,,,,,,,,,,,,,,,,,,,,,
,,,,,,,,,,,,,,,,,199855,,2022-01-28_15h55.26.810,lexical_decision_task_DD_L2,2021.2.3,Linux x86_64,61.88118812,,,,,,,,,,,,0.665,1,,,,,,,,,,,,,,z,1,0.665,,,,,,,,0.02962963,-0.405555556,0,0,0,,0,35,35,159,1,CUDDY,C,old,z,./images/CUDDY.png,,,,,,,,,,,,,,,,,,,,,,
,,,,,,,,,,,,,,,,,199855,,2022-01-28_15h55.26.810,lexical_decision_task_DD_L2,2021.2.3,Linux x86_64,61.88118812,,,,,,,,,,,,0.615,1,,,,,,,,,,,,,,m,1,0.615,,,,,,,,0.02962963,-0.405555556,0,0,0,,0,36,36,49,1,DRUMS,LB,old,m,./images/DRUMSLB.png,,,,,,,,,,,,,,,,,,,,,,
,,,,,,,,,,,,,,,,,199855,,2022-01-28_15h55.26.810,lexical_decision_task_DD_L2,2021.2.3,Linux x86_64,61.88118812,,,,,,,,,,,,0.758,1,,,,,,,,,,,,,,z,1,0.758,,,,,,,,0.02962963,-0.405555556,0,0,0,,0,37,37,120,1,RINED,C,old,z,./images/RINED.png,,,,,,,,,,,,,,,,,,,,,,
,,,,,,,,,,,,,,,,,199855,,2022-01-28_15h55.26.810,lexical_decision_task_DD_L2,2021.2.3,Linux x86_64,61.88118812,,,,,,,,,,,,0.572,1,,,,,,,,,,,,,,m,1,0.572,,,,,,,,0.02962963,-0.405555556,0,0,0,,0,38,38,63,1,MIRROR,HB,old,m,./images/MIRRORHB.png,,,,,,,,,,,,,,,,,,,,,,
,,,,,,,,,,,,,,,,,199855,,2022-01-28_15h55.26.810,lexical_decision_task_DD_L2,2021.2.3,Linux x86_64,61.88118812,,,,,,,,,,,,0.715,1,,,,,,,,,,,,,,m,1,0.715,,,,,,,,0.02962963,-0.405555556,0,0,0,,0,39,39,28,1,FALCON,LB,old,m,./images/FALCONLB.png,,,,,,,,,,,,,,,,,,,,,,
,,,,,,,,,,,,,,,,,199855,,2022-01-28_15h55.26.810,lexical_decision_task_DD_L2,2021.2.3,Linux x86_64,61.88118812,,,,,,,,,,,,0.756,1,,,,,,,,,,,,,,z,1,0.756,,,,,,,,0.02962963,-0.405555556,0,0,0,,0,40,40,88,1,GLUSH,HB,old,z,./images/GLUSHHB.png,,,,,,,,,,,,,,,,,,,,,,
,,,,,,,,,,,,,,,,,199855,,2022-01-28_15h55.26.810,lexical_decision_task_DD_L2,2021.2.3,Linux x86_64,61.88118812,,,,,,,,,,,,20.745,1,,,,,,,,,,,,,,m,1,20.745,-0.073148148,0.012037037,1,0,0,20.331,,-0.073148148,0.012037037,0,0,0,space,0,41,41,76,1,INFANT,LB,old,m,./images/INFANTLB.png,3.496,,,,,,,,,,,,,,,,,,,,,
,,,,,,,,,,,,,,,,,199855,,2022-01-28_15h55.26.810,lexical_decision_task_DD_L2,2021.2.3,Linux x86_64,61.88118812,,,,,,,,,,,,1.063,1,,,,,,,,,,,,,,z,1,1.063,,,,,,,,0.264814815,-0.430555556,0,0,0,,0,42,42,157,1,INLER,HB,old,z,./images/INLERHB.png,,,,,,,,,,,,,,,,,,,,,,
,,,,,,,,,,,,,,,,,199855,,2022-01-28_15h55.26.810,lexical_decision_task_DD_L2,2021.2.3,Linux x86_64,61.88118812,,,,,,,,,,,,0.585,1,,,,,,,,,,,,,,m,1,0.585,,,,,,,,0.264814815,-0.430555556,0,0,0,,0,43,43,61,1,CANDLE,LB,old,m,./images/CANDLELB.png,,,,,,,,,,,,,,,,,,,,,,
,,,,,,,,,,,,,,,,,199855,,2022-01-28_15h55.26.810,lexical_decision_task_DD_L2,2021.2.3,Linux x86_64,61.88118812,,,,,,,,,,,,0.717,1,,,,,,,,,,,,,,z,1,0.717,,,,,,,,0.264814815,-0.430555556,0,0,0,,0,44,44,143,1,MONGS,LB,old,z,./images/MONGSLB.png,,,,,,,,,,,,,,,,,,,,,,
,,,,,,,,,,,,,,,,,199855,,2022-01-28_15h55.26.810,lexical_decision_task_DD_L2,2021.2.3,Linux x86_64,61.88118812,,,,,,,,,,,,0.676,1,,,,,,,,,,,,,,z,1,0.676,,,,,,,,0.264814815,-0.430555556,0,0,0,,0,45,45,155,1,CANGY,LB,old,z,./images/CANGYLB.png,,,,,,,,,,,,,,,,,,,,,,
,,,,,,,,,,,,,,,,,199855,,2022-01-28_15h55.26.810,lexical_decision_task_DD_L2,2021.2.3,Linux x86_64,61.88118812,,,,,,,,,,,,0.71,1,,,,,,,,,,,,,,z,1,0.71,,,,,,,,0.264814815,-0.430555556,0,0,0,,0,46,46,109,1,BURGE,HB,old,z,./images/BURGEHB.png,,,,,,,,,,,,,,,,,,,,,,
,,,,,,,,,,,,,,,,,199855,,2022-01-28_15h55.26.810,lexical_decision_task_DD_L2,2021.2.3,Linux x86_64,61.88118812,,,,,,,,,,,,0.63,1,,,,,,,,,,,,,,m,1,0.63,,,,,,,,0.264814815,-0.430555556,0,0,0,,0,47,47,74,1,CEMENT,C,old,m,./images/CEMENT.png,,,,,,,,,,,,,,,,,,,,,,
,,,,,,,,,,,,,,,,,199855,,2022-01-28_15h55.26.810,lexical_decision_task_DD_L2,2021.2.3,Linux x86_64,61.88118812,,,,,,,,,,,,0.777,1,,,,,,,,,,,,,,m,1,0.777,,,,,,,,0.264814815,-0.430555556,0,0,0,,0,48,48,53,1,CARPET,C,old,m,./images/CARPET.png,,,,,,,,,,,,,,,,,,,,,,
,,,,,,,,,,,,,,,,,199855,,2022-01-28_15h55.26.810,lexical_decision_task_DD_L2,2021.2.3,Linux x86_64,61.88118812,,,,,,,,,,,,0.542,1,,,,,,,,,,,,,,m,1,0.542,,,,,,,,0.264814815,-0.430555556,0,0,0,,0,49,49,22,1,MELON,LB,old,m,./images/MELONLB.png,,,,,,,,,,,,,,,,,,,,,,
,,,,,,,,,,,,,,,,,199855,,2022-01-28_15h55.26.810,lexical_decision_task_DD_L2,2021.2.3,Linux x86_64,61.88118812,,,,,,,,,,,,0.576,1,,,,,,,,,,,,,,m,1,0.576,,,,,,,,0.264814815,-0.430555556,0,0,0,,0,50,50,57,1,MOOSE,HB,old,m,./images/MOOSEHB.png,,,,,,,,,,,,,,,,,,,,,,
,,,,,,,,,,,,,,,,,199855,,2022-01-28_15h55.26.810,lexical_decision_task_DD_L2,2021.2.3,Linux x86_64,61.88118812,,,,,,,,,,,,0.541,1,,,,,,,,,,,,,,z,1,0.541,,,,,,,,0.264814815,-0.430555556,0,0,0,,0,51,51,150,1,NOOLS,C,old,z,./images/NOOLS.png,,,,,,,,,,,,,,,,,,,,,,
,,,,,,,,,,,,,,,,,199855,,2022-01-28_15h55.26.810,lexical_decision_task_DD_L2,2021.2.3,Linux x86_64,61.88118812,,,,,,,,,,,,0.629,1,,,,,,,,,,,,,,m,1,0.629,,,,,,,,0.264814815,-0.430555556,0,0,0,,0,52,52,32,1,BARREL,C,old,m,./images/BARREL.png,,,,,,,,,,,,,,,,,,,,,,
,,,,,,,,,,,,,,,,,199855,,2022-01-28_15h55.26.810,lexical_decision_task_DD_L2,2021.2.3,Linux x86_64,61.88118812,,,,,,,,,,,,0.714,1,,,,,,,,,,,,,,z,1,0.714,,,,,,,,0.264814815,-0.430555556,0,0,0,,0,53,53,131,1,NACES,LB,old,z,./images/NACESLB.png,,,,,,,,,,,,,,,,,,,,,,
,,,,,,,,,,,,,,,,,199855,,2022-01-28_15h55.26.810,lexical_decision_task_DD_L2,2021.2.3,Linux x86_64,61.88118812,,,,,,,,,,,,0.664,1,,,,,,,,,,,,,,m,1,0.664,,,,,,,,0.264814815,-0.430555556,0,0,0,,0,54,54,78,1,LITTER,HB,old,m,./images/LITTERHB.png,,,,,,,,,,,,,,,,,,,,,,
,,,,,,,,,,,,,,,,,199855,,2022-01-28_15h55.26.810,lexical_decision_task_DD_L2,2021.2.3,Linux x86_64,61.88118812,,,,,,,,,,,,0.61,1,,,,,,,,,,,,,,m,1,0.61,,,,,,,,0.264814815,-0.430555556,0,0,0,,0,55,55,44,1,LIZARD,C,old,m,./images/LIZARD.png,,,,,,,,,,,,,,,,,,,,,,
,,,,,,,,,,,,,,,,,199855,,2022-01-28_15h55.26.810,lexical_decision_task_DD_L2,2021.2.3,Linux x86_64,61.88118812,,,,,,,,,,,,0.718,1,,,,,,,,,,,,,,m,1,0.718,,,,,,,,0.264814815,-0.430555556,0,0,0,,0,56,56,35,1,PEACH,C,old,m,./images/PEACH.png,,,,,,,,,,,,,,,,,,,,,,
,,,,,,,,,,,,,,,,,199855,,2022-01-28_15h55.26.810,lexical_decision_task_DD_L2,2021.2.3,Linux x86_64,61.88118812,,,,,,,,,,,,0.638,1,,,,,,,,,,,,,,z,1,0.638,,,,,,,,0.264814815,-0.430555556,0,0,0,,0,57,57,98,1,BAMPS,LB,old,z,./images/BAMPSLB.png,,,,,,,,,,,,,,,,,,,,,,
,,,,,,,,,,,,,,,,,199855,,2022-01-28_15h55.26.810,lexical_decision_task_DD_L2,2021.2.3,Linux x86_64,61.88118812,,,,,,,,,,,,0.689,1,,,,,,,,,,,,,,m,1,0.689,,,,,,,,0.264814815,-0.430555556,0,0,0,,0,58,58,34,1,CANYON,LB,old,m,./images/CANYONLB.png,,,,,,,,,,,,,,,,,,,,,,
,,,,,,,,,,,,,,,,,199855,,2022-01-28_15h55.26.810,lexical_decision_task_DD_L2,2021.2.3,Linux x86_64,61.88118812,,,,,,,,,,,,0.697,1,,,,,,,,,,,,,,z,1,0.697,,,,,,,,0.264814815,-0.430555556,0,0,0,,0,59,59,134,1,TROSS,LB,old,z,./images/TROSSLB.png,,,,,,,,,,,,,,,,,,,,,,
,,,,,,,,,,,,,,,,,199855,,2022-01-28_15h55.26.810,lexical_decision_task_DD_L2,2021.2.3,Linux x86_64,61.88118812,,,,,,,,,,,,0.869,1,,,,,,,,,,,,,,z,1,0.869,,,,,,,,0.264814815,-0.430555556,0,0,0,,0,60,60,122,1,BLOOT,LB,old,z,./images/BLOOTLB.png,,,,,,,,,,,,,,,,,,,,,,
,,,,,,,,,,,,,,,,,199855,,2022-01-28_15h55.26.810,lexical_decision_task_DD_L2,2021.2.3,Linux x86_64,61.88118812,,,,,,,,,,,,0.681,1,,,,,,,,,,,,,,m,1,0.681,,,,,,,,0.264814815,-0.430555556,0,0,0,,0,61,61,18,1,JAGUAR,HB,old,m,./images/JAGUARHB.png,,,,,,,,,,,,,,,,,,,,,,
,,,,,,,,,,,,,,,,,199855,,2022-01-28_15h55.26.810,lexical_decision_task_DD_L2,2021.2.3,Linux x86_64,61.88118812,,,,,,,,,,,,1.577,1,,,,,,,,,,,,,,z,1,1.577,,,,,,,,0.189814815,-0.29537037,0,0,0,,0,62,62,148,1,JOMS,HB,old,z,./images/JOMSHB.png,,,,,,,,,,,,,,,,,,,,,,
,,,,,,,,,,,,,,,,,199855,,2022-01-28_15h55.26.810,lexical_decision_task_DD_L2,2021.2.3,Linux x86_64,61.88118812,,,,,,,,,,,,0.736,1,,,,,,,,,,,,,,z,1,0.736,,,,,,,,0.189814815,-0.29537037,0,0,0,,0,63,63,153,1,CLUPS,C,old,z,./images/CLUPS.png,,,,,,,,,,,,,,,,,,,,,,
,,,,,,,,,,,,,,,,,199855,,2022-01-28_15h55.26.810,lexical_decision_task_DD_L2,2021.2.3,Linux x86_64,61.88118812,,,,,,,,,,,,0.708,1,,,,,,,,,,,,,,z,1,0.708,,,,,,,,0.189814815,-0.29537037,0,0,0,,0,64,64,164,1,SGREW,LB,old,z,./images/SGREWLB.png,,,,,,,,,,,,,,,,,,,,,,
,,,,,,,,,,,,,,,,,199855,,2022-01-28_15h55.26.810,lexical_decision_task_DD_L2,2021.2.3,Linux x86_64,61.88118812,,,,,,,,,,,,0.739,1,,,,,,,,,,,,,,m,1,0.739,,,,,,,,0.189814815,-0.29537037,0,0,0,,0,65,65,19,1,DOUGH,LB,old,m,./images/DOUGHLB.png,,,,,,,,,,,,,,,,,,,,,,
,,,,,,,,,,,,,,,,,199855,,2022-01-28_15h55.26.810,lexical_decision_task_DD_L2,2021.2.3,Linux x86_64,61.88118812,,,,,,,,,,,,0.987,1,,,,,,,,,,,,,,z,1,0.987,,,,,,,,0.189814815,-0.29537037,0,0,0,,0,66,66,115,1,MAWNS,HB,old,z,./images/MAWNSHB.png,,,,,,,,,,,,,,,,,,,,,,
,,,,,,,,,,,,,,,,,199855,,2022-01-28_15h55.26.810,lexical_decision_task_DD_L2,2021.2.3,Linux x86_64,61.88118812,,,,,,,,,,,,0.79,1,,,,,,,,,,,,,,m,1,0.79,,,,,,,,0.189814815,-0.29537037,0,0,0,,0,67,67,72,1,NOOSE,HB,old,m,./images/NOOSEHB.png,,,,,,,,,,,,,,,,,,,,,,
,,,,,,,,,,,,,,,,,199855,,2022-01-28_15h55.26.810,lexical_decision_task_DD_L2,2021.2.3,Linux x86_64,61.88118812,,,,,,,,,,,,0.655,1,,,,,,,,,,,,,,z,1,0.655,,,,,,,,0.189814815,-0.29537037,0,0,0,,0,68,68,92,1,PAIMS,LB,old,z,./images/PAIMSLB.png,,,,,,,,,,,,,,,,,,,,,,
,,,,,,,,,,,,,,,,,199855,,2022-01-28_15h55.26.810,lexical_decision_task_DD_L2,2021.2.3,Linux x86_64,61.88118812,,,,,,,,,,,,0.689,1,,,,,,,,,,,,,,z,1,0.689,,,,,,,,0.189814815,-0.29537037,0,0,0,,0,69,69,118,1,BAVEL,HB,old,z,./images/BAVELHB.png,,,,,,,,,,,,,,,,,,,,,,
,,,,,,,,,,,,,,,,,199855,,2022-01-28_15h55.26.810,lexical_decision_task_DD_L2,2021.2.3,Linux x86_64,61.88118812,,,,,,,,,,,,0.537,1,,,,,,,,,,,,,,z,1,0.537,,,,,,,,0.189814815,-0.29537037,0,0,0,,0,70,70,156,1,HIXES,C,old,z,./images/HIXES.png,,,,,,,,,,,,,,,,,,,,,,
,,,,,,,,,,,,,,,,,199855,,2022-01-28_15h55.26.810,lexical_decision_task_DD_L2,2021.2.3,Linux x86_64,61.88118812,,,,,,,,,,,,1.219,1,,,,,,,,,,,,,,z,1,1.219,,,,,,,,0.189814815,-0.29537037,0,0,0,,0,71,71,124,1,TUNCH,HB,old,z,./images/TUNCHHB.png,,,,,,,,,,,,,,,,,,,,,,
,,,,,,,,,,,,,,,,,199855,,2022-01-28_15h55.26.810,lexical_decision_task_DD_L2,2021.2.3,Linux x86_64,61.88118812,,,,,,,,,,,,0.654,1,,,,,,,,,,,,,,z,1,0.654,,,,,,,,0.189814815,-0.29537037,0,0,0,,0,72,72,90,1,NEAST,C,old,z,./images/NEAST.png,,,,,,,,,,,,,,,,,,,,,,
,,,,,,,,,,,,,,,,,199855,,2022-01-28_15h55.26.810,lexical_decision_task_DD_L2,2021.2.3,Linux x86_64,61.88118812,,,,,,,,,,,,0.802,1,,,,,,,,,,,,,,z,1,0.802,,,,,,,,0.189814815,-0.29537037,0,0,0,,0,73,73,87,1,TRING,C,old,z,./images/TRING.png,,,,,,,,,,,,,,,,,,,,,,
,,,,,,,,,,,,,,,,,199855,,2022-01-28_15h55.26.810,lexical_decision_task_DD_L2,2021.2.3,Linux x86_64,61.88118812,,,,,,,,,,,,0.665,1,,,,,,,,,,,,,,m,1,0.665,,,,,,,,0.189814815,-0.29537037,0,0,0,,0,74,74,41,1,STRING,C,old,m,./images/STRING.png,,,,,,,,,,,,,,,,,,,,,,
,,,,,,,,,,,,,,,,,199855,,2022-01-28_15h55.26.810,lexical_decision_task_DD_L2,2021.2.3,Linux x86_64,61.88118812,,,,,,,,,,,,0.9,1,,,,,,,,,,,,,,m,1,0.9,,,,,,,,0.189814815,-0.29537037,0,0,0,,0,75,75,21,1,KIDNEY,HB,old,m,./images/KIDNEYHB.png,,,,,,,,,,,,,,,,,,,,,,
,,,,,,,,,,,,,,,,,199855,,2022-01-28_15h55.26.810,lexical_decision_task_DD_L2,2021.2.3,Linux x86_64,61.88118812,,,,,,,,,,,,9.127,1,,,,,,,,,,,,,,z,1,9.127,0.074074074,-0.273148148,1,0,0,8.721,,0.074074074,-0.273148148,0,0,0,,0,76,76,119,1,PAFER,LB,old,z,./images/PAFERLB.png,,,,,,,,,,,,,,,,,,,,,,
,,,,,,,,,,,,,,,,,199855,,2022-01-28_15h55.26.810,lexical_decision_task_DD_L2,2021.2.3,Linux x86_64,61.88118812,,,,,,,,,,,,0.719,1,,,,,,,,,,,,,,z,1,0.719,,,,,,,,0.074074074,-0.273148148,0,0,0,,0,77,77,105,1,MOKER,C,old,z,./images/MOKER.png,,,,,,,,,,,,,,,,,,,,,,
,,,,,,,,,,,,,,,,,199855,,2022-01-28_15h55.26.810,lexical_decision_task_DD_L2,2021.2.3,Linux x86_64,61.88118812,,,,,,,,,,,,0.577,1,,,,,,,,,,,,,,z,1,0.577,,,,,,,,0.074074074,-0.273148148,0,0,0,,0,78,78,140,1,DOVET,LB,old,z,./images/DOVETLB.png,,,,,,,,,,,,,,,,,,,,,,
,,,,,,,,,,,,,,,,,199855,,2022-01-28_15h55.26.810,lexical_decision_task_DD_L2,2021.2.3,Linux x86_64,61.88118812,,,,,,,,,,,,0.576,1,,,,,,,,,,,,,,m,1,0.576,,,,,,,,0.074074074,-0.273148148,0,0,0,,0,79,79,73,1,SNACK,LB,old,m,./images/SNACKLB.png,,,,,,,,,,,,,,,,,,,,,,
,,,,,,,,,,,,,,,,,199855,,2022-01-28_15h55.26.810,lexical_decision_task_DD_L2,2021.2.3,Linux x86_64,61.88118812,,,,,,,,,,,,0.575,1,,,,,,,,,,,,,,z,1,0.575,,,,,,,,0.074074074,-0.273148148,0,0,0,,0,80,80,102,1,DULLE,C,old,z,./images/DULLE.png,,,,,,,,,,,,,,,,,,,,,,
,,,,,,,,,,,,,,,,,199855,,2022-01-28_15h55.26.810,lexical_decision_task_DD_L2,2021.2.3,Linux x86_64,61.88118812,,,,,,,,,,,,0.77,1,,,,,,,,,,,,,,m,1,0.77,,,,,,,,0.074074074,-0.273148148,0,0,0,,0,81,81,54,1,TRIPOD,HB,old,m,./images/TRIPODHB.png,,,,,,,,,,,,,,,,,,,,,,
,,,,,,,,,,,,,,,,,199855,,2022-01-28_15h55.26.810,lexical_decision_task_DD_L2,2021.2.3,Linux x86_64,61.88118812,,,,,,,,,,,,0.678,1,,,,,,,,,,,,,,z,1,0.678,,,,,,,,0.074074074,-0.273148148,0,0,0,,0,82,82,100,1,DRIBS,HB,old,z,./images/DRIBSHB.png,,,,,,,,,,,,,,,,,,,,,,
,,,,,,,,,,,,,,,,,199855,,2022-01-28_15h55.26.810,lexical_decision_task_DD_L2,2021.2.3,Linux x86_64,61.88118812,,,,,,,,,,,,0.623,1,,,,,,,,,,,,,,z,1,0.623,,,,,,,,0.022222222,-0.373148148,1,0,0,,0,83,83,125,1,MOOKY,LB,old,z,./images/MOOKYLB.png,,break_done_button,,,,,,,,,,,,,,,,,,,,
,,,,,,,,,,,,,,,,,199855,,2022-01-28_15h55.26.810,lexical_decision_task_DD_L2,2021.2.3,Linux x86_64,61.88118812,,,,,,,,,,,,0.78,1,,,,,,,,,,,,,,m,1,0.78,,,,,,,,0.022222222,-0.373148148,0,0,0,,0,84,84,60,1,TWINS,HB,old,m,./images/TWINSHB.png,,,,,,,,,,,,,,,,,,,,,,
,,,,,,,,,,,,,,,,,199855,,2022-01-28_15h55.26.810,lexical_decision_task_DD_L2,2021.2.3,Linux x86_64,61.88118812,,,,,,,,,,,,0.767,1,,,,,,,,,,,,,,m,1,0.767,,,,,,,,0.022222222,-0.373148148,0,0,0,,0,85,85,39,1,SHELF,HB,old,m,./images/SHELFHB.png,,,,,,,,,,,,,,,,,,,,,,
,,,,,,,,,,,,,,,,,199855,,2022-01-28_15h55.26.810,lexical_decision_task_DD_L2,2021.2.3,Linux x86_64,61.88118812,,,,,,,,,,,,0.748,1,,,,,,,,,,,,,,m,1,0.748,,,,,,,,0.022222222,-0.373148148,0,0,0,,0,86,86,8,1,TULIP,C,old,m,./images/TULIP.png,,,,,,,,,,,,,,,,,,,,,,
,,,,,,,,,,,,,,,,,199855,,2022-01-28_15h55.26.810,lexical_decision_task_DD_L2,2021.2.3,Linux x86_64,61.88118812,,,,,,,,,,,,0.722,1,,,,,,,,,,,,,,m,1,0.722,,,,,,,,0.022222222,-0.373148148,0,0,0,,0,87,87,29,1,CRUMB,C,old,m,./images/CRUMB.png,,,,,,,,,,,,,,,,,,,,,,
,,,,,,,,,,,,,,,,,199855,,2022-01-28_15h55.26.810,lexical_decision_task_DD_L2,2021.2.3,Linux x86_64,61.88118812,,,,,,,,,,,,0.756,1,,,,,,,,,,,,,,m,1,0.756,,,,,,,,0.022222222,-0.373148148,0,0,0,,0,88,88,80,1,WEASEL,C,old,m,./images/WEASEL.png,,,,,,,,,,,,,,,,,,,,,,
,,,,,,,,,,,,,,,,,199855,,2022-01-28_15h55.26.810,lexical_decision_task_DD_L2,2021.2.3,Linux x86_64,61.88118812,,,,,,,,,,,,0.552,1,,,,,,,,,,,,,,m,1,0.552,,,,,,,,0.022222222,-0.373148148,0,0,0,,0,89,89,0,1,TOMATO,HB,old,m,./images/TOMATOHB.png,,,,,,,,,,,,,,,,,,,,,,
,,,,,,,,,,,,,,,,,199855,,2022-01-28_15h55.26.810,lexical_decision_task_DD_L2,2021.2.3,Linux x86_64,61.88118812,,,,,,,,,,,,0.686,1,,,,,,,,,,,,,,z,1,0.686,,,,,,,,0.022222222,-0.373148148,0,0,0,,0,90,90,94,1,BLANS,HB,old,z,./images/BLANSHB.png,,,,,,,,,,,,,,,,,,,,,,
,,,,,,,,,,,,,,,,,199855,,2022-01-28_15h55.26.810,lexical_decision_task_DD_L2,2021.2.3,Linux x86_64,61.88118812,,,,,,,,,,,,0.594,1,,,,,,,,,,,,,,z,1,0.594,,,,,,,,0.022222222,-0.373148148,0,0,0,,0,91,91,96,1,KEAMS,C,old,z,./images/KEAMS.png,,,,,,,,,,,,,,,,,,,,,,
,,,,,,,,,,,,,,,,,199855,,2022-01-28_15h55.26.810,lexical_decision_task_DD_L2,2021.2.3,Linux x86_64,61.88118812,,,,,,,,,,,,0.74,1,,,,,,,,,,,,,,m,1,0.74,,,,,,,,0.022222222,-0.373148148,0,0,0,,0,92,92,11,1,BONNET,C,old,m,./images/BONNET.png,,,,,,,,,,,,,,,,,,,,,,
,,,,,,,,,,,,,,,,,199855,,2022-01-28_15h55.26.810,lexical_decision_task_DD_L2,2021.2.3,Linux x86_64,61.88118812,,,,,,,,,,,,0.572,1,,,,,,,,,,,,,,m,1,0.572,,,,,,,,0.022222222,-0.373148148,0,0,0,,0,93,93,45,1,KITTEN,HB,old,m,./images/KITTENHB.png,,,,,,,,,,,,,,,,,,,,,,
,,,,,,,,,,,,,,,,,199855,,2022-01-28_15h55.26.810,lexical_decision_task_DD_L2,2021.2.3,Linux x86_64,61.88118812,,,,,,,,,,,,0.697,1,,,,,,,,,,,,,,m,1,0.697,,,,,,,,0.022222222,-0.373148148,0,0,0,,0,94,94,15,1,GREASE,HB,old,m,./images/GREASEHB.png,,,,,,,,,,,,,,,,,,,,,,
,,,,,,,,,,,,,,,,,199855,,2022-01-28_15h55.26.810,lexical_decision_task_DD_L2,2021.2.3,Linux x86_64,61.88118812,,,,,,,,,,,,0.673,1,,,,,,,,,,,,,,m,1,0.673,,,,,,,,0.022222222,-0.373148148,0,0,0,,0,95,95,40,1,SWING,LB,old,m,./images/SWINGLB.png,,,,,,,,,,,,,,,,,,,,,,
,,,,,,,,,,,,,,,,,199855,,2022-01-28_15h55.26.810,lexical_decision_task_DD_L2,2021.2.3,Linux x86_64,61.88118812,,,,,,,,,,,,2.992,1,,,,,,,,,,,,,,z,1,2.992,,,,,,,,0.140740741,-0.29537037,0,0,0,,0,96,96,142,1,PLASK,HB,old,z,./images/PLASKHB.png,,,,,,,,,,,,,,,,,,,,,,
,,,,,,,,,,,,,,,,,199855,,2022-01-28_15h55.26.810,lexical_decision_task_DD_L2,2021.2.3,Linux x86_64,61.88118812,,,,,,,,,,,,1.148,1,,,,,,,,,,,,,,z,1,1.148,,,,,,,,0.140740741,-0.29537037,0,0,0,,0,97,97,133,1,POWDY,HB,old,z,./images/POWDYHB.png,,,,,,,,,,,,,,,,,,,,,,
,,,,,,,,,,,,,,,,,199855,,2022-01-28_15h55.26.810,lexical_decision_task_DD_L2,2021.2.3,Linux x86_64,61.88118812,,,,,,,,,,,,0.663,1,,,,,,,,,,,,,,z,1,0.663,,,,,,,,0.140740741,-0.29537037,0,0,0,,0,98,98,95,1,HANTY,LB,old,z,./images/HANTYLB.png,,,,,,,,,,,,,,,,,,,,,,
,,,,,,,,,,,,,,,,,199855,,2022-01-28_15h55.26.810,lexical_decision_task_DD_L2,2021.2.3,Linux x86_64,61.88118812,,,,,,,,,,,,0.586,1,,,,,,,,,,,,,,z,1,0.586,,,,,,,,0.140740741,-0.29537037,0,0,0,,0,99,99,117,1,STEEG,C,old,z,./images/STEEG.png,,,,,,,,,,,,,,,,,,,,,,
,,,,,,,,,,,,,,,,,199855,,2022-01-28_15h55.26.810,lexical_decision_task_DD_L2,2021.2.3,Linux x86_64,61.88118812,,,,,,,,,,,,0.945,1,,,,,,,,,,,,,,z,1,0.945,,,,,,,,0.140740741,-0.29537037,0,0,0,,0,100,100,160,1,VEETS,HB,old,z,./images/VEETSHB.png,,,,,,,,,,,,,,,,,,,,,,
,,,,,,,,,,,,,,,,,199855,,2022-01-28_15h55.26.810,lexical_decision_task_DD_L2,2021.2.3,Linux x86_64,61.88118812,,,,,,,,,,,,0.609,1,,,,,,,,,,,,,,z,1,0.609,,,,,,,,0.140740741,-0.29537037,0,0,0,,0,101,101,152,1,FRAIN,LB,old,z,./images/FRAINLB.png,,,,,,,,,,,,,,,,,,,,,,
,,,,,,,,,,,,,,,,,199855,,2022-01-28_15h55.26.810,lexical_decision_task_DD_L2,2021.2.3,Linux x86_64,61.88118812,,,,,,,,,,,,0.697,1,,,,,,,,,,,,,,m,1,0.697,,,,,,,,0.140740741,-0.29537037,0,0,0,,0,102,102,12,1,SHORE,HB,old,m,./images/SHOREHB.png,,,,,,,,,,,,,,,,,,,,,,
,,,,,,,,,,,,,,,,,199855,,2022-01-28_15h55.26.810,lexical_decision_task_DD_L2,2021.2.3,Linux x86_64,61.88118812,,,,,,,,,,,,0.722,1,,,,,,,,,,,,,,m,1,0.722,,,,,,,,0.140740741,-0.29537037,0,0,0,,0,103,103,6,1,SQUARE,HB,old,m,./images/SQUAREHB.png,,,,,,,,,,,,,,,,,,,,,,
,,,,,,,,,,,,,,,,,199855,,2022-01-28_15h55.26.810,lexical_decision_task_DD_L2,2021.2.3,Linux x86_64,61.88118812,,,,,,,,,,,,0.997,1,,,,,,,,,,,,,,z,1,0.997,,,,,,,,0.140740741,-0.29537037,0,0,0,,0,104,104,154,1,THINT,HB,old,z,./images/THINTHB.png,,,,,,,,,,,,,,,,,,,,,,
,,,,,,,,,,,,,,,,,199855,,2022-01-28_15h55.26.810,lexical_decision_task_DD_L2,2021.2.3,Linux x86_64,61.88118812,,,,,,,,,,,,0.628,1,,,,,,,,,,,,,,m,1,0.628,,,,,,,,0.140740741,-0.29537037,0,0,0,,0,105,105,7,1,PAINT,LB,old,m,./images/PAINTLB.png,,,,,,,,,,,,,,,,,,,,,,
,,,,,,,,,,,,,,,,,199855,,2022-01-28_15h55.26.810,lexical_decision_task_DD_L2,2021.2.3,Linux x86_64,61.88118812,,,,,,,,,,,,1.209,0,,,,,,,,,,,,,,z,0,1.209,,,,,,,,0.140740741,-0.29537037,0,0,0,,0,106,106,16,1,PENCE,LB,old,m,./images/PENCELB.png,,,,,,,,,,,,,,,,,,,,,,
,,,,,,,,,,,,,,,,,199855,,2022-01-28_15h55.26.810,lexical_decision_task_DD_L2,2021.2.3,Linux x86_64,61.88118812,,,,,,,,,,,,0.776,1,,,,,,,,,,,,,,z,1,0.776,,,,,,,,0.140740741,-0.29537037,0,0,0,,0,107,107,130,1,CRILL,HB,old,z,./images/CRILLHB.png,,,,,,,,,,,,,,,,,,,,,,
,,,,,,,,,,,,,,,,,199855,,2022-01-28_15h55.26.810,lexical_decision_task_DD_L2,2021.2.3,Linux x86_64,61.88118812,,,,,,,,,,,,0.711,1,,,,,,,,,,,,,,m,1,0.711,,,,,,,,0.140740741,-0.29537037,0,0,0,,0,108,108,46,1,PEARL,LB,old,m,./images/PEARLLB.png,,,,,,,,,,,,,,,,,,,,,,
,,,,,,,,,,,,,,,,,199855,,2022-01-28_15h55.26.810,lexical_decision_task_DD_L2,2021.2.3,Linux x86_64,61.88118812,,,,,,,,,,,,0.829,1,,,,,,,,,,,,,,z,1,0.829,,,,,,,,0.140740741,-0.29537037,0,0,0,,0,109,109,84,1,HAXES,C,old,z,./images/HAXES.png,,,,,,,,,,,,,,,,,,,,,,
,,,,,,,,,,,,,,,,,199855,,2022-01-28_15h55.26.810,lexical_decision_task_DD_L2,2021.2.3,Linux x86_64,61.88118812,,,,,,,,,,,,0.816,1,,,,,,,,,,,,,,m,1,0.816,,,,,,,,0.140740741,-0.29537037,0,0,0,,0,110,110,1,1,PLANK,LB,old,m,./images/PLANKLB.png,,,,,,,,,,,,,,,,,,,,,,
,,,,,,,,,,,,,,,,,199855,,2022-01-28_15h55.26.810,lexical_decision_task_DD_L2,2021.2.3,Linux x86_64,61.88118812,,,,,,,,,,,,0.608,1,,,,,,,,,,,,,,m,1,0.608,,,,,,,,0.140740741,-0.29537037,0,0,0,,0,111,111,48,1,SPORT,HB,old,m,./images/SPORTHB.png,,,,,,,,,,,,,,,,,,,,,,
,,,,,,,,,,,,,,,,,199855,,2022-01-28_15h55.26.810,lexical_decision_task_DD_L2,2021.2.3,Linux x86_64,61.88118812,,,,,,,,,,,,0.571,1,,,,,,,,,,,,,,z,1,0.571,,,,,,,,0.140740741,-0.29537037,0,0,0,,0,112,112,138,1,PLICE,C,old,z,./images/PLICE.png,,,,,,,,,,,,,,,,,,,,,,
,,,,,,,,,,,,,,,,,199855,,2022-01-28_15h55.26.810,lexical_decision_task_DD_L2,2021.2.3,Linux x86_64,61.88118812,,,,,,,,,,,,0.628,1,,,,,,,,,,,,,,m,1,0.628,,,,,,,,0.140740741,-0.29537037,0,0,0,,0,113,113,55,1,MUFFIN,LB,old,m,./images/MUFFINLB.png,,,,,,,,,,,,,,,,,,,,,,
,,,,,,,,,,,,,,,,,199855,,2022-01-28_15h55.26.810,lexical_decision_task_DD_L2,2021.2.3,Linux x86_64,61.88118812,,,,,,,,,,,,16.636,1,,,,,,,,,,,,,,z,1,16.636,0.085185185,0.009259259,1,0,0,16.438,,0.085185185,0.009259259,0,0,0,,0,114,114,135,1,JOODY,C,old,z,./images/JOODY.png,,,,,,,,,,,,,,,,,,,,,,
,,,,,,,,,,,,,,,,,199855,,2022-01-28_15h55.26.810,lexical_decision_task_DD_L2,2021.2.3,Linux x86_64,61.88118812,,,,,,,,,,,,0.813,1,,,,,,,,,,,,,,m,1,0.813,,,,,,,,0.085185185,0.009259259,0,0,0,,0,115,115,42,1,FOLDER,HB,old,m,./images/FOLDERHB.png,,,,,,,,,,,,,,,,,,,,,,
,,,,,,,,,,,,,,,,,199855,,2022-01-28_15h55.26.810,lexical_decision_task_DD_L2,2021.2.3,Linux x86_64,61.88118812,,,,,,,,,,,,0.674,1,,,,,,,,,,,,,,z,1,0.674,,,,,,,,0.085185185,0.009259259,0,0,0,,0,116,116,129,1,PRANS,C,old,z,./images/PRANS.png,,,,,,,,,,,,,,,,,,,,,,
,,,,,,,,,,,,,,,,,199855,,2022-01-28_15h55.26.810,lexical_decision_task_DD_L2,2021.2.3,Linux x86_64,61.88118812,,,,,,,,,,,,0.864,1,,,,,,,,,,,,,,m,1,0.864,,,,,,,,0.085185185,0.009259259,0,0,0,,0,117,117,14,1,PICKLE,C,old,m,./images/PICKLE.png,,,,,,,,,,,,,,,,,,,,,,
,,,,,,,,,,,,,,,,,199855,,2022-01-28_15h55.26.810,lexical_decision_task_DD_L2,2021.2.3,Linux x86_64,61.88118812,,,,,,,,,,,,0.938,1,,,,,,,,,,,,,,m,1,0.938,,,,,,,,0.085185185,0.009259259,0,0,0,,0,118,118,65,1,FARMER,C,old,m,./images/FARMER.png,,,,,,,,,,,,,,,,,,,,,,
,,,,,,,,,,,,,,,,,199855,,2022-01-28_15h55.26.810,lexical_decision_task_DD_L2,2021.2.3,Linux x86_64,61.88118812,,,,,,,,,,,,0.507,0,,,,,,,,,,,,,,z,0,0.507,,,,,,,,0.085185185,0.009259259,0,0,0,,0,119,119,64,1,JELLY,LB,old,m,./images/JELLYLB.png,,,,,,,,,,,,,,,,,,,,,,
,,,,,,,,,,,,,,,,,199855,,2022-01-28_15h55.26.810,lexical_decision_task_DD_L2,2021.2.3,Linux x86_64,61.88118812,,,,,,,,,,,,0.729,1,,,,,,,,,,,,,,m,1,0.729,,,,,,,,0.085185185,0.009259259,0,0,0,,0,120,120,24,1,SCREW,HB,old,m,./images/SCREWHB.png,,,,,,,,,,,,,,,,,,,,,,
,,,,,,,,,,,,,,,,,199855,,2022-01-28_15h55.26.810,lexical_decision_task_DD_L2,2021.2.3,Linux x86_64,61.88118812,,,,,,,,,,,,0.885,1,,,,,,,,,,,,,,z,1,0.885,,,,,,,,0.085185185,0.009259259,0,0,0,,0,121,121,104,1,GITTY,LB,old,z,./images/GITTYLB.png,,,,,,,,,,,,,,,,,,,,,,
,,,,,,,,,,,,,,,,,199855,,2022-01-28_15h55.26.810,lexical_decision_task_DD_L2,2021.2.3,Linux x86_64,61.88118812,,,,,,,,,,,,0.907,1,,,,,,,,,,,,,,z,1,0.907,,,,,,,,0.085185185,0.009259259,0,0,0,,0,122,122,106,1,CLUMS,HB,old,z,./images/CLUMSHB.png,,,,,,,,,,,,,,,,,,,,,,
,,,,,,,,,,,,,,,,,199855,,2022-01-28_15h55.26.810,lexical_decision_task_DD_L2,2021.2.3,Linux x86_64,61.88118812,,,,,,,,,,,,0.773,1,,,,,,,,,,,,,,m,1,0.773,,,,,,,,0.085185185,0.009259259,0,0,0,,0,123,123,9,1,RHINO,HB,old,m,./images/RHINOHB.png,,,,,,,,,,,,,,,,,,,,,,
,,,,,,,,,,,,,,,,,199855,,2022-01-28_15h55.26.810,lexical_decision_task_DD_L2,2021.2.3,Linux x86_64,61.88118812,,,,,,,,,,,,0.57,1,,,,,,,,,,,,,,m,1,0.57,,,,,,,,0.085185185,0.009259259,0,0,0,,0,124,124,38,1,LADDER,C,old,m,./images/LADDER.png,,,,,,,,,,,,,,,,,,,,,,
,,,,,,,,,,,,,,,,,199855,,2022-01-28_15h55.26.810,lexical_decision_task_DD_L2,2021.2.3,Linux x86_64,61.88118812,,,,,,,,,,,,0.642,1,,,,,,,,,,,,,,m,1,0.642,,,,,,,,0.078703704,-0.372222222,1,0,0,,0,125,125,66,1,SWEAT,HB,old,m,./images/SWEATHB.png,,break_done_button,,,,,,,,,,,,,,,,,,,,
,,,,,,,,,,,,,,,,,199855,,2022-01-28_15h55.26.810,lexical_decision_task_DD_L2,2021.2.3,Linux x86_64,61.88118812,,,,,,,,,,,,0.726,1,,,,,,,,,,,,,,z,1,0.726,,,,,,,,0.078703704,-0.372222222,0,0,0,,0,126,126,108,1,GRUET,C,old,z,./images/GRUET.png,,,,,,,,,,,,,,,,,,,,,,
,,,,,,,,,,,,,,,,,199855,,2022-01-28_15h55.26.810,lexical_decision_task_DD_L2,2021.2.3,Linux x86_64,61.88118812,,,,,,,,,,,,0.654,1,,,,,,,,,,,,,,z,1,0.654,,,,,,,,0.078703704,-0.372222222,0,0,0,,0,127,127,149,1,VEASE,LB,old,z,./images/VEASELB.png,,,,,,,,,,,,,,,,,,,,,,
,,,,,,,,,,,,,,,,,199855,,2022-01-28_15h55.26.810,lexical_decision_task_DD_L2,2021.2.3,Linux x86_64,61.88118812,,,,,,,,,,,,0.696,1,,,,,,,,,,,,,,m,1,0.696,,,,,,,,0.078703704,-0.372222222,0,0,0,,0,128,128,83,1,JUNGLE,C,old,m,./images/JUNGLE.png,,,,,,,,,,,,,,,,,,,,,,
,,,,,,,,,,,,,,,,,199855,,2022-01-28_15h55.26.810,lexical_decision_task_DD_L2,2021.2.3,Linux x86_64,61.88118812,,,,,,,,,,,,0.593,1,,,,,,,,,,,,,,z,1,0.593,,,,,,,,0.078703704,-0.372222222,0,0,0,,0,129,129,116,1,BALGY,LB,old,z,./images/BALGYLB.png,,,,,,,,,,,,,,,,,,,,,,
,,,,,,,,,,,,,,,,,199855,,2022-01-28_15h55.26.810,lexical_decision_task_DD_L2,2021.2.3,Linux x86_64,61.88118812,,,,,,,,,,,,0.568,1,,,,,,,,,,,,,,z,1,0.568,,,,,,,,0.078703704,-0.372222222,0,0,0,,0,130,130,86,1,AIFED,LB,old,z,./images/AIFEDLB.png,,,,,,,,,,,,,,,,,,,,,,
,,,,,,,,,,,,,,,,,199855,,2022-01-28_15h55.26.810,lexical_decision_task_DD_L2,2021.2.3,Linux x86_64,61.88118812,,,,,,,,,,,,0.57,1,,,,,,,,,,,,,,m,1,0.57,,,,,,,,0.078703704,-0.372222222,0,0,0,,0,131,131,59,1,BURIAL,C,old,m,./images/BURIAL.png,,,,,,,,,,,,,,,,,,,,,,
,,,,,,,,,,,,,,,,,199855,,2022-01-28_15h55.26.810,lexical_decision_task_DD_L2,2021.2.3,Linux x86_64,61.88118812,,,,,,,,,,,,0.616,1,,,,,,,,,,,,,,z,1,0.616,,,,,,,,0.078703704,-0.372222222,0,0,0,,0,132,132,162,1,LEICH,C,old,z,./images/LEICH.png,,,,,,,,,,,,,,,,,,,,,,
,,,,,,,,,,,,,,,,,199855,,2022-01-28_15h55.26.810,lexical_decision_task_DD_L2,2021.2.3,Linux x86_64,61.88118812,,,,,,,,,,,,1.641,1,,,,,,,,,,,,,,m,1,1.641,,,,,,,,0.134259259,-0.3,0,0,0,,0,133,133,58,1,BABOON,LB,old,m,./images/BABOONLB.png,,,,,,,,,,,,,,,,,,,,,,
,,,,,,,,,,,,,,,,,199855,,2022-01-28_15h55.26.810,lexical_decision_task_DD_L2,2021.2.3,Linux x86_64,61.88118812,,,,,,,,,,,,0.703,1,,,,,,,,,,,,,,z,1,0.703,,,,,,,,0.134259259,-0.3,0,0,0,,0,134,134,93,1,SMONE,C,old,z,./images/SMONE.png,,,,,,,,,,,,,,,,,,,,,,
,,,,,,,,,,,,,,,,,199855,,2022-01-28_15h55.26.810,lexical_decision_task_DD_L2,2021.2.3,Linux x86_64,61.88118812,,,,,,,,,,,,0.946,1,,,,,,,,,,,,,,z,1,0.946,,,,,,,,0.134259259,-0.3,0,0,0,,0,135,135,121,1,CEERS,HB,old,z,./images/CEERSHB.png,,,,,,,,,,,,,,,,,,,,,,
,,,,,,,,,,,,,,,,,199855,,2022-01-28_15h55.26.810,lexical_decision_task_DD_L2,2021.2.3,Linux x86_64,61.88118812,,,,,,,,,,,,0.904,0,,,,,,,,,,,,,,z,0,0.904,,,,,,,,0.134259259,-0.3,0,0,0,,0,136,136,33,1,MAGGOT,HB,old,m,./images/MAGGOTHB.png,,,,,,,,,,,,,,,,,,,,,,
,,,,,,,,,,,,,,,,,199855,,2022-01-28_15h55.26.810,lexical_decision_task_DD_L2,2021.2.3,Linux x86_64,61.88118812,,,,,,,,,,,,0.675,1,,,,,,,,,,,,,,z,1,0.675,,,,,,,,0.134259259,-0.3,0,0,0,,0,137,137,89,1,DRIEK,LB,old,z,./images/DRIEKLB.png,,,,,,,,,,,,,,,,,,,,,,
,,,,,,,,,,,,,,,,,199855,,2022-01-28_15h55.26.810,lexical_decision_task_DD_L2,2021.2.3,Linux x86_64,61.88118812,,,,,,,,,,,,1.031,1,,,,,,,,,,,,,,z,1,1.031,,,,,,,,0.134259259,-0.3,0,0,0,,0,138,138,110,1,CRUNK,LB,old,z,./images/CRUNKLB.png,,,,,,,,,,,,,,,,,,,,,,
,,,,,,,,,,,,,,,,,199855,,2022-01-28_15h55.26.810,lexical_decision_task_DD_L2,2021.2.3,Linux x86_64,61.88118812,,,,,,,,,,,,0.641,1,,,,,,,,,,,,,,m,1,0.641,,,,,,,,0.134259259,-0.3,0,0,0,,0,139,139,23,1,WALRUS,C,old,m,./images/WALRUS.png,,,,,,,,,,,,,,,,,,,,,,
,,,,,,,,,,,,,,,,,199855,,2022-01-28_15h55.26.810,lexical_decision_task_DD_L2,2021.2.3,Linux x86_64,61.88118812,,,,,,,,,,,,0.629,1,,,,,,,,,,,,,,z,1,0.629,,,,,,,,0.134259259,-0.3,0,0,0,,0,140,140,158,1,EGECT,LB,old,z,./images/EGECTLB.png,,,,,,,,,,,,,,,,,,,,,,
,,,,,,,,,,,,,,,,,199855,,2022-01-28_15h55.26.810,lexical_decision_task_DD_L2,2021.2.3,Linux x86_64,61.88118812,,,,,,,,,,,,0.683,1,,,,,,,,,,,,,,m,1,0.683,,,,,,,,0.134259259,-0.3,0,0,0,,0,141,141,77,1,COUCH,C,old,m,./images/COUCH.png,,,,,,,,,,,,,,,,,,,,,,
,,,,,,,,,,,,,,,,,199855,,2022-01-28_15h55.26.810,lexical_decision_task_DD_L2,2021.2.3,Linux x86_64,61.88118812,,,,,,,,,,,,0.855,1,,,,,,,,,,,,,,z,1,0.855,,,,,,,,0.134259259,-0.3,0,0,0,,0,142,142,114,1,RIKES,C,old,z,./images/RIKES.png,,,,,,,,,,,,,,,,,,,,,,
,,,,,,,,,,,,,,,,,199855,,2022-01-28_15h55.26.810,lexical_decision_task_DD_L2,2021.2.3,Linux x86_64,61.88118812,,,,,,,,,,,,0.65,1,,,,,,,,,,,,,,m,1,0.65,,,,,,,,0.134259259,-0.3,0,0,0,,0,143,143,37,1,BIRTH,LB,old,m,./images/BIRTHLB.png,,,,,,,,,,,,,,,,,,,,,,
,,,,,,,,,,,,,,,,,199855,,2022-01-28_15h55.26.810,lexical_decision_task_DD_L2,2021.2.3,Linux x86_64,61.88118812,,,,,,,,,,,,0.663,1,,,,,,,,,,,,,,z,1,0.663,,,,,,,,0.134259259,-0.3,0,0,0,,0,144,144,136,1,WERVE,HB,old,z,./images/WERVEHB.png,,,,,,,,,,,,,,,,,,,,,,
,,,,,,,,,,,,,,,,,199855,,2022-01-28_15h55.26.810,lexical_decision_task_DD_L2,2021.2.3,Linux x86_64,61.88118812,,,,,,,,,,,,0.67,1,,,,,,,,,,,,,,z,1,0.67,,,,,,,,0.134259259,-0.3,0,0,0,,0,145,145,145,1,LAMEL,HB,old,z,./images/LAMELHB.png,,,,,,,,,,,,,,,,,,,,,,
,,,,,,,,,,,,,,,,,199855,,2022-01-28_15h55.26.810,lexical_decision_task_DD_L2,2021.2.3,Linux x86_64,61.88118812,,,,,,,,,,,,0.749,1,,,,,,,,,,,,,,m,1,0.749,,,,,,,,0.134259259,-0.3,0,0,0,,0,146,146,52,1,BANNER,LB,old,m,./images/BANNERLB.png,,,,,,,,,,,,,,,,,,,,,,
,,,,,,,,,,,,,,,,,199855,,2022-01-28_15h55.26.810,lexical_decision_task_DD_L2,2021.2.3,Linux x86_64,61.88118812,,,,,,,,,,,,0.845,1,,,,,,,,,,,,,,m,1,0.845,,,,,,,,0.134259259,-0.3,0,0,0,,0,147,147,81,1,POODLE,HB,old,m,./images/POODLEHB.png,,,,,,,,,,,,,,,,,,,,,,
,,,,,,,,,,,,,,,,,199855,,2022-01-28_15h55.26.810,lexical_decision_task_DD_L2,2021.2.3,Linux x86_64,61.88118812,,,,,,,,,,,,0.714,1,,,,,,,,,,,,,,z,1,0.714,,,,,,,,0.134259259,-0.3,0,0,0,,0,148,148,127,1,NINDY,HB,old,z,./images/NINDYHB.png,,,,,,,,,,,,,,,,,,,,,,
,,,,,,,,,,,,,,,,,199855,,2022-01-28_15h55.26.810,lexical_decision_task_DD_L2,2021.2.3,Linux x86_64,61.88118812,,,,,,,,,,,,0.646,1,,,,,,,,,,,,,,z,1,0.646,,,,,,,,0.134259259,-0.3,0,0,0,,0,149,149,91,1,SHENS,HB,old,z,./images/SHENSHB.png,,,,,,,,,,,,,,,,,,,,,,
,,,,,,,,,,,,,,,,,199855,,2022-01-28_15h55.26.810,lexical_decision_task_DD_L2,2021.2.3,Linux x86_64,61.88118812,,,,,,,,,,,,1.267,1,,,,,,,,,,,,,,m,1,1.267,,,,,,,,0.134259259,-0.3,0,0,0,,0,150,150,69,1,COOKER,HB,old,m,./images/COOKERHB.png,,,,,,,,,,,,,,,,,,,,,,
,,,,,,,,,,,,,,,,,199855,,2022-01-28_15h55.26.810,lexical_decision_task_DD_L2,2021.2.3,Linux x86_64,61.88118812,,,,,,,,,,,,0.835,0,,,,,,,,,,,,,,m,0,0.835,,,,,,,,0.134259259,-0.3,0,0,0,,0,151,151,128,1,GRIFT,LB,old,z,./images/GRIFTLB.png,,,,,,,,,,,,,,,,,,,,,,
,,,,,,,,,,,,,,,,,199855,,2022-01-28_15h55.26.810,lexical_decision_task_DD_L2,2021.2.3,Linux x86_64,61.88118812,,,,,,,,,,,,0.735,1,,,,,,,,,,,,,,m,1,0.735,,,,,,,,0.134259259,-0.3,0,0,0,,0,152,152,75,1,GRAIN,HB,old,m,./images/GRAINHB.png,,,,,,,,,,,,,,,,,,,,,,
,,,,,,,,,,,,,,,,,199855,,2022-01-28_15h55.26.810,lexical_decision_task_DD_L2,2021.2.3,Linux x86_64,61.88118812,,,,,,,,,,,,0.705,1,,,,,,,,,,,,,,m,1,0.705,,,,,,,,0.134259259,-0.3,0,0,0,,0,153,153,50,1,MALLET,C,old,m,./images/MALLET.png,,,,,,,,,,,,,,,,,,,,,,
,,,,,,,,,,,,,,,,,199855,,2022-01-28_15h55.26.810,lexical_decision_task_DD_L2,2021.2.3,Linux x86_64,61.88118812,,,,,,,,,,,,0.795,1,,,,,,,,,,,,,,m,1,0.795,,,,,,,,0.134259259,-0.3,0,0,0,,0,154,154,31,1,QUILL,LB,old,m,./images/QUILLLB.png,,,,,,,,,,,,,,,,,,,,,,
,,,,,,,,,,,,,,,,,199855,,2022-01-28_15h55.26.810,lexical_decision_task_DD_L2,2021.2.3,Linux x86_64,61.88118812,,,,,,,,,,,,0.605,1,,,,,,,,,,,,,,m,1,0.605,,,,,,,,0.134259259,-0.3,0,0,0,,0,155,155,10,1,BELLY,LB,old,m,./images/BELLYLB.png,,,,,,,,,,,,,,,,,,,,,,
,,,,,,,,,,,,,,,,,199855,,2022-01-28_15h55.26.810,lexical_decision_task_DD_L2,2021.2.3,Linux x86_64,61.88118812,,,,,,,,,,,,0.925,1,,,,,,,,,,,,,,z,1,0.925,,,,,,,,0.134259259,-0.3,0,0,0,,0,156,156,99,1,BACKY,C,old,z,./images/BACKY.png,,,,,,,,,,,,,,,,,,,,,,
,,,,,,,,,,,,,,,,,199855,,2022-01-28_15h55.26.810,lexical_decision_task_DD_L2,2021.2.3,Linux x86_64,61.88118812,,,,,,,,,,,,0.674,1,,,,,,,,,,,,,,z,1,0.674,,,,,,,,0.134259259,-0.3,0,0,0,,0,157,157,111,1,HOSSE,C,old,z,./images/HOSSE.png,,,,,,,,,,,,,,,,,,,,,,
,,,,,,,,,,,,,,,,,199855,,2022-01-28_15h55.26.810,lexical_decision_task_DD_L2,2021.2.3,Linux x86_64,61.88118812,,,,,,,,,,,,0.664,1,,,,,,,,,,,,,,z,1,0.664,,,,,,,,0.134259259,-0.3,0,0,0,,0,158,158,126,1,GUELS,C,old,z,./images/GUELS.png,,,,,,,,,,,,,,,,,,,,,,
,,,,,,,,,,,,,,,,,199855,,2022-01-28_15h55.26.810,lexical_decision_task_DD_L2,2021.2.3,Linux x86_64,61.88118812,,,,,,,,,,,,0.703,1,,,,,,,,,,,,,,z,1,0.703,,,,,,,,0.134259259,-0.3,0,0,0,,0,159,159,161,1,BLAPS,LB,old,z,./images/BLAPSLB.png,,,,,,,,,,,,,,,,,,,,,,
,,,,,,,,,,,,,,,,,199855,,2022-01-28_15h55.26.810,lexical_decision_task_DD_L2,2021.2.3,Linux x86_64,61.88118812,,,,,,,,,,,,0.66,1,,,,,,,,,,,,,,z,1,0.66,,,,,,,,0.134259259,-0.3,0,0,0,,0,160,160,165,1,TROWN,C,old,z,./images/TROWN.png,,,,,,,,,,,,,,,,,,,,,,
,,,,,,,,,,,,,,,,,199855,,2022-01-28_15h55.26.810,lexical_decision_task_DD_L2,2021.2.3,Linux x86_64,61.88118812,,,,,,,,,,,,0.533,1,,,,,,,,,,,,,,z,1,0.533,,,,,,,,0.134259259,-0.3,0,0,0,,0,161,161,141,1,PLEET,C,old,z,./images/PLEET.png,,,,,,,,,,,,,,,,,,,,,,
,,,,,,,,,,,,,,,,,199855,,2022-01-28_15h55.26.810,lexical_decision_task_DD_L2,2021.2.3,Linux x86_64,61.88118812,,,,,,,,,,,,0.993,1,,,,,,,,,,,,,,z,1,0.993,,,,,,,,0.134259259,-0.3,0,0,0,,0,162,162,151,1,TINKY,HB,old,z,./images/TINKYHB.png,,,,,,,,,,,,,,,,,,,,,,
,,,,,,,,,,,,,,,,,199855,,2022-01-28_15h55.26.810,lexical_decision_task_DD_L2,2021.2.3,Linux x86_64,61.88118812,,,,,,,,,,,,0.706,1,,,,,,,,,,,,,,m,1,0.706,,,,,,,,0.134259259,-0.3,0,0,0,,0,163,163,27,1,ATTIC,HB,old,m,./images/ATTICHB.png,,,,,,,,,,,,,,,,,,,,,,
,,,,,,,,,,,,,,,,,199855,,2022-01-28_15h55.26.810,lexical_decision_task_DD_L2,2021.2.3,Linux x86_64,61.88118812,,,,,,,,,,,,0.619,1,,,,,,,,,,,,,,m,1,0.619,,,,,,,,0.134259259,-0.3,0,0,0,,0,164,164,67,1,SAILOR,LB,old,m,./images/SAILORLB.png,,,,,,,,,,,,,,,,,,,,,,
,,,,,,,,,,,,,,,,,199855,,2022-01-28_15h55.26.810,lexical_decision_task_DD_L2,2021.2.3,Linux x86_64,61.88118812,,,,,,,,,,,,0.669,1,,,,,,,,,,,,,,z,1,0.669,,,,,,,,0.134259259,-0.3,0,0,0,,0,165,165,139,1,BLEAR,HB,old,z,./images/BLEARHB.png,,,,,,,,,,,,,,,,,,,,,,
,,,,,,,,,,,,,,,,,199855,,2022-01-28_15h55.26.810,lexical_decision_task_DD_L2,2021.2.3,Linux x86_64,61.88118812,,,,,,,,,,,,0.696,1,,,,,,,,,,,,,,z,1,0.696,,,,,,,,0.134259259,-0.3,0,0,0,,0,166,166,167,1,ZONET,LB,old,z,./images/ZONETLB.png,,,,,,,,,,,,,,,,,,,,,,
,,,,,,,,,,,,,,,,,199855,,2022-01-28_15h55.26.810,lexical_decision_task_DD_L2,2021.2.3,Linux x86_64,61.88118812,,,,,,,,,,,,0.782,1,,,,,,,,,,,,,,m,1,0.782,,,,,,,,0.134259259,-0.3,0,0,0,,0,167,167,62,1,PURSE,C,old,m,./images/PURSE.png,,,,,,,,,,,,,,,,,,,,,,
,0.047222222,-0.40462963,1,0,0,instr_done_button,,,,,,1,test,"In the next phase you will be presented with the words from the the first phase. Your job is to decide whether you remember seeing the word or not. If you remember seeing the word press ""old"" or type ""m"". If you do not remember seeing the word press ""new"" or type ""z"". Please press the space bar or click on continue to begin. ",,,199855,,2022-01-28_15h55.26.810,lexical_decision_task_DD_L2,2021.2.3,Linux x86_64,61.88118812,,,,,,,,,,,,,,,,,,,,,,,,,,,,,,,,,,,,,,,,,,,,,,,,,,,,,,,0,0,0,0,1,,,,,,,,,,,,,,,
,0.047222222,-0.40462963,1,0,0,instr_done_button,,,,,,1,test,"In the next phase you will be presented with the words from the the first phase. Your job is to decide whether you remember seeing the word or not. If you remember seeing the word press ""old"" or type ""m"". If you do not remember seeing the word press ""new"" or type ""z"". Please press the space bar or click on continue to begin. ",,,199855,,2022-01-28_15h55.26.810,lexical_decision_task_DD_L2,2021.2.3,Linux x86_64,61.88118812,,,,,,,,,,,,,,,,,,,,,,,,,,,,,,,,,,,,,,,,,,,,,,,,,,,,,,,1,0,1,0,1,,,,,,,,,,,,,,,
,-0.016666667,-0.373148148,1,0,0,instr_done_button,,,,,,1,test,"In the next phase you will be presented with the words from the the first phase. Your job is to decide whether you remember seeing the word or not. If you remember seeing the word press ""old"" or type ""m"". If you do not remember seeing the word press ""new"" or type ""z"". Please press the space bar or click on continue to begin. ",,,199855,,2022-01-28_15h55.26.810,lexical_decision_task_DD_L2,2021.2.3,Linux x86_64,61.88118812,,,,,,,,,,,,,,,,,,,,,,,,,,,,,,,,,,,,,,,,,,,,,,,,,,,,,,,2,0,2,0,1,,,,,,,,,,,,,,,
space,-0.016666667,-0.373148148,0,0,0,,,,,,,1,test,"In the next phase you will be presented with the words from the the first phase. Your job is to decide whether you remember seeing the word or not. If you remember seeing the word press ""old"" or type ""m"". If you do not remember seeing the word press ""new"" or type ""z"". Please press the space bar or click on continue to begin. ",,,199855,,2022-01-28_15h55.26.810,lexical_decision_task_DD_L2,2021.2.3,Linux x86_64,61.88118812,1.017,,,,,,,,,,,,,,,,,,,,,,,,,,,,,,,,,,,,,,,,,,,,,,,,,,,,,,3,0,3,0,1,,,,,,,,,,,,,,,
space,-0.051851852,-0.283333333,0,0,0,,,,,,,1,test,"In the next phase you will be presented with the words from the the first phase. Your job is to decide whether you remember seeing the word or not. If you remember seeing the word press ""old"" or type ""m"". If you do not remember seeing the word press ""new"" or type ""z"". Please press the space bar or click on continue to begin. ",,,199855,,2022-01-28_15h55.26.810,lexical_decision_task_DD_L2,2021.2.3,Linux x86_64,61.88118812,1.633,,,,,,,,,,,,,,,,,,,,,,,,,,,,,,,,,,,,,,,,,,,,,,,,,,,,,,4,0,4,0,1,,,,,,,,,,,,,,,
,,,,,,,,,,,,,,,,,199855,,2022-01-28_15h55.26.810,lexical_decision_task_DD_L2,2021.2.3,Linux x86_64,61.88118812,,,,,,,,,,,,1.746,1,,,,,,,,,,,,,,,,,,,,,,,,-0.051851852,-0.283333333,0,0,0,,,,,,,CEMENT,C,m,y,./images/CEMENT.png,,,,,,,,m,1,1.746,,,,,,,,0,0,0,74,1
,,,,,,,,,,,,,,,,,199855,,2022-01-28_15h55.26.810,lexical_decision_task_DD_L2,2021.2.3,Linux x86_64,61.88118812,,,,,,,,,,,,1.774,1,,,,,,,,,,,,,,,,,,,,,,,,-0.051851852,-0.283333333,0,0,0,,,,,,,WRIST,LB,m,y,./images/WRISTLB.png,,,,,,,,m,1,1.774,,,,,,,,0,1,1,25,1
,,,,,,,,,,,,,,,,,199855,,2022-01-28_15h55.26.810,lexical_decision_task_DD_L2,2021.2.3,Linux x86_64,61.88118812,,,,,,,,,,,,1.031,1,,,,,,,,,,,,,,,,,,,,,,,,-0.051851852,-0.283333333,0,0,0,,,,,,,SHIELD,HB,z,y,./images/SHIELDHB.png,,,,,,,,z,1,1.031,,,,,,,,0,2,2,132,1
,,,,,,,,,,,,,,,,,199855,,2022-01-28_15h55.26.810,lexical_decision_task_DD_L2,2021.2.3,Linux x86_64,61.88118812,,,,,,,,,,,,0.913,1,,,,,,,,,,,,,,,,,,,,,,,,-0.051851852,-0.283333333,0,0,0,,,,,,,TRIPOD,HB,m,y,./images/TRIPODHB.png,,,,,,,,m,1,0.913,,,,,,,,0,3,3,54,1
,,,,,,,,,,,,,,,,,199855,,2022-01-28_15h55.26.810,lexical_decision_task_DD_L2,2021.2.3,Linux x86_64,61.88118812,,,,,,,,,,,,2.123,1,,,,,,,,,,,,,,,,,,,,,,,,-0.051851852,-0.283333333,0,0,0,,,,,,,SMOKER,C,m,y,./images/SMOKER.png,,,,,,,,m,1,2.123,,,,,,,,0,4,4,26,1
,,,,,,,,,,,,,,,,,199855,,2022-01-28_15h55.26.810,lexical_decision_task_DD_L2,2021.2.3,Linux x86_64,61.88118812,,,,,,,,,,,,0.997,1,,,,,,,,,,,,,,,,,,,,,,,,-0.051851852,-0.283333333,0,0,0,,,,,,,ONION,HB,m,y,./images/ONIONHB.png,,,,,,,,m,1,0.997,,,,,,,,0,5,5,51,1
,,,,,,,,,,,,,,,,,199855,,2022-01-28_15h55.26.810,lexical_decision_task_DD_L2,2021.2.3,Linux x86_64,61.88118812,,,,,,,,,,,,0.953,1,,,,,,,,,,,,,,,,,,,,,,,,-0.051851852,-0.283333333,0,0,0,,,,,,,SQUARE,HB,m,y,./images/SQUAREHB.png,,,,,,,,m,1,0.953,,,,,,,,0,6,6,6,1
,,,,,,,,,,,,,,,,,199855,,2022-01-28_15h55.26.810,lexical_decision_task_DD_L2,2021.2.3,Linux x86_64,61.88118812,,,,,,,,,,,,0.917,1,,,,,,,,,,,,,,,,,,,,,,,,-0.051851852,-0.283333333,0,0,0,,,,,,,CANDLE,LB,m,y,./images/CANDLELB.png,,,,,,,,m,1,0.917,,,,,,,,0,7,7,61,1
,,,,,,,,,,,,,,,,,199855,,2022-01-28_15h55.26.810,lexical_decision_task_DD_L2,2021.2.3,Linux x86_64,61.88118812,,,,,,,,,,,,1.135,1,,,,,,,,,,,,,,,,,,,,,,,,-0.051851852,-0.283333333,0,0,0,,,,,,,TIGER,LB,z,y,./images/TIGERLB.png,,,,,,,,z,1,1.135,,,,,,,,0,8,8,121,1
,,,,,,,,,,,,,,,,,199855,,2022-01-28_15h55.26.810,lexical_decision_task_DD_L2,2021.2.3,Linux x86_64,61.88118812,,,,,,,,,,,,0.742,1,,,,,,,,,,,,,,,,,,,,,,,,-0.051851852,-0.283333333,0,0,0,,,,,,,QUILL,LB,m,y,./images/QUILLLB.png,,,,,,,,m,1,0.742,,,,,,,,0,9,9,31,1
,,,,,,,,,,,,,,,,,199855,,2022-01-28_15h55.26.810,lexical_decision_task_DD_L2,2021.2.3,Linux x86_64,61.88118812,,,,,,,,,,,,0.912,0,,,,,,,,,,,,,,,,,,,,,,,,-0.051851852,-0.283333333,0,0,0,,,,,,,JELLY,LB,m,y,./images/JELLYLB.png,,,,,,,,z,0,0.912,,,,,,,,0,10,10,64,1
,,,,,,,,,,,,,,,,,199855,,2022-01-28_15h55.26.810,lexical_decision_task_DD_L2,2021.2.3,Linux x86_64,61.88118812,,,,,,,,,,,,0.768,1,,,,,,,,,,,,,,,,,,,,,,,,-0.051851852,-0.283333333,0,0,0,,,,,,,DESERT,LB,z,y,./images/DESERTLB.png,,,,,,,,z,1,0.768,,,,,,,,0,11,11,136,1
,,,,,,,,,,,,,,,,,199855,,2022-01-28_15h55.26.810,lexical_decision_task_DD_L2,2021.2.3,Linux x86_64,61.88118812,,,,,,,,,,,,1.219,1,,,,,,,,,,,,,,,,,,,,,,,,-0.051851852,-0.283333333,0,0,0,,,,,,,COLLAR,HB,z,y,./images/COLLARHB.png,,,,,,,,z,1,1.219,,,,,,,,0,12,12,99,1
,,,,,,,,,,,,,,,,,199855,,2022-01-28_15h55.26.810,lexical_decision_task_DD_L2,2021.2.3,Linux x86_64,61.88118812,,,,,,,,,,,,0.736,1,,,,,,,,,,,,,,,,,,,,,,,,-0.051851852,-0.283333333,0,0,0,,,,,,,SAUNA,HB,z,y,./images/SAUNAHB.png,,,,,,,,z,1,0.736,,,,,,,,0,13,13,117,1
,,,,,,,,,,,,,,,,,199855,,2022-01-28_15h55.26.810,lexical_decision_task_DD_L2,2021.2.3,Linux x86_64,61.88118812,,,,,,,,,,,,1.748,0,,,,,,,,,,,,,,,,,,,,,,,,-0.051851852,-0.283333333,0,0,0,,,,,,,FINGER,HB,m,y,./images/FINGERHB.png,,,,,,,,z,0,1.748,,,,,,,,0,14,14,3,1
,,,,,,,,,,,,,,,,,199855,,2022-01-28_15h55.26.810,lexical_decision_task_DD_L2,2021.2.3,Linux x86_64,61.88118812,,,,,,,,,,,,2.197,0,,,,,,,,,,,,,,,,,,,,,,,,-0.051851852,-0.283333333,0,0,0,,,,,,,SHELF,HB,m,y,./images/SHELFHB.png,,,,,,,,z,0,2.197,,,,,,,,0,15,15,39,1
,,,,,,,,,,,,,,,,,199855,,2022-01-28_15h55.26.810,lexical_decision_task_DD_L2,2021.2.3,Linux x86_64,61.88118812,,,,,,,,,,,,0.765,1,,,,,,,,,,,,,,,,,,,,,,,,-0.051851852,-0.283333333,0,0,0,,,,,,,POSTER,C,z,y,./images/POSTER.png,,,,,,,,z,1,0.765,,,,,,,,0,16,16,137,1
,,,,,,,,,,,,,,,,,199855,,2022-01-28_15h55.26.810,lexical_decision_task_DD_L2,2021.2.3,Linux x86_64,61.88118812,,,,,,,,,,,,1.255,0,,,,,,,,,,,,,,,,,,,,,,,,-0.051851852,-0.283333333,0,0,0,,,,,,,COUCH,C,m,y,./images/COUCH.png,,,,,,,,z,0,1.255,,,,,,,,0,17,17,77,1
,,,,,,,,,,,,,,,,,199855,,2022-01-28_15h55.26.810,lexical_decision_task_DD_L2,2021.2.3,Linux x86_64,61.88118812,,,,,,,,,,,,1.166,0,,,,,,,,,,,,,,,,,,,,,,,,-0.051851852,-0.283333333,0,0,0,,,,,,,GRAIN,HB,m,y,./images/GRAINHB.png,,,,,,,,z,0,1.166,,,,,,,,0,18,18,75,1
,,,,,,,,,,,,,,,,,199855,,2022-01-28_15h55.26.810,lexical_decision_task_DD_L2,2021.2.3,Linux x86_64,61.88118812,,,,,,,,,,,,0.9,1,,,,,,,,,,,,,,,,,,,,,,,,-0.051851852,-0.283333333,0,0,0,,,,,,,ARROW,HB,z,y,./images/ARROWHB.png,,,,,,,,z,1,0.9,,,,,,,,0,19,19,153,1
,,,,,,,,,,,,,,,,,199855,,2022-01-28_15h55.26.810,lexical_decision_task_DD_L2,2021.2.3,Linux x86_64,61.88118812,,,,,,,,,,,,0.846,0,,,,,,,,,,,,,,,,,,,,,,,,-0.051851852,-0.283333333,0,0,0,,,,,,,BERRY,C,m,y,./images/BERRY.png,,,,,,,,z,0,0.846,,,,,,,,0,20,20,47,1
,,,,,,,,,,,,,,,,,199855,,2022-01-28_15h55.26.810,lexical_decision_task_DD_L2,2021.2.3,Linux x86_64,61.88118812,,,,,,,,,,,,1.189,1,,,,,,,,,,,,,,,,,,,,,,,,-0.051851852,-0.283333333,0,0,0,,,,,,,BRIDE,LB,z,y,./images/BRIDELB.png,,,,,,,,z,1,1.189,,,,,,,,0,21,21,148,1
,,,,,,,,,,,,,,,,,199855,,2022-01-28_15h55.26.810,lexical_decision_task_DD_L2,2021.2.3,Linux x86_64,61.88118812,,,,,,,,,,,,1.534,1,,,,,,,,,,,,,,,,,,,,,,,,-0.051851852,-0.283333333,0,0,0,,,,,,,BROOM,HB,z,y,./images/BROOMHB.png,,,,,,,,z,1,1.534,,,,,,,,0,22,22,162,1
,,,,,,,,,,,,,,,,,199855,,2022-01-28_15h55.26.810,lexical_decision_task_DD_L2,2021.2.3,Linux x86_64,61.88118812,,,,,,,,,,,,0.659,1,,,,,,,,,,,,,,,,,,,,,,,,-0.051851852,-0.283333333,0,0,0,,,,,,,COOKER,HB,m,y,./images/COOKERHB.png,,,,,,,,m,1,0.659,,,,,,,,0,23,23,69,1
,,,,,,,,,,,,,,,,,199855,,2022-01-28_15h55.26.810,lexical_decision_task_DD_L2,2021.2.3,Linux x86_64,61.88118812,,,,,,,,,,,,0.897,1,,,,,,,,,,,,,,,,,,,,,,,,-0.051851852,-0.283333333,0,0,0,,,,,,,STEAK,LB,z,y,./images/STEAKLB.png,,,,,,,,z,1,0.897,,,,,,,,0,24,24,115,1
,,,,,,,,,,,,,,,,,199855,,2022-01-28_15h55.26.810,lexical_decision_task_DD_L2,2021.2.3,Linux x86_64,61.88118812,,,,,,,,,,,,1.357,0,,,,,,,,,,,,,,,,,,,,,,,,-0.051851852,-0.283333333,0,0,0,,,,,,,KITTEN,HB,m,y,./images/KITTENHB.png,,,,,,,,z,0,1.357,,,,,,,,0,25,25,45,1
,,,,,,,,,,,,,,,,,199855,,2022-01-28_15h55.26.810,lexical_decision_task_DD_L2,2021.2.3,Linux x86_64,61.88118812,,,,,,,,,,,,1.166,0,,,,,,,,,,,,,,,,,,,,,,,,-0.051851852,-0.283333333,0,0,0,,,,,,,BOILER,HB,z,y,./images/BOILERHB.png,,,,,,,,m,0,1.166,,,,,,,,0,26,26,120,1
,,,,,,,,,,,,,,,,,199855,,2022-01-28_15h55.26.810,lexical_decision_task_DD_L2,2021.2.3,Linux x86_64,61.88118812,,,,,,,,,,,,0.665,1,,,,,,,,,,,,,,,,,,,,,,,,-0.051851852,-0.283333333,0,0,0,,,,,,,STRING,C,m,y,./images/STRING.png,,,,,,,,m,1,0.665,,,,,,,,0,27,27,41,1
,,,,,,,,,,,,,,,,,199855,,2022-01-28_15h55.26.810,lexical_decision_task_DD_L2,2021.2.3,Linux x86_64,61.88118812,,,,,,,,,,,,1.447,1,,,,,,,,,,,,,,,,,,,,,,,,-0.051851852,-0.283333333,0,0,0,,,,,,,STOOL,LB,z,y,./images/STOOLLB.png,,,,,,,,z,1,1.447,,,,,,,,0,28,28,127,1
,,,,,,,,,,,,,,,,,199855,,2022-01-28_15h55.26.810,lexical_decision_task_DD_L2,2021.2.3,Linux x86_64,61.88118812,,,,,,,,,,,,1.216,0,,,,,,,,,,,,,,,,,,,,,,,,-0.051851852,-0.283333333,0,0,0,,,,,,,KIDNEY,HB,m,y,./images/KIDNEYHB.png,,,,,,,,z,0,1.216,,,,,,,,0,29,29,21,1
,,,,,,,,,,,,,,,,,199855,,2022-01-28_15h55.26.810,lexical_decision_task_DD_L2,2021.2.3,Linux x86_64,61.88118812,,,,,,,,,,,,1.135,1,,,,,,,,,,,,,,,,,,,,,,,,-0.051851852,-0.283333333,0,0,0,,,,,,,PENCE,LB,m,y,./images/PENCELB.png,,,,,,,,m,1,1.135,,,,,,,,0,30,30,16,1
,,,,,,,,,,,,,,,,,199855,,2022-01-28_15h55.26.810,lexical_decision_task_DD_L2,2021.2.3,Linux x86_64,61.88118812,,,,,,,,,,,,1.093,1,,,,,,,,,,,,,,,,,,,,,,,,-0.051851852,-0.283333333,0,0,0,,,,,,,MAMMAL,C,z,y,./images/MAMMAL.png,,,,,,,,z,1,1.093,,,,,,,,0,31,31,146,1
,,,,,,,,,,,,,,,,,199855,,2022-01-28_15h55.26.810,lexical_decision_task_DD_L2,2021.2.3,Linux x86_64,61.88118812,,,,,,,,,,,,0.739,1,,,,,,,,,,,,,,,,,,,,,,,,-0.051851852,-0.283333333,0,0,0,,,,,,,PACKET,C,m,y,./images/PACKET.png,,,,,,,,m,1,0.739,,,,,,,,0,32,32,56,1
,,,,,,,,,,,,,,,,,199855,,2022-01-28_15h55.26.810,lexical_decision_task_DD_L2,2021.2.3,Linux x86_64,61.88118812,,,,,,,,,,,,0.692,1,,,,,,,,,,,,,,,,,,,,,,,,-0.051851852,-0.283333333,0,0,0,,,,,,,RHINO,HB,m,y,./images/RHINOHB.png,,,,,,,,m,1,0.692,,,,,,,,0,33,33,9,1
,,,,,,,,,,,,,,,,,199855,,2022-01-28_15h55.26.810,lexical_decision_task_DD_L2,2021.2.3,Linux x86_64,61.88118812,,,,,,,,,,,,0.785,0,,,,,,,,,,,,,,,,,,,,,,,,-0.051851852,-0.283333333,0,0,0,,,,,,,STORM,HB,m,y,./images/STORMHB.png,,,,,,,,z,0,0.785,,,,,,,,0,34,34,30,1
,,,,,,,,,,,,,,,,,199855,,2022-01-28_15h55.26.810,lexical_decision_task_DD_L2,2021.2.3,Linux x86_64,61.88118812,,,,,,,,,,,,0.799,0,,,,,,,,,,,,,,,,,,,,,,,,-0.051851852,-0.283333333,0,0,0,,,,,,,GLOVE,LB,z,y,./images/GLOVELB.png,,,,,,,,m,0,0.799,,,,,,,,0,35,35,157,1
,,,,,,,,,,,,,,,,,199855,,2022-01-28_15h55.26.810,lexical_decision_task_DD_L2,2021.2.3,Linux x86_64,61.88118812,,,,,,,,,,,,0.653,1,,,,,,,,,,,,,,,,,,,,,,,,-0.051851852,-0.283333333,0,0,0,,,,,,,ARTIST,LB,z,y,./images/ARTISTLB.png,,,,,,,,z,1,0.653,,,,,,,,0,36,36,145,1
,,,,,,,,,,,,,,,,,199855,,2022-01-28_15h55.26.810,lexical_decision_task_DD_L2,2021.2.3,Linux x86_64,61.88118812,,,,,,,,,,,,0.974,1,,,,,,,,,,,,,,,,,,,,,,,,-0.051851852,-0.283333333,0,0,0,,,,,,,TOWEL,LB,z,y,./images/TOWELLB.png,,,,,,,,z,1,0.974,,,,,,,,0,37,37,85,1
,,,,,,,,,,,,,,,,,199855,,2022-01-28_15h55.26.810,lexical_decision_task_DD_L2,2021.2.3,Linux x86_64,61.88118812,,,,,,,,,,,,0.876,0,,,,,,,,,,,,,,,,,,,,,,,,-0.051851852,-0.283333333,0,0,0,,,,,,,PEARL,LB,m,y,./images/PEARLLB.png,,,,,,,,z,0,0.876,,,,,,,,0,38,38,46,1
,,,,,,,,,,,,,,,,,199855,,2022-01-28_15h55.26.810,lexical_decision_task_DD_L2,2021.2.3,Linux x86_64,61.88118812,,,,,,,,,,,,0.618,1,,,,,,,,,,,,,,,,,,,,,,,,-0.051851852,-0.283333333,0,0,0,,,,,,,LLAMA,C,z,y,./images/LLAMA.png,,,,,,,,z,1,0.618,,,,,,,,0,39,39,119,1
,,,,,,,,,,,,,,,,,199855,,2022-01-28_15h55.26.810,lexical_decision_task_DD_L2,2021.2.3,Linux x86_64,61.88118812,,,,,,,,,,,,0.733,1,,,,,,,,,,,,,,,,,,,,,,,,-0.051851852,-0.283333333,0,0,0,,,,,,,TORCH,C,m,y,./images/TORCH.png,,,,,,,,m,1,0.733,,,,,,,,0,40,40,68,1
,,,,,,,,,,,,,,,,,199855,,2022-01-28_15h55.26.810,lexical_decision_task_DD_L2,2021.2.3,Linux x86_64,61.88118812,,,,,,,,,,,,1.074,0,,,,,,,,,,,,,,,,,,,,,,,,-0.051851852,-0.283333333,0,0,0,space,,,,,,BRUSH,C,z,y,./images/BRUSH.png,1.177,,,,,,,m,0,1.074,,,,,,,,0,41,41,143,1
,,,,,,,,,,,,,,,,,199855,,2022-01-28_15h55.26.810,lexical_decision_task_DD_L2,2021.2.3,Linux x86_64,61.88118812,,,,,,,,,,,,0.904,1,,,,,,,,,,,,,,,,,,,,,,,,-0.051851852,-0.283333333,0,0,0,,,,,,,CRUST,LB,m,y,./images/CRUSTLB.png,,,,,,,,m,1,0.904,,,,,,,,0,42,42,79,1
,,,,,,,,,,,,,,,,,199855,,2022-01-28_15h55.26.810,lexical_decision_task_DD_L2,2021.2.3,Linux x86_64,61.88118812,,,,,,,,,,,,1.189,1,,,,,,,,,,,,,,,,,,,,,,,,-0.051851852,-0.283333333,0,0,0,,,,,,,BARREL,C,m,y,./images/BARREL.png,,,,,,,,m,1,1.189,,,,,,,,0,43,43,32,1
,,,,,,,,,,,,,,,,,199855,,2022-01-28_15h55.26.810,lexical_decision_task_DD_L2,2021.2.3,Linux x86_64,61.88118812,,,,,,,,,,,,1.124,1,,,,,,,,,,,,,,,,,,,,,,,,-0.051851852,-0.283333333,0,0,0,,,,,,,URINE,LB,m,y,./images/URINELB.png,,,,,,,,m,1,1.124,,,,,,,,0,44,44,70,1
,,,,,,,,,,,,,,,,,199855,,2022-01-28_15h55.26.810,lexical_decision_task_DD_L2,2021.2.3,Linux x86_64,61.88118812,,,,,,,,,,,,1.795,1,,,,,,,,,,,,,,,,,,,,,,,,-0.051851852,-0.283333333,0,0,0,,,,,,,CHALK,LB,z,y,./images/CHALKLB.png,,,,,,,,z,1,1.795,,,,,,,,0,45,45,109,1
,,,,,,,,,,,,,,,,,199855,,2022-01-28_15h55.26.810,lexical_decision_task_DD_L2,2021.2.3,Linux x86_64,61.88118812,,,,,,,,,,,,0.819,0,,,,,,,,,,,,,,,,,,,,,,,,-0.051851852,-0.283333333,0,0,0,,,,,,,SWING,LB,m,y,./images/SWINGLB.png,,,,,,,,z,0,0.819,,,,,,,,0,46,46,40,1
,,,,,,,,,,,,,,,,,199855,,2022-01-28_15h55.26.810,lexical_decision_task_DD_L2,2021.2.3,Linux x86_64,61.88118812,,,,,,,,,,,,0.752,1,,,,,,,,,,,,,,,,,,,,,,,,-0.051851852,-0.283333333,0,0,0,,,,,,,DANCER,HB,z,y,./images/DANCERHB.png,,,,,,,,z,1,0.752,,,,,,,,0,47,47,105,1
,,,,,,,,,,,,,,,,,199855,,2022-01-28_15h55.26.810,lexical_decision_task_DD_L2,2021.2.3,Linux x86_64,61.88118812,,,,,,,,,,,,0.863,0,,,,,,,,,,,,,,,,,,,,,,,,-0.051851852,-0.283333333,0,0,0,,,,,,,SUNSET,LB,m,y,./images/SUNSETLB.png,,,,,,,,z,0,0.863,,,,,,,,0,48,48,82,1
,,,,,,,,,,,,,,,,,199855,,2022-01-28_15h55.26.810,lexical_decision_task_DD_L2,2021.2.3,Linux x86_64,61.88118812,,,,,,,,,,,,0.877,1,,,,,,,,,,,,,,,,,,,,,,,,-0.051851852,-0.283333333,0,0,0,,,,,,,BAMBOO,C,z,y,./images/BAMBOO.png,,,,,,,,z,1,0.877,,,,,,,,0,49,49,89,1
,,,,,,,,,,,,,,,,,199855,,2022-01-28_15h55.26.810,lexical_decision_task_DD_L2,2021.2.3,Linux x86_64,61.88118812,,,,,,,,,,,,0.732,1,,,,,,,,,,,,,,,,,,,,,,,,-0.051851852,-0.283333333,0,0,0,,,,,,,PLANET,C,z,y,./images/PLANET.png,,,,,,,,z,1,0.732,,,,,,,,0,50,50,164,1
,,,,,,,,,,,,,,,,,199855,,2022-01-28_15h55.26.810,lexical_decision_task_DD_L2,2021.2.3,Linux x86_64,61.88118812,,,,,,,,,,,,0.976,0,,,,,,,,,,,,,,,,,,,,,,,,-0.051851852,-0.283333333,0,0,0,,,,,,,LADDER,C,m,y,./images/LADDER.png,,,,,,,,z,0,0.976,,,,,,,,0,51,51,38,1
,,,,,,,,,,,,,,,,,199855,,2022-01-28_15h55.26.810,lexical_decision_task_DD_L2,2021.2.3,Linux x86_64,61.88118812,,,,,,,,,,,,0.789,1,,,,,,,,,,,,,,,,,,,,,,,,-0.051851852,-0.283333333,0,0,0,,,,,,,GARDEN,LB,z,y,./images/GARDENLB.png,,,,,,,,z,1,0.789,,,,,,,,0,52,52,94,1
,,,,,,,,,,,,,,,,,199855,,2022-01-28_15h55.26.810,lexical_decision_task_DD_L2,2021.2.3,Linux x86_64,61.88118812,,,,,,,,,,,,1.135,1,,,,,,,,,,,,,,,,,,,,,,,,-0.051851852,-0.283333333,0,0,0,,,,,,,LITTER,HB,m,y,./images/LITTERHB.png,,,,,,,,m,1,1.135,,,,,,,,0,53,53,78,1
,,,,,,,,,,,,,,,,,199855,,2022-01-28_15h55.26.810,lexical_decision_task_DD_L2,2021.2.3,Linux x86_64,61.88118812,,,,,,,,,,,,1.024,0,,,,,,,,,,,,,,,,,,,,,,,,-0.051851852,-0.283333333,0,0,0,,,,,,,MAGGOT,HB,m,y,./images/MAGGOTHB.png,,,,,,,,z,0,1.024,,,,,,,,0,54,54,33,1
,,,,,,,,,,,,,,,,,199855,,2022-01-28_15h55.26.810,lexical_decision_task_DD_L2,2021.2.3,Linux x86_64,61.88118812,,,,,,,,,,,,0.848,1,,,,,,,,,,,,,,,,,,,,,,,,-0.051851852,-0.283333333,0,0,0,,,,,,,SKIING,C,m,y,./images/SKIING.png,,,,,,,,m,1,0.848,,,,,,,,0,55,55,17,1
,,,,,,,,,,,,,,,,,199855,,2022-01-28_15h55.26.810,lexical_decision_task_DD_L2,2021.2.3,Linux x86_64,61.88118812,,,,,,,,,,,,0.861,1,,,,,,,,,,,,,,,,,,,,,,,,-0.051851852,-0.283333333,0,0,0,,,,,,,PASTA,C,m,y,./images/PASTA.png,,,,,,,,m,1,0.861,,,,,,,,0,56,56,5,1
,,,,,,,,,,,,,,,,,199855,,2022-01-28_15h55.26.810,lexical_decision_task_DD_L2,2021.2.3,Linux x86_64,61.88118812,,,,,,,,,,,,17.258,0,,,,,,,,,,,,,,,,,,,,,,,,0.005555556,-0.138888889,0,0,0,,,,,,,CARPET,C,m,y,./images/CARPET.png,,,,,,,,z,0,17.258,0.005555556,-0.138888889,1,0,0,17.057,,0,57,57,53,1
,,,,,,,,,,,,,,,,,199855,,2022-01-28_15h55.26.810,lexical_decision_task_DD_L2,2021.2.3,Linux x86_64,61.88118812,,,,,,,,,,,,0.764,1,,,,,,,,,,,,,,,,,,,,,,,,0.005555556,-0.138888889,0,0,0,,,,,,,CASINO,LB,z,y,./images/CASINOLB.png,,,,,,,,z,1,0.764,,,,,,,,0,58,58,112,1
,,,,,,,,,,,,,,,,,199855,,2022-01-28_15h55.26.810,lexical_decision_task_DD_L2,2021.2.3,Linux x86_64,61.88118812,,,,,,,,,,,,0.848,1,,,,,,,,,,,,,,,,,,,,,,,,0.005555556,-0.138888889,0,0,0,,,,,,,WHEEL,C,z,y,./images/WHEEL.png,,,,,,,,z,1,0.848,,,,,,,,0,59,59,161,1
,,,,,,,,,,,,,,,,,199855,,2022-01-28_15h55.26.810,lexical_decision_task_DD_L2,2021.2.3,Linux x86_64,61.88118812,,,,,,,,,,,,1.696,1,,,,,,,,,,,,,,,,,,,,,,,,0.005555556,-0.138888889,0,0,0,,,,,,,SAILOR,LB,m,y,./images/SAILORLB.png,,,,,,,,m,1,1.696,,,,,,,,0,60,60,67,1
,,,,,,,,,,,,,,,,,199855,,2022-01-28_15h55.26.810,lexical_decision_task_DD_L2,2021.2.3,Linux x86_64,61.88118812,,,,,,,,,,,,0.652,1,,,,,,,,,,,,,,,,,,,,,,,,0.005555556,-0.138888889,0,0,0,,,,,,,CRATER,HB,z,y,./images/CRATERHB.png,,,,,,,,z,1,0.652,,,,,,,,0,61,61,87,1
,,,,,,,,,,,,,,,,,199855,,2022-01-28_15h55.26.810,lexical_decision_task_DD_L2,2021.2.3,Linux x86_64,61.88118812,,,,,,,,,,,,0.609,1,,,,,,,,,,,,,,,,,,,,,,,,0.005555556,-0.138888889,0,0,0,,,,,,,GRANNY,C,z,y,./images/GRANNY.png,,,,,,,,z,1,0.609,,,,,,,,0,62,62,104,1
,,,,,,,,,,,,,,,,,199855,,2022-01-28_15h55.26.810,lexical_decision_task_DD_L2,2021.2.3,Linux x86_64,61.88118812,,,,,,,,,,,,1.099,1,,,,,,,,,,,,,,,,,,,,,,,,0.005555556,-0.138888889,0,0,0,,,,,,,CRUMB,C,m,y,./images/CRUMB.png,,,,,,,,m,1,1.099,,,,,,,,0,63,63,29,1
,,,,,,,,,,,,,,,,,199855,,2022-01-28_15h55.26.810,lexical_decision_task_DD_L2,2021.2.3,Linux x86_64,61.88118812,,,,,,,,,,,,0.713,1,,,,,,,,,,,,,,,,,,,,,,,,0.005555556,-0.138888889,0,0,0,,,,,,,ENGINE,C,z,y,./images/ENGINE.png,,,,,,,,z,1,0.713,,,,,,,,0,64,64,122,1
,,,,,,,,,,,,,,,,,199855,,2022-01-28_15h55.26.810,lexical_decision_task_DD_L2,2021.2.3,Linux x86_64,61.88118812,,,,,,,,,,,,0.933,1,,,,,,,,,,,,,,,,,,,,,,,,0.005555556,-0.138888889,0,0,0,,,,,,,BAKER,HB,z,y,./images/BAKERHB.png,,,,,,,,z,1,0.933,,,,,,,,0,65,65,147,1
,,,,,,,,,,,,,,,,,199855,,2022-01-28_15h55.26.810,lexical_decision_task_DD_L2,2021.2.3,Linux x86_64,61.88118812,,,,,,,,,,,,0.611,0,,,,,,,,,,,,,,,,,,,,,,,,0.005555556,-0.138888889,0,0,0,,,,,,,PICKLE,C,m,y,./images/PICKLE.png,,,,,,,,z,0,0.611,,,,,,,,0,66,66,14,1
,,,,,,,,,,,,,,,,,199855,,2022-01-28_15h55.26.810,lexical_decision_task_DD_L2,2021.2.3,Linux x86_64,61.88118812,,,,,,,,,,,,0.791,0,,,,,,,,,,,,,,,,,,,,,,,,0.005555556,-0.138888889,0,0,0,,,,,,,BASKET,C,z,y,./images/BASKET.png,,,,,,,,m,0,0.791,,,,,,,,0,67,67,128,1
,,,,,,,,,,,,,,,,,199855,,2022-01-28_15h55.26.810,lexical_decision_task_DD_L2,2021.2.3,Linux x86_64,61.88118812,,,,,,,,,,,,0.72,0,,,,,,,,,,,,,,,,,,,,,,,,0.005555556,-0.138888889,0,0,0,,,,,,,THROAT,HB,m,y,./images/THROATHB.png,,,,,,,,z,0,0.72,,,,,,,,0,68,68,36,1
,,,,,,,,,,,,,,,,,199855,,2022-01-28_15h55.26.810,lexical_decision_task_DD_L2,2021.2.3,Linux x86_64,61.88118812,,,,,,,,,,,,0.611,1,,,,,,,,,,,,,,,,,,,,,,,,0.005555556,-0.138888889,0,0,0,,,,,,,BOXER,LB,z,y,./images/BOXERLB.png,,,,,,,,z,1,0.611,,,,,,,,0,69,69,88,1
,,,,,,,,,,,,,,,,,199855,,2022-01-28_15h55.26.810,lexical_decision_task_DD_L2,2021.2.3,Linux x86_64,61.88118812,,,,,,,,,,,,0.615,1,,,,,,,,,,,,,,,,,,,,,,,,0.005555556,-0.138888889,0,0,0,,,,,,,CURRY,HB,z,y,./images/CURRYHB.png,,,,,,,,z,1,0.615,,,,,,,,0,70,70,144,1
,,,,,,,,,,,,,,,,,199855,,2022-01-28_15h55.26.810,lexical_decision_task_DD_L2,2021.2.3,Linux x86_64,61.88118812,,,,,,,,,,,,0.795,0,,,,,,,,,,,,,,,,,,,,,,,,0.005555556,-0.138888889,0,0,0,,,,,,,JUNGLE,C,m,y,./images/JUNGLE.png,,,,,,,,z,0,0.795,,,,,,,,0,71,71,83,1
,,,,,,,,,,,,,,,,,199855,,2022-01-28_15h55.26.810,lexical_decision_task_DD_L2,2021.2.3,Linux x86_64,61.88118812,,,,,,,,,,,,0.765,1,,,,,,,,,,,,,,,,,,,,,,,,0.005555556,-0.138888889,0,0,0,,,,,,,BISHOP,LB,z,y,./images/BISHOPLB.png,,,,,,,,z,1,0.765,,,,,,,,0,72,72,133,1
,,,,,,,,,,,,,,,,,199855,,2022-01-28_15h55.26.810,lexical_decision_task_DD_L2,2021.2.3,Linux x86_64,61.88118812,,,,,,,,,,,,2.223,1,,,,,,,,,,,,,,,,,,,,,,,,0.005555556,-0.138888889,0,0,0,,,,,,,MUSCLE,LB,m,y,./images/MUSCLELB.png,,,,,,,,m,1,2.223,,,,,,,,0,73,73,4,1
,,,,,,,,,,,,,,,,,199855,,2022-01-28_15h55.26.810,lexical_decision_task_DD_L2,2021.2.3,Linux x86_64,61.88118812,,,,,,,,,,,,0.696,1,,,,,,,,,,,,,,,,,,,,,,,,0.005555556,-0.138888889,0,0,0,,,,,,,HOCKEY,C,z,y,./images/HOCKEY.png,,,,,,,,z,1,0.696,,,,,,,,0,74,74,116,1
,,,,,,,,,,,,,,,,,199855,,2022-01-28_15h55.26.810,lexical_decision_task_DD_L2,2021.2.3,Linux x86_64,61.88118812,,,,,,,,,,,,1.266,0,,,,,,,,,,,,,,,,,,,,,,,,0.005555556,-0.138888889,0,0,0,,,,,,,MUMMY,LB,z,y,./images/MUMMYLB.png,,,,,,,,m,0,1.266,,,,,,,,0,75,75,130,1
,,,,,,,,,,,,,,,,,199855,,2022-01-28_15h55.26.810,lexical_decision_task_DD_L2,2021.2.3,Linux x86_64,61.88118812,,,,,,,,,,,,1.05,0,,,,,,,,,,,,,,,,,,,,,,,,0.005555556,-0.138888889,0,0,0,,,,,,,PAINT,LB,m,y,./images/PAINTLB.png,,,,,,,,z,0,1.05,,,,,,,,0,76,76,7,1
,,,,,,,,,,,,,,,,,199855,,2022-01-28_15h55.26.810,lexical_decision_task_DD_L2,2021.2.3,Linux x86_64,61.88118812,,,,,,,,,,,,0.933,1,,,,,,,,,,,,,,,,,,,,,,,,0.005555556,-0.138888889,0,0,0,,,,,,,BANANA,LB,z,y,./images/BANANALB.png,,,,,,,,z,1,0.933,,,,,,,,0,77,77,154,1
,,,,,,,,,,,,,,,,,199855,,2022-01-28_15h55.26.810,lexical_decision_task_DD_L2,2021.2.3,Linux x86_64,61.88118812,,,,,,,,,,,,0.688,1,,,,,,,,,,,,,,,,,,,,,,,,0.005555556,-0.138888889,0,0,0,,,,,,,CLOUD,C,z,y,./images/CLOUD.png,,,,,,,,z,1,0.688,,,,,,,,0,78,78,110,1
,,,,,,,,,,,,,,,,,199855,,2022-01-28_15h55.26.810,lexical_decision_task_DD_L2,2021.2.3,Linux x86_64,61.88118812,,,,,,,,,,,,0.7,0,,,,,,,,,,,,,,,,,,,,,,,,0.005555556,-0.138888889,0,0,0,,,,,,,GREASE,HB,m,y,./images/GREASEHB.png,,,,,,,,z,0,0.7,,,,,,,,0,79,79,15,1
,,,,,,,,,,,,,,,,,199855,,2022-01-28_15h55.26.810,lexical_decision_task_DD_L2,2021.2.3,Linux x86_64,61.88118812,,,,,,,,,,,,1.445,1,,,,,,,,,,,,,,,,,,,,,,,,0.005555556,-0.138888889,0,0,0,,,,,,,DONKEY,LB,z,y,./images/DONKEYLB.png,,,,,,,,z,1,1.445,,,,,,,,0,80,80,103,1
,,,,,,,,,,,,,,,,,199855,,2022-01-28_15h55.26.810,lexical_decision_task_DD_L2,2021.2.3,Linux x86_64,61.88118812,,,,,,,,,,,,2.025,0,,,,,,,,,,,,,,,,,,,,,,,,0.005555556,-0.138888889,0,0,0,,,,,,,BEARD,C,m,y,./images/BEARD.png,,,,,,,,z,0,2.025,,,,,,,,0,81,81,2,1
,,,,,,,,,,,,,,,,,199855,,2022-01-28_15h55.26.810,lexical_decision_task_DD_L2,2021.2.3,Linux x86_64,61.88118812,,,,,,,,,,,,0.56,1,,,,,,,,,,,,,,,,,,,,,,,,0.005555556,-0.138888889,0,0,0,,,,,,,ALLEY,LB,z,y,./images/ALLEYLB.png,,,,,,,,z,1,0.56,,,,,,,,0,82,82,139,1
,,,,,,,,,,,,,,,,,199855,,2022-01-28_15h55.26.810,lexical_decision_task_DD_L2,2021.2.3,Linux x86_64,61.88118812,,,,,,,,,,,,0.77,1,,,,,,,,,,,,,,,,,,,,,,,,0.005555556,-0.138888889,0,0,0,space,,,,,,MALLET,C,m,y,./images/MALLET.png,1.619,,,,,,,m,1,0.77,,,,,,,,0,83,83,50,1
,,,,,,,,,,,,,,,,,199855,,2022-01-28_15h55.26.810,lexical_decision_task_DD_L2,2021.2.3,Linux x86_64,61.88118812,,,,,,,,,,,,0.644,0,,,,,,,,,,,,,,,,,,,,,,,,0.005555556,-0.138888889,0,0,0,,,,,,,TULIP,C,m,y,./images/TULIP.png,,,,,,,,z,0,0.644,,,,,,,,0,84,84,8,1
,,,,,,,,,,,,,,,,,199855,,2022-01-28_15h55.26.810,lexical_decision_task_DD_L2,2021.2.3,Linux x86_64,61.88118812,,,,,,,,,,,,2.162,0,,,,,,,,,,,,,,,,,,,,,,,,0.005555556,-0.138888889,0,0,0,,,,,,,WAGON,LB,z,y,./images/WAGONLB.png,,,,,,,,m,0,2.162,,,,,,,,0,85,85,91,1
,,,,,,,,,,,,,,,,,199855,,2022-01-28_15h55.26.810,lexical_decision_task_DD_L2,2021.2.3,Linux x86_64,61.88118812,,,,,,,,,,,,0.82,0,,,,,,,,,,,,,,,,,,,,,,,,0.005555556,-0.138888889,0,0,0,,,,,,,JAGUAR,HB,m,y,./images/JAGUARHB.png,,,,,,,,z,0,0.82,,,,,,,,0,86,86,18,1
,,,,,,,,,,,,,,,,,199855,,2022-01-28_15h55.26.810,lexical_decision_task_DD_L2,2021.2.3,Linux x86_64,61.88118812,,,,,,,,,,,,0.967,0,,,,,,,,,,,,,,,,,,,,,,,,0.005555556,-0.138888889,0,0,0,,,,,,,CANYON,LB,m,y,./images/CANYONLB.png,,,,,,,,z,0,0.967,,,,,,,,0,87,87,34,1
,,,,,,,,,,,,,,,,,199855,,2022-01-28_15h55.26.810,lexical_decision_task_DD_L2,2021.2.3,Linux x86_64,61.88118812,,,,,,,,,,,,0.671,0,,,,,,,,,,,,,,,,,,,,,,,,0.005555556,-0.138888889,0,0,0,,,,,,,FARMER,C,m,y,./images/FARMER.png,,,,,,,,z,0,0.671,,,,,,,,0,88,88,65,1
,,,,,,,,,,,,,,,,,199855,,2022-01-28_15h55.26.810,lexical_decision_task_DD_L2,2021.2.3,Linux x86_64,61.88118812,,,,,,,,,,,,0.801,1,,,,,,,,,,,,,,,,,,,,,,,,0.005555556,-0.138888889,0,0,0,,,,,,,NOOSE,HB,m,y,./images/NOOSEHB.png,,,,,,,,m,1,0.801,,,,,,,,0,89,89,72,1
,,,,,,,,,,,,,,,,,199855,,2022-01-28_15h55.26.810,lexical_decision_task_DD_L2,2021.2.3,Linux x86_64,61.88118812,,,,,,,,,,,,1.67,0,,,,,,,,,,,,,,,,,,,,,,,,0.005555556,-0.138888889,0,0,0,,,,,,,TWINS,HB,m,y,./images/TWINSHB.png,,,,,,,,z,0,1.67,,,,,,,,0,90,90,60,1
,,,,,,,,,,,,,,,,,199855,,2022-01-28_15h55.26.810,lexical_decision_task_DD_L2,2021.2.3,Linux x86_64,61.88118812,,,,,,,,,,,,1.129,0,,,,,,,,,,,,,,,,,,,,,,,,0.005555556,-0.138888889,0,0,0,,,,,,,ATTIC,HB,m,y,./images/ATTICHB.png,,,,,,,,z,0,1.129,,,,,,,,0,91,91,27,1
,,,,,,,,,,,,,,,,,199855,,2022-01-28_15h55.26.810,lexical_decision_task_DD_L2,2021.2.3,Linux x86_64,61.88118812,,,,,,,,,,,,0.544,1,,,,,,,,,,,,,,,,,,,,,,,,0.005555556,-0.138888889,0,0,0,,,,,,,STAIN,HB,z,y,./images/STAINHB.png,,,,,,,,z,1,0.544,,,,,,,,0,92,92,90,1
,,,,,,,,,,,,,,,,,199855,,2022-01-28_15h55.26.810,lexical_decision_task_DD_L2,2021.2.3,Linux x86_64,61.88118812,,,,,,,,,,,,0.801,1,,,,,,,,,,,,,,,,,,,,,,,,0.005555556,-0.138888889,0,0,0,,,,,,,RAZOR,LB,z,y,./images/RAZORLB.png,,,,,,,,z,1,0.801,,,,,,,,0,93,93,118,1
,,,,,,,,,,,,,,,,,199855,,2022-01-28_15h55.26.810,lexical_decision_task_DD_L2,2021.2.3,Linux x86_64,61.88118812,,,,,,,,,,,,2.219,1,,,,,,,,,,,,,,,,,,,,,,,,0.005555556,-0.138888889,0,0,0,,,,,,,SWEAT,HB,m,y,./images/SWEATHB.png,,,,,,,,m,1,2.219,,,,,,,,0,94,94,66,1
,,,,,,,,,,,,,,,,,199855,,2022-01-28_15h55.26.810,lexical_decision_task_DD_L2,2021.2.3,Linux x86_64,61.88118812,,,,,,,,,,,,0.605,0,,,,,,,,,,,,,,,,,,,,,,,,0.005555556,-0.138888889,0,0,0,,,,,,,FOLDER,HB,m,y,./images/FOLDERHB.png,,,,,,,,z,0,0.605,,,,,,,,0,95,95,42,1
,,,,,,,,,,,,,,,,,199855,,2022-01-28_15h55.26.810,lexical_decision_task_DD_L2,2021.2.3,Linux x86_64,61.88118812,,,,,,,,,,,,0.784,1,,,,,,,,,,,,,,,,,,,,,,,,0.005555556,-0.138888889,0,0,0,,,,,,,PILOT,C,z,y,./images/PILOT.png,,,,,,,,z,1,0.784,,,,,,,,0,96,96,134,1
,,,,,,,,,,,,,,,,,199855,,2022-01-28_15h55.26.810,lexical_decision_task_DD_L2,2021.2.3,Linux x86_64,61.88118812,,,,,,,,,,,,0.918,1,,,,,,,,,,,,,,,,,,,,,,,,0.005555556,-0.138888889,0,0,0,,,,,,,FALCON,LB,m,y,./images/FALCONLB.png,,,,,,,,m,1,0.918,,,,,,,,0,97,97,28,1
,,,,,,,,,,,,,,,,,199855,,2022-01-28_15h55.26.810,lexical_decision_task_DD_L2,2021.2.3,Linux x86_64,61.88118812,,,,,,,,,,,,0.695,1,,,,,,,,,,,,,,,,,,,,,,,,0.005555556,-0.138888889,0,0,0,,,,,,,FERRY,HB,z,y,./images/FERRYHB.png,,,,,,,,z,1,0.695,,,,,,,,0,98,98,141,1
,,,,,,,,,,,,,,,,,199855,,2022-01-28_15h55.26.810,lexical_decision_task_DD_L2,2021.2.3,Linux x86_64,61.88118812,,,,,,,,,,,,1.168,1,,,,,,,,,,,,,,,,,,,,,,,,0.005555556,-0.138888889,0,0,0,,,,,,,BONNET,C,m,y,./images/BONNET.png,,,,,,,,m,1,1.168,,,,,,,,0,99,99,11,1
,,,,,,,,,,,,,,,,,199855,,2022-01-28_15h55.26.810,lexical_decision_task_DD_L2,2021.2.3,Linux x86_64,61.88118812,,,,,,,,,,,,0.939,1,,,,,,,,,,,,,,,,,,,,,,,,0.005555556,-0.138888889,0,0,0,,,,,,,LAGOON,C,z,y,./images/LAGOON.png,,,,,,,,z,1,0.939,,,,,,,,0,100,100,131,1
,,,,,,,,,,,,,,,,,199855,,2022-01-28_15h55.26.810,lexical_decision_task_DD_L2,2021.2.3,Linux x86_64,61.88118812,,,,,,,,,,,,3.922,0,,,,,,,,,,,,,,,,,,,,,,,,0.005555556,-0.138888889,0,0,0,,,,,,,HAMMER,HB,z,y,./images/HAMMERHB.png,,,,,,,,m,0,3.922,,,,,,,,0,101,101,159,1
,,,,,,,,,,,,,,,,,199855,,2022-01-28_15h55.26.810,lexical_decision_task_DD_L2,2021.2.3,Linux x86_64,61.88118812,,,,,,,,,,,,1.713,1,,,,,,,,,,,,,,,,,,,,,,,,0.005555556,-0.138888889,0,0,0,,,,,,,DOUGH,LB,m,y,./images/DOUGHLB.png,,,,,,,,m,1,1.713,,,,,,,,0,102,102,19,1
,,,,,,,,,,,,,,,,,199855,,2022-01-28_15h55.26.810,lexical_decision_task_DD_L2,2021.2.3,Linux x86_64,61.88118812,,,,,,,,,,,,0.763,0,,,,,,,,,,,,,,,,,,,,,,,,0.005555556,-0.138888889,0,0,0,,,,,,,PURSE,C,m,y,./images/PURSE.png,,,,,,,,z,0,0.763,,,,,,,,0,103,103,62,1
,,,,,,,,,,,,,,,,,199855,,2022-01-28_15h55.26.810,lexical_decision_task_DD_L2,2021.2.3,Linux x86_64,61.88118812,,,,,,,,,,,,0.72,1,,,,,,,,,,,,,,,,,,,,,,,,0.005555556,-0.138888889,0,0,0,,,,,,,STOVE,C,z,y,./images/STOVE.png,,,,,,,,z,1,0.72,,,,,,,,0,104,104,86,1
,,,,,,,,,,,,,,,,,199855,,2022-01-28_15h55.26.810,lexical_decision_task_DD_L2,2021.2.3,Linux x86_64,61.88118812,,,,,,,,,,,,2.225,1,,,,,,,,,,,,,,,,,,,,,,,,0.005555556,-0.138888889,0,0,0,,,,,,,INFANT,LB,m,y,./images/INFANTLB.png,,,,,,,,m,1,2.225,,,,,,,,0,105,105,76,1
,,,,,,,,,,,,,,,,,199855,,2022-01-28_15h55.26.810,lexical_decision_task_DD_L2,2021.2.3,Linux x86_64,61.88118812,,,,,,,,,,,,0.701,1,,,,,,,,,,,,,,,,,,,,,,,,0.005555556,-0.138888889,0,0,0,,,,,,,BLOKE,HB,z,y,./images/BLOKEHB.png,,,,,,,,z,1,0.701,,,,,,,,0,106,106,96,1
,,,,,,,,,,,,,,,,,199855,,2022-01-28_15h55.26.810,lexical_decision_task_DD_L2,2021.2.3,Linux x86_64,61.88118812,,,,,,,,,,,,0.873,1,,,,,,,,,,,,,,,,,,,,,,,,0.005555556,-0.138888889,0,0,0,,,,,,,PIMPLE,C,m,y,./images/PIMPLE.png,,,,,,,,m,1,0.873,,,,,,,,0,107,107,71,1
,,,,,,,,,,,,,,,,,199855,,2022-01-28_15h55.26.810,lexical_decision_task_DD_L2,2021.2.3,Linux x86_64,61.88118812,,,,,,,,,,,,0.616,1,,,,,,,,,,,,,,,,,,,,,,,,0.005555556,-0.138888889,0,0,0,,,,,,,CANOE,LB,z,y,./images/CANOELB.png,,,,,,,,z,1,0.616,,,,,,,,0,108,108,142,1
,,,,,,,,,,,,,,,,,199855,,2022-01-28_15h55.26.810,lexical_decision_task_DD_L2,2021.2.3,Linux x86_64,61.88118812,,,,,,,,,,,,1.294,1,,,,,,,,,,,,,,,,,,,,,,,,0.005555556,-0.138888889,0,0,0,,,,,,,SPINE,C,z,y,./images/SPINE.png,,,,,,,,z,1,1.294,,,,,,,,0,109,109,149,1
,,,,,,,,,,,,,,,,,199855,,2022-01-28_15h55.26.810,lexical_decision_task_DD_L2,2021.2.3,Linux x86_64,61.88118812,,,,,,,,,,,,0.68,1,,,,,,,,,,,,,,,,,,,,,,,,0.005555556,-0.138888889,0,0,0,,,,,,,PISTOL,C,z,y,./images/PISTOL.png,,,,,,,,z,1,0.68,,,,,,,,0,110,110,113,1
,,,,,,,,,,,,,,,,,199855,,2022-01-28_15h55.26.810,lexical_decision_task_DD_L2,2021.2.3,Linux x86_64,61.88118812,,,,,,,,,,,,0.87,1,,,,,,,,,,,,,,,,,,,,,,,,0.005555556,-0.138888889,0,0,0,,,,,,,PARADE,C,z,y,./images/PARADE.png,,,,,,,,z,1,0.87,,,,,,,,0,111,111,101,1
,,,,,,,,,,,,,,,,,199855,,2022-01-28_15h55.26.810,lexical_decision_task_DD_L2,2021.2.3,Linux x86_64,61.88118812,,,,,,,,,,,,1.273,1,,,,,,,,,,,,,,,,,,,,,,,,0.005555556,-0.138888889,0,0,0,,,,,,,SNAKE,LB,z,y,./images/SNAKELB.png,,,,,,,,z,1,1.273,,,,,,,,0,112,112,124,1
,,,,,,,,,,,,,,,,,199855,,2022-01-28_15h55.26.810,lexical_decision_task_DD_L2,2021.2.3,Linux x86_64,61.88118812,,,,,,,,,,,,0.833,1,,,,,,,,,,,,,,,,,,,,,,,,0.005555556,-0.138888889,0,0,0,,,,,,,GRAPE,LB,z,y,./images/GRAPELB.png,,,,,,,,z,1,0.833,,,,,,,,0,113,113,100,1
,,,,,,,,,,,,,,,,,199855,,2022-01-28_15h55.26.810,lexical_decision_task_DD_L2,2021.2.3,Linux x86_64,61.88118812,,,,,,,,,,,,0.627,0,,,,,,,,,,,,,,,,,,,,,,,,0.005555556,-0.138888889,0,0,0,,,,,,,WALRUS,C,m,y,./images/WALRUS.png,,,,,,,,z,0,0.627,,,,,,,,0,114,114,23,1
,,,,,,,,,,,,,,,,,199855,,2022-01-28_15h55.26.810,lexical_decision_task_DD_L2,2021.2.3,Linux x86_64,61.88118812,,,,,,,,,,,,2.383,1,,,,,,,,,,,,,,,,,,,,,,,,0.005555556,-0.138888889,0,0,0,,,,,,,CLOTH,C,z,y,./images/CLOTH.png,,,,,,,,z,1,2.383,,,,,,,,0,115,115,107,1
,,,,,,,,,,,,,,,,,199855,,2022-01-28_15h55.26.810,lexical_decision_task_DD_L2,2021.2.3,Linux x86_64,61.88118812,,,,,,,,,,,,0.887,1,,,,,,,,,,,,,,,,,,,,,,,,0.005555556,-0.138888889,0,0,0,,,,,,,STATUE,HB,z,y,./images/STATUEHB.png,,,,,,,,z,1,0.887,,,,,,,,0,116,116,150,1
,,,,,,,,,,,,,,,,,199855,,2022-01-28_15h55.26.810,lexical_decision_task_DD_L2,2021.2.3,Linux x86_64,61.88118812,,,,,,,,,,,,0.786,1,,,,,,,,,,,,,,,,,,,,,,,,0.005555556,-0.138888889,0,0,0,,,,,,,PEACH,C,m,y,./images/PEACH.png,,,,,,,,m,1,0.786,,,,,,,,0,117,117,35,1
,,,,,,,,,,,,,,,,,199855,,2022-01-28_15h55.26.810,lexical_decision_task_DD_L2,2021.2.3,Linux x86_64,61.88118812,,,,,,,,,,,,0.736,1,,,,,,,,,,,,,,,,,,,,,,,,0.005555556,-0.138888889,0,0,0,,,,,,,FENCE,C,z,y,./images/FENCE.png,,,,,,,,z,1,0.736,,,,,,,,0,118,118,98,1
,,,,,,,,,,,,,,,,,199855,,2022-01-28_15h55.26.810,lexical_decision_task_DD_L2,2021.2.3,Linux x86_64,61.88118812,,,,,,,,,,,,0.938,1,,,,,,,,,,,,,,,,,,,,,,,,0.005555556,-0.138888889,0,0,0,,,,,,,SAUCE,HB,z,y,./images/SAUCEHB.png,,,,,,,,z,1,0.938,,,,,,,,0,119,119,135,1
,,,,,,,,,,,,,,,,,199855,,2022-01-28_15h55.26.810,lexical_decision_task_DD_L2,2021.2.3,Linux x86_64,61.88118812,,,,,,,,,,,,2.399,0,,,,,,,,,,,,,,,,,,,,,,,,0.005555556,-0.138888889,0,0,0,,,,,,,TOMATO,HB,m,y,./images/TOMATOHB.png,,,,,,,,z,0,2.399,,,,,,,,0,120,120,0,1
,,,,,,,,,,,,,,,,,199855,,2022-01-28_15h55.26.810,lexical_decision_task_DD_L2,2021.2.3,Linux x86_64,61.88118812,,,,,,,,,,,,0.653,0,,,,,,,,,,,,,,,,,,,,,,,,0.005555556,-0.138888889,0,0,0,,,,,,,WEASEL,C,m,y,./images/WEASEL.png,,,,,,,,z,0,0.653,,,,,,,,0,121,121,80,1
,,,,,,,,,,,,,,,,,199855,,2022-01-28_15h55.26.810,lexical_decision_task_DD_L2,2021.2.3,Linux x86_64,61.88118812,,,,,,,,,,,,0.789,0,,,,,,,,,,,,,,,,,,,,,,,,0.005555556,-0.138888889,0,0,0,,,,,,,BIRTH,LB,m,y,./images/BIRTHLB.png,,,,,,,,z,0,0.789,,,,,,,,0,122,122,37,1
,,,,,,,,,,,,,,,,,199855,,2022-01-28_15h55.26.810,lexical_decision_task_DD_L2,2021.2.3,Linux x86_64,61.88118812,,,,,,,,,,,,0.839,0,,,,,,,,,,,,,,,,,,,,,,,,0.005555556,-0.138888889,0,0,0,,,,,,,LIZARD,C,m,y,./images/LIZARD.png,,,,,,,,z,0,0.839,,,,,,,,0,123,123,44,1
,,,,,,,,,,,,,,,,,199855,,2022-01-28_15h55.26.810,lexical_decision_task_DD_L2,2021.2.3,Linux x86_64,61.88118812,,,,,,,,,,,,0.841,1,,,,,,,,,,,,,,,,,,,,,,,,0.005555556,-0.138888889,0,0,0,,,,,,,MUFFIN,LB,m,y,./images/MUFFINLB.png,,,,,,,,m,1,0.841,,,,,,,,0,124,124,55,1
,,,,,,,,,,,,,,,,,199855,,2022-01-28_15h55.26.810,lexical_decision_task_DD_L2,2021.2.3,Linux x86_64,61.88118812,,,,,,,,,,,,0.671,1,,,,,,,,,,,,,,,,,,,,,,,,0.005555556,-0.138888889,0,0,0,space,,,,,,MEDAL,C,z,y,./images/MEDAL.png,1.002,,,,,,,z,1,0.671,,,,,,,,0,125,125,95,1
,,,,,,,,,,,,,,,,,199855,,2022-01-28_15h55.26.810,lexical_decision_task_DD_L2,2021.2.3,Linux x86_64,61.88118812,,,,,,,,,,,,1.604,1,,,,,,,,,,,,,,,,,,,,,,,,0.005555556,-0.138888889,0,0,0,,,,,,,SLOPE,HB,z,y,./images/SLOPEHB.png,,,,,,,,z,1,1.604,,,,,,,,0,126,126,114,1
,,,,,,,,,,,,,,,,,199855,,2022-01-28_15h55.26.810,lexical_decision_task_DD_L2,2021.2.3,Linux x86_64,61.88118812,,,,,,,,,,,,0.695,1,,,,,,,,,,,,,,,,,,,,,,,,0.005555556,-0.138888889,0,0,0,,,,,,,PARCEL,HB,z,y,./images/PARCELHB.png,,,,,,,,z,1,0.695,,,,,,,,0,127,127,102,1
,,,,,,,,,,,,,,,,,199855,,2022-01-28_15h55.26.810,lexical_decision_task_DD_L2,2021.2.3,Linux x86_64,61.88118812,,,,,,,,,,,,0.799,0,,,,,,,,,,,,,,,,,,,,,,,,0.005555556,-0.138888889,0,0,0,,,,,,,POODLE,HB,m,y,./images/POODLEHB.png,,,,,,,,z,0,0.799,,,,,,,,0,128,128,81,1
,,,,,,,,,,,,,,,,,199855,,2022-01-28_15h55.26.810,lexical_decision_task_DD_L2,2021.2.3,Linux x86_64,61.88118812,,,,,,,,,,,,5.894,0,,,,,,,,,,,,,,,,,,,,,,,,0.005555556,-0.138888889,0,0,0,,,,,,,MOOSE,HB,m,y,./images/MOOSEHB.png,,,,,,,,z,0,5.894,,,,,,,,0,129,129,57,1
,,,,,,,,,,,,,,,,,199855,,2022-01-28_15h55.26.810,lexical_decision_task_DD_L2,2021.2.3,Linux x86_64,61.88118812,,,,,,,,,,,,0.694,1,,,,,,,,,,,,,,,,,,,,,,,,0.005555556,-0.138888889,0,0,0,,,,,,,WALNUT,HB,z,y,./images/WALNUTHB.png,,,,,,,,z,1,0.694,,,,,,,,0,130,130,84,1
,,,,,,,,,,,,,,,,,199855,,2022-01-28_15h55.26.810,lexical_decision_task_DD_L2,2021.2.3,Linux x86_64,61.88118812,,,,,,,,,,,,0.578,0,,,,,,,,,,,,,,,,,,,,,,,,0.005555556,-0.138888889,0,0,0,,,,,,,MELON,LB,m,y,./images/MELONLB.png,,,,,,,,z,0,0.578,,,,,,,,0,131,131,22,1
,,,,,,,,,,,,,,,,,199855,,2022-01-28_15h55.26.810,lexical_decision_task_DD_L2,2021.2.3,Linux x86_64,61.88118812,,,,,,,,,,,,1.406,1,,,,,,,,,,,,,,,,,,,,,,,,0.005555556,-0.138888889,0,0,0,,,,,,,CRADLE,C,m,y,./images/CRADLE.png,,,,,,,,m,1,1.406,,,,,,,,0,132,132,20,1
,,,,,,,,,,,,,,,,,199855,,2022-01-28_15h55.26.810,lexical_decision_task_DD_L2,2021.2.3,Linux x86_64,61.88118812,,,,,,,,,,,,0.623,0,,,,,,,,,,,,,,,,,,,,,,,,0.005555556,-0.138888889,0,0,0,,,,,,,BURIAL,C,m,y,./images/BURIAL.png,,,,,,,,z,0,0.623,,,,,,,,0,133,133,59,1
,,,,,,,,,,,,,,,,,199855,,2022-01-28_15h55.26.810,lexical_decision_task_DD_L2,2021.2.3,Linux x86_64,61.88118812,,,,,,,,,,,,0.752,0,,,,,,,,,,,,,,,,,,,,,,,,0.005555556,-0.138888889,0,0,0,,,,,,,DRUMS,LB,m,y,./images/DRUMSLB.png,,,,,,,,z,0,0.752,,,,,,,,0,134,134,49,1
,,,,,,,,,,,,,,,,,199855,,2022-01-28_15h55.26.810,lexical_decision_task_DD_L2,2021.2.3,Linux x86_64,61.88118812,,,,,,,,,,,,0.834,1,,,,,,,,,,,,,,,,,,,,,,,,0.005555556,-0.138888889,0,0,0,,,,,,,BABOON,LB,m,y,./images/BABOONLB.png,,,,,,,,m,1,0.834,,,,,,,,0,135,135,58,1
,,,,,,,,,,,,,,,,,199855,,2022-01-28_15h55.26.810,lexical_decision_task_DD_L2,2021.2.3,Linux x86_64,61.88118812,,,,,,,,,,,,0.889,0,,,,,,,,,,,,,,,,,,,,,,,,0.005555556,-0.138888889,0,0,0,,,,,,,SHORE,HB,m,y,./images/SHOREHB.png,,,,,,,,z,0,0.889,,,,,,,,0,136,136,12,1
,,,,,,,,,,,,,,,,,199855,,2022-01-28_15h55.26.810,lexical_decision_task_DD_L2,2021.2.3,Linux x86_64,61.88118812,,,,,,,,,,,,0.788,1,,,,,,,,,,,,,,,,,,,,,,,,0.005555556,-0.138888889,0,0,0,,,,,,,WHISKY,C,z,y,./images/WHISKY.png,,,,,,,,z,1,0.788,,,,,,,,0,137,137,167,1
,,,,,,,,,,,,,,,,,199855,,2022-01-28_15h55.26.810,lexical_decision_task_DD_L2,2021.2.3,Linux x86_64,61.88118812,,,,,,,,,,,,1.671,1,,,,,,,,,,,,,,,,,,,,,,,,0.005555556,-0.138888889,0,0,0,,,,,,,SPORT,HB,m,y,./images/SPORTHB.png,,,,,,,,m,1,1.671,,,,,,,,0,138,138,48,1
,,,,,,,,,,,,,,,,,199855,,2022-01-28_15h55.26.810,lexical_decision_task_DD_L2,2021.2.3,Linux x86_64,61.88118812,,,,,,,,,,,,0.576,1,,,,,,,,,,,,,,,,,,,,,,,,0.005555556,-0.138888889,0,0,0,,,,,,,POKER,LB,z,y,./images/POKERLB.png,,,,,,,,z,1,0.576,,,,,,,,0,139,139,151,1
,,,,,,,,,,,,,,,,,199855,,2022-01-28_15h55.26.810,lexical_decision_task_DD_L2,2021.2.3,Linux x86_64,61.88118812,,,,,,,,,,,,0.568,1,,,,,,,,,,,,,,,,,,,,,,,,0.005555556,-0.138888889,0,0,0,,,,,,,DRILL,HB,z,y,./images/DRILLHB.png,,,,,,,,z,1,0.568,,,,,,,,0,140,140,165,1
,,,,,,,,,,,,,,,,,199855,,2022-01-28_15h55.26.810,lexical_decision_task_DD_L2,2021.2.3,Linux x86_64,61.88118812,,,,,,,,,,,,0.655,1,,,,,,,,,,,,,,,,,,,,,,,,0.005555556,-0.138888889,0,0,0,,,,,,,RULER,LB,z,y,./images/RULERLB.png,,,,,,,,z,1,0.655,,,,,,,,0,141,141,163,1
,,,,,,,,,,,,,,,,,199855,,2022-01-28_15h55.26.810,lexical_decision_task_DD_L2,2021.2.3,Linux x86_64,61.88118812,,,,,,,,,,,,2.822,1,,,,,,,,,,,,,,,,,,,,,,,,0.005555556,-0.138888889,0,0,0,,,,,,,MONKEY,HB,z,y,./images/MONKEYHB.png,,,,,,,,z,1,2.822,,,,,,,,0,142,142,129,1
,,,,,,,,,,,,,,,,,199855,,2022-01-28_15h55.26.810,lexical_decision_task_DD_L2,2021.2.3,Linux x86_64,61.88118812,,,,,,,,,,,,0.807,1,,,,,,,,,,,,,,,,,,,,,,,,0.005555556,-0.138888889,0,0,0,,,,,,,MOSQUE,LB,m,y,./images/MOSQUELB.png,,,,,,,,m,1,0.807,,,,,,,,0,143,143,43,1
,,,,,,,,,,,,,,,,,199855,,2022-01-28_15h55.26.810,lexical_decision_task_DD_L2,2021.2.3,Linux x86_64,61.88118812,,,,,,,,,,,,1.136,1,,,,,,,,,,,,,,,,,,,,,,,,0.005555556,-0.138888889,0,0,0,,,,,,,HEATER,C,z,y,./images/HEATER.png,,,,,,,,z,1,1.136,,,,,,,,0,144,144,140,1
,,,,,,,,,,,,,,,,,199855,,2022-01-28_15h55.26.810,lexical_decision_task_DD_L2,2021.2.3,Linux x86_64,61.88118812,,,,,,,,,,,,0.966,0,,,,,,,,,,,,,,,,,,,,,,,,0.005555556,-0.138888889,0,0,0,,,,,,,MIRROR,HB,m,y,./images/MIRRORHB.png,,,,,,,,z,0,0.966,,,,,,,,0,145,145,63,1
,,,,,,,,,,,,,,,,,199855,,2022-01-28_15h55.26.810,lexical_decision_task_DD_L2,2021.2.3,Linux x86_64,61.88118812,,,,,,,,,,,,0.921,1,,,,,,,,,,,,,,,,,,,,,,,,0.005555556,-0.138888889,0,0,0,,,,,,,BUNNY,LB,z,y,./images/BUNNYLB.png,,,,,,,,z,1,0.921,,,,,,,,0,146,146,97,1
,,,,,,,,,,,,,,,,,199855,,2022-01-28_15h55.26.810,lexical_decision_task_DD_L2,2021.2.3,Linux x86_64,61.88118812,,,,,,,,,,,,0.894,0,,,,,,,,,,,,,,,,,,,,,,,,0.005555556,-0.138888889,0,0,0,,,,,,,BANNER,LB,m,y,./images/BANNERLB.png,,,,,,,,z,0,0.894,,,,,,,,0,147,147,52,1
,,,,,,,,,,,,,,,,,199855,,2022-01-28_15h55.26.810,lexical_decision_task_DD_L2,2021.2.3,Linux x86_64,61.88118812,,,,,,,,,,,,0.741,1,,,,,,,,,,,,,,,,,,,,,,,,0.005555556,-0.138888889,0,0,0,,,,,,,STREAM,C,z,y,./images/STREAM.png,,,,,,,,z,1,0.741,,,,,,,,0,148,148,125,1
,,,,,,,,,,,,,,,,,199855,,2022-01-28_15h55.26.810,lexical_decision_task_DD_L2,2021.2.3,Linux x86_64,61.88118812,,,,,,,,,,,,0.771,1,,,,,,,,,,,,,,,,,,,,,,,,0.005555556,-0.138888889,0,0,0,,,,,,,CLOWN,LB,z,y,./images/CLOWNLB.png,,,,,,,,z,1,0.771,,,,,,,,0,149,149,106,1
,,,,,,,,,,,,,,,,,199855,,2022-01-28_15h55.26.810,lexical_decision_task_DD_L2,2021.2.3,Linux x86_64,61.88118812,,,,,,,,,,,,0.611,1,,,,,,,,,,,,,,,,,,,,,,,,0.005555556,-0.138888889,0,0,0,,,,,,,PEBBLE,LB,z,y,./images/PEBBLELB.png,,,,,,,,z,1,0.611,,,,,,,,0,150,150,166,1
,,,,,,,,,,,,,,,,,199855,,2022-01-28_15h55.26.810,lexical_decision_task_DD_L2,2021.2.3,Linux x86_64,61.88118812,,,,,,,,,,,,0.576,1,,,,,,,,,,,,,,,,,,,,,,,,0.005555556,-0.138888889,0,0,0,,,,,,,JUMPER,C,z,y,./images/JUMPER.png,,,,,,,,z,1,0.576,,,,,,,,0,151,151,158,1
,,,,,,,,,,,,,,,,,199855,,2022-01-28_15h55.26.810,lexical_decision_task_DD_L2,2021.2.3,Linux x86_64,61.88118812,,,,,,,,,,,,0.594,1,,,,,,,,,,,,,,,,,,,,,,,,0.005555556,-0.138888889,0,0,0,,,,,,,VALLEY,C,z,y,./images/VALLEY.png,,,,,,,,z,1,0.594,,,,,,,,0,152,152,152,1
,,,,,,,,,,,,,,,,,199855,,2022-01-28_15h55.26.810,lexical_decision_task_DD_L2,2021.2.3,Linux x86_64,61.88118812,,,,,,,,,,,,1.304,1,,,,,,,,,,,,,,,,,,,,,,,,0.005555556,-0.138888889,0,0,0,,,,,,,PLANK,LB,m,y,./images/PLANKLB.png,,,,,,,,m,1,1.304,,,,,,,,0,153,153,1,1
,,,,,,,,,,,,,,,,,199855,,2022-01-28_15h55.26.810,lexical_decision_task_DD_L2,2021.2.3,Linux x86_64,61.88118812,,,,,,,,,,,,0.914,1,,,,,,,,,,,,,,,,,,,,,,,,0.005555556,-0.138888889,0,0,0,,,,,,,DIVER,HB,z,y,./images/DIVERHB.png,,,,,,,,z,1,0.914,,,,,,,,0,154,154,93,1
,,,,,,,,,,,,,,,,,199855,,2022-01-28_15h55.26.810,lexical_decision_task_DD_L2,2021.2.3,Linux x86_64,61.88118812,,,,,,,,,,,,0.625,1,,,,,,,,,,,,,,,,,,,,,,,,0.005555556,-0.138888889,0,0,0,,,,,,,CANDY,HB,z,y,./images/CANDYHB.png,,,,,,,,z,1,0.625,,,,,,,,0,155,155,123,1
,,,,,,,,,,,,,,,,,199855,,2022-01-28_15h55.26.810,lexical_decision_task_DD_L2,2021.2.3,Linux x86_64,61.88118812,,,,,,,,,,,,0.889,1,,,,,,,,,,,,,,,,,,,,,,,,0.005555556,-0.138888889,0,0,0,,,,,,,FLESH,HB,z,y,./images/FLESHHB.png,,,,,,,,z,1,0.889,,,,,,,,0,156,156,108,1
,,,,,,,,,,,,,,,,,199855,,2022-01-28_15h55.26.810,lexical_decision_task_DD_L2,2021.2.3,Linux x86_64,61.88118812,,,,,,,,,,,,1.122,0,,,,,,,,,,,,,,,,,,,,,,,,0.005555556,-0.138888889,0,0,0,,,,,,,FLASK,HB,z,y,./images/FLASKHB.png,,,,,,,,m,0,1.122,,,,,,,,0,157,157,156,1
,,,,,,,,,,,,,,,,,199855,,2022-01-28_15h55.26.810,lexical_decision_task_DD_L2,2021.2.3,Linux x86_64,61.88118812,,,,,,,,,,,,1.099,0,,,,,,,,,,,,,,,,,,,,,,,,0.005555556,-0.138888889,0,0,0,,,,,,,SNACK,LB,m,y,./images/SNACKLB.png,,,,,,,,z,0,1.099,,,,,,,,0,158,158,73,1
,,,,,,,,,,,,,,,,,199855,,2022-01-28_15h55.26.810,lexical_decision_task_DD_L2,2021.2.3,Linux x86_64,61.88118812,,,,,,,,,,,,0.697,0,,,,,,,,,,,,,,,,,,,,,,,,0.005555556,-0.138888889,0,0,0,,,,,,,MOTOR,LB,m,y,./images/MOTORLB.png,,,,,,,,z,0,0.697,,,,,,,,0,159,159,13,1
,,,,,,,,,,,,,,,,,199855,,2022-01-28_15h55.26.810,lexical_decision_task_DD_L2,2021.2.3,Linux x86_64,61.88118812,,,,,,,,,,,,0.699,1,,,,,,,,,,,,,,,,,,,,,,,,0.005555556,-0.138888889,0,0,0,,,,,,,CHAIN,HB,z,y,./images/CHAINHB.png,,,,,,,,z,1,0.699,,,,,,,,0,160,160,126,1
,,,,,,,,,,,,,,,,,199855,,2022-01-28_15h55.26.810,lexical_decision_task_DD_L2,2021.2.3,Linux x86_64,61.88118812,,,,,,,,,,,,1.356,1,,,,,,,,,,,,,,,,,,,,,,,,0.005555556,-0.138888889,0,0,0,,,,,,,BELLY,LB,m,y,./images/BELLYLB.png,,,,,,,,m,1,1.356,,,,,,,,0,161,161,10,1
,,,,,,,,,,,,,,,,,199855,,2022-01-28_15h55.26.810,lexical_decision_task_DD_L2,2021.2.3,Linux x86_64,61.88118812,,,,,,,,,,,,1.135,1,,,,,,,,,,,,,,,,,,,,,,,,0.005555556,-0.138888889,0,0,0,,,,,,,CLIFF,C,z,y,./images/CLIFF.png,,,,,,,,z,1,1.135,,,,,,,,0,162,162,92,1
,,,,,,,,,,,,,,,,,199855,,2022-01-28_15h55.26.810,lexical_decision_task_DD_L2,2021.2.3,Linux x86_64,61.88118812,,,,,,,,,,,,1.511,0,,,,,,,,,,,,,,,,,,,,,,,,0.005555556,-0.138888889,0,0,0,,,,,,,SCREW,HB,m,y,./images/SCREWHB.png,,,,,,,,z,0,1.511,,,,,,,,0,163,163,24,1
,,,,,,,,,,,,,,,,,199855,,2022-01-28_15h55.26.810,lexical_decision_task_DD_L2,2021.2.3,Linux x86_64,61.88118812,,,,,,,,,,,,1.532,1,,,,,,,,,,,,,,,,,,,,,,,,0.005555556,-0.138888889,0,0,0,,,,,,,BUTTER,HB,z,y,./images/BUTTERHB.png,,,,,,,,z,1,1.532,,,,,,,,0,164,164,111,1
,,,,,,,,,,,,,,,,,199855,,2022-01-28_15h55.26.810,lexical_decision_task_DD_L2,2021.2.3,Linux x86_64,61.88118812,,,,,,,,,,,,3.148,1,,,,,,,,,,,,,,,,,,,,,,,,0.005555556,-0.138888889,0,0,0,,,,,,,MIDGET,LB,z,y,./images/MIDGETLB.png,,,,,,,,z,1,3.148,,,,,,,,0,165,165,160,1
,,,,,,,,,,,,,,,,,199855,,2022-01-28_15h55.26.810,lexical_decision_task_DD_L2,2021.2.3,Linux x86_64,61.88118812,,,,,,,,,,,,0.83,1,,,,,,,,,,,,,,,,,,,,,,,,0.005555556,-0.138888889,0,0,0,,,,,,,BUBBLE,C,z,y,./images/BUBBLE.png,,,,,,,,z,1,0.83,,,,,,,,0,166,166,155,1
,,,,,,,,,,,,,,,,,199855,,2022-01-28_15h55.26.810,lexical_decision_task_DD_L2,2021.2.3,Linux x86_64,61.88118812,,,,,,,,,,,,1.241,1,,,,,,,,,,,,,,,,,,,,,,,,0.005555556,-0.138888889,0,0,0,,,,,,,CHERRY,HB,z,y,./images/CHERRYHB.png,,,,,,,,z,1,1.241,,,,,,,,0,167,167,138,1
