key_resp.keys,key_resp.rt,instr_done_touch.x,instr_done_touch.y,instr_done_touch.leftButton,instr_done_touch.midButton,instr_done_touch.rightButton,instruction_pages.thisRepN,instruction_pages.thisTrialN,instruction_pages.thisN,instruction_pages.thisIndex,instruction_pages.ran,pageN,phase,instruct_text,has_image,instruct_image,participant,age,date,expName,psychopyVersion,OS,frameRate,response.keys,response.corr,response.rt,touch_resp.x,touch_resp.y,touch_resp.leftButton,touch_resp.midButton,touch_resp.rightButton,touch_resp.time,touch_resp.clicked_name,rt,corr,practrials.thisRepN,practrials.thisTrialN,practrials.thisN,practrials.thisIndex,practrials.ran,TrialID,Target,corrAns,end_of_practice_trials_pages.thisRepN,end_of_practice_trials_pages.thisTrialN,end_of_practice_trials_pages.thisN,end_of_practice_trials_pages.thisIndex,end_of_practice_trials_pages.ran,key_resp_2.keys,key_resp_2.corr,key_resp_2.rt,targ_click.x,targ_click.y,targ_click.leftButton,targ_click.midButton,targ_click.rightButton,targ_click.time,targ_click.clicked_name,break_done_touch.x,break_done_touch.y,break_done_touch.leftButton,break_done_touch.midButton,break_done_touch.rightButton,break_done_keyboard.keys,maintrials.thisRepN,maintrials.thisTrialN,maintrials.thisN,maintrials.thisIndex,maintrials.ran,string,blur,study,lex,stim_path,break_done_keyboard.rt,test_instructions.thisRepN,test_instructions.thisTrialN,test_instructions.thisN,test_instructions.thisIndex,test_instructions.ran,instr_done_touch.clicked_name,key_resp_3.keys,key_resp_3.corr,key_resp_3.rt,test_click.x,test_click.y,test_click.leftButton,test_click.midButton,test_click.rightButton,test_click.time,test_click.clicked_name,test_phase.thisRepN,test_phase.thisTrialN,test_phase.thisN,test_phase.thisIndex,test_phase.ran
space,38.8208,0.143033854,-0.007009549,0,0,0,0,0,0,0,1,1,instructions,"INSTRUCTIONS
At the start of each trial, look at the plus sign  (+) in the center of the screen.  This tells you that a trial is about to begin and where to look. Second, the plus sign will disappear and a string of letters will appear. Your task is to determine if the string of letters is a word or not. If the item is a word press the M key (on keyboard)  or touch the word button (phone/tablet).  If the item is not a word,  press the  Z key (on keyboard)  or touch the nonword button (on phone/tablet). 
Press the space bar or touch  continue.",0,,199867,18,2022-01-28_21h40.13.352,lexical_decision_task_DD_L3,2021.2.3,MacIntel,60.0024001,,,,,,,,,,,,,,,,,,,,,,,,,,,,,,,,,,,,,,,,,,,,,,,,,,,,,,,,,,,,,,,,,,,,,,,,,
space,5.9231,0.143033854,-0.007009549,0,0,0,0,1,1,1,1,2,instructions,"If your device has a keyboard, press the 'Z' key for nonwords and the 'M' key for words.





Press the space bar or touch the button below to continue.",0,keyboard-example.gif,199867,18,2022-01-28_21h40.13.352,lexical_decision_task_DD_L3,2021.2.3,MacIntel,60.0024001,,,,,,,,,,,,,,,,,,,,,,,,,,,,,,,,,,,,,,,,,,,,,,,,,,,,,,,,,,,,,,,,,,,,,,,,,
space,1.7965,0.143033854,-0.007009549,0,0,0,0,2,2,2,1,3,instructions,"If you are using a touchscreen only device, use the buttons on the screen. Do not use the mouse.





Press the space bar or touch the button below to continue.",0,touchscreen-example.gif,199867,18,2022-01-28_21h40.13.352,lexical_decision_task_DD_L3,2021.2.3,MacIntel,60.0024001,,,,,,,,,,,,,,,,,,,,,,,,,,,,,,,,,,,,,,,,,,,,,,,,,,,,,,,,,,,,,,,,,,,,,,,,,
space,16.0605,0.143033854,-0.007009549,0,0,0,0,3,3,3,1,4,instructions,"It is very important that you respond as quickly and accurately as possible, as each letter string will only be on the screen for two seconds. If you do not respond within this time, the message 'Too slow!' will be displayed and the experiment will progress to the next letter string. The first 20 trials will be practice trials and you will receive feedback on your answers. 

Press the space bar or touch the button below to start the practice trials.",0,,199867,18,2022-01-28_21h40.13.352,lexical_decision_task_DD_L3,2021.2.3,MacIntel,60.0024001,,,,,,,,,,,,,,,,,,,,,,,,,,,,,,,,,,,,,,,,,,,,,,,,,,,,,,,,,,,,,,,,,,,,,,,,,
,,,,,,,,,,,,,,,,,199867,18,2022-01-28_21h40.13.352,lexical_decision_task_DD_L3,2021.2.3,MacIntel,60.0024001,m,1,1.5686,,,,,,,,1.5686,1,0,0,0,5,1,1001,OBTAIN,m,,,,,,,,,,,,,,,,,,,,,,,,,,,,,,,,,,,,,,,,,,,,,,,,,,,,,
,,,,,,,,,,,,,,,,,199867,18,2022-01-28_21h40.13.352,lexical_decision_task_DD_L3,2021.2.3,MacIntel,60.0024001,m,1,0.9461,,,,,,,,0.9461,1,0,1,1,4,1,1001,SQUEAK,m,,,,,,,,,,,,,,,,,,,,,,,,,,,,,,,,,,,,,,,,,,,,,,,,,,,,,
,,,,,,,,,,,,,,,,,199867,18,2022-01-28_21h40.13.352,lexical_decision_task_DD_L3,2021.2.3,MacIntel,60.0024001,m,1,0.63,,,,,,,,0.63,1,0,2,2,1,1,1001,ADJUST,m,,,,,,,,,,,,,,,,,,,,,,,,,,,,,,,,,,,,,,,,,,,,,,,,,,,,,
,,,,,,,,,,,,,,,,,199867,18,2022-01-28_21h40.13.352,lexical_decision_task_DD_L3,2021.2.3,MacIntel,60.0024001,m,1,0.8491,,,,,,,,0.8491,1,0,3,3,0,1,1001,UTOPIA,m,,,,,,,,,,,,,,,,,,,,,,,,,,,,,,,,,,,,,,,,,,,,,,,,,,,,,
,,,,,,,,,,,,,,,,,199867,18,2022-01-28_21h40.13.352,lexical_decision_task_DD_L3,2021.2.3,MacIntel,60.0024001,m,1,0.6142,,,,,,,,0.6142,1,0,4,4,2,1,1001,ALMOND,m,,,,,,,,,,,,,,,,,,,,,,,,,,,,,,,,,,,,,,,,,,,,,,,,,,,,,
,,,,,,,,,,,,,,,,,199867,18,2022-01-28_21h40.13.352,lexical_decision_task_DD_L3,2021.2.3,MacIntel,60.0024001,z,1,0.9679,,,,,,,,0.9679,1,0,5,5,13,1,1001,ROUPET,z,,,,,,,,,,,,,,,,,,,,,,,,,,,,,,,,,,,,,,,,,,,,,,,,,,,,,
,,,,,,,,,,,,,,,,,199867,18,2022-01-28_21h40.13.352,lexical_decision_task_DD_L3,2021.2.3,MacIntel,60.0024001,z,1,1.0382,,,,,,,,1.0382,1,0,6,6,15,1,1001,WHAISE,z,,,,,,,,,,,,,,,,,,,,,,,,,,,,,,,,,,,,,,,,,,,,,,,,,,,,,
,,,,,,,,,,,,,,,,,199867,18,2022-01-28_21h40.13.352,lexical_decision_task_DD_L3,2021.2.3,MacIntel,60.0024001,z,1,1.7858,,,,,,,,1.7858,1,0,7,7,9,1,1001,FARINY,z,,,,,,,,,,,,,,,,,,,,,,,,,,,,,,,,,,,,,,,,,,,,,,,,,,,,,
,,,,,,,,,,,,,,,,,199867,18,2022-01-28_21h40.13.352,lexical_decision_task_DD_L3,2021.2.3,MacIntel,60.0024001,m,1,0.5988,,,,,,,,0.5988,1,0,8,8,7,1,1001,VOLUME,m,,,,,,,,,,,,,,,,,,,,,,,,,,,,,,,,,,,,,,,,,,,,,,,,,,,,,
,,,,,,,,,,,,,,,,,199867,18,2022-01-28_21h40.13.352,lexical_decision_task_DD_L3,2021.2.3,MacIntel,60.0024001,m,1,0.6095,,,,,,,,0.6095,1,0,9,9,6,1,1001,ZOMBIE,m,,,,,,,,,,,,,,,,,,,,,,,,,,,,,,,,,,,,,,,,,,,,,,,,,,,,,
,,,,,,,,,,,,,,,,,199867,18,2022-01-28_21h40.13.352,lexical_decision_task_DD_L3,2021.2.3,MacIntel,60.0024001,z,1,1.3639,,,,,,,,1.3639,1,0,10,10,14,1,1001,THRALE,z,,,,,,,,,,,,,,,,,,,,,,,,,,,,,,,,,,,,,,,,,,,,,,,,,,,,,
,,,,,,,,,,,,,,,,,199867,18,2022-01-28_21h40.13.352,lexical_decision_task_DD_L3,2021.2.3,MacIntel,60.0024001,z,1,1.0171,,,,,,,,1.0171,1,0,11,11,11,1,1001,RASHET,z,,,,,,,,,,,,,,,,,,,,,,,,,,,,,,,,,,,,,,,,,,,,,,,,,,,,,
,,,,,,,,,,,,,,,,,199867,18,2022-01-28_21h40.13.352,lexical_decision_task_DD_L3,2021.2.3,MacIntel,60.0024001,z,1,1.1472,,,,,,,,1.1472,1,0,12,12,8,1,1001,ASLERT,z,,,,,,,,,,,,,,,,,,,,,,,,,,,,,,,,,,,,,,,,,,,,,,,,,,,,,
,,,,,,,,,,,,,,,,,199867,18,2022-01-28_21h40.13.352,lexical_decision_task_DD_L3,2021.2.3,MacIntel,60.0024001,z,1,0.9699,,,,,,,,0.9699,1,0,13,13,12,1,1001,SPRINY,z,,,,,,,,,,,,,,,,,,,,,,,,,,,,,,,,,,,,,,,,,,,,,,,,,,,,,
,,,,,,,,,,,,,,,,,199867,18,2022-01-28_21h40.13.352,lexical_decision_task_DD_L3,2021.2.3,MacIntel,60.0024001,m,1,0.8188,,,,,,,,0.8188,1,0,14,14,3,1,1001,MATRIX,m,,,,,,,,,,,,,,,,,,,,,,,,,,,,,,,,,,,,,,,,,,,,,,,,,,,,,
,,,,,,,,,,,,,,,,,199867,18,2022-01-28_21h40.13.352,lexical_decision_task_DD_L3,2021.2.3,MacIntel,60.0024001,m,0,1.4752,,,,,,,,1.4752,0,0,15,15,10,1,1001,INLADE,z,,,,,,,,,,,,,,,,,,,,,,,,,,,,,,,,,,,,,,,,,,,,,,,,,,,,,
space,13.9384,0.132083333,-0.073250868,0,0,0,,,,,,1,end_of_practice,"You have completed the practice trials. During the experimental trials, you will not receive feedback. 
Before you begin, please ensure that you are in a comfortable and quiet location and will not be disturbed for about 15 minutes, as we cannot use your data if you do not complete all the trials. 
 When you are ready to start the experimental trials, please press space or touch the button below.",,,199867,18,2022-01-28_21h40.13.352,lexical_decision_task_DD_L3,2021.2.3,MacIntel,60.0024001,,,,,,,,,,,,,,,,,,,,,0,0,0,0,1,,,,,,,,,,,,,,,,,,,,,,,,,,,,,,,,,,,,,,,,,,,,,,,,
,,,,,,,,,,,,,,,,,199867,18,2022-01-28_21h40.13.352,lexical_decision_task_DD_L3,2021.2.3,MacIntel,60.0024001,,,,,,,,,,,3.2488,1,,,,,,,,,,,,,,z,1,3.2488,,,,,,,,0.132083333,-0.073250868,0,0,0,,0,0,0,94,1,BLANS,HB,old,z,./images/BLANSHB.png,,,,,,,,,,,,,,,,,,,,,,
,,,,,,,,,,,,,,,,,199867,18,2022-01-28_21h40.13.352,lexical_decision_task_DD_L3,2021.2.3,MacIntel,60.0024001,,,,,,,,,,,1.795,1,,,,,,,,,,,,,,z,1,1.795,,,,,,,,0.132083333,-0.073250868,0,0,0,,0,1,1,139,1,BLEAR,HB,old,z,./images/BLEARHB.png,,,,,,,,,,,,,,,,,,,,,,
,,,,,,,,,,,,,,,,,199867,18,2022-01-28_21h40.13.352,lexical_decision_task_DD_L3,2021.2.3,MacIntel,60.0024001,,,,,,,,,,,0.925,1,,,,,,,,,,,,,,z,1,0.925,,,,,,,,0.132083333,-0.073250868,0,0,0,,0,2,2,119,1,PAFER,LB,old,z,./images/PAFERLB.png,,,,,,,,,,,,,,,,,,,,,,
,,,,,,,,,,,,,,,,,199867,18,2022-01-28_21h40.13.352,lexical_decision_task_DD_L3,2021.2.3,MacIntel,60.0024001,,,,,,,,,,,1.496,1,,,,,,,,,,,,,,m,1,1.496,,,,,,,,0.132083333,-0.073250868,0,0,0,,0,3,3,50,1,MALLET,HB,old,m,./images/MALLETHB.png,,,,,,,,,,,,,,,,,,,,,,
,,,,,,,,,,,,,,,,,199867,18,2022-01-28_21h40.13.352,lexical_decision_task_DD_L3,2021.2.3,MacIntel,60.0024001,,,,,,,,,,,0.9665,1,,,,,,,,,,,,,,z,1,0.9665,,,,,,,,0.132083333,-0.073250868,0,0,0,,0,4,4,105,1,MOKER,C,old,z,./images/MOKER.png,,,,,,,,,,,,,,,,,,,,,,
,,,,,,,,,,,,,,,,,199867,18,2022-01-28_21h40.13.352,lexical_decision_task_DD_L3,2021.2.3,MacIntel,60.0024001,,,,,,,,,,,1.0487,1,,,,,,,,,,,,,,z,1,1.0487,,,,,,,,0.132083333,-0.073250868,0,0,0,,0,5,5,165,1,TROWN,C,old,z,./images/TROWN.png,,,,,,,,,,,,,,,,,,,,,,
,,,,,,,,,,,,,,,,,199867,18,2022-01-28_21h40.13.352,lexical_decision_task_DD_L3,2021.2.3,MacIntel,60.0024001,,,,,,,,,,,2.8317,1,,,,,,,,,,,,,,z,1,2.8317,,,,,,,,0.132083333,-0.073250868,0,0,0,,0,6,6,130,1,CRILL,HB,old,z,./images/CRILLHB.png,,,,,,,,,,,,,,,,,,,,,,
,,,,,,,,,,,,,,,,,199867,18,2022-01-28_21h40.13.352,lexical_decision_task_DD_L3,2021.2.3,MacIntel,60.0024001,,,,,,,,,,,0.7517,1,,,,,,,,,,,,,,m,1,0.7517,,,,,,,,0.132083333,-0.073250868,0,0,0,,0,7,7,70,1,URINE,C,old,m,./images/URINE.png,,,,,,,,,,,,,,,,,,,,,,
,,,,,,,,,,,,,,,,,199867,18,2022-01-28_21h40.13.352,lexical_decision_task_DD_L3,2021.2.3,MacIntel,60.0024001,,,,,,,,,,,0.7281,1,,,,,,,,,,,,,,m,1,0.7281,,,,,,,,0.132083333,-0.073250868,0,0,0,,0,8,8,78,1,LITTER,LB,old,m,./images/LITTERLB.png,,,,,,,,,,,,,,,,,,,,,,
,,,,,,,,,,,,,,,,,199867,18,2022-01-28_21h40.13.352,lexical_decision_task_DD_L3,2021.2.3,MacIntel,60.0024001,,,,,,,,,,,0.583,1,,,,,,,,,,,,,,m,1,0.583,,,,,,,,0.132083333,-0.073250868,0,0,0,,0,9,9,64,1,JELLY,C,old,m,./images/JELLY.png,,,,,,,,,,,,,,,,,,,,,,
,,,,,,,,,,,,,,,,,199867,18,2022-01-28_21h40.13.352,lexical_decision_task_DD_L3,2021.2.3,MacIntel,60.0024001,,,,,,,,,,,0.7843,1,,,,,,,,,,,,,,m,1,0.7843,,,,,,,,0.132083333,-0.073250868,0,0,0,,0,10,10,77,1,COUCH,HB,old,m,./images/COUCHHB.png,,,,,,,,,,,,,,,,,,,,,,
,,,,,,,,,,,,,,,,,199867,18,2022-01-28_21h40.13.352,lexical_decision_task_DD_L3,2021.2.3,MacIntel,60.0024001,,,,,,,,,,,0.6489,1,,,,,,,,,,,,,,m,1,0.6489,,,,,,,,0.132083333,-0.073250868,0,0,0,,0,11,11,21,1,KIDNEY,LB,old,m,./images/KIDNEYLB.png,,,,,,,,,,,,,,,,,,,,,,
,,,,,,,,,,,,,,,,,199867,18,2022-01-28_21h40.13.352,lexical_decision_task_DD_L3,2021.2.3,MacIntel,60.0024001,,,,,,,,,,,0.8998,1,,,,,,,,,,,,,,z,1,0.8998,,,,,,,,0.132083333,-0.073250868,0,0,0,,0,12,12,92,1,PAIMS,LB,old,z,./images/PAIMSLB.png,,,,,,,,,,,,,,,,,,,,,,
,,,,,,,,,,,,,,,,,199867,18,2022-01-28_21h40.13.352,lexical_decision_task_DD_L3,2021.2.3,MacIntel,60.0024001,,,,,,,,,,,0.9523,1,,,,,,,,,,,,,,m,1,0.9523,,,,,,,,0.132083333,-0.073250868,0,0,0,,0,13,13,72,1,NOOSE,LB,old,m,./images/NOOSELB.png,,,,,,,,,,,,,,,,,,,,,,
,,,,,,,,,,,,,,,,,199867,18,2022-01-28_21h40.13.352,lexical_decision_task_DD_L3,2021.2.3,MacIntel,60.0024001,,,,,,,,,,,0.6196,1,,,,,,,,,,,,,,m,1,0.6196,,,,,,,,0.132083333,-0.073250868,0,0,0,,0,14,14,24,1,SCREW,LB,old,m,./images/SCREWLB.png,,,,,,,,,,,,,,,,,,,,,,
,,,,,,,,,,,,,,,,,199867,18,2022-01-28_21h40.13.352,lexical_decision_task_DD_L3,2021.2.3,MacIntel,60.0024001,,,,,,,,,,,0.6831,1,,,,,,,,,,,,,,z,1,0.6831,,,,,,,,0.132083333,-0.073250868,0,0,0,,0,15,15,138,1,PLICE,C,old,z,./images/PLICE.png,,,,,,,,,,,,,,,,,,,,,,
,,,,,,,,,,,,,,,,,199867,18,2022-01-28_21h40.13.352,lexical_decision_task_DD_L3,2021.2.3,MacIntel,60.0024001,,,,,,,,,,,2.7207,0,,,,,,,,,,,,,,m,0,2.7207,,,,,,,,0.132083333,-0.073250868,0,0,0,,0,16,16,163,1,GAMBA,HB,old,z,./images/GAMBAHB.png,,,,,,,,,,,,,,,,,,,,,,
,,,,,,,,,,,,,,,,,199867,18,2022-01-28_21h40.13.352,lexical_decision_task_DD_L3,2021.2.3,MacIntel,60.0024001,,,,,,,,,,,0.6481,1,,,,,,,,,,,,,,m,1,0.6481,,,,,,,,0.132083333,-0.073250868,0,0,0,,0,17,17,6,1,SQUARE,LB,old,m,./images/SQUARELB.png,,,,,,,,,,,,,,,,,,,,,,
,,,,,,,,,,,,,,,,,199867,18,2022-01-28_21h40.13.352,lexical_decision_task_DD_L3,2021.2.3,MacIntel,60.0024001,,,,,,,,,,,0.902,1,,,,,,,,,,,,,,z,1,0.902,,,,,,,,0.132083333,-0.073250868,0,0,0,,0,18,18,152,1,FRAIN,LB,old,z,./images/FRAINLB.png,,,,,,,,,,,,,,,,,,,,,,
,,,,,,,,,,,,,,,,,199867,18,2022-01-28_21h40.13.352,lexical_decision_task_DD_L3,2021.2.3,MacIntel,60.0024001,,,,,,,,,,,0.8582,1,,,,,,,,,,,,,,z,1,0.8582,,,,,,,,0.132083333,-0.073250868,0,0,0,,0,19,19,84,1,HAXES,C,old,z,./images/HAXES.png,,,,,,,,,,,,,,,,,,,,,,
,,,,,,,,,,,,,,,,,199867,18,2022-01-28_21h40.13.352,lexical_decision_task_DD_L3,2021.2.3,MacIntel,60.0024001,,,,,,,,,,,0.9158,1,,,,,,,,,,,,,,m,1,0.9158,,,,,,,,0.132083333,-0.073250868,0,0,0,,0,20,20,52,1,BANNER,C,old,m,./images/BANNER.png,,,,,,,,,,,,,,,,,,,,,,
,,,,,,,,,,,,,,,,,199867,18,2022-01-28_21h40.13.352,lexical_decision_task_DD_L3,2021.2.3,MacIntel,60.0024001,,,,,,,,,,,2.616,1,,,,,,,,,,,,,,z,1,2.616,,,,,,,,0.132083333,-0.073250868,0,0,0,,0,21,21,154,1,THINT,HB,old,z,./images/THINTHB.png,,,,,,,,,,,,,,,,,,,,,,
,,,,,,,,,,,,,,,,,199867,18,2022-01-28_21h40.13.352,lexical_decision_task_DD_L3,2021.2.3,MacIntel,60.0024001,,,,,,,,,,,2.5029,1,,,,,,,,,,,,,,z,1,2.5029,,,,,,,,0.132083333,-0.073250868,0,0,0,,0,22,22,91,1,SHENS,HB,old,z,./images/SHENSHB.png,,,,,,,,,,,,,,,,,,,,,,
,,,,,,,,,,,,,,,,,199867,18,2022-01-28_21h40.13.352,lexical_decision_task_DD_L3,2021.2.3,MacIntel,60.0024001,,,,,,,,,,,0.8899,1,,,,,,,,,,,,,,m,1,0.8899,,,,,,,,0.132083333,-0.073250868,0,0,0,,0,23,23,56,1,PACKET,HB,old,m,./images/PACKETHB.png,,,,,,,,,,,,,,,,,,,,,,
,,,,,,,,,,,,,,,,,199867,18,2022-01-28_21h40.13.352,lexical_decision_task_DD_L3,2021.2.3,MacIntel,60.0024001,,,,,,,,,,,0.8513,1,,,,,,,,,,,,,,z,1,0.8513,,,,,,,,0.132083333,-0.073250868,0,0,0,,0,24,24,93,1,SMONE,C,old,z,./images/SMONE.png,,,,,,,,,,,,,,,,,,,,,,
,,,,,,,,,,,,,,,,,199867,18,2022-01-28_21h40.13.352,lexical_decision_task_DD_L3,2021.2.3,MacIntel,60.0024001,,,,,,,,,,,0.9379,1,,,,,,,,,,,,,,z,1,0.9379,,,,,,,,0.132083333,-0.073250868,0,0,0,,0,25,25,134,1,TROSS,LB,old,z,./images/TROSSLB.png,,,,,,,,,,,,,,,,,,,,,,
,,,,,,,,,,,,,,,,,199867,18,2022-01-28_21h40.13.352,lexical_decision_task_DD_L3,2021.2.3,MacIntel,60.0024001,,,,,,,,,,,1.3946,1,,,,,,,,,,,,,,m,1,1.3946,,,,,,,,0.132083333,-0.073250868,0,0,0,,0,26,26,74,1,CEMENT,HB,old,m,./images/CEMENTHB.png,,,,,,,,,,,,,,,,,,,,,,
,,,,,,,,,,,,,,,,,199867,18,2022-01-28_21h40.13.352,lexical_decision_task_DD_L3,2021.2.3,MacIntel,60.0024001,,,,,,,,,,,0.6832,1,,,,,,,,,,,,,,m,1,0.6832,,,,,,,,0.132083333,-0.073250868,0,0,0,,0,27,27,37,1,BIRTH,C,old,m,./images/BIRTH.png,,,,,,,,,,,,,,,,,,,,,,
,,,,,,,,,,,,,,,,,199867,18,2022-01-28_21h40.13.352,lexical_decision_task_DD_L3,2021.2.3,MacIntel,60.0024001,,,,,,,,,,,1.5611,1,,,,,,,,,,,,,,z,1,1.5611,,,,,,,,0.132083333,-0.073250868,0,0,0,,0,28,28,166,1,SHORY,HB,old,z,./images/SHORYHB.png,,,,,,,,,,,,,,,,,,,,,,
,,,,,,,,,,,,,,,,,199867,18,2022-01-28_21h40.13.352,lexical_decision_task_DD_L3,2021.2.3,MacIntel,60.0024001,,,,,,,,,,,0.7146,1,,,,,,,,,,,,,,z,1,0.7146,,,,,,,,0.132083333,-0.073250868,0,0,0,,0,29,29,117,1,STEEG,C,old,z,./images/STEEG.png,,,,,,,,,,,,,,,,,,,,,,
,,,,,,,,,,,,,,,,,199867,18,2022-01-28_21h40.13.352,lexical_decision_task_DD_L3,2021.2.3,MacIntel,60.0024001,,,,,,,,,,,0.83,1,,,,,,,,,,,,,,z,1,0.83,,,,,,,,0.132083333,-0.073250868,0,0,0,,0,30,30,90,1,NEAST,C,old,z,./images/NEAST.png,,,,,,,,,,,,,,,,,,,,,,
,,,,,,,,,,,,,,,,,199867,18,2022-01-28_21h40.13.352,lexical_decision_task_DD_L3,2021.2.3,MacIntel,60.0024001,,,,,,,,,,,0.9918,1,,,,,,,,,,,,,,m,1,0.9918,,,,,,,,0.132083333,-0.073250868,0,0,0,,0,31,31,58,1,BABOON,C,old,m,./images/BABOON.png,,,,,,,,,,,,,,,,,,,,,,
,,,,,,,,,,,,,,,,,199867,18,2022-01-28_21h40.13.352,lexical_decision_task_DD_L3,2021.2.3,MacIntel,60.0024001,,,,,,,,,,,0.7153,1,,,,,,,,,,,,,,z,1,0.7153,,,,,,,,0.132083333,-0.073250868,0,0,0,,0,32,32,108,1,GRUET,C,old,z,./images/GRUET.png,,,,,,,,,,,,,,,,,,,,,,
,,,,,,,,,,,,,,,,,199867,18,2022-01-28_21h40.13.352,lexical_decision_task_DD_L3,2021.2.3,MacIntel,60.0024001,,,,,,,,,,,0.9304,1,,,,,,,,,,,,,,m,1,0.9304,,,,,,,,0.132083333,-0.073250868,0,0,0,,0,33,33,9,1,RHINO,LB,old,m,./images/RHINOLB.png,,,,,,,,,,,,,,,,,,,,,,
,,,,,,,,,,,,,,,,,199867,18,2022-01-28_21h40.13.352,lexical_decision_task_DD_L3,2021.2.3,MacIntel,60.0024001,,,,,,,,,,,0.7908,1,,,,,,,,,,,,,,z,1,0.7908,,,,,,,,0.132083333,-0.073250868,0,0,0,,0,34,34,102,1,DULLE,C,old,z,./images/DULLE.png,,,,,,,,,,,,,,,,,,,,,,
,,,,,,,,,,,,,,,,,199867,18,2022-01-28_21h40.13.352,lexical_decision_task_DD_L3,2021.2.3,MacIntel,60.0024001,,,,,,,,,,,0.6596,1,,,,,,,,,,,,,,m,1,0.6596,,,,,,,,0.132083333,-0.073250868,0,0,0,,0,35,35,67,1,SAILOR,C,old,m,./images/SAILOR.png,,,,,,,,,,,,,,,,,,,,,,
,,,,,,,,,,,,,,,,,199867,18,2022-01-28_21h40.13.352,lexical_decision_task_DD_L3,2021.2.3,MacIntel,60.0024001,,,,,,,,,,,0.6157,1,,,,,,,,,,,,,,m,1,0.6157,,,,,,,,0.132083333,-0.073250868,0,0,0,,0,36,36,60,1,TWINS,LB,old,m,./images/TWINSLB.png,,,,,,,,,,,,,,,,,,,,,,
,,,,,,,,,,,,,,,,,199867,18,2022-01-28_21h40.13.352,lexical_decision_task_DD_L3,2021.2.3,MacIntel,60.0024001,,,,,,,,,,,0.8817,1,,,,,,,,,,,,,,m,1,0.8817,,,,,,,,0.132083333,-0.073250868,0,0,0,,0,37,37,25,1,WRIST,C,old,m,./images/WRIST.png,,,,,,,,,,,,,,,,,,,,,,
,,,,,,,,,,,,,,,,,199867,18,2022-01-28_21h40.13.352,lexical_decision_task_DD_L3,2021.2.3,MacIntel,60.0024001,,,,,,,,,,,0.582,1,,,,,,,,,,,,,,m,1,0.582,,,,,,,,0.132083333,-0.073250868,0,0,0,,0,38,38,7,1,PAINT,C,old,m,./images/PAINT.png,,,,,,,,,,,,,,,,,,,,,,
,,,,,,,,,,,,,,,,,199867,18,2022-01-28_21h40.13.352,lexical_decision_task_DD_L3,2021.2.3,MacIntel,60.0024001,,,,,,,,,,,0.7145,1,,,,,,,,,,,,,,m,1,0.7145,,,,,,,,0.132083333,-0.073250868,0,0,0,,0,39,39,34,1,CANYON,C,old,m,./images/CANYON.png,,,,,,,,,,,,,,,,,,,,,,
,,,,,,,,,,,,,,,,,199867,18,2022-01-28_21h40.13.352,lexical_decision_task_DD_L3,2021.2.3,MacIntel,60.0024001,,,,,,,,,,,0.7905,1,,,,,,,,,,,,,,z,1,0.7905,,,,,,,,0.132083333,-0.073250868,0,0,0,,0,40,40,164,1,SGREW,LB,old,z,./images/SGREWLB.png,,,,,,,,,,,,,,,,,,,,,,
,,,,,,,,,,,,,,,,,199867,18,2022-01-28_21h40.13.352,lexical_decision_task_DD_L3,2021.2.3,MacIntel,60.0024001,,,,,,,,,,,1.2082,1,,,,,,,,,,,,,,m,1,1.2082,,,,,,,,0.132083333,-0.073250868,0,0,0,space,0,41,41,1,1,PLANK,C,old,m,./images/PLANK.png,5.1584,,,,,,,,,,,,,,,,,,,,,
,,,,,,,,,,,,,,,,,199867,18,2022-01-28_21h40.13.352,lexical_decision_task_DD_L3,2021.2.3,MacIntel,60.0024001,,,,,,,,,,,1.495,1,,,,,,,,,,,,,,z,1,1.495,,,,,,,,0.132083333,-0.073250868,0,0,0,,0,42,42,112,1,MYING,HB,old,z,./images/MYINGHB.png,,,,,,,,,,,,,,,,,,,,,,
,,,,,,,,,,,,,,,,,199867,18,2022-01-28_21h40.13.352,lexical_decision_task_DD_L3,2021.2.3,MacIntel,60.0024001,,,,,,,,,,,0.6448,1,,,,,,,,,,,,,,z,1,0.6448,,,,,,,,0.132083333,-0.073250868,0,0,0,,0,43,43,132,1,SCIFF,C,old,z,./images/SCIFF.png,,,,,,,,,,,,,,,,,,,,,,
,,,,,,,,,,,,,,,,,199867,18,2022-01-28_21h40.13.352,lexical_decision_task_DD_L3,2021.2.3,MacIntel,60.0024001,,,,,,,,,,,0.6501,1,,,,,,,,,,,,,,m,1,0.6501,,,,,,,,0.132083333,-0.073250868,0,0,0,,0,44,44,54,1,TRIPOD,LB,old,m,./images/TRIPODLB.png,,,,,,,,,,,,,,,,,,,,,,
,,,,,,,,,,,,,,,,,199867,18,2022-01-28_21h40.13.352,lexical_decision_task_DD_L3,2021.2.3,MacIntel,60.0024001,,,,,,,,,,,0.7271,1,,,,,,,,,,,,,,m,1,0.7271,,,,,,,,0.132083333,-0.073250868,0,0,0,,0,45,45,28,1,FALCON,C,old,m,./images/FALCON.png,,,,,,,,,,,,,,,,,,,,,,
,,,,,,,,,,,,,,,,,199867,18,2022-01-28_21h40.13.352,lexical_decision_task_DD_L3,2021.2.3,MacIntel,60.0024001,,,,,,,,,,,0.7685,1,,,,,,,,,,,,,,z,1,0.7685,,,,,,,,0.132083333,-0.073250868,0,0,0,,0,46,46,126,1,GUELS,C,old,z,./images/GUELS.png,,,,,,,,,,,,,,,,,,,,,,
,,,,,,,,,,,,,,,,,199867,18,2022-01-28_21h40.13.352,lexical_decision_task_DD_L3,2021.2.3,MacIntel,60.0024001,,,,,,,,,,,0.8522,1,,,,,,,,,,,,,,z,1,0.8522,,,,,,,,0.132083333,-0.073250868,0,0,0,,0,47,47,113,1,LINEW,LB,old,z,./images/LINEWLB.png,,,,,,,,,,,,,,,,,,,,,,
,,,,,,,,,,,,,,,,,199867,18,2022-01-28_21h40.13.352,lexical_decision_task_DD_L3,2021.2.3,MacIntel,60.0024001,,,,,,,,,,,0.6828,1,,,,,,,,,,,,,,m,1,0.6828,,,,,,,,0.132083333,-0.073250868,0,0,0,,0,48,48,35,1,PEACH,HB,old,m,./images/PEACHHB.png,,,,,,,,,,,,,,,,,,,,,,
,,,,,,,,,,,,,,,,,199867,18,2022-01-28_21h40.13.352,lexical_decision_task_DD_L3,2021.2.3,MacIntel,60.0024001,,,,,,,,,,,0.8524,1,,,,,,,,,,,,,,m,1,0.8524,,,,,,,,0.132083333,-0.073250868,0,0,0,,0,49,49,26,1,SMOKER,HB,old,m,./images/SMOKERHB.png,,,,,,,,,,,,,,,,,,,,,,
,,,,,,,,,,,,,,,,,199867,18,2022-01-28_21h40.13.352,lexical_decision_task_DD_L3,2021.2.3,MacIntel,60.0024001,,,,,,,,,,,0.8645,1,,,,,,,,,,,,,,m,1,0.8645,,,,,,,,0.132083333,-0.073250868,0,0,0,,0,50,50,73,1,SNACK,C,old,m,./images/SNACK.png,,,,,,,,,,,,,,,,,,,,,,
,,,,,,,,,,,,,,,,,199867,18,2022-01-28_21h40.13.352,lexical_decision_task_DD_L3,2021.2.3,MacIntel,60.0024001,,,,,,,,,,,0.6481,1,,,,,,,,,,,,,,z,1,0.6481,,,,,,,,0.132083333,-0.073250868,0,0,0,,0,51,51,111,1,HOSSE,C,old,z,./images/HOSSE.png,,,,,,,,,,,,,,,,,,,,,,
,,,,,,,,,,,,,,,,,199867,18,2022-01-28_21h40.13.352,lexical_decision_task_DD_L3,2021.2.3,MacIntel,60.0024001,,,,,,,,,,,0.6655,1,,,,,,,,,,,,,,m,1,0.6655,,,,,,,,0.132083333,-0.073250868,0,0,0,,0,52,52,33,1,MAGGOT,LB,old,m,./images/MAGGOTLB.png,,,,,,,,,,,,,,,,,,,,,,
,,,,,,,,,,,,,,,,,199867,18,2022-01-28_21h40.13.352,lexical_decision_task_DD_L3,2021.2.3,MacIntel,60.0024001,,,,,,,,,,,1.3202,1,,,,,,,,,,,,,,z,1,1.3202,,,,,,,,0.132083333,-0.073250868,0,0,0,,0,53,53,121,1,CEERS,HB,old,z,./images/CEERSHB.png,,,,,,,,,,,,,,,,,,,,,,
,,,,,,,,,,,,,,,,,199867,18,2022-01-28_21h40.13.352,lexical_decision_task_DD_L3,2021.2.3,MacIntel,60.0024001,,,,,,,,,,,1.6171,1,,,,,,,,,,,,,,z,1,1.6171,,,,,,,,0.132083333,-0.073250868,0,0,0,,0,54,54,85,1,CHULK,HB,old,z,./images/CHULKHB.png,,,,,,,,,,,,,,,,,,,,,,
,,,,,,,,,,,,,,,,,199867,18,2022-01-28_21h40.13.352,lexical_decision_task_DD_L3,2021.2.3,MacIntel,60.0024001,,,,,,,,,,,1.5015,1,,,,,,,,,,,,,,z,1,1.5015,,,,,,,,0.132083333,-0.073250868,0,0,0,,0,55,55,106,1,CLUMS,HB,old,z,./images/CLUMSHB.png,,,,,,,,,,,,,,,,,,,,,,
,,,,,,,,,,,,,,,,,199867,18,2022-01-28_21h40.13.352,lexical_decision_task_DD_L3,2021.2.3,MacIntel,60.0024001,,,,,,,,,,,0.5886,1,,,,,,,,,,,,,,m,1,0.5886,,,,,,,,0.132083333,-0.073250868,0,0,0,,0,56,56,69,1,COOKER,LB,old,m,./images/COOKERLB.png,,,,,,,,,,,,,,,,,,,,,,
,,,,,,,,,,,,,,,,,199867,18,2022-01-28_21h40.13.352,lexical_decision_task_DD_L3,2021.2.3,MacIntel,60.0024001,,,,,,,,,,,0.8161,0,,,,,,,,,,,,,,m,0,0.8161,,,,,,,,0.132083333,-0.073250868,0,0,0,,0,57,57,162,1,LEICH,C,old,z,./images/LEICH.png,,,,,,,,,,,,,,,,,,,,,,
,,,,,,,,,,,,,,,,,199867,18,2022-01-28_21h40.13.352,lexical_decision_task_DD_L3,2021.2.3,MacIntel,60.0024001,,,,,,,,,,,0.6508,1,,,,,,,,,,,,,,m,1,0.6508,,,,,,,,0.132083333,-0.073250868,0,0,0,,0,58,58,27,1,ATTIC,LB,old,m,./images/ATTICLB.png,,,,,,,,,,,,,,,,,,,,,,
,,,,,,,,,,,,,,,,,199867,18,2022-01-28_21h40.13.352,lexical_decision_task_DD_L3,2021.2.3,MacIntel,60.0024001,,,,,,,,,,,1.5514,1,,,,,,,,,,,,,,z,1,1.5514,,,,,,,,0.132083333,-0.073250868,0,0,0,,0,59,59,88,1,GLUSH,HB,old,z,./images/GLUSHHB.png,,,,,,,,,,,,,,,,,,,,,,
,,,,,,,,,,,,,,,,,199867,18,2022-01-28_21h40.13.352,lexical_decision_task_DD_L3,2021.2.3,MacIntel,60.0024001,,,,,,,,,,,0.7529,1,,,,,,,,,,,,,,z,1,0.7529,,,,,,,,0.132083333,-0.073250868,0,0,0,,0,60,60,125,1,MOOKY,LB,old,z,./images/MOOKYLB.png,,,,,,,,,,,,,,,,,,,,,,
,,,,,,,,,,,,,,,,,199867,18,2022-01-28_21h40.13.352,lexical_decision_task_DD_L3,2021.2.3,MacIntel,60.0024001,,,,,,,,,,,1.2146,1,,,,,,,,,,,,,,m,1,1.2146,,,,,,,,0.132083333,-0.073250868,0,0,0,,0,61,61,71,1,PIMPLE,HB,old,m,./images/PIMPLEHB.png,,,,,,,,,,,,,,,,,,,,,,
,,,,,,,,,,,,,,,,,199867,18,2022-01-28_21h40.13.352,lexical_decision_task_DD_L3,2021.2.3,MacIntel,60.0024001,,,,,,,,,,,0.6159,1,,,,,,,,,,,,,,m,1,0.6159,,,,,,,,0.132083333,-0.073250868,0,0,0,,0,62,62,76,1,INFANT,C,old,m,./images/INFANT.png,,,,,,,,,,,,,,,,,,,,,,
,,,,,,,,,,,,,,,,,199867,18,2022-01-28_21h40.13.352,lexical_decision_task_DD_L3,2021.2.3,MacIntel,60.0024001,,,,,,,,,,,0.5681,1,,,,,,,,,,,,,,m,1,0.5681,,,,,,,,0.132083333,-0.073250868,0,0,0,,0,63,63,49,1,DRUMS,C,old,m,./images/DRUMS.png,,,,,,,,,,,,,,,,,,,,,,
,,,,,,,,,,,,,,,,,199867,18,2022-01-28_21h40.13.352,lexical_decision_task_DD_L3,2021.2.3,MacIntel,60.0024001,,,,,,,,,,,1.7504,0,,,,,,,,,,,,,,m,0,1.7504,,,,,,,,0.132083333,-0.073250868,0,0,0,,0,64,64,133,1,POWDY,HB,old,z,./images/POWDYHB.png,,,,,,,,,,,,,,,,,,,,,,
,,,,,,,,,,,,,,,,,199867,18,2022-01-28_21h40.13.352,lexical_decision_task_DD_L3,2021.2.3,MacIntel,60.0024001,,,,,,,,,,,0.5623,1,,,,,,,,,,,,,,m,1,0.5623,,,,,,,,0.132083333,-0.073250868,0,0,0,,0,65,65,48,1,SPORT,LB,old,m,./images/SPORTLB.png,,,,,,,,,,,,,,,,,,,,,,
,,,,,,,,,,,,,,,,,199867,18,2022-01-28_21h40.13.352,lexical_decision_task_DD_L3,2021.2.3,MacIntel,60.0024001,,,,,,,,,,,0.7502,1,,,,,,,,,,,,,,z,1,0.7502,,,,,,,,0.132083333,-0.073250868,0,0,0,,0,66,66,87,1,TRING,C,old,z,./images/TRING.png,,,,,,,,,,,,,,,,,,,,,,
,,,,,,,,,,,,,,,,,199867,18,2022-01-28_21h40.13.352,lexical_decision_task_DD_L3,2021.2.3,MacIntel,60.0024001,,,,,,,,,,,0.619,1,,,,,,,,,,,,,,m,1,0.619,,,,,,,,0.132083333,-0.073250868,0,0,0,,0,67,67,12,1,SHORE,LB,old,m,./images/SHORELB.png,,,,,,,,,,,,,,,,,,,,,,
,,,,,,,,,,,,,,,,,199867,18,2022-01-28_21h40.13.352,lexical_decision_task_DD_L3,2021.2.3,MacIntel,60.0024001,,,,,,,,,,,1.8306,1,,,,,,,,,,,,,,z,1,1.8306,,,,,,,,0.132083333,-0.073250868,0,0,0,,0,68,68,136,1,WERVE,HB,old,z,./images/WERVEHB.png,,,,,,,,,,,,,,,,,,,,,,
,,,,,,,,,,,,,,,,,199867,18,2022-01-28_21h40.13.352,lexical_decision_task_DD_L3,2021.2.3,MacIntel,60.0024001,,,,,,,,,,,0.7088,1,,,,,,,,,,,,,,m,1,0.7088,,,,,,,,0.132083333,-0.073250868,0,0,0,,0,69,69,18,1,JAGUAR,LB,old,m,./images/JAGUARLB.png,,,,,,,,,,,,,,,,,,,,,,
,,,,,,,,,,,,,,,,,199867,18,2022-01-28_21h40.13.352,lexical_decision_task_DD_L3,2021.2.3,MacIntel,60.0024001,,,,,,,,,,,1.1295,1,,,,,,,,,,,,,,z,1,1.1295,,,,,,,,0.132083333,-0.073250868,0,0,0,,0,70,70,148,1,JOMS,HB,old,z,./images/JOMSHB.png,,,,,,,,,,,,,,,,,,,,,,
,,,,,,,,,,,,,,,,,199867,18,2022-01-28_21h40.13.352,lexical_decision_task_DD_L3,2021.2.3,MacIntel,60.0024001,,,,,,,,,,,1.2945,1,,,,,,,,,,,,,,m,1,1.2945,,,,,,,,0.132083333,-0.073250868,0,0,0,,0,71,71,75,1,GRAIN,LB,old,m,./images/GRAINLB.png,,,,,,,,,,,,,,,,,,,,,,
,,,,,,,,,,,,,,,,,199867,18,2022-01-28_21h40.13.352,lexical_decision_task_DD_L3,2021.2.3,MacIntel,60.0024001,,,,,,,,,,,1.0841,1,,,,,,,,,,,,,,m,1,1.0841,,,,,,,,0.132083333,-0.073250868,0,0,0,,0,72,72,20,1,CRADLE,HB,old,m,./images/CRADLEHB.png,,,,,,,,,,,,,,,,,,,,,,
,,,,,,,,,,,,,,,,,199867,18,2022-01-28_21h40.13.352,lexical_decision_task_DD_L3,2021.2.3,MacIntel,60.0024001,,,,,,,,,,,1.182,1,,,,,,,,,,,,,,m,1,1.182,,,,,,,,0.132083333,-0.073250868,0,0,0,,0,73,73,19,1,DOUGH,C,old,m,./images/DOUGH.png,,,,,,,,,,,,,,,,,,,,,,
,,,,,,,,,,,,,,,,,199867,18,2022-01-28_21h40.13.352,lexical_decision_task_DD_L3,2021.2.3,MacIntel,60.0024001,,,,,,,,,,,1.8267,1,,,,,,,,,,,,,,z,1,1.8267,,,,,,,,0.132083333,-0.073250868,0,0,0,,0,74,74,124,1,TUNCH,HB,old,z,./images/TUNCHHB.png,,,,,,,,,,,,,,,,,,,,,,
,,,,,,,,,,,,,,,,,199867,18,2022-01-28_21h40.13.352,lexical_decision_task_DD_L3,2021.2.3,MacIntel,60.0024001,,,,,,,,,,,1.5185,1,,,,,,,,,,,,,,z,1,1.5185,,,,,,,,0.132083333,-0.073250868,0,0,0,,0,75,75,86,1,AIFED,LB,old,z,./images/AIFEDLB.png,,,,,,,,,,,,,,,,,,,,,,
,,,,,,,,,,,,,,,,,199867,18,2022-01-28_21h40.13.352,lexical_decision_task_DD_L3,2021.2.3,MacIntel,60.0024001,,,,,,,,,,,1.0338,1,,,,,,,,,,,,,,z,1,1.0338,,,,,,,,0.132083333,-0.073250868,0,0,0,,0,76,76,155,1,CANGY,LB,old,z,./images/CANGYLB.png,,,,,,,,,,,,,,,,,,,,,,
,,,,,,,,,,,,,,,,,199867,18,2022-01-28_21h40.13.352,lexical_decision_task_DD_L3,2021.2.3,MacIntel,60.0024001,,,,,,,,,,,0.6629,1,,,,,,,,,,,,,,m,1,0.6629,,,,,,,,0.132083333,-0.073250868,0,0,0,,0,77,77,3,1,FINGER,LB,old,m,./images/FINGERLB.png,,,,,,,,,,,,,,,,,,,,,,
,,,,,,,,,,,,,,,,,199867,18,2022-01-28_21h40.13.352,lexical_decision_task_DD_L3,2021.2.3,MacIntel,60.0024001,,,,,,,,,,,0.6255,1,,,,,,,,,,,,,,m,1,0.6255,,,,,,,,0.132083333,-0.073250868,0,0,0,,0,78,78,79,1,CRUST,C,old,m,./images/CRUST.png,,,,,,,,,,,,,,,,,,,,,,
,,,,,,,,,,,,,,,,,199867,18,2022-01-28_21h40.13.352,lexical_decision_task_DD_L3,2021.2.3,MacIntel,60.0024001,,,,,,,,,,,1.5975,1,,,,,,,,,,,,,,m,1,1.5975,,,,,,,,0.132083333,-0.073250868,0,0,0,,0,79,79,23,1,WALRUS,HB,old,m,./images/WALRUSHB.png,,,,,,,,,,,,,,,,,,,,,,
,,,,,,,,,,,,,,,,,199867,18,2022-01-28_21h40.13.352,lexical_decision_task_DD_L3,2021.2.3,MacIntel,60.0024001,,,,,,,,,,,2.0316,1,,,,,,,,,,,,,,z,1,2.0316,,,,,,,,0.132083333,-0.073250868,0,0,0,,0,80,80,151,1,TINKY,HB,old,z,./images/TINKYHB.png,,,,,,,,,,,,,,,,,,,,,,
,,,,,,,,,,,,,,,,,199867,18,2022-01-28_21h40.13.352,lexical_decision_task_DD_L3,2021.2.3,MacIntel,60.0024001,,,,,,,,,,,1.4177,1,,,,,,,,,,,,,,z,1,1.4177,,,,,,,,0.132083333,-0.073250868,0,0,0,,0,81,81,142,1,PLASK,HB,old,z,./images/PLASKHB.png,,,,,,,,,,,,,,,,,,,,,,
,,,,,,,,,,,,,,,,,199867,18,2022-01-28_21h40.13.352,lexical_decision_task_DD_L3,2021.2.3,MacIntel,60.0024001,,,,,,,,,,,0.9186,1,,,,,,,,,,,,,,m,1,0.9186,,,,,,,,0.132083333,-0.073250868,0,0,0,,0,82,82,41,1,STRING,HB,old,m,./images/STRINGHB.png,,,,,,,,,,,,,,,,,,,,,,
,,,,,,,,,,,,,,,,,199867,18,2022-01-28_21h40.13.352,lexical_decision_task_DD_L3,2021.2.3,MacIntel,60.0024001,,,,,,,,,,,1.5842,1,,,,,,,,,,,,,,z,1,1.5842,,,,,,,,0.127829861,-0.121835938,0,0,0,space,0,83,83,127,1,NINDY,HB,old,z,./images/NINDYHB.png,2.5246,,,,,,,,,,,,,,,,,,,,,
,,,,,,,,,,,,,,,,,199867,18,2022-01-28_21h40.13.352,lexical_decision_task_DD_L3,2021.2.3,MacIntel,60.0024001,,,,,,,,,,,1.1481,1,,,,,,,,,,,,,,m,1,1.1481,,,,,,,,0.127829861,-0.121835938,0,0,0,,0,84,84,62,1,PURSE,HB,old,m,./images/PURSEHB.png,,,,,,,,,,,,,,,,,,,,,,
,,,,,,,,,,,,,,,,,199867,18,2022-01-28_21h40.13.352,lexical_decision_task_DD_L3,2021.2.3,MacIntel,60.0024001,,,,,,,,,,,0.6113,1,,,,,,,,,,,,,,m,1,0.6113,,,,,,,,0.127829861,-0.121835938,0,0,0,,0,85,85,81,1,POODLE,LB,old,m,./images/POODLELB.png,,,,,,,,,,,,,,,,,,,,,,
,,,,,,,,,,,,,,,,,199867,18,2022-01-28_21h40.13.352,lexical_decision_task_DD_L3,2021.2.3,MacIntel,60.0024001,,,,,,,,,,,0.9516,1,,,,,,,,,,,,,,z,1,0.9516,,,,,,,,0.127829861,-0.121835938,0,0,0,,0,86,86,167,1,ZONET,LB,old,z,./images/ZONETLB.png,,,,,,,,,,,,,,,,,,,,,,
,,,,,,,,,,,,,,,,,199867,18,2022-01-28_21h40.13.352,lexical_decision_task_DD_L3,2021.2.3,MacIntel,60.0024001,,,,,,,,,,,0.5775,1,,,,,,,,,,,,,,m,1,0.5775,,,,,,,,0.127829861,-0.121835938,0,0,0,,0,87,87,22,1,MELON,C,old,m,./images/MELON.png,,,,,,,,,,,,,,,,,,,,,,
,,,,,,,,,,,,,,,,,199867,18,2022-01-28_21h40.13.352,lexical_decision_task_DD_L3,2021.2.3,MacIntel,60.0024001,,,,,,,,,,,0.8421,1,,,,,,,,,,,,,,z,1,0.8421,,,,,,,,0.127829861,-0.121835938,0,0,0,,0,88,88,135,1,JOODY,C,old,z,./images/JOODY.png,,,,,,,,,,,,,,,,,,,,,,
,,,,,,,,,,,,,,,,,199867,18,2022-01-28_21h40.13.352,lexical_decision_task_DD_L3,2021.2.3,MacIntel,60.0024001,,,,,,,,,,,0.8494,1,,,,,,,,,,,,,,m,1,0.8494,,,,,,,,0.127829861,-0.121835938,0,0,0,,0,89,89,82,1,SUNSET,C,old,m,./images/SUNSET.png,,,,,,,,,,,,,,,,,,,,,,
,,,,,,,,,,,,,,,,,199867,18,2022-01-28_21h40.13.352,lexical_decision_task_DD_L3,2021.2.3,MacIntel,60.0024001,,,,,,,,,,,0.7752,1,,,,,,,,,,,,,,z,1,0.7752,,,,,,,,0.127829861,-0.121835938,0,0,0,,0,90,90,161,1,BLAPS,LB,old,z,./images/BLAPSLB.png,,,,,,,,,,,,,,,,,,,,,,
,,,,,,,,,,,,,,,,,199867,18,2022-01-28_21h40.13.352,lexical_decision_task_DD_L3,2021.2.3,MacIntel,60.0024001,,,,,,,,,,,0.6821,1,,,,,,,,,,,,,,m,1,0.6821,,,,,,,,0.127829861,-0.121835938,0,0,0,,0,91,91,46,1,PEARL,C,old,m,./images/PEARL.png,,,,,,,,,,,,,,,,,,,,,,
,,,,,,,,,,,,,,,,,199867,18,2022-01-28_21h40.13.352,lexical_decision_task_DD_L3,2021.2.3,MacIntel,60.0024001,,,,,,,,,,,1.2622,1,,,,,,,,,,,,,,m,1,1.2622,,,,,,,,0.127829861,-0.121835938,0,0,0,,0,92,92,29,1,CRUMB,HB,old,m,./images/CRUMBHB.png,,,,,,,,,,,,,,,,,,,,,,
,,,,,,,,,,,,,,,,,199867,18,2022-01-28_21h40.13.352,lexical_decision_task_DD_L3,2021.2.3,MacIntel,60.0024001,,,,,,,,,,,0.5923,1,,,,,,,,,,,,,,m,1,0.5923,,,,,,,,0.127829861,-0.121835938,0,0,0,,0,93,93,15,1,GREASE,LB,old,m,./images/GREASELB.png,,,,,,,,,,,,,,,,,,,,,,
,,,,,,,,,,,,,,,,,199867,18,2022-01-28_21h40.13.352,lexical_decision_task_DD_L3,2021.2.3,MacIntel,60.0024001,,,,,,,,,,,0.8968,1,,,,,,,,,,,,,,z,1,0.8968,,,,,,,,0.127829861,-0.121835938,0,0,0,,0,94,94,123,1,SEDGE,C,old,z,./images/SEDGE.png,,,,,,,,,,,,,,,,,,,,,,
,,,,,,,,,,,,,,,,,199867,18,2022-01-28_21h40.13.352,lexical_decision_task_DD_L3,2021.2.3,MacIntel,60.0024001,,,,,,,,,,,0.5822,1,,,,,,,,,,,,,,m,1,0.5822,,,,,,,,0.127829861,-0.121835938,0,0,0,,0,95,95,61,1,CANDLE,C,old,m,./images/CANDLE.png,,,,,,,,,,,,,,,,,,,,,,
,,,,,,,,,,,,,,,,,199867,18,2022-01-28_21h40.13.352,lexical_decision_task_DD_L3,2021.2.3,MacIntel,60.0024001,,,,,,,,,,,0.6601,0,,,,,,,,,,,,,,m,0,0.6601,,,,,,,,0.127829861,-0.121835938,0,0,0,,0,96,96,159,1,CUDDY,C,old,z,./images/CUDDY.png,,,,,,,,,,,,,,,,,,,,,,
,,,,,,,,,,,,,,,,,199867,18,2022-01-28_21h40.13.352,lexical_decision_task_DD_L3,2021.2.3,MacIntel,60.0024001,,,,,,,,,,,1.3579,1,,,,,,,,,,,,,,z,1,1.3579,,,,,,,,0.127829861,-0.121835938,0,0,0,,0,97,97,140,1,DOVET,LB,old,z,./images/DOVETLB.png,,,,,,,,,,,,,,,,,,,,,,
,,,,,,,,,,,,,,,,,199867,18,2022-01-28_21h40.13.352,lexical_decision_task_DD_L3,2021.2.3,MacIntel,60.0024001,,,,,,,,,,,1.3509,1,,,,,,,,,,,,,,m,1,1.3509,,,,,,,,0.127829861,-0.121835938,0,0,0,,0,98,98,8,1,TULIP,HB,old,m,./images/TULIPHB.png,,,,,,,,,,,,,,,,,,,,,,
,,,,,,,,,,,,,,,,,199867,18,2022-01-28_21h40.13.352,lexical_decision_task_DD_L3,2021.2.3,MacIntel,60.0024001,,,,,,,,,,,0.8902,1,,,,,,,,,,,,,,z,1,0.8902,,,,,,,,0.127829861,-0.121835938,0,0,0,,0,99,99,156,1,HIXES,C,old,z,./images/HIXES.png,,,,,,,,,,,,,,,,,,,,,,
,,,,,,,,,,,,,,,,,199867,18,2022-01-28_21h40.13.352,lexical_decision_task_DD_L3,2021.2.3,MacIntel,60.0024001,,,,,,,,,,,0.719,1,,,,,,,,,,,,,,m,1,0.719,,,,,,,,0.127829861,-0.121835938,0,0,0,,0,100,100,66,1,SWEAT,LB,old,m,./images/SWEATLB.png,,,,,,,,,,,,,,,,,,,,,,
,,,,,,,,,,,,,,,,,199867,18,2022-01-28_21h40.13.352,lexical_decision_task_DD_L3,2021.2.3,MacIntel,60.0024001,,,,,,,,,,,0.6786,1,,,,,,,,,,,,,,m,1,0.6786,,,,,,,,0.127829861,-0.121835938,0,0,0,,0,101,101,13,1,MOTOR,C,old,m,./images/MOTOR.png,,,,,,,,,,,,,,,,,,,,,,
,,,,,,,,,,,,,,,,,199867,18,2022-01-28_21h40.13.352,lexical_decision_task_DD_L3,2021.2.3,MacIntel,60.0024001,,,,,,,,,,,0.7512,1,,,,,,,,,,,,,,z,1,0.7512,,,,,,,,0.127829861,-0.121835938,0,0,0,,0,102,102,98,1,BAMPS,LB,old,z,./images/BAMPSLB.png,,,,,,,,,,,,,,,,,,,,,,
,,,,,,,,,,,,,,,,,199867,18,2022-01-28_21h40.13.352,lexical_decision_task_DD_L3,2021.2.3,MacIntel,60.0024001,,,,,,,,,,,0.8177,1,,,,,,,,,,,,,,m,1,0.8177,,,,,,,,0.127829861,-0.121835938,0,0,0,,0,103,103,14,1,PICKLE,HB,old,m,./images/PICKLEHB.png,,,,,,,,,,,,,,,,,,,,,,
,,,,,,,,,,,,,,,,,199867,18,2022-01-28_21h40.13.352,lexical_decision_task_DD_L3,2021.2.3,MacIntel,60.0024001,,,,,,,,,,,0.8913,1,,,,,,,,,,,,,,z,1,0.8913,,,,,,,,0.127829861,-0.121835938,0,0,0,,0,104,104,153,1,CLUPS,C,old,z,./images/CLUPS.png,,,,,,,,,,,,,,,,,,,,,,
,,,,,,,,,,,,,,,,,199867,18,2022-01-28_21h40.13.352,lexical_decision_task_DD_L3,2021.2.3,MacIntel,60.0024001,,,,,,,,,,,1.4849,1,,,,,,,,,,,,,,m,1,1.4849,,,,,,,,0.127829861,-0.121835938,0,0,0,,0,105,105,80,1,WEASEL,HB,old,m,./images/WEASELHB.png,,,,,,,,,,,,,,,,,,,,,,
,,,,,,,,,,,,,,,,,199867,18,2022-01-28_21h40.13.352,lexical_decision_task_DD_L3,2021.2.3,MacIntel,60.0024001,,,,,,,,,,,0.7084,1,,,,,,,,,,,,,,z,1,0.7084,,,,,,,,0.127829861,-0.121835938,0,0,0,,0,106,106,101,1,GLEET,LB,old,z,./images/GLEETLB.png,,,,,,,,,,,,,,,,,,,,,,
,,,,,,,,,,,,,,,,,199867,18,2022-01-28_21h40.13.352,lexical_decision_task_DD_L3,2021.2.3,MacIntel,60.0024001,,,,,,,,,,,0.9362,1,,,,,,,,,,,,,,m,1,0.9362,,,,,,,,0.127829861,-0.121835938,0,0,0,,0,107,107,53,1,CARPET,HB,old,m,./images/CARPETHB.png,,,,,,,,,,,,,,,,,,,,,,
,,,,,,,,,,,,,,,,,199867,18,2022-01-28_21h40.13.352,lexical_decision_task_DD_L3,2021.2.3,MacIntel,60.0024001,,,,,,,,,,,0.6599,1,,,,,,,,,,,,,,z,1,0.6599,,,,,,,,0.127829861,-0.121835938,0,0,0,,0,108,108,114,1,RIKES,C,old,z,./images/RIKES.png,,,,,,,,,,,,,,,,,,,,,,
,,,,,,,,,,,,,,,,,199867,18,2022-01-28_21h40.13.352,lexical_decision_task_DD_L3,2021.2.3,MacIntel,60.0024001,,,,,,,,,,,1.4486,0,,,,,,,,,,,,,,z,0,1.4486,,,,,,,,0.127829861,-0.121835938,0,0,0,,0,109,109,65,1,FARMER,HB,old,m,./images/FARMERHB.png,,,,,,,,,,,,,,,,,,,,,,
,,,,,,,,,,,,,,,,,199867,18,2022-01-28_21h40.13.352,lexical_decision_task_DD_L3,2021.2.3,MacIntel,60.0024001,,,,,,,,,,,0.6242,1,,,,,,,,,,,,,,m,1,0.6242,,,,,,,,0.127829861,-0.121835938,0,0,0,,0,110,110,51,1,ONION,LB,old,m,./images/ONIONLB.png,,,,,,,,,,,,,,,,,,,,,,
,,,,,,,,,,,,,,,,,199867,18,2022-01-28_21h40.13.352,lexical_decision_task_DD_L3,2021.2.3,MacIntel,60.0024001,,,,,,,,,,,0.7976,1,,,,,,,,,,,,,,m,1,0.7976,,,,,,,,0.127829861,-0.121835938,0,0,0,,0,111,111,30,1,STORM,LB,old,m,./images/STORMLB.png,,,,,,,,,,,,,,,,,,,,,,
,,,,,,,,,,,,,,,,,199867,18,2022-01-28_21h40.13.352,lexical_decision_task_DD_L3,2021.2.3,MacIntel,60.0024001,,,,,,,,,,,1.3018,1,,,,,,,,,,,,,,m,1,1.3018,,,,,,,,0.127829861,-0.121835938,0,0,0,,0,112,112,43,1,MOSQUE,C,old,m,./images/MOSQUE.png,,,,,,,,,,,,,,,,,,,,,,
,,,,,,,,,,,,,,,,,199867,18,2022-01-28_21h40.13.352,lexical_decision_task_DD_L3,2021.2.3,MacIntel,60.0024001,,,,,,,,,,,0.5651,1,,,,,,,,,,,,,,m,1,0.5651,,,,,,,,0.127829861,-0.121835938,0,0,0,,0,113,113,36,1,THROAT,LB,old,m,./images/THROATLB.png,,,,,,,,,,,,,,,,,,,,,,
,,,,,,,,,,,,,,,,,199867,18,2022-01-28_21h40.13.352,lexical_decision_task_DD_L3,2021.2.3,MacIntel,60.0024001,,,,,,,,,,,0.6507,1,,,,,,,,,,,,,,z,1,0.6507,,,,,,,,0.127829861,-0.121835938,0,0,0,,0,114,114,89,1,DRIEK,LB,old,z,./images/DRIEKLB.png,,,,,,,,,,,,,,,,,,,,,,
,,,,,,,,,,,,,,,,,199867,18,2022-01-28_21h40.13.352,lexical_decision_task_DD_L3,2021.2.3,MacIntel,60.0024001,,,,,,,,,,,1.018,1,,,,,,,,,,,,,,z,1,1.018,,,,,,,,0.127829861,-0.121835938,0,0,0,,0,115,115,145,1,LAMEL,HB,old,z,./images/LAMELHB.png,,,,,,,,,,,,,,,,,,,,,,
,,,,,,,,,,,,,,,,,199867,18,2022-01-28_21h40.13.352,lexical_decision_task_DD_L3,2021.2.3,MacIntel,60.0024001,,,,,,,,,,,0.595,1,,,,,,,,,,,,,,m,1,0.595,,,,,,,,0.127829861,-0.121835938,0,0,0,,0,116,116,4,1,MUSCLE,C,old,m,./images/MUSCLE.png,,,,,,,,,,,,,,,,,,,,,,
,,,,,,,,,,,,,,,,,199867,18,2022-01-28_21h40.13.352,lexical_decision_task_DD_L3,2021.2.3,MacIntel,60.0024001,,,,,,,,,,,0.7818,1,,,,,,,,,,,,,,z,1,0.7818,,,,,,,,0.127829861,-0.121835938,0,0,0,,0,117,117,122,1,BLOOT,LB,old,z,./images/BLOOTLB.png,,,,,,,,,,,,,,,,,,,,,,
,,,,,,,,,,,,,,,,,199867,18,2022-01-28_21h40.13.352,lexical_decision_task_DD_L3,2021.2.3,MacIntel,60.0024001,,,,,,,,,,,0.7849,1,,,,,,,,,,,,,,m,1,0.7849,,,,,,,,0.127829861,-0.121835938,0,0,0,,0,118,118,68,1,TORCH,HB,old,m,./images/TORCHHB.png,,,,,,,,,,,,,,,,,,,,,,
,,,,,,,,,,,,,,,,,199867,18,2022-01-28_21h40.13.352,lexical_decision_task_DD_L3,2021.2.3,MacIntel,60.0024001,,,,,,,,,,,0.5685,1,,,,,,,,,,,,,,z,1,0.5685,,,,,,,,0.127829861,-0.121835938,0,0,0,,0,119,119,144,1,NAIRY,C,old,z,./images/NAIRY.png,,,,,,,,,,,,,,,,,,,,,,
,,,,,,,,,,,,,,,,,199867,18,2022-01-28_21h40.13.352,lexical_decision_task_DD_L3,2021.2.3,MacIntel,60.0024001,,,,,,,,,,,1.1925,1,,,,,,,,,,,,,,m,1,1.1925,,,,,,,,0.127829861,-0.121835938,0,0,0,,0,120,120,10,1,BELLY,C,old,m,./images/BELLY.png,,,,,,,,,,,,,,,,,,,,,,
,,,,,,,,,,,,,,,,,199867,18,2022-01-28_21h40.13.352,lexical_decision_task_DD_L3,2021.2.3,MacIntel,60.0024001,,,,,,,,,,,1.3624,1,,,,,,,,,,,,,,m,1,1.3624,,,,,,,,0.127829861,-0.121835938,0,0,0,,0,121,121,44,1,LIZARD,HB,old,m,./images/LIZARDHB.png,,,,,,,,,,,,,,,,,,,,,,
,,,,,,,,,,,,,,,,,199867,18,2022-01-28_21h40.13.352,lexical_decision_task_DD_L3,2021.2.3,MacIntel,60.0024001,,,,,,,,,,,1.219,1,,,,,,,,,,,,,,m,1,1.219,,,,,,,,0.127829861,-0.121835938,0,0,0,,0,122,122,32,1,BARREL,HB,old,m,./images/BARRELHB.png,,,,,,,,,,,,,,,,,,,,,,
,,,,,,,,,,,,,,,,,199867,18,2022-01-28_21h40.13.352,lexical_decision_task_DD_L3,2021.2.3,MacIntel,60.0024001,,,,,,,,,,,1.1483,1,,,,,,,,,,,,,,m,1,1.1483,,,,,,,,0.127829861,-0.121835938,0,0,0,,0,123,123,16,1,PENCE,C,old,m,./images/PENCE.png,,,,,,,,,,,,,,,,,,,,,,
,,,,,,,,,,,,,,,,,199867,18,2022-01-28_21h40.13.352,lexical_decision_task_DD_L3,2021.2.3,MacIntel,60.0024001,,,,,,,,,,,1.3956,1,,,,,,,,,,,,,,z,1,1.3956,,,,,,,,0.127829861,-0.121835938,0,0,0,,0,124,124,118,1,BAVEL,HB,old,z,./images/BAVELHB.png,,,,,,,,,,,,,,,,,,,,,,
,,,,,,,,,,,,,,,,,199867,18,2022-01-28_21h40.13.352,lexical_decision_task_DD_L3,2021.2.3,MacIntel,60.0024001,,,,,,,,,,,0.7904,1,,,,,,,,,,,,,,z,1,0.7904,,,,,,,,0.127829861,-0.121835938,0,0,0,space,0,125,125,158,1,EGECT,LB,old,z,./images/EGECTLB.png,1.5681,,,,,,,,,,,,,,,,,,,,,
,,,,,,,,,,,,,,,,,199867,18,2022-01-28_21h40.13.352,lexical_decision_task_DD_L3,2021.2.3,MacIntel,60.0024001,,,,,,,,,,,2.235,1,,,,,,,,,,,,,,z,1,2.235,,,,,,,,0.127829861,-0.121835938,0,0,0,,0,126,126,97,1,CHIDS,HB,old,z,./images/CHIDSHB.png,,,,,,,,,,,,,,,,,,,,,,
,,,,,,,,,,,,,,,,,199867,18,2022-01-28_21h40.13.352,lexical_decision_task_DD_L3,2021.2.3,MacIntel,60.0024001,,,,,,,,,,,0.6269,1,,,,,,,,,,,,,,z,1,0.6269,,,,,,,,0.127829861,-0.121835938,0,0,0,,0,127,127,137,1,JOOST,LB,old,z,./images/JOOSTLB.png,,,,,,,,,,,,,,,,,,,,,,
,,,,,,,,,,,,,,,,,199867,18,2022-01-28_21h40.13.352,lexical_decision_task_DD_L3,2021.2.3,MacIntel,60.0024001,,,,,,,,,,,1.2478,1,,,,,,,,,,,,,,z,1,1.2478,,,,,,,,0.127829861,-0.121835938,0,0,0,,0,128,128,129,1,PRANS,C,old,z,./images/PRANS.png,,,,,,,,,,,,,,,,,,,,,,
,,,,,,,,,,,,,,,,,199867,18,2022-01-28_21h40.13.352,lexical_decision_task_DD_L3,2021.2.3,MacIntel,60.0024001,,,,,,,,,,,1.3194,1,,,,,,,,,,,,,,m,1,1.3194,,,,,,,,0.127829861,-0.121835938,0,0,0,,0,129,129,59,1,BURIAL,HB,old,m,./images/BURIALHB.png,,,,,,,,,,,,,,,,,,,,,,
,,,,,,,,,,,,,,,,,199867,18,2022-01-28_21h40.13.352,lexical_decision_task_DD_L3,2021.2.3,MacIntel,60.0024001,,,,,,,,,,,0.8836,1,,,,,,,,,,,,,,m,1,0.8836,,,,,,,,0.127829861,-0.121835938,0,0,0,,0,130,130,47,1,BERRY,HB,old,m,./images/BERRYHB.png,,,,,,,,,,,,,,,,,,,,,,
,,,,,,,,,,,,,,,,,199867,18,2022-01-28_21h40.13.352,lexical_decision_task_DD_L3,2021.2.3,MacIntel,60.0024001,,,,,,,,,,,0.5295,1,,,,,,,,,,,,,,m,1,0.5295,,,,,,,,0.127829861,-0.121835938,0,0,0,,0,131,131,0,1,TOMATO,LB,old,m,./images/TOMATOLB.png,,,,,,,,,,,,,,,,,,,,,,
,,,,,,,,,,,,,,,,,199867,18,2022-01-28_21h40.13.352,lexical_decision_task_DD_L3,2021.2.3,MacIntel,60.0024001,,,,,,,,,,,0.553,1,,,,,,,,,,,,,,m,1,0.553,,,,,,,,0.127829861,-0.121835938,0,0,0,,0,132,132,45,1,KITTEN,LB,old,m,./images/KITTENLB.png,,,,,,,,,,,,,,,,,,,,,,
,,,,,,,,,,,,,,,,,199867,18,2022-01-28_21h40.13.352,lexical_decision_task_DD_L3,2021.2.3,MacIntel,60.0024001,,,,,,,,,,,1.8112,0,,,,,,,,,,,,,,z,0,1.8112,,,,,,,,0.127829861,-0.121835938,0,0,0,,0,133,133,17,1,SKIING,HB,old,m,./images/SKIINGHB.png,,,,,,,,,,,,,,,,,,,,,,
,,,,,,,,,,,,,,,,,199867,18,2022-01-28_21h40.13.352,lexical_decision_task_DD_L3,2021.2.3,MacIntel,60.0024001,,,,,,,,,,,0.6599,1,,,,,,,,,,,,,,z,1,0.6599,,,,,,,,0.127829861,-0.121835938,0,0,0,,0,134,134,107,1,FASKS,LB,old,z,./images/FASKSLB.png,,,,,,,,,,,,,,,,,,,,,,
,,,,,,,,,,,,,,,,,199867,18,2022-01-28_21h40.13.352,lexical_decision_task_DD_L3,2021.2.3,MacIntel,60.0024001,,,,,,,,,,,0.9277,1,,,,,,,,,,,,,,m,1,0.9277,,,,,,,,0.127829861,-0.121835938,0,0,0,,0,135,135,39,1,SHELF,LB,old,m,./images/SHELFLB.png,,,,,,,,,,,,,,,,,,,,,,
,,,,,,,,,,,,,,,,,199867,18,2022-01-28_21h40.13.352,lexical_decision_task_DD_L3,2021.2.3,MacIntel,60.0024001,,,,,,,,,,,0.612,1,,,,,,,,,,,,,,m,1,0.612,,,,,,,,0.127829861,-0.121835938,0,0,0,,0,136,136,40,1,SWING,C,old,m,./images/SWING.png,,,,,,,,,,,,,,,,,,,,,,
,,,,,,,,,,,,,,,,,199867,18,2022-01-28_21h40.13.352,lexical_decision_task_DD_L3,2021.2.3,MacIntel,60.0024001,,,,,,,,,,,1.315,1,,,,,,,,,,,,,,z,1,1.315,,,,,,,,0.127829861,-0.121835938,0,0,0,,0,137,137,109,1,BURGE,HB,old,z,./images/BURGEHB.png,,,,,,,,,,,,,,,,,,,,,,
,,,,,,,,,,,,,,,,,199867,18,2022-01-28_21h40.13.352,lexical_decision_task_DD_L3,2021.2.3,MacIntel,60.0024001,,,,,,,,,,,0.8122,1,,,,,,,,,,,,,,z,1,0.8122,,,,,,,,0.127829861,-0.121835938,0,0,0,,0,138,138,99,1,BACKY,C,old,z,./images/BACKY.png,,,,,,,,,,,,,,,,,,,,,,
,,,,,,,,,,,,,,,,,199867,18,2022-01-28_21h40.13.352,lexical_decision_task_DD_L3,2021.2.3,MacIntel,60.0024001,,,,,,,,,,,0.7573,1,,,,,,,,,,,,,,m,1,0.7573,,,,,,,,0.127829861,-0.121835938,0,0,0,,0,139,139,31,1,QUILL,C,old,m,./images/QUILL.png,,,,,,,,,,,,,,,,,,,,,,
,,,,,,,,,,,,,,,,,199867,18,2022-01-28_21h40.13.352,lexical_decision_task_DD_L3,2021.2.3,MacIntel,60.0024001,,,,,,,,,,,0.7299,1,,,,,,,,,,,,,,m,1,0.7299,,,,,,,,0.127829861,-0.121835938,0,0,0,,0,140,140,83,1,JUNGLE,HB,old,m,./images/JUNGLEHB.png,,,,,,,,,,,,,,,,,,,,,,
,,,,,,,,,,,,,,,,,199867,18,2022-01-28_21h40.13.352,lexical_decision_task_DD_L3,2021.2.3,MacIntel,60.0024001,,,,,,,,,,,0.557,1,,,,,,,,,,,,,,m,1,0.557,,,,,,,,0.127829861,-0.121835938,0,0,0,,0,141,141,55,1,MUFFIN,C,old,m,./images/MUFFIN.png,,,,,,,,,,,,,,,,,,,,,,
,,,,,,,,,,,,,,,,,199867,18,2022-01-28_21h40.13.352,lexical_decision_task_DD_L3,2021.2.3,MacIntel,60.0024001,,,,,,,,,,,0.7943,1,,,,,,,,,,,,,,z,1,0.7943,,,,,,,,0.127829861,-0.121835938,0,0,0,,0,142,142,160,1,VEETS,HB,old,z,./images/VEETSHB.png,,,,,,,,,,,,,,,,,,,,,,
,,,,,,,,,,,,,,,,,199867,18,2022-01-28_21h40.13.352,lexical_decision_task_DD_L3,2021.2.3,MacIntel,60.0024001,,,,,,,,,,,0.7687,1,,,,,,,,,,,,,,m,1,0.7687,,,,,,,,0.127829861,-0.121835938,0,0,0,,0,143,143,2,1,BEARD,HB,old,m,./images/BEARDHB.png,,,,,,,,,,,,,,,,,,,,,,
,,,,,,,,,,,,,,,,,199867,18,2022-01-28_21h40.13.352,lexical_decision_task_DD_L3,2021.2.3,MacIntel,60.0024001,,,,,,,,,,,0.7252,1,,,,,,,,,,,,,,z,1,0.7252,,,,,,,,0.127829861,-0.121835938,0,0,0,,0,144,144,110,1,CRUNK,LB,old,z,./images/CRUNKLB.png,,,,,,,,,,,,,,,,,,,,,,
,,,,,,,,,,,,,,,,,199867,18,2022-01-28_21h40.13.352,lexical_decision_task_DD_L3,2021.2.3,MacIntel,60.0024001,,,,,,,,,,,0.9264,1,,,,,,,,,,,,,,z,1,0.9264,,,,,,,,0.127829861,-0.121835938,0,0,0,,0,145,145,104,1,GITTY,LB,old,z,./images/GITTYLB.png,,,,,,,,,,,,,,,,,,,,,,
,,,,,,,,,,,,,,,,,199867,18,2022-01-28_21h40.13.352,lexical_decision_task_DD_L3,2021.2.3,MacIntel,60.0024001,,,,,,,,,,,0.5313,1,,,,,,,,,,,,,,m,1,0.5313,,,,,,,,0.127829861,-0.121835938,0,0,0,,0,146,146,42,1,FOLDER,LB,old,m,./images/FOLDERLB.png,,,,,,,,,,,,,,,,,,,,,,
,,,,,,,,,,,,,,,,,199867,18,2022-01-28_21h40.13.352,lexical_decision_task_DD_L3,2021.2.3,MacIntel,60.0024001,,,,,,,,,,,0.9245,1,,,,,,,,,,,,,,z,1,0.9245,,,,,,,,0.127829861,-0.121835938,0,0,0,,0,147,147,143,1,MONGS,LB,old,z,./images/MONGSLB.png,,,,,,,,,,,,,,,,,,,,,,
,,,,,,,,,,,,,,,,,199867,18,2022-01-28_21h40.13.352,lexical_decision_task_DD_L3,2021.2.3,MacIntel,60.0024001,,,,,,,,,,,0.8492,1,,,,,,,,,,,,,,z,1,0.8492,,,,,,,,0.127829861,-0.121835938,0,0,0,,0,148,148,141,1,PLEET,C,old,z,./images/PLEET.png,,,,,,,,,,,,,,,,,,,,,,
,,,,,,,,,,,,,,,,,199867,18,2022-01-28_21h40.13.352,lexical_decision_task_DD_L3,2021.2.3,MacIntel,60.0024001,,,,,,,,,,,0.5267,1,,,,,,,,,,,,,,m,1,0.5267,,,,,,,,0.127829861,-0.121835938,0,0,0,,0,149,149,63,1,MIRROR,LB,old,m,./images/MIRRORLB.png,,,,,,,,,,,,,,,,,,,,,,
,,,,,,,,,,,,,,,,,199867,18,2022-01-28_21h40.13.352,lexical_decision_task_DD_L3,2021.2.3,MacIntel,60.0024001,,,,,,,,,,,1.213,1,,,,,,,,,,,,,,z,1,1.213,,,,,,,,0.127829861,-0.121835938,0,0,0,,0,150,150,157,1,INLER,HB,old,z,./images/INLERHB.png,,,,,,,,,,,,,,,,,,,,,,
,,,,,,,,,,,,,,,,,199867,18,2022-01-28_21h40.13.352,lexical_decision_task_DD_L3,2021.2.3,MacIntel,60.0024001,,,,,,,,,,,0.6848,1,,,,,,,,,,,,,,z,1,0.6848,,,,,,,,0.127829861,-0.121835938,0,0,0,,0,151,151,131,1,NACES,LB,old,z,./images/NACESLB.png,,,,,,,,,,,,,,,,,,,,,,
,,,,,,,,,,,,,,,,,199867,18,2022-01-28_21h40.13.352,lexical_decision_task_DD_L3,2021.2.3,MacIntel,60.0024001,,,,,,,,,,,0.6321,1,,,,,,,,,,,,,,m,1,0.6321,,,,,,,,0.127829861,-0.121835938,0,0,0,,0,152,152,38,1,LADDER,HB,old,m,./images/LADDERHB.png,,,,,,,,,,,,,,,,,,,,,,
,,,,,,,,,,,,,,,,,199867,18,2022-01-28_21h40.13.352,lexical_decision_task_DD_L3,2021.2.3,MacIntel,60.0024001,,,,,,,,,,,0.6156,1,,,,,,,,,,,,,,z,1,0.6156,,,,,,,,0.127829861,-0.121835938,0,0,0,,0,153,153,96,1,KEAMS,C,old,z,./images/KEAMS.png,,,,,,,,,,,,,,,,,,,,,,
,,,,,,,,,,,,,,,,,199867,18,2022-01-28_21h40.13.352,lexical_decision_task_DD_L3,2021.2.3,MacIntel,60.0024001,,,,,,,,,,,0.6628,1,,,,,,,,,,,,,,z,1,0.6628,,,,,,,,0.127829861,-0.121835938,0,0,0,,0,154,154,120,1,RINED,C,old,z,./images/RINED.png,,,,,,,,,,,,,,,,,,,,,,
,,,,,,,,,,,,,,,,,199867,18,2022-01-28_21h40.13.352,lexical_decision_task_DD_L3,2021.2.3,MacIntel,60.0024001,,,,,,,,,,,1.048,1,,,,,,,,,,,,,,m,1,1.048,,,,,,,,0.127829861,-0.121835938,0,0,0,,0,155,155,11,1,BONNET,HB,old,m,./images/BONNETHB.png,,,,,,,,,,,,,,,,,,,,,,
,,,,,,,,,,,,,,,,,199867,18,2022-01-28_21h40.13.352,lexical_decision_task_DD_L3,2021.2.3,MacIntel,60.0024001,,,,,,,,,,,0.9976,1,,,,,,,,,,,,,,z,1,0.9976,,,,,,,,0.127829861,-0.121835938,0,0,0,,0,156,156,150,1,NOOLS,C,old,z,./images/NOOLS.png,,,,,,,,,,,,,,,,,,,,,,
,,,,,,,,,,,,,,,,,199867,18,2022-01-28_21h40.13.352,lexical_decision_task_DD_L3,2021.2.3,MacIntel,60.0024001,,,,,,,,,,,1.3001,1,,,,,,,,,,,,,,z,1,1.3001,,,,,,,,0.127829861,-0.121835938,0,0,0,,0,157,157,100,1,DRIBS,HB,old,z,./images/DRIBSHB.png,,,,,,,,,,,,,,,,,,,,,,
,,,,,,,,,,,,,,,,,199867,18,2022-01-28_21h40.13.352,lexical_decision_task_DD_L3,2021.2.3,MacIntel,60.0024001,,,,,,,,,,,0.7917,1,,,,,,,,,,,,,,z,1,0.7917,,,,,,,,0.127829861,-0.121835938,0,0,0,,0,158,158,147,1,ZOLES,C,old,z,./images/ZOLES.png,,,,,,,,,,,,,,,,,,,,,,
,,,,,,,,,,,,,,,,,199867,18,2022-01-28_21h40.13.352,lexical_decision_task_DD_L3,2021.2.3,MacIntel,60.0024001,,,,,,,,,,,0.8261,0,,,,,,,,,,,,,,m,0,0.8261,,,,,,,,0.127829861,-0.121835938,0,0,0,,0,159,159,149,1,VEASE,LB,old,z,./images/VEASELB.png,,,,,,,,,,,,,,,,,,,,,,
,,,,,,,,,,,,,,,,,199867,18,2022-01-28_21h40.13.352,lexical_decision_task_DD_L3,2021.2.3,MacIntel,60.0024001,,,,,,,,,,,0.6933,1,,,,,,,,,,,,,,z,1,0.6933,,,,,,,,0.127829861,-0.121835938,0,0,0,,0,160,160,95,1,HANTY,LB,old,z,./images/HANTYLB.png,,,,,,,,,,,,,,,,,,,,,,
,,,,,,,,,,,,,,,,,199867,18,2022-01-28_21h40.13.352,lexical_decision_task_DD_L3,2021.2.3,MacIntel,60.0024001,,,,,,,,,,,0.8531,1,,,,,,,,,,,,,,m,1,0.8531,,,,,,,,0.127829861,-0.121835938,0,0,0,,0,161,161,57,1,MOOSE,LB,old,m,./images/MOOSELB.png,,,,,,,,,,,,,,,,,,,,,,
,,,,,,,,,,,,,,,,,199867,18,2022-01-28_21h40.13.352,lexical_decision_task_DD_L3,2021.2.3,MacIntel,60.0024001,,,,,,,,,,,0.8525,1,,,,,,,,,,,,,,z,1,0.8525,,,,,,,,0.127829861,-0.121835938,0,0,0,,0,162,162,128,1,GRIFT,LB,old,z,./images/GRIFTLB.png,,,,,,,,,,,,,,,,,,,,,,
,,,,,,,,,,,,,,,,,199867,18,2022-01-28_21h40.13.352,lexical_decision_task_DD_L3,2021.2.3,MacIntel,60.0024001,,,,,,,,,,,0.9171,1,,,,,,,,,,,,,,z,1,0.9171,,,,,,,,0.127829861,-0.121835938,0,0,0,,0,163,163,116,1,BALGY,LB,old,z,./images/BALGYLB.png,,,,,,,,,,,,,,,,,,,,,,
,,,,,,,,,,,,,,,,,199867,18,2022-01-28_21h40.13.352,lexical_decision_task_DD_L3,2021.2.3,MacIntel,60.0024001,,,,,,,,,,,0.9181,1,,,,,,,,,,,,,,z,1,0.9181,,,,,,,,0.127829861,-0.121835938,0,0,0,,0,164,164,103,1,FLORT,HB,old,z,./images/FLORTHB.png,,,,,,,,,,,,,,,,,,,,,,
,,,,,,,,,,,,,,,,,199867,18,2022-01-28_21h40.13.352,lexical_decision_task_DD_L3,2021.2.3,MacIntel,60.0024001,,,,,,,,,,,0.732,1,,,,,,,,,,,,,,z,1,0.732,,,,,,,,0.127829861,-0.121835938,0,0,0,,0,165,165,146,1,MOOST,LB,old,z,./images/MOOSTLB.png,,,,,,,,,,,,,,,,,,,,,,
,,,,,,,,,,,,,,,,,199867,18,2022-01-28_21h40.13.352,lexical_decision_task_DD_L3,2021.2.3,MacIntel,60.0024001,,,,,,,,,,,0.6963,1,,,,,,,,,,,,,,m,1,0.6963,,,,,,,,0.127829861,-0.121835938,0,0,0,,0,166,166,5,1,PASTA,HB,old,m,./images/PASTAHB.png,,,,,,,,,,,,,,,,,,,,,,
,,,,,,,,,,,,,,,,,199867,18,2022-01-28_21h40.13.352,lexical_decision_task_DD_L3,2021.2.3,MacIntel,60.0024001,,,,,,,,,,,1.9964,1,,,,,,,,,,,,,,z,1,1.9964,,,,,,,,0.127829861,-0.121835938,0,0,0,,0,167,167,115,1,MAWNS,HB,old,z,./images/MAWNSHB.png,,,,,,,,,,,,,,,,,,,,,,
space,14.811,0.127829861,-0.121835938,0,0,0,,,,,,1,test,"In the next phase you will be presented with the words from the the first phase. Your job is to decide whether you remember seeing the word or not. If you remember seeing the word press ""old"" or type ""m"". If you do not remember seeing the word press ""new"" or type ""z"". Please press the space bar or click on continue to begin. ",,,199867,18,2022-01-28_21h40.13.352,lexical_decision_task_DD_L3,2021.2.3,MacIntel,60.0024001,,,,,,,,,,,,,,,,,,,,,,,,,,,,,,,,,,,,,,,,,,,,,,,,,,,,,0,0,0,0,1,,,,,,,,,,,,,,,,
space,1.9503,0.127829861,-0.121835938,0,0,0,,,,,,1,test,"In the next phase you will be presented with the words from the the first phase. Your job is to decide whether you remember seeing the word or not. If you remember seeing the word press ""old"" or type ""m"". If you do not remember seeing the word press ""new"" or type ""z"". Please press the space bar or click on continue to begin. ",,,199867,18,2022-01-28_21h40.13.352,lexical_decision_task_DD_L3,2021.2.3,MacIntel,60.0024001,,,,,,,,,,,,,,,,,,,,,,,,,,,,,,,,,,,,,,,,,,,,,,,,,,,,,1,0,1,0,1,,,,,,,,,,,,,,,,
,,0.113532986,-0.377213542,1,0,0,,,,,,1,test,"In the next phase you will be presented with the words from the the first phase. Your job is to decide whether you remember seeing the word or not. If you remember seeing the word press ""old"" or type ""m"". If you do not remember seeing the word press ""new"" or type ""z"". Please press the space bar or click on continue to begin. ",,,199867,18,2022-01-28_21h40.13.352,lexical_decision_task_DD_L3,2021.2.3,MacIntel,60.0024001,,,,,,,,,,,,,,,,,,,,,,,,,,,,,,,,,,,,,,,,,,,,,,,,,,,,,2,0,2,0,1,instr_done_button,,,,,,,,,,,,,,,
space,1.6333,0.05280816,-0.269088542,0,0,0,,,,,,1,test,"In the next phase you will be presented with the words from the the first phase. Your job is to decide whether you remember seeing the word or not. If you remember seeing the word press ""old"" or type ""m"". If you do not remember seeing the word press ""new"" or type ""z"". Please press the space bar or click on continue to begin. ",,,199867,18,2022-01-28_21h40.13.352,lexical_decision_task_DD_L3,2021.2.3,MacIntel,60.0024001,,,,,,,,,,,,,,,,,,,,,,,,,,,,,,,,,,,,,,,,,,,,,,,,,,,,,3,0,3,0,1,,,,,,,,,,,,,,,,
,,0.019427083,-0.421549479,1,0,0,,,,,,1,test,"In the next phase you will be presented with the words from the the first phase. Your job is to decide whether you remember seeing the word or not. If you remember seeing the word press ""old"" or type ""m"". If you do not remember seeing the word press ""new"" or type ""z"". Please press the space bar or click on continue to begin. ",,,199867,18,2022-01-28_21h40.13.352,lexical_decision_task_DD_L3,2021.2.3,MacIntel,60.0024001,,,,,,,,,,,,,,,,,,,,,,,,,,,,,,,,,,,,,,,,,,,,,,,,,,,,,4,0,4,0,1,instr_done_button,,,,,,,,,,,,,,,
,,,,,,,,,,,,,,,,,199867,18,2022-01-28_21h40.13.352,lexical_decision_task_DD_L3,2021.2.3,MacIntel,60.0024001,,,,,,,,,,,3.3665,1,,,,,,,,,,,,,,,,,,,,,,,,0.018888889,-0.224045139,0,0,0,,,,,,,LAGOON,HB,z,m,./images/LAGOONHB.png,,,,,,,,z,1,3.3665,,,,,,,,0,0,0,131,1
,,,,,,,,,,,,,,,,,199867,18,2022-01-28_21h40.13.352,lexical_decision_task_DD_L3,2021.2.3,MacIntel,60.0024001,,,,,,,,,,,0.918,1,,,,,,,,,,,,,,,,,,,,,,,,0.018888889,-0.224045139,0,0,0,,,,,,,CANDLE,C,m,m,./images/CANDLE.png,,,,,,,,m,1,0.918,,,,,,,,0,1,1,61,1
,,,,,,,,,,,,,,,,,199867,18,2022-01-28_21h40.13.352,lexical_decision_task_DD_L3,2021.2.3,MacIntel,60.0024001,,,,,,,,,,,1.0873,0,,,,,,,,,,,,,,,,,,,,,,,,0.018888889,-0.224045139,0,0,0,,,,,,,CANYON,C,m,m,./images/CANYON.png,,,,,,,,z,0,1.0873,,,,,,,,0,2,2,34,1
,,,,,,,,,,,,,,,,,199867,18,2022-01-28_21h40.13.352,lexical_decision_task_DD_L3,2021.2.3,MacIntel,60.0024001,,,,,,,,,,,0.6895,1,,,,,,,,,,,,,,,,,,,,,,,,0.018888889,-0.224045139,0,0,0,,,,,,,WHISKY,HB,z,m,./images/WHISKYHB.png,,,,,,,,z,1,0.6895,,,,,,,,0,3,3,167,1
,,,,,,,,,,,,,,,,,199867,18,2022-01-28_21h40.13.352,lexical_decision_task_DD_L3,2021.2.3,MacIntel,60.0024001,,,,,,,,,,,0.7661,1,,,,,,,,,,,,,,,,,,,,,,,,0.018888889,-0.224045139,0,0,0,,,,,,,FLESH,LB,z,m,./images/FLESHLB.png,,,,,,,,z,1,0.7661,,,,,,,,0,4,4,108,1
,,,,,,,,,,,,,,,,,199867,18,2022-01-28_21h40.13.352,lexical_decision_task_DD_L3,2021.2.3,MacIntel,60.0024001,,,,,,,,,,,0.7563,1,,,,,,,,,,,,,,,,,,,,,,,,0.018888889,-0.224045139,0,0,0,,,,,,,STOOL,C,z,m,./images/STOOL.png,,,,,,,,z,1,0.7563,,,,,,,,0,5,5,127,1
,,,,,,,,,,,,,,,,,199867,18,2022-01-28_21h40.13.352,lexical_decision_task_DD_L3,2021.2.3,MacIntel,60.0024001,,,,,,,,,,,0.7885,1,,,,,,,,,,,,,,,,,,,,,,,,0.018888889,-0.224045139,0,0,0,,,,,,,VALLEY,HB,z,m,./images/VALLEYHB.png,,,,,,,,z,1,0.7885,,,,,,,,0,6,6,152,1
,,,,,,,,,,,,,,,,,199867,18,2022-01-28_21h40.13.352,lexical_decision_task_DD_L3,2021.2.3,MacIntel,60.0024001,,,,,,,,,,,0.8234,0,,,,,,,,,,,,,,,,,,,,,,,,0.018888889,-0.224045139,0,0,0,,,,,,,GRAIN,LB,m,m,./images/GRAINLB.png,,,,,,,,z,0,0.8234,,,,,,,,0,7,7,75,1
,,,,,,,,,,,,,,,,,199867,18,2022-01-28_21h40.13.352,lexical_decision_task_DD_L3,2021.2.3,MacIntel,60.0024001,,,,,,,,,,,0.6635,1,,,,,,,,,,,,,,,,,,,,,,,,0.018888889,-0.224045139,0,0,0,,,,,,,CARPET,HB,m,m,./images/CARPETHB.png,,,,,,,,m,1,0.6635,,,,,,,,0,8,8,53,1
,,,,,,,,,,,,,,,,,199867,18,2022-01-28_21h40.13.352,lexical_decision_task_DD_L3,2021.2.3,MacIntel,60.0024001,,,,,,,,,,,0.8591,1,,,,,,,,,,,,,,,,,,,,,,,,0.018888889,-0.224045139,0,0,0,,,,,,,MAMMAL,HB,z,m,./images/MAMMALHB.png,,,,,,,,z,1,0.8591,,,,,,,,0,9,9,146,1
,,,,,,,,,,,,,,,,,199867,18,2022-01-28_21h40.13.352,lexical_decision_task_DD_L3,2021.2.3,MacIntel,60.0024001,,,,,,,,,,,0.7557,1,,,,,,,,,,,,,,,,,,,,,,,,0.018888889,-0.224045139,0,0,0,,,,,,,CURRY,LB,z,m,./images/CURRYLB.png,,,,,,,,z,1,0.7557,,,,,,,,0,10,10,144,1
,,,,,,,,,,,,,,,,,199867,18,2022-01-28_21h40.13.352,lexical_decision_task_DD_L3,2021.2.3,MacIntel,60.0024001,,,,,,,,,,,0.6644,1,,,,,,,,,,,,,,,,,,,,,,,,0.018888889,-0.224045139,0,0,0,,,,,,,MAGGOT,LB,m,m,./images/MAGGOTLB.png,,,,,,,,m,1,0.6644,,,,,,,,0,11,11,33,1
,,,,,,,,,,,,,,,,,199867,18,2022-01-28_21h40.13.352,lexical_decision_task_DD_L3,2021.2.3,MacIntel,60.0024001,,,,,,,,,,,0.6671,1,,,,,,,,,,,,,,,,,,,,,,,,0.018888889,-0.224045139,0,0,0,,,,,,,TWINS,LB,m,m,./images/TWINSLB.png,,,,,,,,m,1,0.6671,,,,,,,,0,12,12,60,1
,,,,,,,,,,,,,,,,,199867,18,2022-01-28_21h40.13.352,lexical_decision_task_DD_L3,2021.2.3,MacIntel,60.0024001,,,,,,,,,,,0.7311,1,,,,,,,,,,,,,,,,,,,,,,,,0.018888889,-0.224045139,0,0,0,,,,,,,PISTOL,HB,z,m,./images/PISTOLHB.png,,,,,,,,z,1,0.7311,,,,,,,,0,13,13,113,1
,,,,,,,,,,,,,,,,,199867,18,2022-01-28_21h40.13.352,lexical_decision_task_DD_L3,2021.2.3,MacIntel,60.0024001,,,,,,,,,,,0.7554,1,,,,,,,,,,,,,,,,,,,,,,,,0.018888889,-0.224045139,0,0,0,,,,,,,BIRTH,C,m,m,./images/BIRTH.png,,,,,,,,m,1,0.7554,,,,,,,,0,14,14,37,1
,,,,,,,,,,,,,,,,,199867,18,2022-01-28_21h40.13.352,lexical_decision_task_DD_L3,2021.2.3,MacIntel,60.0024001,,,,,,,,,,,0.6545,1,,,,,,,,,,,,,,,,,,,,,,,,0.018888889,-0.224045139,0,0,0,,,,,,,HOCKEY,HB,z,m,./images/HOCKEYHB.png,,,,,,,,z,1,0.6545,,,,,,,,0,15,15,116,1
,,,,,,,,,,,,,,,,,199867,18,2022-01-28_21h40.13.352,lexical_decision_task_DD_L3,2021.2.3,MacIntel,60.0024001,,,,,,,,,,,0.7555,1,,,,,,,,,,,,,,,,,,,,,,,,0.018888889,-0.224045139,0,0,0,,,,,,,SWING,C,m,m,./images/SWING.png,,,,,,,,m,1,0.7555,,,,,,,,0,16,16,40,1
,,,,,,,,,,,,,,,,,199867,18,2022-01-28_21h40.13.352,lexical_decision_task_DD_L3,2021.2.3,MacIntel,60.0024001,,,,,,,,,,,0.7319,1,,,,,,,,,,,,,,,,,,,,,,,,0.018888889,-0.224045139,0,0,0,,,,,,,BRIDE,C,z,m,./images/BRIDE.png,,,,,,,,z,1,0.7319,,,,,,,,0,17,17,148,1
,,,,,,,,,,,,,,,,,199867,18,2022-01-28_21h40.13.352,lexical_decision_task_DD_L3,2021.2.3,MacIntel,60.0024001,,,,,,,,,,,0.7582,0,,,,,,,,,,,,,,,,,,,,,,,,0.018888889,-0.224045139,0,0,0,,,,,,,SMOKER,HB,m,m,./images/SMOKERHB.png,,,,,,,,z,0,0.7582,,,,,,,,0,18,18,26,1
,,,,,,,,,,,,,,,,,199867,18,2022-01-28_21h40.13.352,lexical_decision_task_DD_L3,2021.2.3,MacIntel,60.0024001,,,,,,,,,,,0.7341,0,,,,,,,,,,,,,,,,,,,,,,,,0.018888889,-0.224045139,0,0,0,,,,,,,ATTIC,LB,m,m,./images/ATTICLB.png,,,,,,,,z,0,0.7341,,,,,,,,0,19,19,27,1
,,,,,,,,,,,,,,,,,199867,18,2022-01-28_21h40.13.352,lexical_decision_task_DD_L3,2021.2.3,MacIntel,60.0024001,,,,,,,,,,,0.7848,1,,,,,,,,,,,,,,,,,,,,,,,,0.018888889,-0.224045139,0,0,0,,,,,,,BOXER,C,z,m,./images/BOXER.png,,,,,,,,z,1,0.7848,,,,,,,,0,20,20,88,1
,,,,,,,,,,,,,,,,,199867,18,2022-01-28_21h40.13.352,lexical_decision_task_DD_L3,2021.2.3,MacIntel,60.0024001,,,,,,,,,,,1.2052,1,,,,,,,,,,,,,,,,,,,,,,,,0.018888889,-0.224045139,0,0,0,,,,,,,BROOM,LB,z,m,./images/BROOMLB.png,,,,,,,,z,1,1.2052,,,,,,,,0,21,21,162,1
,,,,,,,,,,,,,,,,,199867,18,2022-01-28_21h40.13.352,lexical_decision_task_DD_L3,2021.2.3,MacIntel,60.0024001,,,,,,,,,,,0.6875,0,,,,,,,,,,,,,,,,,,,,,,,,0.018888889,-0.224045139,0,0,0,,,,,,,PLANET,HB,z,m,./images/PLANETHB.png,,,,,,,,m,0,0.6875,,,,,,,,0,22,22,164,1
,,,,,,,,,,,,,,,,,199867,18,2022-01-28_21h40.13.352,lexical_decision_task_DD_L3,2021.2.3,MacIntel,60.0024001,,,,,,,,,,,0.6651,1,,,,,,,,,,,,,,,,,,,,,,,,0.018888889,-0.224045139,0,0,0,,,,,,,TULIP,HB,m,m,./images/TULIPHB.png,,,,,,,,m,1,0.6651,,,,,,,,0,23,23,8,1
,,,,,,,,,,,,,,,,,199867,18,2022-01-28_21h40.13.352,lexical_decision_task_DD_L3,2021.2.3,MacIntel,60.0024001,,,,,,,,,,,0.895,1,,,,,,,,,,,,,,,,,,,,,,,,0.018888889,-0.224045139,0,0,0,,,,,,,ARTIST,C,z,m,./images/ARTIST.png,,,,,,,,z,1,0.895,,,,,,,,0,24,24,145,1
,,,,,,,,,,,,,,,,,199867,18,2022-01-28_21h40.13.352,lexical_decision_task_DD_L3,2021.2.3,MacIntel,60.0024001,,,,,,,,,,,0.7966,0,,,,,,,,,,,,,,,,,,,,,,,,0.018888889,-0.224045139,0,0,0,,,,,,,JUMPER,HB,z,m,./images/JUMPERHB.png,,,,,,,,m,0,0.7966,,,,,,,,0,25,25,158,1
,,,,,,,,,,,,,,,,,199867,18,2022-01-28_21h40.13.352,lexical_decision_task_DD_L3,2021.2.3,MacIntel,60.0024001,,,,,,,,,,,0.5881,1,,,,,,,,,,,,,,,,,,,,,,,,0.018888889,-0.224045139,0,0,0,,,,,,,MELON,C,m,m,./images/MELON.png,,,,,,,,m,1,0.5881,,,,,,,,0,26,26,22,1
,,,,,,,,,,,,,,,,,199867,18,2022-01-28_21h40.13.352,lexical_decision_task_DD_L3,2021.2.3,MacIntel,60.0024001,,,,,,,,,,,0.7645,1,,,,,,,,,,,,,,,,,,,,,,,,0.018888889,-0.224045139,0,0,0,,,,,,,KIDNEY,LB,m,m,./images/KIDNEYLB.png,,,,,,,,m,1,0.7645,,,,,,,,0,27,27,21,1
,,,,,,,,,,,,,,,,,199867,18,2022-01-28_21h40.13.352,lexical_decision_task_DD_L3,2021.2.3,MacIntel,60.0024001,,,,,,,,,,,1.0541,1,,,,,,,,,,,,,,,,,,,,,,,,0.018888889,-0.224045139,0,0,0,,,,,,,FINGER,LB,m,m,./images/FINGERLB.png,,,,,,,,m,1,1.0541,,,,,,,,0,28,28,3,1
,,,,,,,,,,,,,,,,,199867,18,2022-01-28_21h40.13.352,lexical_decision_task_DD_L3,2021.2.3,MacIntel,60.0024001,,,,,,,,,,,0.8566,1,,,,,,,,,,,,,,,,,,,,,,,,0.018888889,-0.224045139,0,0,0,,,,,,,STOVE,HB,z,m,./images/STOVEHB.png,,,,,,,,z,1,0.8566,,,,,,,,0,29,29,86,1
,,,,,,,,,,,,,,,,,199867,18,2022-01-28_21h40.13.352,lexical_decision_task_DD_L3,2021.2.3,MacIntel,60.0024001,,,,,,,,,,,1.5255,0,,,,,,,,,,,,,,,,,,,,,,,,0.018888889,-0.224045139,0,0,0,,,,,,,CANOE,C,z,m,./images/CANOE.png,,,,,,,,m,0,1.5255,,,,,,,,0,30,30,142,1
,,,,,,,,,,,,,,,,,199867,18,2022-01-28_21h40.13.352,lexical_decision_task_DD_L3,2021.2.3,MacIntel,60.0024001,,,,,,,,,,,0.9212,1,,,,,,,,,,,,,,,,,,,,,,,,0.018888889,-0.224045139,0,0,0,,,,,,,CHALK,C,z,m,./images/CHALK.png,,,,,,,,z,1,0.9212,,,,,,,,0,31,31,109,1
,,,,,,,,,,,,,,,,,199867,18,2022-01-28_21h40.13.352,lexical_decision_task_DD_L3,2021.2.3,MacIntel,60.0024001,,,,,,,,,,,0.728,1,,,,,,,,,,,,,,,,,,,,,,,,0.018888889,-0.224045139,0,0,0,,,,,,,SAUNA,LB,z,m,./images/SAUNALB.png,,,,,,,,z,1,0.728,,,,,,,,0,32,32,117,1
,,,,,,,,,,,,,,,,,199867,18,2022-01-28_21h40.13.352,lexical_decision_task_DD_L3,2021.2.3,MacIntel,60.0024001,,,,,,,,,,,1.221,1,,,,,,,,,,,,,,,,,,,,,,,,0.018888889,-0.224045139,0,0,0,,,,,,,GRANNY,HB,z,m,./images/GRANNYHB.png,,,,,,,,z,1,1.221,,,,,,,,0,33,33,104,1
,,,,,,,,,,,,,,,,,199867,18,2022-01-28_21h40.13.352,lexical_decision_task_DD_L3,2021.2.3,MacIntel,60.0024001,,,,,,,,,,,1.0163,0,,,,,,,,,,,,,,,,,,,,,,,,0.018888889,-0.224045139,0,0,0,,,,,,,PARADE,HB,z,m,./images/PARADEHB.png,,,,,,,,m,0,1.0163,,,,,,,,0,34,34,101,1
,,,,,,,,,,,,,,,,,199867,18,2022-01-28_21h40.13.352,lexical_decision_task_DD_L3,2021.2.3,MacIntel,60.0024001,,,,,,,,,,,0.7582,0,,,,,,,,,,,,,,,,,,,,,,,,0.018888889,-0.224045139,0,0,0,,,,,,,SLOPE,LB,z,m,./images/SLOPELB.png,,,,,,,,m,0,0.7582,,,,,,,,0,35,35,114,1
,,,,,,,,,,,,,,,,,199867,18,2022-01-28_21h40.13.352,lexical_decision_task_DD_L3,2021.2.3,MacIntel,60.0024001,,,,,,,,,,,0.929,1,,,,,,,,,,,,,,,,,,,,,,,,0.018888889,-0.224045139,0,0,0,,,,,,,BOILER,LB,z,m,./images/BOILERLB.png,,,,,,,,z,1,0.929,,,,,,,,0,36,36,120,1
,,,,,,,,,,,,,,,,,199867,18,2022-01-28_21h40.13.352,lexical_decision_task_DD_L3,2021.2.3,MacIntel,60.0024001,,,,,,,,,,,0.6351,1,,,,,,,,,,,,,,,,,,,,,,,,0.018888889,-0.224045139,0,0,0,,,,,,,PEARL,C,m,m,./images/PEARL.png,,,,,,,,m,1,0.6351,,,,,,,,0,37,37,46,1
,,,,,,,,,,,,,,,,,199867,18,2022-01-28_21h40.13.352,lexical_decision_task_DD_L3,2021.2.3,MacIntel,60.0024001,,,,,,,,,,,0.6229,1,,,,,,,,,,,,,,,,,,,,,,,,0.018888889,-0.224045139,0,0,0,,,,,,,NOOSE,LB,m,m,./images/NOOSELB.png,,,,,,,,m,1,0.6229,,,,,,,,0,38,38,72,1
,,,,,,,,,,,,,,,,,199867,18,2022-01-28_21h40.13.352,lexical_decision_task_DD_L3,2021.2.3,MacIntel,60.0024001,,,,,,,,,,,0.9208,1,,,,,,,,,,,,,,,,,,,,,,,,0.018888889,-0.224045139,0,0,0,,,,,,,GREASE,LB,m,m,./images/GREASELB.png,,,,,,,,m,1,0.9208,,,,,,,,0,39,39,15,1
,,,,,,,,,,,,,,,,,199867,18,2022-01-28_21h40.13.352,lexical_decision_task_DD_L3,2021.2.3,MacIntel,60.0024001,,,,,,,,,,,0.8551,1,,,,,,,,,,,,,,,,,,,,,,,,0.018888889,-0.224045139,0,0,0,,,,,,,MUMMY,C,z,m,./images/MUMMY.png,,,,,,,,z,1,0.8551,,,,,,,,0,40,40,130,1
,,,,,,,,,,,,,,,,,199867,18,2022-01-28_21h40.13.352,lexical_decision_task_DD_L3,2021.2.3,MacIntel,60.0024001,,,,,,,,,,,0.8666,0,,,,,,,,,,,,,,,,,,,,,,,,-0.007773437,-0.288203125,0,0,0,space,,,,,,STEAK,C,z,m,./images/STEAK.png,2.5822,,,,,,,m,0,0.8666,,,,,,,,0,41,41,115,1
,,,,,,,,,,,,,,,,,199867,18,2022-01-28_21h40.13.352,lexical_decision_task_DD_L3,2021.2.3,MacIntel,60.0024001,,,,,,,,,,,1.9359,1,,,,,,,,,,,,,,,,,,,,,,,,-0.007773437,-0.288203125,0,0,0,,,,,,,COUCH,HB,m,m,./images/COUCHHB.png,,,,,,,,m,1,1.9359,,,,,,,,0,42,42,77,1
,,,,,,,,,,,,,,,,,199867,18,2022-01-28_21h40.13.352,lexical_decision_task_DD_L3,2021.2.3,MacIntel,60.0024001,,,,,,,,,,,0.7567,1,,,,,,,,,,,,,,,,,,,,,,,,-0.007773437,-0.288203125,0,0,0,,,,,,,BANANA,C,z,m,./images/BANANA.png,,,,,,,,z,1,0.7567,,,,,,,,0,43,43,154,1
,,,,,,,,,,,,,,,,,199867,18,2022-01-28_21h40.13.352,lexical_decision_task_DD_L3,2021.2.3,MacIntel,60.0024001,,,,,,,,,,,0.8168,1,,,,,,,,,,,,,,,,,,,,,,,,-0.007773437,-0.288203125,0,0,0,,,,,,,LLAMA,HB,z,m,./images/LLAMAHB.png,,,,,,,,z,1,0.8168,,,,,,,,0,44,44,119,1
,,,,,,,,,,,,,,,,,199867,18,2022-01-28_21h40.13.352,lexical_decision_task_DD_L3,2021.2.3,MacIntel,60.0024001,,,,,,,,,,,0.6012,1,,,,,,,,,,,,,,,,,,,,,,,,-0.007773437,-0.288203125,0,0,0,,,,,,,MUSCLE,C,m,m,./images/MUSCLE.png,,,,,,,,m,1,0.6012,,,,,,,,0,45,45,4,1
,,,,,,,,,,,,,,,,,199867,18,2022-01-28_21h40.13.352,lexical_decision_task_DD_L3,2021.2.3,MacIntel,60.0024001,,,,,,,,,,,0.7574,0,,,,,,,,,,,,,,,,,,,,,,,,-0.007773437,-0.288203125,0,0,0,,,,,,,BAMBOO,HB,z,m,./images/BAMBOOHB.png,,,,,,,,m,0,0.7574,,,,,,,,0,46,46,89,1
,,,,,,,,,,,,,,,,,199867,18,2022-01-28_21h40.13.352,lexical_decision_task_DD_L3,2021.2.3,MacIntel,60.0024001,,,,,,,,,,,0.7577,1,,,,,,,,,,,,,,,,,,,,,,,,-0.007773437,-0.288203125,0,0,0,,,,,,,LIZARD,HB,m,m,./images/LIZARDHB.png,,,,,,,,m,1,0.7577,,,,,,,,0,47,47,44,1
,,,,,,,,,,,,,,,,,199867,18,2022-01-28_21h40.13.352,lexical_decision_task_DD_L3,2021.2.3,MacIntel,60.0024001,,,,,,,,,,,0.6871,1,,,,,,,,,,,,,,,,,,,,,,,,-0.007773437,-0.288203125,0,0,0,,,,,,,THROAT,LB,m,m,./images/THROATLB.png,,,,,,,,m,1,0.6871,,,,,,,,0,48,48,36,1
,,,,,,,,,,,,,,,,,199867,18,2022-01-28_21h40.13.352,lexical_decision_task_DD_L3,2021.2.3,MacIntel,60.0024001,,,,,,,,,,,0.6848,1,,,,,,,,,,,,,,,,,,,,,,,,-0.007773437,-0.288203125,0,0,0,,,,,,,BUTTER,LB,z,m,./images/BUTTERLB.png,,,,,,,,z,1,0.6848,,,,,,,,0,49,49,111,1
,,,,,,,,,,,,,,,,,199867,18,2022-01-28_21h40.13.352,lexical_decision_task_DD_L3,2021.2.3,MacIntel,60.0024001,,,,,,,,,,,0.6145,0,,,,,,,,,,,,,,,,,,,,,,,,-0.007773437,-0.288203125,0,0,0,,,,,,,SHIELD,LB,z,m,./images/SHIELDLB.png,,,,,,,,m,0,0.6145,,,,,,,,0,50,50,132,1
,,,,,,,,,,,,,,,,,199867,18,2022-01-28_21h40.13.352,lexical_decision_task_DD_L3,2021.2.3,MacIntel,60.0024001,,,,,,,,,,,0.6932,1,,,,,,,,,,,,,,,,,,,,,,,,-0.007773437,-0.288203125,0,0,0,,,,,,,WHEEL,HB,z,m,./images/WHEELHB.png,,,,,,,,z,1,0.6932,,,,,,,,0,51,51,161,1
,,,,,,,,,,,,,,,,,199867,18,2022-01-28_21h40.13.352,lexical_decision_task_DD_L3,2021.2.3,MacIntel,60.0024001,,,,,,,,,,,0.591,1,,,,,,,,,,,,,,,,,,,,,,,,-0.007773437,-0.288203125,0,0,0,,,,,,,TORCH,HB,m,m,./images/TORCHHB.png,,,,,,,,m,1,0.591,,,,,,,,0,52,52,68,1
,,,,,,,,,,,,,,,,,199867,18,2022-01-28_21h40.13.352,lexical_decision_task_DD_L3,2021.2.3,MacIntel,60.0024001,,,,,,,,,,,1.0309,1,,,,,,,,,,,,,,,,,,,,,,,,-0.007773437,-0.288203125,0,0,0,,,,,,,BUBBLE,HB,z,m,./images/BUBBLEHB.png,,,,,,,,z,1,1.0309,,,,,,,,0,53,53,155,1
,,,,,,,,,,,,,,,,,199867,18,2022-01-28_21h40.13.352,lexical_decision_task_DD_L3,2021.2.3,MacIntel,60.0024001,,,,,,,,,,,0.8632,1,,,,,,,,,,,,,,,,,,,,,,,,-0.007773437,-0.288203125,0,0,0,,,,,,,SWEAT,LB,m,m,./images/SWEATLB.png,,,,,,,,m,1,0.8632,,,,,,,,0,54,54,66,1
,,,,,,,,,,,,,,,,,199867,18,2022-01-28_21h40.13.352,lexical_decision_task_DD_L3,2021.2.3,MacIntel,60.0024001,,,,,,,,,,,0.7304,1,,,,,,,,,,,,,,,,,,,,,,,,-0.007773437,-0.288203125,0,0,0,,,,,,,CRUMB,HB,m,m,./images/CRUMBHB.png,,,,,,,,m,1,0.7304,,,,,,,,0,55,55,29,1
,,,,,,,,,,,,,,,,,199867,18,2022-01-28_21h40.13.352,lexical_decision_task_DD_L3,2021.2.3,MacIntel,60.0024001,,,,,,,,,,,0.6652,1,,,,,,,,,,,,,,,,,,,,,,,,-0.007773437,-0.288203125,0,0,0,,,,,,,LITTER,LB,m,m,./images/LITTERLB.png,,,,,,,,m,1,0.6652,,,,,,,,0,56,56,78,1
,,,,,,,,,,,,,,,,,199867,18,2022-01-28_21h40.13.352,lexical_decision_task_DD_L3,2021.2.3,MacIntel,60.0024001,,,,,,,,,,,0.6381,0,,,,,,,,,,,,,,,,,,,,,,,,-0.007773437,-0.288203125,0,0,0,,,,,,,FENCE,HB,z,m,./images/FENCEHB.png,,,,,,,,m,0,0.6381,,,,,,,,0,57,57,98,1
,,,,,,,,,,,,,,,,,199867,18,2022-01-28_21h40.13.352,lexical_decision_task_DD_L3,2021.2.3,MacIntel,60.0024001,,,,,,,,,,,0.6303,1,,,,,,,,,,,,,,,,,,,,,,,,-0.007773437,-0.288203125,0,0,0,,,,,,,DONKEY,C,z,m,./images/DONKEY.png,,,,,,,,z,1,0.6303,,,,,,,,0,58,58,103,1
,,,,,,,,,,,,,,,,,199867,18,2022-01-28_21h40.13.352,lexical_decision_task_DD_L3,2021.2.3,MacIntel,60.0024001,,,,,,,,,,,0.6849,1,,,,,,,,,,,,,,,,,,,,,,,,-0.007773437,-0.288203125,0,0,0,,,,,,,BONNET,HB,m,m,./images/BONNETHB.png,,,,,,,,m,1,0.6849,,,,,,,,0,59,59,11,1
,,,,,,,,,,,,,,,,,199867,18,2022-01-28_21h40.13.352,lexical_decision_task_DD_L3,2021.2.3,MacIntel,60.0024001,,,,,,,,,,,0.6675,1,,,,,,,,,,,,,,,,,,,,,,,,-0.007773437,-0.288203125,0,0,0,,,,,,,QUILL,C,m,m,./images/QUILL.png,,,,,,,,m,1,0.6675,,,,,,,,0,60,60,31,1
,,,,,,,,,,,,,,,,,199867,18,2022-01-28_21h40.13.352,lexical_decision_task_DD_L3,2021.2.3,MacIntel,60.0024001,,,,,,,,,,,0.764,0,,,,,,,,,,,,,,,,,,,,,,,,-0.007773437,-0.288203125,0,0,0,,,,,,,SAUCE,LB,z,m,./images/SAUCELB.png,,,,,,,,m,0,0.764,,,,,,,,0,61,61,135,1
,,,,,,,,,,,,,,,,,199867,18,2022-01-28_21h40.13.352,lexical_decision_task_DD_L3,2021.2.3,MacIntel,60.0024001,,,,,,,,,,,0.7174,0,,,,,,,,,,,,,,,,,,,,,,,,-0.007773437,-0.288203125,0,0,0,,,,,,,WALNUT,LB,z,m,./images/WALNUTLB.png,,,,,,,,m,0,0.7174,,,,,,,,0,62,62,84,1
,,,,,,,,,,,,,,,,,199867,18,2022-01-28_21h40.13.352,lexical_decision_task_DD_L3,2021.2.3,MacIntel,60.0024001,,,,,,,,,,,0.6171,1,,,,,,,,,,,,,,,,,,,,,,,,-0.007773437,-0.288203125,0,0,0,,,,,,,PICKLE,HB,m,m,./images/PICKLEHB.png,,,,,,,,m,1,0.6171,,,,,,,,0,63,63,14,1
,,,,,,,,,,,,,,,,,199867,18,2022-01-28_21h40.13.352,lexical_decision_task_DD_L3,2021.2.3,MacIntel,60.0024001,,,,,,,,,,,0.7215,1,,,,,,,,,,,,,,,,,,,,,,,,-0.007773437,-0.288203125,0,0,0,,,,,,,ARROW,LB,z,m,./images/ARROWLB.png,,,,,,,,z,1,0.7215,,,,,,,,0,64,64,153,1
,,,,,,,,,,,,,,,,,199867,18,2022-01-28_21h40.13.352,lexical_decision_task_DD_L3,2021.2.3,MacIntel,60.0024001,,,,,,,,,,,0.7845,1,,,,,,,,,,,,,,,,,,,,,,,,-0.007773437,-0.288203125,0,0,0,,,,,,,RHINO,LB,m,m,./images/RHINOLB.png,,,,,,,,m,1,0.7845,,,,,,,,0,65,65,9,1
,,,,,,,,,,,,,,,,,199867,18,2022-01-28_21h40.13.352,lexical_decision_task_DD_L3,2021.2.3,MacIntel,60.0024001,,,,,,,,,,,0.7974,1,,,,,,,,,,,,,,,,,,,,,,,,-0.007773437,-0.288203125,0,0,0,,,,,,,POSTER,HB,z,m,./images/POSTERHB.png,,,,,,,,z,1,0.7974,,,,,,,,0,66,66,137,1
,,,,,,,,,,,,,,,,,199867,18,2022-01-28_21h40.13.352,lexical_decision_task_DD_L3,2021.2.3,MacIntel,60.0024001,,,,,,,,,,,0.8694,0,,,,,,,,,,,,,,,,,,,,,,,,-0.007773437,-0.288203125,0,0,0,,,,,,,SUNSET,C,m,m,./images/SUNSET.png,,,,,,,,z,0,0.8694,,,,,,,,0,67,67,82,1
,,,,,,,,,,,,,,,,,199867,18,2022-01-28_21h40.13.352,lexical_decision_task_DD_L3,2021.2.3,MacIntel,60.0024001,,,,,,,,,,,0.8165,1,,,,,,,,,,,,,,,,,,,,,,,,-0.007773437,-0.288203125,0,0,0,,,,,,,POKER,C,z,m,./images/POKER.png,,,,,,,,z,1,0.8165,,,,,,,,0,68,68,151,1
,,,,,,,,,,,,,,,,,199867,18,2022-01-28_21h40.13.352,lexical_decision_task_DD_L3,2021.2.3,MacIntel,60.0024001,,,,,,,,,,,0.8338,1,,,,,,,,,,,,,,,,,,,,,,,,-0.007773437,-0.288203125,0,0,0,,,,,,,GLOVE,C,z,m,./images/GLOVE.png,,,,,,,,z,1,0.8338,,,,,,,,0,69,69,157,1
,,,,,,,,,,,,,,,,,199867,18,2022-01-28_21h40.13.352,lexical_decision_task_DD_L3,2021.2.3,MacIntel,60.0024001,,,,,,,,,,,0.7152,1,,,,,,,,,,,,,,,,,,,,,,,,-0.007773437,-0.288203125,0,0,0,,,,,,,CEMENT,HB,m,m,./images/CEMENTHB.png,,,,,,,,m,1,0.7152,,,,,,,,0,70,70,74,1
,,,,,,,,,,,,,,,,,199867,18,2022-01-28_21h40.13.352,lexical_decision_task_DD_L3,2021.2.3,MacIntel,60.0024001,,,,,,,,,,,0.6812,1,,,,,,,,,,,,,,,,,,,,,,,,-0.007773437,-0.288203125,0,0,0,,,,,,,PURSE,HB,m,m,./images/PURSEHB.png,,,,,,,,m,1,0.6812,,,,,,,,0,71,71,62,1
,,,,,,,,,,,,,,,,,199867,18,2022-01-28_21h40.13.352,lexical_decision_task_DD_L3,2021.2.3,MacIntel,60.0024001,,,,,,,,,,,0.7906,1,,,,,,,,,,,,,,,,,,,,,,,,-0.007773437,-0.288203125,0,0,0,,,,,,,HAMMER,LB,z,m,./images/HAMMERLB.png,,,,,,,,z,1,0.7906,,,,,,,,0,72,72,159,1
,,,,,,,,,,,,,,,,,199867,18,2022-01-28_21h40.13.352,lexical_decision_task_DD_L3,2021.2.3,MacIntel,60.0024001,,,,,,,,,,,0.6245,1,,,,,,,,,,,,,,,,,,,,,,,,-0.007773437,-0.288203125,0,0,0,,,,,,,STRING,HB,m,m,./images/STRINGHB.png,,,,,,,,m,1,0.6245,,,,,,,,0,73,73,41,1
,,,,,,,,,,,,,,,,,199867,18,2022-01-28_21h40.13.352,lexical_decision_task_DD_L3,2021.2.3,MacIntel,60.0024001,,,,,,,,,,,0.7838,1,,,,,,,,,,,,,,,,,,,,,,,,-0.007773437,-0.288203125,0,0,0,,,,,,,STORM,LB,m,m,./images/STORMLB.png,,,,,,,,m,1,0.7838,,,,,,,,0,74,74,30,1
,,,,,,,,,,,,,,,,,199867,18,2022-01-28_21h40.13.352,lexical_decision_task_DD_L3,2021.2.3,MacIntel,60.0024001,,,,,,,,,,,0.6543,1,,,,,,,,,,,,,,,,,,,,,,,,-0.007773437,-0.288203125,0,0,0,,,,,,,PARCEL,LB,z,m,./images/PARCELLB.png,,,,,,,,z,1,0.6543,,,,,,,,0,75,75,102,1
,,,,,,,,,,,,,,,,,199867,18,2022-01-28_21h40.13.352,lexical_decision_task_DD_L3,2021.2.3,MacIntel,60.0024001,,,,,,,,,,,0.718,0,,,,,,,,,,,,,,,,,,,,,,,,-0.007773437,-0.288203125,0,0,0,,,,,,,TOWEL,C,z,m,./images/TOWEL.png,,,,,,,,m,0,0.718,,,,,,,,0,76,76,85,1
,,,,,,,,,,,,,,,,,199867,18,2022-01-28_21h40.13.352,lexical_decision_task_DD_L3,2021.2.3,MacIntel,60.0024001,,,,,,,,,,,0.9505,1,,,,,,,,,,,,,,,,,,,,,,,,-0.007773437,-0.288203125,0,0,0,,,,,,,DOUGH,C,m,m,./images/DOUGH.png,,,,,,,,m,1,0.9505,,,,,,,,0,77,77,19,1
,,,,,,,,,,,,,,,,,199867,18,2022-01-28_21h40.13.352,lexical_decision_task_DD_L3,2021.2.3,MacIntel,60.0024001,,,,,,,,,,,0.6893,1,,,,,,,,,,,,,,,,,,,,,,,,-0.007773437,-0.288203125,0,0,0,,,,,,,URINE,C,m,m,./images/URINE.png,,,,,,,,m,1,0.6893,,,,,,,,0,78,78,70,1
,,,,,,,,,,,,,,,,,199867,18,2022-01-28_21h40.13.352,lexical_decision_task_DD_L3,2021.2.3,MacIntel,60.0024001,,,,,,,,,,,0.8164,1,,,,,,,,,,,,,,,,,,,,,,,,-0.007773437,-0.288203125,0,0,0,,,,,,,PAINT,C,m,m,./images/PAINT.png,,,,,,,,m,1,0.8164,,,,,,,,0,79,79,7,1
,,,,,,,,,,,,,,,,,199867,18,2022-01-28_21h40.13.352,lexical_decision_task_DD_L3,2021.2.3,MacIntel,60.0024001,,,,,,,,,,,0.6267,1,,,,,,,,,,,,,,,,,,,,,,,,-0.007773437,-0.288203125,0,0,0,,,,,,,CRUST,C,m,m,./images/CRUST.png,,,,,,,,m,1,0.6267,,,,,,,,0,80,80,79,1
,,,,,,,,,,,,,,,,,199867,18,2022-01-28_21h40.13.352,lexical_decision_task_DD_L3,2021.2.3,MacIntel,60.0024001,,,,,,,,,,,1.0186,1,,,,,,,,,,,,,,,,,,,,,,,,-0.007773437,-0.288203125,0,0,0,,,,,,,BANNER,C,m,m,./images/BANNER.png,,,,,,,,m,1,1.0186,,,,,,,,0,81,81,52,1
,,,,,,,,,,,,,,,,,199867,18,2022-01-28_21h40.13.352,lexical_decision_task_DD_L3,2021.2.3,MacIntel,60.0024001,,,,,,,,,,,0.9201,0,,,,,,,,,,,,,,,,,,,,,,,,-0.007773437,-0.288203125,0,0,0,,,,,,,BAKER,LB,z,m,./images/BAKERLB.png,,,,,,,,m,0,0.9201,,,,,,,,0,82,82,147,1
,,,,,,,,,,,,,,,,,199867,18,2022-01-28_21h40.13.352,lexical_decision_task_DD_L3,2021.2.3,MacIntel,60.0024001,,,,,,,,,,,0.6501,1,,,,,,,,,,,,,,,,,,,,,,,,-0.007773437,-0.288203125,0,0,0,space,,,,,,MALLET,HB,m,m,./images/MALLETHB.png,1.2996,,,,,,,m,1,0.6501,,,,,,,,0,83,83,50,1
,,,,,,,,,,,,,,,,,199867,18,2022-01-28_21h40.13.352,lexical_decision_task_DD_L3,2021.2.3,MacIntel,60.0024001,,,,,,,,,,,0.6298,1,,,,,,,,,,,,,,,,,,,,,,,,-0.007773437,-0.288203125,0,0,0,,,,,,,LADDER,HB,m,m,./images/LADDERHB.png,,,,,,,,m,1,0.6298,,,,,,,,0,84,84,38,1
,,,,,,,,,,,,,,,,,199867,18,2022-01-28_21h40.13.352,lexical_decision_task_DD_L3,2021.2.3,MacIntel,60.0024001,,,,,,,,,,,0.7549,1,,,,,,,,,,,,,,,,,,,,,,,,-0.007773437,-0.288203125,0,0,0,,,,,,,INFANT,C,m,m,./images/INFANT.png,,,,,,,,m,1,0.7549,,,,,,,,0,85,85,76,1
,,,,,,,,,,,,,,,,,199867,18,2022-01-28_21h40.13.352,lexical_decision_task_DD_L3,2021.2.3,MacIntel,60.0024001,,,,,,,,,,,0.5854,1,,,,,,,,,,,,,,,,,,,,,,,,-0.007773437,-0.288203125,0,0,0,,,,,,,MOSQUE,C,m,m,./images/MOSQUE.png,,,,,,,,m,1,0.5854,,,,,,,,0,86,86,43,1
,,,,,,,,,,,,,,,,,199867,18,2022-01-28_21h40.13.352,lexical_decision_task_DD_L3,2021.2.3,MacIntel,60.0024001,,,,,,,,,,,0.8912,1,,,,,,,,,,,,,,,,,,,,,,,,-0.007773437,-0.288203125,0,0,0,,,,,,,BUNNY,C,z,m,./images/BUNNY.png,,,,,,,,z,1,0.8912,,,,,,,,0,87,87,97,1
,,,,,,,,,,,,,,,,,199867,18,2022-01-28_21h40.13.352,lexical_decision_task_DD_L3,2021.2.3,MacIntel,60.0024001,,,,,,,,,,,0.8212,1,,,,,,,,,,,,,,,,,,,,,,,,-0.007773437,-0.288203125,0,0,0,,,,,,,TRIPOD,LB,m,m,./images/TRIPODLB.png,,,,,,,,m,1,0.8212,,,,,,,,0,88,88,54,1
,,,,,,,,,,,,,,,,,199867,18,2022-01-28_21h40.13.352,lexical_decision_task_DD_L3,2021.2.3,MacIntel,60.0024001,,,,,,,,,,,1.4695,0,,,,,,,,,,,,,,,,,,,,,,,,-0.007773437,-0.288203125,0,0,0,,,,,,,SKIING,HB,m,m,./images/SKIINGHB.png,,,,,,,,z,0,1.4695,,,,,,,,0,89,89,17,1
,,,,,,,,,,,,,,,,,199867,18,2022-01-28_21h40.13.352,lexical_decision_task_DD_L3,2021.2.3,MacIntel,60.0024001,,,,,,,,,,,0.8969,1,,,,,,,,,,,,,,,,,,,,,,,,-0.007773437,-0.288203125,0,0,0,,,,,,,SPORT,LB,m,m,./images/SPORTLB.png,,,,,,,,m,1,0.8969,,,,,,,,0,90,90,48,1
,,,,,,,,,,,,,,,,,199867,18,2022-01-28_21h40.13.352,lexical_decision_task_DD_L3,2021.2.3,MacIntel,60.0024001,,,,,,,,,,,0.6912,1,,,,,,,,,,,,,,,,,,,,,,,,-0.007773437,-0.288203125,0,0,0,,,,,,,SQUARE,LB,m,m,./images/SQUARELB.png,,,,,,,,m,1,0.6912,,,,,,,,0,91,91,6,1
,,,,,,,,,,,,,,,,,199867,18,2022-01-28_21h40.13.352,lexical_decision_task_DD_L3,2021.2.3,MacIntel,60.0024001,,,,,,,,,,,0.602,0,,,,,,,,,,,,,,,,,,,,,,,,-0.007773437,-0.288203125,0,0,0,,,,,,,PILOT,HB,z,m,./images/PILOTHB.png,,,,,,,,m,0,0.602,,,,,,,,0,92,92,134,1
,,,,,,,,,,,,,,,,,199867,18,2022-01-28_21h40.13.352,lexical_decision_task_DD_L3,2021.2.3,MacIntel,60.0024001,,,,,,,,,,,0.6835,1,,,,,,,,,,,,,,,,,,,,,,,,-0.007773437,-0.288203125,0,0,0,,,,,,,BEARD,HB,m,m,./images/BEARDHB.png,,,,,,,,m,1,0.6835,,,,,,,,0,93,93,2,1
,,,,,,,,,,,,,,,,,199867,18,2022-01-28_21h40.13.352,lexical_decision_task_DD_L3,2021.2.3,MacIntel,60.0024001,,,,,,,,,,,0.6562,1,,,,,,,,,,,,,,,,,,,,,,,,-0.007773437,-0.288203125,0,0,0,,,,,,,BLOKE,LB,z,m,./images/BLOKELB.png,,,,,,,,z,1,0.6562,,,,,,,,0,94,94,96,1
,,,,,,,,,,,,,,,,,199867,18,2022-01-28_21h40.13.352,lexical_decision_task_DD_L3,2021.2.3,MacIntel,60.0024001,,,,,,,,,,,0.8882,1,,,,,,,,,,,,,,,,,,,,,,,,-0.007773437,-0.288203125,0,0,0,,,,,,,FALCON,C,m,m,./images/FALCON.png,,,,,,,,m,1,0.8882,,,,,,,,0,95,95,28,1
,,,,,,,,,,,,,,,,,199867,18,2022-01-28_21h40.13.352,lexical_decision_task_DD_L3,2021.2.3,MacIntel,60.0024001,,,,,,,,,,,0.8662,1,,,,,,,,,,,,,,,,,,,,,,,,-0.007773437,-0.288203125,0,0,0,,,,,,,STATUE,LB,z,m,./images/STATUELB.png,,,,,,,,z,1,0.8662,,,,,,,,0,96,96,150,1
,,,,,,,,,,,,,,,,,199867,18,2022-01-28_21h40.13.352,lexical_decision_task_DD_L3,2021.2.3,MacIntel,60.0024001,,,,,,,,,,,0.665,1,,,,,,,,,,,,,,,,,,,,,,,,-0.007773437,-0.288203125,0,0,0,,,,,,,JAGUAR,LB,m,m,./images/JAGUARLB.png,,,,,,,,m,1,0.665,,,,,,,,0,97,97,18,1
,,,,,,,,,,,,,,,,,199867,18,2022-01-28_21h40.13.352,lexical_decision_task_DD_L3,2021.2.3,MacIntel,60.0024001,,,,,,,,,,,0.6943,1,,,,,,,,,,,,,,,,,,,,,,,,-0.007773437,-0.288203125,0,0,0,,,,,,,CRADLE,HB,m,m,./images/CRADLEHB.png,,,,,,,,m,1,0.6943,,,,,,,,0,98,98,20,1
,,,,,,,,,,,,,,,,,199867,18,2022-01-28_21h40.13.352,lexical_decision_task_DD_L3,2021.2.3,MacIntel,60.0024001,,,,,,,,,,,0.6981,0,,,,,,,,,,,,,,,,,,,,,,,,-0.007773437,-0.288203125,0,0,0,,,,,,,DRUMS,C,m,m,./images/DRUMS.png,,,,,,,,z,0,0.6981,,,,,,,,0,99,99,49,1
,,,,,,,,,,,,,,,,,199867,18,2022-01-28_21h40.13.352,lexical_decision_task_DD_L3,2021.2.3,MacIntel,60.0024001,,,,,,,,,,,0.9828,1,,,,,,,,,,,,,,,,,,,,,,,,-0.007773437,-0.288203125,0,0,0,,,,,,,HEATER,HB,z,m,./images/HEATERHB.png,,,,,,,,z,1,0.9828,,,,,,,,0,100,100,140,1
,,,,,,,,,,,,,,,,,199867,18,2022-01-28_21h40.13.352,lexical_decision_task_DD_L3,2021.2.3,MacIntel,60.0024001,,,,,,,,,,,1.0034,1,,,,,,,,,,,,,,,,,,,,,,,,-0.007773437,-0.288203125,0,0,0,,,,,,,FERRY,LB,z,m,./images/FERRYLB.png,,,,,,,,z,1,1.0034,,,,,,,,0,101,101,141,1
,,,,,,,,,,,,,,,,,199867,18,2022-01-28_21h40.13.352,lexical_decision_task_DD_L3,2021.2.3,MacIntel,60.0024001,,,,,,,,,,,0.7658,0,,,,,,,,,,,,,,,,,,,,,,,,-0.007773437,-0.288203125,0,0,0,,,,,,,CLOTH,HB,z,m,./images/CLOTHHB.png,,,,,,,,m,0,0.7658,,,,,,,,0,102,102,107,1
,,,,,,,,,,,,,,,,,199867,18,2022-01-28_21h40.13.352,lexical_decision_task_DD_L3,2021.2.3,MacIntel,60.0024001,,,,,,,,,,,0.687,1,,,,,,,,,,,,,,,,,,,,,,,,-0.007773437,-0.288203125,0,0,0,,,,,,,KITTEN,LB,m,m,./images/KITTENLB.png,,,,,,,,m,1,0.687,,,,,,,,0,103,103,45,1
,,,,,,,,,,,,,,,,,199867,18,2022-01-28_21h40.13.352,lexical_decision_task_DD_L3,2021.2.3,MacIntel,60.0024001,,,,,,,,,,,0.8872,1,,,,,,,,,,,,,,,,,,,,,,,,-0.007773437,-0.288203125,0,0,0,,,,,,,PLANK,C,m,m,./images/PLANK.png,,,,,,,,m,1,0.8872,,,,,,,,0,104,104,1,1
,,,,,,,,,,,,,,,,,199867,18,2022-01-28_21h40.13.352,lexical_decision_task_DD_L3,2021.2.3,MacIntel,60.0024001,,,,,,,,,,,0.7302,1,,,,,,,,,,,,,,,,,,,,,,,,-0.007773437,-0.288203125,0,0,0,,,,,,,DIVER,LB,z,m,./images/DIVERLB.png,,,,,,,,z,1,0.7302,,,,,,,,0,105,105,93,1
,,,,,,,,,,,,,,,,,199867,18,2022-01-28_21h40.13.352,lexical_decision_task_DD_L3,2021.2.3,MacIntel,60.0024001,,,,,,,,,,,0.7223,0,,,,,,,,,,,,,,,,,,,,,,,,-0.007773437,-0.288203125,0,0,0,,,,,,,BRUSH,HB,z,m,./images/BRUSHHB.png,,,,,,,,m,0,0.7223,,,,,,,,0,106,106,143,1
,,,,,,,,,,,,,,,,,199867,18,2022-01-28_21h40.13.352,lexical_decision_task_DD_L3,2021.2.3,MacIntel,60.0024001,,,,,,,,,,,0.8036,1,,,,,,,,,,,,,,,,,,,,,,,,-0.007773437,-0.288203125,0,0,0,,,,,,,MUFFIN,C,m,m,./images/MUFFIN.png,,,,,,,,m,1,0.8036,,,,,,,,0,107,107,55,1
,,,,,,,,,,,,,,,,,199867,18,2022-01-28_21h40.13.352,lexical_decision_task_DD_L3,2021.2.3,MacIntel,60.0024001,,,,,,,,,,,0.6506,0,,,,,,,,,,,,,,,,,,,,,,,,-0.007773437,-0.288203125,0,0,0,,,,,,,SNAKE,C,z,m,./images/SNAKE.png,,,,,,,,m,0,0.6506,,,,,,,,0,108,108,124,1
,,,,,,,,,,,,,,,,,199867,18,2022-01-28_21h40.13.352,lexical_decision_task_DD_L3,2021.2.3,MacIntel,60.0024001,,,,,,,,,,,0.7176,1,,,,,,,,,,,,,,,,,,,,,,,,-0.007773437,-0.288203125,0,0,0,,,,,,,FOLDER,LB,m,m,./images/FOLDERLB.png,,,,,,,,m,1,0.7176,,,,,,,,0,109,109,42,1
,,,,,,,,,,,,,,,,,199867,18,2022-01-28_21h40.13.352,lexical_decision_task_DD_L3,2021.2.3,MacIntel,60.0024001,,,,,,,,,,,1.0159,0,,,,,,,,,,,,,,,,,,,,,,,,-0.007773437,-0.288203125,0,0,0,,,,,,,CRATER,LB,z,m,./images/CRATERLB.png,,,,,,,,m,0,1.0159,,,,,,,,0,110,110,87,1
,,,,,,,,,,,,,,,,,199867,18,2022-01-28_21h40.13.352,lexical_decision_task_DD_L3,2021.2.3,MacIntel,60.0024001,,,,,,,,,,,0.8655,0,,,,,,,,,,,,,,,,,,,,,,,,-0.007773437,-0.288203125,0,0,0,,,,,,,PASTA,HB,m,m,./images/PASTAHB.png,,,,,,,,z,0,0.8655,,,,,,,,0,111,111,5,1
,,,,,,,,,,,,,,,,,199867,18,2022-01-28_21h40.13.352,lexical_decision_task_DD_L3,2021.2.3,MacIntel,60.0024001,,,,,,,,,,,0.7527,1,,,,,,,,,,,,,,,,,,,,,,,,-0.007773437,-0.288203125,0,0,0,,,,,,,GARDEN,C,z,m,./images/GARDEN.png,,,,,,,,z,1,0.7527,,,,,,,,0,112,112,94,1
,,,,,,,,,,,,,,,,,199867,18,2022-01-28_21h40.13.352,lexical_decision_task_DD_L3,2021.2.3,MacIntel,60.0024001,,,,,,,,,,,0.767,1,,,,,,,,,,,,,,,,,,,,,,,,-0.007773437,-0.288203125,0,0,0,,,,,,,PEBBLE,C,z,m,./images/PEBBLE.png,,,,,,,,z,1,0.767,,,,,,,,0,113,113,166,1
,,,,,,,,,,,,,,,,,199867,18,2022-01-28_21h40.13.352,lexical_decision_task_DD_L3,2021.2.3,MacIntel,60.0024001,,,,,,,,,,,0.7015,1,,,,,,,,,,,,,,,,,,,,,,,,-0.007773437,-0.288203125,0,0,0,,,,,,,WEASEL,HB,m,m,./images/WEASELHB.png,,,,,,,,m,1,0.7015,,,,,,,,0,114,114,80,1
,,,,,,,,,,,,,,,,,199867,18,2022-01-28_21h40.13.352,lexical_decision_task_DD_L3,2021.2.3,MacIntel,60.0024001,,,,,,,,,,,0.9336,1,,,,,,,,,,,,,,,,,,,,,,,,-0.007773437,-0.288203125,0,0,0,,,,,,,SHELF,LB,m,m,./images/SHELFLB.png,,,,,,,,m,1,0.9336,,,,,,,,0,115,115,39,1
,,,,,,,,,,,,,,,,,199867,18,2022-01-28_21h40.13.352,lexical_decision_task_DD_L3,2021.2.3,MacIntel,60.0024001,,,,,,,,,,,0.6489,0,,,,,,,,,,,,,,,,,,,,,,,,-0.007773437,-0.288203125,0,0,0,,,,,,,SHORE,LB,m,m,./images/SHORELB.png,,,,,,,,z,0,0.6489,,,,,,,,0,116,116,12,1
,,,,,,,,,,,,,,,,,199867,18,2022-01-28_21h40.13.352,lexical_decision_task_DD_L3,2021.2.3,MacIntel,60.0024001,,,,,,,,,,,0.7845,0,,,,,,,,,,,,,,,,,,,,,,,,-0.007773437,-0.288203125,0,0,0,,,,,,,POODLE,LB,m,m,./images/POODLELB.png,,,,,,,,z,0,0.7845,,,,,,,,0,117,117,81,1
,,,,,,,,,,,,,,,,,199867,18,2022-01-28_21h40.13.352,lexical_decision_task_DD_L3,2021.2.3,MacIntel,60.0024001,,,,,,,,,,,0.6336,1,,,,,,,,,,,,,,,,,,,,,,,,-0.007773437,-0.288203125,0,0,0,,,,,,,PACKET,HB,m,m,./images/PACKETHB.png,,,,,,,,m,1,0.6336,,,,,,,,0,118,118,56,1
,,,,,,,,,,,,,,,,,199867,18,2022-01-28_21h40.13.352,lexical_decision_task_DD_L3,2021.2.3,MacIntel,60.0024001,,,,,,,,,,,0.8338,1,,,,,,,,,,,,,,,,,,,,,,,,-0.007773437,-0.288203125,0,0,0,,,,,,,MOTOR,C,m,m,./images/MOTOR.png,,,,,,,,m,1,0.8338,,,,,,,,0,119,119,13,1
,,,,,,,,,,,,,,,,,199867,18,2022-01-28_21h40.13.352,lexical_decision_task_DD_L3,2021.2.3,MacIntel,60.0024001,,,,,,,,,,,0.5861,1,,,,,,,,,,,,,,,,,,,,,,,,-0.007773437,-0.288203125,0,0,0,,,,,,,JUNGLE,HB,m,m,./images/JUNGLEHB.png,,,,,,,,m,1,0.5861,,,,,,,,0,120,120,83,1
,,,,,,,,,,,,,,,,,199867,18,2022-01-28_21h40.13.352,lexical_decision_task_DD_L3,2021.2.3,MacIntel,60.0024001,,,,,,,,,,,0.6993,1,,,,,,,,,,,,,,,,,,,,,,,,-0.007773437,-0.288203125,0,0,0,,,,,,,BABOON,C,m,m,./images/BABOON.png,,,,,,,,m,1,0.6993,,,,,,,,0,121,121,58,1
,,,,,,,,,,,,,,,,,199867,18,2022-01-28_21h40.13.352,lexical_decision_task_DD_L3,2021.2.3,MacIntel,60.0024001,,,,,,,,,,,0.8838,0,,,,,,,,,,,,,,,,,,,,,,,,-0.007773437,-0.288203125,0,0,0,,,,,,,GRAPE,C,z,m,./images/GRAPE.png,,,,,,,,m,0,0.8838,,,,,,,,0,122,122,100,1
,,,,,,,,,,,,,,,,,199867,18,2022-01-28_21h40.13.352,lexical_decision_task_DD_L3,2021.2.3,MacIntel,60.0024001,,,,,,,,,,,0.8498,1,,,,,,,,,,,,,,,,,,,,,,,,-0.007773437,-0.288203125,0,0,0,,,,,,,RULER,C,z,m,./images/RULER.png,,,,,,,,z,1,0.8498,,,,,,,,0,123,123,163,1
,,,,,,,,,,,,,,,,,199867,18,2022-01-28_21h40.13.352,lexical_decision_task_DD_L3,2021.2.3,MacIntel,60.0024001,,,,,,,,,,,0.8339,1,,,,,,,,,,,,,,,,,,,,,,,,-0.007773437,-0.288203125,0,0,0,,,,,,,CANDY,LB,z,m,./images/CANDYLB.png,,,,,,,,z,1,0.8339,,,,,,,,0,124,124,123,1
,,,,,,,,,,,,,,,,,199867,18,2022-01-28_21h40.13.352,lexical_decision_task_DD_L3,2021.2.3,MacIntel,60.0024001,,,,,,,,,,,0.7174,1,,,,,,,,,,,,,,,,,,,,,,,,-0.007773437,-0.288203125,0,0,0,space,,,,,,PIMPLE,HB,m,m,./images/PIMPLEHB.png,1.0842,,,,,,,m,1,0.7174,,,,,,,,0,125,125,71,1
,,,,,,,,,,,,,,,,,199867,18,2022-01-28_21h40.13.352,lexical_decision_task_DD_L3,2021.2.3,MacIntel,60.0024001,,,,,,,,,,,0.8331,1,,,,,,,,,,,,,,,,,,,,,,,,-0.007773437,-0.288203125,0,0,0,,,,,,,CLOUD,HB,z,m,./images/CLOUDHB.png,,,,,,,,z,1,0.8331,,,,,,,,0,126,126,110,1
,,,,,,,,,,,,,,,,,199867,18,2022-01-28_21h40.13.352,lexical_decision_task_DD_L3,2021.2.3,MacIntel,60.0024001,,,,,,,,,,,1.0659,1,,,,,,,,,,,,,,,,,,,,,,,,-0.007773437,-0.288203125,0,0,0,,,,,,,MONKEY,LB,z,m,./images/MONKEYLB.png,,,,,,,,z,1,1.0659,,,,,,,,0,127,127,129,1
,,,,,,,,,,,,,,,,,199867,18,2022-01-28_21h40.13.352,lexical_decision_task_DD_L3,2021.2.3,MacIntel,60.0024001,,,,,,,,,,,1.2838,0,,,,,,,,,,,,,,,,,,,,,,,,-0.007773437,-0.288203125,0,0,0,,,,,,,CLIFF,HB,z,m,./images/CLIFFHB.png,,,,,,,,m,0,1.2838,,,,,,,,0,128,128,92,1
,,,,,,,,,,,,,,,,,199867,18,2022-01-28_21h40.13.352,lexical_decision_task_DD_L3,2021.2.3,MacIntel,60.0024001,,,,,,,,,,,0.8328,1,,,,,,,,,,,,,,,,,,,,,,,,-0.007773437,-0.288203125,0,0,0,,,,,,,SAILOR,C,m,m,./images/SAILOR.png,,,,,,,,m,1,0.8328,,,,,,,,0,129,129,67,1
,,,,,,,,,,,,,,,,,199867,18,2022-01-28_21h40.13.352,lexical_decision_task_DD_L3,2021.2.3,MacIntel,60.0024001,,,,,,,,,,,0.6007,0,,,,,,,,,,,,,,,,,,,,,,,,-0.007773437,-0.288203125,0,0,0,,,,,,,MIDGET,C,z,m,./images/MIDGET.png,,,,,,,,m,0,0.6007,,,,,,,,0,130,130,160,1
,,,,,,,,,,,,,,,,,199867,18,2022-01-28_21h40.13.352,lexical_decision_task_DD_L3,2021.2.3,MacIntel,60.0024001,,,,,,,,,,,0.8176,1,,,,,,,,,,,,,,,,,,,,,,,,-0.007773437,-0.288203125,0,0,0,,,,,,,BELLY,C,m,m,./images/BELLY.png,,,,,,,,m,1,0.8176,,,,,,,,0,131,131,10,1
,,,,,,,,,,,,,,,,,199867,18,2022-01-28_21h40.13.352,lexical_decision_task_DD_L3,2021.2.3,MacIntel,60.0024001,,,,,,,,,,,0.6491,0,,,,,,,,,,,,,,,,,,,,,,,,-0.007773437,-0.288203125,0,0,0,,,,,,,FARMER,HB,m,m,./images/FARMERHB.png,,,,,,,,z,0,0.6491,,,,,,,,0,132,132,65,1
,,,,,,,,,,,,,,,,,199867,18,2022-01-28_21h40.13.352,lexical_decision_task_DD_L3,2021.2.3,MacIntel,60.0024001,,,,,,,,,,,1.083,1,,,,,,,,,,,,,,,,,,,,,,,,-0.007773437,-0.288203125,0,0,0,,,,,,,STREAM,HB,z,m,./images/STREAMHB.png,,,,,,,,z,1,1.083,,,,,,,,0,133,133,125,1
,,,,,,,,,,,,,,,,,199867,18,2022-01-28_21h40.13.352,lexical_decision_task_DD_L3,2021.2.3,MacIntel,60.0024001,,,,,,,,,,,0.8515,1,,,,,,,,,,,,,,,,,,,,,,,,-0.007773437,-0.288203125,0,0,0,,,,,,,MIRROR,LB,m,m,./images/MIRRORLB.png,,,,,,,,m,1,0.8515,,,,,,,,0,134,134,63,1
,,,,,,,,,,,,,,,,,199867,18,2022-01-28_21h40.13.352,lexical_decision_task_DD_L3,2021.2.3,MacIntel,60.0024001,,,,,,,,,,,1.0843,0,,,,,,,,,,,,,,,,,,,,,,,,-0.007773437,-0.288203125,0,0,0,,,,,,,SNACK,C,m,m,./images/SNACK.png,,,,,,,,z,0,1.0843,,,,,,,,0,135,135,73,1
,,,,,,,,,,,,,,,,,199867,18,2022-01-28_21h40.13.352,lexical_decision_task_DD_L3,2021.2.3,MacIntel,60.0024001,,,,,,,,,,,0.7519,1,,,,,,,,,,,,,,,,,,,,,,,,-0.007773437,-0.288203125,0,0,0,,,,,,,CLOWN,C,z,m,./images/CLOWN.png,,,,,,,,z,1,0.7519,,,,,,,,0,136,136,106,1
,,,,,,,,,,,,,,,,,199867,18,2022-01-28_21h40.13.352,lexical_decision_task_DD_L3,2021.2.3,MacIntel,60.0024001,,,,,,,,,,,0.8488,1,,,,,,,,,,,,,,,,,,,,,,,,-0.007773437,-0.288203125,0,0,0,,,,,,,CHAIN,LB,z,m,./images/CHAINLB.png,,,,,,,,z,1,0.8488,,,,,,,,0,137,137,126,1
,,,,,,,,,,,,,,,,,199867,18,2022-01-28_21h40.13.352,lexical_decision_task_DD_L3,2021.2.3,MacIntel,60.0024001,,,,,,,,,,,0.6845,0,,,,,,,,,,,,,,,,,,,,,,,,-0.007773437,-0.288203125,0,0,0,,,,,,,ENGINE,HB,z,m,./images/ENGINEHB.png,,,,,,,,m,0,0.6845,,,,,,,,0,138,138,122,1
,,,,,,,,,,,,,,,,,199867,18,2022-01-28_21h40.13.352,lexical_decision_task_DD_L3,2021.2.3,MacIntel,60.0024001,,,,,,,,,,,0.6856,1,,,,,,,,,,,,,,,,,,,,,,,,-0.007773437,-0.288203125,0,0,0,,,,,,,PEACH,HB,m,m,./images/PEACHHB.png,,,,,,,,m,1,0.6856,,,,,,,,0,139,139,35,1
,,,,,,,,,,,,,,,,,199867,18,2022-01-28_21h40.13.352,lexical_decision_task_DD_L3,2021.2.3,MacIntel,60.0024001,,,,,,,,,,,0.687,1,,,,,,,,,,,,,,,,,,,,,,,,-0.007773437,-0.288203125,0,0,0,,,,,,,COLLAR,LB,z,m,./images/COLLARLB.png,,,,,,,,z,1,0.687,,,,,,,,0,140,140,99,1
,,,,,,,,,,,,,,,,,199867,18,2022-01-28_21h40.13.352,lexical_decision_task_DD_L3,2021.2.3,MacIntel,60.0024001,,,,,,,,,,,0.6324,1,,,,,,,,,,,,,,,,,,,,,,,,-0.007773437,-0.288203125,0,0,0,,,,,,,BERRY,HB,m,m,./images/BERRYHB.png,,,,,,,,m,1,0.6324,,,,,,,,0,141,141,47,1
,,,,,,,,,,,,,,,,,199867,18,2022-01-28_21h40.13.352,lexical_decision_task_DD_L3,2021.2.3,MacIntel,60.0024001,,,,,,,,,,,0.5852,0,,,,,,,,,,,,,,,,,,,,,,,,-0.007773437,-0.288203125,0,0,0,,,,,,,BASKET,HB,z,m,./images/BASKETHB.png,,,,,,,,m,0,0.5852,,,,,,,,0,142,142,128,1
,,,,,,,,,,,,,,,,,199867,18,2022-01-28_21h40.13.352,lexical_decision_task_DD_L3,2021.2.3,MacIntel,60.0024001,,,,,,,,,,,0.8999,1,,,,,,,,,,,,,,,,,,,,,,,,-0.007773437,-0.288203125,0,0,0,,,,,,,DANCER,LB,z,m,./images/DANCERLB.png,,,,,,,,z,1,0.8999,,,,,,,,0,143,143,105,1
,,,,,,,,,,,,,,,,,199867,18,2022-01-28_21h40.13.352,lexical_decision_task_DD_L3,2021.2.3,MacIntel,60.0024001,,,,,,,,,,,0.7161,0,,,,,,,,,,,,,,,,,,,,,,,,-0.007773437,-0.288203125,0,0,0,,,,,,,FLASK,LB,z,m,./images/FLASKLB.png,,,,,,,,m,0,0.7161,,,,,,,,0,144,144,156,1
,,,,,,,,,,,,,,,,,199867,18,2022-01-28_21h40.13.352,lexical_decision_task_DD_L3,2021.2.3,MacIntel,60.0024001,,,,,,,,,,,0.7989,1,,,,,,,,,,,,,,,,,,,,,,,,-0.007773437,-0.288203125,0,0,0,,,,,,,MEDAL,HB,z,m,./images/MEDALHB.png,,,,,,,,z,1,0.7989,,,,,,,,0,145,145,95,1
,,,,,,,,,,,,,,,,,199867,18,2022-01-28_21h40.13.352,lexical_decision_task_DD_L3,2021.2.3,MacIntel,60.0024001,,,,,,,,,,,0.6666,0,,,,,,,,,,,,,,,,,,,,,,,,-0.007773437,-0.288203125,0,0,0,,,,,,,WRIST,C,m,m,./images/WRIST.png,,,,,,,,z,0,0.6666,,,,,,,,0,146,146,25,1
,,,,,,,,,,,,,,,,,199867,18,2022-01-28_21h40.13.352,lexical_decision_task_DD_L3,2021.2.3,MacIntel,60.0024001,,,,,,,,,,,0.7001,0,,,,,,,,,,,,,,,,,,,,,,,,-0.007773437,-0.288203125,0,0,0,,,,,,,WAGON,C,z,m,./images/WAGON.png,,,,,,,,m,0,0.7001,,,,,,,,0,147,147,91,1
,,,,,,,,,,,,,,,,,199867,18,2022-01-28_21h40.13.352,lexical_decision_task_DD_L3,2021.2.3,MacIntel,60.0024001,,,,,,,,,,,0.7859,1,,,,,,,,,,,,,,,,,,,,,,,,-0.007773437,-0.288203125,0,0,0,,,,,,,WALRUS,HB,m,m,./images/WALRUSHB.png,,,,,,,,m,1,0.7859,,,,,,,,0,148,148,23,1
,,,,,,,,,,,,,,,,,199867,18,2022-01-28_21h40.13.352,lexical_decision_task_DD_L3,2021.2.3,MacIntel,60.0024001,,,,,,,,,,,0.6331,1,,,,,,,,,,,,,,,,,,,,,,,,-0.007773437,-0.288203125,0,0,0,,,,,,,TOMATO,LB,m,m,./images/TOMATOLB.png,,,,,,,,m,1,0.6331,,,,,,,,0,149,149,0,1
,,,,,,,,,,,,,,,,,199867,18,2022-01-28_21h40.13.352,lexical_decision_task_DD_L3,2021.2.3,MacIntel,60.0024001,,,,,,,,,,,0.6675,1,,,,,,,,,,,,,,,,,,,,,,,,-0.007773437,-0.288203125,0,0,0,,,,,,,CASINO,C,z,m,./images/CASINO.png,,,,,,,,z,1,0.6675,,,,,,,,0,150,150,112,1
,,,,,,,,,,,,,,,,,199867,18,2022-01-28_21h40.13.352,lexical_decision_task_DD_L3,2021.2.3,MacIntel,60.0024001,,,,,,,,,,,0.7166,1,,,,,,,,,,,,,,,,,,,,,,,,-0.007773437,-0.288203125,0,0,0,,,,,,,SCREW,LB,m,m,./images/SCREWLB.png,,,,,,,,m,1,0.7166,,,,,,,,0,151,151,24,1
,,,,,,,,,,,,,,,,,199867,18,2022-01-28_21h40.13.352,lexical_decision_task_DD_L3,2021.2.3,MacIntel,60.0024001,,,,,,,,,,,0.7836,1,,,,,,,,,,,,,,,,,,,,,,,,-0.007773437,-0.288203125,0,0,0,,,,,,,DESERT,C,z,m,./images/DESERT.png,,,,,,,,z,1,0.7836,,,,,,,,0,152,152,136,1
,,,,,,,,,,,,,,,,,199867,18,2022-01-28_21h40.13.352,lexical_decision_task_DD_L3,2021.2.3,MacIntel,60.0024001,,,,,,,,,,,0.7661,1,,,,,,,,,,,,,,,,,,,,,,,,-0.007773437,-0.288203125,0,0,0,,,,,,,CHERRY,LB,z,m,./images/CHERRYLB.png,,,,,,,,z,1,0.7661,,,,,,,,0,153,153,138,1
,,,,,,,,,,,,,,,,,199867,18,2022-01-28_21h40.13.352,lexical_decision_task_DD_L3,2021.2.3,MacIntel,60.0024001,,,,,,,,,,,0.684,1,,,,,,,,,,,,,,,,,,,,,,,,-0.007773437,-0.288203125,0,0,0,,,,,,,MOOSE,LB,m,m,./images/MOOSELB.png,,,,,,,,m,1,0.684,,,,,,,,0,154,154,57,1
,,,,,,,,,,,,,,,,,199867,18,2022-01-28_21h40.13.352,lexical_decision_task_DD_L3,2021.2.3,MacIntel,60.0024001,,,,,,,,,,,0.6839,1,,,,,,,,,,,,,,,,,,,,,,,,-0.007773437,-0.288203125,0,0,0,,,,,,,TIGER,C,z,m,./images/TIGER.png,,,,,,,,z,1,0.6839,,,,,,,,0,155,155,121,1
,,,,,,,,,,,,,,,,,199867,18,2022-01-28_21h40.13.352,lexical_decision_task_DD_L3,2021.2.3,MacIntel,60.0024001,,,,,,,,,,,1.0001,1,,,,,,,,,,,,,,,,,,,,,,,,-0.007773437,-0.288203125,0,0,0,,,,,,,PENCE,C,m,m,./images/PENCE.png,,,,,,,,m,1,1.0001,,,,,,,,0,156,156,16,1
,,,,,,,,,,,,,,,,,199867,18,2022-01-28_21h40.13.352,lexical_decision_task_DD_L3,2021.2.3,MacIntel,60.0024001,,,,,,,,,,,1.2001,1,,,,,,,,,,,,,,,,,,,,,,,,-0.007773437,-0.288203125,0,0,0,,,,,,,STAIN,LB,z,m,./images/STAINLB.png,,,,,,,,z,1,1.2001,,,,,,,,0,157,157,90,1
,,,,,,,,,,,,,,,,,199867,18,2022-01-28_21h40.13.352,lexical_decision_task_DD_L3,2021.2.3,MacIntel,60.0024001,,,,,,,,,,,0.6509,1,,,,,,,,,,,,,,,,,,,,,,,,-0.007773437,-0.288203125,0,0,0,,,,,,,JELLY,C,m,m,./images/JELLY.png,,,,,,,,m,1,0.6509,,,,,,,,0,158,158,64,1
,,,,,,,,,,,,,,,,,199867,18,2022-01-28_21h40.13.352,lexical_decision_task_DD_L3,2021.2.3,MacIntel,60.0024001,,,,,,,,,,,0.751,0,,,,,,,,,,,,,,,,,,,,,,,,-0.007773437,-0.288203125,0,0,0,,,,,,,DRILL,LB,z,m,./images/DRILLLB.png,,,,,,,,m,0,0.751,,,,,,,,0,159,159,165,1
,,,,,,,,,,,,,,,,,199867,18,2022-01-28_21h40.13.352,lexical_decision_task_DD_L3,2021.2.3,MacIntel,60.0024001,,,,,,,,,,,0.8337,1,,,,,,,,,,,,,,,,,,,,,,,,-0.007773437,-0.288203125,0,0,0,,,,,,,BURIAL,HB,m,m,./images/BURIALHB.png,,,,,,,,m,1,0.8337,,,,,,,,0,160,160,59,1
,,,,,,,,,,,,,,,,,199867,18,2022-01-28_21h40.13.352,lexical_decision_task_DD_L3,2021.2.3,MacIntel,60.0024001,,,,,,,,,,,1.1524,1,,,,,,,,,,,,,,,,,,,,,,,,-0.007773437,-0.288203125,0,0,0,,,,,,,BISHOP,C,z,m,./images/BISHOP.png,,,,,,,,z,1,1.1524,,,,,,,,0,161,161,133,1
,,,,,,,,,,,,,,,,,199867,18,2022-01-28_21h40.13.352,lexical_decision_task_DD_L3,2021.2.3,MacIntel,60.0024001,,,,,,,,,,,0.7674,1,,,,,,,,,,,,,,,,,,,,,,,,-0.007773437,-0.288203125,0,0,0,,,,,,,COOKER,LB,m,m,./images/COOKERLB.png,,,,,,,,m,1,0.7674,,,,,,,,0,162,162,69,1
,,,,,,,,,,,,,,,,,199867,18,2022-01-28_21h40.13.352,lexical_decision_task_DD_L3,2021.2.3,MacIntel,60.0024001,,,,,,,,,,,0.9041,1,,,,,,,,,,,,,,,,,,,,,,,,-0.007773437,-0.288203125,0,0,0,,,,,,,SPINE,HB,z,m,./images/SPINEHB.png,,,,,,,,z,1,0.9041,,,,,,,,0,163,163,149,1
,,,,,,,,,,,,,,,,,199867,18,2022-01-28_21h40.13.352,lexical_decision_task_DD_L3,2021.2.3,MacIntel,60.0024001,,,,,,,,,,,0.7511,0,,,,,,,,,,,,,,,,,,,,,,,,-0.007773437,-0.288203125,0,0,0,,,,,,,ONION,LB,m,m,./images/ONIONLB.png,,,,,,,,z,0,0.7511,,,,,,,,0,164,164,51,1
,,,,,,,,,,,,,,,,,199867,18,2022-01-28_21h40.13.352,lexical_decision_task_DD_L3,2021.2.3,MacIntel,60.0024001,,,,,,,,,,,0.7702,1,,,,,,,,,,,,,,,,,,,,,,,,-0.007773437,-0.288203125,0,0,0,,,,,,,BARREL,HB,m,m,./images/BARRELHB.png,,,,,,,,m,1,0.7702,,,,,,,,0,165,165,32,1
,,,,,,,,,,,,,,,,,199867,18,2022-01-28_21h40.13.352,lexical_decision_task_DD_L3,2021.2.3,MacIntel,60.0024001,,,,,,,,,,,1.0313,1,,,,,,,,,,,,,,,,,,,,,,,,-0.007773437,-0.288203125,0,0,0,,,,,,,ALLEY,C,z,m,./images/ALLEY.png,,,,,,,,z,1,1.0313,,,,,,,,0,166,166,139,1
,,,,,,,,,,,,,,,,,199867,18,2022-01-28_21h40.13.352,lexical_decision_task_DD_L3,2021.2.3,MacIntel,60.0024001,,,,,,,,,,,2.5502,1,,,,,,,,,,,,,,,,,,,,,,,,-0.007773437,-0.288203125,0,0,0,,,,,,,RAZOR,C,z,m,./images/RAZOR.png,,,,,,,,z,1,2.5502,,,,,,,,0,167,167,118,1
