key_resp.keys,instr_done_touch.x,instr_done_touch.y,instr_done_touch.leftButton,instr_done_touch.midButton,instr_done_touch.rightButton,instr_done_touch.clicked_name,instruction_pages.thisRepN,instruction_pages.thisTrialN,instruction_pages.thisN,instruction_pages.thisIndex,instruction_pages.ran,pageN,phase,instruct_text,has_image,instruct_image,participant,age,date,expName,psychopyVersion,OS,frameRate,key_resp.rt,response.keys,response.corr,response.rt,touch_resp.x,touch_resp.y,touch_resp.leftButton,touch_resp.midButton,touch_resp.rightButton,touch_resp.time,touch_resp.clicked_name,rt,corr,practrials.thisRepN,practrials.thisTrialN,practrials.thisN,practrials.thisIndex,practrials.ran,TrialID,Target,corrAns,end_of_practice_trials_pages.thisRepN,end_of_practice_trials_pages.thisTrialN,end_of_practice_trials_pages.thisN,end_of_practice_trials_pages.thisIndex,end_of_practice_trials_pages.ran,key_resp_2.keys,key_resp_2.corr,key_resp_2.rt,targ_click.x,targ_click.y,targ_click.leftButton,targ_click.midButton,targ_click.rightButton,targ_click.time,targ_click.clicked_name,break_done_touch.x,break_done_touch.y,break_done_touch.leftButton,break_done_touch.midButton,break_done_touch.rightButton,break_done_keyboard.keys,maintrials.thisRepN,maintrials.thisTrialN,maintrials.thisN,maintrials.thisIndex,maintrials.ran,string,blur,study,lex,stim_path,break_done_touch.clicked_name,test_instructions.thisRepN,test_instructions.thisTrialN,test_instructions.thisN,test_instructions.thisIndex,test_instructions.ran,key_resp_3.keys,key_resp_3.corr,key_resp_3.rt,test_click.x,test_click.y,test_click.leftButton,test_click.midButton,test_click.rightButton,test_click.time,test_click.clicked_name,test_phase.thisRepN,test_phase.thisTrialN,test_phase.thisN,test_phase.thisIndex,test_phase.ran
,0.011111111,-0.384259259,1,0,0,instr_done_button,0,0,0,0,1,1,instructions,"INSTRUCTIONS
At the start of each trial, look at the plus sign  (+) in the center of the screen.  This tells you that a trial is about to begin and where to look. Second, the plus sign will disappear and a string of letters will appear. Your task is to determine if the string of letters is a word or not. If the item is a word press the M key (on keyboard)  or touch the word button (phone/tablet).  If the item is not a word,  press the  Z key (on keyboard)  or touch the nonword button (on phone/tablet). 
Press the space bar or touch  continue.",0,,199879,18,2022-01-28_19h20.53.847,lexical_decision_task_DD_L3,2021.2.3,Win32,61.60670281,,,,,,,,,,,,,,,,,,,,,,,,,,,,,,,,,,,,,,,,,,,,,,,,,,,,,,,,,,,,,,,,,,,,,,,,,
space,0.061111111,-0.326851852,0,0,0,,0,1,1,1,1,2,instructions,"If your device has a keyboard, press the 'Z' key for nonwords and the 'M' key for words.





Press the space bar or touch the button below to continue.",0,keyboard-example.gif,199879,18,2022-01-28_19h20.53.847,lexical_decision_task_DD_L3,2021.2.3,Win32,61.60670281,12.5907,,,,,,,,,,,,,,,,,,,,,,,,,,,,,,,,,,,,,,,,,,,,,,,,,,,,,,,,,,,,,,,,,,,,,,,,
space,0.061111111,-0.326851852,0,0,0,,0,2,2,2,1,3,instructions,"If you are using a touchscreen only device, use the buttons on the screen. Do not use the mouse.





Press the space bar or touch the button below to continue.",0,touchscreen-example.gif,199879,18,2022-01-28_19h20.53.847,lexical_decision_task_DD_L3,2021.2.3,Win32,61.60670281,4.0042,,,,,,,,,,,,,,,,,,,,,,,,,,,,,,,,,,,,,,,,,,,,,,,,,,,,,,,,,,,,,,,,,,,,,,,,
space,0.061111111,-0.326851852,0,0,0,,0,3,3,3,1,4,instructions,"It is very important that you respond as quickly and accurately as possible, as each letter string will only be on the screen for two seconds. If you do not respond within this time, the message 'Too slow!' will be displayed and the experiment will progress to the next letter string. The first 20 trials will be practice trials and you will receive feedback on your answers. 

Press the space bar or touch the button below to start the practice trials.",0,,199879,18,2022-01-28_19h20.53.847,lexical_decision_task_DD_L3,2021.2.3,Win32,61.60670281,12.2346,,,,,,,,,,,,,,,,,,,,,,,,,,,,,,,,,,,,,,,,,,,,,,,,,,,,,,,,,,,,,,,,,,,,,,,,
,,,,,,,,,,,,,,,,,199879,18,2022-01-28_19h20.53.847,lexical_decision_task_DD_L3,2021.2.3,Win32,61.60670281,,m,1,2.2333,,,,,,,,2.2333,1,0,0,0,3,1,1001,MATRIX,m,,,,,,,,,,,,,,,,,,,,,,,,,,,,,,,,,,,,,,,,,,,,,,,,,,,,
,,,,,,,,,,,,,,,,,199879,18,2022-01-28_19h20.53.847,lexical_decision_task_DD_L3,2021.2.3,Win32,61.60670281,,z,1,1.5008,,,,,,,,1.5008,1,0,1,1,8,1,1001,ASLERT,z,,,,,,,,,,,,,,,,,,,,,,,,,,,,,,,,,,,,,,,,,,,,,,,,,,,,
,,,,,,,,,,,,,,,,,199879,18,2022-01-28_19h20.53.847,lexical_decision_task_DD_L3,2021.2.3,Win32,61.60670281,,m,1,0.6834,,,,,,,,0.6834,1,0,2,2,7,1,1001,VOLUME,m,,,,,,,,,,,,,,,,,,,,,,,,,,,,,,,,,,,,,,,,,,,,,,,,,,,,
,,,,,,,,,,,,,,,,,199879,18,2022-01-28_19h20.53.847,lexical_decision_task_DD_L3,2021.2.3,Win32,61.60670281,,m,1,0.6173,,,,,,,,0.6173,1,0,3,3,0,1,1001,UTOPIA,m,,,,,,,,,,,,,,,,,,,,,,,,,,,,,,,,,,,,,,,,,,,,,,,,,,,,
,,,,,,,,,,,,,,,,,199879,18,2022-01-28_19h20.53.847,lexical_decision_task_DD_L3,2021.2.3,Win32,61.60670281,,m,1,0.7404,,,,,,,,0.7404,1,0,4,4,1,1,1001,ADJUST,m,,,,,,,,,,,,,,,,,,,,,,,,,,,,,,,,,,,,,,,,,,,,,,,,,,,,
,,,,,,,,,,,,,,,,,199879,18,2022-01-28_19h20.53.847,lexical_decision_task_DD_L3,2021.2.3,Win32,61.60670281,,z,1,1.0497,,,,,,,,1.0497,1,0,5,5,9,1,1001,FARINY,z,,,,,,,,,,,,,,,,,,,,,,,,,,,,,,,,,,,,,,,,,,,,,,,,,,,,
,,,,,,,,,,,,,,,,,199879,18,2022-01-28_19h20.53.847,lexical_decision_task_DD_L3,2021.2.3,Win32,61.60670281,,m,1,0.6266,,,,,,,,0.6266,1,0,6,6,4,1,1001,SQUEAK,m,,,,,,,,,,,,,,,,,,,,,,,,,,,,,,,,,,,,,,,,,,,,,,,,,,,,
,,,,,,,,,,,,,,,,,199879,18,2022-01-28_19h20.53.847,lexical_decision_task_DD_L3,2021.2.3,Win32,61.60670281,,z,1,0.8848,,,,,,,,0.8848,1,0,7,7,11,1,1001,RASHET,z,,,,,,,,,,,,,,,,,,,,,,,,,,,,,,,,,,,,,,,,,,,,,,,,,,,,
,,,,,,,,,,,,,,,,,199879,18,2022-01-28_19h20.53.847,lexical_decision_task_DD_L3,2021.2.3,Win32,61.60670281,,m,1,0.573,,,,,,,,0.573,1,0,8,8,5,1,1001,OBTAIN,m,,,,,,,,,,,,,,,,,,,,,,,,,,,,,,,,,,,,,,,,,,,,,,,,,,,,
,,,,,,,,,,,,,,,,,199879,18,2022-01-28_19h20.53.847,lexical_decision_task_DD_L3,2021.2.3,Win32,61.60670281,,z,1,0.8437,,,,,,,,0.8437,1,0,9,9,15,1,1001,WHAISE,z,,,,,,,,,,,,,,,,,,,,,,,,,,,,,,,,,,,,,,,,,,,,,,,,,,,,
,,,,,,,,,,,,,,,,,199879,18,2022-01-28_19h20.53.847,lexical_decision_task_DD_L3,2021.2.3,Win32,61.60670281,,m,0,0.9677,,,,,,,,0.9677,0,0,10,10,12,1,1001,SPRINY,z,,,,,,,,,,,,,,,,,,,,,,,,,,,,,,,,,,,,,,,,,,,,,,,,,,,,
,,,,,,,,,,,,,,,,,199879,18,2022-01-28_19h20.53.847,lexical_decision_task_DD_L3,2021.2.3,Win32,61.60670281,,z,1,1.1338,,,,,,,,1.1338,1,0,11,11,14,1,1001,THRALE,z,,,,,,,,,,,,,,,,,,,,,,,,,,,,,,,,,,,,,,,,,,,,,,,,,,,,
,,,,,,,,,,,,,,,,,199879,18,2022-01-28_19h20.53.847,lexical_decision_task_DD_L3,2021.2.3,Win32,61.60670281,,m,1,0.8072,,,,,,,,0.8072,1,0,12,12,6,1,1001,ZOMBIE,m,,,,,,,,,,,,,,,,,,,,,,,,,,,,,,,,,,,,,,,,,,,,,,,,,,,,
,,,,,,,,,,,,,,,,,199879,18,2022-01-28_19h20.53.847,lexical_decision_task_DD_L3,2021.2.3,Win32,61.60670281,,z,1,0.8678,,,,,,,,0.8678,1,0,13,13,13,1,1001,ROUPET,z,,,,,,,,,,,,,,,,,,,,,,,,,,,,,,,,,,,,,,,,,,,,,,,,,,,,
,,,,,,,,,,,,,,,,,199879,18,2022-01-28_19h20.53.847,lexical_decision_task_DD_L3,2021.2.3,Win32,61.60670281,,m,0,0.7754,,,,,,,,0.7754,0,0,14,14,10,1,1001,INLADE,z,,,,,,,,,,,,,,,,,,,,,,,,,,,,,,,,,,,,,,,,,,,,,,,,,,,,
,,,,,,,,,,,,,,,,,199879,18,2022-01-28_19h20.53.847,lexical_decision_task_DD_L3,2021.2.3,Win32,61.60670281,,m,1,0.6506,,,,,,,,0.6506,1,0,15,15,2,1,1001,ALMOND,m,,,,,,,,,,,,,,,,,,,,,,,,,,,,,,,,,,,,,,,,,,,,,,,,,,,,
,0.042592593,-0.398148148,1,0,0,instr_done_button,,,,,,1,end_of_practice,"You have completed the practice trials. During the experimental trials, you will not receive feedback. 
Before you begin, please ensure that you are in a comfortable and quiet location and will not be disturbed for about 15 minutes, as we cannot use your data if you do not complete all the trials. 
 When you are ready to start the experimental trials, please press space or touch the button below.",,,199879,18,2022-01-28_19h20.53.847,lexical_decision_task_DD_L3,2021.2.3,Win32,61.60670281,,,,,,,,,,,,,,,,,,,,,,0,0,0,0,1,,,,,,,,,,,,,,,,,,,,,,,,,,,,,,,,,,,,,,,,,,,,,,,
,,,,,,,,,,,,,,,,,199879,18,2022-01-28_19h20.53.847,lexical_decision_task_DD_L3,2021.2.3,Win32,61.60670281,,,,,,,,,,,,0.7362,1,,,,,,,,,,,,,,z,1,0.7362,,,,,,,,0.042592593,-0.398148148,0,0,0,,0,0,0,104,1,GITTY,LB,old,z,./images/GITTYLB.png,,,,,,,,,,,,,,,,,,,,,
,,,,,,,,,,,,,,,,,199879,18,2022-01-28_19h20.53.847,lexical_decision_task_DD_L3,2021.2.3,Win32,61.60670281,,,,,,,,,,,,0.731,1,,,,,,,,,,,,,,z,1,0.731,,,,,,,,0.042592593,-0.398148148,0,0,0,,0,1,1,135,1,JOODY,C,old,z,./images/JOODY.png,,,,,,,,,,,,,,,,,,,,,
,,,,,,,,,,,,,,,,,199879,18,2022-01-28_19h20.53.847,lexical_decision_task_DD_L3,2021.2.3,Win32,61.60670281,,,,,,,,,,,,0.8072,1,,,,,,,,,,,,,,z,1,0.8072,,,,,,,,0.042592593,-0.398148148,0,0,0,,0,2,2,161,1,BLAPS,LB,old,z,./images/BLAPSLB.png,,,,,,,,,,,,,,,,,,,,,
,,,,,,,,,,,,,,,,,199879,18,2022-01-28_19h20.53.847,lexical_decision_task_DD_L3,2021.2.3,Win32,61.60670281,,,,,,,,,,,,0.5955,1,,,,,,,,,,,,,,m,1,0.5955,,,,,,,,0.042592593,-0.398148148,0,0,0,,0,3,3,4,1,MUSCLE,C,old,m,./images/MUSCLE.png,,,,,,,,,,,,,,,,,,,,,
,,,,,,,,,,,,,,,,,199879,18,2022-01-28_19h20.53.847,lexical_decision_task_DD_L3,2021.2.3,Win32,61.60670281,,,,,,,,,,,,0.5519,1,,,,,,,,,,,,,,m,1,0.5519,,,,,,,,0.042592593,-0.398148148,0,0,0,,0,4,4,52,1,BANNER,C,old,m,./images/BANNER.png,,,,,,,,,,,,,,,,,,,,,
,,,,,,,,,,,,,,,,,199879,18,2022-01-28_19h20.53.847,lexical_decision_task_DD_L3,2021.2.3,Win32,61.60670281,,,,,,,,,,,,0.9594,1,,,,,,,,,,,,,,z,1,0.9594,,,,,,,,0.042592593,-0.398148148,0,0,0,,0,5,5,125,1,MOOKY,LB,old,z,./images/MOOKYLB.png,,,,,,,,,,,,,,,,,,,,,
,,,,,,,,,,,,,,,,,199879,18,2022-01-28_19h20.53.847,lexical_decision_task_DD_L3,2021.2.3,Win32,61.60670281,,,,,,,,,,,,0.7888,1,,,,,,,,,,,,,,z,1,0.7888,,,,,,,,0.042592593,-0.398148148,0,0,0,,0,6,6,156,1,HIXES,C,old,z,./images/HIXES.png,,,,,,,,,,,,,,,,,,,,,
,,,,,,,,,,,,,,,,,199879,18,2022-01-28_19h20.53.847,lexical_decision_task_DD_L3,2021.2.3,Win32,61.60670281,,,,,,,,,,,,0.5826,1,,,,,,,,,,,,,,z,1,0.5826,,,,,,,,0.042592593,-0.398148148,0,0,0,,0,7,7,137,1,JOOST,LB,old,z,./images/JOOSTLB.png,,,,,,,,,,,,,,,,,,,,,
,,,,,,,,,,,,,,,,,199879,18,2022-01-28_19h20.53.847,lexical_decision_task_DD_L3,2021.2.3,Win32,61.60670281,,,,,,,,,,,,0.5567,1,,,,,,,,,,,,,,m,1,0.5567,,,,,,,,0.042592593,-0.398148148,0,0,0,,0,8,8,7,1,PAINT,C,old,m,./images/PAINT.png,,,,,,,,,,,,,,,,,,,,,
,,,,,,,,,,,,,,,,,199879,18,2022-01-28_19h20.53.847,lexical_decision_task_DD_L3,2021.2.3,Win32,61.60670281,,,,,,,,,,,,1.3961,1,,,,,,,,,,,,,,z,1,1.3961,,,,,,,,0.042592593,-0.398148148,0,0,0,,0,9,9,163,1,GAMBA,HB,old,z,./images/GAMBAHB.png,,,,,,,,,,,,,,,,,,,,,
,,,,,,,,,,,,,,,,,199879,18,2022-01-28_19h20.53.847,lexical_decision_task_DD_L3,2021.2.3,Win32,61.60670281,,,,,,,,,,,,0.6937,1,,,,,,,,,,,,,,m,1,0.6937,,,,,,,,0.042592593,-0.398148148,0,0,0,,0,10,10,34,1,CANYON,C,old,m,./images/CANYON.png,,,,,,,,,,,,,,,,,,,,,
,,,,,,,,,,,,,,,,,199879,18,2022-01-28_19h20.53.847,lexical_decision_task_DD_L3,2021.2.3,Win32,61.60670281,,,,,,,,,,,,0.6411,1,,,,,,,,,,,,,,z,1,0.6411,,,,,,,,0.042592593,-0.398148148,0,0,0,,0,11,11,105,1,MOKER,C,old,z,./images/MOKER.png,,,,,,,,,,,,,,,,,,,,,
,,,,,,,,,,,,,,,,,199879,18,2022-01-28_19h20.53.847,lexical_decision_task_DD_L3,2021.2.3,Win32,61.60670281,,,,,,,,,,,,0.6885,1,,,,,,,,,,,,,,z,1,0.6885,,,,,,,,0.042592593,-0.398148148,0,0,0,,0,12,12,155,1,CANGY,LB,old,z,./images/CANGYLB.png,,,,,,,,,,,,,,,,,,,,,
,,,,,,,,,,,,,,,,,199879,18,2022-01-28_19h20.53.847,lexical_decision_task_DD_L3,2021.2.3,Win32,61.60670281,,,,,,,,,,,,1.0354,1,,,,,,,,,,,,,,z,1,1.0354,,,,,,,,0.042592593,-0.398148148,0,0,0,,0,13,13,153,1,CLUPS,C,old,z,./images/CLUPS.png,,,,,,,,,,,,,,,,,,,,,
,,,,,,,,,,,,,,,,,199879,18,2022-01-28_19h20.53.847,lexical_decision_task_DD_L3,2021.2.3,Win32,61.60670281,,,,,,,,,,,,1.5196,1,,,,,,,,,,,,,,z,1,1.5196,,,,,,,,0.042592593,-0.398148148,0,0,0,,0,14,14,151,1,TINKY,HB,old,z,./images/TINKYHB.png,,,,,,,,,,,,,,,,,,,,,
,,,,,,,,,,,,,,,,,199879,18,2022-01-28_19h20.53.847,lexical_decision_task_DD_L3,2021.2.3,Win32,61.60670281,,,,,,,,,,,,0.6789,1,,,,,,,,,,,,,,m,1,0.6789,,,,,,,,0.042592593,-0.398148148,0,0,0,,0,15,15,24,1,SCREW,LB,old,m,./images/SCREWLB.png,,,,,,,,,,,,,,,,,,,,,
,,,,,,,,,,,,,,,,,199879,18,2022-01-28_19h20.53.847,lexical_decision_task_DD_L3,2021.2.3,Win32,61.60670281,,,,,,,,,,,,0.877,1,,,,,,,,,,,,,,m,1,0.877,,,,,,,,0.042592593,-0.398148148,0,0,0,,0,16,16,37,1,BIRTH,C,old,m,./images/BIRTH.png,,,,,,,,,,,,,,,,,,,,,
,,,,,,,,,,,,,,,,,199879,18,2022-01-28_19h20.53.847,lexical_decision_task_DD_L3,2021.2.3,Win32,61.60670281,,,,,,,,,,,,1.0041,1,,,,,,,,,,,,,,m,1,1.0041,,,,,,,,0.042592593,-0.398148148,0,0,0,,0,17,17,8,1,TULIP,HB,old,m,./images/TULIPHB.png,,,,,,,,,,,,,,,,,,,,,
,,,,,,,,,,,,,,,,,199879,18,2022-01-28_19h20.53.847,lexical_decision_task_DD_L3,2021.2.3,Win32,61.60670281,,,,,,,,,,,,0.6986,1,,,,,,,,,,,,,,m,1,0.6986,,,,,,,,0.042592593,-0.398148148,0,0,0,,0,18,18,41,1,STRING,HB,old,m,./images/STRINGHB.png,,,,,,,,,,,,,,,,,,,,,
,,,,,,,,,,,,,,,,,199879,18,2022-01-28_19h20.53.847,lexical_decision_task_DD_L3,2021.2.3,Win32,61.60670281,,,,,,,,,,,,0.6707,1,,,,,,,,,,,,,,z,1,0.6707,,,,,,,,0.042592593,-0.398148148,0,0,0,,0,19,19,132,1,SCIFF,C,old,z,./images/SCIFF.png,,,,,,,,,,,,,,,,,,,,,
,,,,,,,,,,,,,,,,,199879,18,2022-01-28_19h20.53.847,lexical_decision_task_DD_L3,2021.2.3,Win32,61.60670281,,,,,,,,,,,,0.7512,1,,,,,,,,,,,,,,m,1,0.7512,,,,,,,,0.042592593,-0.398148148,0,0,0,,0,20,20,74,1,CEMENT,HB,old,m,./images/CEMENTHB.png,,,,,,,,,,,,,,,,,,,,,
,,,,,,,,,,,,,,,,,199879,18,2022-01-28_19h20.53.847,lexical_decision_task_DD_L3,2021.2.3,Win32,61.60670281,,,,,,,,,,,,1.0493,1,,,,,,,,,,,,,,m,1,1.0493,,,,,,,,0.042592593,-0.398148148,0,0,0,,0,21,21,43,1,MOSQUE,C,old,m,./images/MOSQUE.png,,,,,,,,,,,,,,,,,,,,,
,,,,,,,,,,,,,,,,,199879,18,2022-01-28_19h20.53.847,lexical_decision_task_DD_L3,2021.2.3,Win32,61.60670281,,,,,,,,,,,,1.021,1,,,,,,,,,,,,,,z,1,1.021,,,,,,,,0.042592593,-0.398148148,0,0,0,,0,22,22,114,1,RIKES,C,old,z,./images/RIKES.png,,,,,,,,,,,,,,,,,,,,,
,,,,,,,,,,,,,,,,,199879,18,2022-01-28_19h20.53.847,lexical_decision_task_DD_L3,2021.2.3,Win32,61.60670281,,,,,,,,,,,,0.5673,1,,,,,,,,,,,,,,m,1,0.5673,,,,,,,,0.042592593,-0.398148148,0,0,0,,0,23,23,57,1,MOOSE,LB,old,m,./images/MOOSELB.png,,,,,,,,,,,,,,,,,,,,,
,,,,,,,,,,,,,,,,,199879,18,2022-01-28_19h20.53.847,lexical_decision_task_DD_L3,2021.2.3,Win32,61.60670281,,,,,,,,,,,,1.2741,1,,,,,,,,,,,,,,z,1,1.2741,,,,,,,,0.042592593,-0.398148148,0,0,0,,0,24,24,157,1,INLER,HB,old,z,./images/INLERHB.png,,,,,,,,,,,,,,,,,,,,,
,,,,,,,,,,,,,,,,,199879,18,2022-01-28_19h20.53.847,lexical_decision_task_DD_L3,2021.2.3,Win32,61.60670281,,,,,,,,,,,,0.8911,1,,,,,,,,,,,,,,m,1,0.8911,,,,,,,,0.042592593,-0.398148148,0,0,0,,0,25,25,59,1,BURIAL,HB,old,m,./images/BURIALHB.png,,,,,,,,,,,,,,,,,,,,,
,,,,,,,,,,,,,,,,,199879,18,2022-01-28_19h20.53.847,lexical_decision_task_DD_L3,2021.2.3,Win32,61.60670281,,,,,,,,,,,,0.8847,1,,,,,,,,,,,,,,m,1,0.8847,,,,,,,,0.042592593,-0.398148148,0,0,0,,0,26,26,42,1,FOLDER,LB,old,m,./images/FOLDERLB.png,,,,,,,,,,,,,,,,,,,,,
,,,,,,,,,,,,,,,,,199879,18,2022-01-28_19h20.53.847,lexical_decision_task_DD_L3,2021.2.3,Win32,61.60670281,,,,,,,,,,,,0.9967,1,,,,,,,,,,,,,,m,1,0.9967,,,,,,,,0.042592593,-0.398148148,0,0,0,,0,27,27,75,1,GRAIN,LB,old,m,./images/GRAINLB.png,,,,,,,,,,,,,,,,,,,,,
,,,,,,,,,,,,,,,,,199879,18,2022-01-28_19h20.53.847,lexical_decision_task_DD_L3,2021.2.3,Win32,61.60670281,,,,,,,,,,,,0.9084,1,,,,,,,,,,,,,,m,1,0.9084,,,,,,,,0.042592593,-0.398148148,0,0,0,,0,28,28,80,1,WEASEL,HB,old,m,./images/WEASELHB.png,,,,,,,,,,,,,,,,,,,,,
,,,,,,,,,,,,,,,,,199879,18,2022-01-28_19h20.53.847,lexical_decision_task_DD_L3,2021.2.3,Win32,61.60670281,,,,,,,,,,,,0.9988,1,,,,,,,,,,,,,,z,1,0.9988,,,,,,,,0.042592593,-0.398148148,0,0,0,,0,29,29,165,1,TROWN,C,old,z,./images/TROWN.png,,,,,,,,,,,,,,,,,,,,,
,,,,,,,,,,,,,,,,,199879,18,2022-01-28_19h20.53.847,lexical_decision_task_DD_L3,2021.2.3,Win32,61.60670281,,,,,,,,,,,,0.6673,1,,,,,,,,,,,,,,m,1,0.6673,,,,,,,,0.042592593,-0.398148148,0,0,0,,0,30,30,73,1,SNACK,C,old,m,./images/SNACK.png,,,,,,,,,,,,,,,,,,,,,
,,,,,,,,,,,,,,,,,199879,18,2022-01-28_19h20.53.847,lexical_decision_task_DD_L3,2021.2.3,Win32,61.60670281,,,,,,,,,,,,1.9499,1,,,,,,,,,,,,,,z,1,1.9499,,,,,,,,0.042592593,-0.398148148,0,0,0,,0,31,31,130,1,CRILL,HB,old,z,./images/CRILLHB.png,,,,,,,,,,,,,,,,,,,,,
,,,,,,,,,,,,,,,,,199879,18,2022-01-28_19h20.53.847,lexical_decision_task_DD_L3,2021.2.3,Win32,61.60670281,,,,,,,,,,,,1.3694,0,,,,,,,,,,,,,,m,0,1.3694,,,,,,,,0.042592593,-0.398148148,0,0,0,,0,32,32,159,1,CUDDY,C,old,z,./images/CUDDY.png,,,,,,,,,,,,,,,,,,,,,
,,,,,,,,,,,,,,,,,199879,18,2022-01-28_19h20.53.847,lexical_decision_task_DD_L3,2021.2.3,Win32,61.60670281,,,,,,,,,,,,0.8582,1,,,,,,,,,,,,,,m,1,0.8582,,,,,,,,0.042592593,-0.398148148,0,0,0,,0,33,33,49,1,DRUMS,C,old,m,./images/DRUMS.png,,,,,,,,,,,,,,,,,,,,,
,,,,,,,,,,,,,,,,,199879,18,2022-01-28_19h20.53.847,lexical_decision_task_DD_L3,2021.2.3,Win32,61.60670281,,,,,,,,,,,,0.6258,1,,,,,,,,,,,,,,z,1,0.6258,,,,,,,,0.042592593,-0.398148148,0,0,0,,0,34,34,145,1,LAMEL,HB,old,z,./images/LAMELHB.png,,,,,,,,,,,,,,,,,,,,,
,,,,,,,,,,,,,,,,,199879,18,2022-01-28_19h20.53.847,lexical_decision_task_DD_L3,2021.2.3,Win32,61.60670281,,,,,,,,,,,,2.2544,1,,,,,,,,,,,,,,z,1,2.2544,,,,,,,,0.042592593,-0.398148148,0,0,0,,0,35,35,97,1,CHIDS,HB,old,z,./images/CHIDSHB.png,,,,,,,,,,,,,,,,,,,,,
,,,,,,,,,,,,,,,,,199879,18,2022-01-28_19h20.53.847,lexical_decision_task_DD_L3,2021.2.3,Win32,61.60670281,,,,,,,,,,,,0.5361,1,,,,,,,,,,,,,,m,1,0.5361,,,,,,,,0.042592593,-0.398148148,0,0,0,,0,36,36,40,1,SWING,C,old,m,./images/SWING.png,,,,,,,,,,,,,,,,,,,,,
,,,,,,,,,,,,,,,,,199879,18,2022-01-28_19h20.53.847,lexical_decision_task_DD_L3,2021.2.3,Win32,61.60670281,,,,,,,,,,,,0.9247,1,,,,,,,,,,,,,,z,1,0.9247,,,,,,,,0.042592593,-0.398148148,0,0,0,,0,37,37,106,1,CLUMS,HB,old,z,./images/CLUMSHB.png,,,,,,,,,,,,,,,,,,,,,
,,,,,,,,,,,,,,,,,199879,18,2022-01-28_19h20.53.847,lexical_decision_task_DD_L3,2021.2.3,Win32,61.60670281,,,,,,,,,,,,0.6326,1,,,,,,,,,,,,,,m,1,0.6326,,,,,,,,0.042592593,-0.398148148,0,0,0,,0,38,38,36,1,THROAT,LB,old,m,./images/THROATLB.png,,,,,,,,,,,,,,,,,,,,,
,,,,,,,,,,,,,,,,,199879,18,2022-01-28_19h20.53.847,lexical_decision_task_DD_L3,2021.2.3,Win32,61.60670281,,,,,,,,,,,,0.8414,1,,,,,,,,,,,,,,m,1,0.8414,,,,,,,,0.042592593,-0.398148148,0,0,0,,0,39,39,71,1,PIMPLE,HB,old,m,./images/PIMPLEHB.png,,,,,,,,,,,,,,,,,,,,,
,,,,,,,,,,,,,,,,,199879,18,2022-01-28_19h20.53.847,lexical_decision_task_DD_L3,2021.2.3,Win32,61.60670281,,,,,,,,,,,,0.8833,1,,,,,,,,,,,,,,m,1,0.8833,,,,,,,,0.042592593,-0.398148148,0,0,0,,0,40,40,77,1,COUCH,HB,old,m,./images/COUCHHB.png,,,,,,,,,,,,,,,,,,,,,
,,,,,,,,,,,,,,,,,199879,18,2022-01-28_19h20.53.847,lexical_decision_task_DD_L3,2021.2.3,Win32,61.60670281,,,,,,,,,,,,0.7822,1,,,,,,,,,,,,,,m,1,0.7822,,,,,,,,0.042592593,-0.398148148,1,0,0,,0,41,41,68,1,TORCH,HB,old,m,./images/TORCHHB.png,break_done_button,,,,,,,,,,,,,,,,,,,,
,,,,,,,,,,,,,,,,,199879,18,2022-01-28_19h20.53.847,lexical_decision_task_DD_L3,2021.2.3,Win32,61.60670281,,,,,,,,,,,,1.5719,1,,,,,,,,,,,,,,m,1,1.5719,,,,,,,,0.042592593,-0.398148148,0,0,0,,0,42,42,38,1,LADDER,HB,old,m,./images/LADDERHB.png,,,,,,,,,,,,,,,,,,,,,
,,,,,,,,,,,,,,,,,199879,18,2022-01-28_19h20.53.847,lexical_decision_task_DD_L3,2021.2.3,Win32,61.60670281,,,,,,,,,,,,0.5228,1,,,,,,,,,,,,,,m,1,0.5228,,,,,,,,0.042592593,-0.398148148,0,0,0,,0,43,43,3,1,FINGER,LB,old,m,./images/FINGERLB.png,,,,,,,,,,,,,,,,,,,,,
,,,,,,,,,,,,,,,,,199879,18,2022-01-28_19h20.53.847,lexical_decision_task_DD_L3,2021.2.3,Win32,61.60670281,,,,,,,,,,,,0.6485,1,,,,,,,,,,,,,,m,1,0.6485,,,,,,,,0.042592593,-0.398148148,0,0,0,,0,44,44,28,1,FALCON,C,old,m,./images/FALCON.png,,,,,,,,,,,,,,,,,,,,,
,,,,,,,,,,,,,,,,,199879,18,2022-01-28_19h20.53.847,lexical_decision_task_DD_L3,2021.2.3,Win32,61.60670281,,,,,,,,,,,,0.8289,1,,,,,,,,,,,,,,m,1,0.8289,,,,,,,,0.042592593,-0.398148148,0,0,0,,0,45,45,53,1,CARPET,HB,old,m,./images/CARPETHB.png,,,,,,,,,,,,,,,,,,,,,
,,,,,,,,,,,,,,,,,199879,18,2022-01-28_19h20.53.847,lexical_decision_task_DD_L3,2021.2.3,Win32,61.60670281,,,,,,,,,,,,1.202,1,,,,,,,,,,,,,,z,1,1.202,,,,,,,,0.042592593,-0.398148148,0,0,0,,0,46,46,112,1,MYING,HB,old,z,./images/MYINGHB.png,,,,,,,,,,,,,,,,,,,,,
,,,,,,,,,,,,,,,,,199879,18,2022-01-28_19h20.53.847,lexical_decision_task_DD_L3,2021.2.3,Win32,61.60670281,,,,,,,,,,,,0.8181,1,,,,,,,,,,,,,,z,1,0.8181,,,,,,,,0.042592593,-0.398148148,0,0,0,,0,47,47,129,1,PRANS,C,old,z,./images/PRANS.png,,,,,,,,,,,,,,,,,,,,,
,,,,,,,,,,,,,,,,,199879,18,2022-01-28_19h20.53.847,lexical_decision_task_DD_L3,2021.2.3,Win32,61.60670281,,,,,,,,,,,,1.4115,1,,,,,,,,,,,,,,z,1,1.4115,,,,,,,,0.042592593,-0.398148148,0,0,0,,0,48,48,124,1,TUNCH,HB,old,z,./images/TUNCHHB.png,,,,,,,,,,,,,,,,,,,,,
,,,,,,,,,,,,,,,,,199879,18,2022-01-28_19h20.53.847,lexical_decision_task_DD_L3,2021.2.3,Win32,61.60670281,,,,,,,,,,,,1.308,1,,,,,,,,,,,,,,z,1,1.308,,,,,,,,0.042592593,-0.398148148,0,0,0,,0,49,49,94,1,BLANS,HB,old,z,./images/BLANSHB.png,,,,,,,,,,,,,,,,,,,,,
,,,,,,,,,,,,,,,,,199879,18,2022-01-28_19h20.53.847,lexical_decision_task_DD_L3,2021.2.3,Win32,61.60670281,,,,,,,,,,,,0.6832,1,,,,,,,,,,,,,,z,1,0.6832,,,,,,,,0.042592593,-0.398148148,0,0,0,,0,50,50,86,1,AIFED,LB,old,z,./images/AIFEDLB.png,,,,,,,,,,,,,,,,,,,,,
,,,,,,,,,,,,,,,,,199879,18,2022-01-28_19h20.53.847,lexical_decision_task_DD_L3,2021.2.3,Win32,61.60670281,,,,,,,,,,,,0.5529,1,,,,,,,,,,,,,,m,1,0.5529,,,,,,,,0.042592593,-0.398148148,0,0,0,,0,51,51,67,1,SAILOR,C,old,m,./images/SAILOR.png,,,,,,,,,,,,,,,,,,,,,
,,,,,,,,,,,,,,,,,199879,18,2022-01-28_19h20.53.847,lexical_decision_task_DD_L3,2021.2.3,Win32,61.60670281,,,,,,,,,,,,0.62,1,,,,,,,,,,,,,,m,1,0.62,,,,,,,,0.042592593,-0.398148148,0,0,0,,0,52,52,76,1,INFANT,C,old,m,./images/INFANT.png,,,,,,,,,,,,,,,,,,,,,
,,,,,,,,,,,,,,,,,199879,18,2022-01-28_19h20.53.847,lexical_decision_task_DD_L3,2021.2.3,Win32,61.60670281,,,,,,,,,,,,0.8327,1,,,,,,,,,,,,,,m,1,0.8327,,,,,,,,0.042592593,-0.398148148,0,0,0,,0,53,53,11,1,BONNET,HB,old,m,./images/BONNETHB.png,,,,,,,,,,,,,,,,,,,,,
,,,,,,,,,,,,,,,,,199879,18,2022-01-28_19h20.53.847,lexical_decision_task_DD_L3,2021.2.3,Win32,61.60670281,,,,,,,,,,,,0.6806,1,,,,,,,,,,,,,,z,1,0.6806,,,,,,,,0.042592593,-0.398148148,0,0,0,,0,54,54,93,1,SMONE,C,old,z,./images/SMONE.png,,,,,,,,,,,,,,,,,,,,,
,,,,,,,,,,,,,,,,,199879,18,2022-01-28_19h20.53.847,lexical_decision_task_DD_L3,2021.2.3,Win32,61.60670281,,,,,,,,,,,,0.5403,1,,,,,,,,,,,,,,m,1,0.5403,,,,,,,,0.042592593,-0.398148148,0,0,0,,0,55,55,31,1,QUILL,C,old,m,./images/QUILL.png,,,,,,,,,,,,,,,,,,,,,
,,,,,,,,,,,,,,,,,199879,18,2022-01-28_19h20.53.847,lexical_decision_task_DD_L3,2021.2.3,Win32,61.60670281,,,,,,,,,,,,1.0317,1,,,,,,,,,,,,,,m,1,1.0317,,,,,,,,0.042592593,-0.398148148,0,0,0,,0,56,56,12,1,SHORE,LB,old,m,./images/SHORELB.png,,,,,,,,,,,,,,,,,,,,,
,,,,,,,,,,,,,,,,,199879,18,2022-01-28_19h20.53.847,lexical_decision_task_DD_L3,2021.2.3,Win32,61.60670281,,,,,,,,,,,,0.5551,1,,,,,,,,,,,,,,z,1,0.5551,,,,,,,,0.042592593,-0.398148148,0,0,0,,0,57,57,120,1,RINED,C,old,z,./images/RINED.png,,,,,,,,,,,,,,,,,,,,,
,,,,,,,,,,,,,,,,,199879,18,2022-01-28_19h20.53.847,lexical_decision_task_DD_L3,2021.2.3,Win32,61.60670281,,,,,,,,,,,,0.6369,1,,,,,,,,,,,,,,m,1,0.6369,,,,,,,,0.042592593,-0.398148148,0,0,0,,0,58,58,46,1,PEARL,C,old,m,./images/PEARL.png,,,,,,,,,,,,,,,,,,,,,
,,,,,,,,,,,,,,,,,199879,18,2022-01-28_19h20.53.847,lexical_decision_task_DD_L3,2021.2.3,Win32,61.60670281,,,,,,,,,,,,1.1257,1,,,,,,,,,,,,,,m,1,1.1257,,,,,,,,0.042592593,-0.398148148,0,0,0,,0,59,59,50,1,MALLET,HB,old,m,./images/MALLETHB.png,,,,,,,,,,,,,,,,,,,,,
,,,,,,,,,,,,,,,,,199879,18,2022-01-28_19h20.53.847,lexical_decision_task_DD_L3,2021.2.3,Win32,61.60670281,,,,,,,,,,,,0.603,1,,,,,,,,,,,,,,z,1,0.603,,,,,,,,0.042592593,-0.398148148,0,0,0,,0,60,60,126,1,GUELS,C,old,z,./images/GUELS.png,,,,,,,,,,,,,,,,,,,,,
,,,,,,,,,,,,,,,,,199879,18,2022-01-28_19h20.53.847,lexical_decision_task_DD_L3,2021.2.3,Win32,61.60670281,,,,,,,,,,,,1.2469,1,,,,,,,,,,,,,,m,1,1.2469,,,,,,,,0.042592593,-0.398148148,0,0,0,,0,61,61,65,1,FARMER,HB,old,m,./images/FARMERHB.png,,,,,,,,,,,,,,,,,,,,,
,,,,,,,,,,,,,,,,,199879,18,2022-01-28_19h20.53.847,lexical_decision_task_DD_L3,2021.2.3,Win32,61.60670281,,,,,,,,,,,,0.4902,1,,,,,,,,,,,,,,m,1,0.4902,,,,,,,,0.042592593,-0.398148148,0,0,0,,0,62,62,48,1,SPORT,LB,old,m,./images/SPORTLB.png,,,,,,,,,,,,,,,,,,,,,
,,,,,,,,,,,,,,,,,199879,18,2022-01-28_19h20.53.847,lexical_decision_task_DD_L3,2021.2.3,Win32,61.60670281,,,,,,,,,,,,0.4286,0,,,,,,,,,,,,,,m,0,0.4286,,,,,,,,0.042592593,-0.398148148,0,0,0,,0,63,63,87,1,TRING,C,old,z,./images/TRING.png,,,,,,,,,,,,,,,,,,,,,
,,,,,,,,,,,,,,,,,199879,18,2022-01-28_19h20.53.847,lexical_decision_task_DD_L3,2021.2.3,Win32,61.60670281,,,,,,,,,,,,0.7322,1,,,,,,,,,,,,,,z,1,0.7322,,,,,,,,0.042592593,-0.398148148,0,0,0,,0,64,64,113,1,LINEW,LB,old,z,./images/LINEWLB.png,,,,,,,,,,,,,,,,,,,,,
,,,,,,,,,,,,,,,,,199879,18,2022-01-28_19h20.53.847,lexical_decision_task_DD_L3,2021.2.3,Win32,61.60670281,,,,,,,,,,,,0.784,1,,,,,,,,,,,,,,m,1,0.784,,,,,,,,0.042592593,-0.398148148,0,0,0,,0,65,65,82,1,SUNSET,C,old,m,./images/SUNSET.png,,,,,,,,,,,,,,,,,,,,,
,,,,,,,,,,,,,,,,,199879,18,2022-01-28_19h20.53.847,lexical_decision_task_DD_L3,2021.2.3,Win32,61.60670281,,,,,,,,,,,,0.6477,1,,,,,,,,,,,,,,m,1,0.6477,,,,,,,,0.042592593,-0.398148148,0,0,0,,0,66,66,30,1,STORM,LB,old,m,./images/STORMLB.png,,,,,,,,,,,,,,,,,,,,,
,,,,,,,,,,,,,,,,,199879,18,2022-01-28_19h20.53.847,lexical_decision_task_DD_L3,2021.2.3,Win32,61.60670281,,,,,,,,,,,,0.68,1,,,,,,,,,,,,,,m,1,0.68,,,,,,,,0.042592593,-0.398148148,0,0,0,,0,67,67,35,1,PEACH,HB,old,m,./images/PEACHHB.png,,,,,,,,,,,,,,,,,,,,,
,,,,,,,,,,,,,,,,,199879,18,2022-01-28_19h20.53.847,lexical_decision_task_DD_L3,2021.2.3,Win32,61.60670281,,,,,,,,,,,,0.6028,1,,,,,,,,,,,,,,z,1,0.6028,,,,,,,,0.042592593,-0.398148148,0,0,0,,0,68,68,128,1,GRIFT,LB,old,z,./images/GRIFTLB.png,,,,,,,,,,,,,,,,,,,,,
,,,,,,,,,,,,,,,,,199879,18,2022-01-28_19h20.53.847,lexical_decision_task_DD_L3,2021.2.3,Win32,61.60670281,,,,,,,,,,,,0.8007,1,,,,,,,,,,,,,,z,1,0.8007,,,,,,,,0.042592593,-0.398148148,0,0,0,,0,69,69,146,1,MOOST,LB,old,z,./images/MOOSTLB.png,,,,,,,,,,,,,,,,,,,,,
,,,,,,,,,,,,,,,,,199879,18,2022-01-28_19h20.53.847,lexical_decision_task_DD_L3,2021.2.3,Win32,61.60670281,,,,,,,,,,,,0.5691,0,,,,,,,,,,,,,,z,0,0.5691,,,,,,,,0.042592593,-0.398148148,0,0,0,,0,70,70,27,1,ATTIC,LB,old,m,./images/ATTICLB.png,,,,,,,,,,,,,,,,,,,,,
,,,,,,,,,,,,,,,,,199879,18,2022-01-28_19h20.53.847,lexical_decision_task_DD_L3,2021.2.3,Win32,61.60670281,,,,,,,,,,,,0.6331,1,,,,,,,,,,,,,,z,1,0.6331,,,,,,,,0.042592593,-0.398148148,0,0,0,,0,71,71,111,1,HOSSE,C,old,z,./images/HOSSE.png,,,,,,,,,,,,,,,,,,,,,
,,,,,,,,,,,,,,,,,199879,18,2022-01-28_19h20.53.847,lexical_decision_task_DD_L3,2021.2.3,Win32,61.60670281,,,,,,,,,,,,0.5956,1,,,,,,,,,,,,,,m,1,0.5956,,,,,,,,0.042592593,-0.398148148,0,0,0,,0,72,72,33,1,MAGGOT,LB,old,m,./images/MAGGOTLB.png,,,,,,,,,,,,,,,,,,,,,
,,,,,,,,,,,,,,,,,199879,18,2022-01-28_19h20.53.847,lexical_decision_task_DD_L3,2021.2.3,Win32,61.60670281,,,,,,,,,,,,1.3282,1,,,,,,,,,,,,,,z,1,1.3282,,,,,,,,0.042592593,-0.398148148,0,0,0,,0,73,73,154,1,THINT,HB,old,z,./images/THINTHB.png,,,,,,,,,,,,,,,,,,,,,
,,,,,,,,,,,,,,,,,199879,18,2022-01-28_19h20.53.847,lexical_decision_task_DD_L3,2021.2.3,Win32,61.60670281,,,,,,,,,,,,0.8943,1,,,,,,,,,,,,,,z,1,0.8943,,,,,,,,0.042592593,-0.398148148,0,0,0,,0,74,74,108,1,GRUET,C,old,z,./images/GRUET.png,,,,,,,,,,,,,,,,,,,,,
,,,,,,,,,,,,,,,,,199879,18,2022-01-28_19h20.53.847,lexical_decision_task_DD_L3,2021.2.3,Win32,61.60670281,,,,,,,,,,,,0.8812,1,,,,,,,,,,,,,,z,1,0.8812,,,,,,,,0.042592593,-0.398148148,0,0,0,,0,75,75,90,1,NEAST,C,old,z,./images/NEAST.png,,,,,,,,,,,,,,,,,,,,,
,,,,,,,,,,,,,,,,,199879,18,2022-01-28_19h20.53.847,lexical_decision_task_DD_L3,2021.2.3,Win32,61.60670281,,,,,,,,,,,,0.6814,1,,,,,,,,,,,,,,z,1,0.6814,,,,,,,,0.042592593,-0.398148148,0,0,0,,0,76,76,141,1,PLEET,C,old,z,./images/PLEET.png,,,,,,,,,,,,,,,,,,,,,
,,,,,,,,,,,,,,,,,199879,18,2022-01-28_19h20.53.847,lexical_decision_task_DD_L3,2021.2.3,Win32,61.60670281,,,,,,,,,,,,0.714,1,,,,,,,,,,,,,,z,1,0.714,,,,,,,,0.042592593,-0.398148148,0,0,0,,0,77,77,96,1,KEAMS,C,old,z,./images/KEAMS.png,,,,,,,,,,,,,,,,,,,,,
,,,,,,,,,,,,,,,,,199879,18,2022-01-28_19h20.53.847,lexical_decision_task_DD_L3,2021.2.3,Win32,61.60670281,,,,,,,,,,,,2.0286,1,,,,,,,,,,,,,,z,1,2.0286,,,,,,,,0.042592593,-0.398148148,0,0,0,,0,78,78,121,1,CEERS,HB,old,z,./images/CEERSHB.png,,,,,,,,,,,,,,,,,,,,,
,,,,,,,,,,,,,,,,,199879,18,2022-01-28_19h20.53.847,lexical_decision_task_DD_L3,2021.2.3,Win32,61.60670281,,,,,,,,,,,,0.5119,1,,,,,,,,,,,,,,m,1,0.5119,,,,,,,,0.042592593,-0.398148148,0,0,0,,0,79,79,61,1,CANDLE,C,old,m,./images/CANDLE.png,,,,,,,,,,,,,,,,,,,,,
,,,,,,,,,,,,,,,,,199879,18,2022-01-28_19h20.53.847,lexical_decision_task_DD_L3,2021.2.3,Win32,61.60670281,,,,,,,,,,,,1.4496,0,,,,,,,,,,,,,,m,0,1.4496,,,,,,,,0.042592593,-0.398148148,0,0,0,,0,80,80,140,1,DOVET,LB,old,z,./images/DOVETLB.png,,,,,,,,,,,,,,,,,,,,,
,,,,,,,,,,,,,,,,,199879,18,2022-01-28_19h20.53.847,lexical_decision_task_DD_L3,2021.2.3,Win32,61.60670281,,,,,,,,,,,,0.9934,1,,,,,,,,,,,,,,m,1,0.9934,,,,,,,,0.042592593,-0.398148148,0,0,0,,0,81,81,16,1,PENCE,C,old,m,./images/PENCE.png,,,,,,,,,,,,,,,,,,,,,
,,,,,,,,,,,,,,,,,199879,18,2022-01-28_19h20.53.847,lexical_decision_task_DD_L3,2021.2.3,Win32,61.60670281,,,,,,,,,,,,0.6316,1,,,,,,,,,,,,,,m,1,0.6316,,,,,,,,0.042592593,-0.398148148,0,0,0,,0,82,82,83,1,JUNGLE,HB,old,m,./images/JUNGLEHB.png,,,,,,,,,,,,,,,,,,,,,
,,,,,,,,,,,,,,,,,199879,18,2022-01-28_19h20.53.847,lexical_decision_task_DD_L3,2021.2.3,Win32,61.60670281,,,,,,,,,,,,0.6621,1,,,,,,,,,,,,,,m,1,0.6621,,,,,,,,0.025925926,-0.410185185,1,0,0,,0,83,83,2,1,BEARD,HB,old,m,./images/BEARDHB.png,break_done_button,,,,,,,,,,,,,,,,,,,,
,,,,,,,,,,,,,,,,,199879,18,2022-01-28_19h20.53.847,lexical_decision_task_DD_L3,2021.2.3,Win32,61.60670281,,,,,,,,,,,,0.7209,1,,,,,,,,,,,,,,z,1,0.7209,,,,,,,,0.025925926,-0.410185185,0,0,0,,0,84,84,134,1,TROSS,LB,old,z,./images/TROSSLB.png,,,,,,,,,,,,,,,,,,,,,
,,,,,,,,,,,,,,,,,199879,18,2022-01-28_19h20.53.847,lexical_decision_task_DD_L3,2021.2.3,Win32,61.60670281,,,,,,,,,,,,0.6127,1,,,,,,,,,,,,,,z,1,0.6127,,,,,,,,0.025925926,-0.410185185,0,0,0,,0,85,85,122,1,BLOOT,LB,old,z,./images/BLOOTLB.png,,,,,,,,,,,,,,,,,,,,,
,,,,,,,,,,,,,,,,,199879,18,2022-01-28_19h20.53.847,lexical_decision_task_DD_L3,2021.2.3,Win32,61.60670281,,,,,,,,,,,,0.8183,1,,,,,,,,,,,,,,z,1,0.8183,,,,,,,,0.025925926,-0.410185185,0,0,0,,0,86,86,88,1,GLUSH,HB,old,z,./images/GLUSHHB.png,,,,,,,,,,,,,,,,,,,,,
,,,,,,,,,,,,,,,,,199879,18,2022-01-28_19h20.53.847,lexical_decision_task_DD_L3,2021.2.3,Win32,61.60670281,,,,,,,,,,,,0.5462,1,,,,,,,,,,,,,,m,1,0.5462,,,,,,,,0.025925926,-0.410185185,0,0,0,,0,87,87,45,1,KITTEN,LB,old,m,./images/KITTENLB.png,,,,,,,,,,,,,,,,,,,,,
,,,,,,,,,,,,,,,,,199879,18,2022-01-28_19h20.53.847,lexical_decision_task_DD_L3,2021.2.3,Win32,61.60670281,,,,,,,,,,,,0.561,1,,,,,,,,,,,,,,z,1,0.561,,,,,,,,0.025925926,-0.410185185,0,0,0,,0,88,88,138,1,PLICE,C,old,z,./images/PLICE.png,,,,,,,,,,,,,,,,,,,,,
,,,,,,,,,,,,,,,,,199879,18,2022-01-28_19h20.53.847,lexical_decision_task_DD_L3,2021.2.3,Win32,61.60670281,,,,,,,,,,,,0.6615,1,,,,,,,,,,,,,,m,1,0.6615,,,,,,,,0.025925926,-0.410185185,0,0,0,,0,89,89,64,1,JELLY,C,old,m,./images/JELLY.png,,,,,,,,,,,,,,,,,,,,,
,,,,,,,,,,,,,,,,,199879,18,2022-01-28_19h20.53.847,lexical_decision_task_DD_L3,2021.2.3,Win32,61.60670281,,,,,,,,,,,,0.579,1,,,,,,,,,,,,,,z,1,0.579,,,,,,,,0.025925926,-0.410185185,0,0,0,,0,90,90,149,1,VEASE,LB,old,z,./images/VEASELB.png,,,,,,,,,,,,,,,,,,,,,
,,,,,,,,,,,,,,,,,199879,18,2022-01-28_19h20.53.847,lexical_decision_task_DD_L3,2021.2.3,Win32,61.60670281,,,,,,,,,,,,0.6532,1,,,,,,,,,,,,,,z,1,0.6532,,,,,,,,0.025925926,-0.410185185,0,0,0,,0,91,91,102,1,DULLE,C,old,z,./images/DULLE.png,,,,,,,,,,,,,,,,,,,,,
,,,,,,,,,,,,,,,,,199879,18,2022-01-28_19h20.53.847,lexical_decision_task_DD_L3,2021.2.3,Win32,61.60670281,,,,,,,,,,,,0.5811,1,,,,,,,,,,,,,,z,1,0.5811,,,,,,,,0.025925926,-0.410185185,0,0,0,,0,92,92,95,1,HANTY,LB,old,z,./images/HANTYLB.png,,,,,,,,,,,,,,,,,,,,,
,,,,,,,,,,,,,,,,,199879,18,2022-01-28_19h20.53.847,lexical_decision_task_DD_L3,2021.2.3,Win32,61.60670281,,,,,,,,,,,,0.541,1,,,,,,,,,,,,,,m,1,0.541,,,,,,,,0.025925926,-0.410185185,0,0,0,,0,93,93,66,1,SWEAT,LB,old,m,./images/SWEATLB.png,,,,,,,,,,,,,,,,,,,,,
,,,,,,,,,,,,,,,,,199879,18,2022-01-28_19h20.53.847,lexical_decision_task_DD_L3,2021.2.3,Win32,61.60670281,,,,,,,,,,,,0.6616,0,,,,,,,,,,,,,,m,0,0.6616,,,,,,,,0.025925926,-0.410185185,0,0,0,,0,94,94,110,1,CRUNK,LB,old,z,./images/CRUNKLB.png,,,,,,,,,,,,,,,,,,,,,
,,,,,,,,,,,,,,,,,199879,18,2022-01-28_19h20.53.847,lexical_decision_task_DD_L3,2021.2.3,Win32,61.60670281,,,,,,,,,,,,0.7042,1,,,,,,,,,,,,,,m,1,0.7042,,,,,,,,0.025925926,-0.410185185,0,0,0,,0,95,95,29,1,CRUMB,HB,old,m,./images/CRUMBHB.png,,,,,,,,,,,,,,,,,,,,,
,,,,,,,,,,,,,,,,,199879,18,2022-01-28_19h20.53.847,lexical_decision_task_DD_L3,2021.2.3,Win32,61.60670281,,,,,,,,,,,,0.8166,1,,,,,,,,,,,,,,m,1,0.8166,,,,,,,,0.025925926,-0.410185185,0,0,0,,0,96,96,81,1,POODLE,LB,old,m,./images/POODLELB.png,,,,,,,,,,,,,,,,,,,,,
,,,,,,,,,,,,,,,,,199879,18,2022-01-28_19h20.53.847,lexical_decision_task_DD_L3,2021.2.3,Win32,61.60670281,,,,,,,,,,,,0.7549,1,,,,,,,,,,,,,,z,1,0.7549,,,,,,,,0.025925926,-0.410185185,0,0,0,,0,97,97,107,1,FASKS,LB,old,z,./images/FASKSLB.png,,,,,,,,,,,,,,,,,,,,,
,,,,,,,,,,,,,,,,,199879,18,2022-01-28_19h20.53.847,lexical_decision_task_DD_L3,2021.2.3,Win32,61.60670281,,,,,,,,,,,,0.6677,1,,,,,,,,,,,,,,z,1,0.6677,,,,,,,,0.025925926,-0.410185185,0,0,0,,0,98,98,98,1,BAMPS,LB,old,z,./images/BAMPSLB.png,,,,,,,,,,,,,,,,,,,,,
,,,,,,,,,,,,,,,,,199879,18,2022-01-28_19h20.53.847,lexical_decision_task_DD_L3,2021.2.3,Win32,61.60670281,,,,,,,,,,,,0.452,1,,,,,,,,,,,,,,m,1,0.452,,,,,,,,0.025925926,-0.410185185,0,0,0,,0,99,99,55,1,MUFFIN,C,old,m,./images/MUFFIN.png,,,,,,,,,,,,,,,,,,,,,
,,,,,,,,,,,,,,,,,199879,18,2022-01-28_19h20.53.847,lexical_decision_task_DD_L3,2021.2.3,Win32,61.60670281,,,,,,,,,,,,0.6453,1,,,,,,,,,,,,,,z,1,0.6453,,,,,,,,0.025925926,-0.410185185,0,0,0,,0,100,100,152,1,FRAIN,LB,old,z,./images/FRAINLB.png,,,,,,,,,,,,,,,,,,,,,
,,,,,,,,,,,,,,,,,199879,18,2022-01-28_19h20.53.847,lexical_decision_task_DD_L3,2021.2.3,Win32,61.60670281,,,,,,,,,,,,0.6229,1,,,,,,,,,,,,,,z,1,0.6229,,,,,,,,0.025925926,-0.410185185,0,0,0,,0,101,101,164,1,SGREW,LB,old,z,./images/SGREWLB.png,,,,,,,,,,,,,,,,,,,,,
,,,,,,,,,,,,,,,,,199879,18,2022-01-28_19h20.53.847,lexical_decision_task_DD_L3,2021.2.3,Win32,61.60670281,,,,,,,,,,,,0.7396,1,,,,,,,,,,,,,,m,1,0.7396,,,,,,,,0.025925926,-0.410185185,0,0,0,,0,102,102,69,1,COOKER,LB,old,m,./images/COOKERLB.png,,,,,,,,,,,,,,,,,,,,,
,,,,,,,,,,,,,,,,,199879,18,2022-01-28_19h20.53.847,lexical_decision_task_DD_L3,2021.2.3,Win32,61.60670281,,,,,,,,,,,,0.6789,1,,,,,,,,,,,,,,m,1,0.6789,,,,,,,,0.025925926,-0.410185185,0,0,0,,0,103,103,1,1,PLANK,C,old,m,./images/PLANK.png,,,,,,,,,,,,,,,,,,,,,
,,,,,,,,,,,,,,,,,199879,18,2022-01-28_19h20.53.847,lexical_decision_task_DD_L3,2021.2.3,Win32,61.60670281,,,,,,,,,,,,0.9915,1,,,,,,,,,,,,,,z,1,0.9915,,,,,,,,0.025925926,-0.410185185,0,0,0,,0,104,104,91,1,SHENS,HB,old,z,./images/SHENSHB.png,,,,,,,,,,,,,,,,,,,,,
,,,,,,,,,,,,,,,,,199879,18,2022-01-28_19h20.53.847,lexical_decision_task_DD_L3,2021.2.3,Win32,61.60670281,,,,,,,,,,,,0.6693,1,,,,,,,,,,,,,,m,1,0.6693,,,,,,,,0.025925926,-0.410185185,0,0,0,,0,105,105,44,1,LIZARD,HB,old,m,./images/LIZARDHB.png,,,,,,,,,,,,,,,,,,,,,
,,,,,,,,,,,,,,,,,199879,18,2022-01-28_19h20.53.847,lexical_decision_task_DD_L3,2021.2.3,Win32,61.60670281,,,,,,,,,,,,0.8707,1,,,,,,,,,,,,,,z,1,0.8707,,,,,,,,0.025925926,-0.410185185,0,0,0,,0,106,106,158,1,EGECT,LB,old,z,./images/EGECTLB.png,,,,,,,,,,,,,,,,,,,,,
,,,,,,,,,,,,,,,,,199879,18,2022-01-28_19h20.53.847,lexical_decision_task_DD_L3,2021.2.3,Win32,61.60670281,,,,,,,,,,,,0.5884,1,,,,,,,,,,,,,,m,1,0.5884,,,,,,,,0.025925926,-0.410185185,0,0,0,,0,107,107,0,1,TOMATO,LB,old,m,./images/TOMATOLB.png,,,,,,,,,,,,,,,,,,,,,
,,,,,,,,,,,,,,,,,199879,18,2022-01-28_19h20.53.847,lexical_decision_task_DD_L3,2021.2.3,Win32,61.60670281,,,,,,,,,,,,0.6485,1,,,,,,,,,,,,,,z,1,0.6485,,,,,,,,0.025925926,-0.410185185,0,0,0,,0,108,108,92,1,PAIMS,LB,old,z,./images/PAIMSLB.png,,,,,,,,,,,,,,,,,,,,,
,,,,,,,,,,,,,,,,,199879,18,2022-01-28_19h20.53.847,lexical_decision_task_DD_L3,2021.2.3,Win32,61.60670281,,,,,,,,,,,,0.7287,1,,,,,,,,,,,,,,z,1,0.7287,,,,,,,,0.025925926,-0.410185185,0,0,0,,0,109,109,143,1,MONGS,LB,old,z,./images/MONGSLB.png,,,,,,,,,,,,,,,,,,,,,
,,,,,,,,,,,,,,,,,199879,18,2022-01-28_19h20.53.847,lexical_decision_task_DD_L3,2021.2.3,Win32,61.60670281,,,,,,,,,,,,0.763,0,,,,,,,,,,,,,,z,0,0.763,,,,,,,,0.025925926,-0.410185185,0,0,0,,0,110,110,20,1,CRADLE,HB,old,m,./images/CRADLEHB.png,,,,,,,,,,,,,,,,,,,,,
,,,,,,,,,,,,,,,,,199879,18,2022-01-28_19h20.53.847,lexical_decision_task_DD_L3,2021.2.3,Win32,61.60670281,,,,,,,,,,,,0.9659,1,,,,,,,,,,,,,,m,1,0.9659,,,,,,,,0.025925926,-0.410185185,0,0,0,,0,111,111,23,1,WALRUS,HB,old,m,./images/WALRUSHB.png,,,,,,,,,,,,,,,,,,,,,
,,,,,,,,,,,,,,,,,199879,18,2022-01-28_19h20.53.847,lexical_decision_task_DD_L3,2021.2.3,Win32,61.60670281,,,,,,,,,,,,0.574,1,,,,,,,,,,,,,,z,1,0.574,,,,,,,,0.025925926,-0.410185185,0,0,0,,0,112,112,89,1,DRIEK,LB,old,z,./images/DRIEKLB.png,,,,,,,,,,,,,,,,,,,,,
,,,,,,,,,,,,,,,,,199879,18,2022-01-28_19h20.53.847,lexical_decision_task_DD_L3,2021.2.3,Win32,61.60670281,,,,,,,,,,,,0.6896,1,,,,,,,,,,,,,,z,1,0.6896,,,,,,,,0.025925926,-0.410185185,0,0,0,,0,113,113,139,1,BLEAR,HB,old,z,./images/BLEARHB.png,,,,,,,,,,,,,,,,,,,,,
,,,,,,,,,,,,,,,,,199879,18,2022-01-28_19h20.53.847,lexical_decision_task_DD_L3,2021.2.3,Win32,61.60670281,,,,,,,,,,,,0.8395,1,,,,,,,,,,,,,,z,1,0.8395,,,,,,,,0.025925926,-0.410185185,0,0,0,,0,114,114,127,1,NINDY,HB,old,z,./images/NINDYHB.png,,,,,,,,,,,,,,,,,,,,,
,,,,,,,,,,,,,,,,,199879,18,2022-01-28_19h20.53.847,lexical_decision_task_DD_L3,2021.2.3,Win32,61.60670281,,,,,,,,,,,,0.5702,1,,,,,,,,,,,,,,m,1,0.5702,,,,,,,,0.025925926,-0.410185185,0,0,0,,0,115,115,18,1,JAGUAR,LB,old,m,./images/JAGUARLB.png,,,,,,,,,,,,,,,,,,,,,
,,,,,,,,,,,,,,,,,199879,18,2022-01-28_19h20.53.847,lexical_decision_task_DD_L3,2021.2.3,Win32,61.60670281,,,,,,,,,,,,1.024,1,,,,,,,,,,,,,,m,1,1.024,,,,,,,,0.025925926,-0.410185185,0,0,0,,0,116,116,26,1,SMOKER,HB,old,m,./images/SMOKERHB.png,,,,,,,,,,,,,,,,,,,,,
,,,,,,,,,,,,,,,,,199879,18,2022-01-28_19h20.53.847,lexical_decision_task_DD_L3,2021.2.3,Win32,61.60670281,,,,,,,,,,,,1.0761,1,,,,,,,,,,,,,,z,1,1.0761,,,,,,,,0.025925926,-0.410185185,0,0,0,,0,117,117,136,1,WERVE,HB,old,z,./images/WERVEHB.png,,,,,,,,,,,,,,,,,,,,,
,,,,,,,,,,,,,,,,,199879,18,2022-01-28_19h20.53.847,lexical_decision_task_DD_L3,2021.2.3,Win32,61.60670281,,,,,,,,,,,,0.5885,1,,,,,,,,,,,,,,m,1,0.5885,,,,,,,,0.025925926,-0.410185185,0,0,0,,0,118,118,13,1,MOTOR,C,old,m,./images/MOTOR.png,,,,,,,,,,,,,,,,,,,,,
,,,,,,,,,,,,,,,,,199879,18,2022-01-28_19h20.53.847,lexical_decision_task_DD_L3,2021.2.3,Win32,61.60670281,,,,,,,,,,,,0.9961,1,,,,,,,,,,,,,,m,1,0.9961,,,,,,,,0.025925926,-0.410185185,0,0,0,,0,119,119,56,1,PACKET,HB,old,m,./images/PACKETHB.png,,,,,,,,,,,,,,,,,,,,,
,,,,,,,,,,,,,,,,,199879,18,2022-01-28_19h20.53.847,lexical_decision_task_DD_L3,2021.2.3,Win32,61.60670281,,,,,,,,,,,,1.9628,1,,,,,,,,,,,,,,z,1,1.9628,,,,,,,,0.025925926,-0.410185185,0,0,0,,0,120,120,166,1,SHORY,HB,old,z,./images/SHORYHB.png,,,,,,,,,,,,,,,,,,,,,
,,,,,,,,,,,,,,,,,199879,18,2022-01-28_19h20.53.847,lexical_decision_task_DD_L3,2021.2.3,Win32,61.60670281,,,,,,,,,,,,1.4419,1,,,,,,,,,,,,,,z,1,1.4419,,,,,,,,0.025925926,-0.410185185,0,0,0,,0,121,121,103,1,FLORT,HB,old,z,./images/FLORTHB.png,,,,,,,,,,,,,,,,,,,,,
,,,,,,,,,,,,,,,,,199879,18,2022-01-28_19h20.53.847,lexical_decision_task_DD_L3,2021.2.3,Win32,61.60670281,,,,,,,,,,,,0.9072,1,,,,,,,,,,,,,,m,1,0.9072,,,,,,,,0.025925926,-0.410185185,0,0,0,,0,122,122,17,1,SKIING,HB,old,m,./images/SKIINGHB.png,,,,,,,,,,,,,,,,,,,,,
,,,,,,,,,,,,,,,,,199879,18,2022-01-28_19h20.53.847,lexical_decision_task_DD_L3,2021.2.3,Win32,61.60670281,,,,,,,,,,,,0.8525,1,,,,,,,,,,,,,,m,1,0.8525,,,,,,,,0.025925926,-0.410185185,0,0,0,,0,123,123,5,1,PASTA,HB,old,m,./images/PASTAHB.png,,,,,,,,,,,,,,,,,,,,,
,,,,,,,,,,,,,,,,,199879,18,2022-01-28_19h20.53.847,lexical_decision_task_DD_L3,2021.2.3,Win32,61.60670281,,,,,,,,,,,,0.9852,1,,,,,,,,,,,,,,z,1,0.9852,,,,,,,,0.025925926,-0.410185185,0,0,0,,0,124,124,142,1,PLASK,HB,old,z,./images/PLASKHB.png,,,,,,,,,,,,,,,,,,,,,
,,,,,,,,,,,,,,,,,199879,18,2022-01-28_19h20.53.847,lexical_decision_task_DD_L3,2021.2.3,Win32,61.60670281,,,,,,,,,,,,0.8605,1,,,,,,,,,,,,,,z,1,0.8605,,,,,,,,0.025925926,-0.410185185,1,0,0,,0,125,125,162,1,LEICH,C,old,z,./images/LEICH.png,break_done_button,,,,,,,,,,,,,,,,,,,,
,,,,,,,,,,,,,,,,,199879,18,2022-01-28_19h20.53.847,lexical_decision_task_DD_L3,2021.2.3,Win32,61.60670281,,,,,,,,,,,,0.981,1,,,,,,,,,,,,,,z,1,0.981,,,,,,,,0.025925926,-0.410185185,0,0,0,,0,126,126,133,1,POWDY,HB,old,z,./images/POWDYHB.png,,,,,,,,,,,,,,,,,,,,,
,,,,,,,,,,,,,,,,,199879,18,2022-01-28_19h20.53.847,lexical_decision_task_DD_L3,2021.2.3,Win32,61.60670281,,,,,,,,,,,,0.7924,1,,,,,,,,,,,,,,m,1,0.7924,,,,,,,,0.025925926,-0.410185185,0,0,0,,0,127,127,60,1,TWINS,LB,old,m,./images/TWINSLB.png,,,,,,,,,,,,,,,,,,,,,
,,,,,,,,,,,,,,,,,199879,18,2022-01-28_19h20.53.847,lexical_decision_task_DD_L3,2021.2.3,Win32,61.60670281,,,,,,,,,,,,0.6408,1,,,,,,,,,,,,,,z,1,0.6408,,,,,,,,0.025925926,-0.410185185,0,0,0,,0,128,128,84,1,HAXES,C,old,z,./images/HAXES.png,,,,,,,,,,,,,,,,,,,,,
,,,,,,,,,,,,,,,,,199879,18,2022-01-28_19h20.53.847,lexical_decision_task_DD_L3,2021.2.3,Win32,61.60670281,,,,,,,,,,,,0.6356,0,,,,,,,,,,,,,,z,0,0.6356,,,,,,,,0.025925926,-0.410185185,0,0,0,,0,129,129,72,1,NOOSE,LB,old,m,./images/NOOSELB.png,,,,,,,,,,,,,,,,,,,,,
,,,,,,,,,,,,,,,,,199879,18,2022-01-28_19h20.53.847,lexical_decision_task_DD_L3,2021.2.3,Win32,61.60670281,,,,,,,,,,,,0.5305,1,,,,,,,,,,,,,,m,1,0.5305,,,,,,,,0.025925926,-0.410185185,0,0,0,,0,130,130,19,1,DOUGH,C,old,m,./images/DOUGH.png,,,,,,,,,,,,,,,,,,,,,
,,,,,,,,,,,,,,,,,199879,18,2022-01-28_19h20.53.847,lexical_decision_task_DD_L3,2021.2.3,Win32,61.60670281,,,,,,,,,,,,0.9128,1,,,,,,,,,,,,,,z,1,0.9128,,,,,,,,0.025925926,-0.410185185,0,0,0,,0,131,131,109,1,BURGE,HB,old,z,./images/BURGEHB.png,,,,,,,,,,,,,,,,,,,,,
,,,,,,,,,,,,,,,,,199879,18,2022-01-28_19h20.53.847,lexical_decision_task_DD_L3,2021.2.3,Win32,61.60670281,,,,,,,,,,,,0.5149,1,,,,,,,,,,,,,,m,1,0.5149,,,,,,,,0.025925926,-0.410185185,0,0,0,,0,132,132,15,1,GREASE,LB,old,m,./images/GREASELB.png,,,,,,,,,,,,,,,,,,,,,
,,,,,,,,,,,,,,,,,199879,18,2022-01-28_19h20.53.847,lexical_decision_task_DD_L3,2021.2.3,Win32,61.60670281,,,,,,,,,,,,0.6456,1,,,,,,,,,,,,,,z,1,0.6456,,,,,,,,0.025925926,-0.410185185,0,0,0,,0,133,133,117,1,STEEG,C,old,z,./images/STEEG.png,,,,,,,,,,,,,,,,,,,,,
,,,,,,,,,,,,,,,,,199879,18,2022-01-28_19h20.53.847,lexical_decision_task_DD_L3,2021.2.3,Win32,61.60670281,,,,,,,,,,,,0.6854,1,,,,,,,,,,,,,,z,1,0.6854,,,,,,,,0.025925926,-0.410185185,0,0,0,,0,134,134,167,1,ZONET,LB,old,z,./images/ZONETLB.png,,,,,,,,,,,,,,,,,,,,,
,,,,,,,,,,,,,,,,,199879,18,2022-01-28_19h20.53.847,lexical_decision_task_DD_L3,2021.2.3,Win32,61.60670281,,,,,,,,,,,,0.5445,1,,,,,,,,,,,,,,m,1,0.5445,,,,,,,,0.025925926,-0.410185185,0,0,0,,0,135,135,79,1,CRUST,C,old,m,./images/CRUST.png,,,,,,,,,,,,,,,,,,,,,
,,,,,,,,,,,,,,,,,199879,18,2022-01-28_19h20.53.847,lexical_decision_task_DD_L3,2021.2.3,Win32,61.60670281,,,,,,,,,,,,1.0148,1,,,,,,,,,,,,,,m,1,1.0148,,,,,,,,0.025925926,-0.410185185,0,0,0,,0,136,136,47,1,BERRY,HB,old,m,./images/BERRYHB.png,,,,,,,,,,,,,,,,,,,,,
,,,,,,,,,,,,,,,,,199879,18,2022-01-28_19h20.53.847,lexical_decision_task_DD_L3,2021.2.3,Win32,61.60670281,,,,,,,,,,,,0.5602,1,,,,,,,,,,,,,,z,1,0.5602,,,,,,,,0.025925926,-0.410185185,0,0,0,,0,137,137,144,1,NAIRY,C,old,z,./images/NAIRY.png,,,,,,,,,,,,,,,,,,,,,
,,,,,,,,,,,,,,,,,199879,18,2022-01-28_19h20.53.847,lexical_decision_task_DD_L3,2021.2.3,Win32,61.60670281,,,,,,,,,,,,0.6088,1,,,,,,,,,,,,,,m,1,0.6088,,,,,,,,0.025925926,-0.410185185,0,0,0,,0,138,138,51,1,ONION,LB,old,m,./images/ONIONLB.png,,,,,,,,,,,,,,,,,,,,,
,,,,,,,,,,,,,,,,,199879,18,2022-01-28_19h20.53.847,lexical_decision_task_DD_L3,2021.2.3,Win32,61.60670281,,,,,,,,,,,,0.8031,1,,,,,,,,,,,,,,m,1,0.8031,,,,,,,,0.025925926,-0.410185185,0,0,0,,0,139,139,58,1,BABOON,C,old,m,./images/BABOON.png,,,,,,,,,,,,,,,,,,,,,
,,,,,,,,,,,,,,,,,199879,18,2022-01-28_19h20.53.847,lexical_decision_task_DD_L3,2021.2.3,Win32,61.60670281,,,,,,,,,,,,0.6534,1,,,,,,,,,,,,,,m,1,0.6534,,,,,,,,0.025925926,-0.410185185,0,0,0,,0,140,140,39,1,SHELF,LB,old,m,./images/SHELFLB.png,,,,,,,,,,,,,,,,,,,,,
,,,,,,,,,,,,,,,,,199879,18,2022-01-28_19h20.53.847,lexical_decision_task_DD_L3,2021.2.3,Win32,61.60670281,,,,,,,,,,,,0.632,1,,,,,,,,,,,,,,z,1,0.632,,,,,,,,0.025925926,-0.410185185,0,0,0,,0,141,141,160,1,VEETS,HB,old,z,./images/VEETSHB.png,,,,,,,,,,,,,,,,,,,,,
,,,,,,,,,,,,,,,,,199879,18,2022-01-28_19h20.53.847,lexical_decision_task_DD_L3,2021.2.3,Win32,61.60670281,,,,,,,,,,,,1.2579,1,,,,,,,,,,,,,,z,1,1.2579,,,,,,,,0.025925926,-0.410185185,0,0,0,,0,142,142,115,1,MAWNS,HB,old,z,./images/MAWNSHB.png,,,,,,,,,,,,,,,,,,,,,
,,,,,,,,,,,,,,,,,199879,18,2022-01-28_19h20.53.847,lexical_decision_task_DD_L3,2021.2.3,Win32,61.60670281,,,,,,,,,,,,0.6233,1,,,,,,,,,,,,,,m,1,0.6233,,,,,,,,0.025925926,-0.410185185,0,0,0,,0,143,143,62,1,PURSE,HB,old,m,./images/PURSEHB.png,,,,,,,,,,,,,,,,,,,,,
,,,,,,,,,,,,,,,,,199879,18,2022-01-28_19h20.53.847,lexical_decision_task_DD_L3,2021.2.3,Win32,61.60670281,,,,,,,,,,,,0.8375,1,,,,,,,,,,,,,,z,1,0.8375,,,,,,,,0.025925926,-0.410185185,0,0,0,,0,144,144,147,1,ZOLES,C,old,z,./images/ZOLES.png,,,,,,,,,,,,,,,,,,,,,
,,,,,,,,,,,,,,,,,199879,18,2022-01-28_19h20.53.847,lexical_decision_task_DD_L3,2021.2.3,Win32,61.60670281,,,,,,,,,,,,0.6457,1,,,,,,,,,,,,,,m,1,0.6457,,,,,,,,0.025925926,-0.410185185,0,0,0,,0,145,145,9,1,RHINO,LB,old,m,./images/RHINOLB.png,,,,,,,,,,,,,,,,,,,,,
,,,,,,,,,,,,,,,,,199879,18,2022-01-28_19h20.53.847,lexical_decision_task_DD_L3,2021.2.3,Win32,61.60670281,,,,,,,,,,,,0.546,1,,,,,,,,,,,,,,m,1,0.546,,,,,,,,0.025,-0.410185185,0,0,0,,0,146,146,63,1,MIRROR,LB,old,m,./images/MIRRORLB.png,,,,,,,,,,,,,,,,,,,,,
,,,,,,,,,,,,,,,,,199879,18,2022-01-28_19h20.53.847,lexical_decision_task_DD_L3,2021.2.3,Win32,61.60670281,,,,,,,,,,,,0.54,1,,,,,,,,,,,,,,z,1,0.54,,,,,,,,0.025,-0.410185185,0,0,0,,0,147,147,119,1,PAFER,LB,old,z,./images/PAFERLB.png,,,,,,,,,,,,,,,,,,,,,
,,,,,,,,,,,,,,,,,199879,18,2022-01-28_19h20.53.847,lexical_decision_task_DD_L3,2021.2.3,Win32,61.60670281,,,,,,,,,,,,0.4807,1,,,,,,,,,,,,,,m,1,0.4807,,,,,,,,0.025,-0.410185185,0,0,0,,0,148,148,22,1,MELON,C,old,m,./images/MELON.png,,,,,,,,,,,,,,,,,,,,,
,,,,,,,,,,,,,,,,,199879,18,2022-01-28_19h20.53.847,lexical_decision_task_DD_L3,2021.2.3,Win32,61.60670281,,,,,,,,,,,,0.6287,1,,,,,,,,,,,,,,m,1,0.6287,,,,,,,,0.025,-0.410185185,0,0,0,,0,149,149,10,1,BELLY,C,old,m,./images/BELLY.png,,,,,,,,,,,,,,,,,,,,,
,,,,,,,,,,,,,,,,,199879,18,2022-01-28_19h20.53.847,lexical_decision_task_DD_L3,2021.2.3,Win32,61.60670281,,,,,,,,,,,,0.7003,1,,,,,,,,,,,,,,z,1,0.7003,,,,,,,,0.025,-0.410185185,0,0,0,,0,150,150,123,1,SEDGE,C,old,z,./images/SEDGE.png,,,,,,,,,,,,,,,,,,,,,
,,,,,,,,,,,,,,,,,199879,18,2022-01-28_19h20.53.847,lexical_decision_task_DD_L3,2021.2.3,Win32,61.60670281,,,,,,,,,,,,0.7217,1,,,,,,,,,,,,,,m,1,0.7217,,,,,,,,0.025,-0.410185185,0,0,0,,0,151,151,54,1,TRIPOD,LB,old,m,./images/TRIPODLB.png,,,,,,,,,,,,,,,,,,,,,
,,,,,,,,,,,,,,,,,199879,18,2022-01-28_19h20.53.847,lexical_decision_task_DD_L3,2021.2.3,Win32,61.60670281,,,,,,,,,,,,0.7132,1,,,,,,,,,,,,,,m,1,0.7132,,,,,,,,0.025,-0.410185185,0,0,0,,0,152,152,32,1,BARREL,HB,old,m,./images/BARRELHB.png,,,,,,,,,,,,,,,,,,,,,
,,,,,,,,,,,,,,,,,199879,18,2022-01-28_19h20.53.847,lexical_decision_task_DD_L3,2021.2.3,Win32,61.60670281,,,,,,,,,,,,0.8346,1,,,,,,,,,,,,,,z,1,0.8346,,,,,,,,0.025,-0.410185185,0,0,0,,0,153,153,99,1,BACKY,C,old,z,./images/BACKY.png,,,,,,,,,,,,,,,,,,,,,
,,,,,,,,,,,,,,,,,199879,18,2022-01-28_19h20.53.847,lexical_decision_task_DD_L3,2021.2.3,Win32,61.60670281,,,,,,,,,,,,0.4969,1,,,,,,,,,,,,,,m,1,0.4969,,,,,,,,0.025,-0.410185185,0,0,0,,0,154,154,21,1,KIDNEY,LB,old,m,./images/KIDNEYLB.png,,,,,,,,,,,,,,,,,,,,,
,,,,,,,,,,,,,,,,,199879,18,2022-01-28_19h20.53.847,lexical_decision_task_DD_L3,2021.2.3,Win32,61.60670281,,,,,,,,,,,,0.6372,1,,,,,,,,,,,,,,z,1,0.6372,,,,,,,,0.025,-0.410185185,0,0,0,,0,155,155,118,1,BAVEL,HB,old,z,./images/BAVELHB.png,,,,,,,,,,,,,,,,,,,,,
,,,,,,,,,,,,,,,,,199879,18,2022-01-28_19h20.53.847,lexical_decision_task_DD_L3,2021.2.3,Win32,61.60670281,,,,,,,,,,,,0.6738,1,,,,,,,,,,,,,,z,1,0.6738,,,,,,,,0.025,-0.410185185,0,0,0,,0,156,156,101,1,GLEET,LB,old,z,./images/GLEETLB.png,,,,,,,,,,,,,,,,,,,,,
,,,,,,,,,,,,,,,,,199879,18,2022-01-28_19h20.53.847,lexical_decision_task_DD_L3,2021.2.3,Win32,61.60670281,,,,,,,,,,,,0.6387,1,,,,,,,,,,,,,,z,1,0.6387,,,,,,,,0.025,-0.410185185,0,0,0,,0,157,157,100,1,DRIBS,HB,old,z,./images/DRIBSHB.png,,,,,,,,,,,,,,,,,,,,,
,,,,,,,,,,,,,,,,,199879,18,2022-01-28_19h20.53.847,lexical_decision_task_DD_L3,2021.2.3,Win32,61.60670281,,,,,,,,,,,,0.6149,1,,,,,,,,,,,,,,m,1,0.6149,,,,,,,,0.025,-0.410185185,0,0,0,,0,158,158,78,1,LITTER,LB,old,m,./images/LITTERLB.png,,,,,,,,,,,,,,,,,,,,,
,,,,,,,,,,,,,,,,,199879,18,2022-01-28_19h20.53.847,lexical_decision_task_DD_L3,2021.2.3,Win32,61.60670281,,,,,,,,,,,,0.6463,1,,,,,,,,,,,,,,z,1,0.6463,,,,,,,,0.025,-0.410185185,0,0,0,,0,159,159,116,1,BALGY,LB,old,z,./images/BALGYLB.png,,,,,,,,,,,,,,,,,,,,,
,,,,,,,,,,,,,,,,,199879,18,2022-01-28_19h20.53.847,lexical_decision_task_DD_L3,2021.2.3,Win32,61.60670281,,,,,,,,,,,,0.821,1,,,,,,,,,,,,,,z,1,0.821,,,,,,,,0.025,-0.410185185,0,0,0,,0,160,160,85,1,CHULK,HB,old,z,./images/CHULKHB.png,,,,,,,,,,,,,,,,,,,,,
,,,,,,,,,,,,,,,,,199879,18,2022-01-28_19h20.53.847,lexical_decision_task_DD_L3,2021.2.3,Win32,61.60670281,,,,,,,,,,,,0.6561,1,,,,,,,,,,,,,,z,1,0.6561,,,,,,,,0.025,-0.410185185,0,0,0,,0,161,161,150,1,NOOLS,C,old,z,./images/NOOLS.png,,,,,,,,,,,,,,,,,,,,,
,,,,,,,,,,,,,,,,,199879,18,2022-01-28_19h20.53.847,lexical_decision_task_DD_L3,2021.2.3,Win32,61.60670281,,,,,,,,,,,,0.6511,1,,,,,,,,,,,,,,m,1,0.6511,,,,,,,,0.025,-0.410185185,0,0,0,,0,162,162,70,1,URINE,C,old,m,./images/URINE.png,,,,,,,,,,,,,,,,,,,,,
,,,,,,,,,,,,,,,,,199879,18,2022-01-28_19h20.53.847,lexical_decision_task_DD_L3,2021.2.3,Win32,61.60670281,,,,,,,,,,,,0.4129,1,,,,,,,,,,,,,,m,1,0.4129,,,,,,,,0.025,-0.410185185,0,0,0,,0,163,163,25,1,WRIST,C,old,m,./images/WRIST.png,,,,,,,,,,,,,,,,,,,,,
,,,,,,,,,,,,,,,,,199879,18,2022-01-28_19h20.53.847,lexical_decision_task_DD_L3,2021.2.3,Win32,61.60670281,,,,,,,,,,,,0.665,1,,,,,,,,,,,,,,m,1,0.665,,,,,,,,0.025,-0.410185185,0,0,0,,0,164,164,14,1,PICKLE,HB,old,m,./images/PICKLEHB.png,,,,,,,,,,,,,,,,,,,,,
,,,,,,,,,,,,,,,,,199879,18,2022-01-28_19h20.53.847,lexical_decision_task_DD_L3,2021.2.3,Win32,61.60670281,,,,,,,,,,,,0.5785,1,,,,,,,,,,,,,,z,1,0.5785,,,,,,,,0.025,-0.410185185,0,0,0,,0,165,165,148,1,JOMS,HB,old,z,./images/JOMSHB.png,,,,,,,,,,,,,,,,,,,,,
,,,,,,,,,,,,,,,,,199879,18,2022-01-28_19h20.53.847,lexical_decision_task_DD_L3,2021.2.3,Win32,61.60670281,,,,,,,,,,,,0.5254,1,,,,,,,,,,,,,,m,1,0.5254,,,,,,,,0.025,-0.410185185,0,0,0,,0,166,166,6,1,SQUARE,LB,old,m,./images/SQUARELB.png,,,,,,,,,,,,,,,,,,,,,
,,,,,,,,,,,,,,,,,199879,18,2022-01-28_19h20.53.847,lexical_decision_task_DD_L3,2021.2.3,Win32,61.60670281,,,,,,,,,,,,0.7514,1,,,,,,,,,,,,,,z,1,0.7514,,,,,,,,0.025,-0.410185185,0,0,0,,0,167,167,131,1,NACES,LB,old,z,./images/NACESLB.png,,,,,,,,,,,,,,,,,,,,,
,0.044444444,-0.382407407,1,0,0,instr_done_button,,,,,,1,test,"In the next phase you will be presented with the words from the the first phase. Your job is to decide whether you remember seeing the word or not. If you remember seeing the word press ""old"" or type ""m"". If you do not remember seeing the word press ""new"" or type ""z"". Please press the space bar or click on continue to begin. ",,,199879,18,2022-01-28_19h20.53.847,lexical_decision_task_DD_L3,2021.2.3,Win32,61.60670281,,,,,,,,,,,,,,,,,,,,,,,,,,,,,,,,,,,,,,,,,,,,,,,,,,,,,,0,0,0,0,1,,,,,,,,,,,,,,,
,0.044444444,-0.382407407,1,0,0,instr_done_button,,,,,,1,test,"In the next phase you will be presented with the words from the the first phase. Your job is to decide whether you remember seeing the word or not. If you remember seeing the word press ""old"" or type ""m"". If you do not remember seeing the word press ""new"" or type ""z"". Please press the space bar or click on continue to begin. ",,,199879,18,2022-01-28_19h20.53.847,lexical_decision_task_DD_L3,2021.2.3,Win32,61.60670281,,,,,,,,,,,,,,,,,,,,,,,,,,,,,,,,,,,,,,,,,,,,,,,,,,,,,,1,0,1,0,1,,,,,,,,,,,,,,,
,0.044444444,-0.382407407,1,0,0,instr_done_button,,,,,,1,test,"In the next phase you will be presented with the words from the the first phase. Your job is to decide whether you remember seeing the word or not. If you remember seeing the word press ""old"" or type ""m"". If you do not remember seeing the word press ""new"" or type ""z"". Please press the space bar or click on continue to begin. ",,,199879,18,2022-01-28_19h20.53.847,lexical_decision_task_DD_L3,2021.2.3,Win32,61.60670281,,,,,,,,,,,,,,,,,,,,,,,,,,,,,,,,,,,,,,,,,,,,,,,,,,,,,,2,0,2,0,1,,,,,,,,,,,,,,,
,0.062037037,-0.434259259,1,0,0,instr_done_button,,,,,,1,test,"In the next phase you will be presented with the words from the the first phase. Your job is to decide whether you remember seeing the word or not. If you remember seeing the word press ""old"" or type ""m"". If you do not remember seeing the word press ""new"" or type ""z"". Please press the space bar or click on continue to begin. ",,,199879,18,2022-01-28_19h20.53.847,lexical_decision_task_DD_L3,2021.2.3,Win32,61.60670281,,,,,,,,,,,,,,,,,,,,,,,,,,,,,,,,,,,,,,,,,,,,,,,,,,,,,,3,0,3,0,1,,,,,,,,,,,,,,,
,0.124074074,-0.387037037,1,0,0,instr_done_button,,,,,,1,test,"In the next phase you will be presented with the words from the the first phase. Your job is to decide whether you remember seeing the word or not. If you remember seeing the word press ""old"" or type ""m"". If you do not remember seeing the word press ""new"" or type ""z"". Please press the space bar or click on continue to begin. ",,,199879,18,2022-01-28_19h20.53.847,lexical_decision_task_DD_L3,2021.2.3,Win32,61.60670281,,,,,,,,,,,,,,,,,,,,,,,,,,,,,,,,,,,,,,,,,,,,,,,,,,,,,,4,0,4,0,1,,,,,,,,,,,,,,,
,,,,,,,,,,,,,,,,,199879,18,2022-01-28_19h20.53.847,lexical_decision_task_DD_L3,2021.2.3,Win32,61.60670281,,,,,,,,,,,,1.0624,1,,,,,,,,,,,,,,,,,,,,,,,,0.101851852,-0.077777778,0,0,0,,,,,,,MUFFIN,C,m,m,./images/MUFFIN.png,,,,,,,m,1,1.0624,,,,,,,,0,0,0,55,1
,,,,,,,,,,,,,,,,,199879,18,2022-01-28_19h20.53.847,lexical_decision_task_DD_L3,2021.2.3,Win32,61.60670281,,,,,,,,,,,,0.6312,1,,,,,,,,,,,,,,,,,,,,,,,,0.101851852,-0.077777778,0,0,0,,,,,,,LIZARD,HB,m,m,./images/LIZARDHB.png,,,,,,,m,1,0.6312,,,,,,,,0,1,1,44,1
,,,,,,,,,,,,,,,,,199879,18,2022-01-28_19h20.53.847,lexical_decision_task_DD_L3,2021.2.3,Win32,61.60670281,,,,,,,,,,,,1.0896,1,,,,,,,,,,,,,,,,,,,,,,,,0.101851852,-0.077777778,0,0,0,,,,,,,BRUSH,HB,z,m,./images/BRUSHHB.png,,,,,,,z,1,1.0896,,,,,,,,0,2,2,143,1
,,,,,,,,,,,,,,,,,199879,18,2022-01-28_19h20.53.847,lexical_decision_task_DD_L3,2021.2.3,Win32,61.60670281,,,,,,,,,,,,0.5845,1,,,,,,,,,,,,,,,,,,,,,,,,0.101851852,-0.077777778,0,0,0,,,,,,,MOOSE,LB,m,m,./images/MOOSELB.png,,,,,,,m,1,0.5845,,,,,,,,0,3,3,57,1
,,,,,,,,,,,,,,,,,199879,18,2022-01-28_19h20.53.847,lexical_decision_task_DD_L3,2021.2.3,Win32,61.60670281,,,,,,,,,,,,0.4892,1,,,,,,,,,,,,,,,,,,,,,,,,0.101851852,-0.077777778,0,0,0,,,,,,,CRUST,C,m,m,./images/CRUST.png,,,,,,,m,1,0.4892,,,,,,,,0,4,4,79,1
,,,,,,,,,,,,,,,,,199879,18,2022-01-28_19h20.53.847,lexical_decision_task_DD_L3,2021.2.3,Win32,61.60670281,,,,,,,,,,,,0.9229,0,,,,,,,,,,,,,,,,,,,,,,,,0.101851852,-0.077777778,0,0,0,,,,,,,SWING,C,m,m,./images/SWING.png,,,,,,,z,0,0.9229,,,,,,,,0,5,5,40,1
,,,,,,,,,,,,,,,,,199879,18,2022-01-28_19h20.53.847,lexical_decision_task_DD_L3,2021.2.3,Win32,61.60670281,,,,,,,,,,,,0.6977,0,,,,,,,,,,,,,,,,,,,,,,,,0.101851852,-0.077777778,0,0,0,,,,,,,BROOM,LB,z,m,./images/BROOMLB.png,,,,,,,m,0,0.6977,,,,,,,,0,6,6,162,1
,,,,,,,,,,,,,,,,,199879,18,2022-01-28_19h20.53.847,lexical_decision_task_DD_L3,2021.2.3,Win32,61.60670281,,,,,,,,,,,,0.6976,1,,,,,,,,,,,,,,,,,,,,,,,,0.101851852,-0.077777778,0,0,0,,,,,,,TOMATO,LB,m,m,./images/TOMATOLB.png,,,,,,,m,1,0.6976,,,,,,,,0,7,7,0,1
,,,,,,,,,,,,,,,,,199879,18,2022-01-28_19h20.53.847,lexical_decision_task_DD_L3,2021.2.3,Win32,61.60670281,,,,,,,,,,,,0.6312,1,,,,,,,,,,,,,,,,,,,,,,,,0.101851852,-0.077777778,0,0,0,,,,,,,FERRY,LB,z,m,./images/FERRYLB.png,,,,,,,z,1,0.6312,,,,,,,,0,8,8,141,1
,,,,,,,,,,,,,,,,,199879,18,2022-01-28_19h20.53.847,lexical_decision_task_DD_L3,2021.2.3,Win32,61.60670281,,,,,,,,,,,,0.9336,1,,,,,,,,,,,,,,,,,,,,,,,,0.101851852,-0.077777778,0,0,0,,,,,,,PAINT,C,m,m,./images/PAINT.png,,,,,,,m,1,0.9336,,,,,,,,0,9,9,7,1
,,,,,,,,,,,,,,,,,199879,18,2022-01-28_19h20.53.847,lexical_decision_task_DD_L3,2021.2.3,Win32,61.60670281,,,,,,,,,,,,0.8838,1,,,,,,,,,,,,,,,,,,,,,,,,0.101851852,-0.077777778,0,0,0,,,,,,,DANCER,LB,z,m,./images/DANCERLB.png,,,,,,,z,1,0.8838,,,,,,,,0,10,10,105,1
,,,,,,,,,,,,,,,,,199879,18,2022-01-28_19h20.53.847,lexical_decision_task_DD_L3,2021.2.3,Win32,61.60670281,,,,,,,,,,,,0.733,0,,,,,,,,,,,,,,,,,,,,,,,,0.101851852,-0.077777778,0,0,0,,,,,,,WALNUT,LB,z,m,./images/WALNUTLB.png,,,,,,,m,0,0.733,,,,,,,,0,11,11,84,1
,,,,,,,,,,,,,,,,,199879,18,2022-01-28_19h20.53.847,lexical_decision_task_DD_L3,2021.2.3,Win32,61.60670281,,,,,,,,,,,,1.7772,1,,,,,,,,,,,,,,,,,,,,,,,,0.101851852,-0.077777778,0,0,0,,,,,,,PURSE,HB,m,m,./images/PURSEHB.png,,,,,,,m,1,1.7772,,,,,,,,0,12,12,62,1
,,,,,,,,,,,,,,,,,199879,18,2022-01-28_19h20.53.847,lexical_decision_task_DD_L3,2021.2.3,Win32,61.60670281,,,,,,,,,,,,1.1017,1,,,,,,,,,,,,,,,,,,,,,,,,0.101851852,-0.077777778,0,0,0,,,,,,,LADDER,HB,m,m,./images/LADDERHB.png,,,,,,,m,1,1.1017,,,,,,,,0,13,13,38,1
,,,,,,,,,,,,,,,,,199879,18,2022-01-28_19h20.53.847,lexical_decision_task_DD_L3,2021.2.3,Win32,61.60670281,,,,,,,,,,,,0.8984,1,,,,,,,,,,,,,,,,,,,,,,,,0.101851852,-0.077777778,0,0,0,,,,,,,DONKEY,C,z,m,./images/DONKEY.png,,,,,,,z,1,0.8984,,,,,,,,0,14,14,103,1
,,,,,,,,,,,,,,,,,199879,18,2022-01-28_19h20.53.847,lexical_decision_task_DD_L3,2021.2.3,Win32,61.60670281,,,,,,,,,,,,1.8173,0,,,,,,,,,,,,,,,,,,,,,,,,0.101851852,-0.077777778,0,0,0,,,,,,,BANANA,C,z,m,./images/BANANA.png,,,,,,,m,0,1.8173,,,,,,,,0,15,15,154,1
,,,,,,,,,,,,,,,,,199879,18,2022-01-28_19h20.53.847,lexical_decision_task_DD_L3,2021.2.3,Win32,61.60670281,,,,,,,,,,,,0.8312,1,,,,,,,,,,,,,,,,,,,,,,,,0.101851852,-0.077777778,0,0,0,,,,,,,SAILOR,C,m,m,./images/SAILOR.png,,,,,,,m,1,0.8312,,,,,,,,0,16,16,67,1
,,,,,,,,,,,,,,,,,199879,18,2022-01-28_19h20.53.847,lexical_decision_task_DD_L3,2021.2.3,Win32,61.60670281,,,,,,,,,,,,1.1309,0,,,,,,,,,,,,,,,,,,,,,,,,0.101851852,-0.077777778,0,0,0,,,,,,,ARROW,LB,z,m,./images/ARROWLB.png,,,,,,,m,0,1.1309,,,,,,,,0,17,17,153,1
,,,,,,,,,,,,,,,,,199879,18,2022-01-28_19h20.53.847,lexical_decision_task_DD_L3,2021.2.3,Win32,61.60670281,,,,,,,,,,,,0.8845,1,,,,,,,,,,,,,,,,,,,,,,,,0.101851852,-0.077777778,0,0,0,,,,,,,BUNNY,C,z,m,./images/BUNNY.png,,,,,,,z,1,0.8845,,,,,,,,0,18,18,97,1
,,,,,,,,,,,,,,,,,199879,18,2022-01-28_19h20.53.847,lexical_decision_task_DD_L3,2021.2.3,Win32,61.60670281,,,,,,,,,,,,0.6485,1,,,,,,,,,,,,,,,,,,,,,,,,0.101851852,-0.077777778,0,0,0,,,,,,,CASINO,C,z,m,./images/CASINO.png,,,,,,,z,1,0.6485,,,,,,,,0,19,19,112,1
,,,,,,,,,,,,,,,,,199879,18,2022-01-28_19h20.53.847,lexical_decision_task_DD_L3,2021.2.3,Win32,61.60670281,,,,,,,,,,,,0.7527,1,,,,,,,,,,,,,,,,,,,,,,,,0.101851852,-0.077777778,0,0,0,,,,,,,BISHOP,C,z,m,./images/BISHOP.png,,,,,,,z,1,0.7527,,,,,,,,0,20,20,133,1
,,,,,,,,,,,,,,,,,199879,18,2022-01-28_19h20.53.847,lexical_decision_task_DD_L3,2021.2.3,Win32,61.60670281,,,,,,,,,,,,0.8768,1,,,,,,,,,,,,,,,,,,,,,,,,0.101851852,-0.077777778,0,0,0,,,,,,,INFANT,C,m,m,./images/INFANT.png,,,,,,,m,1,0.8768,,,,,,,,0,21,21,76,1
,,,,,,,,,,,,,,,,,199879,18,2022-01-28_19h20.53.847,lexical_decision_task_DD_L3,2021.2.3,Win32,61.60670281,,,,,,,,,,,,0.7342,1,,,,,,,,,,,,,,,,,,,,,,,,0.101851852,-0.077777778,0,0,0,,,,,,,GREASE,LB,m,m,./images/GREASELB.png,,,,,,,m,1,0.7342,,,,,,,,0,22,22,15,1
,,,,,,,,,,,,,,,,,199879,18,2022-01-28_19h20.53.847,lexical_decision_task_DD_L3,2021.2.3,Win32,61.60670281,,,,,,,,,,,,0.9584,1,,,,,,,,,,,,,,,,,,,,,,,,0.101851852,-0.077777778,0,0,0,,,,,,,MIDGET,C,z,m,./images/MIDGET.png,,,,,,,z,1,0.9584,,,,,,,,0,23,23,160,1
,,,,,,,,,,,,,,,,,199879,18,2022-01-28_19h20.53.847,lexical_decision_task_DD_L3,2021.2.3,Win32,61.60670281,,,,,,,,,,,,0.7584,1,,,,,,,,,,,,,,,,,,,,,,,,0.101851852,-0.077777778,0,0,0,,,,,,,PEBBLE,C,z,m,./images/PEBBLE.png,,,,,,,z,1,0.7584,,,,,,,,0,24,24,166,1
,,,,,,,,,,,,,,,,,199879,18,2022-01-28_19h20.53.847,lexical_decision_task_DD_L3,2021.2.3,Win32,61.60670281,,,,,,,,,,,,0.997,1,,,,,,,,,,,,,,,,,,,,,,,,0.101851852,-0.077777778,0,0,0,,,,,,,WAGON,C,z,m,./images/WAGON.png,,,,,,,z,1,0.997,,,,,,,,0,25,25,91,1
,,,,,,,,,,,,,,,,,199879,18,2022-01-28_19h20.53.847,lexical_decision_task_DD_L3,2021.2.3,Win32,61.60670281,,,,,,,,,,,,0.8153,1,,,,,,,,,,,,,,,,,,,,,,,,0.101851852,-0.077777778,0,0,0,,,,,,,QUILL,C,m,m,./images/QUILL.png,,,,,,,m,1,0.8153,,,,,,,,0,26,26,31,1
,,,,,,,,,,,,,,,,,199879,18,2022-01-28_19h20.53.847,lexical_decision_task_DD_L3,2021.2.3,Win32,61.60670281,,,,,,,,,,,,0.8054,0,,,,,,,,,,,,,,,,,,,,,,,,0.101851852,-0.077777778,0,0,0,,,,,,,PACKET,HB,m,m,./images/PACKETHB.png,,,,,,,z,0,0.8054,,,,,,,,0,27,27,56,1
,,,,,,,,,,,,,,,,,199879,18,2022-01-28_19h20.53.847,lexical_decision_task_DD_L3,2021.2.3,Win32,61.60670281,,,,,,,,,,,,1.3516,1,,,,,,,,,,,,,,,,,,,,,,,,0.101851852,-0.077777778,0,0,0,,,,,,,PILOT,HB,z,m,./images/PILOTHB.png,,,,,,,z,1,1.3516,,,,,,,,0,28,28,134,1
,,,,,,,,,,,,,,,,,199879,18,2022-01-28_19h20.53.847,lexical_decision_task_DD_L3,2021.2.3,Win32,61.60670281,,,,,,,,,,,,1.1686,1,,,,,,,,,,,,,,,,,,,,,,,,0.101851852,-0.077777778,0,0,0,,,,,,,POSTER,HB,z,m,./images/POSTERHB.png,,,,,,,z,1,1.1686,,,,,,,,0,29,29,137,1
,,,,,,,,,,,,,,,,,199879,18,2022-01-28_19h20.53.847,lexical_decision_task_DD_L3,2021.2.3,Win32,61.60670281,,,,,,,,,,,,0.5018,1,,,,,,,,,,,,,,,,,,,,,,,,0.101851852,-0.077777778,0,0,0,,,,,,,COOKER,LB,m,m,./images/COOKERLB.png,,,,,,,m,1,0.5018,,,,,,,,0,30,30,69,1
,,,,,,,,,,,,,,,,,199879,18,2022-01-28_19h20.53.847,lexical_decision_task_DD_L3,2021.2.3,Win32,61.60670281,,,,,,,,,,,,0.8501,1,,,,,,,,,,,,,,,,,,,,,,,,0.101851852,-0.077777778,0,0,0,,,,,,,PARADE,HB,z,m,./images/PARADEHB.png,,,,,,,z,1,0.8501,,,,,,,,0,31,31,101,1
,,,,,,,,,,,,,,,,,199879,18,2022-01-28_19h20.53.847,lexical_decision_task_DD_L3,2021.2.3,Win32,61.60670281,,,,,,,,,,,,1.09,1,,,,,,,,,,,,,,,,,,,,,,,,0.101851852,-0.077777778,0,0,0,,,,,,,MAMMAL,HB,z,m,./images/MAMMALHB.png,,,,,,,z,1,1.09,,,,,,,,0,32,32,146,1
,,,,,,,,,,,,,,,,,199879,18,2022-01-28_19h20.53.847,lexical_decision_task_DD_L3,2021.2.3,Win32,61.60670281,,,,,,,,,,,,0.5693,1,,,,,,,,,,,,,,,,,,,,,,,,0.101851852,-0.077777778,0,0,0,,,,,,,MOSQUE,C,m,m,./images/MOSQUE.png,,,,,,,m,1,0.5693,,,,,,,,0,33,33,43,1
,,,,,,,,,,,,,,,,,199879,18,2022-01-28_19h20.53.847,lexical_decision_task_DD_L3,2021.2.3,Win32,61.60670281,,,,,,,,,,,,0.9345,1,,,,,,,,,,,,,,,,,,,,,,,,0.101851852,-0.077777778,0,0,0,,,,,,,CRATER,LB,z,m,./images/CRATERLB.png,,,,,,,z,1,0.9345,,,,,,,,0,34,34,87,1
,,,,,,,,,,,,,,,,,199879,18,2022-01-28_19h20.53.847,lexical_decision_task_DD_L3,2021.2.3,Win32,61.60670281,,,,,,,,,,,,1.1657,0,,,,,,,,,,,,,,,,,,,,,,,,0.101851852,-0.077777778,0,0,0,,,,,,,STEAK,C,z,m,./images/STEAK.png,,,,,,,m,0,1.1657,,,,,,,,0,35,35,115,1
,,,,,,,,,,,,,,,,,199879,18,2022-01-28_19h20.53.847,lexical_decision_task_DD_L3,2021.2.3,Win32,61.60670281,,,,,,,,,,,,0.6337,1,,,,,,,,,,,,,,,,,,,,,,,,0.101851852,-0.077777778,0,0,0,,,,,,,THROAT,LB,m,m,./images/THROATLB.png,,,,,,,m,1,0.6337,,,,,,,,0,36,36,36,1
,,,,,,,,,,,,,,,,,199879,18,2022-01-28_19h20.53.847,lexical_decision_task_DD_L3,2021.2.3,Win32,61.60670281,,,,,,,,,,,,0.5691,0,,,,,,,,,,,,,,,,,,,,,,,,0.101851852,-0.077777778,0,0,0,,,,,,,FINGER,LB,m,m,./images/FINGERLB.png,,,,,,,z,0,0.5691,,,,,,,,0,37,37,3,1
,,,,,,,,,,,,,,,,,199879,18,2022-01-28_19h20.53.847,lexical_decision_task_DD_L3,2021.2.3,Win32,61.60670281,,,,,,,,,,,,0.9845,1,,,,,,,,,,,,,,,,,,,,,,,,0.101851852,-0.077777778,0,0,0,,,,,,,BAMBOO,HB,z,m,./images/BAMBOOHB.png,,,,,,,z,1,0.9845,,,,,,,,0,38,38,89,1
,,,,,,,,,,,,,,,,,199879,18,2022-01-28_19h20.53.847,lexical_decision_task_DD_L3,2021.2.3,Win32,61.60670281,,,,,,,,,,,,0.8485,0,,,,,,,,,,,,,,,,,,,,,,,,0.101851852,-0.077777778,0,0,0,,,,,,,STOOL,C,z,m,./images/STOOL.png,,,,,,,m,0,0.8485,,,,,,,,0,39,39,127,1
,,,,,,,,,,,,,,,,,199879,18,2022-01-28_19h20.53.847,lexical_decision_task_DD_L3,2021.2.3,Win32,61.60670281,,,,,,,,,,,,0.7314,1,,,,,,,,,,,,,,,,,,,,,,,,0.101851852,-0.077777778,0,0,0,,,,,,,STREAM,HB,z,m,./images/STREAMHB.png,,,,,,,z,1,0.7314,,,,,,,,0,40,40,125,1
,,,,,,,,,,,,,,,,,199879,18,2022-01-28_19h20.53.847,lexical_decision_task_DD_L3,2021.2.3,Win32,61.60670281,,,,,,,,,,,,0.9538,1,,,,,,,,,,,,,,,,,,,,,,,,0.07037037,-0.431481481,1,0,0,,,,,,,FARMER,HB,m,m,./images/FARMERHB.png,break_done_button,,,,,,m,1,0.9538,,,,,,,,0,41,41,65,1
,,,,,,,,,,,,,,,,,199879,18,2022-01-28_19h20.53.847,lexical_decision_task_DD_L3,2021.2.3,Win32,61.60670281,,,,,,,,,,,,0.8086,1,,,,,,,,,,,,,,,,,,,,,,,,0.071296296,-0.35,0,0,0,,,,,,,SHORE,LB,m,m,./images/SHORELB.png,,,,,,,m,1,0.8086,,,,,,,,0,42,42,12,1
,,,,,,,,,,,,,,,,,199879,18,2022-01-28_19h20.53.847,lexical_decision_task_DD_L3,2021.2.3,Win32,61.60670281,,,,,,,,,,,,0.7191,1,,,,,,,,,,,,,,,,,,,,,,,,0.071296296,-0.35,0,0,0,,,,,,,PASTA,HB,m,m,./images/PASTAHB.png,,,,,,,m,1,0.7191,,,,,,,,0,43,43,5,1
,,,,,,,,,,,,,,,,,199879,18,2022-01-28_19h20.53.847,lexical_decision_task_DD_L3,2021.2.3,Win32,61.60670281,,,,,,,,,,,,1.0035,1,,,,,,,,,,,,,,,,,,,,,,,,0.071296296,-0.35,0,0,0,,,,,,,WALRUS,HB,m,m,./images/WALRUSHB.png,,,,,,,m,1,1.0035,,,,,,,,0,44,44,23,1
,,,,,,,,,,,,,,,,,199879,18,2022-01-28_19h20.53.847,lexical_decision_task_DD_L3,2021.2.3,Win32,61.60670281,,,,,,,,,,,,0.5478,0,,,,,,,,,,,,,,,,,,,,,,,,0.071296296,-0.35,0,0,0,,,,,,,JAGUAR,LB,m,m,./images/JAGUARLB.png,,,,,,,z,0,0.5478,,,,,,,,0,45,45,18,1
,,,,,,,,,,,,,,,,,199879,18,2022-01-28_19h20.53.847,lexical_decision_task_DD_L3,2021.2.3,Win32,61.60670281,,,,,,,,,,,,0.6084,0,,,,,,,,,,,,,,,,,,,,,,,,0.071296296,-0.35,0,0,0,,,,,,,WRIST,C,m,m,./images/WRIST.png,,,,,,,z,0,0.6084,,,,,,,,0,46,46,25,1
,,,,,,,,,,,,,,,,,199879,18,2022-01-28_19h20.53.847,lexical_decision_task_DD_L3,2021.2.3,Win32,61.60670281,,,,,,,,,,,,0.7886,1,,,,,,,,,,,,,,,,,,,,,,,,0.071296296,-0.35,0,0,0,,,,,,,HEATER,HB,z,m,./images/HEATERHB.png,,,,,,,z,1,0.7886,,,,,,,,0,47,47,140,1
,,,,,,,,,,,,,,,,,199879,18,2022-01-28_19h20.53.847,lexical_decision_task_DD_L3,2021.2.3,Win32,61.60670281,,,,,,,,,,,,0.9165,1,,,,,,,,,,,,,,,,,,,,,,,,0.071296296,-0.35,0,0,0,,,,,,,SMOKER,HB,m,m,./images/SMOKERHB.png,,,,,,,m,1,0.9165,,,,,,,,0,48,48,26,1
,,,,,,,,,,,,,,,,,199879,18,2022-01-28_19h20.53.847,lexical_decision_task_DD_L3,2021.2.3,Win32,61.60670281,,,,,,,,,,,,0.9414,1,,,,,,,,,,,,,,,,,,,,,,,,0.071296296,-0.35,0,0,0,,,,,,,POODLE,LB,m,m,./images/POODLELB.png,,,,,,,m,1,0.9414,,,,,,,,0,49,49,81,1
,,,,,,,,,,,,,,,,,199879,18,2022-01-28_19h20.53.847,lexical_decision_task_DD_L3,2021.2.3,Win32,61.60670281,,,,,,,,,,,,1.1061,1,,,,,,,,,,,,,,,,,,,,,,,,0.071296296,-0.35,0,0,0,,,,,,,STAIN,LB,z,m,./images/STAINLB.png,,,,,,,z,1,1.1061,,,,,,,,0,50,50,90,1
,,,,,,,,,,,,,,,,,199879,18,2022-01-28_19h20.53.847,lexical_decision_task_DD_L3,2021.2.3,Win32,61.60670281,,,,,,,,,,,,0.8971,1,,,,,,,,,,,,,,,,,,,,,,,,0.071296296,-0.35,0,0,0,,,,,,,MELON,C,m,m,./images/MELON.png,,,,,,,m,1,0.8971,,,,,,,,0,51,51,22,1
,,,,,,,,,,,,,,,,,199879,18,2022-01-28_19h20.53.847,lexical_decision_task_DD_L3,2021.2.3,Win32,61.60670281,,,,,,,,,,,,0.8509,1,,,,,,,,,,,,,,,,,,,,,,,,0.071296296,-0.35,0,0,0,,,,,,,DOUGH,C,m,m,./images/DOUGH.png,,,,,,,m,1,0.8509,,,,,,,,0,52,52,19,1
,,,,,,,,,,,,,,,,,199879,18,2022-01-28_19h20.53.847,lexical_decision_task_DD_L3,2021.2.3,Win32,61.60670281,,,,,,,,,,,,0.5802,0,,,,,,,,,,,,,,,,,,,,,,,,0.071296296,-0.35,0,0,0,,,,,,,LITTER,LB,m,m,./images/LITTERLB.png,,,,,,,z,0,0.5802,,,,,,,,0,53,53,78,1
,,,,,,,,,,,,,,,,,199879,18,2022-01-28_19h20.53.847,lexical_decision_task_DD_L3,2021.2.3,Win32,61.60670281,,,,,,,,,,,,1.2909,1,,,,,,,,,,,,,,,,,,,,,,,,0.099074074,-0.332407407,0,0,0,,,,,,,CLOWN,C,z,m,./images/CLOWN.png,,,,,,,z,1,1.2909,,,,,,,,0,54,54,106,1
,,,,,,,,,,,,,,,,,199879,18,2022-01-28_19h20.53.847,lexical_decision_task_DD_L3,2021.2.3,Win32,61.60670281,,,,,,,,,,,,0.7406,1,,,,,,,,,,,,,,,,,,,,,,,,0.099074074,-0.332407407,0,0,0,,,,,,,POKER,C,z,m,./images/POKER.png,,,,,,,z,1,0.7406,,,,,,,,0,55,55,151,1
,,,,,,,,,,,,,,,,,199879,18,2022-01-28_19h20.53.847,lexical_decision_task_DD_L3,2021.2.3,Win32,61.60670281,,,,,,,,,,,,0.7638,1,,,,,,,,,,,,,,,,,,,,,,,,0.099074074,-0.332407407,0,0,0,,,,,,,HOCKEY,HB,z,m,./images/HOCKEYHB.png,,,,,,,z,1,0.7638,,,,,,,,0,56,56,116,1
,,,,,,,,,,,,,,,,,199879,18,2022-01-28_19h20.53.847,lexical_decision_task_DD_L3,2021.2.3,Win32,61.60670281,,,,,,,,,,,,0.8699,1,,,,,,,,,,,,,,,,,,,,,,,,0.099074074,-0.332407407,0,0,0,,,,,,,BOILER,LB,z,m,./images/BOILERLB.png,,,,,,,z,1,0.8699,,,,,,,,0,57,57,120,1
,,,,,,,,,,,,,,,,,199879,18,2022-01-28_19h20.53.847,lexical_decision_task_DD_L3,2021.2.3,Win32,61.60670281,,,,,,,,,,,,0.7596,0,,,,,,,,,,,,,,,,,,,,,,,,0.099074074,-0.332407407,0,0,0,,,,,,,FOLDER,LB,m,m,./images/FOLDERLB.png,,,,,,,z,0,0.7596,,,,,,,,0,58,58,42,1
,,,,,,,,,,,,,,,,,199879,18,2022-01-28_19h20.53.847,lexical_decision_task_DD_L3,2021.2.3,Win32,61.60670281,,,,,,,,,,,,0.5064,1,,,,,,,,,,,,,,,,,,,,,,,,0.099074074,-0.332407407,0,0,0,,,,,,,BERRY,HB,m,m,./images/BERRYHB.png,,,,,,,m,1,0.5064,,,,,,,,0,59,59,47,1
,,,,,,,,,,,,,,,,,199879,18,2022-01-28_19h20.53.847,lexical_decision_task_DD_L3,2021.2.3,Win32,61.60670281,,,,,,,,,,,,0.6708,1,,,,,,,,,,,,,,,,,,,,,,,,0.099074074,-0.332407407,0,0,0,,,,,,,CHAIN,LB,z,m,./images/CHAINLB.png,,,,,,,z,1,0.6708,,,,,,,,0,60,60,126,1
,,,,,,,,,,,,,,,,,199879,18,2022-01-28_19h20.53.847,lexical_decision_task_DD_L3,2021.2.3,Win32,61.60670281,,,,,,,,,,,,0.598,1,,,,,,,,,,,,,,,,,,,,,,,,0.099074074,-0.332407407,0,0,0,,,,,,,BARREL,HB,m,m,./images/BARRELHB.png,,,,,,,m,1,0.598,,,,,,,,0,61,61,32,1
,,,,,,,,,,,,,,,,,199879,18,2022-01-28_19h20.53.847,lexical_decision_task_DD_L3,2021.2.3,Win32,61.60670281,,,,,,,,,,,,0.7805,0,,,,,,,,,,,,,,,,,,,,,,,,0.099074074,-0.332407407,0,0,0,,,,,,,BEARD,HB,m,m,./images/BEARDHB.png,,,,,,,z,0,0.7805,,,,,,,,0,62,62,2,1
,,,,,,,,,,,,,,,,,199879,18,2022-01-28_19h20.53.847,lexical_decision_task_DD_L3,2021.2.3,Win32,61.60670281,,,,,,,,,,,,0.6921,0,,,,,,,,,,,,,,,,,,,,,,,,0.099074074,-0.332407407,0,0,0,,,,,,,SHELF,LB,m,m,./images/SHELFLB.png,,,,,,,z,0,0.6921,,,,,,,,0,63,63,39,1
,,,,,,,,,,,,,,,,,199879,18,2022-01-28_19h20.53.847,lexical_decision_task_DD_L3,2021.2.3,Win32,61.60670281,,,,,,,,,,,,0.5805,0,,,,,,,,,,,,,,,,,,,,,,,,0.099074074,-0.332407407,0,0,0,,,,,,,BASKET,HB,z,m,./images/BASKETHB.png,,,,,,,m,0,0.5805,,,,,,,,0,64,64,128,1
,,,,,,,,,,,,,,,,,199879,18,2022-01-28_19h20.53.847,lexical_decision_task_DD_L3,2021.2.3,Win32,61.60670281,,,,,,,,,,,,0.7506,0,,,,,,,,,,,,,,,,,,,,,,,,0.099074074,-0.332407407,0,0,0,,,,,,,MAGGOT,LB,m,m,./images/MAGGOTLB.png,,,,,,,z,0,0.7506,,,,,,,,0,65,65,33,1
,,,,,,,,,,,,,,,,,199879,18,2022-01-28_19h20.53.847,lexical_decision_task_DD_L3,2021.2.3,Win32,61.60670281,,,,,,,,,,,,0.9054,1,,,,,,,,,,,,,,,,,,,,,,,,0.099074074,-0.332407407,0,0,0,,,,,,,BAKER,LB,z,m,./images/BAKERLB.png,,,,,,,z,1,0.9054,,,,,,,,0,66,66,147,1
,,,,,,,,,,,,,,,,,199879,18,2022-01-28_19h20.53.847,lexical_decision_task_DD_L3,2021.2.3,Win32,61.60670281,,,,,,,,,,,,0.9395,1,,,,,,,,,,,,,,,,,,,,,,,,0.099074074,-0.332407407,0,0,0,,,,,,,SHIELD,LB,z,m,./images/SHIELDLB.png,,,,,,,z,1,0.9395,,,,,,,,0,67,67,132,1
,,,,,,,,,,,,,,,,,199879,18,2022-01-28_19h20.53.847,lexical_decision_task_DD_L3,2021.2.3,Win32,61.60670281,,,,,,,,,,,,0.5056,1,,,,,,,,,,,,,,,,,,,,,,,,0.099074074,-0.332407407,0,0,0,,,,,,,CRUMB,HB,m,m,./images/CRUMBHB.png,,,,,,,m,1,0.5056,,,,,,,,0,68,68,29,1
,,,,,,,,,,,,,,,,,199879,18,2022-01-28_19h20.53.847,lexical_decision_task_DD_L3,2021.2.3,Win32,61.60670281,,,,,,,,,,,,0.5702,1,,,,,,,,,,,,,,,,,,,,,,,,0.099074074,-0.332407407,0,0,0,,,,,,,ENGINE,HB,z,m,./images/ENGINEHB.png,,,,,,,z,1,0.5702,,,,,,,,0,69,69,122,1
,,,,,,,,,,,,,,,,,199879,18,2022-01-28_19h20.53.847,lexical_decision_task_DD_L3,2021.2.3,Win32,61.60670281,,,,,,,,,,,,0.7416,1,,,,,,,,,,,,,,,,,,,,,,,,0.099074074,-0.332407407,0,0,0,,,,,,,FLESH,LB,z,m,./images/FLESHLB.png,,,,,,,z,1,0.7416,,,,,,,,0,70,70,108,1
,,,,,,,,,,,,,,,,,199879,18,2022-01-28_19h20.53.847,lexical_decision_task_DD_L3,2021.2.3,Win32,61.60670281,,,,,,,,,,,,0.7172,1,,,,,,,,,,,,,,,,,,,,,,,,0.099074074,-0.332407407,0,0,0,,,,,,,ATTIC,LB,m,m,./images/ATTICLB.png,,,,,,,m,1,0.7172,,,,,,,,0,71,71,27,1
,,,,,,,,,,,,,,,,,199879,18,2022-01-28_19h20.53.847,lexical_decision_task_DD_L3,2021.2.3,Win32,61.60670281,,,,,,,,,,,,0.651,0,,,,,,,,,,,,,,,,,,,,,,,,0.099074074,-0.332407407,0,0,0,,,,,,,JUNGLE,HB,m,m,./images/JUNGLEHB.png,,,,,,,z,0,0.651,,,,,,,,0,72,72,83,1
,,,,,,,,,,,,,,,,,199879,18,2022-01-28_19h20.53.847,lexical_decision_task_DD_L3,2021.2.3,Win32,61.60670281,,,,,,,,,,,,0.7583,1,,,,,,,,,,,,,,,,,,,,,,,,0.099074074,-0.332407407,0,0,0,,,,,,,RAZOR,C,z,m,./images/RAZOR.png,,,,,,,z,1,0.7583,,,,,,,,0,73,73,118,1
,,,,,,,,,,,,,,,,,199879,18,2022-01-28_19h20.53.847,lexical_decision_task_DD_L3,2021.2.3,Win32,61.60670281,,,,,,,,,,,,0.9639,1,,,,,,,,,,,,,,,,,,,,,,,,0.099074074,-0.332407407,0,0,0,,,,,,,CANYON,C,m,m,./images/CANYON.png,,,,,,,m,1,0.9639,,,,,,,,0,74,74,34,1
,,,,,,,,,,,,,,,,,199879,18,2022-01-28_19h20.53.847,lexical_decision_task_DD_L3,2021.2.3,Win32,61.60670281,,,,,,,,,,,,0.6381,0,,,,,,,,,,,,,,,,,,,,,,,,0.099074074,-0.332407407,0,0,0,,,,,,,FALCON,C,m,m,./images/FALCON.png,,,,,,,z,0,0.6381,,,,,,,,0,75,75,28,1
,,,,,,,,,,,,,,,,,199879,18,2022-01-28_19h20.53.847,lexical_decision_task_DD_L3,2021.2.3,Win32,61.60670281,,,,,,,,,,,,0.6328,1,,,,,,,,,,,,,,,,,,,,,,,,0.099074074,-0.332407407,0,0,0,,,,,,,GRANNY,HB,z,m,./images/GRANNYHB.png,,,,,,,z,1,0.6328,,,,,,,,0,76,76,104,1
,,,,,,,,,,,,,,,,,199879,18,2022-01-28_19h20.53.847,lexical_decision_task_DD_L3,2021.2.3,Win32,61.60670281,,,,,,,,,,,,0.4561,0,,,,,,,,,,,,,,,,,,,,,,,,0.099074074,-0.332407407,0,0,0,,,,,,,SPORT,LB,m,m,./images/SPORTLB.png,,,,,,,z,0,0.4561,,,,,,,,0,77,77,48,1
,,,,,,,,,,,,,,,,,199879,18,2022-01-28_19h20.53.847,lexical_decision_task_DD_L3,2021.2.3,Win32,61.60670281,,,,,,,,,,,,0.5053,1,,,,,,,,,,,,,,,,,,,,,,,,0.099074074,-0.332407407,0,0,0,,,,,,,WEASEL,HB,m,m,./images/WEASELHB.png,,,,,,,m,1,0.5053,,,,,,,,0,78,78,80,1
,,,,,,,,,,,,,,,,,199879,18,2022-01-28_19h20.53.847,lexical_decision_task_DD_L3,2021.2.3,Win32,61.60670281,,,,,,,,,,,,0.8303,1,,,,,,,,,,,,,,,,,,,,,,,,0.099074074,-0.332407407,0,0,0,,,,,,,CLIFF,HB,z,m,./images/CLIFFHB.png,,,,,,,z,1,0.8303,,,,,,,,0,79,79,92,1
,,,,,,,,,,,,,,,,,199879,18,2022-01-28_19h20.53.847,lexical_decision_task_DD_L3,2021.2.3,Win32,61.60670281,,,,,,,,,,,,0.7477,1,,,,,,,,,,,,,,,,,,,,,,,,0.099074074,-0.332407407,0,0,0,,,,,,,STORM,LB,m,m,./images/STORMLB.png,,,,,,,m,1,0.7477,,,,,,,,0,80,80,30,1
,,,,,,,,,,,,,,,,,199879,18,2022-01-28_19h20.53.847,lexical_decision_task_DD_L3,2021.2.3,Win32,61.60670281,,,,,,,,,,,,0.4943,1,,,,,,,,,,,,,,,,,,,,,,,,0.099074074,-0.332407407,0,0,0,,,,,,,MIRROR,LB,m,m,./images/MIRRORLB.png,,,,,,,m,1,0.4943,,,,,,,,0,81,81,63,1
,,,,,,,,,,,,,,,,,199879,18,2022-01-28_19h20.53.847,lexical_decision_task_DD_L3,2021.2.3,Win32,61.60670281,,,,,,,,,,,,0.5671,0,,,,,,,,,,,,,,,,,,,,,,,,0.099074074,-0.332407407,0,0,0,,,,,,,PENCE,C,m,m,./images/PENCE.png,,,,,,,z,0,0.5671,,,,,,,,0,82,82,16,1
,,,,,,,,,,,,,,,,,199879,18,2022-01-28_19h20.53.847,lexical_decision_task_DD_L3,2021.2.3,Win32,61.60670281,,,,,,,,,,,,0.4709,1,,,,,,,,,,,,,,,,,,,,,,,,0.059259259,-0.377777778,1,0,0,,,,,,,SKIING,HB,m,m,./images/SKIINGHB.png,break_done_button,,,,,,m,1,0.4709,,,,,,,,0,83,83,17,1
,,,,,,,,,,,,,,,,,199879,18,2022-01-28_19h20.53.847,lexical_decision_task_DD_L3,2021.2.3,Win32,61.60670281,,,,,,,,,,,,0.9652,1,,,,,,,,,,,,,,,,,,,,,,,,0.075925926,-0.383333333,0,0,0,,,,,,,WHEEL,HB,z,m,./images/WHEELHB.png,,,,,,,z,1,0.9652,,,,,,,,0,84,84,161,1
,,,,,,,,,,,,,,,,,199879,18,2022-01-28_19h20.53.847,lexical_decision_task_DD_L3,2021.2.3,Win32,61.60670281,,,,,,,,,,,,0.7896,1,,,,,,,,,,,,,,,,,,,,,,,,0.075925926,-0.383333333,0,0,0,,,,,,,TULIP,HB,m,m,./images/TULIPHB.png,,,,,,,m,1,0.7896,,,,,,,,0,85,85,8,1
,,,,,,,,,,,,,,,,,199879,18,2022-01-28_19h20.53.847,lexical_decision_task_DD_L3,2021.2.3,Win32,61.60670281,,,,,,,,,,,,0.692,0,,,,,,,,,,,,,,,,,,,,,,,,0.075925926,-0.383333333,0,0,0,,,,,,,DRILL,LB,z,m,./images/DRILLLB.png,,,,,,,m,0,0.692,,,,,,,,0,86,86,165,1
,,,,,,,,,,,,,,,,,199879,18,2022-01-28_19h20.53.847,lexical_decision_task_DD_L3,2021.2.3,Win32,61.60670281,,,,,,,,,,,,0.8332,1,,,,,,,,,,,,,,,,,,,,,,,,0.075925926,-0.383333333,0,0,0,,,,,,,PIMPLE,HB,m,m,./images/PIMPLEHB.png,,,,,,,m,1,0.8332,,,,,,,,0,87,87,71,1
,,,,,,,,,,,,,,,,,199879,18,2022-01-28_19h20.53.847,lexical_decision_task_DD_L3,2021.2.3,Win32,61.60670281,,,,,,,,,,,,0.6474,1,,,,,,,,,,,,,,,,,,,,,,,,0.075925926,-0.383333333,0,0,0,,,,,,,MEDAL,HB,z,m,./images/MEDALHB.png,,,,,,,z,1,0.6474,,,,,,,,0,88,88,95,1
,,,,,,,,,,,,,,,,,199879,18,2022-01-28_19h20.53.847,lexical_decision_task_DD_L3,2021.2.3,Win32,61.60670281,,,,,,,,,,,,0.8026,1,,,,,,,,,,,,,,,,,,,,,,,,0.075925926,-0.383333333,0,0,0,,,,,,,BANNER,C,m,m,./images/BANNER.png,,,,,,,m,1,0.8026,,,,,,,,0,89,89,52,1
,,,,,,,,,,,,,,,,,199879,18,2022-01-28_19h20.53.847,lexical_decision_task_DD_L3,2021.2.3,Win32,61.60670281,,,,,,,,,,,,0.6031,1,,,,,,,,,,,,,,,,,,,,,,,,0.075925926,-0.383333333,0,0,0,,,,,,,STATUE,LB,z,m,./images/STATUELB.png,,,,,,,z,1,0.6031,,,,,,,,0,90,90,150,1
,,,,,,,,,,,,,,,,,199879,18,2022-01-28_19h20.53.847,lexical_decision_task_DD_L3,2021.2.3,Win32,61.60670281,,,,,,,,,,,,0.7649,1,,,,,,,,,,,,,,,,,,,,,,,,0.075925926,-0.383333333,0,0,0,,,,,,,JUMPER,HB,z,m,./images/JUMPERHB.png,,,,,,,z,1,0.7649,,,,,,,,0,91,91,158,1
,,,,,,,,,,,,,,,,,199879,18,2022-01-28_19h20.53.847,lexical_decision_task_DD_L3,2021.2.3,Win32,61.60670281,,,,,,,,,,,,0.642,0,,,,,,,,,,,,,,,,,,,,,,,,0.075925926,-0.383333333,0,0,0,,,,,,,PICKLE,HB,m,m,./images/PICKLEHB.png,,,,,,,z,0,0.642,,,,,,,,0,92,92,14,1
,,,,,,,,,,,,,,,,,199879,18,2022-01-28_19h20.53.847,lexical_decision_task_DD_L3,2021.2.3,Win32,61.60670281,,,,,,,,,,,,0.7733,1,,,,,,,,,,,,,,,,,,,,,,,,0.075925926,-0.383333333,0,0,0,,,,,,,PARCEL,LB,z,m,./images/PARCELLB.png,,,,,,,z,1,0.7733,,,,,,,,0,93,93,102,1
,,,,,,,,,,,,,,,,,199879,18,2022-01-28_19h20.53.847,lexical_decision_task_DD_L3,2021.2.3,Win32,61.60670281,,,,,,,,,,,,0.6146,1,,,,,,,,,,,,,,,,,,,,,,,,0.075925926,-0.383333333,0,0,0,,,,,,,TIGER,C,z,m,./images/TIGER.png,,,,,,,z,1,0.6146,,,,,,,,0,94,94,121,1
,,,,,,,,,,,,,,,,,199879,18,2022-01-28_19h20.53.847,lexical_decision_task_DD_L3,2021.2.3,Win32,61.60670281,,,,,,,,,,,,3.1172,0,,,,,,,,,,,,,,,,,,,,,,,,0.075925926,-0.383333333,0,0,0,,,,,,,GARDEN,C,z,m,./images/GARDEN.png,,,,,,,m,0,3.1172,,,,,,,,0,95,95,94,1
,,,,,,,,,,,,,,,,,199879,18,2022-01-28_19h20.53.847,lexical_decision_task_DD_L3,2021.2.3,Win32,61.60670281,,,,,,,,,,,,0.7475,1,,,,,,,,,,,,,,,,,,,,,,,,0.075925926,-0.383333333,0,0,0,,,,,,,BOXER,C,z,m,./images/BOXER.png,,,,,,,z,1,0.7475,,,,,,,,0,96,96,88,1
,,,,,,,,,,,,,,,,,199879,18,2022-01-28_19h20.53.847,lexical_decision_task_DD_L3,2021.2.3,Win32,61.60670281,,,,,,,,,,,,0.8744,1,,,,,,,,,,,,,,,,,,,,,,,,0.075925926,-0.383333333,0,0,0,,,,,,,CARPET,HB,m,m,./images/CARPETHB.png,,,,,,,m,1,0.8744,,,,,,,,0,97,97,53,1
,,,,,,,,,,,,,,,,,199879,18,2022-01-28_19h20.53.847,lexical_decision_task_DD_L3,2021.2.3,Win32,61.60670281,,,,,,,,,,,,0.7344,1,,,,,,,,,,,,,,,,,,,,,,,,0.075925926,-0.383333333,0,0,0,,,,,,,PLANET,HB,z,m,./images/PLANETHB.png,,,,,,,z,1,0.7344,,,,,,,,0,98,98,164,1
,,,,,,,,,,,,,,,,,199879,18,2022-01-28_19h20.53.847,lexical_decision_task_DD_L3,2021.2.3,Win32,61.60670281,,,,,,,,,,,,0.6648,0,,,,,,,,,,,,,,,,,,,,,,,,0.075925926,-0.383333333,0,0,0,,,,,,,TRIPOD,LB,m,m,./images/TRIPODLB.png,,,,,,,z,0,0.6648,,,,,,,,0,99,99,54,1
,,,,,,,,,,,,,,,,,199879,18,2022-01-28_19h20.53.847,lexical_decision_task_DD_L3,2021.2.3,Win32,61.60670281,,,,,,,,,,,,0.5531,1,,,,,,,,,,,,,,,,,,,,,,,,0.075925926,-0.383333333,0,0,0,,,,,,,GLOVE,C,z,m,./images/GLOVE.png,,,,,,,z,1,0.5531,,,,,,,,0,100,100,157,1
,,,,,,,,,,,,,,,,,199879,18,2022-01-28_19h20.53.847,lexical_decision_task_DD_L3,2021.2.3,Win32,61.60670281,,,,,,,,,,,,0.6059,1,,,,,,,,,,,,,,,,,,,,,,,,0.075925926,-0.383333333,0,0,0,,,,,,,RHINO,LB,m,m,./images/RHINOLB.png,,,,,,,m,1,0.6059,,,,,,,,0,101,101,9,1
,,,,,,,,,,,,,,,,,199879,18,2022-01-28_19h20.53.847,lexical_decision_task_DD_L3,2021.2.3,Win32,61.60670281,,,,,,,,,,,,0.8696,1,,,,,,,,,,,,,,,,,,,,,,,,0.075925926,-0.383333333,0,0,0,,,,,,,DESERT,C,z,m,./images/DESERT.png,,,,,,,z,1,0.8696,,,,,,,,0,102,102,136,1
,,,,,,,,,,,,,,,,,199879,18,2022-01-28_19h20.53.847,lexical_decision_task_DD_L3,2021.2.3,Win32,61.60670281,,,,,,,,,,,,0.8017,0,,,,,,,,,,,,,,,,,,,,,,,,0.075925926,-0.383333333,0,0,0,,,,,,,WHISKY,HB,z,m,./images/WHISKYHB.png,,,,,,,m,0,0.8017,,,,,,,,0,103,103,167,1
,,,,,,,,,,,,,,,,,199879,18,2022-01-28_19h20.53.847,lexical_decision_task_DD_L3,2021.2.3,Win32,61.60670281,,,,,,,,,,,,0.5581,0,,,,,,,,,,,,,,,,,,,,,,,,0.075925926,-0.383333333,0,0,0,,,,,,,PEARL,C,m,m,./images/PEARL.png,,,,,,,z,0,0.5581,,,,,,,,0,104,104,46,1
,,,,,,,,,,,,,,,,,199879,18,2022-01-28_19h20.53.847,lexical_decision_task_DD_L3,2021.2.3,Win32,61.60670281,,,,,,,,,,,,1.2034,1,,,,,,,,,,,,,,,,,,,,,,,,0.075925926,-0.383333333,0,0,0,,,,,,,PISTOL,HB,z,m,./images/PISTOLHB.png,,,,,,,z,1,1.2034,,,,,,,,0,105,105,113,1
,,,,,,,,,,,,,,,,,199879,18,2022-01-28_19h20.53.847,lexical_decision_task_DD_L3,2021.2.3,Win32,61.60670281,,,,,,,,,,,,0.6907,0,,,,,,,,,,,,,,,,,,,,,,,,0.075925926,-0.383333333,0,0,0,,,,,,,BELLY,C,m,m,./images/BELLY.png,,,,,,,z,0,0.6907,,,,,,,,0,106,106,10,1
,,,,,,,,,,,,,,,,,199879,18,2022-01-28_19h20.53.847,lexical_decision_task_DD_L3,2021.2.3,Win32,61.60670281,,,,,,,,,,,,0.5152,0,,,,,,,,,,,,,,,,,,,,,,,,0.075925926,-0.383333333,0,0,0,,,,,,,FLASK,LB,z,m,./images/FLASKLB.png,,,,,,,m,0,0.5152,,,,,,,,0,107,107,156,1
,,,,,,,,,,,,,,,,,199879,18,2022-01-28_19h20.53.847,lexical_decision_task_DD_L3,2021.2.3,Win32,61.60670281,,,,,,,,,,,,0.5807,1,,,,,,,,,,,,,,,,,,,,,,,,0.075925926,-0.383333333,0,0,0,,,,,,,MONKEY,LB,z,m,./images/MONKEYLB.png,,,,,,,z,1,0.5807,,,,,,,,0,108,108,129,1
,,,,,,,,,,,,,,,,,199879,18,2022-01-28_19h20.53.847,lexical_decision_task_DD_L3,2021.2.3,Win32,61.60670281,,,,,,,,,,,,2.164,0,,,,,,,,,,,,,,,,,,,,,,,,0.075925926,-0.383333333,0,0,0,,,,,,,MALLET,HB,m,m,./images/MALLETHB.png,,,,,,,z,0,2.164,,,,,,,,0,109,109,50,1
,,,,,,,,,,,,,,,,,199879,18,2022-01-28_19h20.53.847,lexical_decision_task_DD_L3,2021.2.3,Win32,61.60670281,,,,,,,,,,,,1.034,1,,,,,,,,,,,,,,,,,,,,,,,,0.075925926,-0.383333333,0,0,0,,,,,,,CLOTH,HB,z,m,./images/CLOTHHB.png,,,,,,,z,1,1.034,,,,,,,,0,110,110,107,1
,,,,,,,,,,,,,,,,,199879,18,2022-01-28_19h20.53.847,lexical_decision_task_DD_L3,2021.2.3,Win32,61.60670281,,,,,,,,,,,,0.5437,0,,,,,,,,,,,,,,,,,,,,,,,,0.075925926,-0.383333333,0,0,0,,,,,,,SNAKE,C,z,m,./images/SNAKE.png,,,,,,,m,0,0.5437,,,,,,,,0,111,111,124,1
,,,,,,,,,,,,,,,,,199879,18,2022-01-28_19h20.53.847,lexical_decision_task_DD_L3,2021.2.3,Win32,61.60670281,,,,,,,,,,,,1.177,0,,,,,,,,,,,,,,,,,,,,,,,,0.075925926,-0.383333333,0,0,0,,,,,,,COLLAR,LB,z,m,./images/COLLARLB.png,,,,,,,m,0,1.177,,,,,,,,0,112,112,99,1
,,,,,,,,,,,,,,,,,199879,18,2022-01-28_19h20.53.847,lexical_decision_task_DD_L3,2021.2.3,Win32,61.60670281,,,,,,,,,,,,0.932,1,,,,,,,,,,,,,,,,,,,,,,,,0.075925926,-0.383333333,0,0,0,,,,,,,ONION,LB,m,m,./images/ONIONLB.png,,,,,,,m,1,0.932,,,,,,,,0,113,113,51,1
,,,,,,,,,,,,,,,,,199879,18,2022-01-28_19h20.53.847,lexical_decision_task_DD_L3,2021.2.3,Win32,61.60670281,,,,,,,,,,,,0.7174,1,,,,,,,,,,,,,,,,,,,,,,,,0.075925926,-0.383333333,0,0,0,,,,,,,NOOSE,LB,m,m,./images/NOOSELB.png,,,,,,,m,1,0.7174,,,,,,,,0,114,114,72,1
,,,,,,,,,,,,,,,,,199879,18,2022-01-28_19h20.53.847,lexical_decision_task_DD_L3,2021.2.3,Win32,61.60670281,,,,,,,,,,,,0.6934,1,,,,,,,,,,,,,,,,,,,,,,,,0.075925926,-0.383333333,0,0,0,,,,,,,LLAMA,HB,z,m,./images/LLAMAHB.png,,,,,,,z,1,0.6934,,,,,,,,0,115,115,119,1
,,,,,,,,,,,,,,,,,199879,18,2022-01-28_19h20.53.847,lexical_decision_task_DD_L3,2021.2.3,Win32,61.60670281,,,,,,,,,,,,1.3821,1,,,,,,,,,,,,,,,,,,,,,,,,0.075925926,-0.383333333,0,0,0,,,,,,,TOWEL,C,z,m,./images/TOWEL.png,,,,,,,z,1,1.3821,,,,,,,,0,116,116,85,1
,,,,,,,,,,,,,,,,,199879,18,2022-01-28_19h20.53.847,lexical_decision_task_DD_L3,2021.2.3,Win32,61.60670281,,,,,,,,,,,,0.6322,1,,,,,,,,,,,,,,,,,,,,,,,,0.075925926,-0.383333333,0,0,0,,,,,,,URINE,C,m,m,./images/URINE.png,,,,,,,m,1,0.6322,,,,,,,,0,117,117,70,1
,,,,,,,,,,,,,,,,,199879,18,2022-01-28_19h20.53.847,lexical_decision_task_DD_L3,2021.2.3,Win32,61.60670281,,,,,,,,,,,,0.6536,1,,,,,,,,,,,,,,,,,,,,,,,,0.075925926,-0.383333333,0,0,0,,,,,,,BRIDE,C,z,m,./images/BRIDE.png,,,,,,,z,1,0.6536,,,,,,,,0,118,118,148,1
,,,,,,,,,,,,,,,,,199879,18,2022-01-28_19h20.53.847,lexical_decision_task_DD_L3,2021.2.3,Win32,61.60670281,,,,,,,,,,,,0.6887,1,,,,,,,,,,,,,,,,,,,,,,,,0.075925926,-0.383333333,0,0,0,,,,,,,TWINS,LB,m,m,./images/TWINSLB.png,,,,,,,m,1,0.6887,,,,,,,,0,119,119,60,1
,,,,,,,,,,,,,,,,,199879,18,2022-01-28_19h20.53.847,lexical_decision_task_DD_L3,2021.2.3,Win32,61.60670281,,,,,,,,,,,,1.0217,1,,,,,,,,,,,,,,,,,,,,,,,,0.075925926,-0.383333333,0,0,0,,,,,,,DIVER,LB,z,m,./images/DIVERLB.png,,,,,,,z,1,1.0217,,,,,,,,0,120,120,93,1
,,,,,,,,,,,,,,,,,199879,18,2022-01-28_19h20.53.847,lexical_decision_task_DD_L3,2021.2.3,Win32,61.60670281,,,,,,,,,,,,0.5536,1,,,,,,,,,,,,,,,,,,,,,,,,0.075925926,-0.383333333,0,0,0,,,,,,,SQUARE,LB,m,m,./images/SQUARELB.png,,,,,,,m,1,0.5536,,,,,,,,0,121,121,6,1
,,,,,,,,,,,,,,,,,199879,18,2022-01-28_19h20.53.847,lexical_decision_task_DD_L3,2021.2.3,Win32,61.60670281,,,,,,,,,,,,0.681,0,,,,,,,,,,,,,,,,,,,,,,,,0.075925926,-0.383333333,0,0,0,,,,,,,CANDLE,C,m,m,./images/CANDLE.png,,,,,,,z,0,0.681,,,,,,,,0,122,122,61,1
,,,,,,,,,,,,,,,,,199879,18,2022-01-28_19h20.53.847,lexical_decision_task_DD_L3,2021.2.3,Win32,61.60670281,,,,,,,,,,,,0.6648,1,,,,,,,,,,,,,,,,,,,,,,,,0.075925926,-0.383333333,0,0,0,,,,,,,CRADLE,HB,m,m,./images/CRADLEHB.png,,,,,,,m,1,0.6648,,,,,,,,0,123,123,20,1
,,,,,,,,,,,,,,,,,199879,18,2022-01-28_19h20.53.847,lexical_decision_task_DD_L3,2021.2.3,Win32,61.60670281,,,,,,,,,,,,0.5718,1,,,,,,,,,,,,,,,,,,,,,,,,0.075925926,-0.383333333,0,0,0,,,,,,,MOTOR,C,m,m,./images/MOTOR.png,,,,,,,m,1,0.5718,,,,,,,,0,124,124,13,1
,,,,,,,,,,,,,,,,,199879,18,2022-01-28_19h20.53.847,lexical_decision_task_DD_L3,2021.2.3,Win32,61.60670281,,,,,,,,,,,,0.755,1,,,,,,,,,,,,,,,,,,,,,,,,0.075925926,-0.383333333,1,0,0,,,,,,,STOVE,HB,z,m,./images/STOVEHB.png,break_done_button,,,,,,z,1,0.755,,,,,,,,0,125,125,86,1
,,,,,,,,,,,,,,,,,199879,18,2022-01-28_19h20.53.847,lexical_decision_task_DD_L3,2021.2.3,Win32,61.60670281,,,,,,,,,,,,0.9193,0,,,,,,,,,,,,,,,,,,,,,,,,0.176851852,-0.10462963,0,0,0,,,,,,,MUSCLE,C,m,m,./images/MUSCLE.png,,,,,,,z,0,0.9193,,,,,,,,0,126,126,4,1
,,,,,,,,,,,,,,,,,199879,18,2022-01-28_19h20.53.847,lexical_decision_task_DD_L3,2021.2.3,Win32,61.60670281,,,,,,,,,,,,0.7845,0,,,,,,,,,,,,,,,,,,,,,,,,0.176851852,-0.10462963,0,0,0,,,,,,,SLOPE,LB,z,m,./images/SLOPELB.png,,,,,,,m,0,0.7845,,,,,,,,0,127,127,114,1
,,,,,,,,,,,,,,,,,199879,18,2022-01-28_19h20.53.847,lexical_decision_task_DD_L3,2021.2.3,Win32,61.60670281,,,,,,,,,,,,0.7225,1,,,,,,,,,,,,,,,,,,,,,,,,0.176851852,-0.10462963,0,0,0,,,,,,,JELLY,C,m,m,./images/JELLY.png,,,,,,,m,1,0.7225,,,,,,,,0,128,128,64,1
,,,,,,,,,,,,,,,,,199879,18,2022-01-28_19h20.53.847,lexical_decision_task_DD_L3,2021.2.3,Win32,61.60670281,,,,,,,,,,,,1.1643,0,,,,,,,,,,,,,,,,,,,,,,,,0.176851852,-0.10462963,0,0,0,,,,,,,SCREW,LB,m,m,./images/SCREWLB.png,,,,,,,z,0,1.1643,,,,,,,,0,129,129,24,1
,,,,,,,,,,,,,,,,,199879,18,2022-01-28_19h20.53.847,lexical_decision_task_DD_L3,2021.2.3,Win32,61.60670281,,,,,,,,,,,,0.6109,0,,,,,,,,,,,,,,,,,,,,,,,,0.176851852,-0.10462963,0,0,0,,,,,,,FENCE,HB,z,m,./images/FENCEHB.png,,,,,,,m,0,0.6109,,,,,,,,0,130,130,98,1
,,,,,,,,,,,,,,,,,199879,18,2022-01-28_19h20.53.847,lexical_decision_task_DD_L3,2021.2.3,Win32,61.60670281,,,,,,,,,,,,0.9347,1,,,,,,,,,,,,,,,,,,,,,,,,0.176851852,-0.10462963,0,0,0,,,,,,,VALLEY,HB,z,m,./images/VALLEYHB.png,,,,,,,z,1,0.9347,,,,,,,,0,131,131,152,1
,,,,,,,,,,,,,,,,,199879,18,2022-01-28_19h20.53.847,lexical_decision_task_DD_L3,2021.2.3,Win32,61.60670281,,,,,,,,,,,,0.714,0,,,,,,,,,,,,,,,,,,,,,,,,0.176851852,-0.10462963,0,0,0,,,,,,,BABOON,C,m,m,./images/BABOON.png,,,,,,,z,0,0.714,,,,,,,,0,132,132,58,1
,,,,,,,,,,,,,,,,,199879,18,2022-01-28_19h20.53.847,lexical_decision_task_DD_L3,2021.2.3,Win32,61.60670281,,,,,,,,,,,,0.7382,1,,,,,,,,,,,,,,,,,,,,,,,,0.176851852,-0.10462963,0,0,0,,,,,,,RULER,C,z,m,./images/RULER.png,,,,,,,z,1,0.7382,,,,,,,,0,133,133,163,1
,,,,,,,,,,,,,,,,,199879,18,2022-01-28_19h20.53.847,lexical_decision_task_DD_L3,2021.2.3,Win32,61.60670281,,,,,,,,,,,,0.7688,1,,,,,,,,,,,,,,,,,,,,,,,,0.176851852,-0.10462963,0,0,0,,,,,,,BIRTH,C,m,m,./images/BIRTH.png,,,,,,,m,1,0.7688,,,,,,,,0,134,134,37,1
,,,,,,,,,,,,,,,,,199879,18,2022-01-28_19h20.53.847,lexical_decision_task_DD_L3,2021.2.3,Win32,61.60670281,,,,,,,,,,,,1.1473,1,,,,,,,,,,,,,,,,,,,,,,,,0.176851852,-0.10462963,0,0,0,,,,,,,BUTTER,LB,z,m,./images/BUTTERLB.png,,,,,,,z,1,1.1473,,,,,,,,0,135,135,111,1
,,,,,,,,,,,,,,,,,199879,18,2022-01-28_19h20.53.847,lexical_decision_task_DD_L3,2021.2.3,Win32,61.60670281,,,,,,,,,,,,1.0896,1,,,,,,,,,,,,,,,,,,,,,,,,0.176851852,-0.10462963,0,0,0,,,,,,,BURIAL,HB,m,m,./images/BURIALHB.png,,,,,,,m,1,1.0896,,,,,,,,0,136,136,59,1
,,,,,,,,,,,,,,,,,199879,18,2022-01-28_19h20.53.847,lexical_decision_task_DD_L3,2021.2.3,Win32,61.60670281,,,,,,,,,,,,0.6502,1,,,,,,,,,,,,,,,,,,,,,,,,0.176851852,-0.10462963,0,0,0,,,,,,,CURRY,LB,z,m,./images/CURRYLB.png,,,,,,,z,1,0.6502,,,,,,,,0,137,137,144,1
,,,,,,,,,,,,,,,,,199879,18,2022-01-28_19h20.53.847,lexical_decision_task_DD_L3,2021.2.3,Win32,61.60670281,,,,,,,,,,,,0.8107,1,,,,,,,,,,,,,,,,,,,,,,,,0.176851852,-0.10462963,0,0,0,,,,,,,CHALK,C,z,m,./images/CHALK.png,,,,,,,z,1,0.8107,,,,,,,,0,138,138,109,1
,,,,,,,,,,,,,,,,,199879,18,2022-01-28_19h20.53.847,lexical_decision_task_DD_L3,2021.2.3,Win32,61.60670281,,,,,,,,,,,,0.8844,1,,,,,,,,,,,,,,,,,,,,,,,,0.176851852,-0.10462963,0,0,0,,,,,,,SWEAT,LB,m,m,./images/SWEATLB.png,,,,,,,m,1,0.8844,,,,,,,,0,139,139,66,1
,,,,,,,,,,,,,,,,,199879,18,2022-01-28_19h20.53.847,lexical_decision_task_DD_L3,2021.2.3,Win32,61.60670281,,,,,,,,,,,,0.7315,0,,,,,,,,,,,,,,,,,,,,,,,,0.176851852,-0.10462963,0,0,0,,,,,,,TORCH,HB,m,m,./images/TORCHHB.png,,,,,,,z,0,0.7315,,,,,,,,0,140,140,68,1
,,,,,,,,,,,,,,,,,199879,18,2022-01-28_19h20.53.847,lexical_decision_task_DD_L3,2021.2.3,Win32,61.60670281,,,,,,,,,,,,0.965,0,,,,,,,,,,,,,,,,,,,,,,,,0.176851852,-0.10462963,0,0,0,,,,,,,SUNSET,C,m,m,./images/SUNSET.png,,,,,,,z,0,0.965,,,,,,,,0,141,141,82,1
,,,,,,,,,,,,,,,,,199879,18,2022-01-28_19h20.53.847,lexical_decision_task_DD_L3,2021.2.3,Win32,61.60670281,,,,,,,,,,,,0.767,1,,,,,,,,,,,,,,,,,,,,,,,,0.176851852,-0.10462963,0,0,0,,,,,,,SAUCE,LB,z,m,./images/SAUCELB.png,,,,,,,z,1,0.767,,,,,,,,0,142,142,135,1
,,,,,,,,,,,,,,,,,199879,18,2022-01-28_19h20.53.847,lexical_decision_task_DD_L3,2021.2.3,Win32,61.60670281,,,,,,,,,,,,0.9045,1,,,,,,,,,,,,,,,,,,,,,,,,0.176851852,-0.10462963,0,0,0,,,,,,,BLOKE,LB,z,m,./images/BLOKELB.png,,,,,,,z,1,0.9045,,,,,,,,0,143,143,96,1
,,,,,,,,,,,,,,,,,199879,18,2022-01-28_19h20.53.847,lexical_decision_task_DD_L3,2021.2.3,Win32,61.60670281,,,,,,,,,,,,0.6853,1,,,,,,,,,,,,,,,,,,,,,,,,0.176851852,-0.10462963,0,0,0,,,,,,,CANOE,C,z,m,./images/CANOE.png,,,,,,,z,1,0.6853,,,,,,,,0,144,144,142,1
,,,,,,,,,,,,,,,,,199879,18,2022-01-28_19h20.53.847,lexical_decision_task_DD_L3,2021.2.3,Win32,61.60670281,,,,,,,,,,,,0.8039,1,,,,,,,,,,,,,,,,,,,,,,,,0.176851852,-0.10462963,0,0,0,,,,,,,GRAPE,C,z,m,./images/GRAPE.png,,,,,,,z,1,0.8039,,,,,,,,0,145,145,100,1
,,,,,,,,,,,,,,,,,199879,18,2022-01-28_19h20.53.847,lexical_decision_task_DD_L3,2021.2.3,Win32,61.60670281,,,,,,,,,,,,0.6755,0,,,,,,,,,,,,,,,,,,,,,,,,0.176851852,-0.10462963,0,0,0,,,,,,,ARTIST,C,z,m,./images/ARTIST.png,,,,,,,m,0,0.6755,,,,,,,,0,146,146,145,1
,,,,,,,,,,,,,,,,,199879,18,2022-01-28_19h20.53.847,lexical_decision_task_DD_L3,2021.2.3,Win32,61.60670281,,,,,,,,,,,,0.9097,1,,,,,,,,,,,,,,,,,,,,,,,,0.176851852,-0.10462963,0,0,0,,,,,,,BUBBLE,HB,z,m,./images/BUBBLEHB.png,,,,,,,z,1,0.9097,,,,,,,,0,147,147,155,1
,,,,,,,,,,,,,,,,,199879,18,2022-01-28_19h20.53.847,lexical_decision_task_DD_L3,2021.2.3,Win32,61.60670281,,,,,,,,,,,,0.9152,1,,,,,,,,,,,,,,,,,,,,,,,,0.176851852,-0.10462963,0,0,0,,,,,,,PEACH,HB,m,m,./images/PEACHHB.png,,,,,,,m,1,0.9152,,,,,,,,0,148,148,35,1
,,,,,,,,,,,,,,,,,199879,18,2022-01-28_19h20.53.847,lexical_decision_task_DD_L3,2021.2.3,Win32,61.60670281,,,,,,,,,,,,0.7249,0,,,,,,,,,,,,,,,,,,,,,,,,0.176851852,-0.10462963,0,0,0,,,,,,,BONNET,HB,m,m,./images/BONNETHB.png,,,,,,,z,0,0.7249,,,,,,,,0,149,149,11,1
,,,,,,,,,,,,,,,,,199879,18,2022-01-28_19h20.53.847,lexical_decision_task_DD_L3,2021.2.3,Win32,61.60670281,,,,,,,,,,,,1.0354,1,,,,,,,,,,,,,,,,,,,,,,,,0.176851852,-0.10462963,0,0,0,,,,,,,SPINE,HB,z,m,./images/SPINEHB.png,,,,,,,z,1,1.0354,,,,,,,,0,150,150,149,1
,,,,,,,,,,,,,,,,,199879,18,2022-01-28_19h20.53.847,lexical_decision_task_DD_L3,2021.2.3,Win32,61.60670281,,,,,,,,,,,,0.6809,1,,,,,,,,,,,,,,,,,,,,,,,,0.176851852,-0.10462963,0,0,0,,,,,,,STRING,HB,m,m,./images/STRINGHB.png,,,,,,,m,1,0.6809,,,,,,,,0,151,151,41,1
,,,,,,,,,,,,,,,,,199879,18,2022-01-28_19h20.53.847,lexical_decision_task_DD_L3,2021.2.3,Win32,61.60670281,,,,,,,,,,,,0.4533,0,,,,,,,,,,,,,,,,,,,,,,,,0.176851852,-0.10462963,0,0,0,,,,,,,COUCH,HB,m,m,./images/COUCHHB.png,,,,,,,z,0,0.4533,,,,,,,,0,152,152,77,1
,,,,,,,,,,,,,,,,,199879,18,2022-01-28_19h20.53.847,lexical_decision_task_DD_L3,2021.2.3,Win32,61.60670281,,,,,,,,,,,,0.6159,0,,,,,,,,,,,,,,,,,,,,,,,,0.176851852,-0.10462963,0,0,0,,,,,,,CHERRY,LB,z,m,./images/CHERRYLB.png,,,,,,,m,0,0.6159,,,,,,,,0,153,153,138,1
,,,,,,,,,,,,,,,,,199879,18,2022-01-28_19h20.53.847,lexical_decision_task_DD_L3,2021.2.3,Win32,61.60670281,,,,,,,,,,,,0.7477,1,,,,,,,,,,,,,,,,,,,,,,,,0.176851852,-0.10462963,0,0,0,,,,,,,PLANK,C,m,m,./images/PLANK.png,,,,,,,m,1,0.7477,,,,,,,,0,154,154,1,1
,,,,,,,,,,,,,,,,,199879,18,2022-01-28_19h20.53.847,lexical_decision_task_DD_L3,2021.2.3,Win32,61.60670281,,,,,,,,,,,,0.5815,1,,,,,,,,,,,,,,,,,,,,,,,,0.176851852,-0.10462963,0,0,0,,,,,,,LAGOON,HB,z,m,./images/LAGOONHB.png,,,,,,,z,1,0.5815,,,,,,,,0,155,155,131,1
,,,,,,,,,,,,,,,,,199879,18,2022-01-28_19h20.53.847,lexical_decision_task_DD_L3,2021.2.3,Win32,61.60670281,,,,,,,,,,,,0.8057,0,,,,,,,,,,,,,,,,,,,,,,,,0.176851852,-0.10462963,0,0,0,,,,,,,ALLEY,C,z,m,./images/ALLEY.png,,,,,,,m,0,0.8057,,,,,,,,0,156,156,139,1
,,,,,,,,,,,,,,,,,199879,18,2022-01-28_19h20.53.847,lexical_decision_task_DD_L3,2021.2.3,Win32,61.60670281,,,,,,,,,,,,1.1806,1,,,,,,,,,,,,,,,,,,,,,,,,0.176851852,-0.10462963,0,0,0,,,,,,,SNACK,C,m,m,./images/SNACK.png,,,,,,,m,1,1.1806,,,,,,,,0,157,157,73,1
,,,,,,,,,,,,,,,,,199879,18,2022-01-28_19h20.53.847,lexical_decision_task_DD_L3,2021.2.3,Win32,61.60670281,,,,,,,,,,,,0.867,1,,,,,,,,,,,,,,,,,,,,,,,,0.176851852,-0.10462963,0,0,0,,,,,,,MUMMY,C,z,m,./images/MUMMY.png,,,,,,,z,1,0.867,,,,,,,,0,158,158,130,1
,,,,,,,,,,,,,,,,,199879,18,2022-01-28_19h20.53.847,lexical_decision_task_DD_L3,2021.2.3,Win32,61.60670281,,,,,,,,,,,,0.5975,0,,,,,,,,,,,,,,,,,,,,,,,,0.176851852,-0.10462963,0,0,0,,,,,,,KIDNEY,LB,m,m,./images/KIDNEYLB.png,,,,,,,z,0,0.5975,,,,,,,,0,159,159,21,1
,,,,,,,,,,,,,,,,,199879,18,2022-01-28_19h20.53.847,lexical_decision_task_DD_L3,2021.2.3,Win32,61.60670281,,,,,,,,,,,,0.7502,1,,,,,,,,,,,,,,,,,,,,,,,,0.176851852,-0.10462963,0,0,0,,,,,,,KITTEN,LB,m,m,./images/KITTENLB.png,,,,,,,m,1,0.7502,,,,,,,,0,160,160,45,1
,,,,,,,,,,,,,,,,,199879,18,2022-01-28_19h20.53.847,lexical_decision_task_DD_L3,2021.2.3,Win32,61.60670281,,,,,,,,,,,,0.8943,0,,,,,,,,,,,,,,,,,,,,,,,,0.176851852,-0.10462963,0,0,0,,,,,,,CANDY,LB,z,m,./images/CANDYLB.png,,,,,,,m,0,0.8943,,,,,,,,0,161,161,123,1
,,,,,,,,,,,,,,,,,199879,18,2022-01-28_19h20.53.847,lexical_decision_task_DD_L3,2021.2.3,Win32,61.60670281,,,,,,,,,,,,0.8571,1,,,,,,,,,,,,,,,,,,,,,,,,0.176851852,-0.10462963,0,0,0,,,,,,,GRAIN,LB,m,m,./images/GRAINLB.png,,,,,,,m,1,0.8571,,,,,,,,0,162,162,75,1
,,,,,,,,,,,,,,,,,199879,18,2022-01-28_19h20.53.847,lexical_decision_task_DD_L3,2021.2.3,Win32,61.60670281,,,,,,,,,,,,0.7936,1,,,,,,,,,,,,,,,,,,,,,,,,0.176851852,-0.10462963,0,0,0,,,,,,,CLOUD,HB,z,m,./images/CLOUDHB.png,,,,,,,z,1,0.7936,,,,,,,,0,163,163,110,1
,,,,,,,,,,,,,,,,,199879,18,2022-01-28_19h20.53.847,lexical_decision_task_DD_L3,2021.2.3,Win32,61.60670281,,,,,,,,,,,,0.853,1,,,,,,,,,,,,,,,,,,,,,,,,0.176851852,-0.10462963,0,0,0,,,,,,,DRUMS,C,m,m,./images/DRUMS.png,,,,,,,m,1,0.853,,,,,,,,0,164,164,49,1
,,,,,,,,,,,,,,,,,199879,18,2022-01-28_19h20.53.847,lexical_decision_task_DD_L3,2021.2.3,Win32,61.60670281,,,,,,,,,,,,0.8691,1,,,,,,,,,,,,,,,,,,,,,,,,0.176851852,-0.10462963,0,0,0,,,,,,,CEMENT,HB,m,m,./images/CEMENTHB.png,,,,,,,m,1,0.8691,,,,,,,,0,165,165,74,1
,,,,,,,,,,,,,,,,,199879,18,2022-01-28_19h20.53.847,lexical_decision_task_DD_L3,2021.2.3,Win32,61.60670281,,,,,,,,,,,,0.6577,1,,,,,,,,,,,,,,,,,,,,,,,,0.176851852,-0.10462963,0,0,0,,,,,,,HAMMER,LB,z,m,./images/HAMMERLB.png,,,,,,,z,1,0.6577,,,,,,,,0,166,166,159,1
,,,,,,,,,,,,,,,,,199879,18,2022-01-28_19h20.53.847,lexical_decision_task_DD_L3,2021.2.3,Win32,61.60670281,,,,,,,,,,,,1.7668,1,,,,,,,,,,,,,,,,,,,,,,,,0.176851852,-0.10462963,0,0,0,,,,,,,SAUNA,LB,z,m,./images/SAUNALB.png,,,,,,,z,1,1.7668,,,,,,,,0,167,167,117,1
