key_resp.keys,key_resp.rt,instr_done_touch.x,instr_done_touch.y,instr_done_touch.leftButton,instr_done_touch.midButton,instr_done_touch.rightButton,instruction_pages.thisRepN,instruction_pages.thisTrialN,instruction_pages.thisN,instruction_pages.thisIndex,instruction_pages.ran,pageN,phase,instruct_text,has_image,instruct_image,participant,age,date,expName,psychopyVersion,OS,frameRate,response.keys,response.corr,response.rt,touch_resp.x,touch_resp.y,touch_resp.leftButton,touch_resp.midButton,touch_resp.rightButton,touch_resp.time,touch_resp.clicked_name,rt,corr,practrials.thisRepN,practrials.thisTrialN,practrials.thisN,practrials.thisIndex,practrials.ran,TrialID,Target,corrAns,end_of_practice_trials_pages.thisRepN,end_of_practice_trials_pages.thisTrialN,end_of_practice_trials_pages.thisN,end_of_practice_trials_pages.thisIndex,end_of_practice_trials_pages.ran,key_resp_2.keys,key_resp_2.corr,key_resp_2.rt,targ_click.x,targ_click.y,targ_click.leftButton,targ_click.midButton,targ_click.rightButton,targ_click.time,targ_click.clicked_name,break_done_touch.x,break_done_touch.y,break_done_touch.leftButton,break_done_touch.midButton,break_done_touch.rightButton,break_done_keyboard.keys,maintrials.thisRepN,maintrials.thisTrialN,maintrials.thisN,maintrials.thisIndex,maintrials.ran,string,blur,study,lex,stim_path,break_done_keyboard.rt,test_instructions.thisRepN,test_instructions.thisTrialN,test_instructions.thisN,test_instructions.thisIndex,test_instructions.ran,instr_done_touch.clicked_name,key_resp_3.keys,key_resp_3.corr,key_resp_3.rt,test_click.x,test_click.y,test_click.leftButton,test_click.midButton,test_click.rightButton,test_click.time,test_click.clicked_name,test_phase.thisRepN,test_phase.thisTrialN,test_phase.thisN,test_phase.thisIndex,test_phase.ran,break_done_touch.clicked_name
space,0.9603,0.160185201,0.195370366,0,0,0,0,0,0,0,1,1,instructions,"INSTRUCTIONS
At the start of each trial, look at the plus sign  (+) in the center of the screen.  This tells you that a trial is about to begin and where to look. Second, the plus sign will disappear and a string of letters will appear. Your task is to determine if the string of letters is a word or not. If the item is a word press the M key (on keyboard)  or touch the word button (phone/tablet).  If the item is not a word,  press the  Z key (on keyboard)  or touch the nonword button (on phone/tablet). 
Press the space bar or touch  continue.",0,,199870,18,2022-01-29_10h33.22.805,lexical_decision_task_DD_L2,2021.2.3,Win32,60.0060006,,,,,,,,,,,,,,,,,,,,,,,,,,,,,,,,,,,,,,,,,,,,,,,,,,,,,,,,,,,,,,,,,,,,,,,,,,
space,0.5173,0.160185201,0.195370366,0,0,0,0,1,1,1,1,2,instructions,"If your device has a keyboard, press the 'Z' key for nonwords and the 'M' key for words.





Press the space bar or touch the button below to continue.",0,keyboard-example.gif,199870,18,2022-01-29_10h33.22.805,lexical_decision_task_DD_L2,2021.2.3,Win32,60.0060006,,,,,,,,,,,,,,,,,,,,,,,,,,,,,,,,,,,,,,,,,,,,,,,,,,,,,,,,,,,,,,,,,,,,,,,,,,
space,0.44,0.160185201,0.195370366,0,0,0,0,2,2,2,1,3,instructions,"If you are using a touchscreen only device, use the buttons on the screen. Do not use the mouse.





Press the space bar or touch the button below to continue.",0,touchscreen-example.gif,199870,18,2022-01-29_10h33.22.805,lexical_decision_task_DD_L2,2021.2.3,Win32,60.0060006,,,,,,,,,,,,,,,,,,,,,,,,,,,,,,,,,,,,,,,,,,,,,,,,,,,,,,,,,,,,,,,,,,,,,,,,,,
space,0.4096,0.160185201,0.195370366,0,0,0,0,3,3,3,1,4,instructions,"It is very important that you respond as quickly and accurately as possible, as each letter string will only be on the screen for two seconds. If you do not respond within this time, the message 'Too slow!' will be displayed and the experiment will progress to the next letter string. The first 20 trials will be practice trials and you will receive feedback on your answers. 

Press the space bar or touch the button below to start the practice trials.",0,,199870,18,2022-01-29_10h33.22.805,lexical_decision_task_DD_L2,2021.2.3,Win32,60.0060006,,,,,,,,,,,,,,,,,,,,,,,,,,,,,,,,,,,,,,,,,,,,,,,,,,,,,,,,,,,,,,,,,,,,,,,,,,
,,,,,,,,,,,,,,,,,199870,18,2022-01-29_10h33.22.805,lexical_decision_task_DD_L2,2021.2.3,Win32,60.0060006,z,1,1.1534,,,,,,,,1.1534,1,0,0,0,8,1,1001,ASLERT,z,,,,,,,,,,,,,,,,,,,,,,,,,,,,,,,,,,,,,,,,,,,,,,,,,,,,,,
,,,,,,,,,,,,,,,,,199870,18,2022-01-29_10h33.22.805,lexical_decision_task_DD_L2,2021.2.3,Win32,60.0060006,m,1,1.1934,,,,,,,,1.1934,1,0,1,1,3,1,1001,MATRIX,m,,,,,,,,,,,,,,,,,,,,,,,,,,,,,,,,,,,,,,,,,,,,,,,,,,,,,,
,,,,,,,,,,,,,,,,,199870,18,2022-01-29_10h33.22.805,lexical_decision_task_DD_L2,2021.2.3,Win32,60.0060006,z,1,0.894,,,,,,,,0.894,1,0,2,2,11,1,1001,RASHET,z,,,,,,,,,,,,,,,,,,,,,,,,,,,,,,,,,,,,,,,,,,,,,,,,,,,,,,
,,,,,,,,,,,,,,,,,199870,18,2022-01-29_10h33.22.805,lexical_decision_task_DD_L2,2021.2.3,Win32,60.0060006,z,1,0.9158,,,,,,,,0.9158,1,0,3,3,14,1,1001,THRALE,z,,,,,,,,,,,,,,,,,,,,,,,,,,,,,,,,,,,,,,,,,,,,,,,,,,,,,,
,,,,,,,,,,,,,,,,,199870,18,2022-01-29_10h33.22.805,lexical_decision_task_DD_L2,2021.2.3,Win32,60.0060006,m,1,0.7539,,,,,,,,0.7539,1,0,4,4,4,1,1001,SQUEAK,m,,,,,,,,,,,,,,,,,,,,,,,,,,,,,,,,,,,,,,,,,,,,,,,,,,,,,,
,,,,,,,,,,,,,,,,,199870,18,2022-01-29_10h33.22.805,lexical_decision_task_DD_L2,2021.2.3,Win32,60.0060006,m,1,0.8704,,,,,,,,0.8704,1,0,5,5,1,1,1001,ADJUST,m,,,,,,,,,,,,,,,,,,,,,,,,,,,,,,,,,,,,,,,,,,,,,,,,,,,,,,
,,,,,,,,,,,,,,,,,199870,18,2022-01-29_10h33.22.805,lexical_decision_task_DD_L2,2021.2.3,Win32,60.0060006,m,1,1.0332,,,,,,,,1.0332,1,0,6,6,0,1,1001,UTOPIA,m,,,,,,,,,,,,,,,,,,,,,,,,,,,,,,,,,,,,,,,,,,,,,,,,,,,,,,
,,,,,,,,,,,,,,,,,199870,18,2022-01-29_10h33.22.805,lexical_decision_task_DD_L2,2021.2.3,Win32,60.0060006,z,1,0.8056,,,,,,,,0.8056,1,0,7,7,15,1,1001,WHAISE,z,,,,,,,,,,,,,,,,,,,,,,,,,,,,,,,,,,,,,,,,,,,,,,,,,,,,,,
,,,,,,,,,,,,,,,,,199870,18,2022-01-29_10h33.22.805,lexical_decision_task_DD_L2,2021.2.3,Win32,60.0060006,z,1,1.2044,,,,,,,,1.2044,1,0,8,8,9,1,1001,FARINY,z,,,,,,,,,,,,,,,,,,,,,,,,,,,,,,,,,,,,,,,,,,,,,,,,,,,,,,
,,,,,,,,,,,,,,,,,199870,18,2022-01-29_10h33.22.805,lexical_decision_task_DD_L2,2021.2.3,Win32,60.0060006,m,0,1.0837,,,,,,,,1.0837,0,0,9,9,10,1,1001,INLADE,z,,,,,,,,,,,,,,,,,,,,,,,,,,,,,,,,,,,,,,,,,,,,,,,,,,,,,,
,,,,,,,,,,,,,,,,,199870,18,2022-01-29_10h33.22.805,lexical_decision_task_DD_L2,2021.2.3,Win32,60.0060006,z,1,0.9257,,,,,,,,0.9257,1,0,10,10,12,1,1001,SPRINY,z,,,,,,,,,,,,,,,,,,,,,,,,,,,,,,,,,,,,,,,,,,,,,,,,,,,,,,
,,,,,,,,,,,,,,,,,199870,18,2022-01-29_10h33.22.805,lexical_decision_task_DD_L2,2021.2.3,Win32,60.0060006,m,1,0.7536,,,,,,,,0.7536,1,0,11,11,6,1,1001,ZOMBIE,m,,,,,,,,,,,,,,,,,,,,,,,,,,,,,,,,,,,,,,,,,,,,,,,,,,,,,,
,,,,,,,,,,,,,,,,,199870,18,2022-01-29_10h33.22.805,lexical_decision_task_DD_L2,2021.2.3,Win32,60.0060006,z,1,0.9858,,,,,,,,0.9858,1,0,12,12,13,1,1001,ROUPET,z,,,,,,,,,,,,,,,,,,,,,,,,,,,,,,,,,,,,,,,,,,,,,,,,,,,,,,
,,,,,,,,,,,,,,,,,199870,18,2022-01-29_10h33.22.805,lexical_decision_task_DD_L2,2021.2.3,Win32,60.0060006,m,1,0.6833,,,,,,,,0.6833,1,0,13,13,7,1,1001,VOLUME,m,,,,,,,,,,,,,,,,,,,,,,,,,,,,,,,,,,,,,,,,,,,,,,,,,,,,,,
,,,,,,,,,,,,,,,,,199870,18,2022-01-29_10h33.22.805,lexical_decision_task_DD_L2,2021.2.3,Win32,60.0060006,m,1,0.6676,,,,,,,,0.6676,1,0,14,14,5,1,1001,OBTAIN,m,,,,,,,,,,,,,,,,,,,,,,,,,,,,,,,,,,,,,,,,,,,,,,,,,,,,,,
,,,,,,,,,,,,,,,,,199870,18,2022-01-29_10h33.22.805,lexical_decision_task_DD_L2,2021.2.3,Win32,60.0060006,m,1,0.4958,,,,,,,,0.4958,1,0,15,15,2,1,1001,ALMOND,m,,,,,,,,,,,,,,,,,,,,,,,,,,,,,,,,,,,,,,,,,,,,,,,,,,,,,,
space,10.4266,0.125925941,-0.175925936,0,0,0,,,,,,1,end_of_practice,"You have completed the practice trials. During the experimental trials, you will not receive feedback. 
Before you begin, please ensure that you are in a comfortable and quiet location and will not be disturbed for about 15 minutes, as we cannot use your data if you do not complete all the trials. 
 When you are ready to start the experimental trials, please press space or touch the button below.",,,199870,18,2022-01-29_10h33.22.805,lexical_decision_task_DD_L2,2021.2.3,Win32,60.0060006,,,,,,,,,,,,,,,,,,,,,0,0,0,0,1,,,,,,,,,,,,,,,,,,,,,,,,,,,,,,,,,,,,,,,,,,,,,,,,,
,,,,,,,,,,,,,,,,,199870,18,2022-01-29_10h33.22.805,lexical_decision_task_DD_L2,2021.2.3,Win32,60.0060006,,,,,,,,,,,1.3877,1,,,,,,,,,,,,,,z,1,1.3877,,,,,,,,0.125925941,-0.175925936,0,0,0,,0,0,0,155,1,CANGY,LB,old,z,./images/CANGYLB.png,,,,,,,,,,,,,,,,,,,,,,,
,,,,,,,,,,,,,,,,,199870,18,2022-01-29_10h33.22.805,lexical_decision_task_DD_L2,2021.2.3,Win32,60.0060006,,,,,,,,,,,1.0746,1,,,,,,,,,,,,,,z,1,1.0746,,,,,,,,0.125925941,-0.175925936,0,0,0,,0,1,1,101,1,GLEET,LB,old,z,./images/GLEETLB.png,,,,,,,,,,,,,,,,,,,,,,,
,,,,,,,,,,,,,,,,,199870,18,2022-01-29_10h33.22.805,lexical_decision_task_DD_L2,2021.2.3,Win32,60.0060006,,,,,,,,,,,2.1067,1,,,,,,,,,,,,,,m,1,2.1067,,,,,,,,0.125925941,-0.175925936,0,0,0,,0,2,2,78,1,LITTER,HB,old,m,./images/LITTERHB.png,,,,,,,,,,,,,,,,,,,,,,,
,,,,,,,,,,,,,,,,,199870,18,2022-01-29_10h33.22.805,lexical_decision_task_DD_L2,2021.2.3,Win32,60.0060006,,,,,,,,,,,2.1636,1,,,,,,,,,,,,,,z,1,2.1636,,,,,,,,0.125925941,-0.175925936,0,0,0,,0,3,3,154,1,THINT,HB,old,z,./images/THINTHB.png,,,,,,,,,,,,,,,,,,,,,,,
,,,,,,,,,,,,,,,,,199870,18,2022-01-29_10h33.22.805,lexical_decision_task_DD_L2,2021.2.3,Win32,60.0060006,,,,,,,,,,,1.3571,1,,,,,,,,,,,,,,z,1,1.3571,,,,,,,,0.125925941,-0.175925936,0,0,0,,0,4,4,135,1,JOODY,C,old,z,./images/JOODY.png,,,,,,,,,,,,,,,,,,,,,,,
,,,,,,,,,,,,,,,,,199870,18,2022-01-29_10h33.22.805,lexical_decision_task_DD_L2,2021.2.3,Win32,60.0060006,,,,,,,,,,,0.9305,1,,,,,,,,,,,,,,m,1,0.9305,,,,,,,,0.125925941,-0.175925936,0,0,0,,0,5,5,40,1,SWING,LB,old,m,./images/SWINGLB.png,,,,,,,,,,,,,,,,,,,,,,,
,,,,,,,,,,,,,,,,,199870,18,2022-01-29_10h33.22.805,lexical_decision_task_DD_L2,2021.2.3,Win32,60.0060006,,,,,,,,,,,2.0248,0,,,,,,,,,,,,,,m,0,2.0248,,,,,,,,0.125925941,-0.175925936,0,0,0,,0,6,6,109,1,BURGE,HB,old,z,./images/BURGEHB.png,,,,,,,,,,,,,,,,,,,,,,,
,,,,,,,,,,,,,,,,,199870,18,2022-01-29_10h33.22.805,lexical_decision_task_DD_L2,2021.2.3,Win32,60.0060006,,,,,,,,,,,1.0284,1,,,,,,,,,,,,,,m,1,1.0284,,,,,,,,0.125925941,-0.175925936,0,0,0,,0,7,7,52,1,BANNER,LB,old,m,./images/BANNERLB.png,,,,,,,,,,,,,,,,,,,,,,,
,,,,,,,,,,,,,,,,,199870,18,2022-01-29_10h33.22.805,lexical_decision_task_DD_L2,2021.2.3,Win32,60.0060006,,,,,,,,,,,1.2425,1,,,,,,,,,,,,,,z,1,1.2425,,,,,,,,0.125925941,-0.175925936,0,0,0,,0,8,8,149,1,VEASE,LB,old,z,./images/VEASELB.png,,,,,,,,,,,,,,,,,,,,,,,
,,,,,,,,,,,,,,,,,199870,18,2022-01-29_10h33.22.805,lexical_decision_task_DD_L2,2021.2.3,Win32,60.0060006,,,,,,,,,,,1.3252,0,,,,,,,,,,,,,,m,0,1.3252,,,,,,,,0.125925941,-0.175925936,0,0,0,,0,9,9,123,1,SEDGE,C,old,z,./images/SEDGE.png,,,,,,,,,,,,,,,,,,,,,,,
,,,,,,,,,,,,,,,,,199870,18,2022-01-29_10h33.22.805,lexical_decision_task_DD_L2,2021.2.3,Win32,60.0060006,,,,,,,,,,,1.5839,0,,,,,,,,,,,,,,z,0,1.5839,,,,,,,,0.125925941,-0.175925936,0,0,0,,0,10,10,72,1,NOOSE,HB,old,m,./images/NOOSEHB.png,,,,,,,,,,,,,,,,,,,,,,,
,,,,,,,,,,,,,,,,,199870,18,2022-01-29_10h33.22.805,lexical_decision_task_DD_L2,2021.2.3,Win32,60.0060006,,,,,,,,,,,1.2068,1,,,,,,,,,,,,,,z,1,1.2068,,,,,,,,0.125925941,-0.175925936,0,0,0,,0,11,11,161,1,BLAPS,LB,old,z,./images/BLAPSLB.png,,,,,,,,,,,,,,,,,,,,,,,
,,,,,,,,,,,,,,,,,199870,18,2022-01-29_10h33.22.805,lexical_decision_task_DD_L2,2021.2.3,Win32,60.0060006,,,,,,,,,,,2.0038,1,,,,,,,,,,,,,,z,1,2.0038,,,,,,,,0.125925941,-0.175925936,0,0,0,,0,12,12,99,1,BACKY,C,old,z,./images/BACKY.png,,,,,,,,,,,,,,,,,,,,,,,
,,,,,,,,,,,,,,,,,199870,18,2022-01-29_10h33.22.805,lexical_decision_task_DD_L2,2021.2.3,Win32,60.0060006,,,,,,,,,,,0.8995,1,,,,,,,,,,,,,,m,1,0.8995,,,,,,,,0.125925941,-0.175925936,0,0,0,,0,13,13,71,1,PIMPLE,C,old,m,./images/PIMPLE.png,,,,,,,,,,,,,,,,,,,,,,,
,,,,,,,,,,,,,,,,,199870,18,2022-01-29_10h33.22.805,lexical_decision_task_DD_L2,2021.2.3,Win32,60.0060006,,,,,,,,,,,1.0668,1,,,,,,,,,,,,,,m,1,1.0668,,,,,,,,0.125925941,-0.175925936,0,0,0,,0,14,14,28,1,FALCON,LB,old,m,./images/FALCONLB.png,,,,,,,,,,,,,,,,,,,,,,,
,,,,,,,,,,,,,,,,,199870,18,2022-01-29_10h33.22.805,lexical_decision_task_DD_L2,2021.2.3,Win32,60.0060006,,,,,,,,,,,1.7393,0,,,,,,,,,,,,,,m,0,1.7393,,,,,,,,0.125925941,-0.175925936,0,0,0,,0,15,15,128,1,GRIFT,LB,old,z,./images/GRIFTLB.png,,,,,,,,,,,,,,,,,,,,,,,
,,,,,,,,,,,,,,,,,199870,18,2022-01-29_10h33.22.805,lexical_decision_task_DD_L2,2021.2.3,Win32,60.0060006,,,,,,,,,,,2.6895,1,,,,,,,,,,,,,,m,1,2.6895,,,,,,,,0.125925941,-0.175925936,0,0,0,,0,16,16,32,1,BARREL,C,old,m,./images/BARREL.png,,,,,,,,,,,,,,,,,,,,,,,
,,,,,,,,,,,,,,,,,199870,18,2022-01-29_10h33.22.805,lexical_decision_task_DD_L2,2021.2.3,Win32,60.0060006,,,,,,,,,,,3.8341,1,,,,,,,,,,,,,,z,1,3.8341,,,,,,,,0.125925941,-0.175925936,0,0,0,,0,17,17,97,1,CHIDS,HB,old,z,./images/CHIDSHB.png,,,,,,,,,,,,,,,,,,,,,,,
,,,,,,,,,,,,,,,,,199870,18,2022-01-29_10h33.22.805,lexical_decision_task_DD_L2,2021.2.3,Win32,60.0060006,,,,,,,,,,,0.9507,1,,,,,,,,,,,,,,m,1,0.9507,,,,,,,,0.125925941,-0.175925936,0,0,0,,0,18,18,55,1,MUFFIN,LB,old,m,./images/MUFFINLB.png,,,,,,,,,,,,,,,,,,,,,,,
,,,,,,,,,,,,,,,,,199870,18,2022-01-29_10h33.22.805,lexical_decision_task_DD_L2,2021.2.3,Win32,60.0060006,,,,,,,,,,,1.1503,1,,,,,,,,,,,,,,z,1,1.1503,,,,,,,,0.125925941,-0.175925936,0,0,0,,0,19,19,117,1,STEEG,C,old,z,./images/STEEG.png,,,,,,,,,,,,,,,,,,,,,,,
,,,,,,,,,,,,,,,,,199870,18,2022-01-29_10h33.22.805,lexical_decision_task_DD_L2,2021.2.3,Win32,60.0060006,,,,,,,,,,,1.301,1,,,,,,,,,,,,,,z,1,1.301,,,,,,,,0.125925941,-0.175925936,0,0,0,,0,20,20,160,1,VEETS,HB,old,z,./images/VEETSHB.png,,,,,,,,,,,,,,,,,,,,,,,
,,,,,,,,,,,,,,,,,199870,18,2022-01-29_10h33.22.805,lexical_decision_task_DD_L2,2021.2.3,Win32,60.0060006,,,,,,,,,,,3.5271,0,,,,,,,,,,,,,,z,0,3.5271,,,,,,,,0.125925941,-0.175925936,0,0,0,,0,21,21,34,1,CANYON,LB,old,m,./images/CANYONLB.png,,,,,,,,,,,,,,,,,,,,,,,
,,,,,,,,,,,,,,,,,199870,18,2022-01-29_10h33.22.805,lexical_decision_task_DD_L2,2021.2.3,Win32,60.0060006,,,,,,,,,,,1.8251,1,,,,,,,,,,,,,,m,1,1.8251,,,,,,,,0.125925941,-0.175925936,0,0,0,,0,22,22,21,1,KIDNEY,HB,old,m,./images/KIDNEYHB.png,,,,,,,,,,,,,,,,,,,,,,,
,,,,,,,,,,,,,,,,,199870,18,2022-01-29_10h33.22.805,lexical_decision_task_DD_L2,2021.2.3,Win32,60.0060006,,,,,,,,,,,1.8498,1,,,,,,,,,,,,,,z,1,1.8498,,,,,,,,0.125925941,-0.175925936,0,0,0,,0,23,23,121,1,CEERS,HB,old,z,./images/CEERSHB.png,,,,,,,,,,,,,,,,,,,,,,,
,,,,,,,,,,,,,,,,,199870,18,2022-01-29_10h33.22.805,lexical_decision_task_DD_L2,2021.2.3,Win32,60.0060006,,,,,,,,,,,3.2451,0,,,,,,,,,,,,,,m,0,3.2451,,,,,,,,0.125925941,-0.175925936,0,0,0,,0,24,24,88,1,GLUSH,HB,old,z,./images/GLUSHHB.png,,,,,,,,,,,,,,,,,,,,,,,
,,,,,,,,,,,,,,,,,199870,18,2022-01-29_10h33.22.805,lexical_decision_task_DD_L2,2021.2.3,Win32,60.0060006,,,,,,,,,,,0.7589,1,,,,,,,,,,,,,,z,1,0.7589,,,,,,,,0.125925941,-0.175925936,0,0,0,,0,25,25,111,1,HOSSE,C,old,z,./images/HOSSE.png,,,,,,,,,,,,,,,,,,,,,,,
,,,,,,,,,,,,,,,,,199870,18,2022-01-29_10h33.22.805,lexical_decision_task_DD_L2,2021.2.3,Win32,60.0060006,,,,,,,,,,,1.6668,1,,,,,,,,,,,,,,z,1,1.6668,,,,,,,,0.125925941,-0.175925936,0,0,0,,0,26,26,159,1,CUDDY,C,old,z,./images/CUDDY.png,,,,,,,,,,,,,,,,,,,,,,,
,,,,,,,,,,,,,,,,,199870,18,2022-01-29_10h33.22.805,lexical_decision_task_DD_L2,2021.2.3,Win32,60.0060006,,,,,,,,,,,1.529,1,,,,,,,,,,,,,,z,1,1.529,,,,,,,,0.125925941,-0.175925936,0,0,0,,0,27,27,100,1,DRIBS,HB,old,z,./images/DRIBSHB.png,,,,,,,,,,,,,,,,,,,,,,,
,,,,,,,,,,,,,,,,,199870,18,2022-01-29_10h33.22.805,lexical_decision_task_DD_L2,2021.2.3,Win32,60.0060006,,,,,,,,,,,0.907,1,,,,,,,,,,,,,,m,1,0.907,,,,,,,,0.125925941,-0.175925936,0,0,0,,0,28,28,62,1,PURSE,C,old,m,./images/PURSE.png,,,,,,,,,,,,,,,,,,,,,,,
,,,,,,,,,,,,,,,,,199870,18,2022-01-29_10h33.22.805,lexical_decision_task_DD_L2,2021.2.3,Win32,60.0060006,,,,,,,,,,,1.138,1,,,,,,,,,,,,,,m,1,1.138,,,,,,,,0.125925941,-0.175925936,0,0,0,,0,29,29,80,1,WEASEL,C,old,m,./images/WEASEL.png,,,,,,,,,,,,,,,,,,,,,,,
,,,,,,,,,,,,,,,,,199870,18,2022-01-29_10h33.22.805,lexical_decision_task_DD_L2,2021.2.3,Win32,60.0060006,,,,,,,,,,,1.7163,1,,,,,,,,,,,,,,m,1,1.7163,,,,,,,,0.125925941,-0.175925936,0,0,0,,0,30,30,20,1,CRADLE,C,old,m,./images/CRADLE.png,,,,,,,,,,,,,,,,,,,,,,,
,,,,,,,,,,,,,,,,,199870,18,2022-01-29_10h33.22.805,lexical_decision_task_DD_L2,2021.2.3,Win32,60.0060006,,,,,,,,,,,1.1874,1,,,,,,,,,,,,,,z,1,1.1874,,,,,,,,0.125925941,-0.175925936,0,0,0,,0,31,31,136,1,WERVE,HB,old,z,./images/WERVEHB.png,,,,,,,,,,,,,,,,,,,,,,,
,,,,,,,,,,,,,,,,,199870,18,2022-01-29_10h33.22.805,lexical_decision_task_DD_L2,2021.2.3,Win32,60.0060006,,,,,,,,,,,0.8213,1,,,,,,,,,,,,,,z,1,0.8213,,,,,,,,0.125925941,-0.175925936,0,0,0,,0,32,32,119,1,PAFER,LB,old,z,./images/PAFERLB.png,,,,,,,,,,,,,,,,,,,,,,,
,,,,,,,,,,,,,,,,,199870,18,2022-01-29_10h33.22.805,lexical_decision_task_DD_L2,2021.2.3,Win32,60.0060006,,,,,,,,,,,0.917,1,,,,,,,,,,,,,,m,1,0.917,,,,,,,,0.125925941,-0.175925936,0,0,0,,0,33,33,50,1,MALLET,C,old,m,./images/MALLET.png,,,,,,,,,,,,,,,,,,,,,,,
,,,,,,,,,,,,,,,,,199870,18,2022-01-29_10h33.22.805,lexical_decision_task_DD_L2,2021.2.3,Win32,60.0060006,,,,,,,,,,,1.4333,1,,,,,,,,,,,,,,m,1,1.4333,,,,,,,,0.125925941,-0.175925936,0,0,0,,0,34,34,81,1,POODLE,HB,old,m,./images/POODLEHB.png,,,,,,,,,,,,,,,,,,,,,,,
,,,,,,,,,,,,,,,,,199870,18,2022-01-29_10h33.22.805,lexical_decision_task_DD_L2,2021.2.3,Win32,60.0060006,,,,,,,,,,,1.3904,1,,,,,,,,,,,,,,m,1,1.3904,,,,,,,,0.125925941,-0.175925936,0,0,0,,0,35,35,59,1,BURIAL,C,old,m,./images/BURIAL.png,,,,,,,,,,,,,,,,,,,,,,,
,,,,,,,,,,,,,,,,,199870,18,2022-01-29_10h33.22.805,lexical_decision_task_DD_L2,2021.2.3,Win32,60.0060006,,,,,,,,,,,2.2498,1,,,,,,,,,,,,,,z,1,2.2498,,,,,,,,0.125925941,-0.175925936,0,0,0,,0,36,36,166,1,SHORY,HB,old,z,./images/SHORYHB.png,,,,,,,,,,,,,,,,,,,,,,,
,,,,,,,,,,,,,,,,,199870,18,2022-01-29_10h33.22.805,lexical_decision_task_DD_L2,2021.2.3,Win32,60.0060006,,,,,,,,,,,0.8463,1,,,,,,,,,,,,,,m,1,0.8463,,,,,,,,0.125925941,-0.175925936,0,0,0,,0,37,37,46,1,PEARL,LB,old,m,./images/PEARLLB.png,,,,,,,,,,,,,,,,,,,,,,,
,,,,,,,,,,,,,,,,,199870,18,2022-01-29_10h33.22.805,lexical_decision_task_DD_L2,2021.2.3,Win32,60.0060006,,,,,,,,,,,0.8666,1,,,,,,,,,,,,,,m,1,0.8666,,,,,,,,0.125925941,-0.175925936,0,0,0,,0,38,38,36,1,THROAT,HB,old,m,./images/THROATHB.png,,,,,,,,,,,,,,,,,,,,,,,
,,,,,,,,,,,,,,,,,199870,18,2022-01-29_10h33.22.805,lexical_decision_task_DD_L2,2021.2.3,Win32,60.0060006,,,,,,,,,,,0.9291,1,,,,,,,,,,,,,,m,1,0.9291,,,,,,,,0.125925941,-0.175925936,0,0,0,,0,39,39,13,1,MOTOR,LB,old,m,./images/MOTORLB.png,,,,,,,,,,,,,,,,,,,,,,,
,,,,,,,,,,,,,,,,,199870,18,2022-01-29_10h33.22.805,lexical_decision_task_DD_L2,2021.2.3,Win32,60.0060006,,,,,,,,,,,0.5846,1,,,,,,,,,,,,,,m,1,0.5846,,,,,,,,0.125925941,-0.175925936,0,0,0,,0,40,40,4,1,MUSCLE,LB,old,m,./images/MUSCLELB.png,,,,,,,,,,,,,,,,,,,,,,,
,,,,,,,,,,,,,,,,,199870,18,2022-01-29_10h33.22.805,lexical_decision_task_DD_L2,2021.2.3,Win32,60.0060006,,,,,,,,,,,1.2206,1,,,,,,,,,,,,,,z,1,1.2206,,,,,,,,0.125925941,-0.175925936,0,0,0,space,0,41,41,103,1,FLORT,HB,old,z,./images/FLORTHB.png,9.1439,,,,,,,,,,,,,,,,,,,,,,
,,,,,,,,,,,,,,,,,199870,18,2022-01-29_10h33.22.805,lexical_decision_task_DD_L2,2021.2.3,Win32,60.0060006,,,,,,,,,,,1.1778,0,,,,,,,,,,,,,,z,0,1.1778,,,,,,,,0.125925941,-0.175925936,0,0,0,,0,42,42,27,1,ATTIC,HB,old,m,./images/ATTICHB.png,,,,,,,,,,,,,,,,,,,,,,,
,,,,,,,,,,,,,,,,,199870,18,2022-01-29_10h33.22.805,lexical_decision_task_DD_L2,2021.2.3,Win32,60.0060006,,,,,,,,,,,1.028,1,,,,,,,,,,,,,,z,1,1.028,,,,,,,,0.125925941,-0.175925936,0,0,0,,0,43,43,87,1,TRING,C,old,z,./images/TRING.png,,,,,,,,,,,,,,,,,,,,,,,
,,,,,,,,,,,,,,,,,199870,18,2022-01-29_10h33.22.805,lexical_decision_task_DD_L2,2021.2.3,Win32,60.0060006,,,,,,,,,,,0.9797,1,,,,,,,,,,,,,,z,1,0.9797,,,,,,,,0.125925941,-0.175925936,0,0,0,,0,44,44,95,1,HANTY,LB,old,z,./images/HANTYLB.png,,,,,,,,,,,,,,,,,,,,,,,
,,,,,,,,,,,,,,,,,199870,18,2022-01-29_10h33.22.805,lexical_decision_task_DD_L2,2021.2.3,Win32,60.0060006,,,,,,,,,,,1.4092,1,,,,,,,,,,,,,,z,1,1.4092,,,,,,,,0.125925941,-0.175925936,0,0,0,,0,45,45,148,1,JOMS,HB,old,z,./images/JOMSHB.png,,,,,,,,,,,,,,,,,,,,,,,
,,,,,,,,,,,,,,,,,199870,18,2022-01-29_10h33.22.805,lexical_decision_task_DD_L2,2021.2.3,Win32,60.0060006,,,,,,,,,,,0.9333,1,,,,,,,,,,,,,,z,1,0.9333,,,,,,,,0.125925941,-0.175925936,0,0,0,,0,46,46,108,1,GRUET,C,old,z,./images/GRUET.png,,,,,,,,,,,,,,,,,,,,,,,
,,,,,,,,,,,,,,,,,199870,18,2022-01-29_10h33.22.805,lexical_decision_task_DD_L2,2021.2.3,Win32,60.0060006,,,,,,,,,,,1.5122,1,,,,,,,,,,,,,,m,1,1.5122,,,,,,,,0.125925941,-0.175925936,0,0,0,,0,47,47,12,1,SHORE,HB,old,m,./images/SHOREHB.png,,,,,,,,,,,,,,,,,,,,,,,
,,,,,,,,,,,,,,,,,199870,18,2022-01-29_10h33.22.805,lexical_decision_task_DD_L2,2021.2.3,Win32,60.0060006,,,,,,,,,,,0.7693,1,,,,,,,,,,,,,,m,1,0.7693,,,,,,,,0.125925941,-0.175925936,0,0,0,,0,48,48,14,1,PICKLE,C,old,m,./images/PICKLE.png,,,,,,,,,,,,,,,,,,,,,,,
,,,,,,,,,,,,,,,,,199870,18,2022-01-29_10h33.22.805,lexical_decision_task_DD_L2,2021.2.3,Win32,60.0060006,,,,,,,,,,,1.4849,1,,,,,,,,,,,,,,z,1,1.4849,,,,,,,,0.125925941,-0.175925936,0,0,0,,0,49,49,152,1,FRAIN,LB,old,z,./images/FRAINLB.png,,,,,,,,,,,,,,,,,,,,,,,
,,,,,,,,,,,,,,,,,199870,18,2022-01-29_10h33.22.805,lexical_decision_task_DD_L2,2021.2.3,Win32,60.0060006,,,,,,,,,,,0.9163,1,,,,,,,,,,,,,,m,1,0.9163,,,,,,,,0.125925941,-0.175925936,0,0,0,,0,50,50,23,1,WALRUS,C,old,m,./images/WALRUS.png,,,,,,,,,,,,,,,,,,,,,,,
,,,,,,,,,,,,,,,,,199870,18,2022-01-29_10h33.22.805,lexical_decision_task_DD_L2,2021.2.3,Win32,60.0060006,,,,,,,,,,,0.7505,1,,,,,,,,,,,,,,z,1,0.7505,,,,,,,,0.125925941,-0.175925936,0,0,0,,0,51,51,143,1,MONGS,LB,old,z,./images/MONGSLB.png,,,,,,,,,,,,,,,,,,,,,,,
,,,,,,,,,,,,,,,,,199870,18,2022-01-29_10h33.22.805,lexical_decision_task_DD_L2,2021.2.3,Win32,60.0060006,,,,,,,,,,,1.1869,1,,,,,,,,,,,,,,z,1,1.1869,,,,,,,,0.125925941,-0.175925936,0,0,0,,0,52,52,112,1,MYING,HB,old,z,./images/MYINGHB.png,,,,,,,,,,,,,,,,,,,,,,,
,,,,,,,,,,,,,,,,,199870,18,2022-01-29_10h33.22.805,lexical_decision_task_DD_L2,2021.2.3,Win32,60.0060006,,,,,,,,,,,0.7327,1,,,,,,,,,,,,,,z,1,0.7327,,,,,,,,0.125925941,-0.175925936,0,0,0,,0,53,53,167,1,ZONET,LB,old,z,./images/ZONETLB.png,,,,,,,,,,,,,,,,,,,,,,,
,,,,,,,,,,,,,,,,,199870,18,2022-01-29_10h33.22.805,lexical_decision_task_DD_L2,2021.2.3,Win32,60.0060006,,,,,,,,,,,1.2303,1,,,,,,,,,,,,,,z,1,1.2303,,,,,,,,0.125925941,-0.175925936,0,0,0,,0,54,54,107,1,FASKS,LB,old,z,./images/FASKSLB.png,,,,,,,,,,,,,,,,,,,,,,,
,,,,,,,,,,,,,,,,,199870,18,2022-01-29_10h33.22.805,lexical_decision_task_DD_L2,2021.2.3,Win32,60.0060006,,,,,,,,,,,0.8473,1,,,,,,,,,,,,,,m,1,0.8473,,,,,,,,0.125925941,-0.175925936,0,0,0,,0,55,55,49,1,DRUMS,LB,old,m,./images/DRUMSLB.png,,,,,,,,,,,,,,,,,,,,,,,
,,,,,,,,,,,,,,,,,199870,18,2022-01-29_10h33.22.805,lexical_decision_task_DD_L2,2021.2.3,Win32,60.0060006,,,,,,,,,,,0.7461,1,,,,,,,,,,,,,,z,1,0.7461,,,,,,,,0.125925941,-0.175925936,0,0,0,,0,56,56,113,1,LINEW,LB,old,z,./images/LINEWLB.png,,,,,,,,,,,,,,,,,,,,,,,
,,,,,,,,,,,,,,,,,199870,18,2022-01-29_10h33.22.805,lexical_decision_task_DD_L2,2021.2.3,Win32,60.0060006,,,,,,,,,,,1.7857,0,,,,,,,,,,,,,,m,0,1.7857,,,,,,,,0.125925941,-0.175925936,0,0,0,,0,57,57,104,1,GITTY,LB,old,z,./images/GITTYLB.png,,,,,,,,,,,,,,,,,,,,,,,
,,,,,,,,,,,,,,,,,199870,18,2022-01-29_10h33.22.805,lexical_decision_task_DD_L2,2021.2.3,Win32,60.0060006,,,,,,,,,,,1.4017,1,,,,,,,,,,,,,,z,1,1.4017,,,,,,,,0.125925941,-0.175925936,0,0,0,,0,58,58,115,1,MAWNS,HB,old,z,./images/MAWNSHB.png,,,,,,,,,,,,,,,,,,,,,,,
,,,,,,,,,,,,,,,,,199870,18,2022-01-29_10h33.22.805,lexical_decision_task_DD_L2,2021.2.3,Win32,60.0060006,,,,,,,,,,,1.1065,1,,,,,,,,,,,,,,z,1,1.1065,,,,,,,,0.125925941,-0.175925936,0,0,0,,0,59,59,93,1,SMONE,C,old,z,./images/SMONE.png,,,,,,,,,,,,,,,,,,,,,,,
,,,,,,,,,,,,,,,,,199870,18,2022-01-29_10h33.22.805,lexical_decision_task_DD_L2,2021.2.3,Win32,60.0060006,,,,,,,,,,,0.7416,1,,,,,,,,,,,,,,m,1,0.7416,,,,,,,,0.125925941,-0.175925936,0,0,0,,0,60,60,57,1,MOOSE,HB,old,m,./images/MOOSEHB.png,,,,,,,,,,,,,,,,,,,,,,,
,,,,,,,,,,,,,,,,,199870,18,2022-01-29_10h33.22.805,lexical_decision_task_DD_L2,2021.2.3,Win32,60.0060006,,,,,,,,,,,1.019,1,,,,,,,,,,,,,,m,1,1.019,,,,,,,,0.125925941,-0.175925936,0,0,0,,0,61,61,29,1,CRUMB,C,old,m,./images/CRUMB.png,,,,,,,,,,,,,,,,,,,,,,,
,,,,,,,,,,,,,,,,,199870,18,2022-01-29_10h33.22.805,lexical_decision_task_DD_L2,2021.2.3,Win32,60.0060006,,,,,,,,,,,0.8835,1,,,,,,,,,,,,,,z,1,0.8835,,,,,,,,0.125925941,-0.175925936,0,0,0,,0,62,62,158,1,EGECT,LB,old,z,./images/EGECTLB.png,,,,,,,,,,,,,,,,,,,,,,,
,,,,,,,,,,,,,,,,,199870,18,2022-01-29_10h33.22.805,lexical_decision_task_DD_L2,2021.2.3,Win32,60.0060006,,,,,,,,,,,0.8895,1,,,,,,,,,,,,,,z,1,0.8895,,,,,,,,0.125925941,-0.175925936,0,0,0,,0,63,63,125,1,MOOKY,LB,old,z,./images/MOOKYLB.png,,,,,,,,,,,,,,,,,,,,,,,
,,,,,,,,,,,,,,,,,199870,18,2022-01-29_10h33.22.805,lexical_decision_task_DD_L2,2021.2.3,Win32,60.0060006,,,,,,,,,,,0.7341,1,,,,,,,,,,,,,,m,1,0.7341,,,,,,,,0.125925941,-0.175925936,0,0,0,,0,64,64,7,1,PAINT,LB,old,m,./images/PAINTLB.png,,,,,,,,,,,,,,,,,,,,,,,
,,,,,,,,,,,,,,,,,199870,18,2022-01-29_10h33.22.805,lexical_decision_task_DD_L2,2021.2.3,Win32,60.0060006,,,,,,,,,,,1.1696,0,,,,,,,,,,,,,,m,0,1.1696,,,,,,,,0.125925941,-0.175925936,0,0,0,,0,65,65,141,1,PLEET,C,old,z,./images/PLEET.png,,,,,,,,,,,,,,,,,,,,,,,
,,,,,,,,,,,,,,,,,199870,18,2022-01-29_10h33.22.805,lexical_decision_task_DD_L2,2021.2.3,Win32,60.0060006,,,,,,,,,,,1.9663,1,,,,,,,,,,,,,,z,1,1.9663,,,,,,,,0.125925941,-0.175925936,0,0,0,,0,66,66,91,1,SHENS,HB,old,z,./images/SHENSHB.png,,,,,,,,,,,,,,,,,,,,,,,
,,,,,,,,,,,,,,,,,199870,18,2022-01-29_10h33.22.805,lexical_decision_task_DD_L2,2021.2.3,Win32,60.0060006,,,,,,,,,,,1.0421,1,,,,,,,,,,,,,,m,1,1.0421,,,,,,,,0.125925941,-0.175925936,0,0,0,,0,67,67,37,1,BIRTH,LB,old,m,./images/BIRTHLB.png,,,,,,,,,,,,,,,,,,,,,,,
,,,,,,,,,,,,,,,,,199870,18,2022-01-29_10h33.22.805,lexical_decision_task_DD_L2,2021.2.3,Win32,60.0060006,,,,,,,,,,,2.5188,1,,,,,,,,,,,,,,z,1,2.5188,,,,,,,,0.125925941,-0.175925936,0,0,0,,0,68,68,106,1,CLUMS,HB,old,z,./images/CLUMSHB.png,,,,,,,,,,,,,,,,,,,,,,,
,,,,,,,,,,,,,,,,,199870,18,2022-01-29_10h33.22.805,lexical_decision_task_DD_L2,2021.2.3,Win32,60.0060006,,,,,,,,,,,0.8339,1,,,,,,,,,,,,,,m,1,0.8339,,,,,,,,0.125925941,-0.175925936,0,0,0,,0,69,69,41,1,STRING,C,old,m,./images/STRING.png,,,,,,,,,,,,,,,,,,,,,,,
,,,,,,,,,,,,,,,,,199870,18,2022-01-29_10h33.22.805,lexical_decision_task_DD_L2,2021.2.3,Win32,60.0060006,,,,,,,,,,,0.9057,1,,,,,,,,,,,,,,m,1,0.9057,,,,,,,,0.125925941,-0.175925936,0,0,0,,0,70,70,60,1,TWINS,HB,old,m,./images/TWINSHB.png,,,,,,,,,,,,,,,,,,,,,,,
,,,,,,,,,,,,,,,,,199870,18,2022-01-29_10h33.22.805,lexical_decision_task_DD_L2,2021.2.3,Win32,60.0060006,,,,,,,,,,,0.9529,1,,,,,,,,,,,,,,z,1,0.9529,,,,,,,,0.125925941,-0.175925936,0,0,0,,0,71,71,98,1,BAMPS,LB,old,z,./images/BAMPSLB.png,,,,,,,,,,,,,,,,,,,,,,,
,,,,,,,,,,,,,,,,,199870,18,2022-01-29_10h33.22.805,lexical_decision_task_DD_L2,2021.2.3,Win32,60.0060006,,,,,,,,,,,0.8412,1,,,,,,,,,,,,,,m,1,0.8412,,,,,,,,0.125925941,-0.175925936,0,0,0,,0,72,72,76,1,INFANT,LB,old,m,./images/INFANTLB.png,,,,,,,,,,,,,,,,,,,,,,,
,,,,,,,,,,,,,,,,,199870,18,2022-01-29_10h33.22.805,lexical_decision_task_DD_L2,2021.2.3,Win32,60.0060006,,,,,,,,,,,0.9261,1,,,,,,,,,,,,,,m,1,0.9261,,,,,,,,0.125925941,-0.175925936,0,0,0,,0,73,73,5,1,PASTA,C,old,m,./images/PASTA.png,,,,,,,,,,,,,,,,,,,,,,,
,,,,,,,,,,,,,,,,,199870,18,2022-01-29_10h33.22.805,lexical_decision_task_DD_L2,2021.2.3,Win32,60.0060006,,,,,,,,,,,0.9115,1,,,,,,,,,,,,,,m,1,0.9115,,,,,,,,0.125925941,-0.175925936,0,0,0,,0,74,74,67,1,SAILOR,LB,old,m,./images/SAILORLB.png,,,,,,,,,,,,,,,,,,,,,,,
,,,,,,,,,,,,,,,,,199870,18,2022-01-29_10h33.22.805,lexical_decision_task_DD_L2,2021.2.3,Win32,60.0060006,,,,,,,,,,,0.9005,1,,,,,,,,,,,,,,m,1,0.9005,,,,,,,,0.125925941,-0.175925936,0,0,0,,0,75,75,3,1,FINGER,HB,old,m,./images/FINGERHB.png,,,,,,,,,,,,,,,,,,,,,,,
,,,,,,,,,,,,,,,,,199870,18,2022-01-29_10h33.22.805,lexical_decision_task_DD_L2,2021.2.3,Win32,60.0060006,,,,,,,,,,,3.0587,0,,,,,,,,,,,,,,m,0,3.0587,,,,,,,,0.125925941,-0.175925936,0,0,0,,0,76,76,142,1,PLASK,HB,old,z,./images/PLASKHB.png,,,,,,,,,,,,,,,,,,,,,,,
,,,,,,,,,,,,,,,,,199870,18,2022-01-29_10h33.22.805,lexical_decision_task_DD_L2,2021.2.3,Win32,60.0060006,,,,,,,,,,,1.8013,1,,,,,,,,,,,,,,m,1,1.8013,,,,,,,,0.125925941,-0.175925936,0,0,0,,0,77,77,43,1,MOSQUE,LB,old,m,./images/MOSQUELB.png,,,,,,,,,,,,,,,,,,,,,,,
,,,,,,,,,,,,,,,,,199870,18,2022-01-29_10h33.22.805,lexical_decision_task_DD_L2,2021.2.3,Win32,60.0060006,,,,,,,,,,,1.3026,1,,,,,,,,,,,,,,m,1,1.3026,,,,,,,,0.125925941,-0.175925936,0,0,0,,0,78,78,70,1,URINE,LB,old,m,./images/URINELB.png,,,,,,,,,,,,,,,,,,,,,,,
,,,,,,,,,,,,,,,,,199870,18,2022-01-29_10h33.22.805,lexical_decision_task_DD_L2,2021.2.3,Win32,60.0060006,,,,,,,,,,,0.9558,1,,,,,,,,,,,,,,m,1,0.9558,,,,,,,,0.125925941,-0.175925936,0,0,0,,0,79,79,9,1,RHINO,HB,old,m,./images/RHINOHB.png,,,,,,,,,,,,,,,,,,,,,,,
,,,,,,,,,,,,,,,,,199870,18,2022-01-29_10h33.22.805,lexical_decision_task_DD_L2,2021.2.3,Win32,60.0060006,,,,,,,,,,,0.8225,1,,,,,,,,,,,,,,z,1,0.8225,,,,,,,,0.125925941,-0.175925936,0,0,0,,0,80,80,89,1,DRIEK,LB,old,z,./images/DRIEKLB.png,,,,,,,,,,,,,,,,,,,,,,,
,,,,,,,,,,,,,,,,,199870,18,2022-01-29_10h33.22.805,lexical_decision_task_DD_L2,2021.2.3,Win32,60.0060006,,,,,,,,,,,2.5113,0,,,,,,,,,,,,,,m,0,2.5113,,,,,,,,0.125925941,-0.175925936,0,0,0,,0,81,81,110,1,CRUNK,LB,old,z,./images/CRUNKLB.png,,,,,,,,,,,,,,,,,,,,,,,
,,,,,,,,,,,,,,,,,199870,18,2022-01-29_10h33.22.805,lexical_decision_task_DD_L2,2021.2.3,Win32,60.0060006,,,,,,,,,,,0.9441,1,,,,,,,,,,,,,,m,1,0.9441,,,,,,,,0.125925941,-0.175925936,0,0,0,,0,82,82,66,1,SWEAT,HB,old,m,./images/SWEATHB.png,,,,,,,,,,,,,,,,,,,,,,,
,,,,,,,,,,,,,,,,,199870,18,2022-01-29_10h33.22.805,lexical_decision_task_DD_L2,2021.2.3,Win32,60.0060006,,,,,,,,,,,0.8063,1,,,,,,,,,,,,,,z,1,0.8063,,,,,,,,0.125925941,-0.175925936,0,0,0,space,0,83,83,150,1,NOOLS,C,old,z,./images/NOOLS.png,2.9887,,,,,,,,,,,,,,,,,,,,,,
,,,,,,,,,,,,,,,,,199870,18,2022-01-29_10h33.22.805,lexical_decision_task_DD_L2,2021.2.3,Win32,60.0060006,,,,,,,,,,,0.8675,1,,,,,,,,,,,,,,m,1,0.8675,,,,,,,,0.125925941,-0.175925936,0,0,0,,0,84,84,22,1,MELON,LB,old,m,./images/MELONLB.png,,,,,,,,,,,,,,,,,,,,,,,
,,,,,,,,,,,,,,,,,199870,18,2022-01-29_10h33.22.805,lexical_decision_task_DD_L2,2021.2.3,Win32,60.0060006,,,,,,,,,,,0.7194,1,,,,,,,,,,,,,,m,1,0.7194,,,,,,,,0.125925941,-0.175925936,0,0,0,,0,85,85,73,1,SNACK,LB,old,m,./images/SNACKLB.png,,,,,,,,,,,,,,,,,,,,,,,
,,,,,,,,,,,,,,,,,199870,18,2022-01-29_10h33.22.805,lexical_decision_task_DD_L2,2021.2.3,Win32,60.0060006,,,,,,,,,,,0.7116,1,,,,,,,,,,,,,,z,1,0.7116,,,,,,,,0.125925941,-0.175925936,0,0,0,,0,86,86,162,1,LEICH,C,old,z,./images/LEICH.png,,,,,,,,,,,,,,,,,,,,,,,
,,,,,,,,,,,,,,,,,199870,18,2022-01-29_10h33.22.805,lexical_decision_task_DD_L2,2021.2.3,Win32,60.0060006,,,,,,,,,,,2.2268,1,,,,,,,,,,,,,,m,1,2.2268,,,,,,,,0.125925941,-0.175925936,0,0,0,,0,87,87,0,1,TOMATO,HB,old,m,./images/TOMATOHB.png,,,,,,,,,,,,,,,,,,,,,,,
,,,,,,,,,,,,,,,,,199870,18,2022-01-29_10h33.22.805,lexical_decision_task_DD_L2,2021.2.3,Win32,60.0060006,,,,,,,,,,,1.716,1,,,,,,,,,,,,,,m,1,1.716,,,,,,,,0.125925941,-0.175925936,0,0,0,,0,88,88,61,1,CANDLE,LB,old,m,./images/CANDLELB.png,,,,,,,,,,,,,,,,,,,,,,,
,,,,,,,,,,,,,,,,,199870,18,2022-01-29_10h33.22.805,lexical_decision_task_DD_L2,2021.2.3,Win32,60.0060006,,,,,,,,,,,2.9347,1,,,,,,,,,,,,,,z,1,2.9347,,,,,,,,0.125925941,-0.175925936,0,0,0,,0,89,89,145,1,LAMEL,HB,old,z,./images/LAMELHB.png,,,,,,,,,,,,,,,,,,,,,,,
,,,,,,,,,,,,,,,,,199870,18,2022-01-29_10h33.22.805,lexical_decision_task_DD_L2,2021.2.3,Win32,60.0060006,,,,,,,,,,,0.9162,1,,,,,,,,,,,,,,m,1,0.9162,,,,,,,,0.125925941,-0.175925936,0,0,0,,0,90,90,74,1,CEMENT,C,old,m,./images/CEMENT.png,,,,,,,,,,,,,,,,,,,,,,,
,,,,,,,,,,,,,,,,,199870,18,2022-01-29_10h33.22.805,lexical_decision_task_DD_L2,2021.2.3,Win32,60.0060006,,,,,,,,,,,0.8891,1,,,,,,,,,,,,,,z,1,0.8891,,,,,,,,0.125925941,-0.175925936,0,0,0,,0,91,91,105,1,MOKER,C,old,z,./images/MOKER.png,,,,,,,,,,,,,,,,,,,,,,,
,,,,,,,,,,,,,,,,,199870,18,2022-01-29_10h33.22.805,lexical_decision_task_DD_L2,2021.2.3,Win32,60.0060006,,,,,,,,,,,0.7345,1,,,,,,,,,,,,,,z,1,0.7345,,,,,,,,0.125925941,-0.175925936,0,0,0,,0,92,92,138,1,PLICE,C,old,z,./images/PLICE.png,,,,,,,,,,,,,,,,,,,,,,,
,,,,,,,,,,,,,,,,,199870,18,2022-01-29_10h33.22.805,lexical_decision_task_DD_L2,2021.2.3,Win32,60.0060006,,,,,,,,,,,0.8932,1,,,,,,,,,,,,,,m,1,0.8932,,,,,,,,0.125925941,-0.175925936,0,0,0,,0,93,93,6,1,SQUARE,HB,old,m,./images/SQUAREHB.png,,,,,,,,,,,,,,,,,,,,,,,
,,,,,,,,,,,,,,,,,199870,18,2022-01-29_10h33.22.805,lexical_decision_task_DD_L2,2021.2.3,Win32,60.0060006,,,,,,,,,,,2.3018,1,,,,,,,,,,,,,,z,1,2.3018,,,,,,,,0.125925941,-0.175925936,0,0,0,,0,94,94,94,1,BLANS,HB,old,z,./images/BLANSHB.png,,,,,,,,,,,,,,,,,,,,,,,
,,,,,,,,,,,,,,,,,199870,18,2022-01-29_10h33.22.805,lexical_decision_task_DD_L2,2021.2.3,Win32,60.0060006,,,,,,,,,,,0.7721,1,,,,,,,,,,,,,,m,1,0.7721,,,,,,,,0.125925941,-0.175925936,0,0,0,,0,95,95,83,1,JUNGLE,C,old,m,./images/JUNGLE.png,,,,,,,,,,,,,,,,,,,,,,,
,,,,,,,,,,,,,,,,,199870,18,2022-01-29_10h33.22.805,lexical_decision_task_DD_L2,2021.2.3,Win32,60.0060006,,,,,,,,,,,1.5659,1,,,,,,,,,,,,,,m,1,1.5659,,,,,,,,0.125925941,-0.175925936,0,0,0,,0,96,96,47,1,BERRY,C,old,m,./images/BERRY.png,,,,,,,,,,,,,,,,,,,,,,,
,,,,,,,,,,,,,,,,,199870,18,2022-01-29_10h33.22.805,lexical_decision_task_DD_L2,2021.2.3,Win32,60.0060006,,,,,,,,,,,3.4159,1,,,,,,,,,,,,,,m,1,3.4159,,,,,,,,0.125925941,-0.175925936,0,0,0,,0,97,97,69,1,COOKER,HB,old,m,./images/COOKERHB.png,,,,,,,,,,,,,,,,,,,,,,,
,,,,,,,,,,,,,,,,,199870,18,2022-01-29_10h33.22.805,lexical_decision_task_DD_L2,2021.2.3,Win32,60.0060006,,,,,,,,,,,0.6911,1,,,,,,,,,,,,,,z,1,0.6911,,,,,,,,0.125925941,-0.175925936,0,0,0,,0,98,98,132,1,SCIFF,C,old,z,./images/SCIFF.png,,,,,,,,,,,,,,,,,,,,,,,
,,,,,,,,,,,,,,,,,199870,18,2022-01-29_10h33.22.805,lexical_decision_task_DD_L2,2021.2.3,Win32,60.0060006,,,,,,,,,,,0.8827,1,,,,,,,,,,,,,,m,1,0.8827,,,,,,,,0.125925941,-0.175925936,0,0,0,,0,99,99,24,1,SCREW,HB,old,m,./images/SCREWHB.png,,,,,,,,,,,,,,,,,,,,,,,
,,,,,,,,,,,,,,,,,199870,18,2022-01-29_10h33.22.805,lexical_decision_task_DD_L2,2021.2.3,Win32,60.0060006,,,,,,,,,,,0.784,1,,,,,,,,,,,,,,z,1,0.784,,,,,,,,0.125925941,-0.175925936,0,0,0,,0,100,100,144,1,NAIRY,C,old,z,./images/NAIRY.png,,,,,,,,,,,,,,,,,,,,,,,
,,,,,,,,,,,,,,,,,199870,18,2022-01-29_10h33.22.805,lexical_decision_task_DD_L2,2021.2.3,Win32,60.0060006,,,,,,,,,,,1.1039,1,,,,,,,,,,,,,,m,1,1.1039,,,,,,,,0.125925941,-0.175925936,0,0,0,,0,101,101,15,1,GREASE,HB,old,m,./images/GREASEHB.png,,,,,,,,,,,,,,,,,,,,,,,
,,,,,,,,,,,,,,,,,199870,18,2022-01-29_10h33.22.805,lexical_decision_task_DD_L2,2021.2.3,Win32,60.0060006,,,,,,,,,,,0.702,1,,,,,,,,,,,,,,m,1,0.702,,,,,,,,0.125925941,-0.175925936,0,0,0,,0,102,102,82,1,SUNSET,LB,old,m,./images/SUNSETLB.png,,,,,,,,,,,,,,,,,,,,,,,
,,,,,,,,,,,,,,,,,199870,18,2022-01-29_10h33.22.805,lexical_decision_task_DD_L2,2021.2.3,Win32,60.0060006,,,,,,,,,,,0.6951,1,,,,,,,,,,,,,,m,1,0.6951,,,,,,,,0.125925941,-0.175925936,0,0,0,,0,103,103,65,1,FARMER,C,old,m,./images/FARMER.png,,,,,,,,,,,,,,,,,,,,,,,
,,,,,,,,,,,,,,,,,199870,18,2022-01-29_10h33.22.805,lexical_decision_task_DD_L2,2021.2.3,Win32,60.0060006,,,,,,,,,,,1.8032,1,,,,,,,,,,,,,,m,1,1.8032,,,,,,,,0.125925941,-0.175925936,0,0,0,,0,104,104,54,1,TRIPOD,HB,old,m,./images/TRIPODHB.png,,,,,,,,,,,,,,,,,,,,,,,
,,,,,,,,,,,,,,,,,199870,18,2022-01-29_10h33.22.805,lexical_decision_task_DD_L2,2021.2.3,Win32,60.0060006,,,,,,,,,,,0.6337,1,,,,,,,,,,,,,,m,1,0.6337,,,,,,,,0.125925941,-0.175925936,0,0,0,,0,105,105,25,1,WRIST,LB,old,m,./images/WRISTLB.png,,,,,,,,,,,,,,,,,,,,,,,
,,,,,,,,,,,,,,,,,199870,18,2022-01-29_10h33.22.805,lexical_decision_task_DD_L2,2021.2.3,Win32,60.0060006,,,,,,,,,,,0.6663,1,,,,,,,,,,,,,,m,1,0.6663,,,,,,,,0.125925941,-0.175925936,0,0,0,,0,106,106,38,1,LADDER,C,old,m,./images/LADDER.png,,,,,,,,,,,,,,,,,,,,,,,
,,,,,,,,,,,,,,,,,199870,18,2022-01-29_10h33.22.805,lexical_decision_task_DD_L2,2021.2.3,Win32,60.0060006,,,,,,,,,,,0.7676,1,,,,,,,,,,,,,,z,1,0.7676,,,,,,,,0.125925941,-0.175925936,0,0,0,,0,107,107,129,1,PRANS,C,old,z,./images/PRANS.png,,,,,,,,,,,,,,,,,,,,,,,
,,,,,,,,,,,,,,,,,199870,18,2022-01-29_10h33.22.805,lexical_decision_task_DD_L2,2021.2.3,Win32,60.0060006,,,,,,,,,,,1.037,1,,,,,,,,,,,,,,m,1,1.037,,,,,,,,0.125925941,-0.175925936,0,0,0,,0,108,108,18,1,JAGUAR,HB,old,m,./images/JAGUARHB.png,,,,,,,,,,,,,,,,,,,,,,,
,,,,,,,,,,,,,,,,,199870,18,2022-01-29_10h33.22.805,lexical_decision_task_DD_L2,2021.2.3,Win32,60.0060006,,,,,,,,,,,0.7005,1,,,,,,,,,,,,,,m,1,0.7005,,,,,,,,0.125925941,-0.175925936,0,0,0,,0,109,109,63,1,MIRROR,HB,old,m,./images/MIRRORHB.png,,,,,,,,,,,,,,,,,,,,,,,
,,,,,,,,,,,,,,,,,199870,18,2022-01-29_10h33.22.805,lexical_decision_task_DD_L2,2021.2.3,Win32,60.0060006,,,,,,,,,,,4.7411,1,,,,,,,,,,,,,,m,1,4.7411,,,,,,,,0.125925941,-0.175925936,0,0,0,,0,110,110,77,1,COUCH,C,old,m,./images/COUCH.png,,,,,,,,,,,,,,,,,,,,,,,
,,,,,,,,,,,,,,,,,199870,18,2022-01-29_10h33.22.805,lexical_decision_task_DD_L2,2021.2.3,Win32,60.0060006,,,,,,,,,,,0.6999,1,,,,,,,,,,,,,,z,1,0.6999,,,,,,,,0.125925941,-0.175925936,0,0,0,,0,111,111,122,1,BLOOT,LB,old,z,./images/BLOOTLB.png,,,,,,,,,,,,,,,,,,,,,,,
,,,,,,,,,,,,,,,,,199870,18,2022-01-29_10h33.22.805,lexical_decision_task_DD_L2,2021.2.3,Win32,60.0060006,,,,,,,,,,,1.3503,1,,,,,,,,,,,,,,z,1,1.3503,,,,,,,,0.125925941,-0.175925936,0,0,0,,0,112,112,157,1,INLER,HB,old,z,./images/INLERHB.png,,,,,,,,,,,,,,,,,,,,,,,
,,,,,,,,,,,,,,,,,199870,18,2022-01-29_10h33.22.805,lexical_decision_task_DD_L2,2021.2.3,Win32,60.0060006,,,,,,,,,,,2.2496,1,,,,,,,,,,,,,,z,1,2.2496,,,,,,,,0.125925941,-0.175925936,0,0,0,,0,113,113,140,1,DOVET,LB,old,z,./images/DOVETLB.png,,,,,,,,,,,,,,,,,,,,,,,
,,,,,,,,,,,,,,,,,199870,18,2022-01-29_10h33.22.805,lexical_decision_task_DD_L2,2021.2.3,Win32,60.0060006,,,,,,,,,,,1.2594,1,,,,,,,,,,,,,,z,1,1.2594,,,,,,,,0.125925941,-0.175925936,0,0,0,,0,114,114,102,1,DULLE,C,old,z,./images/DULLE.png,,,,,,,,,,,,,,,,,,,,,,,
,,,,,,,,,,,,,,,,,199870,18,2022-01-29_10h33.22.805,lexical_decision_task_DD_L2,2021.2.3,Win32,60.0060006,,,,,,,,,,,0.7446,1,,,,,,,,,,,,,,m,1,0.7446,,,,,,,,0.125925941,-0.175925936,0,0,0,,0,115,115,79,1,CRUST,LB,old,m,./images/CRUSTLB.png,,,,,,,,,,,,,,,,,,,,,,,
,,,,,,,,,,,,,,,,,199870,18,2022-01-29_10h33.22.805,lexical_decision_task_DD_L2,2021.2.3,Win32,60.0060006,,,,,,,,,,,0.8497,1,,,,,,,,,,,,,,z,1,0.8497,,,,,,,,0.125925941,-0.175925936,0,0,0,,0,116,116,86,1,AIFED,LB,old,z,./images/AIFEDLB.png,,,,,,,,,,,,,,,,,,,,,,,
,,,,,,,,,,,,,,,,,199870,18,2022-01-29_10h33.22.805,lexical_decision_task_DD_L2,2021.2.3,Win32,60.0060006,,,,,,,,,,,0.6864,1,,,,,,,,,,,,,,m,1,0.6864,,,,,,,,0.125925941,-0.175925936,0,0,0,,0,117,117,26,1,SMOKER,C,old,m,./images/SMOKER.png,,,,,,,,,,,,,,,,,,,,,,,
,,,,,,,,,,,,,,,,,199870,18,2022-01-29_10h33.22.805,lexical_decision_task_DD_L2,2021.2.3,Win32,60.0060006,,,,,,,,,,,0.7107,1,,,,,,,,,,,,,,z,1,0.7107,,,,,,,,0.125925941,-0.175925936,0,0,0,,0,118,118,164,1,SGREW,LB,old,z,./images/SGREWLB.png,,,,,,,,,,,,,,,,,,,,,,,
,,,,,,,,,,,,,,,,,199870,18,2022-01-29_10h33.22.805,lexical_decision_task_DD_L2,2021.2.3,Win32,60.0060006,,,,,,,,,,,1.0683,1,,,,,,,,,,,,,,m,1,1.0683,,,,,,,,0.125925941,-0.175925936,0,0,0,,0,119,119,39,1,SHELF,HB,old,m,./images/SHELFHB.png,,,,,,,,,,,,,,,,,,,,,,,
,,,,,,,,,,,,,,,,,199870,18,2022-01-29_10h33.22.805,lexical_decision_task_DD_L2,2021.2.3,Win32,60.0060006,,,,,,,,,,,1.1834,1,,,,,,,,,,,,,,z,1,1.1834,,,,,,,,0.125925941,-0.175925936,0,0,0,,0,120,120,134,1,TROSS,LB,old,z,./images/TROSSLB.png,,,,,,,,,,,,,,,,,,,,,,,
,,,,,,,,,,,,,,,,,199870,18,2022-01-29_10h33.22.805,lexical_decision_task_DD_L2,2021.2.3,Win32,60.0060006,,,,,,,,,,,0.6849,1,,,,,,,,,,,,,,z,1,0.6849,,,,,,,,0.125925941,-0.175925936,0,0,0,,0,121,121,116,1,BALGY,LB,old,z,./images/BALGYLB.png,,,,,,,,,,,,,,,,,,,,,,,
,,,,,,,,,,,,,,,,,199870,18,2022-01-29_10h33.22.805,lexical_decision_task_DD_L2,2021.2.3,Win32,60.0060006,,,,,,,,,,,1.0574,1,,,,,,,,,,,,,,z,1,1.0574,,,,,,,,0.125925941,-0.175925936,0,0,0,,0,122,122,120,1,RINED,C,old,z,./images/RINED.png,,,,,,,,,,,,,,,,,,,,,,,
,,,,,,,,,,,,,,,,,199870,18,2022-01-29_10h33.22.805,lexical_decision_task_DD_L2,2021.2.3,Win32,60.0060006,,,,,,,,,,,0.7453,1,,,,,,,,,,,,,,z,1,0.7453,,,,,,,,0.125925941,-0.175925936,0,0,0,,0,123,123,131,1,NACES,LB,old,z,./images/NACESLB.png,,,,,,,,,,,,,,,,,,,,,,,
,,,,,,,,,,,,,,,,,199870,18,2022-01-29_10h33.22.805,lexical_decision_task_DD_L2,2021.2.3,Win32,60.0060006,,,,,,,,,,,0.7832,1,,,,,,,,,,,,,,m,1,0.7832,,,,,,,,0.125925941,-0.175925936,0,0,0,,0,124,124,42,1,FOLDER,HB,old,m,./images/FOLDERHB.png,,,,,,,,,,,,,,,,,,,,,,,
,,,,,,,,,,,,,,,,,199870,18,2022-01-29_10h33.22.805,lexical_decision_task_DD_L2,2021.2.3,Win32,60.0060006,,,,,,,,,,,0.7212,1,,,,,,,,,,,,,,m,1,0.7212,,,,,,,,0.125925941,-0.175925936,0,0,0,space,0,125,125,53,1,CARPET,C,old,m,./images/CARPET.png,1.5334,,,,,,,,,,,,,,,,,,,,,,
,,,,,,,,,,,,,,,,,199870,18,2022-01-29_10h33.22.805,lexical_decision_task_DD_L2,2021.2.3,Win32,60.0060006,,,,,,,,,,,1.2051,1,,,,,,,,,,,,,,m,1,1.2051,,,,,,,,0.125925941,-0.175925936,0,0,0,,0,126,126,1,1,PLANK,LB,old,m,./images/PLANKLB.png,,,,,,,,,,,,,,,,,,,,,,,
,,,,,,,,,,,,,,,,,199870,18,2022-01-29_10h33.22.805,lexical_decision_task_DD_L2,2021.2.3,Win32,60.0060006,,,,,,,,,,,1.1268,1,,,,,,,,,,,,,,z,1,1.1268,,,,,,,,0.125925941,-0.175925936,0,0,0,,0,127,127,130,1,CRILL,HB,old,z,./images/CRILLHB.png,,,,,,,,,,,,,,,,,,,,,,,
,,,,,,,,,,,,,,,,,199870,18,2022-01-29_10h33.22.805,lexical_decision_task_DD_L2,2021.2.3,Win32,60.0060006,,,,,,,,,,,0.8504,1,,,,,,,,,,,,,,z,1,0.8504,,,,,,,,0.125925941,-0.175925936,0,0,0,,0,128,128,114,1,RIKES,C,old,z,./images/RIKES.png,,,,,,,,,,,,,,,,,,,,,,,
,,,,,,,,,,,,,,,,,199870,18,2022-01-29_10h33.22.805,lexical_decision_task_DD_L2,2021.2.3,Win32,60.0060006,,,,,,,,,,,1,1,,,,,,,,,,,,,,m,1,1,,,,,,,,0.125925941,-0.175925936,0,0,0,,0,129,129,68,1,TORCH,C,old,m,./images/TORCH.png,,,,,,,,,,,,,,,,,,,,,,,
,,,,,,,,,,,,,,,,,199870,18,2022-01-29_10h33.22.805,lexical_decision_task_DD_L2,2021.2.3,Win32,60.0060006,,,,,,,,,,,1.0962,1,,,,,,,,,,,,,,z,1,1.0962,,,,,,,,0.125925941,-0.175925936,0,0,0,,0,130,130,85,1,CHULK,HB,old,z,./images/CHULKHB.png,,,,,,,,,,,,,,,,,,,,,,,
,,,,,,,,,,,,,,,,,199870,18,2022-01-29_10h33.22.805,lexical_decision_task_DD_L2,2021.2.3,Win32,60.0060006,,,,,,,,,,,1.0679,1,,,,,,,,,,,,,,z,1,1.0679,,,,,,,,0.125925941,-0.175925936,0,0,0,,0,131,131,151,1,TINKY,HB,old,z,./images/TINKYHB.png,,,,,,,,,,,,,,,,,,,,,,,
,,,,,,,,,,,,,,,,,199870,18,2022-01-29_10h33.22.805,lexical_decision_task_DD_L2,2021.2.3,Win32,60.0060006,,,,,,,,,,,0.8335,1,,,,,,,,,,,,,,m,1,0.8335,,,,,,,,0.125925941,-0.175925936,0,0,0,,0,132,132,19,1,DOUGH,LB,old,m,./images/DOUGHLB.png,,,,,,,,,,,,,,,,,,,,,,,
,,,,,,,,,,,,,,,,,199870,18,2022-01-29_10h33.22.805,lexical_decision_task_DD_L2,2021.2.3,Win32,60.0060006,,,,,,,,,,,0.8248,1,,,,,,,,,,,,,,m,1,0.8248,,,,,,,,0.125925941,-0.175925936,0,0,0,,0,133,133,75,1,GRAIN,HB,old,m,./images/GRAINHB.png,,,,,,,,,,,,,,,,,,,,,,,
,,,,,,,,,,,,,,,,,199870,18,2022-01-29_10h33.22.805,lexical_decision_task_DD_L2,2021.2.3,Win32,60.0060006,,,,,,,,,,,0.835,1,,,,,,,,,,,,,,z,1,0.835,,,,,,,,0.125925941,-0.175925936,0,0,0,,0,134,134,153,1,CLUPS,C,old,z,./images/CLUPS.png,,,,,,,,,,,,,,,,,,,,,,,
,,,,,,,,,,,,,,,,,199870,18,2022-01-29_10h33.22.805,lexical_decision_task_DD_L2,2021.2.3,Win32,60.0060006,,,,,,,,,,,0.7747,1,,,,,,,,,,,,,,m,1,0.7747,,,,,,,,0.125925941,-0.175925936,0,0,0,,0,135,135,56,1,PACKET,C,old,m,./images/PACKET.png,,,,,,,,,,,,,,,,,,,,,,,
,,,,,,,,,,,,,,,,,199870,18,2022-01-29_10h33.22.805,lexical_decision_task_DD_L2,2021.2.3,Win32,60.0060006,,,,,,,,,,,0.7329,1,,,,,,,,,,,,,,m,1,0.7329,,,,,,,,0.125925941,-0.175925936,0,0,0,,0,136,136,10,1,BELLY,LB,old,m,./images/BELLYLB.png,,,,,,,,,,,,,,,,,,,,,,,
,,,,,,,,,,,,,,,,,199870,18,2022-01-29_10h33.22.805,lexical_decision_task_DD_L2,2021.2.3,Win32,60.0060006,,,,,,,,,,,1.1166,1,,,,,,,,,,,,,,z,1,1.1166,,,,,,,,0.125925941,-0.175925936,0,0,0,,0,137,137,139,1,BLEAR,HB,old,z,./images/BLEARHB.png,,,,,,,,,,,,,,,,,,,,,,,
,,,,,,,,,,,,,,,,,199870,18,2022-01-29_10h33.22.805,lexical_decision_task_DD_L2,2021.2.3,Win32,60.0060006,,,,,,,,,,,0.7265,0,,,,,,,,,,,,,,z,0,0.7265,,,,,,,,0.125925941,-0.175925936,0,0,0,,0,138,138,11,1,BONNET,C,old,m,./images/BONNET.png,,,,,,,,,,,,,,,,,,,,,,,
,,,,,,,,,,,,,,,,,199870,18,2022-01-29_10h33.22.805,lexical_decision_task_DD_L2,2021.2.3,Win32,60.0060006,,,,,,,,,,,0.6071,1,,,,,,,,,,,,,,m,1,0.6071,,,,,,,,0.125925941,-0.175925936,0,0,0,,0,139,139,44,1,LIZARD,C,old,m,./images/LIZARD.png,,,,,,,,,,,,,,,,,,,,,,,
,,,,,,,,,,,,,,,,,199870,18,2022-01-29_10h33.22.805,lexical_decision_task_DD_L2,2021.2.3,Win32,60.0060006,,,,,,,,,,,0.8287,1,,,,,,,,,,,,,,z,1,0.8287,,,,,,,,0.125925941,-0.175925936,0,0,0,,0,140,140,92,1,PAIMS,LB,old,z,./images/PAIMSLB.png,,,,,,,,,,,,,,,,,,,,,,,
,,,,,,,,,,,,,,,,,199870,18,2022-01-29_10h33.22.805,lexical_decision_task_DD_L2,2021.2.3,Win32,60.0060006,,,,,,,,,,,0.7182,1,,,,,,,,,,,,,,z,1,0.7182,,,,,,,,0.125925941,-0.175925936,0,0,0,,0,141,141,137,1,JOOST,LB,old,z,./images/JOOSTLB.png,,,,,,,,,,,,,,,,,,,,,,,
,,,,,,,,,,,,,,,,,199870,18,2022-01-29_10h33.22.805,lexical_decision_task_DD_L2,2021.2.3,Win32,60.0060006,,,,,,,,,,,0.8162,1,,,,,,,,,,,,,,z,1,0.8162,,,,,,,,0.125925941,-0.175925936,0,0,0,,0,142,142,124,1,TUNCH,HB,old,z,./images/TUNCHHB.png,,,,,,,,,,,,,,,,,,,,,,,
,,,,,,,,,,,,,,,,,199870,18,2022-01-29_10h33.22.805,lexical_decision_task_DD_L2,2021.2.3,Win32,60.0060006,,,,,,,,,,,1.8008,1,,,,,,,,,,,,,,m,1,1.8008,,,,,,,,0.125925941,-0.175925936,0,0,0,,0,143,143,16,1,PENCE,LB,old,m,./images/PENCELB.png,,,,,,,,,,,,,,,,,,,,,,,
,,,,,,,,,,,,,,,,,199870,18,2022-01-29_10h33.22.805,lexical_decision_task_DD_L2,2021.2.3,Win32,60.0060006,,,,,,,,,,,0.8002,0,,,,,,,,,,,,,,z,0,0.8002,,,,,,,,0.125925941,-0.175925936,0,0,0,,0,144,144,33,1,MAGGOT,HB,old,m,./images/MAGGOTHB.png,,,,,,,,,,,,,,,,,,,,,,,
,,,,,,,,,,,,,,,,,199870,18,2022-01-29_10h33.22.805,lexical_decision_task_DD_L2,2021.2.3,Win32,60.0060006,,,,,,,,,,,0.7245,1,,,,,,,,,,,,,,m,1,0.7245,,,,,,,,0.125925941,-0.175925936,0,0,0,,0,145,145,45,1,KITTEN,HB,old,m,./images/KITTENHB.png,,,,,,,,,,,,,,,,,,,,,,,
,,,,,,,,,,,,,,,,,199870,18,2022-01-29_10h33.22.805,lexical_decision_task_DD_L2,2021.2.3,Win32,60.0060006,,,,,,,,,,,0.7066,1,,,,,,,,,,,,,,z,1,0.7066,,,,,,,,0.125925941,-0.175925936,0,0,0,,0,146,146,147,1,ZOLES,C,old,z,./images/ZOLES.png,,,,,,,,,,,,,,,,,,,,,,,
,,,,,,,,,,,,,,,,,199870,18,2022-01-29_10h33.22.805,lexical_decision_task_DD_L2,2021.2.3,Win32,60.0060006,,,,,,,,,,,1.3084,1,,,,,,,,,,,,,,m,1,1.3084,,,,,,,,0.125925941,-0.175925936,0,0,0,,0,147,147,2,1,BEARD,C,old,m,./images/BEARD.png,,,,,,,,,,,,,,,,,,,,,,,
,,,,,,,,,,,,,,,,,199870,18,2022-01-29_10h33.22.805,lexical_decision_task_DD_L2,2021.2.3,Win32,60.0060006,,,,,,,,,,,1.1276,1,,,,,,,,,,,,,,z,1,1.1276,,,,,,,,0.125925941,-0.175925936,0,0,0,,0,148,148,118,1,BAVEL,HB,old,z,./images/BAVELHB.png,,,,,,,,,,,,,,,,,,,,,,,
,,,,,,,,,,,,,,,,,199870,18,2022-01-29_10h33.22.805,lexical_decision_task_DD_L2,2021.2.3,Win32,60.0060006,,,,,,,,,,,1.6995,1,,,,,,,,,,,,,,z,1,1.6995,,,,,,,,0.125925941,-0.175925936,0,0,0,,0,149,149,90,1,NEAST,C,old,z,./images/NEAST.png,,,,,,,,,,,,,,,,,,,,,,,
,,,,,,,,,,,,,,,,,199870,18,2022-01-29_10h33.22.805,lexical_decision_task_DD_L2,2021.2.3,Win32,60.0060006,,,,,,,,,,,1.3496,0,,,,,,,,,,,,,,m,0,1.3496,,,,,,,,0.125925941,-0.175925936,0,0,0,,0,150,150,163,1,GAMBA,HB,old,z,./images/GAMBAHB.png,,,,,,,,,,,,,,,,,,,,,,,
,,,,,,,,,,,,,,,,,199870,18,2022-01-29_10h33.22.805,lexical_decision_task_DD_L2,2021.2.3,Win32,60.0060006,,,,,,,,,,,0.8863,1,,,,,,,,,,,,,,z,1,0.8863,,,,,,,,0.125925941,-0.175925936,0,0,0,,0,151,151,126,1,GUELS,C,old,z,./images/GUELS.png,,,,,,,,,,,,,,,,,,,,,,,
,,,,,,,,,,,,,,,,,199870,18,2022-01-29_10h33.22.805,lexical_decision_task_DD_L2,2021.2.3,Win32,60.0060006,,,,,,,,,,,0.9003,1,,,,,,,,,,,,,,m,1,0.9003,,,,,,,,0.125925941,-0.175925936,0,0,0,,0,152,152,8,1,TULIP,C,old,m,./images/TULIP.png,,,,,,,,,,,,,,,,,,,,,,,
,,,,,,,,,,,,,,,,,199870,18,2022-01-29_10h33.22.805,lexical_decision_task_DD_L2,2021.2.3,Win32,60.0060006,,,,,,,,,,,0.7582,1,,,,,,,,,,,,,,m,1,0.7582,,,,,,,,0.125925941,-0.175925936,0,0,0,,0,153,153,35,1,PEACH,C,old,m,./images/PEACH.png,,,,,,,,,,,,,,,,,,,,,,,
,,,,,,,,,,,,,,,,,199870,18,2022-01-29_10h33.22.805,lexical_decision_task_DD_L2,2021.2.3,Win32,60.0060006,,,,,,,,,,,0.7505,1,,,,,,,,,,,,,,z,1,0.7505,,,,,,,,0.125925941,-0.175925936,0,0,0,,0,154,154,127,1,NINDY,HB,old,z,./images/NINDYHB.png,,,,,,,,,,,,,,,,,,,,,,,
,,,,,,,,,,,,,,,,,199870,18,2022-01-29_10h33.22.805,lexical_decision_task_DD_L2,2021.2.3,Win32,60.0060006,,,,,,,,,,,2.1382,1,,,,,,,,,,,,,,z,1,2.1382,,,,,,,,0.125925941,-0.175925936,0,0,0,,0,155,155,96,1,KEAMS,C,old,z,./images/KEAMS.png,,,,,,,,,,,,,,,,,,,,,,,
,,,,,,,,,,,,,,,,,199870,18,2022-01-29_10h33.22.805,lexical_decision_task_DD_L2,2021.2.3,Win32,60.0060006,,,,,,,,,,,2.3827,1,,,,,,,,,,,,,,m,1,2.3827,,,,,,,,0.125925941,-0.175925936,0,0,0,,0,156,156,17,1,SKIING,C,old,m,./images/SKIING.png,,,,,,,,,,,,,,,,,,,,,,,
,,,,,,,,,,,,,,,,,199870,18,2022-01-29_10h33.22.805,lexical_decision_task_DD_L2,2021.2.3,Win32,60.0060006,,,,,,,,,,,0.7511,1,,,,,,,,,,,,,,m,1,0.7511,,,,,,,,0.125925941,-0.175925936,0,0,0,,0,157,157,30,1,STORM,HB,old,m,./images/STORMHB.png,,,,,,,,,,,,,,,,,,,,,,,
,,,,,,,,,,,,,,,,,199870,18,2022-01-29_10h33.22.805,lexical_decision_task_DD_L2,2021.2.3,Win32,60.0060006,,,,,,,,,,,1.0828,0,,,,,,,,,,,,,,z,0,1.0828,,,,,,,,0.125925941,-0.175925936,0,0,0,,0,158,158,31,1,QUILL,LB,old,m,./images/QUILLLB.png,,,,,,,,,,,,,,,,,,,,,,,
,,,,,,,,,,,,,,,,,199870,18,2022-01-29_10h33.22.805,lexical_decision_task_DD_L2,2021.2.3,Win32,60.0060006,,,,,,,,,,,0.6666,1,,,,,,,,,,,,,,m,1,0.6666,,,,,,,,0.125925941,-0.175925936,0,0,0,,0,159,159,64,1,JELLY,LB,old,m,./images/JELLYLB.png,,,,,,,,,,,,,,,,,,,,,,,
,,,,,,,,,,,,,,,,,199870,18,2022-01-29_10h33.22.805,lexical_decision_task_DD_L2,2021.2.3,Win32,60.0060006,,,,,,,,,,,1.2494,1,,,,,,,,,,,,,,z,1,1.2494,,,,,,,,0.125925941,-0.175925936,0,0,0,,0,160,160,133,1,POWDY,HB,old,z,./images/POWDYHB.png,,,,,,,,,,,,,,,,,,,,,,,
,,,,,,,,,,,,,,,,,199870,18,2022-01-29_10h33.22.805,lexical_decision_task_DD_L2,2021.2.3,Win32,60.0060006,,,,,,,,,,,1.8173,1,,,,,,,,,,,,,,z,1,1.8173,,,,,,,,0.125925941,-0.175925936,0,0,0,,0,161,161,165,1,TROWN,C,old,z,./images/TROWN.png,,,,,,,,,,,,,,,,,,,,,,,
,,,,,,,,,,,,,,,,,199870,18,2022-01-29_10h33.22.805,lexical_decision_task_DD_L2,2021.2.3,Win32,60.0060006,,,,,,,,,,,0.8726,1,,,,,,,,,,,,,,z,1,0.8726,,,,,,,,0.125925941,-0.175925936,0,0,0,,0,162,162,156,1,HIXES,C,old,z,./images/HIXES.png,,,,,,,,,,,,,,,,,,,,,,,
,,,,,,,,,,,,,,,,,199870,18,2022-01-29_10h33.22.805,lexical_decision_task_DD_L2,2021.2.3,Win32,60.0060006,,,,,,,,,,,0.7171,1,,,,,,,,,,,,,,m,1,0.7171,,,,,,,,0.125925941,-0.175925936,0,0,0,,0,163,163,51,1,ONION,HB,old,m,./images/ONIONHB.png,,,,,,,,,,,,,,,,,,,,,,,
,,,,,,,,,,,,,,,,,199870,18,2022-01-29_10h33.22.805,lexical_decision_task_DD_L2,2021.2.3,Win32,60.0060006,,,,,,,,,,,0.7212,1,,,,,,,,,,,,,,m,1,0.7212,,,,,,,,0.125925941,-0.175925936,0,0,0,,0,164,164,48,1,SPORT,HB,old,m,./images/SPORTHB.png,,,,,,,,,,,,,,,,,,,,,,,
,,,,,,,,,,,,,,,,,199870,18,2022-01-29_10h33.22.805,lexical_decision_task_DD_L2,2021.2.3,Win32,60.0060006,,,,,,,,,,,0.954,1,,,,,,,,,,,,,,z,1,0.954,,,,,,,,0.125925941,-0.175925936,0,0,0,,0,165,165,146,1,MOOST,LB,old,z,./images/MOOSTLB.png,,,,,,,,,,,,,,,,,,,,,,,
,,,,,,,,,,,,,,,,,199870,18,2022-01-29_10h33.22.805,lexical_decision_task_DD_L2,2021.2.3,Win32,60.0060006,,,,,,,,,,,1.0416,0,,,,,,,,,,,,,,z,0,1.0416,,,,,,,,0.125925941,-0.175925936,0,0,0,,0,166,166,58,1,BABOON,LB,old,m,./images/BABOONLB.png,,,,,,,,,,,,,,,,,,,,,,,
,,,,,,,,,,,,,,,,,199870,18,2022-01-29_10h33.22.805,lexical_decision_task_DD_L2,2021.2.3,Win32,60.0060006,,,,,,,,,,,1.1216,1,,,,,,,,,,,,,,z,1,1.1216,,,,,,,,0.125925941,-0.175925936,0,0,0,,0,167,167,84,1,HAXES,C,old,z,./images/HAXES.png,,,,,,,,,,,,,,,,,,,,,,,
space,17.8489,0.125925941,-0.175925936,0,0,0,,,,,,1,test,"In the next phase you will be presented with the words from the the first phase. Your job is to decide whether you remember seeing the word or not. If you remember seeing the word press ""old"" or type ""m"". If you do not remember seeing the word press ""new"" or type ""z"". Please press the space bar or click on continue to begin. ",,,199870,18,2022-01-29_10h33.22.805,lexical_decision_task_DD_L2,2021.2.3,Win32,60.0060006,,,,,,,,,,,,,,,,,,,,,,,,,,,,,,,,,,,,,,,,,,,,,,,,,,,,,0,0,0,0,1,,,,,,,,,,,,,,,,,
space,1.3843,0.125925941,-0.175925936,0,0,0,,,,,,1,test,"In the next phase you will be presented with the words from the the first phase. Your job is to decide whether you remember seeing the word or not. If you remember seeing the word press ""old"" or type ""m"". If you do not remember seeing the word press ""new"" or type ""z"". Please press the space bar or click on continue to begin. ",,,199870,18,2022-01-29_10h33.22.805,lexical_decision_task_DD_L2,2021.2.3,Win32,60.0060006,,,,,,,,,,,,,,,,,,,,,,,,,,,,,,,,,,,,,,,,,,,,,,,,,,,,,1,0,1,0,1,,,,,,,,,,,,,,,,,
,,-0.000925913,-0.394444458,1,0,0,,,,,,1,test,"In the next phase you will be presented with the words from the the first phase. Your job is to decide whether you remember seeing the word or not. If you remember seeing the word press ""old"" or type ""m"". If you do not remember seeing the word press ""new"" or type ""z"". Please press the space bar or click on continue to begin. ",,,199870,18,2022-01-29_10h33.22.805,lexical_decision_task_DD_L2,2021.2.3,Win32,60.0060006,,,,,,,,,,,,,,,,,,,,,,,,,,,,,,,,,,,,,,,,,,,,,,,,,,,,,2,0,2,0,1,instr_done_button,,,,,,,,,,,,,,,,
,,0.02592594,-0.375000013,1,0,0,,,,,,1,test,"In the next phase you will be presented with the words from the the first phase. Your job is to decide whether you remember seeing the word or not. If you remember seeing the word press ""old"" or type ""m"". If you do not remember seeing the word press ""new"" or type ""z"". Please press the space bar or click on continue to begin. ",,,199870,18,2022-01-29_10h33.22.805,lexical_decision_task_DD_L2,2021.2.3,Win32,60.0060006,,,,,,,,,,,,,,,,,,,,,,,,,,,,,,,,,,,,,,,,,,,,,,,,,,,,,3,0,3,0,1,instr_done_button,,,,,,,,,,,,,,,,
space,1.2807,0.048148219,-0.288888957,0,0,0,,,,,,1,test,"In the next phase you will be presented with the words from the the first phase. Your job is to decide whether you remember seeing the word or not. If you remember seeing the word press ""old"" or type ""m"". If you do not remember seeing the word press ""new"" or type ""z"". Please press the space bar or click on continue to begin. ",,,199870,18,2022-01-29_10h33.22.805,lexical_decision_task_DD_L2,2021.2.3,Win32,60.0060006,,,,,,,,,,,,,,,,,,,,,,,,,,,,,,,,,,,,,,,,,,,,,,,,,,,,,4,0,4,0,1,,,,,,,,,,,,,,,,,
,,,,,,,,,,,,,,,,,199870,18,2022-01-29_10h33.22.805,lexical_decision_task_DD_L2,2021.2.3,Win32,60.0060006,,,,,,,,,,,3.1662,1,,,,,,,,,,,,,,,,,,,,,,,,0.216666683,-0.098148157,0,0,0,,,,,,,GREASE,HB,m,y,./images/GREASEHB.png,,,,,,,,m,1,3.1662,,,,,,,,0,0,0,15,1,
,,,,,,,,,,,,,,,,,199870,18,2022-01-29_10h33.22.805,lexical_decision_task_DD_L2,2021.2.3,Win32,60.0060006,,,,,,,,,,,2.3899,1,,,,,,,,,,,,,,,,,,,,,,,,0.216666683,-0.098148157,0,0,0,,,,,,,RHINO,HB,m,y,./images/RHINOHB.png,,,,,,,,m,1,2.3899,,,,,,,,0,1,1,9,1,
,,,,,,,,,,,,,,,,,199870,18,2022-01-29_10h33.22.805,lexical_decision_task_DD_L2,2021.2.3,Win32,60.0060006,,,,,,,,,,,1.2918,0,,,,,,,,,,,,,,,,,,,,,,,,0.216666683,-0.098148157,0,0,0,,,,,,,MOTOR,LB,m,y,./images/MOTORLB.png,,,,,,,,z,0,1.2918,,,,,,,,0,2,2,13,1,
,,,,,,,,,,,,,,,,,199870,18,2022-01-29_10h33.22.805,lexical_decision_task_DD_L2,2021.2.3,Win32,60.0060006,,,,,,,,,,,0.8881,1,,,,,,,,,,,,,,,,,,,,,,,,0.216666683,-0.098148157,0,0,0,,,,,,,SAUCE,HB,z,y,./images/SAUCEHB.png,,,,,,,,z,1,0.8881,,,,,,,,0,3,3,135,1,
,,,,,,,,,,,,,,,,,199870,18,2022-01-29_10h33.22.805,lexical_decision_task_DD_L2,2021.2.3,Win32,60.0060006,,,,,,,,,,,1.0918,0,,,,,,,,,,,,,,,,,,,,,,,,0.216666683,-0.098148157,0,0,0,,,,,,,BURIAL,C,m,y,./images/BURIAL.png,,,,,,,,z,0,1.0918,,,,,,,,0,4,4,59,1,
,,,,,,,,,,,,,,,,,199870,18,2022-01-29_10h33.22.805,lexical_decision_task_DD_L2,2021.2.3,Win32,60.0060006,,,,,,,,,,,1.0404,1,,,,,,,,,,,,,,,,,,,,,,,,0.216666683,-0.098148157,0,0,0,,,,,,,GARDEN,LB,z,y,./images/GARDENLB.png,,,,,,,,z,1,1.0404,,,,,,,,0,5,5,94,1,
,,,,,,,,,,,,,,,,,199870,18,2022-01-29_10h33.22.805,lexical_decision_task_DD_L2,2021.2.3,Win32,60.0060006,,,,,,,,,,,2.1387,1,,,,,,,,,,,,,,,,,,,,,,,,0.216666683,-0.098148157,0,0,0,,,,,,,MAMMAL,C,z,y,./images/MAMMAL.png,,,,,,,,z,1,2.1387,,,,,,,,0,6,6,146,1,
,,,,,,,,,,,,,,,,,199870,18,2022-01-29_10h33.22.805,lexical_decision_task_DD_L2,2021.2.3,Win32,60.0060006,,,,,,,,,,,1.2702,1,,,,,,,,,,,,,,,,,,,,,,,,0.216666683,-0.098148157,0,0,0,,,,,,,MUSCLE,LB,m,y,./images/MUSCLELB.png,,,,,,,,m,1,1.2702,,,,,,,,0,7,7,4,1,
,,,,,,,,,,,,,,,,,199870,18,2022-01-29_10h33.22.805,lexical_decision_task_DD_L2,2021.2.3,Win32,60.0060006,,,,,,,,,,,4.3182,0,,,,,,,,,,,,,,,,,,,,,,,,0.216666683,-0.098148157,0,0,0,,,,,,,PIMPLE,C,m,y,./images/PIMPLE.png,,,,,,,,z,0,4.3182,,,,,,,,0,8,8,71,1,
,,,,,,,,,,,,,,,,,199870,18,2022-01-29_10h33.22.805,lexical_decision_task_DD_L2,2021.2.3,Win32,60.0060006,,,,,,,,,,,1.8895,0,,,,,,,,,,,,,,,,,,,,,,,,0.216666683,-0.098148157,0,0,0,,,,,,,CLIFF,C,z,y,./images/CLIFF.png,,,,,,,,m,0,1.8895,,,,,,,,0,9,9,92,1,
,,,,,,,,,,,,,,,,,199870,18,2022-01-29_10h33.22.805,lexical_decision_task_DD_L2,2021.2.3,Win32,60.0060006,,,,,,,,,,,0.9004,1,,,,,,,,,,,,,,,,,,,,,,,,0.216666683,-0.098148157,0,0,0,,,,,,,LIZARD,C,m,y,./images/LIZARD.png,,,,,,,,m,1,0.9004,,,,,,,,0,10,10,44,1,
,,,,,,,,,,,,,,,,,199870,18,2022-01-29_10h33.22.805,lexical_decision_task_DD_L2,2021.2.3,Win32,60.0060006,,,,,,,,,,,1.0713,1,,,,,,,,,,,,,,,,,,,,,,,,0.216666683,-0.098148157,0,0,0,,,,,,,LADDER,C,m,y,./images/LADDER.png,,,,,,,,m,1,1.0713,,,,,,,,0,11,11,38,1,
,,,,,,,,,,,,,,,,,199870,18,2022-01-29_10h33.22.805,lexical_decision_task_DD_L2,2021.2.3,Win32,60.0060006,,,,,,,,,,,0.9933,1,,,,,,,,,,,,,,,,,,,,,,,,0.216666683,-0.098148157,0,0,0,,,,,,,QUILL,LB,m,y,./images/QUILLLB.png,,,,,,,,m,1,0.9933,,,,,,,,0,12,12,31,1,
,,,,,,,,,,,,,,,,,199870,18,2022-01-29_10h33.22.805,lexical_decision_task_DD_L2,2021.2.3,Win32,60.0060006,,,,,,,,,,,1.2524,1,,,,,,,,,,,,,,,,,,,,,,,,0.216666683,-0.098148157,0,0,0,,,,,,,MIDGET,LB,z,y,./images/MIDGETLB.png,,,,,,,,z,1,1.2524,,,,,,,,0,13,13,160,1,
,,,,,,,,,,,,,,,,,199870,18,2022-01-29_10h33.22.805,lexical_decision_task_DD_L2,2021.2.3,Win32,60.0060006,,,,,,,,,,,1.8245,1,,,,,,,,,,,,,,,,,,,,,,,,0.216666683,-0.098148157,0,0,0,,,,,,,PARADE,C,z,y,./images/PARADE.png,,,,,,,,z,1,1.8245,,,,,,,,0,14,14,101,1,
,,,,,,,,,,,,,,,,,199870,18,2022-01-29_10h33.22.805,lexical_decision_task_DD_L2,2021.2.3,Win32,60.0060006,,,,,,,,,,,1.4008,0,,,,,,,,,,,,,,,,,,,,,,,,0.216666683,-0.098148157,0,0,0,,,,,,,FLASK,HB,z,y,./images/FLASKHB.png,,,,,,,,m,0,1.4008,,,,,,,,0,15,15,156,1,
,,,,,,,,,,,,,,,,,199870,18,2022-01-29_10h33.22.805,lexical_decision_task_DD_L2,2021.2.3,Win32,60.0060006,,,,,,,,,,,1.4407,0,,,,,,,,,,,,,,,,,,,,,,,,0.216666683,-0.098148157,0,0,0,,,,,,,LAGOON,C,z,y,./images/LAGOON.png,,,,,,,,m,0,1.4407,,,,,,,,0,16,16,131,1,
,,,,,,,,,,,,,,,,,199870,18,2022-01-29_10h33.22.805,lexical_decision_task_DD_L2,2021.2.3,Win32,60.0060006,,,,,,,,,,,2.0199,0,,,,,,,,,,,,,,,,,,,,,,,,0.216666683,-0.098148157,0,0,0,,,,,,,STAIN,HB,z,y,./images/STAINHB.png,,,,,,,,m,0,2.0199,,,,,,,,0,17,17,90,1,
,,,,,,,,,,,,,,,,,199870,18,2022-01-29_10h33.22.805,lexical_decision_task_DD_L2,2021.2.3,Win32,60.0060006,,,,,,,,,,,1.0359,1,,,,,,,,,,,,,,,,,,,,,,,,0.216666683,-0.098148157,0,0,0,,,,,,,THROAT,HB,m,y,./images/THROATHB.png,,,,,,,,m,1,1.0359,,,,,,,,0,18,18,36,1,
,,,,,,,,,,,,,,,,,199870,18,2022-01-29_10h33.22.805,lexical_decision_task_DD_L2,2021.2.3,Win32,60.0060006,,,,,,,,,,,1.6834,0,,,,,,,,,,,,,,,,,,,,,,,,0.216666683,-0.098148157,0,0,0,,,,,,,CANOE,LB,z,y,./images/CANOELB.png,,,,,,,,m,0,1.6834,,,,,,,,0,19,19,142,1,
,,,,,,,,,,,,,,,,,199870,18,2022-01-29_10h33.22.805,lexical_decision_task_DD_L2,2021.2.3,Win32,60.0060006,,,,,,,,,,,0.967,0,,,,,,,,,,,,,,,,,,,,,,,,0.216666683,-0.098148157,0,0,0,,,,,,,GRAPE,LB,z,y,./images/GRAPELB.png,,,,,,,,m,0,0.967,,,,,,,,0,20,20,100,1,
,,,,,,,,,,,,,,,,,199870,18,2022-01-29_10h33.22.805,lexical_decision_task_DD_L2,2021.2.3,Win32,60.0060006,,,,,,,,,,,0.7076,1,,,,,,,,,,,,,,,,,,,,,,,,0.216666683,-0.098148157,0,0,0,,,,,,,BEARD,C,m,y,./images/BEARD.png,,,,,,,,m,1,0.7076,,,,,,,,0,21,21,2,1,
,,,,,,,,,,,,,,,,,199870,18,2022-01-29_10h33.22.805,lexical_decision_task_DD_L2,2021.2.3,Win32,60.0060006,,,,,,,,,,,2.035,1,,,,,,,,,,,,,,,,,,,,,,,,0.216666683,-0.098148157,0,0,0,,,,,,,NOOSE,HB,m,y,./images/NOOSEHB.png,,,,,,,,m,1,2.035,,,,,,,,0,22,22,72,1,
,,,,,,,,,,,,,,,,,199870,18,2022-01-29_10h33.22.805,lexical_decision_task_DD_L2,2021.2.3,Win32,60.0060006,,,,,,,,,,,0.927,1,,,,,,,,,,,,,,,,,,,,,,,,0.216666683,-0.098148157,0,0,0,,,,,,,POODLE,HB,m,y,./images/POODLEHB.png,,,,,,,,m,1,0.927,,,,,,,,0,23,23,81,1,
,,,,,,,,,,,,,,,,,199870,18,2022-01-29_10h33.22.805,lexical_decision_task_DD_L2,2021.2.3,Win32,60.0060006,,,,,,,,,,,1.3436,1,,,,,,,,,,,,,,,,,,,,,,,,0.216666683,-0.098148157,0,0,0,,,,,,,MUMMY,LB,z,y,./images/MUMMYLB.png,,,,,,,,z,1,1.3436,,,,,,,,0,24,24,130,1,
,,,,,,,,,,,,,,,,,199870,18,2022-01-29_10h33.22.805,lexical_decision_task_DD_L2,2021.2.3,Win32,60.0060006,,,,,,,,,,,1.0838,1,,,,,,,,,,,,,,,,,,,,,,,,0.216666683,-0.098148157,0,0,0,,,,,,,COUCH,C,m,y,./images/COUCH.png,,,,,,,,m,1,1.0838,,,,,,,,0,25,25,77,1,
,,,,,,,,,,,,,,,,,199870,18,2022-01-29_10h33.22.805,lexical_decision_task_DD_L2,2021.2.3,Win32,60.0060006,,,,,,,,,,,1.333,0,,,,,,,,,,,,,,,,,,,,,,,,0.216666683,-0.098148157,0,0,0,,,,,,,INFANT,LB,m,y,./images/INFANTLB.png,,,,,,,,z,0,1.333,,,,,,,,0,26,26,76,1,
,,,,,,,,,,,,,,,,,199870,18,2022-01-29_10h33.22.805,lexical_decision_task_DD_L2,2021.2.3,Win32,60.0060006,,,,,,,,,,,0.9254,1,,,,,,,,,,,,,,,,,,,,,,,,0.216666683,-0.098148157,0,0,0,,,,,,,WRIST,LB,m,y,./images/WRISTLB.png,,,,,,,,m,1,0.9254,,,,,,,,0,27,27,25,1,
,,,,,,,,,,,,,,,,,199870,18,2022-01-29_10h33.22.805,lexical_decision_task_DD_L2,2021.2.3,Win32,60.0060006,,,,,,,,,,,1.0504,1,,,,,,,,,,,,,,,,,,,,,,,,0.216666683,-0.098148157,0,0,0,,,,,,,MALLET,C,m,y,./images/MALLET.png,,,,,,,,m,1,1.0504,,,,,,,,0,28,28,50,1,
,,,,,,,,,,,,,,,,,199870,18,2022-01-29_10h33.22.805,lexical_decision_task_DD_L2,2021.2.3,Win32,60.0060006,,,,,,,,,,,1.7379,1,,,,,,,,,,,,,,,,,,,,,,,,0.216666683,-0.098148157,0,0,0,,,,,,,CANDLE,LB,m,y,./images/CANDLELB.png,,,,,,,,m,1,1.7379,,,,,,,,0,29,29,61,1,
,,,,,,,,,,,,,,,,,199870,18,2022-01-29_10h33.22.805,lexical_decision_task_DD_L2,2021.2.3,Win32,60.0060006,,,,,,,,,,,0.9727,1,,,,,,,,,,,,,,,,,,,,,,,,0.216666683,-0.098148157,0,0,0,,,,,,,PACKET,C,m,y,./images/PACKET.png,,,,,,,,m,1,0.9727,,,,,,,,0,30,30,56,1,
,,,,,,,,,,,,,,,,,199870,18,2022-01-29_10h33.22.805,lexical_decision_task_DD_L2,2021.2.3,Win32,60.0060006,,,,,,,,,,,1.0362,1,,,,,,,,,,,,,,,,,,,,,,,,0.216666683,-0.098148157,0,0,0,,,,,,,PILOT,C,z,y,./images/PILOT.png,,,,,,,,z,1,1.0362,,,,,,,,0,31,31,134,1,
,,,,,,,,,,,,,,,,,199870,18,2022-01-29_10h33.22.805,lexical_decision_task_DD_L2,2021.2.3,Win32,60.0060006,,,,,,,,,,,2.4522,0,,,,,,,,,,,,,,,,,,,,,,,,0.216666683,-0.098148157,0,0,0,,,,,,,KITTEN,HB,m,y,./images/KITTENHB.png,,,,,,,,z,0,2.4522,,,,,,,,0,32,32,45,1,
,,,,,,,,,,,,,,,,,199870,18,2022-01-29_10h33.22.805,lexical_decision_task_DD_L2,2021.2.3,Win32,60.0060006,,,,,,,,,,,1.4002,0,,,,,,,,,,,,,,,,,,,,,,,,0.216666683,-0.098148157,0,0,0,,,,,,,URINE,LB,m,y,./images/URINELB.png,,,,,,,,z,0,1.4002,,,,,,,,0,33,33,70,1,
,,,,,,,,,,,,,,,,,199870,18,2022-01-29_10h33.22.805,lexical_decision_task_DD_L2,2021.2.3,Win32,60.0060006,,,,,,,,,,,1.0769,1,,,,,,,,,,,,,,,,,,,,,,,,0.216666683,-0.098148157,0,0,0,,,,,,,BANANA,LB,z,y,./images/BANANALB.png,,,,,,,,z,1,1.0769,,,,,,,,0,34,34,154,1,
,,,,,,,,,,,,,,,,,199870,18,2022-01-29_10h33.22.805,lexical_decision_task_DD_L2,2021.2.3,Win32,60.0060006,,,,,,,,,,,2.5737,1,,,,,,,,,,,,,,,,,,,,,,,,0.216666683,-0.098148157,0,0,0,,,,,,,BIRTH,LB,m,y,./images/BIRTHLB.png,,,,,,,,m,1,2.5737,,,,,,,,0,35,35,37,1,
,,,,,,,,,,,,,,,,,199870,18,2022-01-29_10h33.22.805,lexical_decision_task_DD_L2,2021.2.3,Win32,60.0060006,,,,,,,,,,,0.9599,1,,,,,,,,,,,,,,,,,,,,,,,,0.216666683,-0.098148157,0,0,0,,,,,,,CEMENT,C,m,y,./images/CEMENT.png,,,,,,,,m,1,0.9599,,,,,,,,0,36,36,74,1,
,,,,,,,,,,,,,,,,,199870,18,2022-01-29_10h33.22.805,lexical_decision_task_DD_L2,2021.2.3,Win32,60.0060006,,,,,,,,,,,1.9164,0,,,,,,,,,,,,,,,,,,,,,,,,0.216666683,-0.098148157,0,0,0,,,,,,,SHELF,HB,m,y,./images/SHELFHB.png,,,,,,,,z,0,1.9164,,,,,,,,0,37,37,39,1,
,,,,,,,,,,,,,,,,,199870,18,2022-01-29_10h33.22.805,lexical_decision_task_DD_L2,2021.2.3,Win32,60.0060006,,,,,,,,,,,1.0881,1,,,,,,,,,,,,,,,,,,,,,,,,0.216666683,-0.098148157,0,0,0,,,,,,,FENCE,C,z,y,./images/FENCE.png,,,,,,,,z,1,1.0881,,,,,,,,0,38,38,98,1,
,,,,,,,,,,,,,,,,,199870,18,2022-01-29_10h33.22.805,lexical_decision_task_DD_L2,2021.2.3,Win32,60.0060006,,,,,,,,,,,1.1041,1,,,,,,,,,,,,,,,,,,,,,,,,0.216666683,-0.098148157,0,0,0,,,,,,,CHAIN,HB,z,y,./images/CHAINHB.png,,,,,,,,z,1,1.1041,,,,,,,,0,39,39,126,1,
,,,,,,,,,,,,,,,,,199870,18,2022-01-29_10h33.22.805,lexical_decision_task_DD_L2,2021.2.3,Win32,60.0060006,,,,,,,,,,,0.949,0,,,,,,,,,,,,,,,,,,,,,,,,0.216666683,-0.098148157,0,0,0,,,,,,,RAZOR,LB,z,y,./images/RAZORLB.png,,,,,,,,m,0,0.949,,,,,,,,0,40,40,118,1,
,,,,,,,,,,,,,,,,,199870,18,2022-01-29_10h33.22.805,lexical_decision_task_DD_L2,2021.2.3,Win32,60.0060006,,,,,,,,,,,0.9334,1,,,,,,,,,,,,,,,,,,,,,,,,0.074074088,-0.447222236,1,0,0,,,,,,,PLANET,C,z,y,./images/PLANET.png,,,,,,,,z,1,0.9334,,,,,,,,0,41,41,164,1,break_done_button
,,,,,,,,,,,,,,,,,199870,18,2022-01-29_10h33.22.805,lexical_decision_task_DD_L2,2021.2.3,Win32,60.0060006,,,,,,,,,,,1.2003,1,,,,,,,,,,,,,,,,,,,,,,,,0.074074088,-0.447222236,0,0,0,,,,,,,SLOPE,HB,z,y,./images/SLOPEHB.png,,,,,,,,z,1,1.2003,,,,,,,,0,42,42,114,1,
,,,,,,,,,,,,,,,,,199870,18,2022-01-29_10h33.22.805,lexical_decision_task_DD_L2,2021.2.3,Win32,60.0060006,,,,,,,,,,,1.357,1,,,,,,,,,,,,,,,,,,,,,,,,0.074074088,-0.447222236,0,0,0,,,,,,,SAUNA,HB,z,y,./images/SAUNAHB.png,,,,,,,,z,1,1.357,,,,,,,,0,43,43,117,1,
,,,,,,,,,,,,,,,,,199870,18,2022-01-29_10h33.22.805,lexical_decision_task_DD_L2,2021.2.3,Win32,60.0060006,,,,,,,,,,,2.9718,0,,,,,,,,,,,,,,,,,,,,,,,,0.074074088,-0.447222236,0,0,0,,,,,,,BONNET,C,m,y,./images/BONNET.png,,,,,,,,z,0,2.9718,,,,,,,,0,44,44,11,1,
,,,,,,,,,,,,,,,,,199870,18,2022-01-29_10h33.22.805,lexical_decision_task_DD_L2,2021.2.3,Win32,60.0060006,,,,,,,,,,,1.8784,1,,,,,,,,,,,,,,,,,,,,,,,,0.074074088,-0.447222236,0,0,0,,,,,,,WAGON,LB,z,y,./images/WAGONLB.png,,,,,,,,z,1,1.8784,,,,,,,,0,45,45,91,1,
,,,,,,,,,,,,,,,,,199870,18,2022-01-29_10h33.22.805,lexical_decision_task_DD_L2,2021.2.3,Win32,60.0060006,,,,,,,,,,,0.817,1,,,,,,,,,,,,,,,,,,,,,,,,0.074074088,-0.447222236,0,0,0,,,,,,,SKIING,C,m,y,./images/SKIING.png,,,,,,,,m,1,0.817,,,,,,,,0,46,46,17,1,
,,,,,,,,,,,,,,,,,199870,18,2022-01-29_10h33.22.805,lexical_decision_task_DD_L2,2021.2.3,Win32,60.0060006,,,,,,,,,,,1.1845,1,,,,,,,,,,,,,,,,,,,,,,,,0.074074088,-0.447222236,0,0,0,,,,,,,DRILL,HB,z,y,./images/DRILLHB.png,,,,,,,,z,1,1.1845,,,,,,,,0,47,47,165,1,
,,,,,,,,,,,,,,,,,199870,18,2022-01-29_10h33.22.805,lexical_decision_task_DD_L2,2021.2.3,Win32,60.0060006,,,,,,,,,,,0.9002,1,,,,,,,,,,,,,,,,,,,,,,,,0.074074088,-0.447222236,0,0,0,,,,,,,MOSQUE,LB,m,y,./images/MOSQUELB.png,,,,,,,,m,1,0.9002,,,,,,,,0,48,48,43,1,
,,,,,,,,,,,,,,,,,199870,18,2022-01-29_10h33.22.805,lexical_decision_task_DD_L2,2021.2.3,Win32,60.0060006,,,,,,,,,,,0.7768,1,,,,,,,,,,,,,,,,,,,,,,,,0.074074088,-0.447222236,0,0,0,,,,,,,FALCON,LB,m,y,./images/FALCONLB.png,,,,,,,,m,1,0.7768,,,,,,,,0,49,49,28,1,
,,,,,,,,,,,,,,,,,199870,18,2022-01-29_10h33.22.805,lexical_decision_task_DD_L2,2021.2.3,Win32,60.0060006,,,,,,,,,,,3.1107,0,,,,,,,,,,,,,,,,,,,,,,,,0.074074088,-0.447222236,0,0,0,,,,,,,BISHOP,LB,z,y,./images/BISHOPLB.png,,,,,,,,m,0,3.1107,,,,,,,,0,50,50,133,1,
,,,,,,,,,,,,,,,,,199870,18,2022-01-29_10h33.22.805,lexical_decision_task_DD_L2,2021.2.3,Win32,60.0060006,,,,,,,,,,,0.864,1,,,,,,,,,,,,,,,,,,,,,,,,0.074074088,-0.447222236,0,0,0,,,,,,,SWING,LB,m,y,./images/SWINGLB.png,,,,,,,,m,1,0.864,,,,,,,,0,51,51,40,1,
,,,,,,,,,,,,,,,,,199870,18,2022-01-29_10h33.22.805,lexical_decision_task_DD_L2,2021.2.3,Win32,60.0060006,,,,,,,,,,,0.8022,1,,,,,,,,,,,,,,,,,,,,,,,,0.074074088,-0.447222236,0,0,0,,,,,,,FINGER,HB,m,y,./images/FINGERHB.png,,,,,,,,m,1,0.8022,,,,,,,,0,52,52,3,1,
,,,,,,,,,,,,,,,,,199870,18,2022-01-29_10h33.22.805,lexical_decision_task_DD_L2,2021.2.3,Win32,60.0060006,,,,,,,,,,,3.8325,1,,,,,,,,,,,,,,,,,,,,,,,,0.074074088,-0.447222236,0,0,0,,,,,,,CLOTH,C,z,y,./images/CLOTH.png,,,,,,,,z,1,3.8325,,,,,,,,0,53,53,107,1,
,,,,,,,,,,,,,,,,,199870,18,2022-01-29_10h33.22.805,lexical_decision_task_DD_L2,2021.2.3,Win32,60.0060006,,,,,,,,,,,0.7799,1,,,,,,,,,,,,,,,,,,,,,,,,0.074074088,-0.447222236,0,0,0,,,,,,,KIDNEY,HB,m,y,./images/KIDNEYHB.png,,,,,,,,m,1,0.7799,,,,,,,,0,54,54,21,1,
,,,,,,,,,,,,,,,,,199870,18,2022-01-29_10h33.22.805,lexical_decision_task_DD_L2,2021.2.3,Win32,60.0060006,,,,,,,,,,,2.6699,0,,,,,,,,,,,,,,,,,,,,,,,,0.074074088,-0.447222236,0,0,0,,,,,,,BLOKE,HB,z,y,./images/BLOKEHB.png,,,,,,,,m,0,2.6699,,,,,,,,0,55,55,96,1,
,,,,,,,,,,,,,,,,,199870,18,2022-01-29_10h33.22.805,lexical_decision_task_DD_L2,2021.2.3,Win32,60.0060006,,,,,,,,,,,0.6343,1,,,,,,,,,,,,,,,,,,,,,,,,0.074074088,-0.447222236,0,0,0,,,,,,,SPORT,HB,m,y,./images/SPORTHB.png,,,,,,,,m,1,0.6343,,,,,,,,0,56,56,48,1,
,,,,,,,,,,,,,,,,,199870,18,2022-01-29_10h33.22.805,lexical_decision_task_DD_L2,2021.2.3,Win32,60.0060006,,,,,,,,,,,1.2809,0,,,,,,,,,,,,,,,,,,,,,,,,0.074074088,-0.447222236,0,0,0,,,,,,,BUTTER,HB,z,y,./images/BUTTERHB.png,,,,,,,,m,0,1.2809,,,,,,,,0,57,57,111,1,
,,,,,,,,,,,,,,,,,199870,18,2022-01-29_10h33.22.805,lexical_decision_task_DD_L2,2021.2.3,Win32,60.0060006,,,,,,,,,,,1.6338,1,,,,,,,,,,,,,,,,,,,,,,,,0.074074088,-0.447222236,0,0,0,,,,,,,POKER,LB,z,y,./images/POKERLB.png,,,,,,,,z,1,1.6338,,,,,,,,0,58,58,151,1,
,,,,,,,,,,,,,,,,,199870,18,2022-01-29_10h33.22.805,lexical_decision_task_DD_L2,2021.2.3,Win32,60.0060006,,,,,,,,,,,0.7849,1,,,,,,,,,,,,,,,,,,,,,,,,0.074074088,-0.447222236,0,0,0,,,,,,,ONION,HB,m,y,./images/ONIONHB.png,,,,,,,,m,1,0.7849,,,,,,,,0,59,59,51,1,
,,,,,,,,,,,,,,,,,199870,18,2022-01-29_10h33.22.805,lexical_decision_task_DD_L2,2021.2.3,Win32,60.0060006,,,,,,,,,,,1.066,1,,,,,,,,,,,,,,,,,,,,,,,,0.074074088,-0.447222236,0,0,0,,,,,,,SAILOR,LB,m,y,./images/SAILORLB.png,,,,,,,,m,1,1.066,,,,,,,,0,60,60,67,1,
,,,,,,,,,,,,,,,,,199870,18,2022-01-29_10h33.22.805,lexical_decision_task_DD_L2,2021.2.3,Win32,60.0060006,,,,,,,,,,,1.1663,1,,,,,,,,,,,,,,,,,,,,,,,,0.074074088,-0.447222236,0,0,0,,,,,,,ENGINE,C,z,y,./images/ENGINE.png,,,,,,,,z,1,1.1663,,,,,,,,0,61,61,122,1,
,,,,,,,,,,,,,,,,,199870,18,2022-01-29_10h33.22.805,lexical_decision_task_DD_L2,2021.2.3,Win32,60.0060006,,,,,,,,,,,1.0012,1,,,,,,,,,,,,,,,,,,,,,,,,0.074074088,-0.447222236,0,0,0,,,,,,,ALLEY,LB,z,y,./images/ALLEYLB.png,,,,,,,,z,1,1.0012,,,,,,,,0,62,62,139,1,
,,,,,,,,,,,,,,,,,199870,18,2022-01-29_10h33.22.805,lexical_decision_task_DD_L2,2021.2.3,Win32,60.0060006,,,,,,,,,,,2.5535,1,,,,,,,,,,,,,,,,,,,,,,,,0.074074088,-0.447222236,0,0,0,,,,,,,BROOM,HB,z,y,./images/BROOMHB.png,,,,,,,,z,1,2.5535,,,,,,,,0,63,63,162,1,
,,,,,,,,,,,,,,,,,199870,18,2022-01-29_10h33.22.805,lexical_decision_task_DD_L2,2021.2.3,Win32,60.0060006,,,,,,,,,,,1.7372,1,,,,,,,,,,,,,,,,,,,,,,,,0.074074088,-0.447222236,0,0,0,,,,,,,CLOUD,C,z,y,./images/CLOUD.png,,,,,,,,z,1,1.7372,,,,,,,,0,64,64,110,1,
,,,,,,,,,,,,,,,,,199870,18,2022-01-29_10h33.22.805,lexical_decision_task_DD_L2,2021.2.3,Win32,60.0060006,,,,,,,,,,,1.1346,1,,,,,,,,,,,,,,,,,,,,,,,,0.074074088,-0.447222236,0,0,0,,,,,,,GRANNY,C,z,y,./images/GRANNY.png,,,,,,,,z,1,1.1346,,,,,,,,0,65,65,104,1,
,,,,,,,,,,,,,,,,,199870,18,2022-01-29_10h33.22.805,lexical_decision_task_DD_L2,2021.2.3,Win32,60.0060006,,,,,,,,,,,1.0004,1,,,,,,,,,,,,,,,,,,,,,,,,0.074074088,-0.447222236,0,0,0,,,,,,,PENCE,LB,m,y,./images/PENCELB.png,,,,,,,,m,1,1.0004,,,,,,,,0,66,66,16,1,
,,,,,,,,,,,,,,,,,199870,18,2022-01-29_10h33.22.805,lexical_decision_task_DD_L2,2021.2.3,Win32,60.0060006,,,,,,,,,,,0.9909,0,,,,,,,,,,,,,,,,,,,,,,,,0.074074088,-0.447222236,0,0,0,,,,,,,COLLAR,HB,z,y,./images/COLLARHB.png,,,,,,,,m,0,0.9909,,,,,,,,0,67,67,99,1,
,,,,,,,,,,,,,,,,,199870,18,2022-01-29_10h33.22.805,lexical_decision_task_DD_L2,2021.2.3,Win32,60.0060006,,,,,,,,,,,1.0602,1,,,,,,,,,,,,,,,,,,,,,,,,0.074074088,-0.447222236,0,0,0,,,,,,,CARPET,C,m,y,./images/CARPET.png,,,,,,,,m,1,1.0602,,,,,,,,0,68,68,53,1,
,,,,,,,,,,,,,,,,,199870,18,2022-01-29_10h33.22.805,lexical_decision_task_DD_L2,2021.2.3,Win32,60.0060006,,,,,,,,,,,2.0866,1,,,,,,,,,,,,,,,,,,,,,,,,0.074074088,-0.447222236,0,0,0,,,,,,,PEBBLE,LB,z,y,./images/PEBBLELB.png,,,,,,,,z,1,2.0866,,,,,,,,0,69,69,166,1,
,,,,,,,,,,,,,,,,,199870,18,2022-01-29_10h33.22.805,lexical_decision_task_DD_L2,2021.2.3,Win32,60.0060006,,,,,,,,,,,3.9736,1,,,,,,,,,,,,,,,,,,,,,,,,0.074074088,-0.447222236,0,0,0,,,,,,,BOXER,LB,z,y,./images/BOXERLB.png,,,,,,,,z,1,3.9736,,,,,,,,0,70,70,88,1,
,,,,,,,,,,,,,,,,,199870,18,2022-01-29_10h33.22.805,lexical_decision_task_DD_L2,2021.2.3,Win32,60.0060006,,,,,,,,,,,2.8041,0,,,,,,,,,,,,,,,,,,,,,,,,0.074074088,-0.447222236,0,0,0,,,,,,,SQUARE,HB,m,y,./images/SQUAREHB.png,,,,,,,,z,0,2.8041,,,,,,,,0,71,71,6,1,
,,,,,,,,,,,,,,,,,199870,18,2022-01-29_10h33.22.805,lexical_decision_task_DD_L2,2021.2.3,Win32,60.0060006,,,,,,,,,,,1.0402,1,,,,,,,,,,,,,,,,,,,,,,,,0.074074088,-0.447222236,0,0,0,,,,,,,CANYON,LB,m,y,./images/CANYONLB.png,,,,,,,,m,1,1.0402,,,,,,,,0,72,72,34,1,
,,,,,,,,,,,,,,,,,199870,18,2022-01-29_10h33.22.805,lexical_decision_task_DD_L2,2021.2.3,Win32,60.0060006,,,,,,,,,,,1.9005,0,,,,,,,,,,,,,,,,,,,,,,,,0.074074088,-0.447222236,0,0,0,,,,,,,FERRY,HB,z,y,./images/FERRYHB.png,,,,,,,,m,0,1.9005,,,,,,,,0,73,73,141,1,
,,,,,,,,,,,,,,,,,199870,18,2022-01-29_10h33.22.805,lexical_decision_task_DD_L2,2021.2.3,Win32,60.0060006,,,,,,,,,,,1.324,1,,,,,,,,,,,,,,,,,,,,,,,,0.074074088,-0.447222236,0,0,0,,,,,,,WHISKY,C,z,y,./images/WHISKY.png,,,,,,,,z,1,1.324,,,,,,,,0,74,74,167,1,
,,,,,,,,,,,,,,,,,199870,18,2022-01-29_10h33.22.805,lexical_decision_task_DD_L2,2021.2.3,Win32,60.0060006,,,,,,,,,,,2.2353,0,,,,,,,,,,,,,,,,,,,,,,,,0.074074088,-0.447222236,0,0,0,,,,,,,FOLDER,HB,m,y,./images/FOLDERHB.png,,,,,,,,z,0,2.2353,,,,,,,,0,75,75,42,1,
,,,,,,,,,,,,,,,,,199870,18,2022-01-29_10h33.22.805,lexical_decision_task_DD_L2,2021.2.3,Win32,60.0060006,,,,,,,,,,,0.2541,1,,,,,,,,,,,,,,,,,,,,,,,,0.074074088,-0.447222236,0,0,0,,,,,,,JAGUAR,HB,m,y,./images/JAGUARHB.png,,,,,,,,m,1,0.2541,,,,,,,,0,76,76,18,1,
,,,,,,,,,,,,,,,,,199870,18,2022-01-29_10h33.22.805,lexical_decision_task_DD_L2,2021.2.3,Win32,60.0060006,,,,,,,,,,,0.8896,1,,,,,,,,,,,,,,,,,,,,,,,,0.074074088,-0.447222236,0,0,0,,,,,,,SCREW,HB,m,y,./images/SCREWHB.png,,,,,,,,m,1,0.8896,,,,,,,,0,77,77,24,1,
,,,,,,,,,,,,,,,,,199870,18,2022-01-29_10h33.22.805,lexical_decision_task_DD_L2,2021.2.3,Win32,60.0060006,,,,,,,,,,,1.2608,1,,,,,,,,,,,,,,,,,,,,,,,,0.074074088,-0.447222236,0,0,0,,,,,,,TORCH,C,m,y,./images/TORCH.png,,,,,,,,m,1,1.2608,,,,,,,,0,78,78,68,1,
,,,,,,,,,,,,,,,,,199870,18,2022-01-29_10h33.22.805,lexical_decision_task_DD_L2,2021.2.3,Win32,60.0060006,,,,,,,,,,,0.7004,1,,,,,,,,,,,,,,,,,,,,,,,,0.074074088,-0.447222236,0,0,0,,,,,,,PLANK,LB,m,y,./images/PLANKLB.png,,,,,,,,m,1,0.7004,,,,,,,,0,79,79,1,1,
,,,,,,,,,,,,,,,,,199870,18,2022-01-29_10h33.22.805,lexical_decision_task_DD_L2,2021.2.3,Win32,60.0060006,,,,,,,,,,,1.0339,1,,,,,,,,,,,,,,,,,,,,,,,,0.074074088,-0.447222236,0,0,0,,,,,,,SMOKER,C,m,y,./images/SMOKER.png,,,,,,,,m,1,1.0339,,,,,,,,0,80,80,26,1,
,,,,,,,,,,,,,,,,,199870,18,2022-01-29_10h33.22.805,lexical_decision_task_DD_L2,2021.2.3,Win32,60.0060006,,,,,,,,,,,1.4767,1,,,,,,,,,,,,,,,,,,,,,,,,0.074074088,-0.447222236,0,0,0,,,,,,,STOOL,LB,z,y,./images/STOOLLB.png,,,,,,,,z,1,1.4767,,,,,,,,0,81,81,127,1,
,,,,,,,,,,,,,,,,,199870,18,2022-01-29_10h33.22.805,lexical_decision_task_DD_L2,2021.2.3,Win32,60.0060006,,,,,,,,,,,0.8998,1,,,,,,,,,,,,,,,,,,,,,,,,0.074074088,-0.447222236,0,0,0,,,,,,,CRUMB,C,m,y,./images/CRUMB.png,,,,,,,,m,1,0.8998,,,,,,,,0,82,82,29,1,
,,,,,,,,,,,,,,,,,199870,18,2022-01-29_10h33.22.805,lexical_decision_task_DD_L2,2021.2.3,Win32,60.0060006,,,,,,,,,,,0.7829,0,,,,,,,,,,,,,,,,,,,,,,,,0.074074088,-0.447222236,0,0,0,space,,,,,,PARCEL,HB,z,y,./images/PARCELHB.png,1.4025,,,,,,,m,0,0.7829,,,,,,,,0,83,83,102,1,
,,,,,,,,,,,,,,,,,199870,18,2022-01-29_10h33.22.805,lexical_decision_task_DD_L2,2021.2.3,Win32,60.0060006,,,,,,,,,,,1.1,1,,,,,,,,,,,,,,,,,,,,,,,,0.074074088,-0.447222236,0,0,0,,,,,,,SHORE,HB,m,y,./images/SHOREHB.png,,,,,,,,m,1,1.1,,,,,,,,0,84,84,12,1,
,,,,,,,,,,,,,,,,,199870,18,2022-01-29_10h33.22.805,lexical_decision_task_DD_L2,2021.2.3,Win32,60.0060006,,,,,,,,,,,1.0051,0,,,,,,,,,,,,,,,,,,,,,,,,0.074074088,-0.447222236,0,0,0,,,,,,,HOCKEY,C,z,y,./images/HOCKEY.png,,,,,,,,m,0,1.0051,,,,,,,,0,85,85,116,1,
,,,,,,,,,,,,,,,,,199870,18,2022-01-29_10h33.22.805,lexical_decision_task_DD_L2,2021.2.3,Win32,60.0060006,,,,,,,,,,,1.916,1,,,,,,,,,,,,,,,,,,,,,,,,0.074074088,-0.447222236,0,0,0,,,,,,,ARROW,HB,z,y,./images/ARROWHB.png,,,,,,,,z,1,1.916,,,,,,,,0,86,86,153,1,
,,,,,,,,,,,,,,,,,199870,18,2022-01-29_10h33.22.805,lexical_decision_task_DD_L2,2021.2.3,Win32,60.0060006,,,,,,,,,,,0.8242,1,,,,,,,,,,,,,,,,,,,,,,,,0.074074088,-0.447222236,0,0,0,,,,,,,TIGER,LB,z,y,./images/TIGERLB.png,,,,,,,,z,1,0.8242,,,,,,,,0,87,87,121,1,
,,,,,,,,,,,,,,,,,199870,18,2022-01-29_10h33.22.805,lexical_decision_task_DD_L2,2021.2.3,Win32,60.0060006,,,,,,,,,,,0.7873,1,,,,,,,,,,,,,,,,,,,,,,,,0.074074088,-0.447222236,0,0,0,,,,,,,BANNER,LB,m,y,./images/BANNERLB.png,,,,,,,,m,1,0.7873,,,,,,,,0,88,88,52,1,
,,,,,,,,,,,,,,,,,199870,18,2022-01-29_10h33.22.805,lexical_decision_task_DD_L2,2021.2.3,Win32,60.0060006,,,,,,,,,,,0.8775,0,,,,,,,,,,,,,,,,,,,,,,,,0.074074088,-0.447222236,0,0,0,,,,,,,CANDY,HB,z,y,./images/CANDYHB.png,,,,,,,,m,0,0.8775,,,,,,,,0,89,89,123,1,
,,,,,,,,,,,,,,,,,199870,18,2022-01-29_10h33.22.805,lexical_decision_task_DD_L2,2021.2.3,Win32,60.0060006,,,,,,,,,,,1.0838,1,,,,,,,,,,,,,,,,,,,,,,,,0.074074088,-0.447222236,0,0,0,,,,,,,SHIELD,HB,z,y,./images/SHIELDHB.png,,,,,,,,z,1,1.0838,,,,,,,,0,90,90,132,1,
,,,,,,,,,,,,,,,,,199870,18,2022-01-29_10h33.22.805,lexical_decision_task_DD_L2,2021.2.3,Win32,60.0060006,,,,,,,,,,,1.102,1,,,,,,,,,,,,,,,,,,,,,,,,0.074074088,-0.447222236,0,0,0,,,,,,,PASTA,C,m,y,./images/PASTA.png,,,,,,,,m,1,1.102,,,,,,,,0,91,91,5,1,
,,,,,,,,,,,,,,,,,199870,18,2022-01-29_10h33.22.805,lexical_decision_task_DD_L2,2021.2.3,Win32,60.0060006,,,,,,,,,,,3.6659,0,,,,,,,,,,,,,,,,,,,,,,,,0.074074088,-0.447222236,0,0,0,,,,,,,STREAM,C,z,y,./images/STREAM.png,,,,,,,,m,0,3.6659,,,,,,,,0,92,92,125,1,
,,,,,,,,,,,,,,,,,199870,18,2022-01-29_10h33.22.805,lexical_decision_task_DD_L2,2021.2.3,Win32,60.0060006,,,,,,,,,,,0.9297,1,,,,,,,,,,,,,,,,,,,,,,,,0.074074088,-0.447222236,0,0,0,,,,,,,BAKER,HB,z,y,./images/BAKERHB.png,,,,,,,,z,1,0.9297,,,,,,,,0,93,93,147,1,
,,,,,,,,,,,,,,,,,199870,18,2022-01-29_10h33.22.805,lexical_decision_task_DD_L2,2021.2.3,Win32,60.0060006,,,,,,,,,,,1.0902,1,,,,,,,,,,,,,,,,,,,,,,,,0.074074088,-0.447222236,0,0,0,,,,,,,BUNNY,LB,z,y,./images/BUNNYLB.png,,,,,,,,z,1,1.0902,,,,,,,,0,94,94,97,1,
,,,,,,,,,,,,,,,,,199870,18,2022-01-29_10h33.22.805,lexical_decision_task_DD_L2,2021.2.3,Win32,60.0060006,,,,,,,,,,,1.0001,0,,,,,,,,,,,,,,,,,,,,,,,,0.074074088,-0.447222236,0,0,0,,,,,,,TOWEL,LB,z,y,./images/TOWELLB.png,,,,,,,,m,0,1.0001,,,,,,,,0,95,95,85,1,
,,,,,,,,,,,,,,,,,199870,18,2022-01-29_10h33.22.805,lexical_decision_task_DD_L2,2021.2.3,Win32,60.0060006,,,,,,,,,,,2.2595,1,,,,,,,,,,,,,,,,,,,,,,,,0.074074088,-0.447222236,0,0,0,,,,,,,BUBBLE,C,z,y,./images/BUBBLE.png,,,,,,,,z,1,2.2595,,,,,,,,0,96,96,155,1,
,,,,,,,,,,,,,,,,,199870,18,2022-01-29_10h33.22.805,lexical_decision_task_DD_L2,2021.2.3,Win32,60.0060006,,,,,,,,,,,1.3182,0,,,,,,,,,,,,,,,,,,,,,,,,0.074074088,-0.447222236,0,0,0,,,,,,,PURSE,C,m,y,./images/PURSE.png,,,,,,,,z,0,1.3182,,,,,,,,0,97,97,62,1,
,,,,,,,,,,,,,,,,,199870,18,2022-01-29_10h33.22.805,lexical_decision_task_DD_L2,2021.2.3,Win32,60.0060006,,,,,,,,,,,1.3025,0,,,,,,,,,,,,,,,,,,,,,,,,0.074074088,-0.447222236,0,0,0,,,,,,,CRATER,HB,z,y,./images/CRATERHB.png,,,,,,,,m,0,1.3025,,,,,,,,0,98,98,87,1,
,,,,,,,,,,,,,,,,,199870,18,2022-01-29_10h33.22.805,lexical_decision_task_DD_L2,2021.2.3,Win32,60.0060006,,,,,,,,,,,0.9875,1,,,,,,,,,,,,,,,,,,,,,,,,0.074074088,-0.447222236,0,0,0,,,,,,,HAMMER,HB,z,y,./images/HAMMERHB.png,,,,,,,,z,1,0.9875,,,,,,,,0,99,99,159,1,
,,,,,,,,,,,,,,,,,199870,18,2022-01-29_10h33.22.805,lexical_decision_task_DD_L2,2021.2.3,Win32,60.0060006,,,,,,,,,,,1.0318,1,,,,,,,,,,,,,,,,,,,,,,,,0.074074088,-0.447222236,0,0,0,,,,,,,WALRUS,C,m,y,./images/WALRUS.png,,,,,,,,m,1,1.0318,,,,,,,,0,100,100,23,1,
,,,,,,,,,,,,,,,,,199870,18,2022-01-29_10h33.22.805,lexical_decision_task_DD_L2,2021.2.3,Win32,60.0060006,,,,,,,,,,,2.0433,0,,,,,,,,,,,,,,,,,,,,,,,,0.074074088,-0.447222236,0,0,0,,,,,,,WHEEL,C,z,y,./images/WHEEL.png,,,,,,,,m,0,2.0433,,,,,,,,0,101,101,161,1,
,,,,,,,,,,,,,,,,,199870,18,2022-01-29_10h33.22.805,lexical_decision_task_DD_L2,2021.2.3,Win32,60.0060006,,,,,,,,,,,2.0418,0,,,,,,,,,,,,,,,,,,,,,,,,0.074074088,-0.447222236,0,0,0,,,,,,,VALLEY,C,z,y,./images/VALLEY.png,,,,,,,,m,0,2.0418,,,,,,,,0,102,102,152,1,
,,,,,,,,,,,,,,,,,199870,18,2022-01-29_10h33.22.805,lexical_decision_task_DD_L2,2021.2.3,Win32,60.0060006,,,,,,,,,,,0.7869,1,,,,,,,,,,,,,,,,,,,,,,,,0.074074088,-0.447222236,0,0,0,,,,,,,TULIP,C,m,y,./images/TULIP.png,,,,,,,,m,1,0.7869,,,,,,,,0,103,103,8,1,
,,,,,,,,,,,,,,,,,199870,18,2022-01-29_10h33.22.805,lexical_decision_task_DD_L2,2021.2.3,Win32,60.0060006,,,,,,,,,,,2.1997,1,,,,,,,,,,,,,,,,,,,,,,,,0.074074088,-0.447222236,0,0,0,,,,,,,BERRY,C,m,y,./images/BERRY.png,,,,,,,,m,1,2.1997,,,,,,,,0,104,104,47,1,
,,,,,,,,,,,,,,,,,199870,18,2022-01-29_10h33.22.805,lexical_decision_task_DD_L2,2021.2.3,Win32,60.0060006,,,,,,,,,,,0.7873,1,,,,,,,,,,,,,,,,,,,,,,,,0.074074088,-0.447222236,0,0,0,,,,,,,TOMATO,HB,m,y,./images/TOMATOHB.png,,,,,,,,m,1,0.7873,,,,,,,,0,105,105,0,1,
,,,,,,,,,,,,,,,,,199870,18,2022-01-29_10h33.22.805,lexical_decision_task_DD_L2,2021.2.3,Win32,60.0060006,,,,,,,,,,,1.0658,1,,,,,,,,,,,,,,,,,,,,,,,,0.074074088,-0.447222236,0,0,0,,,,,,,CURRY,HB,z,y,./images/CURRYHB.png,,,,,,,,z,1,1.0658,,,,,,,,0,106,106,144,1,
,,,,,,,,,,,,,,,,,199870,18,2022-01-29_10h33.22.805,lexical_decision_task_DD_L2,2021.2.3,Win32,60.0060006,,,,,,,,,,,0.6505,1,,,,,,,,,,,,,,,,,,,,,,,,0.074074088,-0.447222236,0,0,0,,,,,,,CRADLE,C,m,y,./images/CRADLE.png,,,,,,,,m,1,0.6505,,,,,,,,0,107,107,20,1,
,,,,,,,,,,,,,,,,,199870,18,2022-01-29_10h33.22.805,lexical_decision_task_DD_L2,2021.2.3,Win32,60.0060006,,,,,,,,,,,0.8828,1,,,,,,,,,,,,,,,,,,,,,,,,0.074074088,-0.447222236,0,0,0,,,,,,,MELON,LB,m,y,./images/MELONLB.png,,,,,,,,m,1,0.8828,,,,,,,,0,108,108,22,1,
,,,,,,,,,,,,,,,,,199870,18,2022-01-29_10h33.22.805,lexical_decision_task_DD_L2,2021.2.3,Win32,60.0060006,,,,,,,,,,,0.8942,0,,,,,,,,,,,,,,,,,,,,,,,,0.074074088,-0.447222236,0,0,0,,,,,,,DOUGH,LB,m,y,./images/DOUGHLB.png,,,,,,,,z,0,0.8942,,,,,,,,0,109,109,19,1,
,,,,,,,,,,,,,,,,,199870,18,2022-01-29_10h33.22.805,lexical_decision_task_DD_L2,2021.2.3,Win32,60.0060006,,,,,,,,,,,1.4883,0,,,,,,,,,,,,,,,,,,,,,,,,0.074074088,-0.447222236,0,0,0,,,,,,,CASINO,LB,z,y,./images/CASINOLB.png,,,,,,,,m,0,1.4883,,,,,,,,0,110,110,112,1,
,,,,,,,,,,,,,,,,,199870,18,2022-01-29_10h33.22.805,lexical_decision_task_DD_L2,2021.2.3,Win32,60.0060006,,,,,,,,,,,0.9704,1,,,,,,,,,,,,,,,,,,,,,,,,0.074074088,-0.447222236,0,0,0,,,,,,,STRING,C,m,y,./images/STRING.png,,,,,,,,m,1,0.9704,,,,,,,,0,111,111,41,1,
,,,,,,,,,,,,,,,,,199870,18,2022-01-29_10h33.22.805,lexical_decision_task_DD_L2,2021.2.3,Win32,60.0060006,,,,,,,,,,,1.375,0,,,,,,,,,,,,,,,,,,,,,,,,0.074074088,-0.447222236,0,0,0,,,,,,,ATTIC,HB,m,y,./images/ATTICHB.png,,,,,,,,z,0,1.375,,,,,,,,0,112,112,27,1,
,,,,,,,,,,,,,,,,,199870,18,2022-01-29_10h33.22.805,lexical_decision_task_DD_L2,2021.2.3,Win32,60.0060006,,,,,,,,,,,0.8703,1,,,,,,,,,,,,,,,,,,,,,,,,0.074074088,-0.447222236,0,0,0,,,,,,,PEACH,C,m,y,./images/PEACH.png,,,,,,,,m,1,0.8703,,,,,,,,0,113,113,35,1,
,,,,,,,,,,,,,,,,,199870,18,2022-01-29_10h33.22.805,lexical_decision_task_DD_L2,2021.2.3,Win32,60.0060006,,,,,,,,,,,1.2202,1,,,,,,,,,,,,,,,,,,,,,,,,0.074074088,-0.447222236,0,0,0,,,,,,,BOILER,HB,z,y,./images/BOILERHB.png,,,,,,,,z,1,1.2202,,,,,,,,0,114,114,120,1,
,,,,,,,,,,,,,,,,,199870,18,2022-01-29_10h33.22.805,lexical_decision_task_DD_L2,2021.2.3,Win32,60.0060006,,,,,,,,,,,0.8677,1,,,,,,,,,,,,,,,,,,,,,,,,0.074074088,-0.447222236,0,0,0,,,,,,,BARREL,C,m,y,./images/BARREL.png,,,,,,,,m,1,0.8677,,,,,,,,0,115,115,32,1,
,,,,,,,,,,,,,,,,,199870,18,2022-01-29_10h33.22.805,lexical_decision_task_DD_L2,2021.2.3,Win32,60.0060006,,,,,,,,,,,0.7828,1,,,,,,,,,,,,,,,,,,,,,,,,0.074074088,-0.447222236,0,0,0,,,,,,,DIVER,HB,z,y,./images/DIVERHB.png,,,,,,,,z,1,0.7828,,,,,,,,0,116,116,93,1,
,,,,,,,,,,,,,,,,,199870,18,2022-01-29_10h33.22.805,lexical_decision_task_DD_L2,2021.2.3,Win32,60.0060006,,,,,,,,,,,0.6872,0,,,,,,,,,,,,,,,,,,,,,,,,0.074074088,-0.447222236,0,0,0,,,,,,,JELLY,LB,m,y,./images/JELLYLB.png,,,,,,,,z,0,0.6872,,,,,,,,0,117,117,64,1,
,,,,,,,,,,,,,,,,,199870,18,2022-01-29_10h33.22.805,lexical_decision_task_DD_L2,2021.2.3,Win32,60.0060006,,,,,,,,,,,1.1829,1,,,,,,,,,,,,,,,,,,,,,,,,0.074074088,-0.447222236,0,0,0,,,,,,,BRUSH,C,z,y,./images/BRUSH.png,,,,,,,,z,1,1.1829,,,,,,,,0,118,118,143,1,
,,,,,,,,,,,,,,,,,199870,18,2022-01-29_10h33.22.805,lexical_decision_task_DD_L2,2021.2.3,Win32,60.0060006,,,,,,,,,,,0.8386,1,,,,,,,,,,,,,,,,,,,,,,,,0.074074088,-0.447222236,0,0,0,,,,,,,SNAKE,LB,z,y,./images/SNAKELB.png,,,,,,,,z,1,0.8386,,,,,,,,0,119,119,124,1,
,,,,,,,,,,,,,,,,,199870,18,2022-01-29_10h33.22.805,lexical_decision_task_DD_L2,2021.2.3,Win32,60.0060006,,,,,,,,,,,1.3048,1,,,,,,,,,,,,,,,,,,,,,,,,0.074074088,-0.447222236,0,0,0,,,,,,,TWINS,HB,m,y,./images/TWINSHB.png,,,,,,,,m,1,1.3048,,,,,,,,0,120,120,60,1,
,,,,,,,,,,,,,,,,,199870,18,2022-01-29_10h33.22.805,lexical_decision_task_DD_L2,2021.2.3,Win32,60.0060006,,,,,,,,,,,3.3066,1,,,,,,,,,,,,,,,,,,,,,,,,0.074074088,-0.447222236,0,0,0,,,,,,,CLOWN,LB,z,y,./images/CLOWNLB.png,,,,,,,,z,1,3.3066,,,,,,,,0,121,121,106,1,
,,,,,,,,,,,,,,,,,199870,18,2022-01-29_10h33.22.805,lexical_decision_task_DD_L2,2021.2.3,Win32,60.0060006,,,,,,,,,,,0.9096,1,,,,,,,,,,,,,,,,,,,,,,,,0.074074088,-0.447222236,0,0,0,,,,,,,MEDAL,C,z,y,./images/MEDAL.png,,,,,,,,z,1,0.9096,,,,,,,,0,122,122,95,1,
,,,,,,,,,,,,,,,,,199870,18,2022-01-29_10h33.22.805,lexical_decision_task_DD_L2,2021.2.3,Win32,60.0060006,,,,,,,,,,,1.7081,1,,,,,,,,,,,,,,,,,,,,,,,,0.074074088,-0.447222236,0,0,0,,,,,,,MONKEY,HB,z,y,./images/MONKEYHB.png,,,,,,,,z,1,1.7081,,,,,,,,0,123,123,129,1,
,,,,,,,,,,,,,,,,,199870,18,2022-01-29_10h33.22.805,lexical_decision_task_DD_L2,2021.2.3,Win32,60.0060006,,,,,,,,,,,3.0217,1,,,,,,,,,,,,,,,,,,,,,,,,0.074074088,-0.447222236,0,0,0,,,,,,,STATUE,HB,z,y,./images/STATUEHB.png,,,,,,,,z,1,3.0217,,,,,,,,0,124,124,150,1,
,,,,,,,,,,,,,,,,,199870,18,2022-01-29_10h33.22.805,lexical_decision_task_DD_L2,2021.2.3,Win32,60.0060006,,,,,,,,,,,3.6674,1,,,,,,,,,,,,,,,,,,,,,,,,0.074074088,-0.447222236,0,0,0,space,,,,,,LITTER,HB,m,y,./images/LITTERHB.png,1.592,,,,,,,m,1,3.6674,,,,,,,,0,125,125,78,1,
,,,,,,,,,,,,,,,,,199870,18,2022-01-29_10h33.22.805,lexical_decision_task_DD_L2,2021.2.3,Win32,60.0060006,,,,,,,,,,,1.2002,0,,,,,,,,,,,,,,,,,,,,,,,,0.074074088,-0.447222236,0,0,0,,,,,,,WALNUT,HB,z,y,./images/WALNUTHB.png,,,,,,,,m,0,1.2002,,,,,,,,0,126,126,84,1,
,,,,,,,,,,,,,,,,,199870,18,2022-01-29_10h33.22.805,lexical_decision_task_DD_L2,2021.2.3,Win32,60.0060006,,,,,,,,,,,2.1113,0,,,,,,,,,,,,,,,,,,,,,,,,0.074074088,-0.447222236,0,0,0,,,,,,,MIRROR,HB,m,y,./images/MIRRORHB.png,,,,,,,,z,0,2.1113,,,,,,,,0,127,127,63,1,
,,,,,,,,,,,,,,,,,199870,18,2022-01-29_10h33.22.805,lexical_decision_task_DD_L2,2021.2.3,Win32,60.0060006,,,,,,,,,,,0.9572,1,,,,,,,,,,,,,,,,,,,,,,,,0.074074088,-0.447222236,0,0,0,,,,,,,PAINT,LB,m,y,./images/PAINTLB.png,,,,,,,,m,1,0.9572,,,,,,,,0,128,128,7,1,
,,,,,,,,,,,,,,,,,199870,18,2022-01-29_10h33.22.805,lexical_decision_task_DD_L2,2021.2.3,Win32,60.0060006,,,,,,,,,,,0.9338,0,,,,,,,,,,,,,,,,,,,,,,,,0.074074088,-0.447222236,0,0,0,,,,,,,SUNSET,LB,m,y,./images/SUNSETLB.png,,,,,,,,z,0,0.9338,,,,,,,,0,129,129,82,1,
,,,,,,,,,,,,,,,,,199870,18,2022-01-29_10h33.22.805,lexical_decision_task_DD_L2,2021.2.3,Win32,60.0060006,,,,,,,,,,,0.7352,1,,,,,,,,,,,,,,,,,,,,,,,,0.074074088,-0.447222236,0,0,0,,,,,,,DRUMS,LB,m,y,./images/DRUMSLB.png,,,,,,,,m,1,0.7352,,,,,,,,0,130,130,49,1,
,,,,,,,,,,,,,,,,,199870,18,2022-01-29_10h33.22.805,lexical_decision_task_DD_L2,2021.2.3,Win32,60.0060006,,,,,,,,,,,0.711,1,,,,,,,,,,,,,,,,,,,,,,,,0.074074088,-0.447222236,0,0,0,,,,,,,MOOSE,HB,m,y,./images/MOOSEHB.png,,,,,,,,m,1,0.711,,,,,,,,0,131,131,57,1,
,,,,,,,,,,,,,,,,,199870,18,2022-01-29_10h33.22.805,lexical_decision_task_DD_L2,2021.2.3,Win32,60.0060006,,,,,,,,,,,0.9671,0,,,,,,,,,,,,,,,,,,,,,,,,0.074074088,-0.447222236,0,0,0,,,,,,,POSTER,C,z,y,./images/POSTER.png,,,,,,,,m,0,0.9671,,,,,,,,0,132,132,137,1,
,,,,,,,,,,,,,,,,,199870,18,2022-01-29_10h33.22.805,lexical_decision_task_DD_L2,2021.2.3,Win32,60.0060006,,,,,,,,,,,0.7329,1,,,,,,,,,,,,,,,,,,,,,,,,0.074074088,-0.447222236,0,0,0,,,,,,,TRIPOD,HB,m,y,./images/TRIPODHB.png,,,,,,,,m,1,0.7329,,,,,,,,0,133,133,54,1,
,,,,,,,,,,,,,,,,,199870,18,2022-01-29_10h33.22.805,lexical_decision_task_DD_L2,2021.2.3,Win32,60.0060006,,,,,,,,,,,1.2244,1,,,,,,,,,,,,,,,,,,,,,,,,0.074074088,-0.447222236,0,0,0,,,,,,,HEATER,C,z,y,./images/HEATER.png,,,,,,,,z,1,1.2244,,,,,,,,0,134,134,140,1,
,,,,,,,,,,,,,,,,,199870,18,2022-01-29_10h33.22.805,lexical_decision_task_DD_L2,2021.2.3,Win32,60.0060006,,,,,,,,,,,0.8249,1,,,,,,,,,,,,,,,,,,,,,,,,0.074074088,-0.447222236,0,0,0,,,,,,,SWEAT,HB,m,y,./images/SWEATHB.png,,,,,,,,m,1,0.8249,,,,,,,,0,135,135,66,1,
,,,,,,,,,,,,,,,,,199870,18,2022-01-29_10h33.22.805,lexical_decision_task_DD_L2,2021.2.3,Win32,60.0060006,,,,,,,,,,,0.8328,0,,,,,,,,,,,,,,,,,,,,,,,,0.074074088,-0.447222236,0,0,0,,,,,,,BELLY,LB,m,y,./images/BELLYLB.png,,,,,,,,z,0,0.8328,,,,,,,,0,136,136,10,1,
,,,,,,,,,,,,,,,,,199870,18,2022-01-29_10h33.22.805,lexical_decision_task_DD_L2,2021.2.3,Win32,60.0060006,,,,,,,,,,,1.2574,1,,,,,,,,,,,,,,,,,,,,,,,,0.074074088,-0.447222236,0,0,0,,,,,,,DANCER,HB,z,y,./images/DANCERHB.png,,,,,,,,z,1,1.2574,,,,,,,,0,137,137,105,1,
,,,,,,,,,,,,,,,,,199870,18,2022-01-29_10h33.22.805,lexical_decision_task_DD_L2,2021.2.3,Win32,60.0060006,,,,,,,,,,,3.2337,0,,,,,,,,,,,,,,,,,,,,,,,,0.074074088,-0.447222236,0,0,0,,,,,,,FLESH,HB,z,y,./images/FLESHHB.png,,,,,,,,m,0,3.2337,,,,,,,,0,138,138,108,1,
,,,,,,,,,,,,,,,,,199870,18,2022-01-29_10h33.22.805,lexical_decision_task_DD_L2,2021.2.3,Win32,60.0060006,,,,,,,,,,,2.9996,0,,,,,,,,,,,,,,,,,,,,,,,,0.074074088,-0.447222236,0,0,0,,,,,,,BAMBOO,C,z,y,./images/BAMBOO.png,,,,,,,,m,0,2.9996,,,,,,,,0,139,139,89,1,
,,,,,,,,,,,,,,,,,199870,18,2022-01-29_10h33.22.805,lexical_decision_task_DD_L2,2021.2.3,Win32,60.0060006,,,,,,,,,,,0.828,1,,,,,,,,,,,,,,,,,,,,,,,,0.074074088,-0.447222236,0,0,0,,,,,,,BRIDE,LB,z,y,./images/BRIDELB.png,,,,,,,,z,1,0.828,,,,,,,,0,140,140,148,1,
,,,,,,,,,,,,,,,,,199870,18,2022-01-29_10h33.22.805,lexical_decision_task_DD_L2,2021.2.3,Win32,60.0060006,,,,,,,,,,,0.9016,1,,,,,,,,,,,,,,,,,,,,,,,,0.074074088,-0.447222236,0,0,0,,,,,,,MAGGOT,HB,m,y,./images/MAGGOTHB.png,,,,,,,,m,1,0.9016,,,,,,,,0,141,141,33,1,
,,,,,,,,,,,,,,,,,199870,18,2022-01-29_10h33.22.805,lexical_decision_task_DD_L2,2021.2.3,Win32,60.0060006,,,,,,,,,,,1.1796,1,,,,,,,,,,,,,,,,,,,,,,,,0.074074088,-0.447222236,0,0,0,,,,,,,RULER,LB,z,y,./images/RULERLB.png,,,,,,,,z,1,1.1796,,,,,,,,0,142,142,163,1,
,,,,,,,,,,,,,,,,,199870,18,2022-01-29_10h33.22.805,lexical_decision_task_DD_L2,2021.2.3,Win32,60.0060006,,,,,,,,,,,1.1183,1,,,,,,,,,,,,,,,,,,,,,,,,0.074074088,-0.447222236,0,0,0,,,,,,,BABOON,LB,m,y,./images/BABOONLB.png,,,,,,,,m,1,1.1183,,,,,,,,0,143,143,58,1,
,,,,,,,,,,,,,,,,,199870,18,2022-01-29_10h33.22.805,lexical_decision_task_DD_L2,2021.2.3,Win32,60.0060006,,,,,,,,,,,1.4002,0,,,,,,,,,,,,,,,,,,,,,,,,0.074074088,-0.447222236,0,0,0,,,,,,,CHALK,LB,z,y,./images/CHALKLB.png,,,,,,,,m,0,1.4002,,,,,,,,0,144,144,109,1,
,,,,,,,,,,,,,,,,,199870,18,2022-01-29_10h33.22.805,lexical_decision_task_DD_L2,2021.2.3,Win32,60.0060006,,,,,,,,,,,0.6794,0,,,,,,,,,,,,,,,,,,,,,,,,0.074074088,-0.447222236,0,0,0,,,,,,,BASKET,C,z,y,./images/BASKET.png,,,,,,,,m,0,0.6794,,,,,,,,0,145,145,128,1,
,,,,,,,,,,,,,,,,,199870,18,2022-01-29_10h33.22.805,lexical_decision_task_DD_L2,2021.2.3,Win32,60.0060006,,,,,,,,,,,0.955,1,,,,,,,,,,,,,,,,,,,,,,,,0.074074088,-0.447222236,0,0,0,,,,,,,STEAK,LB,z,y,./images/STEAKLB.png,,,,,,,,z,1,0.955,,,,,,,,0,146,146,115,1,
,,,,,,,,,,,,,,,,,199870,18,2022-01-29_10h33.22.805,lexical_decision_task_DD_L2,2021.2.3,Win32,60.0060006,,,,,,,,,,,0.8593,1,,,,,,,,,,,,,,,,,,,,,,,,0.074074088,-0.447222236,0,0,0,,,,,,,SNACK,LB,m,y,./images/SNACKLB.png,,,,,,,,m,1,0.8593,,,,,,,,0,147,147,73,1,
,,,,,,,,,,,,,,,,,199870,18,2022-01-29_10h33.22.805,lexical_decision_task_DD_L2,2021.2.3,Win32,60.0060006,,,,,,,,,,,1.9406,1,,,,,,,,,,,,,,,,,,,,,,,,0.074074088,-0.447222236,0,0,0,,,,,,,JUNGLE,C,m,y,./images/JUNGLE.png,,,,,,,,m,1,1.9406,,,,,,,,0,148,148,83,1,
,,,,,,,,,,,,,,,,,199870,18,2022-01-29_10h33.22.805,lexical_decision_task_DD_L2,2021.2.3,Win32,60.0060006,,,,,,,,,,,0.6509,1,,,,,,,,,,,,,,,,,,,,,,,,0.074074088,-0.447222236,0,0,0,,,,,,,WEASEL,C,m,y,./images/WEASEL.png,,,,,,,,m,1,0.6509,,,,,,,,0,149,149,80,1,
,,,,,,,,,,,,,,,,,199870,18,2022-01-29_10h33.22.805,lexical_decision_task_DD_L2,2021.2.3,Win32,60.0060006,,,,,,,,,,,1.1023,1,,,,,,,,,,,,,,,,,,,,,,,,0.074074088,-0.447222236,0,0,0,,,,,,,PEARL,LB,m,y,./images/PEARLLB.png,,,,,,,,m,1,1.1023,,,,,,,,0,150,150,46,1,
,,,,,,,,,,,,,,,,,199870,18,2022-01-29_10h33.22.805,lexical_decision_task_DD_L2,2021.2.3,Win32,60.0060006,,,,,,,,,,,1.2195,1,,,,,,,,,,,,,,,,,,,,,,,,0.074074088,-0.447222236,0,0,0,,,,,,,FARMER,C,m,y,./images/FARMER.png,,,,,,,,m,1,1.2195,,,,,,,,0,151,151,65,1,
,,,,,,,,,,,,,,,,,199870,18,2022-01-29_10h33.22.805,lexical_decision_task_DD_L2,2021.2.3,Win32,60.0060006,,,,,,,,,,,2.1351,1,,,,,,,,,,,,,,,,,,,,,,,,0.074074088,-0.447222236,0,0,0,,,,,,,STOVE,C,z,y,./images/STOVE.png,,,,,,,,z,1,2.1351,,,,,,,,0,152,152,86,1,
,,,,,,,,,,,,,,,,,199870,18,2022-01-29_10h33.22.805,lexical_decision_task_DD_L2,2021.2.3,Win32,60.0060006,,,,,,,,,,,0.8006,1,,,,,,,,,,,,,,,,,,,,,,,,0.074074088,-0.447222236,0,0,0,,,,,,,ARTIST,LB,z,y,./images/ARTISTLB.png,,,,,,,,z,1,0.8006,,,,,,,,0,153,153,145,1,
,,,,,,,,,,,,,,,,,199870,18,2022-01-29_10h33.22.805,lexical_decision_task_DD_L2,2021.2.3,Win32,60.0060006,,,,,,,,,,,0.9599,1,,,,,,,,,,,,,,,,,,,,,,,,0.074074088,-0.447222236,0,0,0,,,,,,,COOKER,HB,m,y,./images/COOKERHB.png,,,,,,,,m,1,0.9599,,,,,,,,0,154,154,69,1,
,,,,,,,,,,,,,,,,,199870,18,2022-01-29_10h33.22.805,lexical_decision_task_DD_L2,2021.2.3,Win32,60.0060006,,,,,,,,,,,1.1167,1,,,,,,,,,,,,,,,,,,,,,,,,0.074074088,-0.447222236,0,0,0,,,,,,,PISTOL,C,z,y,./images/PISTOL.png,,,,,,,,z,1,1.1167,,,,,,,,0,155,155,113,1,
,,,,,,,,,,,,,,,,,199870,18,2022-01-29_10h33.22.805,lexical_decision_task_DD_L2,2021.2.3,Win32,60.0060006,,,,,,,,,,,1.0007,1,,,,,,,,,,,,,,,,,,,,,,,,0.074074088,-0.447222236,0,0,0,,,,,,,CHERRY,HB,z,y,./images/CHERRYHB.png,,,,,,,,z,1,1.0007,,,,,,,,0,156,156,138,1,
,,,,,,,,,,,,,,,,,199870,18,2022-01-29_10h33.22.805,lexical_decision_task_DD_L2,2021.2.3,Win32,60.0060006,,,,,,,,,,,0.7785,1,,,,,,,,,,,,,,,,,,,,,,,,0.074074088,-0.447222236,0,0,0,,,,,,,CRUST,LB,m,y,./images/CRUSTLB.png,,,,,,,,m,1,0.7785,,,,,,,,0,157,157,79,1,
,,,,,,,,,,,,,,,,,199870,18,2022-01-29_10h33.22.805,lexical_decision_task_DD_L2,2021.2.3,Win32,60.0060006,,,,,,,,,,,0.7838,1,,,,,,,,,,,,,,,,,,,,,,,,0.074074088,-0.447222236,0,0,0,,,,,,,STORM,HB,m,y,./images/STORMHB.png,,,,,,,,m,1,0.7838,,,,,,,,0,158,158,30,1,
,,,,,,,,,,,,,,,,,199870,18,2022-01-29_10h33.22.805,lexical_decision_task_DD_L2,2021.2.3,Win32,60.0060006,,,,,,,,,,,1.8246,0,,,,,,,,,,,,,,,,,,,,,,,,0.074074088,-0.447222236,0,0,0,,,,,,,DESERT,LB,z,y,./images/DESERTLB.png,,,,,,,,m,0,1.8246,,,,,,,,0,159,159,136,1,
,,,,,,,,,,,,,,,,,199870,18,2022-01-29_10h33.22.805,lexical_decision_task_DD_L2,2021.2.3,Win32,60.0060006,,,,,,,,,,,1.0169,1,,,,,,,,,,,,,,,,,,,,,,,,0.074074088,-0.447222236,0,0,0,,,,,,,LLAMA,C,z,y,./images/LLAMA.png,,,,,,,,z,1,1.0169,,,,,,,,0,160,160,119,1,
,,,,,,,,,,,,,,,,,199870,18,2022-01-29_10h33.22.805,lexical_decision_task_DD_L2,2021.2.3,Win32,60.0060006,,,,,,,,,,,2.8679,1,,,,,,,,,,,,,,,,,,,,,,,,0.074074088,-0.447222236,0,0,0,,,,,,,SPINE,C,z,y,./images/SPINE.png,,,,,,,,z,1,2.8679,,,,,,,,0,161,161,149,1,
,,,,,,,,,,,,,,,,,199870,18,2022-01-29_10h33.22.805,lexical_decision_task_DD_L2,2021.2.3,Win32,60.0060006,,,,,,,,,,,1.3039,0,,,,,,,,,,,,,,,,,,,,,,,,0.074074088,-0.447222236,0,0,0,,,,,,,PICKLE,C,m,y,./images/PICKLE.png,,,,,,,,z,0,1.3039,,,,,,,,0,162,162,14,1,
,,,,,,,,,,,,,,,,,199870,18,2022-01-29_10h33.22.805,lexical_decision_task_DD_L2,2021.2.3,Win32,60.0060006,,,,,,,,,,,5.0384,1,,,,,,,,,,,,,,,,,,,,,,,,0.074074088,-0.447222236,0,0,0,,,,,,,MUFFIN,LB,m,y,./images/MUFFINLB.png,,,,,,,,m,1,5.0384,,,,,,,,0,163,163,55,1,
,,,,,,,,,,,,,,,,,199870,18,2022-01-29_10h33.22.805,lexical_decision_task_DD_L2,2021.2.3,Win32,60.0060006,,,,,,,,,,,0.8945,1,,,,,,,,,,,,,,,,,,,,,,,,0.074074088,-0.447222236,0,0,0,,,,,,,JUMPER,C,z,y,./images/JUMPER.png,,,,,,,,z,1,0.8945,,,,,,,,0,164,164,158,1,
,,,,,,,,,,,,,,,,,199870,18,2022-01-29_10h33.22.805,lexical_decision_task_DD_L2,2021.2.3,Win32,60.0060006,,,,,,,,,,,5.5652,0,,,,,,,,,,,,,,,,,,,,,,,,0.074074088,-0.447222236,0,0,0,,,,,,,DONKEY,LB,z,y,./images/DONKEYLB.png,,,,,,,,m,0,5.5652,,,,,,,,0,165,165,103,1,
,,,,,,,,,,,,,,,,,199870,18,2022-01-29_10h33.22.805,lexical_decision_task_DD_L2,2021.2.3,Win32,60.0060006,,,,,,,,,,,0.7929,1,,,,,,,,,,,,,,,,,,,,,,,,0.074074088,-0.447222236,0,0,0,,,,,,,GLOVE,LB,z,y,./images/GLOVELB.png,,,,,,,,z,1,0.7929,,,,,,,,0,166,166,157,1,
,,,,,,,,,,,,,,,,,199870,18,2022-01-29_10h33.22.805,lexical_decision_task_DD_L2,2021.2.3,Win32,60.0060006,,,,,,,,,,,1.5581,1,,,,,,,,,,,,,,,,,,,,,,,,0.074074088,-0.447222236,0,0,0,,,,,,,GRAIN,HB,m,y,./images/GRAINHB.png,,,,,,,,m,1,1.5581,,,,,,,,0,167,167,75,1,
