key_resp.keys,instr_done_touch.x,instr_done_touch.y,instr_done_touch.leftButton,instr_done_touch.midButton,instr_done_touch.rightButton,instr_done_touch.clicked_name,instruction_pages.thisRepN,instruction_pages.thisTrialN,instruction_pages.thisN,instruction_pages.thisIndex,instruction_pages.ran,pageN,phase,instruct_text,has_image,instruct_image,participant,age,date,expName,psychopyVersion,OS,frameRate,key_resp.rt,response.keys,response.corr,response.rt,touch_resp.x,touch_resp.y,touch_resp.leftButton,touch_resp.midButton,touch_resp.rightButton,touch_resp.time,touch_resp.clicked_name,rt,corr,practrials.thisRepN,practrials.thisTrialN,practrials.thisN,practrials.thisIndex,practrials.ran,TrialID,Target,corrAns,end_of_practice_trials_pages.thisRepN,end_of_practice_trials_pages.thisTrialN,end_of_practice_trials_pages.thisN,end_of_practice_trials_pages.thisIndex,end_of_practice_trials_pages.ran,key_resp_2.keys,key_resp_2.corr,key_resp_2.rt,targ_click.x,targ_click.y,targ_click.leftButton,targ_click.midButton,targ_click.rightButton,targ_click.time,targ_click.clicked_name,break_done_touch.x,break_done_touch.y,break_done_touch.leftButton,break_done_touch.midButton,break_done_touch.rightButton,break_done_keyboard.keys,maintrials.thisRepN,maintrials.thisTrialN,maintrials.thisN,maintrials.thisIndex,maintrials.ran,string,blur,study,lex,stim_path,break_done_keyboard.rt,test_instructions.thisRepN,test_instructions.thisTrialN,test_instructions.thisN,test_instructions.thisIndex,test_instructions.ran,key_resp_3.keys,key_resp_3.corr,key_resp_3.rt,test_click.x,test_click.y,test_click.leftButton,test_click.midButton,test_click.rightButton,test_click.time,test_click.clicked_name,test_phase.thisRepN,test_phase.thisTrialN,test_phase.thisN,test_phase.thisIndex,test_phase.ran
,0.033333333,-0.381111111,1,0,0,instr_done_button,0,0,0,0,1,1,instructions,"INSTRUCTIONS
At the start of each trial, look at the plus sign  (+) in the center of the screen.  This tells you that a trial is about to begin and where to look. Second, the plus sign will disappear and a string of letters will appear. Your task is to determine if the string of letters is a word or not. If the item is a word press the M key (on keyboard)  or touch the word button (phone/tablet).  If the item is not a word,  press the  Z key (on keyboard)  or touch the nonword button (on phone/tablet). 
Press the space bar or touch  continue.",0,,199846,19,2022-01-25_21h34.31.483,lexical_decision_task_DD_L5,2021.2.3,MacIntel,58.82352941,,,,,,,,,,,,,,,,,,,,,,,,,,,,,,,,,,,,,,,,,,,,,,,,,,,,,,,,,,,,,,,,,,,,,,,,,
space,0.03,-0.422222222,0,0,0,,0,1,1,1,1,2,instructions,"If your device has a keyboard, press the 'Z' key for nonwords and the 'M' key for words.





Press the space bar or touch the button below to continue.",0,keyboard-example.gif,199846,19,2022-01-25_21h34.31.483,lexical_decision_task_DD_L5,2021.2.3,MacIntel,58.82352941,7.47,,,,,,,,,,,,,,,,,,,,,,,,,,,,,,,,,,,,,,,,,,,,,,,,,,,,,,,,,,,,,,,,,,,,,,,,
space,0.028888889,-0.422222222,0,0,0,,0,2,2,2,1,3,instructions,"If you are using a touchscreen only device, use the buttons on the screen. Do not use the mouse.





Press the space bar or touch the button below to continue.",0,touchscreen-example.gif,199846,19,2022-01-25_21h34.31.483,lexical_decision_task_DD_L5,2021.2.3,MacIntel,58.82352941,6.1,,,,,,,,,,,,,,,,,,,,,,,,,,,,,,,,,,,,,,,,,,,,,,,,,,,,,,,,,,,,,,,,,,,,,,,,
space,0.028888889,-0.422222222,0,0,0,,0,3,3,3,1,4,instructions,"It is very important that you respond as quickly and accurately as possible, as each letter string will only be on the screen for two seconds. If you do not respond within this time, the message 'Too slow!' will be displayed and the experiment will progress to the next letter string. The first 20 trials will be practice trials and you will receive feedback on your answers. 

Press the space bar or touch the button below to start the practice trials.",0,,199846,19,2022-01-25_21h34.31.483,lexical_decision_task_DD_L5,2021.2.3,MacIntel,58.82352941,10.051,,,,,,,,,,,,,,,,,,,,,,,,,,,,,,,,,,,,,,,,,,,,,,,,,,,,,,,,,,,,,,,,,,,,,,,,
,,,,,,,,,,,,,,,,,199846,19,2022-01-25_21h34.31.483,lexical_decision_task_DD_L5,2021.2.3,MacIntel,58.82352941,,m,0,1.925,,,,,,,,1.925,0,0,0,0,14,1,1001,THRALE,z,,,,,,,,,,,,,,,,,,,,,,,,,,,,,,,,,,,,,,,,,,,,,,,,,,,,
,,,,,,,,,,,,,,,,,199846,19,2022-01-25_21h34.31.483,lexical_decision_task_DD_L5,2021.2.3,MacIntel,58.82352941,,m,1,1.38,,,,,,,,1.38,1,0,1,1,1,1,1001,ADJUST,m,,,,,,,,,,,,,,,,,,,,,,,,,,,,,,,,,,,,,,,,,,,,,,,,,,,,
,,,,,,,,,,,,,,,,,199846,19,2022-01-25_21h34.31.483,lexical_decision_task_DD_L5,2021.2.3,MacIntel,58.82352941,,z,1,0.96,,,,,,,,0.96,1,0,2,2,15,1,1001,WHAISE,z,,,,,,,,,,,,,,,,,,,,,,,,,,,,,,,,,,,,,,,,,,,,,,,,,,,,
,,,,,,,,,,,,,,,,,199846,19,2022-01-25_21h34.31.483,lexical_decision_task_DD_L5,2021.2.3,MacIntel,58.82352941,,z,1,1.244,,,,,,,,1.244,1,0,3,3,11,1,1001,RASHET,z,,,,,,,,,,,,,,,,,,,,,,,,,,,,,,,,,,,,,,,,,,,,,,,,,,,,
,,,,,,,,,,,,,,,,,199846,19,2022-01-25_21h34.31.483,lexical_decision_task_DD_L5,2021.2.3,MacIntel,58.82352941,,m,1,0.921,,,,,,,,0.921,1,0,4,4,5,1,1001,OBTAIN,m,,,,,,,,,,,,,,,,,,,,,,,,,,,,,,,,,,,,,,,,,,,,,,,,,,,,
,,,,,,,,,,,,,,,,,199846,19,2022-01-25_21h34.31.483,lexical_decision_task_DD_L5,2021.2.3,MacIntel,58.82352941,,z,1,0.772,,,,,,,,0.772,1,0,5,5,9,1,1001,FARINY,z,,,,,,,,,,,,,,,,,,,,,,,,,,,,,,,,,,,,,,,,,,,,,,,,,,,,
,,,,,,,,,,,,,,,,,199846,19,2022-01-25_21h34.31.483,lexical_decision_task_DD_L5,2021.2.3,MacIntel,58.82352941,,m,1,0.747,,,,,,,,0.747,1,0,6,6,2,1,1001,ALMOND,m,,,,,,,,,,,,,,,,,,,,,,,,,,,,,,,,,,,,,,,,,,,,,,,,,,,,
,,,,,,,,,,,,,,,,,199846,19,2022-01-25_21h34.31.483,lexical_decision_task_DD_L5,2021.2.3,MacIntel,58.82352941,,m,1,0.852,,,,,,,,0.852,1,0,7,7,6,1,1001,ZOMBIE,m,,,,,,,,,,,,,,,,,,,,,,,,,,,,,,,,,,,,,,,,,,,,,,,,,,,,
,,,,,,,,,,,,,,,,,199846,19,2022-01-25_21h34.31.483,lexical_decision_task_DD_L5,2021.2.3,MacIntel,58.82352941,,z,1,0.805,,,,,,,,0.805,1,0,8,8,12,1,1001,SPRINY,z,,,,,,,,,,,,,,,,,,,,,,,,,,,,,,,,,,,,,,,,,,,,,,,,,,,,
,,,,,,,,,,,,,,,,,199846,19,2022-01-25_21h34.31.483,lexical_decision_task_DD_L5,2021.2.3,MacIntel,58.82352941,,z,1,0.737,,,,,,,,0.737,1,0,9,9,8,1,1001,ASLERT,z,,,,,,,,,,,,,,,,,,,,,,,,,,,,,,,,,,,,,,,,,,,,,,,,,,,,
,,,,,,,,,,,,,,,,,199846,19,2022-01-25_21h34.31.483,lexical_decision_task_DD_L5,2021.2.3,MacIntel,58.82352941,,m,1,0.636,,,,,,,,0.636,1,0,10,10,3,1,1001,MATRIX,m,,,,,,,,,,,,,,,,,,,,,,,,,,,,,,,,,,,,,,,,,,,,,,,,,,,,
,,,,,,,,,,,,,,,,,199846,19,2022-01-25_21h34.31.483,lexical_decision_task_DD_L5,2021.2.3,MacIntel,58.82352941,,z,1,1.377,,,,,,,,1.377,1,0,11,11,13,1,1001,ROUPET,z,,,,,,,,,,,,,,,,,,,,,,,,,,,,,,,,,,,,,,,,,,,,,,,,,,,,
,,,,,,,,,,,,,,,,,199846,19,2022-01-25_21h34.31.483,lexical_decision_task_DD_L5,2021.2.3,MacIntel,58.82352941,,m,1,1.038,,,,,,,,1.038,1,0,12,12,4,1,1001,SQUEAK,m,,,,,,,,,,,,,,,,,,,,,,,,,,,,,,,,,,,,,,,,,,,,,,,,,,,,
,,,,,,,,,,,,,,,,,199846,19,2022-01-25_21h34.31.483,lexical_decision_task_DD_L5,2021.2.3,MacIntel,58.82352941,,z,1,1.037,,,,,,,,1.037,1,0,13,13,10,1,1001,INLADE,z,,,,,,,,,,,,,,,,,,,,,,,,,,,,,,,,,,,,,,,,,,,,,,,,,,,,
,,,,,,,,,,,,,,,,,199846,19,2022-01-25_21h34.31.483,lexical_decision_task_DD_L5,2021.2.3,MacIntel,58.82352941,,m,1,0.886,,,,,,,,0.886,1,0,14,14,7,1,1001,VOLUME,m,,,,,,,,,,,,,,,,,,,,,,,,,,,,,,,,,,,,,,,,,,,,,,,,,,,,
,,,,,,,,,,,,,,,,,199846,19,2022-01-25_21h34.31.483,lexical_decision_task_DD_L5,2021.2.3,MacIntel,58.82352941,,m,1,0.873,,,,,,,,0.873,1,0,15,15,0,1,1001,UTOPIA,m,,,,,,,,,,,,,,,,,,,,,,,,,,,,,,,,,,,,,,,,,,,,,,,,,,,,
space,0.258888889,0.177777778,0,0,0,,,,,,,1,end_of_practice,"You have completed the practice trials. During the experimental trials, you will not receive feedback. 
Before you begin, please ensure that you are in a comfortable and quiet location and will not be disturbed for about 15 minutes, as we cannot use your data if you do not complete all the trials. 
 When you are ready to start the experimental trials, please press space or touch the button below.",,,199846,19,2022-01-25_21h34.31.483,lexical_decision_task_DD_L5,2021.2.3,MacIntel,58.82352941,12.918,,,,,,,,,,,,,,,,,,,,,0,0,0,0,1,,,,,,,,,,,,,,,,,,,,,,,,,,,,,,,,,,,,,,,,,,,,,,,
,,,,,,,,,,,,,,,,,199846,19,2022-01-25_21h34.31.483,lexical_decision_task_DD_L5,2021.2.3,MacIntel,58.82352941,,,,,,,,,,,,2.945,0,,,,,,,,,,,,,,m,0,2.945,,,,,,,,0.258888889,0.177777778,0,0,0,,0,0,0,142,1,PLASK,HB,old,n,./images/PLASKHB.png,,,,,,,,,,,,,,,,,,,,,
,,,,,,,,,,,,,,,,,199846,19,2022-01-25_21h34.31.483,lexical_decision_task_DD_L5,2021.2.3,MacIntel,58.82352941,,,,,,,,,,,,0.571,0,,,,,,,,,,,,,,m,0,0.571,,,,,,,,0.258888889,0.177777778,0,0,0,,0,1,1,62,1,MAMMAL,C,old,y,./images/MAMMAL.png,,,,,,,,,,,,,,,,,,,,,
,,,,,,,,,,,,,,,,,199846,19,2022-01-25_21h34.31.483,lexical_decision_task_DD_L5,2021.2.3,MacIntel,58.82352941,,,,,,,,,,,,0.621,0,,,,,,,,,,,,,,m,0,0.621,,,,,,,,0.258888889,0.177777778,0,0,0,,0,2,2,48,1,SHIELD,HB,old,y,./images/SHIELDHB.png,,,,,,,,,,,,,,,,,,,,,
,,,,,,,,,,,,,,,,,199846,19,2022-01-25_21h34.31.483,lexical_decision_task_DD_L5,2021.2.3,MacIntel,58.82352941,,,,,,,,,,,,0.936,0,,,,,,,,,,,,,,z,0,0.936,,,,,,,,0.258888889,0.177777778,0,0,0,,0,3,3,121,1,CEERS,HB,old,n,./images/CEERSHB.png,,,,,,,,,,,,,,,,,,,,,
,,,,,,,,,,,,,,,,,199846,19,2022-01-25_21h34.31.483,lexical_decision_task_DD_L5,2021.2.3,MacIntel,58.82352941,,,,,,,,,,,,1.376,0,,,,,,,,,,,,,,z,0,1.376,,,,,,,,0.258888889,0.177777778,0,0,0,,0,4,4,150,1,NOOLS,C,old,n,./images/NOOLS.png,,,,,,,,,,,,,,,,,,,,,
,,,,,,,,,,,,,,,,,199846,19,2022-01-25_21h34.31.483,lexical_decision_task_DD_L5,2021.2.3,MacIntel,58.82352941,,,,,,,,,,,,1.07,0,,,,,,,,,,,,,,m,0,1.07,,,,,,,,0.258888889,0.177777778,0,0,0,,0,5,5,104,1,GITTY,LB,old,n,./images/GITTYLB.png,,,,,,,,,,,,,,,,,,,,,
,,,,,,,,,,,,,,,,,199846,19,2022-01-25_21h34.31.483,lexical_decision_task_DD_L5,2021.2.3,MacIntel,58.82352941,,,,,,,,,,,,0.645,0,,,,,,,,,,,,,,m,0,0.645,,,,,,,,0.258888889,0.177777778,0,0,0,,0,6,6,12,1,BLOKE,HB,old,y,./images/BLOKEHB.png,,,,,,,,,,,,,,,,,,,,,
,,,,,,,,,,,,,,,,,199846,19,2022-01-25_21h34.31.483,lexical_decision_task_DD_L5,2021.2.3,MacIntel,58.82352941,,,,,,,,,,,,0.846,0,,,,,,,,,,,,,,m,0,0.846,,,,,,,,0.258888889,0.177777778,0,0,0,,0,7,7,65,1,SPINE,C,old,y,./images/SPINE.png,,,,,,,,,,,,,,,,,,,,,
,,,,,,,,,,,,,,,,,199846,19,2022-01-25_21h34.31.483,lexical_decision_task_DD_L5,2021.2.3,MacIntel,58.82352941,,,,,,,,,,,,0.922,0,,,,,,,,,,,,,,z,0,0.922,,,,,,,,0.258888889,0.177777778,0,0,0,,0,8,8,24,1,FLESH,HB,old,y,./images/FLESHHB.png,,,,,,,,,,,,,,,,,,,,,
,,,,,,,,,,,,,,,,,199846,19,2022-01-25_21h34.31.483,lexical_decision_task_DD_L5,2021.2.3,MacIntel,58.82352941,,,,,,,,,,,,0.653,0,,,,,,,,,,,,,,m,0,0.653,,,,,,,,0.258888889,0.177777778,0,0,0,,0,9,9,46,1,MUMMY,LB,old,y,./images/MUMMYLB.png,,,,,,,,,,,,,,,,,,,,,
,,,,,,,,,,,,,,,,,199846,19,2022-01-25_21h34.31.483,lexical_decision_task_DD_L5,2021.2.3,MacIntel,58.82352941,,,,,,,,,,,,0.545,0,,,,,,,,,,,,,,m,0,0.545,,,,,,,,0.258888889,0.177777778,0,0,0,,0,10,10,0,1,WALNUT,HB,old,y,./images/WALNUTHB.png,,,,,,,,,,,,,,,,,,,,,
,,,,,,,,,,,,,,,,,199846,19,2022-01-25_21h34.31.483,lexical_decision_task_DD_L5,2021.2.3,MacIntel,58.82352941,,,,,,,,,,,,0.905,0,,,,,,,,,,,,,,z,0,0.905,,,,,,,,0.258888889,0.177777778,0,0,0,,0,11,11,124,1,TUNCH,HB,old,n,./images/TUNCHHB.png,,,,,,,,,,,,,,,,,,,,,
,,,,,,,,,,,,,,,,,199846,19,2022-01-25_21h34.31.483,lexical_decision_task_DD_L5,2021.2.3,MacIntel,58.82352941,,,,,,,,,,,,0.693,0,,,,,,,,,,,,,,z,0,0.693,,,,,,,,0.258888889,0.177777778,0,0,0,,0,12,12,84,1,HAXES,C,old,n,./images/HAXES.png,,,,,,,,,,,,,,,,,,,,,
,,,,,,,,,,,,,,,,,199846,19,2022-01-25_21h34.31.483,lexical_decision_task_DD_L5,2021.2.3,MacIntel,58.82352941,,,,,,,,,,,,0.989,0,,,,,,,,,,,,,,m,0,0.989,,,,,,,,0.258888889,0.177777778,0,0,0,,0,13,13,120,1,RINED,C,old,n,./images/RINED.png,,,,,,,,,,,,,,,,,,,,,
,,,,,,,,,,,,,,,,,199846,19,2022-01-25_21h34.31.483,lexical_decision_task_DD_L5,2021.2.3,MacIntel,58.82352941,,,,,,,,,,,,0.746,0,,,,,,,,,,,,,,z,0,0.746,,,,,,,,0.258888889,0.177777778,0,0,0,,0,14,14,122,1,BLOOT,LB,old,n,./images/BLOOTLB.png,,,,,,,,,,,,,,,,,,,,,
,,,,,,,,,,,,,,,,,199846,19,2022-01-25_21h34.31.483,lexical_decision_task_DD_L5,2021.2.3,MacIntel,58.82352941,,,,,,,,,,,,0.743,0,,,,,,,,,,,,,,m,0,0.743,,,,,,,,0.258888889,0.177777778,0,0,0,,0,15,15,42,1,CHAIN,HB,old,y,./images/CHAINHB.png,,,,,,,,,,,,,,,,,,,,,
,,,,,,,,,,,,,,,,,199846,19,2022-01-25_21h34.31.483,lexical_decision_task_DD_L5,2021.2.3,MacIntel,58.82352941,,,,,,,,,,,,0.599,0,,,,,,,,,,,,,,m,0,0.599,,,,,,,,0.258888889,0.177777778,0,0,0,,0,16,16,10,1,GARDEN,LB,old,y,./images/GARDENLB.png,,,,,,,,,,,,,,,,,,,,,
,,,,,,,,,,,,,,,,,199846,19,2022-01-25_21h34.31.483,lexical_decision_task_DD_L5,2021.2.3,MacIntel,58.82352941,,,,,,,,,,,,0.578,0,,,,,,,,,,,,,,m,0,0.578,,,,,,,,0.258888889,0.177777778,0,0,0,,0,17,17,58,1,CANOE,LB,old,y,./images/CANOELB.png,,,,,,,,,,,,,,,,,,,,,
,,,,,,,,,,,,,,,,,199846,19,2022-01-25_21h34.31.483,lexical_decision_task_DD_L5,2021.2.3,MacIntel,58.82352941,,,,,,,,,,,,1.293,0,,,,,,,,,,,,,,z,0,1.293,,,,,,,,0.258888889,0.177777778,0,0,0,,0,18,18,139,1,BLEAR,HB,old,n,./images/BLEARHB.png,,,,,,,,,,,,,,,,,,,,,
,,,,,,,,,,,,,,,,,199846,19,2022-01-25_21h34.31.483,lexical_decision_task_DD_L5,2021.2.3,MacIntel,58.82352941,,,,,,,,,,,,0.586,0,,,,,,,,,,,,,,m,0,0.586,,,,,,,,0.258888889,0.177777778,0,0,0,,0,19,19,35,1,LLAMA,C,old,y,./images/LLAMA.png,,,,,,,,,,,,,,,,,,,,,
,,,,,,,,,,,,,,,,,199846,19,2022-01-25_21h34.31.483,lexical_decision_task_DD_L5,2021.2.3,MacIntel,58.82352941,,,,,,,,,,,,0.938,0,,,,,,,,,,,,,,z,0,0.938,,,,,,,,0.258888889,0.177777778,0,0,0,,0,20,20,85,1,CHULK,HB,old,n,./images/CHULKHB.png,,,,,,,,,,,,,,,,,,,,,
,,,,,,,,,,,,,,,,,199846,19,2022-01-25_21h34.31.483,lexical_decision_task_DD_L5,2021.2.3,MacIntel,58.82352941,,,,,,,,,,,,0.476,0,,,,,,,,,,,,,,m,0,0.476,,,,,,,,0.258888889,0.177777778,0,0,0,,0,21,21,83,1,WHISKY,C,old,y,./images/WHISKY.png,,,,,,,,,,,,,,,,,,,,,
,,,,,,,,,,,,,,,,,199846,19,2022-01-25_21h34.31.483,lexical_decision_task_DD_L5,2021.2.3,MacIntel,58.82352941,,,,,,,,,,,,0.899,0,,,,,,,,,,,,,,z,0,0.899,,,,,,,,0.258888889,0.177777778,0,0,0,,0,22,22,154,1,THINT,HB,old,n,./images/THINTHB.png,,,,,,,,,,,,,,,,,,,,,
,,,,,,,,,,,,,,,,,199846,19,2022-01-25_21h34.31.483,lexical_decision_task_DD_L5,2021.2.3,MacIntel,58.82352941,,,,,,,,,,,,0.622,0,,,,,,,,,,,,,,m,0,0.622,,,,,,,,0.258888889,0.177777778,0,0,0,,0,23,23,36,1,BOILER,HB,old,y,./images/BOILERHB.png,,,,,,,,,,,,,,,,,,,,,
,,,,,,,,,,,,,,,,,199846,19,2022-01-25_21h34.31.483,lexical_decision_task_DD_L5,2021.2.3,MacIntel,58.82352941,,,,,,,,,,,,0.512,0,,,,,,,,,,,,,,m,0,0.512,,,,,,,,0.258888889,0.177777778,0,0,0,,0,24,24,74,1,JUMPER,C,old,y,./images/JUMPER.png,,,,,,,,,,,,,,,,,,,,,
,,,,,,,,,,,,,,,,,199846,19,2022-01-25_21h34.31.483,lexical_decision_task_DD_L5,2021.2.3,MacIntel,58.82352941,,,,,,,,,,,,0.439,0,,,,,,,,,,,,,,m,0,0.439,,,,,,,,0.258888889,0.177777778,0,0,0,,0,25,25,11,1,MEDAL,C,old,y,./images/MEDAL.png,,,,,,,,,,,,,,,,,,,,,
,,,,,,,,,,,,,,,,,199846,19,2022-01-25_21h34.31.483,lexical_decision_task_DD_L5,2021.2.3,MacIntel,58.82352941,,,,,,,,,,,,0.693,0,,,,,,,,,,,,,,m,0,0.693,,,,,,,,0.258888889,0.177777778,0,0,0,,0,26,26,81,1,DRILL,HB,old,y,./images/DRILLHB.png,,,,,,,,,,,,,,,,,,,,,
,,,,,,,,,,,,,,,,,199846,19,2022-01-25_21h34.31.483,lexical_decision_task_DD_L5,2021.2.3,MacIntel,58.82352941,,,,,,,,,,,,0.605,0,,,,,,,,,,,,,,m,0,0.605,,,,,,,,0.258888889,0.177777778,0,0,0,,0,27,27,52,1,DESERT,LB,old,y,./images/DESERTLB.png,,,,,,,,,,,,,,,,,,,,,
,,,,,,,,,,,,,,,,,199846,19,2022-01-25_21h34.31.483,lexical_decision_task_DD_L5,2021.2.3,MacIntel,58.82352941,,,,,,,,,,,,1.063,0,,,,,,,,,,,,,,z,0,1.063,,,,,,,,0.258888889,0.177777778,0,0,0,,0,28,28,106,1,CLUMS,HB,old,n,./images/CLUMSHB.png,,,,,,,,,,,,,,,,,,,,,
,,,,,,,,,,,,,,,,,199846,19,2022-01-25_21h34.31.483,lexical_decision_task_DD_L5,2021.2.3,MacIntel,58.82352941,,,,,,,,,,,,0.603,0,,,,,,,,,,,,,,m,0,0.603,,,,,,,,0.258888889,0.177777778,0,0,0,,0,29,29,15,1,COLLAR,HB,old,y,./images/COLLARHB.png,,,,,,,,,,,,,,,,,,,,,
,,,,,,,,,,,,,,,,,199846,19,2022-01-25_21h34.31.483,lexical_decision_task_DD_L5,2021.2.3,MacIntel,58.82352941,,,,,,,,,,,,0.711,0,,,,,,,,,,,,,,m,0,0.711,,,,,,,,0.258888889,0.177777778,0,0,0,,0,30,30,33,1,SAUNA,HB,old,y,./images/SAUNAHB.png,,,,,,,,,,,,,,,,,,,,,
,,,,,,,,,,,,,,,,,199846,19,2022-01-25_21h34.31.483,lexical_decision_task_DD_L5,2021.2.3,MacIntel,58.82352941,,,,,,,,,,,,0.565,0,,,,,,,,,,,,,,m,0,0.565,,,,,,,,0.258888889,0.177777778,0,0,0,,0,31,31,37,1,TIGER,LB,old,y,./images/TIGERLB.png,,,,,,,,,,,,,,,,,,,,,
,,,,,,,,,,,,,,,,,199846,19,2022-01-25_21h34.31.483,lexical_decision_task_DD_L5,2021.2.3,MacIntel,58.82352941,,,,,,,,,,,,0.688,0,,,,,,,,,,,,,,z,0,0.688,,,,,,,,0.258888889,0.177777778,0,0,0,,0,32,32,141,1,PLEET,C,old,n,./images/PLEET.png,,,,,,,,,,,,,,,,,,,,,
,,,,,,,,,,,,,,,,,199846,19,2022-01-25_21h34.31.483,lexical_decision_task_DD_L5,2021.2.3,MacIntel,58.82352941,,,,,,,,,,,,1.444,0,,,,,,,,,,,,,,z,0,1.444,,,,,,,,0.258888889,0.177777778,0,0,0,,0,33,33,96,1,KEAMS,C,old,n,./images/KEAMS.png,,,,,,,,,,,,,,,,,,,,,
,,,,,,,,,,,,,,,,,199846,19,2022-01-25_21h34.31.483,lexical_decision_task_DD_L5,2021.2.3,MacIntel,58.82352941,,,,,,,,,,,,0.537,0,,,,,,,,,,,,,,m,0,0.537,,,,,,,,0.258888889,0.177777778,0,0,0,,0,34,34,51,1,SAUCE,HB,old,y,./images/SAUCEHB.png,,,,,,,,,,,,,,,,,,,,,
,,,,,,,,,,,,,,,,,199846,19,2022-01-25_21h34.31.483,lexical_decision_task_DD_L5,2021.2.3,MacIntel,58.82352941,,,,,,,,,,,,0.859,0,,,,,,,,,,,,,,m,0,0.859,,,,,,,,0.258888889,0.177777778,0,0,0,,0,35,35,128,1,GRIFT,LB,old,n,./images/GRIFTLB.png,,,,,,,,,,,,,,,,,,,,,
,,,,,,,,,,,,,,,,,199846,19,2022-01-25_21h34.31.483,lexical_decision_task_DD_L5,2021.2.3,MacIntel,58.82352941,,,,,,,,,,,,0.666,0,,,,,,,,,,,,,,m,0,0.666,,,,,,,,0.258888889,0.177777778,0,0,0,,0,36,36,19,1,DONKEY,LB,old,y,./images/DONKEYLB.png,,,,,,,,,,,,,,,,,,,,,
,,,,,,,,,,,,,,,,,199846,19,2022-01-25_21h34.31.483,lexical_decision_task_DD_L5,2021.2.3,MacIntel,58.82352941,,,,,,,,,,,,0.888,0,,,,,,,,,,,,,,z,0,0.888,,,,,,,,0.258888889,0.177777778,0,0,0,,0,37,37,95,1,HANTY,LB,old,n,./images/HANTYLB.png,,,,,,,,,,,,,,,,,,,,,
,,,,,,,,,,,,,,,,,199846,19,2022-01-25_21h34.31.483,lexical_decision_task_DD_L5,2021.2.3,MacIntel,58.82352941,,,,,,,,,,,,0.569,0,,,,,,,,,,,,,,m,0,0.569,,,,,,,,0.258888889,0.177777778,0,0,0,,0,38,38,70,1,BANANA,LB,old,y,./images/BANANALB.png,,,,,,,,,,,,,,,,,,,,,
,,,,,,,,,,,,,,,,,199846,19,2022-01-25_21h34.31.483,lexical_decision_task_DD_L5,2021.2.3,MacIntel,58.82352941,,,,,,,,,,,,0.727,0,,,,,,,,,,,,,,m,0,0.727,,,,,,,,0.258888889,0.177777778,0,0,0,,0,39,39,60,1,CURRY,HB,old,y,./images/CURRYHB.png,,,,,,,,,,,,,,,,,,,,,
,,,,,,,,,,,,,,,,,199846,19,2022-01-25_21h34.31.483,lexical_decision_task_DD_L5,2021.2.3,MacIntel,58.82352941,,,,,,,,,,,,0.481,0,,,,,,,,,,,,,,m,0,0.481,,,,,,,,0.258888889,0.177777778,0,0,0,,0,40,40,67,1,POKER,LB,old,y,./images/POKERLB.png,,,,,,,,,,,,,,,,,,,,,
,,,,,,,,,,,,,,,,,199846,19,2022-01-25_21h34.31.483,lexical_decision_task_DD_L5,2021.2.3,MacIntel,58.82352941,,,,,,,,,,,,0.552,0,,,,,,,,,,,,,,m,0,0.552,,,,,,,,0.258888889,0.177777778,0,0,0,space,0,41,41,27,1,BUTTER,HB,old,y,./images/BUTTERHB.png,2.849,,,,,,,,,,,,,,,,,,,,
,,,,,,,,,,,,,,,,,199846,19,2022-01-25_21h34.31.483,lexical_decision_task_DD_L5,2021.2.3,MacIntel,58.82352941,,,,,,,,,,,,0.542,0,,,,,,,,,,,,,,m,0,0.542,,,,,,,,0.258888889,0.177777778,0,0,0,,0,42,42,25,1,CHALK,LB,old,y,./images/CHALKLB.png,,,,,,,,,,,,,,,,,,,,,
,,,,,,,,,,,,,,,,,199846,19,2022-01-25_21h34.31.483,lexical_decision_task_DD_L5,2021.2.3,MacIntel,58.82352941,,,,,,,,,,,,0.774,0,,,,,,,,,,,,,,z,0,0.774,,,,,,,,0.258888889,0.177777778,0,0,0,,0,43,43,155,1,CANGY,LB,old,n,./images/CANGYLB.png,,,,,,,,,,,,,,,,,,,,,
,,,,,,,,,,,,,,,,,199846,19,2022-01-25_21h34.31.483,lexical_decision_task_DD_L5,2021.2.3,MacIntel,58.82352941,,,,,,,,,,,,0.685,0,,,,,,,,,,,,,,m,0,0.685,,,,,,,,0.258888889,0.177777778,0,0,0,,0,44,44,30,1,SLOPE,HB,old,y,./images/SLOPEHB.png,,,,,,,,,,,,,,,,,,,,,
,,,,,,,,,,,,,,,,,199846,19,2022-01-25_21h34.31.483,lexical_decision_task_DD_L5,2021.2.3,MacIntel,58.82352941,,,,,,,,,,,,0.559,0,,,,,,,,,,,,,,m,0,0.559,,,,,,,,0.258888889,0.177777778,0,0,0,,0,45,45,20,1,GRANNY,C,old,y,./images/GRANNY.png,,,,,,,,,,,,,,,,,,,,,
,,,,,,,,,,,,,,,,,199846,19,2022-01-25_21h34.31.483,lexical_decision_task_DD_L5,2021.2.3,MacIntel,58.82352941,,,,,,,,,,,,1.085,0,,,,,,,,,,,,,,m,0,1.085,,,,,,,,0.258888889,0.177777778,0,0,0,,0,46,46,159,1,CUDDY,C,old,n,./images/CUDDY.png,,,,,,,,,,,,,,,,,,,,,
,,,,,,,,,,,,,,,,,199846,19,2022-01-25_21h34.31.483,lexical_decision_task_DD_L5,2021.2.3,MacIntel,58.82352941,,,,,,,,,,,,0.813,0,,,,,,,,,,,,,,m,0,0.813,,,,,,,,0.258888889,0.177777778,0,0,0,,0,47,47,78,1,BROOM,HB,old,y,./images/BROOMHB.png,,,,,,,,,,,,,,,,,,,,,
,,,,,,,,,,,,,,,,,199846,19,2022-01-25_21h34.31.483,lexical_decision_task_DD_L5,2021.2.3,MacIntel,58.82352941,,,,,,,,,,,,0.681,0,,,,,,,,,,,,,,m,0,0.681,,,,,,,,0.258888889,0.177777778,0,0,0,,0,48,48,47,1,LAGOON,C,old,y,./images/LAGOON.png,,,,,,,,,,,,,,,,,,,,,
,,,,,,,,,,,,,,,,,199846,19,2022-01-25_21h34.31.483,lexical_decision_task_DD_L5,2021.2.3,MacIntel,58.82352941,,,,,,,,,,,,0.795,0,,,,,,,,,,,,,,z,0,0.795,,,,,,,,0.258888889,0.177777778,0,0,0,,0,49,49,102,1,DULLE,C,old,n,./images/DULLE.png,,,,,,,,,,,,,,,,,,,,,
,,,,,,,,,,,,,,,,,199846,19,2022-01-25_21h34.31.483,lexical_decision_task_DD_L5,2021.2.3,MacIntel,58.82352941,,,,,,,,,,,,0.571,0,,,,,,,,,,,,,,m,0,0.571,,,,,,,,0.258888889,0.177777778,0,0,0,,0,50,50,56,1,HEATER,C,old,y,./images/HEATER.png,,,,,,,,,,,,,,,,,,,,,
,,,,,,,,,,,,,,,,,199846,19,2022-01-25_21h34.31.483,lexical_decision_task_DD_L5,2021.2.3,MacIntel,58.82352941,,,,,,,,,,,,0.936,0,,,,,,,,,,,,,,z,0,0.936,,,,,,,,0.258888889,0.177777778,0,0,0,,0,51,51,94,1,BLANS,HB,old,n,./images/BLANSHB.png,,,,,,,,,,,,,,,,,,,,,
,,,,,,,,,,,,,,,,,199846,19,2022-01-25_21h34.31.483,lexical_decision_task_DD_L5,2021.2.3,MacIntel,58.82352941,,,,,,,,,,,,0.763,0,,,,,,,,,,,,,,z,0,0.763,,,,,,,,0.258888889,0.177777778,0,0,0,,0,52,52,112,1,MYING,HB,old,n,./images/MYINGHB.png,,,,,,,,,,,,,,,,,,,,,
,,,,,,,,,,,,,,,,,199846,19,2022-01-25_21h34.31.483,lexical_decision_task_DD_L5,2021.2.3,MacIntel,58.82352941,,,,,,,,,,,,0.67,0,,,,,,,,,,,,,,z,0,0.67,,,,,,,,0.258888889,0.177777778,0,0,0,,0,53,53,137,1,JOOST,LB,old,n,./images/JOOSTLB.png,,,,,,,,,,,,,,,,,,,,,
,,,,,,,,,,,,,,,,,199846,19,2022-01-25_21h34.31.483,lexical_decision_task_DD_L5,2021.2.3,MacIntel,58.82352941,,,,,,,,,,,,0.672,0,,,,,,,,,,,,,,m,0,0.672,,,,,,,,0.258888889,0.177777778,0,0,0,,0,54,54,69,1,ARROW,HB,old,y,./images/ARROWHB.png,,,,,,,,,,,,,,,,,,,,,
,,,,,,,,,,,,,,,,,199846,19,2022-01-25_21h34.31.483,lexical_decision_task_DD_L5,2021.2.3,MacIntel,58.82352941,,,,,,,,,,,,0.687,0,,,,,,,,,,,,,,m,0,0.687,,,,,,,,0.258888889,0.177777778,0,0,0,,0,55,55,34,1,RAZOR,LB,old,y,./images/RAZORLB.png,,,,,,,,,,,,,,,,,,,,,
,,,,,,,,,,,,,,,,,199846,19,2022-01-25_21h34.31.483,lexical_decision_task_DD_L5,2021.2.3,MacIntel,58.82352941,,,,,,,,,,,,0.885,0,,,,,,,,,,,,,,z,0,0.885,,,,,,,,0.258888889,0.177777778,0,0,0,,0,56,56,158,1,EGECT,LB,old,n,./images/EGECTLB.png,,,,,,,,,,,,,,,,,,,,,
,,,,,,,,,,,,,,,,,199846,19,2022-01-25_21h34.31.483,lexical_decision_task_DD_L5,2021.2.3,MacIntel,58.82352941,,,,,,,,,,,,0.812,0,,,,,,,,,,,,,,z,0,0.812,,,,,,,,0.258888889,0.177777778,0,0,0,,0,57,57,98,1,BAMPS,LB,old,n,./images/BAMPSLB.png,,,,,,,,,,,,,,,,,,,,,
,,,,,,,,,,,,,,,,,199846,19,2022-01-25_21h34.31.483,lexical_decision_task_DD_L5,2021.2.3,MacIntel,58.82352941,,,,,,,,,,,,1.952,0,,,,,,,,,,,,,,z,0,1.952,,,,,,,,0.258888889,0.177777778,0,0,0,,0,58,58,88,1,GLUSH,HB,old,n,./images/GLUSHHB.png,,,,,,,,,,,,,,,,,,,,,
,,,,,,,,,,,,,,,,,199846,19,2022-01-25_21h34.31.483,lexical_decision_task_DD_L5,2021.2.3,MacIntel,58.82352941,,,,,,,,,,,,0.687,0,,,,,,,,,,,,,,z,0,0.687,,,,,,,,0.258888889,0.177777778,0,0,0,,0,59,59,147,1,ZOLES,C,old,n,./images/ZOLES.png,,,,,,,,,,,,,,,,,,,,,
,,,,,,,,,,,,,,,,,199846,19,2022-01-25_21h34.31.483,lexical_decision_task_DD_L5,2021.2.3,MacIntel,58.82352941,,,,,,,,,,,,0.795,0,,,,,,,,,,,,,,z,0,0.795,,,,,,,,0.258888889,0.177777778,0,0,0,,0,60,60,131,1,NACES,LB,old,n,./images/NACESLB.png,,,,,,,,,,,,,,,,,,,,,
,,,,,,,,,,,,,,,,,199846,19,2022-01-25_21h34.31.483,lexical_decision_task_DD_L5,2021.2.3,MacIntel,58.82352941,,,,,,,,,,,,0.529,0,,,,,,,,,,,,,,m,0,0.529,,,,,,,,0.258888889,0.177777778,0,0,0,,0,61,61,80,1,PLANET,C,old,y,./images/PLANET.png,,,,,,,,,,,,,,,,,,,,,
,,,,,,,,,,,,,,,,,199846,19,2022-01-25_21h34.31.483,lexical_decision_task_DD_L5,2021.2.3,MacIntel,58.82352941,,,,,,,,,,,,0.97,0,,,,,,,,,,,,,,z,0,0.97,,,,,,,,0.258888889,0.177777778,0,0,0,,0,62,62,144,1,NAIRY,C,old,n,./images/NAIRY.png,,,,,,,,,,,,,,,,,,,,,
,,,,,,,,,,,,,,,,,199846,19,2022-01-25_21h34.31.483,lexical_decision_task_DD_L5,2021.2.3,MacIntel,58.82352941,,,,,,,,,,,,0.955,0,,,,,,,,,,,,,,m,0,0.955,,,,,,,,0.258888889,0.177777778,0,0,0,,0,63,63,66,1,STATUE,HB,old,y,./images/STATUEHB.png,,,,,,,,,,,,,,,,,,,,,
,,,,,,,,,,,,,,,,,199846,19,2022-01-25_21h34.31.483,lexical_decision_task_DD_L5,2021.2.3,MacIntel,58.82352941,,,,,,,,,,,,1.032,0,,,,,,,,,,,,,,z,0,1.032,,,,,,,,0.258888889,0.177777778,0,0,0,,0,64,64,97,1,CHIDS,HB,old,n,./images/CHIDSHB.png,,,,,,,,,,,,,,,,,,,,,
,,,,,,,,,,,,,,,,,199846,19,2022-01-25_21h34.31.483,lexical_decision_task_DD_L5,2021.2.3,MacIntel,58.82352941,,,,,,,,,,,,0.667,0,,,,,,,,,,,,,,m,0,0.667,,,,,,,,0.258888889,0.177777778,0,0,0,,0,65,65,49,1,BISHOP,LB,old,y,./images/BISHOPLB.png,,,,,,,,,,,,,,,,,,,,,
,,,,,,,,,,,,,,,,,199846,19,2022-01-25_21h34.31.483,lexical_decision_task_DD_L5,2021.2.3,MacIntel,58.82352941,,,,,,,,,,,,0.62,0,,,,,,,,,,,,,,m,0,0.62,,,,,,,,0.258888889,0.177777778,0,0,0,,0,66,66,75,1,HAMMER,HB,old,y,./images/HAMMERHB.png,,,,,,,,,,,,,,,,,,,,,
,,,,,,,,,,,,,,,,,199846,19,2022-01-25_21h34.31.483,lexical_decision_task_DD_L5,2021.2.3,MacIntel,58.82352941,,,,,,,,,,,,0.909,0,,,,,,,,,,,,,,m,0,0.909,,,,,,,,0.258888889,0.177777778,0,0,0,,0,67,67,43,1,STOOL,LB,old,y,./images/STOOLLB.png,,,,,,,,,,,,,,,,,,,,,
,,,,,,,,,,,,,,,,,199846,19,2022-01-25_21h34.31.483,lexical_decision_task_DD_L5,2021.2.3,MacIntel,58.82352941,,,,,,,,,,,,1.068,0,,,,,,,,,,,,,,z,0,1.068,,,,,,,,0.258888889,0.177777778,0,0,0,,0,68,68,148,1,JOMS,HB,old,n,./images/JOMSHB.png,,,,,,,,,,,,,,,,,,,,,
,,,,,,,,,,,,,,,,,199846,19,2022-01-25_21h34.31.483,lexical_decision_task_DD_L5,2021.2.3,MacIntel,58.82352941,,,,,,,,,,,,0.705,0,,,,,,,,,,,,,,z,0,0.705,,,,,,,,0.258888889,0.177777778,0,0,0,,0,69,69,132,1,SCIFF,C,old,n,./images/SCIFF.png,,,,,,,,,,,,,,,,,,,,,
,,,,,,,,,,,,,,,,,199846,19,2022-01-25_21h34.31.483,lexical_decision_task_DD_L5,2021.2.3,MacIntel,58.82352941,,,,,,,,,,,,0.856,0,,,,,,,,,,,,,,z,0,0.856,,,,,,,,0.258888889,0.177777778,0,0,0,,0,70,70,161,1,BLAPS,LB,old,n,./images/BLAPSLB.png,,,,,,,,,,,,,,,,,,,,,
,,,,,,,,,,,,,,,,,199846,19,2022-01-25_21h34.31.483,lexical_decision_task_DD_L5,2021.2.3,MacIntel,58.82352941,,,,,,,,,,,,0.994,0,,,,,,,,,,,,,,m,0,0.994,,,,,,,,0.258888889,0.177777778,0,0,0,,0,71,71,76,1,MIDGET,LB,old,y,./images/MIDGETLB.png,,,,,,,,,,,,,,,,,,,,,
,,,,,,,,,,,,,,,,,199846,19,2022-01-25_21h34.31.483,lexical_decision_task_DD_L5,2021.2.3,MacIntel,58.82352941,,,,,,,,,,,,0.512,0,,,,,,,,,,,,,,m,0,0.512,,,,,,,,0.258888889,0.177777778,0,0,0,,0,72,72,59,1,BRUSH,C,old,y,./images/BRUSH.png,,,,,,,,,,,,,,,,,,,,,
,,,,,,,,,,,,,,,,,199846,19,2022-01-25_21h34.31.483,lexical_decision_task_DD_L5,2021.2.3,MacIntel,58.82352941,,,,,,,,,,,,1.11,0,,,,,,,,,,,,,,z,0,1.11,,,,,,,,0.258888889,0.177777778,0,0,0,,0,73,73,100,1,DRIBS,HB,old,n,./images/DRIBSHB.png,,,,,,,,,,,,,,,,,,,,,
,,,,,,,,,,,,,,,,,199846,19,2022-01-25_21h34.31.483,lexical_decision_task_DD_L5,2021.2.3,MacIntel,58.82352941,,,,,,,,,,,,0.651,0,,,,,,,,,,,,,,z,0,0.651,,,,,,,,0.258888889,0.177777778,0,0,0,,0,74,74,126,1,GUELS,C,old,n,./images/GUELS.png,,,,,,,,,,,,,,,,,,,,,
,,,,,,,,,,,,,,,,,199846,19,2022-01-25_21h34.31.483,lexical_decision_task_DD_L5,2021.2.3,MacIntel,58.82352941,,,,,,,,,,,,1.04,0,,,,,,,,,,,,,,z,0,1.04,,,,,,,,0.258888889,0.177777778,0,0,0,,0,75,75,153,1,CLUPS,C,old,n,./images/CLUPS.png,,,,,,,,,,,,,,,,,,,,,
,,,,,,,,,,,,,,,,,199846,19,2022-01-25_21h34.31.483,lexical_decision_task_DD_L5,2021.2.3,MacIntel,58.82352941,,,,,,,,,,,,1.239,0,,,,,,,,,,,,,,z,0,1.239,,,,,,,,0.258888889,0.177777778,0,0,0,,0,76,76,107,1,FASKS,LB,old,n,./images/FASKSLB.png,,,,,,,,,,,,,,,,,,,,,
,,,,,,,,,,,,,,,,,199846,19,2022-01-25_21h34.31.483,lexical_decision_task_DD_L5,2021.2.3,MacIntel,58.82352941,,,,,,,,,,,,1.056,0,,,,,,,,,,,,,,m,0,1.056,,,,,,,,0.258888889,0.177777778,0,0,0,,0,77,77,143,1,MONGS,LB,old,n,./images/MONGSLB.png,,,,,,,,,,,,,,,,,,,,,
,,,,,,,,,,,,,,,,,199846,19,2022-01-25_21h34.31.483,lexical_decision_task_DD_L5,2021.2.3,MacIntel,58.82352941,,,,,,,,,,,,1.199,0,,,,,,,,,,,,,,z,0,1.199,,,,,,,,0.258888889,0.177777778,0,0,0,,0,78,78,145,1,LAMEL,HB,old,n,./images/LAMELHB.png,,,,,,,,,,,,,,,,,,,,,
,,,,,,,,,,,,,,,,,199846,19,2022-01-25_21h34.31.483,lexical_decision_task_DD_L5,2021.2.3,MacIntel,58.82352941,,,,,,,,,,,,1.259,0,,,,,,,,,,,,,,z,0,1.259,,,,,,,,0.258888889,0.177777778,0,0,0,,0,79,79,91,1,SHENS,HB,old,n,./images/SHENSHB.png,,,,,,,,,,,,,,,,,,,,,
,,,,,,,,,,,,,,,,,199846,19,2022-01-25_21h34.31.483,lexical_decision_task_DD_L5,2021.2.3,MacIntel,58.82352941,,,,,,,,,,,,0.788,0,,,,,,,,,,,,,,m,0,0.788,,,,,,,,0.258888889,0.177777778,0,0,0,,0,80,80,82,1,PEBBLE,LB,old,y,./images/PEBBLELB.png,,,,,,,,,,,,,,,,,,,,,
,,,,,,,,,,,,,,,,,199846,19,2022-01-25_21h34.31.483,lexical_decision_task_DD_L5,2021.2.3,MacIntel,58.82352941,,,,,,,,,,,,0.903,0,,,,,,,,,,,,,,m,0,0.903,,,,,,,,0.258888889,0.177777778,0,0,0,,0,81,81,63,1,BAKER,HB,old,y,./images/BAKERHB.png,,,,,,,,,,,,,,,,,,,,,
,,,,,,,,,,,,,,,,,199846,19,2022-01-25_21h34.31.483,lexical_decision_task_DD_L5,2021.2.3,MacIntel,58.82352941,,,,,,,,,,,,0.695,0,,,,,,,,,,,,,,z,0,0.695,,,,,,,,0.258888889,0.177777778,0,0,0,,0,82,82,135,1,JOODY,C,old,n,./images/JOODY.png,,,,,,,,,,,,,,,,,,,,,
,,,,,,,,,,,,,,,,,199846,19,2022-01-25_21h34.31.483,lexical_decision_task_DD_L5,2021.2.3,MacIntel,58.82352941,,,,,,,,,,,,0.596,0,,,,,,,,,,,,,,m,0,0.596,,,,,,,,0.258888889,0.177777778,0,0,0,space,0,83,83,79,1,RULER,LB,old,y,./images/RULERLB.png,4.338,,,,,,,,,,,,,,,,,,,,
,,,,,,,,,,,,,,,,,199846,19,2022-01-25_21h34.31.483,lexical_decision_task_DD_L5,2021.2.3,MacIntel,58.82352941,,,,,,,,,,,,0.718,0,,,,,,,,,,,,,,m,0,0.718,,,,,,,,0.258888889,0.177777778,0,0,0,,0,84,84,61,1,ARTIST,LB,old,y,./images/ARTISTLB.png,,,,,,,,,,,,,,,,,,,,,
,,,,,,,,,,,,,,,,,199846,19,2022-01-25_21h34.31.483,lexical_decision_task_DD_L5,2021.2.3,MacIntel,58.82352941,,,,,,,,,,,,0.526,0,,,,,,,,,,,,,,m,0,0.526,,,,,,,,0.258888889,0.177777778,0,0,0,,0,85,85,4,1,BOXER,LB,old,y,./images/BOXERLB.png,,,,,,,,,,,,,,,,,,,,,
,,,,,,,,,,,,,,,,,199846,19,2022-01-25_21h34.31.483,lexical_decision_task_DD_L5,2021.2.3,MacIntel,58.82352941,,,,,,,,,,,,0.986,0,,,,,,,,,,,,,,z,0,0.986,,,,,,,,0.258888889,0.177777778,0,0,0,,0,86,86,105,1,MOKER,C,old,n,./images/MOKER.png,,,,,,,,,,,,,,,,,,,,,
,,,,,,,,,,,,,,,,,199846,19,2022-01-25_21h34.31.483,lexical_decision_task_DD_L5,2021.2.3,MacIntel,58.82352941,,,,,,,,,,,,0.69,0,,,,,,,,,,,,,,z,0,0.69,,,,,,,,0.258888889,0.177777778,0,0,0,,0,87,87,92,1,PAIMS,LB,old,n,./images/PAIMSLB.png,,,,,,,,,,,,,,,,,,,,,
,,,,,,,,,,,,,,,,,199846,19,2022-01-25_21h34.31.483,lexical_decision_task_DD_L5,2021.2.3,MacIntel,58.82352941,,,,,,,,,,,,0.993,0,,,,,,,,,,,,,,m,0,0.993,,,,,,,,0.258888889,0.177777778,0,0,0,,0,88,88,21,1,DANCER,HB,old,y,./images/DANCERHB.png,,,,,,,,,,,,,,,,,,,,,
,,,,,,,,,,,,,,,,,199846,19,2022-01-25_21h34.31.483,lexical_decision_task_DD_L5,2021.2.3,MacIntel,58.82352941,,,,,,,,,,,,0.99,0,,,,,,,,,,,,,,z,0,0.99,,,,,,,,0.258888889,0.177777778,0,0,0,,0,89,89,167,1,ZONET,LB,old,n,./images/ZONETLB.png,,,,,,,,,,,,,,,,,,,,,
,,,,,,,,,,,,,,,,,199846,19,2022-01-25_21h34.31.483,lexical_decision_task_DD_L5,2021.2.3,MacIntel,58.82352941,,,,,,,,,,,,1.094,0,,,,,,,,,,,,,,m,0,1.094,,,,,,,,0.258888889,0.177777778,0,0,0,,0,90,90,110,1,CRUNK,LB,old,n,./images/CRUNKLB.png,,,,,,,,,,,,,,,,,,,,,
,,,,,,,,,,,,,,,,,199846,19,2022-01-25_21h34.31.483,lexical_decision_task_DD_L5,2021.2.3,MacIntel,58.82352941,,,,,,,,,,,,0.671,0,,,,,,,,,,,,,,z,0,0.671,,,,,,,,0.258888889,0.177777778,0,0,0,,0,91,91,111,1,HOSSE,C,old,n,./images/HOSSE.png,,,,,,,,,,,,,,,,,,,,,
,,,,,,,,,,,,,,,,,199846,19,2022-01-25_21h34.31.483,lexical_decision_task_DD_L5,2021.2.3,MacIntel,58.82352941,,,,,,,,,,,,0.726,0,,,,,,,,,,,,,,z,0,0.726,,,,,,,,0.258888889,0.177777778,0,0,0,,0,92,92,93,1,SMONE,C,old,n,./images/SMONE.png,,,,,,,,,,,,,,,,,,,,,
,,,,,,,,,,,,,,,,,199846,19,2022-01-25_21h34.31.483,lexical_decision_task_DD_L5,2021.2.3,MacIntel,58.82352941,,,,,,,,,,,,0.654,0,,,,,,,,,,,,,,z,0,0.654,,,,,,,,0.258888889,0.177777778,0,0,0,,0,93,93,89,1,DRIEK,LB,old,n,./images/DRIEKLB.png,,,,,,,,,,,,,,,,,,,,,
,,,,,,,,,,,,,,,,,199846,19,2022-01-25_21h34.31.483,lexical_decision_task_DD_L5,2021.2.3,MacIntel,58.82352941,,,,,,,,,,,,0.615,0,,,,,,,,,,,,,,z,0,0.615,,,,,,,,0.258888889,0.177777778,0,0,0,,0,94,94,138,1,PLICE,C,old,n,./images/PLICE.png,,,,,,,,,,,,,,,,,,,,,
,,,,,,,,,,,,,,,,,199846,19,2022-01-25_21h34.31.483,lexical_decision_task_DD_L5,2021.2.3,MacIntel,58.82352941,,,,,,,,,,,,0.574,0,,,,,,,,,,,,,,m,0,0.574,,,,,,,,0.258888889,0.177777778,0,0,0,,0,95,95,16,1,GRAPE,LB,old,y,./images/GRAPELB.png,,,,,,,,,,,,,,,,,,,,,
,,,,,,,,,,,,,,,,,199846,19,2022-01-25_21h34.31.483,lexical_decision_task_DD_L5,2021.2.3,MacIntel,58.82352941,,,,,,,,,,,,1.112,0,,,,,,,,,,,,,,z,0,1.112,,,,,,,,0.258888889,0.177777778,0,0,0,,0,96,96,151,1,TINKY,HB,old,n,./images/TINKYHB.png,,,,,,,,,,,,,,,,,,,,,
,,,,,,,,,,,,,,,,,199846,19,2022-01-25_21h34.31.483,lexical_decision_task_DD_L5,2021.2.3,MacIntel,58.82352941,,,,,,,,,,,,0.674,0,,,,,,,,,,,,,,z,0,0.674,,,,,,,,0.258888889,0.177777778,0,0,0,,0,97,97,55,1,ALLEY,LB,old,y,./images/ALLEYLB.png,,,,,,,,,,,,,,,,,,,,,
,,,,,,,,,,,,,,,,,199846,19,2022-01-25_21h34.31.483,lexical_decision_task_DD_L5,2021.2.3,MacIntel,58.82352941,,,,,,,,,,,,1.671,0,,,,,,,,,,,,,,z,0,1.671,,,,,,,,0.258888889,0.177777778,0,0,0,,0,98,98,166,1,SHORY,HB,old,n,./images/SHORYHB.png,,,,,,,,,,,,,,,,,,,,,
,,,,,,,,,,,,,,,,,199846,19,2022-01-25_21h34.31.483,lexical_decision_task_DD_L5,2021.2.3,MacIntel,58.82352941,,,,,,,,,,,,1.91,0,,,,,,,,,,,,,,z,0,1.91,,,,,,,,0.258888889,0.177777778,0,0,0,,0,99,99,165,1,TROWN,C,old,n,./images/TROWN.png,,,,,,,,,,,,,,,,,,,,,
,,,,,,,,,,,,,,,,,199846,19,2022-01-25_21h34.31.483,lexical_decision_task_DD_L5,2021.2.3,MacIntel,58.82352941,,,,,,,,,,,,0.777,0,,,,,,,,,,,,,,z,0,0.777,,,,,,,,0.258888889,0.177777778,0,0,0,,0,100,100,136,1,WERVE,HB,old,n,./images/WERVEHB.png,,,,,,,,,,,,,,,,,,,,,
,,,,,,,,,,,,,,,,,199846,19,2022-01-25_21h34.31.483,lexical_decision_task_DD_L5,2021.2.3,MacIntel,58.82352941,,,,,,,,,,,,0.808,0,,,,,,,,,,,,,,m,0,0.808,,,,,,,,0.258888889,0.177777778,0,0,0,,0,101,101,39,1,CANDY,HB,old,y,./images/CANDYHB.png,,,,,,,,,,,,,,,,,,,,,
,,,,,,,,,,,,,,,,,199846,19,2022-01-25_21h34.31.483,lexical_decision_task_DD_L5,2021.2.3,MacIntel,58.82352941,,,,,,,,,,,,0.821,0,,,,,,,,,,,,,,z,0,0.821,,,,,,,,0.258888889,0.177777778,0,0,0,,0,102,102,18,1,PARCEL,HB,old,y,./images/PARCELHB.png,,,,,,,,,,,,,,,,,,,,,
,,,,,,,,,,,,,,,,,199846,19,2022-01-25_21h34.31.483,lexical_decision_task_DD_L5,2021.2.3,MacIntel,58.82352941,,,,,,,,,,,,0.697,0,,,,,,,,,,,,,,z,0,0.697,,,,,,,,0.258888889,0.177777778,0,0,0,,0,103,103,129,1,PRANS,C,old,n,./images/PRANS.png,,,,,,,,,,,,,,,,,,,,,
,,,,,,,,,,,,,,,,,199846,19,2022-01-25_21h34.31.483,lexical_decision_task_DD_L5,2021.2.3,MacIntel,58.82352941,,,,,,,,,,,,2.537,0,,,,,,,,,,,,,,z,0,2.537,,,,,,,,0.258888889,0.177777778,0,0,0,,0,104,104,140,1,DOVET,LB,old,n,./images/DOVETLB.png,,,,,,,,,,,,,,,,,,,,,
,,,,,,,,,,,,,,,,,199846,19,2022-01-25_21h34.31.483,lexical_decision_task_DD_L5,2021.2.3,MacIntel,58.82352941,,,,,,,,,,,,0.644,0,,,,,,,,,,,,,,m,0,0.644,,,,,,,,0.258888889,0.177777778,0,0,0,,0,105,105,71,1,BUBBLE,C,old,y,./images/BUBBLE.png,,,,,,,,,,,,,,,,,,,,,
,,,,,,,,,,,,,,,,,199846,19,2022-01-25_21h34.31.483,lexical_decision_task_DD_L5,2021.2.3,MacIntel,58.82352941,,,,,,,,,,,,1.06,0,,,,,,,,,,,,,,m,0,1.06,,,,,,,,0.258888889,0.177777778,0,0,0,,0,106,106,17,1,PARADE,C,old,y,./images/PARADE.png,,,,,,,,,,,,,,,,,,,,,
,,,,,,,,,,,,,,,,,199846,19,2022-01-25_21h34.31.483,lexical_decision_task_DD_L5,2021.2.3,MacIntel,58.82352941,,,,,,,,,,,,0.829,0,,,,,,,,,,,,,,z,0,0.829,,,,,,,,0.258888889,0.177777778,0,0,0,,0,107,107,123,1,SEDGE,C,old,n,./images/SEDGE.png,,,,,,,,,,,,,,,,,,,,,
,,,,,,,,,,,,,,,,,199846,19,2022-01-25_21h34.31.483,lexical_decision_task_DD_L5,2021.2.3,MacIntel,58.82352941,,,,,,,,,,,,0.887,0,,,,,,,,,,,,,,z,0,0.887,,,,,,,,0.258888889,0.177777778,0,0,0,,0,108,108,163,1,GAMBA,HB,old,n,./images/GAMBAHB.png,,,,,,,,,,,,,,,,,,,,,
,,,,,,,,,,,,,,,,,199846,19,2022-01-25_21h34.31.483,lexical_decision_task_DD_L5,2021.2.3,MacIntel,58.82352941,,,,,,,,,,,,0.728,0,,,,,,,,,,,,,,z,0,0.728,,,,,,,,0.258888889,0.177777778,0,0,0,,0,109,109,99,1,BACKY,C,old,n,./images/BACKY.png,,,,,,,,,,,,,,,,,,,,,
,,,,,,,,,,,,,,,,,199846,19,2022-01-25_21h34.31.483,lexical_decision_task_DD_L5,2021.2.3,MacIntel,58.82352941,,,,,,,,,,,,0.694,0,,,,,,,,,,,,,,z,0,0.694,,,,,,,,0.258888889,0.177777778,0,0,0,,0,110,110,134,1,TROSS,LB,old,n,./images/TROSSLB.png,,,,,,,,,,,,,,,,,,,,,
,,,,,,,,,,,,,,,,,199846,19,2022-01-25_21h34.31.483,lexical_decision_task_DD_L5,2021.2.3,MacIntel,58.82352941,,,,,,,,,,,,1.196,0,,,,,,,,,,,,,,m,0,1.196,,,,,,,,0.258888889,0.177777778,0,0,0,,0,111,111,38,1,ENGINE,C,old,y,./images/ENGINE.png,,,,,,,,,,,,,,,,,,,,,
,,,,,,,,,,,,,,,,,199846,19,2022-01-25_21h34.31.483,lexical_decision_task_DD_L5,2021.2.3,MacIntel,58.82352941,,,,,,,,,,,,0.744,0,,,,,,,,,,,,,,z,0,0.744,,,,,,,,0.258888889,0.177777778,0,0,0,,0,112,112,149,1,VEASE,LB,old,n,./images/VEASELB.png,,,,,,,,,,,,,,,,,,,,,
,,,,,,,,,,,,,,,,,199846,19,2022-01-25_21h34.31.483,lexical_decision_task_DD_L5,2021.2.3,MacIntel,58.82352941,,,,,,,,,,,,0.908,0,,,,,,,,,,,,,,z,0,0.908,,,,,,,,0.258888889,0.177777778,0,0,0,,0,113,113,127,1,NINDY,HB,old,n,./images/NINDYHB.png,,,,,,,,,,,,,,,,,,,,,
,,,,,,,,,,,,,,,,,199846,19,2022-01-25_21h34.31.483,lexical_decision_task_DD_L5,2021.2.3,MacIntel,58.82352941,,,,,,,,,,,,0.554,0,,,,,,,,,,,,,,m,0,0.554,,,,,,,,0.258888889,0.177777778,0,0,0,,0,114,114,1,1,TOWEL,LB,old,y,./images/TOWELLB.png,,,,,,,,,,,,,,,,,,,,,
,,,,,,,,,,,,,,,,,199846,19,2022-01-25_21h34.31.483,lexical_decision_task_DD_L5,2021.2.3,MacIntel,58.82352941,,,,,,,,,,,,0.629,0,,,,,,,,,,,,,,z,0,0.629,,,,,,,,0.258888889,0.177777778,0,0,0,,0,115,115,125,1,MOOKY,LB,old,n,./images/MOOKYLB.png,,,,,,,,,,,,,,,,,,,,,
,,,,,,,,,,,,,,,,,199846,19,2022-01-25_21h34.31.483,lexical_decision_task_DD_L5,2021.2.3,MacIntel,58.82352941,,,,,,,,,,,,0.642,0,,,,,,,,,,,,,,z,0,0.642,,,,,,,,0.258888889,0.177777778,0,0,0,,0,116,116,156,1,HIXES,C,old,n,./images/HIXES.png,,,,,,,,,,,,,,,,,,,,,
,,,,,,,,,,,,,,,,,199846,19,2022-01-25_21h34.31.483,lexical_decision_task_DD_L5,2021.2.3,MacIntel,58.82352941,,,,,,,,,,,,0.564,0,,,,,,,,,,,,,,m,0,0.564,,,,,,,,0.258888889,0.177777778,0,0,0,,0,117,117,64,1,BRIDE,LB,old,y,./images/BRIDELB.png,,,,,,,,,,,,,,,,,,,,,
,,,,,,,,,,,,,,,,,199846,19,2022-01-25_21h34.31.483,lexical_decision_task_DD_L5,2021.2.3,MacIntel,58.82352941,,,,,,,,,,,,0.504,0,,,,,,,,,,,,,,m,0,0.504,,,,,,,,0.258888889,0.177777778,0,0,0,,0,118,118,23,1,CLOTH,C,old,y,./images/CLOTH.png,,,,,,,,,,,,,,,,,,,,,
,,,,,,,,,,,,,,,,,199846,19,2022-01-25_21h34.31.483,lexical_decision_task_DD_L5,2021.2.3,MacIntel,58.82352941,,,,,,,,,,,,0.436,0,,,,,,,,,,,,,,m,0,0.436,,,,,,,,0.258888889,0.177777778,0,0,0,,0,119,119,31,1,STEAK,LB,old,y,./images/STEAKLB.png,,,,,,,,,,,,,,,,,,,,,
,,,,,,,,,,,,,,,,,199846,19,2022-01-25_21h34.31.483,lexical_decision_task_DD_L5,2021.2.3,MacIntel,58.82352941,,,,,,,,,,,,1.853,0,,,,,,,,,,,,,,m,0,1.853,,,,,,,,0.258888889,0.177777778,0,0,0,,0,120,120,3,1,CRATER,HB,old,y,./images/CRATERHB.png,,,,,,,,,,,,,,,,,,,,,
,,,,,,,,,,,,,,,,,199846,19,2022-01-25_21h34.31.483,lexical_decision_task_DD_L5,2021.2.3,MacIntel,58.82352941,,,,,,,,,,,,0.612,0,,,,,,,,,,,,,,z,0,0.612,,,,,,,,0.258888889,0.177777778,0,0,0,,0,121,121,146,1,MOOST,LB,old,n,./images/MOOSTLB.png,,,,,,,,,,,,,,,,,,,,,
,,,,,,,,,,,,,,,,,199846,19,2022-01-25_21h34.31.483,lexical_decision_task_DD_L5,2021.2.3,MacIntel,58.82352941,,,,,,,,,,,,0.564,0,,,,,,,,,,,,,,z,0,0.564,,,,,,,,0.258888889,0.177777778,0,0,0,,0,122,122,164,1,SGREW,LB,old,n,./images/SGREWLB.png,,,,,,,,,,,,,,,,,,,,,
,,,,,,,,,,,,,,,,,199846,19,2022-01-25_21h34.31.483,lexical_decision_task_DD_L5,2021.2.3,MacIntel,58.82352941,,,,,,,,,,,,2.183,0,,,,,,,,,,,,,,z,0,2.183,,,,,,,,0.258888889,0.177777778,0,0,0,,0,123,123,157,1,INLER,HB,old,n,./images/INLERHB.png,,,,,,,,,,,,,,,,,,,,,
,,,,,,,,,,,,,,,,,199846,19,2022-01-25_21h34.31.483,lexical_decision_task_DD_L5,2021.2.3,MacIntel,58.82352941,,,,,,,,,,,,0.805,0,,,,,,,,,,,,,,m,0,0.805,,,,,,,,0.258888889,0.177777778,0,0,0,,0,124,124,9,1,DIVER,HB,old,y,./images/DIVERHB.png,,,,,,,,,,,,,,,,,,,,,
,,,,,,,,,,,,,,,,,199846,19,2022-01-25_21h34.31.483,lexical_decision_task_DD_L5,2021.2.3,MacIntel,58.82352941,,,,,,,,,,,,0.605,0,,,,,,,,,,,,,,z,0,0.605,,,,,,,,0.262222222,0.177777778,0,0,0,space,0,125,125,86,1,AIFED,LB,old,n,./images/AIFEDLB.png,1.629,,,,,,,,,,,,,,,,,,,,
,,,,,,,,,,,,,,,,,199846,19,2022-01-25_21h34.31.483,lexical_decision_task_DD_L5,2021.2.3,MacIntel,58.82352941,,,,,,,,,,,,0.905,0,,,,,,,,,,,,,,m,0,0.905,,,,,,,,0.26,0.178888889,0,0,0,,0,126,126,77,1,WHEEL,C,old,y,./images/WHEEL.png,,,,,,,,,,,,,,,,,,,,,
,,,,,,,,,,,,,,,,,199846,19,2022-01-25_21h34.31.483,lexical_decision_task_DD_L5,2021.2.3,MacIntel,58.82352941,,,,,,,,,,,,0.727,0,,,,,,,,,,,,,,m,0,0.727,,,,,,,,0.26,0.178888889,0,0,0,,0,127,127,72,1,FLASK,HB,old,y,./images/FLASKHB.png,,,,,,,,,,,,,,,,,,,,,
,,,,,,,,,,,,,,,,,199846,19,2022-01-25_21h34.31.483,lexical_decision_task_DD_L5,2021.2.3,MacIntel,58.82352941,,,,,,,,,,,,0.704,0,,,,,,,,,,,,,,z,0,0.704,,,,,,,,0.26,0.178888889,0,0,0,,0,128,128,113,1,LINEW,LB,old,n,./images/LINEWLB.png,,,,,,,,,,,,,,,,,,,,,
,,,,,,,,,,,,,,,,,199846,19,2022-01-25_21h34.31.483,lexical_decision_task_DD_L5,2021.2.3,MacIntel,58.82352941,,,,,,,,,,,,0.546,0,,,,,,,,,,,,,,m,0,0.546,,,,,,,,0.26,0.178888889,0,0,0,,0,129,129,26,1,CLOUD,C,old,y,./images/CLOUD.png,,,,,,,,,,,,,,,,,,,,,
,,,,,,,,,,,,,,,,,199846,19,2022-01-25_21h34.31.483,lexical_decision_task_DD_L5,2021.2.3,MacIntel,58.82352941,,,,,,,,,,,,0.726,0,,,,,,,,,,,,,,z,0,0.726,,,,,,,,0.26,0.178888889,0,0,0,,0,130,130,116,1,BALGY,LB,old,n,./images/BALGYLB.png,,,,,,,,,,,,,,,,,,,,,
,,,,,,,,,,,,,,,,,199846,19,2022-01-25_21h34.31.483,lexical_decision_task_DD_L5,2021.2.3,MacIntel,58.82352941,,,,,,,,,,,,1.587,0,,,,,,,,,,,,,,z,0,1.587,,,,,,,,0.26,0.178888889,0,0,0,,0,131,131,115,1,MAWNS,HB,old,n,./images/MAWNSHB.png,,,,,,,,,,,,,,,,,,,,,
,,,,,,,,,,,,,,,,,199846,19,2022-01-25_21h34.31.483,lexical_decision_task_DD_L5,2021.2.3,MacIntel,58.82352941,,,,,,,,,,,,0.972,0,,,,,,,,,,,,,,m,0,0.972,,,,,,,,0.26,0.178888889,0,0,0,,0,132,132,45,1,MONKEY,HB,old,y,./images/MONKEYHB.png,,,,,,,,,,,,,,,,,,,,,
,,,,,,,,,,,,,,,,,199846,19,2022-01-25_21h34.31.483,lexical_decision_task_DD_L5,2021.2.3,MacIntel,58.82352941,,,,,,,,,,,,0.676,0,,,,,,,,,,,,,,z,0,0.676,,,,,,,,0.26,0.178888889,0,0,0,,0,133,133,152,1,FRAIN,LB,old,n,./images/FRAINLB.png,,,,,,,,,,,,,,,,,,,,,
,,,,,,,,,,,,,,,,,199846,19,2022-01-25_21h34.31.483,lexical_decision_task_DD_L5,2021.2.3,MacIntel,58.82352941,,,,,,,,,,,,0.712,0,,,,,,,,,,,,,,z,0,0.712,,,,,,,,0.26,0.178888889,0,0,0,,0,134,134,87,1,TRING,C,old,n,./images/TRING.png,,,,,,,,,,,,,,,,,,,,,
,,,,,,,,,,,,,,,,,199846,19,2022-01-25_21h34.31.483,lexical_decision_task_DD_L5,2021.2.3,MacIntel,58.82352941,,,,,,,,,,,,0.67,0,,,,,,,,,,,,,,m,0,0.67,,,,,,,,0.26,0.178888889,0,0,0,,0,135,135,54,1,CHERRY,HB,old,y,./images/CHERRYHB.png,,,,,,,,,,,,,,,,,,,,,
,,,,,,,,,,,,,,,,,199846,19,2022-01-25_21h34.31.483,lexical_decision_task_DD_L5,2021.2.3,MacIntel,58.82352941,,,,,,,,,,,,0.578,0,,,,,,,,,,,,,,z,0,0.578,,,,,,,,0.261111111,0.178888889,0,0,0,,0,136,136,117,1,STEEG,C,old,n,./images/STEEG.png,,,,,,,,,,,,,,,,,,,,,
,,,,,,,,,,,,,,,,,199846,19,2022-01-25_21h34.31.483,lexical_decision_task_DD_L5,2021.2.3,MacIntel,58.82352941,,,,,,,,,,,,1.303,0,,,,,,,,,,,,,,z,0,1.303,,,,,,,,0.261111111,0.178888889,0,0,0,,0,137,137,118,1,BAVEL,HB,old,n,./images/BAVELHB.png,,,,,,,,,,,,,,,,,,,,,
,,,,,,,,,,,,,,,,,199846,19,2022-01-25_21h34.31.483,lexical_decision_task_DD_L5,2021.2.3,MacIntel,58.82352941,,,,,,,,,,,,0.575,0,,,,,,,,,,,,,,m,0,0.575,,,,,,,,0.261111111,0.178888889,0,0,0,,0,138,138,50,1,PILOT,C,old,y,./images/PILOT.png,,,,,,,,,,,,,,,,,,,,,
,,,,,,,,,,,,,,,,,199846,19,2022-01-25_21h34.31.483,lexical_decision_task_DD_L5,2021.2.3,MacIntel,58.82352941,,,,,,,,,,,,0.619,0,,,,,,,,,,,,,,m,0,0.619,,,,,,,,0.261111111,0.178888889,0,0,0,,0,139,139,5,1,BAMBOO,C,old,y,./images/BAMBOO.png,,,,,,,,,,,,,,,,,,,,,
,,,,,,,,,,,,,,,,,199846,19,2022-01-25_21h34.31.483,lexical_decision_task_DD_L5,2021.2.3,MacIntel,58.82352941,,,,,,,,,,,,0.609,0,,,,,,,,,,,,,,m,0,0.609,,,,,,,,0.261111111,0.178888889,0,0,0,,0,140,140,29,1,PISTOL,C,old,y,./images/PISTOL.png,,,,,,,,,,,,,,,,,,,,,
,,,,,,,,,,,,,,,,,199846,19,2022-01-25_21h34.31.483,lexical_decision_task_DD_L5,2021.2.3,MacIntel,58.82352941,,,,,,,,,,,,0.487,0,,,,,,,,,,,,,,m,0,0.487,,,,,,,,0.264444444,0.172222222,0,0,0,,0,141,141,8,1,CLIFF,C,old,y,./images/CLIFF.png,,,,,,,,,,,,,,,,,,,,,
,,,,,,,,,,,,,,,,,199846,19,2022-01-25_21h34.31.483,lexical_decision_task_DD_L5,2021.2.3,MacIntel,58.82352941,,,,,,,,,,,,0.637,0,,,,,,,,,,,,,,m,0,0.637,,,,,,,,0.264444444,0.172222222,0,0,0,,0,142,142,68,1,VALLEY,C,old,y,./images/VALLEY.png,,,,,,,,,,,,,,,,,,,,,
,,,,,,,,,,,,,,,,,199846,19,2022-01-25_21h34.31.483,lexical_decision_task_DD_L5,2021.2.3,MacIntel,58.82352941,,,,,,,,,,,,0.871,0,,,,,,,,,,,,,,z,0,0.871,,,,,,,,0.264444444,0.172222222,0,0,0,,0,143,143,101,1,GLEET,LB,old,n,./images/GLEETLB.png,,,,,,,,,,,,,,,,,,,,,
,,,,,,,,,,,,,,,,,199846,19,2022-01-25_21h34.31.483,lexical_decision_task_DD_L5,2021.2.3,MacIntel,58.82352941,,,,,,,,,,,,0.697,0,,,,,,,,,,,,,,m,0,0.697,,,,,,,,0.264444444,0.172222222,0,0,0,,0,144,144,14,1,FENCE,C,old,y,./images/FENCE.png,,,,,,,,,,,,,,,,,,,,,
,,,,,,,,,,,,,,,,,199846,19,2022-01-25_21h34.31.483,lexical_decision_task_DD_L5,2021.2.3,MacIntel,58.82352941,,,,,,,,,,,,0.694,0,,,,,,,,,,,,,,z,0,0.694,,,,,,,,0.264444444,0.172222222,0,0,0,,0,145,145,90,1,NEAST,C,old,n,./images/NEAST.png,,,,,,,,,,,,,,,,,,,,,
,,,,,,,,,,,,,,,,,199846,19,2022-01-25_21h34.31.483,lexical_decision_task_DD_L5,2021.2.3,MacIntel,58.82352941,,,,,,,,,,,,0.538,0,,,,,,,,,,,,,,m,0,0.538,,,,,,,,0.264444444,0.172222222,0,0,0,,0,146,146,6,1,STAIN,HB,old,y,./images/STAINHB.png,,,,,,,,,,,,,,,,,,,,,
,,,,,,,,,,,,,,,,,199846,19,2022-01-25_21h34.31.483,lexical_decision_task_DD_L5,2021.2.3,MacIntel,58.82352941,,,,,,,,,,,,1.121,0,,,,,,,,,,,,,,z,0,1.121,,,,,,,,0.264444444,0.172222222,0,0,0,,0,147,147,109,1,BURGE,HB,old,n,./images/BURGEHB.png,,,,,,,,,,,,,,,,,,,,,
,,,,,,,,,,,,,,,,,199846,19,2022-01-25_21h34.31.483,lexical_decision_task_DD_L5,2021.2.3,MacIntel,58.82352941,,,,,,,,,,,,0.549,0,,,,,,,,,,,,,,m,0,0.549,,,,,,,,0.264444444,0.172222222,0,0,0,,0,148,148,53,1,POSTER,C,old,y,./images/POSTER.png,,,,,,,,,,,,,,,,,,,,,
,,,,,,,,,,,,,,,,,199846,19,2022-01-25_21h34.31.483,lexical_decision_task_DD_L5,2021.2.3,MacIntel,58.82352941,,,,,,,,,,,,0.565,0,,,,,,,,,,,,,,m,0,0.565,,,,,,,,0.264444444,0.172222222,0,0,0,,0,149,149,41,1,STREAM,C,old,y,./images/STREAM.png,,,,,,,,,,,,,,,,,,,,,
,,,,,,,,,,,,,,,,,199846,19,2022-01-25_21h34.31.483,lexical_decision_task_DD_L5,2021.2.3,MacIntel,58.82352941,,,,,,,,,,,,0.54,0,,,,,,,,,,,,,,m,0,0.54,,,,,,,,0.264444444,0.172222222,0,0,0,,0,150,150,7,1,WAGON,LB,old,y,./images/WAGONLB.png,,,,,,,,,,,,,,,,,,,,,
,,,,,,,,,,,,,,,,,199846,19,2022-01-25_21h34.31.483,lexical_decision_task_DD_L5,2021.2.3,MacIntel,58.82352941,,,,,,,,,,,,0.487,0,,,,,,,,,,,,,,m,0,0.487,,,,,,,,0.264444444,0.172222222,0,0,0,,0,151,151,22,1,CLOWN,LB,old,y,./images/CLOWNLB.png,,,,,,,,,,,,,,,,,,,,,
,,,,,,,,,,,,,,,,,199846,19,2022-01-25_21h34.31.483,lexical_decision_task_DD_L5,2021.2.3,MacIntel,58.82352941,,,,,,,,,,,,0.819,0,,,,,,,,,,,,,,m,0,0.819,,,,,,,,0.264444444,0.172222222,0,0,0,,0,152,152,2,1,STOVE,C,old,y,./images/STOVE.png,,,,,,,,,,,,,,,,,,,,,
,,,,,,,,,,,,,,,,,199846,19,2022-01-25_21h34.31.483,lexical_decision_task_DD_L5,2021.2.3,MacIntel,58.82352941,,,,,,,,,,,,0.812,0,,,,,,,,,,,,,,z,0,0.812,,,,,,,,0.264444444,0.172222222,0,0,0,,0,153,153,114,1,RIKES,C,old,n,./images/RIKES.png,,,,,,,,,,,,,,,,,,,,,
,,,,,,,,,,,,,,,,,199846,19,2022-01-25_21h34.31.483,lexical_decision_task_DD_L5,2021.2.3,MacIntel,58.82352941,,,,,,,,,,,,0.688,0,,,,,,,,,,,,,,m,0,0.688,,,,,,,,0.264444444,0.172222222,0,0,0,,0,154,154,57,1,FERRY,HB,old,y,./images/FERRYHB.png,,,,,,,,,,,,,,,,,,,,,
,,,,,,,,,,,,,,,,,199846,19,2022-01-25_21h34.31.483,lexical_decision_task_DD_L5,2021.2.3,MacIntel,58.82352941,,,,,,,,,,,,0.726,0,,,,,,,,,,,,,,z,0,0.726,,,,,,,,0.264444444,0.172222222,0,0,0,,0,155,155,160,1,VEETS,HB,old,n,./images/VEETSHB.png,,,,,,,,,,,,,,,,,,,,,
,,,,,,,,,,,,,,,,,199846,19,2022-01-25_21h34.31.483,lexical_decision_task_DD_L5,2021.2.3,MacIntel,58.82352941,,,,,,,,,,,,0.506,0,,,,,,,,,,,,,,m,0,0.506,,,,,,,,0.264444444,0.172222222,0,0,0,,0,156,156,40,1,SNAKE,LB,old,y,./images/SNAKELB.png,,,,,,,,,,,,,,,,,,,,,
,,,,,,,,,,,,,,,,,199846,19,2022-01-25_21h34.31.483,lexical_decision_task_DD_L5,2021.2.3,MacIntel,58.82352941,,,,,,,,,,,,0.511,0,,,,,,,,,,,,,,m,0,0.511,,,,,,,,0.264444444,0.172222222,0,0,0,,0,157,157,13,1,BUNNY,LB,old,y,./images/BUNNYLB.png,,,,,,,,,,,,,,,,,,,,,
,,,,,,,,,,,,,,,,,199846,19,2022-01-25_21h34.31.483,lexical_decision_task_DD_L5,2021.2.3,MacIntel,58.82352941,,,,,,,,,,,,0.372,0,,,,,,,,,,,,,,m,0,0.372,,,,,,,,0.264444444,0.172222222,0,0,0,,0,158,158,162,1,LEICH,C,old,n,./images/LEICH.png,,,,,,,,,,,,,,,,,,,,,
,,,,,,,,,,,,,,,,,199846,19,2022-01-25_21h34.31.483,lexical_decision_task_DD_L5,2021.2.3,MacIntel,58.82352941,,,,,,,,,,,,0.652,0,,,,,,,,,,,,,,m,0,0.652,,,,,,,,0.264444444,0.172222222,0,0,0,,0,159,159,44,1,BASKET,C,old,y,./images/BASKET.png,,,,,,,,,,,,,,,,,,,,,
,,,,,,,,,,,,,,,,,199846,19,2022-01-25_21h34.31.483,lexical_decision_task_DD_L5,2021.2.3,MacIntel,58.82352941,,,,,,,,,,,,0.738,0,,,,,,,,,,,,,,z,0,0.738,,,,,,,,0.264444444,0.172222222,0,0,0,,0,160,160,108,1,GRUET,C,old,n,./images/GRUET.png,,,,,,,,,,,,,,,,,,,,,
,,,,,,,,,,,,,,,,,199846,19,2022-01-25_21h34.31.483,lexical_decision_task_DD_L5,2021.2.3,MacIntel,58.82352941,,,,,,,,,,,,0.543,0,,,,,,,,,,,,,,m,0,0.543,,,,,,,,0.264444444,0.172222222,0,0,0,,0,161,161,73,1,GLOVE,LB,old,y,./images/GLOVELB.png,,,,,,,,,,,,,,,,,,,,,
,,,,,,,,,,,,,,,,,199846,19,2022-01-25_21h34.31.483,lexical_decision_task_DD_L5,2021.2.3,MacIntel,58.82352941,,,,,,,,,,,,0.794,0,,,,,,,,,,,,,,z,0,0.794,,,,,,,,0.264444444,0.172222222,0,0,0,,0,162,162,103,1,FLORT,HB,old,n,./images/FLORTHB.png,,,,,,,,,,,,,,,,,,,,,
,,,,,,,,,,,,,,,,,199846,19,2022-01-25_21h34.31.483,lexical_decision_task_DD_L5,2021.2.3,MacIntel,58.82352941,,,,,,,,,,,,1.126,0,,,,,,,,,,,,,,z,0,1.126,,,,,,,,0.264444444,0.172222222,0,0,0,,0,163,163,119,1,PAFER,LB,old,n,./images/PAFERLB.png,,,,,,,,,,,,,,,,,,,,,
,,,,,,,,,,,,,,,,,199846,19,2022-01-25_21h34.31.483,lexical_decision_task_DD_L5,2021.2.3,MacIntel,58.82352941,,,,,,,,,,,,0.694,0,,,,,,,,,,,,,,z,0,0.694,,,,,,,,0.264444444,0.172222222,0,0,0,,0,164,164,130,1,CRILL,HB,old,n,./images/CRILLHB.png,,,,,,,,,,,,,,,,,,,,,
,,,,,,,,,,,,,,,,,199846,19,2022-01-25_21h34.31.483,lexical_decision_task_DD_L5,2021.2.3,MacIntel,58.82352941,,,,,,,,,,,,0.853,0,,,,,,,,,,,,,,m,0,0.853,,,,,,,,0.264444444,0.172222222,0,0,0,,0,165,165,32,1,HOCKEY,C,old,y,./images/HOCKEY.png,,,,,,,,,,,,,,,,,,,,,
,,,,,,,,,,,,,,,,,199846,19,2022-01-25_21h34.31.483,lexical_decision_task_DD_L5,2021.2.3,MacIntel,58.82352941,,,,,,,,,,,,0.528,0,,,,,,,,,,,,,,m,0,0.528,,,,,,,,0.264444444,0.172222222,0,0,0,,0,166,166,28,1,CASINO,LB,old,y,./images/CASINOLB.png,,,,,,,,,,,,,,,,,,,,,
,,,,,,,,,,,,,,,,,199846,19,2022-01-25_21h34.31.483,lexical_decision_task_DD_L5,2021.2.3,MacIntel,58.82352941,,,,,,,,,,,,0.754,0,,,,,,,,,,,,,,z,0,0.754,,,,,,,,0.264444444,0.172222222,0,0,0,,0,167,167,133,1,POWDY,HB,old,n,./images/POWDYHB.png,,,,,,,,,,,,,,,,,,,,,
space,0.08,-0.068888889,0,0,0,,,,,,,1,test,"In the next phase you will be presented with the words from the the first phase. Your job is to decide whether you remember seeing the word or not. If you remember seeing the word press ""old"" or type ""m"". If you do not remember seeing the word press ""new"" or type ""z"". Please press the space bar or click on continue to begin. ",,,199846,19,2022-01-25_21h34.31.483,lexical_decision_task_DD_L5,2021.2.3,MacIntel,58.82352941,26.897,,,,,,,,,,,,,,,,,,,,,,,,,,,,,,,,,,,,,,,,,,,,,,,,,,,,,0,0,0,0,1,,,,,,,,,,,,,,,
space,0.08,-0.068888889,0,0,0,,,,,,,1,test,"In the next phase you will be presented with the words from the the first phase. Your job is to decide whether you remember seeing the word or not. If you remember seeing the word press ""old"" or type ""m"". If you do not remember seeing the word press ""new"" or type ""z"". Please press the space bar or click on continue to begin. ",,,199846,19,2022-01-25_21h34.31.483,lexical_decision_task_DD_L5,2021.2.3,MacIntel,58.82352941,0.909,,,,,,,,,,,,,,,,,,,,,,,,,,,,,,,,,,,,,,,,,,,,,,,,,,,,,1,0,1,0,1,,,,,,,,,,,,,,,
space,0.08,-0.068888889,0,0,0,,,,,,,1,test,"In the next phase you will be presented with the words from the the first phase. Your job is to decide whether you remember seeing the word or not. If you remember seeing the word press ""old"" or type ""m"". If you do not remember seeing the word press ""new"" or type ""z"". Please press the space bar or click on continue to begin. ",,,199846,19,2022-01-25_21h34.31.483,lexical_decision_task_DD_L5,2021.2.3,MacIntel,58.82352941,4.315,,,,,,,,,,,,,,,,,,,,,,,,,,,,,,,,,,,,,,,,,,,,,,,,,,,,,2,0,2,0,1,,,,,,,,,,,,,,,
,0.004444444,-0.375555556,1,0,0,instr_done_button,,,,,,1,test,"In the next phase you will be presented with the words from the the first phase. Your job is to decide whether you remember seeing the word or not. If you remember seeing the word press ""old"" or type ""m"". If you do not remember seeing the word press ""new"" or type ""z"". Please press the space bar or click on continue to begin. ",,,199846,19,2022-01-25_21h34.31.483,lexical_decision_task_DD_L5,2021.2.3,MacIntel,58.82352941,,,,,,,,,,,,,,,,,,,,,,,,,,,,,,,,,,,,,,,,,,,,,,,,,,,,,,3,0,3,0,1,,,,,,,,,,,,,,,
,-0.007777778,-0.397777778,1,0,0,instr_done_button,,,,,,1,test,"In the next phase you will be presented with the words from the the first phase. Your job is to decide whether you remember seeing the word or not. If you remember seeing the word press ""old"" or type ""m"". If you do not remember seeing the word press ""new"" or type ""z"". Please press the space bar or click on continue to begin. ",,,199846,19,2022-01-25_21h34.31.483,lexical_decision_task_DD_L5,2021.2.3,MacIntel,58.82352941,,,,,,,,,,,,,,,,,,,,,,,,,,,,,,,,,,,,,,,,,,,,,,,,,,,,,,4,0,4,0,1,,,,,,,,,,,,,,,
,,,,,,,,,,,,,,,,,199846,19,2022-01-25_21h34.31.483,lexical_decision_task_DD_L5,2021.2.3,MacIntel,58.82352941,,,,,,,,,,,,1.292,0,,,,,,,,,,,,,,,,,,,,,,,,-0.007777778,-0.397777778,0,0,0,,,,,,,STATUE,HB,old,y,./images/STATUEHB.png,,,,,,,m,0,1.292,,,,,,,,0,0,0,66,1
,,,,,,,,,,,,,,,,,199846,19,2022-01-25_21h34.31.483,lexical_decision_task_DD_L5,2021.2.3,MacIntel,58.82352941,,,,,,,,,,,,0.891,0,,,,,,,,,,,,,,,,,,,,,,,,-0.007777778,-0.397777778,0,0,0,,,,,,,GRAPE,LB,old,y,./images/GRAPELB.png,,,,,,,m,0,0.891,,,,,,,,0,1,1,16,1
,,,,,,,,,,,,,,,,,199846,19,2022-01-25_21h34.31.483,lexical_decision_task_DD_L5,2021.2.3,MacIntel,58.82352941,,,,,,,,,,,,0.556,0,,,,,,,,,,,,,,,,,,,,,,,,-0.007777778,-0.397777778,0,0,0,,,,,,,MONKEY,HB,old,y,./images/MONKEYHB.png,,,,,,,m,0,0.556,,,,,,,,0,2,2,45,1
,,,,,,,,,,,,,,,,,199846,19,2022-01-25_21h34.31.483,lexical_decision_task_DD_L5,2021.2.3,MacIntel,58.82352941,,,,,,,,,,,,0.579,0,,,,,,,,,,,,,,,,,,,,,,,,-0.007777778,-0.397777778,0,0,0,,,,,,,CRATER,HB,old,y,./images/CRATERHB.png,,,,,,,m,0,0.579,,,,,,,,0,3,3,3,1
,,,,,,,,,,,,,,,,,199846,19,2022-01-25_21h34.31.483,lexical_decision_task_DD_L5,2021.2.3,MacIntel,58.82352941,,,,,,,,,,,,0.527,0,,,,,,,,,,,,,,,,,,,,,,,,-0.007777778,-0.397777778,0,0,0,,,,,,,JAGUAR,HB,new,y,./images/JAGUARHB.png,,,,,,,m,0,0.527,,,,,,,,0,4,4,102,1
,,,,,,,,,,,,,,,,,199846,19,2022-01-25_21h34.31.483,lexical_decision_task_DD_L5,2021.2.3,MacIntel,58.82352941,,,,,,,,,,,,0.678,0,,,,,,,,,,,,,,,,,,,,,,,,-0.007777778,-0.397777778,0,0,0,,,,,,,GLOVE,LB,old,y,./images/GLOVELB.png,,,,,,,m,0,0.678,,,,,,,,0,5,5,73,1
,,,,,,,,,,,,,,,,,199846,19,2022-01-25_21h34.31.483,lexical_decision_task_DD_L5,2021.2.3,MacIntel,58.82352941,,,,,,,,,,,,1.217,0,,,,,,,,,,,,,,,,,,,,,,,,-0.007777778,-0.397777778,0,0,0,,,,,,,SHIELD,HB,old,y,./images/SHIELDHB.png,,,,,,,z,0,1.217,,,,,,,,0,6,6,48,1
,,,,,,,,,,,,,,,,,199846,19,2022-01-25_21h34.31.483,lexical_decision_task_DD_L5,2021.2.3,MacIntel,58.82352941,,,,,,,,,,,,0.893,0,,,,,,,,,,,,,,,,,,,,,,,,-0.007777778,-0.397777778,0,0,0,,,,,,,GARDEN,LB,old,y,./images/GARDENLB.png,,,,,,,z,0,0.893,,,,,,,,0,7,7,10,1
,,,,,,,,,,,,,,,,,199846,19,2022-01-25_21h34.31.483,lexical_decision_task_DD_L5,2021.2.3,MacIntel,58.82352941,,,,,,,,,,,,0.686,0,,,,,,,,,,,,,,,,,,,,,,,,-0.007777778,-0.397777778,0,0,0,,,,,,,CANOE,LB,old,y,./images/CANOELB.png,,,,,,,m,0,0.686,,,,,,,,0,8,8,58,1
,,,,,,,,,,,,,,,,,199846,19,2022-01-25_21h34.31.483,lexical_decision_task_DD_L5,2021.2.3,MacIntel,58.82352941,,,,,,,,,,,,1.526,0,,,,,,,,,,,,,,,,,,,,,,,,-0.007777778,-0.397777778,0,0,0,,,,,,,MIRROR,HB,new,y,./images/MIRRORHB.png,,,,,,,z,0,1.526,,,,,,,,0,9,9,147,1
,,,,,,,,,,,,,,,,,199846,19,2022-01-25_21h34.31.483,lexical_decision_task_DD_L5,2021.2.3,MacIntel,58.82352941,,,,,,,,,,,,0.927,0,,,,,,,,,,,,,,,,,,,,,,,,-0.007777778,-0.397777778,0,0,0,,,,,,,JELLY,LB,new,y,./images/JELLYLB.png,,,,,,,z,0,0.927,,,,,,,,0,10,10,148,1
,,,,,,,,,,,,,,,,,199846,19,2022-01-25_21h34.31.483,lexical_decision_task_DD_L5,2021.2.3,MacIntel,58.82352941,,,,,,,,,,,,0.64,0,,,,,,,,,,,,,,,,,,,,,,,,-0.007777778,-0.397777778,0,0,0,,,,,,,BLOKE,HB,old,y,./images/BLOKEHB.png,,,,,,,m,0,0.64,,,,,,,,0,11,11,12,1
,,,,,,,,,,,,,,,,,199846,19,2022-01-25_21h34.31.483,lexical_decision_task_DD_L5,2021.2.3,MacIntel,58.82352941,,,,,,,,,,,,2.171,0,,,,,,,,,,,,,,,,,,,,,,,,-0.007777778,-0.397777778,0,0,0,,,,,,,WEASEL,C,new,y,./images/WEASEL.png,,,,,,,z,0,2.171,,,,,,,,0,12,12,164,1
,,,,,,,,,,,,,,,,,199846,19,2022-01-25_21h34.31.483,lexical_decision_task_DD_L5,2021.2.3,MacIntel,58.82352941,,,,,,,,,,,,0.719,0,,,,,,,,,,,,,,,,,,,,,,,,-0.007777778,-0.397777778,0,0,0,,,,,,,LAGOON,C,old,y,./images/LAGOON.png,,,,,,,z,0,0.719,,,,,,,,0,13,13,47,1
,,,,,,,,,,,,,,,,,199846,19,2022-01-25_21h34.31.483,lexical_decision_task_DD_L5,2021.2.3,MacIntel,58.82352941,,,,,,,,,,,,0.957,0,,,,,,,,,,,,,,,,,,,,,,,,-0.007777778,-0.397777778,0,0,0,,,,,,,PICKLE,C,new,y,./images/PICKLE.png,,,,,,,z,0,0.957,,,,,,,,0,14,14,98,1
,,,,,,,,,,,,,,,,,199846,19,2022-01-25_21h34.31.483,lexical_decision_task_DD_L5,2021.2.3,MacIntel,58.82352941,,,,,,,,,,,,2.41,0,,,,,,,,,,,,,,,,,,,,,,,,-0.007777778,-0.397777778,0,0,0,,,,,,,CHALK,LB,old,y,./images/CHALKLB.png,,,,,,,z,0,2.41,,,,,,,,0,15,15,25,1
,,,,,,,,,,,,,,,,,199846,19,2022-01-25_21h34.31.483,lexical_decision_task_DD_L5,2021.2.3,MacIntel,58.82352941,,,,,,,,,,,,0.953,0,,,,,,,,,,,,,,,,,,,,,,,,-0.007777778,-0.397777778,0,0,0,,,,,,,BOILER,HB,old,y,./images/BOILERHB.png,,,,,,,m,0,0.953,,,,,,,,0,16,16,36,1
,,,,,,,,,,,,,,,,,199846,19,2022-01-25_21h34.31.483,lexical_decision_task_DD_L5,2021.2.3,MacIntel,58.82352941,,,,,,,,,,,,1.038,0,,,,,,,,,,,,,,,,,,,,,,,,-0.007777778,-0.397777778,0,0,0,,,,,,,SWING,LB,new,y,./images/SWINGLB.png,,,,,,,z,0,1.038,,,,,,,,0,17,17,124,1
,,,,,,,,,,,,,,,,,199846,19,2022-01-25_21h34.31.483,lexical_decision_task_DD_L5,2021.2.3,MacIntel,58.82352941,,,,,,,,,,,,0.807,0,,,,,,,,,,,,,,,,,,,,,,,,-0.007777778,-0.397777778,0,0,0,,,,,,,LLAMA,C,old,y,./images/LLAMA.png,,,,,,,m,0,0.807,,,,,,,,0,18,18,35,1
,,,,,,,,,,,,,,,,,199846,19,2022-01-25_21h34.31.483,lexical_decision_task_DD_L5,2021.2.3,MacIntel,58.82352941,,,,,,,,,,,,0.861,0,,,,,,,,,,,,,,,,,,,,,,,,-0.007777778,-0.397777778,0,0,0,,,,,,,SMOKER,C,new,y,./images/SMOKER.png,,,,,,,m,0,0.861,,,,,,,,0,19,19,110,1
,,,,,,,,,,,,,,,,,199846,19,2022-01-25_21h34.31.483,lexical_decision_task_DD_L5,2021.2.3,MacIntel,58.82352941,,,,,,,,,,,,0.887,0,,,,,,,,,,,,,,,,,,,,,,,,-0.007777778,-0.397777778,0,0,0,,,,,,,BUTTER,HB,old,y,./images/BUTTERHB.png,,,,,,,z,0,0.887,,,,,,,,0,20,20,27,1
,,,,,,,,,,,,,,,,,199846,19,2022-01-25_21h34.31.483,lexical_decision_task_DD_L5,2021.2.3,MacIntel,58.82352941,,,,,,,,,,,,1.439,0,,,,,,,,,,,,,,,,,,,,,,,,-0.007777778,-0.397777778,0,0,0,,,,,,,STAIN,HB,old,y,./images/STAINHB.png,,,,,,,m,0,1.439,,,,,,,,0,21,21,6,1
,,,,,,,,,,,,,,,,,199846,19,2022-01-25_21h34.31.483,lexical_decision_task_DD_L5,2021.2.3,MacIntel,58.82352941,,,,,,,,,,,,1.293,0,,,,,,,,,,,,,,,,,,,,,,,,-0.007777778,-0.397777778,0,0,0,,,,,,,VALLEY,C,old,y,./images/VALLEY.png,,,,,,,m,0,1.293,,,,,,,,0,22,22,68,1
,,,,,,,,,,,,,,,,,199846,19,2022-01-25_21h34.31.483,lexical_decision_task_DD_L5,2021.2.3,MacIntel,58.82352941,,,,,,,,,,,,0.779,0,,,,,,,,,,,,,,,,,,,,,,,,-0.007777778,-0.397777778,0,0,0,,,,,,,FOLDER,HB,new,y,./images/FOLDERHB.png,,,,,,,z,0,0.779,,,,,,,,0,23,23,126,1
,,,,,,,,,,,,,,,,,199846,19,2022-01-25_21h34.31.483,lexical_decision_task_DD_L5,2021.2.3,MacIntel,58.82352941,,,,,,,,,,,,0.905,0,,,,,,,,,,,,,,,,,,,,,,,,-0.007777778,-0.397777778,0,0,0,,,,,,,HAMMER,HB,old,y,./images/HAMMERHB.png,,,,,,,m,0,0.905,,,,,,,,0,24,24,75,1
,,,,,,,,,,,,,,,,,199846,19,2022-01-25_21h34.31.483,lexical_decision_task_DD_L5,2021.2.3,MacIntel,58.82352941,,,,,,,,,,,,1.175,0,,,,,,,,,,,,,,,,,,,,,,,,-0.007777778,-0.397777778,0,0,0,,,,,,,POKER,LB,old,y,./images/POKERLB.png,,,,,,,m,0,1.175,,,,,,,,0,25,25,67,1
,,,,,,,,,,,,,,,,,199846,19,2022-01-25_21h34.31.483,lexical_decision_task_DD_L5,2021.2.3,MacIntel,58.82352941,,,,,,,,,,,,1.028,0,,,,,,,,,,,,,,,,,,,,,,,,-0.007777778,-0.397777778,0,0,0,,,,,,,STEAK,LB,old,y,./images/STEAKLB.png,,,,,,,m,0,1.028,,,,,,,,0,26,26,31,1
,,,,,,,,,,,,,,,,,199846,19,2022-01-25_21h34.31.483,lexical_decision_task_DD_L5,2021.2.3,MacIntel,58.82352941,,,,,,,,,,,,0.737,0,,,,,,,,,,,,,,,,,,,,,,,,-0.007777778,-0.398888889,0,0,0,,,,,,,WRIST,LB,new,y,./images/WRISTLB.png,,,,,,,z,0,0.737,,,,,,,,0,27,27,109,1
,,,,,,,,,,,,,,,,,199846,19,2022-01-25_21h34.31.483,lexical_decision_task_DD_L5,2021.2.3,MacIntel,58.82352941,,,,,,,,,,,,0.789,0,,,,,,,,,,,,,,,,,,,,,,,,-0.007777778,-0.398888889,0,0,0,,,,,,,DONKEY,LB,old,y,./images/DONKEYLB.png,,,,,,,m,0,0.789,,,,,,,,0,28,28,19,1
,,,,,,,,,,,,,,,,,199846,19,2022-01-25_21h34.31.483,lexical_decision_task_DD_L5,2021.2.3,MacIntel,58.82352941,,,,,,,,,,,,0.58,0,,,,,,,,,,,,,,,,,,,,,,,,-0.007777778,-0.398888889,0,0,0,,,,,,,FLASK,HB,old,y,./images/FLASKHB.png,,,,,,,m,0,0.58,,,,,,,,0,29,29,72,1
,,,,,,,,,,,,,,,,,199846,19,2022-01-25_21h34.31.483,lexical_decision_task_DD_L5,2021.2.3,MacIntel,58.82352941,,,,,,,,,,,,0.704,0,,,,,,,,,,,,,,,,,,,,,,,,-0.007777778,-0.398888889,0,0,0,,,,,,,SPINE,C,old,y,./images/SPINE.png,,,,,,,m,0,0.704,,,,,,,,0,30,30,65,1
,,,,,,,,,,,,,,,,,199846,19,2022-01-25_21h34.31.483,lexical_decision_task_DD_L5,2021.2.3,MacIntel,58.82352941,,,,,,,,,,,,0.644,0,,,,,,,,,,,,,,,,,,,,,,,,-0.007777778,-0.398888889,0,0,0,,,,,,,SAUNA,HB,old,y,./images/SAUNAHB.png,,,,,,,m,0,0.644,,,,,,,,0,31,31,33,1
,,,,,,,,,,,,,,,,,199846,19,2022-01-25_21h34.31.483,lexical_decision_task_DD_L5,2021.2.3,MacIntel,58.82352941,,,,,,,,,,,,1.026,0,,,,,,,,,,,,,,,,,,,,,,,,-0.007777778,-0.398888889,0,0,0,,,,,,,CHAIN,HB,old,y,./images/CHAINHB.png,,,,,,,m,0,1.026,,,,,,,,0,32,32,42,1
,,,,,,,,,,,,,,,,,199846,19,2022-01-25_21h34.31.483,lexical_decision_task_DD_L5,2021.2.3,MacIntel,58.82352941,,,,,,,,,,,,0.797,0,,,,,,,,,,,,,,,,,,,,,,,,-0.007777778,-0.398888889,0,0,0,,,,,,,TIGER,LB,old,y,./images/TIGERLB.png,,,,,,,m,0,0.797,,,,,,,,0,33,33,37,1
,,,,,,,,,,,,,,,,,199846,19,2022-01-25_21h34.31.483,lexical_decision_task_DD_L5,2021.2.3,MacIntel,58.82352941,,,,,,,,,,,,0.673,0,,,,,,,,,,,,,,,,,,,,,,,,-0.007777778,-0.398888889,0,0,0,,,,,,,DESERT,LB,old,y,./images/DESERTLB.png,,,,,,,m,0,0.673,,,,,,,,0,34,34,52,1
,,,,,,,,,,,,,,,,,199846,19,2022-01-25_21h34.31.483,lexical_decision_task_DD_L5,2021.2.3,MacIntel,58.82352941,,,,,,,,,,,,0.789,0,,,,,,,,,,,,,,,,,,,,,,,,-0.007777778,-0.398888889,0,0,0,,,,,,,STRING,C,new,y,./images/STRING.png,,,,,,,z,0,0.789,,,,,,,,0,35,35,125,1
,,,,,,,,,,,,,,,,,199846,19,2022-01-25_21h34.31.483,lexical_decision_task_DD_L5,2021.2.3,MacIntel,58.82352941,,,,,,,,,,,,0.965,0,,,,,,,,,,,,,,,,,,,,,,,,-0.007777778,-0.398888889,0,0,0,,,,,,,PEARL,LB,new,y,./images/PEARLLB.png,,,,,,,z,0,0.965,,,,,,,,0,36,36,130,1
,,,,,,,,,,,,,,,,,199846,19,2022-01-25_21h34.31.483,lexical_decision_task_DD_L5,2021.2.3,MacIntel,58.82352941,,,,,,,,,,,,0.787,0,,,,,,,,,,,,,,,,,,,,,,,,-0.007777778,-0.398888889,0,0,0,,,,,,,BOXER,LB,old,y,./images/BOXERLB.png,,,,,,,m,0,0.787,,,,,,,,0,37,37,4,1
,,,,,,,,,,,,,,,,,199846,19,2022-01-25_21h34.31.483,lexical_decision_task_DD_L5,2021.2.3,MacIntel,58.82352941,,,,,,,,,,,,0.822,0,,,,,,,,,,,,,,,,,,,,,,,,-0.007777778,-0.398888889,0,0,0,,,,,,,RHINO,HB,new,y,./images/RHINOHB.png,,,,,,,z,0,0.822,,,,,,,,0,38,38,93,1
,,,,,,,,,,,,,,,,,199846,19,2022-01-25_21h34.31.483,lexical_decision_task_DD_L5,2021.2.3,MacIntel,58.82352941,,,,,,,,,,,,0.777,0,,,,,,,,,,,,,,,,,,,,,,,,-0.007777778,-0.398888889,0,0,0,,,,,,,BEARD,C,new,y,./images/BEARD.png,,,,,,,z,0,0.777,,,,,,,,0,39,39,86,1
,,,,,,,,,,,,,,,,,199846,19,2022-01-25_21h34.31.483,lexical_decision_task_DD_L5,2021.2.3,MacIntel,58.82352941,,,,,,,,,,,,1.261,0,,,,,,,,,,,,,,,,,,,,,,,,-0.007777778,-0.398888889,0,0,0,,,,,,,CRUST,LB,new,y,./images/CRUSTLB.png,,,,,,,z,0,1.261,,,,,,,,0,40,40,163,1
,,,,,,,,,,,,,,,,,199846,19,2022-01-25_21h34.31.483,lexical_decision_task_DD_L5,2021.2.3,MacIntel,58.82352941,,,,,,,,,,,,0.668,0,,,,,,,,,,,,,,,,,,,,,,,,-0.007777778,-0.398888889,0,0,0,space,,,,,,TRIPOD,HB,new,y,./images/TRIPODHB.png,0.965,,,,,,z,0,0.668,,,,,,,,0,41,41,138,1
,,,,,,,,,,,,,,,,,199846,19,2022-01-25_21h34.31.483,lexical_decision_task_DD_L5,2021.2.3,MacIntel,58.82352941,,,,,,,,,,,,1.439,0,,,,,,,,,,,,,,,,,,,,,,,,-0.007777778,-0.398888889,0,0,0,,,,,,,STOOL,LB,old,y,./images/STOOLLB.png,,,,,,,z,0,1.439,,,,,,,,0,42,42,43,1
,,,,,,,,,,,,,,,,,199846,19,2022-01-25_21h34.31.483,lexical_decision_task_DD_L5,2021.2.3,MacIntel,58.82352941,,,,,,,,,,,,0.547,0,,,,,,,,,,,,,,,,,,,,,,,,-0.007777778,-0.398888889,0,0,0,,,,,,,BRIDE,LB,old,y,./images/BRIDELB.png,,,,,,,m,0,0.547,,,,,,,,0,43,43,64,1
,,,,,,,,,,,,,,,,,199846,19,2022-01-25_21h34.31.483,lexical_decision_task_DD_L5,2021.2.3,MacIntel,58.82352941,,,,,,,,,,,,0.718,0,,,,,,,,,,,,,,,,,,,,,,,,-0.007777778,-0.398888889,0,0,0,,,,,,,TULIP,C,new,y,./images/TULIP.png,,,,,,,z,0,0.718,,,,,,,,0,44,44,92,1
,,,,,,,,,,,,,,,,,199846,19,2022-01-25_21h34.31.483,lexical_decision_task_DD_L5,2021.2.3,MacIntel,58.82352941,,,,,,,,,,,,1.245,0,,,,,,,,,,,,,,,,,,,,,,,,-0.007777778,-0.398888889,0,0,0,,,,,,,COOKER,HB,new,y,./images/COOKERHB.png,,,,,,,z,0,1.245,,,,,,,,0,45,45,153,1
,,,,,,,,,,,,,,,,,199846,19,2022-01-25_21h34.31.483,lexical_decision_task_DD_L5,2021.2.3,MacIntel,58.82352941,,,,,,,,,,,,0.971,0,,,,,,,,,,,,,,,,,,,,,,,,-0.007777778,-0.398888889,0,0,0,,,,,,,WHEEL,C,old,y,./images/WHEEL.png,,,,,,,m,0,0.971,,,,,,,,0,46,46,77,1
,,,,,,,,,,,,,,,,,199846,19,2022-01-25_21h34.31.483,lexical_decision_task_DD_L5,2021.2.3,MacIntel,58.82352941,,,,,,,,,,,,0.732,0,,,,,,,,,,,,,,,,,,,,,,,,-0.007777778,-0.398888889,0,0,0,,,,,,,CLIFF,C,old,y,./images/CLIFF.png,,,,,,,m,0,0.732,,,,,,,,0,47,47,8,1
,,,,,,,,,,,,,,,,,199846,19,2022-01-25_21h34.31.483,lexical_decision_task_DD_L5,2021.2.3,MacIntel,58.82352941,,,,,,,,,,,,0.686,0,,,,,,,,,,,,,,,,,,,,,,,,-0.007777778,-0.398888889,0,0,0,,,,,,,SAILOR,LB,new,y,./images/SAILORLB.png,,,,,,,z,0,0.686,,,,,,,,0,48,48,151,1
,,,,,,,,,,,,,,,,,199846,19,2022-01-25_21h34.31.483,lexical_decision_task_DD_L5,2021.2.3,MacIntel,58.82352941,,,,,,,,,,,,0.644,0,,,,,,,,,,,,,,,,,,,,,,,,-0.007777778,-0.398888889,0,0,0,,,,,,,PASTA,C,new,y,./images/PASTA.png,,,,,,,z,0,0.644,,,,,,,,0,49,49,89,1
,,,,,,,,,,,,,,,,,199846,19,2022-01-25_21h34.31.483,lexical_decision_task_DD_L5,2021.2.3,MacIntel,58.82352941,,,,,,,,,,,,0.653,0,,,,,,,,,,,,,,,,,,,,,,,,-0.007777778,-0.398888889,0,0,0,,,,,,,MOTOR,LB,new,y,./images/MOTORLB.png,,,,,,,z,0,0.653,,,,,,,,0,50,50,97,1
,,,,,,,,,,,,,,,,,199846,19,2022-01-25_21h34.31.483,lexical_decision_task_DD_L5,2021.2.3,MacIntel,58.82352941,,,,,,,,,,,,0.855,0,,,,,,,,,,,,,,,,,,,,,,,,-0.007777778,-0.398888889,0,0,0,,,,,,,SNACK,LB,new,y,./images/SNACKLB.png,,,,,,,z,0,0.855,,,,,,,,0,51,51,157,1
,,,,,,,,,,,,,,,,,199846,19,2022-01-25_21h34.31.483,lexical_decision_task_DD_L5,2021.2.3,MacIntel,58.82352941,,,,,,,,,,,,0.686,0,,,,,,,,,,,,,,,,,,,,,,,,-0.007777778,-0.398888889,0,0,0,,,,,,,COLLAR,HB,old,y,./images/COLLARHB.png,,,,,,,m,0,0.686,,,,,,,,0,52,52,15,1
,,,,,,,,,,,,,,,,,199846,19,2022-01-25_21h34.31.483,lexical_decision_task_DD_L5,2021.2.3,MacIntel,58.82352941,,,,,,,,,,,,0.711,0,,,,,,,,,,,,,,,,,,,,,,,,-0.007777778,-0.398888889,0,0,0,,,,,,,MEDAL,C,old,y,./images/MEDAL.png,,,,,,,z,0,0.711,,,,,,,,0,53,53,11,1
,,,,,,,,,,,,,,,,,199846,19,2022-01-25_21h34.31.483,lexical_decision_task_DD_L5,2021.2.3,MacIntel,58.82352941,,,,,,,,,,,,0.826,0,,,,,,,,,,,,,,,,,,,,,,,,-0.007777778,-0.398888889,0,0,0,,,,,,,GRAIN,HB,new,y,./images/GRAINHB.png,,,,,,,z,0,0.826,,,,,,,,0,54,54,159,1
,,,,,,,,,,,,,,,,,199846,19,2022-01-25_21h34.31.483,lexical_decision_task_DD_L5,2021.2.3,MacIntel,58.82352941,,,,,,,,,,,,0.726,0,,,,,,,,,,,,,,,,,,,,,,,,-0.007777778,-0.398888889,0,0,0,,,,,,,DOUGH,LB,new,y,./images/DOUGHLB.png,,,,,,,z,0,0.726,,,,,,,,0,55,55,103,1
,,,,,,,,,,,,,,,,,199846,19,2022-01-25_21h34.31.483,lexical_decision_task_DD_L5,2021.2.3,MacIntel,58.82352941,,,,,,,,,,,,0.562,0,,,,,,,,,,,,,,,,,,,,,,,,-0.007777778,-0.398888889,0,0,0,,,,,,,CRUMB,C,new,y,./images/CRUMB.png,,,,,,,m,0,0.562,,,,,,,,0,56,56,113,1
,,,,,,,,,,,,,,,,,199846,19,2022-01-25_21h34.31.483,lexical_decision_task_DD_L5,2021.2.3,MacIntel,58.82352941,,,,,,,,,,,,0.772,0,,,,,,,,,,,,,,,,,,,,,,,,-0.007777778,-0.398888889,0,0,0,,,,,,,RAZOR,LB,old,y,./images/RAZORLB.png,,,,,,,z,0,0.772,,,,,,,,0,57,57,34,1
,,,,,,,,,,,,,,,,,199846,19,2022-01-25_21h34.31.483,lexical_decision_task_DD_L5,2021.2.3,MacIntel,58.82352941,,,,,,,,,,,,0.632,0,,,,,,,,,,,,,,,,,,,,,,,,-0.007777778,-0.398888889,0,0,0,,,,,,,CRADLE,C,new,y,./images/CRADLE.png,,,,,,,m,0,0.632,,,,,,,,0,58,58,104,1
,,,,,,,,,,,,,,,,,199846,19,2022-01-25_21h34.31.483,lexical_decision_task_DD_L5,2021.2.3,MacIntel,58.82352941,,,,,,,,,,,,0.836,0,,,,,,,,,,,,,,,,,,,,,,,,-0.007777778,-0.398888889,0,0,0,,,,,,,BARREL,C,new,y,./images/BARREL.png,,,,,,,m,0,0.836,,,,,,,,0,59,59,116,1
,,,,,,,,,,,,,,,,,199846,19,2022-01-25_21h34.31.483,lexical_decision_task_DD_L5,2021.2.3,MacIntel,58.82352941,,,,,,,,,,,,1.713,0,,,,,,,,,,,,,,,,,,,,,,,,-0.007777778,-0.398888889,0,0,0,,,,,,,URINE,LB,new,y,./images/URINELB.png,,,,,,,z,0,1.713,,,,,,,,0,60,60,154,1
,,,,,,,,,,,,,,,,,199846,19,2022-01-25_21h34.31.483,lexical_decision_task_DD_L5,2021.2.3,MacIntel,58.82352941,,,,,,,,,,,,0.622,0,,,,,,,,,,,,,,,,,,,,,,,,-0.007777778,-0.398888889,0,0,0,,,,,,,CURRY,HB,old,y,./images/CURRYHB.png,,,,,,,m,0,0.622,,,,,,,,0,61,61,60,1
,,,,,,,,,,,,,,,,,199846,19,2022-01-25_21h34.31.483,lexical_decision_task_DD_L5,2021.2.3,MacIntel,58.82352941,,,,,,,,,,,,0.704,0,,,,,,,,,,,,,,,,,,,,,,,,-0.007777778,-0.398888889,0,0,0,,,,,,,KIDNEY,HB,new,y,./images/KIDNEYHB.png,,,,,,,z,0,0.704,,,,,,,,0,62,62,105,1
,,,,,,,,,,,,,,,,,199846,19,2022-01-25_21h34.31.483,lexical_decision_task_DD_L5,2021.2.3,MacIntel,58.82352941,,,,,,,,,,,,1.753,0,,,,,,,,,,,,,,,,,,,,,,,,-0.007777778,-0.398888889,0,0,0,,,,,,,STREAM,C,old,y,./images/STREAM.png,,,,,,,z,0,1.753,,,,,,,,0,63,63,41,1
,,,,,,,,,,,,,,,,,199846,19,2022-01-25_21h34.31.483,lexical_decision_task_DD_L5,2021.2.3,MacIntel,58.82352941,,,,,,,,,,,,0.79,0,,,,,,,,,,,,,,,,,,,,,,,,-0.007777778,-0.398888889,0,0,0,,,,,,,SCREW,HB,new,y,./images/SCREWHB.png,,,,,,,m,0,0.79,,,,,,,,0,64,64,108,1
,,,,,,,,,,,,,,,,,199846,19,2022-01-25_21h34.31.483,lexical_decision_task_DD_L5,2021.2.3,MacIntel,58.82352941,,,,,,,,,,,,0.72,0,,,,,,,,,,,,,,,,,,,,,,,,-0.007777778,-0.398888889,0,0,0,,,,,,,NOOSE,HB,new,y,./images/NOOSEHB.png,,,,,,,z,0,0.72,,,,,,,,0,65,65,156,1
,,,,,,,,,,,,,,,,,199846,19,2022-01-25_21h34.31.483,lexical_decision_task_DD_L5,2021.2.3,MacIntel,58.82352941,,,,,,,,,,,,1.257,0,,,,,,,,,,,,,,,,,,,,,,,,-0.007777778,-0.398888889,0,0,0,,,,,,,CLOUD,C,old,y,./images/CLOUD.png,,,,,,,z,0,1.257,,,,,,,,0,66,66,26,1
,,,,,,,,,,,,,,,,,199846,19,2022-01-25_21h34.31.483,lexical_decision_task_DD_L5,2021.2.3,MacIntel,58.82352941,,,,,,,,,,,,1.697,0,,,,,,,,,,,,,,,,,,,,,,,,-0.007777778,-0.398888889,0,0,0,,,,,,,LADDER,C,new,y,./images/LADDER.png,,,,,,,m,0,1.697,,,,,,,,0,67,67,122,1
,,,,,,,,,,,,,,,,,199846,19,2022-01-25_21h34.31.483,lexical_decision_task_DD_L5,2021.2.3,MacIntel,58.82352941,,,,,,,,,,,,0.745,0,,,,,,,,,,,,,,,,,,,,,,,,-0.007777778,-0.398888889,0,0,0,,,,,,,FERRY,HB,old,y,./images/FERRYHB.png,,,,,,,m,0,0.745,,,,,,,,0,68,68,57,1
,,,,,,,,,,,,,,,,,199846,19,2022-01-25_21h34.31.483,lexical_decision_task_DD_L5,2021.2.3,MacIntel,58.82352941,,,,,,,,,,,,0.622,0,,,,,,,,,,,,,,,,,,,,,,,,-0.007777778,-0.398888889,0,0,0,,,,,,,ARROW,HB,old,y,./images/ARROWHB.png,,,,,,,m,0,0.622,,,,,,,,0,69,69,69,1
,,,,,,,,,,,,,,,,,199846,19,2022-01-25_21h34.31.483,lexical_decision_task_DD_L5,2021.2.3,MacIntel,58.82352941,,,,,,,,,,,,0.704,0,,,,,,,,,,,,,,,,,,,,,,,,-0.007777778,-0.398888889,0,0,0,,,,,,,PISTOL,C,old,y,./images/PISTOL.png,,,,,,,m,0,0.704,,,,,,,,0,70,70,29,1
,,,,,,,,,,,,,,,,,199846,19,2022-01-25_21h34.31.483,lexical_decision_task_DD_L5,2021.2.3,MacIntel,58.82352941,,,,,,,,,,,,0.747,0,,,,,,,,,,,,,,,,,,,,,,,,-0.007777778,-0.398888889,0,0,0,,,,,,,FARMER,C,new,y,./images/FARMER.png,,,,,,,m,0,0.747,,,,,,,,0,71,71,149,1
,,,,,,,,,,,,,,,,,199846,19,2022-01-25_21h34.31.483,lexical_decision_task_DD_L5,2021.2.3,MacIntel,58.82352941,,,,,,,,,,,,0.72,0,,,,,,,,,,,,,,,,,,,,,,,,-0.007777778,-0.398888889,0,0,0,,,,,,,CARPET,C,new,y,./images/CARPET.png,,,,,,,z,0,0.72,,,,,,,,0,72,72,137,1
,,,,,,,,,,,,,,,,,199846,19,2022-01-25_21h34.31.483,lexical_decision_task_DD_L5,2021.2.3,MacIntel,58.82352941,,,,,,,,,,,,0.936,0,,,,,,,,,,,,,,,,,,,,,,,,-0.007777778,-0.398888889,0,0,0,,,,,,,CANDLE,LB,new,y,./images/CANDLELB.png,,,,,,,z,0,0.936,,,,,,,,0,73,73,145,1
,,,,,,,,,,,,,,,,,199846,19,2022-01-25_21h34.31.483,lexical_decision_task_DD_L5,2021.2.3,MacIntel,58.82352941,,,,,,,,,,,,0.561,0,,,,,,,,,,,,,,,,,,,,,,,,-0.007777778,-0.398888889,0,0,0,,,,,,,TWINS,HB,new,y,./images/TWINSHB.png,,,,,,,z,0,0.561,,,,,,,,0,74,74,144,1
,,,,,,,,,,,,,,,,,199846,19,2022-01-25_21h34.31.483,lexical_decision_task_DD_L5,2021.2.3,MacIntel,58.82352941,,,,,,,,,,,,1.069,0,,,,,,,,,,,,,,,,,,,,,,,,-0.007777778,-0.398888889,0,0,0,,,,,,,SNAKE,LB,old,y,./images/SNAKELB.png,,,,,,,m,0,1.069,,,,,,,,0,75,75,40,1
,,,,,,,,,,,,,,,,,199846,19,2022-01-25_21h34.31.483,lexical_decision_task_DD_L5,2021.2.3,MacIntel,58.82352941,,,,,,,,,,,,1.796,0,,,,,,,,,,,,,,,,,,,,,,,,-0.007777778,-0.398888889,0,0,0,,,,,,,ARTIST,LB,old,y,./images/ARTISTLB.png,,,,,,,z,0,1.796,,,,,,,,0,76,76,61,1
,,,,,,,,,,,,,,,,,199846,19,2022-01-25_21h34.31.483,lexical_decision_task_DD_L5,2021.2.3,MacIntel,58.82352941,,,,,,,,,,,,0.73,0,,,,,,,,,,,,,,,,,,,,,,,,-0.007777778,-0.398888889,0,0,0,,,,,,,MOSQUE,LB,new,y,./images/MOSQUELB.png,,,,,,,z,0,0.73,,,,,,,,0,77,77,127,1
,,,,,,,,,,,,,,,,,199846,19,2022-01-25_21h34.31.483,lexical_decision_task_DD_L5,2021.2.3,MacIntel,58.82352941,,,,,,,,,,,,0.631,0,,,,,,,,,,,,,,,,,,,,,,,,-0.007777778,-0.398888889,0,0,0,,,,,,,WALRUS,C,new,y,./images/WALRUS.png,,,,,,,z,0,0.631,,,,,,,,0,78,78,107,1
,,,,,,,,,,,,,,,,,199846,19,2022-01-25_21h34.31.483,lexical_decision_task_DD_L5,2021.2.3,MacIntel,58.82352941,,,,,,,,,,,,0.657,0,,,,,,,,,,,,,,,,,,,,,,,,-0.007777778,-0.398888889,0,0,0,,,,,,,CASINO,LB,old,y,./images/CASINOLB.png,,,,,,,m,0,0.657,,,,,,,,0,79,79,28,1
,,,,,,,,,,,,,,,,,199846,19,2022-01-25_21h34.31.483,lexical_decision_task_DD_L5,2021.2.3,MacIntel,58.82352941,,,,,,,,,,,,1.861,0,,,,,,,,,,,,,,,,,,,,,,,,-0.007777778,-0.398888889,0,0,0,,,,,,,DIVER,HB,old,y,./images/DIVERHB.png,,,,,,,m,0,1.861,,,,,,,,0,80,80,9,1
,,,,,,,,,,,,,,,,,199846,19,2022-01-25_21h34.31.483,lexical_decision_task_DD_L5,2021.2.3,MacIntel,58.82352941,,,,,,,,,,,,0.895,0,,,,,,,,,,,,,,,,,,,,,,,,-0.007777778,-0.398888889,0,0,0,,,,,,,BAKER,HB,old,y,./images/BAKERHB.png,,,,,,,z,0,0.895,,,,,,,,0,81,81,63,1
,,,,,,,,,,,,,,,,,199846,19,2022-01-25_21h34.31.483,lexical_decision_task_DD_L5,2021.2.3,MacIntel,58.82352941,,,,,,,,,,,,0.541,0,,,,,,,,,,,,,,,,,,,,,,,,-0.007777778,-0.398888889,0,0,0,,,,,,,PENCE,LB,new,y,./images/PENCELB.png,,,,,,,z,0,0.541,,,,,,,,0,82,82,100,1
,,,,,,,,,,,,,,,,,199846,19,2022-01-25_21h34.31.483,lexical_decision_task_DD_L5,2021.2.3,MacIntel,58.82352941,,,,,,,,,,,,0.777,0,,,,,,,,,,,,,,,,,,,,,,,,-0.007777778,-0.398888889,0,0,0,space,,,,,,PACKET,C,new,y,./images/PACKET.png,0.646,,,,,,z,0,0.777,,,,,,,,0,83,83,140,1
,,,,,,,,,,,,,,,,,199846,19,2022-01-25_21h34.31.483,lexical_decision_task_DD_L5,2021.2.3,MacIntel,58.82352941,,,,,,,,,,,,0.728,0,,,,,,,,,,,,,,,,,,,,,,,,-0.007777778,-0.398888889,0,0,0,,,,,,,MAGGOT,HB,new,y,./images/MAGGOTHB.png,,,,,,,z,0,0.728,,,,,,,,0,84,84,117,1
,,,,,,,,,,,,,,,,,199846,19,2022-01-25_21h34.31.483,lexical_decision_task_DD_L5,2021.2.3,MacIntel,58.82352941,,,,,,,,,,,,1.062,0,,,,,,,,,,,,,,,,,,,,,,,,-0.007777778,-0.398888889,0,0,0,,,,,,,MUMMY,LB,old,y,./images/MUMMYLB.png,,,,,,,m,0,1.062,,,,,,,,0,85,85,46,1
,,,,,,,,,,,,,,,,,199846,19,2022-01-25_21h34.31.483,lexical_decision_task_DD_L5,2021.2.3,MacIntel,58.82352941,,,,,,,,,,,,0.714,0,,,,,,,,,,,,,,,,,,,,,,,,-0.007777778,-0.398888889,0,0,0,,,,,,,MIDGET,LB,old,y,./images/MIDGETLB.png,,,,,,,m,0,0.714,,,,,,,,0,86,86,76,1
,,,,,,,,,,,,,,,,,199846,19,2022-01-25_21h34.31.483,lexical_decision_task_DD_L5,2021.2.3,MacIntel,58.82352941,,,,,,,,,,,,0.688,0,,,,,,,,,,,,,,,,,,,,,,,,-0.007777778,-0.398888889,0,0,0,,,,,,,BELLY,LB,new,y,./images/BELLYLB.png,,,,,,,z,0,0.688,,,,,,,,0,87,87,94,1
,,,,,,,,,,,,,,,,,199846,19,2022-01-25_21h34.31.483,lexical_decision_task_DD_L5,2021.2.3,MacIntel,58.82352941,,,,,,,,,,,,0.632,0,,,,,,,,,,,,,,,,,,,,,,,,-0.007777778,-0.398888889,0,0,0,,,,,,,JUMPER,C,old,y,./images/JUMPER.png,,,,,,,z,0,0.632,,,,,,,,0,88,88,74,1
,,,,,,,,,,,,,,,,,199846,19,2022-01-25_21h34.31.483,lexical_decision_task_DD_L5,2021.2.3,MacIntel,58.82352941,,,,,,,,,,,,0.693,0,,,,,,,,,,,,,,,,,,,,,,,,-0.007777778,-0.398888889,0,0,0,,,,,,,KITTEN,HB,new,y,./images/KITTENHB.png,,,,,,,z,0,0.693,,,,,,,,0,89,89,129,1
,,,,,,,,,,,,,,,,,199846,19,2022-01-25_21h34.31.483,lexical_decision_task_DD_L5,2021.2.3,MacIntel,58.82352941,,,,,,,,,,,,0.55,0,,,,,,,,,,,,,,,,,,,,,,,,-0.007777778,-0.398888889,0,0,0,,,,,,,THROAT,HB,new,y,./images/THROATHB.png,,,,,,,z,0,0.55,,,,,,,,0,90,90,120,1
,,,,,,,,,,,,,,,,,199846,19,2022-01-25_21h34.31.483,lexical_decision_task_DD_L5,2021.2.3,MacIntel,58.82352941,,,,,,,,,,,,1.136,0,,,,,,,,,,,,,,,,,,,,,,,,-0.007777778,-0.398888889,0,0,0,,,,,,,BASKET,C,old,y,./images/BASKET.png,,,,,,,z,0,1.136,,,,,,,,0,91,91,44,1
,,,,,,,,,,,,,,,,,199846,19,2022-01-25_21h34.31.483,lexical_decision_task_DD_L5,2021.2.3,MacIntel,58.82352941,,,,,,,,,,,,0.591,0,,,,,,,,,,,,,,,,,,,,,,,,-0.007777778,-0.398888889,0,0,0,,,,,,,PIMPLE,C,new,y,./images/PIMPLE.png,,,,,,,z,0,0.591,,,,,,,,0,92,92,155,1
,,,,,,,,,,,,,,,,,199846,19,2022-01-25_21h34.31.483,lexical_decision_task_DD_L5,2021.2.3,MacIntel,58.82352941,,,,,,,,,,,,0.568,0,,,,,,,,,,,,,,,,,,,,,,,,-0.007777778,-0.398888889,0,0,0,,,,,,,MELON,LB,new,y,./images/MELONLB.png,,,,,,,z,0,0.568,,,,,,,,0,93,93,106,1
,,,,,,,,,,,,,,,,,199846,19,2022-01-25_21h34.31.483,lexical_decision_task_DD_L5,2021.2.3,MacIntel,58.82352941,,,,,,,,,,,,0.743,0,,,,,,,,,,,,,,,,,,,,,,,,-0.007777778,-0.398888889,0,0,0,,,,,,,BUBBLE,C,old,y,./images/BUBBLE.png,,,,,,,m,0,0.743,,,,,,,,0,94,94,71,1
,,,,,,,,,,,,,,,,,199846,19,2022-01-25_21h34.31.483,lexical_decision_task_DD_L5,2021.2.3,MacIntel,58.82352941,,,,,,,,,,,,0.569,0,,,,,,,,,,,,,,,,,,,,,,,,-0.007777778,-0.398888889,0,0,0,,,,,,,CANDY,HB,old,y,./images/CANDYHB.png,,,,,,,m,0,0.569,,,,,,,,0,95,95,39,1
,,,,,,,,,,,,,,,,,199846,19,2022-01-25_21h34.31.483,lexical_decision_task_DD_L5,2021.2.3,MacIntel,58.82352941,,,,,,,,,,,,0.735,0,,,,,,,,,,,,,,,,,,,,,,,,-0.007777778,-0.398888889,0,0,0,,,,,,,PILOT,C,old,y,./images/PILOT.png,,,,,,,m,0,0.735,,,,,,,,0,96,96,50,1
,,,,,,,,,,,,,,,,,199846,19,2022-01-25_21h34.31.483,lexical_decision_task_DD_L5,2021.2.3,MacIntel,58.82352941,,,,,,,,,,,,2.477,0,,,,,,,,,,,,,,,,,,,,,,,,-0.007777778,-0.398888889,0,0,0,,,,,,,STOVE,C,old,y,./images/STOVE.png,,,,,,,m,0,2.477,,,,,,,,0,97,97,2,1
,,,,,,,,,,,,,,,,,199846,19,2022-01-25_21h34.31.483,lexical_decision_task_DD_L5,2021.2.3,MacIntel,58.82352941,,,,,,,,,,,,0.849,0,,,,,,,,,,,,,,,,,,,,,,,,-0.007777778,-0.398888889,0,0,0,,,,,,,BISHOP,LB,old,y,./images/BISHOPLB.png,,,,,,,m,0,0.849,,,,,,,,0,98,98,49,1
,,,,,,,,,,,,,,,,,199846,19,2022-01-25_21h34.31.483,lexical_decision_task_DD_L5,2021.2.3,MacIntel,58.82352941,,,,,,,,,,,,0.648,0,,,,,,,,,,,,,,,,,,,,,,,,-0.007777778,-0.398888889,0,0,0,,,,,,,INFANT,LB,new,y,./images/INFANTLB.png,,,,,,,z,0,0.648,,,,,,,,0,99,99,160,1
,,,,,,,,,,,,,,,,,199846,19,2022-01-25_21h34.31.483,lexical_decision_task_DD_L5,2021.2.3,MacIntel,58.82352941,,,,,,,,,,,,0.698,0,,,,,,,,,,,,,,,,,,,,,,,,-0.007777778,-0.398888889,0,0,0,,,,,,,TOMATO,HB,new,y,./images/TOMATOHB.png,,,,,,,z,0,0.698,,,,,,,,0,100,100,84,1
,,,,,,,,,,,,,,,,,199846,19,2022-01-25_21h34.31.483,lexical_decision_task_DD_L5,2021.2.3,MacIntel,58.82352941,,,,,,,,,,,,0.92,0,,,,,,,,,,,,,,,,,,,,,,,,-0.007777778,-0.398888889,0,0,0,,,,,,,BANNER,LB,new,y,./images/BANNERLB.png,,,,,,,m,0,0.92,,,,,,,,0,101,101,136,1
,,,,,,,,,,,,,,,,,199846,19,2022-01-25_21h34.31.483,lexical_decision_task_DD_L5,2021.2.3,MacIntel,58.82352941,,,,,,,,,,,,1.671,0,,,,,,,,,,,,,,,,,,,,,,,,-0.007777778,-0.398888889,0,0,0,,,,,,,PLANET,C,old,y,./images/PLANET.png,,,,,,,m,0,1.671,,,,,,,,0,102,102,80,1
,,,,,,,,,,,,,,,,,199846,19,2022-01-25_21h34.31.483,lexical_decision_task_DD_L5,2021.2.3,MacIntel,58.82352941,,,,,,,,,,,,1.376,0,,,,,,,,,,,,,,,,,,,,,,,,-0.007777778,-0.398888889,0,0,0,,,,,,,SKIING,C,new,y,./images/SKIING.png,,,,,,,z,0,1.376,,,,,,,,0,103,103,101,1
,,,,,,,,,,,,,,,,,199846,19,2022-01-25_21h34.31.483,lexical_decision_task_DD_L5,2021.2.3,MacIntel,58.82352941,,,,,,,,,,,,0.721,0,,,,,,,,,,,,,,,,,,,,,,,,-0.007777778,-0.398888889,0,0,0,,,,,,,POODLE,HB,new,y,./images/POODLEHB.png,,,,,,,m,0,0.721,,,,,,,,0,104,104,165,1
,,,,,,,,,,,,,,,,,199846,19,2022-01-25_21h34.31.483,lexical_decision_task_DD_L5,2021.2.3,MacIntel,58.82352941,,,,,,,,,,,,0.854,0,,,,,,,,,,,,,,,,,,,,,,,,-0.007777778,-0.398888889,0,0,0,,,,,,,PEBBLE,LB,old,y,./images/PEBBLELB.png,,,,,,,m,0,0.854,,,,,,,,0,105,105,82,1
,,,,,,,,,,,,,,,,,199846,19,2022-01-25_21h34.31.483,lexical_decision_task_DD_L5,2021.2.3,MacIntel,58.82352941,,,,,,,,,,,,0.695,0,,,,,,,,,,,,,,,,,,,,,,,,-0.007777778,-0.398888889,0,0,0,,,,,,,SUNSET,LB,new,y,./images/SUNSETLB.png,,,,,,,z,0,0.695,,,,,,,,0,106,106,166,1
,,,,,,,,,,,,,,,,,199846,19,2022-01-25_21h34.31.483,lexical_decision_task_DD_L5,2021.2.3,MacIntel,58.82352941,,,,,,,,,,,,1.112,0,,,,,,,,,,,,,,,,,,,,,,,,-0.007777778,-0.398888889,0,0,0,,,,,,,BUNNY,LB,old,y,./images/BUNNYLB.png,,,,,,,m,0,1.112,,,,,,,,0,107,107,13,1
,,,,,,,,,,,,,,,,,199846,19,2022-01-25_21h34.31.483,lexical_decision_task_DD_L5,2021.2.3,MacIntel,58.82352941,,,,,,,,,,,,0.863,0,,,,,,,,,,,,,,,,,,,,,,,,-0.007777778,-0.398888889,0,0,0,,,,,,,POSTER,C,old,y,./images/POSTER.png,,,,,,,m,0,0.863,,,,,,,,0,108,108,53,1
,,,,,,,,,,,,,,,,,199846,19,2022-01-25_21h34.31.483,lexical_decision_task_DD_L5,2021.2.3,MacIntel,58.82352941,,,,,,,,,,,,1.131,0,,,,,,,,,,,,,,,,,,,,,,,,-0.007777778,-0.398888889,0,0,0,,,,,,,PARADE,C,old,y,./images/PARADE.png,,,,,,,z,0,1.131,,,,,,,,0,109,109,17,1
,,,,,,,,,,,,,,,,,199846,19,2022-01-25_21h34.31.483,lexical_decision_task_DD_L5,2021.2.3,MacIntel,58.82352941,,,,,,,,,,,,1.281,0,,,,,,,,,,,,,,,,,,,,,,,,-0.007777778,-0.398888889,0,0,0,,,,,,,SHORE,HB,new,y,./images/SHOREHB.png,,,,,,,z,0,1.281,,,,,,,,0,110,110,96,1
,,,,,,,,,,,,,,,,,199846,19,2022-01-25_21h34.31.483,lexical_decision_task_DD_L5,2021.2.3,MacIntel,58.82352941,,,,,,,,,,,,0.522,0,,,,,,,,,,,,,,,,,,,,,,,,-0.007777778,-0.398888889,0,0,0,,,,,,,ENGINE,C,old,y,./images/ENGINE.png,,,,,,,z,0,0.522,,,,,,,,0,111,111,38,1
,,,,,,,,,,,,,,,,,199846,19,2022-01-25_21h34.31.483,lexical_decision_task_DD_L5,2021.2.3,MacIntel,58.82352941,,,,,,,,,,,,1.026,0,,,,,,,,,,,,,,,,,,,,,,,,-0.007777778,-0.398888889,0,0,0,,,,,,,CANYON,LB,new,y,./images/CANYONLB.png,,,,,,,m,0,1.026,,,,,,,,0,112,112,118,1
,,,,,,,,,,,,,,,,,199846,19,2022-01-25_21h34.31.483,lexical_decision_task_DD_L5,2021.2.3,MacIntel,58.82352941,,,,,,,,,,,,0.92,0,,,,,,,,,,,,,,,,,,,,,,,,-0.007777778,-0.398888889,0,0,0,,,,,,,JUNGLE,C,new,y,./images/JUNGLE.png,,,,,,,z,0,0.92,,,,,,,,0,113,113,167,1
,,,,,,,,,,,,,,,,,199846,19,2022-01-25_21h34.31.483,lexical_decision_task_DD_L5,2021.2.3,MacIntel,58.82352941,,,,,,,,,,,,0.629,0,,,,,,,,,,,,,,,,,,,,,,,,-0.007777778,-0.398888889,0,0,0,,,,,,,TORCH,C,new,y,./images/TORCH.png,,,,,,,z,0,0.629,,,,,,,,0,114,114,152,1
,,,,,,,,,,,,,,,,,199846,19,2022-01-25_21h34.31.483,lexical_decision_task_DD_L5,2021.2.3,MacIntel,58.82352941,,,,,,,,,,,,0.596,0,,,,,,,,,,,,,,,,,,,,,,,,-0.007777778,-0.398888889,0,0,0,,,,,,,MALLET,C,new,y,./images/MALLET.png,,,,,,,z,0,0.596,,,,,,,,0,115,115,134,1
,,,,,,,,,,,,,,,,,199846,19,2022-01-25_21h34.31.483,lexical_decision_task_DD_L5,2021.2.3,MacIntel,58.82352941,,,,,,,,,,,,0.604,0,,,,,,,,,,,,,,,,,,,,,,,,-0.007777778,-0.398888889,0,0,0,,,,,,,COUCH,C,new,y,./images/COUCH.png,,,,,,,z,0,0.604,,,,,,,,0,116,116,161,1
,,,,,,,,,,,,,,,,,199846,19,2022-01-25_21h34.31.483,lexical_decision_task_DD_L5,2021.2.3,MacIntel,58.82352941,,,,,,,,,,,,0.734,0,,,,,,,,,,,,,,,,,,,,,,,,-0.007777778,-0.398888889,0,0,0,,,,,,,FALCON,LB,new,y,./images/FALCONLB.png,,,,,,,z,0,0.734,,,,,,,,0,117,117,112,1
,,,,,,,,,,,,,,,,,199846,19,2022-01-25_21h34.31.483,lexical_decision_task_DD_L5,2021.2.3,MacIntel,58.82352941,,,,,,,,,,,,0.529,0,,,,,,,,,,,,,,,,,,,,,,,,-0.007777778,-0.398888889,0,0,0,,,,,,,LIZARD,C,new,y,./images/LIZARD.png,,,,,,,z,0,0.529,,,,,,,,0,118,118,128,1
,,,,,,,,,,,,,,,,,199846,19,2022-01-25_21h34.31.483,lexical_decision_task_DD_L5,2021.2.3,MacIntel,58.82352941,,,,,,,,,,,,0.922,0,,,,,,,,,,,,,,,,,,,,,,,,-0.007777778,-0.398888889,0,0,0,,,,,,,SHELF,HB,new,y,./images/SHELFHB.png,,,,,,,z,0,0.922,,,,,,,,0,119,119,123,1
,,,,,,,,,,,,,,,,,199846,19,2022-01-25_21h34.31.483,lexical_decision_task_DD_L5,2021.2.3,MacIntel,58.82352941,,,,,,,,,,,,0.816,0,,,,,,,,,,,,,,,,,,,,,,,,-0.007777778,-0.398888889,0,0,0,,,,,,,DRILL,HB,old,y,./images/DRILLHB.png,,,,,,,m,0,0.816,,,,,,,,0,120,120,81,1
,,,,,,,,,,,,,,,,,199846,19,2022-01-25_21h34.31.483,lexical_decision_task_DD_L5,2021.2.3,MacIntel,58.82352941,,,,,,,,,,,,0.953,0,,,,,,,,,,,,,,,,,,,,,,,,-0.007777778,-0.398888889,0,0,0,,,,,,,ONION,HB,new,y,./images/ONIONHB.png,,,,,,,z,0,0.953,,,,,,,,0,121,121,135,1
,,,,,,,,,,,,,,,,,199846,19,2022-01-25_21h34.31.483,lexical_decision_task_DD_L5,2021.2.3,MacIntel,58.82352941,,,,,,,,,,,,0.761,0,,,,,,,,,,,,,,,,,,,,,,,,-0.007777778,-0.398888889,0,0,0,,,,,,,DRUMS,LB,new,y,./images/DRUMSLB.png,,,,,,,z,0,0.761,,,,,,,,0,122,122,133,1
,,,,,,,,,,,,,,,,,199846,19,2022-01-25_21h34.31.483,lexical_decision_task_DD_L5,2021.2.3,MacIntel,58.82352941,,,,,,,,,,,,0.895,0,,,,,,,,,,,,,,,,,,,,,,,,-0.007777778,-0.398888889,0,0,0,,,,,,,SQUARE,HB,new,y,./images/SQUAREHB.png,,,,,,,z,0,0.895,,,,,,,,0,123,123,90,1
,,,,,,,,,,,,,,,,,199846,19,2022-01-25_21h34.31.483,lexical_decision_task_DD_L5,2021.2.3,MacIntel,58.82352941,,,,,,,,,,,,0.593,0,,,,,,,,,,,,,,,,,,,,,,,,-0.007777778,-0.398888889,0,0,0,,,,,,,WALNUT,HB,old,y,./images/WALNUTHB.png,,,,,,,z,0,0.593,,,,,,,,0,124,124,0,1
,,,,,,,,,,,,,,,,,199846,19,2022-01-25_21h34.31.483,lexical_decision_task_DD_L5,2021.2.3,MacIntel,58.82352941,,,,,,,,,,,,0.904,0,,,,,,,,,,,,,,,,,,,,,,,,-0.007777778,-0.398888889,0,0,0,space,,,,,,BROOM,HB,old,y,./images/BROOMHB.png,1.463,,,,,,m,0,0.904,,,,,,,,0,125,125,78,1
,,,,,,,,,,,,,,,,,199846,19,2022-01-25_21h34.31.483,lexical_decision_task_DD_L5,2021.2.3,MacIntel,58.82352941,,,,,,,,,,,,0.711,0,,,,,,,,,,,,,,,,,,,,,,,,-0.007777778,-0.398888889,0,0,0,,,,,,,MOOSE,HB,new,y,./images/MOOSEHB.png,,,,,,,m,0,0.711,,,,,,,,0,126,126,141,1
,,,,,,,,,,,,,,,,,199846,19,2022-01-25_21h34.31.483,lexical_decision_task_DD_L5,2021.2.3,MacIntel,58.82352941,,,,,,,,,,,,0.811,0,,,,,,,,,,,,,,,,,,,,,,,,-0.007777778,-0.398888889,0,0,0,,,,,,,SPORT,HB,new,y,./images/SPORTHB.png,,,,,,,z,0,0.811,,,,,,,,0,127,127,132,1
,,,,,,,,,,,,,,,,,199846,19,2022-01-25_21h34.31.483,lexical_decision_task_DD_L5,2021.2.3,MacIntel,58.82352941,,,,,,,,,,,,0.61,0,,,,,,,,,,,,,,,,,,,,,,,,-0.007777778,-0.398888889,0,0,0,,,,,,,BIRTH,LB,new,y,./images/BIRTHLB.png,,,,,,,m,0,0.61,,,,,,,,0,128,128,121,1
,,,,,,,,,,,,,,,,,199846,19,2022-01-25_21h34.31.483,lexical_decision_task_DD_L5,2021.2.3,MacIntel,58.82352941,,,,,,,,,,,,0.721,0,,,,,,,,,,,,,,,,,,,,,,,,-0.007777778,-0.398888889,0,0,0,,,,,,,BABOON,LB,new,y,./images/BABOONLB.png,,,,,,,z,0,0.721,,,,,,,,0,129,129,142,1
,,,,,,,,,,,,,,,,,199846,19,2022-01-25_21h34.31.483,lexical_decision_task_DD_L5,2021.2.3,MacIntel,58.82352941,,,,,,,,,,,,0.814,0,,,,,,,,,,,,,,,,,,,,,,,,-0.007777778,-0.398888889,0,0,0,,,,,,,SWEAT,HB,new,y,./images/SWEATHB.png,,,,,,,z,0,0.814,,,,,,,,0,130,130,150,1
,,,,,,,,,,,,,,,,,199846,19,2022-01-25_21h34.31.483,lexical_decision_task_DD_L5,2021.2.3,MacIntel,58.82352941,,,,,,,,,,,,0.611,0,,,,,,,,,,,,,,,,,,,,,,,,-0.007777778,-0.398888889,0,0,0,,,,,,,MUSCLE,LB,new,y,./images/MUSCLELB.png,,,,,,,z,0,0.611,,,,,,,,0,131,131,88,1
,,,,,,,,,,,,,,,,,199846,19,2022-01-25_21h34.31.483,lexical_decision_task_DD_L5,2021.2.3,MacIntel,58.82352941,,,,,,,,,,,,0.58,0,,,,,,,,,,,,,,,,,,,,,,,,-0.007777778,-0.398888889,0,0,0,,,,,,,TOWEL,LB,old,y,./images/TOWELLB.png,,,,,,,z,0,0.58,,,,,,,,0,132,132,1,1
,,,,,,,,,,,,,,,,,199846,19,2022-01-25_21h34.31.483,lexical_decision_task_DD_L5,2021.2.3,MacIntel,58.82352941,,,,,,,,,,,,1.162,0,,,,,,,,,,,,,,,,,,,,,,,,-0.007777778,-0.398888889,0,0,0,,,,,,,CLOTH,C,old,y,./images/CLOTH.png,,,,,,,z,0,1.162,,,,,,,,0,133,133,23,1
,,,,,,,,,,,,,,,,,199846,19,2022-01-25_21h34.31.483,lexical_decision_task_DD_L5,2021.2.3,MacIntel,58.82352941,,,,,,,,,,,,0.773,0,,,,,,,,,,,,,,,,,,,,,,,,-0.007777778,-0.398888889,0,0,0,,,,,,,SLOPE,HB,old,y,./images/SLOPEHB.png,,,,,,,m,0,0.773,,,,,,,,0,134,134,30,1
,,,,,,,,,,,,,,,,,199846,19,2022-01-25_21h34.31.483,lexical_decision_task_DD_L5,2021.2.3,MacIntel,58.82352941,,,,,,,,,,,,1.521,0,,,,,,,,,,,,,,,,,,,,,,,,-0.007777778,-0.398888889,0,0,0,,,,,,,BERRY,C,new,y,./images/BERRY.png,,,,,,,z,0,1.521,,,,,,,,0,135,135,131,1
,,,,,,,,,,,,,,,,,199846,19,2022-01-25_21h34.31.483,lexical_decision_task_DD_L5,2021.2.3,MacIntel,58.82352941,,,,,,,,,,,,1.005,0,,,,,,,,,,,,,,,,,,,,,,,,-0.007777778,-0.398888889,0,0,0,,,,,,,STORM,HB,new,y,./images/STORMHB.png,,,,,,,z,0,1.005,,,,,,,,0,136,136,114,1
,,,,,,,,,,,,,,,,,199846,19,2022-01-25_21h34.31.483,lexical_decision_task_DD_L5,2021.2.3,MacIntel,58.82352941,,,,,,,,,,,,1.606,0,,,,,,,,,,,,,,,,,,,,,,,,-0.007777778,-0.398888889,0,0,0,,,,,,,BURIAL,C,new,y,./images/BURIAL.png,,,,,,,z,0,1.606,,,,,,,,0,137,137,143,1
,,,,,,,,,,,,,,,,,199846,19,2022-01-25_21h34.31.483,lexical_decision_task_DD_L5,2021.2.3,MacIntel,58.82352941,,,,,,,,,,,,2.285,0,,,,,,,,,,,,,,,,,,,,,,,,-0.007777778,-0.398888889,0,0,0,,,,,,,CHERRY,HB,old,y,./images/CHERRYHB.png,,,,,,,z,0,2.285,,,,,,,,0,138,138,54,1
,,,,,,,,,,,,,,,,,199846,19,2022-01-25_21h34.31.483,lexical_decision_task_DD_L5,2021.2.3,MacIntel,58.82352941,,,,,,,,,,,,0.621,0,,,,,,,,,,,,,,,,,,,,,,,,-0.007777778,-0.398888889,0,0,0,,,,,,,DANCER,HB,old,y,./images/DANCERHB.png,,,,,,,z,0,0.621,,,,,,,,0,139,139,21,1
,,,,,,,,,,,,,,,,,199846,19,2022-01-25_21h34.31.483,lexical_decision_task_DD_L5,2021.2.3,MacIntel,58.82352941,,,,,,,,,,,,3.767,0,,,,,,,,,,,,,,,,,,,,,,,,-0.007777778,-0.398888889,0,0,0,,,,,,,FENCE,C,old,y,./images/FENCE.png,,,,,,,z,0,3.767,,,,,,,,0,140,140,14,1
,,,,,,,,,,,,,,,,,199846,19,2022-01-25_21h34.31.483,lexical_decision_task_DD_L5,2021.2.3,MacIntel,58.82352941,,,,,,,,,,,,0.564,0,,,,,,,,,,,,,,,,,,,,,,,,-0.007777778,-0.398888889,0,0,0,,,,,,,MUFFIN,LB,new,y,./images/MUFFINLB.png,,,,,,,m,0,0.564,,,,,,,,0,141,141,139,1
,,,,,,,,,,,,,,,,,199846,19,2022-01-25_21h34.31.483,lexical_decision_task_DD_L5,2021.2.3,MacIntel,58.82352941,,,,,,,,,,,,0.748,0,,,,,,,,,,,,,,,,,,,,,,,,-0.007777778,-0.398888889,0,0,0,,,,,,,CLOWN,LB,old,y,./images/CLOWNLB.png,,,,,,,z,0,0.748,,,,,,,,0,142,142,22,1
,,,,,,,,,,,,,,,,,199846,19,2022-01-25_21h34.31.483,lexical_decision_task_DD_L5,2021.2.3,MacIntel,58.82352941,,,,,,,,,,,,0.603,0,,,,,,,,,,,,,,,,,,,,,,,,-0.007777778,-0.398888889,0,0,0,,,,,,,GREASE,HB,new,y,./images/GREASEHB.png,,,,,,,z,0,0.603,,,,,,,,0,143,143,99,1
,,,,,,,,,,,,,,,,,199846,19,2022-01-25_21h34.31.483,lexical_decision_task_DD_L5,2021.2.3,MacIntel,58.82352941,,,,,,,,,,,,0.867,0,,,,,,,,,,,,,,,,,,,,,,,,-0.007777778,-0.398888889,0,0,0,,,,,,,MAMMAL,C,old,y,./images/MAMMAL.png,,,,,,,m,0,0.867,,,,,,,,0,144,144,62,1
,,,,,,,,,,,,,,,,,199846,19,2022-01-25_21h34.31.483,lexical_decision_task_DD_L5,2021.2.3,MacIntel,58.82352941,,,,,,,,,,,,0.655,0,,,,,,,,,,,,,,,,,,,,,,,,-0.007777778,-0.398888889,0,0,0,,,,,,,RULER,LB,old,y,./images/RULERLB.png,,,,,,,m,0,0.655,,,,,,,,0,145,145,79,1
,,,,,,,,,,,,,,,,,199846,19,2022-01-25_21h34.31.483,lexical_decision_task_DD_L5,2021.2.3,MacIntel,58.82352941,,,,,,,,,,,,0.695,0,,,,,,,,,,,,,,,,,,,,,,,,-0.007777778,-0.398888889,0,0,0,,,,,,,FINGER,HB,new,y,./images/FINGERHB.png,,,,,,,z,0,0.695,,,,,,,,0,146,146,87,1
,,,,,,,,,,,,,,,,,199846,19,2022-01-25_21h34.31.483,lexical_decision_task_DD_L5,2021.2.3,MacIntel,58.82352941,,,,,,,,,,,,0.604,0,,,,,,,,,,,,,,,,,,,,,,,,-0.007777778,-0.398888889,0,0,0,,,,,,,GRANNY,C,old,y,./images/GRANNY.png,,,,,,,z,0,0.604,,,,,,,,0,147,147,20,1
,,,,,,,,,,,,,,,,,199846,19,2022-01-25_21h34.31.483,lexical_decision_task_DD_L5,2021.2.3,MacIntel,58.82352941,,,,,,,,,,,,0.661,0,,,,,,,,,,,,,,,,,,,,,,,,-0.007777778,-0.398888889,0,0,0,,,,,,,BRUSH,C,old,y,./images/BRUSH.png,,,,,,,z,0,0.661,,,,,,,,0,148,148,59,1
,,,,,,,,,,,,,,,,,199846,19,2022-01-25_21h34.31.483,lexical_decision_task_DD_L5,2021.2.3,MacIntel,58.82352941,,,,,,,,,,,,0.894,0,,,,,,,,,,,,,,,,,,,,,,,,-0.007777778,-0.398888889,0,0,0,,,,,,,BANANA,LB,old,y,./images/BANANALB.png,,,,,,,m,0,0.894,,,,,,,,0,149,149,70,1
,,,,,,,,,,,,,,,,,199846,19,2022-01-25_21h34.31.483,lexical_decision_task_DD_L5,2021.2.3,MacIntel,58.82352941,,,,,,,,,,,,0.954,0,,,,,,,,,,,,,,,,,,,,,,,,-0.007777778,-0.398888889,0,0,0,,,,,,,PLANK,LB,new,y,./images/PLANKLB.png,,,,,,,z,0,0.954,,,,,,,,0,150,150,85,1
,,,,,,,,,,,,,,,,,199846,19,2022-01-25_21h34.31.483,lexical_decision_task_DD_L5,2021.2.3,MacIntel,58.82352941,,,,,,,,,,,,0.847,0,,,,,,,,,,,,,,,,,,,,,,,,-0.007777778,-0.398888889,0,0,0,,,,,,,WHISKY,C,old,y,./images/WHISKY.png,,,,,,,m,0,0.847,,,,,,,,0,151,151,83,1
,,,,,,,,,,,,,,,,,199846,19,2022-01-25_21h34.31.483,lexical_decision_task_DD_L5,2021.2.3,MacIntel,58.82352941,,,,,,,,,,,,0.556,0,,,,,,,,,,,,,,,,,,,,,,,,-0.007777778,-0.398888889,0,0,0,,,,,,,ATTIC,HB,new,y,./images/ATTICHB.png,,,,,,,z,0,0.556,,,,,,,,0,152,152,111,1
,,,,,,,,,,,,,,,,,199846,19,2022-01-25_21h34.31.483,lexical_decision_task_DD_L5,2021.2.3,MacIntel,58.82352941,,,,,,,,,,,,0.645,0,,,,,,,,,,,,,,,,,,,,,,,,-0.007777778,-0.398888889,0,0,0,,,,,,,HEATER,C,old,y,./images/HEATER.png,,,,,,,m,0,0.645,,,,,,,,0,153,153,56,1
,,,,,,,,,,,,,,,,,199846,19,2022-01-25_21h34.31.483,lexical_decision_task_DD_L5,2021.2.3,MacIntel,58.82352941,,,,,,,,,,,,0.971,0,,,,,,,,,,,,,,,,,,,,,,,,-0.007777778,-0.398888889,0,0,0,,,,,,,FLESH,HB,old,y,./images/FLESHHB.png,,,,,,,m,0,0.971,,,,,,,,0,154,154,24,1
,,,,,,,,,,,,,,,,,199846,19,2022-01-25_21h34.31.483,lexical_decision_task_DD_L5,2021.2.3,MacIntel,58.82352941,,,,,,,,,,,,0.656,0,,,,,,,,,,,,,,,,,,,,,,,,-0.007777778,-0.398888889,0,0,0,,,,,,,PURSE,C,new,y,./images/PURSE.png,,,,,,,z,0,0.656,,,,,,,,0,155,155,146,1
,,,,,,,,,,,,,,,,,199846,19,2022-01-25_21h34.31.483,lexical_decision_task_DD_L5,2021.2.3,MacIntel,58.82352941,,,,,,,,,,,,0.904,0,,,,,,,,,,,,,,,,,,,,,,,,-0.007777778,-0.398888889,0,0,0,,,,,,,PAINT,LB,new,y,./images/PAINTLB.png,,,,,,,z,0,0.904,,,,,,,,0,156,156,91,1
,,,,,,,,,,,,,,,,,199846,19,2022-01-25_21h34.31.483,lexical_decision_task_DD_L5,2021.2.3,MacIntel,58.82352941,,,,,,,,,,,,0.588,0,,,,,,,,,,,,,,,,,,,,,,,,-0.007777778,-0.398888889,0,0,0,,,,,,,PEACH,C,new,y,./images/PEACH.png,,,,,,,z,0,0.588,,,,,,,,0,157,157,119,1
,,,,,,,,,,,,,,,,,199846,19,2022-01-25_21h34.31.483,lexical_decision_task_DD_L5,2021.2.3,MacIntel,58.82352941,,,,,,,,,,,,0.774,0,,,,,,,,,,,,,,,,,,,,,,,,-0.007777778,-0.398888889,0,0,0,,,,,,,BAMBOO,C,old,y,./images/BAMBOO.png,,,,,,,z,0,0.774,,,,,,,,0,158,158,5,1
,,,,,,,,,,,,,,,,,199846,19,2022-01-25_21h34.31.483,lexical_decision_task_DD_L5,2021.2.3,MacIntel,58.82352941,,,,,,,,,,,,0.644,0,,,,,,,,,,,,,,,,,,,,,,,,-0.007777778,-0.398888889,0,0,0,,,,,,,ALLEY,LB,old,y,./images/ALLEYLB.png,,,,,,,z,0,0.644,,,,,,,,0,159,159,55,1
,,,,,,,,,,,,,,,,,199846,19,2022-01-25_21h34.31.483,lexical_decision_task_DD_L5,2021.2.3,MacIntel,58.82352941,,,,,,,,,,,,0.972,0,,,,,,,,,,,,,,,,,,,,,,,,-0.007777778,-0.398888889,0,0,0,,,,,,,BONNET,C,new,y,./images/BONNET.png,,,,,,,z,0,0.972,,,,,,,,0,160,160,95,1
,,,,,,,,,,,,,,,,,199846,19,2022-01-25_21h34.31.483,lexical_decision_task_DD_L5,2021.2.3,MacIntel,58.82352941,,,,,,,,,,,,0.929,0,,,,,,,,,,,,,,,,,,,,,,,,-0.007777778,-0.398888889,0,0,0,,,,,,,QUILL,LB,new,y,./images/QUILLLB.png,,,,,,,z,0,0.929,,,,,,,,0,161,161,115,1
,,,,,,,,,,,,,,,,,199846,19,2022-01-25_21h34.31.483,lexical_decision_task_DD_L5,2021.2.3,MacIntel,58.82352941,,,,,,,,,,,,0.819,0,,,,,,,,,,,,,,,,,,,,,,,,-0.007777778,-0.398888889,0,0,0,,,,,,,SAUCE,HB,old,y,./images/SAUCEHB.png,,,,,,,z,0,0.819,,,,,,,,0,162,162,51,1
,,,,,,,,,,,,,,,,,199846,19,2022-01-25_21h34.31.483,lexical_decision_task_DD_L5,2021.2.3,MacIntel,58.82352941,,,,,,,,,,,,0.568,0,,,,,,,,,,,,,,,,,,,,,,,,-0.007777778,-0.398888889,0,0,0,,,,,,,LITTER,HB,new,y,./images/LITTERHB.png,,,,,,,z,0,0.568,,,,,,,,0,163,163,162,1
,,,,,,,,,,,,,,,,,199846,19,2022-01-25_21h34.31.483,lexical_decision_task_DD_L5,2021.2.3,MacIntel,58.82352941,,,,,,,,,,,,0.579,0,,,,,,,,,,,,,,,,,,,,,,,,-0.007777778,-0.398888889,0,0,0,,,,,,,CEMENT,C,new,y,./images/CEMENT.png,,,,,,,z,0,0.579,,,,,,,,0,164,164,158,1
,,,,,,,,,,,,,,,,,199846,19,2022-01-25_21h34.31.483,lexical_decision_task_DD_L5,2021.2.3,MacIntel,58.82352941,,,,,,,,,,,,0.854,0,,,,,,,,,,,,,,,,,,,,,,,,-0.007777778,-0.398888889,0,0,0,,,,,,,WAGON,LB,old,y,./images/WAGONLB.png,,,,,,,m,0,0.854,,,,,,,,0,165,165,7,1
,,,,,,,,,,,,,,,,,199846,19,2022-01-25_21h34.31.483,lexical_decision_task_DD_L5,2021.2.3,MacIntel,58.82352941,,,,,,,,,,,,0.842,0,,,,,,,,,,,,,,,,,,,,,,,,-0.007777778,-0.398888889,0,0,0,,,,,,,HOCKEY,C,old,y,./images/HOCKEY.png,,,,,,,z,0,0.842,,,,,,,,0,166,166,32,1
,,,,,,,,,,,,,,,,,199846,19,2022-01-25_21h34.31.483,lexical_decision_task_DD_L5,2021.2.3,MacIntel,58.82352941,,,,,,,,,,,,0.889,0,,,,,,,,,,,,,,,,,,,,,,,,-0.007777778,-0.398888889,0,0,0,,,,,,,PARCEL,HB,old,y,./images/PARCELHB.png,,,,,,,m,0,0.889,,,,,,,,0,167,167,18,1
