key_resp.keys,key_resp.rt,instr_done_touch.x,instr_done_touch.y,instr_done_touch.leftButton,instr_done_touch.midButton,instr_done_touch.rightButton,instruction_pages.thisRepN,instruction_pages.thisTrialN,instruction_pages.thisN,instruction_pages.thisIndex,instruction_pages.ran,pageN,phase,instruct_text,has_image,instruct_image,participant,age,date,expName,psychopyVersion,OS,frameRate,response.keys,response.corr,response.rt,touch_resp.x,touch_resp.y,touch_resp.leftButton,touch_resp.midButton,touch_resp.rightButton,touch_resp.time,touch_resp.clicked_name,rt,corr,practrials.thisRepN,practrials.thisTrialN,practrials.thisN,practrials.thisIndex,practrials.ran,TrialID,Target,corrAns,instr_done_touch.clicked_name,end_of_practice_trials_pages.thisRepN,end_of_practice_trials_pages.thisTrialN,end_of_practice_trials_pages.thisN,end_of_practice_trials_pages.thisIndex,end_of_practice_trials_pages.ran,key_resp_2.keys,key_resp_2.corr,key_resp_2.rt,targ_click.x,targ_click.y,targ_click.leftButton,targ_click.midButton,targ_click.rightButton,targ_click.time,targ_click.clicked_name,break_done_touch.x,break_done_touch.y,break_done_touch.leftButton,break_done_touch.midButton,break_done_touch.rightButton,break_done_keyboard.keys,maintrials.thisRepN,maintrials.thisTrialN,maintrials.thisN,maintrials.thisIndex,maintrials.ran,string,blur,study,lex,stim_path,break_done_keyboard.rt,test_instructions.thisRepN,test_instructions.thisTrialN,test_instructions.thisN,test_instructions.thisIndex,test_instructions.ran,key_resp_3.keys,key_resp_3.corr,key_resp_3.rt,test_click.x,test_click.y,test_click.leftButton,test_click.midButton,test_click.rightButton,test_click.time,test_click.clicked_name,test_phase.thisRepN,test_phase.thisTrialN,test_phase.thisN,test_phase.thisIndex,test_phase.ran
space,25.2733,0.073789063,-0.388693576,0,0,0,0,0,0,0,1,1,instructions,"INSTRUCTIONS
At the start of each trial, look at the plus sign  (+) in the center of the screen.  This tells you that a trial is about to begin and where to look. Second, the plus sign will disappear and a string of letters will appear. Your task is to determine if the string of letters is a word or not. If the item is a word press the M key (on keyboard)  or touch the word button (phone/tablet).  If the item is not a word,  press the  Z key (on keyboard)  or touch the nonword button (on phone/tablet). 
Press the space bar or touch  continue.",0,,199987,19,2022-01-29_12h41.51.941,lexical_decision_task_DD_L6,2021.2.3,MacIntel,60.0024001,,,,,,,,,,,,,,,,,,,,,,,,,,,,,,,,,,,,,,,,,,,,,,,,,,,,,,,,,,,,,,,,,,,,,,,,,
space,4.4514,0.056445312,-0.366263021,0,0,0,0,1,1,1,1,2,instructions,"If your device has a keyboard, press the 'Z' key for nonwords and the 'M' key for words.





Press the space bar or touch the button below to continue.",0,keyboard-example.gif,199987,19,2022-01-29_12h41.51.941,lexical_decision_task_DD_L6,2021.2.3,MacIntel,60.0024001,,,,,,,,,,,,,,,,,,,,,,,,,,,,,,,,,,,,,,,,,,,,,,,,,,,,,,,,,,,,,,,,,,,,,,,,,
space,2.3378,0.056445312,-0.366263021,0,0,0,0,2,2,2,1,3,instructions,"If you are using a touchscreen only device, use the buttons on the screen. Do not use the mouse.





Press the space bar or touch the button below to continue.",0,touchscreen-example.gif,199987,19,2022-01-29_12h41.51.941,lexical_decision_task_DD_L6,2021.2.3,MacIntel,60.0024001,,,,,,,,,,,,,,,,,,,,,,,,,,,,,,,,,,,,,,,,,,,,,,,,,,,,,,,,,,,,,,,,,,,,,,,,,
space,10.6492,0.056445312,-0.366263021,0,0,0,0,3,3,3,1,4,instructions,"It is very important that you respond as quickly and accurately as possible, as each letter string will only be on the screen for two seconds. If you do not respond within this time, the message 'Too slow!' will be displayed and the experiment will progress to the next letter string. The first 20 trials will be practice trials and you will receive feedback on your answers. 

Press the space bar or touch the button below to start the practice trials.",0,,199987,19,2022-01-29_12h41.51.941,lexical_decision_task_DD_L6,2021.2.3,MacIntel,60.0024001,,,,,,,,,,,,,,,,,,,,,,,,,,,,,,,,,,,,,,,,,,,,,,,,,,,,,,,,,,,,,,,,,,,,,,,,,
,,,,,,,,,,,,,,,,,199987,19,2022-01-29_12h41.51.941,lexical_decision_task_DD_L6,2021.2.3,MacIntel,60.0024001,z,1,4.2136,,,,,,,,4.2136,1,0,0,0,14,1,1001,THRALE,z,,,,,,,,,,,,,,,,,,,,,,,,,,,,,,,,,,,,,,,,,,,,,,,,,,,,,
,,,,,,,,,,,,,,,,,199987,19,2022-01-29_12h41.51.941,lexical_decision_task_DD_L6,2021.2.3,MacIntel,60.0024001,m,0,3.3312,,,,,,,,3.3312,0,0,1,1,10,1,1001,INLADE,z,,,,,,,,,,,,,,,,,,,,,,,,,,,,,,,,,,,,,,,,,,,,,,,,,,,,,
,,,,,,,,,,,,,,,,,199987,19,2022-01-29_12h41.51.941,lexical_decision_task_DD_L6,2021.2.3,MacIntel,60.0024001,m,1,1.9137,,,,,,,,1.9137,1,0,2,2,5,1,1001,OBTAIN,m,,,,,,,,,,,,,,,,,,,,,,,,,,,,,,,,,,,,,,,,,,,,,,,,,,,,,
,,,,,,,,,,,,,,,,,199987,19,2022-01-29_12h41.51.941,lexical_decision_task_DD_L6,2021.2.3,MacIntel,60.0024001,z,1,1.5715,,,,,,,,1.5715,1,0,3,3,15,1,1001,WHAISE,z,,,,,,,,,,,,,,,,,,,,,,,,,,,,,,,,,,,,,,,,,,,,,,,,,,,,,
,,,,,,,,,,,,,,,,,199987,19,2022-01-29_12h41.51.941,lexical_decision_task_DD_L6,2021.2.3,MacIntel,60.0024001,m,1,0.9968,,,,,,,,0.9968,1,0,4,4,6,1,1001,ZOMBIE,m,,,,,,,,,,,,,,,,,,,,,,,,,,,,,,,,,,,,,,,,,,,,,,,,,,,,,
,,,,,,,,,,,,,,,,,199987,19,2022-01-29_12h41.51.941,lexical_decision_task_DD_L6,2021.2.3,MacIntel,60.0024001,z,1,1.3781,,,,,,,,1.3781,1,0,5,5,9,1,1001,FARINY,z,,,,,,,,,,,,,,,,,,,,,,,,,,,,,,,,,,,,,,,,,,,,,,,,,,,,,
,,,,,,,,,,,,,,,,,199987,19,2022-01-29_12h41.51.941,lexical_decision_task_DD_L6,2021.2.3,MacIntel,60.0024001,z,1,1.3203,,,,,,,,1.3203,1,0,6,6,8,1,1001,ASLERT,z,,,,,,,,,,,,,,,,,,,,,,,,,,,,,,,,,,,,,,,,,,,,,,,,,,,,,
,,,,,,,,,,,,,,,,,199987,19,2022-01-29_12h41.51.941,lexical_decision_task_DD_L6,2021.2.3,MacIntel,60.0024001,m,1,0.8681,,,,,,,,0.8681,1,0,7,7,1,1,1001,ADJUST,m,,,,,,,,,,,,,,,,,,,,,,,,,,,,,,,,,,,,,,,,,,,,,,,,,,,,,
,,,,,,,,,,,,,,,,,199987,19,2022-01-29_12h41.51.941,lexical_decision_task_DD_L6,2021.2.3,MacIntel,60.0024001,z,1,0.8429,,,,,,,,0.8429,1,0,8,8,13,1,1001,ROUPET,z,,,,,,,,,,,,,,,,,,,,,,,,,,,,,,,,,,,,,,,,,,,,,,,,,,,,,
,,,,,,,,,,,,,,,,,199987,19,2022-01-29_12h41.51.941,lexical_decision_task_DD_L6,2021.2.3,MacIntel,60.0024001,m,1,0.6483,,,,,,,,0.6483,1,0,9,9,2,1,1001,ALMOND,m,,,,,,,,,,,,,,,,,,,,,,,,,,,,,,,,,,,,,,,,,,,,,,,,,,,,,
,,,,,,,,,,,,,,,,,199987,19,2022-01-29_12h41.51.941,lexical_decision_task_DD_L6,2021.2.3,MacIntel,60.0024001,m,1,0.6467,,,,,,,,0.6467,1,0,10,10,3,1,1001,MATRIX,m,,,,,,,,,,,,,,,,,,,,,,,,,,,,,,,,,,,,,,,,,,,,,,,,,,,,,
,,,,,,,,,,,,,,,,,199987,19,2022-01-29_12h41.51.941,lexical_decision_task_DD_L6,2021.2.3,MacIntel,60.0024001,z,1,1.6202,,,,,,,,1.6202,1,0,11,11,11,1,1001,RASHET,z,,,,,,,,,,,,,,,,,,,,,,,,,,,,,,,,,,,,,,,,,,,,,,,,,,,,,
,,,,,,,,,,,,,,,,,199987,19,2022-01-29_12h41.51.941,lexical_decision_task_DD_L6,2021.2.3,MacIntel,60.0024001,m,1,0.6305,,,,,,,,0.6305,1,0,12,12,7,1,1001,VOLUME,m,,,,,,,,,,,,,,,,,,,,,,,,,,,,,,,,,,,,,,,,,,,,,,,,,,,,,
,,,,,,,,,,,,,,,,,199987,19,2022-01-29_12h41.51.941,lexical_decision_task_DD_L6,2021.2.3,MacIntel,60.0024001,m,1,0.7944,,,,,,,,0.7944,1,0,13,13,4,1,1001,SQUEAK,m,,,,,,,,,,,,,,,,,,,,,,,,,,,,,,,,,,,,,,,,,,,,,,,,,,,,,
,,,,,,,,,,,,,,,,,199987,19,2022-01-29_12h41.51.941,lexical_decision_task_DD_L6,2021.2.3,MacIntel,60.0024001,m,1,0.7329,,,,,,,,0.7329,1,0,14,14,0,1,1001,UTOPIA,m,,,,,,,,,,,,,,,,,,,,,,,,,,,,,,,,,,,,,,,,,,,,,,,,,,,,,
,,,,,,,,,,,,,,,,,199987,19,2022-01-29_12h41.51.941,lexical_decision_task_DD_L6,2021.2.3,MacIntel,60.0024001,m,0,1.2674,,,,,,,,1.2674,0,0,15,15,12,1,1001,SPRINY,z,,,,,,,,,,,,,,,,,,,,,,,,,,,,,,,,,,,,,,,,,,,,,,,,,,,,,
,,0.023142361,-0.416575521,1,0,0,,,,,,1,end_of_practice,"You have completed the practice trials. During the experimental trials, you will not receive feedback. 
Before you begin, please ensure that you are in a comfortable and quiet location and will not be disturbed for about 15 minutes, as we cannot use your data if you do not complete all the trials. 
 When you are ready to start the experimental trials, please press space or touch the button below.",,,199987,19,2022-01-29_12h41.51.941,lexical_decision_task_DD_L6,2021.2.3,MacIntel,60.0024001,,,,,,,,,,,,,,,,,,,,,instr_done_button,0,0,0,0,1,,,,,,,,,,,,,,,,,,,,,,,,,,,,,,,,,,,,,,,,,,,,,,,
,,,,,,,,,,,,,,,,,199987,19,2022-01-29_12h41.51.941,lexical_decision_task_DD_L6,2021.2.3,MacIntel,60.0024001,,,,,,,,,,,1.5688,1,,,,,,,,,,,,,,,z,1,1.5688,,,,,,,,0.07422309,-0.242161458,0,0,0,,0,0,0,89,1,DRIEK,LB,old,z,./images/DRIEKLB.png,,,,,,,,,,,,,,,,,,,,,
,,,,,,,,,,,,,,,,,199987,19,2022-01-29_12h41.51.941,lexical_decision_task_DD_L6,2021.2.3,MacIntel,60.0024001,,,,,,,,,,,0.6395,1,,,,,,,,,,,,,,,m,1,0.6395,,,,,,,,0.07422309,-0.242161458,0,0,0,,0,1,1,37,1,TIGER,C,old,m,./images/TIGER.png,,,,,,,,,,,,,,,,,,,,,
,,,,,,,,,,,,,,,,,199987,19,2022-01-29_12h41.51.941,lexical_decision_task_DD_L6,2021.2.3,MacIntel,60.0024001,,,,,,,,,,,0.9813,1,,,,,,,,,,,,,,,m,1,0.9813,,,,,,,,0.07422309,-0.242161458,0,0,0,,0,2,2,35,1,LLAMA,HB,old,m,./images/LLAMAHB.png,,,,,,,,,,,,,,,,,,,,,
,,,,,,,,,,,,,,,,,199987,19,2022-01-29_12h41.51.941,lexical_decision_task_DD_L6,2021.2.3,MacIntel,60.0024001,,,,,,,,,,,0.9662,1,,,,,,,,,,,,,,,z,1,0.9662,,,,,,,,0.07422309,-0.242161458,0,0,0,,0,3,3,125,1,MOOKY,LB,old,z,./images/MOOKYLB.png,,,,,,,,,,,,,,,,,,,,,
,,,,,,,,,,,,,,,,,199987,19,2022-01-29_12h41.51.941,lexical_decision_task_DD_L6,2021.2.3,MacIntel,60.0024001,,,,,,,,,,,0.9464,1,,,,,,,,,,,,,,,z,1,0.9464,,,,,,,,0.07422309,-0.242161458,0,0,0,,0,4,4,149,1,VEASE,LB,old,z,./images/VEASELB.png,,,,,,,,,,,,,,,,,,,,,
,,,,,,,,,,,,,,,,,199987,19,2022-01-29_12h41.51.941,lexical_decision_task_DD_L6,2021.2.3,MacIntel,60.0024001,,,,,,,,,,,1.0306,0,,,,,,,,,,,,,,,m,0,1.0306,,,,,,,,0.07422309,-0.242161458,0,0,0,,0,5,5,110,1,CRUNK,LB,old,z,./images/CRUNKLB.png,,,,,,,,,,,,,,,,,,,,,
,,,,,,,,,,,,,,,,,199987,19,2022-01-29_12h41.51.941,lexical_decision_task_DD_L6,2021.2.3,MacIntel,60.0024001,,,,,,,,,,,1.7604,1,,,,,,,,,,,,,,,z,1,1.7604,,,,,,,,0.07422309,-0.242161458,0,0,0,,0,6,6,94,1,BLANS,HB,old,z,./images/BLANSHB.png,,,,,,,,,,,,,,,,,,,,,
,,,,,,,,,,,,,,,,,199987,19,2022-01-29_12h41.51.941,lexical_decision_task_DD_L6,2021.2.3,MacIntel,60.0024001,,,,,,,,,,,1.0079,1,,,,,,,,,,,,,,,m,1,1.0079,,,,,,,,0.07422309,-0.242161458,0,0,0,,0,7,7,82,1,PEBBLE,C,old,m,./images/PEBBLE.png,,,,,,,,,,,,,,,,,,,,,
,,,,,,,,,,,,,,,,,199987,19,2022-01-29_12h41.51.941,lexical_decision_task_DD_L6,2021.2.3,MacIntel,60.0024001,,,,,,,,,,,1.4473,1,,,,,,,,,,,,,,,z,1,1.4473,,,,,,,,0.07422309,-0.242161458,0,0,0,,0,8,8,155,1,CANGY,LB,old,z,./images/CANGYLB.png,,,,,,,,,,,,,,,,,,,,,
,,,,,,,,,,,,,,,,,199987,19,2022-01-29_12h41.51.941,lexical_decision_task_DD_L6,2021.2.3,MacIntel,60.0024001,,,,,,,,,,,1.1793,1,,,,,,,,,,,,,,,m,1,1.1793,,,,,,,,0.07422309,-0.242161458,0,0,0,,0,9,9,12,1,BLOKE,LB,old,m,./images/BLOKELB.png,,,,,,,,,,,,,,,,,,,,,
,,,,,,,,,,,,,,,,,199987,19,2022-01-29_12h41.51.941,lexical_decision_task_DD_L6,2021.2.3,MacIntel,60.0024001,,,,,,,,,,,0.6084,1,,,,,,,,,,,,,,,m,1,0.6084,,,,,,,,0.07422309,-0.242161458,0,0,0,,0,10,10,43,1,STOOL,C,old,m,./images/STOOL.png,,,,,,,,,,,,,,,,,,,,,
,,,,,,,,,,,,,,,,,199987,19,2022-01-29_12h41.51.941,lexical_decision_task_DD_L6,2021.2.3,MacIntel,60.0024001,,,,,,,,,,,0.9135,1,,,,,,,,,,,,,,,m,1,0.9135,,,,,,,,0.07422309,-0.242161458,0,0,0,,0,11,11,50,1,PILOT,HB,old,m,./images/PILOTHB.png,,,,,,,,,,,,,,,,,,,,,
,,,,,,,,,,,,,,,,,199987,19,2022-01-29_12h41.51.941,lexical_decision_task_DD_L6,2021.2.3,MacIntel,60.0024001,,,,,,,,,,,1.3642,1,,,,,,,,,,,,,,,z,1,1.3642,,,,,,,,0.07422309,-0.242161458,0,0,0,,0,12,12,100,1,DRIBS,HB,old,z,./images/DRIBSHB.png,,,,,,,,,,,,,,,,,,,,,
,,,,,,,,,,,,,,,,,199987,19,2022-01-29_12h41.51.941,lexical_decision_task_DD_L6,2021.2.3,MacIntel,60.0024001,,,,,,,,,,,1.2444,0,,,,,,,,,,,,,,,m,0,1.2444,,,,,,,,0.07422309,-0.242161458,0,0,0,,0,13,13,109,1,BURGE,HB,old,z,./images/BURGEHB.png,,,,,,,,,,,,,,,,,,,,,
,,,,,,,,,,,,,,,,,199987,19,2022-01-29_12h41.51.941,lexical_decision_task_DD_L6,2021.2.3,MacIntel,60.0024001,,,,,,,,,,,0.9178,1,,,,,,,,,,,,,,,m,1,0.9178,,,,,,,,0.07422309,-0.242161458,0,0,0,,0,14,14,71,1,BUBBLE,HB,old,m,./images/BUBBLEHB.png,,,,,,,,,,,,,,,,,,,,,
,,,,,,,,,,,,,,,,,199987,19,2022-01-29_12h41.51.941,lexical_decision_task_DD_L6,2021.2.3,MacIntel,60.0024001,,,,,,,,,,,0.7314,1,,,,,,,,,,,,,,,z,1,0.7314,,,,,,,,0.07422309,-0.242161458,0,0,0,,0,15,15,95,1,HANTY,LB,old,z,./images/HANTYLB.png,,,,,,,,,,,,,,,,,,,,,
,,,,,,,,,,,,,,,,,199987,19,2022-01-29_12h41.51.941,lexical_decision_task_DD_L6,2021.2.3,MacIntel,60.0024001,,,,,,,,,,,0.7644,1,,,,,,,,,,,,,,,m,1,0.7644,,,,,,,,0.07422309,-0.242161458,0,0,0,,0,16,16,38,1,ENGINE,HB,old,m,./images/ENGINEHB.png,,,,,,,,,,,,,,,,,,,,,
,,,,,,,,,,,,,,,,,199987,19,2022-01-29_12h41.51.941,lexical_decision_task_DD_L6,2021.2.3,MacIntel,60.0024001,,,,,,,,,,,0.5939,1,,,,,,,,,,,,,,,m,1,0.5939,,,,,,,,0.07422309,-0.242161458,0,0,0,,0,17,17,19,1,DONKEY,C,old,m,./images/DONKEY.png,,,,,,,,,,,,,,,,,,,,,
,,,,,,,,,,,,,,,,,199987,19,2022-01-29_12h41.51.941,lexical_decision_task_DD_L6,2021.2.3,MacIntel,60.0024001,,,,,,,,,,,0.6416,1,,,,,,,,,,,,,,,m,1,0.6416,,,,,,,,0.07422309,-0.242161458,0,0,0,,0,18,18,25,1,CHALK,C,old,m,./images/CHALK.png,,,,,,,,,,,,,,,,,,,,,
,,,,,,,,,,,,,,,,,199987,19,2022-01-29_12h41.51.941,lexical_decision_task_DD_L6,2021.2.3,MacIntel,60.0024001,,,,,,,,,,,1.1247,0,,,,,,,,,,,,,,,m,0,1.1247,,,,,,,,0.07422309,-0.242161458,0,0,0,,0,19,19,162,1,LEICH,C,old,z,./images/LEICH.png,,,,,,,,,,,,,,,,,,,,,
,,,,,,,,,,,,,,,,,199987,19,2022-01-29_12h41.51.941,lexical_decision_task_DD_L6,2021.2.3,MacIntel,60.0024001,,,,,,,,,,,1.9009,1,,,,,,,,,,,,,,,z,1,1.9009,,,,,,,,0.07422309,-0.242161458,0,0,0,,0,20,20,151,1,TINKY,HB,old,z,./images/TINKYHB.png,,,,,,,,,,,,,,,,,,,,,
,,,,,,,,,,,,,,,,,199987,19,2022-01-29_12h41.51.941,lexical_decision_task_DD_L6,2021.2.3,MacIntel,60.0024001,,,,,,,,,,,0.9324,1,,,,,,,,,,,,,,,m,1,0.9324,,,,,,,,0.07422309,-0.242161458,0,0,0,,0,21,21,41,1,STREAM,HB,old,m,./images/STREAMHB.png,,,,,,,,,,,,,,,,,,,,,
,,,,,,,,,,,,,,,,,199987,19,2022-01-29_12h41.51.941,lexical_decision_task_DD_L6,2021.2.3,MacIntel,60.0024001,,,,,,,,,,,0.7775,1,,,,,,,,,,,,,,,z,1,0.7775,,,,,,,,0.07422309,-0.242161458,0,0,0,,0,22,22,111,1,HOSSE,C,old,z,./images/HOSSE.png,,,,,,,,,,,,,,,,,,,,,
,,,,,,,,,,,,,,,,,199987,19,2022-01-29_12h41.51.941,lexical_decision_task_DD_L6,2021.2.3,MacIntel,60.0024001,,,,,,,,,,,0.7469,1,,,,,,,,,,,,,,,m,1,0.7469,,,,,,,,0.07422309,-0.242161458,0,0,0,,0,23,23,53,1,POSTER,HB,old,m,./images/POSTERHB.png,,,,,,,,,,,,,,,,,,,,,
,,,,,,,,,,,,,,,,,199987,19,2022-01-29_12h41.51.941,lexical_decision_task_DD_L6,2021.2.3,MacIntel,60.0024001,,,,,,,,,,,0.7798,1,,,,,,,,,,,,,,,m,1,0.7798,,,,,,,,0.07422309,-0.242161458,0,0,0,,0,24,24,17,1,PARADE,HB,old,m,./images/PARADEHB.png,,,,,,,,,,,,,,,,,,,,,
,,,,,,,,,,,,,,,,,199987,19,2022-01-29_12h41.51.941,lexical_decision_task_DD_L6,2021.2.3,MacIntel,60.0024001,,,,,,,,,,,0.9978,1,,,,,,,,,,,,,,,m,1,0.9978,,,,,,,,0.07422309,-0.242161458,0,0,0,,0,25,25,2,1,STOVE,HB,old,m,./images/STOVEHB.png,,,,,,,,,,,,,,,,,,,,,
,,,,,,,,,,,,,,,,,199987,19,2022-01-29_12h41.51.941,lexical_decision_task_DD_L6,2021.2.3,MacIntel,60.0024001,,,,,,,,,,,0.5937,1,,,,,,,,,,,,,,,m,1,0.5937,,,,,,,,0.07422309,-0.242161458,0,0,0,,0,26,26,13,1,BUNNY,C,old,m,./images/BUNNY.png,,,,,,,,,,,,,,,,,,,,,
,,,,,,,,,,,,,,,,,199987,19,2022-01-29_12h41.51.941,lexical_decision_task_DD_L6,2021.2.3,MacIntel,60.0024001,,,,,,,,,,,0.5482,1,,,,,,,,,,,,,,,m,1,0.5482,,,,,,,,0.07422309,-0.242161458,0,0,0,,0,27,27,75,1,HAMMER,LB,old,m,./images/HAMMERLB.png,,,,,,,,,,,,,,,,,,,,,
,,,,,,,,,,,,,,,,,199987,19,2022-01-29_12h41.51.941,lexical_decision_task_DD_L6,2021.2.3,MacIntel,60.0024001,,,,,,,,,,,0.5441,1,,,,,,,,,,,,,,,m,1,0.5441,,,,,,,,0.07422309,-0.242161458,0,0,0,,0,28,28,63,1,BAKER,LB,old,m,./images/BAKERLB.png,,,,,,,,,,,,,,,,,,,,,
,,,,,,,,,,,,,,,,,199987,19,2022-01-29_12h41.51.941,lexical_decision_task_DD_L6,2021.2.3,MacIntel,60.0024001,,,,,,,,,,,0.7983,1,,,,,,,,,,,,,,,m,1,0.7983,,,,,,,,0.07422309,-0.242161458,0,0,0,,0,29,29,3,1,CRATER,LB,old,m,./images/CRATERLB.png,,,,,,,,,,,,,,,,,,,,,
,,,,,,,,,,,,,,,,,199987,19,2022-01-29_12h41.51.941,lexical_decision_task_DD_L6,2021.2.3,MacIntel,60.0024001,,,,,,,,,,,0.9101,1,,,,,,,,,,,,,,,z,1,0.9101,,,,,,,,0.07422309,-0.242161458,0,0,0,,0,30,30,84,1,HAXES,C,old,z,./images/HAXES.png,,,,,,,,,,,,,,,,,,,,,
,,,,,,,,,,,,,,,,,199987,19,2022-01-29_12h41.51.941,lexical_decision_task_DD_L6,2021.2.3,MacIntel,60.0024001,,,,,,,,,,,0.681,1,,,,,,,,,,,,,,,m,1,0.681,,,,,,,,0.07422309,-0.242161458,0,0,0,,0,31,31,15,1,COLLAR,LB,old,m,./images/COLLARLB.png,,,,,,,,,,,,,,,,,,,,,
,,,,,,,,,,,,,,,,,199987,19,2022-01-29_12h41.51.941,lexical_decision_task_DD_L6,2021.2.3,MacIntel,60.0024001,,,,,,,,,,,0.7141,1,,,,,,,,,,,,,,,m,1,0.7141,,,,,,,,0.07422309,-0.242161458,0,0,0,,0,32,32,5,1,BAMBOO,HB,old,m,./images/BAMBOOHB.png,,,,,,,,,,,,,,,,,,,,,
,,,,,,,,,,,,,,,,,199987,19,2022-01-29_12h41.51.941,lexical_decision_task_DD_L6,2021.2.3,MacIntel,60.0024001,,,,,,,,,,,1.5317,1,,,,,,,,,,,,,,,z,1,1.5317,,,,,,,,0.07422309,-0.242161458,0,0,0,,0,33,33,103,1,FLORT,HB,old,z,./images/FLORTHB.png,,,,,,,,,,,,,,,,,,,,,
,,,,,,,,,,,,,,,,,199987,19,2022-01-29_12h41.51.941,lexical_decision_task_DD_L6,2021.2.3,MacIntel,60.0024001,,,,,,,,,,,1.465,0,,,,,,,,,,,,,,,m,0,1.465,,,,,,,,0.07422309,-0.242161458,0,0,0,,0,34,34,133,1,POWDY,HB,old,z,./images/POWDYHB.png,,,,,,,,,,,,,,,,,,,,,
,,,,,,,,,,,,,,,,,199987,19,2022-01-29_12h41.51.941,lexical_decision_task_DD_L6,2021.2.3,MacIntel,60.0024001,,,,,,,,,,,0.6779,1,,,,,,,,,,,,,,,m,1,0.6779,,,,,,,,0.07422309,-0.242161458,0,0,0,,0,35,35,58,1,CANOE,C,old,m,./images/CANOE.png,,,,,,,,,,,,,,,,,,,,,
,,,,,,,,,,,,,,,,,199987,19,2022-01-29_12h41.51.941,lexical_decision_task_DD_L6,2021.2.3,MacIntel,60.0024001,,,,,,,,,,,0.4741,1,,,,,,,,,,,,,,,m,1,0.4741,,,,,,,,0.07422309,-0.242161458,0,0,0,,0,36,36,31,1,STEAK,C,old,m,./images/STEAK.png,,,,,,,,,,,,,,,,,,,,,
,,,,,,,,,,,,,,,,,199987,19,2022-01-29_12h41.51.941,lexical_decision_task_DD_L6,2021.2.3,MacIntel,60.0024001,,,,,,,,,,,0.7408,1,,,,,,,,,,,,,,,z,1,0.7408,,,,,,,,0.07422309,-0.242161458,0,0,0,,0,37,37,99,1,BACKY,C,old,z,./images/BACKY.png,,,,,,,,,,,,,,,,,,,,,
,,,,,,,,,,,,,,,,,199987,19,2022-01-29_12h41.51.941,lexical_decision_task_DD_L6,2021.2.3,MacIntel,60.0024001,,,,,,,,,,,0.565,1,,,,,,,,,,,,,,,m,1,0.565,,,,,,,,0.07422309,-0.242161458,0,0,0,,0,38,38,16,1,GRAPE,C,old,m,./images/GRAPE.png,,,,,,,,,,,,,,,,,,,,,
,,,,,,,,,,,,,,,,,199987,19,2022-01-29_12h41.51.941,lexical_decision_task_DD_L6,2021.2.3,MacIntel,60.0024001,,,,,,,,,,,0.8112,1,,,,,,,,,,,,,,,z,1,0.8112,,,,,,,,0.07422309,-0.242161458,0,0,0,,0,39,39,122,1,BLOOT,LB,old,z,./images/BLOOTLB.png,,,,,,,,,,,,,,,,,,,,,
,,,,,,,,,,,,,,,,,199987,19,2022-01-29_12h41.51.941,lexical_decision_task_DD_L6,2021.2.3,MacIntel,60.0024001,,,,,,,,,,,0.5817,1,,,,,,,,,,,,,,,m,1,0.5817,,,,,,,,0.07422309,-0.242161458,0,0,0,,0,40,40,69,1,ARROW,LB,old,m,./images/ARROWLB.png,,,,,,,,,,,,,,,,,,,,,
,,,,,,,,,,,,,,,,,199987,19,2022-01-29_12h41.51.941,lexical_decision_task_DD_L6,2021.2.3,MacIntel,60.0024001,,,,,,,,,,,0.8182,1,,,,,,,,,,,,,,,z,1,0.8182,,,,,,,,0.07422309,-0.242161458,0,0,0,space,0,41,41,124,1,TUNCH,HB,old,z,./images/TUNCHHB.png,3.381,,,,,,,,,,,,,,,,,,,,
,,,,,,,,,,,,,,,,,199987,19,2022-01-29_12h41.51.941,lexical_decision_task_DD_L6,2021.2.3,MacIntel,60.0024001,,,,,,,,,,,0.777,1,,,,,,,,,,,,,,,z,1,0.777,,,,,,,,0.07422309,-0.242161458,0,0,0,,0,42,42,141,1,PLEET,C,old,z,./images/PLEET.png,,,,,,,,,,,,,,,,,,,,,
,,,,,,,,,,,,,,,,,199987,19,2022-01-29_12h41.51.941,lexical_decision_task_DD_L6,2021.2.3,MacIntel,60.0024001,,,,,,,,,,,1.047,1,,,,,,,,,,,,,,,z,1,1.047,,,,,,,,0.07422309,-0.242161458,0,0,0,,0,43,43,85,1,CHULK,HB,old,z,./images/CHULKHB.png,,,,,,,,,,,,,,,,,,,,,
,,,,,,,,,,,,,,,,,199987,19,2022-01-29_12h41.51.941,lexical_decision_task_DD_L6,2021.2.3,MacIntel,60.0024001,,,,,,,,,,,0.5829,1,,,,,,,,,,,,,,,m,1,0.5829,,,,,,,,0.07422309,-0.242161458,0,0,0,,0,44,44,26,1,CLOUD,HB,old,m,./images/CLOUDHB.png,,,,,,,,,,,,,,,,,,,,,
,,,,,,,,,,,,,,,,,199987,19,2022-01-29_12h41.51.941,lexical_decision_task_DD_L6,2021.2.3,MacIntel,60.0024001,,,,,,,,,,,1.2646,1,,,,,,,,,,,,,,,z,1,1.2646,,,,,,,,0.07422309,-0.242161458,0,0,0,,0,45,45,160,1,VEETS,HB,old,z,./images/VEETSHB.png,,,,,,,,,,,,,,,,,,,,,
,,,,,,,,,,,,,,,,,199987,19,2022-01-29_12h41.51.941,lexical_decision_task_DD_L6,2021.2.3,MacIntel,60.0024001,,,,,,,,,,,1.1353,1,,,,,,,,,,,,,,,z,1,1.1353,,,,,,,,0.07422309,-0.242161458,0,0,0,,0,46,46,92,1,PAIMS,LB,old,z,./images/PAIMSLB.png,,,,,,,,,,,,,,,,,,,,,
,,,,,,,,,,,,,,,,,199987,19,2022-01-29_12h41.51.941,lexical_decision_task_DD_L6,2021.2.3,MacIntel,60.0024001,,,,,,,,,,,0.8633,1,,,,,,,,,,,,,,,z,1,0.8633,,,,,,,,0.07422309,-0.242161458,0,0,0,,0,47,47,116,1,BALGY,LB,old,z,./images/BALGYLB.png,,,,,,,,,,,,,,,,,,,,,
,,,,,,,,,,,,,,,,,199987,19,2022-01-29_12h41.51.941,lexical_decision_task_DD_L6,2021.2.3,MacIntel,60.0024001,,,,,,,,,,,0.7456,1,,,,,,,,,,,,,,,m,1,0.7456,,,,,,,,0.07422309,-0.242161458,0,0,0,,0,48,48,57,1,FERRY,LB,old,m,./images/FERRYLB.png,,,,,,,,,,,,,,,,,,,,,
,,,,,,,,,,,,,,,,,199987,19,2022-01-29_12h41.51.941,lexical_decision_task_DD_L6,2021.2.3,MacIntel,60.0024001,,,,,,,,,,,0.8333,1,,,,,,,,,,,,,,,z,1,0.8333,,,,,,,,0.07422309,-0.242161458,0,0,0,,0,49,49,140,1,DOVET,LB,old,z,./images/DOVETLB.png,,,,,,,,,,,,,,,,,,,,,
,,,,,,,,,,,,,,,,,199987,19,2022-01-29_12h41.51.941,lexical_decision_task_DD_L6,2021.2.3,MacIntel,60.0024001,,,,,,,,,,,1.3458,1,,,,,,,,,,,,,,,z,1,1.3458,,,,,,,,0.07422309,-0.242161458,0,0,0,,0,50,50,93,1,SMONE,C,old,z,./images/SMONE.png,,,,,,,,,,,,,,,,,,,,,
,,,,,,,,,,,,,,,,,199987,19,2022-01-29_12h41.51.941,lexical_decision_task_DD_L6,2021.2.3,MacIntel,60.0024001,,,,,,,,,,,0.5297,1,,,,,,,,,,,,,,,m,1,0.5297,,,,,,,,0.07422309,-0.242161458,0,0,0,,0,51,51,27,1,BUTTER,LB,old,m,./images/BUTTERLB.png,,,,,,,,,,,,,,,,,,,,,
,,,,,,,,,,,,,,,,,199987,19,2022-01-29_12h41.51.941,lexical_decision_task_DD_L6,2021.2.3,MacIntel,60.0024001,,,,,,,,,,,0.6303,1,,,,,,,,,,,,,,,m,1,0.6303,,,,,,,,0.07422309,-0.242161458,0,0,0,,0,52,52,36,1,BOILER,LB,old,m,./images/BOILERLB.png,,,,,,,,,,,,,,,,,,,,,
,,,,,,,,,,,,,,,,,199987,19,2022-01-29_12h41.51.941,lexical_decision_task_DD_L6,2021.2.3,MacIntel,60.0024001,,,,,,,,,,,0.5129,1,,,,,,,,,,,,,,,m,1,0.5129,,,,,,,,0.07422309,-0.242161458,0,0,0,,0,53,53,45,1,MONKEY,LB,old,m,./images/MONKEYLB.png,,,,,,,,,,,,,,,,,,,,,
,,,,,,,,,,,,,,,,,199987,19,2022-01-29_12h41.51.941,lexical_decision_task_DD_L6,2021.2.3,MacIntel,60.0024001,,,,,,,,,,,0.5473,1,,,,,,,,,,,,,,,m,1,0.5473,,,,,,,,0.07422309,-0.242161458,0,0,0,,0,54,54,48,1,SHIELD,LB,old,m,./images/SHIELDLB.png,,,,,,,,,,,,,,,,,,,,,
,,,,,,,,,,,,,,,,,199987,19,2022-01-29_12h41.51.941,lexical_decision_task_DD_L6,2021.2.3,MacIntel,60.0024001,,,,,,,,,,,0.6804,1,,,,,,,,,,,,,,,z,1,0.6804,,,,,,,,0.07422309,-0.242161458,0,0,0,,0,55,55,107,1,FASKS,LB,old,z,./images/FASKSLB.png,,,,,,,,,,,,,,,,,,,,,
,,,,,,,,,,,,,,,,,199987,19,2022-01-29_12h41.51.941,lexical_decision_task_DD_L6,2021.2.3,MacIntel,60.0024001,,,,,,,,,,,0.9649,1,,,,,,,,,,,,,,,m,1,0.9649,,,,,,,,0.07422309,-0.242161458,0,0,0,,0,56,56,59,1,BRUSH,HB,old,m,./images/BRUSHHB.png,,,,,,,,,,,,,,,,,,,,,
,,,,,,,,,,,,,,,,,199987,19,2022-01-29_12h41.51.941,lexical_decision_task_DD_L6,2021.2.3,MacIntel,60.0024001,,,,,,,,,,,0.7448,1,,,,,,,,,,,,,,,m,1,0.7448,,,,,,,,0.07422309,-0.242161458,0,0,0,,0,57,57,14,1,FENCE,HB,old,m,./images/FENCEHB.png,,,,,,,,,,,,,,,,,,,,,
,,,,,,,,,,,,,,,,,199987,19,2022-01-29_12h41.51.941,lexical_decision_task_DD_L6,2021.2.3,MacIntel,60.0024001,,,,,,,,,,,0.5949,1,,,,,,,,,,,,,,,m,1,0.5949,,,,,,,,0.07422309,-0.242161458,0,0,0,,0,58,58,34,1,RAZOR,C,old,m,./images/RAZOR.png,,,,,,,,,,,,,,,,,,,,,
,,,,,,,,,,,,,,,,,199987,19,2022-01-29_12h41.51.941,lexical_decision_task_DD_L6,2021.2.3,MacIntel,60.0024001,,,,,,,,,,,0.6768,1,,,,,,,,,,,,,,,z,1,0.6768,,,,,,,,0.07422309,-0.242161458,0,0,0,,0,59,59,147,1,ZOLES,C,old,z,./images/ZOLES.png,,,,,,,,,,,,,,,,,,,,,
,,,,,,,,,,,,,,,,,199987,19,2022-01-29_12h41.51.941,lexical_decision_task_DD_L6,2021.2.3,MacIntel,60.0024001,,,,,,,,,,,0.5442,1,,,,,,,,,,,,,,,m,1,0.5442,,,,,,,,0.07422309,-0.242161458,0,0,0,,0,60,60,4,1,BOXER,C,old,m,./images/BOXER.png,,,,,,,,,,,,,,,,,,,,,
,,,,,,,,,,,,,,,,,199987,19,2022-01-29_12h41.51.941,lexical_decision_task_DD_L6,2021.2.3,MacIntel,60.0024001,,,,,,,,,,,0.5474,1,,,,,,,,,,,,,,,m,1,0.5474,,,,,,,,0.07422309,-0.242161458,0,0,0,,0,61,61,60,1,CURRY,LB,old,m,./images/CURRYLB.png,,,,,,,,,,,,,,,,,,,,,
,,,,,,,,,,,,,,,,,199987,19,2022-01-29_12h41.51.941,lexical_decision_task_DD_L6,2021.2.3,MacIntel,60.0024001,,,,,,,,,,,0.6442,1,,,,,,,,,,,,,,,m,1,0.6442,,,,,,,,0.07422309,-0.242161458,0,0,0,,0,62,62,11,1,MEDAL,HB,old,m,./images/MEDALHB.png,,,,,,,,,,,,,,,,,,,,,
,,,,,,,,,,,,,,,,,199987,19,2022-01-29_12h41.51.941,lexical_decision_task_DD_L6,2021.2.3,MacIntel,60.0024001,,,,,,,,,,,1.0485,1,,,,,,,,,,,,,,,m,1,1.0485,,,,,,,,0.07422309,-0.242161458,0,0,0,,0,63,63,32,1,HOCKEY,HB,old,m,./images/HOCKEYHB.png,,,,,,,,,,,,,,,,,,,,,
,,,,,,,,,,,,,,,,,199987,19,2022-01-29_12h41.51.941,lexical_decision_task_DD_L6,2021.2.3,MacIntel,60.0024001,,,,,,,,,,,0.796,1,,,,,,,,,,,,,,,z,1,0.796,,,,,,,,0.07422309,-0.242161458,0,0,0,,0,64,64,114,1,RIKES,C,old,z,./images/RIKES.png,,,,,,,,,,,,,,,,,,,,,
,,,,,,,,,,,,,,,,,199987,19,2022-01-29_12h41.51.941,lexical_decision_task_DD_L6,2021.2.3,MacIntel,60.0024001,,,,,,,,,,,0.5643,1,,,,,,,,,,,,,,,m,1,0.5643,,,,,,,,0.07422309,-0.242161458,0,0,0,,0,65,65,0,1,WALNUT,LB,old,m,./images/WALNUTLB.png,,,,,,,,,,,,,,,,,,,,,
,,,,,,,,,,,,,,,,,199987,19,2022-01-29_12h41.51.941,lexical_decision_task_DD_L6,2021.2.3,MacIntel,60.0024001,,,,,,,,,,,1.5625,1,,,,,,,,,,,,,,,z,1,1.5625,,,,,,,,0.07422309,-0.242161458,0,0,0,,0,66,66,118,1,BAVEL,HB,old,z,./images/BAVELHB.png,,,,,,,,,,,,,,,,,,,,,
,,,,,,,,,,,,,,,,,199987,19,2022-01-29_12h41.51.941,lexical_decision_task_DD_L6,2021.2.3,MacIntel,60.0024001,,,,,,,,,,,2.3468,1,,,,,,,,,,,,,,,z,1,2.3468,,,,,,,,0.07422309,-0.242161458,0,0,0,,0,67,67,88,1,GLUSH,HB,old,z,./images/GLUSHHB.png,,,,,,,,,,,,,,,,,,,,,
,,,,,,,,,,,,,,,,,199987,19,2022-01-29_12h41.51.941,lexical_decision_task_DD_L6,2021.2.3,MacIntel,60.0024001,,,,,,,,,,,0.8183,1,,,,,,,,,,,,,,,z,1,0.8183,,,,,,,,0.07422309,-0.242161458,0,0,0,,0,68,68,86,1,AIFED,LB,old,z,./images/AIFEDLB.png,,,,,,,,,,,,,,,,,,,,,
,,,,,,,,,,,,,,,,,199987,19,2022-01-29_12h41.51.941,lexical_decision_task_DD_L6,2021.2.3,MacIntel,60.0024001,,,,,,,,,,,0.5438,1,,,,,,,,,,,,,,,m,1,0.5438,,,,,,,,0.07422309,-0.242161458,0,0,0,,0,69,69,28,1,CASINO,C,old,m,./images/CASINO.png,,,,,,,,,,,,,,,,,,,,,
,,,,,,,,,,,,,,,,,199987,19,2022-01-29_12h41.51.941,lexical_decision_task_DD_L6,2021.2.3,MacIntel,60.0024001,,,,,,,,,,,0.6003,1,,,,,,,,,,,,,,,m,1,0.6003,,,,,,,,0.07422309,-0.242161458,0,0,0,,0,70,70,29,1,PISTOL,HB,old,m,./images/PISTOLHB.png,,,,,,,,,,,,,,,,,,,,,
,,,,,,,,,,,,,,,,,199987,19,2022-01-29_12h41.51.941,lexical_decision_task_DD_L6,2021.2.3,MacIntel,60.0024001,,,,,,,,,,,0.9131,1,,,,,,,,,,,,,,,z,1,0.9131,,,,,,,,0.07422309,-0.242161458,0,0,0,,0,71,71,164,1,SGREW,LB,old,z,./images/SGREWLB.png,,,,,,,,,,,,,,,,,,,,,
,,,,,,,,,,,,,,,,,199987,19,2022-01-29_12h41.51.941,lexical_decision_task_DD_L6,2021.2.3,MacIntel,60.0024001,,,,,,,,,,,0.5098,1,,,,,,,,,,,,,,,m,1,0.5098,,,,,,,,0.07422309,-0.242161458,0,0,0,,0,72,72,7,1,WAGON,C,old,m,./images/WAGON.png,,,,,,,,,,,,,,,,,,,,,
,,,,,,,,,,,,,,,,,199987,19,2022-01-29_12h41.51.941,lexical_decision_task_DD_L6,2021.2.3,MacIntel,60.0024001,,,,,,,,,,,0.7414,1,,,,,,,,,,,,,,,z,1,0.7414,,,,,,,,0.07422309,-0.242161458,0,0,0,,0,73,73,138,1,PLICE,C,old,z,./images/PLICE.png,,,,,,,,,,,,,,,,,,,,,
,,,,,,,,,,,,,,,,,199987,19,2022-01-29_12h41.51.941,lexical_decision_task_DD_L6,2021.2.3,MacIntel,60.0024001,,,,,,,,,,,0.5799,1,,,,,,,,,,,,,,,m,1,0.5799,,,,,,,,0.07422309,-0.242161458,0,0,0,,0,74,74,72,1,FLASK,LB,old,m,./images/FLASKLB.png,,,,,,,,,,,,,,,,,,,,,
,,,,,,,,,,,,,,,,,199987,19,2022-01-29_12h41.51.941,lexical_decision_task_DD_L6,2021.2.3,MacIntel,60.0024001,,,,,,,,,,,0.5904,1,,,,,,,,,,,,,,,m,1,0.5904,,,,,,,,0.07422309,-0.242161458,0,0,0,,0,75,75,22,1,CLOWN,C,old,m,./images/CLOWN.png,,,,,,,,,,,,,,,,,,,,,
,,,,,,,,,,,,,,,,,199987,19,2022-01-29_12h41.51.941,lexical_decision_task_DD_L6,2021.2.3,MacIntel,60.0024001,,,,,,,,,,,0.5825,1,,,,,,,,,,,,,,,m,1,0.5825,,,,,,,,0.07422309,-0.242161458,0,0,0,,0,76,76,39,1,CANDY,LB,old,m,./images/CANDYLB.png,,,,,,,,,,,,,,,,,,,,,
,,,,,,,,,,,,,,,,,199987,19,2022-01-29_12h41.51.941,lexical_decision_task_DD_L6,2021.2.3,MacIntel,60.0024001,,,,,,,,,,,0.6312,1,,,,,,,,,,,,,,,m,1,0.6312,,,,,,,,0.07422309,-0.242161458,0,0,0,,0,77,77,66,1,STATUE,LB,old,m,./images/STATUELB.png,,,,,,,,,,,,,,,,,,,,,
,,,,,,,,,,,,,,,,,199987,19,2022-01-29_12h41.51.941,lexical_decision_task_DD_L6,2021.2.3,MacIntel,60.0024001,,,,,,,,,,,0.6942,1,,,,,,,,,,,,,,,z,1,0.6942,,,,,,,,0.07422309,-0.242161458,0,0,0,,0,78,78,117,1,STEEG,C,old,z,./images/STEEG.png,,,,,,,,,,,,,,,,,,,,,
,,,,,,,,,,,,,,,,,199987,19,2022-01-29_12h41.51.941,lexical_decision_task_DD_L6,2021.2.3,MacIntel,60.0024001,,,,,,,,,,,0.7962,1,,,,,,,,,,,,,,,z,1,0.7962,,,,,,,,0.07422309,-0.242161458,0,0,0,,0,79,79,105,1,MOKER,C,old,z,./images/MOKER.png,,,,,,,,,,,,,,,,,,,,,
,,,,,,,,,,,,,,,,,199987,19,2022-01-29_12h41.51.941,lexical_decision_task_DD_L6,2021.2.3,MacIntel,60.0024001,,,,,,,,,,,0.8112,1,,,,,,,,,,,,,,,z,1,0.8112,,,,,,,,0.07422309,-0.242161458,0,0,0,,0,80,80,108,1,GRUET,C,old,z,./images/GRUET.png,,,,,,,,,,,,,,,,,,,,,
,,,,,,,,,,,,,,,,,199987,19,2022-01-29_12h41.51.941,lexical_decision_task_DD_L6,2021.2.3,MacIntel,60.0024001,,,,,,,,,,,0.6616,1,,,,,,,,,,,,,,,z,1,0.6616,,,,,,,,0.07422309,-0.242161458,0,0,0,,0,81,81,96,1,KEAMS,C,old,z,./images/KEAMS.png,,,,,,,,,,,,,,,,,,,,,
,,,,,,,,,,,,,,,,,199987,19,2022-01-29_12h41.51.941,lexical_decision_task_DD_L6,2021.2.3,MacIntel,60.0024001,,,,,,,,,,,0.78,1,,,,,,,,,,,,,,,m,1,0.78,,,,,,,,0.07422309,-0.242161458,0,0,0,,0,82,82,47,1,LAGOON,HB,old,m,./images/LAGOONHB.png,,,,,,,,,,,,,,,,,,,,,
,,,,,,,,,,,,,,,,,199987,19,2022-01-29_12h41.51.941,lexical_decision_task_DD_L6,2021.2.3,MacIntel,60.0024001,,,,,,,,,,,2.0799,0,,,,,,,,,,,,,,,m,0,2.0799,,,,,,,,0.07422309,-0.242161458,0,0,0,space,0,83,83,130,1,CRILL,HB,old,z,./images/CRILLHB.png,5.0509,,,,,,,,,,,,,,,,,,,,
,,,,,,,,,,,,,,,,,199987,19,2022-01-29_12h41.51.941,lexical_decision_task_DD_L6,2021.2.3,MacIntel,60.0024001,,,,,,,,,,,0.7494,0,,,,,,,,,,,,,,,m,0,0.7494,,,,,,,,0.07422309,-0.242161458,0,0,0,,0,84,84,166,1,SHORY,HB,old,z,./images/SHORYHB.png,,,,,,,,,,,,,,,,,,,,,
,,,,,,,,,,,,,,,,,199987,19,2022-01-29_12h41.51.941,lexical_decision_task_DD_L6,2021.2.3,MacIntel,60.0024001,,,,,,,,,,,0.5464,1,,,,,,,,,,,,,,,m,1,0.5464,,,,,,,,0.07422309,-0.242161458,0,0,0,,0,85,85,78,1,BROOM,LB,old,m,./images/BROOMLB.png,,,,,,,,,,,,,,,,,,,,,
,,,,,,,,,,,,,,,,,199987,19,2022-01-29_12h41.51.941,lexical_decision_task_DD_L6,2021.2.3,MacIntel,60.0024001,,,,,,,,,,,1.0186,1,,,,,,,,,,,,,,,z,1,1.0186,,,,,,,,0.07422309,-0.242161458,0,0,0,,0,86,86,136,1,WERVE,HB,old,z,./images/WERVEHB.png,,,,,,,,,,,,,,,,,,,,,
,,,,,,,,,,,,,,,,,199987,19,2022-01-29_12h41.51.941,lexical_decision_task_DD_L6,2021.2.3,MacIntel,60.0024001,,,,,,,,,,,0.7765,1,,,,,,,,,,,,,,,m,1,0.7765,,,,,,,,0.07422309,-0.242161458,0,0,0,,0,87,87,68,1,VALLEY,HB,old,m,./images/VALLEYHB.png,,,,,,,,,,,,,,,,,,,,,
,,,,,,,,,,,,,,,,,199987,19,2022-01-29_12h41.51.941,lexical_decision_task_DD_L6,2021.2.3,MacIntel,60.0024001,,,,,,,,,,,0.646,1,,,,,,,,,,,,,,,z,1,0.646,,,,,,,,0.07422309,-0.242161458,0,0,0,,0,88,88,167,1,ZONET,LB,old,z,./images/ZONETLB.png,,,,,,,,,,,,,,,,,,,,,
,,,,,,,,,,,,,,,,,199987,19,2022-01-29_12h41.51.941,lexical_decision_task_DD_L6,2021.2.3,MacIntel,60.0024001,,,,,,,,,,,2.2383,1,,,,,,,,,,,,,,,m,1,2.2383,,,,,,,,0.07422309,-0.242161458,0,0,0,,0,89,89,83,1,WHISKY,HB,old,m,./images/WHISKYHB.png,,,,,,,,,,,,,,,,,,,,,
,,,,,,,,,,,,,,,,,199987,19,2022-01-29_12h41.51.941,lexical_decision_task_DD_L6,2021.2.3,MacIntel,60.0024001,,,,,,,,,,,1.0865,1,,,,,,,,,,,,,,,z,1,1.0865,,,,,,,,0.07422309,-0.242161458,0,0,0,,0,90,90,154,1,THINT,HB,old,z,./images/THINTHB.png,,,,,,,,,,,,,,,,,,,,,
,,,,,,,,,,,,,,,,,199987,19,2022-01-29_12h41.51.941,lexical_decision_task_DD_L6,2021.2.3,MacIntel,60.0024001,,,,,,,,,,,0.546,1,,,,,,,,,,,,,,,m,1,0.546,,,,,,,,0.07422309,-0.242161458,0,0,0,,0,91,91,54,1,CHERRY,LB,old,m,./images/CHERRYLB.png,,,,,,,,,,,,,,,,,,,,,
,,,,,,,,,,,,,,,,,199987,19,2022-01-29_12h41.51.941,lexical_decision_task_DD_L6,2021.2.3,MacIntel,60.0024001,,,,,,,,,,,0.8851,1,,,,,,,,,,,,,,,z,1,0.8851,,,,,,,,0.07422309,-0.242161458,0,0,0,,0,92,92,128,1,GRIFT,LB,old,z,./images/GRIFTLB.png,,,,,,,,,,,,,,,,,,,,,
,,,,,,,,,,,,,,,,,199987,19,2022-01-29_12h41.51.941,lexical_decision_task_DD_L6,2021.2.3,MacIntel,60.0024001,,,,,,,,,,,1.1663,1,,,,,,,,,,,,,,,z,1,1.1663,,,,,,,,0.07422309,-0.242161458,0,0,0,,0,93,93,97,1,CHIDS,HB,old,z,./images/CHIDSHB.png,,,,,,,,,,,,,,,,,,,,,
,,,,,,,,,,,,,,,,,199987,19,2022-01-29_12h41.51.941,lexical_decision_task_DD_L6,2021.2.3,MacIntel,60.0024001,,,,,,,,,,,0.8977,0,,,,,,,,,,,,,,,m,0,0.8977,,,,,,,,0.07422309,-0.242161458,0,0,0,,0,94,94,91,1,SHENS,HB,old,z,./images/SHENSHB.png,,,,,,,,,,,,,,,,,,,,,
,,,,,,,,,,,,,,,,,199987,19,2022-01-29_12h41.51.941,lexical_decision_task_DD_L6,2021.2.3,MacIntel,60.0024001,,,,,,,,,,,0.9318,1,,,,,,,,,,,,,,,z,1,0.9318,,,,,,,,0.07422309,-0.242161458,0,0,0,,0,95,95,159,1,CUDDY,C,old,z,./images/CUDDY.png,,,,,,,,,,,,,,,,,,,,,
,,,,,,,,,,,,,,,,,199987,19,2022-01-29_12h41.51.941,lexical_decision_task_DD_L6,2021.2.3,MacIntel,60.0024001,,,,,,,,,,,0.6749,1,,,,,,,,,,,,,,,z,1,0.6749,,,,,,,,0.07422309,-0.242161458,0,0,0,,0,96,96,87,1,TRING,C,old,z,./images/TRING.png,,,,,,,,,,,,,,,,,,,,,
,,,,,,,,,,,,,,,,,199987,19,2022-01-29_12h41.51.941,lexical_decision_task_DD_L6,2021.2.3,MacIntel,60.0024001,,,,,,,,,,,1.5344,1,,,,,,,,,,,,,,,m,1,1.5344,,,,,,,,0.07422309,-0.242161458,0,0,0,,0,97,97,62,1,MAMMAL,HB,old,m,./images/MAMMALHB.png,,,,,,,,,,,,,,,,,,,,,
,,,,,,,,,,,,,,,,,199987,19,2022-01-29_12h41.51.941,lexical_decision_task_DD_L6,2021.2.3,MacIntel,60.0024001,,,,,,,,,,,1.01,1,,,,,,,,,,,,,,,z,1,1.01,,,,,,,,0.07422309,-0.242161458,0,0,0,,0,98,98,144,1,NAIRY,C,old,z,./images/NAIRY.png,,,,,,,,,,,,,,,,,,,,,
,,,,,,,,,,,,,,,,,199987,19,2022-01-29_12h41.51.941,lexical_decision_task_DD_L6,2021.2.3,MacIntel,60.0024001,,,,,,,,,,,0.6313,1,,,,,,,,,,,,,,,m,1,0.6313,,,,,,,,0.07422309,-0.242161458,0,0,0,,0,99,99,44,1,BASKET,HB,old,m,./images/BASKETHB.png,,,,,,,,,,,,,,,,,,,,,
,,,,,,,,,,,,,,,,,199987,19,2022-01-29_12h41.51.941,lexical_decision_task_DD_L6,2021.2.3,MacIntel,60.0024001,,,,,,,,,,,0.7815,1,,,,,,,,,,,,,,,z,1,0.7815,,,,,,,,0.07422309,-0.242161458,0,0,0,,0,100,100,134,1,TROSS,LB,old,z,./images/TROSSLB.png,,,,,,,,,,,,,,,,,,,,,
,,,,,,,,,,,,,,,,,199987,19,2022-01-29_12h41.51.941,lexical_decision_task_DD_L6,2021.2.3,MacIntel,60.0024001,,,,,,,,,,,0.5245,1,,,,,,,,,,,,,,,m,1,0.5245,,,,,,,,0.07422309,-0.242161458,0,0,0,,0,101,101,76,1,MIDGET,C,old,m,./images/MIDGET.png,,,,,,,,,,,,,,,,,,,,,
,,,,,,,,,,,,,,,,,199987,19,2022-01-29_12h41.51.941,lexical_decision_task_DD_L6,2021.2.3,MacIntel,60.0024001,,,,,,,,,,,0.5976,1,,,,,,,,,,,,,,,m,1,0.5976,,,,,,,,0.07422309,-0.242161458,0,0,0,,0,102,102,55,1,ALLEY,C,old,m,./images/ALLEY.png,,,,,,,,,,,,,,,,,,,,,
,,,,,,,,,,,,,,,,,199987,19,2022-01-29_12h41.51.941,lexical_decision_task_DD_L6,2021.2.3,MacIntel,60.0024001,,,,,,,,,,,0.5634,1,,,,,,,,,,,,,,,m,1,0.5634,,,,,,,,0.07422309,-0.242161458,0,0,0,,0,103,103,52,1,DESERT,C,old,m,./images/DESERT.png,,,,,,,,,,,,,,,,,,,,,
,,,,,,,,,,,,,,,,,199987,19,2022-01-29_12h41.51.941,lexical_decision_task_DD_L6,2021.2.3,MacIntel,60.0024001,,,,,,,,,,,0.8161,1,,,,,,,,,,,,,,,z,1,0.8161,,,,,,,,0.07422309,-0.242161458,0,0,0,,0,104,104,142,1,PLASK,HB,old,z,./images/PLASKHB.png,,,,,,,,,,,,,,,,,,,,,
,,,,,,,,,,,,,,,,,199987,19,2022-01-29_12h41.51.941,lexical_decision_task_DD_L6,2021.2.3,MacIntel,60.0024001,,,,,,,,,,,0.6723,1,,,,,,,,,,,,,,,z,1,0.6723,,,,,,,,0.07422309,-0.242161458,0,0,0,,0,105,105,150,1,NOOLS,C,old,z,./images/NOOLS.png,,,,,,,,,,,,,,,,,,,,,
,,,,,,,,,,,,,,,,,199987,19,2022-01-29_12h41.51.941,lexical_decision_task_DD_L6,2021.2.3,MacIntel,60.0024001,,,,,,,,,,,0.935,1,,,,,,,,,,,,,,,z,1,0.935,,,,,,,,0.07422309,-0.242161458,0,0,0,,0,106,106,139,1,BLEAR,HB,old,z,./images/BLEARHB.png,,,,,,,,,,,,,,,,,,,,,
,,,,,,,,,,,,,,,,,199987,19,2022-01-29_12h41.51.941,lexical_decision_task_DD_L6,2021.2.3,MacIntel,60.0024001,,,,,,,,,,,0.5843,1,,,,,,,,,,,,,,,m,1,0.5843,,,,,,,,0.07422309,-0.242161458,0,0,0,,0,107,107,46,1,MUMMY,C,old,m,./images/MUMMY.png,,,,,,,,,,,,,,,,,,,,,
,,,,,,,,,,,,,,,,,199987,19,2022-01-29_12h41.51.941,lexical_decision_task_DD_L6,2021.2.3,MacIntel,60.0024001,,,,,,,,,,,1.2289,0,,,,,,,,,,,,,,,m,0,1.2289,,,,,,,,0.07422309,-0.242161458,0,0,0,,0,108,108,158,1,EGECT,LB,old,z,./images/EGECTLB.png,,,,,,,,,,,,,,,,,,,,,
,,,,,,,,,,,,,,,,,199987,19,2022-01-29_12h41.51.941,lexical_decision_task_DD_L6,2021.2.3,MacIntel,60.0024001,,,,,,,,,,,0.6309,1,,,,,,,,,,,,,,,z,1,0.6309,,,,,,,,0.07422309,-0.242161458,0,0,0,,0,109,109,120,1,RINED,C,old,z,./images/RINED.png,,,,,,,,,,,,,,,,,,,,,
,,,,,,,,,,,,,,,,,199987,19,2022-01-29_12h41.51.941,lexical_decision_task_DD_L6,2021.2.3,MacIntel,60.0024001,,,,,,,,,,,2.5777,1,,,,,,,,,,,,,,,z,1,2.5777,,,,,,,,0.07422309,-0.242161458,0,0,0,,0,110,110,153,1,CLUPS,C,old,z,./images/CLUPS.png,,,,,,,,,,,,,,,,,,,,,
,,,,,,,,,,,,,,,,,199987,19,2022-01-29_12h41.51.941,lexical_decision_task_DD_L6,2021.2.3,MacIntel,60.0024001,,,,,,,,,,,1.8631,1,,,,,,,,,,,,,,,z,1,1.8631,,,,,,,,0.07422309,-0.242161458,0,0,0,,0,111,111,157,1,INLER,HB,old,z,./images/INLERHB.png,,,,,,,,,,,,,,,,,,,,,
,,,,,,,,,,,,,,,,,199987,19,2022-01-29_12h41.51.941,lexical_decision_task_DD_L6,2021.2.3,MacIntel,60.0024001,,,,,,,,,,,0.6631,1,,,,,,,,,,,,,,,z,1,0.6631,,,,,,,,0.07422309,-0.242161458,0,0,0,,0,112,112,156,1,HIXES,C,old,z,./images/HIXES.png,,,,,,,,,,,,,,,,,,,,,
,,,,,,,,,,,,,,,,,199987,19,2022-01-29_12h41.51.941,lexical_decision_task_DD_L6,2021.2.3,MacIntel,60.0024001,,,,,,,,,,,1.3968,1,,,,,,,,,,,,,,,z,1,1.3968,,,,,,,,0.07422309,-0.242161458,0,0,0,,0,113,113,90,1,NEAST,C,old,z,./images/NEAST.png,,,,,,,,,,,,,,,,,,,,,
,,,,,,,,,,,,,,,,,199987,19,2022-01-29_12h41.51.941,lexical_decision_task_DD_L6,2021.2.3,MacIntel,60.0024001,,,,,,,,,,,1.4004,1,,,,,,,,,,,,,,,m,1,1.4004,,,,,,,,0.07422309,-0.242161458,0,0,0,,0,114,114,20,1,GRANNY,HB,old,m,./images/GRANNYHB.png,,,,,,,,,,,,,,,,,,,,,
,,,,,,,,,,,,,,,,,199987,19,2022-01-29_12h41.51.941,lexical_decision_task_DD_L6,2021.2.3,MacIntel,60.0024001,,,,,,,,,,,0.6245,1,,,,,,,,,,,,,,,m,1,0.6245,,,,,,,,0.07422309,-0.242161458,0,0,0,,0,115,115,70,1,BANANA,C,old,m,./images/BANANA.png,,,,,,,,,,,,,,,,,,,,,
,,,,,,,,,,,,,,,,,199987,19,2022-01-29_12h41.51.941,lexical_decision_task_DD_L6,2021.2.3,MacIntel,60.0024001,,,,,,,,,,,1.063,1,,,,,,,,,,,,,,,m,1,1.063,,,,,,,,0.07422309,-0.242161458,0,0,0,,0,116,116,18,1,PARCEL,LB,old,m,./images/PARCELLB.png,,,,,,,,,,,,,,,,,,,,,
,,,,,,,,,,,,,,,,,199987,19,2022-01-29_12h41.51.941,lexical_decision_task_DD_L6,2021.2.3,MacIntel,60.0024001,,,,,,,,,,,0.5287,1,,,,,,,,,,,,,,,m,1,0.5287,,,,,,,,0.07422309,-0.242161458,0,0,0,,0,117,117,42,1,CHAIN,LB,old,m,./images/CHAINLB.png,,,,,,,,,,,,,,,,,,,,,
,,,,,,,,,,,,,,,,,199987,19,2022-01-29_12h41.51.941,lexical_decision_task_DD_L6,2021.2.3,MacIntel,60.0024001,,,,,,,,,,,0.8989,1,,,,,,,,,,,,,,,m,1,0.8989,,,,,,,,0.07422309,-0.242161458,0,0,0,,0,118,118,6,1,STAIN,LB,old,m,./images/STAINLB.png,,,,,,,,,,,,,,,,,,,,,
,,,,,,,,,,,,,,,,,199987,19,2022-01-29_12h41.51.941,lexical_decision_task_DD_L6,2021.2.3,MacIntel,60.0024001,,,,,,,,,,,0.7269,1,,,,,,,,,,,,,,,z,1,0.7269,,,,,,,,0.07422309,-0.242161458,0,0,0,,0,119,119,129,1,PRANS,C,old,z,./images/PRANS.png,,,,,,,,,,,,,,,,,,,,,
,,,,,,,,,,,,,,,,,199987,19,2022-01-29_12h41.51.941,lexical_decision_task_DD_L6,2021.2.3,MacIntel,60.0024001,,,,,,,,,,,0.7185,1,,,,,,,,,,,,,,,m,1,0.7185,,,,,,,,0.07422309,-0.242161458,0,0,0,,0,120,120,23,1,CLOTH,HB,old,m,./images/CLOTHHB.png,,,,,,,,,,,,,,,,,,,,,
,,,,,,,,,,,,,,,,,199987,19,2022-01-29_12h41.51.941,lexical_decision_task_DD_L6,2021.2.3,MacIntel,60.0024001,,,,,,,,,,,0.5777,1,,,,,,,,,,,,,,,m,1,0.5777,,,,,,,,0.07422309,-0.242161458,0,0,0,,0,121,121,79,1,RULER,C,old,m,./images/RULER.png,,,,,,,,,,,,,,,,,,,,,
,,,,,,,,,,,,,,,,,199987,19,2022-01-29_12h41.51.941,lexical_decision_task_DD_L6,2021.2.3,MacIntel,60.0024001,,,,,,,,,,,0.5941,1,,,,,,,,,,,,,,,m,1,0.5941,,,,,,,,0.07422309,-0.242161458,0,0,0,,0,122,122,10,1,GARDEN,C,old,m,./images/GARDEN.png,,,,,,,,,,,,,,,,,,,,,
,,,,,,,,,,,,,,,,,199987,19,2022-01-29_12h41.51.941,lexical_decision_task_DD_L6,2021.2.3,MacIntel,60.0024001,,,,,,,,,,,0.5779,1,,,,,,,,,,,,,,,m,1,0.5779,,,,,,,,0.07422309,-0.242161458,0,0,0,,0,123,123,73,1,GLOVE,C,old,m,./images/GLOVE.png,,,,,,,,,,,,,,,,,,,,,
,,,,,,,,,,,,,,,,,199987,19,2022-01-29_12h41.51.941,lexical_decision_task_DD_L6,2021.2.3,MacIntel,60.0024001,,,,,,,,,,,0.7234,1,,,,,,,,,,,,,,,z,1,0.7234,,,,,,,,0.07422309,-0.242161458,0,0,0,,0,124,124,123,1,SEDGE,C,old,z,./images/SEDGE.png,,,,,,,,,,,,,,,,,,,,,
,,,,,,,,,,,,,,,,,199987,19,2022-01-29_12h41.51.941,lexical_decision_task_DD_L6,2021.2.3,MacIntel,60.0024001,,,,,,,,,,,0.6334,1,,,,,,,,,,,,,,,m,1,0.6334,,,,,,,,0.07422309,-0.242161458,0,0,0,space,0,125,125,33,1,SAUNA,LB,old,m,./images/SAUNALB.png,4.0163,,,,,,,,,,,,,,,,,,,,
,,,,,,,,,,,,,,,,,199987,19,2022-01-29_12h41.51.941,lexical_decision_task_DD_L6,2021.2.3,MacIntel,60.0024001,,,,,,,,,,,0.6325,1,,,,,,,,,,,,,,,m,1,0.6325,,,,,,,,0.07422309,-0.241644965,0,0,0,,0,126,126,65,1,SPINE,HB,old,m,./images/SPINEHB.png,,,,,,,,,,,,,,,,,,,,,
,,,,,,,,,,,,,,,,,199987,19,2022-01-29_12h41.51.941,lexical_decision_task_DD_L6,2021.2.3,MacIntel,60.0024001,,,,,,,,,,,0.5812,1,,,,,,,,,,,,,,,m,1,0.5812,,,,,,,,0.07422309,-0.241644965,0,0,0,,0,127,127,81,1,DRILL,LB,old,m,./images/DRILLLB.png,,,,,,,,,,,,,,,,,,,,,
,,,,,,,,,,,,,,,,,199987,19,2022-01-29_12h41.51.941,lexical_decision_task_DD_L6,2021.2.3,MacIntel,60.0024001,,,,,,,,,,,0.5315,1,,,,,,,,,,,,,,,m,1,0.5315,,,,,,,,0.07422309,-0.241644965,0,0,0,,0,128,128,21,1,DANCER,LB,old,m,./images/DANCERLB.png,,,,,,,,,,,,,,,,,,,,,
,,,,,,,,,,,,,,,,,199987,19,2022-01-29_12h41.51.941,lexical_decision_task_DD_L6,2021.2.3,MacIntel,60.0024001,,,,,,,,,,,0.612,1,,,,,,,,,,,,,,,z,1,0.612,,,,,,,,0.07422309,-0.241644965,0,0,0,,0,129,129,131,1,NACES,LB,old,z,./images/NACESLB.png,,,,,,,,,,,,,,,,,,,,,
,,,,,,,,,,,,,,,,,199987,19,2022-01-29_12h41.51.941,lexical_decision_task_DD_L6,2021.2.3,MacIntel,60.0024001,,,,,,,,,,,0.4952,1,,,,,,,,,,,,,,,m,1,0.4952,,,,,,,,0.07422309,-0.241644965,0,0,0,,0,130,130,40,1,SNAKE,C,old,m,./images/SNAKE.png,,,,,,,,,,,,,,,,,,,,,
,,,,,,,,,,,,,,,,,199987,19,2022-01-29_12h41.51.941,lexical_decision_task_DD_L6,2021.2.3,MacIntel,60.0024001,,,,,,,,,,,0.7635,1,,,,,,,,,,,,,,,m,1,0.7635,,,,,,,,0.07422309,-0.241644965,0,0,0,,0,131,131,56,1,HEATER,HB,old,m,./images/HEATERHB.png,,,,,,,,,,,,,,,,,,,,,
,,,,,,,,,,,,,,,,,199987,19,2022-01-29_12h41.51.941,lexical_decision_task_DD_L6,2021.2.3,MacIntel,60.0024001,,,,,,,,,,,1.2142,1,,,,,,,,,,,,,,,z,1,1.2142,,,,,,,,0.07422309,-0.241644965,0,0,0,,0,132,132,112,1,MYING,HB,old,z,./images/MYINGHB.png,,,,,,,,,,,,,,,,,,,,,
,,,,,,,,,,,,,,,,,199987,19,2022-01-29_12h41.51.941,lexical_decision_task_DD_L6,2021.2.3,MacIntel,60.0024001,,,,,,,,,,,0.7794,1,,,,,,,,,,,,,,,z,1,0.7794,,,,,,,,0.07422309,-0.241644965,0,0,0,,0,133,133,161,1,BLAPS,LB,old,z,./images/BLAPSLB.png,,,,,,,,,,,,,,,,,,,,,
,,,,,,,,,,,,,,,,,199987,19,2022-01-29_12h41.51.941,lexical_decision_task_DD_L6,2021.2.3,MacIntel,60.0024001,,,,,,,,,,,0.5319,1,,,,,,,,,,,,,,,m,1,0.5319,,,,,,,,0.07422309,-0.241644965,0,0,0,,0,134,134,51,1,SAUCE,LB,old,m,./images/SAUCELB.png,,,,,,,,,,,,,,,,,,,,,
,,,,,,,,,,,,,,,,,199987,19,2022-01-29_12h41.51.941,lexical_decision_task_DD_L6,2021.2.3,MacIntel,60.0024001,,,,,,,,,,,0.5975,1,,,,,,,,,,,,,,,z,1,0.5975,,,,,,,,0.07422309,-0.241644965,0,0,0,,0,135,135,101,1,GLEET,LB,old,z,./images/GLEETLB.png,,,,,,,,,,,,,,,,,,,,,
,,,,,,,,,,,,,,,,,199987,19,2022-01-29_12h41.51.941,lexical_decision_task_DD_L6,2021.2.3,MacIntel,60.0024001,,,,,,,,,,,0.8476,1,,,,,,,,,,,,,,,z,1,0.8476,,,,,,,,0.07422309,-0.241644965,0,0,0,,0,136,136,113,1,LINEW,LB,old,z,./images/LINEWLB.png,,,,,,,,,,,,,,,,,,,,,
,,,,,,,,,,,,,,,,,199987,19,2022-01-29_12h41.51.941,lexical_decision_task_DD_L6,2021.2.3,MacIntel,60.0024001,,,,,,,,,,,0.7107,1,,,,,,,,,,,,,,,m,1,0.7107,,,,,,,,0.07422309,-0.241644965,0,0,0,,0,137,137,49,1,BISHOP,C,old,m,./images/BISHOP.png,,,,,,,,,,,,,,,,,,,,,
,,,,,,,,,,,,,,,,,199987,19,2022-01-29_12h41.51.941,lexical_decision_task_DD_L6,2021.2.3,MacIntel,60.0024001,,,,,,,,,,,0.4614,1,,,,,,,,,,,,,,,m,1,0.4614,,,,,,,,0.07422309,-0.241644965,0,0,0,,0,138,138,1,1,TOWEL,C,old,m,./images/TOWEL.png,,,,,,,,,,,,,,,,,,,,,
,,,,,,,,,,,,,,,,,199987,19,2022-01-29_12h41.51.941,lexical_decision_task_DD_L6,2021.2.3,MacIntel,60.0024001,,,,,,,,,,,0.9767,1,,,,,,,,,,,,,,,m,1,0.9767,,,,,,,,0.07422309,-0.241644965,0,0,0,,0,139,139,64,1,BRIDE,C,old,m,./images/BRIDE.png,,,,,,,,,,,,,,,,,,,,,
,,,,,,,,,,,,,,,,,199987,19,2022-01-29_12h41.51.941,lexical_decision_task_DD_L6,2021.2.3,MacIntel,60.0024001,,,,,,,,,,,0.5812,1,,,,,,,,,,,,,,,m,1,0.5812,,,,,,,,0.07422309,-0.241644965,0,0,0,,0,140,140,67,1,POKER,C,old,m,./images/POKER.png,,,,,,,,,,,,,,,,,,,,,
,,,,,,,,,,,,,,,,,199987,19,2022-01-29_12h41.51.941,lexical_decision_task_DD_L6,2021.2.3,MacIntel,60.0024001,,,,,,,,,,,0.7834,1,,,,,,,,,,,,,,,z,1,0.7834,,,,,,,,0.07422309,-0.241644965,0,0,0,,0,141,141,143,1,MONGS,LB,old,z,./images/MONGSLB.png,,,,,,,,,,,,,,,,,,,,,
,,,,,,,,,,,,,,,,,199987,19,2022-01-29_12h41.51.941,lexical_decision_task_DD_L6,2021.2.3,MacIntel,60.0024001,,,,,,,,,,,1.0279,1,,,,,,,,,,,,,,,m,1,1.0279,,,,,,,,0.07422309,-0.241644965,0,0,0,,0,142,142,8,1,CLIFF,HB,old,m,./images/CLIFFHB.png,,,,,,,,,,,,,,,,,,,,,
,,,,,,,,,,,,,,,,,199987,19,2022-01-29_12h41.51.941,lexical_decision_task_DD_L6,2021.2.3,MacIntel,60.0024001,,,,,,,,,,,0.6071,1,,,,,,,,,,,,,,,m,1,0.6071,,,,,,,,0.07422309,-0.241644965,0,0,0,,0,143,143,61,1,ARTIST,C,old,m,./images/ARTIST.png,,,,,,,,,,,,,,,,,,,,,
,,,,,,,,,,,,,,,,,199987,19,2022-01-29_12h41.51.941,lexical_decision_task_DD_L6,2021.2.3,MacIntel,60.0024001,,,,,,,,,,,0.641,1,,,,,,,,,,,,,,,z,1,0.641,,,,,,,,0.07422309,-0.241644965,0,0,0,,0,144,144,135,1,JOODY,C,old,z,./images/JOODY.png,,,,,,,,,,,,,,,,,,,,,
,,,,,,,,,,,,,,,,,199987,19,2022-01-29_12h41.51.941,lexical_decision_task_DD_L6,2021.2.3,MacIntel,60.0024001,,,,,,,,,,,0.7737,1,,,,,,,,,,,,,,,z,1,0.7737,,,,,,,,0.07422309,-0.241644965,0,0,0,,0,145,145,132,1,SCIFF,C,old,z,./images/SCIFF.png,,,,,,,,,,,,,,,,,,,,,
,,,,,,,,,,,,,,,,,199987,19,2022-01-29_12h41.51.941,lexical_decision_task_DD_L6,2021.2.3,MacIntel,60.0024001,,,,,,,,,,,0.5171,1,,,,,,,,,,,,,,,m,1,0.5171,,,,,,,,0.07422309,-0.241644965,0,0,0,,0,146,146,30,1,SLOPE,LB,old,m,./images/SLOPELB.png,,,,,,,,,,,,,,,,,,,,,
,,,,,,,,,,,,,,,,,199987,19,2022-01-29_12h41.51.941,lexical_decision_task_DD_L6,2021.2.3,MacIntel,60.0024001,,,,,,,,,,,0.596,1,,,,,,,,,,,,,,,m,1,0.596,,,,,,,,0.07422309,-0.241644965,0,0,0,,0,147,147,74,1,JUMPER,HB,old,m,./images/JUMPERHB.png,,,,,,,,,,,,,,,,,,,,,
,,,,,,,,,,,,,,,,,199987,19,2022-01-29_12h41.51.941,lexical_decision_task_DD_L6,2021.2.3,MacIntel,60.0024001,,,,,,,,,,,0.661,1,,,,,,,,,,,,,,,z,1,0.661,,,,,,,,0.07422309,-0.241644965,0,0,0,,0,148,148,126,1,GUELS,C,old,z,./images/GUELS.png,,,,,,,,,,,,,,,,,,,,,
,,,,,,,,,,,,,,,,,199987,19,2022-01-29_12h41.51.941,lexical_decision_task_DD_L6,2021.2.3,MacIntel,60.0024001,,,,,,,,,,,0.7605,1,,,,,,,,,,,,,,,z,1,0.7605,,,,,,,,0.07422309,-0.241644965,0,0,0,,0,149,149,102,1,DULLE,C,old,z,./images/DULLE.png,,,,,,,,,,,,,,,,,,,,,
,,,,,,,,,,,,,,,,,199987,19,2022-01-29_12h41.51.941,lexical_decision_task_DD_L6,2021.2.3,MacIntel,60.0024001,,,,,,,,,,,2.1304,1,,,,,,,,,,,,,,,z,1,2.1304,,,,,,,,0.07422309,-0.241644965,0,0,0,,0,150,150,115,1,MAWNS,HB,old,z,./images/MAWNSHB.png,,,,,,,,,,,,,,,,,,,,,
,,,,,,,,,,,,,,,,,199987,19,2022-01-29_12h41.51.941,lexical_decision_task_DD_L6,2021.2.3,MacIntel,60.0024001,,,,,,,,,,,2.7964,0,,,,,,,,,,,,,,,m,0,2.7964,,,,,,,,0.07422309,-0.241644965,0,0,0,,0,151,151,106,1,CLUMS,HB,old,z,./images/CLUMSHB.png,,,,,,,,,,,,,,,,,,,,,
,,,,,,,,,,,,,,,,,199987,19,2022-01-29_12h41.51.941,lexical_decision_task_DD_L6,2021.2.3,MacIntel,60.0024001,,,,,,,,,,,0.8204,1,,,,,,,,,,,,,,,m,1,0.8204,,,,,,,,0.07422309,-0.241644965,0,0,0,,0,152,152,80,1,PLANET,HB,old,m,./images/PLANETHB.png,,,,,,,,,,,,,,,,,,,,,
,,,,,,,,,,,,,,,,,199987,19,2022-01-29_12h41.51.941,lexical_decision_task_DD_L6,2021.2.3,MacIntel,60.0024001,,,,,,,,,,,1.397,1,,,,,,,,,,,,,,,z,1,1.397,,,,,,,,0.07422309,-0.241644965,0,0,0,,0,153,153,104,1,GITTY,LB,old,z,./images/GITTYLB.png,,,,,,,,,,,,,,,,,,,,,
,,,,,,,,,,,,,,,,,199987,19,2022-01-29_12h41.51.941,lexical_decision_task_DD_L6,2021.2.3,MacIntel,60.0024001,,,,,,,,,,,2.0647,1,,,,,,,,,,,,,,,z,1,2.0647,,,,,,,,0.07422309,-0.241644965,0,0,0,,0,154,154,119,1,PAFER,LB,old,z,./images/PAFERLB.png,,,,,,,,,,,,,,,,,,,,,
,,,,,,,,,,,,,,,,,199987,19,2022-01-29_12h41.51.941,lexical_decision_task_DD_L6,2021.2.3,MacIntel,60.0024001,,,,,,,,,,,0.5988,1,,,,,,,,,,,,,,,m,1,0.5988,,,,,,,,0.07422309,-0.241644965,0,0,0,,0,155,155,9,1,DIVER,LB,old,m,./images/DIVERLB.png,,,,,,,,,,,,,,,,,,,,,
,,,,,,,,,,,,,,,,,199987,19,2022-01-29_12h41.51.941,lexical_decision_task_DD_L6,2021.2.3,MacIntel,60.0024001,,,,,,,,,,,2.1133,1,,,,,,,,,,,,,,,z,1,2.1133,,,,,,,,0.07422309,-0.241644965,0,0,0,,0,156,156,121,1,CEERS,HB,old,z,./images/CEERSHB.png,,,,,,,,,,,,,,,,,,,,,
,,,,,,,,,,,,,,,,,199987,19,2022-01-29_12h41.51.941,lexical_decision_task_DD_L6,2021.2.3,MacIntel,60.0024001,,,,,,,,,,,0.6642,1,,,,,,,,,,,,,,,m,1,0.6642,,,,,,,,0.07422309,-0.241644965,0,0,0,,0,157,157,24,1,FLESH,LB,old,m,./images/FLESHLB.png,,,,,,,,,,,,,,,,,,,,,
,,,,,,,,,,,,,,,,,199987,19,2022-01-29_12h41.51.941,lexical_decision_task_DD_L6,2021.2.3,MacIntel,60.0024001,,,,,,,,,,,1.0981,1,,,,,,,,,,,,,,,z,1,1.0981,,,,,,,,0.07422309,-0.241644965,0,0,0,,0,158,158,98,1,BAMPS,LB,old,z,./images/BAMPSLB.png,,,,,,,,,,,,,,,,,,,,,
,,,,,,,,,,,,,,,,,199987,19,2022-01-29_12h41.51.941,lexical_decision_task_DD_L6,2021.2.3,MacIntel,60.0024001,,,,,,,,,,,0.663,0,,,,,,,,,,,,,,,m,0,0.663,,,,,,,,0.07422309,-0.241644965,0,0,0,,0,159,159,145,1,LAMEL,HB,old,z,./images/LAMELHB.png,,,,,,,,,,,,,,,,,,,,,
,,,,,,,,,,,,,,,,,199987,19,2022-01-29_12h41.51.941,lexical_decision_task_DD_L6,2021.2.3,MacIntel,60.0024001,,,,,,,,,,,0.7789,1,,,,,,,,,,,,,,,m,1,0.7789,,,,,,,,0.07422309,-0.241644965,0,0,0,,0,160,160,77,1,WHEEL,HB,old,m,./images/WHEELHB.png,,,,,,,,,,,,,,,,,,,,,
,,,,,,,,,,,,,,,,,199987,19,2022-01-29_12h41.51.941,lexical_decision_task_DD_L6,2021.2.3,MacIntel,60.0024001,,,,,,,,,,,0.8635,1,,,,,,,,,,,,,,,z,1,0.8635,,,,,,,,0.07422309,-0.241644965,0,0,0,,0,161,161,146,1,MOOST,LB,old,z,./images/MOOSTLB.png,,,,,,,,,,,,,,,,,,,,,
,,,,,,,,,,,,,,,,,199987,19,2022-01-29_12h41.51.941,lexical_decision_task_DD_L6,2021.2.3,MacIntel,60.0024001,,,,,,,,,,,1.3981,1,,,,,,,,,,,,,,,z,1,1.3981,,,,,,,,0.07422309,-0.241644965,0,0,0,,0,162,162,165,1,TROWN,C,old,z,./images/TROWN.png,,,,,,,,,,,,,,,,,,,,,
,,,,,,,,,,,,,,,,,199987,19,2022-01-29_12h41.51.941,lexical_decision_task_DD_L6,2021.2.3,MacIntel,60.0024001,,,,,,,,,,,1.1017,1,,,,,,,,,,,,,,,z,1,1.1017,,,,,,,,0.07422309,-0.241644965,0,0,0,,0,163,163,127,1,NINDY,HB,old,z,./images/NINDYHB.png,,,,,,,,,,,,,,,,,,,,,
,,,,,,,,,,,,,,,,,199987,19,2022-01-29_12h41.51.941,lexical_decision_task_DD_L6,2021.2.3,MacIntel,60.0024001,,,,,,,,,,,1.167,1,,,,,,,,,,,,,,,z,1,1.167,,,,,,,,0.07422309,-0.241644965,0,0,0,,0,164,164,148,1,JOMS,HB,old,z,./images/JOMSHB.png,,,,,,,,,,,,,,,,,,,,,
,,,,,,,,,,,,,,,,,199987,19,2022-01-29_12h41.51.941,lexical_decision_task_DD_L6,2021.2.3,MacIntel,60.0024001,,,,,,,,,,,1.1273,0,,,,,,,,,,,,,,,m,0,1.1273,,,,,,,,0.07422309,-0.241644965,0,0,0,,0,165,165,137,1,JOOST,LB,old,z,./images/JOOSTLB.png,,,,,,,,,,,,,,,,,,,,,
,,,,,,,,,,,,,,,,,199987,19,2022-01-29_12h41.51.941,lexical_decision_task_DD_L6,2021.2.3,MacIntel,60.0024001,,,,,,,,,,,0.8797,0,,,,,,,,,,,,,,,m,0,0.8797,,,,,,,,0.07422309,-0.241644965,0,0,0,,0,166,166,152,1,FRAIN,LB,old,z,./images/FRAINLB.png,,,,,,,,,,,,,,,,,,,,,
,,,,,,,,,,,,,,,,,199987,19,2022-01-29_12h41.51.941,lexical_decision_task_DD_L6,2021.2.3,MacIntel,60.0024001,,,,,,,,,,,2.0124,1,,,,,,,,,,,,,,,z,1,2.0124,,,,,,,,0.07422309,-0.241644965,0,0,0,,0,167,167,163,1,GAMBA,HB,old,z,./images/GAMBAHB.png,,,,,,,,,,,,,,,,,,,,,
space,19.4721,0.07422309,-0.241644965,0,0,0,,,,,,1,test,"In the next phase you will be presented with the words from the the first phase. Your job is to decide whether you remember seeing the word or not. If you remember seeing the word press ""old"" or type ""m"". If you do not remember seeing the word press ""new"" or type ""z"". Please press the space bar or click on continue to begin. ",,,199987,19,2022-01-29_12h41.51.941,lexical_decision_task_DD_L6,2021.2.3,MacIntel,60.0024001,,,,,,,,,,,,,,,,,,,,,,,,,,,,,,,,,,,,,,,,,,,,,,,,,,,,,,0,0,0,0,1,,,,,,,,,,,,,,,
space,1.1095,0.07422309,-0.241644965,0,0,0,,,,,,1,test,"In the next phase you will be presented with the words from the the first phase. Your job is to decide whether you remember seeing the word or not. If you remember seeing the word press ""old"" or type ""m"". If you do not remember seeing the word press ""new"" or type ""z"". Please press the space bar or click on continue to begin. ",,,199987,19,2022-01-29_12h41.51.941,lexical_decision_task_DD_L6,2021.2.3,MacIntel,60.0024001,,,,,,,,,,,,,,,,,,,,,,,,,,,,,,,,,,,,,,,,,,,,,,,,,,,,,,1,0,1,0,1,,,,,,,,,,,,,,,
,,0.068194444,-0.394804687,1,0,0,,,,,,1,test,"In the next phase you will be presented with the words from the the first phase. Your job is to decide whether you remember seeing the word or not. If you remember seeing the word press ""old"" or type ""m"". If you do not remember seeing the word press ""new"" or type ""z"". Please press the space bar or click on continue to begin. ",,,199987,19,2022-01-29_12h41.51.941,lexical_decision_task_DD_L6,2021.2.3,MacIntel,60.0024001,,,,,,,,,,,,,,,,,,,,,instr_done_button,,,,,,,,,,,,,,,,,,,,,,,,,,,,,,,,,2,0,2,0,1,,,,,,,,,,,,,,,
space,2.6174,0.052434896,-0.232903646,0,0,0,,,,,,1,test,"In the next phase you will be presented with the words from the the first phase. Your job is to decide whether you remember seeing the word or not. If you remember seeing the word press ""old"" or type ""m"". If you do not remember seeing the word press ""new"" or type ""z"". Please press the space bar or click on continue to begin. ",,,199987,19,2022-01-29_12h41.51.941,lexical_decision_task_DD_L6,2021.2.3,MacIntel,60.0024001,,,,,,,,,,,,,,,,,,,,,,,,,,,,,,,,,,,,,,,,,,,,,,,,,,,,,,3,0,3,0,1,,,,,,,,,,,,,,,
space,3.7034,0.052434896,-0.232903646,0,0,0,,,,,,1,test,"In the next phase you will be presented with the words from the the first phase. Your job is to decide whether you remember seeing the word or not. If you remember seeing the word press ""old"" or type ""m"". If you do not remember seeing the word press ""new"" or type ""z"". Please press the space bar or click on continue to begin. ",,,199987,19,2022-01-29_12h41.51.941,lexical_decision_task_DD_L6,2021.2.3,MacIntel,60.0024001,,,,,,,,,,,,,,,,,,,,,,,,,,,,,,,,,,,,,,,,,,,,,,,,,,,,,,4,0,4,0,1,,,,,,,,,,,,,,,
,,,,,,,,,,,,,,,,,199987,19,2022-01-29_12h41.51.941,lexical_decision_task_DD_L6,2021.2.3,MacIntel,60.0024001,,,,,,,,,,,2.9617,1,,,,,,,,,,,,,,,,,,,,,,,,,0.052434896,-0.232903646,0,0,0,,,,,,,BUNNY,C,m,y,./images/BUNNY.png,,,,,,,m,1,2.9617,,,,,,,,0,0,0,13,1
,,,,,,,,,,,,,,,,,199987,19,2022-01-29_12h41.51.941,lexical_decision_task_DD_L6,2021.2.3,MacIntel,60.0024001,,,,,,,,,,,1.0615,1,,,,,,,,,,,,,,,,,,,,,,,,,0.052434896,-0.232903646,0,0,0,,,,,,,CRATER,LB,m,y,./images/CRATERLB.png,,,,,,,m,1,1.0615,,,,,,,,0,1,1,3,1
,,,,,,,,,,,,,,,,,199987,19,2022-01-29_12h41.51.941,lexical_decision_task_DD_L6,2021.2.3,MacIntel,60.0024001,,,,,,,,,,,2.349,1,,,,,,,,,,,,,,,,,,,,,,,,,0.052434896,-0.232903646,0,0,0,,,,,,,DRUMS,C,z,y,./images/DRUMS.png,,,,,,,z,1,2.349,,,,,,,,0,2,2,133,1
,,,,,,,,,,,,,,,,,199987,19,2022-01-29_12h41.51.941,lexical_decision_task_DD_L6,2021.2.3,MacIntel,60.0024001,,,,,,,,,,,1.3338,0,,,,,,,,,,,,,,,,,,,,,,,,,0.052434896,-0.232903646,0,0,0,,,,,,,DANCER,LB,m,y,./images/DANCERLB.png,,,,,,,z,0,1.3338,,,,,,,,0,3,3,21,1
,,,,,,,,,,,,,,,,,199987,19,2022-01-29_12h41.51.941,lexical_decision_task_DD_L6,2021.2.3,MacIntel,60.0024001,,,,,,,,,,,1.266,1,,,,,,,,,,,,,,,,,,,,,,,,,0.052434896,-0.232903646,0,0,0,,,,,,,PEACH,HB,z,y,./images/PEACHHB.png,,,,,,,z,1,1.266,,,,,,,,0,4,4,119,1
,,,,,,,,,,,,,,,,,199987,19,2022-01-29_12h41.51.941,lexical_decision_task_DD_L6,2021.2.3,MacIntel,60.0024001,,,,,,,,,,,0.682,1,,,,,,,,,,,,,,,,,,,,,,,,,0.052434896,-0.232903646,0,0,0,,,,,,,RAZOR,C,m,y,./images/RAZOR.png,,,,,,,m,1,0.682,,,,,,,,0,5,5,34,1
,,,,,,,,,,,,,,,,,199987,19,2022-01-29_12h41.51.941,lexical_decision_task_DD_L6,2021.2.3,MacIntel,60.0024001,,,,,,,,,,,0.7128,1,,,,,,,,,,,,,,,,,,,,,,,,,0.052434896,-0.232903646,0,0,0,,,,,,,GARDEN,C,m,y,./images/GARDEN.png,,,,,,,m,1,0.7128,,,,,,,,0,6,6,10,1
,,,,,,,,,,,,,,,,,199987,19,2022-01-29_12h41.51.941,lexical_decision_task_DD_L6,2021.2.3,MacIntel,60.0024001,,,,,,,,,,,0.8054,1,,,,,,,,,,,,,,,,,,,,,,,,,0.052434896,-0.232903646,0,0,0,,,,,,,CLIFF,HB,m,y,./images/CLIFFHB.png,,,,,,,m,1,0.8054,,,,,,,,0,7,7,8,1
,,,,,,,,,,,,,,,,,199987,19,2022-01-29_12h41.51.941,lexical_decision_task_DD_L6,2021.2.3,MacIntel,60.0024001,,,,,,,,,,,0.8841,0,,,,,,,,,,,,,,,,,,,,,,,,,0.052434896,-0.232903646,0,0,0,,,,,,,WALNUT,LB,m,y,./images/WALNUTLB.png,,,,,,,z,0,0.8841,,,,,,,,0,8,8,0,1
,,,,,,,,,,,,,,,,,199987,19,2022-01-29_12h41.51.941,lexical_decision_task_DD_L6,2021.2.3,MacIntel,60.0024001,,,,,,,,,,,0.92,1,,,,,,,,,,,,,,,,,,,,,,,,,0.052434896,-0.232903646,0,0,0,,,,,,,JUNGLE,HB,z,y,./images/JUNGLEHB.png,,,,,,,z,1,0.92,,,,,,,,0,9,9,167,1
,,,,,,,,,,,,,,,,,199987,19,2022-01-29_12h41.51.941,lexical_decision_task_DD_L6,2021.2.3,MacIntel,60.0024001,,,,,,,,,,,0.7222,1,,,,,,,,,,,,,,,,,,,,,,,,,0.052434896,-0.232903646,0,0,0,,,,,,,ENGINE,HB,m,y,./images/ENGINEHB.png,,,,,,,m,1,0.7222,,,,,,,,0,10,10,38,1
,,,,,,,,,,,,,,,,,199987,19,2022-01-29_12h41.51.941,lexical_decision_task_DD_L6,2021.2.3,MacIntel,60.0024001,,,,,,,,,,,0.984,1,,,,,,,,,,,,,,,,,,,,,,,,,0.052434896,-0.232903646,0,0,0,,,,,,,COUCH,HB,z,y,./images/COUCHHB.png,,,,,,,z,1,0.984,,,,,,,,0,11,11,161,1
,,,,,,,,,,,,,,,,,199987,19,2022-01-29_12h41.51.941,lexical_decision_task_DD_L6,2021.2.3,MacIntel,60.0024001,,,,,,,,,,,0.8661,0,,,,,,,,,,,,,,,,,,,,,,,,,0.052434896,-0.232903646,0,0,0,,,,,,,TORCH,HB,z,y,./images/TORCHHB.png,,,,,,,m,0,0.8661,,,,,,,,0,12,12,152,1
,,,,,,,,,,,,,,,,,199987,19,2022-01-29_12h41.51.941,lexical_decision_task_DD_L6,2021.2.3,MacIntel,60.0024001,,,,,,,,,,,1.1483,1,,,,,,,,,,,,,,,,,,,,,,,,,0.052434896,-0.232903646,0,0,0,,,,,,,ALLEY,C,m,y,./images/ALLEY.png,,,,,,,m,1,1.1483,,,,,,,,0,13,13,55,1
,,,,,,,,,,,,,,,,,199987,19,2022-01-29_12h41.51.941,lexical_decision_task_DD_L6,2021.2.3,MacIntel,60.0024001,,,,,,,,,,,0.9167,1,,,,,,,,,,,,,,,,,,,,,,,,,0.052434896,-0.232903646,0,0,0,,,,,,,WALRUS,HB,z,y,./images/WALRUSHB.png,,,,,,,z,1,0.9167,,,,,,,,0,14,14,107,1
,,,,,,,,,,,,,,,,,199987,19,2022-01-29_12h41.51.941,lexical_decision_task_DD_L6,2021.2.3,MacIntel,60.0024001,,,,,,,,,,,0.9132,1,,,,,,,,,,,,,,,,,,,,,,,,,0.052434896,-0.232903646,0,0,0,,,,,,,WEASEL,HB,z,y,./images/WEASELHB.png,,,,,,,z,1,0.9132,,,,,,,,0,15,15,164,1
,,,,,,,,,,,,,,,,,199987,19,2022-01-29_12h41.51.941,lexical_decision_task_DD_L6,2021.2.3,MacIntel,60.0024001,,,,,,,,,,,0.9536,1,,,,,,,,,,,,,,,,,,,,,,,,,0.052434896,-0.232903646,0,0,0,,,,,,,SHORE,LB,z,y,./images/SHORELB.png,,,,,,,z,1,0.9536,,,,,,,,0,16,16,96,1
,,,,,,,,,,,,,,,,,199987,19,2022-01-29_12h41.51.941,lexical_decision_task_DD_L6,2021.2.3,MacIntel,60.0024001,,,,,,,,,,,0.7839,0,,,,,,,,,,,,,,,,,,,,,,,,,0.052434896,-0.232903646,0,0,0,,,,,,,SCREW,LB,z,y,./images/SCREWLB.png,,,,,,,m,0,0.7839,,,,,,,,0,17,17,108,1
,,,,,,,,,,,,,,,,,199987,19,2022-01-29_12h41.51.941,lexical_decision_task_DD_L6,2021.2.3,MacIntel,60.0024001,,,,,,,,,,,0.6491,1,,,,,,,,,,,,,,,,,,,,,,,,,0.052434896,-0.232903646,0,0,0,,,,,,,ARROW,LB,m,y,./images/ARROWLB.png,,,,,,,m,1,0.6491,,,,,,,,0,18,18,69,1
,,,,,,,,,,,,,,,,,199987,19,2022-01-29_12h41.51.941,lexical_decision_task_DD_L6,2021.2.3,MacIntel,60.0024001,,,,,,,,,,,0.7347,1,,,,,,,,,,,,,,,,,,,,,,,,,0.052434896,-0.232903646,0,0,0,,,,,,,CANOE,C,m,y,./images/CANOE.png,,,,,,,m,1,0.7347,,,,,,,,0,19,19,58,1
,,,,,,,,,,,,,,,,,199987,19,2022-01-29_12h41.51.941,lexical_decision_task_DD_L6,2021.2.3,MacIntel,60.0024001,,,,,,,,,,,0.8536,1,,,,,,,,,,,,,,,,,,,,,,,,,0.052434896,-0.232903646,0,0,0,,,,,,,ONION,LB,z,y,./images/ONIONLB.png,,,,,,,z,1,0.8536,,,,,,,,0,20,20,135,1
,,,,,,,,,,,,,,,,,199987,19,2022-01-29_12h41.51.941,lexical_decision_task_DD_L6,2021.2.3,MacIntel,60.0024001,,,,,,,,,,,0.7142,1,,,,,,,,,,,,,,,,,,,,,,,,,0.052434896,-0.232903646,0,0,0,,,,,,,CHAIN,LB,m,y,./images/CHAINLB.png,,,,,,,m,1,0.7142,,,,,,,,0,21,21,42,1
,,,,,,,,,,,,,,,,,199987,19,2022-01-29_12h41.51.941,lexical_decision_task_DD_L6,2021.2.3,MacIntel,60.0024001,,,,,,,,,,,0.7701,1,,,,,,,,,,,,,,,,,,,,,,,,,0.052434896,-0.232903646,0,0,0,,,,,,,BROOM,LB,m,y,./images/BROOMLB.png,,,,,,,m,1,0.7701,,,,,,,,0,22,22,78,1
,,,,,,,,,,,,,,,,,199987,19,2022-01-29_12h41.51.941,lexical_decision_task_DD_L6,2021.2.3,MacIntel,60.0024001,,,,,,,,,,,0.9632,1,,,,,,,,,,,,,,,,,,,,,,,,,0.052434896,-0.232903646,0,0,0,,,,,,,THROAT,LB,z,y,./images/THROATLB.png,,,,,,,z,1,0.9632,,,,,,,,0,23,23,120,1
,,,,,,,,,,,,,,,,,199987,19,2022-01-29_12h41.51.941,lexical_decision_task_DD_L6,2021.2.3,MacIntel,60.0024001,,,,,,,,,,,0.7227,1,,,,,,,,,,,,,,,,,,,,,,,,,0.052434896,-0.232903646,0,0,0,,,,,,,POSTER,HB,m,y,./images/POSTERHB.png,,,,,,,m,1,0.7227,,,,,,,,0,24,24,53,1
,,,,,,,,,,,,,,,,,199987,19,2022-01-29_12h41.51.941,lexical_decision_task_DD_L6,2021.2.3,MacIntel,60.0024001,,,,,,,,,,,0.6873,1,,,,,,,,,,,,,,,,,,,,,,,,,0.052434896,-0.232903646,0,0,0,,,,,,,SHIELD,LB,m,y,./images/SHIELDLB.png,,,,,,,m,1,0.6873,,,,,,,,0,25,25,48,1
,,,,,,,,,,,,,,,,,199987,19,2022-01-29_12h41.51.941,lexical_decision_task_DD_L6,2021.2.3,MacIntel,60.0024001,,,,,,,,,,,0.767,1,,,,,,,,,,,,,,,,,,,,,,,,,0.051883681,-0.234001736,0,0,0,,,,,,,SPORT,LB,z,y,./images/SPORTLB.png,,,,,,,z,1,0.767,,,,,,,,0,26,26,132,1
,,,,,,,,,,,,,,,,,199987,19,2022-01-29_12h41.51.941,lexical_decision_task_DD_L6,2021.2.3,MacIntel,60.0024001,,,,,,,,,,,3.0694,1,,,,,,,,,,,,,,,,,,,,,,,,,0.050264757,-0.231901042,0,0,0,,,,,,,BASKET,HB,m,y,./images/BASKETHB.png,,,,,,,m,1,3.0694,,,,,,,,0,27,27,44,1
,,,,,,,,,,,,,,,,,199987,19,2022-01-29_12h41.51.941,lexical_decision_task_DD_L6,2021.2.3,MacIntel,60.0024001,,,,,,,,,,,0.8176,1,,,,,,,,,,,,,,,,,,,,,,,,,0.049739583,-0.234006076,0,0,0,,,,,,,WRIST,C,z,y,./images/WRIST.png,,,,,,,z,1,0.8176,,,,,,,,0,28,28,109,1
,,,,,,,,,,,,,,,,,199987,19,2022-01-29_12h41.51.941,lexical_decision_task_DD_L6,2021.2.3,MacIntel,60.0024001,,,,,,,,,,,0.803,1,,,,,,,,,,,,,,,,,,,,,,,,,0.049739583,-0.234006076,0,0,0,,,,,,,SLOPE,LB,m,y,./images/SLOPELB.png,,,,,,,m,1,0.803,,,,,,,,0,29,29,30,1
,,,,,,,,,,,,,,,,,199987,19,2022-01-29_12h41.51.941,lexical_decision_task_DD_L6,2021.2.3,MacIntel,60.0024001,,,,,,,,,,,0.9004,1,,,,,,,,,,,,,,,,,,,,,,,,,0.049739583,-0.234006076,0,0,0,,,,,,,TWINS,LB,z,y,./images/TWINSLB.png,,,,,,,z,1,0.9004,,,,,,,,0,30,30,144,1
,,,,,,,,,,,,,,,,,199987,19,2022-01-29_12h41.51.941,lexical_decision_task_DD_L6,2021.2.3,MacIntel,60.0024001,,,,,,,,,,,1.0526,1,,,,,,,,,,,,,,,,,,,,,,,,,0.049739583,-0.234006076,0,0,0,,,,,,,GLOVE,C,m,y,./images/GLOVE.png,,,,,,,m,1,1.0526,,,,,,,,0,31,31,73,1
,,,,,,,,,,,,,,,,,199987,19,2022-01-29_12h41.51.941,lexical_decision_task_DD_L6,2021.2.3,MacIntel,60.0024001,,,,,,,,,,,0.78,1,,,,,,,,,,,,,,,,,,,,,,,,,0.048142361,-0.233741319,0,0,0,,,,,,,MAMMAL,HB,m,y,./images/MAMMALHB.png,,,,,,,m,1,0.78,,,,,,,,0,32,32,62,1
,,,,,,,,,,,,,,,,,199987,19,2022-01-29_12h41.51.941,lexical_decision_task_DD_L6,2021.2.3,MacIntel,60.0024001,,,,,,,,,,,1.8046,1,,,,,,,,,,,,,,,,,,,,,,,,,0.048142361,-0.233741319,0,0,0,,,,,,,MALLET,HB,z,y,./images/MALLETHB.png,,,,,,,z,1,1.8046,,,,,,,,0,33,33,134,1
,,,,,,,,,,,,,,,,,199987,19,2022-01-29_12h41.51.941,lexical_decision_task_DD_L6,2021.2.3,MacIntel,60.0024001,,,,,,,,,,,0.6801,1,,,,,,,,,,,,,,,,,,,,,,,,,0.048142361,-0.233741319,0,0,0,,,,,,,SAUCE,LB,m,y,./images/SAUCELB.png,,,,,,,m,1,0.6801,,,,,,,,0,34,34,51,1
,,,,,,,,,,,,,,,,,199987,19,2022-01-29_12h41.51.941,lexical_decision_task_DD_L6,2021.2.3,MacIntel,60.0024001,,,,,,,,,,,0.6499,1,,,,,,,,,,,,,,,,,,,,,,,,,0.047617187,-0.233185764,0,0,0,,,,,,,BANANA,C,m,y,./images/BANANA.png,,,,,,,m,1,0.6499,,,,,,,,0,35,35,70,1
,,,,,,,,,,,,,,,,,199987,19,2022-01-29_12h41.51.941,lexical_decision_task_DD_L6,2021.2.3,MacIntel,60.0024001,,,,,,,,,,,1.27,0,,,,,,,,,,,,,,,,,,,,,,,,,0.047617187,-0.233185764,0,0,0,,,,,,,SMOKER,HB,z,y,./images/SMOKERHB.png,,,,,,,m,0,1.27,,,,,,,,0,36,36,110,1
,,,,,,,,,,,,,,,,,199987,19,2022-01-29_12h41.51.941,lexical_decision_task_DD_L6,2021.2.3,MacIntel,60.0024001,,,,,,,,,,,1.6694,1,,,,,,,,,,,,,,,,,,,,,,,,,0.047617187,-0.233185764,0,0,0,,,,,,,MAGGOT,LB,z,y,./images/MAGGOTLB.png,,,,,,,z,1,1.6694,,,,,,,,0,37,37,117,1
,,,,,,,,,,,,,,,,,199987,19,2022-01-29_12h41.51.941,lexical_decision_task_DD_L6,2021.2.3,MacIntel,60.0024001,,,,,,,,,,,0.8662,1,,,,,,,,,,,,,,,,,,,,,,,,,0.047617187,-0.233185764,0,0,0,,,,,,,CHERRY,LB,m,y,./images/CHERRYLB.png,,,,,,,m,1,0.8662,,,,,,,,0,38,38,54,1
,,,,,,,,,,,,,,,,,199987,19,2022-01-29_12h41.51.941,lexical_decision_task_DD_L6,2021.2.3,MacIntel,60.0024001,,,,,,,,,,,1.0166,1,,,,,,,,,,,,,,,,,,,,,,,,,0.047617187,-0.233185764,0,0,0,,,,,,,FALCON,C,z,y,./images/FALCON.png,,,,,,,z,1,1.0166,,,,,,,,0,39,39,112,1
,,,,,,,,,,,,,,,,,199987,19,2022-01-29_12h41.51.941,lexical_decision_task_DD_L6,2021.2.3,MacIntel,60.0024001,,,,,,,,,,,1.3668,1,,,,,,,,,,,,,,,,,,,,,,,,,0.047617187,-0.233185764,0,0,0,,,,,,,CARPET,HB,z,y,./images/CARPETHB.png,,,,,,,z,1,1.3668,,,,,,,,0,40,40,137,1
,,,,,,,,,,,,,,,,,199987,19,2022-01-29_12h41.51.941,lexical_decision_task_DD_L6,2021.2.3,MacIntel,60.0024001,,,,,,,,,,,1.8695,0,,,,,,,,,,,,,,,,,,,,,,,,,0.047617187,-0.233185764,0,0,0,space,,,,,,GRAIN,LB,z,y,./images/GRAINLB.png,1.8722,,,,,,m,0,1.8695,,,,,,,,0,41,41,159,1
,,,,,,,,,,,,,,,,,199987,19,2022-01-29_12h41.51.941,lexical_decision_task_DD_L6,2021.2.3,MacIntel,60.0024001,,,,,,,,,,,0.6321,1,,,,,,,,,,,,,,,,,,,,,,,,,0.047617187,-0.23234809,0,0,0,,,,,,,BAMBOO,HB,m,y,./images/BAMBOOHB.png,,,,,,,m,1,0.6321,,,,,,,,0,42,42,5,1
,,,,,,,,,,,,,,,,,199987,19,2022-01-29_12h41.51.941,lexical_decision_task_DD_L6,2021.2.3,MacIntel,60.0024001,,,,,,,,,,,0.6999,1,,,,,,,,,,,,,,,,,,,,,,,,,0.047617187,-0.23234809,0,0,0,,,,,,,WHISKY,HB,m,y,./images/WHISKYHB.png,,,,,,,m,1,0.6999,,,,,,,,0,43,43,83,1
,,,,,,,,,,,,,,,,,199987,19,2022-01-29_12h41.51.941,lexical_decision_task_DD_L6,2021.2.3,MacIntel,60.0024001,,,,,,,,,,,0.78,1,,,,,,,,,,,,,,,,,,,,,,,,,0.047617187,-0.23234809,0,0,0,,,,,,,LAGOON,HB,m,y,./images/LAGOONHB.png,,,,,,,m,1,0.78,,,,,,,,0,44,44,47,1
,,,,,,,,,,,,,,,,,199987,19,2022-01-29_12h41.51.941,lexical_decision_task_DD_L6,2021.2.3,MacIntel,60.0024001,,,,,,,,,,,0.7998,1,,,,,,,,,,,,,,,,,,,,,,,,,0.047617187,-0.232599826,0,0,0,,,,,,,LLAMA,HB,m,y,./images/LLAMAHB.png,,,,,,,m,1,0.7998,,,,,,,,0,45,45,35,1
,,,,,,,,,,,,,,,,,199987,19,2022-01-29_12h41.51.941,lexical_decision_task_DD_L6,2021.2.3,MacIntel,60.0024001,,,,,,,,,,,1.3661,0,,,,,,,,,,,,,,,,,,,,,,,,,0.047617187,-0.232599826,0,0,0,,,,,,,CANYON,C,z,y,./images/CANYON.png,,,,,,,m,0,1.3661,,,,,,,,0,46,46,118,1
,,,,,,,,,,,,,,,,,199987,19,2022-01-29_12h41.51.941,lexical_decision_task_DD_L6,2021.2.3,MacIntel,60.0024001,,,,,,,,,,,1.0857,1,,,,,,,,,,,,,,,,,,,,,,,,,0.047617187,-0.232599826,0,0,0,,,,,,,NOOSE,LB,z,y,./images/NOOSELB.png,,,,,,,z,1,1.0857,,,,,,,,0,47,47,156,1
,,,,,,,,,,,,,,,,,199987,19,2022-01-29_12h41.51.941,lexical_decision_task_DD_L6,2021.2.3,MacIntel,60.0024001,,,,,,,,,,,0.8669,1,,,,,,,,,,,,,,,,,,,,,,,,,0.047617187,-0.232599826,0,0,0,,,,,,,FINGER,LB,z,y,./images/FINGERLB.png,,,,,,,z,1,0.8669,,,,,,,,0,48,48,87,1
,,,,,,,,,,,,,,,,,199987,19,2022-01-29_12h41.51.941,lexical_decision_task_DD_L6,2021.2.3,MacIntel,60.0024001,,,,,,,,,,,1.1529,1,,,,,,,,,,,,,,,,,,,,,,,,,0.047617187,-0.232599826,0,0,0,,,,,,,TOMATO,LB,z,y,./images/TOMATOLB.png,,,,,,,z,1,1.1529,,,,,,,,0,49,49,84,1
,,,,,,,,,,,,,,,,,199987,19,2022-01-29_12h41.51.941,lexical_decision_task_DD_L6,2021.2.3,MacIntel,60.0024001,,,,,,,,,,,0.9347,1,,,,,,,,,,,,,,,,,,,,,,,,,0.047617187,-0.232599826,0,0,0,,,,,,,LITTER,LB,z,y,./images/LITTERLB.png,,,,,,,z,1,0.9347,,,,,,,,0,50,50,162,1
,,,,,,,,,,,,,,,,,199987,19,2022-01-29_12h41.51.941,lexical_decision_task_DD_L6,2021.2.3,MacIntel,60.0024001,,,,,,,,,,,1.8023,1,,,,,,,,,,,,,,,,,,,,,,,,,0.047617187,-0.232599826,0,0,0,,,,,,,MOSQUE,C,z,y,./images/MOSQUE.png,,,,,,,z,1,1.8023,,,,,,,,0,51,51,127,1
,,,,,,,,,,,,,,,,,199987,19,2022-01-29_12h41.51.941,lexical_decision_task_DD_L6,2021.2.3,MacIntel,60.0024001,,,,,,,,,,,0.6667,1,,,,,,,,,,,,,,,,,,,,,,,,,0.047617187,-0.232599826,0,0,0,,,,,,,SAUNA,LB,m,y,./images/SAUNALB.png,,,,,,,m,1,0.6667,,,,,,,,0,52,52,33,1
,,,,,,,,,,,,,,,,,199987,19,2022-01-29_12h41.51.941,lexical_decision_task_DD_L6,2021.2.3,MacIntel,60.0024001,,,,,,,,,,,0.767,1,,,,,,,,,,,,,,,,,,,,,,,,,0.047617187,-0.232599826,0,0,0,,,,,,,MEDAL,HB,m,y,./images/MEDALHB.png,,,,,,,m,1,0.767,,,,,,,,0,53,53,11,1
,,,,,,,,,,,,,,,,,199987,19,2022-01-29_12h41.51.941,lexical_decision_task_DD_L6,2021.2.3,MacIntel,60.0024001,,,,,,,,,,,0.816,1,,,,,,,,,,,,,,,,,,,,,,,,,0.047361111,-0.232599826,0,0,0,,,,,,,BISHOP,C,m,y,./images/BISHOP.png,,,,,,,m,1,0.816,,,,,,,,0,54,54,49,1
,,,,,,,,,,,,,,,,,199987,19,2022-01-29_12h41.51.941,lexical_decision_task_DD_L6,2021.2.3,MacIntel,60.0024001,,,,,,,,,,,0.817,1,,,,,,,,,,,,,,,,,,,,,,,,,0.047361111,-0.232599826,0,0,0,,,,,,,BEARD,HB,z,y,./images/BEARDHB.png,,,,,,,z,1,0.817,,,,,,,,0,55,55,86,1
,,,,,,,,,,,,,,,,,199987,19,2022-01-29_12h41.51.941,lexical_decision_task_DD_L6,2021.2.3,MacIntel,60.0024001,,,,,,,,,,,1.0018,1,,,,,,,,,,,,,,,,,,,,,,,,,0.047361111,-0.232599826,0,0,0,,,,,,,BLOKE,LB,m,y,./images/BLOKELB.png,,,,,,,m,1,1.0018,,,,,,,,0,56,56,12,1
,,,,,,,,,,,,,,,,,199987,19,2022-01-29_12h41.51.941,lexical_decision_task_DD_L6,2021.2.3,MacIntel,60.0024001,,,,,,,,,,,0.8315,1,,,,,,,,,,,,,,,,,,,,,,,,,0.046848958,-0.232599826,0,0,0,,,,,,,PARCEL,LB,m,y,./images/PARCELLB.png,,,,,,,m,1,0.8315,,,,,,,,0,57,57,18,1
,,,,,,,,,,,,,,,,,199987,19,2022-01-29_12h41.51.941,lexical_decision_task_DD_L6,2021.2.3,MacIntel,60.0024001,,,,,,,,,,,0.8661,1,,,,,,,,,,,,,,,,,,,,,,,,,0.046848958,-0.232599826,0,0,0,,,,,,,RULER,C,m,y,./images/RULER.png,,,,,,,m,1,0.8661,,,,,,,,0,58,58,79,1
,,,,,,,,,,,,,,,,,199987,19,2022-01-29_12h41.51.941,lexical_decision_task_DD_L6,2021.2.3,MacIntel,60.0024001,,,,,,,,,,,0.7802,1,,,,,,,,,,,,,,,,,,,,,,,,,0.046848958,-0.232599826,0,0,0,,,,,,,SPINE,HB,m,y,./images/SPINEHB.png,,,,,,,m,1,0.7802,,,,,,,,0,59,59,65,1
,,,,,,,,,,,,,,,,,199987,19,2022-01-29_12h41.51.941,lexical_decision_task_DD_L6,2021.2.3,MacIntel,60.0024001,,,,,,,,,,,1.1324,1,,,,,,,,,,,,,,,,,,,,,,,,,0.046848958,-0.232599826,0,0,0,,,,,,,POKER,C,m,y,./images/POKER.png,,,,,,,m,1,1.1324,,,,,,,,0,60,60,67,1
,,,,,,,,,,,,,,,,,199987,19,2022-01-29_12h41.51.941,lexical_decision_task_DD_L6,2021.2.3,MacIntel,60.0024001,,,,,,,,,,,0.7698,1,,,,,,,,,,,,,,,,,,,,,,,,,0.046848958,-0.232599826,0,0,0,,,,,,,FLESH,LB,m,y,./images/FLESHLB.png,,,,,,,m,1,0.7698,,,,,,,,0,61,61,24,1
,,,,,,,,,,,,,,,,,199987,19,2022-01-29_12h41.51.941,lexical_decision_task_DD_L6,2021.2.3,MacIntel,60.0024001,,,,,,,,,,,2.4663,0,,,,,,,,,,,,,,,,,,,,,,,,,0.046848958,-0.232599826,0,0,0,,,,,,,HOCKEY,HB,m,y,./images/HOCKEYHB.png,,,,,,,z,0,2.4663,,,,,,,,0,62,62,32,1
,,,,,,,,,,,,,,,,,199987,19,2022-01-29_12h41.51.941,lexical_decision_task_DD_L6,2021.2.3,MacIntel,60.0024001,,,,,,,,,,,1.1182,0,,,,,,,,,,,,,,,,,,,,,,,,,0.046848958,-0.232599826,0,0,0,,,,,,,TIGER,C,m,y,./images/TIGER.png,,,,,,,z,0,1.1182,,,,,,,,0,63,63,37,1
,,,,,,,,,,,,,,,,,199987,19,2022-01-29_12h41.51.941,lexical_decision_task_DD_L6,2021.2.3,MacIntel,60.0024001,,,,,,,,,,,0.7369,1,,,,,,,,,,,,,,,,,,,,,,,,,0.046848958,-0.232851562,0,0,0,,,,,,,GRANNY,HB,m,y,./images/GRANNYHB.png,,,,,,,m,1,0.7369,,,,,,,,0,64,64,20,1
,,,,,,,,,,,,,,,,,199987,19,2022-01-29_12h41.51.941,lexical_decision_task_DD_L6,2021.2.3,MacIntel,60.0024001,,,,,,,,,,,0.8507,1,,,,,,,,,,,,,,,,,,,,,,,,,0.046848958,-0.232851562,0,0,0,,,,,,,CHALK,C,m,y,./images/CHALK.png,,,,,,,m,1,0.8507,,,,,,,,0,65,65,25,1
,,,,,,,,,,,,,,,,,199987,19,2022-01-29_12h41.51.941,lexical_decision_task_DD_L6,2021.2.3,MacIntel,60.0024001,,,,,,,,,,,0.9339,1,,,,,,,,,,,,,,,,,,,,,,,,,0.046848958,-0.232851562,0,0,0,,,,,,,MIRROR,LB,z,y,./images/MIRRORLB.png,,,,,,,z,1,0.9339,,,,,,,,0,66,66,147,1
,,,,,,,,,,,,,,,,,199987,19,2022-01-29_12h41.51.941,lexical_decision_task_DD_L6,2021.2.3,MacIntel,60.0024001,,,,,,,,,,,1.0998,1,,,,,,,,,,,,,,,,,,,,,,,,,0.046848958,-0.232851562,0,0,0,,,,,,,STAIN,LB,m,y,./images/STAINLB.png,,,,,,,m,1,1.0998,,,,,,,,0,67,67,6,1
,,,,,,,,,,,,,,,,,199987,19,2022-01-29_12h41.51.941,lexical_decision_task_DD_L6,2021.2.3,MacIntel,60.0024001,,,,,,,,,,,0.8506,1,,,,,,,,,,,,,,,,,,,,,,,,,0.046848958,-0.232851562,0,0,0,,,,,,,SKIING,HB,z,y,./images/SKIINGHB.png,,,,,,,z,1,0.8506,,,,,,,,0,68,68,101,1
,,,,,,,,,,,,,,,,,199987,19,2022-01-29_12h41.51.941,lexical_decision_task_DD_L6,2021.2.3,MacIntel,60.0024001,,,,,,,,,,,1.285,1,,,,,,,,,,,,,,,,,,,,,,,,,0.046848958,-0.232851562,0,0,0,,,,,,,POODLE,LB,z,y,./images/POODLELB.png,,,,,,,z,1,1.285,,,,,,,,0,69,69,165,1
,,,,,,,,,,,,,,,,,199987,19,2022-01-29_12h41.51.941,lexical_decision_task_DD_L6,2021.2.3,MacIntel,60.0024001,,,,,,,,,,,1.1499,1,,,,,,,,,,,,,,,,,,,,,,,,,0.046848958,-0.232851562,0,0,0,,,,,,,BERRY,HB,z,y,./images/BERRYHB.png,,,,,,,z,1,1.1499,,,,,,,,0,70,70,131,1
,,,,,,,,,,,,,,,,,199987,19,2022-01-29_12h41.51.941,lexical_decision_task_DD_L6,2021.2.3,MacIntel,60.0024001,,,,,,,,,,,0.8826,1,,,,,,,,,,,,,,,,,,,,,,,,,0.046848958,-0.232851562,0,0,0,,,,,,,MUFFIN,C,z,y,./images/MUFFIN.png,,,,,,,z,1,0.8826,,,,,,,,0,71,71,139,1
,,,,,,,,,,,,,,,,,199987,19,2022-01-29_12h41.51.941,lexical_decision_task_DD_L6,2021.2.3,MacIntel,60.0024001,,,,,,,,,,,2.1796,1,,,,,,,,,,,,,,,,,,,,,,,,,0.046848958,-0.232851562,0,0,0,,,,,,,BRUSH,HB,m,y,./images/BRUSHHB.png,,,,,,,m,1,2.1796,,,,,,,,0,72,72,59,1
,,,,,,,,,,,,,,,,,199987,19,2022-01-29_12h41.51.941,lexical_decision_task_DD_L6,2021.2.3,MacIntel,60.0024001,,,,,,,,,,,0.7329,0,,,,,,,,,,,,,,,,,,,,,,,,,0.046848958,-0.232851562,0,0,0,,,,,,,CANDLE,C,z,y,./images/CANDLE.png,,,,,,,m,0,0.7329,,,,,,,,0,73,73,145,1
,,,,,,,,,,,,,,,,,199987,19,2022-01-29_12h41.51.941,lexical_decision_task_DD_L6,2021.2.3,MacIntel,60.0024001,,,,,,,,,,,0.7318,1,,,,,,,,,,,,,,,,,,,,,,,,,0.046848958,-0.232851562,0,0,0,,,,,,,WAGON,C,m,y,./images/WAGON.png,,,,,,,m,1,0.7318,,,,,,,,0,74,74,7,1
,,,,,,,,,,,,,,,,,199987,19,2022-01-29_12h41.51.941,lexical_decision_task_DD_L6,2021.2.3,MacIntel,60.0024001,,,,,,,,,,,1.0999,0,,,,,,,,,,,,,,,,,,,,,,,,,0.046848958,-0.232851562,0,0,0,,,,,,,BANNER,C,z,y,./images/BANNER.png,,,,,,,m,0,1.0999,,,,,,,,0,75,75,136,1
,,,,,,,,,,,,,,,,,199987,19,2022-01-29_12h41.51.941,lexical_decision_task_DD_L6,2021.2.3,MacIntel,60.0024001,,,,,,,,,,,1.5893,1,,,,,,,,,,,,,,,,,,,,,,,,,0.046848958,-0.232851562,0,0,0,,,,,,,FLASK,LB,m,y,./images/FLASKLB.png,,,,,,,m,1,1.5893,,,,,,,,0,76,76,72,1
,,,,,,,,,,,,,,,,,199987,19,2022-01-29_12h41.51.941,lexical_decision_task_DD_L6,2021.2.3,MacIntel,60.0024001,,,,,,,,,,,0.8152,1,,,,,,,,,,,,,,,,,,,,,,,,,0.046848958,-0.232851562,0,0,0,,,,,,,MOTOR,C,z,y,./images/MOTOR.png,,,,,,,z,1,0.8152,,,,,,,,0,77,77,97,1
,,,,,,,,,,,,,,,,,199987,19,2022-01-29_12h41.51.941,lexical_decision_task_DD_L6,2021.2.3,MacIntel,60.0024001,,,,,,,,,,,1.386,0,,,,,,,,,,,,,,,,,,,,,,,,,0.046848958,-0.232851562,0,0,0,,,,,,,WHEEL,HB,m,y,./images/WHEELHB.png,,,,,,,z,0,1.386,,,,,,,,0,78,78,77,1
,,,,,,,,,,,,,,,,,199987,19,2022-01-29_12h41.51.941,lexical_decision_task_DD_L6,2021.2.3,MacIntel,60.0024001,,,,,,,,,,,0.7552,1,,,,,,,,,,,,,,,,,,,,,,,,,0.046848958,-0.232851562,0,0,0,,,,,,,STOVE,HB,m,y,./images/STOVEHB.png,,,,,,,m,1,0.7552,,,,,,,,0,79,79,2,1
,,,,,,,,,,,,,,,,,199987,19,2022-01-29_12h41.51.941,lexical_decision_task_DD_L6,2021.2.3,MacIntel,60.0024001,,,,,,,,,,,0.7051,1,,,,,,,,,,,,,,,,,,,,,,,,,0.046848958,-0.232851562,0,0,0,,,,,,,CLOTH,HB,m,y,./images/CLOTHHB.png,,,,,,,m,1,0.7051,,,,,,,,0,80,80,23,1
,,,,,,,,,,,,,,,,,199987,19,2022-01-29_12h41.51.941,lexical_decision_task_DD_L6,2021.2.3,MacIntel,60.0024001,,,,,,,,,,,1.1489,1,,,,,,,,,,,,,,,,,,,,,,,,,0.046848958,-0.232851562,0,0,0,,,,,,,CURRY,LB,m,y,./images/CURRYLB.png,,,,,,,m,1,1.1489,,,,,,,,0,81,81,60,1
,,,,,,,,,,,,,,,,,199987,19,2022-01-29_12h41.51.941,lexical_decision_task_DD_L6,2021.2.3,MacIntel,60.0024001,,,,,,,,,,,0.9501,1,,,,,,,,,,,,,,,,,,,,,,,,,0.046848958,-0.232851562,0,0,0,,,,,,,BIRTH,C,z,y,./images/BIRTH.png,,,,,,,z,1,0.9501,,,,,,,,0,82,82,121,1
,,,,,,,,,,,,,,,,,199987,19,2022-01-29_12h41.51.941,lexical_decision_task_DD_L6,2021.2.3,MacIntel,60.0024001,,,,,,,,,,,0.8165,1,,,,,,,,,,,,,,,,,,,,,,,,,0.046210938,-0.231814236,0,0,0,space,,,,,,BUTTER,LB,m,y,./images/BUTTERLB.png,1.5314,,,,,,m,1,0.8165,,,,,,,,0,83,83,27,1
,,,,,,,,,,,,,,,,,199987,19,2022-01-29_12h41.51.941,lexical_decision_task_DD_L6,2021.2.3,MacIntel,60.0024001,,,,,,,,,,,0.7877,1,,,,,,,,,,,,,,,,,,,,,,,,,0.046210938,-0.231814236,0,0,0,,,,,,,STOOL,C,m,y,./images/STOOL.png,,,,,,,m,1,0.7877,,,,,,,,0,84,84,43,1
,,,,,,,,,,,,,,,,,199987,19,2022-01-29_12h41.51.941,lexical_decision_task_DD_L6,2021.2.3,MacIntel,60.0024001,,,,,,,,,,,0.5871,1,,,,,,,,,,,,,,,,,,,,,,,,,0.045950521,-0.232070312,0,0,0,,,,,,,CASINO,C,m,y,./images/CASINO.png,,,,,,,m,1,0.5871,,,,,,,,0,85,85,28,1
,,,,,,,,,,,,,,,,,199987,19,2022-01-29_12h41.51.941,lexical_decision_task_DD_L6,2021.2.3,MacIntel,60.0024001,,,,,,,,,,,1.1161,0,,,,,,,,,,,,,,,,,,,,,,,,,0.047890625,-0.232608507,0,0,0,,,,,,,HEATER,HB,m,y,./images/HEATERHB.png,,,,,,,z,0,1.1161,,,,,,,,0,86,86,56,1
,,,,,,,,,,,,,,,,,199987,19,2022-01-29_12h41.51.941,lexical_decision_task_DD_L6,2021.2.3,MacIntel,60.0024001,,,,,,,,,,,2.4996,0,,,,,,,,,,,,,,,,,,,,,,,,,0.047890625,-0.232608507,0,0,0,,,,,,,FENCE,HB,m,y,./images/FENCEHB.png,,,,,,,z,0,2.4996,,,,,,,,0,87,87,14,1
,,,,,,,,,,,,,,,,,199987,19,2022-01-29_12h41.51.941,lexical_decision_task_DD_L6,2021.2.3,MacIntel,60.0024001,,,,,,,,,,,1.6801,1,,,,,,,,,,,,,,,,,,,,,,,,,0.047890625,-0.232608507,0,0,0,,,,,,,COOKER,LB,z,y,./images/COOKERLB.png,,,,,,,z,1,1.6801,,,,,,,,0,88,88,153,1
,,,,,,,,,,,,,,,,,199987,19,2022-01-29_12h41.51.941,lexical_decision_task_DD_L6,2021.2.3,MacIntel,60.0024001,,,,,,,,,,,0.7998,1,,,,,,,,,,,,,,,,,,,,,,,,,0.047890625,-0.232608507,0,0,0,,,,,,,MUSCLE,C,z,y,./images/MUSCLE.png,,,,,,,z,1,0.7998,,,,,,,,0,89,89,88,1
,,,,,,,,,,,,,,,,,199987,19,2022-01-29_12h41.51.941,lexical_decision_task_DD_L6,2021.2.3,MacIntel,60.0024001,,,,,,,,,,,0.9671,0,,,,,,,,,,,,,,,,,,,,,,,,,0.047890625,-0.232608507,0,0,0,,,,,,,URINE,C,z,y,./images/URINE.png,,,,,,,m,0,0.9671,,,,,,,,0,90,90,154,1
,,,,,,,,,,,,,,,,,199987,19,2022-01-29_12h41.51.941,lexical_decision_task_DD_L6,2021.2.3,MacIntel,60.0024001,,,,,,,,,,,0.921,1,,,,,,,,,,,,,,,,,,,,,,,,,0.047890625,-0.232860243,0,0,0,,,,,,,HAMMER,LB,m,y,./images/HAMMERLB.png,,,,,,,m,1,0.921,,,,,,,,0,91,91,75,1
,,,,,,,,,,,,,,,,,199987,19,2022-01-29_12h41.51.941,lexical_decision_task_DD_L6,2021.2.3,MacIntel,60.0024001,,,,,,,,,,,0.8994,1,,,,,,,,,,,,,,,,,,,,,,,,,0.047890625,-0.232860243,0,0,0,,,,,,,RHINO,LB,z,y,./images/RHINOLB.png,,,,,,,z,1,0.8994,,,,,,,,0,92,92,93,1
,,,,,,,,,,,,,,,,,199987,19,2022-01-29_12h41.51.941,lexical_decision_task_DD_L6,2021.2.3,MacIntel,60.0024001,,,,,,,,,,,0.7137,1,,,,,,,,,,,,,,,,,,,,,,,,,0.047890625,-0.232860243,0,0,0,,,,,,,MIDGET,C,m,y,./images/MIDGET.png,,,,,,,m,1,0.7137,,,,,,,,0,93,93,76,1
,,,,,,,,,,,,,,,,,199987,19,2022-01-29_12h41.51.941,lexical_decision_task_DD_L6,2021.2.3,MacIntel,60.0024001,,,,,,,,,,,1.5969,1,,,,,,,,,,,,,,,,,,,,,,,,,0.047039931,-0.234826389,0,0,0,,,,,,,BOXER,C,m,y,./images/BOXER.png,,,,,,,m,1,1.5969,,,,,,,,0,94,94,4,1
,,,,,,,,,,,,,,,,,199987,19,2022-01-29_12h41.51.941,lexical_decision_task_DD_L6,2021.2.3,MacIntel,60.0024001,,,,,,,,,,,0.8322,1,,,,,,,,,,,,,,,,,,,,,,,,,0.047560764,-0.234826389,0,0,0,,,,,,,COLLAR,LB,m,y,./images/COLLARLB.png,,,,,,,m,1,0.8322,,,,,,,,0,95,95,15,1
,,,,,,,,,,,,,,,,,199987,19,2022-01-29_12h41.51.941,lexical_decision_task_DD_L6,2021.2.3,MacIntel,60.0024001,,,,,,,,,,,0.7668,1,,,,,,,,,,,,,,,,,,,,,,,,,0.047560764,-0.234826389,0,0,0,,,,,,,CEMENT,HB,z,y,./images/CEMENTHB.png,,,,,,,z,1,0.7668,,,,,,,,0,96,96,158,1
,,,,,,,,,,,,,,,,,199987,19,2022-01-29_12h41.51.941,lexical_decision_task_DD_L6,2021.2.3,MacIntel,60.0024001,,,,,,,,,,,0.8325,1,,,,,,,,,,,,,,,,,,,,,,,,,0.047560764,-0.234826389,0,0,0,,,,,,,STREAM,HB,m,y,./images/STREAMHB.png,,,,,,,m,1,0.8325,,,,,,,,0,97,97,41,1
,,,,,,,,,,,,,,,,,199987,19,2022-01-29_12h41.51.941,lexical_decision_task_DD_L6,2021.2.3,MacIntel,60.0024001,,,,,,,,,,,2.6672,0,,,,,,,,,,,,,,,,,,,,,,,,,0.048328993,-0.234826389,0,0,0,,,,,,,PARADE,HB,m,y,./images/PARADEHB.png,,,,,,,z,0,2.6672,,,,,,,,0,98,98,17,1
,,,,,,,,,,,,,,,,,199987,19,2022-01-29_12h41.51.941,lexical_decision_task_DD_L6,2021.2.3,MacIntel,60.0024001,,,,,,,,,,,0.8837,0,,,,,,,,,,,,,,,,,,,,,,,,,0.048328993,-0.235342882,0,0,0,,,,,,,FARMER,HB,z,y,./images/FARMERHB.png,,,,,,,m,0,0.8837,,,,,,,,0,99,99,149,1
,,,,,,,,,,,,,,,,,199987,19,2022-01-29_12h41.51.941,lexical_decision_task_DD_L6,2021.2.3,MacIntel,60.0024001,,,,,,,,,,,0.9329,0,,,,,,,,,,,,,,,,,,,,,,,,,0.047799479,-0.234544271,0,0,0,,,,,,,GREASE,LB,z,y,./images/GREASELB.png,,,,,,,m,0,0.9329,,,,,,,,0,100,100,99,1
,,,,,,,,,,,,,,,,,199987,19,2022-01-29_12h41.51.941,lexical_decision_task_DD_L6,2021.2.3,MacIntel,60.0024001,,,,,,,,,,,0.9308,1,,,,,,,,,,,,,,,,,,,,,,,,,0.047799479,-0.234544271,0,0,0,,,,,,,SUNSET,C,z,y,./images/SUNSET.png,,,,,,,z,1,0.9308,,,,,,,,0,101,101,166,1
,,,,,,,,,,,,,,,,,199987,19,2022-01-29_12h41.51.941,lexical_decision_task_DD_L6,2021.2.3,MacIntel,60.0024001,,,,,,,,,,,1.2472,1,,,,,,,,,,,,,,,,,,,,,,,,,0.047799479,-0.234544271,0,0,0,,,,,,,STORM,LB,z,y,./images/STORMLB.png,,,,,,,z,1,1.2472,,,,,,,,0,102,102,114,1
,,,,,,,,,,,,,,,,,199987,19,2022-01-29_12h41.51.941,lexical_decision_task_DD_L6,2021.2.3,MacIntel,60.0024001,,,,,,,,,,,0.7969,0,,,,,,,,,,,,,,,,,,,,,,,,,0.047799479,-0.234544271,0,0,0,,,,,,,BABOON,C,z,y,./images/BABOON.png,,,,,,,m,0,0.7969,,,,,,,,0,103,103,142,1
,,,,,,,,,,,,,,,,,199987,19,2022-01-29_12h41.51.941,lexical_decision_task_DD_L6,2021.2.3,MacIntel,60.0024001,,,,,,,,,,,1.133,1,,,,,,,,,,,,,,,,,,,,,,,,,0.047799479,-0.234544271,0,0,0,,,,,,,PASTA,HB,z,y,./images/PASTAHB.png,,,,,,,z,1,1.133,,,,,,,,0,104,104,89,1
,,,,,,,,,,,,,,,,,199987,19,2022-01-29_12h41.51.941,lexical_decision_task_DD_L6,2021.2.3,MacIntel,60.0024001,,,,,,,,,,,1.1176,0,,,,,,,,,,,,,,,,,,,,,,,,,0.047799479,-0.235060764,0,0,0,,,,,,,ATTIC,LB,z,y,./images/ATTICLB.png,,,,,,,m,0,1.1176,,,,,,,,0,105,105,111,1
,,,,,,,,,,,,,,,,,199987,19,2022-01-29_12h41.51.941,lexical_decision_task_DD_L6,2021.2.3,MacIntel,60.0024001,,,,,,,,,,,0.7485,1,,,,,,,,,,,,,,,,,,,,,,,,,0.047799479,-0.235060764,0,0,0,,,,,,,VALLEY,HB,m,y,./images/VALLEYHB.png,,,,,,,m,1,0.7485,,,,,,,,0,106,106,68,1
,,,,,,,,,,,,,,,,,199987,19,2022-01-29_12h41.51.941,lexical_decision_task_DD_L6,2021.2.3,MacIntel,60.0024001,,,,,,,,,,,0.8563,1,,,,,,,,,,,,,,,,,,,,,,,,,0.047799479,-0.235060764,0,0,0,,,,,,,DRILL,LB,m,y,./images/DRILLLB.png,,,,,,,m,1,0.8563,,,,,,,,0,107,107,81,1
,,,,,,,,,,,,,,,,,199987,19,2022-01-29_12h41.51.941,lexical_decision_task_DD_L6,2021.2.3,MacIntel,60.0024001,,,,,,,,,,,0.8672,1,,,,,,,,,,,,,,,,,,,,,,,,,0.047799479,-0.235060764,0,0,0,,,,,,,SWING,C,z,y,./images/SWING.png,,,,,,,z,1,0.8672,,,,,,,,0,108,108,124,1
,,,,,,,,,,,,,,,,,199987,19,2022-01-29_12h41.51.941,lexical_decision_task_DD_L6,2021.2.3,MacIntel,60.0024001,,,,,,,,,,,0.9813,0,,,,,,,,,,,,,,,,,,,,,,,,,0.047799479,-0.235060764,0,0,0,,,,,,,PAINT,C,z,y,./images/PAINT.png,,,,,,,m,0,0.9813,,,,,,,,0,109,109,91,1
,,,,,,,,,,,,,,,,,199987,19,2022-01-29_12h41.51.941,lexical_decision_task_DD_L6,2021.2.3,MacIntel,60.0024001,,,,,,,,,,,0.8831,1,,,,,,,,,,,,,,,,,,,,,,,,,0.047799479,-0.235060764,0,0,0,,,,,,,SHELF,LB,z,y,./images/SHELFLB.png,,,,,,,z,1,0.8831,,,,,,,,0,110,110,123,1
,,,,,,,,,,,,,,,,,199987,19,2022-01-29_12h41.51.941,lexical_decision_task_DD_L6,2021.2.3,MacIntel,60.0024001,,,,,,,,,,,2.9672,1,,,,,,,,,,,,,,,,,,,,,,,,,0.047799479,-0.235060764,0,0,0,,,,,,,MONKEY,LB,m,y,./images/MONKEYLB.png,,,,,,,m,1,2.9672,,,,,,,,0,111,111,45,1
,,,,,,,,,,,,,,,,,199987,19,2022-01-29_12h41.51.941,lexical_decision_task_DD_L6,2021.2.3,MacIntel,60.0024001,,,,,,,,,,,0.6555,1,,,,,,,,,,,,,,,,,,,,,,,,,0.047799479,-0.235060764,0,0,0,,,,,,,STEAK,C,m,y,./images/STEAK.png,,,,,,,m,1,0.6555,,,,,,,,0,112,112,31,1
,,,,,,,,,,,,,,,,,199987,19,2022-01-29_12h41.51.941,lexical_decision_task_DD_L6,2021.2.3,MacIntel,60.0024001,,,,,,,,,,,0.7131,1,,,,,,,,,,,,,,,,,,,,,,,,,0.047799479,-0.235060764,0,0,0,,,,,,,SNAKE,C,m,y,./images/SNAKE.png,,,,,,,m,1,0.7131,,,,,,,,0,113,113,40,1
,,,,,,,,,,,,,,,,,199987,19,2022-01-29_12h41.51.941,lexical_decision_task_DD_L6,2021.2.3,MacIntel,60.0024001,,,,,,,,,,,1.7528,1,,,,,,,,,,,,,,,,,,,,,,,,,0.047799479,-0.235060764,0,0,0,,,,,,,INFANT,C,z,y,./images/INFANT.png,,,,,,,z,1,1.7528,,,,,,,,0,114,114,160,1
,,,,,,,,,,,,,,,,,199987,19,2022-01-29_12h41.51.941,lexical_decision_task_DD_L6,2021.2.3,MacIntel,60.0024001,,,,,,,,,,,1.1619,1,,,,,,,,,,,,,,,,,,,,,,,,,0.047799479,-0.235060764,0,0,0,,,,,,,GRAPE,C,m,y,./images/GRAPE.png,,,,,,,m,1,1.1619,,,,,,,,0,115,115,16,1
,,,,,,,,,,,,,,,,,199987,19,2022-01-29_12h41.51.941,lexical_decision_task_DD_L6,2021.2.3,MacIntel,60.0024001,,,,,,,,,,,0.6338,1,,,,,,,,,,,,,,,,,,,,,,,,,0.047799479,-0.235060764,0,0,0,,,,,,,STATUE,LB,m,y,./images/STATUELB.png,,,,,,,m,1,0.6338,,,,,,,,0,116,116,66,1
,,,,,,,,,,,,,,,,,199987,19,2022-01-29_12h41.51.941,lexical_decision_task_DD_L6,2021.2.3,MacIntel,60.0024001,,,,,,,,,,,1.0012,1,,,,,,,,,,,,,,,,,,,,,,,,,0.047799479,-0.235060764,0,0,0,,,,,,,FOLDER,LB,z,y,./images/FOLDERLB.png,,,,,,,z,1,1.0012,,,,,,,,0,117,117,126,1
,,,,,,,,,,,,,,,,,199987,19,2022-01-29_12h41.51.941,lexical_decision_task_DD_L6,2021.2.3,MacIntel,60.0024001,,,,,,,,,,,3.3322,0,,,,,,,,,,,,,,,,,,,,,,,,,0.047799479,-0.235060764,0,0,0,,,,,,,CRUMB,HB,z,y,./images/CRUMBHB.png,,,,,,,m,0,3.3322,,,,,,,,0,118,118,113,1
,,,,,,,,,,,,,,,,,199987,19,2022-01-29_12h41.51.941,lexical_decision_task_DD_L6,2021.2.3,MacIntel,60.0024001,,,,,,,,,,,0.7506,1,,,,,,,,,,,,,,,,,,,,,,,,,0.047799479,-0.235060764,0,0,0,,,,,,,CLOUD,HB,m,y,./images/CLOUDHB.png,,,,,,,m,1,0.7506,,,,,,,,0,119,119,26,1
,,,,,,,,,,,,,,,,,199987,19,2022-01-29_12h41.51.941,lexical_decision_task_DD_L6,2021.2.3,MacIntel,60.0024001,,,,,,,,,,,0.8505,0,,,,,,,,,,,,,,,,,,,,,,,,,0.047799479,-0.235060764,0,0,0,,,,,,,TOWEL,C,m,y,./images/TOWEL.png,,,,,,,z,0,0.8505,,,,,,,,0,120,120,1,1
,,,,,,,,,,,,,,,,,199987,19,2022-01-29_12h41.51.941,lexical_decision_task_DD_L6,2021.2.3,MacIntel,60.0024001,,,,,,,,,,,1.9,0,,,,,,,,,,,,,,,,,,,,,,,,,0.048055556,-0.235581597,0,0,0,,,,,,,SWEAT,LB,z,y,./images/SWEATLB.png,,,,,,,m,0,1.9,,,,,,,,0,121,121,150,1
,,,,,,,,,,,,,,,,,199987,19,2022-01-29_12h41.51.941,lexical_decision_task_DD_L6,2021.2.3,MacIntel,60.0024001,,,,,,,,,,,0.8014,1,,,,,,,,,,,,,,,,,,,,,,,,,0.048055556,-0.235581597,0,0,0,,,,,,,PEARL,C,z,y,./images/PEARL.png,,,,,,,z,1,0.8014,,,,,,,,0,122,122,130,1
,,,,,,,,,,,,,,,,,199987,19,2022-01-29_12h41.51.941,lexical_decision_task_DD_L6,2021.2.3,MacIntel,60.0024001,,,,,,,,,,,0.8004,1,,,,,,,,,,,,,,,,,,,,,,,,,0.048055556,-0.235581597,0,0,0,,,,,,,BOILER,LB,m,y,./images/BOILERLB.png,,,,,,,m,1,0.8004,,,,,,,,0,123,123,36,1
,,,,,,,,,,,,,,,,,199987,19,2022-01-29_12h41.51.941,lexical_decision_task_DD_L6,2021.2.3,MacIntel,60.0024001,,,,,,,,,,,1.0002,1,,,,,,,,,,,,,,,,,,,,,,,,,0.048055556,-0.235833333,0,0,0,,,,,,,MUMMY,C,m,y,./images/MUMMY.png,,,,,,,m,1,1.0002,,,,,,,,0,124,124,46,1
,,,,,,,,,,,,,,,,,199987,19,2022-01-29_12h41.51.941,lexical_decision_task_DD_L6,2021.2.3,MacIntel,60.0024001,,,,,,,,,,,0.7837,1,,,,,,,,,,,,,,,,,,,,,,,,,0.048055556,-0.235833333,0,0,0,space,,,,,,MELON,C,z,y,./images/MELON.png,1.4004,,,,,,z,1,0.7837,,,,,,,,0,125,125,106,1
,,,,,,,,,,,,,,,,,199987,19,2022-01-29_12h41.51.941,lexical_decision_task_DD_L6,2021.2.3,MacIntel,60.0024001,,,,,,,,,,,3.2857,0,,,,,,,,,,,,,,,,,,,,,,,,,0.048576389,-0.235833333,0,0,0,,,,,,,MOOSE,LB,z,y,./images/MOOSELB.png,,,,,,,m,0,3.2857,,,,,,,,0,126,126,141,1
,,,,,,,,,,,,,,,,,199987,19,2022-01-29_12h41.51.941,lexical_decision_task_DD_L6,2021.2.3,MacIntel,60.0024001,,,,,,,,,,,0.7666,1,,,,,,,,,,,,,,,,,,,,,,,,,0.048055556,-0.235833333,0,0,0,,,,,,,DESERT,C,m,y,./images/DESERT.png,,,,,,,m,1,0.7666,,,,,,,,0,127,127,52,1
,,,,,,,,,,,,,,,,,199987,19,2022-01-29_12h41.51.941,lexical_decision_task_DD_L6,2021.2.3,MacIntel,60.0024001,,,,,,,,,,,0.9211,1,,,,,,,,,,,,,,,,,,,,,,,,,0.048311632,-0.235833333,0,0,0,,,,,,,BURIAL,HB,z,y,./images/BURIALHB.png,,,,,,,z,1,0.9211,,,,,,,,0,128,128,143,1
,,,,,,,,,,,,,,,,,199987,19,2022-01-29_12h41.51.941,lexical_decision_task_DD_L6,2021.2.3,MacIntel,60.0024001,,,,,,,,,,,1.9504,1,,,,,,,,,,,,,,,,,,,,,,,,,0.048311632,-0.235833333,0,0,0,,,,,,,CRUST,C,z,y,./images/CRUST.png,,,,,,,z,1,1.9504,,,,,,,,0,129,129,163,1
,,,,,,,,,,,,,,,,,199987,19,2022-01-29_12h41.51.941,lexical_decision_task_DD_L6,2021.2.3,MacIntel,60.0024001,,,,,,,,,,,0.9331,0,,,,,,,,,,,,,,,,,,,,,,,,,0.048311632,-0.235833333,0,0,0,,,,,,,SAILOR,C,z,y,./images/SAILOR.png,,,,,,,m,0,0.9331,,,,,,,,0,130,130,151,1
,,,,,,,,,,,,,,,,,199987,19,2022-01-29_12h41.51.941,lexical_decision_task_DD_L6,2021.2.3,MacIntel,60.0024001,,,,,,,,,,,0.8856,0,,,,,,,,,,,,,,,,,,,,,,,,,0.048311632,-0.235833333,0,0,0,,,,,,,PLANET,HB,m,y,./images/PLANETHB.png,,,,,,,z,0,0.8856,,,,,,,,0,131,131,80,1
,,,,,,,,,,,,,,,,,199987,19,2022-01-29_12h41.51.941,lexical_decision_task_DD_L6,2021.2.3,MacIntel,60.0024001,,,,,,,,,,,2.7978,0,,,,,,,,,,,,,,,,,,,,,,,,,0.048311632,-0.235833333,0,0,0,,,,,,,PLANK,C,z,y,./images/PLANK.png,,,,,,,m,0,2.7978,,,,,,,,0,132,132,85,1
,,,,,,,,,,,,,,,,,199987,19,2022-01-29_12h41.51.941,lexical_decision_task_DD_L6,2021.2.3,MacIntel,60.0024001,,,,,,,,,,,2.9826,0,,,,,,,,,,,,,,,,,,,,,,,,,0.048311632,-0.235833333,0,0,0,,,,,,,PURSE,HB,z,y,./images/PURSEHB.png,,,,,,,m,0,2.9826,,,,,,,,0,133,133,146,1
,,,,,,,,,,,,,,,,,199987,19,2022-01-29_12h41.51.941,lexical_decision_task_DD_L6,2021.2.3,MacIntel,60.0024001,,,,,,,,,,,0.8703,1,,,,,,,,,,,,,,,,,,,,,,,,,0.04827691,-0.23344184,0,0,0,,,,,,,PICKLE,HB,z,y,./images/PICKLEHB.png,,,,,,,z,1,0.8703,,,,,,,,0,134,134,98,1
,,,,,,,,,,,,,,,,,199987,19,2022-01-29_12h41.51.941,lexical_decision_task_DD_L6,2021.2.3,MacIntel,60.0024001,,,,,,,,,,,0.9351,1,,,,,,,,,,,,,,,,,,,,,,,,,0.046315104,-0.232000868,0,0,0,,,,,,,BARREL,HB,z,y,./images/BARRELHB.png,,,,,,,z,1,0.9351,,,,,,,,0,135,135,116,1
,,,,,,,,,,,,,,,,,199987,19,2022-01-29_12h41.51.941,lexical_decision_task_DD_L6,2021.2.3,MacIntel,60.0024001,,,,,,,,,,,0.9498,1,,,,,,,,,,,,,,,,,,,,,,,,,0.046315104,-0.232000868,0,0,0,,,,,,,DOUGH,C,z,y,./images/DOUGH.png,,,,,,,z,1,0.9498,,,,,,,,0,136,136,103,1
,,,,,,,,,,,,,,,,,199987,19,2022-01-29_12h41.51.941,lexical_decision_task_DD_L6,2021.2.3,MacIntel,60.0024001,,,,,,,,,,,2.9995,1,,,,,,,,,,,,,,,,,,,,,,,,,0.046315104,-0.232000868,0,0,0,,,,,,,PENCE,C,z,y,./images/PENCE.png,,,,,,,z,1,2.9995,,,,,,,,0,137,137,100,1
,,,,,,,,,,,,,,,,,199987,19,2022-01-29_12h41.51.941,lexical_decision_task_DD_L6,2021.2.3,MacIntel,60.0024001,,,,,,,,,,,0.7496,1,,,,,,,,,,,,,,,,,,,,,,,,,0.046315104,-0.232000868,0,0,0,,,,,,,CANDY,LB,m,y,./images/CANDYLB.png,,,,,,,m,1,0.7496,,,,,,,,0,138,138,39,1
,,,,,,,,,,,,,,,,,199987,19,2022-01-29_12h41.51.941,lexical_decision_task_DD_L6,2021.2.3,MacIntel,60.0024001,,,,,,,,,,,0.8156,1,,,,,,,,,,,,,,,,,,,,,,,,,0.045737847,-0.231471354,0,0,0,,,,,,,DONKEY,C,m,y,./images/DONKEY.png,,,,,,,m,1,0.8156,,,,,,,,0,139,139,19,1
,,,,,,,,,,,,,,,,,199987,19,2022-01-29_12h41.51.941,lexical_decision_task_DD_L6,2021.2.3,MacIntel,60.0024001,,,,,,,,,,,0.8995,1,,,,,,,,,,,,,,,,,,,,,,,,,0.045737847,-0.231471354,0,0,0,,,,,,,JELLY,C,z,y,./images/JELLY.png,,,,,,,z,1,0.8995,,,,,,,,0,140,140,148,1
,,,,,,,,,,,,,,,,,199987,19,2022-01-29_12h41.51.941,lexical_decision_task_DD_L6,2021.2.3,MacIntel,60.0024001,,,,,,,,,,,0.6508,1,,,,,,,,,,,,,,,,,,,,,,,,,0.045737847,-0.231471354,0,0,0,,,,,,,PISTOL,HB,m,y,./images/PISTOLHB.png,,,,,,,m,1,0.6508,,,,,,,,0,141,141,29,1
,,,,,,,,,,,,,,,,,199987,19,2022-01-29_12h41.51.941,lexical_decision_task_DD_L6,2021.2.3,MacIntel,60.0024001,,,,,,,,,,,0.9338,0,,,,,,,,,,,,,,,,,,,,,,,,,0.045737847,-0.231471354,0,0,0,,,,,,,CRADLE,HB,z,y,./images/CRADLEHB.png,,,,,,,m,0,0.9338,,,,,,,,0,142,142,104,1
,,,,,,,,,,,,,,,,,199987,19,2022-01-29_12h41.51.941,lexical_decision_task_DD_L6,2021.2.3,MacIntel,60.0024001,,,,,,,,,,,0.6975,1,,,,,,,,,,,,,,,,,,,,,,,,,0.045737847,-0.231471354,0,0,0,,,,,,,BUBBLE,HB,m,y,./images/BUBBLEHB.png,,,,,,,m,1,0.6975,,,,,,,,0,143,143,71,1
,,,,,,,,,,,,,,,,,199987,19,2022-01-29_12h41.51.941,lexical_decision_task_DD_L6,2021.2.3,MacIntel,60.0024001,,,,,,,,,,,0.6837,1,,,,,,,,,,,,,,,,,,,,,,,,,0.045737847,-0.231471354,0,0,0,,,,,,,PACKET,HB,z,y,./images/PACKETHB.png,,,,,,,z,1,0.6837,,,,,,,,0,144,144,140,1
,,,,,,,,,,,,,,,,,199987,19,2022-01-29_12h41.51.941,lexical_decision_task_DD_L6,2021.2.3,MacIntel,60.0024001,,,,,,,,,,,0.7189,1,,,,,,,,,,,,,,,,,,,,,,,,,0.045737847,-0.231471354,0,0,0,,,,,,,BAKER,LB,m,y,./images/BAKERLB.png,,,,,,,m,1,0.7189,,,,,,,,0,145,145,63,1
,,,,,,,,,,,,,,,,,199987,19,2022-01-29_12h41.51.941,lexical_decision_task_DD_L6,2021.2.3,MacIntel,60.0024001,,,,,,,,,,,0.8324,1,,,,,,,,,,,,,,,,,,,,,,,,,0.045737847,-0.231471354,0,0,0,,,,,,,BRIDE,C,m,y,./images/BRIDE.png,,,,,,,m,1,0.8324,,,,,,,,0,146,146,64,1
,,,,,,,,,,,,,,,,,199987,19,2022-01-29_12h41.51.941,lexical_decision_task_DD_L6,2021.2.3,MacIntel,60.0024001,,,,,,,,,,,0.7499,1,,,,,,,,,,,,,,,,,,,,,,,,,0.045737847,-0.23172309,0,0,0,,,,,,,JUMPER,HB,m,y,./images/JUMPERHB.png,,,,,,,m,1,0.7499,,,,,,,,0,147,147,74,1
,,,,,,,,,,,,,,,,,199987,19,2022-01-29_12h41.51.941,lexical_decision_task_DD_L6,2021.2.3,MacIntel,60.0024001,,,,,,,,,,,0.7001,1,,,,,,,,,,,,,,,,,,,,,,,,,0.045737847,-0.232239583,0,0,0,,,,,,,DIVER,LB,m,y,./images/DIVERLB.png,,,,,,,m,1,0.7001,,,,,,,,0,148,148,9,1
,,,,,,,,,,,,,,,,,199987,19,2022-01-29_12h41.51.941,lexical_decision_task_DD_L6,2021.2.3,MacIntel,60.0024001,,,,,,,,,,,0.8154,1,,,,,,,,,,,,,,,,,,,,,,,,,0.045477431,-0.232235243,0,0,0,,,,,,,ARTIST,C,m,y,./images/ARTIST.png,,,,,,,m,1,0.8154,,,,,,,,0,149,149,61,1
,,,,,,,,,,,,,,,,,199987,19,2022-01-29_12h41.51.941,lexical_decision_task_DD_L6,2021.2.3,MacIntel,60.0024001,,,,,,,,,,,0.8348,1,,,,,,,,,,,,,,,,,,,,,,,,,0.045477431,-0.232235243,0,0,0,,,,,,,TULIP,HB,z,y,./images/TULIPHB.png,,,,,,,z,1,0.8348,,,,,,,,0,150,150,92,1
,,,,,,,,,,,,,,,,,199987,19,2022-01-29_12h41.51.941,lexical_decision_task_DD_L6,2021.2.3,MacIntel,60.0024001,,,,,,,,,,,0.8166,1,,,,,,,,,,,,,,,,,,,,,,,,,0.045477431,-0.232235243,0,0,0,,,,,,,CLOWN,C,m,y,./images/CLOWN.png,,,,,,,m,1,0.8166,,,,,,,,0,151,151,22,1
,,,,,,,,,,,,,,,,,199987,19,2022-01-29_12h41.51.941,lexical_decision_task_DD_L6,2021.2.3,MacIntel,60.0024001,,,,,,,,,,,0.8335,1,,,,,,,,,,,,,,,,,,,,,,,,,0.045477431,-0.232235243,0,0,0,,,,,,,KIDNEY,LB,z,y,./images/KIDNEYLB.png,,,,,,,z,1,0.8335,,,,,,,,0,152,152,105,1
,,,,,,,,,,,,,,,,,199987,19,2022-01-29_12h41.51.941,lexical_decision_task_DD_L6,2021.2.3,MacIntel,60.0024001,,,,,,,,,,,0.866,0,,,,,,,,,,,,,,,,,,,,,,,,,0.045477431,-0.232235243,0,0,0,,,,,,,SNACK,C,z,y,./images/SNACK.png,,,,,,,m,0,0.866,,,,,,,,0,153,153,157,1
,,,,,,,,,,,,,,,,,199987,19,2022-01-29_12h41.51.941,lexical_decision_task_DD_L6,2021.2.3,MacIntel,60.0024001,,,,,,,,,,,1.2494,1,,,,,,,,,,,,,,,,,,,,,,,,,0.045477431,-0.232235243,0,0,0,,,,,,,KITTEN,LB,z,y,./images/KITTENLB.png,,,,,,,z,1,1.2494,,,,,,,,0,154,154,129,1
,,,,,,,,,,,,,,,,,199987,19,2022-01-29_12h41.51.941,lexical_decision_task_DD_L6,2021.2.3,MacIntel,60.0024001,,,,,,,,,,,3.1479,1,,,,,,,,,,,,,,,,,,,,,,,,,0.045477431,-0.232235243,0,0,0,,,,,,,PEBBLE,C,m,y,./images/PEBBLE.png,,,,,,,m,1,3.1479,,,,,,,,0,155,155,82,1
,,,,,,,,,,,,,,,,,199987,19,2022-01-29_12h41.51.941,lexical_decision_task_DD_L6,2021.2.3,MacIntel,60.0024001,,,,,,,,,,,1.1463,1,,,,,,,,,,,,,,,,,,,,,,,,,0.045477431,-0.232235243,0,0,0,,,,,,,STRING,HB,z,y,./images/STRINGHB.png,,,,,,,z,1,1.1463,,,,,,,,0,156,156,125,1
,,,,,,,,,,,,,,,,,199987,19,2022-01-29_12h41.51.941,lexical_decision_task_DD_L6,2021.2.3,MacIntel,60.0024001,,,,,,,,,,,1.2972,1,,,,,,,,,,,,,,,,,,,,,,,,,0.045477431,-0.232235243,0,0,0,,,,,,,TRIPOD,LB,z,y,./images/TRIPODLB.png,,,,,,,z,1,1.2972,,,,,,,,0,157,157,138,1
,,,,,,,,,,,,,,,,,199987,19,2022-01-29_12h41.51.941,lexical_decision_task_DD_L6,2021.2.3,MacIntel,60.0024001,,,,,,,,,,,0.9337,1,,,,,,,,,,,,,,,,,,,,,,,,,0.045477431,-0.232235243,0,0,0,,,,,,,LADDER,HB,z,y,./images/LADDERHB.png,,,,,,,z,1,0.9337,,,,,,,,0,158,158,122,1
,,,,,,,,,,,,,,,,,199987,19,2022-01-29_12h41.51.941,lexical_decision_task_DD_L6,2021.2.3,MacIntel,60.0024001,,,,,,,,,,,0.8006,1,,,,,,,,,,,,,,,,,,,,,,,,,0.045477431,-0.232235243,0,0,0,,,,,,,JAGUAR,LB,z,y,./images/JAGUARLB.png,,,,,,,z,1,0.8006,,,,,,,,0,159,159,102,1
,,,,,,,,,,,,,,,,,199987,19,2022-01-29_12h41.51.941,lexical_decision_task_DD_L6,2021.2.3,MacIntel,60.0024001,,,,,,,,,,,1.3333,1,,,,,,,,,,,,,,,,,,,,,,,,,0.045477431,-0.231979167,0,0,0,,,,,,,QUILL,C,z,y,./images/QUILL.png,,,,,,,z,1,1.3333,,,,,,,,0,160,160,115,1
,,,,,,,,,,,,,,,,,199987,19,2022-01-29_12h41.51.941,lexical_decision_task_DD_L6,2021.2.3,MacIntel,60.0024001,,,,,,,,,,,1.4705,1,,,,,,,,,,,,,,,,,,,,,,,,,0.045477431,-0.231979167,0,0,0,,,,,,,BONNET,HB,z,y,./images/BONNETHB.png,,,,,,,z,1,1.4705,,,,,,,,0,161,161,95,1
,,,,,,,,,,,,,,,,,199987,19,2022-01-29_12h41.51.941,lexical_decision_task_DD_L6,2021.2.3,MacIntel,60.0024001,,,,,,,,,,,0.8521,1,,,,,,,,,,,,,,,,,,,,,,,,,0.045477431,-0.231979167,0,0,0,,,,,,,PIMPLE,HB,z,y,./images/PIMPLEHB.png,,,,,,,z,1,0.8521,,,,,,,,0,162,162,155,1
,,,,,,,,,,,,,,,,,199987,19,2022-01-29_12h41.51.941,lexical_decision_task_DD_L6,2021.2.3,MacIntel,60.0024001,,,,,,,,,,,0.8001,1,,,,,,,,,,,,,,,,,,,,,,,,,0.045477431,-0.231979167,0,0,0,,,,,,,LIZARD,HB,z,y,./images/LIZARDHB.png,,,,,,,z,1,0.8001,,,,,,,,0,163,163,128,1
,,,,,,,,,,,,,,,,,199987,19,2022-01-29_12h41.51.941,lexical_decision_task_DD_L6,2021.2.3,MacIntel,60.0024001,,,,,,,,,,,0.9839,1,,,,,,,,,,,,,,,,,,,,,,,,,0.045477431,-0.231979167,0,0,0,,,,,,,BELLY,C,z,y,./images/BELLY.png,,,,,,,z,1,0.9839,,,,,,,,0,164,164,94,1
,,,,,,,,,,,,,,,,,199987,19,2022-01-29_12h41.51.941,lexical_decision_task_DD_L6,2021.2.3,MacIntel,60.0024001,,,,,,,,,,,1.0501,1,,,,,,,,,,,,,,,,,,,,,,,,,0.045477431,-0.231979167,0,0,0,,,,,,,FERRY,LB,m,y,./images/FERRYLB.png,,,,,,,m,1,1.0501,,,,,,,,0,165,165,57,1
,,,,,,,,,,,,,,,,,199987,19,2022-01-29_12h41.51.941,lexical_decision_task_DD_L6,2021.2.3,MacIntel,60.0024001,,,,,,,,,,,0.8158,1,,,,,,,,,,,,,,,,,,,,,,,,,0.045477431,-0.231979167,0,0,0,,,,,,,PILOT,HB,m,y,./images/PILOTHB.png,,,,,,,m,1,0.8158,,,,,,,,0,166,166,50,1
,,,,,,,,,,,,,,,,,199987,19,2022-01-29_12h41.51.941,lexical_decision_task_DD_L6,2021.2.3,MacIntel,60.0024001,,,,,,,,,,,1.171,1,,,,,,,,,,,,,,,,,,,,,,,,,0.045477431,-0.231979167,0,0,0,,,,,,,SQUARE,LB,z,y,./images/SQUARELB.png,,,,,,,z,1,1.171,,,,,,,,0,167,167,90,1
