key_resp.keys,instr_done_touch.x,instr_done_touch.y,instr_done_touch.leftButton,instr_done_touch.midButton,instr_done_touch.rightButton,instr_done_touch.clicked_name,instruction_pages.thisRepN,instruction_pages.thisTrialN,instruction_pages.thisN,instruction_pages.thisIndex,instruction_pages.ran,pageN,phase,instruct_text,has_image,instruct_image,participant,age,date,expName,psychopyVersion,OS,frameRate,response.keys,response.corr,response.rt,touch_resp.x,touch_resp.y,touch_resp.leftButton,touch_resp.midButton,touch_resp.rightButton,touch_resp.time,touch_resp.clicked_name,rt,corr,practrials.thisRepN,practrials.thisTrialN,practrials.thisN,practrials.thisIndex,practrials.ran,TrialID,Target,corrAns,end_of_practice_trials_pages.thisRepN,end_of_practice_trials_pages.thisTrialN,end_of_practice_trials_pages.thisN,end_of_practice_trials_pages.thisIndex,end_of_practice_trials_pages.ran,key_resp_2.keys,key_resp_2.corr,key_resp_2.rt,targ_click.x,targ_click.y,targ_click.leftButton,targ_click.midButton,targ_click.rightButton,targ_click.time,targ_click.clicked_name,break_done_touch.x,break_done_touch.y,break_done_touch.leftButton,break_done_touch.midButton,break_done_touch.rightButton,break_done_keyboard.keys,maintrials.thisRepN,maintrials.thisTrialN,maintrials.thisN,maintrials.thisIndex,maintrials.ran,string,blur,study,lex,stim_path,break_done_keyboard.rt,key_resp.rt,test_instructions.thisRepN,test_instructions.thisTrialN,test_instructions.thisN,test_instructions.thisIndex,test_instructions.ran,key_resp_3.keys,key_resp_3.corr,key_resp_3.rt,test_click.x,test_click.y,test_click.leftButton,test_click.midButton,test_click.rightButton,test_click.time,test_click.clicked_name,test_phase.thisRepN,test_phase.thisTrialN,test_phase.thisN,test_phase.thisIndex,test_phase.ran
,0.053333333,-0.418888889,1,0,0,instr_done_button,0,0,0,0,1,1,instructions,"INSTRUCTIONS
At the start of each trial, look at the plus sign  (+) in the center of the screen.  This tells you that a trial is about to begin and where to look. Second, the plus sign will disappear and a string of letters will appear. Your task is to determine if the string of letters is a word or not. If the item is a word press the M key (on keyboard)  or touch the word button (phone/tablet).  If the item is not a word,  press the  Z key (on keyboard)  or touch the nonword button (on phone/tablet). 
Press the space bar or touch  continue.",0,,199999,19,2022-01-29_15h43.45.019,lexical_decision_task_DD_L6,2021.2.3,MacIntel,55.55555556,,,,,,,,,,,,,,,,,,,,,,,,,,,,,,,,,,,,,,,,,,,,,,,,,,,,,,,,,,,,,,,,,,,,,,,,,
,0.051111111,-0.418888889,1,0,0,instr_done_button,0,1,1,1,1,2,instructions,"If your device has a keyboard, press the 'Z' key for nonwords and the 'M' key for words.





Press the space bar or touch the button below to continue.",0,keyboard-example.gif,199999,19,2022-01-29_15h43.45.019,lexical_decision_task_DD_L6,2021.2.3,MacIntel,55.55555556,,,,,,,,,,,,,,,,,,,,,,,,,,,,,,,,,,,,,,,,,,,,,,,,,,,,,,,,,,,,,,,,,,,,,,,,,
,0.051111111,-0.418888889,1,0,0,instr_done_button,0,2,2,2,1,3,instructions,"If you are using a touchscreen only device, use the buttons on the screen. Do not use the mouse.





Press the space bar or touch the button below to continue.",0,touchscreen-example.gif,199999,19,2022-01-29_15h43.45.019,lexical_decision_task_DD_L6,2021.2.3,MacIntel,55.55555556,,,,,,,,,,,,,,,,,,,,,,,,,,,,,,,,,,,,,,,,,,,,,,,,,,,,,,,,,,,,,,,,,,,,,,,,,
,0.051111111,-0.418888889,1,0,0,instr_done_button,0,3,3,3,1,4,instructions,"It is very important that you respond as quickly and accurately as possible, as each letter string will only be on the screen for two seconds. If you do not respond within this time, the message 'Too slow!' will be displayed and the experiment will progress to the next letter string. The first 20 trials will be practice trials and you will receive feedback on your answers. 

Press the space bar or touch the button below to start the practice trials.",0,,199999,19,2022-01-29_15h43.45.019,lexical_decision_task_DD_L6,2021.2.3,MacIntel,55.55555556,,,,,,,,,,,,,,,,,,,,,,,,,,,,,,,,,,,,,,,,,,,,,,,,,,,,,,,,,,,,,,,,,,,,,,,,,
,,,,,,,,,,,,,,,,,199999,19,2022-01-29_15h43.45.019,lexical_decision_task_DD_L6,2021.2.3,MacIntel,55.55555556,m,1,3.553,,,,,,,,3.553,1,0,0,0,7,1,1001,VOLUME,m,,,,,,,,,,,,,,,,,,,,,,,,,,,,,,,,,,,,,,,,,,,,,,,,,,,,,
,,,,,,,,,,,,,,,,,199999,19,2022-01-29_15h43.45.019,lexical_decision_task_DD_L6,2021.2.3,MacIntel,55.55555556,z,1,1.955,,,,,,,,1.955,1,0,1,1,9,1,1001,FARINY,z,,,,,,,,,,,,,,,,,,,,,,,,,,,,,,,,,,,,,,,,,,,,,,,,,,,,,
,,,,,,,,,,,,,,,,,199999,19,2022-01-29_15h43.45.019,lexical_decision_task_DD_L6,2021.2.3,MacIntel,55.55555556,m,1,0.956,,,,,,,,0.956,1,0,2,2,6,1,1001,ZOMBIE,m,,,,,,,,,,,,,,,,,,,,,,,,,,,,,,,,,,,,,,,,,,,,,,,,,,,,,
,,,,,,,,,,,,,,,,,199999,19,2022-01-29_15h43.45.019,lexical_decision_task_DD_L6,2021.2.3,MacIntel,55.55555556,m,0,1.904,,,,,,,,1.904,0,0,3,3,14,1,1001,THRALE,z,,,,,,,,,,,,,,,,,,,,,,,,,,,,,,,,,,,,,,,,,,,,,,,,,,,,,
,,,,,,,,,,,,,,,,,199999,19,2022-01-29_15h43.45.019,lexical_decision_task_DD_L6,2021.2.3,MacIntel,55.55555556,z,1,0.885,,,,,,,,0.885,1,0,4,4,11,1,1001,RASHET,z,,,,,,,,,,,,,,,,,,,,,,,,,,,,,,,,,,,,,,,,,,,,,,,,,,,,,
,,,,,,,,,,,,,,,,,199999,19,2022-01-29_15h43.45.019,lexical_decision_task_DD_L6,2021.2.3,MacIntel,55.55555556,m,1,0.635,,,,,,,,0.635,1,0,5,5,2,1,1001,ALMOND,m,,,,,,,,,,,,,,,,,,,,,,,,,,,,,,,,,,,,,,,,,,,,,,,,,,,,,
,,,,,,,,,,,,,,,,,199999,19,2022-01-29_15h43.45.019,lexical_decision_task_DD_L6,2021.2.3,MacIntel,55.55555556,m,1,2.628,,,,,,,,2.628,1,0,6,6,1,1,1001,ADJUST,m,,,,,,,,,,,,,,,,,,,,,,,,,,,,,,,,,,,,,,,,,,,,,,,,,,,,,
,,,,,,,,,,,,,,,,,199999,19,2022-01-29_15h43.45.019,lexical_decision_task_DD_L6,2021.2.3,MacIntel,55.55555556,z,1,1.078,,,,,,,,1.078,1,0,7,7,12,1,1001,SPRINY,z,,,,,,,,,,,,,,,,,,,,,,,,,,,,,,,,,,,,,,,,,,,,,,,,,,,,,
,,,,,,,,,,,,,,,,,199999,19,2022-01-29_15h43.45.019,lexical_decision_task_DD_L6,2021.2.3,MacIntel,55.55555556,z,1,0.851,,,,,,,,0.851,1,0,8,8,10,1,1001,INLADE,z,,,,,,,,,,,,,,,,,,,,,,,,,,,,,,,,,,,,,,,,,,,,,,,,,,,,,
,,,,,,,,,,,,,,,,,199999,19,2022-01-29_15h43.45.019,lexical_decision_task_DD_L6,2021.2.3,MacIntel,55.55555556,z,1,0.96,,,,,,,,0.96,1,0,9,9,15,1,1001,WHAISE,z,,,,,,,,,,,,,,,,,,,,,,,,,,,,,,,,,,,,,,,,,,,,,,,,,,,,,
,,,,,,,,,,,,,,,,,199999,19,2022-01-29_15h43.45.019,lexical_decision_task_DD_L6,2021.2.3,MacIntel,55.55555556,m,0,1.61,,,,,,,,1.61,0,0,10,10,13,1,1001,ROUPET,z,,,,,,,,,,,,,,,,,,,,,,,,,,,,,,,,,,,,,,,,,,,,,,,,,,,,,
,,,,,,,,,,,,,,,,,199999,19,2022-01-29_15h43.45.019,lexical_decision_task_DD_L6,2021.2.3,MacIntel,55.55555556,m,1,0.761,,,,,,,,0.761,1,0,11,11,3,1,1001,MATRIX,m,,,,,,,,,,,,,,,,,,,,,,,,,,,,,,,,,,,,,,,,,,,,,,,,,,,,,
,,,,,,,,,,,,,,,,,199999,19,2022-01-29_15h43.45.019,lexical_decision_task_DD_L6,2021.2.3,MacIntel,55.55555556,m,1,0.642,,,,,,,,0.642,1,0,12,12,5,1,1001,OBTAIN,m,,,,,,,,,,,,,,,,,,,,,,,,,,,,,,,,,,,,,,,,,,,,,,,,,,,,,
,,,,,,,,,,,,,,,,,199999,19,2022-01-29_15h43.45.019,lexical_decision_task_DD_L6,2021.2.3,MacIntel,55.55555556,m,1,0.712,,,,,,,,0.712,1,0,13,13,0,1,1001,UTOPIA,m,,,,,,,,,,,,,,,,,,,,,,,,,,,,,,,,,,,,,,,,,,,,,,,,,,,,,
,,,,,,,,,,,,,,,,,199999,19,2022-01-29_15h43.45.019,lexical_decision_task_DD_L6,2021.2.3,MacIntel,55.55555556,z,1,0.745,,,,,,,,0.745,1,0,14,14,8,1,1001,ASLERT,z,,,,,,,,,,,,,,,,,,,,,,,,,,,,,,,,,,,,,,,,,,,,,,,,,,,,,
,,,,,,,,,,,,,,,,,199999,19,2022-01-29_15h43.45.019,lexical_decision_task_DD_L6,2021.2.3,MacIntel,55.55555556,m,1,0.67,,,,,,,,0.67,1,0,15,15,4,1,1001,SQUEAK,m,,,,,,,,,,,,,,,,,,,,,,,,,,,,,,,,,,,,,,,,,,,,,,,,,,,,,
,-0.06,-0.388888889,1,0,0,instr_done_button,,,,,,1,end_of_practice,"You have completed the practice trials. During the experimental trials, you will not receive feedback. 
Before you begin, please ensure that you are in a comfortable and quiet location and will not be disturbed for about 15 minutes, as we cannot use your data if you do not complete all the trials. 
 When you are ready to start the experimental trials, please press space or touch the button below.",,,199999,19,2022-01-29_15h43.45.019,lexical_decision_task_DD_L6,2021.2.3,MacIntel,55.55555556,,,,,,,,,,,,,,,,,,,,,0,0,0,0,1,,,,,,,,,,,,,,,,,,,,,,,,,,,,,,,,,,,,,,,,,,,,,,,,
,,,,,,,,,,,,,,,,,199999,19,2022-01-29_15h43.45.019,lexical_decision_task_DD_L6,2021.2.3,MacIntel,55.55555556,,,,,,,,,,,4.137,1,,,,,,,,,,,,,,z,1,4.137,,,,,,,,-0.06,-0.388888889,0,0,0,,0,0,0,144,1,NAIRY,C,old,z,./images/NAIRY.png,,,,,,,,,,,,,,,,,,,,,,
,,,,,,,,,,,,,,,,,199999,19,2022-01-29_15h43.45.019,lexical_decision_task_DD_L6,2021.2.3,MacIntel,55.55555556,,,,,,,,,,,0.968,1,,,,,,,,,,,,,,z,1,0.968,,,,,,,,-0.06,-0.388888889,0,0,0,,0,1,1,153,1,CLUPS,C,old,z,./images/CLUPS.png,,,,,,,,,,,,,,,,,,,,,,
,,,,,,,,,,,,,,,,,199999,19,2022-01-29_15h43.45.019,lexical_decision_task_DD_L6,2021.2.3,MacIntel,55.55555556,,,,,,,,,,,2.209,1,,,,,,,,,,,,,,m,1,2.209,,,,,,,,-0.06,-0.388888889,0,0,0,,0,2,2,8,1,CLIFF,HB,old,m,./images/CLIFFHB.png,,,,,,,,,,,,,,,,,,,,,,
,,,,,,,,,,,,,,,,,199999,19,2022-01-29_15h43.45.019,lexical_decision_task_DD_L6,2021.2.3,MacIntel,55.55555556,,,,,,,,,,,0.597,1,,,,,,,,,,,,,,m,1,0.597,,,,,,,,-0.06,-0.388888889,0,0,0,,0,3,3,42,1,CHAIN,LB,old,m,./images/CHAINLB.png,,,,,,,,,,,,,,,,,,,,,,
,,,,,,,,,,,,,,,,,199999,19,2022-01-29_15h43.45.019,lexical_decision_task_DD_L6,2021.2.3,MacIntel,55.55555556,,,,,,,,,,,1.454,0,,,,,,,,,,,,,,m,0,1.454,,,,,,,,-0.06,-0.388888889,0,0,0,,0,4,4,109,1,BURGE,HB,old,z,./images/BURGEHB.png,,,,,,,,,,,,,,,,,,,,,,
,,,,,,,,,,,,,,,,,199999,19,2022-01-29_15h43.45.019,lexical_decision_task_DD_L6,2021.2.3,MacIntel,55.55555556,,,,,,,,,,,0.654,1,,,,,,,,,,,,,,m,1,0.654,,,,,,,,-0.06,-0.388888889,0,0,0,,0,5,5,34,1,RAZOR,C,old,m,./images/RAZOR.png,,,,,,,,,,,,,,,,,,,,,,
,,,,,,,,,,,,,,,,,199999,19,2022-01-29_15h43.45.019,lexical_decision_task_DD_L6,2021.2.3,MacIntel,55.55555556,,,,,,,,,,,1.841,1,,,,,,,,,,,,,,z,1,1.841,,,,,,,,-0.06,-0.388888889,0,0,0,,0,6,6,101,1,GLEET,LB,old,z,./images/GLEETLB.png,,,,,,,,,,,,,,,,,,,,,,
,,,,,,,,,,,,,,,,,199999,19,2022-01-29_15h43.45.019,lexical_decision_task_DD_L6,2021.2.3,MacIntel,55.55555556,,,,,,,,,,,0.587,1,,,,,,,,,,,,,,m,1,0.587,,,,,,,,-0.06,-0.388888889,0,0,0,,0,7,7,63,1,BAKER,LB,old,m,./images/BAKERLB.png,,,,,,,,,,,,,,,,,,,,,,
,,,,,,,,,,,,,,,,,199999,19,2022-01-29_15h43.45.019,lexical_decision_task_DD_L6,2021.2.3,MacIntel,55.55555556,,,,,,,,,,,0.894,1,,,,,,,,,,,,,,z,1,0.894,,,,,,,,-0.06,-0.388888889,0,0,0,,0,8,8,164,1,SGREW,LB,old,z,./images/SGREWLB.png,,,,,,,,,,,,,,,,,,,,,,
,,,,,,,,,,,,,,,,,199999,19,2022-01-29_15h43.45.019,lexical_decision_task_DD_L6,2021.2.3,MacIntel,55.55555556,,,,,,,,,,,0.995,1,,,,,,,,,,,,,,m,1,0.995,,,,,,,,-0.06,-0.388888889,0,0,0,,0,9,9,47,1,LAGOON,HB,old,m,./images/LAGOONHB.png,,,,,,,,,,,,,,,,,,,,,,
,,,,,,,,,,,,,,,,,199999,19,2022-01-29_15h43.45.019,lexical_decision_task_DD_L6,2021.2.3,MacIntel,55.55555556,,,,,,,,,,,0.869,1,,,,,,,,,,,,,,m,1,0.869,,,,,,,,-0.06,-0.388888889,0,0,0,,0,10,10,52,1,DESERT,C,old,m,./images/DESERT.png,,,,,,,,,,,,,,,,,,,,,,
,,,,,,,,,,,,,,,,,199999,19,2022-01-29_15h43.45.019,lexical_decision_task_DD_L6,2021.2.3,MacIntel,55.55555556,,,,,,,,,,,0.947,1,,,,,,,,,,,,,,z,1,0.947,,,,,,,,-0.06,-0.388888889,0,0,0,,0,11,11,149,1,VEASE,LB,old,z,./images/VEASELB.png,,,,,,,,,,,,,,,,,,,,,,
,,,,,,,,,,,,,,,,,199999,19,2022-01-29_15h43.45.019,lexical_decision_task_DD_L6,2021.2.3,MacIntel,55.55555556,,,,,,,,,,,1.153,1,,,,,,,,,,,,,,z,1,1.153,,,,,,,,-0.06,-0.388888889,0,0,0,,0,12,12,87,1,TRING,C,old,z,./images/TRING.png,,,,,,,,,,,,,,,,,,,,,,
,,,,,,,,,,,,,,,,,199999,19,2022-01-29_15h43.45.019,lexical_decision_task_DD_L6,2021.2.3,MacIntel,55.55555556,,,,,,,,,,,1.137,1,,,,,,,,,,,,,,m,1,1.137,,,,,,,,-0.06,-0.388888889,0,0,0,,0,13,13,20,1,GRANNY,HB,old,m,./images/GRANNYHB.png,,,,,,,,,,,,,,,,,,,,,,
,,,,,,,,,,,,,,,,,199999,19,2022-01-29_15h43.45.019,lexical_decision_task_DD_L6,2021.2.3,MacIntel,55.55555556,,,,,,,,,,,0.722,1,,,,,,,,,,,,,,m,1,0.722,,,,,,,,-0.06,-0.388888889,0,0,0,,0,14,14,1,1,TOWEL,C,old,m,./images/TOWEL.png,,,,,,,,,,,,,,,,,,,,,,
,,,,,,,,,,,,,,,,,199999,19,2022-01-29_15h43.45.019,lexical_decision_task_DD_L6,2021.2.3,MacIntel,55.55555556,,,,,,,,,,,0.634,1,,,,,,,,,,,,,,m,1,0.634,,,,,,,,-0.06,-0.388888889,0,0,0,,0,15,15,49,1,BISHOP,C,old,m,./images/BISHOP.png,,,,,,,,,,,,,,,,,,,,,,
,,,,,,,,,,,,,,,,,199999,19,2022-01-29_15h43.45.019,lexical_decision_task_DD_L6,2021.2.3,MacIntel,55.55555556,,,,,,,,,,,0.703,1,,,,,,,,,,,,,,m,1,0.703,,,,,,,,-0.06,-0.388888889,0,0,0,,0,16,16,25,1,CHALK,C,old,m,./images/CHALK.png,,,,,,,,,,,,,,,,,,,,,,
,,,,,,,,,,,,,,,,,199999,19,2022-01-29_15h43.45.019,lexical_decision_task_DD_L6,2021.2.3,MacIntel,55.55555556,,,,,,,,,,,1.405,0,,,,,,,,,,,,,,z,0,1.405,,,,,,,,-0.06,-0.388888889,0,0,0,,0,17,17,11,1,MEDAL,HB,old,m,./images/MEDALHB.png,,,,,,,,,,,,,,,,,,,,,,
,,,,,,,,,,,,,,,,,199999,19,2022-01-29_15h43.45.019,lexical_decision_task_DD_L6,2021.2.3,MacIntel,55.55555556,,,,,,,,,,,0.623,1,,,,,,,,,,,,,,m,1,0.623,,,,,,,,-0.06,-0.388888889,0,0,0,,0,18,18,80,1,PLANET,HB,old,m,./images/PLANETHB.png,,,,,,,,,,,,,,,,,,,,,,
,,,,,,,,,,,,,,,,,199999,19,2022-01-29_15h43.45.019,lexical_decision_task_DD_L6,2021.2.3,MacIntel,55.55555556,,,,,,,,,,,0.584,0,,,,,,,,,,,,,,m,0,0.584,,,,,,,,-0.06,-0.388888889,0,0,0,,0,19,19,167,1,ZONET,LB,old,z,./images/ZONETLB.png,,,,,,,,,,,,,,,,,,,,,,
,,,,,,,,,,,,,,,,,199999,19,2022-01-29_15h43.45.019,lexical_decision_task_DD_L6,2021.2.3,MacIntel,55.55555556,,,,,,,,,,,0.822,1,,,,,,,,,,,,,,z,1,0.822,,,,,,,,-0.06,-0.388888889,0,0,0,,0,20,20,161,1,BLAPS,LB,old,z,./images/BLAPSLB.png,,,,,,,,,,,,,,,,,,,,,,
,,,,,,,,,,,,,,,,,199999,19,2022-01-29_15h43.45.019,lexical_decision_task_DD_L6,2021.2.3,MacIntel,55.55555556,,,,,,,,,,,0.686,0,,,,,,,,,,,,,,m,0,0.686,,,,,,,,-0.06,-0.388888889,0,0,0,,0,21,21,110,1,CRUNK,LB,old,z,./images/CRUNKLB.png,,,,,,,,,,,,,,,,,,,,,,
,,,,,,,,,,,,,,,,,199999,19,2022-01-29_15h43.45.019,lexical_decision_task_DD_L6,2021.2.3,MacIntel,55.55555556,,,,,,,,,,,0.341,1,,,,,,,,,,,,,,z,1,0.341,,,,,,,,-0.06,-0.388888889,0,0,0,,0,22,22,152,1,FRAIN,LB,old,z,./images/FRAINLB.png,,,,,,,,,,,,,,,,,,,,,,
,,,,,,,,,,,,,,,,,199999,19,2022-01-29_15h43.45.019,lexical_decision_task_DD_L6,2021.2.3,MacIntel,55.55555556,,,,,,,,,,,0.127,0,,,,,,,,,,,,,,m,0,0.127,,,,,,,,-0.06,-0.388888889,0,0,0,,0,23,23,163,1,GAMBA,HB,old,z,./images/GAMBAHB.png,,,,,,,,,,,,,,,,,,,,,,
,,,,,,,,,,,,,,,,,199999,19,2022-01-29_15h43.45.019,lexical_decision_task_DD_L6,2021.2.3,MacIntel,55.55555556,,,,,,,,,,,0.337,1,,,,,,,,,,,,,,m,1,0.337,,,,,,,,-0.06,-0.388888889,0,0,0,,0,24,24,64,1,BRIDE,C,old,m,./images/BRIDE.png,,,,,,,,,,,,,,,,,,,,,,
,,,,,,,,,,,,,,,,,199999,19,2022-01-29_15h43.45.019,lexical_decision_task_DD_L6,2021.2.3,MacIntel,55.55555556,,,,,,,,,,,0.617,0,,,,,,,,,,,,,,m,0,0.617,,,,,,,,-0.06,-0.388888889,0,0,0,,0,25,25,95,1,HANTY,LB,old,z,./images/HANTYLB.png,,,,,,,,,,,,,,,,,,,,,,
,,,,,,,,,,,,,,,,,199999,19,2022-01-29_15h43.45.019,lexical_decision_task_DD_L6,2021.2.3,MacIntel,55.55555556,,,,,,,,,,,1.356,1,,,,,,,,,,,,,,z,1,1.356,,,,,,,,-0.06,-0.388888889,0,0,0,,0,26,26,140,1,DOVET,LB,old,z,./images/DOVETLB.png,,,,,,,,,,,,,,,,,,,,,,
,,,,,,,,,,,,,,,,,199999,19,2022-01-29_15h43.45.019,lexical_decision_task_DD_L6,2021.2.3,MacIntel,55.55555556,,,,,,,,,,,0.06,0,,,,,,,,,,,,,,z,0,0.06,,,,,,,,-0.06,-0.388888889,0,0,0,,0,27,27,44,1,BASKET,HB,old,m,./images/BASKETHB.png,,,,,,,,,,,,,,,,,,,,,,
,,,,,,,,,,,,,,,,,199999,19,2022-01-29_15h43.45.019,lexical_decision_task_DD_L6,2021.2.3,MacIntel,55.55555556,,,,,,,,,,,0.745,1,,,,,,,,,,,,,,z,1,0.745,,,,,,,,-0.06,-0.388888889,0,0,0,,0,28,28,89,1,DRIEK,LB,old,z,./images/DRIEKLB.png,,,,,,,,,,,,,,,,,,,,,,
,,,,,,,,,,,,,,,,,199999,19,2022-01-29_15h43.45.019,lexical_decision_task_DD_L6,2021.2.3,MacIntel,55.55555556,,,,,,,,,,,1.694,1,,,,,,,,,,,,,,m,1,1.694,,,,,,,,-0.06,-0.388888889,0,0,0,,0,29,29,5,1,BAMBOO,HB,old,m,./images/BAMBOOHB.png,,,,,,,,,,,,,,,,,,,,,,
,,,,,,,,,,,,,,,,,199999,19,2022-01-29_15h43.45.019,lexical_decision_task_DD_L6,2021.2.3,MacIntel,55.55555556,,,,,,,,,,,2.744,0,,,,,,,,,,,,,,m,0,2.744,,,,,,,,-0.06,-0.388888889,0,0,0,,0,30,30,91,1,SHENS,HB,old,z,./images/SHENSHB.png,,,,,,,,,,,,,,,,,,,,,,
,,,,,,,,,,,,,,,,,199999,19,2022-01-29_15h43.45.019,lexical_decision_task_DD_L6,2021.2.3,MacIntel,55.55555556,,,,,,,,,,,1.421,1,,,,,,,,,,,,,,z,1,1.421,,,,,,,,-0.06,-0.388888889,0,0,0,,0,31,31,107,1,FASKS,LB,old,z,./images/FASKSLB.png,,,,,,,,,,,,,,,,,,,,,,
,,,,,,,,,,,,,,,,,199999,19,2022-01-29_15h43.45.019,lexical_decision_task_DD_L6,2021.2.3,MacIntel,55.55555556,,,,,,,,,,,0.743,1,,,,,,,,,,,,,,m,1,0.743,,,,,,,,-0.06,-0.388888889,0,0,0,,0,32,32,4,1,BOXER,C,old,m,./images/BOXER.png,,,,,,,,,,,,,,,,,,,,,,
,,,,,,,,,,,,,,,,,199999,19,2022-01-29_15h43.45.019,lexical_decision_task_DD_L6,2021.2.3,MacIntel,55.55555556,,,,,,,,,,,0.862,0,,,,,,,,,,,,,,m,0,0.862,,,,,,,,-0.06,-0.388888889,0,0,0,,0,33,33,166,1,SHORY,HB,old,z,./images/SHORYHB.png,,,,,,,,,,,,,,,,,,,,,,
,,,,,,,,,,,,,,,,,199999,19,2022-01-29_15h43.45.019,lexical_decision_task_DD_L6,2021.2.3,MacIntel,55.55555556,,,,,,,,,,,0.71,1,,,,,,,,,,,,,,m,1,0.71,,,,,,,,-0.06,-0.388888889,0,0,0,,0,34,34,17,1,PARADE,HB,old,m,./images/PARADEHB.png,,,,,,,,,,,,,,,,,,,,,,
,,,,,,,,,,,,,,,,,199999,19,2022-01-29_15h43.45.019,lexical_decision_task_DD_L6,2021.2.3,MacIntel,55.55555556,,,,,,,,,,,0.619,1,,,,,,,,,,,,,,z,1,0.619,,,,,,,,-0.06,-0.388888889,0,0,0,,0,35,35,117,1,STEEG,C,old,z,./images/STEEG.png,,,,,,,,,,,,,,,,,,,,,,
,,,,,,,,,,,,,,,,,199999,19,2022-01-29_15h43.45.019,lexical_decision_task_DD_L6,2021.2.3,MacIntel,55.55555556,,,,,,,,,,,0.57,1,,,,,,,,,,,,,,m,1,0.57,,,,,,,,-0.06,-0.388888889,0,0,0,,0,36,36,75,1,HAMMER,LB,old,m,./images/HAMMERLB.png,,,,,,,,,,,,,,,,,,,,,,
,,,,,,,,,,,,,,,,,199999,19,2022-01-29_15h43.45.019,lexical_decision_task_DD_L6,2021.2.3,MacIntel,55.55555556,,,,,,,,,,,1.409,1,,,,,,,,,,,,,,z,1,1.409,,,,,,,,-0.06,-0.388888889,0,0,0,,0,37,37,112,1,MYING,HB,old,z,./images/MYINGHB.png,,,,,,,,,,,,,,,,,,,,,,
,,,,,,,,,,,,,,,,,199999,19,2022-01-29_15h43.45.019,lexical_decision_task_DD_L6,2021.2.3,MacIntel,55.55555556,,,,,,,,,,,0.726,0,,,,,,,,,,,,,,m,0,0.726,,,,,,,,-0.06,-0.388888889,0,0,0,,0,38,38,160,1,VEETS,HB,old,z,./images/VEETSHB.png,,,,,,,,,,,,,,,,,,,,,,
,,,,,,,,,,,,,,,,,199999,19,2022-01-29_15h43.45.019,lexical_decision_task_DD_L6,2021.2.3,MacIntel,55.55555556,,,,,,,,,,,1.221,1,,,,,,,,,,,,,,z,1,1.221,,,,,,,,-0.06,-0.388888889,0,0,0,,0,39,39,100,1,DRIBS,HB,old,z,./images/DRIBSHB.png,,,,,,,,,,,,,,,,,,,,,,
,,,,,,,,,,,,,,,,,199999,19,2022-01-29_15h43.45.019,lexical_decision_task_DD_L6,2021.2.3,MacIntel,55.55555556,,,,,,,,,,,1.105,0,,,,,,,,,,,,,,z,0,1.105,,,,,,,,-0.06,-0.388888889,0,0,0,,0,40,40,3,1,CRATER,LB,old,m,./images/CRATERLB.png,,,,,,,,,,,,,,,,,,,,,,
,,,,,,,,,,,,,,,,,199999,19,2022-01-29_15h43.45.019,lexical_decision_task_DD_L6,2021.2.3,MacIntel,55.55555556,,,,,,,,,,,0.743,1,,,,,,,,,,,,,,z,1,0.743,,,,,,,,-0.06,-0.388888889,0,0,0,space,0,41,41,120,1,RINED,C,old,z,./images/RINED.png,3.42,,,,,,,,,,,,,,,,,,,,,
,,,,,,,,,,,,,,,,,199999,19,2022-01-29_15h43.45.019,lexical_decision_task_DD_L6,2021.2.3,MacIntel,55.55555556,,,,,,,,,,,1.029,1,,,,,,,,,,,,,,z,1,1.029,,,,,,,,-0.06,-0.388888889,0,0,0,,0,42,42,132,1,SCIFF,C,old,z,./images/SCIFF.png,,,,,,,,,,,,,,,,,,,,,,
,,,,,,,,,,,,,,,,,199999,19,2022-01-29_15h43.45.019,lexical_decision_task_DD_L6,2021.2.3,MacIntel,55.55555556,,,,,,,,,,,0.753,1,,,,,,,,,,,,,,z,1,0.753,,,,,,,,-0.06,-0.388888889,0,0,0,,0,43,43,162,1,LEICH,C,old,z,./images/LEICH.png,,,,,,,,,,,,,,,,,,,,,,
,,,,,,,,,,,,,,,,,199999,19,2022-01-29_15h43.45.019,lexical_decision_task_DD_L6,2021.2.3,MacIntel,55.55555556,,,,,,,,,,,0.67,0,,,,,,,,,,,,,,m,0,0.67,,,,,,,,-0.06,-0.388888889,0,0,0,,0,44,44,122,1,BLOOT,LB,old,z,./images/BLOOTLB.png,,,,,,,,,,,,,,,,,,,,,,
,,,,,,,,,,,,,,,,,199999,19,2022-01-29_15h43.45.019,lexical_decision_task_DD_L6,2021.2.3,MacIntel,55.55555556,,,,,,,,,,,0.544,1,,,,,,,,,,,,,,m,1,0.544,,,,,,,,-0.06,-0.388888889,0,0,0,,0,45,45,76,1,MIDGET,C,old,m,./images/MIDGET.png,,,,,,,,,,,,,,,,,,,,,,
,,,,,,,,,,,,,,,,,199999,19,2022-01-29_15h43.45.019,lexical_decision_task_DD_L6,2021.2.3,MacIntel,55.55555556,,,,,,,,,,,0.784,1,,,,,,,,,,,,,,m,1,0.784,,,,,,,,-0.06,-0.388888889,0,0,0,,0,46,46,50,1,PILOT,HB,old,m,./images/PILOTHB.png,,,,,,,,,,,,,,,,,,,,,,
,,,,,,,,,,,,,,,,,199999,19,2022-01-29_15h43.45.019,lexical_decision_task_DD_L6,2021.2.3,MacIntel,55.55555556,,,,,,,,,,,1.093,0,,,,,,,,,,,,,,m,0,1.093,,,,,,,,-0.06,-0.388888889,0,0,0,,0,47,47,123,1,SEDGE,C,old,z,./images/SEDGE.png,,,,,,,,,,,,,,,,,,,,,,
,,,,,,,,,,,,,,,,,199999,19,2022-01-29_15h43.45.019,lexical_decision_task_DD_L6,2021.2.3,MacIntel,55.55555556,,,,,,,,,,,0.52,0,,,,,,,,,,,,,,z,0,0.52,,,,,,,,-0.06,-0.388888889,0,0,0,,0,48,48,19,1,DONKEY,C,old,m,./images/DONKEY.png,,,,,,,,,,,,,,,,,,,,,,
,,,,,,,,,,,,,,,,,199999,19,2022-01-29_15h43.45.019,lexical_decision_task_DD_L6,2021.2.3,MacIntel,55.55555556,,,,,,,,,,,0.696,1,,,,,,,,,,,,,,m,1,0.696,,,,,,,,-0.06,-0.388888889,0,0,0,,0,49,49,27,1,BUTTER,LB,old,m,./images/BUTTERLB.png,,,,,,,,,,,,,,,,,,,,,,
,,,,,,,,,,,,,,,,,199999,19,2022-01-29_15h43.45.019,lexical_decision_task_DD_L6,2021.2.3,MacIntel,55.55555556,,,,,,,,,,,0.737,1,,,,,,,,,,,,,,z,1,0.737,,,,,,,,-0.06,-0.388888889,0,0,0,,0,50,50,126,1,GUELS,C,old,z,./images/GUELS.png,,,,,,,,,,,,,,,,,,,,,,
,,,,,,,,,,,,,,,,,199999,19,2022-01-29_15h43.45.019,lexical_decision_task_DD_L6,2021.2.3,MacIntel,55.55555556,,,,,,,,,,,0.572,1,,,,,,,,,,,,,,m,1,0.572,,,,,,,,-0.06,-0.388888889,0,0,0,,0,51,51,79,1,RULER,C,old,m,./images/RULER.png,,,,,,,,,,,,,,,,,,,,,,
,,,,,,,,,,,,,,,,,199999,19,2022-01-29_15h43.45.019,lexical_decision_task_DD_L6,2021.2.3,MacIntel,55.55555556,,,,,,,,,,,1.102,1,,,,,,,,,,,,,,z,1,1.102,,,,,,,,-0.06,-0.388888889,0,0,0,,0,52,52,118,1,BAVEL,HB,old,z,./images/BAVELHB.png,,,,,,,,,,,,,,,,,,,,,,
,,,,,,,,,,,,,,,,,199999,19,2022-01-29_15h43.45.019,lexical_decision_task_DD_L6,2021.2.3,MacIntel,55.55555556,,,,,,,,,,,1.088,1,,,,,,,,,,,,,,z,1,1.088,,,,,,,,-0.06,-0.388888889,0,0,0,,0,53,53,138,1,PLICE,C,old,z,./images/PLICE.png,,,,,,,,,,,,,,,,,,,,,,
,,,,,,,,,,,,,,,,,199999,19,2022-01-29_15h43.45.019,lexical_decision_task_DD_L6,2021.2.3,MacIntel,55.55555556,,,,,,,,,,,0.587,1,,,,,,,,,,,,,,m,1,0.587,,,,,,,,-0.06,-0.388888889,0,0,0,,0,54,54,46,1,MUMMY,C,old,m,./images/MUMMY.png,,,,,,,,,,,,,,,,,,,,,,
,,,,,,,,,,,,,,,,,199999,19,2022-01-29_15h43.45.019,lexical_decision_task_DD_L6,2021.2.3,MacIntel,55.55555556,,,,,,,,,,,0.605,1,,,,,,,,,,,,,,m,1,0.605,,,,,,,,-0.06,-0.388888889,0,0,0,,0,55,55,70,1,BANANA,C,old,m,./images/BANANA.png,,,,,,,,,,,,,,,,,,,,,,
,,,,,,,,,,,,,,,,,199999,19,2022-01-29_15h43.45.019,lexical_decision_task_DD_L6,2021.2.3,MacIntel,55.55555556,,,,,,,,,,,1.572,1,,,,,,,,,,,,,,m,1,1.572,,,,,,,,-0.06,-0.388888889,0,0,0,,0,56,56,53,1,POSTER,HB,old,m,./images/POSTERHB.png,,,,,,,,,,,,,,,,,,,,,,
,,,,,,,,,,,,,,,,,199999,19,2022-01-29_15h43.45.019,lexical_decision_task_DD_L6,2021.2.3,MacIntel,55.55555556,,,,,,,,,,,0.628,1,,,,,,,,,,,,,,z,1,0.628,,,,,,,,-0.06,-0.388888889,0,0,0,,0,57,57,143,1,MONGS,LB,old,z,./images/MONGSLB.png,,,,,,,,,,,,,,,,,,,,,,
,,,,,,,,,,,,,,,,,199999,19,2022-01-29_15h43.45.019,lexical_decision_task_DD_L6,2021.2.3,MacIntel,55.55555556,,,,,,,,,,,0.629,1,,,,,,,,,,,,,,z,1,0.629,,,,,,,,-0.06,-0.388888889,0,0,0,,0,58,58,156,1,HIXES,C,old,z,./images/HIXES.png,,,,,,,,,,,,,,,,,,,,,,
,,,,,,,,,,,,,,,,,199999,19,2022-01-29_15h43.45.019,lexical_decision_task_DD_L6,2021.2.3,MacIntel,55.55555556,,,,,,,,,,,1.076,1,,,,,,,,,,,,,,z,1,1.076,,,,,,,,-0.06,-0.388888889,0,0,0,,0,59,59,88,1,GLUSH,HB,old,z,./images/GLUSHHB.png,,,,,,,,,,,,,,,,,,,,,,
,,,,,,,,,,,,,,,,,199999,19,2022-01-29_15h43.45.019,lexical_decision_task_DD_L6,2021.2.3,MacIntel,55.55555556,,,,,,,,,,,0.739,1,,,,,,,,,,,,,,m,1,0.739,,,,,,,,-0.06,-0.388888889,0,0,0,,0,60,60,61,1,ARTIST,C,old,m,./images/ARTIST.png,,,,,,,,,,,,,,,,,,,,,,
,,,,,,,,,,,,,,,,,199999,19,2022-01-29_15h43.45.019,lexical_decision_task_DD_L6,2021.2.3,MacIntel,55.55555556,,,,,,,,,,,0.778,1,,,,,,,,,,,,,,z,1,0.778,,,,,,,,-0.06,-0.388888889,0,0,0,,0,61,61,115,1,MAWNS,HB,old,z,./images/MAWNSHB.png,,,,,,,,,,,,,,,,,,,,,,
,,,,,,,,,,,,,,,,,199999,19,2022-01-29_15h43.45.019,lexical_decision_task_DD_L6,2021.2.3,MacIntel,55.55555556,,,,,,,,,,,0.962,1,,,,,,,,,,,,,,m,1,0.962,,,,,,,,-0.06,-0.388888889,0,0,0,,0,62,62,30,1,SLOPE,LB,old,m,./images/SLOPELB.png,,,,,,,,,,,,,,,,,,,,,,
,,,,,,,,,,,,,,,,,199999,19,2022-01-29_15h43.45.019,lexical_decision_task_DD_L6,2021.2.3,MacIntel,55.55555556,,,,,,,,,,,1.07,1,,,,,,,,,,,,,,m,1,1.07,,,,,,,,-0.06,-0.388888889,0,0,0,,0,63,63,77,1,WHEEL,HB,old,m,./images/WHEELHB.png,,,,,,,,,,,,,,,,,,,,,,
,,,,,,,,,,,,,,,,,199999,19,2022-01-29_15h43.45.019,lexical_decision_task_DD_L6,2021.2.3,MacIntel,55.55555556,,,,,,,,,,,0.801,1,,,,,,,,,,,,,,z,1,0.801,,,,,,,,-0.06,-0.388888889,0,0,0,,0,64,64,147,1,ZOLES,C,old,z,./images/ZOLES.png,,,,,,,,,,,,,,,,,,,,,,
,,,,,,,,,,,,,,,,,199999,19,2022-01-29_15h43.45.019,lexical_decision_task_DD_L6,2021.2.3,MacIntel,55.55555556,,,,,,,,,,,0.501,1,,,,,,,,,,,,,,m,1,0.501,,,,,,,,-0.06,-0.388888889,0,0,0,,0,65,65,40,1,SNAKE,C,old,m,./images/SNAKE.png,,,,,,,,,,,,,,,,,,,,,,
,,,,,,,,,,,,,,,,,199999,19,2022-01-29_15h43.45.019,lexical_decision_task_DD_L6,2021.2.3,MacIntel,55.55555556,,,,,,,,,,,0.957,1,,,,,,,,,,,,,,m,1,0.957,,,,,,,,-0.06,-0.388888889,0,0,0,,0,66,66,18,1,PARCEL,LB,old,m,./images/PARCELLB.png,,,,,,,,,,,,,,,,,,,,,,
,,,,,,,,,,,,,,,,,199999,19,2022-01-29_15h43.45.019,lexical_decision_task_DD_L6,2021.2.3,MacIntel,55.55555556,,,,,,,,,,,0.505,1,,,,,,,,,,,,,,m,1,0.505,,,,,,,,-0.06,-0.388888889,0,0,0,,0,67,67,39,1,CANDY,LB,old,m,./images/CANDYLB.png,,,,,,,,,,,,,,,,,,,,,,
,,,,,,,,,,,,,,,,,199999,19,2022-01-29_15h43.45.019,lexical_decision_task_DD_L6,2021.2.3,MacIntel,55.55555556,,,,,,,,,,,0.797,1,,,,,,,,,,,,,,m,1,0.797,,,,,,,,-0.06,-0.388888889,0,0,0,,0,68,68,68,1,VALLEY,HB,old,m,./images/VALLEYHB.png,,,,,,,,,,,,,,,,,,,,,,
,,,,,,,,,,,,,,,,,199999,19,2022-01-29_15h43.45.019,lexical_decision_task_DD_L6,2021.2.3,MacIntel,55.55555556,,,,,,,,,,,1.555,0,,,,,,,,,,,,,,z,0,1.555,,,,,,,,-0.06,-0.388888889,0,0,0,,0,69,69,12,1,BLOKE,LB,old,m,./images/BLOKELB.png,,,,,,,,,,,,,,,,,,,,,,
,,,,,,,,,,,,,,,,,199999,19,2022-01-29_15h43.45.019,lexical_decision_task_DD_L6,2021.2.3,MacIntel,55.55555556,,,,,,,,,,,0.692,1,,,,,,,,,,,,,,m,1,0.692,,,,,,,,-0.06,-0.388888889,0,0,0,,0,70,70,41,1,STREAM,HB,old,m,./images/STREAMHB.png,,,,,,,,,,,,,,,,,,,,,,
,,,,,,,,,,,,,,,,,199999,19,2022-01-29_15h43.45.019,lexical_decision_task_DD_L6,2021.2.3,MacIntel,55.55555556,,,,,,,,,,,0.52,1,,,,,,,,,,,,,,m,1,0.52,,,,,,,,-0.06,-0.388888889,0,0,0,,0,71,71,7,1,WAGON,C,old,m,./images/WAGON.png,,,,,,,,,,,,,,,,,,,,,,
,,,,,,,,,,,,,,,,,199999,19,2022-01-29_15h43.45.019,lexical_decision_task_DD_L6,2021.2.3,MacIntel,55.55555556,,,,,,,,,,,0.74,1,,,,,,,,,,,,,,m,1,0.74,,,,,,,,-0.06,-0.388888889,0,0,0,,0,72,72,29,1,PISTOL,HB,old,m,./images/PISTOLHB.png,,,,,,,,,,,,,,,,,,,,,,
,,,,,,,,,,,,,,,,,199999,19,2022-01-29_15h43.45.019,lexical_decision_task_DD_L6,2021.2.3,MacIntel,55.55555556,,,,,,,,,,,0.678,1,,,,,,,,,,,,,,z,1,0.678,,,,,,,,-0.06,-0.388888889,0,0,0,,0,73,73,124,1,TUNCH,HB,old,z,./images/TUNCHHB.png,,,,,,,,,,,,,,,,,,,,,,
,,,,,,,,,,,,,,,,,199999,19,2022-01-29_15h43.45.019,lexical_decision_task_DD_L6,2021.2.3,MacIntel,55.55555556,,,,,,,,,,,0.528,1,,,,,,,,,,,,,,m,1,0.528,,,,,,,,-0.06,-0.388888889,0,0,0,,0,74,74,54,1,CHERRY,LB,old,m,./images/CHERRYLB.png,,,,,,,,,,,,,,,,,,,,,,
,,,,,,,,,,,,,,,,,199999,19,2022-01-29_15h43.45.019,lexical_decision_task_DD_L6,2021.2.3,MacIntel,55.55555556,,,,,,,,,,,0.992,1,,,,,,,,,,,,,,z,1,0.992,,,,,,,,-0.06,-0.388888889,0,0,0,,0,75,75,154,1,THINT,HB,old,z,./images/THINTHB.png,,,,,,,,,,,,,,,,,,,,,,
,,,,,,,,,,,,,,,,,199999,19,2022-01-29_15h43.45.019,lexical_decision_task_DD_L6,2021.2.3,MacIntel,55.55555556,,,,,,,,,,,0.585,1,,,,,,,,,,,,,,m,1,0.585,,,,,,,,-0.06,-0.388888889,0,0,0,,0,76,76,71,1,BUBBLE,HB,old,m,./images/BUBBLEHB.png,,,,,,,,,,,,,,,,,,,,,,
,,,,,,,,,,,,,,,,,199999,19,2022-01-29_15h43.45.019,lexical_decision_task_DD_L6,2021.2.3,MacIntel,55.55555556,,,,,,,,,,,0.979,1,,,,,,,,,,,,,,z,1,0.979,,,,,,,,-0.06,-0.388888889,0,0,0,,0,77,77,114,1,RIKES,C,old,z,./images/RIKES.png,,,,,,,,,,,,,,,,,,,,,,
,,,,,,,,,,,,,,,,,199999,19,2022-01-29_15h43.45.019,lexical_decision_task_DD_L6,2021.2.3,MacIntel,55.55555556,,,,,,,,,,,0.523,0,,,,,,,,,,,,,,m,0,0.523,,,,,,,,-0.06,-0.388888889,0,0,0,,0,78,78,131,1,NACES,LB,old,z,./images/NACESLB.png,,,,,,,,,,,,,,,,,,,,,,
,,,,,,,,,,,,,,,,,199999,19,2022-01-29_15h43.45.019,lexical_decision_task_DD_L6,2021.2.3,MacIntel,55.55555556,,,,,,,,,,,0.655,1,,,,,,,,,,,,,,m,1,0.655,,,,,,,,-0.06,-0.388888889,0,0,0,,0,79,79,67,1,POKER,C,old,m,./images/POKER.png,,,,,,,,,,,,,,,,,,,,,,
,,,,,,,,,,,,,,,,,199999,19,2022-01-29_15h43.45.019,lexical_decision_task_DD_L6,2021.2.3,MacIntel,55.55555556,,,,,,,,,,,1.061,0,,,,,,,,,,,,,,m,0,1.061,,,,,,,,-0.06,-0.388888889,0,0,0,,0,80,80,98,1,BAMPS,LB,old,z,./images/BAMPSLB.png,,,,,,,,,,,,,,,,,,,,,,
,,,,,,,,,,,,,,,,,199999,19,2022-01-29_15h43.45.019,lexical_decision_task_DD_L6,2021.2.3,MacIntel,55.55555556,,,,,,,,,,,0.596,1,,,,,,,,,,,,,,m,1,0.596,,,,,,,,-0.06,-0.388888889,0,0,0,,0,81,81,16,1,GRAPE,C,old,m,./images/GRAPE.png,,,,,,,,,,,,,,,,,,,,,,
,,,,,,,,,,,,,,,,,199999,19,2022-01-29_15h43.45.019,lexical_decision_task_DD_L6,2021.2.3,MacIntel,55.55555556,,,,,,,,,,,4.388,1,,,,,,,,,,,,,,m,1,4.388,,,,,,,,-0.06,-0.388888889,0,0,0,,0,82,82,35,1,LLAMA,HB,old,m,./images/LLAMAHB.png,,,,,,,,,,,,,,,,,,,,,,
,,,,,,,,,,,,,,,,,199999,19,2022-01-29_15h43.45.019,lexical_decision_task_DD_L6,2021.2.3,MacIntel,55.55555556,,,,,,,,,,,0.936,1,,,,,,,,,,,,,,z,1,0.936,,,,,,,,-0.06,-0.388888889,0,0,0,space,0,83,83,125,1,MOOKY,LB,old,z,./images/MOOKYLB.png,1.099,,,,,,,,,,,,,,,,,,,,,
,,,,,,,,,,,,,,,,,199999,19,2022-01-29_15h43.45.019,lexical_decision_task_DD_L6,2021.2.3,MacIntel,55.55555556,,,,,,,,,,,1.37,0,,,,,,,,,,,,,,m,0,1.37,,,,,,,,-0.06,-0.388888889,0,0,0,,0,84,84,85,1,CHULK,HB,old,z,./images/CHULKHB.png,,,,,,,,,,,,,,,,,,,,,,
,,,,,,,,,,,,,,,,,199999,19,2022-01-29_15h43.45.019,lexical_decision_task_DD_L6,2021.2.3,MacIntel,55.55555556,,,,,,,,,,,0.439,0,,,,,,,,,,,,,,m,0,0.439,,,,,,,,-0.06,-0.388888889,0,0,0,,0,85,85,135,1,JOODY,C,old,z,./images/JOODY.png,,,,,,,,,,,,,,,,,,,,,,
,,,,,,,,,,,,,,,,,199999,19,2022-01-29_15h43.45.019,lexical_decision_task_DD_L6,2021.2.3,MacIntel,55.55555556,,,,,,,,,,,0.434,0,,,,,,,,,,,,,,m,0,0.434,,,,,,,,-0.06,-0.388888889,0,0,0,,0,86,86,141,1,PLEET,C,old,z,./images/PLEET.png,,,,,,,,,,,,,,,,,,,,,,
,,,,,,,,,,,,,,,,,199999,19,2022-01-29_15h43.45.019,lexical_decision_task_DD_L6,2021.2.3,MacIntel,55.55555556,,,,,,,,,,,0.586,0,,,,,,,,,,,,,,m,0,0.586,,,,,,,,-0.06,-0.388888889,0,0,0,,0,87,87,84,1,HAXES,C,old,z,./images/HAXES.png,,,,,,,,,,,,,,,,,,,,,,
,,,,,,,,,,,,,,,,,199999,19,2022-01-29_15h43.45.019,lexical_decision_task_DD_L6,2021.2.3,MacIntel,55.55555556,,,,,,,,,,,0.985,0,,,,,,,,,,,,,,m,0,0.985,,,,,,,,-0.06,-0.388888889,0,0,0,,0,88,88,102,1,DULLE,C,old,z,./images/DULLE.png,,,,,,,,,,,,,,,,,,,,,,
,,,,,,,,,,,,,,,,,199999,19,2022-01-29_15h43.45.019,lexical_decision_task_DD_L6,2021.2.3,MacIntel,55.55555556,,,,,,,,,,,0.511,0,,,,,,,,,,,,,,z,0,0.511,,,,,,,,-0.06,-0.388888889,0,0,0,,0,89,89,66,1,STATUE,LB,old,m,./images/STATUELB.png,,,,,,,,,,,,,,,,,,,,,,
,,,,,,,,,,,,,,,,,199999,19,2022-01-29_15h43.45.019,lexical_decision_task_DD_L6,2021.2.3,MacIntel,55.55555556,,,,,,,,,,,0.691,1,,,,,,,,,,,,,,z,1,0.691,,,,,,,,-0.06,-0.388888889,0,0,0,,0,90,90,158,1,EGECT,LB,old,z,./images/EGECTLB.png,,,,,,,,,,,,,,,,,,,,,,
,,,,,,,,,,,,,,,,,199999,19,2022-01-29_15h43.45.019,lexical_decision_task_DD_L6,2021.2.3,MacIntel,55.55555556,,,,,,,,,,,0.81,1,,,,,,,,,,,,,,m,1,0.81,,,,,,,,-0.06,-0.388888889,0,0,0,,0,91,91,59,1,BRUSH,HB,old,m,./images/BRUSHHB.png,,,,,,,,,,,,,,,,,,,,,,
,,,,,,,,,,,,,,,,,199999,19,2022-01-29_15h43.45.019,lexical_decision_task_DD_L6,2021.2.3,MacIntel,55.55555556,,,,,,,,,,,0.726,1,,,,,,,,,,,,,,z,1,0.726,,,,,,,,-0.06,-0.388888889,0,0,0,,0,92,92,128,1,GRIFT,LB,old,z,./images/GRIFTLB.png,,,,,,,,,,,,,,,,,,,,,,
,,,,,,,,,,,,,,,,,199999,19,2022-01-29_15h43.45.019,lexical_decision_task_DD_L6,2021.2.3,MacIntel,55.55555556,,,,,,,,,,,0.996,1,,,,,,,,,,,,,,m,1,0.996,,,,,,,,-0.06,-0.388888889,0,0,0,,0,93,93,56,1,HEATER,HB,old,m,./images/HEATERHB.png,,,,,,,,,,,,,,,,,,,,,,
,,,,,,,,,,,,,,,,,199999,19,2022-01-29_15h43.45.019,lexical_decision_task_DD_L6,2021.2.3,MacIntel,55.55555556,,,,,,,,,,,0.904,1,,,,,,,,,,,,,,m,1,0.904,,,,,,,,-0.06,-0.388888889,0,0,0,,0,94,94,58,1,CANOE,C,old,m,./images/CANOE.png,,,,,,,,,,,,,,,,,,,,,,
,,,,,,,,,,,,,,,,,199999,19,2022-01-29_15h43.45.019,lexical_decision_task_DD_L6,2021.2.3,MacIntel,55.55555556,,,,,,,,,,,0.474,1,,,,,,,,,,,,,,m,1,0.474,,,,,,,,-0.06,-0.388888889,0,0,0,,0,95,95,22,1,CLOWN,C,old,m,./images/CLOWN.png,,,,,,,,,,,,,,,,,,,,,,
,,,,,,,,,,,,,,,,,199999,19,2022-01-29_15h43.45.019,lexical_decision_task_DD_L6,2021.2.3,MacIntel,55.55555556,,,,,,,,,,,0.859,1,,,,,,,,,,,,,,z,1,0.859,,,,,,,,-0.06,-0.388888889,0,0,0,,0,96,96,99,1,BACKY,C,old,z,./images/BACKY.png,,,,,,,,,,,,,,,,,,,,,,
,,,,,,,,,,,,,,,,,199999,19,2022-01-29_15h43.45.019,lexical_decision_task_DD_L6,2021.2.3,MacIntel,55.55555556,,,,,,,,,,,0.905,1,,,,,,,,,,,,,,z,1,0.905,,,,,,,,-0.06,-0.388888889,0,0,0,,0,97,97,93,1,SMONE,C,old,z,./images/SMONE.png,,,,,,,,,,,,,,,,,,,,,,
,,,,,,,,,,,,,,,,,199999,19,2022-01-29_15h43.45.019,lexical_decision_task_DD_L6,2021.2.3,MacIntel,55.55555556,,,,,,,,,,,0.478,1,,,,,,,,,,,,,,m,1,0.478,,,,,,,,-0.06,-0.388888889,0,0,0,,0,98,98,31,1,STEAK,C,old,m,./images/STEAK.png,,,,,,,,,,,,,,,,,,,,,,
,,,,,,,,,,,,,,,,,199999,19,2022-01-29_15h43.45.019,lexical_decision_task_DD_L6,2021.2.3,MacIntel,55.55555556,,,,,,,,,,,1.587,1,,,,,,,,,,,,,,z,1,1.587,,,,,,,,-0.06,-0.388888889,0,0,0,,0,99,99,133,1,POWDY,HB,old,z,./images/POWDYHB.png,,,,,,,,,,,,,,,,,,,,,,
,,,,,,,,,,,,,,,,,199999,19,2022-01-29_15h43.45.019,lexical_decision_task_DD_L6,2021.2.3,MacIntel,55.55555556,,,,,,,,,,,0.518,1,,,,,,,,,,,,,,m,1,0.518,,,,,,,,-0.06,-0.388888889,0,0,0,,0,100,100,51,1,SAUCE,LB,old,m,./images/SAUCELB.png,,,,,,,,,,,,,,,,,,,,,,
,,,,,,,,,,,,,,,,,199999,19,2022-01-29_15h43.45.019,lexical_decision_task_DD_L6,2021.2.3,MacIntel,55.55555556,,,,,,,,,,,0.545,0,,,,,,,,,,,,,,m,0,0.545,,,,,,,,-0.06,-0.388888889,0,0,0,,0,101,101,150,1,NOOLS,C,old,z,./images/NOOLS.png,,,,,,,,,,,,,,,,,,,,,,
,,,,,,,,,,,,,,,,,199999,19,2022-01-29_15h43.45.019,lexical_decision_task_DD_L6,2021.2.3,MacIntel,55.55555556,,,,,,,,,,,2.039,1,,,,,,,,,,,,,,z,1,2.039,,,,,,,,-0.06,-0.388888889,0,0,0,,0,102,102,127,1,NINDY,HB,old,z,./images/NINDYHB.png,,,,,,,,,,,,,,,,,,,,,,
,,,,,,,,,,,,,,,,,199999,19,2022-01-29_15h43.45.019,lexical_decision_task_DD_L6,2021.2.3,MacIntel,55.55555556,,,,,,,,,,,2.244,1,,,,,,,,,,,,,,z,1,2.244,,,,,,,,-0.06,-0.388888889,0,0,0,,0,103,103,148,1,JOMS,HB,old,z,./images/JOMSHB.png,,,,,,,,,,,,,,,,,,,,,,
,,,,,,,,,,,,,,,,,199999,19,2022-01-29_15h43.45.019,lexical_decision_task_DD_L6,2021.2.3,MacIntel,55.55555556,,,,,,,,,,,0.503,1,,,,,,,,,,,,,,m,1,0.503,,,,,,,,-0.06,-0.388888889,0,0,0,,0,104,104,37,1,TIGER,C,old,m,./images/TIGER.png,,,,,,,,,,,,,,,,,,,,,,
,,,,,,,,,,,,,,,,,199999,19,2022-01-29_15h43.45.019,lexical_decision_task_DD_L6,2021.2.3,MacIntel,55.55555556,,,,,,,,,,,1.77,1,,,,,,,,,,,,,,z,1,1.77,,,,,,,,-0.06,-0.388888889,0,0,0,,0,105,105,94,1,BLANS,HB,old,z,./images/BLANSHB.png,,,,,,,,,,,,,,,,,,,,,,
,,,,,,,,,,,,,,,,,199999,19,2022-01-29_15h43.45.019,lexical_decision_task_DD_L6,2021.2.3,MacIntel,55.55555556,,,,,,,,,,,1.202,1,,,,,,,,,,,,,,z,1,1.202,,,,,,,,-0.06,-0.388888889,0,0,0,,0,106,106,151,1,TINKY,HB,old,z,./images/TINKYHB.png,,,,,,,,,,,,,,,,,,,,,,
,,,,,,,,,,,,,,,,,199999,19,2022-01-29_15h43.45.019,lexical_decision_task_DD_L6,2021.2.3,MacIntel,55.55555556,,,,,,,,,,,1.378,0,,,,,,,,,,,,,,m,0,1.378,,,,,,,,-0.06,-0.388888889,0,0,0,,0,107,107,142,1,PLASK,HB,old,z,./images/PLASKHB.png,,,,,,,,,,,,,,,,,,,,,,
,,,,,,,,,,,,,,,,,199999,19,2022-01-29_15h43.45.019,lexical_decision_task_DD_L6,2021.2.3,MacIntel,55.55555556,,,,,,,,,,,0.537,1,,,,,,,,,,,,,,m,1,0.537,,,,,,,,-0.06,-0.388888889,0,0,0,,0,108,108,69,1,ARROW,LB,old,m,./images/ARROWLB.png,,,,,,,,,,,,,,,,,,,,,,
,,,,,,,,,,,,,,,,,199999,19,2022-01-29_15h43.45.019,lexical_decision_task_DD_L6,2021.2.3,MacIntel,55.55555556,,,,,,,,,,,0.422,1,,,,,,,,,,,,,,m,1,0.422,,,,,,,,-0.06,-0.388888889,0,0,0,,0,109,109,43,1,STOOL,C,old,m,./images/STOOL.png,,,,,,,,,,,,,,,,,,,,,,
,,,,,,,,,,,,,,,,,199999,19,2022-01-29_15h43.45.019,lexical_decision_task_DD_L6,2021.2.3,MacIntel,55.55555556,,,,,,,,,,,0.61,1,,,,,,,,,,,,,,m,1,0.61,,,,,,,,-0.06,-0.388888889,0,0,0,,0,110,110,48,1,SHIELD,LB,old,m,./images/SHIELDLB.png,,,,,,,,,,,,,,,,,,,,,,
,,,,,,,,,,,,,,,,,199999,19,2022-01-29_15h43.45.019,lexical_decision_task_DD_L6,2021.2.3,MacIntel,55.55555556,,,,,,,,,,,0.456,1,,,,,,,,,,,,,,m,1,0.456,,,,,,,,-0.06,-0.388888889,0,0,0,,0,111,111,6,1,STAIN,LB,old,m,./images/STAINLB.png,,,,,,,,,,,,,,,,,,,,,,
,,,,,,,,,,,,,,,,,199999,19,2022-01-29_15h43.45.019,lexical_decision_task_DD_L6,2021.2.3,MacIntel,55.55555556,,,,,,,,,,,0.677,1,,,,,,,,,,,,,,m,1,0.677,,,,,,,,-0.06,-0.388888889,0,0,0,,0,112,112,81,1,DRILL,LB,old,m,./images/DRILLLB.png,,,,,,,,,,,,,,,,,,,,,,
,,,,,,,,,,,,,,,,,199999,19,2022-01-29_15h43.45.019,lexical_decision_task_DD_L6,2021.2.3,MacIntel,55.55555556,,,,,,,,,,,0.579,0,,,,,,,,,,,,,,m,0,0.579,,,,,,,,-0.06,-0.388888889,0,0,0,,0,113,113,137,1,JOOST,LB,old,z,./images/JOOSTLB.png,,,,,,,,,,,,,,,,,,,,,,
,,,,,,,,,,,,,,,,,199999,19,2022-01-29_15h43.45.019,lexical_decision_task_DD_L6,2021.2.3,MacIntel,55.55555556,,,,,,,,,,,0.372,0,,,,,,,,,,,,,,m,0,0.372,,,,,,,,-0.06,-0.388888889,0,0,0,,0,114,114,105,1,MOKER,C,old,z,./images/MOKER.png,,,,,,,,,,,,,,,,,,,,,,
,,,,,,,,,,,,,,,,,199999,19,2022-01-29_15h43.45.019,lexical_decision_task_DD_L6,2021.2.3,MacIntel,55.55555556,,,,,,,,,,,1.043,1,,,,,,,,,,,,,,z,1,1.043,,,,,,,,-0.06,-0.388888889,0,0,0,,0,115,115,116,1,BALGY,LB,old,z,./images/BALGYLB.png,,,,,,,,,,,,,,,,,,,,,,
,,,,,,,,,,,,,,,,,199999,19,2022-01-29_15h43.45.019,lexical_decision_task_DD_L6,2021.2.3,MacIntel,55.55555556,,,,,,,,,,,0.549,1,,,,,,,,,,,,,,m,1,0.549,,,,,,,,-0.06,-0.388888889,0,0,0,,0,116,116,10,1,GARDEN,C,old,m,./images/GARDEN.png,,,,,,,,,,,,,,,,,,,,,,
,,,,,,,,,,,,,,,,,199999,19,2022-01-29_15h43.45.019,lexical_decision_task_DD_L6,2021.2.3,MacIntel,55.55555556,,,,,,,,,,,3.771,1,,,,,,,,,,,,,,m,1,3.771,,,,,,,,-0.06,-0.388888889,0,0,0,,0,117,117,55,1,ALLEY,C,old,m,./images/ALLEY.png,,,,,,,,,,,,,,,,,,,,,,
,,,,,,,,,,,,,,,,,199999,19,2022-01-29_15h43.45.019,lexical_decision_task_DD_L6,2021.2.3,MacIntel,55.55555556,,,,,,,,,,,0.878,1,,,,,,,,,,,,,,z,1,0.878,,,,,,,,-0.06,-0.388888889,0,0,0,,0,118,118,92,1,PAIMS,LB,old,z,./images/PAIMSLB.png,,,,,,,,,,,,,,,,,,,,,,
,,,,,,,,,,,,,,,,,199999,19,2022-01-29_15h43.45.019,lexical_decision_task_DD_L6,2021.2.3,MacIntel,55.55555556,,,,,,,,,,,0.678,1,,,,,,,,,,,,,,z,1,0.678,,,,,,,,-0.06,-0.388888889,0,0,0,,0,119,119,119,1,PAFER,LB,old,z,./images/PAFERLB.png,,,,,,,,,,,,,,,,,,,,,,
,,,,,,,,,,,,,,,,,199999,19,2022-01-29_15h43.45.019,lexical_decision_task_DD_L6,2021.2.3,MacIntel,55.55555556,,,,,,,,,,,0.71,1,,,,,,,,,,,,,,z,1,0.71,,,,,,,,-0.06,-0.388888889,0,0,0,,0,120,120,96,1,KEAMS,C,old,z,./images/KEAMS.png,,,,,,,,,,,,,,,,,,,,,,
,,,,,,,,,,,,,,,,,199999,19,2022-01-29_15h43.45.019,lexical_decision_task_DD_L6,2021.2.3,MacIntel,55.55555556,,,,,,,,,,,1.023,1,,,,,,,,,,,,,,z,1,1.023,,,,,,,,-0.06,-0.388888889,0,0,0,,0,121,121,139,1,BLEAR,HB,old,z,./images/BLEARHB.png,,,,,,,,,,,,,,,,,,,,,,
,,,,,,,,,,,,,,,,,199999,19,2022-01-29_15h43.45.019,lexical_decision_task_DD_L6,2021.2.3,MacIntel,55.55555556,,,,,,,,,,,0.838,1,,,,,,,,,,,,,,m,1,0.838,,,,,,,,-0.06,-0.388888889,0,0,0,,0,122,122,14,1,FENCE,HB,old,m,./images/FENCEHB.png,,,,,,,,,,,,,,,,,,,,,,
,,,,,,,,,,,,,,,,,199999,19,2022-01-29_15h43.45.019,lexical_decision_task_DD_L6,2021.2.3,MacIntel,55.55555556,,,,,,,,,,,1.27,1,,,,,,,,,,,,,,z,1,1.27,,,,,,,,-0.06,-0.388888889,0,0,0,,0,123,123,121,1,CEERS,HB,old,z,./images/CEERSHB.png,,,,,,,,,,,,,,,,,,,,,,
,,,,,,,,,,,,,,,,,199999,19,2022-01-29_15h43.45.019,lexical_decision_task_DD_L6,2021.2.3,MacIntel,55.55555556,,,,,,,,,,,1.028,1,,,,,,,,,,,,,,z,1,1.028,,,,,,,,-0.06,-0.388888889,0,0,0,,0,124,124,146,1,MOOST,LB,old,z,./images/MOOSTLB.png,,,,,,,,,,,,,,,,,,,,,,
,,,,,,,,,,,,,,,,,199999,19,2022-01-29_15h43.45.019,lexical_decision_task_DD_L6,2021.2.3,MacIntel,55.55555556,,,,,,,,,,,0.843,1,,,,,,,,,,,,,,z,1,0.843,,,,,,,,-0.06,-0.388888889,0,0,0,space,0,125,125,136,1,WERVE,HB,old,z,./images/WERVEHB.png,0.807,,,,,,,,,,,,,,,,,,,,,
,,,,,,,,,,,,,,,,,199999,19,2022-01-29_15h43.45.019,lexical_decision_task_DD_L6,2021.2.3,MacIntel,55.55555556,,,,,,,,,,,0.926,1,,,,,,,,,,,,,,m,1,0.926,,,,,,,,-0.06,-0.388888889,0,0,0,,0,126,126,32,1,HOCKEY,HB,old,m,./images/HOCKEYHB.png,,,,,,,,,,,,,,,,,,,,,,
,,,,,,,,,,,,,,,,,199999,19,2022-01-29_15h43.45.019,lexical_decision_task_DD_L6,2021.2.3,MacIntel,55.55555556,,,,,,,,,,,0.728,1,,,,,,,,,,,,,,m,1,0.728,,,,,,,,-0.06,-0.388888889,0,0,0,,0,127,127,24,1,FLESH,LB,old,m,./images/FLESHLB.png,,,,,,,,,,,,,,,,,,,,,,
,,,,,,,,,,,,,,,,,199999,19,2022-01-29_15h43.45.019,lexical_decision_task_DD_L6,2021.2.3,MacIntel,55.55555556,,,,,,,,,,,0.878,1,,,,,,,,,,,,,,m,1,0.878,,,,,,,,-0.06,-0.388888889,0,0,0,,0,128,128,13,1,BUNNY,C,old,m,./images/BUNNY.png,,,,,,,,,,,,,,,,,,,,,,
,,,,,,,,,,,,,,,,,199999,19,2022-01-29_15h43.45.019,lexical_decision_task_DD_L6,2021.2.3,MacIntel,55.55555556,,,,,,,,,,,0.711,1,,,,,,,,,,,,,,m,1,0.711,,,,,,,,-0.06,-0.388888889,0,0,0,,0,129,129,65,1,SPINE,HB,old,m,./images/SPINEHB.png,,,,,,,,,,,,,,,,,,,,,,
,,,,,,,,,,,,,,,,,199999,19,2022-01-29_15h43.45.019,lexical_decision_task_DD_L6,2021.2.3,MacIntel,55.55555556,,,,,,,,,,,0.871,1,,,,,,,,,,,,,,z,1,0.871,,,,,,,,-0.06,-0.388888889,0,0,0,,0,130,130,103,1,FLORT,HB,old,z,./images/FLORTHB.png,,,,,,,,,,,,,,,,,,,,,,
,,,,,,,,,,,,,,,,,199999,19,2022-01-29_15h43.45.019,lexical_decision_task_DD_L6,2021.2.3,MacIntel,55.55555556,,,,,,,,,,,0.925,1,,,,,,,,,,,,,,m,1,0.925,,,,,,,,-0.06,-0.388888889,0,0,0,,0,131,131,26,1,CLOUD,HB,old,m,./images/CLOUDHB.png,,,,,,,,,,,,,,,,,,,,,,
,,,,,,,,,,,,,,,,,199999,19,2022-01-29_15h43.45.019,lexical_decision_task_DD_L6,2021.2.3,MacIntel,55.55555556,,,,,,,,,,,0.548,1,,,,,,,,,,,,,,m,1,0.548,,,,,,,,-0.06,-0.388888889,0,0,0,,0,132,132,9,1,DIVER,LB,old,m,./images/DIVERLB.png,,,,,,,,,,,,,,,,,,,,,,
,,,,,,,,,,,,,,,,,199999,19,2022-01-29_15h43.45.019,lexical_decision_task_DD_L6,2021.2.3,MacIntel,55.55555556,,,,,,,,,,,0.462,0,,,,,,,,,,,,,,m,0,0.462,,,,,,,,-0.06,-0.388888889,0,0,0,,0,133,133,155,1,CANGY,LB,old,z,./images/CANGYLB.png,,,,,,,,,,,,,,,,,,,,,,
,,,,,,,,,,,,,,,,,199999,19,2022-01-29_15h43.45.019,lexical_decision_task_DD_L6,2021.2.3,MacIntel,55.55555556,,,,,,,,,,,0.553,1,,,,,,,,,,,,,,m,1,0.553,,,,,,,,-0.06,-0.388888889,0,0,0,,0,134,134,33,1,SAUNA,LB,old,m,./images/SAUNALB.png,,,,,,,,,,,,,,,,,,,,,,
,,,,,,,,,,,,,,,,,199999,19,2022-01-29_15h43.45.019,lexical_decision_task_DD_L6,2021.2.3,MacIntel,55.55555556,,,,,,,,,,,0.53,1,,,,,,,,,,,,,,m,1,0.53,,,,,,,,-0.06,-0.388888889,0,0,0,,0,135,135,78,1,BROOM,LB,old,m,./images/BROOMLB.png,,,,,,,,,,,,,,,,,,,,,,
,,,,,,,,,,,,,,,,,199999,19,2022-01-29_15h43.45.019,lexical_decision_task_DD_L6,2021.2.3,MacIntel,55.55555556,,,,,,,,,,,1.736,1,,,,,,,,,,,,,,z,1,1.736,,,,,,,,-0.06,-0.388888889,0,0,0,,0,136,136,157,1,INLER,HB,old,z,./images/INLERHB.png,,,,,,,,,,,,,,,,,,,,,,
,,,,,,,,,,,,,,,,,199999,19,2022-01-29_15h43.45.019,lexical_decision_task_DD_L6,2021.2.3,MacIntel,55.55555556,,,,,,,,,,,1.359,1,,,,,,,,,,,,,,z,1,1.359,,,,,,,,-0.06,-0.388888889,0,0,0,,0,137,137,145,1,LAMEL,HB,old,z,./images/LAMELHB.png,,,,,,,,,,,,,,,,,,,,,,
,,,,,,,,,,,,,,,,,199999,19,2022-01-29_15h43.45.019,lexical_decision_task_DD_L6,2021.2.3,MacIntel,55.55555556,,,,,,,,,,,0.642,1,,,,,,,,,,,,,,m,1,0.642,,,,,,,,-0.06,-0.388888889,0,0,0,,0,138,138,15,1,COLLAR,LB,old,m,./images/COLLARLB.png,,,,,,,,,,,,,,,,,,,,,,
,,,,,,,,,,,,,,,,,199999,19,2022-01-29_15h43.45.019,lexical_decision_task_DD_L6,2021.2.3,MacIntel,55.55555556,,,,,,,,,,,0.68,1,,,,,,,,,,,,,,z,1,0.68,,,,,,,,-0.06,-0.388888889,0,0,0,,0,139,139,134,1,TROSS,LB,old,z,./images/TROSSLB.png,,,,,,,,,,,,,,,,,,,,,,
,,,,,,,,,,,,,,,,,199999,19,2022-01-29_15h43.45.019,lexical_decision_task_DD_L6,2021.2.3,MacIntel,55.55555556,,,,,,,,,,,0.595,1,,,,,,,,,,,,,,m,1,0.595,,,,,,,,-0.06,-0.388888889,0,0,0,,0,140,140,2,1,STOVE,HB,old,m,./images/STOVEHB.png,,,,,,,,,,,,,,,,,,,,,,
,,,,,,,,,,,,,,,,,199999,19,2022-01-29_15h43.45.019,lexical_decision_task_DD_L6,2021.2.3,MacIntel,55.55555556,,,,,,,,,,,1.153,1,,,,,,,,,,,,,,m,1,1.153,,,,,,,,-0.06,-0.388888889,0,0,0,,0,141,141,23,1,CLOTH,HB,old,m,./images/CLOTHHB.png,,,,,,,,,,,,,,,,,,,,,,
,,,,,,,,,,,,,,,,,199999,19,2022-01-29_15h43.45.019,lexical_decision_task_DD_L6,2021.2.3,MacIntel,55.55555556,,,,,,,,,,,1.244,0,,,,,,,,,,,,,,m,0,1.244,,,,,,,,-0.06,-0.388888889,0,0,0,,0,142,142,106,1,CLUMS,HB,old,z,./images/CLUMSHB.png,,,,,,,,,,,,,,,,,,,,,,
,,,,,,,,,,,,,,,,,199999,19,2022-01-29_15h43.45.019,lexical_decision_task_DD_L6,2021.2.3,MacIntel,55.55555556,,,,,,,,,,,0.762,1,,,,,,,,,,,,,,z,1,0.762,,,,,,,,-0.06,-0.388888889,0,0,0,,0,143,143,86,1,AIFED,LB,old,z,./images/AIFEDLB.png,,,,,,,,,,,,,,,,,,,,,,
,,,,,,,,,,,,,,,,,199999,19,2022-01-29_15h43.45.019,lexical_decision_task_DD_L6,2021.2.3,MacIntel,55.55555556,,,,,,,,,,,0.511,1,,,,,,,,,,,,,,m,1,0.511,,,,,,,,-0.06,-0.388888889,0,0,0,,0,144,144,45,1,MONKEY,LB,old,m,./images/MONKEYLB.png,,,,,,,,,,,,,,,,,,,,,,
,,,,,,,,,,,,,,,,,199999,19,2022-01-29_15h43.45.019,lexical_decision_task_DD_L6,2021.2.3,MacIntel,55.55555556,,,,,,,,,,,0.555,1,,,,,,,,,,,,,,m,1,0.555,,,,,,,,-0.06,-0.388888889,0,0,0,,0,145,145,21,1,DANCER,LB,old,m,./images/DANCERLB.png,,,,,,,,,,,,,,,,,,,,,,
,,,,,,,,,,,,,,,,,199999,19,2022-01-29_15h43.45.019,lexical_decision_task_DD_L6,2021.2.3,MacIntel,55.55555556,,,,,,,,,,,0.628,1,,,,,,,,,,,,,,z,1,0.628,,,,,,,,-0.06,-0.388888889,0,0,0,,0,146,146,113,1,LINEW,LB,old,z,./images/LINEWLB.png,,,,,,,,,,,,,,,,,,,,,,
,,,,,,,,,,,,,,,,,199999,19,2022-01-29_15h43.45.019,lexical_decision_task_DD_L6,2021.2.3,MacIntel,55.55555556,,,,,,,,,,,0.593,1,,,,,,,,,,,,,,m,1,0.593,,,,,,,,-0.06,-0.388888889,0,0,0,,0,147,147,82,1,PEBBLE,C,old,m,./images/PEBBLE.png,,,,,,,,,,,,,,,,,,,,,,
,,,,,,,,,,,,,,,,,199999,19,2022-01-29_15h43.45.019,lexical_decision_task_DD_L6,2021.2.3,MacIntel,55.55555556,,,,,,,,,,,0.512,1,,,,,,,,,,,,,,m,1,0.512,,,,,,,,-0.06,-0.388888889,0,0,0,,0,148,148,73,1,GLOVE,C,old,m,./images/GLOVE.png,,,,,,,,,,,,,,,,,,,,,,
,,,,,,,,,,,,,,,,,199999,19,2022-01-29_15h43.45.019,lexical_decision_task_DD_L6,2021.2.3,MacIntel,55.55555556,,,,,,,,,,,0.794,1,,,,,,,,,,,,,,z,1,0.794,,,,,,,,-0.06,-0.388888889,0,0,0,,0,149,149,159,1,CUDDY,C,old,z,./images/CUDDY.png,,,,,,,,,,,,,,,,,,,,,,
,,,,,,,,,,,,,,,,,199999,19,2022-01-29_15h43.45.019,lexical_decision_task_DD_L6,2021.2.3,MacIntel,55.55555556,,,,,,,,,,,1.402,0,,,,,,,,,,,,,,z,0,1.402,,,,,,,,-0.06,-0.388888889,0,0,0,,0,150,150,83,1,WHISKY,HB,old,m,./images/WHISKYHB.png,,,,,,,,,,,,,,,,,,,,,,
,,,,,,,,,,,,,,,,,199999,19,2022-01-29_15h43.45.019,lexical_decision_task_DD_L6,2021.2.3,MacIntel,55.55555556,,,,,,,,,,,0.594,1,,,,,,,,,,,,,,m,1,0.594,,,,,,,,-0.06,-0.388888889,0,0,0,,0,151,151,0,1,WALNUT,LB,old,m,./images/WALNUTLB.png,,,,,,,,,,,,,,,,,,,,,,
,,,,,,,,,,,,,,,,,199999,19,2022-01-29_15h43.45.019,lexical_decision_task_DD_L6,2021.2.3,MacIntel,55.55555556,,,,,,,,,,,1.044,1,,,,,,,,,,,,,,m,1,1.044,,,,,,,,-0.06,-0.388888889,0,0,0,,0,152,152,57,1,FERRY,LB,old,m,./images/FERRYLB.png,,,,,,,,,,,,,,,,,,,,,,
,,,,,,,,,,,,,,,,,199999,19,2022-01-29_15h43.45.019,lexical_decision_task_DD_L6,2021.2.3,MacIntel,55.55555556,,,,,,,,,,,1.111,1,,,,,,,,,,,,,,z,1,1.111,,,,,,,,-0.06,-0.388888889,0,0,0,,0,153,153,97,1,CHIDS,HB,old,z,./images/CHIDSHB.png,,,,,,,,,,,,,,,,,,,,,,
,,,,,,,,,,,,,,,,,199999,19,2022-01-29_15h43.45.019,lexical_decision_task_DD_L6,2021.2.3,MacIntel,55.55555556,,,,,,,,,,,0.71,1,,,,,,,,,,,,,,z,1,0.71,,,,,,,,-0.06,-0.388888889,0,0,0,,0,154,154,129,1,PRANS,C,old,z,./images/PRANS.png,,,,,,,,,,,,,,,,,,,,,,
,,,,,,,,,,,,,,,,,199999,19,2022-01-29_15h43.45.019,lexical_decision_task_DD_L6,2021.2.3,MacIntel,55.55555556,,,,,,,,,,,0.507,1,,,,,,,,,,,,,,m,1,0.507,,,,,,,,-0.06,-0.388888889,0,0,0,,0,155,155,60,1,CURRY,LB,old,m,./images/CURRYLB.png,,,,,,,,,,,,,,,,,,,,,,
,,,,,,,,,,,,,,,,,199999,19,2022-01-29_15h43.45.019,lexical_decision_task_DD_L6,2021.2.3,MacIntel,55.55555556,,,,,,,,,,,1.736,1,,,,,,,,,,,,,,m,1,1.736,,,,,,,,-0.06,-0.388888889,0,0,0,,0,156,156,62,1,MAMMAL,HB,old,m,./images/MAMMALHB.png,,,,,,,,,,,,,,,,,,,,,,
,,,,,,,,,,,,,,,,,199999,19,2022-01-29_15h43.45.019,lexical_decision_task_DD_L6,2021.2.3,MacIntel,55.55555556,,,,,,,,,,,1.345,1,,,,,,,,,,,,,,m,1,1.345,,,,,,,,-0.06,-0.388888889,0,0,0,,0,157,157,38,1,ENGINE,HB,old,m,./images/ENGINEHB.png,,,,,,,,,,,,,,,,,,,,,,
,,,,,,,,,,,,,,,,,199999,19,2022-01-29_15h43.45.019,lexical_decision_task_DD_L6,2021.2.3,MacIntel,55.55555556,,,,,,,,,,,0.919,1,,,,,,,,,,,,,,m,1,0.919,,,,,,,,-0.06,-0.388888889,0,0,0,,0,158,158,28,1,CASINO,C,old,m,./images/CASINO.png,,,,,,,,,,,,,,,,,,,,,,
,,,,,,,,,,,,,,,,,199999,19,2022-01-29_15h43.45.019,lexical_decision_task_DD_L6,2021.2.3,MacIntel,55.55555556,,,,,,,,,,,0.675,1,,,,,,,,,,,,,,m,1,0.675,,,,,,,,-0.06,-0.388888889,0,0,0,,0,159,159,36,1,BOILER,LB,old,m,./images/BOILERLB.png,,,,,,,,,,,,,,,,,,,,,,
,,,,,,,,,,,,,,,,,199999,19,2022-01-29_15h43.45.019,lexical_decision_task_DD_L6,2021.2.3,MacIntel,55.55555556,,,,,,,,,,,1.095,1,,,,,,,,,,,,,,z,1,1.095,,,,,,,,-0.06,-0.388888889,0,0,0,,0,160,160,130,1,CRILL,HB,old,z,./images/CRILLHB.png,,,,,,,,,,,,,,,,,,,,,,
,,,,,,,,,,,,,,,,,199999,19,2022-01-29_15h43.45.019,lexical_decision_task_DD_L6,2021.2.3,MacIntel,55.55555556,,,,,,,,,,,0.495,1,,,,,,,,,,,,,,m,1,0.495,,,,,,,,-0.06,-0.388888889,0,0,0,,0,161,161,72,1,FLASK,LB,old,m,./images/FLASKLB.png,,,,,,,,,,,,,,,,,,,,,,
,,,,,,,,,,,,,,,,,199999,19,2022-01-29_15h43.45.019,lexical_decision_task_DD_L6,2021.2.3,MacIntel,55.55555556,,,,,,,,,,,1.26,0,,,,,,,,,,,,,,m,0,1.26,,,,,,,,-0.06,-0.388888889,0,0,0,,0,162,162,104,1,GITTY,LB,old,z,./images/GITTYLB.png,,,,,,,,,,,,,,,,,,,,,,
,,,,,,,,,,,,,,,,,199999,19,2022-01-29_15h43.45.019,lexical_decision_task_DD_L6,2021.2.3,MacIntel,55.55555556,,,,,,,,,,,1.003,1,,,,,,,,,,,,,,z,1,1.003,,,,,,,,-0.06,-0.388888889,0,0,0,,0,163,163,90,1,NEAST,C,old,z,./images/NEAST.png,,,,,,,,,,,,,,,,,,,,,,
,,,,,,,,,,,,,,,,,199999,19,2022-01-29_15h43.45.019,lexical_decision_task_DD_L6,2021.2.3,MacIntel,55.55555556,,,,,,,,,,,1.121,1,,,,,,,,,,,,,,z,1,1.121,,,,,,,,-0.06,-0.388888889,0,0,0,,0,164,164,111,1,HOSSE,C,old,z,./images/HOSSE.png,,,,,,,,,,,,,,,,,,,,,,
,,,,,,,,,,,,,,,,,199999,19,2022-01-29_15h43.45.019,lexical_decision_task_DD_L6,2021.2.3,MacIntel,55.55555556,,,,,,,,,,,0.637,1,,,,,,,,,,,,,,z,1,0.637,,,,,,,,-0.06,-0.388888889,0,0,0,,0,165,165,108,1,GRUET,C,old,z,./images/GRUET.png,,,,,,,,,,,,,,,,,,,,,,
,,,,,,,,,,,,,,,,,199999,19,2022-01-29_15h43.45.019,lexical_decision_task_DD_L6,2021.2.3,MacIntel,55.55555556,,,,,,,,,,,0.839,1,,,,,,,,,,,,,,z,1,0.839,,,,,,,,-0.06,-0.388888889,0,0,0,,0,166,166,165,1,TROWN,C,old,z,./images/TROWN.png,,,,,,,,,,,,,,,,,,,,,,
,,,,,,,,,,,,,,,,,199999,19,2022-01-29_15h43.45.019,lexical_decision_task_DD_L6,2021.2.3,MacIntel,55.55555556,,,,,,,,,,,2.078,1,,,,,,,,,,,,,,m,1,2.078,,,,,,,,-0.06,-0.388888889,0,0,0,,0,167,167,74,1,JUMPER,HB,old,m,./images/JUMPERHB.png,,,,,,,,,,,,,,,,,,,,,,
space,-0.06,-0.388888889,0,0,0,,,,,,,1,test,"In the next phase you will be presented with the words from the the first phase. Your job is to decide whether you remember seeing the word or not. If you remember seeing the word press ""old"" or type ""m"". If you do not remember seeing the word press ""new"" or type ""z"". Please press the space bar or click on continue to begin. ",,,199999,19,2022-01-29_15h43.45.019,lexical_decision_task_DD_L6,2021.2.3,MacIntel,55.55555556,,,,,,,,,,,,,,,,,,,,,,,,,,,,,,,,,,,,,,,,,,,,,,,,,,,,,2.691,0,0,0,0,1,,,,,,,,,,,,,,,
space,-0.06,-0.388888889,0,0,0,,,,,,,1,test,"In the next phase you will be presented with the words from the the first phase. Your job is to decide whether you remember seeing the word or not. If you remember seeing the word press ""old"" or type ""m"". If you do not remember seeing the word press ""new"" or type ""z"". Please press the space bar or click on continue to begin. ",,,199999,19,2022-01-29_15h43.45.019,lexical_decision_task_DD_L6,2021.2.3,MacIntel,55.55555556,,,,,,,,,,,,,,,,,,,,,,,,,,,,,,,,,,,,,,,,,,,,,,,,,,,,,3.549,1,0,1,0,1,,,,,,,,,,,,,,,
,-0.06,-0.388888889,1,0,0,instr_done_button,,,,,,1,test,"In the next phase you will be presented with the words from the the first phase. Your job is to decide whether you remember seeing the word or not. If you remember seeing the word press ""old"" or type ""m"". If you do not remember seeing the word press ""new"" or type ""z"". Please press the space bar or click on continue to begin. ",,,199999,19,2022-01-29_15h43.45.019,lexical_decision_task_DD_L6,2021.2.3,MacIntel,55.55555556,,,,,,,,,,,,,,,,,,,,,,,,,,,,,,,,,,,,,,,,,,,,,,,,,,,,,,2,0,2,0,1,,,,,,,,,,,,,,,
,-0.06,-0.388888889,1,0,0,instr_done_button,,,,,,1,test,"In the next phase you will be presented with the words from the the first phase. Your job is to decide whether you remember seeing the word or not. If you remember seeing the word press ""old"" or type ""m"". If you do not remember seeing the word press ""new"" or type ""z"". Please press the space bar or click on continue to begin. ",,,199999,19,2022-01-29_15h43.45.019,lexical_decision_task_DD_L6,2021.2.3,MacIntel,55.55555556,,,,,,,,,,,,,,,,,,,,,,,,,,,,,,,,,,,,,,,,,,,,,,,,,,,,,,3,0,3,0,1,,,,,,,,,,,,,,,
space,-0.053333333,-0.396666667,0,0,0,,,,,,,1,test,"In the next phase you will be presented with the words from the the first phase. Your job is to decide whether you remember seeing the word or not. If you remember seeing the word press ""old"" or type ""m"". If you do not remember seeing the word press ""new"" or type ""z"". Please press the space bar or click on continue to begin. ",,,199999,19,2022-01-29_15h43.45.019,lexical_decision_task_DD_L6,2021.2.3,MacIntel,55.55555556,,,,,,,,,,,,,,,,,,,,,,,,,,,,,,,,,,,,,,,,,,,,,,,,,,,,,0.709,4,0,4,0,1,,,,,,,,,,,,,,,
,,,,,,,,,,,,,,,,,199999,19,2022-01-29_15h43.45.019,lexical_decision_task_DD_L6,2021.2.3,MacIntel,55.55555556,,,,,,,,,,,3.429,1,,,,,,,,,,,,,,,,,,,,,,,,-0.053333333,-0.396666667,0,0,0,,,,,,,SLOPE,LB,m,y,./images/SLOPELB.png,,,,,,,,m,1,3.429,,,,,,,,0,0,0,30,1
,,,,,,,,,,,,,,,,,199999,19,2022-01-29_15h43.45.019,lexical_decision_task_DD_L6,2021.2.3,MacIntel,55.55555556,,,,,,,,,,,0.945,1,,,,,,,,,,,,,,,,,,,,,,,,-0.053333333,-0.396666667,0,0,0,,,,,,,STREAM,HB,m,y,./images/STREAMHB.png,,,,,,,,m,1,0.945,,,,,,,,0,1,1,41,1
,,,,,,,,,,,,,,,,,199999,19,2022-01-29_15h43.45.019,lexical_decision_task_DD_L6,2021.2.3,MacIntel,55.55555556,,,,,,,,,,,0.562,1,,,,,,,,,,,,,,,,,,,,,,,,-0.053333333,-0.396666667,0,0,0,,,,,,,FERRY,LB,m,y,./images/FERRYLB.png,,,,,,,,m,1,0.562,,,,,,,,0,2,2,57,1
,,,,,,,,,,,,,,,,,199999,19,2022-01-29_15h43.45.019,lexical_decision_task_DD_L6,2021.2.3,MacIntel,55.55555556,,,,,,,,,,,0.277,1,,,,,,,,,,,,,,,,,,,,,,,,-0.053333333,-0.396666667,0,0,0,,,,,,,SAUCE,LB,m,y,./images/SAUCELB.png,,,,,,,,m,1,0.277,,,,,,,,0,3,3,51,1
,,,,,,,,,,,,,,,,,199999,19,2022-01-29_15h43.45.019,lexical_decision_task_DD_L6,2021.2.3,MacIntel,55.55555556,,,,,,,,,,,1.145,0,,,,,,,,,,,,,,,,,,,,,,,,-0.053333333,-0.396666667,0,0,0,,,,,,,FINGER,LB,z,y,./images/FINGERLB.png,,,,,,,,m,0,1.145,,,,,,,,0,4,4,87,1
,,,,,,,,,,,,,,,,,199999,19,2022-01-29_15h43.45.019,lexical_decision_task_DD_L6,2021.2.3,MacIntel,55.55555556,,,,,,,,,,,0.605,1,,,,,,,,,,,,,,,,,,,,,,,,-0.053333333,-0.396666667,0,0,0,,,,,,,CHAIN,LB,m,y,./images/CHAINLB.png,,,,,,,,m,1,0.605,,,,,,,,0,5,5,42,1
,,,,,,,,,,,,,,,,,199999,19,2022-01-29_15h43.45.019,lexical_decision_task_DD_L6,2021.2.3,MacIntel,55.55555556,,,,,,,,,,,0.32,0,,,,,,,,,,,,,,,,,,,,,,,,-0.053333333,-0.396666667,0,0,0,,,,,,,PASTA,HB,z,y,./images/PASTAHB.png,,,,,,,,m,0,0.32,,,,,,,,0,6,6,89,1
,,,,,,,,,,,,,,,,,199999,19,2022-01-29_15h43.45.019,lexical_decision_task_DD_L6,2021.2.3,MacIntel,55.55555556,,,,,,,,,,,0.061,1,,,,,,,,,,,,,,,,,,,,,,,,-0.053333333,-0.396666667,0,0,0,,,,,,,PARCEL,LB,m,y,./images/PARCELLB.png,,,,,,,,m,1,0.061,,,,,,,,0,7,7,18,1
,,,,,,,,,,,,,,,,,199999,19,2022-01-29_15h43.45.019,lexical_decision_task_DD_L6,2021.2.3,MacIntel,55.55555556,,,,,,,,,,,0.304,0,,,,,,,,,,,,,,,,,,,,,,,,-0.053333333,-0.396666667,0,0,0,,,,,,,PICKLE,HB,z,y,./images/PICKLEHB.png,,,,,,,,m,0,0.304,,,,,,,,0,8,8,98,1
,,,,,,,,,,,,,,,,,199999,19,2022-01-29_15h43.45.019,lexical_decision_task_DD_L6,2021.2.3,MacIntel,55.55555556,,,,,,,,,,,0.638,1,,,,,,,,,,,,,,,,,,,,,,,,-0.053333333,-0.396666667,0,0,0,,,,,,,MEDAL,HB,m,y,./images/MEDALHB.png,,,,,,,,m,1,0.638,,,,,,,,0,9,9,11,1
,,,,,,,,,,,,,,,,,199999,19,2022-01-29_15h43.45.019,lexical_decision_task_DD_L6,2021.2.3,MacIntel,55.55555556,,,,,,,,,,,0.513,0,,,,,,,,,,,,,,,,,,,,,,,,-0.053333333,-0.396666667,0,0,0,,,,,,,RULER,C,m,y,./images/RULER.png,,,,,,,,z,0,0.513,,,,,,,,0,10,10,79,1
,,,,,,,,,,,,,,,,,199999,19,2022-01-29_15h43.45.019,lexical_decision_task_DD_L6,2021.2.3,MacIntel,55.55555556,,,,,,,,,,,0.32,0,,,,,,,,,,,,,,,,,,,,,,,,-0.053333333,-0.396666667,0,0,0,,,,,,,GRAIN,LB,z,y,./images/GRAINLB.png,,,,,,,,m,0,0.32,,,,,,,,0,11,11,159,1
,,,,,,,,,,,,,,,,,199999,19,2022-01-29_15h43.45.019,lexical_decision_task_DD_L6,2021.2.3,MacIntel,55.55555556,,,,,,,,,,,0.207,0,,,,,,,,,,,,,,,,,,,,,,,,-0.053333333,-0.396666667,0,0,0,,,,,,,DONKEY,C,m,y,./images/DONKEY.png,,,,,,,,z,0,0.207,,,,,,,,0,12,12,19,1
,,,,,,,,,,,,,,,,,199999,19,2022-01-29_15h43.45.019,lexical_decision_task_DD_L6,2021.2.3,MacIntel,55.55555556,,,,,,,,,,,0.413,1,,,,,,,,,,,,,,,,,,,,,,,,-0.053333333,-0.396666667,0,0,0,,,,,,,SNAKE,C,m,y,./images/SNAKE.png,,,,,,,,m,1,0.413,,,,,,,,0,13,13,40,1
,,,,,,,,,,,,,,,,,199999,19,2022-01-29_15h43.45.019,lexical_decision_task_DD_L6,2021.2.3,MacIntel,55.55555556,,,,,,,,,,,0.244,0,,,,,,,,,,,,,,,,,,,,,,,,-0.053333333,-0.396666667,0,0,0,,,,,,,GLOVE,C,m,y,./images/GLOVE.png,,,,,,,,z,0,0.244,,,,,,,,0,14,14,73,1
,,,,,,,,,,,,,,,,,199999,19,2022-01-29_15h43.45.019,lexical_decision_task_DD_L6,2021.2.3,MacIntel,55.55555556,,,,,,,,,,,0.036,1,,,,,,,,,,,,,,,,,,,,,,,,-0.053333333,-0.396666667,0,0,0,,,,,,,MONKEY,LB,m,y,./images/MONKEYLB.png,,,,,,,,m,1,0.036,,,,,,,,0,15,15,45,1
,,,,,,,,,,,,,,,,,199999,19,2022-01-29_15h43.45.019,lexical_decision_task_DD_L6,2021.2.3,MacIntel,55.55555556,,,,,,,,,,,0.181,1,,,,,,,,,,,,,,,,,,,,,,,,-0.053333333,-0.396666667,0,0,0,,,,,,,JUNGLE,HB,z,y,./images/JUNGLEHB.png,,,,,,,,z,1,0.181,,,,,,,,0,16,16,167,1
,,,,,,,,,,,,,,,,,199999,19,2022-01-29_15h43.45.019,lexical_decision_task_DD_L6,2021.2.3,MacIntel,55.55555556,,,,,,,,,,,0.139,1,,,,,,,,,,,,,,,,,,,,,,,,-0.053333333,-0.396666667,0,0,0,,,,,,,TIGER,C,m,y,./images/TIGER.png,,,,,,,,m,1,0.139,,,,,,,,0,17,17,37,1
,,,,,,,,,,,,,,,,,199999,19,2022-01-29_15h43.45.019,lexical_decision_task_DD_L6,2021.2.3,MacIntel,55.55555556,,,,,,,,,,,0.137,0,,,,,,,,,,,,,,,,,,,,,,,,-0.053333333,-0.396666667,0,0,0,,,,,,,WEASEL,HB,z,y,./images/WEASELHB.png,,,,,,,,m,0,0.137,,,,,,,,0,18,18,164,1
,,,,,,,,,,,,,,,,,199999,19,2022-01-29_15h43.45.019,lexical_decision_task_DD_L6,2021.2.3,MacIntel,55.55555556,,,,,,,,,,,0.136,0,,,,,,,,,,,,,,,,,,,,,,,,-0.053333333,-0.396666667,0,0,0,,,,,,,KITTEN,LB,z,y,./images/KITTENLB.png,,,,,,,,m,0,0.136,,,,,,,,0,19,19,129,1
,,,,,,,,,,,,,,,,,199999,19,2022-01-29_15h43.45.019,lexical_decision_task_DD_L6,2021.2.3,MacIntel,55.55555556,,,,,,,,,,,0.206,1,,,,,,,,,,,,,,,,,,,,,,,,-0.053333333,-0.396666667,0,0,0,,,,,,,ALLEY,C,m,y,./images/ALLEY.png,,,,,,,,m,1,0.206,,,,,,,,0,20,20,55,1
,,,,,,,,,,,,,,,,,199999,19,2022-01-29_15h43.45.019,lexical_decision_task_DD_L6,2021.2.3,MacIntel,55.55555556,,,,,,,,,,,0.054,1,,,,,,,,,,,,,,,,,,,,,,,,-0.053333333,-0.396666667,0,0,0,,,,,,,ARTIST,C,m,y,./images/ARTIST.png,,,,,,,,m,1,0.054,,,,,,,,0,21,21,61,1
,,,,,,,,,,,,,,,,,199999,19,2022-01-29_15h43.45.019,lexical_decision_task_DD_L6,2021.2.3,MacIntel,55.55555556,,,,,,,,,,,0.044,1,,,,,,,,,,,,,,,,,,,,,,,,-0.053333333,-0.396666667,0,0,0,,,,,,,BROOM,LB,m,y,./images/BROOMLB.png,,,,,,,,m,1,0.044,,,,,,,,0,22,22,78,1
,,,,,,,,,,,,,,,,,199999,19,2022-01-29_15h43.45.019,lexical_decision_task_DD_L6,2021.2.3,MacIntel,55.55555556,,,,,,,,,,,0,1,,,,,,,,,,,,,,,,,,,,,,,,-0.053333333,-0.396666667,0,0,0,,,,,,,HAMMER,LB,m,y,./images/HAMMERLB.png,,,,,,,,m,1,0,,,,,,,,0,23,23,75,1
,,,,,,,,,,,,,,,,,199999,19,2022-01-29_15h43.45.019,lexical_decision_task_DD_L6,2021.2.3,MacIntel,55.55555556,,,,,,,,,,,0.053,0,,,,,,,,,,,,,,,,,,,,,,,,-0.053333333,-0.396666667,0,0,0,,,,,,,CRUST,C,z,y,./images/CRUST.png,,,,,,,,m,0,0.053,,,,,,,,0,24,24,163,1
,,,,,,,,,,,,,,,,,199999,19,2022-01-29_15h43.45.019,lexical_decision_task_DD_L6,2021.2.3,MacIntel,55.55555556,,,,,,,,,,,0.038,1,,,,,,,,,,,,,,,,,,,,,,,,-0.053333333,-0.396666667,0,0,0,,,,,,,GRAPE,C,m,y,./images/GRAPE.png,,,,,,,,m,1,0.038,,,,,,,,0,25,25,16,1
,,,,,,,,,,,,,,,,,199999,19,2022-01-29_15h43.45.019,lexical_decision_task_DD_L6,2021.2.3,MacIntel,55.55555556,,,,,,,,,,,0.023,0,,,,,,,,,,,,,,,,,,,,,,,,-0.053333333,-0.396666667,0,0,0,,,,,,,NOOSE,LB,z,y,./images/NOOSELB.png,,,,,,,,m,0,0.023,,,,,,,,0,26,26,156,1
,,,,,,,,,,,,,,,,,199999,19,2022-01-29_15h43.45.019,lexical_decision_task_DD_L6,2021.2.3,MacIntel,55.55555556,,,,,,,,,,,0.044,0,,,,,,,,,,,,,,,,,,,,,,,,-0.053333333,-0.396666667,0,0,0,,,,,,,SWEAT,LB,z,y,./images/SWEATLB.png,,,,,,,,m,0,0.044,,,,,,,,0,27,27,150,1
,,,,,,,,,,,,,,,,,199999,19,2022-01-29_15h43.45.019,lexical_decision_task_DD_L6,2021.2.3,MacIntel,55.55555556,,,,,,,,,,,0.635,1,,,,,,,,,,,,,,,,,,,,,,,,-0.053333333,-0.396666667,0,0,0,,,,,,,TORCH,HB,z,y,./images/TORCHHB.png,,,,,,,,z,1,0.635,,,,,,,,0,28,28,152,1
,,,,,,,,,,,,,,,,,199999,19,2022-01-29_15h43.45.019,lexical_decision_task_DD_L6,2021.2.3,MacIntel,55.55555556,,,,,,,,,,,0.027,1,,,,,,,,,,,,,,,,,,,,,,,,-0.053333333,-0.396666667,0,0,0,,,,,,,MALLET,HB,z,y,./images/MALLETHB.png,,,,,,,,z,1,0.027,,,,,,,,0,29,29,134,1
,,,,,,,,,,,,,,,,,199999,19,2022-01-29_15h43.45.019,lexical_decision_task_DD_L6,2021.2.3,MacIntel,55.55555556,,,,,,,,,,,0.304,0,,,,,,,,,,,,,,,,,,,,,,,,-0.053333333,-0.396666667,0,0,0,,,,,,,WRIST,C,z,y,./images/WRIST.png,,,,,,,,m,0,0.304,,,,,,,,0,30,30,109,1
,,,,,,,,,,,,,,,,,199999,19,2022-01-29_15h43.45.019,lexical_decision_task_DD_L6,2021.2.3,MacIntel,55.55555556,,,,,,,,,,,0.02,0,,,,,,,,,,,,,,,,,,,,,,,,-0.053333333,-0.396666667,0,0,0,,,,,,,SCREW,LB,z,y,./images/SCREWLB.png,,,,,,,,m,0,0.02,,,,,,,,0,31,31,108,1
,,,,,,,,,,,,,,,,,199999,19,2022-01-29_15h43.45.019,lexical_decision_task_DD_L6,2021.2.3,MacIntel,55.55555556,,,,,,,,,,,0.095,0,,,,,,,,,,,,,,,,,,,,,,,,-0.053333333,-0.396666667,0,0,0,,,,,,,TWINS,LB,z,y,./images/TWINSLB.png,,,,,,,,m,0,0.095,,,,,,,,0,32,32,144,1
,,,,,,,,,,,,,,,,,199999,19,2022-01-29_15h43.45.019,lexical_decision_task_DD_L6,2021.2.3,MacIntel,55.55555556,,,,,,,,,,,0.197,1,,,,,,,,,,,,,,,,,,,,,,,,-0.076666667,-0.361111111,0,0,0,,,,,,,TRIPOD,LB,z,y,./images/TRIPODLB.png,,,,,,,,z,1,0.197,,,,,,,,0,33,33,138,1
,,,,,,,,,,,,,,,,,199999,19,2022-01-29_15h43.45.019,lexical_decision_task_DD_L6,2021.2.3,MacIntel,55.55555556,,,,,,,,,,,0.022,1,,,,,,,,,,,,,,,,,,,,,,,,-0.076666667,-0.361111111,0,0,0,,,,,,,TULIP,HB,z,y,./images/TULIPHB.png,,,,,,,,z,1,0.022,,,,,,,,0,34,34,92,1
,,,,,,,,,,,,,,,,,199999,19,2022-01-29_15h43.45.019,lexical_decision_task_DD_L6,2021.2.3,MacIntel,55.55555556,,,,,,,,,,,0.154,0,,,,,,,,,,,,,,,,,,,,,,,,-0.076666667,-0.361111111,0,0,0,,,,,,,CHERRY,LB,m,y,./images/CHERRYLB.png,,,,,,,,z,0,0.154,,,,,,,,0,35,35,54,1
,,,,,,,,,,,,,,,,,199999,19,2022-01-29_15h43.45.019,lexical_decision_task_DD_L6,2021.2.3,MacIntel,55.55555556,,,,,,,,,,,0.087,1,,,,,,,,,,,,,,,,,,,,,,,,-0.076666667,-0.361111111,0,0,0,,,,,,,DRUMS,C,z,y,./images/DRUMS.png,,,,,,,,z,1,0.087,,,,,,,,0,36,36,133,1
,,,,,,,,,,,,,,,,,199999,19,2022-01-29_15h43.45.019,lexical_decision_task_DD_L6,2021.2.3,MacIntel,55.55555556,,,,,,,,,,,0.04,1,,,,,,,,,,,,,,,,,,,,,,,,-0.076666667,-0.361111111,0,0,0,,,,,,,PIMPLE,HB,z,y,./images/PIMPLEHB.png,,,,,,,,z,1,0.04,,,,,,,,0,37,37,155,1
,,,,,,,,,,,,,,,,,199999,19,2022-01-29_15h43.45.019,lexical_decision_task_DD_L6,2021.2.3,MacIntel,55.55555556,,,,,,,,,,,0.128,0,,,,,,,,,,,,,,,,,,,,,,,,-0.076666667,-0.361111111,0,0,0,,,,,,,LIZARD,HB,z,y,./images/LIZARDHB.png,,,,,,,,m,0,0.128,,,,,,,,0,38,38,128,1
,,,,,,,,,,,,,,,,,199999,19,2022-01-29_15h43.45.019,lexical_decision_task_DD_L6,2021.2.3,MacIntel,55.55555556,,,,,,,,,,,0.189,1,,,,,,,,,,,,,,,,,,,,,,,,-0.076666667,-0.361111111,0,0,0,,,,,,,LAGOON,HB,m,y,./images/LAGOONHB.png,,,,,,,,m,1,0.189,,,,,,,,0,39,39,47,1
,,,,,,,,,,,,,,,,,199999,19,2022-01-29_15h43.45.019,lexical_decision_task_DD_L6,2021.2.3,MacIntel,55.55555556,,,,,,,,,,,0.095,0,,,,,,,,,,,,,,,,,,,,,,,,-0.076666667,-0.361111111,0,0,0,,,,,,,FALCON,C,z,y,./images/FALCON.png,,,,,,,,m,0,0.095,,,,,,,,0,40,40,112,1
,,,,,,,,,,,,,,,,,199999,19,2022-01-29_15h43.45.019,lexical_decision_task_DD_L6,2021.2.3,MacIntel,55.55555556,,,,,,,,,,,0.255,0,,,,,,,,,,,,,,,,,,,,,,,,-0.076666667,-0.361111111,0,0,0,space,,,,,,ATTIC,LB,z,y,./images/ATTICLB.png,1.596,,,,,,,m,0,0.255,,,,,,,,0,41,41,111,1
,,,,,,,,,,,,,,,,,199999,19,2022-01-29_15h43.45.019,lexical_decision_task_DD_L6,2021.2.3,MacIntel,55.55555556,,,,,,,,,,,0.258,1,,,,,,,,,,,,,,,,,,,,,,,,-0.076666667,-0.361111111,0,0,0,,,,,,,MAGGOT,LB,z,y,./images/MAGGOTLB.png,,,,,,,,z,1,0.258,,,,,,,,0,42,42,117,1
,,,,,,,,,,,,,,,,,199999,19,2022-01-29_15h43.45.019,lexical_decision_task_DD_L6,2021.2.3,MacIntel,55.55555556,,,,,,,,,,,0.279,0,,,,,,,,,,,,,,,,,,,,,,,,-0.076666667,-0.361111111,0,0,0,,,,,,,SUNSET,C,z,y,./images/SUNSET.png,,,,,,,,m,0,0.279,,,,,,,,0,43,43,166,1
,,,,,,,,,,,,,,,,,199999,19,2022-01-29_15h43.45.019,lexical_decision_task_DD_L6,2021.2.3,MacIntel,55.55555556,,,,,,,,,,,0.155,1,,,,,,,,,,,,,,,,,,,,,,,,-0.076666667,-0.361111111,0,0,0,,,,,,,DRILL,LB,m,y,./images/DRILLLB.png,,,,,,,,m,1,0.155,,,,,,,,0,44,44,81,1
,,,,,,,,,,,,,,,,,199999,19,2022-01-29_15h43.45.019,lexical_decision_task_DD_L6,2021.2.3,MacIntel,55.55555556,,,,,,,,,,,0.106,1,,,,,,,,,,,,,,,,,,,,,,,,-0.076666667,-0.361111111,0,0,0,,,,,,,COOKER,LB,z,y,./images/COOKERLB.png,,,,,,,,z,1,0.106,,,,,,,,0,45,45,153,1
,,,,,,,,,,,,,,,,,199999,19,2022-01-29_15h43.45.019,lexical_decision_task_DD_L6,2021.2.3,MacIntel,55.55555556,,,,,,,,,,,0.029,1,,,,,,,,,,,,,,,,,,,,,,,,-0.076666667,-0.361111111,0,0,0,,,,,,,LLAMA,HB,m,y,./images/LLAMAHB.png,,,,,,,,m,1,0.029,,,,,,,,0,46,46,35,1
,,,,,,,,,,,,,,,,,199999,19,2022-01-29_15h43.45.019,lexical_decision_task_DD_L6,2021.2.3,MacIntel,55.55555556,,,,,,,,,,,0.105,0,,,,,,,,,,,,,,,,,,,,,,,,-0.076666667,-0.361111111,0,0,0,,,,,,,CURRY,LB,m,y,./images/CURRYLB.png,,,,,,,,z,0,0.105,,,,,,,,0,47,47,60,1
,,,,,,,,,,,,,,,,,199999,19,2022-01-29_15h43.45.019,lexical_decision_task_DD_L6,2021.2.3,MacIntel,55.55555556,,,,,,,,,,,0.122,1,,,,,,,,,,,,,,,,,,,,,,,,-0.076666667,-0.361111111,0,0,0,,,,,,,QUILL,C,z,y,./images/QUILL.png,,,,,,,,z,1,0.122,,,,,,,,0,48,48,115,1
,,,,,,,,,,,,,,,,,199999,19,2022-01-29_15h43.45.019,lexical_decision_task_DD_L6,2021.2.3,MacIntel,55.55555556,,,,,,,,,,,0.029,0,,,,,,,,,,,,,,,,,,,,,,,,-0.076666667,-0.361111111,0,0,0,,,,,,,MOOSE,LB,z,y,./images/MOOSELB.png,,,,,,,,m,0,0.029,,,,,,,,0,49,49,141,1
,,,,,,,,,,,,,,,,,199999,19,2022-01-29_15h43.45.019,lexical_decision_task_DD_L6,2021.2.3,MacIntel,55.55555556,,,,,,,,,,,0.155,0,,,,,,,,,,,,,,,,,,,,,,,,-0.076666667,-0.361111111,0,0,0,,,,,,,BONNET,HB,z,y,./images/BONNETHB.png,,,,,,,,m,0,0.155,,,,,,,,0,50,50,95,1
,,,,,,,,,,,,,,,,,199999,19,2022-01-29_15h43.45.019,lexical_decision_task_DD_L6,2021.2.3,MacIntel,55.55555556,,,,,,,,,,,0.127,1,,,,,,,,,,,,,,,,,,,,,,,,-0.076666667,-0.361111111,0,0,0,,,,,,,LITTER,LB,z,y,./images/LITTERLB.png,,,,,,,,z,1,0.127,,,,,,,,0,51,51,162,1
,,,,,,,,,,,,,,,,,199999,19,2022-01-29_15h43.45.019,lexical_decision_task_DD_L6,2021.2.3,MacIntel,55.55555556,,,,,,,,,,,0.029,0,,,,,,,,,,,,,,,,,,,,,,,,-0.076666667,-0.361111111,0,0,0,,,,,,,BIRTH,C,z,y,./images/BIRTH.png,,,,,,,,m,0,0.029,,,,,,,,0,52,52,121,1
,,,,,,,,,,,,,,,,,199999,19,2022-01-29_15h43.45.019,lexical_decision_task_DD_L6,2021.2.3,MacIntel,55.55555556,,,,,,,,,,,0.095,0,,,,,,,,,,,,,,,,,,,,,,,,-0.076666667,-0.361111111,0,0,0,,,,,,,PEBBLE,C,m,y,./images/PEBBLE.png,,,,,,,,z,0,0.095,,,,,,,,0,53,53,82,1
,,,,,,,,,,,,,,,,,199999,19,2022-01-29_15h43.45.019,lexical_decision_task_DD_L6,2021.2.3,MacIntel,55.55555556,,,,,,,,,,,0.154,1,,,,,,,,,,,,,,,,,,,,,,,,-0.076666667,-0.361111111,0,0,0,,,,,,,BRUSH,HB,m,y,./images/BRUSHHB.png,,,,,,,,m,1,0.154,,,,,,,,0,54,54,59,1
,,,,,,,,,,,,,,,,,199999,19,2022-01-29_15h43.45.019,lexical_decision_task_DD_L6,2021.2.3,MacIntel,55.55555556,,,,,,,,,,,0,1,,,,,,,,,,,,,,,,,,,,,,,,-0.076666667,-0.361111111,0,0,0,,,,,,,BEARD,HB,z,y,./images/BEARDHB.png,,,,,,,,z,1,0,,,,,,,,0,55,55,86,1
,,,,,,,,,,,,,,,,,199999,19,2022-01-29_15h43.45.019,lexical_decision_task_DD_L6,2021.2.3,MacIntel,55.55555556,,,,,,,,,,,0.104,1,,,,,,,,,,,,,,,,,,,,,,,,-0.076666667,-0.361111111,0,0,0,,,,,,,BELLY,C,z,y,./images/BELLY.png,,,,,,,,z,1,0.104,,,,,,,,0,56,56,94,1
,,,,,,,,,,,,,,,,,199999,19,2022-01-29_15h43.45.019,lexical_decision_task_DD_L6,2021.2.3,MacIntel,55.55555556,,,,,,,,,,,0.136,1,,,,,,,,,,,,,,,,,,,,,,,,-0.076666667,-0.361111111,0,0,0,,,,,,,SAILOR,C,z,y,./images/SAILOR.png,,,,,,,,z,1,0.136,,,,,,,,0,57,57,151,1
,,,,,,,,,,,,,,,,,199999,19,2022-01-29_15h43.45.019,lexical_decision_task_DD_L6,2021.2.3,MacIntel,55.55555556,,,,,,,,,,,0.089,1,,,,,,,,,,,,,,,,,,,,,,,,-0.076666667,-0.361111111,0,0,0,,,,,,,SHORE,LB,z,y,./images/SHORELB.png,,,,,,,,z,1,0.089,,,,,,,,0,58,58,96,1
,,,,,,,,,,,,,,,,,199999,19,2022-01-29_15h43.45.019,lexical_decision_task_DD_L6,2021.2.3,MacIntel,55.55555556,,,,,,,,,,,0.042,0,,,,,,,,,,,,,,,,,,,,,,,,-0.076666667,-0.361111111,0,0,0,,,,,,,SPINE,HB,m,y,./images/SPINEHB.png,,,,,,,,z,0,0.042,,,,,,,,0,59,59,65,1
,,,,,,,,,,,,,,,,,199999,19,2022-01-29_15h43.45.019,lexical_decision_task_DD_L6,2021.2.3,MacIntel,55.55555556,,,,,,,,,,,0.028,0,,,,,,,,,,,,,,,,,,,,,,,,-0.076666667,-0.361111111,0,0,0,,,,,,,SHELF,LB,z,y,./images/SHELFLB.png,,,,,,,,m,0,0.028,,,,,,,,0,60,60,123,1
,,,,,,,,,,,,,,,,,199999,19,2022-01-29_15h43.45.019,lexical_decision_task_DD_L6,2021.2.3,MacIntel,55.55555556,,,,,,,,,,,0.109,1,,,,,,,,,,,,,,,,,,,,,,,,-0.076666667,-0.361111111,0,0,0,,,,,,,BUNNY,C,m,y,./images/BUNNY.png,,,,,,,,m,1,0.109,,,,,,,,0,61,61,13,1
,,,,,,,,,,,,,,,,,199999,19,2022-01-29_15h43.45.019,lexical_decision_task_DD_L6,2021.2.3,MacIntel,55.55555556,,,,,,,,,,,0.077,1,,,,,,,,,,,,,,,,,,,,,,,,-0.076666667,-0.361111111,0,0,0,,,,,,,GARDEN,C,m,y,./images/GARDEN.png,,,,,,,,m,1,0.077,,,,,,,,0,62,62,10,1
,,,,,,,,,,,,,,,,,199999,19,2022-01-29_15h43.45.019,lexical_decision_task_DD_L6,2021.2.3,MacIntel,55.55555556,,,,,,,,,,,0.106,0,,,,,,,,,,,,,,,,,,,,,,,,-0.076666667,-0.361111111,0,0,0,,,,,,,FENCE,HB,m,y,./images/FENCEHB.png,,,,,,,,z,0,0.106,,,,,,,,0,63,63,14,1
,,,,,,,,,,,,,,,,,199999,19,2022-01-29_15h43.45.019,lexical_decision_task_DD_L6,2021.2.3,MacIntel,55.55555556,,,,,,,,,,,0.042,0,,,,,,,,,,,,,,,,,,,,,,,,-0.076666667,-0.361111111,0,0,0,,,,,,,TOWEL,C,m,y,./images/TOWEL.png,,,,,,,,z,0,0.042,,,,,,,,0,64,64,1,1
,,,,,,,,,,,,,,,,,199999,19,2022-01-29_15h43.45.019,lexical_decision_task_DD_L6,2021.2.3,MacIntel,55.55555556,,,,,,,,,,,0.161,1,,,,,,,,,,,,,,,,,,,,,,,,-0.076666667,-0.361111111,0,0,0,,,,,,,WALRUS,HB,z,y,./images/WALRUSHB.png,,,,,,,,z,1,0.161,,,,,,,,0,65,65,107,1
,,,,,,,,,,,,,,,,,199999,19,2022-01-29_15h43.45.019,lexical_decision_task_DD_L6,2021.2.3,MacIntel,55.55555556,,,,,,,,,,,0.199,0,,,,,,,,,,,,,,,,,,,,,,,,-0.076666667,-0.361111111,0,0,0,,,,,,,WAGON,C,m,y,./images/WAGON.png,,,,,,,,z,0,0.199,,,,,,,,0,66,66,7,1
,,,,,,,,,,,,,,,,,199999,19,2022-01-29_15h43.45.019,lexical_decision_task_DD_L6,2021.2.3,MacIntel,55.55555556,,,,,,,,,,,0.171,1,,,,,,,,,,,,,,,,,,,,,,,,-0.076666667,-0.361111111,0,0,0,,,,,,,SWING,C,z,y,./images/SWING.png,,,,,,,,z,1,0.171,,,,,,,,0,67,67,124,1
,,,,,,,,,,,,,,,,,199999,19,2022-01-29_15h43.45.019,lexical_decision_task_DD_L6,2021.2.3,MacIntel,55.55555556,,,,,,,,,,,0.23,0,,,,,,,,,,,,,,,,,,,,,,,,-0.076666667,-0.361111111,0,0,0,,,,,,,CANDLE,C,z,y,./images/CANDLE.png,,,,,,,,m,0,0.23,,,,,,,,0,68,68,145,1
,,,,,,,,,,,,,,,,,199999,19,2022-01-29_15h43.45.019,lexical_decision_task_DD_L6,2021.2.3,MacIntel,55.55555556,,,,,,,,,,,0,1,,,,,,,,,,,,,,,,,,,,,,,,-0.076666667,-0.361111111,0,0,0,,,,,,,BANANA,C,m,y,./images/BANANA.png,,,,,,,,m,1,0,,,,,,,,0,69,69,70,1
,,,,,,,,,,,,,,,,,199999,19,2022-01-29_15h43.45.019,lexical_decision_task_DD_L6,2021.2.3,MacIntel,55.55555556,,,,,,,,,,,0.092,1,,,,,,,,,,,,,,,,,,,,,,,,-0.076666667,-0.361111111,0,0,0,,,,,,,CRATER,LB,m,y,./images/CRATERLB.png,,,,,,,,m,1,0.092,,,,,,,,0,70,70,3,1
,,,,,,,,,,,,,,,,,199999,19,2022-01-29_15h43.45.019,lexical_decision_task_DD_L6,2021.2.3,MacIntel,55.55555556,,,,,,,,,,,0.232,1,,,,,,,,,,,,,,,,,,,,,,,,-0.076666667,-0.361111111,0,0,0,,,,,,,MIDGET,C,m,y,./images/MIDGET.png,,,,,,,,m,1,0.232,,,,,,,,0,71,71,76,1
,,,,,,,,,,,,,,,,,199999,19,2022-01-29_15h43.45.019,lexical_decision_task_DD_L6,2021.2.3,MacIntel,55.55555556,,,,,,,,,,,0.046,0,,,,,,,,,,,,,,,,,,,,,,,,-0.076666667,-0.361111111,0,0,0,,,,,,,CLOUD,HB,m,y,./images/CLOUDHB.png,,,,,,,,z,0,0.046,,,,,,,,0,72,72,26,1
,,,,,,,,,,,,,,,,,199999,19,2022-01-29_15h43.45.019,lexical_decision_task_DD_L6,2021.2.3,MacIntel,55.55555556,,,,,,,,,,,0.042,1,,,,,,,,,,,,,,,,,,,,,,,,-0.076666667,-0.361111111,0,0,0,,,,,,,FOLDER,LB,z,y,./images/FOLDERLB.png,,,,,,,,z,1,0.042,,,,,,,,0,73,73,126,1
,,,,,,,,,,,,,,,,,199999,19,2022-01-29_15h43.45.019,lexical_decision_task_DD_L6,2021.2.3,MacIntel,55.55555556,,,,,,,,,,,0.038,1,,,,,,,,,,,,,,,,,,,,,,,,-0.076666667,-0.361111111,0,0,0,,,,,,,INFANT,C,z,y,./images/INFANT.png,,,,,,,,z,1,0.038,,,,,,,,0,74,74,160,1
,,,,,,,,,,,,,,,,,199999,19,2022-01-29_15h43.45.019,lexical_decision_task_DD_L6,2021.2.3,MacIntel,55.55555556,,,,,,,,,,,0.06,0,,,,,,,,,,,,,,,,,,,,,,,,-0.076666667,-0.361111111,0,0,0,,,,,,,CLIFF,HB,m,y,./images/CLIFFHB.png,,,,,,,,z,0,0.06,,,,,,,,0,75,75,8,1
,,,,,,,,,,,,,,,,,199999,19,2022-01-29_15h43.45.019,lexical_decision_task_DD_L6,2021.2.3,MacIntel,55.55555556,,,,,,,,,,,0,0,,,,,,,,,,,,,,,,,,,,,,,,-0.076666667,-0.361111111,0,0,0,,,,,,,WALNUT,LB,m,y,./images/WALNUTLB.png,,,,,,,,z,0,0,,,,,,,,0,76,76,0,1
,,,,,,,,,,,,,,,,,199999,19,2022-01-29_15h43.45.019,lexical_decision_task_DD_L6,2021.2.3,MacIntel,55.55555556,,,,,,,,,,,0.001,0,,,,,,,,,,,,,,,,,,,,,,,,-0.076666667,-0.361111111,0,0,0,,,,,,,PURSE,HB,z,y,./images/PURSEHB.png,,,,,,,,m,0,0.001,,,,,,,,0,77,77,146,1
,,,,,,,,,,,,,,,,,199999,19,2022-01-29_15h43.45.019,lexical_decision_task_DD_L6,2021.2.3,MacIntel,55.55555556,,,,,,,,,,,0.123,0,,,,,,,,,,,,,,,,,,,,,,,,-0.076666667,-0.361111111,0,0,0,,,,,,,MUMMY,C,m,y,./images/MUMMY.png,,,,,,,,z,0,0.123,,,,,,,,0,78,78,46,1
,,,,,,,,,,,,,,,,,199999,19,2022-01-29_15h43.45.019,lexical_decision_task_DD_L6,2021.2.3,MacIntel,55.55555556,,,,,,,,,,,0.113,1,,,,,,,,,,,,,,,,,,,,,,,,-0.076666667,-0.361111111,0,0,0,,,,,,,GRANNY,HB,m,y,./images/GRANNYHB.png,,,,,,,,m,1,0.113,,,,,,,,0,79,79,20,1
,,,,,,,,,,,,,,,,,199999,19,2022-01-29_15h43.45.019,lexical_decision_task_DD_L6,2021.2.3,MacIntel,55.55555556,,,,,,,,,,,0.113,1,,,,,,,,,,,,,,,,,,,,,,,,-0.076666667,-0.361111111,0,0,0,,,,,,,TOMATO,LB,z,y,./images/TOMATOLB.png,,,,,,,,z,1,0.113,,,,,,,,0,80,80,84,1
,,,,,,,,,,,,,,,,,199999,19,2022-01-29_15h43.45.019,lexical_decision_task_DD_L6,2021.2.3,MacIntel,55.55555556,,,,,,,,,,,0.088,0,,,,,,,,,,,,,,,,,,,,,,,,-0.076666667,-0.361111111,0,0,0,,,,,,,SMOKER,HB,z,y,./images/SMOKERHB.png,,,,,,,,m,0,0.088,,,,,,,,0,81,81,110,1
,,,,,,,,,,,,,,,,,199999,19,2022-01-29_15h43.45.019,lexical_decision_task_DD_L6,2021.2.3,MacIntel,55.55555556,,,,,,,,,,,0.078,0,,,,,,,,,,,,,,,,,,,,,,,,-0.076666667,-0.361111111,0,0,0,,,,,,,PEACH,HB,z,y,./images/PEACHHB.png,,,,,,,,m,0,0.078,,,,,,,,0,82,82,119,1
,,,,,,,,,,,,,,,,,199999,19,2022-01-29_15h43.45.019,lexical_decision_task_DD_L6,2021.2.3,MacIntel,55.55555556,,,,,,,,,,,0.157,0,,,,,,,,,,,,,,,,,,,,,,,,-0.076666667,-0.361111111,0,0,0,space,,,,,,CHALK,C,m,y,./images/CHALK.png,10.652,,,,,,,z,0,0.157,,,,,,,,0,83,83,25,1
,,,,,,,,,,,,,,,,,199999,19,2022-01-29_15h43.45.019,lexical_decision_task_DD_L6,2021.2.3,MacIntel,55.55555556,,,,,,,,,,,0.028,1,,,,,,,,,,,,,,,,,,,,,,,,-0.076666667,-0.361111111,0,0,0,,,,,,,CLOTH,HB,m,y,./images/CLOTHHB.png,,,,,,,,m,1,0.028,,,,,,,,0,84,84,23,1
,,,,,,,,,,,,,,,,,199999,19,2022-01-29_15h43.45.019,lexical_decision_task_DD_L6,2021.2.3,MacIntel,55.55555556,,,,,,,,,,,0.099,0,,,,,,,,,,,,,,,,,,,,,,,,-0.076666667,-0.361111111,0,0,0,,,,,,,WHEEL,HB,m,y,./images/WHEELHB.png,,,,,,,,z,0,0.099,,,,,,,,0,85,85,77,1
,,,,,,,,,,,,,,,,,199999,19,2022-01-29_15h43.45.019,lexical_decision_task_DD_L6,2021.2.3,MacIntel,55.55555556,,,,,,,,,,,0.137,1,,,,,,,,,,,,,,,,,,,,,,,,-0.076666667,-0.361111111,0,0,0,,,,,,,ARROW,LB,m,y,./images/ARROWLB.png,,,,,,,,m,1,0.137,,,,,,,,0,86,86,69,1
,,,,,,,,,,,,,,,,,199999,19,2022-01-29_15h43.45.019,lexical_decision_task_DD_L6,2021.2.3,MacIntel,55.55555556,,,,,,,,,,,0.068,0,,,,,,,,,,,,,,,,,,,,,,,,-0.076666667,-0.361111111,0,0,0,,,,,,,MELON,C,z,y,./images/MELON.png,,,,,,,,m,0,0.068,,,,,,,,0,87,87,106,1
,,,,,,,,,,,,,,,,,199999,19,2022-01-29_15h43.45.019,lexical_decision_task_DD_L6,2021.2.3,MacIntel,55.55555556,,,,,,,,,,,0.086,0,,,,,,,,,,,,,,,,,,,,,,,,-0.076666667,-0.361111111,0,0,0,,,,,,,STOVE,HB,m,y,./images/STOVEHB.png,,,,,,,,z,0,0.086,,,,,,,,0,88,88,2,1
,,,,,,,,,,,,,,,,,199999,19,2022-01-29_15h43.45.019,lexical_decision_task_DD_L6,2021.2.3,MacIntel,55.55555556,,,,,,,,,,,0.01,0,,,,,,,,,,,,,,,,,,,,,,,,-0.076666667,-0.361111111,0,0,0,,,,,,,CRADLE,HB,z,y,./images/CRADLEHB.png,,,,,,,,m,0,0.01,,,,,,,,0,89,89,104,1
,,,,,,,,,,,,,,,,,199999,19,2022-01-29_15h43.45.019,lexical_decision_task_DD_L6,2021.2.3,MacIntel,55.55555556,,,,,,,,,,,0.141,1,,,,,,,,,,,,,,,,,,,,,,,,-0.076666667,-0.361111111,0,0,0,,,,,,,PLANK,C,z,y,./images/PLANK.png,,,,,,,,z,1,0.141,,,,,,,,0,90,90,85,1
,,,,,,,,,,,,,,,,,199999,19,2022-01-29_15h43.45.019,lexical_decision_task_DD_L6,2021.2.3,MacIntel,55.55555556,,,,,,,,,,,0.095,0,,,,,,,,,,,,,,,,,,,,,,,,-0.076666667,-0.361111111,0,0,0,,,,,,,STATUE,LB,m,y,./images/STATUELB.png,,,,,,,,z,0,0.095,,,,,,,,0,91,91,66,1
,,,,,,,,,,,,,,,,,199999,19,2022-01-29_15h43.45.019,lexical_decision_task_DD_L6,2021.2.3,MacIntel,55.55555556,,,,,,,,,,,0.001,1,,,,,,,,,,,,,,,,,,,,,,,,-0.076666667,-0.361111111,0,0,0,,,,,,,STEAK,C,m,y,./images/STEAK.png,,,,,,,,m,1,0.001,,,,,,,,0,92,92,31,1
,,,,,,,,,,,,,,,,,199999,19,2022-01-29_15h43.45.019,lexical_decision_task_DD_L6,2021.2.3,MacIntel,55.55555556,,,,,,,,,,,0.143,1,,,,,,,,,,,,,,,,,,,,,,,,-0.076666667,-0.361111111,0,0,0,,,,,,,CANYON,C,z,y,./images/CANYON.png,,,,,,,,z,1,0.143,,,,,,,,0,93,93,118,1
,,,,,,,,,,,,,,,,,199999,19,2022-01-29_15h43.45.019,lexical_decision_task_DD_L6,2021.2.3,MacIntel,55.55555556,,,,,,,,,,,0.054,1,,,,,,,,,,,,,,,,,,,,,,,,-0.076666667,-0.361111111,0,0,0,,,,,,,BISHOP,C,m,y,./images/BISHOP.png,,,,,,,,m,1,0.054,,,,,,,,0,94,94,49,1
,,,,,,,,,,,,,,,,,199999,19,2022-01-29_15h43.45.019,lexical_decision_task_DD_L6,2021.2.3,MacIntel,55.55555556,,,,,,,,,,,0.061,0,,,,,,,,,,,,,,,,,,,,,,,,-0.076666667,-0.361111111,0,0,0,,,,,,,GREASE,LB,z,y,./images/GREASELB.png,,,,,,,,m,0,0.061,,,,,,,,0,95,95,99,1
,,,,,,,,,,,,,,,,,199999,19,2022-01-29_15h43.45.019,lexical_decision_task_DD_L6,2021.2.3,MacIntel,55.55555556,,,,,,,,,,,0.062,0,,,,,,,,,,,,,,,,,,,,,,,,-0.076666667,-0.361111111,0,0,0,,,,,,,COLLAR,LB,m,y,./images/COLLARLB.png,,,,,,,,z,0,0.062,,,,,,,,0,96,96,15,1
,,,,,,,,,,,,,,,,,199999,19,2022-01-29_15h43.45.019,lexical_decision_task_DD_L6,2021.2.3,MacIntel,55.55555556,,,,,,,,,,,0.08,1,,,,,,,,,,,,,,,,,,,,,,,,-0.076666667,-0.361111111,0,0,0,,,,,,,FARMER,HB,z,y,./images/FARMERHB.png,,,,,,,,z,1,0.08,,,,,,,,0,97,97,149,1
,,,,,,,,,,,,,,,,,199999,19,2022-01-29_15h43.45.019,lexical_decision_task_DD_L6,2021.2.3,MacIntel,55.55555556,,,,,,,,,,,0.001,1,,,,,,,,,,,,,,,,,,,,,,,,-0.076666667,-0.361111111,0,0,0,,,,,,,FLASK,LB,m,y,./images/FLASKLB.png,,,,,,,,m,1,0.001,,,,,,,,0,98,98,72,1
,,,,,,,,,,,,,,,,,199999,19,2022-01-29_15h43.45.019,lexical_decision_task_DD_L6,2021.2.3,MacIntel,55.55555556,,,,,,,,,,,0.053,0,,,,,,,,,,,,,,,,,,,,,,,,-0.076666667,-0.361111111,0,0,0,,,,,,,CEMENT,HB,z,y,./images/CEMENTHB.png,,,,,,,,m,0,0.053,,,,,,,,0,99,99,158,1
,,,,,,,,,,,,,,,,,199999,19,2022-01-29_15h43.45.019,lexical_decision_task_DD_L6,2021.2.3,MacIntel,55.55555556,,,,,,,,,,,0.054,0,,,,,,,,,,,,,,,,,,,,,,,,-0.076666667,-0.361111111,0,0,0,,,,,,,KIDNEY,LB,z,y,./images/KIDNEYLB.png,,,,,,,,m,0,0.054,,,,,,,,0,100,100,105,1
,,,,,,,,,,,,,,,,,199999,19,2022-01-29_15h43.45.019,lexical_decision_task_DD_L6,2021.2.3,MacIntel,55.55555556,,,,,,,,,,,0.096,0,,,,,,,,,,,,,,,,,,,,,,,,-0.076666667,-0.361111111,0,0,0,,,,,,,JELLY,C,z,y,./images/JELLY.png,,,,,,,,m,0,0.096,,,,,,,,0,101,101,148,1
,,,,,,,,,,,,,,,,,199999,19,2022-01-29_15h43.45.019,lexical_decision_task_DD_L6,2021.2.3,MacIntel,55.55555556,,,,,,,,,,,0.001,0,,,,,,,,,,,,,,,,,,,,,,,,-0.076666667,-0.361111111,0,0,0,,,,,,,DOUGH,C,z,y,./images/DOUGH.png,,,,,,,,m,0,0.001,,,,,,,,0,102,102,103,1
,,,,,,,,,,,,,,,,,199999,19,2022-01-29_15h43.45.019,lexical_decision_task_DD_L6,2021.2.3,MacIntel,55.55555556,,,,,,,,,,,0.055,0,,,,,,,,,,,,,,,,,,,,,,,,-0.076666667,-0.361111111,0,0,0,,,,,,,STORM,LB,z,y,./images/STORMLB.png,,,,,,,,m,0,0.055,,,,,,,,0,103,103,114,1
,,,,,,,,,,,,,,,,,199999,19,2022-01-29_15h43.45.019,lexical_decision_task_DD_L6,2021.2.3,MacIntel,55.55555556,,,,,,,,,,,0.385,0,,,,,,,,,,,,,,,,,,,,,,,,-0.076666667,-0.361111111,0,0,0,,,,,,,BABOON,C,z,y,./images/BABOON.png,,,,,,,,m,0,0.385,,,,,,,,0,104,104,142,1
,,,,,,,,,,,,,,,,,199999,19,2022-01-29_15h43.45.019,lexical_decision_task_DD_L6,2021.2.3,MacIntel,55.55555556,,,,,,,,,,,0.174,1,,,,,,,,,,,,,,,,,,,,,,,,-0.076666667,-0.361111111,0,0,0,,,,,,,FLESH,LB,m,y,./images/FLESHLB.png,,,,,,,,m,1,0.174,,,,,,,,0,105,105,24,1
,,,,,,,,,,,,,,,,,199999,19,2022-01-29_15h43.45.019,lexical_decision_task_DD_L6,2021.2.3,MacIntel,55.55555556,,,,,,,,,,,0.012,0,,,,,,,,,,,,,,,,,,,,,,,,-0.076666667,-0.361111111,0,0,0,,,,,,,POODLE,LB,z,y,./images/POODLELB.png,,,,,,,,m,0,0.012,,,,,,,,0,106,106,165,1
,,,,,,,,,,,,,,,,,199999,19,2022-01-29_15h43.45.019,lexical_decision_task_DD_L6,2021.2.3,MacIntel,55.55555556,,,,,,,,,,,0.061,1,,,,,,,,,,,,,,,,,,,,,,,,-0.076666667,-0.361111111,0,0,0,,,,,,,BAMBOO,HB,m,y,./images/BAMBOOHB.png,,,,,,,,m,1,0.061,,,,,,,,0,107,107,5,1
,,,,,,,,,,,,,,,,,199999,19,2022-01-29_15h43.45.019,lexical_decision_task_DD_L6,2021.2.3,MacIntel,55.55555556,,,,,,,,,,,0.063,1,,,,,,,,,,,,,,,,,,,,,,,,-0.076666667,-0.361111111,0,0,0,,,,,,,BLOKE,LB,m,y,./images/BLOKELB.png,,,,,,,,m,1,0.063,,,,,,,,0,108,108,12,1
,,,,,,,,,,,,,,,,,199999,19,2022-01-29_15h43.45.019,lexical_decision_task_DD_L6,2021.2.3,MacIntel,55.55555556,,,,,,,,,,,0.039,1,,,,,,,,,,,,,,,,,,,,,,,,-0.076666667,-0.361111111,0,0,0,,,,,,,DIVER,LB,m,y,./images/DIVERLB.png,,,,,,,,m,1,0.039,,,,,,,,0,109,109,9,1
,,,,,,,,,,,,,,,,,199999,19,2022-01-29_15h43.45.019,lexical_decision_task_DD_L6,2021.2.3,MacIntel,55.55555556,,,,,,,,,,,0,1,,,,,,,,,,,,,,,,,,,,,,,,-0.076666667,-0.361111111,0,0,0,,,,,,,JAGUAR,LB,z,y,./images/JAGUARLB.png,,,,,,,,z,1,0,,,,,,,,0,110,110,102,1
,,,,,,,,,,,,,,,,,199999,19,2022-01-29_15h43.45.019,lexical_decision_task_DD_L6,2021.2.3,MacIntel,55.55555556,,,,,,,,,,,0.046,1,,,,,,,,,,,,,,,,,,,,,,,,-0.076666667,-0.361111111,0,0,0,,,,,,,POKER,C,m,y,./images/POKER.png,,,,,,,,m,1,0.046,,,,,,,,0,111,111,67,1
,,,,,,,,,,,,,,,,,199999,19,2022-01-29_15h43.45.019,lexical_decision_task_DD_L6,2021.2.3,MacIntel,55.55555556,,,,,,,,,,,0.063,1,,,,,,,,,,,,,,,,,,,,,,,,-0.076666667,-0.361111111,0,0,0,,,,,,,BASKET,HB,m,y,./images/BASKETHB.png,,,,,,,,m,1,0.063,,,,,,,,0,112,112,44,1
,,,,,,,,,,,,,,,,,199999,19,2022-01-29_15h43.45.019,lexical_decision_task_DD_L6,2021.2.3,MacIntel,55.55555556,,,,,,,,,,,0.177,1,,,,,,,,,,,,,,,,,,,,,,,,-0.076666667,-0.361111111,0,0,0,,,,,,,ENGINE,HB,m,y,./images/ENGINEHB.png,,,,,,,,m,1,0.177,,,,,,,,0,113,113,38,1
,,,,,,,,,,,,,,,,,199999,19,2022-01-29_15h43.45.019,lexical_decision_task_DD_L6,2021.2.3,MacIntel,55.55555556,,,,,,,,,,,0.194,0,,,,,,,,,,,,,,,,,,,,,,,,-0.076666667,-0.361111111,0,0,0,,,,,,,RHINO,LB,z,y,./images/RHINOLB.png,,,,,,,,m,0,0.194,,,,,,,,0,114,114,93,1
,,,,,,,,,,,,,,,,,199999,19,2022-01-29_15h43.45.019,lexical_decision_task_DD_L6,2021.2.3,MacIntel,55.55555556,,,,,,,,,,,0.003,0,,,,,,,,,,,,,,,,,,,,,,,,-0.076666667,-0.361111111,0,0,0,,,,,,,PENCE,C,z,y,./images/PENCE.png,,,,,,,,m,0,0.003,,,,,,,,0,115,115,100,1
,,,,,,,,,,,,,,,,,199999,19,2022-01-29_15h43.45.019,lexical_decision_task_DD_L6,2021.2.3,MacIntel,55.55555556,,,,,,,,,,,0.008,0,,,,,,,,,,,,,,,,,,,,,,,,-0.076666667,-0.361111111,0,0,0,,,,,,,CRUMB,HB,z,y,./images/CRUMBHB.png,,,,,,,,m,0,0.008,,,,,,,,0,116,116,113,1
,,,,,,,,,,,,,,,,,199999,19,2022-01-29_15h43.45.019,lexical_decision_task_DD_L6,2021.2.3,MacIntel,55.55555556,,,,,,,,,,,0.097,0,,,,,,,,,,,,,,,,,,,,,,,,-0.076666667,-0.361111111,0,0,0,,,,,,,ONION,LB,z,y,./images/ONIONLB.png,,,,,,,,m,0,0.097,,,,,,,,0,117,117,135,1
,,,,,,,,,,,,,,,,,199999,19,2022-01-29_15h43.45.019,lexical_decision_task_DD_L6,2021.2.3,MacIntel,55.55555556,,,,,,,,,,,0.03,0,,,,,,,,,,,,,,,,,,,,,,,,-0.076666667,-0.361111111,0,0,0,,,,,,,CANDY,LB,m,y,./images/CANDYLB.png,,,,,,,,z,0,0.03,,,,,,,,0,118,118,39,1
,,,,,,,,,,,,,,,,,199999,19,2022-01-29_15h43.45.019,lexical_decision_task_DD_L6,2021.2.3,MacIntel,55.55555556,,,,,,,,,,,0.131,1,,,,,,,,,,,,,,,,,,,,,,,,-0.076666667,-0.361111111,0,0,0,,,,,,,STRING,HB,z,y,./images/STRINGHB.png,,,,,,,,z,1,0.131,,,,,,,,0,119,119,125,1
,,,,,,,,,,,,,,,,,199999,19,2022-01-29_15h43.45.019,lexical_decision_task_DD_L6,2021.2.3,MacIntel,55.55555556,,,,,,,,,,,0.096,0,,,,,,,,,,,,,,,,,,,,,,,,-0.076666667,-0.361111111,0,0,0,,,,,,,BOXER,C,m,y,./images/BOXER.png,,,,,,,,z,0,0.096,,,,,,,,0,120,120,4,1
,,,,,,,,,,,,,,,,,199999,19,2022-01-29_15h43.45.019,lexical_decision_task_DD_L6,2021.2.3,MacIntel,55.55555556,,,,,,,,,,,0.021,0,,,,,,,,,,,,,,,,,,,,,,,,-0.076666667,-0.361111111,0,0,0,,,,,,,PLANET,HB,m,y,./images/PLANETHB.png,,,,,,,,z,0,0.021,,,,,,,,0,121,121,80,1
,,,,,,,,,,,,,,,,,199999,19,2022-01-29_15h43.45.019,lexical_decision_task_DD_L6,2021.2.3,MacIntel,55.55555556,,,,,,,,,,,0.187,0,,,,,,,,,,,,,,,,,,,,,,,,-0.076666667,-0.361111111,0,0,0,,,,,,,HEATER,HB,m,y,./images/HEATERHB.png,,,,,,,,z,0,0.187,,,,,,,,0,122,122,56,1
,,,,,,,,,,,,,,,,,199999,19,2022-01-29_15h43.45.019,lexical_decision_task_DD_L6,2021.2.3,MacIntel,55.55555556,,,,,,,,,,,0.092,0,,,,,,,,,,,,,,,,,,,,,,,,-0.076666667,-0.361111111,0,0,0,,,,,,,BOILER,LB,m,y,./images/BOILERLB.png,,,,,,,,z,0,0.092,,,,,,,,0,123,123,36,1
,,,,,,,,,,,,,,,,,199999,19,2022-01-29_15h43.45.019,lexical_decision_task_DD_L6,2021.2.3,MacIntel,55.55555556,,,,,,,,,,,0.053,0,,,,,,,,,,,,,,,,,,,,,,,,-0.076666667,-0.361111111,0,0,0,,,,,,,SQUARE,LB,z,y,./images/SQUARELB.png,,,,,,,,m,0,0.053,,,,,,,,0,124,124,90,1
,,,,,,,,,,,,,,,,,199999,19,2022-01-29_15h43.45.019,lexical_decision_task_DD_L6,2021.2.3,MacIntel,55.55555556,,,,,,,,,,,0,0,,,,,,,,,,,,,,,,,,,,,,,,-0.076666667,-0.361111111,0,0,0,space,,,,,,DESERT,C,m,y,./images/DESERT.png,1.071,,,,,,,z,0,0,,,,,,,,0,125,125,52,1
,,,,,,,,,,,,,,,,,199999,19,2022-01-29_15h43.45.019,lexical_decision_task_DD_L6,2021.2.3,MacIntel,55.55555556,,,,,,,,,,,0.07,0,,,,,,,,,,,,,,,,,,,,,,,,-0.076666667,-0.361111111,0,0,0,,,,,,,URINE,C,z,y,./images/URINE.png,,,,,,,,m,0,0.07,,,,,,,,0,126,126,154,1
,,,,,,,,,,,,,,,,,199999,19,2022-01-29_15h43.45.019,lexical_decision_task_DD_L6,2021.2.3,MacIntel,55.55555556,,,,,,,,,,,0.039,1,,,,,,,,,,,,,,,,,,,,,,,,-0.076666667,-0.361111111,0,0,0,,,,,,,RAZOR,C,m,y,./images/RAZOR.png,,,,,,,,m,1,0.039,,,,,,,,0,127,127,34,1
,,,,,,,,,,,,,,,,,199999,19,2022-01-29_15h43.45.019,lexical_decision_task_DD_L6,2021.2.3,MacIntel,55.55555556,,,,,,,,,,,0.081,0,,,,,,,,,,,,,,,,,,,,,,,,-0.076666667,-0.361111111,0,0,0,,,,,,,MUSCLE,C,z,y,./images/MUSCLE.png,,,,,,,,m,0,0.081,,,,,,,,0,128,128,88,1
,,,,,,,,,,,,,,,,,199999,19,2022-01-29_15h43.45.019,lexical_decision_task_DD_L6,2021.2.3,MacIntel,55.55555556,,,,,,,,,,,0.096,1,,,,,,,,,,,,,,,,,,,,,,,,-0.076666667,-0.361111111,0,0,0,,,,,,,STAIN,LB,m,y,./images/STAINLB.png,,,,,,,,m,1,0.096,,,,,,,,0,129,129,6,1
,,,,,,,,,,,,,,,,,199999,19,2022-01-29_15h43.45.019,lexical_decision_task_DD_L6,2021.2.3,MacIntel,55.55555556,,,,,,,,,,,0.205,1,,,,,,,,,,,,,,,,,,,,,,,,-0.076666667,-0.361111111,0,0,0,,,,,,,PEARL,C,z,y,./images/PEARL.png,,,,,,,,z,1,0.205,,,,,,,,0,130,130,130,1
,,,,,,,,,,,,,,,,,199999,19,2022-01-29_15h43.45.019,lexical_decision_task_DD_L6,2021.2.3,MacIntel,55.55555556,,,,,,,,,,,0.002,0,,,,,,,,,,,,,,,,,,,,,,,,-0.076666667,-0.361111111,0,0,0,,,,,,,BAKER,LB,m,y,./images/BAKERLB.png,,,,,,,,z,0,0.002,,,,,,,,0,131,131,63,1
,,,,,,,,,,,,,,,,,199999,19,2022-01-29_15h43.45.019,lexical_decision_task_DD_L6,2021.2.3,MacIntel,55.55555556,,,,,,,,,,,0.13,0,,,,,,,,,,,,,,,,,,,,,,,,-0.076666667,-0.361111111,0,0,0,,,,,,,SPORT,LB,z,y,./images/SPORTLB.png,,,,,,,,m,0,0.13,,,,,,,,0,132,132,132,1
,,,,,,,,,,,,,,,,,199999,19,2022-01-29_15h43.45.019,lexical_decision_task_DD_L6,2021.2.3,MacIntel,55.55555556,,,,,,,,,,,0.138,1,,,,,,,,,,,,,,,,,,,,,,,,-0.076666667,-0.361111111,0,0,0,,,,,,,JUMPER,HB,m,y,./images/JUMPERHB.png,,,,,,,,m,1,0.138,,,,,,,,0,133,133,74,1
,,,,,,,,,,,,,,,,,199999,19,2022-01-29_15h43.45.019,lexical_decision_task_DD_L6,2021.2.3,MacIntel,55.55555556,,,,,,,,,,,0.023,1,,,,,,,,,,,,,,,,,,,,,,,,-0.076666667,-0.361111111,0,0,0,,,,,,,BRIDE,C,m,y,./images/BRIDE.png,,,,,,,,m,1,0.023,,,,,,,,0,134,134,64,1
,,,,,,,,,,,,,,,,,199999,19,2022-01-29_15h43.45.019,lexical_decision_task_DD_L6,2021.2.3,MacIntel,55.55555556,,,,,,,,,,,0.011,0,,,,,,,,,,,,,,,,,,,,,,,,-0.076666667,-0.361111111,0,0,0,,,,,,,SKIING,HB,z,y,./images/SKIINGHB.png,,,,,,,,m,0,0.011,,,,,,,,0,135,135,101,1
,,,,,,,,,,,,,,,,,199999,19,2022-01-29_15h43.45.019,lexical_decision_task_DD_L6,2021.2.3,MacIntel,55.55555556,,,,,,,,,,,0.054,0,,,,,,,,,,,,,,,,,,,,,,,,-0.076666667,-0.361111111,0,0,0,,,,,,,COUCH,HB,z,y,./images/COUCHHB.png,,,,,,,,m,0,0.054,,,,,,,,0,136,136,161,1
,,,,,,,,,,,,,,,,,199999,19,2022-01-29_15h43.45.019,lexical_decision_task_DD_L6,2021.2.3,MacIntel,55.55555556,,,,,,,,,,,0.123,1,,,,,,,,,,,,,,,,,,,,,,,,-0.076666667,-0.361111111,0,0,0,,,,,,,PAINT,C,z,y,./images/PAINT.png,,,,,,,,z,1,0.123,,,,,,,,0,137,137,91,1
,,,,,,,,,,,,,,,,,199999,19,2022-01-29_15h43.45.019,lexical_decision_task_DD_L6,2021.2.3,MacIntel,55.55555556,,,,,,,,,,,0.045,1,,,,,,,,,,,,,,,,,,,,,,,,-0.076666667,-0.361111111,0,0,0,,,,,,,PILOT,HB,m,y,./images/PILOTHB.png,,,,,,,,m,1,0.045,,,,,,,,0,138,138,50,1
,,,,,,,,,,,,,,,,,199999,19,2022-01-29_15h43.45.019,lexical_decision_task_DD_L6,2021.2.3,MacIntel,55.55555556,,,,,,,,,,,0.009,1,,,,,,,,,,,,,,,,,,,,,,,,-0.076666667,-0.361111111,0,0,0,,,,,,,HOCKEY,HB,m,y,./images/HOCKEYHB.png,,,,,,,,m,1,0.009,,,,,,,,0,139,139,32,1
,,,,,,,,,,,,,,,,,199999,19,2022-01-29_15h43.45.019,lexical_decision_task_DD_L6,2021.2.3,MacIntel,55.55555556,,,,,,,,,,,0.096,0,,,,,,,,,,,,,,,,,,,,,,,,-0.076666667,-0.361111111,0,0,0,,,,,,,BUBBLE,HB,m,y,./images/BUBBLEHB.png,,,,,,,,z,0,0.096,,,,,,,,0,140,140,71,1
,,,,,,,,,,,,,,,,,199999,19,2022-01-29_15h43.45.019,lexical_decision_task_DD_L6,2021.2.3,MacIntel,55.55555556,,,,,,,,,,,0.098,0,,,,,,,,,,,,,,,,,,,,,,,,-0.076666667,-0.361111111,0,0,0,,,,,,,CARPET,HB,z,y,./images/CARPETHB.png,,,,,,,,m,0,0.098,,,,,,,,0,141,141,137,1
,,,,,,,,,,,,,,,,,199999,19,2022-01-29_15h43.45.019,lexical_decision_task_DD_L6,2021.2.3,MacIntel,55.55555556,,,,,,,,,,,0.115,1,,,,,,,,,,,,,,,,,,,,,,,,-0.076666667,-0.361111111,0,0,0,,,,,,,BUTTER,LB,m,y,./images/BUTTERLB.png,,,,,,,,m,1,0.115,,,,,,,,0,142,142,27,1
,,,,,,,,,,,,,,,,,199999,19,2022-01-29_15h43.45.019,lexical_decision_task_DD_L6,2021.2.3,MacIntel,55.55555556,,,,,,,,,,,0.169,0,,,,,,,,,,,,,,,,,,,,,,,,-0.076666667,-0.361111111,0,0,0,,,,,,,CASINO,C,m,y,./images/CASINO.png,,,,,,,,z,0,0.169,,,,,,,,0,143,143,28,1
,,,,,,,,,,,,,,,,,199999,19,2022-01-29_15h43.45.019,lexical_decision_task_DD_L6,2021.2.3,MacIntel,55.55555556,,,,,,,,,,,0.106,1,,,,,,,,,,,,,,,,,,,,,,,,-0.076666667,-0.361111111,0,0,0,,,,,,,MOTOR,C,z,y,./images/MOTOR.png,,,,,,,,z,1,0.106,,,,,,,,0,144,144,97,1
,,,,,,,,,,,,,,,,,199999,19,2022-01-29_15h43.45.019,lexical_decision_task_DD_L6,2021.2.3,MacIntel,55.55555556,,,,,,,,,,,0,0,,,,,,,,,,,,,,,,,,,,,,,,-0.076666667,-0.361111111,0,0,0,,,,,,,THROAT,LB,z,y,./images/THROATLB.png,,,,,,,,m,0,0,,,,,,,,0,145,145,120,1
,,,,,,,,,,,,,,,,,199999,19,2022-01-29_15h43.45.019,lexical_decision_task_DD_L6,2021.2.3,MacIntel,55.55555556,,,,,,,,,,,0.137,1,,,,,,,,,,,,,,,,,,,,,,,,-0.076666667,-0.361111111,0,0,0,,,,,,,SHIELD,LB,m,y,./images/SHIELDLB.png,,,,,,,,m,1,0.137,,,,,,,,0,146,146,48,1
,,,,,,,,,,,,,,,,,199999,19,2022-01-29_15h43.45.019,lexical_decision_task_DD_L6,2021.2.3,MacIntel,55.55555556,,,,,,,,,,,0.185,0,,,,,,,,,,,,,,,,,,,,,,,,-0.076666667,-0.361111111,0,0,0,,,,,,,MUFFIN,C,z,y,./images/MUFFIN.png,,,,,,,,m,0,0.185,,,,,,,,0,147,147,139,1
,,,,,,,,,,,,,,,,,199999,19,2022-01-29_15h43.45.019,lexical_decision_task_DD_L6,2021.2.3,MacIntel,55.55555556,,,,,,,,,,,0.129,0,,,,,,,,,,,,,,,,,,,,,,,,-0.076666667,-0.361111111,0,0,0,,,,,,,LADDER,HB,z,y,./images/LADDERHB.png,,,,,,,,m,0,0.129,,,,,,,,0,148,148,122,1
,,,,,,,,,,,,,,,,,199999,19,2022-01-29_15h43.45.019,lexical_decision_task_DD_L6,2021.2.3,MacIntel,55.55555556,,,,,,,,,,,0.18,1,,,,,,,,,,,,,,,,,,,,,,,,-0.076666667,-0.361111111,0,0,0,,,,,,,WHISKY,HB,m,y,./images/WHISKYHB.png,,,,,,,,m,1,0.18,,,,,,,,0,149,149,83,1
,,,,,,,,,,,,,,,,,199999,19,2022-01-29_15h43.45.019,lexical_decision_task_DD_L6,2021.2.3,MacIntel,55.55555556,,,,,,,,,,,0.087,0,,,,,,,,,,,,,,,,,,,,,,,,-0.076666667,-0.361111111,0,0,0,,,,,,,BARREL,HB,z,y,./images/BARRELHB.png,,,,,,,,m,0,0.087,,,,,,,,0,150,150,116,1
,,,,,,,,,,,,,,,,,199999,19,2022-01-29_15h43.45.019,lexical_decision_task_DD_L6,2021.2.3,MacIntel,55.55555556,,,,,,,,,,,0.044,1,,,,,,,,,,,,,,,,,,,,,,,,-0.076666667,-0.361111111,0,0,0,,,,,,,PISTOL,HB,m,y,./images/PISTOLHB.png,,,,,,,,m,1,0.044,,,,,,,,0,151,151,29,1
,,,,,,,,,,,,,,,,,199999,19,2022-01-29_15h43.45.019,lexical_decision_task_DD_L6,2021.2.3,MacIntel,55.55555556,,,,,,,,,,,0.174,1,,,,,,,,,,,,,,,,,,,,,,,,-0.076666667,-0.361111111,0,0,0,,,,,,,CANOE,C,m,y,./images/CANOE.png,,,,,,,,m,1,0.174,,,,,,,,0,152,152,58,1
,,,,,,,,,,,,,,,,,199999,19,2022-01-29_15h43.45.019,lexical_decision_task_DD_L6,2021.2.3,MacIntel,55.55555556,,,,,,,,,,,0.144,1,,,,,,,,,,,,,,,,,,,,,,,,-0.076666667,-0.361111111,0,0,0,,,,,,,STOOL,C,m,y,./images/STOOL.png,,,,,,,,m,1,0.144,,,,,,,,0,153,153,43,1
,,,,,,,,,,,,,,,,,199999,19,2022-01-29_15h43.45.019,lexical_decision_task_DD_L6,2021.2.3,MacIntel,55.55555556,,,,,,,,,,,0.081,0,,,,,,,,,,,,,,,,,,,,,,,,-0.076666667,-0.361111111,0,0,0,,,,,,,DANCER,LB,m,y,./images/DANCERLB.png,,,,,,,,z,0,0.081,,,,,,,,0,154,154,21,1
,,,,,,,,,,,,,,,,,199999,19,2022-01-29_15h43.45.019,lexical_decision_task_DD_L6,2021.2.3,MacIntel,55.55555556,,,,,,,,,,,0.01,1,,,,,,,,,,,,,,,,,,,,,,,,-0.076666667,-0.361111111,0,0,0,,,,,,,SAUNA,LB,m,y,./images/SAUNALB.png,,,,,,,,m,1,0.01,,,,,,,,0,155,155,33,1
,,,,,,,,,,,,,,,,,199999,19,2022-01-29_15h43.45.019,lexical_decision_task_DD_L6,2021.2.3,MacIntel,55.55555556,,,,,,,,,,,0.089,1,,,,,,,,,,,,,,,,,,,,,,,,-0.076666667,-0.361111111,0,0,0,,,,,,,POSTER,HB,m,y,./images/POSTERHB.png,,,,,,,,m,1,0.089,,,,,,,,0,156,156,53,1
,,,,,,,,,,,,,,,,,199999,19,2022-01-29_15h43.45.019,lexical_decision_task_DD_L6,2021.2.3,MacIntel,55.55555556,,,,,,,,,,,0.068,1,,,,,,,,,,,,,,,,,,,,,,,,-0.076666667,-0.361111111,0,0,0,,,,,,,SNACK,C,z,y,./images/SNACK.png,,,,,,,,z,1,0.068,,,,,,,,0,157,157,157,1
,,,,,,,,,,,,,,,,,199999,19,2022-01-29_15h43.45.019,lexical_decision_task_DD_L6,2021.2.3,MacIntel,55.55555556,,,,,,,,,,,0.029,1,,,,,,,,,,,,,,,,,,,,,,,,-0.076666667,-0.361111111,0,0,0,,,,,,,VALLEY,HB,m,y,./images/VALLEYHB.png,,,,,,,,m,1,0.029,,,,,,,,0,158,158,68,1
,,,,,,,,,,,,,,,,,199999,19,2022-01-29_15h43.45.019,lexical_decision_task_DD_L6,2021.2.3,MacIntel,55.55555556,,,,,,,,,,,0.216,1,,,,,,,,,,,,,,,,,,,,,,,,-0.076666667,-0.361111111,0,0,0,,,,,,,BANNER,C,z,y,./images/BANNER.png,,,,,,,,z,1,0.216,,,,,,,,0,159,159,136,1
,,,,,,,,,,,,,,,,,199999,19,2022-01-29_15h43.45.019,lexical_decision_task_DD_L6,2021.2.3,MacIntel,55.55555556,,,,,,,,,,,0.013,0,,,,,,,,,,,,,,,,,,,,,,,,-0.076666667,-0.361111111,0,0,0,,,,,,,BURIAL,HB,z,y,./images/BURIALHB.png,,,,,,,,m,0,0.013,,,,,,,,0,160,160,143,1
,,,,,,,,,,,,,,,,,199999,19,2022-01-29_15h43.45.019,lexical_decision_task_DD_L6,2021.2.3,MacIntel,55.55555556,,,,,,,,,,,0.14,0,,,,,,,,,,,,,,,,,,,,,,,,-0.076666667,-0.361111111,0,0,0,,,,,,,MIRROR,LB,z,y,./images/MIRRORLB.png,,,,,,,,m,0,0.14,,,,,,,,0,161,161,147,1
,,,,,,,,,,,,,,,,,199999,19,2022-01-29_15h43.45.019,lexical_decision_task_DD_L6,2021.2.3,MacIntel,55.55555556,,,,,,,,,,,0,0,,,,,,,,,,,,,,,,,,,,,,,,-0.076666667,-0.361111111,0,0,0,,,,,,,CLOWN,C,m,y,./images/CLOWN.png,,,,,,,,z,0,0,,,,,,,,0,162,162,22,1
,,,,,,,,,,,,,,,,,199999,19,2022-01-29_15h43.45.019,lexical_decision_task_DD_L6,2021.2.3,MacIntel,55.55555556,,,,,,,,,,,0.038,0,,,,,,,,,,,,,,,,,,,,,,,,-0.076666667,-0.361111111,0,0,0,,,,,,,PARADE,HB,m,y,./images/PARADEHB.png,,,,,,,,z,0,0.038,,,,,,,,0,163,163,17,1
,,,,,,,,,,,,,,,,,199999,19,2022-01-29_15h43.45.019,lexical_decision_task_DD_L6,2021.2.3,MacIntel,55.55555556,,,,,,,,,,,0.001,1,,,,,,,,,,,,,,,,,,,,,,,,-0.076666667,-0.361111111,0,0,0,,,,,,,BERRY,HB,z,y,./images/BERRYHB.png,,,,,,,,z,1,0.001,,,,,,,,0,164,164,131,1
,,,,,,,,,,,,,,,,,199999,19,2022-01-29_15h43.45.019,lexical_decision_task_DD_L6,2021.2.3,MacIntel,55.55555556,,,,,,,,,,,0.061,1,,,,,,,,,,,,,,,,,,,,,,,,-0.076666667,-0.361111111,0,0,0,,,,,,,PACKET,HB,z,y,./images/PACKETHB.png,,,,,,,,z,1,0.061,,,,,,,,0,165,165,140,1
,,,,,,,,,,,,,,,,,199999,19,2022-01-29_15h43.45.019,lexical_decision_task_DD_L6,2021.2.3,MacIntel,55.55555556,,,,,,,,,,,0.758,0,,,,,,,,,,,,,,,,,,,,,,,,-0.076666667,-0.361111111,0,0,0,,,,,,,MOSQUE,C,z,y,./images/MOSQUE.png,,,,,,,,m,0,0.758,,,,,,,,0,166,166,127,1
,,,,,,,,,,,,,,,,,199999,19,2022-01-29_15h43.45.019,lexical_decision_task_DD_L6,2021.2.3,MacIntel,55.55555556,,,,,,,,,,,0.953,1,,,,,,,,,,,,,,,,,,,,,,,,-0.076666667,-0.361111111,0,0,0,,,,,,,MAMMAL,HB,m,y,./images/MAMMALHB.png,,,,,,,,m,1,0.953,,,,,,,,0,167,167,62,1
