key_resp.keys,instr_done_touch.x,instr_done_touch.y,instr_done_touch.leftButton,instr_done_touch.midButton,instr_done_touch.rightButton,instr_done_touch.clicked_name,instruction_pages.thisRepN,instruction_pages.thisTrialN,instruction_pages.thisN,instruction_pages.thisIndex,instruction_pages.ran,pageN,phase,instruct_text,has_image,instruct_image,participant,age,date,expName,psychopyVersion,OS,frameRate,key_resp.rt,response.keys,response.corr,response.rt,touch_resp.x,touch_resp.y,touch_resp.leftButton,touch_resp.midButton,touch_resp.rightButton,touch_resp.time,touch_resp.clicked_name,rt,corr,practrials.thisRepN,practrials.thisTrialN,practrials.thisN,practrials.thisIndex,practrials.ran,TrialID,Target,corrAns,end_of_practice_trials_pages.thisRepN,end_of_practice_trials_pages.thisTrialN,end_of_practice_trials_pages.thisN,end_of_practice_trials_pages.thisIndex,end_of_practice_trials_pages.ran,key_resp_2.keys,key_resp_2.corr,key_resp_2.rt,targ_click.x,targ_click.y,targ_click.leftButton,targ_click.midButton,targ_click.rightButton,targ_click.time,targ_click.clicked_name,break_done_touch.x,break_done_touch.y,break_done_touch.leftButton,break_done_touch.midButton,break_done_touch.rightButton,break_done_keyboard.keys,maintrials.thisRepN,maintrials.thisTrialN,maintrials.thisN,maintrials.thisIndex,maintrials.ran,string,blur,study,lex,stim_path,break_done_keyboard.rt,test_instructions.thisRepN,test_instructions.thisTrialN,test_instructions.thisN,test_instructions.thisIndex,test_instructions.ran,key_resp_3.keys,key_resp_3.corr,key_resp_3.rt,test_click.x,test_click.y,test_click.leftButton,test_click.midButton,test_click.rightButton,test_click.time,test_click.clicked_name,test_phase.thisRepN,test_phase.thisTrialN,test_phase.thisN,test_phase.thisIndex,test_phase.ran
,0.075000014,-0.393518532,1,0,0,instr_done_button,0,0,0,0,1,1,instructions,"INSTRUCTIONS
At the start of each trial, look at the plus sign  (+) in the center of the screen.  This tells you that a trial is about to begin and where to look. Second, the plus sign will disappear and a string of letters will appear. Your task is to determine if the string of letters is a word or not. If the item is a word press the M key (on keyboard)  or touch the word button (phone/tablet).  If the item is not a word,  press the  Z key (on keyboard)  or touch the nonword button (on phone/tablet). 
Press the space bar or touch  continue.",0,,199918,18,2022-01-28_16h44.05.931,lexical_decision_task_DD,2021.2.3,Win32,60.69434329,,,,,,,,,,,,,,,,,,,,,,,,,,,,,,,,,,,,,,,,,,,,,,,,,,,,,,,,,,,,,,,,,,,,,,,,,
space,0.470370391,-0.257407419,0,0,0,,0,1,1,1,1,2,instructions,"If your device has a keyboard, press the 'Z' key for nonwords and the 'M' key for words.





Press the space bar or touch the button below to continue.",0,keyboard-example.gif,199918,18,2022-01-28_16h44.05.931,lexical_decision_task_DD,2021.2.3,Win32,60.69434329,5.5647,,,,,,,,,,,,,,,,,,,,,,,,,,,,,,,,,,,,,,,,,,,,,,,,,,,,,,,,,,,,,,,,,,,,,,,,
space,0.470370391,-0.257407419,0,0,0,,0,2,2,2,1,3,instructions,"If you are using a touchscreen only device, use the buttons on the screen. Do not use the mouse.





Press the space bar or touch the button below to continue.",0,touchscreen-example.gif,199918,18,2022-01-28_16h44.05.931,lexical_decision_task_DD,2021.2.3,Win32,60.69434329,1.455,,,,,,,,,,,,,,,,,,,,,,,,,,,,,,,,,,,,,,,,,,,,,,,,,,,,,,,,,,,,,,,,,,,,,,,,
space,0.470370391,-0.257407419,0,0,0,,0,3,3,3,1,4,instructions,"It is very important that you respond as quickly and accurately as possible, as each letter string will only be on the screen for two seconds. If you do not respond within this time, the message 'Too slow!' will be displayed and the experiment will progress to the next letter string. The first 20 trials will be practice trials and you will receive feedback on your answers. 

Press the space bar or touch the button below to start the practice trials.",0,,199918,18,2022-01-28_16h44.05.931,lexical_decision_task_DD,2021.2.3,Win32,60.69434329,11.1985,,,,,,,,,,,,,,,,,,,,,,,,,,,,,,,,,,,,,,,,,,,,,,,,,,,,,,,,,,,,,,,,,,,,,,,,
,,,,,,,,,,,,,,,,,199918,18,2022-01-28_16h44.05.931,lexical_decision_task_DD,2021.2.3,Win32,60.69434329,,z,1,2.3546,,,,,,,,2.3546,1,0,0,0,15,1,1001,WHAISE,z,,,,,,,,,,,,,,,,,,,,,,,,,,,,,,,,,,,,,,,,,,,,,,,,,,,,
,,,,,,,,,,,,,,,,,199918,18,2022-01-28_16h44.05.931,lexical_decision_task_DD,2021.2.3,Win32,60.69434329,,m,1,1.3195,,,,,,,,1.3195,1,0,1,1,1,1,1001,ADJUST,m,,,,,,,,,,,,,,,,,,,,,,,,,,,,,,,,,,,,,,,,,,,,,,,,,,,,
,,,,,,,,,,,,,,,,,199918,18,2022-01-28_16h44.05.931,lexical_decision_task_DD,2021.2.3,Win32,60.69434329,,z,1,1.4245,,,,,,,,1.4245,1,0,2,2,14,1,1001,THRALE,z,,,,,,,,,,,,,,,,,,,,,,,,,,,,,,,,,,,,,,,,,,,,,,,,,,,,
,,,,,,,,,,,,,,,,,199918,18,2022-01-28_16h44.05.931,lexical_decision_task_DD,2021.2.3,Win32,60.69434329,,z,1,1.1678,,,,,,,,1.1678,1,0,3,3,11,1,1001,RASHET,z,,,,,,,,,,,,,,,,,,,,,,,,,,,,,,,,,,,,,,,,,,,,,,,,,,,,
,,,,,,,,,,,,,,,,,199918,18,2022-01-28_16h44.05.931,lexical_decision_task_DD,2021.2.3,Win32,60.69434329,,m,1,1.0152,,,,,,,,1.0152,1,0,4,4,6,1,1001,ZOMBIE,m,,,,,,,,,,,,,,,,,,,,,,,,,,,,,,,,,,,,,,,,,,,,,,,,,,,,
,,,,,,,,,,,,,,,,,199918,18,2022-01-28_16h44.05.931,lexical_decision_task_DD,2021.2.3,Win32,60.69434329,,z,1,1.0644,,,,,,,,1.0644,1,0,5,5,9,1,1001,FARINY,z,,,,,,,,,,,,,,,,,,,,,,,,,,,,,,,,,,,,,,,,,,,,,,,,,,,,
,,,,,,,,,,,,,,,,,199918,18,2022-01-28_16h44.05.931,lexical_decision_task_DD,2021.2.3,Win32,60.69434329,,m,1,1.2177,,,,,,,,1.2177,1,0,6,6,4,1,1001,SQUEAK,m,,,,,,,,,,,,,,,,,,,,,,,,,,,,,,,,,,,,,,,,,,,,,,,,,,,,
,,,,,,,,,,,,,,,,,199918,18,2022-01-28_16h44.05.931,lexical_decision_task_DD,2021.2.3,Win32,60.69434329,,m,1,1.1503,,,,,,,,1.1503,1,0,7,7,5,1,1001,OBTAIN,m,,,,,,,,,,,,,,,,,,,,,,,,,,,,,,,,,,,,,,,,,,,,,,,,,,,,
,,,,,,,,,,,,,,,,,199918,18,2022-01-28_16h44.05.931,lexical_decision_task_DD,2021.2.3,Win32,60.69434329,,m,1,0.9023,,,,,,,,0.9023,1,0,8,8,2,1,1001,ALMOND,m,,,,,,,,,,,,,,,,,,,,,,,,,,,,,,,,,,,,,,,,,,,,,,,,,,,,
,,,,,,,,,,,,,,,,,199918,18,2022-01-28_16h44.05.931,lexical_decision_task_DD,2021.2.3,Win32,60.69434329,,m,1,1.0555,,,,,,,,1.0555,1,0,9,9,0,1,1001,UTOPIA,m,,,,,,,,,,,,,,,,,,,,,,,,,,,,,,,,,,,,,,,,,,,,,,,,,,,,
,,,,,,,,,,,,,,,,,199918,18,2022-01-28_16h44.05.931,lexical_decision_task_DD,2021.2.3,Win32,60.69434329,,m,1,0.6523,,,,,,,,0.6523,1,0,10,10,7,1,1001,VOLUME,m,,,,,,,,,,,,,,,,,,,,,,,,,,,,,,,,,,,,,,,,,,,,,,,,,,,,
,,,,,,,,,,,,,,,,,199918,18,2022-01-28_16h44.05.931,lexical_decision_task_DD,2021.2.3,Win32,60.69434329,,z,1,0.7671,,,,,,,,0.7671,1,0,11,11,8,1,1001,ASLERT,z,,,,,,,,,,,,,,,,,,,,,,,,,,,,,,,,,,,,,,,,,,,,,,,,,,,,
,,,,,,,,,,,,,,,,,199918,18,2022-01-28_16h44.05.931,lexical_decision_task_DD,2021.2.3,Win32,60.69434329,,m,1,0.686,,,,,,,,0.686,1,0,12,12,3,1,1001,MATRIX,m,,,,,,,,,,,,,,,,,,,,,,,,,,,,,,,,,,,,,,,,,,,,,,,,,,,,
,,,,,,,,,,,,,,,,,199918,18,2022-01-28_16h44.05.931,lexical_decision_task_DD,2021.2.3,Win32,60.69434329,,z,1,0.7271,,,,,,,,0.7271,1,0,13,13,12,1,1001,SPRINY,z,,,,,,,,,,,,,,,,,,,,,,,,,,,,,,,,,,,,,,,,,,,,,,,,,,,,
,,,,,,,,,,,,,,,,,199918,18,2022-01-28_16h44.05.931,lexical_decision_task_DD,2021.2.3,Win32,60.69434329,,z,1,0.8424,,,,,,,,0.8424,1,0,14,14,10,1,1001,INLADE,z,,,,,,,,,,,,,,,,,,,,,,,,,,,,,,,,,,,,,,,,,,,,,,,,,,,,
,,,,,,,,,,,,,,,,,199918,18,2022-01-28_16h44.05.931,lexical_decision_task_DD,2021.2.3,Win32,60.69434329,,z,1,0.9669,,,,,,,,0.9669,1,0,15,15,13,1,1001,ROUPET,z,,,,,,,,,,,,,,,,,,,,,,,,,,,,,,,,,,,,,,,,,,,,,,,,,,,,
space,0.470370391,-0.257407419,0,0,0,,,,,,,1,end_of_practice,"You have completed the practice trials. During the experimental trials, you will not receive feedback. 
Before you begin, please ensure that you are in a comfortable and quiet location and will not be disturbed for about 15 minutes, as we cannot use your data if you do not complete all the trials. 
 When you are ready to start the experimental trials, please press space or touch the button below.",,,199918,18,2022-01-28_16h44.05.931,lexical_decision_task_DD,2021.2.3,Win32,60.69434329,6.5723,,,,,,,,,,,,,,,,,,,,,0,0,0,0,1,,,,,,,,,,,,,,,,,,,,,,,,,,,,,,,,,,,,,,,,,,,,,,,
,,,,,,,,,,,,,,,,,199918,18,2022-01-28_16h44.05.931,lexical_decision_task_DD,2021.2.3,Win32,60.69434329,,,,,,,,,,,,0.7856,1,,,,,,,,,,,,,,z,1,0.7856,,,,,,,,0.470370391,-0.257407419,0,0,0,,0,0,0,144,1,NAIRY,C,old,z,./images/NAIRY.png,,,,,,,,,,,,,,,,,,,,,
,,,,,,,,,,,,,,,,,199918,18,2022-01-28_16h44.05.931,lexical_decision_task_DD,2021.2.3,Win32,60.69434329,,,,,,,,,,,,0.9597,1,,,,,,,,,,,,,,z,1,0.9597,,,,,,,,0.470370391,-0.257407419,0,0,0,,0,1,1,101,1,GLEET,LB,old,z,./images/GLEETLB.png,,,,,,,,,,,,,,,,,,,,,
,,,,,,,,,,,,,,,,,199918,18,2022-01-28_16h44.05.931,lexical_decision_task_DD,2021.2.3,Win32,60.69434329,,,,,,,,,,,,0.8442,1,,,,,,,,,,,,,,m,1,0.8442,,,,,,,,0.470370391,-0.257407419,0,0,0,,0,2,2,9,1,RHINO,C,old,m,./images/RHINO.png,,,,,,,,,,,,,,,,,,,,,
,,,,,,,,,,,,,,,,,199918,18,2022-01-28_16h44.05.931,lexical_decision_task_DD,2021.2.3,Win32,60.69434329,,,,,,,,,,,,2.0714,1,,,,,,,,,,,,,,z,1,2.0714,,,,,,,,0.470370391,-0.257407419,0,0,0,,0,3,3,88,1,GLUSH,HB,old,z,./images/GLUSHHB.png,,,,,,,,,,,,,,,,,,,,,
,,,,,,,,,,,,,,,,,199918,18,2022-01-28_16h44.05.931,lexical_decision_task_DD,2021.2.3,Win32,60.69434329,,,,,,,,,,,,1.3033,1,,,,,,,,,,,,,,z,1,1.3033,,,,,,,,0.470370391,-0.257407419,0,0,0,,0,4,4,94,1,BLANS,HB,old,z,./images/BLANSHB.png,,,,,,,,,,,,,,,,,,,,,
,,,,,,,,,,,,,,,,,199918,18,2022-01-28_16h44.05.931,lexical_decision_task_DD,2021.2.3,Win32,60.69434329,,,,,,,,,,,,1.1263,1,,,,,,,,,,,,,,m,1,1.1263,,,,,,,,0.470370391,-0.257407419,0,0,0,,0,5,5,69,1,COOKER,C,old,m,./images/COOKER.png,,,,,,,,,,,,,,,,,,,,,
,,,,,,,,,,,,,,,,,199918,18,2022-01-28_16h44.05.931,lexical_decision_task_DD,2021.2.3,Win32,60.69434329,,,,,,,,,,,,0.7628,1,,,,,,,,,,,,,,m,1,0.7628,,,,,,,,0.470370391,-0.257407419,0,0,0,,0,6,6,21,1,KIDNEY,C,old,m,./images/KIDNEY.png,,,,,,,,,,,,,,,,,,,,,
,,,,,,,,,,,,,,,,,199918,18,2022-01-28_16h44.05.931,lexical_decision_task_DD,2021.2.3,Win32,60.69434329,,,,,,,,,,,,1.8598,1,,,,,,,,,,,,,,z,1,1.8598,,,,,,,,0.470370391,-0.257407419,0,0,0,,0,7,7,136,1,WERVE,HB,old,z,./images/WERVEHB.png,,,,,,,,,,,,,,,,,,,,,
,,,,,,,,,,,,,,,,,199918,18,2022-01-28_16h44.05.931,lexical_decision_task_DD,2021.2.3,Win32,60.69434329,,,,,,,,,,,,1.2319,1,,,,,,,,,,,,,,m,1,1.2319,,,,,,,,0.470370391,-0.257407419,0,0,0,,0,8,8,62,1,PURSE,LB,old,m,./images/PURSELB.png,,,,,,,,,,,,,,,,,,,,,
,,,,,,,,,,,,,,,,,199918,18,2022-01-28_16h44.05.931,lexical_decision_task_DD,2021.2.3,Win32,60.69434329,,,,,,,,,,,,0.9733,1,,,,,,,,,,,,,,z,1,0.9733,,,,,,,,0.470370391,-0.257407419,0,0,0,,0,9,9,160,1,VEETS,HB,old,z,./images/VEETSHB.png,,,,,,,,,,,,,,,,,,,,,
,,,,,,,,,,,,,,,,,199918,18,2022-01-28_16h44.05.931,lexical_decision_task_DD,2021.2.3,Win32,60.69434329,,,,,,,,,,,,0.8909,1,,,,,,,,,,,,,,m,1,0.8909,,,,,,,,0.470370391,-0.257407419,0,0,0,,0,10,10,76,1,INFANT,HB,old,m,./images/INFANTHB.png,,,,,,,,,,,,,,,,,,,,,
,,,,,,,,,,,,,,,,,199918,18,2022-01-28_16h44.05.931,lexical_decision_task_DD,2021.2.3,Win32,60.69434329,,,,,,,,,,,,0.7384,1,,,,,,,,,,,,,,z,1,0.7384,,,,,,,,0.470370391,-0.257407419,0,0,0,,0,11,11,90,1,NEAST,C,old,z,./images/NEAST.png,,,,,,,,,,,,,,,,,,,,,
,,,,,,,,,,,,,,,,,199918,18,2022-01-28_16h44.05.931,lexical_decision_task_DD,2021.2.3,Win32,60.69434329,,,,,,,,,,,,1.6041,1,,,,,,,,,,,,,,z,1,1.6041,,,,,,,,0.470370391,-0.257407419,0,0,0,,0,12,12,118,1,BAVEL,HB,old,z,./images/BAVELHB.png,,,,,,,,,,,,,,,,,,,,,
,,,,,,,,,,,,,,,,,199918,18,2022-01-28_16h44.05.931,lexical_decision_task_DD,2021.2.3,Win32,60.69434329,,,,,,,,,,,,1.1784,1,,,,,,,,,,,,,,m,1,1.1784,,,,,,,,0.470370391,-0.257407419,0,0,0,,0,13,13,81,1,POODLE,C,old,m,./images/POODLE.png,,,,,,,,,,,,,,,,,,,,,
,,,,,,,,,,,,,,,,,199918,18,2022-01-28_16h44.05.931,lexical_decision_task_DD,2021.2.3,Win32,60.69434329,,,,,,,,,,,,0.7524,1,,,,,,,,,,,,,,m,1,0.7524,,,,,,,,0.470370391,-0.257407419,0,0,0,,0,14,14,83,1,JUNGLE,LB,old,m,./images/JUNGLELB.png,,,,,,,,,,,,,,,,,,,,,
,,,,,,,,,,,,,,,,,199918,18,2022-01-28_16h44.05.931,lexical_decision_task_DD,2021.2.3,Win32,60.69434329,,,,,,,,,,,,0.9072,1,,,,,,,,,,,,,,m,1,0.9072,,,,,,,,0.470370391,-0.257407419,0,0,0,,0,15,15,73,1,SNACK,HB,old,m,./images/SNACKHB.png,,,,,,,,,,,,,,,,,,,,,
,,,,,,,,,,,,,,,,,199918,18,2022-01-28_16h44.05.931,lexical_decision_task_DD,2021.2.3,Win32,60.69434329,,,,,,,,,,,,0.8811,1,,,,,,,,,,,,,,m,1,0.8811,,,,,,,,0.470370391,-0.257407419,0,0,0,,0,16,16,79,1,CRUST,HB,old,m,./images/CRUSTHB.png,,,,,,,,,,,,,,,,,,,,,
,,,,,,,,,,,,,,,,,199918,18,2022-01-28_16h44.05.931,lexical_decision_task_DD,2021.2.3,Win32,60.69434329,,,,,,,,,,,,0.644,1,,,,,,,,,,,,,,m,1,0.644,,,,,,,,0.470370391,-0.257407419,0,0,0,,0,17,17,11,1,BONNET,LB,old,m,./images/BONNETLB.png,,,,,,,,,,,,,,,,,,,,,
,,,,,,,,,,,,,,,,,199918,18,2022-01-28_16h44.05.931,lexical_decision_task_DD,2021.2.3,Win32,60.69434329,,,,,,,,,,,,0.7592,1,,,,,,,,,,,,,,z,1,0.7592,,,,,,,,0.470370391,-0.257407419,0,0,0,,0,18,18,138,1,PLICE,C,old,z,./images/PLICE.png,,,,,,,,,,,,,,,,,,,,,
,,,,,,,,,,,,,,,,,199918,18,2022-01-28_16h44.05.931,lexical_decision_task_DD,2021.2.3,Win32,60.69434329,,,,,,,,,,,,0.8008,1,,,,,,,,,,,,,,z,1,0.8008,,,,,,,,0.470370391,-0.257407419,0,0,0,,0,19,19,122,1,BLOOT,LB,old,z,./images/BLOOTLB.png,,,,,,,,,,,,,,,,,,,,,
,,,,,,,,,,,,,,,,,199918,18,2022-01-28_16h44.05.931,lexical_decision_task_DD,2021.2.3,Win32,60.69434329,,,,,,,,,,,,1.0368,1,,,,,,,,,,,,,,z,1,1.0368,,,,,,,,0.470370391,-0.257407419,0,0,0,,0,20,20,132,1,SCIFF,C,old,z,./images/SCIFF.png,,,,,,,,,,,,,,,,,,,,,
,,,,,,,,,,,,,,,,,199918,18,2022-01-28_16h44.05.931,lexical_decision_task_DD,2021.2.3,Win32,60.69434329,,,,,,,,,,,,0.7229,1,,,,,,,,,,,,,,m,1,0.7229,,,,,,,,0.470370391,-0.257407419,0,0,0,,0,21,21,32,1,BARREL,LB,old,m,./images/BARRELLB.png,,,,,,,,,,,,,,,,,,,,,
,,,,,,,,,,,,,,,,,199918,18,2022-01-28_16h44.05.931,lexical_decision_task_DD,2021.2.3,Win32,60.69434329,,,,,,,,,,,,0.6377,1,,,,,,,,,,,,,,z,1,0.6377,,,,,,,,0.470370391,-0.257407419,0,0,0,,0,22,22,119,1,PAFER,LB,old,z,./images/PAFERLB.png,,,,,,,,,,,,,,,,,,,,,
,,,,,,,,,,,,,,,,,199918,18,2022-01-28_16h44.05.931,lexical_decision_task_DD,2021.2.3,Win32,60.69434329,,,,,,,,,,,,0.6941,1,,,,,,,,,,,,,,m,1,0.6941,,,,,,,,0.470370391,-0.257407419,0,0,0,,0,23,23,39,1,SHELF,C,old,m,./images/SHELF.png,,,,,,,,,,,,,,,,,,,,,
,,,,,,,,,,,,,,,,,199918,18,2022-01-28_16h44.05.931,lexical_decision_task_DD,2021.2.3,Win32,60.69434329,,,,,,,,,,,,0.7947,1,,,,,,,,,,,,,,z,1,0.7947,,,,,,,,0.470370391,-0.257407419,0,0,0,,0,24,24,105,1,MOKER,C,old,z,./images/MOKER.png,,,,,,,,,,,,,,,,,,,,,
,,,,,,,,,,,,,,,,,199918,18,2022-01-28_16h44.05.931,lexical_decision_task_DD,2021.2.3,Win32,60.69434329,,,,,,,,,,,,0.9013,1,,,,,,,,,,,,,,z,1,0.9013,,,,,,,,0.470370391,-0.257407419,0,0,0,,0,25,25,125,1,MOOKY,LB,old,z,./images/MOOKYLB.png,,,,,,,,,,,,,,,,,,,,,
,,,,,,,,,,,,,,,,,199918,18,2022-01-28_16h44.05.931,lexical_decision_task_DD,2021.2.3,Win32,60.69434329,,,,,,,,,,,,0.5998,1,,,,,,,,,,,,,,m,1,0.5998,,,,,,,,0.470370391,-0.257407419,0,0,0,,0,26,26,41,1,STRING,LB,old,m,./images/STRINGLB.png,,,,,,,,,,,,,,,,,,,,,
,,,,,,,,,,,,,,,,,199918,18,2022-01-28_16h44.05.931,lexical_decision_task_DD,2021.2.3,Win32,60.69434329,,,,,,,,,,,,0.6344,1,,,,,,,,,,,,,,z,1,0.6344,,,,,,,,0.470370391,-0.257407419,0,0,0,,0,27,27,140,1,DOVET,LB,old,z,./images/DOVETLB.png,,,,,,,,,,,,,,,,,,,,,
,,,,,,,,,,,,,,,,,199918,18,2022-01-28_16h44.05.931,lexical_decision_task_DD,2021.2.3,Win32,60.69434329,,,,,,,,,,,,0.819,1,,,,,,,,,,,,,,m,1,0.819,,,,,,,,0.470370391,-0.257407419,0,0,0,,0,28,28,17,1,SKIING,LB,old,m,./images/SKIINGLB.png,,,,,,,,,,,,,,,,,,,,,
,,,,,,,,,,,,,,,,,199918,18,2022-01-28_16h44.05.931,lexical_decision_task_DD,2021.2.3,Win32,60.69434329,,,,,,,,,,,,0.6765,1,,,,,,,,,,,,,,m,1,0.6765,,,,,,,,0.470370391,-0.257407419,0,0,0,,0,29,29,57,1,MOOSE,C,old,m,./images/MOOSE.png,,,,,,,,,,,,,,,,,,,,,
,,,,,,,,,,,,,,,,,199918,18,2022-01-28_16h44.05.931,lexical_decision_task_DD,2021.2.3,Win32,60.69434329,,,,,,,,,,,,0.7849,1,,,,,,,,,,,,,,z,1,0.7849,,,,,,,,0.470370391,-0.257407419,0,0,0,,0,30,30,116,1,BALGY,LB,old,z,./images/BALGYLB.png,,,,,,,,,,,,,,,,,,,,,
,,,,,,,,,,,,,,,,,199918,18,2022-01-28_16h44.05.931,lexical_decision_task_DD,2021.2.3,Win32,60.69434329,,,,,,,,,,,,1.2476,1,,,,,,,,,,,,,,z,1,1.2476,,,,,,,,0.470370391,-0.257407419,0,0,0,,0,31,31,86,1,AIFED,LB,old,z,./images/AIFEDLB.png,,,,,,,,,,,,,,,,,,,,,
,,,,,,,,,,,,,,,,,199918,18,2022-01-28_16h44.05.931,lexical_decision_task_DD,2021.2.3,Win32,60.69434329,,,,,,,,,,,,0.6181,1,,,,,,,,,,,,,,m,1,0.6181,,,,,,,,0.470370391,-0.257407419,0,0,0,,0,32,32,5,1,PASTA,LB,old,m,./images/PASTALB.png,,,,,,,,,,,,,,,,,,,,,
,,,,,,,,,,,,,,,,,199918,18,2022-01-28_16h44.05.931,lexical_decision_task_DD,2021.2.3,Win32,60.69434329,,,,,,,,,,,,0.547,1,,,,,,,,,,,,,,z,1,0.547,,,,,,,,0.470370391,-0.257407419,0,0,0,,0,33,33,123,1,SEDGE,C,old,z,./images/SEDGE.png,,,,,,,,,,,,,,,,,,,,,
,,,,,,,,,,,,,,,,,199918,18,2022-01-28_16h44.05.931,lexical_decision_task_DD,2021.2.3,Win32,60.69434329,,,,,,,,,,,,0.8709,1,,,,,,,,,,,,,,z,1,0.8709,,,,,,,,0.470370391,-0.257407419,0,0,0,,0,34,34,147,1,ZOLES,C,old,z,./images/ZOLES.png,,,,,,,,,,,,,,,,,,,,,
,,,,,,,,,,,,,,,,,199918,18,2022-01-28_16h44.05.931,lexical_decision_task_DD,2021.2.3,Win32,60.69434329,,,,,,,,,,,,0.8269,1,,,,,,,,,,,,,,m,1,0.8269,,,,,,,,0.470370391,-0.257407419,0,0,0,,0,35,35,13,1,MOTOR,HB,old,m,./images/MOTORHB.png,,,,,,,,,,,,,,,,,,,,,
,,,,,,,,,,,,,,,,,199918,18,2022-01-28_16h44.05.931,lexical_decision_task_DD,2021.2.3,Win32,60.69434329,,,,,,,,,,,,0.8678,1,,,,,,,,,,,,,,z,1,0.8678,,,,,,,,0.470370391,-0.257407419,0,0,0,,0,36,36,121,1,CEERS,HB,old,z,./images/CEERSHB.png,,,,,,,,,,,,,,,,,,,,,
,,,,,,,,,,,,,,,,,199918,18,2022-01-28_16h44.05.931,lexical_decision_task_DD,2021.2.3,Win32,60.69434329,,,,,,,,,,,,0.7224,1,,,,,,,,,,,,,,z,1,0.7224,,,,,,,,0.470370391,-0.257407419,0,0,0,,0,37,37,113,1,LINEW,LB,old,z,./images/LINEWLB.png,,,,,,,,,,,,,,,,,,,,,
,,,,,,,,,,,,,,,,,199918,18,2022-01-28_16h44.05.931,lexical_decision_task_DD,2021.2.3,Win32,60.69434329,,,,,,,,,,,,0.8565,1,,,,,,,,,,,,,,z,1,0.8565,,,,,,,,0.470370391,-0.257407419,0,0,0,,0,38,38,157,1,INLER,HB,old,z,./images/INLERHB.png,,,,,,,,,,,,,,,,,,,,,
,,,,,,,,,,,,,,,,,199918,18,2022-01-28_16h44.05.931,lexical_decision_task_DD,2021.2.3,Win32,60.69434329,,,,,,,,,,,,2.0591,1,,,,,,,,,,,,,,z,1,2.0591,,,,,,,,0.470370391,-0.257407419,0,0,0,,0,39,39,163,1,GAMBA,HB,old,z,./images/GAMBAHB.png,,,,,,,,,,,,,,,,,,,,,
,,,,,,,,,,,,,,,,,199918,18,2022-01-28_16h44.05.931,lexical_decision_task_DD,2021.2.3,Win32,60.69434329,,,,,,,,,,,,0.6547,1,,,,,,,,,,,,,,m,1,0.6547,,,,,,,,0.470370391,-0.257407419,0,0,0,,0,40,40,2,1,BEARD,LB,old,m,./images/BEARDLB.png,,,,,,,,,,,,,,,,,,,,,
,,,,,,,,,,,,,,,,,199918,18,2022-01-28_16h44.05.931,lexical_decision_task_DD,2021.2.3,Win32,60.69434329,,,,,,,,,,,,2.322,1,,,,,,,,,,,,,,z,1,2.322,,,,,,,,0.470370391,-0.257407419,0,0,0,space,0,41,41,106,1,CLUMS,HB,old,z,./images/CLUMSHB.png,3.668,,,,,,,,,,,,,,,,,,,,
,,,,,,,,,,,,,,,,,199918,18,2022-01-28_16h44.05.931,lexical_decision_task_DD,2021.2.3,Win32,60.69434329,,,,,,,,,,,,1.5733,1,,,,,,,,,,,,,,z,1,1.5733,,,,,,,,0.470370391,-0.257407419,0,0,0,,0,42,42,124,1,TUNCH,HB,old,z,./images/TUNCHHB.png,,,,,,,,,,,,,,,,,,,,,
,,,,,,,,,,,,,,,,,199918,18,2022-01-28_16h44.05.931,lexical_decision_task_DD,2021.2.3,Win32,60.69434329,,,,,,,,,,,,0.7655,1,,,,,,,,,,,,,,z,1,0.7655,,,,,,,,0.470370391,-0.257407419,0,0,0,,0,43,43,146,1,MOOST,LB,old,z,./images/MOOSTLB.png,,,,,,,,,,,,,,,,,,,,,
,,,,,,,,,,,,,,,,,199918,18,2022-01-28_16h44.05.931,lexical_decision_task_DD,2021.2.3,Win32,60.69434329,,,,,,,,,,,,0.8537,1,,,,,,,,,,,,,,m,1,0.8537,,,,,,,,0.470370391,-0.257407419,0,0,0,,0,44,44,23,1,WALRUS,LB,old,m,./images/WALRUSLB.png,,,,,,,,,,,,,,,,,,,,,
,,,,,,,,,,,,,,,,,199918,18,2022-01-28_16h44.05.931,lexical_decision_task_DD,2021.2.3,Win32,60.69434329,,,,,,,,,,,,0.5886,1,,,,,,,,,,,,,,z,1,0.5886,,,,,,,,0.470370391,-0.257407419,0,0,0,,0,45,45,128,1,GRIFT,LB,old,z,./images/GRIFTLB.png,,,,,,,,,,,,,,,,,,,,,
,,,,,,,,,,,,,,,,,199918,18,2022-01-28_16h44.05.931,lexical_decision_task_DD,2021.2.3,Win32,60.69434329,,,,,,,,,,,,1.1152,1,,,,,,,,,,,,,,m,1,1.1152,,,,,,,,0.470370391,-0.257407419,0,0,0,,0,46,46,50,1,MALLET,LB,old,m,./images/MALLETLB.png,,,,,,,,,,,,,,,,,,,,,
,,,,,,,,,,,,,,,,,199918,18,2022-01-28_16h44.05.931,lexical_decision_task_DD,2021.2.3,Win32,60.69434329,,,,,,,,,,,,1.3676,1,,,,,,,,,,,,,,z,1,1.3676,,,,,,,,0.470370391,-0.257407419,0,0,0,,0,47,47,97,1,CHIDS,HB,old,z,./images/CHIDSHB.png,,,,,,,,,,,,,,,,,,,,,
,,,,,,,,,,,,,,,,,199918,18,2022-01-28_16h44.05.931,lexical_decision_task_DD,2021.2.3,Win32,60.69434329,,,,,,,,,,,,0.7252,1,,,,,,,,,,,,,,z,1,0.7252,,,,,,,,0.470370391,-0.257407419,0,0,0,,0,48,48,159,1,CUDDY,C,old,z,./images/CUDDY.png,,,,,,,,,,,,,,,,,,,,,
,,,,,,,,,,,,,,,,,199918,18,2022-01-28_16h44.05.931,lexical_decision_task_DD,2021.2.3,Win32,60.69434329,,,,,,,,,,,,0.6166,1,,,,,,,,,,,,,,z,1,0.6166,,,,,,,,0.470370391,-0.257407419,0,0,0,,0,49,49,117,1,STEEG,C,old,z,./images/STEEG.png,,,,,,,,,,,,,,,,,,,,,
,,,,,,,,,,,,,,,,,199918,18,2022-01-28_16h44.05.931,lexical_decision_task_DD,2021.2.3,Win32,60.69434329,,,,,,,,,,,,0.9462,1,,,,,,,,,,,,,,m,1,0.9462,,,,,,,,0.470370391,-0.257407419,0,0,0,,0,50,50,45,1,KITTEN,C,old,m,./images/KITTEN.png,,,,,,,,,,,,,,,,,,,,,
,,,,,,,,,,,,,,,,,199918,18,2022-01-28_16h44.05.931,lexical_decision_task_DD,2021.2.3,Win32,60.69434329,,,,,,,,,,,,1.236,1,,,,,,,,,,,,,,z,1,1.236,,,,,,,,0.470370391,-0.257407419,0,0,0,,0,51,51,133,1,POWDY,HB,old,z,./images/POWDYHB.png,,,,,,,,,,,,,,,,,,,,,
,,,,,,,,,,,,,,,,,199918,18,2022-01-28_16h44.05.931,lexical_decision_task_DD,2021.2.3,Win32,60.69434329,,,,,,,,,,,,0.9055,0,,,,,,,,,,,,,,z,0,0.9055,,,,,,,,0.470370391,-0.257407419,0,0,0,,0,52,52,16,1,PENCE,HB,old,m,./images/PENCEHB.png,,,,,,,,,,,,,,,,,,,,,
,,,,,,,,,,,,,,,,,199918,18,2022-01-28_16h44.05.931,lexical_decision_task_DD,2021.2.3,Win32,60.69434329,,,,,,,,,,,,0.6234,1,,,,,,,,,,,,,,m,1,0.6234,,,,,,,,0.470370391,-0.257407419,0,0,0,,0,53,53,38,1,LADDER,LB,old,m,./images/LADDERLB.png,,,,,,,,,,,,,,,,,,,,,
,,,,,,,,,,,,,,,,,199918,18,2022-01-28_16h44.05.931,lexical_decision_task_DD,2021.2.3,Win32,60.69434329,,,,,,,,,,,,0.7686,1,,,,,,,,,,,,,,m,1,0.7686,,,,,,,,0.470370391,-0.257407419,0,0,0,,0,54,54,56,1,PACKET,LB,old,m,./images/PACKETLB.png,,,,,,,,,,,,,,,,,,,,,
,,,,,,,,,,,,,,,,,199918,18,2022-01-28_16h44.05.931,lexical_decision_task_DD,2021.2.3,Win32,60.69434329,,,,,,,,,,,,1.3104,1,,,,,,,,,,,,,,z,1,1.3104,,,,,,,,0.470370391,-0.257407419,0,0,0,,0,55,55,103,1,FLORT,HB,old,z,./images/FLORTHB.png,,,,,,,,,,,,,,,,,,,,,
,,,,,,,,,,,,,,,,,199918,18,2022-01-28_16h44.05.931,lexical_decision_task_DD,2021.2.3,Win32,60.69434329,,,,,,,,,,,,1.2724,1,,,,,,,,,,,,,,m,1,1.2724,,,,,,,,0.470370391,-0.257407419,0,0,0,,0,56,56,34,1,CANYON,HB,old,m,./images/CANYONHB.png,,,,,,,,,,,,,,,,,,,,,
,,,,,,,,,,,,,,,,,199918,18,2022-01-28_16h44.05.931,lexical_decision_task_DD,2021.2.3,Win32,60.69434329,,,,,,,,,,,,0.6865,1,,,,,,,,,,,,,,m,1,0.6865,,,,,,,,0.470370391,-0.257407419,0,0,0,,0,57,57,68,1,TORCH,LB,old,m,./images/TORCHLB.png,,,,,,,,,,,,,,,,,,,,,
,,,,,,,,,,,,,,,,,199918,18,2022-01-28_16h44.05.931,lexical_decision_task_DD,2021.2.3,Win32,60.69434329,,,,,,,,,,,,0.8226,0,,,,,,,,,,,,,,z,0,0.8226,,,,,,,,0.470370391,-0.257407419,0,0,0,,0,58,58,67,1,SAILOR,HB,old,m,./images/SAILORHB.png,,,,,,,,,,,,,,,,,,,,,
,,,,,,,,,,,,,,,,,199918,18,2022-01-28_16h44.05.931,lexical_decision_task_DD,2021.2.3,Win32,60.69434329,,,,,,,,,,,,0.5582,0,,,,,,,,,,,,,,m,0,0.5582,,,,,,,,0.470370391,-0.257407419,0,0,0,,0,59,59,141,1,PLEET,C,old,z,./images/PLEET.png,,,,,,,,,,,,,,,,,,,,,
,,,,,,,,,,,,,,,,,199918,18,2022-01-28_16h44.05.931,lexical_decision_task_DD,2021.2.3,Win32,60.69434329,,,,,,,,,,,,0.6889,1,,,,,,,,,,,,,,m,1,0.6889,,,,,,,,0.470370391,-0.257407419,0,0,0,,0,60,60,78,1,LITTER,C,old,m,./images/LITTER.png,,,,,,,,,,,,,,,,,,,,,
,,,,,,,,,,,,,,,,,199918,18,2022-01-28_16h44.05.931,lexical_decision_task_DD,2021.2.3,Win32,60.69434329,,,,,,,,,,,,1.1781,1,,,,,,,,,,,,,,z,1,1.1781,,,,,,,,0.470370391,-0.257407419,0,0,0,,0,61,61,142,1,PLASK,HB,old,z,./images/PLASKHB.png,,,,,,,,,,,,,,,,,,,,,
,,,,,,,,,,,,,,,,,199918,18,2022-01-28_16h44.05.931,lexical_decision_task_DD,2021.2.3,Win32,60.69434329,,,,,,,,,,,,2.2032,1,,,,,,,,,,,,,,m,1,2.2032,,,,,,,,0.470370391,-0.257407419,0,0,0,,0,62,62,31,1,QUILL,HB,old,m,./images/QUILLHB.png,,,,,,,,,,,,,,,,,,,,,
,,,,,,,,,,,,,,,,,199918,18,2022-01-28_16h44.05.931,lexical_decision_task_DD,2021.2.3,Win32,60.69434329,,,,,,,,,,,,1.6979,1,,,,,,,,,,,,,,m,1,1.6979,,,,,,,,0.470370391,-0.257407419,0,0,0,,0,63,63,22,1,MELON,HB,old,m,./images/MELONHB.png,,,,,,,,,,,,,,,,,,,,,
,,,,,,,,,,,,,,,,,199918,18,2022-01-28_16h44.05.931,lexical_decision_task_DD,2021.2.3,Win32,60.69434329,,,,,,,,,,,,0.6776,1,,,,,,,,,,,,,,m,1,0.6776,,,,,,,,0.470370391,-0.257407419,0,0,0,,0,64,64,66,1,SWEAT,C,old,m,./images/SWEAT.png,,,,,,,,,,,,,,,,,,,,,
,,,,,,,,,,,,,,,,,199918,18,2022-01-28_16h44.05.931,lexical_decision_task_DD,2021.2.3,Win32,60.69434329,,,,,,,,,,,,0.7336,1,,,,,,,,,,,,,,m,1,0.7336,,,,,,,,0.470370391,-0.257407419,0,0,0,,0,65,65,7,1,PAINT,HB,old,m,./images/PAINTHB.png,,,,,,,,,,,,,,,,,,,,,
,,,,,,,,,,,,,,,,,199918,18,2022-01-28_16h44.05.931,lexical_decision_task_DD,2021.2.3,Win32,60.69434329,,,,,,,,,,,,1.0754,1,,,,,,,,,,,,,,m,1,1.0754,,,,,,,,0.470370391,-0.257407419,0,0,0,,0,66,66,46,1,PEARL,HB,old,m,./images/PEARLHB.png,,,,,,,,,,,,,,,,,,,,,
,,,,,,,,,,,,,,,,,199918,18,2022-01-28_16h44.05.931,lexical_decision_task_DD,2021.2.3,Win32,60.69434329,,,,,,,,,,,,0.7254,1,,,,,,,,,,,,,,z,1,0.7254,,,,,,,,0.470370391,-0.257407419,0,0,0,,0,67,67,99,1,BACKY,C,old,z,./images/BACKY.png,,,,,,,,,,,,,,,,,,,,,
,,,,,,,,,,,,,,,,,199918,18,2022-01-28_16h44.05.931,lexical_decision_task_DD,2021.2.3,Win32,60.69434329,,,,,,,,,,,,0.7803,1,,,,,,,,,,,,,,m,1,0.7803,,,,,,,,0.470370391,-0.257407419,0,0,0,,0,68,68,36,1,THROAT,C,old,m,./images/THROAT.png,,,,,,,,,,,,,,,,,,,,,
,,,,,,,,,,,,,,,,,199918,18,2022-01-28_16h44.05.931,lexical_decision_task_DD,2021.2.3,Win32,60.69434329,,,,,,,,,,,,2.2357,1,,,,,,,,,,,,,,z,1,2.2357,,,,,,,,0.470370391,-0.257407419,0,0,0,,0,69,69,100,1,DRIBS,HB,old,z,./images/DRIBSHB.png,,,,,,,,,,,,,,,,,,,,,
,,,,,,,,,,,,,,,,,199918,18,2022-01-28_16h44.05.931,lexical_decision_task_DD,2021.2.3,Win32,60.69434329,,,,,,,,,,,,0.7907,1,,,,,,,,,,,,,,m,1,0.7907,,,,,,,,0.470370391,-0.257407419,0,0,0,,0,70,70,49,1,DRUMS,HB,old,m,./images/DRUMSHB.png,,,,,,,,,,,,,,,,,,,,,
,,,,,,,,,,,,,,,,,199918,18,2022-01-28_16h44.05.931,lexical_decision_task_DD,2021.2.3,Win32,60.69434329,,,,,,,,,,,,0.9262,1,,,,,,,,,,,,,,z,1,0.9262,,,,,,,,0.470370391,-0.257407419,0,0,0,,0,71,71,150,1,NOOLS,C,old,z,./images/NOOLS.png,,,,,,,,,,,,,,,,,,,,,
,,,,,,,,,,,,,,,,,199918,18,2022-01-28_16h44.05.931,lexical_decision_task_DD,2021.2.3,Win32,60.69434329,,,,,,,,,,,,0.8113,1,,,,,,,,,,,,,,m,1,0.8113,,,,,,,,0.470370391,-0.257407419,0,0,0,,0,72,72,35,1,PEACH,LB,old,m,./images/PEACHLB.png,,,,,,,,,,,,,,,,,,,,,
,,,,,,,,,,,,,,,,,199918,18,2022-01-28_16h44.05.931,lexical_decision_task_DD,2021.2.3,Win32,60.69434329,,,,,,,,,,,,0.7606,1,,,,,,,,,,,,,,m,1,0.7606,,,,,,,,0.470370391,-0.257407419,0,0,0,,0,73,73,48,1,SPORT,C,old,m,./images/SPORT.png,,,,,,,,,,,,,,,,,,,,,
,,,,,,,,,,,,,,,,,199918,18,2022-01-28_16h44.05.931,lexical_decision_task_DD,2021.2.3,Win32,60.69434329,,,,,,,,,,,,1.2875,1,,,,,,,,,,,,,,z,1,1.2875,,,,,,,,0.470370391,-0.257407419,0,0,0,,0,74,74,145,1,LAMEL,HB,old,z,./images/LAMELHB.png,,,,,,,,,,,,,,,,,,,,,
,,,,,,,,,,,,,,,,,199918,18,2022-01-28_16h44.05.931,lexical_decision_task_DD,2021.2.3,Win32,60.69434329,,,,,,,,,,,,0.6445,1,,,,,,,,,,,,,,m,1,0.6445,,,,,,,,0.470370391,-0.257407419,0,0,0,,0,75,75,53,1,CARPET,LB,old,m,./images/CARPETLB.png,,,,,,,,,,,,,,,,,,,,,
,,,,,,,,,,,,,,,,,199918,18,2022-01-28_16h44.05.931,lexical_decision_task_DD,2021.2.3,Win32,60.69434329,,,,,,,,,,,,0.818,1,,,,,,,,,,,,,,m,1,0.818,,,,,,,,0.470370391,-0.257407419,0,0,0,,0,76,76,42,1,FOLDER,C,old,m,./images/FOLDER.png,,,,,,,,,,,,,,,,,,,,,
,,,,,,,,,,,,,,,,,199918,18,2022-01-28_16h44.05.931,lexical_decision_task_DD,2021.2.3,Win32,60.69434329,,,,,,,,,,,,1.132,1,,,,,,,,,,,,,,z,1,1.132,,,,,,,,0.470370391,-0.257407419,0,0,0,,0,77,77,85,1,CHULK,HB,old,z,./images/CHULKHB.png,,,,,,,,,,,,,,,,,,,,,
,,,,,,,,,,,,,,,,,199918,18,2022-01-28_16h44.05.931,lexical_decision_task_DD,2021.2.3,Win32,60.69434329,,,,,,,,,,,,0.597,1,,,,,,,,,,,,,,z,1,0.597,,,,,,,,0.470370391,-0.257407419,0,0,0,,0,78,78,87,1,TRING,C,old,z,./images/TRING.png,,,,,,,,,,,,,,,,,,,,,
,,,,,,,,,,,,,,,,,199918,18,2022-01-28_16h44.05.931,lexical_decision_task_DD,2021.2.3,Win32,60.69434329,,,,,,,,,,,,0.9802,1,,,,,,,,,,,,,,m,1,0.9802,,,,,,,,0.470370391,-0.257407419,0,0,0,,0,79,79,4,1,MUSCLE,HB,old,m,./images/MUSCLEHB.png,,,,,,,,,,,,,,,,,,,,,
,,,,,,,,,,,,,,,,,199918,18,2022-01-28_16h44.05.931,lexical_decision_task_DD,2021.2.3,Win32,60.69434329,,,,,,,,,,,,0.7513,1,,,,,,,,,,,,,,z,1,0.7513,,,,,,,,0.470370391,-0.257407419,0,0,0,,0,80,80,167,1,ZONET,LB,old,z,./images/ZONETLB.png,,,,,,,,,,,,,,,,,,,,,
,,,,,,,,,,,,,,,,,199918,18,2022-01-28_16h44.05.931,lexical_decision_task_DD,2021.2.3,Win32,60.69434329,,,,,,,,,,,,0.8204,1,,,,,,,,,,,,,,z,1,0.8204,,,,,,,,0.470370391,-0.257407419,0,0,0,,0,81,81,134,1,TROSS,LB,old,z,./images/TROSSLB.png,,,,,,,,,,,,,,,,,,,,,
,,,,,,,,,,,,,,,,,199918,18,2022-01-28_16h44.05.931,lexical_decision_task_DD,2021.2.3,Win32,60.69434329,,,,,,,,,,,,0.9795,1,,,,,,,,,,,,,,m,1,0.9795,,,,,,,,0.470370391,-0.257407419,0,0,0,,0,82,82,28,1,FALCON,HB,old,m,./images/FALCONHB.png,,,,,,,,,,,,,,,,,,,,,
,,,,,,,,,,,,,,,,,199918,18,2022-01-28_16h44.05.931,lexical_decision_task_DD,2021.2.3,Win32,60.69434329,,,,,,,,,,,,1.2002,1,,,,,,,,,,,,,,m,1,1.2002,,,,,,,,0.470370391,-0.257407419,0,0,0,space,0,83,83,43,1,MOSQUE,HB,old,m,./images/MOSQUEHB.png,4.0694,,,,,,,,,,,,,,,,,,,,
,,,,,,,,,,,,,,,,,199918,18,2022-01-28_16h44.05.931,lexical_decision_task_DD,2021.2.3,Win32,60.69434329,,,,,,,,,,,,0.6859,1,,,,,,,,,,,,,,z,1,0.6859,,,,,,,,0.470370391,-0.257407419,0,0,0,,0,84,84,110,1,CRUNK,LB,old,z,./images/CRUNKLB.png,,,,,,,,,,,,,,,,,,,,,
,,,,,,,,,,,,,,,,,199918,18,2022-01-28_16h44.05.931,lexical_decision_task_DD,2021.2.3,Win32,60.69434329,,,,,,,,,,,,0.5509,1,,,,,,,,,,,,,,z,1,0.5509,,,,,,,,0.470370391,-0.257407419,0,0,0,,0,85,85,108,1,GRUET,C,old,z,./images/GRUET.png,,,,,,,,,,,,,,,,,,,,,
,,,,,,,,,,,,,,,,,199918,18,2022-01-28_16h44.05.931,lexical_decision_task_DD,2021.2.3,Win32,60.69434329,,,,,,,,,,,,1.0094,1,,,,,,,,,,,,,,z,1,1.0094,,,,,,,,0.470370391,-0.257407419,0,0,0,,0,86,86,130,1,CRILL,HB,old,z,./images/CRILLHB.png,,,,,,,,,,,,,,,,,,,,,
,,,,,,,,,,,,,,,,,199918,18,2022-01-28_16h44.05.931,lexical_decision_task_DD,2021.2.3,Win32,60.69434329,,,,,,,,,,,,0.7698,1,,,,,,,,,,,,,,z,1,0.7698,,,,,,,,0.470370391,-0.257407419,0,0,0,,0,87,87,151,1,TINKY,HB,old,z,./images/TINKYHB.png,,,,,,,,,,,,,,,,,,,,,
,,,,,,,,,,,,,,,,,199918,18,2022-01-28_16h44.05.931,lexical_decision_task_DD,2021.2.3,Win32,60.69434329,,,,,,,,,,,,0.6608,1,,,,,,,,,,,,,,m,1,0.6608,,,,,,,,0.470370391,-0.257407419,0,0,0,,0,88,88,54,1,TRIPOD,C,old,m,./images/TRIPOD.png,,,,,,,,,,,,,,,,,,,,,
,,,,,,,,,,,,,,,,,199918,18,2022-01-28_16h44.05.931,lexical_decision_task_DD,2021.2.3,Win32,60.69434329,,,,,,,,,,,,0.5986,1,,,,,,,,,,,,,,z,1,0.5986,,,,,,,,0.470370391,-0.257407419,0,0,0,,0,89,89,96,1,KEAMS,C,old,z,./images/KEAMS.png,,,,,,,,,,,,,,,,,,,,,
,,,,,,,,,,,,,,,,,199918,18,2022-01-28_16h44.05.931,lexical_decision_task_DD,2021.2.3,Win32,60.69434329,,,,,,,,,,,,0.7286,1,,,,,,,,,,,,,,m,1,0.7286,,,,,,,,0.470370391,-0.257407419,0,0,0,,0,90,90,51,1,ONION,C,old,m,./images/ONION.png,,,,,,,,,,,,,,,,,,,,,
,,,,,,,,,,,,,,,,,199918,18,2022-01-28_16h44.05.931,lexical_decision_task_DD,2021.2.3,Win32,60.69434329,,,,,,,,,,,,0.9449,1,,,,,,,,,,,,,,z,1,0.9449,,,,,,,,0.470370391,-0.257407419,0,0,0,,0,91,91,137,1,JOOST,LB,old,z,./images/JOOSTLB.png,,,,,,,,,,,,,,,,,,,,,
,,,,,,,,,,,,,,,,,199918,18,2022-01-28_16h44.05.931,lexical_decision_task_DD,2021.2.3,Win32,60.69434329,,,,,,,,,,,,0.6514,1,,,,,,,,,,,,,,m,1,0.6514,,,,,,,,0.470370391,-0.257407419,0,0,0,,0,92,92,29,1,CRUMB,LB,old,m,./images/CRUMBLB.png,,,,,,,,,,,,,,,,,,,,,
,,,,,,,,,,,,,,,,,199918,18,2022-01-28_16h44.05.931,lexical_decision_task_DD,2021.2.3,Win32,60.69434329,,,,,,,,,,,,0.5867,1,,,,,,,,,,,,,,m,1,0.5867,,,,,,,,0.470370391,-0.257407419,0,0,0,,0,93,93,27,1,ATTIC,C,old,m,./images/ATTIC.png,,,,,,,,,,,,,,,,,,,,,
,,,,,,,,,,,,,,,,,199918,18,2022-01-28_16h44.05.931,lexical_decision_task_DD,2021.2.3,Win32,60.69434329,,,,,,,,,,,,1.2434,1,,,,,,,,,,,,,,z,1,1.2434,,,,,,,,0.470370391,-0.257407419,0,0,0,,0,94,94,127,1,NINDY,HB,old,z,./images/NINDYHB.png,,,,,,,,,,,,,,,,,,,,,
,,,,,,,,,,,,,,,,,199918,18,2022-01-28_16h44.05.931,lexical_decision_task_DD,2021.2.3,Win32,60.69434329,,,,,,,,,,,,1.4026,1,,,,,,,,,,,,,,z,1,1.4026,,,,,,,,0.470370391,-0.257407419,0,0,0,,0,95,95,149,1,VEASE,LB,old,z,./images/VEASELB.png,,,,,,,,,,,,,,,,,,,,,
,,,,,,,,,,,,,,,,,199918,18,2022-01-28_16h44.05.931,lexical_decision_task_DD,2021.2.3,Win32,60.69434329,,,,,,,,,,,,0.5732,1,,,,,,,,,,,,,,z,1,0.5732,,,,,,,,0.470370391,-0.257407419,0,0,0,,0,96,96,120,1,RINED,C,old,z,./images/RINED.png,,,,,,,,,,,,,,,,,,,,,
,,,,,,,,,,,,,,,,,199918,18,2022-01-28_16h44.05.931,lexical_decision_task_DD,2021.2.3,Win32,60.69434329,,,,,,,,,,,,0.8265,1,,,,,,,,,,,,,,z,1,0.8265,,,,,,,,0.470370391,-0.257407419,0,0,0,,0,97,97,92,1,PAIMS,LB,old,z,./images/PAIMSLB.png,,,,,,,,,,,,,,,,,,,,,
,,,,,,,,,,,,,,,,,199918,18,2022-01-28_16h44.05.931,lexical_decision_task_DD,2021.2.3,Win32,60.69434329,,,,,,,,,,,,0.5545,1,,,,,,,,,,,,,,z,1,0.5545,,,,,,,,0.470370391,-0.257407419,0,0,0,,0,98,98,156,1,HIXES,C,old,z,./images/HIXES.png,,,,,,,,,,,,,,,,,,,,,
,,,,,,,,,,,,,,,,,199918,18,2022-01-28_16h44.05.931,lexical_decision_task_DD,2021.2.3,Win32,60.69434329,,,,,,,,,,,,0.661,1,,,,,,,,,,,,,,m,1,0.661,,,,,,,,0.470370391,-0.257407419,0,0,0,,0,99,99,63,1,MIRROR,C,old,m,./images/MIRROR.png,,,,,,,,,,,,,,,,,,,,,
,,,,,,,,,,,,,,,,,199918,18,2022-01-28_16h44.05.931,lexical_decision_task_DD,2021.2.3,Win32,60.69434329,,,,,,,,,,,,0.7022,1,,,,,,,,,,,,,,z,1,0.7022,,,,,,,,0.470370391,-0.257407419,0,0,0,,0,100,100,154,1,THINT,HB,old,z,./images/THINTHB.png,,,,,,,,,,,,,,,,,,,,,
,,,,,,,,,,,,,,,,,199918,18,2022-01-28_16h44.05.931,lexical_decision_task_DD,2021.2.3,Win32,60.69434329,,,,,,,,,,,,0.8985,0,,,,,,,,,,,,,,m,0,0.8985,,,,,,,,0.470370391,-0.257407419,0,0,0,,0,101,101,166,1,SHORY,HB,old,z,./images/SHORYHB.png,,,,,,,,,,,,,,,,,,,,,
,,,,,,,,,,,,,,,,,199918,18,2022-01-28_16h44.05.931,lexical_decision_task_DD,2021.2.3,Win32,60.69434329,,,,,,,,,,,,0.5342,1,,,,,,,,,,,,,,z,1,0.5342,,,,,,,,0.470370391,-0.257407419,0,0,0,,0,102,102,152,1,FRAIN,LB,old,z,./images/FRAINLB.png,,,,,,,,,,,,,,,,,,,,,
,,,,,,,,,,,,,,,,,199918,18,2022-01-28_16h44.05.931,lexical_decision_task_DD,2021.2.3,Win32,60.69434329,,,,,,,,,,,,0.9179,1,,,,,,,,,,,,,,m,1,0.9179,,,,,,,,0.470370391,-0.257407419,0,0,0,,0,103,103,82,1,SUNSET,HB,old,m,./images/SUNSETHB.png,,,,,,,,,,,,,,,,,,,,,
,,,,,,,,,,,,,,,,,199918,18,2022-01-28_16h44.05.931,lexical_decision_task_DD,2021.2.3,Win32,60.69434329,,,,,,,,,,,,0.5854,1,,,,,,,,,,,,,,z,1,0.5854,,,,,,,,0.470370391,-0.257407419,0,0,0,,0,104,104,95,1,HANTY,LB,old,z,./images/HANTYLB.png,,,,,,,,,,,,,,,,,,,,,
,,,,,,,,,,,,,,,,,199918,18,2022-01-28_16h44.05.931,lexical_decision_task_DD,2021.2.3,Win32,60.69434329,,,,,,,,,,,,1.3297,1,,,,,,,,,,,,,,m,1,1.3297,,,,,,,,0.470370391,-0.257407419,0,0,0,,0,105,105,65,1,FARMER,LB,old,m,./images/FARMERLB.png,,,,,,,,,,,,,,,,,,,,,
,,,,,,,,,,,,,,,,,199918,18,2022-01-28_16h44.05.931,lexical_decision_task_DD,2021.2.3,Win32,60.69434329,,,,,,,,,,,,0.9173,1,,,,,,,,,,,,,,m,1,0.9173,,,,,,,,0.470370391,-0.257407419,0,0,0,,0,106,106,40,1,SWING,HB,old,m,./images/SWINGHB.png,,,,,,,,,,,,,,,,,,,,,
,,,,,,,,,,,,,,,,,199918,18,2022-01-28_16h44.05.931,lexical_decision_task_DD,2021.2.3,Win32,60.69434329,,,,,,,,,,,,0.6231,1,,,,,,,,,,,,,,m,1,0.6231,,,,,,,,0.470370391,-0.257407419,0,0,0,,0,107,107,15,1,GREASE,C,old,m,./images/GREASE.png,,,,,,,,,,,,,,,,,,,,,
,,,,,,,,,,,,,,,,,199918,18,2022-01-28_16h44.05.931,lexical_decision_task_DD,2021.2.3,Win32,60.69434329,,,,,,,,,,,,1.7113,1,,,,,,,,,,,,,,m,1,1.7113,,,,,,,,0.470370391,-0.257407419,0,0,0,,0,108,108,33,1,MAGGOT,C,old,m,./images/MAGGOT.png,,,,,,,,,,,,,,,,,,,,,
,,,,,,,,,,,,,,,,,199918,18,2022-01-28_16h44.05.931,lexical_decision_task_DD,2021.2.3,Win32,60.69434329,,,,,,,,,,,,1.4561,1,,,,,,,,,,,,,,z,1,1.4561,,,,,,,,0.470370391,-0.257407419,0,0,0,,0,109,109,148,1,JOMS,HB,old,z,./images/JOMSHB.png,,,,,,,,,,,,,,,,,,,,,
,,,,,,,,,,,,,,,,,199918,18,2022-01-28_16h44.05.931,lexical_decision_task_DD,2021.2.3,Win32,60.69434329,,,,,,,,,,,,0.6245,1,,,,,,,,,,,,,,m,1,0.6245,,,,,,,,0.470370391,-0.257407419,0,0,0,,0,110,110,59,1,BURIAL,LB,old,m,./images/BURIALLB.png,,,,,,,,,,,,,,,,,,,,,
,,,,,,,,,,,,,,,,,199918,18,2022-01-28_16h44.05.931,lexical_decision_task_DD,2021.2.3,Win32,60.69434329,,,,,,,,,,,,0.8098,1,,,,,,,,,,,,,,z,1,0.8098,,,,,,,,0.470370391,-0.257407419,0,0,0,,0,111,111,153,1,CLUPS,C,old,z,./images/CLUPS.png,,,,,,,,,,,,,,,,,,,,,
,,,,,,,,,,,,,,,,,199918,18,2022-01-28_16h44.05.931,lexical_decision_task_DD,2021.2.3,Win32,60.69434329,,,,,,,,,,,,0.7336,1,,,,,,,,,,,,,,z,1,0.7336,,,,,,,,0.470370391,-0.257407419,0,0,0,,0,112,112,111,1,HOSSE,C,old,z,./images/HOSSE.png,,,,,,,,,,,,,,,,,,,,,
,,,,,,,,,,,,,,,,,199918,18,2022-01-28_16h44.05.931,lexical_decision_task_DD,2021.2.3,Win32,60.69434329,,,,,,,,,,,,0.579,1,,,,,,,,,,,,,,m,1,0.579,,,,,,,,0.470370391,-0.257407419,0,0,0,,0,113,113,75,1,GRAIN,C,old,m,./images/GRAIN.png,,,,,,,,,,,,,,,,,,,,,
,,,,,,,,,,,,,,,,,199918,18,2022-01-28_16h44.05.931,lexical_decision_task_DD,2021.2.3,Win32,60.69434329,,,,,,,,,,,,1.0017,1,,,,,,,,,,,,,,m,1,1.0017,,,,,,,,0.470370391,-0.257407419,0,0,0,,0,114,114,24,1,SCREW,C,old,m,./images/SCREW.png,,,,,,,,,,,,,,,,,,,,,
,,,,,,,,,,,,,,,,,199918,18,2022-01-28_16h44.05.931,lexical_decision_task_DD,2021.2.3,Win32,60.69434329,,,,,,,,,,,,0.6585,1,,,,,,,,,,,,,,m,1,0.6585,,,,,,,,0.470370391,-0.257407419,0,0,0,,0,115,115,12,1,SHORE,C,old,m,./images/SHORE.png,,,,,,,,,,,,,,,,,,,,,
,,,,,,,,,,,,,,,,,199918,18,2022-01-28_16h44.05.931,lexical_decision_task_DD,2021.2.3,Win32,60.69434329,,,,,,,,,,,,0.9721,1,,,,,,,,,,,,,,z,1,0.9721,,,,,,,,0.470370391,-0.257407419,0,0,0,,0,116,116,164,1,SGREW,LB,old,z,./images/SGREWLB.png,,,,,,,,,,,,,,,,,,,,,
,,,,,,,,,,,,,,,,,199918,18,2022-01-28_16h44.05.931,lexical_decision_task_DD,2021.2.3,Win32,60.69434329,,,,,,,,,,,,0.5734,1,,,,,,,,,,,,,,m,1,0.5734,,,,,,,,0.470370391,-0.257407419,0,0,0,,0,117,117,77,1,COUCH,LB,old,m,./images/COUCHLB.png,,,,,,,,,,,,,,,,,,,,,
,,,,,,,,,,,,,,,,,199918,18,2022-01-28_16h44.05.931,lexical_decision_task_DD,2021.2.3,Win32,60.69434329,,,,,,,,,,,,0.4745,0,,,,,,,,,,,,,,z,0,0.4745,,,,,,,,0.470370391,-0.257407419,0,0,0,,0,118,118,14,1,PICKLE,LB,old,m,./images/PICKLELB.png,,,,,,,,,,,,,,,,,,,,,
,,,,,,,,,,,,,,,,,199918,18,2022-01-28_16h44.05.931,lexical_decision_task_DD,2021.2.3,Win32,60.69434329,,,,,,,,,,,,1.2226,1,,,,,,,,,,,,,,m,1,1.2226,,,,,,,,0.470370391,-0.257407419,0,0,0,,0,119,119,47,1,BERRY,LB,old,m,./images/BERRYLB.png,,,,,,,,,,,,,,,,,,,,,
,,,,,,,,,,,,,,,,,199918,18,2022-01-28_16h44.05.931,lexical_decision_task_DD,2021.2.3,Win32,60.69434329,,,,,,,,,,,,0.8266,1,,,,,,,,,,,,,,m,1,0.8266,,,,,,,,0.470370391,-0.257407419,0,0,0,,0,120,120,25,1,WRIST,HB,old,m,./images/WRISTHB.png,,,,,,,,,,,,,,,,,,,,,
,,,,,,,,,,,,,,,,,199918,18,2022-01-28_16h44.05.931,lexical_decision_task_DD,2021.2.3,Win32,60.69434329,,,,,,,,,,,,0.5814,1,,,,,,,,,,,,,,z,1,0.5814,,,,,,,,0.470370391,-0.257407419,0,0,0,,0,121,121,135,1,JOODY,C,old,z,./images/JOODY.png,,,,,,,,,,,,,,,,,,,,,
,,,,,,,,,,,,,,,,,199918,18,2022-01-28_16h44.05.931,lexical_decision_task_DD,2021.2.3,Win32,60.69434329,,,,,,,,,,,,1.1835,1,,,,,,,,,,,,,,m,1,1.1835,,,,,,,,0.470370391,-0.257407419,0,0,0,,0,122,122,64,1,JELLY,HB,old,m,./images/JELLYHB.png,,,,,,,,,,,,,,,,,,,,,
,,,,,,,,,,,,,,,,,199918,18,2022-01-28_16h44.05.931,lexical_decision_task_DD,2021.2.3,Win32,60.69434329,,,,,,,,,,,,0.9208,1,,,,,,,,,,,,,,m,1,0.9208,,,,,,,,0.470370391,-0.257407419,0,0,0,,0,123,123,61,1,CANDLE,HB,old,m,./images/CANDLEHB.png,,,,,,,,,,,,,,,,,,,,,
,,,,,,,,,,,,,,,,,199918,18,2022-01-28_16h44.05.931,lexical_decision_task_DD,2021.2.3,Win32,60.69434329,,,,,,,,,,,,0.851,1,,,,,,,,,,,,,,m,1,0.851,,,,,,,,0.470370391,-0.257407419,0,0,0,,0,124,124,70,1,URINE,HB,old,m,./images/URINEHB.png,,,,,,,,,,,,,,,,,,,,,
,,,,,,,,,,,,,,,,,199918,18,2022-01-28_16h44.05.931,lexical_decision_task_DD,2021.2.3,Win32,60.69434329,,,,,,,,,,,,1.004,1,,,,,,,,,,,,,,z,1,1.004,,,,,,,,0.470370391,-0.257407419,0,0,0,space,0,125,125,107,1,FASKS,LB,old,z,./images/FASKSLB.png,2.0874,,,,,,,,,,,,,,,,,,,,
,,,,,,,,,,,,,,,,,199918,18,2022-01-28_16h44.05.931,lexical_decision_task_DD,2021.2.3,Win32,60.69434329,,,,,,,,,,,,0.751,1,,,,,,,,,,,,,,m,1,0.751,,,,,,,,0.470370391,-0.257407419,0,0,0,,0,126,126,74,1,CEMENT,LB,old,m,./images/CEMENTLB.png,,,,,,,,,,,,,,,,,,,,,
,,,,,,,,,,,,,,,,,199918,18,2022-01-28_16h44.05.931,lexical_decision_task_DD,2021.2.3,Win32,60.69434329,,,,,,,,,,,,1.4698,1,,,,,,,,,,,,,,z,1,1.4698,,,,,,,,0.470370391,-0.257407419,0,0,0,,0,127,127,91,1,SHENS,HB,old,z,./images/SHENSHB.png,,,,,,,,,,,,,,,,,,,,,
,,,,,,,,,,,,,,,,,199918,18,2022-01-28_16h44.05.931,lexical_decision_task_DD,2021.2.3,Win32,60.69434329,,,,,,,,,,,,0.7842,1,,,,,,,,,,,,,,z,1,0.7842,,,,,,,,0.470370391,-0.257407419,0,0,0,,0,128,128,139,1,BLEAR,HB,old,z,./images/BLEARHB.png,,,,,,,,,,,,,,,,,,,,,
,,,,,,,,,,,,,,,,,199918,18,2022-01-28_16h44.05.931,lexical_decision_task_DD,2021.2.3,Win32,60.69434329,,,,,,,,,,,,1.2788,1,,,,,,,,,,,,,,z,1,1.2788,,,,,,,,0.470370391,-0.257407419,0,0,0,,0,129,129,98,1,BAMPS,LB,old,z,./images/BAMPSLB.png,,,,,,,,,,,,,,,,,,,,,
,,,,,,,,,,,,,,,,,199918,18,2022-01-28_16h44.05.931,lexical_decision_task_DD,2021.2.3,Win32,60.69434329,,,,,,,,,,,,2.6337,1,,,,,,,,,,,,,,m,1,2.6337,,,,,,,,0.470370391,-0.257407419,0,0,0,,0,130,130,52,1,BANNER,HB,old,m,./images/BANNERHB.png,,,,,,,,,,,,,,,,,,,,,
,,,,,,,,,,,,,,,,,199918,18,2022-01-28_16h44.05.931,lexical_decision_task_DD,2021.2.3,Win32,60.69434329,,,,,,,,,,,,0.868,1,,,,,,,,,,,,,,z,1,0.868,,,,,,,,0.470370391,-0.257407419,0,0,0,,0,131,131,155,1,CANGY,LB,old,z,./images/CANGYLB.png,,,,,,,,,,,,,,,,,,,,,
,,,,,,,,,,,,,,,,,199918,18,2022-01-28_16h44.05.931,lexical_decision_task_DD,2021.2.3,Win32,60.69434329,,,,,,,,,,,,0.5774,1,,,,,,,,,,,,,,m,1,0.5774,,,,,,,,0.470370391,-0.257407419,0,0,0,,0,132,132,60,1,TWINS,C,old,m,./images/TWINS.png,,,,,,,,,,,,,,,,,,,,,
,,,,,,,,,,,,,,,,,199918,18,2022-01-28_16h44.05.931,lexical_decision_task_DD,2021.2.3,Win32,60.69434329,,,,,,,,,,,,1.2845,1,,,,,,,,,,,,,,z,1,1.2845,,,,,,,,0.470370391,-0.257407419,0,0,0,,0,133,133,112,1,MYING,HB,old,z,./images/MYINGHB.png,,,,,,,,,,,,,,,,,,,,,
,,,,,,,,,,,,,,,,,199918,18,2022-01-28_16h44.05.931,lexical_decision_task_DD,2021.2.3,Win32,60.69434329,,,,,,,,,,,,0.7098,1,,,,,,,,,,,,,,m,1,0.7098,,,,,,,,0.470370391,-0.257407419,0,0,0,,0,134,134,55,1,MUFFIN,HB,old,m,./images/MUFFINHB.png,,,,,,,,,,,,,,,,,,,,,
,,,,,,,,,,,,,,,,,199918,18,2022-01-28_16h44.05.931,lexical_decision_task_DD,2021.2.3,Win32,60.69434329,,,,,,,,,,,,1.1407,1,,,,,,,,,,,,,,m,1,1.1407,,,,,,,,0.470370391,-0.257407419,0,0,0,,0,135,135,8,1,TULIP,LB,old,m,./images/TULIPLB.png,,,,,,,,,,,,,,,,,,,,,
,,,,,,,,,,,,,,,,,199918,18,2022-01-28_16h44.05.931,lexical_decision_task_DD,2021.2.3,Win32,60.69434329,,,,,,,,,,,,0.8363,1,,,,,,,,,,,,,,m,1,0.8363,,,,,,,,0.470370391,-0.257407419,0,0,0,,0,136,136,20,1,CRADLE,LB,old,m,./images/CRADLELB.png,,,,,,,,,,,,,,,,,,,,,
,,,,,,,,,,,,,,,,,199918,18,2022-01-28_16h44.05.931,lexical_decision_task_DD,2021.2.3,Win32,60.69434329,,,,,,,,,,,,0.5447,1,,,,,,,,,,,,,,m,1,0.5447,,,,,,,,0.470370391,-0.257407419,0,0,0,,0,137,137,30,1,STORM,C,old,m,./images/STORM.png,,,,,,,,,,,,,,,,,,,,,
,,,,,,,,,,,,,,,,,199918,18,2022-01-28_16h44.05.931,lexical_decision_task_DD,2021.2.3,Win32,60.69434329,,,,,,,,,,,,1.1675,1,,,,,,,,,,,,,,m,1,1.1675,,,,,,,,0.470370391,-0.257407419,0,0,0,,0,138,138,10,1,BELLY,HB,old,m,./images/BELLYHB.png,,,,,,,,,,,,,,,,,,,,,
,,,,,,,,,,,,,,,,,199918,18,2022-01-28_16h44.05.931,lexical_decision_task_DD,2021.2.3,Win32,60.69434329,,,,,,,,,,,,0.8712,1,,,,,,,,,,,,,,z,1,0.8712,,,,,,,,0.470370391,-0.257407419,0,0,0,,0,139,139,114,1,RIKES,C,old,z,./images/RIKES.png,,,,,,,,,,,,,,,,,,,,,
,,,,,,,,,,,,,,,,,199918,18,2022-01-28_16h44.05.931,lexical_decision_task_DD,2021.2.3,Win32,60.69434329,,,,,,,,,,,,0.7035,1,,,,,,,,,,,,,,z,1,0.7035,,,,,,,,0.470370391,-0.257407419,0,0,0,,0,140,140,89,1,DRIEK,LB,old,z,./images/DRIEKLB.png,,,,,,,,,,,,,,,,,,,,,
,,,,,,,,,,,,,,,,,199918,18,2022-01-28_16h44.05.931,lexical_decision_task_DD,2021.2.3,Win32,60.69434329,,,,,,,,,,,,0.7643,1,,,,,,,,,,,,,,z,1,0.7643,,,,,,,,0.470370391,-0.257407419,0,0,0,,0,141,141,165,1,TROWN,C,old,z,./images/TROWN.png,,,,,,,,,,,,,,,,,,,,,
,,,,,,,,,,,,,,,,,199918,18,2022-01-28_16h44.05.931,lexical_decision_task_DD,2021.2.3,Win32,60.69434329,,,,,,,,,,,,1.4559,0,,,,,,,,,,,,,,z,0,1.4559,,,,,,,,0.470370391,-0.257407419,0,0,0,,0,142,142,1,1,PLANK,HB,old,m,./images/PLANKHB.png,,,,,,,,,,,,,,,,,,,,,
,,,,,,,,,,,,,,,,,199918,18,2022-01-28_16h44.05.931,lexical_decision_task_DD,2021.2.3,Win32,60.69434329,,,,,,,,,,,,0.6717,1,,,,,,,,,,,,,,z,1,0.6717,,,,,,,,0.470370391,-0.257407419,0,0,0,,0,143,143,104,1,GITTY,LB,old,z,./images/GITTYLB.png,,,,,,,,,,,,,,,,,,,,,
,,,,,,,,,,,,,,,,,199918,18,2022-01-28_16h44.05.931,lexical_decision_task_DD,2021.2.3,Win32,60.69434329,,,,,,,,,,,,0.578,1,,,,,,,,,,,,,,m,1,0.578,,,,,,,,0.470370391,-0.257407419,0,0,0,,0,144,144,80,1,WEASEL,LB,old,m,./images/WEASELLB.png,,,,,,,,,,,,,,,,,,,,,
,,,,,,,,,,,,,,,,,199918,18,2022-01-28_16h44.05.931,lexical_decision_task_DD,2021.2.3,Win32,60.69434329,,,,,,,,,,,,0.6867,1,,,,,,,,,,,,,,z,1,0.6867,,,,,,,,0.470370391,-0.257407419,0,0,0,,0,145,145,158,1,EGECT,LB,old,z,./images/EGECTLB.png,,,,,,,,,,,,,,,,,,,,,
,,,,,,,,,,,,,,,,,199918,18,2022-01-28_16h44.05.931,lexical_decision_task_DD,2021.2.3,Win32,60.69434329,,,,,,,,,,,,1.3715,1,,,,,,,,,,,,,,m,1,1.3715,,,,,,,,0.470370391,-0.257407419,0,0,0,,0,146,146,19,1,DOUGH,HB,old,m,./images/DOUGHHB.png,,,,,,,,,,,,,,,,,,,,,
,,,,,,,,,,,,,,,,,199918,18,2022-01-28_16h44.05.931,lexical_decision_task_DD,2021.2.3,Win32,60.69434329,,,,,,,,,,,,0.6257,1,,,,,,,,,,,,,,m,1,0.6257,,,,,,,,0.470370391,-0.257407419,0,0,0,,0,147,147,3,1,FINGER,C,old,m,./images/FINGER.png,,,,,,,,,,,,,,,,,,,,,
,,,,,,,,,,,,,,,,,199918,18,2022-01-28_16h44.05.931,lexical_decision_task_DD,2021.2.3,Win32,60.69434329,,,,,,,,,,,,0.5843,1,,,,,,,,,,,,,,z,1,0.5843,,,,,,,,0.470370391,-0.257407419,0,0,0,,0,148,148,161,1,BLAPS,LB,old,z,./images/BLAPSLB.png,,,,,,,,,,,,,,,,,,,,,
,,,,,,,,,,,,,,,,,199918,18,2022-01-28_16h44.05.931,lexical_decision_task_DD,2021.2.3,Win32,60.69434329,,,,,,,,,,,,0.5768,1,,,,,,,,,,,,,,z,1,0.5768,,,,,,,,0.470370391,-0.257407419,0,0,0,,0,149,149,162,1,LEICH,C,old,z,./images/LEICH.png,,,,,,,,,,,,,,,,,,,,,
,,,,,,,,,,,,,,,,,199918,18,2022-01-28_16h44.05.931,lexical_decision_task_DD,2021.2.3,Win32,60.69434329,,,,,,,,,,,,0.6843,1,,,,,,,,,,,,,,z,1,0.6843,,,,,,,,0.470370391,-0.257407419,0,0,0,,0,150,150,93,1,SMONE,C,old,z,./images/SMONE.png,,,,,,,,,,,,,,,,,,,,,
,,,,,,,,,,,,,,,,,199918,18,2022-01-28_16h44.05.931,lexical_decision_task_DD,2021.2.3,Win32,60.69434329,,,,,,,,,,,,1.3558,1,,,,,,,,,,,,,,z,1,1.3558,,,,,,,,0.470370391,-0.257407419,0,0,0,,0,151,151,115,1,MAWNS,HB,old,z,./images/MAWNSHB.png,,,,,,,,,,,,,,,,,,,,,
,,,,,,,,,,,,,,,,,199918,18,2022-01-28_16h44.05.931,lexical_decision_task_DD,2021.2.3,Win32,60.69434329,,,,,,,,,,,,0.8923,1,,,,,,,,,,,,,,z,1,0.8923,,,,,,,,0.470370391,-0.257407419,0,0,0,,0,152,152,109,1,BURGE,HB,old,z,./images/BURGEHB.png,,,,,,,,,,,,,,,,,,,,,
,,,,,,,,,,,,,,,,,199918,18,2022-01-28_16h44.05.931,lexical_decision_task_DD,2021.2.3,Win32,60.69434329,,,,,,,,,,,,0.5123,1,,,,,,,,,,,,,,z,1,0.5123,,,,,,,,0.470370391,-0.257407419,0,0,0,,0,153,153,102,1,DULLE,C,old,z,./images/DULLE.png,,,,,,,,,,,,,,,,,,,,,
,,,,,,,,,,,,,,,,,199918,18,2022-01-28_16h44.05.931,lexical_decision_task_DD,2021.2.3,Win32,60.69434329,,,,,,,,,,,,0.4812,1,,,,,,,,,,,,,,z,1,0.4812,,,,,,,,0.470370391,-0.257407419,0,0,0,,0,154,154,129,1,PRANS,C,old,z,./images/PRANS.png,,,,,,,,,,,,,,,,,,,,,
,,,,,,,,,,,,,,,,,199918,18,2022-01-28_16h44.05.931,lexical_decision_task_DD,2021.2.3,Win32,60.69434329,,,,,,,,,,,,0.5321,0,,,,,,,,,,,,,,z,0,0.5321,,,,,,,,0.470370391,-0.257407419,0,0,0,,0,155,155,72,1,NOOSE,C,old,m,./images/NOOSE.png,,,,,,,,,,,,,,,,,,,,,
,,,,,,,,,,,,,,,,,199918,18,2022-01-28_16h44.05.931,lexical_decision_task_DD,2021.2.3,Win32,60.69434329,,,,,,,,,,,,0.9405,1,,,,,,,,,,,,,,m,1,0.9405,,,,,,,,0.470370391,-0.257407419,0,0,0,,0,156,156,58,1,BABOON,HB,old,m,./images/BABOONHB.png,,,,,,,,,,,,,,,,,,,,,
,,,,,,,,,,,,,,,,,199918,18,2022-01-28_16h44.05.931,lexical_decision_task_DD,2021.2.3,Win32,60.69434329,,,,,,,,,,,,0.623,1,,,,,,,,,,,,,,m,1,0.623,,,,,,,,0.470370391,-0.257407419,0,0,0,,0,157,157,26,1,SMOKER,LB,old,m,./images/SMOKERLB.png,,,,,,,,,,,,,,,,,,,,,
,,,,,,,,,,,,,,,,,199918,18,2022-01-28_16h44.05.931,lexical_decision_task_DD,2021.2.3,Win32,60.69434329,,,,,,,,,,,,0.516,1,,,,,,,,,,,,,,m,1,0.516,,,,,,,,0.470370391,-0.257407419,0,0,0,,0,158,158,0,1,TOMATO,C,old,m,./images/TOMATO.png,,,,,,,,,,,,,,,,,,,,,
,,,,,,,,,,,,,,,,,199918,18,2022-01-28_16h44.05.931,lexical_decision_task_DD,2021.2.3,Win32,60.69434329,,,,,,,,,,,,0.6781,1,,,,,,,,,,,,,,z,1,0.6781,,,,,,,,0.470370391,-0.257407419,0,0,0,,0,159,159,84,1,HAXES,C,old,z,./images/HAXES.png,,,,,,,,,,,,,,,,,,,,,
,,,,,,,,,,,,,,,,,199918,18,2022-01-28_16h44.05.931,lexical_decision_task_DD,2021.2.3,Win32,60.69434329,,,,,,,,,,,,0.8043,1,,,,,,,,,,,,,,z,1,0.8043,,,,,,,,0.470370391,-0.257407419,0,0,0,,0,160,160,131,1,NACES,LB,old,z,./images/NACESLB.png,,,,,,,,,,,,,,,,,,,,,
,,,,,,,,,,,,,,,,,199918,18,2022-01-28_16h44.05.931,lexical_decision_task_DD,2021.2.3,Win32,60.69434329,,,,,,,,,,,,0.5264,1,,,,,,,,,,,,,,z,1,0.5264,,,,,,,,0.470370391,-0.257407419,0,0,0,,0,161,161,126,1,GUELS,C,old,z,./images/GUELS.png,,,,,,,,,,,,,,,,,,,,,
,,,,,,,,,,,,,,,,,199918,18,2022-01-28_16h44.05.931,lexical_decision_task_DD,2021.2.3,Win32,60.69434329,,,,,,,,,,,,0.6762,1,,,,,,,,,,,,,,m,1,0.6762,,,,,,,,0.470370391,-0.257407419,0,0,0,,0,162,162,71,1,PIMPLE,LB,old,m,./images/PIMPLELB.png,,,,,,,,,,,,,,,,,,,,,
,,,,,,,,,,,,,,,,,199918,18,2022-01-28_16h44.05.931,lexical_decision_task_DD,2021.2.3,Win32,60.69434329,,,,,,,,,,,,0.696,1,,,,,,,,,,,,,,m,1,0.696,,,,,,,,0.470370391,-0.257407419,0,0,0,,0,163,163,44,1,LIZARD,LB,old,m,./images/LIZARDLB.png,,,,,,,,,,,,,,,,,,,,,
,,,,,,,,,,,,,,,,,199918,18,2022-01-28_16h44.05.931,lexical_decision_task_DD,2021.2.3,Win32,60.69434329,,,,,,,,,,,,0.7237,1,,,,,,,,,,,,,,m,1,0.7237,,,,,,,,0.470370391,-0.257407419,0,0,0,,0,164,164,37,1,BIRTH,HB,old,m,./images/BIRTHHB.png,,,,,,,,,,,,,,,,,,,,,
,,,,,,,,,,,,,,,,,199918,18,2022-01-28_16h44.05.931,lexical_decision_task_DD,2021.2.3,Win32,60.69434329,,,,,,,,,,,,0.6294,1,,,,,,,,,,,,,,m,1,0.6294,,,,,,,,0.470370391,-0.257407419,0,0,0,,0,165,165,18,1,JAGUAR,C,old,m,./images/JAGUAR.png,,,,,,,,,,,,,,,,,,,,,
,,,,,,,,,,,,,,,,,199918,18,2022-01-28_16h44.05.931,lexical_decision_task_DD,2021.2.3,Win32,60.69434329,,,,,,,,,,,,0.7789,1,,,,,,,,,,,,,,m,1,0.7789,,,,,,,,0.470370391,-0.257407419,0,0,0,,0,166,166,6,1,SQUARE,C,old,m,./images/SQUARE.png,,,,,,,,,,,,,,,,,,,,,
,,,,,,,,,,,,,,,,,199918,18,2022-01-28_16h44.05.931,lexical_decision_task_DD,2021.2.3,Win32,60.69434329,,,,,,,,,,,,1.1233,1,,,,,,,,,,,,,,z,1,1.1233,,,,,,,,0.470370391,-0.257407419,0,0,0,,0,167,167,143,1,MONGS,LB,old,z,./images/MONGSLB.png,,,,,,,,,,,,,,,,,,,,,
space,0.470370391,-0.257407419,0,0,0,,,,,,,1,test,"In the next phase you will be presented with the words from the the first phase. Your job is to decide whether you remember seeing the word or not. If you remember seeing the word press ""old"" or type ""m"". If you do not remember seeing the word press ""new"" or type ""z"". Please press the space bar or click on continue to begin. ",,,199918,18,2022-01-28_16h44.05.931,lexical_decision_task_DD,2021.2.3,Win32,60.69434329,6.8366,,,,,,,,,,,,,,,,,,,,,,,,,,,,,,,,,,,,,,,,,,,,,,,,,,,,,0,0,0,0,1,,,,,,,,,,,,,,,
space,0.470370391,-0.257407419,0,0,0,,,,,,,1,test,"In the next phase you will be presented with the words from the the first phase. Your job is to decide whether you remember seeing the word or not. If you remember seeing the word press ""old"" or type ""m"". If you do not remember seeing the word press ""new"" or type ""z"". Please press the space bar or click on continue to begin. ",,,199918,18,2022-01-28_16h44.05.931,lexical_decision_task_DD,2021.2.3,Win32,60.69434329,1.6553,,,,,,,,,,,,,,,,,,,,,,,,,,,,,,,,,,,,,,,,,,,,,,,,,,,,,1,0,1,0,1,,,,,,,,,,,,,,,
space,0.470370391,-0.257407419,0,0,0,,,,,,,1,test,"In the next phase you will be presented with the words from the the first phase. Your job is to decide whether you remember seeing the word or not. If you remember seeing the word press ""old"" or type ""m"". If you do not remember seeing the word press ""new"" or type ""z"". Please press the space bar or click on continue to begin. ",,,199918,18,2022-01-28_16h44.05.931,lexical_decision_task_DD,2021.2.3,Win32,60.69434329,2.2678,,,,,,,,,,,,,,,,,,,,,,,,,,,,,,,,,,,,,,,,,,,,,,,,,,,,,2,0,2,0,1,,,,,,,,,,,,,,,
,0.063888903,-0.393518532,1,0,0,instr_done_button,,,,,,1,test,"In the next phase you will be presented with the words from the the first phase. Your job is to decide whether you remember seeing the word or not. If you remember seeing the word press ""old"" or type ""m"". If you do not remember seeing the word press ""new"" or type ""z"". Please press the space bar or click on continue to begin. ",,,199918,18,2022-01-28_16h44.05.931,lexical_decision_task_DD,2021.2.3,Win32,60.69434329,,,,,,,,,,,,,,,,,,,,,,,,,,,,,,,,,,,,,,,,,,,,,,,,,,,,,,3,0,3,0,1,,,,,,,,,,,,,,,
space,0.329629648,-0.078703712,0,0,0,,,,,,,1,test,"In the next phase you will be presented with the words from the the first phase. Your job is to decide whether you remember seeing the word or not. If you remember seeing the word press ""old"" or type ""m"". If you do not remember seeing the word press ""new"" or type ""z"". Please press the space bar or click on continue to begin. ",,,199918,18,2022-01-28_16h44.05.931,lexical_decision_task_DD,2021.2.3,Win32,60.69434329,4.3206,,,,,,,,,,,,,,,,,,,,,,,,,,,,,,,,,,,,,,,,,,,,,,,,,,,,,4,0,4,0,1,,,,,,,,,,,,,,,
,,,,,,,,,,,,,,,,,199918,18,2022-01-28_16h44.05.931,lexical_decision_task_DD,2021.2.3,Win32,60.69434329,,,,,,,,,,,,5.9151,0,,,,,,,,,,,,,,,,,,,,,,,,0.329629648,-0.078703712,0,0,0,,,,,,,CLOWN,HB,z,m,./images/CLOWNHB.png,,,,,,,m,0,5.9151,,,,,,,,0,0,0,106,1
,,,,,,,,,,,,,,,,,199918,18,2022-01-28_16h44.05.931,lexical_decision_task_DD,2021.2.3,Win32,60.69434329,,,,,,,,,,,,3.3275,1,,,,,,,,,,,,,,,,,,,,,,,,0.329629648,-0.078703712,0,0,0,,,,,,,PARCEL,C,z,m,./images/PARCEL.png,,,,,,,z,1,3.3275,,,,,,,,0,1,1,102,1
,,,,,,,,,,,,,,,,,199918,18,2022-01-28_16h44.05.931,lexical_decision_task_DD,2021.2.3,Win32,60.69434329,,,,,,,,,,,,0.9446,0,,,,,,,,,,,,,,,,,,,,,,,,0.329629648,-0.078703712,0,0,0,,,,,,,CLOUD,LB,z,m,./images/CLOUDLB.png,,,,,,,m,0,0.9446,,,,,,,,0,2,2,110,1
,,,,,,,,,,,,,,,,,199918,18,2022-01-28_16h44.05.931,lexical_decision_task_DD,2021.2.3,Win32,60.69434329,,,,,,,,,,,,1.6144,1,,,,,,,,,,,,,,,,,,,,,,,,0.329629648,-0.078703712,0,0,0,,,,,,,BUBBLE,LB,z,m,./images/BUBBLELB.png,,,,,,,z,1,1.6144,,,,,,,,0,3,3,155,1
,,,,,,,,,,,,,,,,,199918,18,2022-01-28_16h44.05.931,lexical_decision_task_DD,2021.2.3,Win32,60.69434329,,,,,,,,,,,,1.1444,1,,,,,,,,,,,,,,,,,,,,,,,,0.329629648,-0.078703712,0,0,0,,,,,,,CRATER,C,z,m,./images/CRATER.png,,,,,,,z,1,1.1444,,,,,,,,0,4,4,87,1
,,,,,,,,,,,,,,,,,199918,18,2022-01-28_16h44.05.931,lexical_decision_task_DD,2021.2.3,Win32,60.69434329,,,,,,,,,,,,1.3151,1,,,,,,,,,,,,,,,,,,,,,,,,0.329629648,-0.078703712,0,0,0,,,,,,,ARROW,C,z,m,./images/ARROW.png,,,,,,,z,1,1.3151,,,,,,,,0,5,5,153,1
,,,,,,,,,,,,,,,,,199918,18,2022-01-28_16h44.05.931,lexical_decision_task_DD,2021.2.3,Win32,60.69434329,,,,,,,,,,,,0.6268,1,,,,,,,,,,,,,,,,,,,,,,,,0.329629648,-0.078703712,0,0,0,,,,,,,CEMENT,LB,m,m,./images/CEMENTLB.png,,,,,,,m,1,0.6268,,,,,,,,0,6,6,74,1
,,,,,,,,,,,,,,,,,199918,18,2022-01-28_16h44.05.931,lexical_decision_task_DD,2021.2.3,Win32,60.69434329,,,,,,,,,,,,1.0242,1,,,,,,,,,,,,,,,,,,,,,,,,0.329629648,-0.078703712,0,0,0,,,,,,,BROOM,C,z,m,./images/BROOM.png,,,,,,,z,1,1.0242,,,,,,,,0,7,7,162,1
,,,,,,,,,,,,,,,,,199918,18,2022-01-28_16h44.05.931,lexical_decision_task_DD,2021.2.3,Win32,60.69434329,,,,,,,,,,,,1.2834,1,,,,,,,,,,,,,,,,,,,,,,,,0.329629648,-0.078703712,0,0,0,,,,,,,TIGER,HB,z,m,./images/TIGERHB.png,,,,,,,z,1,1.2834,,,,,,,,0,8,8,121,1
,,,,,,,,,,,,,,,,,199918,18,2022-01-28_16h44.05.931,lexical_decision_task_DD,2021.2.3,Win32,60.69434329,,,,,,,,,,,,1.0377,1,,,,,,,,,,,,,,,,,,,,,,,,0.329629648,-0.078703712,0,0,0,,,,,,,LLAMA,LB,z,m,./images/LLAMALB.png,,,,,,,z,1,1.0377,,,,,,,,0,9,9,119,1
,,,,,,,,,,,,,,,,,199918,18,2022-01-28_16h44.05.931,lexical_decision_task_DD,2021.2.3,Win32,60.69434329,,,,,,,,,,,,0.9666,0,,,,,,,,,,,,,,,,,,,,,,,,0.329629648,-0.078703712,0,0,0,,,,,,,ALLEY,HB,z,m,./images/ALLEYHB.png,,,,,,,m,0,0.9666,,,,,,,,0,10,10,139,1
,,,,,,,,,,,,,,,,,199918,18,2022-01-28_16h44.05.931,lexical_decision_task_DD,2021.2.3,Win32,60.69434329,,,,,,,,,,,,0.9001,1,,,,,,,,,,,,,,,,,,,,,,,,0.329629648,-0.078703712,0,0,0,,,,,,,SLOPE,C,z,m,./images/SLOPE.png,,,,,,,z,1,0.9001,,,,,,,,0,11,11,114,1
,,,,,,,,,,,,,,,,,199918,18,2022-01-28_16h44.05.931,lexical_decision_task_DD,2021.2.3,Win32,60.69434329,,,,,,,,,,,,1.5021,1,,,,,,,,,,,,,,,,,,,,,,,,0.329629648,-0.078703712,0,0,0,,,,,,,BARREL,LB,m,m,./images/BARRELLB.png,,,,,,,m,1,1.5021,,,,,,,,0,12,12,32,1
,,,,,,,,,,,,,,,,,199918,18,2022-01-28_16h44.05.931,lexical_decision_task_DD,2021.2.3,Win32,60.69434329,,,,,,,,,,,,1.1499,1,,,,,,,,,,,,,,,,,,,,,,,,0.329629648,-0.078703712,0,0,0,,,,,,,MELON,HB,m,m,./images/MELONHB.png,,,,,,,m,1,1.1499,,,,,,,,0,13,13,22,1
,,,,,,,,,,,,,,,,,199918,18,2022-01-28_16h44.05.931,lexical_decision_task_DD,2021.2.3,Win32,60.69434329,,,,,,,,,,,,0.6608,1,,,,,,,,,,,,,,,,,,,,,,,,0.329629648,-0.078703712,0,0,0,,,,,,,MAGGOT,C,m,m,./images/MAGGOT.png,,,,,,,m,1,0.6608,,,,,,,,0,14,14,33,1
,,,,,,,,,,,,,,,,,199918,18,2022-01-28_16h44.05.931,lexical_decision_task_DD,2021.2.3,Win32,60.69434329,,,,,,,,,,,,1.2379,0,,,,,,,,,,,,,,,,,,,,,,,,0.329629648,-0.078703712,0,0,0,,,,,,,BLOKE,C,z,m,./images/BLOKE.png,,,,,,,m,0,1.2379,,,,,,,,0,15,15,96,1
,,,,,,,,,,,,,,,,,199918,18,2022-01-28_16h44.05.931,lexical_decision_task_DD,2021.2.3,Win32,60.69434329,,,,,,,,,,,,2.1993,0,,,,,,,,,,,,,,,,,,,,,,,,0.329629648,-0.078703712,0,0,0,,,,,,,BUNNY,HB,z,m,./images/BUNNYHB.png,,,,,,,m,0,2.1993,,,,,,,,0,16,16,97,1
,,,,,,,,,,,,,,,,,199918,18,2022-01-28_16h44.05.931,lexical_decision_task_DD,2021.2.3,Win32,60.69434329,,,,,,,,,,,,0.8018,1,,,,,,,,,,,,,,,,,,,,,,,,0.329629648,-0.078703712,0,0,0,,,,,,,SAILOR,HB,m,m,./images/SAILORHB.png,,,,,,,m,1,0.8018,,,,,,,,0,17,17,67,1
,,,,,,,,,,,,,,,,,199918,18,2022-01-28_16h44.05.931,lexical_decision_task_DD,2021.2.3,Win32,60.69434329,,,,,,,,,,,,1.0556,1,,,,,,,,,,,,,,,,,,,,,,,,0.329629648,-0.078703712,0,0,0,,,,,,,PENCE,HB,m,m,./images/PENCEHB.png,,,,,,,m,1,1.0556,,,,,,,,0,18,18,16,1
,,,,,,,,,,,,,,,,,199918,18,2022-01-28_16h44.05.931,lexical_decision_task_DD,2021.2.3,Win32,60.69434329,,,,,,,,,,,,0.5775,1,,,,,,,,,,,,,,,,,,,,,,,,0.329629648,-0.078703712,0,0,0,,,,,,,JUNGLE,LB,m,m,./images/JUNGLELB.png,,,,,,,m,1,0.5775,,,,,,,,0,19,19,83,1
,,,,,,,,,,,,,,,,,199918,18,2022-01-28_16h44.05.931,lexical_decision_task_DD,2021.2.3,Win32,60.69434329,,,,,,,,,,,,0.5769,1,,,,,,,,,,,,,,,,,,,,,,,,0.329629648,-0.078703712,0,0,0,,,,,,,BERRY,LB,m,m,./images/BERRYLB.png,,,,,,,m,1,0.5769,,,,,,,,0,20,20,47,1
,,,,,,,,,,,,,,,,,199918,18,2022-01-28_16h44.05.931,lexical_decision_task_DD,2021.2.3,Win32,60.69434329,,,,,,,,,,,,1.3287,1,,,,,,,,,,,,,,,,,,,,,,,,0.329629648,-0.078703712,0,0,0,,,,,,,MAMMAL,LB,z,m,./images/MAMMALLB.png,,,,,,,z,1,1.3287,,,,,,,,0,21,21,146,1
,,,,,,,,,,,,,,,,,199918,18,2022-01-28_16h44.05.931,lexical_decision_task_DD,2021.2.3,Win32,60.69434329,,,,,,,,,,,,0.711,1,,,,,,,,,,,,,,,,,,,,,,,,0.329629648,-0.078703712,0,0,0,,,,,,,TOMATO,C,m,m,./images/TOMATO.png,,,,,,,m,1,0.711,,,,,,,,0,22,22,0,1
,,,,,,,,,,,,,,,,,199918,18,2022-01-28_16h44.05.931,lexical_decision_task_DD,2021.2.3,Win32,60.69434329,,,,,,,,,,,,0.7944,1,,,,,,,,,,,,,,,,,,,,,,,,0.329629648,-0.078703712,0,0,0,,,,,,,TRIPOD,C,m,m,./images/TRIPOD.png,,,,,,,m,1,0.7944,,,,,,,,0,23,23,54,1
,,,,,,,,,,,,,,,,,199918,18,2022-01-28_16h44.05.931,lexical_decision_task_DD,2021.2.3,Win32,60.69434329,,,,,,,,,,,,0.7869,1,,,,,,,,,,,,,,,,,,,,,,,,0.329629648,-0.078703712,0,0,0,,,,,,,MIDGET,HB,z,m,./images/MIDGETHB.png,,,,,,,z,1,0.7869,,,,,,,,0,24,24,160,1
,,,,,,,,,,,,,,,,,199918,18,2022-01-28_16h44.05.931,lexical_decision_task_DD,2021.2.3,Win32,60.69434329,,,,,,,,,,,,0.745,1,,,,,,,,,,,,,,,,,,,,,,,,0.329629648,-0.078703712,0,0,0,,,,,,,SPINE,LB,z,m,./images/SPINELB.png,,,,,,,z,1,0.745,,,,,,,,0,25,25,149,1
,,,,,,,,,,,,,,,,,199918,18,2022-01-28_16h44.05.931,lexical_decision_task_DD,2021.2.3,Win32,60.69434329,,,,,,,,,,,,0.7287,1,,,,,,,,,,,,,,,,,,,,,,,,0.329629648,-0.078703712,0,0,0,,,,,,,INFANT,HB,m,m,./images/INFANTHB.png,,,,,,,m,1,0.7287,,,,,,,,0,26,26,76,1
,,,,,,,,,,,,,,,,,199918,18,2022-01-28_16h44.05.931,lexical_decision_task_DD,2021.2.3,Win32,60.69434329,,,,,,,,,,,,0.7653,0,,,,,,,,,,,,,,,,,,,,,,,,0.329629648,-0.078703712,0,0,0,,,,,,,RAZOR,HB,z,m,./images/RAZORHB.png,,,,,,,m,0,0.7653,,,,,,,,0,27,27,118,1
,,,,,,,,,,,,,,,,,199918,18,2022-01-28_16h44.05.931,lexical_decision_task_DD,2021.2.3,Win32,60.69434329,,,,,,,,,,,,0.5987,1,,,,,,,,,,,,,,,,,,,,,,,,0.329629648,-0.078703712,0,0,0,,,,,,,PEARL,HB,m,m,./images/PEARLHB.png,,,,,,,m,1,0.5987,,,,,,,,0,28,28,46,1
,,,,,,,,,,,,,,,,,199918,18,2022-01-28_16h44.05.931,lexical_decision_task_DD,2021.2.3,Win32,60.69434329,,,,,,,,,,,,0.5841,1,,,,,,,,,,,,,,,,,,,,,,,,0.329629648,-0.078703712,0,0,0,,,,,,,BONNET,LB,m,m,./images/BONNETLB.png,,,,,,,m,1,0.5841,,,,,,,,0,29,29,11,1
,,,,,,,,,,,,,,,,,199918,18,2022-01-28_16h44.05.931,lexical_decision_task_DD,2021.2.3,Win32,60.69434329,,,,,,,,,,,,0.7651,1,,,,,,,,,,,,,,,,,,,,,,,,0.329629648,-0.078703712,0,0,0,,,,,,,LITTER,C,m,m,./images/LITTER.png,,,,,,,m,1,0.7651,,,,,,,,0,30,30,78,1
,,,,,,,,,,,,,,,,,199918,18,2022-01-28_16h44.05.931,lexical_decision_task_DD,2021.2.3,Win32,60.69434329,,,,,,,,,,,,0.6123,1,,,,,,,,,,,,,,,,,,,,,,,,0.329629648,-0.078703712,0,0,0,,,,,,,MALLET,LB,m,m,./images/MALLETLB.png,,,,,,,m,1,0.6123,,,,,,,,0,31,31,50,1
,,,,,,,,,,,,,,,,,199918,18,2022-01-28_16h44.05.931,lexical_decision_task_DD,2021.2.3,Win32,60.69434329,,,,,,,,,,,,0.7491,1,,,,,,,,,,,,,,,,,,,,,,,,0.329629648,-0.078703712,0,0,0,,,,,,,DANCER,C,z,m,./images/DANCER.png,,,,,,,z,1,0.7491,,,,,,,,0,32,32,105,1
,,,,,,,,,,,,,,,,,199918,18,2022-01-28_16h44.05.931,lexical_decision_task_DD,2021.2.3,Win32,60.69434329,,,,,,,,,,,,0.683,1,,,,,,,,,,,,,,,,,,,,,,,,0.329629648,-0.078703712,0,0,0,,,,,,,FOLDER,C,m,m,./images/FOLDER.png,,,,,,,m,1,0.683,,,,,,,,0,33,33,42,1
,,,,,,,,,,,,,,,,,199918,18,2022-01-28_16h44.05.931,lexical_decision_task_DD,2021.2.3,Win32,60.69434329,,,,,,,,,,,,0.8107,1,,,,,,,,,,,,,,,,,,,,,,,,0.329629648,-0.078703712,0,0,0,,,,,,,PEBBLE,HB,z,m,./images/PEBBLEHB.png,,,,,,,z,1,0.8107,,,,,,,,0,34,34,166,1
,,,,,,,,,,,,,,,,,199918,18,2022-01-28_16h44.05.931,lexical_decision_task_DD,2021.2.3,Win32,60.69434329,,,,,,,,,,,,0.8336,1,,,,,,,,,,,,,,,,,,,,,,,,0.329629648,-0.078703712,0,0,0,,,,,,,VALLEY,LB,z,m,./images/VALLEYLB.png,,,,,,,z,1,0.8336,,,,,,,,0,35,35,152,1
,,,,,,,,,,,,,,,,,199918,18,2022-01-28_16h44.05.931,lexical_decision_task_DD,2021.2.3,Win32,60.69434329,,,,,,,,,,,,0.6475,1,,,,,,,,,,,,,,,,,,,,,,,,0.329629648,-0.078703712,0,0,0,,,,,,,DESERT,HB,z,m,./images/DESERTHB.png,,,,,,,z,1,0.6475,,,,,,,,0,36,36,136,1
,,,,,,,,,,,,,,,,,199918,18,2022-01-28_16h44.05.931,lexical_decision_task_DD,2021.2.3,Win32,60.69434329,,,,,,,,,,,,0.7046,1,,,,,,,,,,,,,,,,,,,,,,,,0.329629648,-0.078703712,0,0,0,,,,,,,CANYON,HB,m,m,./images/CANYONHB.png,,,,,,,m,1,0.7046,,,,,,,,0,37,37,34,1
,,,,,,,,,,,,,,,,,199918,18,2022-01-28_16h44.05.931,lexical_decision_task_DD,2021.2.3,Win32,60.69434329,,,,,,,,,,,,0.6671,1,,,,,,,,,,,,,,,,,,,,,,,,0.329629648,-0.078703712,0,0,0,,,,,,,WEASEL,LB,m,m,./images/WEASELLB.png,,,,,,,m,1,0.6671,,,,,,,,0,38,38,80,1
,,,,,,,,,,,,,,,,,199918,18,2022-01-28_16h44.05.931,lexical_decision_task_DD,2021.2.3,Win32,60.69434329,,,,,,,,,,,,0.8708,1,,,,,,,,,,,,,,,,,,,,,,,,0.329629648,-0.078703712,0,0,0,,,,,,,ARTIST,HB,z,m,./images/ARTISTHB.png,,,,,,,z,1,0.8708,,,,,,,,0,39,39,145,1
,,,,,,,,,,,,,,,,,199918,18,2022-01-28_16h44.05.931,lexical_decision_task_DD,2021.2.3,Win32,60.69434329,,,,,,,,,,,,0.6113,1,,,,,,,,,,,,,,,,,,,,,,,,0.329629648,-0.078703712,0,0,0,,,,,,,MUMMY,HB,z,m,./images/MUMMYHB.png,,,,,,,z,1,0.6113,,,,,,,,0,40,40,130,1
,,,,,,,,,,,,,,,,,199918,18,2022-01-28_16h44.05.931,lexical_decision_task_DD,2021.2.3,Win32,60.69434329,,,,,,,,,,,,0.6337,1,,,,,,,,,,,,,,,,,,,,,,,,0.329629648,-0.078703712,0,0,0,space,,,,,,TWINS,C,m,m,./images/TWINS.png,1.1868,,,,,,m,1,0.6337,,,,,,,,0,41,41,60,1
,,,,,,,,,,,,,,,,,199918,18,2022-01-28_16h44.05.931,lexical_decision_task_DD,2021.2.3,Win32,60.69434329,,,,,,,,,,,,0.9041,1,,,,,,,,,,,,,,,,,,,,,,,,0.329629648,-0.078703712,0,0,0,,,,,,,KITTEN,C,m,m,./images/KITTEN.png,,,,,,,m,1,0.9041,,,,,,,,0,42,42,45,1
,,,,,,,,,,,,,,,,,199918,18,2022-01-28_16h44.05.931,lexical_decision_task_DD,2021.2.3,Win32,60.69434329,,,,,,,,,,,,1.1519,1,,,,,,,,,,,,,,,,,,,,,,,,0.329629648,-0.078703712,0,0,0,,,,,,,MUSCLE,HB,m,m,./images/MUSCLEHB.png,,,,,,,m,1,1.1519,,,,,,,,0,43,43,4,1
,,,,,,,,,,,,,,,,,199918,18,2022-01-28_16h44.05.931,lexical_decision_task_DD,2021.2.3,Win32,60.69434329,,,,,,,,,,,,0.6665,1,,,,,,,,,,,,,,,,,,,,,,,,0.329629648,-0.078703712,0,0,0,,,,,,,POODLE,C,m,m,./images/POODLE.png,,,,,,,m,1,0.6665,,,,,,,,0,44,44,81,1
,,,,,,,,,,,,,,,,,199918,18,2022-01-28_16h44.05.931,lexical_decision_task_DD,2021.2.3,Win32,60.69434329,,,,,,,,,,,,0.5876,1,,,,,,,,,,,,,,,,,,,,,,,,0.329629648,-0.078703712,0,0,0,,,,,,,SCREW,C,m,m,./images/SCREW.png,,,,,,,m,1,0.5876,,,,,,,,0,45,45,24,1
,,,,,,,,,,,,,,,,,199918,18,2022-01-28_16h44.05.931,lexical_decision_task_DD,2021.2.3,Win32,60.69434329,,,,,,,,,,,,0.7213,1,,,,,,,,,,,,,,,,,,,,,,,,0.329629648,-0.078703712,0,0,0,,,,,,,DIVER,C,z,m,./images/DIVER.png,,,,,,,z,1,0.7213,,,,,,,,0,46,46,93,1
,,,,,,,,,,,,,,,,,199918,18,2022-01-28_16h44.05.931,lexical_decision_task_DD,2021.2.3,Win32,60.69434329,,,,,,,,,,,,0.7802,1,,,,,,,,,,,,,,,,,,,,,,,,0.329629648,-0.078703712,0,0,0,,,,,,,ENGINE,LB,z,m,./images/ENGINELB.png,,,,,,,z,1,0.7802,,,,,,,,0,47,47,122,1
,,,,,,,,,,,,,,,,,199918,18,2022-01-28_16h44.05.931,lexical_decision_task_DD,2021.2.3,Win32,60.69434329,,,,,,,,,,,,0.8145,1,,,,,,,,,,,,,,,,,,,,,,,,0.329629648,-0.078703712,0,0,0,,,,,,,MUFFIN,HB,m,m,./images/MUFFINHB.png,,,,,,,m,1,0.8145,,,,,,,,0,48,48,55,1
,,,,,,,,,,,,,,,,,199918,18,2022-01-28_16h44.05.931,lexical_decision_task_DD,2021.2.3,Win32,60.69434329,,,,,,,,,,,,0.7198,0,,,,,,,,,,,,,,,,,,,,,,,,0.329629648,-0.078703712,0,0,0,,,,,,,HAMMER,C,z,m,./images/HAMMER.png,,,,,,,m,0,0.7198,,,,,,,,0,49,49,159,1
,,,,,,,,,,,,,,,,,199918,18,2022-01-28_16h44.05.931,lexical_decision_task_DD,2021.2.3,Win32,60.69434329,,,,,,,,,,,,0.6545,1,,,,,,,,,,,,,,,,,,,,,,,,0.329629648,-0.078703712,0,0,0,,,,,,,GRANNY,LB,z,m,./images/GRANNYLB.png,,,,,,,z,1,0.6545,,,,,,,,0,50,50,104,1
,,,,,,,,,,,,,,,,,199918,18,2022-01-28_16h44.05.931,lexical_decision_task_DD,2021.2.3,Win32,60.69434329,,,,,,,,,,,,2.0688,0,,,,,,,,,,,,,,,,,,,,,,,,0.329629648,-0.078703712,0,0,0,,,,,,,GREASE,C,m,m,./images/GREASE.png,,,,,,,z,0,2.0688,,,,,,,,0,51,51,15,1
,,,,,,,,,,,,,,,,,199918,18,2022-01-28_16h44.05.931,lexical_decision_task_DD,2021.2.3,Win32,60.69434329,,,,,,,,,,,,0.5544,1,,,,,,,,,,,,,,,,,,,,,,,,0.329629648,-0.078703712,0,0,0,,,,,,,FARMER,LB,m,m,./images/FARMERLB.png,,,,,,,m,1,0.5544,,,,,,,,0,52,52,65,1
,,,,,,,,,,,,,,,,,199918,18,2022-01-28_16h44.05.931,lexical_decision_task_DD,2021.2.3,Win32,60.69434329,,,,,,,,,,,,0.9034,1,,,,,,,,,,,,,,,,,,,,,,,,0.329629648,-0.078703712,0,0,0,,,,,,,NOOSE,C,m,m,./images/NOOSE.png,,,,,,,m,1,0.9034,,,,,,,,0,53,53,72,1
,,,,,,,,,,,,,,,,,199918,18,2022-01-28_16h44.05.931,lexical_decision_task_DD,2021.2.3,Win32,60.69434329,,,,,,,,,,,,0.7653,1,,,,,,,,,,,,,,,,,,,,,,,,0.329629648,-0.078703712,0,0,0,,,,,,,FLASK,C,z,m,./images/FLASK.png,,,,,,,z,1,0.7653,,,,,,,,0,54,54,156,1
,,,,,,,,,,,,,,,,,199918,18,2022-01-28_16h44.05.931,lexical_decision_task_DD,2021.2.3,Win32,60.69434329,,,,,,,,,,,,0.598,1,,,,,,,,,,,,,,,,,,,,,,,,0.329629648,-0.078703712,0,0,0,,,,,,,BANNER,HB,m,m,./images/BANNERHB.png,,,,,,,m,1,0.598,,,,,,,,0,55,55,52,1
,,,,,,,,,,,,,,,,,199918,18,2022-01-28_16h44.05.931,lexical_decision_task_DD,2021.2.3,Win32,60.69434329,,,,,,,,,,,,0.7201,0,,,,,,,,,,,,,,,,,,,,,,,,0.329629648,-0.078703712,0,0,0,,,,,,,SUNSET,HB,m,m,./images/SUNSETHB.png,,,,,,,z,0,0.7201,,,,,,,,0,56,56,82,1
,,,,,,,,,,,,,,,,,199918,18,2022-01-28_16h44.05.931,lexical_decision_task_DD,2021.2.3,Win32,60.69434329,,,,,,,,,,,,0.6842,0,,,,,,,,,,,,,,,,,,,,,,,,0.329629648,-0.078703712,0,0,0,,,,,,,PASTA,LB,m,m,./images/PASTALB.png,,,,,,,z,0,0.6842,,,,,,,,0,57,57,5,1
,,,,,,,,,,,,,,,,,199918,18,2022-01-28_16h44.05.931,lexical_decision_task_DD,2021.2.3,Win32,60.69434329,,,,,,,,,,,,0.7542,1,,,,,,,,,,,,,,,,,,,,,,,,0.329629648,-0.078703712,0,0,0,,,,,,,GRAPE,HB,z,m,./images/GRAPEHB.png,,,,,,,z,1,0.7542,,,,,,,,0,58,58,100,1
,,,,,,,,,,,,,,,,,199918,18,2022-01-28_16h44.05.931,lexical_decision_task_DD,2021.2.3,Win32,60.69434329,,,,,,,,,,,,0.7315,0,,,,,,,,,,,,,,,,,,,,,,,,0.329629648,-0.078703712,0,0,0,,,,,,,BURIAL,LB,m,m,./images/BURIALLB.png,,,,,,,z,0,0.7315,,,,,,,,0,59,59,59,1
,,,,,,,,,,,,,,,,,199918,18,2022-01-28_16h44.05.931,lexical_decision_task_DD,2021.2.3,Win32,60.69434329,,,,,,,,,,,,0.7158,1,,,,,,,,,,,,,,,,,,,,,,,,0.329629648,-0.078703712,0,0,0,,,,,,,WALRUS,LB,m,m,./images/WALRUSLB.png,,,,,,,m,1,0.7158,,,,,,,,0,60,60,23,1
,,,,,,,,,,,,,,,,,199918,18,2022-01-28_16h44.05.931,lexical_decision_task_DD,2021.2.3,Win32,60.69434329,,,,,,,,,,,,0.6028,1,,,,,,,,,,,,,,,,,,,,,,,,0.329629648,-0.078703712,0,0,0,,,,,,,MIRROR,C,m,m,./images/MIRROR.png,,,,,,,m,1,0.6028,,,,,,,,0,61,61,63,1
,,,,,,,,,,,,,,,,,199918,18,2022-01-28_16h44.05.931,lexical_decision_task_DD,2021.2.3,Win32,60.69434329,,,,,,,,,,,,1.895,1,,,,,,,,,,,,,,,,,,,,,,,,0.329629648,-0.078703712,0,0,0,,,,,,,CHAIN,C,z,m,./images/CHAIN.png,,,,,,,z,1,1.895,,,,,,,,0,62,62,126,1
,,,,,,,,,,,,,,,,,199918,18,2022-01-28_16h44.05.931,lexical_decision_task_DD,2021.2.3,Win32,60.69434329,,,,,,,,,,,,0.6775,0,,,,,,,,,,,,,,,,,,,,,,,,0.329629648,-0.078703712,0,0,0,,,,,,,CLIFF,LB,z,m,./images/CLIFFLB.png,,,,,,,m,0,0.6775,,,,,,,,0,63,63,92,1
,,,,,,,,,,,,,,,,,199918,18,2022-01-28_16h44.05.931,lexical_decision_task_DD,2021.2.3,Win32,60.69434329,,,,,,,,,,,,0.6689,1,,,,,,,,,,,,,,,,,,,,,,,,0.329629648,-0.078703712,0,0,0,,,,,,,CANOE,HB,z,m,./images/CANOEHB.png,,,,,,,z,1,0.6689,,,,,,,,0,64,64,142,1
,,,,,,,,,,,,,,,,,199918,18,2022-01-28_16h44.05.931,lexical_decision_task_DD,2021.2.3,Win32,60.69434329,,,,,,,,,,,,1.7024,0,,,,,,,,,,,,,,,,,,,,,,,,0.329629648,-0.078703712,0,0,0,,,,,,,MOTOR,HB,m,m,./images/MOTORHB.png,,,,,,,z,0,1.7024,,,,,,,,0,65,65,13,1
,,,,,,,,,,,,,,,,,199918,18,2022-01-28_16h44.05.931,lexical_decision_task_DD,2021.2.3,Win32,60.69434329,,,,,,,,,,,,0.5678,1,,,,,,,,,,,,,,,,,,,,,,,,0.329629648,-0.078703712,0,0,0,,,,,,,COOKER,C,m,m,./images/COOKER.png,,,,,,,m,1,0.5678,,,,,,,,0,66,66,69,1
,,,,,,,,,,,,,,,,,199918,18,2022-01-28_16h44.05.931,lexical_decision_task_DD,2021.2.3,Win32,60.69434329,,,,,,,,,,,,0.587,1,,,,,,,,,,,,,,,,,,,,,,,,0.329629648,-0.078703712,0,0,0,,,,,,,SPORT,C,m,m,./images/SPORT.png,,,,,,,m,1,0.587,,,,,,,,0,67,67,48,1
,,,,,,,,,,,,,,,,,199918,18,2022-01-28_16h44.05.931,lexical_decision_task_DD,2021.2.3,Win32,60.69434329,,,,,,,,,,,,0.5281,1,,,,,,,,,,,,,,,,,,,,,,,,0.329629648,-0.078703712,0,0,0,,,,,,,URINE,HB,m,m,./images/URINEHB.png,,,,,,,m,1,0.5281,,,,,,,,0,68,68,70,1
,,,,,,,,,,,,,,,,,199918,18,2022-01-28_16h44.05.931,lexical_decision_task_DD,2021.2.3,Win32,60.69434329,,,,,,,,,,,,0.6829,1,,,,,,,,,,,,,,,,,,,,,,,,0.329629648,-0.078703712,0,0,0,,,,,,,STOOL,HB,z,m,./images/STOOLHB.png,,,,,,,z,1,0.6829,,,,,,,,0,69,69,127,1
,,,,,,,,,,,,,,,,,199918,18,2022-01-28_16h44.05.931,lexical_decision_task_DD,2021.2.3,Win32,60.69434329,,,,,,,,,,,,0.8531,0,,,,,,,,,,,,,,,,,,,,,,,,0.329629648,-0.078703712,0,0,0,,,,,,,GARDEN,HB,z,m,./images/GARDENHB.png,,,,,,,m,0,0.8531,,,,,,,,0,70,70,94,1
,,,,,,,,,,,,,,,,,199918,18,2022-01-28_16h44.05.931,lexical_decision_task_DD,2021.2.3,Win32,60.69434329,,,,,,,,,,,,0.9743,1,,,,,,,,,,,,,,,,,,,,,,,,0.329629648,-0.078703712,0,0,0,,,,,,,MEDAL,LB,z,m,./images/MEDALLB.png,,,,,,,z,1,0.9743,,,,,,,,0,71,71,95,1
,,,,,,,,,,,,,,,,,199918,18,2022-01-28_16h44.05.931,lexical_decision_task_DD,2021.2.3,Win32,60.69434329,,,,,,,,,,,,0.5078,1,,,,,,,,,,,,,,,,,,,,,,,,0.329629648,-0.078703712,0,0,0,,,,,,,POSTER,LB,z,m,./images/POSTERLB.png,,,,,,,z,1,0.5078,,,,,,,,0,72,72,137,1
,,,,,,,,,,,,,,,,,199918,18,2022-01-28_16h44.05.931,lexical_decision_task_DD,2021.2.3,Win32,60.69434329,,,,,,,,,,,,0.9015,1,,,,,,,,,,,,,,,,,,,,,,,,0.329629648,-0.078703712,0,0,0,,,,,,,BRUSH,LB,z,m,./images/BRUSHLB.png,,,,,,,z,1,0.9015,,,,,,,,0,73,73,143,1
,,,,,,,,,,,,,,,,,199918,18,2022-01-28_16h44.05.931,lexical_decision_task_DD,2021.2.3,Win32,60.69434329,,,,,,,,,,,,0.7429,1,,,,,,,,,,,,,,,,,,,,,,,,0.329629648,-0.078703712,0,0,0,,,,,,,CLOTH,LB,z,m,./images/CLOTHLB.png,,,,,,,z,1,0.7429,,,,,,,,0,74,74,107,1
,,,,,,,,,,,,,,,,,199918,18,2022-01-28_16h44.05.931,lexical_decision_task_DD,2021.2.3,Win32,60.69434329,,,,,,,,,,,,0.7397,1,,,,,,,,,,,,,,,,,,,,,,,,0.329629648,-0.078703712,0,0,0,,,,,,,STRING,LB,m,m,./images/STRINGLB.png,,,,,,,m,1,0.7397,,,,,,,,0,75,75,41,1
,,,,,,,,,,,,,,,,,199918,18,2022-01-28_16h44.05.931,lexical_decision_task_DD,2021.2.3,Win32,60.69434329,,,,,,,,,,,,0.7004,1,,,,,,,,,,,,,,,,,,,,,,,,0.329629648,-0.078703712,0,0,0,,,,,,,SMOKER,LB,m,m,./images/SMOKERLB.png,,,,,,,m,1,0.7004,,,,,,,,0,76,76,26,1
,,,,,,,,,,,,,,,,,199918,18,2022-01-28_16h44.05.931,lexical_decision_task_DD,2021.2.3,Win32,60.69434329,,,,,,,,,,,,0.6442,1,,,,,,,,,,,,,,,,,,,,,,,,0.329629648,-0.078703712,0,0,0,,,,,,,STEAK,HB,z,m,./images/STEAKHB.png,,,,,,,z,1,0.6442,,,,,,,,0,77,77,115,1
,,,,,,,,,,,,,,,,,199918,18,2022-01-28_16h44.05.931,lexical_decision_task_DD,2021.2.3,Win32,60.69434329,,,,,,,,,,,,0.8269,1,,,,,,,,,,,,,,,,,,,,,,,,0.329629648,-0.078703712,0,0,0,,,,,,,GRAIN,C,m,m,./images/GRAIN.png,,,,,,,m,1,0.8269,,,,,,,,0,78,78,75,1
,,,,,,,,,,,,,,,,,199918,18,2022-01-28_16h44.05.931,lexical_decision_task_DD,2021.2.3,Win32,60.69434329,,,,,,,,,,,,0.8906,1,,,,,,,,,,,,,,,,,,,,,,,,0.329629648,-0.078703712,0,0,0,,,,,,,TOWEL,HB,z,m,./images/TOWELHB.png,,,,,,,z,1,0.8906,,,,,,,,0,79,79,85,1
,,,,,,,,,,,,,,,,,199918,18,2022-01-28_16h44.05.931,lexical_decision_task_DD,2021.2.3,Win32,60.69434329,,,,,,,,,,,,0.6773,1,,,,,,,,,,,,,,,,,,,,,,,,0.329629648,-0.078703712,0,0,0,,,,,,,THROAT,C,m,m,./images/THROAT.png,,,,,,,m,1,0.6773,,,,,,,,0,80,80,36,1
,,,,,,,,,,,,,,,,,199918,18,2022-01-28_16h44.05.931,lexical_decision_task_DD,2021.2.3,Win32,60.69434329,,,,,,,,,,,,1.0174,1,,,,,,,,,,,,,,,,,,,,,,,,0.329629648,-0.078703712,0,0,0,,,,,,,SWING,HB,m,m,./images/SWINGHB.png,,,,,,,m,1,1.0174,,,,,,,,0,81,81,40,1
,,,,,,,,,,,,,,,,,199918,18,2022-01-28_16h44.05.931,lexical_decision_task_DD,2021.2.3,Win32,60.69434329,,,,,,,,,,,,0.9674,0,,,,,,,,,,,,,,,,,,,,,,,,0.329629648,-0.078703712,0,0,0,,,,,,,LAGOON,LB,z,m,./images/LAGOONLB.png,,,,,,,m,0,0.9674,,,,,,,,0,82,82,131,1
,,,,,,,,,,,,,,,,,199918,18,2022-01-28_16h44.05.931,lexical_decision_task_DD,2021.2.3,Win32,60.69434329,,,,,,,,,,,,0.7351,1,,,,,,,,,,,,,,,,,,,,,,,,0.329629648,-0.078703712,0,0,0,space,,,,,,LIZARD,LB,m,m,./images/LIZARDLB.png,0.7863,,,,,,m,1,0.7351,,,,,,,,0,83,83,44,1
,,,,,,,,,,,,,,,,,199918,18,2022-01-28_16h44.05.931,lexical_decision_task_DD,2021.2.3,Win32,60.69434329,,,,,,,,,,,,0.642,1,,,,,,,,,,,,,,,,,,,,,,,,0.328703722,-0.075000009,0,0,0,,,,,,,MOSQUE,HB,m,m,./images/MOSQUEHB.png,,,,,,,m,1,0.642,,,,,,,,0,84,84,43,1
,,,,,,,,,,,,,,,,,199918,18,2022-01-28_16h44.05.931,lexical_decision_task_DD,2021.2.3,Win32,60.69434329,,,,,,,,,,,,0.7013,1,,,,,,,,,,,,,,,,,,,,,,,,0.328703722,-0.075000009,0,0,0,,,,,,,SHELF,C,m,m,./images/SHELF.png,,,,,,,m,1,0.7013,,,,,,,,0,85,85,39,1
,,,,,,,,,,,,,,,,,199918,18,2022-01-28_16h44.05.931,lexical_decision_task_DD,2021.2.3,Win32,60.69434329,,,,,,,,,,,,0.6429,0,,,,,,,,,,,,,,,,,,,,,,,,0.328703722,-0.075000009,0,0,0,,,,,,,WHEEL,LB,z,m,./images/WHEELLB.png,,,,,,,m,0,0.6429,,,,,,,,0,86,86,161,1
,,,,,,,,,,,,,,,,,199918,18,2022-01-28_16h44.05.931,lexical_decision_task_DD,2021.2.3,Win32,60.69434329,,,,,,,,,,,,0.6014,1,,,,,,,,,,,,,,,,,,,,,,,,0.328703722,-0.075000009,0,0,0,,,,,,,RHINO,C,m,m,./images/RHINO.png,,,,,,,m,1,0.6014,,,,,,,,0,87,87,9,1
,,,,,,,,,,,,,,,,,199918,18,2022-01-28_16h44.05.931,lexical_decision_task_DD,2021.2.3,Win32,60.69434329,,,,,,,,,,,,1.0689,0,,,,,,,,,,,,,,,,,,,,,,,,0.328703722,-0.075000009,0,0,0,,,,,,,WALNUT,C,z,m,./images/WALNUT.png,,,,,,,m,0,1.0689,,,,,,,,0,88,88,84,1
,,,,,,,,,,,,,,,,,199918,18,2022-01-28_16h44.05.931,lexical_decision_task_DD,2021.2.3,Win32,60.69434329,,,,,,,,,,,,0.6202,1,,,,,,,,,,,,,,,,,,,,,,,,0.328703722,-0.075000009,0,0,0,,,,,,,QUILL,HB,m,m,./images/QUILLHB.png,,,,,,,m,1,0.6202,,,,,,,,0,89,89,31,1
,,,,,,,,,,,,,,,,,199918,18,2022-01-28_16h44.05.931,lexical_decision_task_DD,2021.2.3,Win32,60.69434329,,,,,,,,,,,,0.6603,1,,,,,,,,,,,,,,,,,,,,,,,,0.328703722,-0.075000009,0,0,0,,,,,,,BANANA,HB,z,m,./images/BANANAHB.png,,,,,,,z,1,0.6603,,,,,,,,0,90,90,154,1
,,,,,,,,,,,,,,,,,199918,18,2022-01-28_16h44.05.931,lexical_decision_task_DD,2021.2.3,Win32,60.69434329,,,,,,,,,,,,0.4702,1,,,,,,,,,,,,,,,,,,,,,,,,0.328703722,-0.075000009,0,0,0,,,,,,,PACKET,LB,m,m,./images/PACKETLB.png,,,,,,,m,1,0.4702,,,,,,,,0,91,91,56,1
,,,,,,,,,,,,,,,,,199918,18,2022-01-28_16h44.05.931,lexical_decision_task_DD,2021.2.3,Win32,60.69434329,,,,,,,,,,,,0.6517,1,,,,,,,,,,,,,,,,,,,,,,,,0.328703722,-0.075000009,0,0,0,,,,,,,FERRY,C,z,m,./images/FERRY.png,,,,,,,z,1,0.6517,,,,,,,,0,92,92,141,1
,,,,,,,,,,,,,,,,,199918,18,2022-01-28_16h44.05.931,lexical_decision_task_DD,2021.2.3,Win32,60.69434329,,,,,,,,,,,,0.7872,0,,,,,,,,,,,,,,,,,,,,,,,,0.328703722,-0.075000009,0,0,0,,,,,,,FENCE,LB,z,m,./images/FENCELB.png,,,,,,,m,0,0.7872,,,,,,,,0,93,93,98,1
,,,,,,,,,,,,,,,,,199918,18,2022-01-28_16h44.05.931,lexical_decision_task_DD,2021.2.3,Win32,60.69434329,,,,,,,,,,,,0.7767,1,,,,,,,,,,,,,,,,,,,,,,,,0.328703722,-0.075000009,0,0,0,,,,,,,BIRTH,HB,m,m,./images/BIRTHHB.png,,,,,,,m,1,0.7767,,,,,,,,0,94,94,37,1
,,,,,,,,,,,,,,,,,199918,18,2022-01-28_16h44.05.931,lexical_decision_task_DD,2021.2.3,Win32,60.69434329,,,,,,,,,,,,0.705,1,,,,,,,,,,,,,,,,,,,,,,,,0.328703722,-0.075000009,0,0,0,,,,,,,DONKEY,HB,z,m,./images/DONKEYHB.png,,,,,,,z,1,0.705,,,,,,,,0,95,95,103,1
,,,,,,,,,,,,,,,,,199918,18,2022-01-28_16h44.05.931,lexical_decision_task_DD,2021.2.3,Win32,60.69434329,,,,,,,,,,,,1.7948,1,,,,,,,,,,,,,,,,,,,,,,,,0.328703722,-0.075000009,0,0,0,,,,,,,BISHOP,HB,z,m,./images/BISHOPHB.png,,,,,,,z,1,1.7948,,,,,,,,0,96,96,133,1
,,,,,,,,,,,,,,,,,199918,18,2022-01-28_16h44.05.931,lexical_decision_task_DD,2021.2.3,Win32,60.69434329,,,,,,,,,,,,1.5168,1,,,,,,,,,,,,,,,,,,,,,,,,0.328703722,-0.075000009,0,0,0,,,,,,,STATUE,C,z,m,./images/STATUE.png,,,,,,,z,1,1.5168,,,,,,,,0,97,97,150,1
,,,,,,,,,,,,,,,,,199918,18,2022-01-28_16h44.05.931,lexical_decision_task_DD,2021.2.3,Win32,60.69434329,,,,,,,,,,,,1.5918,1,,,,,,,,,,,,,,,,,,,,,,,,0.328703722,-0.075000009,0,0,0,,,,,,,SQUARE,C,m,m,./images/SQUARE.png,,,,,,,m,1,1.5918,,,,,,,,0,98,98,6,1
,,,,,,,,,,,,,,,,,199918,18,2022-01-28_16h44.05.931,lexical_decision_task_DD,2021.2.3,Win32,60.69434329,,,,,,,,,,,,1.1752,0,,,,,,,,,,,,,,,,,,,,,,,,0.328703722,-0.075000009,0,0,0,,,,,,,SAUNA,C,z,m,./images/SAUNA.png,,,,,,,m,0,1.1752,,,,,,,,0,99,99,117,1
,,,,,,,,,,,,,,,,,199918,18,2022-01-28_16h44.05.931,lexical_decision_task_DD,2021.2.3,Win32,60.69434329,,,,,,,,,,,,0.6665,1,,,,,,,,,,,,,,,,,,,,,,,,0.328703722,-0.075925935,0,0,0,,,,,,,WAGON,HB,z,m,./images/WAGONHB.png,,,,,,,z,1,0.6665,,,,,,,,0,100,100,91,1
,,,,,,,,,,,,,,,,,199918,18,2022-01-28_16h44.05.931,lexical_decision_task_DD,2021.2.3,Win32,60.69434329,,,,,,,,,,,,0.7026,1,,,,,,,,,,,,,,,,,,,,,,,,0.328703722,-0.075925935,0,0,0,,,,,,,RULER,HB,z,m,./images/RULERHB.png,,,,,,,z,1,0.7026,,,,,,,,0,101,101,163,1
,,,,,,,,,,,,,,,,,199918,18,2022-01-28_16h44.05.931,lexical_decision_task_DD,2021.2.3,Win32,60.69434329,,,,,,,,,,,,0.6181,0,,,,,,,,,,,,,,,,,,,,,,,,0.328703722,-0.075925935,0,0,0,,,,,,,HOCKEY,LB,z,m,./images/HOCKEYLB.png,,,,,,,m,0,0.6181,,,,,,,,0,102,102,116,1
,,,,,,,,,,,,,,,,,199918,18,2022-01-28_16h44.05.931,lexical_decision_task_DD,2021.2.3,Win32,60.69434329,,,,,,,,,,,,0.612,0,,,,,,,,,,,,,,,,,,,,,,,,0.328703722,-0.075925935,0,0,0,,,,,,,PLANK,HB,m,m,./images/PLANKHB.png,,,,,,,z,0,0.612,,,,,,,,0,103,103,1,1
,,,,,,,,,,,,,,,,,199918,18,2022-01-28_16h44.05.931,lexical_decision_task_DD,2021.2.3,Win32,60.69434329,,,,,,,,,,,,0.7934,1,,,,,,,,,,,,,,,,,,,,,,,,0.328703722,-0.075925935,0,0,0,,,,,,,FINGER,C,m,m,./images/FINGER.png,,,,,,,m,1,0.7934,,,,,,,,0,104,104,3,1
,,,,,,,,,,,,,,,,,199918,18,2022-01-28_16h44.05.931,lexical_decision_task_DD,2021.2.3,Win32,60.69434329,,,,,,,,,,,,0.6748,0,,,,,,,,,,,,,,,,,,,,,,,,0.328703722,-0.075925935,0,0,0,,,,,,,BOILER,C,z,m,./images/BOILER.png,,,,,,,m,0,0.6748,,,,,,,,0,105,105,120,1
,,,,,,,,,,,,,,,,,199918,18,2022-01-28_16h44.05.931,lexical_decision_task_DD,2021.2.3,Win32,60.69434329,,,,,,,,,,,,0.6091,1,,,,,,,,,,,,,,,,,,,,,,,,0.328703722,-0.075925935,0,0,0,,,,,,,CRADLE,LB,m,m,./images/CRADLELB.png,,,,,,,m,1,0.6091,,,,,,,,0,106,106,20,1
,,,,,,,,,,,,,,,,,199918,18,2022-01-28_16h44.05.931,lexical_decision_task_DD,2021.2.3,Win32,60.69434329,,,,,,,,,,,,0.5195,1,,,,,,,,,,,,,,,,,,,,,,,,0.328703722,-0.075925935,0,0,0,,,,,,,COLLAR,C,z,m,./images/COLLAR.png,,,,,,,z,1,0.5195,,,,,,,,0,107,107,99,1
,,,,,,,,,,,,,,,,,199918,18,2022-01-28_16h44.05.931,lexical_decision_task_DD,2021.2.3,Win32,60.69434329,,,,,,,,,,,,1.0512,1,,,,,,,,,,,,,,,,,,,,,,,,0.328703722,-0.075925935,0,0,0,,,,,,,PAINT,HB,m,m,./images/PAINTHB.png,,,,,,,m,1,1.0512,,,,,,,,0,108,108,7,1
,,,,,,,,,,,,,,,,,199918,18,2022-01-28_16h44.05.931,lexical_decision_task_DD,2021.2.3,Win32,60.69434329,,,,,,,,,,,,0.6189,1,,,,,,,,,,,,,,,,,,,,,,,,0.328703722,-0.075925935,0,0,0,,,,,,,SKIING,LB,m,m,./images/SKIINGLB.png,,,,,,,m,1,0.6189,,,,,,,,0,109,109,17,1
,,,,,,,,,,,,,,,,,199918,18,2022-01-28_16h44.05.931,lexical_decision_task_DD,2021.2.3,Win32,60.69434329,,,,,,,,,,,,0.6499,1,,,,,,,,,,,,,,,,,,,,,,,,0.328703722,-0.075925935,0,0,0,,,,,,,PLANET,LB,z,m,./images/PLANETLB.png,,,,,,,z,1,0.6499,,,,,,,,0,110,110,164,1
,,,,,,,,,,,,,,,,,199918,18,2022-01-28_16h44.05.931,lexical_decision_task_DD,2021.2.3,Win32,60.69434329,,,,,,,,,,,,0.585,1,,,,,,,,,,,,,,,,,,,,,,,,0.328703722,-0.075925935,0,0,0,,,,,,,HEATER,LB,z,m,./images/HEATERLB.png,,,,,,,z,1,0.585,,,,,,,,0,111,111,140,1
,,,,,,,,,,,,,,,,,199918,18,2022-01-28_16h44.05.931,lexical_decision_task_DD,2021.2.3,Win32,60.69434329,,,,,,,,,,,,0.6013,1,,,,,,,,,,,,,,,,,,,,,,,,0.328703722,-0.075925935,0,0,0,,,,,,,CHALK,HB,z,m,./images/CHALKHB.png,,,,,,,z,1,0.6013,,,,,,,,0,112,112,109,1
,,,,,,,,,,,,,,,,,199918,18,2022-01-28_16h44.05.931,lexical_decision_task_DD,2021.2.3,Win32,60.69434329,,,,,,,,,,,,1.1833,1,,,,,,,,,,,,,,,,,,,,,,,,0.328703722,-0.075925935,0,0,0,,,,,,,STORM,C,m,m,./images/STORM.png,,,,,,,m,1,1.1833,,,,,,,,0,113,113,30,1
,,,,,,,,,,,,,,,,,199918,18,2022-01-28_16h44.05.931,lexical_decision_task_DD,2021.2.3,Win32,60.69434329,,,,,,,,,,,,0.5285,0,,,,,,,,,,,,,,,,,,,,,,,,0.328703722,-0.075925935,0,0,0,,,,,,,PURSE,LB,m,m,./images/PURSELB.png,,,,,,,z,0,0.5285,,,,,,,,0,114,114,62,1
,,,,,,,,,,,,,,,,,199918,18,2022-01-28_16h44.05.931,lexical_decision_task_DD,2021.2.3,Win32,60.69434329,,,,,,,,,,,,0.667,1,,,,,,,,,,,,,,,,,,,,,,,,0.328703722,-0.075925935,0,0,0,,,,,,,CURRY,C,z,m,./images/CURRY.png,,,,,,,z,1,0.667,,,,,,,,0,115,115,144,1
,,,,,,,,,,,,,,,,,199918,18,2022-01-28_16h44.05.931,lexical_decision_task_DD,2021.2.3,Win32,60.69434329,,,,,,,,,,,,0.81,1,,,,,,,,,,,,,,,,,,,,,,,,0.328703722,-0.075925935,0,0,0,,,,,,,BELLY,HB,m,m,./images/BELLYHB.png,,,,,,,m,1,0.81,,,,,,,,0,116,116,10,1
,,,,,,,,,,,,,,,,,199918,18,2022-01-28_16h44.05.931,lexical_decision_task_DD,2021.2.3,Win32,60.69434329,,,,,,,,,,,,1.6915,0,,,,,,,,,,,,,,,,,,,,,,,,0.328703722,-0.075925935,0,0,0,,,,,,,FLESH,C,z,m,./images/FLESH.png,,,,,,,m,0,1.6915,,,,,,,,0,117,117,108,1
,,,,,,,,,,,,,,,,,199918,18,2022-01-28_16h44.05.931,lexical_decision_task_DD,2021.2.3,Win32,60.69434329,,,,,,,,,,,,0.5915,1,,,,,,,,,,,,,,,,,,,,,,,,0.328703722,-0.075925935,0,0,0,,,,,,,JUMPER,LB,z,m,./images/JUMPERLB.png,,,,,,,z,1,0.5915,,,,,,,,0,118,118,158,1
,,,,,,,,,,,,,,,,,199918,18,2022-01-28_16h44.05.931,lexical_decision_task_DD,2021.2.3,Win32,60.69434329,,,,,,,,,,,,0.8507,1,,,,,,,,,,,,,,,,,,,,,,,,0.328703722,-0.075925935,0,0,0,,,,,,,BAMBOO,LB,z,m,./images/BAMBOOLB.png,,,,,,,z,1,0.8507,,,,,,,,0,119,119,89,1
,,,,,,,,,,,,,,,,,199918,18,2022-01-28_16h44.05.931,lexical_decision_task_DD,2021.2.3,Win32,60.69434329,,,,,,,,,,,,0.6856,1,,,,,,,,,,,,,,,,,,,,,,,,0.328703722,-0.075925935,0,0,0,,,,,,,ATTIC,C,m,m,./images/ATTIC.png,,,,,,,m,1,0.6856,,,,,,,,0,120,120,27,1
,,,,,,,,,,,,,,,,,199918,18,2022-01-28_16h44.05.931,lexical_decision_task_DD,2021.2.3,Win32,60.69434329,,,,,,,,,,,,0.7685,1,,,,,,,,,,,,,,,,,,,,,,,,0.328703722,-0.075925935,0,0,0,,,,,,,SHORE,C,m,m,./images/SHORE.png,,,,,,,m,1,0.7685,,,,,,,,0,121,121,12,1
,,,,,,,,,,,,,,,,,199918,18,2022-01-28_16h44.05.931,lexical_decision_task_DD,2021.2.3,Win32,60.69434329,,,,,,,,,,,,0.5673,1,,,,,,,,,,,,,,,,,,,,,,,,0.328703722,-0.075925935,0,0,0,,,,,,,WRIST,HB,m,m,./images/WRISTHB.png,,,,,,,m,1,0.5673,,,,,,,,0,122,122,25,1
,,,,,,,,,,,,,,,,,199918,18,2022-01-28_16h44.05.931,lexical_decision_task_DD,2021.2.3,Win32,60.69434329,,,,,,,,,,,,0.7728,1,,,,,,,,,,,,,,,,,,,,,,,,0.328703722,-0.075925935,0,0,0,,,,,,,JAGUAR,C,m,m,./images/JAGUAR.png,,,,,,,m,1,0.7728,,,,,,,,0,123,123,18,1
,,,,,,,,,,,,,,,,,199918,18,2022-01-28_16h44.05.931,lexical_decision_task_DD,2021.2.3,Win32,60.69434329,,,,,,,,,,,,0.5385,0,,,,,,,,,,,,,,,,,,,,,,,,0.328703722,-0.075925935,0,0,0,,,,,,,CARPET,LB,m,m,./images/CARPETLB.png,,,,,,,z,0,0.5385,,,,,,,,0,124,124,53,1
,,,,,,,,,,,,,,,,,199918,18,2022-01-28_16h44.05.931,lexical_decision_task_DD,2021.2.3,Win32,60.69434329,,,,,,,,,,,,0.7314,1,,,,,,,,,,,,,,,,,,,,,,,,0.328703722,-0.075925935,0,0,0,space,,,,,,STOVE,LB,z,m,./images/STOVELB.png,0.9538,,,,,,z,1,0.7314,,,,,,,,0,125,125,86,1
,,,,,,,,,,,,,,,,,199918,18,2022-01-28_16h44.05.931,lexical_decision_task_DD,2021.2.3,Win32,60.69434329,,,,,,,,,,,,1.885,0,,,,,,,,,,,,,,,,,,,,,,,,0.330555574,-0.083333342,0,0,0,,,,,,,BEARD,LB,m,m,./images/BEARDLB.png,,,,,,,z,0,1.885,,,,,,,,0,126,126,2,1
,,,,,,,,,,,,,,,,,199918,18,2022-01-28_16h44.05.931,lexical_decision_task_DD,2021.2.3,Win32,60.69434329,,,,,,,,,,,,0.8839,1,,,,,,,,,,,,,,,,,,,,,,,,0.330555574,-0.083333342,0,0,0,,,,,,,ONION,C,m,m,./images/ONION.png,,,,,,,m,1,0.8839,,,,,,,,0,127,127,51,1
,,,,,,,,,,,,,,,,,199918,18,2022-01-28_16h44.05.931,lexical_decision_task_DD,2021.2.3,Win32,60.69434329,,,,,,,,,,,,2.7512,1,,,,,,,,,,,,,,,,,,,,,,,,0.330555574,-0.083333342,0,0,0,,,,,,,PARADE,LB,z,m,./images/PARADELB.png,,,,,,,z,1,2.7512,,,,,,,,0,128,128,101,1
,,,,,,,,,,,,,,,,,199918,18,2022-01-28_16h44.05.931,lexical_decision_task_DD,2021.2.3,Win32,60.69434329,,,,,,,,,,,,2.2756,1,,,,,,,,,,,,,,,,,,,,,,,,0.330555574,-0.083333342,0,0,0,,,,,,,WHISKY,LB,z,m,./images/WHISKYLB.png,,,,,,,z,1,2.2756,,,,,,,,0,129,129,167,1
,,,,,,,,,,,,,,,,,199918,18,2022-01-28_16h44.05.931,lexical_decision_task_DD,2021.2.3,Win32,60.69434329,,,,,,,,,,,,0.6024,1,,,,,,,,,,,,,,,,,,,,,,,,0.330555574,-0.083333342,0,0,0,,,,,,,MOOSE,C,m,m,./images/MOOSE.png,,,,,,,m,1,0.6024,,,,,,,,0,130,130,57,1
,,,,,,,,,,,,,,,,,199918,18,2022-01-28_16h44.05.931,lexical_decision_task_DD,2021.2.3,Win32,60.69434329,,,,,,,,,,,,1.7782,1,,,,,,,,,,,,,,,,,,,,,,,,0.330555574,-0.083333342,0,0,0,,,,,,,BUTTER,C,z,m,./images/BUTTER.png,,,,,,,z,1,1.7782,,,,,,,,0,131,131,111,1
,,,,,,,,,,,,,,,,,199918,18,2022-01-28_16h44.05.931,lexical_decision_task_DD,2021.2.3,Win32,60.69434329,,,,,,,,,,,,0.6372,1,,,,,,,,,,,,,,,,,,,,,,,,0.330555574,-0.083333342,0,0,0,,,,,,,TORCH,LB,m,m,./images/TORCHLB.png,,,,,,,m,1,0.6372,,,,,,,,0,132,132,68,1
,,,,,,,,,,,,,,,,,199918,18,2022-01-28_16h44.05.931,lexical_decision_task_DD,2021.2.3,Win32,60.69434329,,,,,,,,,,,,0.652,1,,,,,,,,,,,,,,,,,,,,,,,,0.330555574,-0.083333342,0,0,0,,,,,,,KIDNEY,C,m,m,./images/KIDNEY.png,,,,,,,m,1,0.652,,,,,,,,0,133,133,21,1
,,,,,,,,,,,,,,,,,199918,18,2022-01-28_16h44.05.931,lexical_decision_task_DD,2021.2.3,Win32,60.69434329,,,,,,,,,,,,0.8383,1,,,,,,,,,,,,,,,,,,,,,,,,0.330555574,-0.083333342,0,0,0,,,,,,,SWEAT,C,m,m,./images/SWEAT.png,,,,,,,m,1,0.8383,,,,,,,,0,134,134,66,1
,,,,,,,,,,,,,,,,,199918,18,2022-01-28_16h44.05.931,lexical_decision_task_DD,2021.2.3,Win32,60.69434329,,,,,,,,,,,,0.7352,1,,,,,,,,,,,,,,,,,,,,,,,,0.330555574,-0.083333342,0,0,0,,,,,,,LADDER,LB,m,m,./images/LADDERLB.png,,,,,,,m,1,0.7352,,,,,,,,0,135,135,38,1
,,,,,,,,,,,,,,,,,199918,18,2022-01-28_16h44.05.931,lexical_decision_task_DD,2021.2.3,Win32,60.69434329,,,,,,,,,,,,0.593,1,,,,,,,,,,,,,,,,,,,,,,,,0.330555574,-0.083333342,0,0,0,,,,,,,DOUGH,HB,m,m,./images/DOUGHHB.png,,,,,,,m,1,0.593,,,,,,,,0,136,136,19,1
,,,,,,,,,,,,,,,,,199918,18,2022-01-28_16h44.05.931,lexical_decision_task_DD,2021.2.3,Win32,60.69434329,,,,,,,,,,,,0.5063,0,,,,,,,,,,,,,,,,,,,,,,,,0.330555574,-0.083333342,0,0,0,,,,,,,CRUMB,LB,m,m,./images/CRUMBLB.png,,,,,,,z,0,0.5063,,,,,,,,0,137,137,29,1
,,,,,,,,,,,,,,,,,199918,18,2022-01-28_16h44.05.931,lexical_decision_task_DD,2021.2.3,Win32,60.69434329,,,,,,,,,,,,0.6352,0,,,,,,,,,,,,,,,,,,,,,,,,0.330555574,-0.083333342,0,0,0,,,,,,,PILOT,LB,z,m,./images/PILOTLB.png,,,,,,,m,0,0.6352,,,,,,,,0,138,138,134,1
,,,,,,,,,,,,,,,,,199918,18,2022-01-28_16h44.05.931,lexical_decision_task_DD,2021.2.3,Win32,60.69434329,,,,,,,,,,,,0.9854,1,,,,,,,,,,,,,,,,,,,,,,,,0.330555574,-0.085185194,0,0,0,,,,,,,SHIELD,C,z,m,./images/SHIELD.png,,,,,,,z,1,0.9854,,,,,,,,0,139,139,132,1
,,,,,,,,,,,,,,,,,199918,18,2022-01-28_16h44.05.931,lexical_decision_task_DD,2021.2.3,Win32,60.69434329,,,,,,,,,,,,1.3356,1,,,,,,,,,,,,,,,,,,,,,,,,0.330555574,-0.08611112,0,0,0,,,,,,,DRUMS,HB,m,m,./images/DRUMSHB.png,,,,,,,m,1,1.3356,,,,,,,,0,140,140,49,1
,,,,,,,,,,,,,,,,,199918,18,2022-01-28_16h44.05.931,lexical_decision_task_DD,2021.2.3,Win32,60.69434329,,,,,,,,,,,,0.5178,0,,,,,,,,,,,,,,,,,,,,,,,,0.330555574,-0.08611112,0,0,0,,,,,,,PIMPLE,LB,m,m,./images/PIMPLELB.png,,,,,,,z,0,0.5178,,,,,,,,0,141,141,71,1
,,,,,,,,,,,,,,,,,199918,18,2022-01-28_16h44.05.931,lexical_decision_task_DD,2021.2.3,Win32,60.69434329,,,,,,,,,,,,0.6841,1,,,,,,,,,,,,,,,,,,,,,,,,0.330555574,-0.08611112,0,0,0,,,,,,,STAIN,C,z,m,./images/STAIN.png,,,,,,,z,1,0.6841,,,,,,,,0,142,142,90,1
,,,,,,,,,,,,,,,,,199918,18,2022-01-28_16h44.05.931,lexical_decision_task_DD,2021.2.3,Win32,60.69434329,,,,,,,,,,,,0.8294,1,,,,,,,,,,,,,,,,,,,,,,,,0.330555574,-0.08611112,0,0,0,,,,,,,CRUST,HB,m,m,./images/CRUSTHB.png,,,,,,,m,1,0.8294,,,,,,,,0,143,143,79,1
,,,,,,,,,,,,,,,,,199918,18,2022-01-28_16h44.05.931,lexical_decision_task_DD,2021.2.3,Win32,60.69434329,,,,,,,,,,,,0.9494,1,,,,,,,,,,,,,,,,,,,,,,,,0.330555574,-0.08611112,0,0,0,,,,,,,DRILL,C,z,m,./images/DRILL.png,,,,,,,z,1,0.9494,,,,,,,,0,144,144,165,1
,,,,,,,,,,,,,,,,,199918,18,2022-01-28_16h44.05.931,lexical_decision_task_DD,2021.2.3,Win32,60.69434329,,,,,,,,,,,,0.686,1,,,,,,,,,,,,,,,,,,,,,,,,0.330555574,-0.08611112,0,0,0,,,,,,,CASINO,HB,z,m,./images/CASINOHB.png,,,,,,,z,1,0.686,,,,,,,,0,145,145,112,1
,,,,,,,,,,,,,,,,,199918,18,2022-01-28_16h44.05.931,lexical_decision_task_DD,2021.2.3,Win32,60.69434329,,,,,,,,,,,,0.7104,1,,,,,,,,,,,,,,,,,,,,,,,,0.330555574,-0.08611112,0,0,0,,,,,,,SNACK,HB,m,m,./images/SNACKHB.png,,,,,,,m,1,0.7104,,,,,,,,0,146,146,73,1
,,,,,,,,,,,,,,,,,199918,18,2022-01-28_16h44.05.931,lexical_decision_task_DD,2021.2.3,Win32,60.69434329,,,,,,,,,,,,0.6756,1,,,,,,,,,,,,,,,,,,,,,,,,0.330555574,-0.08611112,0,0,0,,,,,,,CANDY,C,z,m,./images/CANDY.png,,,,,,,z,1,0.6756,,,,,,,,0,147,147,123,1
,,,,,,,,,,,,,,,,,199918,18,2022-01-28_16h44.05.931,lexical_decision_task_DD,2021.2.3,Win32,60.69434329,,,,,,,,,,,,1.3533,1,,,,,,,,,,,,,,,,,,,,,,,,0.330555574,-0.08611112,0,0,0,,,,,,,SNAKE,HB,z,m,./images/SNAKEHB.png,,,,,,,z,1,1.3533,,,,,,,,0,148,148,124,1
,,,,,,,,,,,,,,,,,199918,18,2022-01-28_16h44.05.931,lexical_decision_task_DD,2021.2.3,Win32,60.69434329,,,,,,,,,,,,0.976,1,,,,,,,,,,,,,,,,,,,,,,,,0.330555574,-0.08611112,0,0,0,,,,,,,JELLY,HB,m,m,./images/JELLYHB.png,,,,,,,m,1,0.976,,,,,,,,0,149,149,64,1
,,,,,,,,,,,,,,,,,199918,18,2022-01-28_16h44.05.931,lexical_decision_task_DD,2021.2.3,Win32,60.69434329,,,,,,,,,,,,0.8109,1,,,,,,,,,,,,,,,,,,,,,,,,0.330555574,-0.08611112,0,0,0,,,,,,,BASKET,LB,z,m,./images/BASKETLB.png,,,,,,,z,1,0.8109,,,,,,,,0,150,150,128,1
,,,,,,,,,,,,,,,,,199918,18,2022-01-28_16h44.05.931,lexical_decision_task_DD,2021.2.3,Win32,60.69434329,,,,,,,,,,,,0.693,1,,,,,,,,,,,,,,,,,,,,,,,,0.330555574,-0.08611112,0,0,0,,,,,,,SAUCE,C,z,m,./images/SAUCE.png,,,,,,,z,1,0.693,,,,,,,,0,151,151,135,1
,,,,,,,,,,,,,,,,,199918,18,2022-01-28_16h44.05.931,lexical_decision_task_DD,2021.2.3,Win32,60.69434329,,,,,,,,,,,,0.9766,0,,,,,,,,,,,,,,,,,,,,,,,,0.330555574,-0.08611112,0,0,0,,,,,,,BABOON,HB,m,m,./images/BABOONHB.png,,,,,,,z,0,0.9766,,,,,,,,0,152,152,58,1
,,,,,,,,,,,,,,,,,199918,18,2022-01-28_16h44.05.931,lexical_decision_task_DD,2021.2.3,Win32,60.69434329,,,,,,,,,,,,1.1332,1,,,,,,,,,,,,,,,,,,,,,,,,0.330555574,-0.08611112,0,0,0,,,,,,,FALCON,HB,m,m,./images/FALCONHB.png,,,,,,,m,1,1.1332,,,,,,,,0,153,153,28,1
,,,,,,,,,,,,,,,,,199918,18,2022-01-28_16h44.05.931,lexical_decision_task_DD,2021.2.3,Win32,60.69434329,,,,,,,,,,,,0.7544,1,,,,,,,,,,,,,,,,,,,,,,,,0.330555574,-0.08611112,0,0,0,,,,,,,BOXER,HB,z,m,./images/BOXERHB.png,,,,,,,z,1,0.7544,,,,,,,,0,154,154,88,1
,,,,,,,,,,,,,,,,,199918,18,2022-01-28_16h44.05.931,lexical_decision_task_DD,2021.2.3,Win32,60.69434329,,,,,,,,,,,,0.9038,1,,,,,,,,,,,,,,,,,,,,,,,,0.330555574,-0.08611112,0,0,0,,,,,,,TULIP,LB,m,m,./images/TULIPLB.png,,,,,,,m,1,0.9038,,,,,,,,0,155,155,8,1
,,,,,,,,,,,,,,,,,199918,18,2022-01-28_16h44.05.931,lexical_decision_task_DD,2021.2.3,Win32,60.69434329,,,,,,,,,,,,0.6273,1,,,,,,,,,,,,,,,,,,,,,,,,0.330555574,-0.08611112,0,0,0,,,,,,,POKER,HB,z,m,./images/POKERHB.png,,,,,,,z,1,0.6273,,,,,,,,0,156,156,151,1
,,,,,,,,,,,,,,,,,199918,18,2022-01-28_16h44.05.931,lexical_decision_task_DD,2021.2.3,Win32,60.69434329,,,,,,,,,,,,0.757,1,,,,,,,,,,,,,,,,,,,,,,,,0.330555574,-0.08611112,0,0,0,,,,,,,BRIDE,HB,z,m,./images/BRIDEHB.png,,,,,,,z,1,0.757,,,,,,,,0,157,157,148,1
,,,,,,,,,,,,,,,,,199918,18,2022-01-28_16h44.05.931,lexical_decision_task_DD,2021.2.3,Win32,60.69434329,,,,,,,,,,,,1.7529,1,,,,,,,,,,,,,,,,,,,,,,,,0.330555574,-0.08611112,0,0,0,,,,,,,STREAM,LB,z,m,./images/STREAMLB.png,,,,,,,z,1,1.7529,,,,,,,,0,158,158,125,1
,,,,,,,,,,,,,,,,,199918,18,2022-01-28_16h44.05.931,lexical_decision_task_DD,2021.2.3,Win32,60.69434329,,,,,,,,,,,,0.7748,1,,,,,,,,,,,,,,,,,,,,,,,,0.330555574,-0.08611112,0,0,0,,,,,,,BAKER,C,z,m,./images/BAKER.png,,,,,,,z,1,0.7748,,,,,,,,0,159,159,147,1
,,,,,,,,,,,,,,,,,199918,18,2022-01-28_16h44.05.931,lexical_decision_task_DD,2021.2.3,Win32,60.69434329,,,,,,,,,,,,0.7346,1,,,,,,,,,,,,,,,,,,,,,,,,0.330555574,-0.08611112,0,0,0,,,,,,,CANDLE,HB,m,m,./images/CANDLEHB.png,,,,,,,m,1,0.7346,,,,,,,,0,160,160,61,1
,,,,,,,,,,,,,,,,,199918,18,2022-01-28_16h44.05.931,lexical_decision_task_DD,2021.2.3,Win32,60.69434329,,,,,,,,,,,,0.724,1,,,,,,,,,,,,,,,,,,,,,,,,0.330555574,-0.08611112,0,0,0,,,,,,,PISTOL,LB,z,m,./images/PISTOLLB.png,,,,,,,z,1,0.724,,,,,,,,0,161,161,113,1
,,,,,,,,,,,,,,,,,199918,18,2022-01-28_16h44.05.931,lexical_decision_task_DD,2021.2.3,Win32,60.69434329,,,,,,,,,,,,0.8199,1,,,,,,,,,,,,,,,,,,,,,,,,0.330555574,-0.08611112,0,0,0,,,,,,,CHERRY,C,z,m,./images/CHERRY.png,,,,,,,z,1,0.8199,,,,,,,,0,162,162,138,1
,,,,,,,,,,,,,,,,,199918,18,2022-01-28_16h44.05.931,lexical_decision_task_DD,2021.2.3,Win32,60.69434329,,,,,,,,,,,,0.7209,0,,,,,,,,,,,,,,,,,,,,,,,,0.330555574,-0.08611112,0,0,0,,,,,,,PICKLE,LB,m,m,./images/PICKLELB.png,,,,,,,z,0,0.7209,,,,,,,,0,163,163,14,1
,,,,,,,,,,,,,,,,,199918,18,2022-01-28_16h44.05.931,lexical_decision_task_DD,2021.2.3,Win32,60.69434329,,,,,,,,,,,,0.6379,1,,,,,,,,,,,,,,,,,,,,,,,,0.330555574,-0.08611112,0,0,0,,,,,,,MONKEY,C,z,m,./images/MONKEY.png,,,,,,,z,1,0.6379,,,,,,,,0,164,164,129,1
,,,,,,,,,,,,,,,,,199918,18,2022-01-28_16h44.05.931,lexical_decision_task_DD,2021.2.3,Win32,60.69434329,,,,,,,,,,,,0.8202,0,,,,,,,,,,,,,,,,,,,,,,,,0.330555574,-0.08611112,0,0,0,,,,,,,GLOVE,HB,z,m,./images/GLOVEHB.png,,,,,,,m,0,0.8202,,,,,,,,0,165,165,157,1
,,,,,,,,,,,,,,,,,199918,18,2022-01-28_16h44.05.931,lexical_decision_task_DD,2021.2.3,Win32,60.69434329,,,,,,,,,,,,0.9039,1,,,,,,,,,,,,,,,,,,,,,,,,0.330555574,-0.08611112,0,0,0,,,,,,,COUCH,LB,m,m,./images/COUCHLB.png,,,,,,,m,1,0.9039,,,,,,,,0,166,166,77,1
,,,,,,,,,,,,,,,,,199918,18,2022-01-28_16h44.05.931,lexical_decision_task_DD,2021.2.3,Win32,60.69434329,,,,,,,,,,,,0.8664,1,,,,,,,,,,,,,,,,,,,,,,,,0.330555574,-0.08611112,0,0,0,,,,,,,PEACH,LB,m,m,./images/PEACHLB.png,,,,,,,m,1,0.8664,,,,,,,,0,167,167,35,1
