key_resp.keys,instr_done_touch.x,instr_done_touch.y,instr_done_touch.leftButton,instr_done_touch.midButton,instr_done_touch.rightButton,instr_done_touch.clicked_name,instruction_pages.thisRepN,instruction_pages.thisTrialN,instruction_pages.thisN,instruction_pages.thisIndex,instruction_pages.ran,pageN,phase,instruct_text,has_image,instruct_image,participant,age,date,expName,psychopyVersion,OS,frameRate,response.keys,response.corr,response.rt,touch_resp.x,touch_resp.y,touch_resp.leftButton,touch_resp.midButton,touch_resp.rightButton,touch_resp.time,touch_resp.clicked_name,rt,corr,practrials.thisRepN,practrials.thisTrialN,practrials.thisN,practrials.thisIndex,practrials.ran,TrialID,Target,corrAns,end_of_practice_trials_pages.thisRepN,end_of_practice_trials_pages.thisTrialN,end_of_practice_trials_pages.thisN,end_of_practice_trials_pages.thisIndex,end_of_practice_trials_pages.ran,key_resp_2.keys,key_resp_2.corr,key_resp_2.rt,targ_click.x,targ_click.y,targ_click.leftButton,targ_click.midButton,targ_click.rightButton,targ_click.time,targ_click.clicked_name,break_done_touch.x,break_done_touch.y,break_done_touch.leftButton,break_done_touch.midButton,break_done_touch.rightButton,break_done_keyboard.keys,maintrials.thisRepN,maintrials.thisTrialN,maintrials.thisN,maintrials.thisIndex,maintrials.ran,string,blur,study,lex,stim_path,break_done_touch.clicked_name,test_instructions.thisRepN,test_instructions.thisTrialN,test_instructions.thisN,test_instructions.thisIndex,test_instructions.ran,key_resp.rt,key_resp_3.keys,key_resp_3.corr,key_resp_3.rt,test_click.x,test_click.y,test_click.leftButton,test_click.midButton,test_click.rightButton,test_click.time,test_click.clicked_name,test_phase.thisRepN,test_phase.thisTrialN,test_phase.thisN,test_phase.thisIndex,test_phase.ran
,-0.048554687,-0.414283854,1,0,0,instr_done_button,0,0,0,0,1,1,instructions,"INSTRUCTIONS
At the start of each trial, look at the plus sign  (+) in the center of the screen.  This tells you that a trial is about to begin and where to look. Second, the plus sign will disappear and a string of letters will appear. Your task is to determine if the string of letters is a word or not. If the item is a word press the M key (on keyboard)  or touch the word button (phone/tablet).  If the item is not a word,  press the  Z key (on keyboard)  or touch the nonword button (on phone/tablet). 
Press the space bar or touch  continue.",0,,199912,19,2022-01-28_14h49.41.122,lexical_decision_task_DD_L6,2021.2.3,MacIntel,60.0024001,,,,,,,,,,,,,,,,,,,,,,,,,,,,,,,,,,,,,,,,,,,,,,,,,,,,,,,,,,,,,,,,,,,,,,,,,
,-0.048554687,-0.411458333,1,0,0,instr_done_button,0,1,1,1,1,2,instructions,"If your device has a keyboard, press the 'Z' key for nonwords and the 'M' key for words.





Press the space bar or touch the button below to continue.",0,keyboard-example.gif,199912,19,2022-01-28_14h49.41.122,lexical_decision_task_DD_L6,2021.2.3,MacIntel,60.0024001,,,,,,,,,,,,,,,,,,,,,,,,,,,,,,,,,,,,,,,,,,,,,,,,,,,,,,,,,,,,,,,,,,,,,,,,,
,-0.048554687,-0.411458333,1,0,0,instr_done_button,0,2,2,2,1,3,instructions,"If you are using a touchscreen only device, use the buttons on the screen. Do not use the mouse.





Press the space bar or touch the button below to continue.",0,touchscreen-example.gif,199912,19,2022-01-28_14h49.41.122,lexical_decision_task_DD_L6,2021.2.3,MacIntel,60.0024001,,,,,,,,,,,,,,,,,,,,,,,,,,,,,,,,,,,,,,,,,,,,,,,,,,,,,,,,,,,,,,,,,,,,,,,,,
,-0.048554687,-0.411458333,1,0,0,instr_done_button,0,3,3,3,1,4,instructions,"It is very important that you respond as quickly and accurately as possible, as each letter string will only be on the screen for two seconds. If you do not respond within this time, the message 'Too slow!' will be displayed and the experiment will progress to the next letter string. The first 20 trials will be practice trials and you will receive feedback on your answers. 

Press the space bar or touch the button below to start the practice trials.",0,,199912,19,2022-01-28_14h49.41.122,lexical_decision_task_DD_L6,2021.2.3,MacIntel,60.0024001,,,,,,,,,,,,,,,,,,,,,,,,,,,,,,,,,,,,,,,,,,,,,,,,,,,,,,,,,,,,,,,,,,,,,,,,,
,,,,,,,,,,,,,,,,,199912,19,2022-01-28_14h49.41.122,lexical_decision_task_DD_L6,2021.2.3,MacIntel,60.0024001,z,1,2.0378,,,,,,,,2.0378,1,0,0,0,10,1,1001,INLADE,z,,,,,,,,,,,,,,,,,,,,,,,,,,,,,,,,,,,,,,,,,,,,,,,,,,,,,
,,,,,,,,,,,,,,,,,199912,19,2022-01-28_14h49.41.122,lexical_decision_task_DD_L6,2021.2.3,MacIntel,60.0024001,m,0,1.2747,,,,,,,,1.2747,0,0,1,1,14,1,1001,THRALE,z,,,,,,,,,,,,,,,,,,,,,,,,,,,,,,,,,,,,,,,,,,,,,,,,,,,,,
,,,,,,,,,,,,,,,,,199912,19,2022-01-28_14h49.41.122,lexical_decision_task_DD_L6,2021.2.3,MacIntel,60.0024001,z,1,0.6783,,,,,,,,0.6783,1,0,2,2,13,1,1001,ROUPET,z,,,,,,,,,,,,,,,,,,,,,,,,,,,,,,,,,,,,,,,,,,,,,,,,,,,,,
,,,,,,,,,,,,,,,,,199912,19,2022-01-28_14h49.41.122,lexical_decision_task_DD_L6,2021.2.3,MacIntel,60.0024001,m,1,0.9097,,,,,,,,0.9097,1,0,3,3,4,1,1001,SQUEAK,m,,,,,,,,,,,,,,,,,,,,,,,,,,,,,,,,,,,,,,,,,,,,,,,,,,,,,
,,,,,,,,,,,,,,,,,199912,19,2022-01-28_14h49.41.122,lexical_decision_task_DD_L6,2021.2.3,MacIntel,60.0024001,m,1,0.8153,,,,,,,,0.8153,1,0,4,4,5,1,1001,OBTAIN,m,,,,,,,,,,,,,,,,,,,,,,,,,,,,,,,,,,,,,,,,,,,,,,,,,,,,,
,,,,,,,,,,,,,,,,,199912,19,2022-01-28_14h49.41.122,lexical_decision_task_DD_L6,2021.2.3,MacIntel,60.0024001,z,1,0.8166,,,,,,,,0.8166,1,0,5,5,9,1,1001,FARINY,z,,,,,,,,,,,,,,,,,,,,,,,,,,,,,,,,,,,,,,,,,,,,,,,,,,,,,
,,,,,,,,,,,,,,,,,199912,19,2022-01-28_14h49.41.122,lexical_decision_task_DD_L6,2021.2.3,MacIntel,60.0024001,z,1,1.016,,,,,,,,1.016,1,0,6,6,12,1,1001,SPRINY,z,,,,,,,,,,,,,,,,,,,,,,,,,,,,,,,,,,,,,,,,,,,,,,,,,,,,,
,,,,,,,,,,,,,,,,,199912,19,2022-01-28_14h49.41.122,lexical_decision_task_DD_L6,2021.2.3,MacIntel,60.0024001,z,1,0.635,,,,,,,,0.635,1,0,7,7,11,1,1001,RASHET,z,,,,,,,,,,,,,,,,,,,,,,,,,,,,,,,,,,,,,,,,,,,,,,,,,,,,,
,,,,,,,,,,,,,,,,,199912,19,2022-01-28_14h49.41.122,lexical_decision_task_DD_L6,2021.2.3,MacIntel,60.0024001,z,1,0.825,,,,,,,,0.825,1,0,8,8,15,1,1001,WHAISE,z,,,,,,,,,,,,,,,,,,,,,,,,,,,,,,,,,,,,,,,,,,,,,,,,,,,,,
,,,,,,,,,,,,,,,,,199912,19,2022-01-28_14h49.41.122,lexical_decision_task_DD_L6,2021.2.3,MacIntel,60.0024001,m,1,0.736,,,,,,,,0.736,1,0,9,9,6,1,1001,ZOMBIE,m,,,,,,,,,,,,,,,,,,,,,,,,,,,,,,,,,,,,,,,,,,,,,,,,,,,,,
,,,,,,,,,,,,,,,,,199912,19,2022-01-28_14h49.41.122,lexical_decision_task_DD_L6,2021.2.3,MacIntel,60.0024001,m,1,0.632,,,,,,,,0.632,1,0,10,10,7,1,1001,VOLUME,m,,,,,,,,,,,,,,,,,,,,,,,,,,,,,,,,,,,,,,,,,,,,,,,,,,,,,
,,,,,,,,,,,,,,,,,199912,19,2022-01-28_14h49.41.122,lexical_decision_task_DD_L6,2021.2.3,MacIntel,60.0024001,m,1,0.6033,,,,,,,,0.6033,1,0,11,11,2,1,1001,ALMOND,m,,,,,,,,,,,,,,,,,,,,,,,,,,,,,,,,,,,,,,,,,,,,,,,,,,,,,
,,,,,,,,,,,,,,,,,199912,19,2022-01-28_14h49.41.122,lexical_decision_task_DD_L6,2021.2.3,MacIntel,60.0024001,m,1,0.8066,,,,,,,,0.8066,1,0,12,12,3,1,1001,MATRIX,m,,,,,,,,,,,,,,,,,,,,,,,,,,,,,,,,,,,,,,,,,,,,,,,,,,,,,
,,,,,,,,,,,,,,,,,199912,19,2022-01-28_14h49.41.122,lexical_decision_task_DD_L6,2021.2.3,MacIntel,60.0024001,m,1,0.5884,,,,,,,,0.5884,1,0,13,13,1,1,1001,ADJUST,m,,,,,,,,,,,,,,,,,,,,,,,,,,,,,,,,,,,,,,,,,,,,,,,,,,,,,
,,,,,,,,,,,,,,,,,199912,19,2022-01-28_14h49.41.122,lexical_decision_task_DD_L6,2021.2.3,MacIntel,60.0024001,z,1,0.7541,,,,,,,,0.7541,1,0,14,14,8,1,1001,ASLERT,z,,,,,,,,,,,,,,,,,,,,,,,,,,,,,,,,,,,,,,,,,,,,,,,,,,,,,
,,,,,,,,,,,,,,,,,199912,19,2022-01-28_14h49.41.122,lexical_decision_task_DD_L6,2021.2.3,MacIntel,60.0024001,z,0,1,,,,,,,,1,0,0,15,15,0,1,1001,UTOPIA,m,,,,,,,,,,,,,,,,,,,,,,,,,,,,,,,,,,,,,,,,,,,,,,,,,,,,,
,-0.033324653,-0.3978125,1,0,0,instr_done_button,,,,,,1,end_of_practice,"You have completed the practice trials. During the experimental trials, you will not receive feedback. 
Before you begin, please ensure that you are in a comfortable and quiet location and will not be disturbed for about 15 minutes, as we cannot use your data if you do not complete all the trials. 
 When you are ready to start the experimental trials, please press space or touch the button below.",,,199912,19,2022-01-28_14h49.41.122,lexical_decision_task_DD_L6,2021.2.3,MacIntel,60.0024001,,,,,,,,,,,,,,,,,,,,,0,0,0,0,1,,,,,,,,,,,,,,,,,,,,,,,,,,,,,,,,,,,,,,,,,,,,,,,,
,,,,,,,,,,,,,,,,,199912,19,2022-01-28_14h49.41.122,lexical_decision_task_DD_L6,2021.2.3,MacIntel,60.0024001,,,,,,,,,,,3.4566,0,,,,,,,,,,,,,,z,0,3.4566,,,,,,,,-0.033324653,-0.3978125,0,0,0,,0,0,0,17,1,PARADE,HB,old,m,./images/PARADEHB.png,,,,,,,,,,,,,,,,,,,,,,
,,,,,,,,,,,,,,,,,199912,19,2022-01-28_14h49.41.122,lexical_decision_task_DD_L6,2021.2.3,MacIntel,60.0024001,,,,,,,,,,,0.7584,1,,,,,,,,,,,,,,m,1,0.7584,,,,,,,,-0.033324653,-0.3978125,0,0,0,,0,1,1,78,1,BROOM,LB,old,m,./images/BROOMLB.png,,,,,,,,,,,,,,,,,,,,,,
,,,,,,,,,,,,,,,,,199912,19,2022-01-28_14h49.41.122,lexical_decision_task_DD_L6,2021.2.3,MacIntel,60.0024001,,,,,,,,,,,0.892,1,,,,,,,,,,,,,,z,1,0.892,,,,,,,,-0.033324653,-0.3978125,0,0,0,,0,2,2,84,1,HAXES,C,old,z,./images/HAXES.png,,,,,,,,,,,,,,,,,,,,,,
,,,,,,,,,,,,,,,,,199912,19,2022-01-28_14h49.41.122,lexical_decision_task_DD_L6,2021.2.3,MacIntel,60.0024001,,,,,,,,,,,0.6253,1,,,,,,,,,,,,,,m,1,0.6253,,,,,,,,-0.033324653,-0.3978125,0,0,0,,0,3,3,64,1,BRIDE,C,old,m,./images/BRIDE.png,,,,,,,,,,,,,,,,,,,,,,
,,,,,,,,,,,,,,,,,199912,19,2022-01-28_14h49.41.122,lexical_decision_task_DD_L6,2021.2.3,MacIntel,60.0024001,,,,,,,,,,,0.9137,1,,,,,,,,,,,,,,m,1,0.9137,,,,,,,,-0.033324653,-0.3978125,0,0,0,,0,4,4,81,1,DRILL,LB,old,m,./images/DRILLLB.png,,,,,,,,,,,,,,,,,,,,,,
,,,,,,,,,,,,,,,,,199912,19,2022-01-28_14h49.41.122,lexical_decision_task_DD_L6,2021.2.3,MacIntel,60.0024001,,,,,,,,,,,0.6684,1,,,,,,,,,,,,,,m,1,0.6684,,,,,,,,-0.033324653,-0.3978125,0,0,0,,0,5,5,33,1,SAUNA,LB,old,m,./images/SAUNALB.png,,,,,,,,,,,,,,,,,,,,,,
,,,,,,,,,,,,,,,,,199912,19,2022-01-28_14h49.41.122,lexical_decision_task_DD_L6,2021.2.3,MacIntel,60.0024001,,,,,,,,,,,0.7777,1,,,,,,,,,,,,,,z,1,0.7777,,,,,,,,-0.033324653,-0.3978125,0,0,0,,0,6,6,167,1,ZONET,LB,old,z,./images/ZONETLB.png,,,,,,,,,,,,,,,,,,,,,,
,,,,,,,,,,,,,,,,,199912,19,2022-01-28_14h49.41.122,lexical_decision_task_DD_L6,2021.2.3,MacIntel,60.0024001,,,,,,,,,,,0.7407,1,,,,,,,,,,,,,,z,1,0.7407,,,,,,,,-0.033324653,-0.3978125,0,0,0,,0,7,7,147,1,ZOLES,C,old,z,./images/ZOLES.png,,,,,,,,,,,,,,,,,,,,,,
,,,,,,,,,,,,,,,,,199912,19,2022-01-28_14h49.41.122,lexical_decision_task_DD_L6,2021.2.3,MacIntel,60.0024001,,,,,,,,,,,1.3327,1,,,,,,,,,,,,,,z,1,1.3327,,,,,,,,-0.033324653,-0.3978125,0,0,0,,0,8,8,163,1,GAMBA,HB,old,z,./images/GAMBAHB.png,,,,,,,,,,,,,,,,,,,,,,
,,,,,,,,,,,,,,,,,199912,19,2022-01-28_14h49.41.122,lexical_decision_task_DD_L6,2021.2.3,MacIntel,60.0024001,,,,,,,,,,,0.6905,1,,,,,,,,,,,,,,m,1,0.6905,,,,,,,,-0.033324653,-0.3978125,0,0,0,,0,9,9,79,1,RULER,C,old,m,./images/RULER.png,,,,,,,,,,,,,,,,,,,,,,
,,,,,,,,,,,,,,,,,199912,19,2022-01-28_14h49.41.122,lexical_decision_task_DD_L6,2021.2.3,MacIntel,60.0024001,,,,,,,,,,,0.748,0,,,,,,,,,,,,,,m,0,0.748,,,,,,,,-0.033324653,-0.3978125,0,0,0,,0,10,10,124,1,TUNCH,HB,old,z,./images/TUNCHHB.png,,,,,,,,,,,,,,,,,,,,,,
,,,,,,,,,,,,,,,,,199912,19,2022-01-28_14h49.41.122,lexical_decision_task_DD_L6,2021.2.3,MacIntel,60.0024001,,,,,,,,,,,1.3699,1,,,,,,,,,,,,,,m,1,1.3699,,,,,,,,-0.033324653,-0.3978125,0,0,0,,0,11,11,71,1,BUBBLE,HB,old,m,./images/BUBBLEHB.png,,,,,,,,,,,,,,,,,,,,,,
,,,,,,,,,,,,,,,,,199912,19,2022-01-28_14h49.41.122,lexical_decision_task_DD_L6,2021.2.3,MacIntel,60.0024001,,,,,,,,,,,0.8992,1,,,,,,,,,,,,,,m,1,0.8992,,,,,,,,-0.033324653,-0.3978125,0,0,0,,0,12,12,3,1,CRATER,LB,old,m,./images/CRATERLB.png,,,,,,,,,,,,,,,,,,,,,,
,,,,,,,,,,,,,,,,,199912,19,2022-01-28_14h49.41.122,lexical_decision_task_DD_L6,2021.2.3,MacIntel,60.0024001,,,,,,,,,,,0.5855,1,,,,,,,,,,,,,,z,1,0.5855,,,,,,,,-0.033324653,-0.3978125,0,0,0,,0,13,13,156,1,HIXES,C,old,z,./images/HIXES.png,,,,,,,,,,,,,,,,,,,,,,
,,,,,,,,,,,,,,,,,199912,19,2022-01-28_14h49.41.122,lexical_decision_task_DD_L6,2021.2.3,MacIntel,60.0024001,,,,,,,,,,,0.8848,1,,,,,,,,,,,,,,z,1,0.8848,,,,,,,,-0.033324653,-0.3978125,0,0,0,,0,14,14,95,1,HANTY,LB,old,z,./images/HANTYLB.png,,,,,,,,,,,,,,,,,,,,,,
,,,,,,,,,,,,,,,,,199912,19,2022-01-28_14h49.41.122,lexical_decision_task_DD_L6,2021.2.3,MacIntel,60.0024001,,,,,,,,,,,0.6914,1,,,,,,,,,,,,,,z,1,0.6914,,,,,,,,-0.033324653,-0.3978125,0,0,0,,0,15,15,132,1,SCIFF,C,old,z,./images/SCIFF.png,,,,,,,,,,,,,,,,,,,,,,
,,,,,,,,,,,,,,,,,199912,19,2022-01-28_14h49.41.122,lexical_decision_task_DD_L6,2021.2.3,MacIntel,60.0024001,,,,,,,,,,,1.3007,0,,,,,,,,,,,,,,m,0,1.3007,,,,,,,,-0.033324653,-0.3978125,0,0,0,,0,16,16,110,1,CRUNK,LB,old,z,./images/CRUNKLB.png,,,,,,,,,,,,,,,,,,,,,,
,,,,,,,,,,,,,,,,,199912,19,2022-01-28_14h49.41.122,lexical_decision_task_DD_L6,2021.2.3,MacIntel,60.0024001,,,,,,,,,,,0.9957,1,,,,,,,,,,,,,,z,1,0.9957,,,,,,,,-0.033324653,-0.3978125,0,0,0,,0,17,17,137,1,JOOST,LB,old,z,./images/JOOSTLB.png,,,,,,,,,,,,,,,,,,,,,,
,,,,,,,,,,,,,,,,,199912,19,2022-01-28_14h49.41.122,lexical_decision_task_DD_L6,2021.2.3,MacIntel,60.0024001,,,,,,,,,,,0.8404,1,,,,,,,,,,,,,,z,1,0.8404,,,,,,,,-0.033324653,-0.3978125,0,0,0,,0,18,18,102,1,DULLE,C,old,z,./images/DULLE.png,,,,,,,,,,,,,,,,,,,,,,
,,,,,,,,,,,,,,,,,199912,19,2022-01-28_14h49.41.122,lexical_decision_task_DD_L6,2021.2.3,MacIntel,60.0024001,,,,,,,,,,,0.8096,1,,,,,,,,,,,,,,m,1,0.8096,,,,,,,,-0.033324653,-0.3978125,0,0,0,,0,19,19,21,1,DANCER,LB,old,m,./images/DANCERLB.png,,,,,,,,,,,,,,,,,,,,,,
,,,,,,,,,,,,,,,,,199912,19,2022-01-28_14h49.41.122,lexical_decision_task_DD_L6,2021.2.3,MacIntel,60.0024001,,,,,,,,,,,0.6508,1,,,,,,,,,,,,,,m,1,0.6508,,,,,,,,-0.033324653,-0.3978125,0,0,0,,0,20,20,54,1,CHERRY,LB,old,m,./images/CHERRYLB.png,,,,,,,,,,,,,,,,,,,,,,
,,,,,,,,,,,,,,,,,199912,19,2022-01-28_14h49.41.122,lexical_decision_task_DD_L6,2021.2.3,MacIntel,60.0024001,,,,,,,,,,,0.7138,0,,,,,,,,,,,,,,z,0,0.7138,,,,,,,,-0.033324653,-0.3978125,0,0,0,,0,21,21,57,1,FERRY,LB,old,m,./images/FERRYLB.png,,,,,,,,,,,,,,,,,,,,,,
,,,,,,,,,,,,,,,,,199912,19,2022-01-28_14h49.41.122,lexical_decision_task_DD_L6,2021.2.3,MacIntel,60.0024001,,,,,,,,,,,0.9543,1,,,,,,,,,,,,,,m,1,0.9543,,,,,,,,-0.033324653,-0.3978125,0,0,0,,0,22,22,29,1,PISTOL,HB,old,m,./images/PISTOLHB.png,,,,,,,,,,,,,,,,,,,,,,
,,,,,,,,,,,,,,,,,199912,19,2022-01-28_14h49.41.122,lexical_decision_task_DD_L6,2021.2.3,MacIntel,60.0024001,,,,,,,,,,,1.033,1,,,,,,,,,,,,,,m,1,1.033,,,,,,,,-0.033324653,-0.3978125,0,0,0,,0,23,23,77,1,WHEEL,HB,old,m,./images/WHEELHB.png,,,,,,,,,,,,,,,,,,,,,,
,,,,,,,,,,,,,,,,,199912,19,2022-01-28_14h49.41.122,lexical_decision_task_DD_L6,2021.2.3,MacIntel,60.0024001,,,,,,,,,,,0.9802,1,,,,,,,,,,,,,,m,1,0.9802,,,,,,,,-0.033324653,-0.3978125,0,0,0,,0,24,24,67,1,POKER,C,old,m,./images/POKER.png,,,,,,,,,,,,,,,,,,,,,,
,,,,,,,,,,,,,,,,,199912,19,2022-01-28_14h49.41.122,lexical_decision_task_DD_L6,2021.2.3,MacIntel,60.0024001,,,,,,,,,,,1.0177,1,,,,,,,,,,,,,,m,1,1.0177,,,,,,,,-0.033324653,-0.3978125,0,0,0,,0,25,25,62,1,MAMMAL,HB,old,m,./images/MAMMALHB.png,,,,,,,,,,,,,,,,,,,,,,
,,,,,,,,,,,,,,,,,199912,19,2022-01-28_14h49.41.122,lexical_decision_task_DD_L6,2021.2.3,MacIntel,60.0024001,,,,,,,,,,,1.1171,1,,,,,,,,,,,,,,z,1,1.1171,,,,,,,,-0.033324653,-0.3978125,0,0,0,,0,26,26,166,1,SHORY,HB,old,z,./images/SHORYHB.png,,,,,,,,,,,,,,,,,,,,,,
,,,,,,,,,,,,,,,,,199912,19,2022-01-28_14h49.41.122,lexical_decision_task_DD_L6,2021.2.3,MacIntel,60.0024001,,,,,,,,,,,0.8136,1,,,,,,,,,,,,,,m,1,0.8136,,,,,,,,-0.033324653,-0.3978125,0,0,0,,0,27,27,50,1,PILOT,HB,old,m,./images/PILOTHB.png,,,,,,,,,,,,,,,,,,,,,,
,,,,,,,,,,,,,,,,,199912,19,2022-01-28_14h49.41.122,lexical_decision_task_DD_L6,2021.2.3,MacIntel,60.0024001,,,,,,,,,,,0.765,1,,,,,,,,,,,,,,m,1,0.765,,,,,,,,-0.033324653,-0.3978125,0,0,0,,0,28,28,47,1,LAGOON,HB,old,m,./images/LAGOONHB.png,,,,,,,,,,,,,,,,,,,,,,
,,,,,,,,,,,,,,,,,199912,19,2022-01-28_14h49.41.122,lexical_decision_task_DD_L6,2021.2.3,MacIntel,60.0024001,,,,,,,,,,,0.8451,1,,,,,,,,,,,,,,z,1,0.8451,,,,,,,,-0.033324653,-0.3978125,0,0,0,,0,29,29,116,1,BALGY,LB,old,z,./images/BALGYLB.png,,,,,,,,,,,,,,,,,,,,,,
,,,,,,,,,,,,,,,,,199912,19,2022-01-28_14h49.41.122,lexical_decision_task_DD_L6,2021.2.3,MacIntel,60.0024001,,,,,,,,,,,1.2964,1,,,,,,,,,,,,,,z,1,1.2964,,,,,,,,-0.033324653,-0.3978125,0,0,0,,0,30,30,130,1,CRILL,HB,old,z,./images/CRILLHB.png,,,,,,,,,,,,,,,,,,,,,,
,,,,,,,,,,,,,,,,,199912,19,2022-01-28_14h49.41.122,lexical_decision_task_DD_L6,2021.2.3,MacIntel,60.0024001,,,,,,,,,,,0.8223,0,,,,,,,,,,,,,,z,0,0.8223,,,,,,,,-0.033324653,-0.3978125,0,0,0,,0,31,31,12,1,BLOKE,LB,old,m,./images/BLOKELB.png,,,,,,,,,,,,,,,,,,,,,,
,,,,,,,,,,,,,,,,,199912,19,2022-01-28_14h49.41.122,lexical_decision_task_DD_L6,2021.2.3,MacIntel,60.0024001,,,,,,,,,,,0.8643,1,,,,,,,,,,,,,,z,1,0.8643,,,,,,,,-0.033324653,-0.3978125,0,0,0,,0,32,32,131,1,NACES,LB,old,z,./images/NACESLB.png,,,,,,,,,,,,,,,,,,,,,,
,,,,,,,,,,,,,,,,,199912,19,2022-01-28_14h49.41.122,lexical_decision_task_DD_L6,2021.2.3,MacIntel,60.0024001,,,,,,,,,,,0.7559,1,,,,,,,,,,,,,,z,1,0.7559,,,,,,,,-0.033324653,-0.3978125,0,0,0,,0,33,33,144,1,NAIRY,C,old,z,./images/NAIRY.png,,,,,,,,,,,,,,,,,,,,,,
,,,,,,,,,,,,,,,,,199912,19,2022-01-28_14h49.41.122,lexical_decision_task_DD_L6,2021.2.3,MacIntel,60.0024001,,,,,,,,,,,1.1783,0,,,,,,,,,,,,,,m,0,1.1783,,,,,,,,-0.033324653,-0.3978125,0,0,0,,0,34,34,91,1,SHENS,HB,old,z,./images/SHENSHB.png,,,,,,,,,,,,,,,,,,,,,,
,,,,,,,,,,,,,,,,,199912,19,2022-01-28_14h49.41.122,lexical_decision_task_DD_L6,2021.2.3,MacIntel,60.0024001,,,,,,,,,,,1.5445,1,,,,,,,,,,,,,,z,1,1.5445,,,,,,,,-0.033324653,-0.3978125,0,0,0,,0,35,35,154,1,THINT,HB,old,z,./images/THINTHB.png,,,,,,,,,,,,,,,,,,,,,,
,,,,,,,,,,,,,,,,,199912,19,2022-01-28_14h49.41.122,lexical_decision_task_DD_L6,2021.2.3,MacIntel,60.0024001,,,,,,,,,,,1.8085,1,,,,,,,,,,,,,,z,1,1.8085,,,,,,,,-0.033324653,-0.3978125,0,0,0,,0,36,36,115,1,MAWNS,HB,old,z,./images/MAWNSHB.png,,,,,,,,,,,,,,,,,,,,,,
,,,,,,,,,,,,,,,,,199912,19,2022-01-28_14h49.41.122,lexical_decision_task_DD_L6,2021.2.3,MacIntel,60.0024001,,,,,,,,,,,0.6232,1,,,,,,,,,,,,,,m,1,0.6232,,,,,,,,-0.033324653,-0.3978125,0,0,0,,0,37,37,10,1,GARDEN,C,old,m,./images/GARDEN.png,,,,,,,,,,,,,,,,,,,,,,
,,,,,,,,,,,,,,,,,199912,19,2022-01-28_14h49.41.122,lexical_decision_task_DD_L6,2021.2.3,MacIntel,60.0024001,,,,,,,,,,,0.691,1,,,,,,,,,,,,,,z,1,0.691,,,,,,,,-0.033324653,-0.3978125,0,0,0,,0,38,38,114,1,RIKES,C,old,z,./images/RIKES.png,,,,,,,,,,,,,,,,,,,,,,
,,,,,,,,,,,,,,,,,199912,19,2022-01-28_14h49.41.122,lexical_decision_task_DD_L6,2021.2.3,MacIntel,60.0024001,,,,,,,,,,,0.7014,1,,,,,,,,,,,,,,m,1,0.7014,,,,,,,,-0.033324653,-0.3978125,0,0,0,,0,39,39,60,1,CURRY,LB,old,m,./images/CURRYLB.png,,,,,,,,,,,,,,,,,,,,,,
,,,,,,,,,,,,,,,,,199912,19,2022-01-28_14h49.41.122,lexical_decision_task_DD_L6,2021.2.3,MacIntel,60.0024001,,,,,,,,,,,0.9588,1,,,,,,,,,,,,,,z,1,0.9588,,,,,,,,-0.033324653,-0.3978125,0,0,0,,0,40,40,120,1,RINED,C,old,z,./images/RINED.png,,,,,,,,,,,,,,,,,,,,,,
,,,,,,,,,,,,,,,,,199912,19,2022-01-28_14h49.41.122,lexical_decision_task_DD_L6,2021.2.3,MacIntel,60.0024001,,,,,,,,,,,1.1893,0,,,,,,,,,,,,,,m,0,1.1893,,,,,,,,-0.076150174,-0.40469184,1,0,0,,0,41,41,109,1,BURGE,HB,old,z,./images/BURGEHB.png,break_done_button,,,,,,,,,,,,,,,,,,,,,
,,,,,,,,,,,,,,,,,199912,19,2022-01-28_14h49.41.122,lexical_decision_task_DD_L6,2021.2.3,MacIntel,60.0024001,,,,,,,,,,,0.9964,1,,,,,,,,,,,,,,z,1,0.9964,,,,,,,,-0.076150174,-0.40469184,0,0,0,,0,42,42,125,1,MOOKY,LB,old,z,./images/MOOKYLB.png,,,,,,,,,,,,,,,,,,,,,,
,,,,,,,,,,,,,,,,,199912,19,2022-01-28_14h49.41.122,lexical_decision_task_DD_L6,2021.2.3,MacIntel,60.0024001,,,,,,,,,,,1.1044,1,,,,,,,,,,,,,,m,1,1.1044,,,,,,,,-0.076150174,-0.40469184,0,0,0,,0,43,43,32,1,HOCKEY,HB,old,m,./images/HOCKEYHB.png,,,,,,,,,,,,,,,,,,,,,,
,,,,,,,,,,,,,,,,,199912,19,2022-01-28_14h49.41.122,lexical_decision_task_DD_L6,2021.2.3,MacIntel,60.0024001,,,,,,,,,,,2.0371,0,,,,,,,,,,,,,,m,0,2.0371,,,,,,,,-0.076150174,-0.40469184,0,0,0,,0,44,44,94,1,BLANS,HB,old,z,./images/BLANSHB.png,,,,,,,,,,,,,,,,,,,,,,
,,,,,,,,,,,,,,,,,199912,19,2022-01-28_14h49.41.122,lexical_decision_task_DD_L6,2021.2.3,MacIntel,60.0024001,,,,,,,,,,,0.5915,1,,,,,,,,,,,,,,z,1,0.5915,,,,,,,,-0.076150174,-0.40469184,0,0,0,,0,45,45,105,1,MOKER,C,old,z,./images/MOKER.png,,,,,,,,,,,,,,,,,,,,,,
,,,,,,,,,,,,,,,,,199912,19,2022-01-28_14h49.41.122,lexical_decision_task_DD_L6,2021.2.3,MacIntel,60.0024001,,,,,,,,,,,1.1744,1,,,,,,,,,,,,,,z,1,1.1744,,,,,,,,-0.076150174,-0.40469184,0,0,0,,0,46,46,165,1,TROWN,C,old,z,./images/TROWN.png,,,,,,,,,,,,,,,,,,,,,,
,,,,,,,,,,,,,,,,,199912,19,2022-01-28_14h49.41.122,lexical_decision_task_DD_L6,2021.2.3,MacIntel,60.0024001,,,,,,,,,,,1.0424,1,,,,,,,,,,,,,,m,1,1.0424,,,,,,,,-0.076150174,-0.40469184,0,0,0,,0,47,47,38,1,ENGINE,HB,old,m,./images/ENGINEHB.png,,,,,,,,,,,,,,,,,,,,,,
,,,,,,,,,,,,,,,,,199912,19,2022-01-28_14h49.41.122,lexical_decision_task_DD_L6,2021.2.3,MacIntel,60.0024001,,,,,,,,,,,0.7145,1,,,,,,,,,,,,,,z,1,0.7145,,,,,,,,-0.076150174,-0.40469184,0,0,0,,0,48,48,87,1,TRING,C,old,z,./images/TRING.png,,,,,,,,,,,,,,,,,,,,,,
,,,,,,,,,,,,,,,,,199912,19,2022-01-28_14h49.41.122,lexical_decision_task_DD_L6,2021.2.3,MacIntel,60.0024001,,,,,,,,,,,0.7769,1,,,,,,,,,,,,,,z,1,0.7769,,,,,,,,-0.076150174,-0.40469184,0,0,0,,0,49,49,138,1,PLICE,C,old,z,./images/PLICE.png,,,,,,,,,,,,,,,,,,,,,,
,,,,,,,,,,,,,,,,,199912,19,2022-01-28_14h49.41.122,lexical_decision_task_DD_L6,2021.2.3,MacIntel,60.0024001,,,,,,,,,,,0.9533,1,,,,,,,,,,,,,,z,1,0.9533,,,,,,,,-0.076150174,-0.40469184,0,0,0,,0,50,50,145,1,LAMEL,HB,old,z,./images/LAMELHB.png,,,,,,,,,,,,,,,,,,,,,,
,,,,,,,,,,,,,,,,,199912,19,2022-01-28_14h49.41.122,lexical_decision_task_DD_L6,2021.2.3,MacIntel,60.0024001,,,,,,,,,,,0.7841,1,,,,,,,,,,,,,,z,1,0.7841,,,,,,,,-0.076150174,-0.40469184,0,0,0,,0,51,51,152,1,FRAIN,LB,old,z,./images/FRAINLB.png,,,,,,,,,,,,,,,,,,,,,,
,,,,,,,,,,,,,,,,,199912,19,2022-01-28_14h49.41.122,lexical_decision_task_DD_L6,2021.2.3,MacIntel,60.0024001,,,,,,,,,,,1.1997,1,,,,,,,,,,,,,,z,1,1.1997,,,,,,,,-0.076150174,-0.40469184,0,0,0,,0,52,52,139,1,BLEAR,HB,old,z,./images/BLEARHB.png,,,,,,,,,,,,,,,,,,,,,,
,,,,,,,,,,,,,,,,,199912,19,2022-01-28_14h49.41.122,lexical_decision_task_DD_L6,2021.2.3,MacIntel,60.0024001,,,,,,,,,,,0.9654,1,,,,,,,,,,,,,,m,1,0.9654,,,,,,,,-0.076150174,-0.40469184,0,0,0,,0,53,53,14,1,FENCE,HB,old,m,./images/FENCEHB.png,,,,,,,,,,,,,,,,,,,,,,
,,,,,,,,,,,,,,,,,199912,19,2022-01-28_14h49.41.122,lexical_decision_task_DD_L6,2021.2.3,MacIntel,60.0024001,,,,,,,,,,,0.7833,1,,,,,,,,,,,,,,m,1,0.7833,,,,,,,,-0.076150174,-0.40469184,0,0,0,,0,54,54,48,1,SHIELD,LB,old,m,./images/SHIELDLB.png,,,,,,,,,,,,,,,,,,,,,,
,,,,,,,,,,,,,,,,,199912,19,2022-01-28_14h49.41.122,lexical_decision_task_DD_L6,2021.2.3,MacIntel,60.0024001,,,,,,,,,,,0.785,1,,,,,,,,,,,,,,z,1,0.785,,,,,,,,-0.076150174,-0.40469184,0,0,0,,0,55,55,126,1,GUELS,C,old,z,./images/GUELS.png,,,,,,,,,,,,,,,,,,,,,,
,,,,,,,,,,,,,,,,,199912,19,2022-01-28_14h49.41.122,lexical_decision_task_DD_L6,2021.2.3,MacIntel,60.0024001,,,,,,,,,,,0.8348,1,,,,,,,,,,,,,,z,1,0.8348,,,,,,,,-0.076150174,-0.40469184,0,0,0,,0,56,56,98,1,BAMPS,LB,old,z,./images/BAMPSLB.png,,,,,,,,,,,,,,,,,,,,,,
,,,,,,,,,,,,,,,,,199912,19,2022-01-28_14h49.41.122,lexical_decision_task_DD_L6,2021.2.3,MacIntel,60.0024001,,,,,,,,,,,1.4013,1,,,,,,,,,,,,,,z,1,1.4013,,,,,,,,-0.076150174,-0.40469184,0,0,0,,0,57,57,157,1,INLER,HB,old,z,./images/INLERHB.png,,,,,,,,,,,,,,,,,,,,,,
,,,,,,,,,,,,,,,,,199912,19,2022-01-28_14h49.41.122,lexical_decision_task_DD_L6,2021.2.3,MacIntel,60.0024001,,,,,,,,,,,0.964,1,,,,,,,,,,,,,,z,1,0.964,,,,,,,,-0.076150174,-0.40469184,0,0,0,,0,58,58,123,1,SEDGE,C,old,z,./images/SEDGE.png,,,,,,,,,,,,,,,,,,,,,,
,,,,,,,,,,,,,,,,,199912,19,2022-01-28_14h49.41.122,lexical_decision_task_DD_L6,2021.2.3,MacIntel,60.0024001,,,,,,,,,,,1.133,1,,,,,,,,,,,,,,z,1,1.133,,,,,,,,-0.076150174,-0.40469184,0,0,0,,0,59,59,90,1,NEAST,C,old,z,./images/NEAST.png,,,,,,,,,,,,,,,,,,,,,,
,,,,,,,,,,,,,,,,,199912,19,2022-01-28_14h49.41.122,lexical_decision_task_DD_L6,2021.2.3,MacIntel,60.0024001,,,,,,,,,,,1.3672,1,,,,,,,,,,,,,,z,1,1.3672,,,,,,,,-0.076150174,-0.40469184,0,0,0,,0,60,60,97,1,CHIDS,HB,old,z,./images/CHIDSHB.png,,,,,,,,,,,,,,,,,,,,,,
,,,,,,,,,,,,,,,,,199912,19,2022-01-28_14h49.41.122,lexical_decision_task_DD_L6,2021.2.3,MacIntel,60.0024001,,,,,,,,,,,0.6563,1,,,,,,,,,,,,,,m,1,0.6563,,,,,,,,-0.076150174,-0.40469184,0,0,0,,0,61,61,49,1,BISHOP,C,old,m,./images/BISHOP.png,,,,,,,,,,,,,,,,,,,,,,
,,,,,,,,,,,,,,,,,199912,19,2022-01-28_14h49.41.122,lexical_decision_task_DD_L6,2021.2.3,MacIntel,60.0024001,,,,,,,,,,,0.5067,1,,,,,,,,,,,,,,m,1,0.5067,,,,,,,,-0.076150174,-0.40469184,0,0,0,,0,62,62,73,1,GLOVE,C,old,m,./images/GLOVE.png,,,,,,,,,,,,,,,,,,,,,,
,,,,,,,,,,,,,,,,,199912,19,2022-01-28_14h49.41.122,lexical_decision_task_DD_L6,2021.2.3,MacIntel,60.0024001,,,,,,,,,,,0.775,1,,,,,,,,,,,,,,z,1,0.775,,,,,,,,-0.076150174,-0.40469184,0,0,0,,0,63,63,153,1,CLUPS,C,old,z,./images/CLUPS.png,,,,,,,,,,,,,,,,,,,,,,
,,,,,,,,,,,,,,,,,199912,19,2022-01-28_14h49.41.122,lexical_decision_task_DD_L6,2021.2.3,MacIntel,60.0024001,,,,,,,,,,,0.7736,1,,,,,,,,,,,,,,m,1,0.7736,,,,,,,,-0.076150174,-0.40469184,0,0,0,,0,64,64,7,1,WAGON,C,old,m,./images/WAGON.png,,,,,,,,,,,,,,,,,,,,,,
,,,,,,,,,,,,,,,,,199912,19,2022-01-28_14h49.41.122,lexical_decision_task_DD_L6,2021.2.3,MacIntel,60.0024001,,,,,,,,,,,0.6489,1,,,,,,,,,,,,,,m,1,0.6489,,,,,,,,-0.076150174,-0.40469184,0,0,0,,0,65,65,27,1,BUTTER,LB,old,m,./images/BUTTERLB.png,,,,,,,,,,,,,,,,,,,,,,
,,,,,,,,,,,,,,,,,199912,19,2022-01-28_14h49.41.122,lexical_decision_task_DD_L6,2021.2.3,MacIntel,60.0024001,,,,,,,,,,,0.6611,1,,,,,,,,,,,,,,m,1,0.6611,,,,,,,,-0.076150174,-0.40469184,0,0,0,,0,66,66,0,1,WALNUT,LB,old,m,./images/WALNUTLB.png,,,,,,,,,,,,,,,,,,,,,,
,,,,,,,,,,,,,,,,,199912,19,2022-01-28_14h49.41.122,lexical_decision_task_DD_L6,2021.2.3,MacIntel,60.0024001,,,,,,,,,,,0.6671,1,,,,,,,,,,,,,,m,1,0.6671,,,,,,,,-0.076150174,-0.40469184,0,0,0,,0,67,67,56,1,HEATER,HB,old,m,./images/HEATERHB.png,,,,,,,,,,,,,,,,,,,,,,
,,,,,,,,,,,,,,,,,199912,19,2022-01-28_14h49.41.122,lexical_decision_task_DD_L6,2021.2.3,MacIntel,60.0024001,,,,,,,,,,,0.6074,1,,,,,,,,,,,,,,m,1,0.6074,,,,,,,,-0.076150174,-0.40469184,0,0,0,,0,68,68,37,1,TIGER,C,old,m,./images/TIGER.png,,,,,,,,,,,,,,,,,,,,,,
,,,,,,,,,,,,,,,,,199912,19,2022-01-28_14h49.41.122,lexical_decision_task_DD_L6,2021.2.3,MacIntel,60.0024001,,,,,,,,,,,0.9073,1,,,,,,,,,,,,,,m,1,0.9073,,,,,,,,-0.076150174,-0.40469184,0,0,0,,0,69,69,42,1,CHAIN,LB,old,m,./images/CHAINLB.png,,,,,,,,,,,,,,,,,,,,,,
,,,,,,,,,,,,,,,,,199912,19,2022-01-28_14h49.41.122,lexical_decision_task_DD_L6,2021.2.3,MacIntel,60.0024001,,,,,,,,,,,0.7207,1,,,,,,,,,,,,,,m,1,0.7207,,,,,,,,-0.076150174,-0.40469184,0,0,0,,0,70,70,66,1,STATUE,LB,old,m,./images/STATUELB.png,,,,,,,,,,,,,,,,,,,,,,
,,,,,,,,,,,,,,,,,199912,19,2022-01-28_14h49.41.122,lexical_decision_task_DD_L6,2021.2.3,MacIntel,60.0024001,,,,,,,,,,,0.6521,1,,,,,,,,,,,,,,m,1,0.6521,,,,,,,,-0.076150174,-0.40469184,0,0,0,,0,71,71,28,1,CASINO,C,old,m,./images/CASINO.png,,,,,,,,,,,,,,,,,,,,,,
,,,,,,,,,,,,,,,,,199912,19,2022-01-28_14h49.41.122,lexical_decision_task_DD_L6,2021.2.3,MacIntel,60.0024001,,,,,,,,,,,0.7388,1,,,,,,,,,,,,,,z,1,0.7388,,,,,,,,-0.076150174,-0.40469184,0,0,0,,0,72,72,159,1,CUDDY,C,old,z,./images/CUDDY.png,,,,,,,,,,,,,,,,,,,,,,
,,,,,,,,,,,,,,,,,199912,19,2022-01-28_14h49.41.122,lexical_decision_task_DD_L6,2021.2.3,MacIntel,60.0024001,,,,,,,,,,,1.104,1,,,,,,,,,,,,,,m,1,1.104,,,,,,,,-0.076150174,-0.40469184,0,0,0,,0,73,73,83,1,WHISKY,HB,old,m,./images/WHISKYHB.png,,,,,,,,,,,,,,,,,,,,,,
,,,,,,,,,,,,,,,,,199912,19,2022-01-28_14h49.41.122,lexical_decision_task_DD_L6,2021.2.3,MacIntel,60.0024001,,,,,,,,,,,0.615,1,,,,,,,,,,,,,,m,1,0.615,,,,,,,,-0.076150174,-0.40469184,0,0,0,,0,74,74,36,1,BOILER,LB,old,m,./images/BOILERLB.png,,,,,,,,,,,,,,,,,,,,,,
,,,,,,,,,,,,,,,,,199912,19,2022-01-28_14h49.41.122,lexical_decision_task_DD_L6,2021.2.3,MacIntel,60.0024001,,,,,,,,,,,0.6219,1,,,,,,,,,,,,,,z,1,0.6219,,,,,,,,-0.076150174,-0.40469184,0,0,0,,0,75,75,150,1,NOOLS,C,old,z,./images/NOOLS.png,,,,,,,,,,,,,,,,,,,,,,
,,,,,,,,,,,,,,,,,199912,19,2022-01-28_14h49.41.122,lexical_decision_task_DD_L6,2021.2.3,MacIntel,60.0024001,,,,,,,,,,,0.6028,1,,,,,,,,,,,,,,m,1,0.6028,,,,,,,,-0.076150174,-0.40469184,0,0,0,,0,76,76,70,1,BANANA,C,old,m,./images/BANANA.png,,,,,,,,,,,,,,,,,,,,,,
,,,,,,,,,,,,,,,,,199912,19,2022-01-28_14h49.41.122,lexical_decision_task_DD_L6,2021.2.3,MacIntel,60.0024001,,,,,,,,,,,0.5751,1,,,,,,,,,,,,,,m,1,0.5751,,,,,,,,-0.076150174,-0.40469184,0,0,0,,0,77,77,72,1,FLASK,LB,old,m,./images/FLASKLB.png,,,,,,,,,,,,,,,,,,,,,,
,,,,,,,,,,,,,,,,,199912,19,2022-01-28_14h49.41.122,lexical_decision_task_DD_L6,2021.2.3,MacIntel,60.0024001,,,,,,,,,,,0.7595,1,,,,,,,,,,,,,,m,1,0.7595,,,,,,,,-0.076150174,-0.40469184,0,0,0,,0,78,78,13,1,BUNNY,C,old,m,./images/BUNNY.png,,,,,,,,,,,,,,,,,,,,,,
,,,,,,,,,,,,,,,,,199912,19,2022-01-28_14h49.41.122,lexical_decision_task_DD_L6,2021.2.3,MacIntel,60.0024001,,,,,,,,,,,0.6066,1,,,,,,,,,,,,,,m,1,0.6066,,,,,,,,-0.076150174,-0.40469184,0,0,0,,0,79,79,40,1,SNAKE,C,old,m,./images/SNAKE.png,,,,,,,,,,,,,,,,,,,,,,
,,,,,,,,,,,,,,,,,199912,19,2022-01-28_14h49.41.122,lexical_decision_task_DD_L6,2021.2.3,MacIntel,60.0024001,,,,,,,,,,,0.6849,1,,,,,,,,,,,,,,z,1,0.6849,,,,,,,,-0.076150174,-0.40469184,0,0,0,,0,80,80,119,1,PAFER,LB,old,z,./images/PAFERLB.png,,,,,,,,,,,,,,,,,,,,,,
,,,,,,,,,,,,,,,,,199912,19,2022-01-28_14h49.41.122,lexical_decision_task_DD_L6,2021.2.3,MacIntel,60.0024001,,,,,,,,,,,0.9755,1,,,,,,,,,,,,,,m,1,0.9755,,,,,,,,-0.076150174,-0.40469184,0,0,0,,0,81,81,35,1,LLAMA,HB,old,m,./images/LLAMAHB.png,,,,,,,,,,,,,,,,,,,,,,
,,,,,,,,,,,,,,,,,199912,19,2022-01-28_14h49.41.122,lexical_decision_task_DD_L6,2021.2.3,MacIntel,60.0024001,,,,,,,,,,,1.2457,1,,,,,,,,,,,,,,z,1,1.2457,,,,,,,,-0.076150174,-0.40469184,0,0,0,,0,82,82,112,1,MYING,HB,old,z,./images/MYINGHB.png,,,,,,,,,,,,,,,,,,,,,,
,,,,,,,,,,,,,,,,,199912,19,2022-01-28_14h49.41.122,lexical_decision_task_DD_L6,2021.2.3,MacIntel,60.0024001,,,,,,,,,,,0.969,0,,,,,,,,,,,,,,m,0,0.969,,,,,,,,-0.092122396,-0.392990451,1,0,0,,0,83,83,121,1,CEERS,HB,old,z,./images/CEERSHB.png,break_done_button,,,,,,,,,,,,,,,,,,,,,
,,,,,,,,,,,,,,,,,199912,19,2022-01-28_14h49.41.122,lexical_decision_task_DD_L6,2021.2.3,MacIntel,60.0024001,,,,,,,,,,,1.5173,1,,,,,,,,,,,,,,m,1,1.5173,,,,,,,,-0.092122396,-0.392990451,0,0,0,,0,84,84,5,1,BAMBOO,HB,old,m,./images/BAMBOOHB.png,,,,,,,,,,,,,,,,,,,,,,
,,,,,,,,,,,,,,,,,199912,19,2022-01-28_14h49.41.122,lexical_decision_task_DD_L6,2021.2.3,MacIntel,60.0024001,,,,,,,,,,,0.8242,1,,,,,,,,,,,,,,m,1,0.8242,,,,,,,,-0.092122396,-0.392990451,0,0,0,,0,85,85,6,1,STAIN,LB,old,m,./images/STAINLB.png,,,,,,,,,,,,,,,,,,,,,,
,,,,,,,,,,,,,,,,,199912,19,2022-01-28_14h49.41.122,lexical_decision_task_DD_L6,2021.2.3,MacIntel,60.0024001,,,,,,,,,,,1.3502,1,,,,,,,,,,,,,,z,1,1.3502,,,,,,,,-0.092122396,-0.392990451,0,0,0,,0,86,86,100,1,DRIBS,HB,old,z,./images/DRIBSHB.png,,,,,,,,,,,,,,,,,,,,,,
,,,,,,,,,,,,,,,,,199912,19,2022-01-28_14h49.41.122,lexical_decision_task_DD_L6,2021.2.3,MacIntel,60.0024001,,,,,,,,,,,0.5136,1,,,,,,,,,,,,,,m,1,0.5136,,,,,,,,-0.092122396,-0.392990451,0,0,0,,0,87,87,45,1,MONKEY,LB,old,m,./images/MONKEYLB.png,,,,,,,,,,,,,,,,,,,,,,
,,,,,,,,,,,,,,,,,199912,19,2022-01-28_14h49.41.122,lexical_decision_task_DD_L6,2021.2.3,MacIntel,60.0024001,,,,,,,,,,,0.9051,1,,,,,,,,,,,,,,z,1,0.9051,,,,,,,,-0.092122396,-0.392990451,0,0,0,,0,88,88,122,1,BLOOT,LB,old,z,./images/BLOOTLB.png,,,,,,,,,,,,,,,,,,,,,,
,,,,,,,,,,,,,,,,,199912,19,2022-01-28_14h49.41.122,lexical_decision_task_DD_L6,2021.2.3,MacIntel,60.0024001,,,,,,,,,,,0.757,1,,,,,,,,,,,,,,m,1,0.757,,,,,,,,-0.092122396,-0.392990451,0,0,0,,0,89,89,63,1,BAKER,LB,old,m,./images/BAKERLB.png,,,,,,,,,,,,,,,,,,,,,,
,,,,,,,,,,,,,,,,,199912,19,2022-01-28_14h49.41.122,lexical_decision_task_DD_L6,2021.2.3,MacIntel,60.0024001,,,,,,,,,,,1.1062,1,,,,,,,,,,,,,,z,1,1.1062,,,,,,,,-0.092122396,-0.392990451,0,0,0,,0,90,90,106,1,CLUMS,HB,old,z,./images/CLUMSHB.png,,,,,,,,,,,,,,,,,,,,,,
,,,,,,,,,,,,,,,,,199912,19,2022-01-28_14h49.41.122,lexical_decision_task_DD_L6,2021.2.3,MacIntel,60.0024001,,,,,,,,,,,1.2161,1,,,,,,,,,,,,,,z,1,1.2161,,,,,,,,-0.092122396,-0.392990451,0,0,0,,0,91,91,160,1,VEETS,HB,old,z,./images/VEETSHB.png,,,,,,,,,,,,,,,,,,,,,,
,,,,,,,,,,,,,,,,,199912,19,2022-01-28_14h49.41.122,lexical_decision_task_DD_L6,2021.2.3,MacIntel,60.0024001,,,,,,,,,,,0.7345,0,,,,,,,,,,,,,,m,0,0.7345,,,,,,,,-0.092122396,-0.392990451,0,0,0,,0,92,92,142,1,PLASK,HB,old,z,./images/PLASKHB.png,,,,,,,,,,,,,,,,,,,,,,
,,,,,,,,,,,,,,,,,199912,19,2022-01-28_14h49.41.122,lexical_decision_task_DD_L6,2021.2.3,MacIntel,60.0024001,,,,,,,,,,,0.6976,0,,,,,,,,,,,,,,z,0,0.6976,,,,,,,,-0.092122396,-0.392990451,0,0,0,,0,93,93,30,1,SLOPE,LB,old,m,./images/SLOPELB.png,,,,,,,,,,,,,,,,,,,,,,
,,,,,,,,,,,,,,,,,199912,19,2022-01-28_14h49.41.122,lexical_decision_task_DD_L6,2021.2.3,MacIntel,60.0024001,,,,,,,,,,,0.6653,1,,,,,,,,,,,,,,m,1,0.6653,,,,,,,,-0.092122396,-0.392990451,0,0,0,,0,94,94,23,1,CLOTH,HB,old,m,./images/CLOTHHB.png,,,,,,,,,,,,,,,,,,,,,,
,,,,,,,,,,,,,,,,,199912,19,2022-01-28_14h49.41.122,lexical_decision_task_DD_L6,2021.2.3,MacIntel,60.0024001,,,,,,,,,,,0.7334,1,,,,,,,,,,,,,,z,1,0.7334,,,,,,,,-0.092122396,-0.392990451,0,0,0,,0,95,95,149,1,VEASE,LB,old,z,./images/VEASELB.png,,,,,,,,,,,,,,,,,,,,,,
,,,,,,,,,,,,,,,,,199912,19,2022-01-28_14h49.41.122,lexical_decision_task_DD_L6,2021.2.3,MacIntel,60.0024001,,,,,,,,,,,0.9024,1,,,,,,,,,,,,,,m,1,0.9024,,,,,,,,-0.092122396,-0.392990451,0,0,0,,0,96,96,76,1,MIDGET,C,old,m,./images/MIDGET.png,,,,,,,,,,,,,,,,,,,,,,
,,,,,,,,,,,,,,,,,199912,19,2022-01-28_14h49.41.122,lexical_decision_task_DD_L6,2021.2.3,MacIntel,60.0024001,,,,,,,,,,,0.8957,1,,,,,,,,,,,,,,z,1,0.8957,,,,,,,,-0.092122396,-0.392990451,0,0,0,,0,97,97,99,1,BACKY,C,old,z,./images/BACKY.png,,,,,,,,,,,,,,,,,,,,,,
,,,,,,,,,,,,,,,,,199912,19,2022-01-28_14h49.41.122,lexical_decision_task_DD_L6,2021.2.3,MacIntel,60.0024001,,,,,,,,,,,0.9831,1,,,,,,,,,,,,,,z,1,0.9831,,,,,,,,-0.092122396,-0.392990451,0,0,0,,0,98,98,118,1,BAVEL,HB,old,z,./images/BAVELHB.png,,,,,,,,,,,,,,,,,,,,,,
,,,,,,,,,,,,,,,,,199912,19,2022-01-28_14h49.41.122,lexical_decision_task_DD_L6,2021.2.3,MacIntel,60.0024001,,,,,,,,,,,0.9647,1,,,,,,,,,,,,,,z,1,0.9647,,,,,,,,-0.092122396,-0.392990451,0,0,0,,0,99,99,92,1,PAIMS,LB,old,z,./images/PAIMSLB.png,,,,,,,,,,,,,,,,,,,,,,
,,,,,,,,,,,,,,,,,199912,19,2022-01-28_14h49.41.122,lexical_decision_task_DD_L6,2021.2.3,MacIntel,60.0024001,,,,,,,,,,,0.6741,1,,,,,,,,,,,,,,m,1,0.6741,,,,,,,,-0.092122396,-0.392990451,0,0,0,,0,100,100,34,1,RAZOR,C,old,m,./images/RAZOR.png,,,,,,,,,,,,,,,,,,,,,,
,,,,,,,,,,,,,,,,,199912,19,2022-01-28_14h49.41.122,lexical_decision_task_DD_L6,2021.2.3,MacIntel,60.0024001,,,,,,,,,,,0.6411,1,,,,,,,,,,,,,,m,1,0.6411,,,,,,,,-0.092122396,-0.392990451,0,0,0,,0,101,101,24,1,FLESH,LB,old,m,./images/FLESHLB.png,,,,,,,,,,,,,,,,,,,,,,
,,,,,,,,,,,,,,,,,199912,19,2022-01-28_14h49.41.122,lexical_decision_task_DD_L6,2021.2.3,MacIntel,60.0024001,,,,,,,,,,,1.1689,1,,,,,,,,,,,,,,m,1,1.1689,,,,,,,,-0.092122396,-0.392990451,0,0,0,,0,102,102,20,1,GRANNY,HB,old,m,./images/GRANNYHB.png,,,,,,,,,,,,,,,,,,,,,,
,,,,,,,,,,,,,,,,,199912,19,2022-01-28_14h49.41.122,lexical_decision_task_DD_L6,2021.2.3,MacIntel,60.0024001,,,,,,,,,,,1.3589,0,,,,,,,,,,,,,,z,0,1.3589,,,,,,,,-0.092122396,-0.392990451,0,0,0,,0,103,103,59,1,BRUSH,HB,old,m,./images/BRUSHHB.png,,,,,,,,,,,,,,,,,,,,,,
,,,,,,,,,,,,,,,,,199912,19,2022-01-28_14h49.41.122,lexical_decision_task_DD_L6,2021.2.3,MacIntel,60.0024001,,,,,,,,,,,1.267,1,,,,,,,,,,,,,,z,1,1.267,,,,,,,,-0.092122396,-0.392990451,0,0,0,,0,104,104,88,1,GLUSH,HB,old,z,./images/GLUSHHB.png,,,,,,,,,,,,,,,,,,,,,,
,,,,,,,,,,,,,,,,,199912,19,2022-01-28_14h49.41.122,lexical_decision_task_DD_L6,2021.2.3,MacIntel,60.0024001,,,,,,,,,,,1.7841,1,,,,,,,,,,,,,,z,1,1.7841,,,,,,,,-0.092122396,-0.392990451,0,0,0,,0,105,105,127,1,NINDY,HB,old,z,./images/NINDYHB.png,,,,,,,,,,,,,,,,,,,,,,
,,,,,,,,,,,,,,,,,199912,19,2022-01-28_14h49.41.122,lexical_decision_task_DD_L6,2021.2.3,MacIntel,60.0024001,,,,,,,,,,,0.8207,1,,,,,,,,,,,,,,z,1,0.8207,,,,,,,,-0.092122396,-0.392990451,0,0,0,,0,106,106,113,1,LINEW,LB,old,z,./images/LINEWLB.png,,,,,,,,,,,,,,,,,,,,,,
,,,,,,,,,,,,,,,,,199912,19,2022-01-28_14h49.41.122,lexical_decision_task_DD_L6,2021.2.3,MacIntel,60.0024001,,,,,,,,,,,0.6337,1,,,,,,,,,,,,,,z,1,0.6337,,,,,,,,-0.092122396,-0.392990451,0,0,0,,0,107,107,164,1,SGREW,LB,old,z,./images/SGREWLB.png,,,,,,,,,,,,,,,,,,,,,,
,,,,,,,,,,,,,,,,,199912,19,2022-01-28_14h49.41.122,lexical_decision_task_DD_L6,2021.2.3,MacIntel,60.0024001,,,,,,,,,,,1.8115,1,,,,,,,,,,,,,,z,1,1.8115,,,,,,,,-0.092122396,-0.392990451,0,0,0,,0,108,108,85,1,CHULK,HB,old,z,./images/CHULKHB.png,,,,,,,,,,,,,,,,,,,,,,
,,,,,,,,,,,,,,,,,199912,19,2022-01-28_14h49.41.122,lexical_decision_task_DD_L6,2021.2.3,MacIntel,60.0024001,,,,,,,,,,,1.0603,1,,,,,,,,,,,,,,z,1,1.0603,,,,,,,,-0.092122396,-0.392990451,0,0,0,,0,109,109,107,1,FASKS,LB,old,z,./images/FASKSLB.png,,,,,,,,,,,,,,,,,,,,,,
,,,,,,,,,,,,,,,,,199912,19,2022-01-28_14h49.41.122,lexical_decision_task_DD_L6,2021.2.3,MacIntel,60.0024001,,,,,,,,,,,1.1157,1,,,,,,,,,,,,,,z,1,1.1157,,,,,,,,-0.092122396,-0.392990451,0,0,0,,0,110,110,134,1,TROSS,LB,old,z,./images/TROSSLB.png,,,,,,,,,,,,,,,,,,,,,,
,,,,,,,,,,,,,,,,,199912,19,2022-01-28_14h49.41.122,lexical_decision_task_DD_L6,2021.2.3,MacIntel,60.0024001,,,,,,,,,,,0.7404,1,,,,,,,,,,,,,,m,1,0.7404,,,,,,,,-0.092122396,-0.392990451,0,0,0,,0,111,111,1,1,TOWEL,C,old,m,./images/TOWEL.png,,,,,,,,,,,,,,,,,,,,,,
,,,,,,,,,,,,,,,,,199912,19,2022-01-28_14h49.41.122,lexical_decision_task_DD_L6,2021.2.3,MacIntel,60.0024001,,,,,,,,,,,0.7846,1,,,,,,,,,,,,,,z,1,0.7846,,,,,,,,-0.092122396,-0.392990451,0,0,0,,0,112,112,146,1,MOOST,LB,old,z,./images/MOOSTLB.png,,,,,,,,,,,,,,,,,,,,,,
,,,,,,,,,,,,,,,,,199912,19,2022-01-28_14h49.41.122,lexical_decision_task_DD_L6,2021.2.3,MacIntel,60.0024001,,,,,,,,,,,0.7123,1,,,,,,,,,,,,,,z,1,0.7123,,,,,,,,-0.092122396,-0.392990451,0,0,0,,0,113,113,129,1,PRANS,C,old,z,./images/PRANS.png,,,,,,,,,,,,,,,,,,,,,,
,,,,,,,,,,,,,,,,,199912,19,2022-01-28_14h49.41.122,lexical_decision_task_DD_L6,2021.2.3,MacIntel,60.0024001,,,,,,,,,,,0.704,1,,,,,,,,,,,,,,z,1,0.704,,,,,,,,-0.092122396,-0.392990451,0,0,0,,0,114,114,135,1,JOODY,C,old,z,./images/JOODY.png,,,,,,,,,,,,,,,,,,,,,,
,,,,,,,,,,,,,,,,,199912,19,2022-01-28_14h49.41.122,lexical_decision_task_DD_L6,2021.2.3,MacIntel,60.0024001,,,,,,,,,,,0.6072,1,,,,,,,,,,,,,,z,1,0.6072,,,,,,,,-0.092122396,-0.392990451,0,0,0,,0,115,115,96,1,KEAMS,C,old,z,./images/KEAMS.png,,,,,,,,,,,,,,,,,,,,,,
,,,,,,,,,,,,,,,,,199912,19,2022-01-28_14h49.41.122,lexical_decision_task_DD_L6,2021.2.3,MacIntel,60.0024001,,,,,,,,,,,1.2081,0,,,,,,,,,,,,,,z,0,1.2081,,,,,,,,-0.092122396,-0.392990451,0,0,0,,0,116,116,11,1,MEDAL,HB,old,m,./images/MEDALHB.png,,,,,,,,,,,,,,,,,,,,,,
,,,,,,,,,,,,,,,,,199912,19,2022-01-28_14h49.41.122,lexical_decision_task_DD_L6,2021.2.3,MacIntel,60.0024001,,,,,,,,,,,0.6162,1,,,,,,,,,,,,,,m,1,0.6162,,,,,,,,-0.092122396,-0.392990451,0,0,0,,0,117,117,51,1,SAUCE,LB,old,m,./images/SAUCELB.png,,,,,,,,,,,,,,,,,,,,,,
,,,,,,,,,,,,,,,,,199912,19,2022-01-28_14h49.41.122,lexical_decision_task_DD_L6,2021.2.3,MacIntel,60.0024001,,,,,,,,,,,1.1808,1,,,,,,,,,,,,,,z,1,1.1808,,,,,,,,-0.092122396,-0.392990451,0,0,0,,0,118,118,148,1,JOMS,HB,old,z,./images/JOMSHB.png,,,,,,,,,,,,,,,,,,,,,,
,,,,,,,,,,,,,,,,,199912,19,2022-01-28_14h49.41.122,lexical_decision_task_DD_L6,2021.2.3,MacIntel,60.0024001,,,,,,,,,,,0.695,1,,,,,,,,,,,,,,z,1,0.695,,,,,,,,-0.092122396,-0.392990451,0,0,0,,0,119,119,93,1,SMONE,C,old,z,./images/SMONE.png,,,,,,,,,,,,,,,,,,,,,,
,,,,,,,,,,,,,,,,,199912,19,2022-01-28_14h49.41.122,lexical_decision_task_DD_L6,2021.2.3,MacIntel,60.0024001,,,,,,,,,,,0.7719,1,,,,,,,,,,,,,,m,1,0.7719,,,,,,,,-0.092122396,-0.392990451,0,0,0,,0,120,120,19,1,DONKEY,C,old,m,./images/DONKEY.png,,,,,,,,,,,,,,,,,,,,,,
,,,,,,,,,,,,,,,,,199912,19,2022-01-28_14h49.41.122,lexical_decision_task_DD_L6,2021.2.3,MacIntel,60.0024001,,,,,,,,,,,1.3836,1,,,,,,,,,,,,,,z,1,1.3836,,,,,,,,-0.092122396,-0.392990451,0,0,0,,0,121,121,104,1,GITTY,LB,old,z,./images/GITTYLB.png,,,,,,,,,,,,,,,,,,,,,,
,,,,,,,,,,,,,,,,,199912,19,2022-01-28_14h49.41.122,lexical_decision_task_DD_L6,2021.2.3,MacIntel,60.0024001,,,,,,,,,,,0.9884,1,,,,,,,,,,,,,,m,1,0.9884,,,,,,,,-0.092122396,-0.392990451,0,0,0,,0,122,122,58,1,CANOE,C,old,m,./images/CANOE.png,,,,,,,,,,,,,,,,,,,,,,
,,,,,,,,,,,,,,,,,199912,19,2022-01-28_14h49.41.122,lexical_decision_task_DD_L6,2021.2.3,MacIntel,60.0024001,,,,,,,,,,,1.1073,1,,,,,,,,,,,,,,z,1,1.1073,,,,,,,,-0.092122396,-0.392990451,0,0,0,,0,123,123,133,1,POWDY,HB,old,z,./images/POWDYHB.png,,,,,,,,,,,,,,,,,,,,,,
,,,,,,,,,,,,,,,,,199912,19,2022-01-28_14h49.41.122,lexical_decision_task_DD_L6,2021.2.3,MacIntel,60.0024001,,,,,,,,,,,0.8395,1,,,,,,,,,,,,,,m,1,0.8395,,,,,,,,-0.092122396,-0.392990451,0,0,0,,0,124,124,52,1,DESERT,C,old,m,./images/DESERT.png,,,,,,,,,,,,,,,,,,,,,,
,,,,,,,,,,,,,,,,,199912,19,2022-01-28_14h49.41.122,lexical_decision_task_DD_L6,2021.2.3,MacIntel,60.0024001,,,,,,,,,,,1.7839,1,,,,,,,,,,,,,,z,1,1.7839,,,,,,,,-0.048485243,-0.381488715,1,0,0,,0,125,125,151,1,TINKY,HB,old,z,./images/TINKYHB.png,break_done_button,,,,,,,,,,,,,,,,,,,,,
,,,,,,,,,,,,,,,,,199912,19,2022-01-28_14h49.41.122,lexical_decision_task_DD_L6,2021.2.3,MacIntel,60.0024001,,,,,,,,,,,1.7787,1,,,,,,,,,,,,,,m,1,1.7787,,,,,,,,-0.048485243,-0.381488715,0,0,0,,0,126,126,22,1,CLOWN,C,old,m,./images/CLOWN.png,,,,,,,,,,,,,,,,,,,,,,
,,,,,,,,,,,,,,,,,199912,19,2022-01-28_14h49.41.122,lexical_decision_task_DD_L6,2021.2.3,MacIntel,60.0024001,,,,,,,,,,,2.9903,1,,,,,,,,,,,,,,z,1,2.9903,,,,,,,,-0.048485243,-0.381488715,0,0,0,,0,127,127,117,1,STEEG,C,old,z,./images/STEEG.png,,,,,,,,,,,,,,,,,,,,,,
,,,,,,,,,,,,,,,,,199912,19,2022-01-28_14h49.41.122,lexical_decision_task_DD_L6,2021.2.3,MacIntel,60.0024001,,,,,,,,,,,0.8233,1,,,,,,,,,,,,,,z,1,0.8233,,,,,,,,-0.048485243,-0.381488715,0,0,0,,0,128,128,141,1,PLEET,C,old,z,./images/PLEET.png,,,,,,,,,,,,,,,,,,,,,,
,,,,,,,,,,,,,,,,,199912,19,2022-01-28_14h49.41.122,lexical_decision_task_DD_L6,2021.2.3,MacIntel,60.0024001,,,,,,,,,,,0.7038,1,,,,,,,,,,,,,,z,1,0.7038,,,,,,,,-0.048485243,-0.381488715,0,0,0,,0,129,129,86,1,AIFED,LB,old,z,./images/AIFEDLB.png,,,,,,,,,,,,,,,,,,,,,,
,,,,,,,,,,,,,,,,,199912,19,2022-01-28_14h49.41.122,lexical_decision_task_DD_L6,2021.2.3,MacIntel,60.0024001,,,,,,,,,,,1.2152,1,,,,,,,,,,,,,,m,1,1.2152,,,,,,,,-0.048485243,-0.381488715,0,0,0,,0,130,130,41,1,STREAM,HB,old,m,./images/STREAMHB.png,,,,,,,,,,,,,,,,,,,,,,
,,,,,,,,,,,,,,,,,199912,19,2022-01-28_14h49.41.122,lexical_decision_task_DD_L6,2021.2.3,MacIntel,60.0024001,,,,,,,,,,,1.0839,1,,,,,,,,,,,,,,m,1,1.0839,,,,,,,,-0.048485243,-0.381488715,0,0,0,,0,131,131,2,1,STOVE,HB,old,m,./images/STOVEHB.png,,,,,,,,,,,,,,,,,,,,,,
,,,,,,,,,,,,,,,,,199912,19,2022-01-28_14h49.41.122,lexical_decision_task_DD_L6,2021.2.3,MacIntel,60.0024001,,,,,,,,,,,0.5823,1,,,,,,,,,,,,,,m,1,0.5823,,,,,,,,-0.048485243,-0.381488715,0,0,0,,0,132,132,39,1,CANDY,LB,old,m,./images/CANDYLB.png,,,,,,,,,,,,,,,,,,,,,,
,,,,,,,,,,,,,,,,,199912,19,2022-01-28_14h49.41.122,lexical_decision_task_DD_L6,2021.2.3,MacIntel,60.0024001,,,,,,,,,,,1.2398,1,,,,,,,,,,,,,,z,1,1.2398,,,,,,,,-0.048485243,-0.381488715,0,0,0,,0,133,133,103,1,FLORT,HB,old,z,./images/FLORTHB.png,,,,,,,,,,,,,,,,,,,,,,
,,,,,,,,,,,,,,,,,199912,19,2022-01-28_14h49.41.122,lexical_decision_task_DD_L6,2021.2.3,MacIntel,60.0024001,,,,,,,,,,,0.582,1,,,,,,,,,,,,,,m,1,0.582,,,,,,,,-0.048485243,-0.381488715,0,0,0,,0,134,134,82,1,PEBBLE,C,old,m,./images/PEBBLE.png,,,,,,,,,,,,,,,,,,,,,,
,,,,,,,,,,,,,,,,,199912,19,2022-01-28_14h49.41.122,lexical_decision_task_DD_L6,2021.2.3,MacIntel,60.0024001,,,,,,,,,,,0.719,1,,,,,,,,,,,,,,z,1,0.719,,,,,,,,-0.048485243,-0.381488715,0,0,0,,0,135,135,101,1,GLEET,LB,old,z,./images/GLEETLB.png,,,,,,,,,,,,,,,,,,,,,,
,,,,,,,,,,,,,,,,,199912,19,2022-01-28_14h49.41.122,lexical_decision_task_DD_L6,2021.2.3,MacIntel,60.0024001,,,,,,,,,,,0.9109,1,,,,,,,,,,,,,,z,1,0.9109,,,,,,,,-0.048485243,-0.381488715,0,0,0,,0,136,136,89,1,DRIEK,LB,old,z,./images/DRIEKLB.png,,,,,,,,,,,,,,,,,,,,,,
,,,,,,,,,,,,,,,,,199912,19,2022-01-28_14h49.41.122,lexical_decision_task_DD_L6,2021.2.3,MacIntel,60.0024001,,,,,,,,,,,1.103,1,,,,,,,,,,,,,,m,1,1.103,,,,,,,,-0.048485243,-0.381488715,0,0,0,,0,137,137,74,1,JUMPER,HB,old,m,./images/JUMPERHB.png,,,,,,,,,,,,,,,,,,,,,,
,,,,,,,,,,,,,,,,,199912,19,2022-01-28_14h49.41.122,lexical_decision_task_DD_L6,2021.2.3,MacIntel,60.0024001,,,,,,,,,,,0.7688,1,,,,,,,,,,,,,,z,1,0.7688,,,,,,,,-0.048485243,-0.381488715,0,0,0,,0,138,138,161,1,BLAPS,LB,old,z,./images/BLAPSLB.png,,,,,,,,,,,,,,,,,,,,,,
,,,,,,,,,,,,,,,,,199912,19,2022-01-28_14h49.41.122,lexical_decision_task_DD_L6,2021.2.3,MacIntel,60.0024001,,,,,,,,,,,0.9086,1,,,,,,,,,,,,,,m,1,0.9086,,,,,,,,-0.048485243,-0.381488715,0,0,0,,0,139,139,8,1,CLIFF,HB,old,m,./images/CLIFFHB.png,,,,,,,,,,,,,,,,,,,,,,
,,,,,,,,,,,,,,,,,199912,19,2022-01-28_14h49.41.122,lexical_decision_task_DD_L6,2021.2.3,MacIntel,60.0024001,,,,,,,,,,,0.7491,1,,,,,,,,,,,,,,z,1,0.7491,,,,,,,,-0.048485243,-0.381488715,0,0,0,,0,140,140,155,1,CANGY,LB,old,z,./images/CANGYLB.png,,,,,,,,,,,,,,,,,,,,,,
,,,,,,,,,,,,,,,,,199912,19,2022-01-28_14h49.41.122,lexical_decision_task_DD_L6,2021.2.3,MacIntel,60.0024001,,,,,,,,,,,0.85,1,,,,,,,,,,,,,,z,1,0.85,,,,,,,,-0.048485243,-0.381488715,0,0,0,,0,141,141,128,1,GRIFT,LB,old,z,./images/GRIFTLB.png,,,,,,,,,,,,,,,,,,,,,,
,,,,,,,,,,,,,,,,,199912,19,2022-01-28_14h49.41.122,lexical_decision_task_DD_L6,2021.2.3,MacIntel,60.0024001,,,,,,,,,,,0.7797,1,,,,,,,,,,,,,,m,1,0.7797,,,,,,,,-0.048485243,-0.381488715,0,0,0,,0,142,142,18,1,PARCEL,LB,old,m,./images/PARCELLB.png,,,,,,,,,,,,,,,,,,,,,,
,,,,,,,,,,,,,,,,,199912,19,2022-01-28_14h49.41.122,lexical_decision_task_DD_L6,2021.2.3,MacIntel,60.0024001,,,,,,,,,,,0.9009,1,,,,,,,,,,,,,,z,1,0.9009,,,,,,,,-0.048485243,-0.381488715,0,0,0,,0,143,143,158,1,EGECT,LB,old,z,./images/EGECTLB.png,,,,,,,,,,,,,,,,,,,,,,
,,,,,,,,,,,,,,,,,199912,19,2022-01-28_14h49.41.122,lexical_decision_task_DD_L6,2021.2.3,MacIntel,60.0024001,,,,,,,,,,,0.903,1,,,,,,,,,,,,,,z,1,0.903,,,,,,,,-0.048485243,-0.381488715,0,0,0,,0,144,144,140,1,DOVET,LB,old,z,./images/DOVETLB.png,,,,,,,,,,,,,,,,,,,,,,
,,,,,,,,,,,,,,,,,199912,19,2022-01-28_14h49.41.122,lexical_decision_task_DD_L6,2021.2.3,MacIntel,60.0024001,,,,,,,,,,,0.9064,1,,,,,,,,,,,,,,z,1,0.9064,,,,,,,,-0.048485243,-0.381488715,0,0,0,,0,145,145,111,1,HOSSE,C,old,z,./images/HOSSE.png,,,,,,,,,,,,,,,,,,,,,,
,,,,,,,,,,,,,,,,,199912,19,2022-01-28_14h49.41.122,lexical_decision_task_DD_L6,2021.2.3,MacIntel,60.0024001,,,,,,,,,,,0.6466,1,,,,,,,,,,,,,,m,1,0.6466,,,,,,,,-0.048485243,-0.381488715,0,0,0,,0,146,146,4,1,BOXER,C,old,m,./images/BOXER.png,,,,,,,,,,,,,,,,,,,,,,
,,,,,,,,,,,,,,,,,199912,19,2022-01-28_14h49.41.122,lexical_decision_task_DD_L6,2021.2.3,MacIntel,60.0024001,,,,,,,,,,,0.6684,1,,,,,,,,,,,,,,m,1,0.6684,,,,,,,,-0.048485243,-0.381488715,0,0,0,,0,147,147,15,1,COLLAR,LB,old,m,./images/COLLARLB.png,,,,,,,,,,,,,,,,,,,,,,
,,,,,,,,,,,,,,,,,199912,19,2022-01-28_14h49.41.122,lexical_decision_task_DD_L6,2021.2.3,MacIntel,60.0024001,,,,,,,,,,,0.6394,1,,,,,,,,,,,,,,m,1,0.6394,,,,,,,,-0.048485243,-0.381488715,0,0,0,,0,148,148,43,1,STOOL,C,old,m,./images/STOOL.png,,,,,,,,,,,,,,,,,,,,,,
,,,,,,,,,,,,,,,,,199912,19,2022-01-28_14h49.41.122,lexical_decision_task_DD_L6,2021.2.3,MacIntel,60.0024001,,,,,,,,,,,1.3356,1,,,,,,,,,,,,,,m,1,1.3356,,,,,,,,-0.048485243,-0.381488715,0,0,0,,0,149,149,80,1,PLANET,HB,old,m,./images/PLANETHB.png,,,,,,,,,,,,,,,,,,,,,,
,,,,,,,,,,,,,,,,,199912,19,2022-01-28_14h49.41.122,lexical_decision_task_DD_L6,2021.2.3,MacIntel,60.0024001,,,,,,,,,,,0.6397,1,,,,,,,,,,,,,,m,1,0.6397,,,,,,,,-0.048485243,-0.381488715,0,0,0,,0,150,150,61,1,ARTIST,C,old,m,./images/ARTIST.png,,,,,,,,,,,,,,,,,,,,,,
,,,,,,,,,,,,,,,,,199912,19,2022-01-28_14h49.41.122,lexical_decision_task_DD_L6,2021.2.3,MacIntel,60.0024001,,,,,,,,,,,0.5909,1,,,,,,,,,,,,,,m,1,0.5909,,,,,,,,-0.048485243,-0.381488715,0,0,0,,0,151,151,26,1,CLOUD,HB,old,m,./images/CLOUDHB.png,,,,,,,,,,,,,,,,,,,,,,
,,,,,,,,,,,,,,,,,199912,19,2022-01-28_14h49.41.122,lexical_decision_task_DD_L6,2021.2.3,MacIntel,60.0024001,,,,,,,,,,,0.9485,1,,,,,,,,,,,,,,z,1,0.9485,,,,,,,,-0.048485243,-0.381488715,0,0,0,,0,152,152,108,1,GRUET,C,old,z,./images/GRUET.png,,,,,,,,,,,,,,,,,,,,,,
,,,,,,,,,,,,,,,,,199912,19,2022-01-28_14h49.41.122,lexical_decision_task_DD_L6,2021.2.3,MacIntel,60.0024001,,,,,,,,,,,0.5785,1,,,,,,,,,,,,,,m,1,0.5785,,,,,,,,-0.048485243,-0.381488715,0,0,0,,0,153,153,25,1,CHALK,C,old,m,./images/CHALK.png,,,,,,,,,,,,,,,,,,,,,,
,,,,,,,,,,,,,,,,,199912,19,2022-01-28_14h49.41.122,lexical_decision_task_DD_L6,2021.2.3,MacIntel,60.0024001,,,,,,,,,,,0.9496,1,,,,,,,,,,,,,,m,1,0.9496,,,,,,,,-0.048485243,-0.381488715,0,0,0,,0,154,154,53,1,POSTER,HB,old,m,./images/POSTERHB.png,,,,,,,,,,,,,,,,,,,,,,
,,,,,,,,,,,,,,,,,199912,19,2022-01-28_14h49.41.122,lexical_decision_task_DD_L6,2021.2.3,MacIntel,60.0024001,,,,,,,,,,,0.5903,1,,,,,,,,,,,,,,m,1,0.5903,,,,,,,,-0.048485243,-0.381488715,0,0,0,,0,155,155,46,1,MUMMY,C,old,m,./images/MUMMY.png,,,,,,,,,,,,,,,,,,,,,,
,,,,,,,,,,,,,,,,,199912,19,2022-01-28_14h49.41.122,lexical_decision_task_DD_L6,2021.2.3,MacIntel,60.0024001,,,,,,,,,,,0.8076,1,,,,,,,,,,,,,,z,1,0.8076,,,,,,,,-0.048485243,-0.381488715,0,0,0,,0,156,156,143,1,MONGS,LB,old,z,./images/MONGSLB.png,,,,,,,,,,,,,,,,,,,,,,
,,,,,,,,,,,,,,,,,199912,19,2022-01-28_14h49.41.122,lexical_decision_task_DD_L6,2021.2.3,MacIntel,60.0024001,,,,,,,,,,,0.6491,1,,,,,,,,,,,,,,m,1,0.6491,,,,,,,,-0.048485243,-0.381488715,0,0,0,,0,157,157,75,1,HAMMER,LB,old,m,./images/HAMMERLB.png,,,,,,,,,,,,,,,,,,,,,,
,,,,,,,,,,,,,,,,,199912,19,2022-01-28_14h49.41.122,lexical_decision_task_DD_L6,2021.2.3,MacIntel,60.0024001,,,,,,,,,,,0.6342,1,,,,,,,,,,,,,,m,1,0.6342,,,,,,,,-0.048485243,-0.381488715,0,0,0,,0,158,158,9,1,DIVER,LB,old,m,./images/DIVERLB.png,,,,,,,,,,,,,,,,,,,,,,
,,,,,,,,,,,,,,,,,199912,19,2022-01-28_14h49.41.122,lexical_decision_task_DD_L6,2021.2.3,MacIntel,60.0024001,,,,,,,,,,,0.8346,1,,,,,,,,,,,,,,m,1,0.8346,,,,,,,,-0.048485243,-0.381488715,0,0,0,,0,159,159,68,1,VALLEY,HB,old,m,./images/VALLEYHB.png,,,,,,,,,,,,,,,,,,,,,,
,,,,,,,,,,,,,,,,,199912,19,2022-01-28_14h49.41.122,lexical_decision_task_DD_L6,2021.2.3,MacIntel,60.0024001,,,,,,,,,,,0.5233,1,,,,,,,,,,,,,,m,1,0.5233,,,,,,,,-0.048485243,-0.381488715,0,0,0,,0,160,160,31,1,STEAK,C,old,m,./images/STEAK.png,,,,,,,,,,,,,,,,,,,,,,
,,,,,,,,,,,,,,,,,199912,19,2022-01-28_14h49.41.122,lexical_decision_task_DD_L6,2021.2.3,MacIntel,60.0024001,,,,,,,,,,,3.244,1,,,,,,,,,,,,,,z,1,3.244,,,,,,,,-0.048485243,-0.381488715,0,0,0,,0,161,161,162,1,LEICH,C,old,z,./images/LEICH.png,,,,,,,,,,,,,,,,,,,,,,
,,,,,,,,,,,,,,,,,199912,19,2022-01-28_14h49.41.122,lexical_decision_task_DD_L6,2021.2.3,MacIntel,60.0024001,,,,,,,,,,,0.7662,1,,,,,,,,,,,,,,m,1,0.7662,,,,,,,,-0.048485243,-0.381488715,0,0,0,,0,162,162,65,1,SPINE,HB,old,m,./images/SPINEHB.png,,,,,,,,,,,,,,,,,,,,,,
,,,,,,,,,,,,,,,,,199912,19,2022-01-28_14h49.41.122,lexical_decision_task_DD_L6,2021.2.3,MacIntel,60.0024001,,,,,,,,,,,0.7643,1,,,,,,,,,,,,,,m,1,0.7643,,,,,,,,-0.048485243,-0.381488715,0,0,0,,0,163,163,16,1,GRAPE,C,old,m,./images/GRAPE.png,,,,,,,,,,,,,,,,,,,,,,
,,,,,,,,,,,,,,,,,199912,19,2022-01-28_14h49.41.122,lexical_decision_task_DD_L6,2021.2.3,MacIntel,60.0024001,,,,,,,,,,,0.5936,1,,,,,,,,,,,,,,m,1,0.5936,,,,,,,,-0.048485243,-0.381488715,0,0,0,,0,164,164,69,1,ARROW,LB,old,m,./images/ARROWLB.png,,,,,,,,,,,,,,,,,,,,,,
,,,,,,,,,,,,,,,,,199912,19,2022-01-28_14h49.41.122,lexical_decision_task_DD_L6,2021.2.3,MacIntel,60.0024001,,,,,,,,,,,1.0315,1,,,,,,,,,,,,,,m,1,1.0315,,,,,,,,-0.048485243,-0.381488715,0,0,0,,0,165,165,44,1,BASKET,HB,old,m,./images/BASKETHB.png,,,,,,,,,,,,,,,,,,,,,,
,,,,,,,,,,,,,,,,,199912,19,2022-01-28_14h49.41.122,lexical_decision_task_DD_L6,2021.2.3,MacIntel,60.0024001,,,,,,,,,,,0.6475,1,,,,,,,,,,,,,,m,1,0.6475,,,,,,,,-0.048485243,-0.381488715,0,0,0,,0,166,166,55,1,ALLEY,C,old,m,./images/ALLEY.png,,,,,,,,,,,,,,,,,,,,,,
,,,,,,,,,,,,,,,,,199912,19,2022-01-28_14h49.41.122,lexical_decision_task_DD_L6,2021.2.3,MacIntel,60.0024001,,,,,,,,,,,2.0654,0,,,,,,,,,,,,,,m,0,2.0654,,,,,,,,-0.048485243,-0.381488715,0,0,0,,0,167,167,136,1,WERVE,HB,old,z,./images/WERVEHB.png,,,,,,,,,,,,,,,,,,,,,,
,-0.043328993,-0.373723958,1,0,0,instr_done_button,,,,,,1,test,"In the next phase you will be presented with the words from the the first phase. Your job is to decide whether you remember seeing the word or not. If you remember seeing the word press ""old"" or type ""m"". If you do not remember seeing the word press ""new"" or type ""z"". Please press the space bar or click on continue to begin. ",,,199912,19,2022-01-28_14h49.41.122,lexical_decision_task_DD_L6,2021.2.3,MacIntel,60.0024001,,,,,,,,,,,,,,,,,,,,,,,,,,,,,,,,,,,,,,,,,,,,,,,,,,,,,0,0,0,0,1,,,,,,,,,,,,,,,,
,-0.043328993,-0.373723958,1,0,0,instr_done_button,,,,,,1,test,"In the next phase you will be presented with the words from the the first phase. Your job is to decide whether you remember seeing the word or not. If you remember seeing the word press ""old"" or type ""m"". If you do not remember seeing the word press ""new"" or type ""z"". Please press the space bar or click on continue to begin. ",,,199912,19,2022-01-28_14h49.41.122,lexical_decision_task_DD_L6,2021.2.3,MacIntel,60.0024001,,,,,,,,,,,,,,,,,,,,,,,,,,,,,,,,,,,,,,,,,,,,,,,,,,,,,1,0,1,0,1,,,,,,,,,,,,,,,,
,-0.043328993,-0.373723958,1,0,0,instr_done_button,,,,,,1,test,"In the next phase you will be presented with the words from the the first phase. Your job is to decide whether you remember seeing the word or not. If you remember seeing the word press ""old"" or type ""m"". If you do not remember seeing the word press ""new"" or type ""z"". Please press the space bar or click on continue to begin. ",,,199912,19,2022-01-28_14h49.41.122,lexical_decision_task_DD_L6,2021.2.3,MacIntel,60.0024001,,,,,,,,,,,,,,,,,,,,,,,,,,,,,,,,,,,,,,,,,,,,,,,,,,,,,2,0,2,0,1,,,,,,,,,,,,,,,,
,-0.015481771,-0.396540799,1,0,0,instr_done_button,,,,,,1,test,"In the next phase you will be presented with the words from the the first phase. Your job is to decide whether you remember seeing the word or not. If you remember seeing the word press ""old"" or type ""m"". If you do not remember seeing the word press ""new"" or type ""z"". Please press the space bar or click on continue to begin. ",,,199912,19,2022-01-28_14h49.41.122,lexical_decision_task_DD_L6,2021.2.3,MacIntel,60.0024001,,,,,,,,,,,,,,,,,,,,,,,,,,,,,,,,,,,,,,,,,,,,,,,,,,,,,3,0,3,0,1,,,,,,,,,,,,,,,,
space,0.054322917,-0.206462674,0,0,0,,,,,,,1,test,"In the next phase you will be presented with the words from the the first phase. Your job is to decide whether you remember seeing the word or not. If you remember seeing the word press ""old"" or type ""m"". If you do not remember seeing the word press ""new"" or type ""z"". Please press the space bar or click on continue to begin. ",,,199912,19,2022-01-28_14h49.41.122,lexical_decision_task_DD_L6,2021.2.3,MacIntel,60.0024001,,,,,,,,,,,,,,,,,,,,,,,,,,,,,,,,,,,,,,,,,,,,,,,,,,,,,4,0,4,0,1,1.8739,,,,,,,,,,,,,,,
,,,,,,,,,,,,,,,,,199912,19,2022-01-28_14h49.41.122,lexical_decision_task_DD_L6,2021.2.3,MacIntel,60.0024001,,,,,,,,,,,2.2159,1,,,,,,,,,,,,,,,,,,,,,,,,0.054322917,-0.206462674,0,0,0,,,,,,,PILOT,HB,m,y,./images/PILOTHB.png,,,,,,,,m,1,2.2159,,,,,,,,0,0,0,50,1
,,,,,,,,,,,,,,,,,199912,19,2022-01-28_14h49.41.122,lexical_decision_task_DD_L6,2021.2.3,MacIntel,60.0024001,,,,,,,,,,,1.4363,0,,,,,,,,,,,,,,,,,,,,,,,,0.054322917,-0.206462674,0,0,0,,,,,,,PLANK,C,z,y,./images/PLANK.png,,,,,,,,m,0,1.4363,,,,,,,,0,1,1,85,1
,,,,,,,,,,,,,,,,,199912,19,2022-01-28_14h49.41.122,lexical_decision_task_DD_L6,2021.2.3,MacIntel,60.0024001,,,,,,,,,,,1.1987,0,,,,,,,,,,,,,,,,,,,,,,,,0.054322917,-0.206462674,0,0,0,,,,,,,JUNGLE,HB,z,y,./images/JUNGLEHB.png,,,,,,,,m,0,1.1987,,,,,,,,0,2,2,167,1
,,,,,,,,,,,,,,,,,199912,19,2022-01-28_14h49.41.122,lexical_decision_task_DD_L6,2021.2.3,MacIntel,60.0024001,,,,,,,,,,,1.0972,1,,,,,,,,,,,,,,,,,,,,,,,,0.054322917,-0.206462674,0,0,0,,,,,,,ARTIST,C,m,y,./images/ARTIST.png,,,,,,,,m,1,1.0972,,,,,,,,0,3,3,61,1
,,,,,,,,,,,,,,,,,199912,19,2022-01-28_14h49.41.122,lexical_decision_task_DD_L6,2021.2.3,MacIntel,60.0024001,,,,,,,,,,,0.7691,1,,,,,,,,,,,,,,,,,,,,,,,,0.054322917,-0.206462674,0,0,0,,,,,,,DOUGH,C,z,y,./images/DOUGH.png,,,,,,,,z,1,0.7691,,,,,,,,0,4,4,103,1
,,,,,,,,,,,,,,,,,199912,19,2022-01-28_14h49.41.122,lexical_decision_task_DD_L6,2021.2.3,MacIntel,60.0024001,,,,,,,,,,,0.7113,0,,,,,,,,,,,,,,,,,,,,,,,,0.054322917,-0.206462674,0,0,0,,,,,,,COUCH,HB,z,y,./images/COUCHHB.png,,,,,,,,m,0,0.7113,,,,,,,,0,5,5,161,1
,,,,,,,,,,,,,,,,,199912,19,2022-01-28_14h49.41.122,lexical_decision_task_DD_L6,2021.2.3,MacIntel,60.0024001,,,,,,,,,,,1.395,0,,,,,,,,,,,,,,,,,,,,,,,,0.054322917,-0.206462674,0,0,0,,,,,,,HOCKEY,HB,m,y,./images/HOCKEYHB.png,,,,,,,,z,0,1.395,,,,,,,,0,6,6,32,1
,,,,,,,,,,,,,,,,,199912,19,2022-01-28_14h49.41.122,lexical_decision_task_DD_L6,2021.2.3,MacIntel,60.0024001,,,,,,,,,,,0.7347,1,,,,,,,,,,,,,,,,,,,,,,,,0.054322917,-0.206462674,0,0,0,,,,,,,PIMPLE,HB,z,y,./images/PIMPLEHB.png,,,,,,,,z,1,0.7347,,,,,,,,0,7,7,155,1
,,,,,,,,,,,,,,,,,199912,19,2022-01-28_14h49.41.122,lexical_decision_task_DD_L6,2021.2.3,MacIntel,60.0024001,,,,,,,,,,,0.6886,1,,,,,,,,,,,,,,,,,,,,,,,,0.054322917,-0.206462674,0,0,0,,,,,,,WHISKY,HB,m,y,./images/WHISKYHB.png,,,,,,,,m,1,0.6886,,,,,,,,0,8,8,83,1
,,,,,,,,,,,,,,,,,199912,19,2022-01-28_14h49.41.122,lexical_decision_task_DD_L6,2021.2.3,MacIntel,60.0024001,,,,,,,,,,,0.6144,1,,,,,,,,,,,,,,,,,,,,,,,,0.054322917,-0.206462674,0,0,0,,,,,,,GRAPE,C,m,y,./images/GRAPE.png,,,,,,,,m,1,0.6144,,,,,,,,0,9,9,16,1
,,,,,,,,,,,,,,,,,199912,19,2022-01-28_14h49.41.122,lexical_decision_task_DD_L6,2021.2.3,MacIntel,60.0024001,,,,,,,,,,,0.8219,1,,,,,,,,,,,,,,,,,,,,,,,,0.054322917,-0.206462674,0,0,0,,,,,,,PARCEL,LB,m,y,./images/PARCELLB.png,,,,,,,,m,1,0.8219,,,,,,,,0,10,10,18,1
,,,,,,,,,,,,,,,,,199912,19,2022-01-28_14h49.41.122,lexical_decision_task_DD_L6,2021.2.3,MacIntel,60.0024001,,,,,,,,,,,0.9412,0,,,,,,,,,,,,,,,,,,,,,,,,0.054322917,-0.206462674,0,0,0,,,,,,,WALRUS,HB,z,y,./images/WALRUSHB.png,,,,,,,,m,0,0.9412,,,,,,,,0,11,11,107,1
,,,,,,,,,,,,,,,,,199912,19,2022-01-28_14h49.41.122,lexical_decision_task_DD_L6,2021.2.3,MacIntel,60.0024001,,,,,,,,,,,1.1676,1,,,,,,,,,,,,,,,,,,,,,,,,0.054322917,-0.206462674,0,0,0,,,,,,,QUILL,C,z,y,./images/QUILL.png,,,,,,,,z,1,1.1676,,,,,,,,0,12,12,115,1
,,,,,,,,,,,,,,,,,199912,19,2022-01-28_14h49.41.122,lexical_decision_task_DD_L6,2021.2.3,MacIntel,60.0024001,,,,,,,,,,,0.7217,1,,,,,,,,,,,,,,,,,,,,,,,,0.054322917,-0.206462674,0,0,0,,,,,,,SPINE,HB,m,y,./images/SPINEHB.png,,,,,,,,m,1,0.7217,,,,,,,,0,13,13,65,1
,,,,,,,,,,,,,,,,,199912,19,2022-01-28_14h49.41.122,lexical_decision_task_DD_L6,2021.2.3,MacIntel,60.0024001,,,,,,,,,,,0.6914,1,,,,,,,,,,,,,,,,,,,,,,,,0.054322917,-0.206462674,0,0,0,,,,,,,TRIPOD,LB,z,y,./images/TRIPODLB.png,,,,,,,,z,1,0.6914,,,,,,,,0,14,14,138,1
,,,,,,,,,,,,,,,,,199912,19,2022-01-28_14h49.41.122,lexical_decision_task_DD_L6,2021.2.3,MacIntel,60.0024001,,,,,,,,,,,1.087,0,,,,,,,,,,,,,,,,,,,,,,,,0.054322917,-0.206462674,0,0,0,,,,,,,WAGON,C,m,y,./images/WAGON.png,,,,,,,,z,0,1.087,,,,,,,,0,15,15,7,1
,,,,,,,,,,,,,,,,,199912,19,2022-01-28_14h49.41.122,lexical_decision_task_DD_L6,2021.2.3,MacIntel,60.0024001,,,,,,,,,,,0.797,1,,,,,,,,,,,,,,,,,,,,,,,,0.054322917,-0.206462674,0,0,0,,,,,,,PEACH,HB,z,y,./images/PEACHHB.png,,,,,,,,z,1,0.797,,,,,,,,0,16,16,119,1
,,,,,,,,,,,,,,,,,199912,19,2022-01-28_14h49.41.122,lexical_decision_task_DD_L6,2021.2.3,MacIntel,60.0024001,,,,,,,,,,,0.7503,1,,,,,,,,,,,,,,,,,,,,,,,,0.054322917,-0.206462674,0,0,0,,,,,,,DESERT,C,m,y,./images/DESERT.png,,,,,,,,m,1,0.7503,,,,,,,,0,17,17,52,1
,,,,,,,,,,,,,,,,,199912,19,2022-01-28_14h49.41.122,lexical_decision_task_DD_L6,2021.2.3,MacIntel,60.0024001,,,,,,,,,,,0.6407,1,,,,,,,,,,,,,,,,,,,,,,,,0.054322917,-0.206462674,0,0,0,,,,,,,ARROW,LB,m,y,./images/ARROWLB.png,,,,,,,,m,1,0.6407,,,,,,,,0,18,18,69,1
,,,,,,,,,,,,,,,,,199912,19,2022-01-28_14h49.41.122,lexical_decision_task_DD_L6,2021.2.3,MacIntel,60.0024001,,,,,,,,,,,0.6474,1,,,,,,,,,,,,,,,,,,,,,,,,0.054322917,-0.206462674,0,0,0,,,,,,,BROOM,LB,m,y,./images/BROOMLB.png,,,,,,,,m,1,0.6474,,,,,,,,0,19,19,78,1
,,,,,,,,,,,,,,,,,199912,19,2022-01-28_14h49.41.122,lexical_decision_task_DD_L6,2021.2.3,MacIntel,60.0024001,,,,,,,,,,,0.5694,1,,,,,,,,,,,,,,,,,,,,,,,,0.054322917,-0.206462674,0,0,0,,,,,,,SNAKE,C,m,y,./images/SNAKE.png,,,,,,,,m,1,0.5694,,,,,,,,0,20,20,40,1
,,,,,,,,,,,,,,,,,199912,19,2022-01-28_14h49.41.122,lexical_decision_task_DD_L6,2021.2.3,MacIntel,60.0024001,,,,,,,,,,,0.9558,1,,,,,,,,,,,,,,,,,,,,,,,,0.054322917,-0.206462674,0,0,0,,,,,,,BONNET,HB,z,y,./images/BONNETHB.png,,,,,,,,z,1,0.9558,,,,,,,,0,21,21,95,1
,,,,,,,,,,,,,,,,,199912,19,2022-01-28_14h49.41.122,lexical_decision_task_DD_L6,2021.2.3,MacIntel,60.0024001,,,,,,,,,,,0.8744,1,,,,,,,,,,,,,,,,,,,,,,,,0.054322917,-0.206462674,0,0,0,,,,,,,CANOE,C,m,y,./images/CANOE.png,,,,,,,,m,1,0.8744,,,,,,,,0,22,22,58,1
,,,,,,,,,,,,,,,,,199912,19,2022-01-28_14h49.41.122,lexical_decision_task_DD_L6,2021.2.3,MacIntel,60.0024001,,,,,,,,,,,0.8557,1,,,,,,,,,,,,,,,,,,,,,,,,0.054322917,-0.206462674,0,0,0,,,,,,,MIDGET,C,m,y,./images/MIDGET.png,,,,,,,,m,1,0.8557,,,,,,,,0,23,23,76,1
,,,,,,,,,,,,,,,,,199912,19,2022-01-28_14h49.41.122,lexical_decision_task_DD_L6,2021.2.3,MacIntel,60.0024001,,,,,,,,,,,0.9235,1,,,,,,,,,,,,,,,,,,,,,,,,0.054322917,-0.206462674,0,0,0,,,,,,,WEASEL,HB,z,y,./images/WEASELHB.png,,,,,,,,z,1,0.9235,,,,,,,,0,24,24,164,1
,,,,,,,,,,,,,,,,,199912,19,2022-01-28_14h49.41.122,lexical_decision_task_DD_L6,2021.2.3,MacIntel,60.0024001,,,,,,,,,,,1.0514,1,,,,,,,,,,,,,,,,,,,,,,,,0.054322917,-0.206462674,0,0,0,,,,,,,BELLY,C,z,y,./images/BELLY.png,,,,,,,,z,1,1.0514,,,,,,,,0,25,25,94,1
,,,,,,,,,,,,,,,,,199912,19,2022-01-28_14h49.41.122,lexical_decision_task_DD_L6,2021.2.3,MacIntel,60.0024001,,,,,,,,,,,0.7159,0,,,,,,,,,,,,,,,,,,,,,,,,0.054322917,-0.206462674,0,0,0,,,,,,,CHERRY,LB,m,y,./images/CHERRYLB.png,,,,,,,,z,0,0.7159,,,,,,,,0,26,26,54,1
,,,,,,,,,,,,,,,,,199912,19,2022-01-28_14h49.41.122,lexical_decision_task_DD_L6,2021.2.3,MacIntel,60.0024001,,,,,,,,,,,0.764,1,,,,,,,,,,,,,,,,,,,,,,,,0.054322917,-0.206462674,0,0,0,,,,,,,BISHOP,C,m,y,./images/BISHOP.png,,,,,,,,m,1,0.764,,,,,,,,0,27,27,49,1
,,,,,,,,,,,,,,,,,199912,19,2022-01-28_14h49.41.122,lexical_decision_task_DD_L6,2021.2.3,MacIntel,60.0024001,,,,,,,,,,,0.9345,1,,,,,,,,,,,,,,,,,,,,,,,,0.054322917,-0.206462674,0,0,0,,,,,,,PURSE,HB,z,y,./images/PURSEHB.png,,,,,,,,z,1,0.9345,,,,,,,,0,28,28,146,1
,,,,,,,,,,,,,,,,,199912,19,2022-01-28_14h49.41.122,lexical_decision_task_DD_L6,2021.2.3,MacIntel,60.0024001,,,,,,,,,,,0.7164,1,,,,,,,,,,,,,,,,,,,,,,,,0.054322917,-0.206462674,0,0,0,,,,,,,BASKET,HB,m,y,./images/BASKETHB.png,,,,,,,,m,1,0.7164,,,,,,,,0,29,29,44,1
,,,,,,,,,,,,,,,,,199912,19,2022-01-28_14h49.41.122,lexical_decision_task_DD_L6,2021.2.3,MacIntel,60.0024001,,,,,,,,,,,0.6625,1,,,,,,,,,,,,,,,,,,,,,,,,0.054322917,-0.206462674,0,0,0,,,,,,,POKER,C,m,y,./images/POKER.png,,,,,,,,m,1,0.6625,,,,,,,,0,30,30,67,1
,,,,,,,,,,,,,,,,,199912,19,2022-01-28_14h49.41.122,lexical_decision_task_DD_L6,2021.2.3,MacIntel,60.0024001,,,,,,,,,,,0.7718,0,,,,,,,,,,,,,,,,,,,,,,,,0.054322917,-0.206462674,0,0,0,,,,,,,RAZOR,C,m,y,./images/RAZOR.png,,,,,,,,z,0,0.7718,,,,,,,,0,31,31,34,1
,,,,,,,,,,,,,,,,,199912,19,2022-01-28_14h49.41.122,lexical_decision_task_DD_L6,2021.2.3,MacIntel,60.0024001,,,,,,,,,,,1.1525,0,,,,,,,,,,,,,,,,,,,,,,,,0.054322917,-0.206462674,0,0,0,,,,,,,DANCER,LB,m,y,./images/DANCERLB.png,,,,,,,,z,0,1.1525,,,,,,,,0,32,32,21,1
,,,,,,,,,,,,,,,,,199912,19,2022-01-28_14h49.41.122,lexical_decision_task_DD_L6,2021.2.3,MacIntel,60.0024001,,,,,,,,,,,0.7693,1,,,,,,,,,,,,,,,,,,,,,,,,0.054322917,-0.206462674,0,0,0,,,,,,,TWINS,LB,z,y,./images/TWINSLB.png,,,,,,,,z,1,0.7693,,,,,,,,0,33,33,144,1
,,,,,,,,,,,,,,,,,199912,19,2022-01-28_14h49.41.122,lexical_decision_task_DD_L6,2021.2.3,MacIntel,60.0024001,,,,,,,,,,,0.6073,1,,,,,,,,,,,,,,,,,,,,,,,,0.054322917,-0.206462674,0,0,0,,,,,,,NOOSE,LB,z,y,./images/NOOSELB.png,,,,,,,,z,1,0.6073,,,,,,,,0,34,34,156,1
,,,,,,,,,,,,,,,,,199912,19,2022-01-28_14h49.41.122,lexical_decision_task_DD_L6,2021.2.3,MacIntel,60.0024001,,,,,,,,,,,0.8837,0,,,,,,,,,,,,,,,,,,,,,,,,0.054322917,-0.206462674,0,0,0,,,,,,,PAINT,C,z,y,./images/PAINT.png,,,,,,,,m,0,0.8837,,,,,,,,0,35,35,91,1
,,,,,,,,,,,,,,,,,199912,19,2022-01-28_14h49.41.122,lexical_decision_task_DD_L6,2021.2.3,MacIntel,60.0024001,,,,,,,,,,,0.8411,0,,,,,,,,,,,,,,,,,,,,,,,,0.054322917,-0.206462674,0,0,0,,,,,,,SHIELD,LB,m,y,./images/SHIELDLB.png,,,,,,,,z,0,0.8411,,,,,,,,0,36,36,48,1
,,,,,,,,,,,,,,,,,199912,19,2022-01-28_14h49.41.122,lexical_decision_task_DD_L6,2021.2.3,MacIntel,60.0024001,,,,,,,,,,,0.7073,1,,,,,,,,,,,,,,,,,,,,,,,,0.054322917,-0.206462674,0,0,0,,,,,,,WALNUT,LB,m,y,./images/WALNUTLB.png,,,,,,,,m,1,0.7073,,,,,,,,0,37,37,0,1
,,,,,,,,,,,,,,,,,199912,19,2022-01-28_14h49.41.122,lexical_decision_task_DD_L6,2021.2.3,MacIntel,60.0024001,,,,,,,,,,,0.5515,0,,,,,,,,,,,,,,,,,,,,,,,,0.054322917,-0.206462674,0,0,0,,,,,,,JELLY,C,z,y,./images/JELLY.png,,,,,,,,m,0,0.5515,,,,,,,,0,38,38,148,1
,,,,,,,,,,,,,,,,,199912,19,2022-01-28_14h49.41.122,lexical_decision_task_DD_L6,2021.2.3,MacIntel,60.0024001,,,,,,,,,,,0.9252,1,,,,,,,,,,,,,,,,,,,,,,,,0.054322917,-0.206462674,0,0,0,,,,,,,FLESH,LB,m,y,./images/FLESHLB.png,,,,,,,,m,1,0.9252,,,,,,,,0,39,39,24,1
,,,,,,,,,,,,,,,,,199912,19,2022-01-28_14h49.41.122,lexical_decision_task_DD_L6,2021.2.3,MacIntel,60.0024001,,,,,,,,,,,0.7488,1,,,,,,,,,,,,,,,,,,,,,,,,0.054322917,-0.206462674,0,0,0,,,,,,,CRUMB,HB,z,y,./images/CRUMBHB.png,,,,,,,,z,1,0.7488,,,,,,,,0,40,40,113,1
,,,,,,,,,,,,,,,,,199912,19,2022-01-28_14h49.41.122,lexical_decision_task_DD_L6,2021.2.3,MacIntel,60.0024001,,,,,,,,,,,0.6432,1,,,,,,,,,,,,,,,,,,,,,,,,0.01328559,-0.412608507,1,0,0,,,,,,,CANDY,LB,m,y,./images/CANDYLB.png,break_done_button,,,,,,,m,1,0.6432,,,,,,,,0,41,41,39,1
,,,,,,,,,,,,,,,,,199912,19,2022-01-28_14h49.41.122,lexical_decision_task_DD_L6,2021.2.3,MacIntel,60.0024001,,,,,,,,,,,0.9177,1,,,,,,,,,,,,,,,,,,,,,,,,0.01328559,-0.412608507,0,0,0,,,,,,,FINGER,LB,z,y,./images/FINGERLB.png,,,,,,,,z,1,0.9177,,,,,,,,0,42,42,87,1
,,,,,,,,,,,,,,,,,199912,19,2022-01-28_14h49.41.122,lexical_decision_task_DD_L6,2021.2.3,MacIntel,60.0024001,,,,,,,,,,,1.6042,1,,,,,,,,,,,,,,,,,,,,,,,,0.01328559,-0.412608507,0,0,0,,,,,,,ENGINE,HB,m,y,./images/ENGINEHB.png,,,,,,,,m,1,1.6042,,,,,,,,0,43,43,38,1
,,,,,,,,,,,,,,,,,199912,19,2022-01-28_14h49.41.122,lexical_decision_task_DD_L6,2021.2.3,MacIntel,60.0024001,,,,,,,,,,,0.7545,1,,,,,,,,,,,,,,,,,,,,,,,,0.01328559,-0.412608507,0,0,0,,,,,,,GLOVE,C,m,y,./images/GLOVE.png,,,,,,,,m,1,0.7545,,,,,,,,0,44,44,73,1
,,,,,,,,,,,,,,,,,199912,19,2022-01-28_14h49.41.122,lexical_decision_task_DD_L6,2021.2.3,MacIntel,60.0024001,,,,,,,,,,,0.8491,1,,,,,,,,,,,,,,,,,,,,,,,,0.01328559,-0.412608507,0,0,0,,,,,,,LADDER,HB,z,y,./images/LADDERHB.png,,,,,,,,z,1,0.8491,,,,,,,,0,45,45,122,1
,,,,,,,,,,,,,,,,,199912,19,2022-01-28_14h49.41.122,lexical_decision_task_DD_L6,2021.2.3,MacIntel,60.0024001,,,,,,,,,,,0.6824,1,,,,,,,,,,,,,,,,,,,,,,,,0.01328559,-0.412608507,0,0,0,,,,,,,HAMMER,LB,m,y,./images/HAMMERLB.png,,,,,,,,m,1,0.6824,,,,,,,,0,46,46,75,1
,,,,,,,,,,,,,,,,,199912,19,2022-01-28_14h49.41.122,lexical_decision_task_DD_L6,2021.2.3,MacIntel,60.0024001,,,,,,,,,,,0.9644,0,,,,,,,,,,,,,,,,,,,,,,,,0.01328559,-0.412608507,0,0,0,,,,,,,RULER,C,m,y,./images/RULER.png,,,,,,,,z,0,0.9644,,,,,,,,0,47,47,79,1
,,,,,,,,,,,,,,,,,199912,19,2022-01-28_14h49.41.122,lexical_decision_task_DD_L6,2021.2.3,MacIntel,60.0024001,,,,,,,,,,,1.269,0,,,,,,,,,,,,,,,,,,,,,,,,0.01328559,-0.412608507,0,0,0,,,,,,,PACKET,HB,z,y,./images/PACKETHB.png,,,,,,,,m,0,1.269,,,,,,,,0,48,48,140,1
,,,,,,,,,,,,,,,,,199912,19,2022-01-28_14h49.41.122,lexical_decision_task_DD_L6,2021.2.3,MacIntel,60.0024001,,,,,,,,,,,0.7003,1,,,,,,,,,,,,,,,,,,,,,,,,0.01328559,-0.412608507,0,0,0,,,,,,,DONKEY,C,m,y,./images/DONKEY.png,,,,,,,,m,1,0.7003,,,,,,,,0,49,49,19,1
,,,,,,,,,,,,,,,,,199912,19,2022-01-28_14h49.41.122,lexical_decision_task_DD_L6,2021.2.3,MacIntel,60.0024001,,,,,,,,,,,0.7921,0,,,,,,,,,,,,,,,,,,,,,,,,0.01328559,-0.412608507,0,0,0,,,,,,,BABOON,C,z,y,./images/BABOON.png,,,,,,,,m,0,0.7921,,,,,,,,0,50,50,142,1
,,,,,,,,,,,,,,,,,199912,19,2022-01-28_14h49.41.122,lexical_decision_task_DD_L6,2021.2.3,MacIntel,60.0024001,,,,,,,,,,,0.7913,1,,,,,,,,,,,,,,,,,,,,,,,,0.01328559,-0.412608507,0,0,0,,,,,,,FENCE,HB,m,y,./images/FENCEHB.png,,,,,,,,m,1,0.7913,,,,,,,,0,51,51,14,1
,,,,,,,,,,,,,,,,,199912,19,2022-01-28_14h49.41.122,lexical_decision_task_DD_L6,2021.2.3,MacIntel,60.0024001,,,,,,,,,,,0.7393,1,,,,,,,,,,,,,,,,,,,,,,,,0.01328559,-0.412608507,0,0,0,,,,,,,BURIAL,HB,z,y,./images/BURIALHB.png,,,,,,,,z,1,0.7393,,,,,,,,0,52,52,143,1
,,,,,,,,,,,,,,,,,199912,19,2022-01-28_14h49.41.122,lexical_decision_task_DD_L6,2021.2.3,MacIntel,60.0024001,,,,,,,,,,,0.9289,1,,,,,,,,,,,,,,,,,,,,,,,,0.012456597,-0.411553819,0,0,0,,,,,,,BOILER,LB,m,y,./images/BOILERLB.png,,,,,,,,m,1,0.9289,,,,,,,,0,53,53,36,1
,,,,,,,,,,,,,,,,,199912,19,2022-01-28_14h49.41.122,lexical_decision_task_DD_L6,2021.2.3,MacIntel,60.0024001,,,,,,,,,,,1.2815,0,,,,,,,,,,,,,,,,,,,,,,,,0.012456597,-0.411553819,0,0,0,,,,,,,CRATER,LB,m,y,./images/CRATERLB.png,,,,,,,,z,0,1.2815,,,,,,,,0,54,54,3,1
,,,,,,,,,,,,,,,,,199912,19,2022-01-28_14h49.41.122,lexical_decision_task_DD_L6,2021.2.3,MacIntel,60.0024001,,,,,,,,,,,0.8661,1,,,,,,,,,,,,,,,,,,,,,,,,0.012456597,-0.411553819,0,0,0,,,,,,,PASTA,HB,z,y,./images/PASTAHB.png,,,,,,,,z,1,0.8661,,,,,,,,0,55,55,89,1
,,,,,,,,,,,,,,,,,199912,19,2022-01-28_14h49.41.122,lexical_decision_task_DD_L6,2021.2.3,MacIntel,60.0024001,,,,,,,,,,,0.8225,1,,,,,,,,,,,,,,,,,,,,,,,,0.012456597,-0.411553819,0,0,0,,,,,,,JAGUAR,LB,z,y,./images/JAGUARLB.png,,,,,,,,z,1,0.8225,,,,,,,,0,56,56,102,1
,,,,,,,,,,,,,,,,,199912,19,2022-01-28_14h49.41.122,lexical_decision_task_DD_L6,2021.2.3,MacIntel,60.0024001,,,,,,,,,,,0.7993,1,,,,,,,,,,,,,,,,,,,,,,,,0.012456597,-0.411553819,0,0,0,,,,,,,CLOWN,C,m,y,./images/CLOWN.png,,,,,,,,m,1,0.7993,,,,,,,,0,57,57,22,1
,,,,,,,,,,,,,,,,,199912,19,2022-01-28_14h49.41.122,lexical_decision_task_DD_L6,2021.2.3,MacIntel,60.0024001,,,,,,,,,,,0.7419,0,,,,,,,,,,,,,,,,,,,,,,,,0.012456597,-0.411553819,0,0,0,,,,,,,STAIN,LB,m,y,./images/STAINLB.png,,,,,,,,z,0,0.7419,,,,,,,,0,58,58,6,1
,,,,,,,,,,,,,,,,,199912,19,2022-01-28_14h49.41.122,lexical_decision_task_DD_L6,2021.2.3,MacIntel,60.0024001,,,,,,,,,,,0.7256,1,,,,,,,,,,,,,,,,,,,,,,,,0.012456597,-0.411553819,0,0,0,,,,,,,PICKLE,HB,z,y,./images/PICKLEHB.png,,,,,,,,z,1,0.7256,,,,,,,,0,59,59,98,1
,,,,,,,,,,,,,,,,,199912,19,2022-01-28_14h49.41.122,lexical_decision_task_DD_L6,2021.2.3,MacIntel,60.0024001,,,,,,,,,,,0.6806,1,,,,,,,,,,,,,,,,,,,,,,,,0.012456597,-0.411553819,0,0,0,,,,,,,SHELF,LB,z,y,./images/SHELFLB.png,,,,,,,,z,1,0.6806,,,,,,,,0,60,60,123,1
,,,,,,,,,,,,,,,,,199912,19,2022-01-28_14h49.41.122,lexical_decision_task_DD_L6,2021.2.3,MacIntel,60.0024001,,,,,,,,,,,0.8499,1,,,,,,,,,,,,,,,,,,,,,,,,0.012456597,-0.411553819,0,0,0,,,,,,,INFANT,C,z,y,./images/INFANT.png,,,,,,,,z,1,0.8499,,,,,,,,0,61,61,160,1
,,,,,,,,,,,,,,,,,199912,19,2022-01-28_14h49.41.122,lexical_decision_task_DD_L6,2021.2.3,MacIntel,60.0024001,,,,,,,,,,,0.6721,1,,,,,,,,,,,,,,,,,,,,,,,,0.012456597,-0.411553819,0,0,0,,,,,,,ALLEY,C,m,y,./images/ALLEY.png,,,,,,,,m,1,0.6721,,,,,,,,0,62,62,55,1
,,,,,,,,,,,,,,,,,199912,19,2022-01-28_14h49.41.122,lexical_decision_task_DD_L6,2021.2.3,MacIntel,60.0024001,,,,,,,,,,,0.7013,1,,,,,,,,,,,,,,,,,,,,,,,,0.012456597,-0.411553819,0,0,0,,,,,,,RHINO,LB,z,y,./images/RHINOLB.png,,,,,,,,z,1,0.7013,,,,,,,,0,63,63,93,1
,,,,,,,,,,,,,,,,,199912,19,2022-01-28_14h49.41.122,lexical_decision_task_DD_L6,2021.2.3,MacIntel,60.0024001,,,,,,,,,,,0.8062,1,,,,,,,,,,,,,,,,,,,,,,,,0.012456597,-0.411553819,0,0,0,,,,,,,SHORE,LB,z,y,./images/SHORELB.png,,,,,,,,z,1,0.8062,,,,,,,,0,64,64,96,1
,,,,,,,,,,,,,,,,,199912,19,2022-01-28_14h49.41.122,lexical_decision_task_DD_L6,2021.2.3,MacIntel,60.0024001,,,,,,,,,,,0.6597,1,,,,,,,,,,,,,,,,,,,,,,,,0.012456597,-0.411553819,0,0,0,,,,,,,FARMER,HB,z,y,./images/FARMERHB.png,,,,,,,,z,1,0.6597,,,,,,,,0,65,65,149,1
,,,,,,,,,,,,,,,,,199912,19,2022-01-28_14h49.41.122,lexical_decision_task_DD_L6,2021.2.3,MacIntel,60.0024001,,,,,,,,,,,0.8684,1,,,,,,,,,,,,,,,,,,,,,,,,0.012456597,-0.411553819,0,0,0,,,,,,,MOTOR,C,z,y,./images/MOTOR.png,,,,,,,,z,1,0.8684,,,,,,,,0,66,66,97,1
,,,,,,,,,,,,,,,,,199912,19,2022-01-28_14h49.41.122,lexical_decision_task_DD_L6,2021.2.3,MacIntel,60.0024001,,,,,,,,,,,0.6643,1,,,,,,,,,,,,,,,,,,,,,,,,0.012456597,-0.411553819,0,0,0,,,,,,,CEMENT,HB,z,y,./images/CEMENTHB.png,,,,,,,,z,1,0.6643,,,,,,,,0,67,67,158,1
,,,,,,,,,,,,,,,,,199912,19,2022-01-28_14h49.41.122,lexical_decision_task_DD_L6,2021.2.3,MacIntel,60.0024001,,,,,,,,,,,0.9027,1,,,,,,,,,,,,,,,,,,,,,,,,0.012456597,-0.411553819,0,0,0,,,,,,,CURRY,LB,m,y,./images/CURRYLB.png,,,,,,,,m,1,0.9027,,,,,,,,0,68,68,60,1
,,,,,,,,,,,,,,,,,199912,19,2022-01-28_14h49.41.122,lexical_decision_task_DD_L6,2021.2.3,MacIntel,60.0024001,,,,,,,,,,,0.686,1,,,,,,,,,,,,,,,,,,,,,,,,0.012456597,-0.411553819,0,0,0,,,,,,,CLIFF,HB,m,y,./images/CLIFFHB.png,,,,,,,,m,1,0.686,,,,,,,,0,69,69,8,1
,,,,,,,,,,,,,,,,,199912,19,2022-01-28_14h49.41.122,lexical_decision_task_DD_L6,2021.2.3,MacIntel,60.0024001,,,,,,,,,,,0.8547,0,,,,,,,,,,,,,,,,,,,,,,,,0.012456597,-0.411553819,0,0,0,,,,,,,ATTIC,LB,z,y,./images/ATTICLB.png,,,,,,,,m,0,0.8547,,,,,,,,0,70,70,111,1
,,,,,,,,,,,,,,,,,199912,19,2022-01-28_14h49.41.122,lexical_decision_task_DD_L6,2021.2.3,MacIntel,60.0024001,,,,,,,,,,,0.5984,1,,,,,,,,,,,,,,,,,,,,,,,,0.012456597,-0.411553819,0,0,0,,,,,,,STOVE,HB,m,y,./images/STOVEHB.png,,,,,,,,m,1,0.5984,,,,,,,,0,71,71,2,1
,,,,,,,,,,,,,,,,,199912,19,2022-01-28_14h49.41.122,lexical_decision_task_DD_L6,2021.2.3,MacIntel,60.0024001,,,,,,,,,,,0.7521,1,,,,,,,,,,,,,,,,,,,,,,,,0.012456597,-0.411553819,0,0,0,,,,,,,PEBBLE,C,m,y,./images/PEBBLE.png,,,,,,,,m,1,0.7521,,,,,,,,0,72,72,82,1
,,,,,,,,,,,,,,,,,199912,19,2022-01-28_14h49.41.122,lexical_decision_task_DD_L6,2021.2.3,MacIntel,60.0024001,,,,,,,,,,,0.8366,1,,,,,,,,,,,,,,,,,,,,,,,,0.012456597,-0.411553819,0,0,0,,,,,,,SUNSET,C,z,y,./images/SUNSET.png,,,,,,,,z,1,0.8366,,,,,,,,0,73,73,166,1
,,,,,,,,,,,,,,,,,199912,19,2022-01-28_14h49.41.122,lexical_decision_task_DD_L6,2021.2.3,MacIntel,60.0024001,,,,,,,,,,,0.7655,1,,,,,,,,,,,,,,,,,,,,,,,,0.012456597,-0.411553819,0,0,0,,,,,,,SQUARE,LB,z,y,./images/SQUARELB.png,,,,,,,,z,1,0.7655,,,,,,,,0,74,74,90,1
,,,,,,,,,,,,,,,,,199912,19,2022-01-28_14h49.41.122,lexical_decision_task_DD_L6,2021.2.3,MacIntel,60.0024001,,,,,,,,,,,0.9865,0,,,,,,,,,,,,,,,,,,,,,,,,0.012456597,-0.411553819,0,0,0,,,,,,,STRING,HB,z,y,./images/STRINGHB.png,,,,,,,,m,0,0.9865,,,,,,,,0,75,75,125,1
,,,,,,,,,,,,,,,,,199912,19,2022-01-28_14h49.41.122,lexical_decision_task_DD_L6,2021.2.3,MacIntel,60.0024001,,,,,,,,,,,0.8831,0,,,,,,,,,,,,,,,,,,,,,,,,0.012456597,-0.411553819,0,0,0,,,,,,,SAILOR,C,z,y,./images/SAILOR.png,,,,,,,,m,0,0.8831,,,,,,,,0,76,76,151,1
,,,,,,,,,,,,,,,,,199912,19,2022-01-28_14h49.41.122,lexical_decision_task_DD_L6,2021.2.3,MacIntel,60.0024001,,,,,,,,,,,0.8469,1,,,,,,,,,,,,,,,,,,,,,,,,0.012456597,-0.411553819,0,0,0,,,,,,,TOWEL,C,m,y,./images/TOWEL.png,,,,,,,,m,1,0.8469,,,,,,,,0,77,77,1,1
,,,,,,,,,,,,,,,,,199912,19,2022-01-28_14h49.41.122,lexical_decision_task_DD_L6,2021.2.3,MacIntel,60.0024001,,,,,,,,,,,0.7138,1,,,,,,,,,,,,,,,,,,,,,,,,0.012456597,-0.411553819,0,0,0,,,,,,,PEARL,C,z,y,./images/PEARL.png,,,,,,,,z,1,0.7138,,,,,,,,0,78,78,130,1
,,,,,,,,,,,,,,,,,199912,19,2022-01-28_14h49.41.122,lexical_decision_task_DD_L6,2021.2.3,MacIntel,60.0024001,,,,,,,,,,,0.6026,1,,,,,,,,,,,,,,,,,,,,,,,,0.012456597,-0.411553819,0,0,0,,,,,,,BANANA,C,m,y,./images/BANANA.png,,,,,,,,m,1,0.6026,,,,,,,,0,79,79,70,1
,,,,,,,,,,,,,,,,,199912,19,2022-01-28_14h49.41.122,lexical_decision_task_DD_L6,2021.2.3,MacIntel,60.0024001,,,,,,,,,,,0.4755,1,,,,,,,,,,,,,,,,,,,,,,,,0.012456597,-0.411553819,0,0,0,,,,,,,MONKEY,LB,m,y,./images/MONKEYLB.png,,,,,,,,m,1,0.4755,,,,,,,,0,80,80,45,1
,,,,,,,,,,,,,,,,,199912,19,2022-01-28_14h49.41.122,lexical_decision_task_DD_L6,2021.2.3,MacIntel,60.0024001,,,,,,,,,,,0.8082,1,,,,,,,,,,,,,,,,,,,,,,,,0.012456597,-0.411553819,0,0,0,,,,,,,MOSQUE,C,z,y,./images/MOSQUE.png,,,,,,,,z,1,0.8082,,,,,,,,0,81,81,127,1
,,,,,,,,,,,,,,,,,199912,19,2022-01-28_14h49.41.122,lexical_decision_task_DD_L6,2021.2.3,MacIntel,60.0024001,,,,,,,,,,,0.8075,0,,,,,,,,,,,,,,,,,,,,,,,,0.012456597,-0.411553819,0,0,0,,,,,,,GREASE,LB,z,y,./images/GREASELB.png,,,,,,,,m,0,0.8075,,,,,,,,0,82,82,99,1
,,,,,,,,,,,,,,,,,199912,19,2022-01-28_14h49.41.122,lexical_decision_task_DD_L6,2021.2.3,MacIntel,60.0024001,,,,,,,,,,,0.7211,0,,,,,,,,,,,,,,,,,,,,,,,,-0.00343316,-0.363710937,1,0,0,,,,,,,STORM,LB,z,y,./images/STORMLB.png,break_done_button,,,,,,,m,0,0.7211,,,,,,,,0,83,83,114,1
,,,,,,,,,,,,,,,,,199912,19,2022-01-28_14h49.41.122,lexical_decision_task_DD_L6,2021.2.3,MacIntel,60.0024001,,,,,,,,,,,1.874,0,,,,,,,,,,,,,,,,,,,,,,,,-0.00343316,-0.363710937,0,0,0,,,,,,,CANDLE,C,z,y,./images/CANDLE.png,,,,,,,,m,0,1.874,,,,,,,,0,84,84,145,1
,,,,,,,,,,,,,,,,,199912,19,2022-01-28_14h49.41.122,lexical_decision_task_DD_L6,2021.2.3,MacIntel,60.0024001,,,,,,,,,,,0.7756,1,,,,,,,,,,,,,,,,,,,,,,,,-0.00343316,-0.363710937,0,0,0,,,,,,,COLLAR,LB,m,y,./images/COLLARLB.png,,,,,,,,m,1,0.7756,,,,,,,,0,85,85,15,1
,,,,,,,,,,,,,,,,,199912,19,2022-01-28_14h49.41.122,lexical_decision_task_DD_L6,2021.2.3,MacIntel,60.0024001,,,,,,,,,,,0.8161,0,,,,,,,,,,,,,,,,,,,,,,,,-0.00343316,-0.363710937,0,0,0,,,,,,,LAGOON,HB,m,y,./images/LAGOONHB.png,,,,,,,,z,0,0.8161,,,,,,,,0,86,86,47,1
,,,,,,,,,,,,,,,,,199912,19,2022-01-28_14h49.41.122,lexical_decision_task_DD_L6,2021.2.3,MacIntel,60.0024001,,,,,,,,,,,0.951,1,,,,,,,,,,,,,,,,,,,,,,,,-0.00343316,-0.363710937,0,0,0,,,,,,,BERRY,HB,z,y,./images/BERRYHB.png,,,,,,,,z,1,0.951,,,,,,,,0,87,87,131,1
,,,,,,,,,,,,,,,,,199912,19,2022-01-28_14h49.41.122,lexical_decision_task_DD_L6,2021.2.3,MacIntel,60.0024001,,,,,,,,,,,0.8337,1,,,,,,,,,,,,,,,,,,,,,,,,-0.00343316,-0.363710937,0,0,0,,,,,,,MIRROR,LB,z,y,./images/MIRRORLB.png,,,,,,,,z,1,0.8337,,,,,,,,0,88,88,147,1
,,,,,,,,,,,,,,,,,199912,19,2022-01-28_14h49.41.122,lexical_decision_task_DD_L6,2021.2.3,MacIntel,60.0024001,,,,,,,,,,,1.0564,0,,,,,,,,,,,,,,,,,,,,,,,,-0.00343316,-0.363710937,0,0,0,,,,,,,PLANET,HB,m,y,./images/PLANETHB.png,,,,,,,,z,0,1.0564,,,,,,,,0,89,89,80,1
,,,,,,,,,,,,,,,,,199912,19,2022-01-28_14h49.41.122,lexical_decision_task_DD_L6,2021.2.3,MacIntel,60.0024001,,,,,,,,,,,0.6802,1,,,,,,,,,,,,,,,,,,,,,,,,-0.00343316,-0.363710937,0,0,0,,,,,,,DIVER,LB,m,y,./images/DIVERLB.png,,,,,,,,m,1,0.6802,,,,,,,,0,90,90,9,1
,,,,,,,,,,,,,,,,,199912,19,2022-01-28_14h49.41.122,lexical_decision_task_DD_L6,2021.2.3,MacIntel,60.0024001,,,,,,,,,,,1.1986,1,,,,,,,,,,,,,,,,,,,,,,,,-0.00343316,-0.363710937,0,0,0,,,,,,,FLASK,LB,m,y,./images/FLASKLB.png,,,,,,,,m,1,1.1986,,,,,,,,0,91,91,72,1
,,,,,,,,,,,,,,,,,199912,19,2022-01-28_14h49.41.122,lexical_decision_task_DD_L6,2021.2.3,MacIntel,60.0024001,,,,,,,,,,,0.8188,0,,,,,,,,,,,,,,,,,,,,,,,,-0.00343316,-0.363710937,0,0,0,,,,,,,HEATER,HB,m,y,./images/HEATERHB.png,,,,,,,,z,0,0.8188,,,,,,,,0,92,92,56,1
,,,,,,,,,,,,,,,,,199912,19,2022-01-28_14h49.41.122,lexical_decision_task_DD_L6,2021.2.3,MacIntel,60.0024001,,,,,,,,,,,1.2689,0,,,,,,,,,,,,,,,,,,,,,,,,-0.00343316,-0.363710937,0,0,0,,,,,,,KIDNEY,LB,z,y,./images/KIDNEYLB.png,,,,,,,,m,0,1.2689,,,,,,,,0,93,93,105,1
,,,,,,,,,,,,,,,,,199912,19,2022-01-28_14h49.41.122,lexical_decision_task_DD_L6,2021.2.3,MacIntel,60.0024001,,,,,,,,,,,0.801,0,,,,,,,,,,,,,,,,,,,,,,,,-0.00343316,-0.363710937,0,0,0,,,,,,,MOOSE,LB,z,y,./images/MOOSELB.png,,,,,,,,m,0,0.801,,,,,,,,0,94,94,141,1
,,,,,,,,,,,,,,,,,199912,19,2022-01-28_14h49.41.122,lexical_decision_task_DD_L6,2021.2.3,MacIntel,60.0024001,,,,,,,,,,,0.9643,0,,,,,,,,,,,,,,,,,,,,,,,,-0.00343316,-0.363710937,0,0,0,,,,,,,BRIDE,C,m,y,./images/BRIDE.png,,,,,,,,z,0,0.9643,,,,,,,,0,95,95,64,1
,,,,,,,,,,,,,,,,,199912,19,2022-01-28_14h49.41.122,lexical_decision_task_DD_L6,2021.2.3,MacIntel,60.0024001,,,,,,,,,,,0.7414,0,,,,,,,,,,,,,,,,,,,,,,,,-0.00343316,-0.363710937,0,0,0,,,,,,,BLOKE,LB,m,y,./images/BLOKELB.png,,,,,,,,z,0,0.7414,,,,,,,,0,96,96,12,1
,,,,,,,,,,,,,,,,,199912,19,2022-01-28_14h49.41.122,lexical_decision_task_DD_L6,2021.2.3,MacIntel,60.0024001,,,,,,,,,,,0.7828,1,,,,,,,,,,,,,,,,,,,,,,,,-0.00343316,-0.363710937,0,0,0,,,,,,,SPORT,LB,z,y,./images/SPORTLB.png,,,,,,,,z,1,0.7828,,,,,,,,0,97,97,132,1
,,,,,,,,,,,,,,,,,199912,19,2022-01-28_14h49.41.122,lexical_decision_task_DD_L6,2021.2.3,MacIntel,60.0024001,,,,,,,,,,,0.8678,1,,,,,,,,,,,,,,,,,,,,,,,,-0.00343316,-0.363710937,0,0,0,,,,,,,MALLET,HB,z,y,./images/MALLETHB.png,,,,,,,,z,1,0.8678,,,,,,,,0,98,98,134,1
,,,,,,,,,,,,,,,,,199912,19,2022-01-28_14h49.41.122,lexical_decision_task_DD_L6,2021.2.3,MacIntel,60.0024001,,,,,,,,,,,0.7514,1,,,,,,,,,,,,,,,,,,,,,,,,-0.00343316,-0.363710937,0,0,0,,,,,,,KITTEN,LB,z,y,./images/KITTENLB.png,,,,,,,,z,1,0.7514,,,,,,,,0,99,99,129,1
,,,,,,,,,,,,,,,,,199912,19,2022-01-28_14h49.41.122,lexical_decision_task_DD_L6,2021.2.3,MacIntel,60.0024001,,,,,,,,,,,0.8739,1,,,,,,,,,,,,,,,,,,,,,,,,-0.00343316,-0.363710937,0,0,0,,,,,,,GRANNY,HB,m,y,./images/GRANNYHB.png,,,,,,,,m,1,0.8739,,,,,,,,0,100,100,20,1
,,,,,,,,,,,,,,,,,199912,19,2022-01-28_14h49.41.122,lexical_decision_task_DD_L6,2021.2.3,MacIntel,60.0024001,,,,,,,,,,,0.7872,1,,,,,,,,,,,,,,,,,,,,,,,,-0.00343316,-0.363710937,0,0,0,,,,,,,POODLE,LB,z,y,./images/POODLELB.png,,,,,,,,z,1,0.7872,,,,,,,,0,101,101,165,1
,,,,,,,,,,,,,,,,,199912,19,2022-01-28_14h49.41.122,lexical_decision_task_DD_L6,2021.2.3,MacIntel,60.0024001,,,,,,,,,,,1.2321,0,,,,,,,,,,,,,,,,,,,,,,,,-0.00343316,-0.363710937,0,0,0,,,,,,,LITTER,LB,z,y,./images/LITTERLB.png,,,,,,,,m,0,1.2321,,,,,,,,0,102,102,162,1
,,,,,,,,,,,,,,,,,199912,19,2022-01-28_14h49.41.122,lexical_decision_task_DD_L6,2021.2.3,MacIntel,60.0024001,,,,,,,,,,,0.7507,1,,,,,,,,,,,,,,,,,,,,,,,,-0.00343316,-0.363710937,0,0,0,,,,,,,CLOUD,HB,m,y,./images/CLOUDHB.png,,,,,,,,m,1,0.7507,,,,,,,,0,103,103,26,1
,,,,,,,,,,,,,,,,,199912,19,2022-01-28_14h49.41.122,lexical_decision_task_DD_L6,2021.2.3,MacIntel,60.0024001,,,,,,,,,,,0.7978,1,,,,,,,,,,,,,,,,,,,,,,,,-0.00343316,-0.363710937,0,0,0,,,,,,,SKIING,HB,z,y,./images/SKIINGHB.png,,,,,,,,z,1,0.7978,,,,,,,,0,104,104,101,1
,,,,,,,,,,,,,,,,,199912,19,2022-01-28_14h49.41.122,lexical_decision_task_DD_L6,2021.2.3,MacIntel,60.0024001,,,,,,,,,,,0.6907,1,,,,,,,,,,,,,,,,,,,,,,,,-0.00343316,-0.363710937,0,0,0,,,,,,,DRUMS,C,z,y,./images/DRUMS.png,,,,,,,,z,1,0.6907,,,,,,,,0,105,105,133,1
,,,,,,,,,,,,,,,,,199912,19,2022-01-28_14h49.41.122,lexical_decision_task_DD_L6,2021.2.3,MacIntel,60.0024001,,,,,,,,,,,0.6601,1,,,,,,,,,,,,,,,,,,,,,,,,-0.00343316,-0.363710937,0,0,0,,,,,,,BIRTH,C,z,y,./images/BIRTH.png,,,,,,,,z,1,0.6601,,,,,,,,0,106,106,121,1
,,,,,,,,,,,,,,,,,199912,19,2022-01-28_14h49.41.122,lexical_decision_task_DD_L6,2021.2.3,MacIntel,60.0024001,,,,,,,,,,,0.8404,1,,,,,,,,,,,,,,,,,,,,,,,,-0.00343316,-0.363710937,0,0,0,,,,,,,POSTER,HB,m,y,./images/POSTERHB.png,,,,,,,,m,1,0.8404,,,,,,,,0,107,107,53,1
,,,,,,,,,,,,,,,,,199912,19,2022-01-28_14h49.41.122,lexical_decision_task_DD_L6,2021.2.3,MacIntel,60.0024001,,,,,,,,,,,0.8385,0,,,,,,,,,,,,,,,,,,,,,,,,-0.00343316,-0.363710937,0,0,0,,,,,,,WHEEL,HB,m,y,./images/WHEELHB.png,,,,,,,,z,0,0.8385,,,,,,,,0,108,108,77,1
,,,,,,,,,,,,,,,,,199912,19,2022-01-28_14h49.41.122,lexical_decision_task_DD_L6,2021.2.3,MacIntel,60.0024001,,,,,,,,,,,0.8381,1,,,,,,,,,,,,,,,,,,,,,,,,-0.00343316,-0.363710937,0,0,0,,,,,,,TOMATO,LB,z,y,./images/TOMATOLB.png,,,,,,,,z,1,0.8381,,,,,,,,0,109,109,84,1
,,,,,,,,,,,,,,,,,199912,19,2022-01-28_14h49.41.122,lexical_decision_task_DD_L6,2021.2.3,MacIntel,60.0024001,,,,,,,,,,,0.7869,0,,,,,,,,,,,,,,,,,,,,,,,,-0.00343316,-0.363710937,0,0,0,,,,,,,TORCH,HB,z,y,./images/TORCHHB.png,,,,,,,,m,0,0.7869,,,,,,,,0,110,110,152,1
,,,,,,,,,,,,,,,,,199912,19,2022-01-28_14h49.41.122,lexical_decision_task_DD_L6,2021.2.3,MacIntel,60.0024001,,,,,,,,,,,0.7484,1,,,,,,,,,,,,,,,,,,,,,,,,-0.00343316,-0.363710937,0,0,0,,,,,,,STEAK,C,m,y,./images/STEAK.png,,,,,,,,m,1,0.7484,,,,,,,,0,111,111,31,1
,,,,,,,,,,,,,,,,,199912,19,2022-01-28_14h49.41.122,lexical_decision_task_DD_L6,2021.2.3,MacIntel,60.0024001,,,,,,,,,,,1.032,1,,,,,,,,,,,,,,,,,,,,,,,,-0.00343316,-0.363710937,0,0,0,,,,,,,STATUE,LB,m,y,./images/STATUELB.png,,,,,,,,m,1,1.032,,,,,,,,0,112,112,66,1
,,,,,,,,,,,,,,,,,199912,19,2022-01-28_14h49.41.122,lexical_decision_task_DD_L6,2021.2.3,MacIntel,60.0024001,,,,,,,,,,,0.668,1,,,,,,,,,,,,,,,,,,,,,,,,-0.00343316,-0.363710937,0,0,0,,,,,,,CHALK,C,m,y,./images/CHALK.png,,,,,,,,m,1,0.668,,,,,,,,0,113,113,25,1
,,,,,,,,,,,,,,,,,199912,19,2022-01-28_14h49.41.122,lexical_decision_task_DD_L6,2021.2.3,MacIntel,60.0024001,,,,,,,,,,,0.8293,1,,,,,,,,,,,,,,,,,,,,,,,,-0.00343316,-0.363710937,0,0,0,,,,,,,SCREW,LB,z,y,./images/SCREWLB.png,,,,,,,,z,1,0.8293,,,,,,,,0,114,114,108,1
,,,,,,,,,,,,,,,,,199912,19,2022-01-28_14h49.41.122,lexical_decision_task_DD_L6,2021.2.3,MacIntel,60.0024001,,,,,,,,,,,1.3527,1,,,,,,,,,,,,,,,,,,,,,,,,-0.00343316,-0.363710937,0,0,0,,,,,,,GARDEN,C,m,y,./images/GARDEN.png,,,,,,,,m,1,1.3527,,,,,,,,0,115,115,10,1
,,,,,,,,,,,,,,,,,199912,19,2022-01-28_14h49.41.122,lexical_decision_task_DD_L6,2021.2.3,MacIntel,60.0024001,,,,,,,,,,,0.7578,1,,,,,,,,,,,,,,,,,,,,,,,,-0.00343316,-0.363710937,0,0,0,,,,,,,MAMMAL,HB,m,y,./images/MAMMALHB.png,,,,,,,,m,1,0.7578,,,,,,,,0,116,116,62,1
,,,,,,,,,,,,,,,,,199912,19,2022-01-28_14h49.41.122,lexical_decision_task_DD_L6,2021.2.3,MacIntel,60.0024001,,,,,,,,,,,0.6178,1,,,,,,,,,,,,,,,,,,,,,,,,-0.00343316,-0.363710937,0,0,0,,,,,,,PISTOL,HB,m,y,./images/PISTOLHB.png,,,,,,,,m,1,0.6178,,,,,,,,0,117,117,29,1
,,,,,,,,,,,,,,,,,199912,19,2022-01-28_14h49.41.122,lexical_decision_task_DD_L6,2021.2.3,MacIntel,60.0024001,,,,,,,,,,,0.8673,0,,,,,,,,,,,,,,,,,,,,,,,,-0.00343316,-0.363710937,0,0,0,,,,,,,FOLDER,LB,z,y,./images/FOLDERLB.png,,,,,,,,m,0,0.8673,,,,,,,,0,118,118,126,1
,,,,,,,,,,,,,,,,,199912,19,2022-01-28_14h49.41.122,lexical_decision_task_DD_L6,2021.2.3,MacIntel,60.0024001,,,,,,,,,,,0.8704,1,,,,,,,,,,,,,,,,,,,,,,,,-0.00343316,-0.363710937,0,0,0,,,,,,,URINE,C,z,y,./images/URINE.png,,,,,,,,z,1,0.8704,,,,,,,,0,119,119,154,1
,,,,,,,,,,,,,,,,,199912,19,2022-01-28_14h49.41.122,lexical_decision_task_DD_L6,2021.2.3,MacIntel,60.0024001,,,,,,,,,,,0.8081,1,,,,,,,,,,,,,,,,,,,,,,,,-0.00343316,-0.363710937,0,0,0,,,,,,,SWING,C,z,y,./images/SWING.png,,,,,,,,z,1,0.8081,,,,,,,,0,120,120,124,1
,,,,,,,,,,,,,,,,,199912,19,2022-01-28_14h49.41.122,lexical_decision_task_DD_L6,2021.2.3,MacIntel,60.0024001,,,,,,,,,,,0.788,0,,,,,,,,,,,,,,,,,,,,,,,,-0.00343316,-0.363710937,0,0,0,,,,,,,MUFFIN,C,z,y,./images/MUFFIN.png,,,,,,,,m,0,0.788,,,,,,,,0,121,121,139,1
,,,,,,,,,,,,,,,,,199912,19,2022-01-28_14h49.41.122,lexical_decision_task_DD_L6,2021.2.3,MacIntel,60.0024001,,,,,,,,,,,0.6016,0,,,,,,,,,,,,,,,,,,,,,,,,-0.00343316,-0.363710937,0,0,0,,,,,,,ONION,LB,z,y,./images/ONIONLB.png,,,,,,,,m,0,0.6016,,,,,,,,0,122,122,135,1
,,,,,,,,,,,,,,,,,199912,19,2022-01-28_14h49.41.122,lexical_decision_task_DD_L6,2021.2.3,MacIntel,60.0024001,,,,,,,,,,,1.4391,0,,,,,,,,,,,,,,,,,,,,,,,,-0.00343316,-0.363710937,0,0,0,,,,,,,WRIST,C,z,y,./images/WRIST.png,,,,,,,,m,0,1.4391,,,,,,,,0,123,123,109,1
,,,,,,,,,,,,,,,,,199912,19,2022-01-28_14h49.41.122,lexical_decision_task_DD_L6,2021.2.3,MacIntel,60.0024001,,,,,,,,,,,1.3915,0,,,,,,,,,,,,,,,,,,,,,,,,-0.00343316,-0.363710937,0,0,0,,,,,,,BOXER,C,m,y,./images/BOXER.png,,,,,,,,z,0,1.3915,,,,,,,,0,124,124,4,1
,,,,,,,,,,,,,,,,,199912,19,2022-01-28_14h49.41.122,lexical_decision_task_DD_L6,2021.2.3,MacIntel,60.0024001,,,,,,,,,,,0.596,1,,,,,,,,,,,,,,,,,,,,,,,,0.009032118,-0.393190104,1,0,0,,,,,,,LLAMA,HB,m,y,./images/LLAMAHB.png,break_done_button,,,,,,,m,1,0.596,,,,,,,,0,125,125,35,1
,,,,,,,,,,,,,,,,,199912,19,2022-01-28_14h49.41.122,lexical_decision_task_DD_L6,2021.2.3,MacIntel,60.0024001,,,,,,,,,,,0.8523,1,,,,,,,,,,,,,,,,,,,,,,,,0.009032118,-0.393190104,0,0,0,,,,,,,CASINO,C,m,y,./images/CASINO.png,,,,,,,,m,1,0.8523,,,,,,,,0,126,126,28,1
,,,,,,,,,,,,,,,,,199912,19,2022-01-28_14h49.41.122,lexical_decision_task_DD_L6,2021.2.3,MacIntel,60.0024001,,,,,,,,,,,0.5836,1,,,,,,,,,,,,,,,,,,,,,,,,0.009032118,-0.393190104,0,0,0,,,,,,,BUBBLE,HB,m,y,./images/BUBBLEHB.png,,,,,,,,m,1,0.5836,,,,,,,,0,127,127,71,1
,,,,,,,,,,,,,,,,,199912,19,2022-01-28_14h49.41.122,lexical_decision_task_DD_L6,2021.2.3,MacIntel,60.0024001,,,,,,,,,,,1.1796,0,,,,,,,,,,,,,,,,,,,,,,,,0.009032118,-0.393190104,0,0,0,,,,,,,BARREL,HB,z,y,./images/BARRELHB.png,,,,,,,,m,0,1.1796,,,,,,,,0,128,128,116,1
,,,,,,,,,,,,,,,,,199912,19,2022-01-28_14h49.41.122,lexical_decision_task_DD_L6,2021.2.3,MacIntel,60.0024001,,,,,,,,,,,1.3529,1,,,,,,,,,,,,,,,,,,,,,,,,0.009032118,-0.393190104,0,0,0,,,,,,,CRADLE,HB,z,y,./images/CRADLEHB.png,,,,,,,,z,1,1.3529,,,,,,,,0,129,129,104,1
,,,,,,,,,,,,,,,,,199912,19,2022-01-28_14h49.41.122,lexical_decision_task_DD_L6,2021.2.3,MacIntel,60.0024001,,,,,,,,,,,0.5839,1,,,,,,,,,,,,,,,,,,,,,,,,0.009032118,-0.393190104,0,0,0,,,,,,,SAUCE,LB,m,y,./images/SAUCELB.png,,,,,,,,m,1,0.5839,,,,,,,,0,130,130,51,1
,,,,,,,,,,,,,,,,,199912,19,2022-01-28_14h49.41.122,lexical_decision_task_DD_L6,2021.2.3,MacIntel,60.0024001,,,,,,,,,,,0.6852,1,,,,,,,,,,,,,,,,,,,,,,,,0.009032118,-0.393190104,0,0,0,,,,,,,VALLEY,HB,m,y,./images/VALLEYHB.png,,,,,,,,m,1,0.6852,,,,,,,,0,131,131,68,1
,,,,,,,,,,,,,,,,,199912,19,2022-01-28_14h49.41.122,lexical_decision_task_DD_L6,2021.2.3,MacIntel,60.0024001,,,,,,,,,,,0.5822,0,,,,,,,,,,,,,,,,,,,,,,,,0.009032118,-0.393190104,0,0,0,,,,,,,SNACK,C,z,y,./images/SNACK.png,,,,,,,,m,0,0.5822,,,,,,,,0,132,132,157,1
,,,,,,,,,,,,,,,,,199912,19,2022-01-28_14h49.41.122,lexical_decision_task_DD_L6,2021.2.3,MacIntel,60.0024001,,,,,,,,,,,0.7204,1,,,,,,,,,,,,,,,,,,,,,,,,0.009032118,-0.393190104,0,0,0,,,,,,,CLOTH,HB,m,y,./images/CLOTHHB.png,,,,,,,,m,1,0.7204,,,,,,,,0,133,133,23,1
,,,,,,,,,,,,,,,,,199912,19,2022-01-28_14h49.41.122,lexical_decision_task_DD_L6,2021.2.3,MacIntel,60.0024001,,,,,,,,,,,0.7984,0,,,,,,,,,,,,,,,,,,,,,,,,0.009032118,-0.393190104,0,0,0,,,,,,,TIGER,C,m,y,./images/TIGER.png,,,,,,,,z,0,0.7984,,,,,,,,0,134,134,37,1
,,,,,,,,,,,,,,,,,199912,19,2022-01-28_14h49.41.122,lexical_decision_task_DD_L6,2021.2.3,MacIntel,60.0024001,,,,,,,,,,,0.6734,1,,,,,,,,,,,,,,,,,,,,,,,,0.009032118,-0.393190104,0,0,0,,,,,,,BUTTER,LB,m,y,./images/BUTTERLB.png,,,,,,,,m,1,0.6734,,,,,,,,0,135,135,27,1
,,,,,,,,,,,,,,,,,199912,19,2022-01-28_14h49.41.122,lexical_decision_task_DD_L6,2021.2.3,MacIntel,60.0024001,,,,,,,,,,,0.7871,0,,,,,,,,,,,,,,,,,,,,,,,,0.009032118,-0.393190104,0,0,0,,,,,,,SMOKER,HB,z,y,./images/SMOKERHB.png,,,,,,,,m,0,0.7871,,,,,,,,0,136,136,110,1
,,,,,,,,,,,,,,,,,199912,19,2022-01-28_14h49.41.122,lexical_decision_task_DD_L6,2021.2.3,MacIntel,60.0024001,,,,,,,,,,,0.6694,1,,,,,,,,,,,,,,,,,,,,,,,,0.009032118,-0.393190104,0,0,0,,,,,,,FALCON,C,z,y,./images/FALCON.png,,,,,,,,z,1,0.6694,,,,,,,,0,137,137,112,1
,,,,,,,,,,,,,,,,,199912,19,2022-01-28_14h49.41.122,lexical_decision_task_DD_L6,2021.2.3,MacIntel,60.0024001,,,,,,,,,,,0.835,1,,,,,,,,,,,,,,,,,,,,,,,,0.009032118,-0.393190104,0,0,0,,,,,,,SLOPE,LB,m,y,./images/SLOPELB.png,,,,,,,,m,1,0.835,,,,,,,,0,138,138,30,1
,,,,,,,,,,,,,,,,,199912,19,2022-01-28_14h49.41.122,lexical_decision_task_DD_L6,2021.2.3,MacIntel,60.0024001,,,,,,,,,,,0.6335,1,,,,,,,,,,,,,,,,,,,,,,,,0.009032118,-0.393190104,0,0,0,,,,,,,MUMMY,C,m,y,./images/MUMMY.png,,,,,,,,m,1,0.6335,,,,,,,,0,139,139,46,1
,,,,,,,,,,,,,,,,,199912,19,2022-01-28_14h49.41.122,lexical_decision_task_DD_L6,2021.2.3,MacIntel,60.0024001,,,,,,,,,,,0.7912,0,,,,,,,,,,,,,,,,,,,,,,,,0.009032118,-0.393190104,0,0,0,,,,,,,BUNNY,C,m,y,./images/BUNNY.png,,,,,,,,z,0,0.7912,,,,,,,,0,140,140,13,1
,,,,,,,,,,,,,,,,,199912,19,2022-01-28_14h49.41.122,lexical_decision_task_DD_L6,2021.2.3,MacIntel,60.0024001,,,,,,,,,,,0.9565,1,,,,,,,,,,,,,,,,,,,,,,,,0.009032118,-0.393190104,0,0,0,,,,,,,TULIP,HB,z,y,./images/TULIPHB.png,,,,,,,,z,1,0.9565,,,,,,,,0,141,141,92,1
,,,,,,,,,,,,,,,,,199912,19,2022-01-28_14h49.41.122,lexical_decision_task_DD_L6,2021.2.3,MacIntel,60.0024001,,,,,,,,,,,0.7523,1,,,,,,,,,,,,,,,,,,,,,,,,0.009032118,-0.393190104,0,0,0,,,,,,,DRILL,LB,m,y,./images/DRILLLB.png,,,,,,,,m,1,0.7523,,,,,,,,0,142,142,81,1
,,,,,,,,,,,,,,,,,199912,19,2022-01-28_14h49.41.122,lexical_decision_task_DD_L6,2021.2.3,MacIntel,60.0024001,,,,,,,,,,,0.8845,1,,,,,,,,,,,,,,,,,,,,,,,,0.009032118,-0.393190104,0,0,0,,,,,,,BANNER,C,z,y,./images/BANNER.png,,,,,,,,z,1,0.8845,,,,,,,,0,143,143,136,1
,,,,,,,,,,,,,,,,,199912,19,2022-01-28_14h49.41.122,lexical_decision_task_DD_L6,2021.2.3,MacIntel,60.0024001,,,,,,,,,,,1.1837,0,,,,,,,,,,,,,,,,,,,,,,,,0.009032118,-0.393190104,0,0,0,,,,,,,PARADE,HB,m,y,./images/PARADEHB.png,,,,,,,,z,0,1.1837,,,,,,,,0,144,144,17,1
,,,,,,,,,,,,,,,,,199912,19,2022-01-28_14h49.41.122,lexical_decision_task_DD_L6,2021.2.3,MacIntel,60.0024001,,,,,,,,,,,1.1418,1,,,,,,,,,,,,,,,,,,,,,,,,0.009032118,-0.393190104,0,0,0,,,,,,,JUMPER,HB,m,y,./images/JUMPERHB.png,,,,,,,,m,1,1.1418,,,,,,,,0,145,145,74,1
,,,,,,,,,,,,,,,,,199912,19,2022-01-28_14h49.41.122,lexical_decision_task_DD_L6,2021.2.3,MacIntel,60.0024001,,,,,,,,,,,0.8724,1,,,,,,,,,,,,,,,,,,,,,,,,0.009032118,-0.393190104,0,0,0,,,,,,,BEARD,HB,z,y,./images/BEARDHB.png,,,,,,,,z,1,0.8724,,,,,,,,0,146,146,86,1
,,,,,,,,,,,,,,,,,199912,19,2022-01-28_14h49.41.122,lexical_decision_task_DD_L6,2021.2.3,MacIntel,60.0024001,,,,,,,,,,,0.7125,1,,,,,,,,,,,,,,,,,,,,,,,,0.009032118,-0.393190104,0,0,0,,,,,,,BAMBOO,HB,m,y,./images/BAMBOOHB.png,,,,,,,,m,1,0.7125,,,,,,,,0,147,147,5,1
,,,,,,,,,,,,,,,,,199912,19,2022-01-28_14h49.41.122,lexical_decision_task_DD_L6,2021.2.3,MacIntel,60.0024001,,,,,,,,,,,0.6704,1,,,,,,,,,,,,,,,,,,,,,,,,0.009032118,-0.393190104,0,0,0,,,,,,,MEDAL,HB,m,y,./images/MEDALHB.png,,,,,,,,m,1,0.6704,,,,,,,,0,148,148,11,1
,,,,,,,,,,,,,,,,,199912,19,2022-01-28_14h49.41.122,lexical_decision_task_DD_L6,2021.2.3,MacIntel,60.0024001,,,,,,,,,,,0.6428,0,,,,,,,,,,,,,,,,,,,,,,,,0.009032118,-0.393190104,0,0,0,,,,,,,THROAT,LB,z,y,./images/THROATLB.png,,,,,,,,m,0,0.6428,,,,,,,,0,149,149,120,1
,,,,,,,,,,,,,,,,,199912,19,2022-01-28_14h49.41.122,lexical_decision_task_DD_L6,2021.2.3,MacIntel,60.0024001,,,,,,,,,,,0.6854,1,,,,,,,,,,,,,,,,,,,,,,,,0.009032118,-0.393190104,0,0,0,,,,,,,SAUNA,LB,m,y,./images/SAUNALB.png,,,,,,,,m,1,0.6854,,,,,,,,0,150,150,33,1
,,,,,,,,,,,,,,,,,199912,19,2022-01-28_14h49.41.122,lexical_decision_task_DD_L6,2021.2.3,MacIntel,60.0024001,,,,,,,,,,,0.7179,0,,,,,,,,,,,,,,,,,,,,,,,,0.009032118,-0.393190104,0,0,0,,,,,,,CHAIN,LB,m,y,./images/CHAINLB.png,,,,,,,,z,0,0.7179,,,,,,,,0,151,151,42,1
,,,,,,,,,,,,,,,,,199912,19,2022-01-28_14h49.41.122,lexical_decision_task_DD_L6,2021.2.3,MacIntel,60.0024001,,,,,,,,,,,0.5334,1,,,,,,,,,,,,,,,,,,,,,,,,0.009032118,-0.393190104,0,0,0,,,,,,,STREAM,HB,m,y,./images/STREAMHB.png,,,,,,,,m,1,0.5334,,,,,,,,0,152,152,41,1
,,,,,,,,,,,,,,,,,199912,19,2022-01-28_14h49.41.122,lexical_decision_task_DD_L6,2021.2.3,MacIntel,60.0024001,,,,,,,,,,,0.624,0,,,,,,,,,,,,,,,,,,,,,,,,0.009032118,-0.393190104,0,0,0,,,,,,,CARPET,HB,z,y,./images/CARPETHB.png,,,,,,,,m,0,0.624,,,,,,,,0,153,153,137,1
,,,,,,,,,,,,,,,,,199912,19,2022-01-28_14h49.41.122,lexical_decision_task_DD_L6,2021.2.3,MacIntel,60.0024001,,,,,,,,,,,1.0003,1,,,,,,,,,,,,,,,,,,,,,,,,0.009032118,-0.393190104,0,0,0,,,,,,,BAKER,LB,m,y,./images/BAKERLB.png,,,,,,,,m,1,1.0003,,,,,,,,0,154,154,63,1
,,,,,,,,,,,,,,,,,199912,19,2022-01-28_14h49.41.122,lexical_decision_task_DD_L6,2021.2.3,MacIntel,60.0024001,,,,,,,,,,,0.7981,1,,,,,,,,,,,,,,,,,,,,,,,,0.009032118,-0.393190104,0,0,0,,,,,,,MAGGOT,LB,z,y,./images/MAGGOTLB.png,,,,,,,,z,1,0.7981,,,,,,,,0,155,155,117,1
,,,,,,,,,,,,,,,,,199912,19,2022-01-28_14h49.41.122,lexical_decision_task_DD_L6,2021.2.3,MacIntel,60.0024001,,,,,,,,,,,0.5656,1,,,,,,,,,,,,,,,,,,,,,,,,0.009032118,-0.393190104,0,0,0,,,,,,,BRUSH,HB,m,y,./images/BRUSHHB.png,,,,,,,,m,1,0.5656,,,,,,,,0,156,156,59,1
,,,,,,,,,,,,,,,,,199912,19,2022-01-28_14h49.41.122,lexical_decision_task_DD_L6,2021.2.3,MacIntel,60.0024001,,,,,,,,,,,1.2487,0,,,,,,,,,,,,,,,,,,,,,,,,0.009032118,-0.393190104,0,0,0,,,,,,,CRUST,C,z,y,./images/CRUST.png,,,,,,,,m,0,1.2487,,,,,,,,0,157,157,163,1
,,,,,,,,,,,,,,,,,199912,19,2022-01-28_14h49.41.122,lexical_decision_task_DD_L6,2021.2.3,MacIntel,60.0024001,,,,,,,,,,,0.5529,0,,,,,,,,,,,,,,,,,,,,,,,,0.009032118,-0.393190104,0,0,0,,,,,,,STOOL,C,m,y,./images/STOOL.png,,,,,,,,z,0,0.5529,,,,,,,,0,158,158,43,1
,,,,,,,,,,,,,,,,,199912,19,2022-01-28_14h49.41.122,lexical_decision_task_DD_L6,2021.2.3,MacIntel,60.0024001,,,,,,,,,,,0.8649,1,,,,,,,,,,,,,,,,,,,,,,,,0.009032118,-0.393190104,0,0,0,,,,,,,MELON,C,z,y,./images/MELON.png,,,,,,,,z,1,0.8649,,,,,,,,0,159,159,106,1
,,,,,,,,,,,,,,,,,199912,19,2022-01-28_14h49.41.122,lexical_decision_task_DD_L6,2021.2.3,MacIntel,60.0024001,,,,,,,,,,,0.569,1,,,,,,,,,,,,,,,,,,,,,,,,0.009032118,-0.393190104,0,0,0,,,,,,,GRAIN,LB,z,y,./images/GRAINLB.png,,,,,,,,z,1,0.569,,,,,,,,0,160,160,159,1
,,,,,,,,,,,,,,,,,199912,19,2022-01-28_14h49.41.122,lexical_decision_task_DD_L6,2021.2.3,MacIntel,60.0024001,,,,,,,,,,,0.7505,1,,,,,,,,,,,,,,,,,,,,,,,,0.009032118,-0.393190104,0,0,0,,,,,,,CANYON,C,z,y,./images/CANYON.png,,,,,,,,z,1,0.7505,,,,,,,,0,161,161,118,1
,,,,,,,,,,,,,,,,,199912,19,2022-01-28_14h49.41.122,lexical_decision_task_DD_L6,2021.2.3,MacIntel,60.0024001,,,,,,,,,,,0.5087,0,,,,,,,,,,,,,,,,,,,,,,,,0.009032118,-0.393190104,0,0,0,,,,,,,FERRY,LB,m,y,./images/FERRYLB.png,,,,,,,,z,0,0.5087,,,,,,,,0,162,162,57,1
,,,,,,,,,,,,,,,,,199912,19,2022-01-28_14h49.41.122,lexical_decision_task_DD_L6,2021.2.3,MacIntel,60.0024001,,,,,,,,,,,0.5155,1,,,,,,,,,,,,,,,,,,,,,,,,0.009032118,-0.393190104,0,0,0,,,,,,,PENCE,C,z,y,./images/PENCE.png,,,,,,,,z,1,0.5155,,,,,,,,0,163,163,100,1
,,,,,,,,,,,,,,,,,199912,19,2022-01-28_14h49.41.122,lexical_decision_task_DD_L6,2021.2.3,MacIntel,60.0024001,,,,,,,,,,,0.3173,1,,,,,,,,,,,,,,,,,,,,,,,,0.009032118,-0.393190104,0,0,0,,,,,,,MUSCLE,C,z,y,./images/MUSCLE.png,,,,,,,,z,1,0.3173,,,,,,,,0,164,164,88,1
,,,,,,,,,,,,,,,,,199912,19,2022-01-28_14h49.41.122,lexical_decision_task_DD_L6,2021.2.3,MacIntel,60.0024001,,,,,,,,,,,0.6789,1,,,,,,,,,,,,,,,,,,,,,,,,0.009032118,-0.393190104,0,0,0,,,,,,,LIZARD,HB,z,y,./images/LIZARDHB.png,,,,,,,,z,1,0.6789,,,,,,,,0,165,165,128,1
,,,,,,,,,,,,,,,,,199912,19,2022-01-28_14h49.41.122,lexical_decision_task_DD_L6,2021.2.3,MacIntel,60.0024001,,,,,,,,,,,0.737,0,,,,,,,,,,,,,,,,,,,,,,,,0.009032118,-0.393190104,0,0,0,,,,,,,COOKER,LB,z,y,./images/COOKERLB.png,,,,,,,,m,0,0.737,,,,,,,,0,166,166,153,1
,,,,,,,,,,,,,,,,,199912,19,2022-01-28_14h49.41.122,lexical_decision_task_DD_L6,2021.2.3,MacIntel,60.0024001,,,,,,,,,,,1.0855,0,,,,,,,,,,,,,,,,,,,,,,,,0.009032118,-0.393190104,0,0,0,,,,,,,SWEAT,LB,z,y,./images/SWEATLB.png,,,,,,,,m,0,1.0855,,,,,,,,0,167,167,150,1
