key_resp.keys,instr_done_touch.x,instr_done_touch.y,instr_done_touch.leftButton,instr_done_touch.midButton,instr_done_touch.rightButton,instr_done_touch.clicked_name,instruction_pages.thisRepN,instruction_pages.thisTrialN,instruction_pages.thisN,instruction_pages.thisIndex,instruction_pages.ran,pageN,phase,instruct_text,has_image,instruct_image,participant,age,date,expName,psychopyVersion,OS,frameRate,key_resp.rt,response.keys,response.corr,response.rt,touch_resp.x,touch_resp.y,touch_resp.leftButton,touch_resp.midButton,touch_resp.rightButton,touch_resp.time,touch_resp.clicked_name,rt,corr,practrials.thisRepN,practrials.thisTrialN,practrials.thisN,practrials.thisIndex,practrials.ran,TrialID,Target,corrAns,end_of_practice_trials_pages.thisRepN,end_of_practice_trials_pages.thisTrialN,end_of_practice_trials_pages.thisN,end_of_practice_trials_pages.thisIndex,end_of_practice_trials_pages.ran,key_resp_2.keys,key_resp_2.corr,key_resp_2.rt,targ_click.x,targ_click.y,targ_click.leftButton,targ_click.midButton,targ_click.rightButton,targ_click.time,targ_click.clicked_name,break_done_touch.x,break_done_touch.y,break_done_touch.leftButton,break_done_touch.midButton,break_done_touch.rightButton,break_done_keyboard.keys,maintrials.thisRepN,maintrials.thisTrialN,maintrials.thisN,maintrials.thisIndex,maintrials.ran,string,blur,study,lex,stim_path,break_done_keyboard.rt,test_instructions.thisRepN,test_instructions.thisTrialN,test_instructions.thisN,test_instructions.thisIndex,test_instructions.ran,key_resp_3.keys,key_resp_3.corr,key_resp_3.rt,test_click.x,test_click.y,test_click.leftButton,test_click.midButton,test_click.rightButton,test_click.time,test_click.clicked_name,test_phase.thisRepN,test_phase.thisTrialN,test_phase.thisN,test_phase.thisIndex,test_phase.ran
,-0.054432034,-0.41088874,1,0,0,instr_done_button,0,0,0,0,1,1,instructions,"INSTRUCTIONS
At the start of each trial, look at the plus sign  (+) in the center of the screen.  This tells you that a trial is about to begin and where to look. Second, the plus sign will disappear and a string of letters will appear. Your task is to determine if the string of letters is a word or not. If the item is a word press the M key (on keyboard)  or touch the word button (phone/tablet).  If the item is not a word,  press the  Z key (on keyboard)  or touch the nonword button (on phone/tablet). 
Press the space bar or touch  continue.",0,,199969,18,2022-01-29_14h38.08.131,lexical_decision_task_DD_L6,2021.2.3,MacIntel,60.0024001,,,,,,,,,,,,,,,,,,,,,,,,,,,,,,,,,,,,,,,,,,,,,,,,,,,,,,,,,,,,,,,,,,,,,,,,,
space,-0.054432034,-0.404631483,0,0,0,,0,1,1,1,1,2,instructions,"If your device has a keyboard, press the 'Z' key for nonwords and the 'M' key for words.





Press the space bar or touch the button below to continue.",0,keyboard-example.gif,199969,18,2022-01-29_14h38.08.131,lexical_decision_task_DD_L6,2021.2.3,MacIntel,60.0024001,11.2389,,,,,,,,,,,,,,,,,,,,,,,,,,,,,,,,,,,,,,,,,,,,,,,,,,,,,,,,,,,,,,,,,,,,,,,,
space,-0.054432034,-0.404631483,0,0,0,,0,2,2,2,1,3,instructions,"If you are using a touchscreen only device, use the buttons on the screen. Do not use the mouse.





Press the space bar or touch the button below to continue.",0,touchscreen-example.gif,199969,18,2022-01-29_14h38.08.131,lexical_decision_task_DD_L6,2021.2.3,MacIntel,60.0024001,3.9695,,,,,,,,,,,,,,,,,,,,,,,,,,,,,,,,,,,,,,,,,,,,,,,,,,,,,,,,,,,,,,,,,,,,,,,,
,-0.054432034,-0.404631483,1,0,0,instr_done_button,0,3,3,3,1,4,instructions,"It is very important that you respond as quickly and accurately as possible, as each letter string will only be on the screen for two seconds. If you do not respond within this time, the message 'Too slow!' will be displayed and the experiment will progress to the next letter string. The first 20 trials will be practice trials and you will receive feedback on your answers. 

Press the space bar or touch the button below to start the practice trials.",0,,199969,18,2022-01-29_14h38.08.131,lexical_decision_task_DD_L6,2021.2.3,MacIntel,60.0024001,,,,,,,,,,,,,,,,,,,,,,,,,,,,,,,,,,,,,,,,,,,,,,,,,,,,,,,,,,,,,,,,,,,,,,,,,
,,,,,,,,,,,,,,,,,199969,18,2022-01-29_14h38.08.131,lexical_decision_task_DD_L6,2021.2.3,MacIntel,60.0024001,,m,1,2.4214,,,,,,,,2.4214,1,0,0,0,1,1,1001,ADJUST,m,,,,,,,,,,,,,,,,,,,,,,,,,,,,,,,,,,,,,,,,,,,,,,,,,,,,
,,,,,,,,,,,,,,,,,199969,18,2022-01-29_14h38.08.131,lexical_decision_task_DD_L6,2021.2.3,MacIntel,60.0024001,,z,1,1.3829,,,,,,,,1.3829,1,0,1,1,11,1,1001,RASHET,z,,,,,,,,,,,,,,,,,,,,,,,,,,,,,,,,,,,,,,,,,,,,,,,,,,,,
,,,,,,,,,,,,,,,,,199969,18,2022-01-29_14h38.08.131,lexical_decision_task_DD_L6,2021.2.3,MacIntel,60.0024001,,z,1,1.0067,,,,,,,,1.0067,1,0,2,2,15,1,1001,WHAISE,z,,,,,,,,,,,,,,,,,,,,,,,,,,,,,,,,,,,,,,,,,,,,,,,,,,,,
,,,,,,,,,,,,,,,,,199969,18,2022-01-29_14h38.08.131,lexical_decision_task_DD_L6,2021.2.3,MacIntel,60.0024001,,z,1,1.0841,,,,,,,,1.0841,1,0,3,3,14,1,1001,THRALE,z,,,,,,,,,,,,,,,,,,,,,,,,,,,,,,,,,,,,,,,,,,,,,,,,,,,,
,,,,,,,,,,,,,,,,,199969,18,2022-01-29_14h38.08.131,lexical_decision_task_DD_L6,2021.2.3,MacIntel,60.0024001,,m,1,0.8992,,,,,,,,0.8992,1,0,4,4,2,1,1001,ALMOND,m,,,,,,,,,,,,,,,,,,,,,,,,,,,,,,,,,,,,,,,,,,,,,,,,,,,,
,,,,,,,,,,,,,,,,,199969,18,2022-01-29_14h38.08.131,lexical_decision_task_DD_L6,2021.2.3,MacIntel,60.0024001,,z,1,0.9831,,,,,,,,0.9831,1,0,5,5,13,1,1001,ROUPET,z,,,,,,,,,,,,,,,,,,,,,,,,,,,,,,,,,,,,,,,,,,,,,,,,,,,,
,,,,,,,,,,,,,,,,,199969,18,2022-01-29_14h38.08.131,lexical_decision_task_DD_L6,2021.2.3,MacIntel,60.0024001,,m,1,0.9193,,,,,,,,0.9193,1,0,6,6,0,1,1001,UTOPIA,m,,,,,,,,,,,,,,,,,,,,,,,,,,,,,,,,,,,,,,,,,,,,,,,,,,,,
,,,,,,,,,,,,,,,,,199969,18,2022-01-29_14h38.08.131,lexical_decision_task_DD_L6,2021.2.3,MacIntel,60.0024001,,z,1,0.9151,,,,,,,,0.9151,1,0,7,7,12,1,1001,SPRINY,z,,,,,,,,,,,,,,,,,,,,,,,,,,,,,,,,,,,,,,,,,,,,,,,,,,,,
,,,,,,,,,,,,,,,,,199969,18,2022-01-29_14h38.08.131,lexical_decision_task_DD_L6,2021.2.3,MacIntel,60.0024001,,m,1,0.6269,,,,,,,,0.6269,1,0,8,8,5,1,1001,OBTAIN,m,,,,,,,,,,,,,,,,,,,,,,,,,,,,,,,,,,,,,,,,,,,,,,,,,,,,
,,,,,,,,,,,,,,,,,199969,18,2022-01-29_14h38.08.131,lexical_decision_task_DD_L6,2021.2.3,MacIntel,60.0024001,,m,1,0.7183,,,,,,,,0.7183,1,0,9,9,3,1,1001,MATRIX,m,,,,,,,,,,,,,,,,,,,,,,,,,,,,,,,,,,,,,,,,,,,,,,,,,,,,
,,,,,,,,,,,,,,,,,199969,18,2022-01-29_14h38.08.131,lexical_decision_task_DD_L6,2021.2.3,MacIntel,60.0024001,,z,1,0.8005,,,,,,,,0.8005,1,0,10,10,8,1,1001,ASLERT,z,,,,,,,,,,,,,,,,,,,,,,,,,,,,,,,,,,,,,,,,,,,,,,,,,,,,
,,,,,,,,,,,,,,,,,199969,18,2022-01-29_14h38.08.131,lexical_decision_task_DD_L6,2021.2.3,MacIntel,60.0024001,,m,1,0.5659,,,,,,,,0.5659,1,0,11,11,7,1,1001,VOLUME,m,,,,,,,,,,,,,,,,,,,,,,,,,,,,,,,,,,,,,,,,,,,,,,,,,,,,
,,,,,,,,,,,,,,,,,199969,18,2022-01-29_14h38.08.131,lexical_decision_task_DD_L6,2021.2.3,MacIntel,60.0024001,,m,1,0.7457,,,,,,,,0.7457,1,0,12,12,6,1,1001,ZOMBIE,m,,,,,,,,,,,,,,,,,,,,,,,,,,,,,,,,,,,,,,,,,,,,,,,,,,,,
,,,,,,,,,,,,,,,,,199969,18,2022-01-29_14h38.08.131,lexical_decision_task_DD_L6,2021.2.3,MacIntel,60.0024001,,m,1,0.9659,,,,,,,,0.9659,1,0,13,13,4,1,1001,SQUEAK,m,,,,,,,,,,,,,,,,,,,,,,,,,,,,,,,,,,,,,,,,,,,,,,,,,,,,
,,,,,,,,,,,,,,,,,199969,18,2022-01-29_14h38.08.131,lexical_decision_task_DD_L6,2021.2.3,MacIntel,60.0024001,,z,1,0.9046,,,,,,,,0.9046,1,0,14,14,9,1,1001,FARINY,z,,,,,,,,,,,,,,,,,,,,,,,,,,,,,,,,,,,,,,,,,,,,,,,,,,,,
,,,,,,,,,,,,,,,,,199969,18,2022-01-29_14h38.08.131,lexical_decision_task_DD_L6,2021.2.3,MacIntel,60.0024001,,z,1,1.3007,,,,,,,,1.3007,1,0,15,15,10,1,1001,INLADE,z,,,,,,,,,,,,,,,,,,,,,,,,,,,,,,,,,,,,,,,,,,,,,,,,,,,,
,-0.017417196,-0.415499742,1,0,0,instr_done_button,,,,,,1,end_of_practice,"You have completed the practice trials. During the experimental trials, you will not receive feedback. 
Before you begin, please ensure that you are in a comfortable and quiet location and will not be disturbed for about 15 minutes, as we cannot use your data if you do not complete all the trials. 
 When you are ready to start the experimental trials, please press space or touch the button below.",,,199969,18,2022-01-29_14h38.08.131,lexical_decision_task_DD_L6,2021.2.3,MacIntel,60.0024001,,,,,,,,,,,,,,,,,,,,,,0,0,0,0,1,,,,,,,,,,,,,,,,,,,,,,,,,,,,,,,,,,,,,,,,,,,,,,,
,,,,,,,,,,,,,,,,,199969,18,2022-01-29_14h38.08.131,lexical_decision_task_DD_L6,2021.2.3,MacIntel,60.0024001,,,,,,,,,,,,1.1415,1,,,,,,,,,,,,,,z,1,1.1415,,,,,,,,-0.017417196,-0.415499742,0,0,0,,0,0,0,149,1,VEASE,LB,old,z,./images/VEASELB.png,,,,,,,,,,,,,,,,,,,,,
,,,,,,,,,,,,,,,,,199969,18,2022-01-29_14h38.08.131,lexical_decision_task_DD_L6,2021.2.3,MacIntel,60.0024001,,,,,,,,,,,,0.8831,1,,,,,,,,,,,,,,z,1,0.8831,,,,,,,,-0.017417196,-0.415499742,0,0,0,,0,1,1,86,1,AIFED,LB,old,z,./images/AIFEDLB.png,,,,,,,,,,,,,,,,,,,,,
,,,,,,,,,,,,,,,,,199969,18,2022-01-29_14h38.08.131,lexical_decision_task_DD_L6,2021.2.3,MacIntel,60.0024001,,,,,,,,,,,,0.77,1,,,,,,,,,,,,,,m,1,0.77,,,,,,,,-0.017417196,-0.415499742,0,0,0,,0,2,2,55,1,ALLEY,C,old,m,./images/ALLEY.png,,,,,,,,,,,,,,,,,,,,,
,,,,,,,,,,,,,,,,,199969,18,2022-01-29_14h38.08.131,lexical_decision_task_DD_L6,2021.2.3,MacIntel,60.0024001,,,,,,,,,,,,0.7289,1,,,,,,,,,,,,,,z,1,0.7289,,,,,,,,-0.017417196,-0.415499742,0,0,0,,0,3,3,137,1,JOOST,LB,old,z,./images/JOOSTLB.png,,,,,,,,,,,,,,,,,,,,,
,,,,,,,,,,,,,,,,,199969,18,2022-01-29_14h38.08.131,lexical_decision_task_DD_L6,2021.2.3,MacIntel,60.0024001,,,,,,,,,,,,0.7544,1,,,,,,,,,,,,,,z,1,0.7544,,,,,,,,-0.017417196,-0.415499742,0,0,0,,0,4,4,164,1,SGREW,LB,old,z,./images/SGREWLB.png,,,,,,,,,,,,,,,,,,,,,
,,,,,,,,,,,,,,,,,199969,18,2022-01-29_14h38.08.131,lexical_decision_task_DD_L6,2021.2.3,MacIntel,60.0024001,,,,,,,,,,,,0.6984,1,,,,,,,,,,,,,,m,1,0.6984,,,,,,,,-0.017417196,-0.415499742,0,0,0,,0,5,5,66,1,STATUE,LB,old,m,./images/STATUELB.png,,,,,,,,,,,,,,,,,,,,,
,,,,,,,,,,,,,,,,,199969,18,2022-01-29_14h38.08.131,lexical_decision_task_DD_L6,2021.2.3,MacIntel,60.0024001,,,,,,,,,,,,0.7496,1,,,,,,,,,,,,,,z,1,0.7496,,,,,,,,-0.017417196,-0.415499742,0,0,0,,0,6,6,111,1,HOSSE,C,old,z,./images/HOSSE.png,,,,,,,,,,,,,,,,,,,,,
,,,,,,,,,,,,,,,,,199969,18,2022-01-29_14h38.08.131,lexical_decision_task_DD_L6,2021.2.3,MacIntel,60.0024001,,,,,,,,,,,,1.6001,1,,,,,,,,,,,,,,z,1,1.6001,,,,,,,,-0.017417196,-0.415499742,0,0,0,,0,7,7,154,1,THINT,HB,old,z,./images/THINTHB.png,,,,,,,,,,,,,,,,,,,,,
,,,,,,,,,,,,,,,,,199969,18,2022-01-29_14h38.08.131,lexical_decision_task_DD_L6,2021.2.3,MacIntel,60.0024001,,,,,,,,,,,,0.9548,1,,,,,,,,,,,,,,z,1,0.9548,,,,,,,,-0.017417196,-0.415499742,0,0,0,,0,8,8,138,1,PLICE,C,old,z,./images/PLICE.png,,,,,,,,,,,,,,,,,,,,,
,,,,,,,,,,,,,,,,,199969,18,2022-01-29_14h38.08.131,lexical_decision_task_DD_L6,2021.2.3,MacIntel,60.0024001,,,,,,,,,,,,1.0967,1,,,,,,,,,,,,,,m,1,1.0967,,,,,,,,-0.017417196,-0.415499742,0,0,0,,0,9,9,65,1,SPINE,HB,old,m,./images/SPINEHB.png,,,,,,,,,,,,,,,,,,,,,
,,,,,,,,,,,,,,,,,199969,18,2022-01-29_14h38.08.131,lexical_decision_task_DD_L6,2021.2.3,MacIntel,60.0024001,,,,,,,,,,,,0.6659,1,,,,,,,,,,,,,,z,1,0.6659,,,,,,,,-0.017417196,-0.415499742,0,0,0,,0,10,10,150,1,NOOLS,C,old,z,./images/NOOLS.png,,,,,,,,,,,,,,,,,,,,,
,,,,,,,,,,,,,,,,,199969,18,2022-01-29_14h38.08.131,lexical_decision_task_DD_L6,2021.2.3,MacIntel,60.0024001,,,,,,,,,,,,0.9371,1,,,,,,,,,,,,,,m,1,0.9371,,,,,,,,-0.017417196,-0.415499742,0,0,0,,0,11,11,5,1,BAMBOO,HB,old,m,./images/BAMBOOHB.png,,,,,,,,,,,,,,,,,,,,,
,,,,,,,,,,,,,,,,,199969,18,2022-01-29_14h38.08.131,lexical_decision_task_DD_L6,2021.2.3,MacIntel,60.0024001,,,,,,,,,,,,0.8014,1,,,,,,,,,,,,,,m,1,0.8014,,,,,,,,-0.017417196,-0.415499742,0,0,0,,0,12,12,40,1,SNAKE,C,old,m,./images/SNAKE.png,,,,,,,,,,,,,,,,,,,,,
,,,,,,,,,,,,,,,,,199969,18,2022-01-29_14h38.08.131,lexical_decision_task_DD_L6,2021.2.3,MacIntel,60.0024001,,,,,,,,,,,,0.7823,1,,,,,,,,,,,,,,m,1,0.7823,,,,,,,,-0.017417196,-0.415499742,0,0,0,,0,13,13,39,1,CANDY,LB,old,m,./images/CANDYLB.png,,,,,,,,,,,,,,,,,,,,,
,,,,,,,,,,,,,,,,,199969,18,2022-01-29_14h38.08.131,lexical_decision_task_DD_L6,2021.2.3,MacIntel,60.0024001,,,,,,,,,,,,0.8054,1,,,,,,,,,,,,,,m,1,0.8054,,,,,,,,-0.017417196,-0.415499742,0,0,0,,0,14,14,4,1,BOXER,C,old,m,./images/BOXER.png,,,,,,,,,,,,,,,,,,,,,
,,,,,,,,,,,,,,,,,199969,18,2022-01-29_14h38.08.131,lexical_decision_task_DD_L6,2021.2.3,MacIntel,60.0024001,,,,,,,,,,,,0.7483,1,,,,,,,,,,,,,,z,1,0.7483,,,,,,,,-0.017417196,-0.415499742,0,0,0,,0,15,15,125,1,MOOKY,LB,old,z,./images/MOOKYLB.png,,,,,,,,,,,,,,,,,,,,,
,,,,,,,,,,,,,,,,,199969,18,2022-01-29_14h38.08.131,lexical_decision_task_DD_L6,2021.2.3,MacIntel,60.0024001,,,,,,,,,,,,0.9248,1,,,,,,,,,,,,,,z,1,0.9248,,,,,,,,-0.017417196,-0.415499742,0,0,0,,0,16,16,132,1,SCIFF,C,old,z,./images/SCIFF.png,,,,,,,,,,,,,,,,,,,,,
,,,,,,,,,,,,,,,,,199969,18,2022-01-29_14h38.08.131,lexical_decision_task_DD_L6,2021.2.3,MacIntel,60.0024001,,,,,,,,,,,,0.749,1,,,,,,,,,,,,,,m,1,0.749,,,,,,,,-0.017417196,-0.415499742,0,0,0,,0,17,17,34,1,RAZOR,C,old,m,./images/RAZOR.png,,,,,,,,,,,,,,,,,,,,,
,,,,,,,,,,,,,,,,,199969,18,2022-01-29_14h38.08.131,lexical_decision_task_DD_L6,2021.2.3,MacIntel,60.0024001,,,,,,,,,,,,0.8491,1,,,,,,,,,,,,,,m,1,0.8491,,,,,,,,-0.017417196,-0.415499742,0,0,0,,0,18,18,26,1,CLOUD,HB,old,m,./images/CLOUDHB.png,,,,,,,,,,,,,,,,,,,,,
,,,,,,,,,,,,,,,,,199969,18,2022-01-29_14h38.08.131,lexical_decision_task_DD_L6,2021.2.3,MacIntel,60.0024001,,,,,,,,,,,,1.0433,1,,,,,,,,,,,,,,z,1,1.0433,,,,,,,,-0.017417196,-0.415499742,0,0,0,,0,19,19,140,1,DOVET,LB,old,z,./images/DOVETLB.png,,,,,,,,,,,,,,,,,,,,,
,,,,,,,,,,,,,,,,,199969,18,2022-01-29_14h38.08.131,lexical_decision_task_DD_L6,2021.2.3,MacIntel,60.0024001,,,,,,,,,,,,0.7495,1,,,,,,,,,,,,,,z,1,0.7495,,,,,,,,-0.017417196,-0.415499742,0,0,0,,0,20,20,114,1,RIKES,C,old,z,./images/RIKES.png,,,,,,,,,,,,,,,,,,,,,
,,,,,,,,,,,,,,,,,199969,18,2022-01-29_14h38.08.131,lexical_decision_task_DD_L6,2021.2.3,MacIntel,60.0024001,,,,,,,,,,,,0.8484,1,,,,,,,,,,,,,,z,1,0.8484,,,,,,,,-0.017417196,-0.415499742,0,0,0,,0,21,21,84,1,HAXES,C,old,z,./images/HAXES.png,,,,,,,,,,,,,,,,,,,,,
,,,,,,,,,,,,,,,,,199969,18,2022-01-29_14h38.08.131,lexical_decision_task_DD_L6,2021.2.3,MacIntel,60.0024001,,,,,,,,,,,,0.8747,1,,,,,,,,,,,,,,z,1,0.8747,,,,,,,,-0.017417196,-0.415499742,0,0,0,,0,22,22,135,1,JOODY,C,old,z,./images/JOODY.png,,,,,,,,,,,,,,,,,,,,,
,,,,,,,,,,,,,,,,,199969,18,2022-01-29_14h38.08.131,lexical_decision_task_DD_L6,2021.2.3,MacIntel,60.0024001,,,,,,,,,,,,0.8502,1,,,,,,,,,,,,,,m,1,0.8502,,,,,,,,-0.017417196,-0.415499742,0,0,0,,0,23,23,15,1,COLLAR,LB,old,m,./images/COLLARLB.png,,,,,,,,,,,,,,,,,,,,,
,,,,,,,,,,,,,,,,,199969,18,2022-01-29_14h38.08.131,lexical_decision_task_DD_L6,2021.2.3,MacIntel,60.0024001,,,,,,,,,,,,0.8011,1,,,,,,,,,,,,,,z,1,0.8011,,,,,,,,-0.017417196,-0.415499742,0,0,0,,0,24,24,123,1,SEDGE,C,old,z,./images/SEDGE.png,,,,,,,,,,,,,,,,,,,,,
,,,,,,,,,,,,,,,,,199969,18,2022-01-29_14h38.08.131,lexical_decision_task_DD_L6,2021.2.3,MacIntel,60.0024001,,,,,,,,,,,,0.8463,1,,,,,,,,,,,,,,z,1,0.8463,,,,,,,,-0.017417196,-0.415499742,0,0,0,,0,25,25,162,1,LEICH,C,old,z,./images/LEICH.png,,,,,,,,,,,,,,,,,,,,,
,,,,,,,,,,,,,,,,,199969,18,2022-01-29_14h38.08.131,lexical_decision_task_DD_L6,2021.2.3,MacIntel,60.0024001,,,,,,,,,,,,0.9183,1,,,,,,,,,,,,,,m,1,0.9183,,,,,,,,-0.017417196,-0.415499742,0,0,0,,0,26,26,44,1,BASKET,HB,old,m,./images/BASKETHB.png,,,,,,,,,,,,,,,,,,,,,
,,,,,,,,,,,,,,,,,199969,18,2022-01-29_14h38.08.131,lexical_decision_task_DD_L6,2021.2.3,MacIntel,60.0024001,,,,,,,,,,,,0.8298,1,,,,,,,,,,,,,,m,1,0.8298,,,,,,,,-0.017417196,-0.415499742,0,0,0,,0,27,27,68,1,VALLEY,HB,old,m,./images/VALLEYHB.png,,,,,,,,,,,,,,,,,,,,,
,,,,,,,,,,,,,,,,,199969,18,2022-01-29_14h38.08.131,lexical_decision_task_DD_L6,2021.2.3,MacIntel,60.0024001,,,,,,,,,,,,2.0168,1,,,,,,,,,,,,,,z,1,2.0168,,,,,,,,-0.017417196,-0.415499742,0,0,0,,0,28,28,97,1,CHIDS,HB,old,z,./images/CHIDSHB.png,,,,,,,,,,,,,,,,,,,,,
,,,,,,,,,,,,,,,,,199969,18,2022-01-29_14h38.08.131,lexical_decision_task_DD_L6,2021.2.3,MacIntel,60.0024001,,,,,,,,,,,,0.8858,0,,,,,,,,,,,,,,z,0,0.8858,,,,,,,,-0.017417196,-0.415499742,0,0,0,,0,29,29,12,1,BLOKE,LB,old,m,./images/BLOKELB.png,,,,,,,,,,,,,,,,,,,,,
,,,,,,,,,,,,,,,,,199969,18,2022-01-29_14h38.08.131,lexical_decision_task_DD_L6,2021.2.3,MacIntel,60.0024001,,,,,,,,,,,,1.0455,1,,,,,,,,,,,,,,m,1,1.0455,,,,,,,,-0.017417196,-0.415499742,0,0,0,,0,30,30,17,1,PARADE,HB,old,m,./images/PARADEHB.png,,,,,,,,,,,,,,,,,,,,,
,,,,,,,,,,,,,,,,,199969,18,2022-01-29_14h38.08.131,lexical_decision_task_DD_L6,2021.2.3,MacIntel,60.0024001,,,,,,,,,,,,0.8369,1,,,,,,,,,,,,,,m,1,0.8369,,,,,,,,-0.017417196,-0.415499742,0,0,0,,0,31,31,2,1,STOVE,HB,old,m,./images/STOVEHB.png,,,,,,,,,,,,,,,,,,,,,
,,,,,,,,,,,,,,,,,199969,18,2022-01-29_14h38.08.131,lexical_decision_task_DD_L6,2021.2.3,MacIntel,60.0024001,,,,,,,,,,,,1.3317,1,,,,,,,,,,,,,,z,1,1.3317,,,,,,,,-0.017417196,-0.415499742,0,0,0,,0,32,32,99,1,BACKY,C,old,z,./images/BACKY.png,,,,,,,,,,,,,,,,,,,,,
,,,,,,,,,,,,,,,,,199969,18,2022-01-29_14h38.08.131,lexical_decision_task_DD_L6,2021.2.3,MacIntel,60.0024001,,,,,,,,,,,,1.098,1,,,,,,,,,,,,,,m,1,1.098,,,,,,,,-0.017417196,-0.415499742,0,0,0,,0,33,33,11,1,MEDAL,HB,old,m,./images/MEDALHB.png,,,,,,,,,,,,,,,,,,,,,
,,,,,,,,,,,,,,,,,199969,18,2022-01-29_14h38.08.131,lexical_decision_task_DD_L6,2021.2.3,MacIntel,60.0024001,,,,,,,,,,,,1.342,1,,,,,,,,,,,,,,z,1,1.342,,,,,,,,-0.017417196,-0.415499742,0,0,0,,0,34,34,118,1,BAVEL,HB,old,z,./images/BAVELHB.png,,,,,,,,,,,,,,,,,,,,,
,,,,,,,,,,,,,,,,,199969,18,2022-01-29_14h38.08.131,lexical_decision_task_DD_L6,2021.2.3,MacIntel,60.0024001,,,,,,,,,,,,0.8267,1,,,,,,,,,,,,,,m,1,0.8267,,,,,,,,-0.017417196,-0.415499742,0,0,0,,0,35,35,6,1,STAIN,LB,old,m,./images/STAINLB.png,,,,,,,,,,,,,,,,,,,,,
,,,,,,,,,,,,,,,,,199969,18,2022-01-29_14h38.08.131,lexical_decision_task_DD_L6,2021.2.3,MacIntel,60.0024001,,,,,,,,,,,,0.7319,1,,,,,,,,,,,,,,z,1,0.7319,,,,,,,,-0.017417196,-0.415499742,0,0,0,,0,36,36,159,1,CUDDY,C,old,z,./images/CUDDY.png,,,,,,,,,,,,,,,,,,,,,
,,,,,,,,,,,,,,,,,199969,18,2022-01-29_14h38.08.131,lexical_decision_task_DD_L6,2021.2.3,MacIntel,60.0024001,,,,,,,,,,,,0.7827,1,,,,,,,,,,,,,,z,1,0.7827,,,,,,,,-0.017417196,-0.415499742,0,0,0,,0,37,37,147,1,ZOLES,C,old,z,./images/ZOLES.png,,,,,,,,,,,,,,,,,,,,,
,,,,,,,,,,,,,,,,,199969,18,2022-01-29_14h38.08.131,lexical_decision_task_DD_L6,2021.2.3,MacIntel,60.0024001,,,,,,,,,,,,1.8277,1,,,,,,,,,,,,,,m,1,1.8277,,,,,,,,-0.017417196,-0.415499742,0,0,0,,0,38,38,80,1,PLANET,HB,old,m,./images/PLANETHB.png,,,,,,,,,,,,,,,,,,,,,
,,,,,,,,,,,,,,,,,199969,18,2022-01-29_14h38.08.131,lexical_decision_task_DD_L6,2021.2.3,MacIntel,60.0024001,,,,,,,,,,,,0.7129,1,,,,,,,,,,,,,,m,1,0.7129,,,,,,,,-0.017417196,-0.415499742,0,0,0,,0,39,39,46,1,MUMMY,C,old,m,./images/MUMMY.png,,,,,,,,,,,,,,,,,,,,,
,,,,,,,,,,,,,,,,,199969,18,2022-01-29_14h38.08.131,lexical_decision_task_DD_L6,2021.2.3,MacIntel,60.0024001,,,,,,,,,,,,1.0846,1,,,,,,,,,,,,,,z,1,1.0846,,,,,,,,-0.017417196,-0.415499742,0,0,0,,0,40,40,160,1,VEETS,HB,old,z,./images/VEETSHB.png,,,,,,,,,,,,,,,,,,,,,
,,,,,,,,,,,,,,,,,199969,18,2022-01-29_14h38.08.131,lexical_decision_task_DD_L6,2021.2.3,MacIntel,60.0024001,,,,,,,,,,,,0.8983,1,,,,,,,,,,,,,,z,1,0.8983,,,,,,,,-0.017417196,-0.415499742,0,0,0,space,0,41,41,101,1,GLEET,LB,old,z,./images/GLEETLB.png,6.3188,,,,,,,,,,,,,,,,,,,,
,,,,,,,,,,,,,,,,,199969,18,2022-01-29_14h38.08.131,lexical_decision_task_DD_L6,2021.2.3,MacIntel,60.0024001,,,,,,,,,,,,1.1,1,,,,,,,,,,,,,,z,1,1.1,,,,,,,,-0.017417196,-0.415499742,0,0,0,,0,42,42,148,1,JOMS,HB,old,z,./images/JOMSHB.png,,,,,,,,,,,,,,,,,,,,,
,,,,,,,,,,,,,,,,,199969,18,2022-01-29_14h38.08.131,lexical_decision_task_DD_L6,2021.2.3,MacIntel,60.0024001,,,,,,,,,,,,1.3752,1,,,,,,,,,,,,,,z,1,1.3752,,,,,,,,-0.017417196,-0.415499742,0,0,0,,0,43,43,91,1,SHENS,HB,old,z,./images/SHENSHB.png,,,,,,,,,,,,,,,,,,,,,
,,,,,,,,,,,,,,,,,199969,18,2022-01-29_14h38.08.131,lexical_decision_task_DD_L6,2021.2.3,MacIntel,60.0024001,,,,,,,,,,,,0.7339,1,,,,,,,,,,,,,,m,1,0.7339,,,,,,,,-0.017417196,-0.415499742,0,0,0,,0,44,44,73,1,GLOVE,C,old,m,./images/GLOVE.png,,,,,,,,,,,,,,,,,,,,,
,,,,,,,,,,,,,,,,,199969,18,2022-01-29_14h38.08.131,lexical_decision_task_DD_L6,2021.2.3,MacIntel,60.0024001,,,,,,,,,,,,1.0821,1,,,,,,,,,,,,,,m,1,1.0821,,,,,,,,-0.017417196,-0.415499742,0,0,0,,0,45,45,18,1,PARCEL,LB,old,m,./images/PARCELLB.png,,,,,,,,,,,,,,,,,,,,,
,,,,,,,,,,,,,,,,,199969,18,2022-01-29_14h38.08.131,lexical_decision_task_DD_L6,2021.2.3,MacIntel,60.0024001,,,,,,,,,,,,1.3177,1,,,,,,,,,,,,,,z,1,1.3177,,,,,,,,-0.017417196,-0.415499742,0,0,0,,0,46,46,127,1,NINDY,HB,old,z,./images/NINDYHB.png,,,,,,,,,,,,,,,,,,,,,
,,,,,,,,,,,,,,,,,199969,18,2022-01-29_14h38.08.131,lexical_decision_task_DD_L6,2021.2.3,MacIntel,60.0024001,,,,,,,,,,,,1.0327,0,,,,,,,,,,,,,,m,0,1.0327,,,,,,,,-0.017417196,-0.415499742,0,0,0,,0,47,47,110,1,CRUNK,LB,old,z,./images/CRUNKLB.png,,,,,,,,,,,,,,,,,,,,,
,,,,,,,,,,,,,,,,,199969,18,2022-01-29_14h38.08.131,lexical_decision_task_DD_L6,2021.2.3,MacIntel,60.0024001,,,,,,,,,,,,0.7011,1,,,,,,,,,,,,,,m,1,0.7011,,,,,,,,-0.017417196,-0.415499742,0,0,0,,0,48,48,42,1,CHAIN,LB,old,m,./images/CHAINLB.png,,,,,,,,,,,,,,,,,,,,,
,,,,,,,,,,,,,,,,,199969,18,2022-01-29_14h38.08.131,lexical_decision_task_DD_L6,2021.2.3,MacIntel,60.0024001,,,,,,,,,,,,0.885,1,,,,,,,,,,,,,,m,1,0.885,,,,,,,,-0.017417196,-0.415499742,0,0,0,,0,49,49,27,1,BUTTER,LB,old,m,./images/BUTTERLB.png,,,,,,,,,,,,,,,,,,,,,
,,,,,,,,,,,,,,,,,199969,18,2022-01-29_14h38.08.131,lexical_decision_task_DD_L6,2021.2.3,MacIntel,60.0024001,,,,,,,,,,,,0.9762,1,,,,,,,,,,,,,,m,1,0.9762,,,,,,,,-0.017417196,-0.415499742,0,0,0,,0,50,50,59,1,BRUSH,HB,old,m,./images/BRUSHHB.png,,,,,,,,,,,,,,,,,,,,,
,,,,,,,,,,,,,,,,,199969,18,2022-01-29_14h38.08.131,lexical_decision_task_DD_L6,2021.2.3,MacIntel,60.0024001,,,,,,,,,,,,1.1647,1,,,,,,,,,,,,,,m,1,1.1647,,,,,,,,-0.017417196,-0.415499742,0,0,0,,0,51,51,53,1,POSTER,HB,old,m,./images/POSTERHB.png,,,,,,,,,,,,,,,,,,,,,
,,,,,,,,,,,,,,,,,199969,18,2022-01-29_14h38.08.131,lexical_decision_task_DD_L6,2021.2.3,MacIntel,60.0024001,,,,,,,,,,,,0.9676,1,,,,,,,,,,,,,,m,1,0.9676,,,,,,,,-0.017417196,-0.415499742,0,0,0,,0,52,52,57,1,FERRY,LB,old,m,./images/FERRYLB.png,,,,,,,,,,,,,,,,,,,,,
,,,,,,,,,,,,,,,,,199969,18,2022-01-29_14h38.08.131,lexical_decision_task_DD_L6,2021.2.3,MacIntel,60.0024001,,,,,,,,,,,,1.5338,1,,,,,,,,,,,,,,m,1,1.5338,,,,,,,,-0.017417196,-0.415499742,0,0,0,,0,53,53,29,1,PISTOL,HB,old,m,./images/PISTOLHB.png,,,,,,,,,,,,,,,,,,,,,
,,,,,,,,,,,,,,,,,199969,18,2022-01-29_14h38.08.131,lexical_decision_task_DD_L6,2021.2.3,MacIntel,60.0024001,,,,,,,,,,,,0.7707,1,,,,,,,,,,,,,,m,1,0.7707,,,,,,,,-0.017417196,-0.415499742,0,0,0,,0,54,54,3,1,CRATER,LB,old,m,./images/CRATERLB.png,,,,,,,,,,,,,,,,,,,,,
,,,,,,,,,,,,,,,,,199969,18,2022-01-29_14h38.08.131,lexical_decision_task_DD_L6,2021.2.3,MacIntel,60.0024001,,,,,,,,,,,,0.9429,1,,,,,,,,,,,,,,m,1,0.9429,,,,,,,,-0.017417196,-0.415499742,0,0,0,,0,55,55,71,1,BUBBLE,HB,old,m,./images/BUBBLEHB.png,,,,,,,,,,,,,,,,,,,,,
,,,,,,,,,,,,,,,,,199969,18,2022-01-29_14h38.08.131,lexical_decision_task_DD_L6,2021.2.3,MacIntel,60.0024001,,,,,,,,,,,,0.9339,1,,,,,,,,,,,,,,m,1,0.9339,,,,,,,,-0.017417196,-0.415499742,0,0,0,,0,56,56,32,1,HOCKEY,HB,old,m,./images/HOCKEYHB.png,,,,,,,,,,,,,,,,,,,,,
,,,,,,,,,,,,,,,,,199969,18,2022-01-29_14h38.08.131,lexical_decision_task_DD_L6,2021.2.3,MacIntel,60.0024001,,,,,,,,,,,,0.9029,1,,,,,,,,,,,,,,z,1,0.9029,,,,,,,,-0.017417196,-0.415499742,0,0,0,,0,57,57,104,1,GITTY,LB,old,z,./images/GITTYLB.png,,,,,,,,,,,,,,,,,,,,,
,,,,,,,,,,,,,,,,,199969,18,2022-01-29_14h38.08.131,lexical_decision_task_DD_L6,2021.2.3,MacIntel,60.0024001,,,,,,,,,,,,0.7246,1,,,,,,,,,,,,,,m,1,0.7246,,,,,,,,-0.017417196,-0.415499742,0,0,0,,0,58,58,83,1,WHISKY,HB,old,m,./images/WHISKYHB.png,,,,,,,,,,,,,,,,,,,,,
,,,,,,,,,,,,,,,,,199969,18,2022-01-29_14h38.08.131,lexical_decision_task_DD_L6,2021.2.3,MacIntel,60.0024001,,,,,,,,,,,,0.7164,1,,,,,,,,,,,,,,m,1,0.7164,,,,,,,,-0.017417196,-0.415499742,0,0,0,,0,59,59,45,1,MONKEY,LB,old,m,./images/MONKEYLB.png,,,,,,,,,,,,,,,,,,,,,
,,,,,,,,,,,,,,,,,199969,18,2022-01-29_14h38.08.131,lexical_decision_task_DD_L6,2021.2.3,MacIntel,60.0024001,,,,,,,,,,,,0.68,1,,,,,,,,,,,,,,m,1,0.68,,,,,,,,-0.017417196,-0.415499742,0,0,0,,0,60,60,70,1,BANANA,C,old,m,./images/BANANA.png,,,,,,,,,,,,,,,,,,,,,
,,,,,,,,,,,,,,,,,199969,18,2022-01-29_14h38.08.131,lexical_decision_task_DD_L6,2021.2.3,MacIntel,60.0024001,,,,,,,,,,,,1.3084,1,,,,,,,,,,,,,,m,1,1.3084,,,,,,,,-0.017417196,-0.415499742,0,0,0,,0,61,61,47,1,LAGOON,HB,old,m,./images/LAGOONHB.png,,,,,,,,,,,,,,,,,,,,,
,,,,,,,,,,,,,,,,,199969,18,2022-01-29_14h38.08.131,lexical_decision_task_DD_L6,2021.2.3,MacIntel,60.0024001,,,,,,,,,,,,0.843,1,,,,,,,,,,,,,,z,1,0.843,,,,,,,,-0.017417196,-0.415499742,0,0,0,,0,62,62,161,1,BLAPS,LB,old,z,./images/BLAPSLB.png,,,,,,,,,,,,,,,,,,,,,
,,,,,,,,,,,,,,,,,199969,18,2022-01-29_14h38.08.131,lexical_decision_task_DD_L6,2021.2.3,MacIntel,60.0024001,,,,,,,,,,,,0.8344,1,,,,,,,,,,,,,,z,1,0.8344,,,,,,,,-0.017417196,-0.415499742,0,0,0,,0,63,63,124,1,TUNCH,HB,old,z,./images/TUNCHHB.png,,,,,,,,,,,,,,,,,,,,,
,,,,,,,,,,,,,,,,,199969,18,2022-01-29_14h38.08.131,lexical_decision_task_DD_L6,2021.2.3,MacIntel,60.0024001,,,,,,,,,,,,1.0829,1,,,,,,,,,,,,,,m,1,1.0829,,,,,,,,-0.017417196,-0.415499742,0,0,0,,0,64,64,14,1,FENCE,HB,old,m,./images/FENCEHB.png,,,,,,,,,,,,,,,,,,,,,
,,,,,,,,,,,,,,,,,199969,18,2022-01-29_14h38.08.131,lexical_decision_task_DD_L6,2021.2.3,MacIntel,60.0024001,,,,,,,,,,,,1.7087,1,,,,,,,,,,,,,,z,1,1.7087,,,,,,,,-0.017417196,-0.415499742,0,0,0,,0,65,65,166,1,SHORY,HB,old,z,./images/SHORYHB.png,,,,,,,,,,,,,,,,,,,,,
,,,,,,,,,,,,,,,,,199969,18,2022-01-29_14h38.08.131,lexical_decision_task_DD_L6,2021.2.3,MacIntel,60.0024001,,,,,,,,,,,,0.8751,1,,,,,,,,,,,,,,m,1,0.8751,,,,,,,,-0.017417196,-0.415499742,0,0,0,,0,66,66,63,1,BAKER,LB,old,m,./images/BAKERLB.png,,,,,,,,,,,,,,,,,,,,,
,,,,,,,,,,,,,,,,,199969,18,2022-01-29_14h38.08.131,lexical_decision_task_DD_L6,2021.2.3,MacIntel,60.0024001,,,,,,,,,,,,1.1853,1,,,,,,,,,,,,,,z,1,1.1853,,,,,,,,-0.017417196,-0.415499742,0,0,0,,0,67,67,139,1,BLEAR,HB,old,z,./images/BLEARHB.png,,,,,,,,,,,,,,,,,,,,,
,,,,,,,,,,,,,,,,,199969,18,2022-01-29_14h38.08.131,lexical_decision_task_DD_L6,2021.2.3,MacIntel,60.0024001,,,,,,,,,,,,0.8073,1,,,,,,,,,,,,,,m,1,0.8073,,,,,,,,-0.017417196,-0.415499742,0,0,0,,0,68,68,74,1,JUMPER,HB,old,m,./images/JUMPERHB.png,,,,,,,,,,,,,,,,,,,,,
,,,,,,,,,,,,,,,,,199969,18,2022-01-29_14h38.08.131,lexical_decision_task_DD_L6,2021.2.3,MacIntel,60.0024001,,,,,,,,,,,,0.85,1,,,,,,,,,,,,,,m,1,0.85,,,,,,,,-0.017417196,-0.415499742,0,0,0,,0,69,69,30,1,SLOPE,LB,old,m,./images/SLOPELB.png,,,,,,,,,,,,,,,,,,,,,
,,,,,,,,,,,,,,,,,199969,18,2022-01-29_14h38.08.131,lexical_decision_task_DD_L6,2021.2.3,MacIntel,60.0024001,,,,,,,,,,,,0.8103,1,,,,,,,,,,,,,,z,1,0.8103,,,,,,,,-0.017417196,-0.415499742,0,0,0,,0,70,70,129,1,PRANS,C,old,z,./images/PRANS.png,,,,,,,,,,,,,,,,,,,,,
,,,,,,,,,,,,,,,,,199969,18,2022-01-29_14h38.08.131,lexical_decision_task_DD_L6,2021.2.3,MacIntel,60.0024001,,,,,,,,,,,,0.7052,1,,,,,,,,,,,,,,m,1,0.7052,,,,,,,,-0.017417196,-0.415499742,0,0,0,,0,71,71,13,1,BUNNY,C,old,m,./images/BUNNY.png,,,,,,,,,,,,,,,,,,,,,
,,,,,,,,,,,,,,,,,199969,18,2022-01-29_14h38.08.131,lexical_decision_task_DD_L6,2021.2.3,MacIntel,60.0024001,,,,,,,,,,,,1.0869,1,,,,,,,,,,,,,,z,1,1.0869,,,,,,,,-0.017417196,-0.415499742,0,0,0,,0,72,72,112,1,MYING,HB,old,z,./images/MYINGHB.png,,,,,,,,,,,,,,,,,,,,,
,,,,,,,,,,,,,,,,,199969,18,2022-01-29_14h38.08.131,lexical_decision_task_DD_L6,2021.2.3,MacIntel,60.0024001,,,,,,,,,,,,1.0432,1,,,,,,,,,,,,,,z,1,1.0432,,,,,,,,-0.017417196,-0.415499742,0,0,0,,0,73,73,102,1,DULLE,C,old,z,./images/DULLE.png,,,,,,,,,,,,,,,,,,,,,
,,,,,,,,,,,,,,,,,199969,18,2022-01-29_14h38.08.131,lexical_decision_task_DD_L6,2021.2.3,MacIntel,60.0024001,,,,,,,,,,,,0.8169,1,,,,,,,,,,,,,,z,1,0.8169,,,,,,,,-0.017417196,-0.415499742,0,0,0,,0,74,74,117,1,STEEG,C,old,z,./images/STEEG.png,,,,,,,,,,,,,,,,,,,,,
,,,,,,,,,,,,,,,,,199969,18,2022-01-29_14h38.08.131,lexical_decision_task_DD_L6,2021.2.3,MacIntel,60.0024001,,,,,,,,,,,,0.8136,1,,,,,,,,,,,,,,z,1,0.8136,,,,,,,,-0.017417196,-0.415499742,0,0,0,,0,75,75,144,1,NAIRY,C,old,z,./images/NAIRY.png,,,,,,,,,,,,,,,,,,,,,
,,,,,,,,,,,,,,,,,199969,18,2022-01-29_14h38.08.131,lexical_decision_task_DD_L6,2021.2.3,MacIntel,60.0024001,,,,,,,,,,,,0.7088,1,,,,,,,,,,,,,,m,1,0.7088,,,,,,,,-0.017417196,-0.415499742,0,0,0,,0,76,76,0,1,WALNUT,LB,old,m,./images/WALNUTLB.png,,,,,,,,,,,,,,,,,,,,,
,,,,,,,,,,,,,,,,,199969,18,2022-01-29_14h38.08.131,lexical_decision_task_DD_L6,2021.2.3,MacIntel,60.0024001,,,,,,,,,,,,1.0731,1,,,,,,,,,,,,,,z,1,1.0731,,,,,,,,-0.017417196,-0.415499742,0,0,0,,0,77,77,88,1,GLUSH,HB,old,z,./images/GLUSHHB.png,,,,,,,,,,,,,,,,,,,,,
,,,,,,,,,,,,,,,,,199969,18,2022-01-29_14h38.08.131,lexical_decision_task_DD_L6,2021.2.3,MacIntel,60.0024001,,,,,,,,,,,,0.7648,1,,,,,,,,,,,,,,z,1,0.7648,,,,,,,,-0.017417196,-0.415499742,0,0,0,,0,78,78,113,1,LINEW,LB,old,z,./images/LINEWLB.png,,,,,,,,,,,,,,,,,,,,,
,,,,,,,,,,,,,,,,,199969,18,2022-01-29_14h38.08.131,lexical_decision_task_DD_L6,2021.2.3,MacIntel,60.0024001,,,,,,,,,,,,1.06,1,,,,,,,,,,,,,,z,1,1.06,,,,,,,,-0.017417196,-0.415499742,0,0,0,,0,79,79,136,1,WERVE,HB,old,z,./images/WERVEHB.png,,,,,,,,,,,,,,,,,,,,,
,,,,,,,,,,,,,,,,,199969,18,2022-01-29_14h38.08.131,lexical_decision_task_DD_L6,2021.2.3,MacIntel,60.0024001,,,,,,,,,,,,1.1423,1,,,,,,,,,,,,,,z,1,1.1423,,,,,,,,-0.017417196,-0.415499742,0,0,0,,0,80,80,115,1,MAWNS,HB,old,z,./images/MAWNSHB.png,,,,,,,,,,,,,,,,,,,,,
,,,,,,,,,,,,,,,,,199969,18,2022-01-29_14h38.08.131,lexical_decision_task_DD_L6,2021.2.3,MacIntel,60.0024001,,,,,,,,,,,,0.9004,1,,,,,,,,,,,,,,z,1,0.9004,,,,,,,,-0.017417196,-0.415499742,0,0,0,,0,81,81,146,1,MOOST,LB,old,z,./images/MOOSTLB.png,,,,,,,,,,,,,,,,,,,,,
,,,,,,,,,,,,,,,,,199969,18,2022-01-29_14h38.08.131,lexical_decision_task_DD_L6,2021.2.3,MacIntel,60.0024001,,,,,,,,,,,,1.1146,1,,,,,,,,,,,,,,m,1,1.1146,,,,,,,,-0.017417196,-0.415499742,0,0,0,,0,82,82,62,1,MAMMAL,HB,old,m,./images/MAMMALHB.png,,,,,,,,,,,,,,,,,,,,,
,,,,,,,,,,,,,,,,,199969,18,2022-01-29_14h38.08.131,lexical_decision_task_DD_L6,2021.2.3,MacIntel,60.0024001,,,,,,,,,,,,0.7974,1,,,,,,,,,,,,,,m,1,0.7974,,,,,,,,-0.017417196,-0.415499742,0,0,0,space,0,83,83,1,1,TOWEL,C,old,m,./images/TOWEL.png,6.3046,,,,,,,,,,,,,,,,,,,,
,,,,,,,,,,,,,,,,,199969,18,2022-01-29_14h38.08.131,lexical_decision_task_DD_L6,2021.2.3,MacIntel,60.0024001,,,,,,,,,,,,0.7437,1,,,,,,,,,,,,,,m,1,0.7437,,,,,,,,-0.017417196,-0.415499742,0,0,0,,0,84,84,61,1,ARTIST,C,old,m,./images/ARTIST.png,,,,,,,,,,,,,,,,,,,,,
,,,,,,,,,,,,,,,,,199969,18,2022-01-29_14h38.08.131,lexical_decision_task_DD_L6,2021.2.3,MacIntel,60.0024001,,,,,,,,,,,,0.9355,1,,,,,,,,,,,,,,m,1,0.9355,,,,,,,,-0.017417196,-0.415499742,0,0,0,,0,85,85,33,1,SAUNA,LB,old,m,./images/SAUNALB.png,,,,,,,,,,,,,,,,,,,,,
,,,,,,,,,,,,,,,,,199969,18,2022-01-29_14h38.08.131,lexical_decision_task_DD_L6,2021.2.3,MacIntel,60.0024001,,,,,,,,,,,,1.6845,1,,,,,,,,,,,,,,z,1,1.6845,,,,,,,,-0.017417196,-0.415499742,0,0,0,,0,86,86,100,1,DRIBS,HB,old,z,./images/DRIBSHB.png,,,,,,,,,,,,,,,,,,,,,
,,,,,,,,,,,,,,,,,199969,18,2022-01-29_14h38.08.131,lexical_decision_task_DD_L6,2021.2.3,MacIntel,60.0024001,,,,,,,,,,,,0.7149,1,,,,,,,,,,,,,,z,1,0.7149,,,,,,,,-0.017417196,-0.415499742,0,0,0,,0,87,87,126,1,GUELS,C,old,z,./images/GUELS.png,,,,,,,,,,,,,,,,,,,,,
,,,,,,,,,,,,,,,,,199969,18,2022-01-29_14h38.08.131,lexical_decision_task_DD_L6,2021.2.3,MacIntel,60.0024001,,,,,,,,,,,,0.6114,1,,,,,,,,,,,,,,m,1,0.6114,,,,,,,,-0.017417196,-0.415499742,0,0,0,,0,88,88,28,1,CASINO,C,old,m,./images/CASINO.png,,,,,,,,,,,,,,,,,,,,,
,,,,,,,,,,,,,,,,,199969,18,2022-01-29_14h38.08.131,lexical_decision_task_DD_L6,2021.2.3,MacIntel,60.0024001,,,,,,,,,,,,1.1838,1,,,,,,,,,,,,,,m,1,1.1838,,,,,,,,-0.017417196,-0.415499742,0,0,0,,0,89,89,58,1,CANOE,C,old,m,./images/CANOE.png,,,,,,,,,,,,,,,,,,,,,
,,,,,,,,,,,,,,,,,199969,18,2022-01-29_14h38.08.131,lexical_decision_task_DD_L6,2021.2.3,MacIntel,60.0024001,,,,,,,,,,,,0.8202,1,,,,,,,,,,,,,,m,1,0.8202,,,,,,,,-0.017417196,-0.415499742,0,0,0,,0,90,90,31,1,STEAK,C,old,m,./images/STEAK.png,,,,,,,,,,,,,,,,,,,,,
,,,,,,,,,,,,,,,,,199969,18,2022-01-29_14h38.08.131,lexical_decision_task_DD_L6,2021.2.3,MacIntel,60.0024001,,,,,,,,,,,,0.9078,1,,,,,,,,,,,,,,m,1,0.9078,,,,,,,,-0.017417196,-0.415499742,0,0,0,,0,91,91,49,1,BISHOP,C,old,m,./images/BISHOP.png,,,,,,,,,,,,,,,,,,,,,
,,,,,,,,,,,,,,,,,199969,18,2022-01-29_14h38.08.131,lexical_decision_task_DD_L6,2021.2.3,MacIntel,60.0024001,,,,,,,,,,,,1.0176,1,,,,,,,,,,,,,,z,1,1.0176,,,,,,,,-0.017417196,-0.415499742,0,0,0,,0,92,92,120,1,RINED,C,old,z,./images/RINED.png,,,,,,,,,,,,,,,,,,,,,
,,,,,,,,,,,,,,,,,199969,18,2022-01-29_14h38.08.131,lexical_decision_task_DD_L6,2021.2.3,MacIntel,60.0024001,,,,,,,,,,,,0.8315,1,,,,,,,,,,,,,,m,1,0.8315,,,,,,,,-0.017417196,-0.415499742,0,0,0,,0,93,93,20,1,GRANNY,HB,old,m,./images/GRANNYHB.png,,,,,,,,,,,,,,,,,,,,,
,,,,,,,,,,,,,,,,,199969,18,2022-01-29_14h38.08.131,lexical_decision_task_DD_L6,2021.2.3,MacIntel,60.0024001,,,,,,,,,,,,0.8458,1,,,,,,,,,,,,,,z,1,0.8458,,,,,,,,-0.017417196,-0.415499742,0,0,0,,0,94,94,167,1,ZONET,LB,old,z,./images/ZONETLB.png,,,,,,,,,,,,,,,,,,,,,
,,,,,,,,,,,,,,,,,199969,18,2022-01-29_14h38.08.131,lexical_decision_task_DD_L6,2021.2.3,MacIntel,60.0024001,,,,,,,,,,,,1.0784,1,,,,,,,,,,,,,,z,1,1.0784,,,,,,,,-0.017417196,-0.415499742,0,0,0,,0,95,95,153,1,CLUPS,C,old,z,./images/CLUPS.png,,,,,,,,,,,,,,,,,,,,,
,,,,,,,,,,,,,,,,,199969,18,2022-01-29_14h38.08.131,lexical_decision_task_DD_L6,2021.2.3,MacIntel,60.0024001,,,,,,,,,,,,0.7891,1,,,,,,,,,,,,,,m,1,0.7891,,,,,,,,-0.017417196,-0.415499742,0,0,0,,0,96,96,75,1,HAMMER,LB,old,m,./images/HAMMERLB.png,,,,,,,,,,,,,,,,,,,,,
,,,,,,,,,,,,,,,,,199969,18,2022-01-29_14h38.08.131,lexical_decision_task_DD_L6,2021.2.3,MacIntel,60.0024001,,,,,,,,,,,,1.6218,1,,,,,,,,,,,,,,z,1,1.6218,,,,,,,,-0.017417196,-0.415499742,0,0,0,,0,97,97,106,1,CLUMS,HB,old,z,./images/CLUMSHB.png,,,,,,,,,,,,,,,,,,,,,
,,,,,,,,,,,,,,,,,199969,18,2022-01-29_14h38.08.131,lexical_decision_task_DD_L6,2021.2.3,MacIntel,60.0024001,,,,,,,,,,,,2.0196,1,,,,,,,,,,,,,,z,1,2.0196,,,,,,,,-0.017417196,-0.415499742,0,0,0,,0,98,98,158,1,EGECT,LB,old,z,./images/EGECTLB.png,,,,,,,,,,,,,,,,,,,,,
,,,,,,,,,,,,,,,,,199969,18,2022-01-29_14h38.08.131,lexical_decision_task_DD_L6,2021.2.3,MacIntel,60.0024001,,,,,,,,,,,,0.7486,1,,,,,,,,,,,,,,m,1,0.7486,,,,,,,,-0.017417196,-0.415499742,0,0,0,,0,99,99,51,1,SAUCE,LB,old,m,./images/SAUCELB.png,,,,,,,,,,,,,,,,,,,,,
,,,,,,,,,,,,,,,,,199969,18,2022-01-29_14h38.08.131,lexical_decision_task_DD_L6,2021.2.3,MacIntel,60.0024001,,,,,,,,,,,,0.6748,1,,,,,,,,,,,,,,m,1,0.6748,,,,,,,,-0.017417196,-0.415499742,0,0,0,,0,100,100,24,1,FLESH,LB,old,m,./images/FLESHLB.png,,,,,,,,,,,,,,,,,,,,,
,,,,,,,,,,,,,,,,,199969,18,2022-01-29_14h38.08.131,lexical_decision_task_DD_L6,2021.2.3,MacIntel,60.0024001,,,,,,,,,,,,0.6981,1,,,,,,,,,,,,,,m,1,0.6981,,,,,,,,-0.017417196,-0.415499742,0,0,0,,0,101,101,16,1,GRAPE,C,old,m,./images/GRAPE.png,,,,,,,,,,,,,,,,,,,,,
,,,,,,,,,,,,,,,,,199969,18,2022-01-29_14h38.08.131,lexical_decision_task_DD_L6,2021.2.3,MacIntel,60.0024001,,,,,,,,,,,,1.0883,1,,,,,,,,,,,,,,m,1,1.0883,,,,,,,,-0.017417196,-0.415499742,0,0,0,,0,102,102,50,1,PILOT,HB,old,m,./images/PILOTHB.png,,,,,,,,,,,,,,,,,,,,,
,,,,,,,,,,,,,,,,,199969,18,2022-01-29_14h38.08.131,lexical_decision_task_DD_L6,2021.2.3,MacIntel,60.0024001,,,,,,,,,,,,0.6247,1,,,,,,,,,,,,,,m,1,0.6247,,,,,,,,-0.017417196,-0.415499742,0,0,0,,0,103,103,7,1,WAGON,C,old,m,./images/WAGON.png,,,,,,,,,,,,,,,,,,,,,
,,,,,,,,,,,,,,,,,199969,18,2022-01-29_14h38.08.131,lexical_decision_task_DD_L6,2021.2.3,MacIntel,60.0024001,,,,,,,,,,,,0.8016,1,,,,,,,,,,,,,,m,1,0.8016,,,,,,,,-0.017417196,-0.415499742,0,0,0,,0,104,104,21,1,DANCER,LB,old,m,./images/DANCERLB.png,,,,,,,,,,,,,,,,,,,,,
,,,,,,,,,,,,,,,,,199969,18,2022-01-29_14h38.08.131,lexical_decision_task_DD_L6,2021.2.3,MacIntel,60.0024001,,,,,,,,,,,,0.9473,1,,,,,,,,,,,,,,m,1,0.9473,,,,,,,,-0.017417196,-0.415499742,0,0,0,,0,105,105,38,1,ENGINE,HB,old,m,./images/ENGINEHB.png,,,,,,,,,,,,,,,,,,,,,
,,,,,,,,,,,,,,,,,199969,18,2022-01-29_14h38.08.131,lexical_decision_task_DD_L6,2021.2.3,MacIntel,60.0024001,,,,,,,,,,,,1.11,0,,,,,,,,,,,,,,z,0,1.11,,,,,,,,-0.017417196,-0.415499742,0,0,0,,0,106,106,8,1,CLIFF,HB,old,m,./images/CLIFFHB.png,,,,,,,,,,,,,,,,,,,,,
,,,,,,,,,,,,,,,,,199969,18,2022-01-29_14h38.08.131,lexical_decision_task_DD_L6,2021.2.3,MacIntel,60.0024001,,,,,,,,,,,,0.9193,1,,,,,,,,,,,,,,m,1,0.9193,,,,,,,,-0.017417196,-0.415499742,0,0,0,,0,107,107,52,1,DESERT,C,old,m,./images/DESERT.png,,,,,,,,,,,,,,,,,,,,,
,,,,,,,,,,,,,,,,,199969,18,2022-01-29_14h38.08.131,lexical_decision_task_DD_L6,2021.2.3,MacIntel,60.0024001,,,,,,,,,,,,1.0562,1,,,,,,,,,,,,,,m,1,1.0562,,,,,,,,-0.017417196,-0.415499742,0,0,0,,0,108,108,56,1,HEATER,HB,old,m,./images/HEATERHB.png,,,,,,,,,,,,,,,,,,,,,
,,,,,,,,,,,,,,,,,199969,18,2022-01-29_14h38.08.131,lexical_decision_task_DD_L6,2021.2.3,MacIntel,60.0024001,,,,,,,,,,,,1.3169,1,,,,,,,,,,,,,,z,1,1.3169,,,,,,,,-0.017417196,-0.415499742,0,0,0,,0,109,109,121,1,CEERS,HB,old,z,./images/CEERSHB.png,,,,,,,,,,,,,,,,,,,,,
,,,,,,,,,,,,,,,,,199969,18,2022-01-29_14h38.08.131,lexical_decision_task_DD_L6,2021.2.3,MacIntel,60.0024001,,,,,,,,,,,,1.2769,1,,,,,,,,,,,,,,z,1,1.2769,,,,,,,,-0.017417196,-0.415499742,0,0,0,,0,110,110,107,1,FASKS,LB,old,z,./images/FASKSLB.png,,,,,,,,,,,,,,,,,,,,,
,,,,,,,,,,,,,,,,,199969,18,2022-01-29_14h38.08.131,lexical_decision_task_DD_L6,2021.2.3,MacIntel,60.0024001,,,,,,,,,,,,0.7622,1,,,,,,,,,,,,,,z,1,0.7622,,,,,,,,-0.017417196,-0.415499742,0,0,0,,0,111,111,98,1,BAMPS,LB,old,z,./images/BAMPSLB.png,,,,,,,,,,,,,,,,,,,,,
,,,,,,,,,,,,,,,,,199969,18,2022-01-29_14h38.08.131,lexical_decision_task_DD_L6,2021.2.3,MacIntel,60.0024001,,,,,,,,,,,,0.7053,1,,,,,,,,,,,,,,m,1,0.7053,,,,,,,,-0.017417196,-0.415499742,0,0,0,,0,112,112,69,1,ARROW,LB,old,m,./images/ARROWLB.png,,,,,,,,,,,,,,,,,,,,,
,,,,,,,,,,,,,,,,,199969,18,2022-01-29_14h38.08.131,lexical_decision_task_DD_L6,2021.2.3,MacIntel,60.0024001,,,,,,,,,,,,0.8563,1,,,,,,,,,,,,,,z,1,0.8563,,,,,,,,-0.017417196,-0.415499742,0,0,0,,0,113,113,108,1,GRUET,C,old,z,./images/GRUET.png,,,,,,,,,,,,,,,,,,,,,
,,,,,,,,,,,,,,,,,199969,18,2022-01-29_14h38.08.131,lexical_decision_task_DD_L6,2021.2.3,MacIntel,60.0024001,,,,,,,,,,,,1.2421,1,,,,,,,,,,,,,,z,1,1.2421,,,,,,,,-0.017417196,-0.415499742,0,0,0,,0,114,114,142,1,PLASK,HB,old,z,./images/PLASKHB.png,,,,,,,,,,,,,,,,,,,,,
,,,,,,,,,,,,,,,,,199969,18,2022-01-29_14h38.08.131,lexical_decision_task_DD_L6,2021.2.3,MacIntel,60.0024001,,,,,,,,,,,,0.8393,1,,,,,,,,,,,,,,m,1,0.8393,,,,,,,,-0.017417196,-0.415499742,0,0,0,,0,115,115,82,1,PEBBLE,C,old,m,./images/PEBBLE.png,,,,,,,,,,,,,,,,,,,,,
,,,,,,,,,,,,,,,,,199969,18,2022-01-29_14h38.08.131,lexical_decision_task_DD_L6,2021.2.3,MacIntel,60.0024001,,,,,,,,,,,,1.1322,1,,,,,,,,,,,,,,z,1,1.1322,,,,,,,,-0.017417196,-0.415499742,0,0,0,,0,116,116,131,1,NACES,LB,old,z,./images/NACESLB.png,,,,,,,,,,,,,,,,,,,,,
,,,,,,,,,,,,,,,,,199969,18,2022-01-29_14h38.08.131,lexical_decision_task_DD_L6,2021.2.3,MacIntel,60.0024001,,,,,,,,,,,,0.8993,1,,,,,,,,,,,,,,m,1,0.8993,,,,,,,,-0.017417196,-0.415499742,0,0,0,,0,117,117,41,1,STREAM,HB,old,m,./images/STREAMHB.png,,,,,,,,,,,,,,,,,,,,,
,,,,,,,,,,,,,,,,,199969,18,2022-01-29_14h38.08.131,lexical_decision_task_DD_L6,2021.2.3,MacIntel,60.0024001,,,,,,,,,,,,0.747,1,,,,,,,,,,,,,,z,1,0.747,,,,,,,,-0.017417196,-0.415499742,0,0,0,,0,118,118,105,1,MOKER,C,old,z,./images/MOKER.png,,,,,,,,,,,,,,,,,,,,,
,,,,,,,,,,,,,,,,,199969,18,2022-01-29_14h38.08.131,lexical_decision_task_DD_L6,2021.2.3,MacIntel,60.0024001,,,,,,,,,,,,1.5881,0,,,,,,,,,,,,,,m,0,1.5881,,,,,,,,-0.017417196,-0.415499742,0,0,0,,0,119,119,85,1,CHULK,HB,old,z,./images/CHULKHB.png,,,,,,,,,,,,,,,,,,,,,
,,,,,,,,,,,,,,,,,199969,18,2022-01-29_14h38.08.131,lexical_decision_task_DD_L6,2021.2.3,MacIntel,60.0024001,,,,,,,,,,,,0.6353,1,,,,,,,,,,,,,,m,1,0.6353,,,,,,,,-0.017417196,-0.415499742,0,0,0,,0,120,120,19,1,DONKEY,C,old,m,./images/DONKEY.png,,,,,,,,,,,,,,,,,,,,,
,,,,,,,,,,,,,,,,,199969,18,2022-01-29_14h38.08.131,lexical_decision_task_DD_L6,2021.2.3,MacIntel,60.0024001,,,,,,,,,,,,1.2592,1,,,,,,,,,,,,,,z,1,1.2592,,,,,,,,-0.017417196,-0.415499742,0,0,0,,0,121,121,109,1,BURGE,HB,old,z,./images/BURGEHB.png,,,,,,,,,,,,,,,,,,,,,
,,,,,,,,,,,,,,,,,199969,18,2022-01-29_14h38.08.131,lexical_decision_task_DD_L6,2021.2.3,MacIntel,60.0024001,,,,,,,,,,,,1.7578,1,,,,,,,,,,,,,,z,1,1.7578,,,,,,,,-0.017417196,-0.415499742,0,0,0,,0,122,122,151,1,TINKY,HB,old,z,./images/TINKYHB.png,,,,,,,,,,,,,,,,,,,,,
,,,,,,,,,,,,,,,,,199969,18,2022-01-29_14h38.08.131,lexical_decision_task_DD_L6,2021.2.3,MacIntel,60.0024001,,,,,,,,,,,,0.8597,1,,,,,,,,,,,,,,m,1,0.8597,,,,,,,,-0.017417196,-0.415499742,0,0,0,,0,123,123,36,1,BOILER,LB,old,m,./images/BOILERLB.png,,,,,,,,,,,,,,,,,,,,,
,,,,,,,,,,,,,,,,,199969,18,2022-01-29_14h38.08.131,lexical_decision_task_DD_L6,2021.2.3,MacIntel,60.0024001,,,,,,,,,,,,0.9003,1,,,,,,,,,,,,,,m,1,0.9003,,,,,,,,-0.017417196,-0.415499742,0,0,0,,0,124,124,79,1,RULER,C,old,m,./images/RULER.png,,,,,,,,,,,,,,,,,,,,,
,,,,,,,,,,,,,,,,,199969,18,2022-01-29_14h38.08.131,lexical_decision_task_DD_L6,2021.2.3,MacIntel,60.0024001,,,,,,,,,,,,0.9549,1,,,,,,,,,,,,,,m,1,0.9549,,,,,,,,-0.017417196,-0.415499742,0,0,0,space,0,125,125,35,1,LLAMA,HB,old,m,./images/LLAMAHB.png,4.2695,,,,,,,,,,,,,,,,,,,,
,,,,,,,,,,,,,,,,,199969,18,2022-01-29_14h38.08.131,lexical_decision_task_DD_L6,2021.2.3,MacIntel,60.0024001,,,,,,,,,,,,0.8652,1,,,,,,,,,,,,,,m,1,0.8652,,,,,,,,-0.017417196,-0.415499742,0,0,0,,0,126,126,76,1,MIDGET,C,old,m,./images/MIDGET.png,,,,,,,,,,,,,,,,,,,,,
,,,,,,,,,,,,,,,,,199969,18,2022-01-29_14h38.08.131,lexical_decision_task_DD_L6,2021.2.3,MacIntel,60.0024001,,,,,,,,,,,,0.8492,1,,,,,,,,,,,,,,m,1,0.8492,,,,,,,,-0.017417196,-0.415499742,0,0,0,,0,127,127,43,1,STOOL,C,old,m,./images/STOOL.png,,,,,,,,,,,,,,,,,,,,,
,,,,,,,,,,,,,,,,,199969,18,2022-01-29_14h38.08.131,lexical_decision_task_DD_L6,2021.2.3,MacIntel,60.0024001,,,,,,,,,,,,0.6144,1,,,,,,,,,,,,,,m,1,0.6144,,,,,,,,-0.017417196,-0.415499742,0,0,0,,0,128,128,22,1,CLOWN,C,old,m,./images/CLOWN.png,,,,,,,,,,,,,,,,,,,,,
,,,,,,,,,,,,,,,,,199969,18,2022-01-29_14h38.08.131,lexical_decision_task_DD_L6,2021.2.3,MacIntel,60.0024001,,,,,,,,,,,,1.1862,1,,,,,,,,,,,,,,z,1,1.1862,,,,,,,,-0.017417196,-0.415499742,0,0,0,,0,129,129,94,1,BLANS,HB,old,z,./images/BLANSHB.png,,,,,,,,,,,,,,,,,,,,,
,,,,,,,,,,,,,,,,,199969,18,2022-01-29_14h38.08.131,lexical_decision_task_DD_L6,2021.2.3,MacIntel,60.0024001,,,,,,,,,,,,0.6826,1,,,,,,,,,,,,,,m,1,0.6826,,,,,,,,-0.017417196,-0.415499742,0,0,0,,0,130,130,37,1,TIGER,C,old,m,./images/TIGER.png,,,,,,,,,,,,,,,,,,,,,
,,,,,,,,,,,,,,,,,199969,18,2022-01-29_14h38.08.131,lexical_decision_task_DD_L6,2021.2.3,MacIntel,60.0024001,,,,,,,,,,,,0.6429,1,,,,,,,,,,,,,,m,1,0.6429,,,,,,,,-0.017417196,-0.415499742,0,0,0,,0,131,131,54,1,CHERRY,LB,old,m,./images/CHERRYLB.png,,,,,,,,,,,,,,,,,,,,,
,,,,,,,,,,,,,,,,,199969,18,2022-01-29_14h38.08.131,lexical_decision_task_DD_L6,2021.2.3,MacIntel,60.0024001,,,,,,,,,,,,0.7221,1,,,,,,,,,,,,,,m,1,0.7221,,,,,,,,-0.017417196,-0.415499742,0,0,0,,0,132,132,81,1,DRILL,LB,old,m,./images/DRILLLB.png,,,,,,,,,,,,,,,,,,,,,
,,,,,,,,,,,,,,,,,199969,18,2022-01-29_14h38.08.131,lexical_decision_task_DD_L6,2021.2.3,MacIntel,60.0024001,,,,,,,,,,,,0.5998,1,,,,,,,,,,,,,,m,1,0.5998,,,,,,,,-0.017417196,-0.415499742,0,0,0,,0,133,133,10,1,GARDEN,C,old,m,./images/GARDEN.png,,,,,,,,,,,,,,,,,,,,,
,,,,,,,,,,,,,,,,,199969,18,2022-01-29_14h38.08.131,lexical_decision_task_DD_L6,2021.2.3,MacIntel,60.0024001,,,,,,,,,,,,1.2048,1,,,,,,,,,,,,,,z,1,1.2048,,,,,,,,-0.017417196,-0.415499742,0,0,0,,0,134,134,143,1,MONGS,LB,old,z,./images/MONGSLB.png,,,,,,,,,,,,,,,,,,,,,
,,,,,,,,,,,,,,,,,199969,18,2022-01-29_14h38.08.131,lexical_decision_task_DD_L6,2021.2.3,MacIntel,60.0024001,,,,,,,,,,,,0.9518,1,,,,,,,,,,,,,,z,1,0.9518,,,,,,,,-0.017417196,-0.415499742,0,0,0,,0,135,135,134,1,TROSS,LB,old,z,./images/TROSSLB.png,,,,,,,,,,,,,,,,,,,,,
,,,,,,,,,,,,,,,,,199969,18,2022-01-29_14h38.08.131,lexical_decision_task_DD_L6,2021.2.3,MacIntel,60.0024001,,,,,,,,,,,,1.465,1,,,,,,,,,,,,,,z,1,1.465,,,,,,,,-0.017417196,-0.415499742,0,0,0,,0,136,136,157,1,INLER,HB,old,z,./images/INLERHB.png,,,,,,,,,,,,,,,,,,,,,
,,,,,,,,,,,,,,,,,199969,18,2022-01-29_14h38.08.131,lexical_decision_task_DD_L6,2021.2.3,MacIntel,60.0024001,,,,,,,,,,,,1.1648,1,,,,,,,,,,,,,,z,1,1.1648,,,,,,,,-0.017417196,-0.415499742,0,0,0,,0,137,137,103,1,FLORT,HB,old,z,./images/FLORTHB.png,,,,,,,,,,,,,,,,,,,,,
,,,,,,,,,,,,,,,,,199969,18,2022-01-29_14h38.08.131,lexical_decision_task_DD_L6,2021.2.3,MacIntel,60.0024001,,,,,,,,,,,,1.1081,1,,,,,,,,,,,,,,m,1,1.1081,,,,,,,,-0.017417196,-0.415499742,0,0,0,,0,138,138,64,1,BRIDE,C,old,m,./images/BRIDE.png,,,,,,,,,,,,,,,,,,,,,
,,,,,,,,,,,,,,,,,199969,18,2022-01-29_14h38.08.131,lexical_decision_task_DD_L6,2021.2.3,MacIntel,60.0024001,,,,,,,,,,,,0.989,1,,,,,,,,,,,,,,z,1,0.989,,,,,,,,-0.017417196,-0.415499742,0,0,0,,0,139,139,155,1,CANGY,LB,old,z,./images/CANGYLB.png,,,,,,,,,,,,,,,,,,,,,
,,,,,,,,,,,,,,,,,199969,18,2022-01-29_14h38.08.131,lexical_decision_task_DD_L6,2021.2.3,MacIntel,60.0024001,,,,,,,,,,,,2.4999,1,,,,,,,,,,,,,,z,1,2.4999,,,,,,,,-0.017417196,-0.415499742,0,0,0,,0,140,140,163,1,GAMBA,HB,old,z,./images/GAMBAHB.png,,,,,,,,,,,,,,,,,,,,,
,,,,,,,,,,,,,,,,,199969,18,2022-01-29_14h38.08.131,lexical_decision_task_DD_L6,2021.2.3,MacIntel,60.0024001,,,,,,,,,,,,1.7329,1,,,,,,,,,,,,,,z,1,1.7329,,,,,,,,-0.017417196,-0.415499742,0,0,0,,0,141,141,128,1,GRIFT,LB,old,z,./images/GRIFTLB.png,,,,,,,,,,,,,,,,,,,,,
,,,,,,,,,,,,,,,,,199969,18,2022-01-29_14h38.08.131,lexical_decision_task_DD_L6,2021.2.3,MacIntel,60.0024001,,,,,,,,,,,,1.1354,1,,,,,,,,,,,,,,z,1,1.1354,,,,,,,,-0.017417196,-0.415499742,0,0,0,,0,142,142,95,1,HANTY,LB,old,z,./images/HANTYLB.png,,,,,,,,,,,,,,,,,,,,,
,,,,,,,,,,,,,,,,,199969,18,2022-01-29_14h38.08.131,lexical_decision_task_DD_L6,2021.2.3,MacIntel,60.0024001,,,,,,,,,,,,1.0819,1,,,,,,,,,,,,,,z,1,1.0819,,,,,,,,-0.017417196,-0.415499742,0,0,0,,0,143,143,116,1,BALGY,LB,old,z,./images/BALGYLB.png,,,,,,,,,,,,,,,,,,,,,
,,,,,,,,,,,,,,,,,199969,18,2022-01-29_14h38.08.131,lexical_decision_task_DD_L6,2021.2.3,MacIntel,60.0024001,,,,,,,,,,,,0.9999,1,,,,,,,,,,,,,,m,1,0.9999,,,,,,,,-0.017417196,-0.415499742,0,0,0,,0,144,144,23,1,CLOTH,HB,old,m,./images/CLOTHHB.png,,,,,,,,,,,,,,,,,,,,,
,,,,,,,,,,,,,,,,,199969,18,2022-01-29_14h38.08.131,lexical_decision_task_DD_L6,2021.2.3,MacIntel,60.0024001,,,,,,,,,,,,1.1429,1,,,,,,,,,,,,,,z,1,1.1429,,,,,,,,-0.017417196,-0.415499742,0,0,0,,0,145,145,141,1,PLEET,C,old,z,./images/PLEET.png,,,,,,,,,,,,,,,,,,,,,
,,,,,,,,,,,,,,,,,199969,18,2022-01-29_14h38.08.131,lexical_decision_task_DD_L6,2021.2.3,MacIntel,60.0024001,,,,,,,,,,,,0.9564,1,,,,,,,,,,,,,,z,1,0.9564,,,,,,,,-0.017417196,-0.415499742,0,0,0,,0,146,146,87,1,TRING,C,old,z,./images/TRING.png,,,,,,,,,,,,,,,,,,,,,
,,,,,,,,,,,,,,,,,199969,18,2022-01-29_14h38.08.131,lexical_decision_task_DD_L6,2021.2.3,MacIntel,60.0024001,,,,,,,,,,,,0.8173,1,,,,,,,,,,,,,,m,1,0.8173,,,,,,,,-0.017417196,-0.415499742,0,0,0,,0,147,147,72,1,FLASK,LB,old,m,./images/FLASKLB.png,,,,,,,,,,,,,,,,,,,,,
,,,,,,,,,,,,,,,,,199969,18,2022-01-29_14h38.08.131,lexical_decision_task_DD_L6,2021.2.3,MacIntel,60.0024001,,,,,,,,,,,,0.6891,1,,,,,,,,,,,,,,m,1,0.6891,,,,,,,,-0.017417196,-0.415499742,0,0,0,,0,148,148,67,1,POKER,C,old,m,./images/POKER.png,,,,,,,,,,,,,,,,,,,,,
,,,,,,,,,,,,,,,,,199969,18,2022-01-29_14h38.08.131,lexical_decision_task_DD_L6,2021.2.3,MacIntel,60.0024001,,,,,,,,,,,,0.9115,1,,,,,,,,,,,,,,z,1,0.9115,,,,,,,,-0.017417196,-0.415499742,0,0,0,,0,149,149,93,1,SMONE,C,old,z,./images/SMONE.png,,,,,,,,,,,,,,,,,,,,,
,,,,,,,,,,,,,,,,,199969,18,2022-01-29_14h38.08.131,lexical_decision_task_DD_L6,2021.2.3,MacIntel,60.0024001,,,,,,,,,,,,1.0338,1,,,,,,,,,,,,,,z,1,1.0338,,,,,,,,-0.017417196,-0.415499742,0,0,0,,0,150,150,165,1,TROWN,C,old,z,./images/TROWN.png,,,,,,,,,,,,,,,,,,,,,
,,,,,,,,,,,,,,,,,199969,18,2022-01-29_14h38.08.131,lexical_decision_task_DD_L6,2021.2.3,MacIntel,60.0024001,,,,,,,,,,,,0.9872,1,,,,,,,,,,,,,,z,1,0.9872,,,,,,,,-0.017417196,-0.415499742,0,0,0,,0,151,151,90,1,NEAST,C,old,z,./images/NEAST.png,,,,,,,,,,,,,,,,,,,,,
,,,,,,,,,,,,,,,,,199969,18,2022-01-29_14h38.08.131,lexical_decision_task_DD_L6,2021.2.3,MacIntel,60.0024001,,,,,,,,,,,,0.7283,1,,,,,,,,,,,,,,m,1,0.7283,,,,,,,,-0.017417196,-0.415499742,0,0,0,,0,152,152,48,1,SHIELD,LB,old,m,./images/SHIELDLB.png,,,,,,,,,,,,,,,,,,,,,
,,,,,,,,,,,,,,,,,199969,18,2022-01-29_14h38.08.131,lexical_decision_task_DD_L6,2021.2.3,MacIntel,60.0024001,,,,,,,,,,,,0.8834,1,,,,,,,,,,,,,,m,1,0.8834,,,,,,,,-0.017417196,-0.415499742,0,0,0,,0,153,153,77,1,WHEEL,HB,old,m,./images/WHEELHB.png,,,,,,,,,,,,,,,,,,,,,
,,,,,,,,,,,,,,,,,199969,18,2022-01-29_14h38.08.131,lexical_decision_task_DD_L6,2021.2.3,MacIntel,60.0024001,,,,,,,,,,,,0.8656,1,,,,,,,,,,,,,,z,1,0.8656,,,,,,,,-0.017417196,-0.415499742,0,0,0,,0,154,154,89,1,DRIEK,LB,old,z,./images/DRIEKLB.png,,,,,,,,,,,,,,,,,,,,,
,,,,,,,,,,,,,,,,,199969,18,2022-01-29_14h38.08.131,lexical_decision_task_DD_L6,2021.2.3,MacIntel,60.0024001,,,,,,,,,,,,0.9449,1,,,,,,,,,,,,,,z,1,0.9449,,,,,,,,-0.017417196,-0.415499742,0,0,0,,0,155,155,119,1,PAFER,LB,old,z,./images/PAFERLB.png,,,,,,,,,,,,,,,,,,,,,
,,,,,,,,,,,,,,,,,199969,18,2022-01-29_14h38.08.131,lexical_decision_task_DD_L6,2021.2.3,MacIntel,60.0024001,,,,,,,,,,,,1.4669,1,,,,,,,,,,,,,,z,1,1.4669,,,,,,,,-0.017417196,-0.415499742,0,0,0,,0,156,156,133,1,POWDY,HB,old,z,./images/POWDYHB.png,,,,,,,,,,,,,,,,,,,,,
,,,,,,,,,,,,,,,,,199969,18,2022-01-29_14h38.08.131,lexical_decision_task_DD_L6,2021.2.3,MacIntel,60.0024001,,,,,,,,,,,,0.8805,1,,,,,,,,,,,,,,z,1,0.8805,,,,,,,,-0.017417196,-0.415499742,0,0,0,,0,157,157,96,1,KEAMS,C,old,z,./images/KEAMS.png,,,,,,,,,,,,,,,,,,,,,
,,,,,,,,,,,,,,,,,199969,18,2022-01-29_14h38.08.131,lexical_decision_task_DD_L6,2021.2.3,MacIntel,60.0024001,,,,,,,,,,,,0.7374,1,,,,,,,,,,,,,,m,1,0.7374,,,,,,,,-0.017417196,-0.415499742,0,0,0,,0,158,158,60,1,CURRY,LB,old,m,./images/CURRYLB.png,,,,,,,,,,,,,,,,,,,,,
,,,,,,,,,,,,,,,,,199969,18,2022-01-29_14h38.08.131,lexical_decision_task_DD_L6,2021.2.3,MacIntel,60.0024001,,,,,,,,,,,,0.6957,1,,,,,,,,,,,,,,z,1,0.6957,,,,,,,,-0.017417196,-0.415499742,0,0,0,,0,159,159,156,1,HIXES,C,old,z,./images/HIXES.png,,,,,,,,,,,,,,,,,,,,,
,,,,,,,,,,,,,,,,,199969,18,2022-01-29_14h38.08.131,lexical_decision_task_DD_L6,2021.2.3,MacIntel,60.0024001,,,,,,,,,,,,0.9506,1,,,,,,,,,,,,,,z,1,0.9506,,,,,,,,-0.017417196,-0.415499742,0,0,0,,0,160,160,152,1,FRAIN,LB,old,z,./images/FRAINLB.png,,,,,,,,,,,,,,,,,,,,,
,,,,,,,,,,,,,,,,,199969,18,2022-01-29_14h38.08.131,lexical_decision_task_DD_L6,2021.2.3,MacIntel,60.0024001,,,,,,,,,,,,1.0993,1,,,,,,,,,,,,,,z,1,1.0993,,,,,,,,-0.017417196,-0.415499742,0,0,0,,0,161,161,122,1,BLOOT,LB,old,z,./images/BLOOTLB.png,,,,,,,,,,,,,,,,,,,,,
,,,,,,,,,,,,,,,,,199969,18,2022-01-29_14h38.08.131,lexical_decision_task_DD_L6,2021.2.3,MacIntel,60.0024001,,,,,,,,,,,,0.8211,1,,,,,,,,,,,,,,m,1,0.8211,,,,,,,,-0.017417196,-0.415499742,0,0,0,,0,162,162,9,1,DIVER,LB,old,m,./images/DIVERLB.png,,,,,,,,,,,,,,,,,,,,,
,,,,,,,,,,,,,,,,,199969,18,2022-01-29_14h38.08.131,lexical_decision_task_DD_L6,2021.2.3,MacIntel,60.0024001,,,,,,,,,,,,0.9247,1,,,,,,,,,,,,,,m,1,0.9247,,,,,,,,-0.017417196,-0.415499742,0,0,0,,0,163,163,78,1,BROOM,LB,old,m,./images/BROOMLB.png,,,,,,,,,,,,,,,,,,,,,
,,,,,,,,,,,,,,,,,199969,18,2022-01-29_14h38.08.131,lexical_decision_task_DD_L6,2021.2.3,MacIntel,60.0024001,,,,,,,,,,,,1.3666,1,,,,,,,,,,,,,,z,1,1.3666,,,,,,,,-0.017417196,-0.415499742,0,0,0,,0,164,164,130,1,CRILL,HB,old,z,./images/CRILLHB.png,,,,,,,,,,,,,,,,,,,,,
,,,,,,,,,,,,,,,,,199969,18,2022-01-29_14h38.08.131,lexical_decision_task_DD_L6,2021.2.3,MacIntel,60.0024001,,,,,,,,,,,,0.7629,1,,,,,,,,,,,,,,m,1,0.7629,,,,,,,,-0.017417196,-0.415499742,0,0,0,,0,165,165,25,1,CHALK,C,old,m,./images/CHALK.png,,,,,,,,,,,,,,,,,,,,,
,,,,,,,,,,,,,,,,,199969,18,2022-01-29_14h38.08.131,lexical_decision_task_DD_L6,2021.2.3,MacIntel,60.0024001,,,,,,,,,,,,0.8753,1,,,,,,,,,,,,,,z,1,0.8753,,,,,,,,-0.017417196,-0.415499742,0,0,0,,0,166,166,92,1,PAIMS,LB,old,z,./images/PAIMSLB.png,,,,,,,,,,,,,,,,,,,,,
,,,,,,,,,,,,,,,,,199969,18,2022-01-29_14h38.08.131,lexical_decision_task_DD_L6,2021.2.3,MacIntel,60.0024001,,,,,,,,,,,,2.4889,1,,,,,,,,,,,,,,z,1,2.4889,,,,,,,,-0.017417196,-0.415499742,0,0,0,,0,167,167,145,1,LAMEL,HB,old,z,./images/LAMELHB.png,,,,,,,,,,,,,,,,,,,,,
,-0.013714735,-0.383812188,1,0,0,instr_done_button,,,,,,1,test,"In the next phase you will be presented with the words from the the first phase. Your job is to decide whether you remember seeing the word or not. If you remember seeing the word press ""old"" or type ""m"". If you do not remember seeing the word press ""new"" or type ""z"". Please press the space bar or click on continue to begin. ",,,199969,18,2022-01-29_14h38.08.131,lexical_decision_task_DD_L6,2021.2.3,MacIntel,60.0024001,,,,,,,,,,,,,,,,,,,,,,,,,,,,,,,,,,,,,,,,,,,,,,,,,,,,,,0,0,0,0,1,,,,,,,,,,,,,,,
space,-0.013714735,-0.383554077,0,0,0,,,,,,,1,test,"In the next phase you will be presented with the words from the the first phase. Your job is to decide whether you remember seeing the word or not. If you remember seeing the word press ""old"" or type ""m"". If you do not remember seeing the word press ""new"" or type ""z"". Please press the space bar or click on continue to begin. ",,,199969,18,2022-01-29_14h38.08.131,lexical_decision_task_DD_L6,2021.2.3,MacIntel,60.0024001,1.2781,,,,,,,,,,,,,,,,,,,,,,,,,,,,,,,,,,,,,,,,,,,,,,,,,,,,,1,0,1,0,1,,,,,,,,,,,,,,,
,-0.011057807,-0.413942939,1,0,0,instr_done_button,,,,,,1,test,"In the next phase you will be presented with the words from the the first phase. Your job is to decide whether you remember seeing the word or not. If you remember seeing the word press ""old"" or type ""m"". If you do not remember seeing the word press ""new"" or type ""z"". Please press the space bar or click on continue to begin. ",,,199969,18,2022-01-29_14h38.08.131,lexical_decision_task_DD_L6,2021.2.3,MacIntel,60.0024001,,,,,,,,,,,,,,,,,,,,,,,,,,,,,,,,,,,,,,,,,,,,,,,,,,,,,,2,0,2,0,1,,,,,,,,,,,,,,,
space,0.019181722,-0.372358059,0,0,0,,,,,,,1,test,"In the next phase you will be presented with the words from the the first phase. Your job is to decide whether you remember seeing the word or not. If you remember seeing the word press ""old"" or type ""m"". If you do not remember seeing the word press ""new"" or type ""z"". Please press the space bar or click on continue to begin. ",,,199969,18,2022-01-29_14h38.08.131,lexical_decision_task_DD_L6,2021.2.3,MacIntel,60.0024001,1.5528,,,,,,,,,,,,,,,,,,,,,,,,,,,,,,,,,,,,,,,,,,,,,,,,,,,,,3,0,3,0,1,,,,,,,,,,,,,,,
space,0.019181722,-0.372358059,0,0,0,,,,,,,1,test,"In the next phase you will be presented with the words from the the first phase. Your job is to decide whether you remember seeing the word or not. If you remember seeing the word press ""old"" or type ""m"". If you do not remember seeing the word press ""new"" or type ""z"". Please press the space bar or click on continue to begin. ",,,199969,18,2022-01-29_14h38.08.131,lexical_decision_task_DD_L6,2021.2.3,MacIntel,60.0024001,0.3743,,,,,,,,,,,,,,,,,,,,,,,,,,,,,,,,,,,,,,,,,,,,,,,,,,,,,4,0,4,0,1,,,,,,,,,,,,,,,
,,,,,,,,,,,,,,,,,199969,18,2022-01-29_14h38.08.131,lexical_decision_task_DD_L6,2021.2.3,MacIntel,60.0024001,,,,,,,,,,,,1.4311,1,,,,,,,,,,,,,,,,,,,,,,,,0.019181722,-0.372358059,0,0,0,,,,,,,CANDY,LB,m,y,./images/CANDYLB.png,,,,,,,m,1,1.4311,,,,,,,,0,0,0,39,1
,,,,,,,,,,,,,,,,,199969,18,2022-01-29_14h38.08.131,lexical_decision_task_DD_L6,2021.2.3,MacIntel,60.0024001,,,,,,,,,,,,1.0822,1,,,,,,,,,,,,,,,,,,,,,,,,0.019181722,-0.372358059,0,0,0,,,,,,,TRIPOD,LB,z,y,./images/TRIPODLB.png,,,,,,,z,1,1.0822,,,,,,,,0,1,1,138,1
,,,,,,,,,,,,,,,,,199969,18,2022-01-29_14h38.08.131,lexical_decision_task_DD_L6,2021.2.3,MacIntel,60.0024001,,,,,,,,,,,,0.9162,1,,,,,,,,,,,,,,,,,,,,,,,,0.019181722,-0.372358059,0,0,0,,,,,,,MELON,C,z,y,./images/MELON.png,,,,,,,z,1,0.9162,,,,,,,,0,2,2,106,1
,,,,,,,,,,,,,,,,,199969,18,2022-01-29_14h38.08.131,lexical_decision_task_DD_L6,2021.2.3,MacIntel,60.0024001,,,,,,,,,,,,0.9848,1,,,,,,,,,,,,,,,,,,,,,,,,0.019181722,-0.372358059,0,0,0,,,,,,,BEARD,HB,z,y,./images/BEARDHB.png,,,,,,,z,1,0.9848,,,,,,,,0,3,3,86,1
,,,,,,,,,,,,,,,,,199969,18,2022-01-29_14h38.08.131,lexical_decision_task_DD_L6,2021.2.3,MacIntel,60.0024001,,,,,,,,,,,,1.0362,1,,,,,,,,,,,,,,,,,,,,,,,,0.019181722,-0.372358059,0,0,0,,,,,,,BARREL,HB,z,y,./images/BARRELHB.png,,,,,,,z,1,1.0362,,,,,,,,0,4,4,116,1
,,,,,,,,,,,,,,,,,199969,18,2022-01-29_14h38.08.131,lexical_decision_task_DD_L6,2021.2.3,MacIntel,60.0024001,,,,,,,,,,,,1.1671,1,,,,,,,,,,,,,,,,,,,,,,,,0.019181722,-0.372358059,0,0,0,,,,,,,CASINO,C,m,y,./images/CASINO.png,,,,,,,m,1,1.1671,,,,,,,,0,5,5,28,1
,,,,,,,,,,,,,,,,,199969,18,2022-01-29_14h38.08.131,lexical_decision_task_DD_L6,2021.2.3,MacIntel,60.0024001,,,,,,,,,,,,1.0209,0,,,,,,,,,,,,,,,,,,,,,,,,0.019181722,-0.372358059,0,0,0,,,,,,,SNAKE,C,m,y,./images/SNAKE.png,,,,,,,z,0,1.0209,,,,,,,,0,6,6,40,1
,,,,,,,,,,,,,,,,,199969,18,2022-01-29_14h38.08.131,lexical_decision_task_DD_L6,2021.2.3,MacIntel,60.0024001,,,,,,,,,,,,0.9526,1,,,,,,,,,,,,,,,,,,,,,,,,0.019181722,-0.372358059,0,0,0,,,,,,,POKER,C,m,y,./images/POKER.png,,,,,,,m,1,0.9526,,,,,,,,0,7,7,67,1
,,,,,,,,,,,,,,,,,199969,18,2022-01-29_14h38.08.131,lexical_decision_task_DD_L6,2021.2.3,MacIntel,60.0024001,,,,,,,,,,,,0.9201,1,,,,,,,,,,,,,,,,,,,,,,,,0.019181722,-0.372358059,0,0,0,,,,,,,MALLET,HB,z,y,./images/MALLETHB.png,,,,,,,z,1,0.9201,,,,,,,,0,8,8,134,1
,,,,,,,,,,,,,,,,,199969,18,2022-01-29_14h38.08.131,lexical_decision_task_DD_L6,2021.2.3,MacIntel,60.0024001,,,,,,,,,,,,1.184,1,,,,,,,,,,,,,,,,,,,,,,,,0.019181722,-0.372358059,0,0,0,,,,,,,TULIP,HB,z,y,./images/TULIPHB.png,,,,,,,z,1,1.184,,,,,,,,0,9,9,92,1
,,,,,,,,,,,,,,,,,199969,18,2022-01-29_14h38.08.131,lexical_decision_task_DD_L6,2021.2.3,MacIntel,60.0024001,,,,,,,,,,,,0.9515,1,,,,,,,,,,,,,,,,,,,,,,,,0.019181722,-0.372358059,0,0,0,,,,,,,BRIDE,C,m,y,./images/BRIDE.png,,,,,,,m,1,0.9515,,,,,,,,0,10,10,64,1
,,,,,,,,,,,,,,,,,199969,18,2022-01-29_14h38.08.131,lexical_decision_task_DD_L6,2021.2.3,MacIntel,60.0024001,,,,,,,,,,,,0.8682,1,,,,,,,,,,,,,,,,,,,,,,,,0.019181722,-0.372358059,0,0,0,,,,,,,SKIING,HB,z,y,./images/SKIINGHB.png,,,,,,,z,1,0.8682,,,,,,,,0,11,11,101,1
,,,,,,,,,,,,,,,,,199969,18,2022-01-29_14h38.08.131,lexical_decision_task_DD_L6,2021.2.3,MacIntel,60.0024001,,,,,,,,,,,,0.8741,0,,,,,,,,,,,,,,,,,,,,,,,,0.019181722,-0.372358059,0,0,0,,,,,,,WALNUT,LB,m,y,./images/WALNUTLB.png,,,,,,,z,0,0.8741,,,,,,,,0,12,12,0,1
,,,,,,,,,,,,,,,,,199969,18,2022-01-29_14h38.08.131,lexical_decision_task_DD_L6,2021.2.3,MacIntel,60.0024001,,,,,,,,,,,,0.8402,1,,,,,,,,,,,,,,,,,,,,,,,,0.019181722,-0.372358059,0,0,0,,,,,,,JAGUAR,LB,z,y,./images/JAGUARLB.png,,,,,,,z,1,0.8402,,,,,,,,0,13,13,102,1
,,,,,,,,,,,,,,,,,199969,18,2022-01-29_14h38.08.131,lexical_decision_task_DD_L6,2021.2.3,MacIntel,60.0024001,,,,,,,,,,,,0.8828,1,,,,,,,,,,,,,,,,,,,,,,,,0.019181722,-0.372358059,0,0,0,,,,,,,GREASE,LB,z,y,./images/GREASELB.png,,,,,,,z,1,0.8828,,,,,,,,0,14,14,99,1
,,,,,,,,,,,,,,,,,199969,18,2022-01-29_14h38.08.131,lexical_decision_task_DD_L6,2021.2.3,MacIntel,60.0024001,,,,,,,,,,,,0.95,1,,,,,,,,,,,,,,,,,,,,,,,,0.019181722,-0.372358059,0,0,0,,,,,,,BIRTH,C,z,y,./images/BIRTH.png,,,,,,,z,1,0.95,,,,,,,,0,15,15,121,1
,,,,,,,,,,,,,,,,,199969,18,2022-01-29_14h38.08.131,lexical_decision_task_DD_L6,2021.2.3,MacIntel,60.0024001,,,,,,,,,,,,1.0244,1,,,,,,,,,,,,,,,,,,,,,,,,0.019181722,-0.372358059,0,0,0,,,,,,,PURSE,HB,z,y,./images/PURSEHB.png,,,,,,,z,1,1.0244,,,,,,,,0,16,16,146,1
,,,,,,,,,,,,,,,,,199969,18,2022-01-29_14h38.08.131,lexical_decision_task_DD_L6,2021.2.3,MacIntel,60.0024001,,,,,,,,,,,,0.8476,1,,,,,,,,,,,,,,,,,,,,,,,,0.019181722,-0.372358059,0,0,0,,,,,,,HOCKEY,HB,m,y,./images/HOCKEYHB.png,,,,,,,m,1,0.8476,,,,,,,,0,17,17,32,1
,,,,,,,,,,,,,,,,,199969,18,2022-01-29_14h38.08.131,lexical_decision_task_DD_L6,2021.2.3,MacIntel,60.0024001,,,,,,,,,,,,0.9853,1,,,,,,,,,,,,,,,,,,,,,,,,0.019181722,-0.372358059,0,0,0,,,,,,,DIVER,LB,m,y,./images/DIVERLB.png,,,,,,,m,1,0.9853,,,,,,,,0,18,18,9,1
,,,,,,,,,,,,,,,,,199969,18,2022-01-29_14h38.08.131,lexical_decision_task_DD_L6,2021.2.3,MacIntel,60.0024001,,,,,,,,,,,,0.8689,1,,,,,,,,,,,,,,,,,,,,,,,,0.019181722,-0.372358059,0,0,0,,,,,,,MUFFIN,C,z,y,./images/MUFFIN.png,,,,,,,z,1,0.8689,,,,,,,,0,19,19,139,1
,,,,,,,,,,,,,,,,,199969,18,2022-01-29_14h38.08.131,lexical_decision_task_DD_L6,2021.2.3,MacIntel,60.0024001,,,,,,,,,,,,0.9521,1,,,,,,,,,,,,,,,,,,,,,,,,0.019181722,-0.372358059,0,0,0,,,,,,,CARPET,HB,z,y,./images/CARPETHB.png,,,,,,,z,1,0.9521,,,,,,,,0,20,20,137,1
,,,,,,,,,,,,,,,,,199969,18,2022-01-29_14h38.08.131,lexical_decision_task_DD_L6,2021.2.3,MacIntel,60.0024001,,,,,,,,,,,,0.9456,1,,,,,,,,,,,,,,,,,,,,,,,,0.019181722,-0.372358059,0,0,0,,,,,,,FENCE,HB,m,y,./images/FENCEHB.png,,,,,,,m,1,0.9456,,,,,,,,0,21,21,14,1
,,,,,,,,,,,,,,,,,199969,18,2022-01-29_14h38.08.131,lexical_decision_task_DD_L6,2021.2.3,MacIntel,60.0024001,,,,,,,,,,,,0.939,1,,,,,,,,,,,,,,,,,,,,,,,,0.019181722,-0.372358059,0,0,0,,,,,,,STORM,LB,z,y,./images/STORMLB.png,,,,,,,z,1,0.939,,,,,,,,0,22,22,114,1
,,,,,,,,,,,,,,,,,199969,18,2022-01-29_14h38.08.131,lexical_decision_task_DD_L6,2021.2.3,MacIntel,60.0024001,,,,,,,,,,,,0.8405,1,,,,,,,,,,,,,,,,,,,,,,,,0.019181722,-0.372358059,0,0,0,,,,,,,DONKEY,C,m,y,./images/DONKEY.png,,,,,,,m,1,0.8405,,,,,,,,0,23,23,19,1
,,,,,,,,,,,,,,,,,199969,18,2022-01-29_14h38.08.131,lexical_decision_task_DD_L6,2021.2.3,MacIntel,60.0024001,,,,,,,,,,,,1.0122,1,,,,,,,,,,,,,,,,,,,,,,,,0.019181722,-0.372358059,0,0,0,,,,,,,ALLEY,C,m,y,./images/ALLEY.png,,,,,,,m,1,1.0122,,,,,,,,0,24,24,55,1
,,,,,,,,,,,,,,,,,199969,18,2022-01-29_14h38.08.131,lexical_decision_task_DD_L6,2021.2.3,MacIntel,60.0024001,,,,,,,,,,,,0.9184,0,,,,,,,,,,,,,,,,,,,,,,,,0.019181722,-0.372358059,0,0,0,,,,,,,BOILER,LB,m,y,./images/BOILERLB.png,,,,,,,z,0,0.9184,,,,,,,,0,25,25,36,1
,,,,,,,,,,,,,,,,,199969,18,2022-01-29_14h38.08.131,lexical_decision_task_DD_L6,2021.2.3,MacIntel,60.0024001,,,,,,,,,,,,0.8499,1,,,,,,,,,,,,,,,,,,,,,,,,0.019181722,-0.372358059,0,0,0,,,,,,,CHALK,C,m,y,./images/CHALK.png,,,,,,,m,1,0.8499,,,,,,,,0,26,26,25,1
,,,,,,,,,,,,,,,,,199969,18,2022-01-29_14h38.08.131,lexical_decision_task_DD_L6,2021.2.3,MacIntel,60.0024001,,,,,,,,,,,,1.0469,1,,,,,,,,,,,,,,,,,,,,,,,,0.019181722,-0.372358059,0,0,0,,,,,,,RULER,C,m,y,./images/RULER.png,,,,,,,m,1,1.0469,,,,,,,,0,27,27,79,1
,,,,,,,,,,,,,,,,,199969,18,2022-01-29_14h38.08.131,lexical_decision_task_DD_L6,2021.2.3,MacIntel,60.0024001,,,,,,,,,,,,0.9341,1,,,,,,,,,,,,,,,,,,,,,,,,0.019181722,-0.372358059,0,0,0,,,,,,,FINGER,LB,z,y,./images/FINGERLB.png,,,,,,,z,1,0.9341,,,,,,,,0,28,28,87,1
,,,,,,,,,,,,,,,,,199969,18,2022-01-29_14h38.08.131,lexical_decision_task_DD_L6,2021.2.3,MacIntel,60.0024001,,,,,,,,,,,,2.016,0,,,,,,,,,,,,,,,,,,,,,,,,0.019181722,-0.372358059,0,0,0,,,,,,,BONNET,HB,z,y,./images/BONNETHB.png,,,,,,,m,0,2.016,,,,,,,,0,29,29,95,1
,,,,,,,,,,,,,,,,,199969,18,2022-01-29_14h38.08.131,lexical_decision_task_DD_L6,2021.2.3,MacIntel,60.0024001,,,,,,,,,,,,0.8079,1,,,,,,,,,,,,,,,,,,,,,,,,0.019181722,-0.372358059,0,0,0,,,,,,,WALRUS,HB,z,y,./images/WALRUSHB.png,,,,,,,z,1,0.8079,,,,,,,,0,30,30,107,1
,,,,,,,,,,,,,,,,,199969,18,2022-01-29_14h38.08.131,lexical_decision_task_DD_L6,2021.2.3,MacIntel,60.0024001,,,,,,,,,,,,0.9555,1,,,,,,,,,,,,,,,,,,,,,,,,0.019181722,-0.372358059,0,0,0,,,,,,,STOVE,HB,m,y,./images/STOVEHB.png,,,,,,,m,1,0.9555,,,,,,,,0,31,31,2,1
,,,,,,,,,,,,,,,,,199969,18,2022-01-29_14h38.08.131,lexical_decision_task_DD_L6,2021.2.3,MacIntel,60.0024001,,,,,,,,,,,,0.7133,1,,,,,,,,,,,,,,,,,,,,,,,,0.019181722,-0.372358059,0,0,0,,,,,,,SUNSET,C,z,y,./images/SUNSET.png,,,,,,,z,1,0.7133,,,,,,,,0,32,32,166,1
,,,,,,,,,,,,,,,,,199969,18,2022-01-29_14h38.08.131,lexical_decision_task_DD_L6,2021.2.3,MacIntel,60.0024001,,,,,,,,,,,,0.7547,1,,,,,,,,,,,,,,,,,,,,,,,,0.019181722,-0.372358059,0,0,0,,,,,,,SHORE,LB,z,y,./images/SHORELB.png,,,,,,,z,1,0.7547,,,,,,,,0,33,33,96,1
,,,,,,,,,,,,,,,,,199969,18,2022-01-29_14h38.08.131,lexical_decision_task_DD_L6,2021.2.3,MacIntel,60.0024001,,,,,,,,,,,,0.7325,0,,,,,,,,,,,,,,,,,,,,,,,,0.019181722,-0.372358059,0,0,0,,,,,,,FLESH,LB,m,y,./images/FLESHLB.png,,,,,,,z,0,0.7325,,,,,,,,0,34,34,24,1
,,,,,,,,,,,,,,,,,199969,18,2022-01-29_14h38.08.131,lexical_decision_task_DD_L6,2021.2.3,MacIntel,60.0024001,,,,,,,,,,,,1.3549,0,,,,,,,,,,,,,,,,,,,,,,,,0.019181722,-0.372358059,0,0,0,,,,,,,HEATER,HB,m,y,./images/HEATERHB.png,,,,,,,z,0,1.3549,,,,,,,,0,35,35,56,1
,,,,,,,,,,,,,,,,,199969,18,2022-01-29_14h38.08.131,lexical_decision_task_DD_L6,2021.2.3,MacIntel,60.0024001,,,,,,,,,,,,0.8025,0,,,,,,,,,,,,,,,,,,,,,,,,0.019181722,-0.372358059,0,0,0,,,,,,,GLOVE,C,m,y,./images/GLOVE.png,,,,,,,z,0,0.8025,,,,,,,,0,36,36,73,1
,,,,,,,,,,,,,,,,,199969,18,2022-01-29_14h38.08.131,lexical_decision_task_DD_L6,2021.2.3,MacIntel,60.0024001,,,,,,,,,,,,0.7557,1,,,,,,,,,,,,,,,,,,,,,,,,0.019181722,-0.372358059,0,0,0,,,,,,,KITTEN,LB,z,y,./images/KITTENLB.png,,,,,,,z,1,0.7557,,,,,,,,0,37,37,129,1
,,,,,,,,,,,,,,,,,199969,18,2022-01-29_14h38.08.131,lexical_decision_task_DD_L6,2021.2.3,MacIntel,60.0024001,,,,,,,,,,,,0.818,1,,,,,,,,,,,,,,,,,,,,,,,,0.019181722,-0.372358059,0,0,0,,,,,,,SWEAT,LB,z,y,./images/SWEATLB.png,,,,,,,z,1,0.818,,,,,,,,0,38,38,150,1
,,,,,,,,,,,,,,,,,199969,18,2022-01-29_14h38.08.131,lexical_decision_task_DD_L6,2021.2.3,MacIntel,60.0024001,,,,,,,,,,,,1.0628,0,,,,,,,,,,,,,,,,,,,,,,,,0.019181722,-0.372358059,0,0,0,,,,,,,DANCER,LB,m,y,./images/DANCERLB.png,,,,,,,z,0,1.0628,,,,,,,,0,39,39,21,1
,,,,,,,,,,,,,,,,,199969,18,2022-01-29_14h38.08.131,lexical_decision_task_DD_L6,2021.2.3,MacIntel,60.0024001,,,,,,,,,,,,1.4566,1,,,,,,,,,,,,,,,,,,,,,,,,0.019181722,-0.372358059,0,0,0,,,,,,,CRATER,LB,m,y,./images/CRATERLB.png,,,,,,,m,1,1.4566,,,,,,,,0,40,40,3,1
,,,,,,,,,,,,,,,,,199969,18,2022-01-29_14h38.08.131,lexical_decision_task_DD_L6,2021.2.3,MacIntel,60.0024001,,,,,,,,,,,,0.8823,1,,,,,,,,,,,,,,,,,,,,,,,,0.019181722,-0.372358059,0,0,0,space,,,,,,LAGOON,HB,m,y,./images/LAGOONHB.png,2.0065,,,,,,m,1,0.8823,,,,,,,,0,41,41,47,1
,,,,,,,,,,,,,,,,,199969,18,2022-01-29_14h38.08.131,lexical_decision_task_DD_L6,2021.2.3,MacIntel,60.0024001,,,,,,,,,,,,1.0635,1,,,,,,,,,,,,,,,,,,,,,,,,0.019181722,-0.372358059,0,0,0,,,,,,,CANDLE,C,z,y,./images/CANDLE.png,,,,,,,z,1,1.0635,,,,,,,,0,42,42,145,1
,,,,,,,,,,,,,,,,,199969,18,2022-01-29_14h38.08.131,lexical_decision_task_DD_L6,2021.2.3,MacIntel,60.0024001,,,,,,,,,,,,0.8205,1,,,,,,,,,,,,,,,,,,,,,,,,0.019181722,-0.372358059,0,0,0,,,,,,,STAIN,LB,m,y,./images/STAINLB.png,,,,,,,m,1,0.8205,,,,,,,,0,43,43,6,1
,,,,,,,,,,,,,,,,,199969,18,2022-01-29_14h38.08.131,lexical_decision_task_DD_L6,2021.2.3,MacIntel,60.0024001,,,,,,,,,,,,0.6692,1,,,,,,,,,,,,,,,,,,,,,,,,0.019181722,-0.372358059,0,0,0,,,,,,,MOSQUE,C,z,y,./images/MOSQUE.png,,,,,,,z,1,0.6692,,,,,,,,0,44,44,127,1
,,,,,,,,,,,,,,,,,199969,18,2022-01-29_14h38.08.131,lexical_decision_task_DD_L6,2021.2.3,MacIntel,60.0024001,,,,,,,,,,,,0.8314,1,,,,,,,,,,,,,,,,,,,,,,,,0.019181722,-0.372358059,0,0,0,,,,,,,URINE,C,z,y,./images/URINE.png,,,,,,,z,1,0.8314,,,,,,,,0,45,45,154,1
,,,,,,,,,,,,,,,,,199969,18,2022-01-29_14h38.08.131,lexical_decision_task_DD_L6,2021.2.3,MacIntel,60.0024001,,,,,,,,,,,,0.938,0,,,,,,,,,,,,,,,,,,,,,,,,0.019181722,-0.372358059,0,0,0,,,,,,,CLIFF,HB,m,y,./images/CLIFFHB.png,,,,,,,z,0,0.938,,,,,,,,0,46,46,8,1
,,,,,,,,,,,,,,,,,199969,18,2022-01-29_14h38.08.131,lexical_decision_task_DD_L6,2021.2.3,MacIntel,60.0024001,,,,,,,,,,,,1.0735,0,,,,,,,,,,,,,,,,,,,,,,,,0.019181722,-0.372358059,0,0,0,,,,,,,BANANA,C,m,y,./images/BANANA.png,,,,,,,z,0,1.0735,,,,,,,,0,47,47,70,1
,,,,,,,,,,,,,,,,,199969,18,2022-01-29_14h38.08.131,lexical_decision_task_DD_L6,2021.2.3,MacIntel,60.0024001,,,,,,,,,,,,1.1624,0,,,,,,,,,,,,,,,,,,,,,,,,0.019181722,-0.372358059,0,0,0,,,,,,,STOOL,C,m,y,./images/STOOL.png,,,,,,,z,0,1.1624,,,,,,,,0,48,48,43,1
,,,,,,,,,,,,,,,,,199969,18,2022-01-29_14h38.08.131,lexical_decision_task_DD_L6,2021.2.3,MacIntel,60.0024001,,,,,,,,,,,,0.8797,0,,,,,,,,,,,,,,,,,,,,,,,,0.019181722,-0.372358059,0,0,0,,,,,,,GRANNY,HB,m,y,./images/GRANNYHB.png,,,,,,,z,0,0.8797,,,,,,,,0,49,49,20,1
,,,,,,,,,,,,,,,,,199969,18,2022-01-29_14h38.08.131,lexical_decision_task_DD_L6,2021.2.3,MacIntel,60.0024001,,,,,,,,,,,,1.0689,1,,,,,,,,,,,,,,,,,,,,,,,,0.019181722,-0.372358059,0,0,0,,,,,,,FERRY,LB,m,y,./images/FERRYLB.png,,,,,,,m,1,1.0689,,,,,,,,0,50,50,57,1
,,,,,,,,,,,,,,,,,199969,18,2022-01-29_14h38.08.131,lexical_decision_task_DD_L6,2021.2.3,MacIntel,60.0024001,,,,,,,,,,,,1.2834,1,,,,,,,,,,,,,,,,,,,,,,,,0.019181722,-0.372358059,0,0,0,,,,,,,PARCEL,LB,m,y,./images/PARCELLB.png,,,,,,,m,1,1.2834,,,,,,,,0,51,51,18,1
,,,,,,,,,,,,,,,,,199969,18,2022-01-29_14h38.08.131,lexical_decision_task_DD_L6,2021.2.3,MacIntel,60.0024001,,,,,,,,,,,,0.8169,1,,,,,,,,,,,,,,,,,,,,,,,,0.019181722,-0.372358059,0,0,0,,,,,,,INFANT,C,z,y,./images/INFANT.png,,,,,,,z,1,0.8169,,,,,,,,0,52,52,160,1
,,,,,,,,,,,,,,,,,199969,18,2022-01-29_14h38.08.131,lexical_decision_task_DD_L6,2021.2.3,MacIntel,60.0024001,,,,,,,,,,,,0.9151,1,,,,,,,,,,,,,,,,,,,,,,,,0.019181722,-0.372358059,0,0,0,,,,,,,SAILOR,C,z,y,./images/SAILOR.png,,,,,,,z,1,0.9151,,,,,,,,0,53,53,151,1
,,,,,,,,,,,,,,,,,199969,18,2022-01-29_14h38.08.131,lexical_decision_task_DD_L6,2021.2.3,MacIntel,60.0024001,,,,,,,,,,,,0.837,1,,,,,,,,,,,,,,,,,,,,,,,,0.019181722,-0.372358059,0,0,0,,,,,,,MUSCLE,C,z,y,./images/MUSCLE.png,,,,,,,z,1,0.837,,,,,,,,0,54,54,88,1
,,,,,,,,,,,,,,,,,199969,18,2022-01-29_14h38.08.131,lexical_decision_task_DD_L6,2021.2.3,MacIntel,60.0024001,,,,,,,,,,,,1.616,0,,,,,,,,,,,,,,,,,,,,,,,,0.019181722,-0.372358059,0,0,0,,,,,,,STREAM,HB,m,y,./images/STREAMHB.png,,,,,,,z,0,1.616,,,,,,,,0,55,55,41,1
,,,,,,,,,,,,,,,,,199969,18,2022-01-29_14h38.08.131,lexical_decision_task_DD_L6,2021.2.3,MacIntel,60.0024001,,,,,,,,,,,,0.8167,1,,,,,,,,,,,,,,,,,,,,,,,,0.019181722,-0.372358059,0,0,0,,,,,,,SHELF,LB,z,y,./images/SHELFLB.png,,,,,,,z,1,0.8167,,,,,,,,0,56,56,123,1
,,,,,,,,,,,,,,,,,199969,18,2022-01-29_14h38.08.131,lexical_decision_task_DD_L6,2021.2.3,MacIntel,60.0024001,,,,,,,,,,,,1.1126,1,,,,,,,,,,,,,,,,,,,,,,,,0.019181722,-0.372358059,0,0,0,,,,,,,PAINT,C,z,y,./images/PAINT.png,,,,,,,z,1,1.1126,,,,,,,,0,57,57,91,1
,,,,,,,,,,,,,,,,,199969,18,2022-01-29_14h38.08.131,lexical_decision_task_DD_L6,2021.2.3,MacIntel,60.0024001,,,,,,,,,,,,1.1186,1,,,,,,,,,,,,,,,,,,,,,,,,0.019181722,-0.372358059,0,0,0,,,,,,,POSTER,HB,m,y,./images/POSTERHB.png,,,,,,,m,1,1.1186,,,,,,,,0,58,58,53,1
,,,,,,,,,,,,,,,,,199969,18,2022-01-29_14h38.08.131,lexical_decision_task_DD_L6,2021.2.3,MacIntel,60.0024001,,,,,,,,,,,,0.8195,1,,,,,,,,,,,,,,,,,,,,,,,,0.019181722,-0.372358059,0,0,0,,,,,,,FOLDER,LB,z,y,./images/FOLDERLB.png,,,,,,,z,1,0.8195,,,,,,,,0,59,59,126,1
,,,,,,,,,,,,,,,,,199969,18,2022-01-29_14h38.08.131,lexical_decision_task_DD_L6,2021.2.3,MacIntel,60.0024001,,,,,,,,,,,,0.9038,0,,,,,,,,,,,,,,,,,,,,,,,,0.019181722,-0.372358059,0,0,0,,,,,,,PARADE,HB,m,y,./images/PARADEHB.png,,,,,,,z,0,0.9038,,,,,,,,0,60,60,17,1
,,,,,,,,,,,,,,,,,199969,18,2022-01-29_14h38.08.131,lexical_decision_task_DD_L6,2021.2.3,MacIntel,60.0024001,,,,,,,,,,,,1.0998,1,,,,,,,,,,,,,,,,,,,,,,,,0.019181722,-0.372358059,0,0,0,,,,,,,CRUMB,HB,z,y,./images/CRUMBHB.png,,,,,,,z,1,1.0998,,,,,,,,0,61,61,113,1
,,,,,,,,,,,,,,,,,199969,18,2022-01-29_14h38.08.131,lexical_decision_task_DD_L6,2021.2.3,MacIntel,60.0024001,,,,,,,,,,,,0.9584,1,,,,,,,,,,,,,,,,,,,,,,,,0.019181722,-0.372358059,0,0,0,,,,,,,DOUGH,C,z,y,./images/DOUGH.png,,,,,,,z,1,0.9584,,,,,,,,0,62,62,103,1
,,,,,,,,,,,,,,,,,199969,18,2022-01-29_14h38.08.131,lexical_decision_task_DD_L6,2021.2.3,MacIntel,60.0024001,,,,,,,,,,,,0.7503,1,,,,,,,,,,,,,,,,,,,,,,,,0.019181722,-0.372358059,0,0,0,,,,,,,BELLY,C,z,y,./images/BELLY.png,,,,,,,z,1,0.7503,,,,,,,,0,63,63,94,1
,,,,,,,,,,,,,,,,,199969,18,2022-01-29_14h38.08.131,lexical_decision_task_DD_L6,2021.2.3,MacIntel,60.0024001,,,,,,,,,,,,1.9859,1,,,,,,,,,,,,,,,,,,,,,,,,0.019181722,-0.372358059,0,0,0,,,,,,,COUCH,HB,z,y,./images/COUCHHB.png,,,,,,,z,1,1.9859,,,,,,,,0,64,64,161,1
,,,,,,,,,,,,,,,,,199969,18,2022-01-29_14h38.08.131,lexical_decision_task_DD_L6,2021.2.3,MacIntel,60.0024001,,,,,,,,,,,,0.7331,1,,,,,,,,,,,,,,,,,,,,,,,,0.019181722,-0.372358059,0,0,0,,,,,,,LIZARD,HB,z,y,./images/LIZARDHB.png,,,,,,,z,1,0.7331,,,,,,,,0,65,65,128,1
,,,,,,,,,,,,,,,,,199969,18,2022-01-29_14h38.08.131,lexical_decision_task_DD_L6,2021.2.3,MacIntel,60.0024001,,,,,,,,,,,,0.8692,1,,,,,,,,,,,,,,,,,,,,,,,,0.019181722,-0.372358059,0,0,0,,,,,,,CRUST,C,z,y,./images/CRUST.png,,,,,,,z,1,0.8692,,,,,,,,0,66,66,163,1
,,,,,,,,,,,,,,,,,199969,18,2022-01-29_14h38.08.131,lexical_decision_task_DD_L6,2021.2.3,MacIntel,60.0024001,,,,,,,,,,,,0.7851,1,,,,,,,,,,,,,,,,,,,,,,,,0.019181722,-0.372358059,0,0,0,,,,,,,ATTIC,LB,z,y,./images/ATTICLB.png,,,,,,,z,1,0.7851,,,,,,,,0,67,67,111,1
,,,,,,,,,,,,,,,,,199969,18,2022-01-29_14h38.08.131,lexical_decision_task_DD_L6,2021.2.3,MacIntel,60.0024001,,,,,,,,,,,,0.9858,0,,,,,,,,,,,,,,,,,,,,,,,,0.019181722,-0.372358059,0,0,0,,,,,,,STEAK,C,m,y,./images/STEAK.png,,,,,,,z,0,0.9858,,,,,,,,0,68,68,31,1
,,,,,,,,,,,,,,,,,199969,18,2022-01-29_14h38.08.131,lexical_decision_task_DD_L6,2021.2.3,MacIntel,60.0024001,,,,,,,,,,,,0.7523,1,,,,,,,,,,,,,,,,,,,,,,,,0.019181722,-0.372358059,0,0,0,,,,,,,SWING,C,z,y,./images/SWING.png,,,,,,,z,1,0.7523,,,,,,,,0,69,69,124,1
,,,,,,,,,,,,,,,,,199969,18,2022-01-29_14h38.08.131,lexical_decision_task_DD_L6,2021.2.3,MacIntel,60.0024001,,,,,,,,,,,,0.7038,1,,,,,,,,,,,,,,,,,,,,,,,,0.019181722,-0.372358059,0,0,0,,,,,,,ARROW,LB,m,y,./images/ARROWLB.png,,,,,,,m,1,0.7038,,,,,,,,0,70,70,69,1
,,,,,,,,,,,,,,,,,199969,18,2022-01-29_14h38.08.131,lexical_decision_task_DD_L6,2021.2.3,MacIntel,60.0024001,,,,,,,,,,,,0.9305,1,,,,,,,,,,,,,,,,,,,,,,,,0.019181722,-0.372358059,0,0,0,,,,,,,DRUMS,C,z,y,./images/DRUMS.png,,,,,,,z,1,0.9305,,,,,,,,0,71,71,133,1
,,,,,,,,,,,,,,,,,199969,18,2022-01-29_14h38.08.131,lexical_decision_task_DD_L6,2021.2.3,MacIntel,60.0024001,,,,,,,,,,,,0.9186,1,,,,,,,,,,,,,,,,,,,,,,,,0.019181722,-0.372358059,0,0,0,,,,,,,PEACH,HB,z,y,./images/PEACHHB.png,,,,,,,z,1,0.9186,,,,,,,,0,72,72,119,1
,,,,,,,,,,,,,,,,,199969,18,2022-01-29_14h38.08.131,lexical_decision_task_DD_L6,2021.2.3,MacIntel,60.0024001,,,,,,,,,,,,0.7734,1,,,,,,,,,,,,,,,,,,,,,,,,0.019181722,-0.372358059,0,0,0,,,,,,,MIRROR,LB,z,y,./images/MIRRORLB.png,,,,,,,z,1,0.7734,,,,,,,,0,73,73,147,1
,,,,,,,,,,,,,,,,,199969,18,2022-01-29_14h38.08.131,lexical_decision_task_DD_L6,2021.2.3,MacIntel,60.0024001,,,,,,,,,,,,1.0162,0,,,,,,,,,,,,,,,,,,,,,,,,0.019181722,-0.372358059,0,0,0,,,,,,,SLOPE,LB,m,y,./images/SLOPELB.png,,,,,,,z,0,1.0162,,,,,,,,0,74,74,30,1
,,,,,,,,,,,,,,,,,199969,18,2022-01-29_14h38.08.131,lexical_decision_task_DD_L6,2021.2.3,MacIntel,60.0024001,,,,,,,,,,,,0.8946,1,,,,,,,,,,,,,,,,,,,,,,,,0.019181722,-0.372358059,0,0,0,,,,,,,SPORT,LB,z,y,./images/SPORTLB.png,,,,,,,z,1,0.8946,,,,,,,,0,75,75,132,1
,,,,,,,,,,,,,,,,,199969,18,2022-01-29_14h38.08.131,lexical_decision_task_DD_L6,2021.2.3,MacIntel,60.0024001,,,,,,,,,,,,0.687,0,,,,,,,,,,,,,,,,,,,,,,,,0.019181722,-0.372358059,0,0,0,,,,,,,ENGINE,HB,m,y,./images/ENGINEHB.png,,,,,,,z,0,0.687,,,,,,,,0,76,76,38,1
,,,,,,,,,,,,,,,,,199969,18,2022-01-29_14h38.08.131,lexical_decision_task_DD_L6,2021.2.3,MacIntel,60.0024001,,,,,,,,,,,,1.0352,0,,,,,,,,,,,,,,,,,,,,,,,,0.019181722,-0.372358059,0,0,0,,,,,,,PISTOL,HB,m,y,./images/PISTOLHB.png,,,,,,,z,0,1.0352,,,,,,,,0,77,77,29,1
,,,,,,,,,,,,,,,,,199969,18,2022-01-29_14h38.08.131,lexical_decision_task_DD_L6,2021.2.3,MacIntel,60.0024001,,,,,,,,,,,,0.9471,1,,,,,,,,,,,,,,,,,,,,,,,,0.019181722,-0.372358059,0,0,0,,,,,,,MAGGOT,LB,z,y,./images/MAGGOTLB.png,,,,,,,z,1,0.9471,,,,,,,,0,78,78,117,1
,,,,,,,,,,,,,,,,,199969,18,2022-01-29_14h38.08.131,lexical_decision_task_DD_L6,2021.2.3,MacIntel,60.0024001,,,,,,,,,,,,0.7732,1,,,,,,,,,,,,,,,,,,,,,,,,0.019181722,-0.372358059,0,0,0,,,,,,,MUMMY,C,m,y,./images/MUMMY.png,,,,,,,m,1,0.7732,,,,,,,,0,79,79,46,1
,,,,,,,,,,,,,,,,,199969,18,2022-01-29_14h38.08.131,lexical_decision_task_DD_L6,2021.2.3,MacIntel,60.0024001,,,,,,,,,,,,0.8207,1,,,,,,,,,,,,,,,,,,,,,,,,0.019181722,-0.372358059,0,0,0,,,,,,,GRAIN,LB,z,y,./images/GRAINLB.png,,,,,,,z,1,0.8207,,,,,,,,0,80,80,159,1
,,,,,,,,,,,,,,,,,199969,18,2022-01-29_14h38.08.131,lexical_decision_task_DD_L6,2021.2.3,MacIntel,60.0024001,,,,,,,,,,,,0.8808,1,,,,,,,,,,,,,,,,,,,,,,,,0.019181722,-0.372358059,0,0,0,,,,,,,TORCH,HB,z,y,./images/TORCHHB.png,,,,,,,z,1,0.8808,,,,,,,,0,81,81,152,1
,,,,,,,,,,,,,,,,,199969,18,2022-01-29_14h38.08.131,lexical_decision_task_DD_L6,2021.2.3,MacIntel,60.0024001,,,,,,,,,,,,0.6539,1,,,,,,,,,,,,,,,,,,,,,,,,0.019181722,-0.372358059,0,0,0,,,,,,,PLANK,C,z,y,./images/PLANK.png,,,,,,,z,1,0.6539,,,,,,,,0,82,82,85,1
,,,,,,,,,,,,,,,,,199969,18,2022-01-29_14h38.08.131,lexical_decision_task_DD_L6,2021.2.3,MacIntel,60.0024001,,,,,,,,,,,,0.8672,1,,,,,,,,,,,,,,,,,,,,,,,,0.019181722,-0.372358059,0,0,0,space,,,,,,CHERRY,LB,m,y,./images/CHERRYLB.png,3.4688,,,,,,m,1,0.8672,,,,,,,,0,83,83,54,1
,,,,,,,,,,,,,,,,,199969,18,2022-01-29_14h38.08.131,lexical_decision_task_DD_L6,2021.2.3,MacIntel,60.0024001,,,,,,,,,,,,1.1339,0,,,,,,,,,,,,,,,,,,,,,,,,0.019181722,-0.372358059,0,0,0,,,,,,,GRAPE,C,m,y,./images/GRAPE.png,,,,,,,z,0,1.1339,,,,,,,,0,84,84,16,1
,,,,,,,,,,,,,,,,,199969,18,2022-01-29_14h38.08.131,lexical_decision_task_DD_L6,2021.2.3,MacIntel,60.0024001,,,,,,,,,,,,1.2951,0,,,,,,,,,,,,,,,,,,,,,,,,0.019181722,-0.372358059,0,0,0,,,,,,,HAMMER,LB,m,y,./images/HAMMERLB.png,,,,,,,z,0,1.2951,,,,,,,,0,85,85,75,1
,,,,,,,,,,,,,,,,,199969,18,2022-01-29_14h38.08.131,lexical_decision_task_DD_L6,2021.2.3,MacIntel,60.0024001,,,,,,,,,,,,1.6801,1,,,,,,,,,,,,,,,,,,,,,,,,0.019181722,-0.372358059,0,0,0,,,,,,,FLASK,LB,m,y,./images/FLASKLB.png,,,,,,,m,1,1.6801,,,,,,,,0,86,86,72,1
,,,,,,,,,,,,,,,,,199969,18,2022-01-29_14h38.08.131,lexical_decision_task_DD_L6,2021.2.3,MacIntel,60.0024001,,,,,,,,,,,,1.978,1,,,,,,,,,,,,,,,,,,,,,,,,0.019181722,-0.372358059,0,0,0,,,,,,,SHIELD,LB,m,y,./images/SHIELDLB.png,,,,,,,m,1,1.978,,,,,,,,0,87,87,48,1
,,,,,,,,,,,,,,,,,199969,18,2022-01-29_14h38.08.131,lexical_decision_task_DD_L6,2021.2.3,MacIntel,60.0024001,,,,,,,,,,,,0.8463,1,,,,,,,,,,,,,,,,,,,,,,,,0.019181722,-0.372358059,0,0,0,,,,,,,SNACK,C,z,y,./images/SNACK.png,,,,,,,z,1,0.8463,,,,,,,,0,88,88,157,1
,,,,,,,,,,,,,,,,,199969,18,2022-01-29_14h38.08.131,lexical_decision_task_DD_L6,2021.2.3,MacIntel,60.0024001,,,,,,,,,,,,1.1819,1,,,,,,,,,,,,,,,,,,,,,,,,0.019181722,-0.372358059,0,0,0,,,,,,,BROOM,LB,m,y,./images/BROOMLB.png,,,,,,,m,1,1.1819,,,,,,,,0,89,89,78,1
,,,,,,,,,,,,,,,,,199969,18,2022-01-29_14h38.08.131,lexical_decision_task_DD_L6,2021.2.3,MacIntel,60.0024001,,,,,,,,,,,,0.7859,1,,,,,,,,,,,,,,,,,,,,,,,,0.019181722,-0.372358059,0,0,0,,,,,,,PEARL,C,z,y,./images/PEARL.png,,,,,,,z,1,0.7859,,,,,,,,0,90,90,130,1
,,,,,,,,,,,,,,,,,199969,18,2022-01-29_14h38.08.131,lexical_decision_task_DD_L6,2021.2.3,MacIntel,60.0024001,,,,,,,,,,,,0.7353,0,,,,,,,,,,,,,,,,,,,,,,,,0.019181722,-0.372358059,0,0,0,,,,,,,PEBBLE,C,m,y,./images/PEBBLE.png,,,,,,,z,0,0.7353,,,,,,,,0,91,91,82,1
,,,,,,,,,,,,,,,,,199969,18,2022-01-29_14h38.08.131,lexical_decision_task_DD_L6,2021.2.3,MacIntel,60.0024001,,,,,,,,,,,,0.9035,0,,,,,,,,,,,,,,,,,,,,,,,,0.019181722,-0.372358059,0,0,0,,,,,,,PILOT,HB,m,y,./images/PILOTHB.png,,,,,,,z,0,0.9035,,,,,,,,0,92,92,50,1
,,,,,,,,,,,,,,,,,199969,18,2022-01-29_14h38.08.131,lexical_decision_task_DD_L6,2021.2.3,MacIntel,60.0024001,,,,,,,,,,,,0.9734,0,,,,,,,,,,,,,,,,,,,,,,,,0.019181722,-0.372358059,0,0,0,,,,,,,BUTTER,LB,m,y,./images/BUTTERLB.png,,,,,,,z,0,0.9734,,,,,,,,0,93,93,27,1
,,,,,,,,,,,,,,,,,199969,18,2022-01-29_14h38.08.131,lexical_decision_task_DD_L6,2021.2.3,MacIntel,60.0024001,,,,,,,,,,,,0.9357,1,,,,,,,,,,,,,,,,,,,,,,,,0.019181722,-0.372358059,0,0,0,,,,,,,MIDGET,C,m,y,./images/MIDGET.png,,,,,,,m,1,0.9357,,,,,,,,0,94,94,76,1
,,,,,,,,,,,,,,,,,199969,18,2022-01-29_14h38.08.131,lexical_decision_task_DD_L6,2021.2.3,MacIntel,60.0024001,,,,,,,,,,,,1.0295,0,,,,,,,,,,,,,,,,,,,,,,,,0.019181722,-0.372358059,0,0,0,,,,,,,MEDAL,HB,m,y,./images/MEDALHB.png,,,,,,,z,0,1.0295,,,,,,,,0,95,95,11,1
,,,,,,,,,,,,,,,,,199969,18,2022-01-29_14h38.08.131,lexical_decision_task_DD_L6,2021.2.3,MacIntel,60.0024001,,,,,,,,,,,,1.1586,1,,,,,,,,,,,,,,,,,,,,,,,,0.019181722,-0.372358059,0,0,0,,,,,,,VALLEY,HB,m,y,./images/VALLEYHB.png,,,,,,,m,1,1.1586,,,,,,,,0,96,96,68,1
,,,,,,,,,,,,,,,,,199969,18,2022-01-29_14h38.08.131,lexical_decision_task_DD_L6,2021.2.3,MacIntel,60.0024001,,,,,,,,,,,,1.0674,1,,,,,,,,,,,,,,,,,,,,,,,,0.019181722,-0.372358059,0,0,0,,,,,,,BANNER,C,z,y,./images/BANNER.png,,,,,,,z,1,1.0674,,,,,,,,0,97,97,136,1
,,,,,,,,,,,,,,,,,199969,18,2022-01-29_14h38.08.131,lexical_decision_task_DD_L6,2021.2.3,MacIntel,60.0024001,,,,,,,,,,,,0.8191,1,,,,,,,,,,,,,,,,,,,,,,,,0.019181722,-0.372358059,0,0,0,,,,,,,TIGER,C,m,y,./images/TIGER.png,,,,,,,m,1,0.8191,,,,,,,,0,98,98,37,1
,,,,,,,,,,,,,,,,,199969,18,2022-01-29_14h38.08.131,lexical_decision_task_DD_L6,2021.2.3,MacIntel,60.0024001,,,,,,,,,,,,0.832,1,,,,,,,,,,,,,,,,,,,,,,,,0.019181722,-0.372358059,0,0,0,,,,,,,BAMBOO,HB,m,y,./images/BAMBOOHB.png,,,,,,,m,1,0.832,,,,,,,,0,99,99,5,1
,,,,,,,,,,,,,,,,,199969,18,2022-01-29_14h38.08.131,lexical_decision_task_DD_L6,2021.2.3,MacIntel,60.0024001,,,,,,,,,,,,0.6498,1,,,,,,,,,,,,,,,,,,,,,,,,0.019181722,-0.372358059,0,0,0,,,,,,,BUNNY,C,m,y,./images/BUNNY.png,,,,,,,m,1,0.6498,,,,,,,,0,100,100,13,1
,,,,,,,,,,,,,,,,,199969,18,2022-01-29_14h38.08.131,lexical_decision_task_DD_L6,2021.2.3,MacIntel,60.0024001,,,,,,,,,,,,1.3828,1,,,,,,,,,,,,,,,,,,,,,,,,0.019181722,-0.372358059,0,0,0,,,,,,,PENCE,C,z,y,./images/PENCE.png,,,,,,,z,1,1.3828,,,,,,,,0,101,101,100,1
,,,,,,,,,,,,,,,,,199969,18,2022-01-29_14h38.08.131,lexical_decision_task_DD_L6,2021.2.3,MacIntel,60.0024001,,,,,,,,,,,,1.5789,1,,,,,,,,,,,,,,,,,,,,,,,,0.019181722,-0.372358059,0,0,0,,,,,,,SMOKER,HB,z,y,./images/SMOKERHB.png,,,,,,,z,1,1.5789,,,,,,,,0,102,102,110,1
,,,,,,,,,,,,,,,,,199969,18,2022-01-29_14h38.08.131,lexical_decision_task_DD_L6,2021.2.3,MacIntel,60.0024001,,,,,,,,,,,,1.5162,0,,,,,,,,,,,,,,,,,,,,,,,,0.019181722,-0.372358059,0,0,0,,,,,,,BASKET,HB,m,y,./images/BASKETHB.png,,,,,,,z,0,1.5162,,,,,,,,0,103,103,44,1
,,,,,,,,,,,,,,,,,199969,18,2022-01-29_14h38.08.131,lexical_decision_task_DD_L6,2021.2.3,MacIntel,60.0024001,,,,,,,,,,,,0.8153,1,,,,,,,,,,,,,,,,,,,,,,,,0.019181722,-0.372358059,0,0,0,,,,,,,COOKER,LB,z,y,./images/COOKERLB.png,,,,,,,z,1,0.8153,,,,,,,,0,104,104,153,1
,,,,,,,,,,,,,,,,,199969,18,2022-01-29_14h38.08.131,lexical_decision_task_DD_L6,2021.2.3,MacIntel,60.0024001,,,,,,,,,,,,0.8748,1,,,,,,,,,,,,,,,,,,,,,,,,0.019181722,-0.372358059,0,0,0,,,,,,,RHINO,LB,z,y,./images/RHINOLB.png,,,,,,,z,1,0.8748,,,,,,,,0,105,105,93,1
,,,,,,,,,,,,,,,,,199969,18,2022-01-29_14h38.08.131,lexical_decision_task_DD_L6,2021.2.3,MacIntel,60.0024001,,,,,,,,,,,,0.799,1,,,,,,,,,,,,,,,,,,,,,,,,0.019181722,-0.372358059,0,0,0,,,,,,,JELLY,C,z,y,./images/JELLY.png,,,,,,,z,1,0.799,,,,,,,,0,106,106,148,1
,,,,,,,,,,,,,,,,,199969,18,2022-01-29_14h38.08.131,lexical_decision_task_DD_L6,2021.2.3,MacIntel,60.0024001,,,,,,,,,,,,0.8787,1,,,,,,,,,,,,,,,,,,,,,,,,0.019181722,-0.372358059,0,0,0,,,,,,,SAUNA,LB,m,y,./images/SAUNALB.png,,,,,,,m,1,0.8787,,,,,,,,0,107,107,33,1
,,,,,,,,,,,,,,,,,199969,18,2022-01-29_14h38.08.131,lexical_decision_task_DD_L6,2021.2.3,MacIntel,60.0024001,,,,,,,,,,,,1.1851,0,,,,,,,,,,,,,,,,,,,,,,,,0.019181722,-0.372358059,0,0,0,,,,,,,WHISKY,HB,m,y,./images/WHISKYHB.png,,,,,,,z,0,1.1851,,,,,,,,0,108,108,83,1
,,,,,,,,,,,,,,,,,199969,18,2022-01-29_14h38.08.131,lexical_decision_task_DD_L6,2021.2.3,MacIntel,60.0024001,,,,,,,,,,,,1.0372,1,,,,,,,,,,,,,,,,,,,,,,,,0.019181722,-0.372358059,0,0,0,,,,,,,PICKLE,HB,z,y,./images/PICKLEHB.png,,,,,,,z,1,1.0372,,,,,,,,0,109,109,98,1
,,,,,,,,,,,,,,,,,199969,18,2022-01-29_14h38.08.131,lexical_decision_task_DD_L6,2021.2.3,MacIntel,60.0024001,,,,,,,,,,,,1.033,1,,,,,,,,,,,,,,,,,,,,,,,,0.019181722,-0.372358059,0,0,0,,,,,,,LADDER,HB,z,y,./images/LADDERHB.png,,,,,,,z,1,1.033,,,,,,,,0,110,110,122,1
,,,,,,,,,,,,,,,,,199969,18,2022-01-29_14h38.08.131,lexical_decision_task_DD_L6,2021.2.3,MacIntel,60.0024001,,,,,,,,,,,,0.8467,1,,,,,,,,,,,,,,,,,,,,,,,,0.019181722,-0.372358059,0,0,0,,,,,,,FALCON,C,z,y,./images/FALCON.png,,,,,,,z,1,0.8467,,,,,,,,0,111,111,112,1
,,,,,,,,,,,,,,,,,199969,18,2022-01-29_14h38.08.131,lexical_decision_task_DD_L6,2021.2.3,MacIntel,60.0024001,,,,,,,,,,,,1.2873,0,,,,,,,,,,,,,,,,,,,,,,,,0.019181722,-0.372358059,0,0,0,,,,,,,BOXER,C,m,y,./images/BOXER.png,,,,,,,z,0,1.2873,,,,,,,,0,112,112,4,1
,,,,,,,,,,,,,,,,,199969,18,2022-01-29_14h38.08.131,lexical_decision_task_DD_L6,2021.2.3,MacIntel,60.0024001,,,,,,,,,,,,1.1524,1,,,,,,,,,,,,,,,,,,,,,,,,0.019181722,-0.372358059,0,0,0,,,,,,,WEASEL,HB,z,y,./images/WEASELHB.png,,,,,,,z,1,1.1524,,,,,,,,0,113,113,164,1
,,,,,,,,,,,,,,,,,199969,18,2022-01-29_14h38.08.131,lexical_decision_task_DD_L6,2021.2.3,MacIntel,60.0024001,,,,,,,,,,,,0.8492,0,,,,,,,,,,,,,,,,,,,,,,,,0.019181722,-0.372358059,0,0,0,,,,,,,ARTIST,C,m,y,./images/ARTIST.png,,,,,,,z,0,0.8492,,,,,,,,0,114,114,61,1
,,,,,,,,,,,,,,,,,199969,18,2022-01-29_14h38.08.131,lexical_decision_task_DD_L6,2021.2.3,MacIntel,60.0024001,,,,,,,,,,,,1.4668,1,,,,,,,,,,,,,,,,,,,,,,,,0.019181722,-0.372358059,0,0,0,,,,,,,SAUCE,LB,m,y,./images/SAUCELB.png,,,,,,,m,1,1.4668,,,,,,,,0,115,115,51,1
,,,,,,,,,,,,,,,,,199969,18,2022-01-29_14h38.08.131,lexical_decision_task_DD_L6,2021.2.3,MacIntel,60.0024001,,,,,,,,,,,,0.851,0,,,,,,,,,,,,,,,,,,,,,,,,0.019181722,-0.372358059,0,0,0,,,,,,,BABOON,C,z,y,./images/BABOON.png,,,,,,,m,0,0.851,,,,,,,,0,116,116,142,1
,,,,,,,,,,,,,,,,,199969,18,2022-01-29_14h38.08.131,lexical_decision_task_DD_L6,2021.2.3,MacIntel,60.0024001,,,,,,,,,,,,1.5177,1,,,,,,,,,,,,,,,,,,,,,,,,0.019181722,-0.372358059,0,0,0,,,,,,,TOMATO,LB,z,y,./images/TOMATOLB.png,,,,,,,z,1,1.5177,,,,,,,,0,117,117,84,1
,,,,,,,,,,,,,,,,,199969,18,2022-01-29_14h38.08.131,lexical_decision_task_DD_L6,2021.2.3,MacIntel,60.0024001,,,,,,,,,,,,1.3857,0,,,,,,,,,,,,,,,,,,,,,,,,0.019181722,-0.372358059,0,0,0,,,,,,,BISHOP,C,m,y,./images/BISHOP.png,,,,,,,z,0,1.3857,,,,,,,,0,118,118,49,1
,,,,,,,,,,,,,,,,,199969,18,2022-01-29_14h38.08.131,lexical_decision_task_DD_L6,2021.2.3,MacIntel,60.0024001,,,,,,,,,,,,1.7531,1,,,,,,,,,,,,,,,,,,,,,,,,0.019181722,-0.372358059,0,0,0,,,,,,,JUMPER,HB,m,y,./images/JUMPERHB.png,,,,,,,m,1,1.7531,,,,,,,,0,119,119,74,1
,,,,,,,,,,,,,,,,,199969,18,2022-01-29_14h38.08.131,lexical_decision_task_DD_L6,2021.2.3,MacIntel,60.0024001,,,,,,,,,,,,0.9995,1,,,,,,,,,,,,,,,,,,,,,,,,0.019181722,-0.372358059,0,0,0,,,,,,,CURRY,LB,m,y,./images/CURRYLB.png,,,,,,,m,1,0.9995,,,,,,,,0,120,120,60,1
,,,,,,,,,,,,,,,,,199969,18,2022-01-29_14h38.08.131,lexical_decision_task_DD_L6,2021.2.3,MacIntel,60.0024001,,,,,,,,,,,,1.0333,1,,,,,,,,,,,,,,,,,,,,,,,,0.019181722,-0.372358059,0,0,0,,,,,,,LITTER,LB,z,y,./images/LITTERLB.png,,,,,,,z,1,1.0333,,,,,,,,0,121,121,162,1
,,,,,,,,,,,,,,,,,199969,18,2022-01-29_14h38.08.131,lexical_decision_task_DD_L6,2021.2.3,MacIntel,60.0024001,,,,,,,,,,,,1.0902,1,,,,,,,,,,,,,,,,,,,,,,,,0.019181722,-0.372358059,0,0,0,,,,,,,CLOUD,HB,m,y,./images/CLOUDHB.png,,,,,,,m,1,1.0902,,,,,,,,0,122,122,26,1
,,,,,,,,,,,,,,,,,199969,18,2022-01-29_14h38.08.131,lexical_decision_task_DD_L6,2021.2.3,MacIntel,60.0024001,,,,,,,,,,,,0.8565,1,,,,,,,,,,,,,,,,,,,,,,,,0.019181722,-0.372358059,0,0,0,,,,,,,BERRY,HB,z,y,./images/BERRYHB.png,,,,,,,z,1,0.8565,,,,,,,,0,123,123,131,1
,,,,,,,,,,,,,,,,,199969,18,2022-01-29_14h38.08.131,lexical_decision_task_DD_L6,2021.2.3,MacIntel,60.0024001,,,,,,,,,,,,1.5358,0,,,,,,,,,,,,,,,,,,,,,,,,0.019181722,-0.372358059,0,0,0,,,,,,,BUBBLE,HB,m,y,./images/BUBBLEHB.png,,,,,,,z,0,1.5358,,,,,,,,0,124,124,71,1
,,,,,,,,,,,,,,,,,199969,18,2022-01-29_14h38.08.131,lexical_decision_task_DD_L6,2021.2.3,MacIntel,60.0024001,,,,,,,,,,,,0.9517,1,,,,,,,,,,,,,,,,,,,,,,,,0.017973972,-0.379430949,0,0,0,space,,,,,,SQUARE,LB,z,y,./images/SQUARELB.png,4.2524,,,,,,z,1,0.9517,,,,,,,,0,125,125,90,1
,,,,,,,,,,,,,,,,,199969,18,2022-01-29_14h38.08.131,lexical_decision_task_DD_L6,2021.2.3,MacIntel,60.0024001,,,,,,,,,,,,0.8007,1,,,,,,,,,,,,,,,,,,,,,,,,0.017973972,-0.379430949,0,0,0,,,,,,,PASTA,HB,z,y,./images/PASTAHB.png,,,,,,,z,1,0.8007,,,,,,,,0,126,126,89,1
,,,,,,,,,,,,,,,,,199969,18,2022-01-29_14h38.08.131,lexical_decision_task_DD_L6,2021.2.3,MacIntel,60.0024001,,,,,,,,,,,,0.9363,1,,,,,,,,,,,,,,,,,,,,,,,,0.017973972,-0.379430949,0,0,0,,,,,,,MOOSE,LB,z,y,./images/MOOSELB.png,,,,,,,z,1,0.9363,,,,,,,,0,127,127,141,1
,,,,,,,,,,,,,,,,,199969,18,2022-01-29_14h38.08.131,lexical_decision_task_DD_L6,2021.2.3,MacIntel,60.0024001,,,,,,,,,,,,0.842,0,,,,,,,,,,,,,,,,,,,,,,,,0.017973972,-0.379430949,0,0,0,,,,,,,BAKER,LB,m,y,./images/BAKERLB.png,,,,,,,z,0,0.842,,,,,,,,0,128,128,63,1
,,,,,,,,,,,,,,,,,199969,18,2022-01-29_14h38.08.131,lexical_decision_task_DD_L6,2021.2.3,MacIntel,60.0024001,,,,,,,,,,,,2.29,1,,,,,,,,,,,,,,,,,,,,,,,,0.017973972,-0.379430949,0,0,0,,,,,,,SPINE,HB,m,y,./images/SPINEHB.png,,,,,,,m,1,2.29,,,,,,,,0,129,129,65,1
,,,,,,,,,,,,,,,,,199969,18,2022-01-29_14h38.08.131,lexical_decision_task_DD_L6,2021.2.3,MacIntel,60.0024001,,,,,,,,,,,,0.7497,1,,,,,,,,,,,,,,,,,,,,,,,,0.017973972,-0.379430949,0,0,0,,,,,,,PACKET,HB,z,y,./images/PACKETHB.png,,,,,,,z,1,0.7497,,,,,,,,0,130,130,140,1
,,,,,,,,,,,,,,,,,199969,18,2022-01-29_14h38.08.131,lexical_decision_task_DD_L6,2021.2.3,MacIntel,60.0024001,,,,,,,,,,,,1.2733,1,,,,,,,,,,,,,,,,,,,,,,,,0.017973972,-0.379430949,0,0,0,,,,,,,TOWEL,C,m,y,./images/TOWEL.png,,,,,,,m,1,1.2733,,,,,,,,0,131,131,1,1
,,,,,,,,,,,,,,,,,199969,18,2022-01-29_14h38.08.131,lexical_decision_task_DD_L6,2021.2.3,MacIntel,60.0024001,,,,,,,,,,,,0.5556,1,,,,,,,,,,,,,,,,,,,,,,,,0.017973972,-0.379430949,0,0,0,,,,,,,ONION,LB,z,y,./images/ONIONLB.png,,,,,,,z,1,0.5556,,,,,,,,0,132,132,135,1
,,,,,,,,,,,,,,,,,199969,18,2022-01-29_14h38.08.131,lexical_decision_task_DD_L6,2021.2.3,MacIntel,60.0024001,,,,,,,,,,,,0.9233,0,,,,,,,,,,,,,,,,,,,,,,,,0.017973972,-0.379430949,0,0,0,,,,,,,CANOE,C,m,y,./images/CANOE.png,,,,,,,z,0,0.9233,,,,,,,,0,133,133,58,1
,,,,,,,,,,,,,,,,,199969,18,2022-01-29_14h38.08.131,lexical_decision_task_DD_L6,2021.2.3,MacIntel,60.0024001,,,,,,,,,,,,1.8021,1,,,,,,,,,,,,,,,,,,,,,,,,0.017973972,-0.379430949,0,0,0,,,,,,,NOOSE,LB,z,y,./images/NOOSELB.png,,,,,,,z,1,1.8021,,,,,,,,0,134,134,156,1
,,,,,,,,,,,,,,,,,199969,18,2022-01-29_14h38.08.131,lexical_decision_task_DD_L6,2021.2.3,MacIntel,60.0024001,,,,,,,,,,,,2.0703,0,,,,,,,,,,,,,,,,,,,,,,,,0.017973972,-0.379430949,0,0,0,,,,,,,MAMMAL,HB,m,y,./images/MAMMALHB.png,,,,,,,z,0,2.0703,,,,,,,,0,135,135,62,1
,,,,,,,,,,,,,,,,,199969,18,2022-01-29_14h38.08.131,lexical_decision_task_DD_L6,2021.2.3,MacIntel,60.0024001,,,,,,,,,,,,2.3171,1,,,,,,,,,,,,,,,,,,,,,,,,0.017973972,-0.379430949,0,0,0,,,,,,,BLOKE,LB,m,y,./images/BLOKELB.png,,,,,,,m,1,2.3171,,,,,,,,0,136,136,12,1
,,,,,,,,,,,,,,,,,199969,18,2022-01-29_14h38.08.131,lexical_decision_task_DD_L6,2021.2.3,MacIntel,60.0024001,,,,,,,,,,,,0.7157,1,,,,,,,,,,,,,,,,,,,,,,,,0.017973972,-0.379430949,0,0,0,,,,,,,PIMPLE,HB,z,y,./images/PIMPLEHB.png,,,,,,,z,1,0.7157,,,,,,,,0,137,137,155,1
,,,,,,,,,,,,,,,,,199969,18,2022-01-29_14h38.08.131,lexical_decision_task_DD_L6,2021.2.3,MacIntel,60.0024001,,,,,,,,,,,,0.9514,0,,,,,,,,,,,,,,,,,,,,,,,,0.017973972,-0.379430949,0,0,0,,,,,,,COLLAR,LB,m,y,./images/COLLARLB.png,,,,,,,z,0,0.9514,,,,,,,,0,138,138,15,1
,,,,,,,,,,,,,,,,,199969,18,2022-01-29_14h38.08.131,lexical_decision_task_DD_L6,2021.2.3,MacIntel,60.0024001,,,,,,,,,,,,1.2276,1,,,,,,,,,,,,,,,,,,,,,,,,0.017973972,-0.379430949,0,0,0,,,,,,,CEMENT,HB,z,y,./images/CEMENTHB.png,,,,,,,z,1,1.2276,,,,,,,,0,139,139,158,1
,,,,,,,,,,,,,,,,,199969,18,2022-01-29_14h38.08.131,lexical_decision_task_DD_L6,2021.2.3,MacIntel,60.0024001,,,,,,,,,,,,1.1197,1,,,,,,,,,,,,,,,,,,,,,,,,0.017973972,-0.379430949,0,0,0,,,,,,,MOTOR,C,z,y,./images/MOTOR.png,,,,,,,z,1,1.1197,,,,,,,,0,140,140,97,1
,,,,,,,,,,,,,,,,,199969,18,2022-01-29_14h38.08.131,lexical_decision_task_DD_L6,2021.2.3,MacIntel,60.0024001,,,,,,,,,,,,1.1029,1,,,,,,,,,,,,,,,,,,,,,,,,0.017973972,-0.379430949,0,0,0,,,,,,,POODLE,LB,z,y,./images/POODLELB.png,,,,,,,z,1,1.1029,,,,,,,,0,141,141,165,1
,,,,,,,,,,,,,,,,,199969,18,2022-01-29_14h38.08.131,lexical_decision_task_DD_L6,2021.2.3,MacIntel,60.0024001,,,,,,,,,,,,1.7865,0,,,,,,,,,,,,,,,,,,,,,,,,0.017973972,-0.379430949,0,0,0,,,,,,,WHEEL,HB,m,y,./images/WHEELHB.png,,,,,,,z,0,1.7865,,,,,,,,0,142,142,77,1
,,,,,,,,,,,,,,,,,199969,18,2022-01-29_14h38.08.131,lexical_decision_task_DD_L6,2021.2.3,MacIntel,60.0024001,,,,,,,,,,,,1.1326,1,,,,,,,,,,,,,,,,,,,,,,,,0.017973972,-0.379430949,0,0,0,,,,,,,THROAT,LB,z,y,./images/THROATLB.png,,,,,,,z,1,1.1326,,,,,,,,0,143,143,120,1
,,,,,,,,,,,,,,,,,199969,18,2022-01-29_14h38.08.131,lexical_decision_task_DD_L6,2021.2.3,MacIntel,60.0024001,,,,,,,,,,,,0.9135,0,,,,,,,,,,,,,,,,,,,,,,,,0.017973972,-0.379430949,0,0,0,,,,,,,RAZOR,C,m,y,./images/RAZOR.png,,,,,,,z,0,0.9135,,,,,,,,0,144,144,34,1
,,,,,,,,,,,,,,,,,199969,18,2022-01-29_14h38.08.131,lexical_decision_task_DD_L6,2021.2.3,MacIntel,60.0024001,,,,,,,,,,,,1.2468,1,,,,,,,,,,,,,,,,,,,,,,,,0.017973972,-0.379430949,0,0,0,,,,,,,CRADLE,HB,z,y,./images/CRADLEHB.png,,,,,,,z,1,1.2468,,,,,,,,0,145,145,104,1
,,,,,,,,,,,,,,,,,199969,18,2022-01-29_14h38.08.131,lexical_decision_task_DD_L6,2021.2.3,MacIntel,60.0024001,,,,,,,,,,,,0.8852,1,,,,,,,,,,,,,,,,,,,,,,,,0.017973972,-0.379430949,0,0,0,,,,,,,DESERT,C,m,y,./images/DESERT.png,,,,,,,m,1,0.8852,,,,,,,,0,146,146,52,1
,,,,,,,,,,,,,,,,,199969,18,2022-01-29_14h38.08.131,lexical_decision_task_DD_L6,2021.2.3,MacIntel,60.0024001,,,,,,,,,,,,0.6663,1,,,,,,,,,,,,,,,,,,,,,,,,0.017973972,-0.379430949,0,0,0,,,,,,,LLAMA,HB,m,y,./images/LLAMAHB.png,,,,,,,m,1,0.6663,,,,,,,,0,147,147,35,1
,,,,,,,,,,,,,,,,,199969,18,2022-01-29_14h38.08.131,lexical_decision_task_DD_L6,2021.2.3,MacIntel,60.0024001,,,,,,,,,,,,0.9959,0,,,,,,,,,,,,,,,,,,,,,,,,0.017973972,-0.379430949,0,0,0,,,,,,,CHAIN,LB,m,y,./images/CHAINLB.png,,,,,,,z,0,0.9959,,,,,,,,0,148,148,42,1
,,,,,,,,,,,,,,,,,199969,18,2022-01-29_14h38.08.131,lexical_decision_task_DD_L6,2021.2.3,MacIntel,60.0024001,,,,,,,,,,,,1.0507,1,,,,,,,,,,,,,,,,,,,,,,,,0.017973972,-0.379430949,0,0,0,,,,,,,WRIST,C,z,y,./images/WRIST.png,,,,,,,z,1,1.0507,,,,,,,,0,149,149,109,1
,,,,,,,,,,,,,,,,,199969,18,2022-01-29_14h38.08.131,lexical_decision_task_DD_L6,2021.2.3,MacIntel,60.0024001,,,,,,,,,,,,1.1334,1,,,,,,,,,,,,,,,,,,,,,,,,0.017973972,-0.379430949,0,0,0,,,,,,,CANYON,C,z,y,./images/CANYON.png,,,,,,,z,1,1.1334,,,,,,,,0,150,150,118,1
,,,,,,,,,,,,,,,,,199969,18,2022-01-29_14h38.08.131,lexical_decision_task_DD_L6,2021.2.3,MacIntel,60.0024001,,,,,,,,,,,,0.8729,1,,,,,,,,,,,,,,,,,,,,,,,,0.017973972,-0.379430949,0,0,0,,,,,,,KIDNEY,LB,z,y,./images/KIDNEYLB.png,,,,,,,z,1,0.8729,,,,,,,,0,151,151,105,1
,,,,,,,,,,,,,,,,,199969,18,2022-01-29_14h38.08.131,lexical_decision_task_DD_L6,2021.2.3,MacIntel,60.0024001,,,,,,,,,,,,0.9296,0,,,,,,,,,,,,,,,,,,,,,,,,0.017973972,-0.379430949,0,0,0,,,,,,,STATUE,LB,m,y,./images/STATUELB.png,,,,,,,z,0,0.9296,,,,,,,,0,152,152,66,1
,,,,,,,,,,,,,,,,,199969,18,2022-01-29_14h38.08.131,lexical_decision_task_DD_L6,2021.2.3,MacIntel,60.0024001,,,,,,,,,,,,3.1228,1,,,,,,,,,,,,,,,,,,,,,,,,0.017973972,-0.379430949,0,0,0,,,,,,,MONKEY,LB,m,y,./images/MONKEYLB.png,,,,,,,m,1,3.1228,,,,,,,,0,153,153,45,1
,,,,,,,,,,,,,,,,,199969,18,2022-01-29_14h38.08.131,lexical_decision_task_DD_L6,2021.2.3,MacIntel,60.0024001,,,,,,,,,,,,0.7474,1,,,,,,,,,,,,,,,,,,,,,,,,0.017973972,-0.379430949,0,0,0,,,,,,,JUNGLE,HB,z,y,./images/JUNGLEHB.png,,,,,,,z,1,0.7474,,,,,,,,0,154,154,167,1
,,,,,,,,,,,,,,,,,199969,18,2022-01-29_14h38.08.131,lexical_decision_task_DD_L6,2021.2.3,MacIntel,60.0024001,,,,,,,,,,,,1.0508,1,,,,,,,,,,,,,,,,,,,,,,,,0.017973972,-0.379430949,0,0,0,,,,,,,GARDEN,C,m,y,./images/GARDEN.png,,,,,,,m,1,1.0508,,,,,,,,0,155,155,10,1
,,,,,,,,,,,,,,,,,199969,18,2022-01-29_14h38.08.131,lexical_decision_task_DD_L6,2021.2.3,MacIntel,60.0024001,,,,,,,,,,,,0.9989,1,,,,,,,,,,,,,,,,,,,,,,,,0.017973972,-0.379430949,0,0,0,,,,,,,STRING,HB,z,y,./images/STRINGHB.png,,,,,,,z,1,0.9989,,,,,,,,0,156,156,125,1
,,,,,,,,,,,,,,,,,199969,18,2022-01-29_14h38.08.131,lexical_decision_task_DD_L6,2021.2.3,MacIntel,60.0024001,,,,,,,,,,,,0.9322,1,,,,,,,,,,,,,,,,,,,,,,,,0.017973972,-0.379430949,0,0,0,,,,,,,FARMER,HB,z,y,./images/FARMERHB.png,,,,,,,z,1,0.9322,,,,,,,,0,157,157,149,1
,,,,,,,,,,,,,,,,,199969,18,2022-01-29_14h38.08.131,lexical_decision_task_DD_L6,2021.2.3,MacIntel,60.0024001,,,,,,,,,,,,1.2458,1,,,,,,,,,,,,,,,,,,,,,,,,0.017973972,-0.379430949,0,0,0,,,,,,,CLOTH,HB,m,y,./images/CLOTHHB.png,,,,,,,m,1,1.2458,,,,,,,,0,158,158,23,1
,,,,,,,,,,,,,,,,,199969,18,2022-01-29_14h38.08.131,lexical_decision_task_DD_L6,2021.2.3,MacIntel,60.0024001,,,,,,,,,,,,0.9861,1,,,,,,,,,,,,,,,,,,,,,,,,0.017973972,-0.379430949,0,0,0,,,,,,,QUILL,C,z,y,./images/QUILL.png,,,,,,,z,1,0.9861,,,,,,,,0,159,159,115,1
,,,,,,,,,,,,,,,,,199969,18,2022-01-29_14h38.08.131,lexical_decision_task_DD_L6,2021.2.3,MacIntel,60.0024001,,,,,,,,,,,,0.9149,0,,,,,,,,,,,,,,,,,,,,,,,,0.017973972,-0.379430949,0,0,0,,,,,,,PLANET,HB,m,y,./images/PLANETHB.png,,,,,,,z,0,0.9149,,,,,,,,0,160,160,80,1
,,,,,,,,,,,,,,,,,199969,18,2022-01-29_14h38.08.131,lexical_decision_task_DD_L6,2021.2.3,MacIntel,60.0024001,,,,,,,,,,,,1.3337,0,,,,,,,,,,,,,,,,,,,,,,,,0.017973972,-0.379430949,0,0,0,,,,,,,DRILL,LB,m,y,./images/DRILLLB.png,,,,,,,z,0,1.3337,,,,,,,,0,161,161,81,1
,,,,,,,,,,,,,,,,,199969,18,2022-01-29_14h38.08.131,lexical_decision_task_DD_L6,2021.2.3,MacIntel,60.0024001,,,,,,,,,,,,1.4289,0,,,,,,,,,,,,,,,,,,,,,,,,0.017973972,-0.379430949,0,0,0,,,,,,,BRUSH,HB,m,y,./images/BRUSHHB.png,,,,,,,z,0,1.4289,,,,,,,,0,162,162,59,1
,,,,,,,,,,,,,,,,,199969,18,2022-01-29_14h38.08.131,lexical_decision_task_DD_L6,2021.2.3,MacIntel,60.0024001,,,,,,,,,,,,1.114,0,,,,,,,,,,,,,,,,,,,,,,,,0.017973972,-0.379430949,0,0,0,,,,,,,WAGON,C,m,y,./images/WAGON.png,,,,,,,z,0,1.114,,,,,,,,0,163,163,7,1
,,,,,,,,,,,,,,,,,199969,18,2022-01-29_14h38.08.131,lexical_decision_task_DD_L6,2021.2.3,MacIntel,60.0024001,,,,,,,,,,,,1.4247,1,,,,,,,,,,,,,,,,,,,,,,,,0.017973972,-0.379430949,0,0,0,,,,,,,SCREW,LB,z,y,./images/SCREWLB.png,,,,,,,z,1,1.4247,,,,,,,,0,164,164,108,1
,,,,,,,,,,,,,,,,,199969,18,2022-01-29_14h38.08.131,lexical_decision_task_DD_L6,2021.2.3,MacIntel,60.0024001,,,,,,,,,,,,0.9491,1,,,,,,,,,,,,,,,,,,,,,,,,0.017973972,-0.379430949,0,0,0,,,,,,,CLOWN,C,m,y,./images/CLOWN.png,,,,,,,m,1,0.9491,,,,,,,,0,165,165,22,1
,,,,,,,,,,,,,,,,,199969,18,2022-01-29_14h38.08.131,lexical_decision_task_DD_L6,2021.2.3,MacIntel,60.0024001,,,,,,,,,,,,0.8161,1,,,,,,,,,,,,,,,,,,,,,,,,0.017973972,-0.379430949,0,0,0,,,,,,,TWINS,LB,z,y,./images/TWINSLB.png,,,,,,,z,1,0.8161,,,,,,,,0,166,166,144,1
,,,,,,,,,,,,,,,,,199969,18,2022-01-29_14h38.08.131,lexical_decision_task_DD_L6,2021.2.3,MacIntel,60.0024001,,,,,,,,,,,,1.3151,1,,,,,,,,,,,,,,,,,,,,,,,,0.017973972,-0.379430949,0,0,0,,,,,,,BURIAL,HB,z,y,./images/BURIALHB.png,,,,,,,z,1,1.3151,,,,,,,,0,167,167,143,1
