key_resp.keys,instr_done_touch.x,instr_done_touch.y,instr_done_touch.leftButton,instr_done_touch.midButton,instr_done_touch.rightButton,instr_done_touch.clicked_name,instruction_pages.thisRepN,instruction_pages.thisTrialN,instruction_pages.thisN,instruction_pages.thisIndex,instruction_pages.ran,pageN,phase,instruct_text,has_image,instruct_image,participant,age,date,expName,psychopyVersion,OS,frameRate,key_resp.rt,response.keys,response.corr,response.rt,touch_resp.x,touch_resp.y,touch_resp.leftButton,touch_resp.midButton,touch_resp.rightButton,touch_resp.time,touch_resp.clicked_name,rt,corr,practrials.thisRepN,practrials.thisTrialN,practrials.thisN,practrials.thisIndex,practrials.ran,TrialID,Target,corrAns,end_of_practice_trials_pages.thisRepN,end_of_practice_trials_pages.thisTrialN,end_of_practice_trials_pages.thisN,end_of_practice_trials_pages.thisIndex,end_of_practice_trials_pages.ran,key_resp_2.keys,key_resp_2.corr,key_resp_2.rt,targ_click.x,targ_click.y,targ_click.leftButton,targ_click.midButton,targ_click.rightButton,targ_click.time,targ_click.clicked_name,break_done_touch.x,break_done_touch.y,break_done_touch.leftButton,break_done_touch.midButton,break_done_touch.rightButton,break_done_keyboard.keys,maintrials.thisRepN,maintrials.thisTrialN,maintrials.thisN,maintrials.thisIndex,maintrials.ran,string,blur,study,lex,stim_path,break_done_keyboard.rt,test_instructions.thisRepN,test_instructions.thisTrialN,test_instructions.thisN,test_instructions.thisIndex,test_instructions.ran,key_resp_3.keys,key_resp_3.corr,key_resp_3.rt,test_click.x,test_click.y,test_click.leftButton,test_click.midButton,test_click.rightButton,test_click.time,test_click.clicked_name,test_phase.thisRepN,test_phase.thisTrialN,test_phase.thisN,test_phase.thisIndex,test_phase.ran
,0.13150689,-0.402515394,1,0,0,instr_done_button,0,0,0,0,1,1,instructions,"INSTRUCTIONS
At the start of each trial, look at the plus sign  (+) in the center of the screen.  This tells you that a trial is about to begin and where to look. Second, the plus sign will disappear and a string of letters will appear. Your task is to determine if the string of letters is a word or not. If the item is a word press the M key (on keyboard)  or touch the word button (phone/tablet).  If the item is not a word,  press the  Z key (on keyboard)  or touch the nonword button (on phone/tablet). 
Press the space bar or touch  continue.",0,,199957,18,2022-01-28_15h34.21.132,lexical_decision_task_DD_L2,2021.2.3,MacIntel,60.0024001,,,,,,,,,,,,,,,,,,,,,,,,,,,,,,,,,,,,,,,,,,,,,,,,,,,,,,,,,,,,,,,,,,,,,,,,,
space,0.054816691,-0.231588203,0,0,0,,0,1,1,1,1,2,instructions,"If your device has a keyboard, press the 'Z' key for nonwords and the 'M' key for words.





Press the space bar or touch the button below to continue.",0,keyboard-example.gif,199957,18,2022-01-28_15h34.21.132,lexical_decision_task_DD_L2,2021.2.3,MacIntel,60.0024001,8.1024,,,,,,,,,,,,,,,,,,,,,,,,,,,,,,,,,,,,,,,,,,,,,,,,,,,,,,,,,,,,,,,,,,,,,,,,
space,0.054816691,-0.231588203,0,0,0,,0,2,2,2,1,3,instructions,"If you are using a touchscreen only device, use the buttons on the screen. Do not use the mouse.





Press the space bar or touch the button below to continue.",0,touchscreen-example.gif,199957,18,2022-01-28_15h34.21.132,lexical_decision_task_DD_L2,2021.2.3,MacIntel,60.0024001,3.2503,,,,,,,,,,,,,,,,,,,,,,,,,,,,,,,,,,,,,,,,,,,,,,,,,,,,,,,,,,,,,,,,,,,,,,,,
space,0.054816691,-0.231588203,0,0,0,,0,3,3,3,1,4,instructions,"It is very important that you respond as quickly and accurately as possible, as each letter string will only be on the screen for two seconds. If you do not respond within this time, the message 'Too slow!' will be displayed and the experiment will progress to the next letter string. The first 20 trials will be practice trials and you will receive feedback on your answers. 

Press the space bar or touch the button below to start the practice trials.",0,,199957,18,2022-01-28_15h34.21.132,lexical_decision_task_DD_L2,2021.2.3,MacIntel,60.0024001,16.1149,,,,,,,,,,,,,,,,,,,,,,,,,,,,,,,,,,,,,,,,,,,,,,,,,,,,,,,,,,,,,,,,,,,,,,,,
,,,,,,,,,,,,,,,,,199957,18,2022-01-28_15h34.21.132,lexical_decision_task_DD_L2,2021.2.3,MacIntel,60.0024001,,m,1,1.9942,,,,,,,,1.9942,1,0,0,0,1,1,1001,ADJUST,m,,,,,,,,,,,,,,,,,,,,,,,,,,,,,,,,,,,,,,,,,,,,,,,,,,,,
,,,,,,,,,,,,,,,,,199957,18,2022-01-28_15h34.21.132,lexical_decision_task_DD_L2,2021.2.3,MacIntel,60.0024001,,z,1,1.0686,,,,,,,,1.0686,1,0,1,1,11,1,1001,RASHET,z,,,,,,,,,,,,,,,,,,,,,,,,,,,,,,,,,,,,,,,,,,,,,,,,,,,,
,,,,,,,,,,,,,,,,,199957,18,2022-01-28_15h34.21.132,lexical_decision_task_DD_L2,2021.2.3,MacIntel,60.0024001,,m,0,1.5238,,,,,,,,1.5238,0,0,2,2,12,1,1001,SPRINY,z,,,,,,,,,,,,,,,,,,,,,,,,,,,,,,,,,,,,,,,,,,,,,,,,,,,,
,,,,,,,,,,,,,,,,,199957,18,2022-01-28_15h34.21.132,lexical_decision_task_DD_L2,2021.2.3,MacIntel,60.0024001,,m,0,1.3442,,,,,,,,1.3442,0,0,3,3,10,1,1001,INLADE,z,,,,,,,,,,,,,,,,,,,,,,,,,,,,,,,,,,,,,,,,,,,,,,,,,,,,
,,,,,,,,,,,,,,,,,199957,18,2022-01-28_15h34.21.132,lexical_decision_task_DD_L2,2021.2.3,MacIntel,60.0024001,,m,1,1.0275,,,,,,,,1.0275,1,0,4,4,2,1,1001,ALMOND,m,,,,,,,,,,,,,,,,,,,,,,,,,,,,,,,,,,,,,,,,,,,,,,,,,,,,
,,,,,,,,,,,,,,,,,199957,18,2022-01-28_15h34.21.132,lexical_decision_task_DD_L2,2021.2.3,MacIntel,60.0024001,,m,1,0.9237,,,,,,,,0.9237,1,0,5,5,6,1,1001,ZOMBIE,m,,,,,,,,,,,,,,,,,,,,,,,,,,,,,,,,,,,,,,,,,,,,,,,,,,,,
,,,,,,,,,,,,,,,,,199957,18,2022-01-28_15h34.21.132,lexical_decision_task_DD_L2,2021.2.3,MacIntel,60.0024001,,m,1,1.2196,,,,,,,,1.2196,1,0,6,6,0,1,1001,UTOPIA,m,,,,,,,,,,,,,,,,,,,,,,,,,,,,,,,,,,,,,,,,,,,,,,,,,,,,
,,,,,,,,,,,,,,,,,199957,18,2022-01-28_15h34.21.132,lexical_decision_task_DD_L2,2021.2.3,MacIntel,60.0024001,,z,1,1.613,,,,,,,,1.613,1,0,7,7,8,1,1001,ASLERT,z,,,,,,,,,,,,,,,,,,,,,,,,,,,,,,,,,,,,,,,,,,,,,,,,,,,,
,,,,,,,,,,,,,,,,,199957,18,2022-01-28_15h34.21.132,lexical_decision_task_DD_L2,2021.2.3,MacIntel,60.0024001,,z,1,0.985,,,,,,,,0.985,1,0,8,8,14,1,1001,THRALE,z,,,,,,,,,,,,,,,,,,,,,,,,,,,,,,,,,,,,,,,,,,,,,,,,,,,,
,,,,,,,,,,,,,,,,,199957,18,2022-01-28_15h34.21.132,lexical_decision_task_DD_L2,2021.2.3,MacIntel,60.0024001,,z,1,1.2116,,,,,,,,1.2116,1,0,9,9,13,1,1001,ROUPET,z,,,,,,,,,,,,,,,,,,,,,,,,,,,,,,,,,,,,,,,,,,,,,,,,,,,,
,,,,,,,,,,,,,,,,,199957,18,2022-01-28_15h34.21.132,lexical_decision_task_DD_L2,2021.2.3,MacIntel,60.0024001,,m,1,0.6455,,,,,,,,0.6455,1,0,10,10,7,1,1001,VOLUME,m,,,,,,,,,,,,,,,,,,,,,,,,,,,,,,,,,,,,,,,,,,,,,,,,,,,,
,,,,,,,,,,,,,,,,,199957,18,2022-01-28_15h34.21.132,lexical_decision_task_DD_L2,2021.2.3,MacIntel,60.0024001,,m,1,0.6793,,,,,,,,0.6793,1,0,11,11,3,1,1001,MATRIX,m,,,,,,,,,,,,,,,,,,,,,,,,,,,,,,,,,,,,,,,,,,,,,,,,,,,,
,,,,,,,,,,,,,,,,,199957,18,2022-01-28_15h34.21.132,lexical_decision_task_DD_L2,2021.2.3,MacIntel,60.0024001,,z,1,0.7926,,,,,,,,0.7926,1,0,12,12,15,1,1001,WHAISE,z,,,,,,,,,,,,,,,,,,,,,,,,,,,,,,,,,,,,,,,,,,,,,,,,,,,,
,,,,,,,,,,,,,,,,,199957,18,2022-01-28_15h34.21.132,lexical_decision_task_DD_L2,2021.2.3,MacIntel,60.0024001,,z,1,1.3301,,,,,,,,1.3301,1,0,13,13,9,1,1001,FARINY,z,,,,,,,,,,,,,,,,,,,,,,,,,,,,,,,,,,,,,,,,,,,,,,,,,,,,
,,,,,,,,,,,,,,,,,199957,18,2022-01-28_15h34.21.132,lexical_decision_task_DD_L2,2021.2.3,MacIntel,60.0024001,,m,1,1.116,,,,,,,,1.116,1,0,14,14,5,1,1001,OBTAIN,m,,,,,,,,,,,,,,,,,,,,,,,,,,,,,,,,,,,,,,,,,,,,,,,,,,,,
,,,,,,,,,,,,,,,,,199957,18,2022-01-28_15h34.21.132,lexical_decision_task_DD_L2,2021.2.3,MacIntel,60.0024001,,m,1,0.8043,,,,,,,,0.8043,1,0,15,15,4,1,1001,SQUEAK,m,,,,,,,,,,,,,,,,,,,,,,,,,,,,,,,,,,,,,,,,,,,,,,,,,,,,
,0.034766981,-0.352408719,1,0,0,instr_done_button,,,,,,1,end_of_practice,"You have completed the practice trials. During the experimental trials, you will not receive feedback. 
Before you begin, please ensure that you are in a comfortable and quiet location and will not be disturbed for about 15 minutes, as we cannot use your data if you do not complete all the trials. 
 When you are ready to start the experimental trials, please press space or touch the button below.",,,199957,18,2022-01-28_15h34.21.132,lexical_decision_task_DD_L2,2021.2.3,MacIntel,60.0024001,,,,,,,,,,,,,,,,,,,,,,0,0,0,0,1,,,,,,,,,,,,,,,,,,,,,,,,,,,,,,,,,,,,,,,,,,,,,,,
,,,,,,,,,,,,,,,,,199957,18,2022-01-28_15h34.21.132,lexical_decision_task_DD_L2,2021.2.3,MacIntel,60.0024001,,,,,,,,,,,,1.532,1,,,,,,,,,,,,,,z,1,1.532,,,,,,,,0.062096761,-0.215111016,0,0,0,,0,0,0,104,1,GITTY,LB,old,z,./images/GITTYLB.png,,,,,,,,,,,,,,,,,,,,,
,,,,,,,,,,,,,,,,,199957,18,2022-01-28_15h34.21.132,lexical_decision_task_DD_L2,2021.2.3,MacIntel,60.0024001,,,,,,,,,,,,1.1438,1,,,,,,,,,,,,,,z,1,1.1438,,,,,,,,0.062096761,-0.215111016,0,0,0,,0,1,1,140,1,DOVET,LB,old,z,./images/DOVETLB.png,,,,,,,,,,,,,,,,,,,,,
,,,,,,,,,,,,,,,,,199957,18,2022-01-28_15h34.21.132,lexical_decision_task_DD_L2,2021.2.3,MacIntel,60.0024001,,,,,,,,,,,,0.9735,1,,,,,,,,,,,,,,z,1,0.9735,,,,,,,,0.062096761,-0.215111016,0,0,0,,0,2,2,153,1,CLUPS,C,old,z,./images/CLUPS.png,,,,,,,,,,,,,,,,,,,,,
,,,,,,,,,,,,,,,,,199957,18,2022-01-28_15h34.21.132,lexical_decision_task_DD_L2,2021.2.3,MacIntel,60.0024001,,,,,,,,,,,,2.63,1,,,,,,,,,,,,,,z,1,2.63,,,,,,,,0.062096761,-0.215111016,0,0,0,,0,3,3,148,1,JOMS,HB,old,z,./images/JOMSHB.png,,,,,,,,,,,,,,,,,,,,,
,,,,,,,,,,,,,,,,,199957,18,2022-01-28_15h34.21.132,lexical_decision_task_DD_L2,2021.2.3,MacIntel,60.0024001,,,,,,,,,,,,1.2292,1,,,,,,,,,,,,,,z,1,1.2292,,,,,,,,0.062096761,-0.215111016,0,0,0,,0,4,4,159,1,CUDDY,C,old,z,./images/CUDDY.png,,,,,,,,,,,,,,,,,,,,,
,,,,,,,,,,,,,,,,,199957,18,2022-01-28_15h34.21.132,lexical_decision_task_DD_L2,2021.2.3,MacIntel,60.0024001,,,,,,,,,,,,0.7458,1,,,,,,,,,,,,,,z,1,0.7458,,,,,,,,0.062096761,-0.215111016,0,0,0,,0,5,5,126,1,GUELS,C,old,z,./images/GUELS.png,,,,,,,,,,,,,,,,,,,,,
,,,,,,,,,,,,,,,,,199957,18,2022-01-28_15h34.21.132,lexical_decision_task_DD_L2,2021.2.3,MacIntel,60.0024001,,,,,,,,,,,,0.9678,1,,,,,,,,,,,,,,z,1,0.9678,,,,,,,,0.062096761,-0.215111016,0,0,0,,0,6,6,117,1,STEEG,C,old,z,./images/STEEG.png,,,,,,,,,,,,,,,,,,,,,
,,,,,,,,,,,,,,,,,199957,18,2022-01-28_15h34.21.132,lexical_decision_task_DD_L2,2021.2.3,MacIntel,60.0024001,,,,,,,,,,,,4.1092,1,,,,,,,,,,,,,,m,1,4.1092,,,,,,,,0.062096761,-0.215111016,0,0,0,,0,7,7,33,1,MAGGOT,HB,old,m,./images/MAGGOTHB.png,,,,,,,,,,,,,,,,,,,,,
,,,,,,,,,,,,,,,,,199957,18,2022-01-28_15h34.21.132,lexical_decision_task_DD_L2,2021.2.3,MacIntel,60.0024001,,,,,,,,,,,,0.6943,1,,,,,,,,,,,,,,m,1,0.6943,,,,,,,,0.062096761,-0.215111016,0,0,0,,0,8,8,79,1,CRUST,LB,old,m,./images/CRUSTLB.png,,,,,,,,,,,,,,,,,,,,,
,,,,,,,,,,,,,,,,,199957,18,2022-01-28_15h34.21.132,lexical_decision_task_DD_L2,2021.2.3,MacIntel,60.0024001,,,,,,,,,,,,0.6109,1,,,,,,,,,,,,,,m,1,0.6109,,,,,,,,0.062096761,-0.215111016,0,0,0,,0,9,9,6,1,SQUARE,HB,old,m,./images/SQUAREHB.png,,,,,,,,,,,,,,,,,,,,,
,,,,,,,,,,,,,,,,,199957,18,2022-01-28_15h34.21.132,lexical_decision_task_DD_L2,2021.2.3,MacIntel,60.0024001,,,,,,,,,,,,0.9093,1,,,,,,,,,,,,,,z,1,0.9093,,,,,,,,0.062096761,-0.215111016,0,0,0,,0,10,10,120,1,RINED,C,old,z,./images/RINED.png,,,,,,,,,,,,,,,,,,,,,
,,,,,,,,,,,,,,,,,199957,18,2022-01-28_15h34.21.132,lexical_decision_task_DD_L2,2021.2.3,MacIntel,60.0024001,,,,,,,,,,,,0.9963,1,,,,,,,,,,,,,,z,1,0.9963,,,,,,,,0.062096761,-0.215111016,0,0,0,,0,11,11,152,1,FRAIN,LB,old,z,./images/FRAINLB.png,,,,,,,,,,,,,,,,,,,,,
,,,,,,,,,,,,,,,,,199957,18,2022-01-28_15h34.21.132,lexical_decision_task_DD_L2,2021.2.3,MacIntel,60.0024001,,,,,,,,,,,,0.847,1,,,,,,,,,,,,,,m,1,0.847,,,,,,,,0.062096761,-0.215111016,0,0,0,,0,12,12,52,1,BANNER,LB,old,m,./images/BANNERLB.png,,,,,,,,,,,,,,,,,,,,,
,,,,,,,,,,,,,,,,,199957,18,2022-01-28_15h34.21.132,lexical_decision_task_DD_L2,2021.2.3,MacIntel,60.0024001,,,,,,,,,,,,0.6522,1,,,,,,,,,,,,,,m,1,0.6522,,,,,,,,0.062096761,-0.215111016,0,0,0,,0,13,13,60,1,TWINS,HB,old,m,./images/TWINSHB.png,,,,,,,,,,,,,,,,,,,,,
,,,,,,,,,,,,,,,,,199957,18,2022-01-28_15h34.21.132,lexical_decision_task_DD_L2,2021.2.3,MacIntel,60.0024001,,,,,,,,,,,,0.8283,1,,,,,,,,,,,,,,z,1,0.8283,,,,,,,,0.062096761,-0.215111016,0,0,0,,0,14,14,89,1,DRIEK,LB,old,z,./images/DRIEKLB.png,,,,,,,,,,,,,,,,,,,,,
,,,,,,,,,,,,,,,,,199957,18,2022-01-28_15h34.21.132,lexical_decision_task_DD_L2,2021.2.3,MacIntel,60.0024001,,,,,,,,,,,,0.8819,1,,,,,,,,,,,,,,z,1,0.8819,,,,,,,,0.062096761,-0.215111016,0,0,0,,0,15,15,129,1,PRANS,C,old,z,./images/PRANS.png,,,,,,,,,,,,,,,,,,,,,
,,,,,,,,,,,,,,,,,199957,18,2022-01-28_15h34.21.132,lexical_decision_task_DD_L2,2021.2.3,MacIntel,60.0024001,,,,,,,,,,,,0.7775,1,,,,,,,,,,,,,,m,1,0.7775,,,,,,,,0.062096761,-0.215111016,0,0,0,,0,16,16,1,1,PLANK,LB,old,m,./images/PLANKLB.png,,,,,,,,,,,,,,,,,,,,,
,,,,,,,,,,,,,,,,,199957,18,2022-01-28_15h34.21.132,lexical_decision_task_DD_L2,2021.2.3,MacIntel,60.0024001,,,,,,,,,,,,0.8164,1,,,,,,,,,,,,,,m,1,0.8164,,,,,,,,0.062096761,-0.215111016,0,0,0,,0,17,17,32,1,BARREL,C,old,m,./images/BARREL.png,,,,,,,,,,,,,,,,,,,,,
,,,,,,,,,,,,,,,,,199957,18,2022-01-28_15h34.21.132,lexical_decision_task_DD_L2,2021.2.3,MacIntel,60.0024001,,,,,,,,,,,,2.617,1,,,,,,,,,,,,,,m,1,2.617,,,,,,,,0.062096761,-0.215111016,0,0,0,,0,18,18,17,1,SKIING,C,old,m,./images/SKIING.png,,,,,,,,,,,,,,,,,,,,,
,,,,,,,,,,,,,,,,,199957,18,2022-01-28_15h34.21.132,lexical_decision_task_DD_L2,2021.2.3,MacIntel,60.0024001,,,,,,,,,,,,0.5448,1,,,,,,,,,,,,,,m,1,0.5448,,,,,,,,0.062096761,-0.215111016,0,0,0,,0,19,19,83,1,JUNGLE,C,old,m,./images/JUNGLE.png,,,,,,,,,,,,,,,,,,,,,
,,,,,,,,,,,,,,,,,199957,18,2022-01-28_15h34.21.132,lexical_decision_task_DD_L2,2021.2.3,MacIntel,60.0024001,,,,,,,,,,,,0.8119,1,,,,,,,,,,,,,,m,1,0.8119,,,,,,,,0.062096761,-0.215111016,0,0,0,,0,20,20,11,1,BONNET,C,old,m,./images/BONNET.png,,,,,,,,,,,,,,,,,,,,,
,,,,,,,,,,,,,,,,,199957,18,2022-01-28_15h34.21.132,lexical_decision_task_DD_L2,2021.2.3,MacIntel,60.0024001,,,,,,,,,,,,0.6263,1,,,,,,,,,,,,,,m,1,0.6263,,,,,,,,0.062096761,-0.215111016,0,0,0,,0,21,21,62,1,PURSE,C,old,m,./images/PURSE.png,,,,,,,,,,,,,,,,,,,,,
,,,,,,,,,,,,,,,,,199957,18,2022-01-28_15h34.21.132,lexical_decision_task_DD_L2,2021.2.3,MacIntel,60.0024001,,,,,,,,,,,,0.7455,1,,,,,,,,,,,,,,m,1,0.7455,,,,,,,,0.062096761,-0.215111016,0,0,0,,0,22,22,15,1,GREASE,HB,old,m,./images/GREASEHB.png,,,,,,,,,,,,,,,,,,,,,
,,,,,,,,,,,,,,,,,199957,18,2022-01-28_15h34.21.132,lexical_decision_task_DD_L2,2021.2.3,MacIntel,60.0024001,,,,,,,,,,,,0.5278,1,,,,,,,,,,,,,,m,1,0.5278,,,,,,,,0.062096761,-0.215111016,0,0,0,,0,23,23,7,1,PAINT,LB,old,m,./images/PAINTLB.png,,,,,,,,,,,,,,,,,,,,,
,,,,,,,,,,,,,,,,,199957,18,2022-01-28_15h34.21.132,lexical_decision_task_DD_L2,2021.2.3,MacIntel,60.0024001,,,,,,,,,,,,0.9433,1,,,,,,,,,,,,,,z,1,0.9433,,,,,,,,0.062096761,-0.215111016,0,0,0,,0,24,24,150,1,NOOLS,C,old,z,./images/NOOLS.png,,,,,,,,,,,,,,,,,,,,,
,,,,,,,,,,,,,,,,,199957,18,2022-01-28_15h34.21.132,lexical_decision_task_DD_L2,2021.2.3,MacIntel,60.0024001,,,,,,,,,,,,0.6625,1,,,,,,,,,,,,,,m,1,0.6625,,,,,,,,0.062096761,-0.215111016,0,0,0,,0,25,25,10,1,BELLY,LB,old,m,./images/BELLYLB.png,,,,,,,,,,,,,,,,,,,,,
,,,,,,,,,,,,,,,,,199957,18,2022-01-28_15h34.21.132,lexical_decision_task_DD_L2,2021.2.3,MacIntel,60.0024001,,,,,,,,,,,,0.584,1,,,,,,,,,,,,,,m,1,0.584,,,,,,,,0.062096761,-0.215111016,0,0,0,,0,26,26,28,1,FALCON,LB,old,m,./images/FALCONLB.png,,,,,,,,,,,,,,,,,,,,,
,,,,,,,,,,,,,,,,,199957,18,2022-01-28_15h34.21.132,lexical_decision_task_DD_L2,2021.2.3,MacIntel,60.0024001,,,,,,,,,,,,0.7648,1,,,,,,,,,,,,,,z,1,0.7648,,,,,,,,0.062096761,-0.215111016,0,0,0,,0,27,27,122,1,BLOOT,LB,old,z,./images/BLOOTLB.png,,,,,,,,,,,,,,,,,,,,,
,,,,,,,,,,,,,,,,,199957,18,2022-01-28_15h34.21.132,lexical_decision_task_DD_L2,2021.2.3,MacIntel,60.0024001,,,,,,,,,,,,0.6109,1,,,,,,,,,,,,,,m,1,0.6109,,,,,,,,0.062096761,-0.215111016,0,0,0,,0,28,28,61,1,CANDLE,LB,old,m,./images/CANDLELB.png,,,,,,,,,,,,,,,,,,,,,
,,,,,,,,,,,,,,,,,199957,18,2022-01-28_15h34.21.132,lexical_decision_task_DD_L2,2021.2.3,MacIntel,60.0024001,,,,,,,,,,,,0.6255,1,,,,,,,,,,,,,,m,1,0.6255,,,,,,,,0.062096761,-0.215111016,0,0,0,,0,29,29,4,1,MUSCLE,LB,old,m,./images/MUSCLELB.png,,,,,,,,,,,,,,,,,,,,,
,,,,,,,,,,,,,,,,,199957,18,2022-01-28_15h34.21.132,lexical_decision_task_DD_L2,2021.2.3,MacIntel,60.0024001,,,,,,,,,,,,1.7816,1,,,,,,,,,,,,,,z,1,1.7816,,,,,,,,0.062096761,-0.215111016,0,0,0,,0,30,30,100,1,DRIBS,HB,old,z,./images/DRIBSHB.png,,,,,,,,,,,,,,,,,,,,,
,,,,,,,,,,,,,,,,,199957,18,2022-01-28_15h34.21.132,lexical_decision_task_DD_L2,2021.2.3,MacIntel,60.0024001,,,,,,,,,,,,1.5444,1,,,,,,,,,,,,,,z,1,1.5444,,,,,,,,0.062096761,-0.215111016,0,0,0,,0,31,31,154,1,THINT,HB,old,z,./images/THINTHB.png,,,,,,,,,,,,,,,,,,,,,
,,,,,,,,,,,,,,,,,199957,18,2022-01-28_15h34.21.132,lexical_decision_task_DD_L2,2021.2.3,MacIntel,60.0024001,,,,,,,,,,,,0.9331,1,,,,,,,,,,,,,,z,1,0.9331,,,,,,,,0.062096761,-0.215111016,0,0,0,,0,32,32,105,1,MOKER,C,old,z,./images/MOKER.png,,,,,,,,,,,,,,,,,,,,,
,,,,,,,,,,,,,,,,,199957,18,2022-01-28_15h34.21.132,lexical_decision_task_DD_L2,2021.2.3,MacIntel,60.0024001,,,,,,,,,,,,2.2426,1,,,,,,,,,,,,,,z,1,2.2426,,,,,,,,0.062096761,-0.215111016,0,0,0,,0,33,33,85,1,CHULK,HB,old,z,./images/CHULKHB.png,,,,,,,,,,,,,,,,,,,,,
,,,,,,,,,,,,,,,,,199957,18,2022-01-28_15h34.21.132,lexical_decision_task_DD_L2,2021.2.3,MacIntel,60.0024001,,,,,,,,,,,,0.6267,1,,,,,,,,,,,,,,m,1,0.6267,,,,,,,,0.062096761,-0.215111016,0,0,0,,0,34,34,47,1,BERRY,C,old,m,./images/BERRY.png,,,,,,,,,,,,,,,,,,,,,
,,,,,,,,,,,,,,,,,199957,18,2022-01-28_15h34.21.132,lexical_decision_task_DD_L2,2021.2.3,MacIntel,60.0024001,,,,,,,,,,,,0.9244,1,,,,,,,,,,,,,,z,1,0.9244,,,,,,,,0.062096761,-0.215111016,0,0,0,,0,35,35,114,1,RIKES,C,old,z,./images/RIKES.png,,,,,,,,,,,,,,,,,,,,,
,,,,,,,,,,,,,,,,,199957,18,2022-01-28_15h34.21.132,lexical_decision_task_DD_L2,2021.2.3,MacIntel,60.0024001,,,,,,,,,,,,1.0786,1,,,,,,,,,,,,,,z,1,1.0786,,,,,,,,0.062096761,-0.215111016,0,0,0,,0,36,36,92,1,PAIMS,LB,old,z,./images/PAIMSLB.png,,,,,,,,,,,,,,,,,,,,,
,,,,,,,,,,,,,,,,,199957,18,2022-01-28_15h34.21.132,lexical_decision_task_DD_L2,2021.2.3,MacIntel,60.0024001,,,,,,,,,,,,0.7413,1,,,,,,,,,,,,,,z,1,0.7413,,,,,,,,0.062096761,-0.215111016,0,0,0,,0,37,37,135,1,JOODY,C,old,z,./images/JOODY.png,,,,,,,,,,,,,,,,,,,,,
,,,,,,,,,,,,,,,,,199957,18,2022-01-28_15h34.21.132,lexical_decision_task_DD_L2,2021.2.3,MacIntel,60.0024001,,,,,,,,,,,,0.8781,1,,,,,,,,,,,,,,m,1,0.8781,,,,,,,,0.062096761,-0.215111016,0,0,0,,0,38,38,71,1,PIMPLE,C,old,m,./images/PIMPLE.png,,,,,,,,,,,,,,,,,,,,,
,,,,,,,,,,,,,,,,,199957,18,2022-01-28_15h34.21.132,lexical_decision_task_DD_L2,2021.2.3,MacIntel,60.0024001,,,,,,,,,,,,0.6435,1,,,,,,,,,,,,,,m,1,0.6435,,,,,,,,0.062096761,-0.215111016,0,0,0,,0,39,39,18,1,JAGUAR,HB,old,m,./images/JAGUARHB.png,,,,,,,,,,,,,,,,,,,,,
,,,,,,,,,,,,,,,,,199957,18,2022-01-28_15h34.21.132,lexical_decision_task_DD_L2,2021.2.3,MacIntel,60.0024001,,,,,,,,,,,,2.2176,1,,,,,,,,,,,,,,z,1,2.2176,,,,,,,,0.062096761,-0.215111016,0,0,0,,0,40,40,139,1,BLEAR,HB,old,z,./images/BLEARHB.png,,,,,,,,,,,,,,,,,,,,,
,,,,,,,,,,,,,,,,,199957,18,2022-01-28_15h34.21.132,lexical_decision_task_DD_L2,2021.2.3,MacIntel,60.0024001,,,,,,,,,,,,1.5813,1,,,,,,,,,,,,,,z,1,1.5813,,,,,,,,0.062096761,-0.215111016,0,0,0,space,0,41,41,97,1,CHIDS,HB,old,z,./images/CHIDSHB.png,4.6804,,,,,,,,,,,,,,,,,,,,
,,,,,,,,,,,,,,,,,199957,18,2022-01-28_15h34.21.132,lexical_decision_task_DD_L2,2021.2.3,MacIntel,60.0024001,,,,,,,,,,,,0.8617,1,,,,,,,,,,,,,,m,1,0.8617,,,,,,,,0.062096761,-0.215111016,0,0,0,,0,42,42,65,1,FARMER,C,old,m,./images/FARMER.png,,,,,,,,,,,,,,,,,,,,,
,,,,,,,,,,,,,,,,,199957,18,2022-01-28_15h34.21.132,lexical_decision_task_DD_L2,2021.2.3,MacIntel,60.0024001,,,,,,,,,,,,0.9071,1,,,,,,,,,,,,,,z,1,0.9071,,,,,,,,0.062096761,-0.215111016,0,0,0,,0,43,43,167,1,ZONET,LB,old,z,./images/ZONETLB.png,,,,,,,,,,,,,,,,,,,,,
,,,,,,,,,,,,,,,,,199957,18,2022-01-28_15h34.21.132,lexical_decision_task_DD_L2,2021.2.3,MacIntel,60.0024001,,,,,,,,,,,,1.4985,0,,,,,,,,,,,,,,m,0,1.4985,,,,,,,,0.062096761,-0.215111016,0,0,0,,0,44,44,110,1,CRUNK,LB,old,z,./images/CRUNKLB.png,,,,,,,,,,,,,,,,,,,,,
,,,,,,,,,,,,,,,,,199957,18,2022-01-28_15h34.21.132,lexical_decision_task_DD_L2,2021.2.3,MacIntel,60.0024001,,,,,,,,,,,,2.0463,1,,,,,,,,,,,,,,z,1,2.0463,,,,,,,,0.062096761,-0.215111016,0,0,0,,0,45,45,157,1,INLER,HB,old,z,./images/INLERHB.png,,,,,,,,,,,,,,,,,,,,,
,,,,,,,,,,,,,,,,,199957,18,2022-01-28_15h34.21.132,lexical_decision_task_DD_L2,2021.2.3,MacIntel,60.0024001,,,,,,,,,,,,0.8095,1,,,,,,,,,,,,,,m,1,0.8095,,,,,,,,0.062096761,-0.215111016,0,0,0,,0,46,46,44,1,LIZARD,C,old,m,./images/LIZARD.png,,,,,,,,,,,,,,,,,,,,,
,,,,,,,,,,,,,,,,,199957,18,2022-01-28_15h34.21.132,lexical_decision_task_DD_L2,2021.2.3,MacIntel,60.0024001,,,,,,,,,,,,0.9596,1,,,,,,,,,,,,,,m,1,0.9596,,,,,,,,0.062096761,-0.215111016,0,0,0,,0,47,47,14,1,PICKLE,C,old,m,./images/PICKLE.png,,,,,,,,,,,,,,,,,,,,,
,,,,,,,,,,,,,,,,,199957,18,2022-01-28_15h34.21.132,lexical_decision_task_DD_L2,2021.2.3,MacIntel,60.0024001,,,,,,,,,,,,1.3262,1,,,,,,,,,,,,,,m,1,1.3262,,,,,,,,0.062096761,-0.215111016,0,0,0,,0,48,48,31,1,QUILL,LB,old,m,./images/QUILLLB.png,,,,,,,,,,,,,,,,,,,,,
,,,,,,,,,,,,,,,,,199957,18,2022-01-28_15h34.21.132,lexical_decision_task_DD_L2,2021.2.3,MacIntel,60.0024001,,,,,,,,,,,,3.1925,0,,,,,,,,,,,,,,m,0,3.1925,,,,,,,,0.062096761,-0.215111016,0,0,0,,0,49,49,133,1,POWDY,HB,old,z,./images/POWDYHB.png,,,,,,,,,,,,,,,,,,,,,
,,,,,,,,,,,,,,,,,199957,18,2022-01-28_15h34.21.132,lexical_decision_task_DD_L2,2021.2.3,MacIntel,60.0024001,,,,,,,,,,,,0.6167,1,,,,,,,,,,,,,,m,1,0.6167,,,,,,,,0.062096761,-0.215111016,0,0,0,,0,50,50,0,1,TOMATO,HB,old,m,./images/TOMATOHB.png,,,,,,,,,,,,,,,,,,,,,
,,,,,,,,,,,,,,,,,199957,18,2022-01-28_15h34.21.132,lexical_decision_task_DD_L2,2021.2.3,MacIntel,60.0024001,,,,,,,,,,,,0.8289,1,,,,,,,,,,,,,,z,1,0.8289,,,,,,,,0.062096761,-0.215111016,0,0,0,,0,51,51,162,1,LEICH,C,old,z,./images/LEICH.png,,,,,,,,,,,,,,,,,,,,,
,,,,,,,,,,,,,,,,,199957,18,2022-01-28_15h34.21.132,lexical_decision_task_DD_L2,2021.2.3,MacIntel,60.0024001,,,,,,,,,,,,1.4796,1,,,,,,,,,,,,,,z,1,1.4796,,,,,,,,0.062096761,-0.215111016,0,0,0,,0,52,52,143,1,MONGS,LB,old,z,./images/MONGSLB.png,,,,,,,,,,,,,,,,,,,,,
,,,,,,,,,,,,,,,,,199957,18,2022-01-28_15h34.21.132,lexical_decision_task_DD_L2,2021.2.3,MacIntel,60.0024001,,,,,,,,,,,,1.0441,1,,,,,,,,,,,,,,z,1,1.0441,,,,,,,,0.062096761,-0.215111016,0,0,0,,0,53,53,141,1,PLEET,C,old,z,./images/PLEET.png,,,,,,,,,,,,,,,,,,,,,
,,,,,,,,,,,,,,,,,199957,18,2022-01-28_15h34.21.132,lexical_decision_task_DD_L2,2021.2.3,MacIntel,60.0024001,,,,,,,,,,,,0.7287,1,,,,,,,,,,,,,,m,1,0.7287,,,,,,,,0.062096761,-0.215111016,0,0,0,,0,54,54,9,1,RHINO,HB,old,m,./images/RHINOHB.png,,,,,,,,,,,,,,,,,,,,,
,,,,,,,,,,,,,,,,,199957,18,2022-01-28_15h34.21.132,lexical_decision_task_DD_L2,2021.2.3,MacIntel,60.0024001,,,,,,,,,,,,0.7286,1,,,,,,,,,,,,,,m,1,0.7286,,,,,,,,0.062096761,-0.215111016,0,0,0,,0,55,55,73,1,SNACK,LB,old,m,./images/SNACKLB.png,,,,,,,,,,,,,,,,,,,,,
,,,,,,,,,,,,,,,,,199957,18,2022-01-28_15h34.21.132,lexical_decision_task_DD_L2,2021.2.3,MacIntel,60.0024001,,,,,,,,,,,,1.1456,1,,,,,,,,,,,,,,z,1,1.1456,,,,,,,,0.062096761,-0.215111016,0,0,0,,0,56,56,124,1,TUNCH,HB,old,z,./images/TUNCHHB.png,,,,,,,,,,,,,,,,,,,,,
,,,,,,,,,,,,,,,,,199957,18,2022-01-28_15h34.21.132,lexical_decision_task_DD_L2,2021.2.3,MacIntel,60.0024001,,,,,,,,,,,,0.7333,1,,,,,,,,,,,,,,z,1,0.7333,,,,,,,,0.062096761,-0.215111016,0,0,0,,0,57,57,138,1,PLICE,C,old,z,./images/PLICE.png,,,,,,,,,,,,,,,,,,,,,
,,,,,,,,,,,,,,,,,199957,18,2022-01-28_15h34.21.132,lexical_decision_task_DD_L2,2021.2.3,MacIntel,60.0024001,,,,,,,,,,,,1.2126,1,,,,,,,,,,,,,,z,1,1.2126,,,,,,,,0.062096761,-0.215111016,0,0,0,,0,58,58,151,1,TINKY,HB,old,z,./images/TINKYHB.png,,,,,,,,,,,,,,,,,,,,,
,,,,,,,,,,,,,,,,,199957,18,2022-01-28_15h34.21.132,lexical_decision_task_DD_L2,2021.2.3,MacIntel,60.0024001,,,,,,,,,,,,0.6736,1,,,,,,,,,,,,,,m,1,0.6736,,,,,,,,0.062096761,-0.215111016,0,0,0,,0,59,59,59,1,BURIAL,C,old,m,./images/BURIAL.png,,,,,,,,,,,,,,,,,,,,,
,,,,,,,,,,,,,,,,,199957,18,2022-01-28_15h34.21.132,lexical_decision_task_DD_L2,2021.2.3,MacIntel,60.0024001,,,,,,,,,,,,0.8335,1,,,,,,,,,,,,,,m,1,0.8335,,,,,,,,0.062096761,-0.215111016,0,0,0,,0,60,60,21,1,KIDNEY,HB,old,m,./images/KIDNEYHB.png,,,,,,,,,,,,,,,,,,,,,
,,,,,,,,,,,,,,,,,199957,18,2022-01-28_15h34.21.132,lexical_decision_task_DD_L2,2021.2.3,MacIntel,60.0024001,,,,,,,,,,,,0.9913,1,,,,,,,,,,,,,,z,1,0.9913,,,,,,,,0.062096761,-0.215111016,0,0,0,,0,61,61,107,1,FASKS,LB,old,z,./images/FASKSLB.png,,,,,,,,,,,,,,,,,,,,,
,,,,,,,,,,,,,,,,,199957,18,2022-01-28_15h34.21.132,lexical_decision_task_DD_L2,2021.2.3,MacIntel,60.0024001,,,,,,,,,,,,1.0496,1,,,,,,,,,,,,,,z,1,1.0496,,,,,,,,0.062096761,-0.215111016,0,0,0,,0,62,62,86,1,AIFED,LB,old,z,./images/AIFEDLB.png,,,,,,,,,,,,,,,,,,,,,
,,,,,,,,,,,,,,,,,199957,18,2022-01-28_15h34.21.132,lexical_decision_task_DD_L2,2021.2.3,MacIntel,60.0024001,,,,,,,,,,,,0.7631,1,,,,,,,,,,,,,,z,1,0.7631,,,,,,,,0.062096761,-0.215111016,0,0,0,,0,63,63,125,1,MOOKY,LB,old,z,./images/MOOKYLB.png,,,,,,,,,,,,,,,,,,,,,
,,,,,,,,,,,,,,,,,199957,18,2022-01-28_15h34.21.132,lexical_decision_task_DD_L2,2021.2.3,MacIntel,60.0024001,,,,,,,,,,,,1.1267,1,,,,,,,,,,,,,,z,1,1.1267,,,,,,,,0.062096761,-0.215111016,0,0,0,,0,64,64,84,1,HAXES,C,old,z,./images/HAXES.png,,,,,,,,,,,,,,,,,,,,,
,,,,,,,,,,,,,,,,,199957,18,2022-01-28_15h34.21.132,lexical_decision_task_DD_L2,2021.2.3,MacIntel,60.0024001,,,,,,,,,,,,0.6135,1,,,,,,,,,,,,,,m,1,0.6135,,,,,,,,0.062096761,-0.215111016,0,0,0,,0,65,65,42,1,FOLDER,HB,old,m,./images/FOLDERHB.png,,,,,,,,,,,,,,,,,,,,,
,,,,,,,,,,,,,,,,,199957,18,2022-01-28_15h34.21.132,lexical_decision_task_DD_L2,2021.2.3,MacIntel,60.0024001,,,,,,,,,,,,0.7115,1,,,,,,,,,,,,,,z,1,0.7115,,,,,,,,0.062096761,-0.215111016,0,0,0,,0,66,66,131,1,NACES,LB,old,z,./images/NACESLB.png,,,,,,,,,,,,,,,,,,,,,
,,,,,,,,,,,,,,,,,199957,18,2022-01-28_15h34.21.132,lexical_decision_task_DD_L2,2021.2.3,MacIntel,60.0024001,,,,,,,,,,,,0.7074,1,,,,,,,,,,,,,,m,1,0.7074,,,,,,,,0.062096761,-0.215111016,0,0,0,,0,67,67,63,1,MIRROR,HB,old,m,./images/MIRRORHB.png,,,,,,,,,,,,,,,,,,,,,
,,,,,,,,,,,,,,,,,199957,18,2022-01-28_15h34.21.132,lexical_decision_task_DD_L2,2021.2.3,MacIntel,60.0024001,,,,,,,,,,,,0.7284,1,,,,,,,,,,,,,,m,1,0.7284,,,,,,,,0.062096761,-0.215111016,0,0,0,,0,68,68,80,1,WEASEL,C,old,m,./images/WEASEL.png,,,,,,,,,,,,,,,,,,,,,
,,,,,,,,,,,,,,,,,199957,18,2022-01-28_15h34.21.132,lexical_decision_task_DD_L2,2021.2.3,MacIntel,60.0024001,,,,,,,,,,,,0.7167,1,,,,,,,,,,,,,,m,1,0.7167,,,,,,,,0.062096761,-0.215111016,0,0,0,,0,69,69,36,1,THROAT,HB,old,m,./images/THROATHB.png,,,,,,,,,,,,,,,,,,,,,
,,,,,,,,,,,,,,,,,199957,18,2022-01-28_15h34.21.132,lexical_decision_task_DD_L2,2021.2.3,MacIntel,60.0024001,,,,,,,,,,,,0.6011,1,,,,,,,,,,,,,,m,1,0.6011,,,,,,,,0.062096761,-0.215111016,0,0,0,,0,70,70,35,1,PEACH,C,old,m,./images/PEACH.png,,,,,,,,,,,,,,,,,,,,,
,,,,,,,,,,,,,,,,,199957,18,2022-01-28_15h34.21.132,lexical_decision_task_DD_L2,2021.2.3,MacIntel,60.0024001,,,,,,,,,,,,2.6778,1,,,,,,,,,,,,,,z,1,2.6778,,,,,,,,0.062096761,-0.215111016,0,0,0,,0,71,71,91,1,SHENS,HB,old,z,./images/SHENSHB.png,,,,,,,,,,,,,,,,,,,,,
,,,,,,,,,,,,,,,,,199957,18,2022-01-28_15h34.21.132,lexical_decision_task_DD_L2,2021.2.3,MacIntel,60.0024001,,,,,,,,,,,,0.7423,1,,,,,,,,,,,,,,m,1,0.7423,,,,,,,,0.062096761,-0.215111016,0,0,0,,0,72,72,20,1,CRADLE,C,old,m,./images/CRADLE.png,,,,,,,,,,,,,,,,,,,,,
,,,,,,,,,,,,,,,,,199957,18,2022-01-28_15h34.21.132,lexical_decision_task_DD_L2,2021.2.3,MacIntel,60.0024001,,,,,,,,,,,,3.3861,1,,,,,,,,,,,,,,z,1,3.3861,,,,,,,,0.062096761,-0.215111016,0,0,0,,0,73,73,109,1,BURGE,HB,old,z,./images/BURGEHB.png,,,,,,,,,,,,,,,,,,,,,
,,,,,,,,,,,,,,,,,199957,18,2022-01-28_15h34.21.132,lexical_decision_task_DD_L2,2021.2.3,MacIntel,60.0024001,,,,,,,,,,,,1.2107,1,,,,,,,,,,,,,,m,1,1.2107,,,,,,,,0.062096761,-0.215111016,0,0,0,,0,74,74,58,1,BABOON,LB,old,m,./images/BABOONLB.png,,,,,,,,,,,,,,,,,,,,,
,,,,,,,,,,,,,,,,,199957,18,2022-01-28_15h34.21.132,lexical_decision_task_DD_L2,2021.2.3,MacIntel,60.0024001,,,,,,,,,,,,0.7269,1,,,,,,,,,,,,,,z,1,0.7269,,,,,,,,0.062096761,-0.215111016,0,0,0,,0,75,75,144,1,NAIRY,C,old,z,./images/NAIRY.png,,,,,,,,,,,,,,,,,,,,,
,,,,,,,,,,,,,,,,,199957,18,2022-01-28_15h34.21.132,lexical_decision_task_DD_L2,2021.2.3,MacIntel,60.0024001,,,,,,,,,,,,0.8115,1,,,,,,,,,,,,,,m,1,0.8115,,,,,,,,0.062096761,-0.215111016,0,0,0,,0,76,76,27,1,ATTIC,HB,old,m,./images/ATTICHB.png,,,,,,,,,,,,,,,,,,,,,
,,,,,,,,,,,,,,,,,199957,18,2022-01-28_15h34.21.132,lexical_decision_task_DD_L2,2021.2.3,MacIntel,60.0024001,,,,,,,,,,,,0.6271,1,,,,,,,,,,,,,,m,1,0.6271,,,,,,,,0.062096761,-0.215111016,0,0,0,,0,77,77,70,1,URINE,LB,old,m,./images/URINELB.png,,,,,,,,,,,,,,,,,,,,,
,,,,,,,,,,,,,,,,,199957,18,2022-01-28_15h34.21.132,lexical_decision_task_DD_L2,2021.2.3,MacIntel,60.0024001,,,,,,,,,,,,0.8789,1,,,,,,,,,,,,,,z,1,0.8789,,,,,,,,0.062096761,-0.215111016,0,0,0,,0,78,78,103,1,FLORT,HB,old,z,./images/FLORTHB.png,,,,,,,,,,,,,,,,,,,,,
,,,,,,,,,,,,,,,,,199957,18,2022-01-28_15h34.21.132,lexical_decision_task_DD_L2,2021.2.3,MacIntel,60.0024001,,,,,,,,,,,,0.7024,1,,,,,,,,,,,,,,m,1,0.7024,,,,,,,,0.062096761,-0.215111016,0,0,0,,0,79,79,13,1,MOTOR,LB,old,m,./images/MOTORLB.png,,,,,,,,,,,,,,,,,,,,,
,,,,,,,,,,,,,,,,,199957,18,2022-01-28_15h34.21.132,lexical_decision_task_DD_L2,2021.2.3,MacIntel,60.0024001,,,,,,,,,,,,1.1851,1,,,,,,,,,,,,,,z,1,1.1851,,,,,,,,0.062096761,-0.215111016,0,0,0,,0,80,80,158,1,EGECT,LB,old,z,./images/EGECTLB.png,,,,,,,,,,,,,,,,,,,,,
,,,,,,,,,,,,,,,,,199957,18,2022-01-28_15h34.21.132,lexical_decision_task_DD_L2,2021.2.3,MacIntel,60.0024001,,,,,,,,,,,,1.4276,0,,,,,,,,,,,,,,z,0,1.4276,,,,,,,,0.062096761,-0.215111016,0,0,0,,0,81,81,50,1,MALLET,C,old,m,./images/MALLET.png,,,,,,,,,,,,,,,,,,,,,
,,,,,,,,,,,,,,,,,199957,18,2022-01-28_15h34.21.132,lexical_decision_task_DD_L2,2021.2.3,MacIntel,60.0024001,,,,,,,,,,,,0.8611,1,,,,,,,,,,,,,,z,1,0.8611,,,,,,,,0.062096761,-0.215111016,0,0,0,,0,82,82,102,1,DULLE,C,old,z,./images/DULLE.png,,,,,,,,,,,,,,,,,,,,,
,,,,,,,,,,,,,,,,,199957,18,2022-01-28_15h34.21.132,lexical_decision_task_DD_L2,2021.2.3,MacIntel,60.0024001,,,,,,,,,,,,0.6643,1,,,,,,,,,,,,,,m,1,0.6643,,,,,,,,0.062096761,-0.215111016,0,0,0,space,0,83,83,57,1,MOOSE,HB,old,m,./images/MOOSEHB.png,294.5884,,,,,,,,,,,,,,,,,,,,
,,,,,,,,,,,,,,,,,199957,18,2022-01-28_15h34.21.132,lexical_decision_task_DD_L2,2021.2.3,MacIntel,60.0024001,,,,,,,,,,,,1.333,1,,,,,,,,,,,,,,z,1,1.333,,,,,,,,0.062096761,-0.215111016,0,0,0,,0,84,84,95,1,HANTY,LB,old,z,./images/HANTYLB.png,,,,,,,,,,,,,,,,,,,,,
,,,,,,,,,,,,,,,,,199957,18,2022-01-28_15h34.21.132,lexical_decision_task_DD_L2,2021.2.3,MacIntel,60.0024001,,,,,,,,,,,,1.1822,1,,,,,,,,,,,,,,m,1,1.1822,,,,,,,,0.062096761,-0.215111016,0,0,0,,0,85,85,54,1,TRIPOD,HB,old,m,./images/TRIPODHB.png,,,,,,,,,,,,,,,,,,,,,
,,,,,,,,,,,,,,,,,199957,18,2022-01-28_15h34.21.132,lexical_decision_task_DD_L2,2021.2.3,MacIntel,60.0024001,,,,,,,,,,,,1.0958,1,,,,,,,,,,,,,,z,1,1.0958,,,,,,,,0.062096761,-0.215111016,0,0,0,,0,86,86,128,1,GRIFT,LB,old,z,./images/GRIFTLB.png,,,,,,,,,,,,,,,,,,,,,
,,,,,,,,,,,,,,,,,199957,18,2022-01-28_15h34.21.132,lexical_decision_task_DD_L2,2021.2.3,MacIntel,60.0024001,,,,,,,,,,,,0.8627,1,,,,,,,,,,,,,,m,1,0.8627,,,,,,,,0.062096761,-0.215111016,0,0,0,,0,87,87,37,1,BIRTH,LB,old,m,./images/BIRTHLB.png,,,,,,,,,,,,,,,,,,,,,
,,,,,,,,,,,,,,,,,199957,18,2022-01-28_15h34.21.132,lexical_decision_task_DD_L2,2021.2.3,MacIntel,60.0024001,,,,,,,,,,,,0.7942,1,,,,,,,,,,,,,,z,1,0.7942,,,,,,,,0.062096761,-0.215111016,0,0,0,,0,88,88,111,1,HOSSE,C,old,z,./images/HOSSE.png,,,,,,,,,,,,,,,,,,,,,
,,,,,,,,,,,,,,,,,199957,18,2022-01-28_15h34.21.132,lexical_decision_task_DD_L2,2021.2.3,MacIntel,60.0024001,,,,,,,,,,,,0.7795,1,,,,,,,,,,,,,,m,1,0.7795,,,,,,,,0.062096761,-0.215111016,0,0,0,,0,89,89,55,1,MUFFIN,LB,old,m,./images/MUFFINLB.png,,,,,,,,,,,,,,,,,,,,,
,,,,,,,,,,,,,,,,,199957,18,2022-01-28_15h34.21.132,lexical_decision_task_DD_L2,2021.2.3,MacIntel,60.0024001,,,,,,,,,,,,0.8279,1,,,,,,,,,,,,,,m,1,0.8279,,,,,,,,0.062096761,-0.215111016,0,0,0,,0,90,90,41,1,STRING,C,old,m,./images/STRING.png,,,,,,,,,,,,,,,,,,,,,
,,,,,,,,,,,,,,,,,199957,18,2022-01-28_15h34.21.132,lexical_decision_task_DD_L2,2021.2.3,MacIntel,60.0024001,,,,,,,,,,,,0.7626,1,,,,,,,,,,,,,,m,1,0.7626,,,,,,,,0.062096761,-0.215111016,0,0,0,,0,91,91,46,1,PEARL,LB,old,m,./images/PEARLLB.png,,,,,,,,,,,,,,,,,,,,,
,,,,,,,,,,,,,,,,,199957,18,2022-01-28_15h34.21.132,lexical_decision_task_DD_L2,2021.2.3,MacIntel,60.0024001,,,,,,,,,,,,0.8449,1,,,,,,,,,,,,,,z,1,0.8449,,,,,,,,0.062096761,-0.215111016,0,0,0,,0,92,92,93,1,SMONE,C,old,z,./images/SMONE.png,,,,,,,,,,,,,,,,,,,,,
,,,,,,,,,,,,,,,,,199957,18,2022-01-28_15h34.21.132,lexical_decision_task_DD_L2,2021.2.3,MacIntel,60.0024001,,,,,,,,,,,,0.8461,1,,,,,,,,,,,,,,m,1,0.8461,,,,,,,,0.062096761,-0.215111016,0,0,0,,0,93,93,68,1,TORCH,C,old,m,./images/TORCH.png,,,,,,,,,,,,,,,,,,,,,
,,,,,,,,,,,,,,,,,199957,18,2022-01-28_15h34.21.132,lexical_decision_task_DD_L2,2021.2.3,MacIntel,60.0024001,,,,,,,,,,,,0.7493,1,,,,,,,,,,,,,,m,1,0.7493,,,,,,,,0.062096761,-0.215111016,0,0,0,,0,94,94,26,1,SMOKER,C,old,m,./images/SMOKER.png,,,,,,,,,,,,,,,,,,,,,
,,,,,,,,,,,,,,,,,199957,18,2022-01-28_15h34.21.132,lexical_decision_task_DD_L2,2021.2.3,MacIntel,60.0024001,,,,,,,,,,,,0.8444,1,,,,,,,,,,,,,,z,1,0.8444,,,,,,,,0.062096761,-0.215111016,0,0,0,,0,95,95,160,1,VEETS,HB,old,z,./images/VEETSHB.png,,,,,,,,,,,,,,,,,,,,,
,,,,,,,,,,,,,,,,,199957,18,2022-01-28_15h34.21.132,lexical_decision_task_DD_L2,2021.2.3,MacIntel,60.0024001,,,,,,,,,,,,1.0132,1,,,,,,,,,,,,,,m,1,1.0132,,,,,,,,0.062096761,-0.215111016,0,0,0,,0,96,96,25,1,WRIST,LB,old,m,./images/WRISTLB.png,,,,,,,,,,,,,,,,,,,,,
,,,,,,,,,,,,,,,,,199957,18,2022-01-28_15h34.21.132,lexical_decision_task_DD_L2,2021.2.3,MacIntel,60.0024001,,,,,,,,,,,,1.6146,1,,,,,,,,,,,,,,z,1,1.6146,,,,,,,,0.062096761,-0.215111016,0,0,0,,0,97,97,130,1,CRILL,HB,old,z,./images/CRILLHB.png,,,,,,,,,,,,,,,,,,,,,
,,,,,,,,,,,,,,,,,199957,18,2022-01-28_15h34.21.132,lexical_decision_task_DD_L2,2021.2.3,MacIntel,60.0024001,,,,,,,,,,,,2.6595,1,,,,,,,,,,,,,,z,1,2.6595,,,,,,,,0.062096761,-0.215111016,0,0,0,,0,98,98,123,1,SEDGE,C,old,z,./images/SEDGE.png,,,,,,,,,,,,,,,,,,,,,
,,,,,,,,,,,,,,,,,199957,18,2022-01-28_15h34.21.132,lexical_decision_task_DD_L2,2021.2.3,MacIntel,60.0024001,,,,,,,,,,,,1.645,1,,,,,,,,,,,,,,z,1,1.645,,,,,,,,0.062096761,-0.215111016,0,0,0,,0,99,99,145,1,LAMEL,HB,old,z,./images/LAMELHB.png,,,,,,,,,,,,,,,,,,,,,
,,,,,,,,,,,,,,,,,199957,18,2022-01-28_15h34.21.132,lexical_decision_task_DD_L2,2021.2.3,MacIntel,60.0024001,,,,,,,,,,,,1.1121,1,,,,,,,,,,,,,,m,1,1.1121,,,,,,,,0.062096761,-0.215111016,0,0,0,,0,100,100,69,1,COOKER,HB,old,m,./images/COOKERHB.png,,,,,,,,,,,,,,,,,,,,,
,,,,,,,,,,,,,,,,,199957,18,2022-01-28_15h34.21.132,lexical_decision_task_DD_L2,2021.2.3,MacIntel,60.0024001,,,,,,,,,,,,5.3461,0,,,,,,,,,,,,,,m,0,5.3461,,,,,,,,0.062096761,-0.215111016,0,0,0,,0,101,101,142,1,PLASK,HB,old,z,./images/PLASKHB.png,,,,,,,,,,,,,,,,,,,,,
,,,,,,,,,,,,,,,,,199957,18,2022-01-28_15h34.21.132,lexical_decision_task_DD_L2,2021.2.3,MacIntel,60.0024001,,,,,,,,,,,,1.412,1,,,,,,,,,,,,,,m,1,1.412,,,,,,,,0.062096761,-0.215111016,0,0,0,,0,102,102,30,1,STORM,HB,old,m,./images/STORMHB.png,,,,,,,,,,,,,,,,,,,,,
,,,,,,,,,,,,,,,,,199957,18,2022-01-28_15h34.21.132,lexical_decision_task_DD_L2,2021.2.3,MacIntel,60.0024001,,,,,,,,,,,,1.9479,1,,,,,,,,,,,,,,z,1,1.9479,,,,,,,,0.062096761,-0.215111016,0,0,0,,0,103,103,115,1,MAWNS,HB,old,z,./images/MAWNSHB.png,,,,,,,,,,,,,,,,,,,,,
,,,,,,,,,,,,,,,,,199957,18,2022-01-28_15h34.21.132,lexical_decision_task_DD_L2,2021.2.3,MacIntel,60.0024001,,,,,,,,,,,,0.8632,1,,,,,,,,,,,,,,m,1,0.8632,,,,,,,,0.062096761,-0.215111016,0,0,0,,0,104,104,12,1,SHORE,HB,old,m,./images/SHOREHB.png,,,,,,,,,,,,,,,,,,,,,
,,,,,,,,,,,,,,,,,199957,18,2022-01-28_15h34.21.132,lexical_decision_task_DD_L2,2021.2.3,MacIntel,60.0024001,,,,,,,,,,,,0.8794,1,,,,,,,,,,,,,,m,1,0.8794,,,,,,,,0.062096761,-0.215111016,0,0,0,,0,105,105,39,1,SHELF,HB,old,m,./images/SHELFHB.png,,,,,,,,,,,,,,,,,,,,,
,,,,,,,,,,,,,,,,,199957,18,2022-01-28_15h34.21.132,lexical_decision_task_DD_L2,2021.2.3,MacIntel,60.0024001,,,,,,,,,,,,1.0788,1,,,,,,,,,,,,,,m,1,1.0788,,,,,,,,0.062096761,-0.215111016,0,0,0,,0,106,106,64,1,JELLY,LB,old,m,./images/JELLYLB.png,,,,,,,,,,,,,,,,,,,,,
,,,,,,,,,,,,,,,,,199957,18,2022-01-28_15h34.21.132,lexical_decision_task_DD_L2,2021.2.3,MacIntel,60.0024001,,,,,,,,,,,,0.8118,1,,,,,,,,,,,,,,m,1,0.8118,,,,,,,,0.062096761,-0.215111016,0,0,0,,0,107,107,76,1,INFANT,LB,old,m,./images/INFANTLB.png,,,,,,,,,,,,,,,,,,,,,
,,,,,,,,,,,,,,,,,199957,18,2022-01-28_15h34.21.132,lexical_decision_task_DD_L2,2021.2.3,MacIntel,60.0024001,,,,,,,,,,,,0.6686,1,,,,,,,,,,,,,,m,1,0.6686,,,,,,,,0.062096761,-0.215111016,0,0,0,,0,108,108,82,1,SUNSET,LB,old,m,./images/SUNSETLB.png,,,,,,,,,,,,,,,,,,,,,
,,,,,,,,,,,,,,,,,199957,18,2022-01-28_15h34.21.132,lexical_decision_task_DD_L2,2021.2.3,MacIntel,60.0024001,,,,,,,,,,,,0.7301,1,,,,,,,,,,,,,,m,1,0.7301,,,,,,,,0.062096761,-0.215111016,0,0,0,,0,109,109,51,1,ONION,HB,old,m,./images/ONIONHB.png,,,,,,,,,,,,,,,,,,,,,
,,,,,,,,,,,,,,,,,199957,18,2022-01-28_15h34.21.132,lexical_decision_task_DD_L2,2021.2.3,MacIntel,60.0024001,,,,,,,,,,,,0.7612,1,,,,,,,,,,,,,,m,1,0.7612,,,,,,,,0.062096761,-0.215111016,0,0,0,,0,110,110,34,1,CANYON,LB,old,m,./images/CANYONLB.png,,,,,,,,,,,,,,,,,,,,,
,,,,,,,,,,,,,,,,,199957,18,2022-01-28_15h34.21.132,lexical_decision_task_DD_L2,2021.2.3,MacIntel,60.0024001,,,,,,,,,,,,0.7449,1,,,,,,,,,,,,,,m,1,0.7449,,,,,,,,0.062096761,-0.215111016,0,0,0,,0,111,111,81,1,POODLE,HB,old,m,./images/POODLEHB.png,,,,,,,,,,,,,,,,,,,,,
,,,,,,,,,,,,,,,,,199957,18,2022-01-28_15h34.21.132,lexical_decision_task_DD_L2,2021.2.3,MacIntel,60.0024001,,,,,,,,,,,,1.1688,1,,,,,,,,,,,,,,z,1,1.1688,,,,,,,,0.062096761,-0.215111016,0,0,0,,0,112,112,118,1,BAVEL,HB,old,z,./images/BAVELHB.png,,,,,,,,,,,,,,,,,,,,,
,,,,,,,,,,,,,,,,,199957,18,2022-01-28_15h34.21.132,lexical_decision_task_DD_L2,2021.2.3,MacIntel,60.0024001,,,,,,,,,,,,0.6758,1,,,,,,,,,,,,,,m,1,0.6758,,,,,,,,0.062096761,-0.215111016,0,0,0,,0,113,113,24,1,SCREW,HB,old,m,./images/SCREWHB.png,,,,,,,,,,,,,,,,,,,,,
,,,,,,,,,,,,,,,,,199957,18,2022-01-28_15h34.21.132,lexical_decision_task_DD_L2,2021.2.3,MacIntel,60.0024001,,,,,,,,,,,,0.8939,1,,,,,,,,,,,,,,z,1,0.8939,,,,,,,,0.062096761,-0.215111016,0,0,0,,0,114,114,163,1,GAMBA,HB,old,z,./images/GAMBAHB.png,,,,,,,,,,,,,,,,,,,,,
,,,,,,,,,,,,,,,,,199957,18,2022-01-28_15h34.21.132,lexical_decision_task_DD_L2,2021.2.3,MacIntel,60.0024001,,,,,,,,,,,,0.8273,1,,,,,,,,,,,,,,m,1,0.8273,,,,,,,,0.062096761,-0.215111016,0,0,0,,0,115,115,2,1,BEARD,C,old,m,./images/BEARD.png,,,,,,,,,,,,,,,,,,,,,
,,,,,,,,,,,,,,,,,199957,18,2022-01-28_15h34.21.132,lexical_decision_task_DD_L2,2021.2.3,MacIntel,60.0024001,,,,,,,,,,,,0.6449,1,,,,,,,,,,,,,,m,1,0.6449,,,,,,,,0.062096761,-0.215111016,0,0,0,,0,116,116,48,1,SPORT,HB,old,m,./images/SPORTHB.png,,,,,,,,,,,,,,,,,,,,,
,,,,,,,,,,,,,,,,,199957,18,2022-01-28_15h34.21.132,lexical_decision_task_DD_L2,2021.2.3,MacIntel,60.0024001,,,,,,,,,,,,0.7268,1,,,,,,,,,,,,,,m,1,0.7268,,,,,,,,0.062096761,-0.215111016,0,0,0,,0,117,117,74,1,CEMENT,C,old,m,./images/CEMENT.png,,,,,,,,,,,,,,,,,,,,,
,,,,,,,,,,,,,,,,,199957,18,2022-01-28_15h34.21.132,lexical_decision_task_DD_L2,2021.2.3,MacIntel,60.0024001,,,,,,,,,,,,0.5935,1,,,,,,,,,,,,,,m,1,0.5935,,,,,,,,0.062096761,-0.215111016,0,0,0,,0,118,118,5,1,PASTA,C,old,m,./images/PASTA.png,,,,,,,,,,,,,,,,,,,,,
,,,,,,,,,,,,,,,,,199957,18,2022-01-28_15h34.21.132,lexical_decision_task_DD_L2,2021.2.3,MacIntel,60.0024001,,,,,,,,,,,,0.7466,1,,,,,,,,,,,,,,z,1,0.7466,,,,,,,,0.062096761,-0.215111016,0,0,0,,0,119,119,112,1,MYING,HB,old,z,./images/MYINGHB.png,,,,,,,,,,,,,,,,,,,,,
,,,,,,,,,,,,,,,,,199957,18,2022-01-28_15h34.21.132,lexical_decision_task_DD_L2,2021.2.3,MacIntel,60.0024001,,,,,,,,,,,,0.9124,1,,,,,,,,,,,,,,m,1,0.9124,,,,,,,,0.062096761,-0.215111016,0,0,0,,0,120,120,3,1,FINGER,HB,old,m,./images/FINGERHB.png,,,,,,,,,,,,,,,,,,,,,
,,,,,,,,,,,,,,,,,199957,18,2022-01-28_15h34.21.132,lexical_decision_task_DD_L2,2021.2.3,MacIntel,60.0024001,,,,,,,,,,,,0.8135,1,,,,,,,,,,,,,,z,1,0.8135,,,,,,,,0.062096761,-0.215111016,0,0,0,,0,121,121,146,1,MOOST,LB,old,z,./images/MOOSTLB.png,,,,,,,,,,,,,,,,,,,,,
,,,,,,,,,,,,,,,,,199957,18,2022-01-28_15h34.21.132,lexical_decision_task_DD_L2,2021.2.3,MacIntel,60.0024001,,,,,,,,,,,,0.7967,1,,,,,,,,,,,,,,m,1,0.7967,,,,,,,,0.062096761,-0.215111016,0,0,0,,0,122,122,72,1,NOOSE,HB,old,m,./images/NOOSEHB.png,,,,,,,,,,,,,,,,,,,,,
,,,,,,,,,,,,,,,,,199957,18,2022-01-28_15h34.21.132,lexical_decision_task_DD_L2,2021.2.3,MacIntel,60.0024001,,,,,,,,,,,,0.7104,1,,,,,,,,,,,,,,z,1,0.7104,,,,,,,,0.062096761,-0.215111016,0,0,0,,0,123,123,132,1,SCIFF,C,old,z,./images/SCIFF.png,,,,,,,,,,,,,,,,,,,,,
,,,,,,,,,,,,,,,,,199957,18,2022-01-28_15h34.21.132,lexical_decision_task_DD_L2,2021.2.3,MacIntel,60.0024001,,,,,,,,,,,,0.7112,1,,,,,,,,,,,,,,z,1,0.7112,,,,,,,,0.062096761,-0.215111016,0,0,0,,0,124,124,136,1,WERVE,HB,old,z,./images/WERVEHB.png,,,,,,,,,,,,,,,,,,,,,
,,,,,,,,,,,,,,,,,199957,18,2022-01-28_15h34.21.132,lexical_decision_task_DD_L2,2021.2.3,MacIntel,60.0024001,,,,,,,,,,,,1.0477,1,,,,,,,,,,,,,,m,1,1.0477,,,,,,,,0.062096761,-0.215111016,0,0,0,space,0,125,125,23,1,WALRUS,C,old,m,./images/WALRUS.png,1.4179,,,,,,,,,,,,,,,,,,,,
,,,,,,,,,,,,,,,,,199957,18,2022-01-28_15h34.21.132,lexical_decision_task_DD_L2,2021.2.3,MacIntel,60.0024001,,,,,,,,,,,,0.8621,1,,,,,,,,,,,,,,z,1,0.8621,,,,,,,,0.062096761,-0.215111016,0,0,0,,0,126,126,108,1,GRUET,C,old,z,./images/GRUET.png,,,,,,,,,,,,,,,,,,,,,
,,,,,,,,,,,,,,,,,199957,18,2022-01-28_15h34.21.132,lexical_decision_task_DD_L2,2021.2.3,MacIntel,60.0024001,,,,,,,,,,,,0.8447,1,,,,,,,,,,,,,,z,1,0.8447,,,,,,,,0.062096761,-0.215111016,0,0,0,,0,127,127,156,1,HIXES,C,old,z,./images/HIXES.png,,,,,,,,,,,,,,,,,,,,,
,,,,,,,,,,,,,,,,,199957,18,2022-01-28_15h34.21.132,lexical_decision_task_DD_L2,2021.2.3,MacIntel,60.0024001,,,,,,,,,,,,0.6305,1,,,,,,,,,,,,,,m,1,0.6305,,,,,,,,0.062096761,-0.215111016,0,0,0,,0,128,128,67,1,SAILOR,LB,old,m,./images/SAILORLB.png,,,,,,,,,,,,,,,,,,,,,
,,,,,,,,,,,,,,,,,199957,18,2022-01-28_15h34.21.132,lexical_decision_task_DD_L2,2021.2.3,MacIntel,60.0024001,,,,,,,,,,,,0.7765,1,,,,,,,,,,,,,,m,1,0.7765,,,,,,,,0.062096761,-0.215111016,0,0,0,,0,129,129,8,1,TULIP,C,old,m,./images/TULIP.png,,,,,,,,,,,,,,,,,,,,,
,,,,,,,,,,,,,,,,,199957,18,2022-01-28_15h34.21.132,lexical_decision_task_DD_L2,2021.2.3,MacIntel,60.0024001,,,,,,,,,,,,1.0521,1,,,,,,,,,,,,,,z,1,1.0521,,,,,,,,0.062096761,-0.215111016,0,0,0,,0,130,130,155,1,CANGY,LB,old,z,./images/CANGYLB.png,,,,,,,,,,,,,,,,,,,,,
,,,,,,,,,,,,,,,,,199957,18,2022-01-28_15h34.21.132,lexical_decision_task_DD_L2,2021.2.3,MacIntel,60.0024001,,,,,,,,,,,,1.3796,0,,,,,,,,,,,,,,z,0,1.3796,,,,,,,,0.062096761,-0.215111016,0,0,0,,0,131,131,16,1,PENCE,LB,old,m,./images/PENCELB.png,,,,,,,,,,,,,,,,,,,,,
,,,,,,,,,,,,,,,,,199957,18,2022-01-28_15h34.21.132,lexical_decision_task_DD_L2,2021.2.3,MacIntel,60.0024001,,,,,,,,,,,,0.6276,0,,,,,,,,,,,,,,m,0,0.6276,,,,,,,,0.062096761,-0.215111016,0,0,0,,0,132,132,165,1,TROWN,C,old,z,./images/TROWN.png,,,,,,,,,,,,,,,,,,,,,
,,,,,,,,,,,,,,,,,199957,18,2022-01-28_15h34.21.132,lexical_decision_task_DD_L2,2021.2.3,MacIntel,60.0024001,,,,,,,,,,,,0.9937,1,,,,,,,,,,,,,,z,1,0.9937,,,,,,,,0.062096761,-0.215111016,0,0,0,,0,133,133,87,1,TRING,C,old,z,./images/TRING.png,,,,,,,,,,,,,,,,,,,,,
,,,,,,,,,,,,,,,,,199957,18,2022-01-28_15h34.21.132,lexical_decision_task_DD_L2,2021.2.3,MacIntel,60.0024001,,,,,,,,,,,,0.6477,1,,,,,,,,,,,,,,z,1,0.6477,,,,,,,,0.062096761,-0.215111016,0,0,0,,0,134,134,161,1,BLAPS,LB,old,z,./images/BLAPSLB.png,,,,,,,,,,,,,,,,,,,,,
,,,,,,,,,,,,,,,,,199957,18,2022-01-28_15h34.21.132,lexical_decision_task_DD_L2,2021.2.3,MacIntel,60.0024001,,,,,,,,,,,,0.912,1,,,,,,,,,,,,,,z,1,0.912,,,,,,,,0.062096761,-0.215111016,0,0,0,,0,135,135,119,1,PAFER,LB,old,z,./images/PAFERLB.png,,,,,,,,,,,,,,,,,,,,,
,,,,,,,,,,,,,,,,,199957,18,2022-01-28_15h34.21.132,lexical_decision_task_DD_L2,2021.2.3,MacIntel,60.0024001,,,,,,,,,,,,0.8115,1,,,,,,,,,,,,,,z,1,0.8115,,,,,,,,0.062096761,-0.215111016,0,0,0,,0,136,136,121,1,CEERS,HB,old,z,./images/CEERSHB.png,,,,,,,,,,,,,,,,,,,,,
,,,,,,,,,,,,,,,,,199957,18,2022-01-28_15h34.21.132,lexical_decision_task_DD_L2,2021.2.3,MacIntel,60.0024001,,,,,,,,,,,,0.5856,1,,,,,,,,,,,,,,m,1,0.5856,,,,,,,,0.062096761,-0.215111016,0,0,0,,0,137,137,40,1,SWING,LB,old,m,./images/SWINGLB.png,,,,,,,,,,,,,,,,,,,,,
,,,,,,,,,,,,,,,,,199957,18,2022-01-28_15h34.21.132,lexical_decision_task_DD_L2,2021.2.3,MacIntel,60.0024001,,,,,,,,,,,,0.8103,1,,,,,,,,,,,,,,z,1,0.8103,,,,,,,,0.062096761,-0.215111016,0,0,0,,0,138,138,99,1,BACKY,C,old,z,./images/BACKY.png,,,,,,,,,,,,,,,,,,,,,
,,,,,,,,,,,,,,,,,199957,18,2022-01-28_15h34.21.132,lexical_decision_task_DD_L2,2021.2.3,MacIntel,60.0024001,,,,,,,,,,,,0.7129,1,,,,,,,,,,,,,,m,1,0.7129,,,,,,,,0.062096761,-0.215111016,0,0,0,,0,139,139,45,1,KITTEN,HB,old,m,./images/KITTENHB.png,,,,,,,,,,,,,,,,,,,,,
,,,,,,,,,,,,,,,,,199957,18,2022-01-28_15h34.21.132,lexical_decision_task_DD_L2,2021.2.3,MacIntel,60.0024001,,,,,,,,,,,,1.2439,1,,,,,,,,,,,,,,z,1,1.2439,,,,,,,,0.062096761,-0.215111016,0,0,0,,0,140,140,106,1,CLUMS,HB,old,z,./images/CLUMSHB.png,,,,,,,,,,,,,,,,,,,,,
,,,,,,,,,,,,,,,,,199957,18,2022-01-28_15h34.21.132,lexical_decision_task_DD_L2,2021.2.3,MacIntel,60.0024001,,,,,,,,,,,,0.7116,1,,,,,,,,,,,,,,z,1,0.7116,,,,,,,,0.062096761,-0.215111016,0,0,0,,0,141,141,113,1,LINEW,LB,old,z,./images/LINEWLB.png,,,,,,,,,,,,,,,,,,,,,
,,,,,,,,,,,,,,,,,199957,18,2022-01-28_15h34.21.132,lexical_decision_task_DD_L2,2021.2.3,MacIntel,60.0024001,,,,,,,,,,,,0.6495,1,,,,,,,,,,,,,,z,1,0.6495,,,,,,,,0.062096761,-0.215111016,0,0,0,,0,142,142,101,1,GLEET,LB,old,z,./images/GLEETLB.png,,,,,,,,,,,,,,,,,,,,,
,,,,,,,,,,,,,,,,,199957,18,2022-01-28_15h34.21.132,lexical_decision_task_DD_L2,2021.2.3,MacIntel,60.0024001,,,,,,,,,,,,0.6092,1,,,,,,,,,,,,,,z,1,0.6092,,,,,,,,0.062096761,-0.215111016,0,0,0,,0,143,143,96,1,KEAMS,C,old,z,./images/KEAMS.png,,,,,,,,,,,,,,,,,,,,,
,,,,,,,,,,,,,,,,,199957,18,2022-01-28_15h34.21.132,lexical_decision_task_DD_L2,2021.2.3,MacIntel,60.0024001,,,,,,,,,,,,0.8122,1,,,,,,,,,,,,,,m,1,0.8122,,,,,,,,0.062096761,-0.215111016,0,0,0,,0,144,144,19,1,DOUGH,LB,old,m,./images/DOUGHLB.png,,,,,,,,,,,,,,,,,,,,,
,,,,,,,,,,,,,,,,,199957,18,2022-01-28_15h34.21.132,lexical_decision_task_DD_L2,2021.2.3,MacIntel,60.0024001,,,,,,,,,,,,0.6151,1,,,,,,,,,,,,,,m,1,0.6151,,,,,,,,0.062096761,-0.215111016,0,0,0,,0,145,145,77,1,COUCH,C,old,m,./images/COUCH.png,,,,,,,,,,,,,,,,,,,,,
,,,,,,,,,,,,,,,,,199957,18,2022-01-28_15h34.21.132,lexical_decision_task_DD_L2,2021.2.3,MacIntel,60.0024001,,,,,,,,,,,,0.6474,1,,,,,,,,,,,,,,z,1,0.6474,,,,,,,,0.062096761,-0.215111016,0,0,0,,0,146,146,137,1,JOOST,LB,old,z,./images/JOOSTLB.png,,,,,,,,,,,,,,,,,,,,,
,,,,,,,,,,,,,,,,,199957,18,2022-01-28_15h34.21.132,lexical_decision_task_DD_L2,2021.2.3,MacIntel,60.0024001,,,,,,,,,,,,0.6824,1,,,,,,,,,,,,,,z,1,0.6824,,,,,,,,0.062096761,-0.215111016,0,0,0,,0,147,147,116,1,BALGY,LB,old,z,./images/BALGYLB.png,,,,,,,,,,,,,,,,,,,,,
,,,,,,,,,,,,,,,,,199957,18,2022-01-28_15h34.21.132,lexical_decision_task_DD_L2,2021.2.3,MacIntel,60.0024001,,,,,,,,,,,,0.6122,1,,,,,,,,,,,,,,z,1,0.6122,,,,,,,,0.062096761,-0.215111016,0,0,0,,0,148,148,90,1,NEAST,C,old,z,./images/NEAST.png,,,,,,,,,,,,,,,,,,,,,
,,,,,,,,,,,,,,,,,199957,18,2022-01-28_15h34.21.132,lexical_decision_task_DD_L2,2021.2.3,MacIntel,60.0024001,,,,,,,,,,,,0.6595,1,,,,,,,,,,,,,,m,1,0.6595,,,,,,,,0.062096761,-0.215111016,0,0,0,,0,149,149,53,1,CARPET,C,old,m,./images/CARPET.png,,,,,,,,,,,,,,,,,,,,,
,,,,,,,,,,,,,,,,,199957,18,2022-01-28_15h34.21.132,lexical_decision_task_DD_L2,2021.2.3,MacIntel,60.0024001,,,,,,,,,,,,0.7115,1,,,,,,,,,,,,,,m,1,0.7115,,,,,,,,0.062096761,-0.215111016,0,0,0,,0,150,150,75,1,GRAIN,HB,old,m,./images/GRAINHB.png,,,,,,,,,,,,,,,,,,,,,
,,,,,,,,,,,,,,,,,199957,18,2022-01-28_15h34.21.132,lexical_decision_task_DD_L2,2021.2.3,MacIntel,60.0024001,,,,,,,,,,,,0.6672,1,,,,,,,,,,,,,,z,1,0.6672,,,,,,,,0.062096761,-0.215111016,0,0,0,,0,151,151,147,1,ZOLES,C,old,z,./images/ZOLES.png,,,,,,,,,,,,,,,,,,,,,
,,,,,,,,,,,,,,,,,199957,18,2022-01-28_15h34.21.132,lexical_decision_task_DD_L2,2021.2.3,MacIntel,60.0024001,,,,,,,,,,,,0.6639,1,,,,,,,,,,,,,,m,1,0.6639,,,,,,,,0.062096761,-0.215111016,0,0,0,,0,152,152,43,1,MOSQUE,LB,old,m,./images/MOSQUELB.png,,,,,,,,,,,,,,,,,,,,,
,,,,,,,,,,,,,,,,,199957,18,2022-01-28_15h34.21.132,lexical_decision_task_DD_L2,2021.2.3,MacIntel,60.0024001,,,,,,,,,,,,0.9333,1,,,,,,,,,,,,,,m,1,0.9333,,,,,,,,0.062096761,-0.215111016,0,0,0,,0,153,153,56,1,PACKET,C,old,m,./images/PACKET.png,,,,,,,,,,,,,,,,,,,,,
,,,,,,,,,,,,,,,,,199957,18,2022-01-28_15h34.21.132,lexical_decision_task_DD_L2,2021.2.3,MacIntel,60.0024001,,,,,,,,,,,,0.5812,1,,,,,,,,,,,,,,m,1,0.5812,,,,,,,,0.062096761,-0.215111016,0,0,0,,0,154,154,66,1,SWEAT,HB,old,m,./images/SWEATHB.png,,,,,,,,,,,,,,,,,,,,,
,,,,,,,,,,,,,,,,,199957,18,2022-01-28_15h34.21.132,lexical_decision_task_DD_L2,2021.2.3,MacIntel,60.0024001,,,,,,,,,,,,1.127,1,,,,,,,,,,,,,,z,1,1.127,,,,,,,,0.062096761,-0.215111016,0,0,0,,0,155,155,166,1,SHORY,HB,old,z,./images/SHORYHB.png,,,,,,,,,,,,,,,,,,,,,
,,,,,,,,,,,,,,,,,199957,18,2022-01-28_15h34.21.132,lexical_decision_task_DD_L2,2021.2.3,MacIntel,60.0024001,,,,,,,,,,,,1.5944,1,,,,,,,,,,,,,,z,1,1.5944,,,,,,,,0.062096761,-0.215111016,0,0,0,,0,156,156,94,1,BLANS,HB,old,z,./images/BLANSHB.png,,,,,,,,,,,,,,,,,,,,,
,,,,,,,,,,,,,,,,,199957,18,2022-01-28_15h34.21.132,lexical_decision_task_DD_L2,2021.2.3,MacIntel,60.0024001,,,,,,,,,,,,0.7134,1,,,,,,,,,,,,,,z,1,0.7134,,,,,,,,0.062096761,-0.215111016,0,0,0,,0,157,157,134,1,TROSS,LB,old,z,./images/TROSSLB.png,,,,,,,,,,,,,,,,,,,,,
,,,,,,,,,,,,,,,,,199957,18,2022-01-28_15h34.21.132,lexical_decision_task_DD_L2,2021.2.3,MacIntel,60.0024001,,,,,,,,,,,,0.6781,1,,,,,,,,,,,,,,z,1,0.6781,,,,,,,,0.062096761,-0.215111016,0,0,0,,0,158,158,98,1,BAMPS,LB,old,z,./images/BAMPSLB.png,,,,,,,,,,,,,,,,,,,,,
,,,,,,,,,,,,,,,,,199957,18,2022-01-28_15h34.21.132,lexical_decision_task_DD_L2,2021.2.3,MacIntel,60.0024001,,,,,,,,,,,,0.6133,1,,,,,,,,,,,,,,m,1,0.6133,,,,,,,,0.062096761,-0.215111016,0,0,0,,0,159,159,49,1,DRUMS,LB,old,m,./images/DRUMSLB.png,,,,,,,,,,,,,,,,,,,,,
,,,,,,,,,,,,,,,,,199957,18,2022-01-28_15h34.21.132,lexical_decision_task_DD_L2,2021.2.3,MacIntel,60.0024001,,,,,,,,,,,,0.6445,1,,,,,,,,,,,,,,m,1,0.6445,,,,,,,,0.062096761,-0.215111016,0,0,0,,0,160,160,22,1,MELON,LB,old,m,./images/MELONLB.png,,,,,,,,,,,,,,,,,,,,,
,,,,,,,,,,,,,,,,,199957,18,2022-01-28_15h34.21.132,lexical_decision_task_DD_L2,2021.2.3,MacIntel,60.0024001,,,,,,,,,,,,0.4616,0,,,,,,,,,,,,,,m,0,0.4616,,,,,,,,0.062096761,-0.215111016,0,0,0,,0,161,161,164,1,SGREW,LB,old,z,./images/SGREWLB.png,,,,,,,,,,,,,,,,,,,,,
,,,,,,,,,,,,,,,,,199957,18,2022-01-28_15h34.21.132,lexical_decision_task_DD_L2,2021.2.3,MacIntel,60.0024001,,,,,,,,,,,,0.8641,1,,,,,,,,,,,,,,z,1,0.8641,,,,,,,,0.062096761,-0.215111016,0,0,0,,0,162,162,127,1,NINDY,HB,old,z,./images/NINDYHB.png,,,,,,,,,,,,,,,,,,,,,
,,,,,,,,,,,,,,,,,199957,18,2022-01-28_15h34.21.132,lexical_decision_task_DD_L2,2021.2.3,MacIntel,60.0024001,,,,,,,,,,,,0.8154,1,,,,,,,,,,,,,,z,1,0.8154,,,,,,,,0.062096761,-0.215111016,0,0,0,,0,163,163,149,1,VEASE,LB,old,z,./images/VEASELB.png,,,,,,,,,,,,,,,,,,,,,
,,,,,,,,,,,,,,,,,199957,18,2022-01-28_15h34.21.132,lexical_decision_task_DD_L2,2021.2.3,MacIntel,60.0024001,,,,,,,,,,,,0.8799,1,,,,,,,,,,,,,,m,1,0.8799,,,,,,,,0.062096761,-0.215111016,0,0,0,,0,164,164,78,1,LITTER,HB,old,m,./images/LITTERHB.png,,,,,,,,,,,,,,,,,,,,,
,,,,,,,,,,,,,,,,,199957,18,2022-01-28_15h34.21.132,lexical_decision_task_DD_L2,2021.2.3,MacIntel,60.0024001,,,,,,,,,,,,0.7283,1,,,,,,,,,,,,,,m,1,0.7283,,,,,,,,0.062096761,-0.215111016,0,0,0,,0,165,165,38,1,LADDER,C,old,m,./images/LADDER.png,,,,,,,,,,,,,,,,,,,,,
,,,,,,,,,,,,,,,,,199957,18,2022-01-28_15h34.21.132,lexical_decision_task_DD_L2,2021.2.3,MacIntel,60.0024001,,,,,,,,,,,,0.7778,1,,,,,,,,,,,,,,m,1,0.7778,,,,,,,,0.062096761,-0.215111016,0,0,0,,0,166,166,29,1,CRUMB,C,old,m,./images/CRUMB.png,,,,,,,,,,,,,,,,,,,,,
,,,,,,,,,,,,,,,,,199957,18,2022-01-28_15h34.21.132,lexical_decision_task_DD_L2,2021.2.3,MacIntel,60.0024001,,,,,,,,,,,,1.7024,1,,,,,,,,,,,,,,z,1,1.7024,,,,,,,,0.062096761,-0.215111016,0,0,0,,0,167,167,88,1,GLUSH,HB,old,z,./images/GLUSHHB.png,,,,,,,,,,,,,,,,,,,,,
space,0.062096761,-0.215111016,0,0,0,,,,,,,1,test,"In the next phase you will be presented with the words from the the first phase. Your job is to decide whether you remember seeing the word or not. If you remember seeing the word press ""old"" or type ""m"". If you do not remember seeing the word press ""new"" or type ""z"". Please press the space bar or click on continue to begin. ",,,199957,18,2022-01-28_15h34.21.132,lexical_decision_task_DD_L2,2021.2.3,MacIntel,60.0024001,118.663,,,,,,,,,,,,,,,,,,,,,,,,,,,,,,,,,,,,,,,,,,,,,,,,,,,,,0,0,0,0,1,,,,,,,,,,,,,,,
,0.013488091,-0.407543538,1,0,0,instr_done_button,,,,,,1,test,"In the next phase you will be presented with the words from the the first phase. Your job is to decide whether you remember seeing the word or not. If you remember seeing the word press ""old"" or type ""m"". If you do not remember seeing the word press ""new"" or type ""z"". Please press the space bar or click on continue to begin. ",,,199957,18,2022-01-28_15h34.21.132,lexical_decision_task_DD_L2,2021.2.3,MacIntel,60.0024001,,,,,,,,,,,,,,,,,,,,,,,,,,,,,,,,,,,,,,,,,,,,,,,,,,,,,,1,0,1,0,1,,,,,,,,,,,,,,,
space,0.015295885,-0.35089464,0,0,0,,,,,,,1,test,"In the next phase you will be presented with the words from the the first phase. Your job is to decide whether you remember seeing the word or not. If you remember seeing the word press ""old"" or type ""m"". If you do not remember seeing the word press ""new"" or type ""z"". Please press the space bar or click on continue to begin. ",,,199957,18,2022-01-28_15h34.21.132,lexical_decision_task_DD_L2,2021.2.3,MacIntel,60.0024001,2.7361,,,,,,,,,,,,,,,,,,,,,,,,,,,,,,,,,,,,,,,,,,,,,,,,,,,,,2,0,2,0,1,,,,,,,,,,,,,,,
space,0.015295885,-0.35089464,0,0,0,,,,,,,1,test,"In the next phase you will be presented with the words from the the first phase. Your job is to decide whether you remember seeing the word or not. If you remember seeing the word press ""old"" or type ""m"". If you do not remember seeing the word press ""new"" or type ""z"". Please press the space bar or click on continue to begin. ",,,199957,18,2022-01-28_15h34.21.132,lexical_decision_task_DD_L2,2021.2.3,MacIntel,60.0024001,0.3294,,,,,,,,,,,,,,,,,,,,,,,,,,,,,,,,,,,,,,,,,,,,,,,,,,,,,3,0,3,0,1,,,,,,,,,,,,,,,
,-0.003587782,-0.409162394,1,0,0,instr_done_button,,,,,,1,test,"In the next phase you will be presented with the words from the the first phase. Your job is to decide whether you remember seeing the word or not. If you remember seeing the word press ""old"" or type ""m"". If you do not remember seeing the word press ""new"" or type ""z"". Please press the space bar or click on continue to begin. ",,,199957,18,2022-01-28_15h34.21.132,lexical_decision_task_DD_L2,2021.2.3,MacIntel,60.0024001,,,,,,,,,,,,,,,,,,,,,,,,,,,,,,,,,,,,,,,,,,,,,,,,,,,,,,4,0,4,0,1,,,,,,,,,,,,,,,
,,,,,,,,,,,,,,,,,199957,18,2022-01-28_15h34.21.132,lexical_decision_task_DD_L2,2021.2.3,MacIntel,60.0024001,,,,,,,,,,,,1.8189,1,,,,,,,,,,,,,,,,,,,,,,,,0.008186035,-0.330109592,0,0,0,,,,,,,CLOUD,C,z,y,./images/CLOUD.png,,,,,,,z,1,1.8189,,,,,,,,0,0,0,110,1
,,,,,,,,,,,,,,,,,199957,18,2022-01-28_15h34.21.132,lexical_decision_task_DD_L2,2021.2.3,MacIntel,60.0024001,,,,,,,,,,,,1.2989,1,,,,,,,,,,,,,,,,,,,,,,,,0.008186035,-0.330109592,0,0,0,,,,,,,STOOL,LB,z,y,./images/STOOLLB.png,,,,,,,z,1,1.2989,,,,,,,,0,1,1,127,1
,,,,,,,,,,,,,,,,,199957,18,2022-01-28_15h34.21.132,lexical_decision_task_DD_L2,2021.2.3,MacIntel,60.0024001,,,,,,,,,,,,1.6489,1,,,,,,,,,,,,,,,,,,,,,,,,0.008186035,-0.330109592,0,0,0,,,,,,,PEACH,C,m,y,./images/PEACH.png,,,,,,,m,1,1.6489,,,,,,,,0,2,2,35,1
,,,,,,,,,,,,,,,,,199957,18,2022-01-28_15h34.21.132,lexical_decision_task_DD_L2,2021.2.3,MacIntel,60.0024001,,,,,,,,,,,,2.4481,1,,,,,,,,,,,,,,,,,,,,,,,,0.008186035,-0.330109592,0,0,0,,,,,,,BRIDE,LB,z,y,./images/BRIDELB.png,,,,,,,z,1,2.4481,,,,,,,,0,3,3,148,1
,,,,,,,,,,,,,,,,,199957,18,2022-01-28_15h34.21.132,lexical_decision_task_DD_L2,2021.2.3,MacIntel,60.0024001,,,,,,,,,,,,1.5987,0,,,,,,,,,,,,,,,,,,,,,,,,0.008186035,-0.330109592,0,0,0,,,,,,,BAMBOO,C,z,y,./images/BAMBOO.png,,,,,,,m,0,1.5987,,,,,,,,0,4,4,89,1
,,,,,,,,,,,,,,,,,199957,18,2022-01-28_15h34.21.132,lexical_decision_task_DD_L2,2021.2.3,MacIntel,60.0024001,,,,,,,,,,,,2.1475,1,,,,,,,,,,,,,,,,,,,,,,,,0.008186035,-0.330109592,0,0,0,,,,,,,QUILL,LB,m,y,./images/QUILLLB.png,,,,,,,m,1,2.1475,,,,,,,,0,5,5,31,1
,,,,,,,,,,,,,,,,,199957,18,2022-01-28_15h34.21.132,lexical_decision_task_DD_L2,2021.2.3,MacIntel,60.0024001,,,,,,,,,,,,1.4669,0,,,,,,,,,,,,,,,,,,,,,,,,0.008186035,-0.330109592,0,0,0,,,,,,,PAINT,LB,m,y,./images/PAINTLB.png,,,,,,,z,0,1.4669,,,,,,,,0,6,6,7,1
,,,,,,,,,,,,,,,,,199957,18,2022-01-28_15h34.21.132,lexical_decision_task_DD_L2,2021.2.3,MacIntel,60.0024001,,,,,,,,,,,,1.0855,1,,,,,,,,,,,,,,,,,,,,,,,,0.008186035,-0.330109592,0,0,0,,,,,,,COUCH,C,m,y,./images/COUCH.png,,,,,,,m,1,1.0855,,,,,,,,0,7,7,77,1
,,,,,,,,,,,,,,,,,199957,18,2022-01-28_15h34.21.132,lexical_decision_task_DD_L2,2021.2.3,MacIntel,60.0024001,,,,,,,,,,,,0.9659,0,,,,,,,,,,,,,,,,,,,,,,,,0.008186035,-0.330109592,0,0,0,,,,,,,BERRY,C,m,y,./images/BERRY.png,,,,,,,z,0,0.9659,,,,,,,,0,8,8,47,1
,,,,,,,,,,,,,,,,,199957,18,2022-01-28_15h34.21.132,lexical_decision_task_DD_L2,2021.2.3,MacIntel,60.0024001,,,,,,,,,,,,1.2352,1,,,,,,,,,,,,,,,,,,,,,,,,0.008186035,-0.330109592,0,0,0,,,,,,,KITTEN,HB,m,y,./images/KITTENHB.png,,,,,,,m,1,1.2352,,,,,,,,0,9,9,45,1
,,,,,,,,,,,,,,,,,199957,18,2022-01-28_15h34.21.132,lexical_decision_task_DD_L2,2021.2.3,MacIntel,60.0024001,,,,,,,,,,,,1.9674,1,,,,,,,,,,,,,,,,,,,,,,,,0.008186035,-0.330109592,0,0,0,,,,,,,CANDLE,LB,m,y,./images/CANDLELB.png,,,,,,,m,1,1.9674,,,,,,,,0,10,10,61,1
,,,,,,,,,,,,,,,,,199957,18,2022-01-28_15h34.21.132,lexical_decision_task_DD_L2,2021.2.3,MacIntel,60.0024001,,,,,,,,,,,,0.9328,1,,,,,,,,,,,,,,,,,,,,,,,,0.008186035,-0.330109592,0,0,0,,,,,,,COOKER,HB,m,y,./images/COOKERHB.png,,,,,,,m,1,0.9328,,,,,,,,0,11,11,69,1
,,,,,,,,,,,,,,,,,199957,18,2022-01-28_15h34.21.132,lexical_decision_task_DD_L2,2021.2.3,MacIntel,60.0024001,,,,,,,,,,,,1.3335,1,,,,,,,,,,,,,,,,,,,,,,,,0.008186035,-0.330109592,0,0,0,,,,,,,BRUSH,C,z,y,./images/BRUSH.png,,,,,,,z,1,1.3335,,,,,,,,0,12,12,143,1
,,,,,,,,,,,,,,,,,199957,18,2022-01-28_15h34.21.132,lexical_decision_task_DD_L2,2021.2.3,MacIntel,60.0024001,,,,,,,,,,,,1.0334,0,,,,,,,,,,,,,,,,,,,,,,,,0.008186035,-0.330109592,0,0,0,,,,,,,SUNSET,LB,m,y,./images/SUNSETLB.png,,,,,,,z,0,1.0334,,,,,,,,0,13,13,82,1
,,,,,,,,,,,,,,,,,199957,18,2022-01-28_15h34.21.132,lexical_decision_task_DD_L2,2021.2.3,MacIntel,60.0024001,,,,,,,,,,,,1.5835,0,,,,,,,,,,,,,,,,,,,,,,,,0.008186035,-0.330109592,0,0,0,,,,,,,CHERRY,HB,z,y,./images/CHERRYHB.png,,,,,,,m,0,1.5835,,,,,,,,0,14,14,138,1
,,,,,,,,,,,,,,,,,199957,18,2022-01-28_15h34.21.132,lexical_decision_task_DD_L2,2021.2.3,MacIntel,60.0024001,,,,,,,,,,,,0.8329,1,,,,,,,,,,,,,,,,,,,,,,,,0.008186035,-0.330109592,0,0,0,,,,,,,PLANK,LB,m,y,./images/PLANKLB.png,,,,,,,m,1,0.8329,,,,,,,,0,15,15,1,1
,,,,,,,,,,,,,,,,,199957,18,2022-01-28_15h34.21.132,lexical_decision_task_DD_L2,2021.2.3,MacIntel,60.0024001,,,,,,,,,,,,0.8999,1,,,,,,,,,,,,,,,,,,,,,,,,0.008186035,-0.330109592,0,0,0,,,,,,,MEDAL,C,z,y,./images/MEDAL.png,,,,,,,z,1,0.8999,,,,,,,,0,16,16,95,1
,,,,,,,,,,,,,,,,,199957,18,2022-01-28_15h34.21.132,lexical_decision_task_DD_L2,2021.2.3,MacIntel,60.0024001,,,,,,,,,,,,2.2984,0,,,,,,,,,,,,,,,,,,,,,,,,0.008186035,-0.330109592,0,0,0,,,,,,,TOWEL,LB,z,y,./images/TOWELLB.png,,,,,,,m,0,2.2984,,,,,,,,0,17,17,85,1
,,,,,,,,,,,,,,,,,199957,18,2022-01-28_15h34.21.132,lexical_decision_task_DD_L2,2021.2.3,MacIntel,60.0024001,,,,,,,,,,,,0.862,1,,,,,,,,,,,,,,,,,,,,,,,,0.008186035,-0.330109592,0,0,0,,,,,,,PIMPLE,C,m,y,./images/PIMPLE.png,,,,,,,m,1,0.862,,,,,,,,0,18,18,71,1
,,,,,,,,,,,,,,,,,199957,18,2022-01-28_15h34.21.132,lexical_decision_task_DD_L2,2021.2.3,MacIntel,60.0024001,,,,,,,,,,,,1.4814,1,,,,,,,,,,,,,,,,,,,,,,,,0.008186035,-0.330109592,0,0,0,,,,,,,POSTER,C,z,y,./images/POSTER.png,,,,,,,z,1,1.4814,,,,,,,,0,19,19,137,1
,,,,,,,,,,,,,,,,,199957,18,2022-01-28_15h34.21.132,lexical_decision_task_DD_L2,2021.2.3,MacIntel,60.0024001,,,,,,,,,,,,1.2032,1,,,,,,,,,,,,,,,,,,,,,,,,0.008186035,-0.330109592,0,0,0,,,,,,,CANYON,LB,m,y,./images/CANYONLB.png,,,,,,,m,1,1.2032,,,,,,,,0,20,20,34,1
,,,,,,,,,,,,,,,,,199957,18,2022-01-28_15h34.21.132,lexical_decision_task_DD_L2,2021.2.3,MacIntel,60.0024001,,,,,,,,,,,,1.3991,1,,,,,,,,,,,,,,,,,,,,,,,,0.008186035,-0.330109592,0,0,0,,,,,,,PEARL,LB,m,y,./images/PEARLLB.png,,,,,,,m,1,1.3991,,,,,,,,0,21,21,46,1
,,,,,,,,,,,,,,,,,199957,18,2022-01-28_15h34.21.132,lexical_decision_task_DD_L2,2021.2.3,MacIntel,60.0024001,,,,,,,,,,,,0.8337,1,,,,,,,,,,,,,,,,,,,,,,,,0.008186035,-0.330109592,0,0,0,,,,,,,BANNER,LB,m,y,./images/BANNERLB.png,,,,,,,m,1,0.8337,,,,,,,,0,22,22,52,1
,,,,,,,,,,,,,,,,,199957,18,2022-01-28_15h34.21.132,lexical_decision_task_DD_L2,2021.2.3,MacIntel,60.0024001,,,,,,,,,,,,0.9171,1,,,,,,,,,,,,,,,,,,,,,,,,0.008186035,-0.330109592,0,0,0,,,,,,,GRAIN,HB,m,y,./images/GRAINHB.png,,,,,,,m,1,0.9171,,,,,,,,0,23,23,75,1
,,,,,,,,,,,,,,,,,199957,18,2022-01-28_15h34.21.132,lexical_decision_task_DD_L2,2021.2.3,MacIntel,60.0024001,,,,,,,,,,,,0.9006,1,,,,,,,,,,,,,,,,,,,,,,,,0.008186035,-0.330109592,0,0,0,,,,,,,CRUST,LB,m,y,./images/CRUSTLB.png,,,,,,,m,1,0.9006,,,,,,,,0,24,24,79,1
,,,,,,,,,,,,,,,,,199957,18,2022-01-28_15h34.21.132,lexical_decision_task_DD_L2,2021.2.3,MacIntel,60.0024001,,,,,,,,,,,,0.9653,0,,,,,,,,,,,,,,,,,,,,,,,,0.008186035,-0.330109592,0,0,0,,,,,,,JELLY,LB,m,y,./images/JELLYLB.png,,,,,,,z,0,0.9653,,,,,,,,0,25,25,64,1
,,,,,,,,,,,,,,,,,199957,18,2022-01-28_15h34.21.132,lexical_decision_task_DD_L2,2021.2.3,MacIntel,60.0024001,,,,,,,,,,,,0.8168,0,,,,,,,,,,,,,,,,,,,,,,,,0.008186035,-0.330109592,0,0,0,,,,,,,LITTER,HB,m,y,./images/LITTERHB.png,,,,,,,z,0,0.8168,,,,,,,,0,26,26,78,1
,,,,,,,,,,,,,,,,,199957,18,2022-01-28_15h34.21.132,lexical_decision_task_DD_L2,2021.2.3,MacIntel,60.0024001,,,,,,,,,,,,2.2784,1,,,,,,,,,,,,,,,,,,,,,,,,0.008186035,-0.330109592,0,0,0,,,,,,,SNACK,LB,m,y,./images/SNACKLB.png,,,,,,,m,1,2.2784,,,,,,,,0,27,27,73,1
,,,,,,,,,,,,,,,,,199957,18,2022-01-28_15h34.21.132,lexical_decision_task_DD_L2,2021.2.3,MacIntel,60.0024001,,,,,,,,,,,,3.0645,0,,,,,,,,,,,,,,,,,,,,,,,,0.008186035,-0.330109592,0,0,0,,,,,,,LLAMA,C,z,y,./images/LLAMA.png,,,,,,,m,0,3.0645,,,,,,,,0,28,28,119,1
,,,,,,,,,,,,,,,,,199957,18,2022-01-28_15h34.21.132,lexical_decision_task_DD_L2,2021.2.3,MacIntel,60.0024001,,,,,,,,,,,,1.521,1,,,,,,,,,,,,,,,,,,,,,,,,0.008186035,-0.330109592,0,0,0,,,,,,,SPORT,HB,m,y,./images/SPORTHB.png,,,,,,,m,1,1.521,,,,,,,,0,29,29,48,1
,,,,,,,,,,,,,,,,,199957,18,2022-01-28_15h34.21.132,lexical_decision_task_DD_L2,2021.2.3,MacIntel,60.0024001,,,,,,,,,,,,1.5509,1,,,,,,,,,,,,,,,,,,,,,,,,0.008186035,-0.330109592,0,0,0,,,,,,,SHIELD,HB,z,y,./images/SHIELDHB.png,,,,,,,z,1,1.5509,,,,,,,,0,30,30,132,1
,,,,,,,,,,,,,,,,,199957,18,2022-01-28_15h34.21.132,lexical_decision_task_DD_L2,2021.2.3,MacIntel,60.0024001,,,,,,,,,,,,1.2478,1,,,,,,,,,,,,,,,,,,,,,,,,0.008186035,-0.330109592,0,0,0,,,,,,,SHORE,HB,m,y,./images/SHOREHB.png,,,,,,,m,1,1.2478,,,,,,,,0,31,31,12,1
,,,,,,,,,,,,,,,,,199957,18,2022-01-28_15h34.21.132,lexical_decision_task_DD_L2,2021.2.3,MacIntel,60.0024001,,,,,,,,,,,,1.5321,1,,,,,,,,,,,,,,,,,,,,,,,,0.008186035,-0.330109592,0,0,0,,,,,,,FOLDER,HB,m,y,./images/FOLDERHB.png,,,,,,,m,1,1.5321,,,,,,,,0,32,32,42,1
,,,,,,,,,,,,,,,,,199957,18,2022-01-28_15h34.21.132,lexical_decision_task_DD_L2,2021.2.3,MacIntel,60.0024001,,,,,,,,,,,,2.3974,1,,,,,,,,,,,,,,,,,,,,,,,,0.008186035,-0.330109592,0,0,0,,,,,,,GRAPE,LB,z,y,./images/GRAPELB.png,,,,,,,z,1,2.3974,,,,,,,,0,33,33,100,1
,,,,,,,,,,,,,,,,,199957,18,2022-01-28_15h34.21.132,lexical_decision_task_DD_L2,2021.2.3,MacIntel,60.0024001,,,,,,,,,,,,2.485,0,,,,,,,,,,,,,,,,,,,,,,,,0.008186035,-0.330109592,0,0,0,,,,,,,FLASK,HB,z,y,./images/FLASKHB.png,,,,,,,m,0,2.485,,,,,,,,0,34,34,156,1
,,,,,,,,,,,,,,,,,199957,18,2022-01-28_15h34.21.132,lexical_decision_task_DD_L2,2021.2.3,MacIntel,60.0024001,,,,,,,,,,,,1.2333,0,,,,,,,,,,,,,,,,,,,,,,,,0.008186035,-0.330109592,0,0,0,,,,,,,PASTA,C,m,y,./images/PASTA.png,,,,,,,z,0,1.2333,,,,,,,,0,35,35,5,1
,,,,,,,,,,,,,,,,,199957,18,2022-01-28_15h34.21.132,lexical_decision_task_DD_L2,2021.2.3,MacIntel,60.0024001,,,,,,,,,,,,1.8812,1,,,,,,,,,,,,,,,,,,,,,,,,0.008186035,-0.330109592,0,0,0,,,,,,,GRANNY,C,z,y,./images/GRANNY.png,,,,,,,z,1,1.8812,,,,,,,,0,36,36,104,1
,,,,,,,,,,,,,,,,,199957,18,2022-01-28_15h34.21.132,lexical_decision_task_DD_L2,2021.2.3,MacIntel,60.0024001,,,,,,,,,,,,1.1513,1,,,,,,,,,,,,,,,,,,,,,,,,0.008186035,-0.330109592,0,0,0,,,,,,,TOMATO,HB,m,y,./images/TOMATOHB.png,,,,,,,m,1,1.1513,,,,,,,,0,37,37,0,1
,,,,,,,,,,,,,,,,,199957,18,2022-01-28_15h34.21.132,lexical_decision_task_DD_L2,2021.2.3,MacIntel,60.0024001,,,,,,,,,,,,1.2949,1,,,,,,,,,,,,,,,,,,,,,,,,0.008186035,-0.330109592,0,0,0,,,,,,,WHISKY,C,z,y,./images/WHISKY.png,,,,,,,z,1,1.2949,,,,,,,,0,38,38,167,1
,,,,,,,,,,,,,,,,,199957,18,2022-01-28_15h34.21.132,lexical_decision_task_DD_L2,2021.2.3,MacIntel,60.0024001,,,,,,,,,,,,2.9815,1,,,,,,,,,,,,,,,,,,,,,,,,0.008186035,-0.330109592,0,0,0,,,,,,,KIDNEY,HB,m,y,./images/KIDNEYHB.png,,,,,,,m,1,2.9815,,,,,,,,0,39,39,21,1
,,,,,,,,,,,,,,,,,199957,18,2022-01-28_15h34.21.132,lexical_decision_task_DD_L2,2021.2.3,MacIntel,60.0024001,,,,,,,,,,,,1.4616,1,,,,,,,,,,,,,,,,,,,,,,,,0.008186035,-0.330109592,0,0,0,,,,,,,WRIST,LB,m,y,./images/WRISTLB.png,,,,,,,m,1,1.4616,,,,,,,,0,40,40,25,1
,,,,,,,,,,,,,,,,,199957,18,2022-01-28_15h34.21.132,lexical_decision_task_DD_L2,2021.2.3,MacIntel,60.0024001,,,,,,,,,,,,2.7169,0,,,,,,,,,,,,,,,,,,,,,,,,0.026284926,-0.389942152,0,0,0,space,,,,,,CANOE,LB,z,y,./images/CANOELB.png,820.9115,,,,,,m,0,2.7169,,,,,,,,0,41,41,142,1
,,,,,,,,,,,,,,,,,199957,18,2022-01-28_15h34.21.132,lexical_decision_task_DD_L2,2021.2.3,MacIntel,60.0024001,,,,,,,,,,,,2.526,0,,,,,,,,,,,,,,,,,,,,,,,,0.026284926,-0.389942152,0,0,0,,,,,,,CEMENT,C,m,y,./images/CEMENT.png,,,,,,,z,0,2.526,,,,,,,,0,42,42,74,1
,,,,,,,,,,,,,,,,,199957,18,2022-01-28_15h34.21.132,lexical_decision_task_DD_L2,2021.2.3,MacIntel,60.0024001,,,,,,,,,,,,1.2634,1,,,,,,,,,,,,,,,,,,,,,,,,0.026284926,-0.389942152,0,0,0,,,,,,,BEARD,C,m,y,./images/BEARD.png,,,,,,,m,1,1.2634,,,,,,,,0,43,43,2,1
,,,,,,,,,,,,,,,,,199957,18,2022-01-28_15h34.21.132,lexical_decision_task_DD_L2,2021.2.3,MacIntel,60.0024001,,,,,,,,,,,,0.845,1,,,,,,,,,,,,,,,,,,,,,,,,0.026284926,-0.389942152,0,0,0,,,,,,,TULIP,C,m,y,./images/TULIP.png,,,,,,,m,1,0.845,,,,,,,,0,44,44,8,1
,,,,,,,,,,,,,,,,,199957,18,2022-01-28_15h34.21.132,lexical_decision_task_DD_L2,2021.2.3,MacIntel,60.0024001,,,,,,,,,,,,0.7774,1,,,,,,,,,,,,,,,,,,,,,,,,0.026284926,-0.389942152,0,0,0,,,,,,,POODLE,HB,m,y,./images/POODLEHB.png,,,,,,,m,1,0.7774,,,,,,,,0,45,45,81,1
,,,,,,,,,,,,,,,,,199957,18,2022-01-28_15h34.21.132,lexical_decision_task_DD_L2,2021.2.3,MacIntel,60.0024001,,,,,,,,,,,,1.2837,0,,,,,,,,,,,,,,,,,,,,,,,,0.026284926,-0.389942152,0,0,0,,,,,,,CHALK,LB,z,y,./images/CHALKLB.png,,,,,,,m,0,1.2837,,,,,,,,0,46,46,109,1
,,,,,,,,,,,,,,,,,199957,18,2022-01-28_15h34.21.132,lexical_decision_task_DD_L2,2021.2.3,MacIntel,60.0024001,,,,,,,,,,,,0.9149,1,,,,,,,,,,,,,,,,,,,,,,,,0.026284926,-0.389942152,0,0,0,,,,,,,CANDY,HB,z,y,./images/CANDYHB.png,,,,,,,z,1,0.9149,,,,,,,,0,47,47,123,1
,,,,,,,,,,,,,,,,,199957,18,2022-01-28_15h34.21.132,lexical_decision_task_DD_L2,2021.2.3,MacIntel,60.0024001,,,,,,,,,,,,3.1501,1,,,,,,,,,,,,,,,,,,,,,,,,0.026284926,-0.389942152,0,0,0,,,,,,,MALLET,C,m,y,./images/MALLET.png,,,,,,,m,1,3.1501,,,,,,,,0,48,48,50,1
,,,,,,,,,,,,,,,,,199957,18,2022-01-28_15h34.21.132,lexical_decision_task_DD_L2,2021.2.3,MacIntel,60.0024001,,,,,,,,,,,,2.8821,1,,,,,,,,,,,,,,,,,,,,,,,,0.026284926,-0.389942152,0,0,0,,,,,,,CLOWN,LB,z,y,./images/CLOWNLB.png,,,,,,,z,1,2.8821,,,,,,,,0,49,49,106,1
,,,,,,,,,,,,,,,,,199957,18,2022-01-28_15h34.21.132,lexical_decision_task_DD_L2,2021.2.3,MacIntel,60.0024001,,,,,,,,,,,,3.1656,1,,,,,,,,,,,,,,,,,,,,,,,,0.026284926,-0.389942152,0,0,0,,,,,,,BROOM,HB,z,y,./images/BROOMHB.png,,,,,,,z,1,3.1656,,,,,,,,0,50,50,162,1
,,,,,,,,,,,,,,,,,199957,18,2022-01-28_15h34.21.132,lexical_decision_task_DD_L2,2021.2.3,MacIntel,60.0024001,,,,,,,,,,,,1.017,1,,,,,,,,,,,,,,,,,,,,,,,,0.026284926,-0.389942152,0,0,0,,,,,,,SQUARE,HB,m,y,./images/SQUAREHB.png,,,,,,,m,1,1.017,,,,,,,,0,51,51,6,1
,,,,,,,,,,,,,,,,,199957,18,2022-01-28_15h34.21.132,lexical_decision_task_DD_L2,2021.2.3,MacIntel,60.0024001,,,,,,,,,,,,1.284,1,,,,,,,,,,,,,,,,,,,,,,,,0.026284926,-0.389942152,0,0,0,,,,,,,BANANA,LB,z,y,./images/BANANALB.png,,,,,,,z,1,1.284,,,,,,,,0,52,52,154,1
,,,,,,,,,,,,,,,,,199957,18,2022-01-28_15h34.21.132,lexical_decision_task_DD_L2,2021.2.3,MacIntel,60.0024001,,,,,,,,,,,,1.2824,1,,,,,,,,,,,,,,,,,,,,,,,,0.026284926,-0.389942152,0,0,0,,,,,,,FINGER,HB,m,y,./images/FINGERHB.png,,,,,,,m,1,1.2824,,,,,,,,0,53,53,3,1
,,,,,,,,,,,,,,,,,199957,18,2022-01-28_15h34.21.132,lexical_decision_task_DD_L2,2021.2.3,MacIntel,60.0024001,,,,,,,,,,,,1.0196,1,,,,,,,,,,,,,,,,,,,,,,,,0.026284926,-0.389942152,0,0,0,,,,,,,STOVE,C,z,y,./images/STOVE.png,,,,,,,z,1,1.0196,,,,,,,,0,54,54,86,1
,,,,,,,,,,,,,,,,,199957,18,2022-01-28_15h34.21.132,lexical_decision_task_DD_L2,2021.2.3,MacIntel,60.0024001,,,,,,,,,,,,0.8829,1,,,,,,,,,,,,,,,,,,,,,,,,0.026284926,-0.389942152,0,0,0,,,,,,,RAZOR,LB,z,y,./images/RAZORLB.png,,,,,,,z,1,0.8829,,,,,,,,0,55,55,118,1
,,,,,,,,,,,,,,,,,199957,18,2022-01-28_15h34.21.132,lexical_decision_task_DD_L2,2021.2.3,MacIntel,60.0024001,,,,,,,,,,,,1.4813,0,,,,,,,,,,,,,,,,,,,,,,,,0.026284926,-0.389942152,0,0,0,,,,,,,BELLY,LB,m,y,./images/BELLYLB.png,,,,,,,z,0,1.4813,,,,,,,,0,56,56,10,1
,,,,,,,,,,,,,,,,,199957,18,2022-01-28_15h34.21.132,lexical_decision_task_DD_L2,2021.2.3,MacIntel,60.0024001,,,,,,,,,,,,0.9473,1,,,,,,,,,,,,,,,,,,,,,,,,0.026284926,-0.389942152,0,0,0,,,,,,,MOOSE,HB,m,y,./images/MOOSEHB.png,,,,,,,m,1,0.9473,,,,,,,,0,57,57,57,1
,,,,,,,,,,,,,,,,,199957,18,2022-01-28_15h34.21.132,lexical_decision_task_DD_L2,2021.2.3,MacIntel,60.0024001,,,,,,,,,,,,0.9002,0,,,,,,,,,,,,,,,,,,,,,,,,0.026284926,-0.389942152,0,0,0,,,,,,,CRATER,HB,z,y,./images/CRATERHB.png,,,,,,,m,0,0.9002,,,,,,,,0,58,58,87,1
,,,,,,,,,,,,,,,,,199957,18,2022-01-28_15h34.21.132,lexical_decision_task_DD_L2,2021.2.3,MacIntel,60.0024001,,,,,,,,,,,,1.5609,1,,,,,,,,,,,,,,,,,,,,,,,,0.026284926,-0.389942152,0,0,0,,,,,,,GREASE,HB,m,y,./images/GREASEHB.png,,,,,,,m,1,1.5609,,,,,,,,0,59,59,15,1
,,,,,,,,,,,,,,,,,199957,18,2022-01-28_15h34.21.132,lexical_decision_task_DD_L2,2021.2.3,MacIntel,60.0024001,,,,,,,,,,,,1.519,1,,,,,,,,,,,,,,,,,,,,,,,,0.026284926,-0.389942152,0,0,0,,,,,,,VALLEY,C,z,y,./images/VALLEY.png,,,,,,,z,1,1.519,,,,,,,,0,60,60,152,1
,,,,,,,,,,,,,,,,,199957,18,2022-01-28_15h34.21.132,lexical_decision_task_DD_L2,2021.2.3,MacIntel,60.0024001,,,,,,,,,,,,1.1281,1,,,,,,,,,,,,,,,,,,,,,,,,0.026284926,-0.389942152,0,0,0,,,,,,,STATUE,HB,z,y,./images/STATUEHB.png,,,,,,,z,1,1.1281,,,,,,,,0,61,61,150,1
,,,,,,,,,,,,,,,,,199957,18,2022-01-28_15h34.21.132,lexical_decision_task_DD_L2,2021.2.3,MacIntel,60.0024001,,,,,,,,,,,,1.248,1,,,,,,,,,,,,,,,,,,,,,,,,0.026284926,-0.389942152,0,0,0,,,,,,,FERRY,HB,z,y,./images/FERRYHB.png,,,,,,,z,1,1.248,,,,,,,,0,62,62,141,1
,,,,,,,,,,,,,,,,,199957,18,2022-01-28_15h34.21.132,lexical_decision_task_DD_L2,2021.2.3,MacIntel,60.0024001,,,,,,,,,,,,0.8667,1,,,,,,,,,,,,,,,,,,,,,,,,0.026284926,-0.389942152,0,0,0,,,,,,,URINE,LB,m,y,./images/URINELB.png,,,,,,,m,1,0.8667,,,,,,,,0,63,63,70,1
,,,,,,,,,,,,,,,,,199957,18,2022-01-28_15h34.21.132,lexical_decision_task_DD_L2,2021.2.3,MacIntel,60.0024001,,,,,,,,,,,,0.8299,1,,,,,,,,,,,,,,,,,,,,,,,,0.026284926,-0.389942152,0,0,0,,,,,,,CASINO,LB,z,y,./images/CASINOLB.png,,,,,,,z,1,0.8299,,,,,,,,0,64,64,112,1
,,,,,,,,,,,,,,,,,199957,18,2022-01-28_15h34.21.132,lexical_decision_task_DD_L2,2021.2.3,MacIntel,60.0024001,,,,,,,,,,,,0.882,1,,,,,,,,,,,,,,,,,,,,,,,,0.026284926,-0.389942152,0,0,0,,,,,,,RULER,LB,z,y,./images/RULERLB.png,,,,,,,z,1,0.882,,,,,,,,0,65,65,163,1
,,,,,,,,,,,,,,,,,199957,18,2022-01-28_15h34.21.132,lexical_decision_task_DD_L2,2021.2.3,MacIntel,60.0024001,,,,,,,,,,,,0.8319,1,,,,,,,,,,,,,,,,,,,,,,,,0.026284926,-0.389942152,0,0,0,,,,,,,MOSQUE,LB,m,y,./images/MOSQUELB.png,,,,,,,m,1,0.8319,,,,,,,,0,66,66,43,1
,,,,,,,,,,,,,,,,,199957,18,2022-01-28_15h34.21.132,lexical_decision_task_DD_L2,2021.2.3,MacIntel,60.0024001,,,,,,,,,,,,1.5168,1,,,,,,,,,,,,,,,,,,,,,,,,0.026284926,-0.389942152,0,0,0,,,,,,,DRUMS,LB,m,y,./images/DRUMSLB.png,,,,,,,m,1,1.5168,,,,,,,,0,67,67,49,1
,,,,,,,,,,,,,,,,,199957,18,2022-01-28_15h34.21.132,lexical_decision_task_DD_L2,2021.2.3,MacIntel,60.0024001,,,,,,,,,,,,0.9488,1,,,,,,,,,,,,,,,,,,,,,,,,0.026284926,-0.389942152,0,0,0,,,,,,,TIGER,LB,z,y,./images/TIGERLB.png,,,,,,,z,1,0.9488,,,,,,,,0,68,68,121,1
,,,,,,,,,,,,,,,,,199957,18,2022-01-28_15h34.21.132,lexical_decision_task_DD_L2,2021.2.3,MacIntel,60.0024001,,,,,,,,,,,,0.7635,1,,,,,,,,,,,,,,,,,,,,,,,,0.026284926,-0.389942152,0,0,0,,,,,,,PLANET,C,z,y,./images/PLANET.png,,,,,,,z,1,0.7635,,,,,,,,0,69,69,164,1
,,,,,,,,,,,,,,,,,199957,18,2022-01-28_15h34.21.132,lexical_decision_task_DD_L2,2021.2.3,MacIntel,60.0024001,,,,,,,,,,,,0.7676,1,,,,,,,,,,,,,,,,,,,,,,,,0.026284926,-0.389942152,0,0,0,,,,,,,SWING,LB,m,y,./images/SWINGLB.png,,,,,,,m,1,0.7676,,,,,,,,0,70,70,40,1
,,,,,,,,,,,,,,,,,199957,18,2022-01-28_15h34.21.132,lexical_decision_task_DD_L2,2021.2.3,MacIntel,60.0024001,,,,,,,,,,,,0.9968,1,,,,,,,,,,,,,,,,,,,,,,,,0.026284926,-0.389942152,0,0,0,,,,,,,BOXER,LB,z,y,./images/BOXERLB.png,,,,,,,z,1,0.9968,,,,,,,,0,71,71,88,1
,,,,,,,,,,,,,,,,,199957,18,2022-01-28_15h34.21.132,lexical_decision_task_DD_L2,2021.2.3,MacIntel,60.0024001,,,,,,,,,,,,1.0012,1,,,,,,,,,,,,,,,,,,,,,,,,0.026284926,-0.389942152,0,0,0,,,,,,,ENGINE,C,z,y,./images/ENGINE.png,,,,,,,z,1,1.0012,,,,,,,,0,72,72,122,1
,,,,,,,,,,,,,,,,,199957,18,2022-01-28_15h34.21.132,lexical_decision_task_DD_L2,2021.2.3,MacIntel,60.0024001,,,,,,,,,,,,1.0346,1,,,,,,,,,,,,,,,,,,,,,,,,0.026284926,-0.389942152,0,0,0,,,,,,,CURRY,HB,z,y,./images/CURRYHB.png,,,,,,,z,1,1.0346,,,,,,,,0,73,73,144,1
,,,,,,,,,,,,,,,,,199957,18,2022-01-28_15h34.21.132,lexical_decision_task_DD_L2,2021.2.3,MacIntel,60.0024001,,,,,,,,,,,,0.9003,1,,,,,,,,,,,,,,,,,,,,,,,,0.026284926,-0.389942152,0,0,0,,,,,,,BASKET,C,z,y,./images/BASKET.png,,,,,,,z,1,0.9003,,,,,,,,0,74,74,128,1
,,,,,,,,,,,,,,,,,199957,18,2022-01-28_15h34.21.132,lexical_decision_task_DD_L2,2021.2.3,MacIntel,60.0024001,,,,,,,,,,,,0.7817,1,,,,,,,,,,,,,,,,,,,,,,,,0.026284926,-0.389942152,0,0,0,,,,,,,GARDEN,LB,z,y,./images/GARDENLB.png,,,,,,,z,1,0.7817,,,,,,,,0,75,75,94,1
,,,,,,,,,,,,,,,,,199957,18,2022-01-28_15h34.21.132,lexical_decision_task_DD_L2,2021.2.3,MacIntel,60.0024001,,,,,,,,,,,,0.7327,1,,,,,,,,,,,,,,,,,,,,,,,,0.026284926,-0.389942152,0,0,0,,,,,,,DOUGH,LB,m,y,./images/DOUGHLB.png,,,,,,,m,1,0.7327,,,,,,,,0,76,76,19,1
,,,,,,,,,,,,,,,,,199957,18,2022-01-28_15h34.21.132,lexical_decision_task_DD_L2,2021.2.3,MacIntel,60.0024001,,,,,,,,,,,,0.7177,1,,,,,,,,,,,,,,,,,,,,,,,,0.026284926,-0.389942152,0,0,0,,,,,,,WEASEL,C,m,y,./images/WEASEL.png,,,,,,,m,1,0.7177,,,,,,,,0,77,77,80,1
,,,,,,,,,,,,,,,,,199957,18,2022-01-28_15h34.21.132,lexical_decision_task_DD_L2,2021.2.3,MacIntel,60.0024001,,,,,,,,,,,,1.165,1,,,,,,,,,,,,,,,,,,,,,,,,0.026284926,-0.389942152,0,0,0,,,,,,,SAUNA,HB,z,y,./images/SAUNAHB.png,,,,,,,z,1,1.165,,,,,,,,0,78,78,117,1
,,,,,,,,,,,,,,,,,199957,18,2022-01-28_15h34.21.132,lexical_decision_task_DD_L2,2021.2.3,MacIntel,60.0024001,,,,,,,,,,,,0.8965,1,,,,,,,,,,,,,,,,,,,,,,,,0.026284926,-0.389942152,0,0,0,,,,,,,BUBBLE,C,z,y,./images/BUBBLE.png,,,,,,,z,1,0.8965,,,,,,,,0,79,79,155,1
,,,,,,,,,,,,,,,,,199957,18,2022-01-28_15h34.21.132,lexical_decision_task_DD_L2,2021.2.3,MacIntel,60.0024001,,,,,,,,,,,,0.6691,1,,,,,,,,,,,,,,,,,,,,,,,,0.026284926,-0.389942152,0,0,0,,,,,,,BURIAL,C,m,y,./images/BURIAL.png,,,,,,,m,1,0.6691,,,,,,,,0,80,80,59,1
,,,,,,,,,,,,,,,,,199957,18,2022-01-28_15h34.21.132,lexical_decision_task_DD_L2,2021.2.3,MacIntel,60.0024001,,,,,,,,,,,,0.9016,0,,,,,,,,,,,,,,,,,,,,,,,,0.026284926,-0.389942152,0,0,0,,,,,,,ALLEY,LB,z,y,./images/ALLEYLB.png,,,,,,,m,0,0.9016,,,,,,,,0,81,81,139,1
,,,,,,,,,,,,,,,,,199957,18,2022-01-28_15h34.21.132,lexical_decision_task_DD_L2,2021.2.3,MacIntel,60.0024001,,,,,,,,,,,,0.5809,1,,,,,,,,,,,,,,,,,,,,,,,,0.026284926,-0.389942152,0,0,0,,,,,,,ONION,HB,m,y,./images/ONIONHB.png,,,,,,,m,1,0.5809,,,,,,,,0,82,82,51,1
,,,,,,,,,,,,,,,,,199957,18,2022-01-28_15h34.21.132,lexical_decision_task_DD_L2,2021.2.3,MacIntel,60.0024001,,,,,,,,,,,,0.6656,0,,,,,,,,,,,,,,,,,,,,,,,,0.029005398,-0.384651964,0,0,0,space,,,,,,BAKER,HB,z,y,./images/BAKERHB.png,15.7166,,,,,,m,0,0.6656,,,,,,,,0,83,83,147,1
,,,,,,,,,,,,,,,,,199957,18,2022-01-28_15h34.21.132,lexical_decision_task_DD_L2,2021.2.3,MacIntel,60.0024001,,,,,,,,,,,,1.8037,1,,,,,,,,,,,,,,,,,,,,,,,,0.029005398,-0.384651964,0,0,0,,,,,,,SKIING,C,m,y,./images/SKIING.png,,,,,,,m,1,1.8037,,,,,,,,0,84,84,17,1
,,,,,,,,,,,,,,,,,199957,18,2022-01-28_15h34.21.132,lexical_decision_task_DD_L2,2021.2.3,MacIntel,60.0024001,,,,,,,,,,,,1.0301,1,,,,,,,,,,,,,,,,,,,,,,,,0.029005398,-0.384651964,0,0,0,,,,,,,PENCE,LB,m,y,./images/PENCELB.png,,,,,,,m,1,1.0301,,,,,,,,0,85,85,16,1
,,,,,,,,,,,,,,,,,199957,18,2022-01-28_15h34.21.132,lexical_decision_task_DD_L2,2021.2.3,MacIntel,60.0024001,,,,,,,,,,,,0.7328,1,,,,,,,,,,,,,,,,,,,,,,,,0.029005398,-0.384651964,0,0,0,,,,,,,STORM,HB,m,y,./images/STORMHB.png,,,,,,,m,1,0.7328,,,,,,,,0,86,86,30,1
,,,,,,,,,,,,,,,,,199957,18,2022-01-28_15h34.21.132,lexical_decision_task_DD_L2,2021.2.3,MacIntel,60.0024001,,,,,,,,,,,,0.9292,1,,,,,,,,,,,,,,,,,,,,,,,,0.029005398,-0.384651964,0,0,0,,,,,,,TRIPOD,HB,m,y,./images/TRIPODHB.png,,,,,,,m,1,0.9292,,,,,,,,0,87,87,54,1
,,,,,,,,,,,,,,,,,199957,18,2022-01-28_15h34.21.132,lexical_decision_task_DD_L2,2021.2.3,MacIntel,60.0024001,,,,,,,,,,,,0.8835,1,,,,,,,,,,,,,,,,,,,,,,,,0.029005398,-0.384651964,0,0,0,,,,,,,GLOVE,LB,z,y,./images/GLOVELB.png,,,,,,,z,1,0.8835,,,,,,,,0,88,88,157,1
,,,,,,,,,,,,,,,,,199957,18,2022-01-28_15h34.21.132,lexical_decision_task_DD_L2,2021.2.3,MacIntel,60.0024001,,,,,,,,,,,,1.9016,0,,,,,,,,,,,,,,,,,,,,,,,,0.029005398,-0.384651964,0,0,0,,,,,,,CLIFF,C,z,y,./images/CLIFF.png,,,,,,,m,0,1.9016,,,,,,,,0,89,89,92,1
,,,,,,,,,,,,,,,,,199957,18,2022-01-28_15h34.21.132,lexical_decision_task_DD_L2,2021.2.3,MacIntel,60.0024001,,,,,,,,,,,,0.7685,1,,,,,,,,,,,,,,,,,,,,,,,,0.029005398,-0.384651964,0,0,0,,,,,,,THROAT,HB,m,y,./images/THROATHB.png,,,,,,,m,1,0.7685,,,,,,,,0,90,90,36,1
,,,,,,,,,,,,,,,,,199957,18,2022-01-28_15h34.21.132,lexical_decision_task_DD_L2,2021.2.3,MacIntel,60.0024001,,,,,,,,,,,,0.969,1,,,,,,,,,,,,,,,,,,,,,,,,0.029005398,-0.384651964,0,0,0,,,,,,,POKER,LB,z,y,./images/POKERLB.png,,,,,,,z,1,0.969,,,,,,,,0,91,91,151,1
,,,,,,,,,,,,,,,,,199957,18,2022-01-28_15h34.21.132,lexical_decision_task_DD_L2,2021.2.3,MacIntel,60.0024001,,,,,,,,,,,,0.9812,0,,,,,,,,,,,,,,,,,,,,,,,,0.029005398,-0.384651964,0,0,0,,,,,,,LAGOON,C,z,y,./images/LAGOON.png,,,,,,,m,0,0.9812,,,,,,,,0,92,92,131,1
,,,,,,,,,,,,,,,,,199957,18,2022-01-28_15h34.21.132,lexical_decision_task_DD_L2,2021.2.3,MacIntel,60.0024001,,,,,,,,,,,,1.6985,1,,,,,,,,,,,,,,,,,,,,,,,,0.029005398,-0.384651964,0,0,0,,,,,,,WALNUT,HB,z,y,./images/WALNUTHB.png,,,,,,,z,1,1.6985,,,,,,,,0,93,93,84,1
,,,,,,,,,,,,,,,,,199957,18,2022-01-28_15h34.21.132,lexical_decision_task_DD_L2,2021.2.3,MacIntel,60.0024001,,,,,,,,,,,,1.4331,1,,,,,,,,,,,,,,,,,,,,,,,,0.029005398,-0.384651964,0,0,0,,,,,,,MUSCLE,LB,m,y,./images/MUSCLELB.png,,,,,,,m,1,1.4331,,,,,,,,0,94,94,4,1
,,,,,,,,,,,,,,,,,199957,18,2022-01-28_15h34.21.132,lexical_decision_task_DD_L2,2021.2.3,MacIntel,60.0024001,,,,,,,,,,,,1.0345,1,,,,,,,,,,,,,,,,,,,,,,,,0.029005398,-0.384651964,0,0,0,,,,,,,CARPET,C,m,y,./images/CARPET.png,,,,,,,m,1,1.0345,,,,,,,,0,95,95,53,1
,,,,,,,,,,,,,,,,,199957,18,2022-01-28_15h34.21.132,lexical_decision_task_DD_L2,2021.2.3,MacIntel,60.0024001,,,,,,,,,,,,1.5336,0,,,,,,,,,,,,,,,,,,,,,,,,0.029005398,-0.384651964,0,0,0,,,,,,,MIDGET,LB,z,y,./images/MIDGETLB.png,,,,,,,m,0,1.5336,,,,,,,,0,96,96,160,1
,,,,,,,,,,,,,,,,,199957,18,2022-01-28_15h34.21.132,lexical_decision_task_DD_L2,2021.2.3,MacIntel,60.0024001,,,,,,,,,,,,1.2139,0,,,,,,,,,,,,,,,,,,,,,,,,0.029005398,-0.384651964,0,0,0,,,,,,,SAUCE,HB,z,y,./images/SAUCEHB.png,,,,,,,m,0,1.2139,,,,,,,,0,97,97,135,1
,,,,,,,,,,,,,,,,,199957,18,2022-01-28_15h34.21.132,lexical_decision_task_DD_L2,2021.2.3,MacIntel,60.0024001,,,,,,,,,,,,1.0551,0,,,,,,,,,,,,,,,,,,,,,,,,0.029005398,-0.384651964,0,0,0,,,,,,,WAGON,LB,z,y,./images/WAGONLB.png,,,,,,,m,0,1.0551,,,,,,,,0,98,98,91,1
,,,,,,,,,,,,,,,,,199957,18,2022-01-28_15h34.21.132,lexical_decision_task_DD_L2,2021.2.3,MacIntel,60.0024001,,,,,,,,,,,,1.6147,0,,,,,,,,,,,,,,,,,,,,,,,,0.029005398,-0.384651964,0,0,0,,,,,,,LIZARD,C,m,y,./images/LIZARD.png,,,,,,,z,0,1.6147,,,,,,,,0,99,99,44,1
,,,,,,,,,,,,,,,,,199957,18,2022-01-28_15h34.21.132,lexical_decision_task_DD_L2,2021.2.3,MacIntel,60.0024001,,,,,,,,,,,,0.9344,0,,,,,,,,,,,,,,,,,,,,,,,,0.029005398,-0.384651964,0,0,0,,,,,,,MELON,LB,m,y,./images/MELONLB.png,,,,,,,z,0,0.9344,,,,,,,,0,100,100,22,1
,,,,,,,,,,,,,,,,,199957,18,2022-01-28_15h34.21.132,lexical_decision_task_DD_L2,2021.2.3,MacIntel,60.0024001,,,,,,,,,,,,1.0118,0,,,,,,,,,,,,,,,,,,,,,,,,0.029005398,-0.384651964,0,0,0,,,,,,,SNAKE,LB,z,y,./images/SNAKELB.png,,,,,,,m,0,1.0118,,,,,,,,0,101,101,124,1
,,,,,,,,,,,,,,,,,199957,18,2022-01-28_15h34.21.132,lexical_decision_task_DD_L2,2021.2.3,MacIntel,60.0024001,,,,,,,,,,,,0.8467,1,,,,,,,,,,,,,,,,,,,,,,,,0.029005398,-0.384651964,0,0,0,,,,,,,BABOON,LB,m,y,./images/BABOONLB.png,,,,,,,m,1,0.8467,,,,,,,,0,102,102,58,1
,,,,,,,,,,,,,,,,,199957,18,2022-01-28_15h34.21.132,lexical_decision_task_DD_L2,2021.2.3,MacIntel,60.0024001,,,,,,,,,,,,0.8154,1,,,,,,,,,,,,,,,,,,,,,,,,0.029005398,-0.384651964,0,0,0,,,,,,,FARMER,C,m,y,./images/FARMER.png,,,,,,,m,1,0.8154,,,,,,,,0,103,103,65,1
,,,,,,,,,,,,,,,,,199957,18,2022-01-28_15h34.21.132,lexical_decision_task_DD_L2,2021.2.3,MacIntel,60.0024001,,,,,,,,,,,,0.6833,1,,,,,,,,,,,,,,,,,,,,,,,,0.029005398,-0.384651964,0,0,0,,,,,,,ARTIST,LB,z,y,./images/ARTISTLB.png,,,,,,,z,1,0.6833,,,,,,,,0,104,104,145,1
,,,,,,,,,,,,,,,,,199957,18,2022-01-28_15h34.21.132,lexical_decision_task_DD_L2,2021.2.3,MacIntel,60.0024001,,,,,,,,,,,,1.0491,1,,,,,,,,,,,,,,,,,,,,,,,,0.029005398,-0.384651964,0,0,0,,,,,,,SAILOR,LB,m,y,./images/SAILORLB.png,,,,,,,m,1,1.0491,,,,,,,,0,105,105,67,1
,,,,,,,,,,,,,,,,,199957,18,2022-01-28_15h34.21.132,lexical_decision_task_DD_L2,2021.2.3,MacIntel,60.0024001,,,,,,,,,,,,1.0659,1,,,,,,,,,,,,,,,,,,,,,,,,0.029005398,-0.384651964,0,0,0,,,,,,,STRING,C,m,y,./images/STRING.png,,,,,,,m,1,1.0659,,,,,,,,0,106,106,41,1
,,,,,,,,,,,,,,,,,199957,18,2022-01-28_15h34.21.132,lexical_decision_task_DD_L2,2021.2.3,MacIntel,60.0024001,,,,,,,,,,,,0.8614,0,,,,,,,,,,,,,,,,,,,,,,,,0.029005398,-0.384651964,0,0,0,,,,,,,ATTIC,HB,m,y,./images/ATTICHB.png,,,,,,,z,0,0.8614,,,,,,,,0,107,107,27,1
,,,,,,,,,,,,,,,,,199957,18,2022-01-28_15h34.21.132,lexical_decision_task_DD_L2,2021.2.3,MacIntel,60.0024001,,,,,,,,,,,,0.9026,1,,,,,,,,,,,,,,,,,,,,,,,,0.029005398,-0.384651964,0,0,0,,,,,,,COLLAR,HB,z,y,./images/COLLARHB.png,,,,,,,z,1,0.9026,,,,,,,,0,108,108,99,1
,,,,,,,,,,,,,,,,,199957,18,2022-01-28_15h34.21.132,lexical_decision_task_DD_L2,2021.2.3,MacIntel,60.0024001,,,,,,,,,,,,0.7659,1,,,,,,,,,,,,,,,,,,,,,,,,0.029005398,-0.384651964,0,0,0,,,,,,,TORCH,C,m,y,./images/TORCH.png,,,,,,,m,1,0.7659,,,,,,,,0,109,109,68,1
,,,,,,,,,,,,,,,,,199957,18,2022-01-28_15h34.21.132,lexical_decision_task_DD_L2,2021.2.3,MacIntel,60.0024001,,,,,,,,,,,,1.0832,1,,,,,,,,,,,,,,,,,,,,,,,,0.029005398,-0.384651964,0,0,0,,,,,,,DANCER,HB,z,y,./images/DANCERHB.png,,,,,,,z,1,1.0832,,,,,,,,0,110,110,105,1
,,,,,,,,,,,,,,,,,199957,18,2022-01-28_15h34.21.132,lexical_decision_task_DD_L2,2021.2.3,MacIntel,60.0024001,,,,,,,,,,,,1.53,1,,,,,,,,,,,,,,,,,,,,,,,,0.029005398,-0.384651964,0,0,0,,,,,,,HAMMER,HB,z,y,./images/HAMMERHB.png,,,,,,,z,1,1.53,,,,,,,,0,111,111,159,1
,,,,,,,,,,,,,,,,,199957,18,2022-01-28_15h34.21.132,lexical_decision_task_DD_L2,2021.2.3,MacIntel,60.0024001,,,,,,,,,,,,1.5892,1,,,,,,,,,,,,,,,,,,,,,,,,0.029005398,-0.384651964,0,0,0,,,,,,,MAMMAL,C,z,y,./images/MAMMAL.png,,,,,,,z,1,1.5892,,,,,,,,0,112,112,146,1
,,,,,,,,,,,,,,,,,199957,18,2022-01-28_15h34.21.132,lexical_decision_task_DD_L2,2021.2.3,MacIntel,60.0024001,,,,,,,,,,,,0.9938,1,,,,,,,,,,,,,,,,,,,,,,,,0.029005398,-0.384651964,0,0,0,,,,,,,BISHOP,LB,z,y,./images/BISHOPLB.png,,,,,,,z,1,0.9938,,,,,,,,0,113,113,133,1
,,,,,,,,,,,,,,,,,199957,18,2022-01-28_15h34.21.132,lexical_decision_task_DD_L2,2021.2.3,MacIntel,60.0024001,,,,,,,,,,,,0.8175,0,,,,,,,,,,,,,,,,,,,,,,,,0.029005398,-0.384651964,0,0,0,,,,,,,SLOPE,HB,z,y,./images/SLOPEHB.png,,,,,,,m,0,0.8175,,,,,,,,0,114,114,114,1
,,,,,,,,,,,,,,,,,199957,18,2022-01-28_15h34.21.132,lexical_decision_task_DD_L2,2021.2.3,MacIntel,60.0024001,,,,,,,,,,,,0.8984,1,,,,,,,,,,,,,,,,,,,,,,,,0.029005398,-0.384651964,0,0,0,,,,,,,BOILER,HB,z,y,./images/BOILERHB.png,,,,,,,z,1,0.8984,,,,,,,,0,115,115,120,1
,,,,,,,,,,,,,,,,,199957,18,2022-01-28_15h34.21.132,lexical_decision_task_DD_L2,2021.2.3,MacIntel,60.0024001,,,,,,,,,,,,0.8147,1,,,,,,,,,,,,,,,,,,,,,,,,0.029005398,-0.384651964,0,0,0,,,,,,,BUNNY,LB,z,y,./images/BUNNYLB.png,,,,,,,z,1,0.8147,,,,,,,,0,116,116,97,1
,,,,,,,,,,,,,,,,,199957,18,2022-01-28_15h34.21.132,lexical_decision_task_DD_L2,2021.2.3,MacIntel,60.0024001,,,,,,,,,,,,0.9712,1,,,,,,,,,,,,,,,,,,,,,,,,0.029005398,-0.384651964,0,0,0,,,,,,,CLOTH,C,z,y,./images/CLOTH.png,,,,,,,z,1,0.9712,,,,,,,,0,117,117,107,1
,,,,,,,,,,,,,,,,,199957,18,2022-01-28_15h34.21.132,lexical_decision_task_DD_L2,2021.2.3,MacIntel,60.0024001,,,,,,,,,,,,0.9316,0,,,,,,,,,,,,,,,,,,,,,,,,0.029005398,-0.384651964,0,0,0,,,,,,,PICKLE,C,m,y,./images/PICKLE.png,,,,,,,z,0,0.9316,,,,,,,,0,118,118,14,1
,,,,,,,,,,,,,,,,,199957,18,2022-01-28_15h34.21.132,lexical_decision_task_DD_L2,2021.2.3,MacIntel,60.0024001,,,,,,,,,,,,1.2959,0,,,,,,,,,,,,,,,,,,,,,,,,0.029005398,-0.384651964,0,0,0,,,,,,,CHAIN,HB,z,y,./images/CHAINHB.png,,,,,,,m,0,1.2959,,,,,,,,0,119,119,126,1
,,,,,,,,,,,,,,,,,199957,18,2022-01-28_15h34.21.132,lexical_decision_task_DD_L2,2021.2.3,MacIntel,60.0024001,,,,,,,,,,,,0.6819,1,,,,,,,,,,,,,,,,,,,,,,,,0.029005398,-0.384651964,0,0,0,,,,,,,CRADLE,C,m,y,./images/CRADLE.png,,,,,,,m,1,0.6819,,,,,,,,0,120,120,20,1
,,,,,,,,,,,,,,,,,199957,18,2022-01-28_15h34.21.132,lexical_decision_task_DD_L2,2021.2.3,MacIntel,60.0024001,,,,,,,,,,,,0.661,1,,,,,,,,,,,,,,,,,,,,,,,,0.029005398,-0.384651964,0,0,0,,,,,,,PURSE,C,m,y,./images/PURSE.png,,,,,,,m,1,0.661,,,,,,,,0,121,121,62,1
,,,,,,,,,,,,,,,,,199957,18,2022-01-28_15h34.21.132,lexical_decision_task_DD_L2,2021.2.3,MacIntel,60.0024001,,,,,,,,,,,,0.9307,1,,,,,,,,,,,,,,,,,,,,,,,,0.029005398,-0.384651964,0,0,0,,,,,,,STEAK,LB,z,y,./images/STEAKLB.png,,,,,,,z,1,0.9307,,,,,,,,0,122,122,115,1
,,,,,,,,,,,,,,,,,199957,18,2022-01-28_15h34.21.132,lexical_decision_task_DD_L2,2021.2.3,MacIntel,60.0024001,,,,,,,,,,,,0.768,1,,,,,,,,,,,,,,,,,,,,,,,,0.029005398,-0.384651964,0,0,0,,,,,,,HEATER,C,z,y,./images/HEATER.png,,,,,,,z,1,0.768,,,,,,,,0,123,123,140,1
,,,,,,,,,,,,,,,,,199957,18,2022-01-28_15h34.21.132,lexical_decision_task_DD_L2,2021.2.3,MacIntel,60.0024001,,,,,,,,,,,,1.0831,0,,,,,,,,,,,,,,,,,,,,,,,,0.029005398,-0.384651964,0,0,0,,,,,,,PARCEL,HB,z,y,./images/PARCELHB.png,,,,,,,m,0,1.0831,,,,,,,,0,124,124,102,1
,,,,,,,,,,,,,,,,,199957,18,2022-01-28_15h34.21.132,lexical_decision_task_DD_L2,2021.2.3,MacIntel,60.0024001,,,,,,,,,,,,1.1649,1,,,,,,,,,,,,,,,,,,,,,,,,0.048824056,-0.380094944,0,0,0,space,,,,,,PEBBLE,LB,z,y,./images/PEBBLELB.png,1.4876,,,,,,z,1,1.1649,,,,,,,,0,125,125,166,1
,,,,,,,,,,,,,,,,,199957,18,2022-01-28_15h34.21.132,lexical_decision_task_DD_L2,2021.2.3,MacIntel,60.0024001,,,,,,,,,,,,46.3509,1,,,,,,,,,,,,,,,,,,,,,,,,0.048824056,-0.380094944,0,0,0,,,,,,,SWEAT,HB,m,y,./images/SWEATHB.png,,,,,,,m,1,46.3509,,,,,,,,0,126,126,66,1
,,,,,,,,,,,,,,,,,199957,18,2022-01-28_15h34.21.132,lexical_decision_task_DD_L2,2021.2.3,MacIntel,60.0024001,,,,,,,,,,,,2.3664,1,,,,,,,,,,,,,,,,,,,,,,,,0.048824056,-0.380094944,0,0,0,,,,,,,FALCON,LB,m,y,./images/FALCONLB.png,,,,,,,m,1,2.3664,,,,,,,,0,127,127,28,1
,,,,,,,,,,,,,,,,,199957,18,2022-01-28_15h34.21.132,lexical_decision_task_DD_L2,2021.2.3,MacIntel,60.0024001,,,,,,,,,,,,0.8636,1,,,,,,,,,,,,,,,,,,,,,,,,0.048824056,-0.380094944,0,0,0,,,,,,,PISTOL,C,z,y,./images/PISTOL.png,,,,,,,z,1,0.8636,,,,,,,,0,128,128,113,1
,,,,,,,,,,,,,,,,,199957,18,2022-01-28_15h34.21.132,lexical_decision_task_DD_L2,2021.2.3,MacIntel,60.0024001,,,,,,,,,,,,1.2805,1,,,,,,,,,,,,,,,,,,,,,,,,0.048824056,-0.380094944,0,0,0,,,,,,,DESERT,LB,z,y,./images/DESERTLB.png,,,,,,,z,1,1.2805,,,,,,,,0,129,129,136,1
,,,,,,,,,,,,,,,,,199957,18,2022-01-28_15h34.21.132,lexical_decision_task_DD_L2,2021.2.3,MacIntel,60.0024001,,,,,,,,,,,,0.8688,1,,,,,,,,,,,,,,,,,,,,,,,,0.048824056,-0.380094944,0,0,0,,,,,,,PILOT,C,z,y,./images/PILOT.png,,,,,,,z,1,0.8688,,,,,,,,0,130,130,134,1
,,,,,,,,,,,,,,,,,199957,18,2022-01-28_15h34.21.132,lexical_decision_task_DD_L2,2021.2.3,MacIntel,60.0024001,,,,,,,,,,,,18.3972,1,,,,,,,,,,,,,,,,,,,,,,,,0.048824056,-0.380094944,0,0,0,,,,,,,SCREW,HB,m,y,./images/SCREWHB.png,,,,,,,m,1,18.3972,,,,,,,,0,131,131,24,1
,,,,,,,,,,,,,,,,,199957,18,2022-01-28_15h34.21.132,lexical_decision_task_DD_L2,2021.2.3,MacIntel,60.0024001,,,,,,,,,,,,0.9981,1,,,,,,,,,,,,,,,,,,,,,,,,0.048824056,-0.380094944,0,0,0,,,,,,,NOOSE,HB,m,y,./images/NOOSEHB.png,,,,,,,m,1,0.9981,,,,,,,,0,132,132,72,1
,,,,,,,,,,,,,,,,,199957,18,2022-01-28_15h34.21.132,lexical_decision_task_DD_L2,2021.2.3,MacIntel,60.0024001,,,,,,,,,,,,2.2689,1,,,,,,,,,,,,,,,,,,,,,,,,0.048824056,-0.380094944,0,0,0,,,,,,,RHINO,HB,m,y,./images/RHINOHB.png,,,,,,,m,1,2.2689,,,,,,,,0,133,133,9,1
,,,,,,,,,,,,,,,,,199957,18,2022-01-28_15h34.21.132,lexical_decision_task_DD_L2,2021.2.3,MacIntel,60.0024001,,,,,,,,,,,,0.965,1,,,,,,,,,,,,,,,,,,,,,,,,0.048824056,-0.380094944,0,0,0,,,,,,,MUMMY,LB,z,y,./images/MUMMYLB.png,,,,,,,z,1,0.965,,,,,,,,0,134,134,130,1
,,,,,,,,,,,,,,,,,199957,18,2022-01-28_15h34.21.132,lexical_decision_task_DD_L2,2021.2.3,MacIntel,60.0024001,,,,,,,,,,,,1.0883,1,,,,,,,,,,,,,,,,,,,,,,,,0.048824056,-0.380094944,0,0,0,,,,,,,BONNET,C,m,y,./images/BONNET.png,,,,,,,m,1,1.0883,,,,,,,,0,135,135,11,1
,,,,,,,,,,,,,,,,,199957,18,2022-01-28_15h34.21.132,lexical_decision_task_DD_L2,2021.2.3,MacIntel,60.0024001,,,,,,,,,,,,2.2497,1,,,,,,,,,,,,,,,,,,,,,,,,0.048824056,-0.380094944,0,0,0,,,,,,,STREAM,C,z,y,./images/STREAM.png,,,,,,,z,1,2.2497,,,,,,,,0,136,136,125,1
,,,,,,,,,,,,,,,,,199957,18,2022-01-28_15h34.21.132,lexical_decision_task_DD_L2,2021.2.3,MacIntel,60.0024001,,,,,,,,,,,,1.9993,0,,,,,,,,,,,,,,,,,,,,,,,,0.048824056,-0.380094944,0,0,0,,,,,,,SHELF,HB,m,y,./images/SHELFHB.png,,,,,,,z,0,1.9993,,,,,,,,0,137,137,39,1
,,,,,,,,,,,,,,,,,199957,18,2022-01-28_15h34.21.132,lexical_decision_task_DD_L2,2021.2.3,MacIntel,60.0024001,,,,,,,,,,,,1.283,1,,,,,,,,,,,,,,,,,,,,,,,,0.048824056,-0.380094944,0,0,0,,,,,,,FLESH,HB,z,y,./images/FLESHHB.png,,,,,,,z,1,1.283,,,,,,,,0,138,138,108,1
,,,,,,,,,,,,,,,,,199957,18,2022-01-28_15h34.21.132,lexical_decision_task_DD_L2,2021.2.3,MacIntel,60.0024001,,,,,,,,,,,,1.0002,1,,,,,,,,,,,,,,,,,,,,,,,,0.048824056,-0.380094944,0,0,0,,,,,,,DIVER,HB,z,y,./images/DIVERHB.png,,,,,,,z,1,1.0002,,,,,,,,0,139,139,93,1
,,,,,,,,,,,,,,,,,199957,18,2022-01-28_15h34.21.132,lexical_decision_task_DD_L2,2021.2.3,MacIntel,60.0024001,,,,,,,,,,,,1.2834,0,,,,,,,,,,,,,,,,,,,,,,,,0.048824056,-0.380094944,0,0,0,,,,,,,PARADE,C,z,y,./images/PARADE.png,,,,,,,m,0,1.2834,,,,,,,,0,140,140,101,1
,,,,,,,,,,,,,,,,,199957,18,2022-01-28_15h34.21.132,lexical_decision_task_DD_L2,2021.2.3,MacIntel,60.0024001,,,,,,,,,,,,1.1176,0,,,,,,,,,,,,,,,,,,,,,,,,0.048824056,-0.380094944,0,0,0,,,,,,,SPINE,C,z,y,./images/SPINE.png,,,,,,,m,0,1.1176,,,,,,,,0,141,141,149,1
,,,,,,,,,,,,,,,,,199957,18,2022-01-28_15h34.21.132,lexical_decision_task_DD_L2,2021.2.3,MacIntel,60.0024001,,,,,,,,,,,,6.0288,0,,,,,,,,,,,,,,,,,,,,,,,,0.048824056,-0.380094944,0,0,0,,,,,,,STAIN,HB,z,y,./images/STAINHB.png,,,,,,,m,0,6.0288,,,,,,,,0,142,142,90,1
,,,,,,,,,,,,,,,,,199957,18,2022-01-28_15h34.21.132,lexical_decision_task_DD_L2,2021.2.3,MacIntel,60.0024001,,,,,,,,,,,,1.1014,1,,,,,,,,,,,,,,,,,,,,,,,,0.048824056,-0.380094944,0,0,0,,,,,,,MAGGOT,HB,m,y,./images/MAGGOTHB.png,,,,,,,m,1,1.1014,,,,,,,,0,143,143,33,1
,,,,,,,,,,,,,,,,,199957,18,2022-01-28_15h34.21.132,lexical_decision_task_DD_L2,2021.2.3,MacIntel,60.0024001,,,,,,,,,,,,0.9812,1,,,,,,,,,,,,,,,,,,,,,,,,0.048824056,-0.380094944,0,0,0,,,,,,,MIRROR,HB,m,y,./images/MIRRORHB.png,,,,,,,m,1,0.9812,,,,,,,,0,144,144,63,1
,,,,,,,,,,,,,,,,,199957,18,2022-01-28_15h34.21.132,lexical_decision_task_DD_L2,2021.2.3,MacIntel,60.0024001,,,,,,,,,,,,0.8545,1,,,,,,,,,,,,,,,,,,,,,,,,0.048824056,-0.380094944,0,0,0,,,,,,,SMOKER,C,m,y,./images/SMOKER.png,,,,,,,m,1,0.8545,,,,,,,,0,145,145,26,1
,,,,,,,,,,,,,,,,,199957,18,2022-01-28_15h34.21.132,lexical_decision_task_DD_L2,2021.2.3,MacIntel,60.0024001,,,,,,,,,,,,0.8497,1,,,,,,,,,,,,,,,,,,,,,,,,0.048824056,-0.380094944,0,0,0,,,,,,,HOCKEY,C,z,y,./images/HOCKEY.png,,,,,,,z,1,0.8497,,,,,,,,0,146,146,116,1
,,,,,,,,,,,,,,,,,199957,18,2022-01-28_15h34.21.132,lexical_decision_task_DD_L2,2021.2.3,MacIntel,60.0024001,,,,,,,,,,,,1.0494,1,,,,,,,,,,,,,,,,,,,,,,,,0.048824056,-0.380094944,0,0,0,,,,,,,CRUMB,C,m,y,./images/CRUMB.png,,,,,,,m,1,1.0494,,,,,,,,0,147,147,29,1
,,,,,,,,,,,,,,,,,199957,18,2022-01-28_15h34.21.132,lexical_decision_task_DD_L2,2021.2.3,MacIntel,60.0024001,,,,,,,,,,,,1.3819,1,,,,,,,,,,,,,,,,,,,,,,,,0.048824056,-0.380094944,0,0,0,,,,,,,ARROW,HB,z,y,./images/ARROWHB.png,,,,,,,z,1,1.3819,,,,,,,,0,148,148,153,1
,,,,,,,,,,,,,,,,,199957,18,2022-01-28_15h34.21.132,lexical_decision_task_DD_L2,2021.2.3,MacIntel,60.0024001,,,,,,,,,,,,6.8788,0,,,,,,,,,,,,,,,,,,,,,,,,0.048824056,-0.380094944,0,0,0,,,,,,,LADDER,C,m,y,./images/LADDER.png,,,,,,,z,0,6.8788,,,,,,,,0,149,149,38,1
,,,,,,,,,,,,,,,,,199957,18,2022-01-28_15h34.21.132,lexical_decision_task_DD_L2,2021.2.3,MacIntel,60.0024001,,,,,,,,,,,,0.9662,1,,,,,,,,,,,,,,,,,,,,,,,,0.048824056,-0.380094944,0,0,0,,,,,,,JUMPER,C,z,y,./images/JUMPER.png,,,,,,,z,1,0.9662,,,,,,,,0,150,150,158,1
,,,,,,,,,,,,,,,,,199957,18,2022-01-28_15h34.21.132,lexical_decision_task_DD_L2,2021.2.3,MacIntel,60.0024001,,,,,,,,,,,,1.3184,1,,,,,,,,,,,,,,,,,,,,,,,,0.048824056,-0.380094944,0,0,0,,,,,,,MOTOR,LB,m,y,./images/MOTORLB.png,,,,,,,m,1,1.3184,,,,,,,,0,151,151,13,1
,,,,,,,,,,,,,,,,,199957,18,2022-01-28_15h34.21.132,lexical_decision_task_DD_L2,2021.2.3,MacIntel,60.0024001,,,,,,,,,,,,0.6868,1,,,,,,,,,,,,,,,,,,,,,,,,0.048824056,-0.380094944,0,0,0,,,,,,,DONKEY,LB,z,y,./images/DONKEYLB.png,,,,,,,z,1,0.6868,,,,,,,,0,152,152,103,1
,,,,,,,,,,,,,,,,,199957,18,2022-01-28_15h34.21.132,lexical_decision_task_DD_L2,2021.2.3,MacIntel,60.0024001,,,,,,,,,,,,1.2123,0,,,,,,,,,,,,,,,,,,,,,,,,0.048824056,-0.380094944,0,0,0,,,,,,,JUNGLE,C,m,y,./images/JUNGLE.png,,,,,,,z,0,1.2123,,,,,,,,0,153,153,83,1
,,,,,,,,,,,,,,,,,199957,18,2022-01-28_15h34.21.132,lexical_decision_task_DD_L2,2021.2.3,MacIntel,60.0024001,,,,,,,,,,,,0.9787,1,,,,,,,,,,,,,,,,,,,,,,,,0.048824056,-0.380094944,0,0,0,,,,,,,TWINS,HB,m,y,./images/TWINSHB.png,,,,,,,m,1,0.9787,,,,,,,,0,154,154,60,1
,,,,,,,,,,,,,,,,,199957,18,2022-01-28_15h34.21.132,lexical_decision_task_DD_L2,2021.2.3,MacIntel,60.0024001,,,,,,,,,,,,0.7829,0,,,,,,,,,,,,,,,,,,,,,,,,0.048824056,-0.380094944,0,0,0,,,,,,,JAGUAR,HB,m,y,./images/JAGUARHB.png,,,,,,,z,0,0.7829,,,,,,,,0,155,155,18,1
,,,,,,,,,,,,,,,,,199957,18,2022-01-28_15h34.21.132,lexical_decision_task_DD_L2,2021.2.3,MacIntel,60.0024001,,,,,,,,,,,,2.8657,1,,,,,,,,,,,,,,,,,,,,,,,,0.048824056,-0.380094944,0,0,0,,,,,,,MONKEY,HB,z,y,./images/MONKEYHB.png,,,,,,,z,1,2.8657,,,,,,,,0,156,156,129,1
,,,,,,,,,,,,,,,,,199957,18,2022-01-28_15h34.21.132,lexical_decision_task_DD_L2,2021.2.3,MacIntel,60.0024001,,,,,,,,,,,,0.8633,1,,,,,,,,,,,,,,,,,,,,,,,,0.048824056,-0.380094944,0,0,0,,,,,,,BIRTH,LB,m,y,./images/BIRTHLB.png,,,,,,,m,1,0.8633,,,,,,,,0,157,157,37,1
,,,,,,,,,,,,,,,,,199957,18,2022-01-28_15h34.21.132,lexical_decision_task_DD_L2,2021.2.3,MacIntel,60.0024001,,,,,,,,,,,,0.7526,1,,,,,,,,,,,,,,,,,,,,,,,,0.048824056,-0.380094944,0,0,0,,,,,,,BARREL,C,m,y,./images/BARREL.png,,,,,,,m,1,0.7526,,,,,,,,0,158,158,32,1
,,,,,,,,,,,,,,,,,199957,18,2022-01-28_15h34.21.132,lexical_decision_task_DD_L2,2021.2.3,MacIntel,60.0024001,,,,,,,,,,,,1.1174,0,,,,,,,,,,,,,,,,,,,,,,,,0.048824056,-0.380094944,0,0,0,,,,,,,BLOKE,HB,z,y,./images/BLOKEHB.png,,,,,,,m,0,1.1174,,,,,,,,0,159,159,96,1
,,,,,,,,,,,,,,,,,199957,18,2022-01-28_15h34.21.132,lexical_decision_task_DD_L2,2021.2.3,MacIntel,60.0024001,,,,,,,,,,,,0.8189,1,,,,,,,,,,,,,,,,,,,,,,,,0.048824056,-0.380094944,0,0,0,,,,,,,WHEEL,C,z,y,./images/WHEEL.png,,,,,,,z,1,0.8189,,,,,,,,0,160,160,161,1
,,,,,,,,,,,,,,,,,199957,18,2022-01-28_15h34.21.132,lexical_decision_task_DD_L2,2021.2.3,MacIntel,60.0024001,,,,,,,,,,,,1.0164,1,,,,,,,,,,,,,,,,,,,,,,,,0.048824056,-0.380094944,0,0,0,,,,,,,WALRUS,C,m,y,./images/WALRUS.png,,,,,,,m,1,1.0164,,,,,,,,0,161,161,23,1
,,,,,,,,,,,,,,,,,199957,18,2022-01-28_15h34.21.132,lexical_decision_task_DD_L2,2021.2.3,MacIntel,60.0024001,,,,,,,,,,,,1.0007,1,,,,,,,,,,,,,,,,,,,,,,,,0.048824056,-0.380094944,0,0,0,,,,,,,BUTTER,HB,z,y,./images/BUTTERHB.png,,,,,,,z,1,1.0007,,,,,,,,0,162,162,111,1
,,,,,,,,,,,,,,,,,199957,18,2022-01-28_15h34.21.132,lexical_decision_task_DD_L2,2021.2.3,MacIntel,60.0024001,,,,,,,,,,,,1.2145,1,,,,,,,,,,,,,,,,,,,,,,,,0.048824056,-0.380094944,0,0,0,,,,,,,INFANT,LB,m,y,./images/INFANTLB.png,,,,,,,m,1,1.2145,,,,,,,,0,163,163,76,1
,,,,,,,,,,,,,,,,,199957,18,2022-01-28_15h34.21.132,lexical_decision_task_DD_L2,2021.2.3,MacIntel,60.0024001,,,,,,,,,,,,0.8811,0,,,,,,,,,,,,,,,,,,,,,,,,0.048824056,-0.380094944,0,0,0,,,,,,,DRILL,HB,z,y,./images/DRILLHB.png,,,,,,,m,0,0.8811,,,,,,,,0,164,164,165,1
,,,,,,,,,,,,,,,,,199957,18,2022-01-28_15h34.21.132,lexical_decision_task_DD_L2,2021.2.3,MacIntel,60.0024001,,,,,,,,,,,,0.6473,0,,,,,,,,,,,,,,,,,,,,,,,,0.048824056,-0.380094944,0,0,0,,,,,,,FENCE,C,z,y,./images/FENCE.png,,,,,,,m,0,0.6473,,,,,,,,0,165,165,98,1
,,,,,,,,,,,,,,,,,199957,18,2022-01-28_15h34.21.132,lexical_decision_task_DD_L2,2021.2.3,MacIntel,60.0024001,,,,,,,,,,,,0.7341,1,,,,,,,,,,,,,,,,,,,,,,,,0.048824056,-0.380094944,0,0,0,,,,,,,PACKET,C,m,y,./images/PACKET.png,,,,,,,m,1,0.7341,,,,,,,,0,166,166,56,1
,,,,,,,,,,,,,,,,,199957,18,2022-01-28_15h34.21.132,lexical_decision_task_DD_L2,2021.2.3,MacIntel,60.0024001,,,,,,,,,,,,1.7706,1,,,,,,,,,,,,,,,,,,,,,,,,0.048824056,-0.380094944,0,0,0,,,,,,,MUFFIN,LB,m,y,./images/MUFFINLB.png,,,,,,,m,1,1.7706,,,,,,,,0,167,167,55,1
