key_resp.keys,key_resp.rt,instr_done_touch.x,instr_done_touch.y,instr_done_touch.leftButton,instr_done_touch.midButton,instr_done_touch.rightButton,instruction_pages.thisRepN,instruction_pages.thisTrialN,instruction_pages.thisN,instruction_pages.thisIndex,instruction_pages.ran,pageN,phase,instruct_text,has_image,instruct_image,participant,age,date,expName,psychopyVersion,OS,frameRate,response.keys,response.corr,response.rt,touch_resp.x,touch_resp.y,touch_resp.leftButton,touch_resp.midButton,touch_resp.rightButton,touch_resp.time,touch_resp.clicked_name,rt,corr,practrials.thisRepN,practrials.thisTrialN,practrials.thisN,practrials.thisIndex,practrials.ran,TrialID,Target,corrAns,end_of_practice_trials_pages.thisRepN,end_of_practice_trials_pages.thisTrialN,end_of_practice_trials_pages.thisN,end_of_practice_trials_pages.thisIndex,end_of_practice_trials_pages.ran,key_resp_2.keys,key_resp_2.corr,key_resp_2.rt,targ_click.x,targ_click.y,targ_click.leftButton,targ_click.midButton,targ_click.rightButton,targ_click.time,targ_click.clicked_name,break_done_touch.x,break_done_touch.y,break_done_touch.leftButton,break_done_touch.midButton,break_done_touch.rightButton,break_done_keyboard.keys,maintrials.thisRepN,maintrials.thisTrialN,maintrials.thisN,maintrials.thisIndex,maintrials.ran,string,blur,study,lex,stim_path,break_done_keyboard.rt,test_instructions.thisRepN,test_instructions.thisTrialN,test_instructions.thisN,test_instructions.thisIndex,test_instructions.ran,key_resp_3.keys,key_resp_3.corr,key_resp_3.rt,test_click.x,test_click.y,test_click.leftButton,test_click.midButton,test_click.rightButton,test_click.time,test_click.clicked_name,test_phase.thisRepN,test_phase.thisTrialN,test_phase.thisN,test_phase.thisIndex,test_phase.ran
space,1.2176,0.196820175,-0.210526316,0,0,0,0,0,0,0,1,1,instructions,"INSTRUCTIONS
At the start of each trial, look at the plus sign  (+) in the center of the screen.  This tells you that a trial is about to begin and where to look. Second, the plus sign will disappear and a string of letters will appear. Your task is to determine if the string of letters is a word or not. If the item is a word press the M key (on keyboard)  or touch the word button (phone/tablet).  If the item is not a word,  press the  Z key (on keyboard)  or touch the nonword button (on phone/tablet). 
Press the space bar or touch  continue.",0,,200050,18,2022-01-29_24h49.26.106,lexical_decision_task_DD_L5,2021.2.3,Win32,61.00536847,,,,,,,,,,,,,,,,,,,,,,,,,,,,,,,,,,,,,,,,,,,,,,,,,,,,,,,,,,,,,,,,,,,,,,,,
space,0.7675,0.196820175,-0.210526316,0,0,0,0,1,1,1,1,2,instructions,"If your device has a keyboard, press the 'Z' key for nonwords and the 'M' key for words.





Press the space bar or touch the button below to continue.",0,keyboard-example.gif,200050,18,2022-01-29_24h49.26.106,lexical_decision_task_DD_L5,2021.2.3,Win32,61.00536847,,,,,,,,,,,,,,,,,,,,,,,,,,,,,,,,,,,,,,,,,,,,,,,,,,,,,,,,,,,,,,,,,,,,,,,,
space,0.517,0.196820175,-0.210526316,0,0,0,0,2,2,2,1,3,instructions,"If you are using a touchscreen only device, use the buttons on the screen. Do not use the mouse.





Press the space bar or touch the button below to continue.",0,touchscreen-example.gif,200050,18,2022-01-29_24h49.26.106,lexical_decision_task_DD_L5,2021.2.3,Win32,61.00536847,,,,,,,,,,,,,,,,,,,,,,,,,,,,,,,,,,,,,,,,,,,,,,,,,,,,,,,,,,,,,,,,,,,,,,,,
space,0.4669,0.196820175,-0.210526316,0,0,0,0,3,3,3,1,4,instructions,"It is very important that you respond as quickly and accurately as possible, as each letter string will only be on the screen for two seconds. If you do not respond within this time, the message 'Too slow!' will be displayed and the experiment will progress to the next letter string. The first 20 trials will be practice trials and you will receive feedback on your answers. 

Press the space bar or touch the button below to start the practice trials.",0,,200050,18,2022-01-29_24h49.26.106,lexical_decision_task_DD_L5,2021.2.3,Win32,61.00536847,,,,,,,,,,,,,,,,,,,,,,,,,,,,,,,,,,,,,,,,,,,,,,,,,,,,,,,,,,,,,,,,,,,,,,,,
,,,,,,,,,,,,,,,,,200050,18,2022-01-29_24h49.26.106,lexical_decision_task_DD_L5,2021.2.3,Win32,61.00536847,m,1,1.0814,,,,,,,,1.0814,1,0,0,0,3,1,1001,MATRIX,m,,,,,,,,,,,,,,,,,,,,,,,,,,,,,,,,,,,,,,,,,,,,,,,,,,,,
,,,,,,,,,,,,,,,,,200050,18,2022-01-29_24h49.26.106,lexical_decision_task_DD_L5,2021.2.3,Win32,61.00536847,z,1,1.1591,,,,,,,,1.1591,1,0,1,1,10,1,1001,INLADE,z,,,,,,,,,,,,,,,,,,,,,,,,,,,,,,,,,,,,,,,,,,,,,,,,,,,,
,,,,,,,,,,,,,,,,,200050,18,2022-01-29_24h49.26.106,lexical_decision_task_DD_L5,2021.2.3,Win32,61.00536847,z,1,1.0441,,,,,,,,1.0441,1,0,2,2,12,1,1001,SPRINY,z,,,,,,,,,,,,,,,,,,,,,,,,,,,,,,,,,,,,,,,,,,,,,,,,,,,,
,,,,,,,,,,,,,,,,,200050,18,2022-01-29_24h49.26.106,lexical_decision_task_DD_L5,2021.2.3,Win32,61.00536847,m,1,0.7302,,,,,,,,0.7302,1,0,3,3,0,1,1001,UTOPIA,m,,,,,,,,,,,,,,,,,,,,,,,,,,,,,,,,,,,,,,,,,,,,,,,,,,,,
,,,,,,,,,,,,,,,,,200050,18,2022-01-29_24h49.26.106,lexical_decision_task_DD_L5,2021.2.3,Win32,61.00536847,m,1,0.702,,,,,,,,0.702,1,0,4,4,2,1,1001,ALMOND,m,,,,,,,,,,,,,,,,,,,,,,,,,,,,,,,,,,,,,,,,,,,,,,,,,,,,
,,,,,,,,,,,,,,,,,200050,18,2022-01-29_24h49.26.106,lexical_decision_task_DD_L5,2021.2.3,Win32,61.00536847,m,1,0.5933,,,,,,,,0.5933,1,0,5,5,1,1,1001,ADJUST,m,,,,,,,,,,,,,,,,,,,,,,,,,,,,,,,,,,,,,,,,,,,,,,,,,,,,
,,,,,,,,,,,,,,,,,200050,18,2022-01-29_24h49.26.106,lexical_decision_task_DD_L5,2021.2.3,Win32,61.00536847,z,1,0.8775,,,,,,,,0.8775,1,0,6,6,9,1,1001,FARINY,z,,,,,,,,,,,,,,,,,,,,,,,,,,,,,,,,,,,,,,,,,,,,,,,,,,,,
,,,,,,,,,,,,,,,,,200050,18,2022-01-29_24h49.26.106,lexical_decision_task_DD_L5,2021.2.3,Win32,61.00536847,z,1,1.3346,,,,,,,,1.3346,1,0,7,7,13,1,1001,ROUPET,z,,,,,,,,,,,,,,,,,,,,,,,,,,,,,,,,,,,,,,,,,,,,,,,,,,,,
,,,,,,,,,,,,,,,,,200050,18,2022-01-29_24h49.26.106,lexical_decision_task_DD_L5,2021.2.3,Win32,61.00536847,m,1,0.4929,,,,,,,,0.4929,1,0,8,8,5,1,1001,OBTAIN,m,,,,,,,,,,,,,,,,,,,,,,,,,,,,,,,,,,,,,,,,,,,,,,,,,,,,
,,,,,,,,,,,,,,,,,200050,18,2022-01-29_24h49.26.106,lexical_decision_task_DD_L5,2021.2.3,Win32,61.00536847,z,1,0.6335,,,,,,,,0.6335,1,0,9,9,11,1,1001,RASHET,z,,,,,,,,,,,,,,,,,,,,,,,,,,,,,,,,,,,,,,,,,,,,,,,,,,,,
,,,,,,,,,,,,,,,,,200050,18,2022-01-29_24h49.26.106,lexical_decision_task_DD_L5,2021.2.3,Win32,61.00536847,z,1,0.6607,,,,,,,,0.6607,1,0,10,10,15,1,1001,WHAISE,z,,,,,,,,,,,,,,,,,,,,,,,,,,,,,,,,,,,,,,,,,,,,,,,,,,,,
,,,,,,,,,,,,,,,,,200050,18,2022-01-29_24h49.26.106,lexical_decision_task_DD_L5,2021.2.3,Win32,61.00536847,z,1,0.9608,,,,,,,,0.9608,1,0,11,11,8,1,1001,ASLERT,z,,,,,,,,,,,,,,,,,,,,,,,,,,,,,,,,,,,,,,,,,,,,,,,,,,,,
,,,,,,,,,,,,,,,,,200050,18,2022-01-29_24h49.26.106,lexical_decision_task_DD_L5,2021.2.3,Win32,61.00536847,z,1,0.6647,,,,,,,,0.6647,1,0,12,12,14,1,1001,THRALE,z,,,,,,,,,,,,,,,,,,,,,,,,,,,,,,,,,,,,,,,,,,,,,,,,,,,,
,,,,,,,,,,,,,,,,,200050,18,2022-01-29_24h49.26.106,lexical_decision_task_DD_L5,2021.2.3,Win32,61.00536847,m,1,0.5741,,,,,,,,0.5741,1,0,13,13,4,1,1001,SQUEAK,m,,,,,,,,,,,,,,,,,,,,,,,,,,,,,,,,,,,,,,,,,,,,,,,,,,,,
,,,,,,,,,,,,,,,,,200050,18,2022-01-29_24h49.26.106,lexical_decision_task_DD_L5,2021.2.3,Win32,61.00536847,m,1,0.746,,,,,,,,0.746,1,0,14,14,6,1,1001,ZOMBIE,m,,,,,,,,,,,,,,,,,,,,,,,,,,,,,,,,,,,,,,,,,,,,,,,,,,,,
,,,,,,,,,,,,,,,,,200050,18,2022-01-29_24h49.26.106,lexical_decision_task_DD_L5,2021.2.3,Win32,61.00536847,m,1,1.837,,,,,,,,1.837,1,0,15,15,7,1,1001,VOLUME,m,,,,,,,,,,,,,,,,,,,,,,,,,,,,,,,,,,,,,,,,,,,,,,,,,,,,
space,7.39,0.196820175,-0.210526316,0,0,0,,,,,,1,end_of_practice,"You have completed the practice trials. During the experimental trials, you will not receive feedback. 
Before you begin, please ensure that you are in a comfortable and quiet location and will not be disturbed for about 15 minutes, as we cannot use your data if you do not complete all the trials. 
 When you are ready to start the experimental trials, please press space or touch the button below.",,,200050,18,2022-01-29_24h49.26.106,lexical_decision_task_DD_L5,2021.2.3,Win32,61.00536847,,,,,,,,,,,,,,,,,,,,,0,0,0,0,1,,,,,,,,,,,,,,,,,,,,,,,,,,,,,,,,,,,,,,,,,,,,,,,
,,,,,,,,,,,,,,,,,200050,18,2022-01-29_24h49.26.106,lexical_decision_task_DD_L5,2021.2.3,Win32,61.00536847,,,,,,,,,,,4.1385,1,,,,,,,,,,,,,,z,1,4.1385,,,,,,,,0.196820175,-0.210526316,0,0,0,,0,0,0,148,1,JOMS,HB,old,z,./images/JOMSHB.png,,,,,,,,,,,,,,,,,,,,,
,,,,,,,,,,,,,,,,,200050,18,2022-01-29_24h49.26.106,lexical_decision_task_DD_L5,2021.2.3,Win32,61.00536847,,,,,,,,,,,0.7175,1,,,,,,,,,,,,,,m,1,0.7175,,,,,,,,0.196820175,-0.210526316,0,0,0,,0,1,1,56,1,HEATER,C,old,m,./images/HEATER.png,,,,,,,,,,,,,,,,,,,,,
,,,,,,,,,,,,,,,,,200050,18,2022-01-29_24h49.26.106,lexical_decision_task_DD_L5,2021.2.3,Win32,61.00536847,,,,,,,,,,,1.0076,1,,,,,,,,,,,,,,z,1,1.0076,,,,,,,,0.196820175,-0.210526316,0,0,0,,0,2,2,116,1,BALGY,LB,old,z,./images/BALGYLB.png,,,,,,,,,,,,,,,,,,,,,
,,,,,,,,,,,,,,,,,200050,18,2022-01-29_24h49.26.106,lexical_decision_task_DD_L5,2021.2.3,Win32,61.00536847,,,,,,,,,,,0.9842,1,,,,,,,,,,,,,,z,1,0.9842,,,,,,,,0.196820175,-0.210526316,0,0,0,,0,3,3,144,1,NAIRY,C,old,z,./images/NAIRY.png,,,,,,,,,,,,,,,,,,,,,
,,,,,,,,,,,,,,,,,200050,18,2022-01-29_24h49.26.106,lexical_decision_task_DD_L5,2021.2.3,Win32,61.00536847,,,,,,,,,,,1.1511,1,,,,,,,,,,,,,,z,1,1.1511,,,,,,,,0.196820175,-0.210526316,0,0,0,,0,4,4,91,1,SHENS,HB,old,z,./images/SHENSHB.png,,,,,,,,,,,,,,,,,,,,,
,,,,,,,,,,,,,,,,,200050,18,2022-01-29_24h49.26.106,lexical_decision_task_DD_L5,2021.2.3,Win32,61.00536847,,,,,,,,,,,0.9671,1,,,,,,,,,,,,,,m,1,0.9671,,,,,,,,0.196820175,-0.210526316,0,0,0,,0,5,5,21,1,DANCER,HB,old,m,./images/DANCERHB.png,,,,,,,,,,,,,,,,,,,,,
,,,,,,,,,,,,,,,,,200050,18,2022-01-29_24h49.26.106,lexical_decision_task_DD_L5,2021.2.3,Win32,61.00536847,,,,,,,,,,,0.8177,1,,,,,,,,,,,,,,z,1,0.8177,,,,,,,,0.196820175,-0.210526316,0,0,0,,0,6,6,137,1,JOOST,LB,old,z,./images/JOOSTLB.png,,,,,,,,,,,,,,,,,,,,,
,,,,,,,,,,,,,,,,,200050,18,2022-01-29_24h49.26.106,lexical_decision_task_DD_L5,2021.2.3,Win32,61.00536847,,,,,,,,,,,0.5502,1,,,,,,,,,,,,,,m,1,0.5502,,,,,,,,0.196820175,-0.210526316,0,0,0,,0,7,7,31,1,STEAK,LB,old,m,./images/STEAKLB.png,,,,,,,,,,,,,,,,,,,,,
,,,,,,,,,,,,,,,,,200050,18,2022-01-29_24h49.26.106,lexical_decision_task_DD_L5,2021.2.3,Win32,61.00536847,,,,,,,,,,,1.0531,1,,,,,,,,,,,,,,m,1,1.0531,,,,,,,,0.196820175,-0.210526316,0,0,0,,0,8,8,76,1,MIDGET,LB,old,m,./images/MIDGETLB.png,,,,,,,,,,,,,,,,,,,,,
,,,,,,,,,,,,,,,,,200050,18,2022-01-29_24h49.26.106,lexical_decision_task_DD_L5,2021.2.3,Win32,61.00536847,,,,,,,,,,,2.1875,1,,,,,,,,,,,,,,z,1,2.1875,,,,,,,,0.196820175,-0.210526316,0,0,0,,0,9,9,94,1,BLANS,HB,old,z,./images/BLANSHB.png,,,,,,,,,,,,,,,,,,,,,
,,,,,,,,,,,,,,,,,200050,18,2022-01-29_24h49.26.106,lexical_decision_task_DD_L5,2021.2.3,Win32,61.00536847,,,,,,,,,,,1.7386,1,,,,,,,,,,,,,,z,1,1.7386,,,,,,,,0.196820175,-0.210526316,0,0,0,,0,10,10,127,1,NINDY,HB,old,z,./images/NINDYHB.png,,,,,,,,,,,,,,,,,,,,,
,,,,,,,,,,,,,,,,,200050,18,2022-01-29_24h49.26.106,lexical_decision_task_DD_L5,2021.2.3,Win32,61.00536847,,,,,,,,,,,0.7346,1,,,,,,,,,,,,,,m,1,0.7346,,,,,,,,0.196820175,-0.210526316,0,0,0,,0,11,11,10,1,GARDEN,LB,old,m,./images/GARDENLB.png,,,,,,,,,,,,,,,,,,,,,
,,,,,,,,,,,,,,,,,200050,18,2022-01-29_24h49.26.106,lexical_decision_task_DD_L5,2021.2.3,Win32,61.00536847,,,,,,,,,,,0.7679,1,,,,,,,,,,,,,,m,1,0.7679,,,,,,,,0.196820175,-0.210526316,0,0,0,,0,12,12,62,1,MAMMAL,C,old,m,./images/MAMMAL.png,,,,,,,,,,,,,,,,,,,,,
,,,,,,,,,,,,,,,,,200050,18,2022-01-29_24h49.26.106,lexical_decision_task_DD_L5,2021.2.3,Win32,61.00536847,,,,,,,,,,,0.8846,1,,,,,,,,,,,,,,z,1,0.8846,,,,,,,,0.196820175,-0.210526316,0,0,0,,0,13,13,152,1,FRAIN,LB,old,z,./images/FRAINLB.png,,,,,,,,,,,,,,,,,,,,,
,,,,,,,,,,,,,,,,,200050,18,2022-01-29_24h49.26.106,lexical_decision_task_DD_L5,2021.2.3,Win32,61.00536847,,,,,,,,,,,0.7351,1,,,,,,,,,,,,,,z,1,0.7351,,,,,,,,0.196820175,-0.210526316,0,0,0,,0,14,14,107,1,FASKS,LB,old,z,./images/FASKSLB.png,,,,,,,,,,,,,,,,,,,,,
,,,,,,,,,,,,,,,,,200050,18,2022-01-29_24h49.26.106,lexical_decision_task_DD_L5,2021.2.3,Win32,61.00536847,,,,,,,,,,,0.8008,1,,,,,,,,,,,,,,m,1,0.8008,,,,,,,,0.196820175,-0.210526316,0,0,0,,0,15,15,69,1,ARROW,HB,old,m,./images/ARROWHB.png,,,,,,,,,,,,,,,,,,,,,
,,,,,,,,,,,,,,,,,200050,18,2022-01-29_24h49.26.106,lexical_decision_task_DD_L5,2021.2.3,Win32,61.00536847,,,,,,,,,,,1.0202,1,,,,,,,,,,,,,,z,1,1.0202,,,,,,,,0.196820175,-0.210526316,0,0,0,,0,16,16,160,1,VEETS,HB,old,z,./images/VEETSHB.png,,,,,,,,,,,,,,,,,,,,,
,,,,,,,,,,,,,,,,,200050,18,2022-01-29_24h49.26.106,lexical_decision_task_DD_L5,2021.2.3,Win32,61.00536847,,,,,,,,,,,0.6189,1,,,,,,,,,,,,,,m,1,0.6189,,,,,,,,0.196820175,-0.210526316,0,0,0,,0,17,17,41,1,STREAM,C,old,m,./images/STREAM.png,,,,,,,,,,,,,,,,,,,,,
,,,,,,,,,,,,,,,,,200050,18,2022-01-29_24h49.26.106,lexical_decision_task_DD_L5,2021.2.3,Win32,61.00536847,,,,,,,,,,,0.6367,1,,,,,,,,,,,,,,m,1,0.6367,,,,,,,,0.196820175,-0.210526316,0,0,0,,0,18,18,14,1,FENCE,C,old,m,./images/FENCE.png,,,,,,,,,,,,,,,,,,,,,
,,,,,,,,,,,,,,,,,200050,18,2022-01-29_24h49.26.106,lexical_decision_task_DD_L5,2021.2.3,Win32,61.00536847,,,,,,,,,,,0.8688,1,,,,,,,,,,,,,,z,1,0.8688,,,,,,,,0.196820175,-0.210526316,0,0,0,,0,19,19,103,1,FLORT,HB,old,z,./images/FLORTHB.png,,,,,,,,,,,,,,,,,,,,,
,,,,,,,,,,,,,,,,,200050,18,2022-01-29_24h49.26.106,lexical_decision_task_DD_L5,2021.2.3,Win32,61.00536847,,,,,,,,,,,0.5878,1,,,,,,,,,,,,,,m,1,0.5878,,,,,,,,0.196820175,-0.210526316,0,0,0,,0,20,20,70,1,BANANA,LB,old,m,./images/BANANALB.png,,,,,,,,,,,,,,,,,,,,,
,,,,,,,,,,,,,,,,,200050,18,2022-01-29_24h49.26.106,lexical_decision_task_DD_L5,2021.2.3,Win32,61.00536847,,,,,,,,,,,0.9348,1,,,,,,,,,,,,,,z,1,0.9348,,,,,,,,0.196820175,-0.210526316,0,0,0,,0,21,21,96,1,KEAMS,C,old,z,./images/KEAMS.png,,,,,,,,,,,,,,,,,,,,,
,,,,,,,,,,,,,,,,,200050,18,2022-01-29_24h49.26.106,lexical_decision_task_DD_L5,2021.2.3,Win32,61.00536847,,,,,,,,,,,0.8344,1,,,,,,,,,,,,,,z,1,0.8344,,,,,,,,0.196820175,-0.210526316,0,0,0,,0,22,22,147,1,ZOLES,C,old,z,./images/ZOLES.png,,,,,,,,,,,,,,,,,,,,,
,,,,,,,,,,,,,,,,,200050,18,2022-01-29_24h49.26.106,lexical_decision_task_DD_L5,2021.2.3,Win32,61.00536847,,,,,,,,,,,1.3011,1,,,,,,,,,,,,,,m,1,1.3011,,,,,,,,0.196820175,-0.210526316,0,0,0,,0,23,23,78,1,BROOM,HB,old,m,./images/BROOMHB.png,,,,,,,,,,,,,,,,,,,,,
,,,,,,,,,,,,,,,,,200050,18,2022-01-29_24h49.26.106,lexical_decision_task_DD_L5,2021.2.3,Win32,61.00536847,,,,,,,,,,,0.7172,1,,,,,,,,,,,,,,m,1,0.7172,,,,,,,,0.196820175,-0.210526316,0,0,0,,0,24,24,32,1,HOCKEY,C,old,m,./images/HOCKEY.png,,,,,,,,,,,,,,,,,,,,,
,,,,,,,,,,,,,,,,,200050,18,2022-01-29_24h49.26.106,lexical_decision_task_DD_L5,2021.2.3,Win32,61.00536847,,,,,,,,,,,0.6347,1,,,,,,,,,,,,,,m,1,0.6347,,,,,,,,0.196820175,-0.210526316,0,0,0,,0,25,25,17,1,PARADE,C,old,m,./images/PARADE.png,,,,,,,,,,,,,,,,,,,,,
,,,,,,,,,,,,,,,,,200050,18,2022-01-29_24h49.26.106,lexical_decision_task_DD_L5,2021.2.3,Win32,61.00536847,,,,,,,,,,,2.4902,1,,,,,,,,,,,,,,z,1,2.4902,,,,,,,,0.196820175,-0.210526316,0,0,0,,0,26,26,97,1,CHIDS,HB,old,z,./images/CHIDSHB.png,,,,,,,,,,,,,,,,,,,,,
,,,,,,,,,,,,,,,,,200050,18,2022-01-29_24h49.26.106,lexical_decision_task_DD_L5,2021.2.3,Win32,61.00536847,,,,,,,,,,,3.7024,1,,,,,,,,,,,,,,m,1,3.7024,,,,,,,,0.196820175,-0.210526316,0,0,0,,0,27,27,45,1,MONKEY,HB,old,m,./images/MONKEYHB.png,,,,,,,,,,,,,,,,,,,,,
,,,,,,,,,,,,,,,,,200050,18,2022-01-29_24h49.26.106,lexical_decision_task_DD_L5,2021.2.3,Win32,61.00536847,,,,,,,,,,,1.1014,1,,,,,,,,,,,,,,m,1,1.1014,,,,,,,,0.196820175,-0.210526316,0,0,0,,0,28,28,52,1,DESERT,LB,old,m,./images/DESERTLB.png,,,,,,,,,,,,,,,,,,,,,
,,,,,,,,,,,,,,,,,200050,18,2022-01-29_24h49.26.106,lexical_decision_task_DD_L5,2021.2.3,Win32,61.00536847,,,,,,,,,,,0.6506,1,,,,,,,,,,,,,,m,1,0.6506,,,,,,,,0.196820175,-0.210526316,0,0,0,,0,29,29,83,1,WHISKY,C,old,m,./images/WHISKY.png,,,,,,,,,,,,,,,,,,,,,
,,,,,,,,,,,,,,,,,200050,18,2022-01-29_24h49.26.106,lexical_decision_task_DD_L5,2021.2.3,Win32,61.00536847,,,,,,,,,,,0.6348,1,,,,,,,,,,,,,,m,1,0.6348,,,,,,,,0.196820175,-0.210526316,0,0,0,,0,30,30,28,1,CASINO,LB,old,m,./images/CASINOLB.png,,,,,,,,,,,,,,,,,,,,,
,,,,,,,,,,,,,,,,,200050,18,2022-01-29_24h49.26.106,lexical_decision_task_DD_L5,2021.2.3,Win32,61.00536847,,,,,,,,,,,0.8059,1,,,,,,,,,,,,,,z,1,0.8059,,,,,,,,0.196820175,-0.210526316,0,0,0,,0,31,31,143,1,MONGS,LB,old,z,./images/MONGSLB.png,,,,,,,,,,,,,,,,,,,,,
,,,,,,,,,,,,,,,,,200050,18,2022-01-29_24h49.26.106,lexical_decision_task_DD_L5,2021.2.3,Win32,61.00536847,,,,,,,,,,,0.621,0,,,,,,,,,,,,,,m,0,0.621,,,,,,,,0.196820175,-0.210526316,0,0,0,,0,32,32,165,1,TROWN,C,old,z,./images/TROWN.png,,,,,,,,,,,,,,,,,,,,,
,,,,,,,,,,,,,,,,,200050,18,2022-01-29_24h49.26.106,lexical_decision_task_DD_L5,2021.2.3,Win32,61.00536847,,,,,,,,,,,0.8847,1,,,,,,,,,,,,,,z,1,0.8847,,,,,,,,0.196820175,-0.210526316,0,0,0,,0,33,33,129,1,PRANS,C,old,z,./images/PRANS.png,,,,,,,,,,,,,,,,,,,,,
,,,,,,,,,,,,,,,,,200050,18,2022-01-29_24h49.26.106,lexical_decision_task_DD_L5,2021.2.3,Win32,61.00536847,,,,,,,,,,,3.0722,1,,,,,,,,,,,,,,z,1,3.0722,,,,,,,,0.196820175,-0.210526316,0,0,0,,0,34,34,163,1,GAMBA,HB,old,z,./images/GAMBAHB.png,,,,,,,,,,,,,,,,,,,,,
,,,,,,,,,,,,,,,,,200050,18,2022-01-29_24h49.26.106,lexical_decision_task_DD_L5,2021.2.3,Win32,61.00536847,,,,,,,,,,,0.9692,1,,,,,,,,,,,,,,z,1,0.9692,,,,,,,,0.196820175,-0.210526316,0,0,0,,0,35,35,90,1,NEAST,C,old,z,./images/NEAST.png,,,,,,,,,,,,,,,,,,,,,
,,,,,,,,,,,,,,,,,200050,18,2022-01-29_24h49.26.106,lexical_decision_task_DD_L5,2021.2.3,Win32,61.00536847,,,,,,,,,,,0.7879,1,,,,,,,,,,,,,,z,1,0.7879,,,,,,,,0.196820175,-0.210526316,0,0,0,,0,36,36,149,1,VEASE,LB,old,z,./images/VEASELB.png,,,,,,,,,,,,,,,,,,,,,
,,,,,,,,,,,,,,,,,200050,18,2022-01-29_24h49.26.106,lexical_decision_task_DD_L5,2021.2.3,Win32,61.00536847,,,,,,,,,,,0.7893,1,,,,,,,,,,,,,,m,1,0.7893,,,,,,,,0.196820175,-0.210526316,0,0,0,,0,37,37,80,1,PLANET,C,old,m,./images/PLANET.png,,,,,,,,,,,,,,,,,,,,,
,,,,,,,,,,,,,,,,,200050,18,2022-01-29_24h49.26.106,lexical_decision_task_DD_L5,2021.2.3,Win32,61.00536847,,,,,,,,,,,4.0533,1,,,,,,,,,,,,,,z,1,4.0533,,,,,,,,0.196820175,-0.210526316,0,0,0,,0,38,38,142,1,PLASK,HB,old,z,./images/PLASKHB.png,,,,,,,,,,,,,,,,,,,,,
,,,,,,,,,,,,,,,,,200050,18,2022-01-29_24h49.26.106,lexical_decision_task_DD_L5,2021.2.3,Win32,61.00536847,,,,,,,,,,,2.4036,1,,,,,,,,,,,,,,m,1,2.4036,,,,,,,,0.196820175,-0.210526316,0,0,0,,0,39,39,12,1,BLOKE,HB,old,m,./images/BLOKEHB.png,,,,,,,,,,,,,,,,,,,,,
,,,,,,,,,,,,,,,,,200050,18,2022-01-29_24h49.26.106,lexical_decision_task_DD_L5,2021.2.3,Win32,61.00536847,,,,,,,,,,,0.6382,1,,,,,,,,,,,,,,m,1,0.6382,,,,,,,,0.196820175,-0.210526316,0,0,0,,0,40,40,13,1,BUNNY,LB,old,m,./images/BUNNYLB.png,,,,,,,,,,,,,,,,,,,,,
,,,,,,,,,,,,,,,,,200050,18,2022-01-29_24h49.26.106,lexical_decision_task_DD_L5,2021.2.3,Win32,61.00536847,,,,,,,,,,,0.62,1,,,,,,,,,,,,,,m,1,0.62,,,,,,,,0.196820175,-0.210526316,0,0,0,space,0,41,41,20,1,GRANNY,C,old,m,./images/GRANNY.png,6.071,,,,,,,,,,,,,,,,,,,,
,,,,,,,,,,,,,,,,,200050,18,2022-01-29_24h49.26.106,lexical_decision_task_DD_L5,2021.2.3,Win32,61.00536847,,,,,,,,,,,0.7051,1,,,,,,,,,,,,,,m,1,0.7051,,,,,,,,0.196820175,-0.210526316,0,0,0,,0,42,42,8,1,CLIFF,C,old,m,./images/CLIFF.png,,,,,,,,,,,,,,,,,,,,,
,,,,,,,,,,,,,,,,,200050,18,2022-01-29_24h49.26.106,lexical_decision_task_DD_L5,2021.2.3,Win32,61.00536847,,,,,,,,,,,0.6699,1,,,,,,,,,,,,,,z,1,0.6699,,,,,,,,0.196820175,-0.210526316,0,0,0,,0,43,43,126,1,GUELS,C,old,z,./images/GUELS.png,,,,,,,,,,,,,,,,,,,,,
,,,,,,,,,,,,,,,,,200050,18,2022-01-29_24h49.26.106,lexical_decision_task_DD_L5,2021.2.3,Win32,61.00536847,,,,,,,,,,,0.9346,1,,,,,,,,,,,,,,z,1,0.9346,,,,,,,,0.196820175,-0.210526316,0,0,0,,0,44,44,93,1,SMONE,C,old,z,./images/SMONE.png,,,,,,,,,,,,,,,,,,,,,
,,,,,,,,,,,,,,,,,200050,18,2022-01-29_24h49.26.106,lexical_decision_task_DD_L5,2021.2.3,Win32,61.00536847,,,,,,,,,,,0.6339,1,,,,,,,,,,,,,,m,1,0.6339,,,,,,,,0.196820175,-0.210526316,0,0,0,,0,45,45,39,1,CANDY,HB,old,m,./images/CANDYHB.png,,,,,,,,,,,,,,,,,,,,,
,,,,,,,,,,,,,,,,,200050,18,2022-01-29_24h49.26.106,lexical_decision_task_DD_L5,2021.2.3,Win32,61.00536847,,,,,,,,,,,1.3345,1,,,,,,,,,,,,,,z,1,1.3345,,,,,,,,0.196820175,-0.210526316,0,0,0,,0,46,46,112,1,MYING,HB,old,z,./images/MYINGHB.png,,,,,,,,,,,,,,,,,,,,,
,,,,,,,,,,,,,,,,,200050,18,2022-01-29_24h49.26.106,lexical_decision_task_DD_L5,2021.2.3,Win32,61.00536847,,,,,,,,,,,0.6552,1,,,,,,,,,,,,,,m,1,0.6552,,,,,,,,0.196820175,-0.210526316,0,0,0,,0,47,47,19,1,DONKEY,LB,old,m,./images/DONKEYLB.png,,,,,,,,,,,,,,,,,,,,,
,,,,,,,,,,,,,,,,,200050,18,2022-01-29_24h49.26.106,lexical_decision_task_DD_L5,2021.2.3,Win32,61.00536847,,,,,,,,,,,1.8395,1,,,,,,,,,,,,,,m,1,1.8395,,,,,,,,0.196820175,-0.210526316,0,0,0,,0,48,48,81,1,DRILL,HB,old,m,./images/DRILLHB.png,,,,,,,,,,,,,,,,,,,,,
,,,,,,,,,,,,,,,,,200050,18,2022-01-29_24h49.26.106,lexical_decision_task_DD_L5,2021.2.3,Win32,61.00536847,,,,,,,,,,,1.1206,1,,,,,,,,,,,,,,z,1,1.1206,,,,,,,,0.196820175,-0.210526316,0,0,0,,0,49,49,98,1,BAMPS,LB,old,z,./images/BAMPSLB.png,,,,,,,,,,,,,,,,,,,,,
,,,,,,,,,,,,,,,,,200050,18,2022-01-29_24h49.26.106,lexical_decision_task_DD_L5,2021.2.3,Win32,61.00536847,,,,,,,,,,,1.4699,1,,,,,,,,,,,,,,z,1,1.4699,,,,,,,,0.196820175,-0.210526316,0,0,0,,0,50,50,153,1,CLUPS,C,old,z,./images/CLUPS.png,,,,,,,,,,,,,,,,,,,,,
,,,,,,,,,,,,,,,,,200050,18,2022-01-29_24h49.26.106,lexical_decision_task_DD_L5,2021.2.3,Win32,61.00536847,,,,,,,,,,,1.1845,1,,,,,,,,,,,,,,m,1,1.1845,,,,,,,,0.196820175,-0.210526316,0,0,0,,0,51,51,65,1,SPINE,C,old,m,./images/SPINE.png,,,,,,,,,,,,,,,,,,,,,
,,,,,,,,,,,,,,,,,200050,18,2022-01-29_24h49.26.106,lexical_decision_task_DD_L5,2021.2.3,Win32,61.00536847,,,,,,,,,,,0.6184,1,,,,,,,,,,,,,,z,1,0.6184,,,,,,,,0.196820175,-0.210526316,0,0,0,,0,52,52,111,1,HOSSE,C,old,z,./images/HOSSE.png,,,,,,,,,,,,,,,,,,,,,
,,,,,,,,,,,,,,,,,200050,18,2022-01-29_24h49.26.106,lexical_decision_task_DD_L5,2021.2.3,Win32,61.00536847,,,,,,,,,,,0.7681,1,,,,,,,,,,,,,,m,1,0.7681,,,,,,,,0.196820175,-0.210526316,0,0,0,,0,53,53,47,1,LAGOON,C,old,m,./images/LAGOON.png,,,,,,,,,,,,,,,,,,,,,
,,,,,,,,,,,,,,,,,200050,18,2022-01-29_24h49.26.106,lexical_decision_task_DD_L5,2021.2.3,Win32,61.00536847,,,,,,,,,,,2.6185,1,,,,,,,,,,,,,,z,1,2.6185,,,,,,,,0.196820175,-0.210526316,0,0,0,,0,54,54,118,1,BAVEL,HB,old,z,./images/BAVELHB.png,,,,,,,,,,,,,,,,,,,,,
,,,,,,,,,,,,,,,,,200050,18,2022-01-29_24h49.26.106,lexical_decision_task_DD_L5,2021.2.3,Win32,61.00536847,,,,,,,,,,,0.7672,1,,,,,,,,,,,,,,z,1,0.7672,,,,,,,,0.196820175,-0.210526316,0,0,0,,0,55,55,113,1,LINEW,LB,old,z,./images/LINEWLB.png,,,,,,,,,,,,,,,,,,,,,
,,,,,,,,,,,,,,,,,200050,18,2022-01-29_24h49.26.106,lexical_decision_task_DD_L5,2021.2.3,Win32,61.00536847,,,,,,,,,,,0.8025,1,,,,,,,,,,,,,,m,1,0.8025,,,,,,,,0.196820175,-0.210526316,0,0,0,,0,56,56,48,1,SHIELD,HB,old,m,./images/SHIELDHB.png,,,,,,,,,,,,,,,,,,,,,
,,,,,,,,,,,,,,,,,200050,18,2022-01-29_24h49.26.106,lexical_decision_task_DD_L5,2021.2.3,Win32,61.00536847,,,,,,,,,,,1.301,0,,,,,,,,,,,,,,m,0,1.301,,,,,,,,0.196820175,-0.210526316,0,0,0,,0,57,57,85,1,CHULK,HB,old,z,./images/CHULKHB.png,,,,,,,,,,,,,,,,,,,,,
,,,,,,,,,,,,,,,,,200050,18,2022-01-29_24h49.26.106,lexical_decision_task_DD_L5,2021.2.3,Win32,61.00536847,,,,,,,,,,,0.7845,1,,,,,,,,,,,,,,z,1,0.7845,,,,,,,,0.196820175,-0.210526316,0,0,0,,0,58,58,108,1,GRUET,C,old,z,./images/GRUET.png,,,,,,,,,,,,,,,,,,,,,
,,,,,,,,,,,,,,,,,200050,18,2022-01-29_24h49.26.106,lexical_decision_task_DD_L5,2021.2.3,Win32,61.00536847,,,,,,,,,,,4.4766,1,,,,,,,,,,,,,,z,1,4.4766,,,,,,,,0.196820175,-0.210526316,0,0,0,,0,59,59,106,1,CLUMS,HB,old,z,./images/CLUMSHB.png,,,,,,,,,,,,,,,,,,,,,
,,,,,,,,,,,,,,,,,200050,18,2022-01-29_24h49.26.106,lexical_decision_task_DD_L5,2021.2.3,Win32,61.00536847,,,,,,,,,,,0.6199,1,,,,,,,,,,,,,,m,1,0.6199,,,,,,,,0.196820175,-0.210526316,0,0,0,,0,60,60,50,1,PILOT,C,old,m,./images/PILOT.png,,,,,,,,,,,,,,,,,,,,,
,,,,,,,,,,,,,,,,,200050,18,2022-01-29_24h49.26.106,lexical_decision_task_DD_L5,2021.2.3,Win32,61.00536847,,,,,,,,,,,1.2852,1,,,,,,,,,,,,,,z,1,1.2852,,,,,,,,0.196820175,-0.210526316,0,0,0,,0,61,61,140,1,DOVET,LB,old,z,./images/DOVETLB.png,,,,,,,,,,,,,,,,,,,,,
,,,,,,,,,,,,,,,,,200050,18,2022-01-29_24h49.26.106,lexical_decision_task_DD_L5,2021.2.3,Win32,61.00536847,,,,,,,,,,,0.7843,1,,,,,,,,,,,,,,z,1,0.7843,,,,,,,,0.196820175,-0.210526316,0,0,0,,0,62,62,128,1,GRIFT,LB,old,z,./images/GRIFTLB.png,,,,,,,,,,,,,,,,,,,,,
,,,,,,,,,,,,,,,,,200050,18,2022-01-29_24h49.26.106,lexical_decision_task_DD_L5,2021.2.3,Win32,61.00536847,,,,,,,,,,,0.8007,1,,,,,,,,,,,,,,z,1,0.8007,,,,,,,,0.196820175,-0.210526316,0,0,0,,0,63,63,161,1,BLAPS,LB,old,z,./images/BLAPSLB.png,,,,,,,,,,,,,,,,,,,,,
,,,,,,,,,,,,,,,,,200050,18,2022-01-29_24h49.26.106,lexical_decision_task_DD_L5,2021.2.3,Win32,61.00536847,,,,,,,,,,,0.9003,1,,,,,,,,,,,,,,z,1,0.9003,,,,,,,,0.196820175,-0.210526316,0,0,0,,0,64,64,86,1,AIFED,LB,old,z,./images/AIFEDLB.png,,,,,,,,,,,,,,,,,,,,,
,,,,,,,,,,,,,,,,,200050,18,2022-01-29_24h49.26.106,lexical_decision_task_DD_L5,2021.2.3,Win32,61.00536847,,,,,,,,,,,1.9684,1,,,,,,,,,,,,,,z,1,1.9684,,,,,,,,0.196820175,-0.210526316,0,0,0,,0,65,65,154,1,THINT,HB,old,z,./images/THINTHB.png,,,,,,,,,,,,,,,,,,,,,
,,,,,,,,,,,,,,,,,200050,18,2022-01-29_24h49.26.106,lexical_decision_task_DD_L5,2021.2.3,Win32,61.00536847,,,,,,,,,,,4.2864,0,,,,,,,,,,,,,,m,0,4.2864,,,,,,,,0.196820175,-0.210526316,0,0,0,,0,66,66,159,1,CUDDY,C,old,z,./images/CUDDY.png,,,,,,,,,,,,,,,,,,,,,
,,,,,,,,,,,,,,,,,200050,18,2022-01-29_24h49.26.106,lexical_decision_task_DD_L5,2021.2.3,Win32,61.00536847,,,,,,,,,,,2.4376,1,,,,,,,,,,,,,,m,1,2.4376,,,,,,,,0.196820175,-0.210526316,0,0,0,,0,67,67,9,1,DIVER,HB,old,m,./images/DIVERHB.png,,,,,,,,,,,,,,,,,,,,,
,,,,,,,,,,,,,,,,,200050,18,2022-01-29_24h49.26.106,lexical_decision_task_DD_L5,2021.2.3,Win32,61.00536847,,,,,,,,,,,2.086,1,,,,,,,,,,,,,,z,1,2.086,,,,,,,,0.196820175,-0.210526316,0,0,0,,0,68,68,115,1,MAWNS,HB,old,z,./images/MAWNSHB.png,,,,,,,,,,,,,,,,,,,,,
,,,,,,,,,,,,,,,,,200050,18,2022-01-29_24h49.26.106,lexical_decision_task_DD_L5,2021.2.3,Win32,61.00536847,,,,,,,,,,,0.7193,1,,,,,,,,,,,,,,m,1,0.7193,,,,,,,,0.196820175,-0.210526316,0,0,0,,0,69,69,16,1,GRAPE,LB,old,m,./images/GRAPELB.png,,,,,,,,,,,,,,,,,,,,,
,,,,,,,,,,,,,,,,,200050,18,2022-01-29_24h49.26.106,lexical_decision_task_DD_L5,2021.2.3,Win32,61.00536847,,,,,,,,,,,0.7682,1,,,,,,,,,,,,,,z,1,0.7682,,,,,,,,0.196820175,-0.210526316,0,0,0,,0,70,70,158,1,EGECT,LB,old,z,./images/EGECTLB.png,,,,,,,,,,,,,,,,,,,,,
,,,,,,,,,,,,,,,,,200050,18,2022-01-29_24h49.26.106,lexical_decision_task_DD_L5,2021.2.3,Win32,61.00536847,,,,,,,,,,,0.7176,1,,,,,,,,,,,,,,m,1,0.7176,,,,,,,,0.196820175,-0.210526316,0,0,0,,0,71,71,60,1,CURRY,HB,old,m,./images/CURRYHB.png,,,,,,,,,,,,,,,,,,,,,
,,,,,,,,,,,,,,,,,200050,18,2022-01-29_24h49.26.106,lexical_decision_task_DD_L5,2021.2.3,Win32,61.00536847,,,,,,,,,,,0.9356,1,,,,,,,,,,,,,,z,1,0.9356,,,,,,,,0.196820175,-0.210526316,0,0,0,,0,72,72,155,1,CANGY,LB,old,z,./images/CANGYLB.png,,,,,,,,,,,,,,,,,,,,,
,,,,,,,,,,,,,,,,,200050,18,2022-01-29_24h49.26.106,lexical_decision_task_DD_L5,2021.2.3,Win32,61.00536847,,,,,,,,,,,0.8168,1,,,,,,,,,,,,,,m,1,0.8168,,,,,,,,0.196820175,-0.210526316,0,0,0,,0,73,73,40,1,SNAKE,LB,old,m,./images/SNAKELB.png,,,,,,,,,,,,,,,,,,,,,
,,,,,,,,,,,,,,,,,200050,18,2022-01-29_24h49.26.106,lexical_decision_task_DD_L5,2021.2.3,Win32,61.00536847,,,,,,,,,,,4.2561,1,,,,,,,,,,,,,,z,1,4.2561,,,,,,,,0.196820175,-0.210526316,0,0,0,,0,74,74,100,1,DRIBS,HB,old,z,./images/DRIBSHB.png,,,,,,,,,,,,,,,,,,,,,
,,,,,,,,,,,,,,,,,200050,18,2022-01-29_24h49.26.106,lexical_decision_task_DD_L5,2021.2.3,Win32,61.00536847,,,,,,,,,,,0.6514,1,,,,,,,,,,,,,,m,1,0.6514,,,,,,,,0.196820175,-0.210526316,0,0,0,,0,75,75,79,1,RULER,LB,old,m,./images/RULERLB.png,,,,,,,,,,,,,,,,,,,,,
,,,,,,,,,,,,,,,,,200050,18,2022-01-29_24h49.26.106,lexical_decision_task_DD_L5,2021.2.3,Win32,61.00536847,,,,,,,,,,,0.6006,1,,,,,,,,,,,,,,m,1,0.6006,,,,,,,,0.196820175,-0.210526316,0,0,0,,0,76,76,73,1,GLOVE,LB,old,m,./images/GLOVELB.png,,,,,,,,,,,,,,,,,,,,,
,,,,,,,,,,,,,,,,,200050,18,2022-01-29_24h49.26.106,lexical_decision_task_DD_L5,2021.2.3,Win32,61.00536847,,,,,,,,,,,0.901,1,,,,,,,,,,,,,,z,1,0.901,,,,,,,,0.196820175,-0.210526316,0,0,0,,0,77,77,88,1,GLUSH,HB,old,z,./images/GLUSHHB.png,,,,,,,,,,,,,,,,,,,,,
,,,,,,,,,,,,,,,,,200050,18,2022-01-29_24h49.26.106,lexical_decision_task_DD_L5,2021.2.3,Win32,61.00536847,,,,,,,,,,,0.7176,1,,,,,,,,,,,,,,m,1,0.7176,,,,,,,,0.196820175,-0.210526316,0,0,0,,0,78,78,43,1,STOOL,LB,old,m,./images/STOOLLB.png,,,,,,,,,,,,,,,,,,,,,
,,,,,,,,,,,,,,,,,200050,18,2022-01-29_24h49.26.106,lexical_decision_task_DD_L5,2021.2.3,Win32,61.00536847,,,,,,,,,,,1.0681,1,,,,,,,,,,,,,,z,1,1.0681,,,,,,,,0.196820175,-0.210526316,0,0,0,,0,79,79,109,1,BURGE,HB,old,z,./images/BURGEHB.png,,,,,,,,,,,,,,,,,,,,,
,,,,,,,,,,,,,,,,,200050,18,2022-01-29_24h49.26.106,lexical_decision_task_DD_L5,2021.2.3,Win32,61.00536847,,,,,,,,,,,0.7019,1,,,,,,,,,,,,,,z,1,0.7019,,,,,,,,0.196820175,-0.210526316,0,0,0,,0,80,80,135,1,JOODY,C,old,z,./images/JOODY.png,,,,,,,,,,,,,,,,,,,,,
,,,,,,,,,,,,,,,,,200050,18,2022-01-29_24h49.26.106,lexical_decision_task_DD_L5,2021.2.3,Win32,61.00536847,,,,,,,,,,,0.9043,1,,,,,,,,,,,,,,m,1,0.9043,,,,,,,,0.196820175,-0.210526316,0,0,0,,0,81,81,24,1,FLESH,HB,old,m,./images/FLESHHB.png,,,,,,,,,,,,,,,,,,,,,
,,,,,,,,,,,,,,,,,200050,18,2022-01-29_24h49.26.106,lexical_decision_task_DD_L5,2021.2.3,Win32,61.00536847,,,,,,,,,,,1.1008,1,,,,,,,,,,,,,,m,1,1.1008,,,,,,,,0.196820175,-0.210526316,0,0,0,,0,82,82,7,1,WAGON,LB,old,m,./images/WAGONLB.png,,,,,,,,,,,,,,,,,,,,,
,,,,,,,,,,,,,,,,,200050,18,2022-01-29_24h49.26.106,lexical_decision_task_DD_L5,2021.2.3,Win32,61.00536847,,,,,,,,,,,0.6679,1,,,,,,,,,,,,,,m,1,0.6679,,,,,,,,0.196820175,-0.210526316,0,0,0,space,0,83,83,0,1,WALNUT,HB,old,m,./images/WALNUTHB.png,1.851,,,,,,,,,,,,,,,,,,,,
,,,,,,,,,,,,,,,,,200050,18,2022-01-29_24h49.26.106,lexical_decision_task_DD_L5,2021.2.3,Win32,61.00536847,,,,,,,,,,,0.7381,1,,,,,,,,,,,,,,z,1,0.7381,,,,,,,,0.196820175,-0.210526316,0,0,0,,0,84,84,164,1,SGREW,LB,old,z,./images/SGREWLB.png,,,,,,,,,,,,,,,,,,,,,
,,,,,,,,,,,,,,,,,200050,18,2022-01-29_24h49.26.106,lexical_decision_task_DD_L5,2021.2.3,Win32,61.00536847,,,,,,,,,,,1.135,1,,,,,,,,,,,,,,z,1,1.135,,,,,,,,0.196820175,-0.210526316,0,0,0,,0,85,85,114,1,RIKES,C,old,z,./images/RIKES.png,,,,,,,,,,,,,,,,,,,,,
,,,,,,,,,,,,,,,,,200050,18,2022-01-29_24h49.26.106,lexical_decision_task_DD_L5,2021.2.3,Win32,61.00536847,,,,,,,,,,,0.6218,1,,,,,,,,,,,,,,m,1,0.6218,,,,,,,,0.196820175,-0.210526316,0,0,0,,0,86,86,71,1,BUBBLE,C,old,m,./images/BUBBLE.png,,,,,,,,,,,,,,,,,,,,,
,,,,,,,,,,,,,,,,,200050,18,2022-01-29_24h49.26.106,lexical_decision_task_DD_L5,2021.2.3,Win32,61.00536847,,,,,,,,,,,0.8905,1,,,,,,,,,,,,,,m,1,0.8905,,,,,,,,0.196820175,-0.210526316,0,0,0,,0,87,87,42,1,CHAIN,HB,old,m,./images/CHAINHB.png,,,,,,,,,,,,,,,,,,,,,
,,,,,,,,,,,,,,,,,200050,18,2022-01-29_24h49.26.106,lexical_decision_task_DD_L5,2021.2.3,Win32,61.00536847,,,,,,,,,,,0.6006,1,,,,,,,,,,,,,,m,1,0.6006,,,,,,,,0.196820175,-0.210526316,0,0,0,,0,88,88,6,1,STAIN,HB,old,m,./images/STAINHB.png,,,,,,,,,,,,,,,,,,,,,
,,,,,,,,,,,,,,,,,200050,18,2022-01-29_24h49.26.106,lexical_decision_task_DD_L5,2021.2.3,Win32,61.00536847,,,,,,,,,,,1.1176,1,,,,,,,,,,,,,,m,1,1.1176,,,,,,,,0.196820175,-0.210526316,0,0,0,,0,89,89,63,1,BAKER,HB,old,m,./images/BAKERHB.png,,,,,,,,,,,,,,,,,,,,,
,,,,,,,,,,,,,,,,,200050,18,2022-01-29_24h49.26.106,lexical_decision_task_DD_L5,2021.2.3,Win32,61.00536847,,,,,,,,,,,0.586,1,,,,,,,,,,,,,,m,1,0.586,,,,,,,,0.196820175,-0.210526316,0,0,0,,0,90,90,61,1,ARTIST,LB,old,m,./images/ARTISTLB.png,,,,,,,,,,,,,,,,,,,,,
,,,,,,,,,,,,,,,,,200050,18,2022-01-29_24h49.26.106,lexical_decision_task_DD_L5,2021.2.3,Win32,61.00536847,,,,,,,,,,,0.9507,1,,,,,,,,,,,,,,m,1,0.9507,,,,,,,,0.196820175,-0.210526316,0,0,0,,0,91,91,82,1,PEBBLE,LB,old,m,./images/PEBBLELB.png,,,,,,,,,,,,,,,,,,,,,
,,,,,,,,,,,,,,,,,200050,18,2022-01-29_24h49.26.106,lexical_decision_task_DD_L5,2021.2.3,Win32,61.00536847,,,,,,,,,,,0.8177,1,,,,,,,,,,,,,,z,1,0.8177,,,,,,,,0.196820175,-0.210526316,0,0,0,,0,92,92,120,1,RINED,C,old,z,./images/RINED.png,,,,,,,,,,,,,,,,,,,,,
,,,,,,,,,,,,,,,,,200050,18,2022-01-29_24h49.26.106,lexical_decision_task_DD_L5,2021.2.3,Win32,61.00536847,,,,,,,,,,,0.9231,1,,,,,,,,,,,,,,m,1,0.9231,,,,,,,,0.196820175,-0.210526316,0,0,0,,0,93,93,30,1,SLOPE,HB,old,m,./images/SLOPEHB.png,,,,,,,,,,,,,,,,,,,,,
,,,,,,,,,,,,,,,,,200050,18,2022-01-29_24h49.26.106,lexical_decision_task_DD_L5,2021.2.3,Win32,61.00536847,,,,,,,,,,,1.2216,1,,,,,,,,,,,,,,z,1,1.2216,,,,,,,,0.196820175,-0.210526316,0,0,0,,0,94,94,102,1,DULLE,C,old,z,./images/DULLE.png,,,,,,,,,,,,,,,,,,,,,
,,,,,,,,,,,,,,,,,200050,18,2022-01-29_24h49.26.106,lexical_decision_task_DD_L5,2021.2.3,Win32,61.00536847,,,,,,,,,,,1.3192,1,,,,,,,,,,,,,,z,1,1.3192,,,,,,,,0.196820175,-0.210526316,0,0,0,,0,95,95,133,1,POWDY,HB,old,z,./images/POWDYHB.png,,,,,,,,,,,,,,,,,,,,,
,,,,,,,,,,,,,,,,,200050,18,2022-01-29_24h49.26.106,lexical_decision_task_DD_L5,2021.2.3,Win32,61.00536847,,,,,,,,,,,1.8345,0,,,,,,,,,,,,,,m,0,1.8345,,,,,,,,0.196820175,-0.210526316,0,0,0,,0,96,96,110,1,CRUNK,LB,old,z,./images/CRUNKLB.png,,,,,,,,,,,,,,,,,,,,,
,,,,,,,,,,,,,,,,,200050,18,2022-01-29_24h49.26.106,lexical_decision_task_DD_L5,2021.2.3,Win32,61.00536847,,,,,,,,,,,0.6016,1,,,,,,,,,,,,,,m,1,0.6016,,,,,,,,0.196820175,-0.210526316,0,0,0,,0,97,97,38,1,ENGINE,C,old,m,./images/ENGINE.png,,,,,,,,,,,,,,,,,,,,,
,,,,,,,,,,,,,,,,,200050,18,2022-01-29_24h49.26.106,lexical_decision_task_DD_L5,2021.2.3,Win32,61.00536847,,,,,,,,,,,1.0013,1,,,,,,,,,,,,,,m,1,1.0013,,,,,,,,0.196820175,-0.210526316,0,0,0,,0,98,98,5,1,BAMBOO,C,old,m,./images/BAMBOO.png,,,,,,,,,,,,,,,,,,,,,
,,,,,,,,,,,,,,,,,200050,18,2022-01-29_24h49.26.106,lexical_decision_task_DD_L5,2021.2.3,Win32,61.00536847,,,,,,,,,,,0.668,1,,,,,,,,,,,,,,m,1,0.668,,,,,,,,0.196820175,-0.210526316,0,0,0,,0,99,99,25,1,CHALK,LB,old,m,./images/CHALKLB.png,,,,,,,,,,,,,,,,,,,,,
,,,,,,,,,,,,,,,,,200050,18,2022-01-29_24h49.26.106,lexical_decision_task_DD_L5,2021.2.3,Win32,61.00536847,,,,,,,,,,,0.6685,1,,,,,,,,,,,,,,z,1,0.6685,,,,,,,,0.196820175,-0.210526316,0,0,0,,0,100,100,167,1,ZONET,LB,old,z,./images/ZONETLB.png,,,,,,,,,,,,,,,,,,,,,
,,,,,,,,,,,,,,,,,200050,18,2022-01-29_24h49.26.106,lexical_decision_task_DD_L5,2021.2.3,Win32,61.00536847,,,,,,,,,,,0.6367,1,,,,,,,,,,,,,,m,1,0.6367,,,,,,,,0.196820175,-0.210526316,0,0,0,,0,101,101,22,1,CLOWN,LB,old,m,./images/CLOWNLB.png,,,,,,,,,,,,,,,,,,,,,
,,,,,,,,,,,,,,,,,200050,18,2022-01-29_24h49.26.106,lexical_decision_task_DD_L5,2021.2.3,Win32,61.00536847,,,,,,,,,,,0.7191,1,,,,,,,,,,,,,,m,1,0.7191,,,,,,,,0.196820175,-0.210526316,0,0,0,,0,102,102,67,1,POKER,LB,old,m,./images/POKERLB.png,,,,,,,,,,,,,,,,,,,,,
,,,,,,,,,,,,,,,,,200050,18,2022-01-29_24h49.26.106,lexical_decision_task_DD_L5,2021.2.3,Win32,61.00536847,,,,,,,,,,,1.4086,0,,,,,,,,,,,,,,z,0,1.4086,,,,,,,,0.196820175,-0.210526316,0,0,0,,0,103,103,18,1,PARCEL,HB,old,m,./images/PARCELHB.png,,,,,,,,,,,,,,,,,,,,,
,,,,,,,,,,,,,,,,,200050,18,2022-01-29_24h49.26.106,lexical_decision_task_DD_L5,2021.2.3,Win32,61.00536847,,,,,,,,,,,0.7023,1,,,,,,,,,,,,,,m,1,0.7023,,,,,,,,0.196820175,-0.210526316,0,0,0,,0,104,104,35,1,LLAMA,C,old,m,./images/LLAMA.png,,,,,,,,,,,,,,,,,,,,,
,,,,,,,,,,,,,,,,,200050,18,2022-01-29_24h49.26.106,lexical_decision_task_DD_L5,2021.2.3,Win32,61.00536847,,,,,,,,,,,1.3521,1,,,,,,,,,,,,,,z,1,1.3521,,,,,,,,0.196820175,-0.210526316,0,0,0,,0,105,105,166,1,SHORY,HB,old,z,./images/SHORYHB.png,,,,,,,,,,,,,,,,,,,,,
,,,,,,,,,,,,,,,,,200050,18,2022-01-29_24h49.26.106,lexical_decision_task_DD_L5,2021.2.3,Win32,61.00536847,,,,,,,,,,,1.5683,1,,,,,,,,,,,,,,m,1,1.5683,,,,,,,,0.196820175,-0.210526316,0,0,0,,0,106,106,3,1,CRATER,HB,old,m,./images/CRATERHB.png,,,,,,,,,,,,,,,,,,,,,
,,,,,,,,,,,,,,,,,200050,18,2022-01-29_24h49.26.106,lexical_decision_task_DD_L5,2021.2.3,Win32,61.00536847,,,,,,,,,,,0.9007,0,,,,,,,,,,,,,,z,0,0.9007,,,,,,,,0.196820175,-0.210526316,0,0,0,,0,107,107,72,1,FLASK,HB,old,m,./images/FLASKHB.png,,,,,,,,,,,,,,,,,,,,,
,,,,,,,,,,,,,,,,,200050,18,2022-01-29_24h49.26.106,lexical_decision_task_DD_L5,2021.2.3,Win32,61.00536847,,,,,,,,,,,1.6069,1,,,,,,,,,,,,,,z,1,1.6069,,,,,,,,0.196820175,-0.210526316,0,0,0,,0,108,108,104,1,GITTY,LB,old,z,./images/GITTYLB.png,,,,,,,,,,,,,,,,,,,,,
,,,,,,,,,,,,,,,,,200050,18,2022-01-29_24h49.26.106,lexical_decision_task_DD_L5,2021.2.3,Win32,61.00536847,,,,,,,,,,,0.8526,1,,,,,,,,,,,,,,z,1,0.8526,,,,,,,,0.196820175,-0.210526316,0,0,0,,0,109,109,84,1,HAXES,C,old,z,./images/HAXES.png,,,,,,,,,,,,,,,,,,,,,
,,,,,,,,,,,,,,,,,200050,18,2022-01-29_24h49.26.106,lexical_decision_task_DD_L5,2021.2.3,Win32,61.00536847,,,,,,,,,,,0.6857,1,,,,,,,,,,,,,,m,1,0.6857,,,,,,,,0.196820175,-0.210526316,0,0,0,,0,110,110,57,1,FERRY,HB,old,m,./images/FERRYHB.png,,,,,,,,,,,,,,,,,,,,,
,,,,,,,,,,,,,,,,,200050,18,2022-01-29_24h49.26.106,lexical_decision_task_DD_L5,2021.2.3,Win32,61.00536847,,,,,,,,,,,0.7383,1,,,,,,,,,,,,,,m,1,0.7383,,,,,,,,0.196820175,-0.210526316,0,0,0,,0,111,111,58,1,CANOE,LB,old,m,./images/CANOELB.png,,,,,,,,,,,,,,,,,,,,,
,,,,,,,,,,,,,,,,,200050,18,2022-01-29_24h49.26.106,lexical_decision_task_DD_L5,2021.2.3,Win32,61.00536847,,,,,,,,,,,0.9679,1,,,,,,,,,,,,,,z,1,0.9679,,,,,,,,0.196820175,-0.210526316,0,0,0,,0,112,112,124,1,TUNCH,HB,old,z,./images/TUNCHHB.png,,,,,,,,,,,,,,,,,,,,,
,,,,,,,,,,,,,,,,,200050,18,2022-01-29_24h49.26.106,lexical_decision_task_DD_L5,2021.2.3,Win32,61.00536847,,,,,,,,,,,0.7843,1,,,,,,,,,,,,,,m,1,0.7843,,,,,,,,0.196820175,-0.210526316,0,0,0,,0,113,113,29,1,PISTOL,C,old,m,./images/PISTOL.png,,,,,,,,,,,,,,,,,,,,,
,,,,,,,,,,,,,,,,,200050,18,2022-01-29_24h49.26.106,lexical_decision_task_DD_L5,2021.2.3,Win32,61.00536847,,,,,,,,,,,0.9341,1,,,,,,,,,,,,,,z,1,0.9341,,,,,,,,0.196820175,-0.210526316,0,0,0,,0,114,114,146,1,MOOST,LB,old,z,./images/MOOSTLB.png,,,,,,,,,,,,,,,,,,,,,
,,,,,,,,,,,,,,,,,200050,18,2022-01-29_24h49.26.106,lexical_decision_task_DD_L5,2021.2.3,Win32,61.00536847,,,,,,,,,,,2.6857,1,,,,,,,,,,,,,,m,1,2.6857,,,,,,,,0.196820175,-0.210526316,0,0,0,,0,115,115,33,1,SAUNA,HB,old,m,./images/SAUNAHB.png,,,,,,,,,,,,,,,,,,,,,
,,,,,,,,,,,,,,,,,200050,18,2022-01-29_24h49.26.106,lexical_decision_task_DD_L5,2021.2.3,Win32,61.00536847,,,,,,,,,,,1.8376,1,,,,,,,,,,,,,,m,1,1.8376,,,,,,,,0.196820175,-0.210526316,0,0,0,,0,116,116,75,1,HAMMER,HB,old,m,./images/HAMMERHB.png,,,,,,,,,,,,,,,,,,,,,
,,,,,,,,,,,,,,,,,200050,18,2022-01-29_24h49.26.106,lexical_decision_task_DD_L5,2021.2.3,Win32,61.00536847,,,,,,,,,,,0.6747,1,,,,,,,,,,,,,,z,1,0.6747,,,,,,,,0.196820175,-0.210526316,0,0,0,,0,117,117,117,1,STEEG,C,old,z,./images/STEEG.png,,,,,,,,,,,,,,,,,,,,,
,,,,,,,,,,,,,,,,,200050,18,2022-01-29_24h49.26.106,lexical_decision_task_DD_L5,2021.2.3,Win32,61.00536847,,,,,,,,,,,1.3181,1,,,,,,,,,,,,,,z,1,1.3181,,,,,,,,0.196820175,-0.210526316,0,0,0,,0,118,118,139,1,BLEAR,HB,old,z,./images/BLEARHB.png,,,,,,,,,,,,,,,,,,,,,
,,,,,,,,,,,,,,,,,200050,18,2022-01-29_24h49.26.106,lexical_decision_task_DD_L5,2021.2.3,Win32,61.00536847,,,,,,,,,,,0.7851,1,,,,,,,,,,,,,,m,1,0.7851,,,,,,,,0.196820175,-0.210526316,0,0,0,,0,119,119,49,1,BISHOP,LB,old,m,./images/BISHOPLB.png,,,,,,,,,,,,,,,,,,,,,
,,,,,,,,,,,,,,,,,200050,18,2022-01-29_24h49.26.106,lexical_decision_task_DD_L5,2021.2.3,Win32,61.00536847,,,,,,,,,,,0.673,1,,,,,,,,,,,,,,z,1,0.673,,,,,,,,0.196820175,-0.210526316,0,0,0,,0,120,120,156,1,HIXES,C,old,z,./images/HIXES.png,,,,,,,,,,,,,,,,,,,,,
,,,,,,,,,,,,,,,,,200050,18,2022-01-29_24h49.26.106,lexical_decision_task_DD_L5,2021.2.3,Win32,61.00536847,,,,,,,,,,,0.6175,1,,,,,,,,,,,,,,z,1,0.6175,,,,,,,,0.196820175,-0.210526316,0,0,0,,0,121,121,123,1,SEDGE,C,old,z,./images/SEDGE.png,,,,,,,,,,,,,,,,,,,,,
,,,,,,,,,,,,,,,,,200050,18,2022-01-29_24h49.26.106,lexical_decision_task_DD_L5,2021.2.3,Win32,61.00536847,,,,,,,,,,,1.1011,1,,,,,,,,,,,,,,z,1,1.1011,,,,,,,,0.196820175,-0.210526316,0,0,0,,0,122,122,121,1,CEERS,HB,old,z,./images/CEERSHB.png,,,,,,,,,,,,,,,,,,,,,
,,,,,,,,,,,,,,,,,200050,18,2022-01-29_24h49.26.106,lexical_decision_task_DD_L5,2021.2.3,Win32,61.00536847,,,,,,,,,,,0.734,1,,,,,,,,,,,,,,z,1,0.734,,,,,,,,0.196820175,-0.210526316,0,0,0,,0,123,123,119,1,PAFER,LB,old,z,./images/PAFERLB.png,,,,,,,,,,,,,,,,,,,,,
,,,,,,,,,,,,,,,,,200050,18,2022-01-29_24h49.26.106,lexical_decision_task_DD_L5,2021.2.3,Win32,61.00536847,,,,,,,,,,,2.1576,1,,,,,,,,,,,,,,z,1,2.1576,,,,,,,,0.196820175,-0.210526316,0,0,0,,0,124,124,151,1,TINKY,HB,old,z,./images/TINKYHB.png,,,,,,,,,,,,,,,,,,,,,
,,,,,,,,,,,,,,,,,200050,18,2022-01-29_24h49.26.106,lexical_decision_task_DD_L5,2021.2.3,Win32,61.00536847,,,,,,,,,,,0.5018,1,,,,,,,,,,,,,,m,1,0.5018,,,,,,,,0.196820175,-0.210526316,0,0,0,space,0,125,125,53,1,POSTER,C,old,m,./images/POSTER.png,1.4341,,,,,,,,,,,,,,,,,,,,
,,,,,,,,,,,,,,,,,200050,18,2022-01-29_24h49.26.106,lexical_decision_task_DD_L5,2021.2.3,Win32,61.00536847,,,,,,,,,,,0.9368,1,,,,,,,,,,,,,,z,1,0.9368,,,,,,,,0.196820175,-0.210526316,0,0,0,,0,126,126,95,1,HANTY,LB,old,z,./images/HANTYLB.png,,,,,,,,,,,,,,,,,,,,,
,,,,,,,,,,,,,,,,,200050,18,2022-01-29_24h49.26.106,lexical_decision_task_DD_L5,2021.2.3,Win32,61.00536847,,,,,,,,,,,0.8011,1,,,,,,,,,,,,,,z,1,0.8011,,,,,,,,0.196820175,-0.210526316,0,0,0,,0,127,127,122,1,BLOOT,LB,old,z,./images/BLOOTLB.png,,,,,,,,,,,,,,,,,,,,,
,,,,,,,,,,,,,,,,,200050,18,2022-01-29_24h49.26.106,lexical_decision_task_DD_L5,2021.2.3,Win32,61.00536847,,,,,,,,,,,0.5736,1,,,,,,,,,,,,,,m,1,0.5736,,,,,,,,0.196820175,-0.210526316,0,0,0,,0,128,128,26,1,CLOUD,C,old,m,./images/CLOUD.png,,,,,,,,,,,,,,,,,,,,,
,,,,,,,,,,,,,,,,,200050,18,2022-01-29_24h49.26.106,lexical_decision_task_DD_L5,2021.2.3,Win32,61.00536847,,,,,,,,,,,0.7672,1,,,,,,,,,,,,,,z,1,0.7672,,,,,,,,0.196820175,-0.210526316,0,0,0,,0,129,129,131,1,NACES,LB,old,z,./images/NACESLB.png,,,,,,,,,,,,,,,,,,,,,
,,,,,,,,,,,,,,,,,200050,18,2022-01-29_24h49.26.106,lexical_decision_task_DD_L5,2021.2.3,Win32,61.00536847,,,,,,,,,,,0.5342,1,,,,,,,,,,,,,,m,1,0.5342,,,,,,,,0.196820175,-0.210526316,0,0,0,,0,130,130,23,1,CLOTH,C,old,m,./images/CLOTH.png,,,,,,,,,,,,,,,,,,,,,
,,,,,,,,,,,,,,,,,200050,18,2022-01-29_24h49.26.106,lexical_decision_task_DD_L5,2021.2.3,Win32,61.00536847,,,,,,,,,,,0.7508,1,,,,,,,,,,,,,,z,1,0.7508,,,,,,,,0.196820175,-0.210526316,0,0,0,,0,131,131,141,1,PLEET,C,old,z,./images/PLEET.png,,,,,,,,,,,,,,,,,,,,,
,,,,,,,,,,,,,,,,,200050,18,2022-01-29_24h49.26.106,lexical_decision_task_DD_L5,2021.2.3,Win32,61.00536847,,,,,,,,,,,0.7186,1,,,,,,,,,,,,,,m,1,0.7186,,,,,,,,0.196820175,-0.210526316,0,0,0,,0,132,132,68,1,VALLEY,C,old,m,./images/VALLEY.png,,,,,,,,,,,,,,,,,,,,,
,,,,,,,,,,,,,,,,,200050,18,2022-01-29_24h49.26.106,lexical_decision_task_DD_L5,2021.2.3,Win32,61.00536847,,,,,,,,,,,0.7071,1,,,,,,,,,,,,,,m,1,0.7071,,,,,,,,0.196820175,-0.210526316,0,0,0,,0,133,133,37,1,TIGER,LB,old,m,./images/TIGERLB.png,,,,,,,,,,,,,,,,,,,,,
,,,,,,,,,,,,,,,,,200050,18,2022-01-29_24h49.26.106,lexical_decision_task_DD_L5,2021.2.3,Win32,61.00536847,,,,,,,,,,,0.802,1,,,,,,,,,,,,,,z,1,0.802,,,,,,,,0.196820175,-0.210526316,0,0,0,,0,134,134,138,1,PLICE,C,old,z,./images/PLICE.png,,,,,,,,,,,,,,,,,,,,,
,,,,,,,,,,,,,,,,,200050,18,2022-01-29_24h49.26.106,lexical_decision_task_DD_L5,2021.2.3,Win32,61.00536847,,,,,,,,,,,0.8514,1,,,,,,,,,,,,,,z,1,0.8514,,,,,,,,0.196820175,-0.210526316,0,0,0,,0,135,135,92,1,PAIMS,LB,old,z,./images/PAIMSLB.png,,,,,,,,,,,,,,,,,,,,,
,,,,,,,,,,,,,,,,,200050,18,2022-01-29_24h49.26.106,lexical_decision_task_DD_L5,2021.2.3,Win32,61.00536847,,,,,,,,,,,1.9682,1,,,,,,,,,,,,,,m,1,1.9682,,,,,,,,0.196820175,-0.210526316,0,0,0,,0,136,136,36,1,BOILER,HB,old,m,./images/BOILERHB.png,,,,,,,,,,,,,,,,,,,,,
,,,,,,,,,,,,,,,,,200050,18,2022-01-29_24h49.26.106,lexical_decision_task_DD_L5,2021.2.3,Win32,61.00536847,,,,,,,,,,,0.7841,1,,,,,,,,,,,,,,m,1,0.7841,,,,,,,,0.196820175,-0.210526316,0,0,0,,0,137,137,4,1,BOXER,LB,old,m,./images/BOXERLB.png,,,,,,,,,,,,,,,,,,,,,
,,,,,,,,,,,,,,,,,200050,18,2022-01-29_24h49.26.106,lexical_decision_task_DD_L5,2021.2.3,Win32,61.00536847,,,,,,,,,,,0.7516,1,,,,,,,,,,,,,,z,1,0.7516,,,,,,,,0.196820175,-0.210526316,0,0,0,,0,138,138,125,1,MOOKY,LB,old,z,./images/MOOKYLB.png,,,,,,,,,,,,,,,,,,,,,
,,,,,,,,,,,,,,,,,200050,18,2022-01-29_24h49.26.106,lexical_decision_task_DD_L5,2021.2.3,Win32,61.00536847,,,,,,,,,,,0.6247,1,,,,,,,,,,,,,,m,1,0.6247,,,,,,,,0.196820175,-0.210526316,0,0,0,,0,139,139,1,1,TOWEL,LB,old,m,./images/TOWELLB.png,,,,,,,,,,,,,,,,,,,,,
,,,,,,,,,,,,,,,,,200050,18,2022-01-29_24h49.26.106,lexical_decision_task_DD_L5,2021.2.3,Win32,61.00536847,,,,,,,,,,,0.9513,1,,,,,,,,,,,,,,m,1,0.9513,,,,,,,,0.196820175,-0.210526316,0,0,0,,0,140,140,27,1,BUTTER,HB,old,m,./images/BUTTERHB.png,,,,,,,,,,,,,,,,,,,,,
,,,,,,,,,,,,,,,,,200050,18,2022-01-29_24h49.26.106,lexical_decision_task_DD_L5,2021.2.3,Win32,61.00536847,,,,,,,,,,,0.6681,1,,,,,,,,,,,,,,z,1,0.6681,,,,,,,,0.196820175,-0.210526316,0,0,0,,0,141,141,101,1,GLEET,LB,old,z,./images/GLEETLB.png,,,,,,,,,,,,,,,,,,,,,
,,,,,,,,,,,,,,,,,200050,18,2022-01-29_24h49.26.106,lexical_decision_task_DD_L5,2021.2.3,Win32,61.00536847,,,,,,,,,,,1.5845,0,,,,,,,,,,,,,,m,0,1.5845,,,,,,,,0.196820175,-0.210526316,0,0,0,,0,142,142,130,1,CRILL,HB,old,z,./images/CRILLHB.png,,,,,,,,,,,,,,,,,,,,,
,,,,,,,,,,,,,,,,,200050,18,2022-01-29_24h49.26.106,lexical_decision_task_DD_L5,2021.2.3,Win32,61.00536847,,,,,,,,,,,1.0515,1,,,,,,,,,,,,,,z,1,1.0515,,,,,,,,0.196820175,-0.210526316,0,0,0,,0,143,143,136,1,WERVE,HB,old,z,./images/WERVEHB.png,,,,,,,,,,,,,,,,,,,,,
,,,,,,,,,,,,,,,,,200050,18,2022-01-29_24h49.26.106,lexical_decision_task_DD_L5,2021.2.3,Win32,61.00536847,,,,,,,,,,,0.7032,1,,,,,,,,,,,,,,m,1,0.7032,,,,,,,,0.196820175,-0.210526316,0,0,0,,0,144,144,46,1,MUMMY,LB,old,m,./images/MUMMYLB.png,,,,,,,,,,,,,,,,,,,,,
,,,,,,,,,,,,,,,,,200050,18,2022-01-29_24h49.26.106,lexical_decision_task_DD_L5,2021.2.3,Win32,61.00536847,,,,,,,,,,,0.7343,1,,,,,,,,,,,,,,z,1,0.7343,,,,,,,,0.196820175,-0.210526316,0,0,0,,0,145,145,89,1,DRIEK,LB,old,z,./images/DRIEKLB.png,,,,,,,,,,,,,,,,,,,,,
,,,,,,,,,,,,,,,,,200050,18,2022-01-29_24h49.26.106,lexical_decision_task_DD_L5,2021.2.3,Win32,61.00536847,,,,,,,,,,,0.6706,1,,,,,,,,,,,,,,m,1,0.6706,,,,,,,,0.196820175,-0.210526316,0,0,0,,0,146,146,64,1,BRIDE,LB,old,m,./images/BRIDELB.png,,,,,,,,,,,,,,,,,,,,,
,,,,,,,,,,,,,,,,,200050,18,2022-01-29_24h49.26.106,lexical_decision_task_DD_L5,2021.2.3,Win32,61.00536847,,,,,,,,,,,0.8414,1,,,,,,,,,,,,,,m,1,0.8414,,,,,,,,0.196820175,-0.210526316,0,0,0,,0,147,147,11,1,MEDAL,C,old,m,./images/MEDAL.png,,,,,,,,,,,,,,,,,,,,,
,,,,,,,,,,,,,,,,,200050,18,2022-01-29_24h49.26.106,lexical_decision_task_DD_L5,2021.2.3,Win32,61.00536847,,,,,,,,,,,1.5716,1,,,,,,,,,,,,,,z,1,1.5716,,,,,,,,0.196820175,-0.210526316,0,0,0,,0,148,148,157,1,INLER,HB,old,z,./images/INLERHB.png,,,,,,,,,,,,,,,,,,,,,
,,,,,,,,,,,,,,,,,200050,18,2022-01-29_24h49.26.106,lexical_decision_task_DD_L5,2021.2.3,Win32,61.00536847,,,,,,,,,,,0.69,1,,,,,,,,,,,,,,m,1,0.69,,,,,,,,0.196820175,-0.210526316,0,0,0,,0,149,149,51,1,SAUCE,HB,old,m,./images/SAUCEHB.png,,,,,,,,,,,,,,,,,,,,,
,,,,,,,,,,,,,,,,,200050,18,2022-01-29_24h49.26.106,lexical_decision_task_DD_L5,2021.2.3,Win32,61.00536847,,,,,,,,,,,0.6003,1,,,,,,,,,,,,,,m,1,0.6003,,,,,,,,0.196820175,-0.210526316,0,0,0,,0,150,150,55,1,ALLEY,LB,old,m,./images/ALLEYLB.png,,,,,,,,,,,,,,,,,,,,,
,,,,,,,,,,,,,,,,,200050,18,2022-01-29_24h49.26.106,lexical_decision_task_DD_L5,2021.2.3,Win32,61.00536847,,,,,,,,,,,0.768,1,,,,,,,,,,,,,,z,1,0.768,,,,,,,,0.196820175,-0.210526316,0,0,0,,0,151,151,162,1,LEICH,C,old,z,./images/LEICH.png,,,,,,,,,,,,,,,,,,,,,
,,,,,,,,,,,,,,,,,200050,18,2022-01-29_24h49.26.106,lexical_decision_task_DD_L5,2021.2.3,Win32,61.00536847,,,,,,,,,,,0.634,1,,,,,,,,,,,,,,m,1,0.634,,,,,,,,0.196820175,-0.210526316,0,0,0,,0,152,152,15,1,COLLAR,HB,old,m,./images/COLLARHB.png,,,,,,,,,,,,,,,,,,,,,
,,,,,,,,,,,,,,,,,200050,18,2022-01-29_24h49.26.106,lexical_decision_task_DD_L5,2021.2.3,Win32,61.00536847,,,,,,,,,,,0.7512,1,,,,,,,,,,,,,,z,1,0.7512,,,,,,,,0.196820175,-0.210526316,0,0,0,,0,153,153,105,1,MOKER,C,old,z,./images/MOKER.png,,,,,,,,,,,,,,,,,,,,,
,,,,,,,,,,,,,,,,,200050,18,2022-01-29_24h49.26.106,lexical_decision_task_DD_L5,2021.2.3,Win32,61.00536847,,,,,,,,,,,0.6342,1,,,,,,,,,,,,,,m,1,0.6342,,,,,,,,0.196820175,-0.210526316,0,0,0,,0,154,154,34,1,RAZOR,LB,old,m,./images/RAZORLB.png,,,,,,,,,,,,,,,,,,,,,
,,,,,,,,,,,,,,,,,200050,18,2022-01-29_24h49.26.106,lexical_decision_task_DD_L5,2021.2.3,Win32,61.00536847,,,,,,,,,,,0.6054,1,,,,,,,,,,,,,,m,1,0.6054,,,,,,,,0.196820175,-0.210526316,0,0,0,,0,155,155,59,1,BRUSH,C,old,m,./images/BRUSH.png,,,,,,,,,,,,,,,,,,,,,
,,,,,,,,,,,,,,,,,200050,18,2022-01-29_24h49.26.106,lexical_decision_task_DD_L5,2021.2.3,Win32,61.00536847,,,,,,,,,,,0.6669,1,,,,,,,,,,,,,,m,1,0.6669,,,,,,,,0.196820175,-0.210526316,0,0,0,,0,156,156,54,1,CHERRY,HB,old,m,./images/CHERRYHB.png,,,,,,,,,,,,,,,,,,,,,
,,,,,,,,,,,,,,,,,200050,18,2022-01-29_24h49.26.106,lexical_decision_task_DD_L5,2021.2.3,Win32,61.00536847,,,,,,,,,,,0.9891,1,,,,,,,,,,,,,,z,1,0.9891,,,,,,,,0.196820175,-0.210526316,0,0,0,,0,157,157,134,1,TROSS,LB,old,z,./images/TROSSLB.png,,,,,,,,,,,,,,,,,,,,,
,,,,,,,,,,,,,,,,,200050,18,2022-01-29_24h49.26.106,lexical_decision_task_DD_L5,2021.2.3,Win32,61.00536847,,,,,,,,,,,0.8676,1,,,,,,,,,,,,,,z,1,0.8676,,,,,,,,0.196820175,-0.210526316,0,0,0,,0,158,158,87,1,TRING,C,old,z,./images/TRING.png,,,,,,,,,,,,,,,,,,,,,
,,,,,,,,,,,,,,,,,200050,18,2022-01-29_24h49.26.106,lexical_decision_task_DD_L5,2021.2.3,Win32,61.00536847,,,,,,,,,,,1.6351,1,,,,,,,,,,,,,,z,1,1.6351,,,,,,,,0.196820175,-0.210526316,0,0,0,,0,159,159,145,1,LAMEL,HB,old,z,./images/LAMELHB.png,,,,,,,,,,,,,,,,,,,,,
,,,,,,,,,,,,,,,,,200050,18,2022-01-29_24h49.26.106,lexical_decision_task_DD_L5,2021.2.3,Win32,61.00536847,,,,,,,,,,,1.6704,1,,,,,,,,,,,,,,z,1,1.6704,,,,,,,,0.196820175,-0.210526316,0,0,0,,0,160,160,99,1,BACKY,C,old,z,./images/BACKY.png,,,,,,,,,,,,,,,,,,,,,
,,,,,,,,,,,,,,,,,200050,18,2022-01-29_24h49.26.106,lexical_decision_task_DD_L5,2021.2.3,Win32,61.00536847,,,,,,,,,,,0.7188,1,,,,,,,,,,,,,,m,1,0.7188,,,,,,,,0.196820175,-0.210526316,0,0,0,,0,161,161,44,1,BASKET,C,old,m,./images/BASKET.png,,,,,,,,,,,,,,,,,,,,,
,,,,,,,,,,,,,,,,,200050,18,2022-01-29_24h49.26.106,lexical_decision_task_DD_L5,2021.2.3,Win32,61.00536847,,,,,,,,,,,0.5009,1,,,,,,,,,,,,,,m,1,0.5009,,,,,,,,0.196820175,-0.210526316,0,0,0,,0,162,162,74,1,JUMPER,C,old,m,./images/JUMPER.png,,,,,,,,,,,,,,,,,,,,,
,,,,,,,,,,,,,,,,,200050,18,2022-01-29_24h49.26.106,lexical_decision_task_DD_L5,2021.2.3,Win32,61.00536847,,,,,,,,,,,0.8184,1,,,,,,,,,,,,,,z,1,0.8184,,,,,,,,0.196820175,-0.210526316,0,0,0,,0,163,163,132,1,SCIFF,C,old,z,./images/SCIFF.png,,,,,,,,,,,,,,,,,,,,,
,,,,,,,,,,,,,,,,,200050,18,2022-01-29_24h49.26.106,lexical_decision_task_DD_L5,2021.2.3,Win32,61.00536847,,,,,,,,,,,0.752,1,,,,,,,,,,,,,,m,1,0.752,,,,,,,,0.196820175,-0.210526316,0,0,0,,0,164,164,66,1,STATUE,HB,old,m,./images/STATUEHB.png,,,,,,,,,,,,,,,,,,,,,
,,,,,,,,,,,,,,,,,200050,18,2022-01-29_24h49.26.106,lexical_decision_task_DD_L5,2021.2.3,Win32,61.00536847,,,,,,,,,,,0.5674,1,,,,,,,,,,,,,,m,1,0.5674,,,,,,,,0.196820175,-0.210526316,0,0,0,,0,165,165,2,1,STOVE,C,old,m,./images/STOVE.png,,,,,,,,,,,,,,,,,,,,,
,,,,,,,,,,,,,,,,,200050,18,2022-01-29_24h49.26.106,lexical_decision_task_DD_L5,2021.2.3,Win32,61.00536847,,,,,,,,,,,0.6358,1,,,,,,,,,,,,,,z,1,0.6358,,,,,,,,0.196820175,-0.210526316,0,0,0,,0,166,166,150,1,NOOLS,C,old,z,./images/NOOLS.png,,,,,,,,,,,,,,,,,,,,,
,,,,,,,,,,,,,,,,,200050,18,2022-01-29_24h49.26.106,lexical_decision_task_DD_L5,2021.2.3,Win32,61.00536847,,,,,,,,,,,0.9372,1,,,,,,,,,,,,,,m,1,0.9372,,,,,,,,0.196820175,-0.210526316,0,0,0,,0,167,167,77,1,WHEEL,C,old,m,./images/WHEEL.png,,,,,,,,,,,,,,,,,,,,,
space,16.9783,0.196820175,-0.210526316,0,0,0,,,,,,1,test,"In the next phase you will be presented with the words from the the first phase. Your job is to decide whether you remember seeing the word or not. If you remember seeing the word press ""old"" or type ""m"". If you do not remember seeing the word press ""new"" or type ""z"". Please press the space bar or click on continue to begin. ",,,200050,18,2022-01-29_24h49.26.106,lexical_decision_task_DD_L5,2021.2.3,Win32,61.00536847,,,,,,,,,,,,,,,,,,,,,,,,,,,,,,,,,,,,,,,,,,,,,,,,,,,,,0,0,0,0,1,,,,,,,,,,,,,,,
space,0.6512,0.196820175,-0.210526316,0,0,0,,,,,,1,test,"In the next phase you will be presented with the words from the the first phase. Your job is to decide whether you remember seeing the word or not. If you remember seeing the word press ""old"" or type ""m"". If you do not remember seeing the word press ""new"" or type ""z"". Please press the space bar or click on continue to begin. ",,,200050,18,2022-01-29_24h49.26.106,lexical_decision_task_DD_L5,2021.2.3,Win32,61.00536847,,,,,,,,,,,,,,,,,,,,,,,,,,,,,,,,,,,,,,,,,,,,,,,,,,,,,1,0,1,0,1,,,,,,,,,,,,,,,
space,0.3353,0.196820175,-0.210526316,0,0,0,,,,,,1,test,"In the next phase you will be presented with the words from the the first phase. Your job is to decide whether you remember seeing the word or not. If you remember seeing the word press ""old"" or type ""m"". If you do not remember seeing the word press ""new"" or type ""z"". Please press the space bar or click on continue to begin. ",,,200050,18,2022-01-29_24h49.26.106,lexical_decision_task_DD_L5,2021.2.3,Win32,61.00536847,,,,,,,,,,,,,,,,,,,,,,,,,,,,,,,,,,,,,,,,,,,,,,,,,,,,,2,0,2,0,1,,,,,,,,,,,,,,,
space,0.3842,0.196820175,-0.210526316,0,0,0,,,,,,1,test,"In the next phase you will be presented with the words from the the first phase. Your job is to decide whether you remember seeing the word or not. If you remember seeing the word press ""old"" or type ""m"". If you do not remember seeing the word press ""new"" or type ""z"". Please press the space bar or click on continue to begin. ",,,200050,18,2022-01-29_24h49.26.106,lexical_decision_task_DD_L5,2021.2.3,Win32,61.00536847,,,,,,,,,,,,,,,,,,,,,,,,,,,,,,,,,,,,,,,,,,,,,,,,,,,,,3,0,3,0,1,,,,,,,,,,,,,,,
space,2.3413,0.196820175,-0.210526316,0,0,0,,,,,,1,test,"In the next phase you will be presented with the words from the the first phase. Your job is to decide whether you remember seeing the word or not. If you remember seeing the word press ""old"" or type ""m"". If you do not remember seeing the word press ""new"" or type ""z"". Please press the space bar or click on continue to begin. ",,,200050,18,2022-01-29_24h49.26.106,lexical_decision_task_DD_L5,2021.2.3,Win32,61.00536847,,,,,,,,,,,,,,,,,,,,,,,,,,,,,,,,,,,,,,,,,,,,,,,,,,,,,4,0,4,0,1,,,,,,,,,,,,,,,
,,,,,,,,,,,,,,,,,200050,18,2022-01-29_24h49.26.106,lexical_decision_task_DD_L5,2021.2.3,Win32,61.00536847,,,,,,,,,,,5.7053,1,,,,,,,,,,,,,,,,,,,,,,,,0.196820175,-0.210526316,0,0,0,,,,,,,WEASEL,C,z,y,./images/WEASEL.png,,,,,,,z,1,5.7053,,,,,,,,0,0,0,164,1
,,,,,,,,,,,,,,,,,200050,18,2022-01-29_24h49.26.106,lexical_decision_task_DD_L5,2021.2.3,Win32,61.00536847,,,,,,,,,,,1.0675,1,,,,,,,,,,,,,,,,,,,,,,,,0.196820175,-0.210526316,0,0,0,,,,,,,WRIST,LB,z,y,./images/WRISTLB.png,,,,,,,z,1,1.0675,,,,,,,,0,1,1,109,1
,,,,,,,,,,,,,,,,,200050,18,2022-01-29_24h49.26.106,lexical_decision_task_DD_L5,2021.2.3,Win32,61.00536847,,,,,,,,,,,0.9352,1,,,,,,,,,,,,,,,,,,,,,,,,0.196820175,-0.210526316,0,0,0,,,,,,,RHINO,HB,z,y,./images/RHINOHB.png,,,,,,,z,1,0.9352,,,,,,,,0,2,2,93,1
,,,,,,,,,,,,,,,,,200050,18,2022-01-29_24h49.26.106,lexical_decision_task_DD_L5,2021.2.3,Win32,61.00536847,,,,,,,,,,,1.0181,1,,,,,,,,,,,,,,,,,,,,,,,,0.196820175,-0.210526316,0,0,0,,,,,,,SWING,LB,z,y,./images/SWINGLB.png,,,,,,,z,1,1.0181,,,,,,,,0,3,3,124,1
,,,,,,,,,,,,,,,,,200050,18,2022-01-29_24h49.26.106,lexical_decision_task_DD_L5,2021.2.3,Win32,61.00536847,,,,,,,,,,,0.756,1,,,,,,,,,,,,,,,,,,,,,,,,0.196820175,-0.210526316,0,0,0,,,,,,,TORCH,C,z,y,./images/TORCH.png,,,,,,,z,1,0.756,,,,,,,,0,4,4,152,1
,,,,,,,,,,,,,,,,,200050,18,2022-01-29_24h49.26.106,lexical_decision_task_DD_L5,2021.2.3,Win32,61.00536847,,,,,,,,,,,0.7037,1,,,,,,,,,,,,,,,,,,,,,,,,0.196820175,-0.210526316,0,0,0,,,,,,,LIZARD,C,z,y,./images/LIZARD.png,,,,,,,z,1,0.7037,,,,,,,,0,5,5,128,1
,,,,,,,,,,,,,,,,,200050,18,2022-01-29_24h49.26.106,lexical_decision_task_DD_L5,2021.2.3,Win32,61.00536847,,,,,,,,,,,0.8843,1,,,,,,,,,,,,,,,,,,,,,,,,0.196820175,-0.210526316,0,0,0,,,,,,,FINGER,HB,z,y,./images/FINGERHB.png,,,,,,,z,1,0.8843,,,,,,,,0,6,6,87,1
,,,,,,,,,,,,,,,,,200050,18,2022-01-29_24h49.26.106,lexical_decision_task_DD_L5,2021.2.3,Win32,61.00536847,,,,,,,,,,,0.6378,0,,,,,,,,,,,,,,,,,,,,,,,,0.196820175,-0.210526316,0,0,0,,,,,,,COUCH,C,z,y,./images/COUCH.png,,,,,,,m,0,0.6378,,,,,,,,0,7,7,161,1
,,,,,,,,,,,,,,,,,200050,18,2022-01-29_24h49.26.106,lexical_decision_task_DD_L5,2021.2.3,Win32,61.00536847,,,,,,,,,,,1.4907,1,,,,,,,,,,,,,,,,,,,,,,,,0.196820175,-0.210526316,0,0,0,,,,,,,BLOKE,HB,m,y,./images/BLOKEHB.png,,,,,,,m,1,1.4907,,,,,,,,0,8,8,12,1
,,,,,,,,,,,,,,,,,200050,18,2022-01-29_24h49.26.106,lexical_decision_task_DD_L5,2021.2.3,Win32,61.00536847,,,,,,,,,,,0.8523,1,,,,,,,,,,,,,,,,,,,,,,,,0.196820175,-0.210526316,0,0,0,,,,,,,STORM,HB,z,y,./images/STORMHB.png,,,,,,,z,1,0.8523,,,,,,,,0,9,9,114,1
,,,,,,,,,,,,,,,,,200050,18,2022-01-29_24h49.26.106,lexical_decision_task_DD_L5,2021.2.3,Win32,61.00536847,,,,,,,,,,,0.9838,1,,,,,,,,,,,,,,,,,,,,,,,,0.196820175,-0.210526316,0,0,0,,,,,,,WHISKY,C,m,y,./images/WHISKY.png,,,,,,,m,1,0.9838,,,,,,,,0,10,10,83,1
,,,,,,,,,,,,,,,,,200050,18,2022-01-29_24h49.26.106,lexical_decision_task_DD_L5,2021.2.3,Win32,61.00536847,,,,,,,,,,,0.6893,1,,,,,,,,,,,,,,,,,,,,,,,,0.196820175,-0.210526316,0,0,0,,,,,,,PEBBLE,LB,m,y,./images/PEBBLELB.png,,,,,,,m,1,0.6893,,,,,,,,0,11,11,82,1
,,,,,,,,,,,,,,,,,200050,18,2022-01-29_24h49.26.106,lexical_decision_task_DD_L5,2021.2.3,Win32,61.00536847,,,,,,,,,,,0.6527,1,,,,,,,,,,,,,,,,,,,,,,,,0.196820175,-0.210526316,0,0,0,,,,,,,FERRY,HB,m,y,./images/FERRYHB.png,,,,,,,m,1,0.6527,,,,,,,,0,12,12,57,1
,,,,,,,,,,,,,,,,,200050,18,2022-01-29_24h49.26.106,lexical_decision_task_DD_L5,2021.2.3,Win32,61.00536847,,,,,,,,,,,0.6341,1,,,,,,,,,,,,,,,,,,,,,,,,0.196820175,-0.210526316,0,0,0,,,,,,,CLOWN,LB,m,y,./images/CLOWNLB.png,,,,,,,m,1,0.6341,,,,,,,,0,13,13,22,1
,,,,,,,,,,,,,,,,,200050,18,2022-01-29_24h49.26.106,lexical_decision_task_DD_L5,2021.2.3,Win32,61.00536847,,,,,,,,,,,1.6351,1,,,,,,,,,,,,,,,,,,,,,,,,0.196820175,-0.210526316,0,0,0,,,,,,,GRAIN,HB,z,y,./images/GRAINHB.png,,,,,,,z,1,1.6351,,,,,,,,0,14,14,159,1
,,,,,,,,,,,,,,,,,200050,18,2022-01-29_24h49.26.106,lexical_decision_task_DD_L5,2021.2.3,Win32,61.00536847,,,,,,,,,,,0.8212,1,,,,,,,,,,,,,,,,,,,,,,,,0.196820175,-0.210526316,0,0,0,,,,,,,PARCEL,HB,m,y,./images/PARCELHB.png,,,,,,,m,1,0.8212,,,,,,,,0,15,15,18,1
,,,,,,,,,,,,,,,,,200050,18,2022-01-29_24h49.26.106,lexical_decision_task_DD_L5,2021.2.3,Win32,61.00536847,,,,,,,,,,,0.5397,1,,,,,,,,,,,,,,,,,,,,,,,,0.196820175,-0.210526316,0,0,0,,,,,,,TIGER,LB,m,y,./images/TIGERLB.png,,,,,,,m,1,0.5397,,,,,,,,0,16,16,37,1
,,,,,,,,,,,,,,,,,200050,18,2022-01-29_24h49.26.106,lexical_decision_task_DD_L5,2021.2.3,Win32,61.00536847,,,,,,,,,,,0.634,1,,,,,,,,,,,,,,,,,,,,,,,,0.196820175,-0.210526316,0,0,0,,,,,,,BUTTER,HB,m,y,./images/BUTTERHB.png,,,,,,,m,1,0.634,,,,,,,,0,17,17,27,1
,,,,,,,,,,,,,,,,,200050,18,2022-01-29_24h49.26.106,lexical_decision_task_DD_L5,2021.2.3,Win32,61.00536847,,,,,,,,,,,0.8011,0,,,,,,,,,,,,,,,,,,,,,,,,0.196820175,-0.210526316,0,0,0,,,,,,,COOKER,HB,z,y,./images/COOKERHB.png,,,,,,,m,0,0.8011,,,,,,,,0,18,18,153,1
,,,,,,,,,,,,,,,,,200050,18,2022-01-29_24h49.26.106,lexical_decision_task_DD_L5,2021.2.3,Win32,61.00536847,,,,,,,,,,,0.6676,0,,,,,,,,,,,,,,,,,,,,,,,,0.196820175,-0.210526316,0,0,0,,,,,,,PACKET,C,z,y,./images/PACKET.png,,,,,,,m,0,0.6676,,,,,,,,0,19,19,140,1
,,,,,,,,,,,,,,,,,200050,18,2022-01-29_24h49.26.106,lexical_decision_task_DD_L5,2021.2.3,Win32,61.00536847,,,,,,,,,,,1.4845,1,,,,,,,,,,,,,,,,,,,,,,,,0.196820175,-0.210526316,0,0,0,,,,,,,MOOSE,HB,z,y,./images/MOOSEHB.png,,,,,,,z,1,1.4845,,,,,,,,0,20,20,141,1
,,,,,,,,,,,,,,,,,200050,18,2022-01-29_24h49.26.106,lexical_decision_task_DD_L5,2021.2.3,Win32,61.00536847,,,,,,,,,,,0.7009,1,,,,,,,,,,,,,,,,,,,,,,,,0.196820175,-0.210526316,0,0,0,,,,,,,WHEEL,C,m,y,./images/WHEEL.png,,,,,,,m,1,0.7009,,,,,,,,0,21,21,77,1
,,,,,,,,,,,,,,,,,200050,18,2022-01-29_24h49.26.106,lexical_decision_task_DD_L5,2021.2.3,Win32,61.00536847,,,,,,,,,,,0.7552,1,,,,,,,,,,,,,,,,,,,,,,,,0.196820175,-0.210526316,0,0,0,,,,,,,ATTIC,HB,z,y,./images/ATTICHB.png,,,,,,,z,1,0.7552,,,,,,,,0,22,22,111,1
,,,,,,,,,,,,,,,,,200050,18,2022-01-29_24h49.26.106,lexical_decision_task_DD_L5,2021.2.3,Win32,61.00536847,,,,,,,,,,,1.09,0,,,,,,,,,,,,,,,,,,,,,,,,0.196820175,-0.210526316,0,0,0,,,,,,,BERRY,C,z,y,./images/BERRY.png,,,,,,,m,0,1.09,,,,,,,,0,23,23,131,1
,,,,,,,,,,,,,,,,,200050,18,2022-01-29_24h49.26.106,lexical_decision_task_DD_L5,2021.2.3,Win32,61.00536847,,,,,,,,,,,0.8214,0,,,,,,,,,,,,,,,,,,,,,,,,0.196820175,-0.210526316,0,0,0,,,,,,,BARREL,C,z,y,./images/BARREL.png,,,,,,,m,0,0.8214,,,,,,,,0,24,24,116,1
,,,,,,,,,,,,,,,,,200050,18,2022-01-29_24h49.26.106,lexical_decision_task_DD_L5,2021.2.3,Win32,61.00536847,,,,,,,,,,,0.6528,1,,,,,,,,,,,,,,,,,,,,,,,,0.196820175,-0.210526316,0,0,0,,,,,,,TRIPOD,HB,z,y,./images/TRIPODHB.png,,,,,,,z,1,0.6528,,,,,,,,0,25,25,138,1
,,,,,,,,,,,,,,,,,200050,18,2022-01-29_24h49.26.106,lexical_decision_task_DD_L5,2021.2.3,Win32,61.00536847,,,,,,,,,,,0.8861,1,,,,,,,,,,,,,,,,,,,,,,,,0.196820175,-0.210526316,0,0,0,,,,,,,MUFFIN,LB,z,y,./images/MUFFINLB.png,,,,,,,z,1,0.8861,,,,,,,,0,26,26,139,1
,,,,,,,,,,,,,,,,,200050,18,2022-01-29_24h49.26.106,lexical_decision_task_DD_L5,2021.2.3,Win32,61.00536847,,,,,,,,,,,1.6682,1,,,,,,,,,,,,,,,,,,,,,,,,0.196820175,-0.210526316,0,0,0,,,,,,,CHAIN,HB,m,y,./images/CHAINHB.png,,,,,,,m,1,1.6682,,,,,,,,0,27,27,42,1
,,,,,,,,,,,,,,,,,200050,18,2022-01-29_24h49.26.106,lexical_decision_task_DD_L5,2021.2.3,Win32,61.00536847,,,,,,,,,,,0.8351,1,,,,,,,,,,,,,,,,,,,,,,,,0.196820175,-0.210526316,0,0,0,,,,,,,TOMATO,HB,z,y,./images/TOMATOHB.png,,,,,,,z,1,0.8351,,,,,,,,0,28,28,84,1
,,,,,,,,,,,,,,,,,200050,18,2022-01-29_24h49.26.106,lexical_decision_task_DD_L5,2021.2.3,Win32,61.00536847,,,,,,,,,,,0.7569,1,,,,,,,,,,,,,,,,,,,,,,,,0.196820175,-0.210526316,0,0,0,,,,,,,BURIAL,C,z,y,./images/BURIAL.png,,,,,,,z,1,0.7569,,,,,,,,0,29,29,143,1
,,,,,,,,,,,,,,,,,200050,18,2022-01-29_24h49.26.106,lexical_decision_task_DD_L5,2021.2.3,Win32,61.00536847,,,,,,,,,,,0.6502,1,,,,,,,,,,,,,,,,,,,,,,,,0.196820175,-0.210526316,0,0,0,,,,,,,BUNNY,LB,m,y,./images/BUNNYLB.png,,,,,,,m,1,0.6502,,,,,,,,0,30,30,13,1
,,,,,,,,,,,,,,,,,200050,18,2022-01-29_24h49.26.106,lexical_decision_task_DD_L5,2021.2.3,Win32,61.00536847,,,,,,,,,,,1.0883,0,,,,,,,,,,,,,,,,,,,,,,,,0.196820175,-0.210526316,0,0,0,,,,,,,BELLY,LB,z,y,./images/BELLYLB.png,,,,,,,m,0,1.0883,,,,,,,,0,31,31,94,1
,,,,,,,,,,,,,,,,,200050,18,2022-01-29_24h49.26.106,lexical_decision_task_DD_L5,2021.2.3,Win32,61.00536847,,,,,,,,,,,1.2193,0,,,,,,,,,,,,,,,,,,,,,,,,0.196820175,-0.210526316,0,0,0,,,,,,,SUNSET,LB,z,y,./images/SUNSETLB.png,,,,,,,m,0,1.2193,,,,,,,,0,32,32,166,1
,,,,,,,,,,,,,,,,,200050,18,2022-01-29_24h49.26.106,lexical_decision_task_DD_L5,2021.2.3,Win32,61.00536847,,,,,,,,,,,1.1014,1,,,,,,,,,,,,,,,,,,,,,,,,0.196820175,-0.210526316,0,0,0,,,,,,,MIRROR,HB,z,y,./images/MIRRORHB.png,,,,,,,z,1,1.1014,,,,,,,,0,33,33,147,1
,,,,,,,,,,,,,,,,,200050,18,2022-01-29_24h49.26.106,lexical_decision_task_DD_L5,2021.2.3,Win32,61.00536847,,,,,,,,,,,0.8176,0,,,,,,,,,,,,,,,,,,,,,,,,0.196820175,-0.210526316,0,0,0,,,,,,,FALCON,LB,z,y,./images/FALCONLB.png,,,,,,,m,0,0.8176,,,,,,,,0,34,34,112,1
,,,,,,,,,,,,,,,,,200050,18,2022-01-29_24h49.26.106,lexical_decision_task_DD_L5,2021.2.3,Win32,61.00536847,,,,,,,,,,,1.0004,1,,,,,,,,,,,,,,,,,,,,,,,,0.196820175,-0.210526316,0,0,0,,,,,,,STEAK,LB,m,y,./images/STEAKLB.png,,,,,,,m,1,1.0004,,,,,,,,0,35,35,31,1
,,,,,,,,,,,,,,,,,200050,18,2022-01-29_24h49.26.106,lexical_decision_task_DD_L5,2021.2.3,Win32,61.00536847,,,,,,,,,,,0.6564,1,,,,,,,,,,,,,,,,,,,,,,,,0.196820175,-0.210526316,0,0,0,,,,,,,SPINE,C,m,y,./images/SPINE.png,,,,,,,m,1,0.6564,,,,,,,,0,36,36,65,1
,,,,,,,,,,,,,,,,,200050,18,2022-01-29_24h49.26.106,lexical_decision_task_DD_L5,2021.2.3,Win32,61.00536847,,,,,,,,,,,0.7721,0,,,,,,,,,,,,,,,,,,,,,,,,0.196820175,-0.210526316,0,0,0,,,,,,,JELLY,LB,z,y,./images/JELLYLB.png,,,,,,,m,0,0.7721,,,,,,,,0,37,37,148,1
,,,,,,,,,,,,,,,,,200050,18,2022-01-29_24h49.26.106,lexical_decision_task_DD_L5,2021.2.3,Win32,61.00536847,,,,,,,,,,,1.1341,1,,,,,,,,,,,,,,,,,,,,,,,,0.196820175,-0.210526316,0,0,0,,,,,,,PICKLE,C,z,y,./images/PICKLE.png,,,,,,,z,1,1.1341,,,,,,,,0,38,38,98,1
,,,,,,,,,,,,,,,,,200050,18,2022-01-29_24h49.26.106,lexical_decision_task_DD_L5,2021.2.3,Win32,61.00536847,,,,,,,,,,,0.7685,0,,,,,,,,,,,,,,,,,,,,,,,,0.196820175,-0.210526316,0,0,0,,,,,,,JAGUAR,HB,z,y,./images/JAGUARHB.png,,,,,,,m,0,0.7685,,,,,,,,0,39,39,102,1
,,,,,,,,,,,,,,,,,200050,18,2022-01-29_24h49.26.106,lexical_decision_task_DD_L5,2021.2.3,Win32,61.00536847,,,,,,,,,,,0.8504,1,,,,,,,,,,,,,,,,,,,,,,,,0.196820175,-0.210526316,0,0,0,,,,,,,PIMPLE,C,z,y,./images/PIMPLE.png,,,,,,,z,1,0.8504,,,,,,,,0,40,40,155,1
,,,,,,,,,,,,,,,,,200050,18,2022-01-29_24h49.26.106,lexical_decision_task_DD_L5,2021.2.3,Win32,61.00536847,,,,,,,,,,,1.334,0,,,,,,,,,,,,,,,,,,,,,,,,0.196820175,-0.210526316,0,0,0,space,,,,,,PEACH,C,z,y,./images/PEACH.png,3.0701,,,,,,m,0,1.334,,,,,,,,0,41,41,119,1
,,,,,,,,,,,,,,,,,200050,18,2022-01-29_24h49.26.106,lexical_decision_task_DD_L5,2021.2.3,Win32,61.00536847,,,,,,,,,,,0.8839,0,,,,,,,,,,,,,,,,,,,,,,,,0.196820175,-0.210526316,0,0,0,,,,,,,LADDER,C,z,y,./images/LADDER.png,,,,,,,m,0,0.8839,,,,,,,,0,42,42,122,1
,,,,,,,,,,,,,,,,,200050,18,2022-01-29_24h49.26.106,lexical_decision_task_DD_L5,2021.2.3,Win32,61.00536847,,,,,,,,,,,0.8074,1,,,,,,,,,,,,,,,,,,,,,,,,0.196820175,-0.210526316,0,0,0,,,,,,,STREAM,C,m,y,./images/STREAM.png,,,,,,,m,1,0.8074,,,,,,,,0,43,43,41,1
,,,,,,,,,,,,,,,,,200050,18,2022-01-29_24h49.26.106,lexical_decision_task_DD_L5,2021.2.3,Win32,61.00536847,,,,,,,,,,,1.6684,1,,,,,,,,,,,,,,,,,,,,,,,,0.196820175,-0.210526316,0,0,0,,,,,,,DOUGH,LB,z,y,./images/DOUGHLB.png,,,,,,,z,1,1.6684,,,,,,,,0,44,44,103,1
,,,,,,,,,,,,,,,,,200050,18,2022-01-29_24h49.26.106,lexical_decision_task_DD_L5,2021.2.3,Win32,61.00536847,,,,,,,,,,,0.6711,1,,,,,,,,,,,,,,,,,,,,,,,,0.196820175,-0.210526316,0,0,0,,,,,,,BAKER,HB,m,y,./images/BAKERHB.png,,,,,,,m,1,0.6711,,,,,,,,0,45,45,63,1
,,,,,,,,,,,,,,,,,200050,18,2022-01-29_24h49.26.106,lexical_decision_task_DD_L5,2021.2.3,Win32,61.00536847,,,,,,,,,,,1.3683,1,,,,,,,,,,,,,,,,,,,,,,,,0.196820175,-0.210526316,0,0,0,,,,,,,BOXER,LB,m,y,./images/BOXERLB.png,,,,,,,m,1,1.3683,,,,,,,,0,46,46,4,1
,,,,,,,,,,,,,,,,,200050,18,2022-01-29_24h49.26.106,lexical_decision_task_DD_L5,2021.2.3,Win32,61.00536847,,,,,,,,,,,1.5081,1,,,,,,,,,,,,,,,,,,,,,,,,0.196820175,-0.210526316,0,0,0,,,,,,,SHELF,HB,z,y,./images/SHELFHB.png,,,,,,,z,1,1.5081,,,,,,,,0,47,47,123,1
,,,,,,,,,,,,,,,,,200050,18,2022-01-29_24h49.26.106,lexical_decision_task_DD_L5,2021.2.3,Win32,61.00536847,,,,,,,,,,,0.6225,1,,,,,,,,,,,,,,,,,,,,,,,,0.196820175,-0.210526316,0,0,0,,,,,,,LAGOON,C,m,y,./images/LAGOON.png,,,,,,,m,1,0.6225,,,,,,,,0,48,48,47,1
,,,,,,,,,,,,,,,,,200050,18,2022-01-29_24h49.26.106,lexical_decision_task_DD_L5,2021.2.3,Win32,61.00536847,,,,,,,,,,,0.6719,1,,,,,,,,,,,,,,,,,,,,,,,,0.196820175,-0.210526316,0,0,0,,,,,,,VALLEY,C,m,y,./images/VALLEY.png,,,,,,,m,1,0.6719,,,,,,,,0,49,49,68,1
,,,,,,,,,,,,,,,,,200050,18,2022-01-29_24h49.26.106,lexical_decision_task_DD_L5,2021.2.3,Win32,61.00536847,,,,,,,,,,,0.5701,1,,,,,,,,,,,,,,,,,,,,,,,,0.196820175,-0.210526316,0,0,0,,,,,,,MAMMAL,C,m,y,./images/MAMMAL.png,,,,,,,m,1,0.5701,,,,,,,,0,50,50,62,1
,,,,,,,,,,,,,,,,,200050,18,2022-01-29_24h49.26.106,lexical_decision_task_DD_L5,2021.2.3,Win32,61.00536847,,,,,,,,,,,0.9674,1,,,,,,,,,,,,,,,,,,,,,,,,0.196820175,-0.210526316,0,0,0,,,,,,,URINE,LB,z,y,./images/URINELB.png,,,,,,,z,1,0.9674,,,,,,,,0,51,51,154,1
,,,,,,,,,,,,,,,,,200050,18,2022-01-29_24h49.26.106,lexical_decision_task_DD_L5,2021.2.3,Win32,61.00536847,,,,,,,,,,,0.7574,1,,,,,,,,,,,,,,,,,,,,,,,,0.196820175,-0.210526316,0,0,0,,,,,,,DRILL,HB,m,y,./images/DRILLHB.png,,,,,,,m,1,0.7574,,,,,,,,0,52,52,81,1
,,,,,,,,,,,,,,,,,200050,18,2022-01-29_24h49.26.106,lexical_decision_task_DD_L5,2021.2.3,Win32,61.00536847,,,,,,,,,,,0.6175,1,,,,,,,,,,,,,,,,,,,,,,,,0.196820175,-0.210526316,0,0,0,,,,,,,BUBBLE,C,m,y,./images/BUBBLE.png,,,,,,,m,1,0.6175,,,,,,,,0,53,53,71,1
,,,,,,,,,,,,,,,,,200050,18,2022-01-29_24h49.26.106,lexical_decision_task_DD_L5,2021.2.3,Win32,61.00536847,,,,,,,,,,,0.8213,0,,,,,,,,,,,,,,,,,,,,,,,,0.196820175,-0.210526316,0,0,0,,,,,,,HEATER,C,m,y,./images/HEATER.png,,,,,,,z,0,0.8213,,,,,,,,0,54,54,56,1
,,,,,,,,,,,,,,,,,200050,18,2022-01-29_24h49.26.106,lexical_decision_task_DD_L5,2021.2.3,Win32,61.00536847,,,,,,,,,,,1.4175,1,,,,,,,,,,,,,,,,,,,,,,,,0.196820175,-0.210526316,0,0,0,,,,,,,SNACK,LB,z,y,./images/SNACKLB.png,,,,,,,z,1,1.4175,,,,,,,,0,55,55,157,1
,,,,,,,,,,,,,,,,,200050,18,2022-01-29_24h49.26.106,lexical_decision_task_DD_L5,2021.2.3,Win32,61.00536847,,,,,,,,,,,0.9085,1,,,,,,,,,,,,,,,,,,,,,,,,0.196820175,-0.210526316,0,0,0,,,,,,,DRUMS,LB,z,y,./images/DRUMSLB.png,,,,,,,z,1,0.9085,,,,,,,,0,56,56,133,1
,,,,,,,,,,,,,,,,,200050,18,2022-01-29_24h49.26.106,lexical_decision_task_DD_L5,2021.2.3,Win32,61.00536847,,,,,,,,,,,0.6009,0,,,,,,,,,,,,,,,,,,,,,,,,0.196820175,-0.210526316,0,0,0,,,,,,,STRING,C,z,y,./images/STRING.png,,,,,,,m,0,0.6009,,,,,,,,0,57,57,125,1
,,,,,,,,,,,,,,,,,200050,18,2022-01-29_24h49.26.106,lexical_decision_task_DD_L5,2021.2.3,Win32,61.00536847,,,,,,,,,,,2.8089,0,,,,,,,,,,,,,,,,,,,,,,,,0.196820175,-0.210526316,0,0,0,,,,,,,MONKEY,HB,m,y,./images/MONKEYHB.png,,,,,,,z,0,2.8089,,,,,,,,0,58,58,45,1
,,,,,,,,,,,,,,,,,200050,18,2022-01-29_24h49.26.106,lexical_decision_task_DD_L5,2021.2.3,Win32,61.00536847,,,,,,,,,,,0.6673,1,,,,,,,,,,,,,,,,,,,,,,,,0.196820175,-0.210526316,0,0,0,,,,,,,FENCE,C,m,y,./images/FENCE.png,,,,,,,m,1,0.6673,,,,,,,,0,59,59,14,1
,,,,,,,,,,,,,,,,,200050,18,2022-01-29_24h49.26.106,lexical_decision_task_DD_L5,2021.2.3,Win32,61.00536847,,,,,,,,,,,0.5717,1,,,,,,,,,,,,,,,,,,,,,,,,0.196820175,-0.210526316,0,0,0,,,,,,,PILOT,C,m,y,./images/PILOT.png,,,,,,,m,1,0.5717,,,,,,,,0,60,60,50,1
,,,,,,,,,,,,,,,,,200050,18,2022-01-29_24h49.26.106,lexical_decision_task_DD_L5,2021.2.3,Win32,61.00536847,,,,,,,,,,,1.09,1,,,,,,,,,,,,,,,,,,,,,,,,0.196820175,-0.210526316,0,0,0,,,,,,,SWEAT,HB,z,y,./images/SWEATHB.png,,,,,,,z,1,1.09,,,,,,,,0,61,61,150,1
,,,,,,,,,,,,,,,,,200050,18,2022-01-29_24h49.26.106,lexical_decision_task_DD_L5,2021.2.3,Win32,61.00536847,,,,,,,,,,,0.6344,1,,,,,,,,,,,,,,,,,,,,,,,,0.196820175,-0.210526316,0,0,0,,,,,,,ENGINE,C,m,y,./images/ENGINE.png,,,,,,,m,1,0.6344,,,,,,,,0,62,62,38,1
,,,,,,,,,,,,,,,,,200050,18,2022-01-29_24h49.26.106,lexical_decision_task_DD_L5,2021.2.3,Win32,61.00536847,,,,,,,,,,,0.7342,1,,,,,,,,,,,,,,,,,,,,,,,,0.196820175,-0.210526316,0,0,0,,,,,,,WALRUS,C,z,y,./images/WALRUS.png,,,,,,,z,1,0.7342,,,,,,,,0,63,63,107,1
,,,,,,,,,,,,,,,,,200050,18,2022-01-29_24h49.26.106,lexical_decision_task_DD_L5,2021.2.3,Win32,61.00536847,,,,,,,,,,,1.2181,0,,,,,,,,,,,,,,,,,,,,,,,,0.196820175,-0.210526316,0,0,0,,,,,,,PAINT,LB,z,y,./images/PAINTLB.png,,,,,,,m,0,1.2181,,,,,,,,0,64,64,91,1
,,,,,,,,,,,,,,,,,200050,18,2022-01-29_24h49.26.106,lexical_decision_task_DD_L5,2021.2.3,Win32,61.00536847,,,,,,,,,,,0.8844,1,,,,,,,,,,,,,,,,,,,,,,,,0.196820175,-0.210526316,0,0,0,,,,,,,FLESH,HB,m,y,./images/FLESHHB.png,,,,,,,m,1,0.8844,,,,,,,,0,65,65,24,1
,,,,,,,,,,,,,,,,,200050,18,2022-01-29_24h49.26.106,lexical_decision_task_DD_L5,2021.2.3,Win32,61.00536847,,,,,,,,,,,1.0356,1,,,,,,,,,,,,,,,,,,,,,,,,0.196820175,-0.210526316,0,0,0,,,,,,,BONNET,C,z,y,./images/BONNET.png,,,,,,,z,1,1.0356,,,,,,,,0,66,66,95,1
,,,,,,,,,,,,,,,,,200050,18,2022-01-29_24h49.26.106,lexical_decision_task_DD_L5,2021.2.3,Win32,61.00536847,,,,,,,,,,,0.6674,1,,,,,,,,,,,,,,,,,,,,,,,,0.196820175,-0.210526316,0,0,0,,,,,,,CASINO,LB,m,y,./images/CASINOLB.png,,,,,,,m,1,0.6674,,,,,,,,0,67,67,28,1
,,,,,,,,,,,,,,,,,200050,18,2022-01-29_24h49.26.106,lexical_decision_task_DD_L5,2021.2.3,Win32,61.00536847,,,,,,,,,,,0.7564,1,,,,,,,,,,,,,,,,,,,,,,,,0.196820175,-0.210526316,0,0,0,,,,,,,CHALK,LB,m,y,./images/CHALKLB.png,,,,,,,m,1,0.7564,,,,,,,,0,68,68,25,1
,,,,,,,,,,,,,,,,,200050,18,2022-01-29_24h49.26.106,lexical_decision_task_DD_L5,2021.2.3,Win32,61.00536847,,,,,,,,,,,0.8213,1,,,,,,,,,,,,,,,,,,,,,,,,0.196820175,-0.210526316,0,0,0,,,,,,,SQUARE,HB,z,y,./images/SQUAREHB.png,,,,,,,z,1,0.8213,,,,,,,,0,69,69,90,1
,,,,,,,,,,,,,,,,,200050,18,2022-01-29_24h49.26.106,lexical_decision_task_DD_L5,2021.2.3,Win32,61.00536847,,,,,,,,,,,0.8208,1,,,,,,,,,,,,,,,,,,,,,,,,0.196820175,-0.210526316,0,0,0,,,,,,,TULIP,C,z,y,./images/TULIP.png,,,,,,,z,1,0.8208,,,,,,,,0,70,70,92,1
,,,,,,,,,,,,,,,,,200050,18,2022-01-29_24h49.26.106,lexical_decision_task_DD_L5,2021.2.3,Win32,61.00536847,,,,,,,,,,,0.6685,0,,,,,,,,,,,,,,,,,,,,,,,,0.196820175,-0.210526316,0,0,0,,,,,,,BABOON,LB,z,y,./images/BABOONLB.png,,,,,,,m,0,0.6685,,,,,,,,0,71,71,142,1
,,,,,,,,,,,,,,,,,200050,18,2022-01-29_24h49.26.106,lexical_decision_task_DD_L5,2021.2.3,Win32,61.00536847,,,,,,,,,,,0.9841,1,,,,,,,,,,,,,,,,,,,,,,,,0.196820175,-0.210526316,0,0,0,,,,,,,JUMPER,C,m,y,./images/JUMPER.png,,,,,,,m,1,0.9841,,,,,,,,0,72,72,74,1
,,,,,,,,,,,,,,,,,200050,18,2022-01-29_24h49.26.106,lexical_decision_task_DD_L5,2021.2.3,Win32,61.00536847,,,,,,,,,,,0.8192,1,,,,,,,,,,,,,,,,,,,,,,,,0.196820175,-0.210526316,0,0,0,,,,,,,FLASK,HB,m,y,./images/FLASKHB.png,,,,,,,m,1,0.8192,,,,,,,,0,73,73,72,1
,,,,,,,,,,,,,,,,,200050,18,2022-01-29_24h49.26.106,lexical_decision_task_DD_L5,2021.2.3,Win32,61.00536847,,,,,,,,,,,0.7012,1,,,,,,,,,,,,,,,,,,,,,,,,0.196820175,-0.210526316,0,0,0,,,,,,,SAUNA,HB,m,y,./images/SAUNAHB.png,,,,,,,m,1,0.7012,,,,,,,,0,74,74,33,1
,,,,,,,,,,,,,,,,,200050,18,2022-01-29_24h49.26.106,lexical_decision_task_DD_L5,2021.2.3,Win32,61.00536847,,,,,,,,,,,1.0538,1,,,,,,,,,,,,,,,,,,,,,,,,0.196820175,-0.210526316,0,0,0,,,,,,,QUILL,LB,z,y,./images/QUILLLB.png,,,,,,,z,1,1.0538,,,,,,,,0,75,75,115,1
,,,,,,,,,,,,,,,,,200050,18,2022-01-29_24h49.26.106,lexical_decision_task_DD_L5,2021.2.3,Win32,61.00536847,,,,,,,,,,,1.0584,1,,,,,,,,,,,,,,,,,,,,,,,,0.196820175,-0.210526316,0,0,0,,,,,,,WAGON,LB,m,y,./images/WAGONLB.png,,,,,,,m,1,1.0584,,,,,,,,0,76,76,7,1
,,,,,,,,,,,,,,,,,200050,18,2022-01-29_24h49.26.106,lexical_decision_task_DD_L5,2021.2.3,Win32,61.00536847,,,,,,,,,,,0.7735,1,,,,,,,,,,,,,,,,,,,,,,,,0.196820175,-0.210526316,0,0,0,,,,,,,STOOL,LB,m,y,./images/STOOLLB.png,,,,,,,m,1,0.7735,,,,,,,,0,77,77,43,1
,,,,,,,,,,,,,,,,,200050,18,2022-01-29_24h49.26.106,lexical_decision_task_DD_L5,2021.2.3,Win32,61.00536847,,,,,,,,,,,1.0022,1,,,,,,,,,,,,,,,,,,,,,,,,0.196820175,-0.210526316,0,0,0,,,,,,,SHORE,HB,z,y,./images/SHOREHB.png,,,,,,,z,1,1.0022,,,,,,,,0,78,78,96,1
,,,,,,,,,,,,,,,,,200050,18,2022-01-29_24h49.26.106,lexical_decision_task_DD_L5,2021.2.3,Win32,61.00536847,,,,,,,,,,,1.0177,1,,,,,,,,,,,,,,,,,,,,,,,,0.196820175,-0.210526316,0,0,0,,,,,,,FARMER,C,z,y,./images/FARMER.png,,,,,,,z,1,1.0177,,,,,,,,0,79,79,149,1
,,,,,,,,,,,,,,,,,200050,18,2022-01-29_24h49.26.106,lexical_decision_task_DD_L5,2021.2.3,Win32,61.00536847,,,,,,,,,,,0.651,1,,,,,,,,,,,,,,,,,,,,,,,,0.196820175,-0.210526316,0,0,0,,,,,,,BAMBOO,C,m,y,./images/BAMBOO.png,,,,,,,m,1,0.651,,,,,,,,0,80,80,5,1
,,,,,,,,,,,,,,,,,200050,18,2022-01-29_24h49.26.106,lexical_decision_task_DD_L5,2021.2.3,Win32,61.00536847,,,,,,,,,,,0.7511,1,,,,,,,,,,,,,,,,,,,,,,,,0.196820175,-0.210526316,0,0,0,,,,,,,BRIDE,LB,m,y,./images/BRIDELB.png,,,,,,,m,1,0.7511,,,,,,,,0,81,81,64,1
,,,,,,,,,,,,,,,,,200050,18,2022-01-29_24h49.26.106,lexical_decision_task_DD_L5,2021.2.3,Win32,61.00536847,,,,,,,,,,,0.7567,1,,,,,,,,,,,,,,,,,,,,,,,,0.196820175,-0.210526316,0,0,0,,,,,,,MEDAL,C,m,y,./images/MEDAL.png,,,,,,,m,1,0.7567,,,,,,,,0,82,82,11,1
,,,,,,,,,,,,,,,,,200050,18,2022-01-29_24h49.26.106,lexical_decision_task_DD_L5,2021.2.3,Win32,61.00536847,,,,,,,,,,,0.6179,1,,,,,,,,,,,,,,,,,,,,,,,,0.196820175,-0.210526316,0,0,0,space,,,,,,SAUCE,HB,m,y,./images/SAUCEHB.png,1.8218,,,,,,m,1,0.6179,,,,,,,,0,83,83,51,1
,,,,,,,,,,,,,,,,,200050,18,2022-01-29_24h49.26.106,lexical_decision_task_DD_L5,2021.2.3,Win32,61.00536847,,,,,,,,,,,0.7002,1,,,,,,,,,,,,,,,,,,,,,,,,0.196820175,-0.210526316,0,0,0,,,,,,,CHERRY,HB,m,y,./images/CHERRYHB.png,,,,,,,m,1,0.7002,,,,,,,,0,84,84,54,1
,,,,,,,,,,,,,,,,,200050,18,2022-01-29_24h49.26.106,lexical_decision_task_DD_L5,2021.2.3,Win32,61.00536847,,,,,,,,,,,0.8546,1,,,,,,,,,,,,,,,,,,,,,,,,0.196820175,-0.210526316,0,0,0,,,,,,,SMOKER,C,z,y,./images/SMOKER.png,,,,,,,z,1,0.8546,,,,,,,,0,85,85,110,1
,,,,,,,,,,,,,,,,,200050,18,2022-01-29_24h49.26.106,lexical_decision_task_DD_L5,2021.2.3,Win32,61.00536847,,,,,,,,,,,1.0566,0,,,,,,,,,,,,,,,,,,,,,,,,0.196820175,-0.210526316,0,0,0,,,,,,,DIVER,HB,m,y,./images/DIVERHB.png,,,,,,,z,0,1.0566,,,,,,,,0,86,86,9,1
,,,,,,,,,,,,,,,,,200050,18,2022-01-29_24h49.26.106,lexical_decision_task_DD_L5,2021.2.3,Win32,61.00536847,,,,,,,,,,,0.9716,0,,,,,,,,,,,,,,,,,,,,,,,,0.196820175,-0.210526316,0,0,0,,,,,,,SHIELD,HB,m,y,./images/SHIELDHB.png,,,,,,,z,0,0.9716,,,,,,,,0,87,87,48,1
,,,,,,,,,,,,,,,,,200050,18,2022-01-29_24h49.26.106,lexical_decision_task_DD_L5,2021.2.3,Win32,61.00536847,,,,,,,,,,,0.6845,1,,,,,,,,,,,,,,,,,,,,,,,,0.196820175,-0.210526316,0,0,0,,,,,,,ARTIST,LB,m,y,./images/ARTISTLB.png,,,,,,,m,1,0.6845,,,,,,,,0,88,88,61,1
,,,,,,,,,,,,,,,,,200050,18,2022-01-29_24h49.26.106,lexical_decision_task_DD_L5,2021.2.3,Win32,61.00536847,,,,,,,,,,,1.0674,0,,,,,,,,,,,,,,,,,,,,,,,,0.196820175,-0.210526316,0,0,0,,,,,,,THROAT,HB,z,y,./images/THROATHB.png,,,,,,,m,0,1.0674,,,,,,,,0,89,89,120,1
,,,,,,,,,,,,,,,,,200050,18,2022-01-29_24h49.26.106,lexical_decision_task_DD_L5,2021.2.3,Win32,61.00536847,,,,,,,,,,,0.7503,1,,,,,,,,,,,,,,,,,,,,,,,,0.196820175,-0.210526316,0,0,0,,,,,,,GLOVE,LB,m,y,./images/GLOVELB.png,,,,,,,m,1,0.7503,,,,,,,,0,90,90,73,1
,,,,,,,,,,,,,,,,,200050,18,2022-01-29_24h49.26.106,lexical_decision_task_DD_L5,2021.2.3,Win32,61.00536847,,,,,,,,,,,0.8852,1,,,,,,,,,,,,,,,,,,,,,,,,0.196820175,-0.210526316,0,0,0,,,,,,,MUSCLE,LB,z,y,./images/MUSCLELB.png,,,,,,,z,1,0.8852,,,,,,,,0,91,91,88,1
,,,,,,,,,,,,,,,,,200050,18,2022-01-29_24h49.26.106,lexical_decision_task_DD_L5,2021.2.3,Win32,61.00536847,,,,,,,,,,,1.1513,1,,,,,,,,,,,,,,,,,,,,,,,,0.196820175,-0.210526316,0,0,0,,,,,,,CRATER,HB,m,y,./images/CRATERHB.png,,,,,,,m,1,1.1513,,,,,,,,0,92,92,3,1
,,,,,,,,,,,,,,,,,200050,18,2022-01-29_24h49.26.106,lexical_decision_task_DD_L5,2021.2.3,Win32,61.00536847,,,,,,,,,,,0.7514,1,,,,,,,,,,,,,,,,,,,,,,,,0.196820175,-0.210526316,0,0,0,,,,,,,CANDY,HB,m,y,./images/CANDYHB.png,,,,,,,m,1,0.7514,,,,,,,,0,93,93,39,1
,,,,,,,,,,,,,,,,,200050,18,2022-01-29_24h49.26.106,lexical_decision_task_DD_L5,2021.2.3,Win32,61.00536847,,,,,,,,,,,0.6183,1,,,,,,,,,,,,,,,,,,,,,,,,0.196820175,-0.210526316,0,0,0,,,,,,,RULER,LB,m,y,./images/RULERLB.png,,,,,,,m,1,0.6183,,,,,,,,0,94,94,79,1
,,,,,,,,,,,,,,,,,200050,18,2022-01-29_24h49.26.106,lexical_decision_task_DD_L5,2021.2.3,Win32,61.00536847,,,,,,,,,,,0.818,1,,,,,,,,,,,,,,,,,,,,,,,,0.196820175,-0.210526316,0,0,0,,,,,,,BROOM,HB,m,y,./images/BROOMHB.png,,,,,,,m,1,0.818,,,,,,,,0,95,95,78,1
,,,,,,,,,,,,,,,,,200050,18,2022-01-29_24h49.26.106,lexical_decision_task_DD_L5,2021.2.3,Win32,61.00536847,,,,,,,,,,,0.8566,1,,,,,,,,,,,,,,,,,,,,,,,,0.196820175,-0.210526316,0,0,0,,,,,,,PARADE,C,m,y,./images/PARADE.png,,,,,,,m,1,0.8566,,,,,,,,0,96,96,17,1
,,,,,,,,,,,,,,,,,200050,18,2022-01-29_24h49.26.106,lexical_decision_task_DD_L5,2021.2.3,Win32,61.00536847,,,,,,,,,,,0.7342,1,,,,,,,,,,,,,,,,,,,,,,,,0.196820175,-0.210526316,0,0,0,,,,,,,BRUSH,C,m,y,./images/BRUSH.png,,,,,,,m,1,0.7342,,,,,,,,0,97,97,59,1
,,,,,,,,,,,,,,,,,200050,18,2022-01-29_24h49.26.106,lexical_decision_task_DD_L5,2021.2.3,Win32,61.00536847,,,,,,,,,,,0.8346,0,,,,,,,,,,,,,,,,,,,,,,,,0.196820175,-0.210526316,0,0,0,,,,,,,CRADLE,C,z,y,./images/CRADLE.png,,,,,,,m,0,0.8346,,,,,,,,0,98,98,104,1
,,,,,,,,,,,,,,,,,200050,18,2022-01-29_24h49.26.106,lexical_decision_task_DD_L5,2021.2.3,Win32,61.00536847,,,,,,,,,,,0.9012,0,,,,,,,,,,,,,,,,,,,,,,,,0.196820175,-0.210526316,0,0,0,,,,,,,DONKEY,LB,m,y,./images/DONKEYLB.png,,,,,,,z,0,0.9012,,,,,,,,0,99,99,19,1
,,,,,,,,,,,,,,,,,200050,18,2022-01-29_24h49.26.106,lexical_decision_task_DD_L5,2021.2.3,Win32,61.00536847,,,,,,,,,,,0.7168,0,,,,,,,,,,,,,,,,,,,,,,,,0.196820175,-0.210526316,0,0,0,,,,,,,PEARL,LB,z,y,./images/PEARLLB.png,,,,,,,m,0,0.7168,,,,,,,,0,100,100,130,1
,,,,,,,,,,,,,,,,,200050,18,2022-01-29_24h49.26.106,lexical_decision_task_DD_L5,2021.2.3,Win32,61.00536847,,,,,,,,,,,0.7851,1,,,,,,,,,,,,,,,,,,,,,,,,0.196820175,-0.210526316,0,0,0,,,,,,,CLIFF,C,m,y,./images/CLIFF.png,,,,,,,m,1,0.7851,,,,,,,,0,101,101,8,1
,,,,,,,,,,,,,,,,,200050,18,2022-01-29_24h49.26.106,lexical_decision_task_DD_L5,2021.2.3,Win32,61.00536847,,,,,,,,,,,0.7339,1,,,,,,,,,,,,,,,,,,,,,,,,0.196820175,-0.210526316,0,0,0,,,,,,,CURRY,HB,m,y,./images/CURRYHB.png,,,,,,,m,1,0.7339,,,,,,,,0,102,102,60,1
,,,,,,,,,,,,,,,,,200050,18,2022-01-29_24h49.26.106,lexical_decision_task_DD_L5,2021.2.3,Win32,61.00536847,,,,,,,,,,,0.7175,1,,,,,,,,,,,,,,,,,,,,,,,,0.196820175,-0.210526316,0,0,0,,,,,,,BOILER,HB,m,y,./images/BOILERHB.png,,,,,,,m,1,0.7175,,,,,,,,0,103,103,36,1
,,,,,,,,,,,,,,,,,200050,18,2022-01-29_24h49.26.106,lexical_decision_task_DD_L5,2021.2.3,Win32,61.00536847,,,,,,,,,,,5.6395,1,,,,,,,,,,,,,,,,,,,,,,,,0.196820175,-0.210526316,0,0,0,,,,,,,PASTA,C,z,y,./images/PASTA.png,,,,,,,z,1,5.6395,,,,,,,,0,104,104,89,1
,,,,,,,,,,,,,,,,,200050,18,2022-01-29_24h49.26.106,lexical_decision_task_DD_L5,2021.2.3,Win32,61.00536847,,,,,,,,,,,1.1365,0,,,,,,,,,,,,,,,,,,,,,,,,0.196820175,-0.210526316,0,0,0,,,,,,,POSTER,C,m,y,./images/POSTER.png,,,,,,,z,0,1.1365,,,,,,,,0,105,105,53,1
,,,,,,,,,,,,,,,,,200050,18,2022-01-29_24h49.26.106,lexical_decision_task_DD_L5,2021.2.3,Win32,61.00536847,,,,,,,,,,,2.5516,0,,,,,,,,,,,,,,,,,,,,,,,,0.196820175,-0.210526316,0,0,0,,,,,,,CANDLE,LB,z,y,./images/CANDLELB.png,,,,,,,m,0,2.5516,,,,,,,,0,106,106,145,1
,,,,,,,,,,,,,,,,,200050,18,2022-01-29_24h49.26.106,lexical_decision_task_DD_L5,2021.2.3,Win32,61.00536847,,,,,,,,,,,0.9842,1,,,,,,,,,,,,,,,,,,,,,,,,0.196820175,-0.210526316,0,0,0,,,,,,,CARPET,C,z,y,./images/CARPET.png,,,,,,,z,1,0.9842,,,,,,,,0,107,107,137,1
,,,,,,,,,,,,,,,,,200050,18,2022-01-29_24h49.26.106,lexical_decision_task_DD_L5,2021.2.3,Win32,61.00536847,,,,,,,,,,,0.7051,1,,,,,,,,,,,,,,,,,,,,,,,,0.196820175,-0.210526316,0,0,0,,,,,,,DESERT,LB,m,y,./images/DESERTLB.png,,,,,,,m,1,0.7051,,,,,,,,0,108,108,52,1
,,,,,,,,,,,,,,,,,200050,18,2022-01-29_24h49.26.106,lexical_decision_task_DD_L5,2021.2.3,Win32,61.00536847,,,,,,,,,,,0.8339,1,,,,,,,,,,,,,,,,,,,,,,,,0.196820175,-0.210526316,0,0,0,,,,,,,SAILOR,LB,z,y,./images/SAILORLB.png,,,,,,,z,1,0.8339,,,,,,,,0,109,109,151,1
,,,,,,,,,,,,,,,,,200050,18,2022-01-29_24h49.26.106,lexical_decision_task_DD_L5,2021.2.3,Win32,61.00536847,,,,,,,,,,,0.6847,1,,,,,,,,,,,,,,,,,,,,,,,,0.196820175,-0.210526316,0,0,0,,,,,,,INFANT,LB,z,y,./images/INFANTLB.png,,,,,,,z,1,0.6847,,,,,,,,0,110,110,160,1
,,,,,,,,,,,,,,,,,200050,18,2022-01-29_24h49.26.106,lexical_decision_task_DD_L5,2021.2.3,Win32,61.00536847,,,,,,,,,,,0.7353,1,,,,,,,,,,,,,,,,,,,,,,,,0.196820175,-0.210526316,0,0,0,,,,,,,RAZOR,LB,m,y,./images/RAZORLB.png,,,,,,,m,1,0.7353,,,,,,,,0,111,111,34,1
,,,,,,,,,,,,,,,,,200050,18,2022-01-29_24h49.26.106,lexical_decision_task_DD_L5,2021.2.3,Win32,61.00536847,,,,,,,,,,,0.6179,1,,,,,,,,,,,,,,,,,,,,,,,,0.196820175,-0.210526316,0,0,0,,,,,,,BISHOP,LB,m,y,./images/BISHOPLB.png,,,,,,,m,1,0.6179,,,,,,,,0,112,112,49,1
,,,,,,,,,,,,,,,,,200050,18,2022-01-29_24h49.26.106,lexical_decision_task_DD_L5,2021.2.3,Win32,61.00536847,,,,,,,,,,,0.8012,1,,,,,,,,,,,,,,,,,,,,,,,,0.196820175,-0.210526316,0,0,0,,,,,,,BEARD,C,z,y,./images/BEARD.png,,,,,,,z,1,0.8012,,,,,,,,0,113,113,86,1
,,,,,,,,,,,,,,,,,200050,18,2022-01-29_24h49.26.106,lexical_decision_task_DD_L5,2021.2.3,Win32,61.00536847,,,,,,,,,,,0.6218,1,,,,,,,,,,,,,,,,,,,,,,,,0.196820175,-0.210526316,0,0,0,,,,,,,BASKET,C,m,y,./images/BASKET.png,,,,,,,m,1,0.6218,,,,,,,,0,114,114,44,1
,,,,,,,,,,,,,,,,,200050,18,2022-01-29_24h49.26.106,lexical_decision_task_DD_L5,2021.2.3,Win32,61.00536847,,,,,,,,,,,0.6185,1,,,,,,,,,,,,,,,,,,,,,,,,0.196820175,-0.210526316,0,0,0,,,,,,,HOCKEY,C,m,y,./images/HOCKEY.png,,,,,,,m,1,0.6185,,,,,,,,0,115,115,32,1
,,,,,,,,,,,,,,,,,200050,18,2022-01-29_24h49.26.106,lexical_decision_task_DD_L5,2021.2.3,Win32,61.00536847,,,,,,,,,,,0.6841,1,,,,,,,,,,,,,,,,,,,,,,,,0.196820175,-0.210526316,0,0,0,,,,,,,STAIN,HB,m,y,./images/STAINHB.png,,,,,,,m,1,0.6841,,,,,,,,0,116,116,6,1
,,,,,,,,,,,,,,,,,200050,18,2022-01-29_24h49.26.106,lexical_decision_task_DD_L5,2021.2.3,Win32,61.00536847,,,,,,,,,,,0.9718,1,,,,,,,,,,,,,,,,,,,,,,,,0.196820175,-0.210526316,0,0,0,,,,,,,SNAKE,LB,m,y,./images/SNAKELB.png,,,,,,,m,1,0.9718,,,,,,,,0,117,117,40,1
,,,,,,,,,,,,,,,,,200050,18,2022-01-29_24h49.26.106,lexical_decision_task_DD_L5,2021.2.3,Win32,61.00536847,,,,,,,,,,,0.6503,1,,,,,,,,,,,,,,,,,,,,,,,,0.196820175,-0.210526316,0,0,0,,,,,,,MIDGET,LB,m,y,./images/MIDGETLB.png,,,,,,,m,1,0.6503,,,,,,,,0,118,118,76,1
,,,,,,,,,,,,,,,,,200050,18,2022-01-29_24h49.26.106,lexical_decision_task_DD_L5,2021.2.3,Win32,61.00536847,,,,,,,,,,,1.1524,1,,,,,,,,,,,,,,,,,,,,,,,,0.196820175,-0.210526316,0,0,0,,,,,,,PLANK,LB,z,y,./images/PLANKLB.png,,,,,,,z,1,1.1524,,,,,,,,0,119,119,85,1
,,,,,,,,,,,,,,,,,200050,18,2022-01-29_24h49.26.106,lexical_decision_task_DD_L5,2021.2.3,Win32,61.00536847,,,,,,,,,,,0.6339,0,,,,,,,,,,,,,,,,,,,,,,,,0.196820175,-0.210526316,0,0,0,,,,,,,SPORT,HB,z,y,./images/SPORTHB.png,,,,,,,m,0,0.6339,,,,,,,,0,120,120,132,1
,,,,,,,,,,,,,,,,,200050,18,2022-01-29_24h49.26.106,lexical_decision_task_DD_L5,2021.2.3,Win32,61.00536847,,,,,,,,,,,2.5846,1,,,,,,,,,,,,,,,,,,,,,,,,0.196820175,-0.210526316,0,0,0,,,,,,,BIRTH,LB,z,y,./images/BIRTHLB.png,,,,,,,z,1,2.5846,,,,,,,,0,121,121,121,1
,,,,,,,,,,,,,,,,,200050,18,2022-01-29_24h49.26.106,lexical_decision_task_DD_L5,2021.2.3,Win32,61.00536847,,,,,,,,,,,0.7511,1,,,,,,,,,,,,,,,,,,,,,,,,0.196820175,-0.210526316,0,0,0,,,,,,,POODLE,HB,z,y,./images/POODLEHB.png,,,,,,,z,1,0.7511,,,,,,,,0,122,122,165,1
,,,,,,,,,,,,,,,,,200050,18,2022-01-29_24h49.26.106,lexical_decision_task_DD_L5,2021.2.3,Win32,61.00536847,,,,,,,,,,,0.8026,1,,,,,,,,,,,,,,,,,,,,,,,,0.196820175,-0.210526316,0,0,0,,,,,,,CLOTH,C,m,y,./images/CLOTH.png,,,,,,,m,1,0.8026,,,,,,,,0,123,123,23,1
,,,,,,,,,,,,,,,,,200050,18,2022-01-29_24h49.26.106,lexical_decision_task_DD_L5,2021.2.3,Win32,61.00536847,,,,,,,,,,,0.639,1,,,,,,,,,,,,,,,,,,,,,,,,0.196820175,-0.210526316,0,0,0,,,,,,,WALNUT,HB,m,y,./images/WALNUTHB.png,,,,,,,m,1,0.639,,,,,,,,0,124,124,0,1
,,,,,,,,,,,,,,,,,200050,18,2022-01-29_24h49.26.106,lexical_decision_task_DD_L5,2021.2.3,Win32,61.00536847,,,,,,,,,,,0.7905,0,,,,,,,,,,,,,,,,,,,,,,,,0.196820175,-0.210526316,0,0,0,space,,,,,,GRAPE,LB,m,y,./images/GRAPELB.png,0.6671,,,,,,z,0,0.7905,,,,,,,,0,125,125,16,1
,,,,,,,,,,,,,,,,,200050,18,2022-01-29_24h49.26.106,lexical_decision_task_DD_L5,2021.2.3,Win32,61.00536847,,,,,,,,,,,0.8718,0,,,,,,,,,,,,,,,,,,,,,,,,0.196820175,-0.210526316,0,0,0,,,,,,,CANYON,LB,z,y,./images/CANYONLB.png,,,,,,,m,0,0.8718,,,,,,,,0,126,126,118,1
,,,,,,,,,,,,,,,,,200050,18,2022-01-29_24h49.26.106,lexical_decision_task_DD_L5,2021.2.3,Win32,61.00536847,,,,,,,,,,,0.6504,1,,,,,,,,,,,,,,,,,,,,,,,,0.196820175,-0.210526316,0,0,0,,,,,,,STATUE,HB,m,y,./images/STATUEHB.png,,,,,,,m,1,0.6504,,,,,,,,0,127,127,66,1
,,,,,,,,,,,,,,,,,200050,18,2022-01-29_24h49.26.106,lexical_decision_task_DD_L5,2021.2.3,Win32,61.00536847,,,,,,,,,,,0.651,1,,,,,,,,,,,,,,,,,,,,,,,,0.196820175,-0.210526316,0,0,0,,,,,,,SLOPE,HB,m,y,./images/SLOPEHB.png,,,,,,,m,1,0.651,,,,,,,,0,128,128,30,1
,,,,,,,,,,,,,,,,,200050,18,2022-01-29_24h49.26.106,lexical_decision_task_DD_L5,2021.2.3,Win32,61.00536847,,,,,,,,,,,0.8004,1,,,,,,,,,,,,,,,,,,,,,,,,0.196820175,-0.210526316,0,0,0,,,,,,,GREASE,HB,z,y,./images/GREASEHB.png,,,,,,,z,1,0.8004,,,,,,,,0,129,129,99,1
,,,,,,,,,,,,,,,,,200050,18,2022-01-29_24h49.26.106,lexical_decision_task_DD_L5,2021.2.3,Win32,61.00536847,,,,,,,,,,,0.6174,1,,,,,,,,,,,,,,,,,,,,,,,,0.196820175,-0.210526316,0,0,0,,,,,,,BANANA,LB,m,y,./images/BANANALB.png,,,,,,,m,1,0.6174,,,,,,,,0,130,130,70,1
,,,,,,,,,,,,,,,,,200050,18,2022-01-29_24h49.26.106,lexical_decision_task_DD_L5,2021.2.3,Win32,61.00536847,,,,,,,,,,,0.8677,1,,,,,,,,,,,,,,,,,,,,,,,,0.196820175,-0.210526316,0,0,0,,,,,,,SKIING,C,z,y,./images/SKIING.png,,,,,,,z,1,0.8677,,,,,,,,0,131,131,101,1
,,,,,,,,,,,,,,,,,200050,18,2022-01-29_24h49.26.106,lexical_decision_task_DD_L5,2021.2.3,Win32,61.00536847,,,,,,,,,,,0.6502,1,,,,,,,,,,,,,,,,,,,,,,,,0.196820175,-0.210526316,0,0,0,,,,,,,MUMMY,LB,m,y,./images/MUMMYLB.png,,,,,,,m,1,0.6502,,,,,,,,0,132,132,46,1
,,,,,,,,,,,,,,,,,200050,18,2022-01-29_24h49.26.106,lexical_decision_task_DD_L5,2021.2.3,Win32,61.00536847,,,,,,,,,,,0.9511,1,,,,,,,,,,,,,,,,,,,,,,,,0.196820175,-0.210526316,0,0,0,,,,,,,PURSE,C,z,y,./images/PURSE.png,,,,,,,z,1,0.9511,,,,,,,,0,133,133,146,1
,,,,,,,,,,,,,,,,,200050,18,2022-01-29_24h49.26.106,lexical_decision_task_DD_L5,2021.2.3,Win32,61.00536847,,,,,,,,,,,2.9116,1,,,,,,,,,,,,,,,,,,,,,,,,0.196820175,-0.210526316,0,0,0,,,,,,,MOSQUE,LB,z,y,./images/MOSQUELB.png,,,,,,,z,1,2.9116,,,,,,,,0,134,134,127,1
,,,,,,,,,,,,,,,,,200050,18,2022-01-29_24h49.26.106,lexical_decision_task_DD_L5,2021.2.3,Win32,61.00536847,,,,,,,,,,,1.8182,1,,,,,,,,,,,,,,,,,,,,,,,,0.196820175,-0.210526316,0,0,0,,,,,,,CEMENT,C,z,y,./images/CEMENT.png,,,,,,,z,1,1.8182,,,,,,,,0,135,135,158,1
,,,,,,,,,,,,,,,,,200050,18,2022-01-29_24h49.26.106,lexical_decision_task_DD_L5,2021.2.3,Win32,61.00536847,,,,,,,,,,,1.5339,1,,,,,,,,,,,,,,,,,,,,,,,,0.196820175,-0.210526316,0,0,0,,,,,,,TOWEL,LB,m,y,./images/TOWELLB.png,,,,,,,m,1,1.5339,,,,,,,,0,136,136,1,1
,,,,,,,,,,,,,,,,,200050,18,2022-01-29_24h49.26.106,lexical_decision_task_DD_L5,2021.2.3,Win32,61.00536847,,,,,,,,,,,0.5878,1,,,,,,,,,,,,,,,,,,,,,,,,0.196820175,-0.210526316,0,0,0,,,,,,,CLOUD,C,m,y,./images/CLOUD.png,,,,,,,m,1,0.5878,,,,,,,,0,137,137,26,1
,,,,,,,,,,,,,,,,,200050,18,2022-01-29_24h49.26.106,lexical_decision_task_DD_L5,2021.2.3,Win32,61.00536847,,,,,,,,,,,0.7838,1,,,,,,,,,,,,,,,,,,,,,,,,0.196820175,-0.210526316,0,0,0,,,,,,,MELON,LB,z,y,./images/MELONLB.png,,,,,,,z,1,0.7838,,,,,,,,0,138,138,106,1
,,,,,,,,,,,,,,,,,200050,18,2022-01-29_24h49.26.106,lexical_decision_task_DD_L5,2021.2.3,Win32,61.00536847,,,,,,,,,,,0.6682,1,,,,,,,,,,,,,,,,,,,,,,,,0.196820175,-0.210526316,0,0,0,,,,,,,CRUMB,C,z,y,./images/CRUMB.png,,,,,,,z,1,0.6682,,,,,,,,0,139,139,113,1
,,,,,,,,,,,,,,,,,200050,18,2022-01-29_24h49.26.106,lexical_decision_task_DD_L5,2021.2.3,Win32,61.00536847,,,,,,,,,,,1.1022,1,,,,,,,,,,,,,,,,,,,,,,,,0.196820175,-0.210526316,0,0,0,,,,,,,HAMMER,HB,m,y,./images/HAMMERHB.png,,,,,,,m,1,1.1022,,,,,,,,0,140,140,75,1
,,,,,,,,,,,,,,,,,200050,18,2022-01-29_24h49.26.106,lexical_decision_task_DD_L5,2021.2.3,Win32,61.00536847,,,,,,,,,,,0.6013,1,,,,,,,,,,,,,,,,,,,,,,,,0.196820175,-0.210526316,0,0,0,,,,,,,ALLEY,LB,m,y,./images/ALLEYLB.png,,,,,,,m,1,0.6013,,,,,,,,0,141,141,55,1
,,,,,,,,,,,,,,,,,200050,18,2022-01-29_24h49.26.106,lexical_decision_task_DD_L5,2021.2.3,Win32,61.00536847,,,,,,,,,,,0.7344,0,,,,,,,,,,,,,,,,,,,,,,,,0.196820175,-0.210526316,0,0,0,,,,,,,ARROW,HB,m,y,./images/ARROWHB.png,,,,,,,z,0,0.7344,,,,,,,,0,142,142,69,1
,,,,,,,,,,,,,,,,,200050,18,2022-01-29_24h49.26.106,lexical_decision_task_DD_L5,2021.2.3,Win32,61.00536847,,,,,,,,,,,0.8009,1,,,,,,,,,,,,,,,,,,,,,,,,0.196820175,-0.210526316,0,0,0,,,,,,,JUNGLE,C,z,y,./images/JUNGLE.png,,,,,,,z,1,0.8009,,,,,,,,0,143,143,167,1
,,,,,,,,,,,,,,,,,200050,18,2022-01-29_24h49.26.106,lexical_decision_task_DD_L5,2021.2.3,Win32,61.00536847,,,,,,,,,,,0.8049,1,,,,,,,,,,,,,,,,,,,,,,,,0.196820175,-0.210526316,0,0,0,,,,,,,SCREW,HB,z,y,./images/SCREWHB.png,,,,,,,z,1,0.8049,,,,,,,,0,144,144,108,1
,,,,,,,,,,,,,,,,,200050,18,2022-01-29_24h49.26.106,lexical_decision_task_DD_L5,2021.2.3,Win32,61.00536847,,,,,,,,,,,0.9005,1,,,,,,,,,,,,,,,,,,,,,,,,0.196820175,-0.210526316,0,0,0,,,,,,,BANNER,LB,z,y,./images/BANNERLB.png,,,,,,,z,1,0.9005,,,,,,,,0,145,145,136,1
,,,,,,,,,,,,,,,,,200050,18,2022-01-29_24h49.26.106,lexical_decision_task_DD_L5,2021.2.3,Win32,61.00536847,,,,,,,,,,,0.6852,1,,,,,,,,,,,,,,,,,,,,,,,,0.196820175,-0.210526316,0,0,0,,,,,,,STOVE,C,m,y,./images/STOVE.png,,,,,,,m,1,0.6852,,,,,,,,0,146,146,2,1
,,,,,,,,,,,,,,,,,200050,18,2022-01-29_24h49.26.106,lexical_decision_task_DD_L5,2021.2.3,Win32,61.00536847,,,,,,,,,,,0.8847,0,,,,,,,,,,,,,,,,,,,,,,,,0.196820175,-0.210526316,0,0,0,,,,,,,CRUST,LB,z,y,./images/CRUSTLB.png,,,,,,,m,0,0.8847,,,,,,,,0,147,147,163,1
,,,,,,,,,,,,,,,,,200050,18,2022-01-29_24h49.26.106,lexical_decision_task_DD_L5,2021.2.3,Win32,61.00536847,,,,,,,,,,,0.7688,0,,,,,,,,,,,,,,,,,,,,,,,,0.196820175,-0.210526316,0,0,0,,,,,,,MOTOR,LB,z,y,./images/MOTORLB.png,,,,,,,m,0,0.7688,,,,,,,,0,148,148,97,1
,,,,,,,,,,,,,,,,,200050,18,2022-01-29_24h49.26.106,lexical_decision_task_DD_L5,2021.2.3,Win32,61.00536847,,,,,,,,,,,0.8009,1,,,,,,,,,,,,,,,,,,,,,,,,0.196820175,-0.210526316,0,0,0,,,,,,,MALLET,C,z,y,./images/MALLET.png,,,,,,,z,1,0.8009,,,,,,,,0,149,149,134,1
,,,,,,,,,,,,,,,,,200050,18,2022-01-29_24h49.26.106,lexical_decision_task_DD_L5,2021.2.3,Win32,61.00536847,,,,,,,,,,,0.8007,1,,,,,,,,,,,,,,,,,,,,,,,,0.196820175,-0.210526316,0,0,0,,,,,,,ONION,HB,z,y,./images/ONIONHB.png,,,,,,,z,1,0.8007,,,,,,,,0,150,150,135,1
,,,,,,,,,,,,,,,,,200050,18,2022-01-29_24h49.26.106,lexical_decision_task_DD_L5,2021.2.3,Win32,61.00536847,,,,,,,,,,,0.8382,1,,,,,,,,,,,,,,,,,,,,,,,,0.196820175,-0.210526316,0,0,0,,,,,,,FOLDER,HB,z,y,./images/FOLDERHB.png,,,,,,,z,1,0.8382,,,,,,,,0,151,151,126,1
,,,,,,,,,,,,,,,,,200050,18,2022-01-29_24h49.26.106,lexical_decision_task_DD_L5,2021.2.3,Win32,61.00536847,,,,,,,,,,,0.8179,1,,,,,,,,,,,,,,,,,,,,,,,,0.196820175,-0.210526316,0,0,0,,,,,,,GARDEN,LB,m,y,./images/GARDENLB.png,,,,,,,m,1,0.8179,,,,,,,,0,152,152,10,1
,,,,,,,,,,,,,,,,,200050,18,2022-01-29_24h49.26.106,lexical_decision_task_DD_L5,2021.2.3,Win32,61.00536847,,,,,,,,,,,0.7184,1,,,,,,,,,,,,,,,,,,,,,,,,0.196820175,-0.210526316,0,0,0,,,,,,,PISTOL,C,m,y,./images/PISTOL.png,,,,,,,m,1,0.7184,,,,,,,,0,153,153,29,1
,,,,,,,,,,,,,,,,,200050,18,2022-01-29_24h49.26.106,lexical_decision_task_DD_L5,2021.2.3,Win32,61.00536847,,,,,,,,,,,0.9193,1,,,,,,,,,,,,,,,,,,,,,,,,0.196820175,-0.210526316,0,0,0,,,,,,,TWINS,HB,z,y,./images/TWINSHB.png,,,,,,,z,1,0.9193,,,,,,,,0,154,154,144,1
,,,,,,,,,,,,,,,,,200050,18,2022-01-29_24h49.26.106,lexical_decision_task_DD_L5,2021.2.3,Win32,61.00536847,,,,,,,,,,,0.8342,1,,,,,,,,,,,,,,,,,,,,,,,,0.196820175,-0.210526316,0,0,0,,,,,,,KITTEN,HB,z,y,./images/KITTENHB.png,,,,,,,z,1,0.8342,,,,,,,,0,155,155,129,1
,,,,,,,,,,,,,,,,,200050,18,2022-01-29_24h49.26.106,lexical_decision_task_DD_L5,2021.2.3,Win32,61.00536847,,,,,,,,,,,1.0179,0,,,,,,,,,,,,,,,,,,,,,,,,0.196820175,-0.210526316,0,0,0,,,,,,,GRANNY,C,m,y,./images/GRANNY.png,,,,,,,z,0,1.0179,,,,,,,,0,156,156,20,1
,,,,,,,,,,,,,,,,,200050,18,2022-01-29_24h49.26.106,lexical_decision_task_DD_L5,2021.2.3,Win32,61.00536847,,,,,,,,,,,1.036,1,,,,,,,,,,,,,,,,,,,,,,,,0.196820175,-0.210526316,0,0,0,,,,,,,COLLAR,HB,m,y,./images/COLLARHB.png,,,,,,,m,1,1.036,,,,,,,,0,157,157,15,1
,,,,,,,,,,,,,,,,,200050,18,2022-01-29_24h49.26.106,lexical_decision_task_DD_L5,2021.2.3,Win32,61.00536847,,,,,,,,,,,0.639,1,,,,,,,,,,,,,,,,,,,,,,,,0.196820175,-0.210526316,0,0,0,,,,,,,LLAMA,C,m,y,./images/LLAMA.png,,,,,,,m,1,0.639,,,,,,,,0,158,158,35,1
,,,,,,,,,,,,,,,,,200050,18,2022-01-29_24h49.26.106,lexical_decision_task_DD_L5,2021.2.3,Win32,61.00536847,,,,,,,,,,,0.6677,0,,,,,,,,,,,,,,,,,,,,,,,,0.196820175,-0.210526316,0,0,0,,,,,,,PENCE,LB,z,y,./images/PENCELB.png,,,,,,,m,0,0.6677,,,,,,,,0,159,159,100,1
,,,,,,,,,,,,,,,,,200050,18,2022-01-29_24h49.26.106,lexical_decision_task_DD_L5,2021.2.3,Win32,61.00536847,,,,,,,,,,,1.0686,1,,,,,,,,,,,,,,,,,,,,,,,,0.196820175,-0.210526316,0,0,0,,,,,,,LITTER,HB,z,y,./images/LITTERHB.png,,,,,,,z,1,1.0686,,,,,,,,0,160,160,162,1
,,,,,,,,,,,,,,,,,200050,18,2022-01-29_24h49.26.106,lexical_decision_task_DD_L5,2021.2.3,Win32,61.00536847,,,,,,,,,,,0.8844,1,,,,,,,,,,,,,,,,,,,,,,,,0.196820175,-0.210526316,0,0,0,,,,,,,MAGGOT,HB,z,y,./images/MAGGOTHB.png,,,,,,,z,1,0.8844,,,,,,,,0,161,161,117,1
,,,,,,,,,,,,,,,,,200050,18,2022-01-29_24h49.26.106,lexical_decision_task_DD_L5,2021.2.3,Win32,61.00536847,,,,,,,,,,,0.8891,0,,,,,,,,,,,,,,,,,,,,,,,,0.196820175,-0.210526316,0,0,0,,,,,,,DANCER,HB,m,y,./images/DANCERHB.png,,,,,,,z,0,0.8891,,,,,,,,0,162,162,21,1
,,,,,,,,,,,,,,,,,200050,18,2022-01-29_24h49.26.106,lexical_decision_task_DD_L5,2021.2.3,Win32,61.00536847,,,,,,,,,,,0.8509,0,,,,,,,,,,,,,,,,,,,,,,,,0.196820175,-0.210526316,0,0,0,,,,,,,PLANET,C,m,y,./images/PLANET.png,,,,,,,z,0,0.8509,,,,,,,,0,163,163,80,1
,,,,,,,,,,,,,,,,,200050,18,2022-01-29_24h49.26.106,lexical_decision_task_DD_L5,2021.2.3,Win32,61.00536847,,,,,,,,,,,0.8186,1,,,,,,,,,,,,,,,,,,,,,,,,0.196820175,-0.210526316,0,0,0,,,,,,,CANOE,LB,m,y,./images/CANOELB.png,,,,,,,m,1,0.8186,,,,,,,,0,164,164,58,1
,,,,,,,,,,,,,,,,,200050,18,2022-01-29_24h49.26.106,lexical_decision_task_DD_L5,2021.2.3,Win32,61.00536847,,,,,,,,,,,1.0747,0,,,,,,,,,,,,,,,,,,,,,,,,0.196820175,-0.210526316,0,0,0,,,,,,,KIDNEY,HB,z,y,./images/KIDNEYHB.png,,,,,,,m,0,1.0747,,,,,,,,0,165,165,105,1
,,,,,,,,,,,,,,,,,200050,18,2022-01-29_24h49.26.106,lexical_decision_task_DD_L5,2021.2.3,Win32,61.00536847,,,,,,,,,,,4.737,1,,,,,,,,,,,,,,,,,,,,,,,,0.196820175,-0.210526316,0,0,0,,,,,,,POKER,LB,m,y,./images/POKERLB.png,,,,,,,m,1,4.737,,,,,,,,0,166,166,67,1
,,,,,,,,,,,,,,,,,200050,18,2022-01-29_24h49.26.106,lexical_decision_task_DD_L5,2021.2.3,Win32,61.00536847,,,,,,,,,,,2.4184,1,,,,,,,,,,,,,,,,,,,,,,,,0.196820175,-0.210526316,0,0,0,,,,,,,NOOSE,HB,z,y,./images/NOOSEHB.png,,,,,,,z,1,2.4184,,,,,,,,0,167,167,156,1
