key_resp.keys,key_resp.rt,instr_done_touch.x,instr_done_touch.y,instr_done_touch.leftButton,instr_done_touch.midButton,instr_done_touch.rightButton,instruction_pages.thisRepN,instruction_pages.thisTrialN,instruction_pages.thisN,instruction_pages.thisIndex,instruction_pages.ran,pageN,phase,instruct_text,has_image,instruct_image,participant,age,date,expName,psychopyVersion,OS,frameRate,response.keys,response.corr,response.rt,touch_resp.x,touch_resp.y,touch_resp.leftButton,touch_resp.midButton,touch_resp.rightButton,touch_resp.time,touch_resp.clicked_name,rt,corr,practrials.thisRepN,practrials.thisTrialN,practrials.thisN,practrials.thisIndex,practrials.ran,TrialID,Target,corrAns,end_of_practice_trials_pages.thisRepN,end_of_practice_trials_pages.thisTrialN,end_of_practice_trials_pages.thisN,end_of_practice_trials_pages.thisIndex,end_of_practice_trials_pages.ran,key_resp_2.keys,key_resp_2.corr,key_resp_2.rt,targ_click.x,targ_click.y,targ_click.leftButton,targ_click.midButton,targ_click.rightButton,targ_click.time,targ_click.clicked_name,break_done_touch.x,break_done_touch.y,break_done_touch.leftButton,break_done_touch.midButton,break_done_touch.rightButton,break_done_keyboard.keys,maintrials.thisRepN,maintrials.thisTrialN,maintrials.thisN,maintrials.thisIndex,maintrials.ran,string,blur,study,lex,stim_path,break_done_keyboard.rt,test_instructions.thisRepN,test_instructions.thisTrialN,test_instructions.thisN,test_instructions.thisIndex,test_instructions.ran,key_resp_3.keys,key_resp_3.corr,key_resp_3.rt,test_click.x,test_click.y,test_click.leftButton,test_click.midButton,test_click.rightButton,test_click.time,test_click.clicked_name,test_phase.thisRepN,test_phase.thisTrialN,test_phase.thisN,test_phase.thisIndex,test_phase.ran
space,32.3026,0.470260417,-0.243841146,0,0,0,0,0,0,0,1,1,instructions,"INSTRUCTIONS
At the start of each trial, look at the plus sign  (+) in the center of the screen.  This tells you that a trial is about to begin and where to look. Second, the plus sign will disappear and a string of letters will appear. Your task is to determine if the string of letters is a word or not. If the item is a word press the M key (on keyboard)  or touch the word button (phone/tablet).  If the item is not a word,  press the  Z key (on keyboard)  or touch the nonword button (on phone/tablet). 
Press the space bar or touch  continue.",0,,200086,19,2022-01-28_23h08.54.027,lexical_decision_task_DD_L6,2021.2.3,MacIntel,60.0024001,,,,,,,,,,,,,,,,,,,,,,,,,,,,,,,,,,,,,,,,,,,,,,,,,,,,,,,,,,,,,,,,,,,,,,,,
space,5.8376,0.470260417,-0.243841146,0,0,0,0,1,1,1,1,2,instructions,"If your device has a keyboard, press the 'Z' key for nonwords and the 'M' key for words.





Press the space bar or touch the button below to continue.",0,keyboard-example.gif,200086,19,2022-01-28_23h08.54.027,lexical_decision_task_DD_L6,2021.2.3,MacIntel,60.0024001,,,,,,,,,,,,,,,,,,,,,,,,,,,,,,,,,,,,,,,,,,,,,,,,,,,,,,,,,,,,,,,,,,,,,,,,
space,3.1406,0.470260417,-0.243841146,0,0,0,0,2,2,2,1,3,instructions,"If you are using a touchscreen only device, use the buttons on the screen. Do not use the mouse.





Press the space bar or touch the button below to continue.",0,touchscreen-example.gif,200086,19,2022-01-28_23h08.54.027,lexical_decision_task_DD_L6,2021.2.3,MacIntel,60.0024001,,,,,,,,,,,,,,,,,,,,,,,,,,,,,,,,,,,,,,,,,,,,,,,,,,,,,,,,,,,,,,,,,,,,,,,,
space,13.0961,0.799978299,-0.489236111,0,0,0,0,3,3,3,1,4,instructions,"It is very important that you respond as quickly and accurately as possible, as each letter string will only be on the screen for two seconds. If you do not respond within this time, the message 'Too slow!' will be displayed and the experiment will progress to the next letter string. The first 20 trials will be practice trials and you will receive feedback on your answers. 

Press the space bar or touch the button below to start the practice trials.",0,,200086,19,2022-01-28_23h08.54.027,lexical_decision_task_DD_L6,2021.2.3,MacIntel,60.0024001,,,,,,,,,,,,,,,,,,,,,,,,,,,,,,,,,,,,,,,,,,,,,,,,,,,,,,,,,,,,,,,,,,,,,,,,
,,,,,,,,,,,,,,,,,200086,19,2022-01-28_23h08.54.027,lexical_decision_task_DD_L6,2021.2.3,MacIntel,60.0024001,m,1,0.9725,,,,,,,,0.9725,1,0,0,0,6,1,1001,ZOMBIE,m,,,,,,,,,,,,,,,,,,,,,,,,,,,,,,,,,,,,,,,,,,,,,,,,,,,,
,,,,,,,,,,,,,,,,,200086,19,2022-01-28_23h08.54.027,lexical_decision_task_DD_L6,2021.2.3,MacIntel,60.0024001,m,1,0.5875,,,,,,,,0.5875,1,0,1,1,3,1,1001,MATRIX,m,,,,,,,,,,,,,,,,,,,,,,,,,,,,,,,,,,,,,,,,,,,,,,,,,,,,
,,,,,,,,,,,,,,,,,200086,19,2022-01-28_23h08.54.027,lexical_decision_task_DD_L6,2021.2.3,MacIntel,60.0024001,m,1,0.5888,,,,,,,,0.5888,1,0,2,2,7,1,1001,VOLUME,m,,,,,,,,,,,,,,,,,,,,,,,,,,,,,,,,,,,,,,,,,,,,,,,,,,,,
,,,,,,,,,,,,,,,,,200086,19,2022-01-28_23h08.54.027,lexical_decision_task_DD_L6,2021.2.3,MacIntel,60.0024001,m,1,0.5695,,,,,,,,0.5695,1,0,3,3,5,1,1001,OBTAIN,m,,,,,,,,,,,,,,,,,,,,,,,,,,,,,,,,,,,,,,,,,,,,,,,,,,,,
,,,,,,,,,,,,,,,,,200086,19,2022-01-28_23h08.54.027,lexical_decision_task_DD_L6,2021.2.3,MacIntel,60.0024001,z,1,0.8113,,,,,,,,0.8113,1,0,4,4,8,1,1001,ASLERT,z,,,,,,,,,,,,,,,,,,,,,,,,,,,,,,,,,,,,,,,,,,,,,,,,,,,,
,,,,,,,,,,,,,,,,,200086,19,2022-01-28_23h08.54.027,lexical_decision_task_DD_L6,2021.2.3,MacIntel,60.0024001,m,1,0.545,,,,,,,,0.545,1,0,5,5,2,1,1001,ALMOND,m,,,,,,,,,,,,,,,,,,,,,,,,,,,,,,,,,,,,,,,,,,,,,,,,,,,,
,,,,,,,,,,,,,,,,,200086,19,2022-01-28_23h08.54.027,lexical_decision_task_DD_L6,2021.2.3,MacIntel,60.0024001,z,1,0.7537,,,,,,,,0.7537,1,0,6,6,13,1,1001,ROUPET,z,,,,,,,,,,,,,,,,,,,,,,,,,,,,,,,,,,,,,,,,,,,,,,,,,,,,
,,,,,,,,,,,,,,,,,200086,19,2022-01-28_23h08.54.027,lexical_decision_task_DD_L6,2021.2.3,MacIntel,60.0024001,m,1,0.5833,,,,,,,,0.5833,1,0,7,7,4,1,1001,SQUEAK,m,,,,,,,,,,,,,,,,,,,,,,,,,,,,,,,,,,,,,,,,,,,,,,,,,,,,
,,,,,,,,,,,,,,,,,200086,19,2022-01-28_23h08.54.027,lexical_decision_task_DD_L6,2021.2.3,MacIntel,60.0024001,m,0,0.5202,,,,,,,,0.5202,0,0,8,8,9,1,1001,FARINY,z,,,,,,,,,,,,,,,,,,,,,,,,,,,,,,,,,,,,,,,,,,,,,,,,,,,,
,,,,,,,,,,,,,,,,,200086,19,2022-01-28_23h08.54.027,lexical_decision_task_DD_L6,2021.2.3,MacIntel,60.0024001,m,1,0.6316,,,,,,,,0.6316,1,0,9,9,0,1,1001,UTOPIA,m,,,,,,,,,,,,,,,,,,,,,,,,,,,,,,,,,,,,,,,,,,,,,,,,,,,,
,,,,,,,,,,,,,,,,,200086,19,2022-01-28_23h08.54.027,lexical_decision_task_DD_L6,2021.2.3,MacIntel,60.0024001,z,1,0.614,,,,,,,,0.614,1,0,10,10,14,1,1001,THRALE,z,,,,,,,,,,,,,,,,,,,,,,,,,,,,,,,,,,,,,,,,,,,,,,,,,,,,
,,,,,,,,,,,,,,,,,200086,19,2022-01-28_23h08.54.027,lexical_decision_task_DD_L6,2021.2.3,MacIntel,60.0024001,m,1,0.5785,,,,,,,,0.5785,1,0,11,11,1,1,1001,ADJUST,m,,,,,,,,,,,,,,,,,,,,,,,,,,,,,,,,,,,,,,,,,,,,,,,,,,,,
,,,,,,,,,,,,,,,,,200086,19,2022-01-28_23h08.54.027,lexical_decision_task_DD_L6,2021.2.3,MacIntel,60.0024001,z,1,0.5611,,,,,,,,0.5611,1,0,12,12,15,1,1001,WHAISE,z,,,,,,,,,,,,,,,,,,,,,,,,,,,,,,,,,,,,,,,,,,,,,,,,,,,,
,,,,,,,,,,,,,,,,,200086,19,2022-01-28_23h08.54.027,lexical_decision_task_DD_L6,2021.2.3,MacIntel,60.0024001,z,1,0.7816,,,,,,,,0.7816,1,0,13,13,10,1,1001,INLADE,z,,,,,,,,,,,,,,,,,,,,,,,,,,,,,,,,,,,,,,,,,,,,,,,,,,,,
,,,,,,,,,,,,,,,,,200086,19,2022-01-28_23h08.54.027,lexical_decision_task_DD_L6,2021.2.3,MacIntel,60.0024001,z,1,0.8508,,,,,,,,0.8508,1,0,14,14,12,1,1001,SPRINY,z,,,,,,,,,,,,,,,,,,,,,,,,,,,,,,,,,,,,,,,,,,,,,,,,,,,,
,,,,,,,,,,,,,,,,,200086,19,2022-01-28_23h08.54.027,lexical_decision_task_DD_L6,2021.2.3,MacIntel,60.0024001,z,1,0.6668,,,,,,,,0.6668,1,0,15,15,11,1,1001,RASHET,z,,,,,,,,,,,,,,,,,,,,,,,,,,,,,,,,,,,,,,,,,,,,,,,,,,,,
space,8.1391,0.799978299,-0.489236111,0,0,0,,,,,,1,end_of_practice,"You have completed the practice trials. During the experimental trials, you will not receive feedback. 
Before you begin, please ensure that you are in a comfortable and quiet location and will not be disturbed for about 15 minutes, as we cannot use your data if you do not complete all the trials. 
 When you are ready to start the experimental trials, please press space or touch the button below.",,,200086,19,2022-01-28_23h08.54.027,lexical_decision_task_DD_L6,2021.2.3,MacIntel,60.0024001,,,,,,,,,,,,,,,,,,,,,0,0,0,0,1,,,,,,,,,,,,,,,,,,,,,,,,,,,,,,,,,,,,,,,,,,,,,,,
,,,,,,,,,,,,,,,,,200086,19,2022-01-28_23h08.54.027,lexical_decision_task_DD_L6,2021.2.3,MacIntel,60.0024001,,,,,,,,,,,1.8546,1,,,,,,,,,,,,,,z,1,1.8546,,,,,,,,0.799978299,-0.489236111,0,0,0,,0,0,0,139,1,BLEAR,HB,old,z,./images/BLEARHB.png,,,,,,,,,,,,,,,,,,,,,
,,,,,,,,,,,,,,,,,200086,19,2022-01-28_23h08.54.027,lexical_decision_task_DD_L6,2021.2.3,MacIntel,60.0024001,,,,,,,,,,,0.8527,1,,,,,,,,,,,,,,z,1,0.8527,,,,,,,,0.799978299,-0.489236111,0,0,0,,0,1,1,147,1,ZOLES,C,old,z,./images/ZOLES.png,,,,,,,,,,,,,,,,,,,,,
,,,,,,,,,,,,,,,,,200086,19,2022-01-28_23h08.54.027,lexical_decision_task_DD_L6,2021.2.3,MacIntel,60.0024001,,,,,,,,,,,0.8037,1,,,,,,,,,,,,,,z,1,0.8037,,,,,,,,0.799978299,-0.489236111,0,0,0,,0,2,2,162,1,LEICH,C,old,z,./images/LEICH.png,,,,,,,,,,,,,,,,,,,,,
,,,,,,,,,,,,,,,,,200086,19,2022-01-28_23h08.54.027,lexical_decision_task_DD_L6,2021.2.3,MacIntel,60.0024001,,,,,,,,,,,1.1634,1,,,,,,,,,,,,,,z,1,1.1634,,,,,,,,0.799978299,-0.489236111,0,0,0,,0,3,3,134,1,TROSS,LB,old,z,./images/TROSSLB.png,,,,,,,,,,,,,,,,,,,,,
,,,,,,,,,,,,,,,,,200086,19,2022-01-28_23h08.54.027,lexical_decision_task_DD_L6,2021.2.3,MacIntel,60.0024001,,,,,,,,,,,0.9543,1,,,,,,,,,,,,,,z,1,0.9543,,,,,,,,0.799978299,-0.489236111,0,0,0,,0,4,4,153,1,CLUPS,C,old,z,./images/CLUPS.png,,,,,,,,,,,,,,,,,,,,,
,,,,,,,,,,,,,,,,,200086,19,2022-01-28_23h08.54.027,lexical_decision_task_DD_L6,2021.2.3,MacIntel,60.0024001,,,,,,,,,,,1.0312,1,,,,,,,,,,,,,,z,1,1.0312,,,,,,,,0.799978299,-0.489236111,0,0,0,,0,5,5,95,1,HANTY,LB,old,z,./images/HANTYLB.png,,,,,,,,,,,,,,,,,,,,,
,,,,,,,,,,,,,,,,,200086,19,2022-01-28_23h08.54.027,lexical_decision_task_DD_L6,2021.2.3,MacIntel,60.0024001,,,,,,,,,,,0.6686,1,,,,,,,,,,,,,,m,1,0.6686,,,,,,,,0.799978299,-0.489236111,0,0,0,,0,6,6,34,1,RAZOR,C,old,m,./images/RAZOR.png,,,,,,,,,,,,,,,,,,,,,
,,,,,,,,,,,,,,,,,200086,19,2022-01-28_23h08.54.027,lexical_decision_task_DD_L6,2021.2.3,MacIntel,60.0024001,,,,,,,,,,,0.7695,1,,,,,,,,,,,,,,m,1,0.7695,,,,,,,,0.799978299,-0.489236111,0,0,0,,0,7,7,60,1,CURRY,LB,old,m,./images/CURRYLB.png,,,,,,,,,,,,,,,,,,,,,
,,,,,,,,,,,,,,,,,200086,19,2022-01-28_23h08.54.027,lexical_decision_task_DD_L6,2021.2.3,MacIntel,60.0024001,,,,,,,,,,,1.2826,0,,,,,,,,,,,,,,m,0,1.2826,,,,,,,,0.799978299,-0.489236111,0,0,0,,0,8,8,152,1,FRAIN,LB,old,z,./images/FRAINLB.png,,,,,,,,,,,,,,,,,,,,,
,,,,,,,,,,,,,,,,,200086,19,2022-01-28_23h08.54.027,lexical_decision_task_DD_L6,2021.2.3,MacIntel,60.0024001,,,,,,,,,,,1.1637,1,,,,,,,,,,,,,,m,1,1.1637,,,,,,,,0.799978299,-0.489236111,0,0,0,,0,9,9,65,1,SPINE,HB,old,m,./images/SPINEHB.png,,,,,,,,,,,,,,,,,,,,,
,,,,,,,,,,,,,,,,,200086,19,2022-01-28_23h08.54.027,lexical_decision_task_DD_L6,2021.2.3,MacIntel,60.0024001,,,,,,,,,,,0.7977,1,,,,,,,,,,,,,,z,1,0.7977,,,,,,,,0.799978299,-0.489236111,0,0,0,,0,10,10,167,1,ZONET,LB,old,z,./images/ZONETLB.png,,,,,,,,,,,,,,,,,,,,,
,,,,,,,,,,,,,,,,,200086,19,2022-01-28_23h08.54.027,lexical_decision_task_DD_L6,2021.2.3,MacIntel,60.0024001,,,,,,,,,,,1.212,1,,,,,,,,,,,,,,z,1,1.212,,,,,,,,0.799978299,-0.489236111,0,0,0,,0,11,11,124,1,TUNCH,HB,old,z,./images/TUNCHHB.png,,,,,,,,,,,,,,,,,,,,,
,,,,,,,,,,,,,,,,,200086,19,2022-01-28_23h08.54.027,lexical_decision_task_DD_L6,2021.2.3,MacIntel,60.0024001,,,,,,,,,,,0.7995,1,,,,,,,,,,,,,,z,1,0.7995,,,,,,,,0.799978299,-0.489236111,0,0,0,,0,12,12,114,1,RIKES,C,old,z,./images/RIKES.png,,,,,,,,,,,,,,,,,,,,,
,,,,,,,,,,,,,,,,,200086,19,2022-01-28_23h08.54.027,lexical_decision_task_DD_L6,2021.2.3,MacIntel,60.0024001,,,,,,,,,,,0.6598,1,,,,,,,,,,,,,,m,1,0.6598,,,,,,,,0.799978299,-0.489236111,0,0,0,,0,13,13,0,1,WALNUT,LB,old,m,./images/WALNUTLB.png,,,,,,,,,,,,,,,,,,,,,
,,,,,,,,,,,,,,,,,200086,19,2022-01-28_23h08.54.027,lexical_decision_task_DD_L6,2021.2.3,MacIntel,60.0024001,,,,,,,,,,,1.0711,1,,,,,,,,,,,,,,m,1,1.0711,,,,,,,,0.799978299,-0.489236111,0,0,0,,0,14,14,11,1,MEDAL,HB,old,m,./images/MEDALHB.png,,,,,,,,,,,,,,,,,,,,,
,,,,,,,,,,,,,,,,,200086,19,2022-01-28_23h08.54.027,lexical_decision_task_DD_L6,2021.2.3,MacIntel,60.0024001,,,,,,,,,,,0.6449,1,,,,,,,,,,,,,,m,1,0.6449,,,,,,,,0.799978299,-0.489236111,0,0,0,,0,15,15,67,1,POKER,C,old,m,./images/POKER.png,,,,,,,,,,,,,,,,,,,,,
,,,,,,,,,,,,,,,,,200086,19,2022-01-28_23h08.54.027,lexical_decision_task_DD_L6,2021.2.3,MacIntel,60.0024001,,,,,,,,,,,0.6177,1,,,,,,,,,,,,,,m,1,0.6177,,,,,,,,0.799978299,-0.489236111,0,0,0,,0,16,16,49,1,BISHOP,C,old,m,./images/BISHOP.png,,,,,,,,,,,,,,,,,,,,,
,,,,,,,,,,,,,,,,,200086,19,2022-01-28_23h08.54.027,lexical_decision_task_DD_L6,2021.2.3,MacIntel,60.0024001,,,,,,,,,,,0.578,1,,,,,,,,,,,,,,z,1,0.578,,,,,,,,0.799978299,-0.489236111,0,0,0,,0,17,17,138,1,PLICE,C,old,z,./images/PLICE.png,,,,,,,,,,,,,,,,,,,,,
,,,,,,,,,,,,,,,,,200086,19,2022-01-28_23h08.54.027,lexical_decision_task_DD_L6,2021.2.3,MacIntel,60.0024001,,,,,,,,,,,1.3189,1,,,,,,,,,,,,,,z,1,1.3189,,,,,,,,0.799978299,-0.489236111,0,0,0,,0,18,18,148,1,JOMS,HB,old,z,./images/JOMSHB.png,,,,,,,,,,,,,,,,,,,,,
,,,,,,,,,,,,,,,,,200086,19,2022-01-28_23h08.54.027,lexical_decision_task_DD_L6,2021.2.3,MacIntel,60.0024001,,,,,,,,,,,0.5958,1,,,,,,,,,,,,,,z,1,0.5958,,,,,,,,0.799978299,-0.489236111,0,0,0,,0,19,19,143,1,MONGS,LB,old,z,./images/MONGSLB.png,,,,,,,,,,,,,,,,,,,,,
,,,,,,,,,,,,,,,,,200086,19,2022-01-28_23h08.54.027,lexical_decision_task_DD_L6,2021.2.3,MacIntel,60.0024001,,,,,,,,,,,0.6867,1,,,,,,,,,,,,,,z,1,0.6867,,,,,,,,0.799978299,-0.489236111,0,0,0,,0,20,20,103,1,FLORT,HB,old,z,./images/FLORTHB.png,,,,,,,,,,,,,,,,,,,,,
,,,,,,,,,,,,,,,,,200086,19,2022-01-28_23h08.54.027,lexical_decision_task_DD_L6,2021.2.3,MacIntel,60.0024001,,,,,,,,,,,0.8901,0,,,,,,,,,,,,,,m,0,0.8901,,,,,,,,0.799978299,-0.489236111,0,0,0,,0,21,21,128,1,GRIFT,LB,old,z,./images/GRIFTLB.png,,,,,,,,,,,,,,,,,,,,,
,,,,,,,,,,,,,,,,,200086,19,2022-01-28_23h08.54.027,lexical_decision_task_DD_L6,2021.2.3,MacIntel,60.0024001,,,,,,,,,,,0.682,1,,,,,,,,,,,,,,m,1,0.682,,,,,,,,0.799978299,-0.489236111,0,0,0,,0,22,22,58,1,CANOE,C,old,m,./images/CANOE.png,,,,,,,,,,,,,,,,,,,,,
,,,,,,,,,,,,,,,,,200086,19,2022-01-28_23h08.54.027,lexical_decision_task_DD_L6,2021.2.3,MacIntel,60.0024001,,,,,,,,,,,0.7303,1,,,,,,,,,,,,,,m,1,0.7303,,,,,,,,0.799978299,-0.489236111,0,0,0,,0,23,23,32,1,HOCKEY,HB,old,m,./images/HOCKEYHB.png,,,,,,,,,,,,,,,,,,,,,
,,,,,,,,,,,,,,,,,200086,19,2022-01-28_23h08.54.027,lexical_decision_task_DD_L6,2021.2.3,MacIntel,60.0024001,,,,,,,,,,,0.7545,0,,,,,,,,,,,,,,z,0,0.7545,,,,,,,,0.799978299,-0.489236111,0,0,0,,0,24,24,41,1,STREAM,HB,old,m,./images/STREAMHB.png,,,,,,,,,,,,,,,,,,,,,
,,,,,,,,,,,,,,,,,200086,19,2022-01-28_23h08.54.027,lexical_decision_task_DD_L6,2021.2.3,MacIntel,60.0024001,,,,,,,,,,,0.7128,1,,,,,,,,,,,,,,m,1,0.7128,,,,,,,,0.799978299,-0.489236111,0,0,0,,0,25,25,36,1,BOILER,LB,old,m,./images/BOILERLB.png,,,,,,,,,,,,,,,,,,,,,
,,,,,,,,,,,,,,,,,200086,19,2022-01-28_23h08.54.027,lexical_decision_task_DD_L6,2021.2.3,MacIntel,60.0024001,,,,,,,,,,,0.5491,1,,,,,,,,,,,,,,m,1,0.5491,,,,,,,,0.799978299,-0.489236111,0,0,0,,0,26,26,78,1,BROOM,LB,old,m,./images/BROOMLB.png,,,,,,,,,,,,,,,,,,,,,
,,,,,,,,,,,,,,,,,200086,19,2022-01-28_23h08.54.027,lexical_decision_task_DD_L6,2021.2.3,MacIntel,60.0024001,,,,,,,,,,,0.7112,1,,,,,,,,,,,,,,m,1,0.7112,,,,,,,,0.799978299,-0.489236111,0,0,0,,0,27,27,12,1,BLOKE,LB,old,m,./images/BLOKELB.png,,,,,,,,,,,,,,,,,,,,,
,,,,,,,,,,,,,,,,,200086,19,2022-01-28_23h08.54.027,lexical_decision_task_DD_L6,2021.2.3,MacIntel,60.0024001,,,,,,,,,,,0.7804,0,,,,,,,,,,,,,,m,0,0.7804,,,,,,,,0.799978299,-0.489236111,0,0,0,,0,28,28,160,1,VEETS,HB,old,z,./images/VEETSHB.png,,,,,,,,,,,,,,,,,,,,,
,,,,,,,,,,,,,,,,,200086,19,2022-01-28_23h08.54.027,lexical_decision_task_DD_L6,2021.2.3,MacIntel,60.0024001,,,,,,,,,,,1.0231,1,,,,,,,,,,,,,,m,1,1.0231,,,,,,,,0.799978299,-0.489236111,0,0,0,,0,29,29,83,1,WHISKY,HB,old,m,./images/WHISKYHB.png,,,,,,,,,,,,,,,,,,,,,
,,,,,,,,,,,,,,,,,200086,19,2022-01-28_23h08.54.027,lexical_decision_task_DD_L6,2021.2.3,MacIntel,60.0024001,,,,,,,,,,,0.7548,1,,,,,,,,,,,,,,z,1,0.7548,,,,,,,,0.799978299,-0.489236111,0,0,0,,0,30,30,135,1,JOODY,C,old,z,./images/JOODY.png,,,,,,,,,,,,,,,,,,,,,
,,,,,,,,,,,,,,,,,200086,19,2022-01-28_23h08.54.027,lexical_decision_task_DD_L6,2021.2.3,MacIntel,60.0024001,,,,,,,,,,,0.8626,1,,,,,,,,,,,,,,z,1,0.8626,,,,,,,,0.799978299,-0.489236111,0,0,0,,0,31,31,112,1,MYING,HB,old,z,./images/MYINGHB.png,,,,,,,,,,,,,,,,,,,,,
,,,,,,,,,,,,,,,,,200086,19,2022-01-28_23h08.54.027,lexical_decision_task_DD_L6,2021.2.3,MacIntel,60.0024001,,,,,,,,,,,0.6866,1,,,,,,,,,,,,,,z,1,0.6866,,,,,,,,0.799978299,-0.489236111,0,0,0,,0,32,32,101,1,GLEET,LB,old,z,./images/GLEETLB.png,,,,,,,,,,,,,,,,,,,,,
,,,,,,,,,,,,,,,,,200086,19,2022-01-28_23h08.54.027,lexical_decision_task_DD_L6,2021.2.3,MacIntel,60.0024001,,,,,,,,,,,0.6292,1,,,,,,,,,,,,,,m,1,0.6292,,,,,,,,0.799978299,-0.489236111,0,0,0,,0,33,33,15,1,COLLAR,LB,old,m,./images/COLLARLB.png,,,,,,,,,,,,,,,,,,,,,
,,,,,,,,,,,,,,,,,200086,19,2022-01-28_23h08.54.027,lexical_decision_task_DD_L6,2021.2.3,MacIntel,60.0024001,,,,,,,,,,,0.6423,1,,,,,,,,,,,,,,z,1,0.6423,,,,,,,,0.799978299,-0.489236111,0,0,0,,0,34,34,120,1,RINED,C,old,z,./images/RINED.png,,,,,,,,,,,,,,,,,,,,,
,,,,,,,,,,,,,,,,,200086,19,2022-01-28_23h08.54.027,lexical_decision_task_DD_L6,2021.2.3,MacIntel,60.0024001,,,,,,,,,,,0.7968,1,,,,,,,,,,,,,,z,1,0.7968,,,,,,,,0.799978299,-0.489236111,0,0,0,,0,35,35,157,1,INLER,HB,old,z,./images/INLERHB.png,,,,,,,,,,,,,,,,,,,,,
,,,,,,,,,,,,,,,,,200086,19,2022-01-28_23h08.54.027,lexical_decision_task_DD_L6,2021.2.3,MacIntel,60.0024001,,,,,,,,,,,0.6986,1,,,,,,,,,,,,,,m,1,0.6986,,,,,,,,0.799978299,-0.489236111,0,0,0,,0,36,36,46,1,MUMMY,C,old,m,./images/MUMMY.png,,,,,,,,,,,,,,,,,,,,,
,,,,,,,,,,,,,,,,,200086,19,2022-01-28_23h08.54.027,lexical_decision_task_DD_L6,2021.2.3,MacIntel,60.0024001,,,,,,,,,,,0.665,1,,,,,,,,,,,,,,m,1,0.665,,,,,,,,0.799978299,-0.489236111,0,0,0,,0,37,37,51,1,SAUCE,LB,old,m,./images/SAUCELB.png,,,,,,,,,,,,,,,,,,,,,
,,,,,,,,,,,,,,,,,200086,19,2022-01-28_23h08.54.027,lexical_decision_task_DD_L6,2021.2.3,MacIntel,60.0024001,,,,,,,,,,,0.9297,1,,,,,,,,,,,,,,z,1,0.9297,,,,,,,,0.799978299,-0.489236111,0,0,0,,0,38,38,119,1,PAFER,LB,old,z,./images/PAFERLB.png,,,,,,,,,,,,,,,,,,,,,
,,,,,,,,,,,,,,,,,200086,19,2022-01-28_23h08.54.027,lexical_decision_task_DD_L6,2021.2.3,MacIntel,60.0024001,,,,,,,,,,,1.2622,1,,,,,,,,,,,,,,z,1,1.2622,,,,,,,,0.799978299,-0.489236111,0,0,0,,0,39,39,97,1,CHIDS,HB,old,z,./images/CHIDSHB.png,,,,,,,,,,,,,,,,,,,,,
,,,,,,,,,,,,,,,,,200086,19,2022-01-28_23h08.54.027,lexical_decision_task_DD_L6,2021.2.3,MacIntel,60.0024001,,,,,,,,,,,0.6886,1,,,,,,,,,,,,,,z,1,0.6886,,,,,,,,0.799978299,-0.489236111,0,0,0,,0,40,40,116,1,BALGY,LB,old,z,./images/BALGYLB.png,,,,,,,,,,,,,,,,,,,,,
,,,,,,,,,,,,,,,,,200086,19,2022-01-28_23h08.54.027,lexical_decision_task_DD_L6,2021.2.3,MacIntel,60.0024001,,,,,,,,,,,0.6725,1,,,,,,,,,,,,,,m,1,0.6725,,,,,,,,0.799978299,-0.489236111,0,0,0,space,0,41,41,9,1,DIVER,LB,old,m,./images/DIVERLB.png,12.9676,,,,,,,,,,,,,,,,,,,,
,,,,,,,,,,,,,,,,,200086,19,2022-01-28_23h08.54.027,lexical_decision_task_DD_L6,2021.2.3,MacIntel,60.0024001,,,,,,,,,,,0.5488,1,,,,,,,,,,,,,,m,1,0.5488,,,,,,,,0.799978299,-0.489236111,0,0,0,,0,42,42,16,1,GRAPE,C,old,m,./images/GRAPE.png,,,,,,,,,,,,,,,,,,,,,
,,,,,,,,,,,,,,,,,200086,19,2022-01-28_23h08.54.027,lexical_decision_task_DD_L6,2021.2.3,MacIntel,60.0024001,,,,,,,,,,,0.5214,1,,,,,,,,,,,,,,z,1,0.5214,,,,,,,,0.799978299,-0.489236111,0,0,0,,0,43,43,144,1,NAIRY,C,old,z,./images/NAIRY.png,,,,,,,,,,,,,,,,,,,,,
,,,,,,,,,,,,,,,,,200086,19,2022-01-28_23h08.54.027,lexical_decision_task_DD_L6,2021.2.3,MacIntel,60.0024001,,,,,,,,,,,0.6472,1,,,,,,,,,,,,,,m,1,0.6472,,,,,,,,0.799978299,-0.489236111,0,0,0,,0,44,44,57,1,FERRY,LB,old,m,./images/FERRYLB.png,,,,,,,,,,,,,,,,,,,,,
,,,,,,,,,,,,,,,,,200086,19,2022-01-28_23h08.54.027,lexical_decision_task_DD_L6,2021.2.3,MacIntel,60.0024001,,,,,,,,,,,0.5689,0,,,,,,,,,,,,,,z,0,0.5689,,,,,,,,0.799978299,-0.489236111,0,0,0,,0,45,45,68,1,VALLEY,HB,old,m,./images/VALLEYHB.png,,,,,,,,,,,,,,,,,,,,,
,,,,,,,,,,,,,,,,,200086,19,2022-01-28_23h08.54.027,lexical_decision_task_DD_L6,2021.2.3,MacIntel,60.0024001,,,,,,,,,,,0.7775,1,,,,,,,,,,,,,,z,1,0.7775,,,,,,,,0.799978299,-0.489236111,0,0,0,,0,46,46,111,1,HOSSE,C,old,z,./images/HOSSE.png,,,,,,,,,,,,,,,,,,,,,
,,,,,,,,,,,,,,,,,200086,19,2022-01-28_23h08.54.027,lexical_decision_task_DD_L6,2021.2.3,MacIntel,60.0024001,,,,,,,,,,,0.6574,1,,,,,,,,,,,,,,m,1,0.6574,,,,,,,,0.799978299,-0.489236111,0,0,0,,0,47,47,72,1,FLASK,LB,old,m,./images/FLASKLB.png,,,,,,,,,,,,,,,,,,,,,
,,,,,,,,,,,,,,,,,200086,19,2022-01-28_23h08.54.027,lexical_decision_task_DD_L6,2021.2.3,MacIntel,60.0024001,,,,,,,,,,,0.6652,1,,,,,,,,,,,,,,m,1,0.6652,,,,,,,,0.799978299,-0.489236111,0,0,0,,0,48,48,37,1,TIGER,C,old,m,./images/TIGER.png,,,,,,,,,,,,,,,,,,,,,
,,,,,,,,,,,,,,,,,200086,19,2022-01-28_23h08.54.027,lexical_decision_task_DD_L6,2021.2.3,MacIntel,60.0024001,,,,,,,,,,,0.796,1,,,,,,,,,,,,,,z,1,0.796,,,,,,,,0.799978299,-0.489236111,0,0,0,,0,49,49,100,1,DRIBS,HB,old,z,./images/DRIBSHB.png,,,,,,,,,,,,,,,,,,,,,
,,,,,,,,,,,,,,,,,200086,19,2022-01-28_23h08.54.027,lexical_decision_task_DD_L6,2021.2.3,MacIntel,60.0024001,,,,,,,,,,,0.7972,0,,,,,,,,,,,,,,m,0,0.7972,,,,,,,,0.799978299,-0.489236111,0,0,0,,0,50,50,142,1,PLASK,HB,old,z,./images/PLASKHB.png,,,,,,,,,,,,,,,,,,,,,
,,,,,,,,,,,,,,,,,200086,19,2022-01-28_23h08.54.027,lexical_decision_task_DD_L6,2021.2.3,MacIntel,60.0024001,,,,,,,,,,,0.8023,1,,,,,,,,,,,,,,z,1,0.8023,,,,,,,,0.799978299,-0.489236111,0,0,0,,0,51,51,123,1,SEDGE,C,old,z,./images/SEDGE.png,,,,,,,,,,,,,,,,,,,,,
,,,,,,,,,,,,,,,,,200086,19,2022-01-28_23h08.54.027,lexical_decision_task_DD_L6,2021.2.3,MacIntel,60.0024001,,,,,,,,,,,0.7131,1,,,,,,,,,,,,,,z,1,0.7131,,,,,,,,0.799978299,-0.489236111,0,0,0,,0,52,52,149,1,VEASE,LB,old,z,./images/VEASELB.png,,,,,,,,,,,,,,,,,,,,,
,,,,,,,,,,,,,,,,,200086,19,2022-01-28_23h08.54.027,lexical_decision_task_DD_L6,2021.2.3,MacIntel,60.0024001,,,,,,,,,,,0.6795,1,,,,,,,,,,,,,,z,1,0.6795,,,,,,,,0.799978299,-0.489236111,0,0,0,,0,53,53,118,1,BAVEL,HB,old,z,./images/BAVELHB.png,,,,,,,,,,,,,,,,,,,,,
,,,,,,,,,,,,,,,,,200086,19,2022-01-28_23h08.54.027,lexical_decision_task_DD_L6,2021.2.3,MacIntel,60.0024001,,,,,,,,,,,0.5418,1,,,,,,,,,,,,,,m,1,0.5418,,,,,,,,0.799978299,-0.489236111,0,0,0,,0,54,54,4,1,BOXER,C,old,m,./images/BOXER.png,,,,,,,,,,,,,,,,,,,,,
,,,,,,,,,,,,,,,,,200086,19,2022-01-28_23h08.54.027,lexical_decision_task_DD_L6,2021.2.3,MacIntel,60.0024001,,,,,,,,,,,0.5143,1,,,,,,,,,,,,,,z,1,0.5143,,,,,,,,0.799978299,-0.489236111,0,0,0,,0,55,55,132,1,SCIFF,C,old,z,./images/SCIFF.png,,,,,,,,,,,,,,,,,,,,,
,,,,,,,,,,,,,,,,,200086,19,2022-01-28_23h08.54.027,lexical_decision_task_DD_L6,2021.2.3,MacIntel,60.0024001,,,,,,,,,,,0.5785,1,,,,,,,,,,,,,,m,1,0.5785,,,,,,,,0.799978299,-0.489236111,0,0,0,,0,56,56,64,1,BRIDE,C,old,m,./images/BRIDE.png,,,,,,,,,,,,,,,,,,,,,
,,,,,,,,,,,,,,,,,200086,19,2022-01-28_23h08.54.027,lexical_decision_task_DD_L6,2021.2.3,MacIntel,60.0024001,,,,,,,,,,,0.5142,1,,,,,,,,,,,,,,m,1,0.5142,,,,,,,,0.799978299,-0.489236111,0,0,0,,0,57,57,21,1,DANCER,LB,old,m,./images/DANCERLB.png,,,,,,,,,,,,,,,,,,,,,
,,,,,,,,,,,,,,,,,200086,19,2022-01-28_23h08.54.027,lexical_decision_task_DD_L6,2021.2.3,MacIntel,60.0024001,,,,,,,,,,,0.5205,1,,,,,,,,,,,,,,m,1,0.5205,,,,,,,,0.799978299,-0.489236111,0,0,0,,0,58,58,40,1,SNAKE,C,old,m,./images/SNAKE.png,,,,,,,,,,,,,,,,,,,,,
,,,,,,,,,,,,,,,,,200086,19,2022-01-28_23h08.54.027,lexical_decision_task_DD_L6,2021.2.3,MacIntel,60.0024001,,,,,,,,,,,0.4886,1,,,,,,,,,,,,,,m,1,0.4886,,,,,,,,0.799978299,-0.489236111,0,0,0,,0,59,59,1,1,TOWEL,C,old,m,./images/TOWEL.png,,,,,,,,,,,,,,,,,,,,,
,,,,,,,,,,,,,,,,,200086,19,2022-01-28_23h08.54.027,lexical_decision_task_DD_L6,2021.2.3,MacIntel,60.0024001,,,,,,,,,,,0.602,1,,,,,,,,,,,,,,z,1,0.602,,,,,,,,0.799978299,-0.489236111,0,0,0,,0,60,60,84,1,HAXES,C,old,z,./images/HAXES.png,,,,,,,,,,,,,,,,,,,,,
,,,,,,,,,,,,,,,,,200086,19,2022-01-28_23h08.54.027,lexical_decision_task_DD_L6,2021.2.3,MacIntel,60.0024001,,,,,,,,,,,0.6929,1,,,,,,,,,,,,,,m,1,0.6929,,,,,,,,0.799978299,-0.489236111,0,0,0,,0,61,61,31,1,STEAK,C,old,m,./images/STEAK.png,,,,,,,,,,,,,,,,,,,,,
,,,,,,,,,,,,,,,,,200086,19,2022-01-28_23h08.54.027,lexical_decision_task_DD_L6,2021.2.3,MacIntel,60.0024001,,,,,,,,,,,0.6632,1,,,,,,,,,,,,,,z,1,0.6632,,,,,,,,0.799978299,-0.489236111,0,0,0,,0,62,62,104,1,GITTY,LB,old,z,./images/GITTYLB.png,,,,,,,,,,,,,,,,,,,,,
,,,,,,,,,,,,,,,,,200086,19,2022-01-28_23h08.54.027,lexical_decision_task_DD_L6,2021.2.3,MacIntel,60.0024001,,,,,,,,,,,0.548,1,,,,,,,,,,,,,,m,1,0.548,,,,,,,,0.799978299,-0.489236111,0,0,0,,0,63,63,27,1,BUTTER,LB,old,m,./images/BUTTERLB.png,,,,,,,,,,,,,,,,,,,,,
,,,,,,,,,,,,,,,,,200086,19,2022-01-28_23h08.54.027,lexical_decision_task_DD_L6,2021.2.3,MacIntel,60.0024001,,,,,,,,,,,0.5883,1,,,,,,,,,,,,,,z,1,0.5883,,,,,,,,0.799978299,-0.489236111,0,0,0,,0,64,64,146,1,MOOST,LB,old,z,./images/MOOSTLB.png,,,,,,,,,,,,,,,,,,,,,
,,,,,,,,,,,,,,,,,200086,19,2022-01-28_23h08.54.027,lexical_decision_task_DD_L6,2021.2.3,MacIntel,60.0024001,,,,,,,,,,,0.5242,1,,,,,,,,,,,,,,m,1,0.5242,,,,,,,,0.799978299,-0.489236111,0,0,0,,0,65,65,10,1,GARDEN,C,old,m,./images/GARDEN.png,,,,,,,,,,,,,,,,,,,,,
,,,,,,,,,,,,,,,,,200086,19,2022-01-28_23h08.54.027,lexical_decision_task_DD_L6,2021.2.3,MacIntel,60.0024001,,,,,,,,,,,0.6977,1,,,,,,,,,,,,,,m,1,0.6977,,,,,,,,0.799978299,-0.489236111,0,0,0,,0,66,66,76,1,MIDGET,C,old,m,./images/MIDGET.png,,,,,,,,,,,,,,,,,,,,,
,,,,,,,,,,,,,,,,,200086,19,2022-01-28_23h08.54.027,lexical_decision_task_DD_L6,2021.2.3,MacIntel,60.0024001,,,,,,,,,,,0.9305,1,,,,,,,,,,,,,,m,1,0.9305,,,,,,,,0.799978299,-0.489236111,0,0,0,,0,67,67,38,1,ENGINE,HB,old,m,./images/ENGINEHB.png,,,,,,,,,,,,,,,,,,,,,
,,,,,,,,,,,,,,,,,200086,19,2022-01-28_23h08.54.027,lexical_decision_task_DD_L6,2021.2.3,MacIntel,60.0024001,,,,,,,,,,,0.7741,0,,,,,,,,,,,,,,z,0,0.7741,,,,,,,,0.799978299,-0.489236111,0,0,0,,0,68,68,50,1,PILOT,HB,old,m,./images/PILOTHB.png,,,,,,,,,,,,,,,,,,,,,
,,,,,,,,,,,,,,,,,200086,19,2022-01-28_23h08.54.027,lexical_decision_task_DD_L6,2021.2.3,MacIntel,60.0024001,,,,,,,,,,,0.686,1,,,,,,,,,,,,,,m,1,0.686,,,,,,,,0.799978299,-0.489236111,0,0,0,,0,69,69,59,1,BRUSH,HB,old,m,./images/BRUSHHB.png,,,,,,,,,,,,,,,,,,,,,
,,,,,,,,,,,,,,,,,200086,19,2022-01-28_23h08.54.027,lexical_decision_task_DD_L6,2021.2.3,MacIntel,60.0024001,,,,,,,,,,,0.6955,1,,,,,,,,,,,,,,m,1,0.6955,,,,,,,,0.799978299,-0.489236111,0,0,0,,0,70,70,55,1,ALLEY,C,old,m,./images/ALLEY.png,,,,,,,,,,,,,,,,,,,,,
,,,,,,,,,,,,,,,,,200086,19,2022-01-28_23h08.54.027,lexical_decision_task_DD_L6,2021.2.3,MacIntel,60.0024001,,,,,,,,,,,0.5564,1,,,,,,,,,,,,,,m,1,0.5564,,,,,,,,0.799978299,-0.489236111,0,0,0,,0,71,71,48,1,SHIELD,LB,old,m,./images/SHIELDLB.png,,,,,,,,,,,,,,,,,,,,,
,,,,,,,,,,,,,,,,,200086,19,2022-01-28_23h08.54.027,lexical_decision_task_DD_L6,2021.2.3,MacIntel,60.0024001,,,,,,,,,,,0.5714,1,,,,,,,,,,,,,,z,1,0.5714,,,,,,,,0.799978299,-0.489236111,0,0,0,,0,72,72,102,1,DULLE,C,old,z,./images/DULLE.png,,,,,,,,,,,,,,,,,,,,,
,,,,,,,,,,,,,,,,,200086,19,2022-01-28_23h08.54.027,lexical_decision_task_DD_L6,2021.2.3,MacIntel,60.0024001,,,,,,,,,,,0.735,1,,,,,,,,,,,,,,z,1,0.735,,,,,,,,0.799978299,-0.489236111,0,0,0,,0,73,73,129,1,PRANS,C,old,z,./images/PRANS.png,,,,,,,,,,,,,,,,,,,,,
,,,,,,,,,,,,,,,,,200086,19,2022-01-28_23h08.54.027,lexical_decision_task_DD_L6,2021.2.3,MacIntel,60.0024001,,,,,,,,,,,0.6372,1,,,,,,,,,,,,,,z,1,0.6372,,,,,,,,0.799978299,-0.489236111,0,0,0,,0,74,74,161,1,BLAPS,LB,old,z,./images/BLAPSLB.png,,,,,,,,,,,,,,,,,,,,,
,,,,,,,,,,,,,,,,,200086,19,2022-01-28_23h08.54.027,lexical_decision_task_DD_L6,2021.2.3,MacIntel,60.0024001,,,,,,,,,,,0.5996,1,,,,,,,,,,,,,,m,1,0.5996,,,,,,,,0.799978299,-0.489236111,0,0,0,,0,75,75,81,1,DRILL,LB,old,m,./images/DRILLLB.png,,,,,,,,,,,,,,,,,,,,,
,,,,,,,,,,,,,,,,,200086,19,2022-01-28_23h08.54.027,lexical_decision_task_DD_L6,2021.2.3,MacIntel,60.0024001,,,,,,,,,,,0.5956,1,,,,,,,,,,,,,,z,1,0.5956,,,,,,,,0.799978299,-0.489236111,0,0,0,,0,76,76,117,1,STEEG,C,old,z,./images/STEEG.png,,,,,,,,,,,,,,,,,,,,,
,,,,,,,,,,,,,,,,,200086,19,2022-01-28_23h08.54.027,lexical_decision_task_DD_L6,2021.2.3,MacIntel,60.0024001,,,,,,,,,,,0.4637,1,,,,,,,,,,,,,,m,1,0.4637,,,,,,,,0.799978299,-0.489236111,0,0,0,,0,77,77,63,1,BAKER,LB,old,m,./images/BAKERLB.png,,,,,,,,,,,,,,,,,,,,,
,,,,,,,,,,,,,,,,,200086,19,2022-01-28_23h08.54.027,lexical_decision_task_DD_L6,2021.2.3,MacIntel,60.0024001,,,,,,,,,,,0.7167,1,,,,,,,,,,,,,,z,1,0.7167,,,,,,,,0.799978299,-0.489236111,0,0,0,,0,78,78,107,1,FASKS,LB,old,z,./images/FASKSLB.png,,,,,,,,,,,,,,,,,,,,,
,,,,,,,,,,,,,,,,,200086,19,2022-01-28_23h08.54.027,lexical_decision_task_DD_L6,2021.2.3,MacIntel,60.0024001,,,,,,,,,,,1.1152,1,,,,,,,,,,,,,,z,1,1.1152,,,,,,,,0.799978299,-0.489236111,0,0,0,,0,79,79,127,1,NINDY,HB,old,z,./images/NINDYHB.png,,,,,,,,,,,,,,,,,,,,,
,,,,,,,,,,,,,,,,,200086,19,2022-01-28_23h08.54.027,lexical_decision_task_DD_L6,2021.2.3,MacIntel,60.0024001,,,,,,,,,,,0.8581,0,,,,,,,,,,,,,,m,0,0.8581,,,,,,,,0.799978299,-0.489236111,0,0,0,,0,80,80,166,1,SHORY,HB,old,z,./images/SHORYHB.png,,,,,,,,,,,,,,,,,,,,,
,,,,,,,,,,,,,,,,,200086,19,2022-01-28_23h08.54.027,lexical_decision_task_DD_L6,2021.2.3,MacIntel,60.0024001,,,,,,,,,,,1.0292,1,,,,,,,,,,,,,,z,1,1.0292,,,,,,,,0.799978299,-0.489236111,0,0,0,,0,81,81,115,1,MAWNS,HB,old,z,./images/MAWNSHB.png,,,,,,,,,,,,,,,,,,,,,
,,,,,,,,,,,,,,,,,200086,19,2022-01-28_23h08.54.027,lexical_decision_task_DD_L6,2021.2.3,MacIntel,60.0024001,,,,,,,,,,,0.7235,1,,,,,,,,,,,,,,z,1,0.7235,,,,,,,,0.799978299,-0.489236111,0,0,0,,0,82,82,105,1,MOKER,C,old,z,./images/MOKER.png,,,,,,,,,,,,,,,,,,,,,
,,,,,,,,,,,,,,,,,200086,19,2022-01-28_23h08.54.027,lexical_decision_task_DD_L6,2021.2.3,MacIntel,60.0024001,,,,,,,,,,,0.7871,1,,,,,,,,,,,,,,z,1,0.7871,,,,,,,,0.799978299,-0.489236111,0,0,0,space,0,83,83,131,1,NACES,LB,old,z,./images/NACESLB.png,9.5365,,,,,,,,,,,,,,,,,,,,
,,,,,,,,,,,,,,,,,200086,19,2022-01-28_23h08.54.027,lexical_decision_task_DD_L6,2021.2.3,MacIntel,60.0024001,,,,,,,,,,,0.6873,0,,,,,,,,,,,,,,z,0,0.6873,,,,,,,,0.799978299,-0.489236111,0,0,0,,0,84,84,80,1,PLANET,HB,old,m,./images/PLANETHB.png,,,,,,,,,,,,,,,,,,,,,
,,,,,,,,,,,,,,,,,200086,19,2022-01-28_23h08.54.027,lexical_decision_task_DD_L6,2021.2.3,MacIntel,60.0024001,,,,,,,,,,,0.5128,1,,,,,,,,,,,,,,m,1,0.5128,,,,,,,,0.799978299,-0.489236111,0,0,0,,0,85,85,61,1,ARTIST,C,old,m,./images/ARTIST.png,,,,,,,,,,,,,,,,,,,,,
,,,,,,,,,,,,,,,,,200086,19,2022-01-28_23h08.54.027,lexical_decision_task_DD_L6,2021.2.3,MacIntel,60.0024001,,,,,,,,,,,0.6114,1,,,,,,,,,,,,,,m,1,0.6114,,,,,,,,0.799978299,-0.489236111,0,0,0,,0,86,86,69,1,ARROW,LB,old,m,./images/ARROWLB.png,,,,,,,,,,,,,,,,,,,,,
,,,,,,,,,,,,,,,,,200086,19,2022-01-28_23h08.54.027,lexical_decision_task_DD_L6,2021.2.3,MacIntel,60.0024001,,,,,,,,,,,0.5612,1,,,,,,,,,,,,,,m,1,0.5612,,,,,,,,0.799978299,-0.489236111,0,0,0,,0,87,87,70,1,BANANA,C,old,m,./images/BANANA.png,,,,,,,,,,,,,,,,,,,,,
,,,,,,,,,,,,,,,,,200086,19,2022-01-28_23h08.54.027,lexical_decision_task_DD_L6,2021.2.3,MacIntel,60.0024001,,,,,,,,,,,0.5009,1,,,,,,,,,,,,,,m,1,0.5009,,,,,,,,0.799978299,-0.489236111,0,0,0,,0,88,88,73,1,GLOVE,C,old,m,./images/GLOVE.png,,,,,,,,,,,,,,,,,,,,,
,,,,,,,,,,,,,,,,,200086,19,2022-01-28_23h08.54.027,lexical_decision_task_DD_L6,2021.2.3,MacIntel,60.0024001,,,,,,,,,,,0.5152,1,,,,,,,,,,,,,,m,1,0.5152,,,,,,,,0.799978299,-0.489236111,0,0,0,,0,89,89,43,1,STOOL,C,old,m,./images/STOOL.png,,,,,,,,,,,,,,,,,,,,,
,,,,,,,,,,,,,,,,,200086,19,2022-01-28_23h08.54.027,lexical_decision_task_DD_L6,2021.2.3,MacIntel,60.0024001,,,,,,,,,,,0.7256,1,,,,,,,,,,,,,,m,1,0.7256,,,,,,,,0.799978299,-0.489236111,0,0,0,,0,90,90,47,1,LAGOON,HB,old,m,./images/LAGOONHB.png,,,,,,,,,,,,,,,,,,,,,
,,,,,,,,,,,,,,,,,200086,19,2022-01-28_23h08.54.027,lexical_decision_task_DD_L6,2021.2.3,MacIntel,60.0024001,,,,,,,,,,,0.686,1,,,,,,,,,,,,,,z,1,0.686,,,,,,,,0.799978299,-0.489236111,0,0,0,,0,91,91,86,1,AIFED,LB,old,z,./images/AIFEDLB.png,,,,,,,,,,,,,,,,,,,,,
,,,,,,,,,,,,,,,,,200086,19,2022-01-28_23h08.54.027,lexical_decision_task_DD_L6,2021.2.3,MacIntel,60.0024001,,,,,,,,,,,0.6878,1,,,,,,,,,,,,,,z,1,0.6878,,,,,,,,0.799978299,-0.489236111,0,0,0,,0,92,92,108,1,GRUET,C,old,z,./images/GRUET.png,,,,,,,,,,,,,,,,,,,,,
,,,,,,,,,,,,,,,,,200086,19,2022-01-28_23h08.54.027,lexical_decision_task_DD_L6,2021.2.3,MacIntel,60.0024001,,,,,,,,,,,0.6615,1,,,,,,,,,,,,,,m,1,0.6615,,,,,,,,0.799978299,-0.489236111,0,0,0,,0,93,93,77,1,WHEEL,HB,old,m,./images/WHEELHB.png,,,,,,,,,,,,,,,,,,,,,
,,,,,,,,,,,,,,,,,200086,19,2022-01-28_23h08.54.027,lexical_decision_task_DD_L6,2021.2.3,MacIntel,60.0024001,,,,,,,,,,,0.6012,1,,,,,,,,,,,,,,z,1,0.6012,,,,,,,,0.799978299,-0.489236111,0,0,0,,0,94,94,87,1,TRING,C,old,z,./images/TRING.png,,,,,,,,,,,,,,,,,,,,,
,,,,,,,,,,,,,,,,,200086,19,2022-01-28_23h08.54.027,lexical_decision_task_DD_L6,2021.2.3,MacIntel,60.0024001,,,,,,,,,,,0.9576,1,,,,,,,,,,,,,,z,1,0.9576,,,,,,,,0.799978299,-0.489236111,0,0,0,,0,95,95,121,1,CEERS,HB,old,z,./images/CEERSHB.png,,,,,,,,,,,,,,,,,,,,,
,,,,,,,,,,,,,,,,,200086,19,2022-01-28_23h08.54.027,lexical_decision_task_DD_L6,2021.2.3,MacIntel,60.0024001,,,,,,,,,,,0.714,1,,,,,,,,,,,,,,m,1,0.714,,,,,,,,0.799978299,-0.489236111,0,0,0,,0,96,96,20,1,GRANNY,HB,old,m,./images/GRANNYHB.png,,,,,,,,,,,,,,,,,,,,,
,,,,,,,,,,,,,,,,,200086,19,2022-01-28_23h08.54.027,lexical_decision_task_DD_L6,2021.2.3,MacIntel,60.0024001,,,,,,,,,,,0.6146,1,,,,,,,,,,,,,,m,1,0.6146,,,,,,,,0.799978299,-0.489236111,0,0,0,,0,97,97,30,1,SLOPE,LB,old,m,./images/SLOPELB.png,,,,,,,,,,,,,,,,,,,,,
,,,,,,,,,,,,,,,,,200086,19,2022-01-28_23h08.54.027,lexical_decision_task_DD_L6,2021.2.3,MacIntel,60.0024001,,,,,,,,,,,0.6615,1,,,,,,,,,,,,,,z,1,0.6615,,,,,,,,0.799978299,-0.489236111,0,0,0,,0,98,98,130,1,CRILL,HB,old,z,./images/CRILLHB.png,,,,,,,,,,,,,,,,,,,,,
,,,,,,,,,,,,,,,,,200086,19,2022-01-28_23h08.54.027,lexical_decision_task_DD_L6,2021.2.3,MacIntel,60.0024001,,,,,,,,,,,0.64,1,,,,,,,,,,,,,,m,1,0.64,,,,,,,,0.799978299,-0.489236111,0,0,0,,0,99,99,44,1,BASKET,HB,old,m,./images/BASKETHB.png,,,,,,,,,,,,,,,,,,,,,
,,,,,,,,,,,,,,,,,200086,19,2022-01-28_23h08.54.027,lexical_decision_task_DD_L6,2021.2.3,MacIntel,60.0024001,,,,,,,,,,,0.6274,1,,,,,,,,,,,,,,z,1,0.6274,,,,,,,,0.799978299,-0.489236111,0,0,0,,0,100,100,125,1,MOOKY,LB,old,z,./images/MOOKYLB.png,,,,,,,,,,,,,,,,,,,,,
,,,,,,,,,,,,,,,,,200086,19,2022-01-28_23h08.54.027,lexical_decision_task_DD_L6,2021.2.3,MacIntel,60.0024001,,,,,,,,,,,0.6994,0,,,,,,,,,,,,,,z,0,0.6994,,,,,,,,0.799978299,-0.489236111,0,0,0,,0,101,101,8,1,CLIFF,HB,old,m,./images/CLIFFHB.png,,,,,,,,,,,,,,,,,,,,,
,,,,,,,,,,,,,,,,,200086,19,2022-01-28_23h08.54.027,lexical_decision_task_DD_L6,2021.2.3,MacIntel,60.0024001,,,,,,,,,,,0.6448,1,,,,,,,,,,,,,,m,1,0.6448,,,,,,,,0.799978299,-0.489236111,0,0,0,,0,102,102,3,1,CRATER,LB,old,m,./images/CRATERLB.png,,,,,,,,,,,,,,,,,,,,,
,,,,,,,,,,,,,,,,,200086,19,2022-01-28_23h08.54.027,lexical_decision_task_DD_L6,2021.2.3,MacIntel,60.0024001,,,,,,,,,,,0.7391,1,,,,,,,,,,,,,,z,1,0.7391,,,,,,,,0.799978299,-0.489236111,0,0,0,,0,103,103,90,1,NEAST,C,old,z,./images/NEAST.png,,,,,,,,,,,,,,,,,,,,,
,,,,,,,,,,,,,,,,,200086,19,2022-01-28_23h08.54.027,lexical_decision_task_DD_L6,2021.2.3,MacIntel,60.0024001,,,,,,,,,,,0.4803,1,,,,,,,,,,,,,,m,1,0.4803,,,,,,,,0.799978299,-0.489236111,0,0,0,,0,104,104,28,1,CASINO,C,old,m,./images/CASINO.png,,,,,,,,,,,,,,,,,,,,,
,,,,,,,,,,,,,,,,,200086,19,2022-01-28_23h08.54.027,lexical_decision_task_DD_L6,2021.2.3,MacIntel,60.0024001,,,,,,,,,,,0.829,1,,,,,,,,,,,,,,z,1,0.829,,,,,,,,0.799978299,-0.489236111,0,0,0,,0,105,105,94,1,BLANS,HB,old,z,./images/BLANSHB.png,,,,,,,,,,,,,,,,,,,,,
,,,,,,,,,,,,,,,,,200086,19,2022-01-28_23h08.54.027,lexical_decision_task_DD_L6,2021.2.3,MacIntel,60.0024001,,,,,,,,,,,0.6541,1,,,,,,,,,,,,,,m,1,0.6541,,,,,,,,0.799978299,-0.489236111,0,0,0,,0,106,106,79,1,RULER,C,old,m,./images/RULER.png,,,,,,,,,,,,,,,,,,,,,
,,,,,,,,,,,,,,,,,200086,19,2022-01-28_23h08.54.027,lexical_decision_task_DD_L6,2021.2.3,MacIntel,60.0024001,,,,,,,,,,,1.3603,1,,,,,,,,,,,,,,m,1,1.3603,,,,,,,,0.799978299,-0.489236111,0,0,0,,0,107,107,82,1,PEBBLE,C,old,m,./images/PEBBLE.png,,,,,,,,,,,,,,,,,,,,,
,,,,,,,,,,,,,,,,,200086,19,2022-01-28_23h08.54.027,lexical_decision_task_DD_L6,2021.2.3,MacIntel,60.0024001,,,,,,,,,,,0.7193,1,,,,,,,,,,,,,,m,1,0.7193,,,,,,,,0.799978299,-0.489236111,0,0,0,,0,108,108,56,1,HEATER,HB,old,m,./images/HEATERHB.png,,,,,,,,,,,,,,,,,,,,,
,,,,,,,,,,,,,,,,,200086,19,2022-01-28_23h08.54.027,lexical_decision_task_DD_L6,2021.2.3,MacIntel,60.0024001,,,,,,,,,,,0.8222,1,,,,,,,,,,,,,,z,1,0.8222,,,,,,,,0.799978299,-0.489236111,0,0,0,,0,109,109,154,1,THINT,HB,old,z,./images/THINTHB.png,,,,,,,,,,,,,,,,,,,,,
,,,,,,,,,,,,,,,,,200086,19,2022-01-28_23h08.54.027,lexical_decision_task_DD_L6,2021.2.3,MacIntel,60.0024001,,,,,,,,,,,0.6435,1,,,,,,,,,,,,,,z,1,0.6435,,,,,,,,0.799978299,-0.489236111,0,0,0,,0,110,110,158,1,EGECT,LB,old,z,./images/EGECTLB.png,,,,,,,,,,,,,,,,,,,,,
,,,,,,,,,,,,,,,,,200086,19,2022-01-28_23h08.54.027,lexical_decision_task_DD_L6,2021.2.3,MacIntel,60.0024001,,,,,,,,,,,0.5434,1,,,,,,,,,,,,,,z,1,0.5434,,,,,,,,0.799978299,-0.489236111,0,0,0,,0,111,111,137,1,JOOST,LB,old,z,./images/JOOSTLB.png,,,,,,,,,,,,,,,,,,,,,
,,,,,,,,,,,,,,,,,200086,19,2022-01-28_23h08.54.027,lexical_decision_task_DD_L6,2021.2.3,MacIntel,60.0024001,,,,,,,,,,,0.6786,1,,,,,,,,,,,,,,z,1,0.6786,,,,,,,,0.799978299,-0.489236111,0,0,0,,0,112,112,141,1,PLEET,C,old,z,./images/PLEET.png,,,,,,,,,,,,,,,,,,,,,
,,,,,,,,,,,,,,,,,200086,19,2022-01-28_23h08.54.027,lexical_decision_task_DD_L6,2021.2.3,MacIntel,60.0024001,,,,,,,,,,,0.5894,1,,,,,,,,,,,,,,m,1,0.5894,,,,,,,,0.799978299,-0.489236111,0,0,0,,0,113,113,13,1,BUNNY,C,old,m,./images/BUNNY.png,,,,,,,,,,,,,,,,,,,,,
,,,,,,,,,,,,,,,,,200086,19,2022-01-28_23h08.54.027,lexical_decision_task_DD_L6,2021.2.3,MacIntel,60.0024001,,,,,,,,,,,0.8993,1,,,,,,,,,,,,,,z,1,0.8993,,,,,,,,0.799978299,-0.489236111,0,0,0,,0,114,114,145,1,LAMEL,HB,old,z,./images/LAMELHB.png,,,,,,,,,,,,,,,,,,,,,
,,,,,,,,,,,,,,,,,200086,19,2022-01-28_23h08.54.027,lexical_decision_task_DD_L6,2021.2.3,MacIntel,60.0024001,,,,,,,,,,,0.7743,1,,,,,,,,,,,,,,z,1,0.7743,,,,,,,,0.799978299,-0.489236111,0,0,0,,0,115,115,140,1,DOVET,LB,old,z,./images/DOVETLB.png,,,,,,,,,,,,,,,,,,,,,
,,,,,,,,,,,,,,,,,200086,19,2022-01-28_23h08.54.027,lexical_decision_task_DD_L6,2021.2.3,MacIntel,60.0024001,,,,,,,,,,,0.5806,1,,,,,,,,,,,,,,z,1,0.5806,,,,,,,,0.799978299,-0.489236111,0,0,0,,0,116,116,164,1,SGREW,LB,old,z,./images/SGREWLB.png,,,,,,,,,,,,,,,,,,,,,
,,,,,,,,,,,,,,,,,200086,19,2022-01-28_23h08.54.027,lexical_decision_task_DD_L6,2021.2.3,MacIntel,60.0024001,,,,,,,,,,,0.8057,1,,,,,,,,,,,,,,m,1,0.8057,,,,,,,,0.799978299,-0.489236111,0,0,0,,0,117,117,23,1,CLOTH,HB,old,m,./images/CLOTHHB.png,,,,,,,,,,,,,,,,,,,,,
,,,,,,,,,,,,,,,,,200086,19,2022-01-28_23h08.54.027,lexical_decision_task_DD_L6,2021.2.3,MacIntel,60.0024001,,,,,,,,,,,0.536,1,,,,,,,,,,,,,,m,1,0.536,,,,,,,,0.799978299,-0.489236111,0,0,0,,0,118,118,45,1,MONKEY,LB,old,m,./images/MONKEYLB.png,,,,,,,,,,,,,,,,,,,,,
,,,,,,,,,,,,,,,,,200086,19,2022-01-28_23h08.54.027,lexical_decision_task_DD_L6,2021.2.3,MacIntel,60.0024001,,,,,,,,,,,0.6394,1,,,,,,,,,,,,,,m,1,0.6394,,,,,,,,0.799978299,-0.489236111,0,0,0,,0,119,119,14,1,FENCE,HB,old,m,./images/FENCEHB.png,,,,,,,,,,,,,,,,,,,,,
,,,,,,,,,,,,,,,,,200086,19,2022-01-28_23h08.54.027,lexical_decision_task_DD_L6,2021.2.3,MacIntel,60.0024001,,,,,,,,,,,0.6162,1,,,,,,,,,,,,,,z,1,0.6162,,,,,,,,0.799978299,-0.489236111,0,0,0,,0,120,120,89,1,DRIEK,LB,old,z,./images/DRIEKLB.png,,,,,,,,,,,,,,,,,,,,,
,,,,,,,,,,,,,,,,,200086,19,2022-01-28_23h08.54.027,lexical_decision_task_DD_L6,2021.2.3,MacIntel,60.0024001,,,,,,,,,,,0.7042,1,,,,,,,,,,,,,,z,1,0.7042,,,,,,,,0.799978299,-0.489236111,0,0,0,,0,121,121,136,1,WERVE,HB,old,z,./images/WERVEHB.png,,,,,,,,,,,,,,,,,,,,,
,,,,,,,,,,,,,,,,,200086,19,2022-01-28_23h08.54.027,lexical_decision_task_DD_L6,2021.2.3,MacIntel,60.0024001,,,,,,,,,,,0.6227,1,,,,,,,,,,,,,,z,1,0.6227,,,,,,,,0.799978299,-0.489236111,0,0,0,,0,122,122,96,1,KEAMS,C,old,z,./images/KEAMS.png,,,,,,,,,,,,,,,,,,,,,
,,,,,,,,,,,,,,,,,200086,19,2022-01-28_23h08.54.027,lexical_decision_task_DD_L6,2021.2.3,MacIntel,60.0024001,,,,,,,,,,,0.6841,1,,,,,,,,,,,,,,z,1,0.6841,,,,,,,,0.799978299,-0.489236111,0,0,0,,0,123,123,122,1,BLOOT,LB,old,z,./images/BLOOTLB.png,,,,,,,,,,,,,,,,,,,,,
,,,,,,,,,,,,,,,,,200086,19,2022-01-28_23h08.54.027,lexical_decision_task_DD_L6,2021.2.3,MacIntel,60.0024001,,,,,,,,,,,0.6286,1,,,,,,,,,,,,,,z,1,0.6286,,,,,,,,0.799978299,-0.489236111,0,0,0,,0,124,124,98,1,BAMPS,LB,old,z,./images/BAMPSLB.png,,,,,,,,,,,,,,,,,,,,,
,,,,,,,,,,,,,,,,,200086,19,2022-01-28_23h08.54.027,lexical_decision_task_DD_L6,2021.2.3,MacIntel,60.0024001,,,,,,,,,,,1.0831,1,,,,,,,,,,,,,,z,1,1.0831,,,,,,,,0.799978299,-0.489236111,0,0,0,space,0,125,125,133,1,POWDY,HB,old,z,./images/POWDYHB.png,3.8975,,,,,,,,,,,,,,,,,,,,
,,,,,,,,,,,,,,,,,200086,19,2022-01-28_23h08.54.027,lexical_decision_task_DD_L6,2021.2.3,MacIntel,60.0024001,,,,,,,,,,,0.5188,1,,,,,,,,,,,,,,m,1,0.5188,,,,,,,,0.799978299,-0.489236111,0,0,0,,0,126,126,19,1,DONKEY,C,old,m,./images/DONKEY.png,,,,,,,,,,,,,,,,,,,,,
,,,,,,,,,,,,,,,,,200086,19,2022-01-28_23h08.54.027,lexical_decision_task_DD_L6,2021.2.3,MacIntel,60.0024001,,,,,,,,,,,0.5538,1,,,,,,,,,,,,,,m,1,0.5538,,,,,,,,0.799978299,-0.489236111,0,0,0,,0,127,127,66,1,STATUE,LB,old,m,./images/STATUELB.png,,,,,,,,,,,,,,,,,,,,,
,,,,,,,,,,,,,,,,,200086,19,2022-01-28_23h08.54.027,lexical_decision_task_DD_L6,2021.2.3,MacIntel,60.0024001,,,,,,,,,,,0.5613,1,,,,,,,,,,,,,,z,1,0.5613,,,,,,,,0.799978299,-0.489236111,0,0,0,,0,128,128,165,1,TROWN,C,old,z,./images/TROWN.png,,,,,,,,,,,,,,,,,,,,,
,,,,,,,,,,,,,,,,,200086,19,2022-01-28_23h08.54.027,lexical_decision_task_DD_L6,2021.2.3,MacIntel,60.0024001,,,,,,,,,,,0.6091,1,,,,,,,,,,,,,,m,1,0.6091,,,,,,,,0.799978299,-0.489236111,0,0,0,,0,129,129,33,1,SAUNA,LB,old,m,./images/SAUNALB.png,,,,,,,,,,,,,,,,,,,,,
,,,,,,,,,,,,,,,,,200086,19,2022-01-28_23h08.54.027,lexical_decision_task_DD_L6,2021.2.3,MacIntel,60.0024001,,,,,,,,,,,0.5489,1,,,,,,,,,,,,,,z,1,0.5489,,,,,,,,0.799978299,-0.489236111,0,0,0,,0,130,130,99,1,BACKY,C,old,z,./images/BACKY.png,,,,,,,,,,,,,,,,,,,,,
,,,,,,,,,,,,,,,,,200086,19,2022-01-28_23h08.54.027,lexical_decision_task_DD_L6,2021.2.3,MacIntel,60.0024001,,,,,,,,,,,0.5035,1,,,,,,,,,,,,,,m,1,0.5035,,,,,,,,0.799978299,-0.489236111,0,0,0,,0,131,131,54,1,CHERRY,LB,old,m,./images/CHERRYLB.png,,,,,,,,,,,,,,,,,,,,,
,,,,,,,,,,,,,,,,,200086,19,2022-01-28_23h08.54.027,lexical_decision_task_DD_L6,2021.2.3,MacIntel,60.0024001,,,,,,,,,,,0.5578,0,,,,,,,,,,,,,,z,0,0.5578,,,,,,,,0.799978299,-0.489236111,0,0,0,,0,132,132,29,1,PISTOL,HB,old,m,./images/PISTOLHB.png,,,,,,,,,,,,,,,,,,,,,
,,,,,,,,,,,,,,,,,200086,19,2022-01-28_23h08.54.027,lexical_decision_task_DD_L6,2021.2.3,MacIntel,60.0024001,,,,,,,,,,,0.6639,1,,,,,,,,,,,,,,z,1,0.6639,,,,,,,,0.799978299,-0.489236111,0,0,0,,0,133,133,92,1,PAIMS,LB,old,z,./images/PAIMSLB.png,,,,,,,,,,,,,,,,,,,,,
,,,,,,,,,,,,,,,,,200086,19,2022-01-28_23h08.54.027,lexical_decision_task_DD_L6,2021.2.3,MacIntel,60.0024001,,,,,,,,,,,0.4926,1,,,,,,,,,,,,,,z,1,0.4926,,,,,,,,0.799978299,-0.489236111,0,0,0,,0,134,134,156,1,HIXES,C,old,z,./images/HIXES.png,,,,,,,,,,,,,,,,,,,,,
,,,,,,,,,,,,,,,,,200086,19,2022-01-28_23h08.54.027,lexical_decision_task_DD_L6,2021.2.3,MacIntel,60.0024001,,,,,,,,,,,0.514,1,,,,,,,,,,,,,,z,1,0.514,,,,,,,,0.799978299,-0.489236111,0,0,0,,0,135,135,110,1,CRUNK,LB,old,z,./images/CRUNKLB.png,,,,,,,,,,,,,,,,,,,,,
,,,,,,,,,,,,,,,,,200086,19,2022-01-28_23h08.54.027,lexical_decision_task_DD_L6,2021.2.3,MacIntel,60.0024001,,,,,,,,,,,0.4851,1,,,,,,,,,,,,,,m,1,0.4851,,,,,,,,0.799978299,-0.489236111,0,0,0,,0,136,136,42,1,CHAIN,LB,old,m,./images/CHAINLB.png,,,,,,,,,,,,,,,,,,,,,
,,,,,,,,,,,,,,,,,200086,19,2022-01-28_23h08.54.027,lexical_decision_task_DD_L6,2021.2.3,MacIntel,60.0024001,,,,,,,,,,,0.4957,0,,,,,,,,,,,,,,z,0,0.4957,,,,,,,,0.799978299,-0.489236111,0,0,0,,0,137,137,18,1,PARCEL,LB,old,m,./images/PARCELLB.png,,,,,,,,,,,,,,,,,,,,,
,,,,,,,,,,,,,,,,,200086,19,2022-01-28_23h08.54.027,lexical_decision_task_DD_L6,2021.2.3,MacIntel,60.0024001,,,,,,,,,,,0.5018,1,,,,,,,,,,,,,,m,1,0.5018,,,,,,,,0.799978299,-0.489236111,0,0,0,,0,138,138,75,1,HAMMER,LB,old,m,./images/HAMMERLB.png,,,,,,,,,,,,,,,,,,,,,
,,,,,,,,,,,,,,,,,200086,19,2022-01-28_23h08.54.027,lexical_decision_task_DD_L6,2021.2.3,MacIntel,60.0024001,,,,,,,,,,,0.8371,0,,,,,,,,,,,,,,z,0,0.8371,,,,,,,,0.799978299,-0.489236111,0,0,0,,0,139,139,74,1,JUMPER,HB,old,m,./images/JUMPERHB.png,,,,,,,,,,,,,,,,,,,,,
,,,,,,,,,,,,,,,,,200086,19,2022-01-28_23h08.54.027,lexical_decision_task_DD_L6,2021.2.3,MacIntel,60.0024001,,,,,,,,,,,0.5544,1,,,,,,,,,,,,,,m,1,0.5544,,,,,,,,0.799978299,-0.489236111,0,0,0,,0,140,140,7,1,WAGON,C,old,m,./images/WAGON.png,,,,,,,,,,,,,,,,,,,,,
,,,,,,,,,,,,,,,,,200086,19,2022-01-28_23h08.54.027,lexical_decision_task_DD_L6,2021.2.3,MacIntel,60.0024001,,,,,,,,,,,0.543,1,,,,,,,,,,,,,,z,1,0.543,,,,,,,,0.799978299,-0.489236111,0,0,0,,0,141,141,159,1,CUDDY,C,old,z,./images/CUDDY.png,,,,,,,,,,,,,,,,,,,,,
,,,,,,,,,,,,,,,,,200086,19,2022-01-28_23h08.54.027,lexical_decision_task_DD_L6,2021.2.3,MacIntel,60.0024001,,,,,,,,,,,0.6543,1,,,,,,,,,,,,,,m,1,0.6543,,,,,,,,0.799978299,-0.489236111,0,0,0,,0,142,142,2,1,STOVE,HB,old,m,./images/STOVEHB.png,,,,,,,,,,,,,,,,,,,,,
,,,,,,,,,,,,,,,,,200086,19,2022-01-28_23h08.54.027,lexical_decision_task_DD_L6,2021.2.3,MacIntel,60.0024001,,,,,,,,,,,0.9893,1,,,,,,,,,,,,,,m,1,0.9893,,,,,,,,0.799978299,-0.489236111,0,0,0,,0,143,143,35,1,LLAMA,HB,old,m,./images/LLAMAHB.png,,,,,,,,,,,,,,,,,,,,,
,,,,,,,,,,,,,,,,,200086,19,2022-01-28_23h08.54.027,lexical_decision_task_DD_L6,2021.2.3,MacIntel,60.0024001,,,,,,,,,,,0.7807,1,,,,,,,,,,,,,,z,1,0.7807,,,,,,,,0.799978299,-0.489236111,0,0,0,,0,144,144,151,1,TINKY,HB,old,z,./images/TINKYHB.png,,,,,,,,,,,,,,,,,,,,,
,,,,,,,,,,,,,,,,,200086,19,2022-01-28_23h08.54.027,lexical_decision_task_DD_L6,2021.2.3,MacIntel,60.0024001,,,,,,,,,,,0.721,1,,,,,,,,,,,,,,z,1,0.721,,,,,,,,0.799978299,-0.489236111,0,0,0,,0,145,145,109,1,BURGE,HB,old,z,./images/BURGEHB.png,,,,,,,,,,,,,,,,,,,,,
,,,,,,,,,,,,,,,,,200086,19,2022-01-28_23h08.54.027,lexical_decision_task_DD_L6,2021.2.3,MacIntel,60.0024001,,,,,,,,,,,0.6966,1,,,,,,,,,,,,,,z,1,0.6966,,,,,,,,0.799978299,-0.489236111,0,0,0,,0,146,146,113,1,LINEW,LB,old,z,./images/LINEWLB.png,,,,,,,,,,,,,,,,,,,,,
,,,,,,,,,,,,,,,,,200086,19,2022-01-28_23h08.54.027,lexical_decision_task_DD_L6,2021.2.3,MacIntel,60.0024001,,,,,,,,,,,0.7398,1,,,,,,,,,,,,,,z,1,0.7398,,,,,,,,0.799978299,-0.489236111,0,0,0,,0,147,147,93,1,SMONE,C,old,z,./images/SMONE.png,,,,,,,,,,,,,,,,,,,,,
,,,,,,,,,,,,,,,,,200086,19,2022-01-28_23h08.54.027,lexical_decision_task_DD_L6,2021.2.3,MacIntel,60.0024001,,,,,,,,,,,0.5519,1,,,,,,,,,,,,,,z,1,0.5519,,,,,,,,0.799978299,-0.489236111,0,0,0,,0,148,148,150,1,NOOLS,C,old,z,./images/NOOLS.png,,,,,,,,,,,,,,,,,,,,,
,,,,,,,,,,,,,,,,,200086,19,2022-01-28_23h08.54.027,lexical_decision_task_DD_L6,2021.2.3,MacIntel,60.0024001,,,,,,,,,,,0.5317,1,,,,,,,,,,,,,,m,1,0.5317,,,,,,,,0.799978299,-0.489236111,0,0,0,,0,149,149,26,1,CLOUD,HB,old,m,./images/CLOUDHB.png,,,,,,,,,,,,,,,,,,,,,
,,,,,,,,,,,,,,,,,200086,19,2022-01-28_23h08.54.027,lexical_decision_task_DD_L6,2021.2.3,MacIntel,60.0024001,,,,,,,,,,,0.9144,1,,,,,,,,,,,,,,m,1,0.9144,,,,,,,,0.799978299,-0.489236111,0,0,0,,0,150,150,62,1,MAMMAL,HB,old,m,./images/MAMMALHB.png,,,,,,,,,,,,,,,,,,,,,
,,,,,,,,,,,,,,,,,200086,19,2022-01-28_23h08.54.027,lexical_decision_task_DD_L6,2021.2.3,MacIntel,60.0024001,,,,,,,,,,,0.5639,1,,,,,,,,,,,,,,z,1,0.5639,,,,,,,,0.799978299,-0.489236111,0,0,0,,0,151,151,126,1,GUELS,C,old,z,./images/GUELS.png,,,,,,,,,,,,,,,,,,,,,
,,,,,,,,,,,,,,,,,200086,19,2022-01-28_23h08.54.027,lexical_decision_task_DD_L6,2021.2.3,MacIntel,60.0024001,,,,,,,,,,,0.8154,1,,,,,,,,,,,,,,z,1,0.8154,,,,,,,,0.799978299,-0.489236111,0,0,0,,0,152,152,106,1,CLUMS,HB,old,z,./images/CLUMSHB.png,,,,,,,,,,,,,,,,,,,,,
,,,,,,,,,,,,,,,,,200086,19,2022-01-28_23h08.54.027,lexical_decision_task_DD_L6,2021.2.3,MacIntel,60.0024001,,,,,,,,,,,0.9315,1,,,,,,,,,,,,,,m,1,0.9315,,,,,,,,0.799978299,-0.489236111,0,0,0,,0,153,153,71,1,BUBBLE,HB,old,m,./images/BUBBLEHB.png,,,,,,,,,,,,,,,,,,,,,
,,,,,,,,,,,,,,,,,200086,19,2022-01-28_23h08.54.027,lexical_decision_task_DD_L6,2021.2.3,MacIntel,60.0024001,,,,,,,,,,,0.5801,1,,,,,,,,,,,,,,m,1,0.5801,,,,,,,,0.799978299,-0.489236111,0,0,0,,0,154,154,6,1,STAIN,LB,old,m,./images/STAINLB.png,,,,,,,,,,,,,,,,,,,,,
,,,,,,,,,,,,,,,,,200086,19,2022-01-28_23h08.54.027,lexical_decision_task_DD_L6,2021.2.3,MacIntel,60.0024001,,,,,,,,,,,0.559,1,,,,,,,,,,,,,,z,1,0.559,,,,,,,,0.799978299,-0.489236111,0,0,0,,0,155,155,155,1,CANGY,LB,old,z,./images/CANGYLB.png,,,,,,,,,,,,,,,,,,,,,
,,,,,,,,,,,,,,,,,200086,19,2022-01-28_23h08.54.027,lexical_decision_task_DD_L6,2021.2.3,MacIntel,60.0024001,,,,,,,,,,,0.488,1,,,,,,,,,,,,,,m,1,0.488,,,,,,,,0.799978299,-0.489236111,0,0,0,,0,156,156,22,1,CLOWN,C,old,m,./images/CLOWN.png,,,,,,,,,,,,,,,,,,,,,
,,,,,,,,,,,,,,,,,200086,19,2022-01-28_23h08.54.027,lexical_decision_task_DD_L6,2021.2.3,MacIntel,60.0024001,,,,,,,,,,,0.5413,1,,,,,,,,,,,,,,m,1,0.5413,,,,,,,,0.799978299,-0.489236111,0,0,0,,0,157,157,25,1,CHALK,C,old,m,./images/CHALK.png,,,,,,,,,,,,,,,,,,,,,
,,,,,,,,,,,,,,,,,200086,19,2022-01-28_23h08.54.027,lexical_decision_task_DD_L6,2021.2.3,MacIntel,60.0024001,,,,,,,,,,,1.0875,1,,,,,,,,,,,,,,m,1,1.0875,,,,,,,,0.799978299,-0.489236111,0,0,0,,0,158,158,53,1,POSTER,HB,old,m,./images/POSTERHB.png,,,,,,,,,,,,,,,,,,,,,
,,,,,,,,,,,,,,,,,200086,19,2022-01-28_23h08.54.027,lexical_decision_task_DD_L6,2021.2.3,MacIntel,60.0024001,,,,,,,,,,,0.6544,1,,,,,,,,,,,,,,z,1,0.6544,,,,,,,,0.799978299,-0.489236111,0,0,0,,0,159,159,163,1,GAMBA,HB,old,z,./images/GAMBAHB.png,,,,,,,,,,,,,,,,,,,,,
,,,,,,,,,,,,,,,,,200086,19,2022-01-28_23h08.54.027,lexical_decision_task_DD_L6,2021.2.3,MacIntel,60.0024001,,,,,,,,,,,0.4882,1,,,,,,,,,,,,,,m,1,0.4882,,,,,,,,0.799978299,-0.489236111,0,0,0,,0,160,160,39,1,CANDY,LB,old,m,./images/CANDYLB.png,,,,,,,,,,,,,,,,,,,,,
,,,,,,,,,,,,,,,,,200086,19,2022-01-28_23h08.54.027,lexical_decision_task_DD_L6,2021.2.3,MacIntel,60.0024001,,,,,,,,,,,0.6265,1,,,,,,,,,,,,,,m,1,0.6265,,,,,,,,0.799978299,-0.489236111,0,0,0,,0,161,161,5,1,BAMBOO,HB,old,m,./images/BAMBOOHB.png,,,,,,,,,,,,,,,,,,,,,
,,,,,,,,,,,,,,,,,200086,19,2022-01-28_23h08.54.027,lexical_decision_task_DD_L6,2021.2.3,MacIntel,60.0024001,,,,,,,,,,,0.4872,1,,,,,,,,,,,,,,m,1,0.4872,,,,,,,,0.799978299,-0.489236111,0,0,0,,0,162,162,24,1,FLESH,LB,old,m,./images/FLESHLB.png,,,,,,,,,,,,,,,,,,,,,
,,,,,,,,,,,,,,,,,200086,19,2022-01-28_23h08.54.027,lexical_decision_task_DD_L6,2021.2.3,MacIntel,60.0024001,,,,,,,,,,,0.8513,1,,,,,,,,,,,,,,z,1,0.8513,,,,,,,,0.799978299,-0.489236111,0,0,0,,0,163,163,91,1,SHENS,HB,old,z,./images/SHENSHB.png,,,,,,,,,,,,,,,,,,,,,
,,,,,,,,,,,,,,,,,200086,19,2022-01-28_23h08.54.027,lexical_decision_task_DD_L6,2021.2.3,MacIntel,60.0024001,,,,,,,,,,,0.7432,1,,,,,,,,,,,,,,z,1,0.7432,,,,,,,,0.799978299,-0.489236111,0,0,0,,0,164,164,88,1,GLUSH,HB,old,z,./images/GLUSHHB.png,,,,,,,,,,,,,,,,,,,,,
,,,,,,,,,,,,,,,,,200086,19,2022-01-28_23h08.54.027,lexical_decision_task_DD_L6,2021.2.3,MacIntel,60.0024001,,,,,,,,,,,0.7466,1,,,,,,,,,,,,,,z,1,0.7466,,,,,,,,0.799978299,-0.489236111,0,0,0,,0,165,165,85,1,CHULK,HB,old,z,./images/CHULKHB.png,,,,,,,,,,,,,,,,,,,,,
,,,,,,,,,,,,,,,,,200086,19,2022-01-28_23h08.54.027,lexical_decision_task_DD_L6,2021.2.3,MacIntel,60.0024001,,,,,,,,,,,0.7967,1,,,,,,,,,,,,,,m,1,0.7967,,,,,,,,0.799978299,-0.489236111,0,0,0,,0,166,166,17,1,PARADE,HB,old,m,./images/PARADEHB.png,,,,,,,,,,,,,,,,,,,,,
,,,,,,,,,,,,,,,,,200086,19,2022-01-28_23h08.54.027,lexical_decision_task_DD_L6,2021.2.3,MacIntel,60.0024001,,,,,,,,,,,0.5248,1,,,,,,,,,,,,,,m,1,0.5248,,,,,,,,0.799978299,-0.489236111,0,0,0,,0,167,167,52,1,DESERT,C,old,m,./images/DESERT.png,,,,,,,,,,,,,,,,,,,,,
space,11.6746,0.799978299,-0.489236111,0,0,0,,,,,,1,test,"In the next phase you will be presented with the words from the the first phase. Your job is to decide whether you remember seeing the word or not. If you remember seeing the word press ""old"" or type ""m"". If you do not remember seeing the word press ""new"" or type ""z"". Please press the space bar or click on continue to begin. ",,,200086,19,2022-01-28_23h08.54.027,lexical_decision_task_DD_L6,2021.2.3,MacIntel,60.0024001,,,,,,,,,,,,,,,,,,,,,,,,,,,,,,,,,,,,,,,,,,,,,,,,,,,,,0,0,0,0,1,,,,,,,,,,,,,,,
space,6.3608,0.506610243,-0.472934028,0,0,0,,,,,,1,test,"In the next phase you will be presented with the words from the the first phase. Your job is to decide whether you remember seeing the word or not. If you remember seeing the word press ""old"" or type ""m"". If you do not remember seeing the word press ""new"" or type ""z"". Please press the space bar or click on continue to begin. ",,,200086,19,2022-01-28_23h08.54.027,lexical_decision_task_DD_L6,2021.2.3,MacIntel,60.0024001,,,,,,,,,,,,,,,,,,,,,,,,,,,,,,,,,,,,,,,,,,,,,,,,,,,,,1,0,1,0,1,,,,,,,,,,,,,,,
space,0.8953,0.506610243,-0.472934028,0,0,0,,,,,,1,test,"In the next phase you will be presented with the words from the the first phase. Your job is to decide whether you remember seeing the word or not. If you remember seeing the word press ""old"" or type ""m"". If you do not remember seeing the word press ""new"" or type ""z"". Please press the space bar or click on continue to begin. ",,,200086,19,2022-01-28_23h08.54.027,lexical_decision_task_DD_L6,2021.2.3,MacIntel,60.0024001,,,,,,,,,,,,,,,,,,,,,,,,,,,,,,,,,,,,,,,,,,,,,,,,,,,,,2,0,2,0,1,,,,,,,,,,,,,,,
space,1.1143,0.277799479,-0.231736111,0,0,0,,,,,,1,test,"In the next phase you will be presented with the words from the the first phase. Your job is to decide whether you remember seeing the word or not. If you remember seeing the word press ""old"" or type ""m"". If you do not remember seeing the word press ""new"" or type ""z"". Please press the space bar or click on continue to begin. ",,,200086,19,2022-01-28_23h08.54.027,lexical_decision_task_DD_L6,2021.2.3,MacIntel,60.0024001,,,,,,,,,,,,,,,,,,,,,,,,,,,,,,,,,,,,,,,,,,,,,,,,,,,,,3,0,3,0,1,,,,,,,,,,,,,,,
space,0.418,0.277799479,-0.231736111,0,0,0,,,,,,1,test,"In the next phase you will be presented with the words from the the first phase. Your job is to decide whether you remember seeing the word or not. If you remember seeing the word press ""old"" or type ""m"". If you do not remember seeing the word press ""new"" or type ""z"". Please press the space bar or click on continue to begin. ",,,200086,19,2022-01-28_23h08.54.027,lexical_decision_task_DD_L6,2021.2.3,MacIntel,60.0024001,,,,,,,,,,,,,,,,,,,,,,,,,,,,,,,,,,,,,,,,,,,,,,,,,,,,,4,0,4,0,1,,,,,,,,,,,,,,,
,,,,,,,,,,,,,,,,,200086,19,2022-01-28_23h08.54.027,lexical_decision_task_DD_L6,2021.2.3,MacIntel,60.0024001,,,,,,,,,,,2.2422,0,,,,,,,,,,,,,,,,,,,,,,,,0.277799479,-0.231736111,0,0,0,,,,,,,CHERRY,LB,m,y,./images/CHERRYLB.png,,,,,,,z,0,2.2422,,,,,,,,0,0,0,54,1
,,,,,,,,,,,,,,,,,200086,19,2022-01-28_23h08.54.027,lexical_decision_task_DD_L6,2021.2.3,MacIntel,60.0024001,,,,,,,,,,,1.0625,1,,,,,,,,,,,,,,,,,,,,,,,,0.277799479,-0.231736111,0,0,0,,,,,,,LAGOON,HB,m,y,./images/LAGOONHB.png,,,,,,,m,1,1.0625,,,,,,,,0,1,1,47,1
,,,,,,,,,,,,,,,,,200086,19,2022-01-28_23h08.54.027,lexical_decision_task_DD_L6,2021.2.3,MacIntel,60.0024001,,,,,,,,,,,1.1986,0,,,,,,,,,,,,,,,,,,,,,,,,0.799978299,-0.284769965,0,0,0,,,,,,,LADDER,HB,z,y,./images/LADDERHB.png,,,,,,,m,0,1.1986,,,,,,,,0,2,2,122,1
,,,,,,,,,,,,,,,,,200086,19,2022-01-28_23h08.54.027,lexical_decision_task_DD_L6,2021.2.3,MacIntel,60.0024001,,,,,,,,,,,0.6673,1,,,,,,,,,,,,,,,,,,,,,,,,0.799978299,-0.284769965,0,0,0,,,,,,,TOWEL,C,m,y,./images/TOWEL.png,,,,,,,m,1,0.6673,,,,,,,,0,3,3,1,1
,,,,,,,,,,,,,,,,,200086,19,2022-01-28_23h08.54.027,lexical_decision_task_DD_L6,2021.2.3,MacIntel,60.0024001,,,,,,,,,,,1.0829,1,,,,,,,,,,,,,,,,,,,,,,,,0.799978299,-0.284769965,0,0,0,,,,,,,ENGINE,HB,m,y,./images/ENGINEHB.png,,,,,,,m,1,1.0829,,,,,,,,0,4,4,38,1
,,,,,,,,,,,,,,,,,200086,19,2022-01-28_23h08.54.027,lexical_decision_task_DD_L6,2021.2.3,MacIntel,60.0024001,,,,,,,,,,,1.4968,0,,,,,,,,,,,,,,,,,,,,,,,,0.799978299,-0.284769965,0,0,0,,,,,,,GRANNY,HB,m,y,./images/GRANNYHB.png,,,,,,,z,0,1.4968,,,,,,,,0,5,5,20,1
,,,,,,,,,,,,,,,,,200086,19,2022-01-28_23h08.54.027,lexical_decision_task_DD_L6,2021.2.3,MacIntel,60.0024001,,,,,,,,,,,1.4564,1,,,,,,,,,,,,,,,,,,,,,,,,0.799978299,-0.284769965,0,0,0,,,,,,,MUSCLE,C,z,y,./images/MUSCLE.png,,,,,,,z,1,1.4564,,,,,,,,0,6,6,88,1
,,,,,,,,,,,,,,,,,200086,19,2022-01-28_23h08.54.027,lexical_decision_task_DD_L6,2021.2.3,MacIntel,60.0024001,,,,,,,,,,,1.1167,1,,,,,,,,,,,,,,,,,,,,,,,,0.799978299,-0.284769965,0,0,0,,,,,,,MIRROR,LB,z,y,./images/MIRRORLB.png,,,,,,,z,1,1.1167,,,,,,,,0,7,7,147,1
,,,,,,,,,,,,,,,,,200086,19,2022-01-28_23h08.54.027,lexical_decision_task_DD_L6,2021.2.3,MacIntel,60.0024001,,,,,,,,,,,0.8643,1,,,,,,,,,,,,,,,,,,,,,,,,0.799978299,-0.284769965,0,0,0,,,,,,,STREAM,HB,m,y,./images/STREAMHB.png,,,,,,,m,1,0.8643,,,,,,,,0,8,8,41,1
,,,,,,,,,,,,,,,,,200086,19,2022-01-28_23h08.54.027,lexical_decision_task_DD_L6,2021.2.3,MacIntel,60.0024001,,,,,,,,,,,0.7382,1,,,,,,,,,,,,,,,,,,,,,,,,0.799978299,-0.284769965,0,0,0,,,,,,,CANDY,LB,m,y,./images/CANDYLB.png,,,,,,,m,1,0.7382,,,,,,,,0,9,9,39,1
,,,,,,,,,,,,,,,,,200086,19,2022-01-28_23h08.54.027,lexical_decision_task_DD_L6,2021.2.3,MacIntel,60.0024001,,,,,,,,,,,0.5817,1,,,,,,,,,,,,,,,,,,,,,,,,0.799978299,-0.284769965,0,0,0,,,,,,,DRILL,LB,m,y,./images/DRILLLB.png,,,,,,,m,1,0.5817,,,,,,,,0,10,10,81,1
,,,,,,,,,,,,,,,,,200086,19,2022-01-28_23h08.54.027,lexical_decision_task_DD_L6,2021.2.3,MacIntel,60.0024001,,,,,,,,,,,1.1992,1,,,,,,,,,,,,,,,,,,,,,,,,0.799978299,-0.284769965,0,0,0,,,,,,,STATUE,LB,m,y,./images/STATUELB.png,,,,,,,m,1,1.1992,,,,,,,,0,11,11,66,1
,,,,,,,,,,,,,,,,,200086,19,2022-01-28_23h08.54.027,lexical_decision_task_DD_L6,2021.2.3,MacIntel,60.0024001,,,,,,,,,,,0.9322,1,,,,,,,,,,,,,,,,,,,,,,,,0.799978299,-0.284769965,0,0,0,,,,,,,CRUST,C,z,y,./images/CRUST.png,,,,,,,z,1,0.9322,,,,,,,,0,12,12,163,1
,,,,,,,,,,,,,,,,,200086,19,2022-01-28_23h08.54.027,lexical_decision_task_DD_L6,2021.2.3,MacIntel,60.0024001,,,,,,,,,,,0.9335,1,,,,,,,,,,,,,,,,,,,,,,,,0.799978299,-0.284769965,0,0,0,,,,,,,CHAIN,LB,m,y,./images/CHAINLB.png,,,,,,,m,1,0.9335,,,,,,,,0,13,13,42,1
,,,,,,,,,,,,,,,,,200086,19,2022-01-28_23h08.54.027,lexical_decision_task_DD_L6,2021.2.3,MacIntel,60.0024001,,,,,,,,,,,0.9384,1,,,,,,,,,,,,,,,,,,,,,,,,0.799978299,-0.284769965,0,0,0,,,,,,,COLLAR,LB,m,y,./images/COLLARLB.png,,,,,,,m,1,0.9384,,,,,,,,0,14,14,15,1
,,,,,,,,,,,,,,,,,200086,19,2022-01-28_23h08.54.027,lexical_decision_task_DD_L6,2021.2.3,MacIntel,60.0024001,,,,,,,,,,,0.8914,1,,,,,,,,,,,,,,,,,,,,,,,,0.799978299,-0.284769965,0,0,0,,,,,,,TULIP,HB,z,y,./images/TULIPHB.png,,,,,,,z,1,0.8914,,,,,,,,0,15,15,92,1
,,,,,,,,,,,,,,,,,200086,19,2022-01-28_23h08.54.027,lexical_decision_task_DD_L6,2021.2.3,MacIntel,60.0024001,,,,,,,,,,,1.1496,1,,,,,,,,,,,,,,,,,,,,,,,,0.799978299,-0.284769965,0,0,0,,,,,,,FINGER,LB,z,y,./images/FINGERLB.png,,,,,,,z,1,1.1496,,,,,,,,0,16,16,87,1
,,,,,,,,,,,,,,,,,200086,19,2022-01-28_23h08.54.027,lexical_decision_task_DD_L6,2021.2.3,MacIntel,60.0024001,,,,,,,,,,,0.765,1,,,,,,,,,,,,,,,,,,,,,,,,0.799978299,-0.284769965,0,0,0,,,,,,,DIVER,LB,m,y,./images/DIVERLB.png,,,,,,,m,1,0.765,,,,,,,,0,17,17,9,1
,,,,,,,,,,,,,,,,,200086,19,2022-01-28_23h08.54.027,lexical_decision_task_DD_L6,2021.2.3,MacIntel,60.0024001,,,,,,,,,,,0.931,1,,,,,,,,,,,,,,,,,,,,,,,,0.799978299,-0.284769965,0,0,0,,,,,,,FALCON,C,z,y,./images/FALCON.png,,,,,,,z,1,0.931,,,,,,,,0,18,18,112,1
,,,,,,,,,,,,,,,,,200086,19,2022-01-28_23h08.54.027,lexical_decision_task_DD_L6,2021.2.3,MacIntel,60.0024001,,,,,,,,,,,1.2885,1,,,,,,,,,,,,,,,,,,,,,,,,0.799978299,-0.284769965,0,0,0,,,,,,,BASKET,HB,m,y,./images/BASKETHB.png,,,,,,,m,1,1.2885,,,,,,,,0,19,19,44,1
,,,,,,,,,,,,,,,,,200086,19,2022-01-28_23h08.54.027,lexical_decision_task_DD_L6,2021.2.3,MacIntel,60.0024001,,,,,,,,,,,1.0223,0,,,,,,,,,,,,,,,,,,,,,,,,0.799978299,-0.284769965,0,0,0,,,,,,,MALLET,HB,z,y,./images/MALLETHB.png,,,,,,,m,0,1.0223,,,,,,,,0,20,20,134,1
,,,,,,,,,,,,,,,,,200086,19,2022-01-28_23h08.54.027,lexical_decision_task_DD_L6,2021.2.3,MacIntel,60.0024001,,,,,,,,,,,0.8645,1,,,,,,,,,,,,,,,,,,,,,,,,0.799978299,-0.284769965,0,0,0,,,,,,,MELON,C,z,y,./images/MELON.png,,,,,,,z,1,0.8645,,,,,,,,0,21,21,106,1
,,,,,,,,,,,,,,,,,200086,19,2022-01-28_23h08.54.027,lexical_decision_task_DD_L6,2021.2.3,MacIntel,60.0024001,,,,,,,,,,,1.2263,1,,,,,,,,,,,,,,,,,,,,,,,,0.799978299,-0.284769965,0,0,0,,,,,,,GRAPE,C,m,y,./images/GRAPE.png,,,,,,,m,1,1.2263,,,,,,,,0,22,22,16,1
,,,,,,,,,,,,,,,,,200086,19,2022-01-28_23h08.54.027,lexical_decision_task_DD_L6,2021.2.3,MacIntel,60.0024001,,,,,,,,,,,1.005,1,,,,,,,,,,,,,,,,,,,,,,,,0.799978299,-0.284769965,0,0,0,,,,,,,CLOUD,HB,m,y,./images/CLOUDHB.png,,,,,,,m,1,1.005,,,,,,,,0,23,23,26,1
,,,,,,,,,,,,,,,,,200086,19,2022-01-28_23h08.54.027,lexical_decision_task_DD_L6,2021.2.3,MacIntel,60.0024001,,,,,,,,,,,0.7487,1,,,,,,,,,,,,,,,,,,,,,,,,0.799978299,-0.284769965,0,0,0,,,,,,,BLOKE,LB,m,y,./images/BLOKELB.png,,,,,,,m,1,0.7487,,,,,,,,0,24,24,12,1
,,,,,,,,,,,,,,,,,200086,19,2022-01-28_23h08.54.027,lexical_decision_task_DD_L6,2021.2.3,MacIntel,60.0024001,,,,,,,,,,,1.0753,0,,,,,,,,,,,,,,,,,,,,,,,,0.799978299,-0.284769965,0,0,0,,,,,,,SQUARE,LB,z,y,./images/SQUARELB.png,,,,,,,m,0,1.0753,,,,,,,,0,25,25,90,1
,,,,,,,,,,,,,,,,,200086,19,2022-01-28_23h08.54.027,lexical_decision_task_DD_L6,2021.2.3,MacIntel,60.0024001,,,,,,,,,,,1.399,1,,,,,,,,,,,,,,,,,,,,,,,,0.799978299,-0.284769965,0,0,0,,,,,,,FOLDER,LB,z,y,./images/FOLDERLB.png,,,,,,,z,1,1.399,,,,,,,,0,26,26,126,1
,,,,,,,,,,,,,,,,,200086,19,2022-01-28_23h08.54.027,lexical_decision_task_DD_L6,2021.2.3,MacIntel,60.0024001,,,,,,,,,,,0.7591,1,,,,,,,,,,,,,,,,,,,,,,,,0.799978299,-0.284769965,0,0,0,,,,,,,WALNUT,LB,m,y,./images/WALNUTLB.png,,,,,,,m,1,0.7591,,,,,,,,0,27,27,0,1
,,,,,,,,,,,,,,,,,200086,19,2022-01-28_23h08.54.027,lexical_decision_task_DD_L6,2021.2.3,MacIntel,60.0024001,,,,,,,,,,,1.4985,0,,,,,,,,,,,,,,,,,,,,,,,,0.799978299,-0.284769965,0,0,0,,,,,,,FLASK,LB,m,y,./images/FLASKLB.png,,,,,,,z,0,1.4985,,,,,,,,0,28,28,72,1
,,,,,,,,,,,,,,,,,200086,19,2022-01-28_23h08.54.027,lexical_decision_task_DD_L6,2021.2.3,MacIntel,60.0024001,,,,,,,,,,,1.5647,0,,,,,,,,,,,,,,,,,,,,,,,,0.799978299,-0.284769965,0,0,0,,,,,,,PISTOL,HB,m,y,./images/PISTOLHB.png,,,,,,,z,0,1.5647,,,,,,,,0,29,29,29,1
,,,,,,,,,,,,,,,,,200086,19,2022-01-28_23h08.54.027,lexical_decision_task_DD_L6,2021.2.3,MacIntel,60.0024001,,,,,,,,,,,0.831,1,,,,,,,,,,,,,,,,,,,,,,,,0.799978299,-0.284769965,0,0,0,,,,,,,SHIELD,LB,m,y,./images/SHIELDLB.png,,,,,,,m,1,0.831,,,,,,,,0,30,30,48,1
,,,,,,,,,,,,,,,,,200086,19,2022-01-28_23h08.54.027,lexical_decision_task_DD_L6,2021.2.3,MacIntel,60.0024001,,,,,,,,,,,0.9143,1,,,,,,,,,,,,,,,,,,,,,,,,0.799978299,-0.284769965,0,0,0,,,,,,,MUMMY,C,m,y,./images/MUMMY.png,,,,,,,m,1,0.9143,,,,,,,,0,31,31,46,1
,,,,,,,,,,,,,,,,,200086,19,2022-01-28_23h08.54.027,lexical_decision_task_DD_L6,2021.2.3,MacIntel,60.0024001,,,,,,,,,,,0.7087,1,,,,,,,,,,,,,,,,,,,,,,,,0.799978299,-0.284769965,0,0,0,,,,,,,BONNET,HB,z,y,./images/BONNETHB.png,,,,,,,z,1,0.7087,,,,,,,,0,32,32,95,1
,,,,,,,,,,,,,,,,,200086,19,2022-01-28_23h08.54.027,lexical_decision_task_DD_L6,2021.2.3,MacIntel,60.0024001,,,,,,,,,,,0.7144,1,,,,,,,,,,,,,,,,,,,,,,,,0.799978299,-0.284769965,0,0,0,,,,,,,BOILER,LB,m,y,./images/BOILERLB.png,,,,,,,m,1,0.7144,,,,,,,,0,33,33,36,1
,,,,,,,,,,,,,,,,,200086,19,2022-01-28_23h08.54.027,lexical_decision_task_DD_L6,2021.2.3,MacIntel,60.0024001,,,,,,,,,,,0.7651,1,,,,,,,,,,,,,,,,,,,,,,,,0.799978299,-0.284769965,0,0,0,,,,,,,ATTIC,LB,z,y,./images/ATTICLB.png,,,,,,,z,1,0.7651,,,,,,,,0,34,34,111,1
,,,,,,,,,,,,,,,,,200086,19,2022-01-28_23h08.54.027,lexical_decision_task_DD_L6,2021.2.3,MacIntel,60.0024001,,,,,,,,,,,0.6754,1,,,,,,,,,,,,,,,,,,,,,,,,0.799978299,-0.284769965,0,0,0,,,,,,,HAMMER,LB,m,y,./images/HAMMERLB.png,,,,,,,m,1,0.6754,,,,,,,,0,35,35,75,1
,,,,,,,,,,,,,,,,,200086,19,2022-01-28_23h08.54.027,lexical_decision_task_DD_L6,2021.2.3,MacIntel,60.0024001,,,,,,,,,,,0.7484,0,,,,,,,,,,,,,,,,,,,,,,,,0.799978299,-0.284769965,0,0,0,,,,,,,SHORE,LB,z,y,./images/SHORELB.png,,,,,,,m,0,0.7484,,,,,,,,0,36,36,96,1
,,,,,,,,,,,,,,,,,200086,19,2022-01-28_23h08.54.027,lexical_decision_task_DD_L6,2021.2.3,MacIntel,60.0024001,,,,,,,,,,,0.7969,0,,,,,,,,,,,,,,,,,,,,,,,,0.799978299,-0.284769965,0,0,0,,,,,,,BERRY,HB,z,y,./images/BERRYHB.png,,,,,,,m,0,0.7969,,,,,,,,0,37,37,131,1
,,,,,,,,,,,,,,,,,200086,19,2022-01-28_23h08.54.027,lexical_decision_task_DD_L6,2021.2.3,MacIntel,60.0024001,,,,,,,,,,,0.6963,1,,,,,,,,,,,,,,,,,,,,,,,,0.799978299,-0.284769965,0,0,0,,,,,,,PARCEL,LB,m,y,./images/PARCELLB.png,,,,,,,m,1,0.6963,,,,,,,,0,38,38,18,1
,,,,,,,,,,,,,,,,,200086,19,2022-01-28_23h08.54.027,lexical_decision_task_DD_L6,2021.2.3,MacIntel,60.0024001,,,,,,,,,,,0.9813,1,,,,,,,,,,,,,,,,,,,,,,,,0.799978299,-0.284769965,0,0,0,,,,,,,MONKEY,LB,m,y,./images/MONKEYLB.png,,,,,,,m,1,0.9813,,,,,,,,0,39,39,45,1
,,,,,,,,,,,,,,,,,200086,19,2022-01-28_23h08.54.027,lexical_decision_task_DD_L6,2021.2.3,MacIntel,60.0024001,,,,,,,,,,,0.8327,1,,,,,,,,,,,,,,,,,,,,,,,,0.799978299,-0.284769965,0,0,0,,,,,,,BANANA,C,m,y,./images/BANANA.png,,,,,,,m,1,0.8327,,,,,,,,0,40,40,70,1
,,,,,,,,,,,,,,,,,200086,19,2022-01-28_23h08.54.027,lexical_decision_task_DD_L6,2021.2.3,MacIntel,60.0024001,,,,,,,,,,,0.5895,0,,,,,,,,,,,,,,,,,,,,,,,,0.799978299,-0.284769965,0,0,0,space,,,,,,BANNER,C,z,y,./images/BANNER.png,3.9497,,,,,,m,0,0.5895,,,,,,,,0,41,41,136,1
,,,,,,,,,,,,,,,,,200086,19,2022-01-28_23h08.54.027,lexical_decision_task_DD_L6,2021.2.3,MacIntel,60.0024001,,,,,,,,,,,0.6317,1,,,,,,,,,,,,,,,,,,,,,,,,0.799978299,-0.284769965,0,0,0,,,,,,,DONKEY,C,m,y,./images/DONKEY.png,,,,,,,m,1,0.6317,,,,,,,,0,42,42,19,1
,,,,,,,,,,,,,,,,,200086,19,2022-01-28_23h08.54.027,lexical_decision_task_DD_L6,2021.2.3,MacIntel,60.0024001,,,,,,,,,,,0.6082,1,,,,,,,,,,,,,,,,,,,,,,,,0.799978299,-0.284769965,0,0,0,,,,,,,PICKLE,HB,z,y,./images/PICKLEHB.png,,,,,,,z,1,0.6082,,,,,,,,0,43,43,98,1
,,,,,,,,,,,,,,,,,200086,19,2022-01-28_23h08.54.027,lexical_decision_task_DD_L6,2021.2.3,MacIntel,60.0024001,,,,,,,,,,,0.8076,1,,,,,,,,,,,,,,,,,,,,,,,,0.799978299,-0.284769965,0,0,0,,,,,,,WRIST,C,z,y,./images/WRIST.png,,,,,,,z,1,0.8076,,,,,,,,0,44,44,109,1
,,,,,,,,,,,,,,,,,200086,19,2022-01-28_23h08.54.027,lexical_decision_task_DD_L6,2021.2.3,MacIntel,60.0024001,,,,,,,,,,,0.6359,1,,,,,,,,,,,,,,,,,,,,,,,,0.799978299,-0.284769965,0,0,0,,,,,,,POKER,C,m,y,./images/POKER.png,,,,,,,m,1,0.6359,,,,,,,,0,45,45,67,1
,,,,,,,,,,,,,,,,,200086,19,2022-01-28_23h08.54.027,lexical_decision_task_DD_L6,2021.2.3,MacIntel,60.0024001,,,,,,,,,,,1.0132,0,,,,,,,,,,,,,,,,,,,,,,,,0.799978299,-0.284769965,0,0,0,,,,,,,RHINO,LB,z,y,./images/RHINOLB.png,,,,,,,m,0,1.0132,,,,,,,,0,46,46,93,1
,,,,,,,,,,,,,,,,,200086,19,2022-01-28_23h08.54.027,lexical_decision_task_DD_L6,2021.2.3,MacIntel,60.0024001,,,,,,,,,,,0.597,1,,,,,,,,,,,,,,,,,,,,,,,,0.799978299,-0.284769965,0,0,0,,,,,,,CHALK,C,m,y,./images/CHALK.png,,,,,,,m,1,0.597,,,,,,,,0,47,47,25,1
,,,,,,,,,,,,,,,,,200086,19,2022-01-28_23h08.54.027,lexical_decision_task_DD_L6,2021.2.3,MacIntel,60.0024001,,,,,,,,,,,0.5394,0,,,,,,,,,,,,,,,,,,,,,,,,0.799978299,-0.284769965,0,0,0,,,,,,,LITTER,LB,z,y,./images/LITTERLB.png,,,,,,,m,0,0.5394,,,,,,,,0,48,48,162,1
,,,,,,,,,,,,,,,,,200086,19,2022-01-28_23h08.54.027,lexical_decision_task_DD_L6,2021.2.3,MacIntel,60.0024001,,,,,,,,,,,0.9646,0,,,,,,,,,,,,,,,,,,,,,,,,0.799978299,-0.284769965,0,0,0,,,,,,,CRATER,LB,m,y,./images/CRATERLB.png,,,,,,,z,0,0.9646,,,,,,,,0,49,49,3,1
,,,,,,,,,,,,,,,,,200086,19,2022-01-28_23h08.54.027,lexical_decision_task_DD_L6,2021.2.3,MacIntel,60.0024001,,,,,,,,,,,0.9244,1,,,,,,,,,,,,,,,,,,,,,,,,0.799978299,-0.284769965,0,0,0,,,,,,,SNACK,C,z,y,./images/SNACK.png,,,,,,,z,1,0.9244,,,,,,,,0,50,50,157,1
,,,,,,,,,,,,,,,,,200086,19,2022-01-28_23h08.54.027,lexical_decision_task_DD_L6,2021.2.3,MacIntel,60.0024001,,,,,,,,,,,1.0823,1,,,,,,,,,,,,,,,,,,,,,,,,0.799978299,-0.284769965,0,0,0,,,,,,,PEACH,HB,z,y,./images/PEACHHB.png,,,,,,,z,1,1.0823,,,,,,,,0,51,51,119,1
,,,,,,,,,,,,,,,,,200086,19,2022-01-28_23h08.54.027,lexical_decision_task_DD_L6,2021.2.3,MacIntel,60.0024001,,,,,,,,,,,1.2832,1,,,,,,,,,,,,,,,,,,,,,,,,0.799978299,-0.284769965,0,0,0,,,,,,,COOKER,LB,z,y,./images/COOKERLB.png,,,,,,,z,1,1.2832,,,,,,,,0,52,52,153,1
,,,,,,,,,,,,,,,,,200086,19,2022-01-28_23h08.54.027,lexical_decision_task_DD_L6,2021.2.3,MacIntel,60.0024001,,,,,,,,,,,1.3133,1,,,,,,,,,,,,,,,,,,,,,,,,0.799978299,-0.284769965,0,0,0,,,,,,,THROAT,LB,z,y,./images/THROATLB.png,,,,,,,z,1,1.3133,,,,,,,,0,53,53,120,1
,,,,,,,,,,,,,,,,,200086,19,2022-01-28_23h08.54.027,lexical_decision_task_DD_L6,2021.2.3,MacIntel,60.0024001,,,,,,,,,,,0.6686,1,,,,,,,,,,,,,,,,,,,,,,,,0.799978299,-0.284769965,0,0,0,,,,,,,BISHOP,C,m,y,./images/BISHOP.png,,,,,,,m,1,0.6686,,,,,,,,0,54,54,49,1
,,,,,,,,,,,,,,,,,200086,19,2022-01-28_23h08.54.027,lexical_decision_task_DD_L6,2021.2.3,MacIntel,60.0024001,,,,,,,,,,,1.0051,0,,,,,,,,,,,,,,,,,,,,,,,,0.799978299,-0.284769965,0,0,0,,,,,,,PEARL,C,z,y,./images/PEARL.png,,,,,,,m,0,1.0051,,,,,,,,0,55,55,130,1
,,,,,,,,,,,,,,,,,200086,19,2022-01-28_23h08.54.027,lexical_decision_task_DD_L6,2021.2.3,MacIntel,60.0024001,,,,,,,,,,,1.0488,1,,,,,,,,,,,,,,,,,,,,,,,,0.799978299,-0.284769965,0,0,0,,,,,,,SWING,C,z,y,./images/SWING.png,,,,,,,z,1,1.0488,,,,,,,,0,56,56,124,1
,,,,,,,,,,,,,,,,,200086,19,2022-01-28_23h08.54.027,lexical_decision_task_DD_L6,2021.2.3,MacIntel,60.0024001,,,,,,,,,,,0.8388,1,,,,,,,,,,,,,,,,,,,,,,,,0.799978299,-0.284769965,0,0,0,,,,,,,TRIPOD,LB,z,y,./images/TRIPODLB.png,,,,,,,z,1,0.8388,,,,,,,,0,57,57,138,1
,,,,,,,,,,,,,,,,,200086,19,2022-01-28_23h08.54.027,lexical_decision_task_DD_L6,2021.2.3,MacIntel,60.0024001,,,,,,,,,,,1.3801,1,,,,,,,,,,,,,,,,,,,,,,,,0.799978299,-0.284769965,0,0,0,,,,,,,KITTEN,LB,z,y,./images/KITTENLB.png,,,,,,,z,1,1.3801,,,,,,,,0,58,58,129,1
,,,,,,,,,,,,,,,,,200086,19,2022-01-28_23h08.54.027,lexical_decision_task_DD_L6,2021.2.3,MacIntel,60.0024001,,,,,,,,,,,1.0086,0,,,,,,,,,,,,,,,,,,,,,,,,0.799978299,-0.284769965,0,0,0,,,,,,,PACKET,HB,z,y,./images/PACKETHB.png,,,,,,,m,0,1.0086,,,,,,,,0,59,59,140,1
,,,,,,,,,,,,,,,,,200086,19,2022-01-28_23h08.54.027,lexical_decision_task_DD_L6,2021.2.3,MacIntel,60.0024001,,,,,,,,,,,0.5987,1,,,,,,,,,,,,,,,,,,,,,,,,0.799978299,-0.284769965,0,0,0,,,,,,,BROOM,LB,m,y,./images/BROOMLB.png,,,,,,,m,1,0.5987,,,,,,,,0,60,60,78,1
,,,,,,,,,,,,,,,,,200086,19,2022-01-28_23h08.54.027,lexical_decision_task_DD_L6,2021.2.3,MacIntel,60.0024001,,,,,,,,,,,1.0151,1,,,,,,,,,,,,,,,,,,,,,,,,0.799978299,-0.284769965,0,0,0,,,,,,,BELLY,C,z,y,./images/BELLY.png,,,,,,,z,1,1.0151,,,,,,,,0,61,61,94,1
,,,,,,,,,,,,,,,,,200086,19,2022-01-28_23h08.54.027,lexical_decision_task_DD_L6,2021.2.3,MacIntel,60.0024001,,,,,,,,,,,1.0985,0,,,,,,,,,,,,,,,,,,,,,,,,0.799978299,-0.284769965,0,0,0,,,,,,,SAILOR,C,z,y,./images/SAILOR.png,,,,,,,m,0,1.0985,,,,,,,,0,62,62,151,1
,,,,,,,,,,,,,,,,,200086,19,2022-01-28_23h08.54.027,lexical_decision_task_DD_L6,2021.2.3,MacIntel,60.0024001,,,,,,,,,,,0.6147,1,,,,,,,,,,,,,,,,,,,,,,,,0.799978299,-0.284769965,0,0,0,,,,,,,PARADE,HB,m,y,./images/PARADEHB.png,,,,,,,m,1,0.6147,,,,,,,,0,63,63,17,1
,,,,,,,,,,,,,,,,,200086,19,2022-01-28_23h08.54.027,lexical_decision_task_DD_L6,2021.2.3,MacIntel,60.0024001,,,,,,,,,,,0.8158,1,,,,,,,,,,,,,,,,,,,,,,,,0.799978299,-0.284769965,0,0,0,,,,,,,STAIN,LB,m,y,./images/STAINLB.png,,,,,,,m,1,0.8158,,,,,,,,0,64,64,6,1
,,,,,,,,,,,,,,,,,200086,19,2022-01-28_23h08.54.027,lexical_decision_task_DD_L6,2021.2.3,MacIntel,60.0024001,,,,,,,,,,,1.073,1,,,,,,,,,,,,,,,,,,,,,,,,0.799978299,-0.284769965,0,0,0,,,,,,,PLANET,HB,m,y,./images/PLANETHB.png,,,,,,,m,1,1.073,,,,,,,,0,65,65,80,1
,,,,,,,,,,,,,,,,,200086,19,2022-01-28_23h08.54.027,lexical_decision_task_DD_L6,2021.2.3,MacIntel,60.0024001,,,,,,,,,,,1.2575,1,,,,,,,,,,,,,,,,,,,,,,,,0.799978299,-0.284769965,0,0,0,,,,,,,WAGON,C,m,y,./images/WAGON.png,,,,,,,m,1,1.2575,,,,,,,,0,66,66,7,1
,,,,,,,,,,,,,,,,,200086,19,2022-01-28_23h08.54.027,lexical_decision_task_DD_L6,2021.2.3,MacIntel,60.0024001,,,,,,,,,,,0.7157,1,,,,,,,,,,,,,,,,,,,,,,,,0.799978299,-0.284769965,0,0,0,,,,,,,BRUSH,HB,m,y,./images/BRUSHHB.png,,,,,,,m,1,0.7157,,,,,,,,0,67,67,59,1
,,,,,,,,,,,,,,,,,200086,19,2022-01-28_23h08.54.027,lexical_decision_task_DD_L6,2021.2.3,MacIntel,60.0024001,,,,,,,,,,,0.9226,1,,,,,,,,,,,,,,,,,,,,,,,,0.799978299,-0.284769965,0,0,0,,,,,,,POSTER,HB,m,y,./images/POSTERHB.png,,,,,,,m,1,0.9226,,,,,,,,0,68,68,53,1
,,,,,,,,,,,,,,,,,200086,19,2022-01-28_23h08.54.027,lexical_decision_task_DD_L6,2021.2.3,MacIntel,60.0024001,,,,,,,,,,,0.8002,1,,,,,,,,,,,,,,,,,,,,,,,,0.799978299,-0.284769965,0,0,0,,,,,,,MAGGOT,LB,z,y,./images/MAGGOTLB.png,,,,,,,z,1,0.8002,,,,,,,,0,69,69,117,1
,,,,,,,,,,,,,,,,,200086,19,2022-01-28_23h08.54.027,lexical_decision_task_DD_L6,2021.2.3,MacIntel,60.0024001,,,,,,,,,,,0.9459,1,,,,,,,,,,,,,,,,,,,,,,,,0.799978299,-0.284769965,0,0,0,,,,,,,MOTOR,C,z,y,./images/MOTOR.png,,,,,,,z,1,0.9459,,,,,,,,0,70,70,97,1
,,,,,,,,,,,,,,,,,200086,19,2022-01-28_23h08.54.027,lexical_decision_task_DD_L6,2021.2.3,MacIntel,60.0024001,,,,,,,,,,,1.0099,0,,,,,,,,,,,,,,,,,,,,,,,,0.799978299,-0.284769965,0,0,0,,,,,,,PENCE,C,z,y,./images/PENCE.png,,,,,,,m,0,1.0099,,,,,,,,0,71,71,100,1
,,,,,,,,,,,,,,,,,200086,19,2022-01-28_23h08.54.027,lexical_decision_task_DD_L6,2021.2.3,MacIntel,60.0024001,,,,,,,,,,,0.8983,0,,,,,,,,,,,,,,,,,,,,,,,,0.799978299,-0.284769965,0,0,0,,,,,,,STORM,LB,z,y,./images/STORMLB.png,,,,,,,m,0,0.8983,,,,,,,,0,72,72,114,1
,,,,,,,,,,,,,,,,,200086,19,2022-01-28_23h08.54.027,lexical_decision_task_DD_L6,2021.2.3,MacIntel,60.0024001,,,,,,,,,,,0.855,1,,,,,,,,,,,,,,,,,,,,,,,,0.799978299,-0.284769965,0,0,0,,,,,,,SLOPE,LB,m,y,./images/SLOPELB.png,,,,,,,m,1,0.855,,,,,,,,0,73,73,30,1
,,,,,,,,,,,,,,,,,200086,19,2022-01-28_23h08.54.027,lexical_decision_task_DD_L6,2021.2.3,MacIntel,60.0024001,,,,,,,,,,,0.6149,1,,,,,,,,,,,,,,,,,,,,,,,,0.799978299,-0.284769965,0,0,0,,,,,,,BUBBLE,HB,m,y,./images/BUBBLEHB.png,,,,,,,m,1,0.6149,,,,,,,,0,74,74,71,1
,,,,,,,,,,,,,,,,,200086,19,2022-01-28_23h08.54.027,lexical_decision_task_DD_L6,2021.2.3,MacIntel,60.0024001,,,,,,,,,,,0.8499,1,,,,,,,,,,,,,,,,,,,,,,,,0.799978299,-0.284769965,0,0,0,,,,,,,SAUNA,LB,m,y,./images/SAUNALB.png,,,,,,,m,1,0.8499,,,,,,,,0,75,75,33,1
,,,,,,,,,,,,,,,,,200086,19,2022-01-28_23h08.54.027,lexical_decision_task_DD_L6,2021.2.3,MacIntel,60.0024001,,,,,,,,,,,0.7514,1,,,,,,,,,,,,,,,,,,,,,,,,0.799978299,-0.284769965,0,0,0,,,,,,,MOSQUE,C,z,y,./images/MOSQUE.png,,,,,,,z,1,0.7514,,,,,,,,0,76,76,127,1
,,,,,,,,,,,,,,,,,200086,19,2022-01-28_23h08.54.027,lexical_decision_task_DD_L6,2021.2.3,MacIntel,60.0024001,,,,,,,,,,,0.913,1,,,,,,,,,,,,,,,,,,,,,,,,0.799978299,-0.284769965,0,0,0,,,,,,,BOXER,C,m,y,./images/BOXER.png,,,,,,,m,1,0.913,,,,,,,,0,77,77,4,1
,,,,,,,,,,,,,,,,,200086,19,2022-01-28_23h08.54.027,lexical_decision_task_DD_L6,2021.2.3,MacIntel,60.0024001,,,,,,,,,,,0.7921,1,,,,,,,,,,,,,,,,,,,,,,,,0.799978299,-0.284769965,0,0,0,,,,,,,RAZOR,C,m,y,./images/RAZOR.png,,,,,,,m,1,0.7921,,,,,,,,0,78,78,34,1
,,,,,,,,,,,,,,,,,200086,19,2022-01-28_23h08.54.027,lexical_decision_task_DD_L6,2021.2.3,MacIntel,60.0024001,,,,,,,,,,,0.6749,1,,,,,,,,,,,,,,,,,,,,,,,,0.799978299,-0.284769965,0,0,0,,,,,,,BRIDE,C,m,y,./images/BRIDE.png,,,,,,,m,1,0.6749,,,,,,,,0,79,79,64,1
,,,,,,,,,,,,,,,,,200086,19,2022-01-28_23h08.54.027,lexical_decision_task_DD_L6,2021.2.3,MacIntel,60.0024001,,,,,,,,,,,0.8748,1,,,,,,,,,,,,,,,,,,,,,,,,0.799978299,-0.284769965,0,0,0,,,,,,,CANOE,C,m,y,./images/CANOE.png,,,,,,,m,1,0.8748,,,,,,,,0,80,80,58,1
,,,,,,,,,,,,,,,,,200086,19,2022-01-28_23h08.54.027,lexical_decision_task_DD_L6,2021.2.3,MacIntel,60.0024001,,,,,,,,,,,1.0319,1,,,,,,,,,,,,,,,,,,,,,,,,0.799978299,-0.284769965,0,0,0,,,,,,,GREASE,LB,z,y,./images/GREASELB.png,,,,,,,z,1,1.0319,,,,,,,,0,81,81,99,1
,,,,,,,,,,,,,,,,,200086,19,2022-01-28_23h08.54.027,lexical_decision_task_DD_L6,2021.2.3,MacIntel,60.0024001,,,,,,,,,,,0.6793,1,,,,,,,,,,,,,,,,,,,,,,,,0.799978299,-0.284769965,0,0,0,,,,,,,ARROW,LB,m,y,./images/ARROWLB.png,,,,,,,m,1,0.6793,,,,,,,,0,82,82,69,1
,,,,,,,,,,,,,,,,,200086,19,2022-01-28_23h08.54.027,lexical_decision_task_DD_L6,2021.2.3,MacIntel,60.0024001,,,,,,,,,,,1.1542,1,,,,,,,,,,,,,,,,,,,,,,,,0.799978299,-0.284769965,0,0,0,space,,,,,,WHEEL,HB,m,y,./images/WHEELHB.png,4.0348,,,,,,m,1,1.1542,,,,,,,,0,83,83,77,1
,,,,,,,,,,,,,,,,,200086,19,2022-01-28_23h08.54.027,lexical_decision_task_DD_L6,2021.2.3,MacIntel,60.0024001,,,,,,,,,,,0.8687,1,,,,,,,,,,,,,,,,,,,,,,,,0.799978299,-0.284769965,0,0,0,,,,,,,ALLEY,C,m,y,./images/ALLEY.png,,,,,,,m,1,0.8687,,,,,,,,0,84,84,55,1
,,,,,,,,,,,,,,,,,200086,19,2022-01-28_23h08.54.027,lexical_decision_task_DD_L6,2021.2.3,MacIntel,60.0024001,,,,,,,,,,,0.9585,0,,,,,,,,,,,,,,,,,,,,,,,,0.799978299,-0.284769965,0,0,0,,,,,,,MOOSE,LB,z,y,./images/MOOSELB.png,,,,,,,m,0,0.9585,,,,,,,,0,85,85,141,1
,,,,,,,,,,,,,,,,,200086,19,2022-01-28_23h08.54.027,lexical_decision_task_DD_L6,2021.2.3,MacIntel,60.0024001,,,,,,,,,,,0.8193,0,,,,,,,,,,,,,,,,,,,,,,,,0.799978299,-0.284769965,0,0,0,,,,,,,ARTIST,C,m,y,./images/ARTIST.png,,,,,,,z,0,0.8193,,,,,,,,0,86,86,61,1
,,,,,,,,,,,,,,,,,200086,19,2022-01-28_23h08.54.027,lexical_decision_task_DD_L6,2021.2.3,MacIntel,60.0024001,,,,,,,,,,,0.699,1,,,,,,,,,,,,,,,,,,,,,,,,0.799978299,-0.284769965,0,0,0,,,,,,,BUTTER,LB,m,y,./images/BUTTERLB.png,,,,,,,m,1,0.699,,,,,,,,0,87,87,27,1
,,,,,,,,,,,,,,,,,200086,19,2022-01-28_23h08.54.027,lexical_decision_task_DD_L6,2021.2.3,MacIntel,60.0024001,,,,,,,,,,,0.8989,0,,,,,,,,,,,,,,,,,,,,,,,,0.799978299,-0.284769965,0,0,0,,,,,,,PEBBLE,C,m,y,./images/PEBBLE.png,,,,,,,z,0,0.8989,,,,,,,,0,88,88,82,1
,,,,,,,,,,,,,,,,,200086,19,2022-01-28_23h08.54.027,lexical_decision_task_DD_L6,2021.2.3,MacIntel,60.0024001,,,,,,,,,,,0.7816,1,,,,,,,,,,,,,,,,,,,,,,,,0.799978299,-0.284769965,0,0,0,,,,,,,DESERT,C,m,y,./images/DESERT.png,,,,,,,m,1,0.7816,,,,,,,,0,89,89,52,1
,,,,,,,,,,,,,,,,,200086,19,2022-01-28_23h08.54.027,lexical_decision_task_DD_L6,2021.2.3,MacIntel,60.0024001,,,,,,,,,,,0.7433,1,,,,,,,,,,,,,,,,,,,,,,,,0.799978299,-0.284769965,0,0,0,,,,,,,CLIFF,HB,m,y,./images/CLIFFHB.png,,,,,,,m,1,0.7433,,,,,,,,0,90,90,8,1
,,,,,,,,,,,,,,,,,200086,19,2022-01-28_23h08.54.027,lexical_decision_task_DD_L6,2021.2.3,MacIntel,60.0024001,,,,,,,,,,,1.0321,0,,,,,,,,,,,,,,,,,,,,,,,,0.799978299,-0.284769965,0,0,0,,,,,,,BEARD,HB,z,y,./images/BEARDHB.png,,,,,,,m,0,1.0321,,,,,,,,0,91,91,86,1
,,,,,,,,,,,,,,,,,200086,19,2022-01-28_23h08.54.027,lexical_decision_task_DD_L6,2021.2.3,MacIntel,60.0024001,,,,,,,,,,,0.8377,1,,,,,,,,,,,,,,,,,,,,,,,,0.799978299,-0.284769965,0,0,0,,,,,,,PASTA,HB,z,y,./images/PASTAHB.png,,,,,,,z,1,0.8377,,,,,,,,0,92,92,89,1
,,,,,,,,,,,,,,,,,200086,19,2022-01-28_23h08.54.027,lexical_decision_task_DD_L6,2021.2.3,MacIntel,60.0024001,,,,,,,,,,,1.0588,0,,,,,,,,,,,,,,,,,,,,,,,,0.799978299,-0.284769965,0,0,0,,,,,,,PAINT,C,z,y,./images/PAINT.png,,,,,,,m,0,1.0588,,,,,,,,0,93,93,91,1
,,,,,,,,,,,,,,,,,200086,19,2022-01-28_23h08.54.027,lexical_decision_task_DD_L6,2021.2.3,MacIntel,60.0024001,,,,,,,,,,,0.9839,1,,,,,,,,,,,,,,,,,,,,,,,,0.799978299,-0.284769965,0,0,0,,,,,,,NOOSE,LB,z,y,./images/NOOSELB.png,,,,,,,z,1,0.9839,,,,,,,,0,94,94,156,1
,,,,,,,,,,,,,,,,,200086,19,2022-01-28_23h08.54.027,lexical_decision_task_DD_L6,2021.2.3,MacIntel,60.0024001,,,,,,,,,,,0.7657,0,,,,,,,,,,,,,,,,,,,,,,,,0.799978299,-0.284769965,0,0,0,,,,,,,SMOKER,HB,z,y,./images/SMOKERHB.png,,,,,,,m,0,0.7657,,,,,,,,0,95,95,110,1
,,,,,,,,,,,,,,,,,200086,19,2022-01-28_23h08.54.027,lexical_decision_task_DD_L6,2021.2.3,MacIntel,60.0024001,,,,,,,,,,,0.9167,1,,,,,,,,,,,,,,,,,,,,,,,,0.799978299,-0.284769965,0,0,0,,,,,,,SUNSET,C,z,y,./images/SUNSET.png,,,,,,,z,1,0.9167,,,,,,,,0,96,96,166,1
,,,,,,,,,,,,,,,,,200086,19,2022-01-28_23h08.54.027,lexical_decision_task_DD_L6,2021.2.3,MacIntel,60.0024001,,,,,,,,,,,0.6679,1,,,,,,,,,,,,,,,,,,,,,,,,0.799978299,-0.284769965,0,0,0,,,,,,,HOCKEY,HB,m,y,./images/HOCKEYHB.png,,,,,,,m,1,0.6679,,,,,,,,0,97,97,32,1
,,,,,,,,,,,,,,,,,200086,19,2022-01-28_23h08.54.027,lexical_decision_task_DD_L6,2021.2.3,MacIntel,60.0024001,,,,,,,,,,,0.6819,1,,,,,,,,,,,,,,,,,,,,,,,,0.799978299,-0.284769965,0,0,0,,,,,,,SNAKE,C,m,y,./images/SNAKE.png,,,,,,,m,1,0.6819,,,,,,,,0,98,98,40,1
,,,,,,,,,,,,,,,,,200086,19,2022-01-28_23h08.54.027,lexical_decision_task_DD_L6,2021.2.3,MacIntel,60.0024001,,,,,,,,,,,0.7146,0,,,,,,,,,,,,,,,,,,,,,,,,0.799978299,-0.284769965,0,0,0,,,,,,,STOOL,C,m,y,./images/STOOL.png,,,,,,,z,0,0.7146,,,,,,,,0,99,99,43,1
,,,,,,,,,,,,,,,,,200086,19,2022-01-28_23h08.54.027,lexical_decision_task_DD_L6,2021.2.3,MacIntel,60.0024001,,,,,,,,,,,1.1661,0,,,,,,,,,,,,,,,,,,,,,,,,0.799978299,-0.284769965,0,0,0,,,,,,,MEDAL,HB,m,y,./images/MEDALHB.png,,,,,,,z,0,1.1661,,,,,,,,0,100,100,11,1
,,,,,,,,,,,,,,,,,200086,19,2022-01-28_23h08.54.027,lexical_decision_task_DD_L6,2021.2.3,MacIntel,60.0024001,,,,,,,,,,,1.0144,1,,,,,,,,,,,,,,,,,,,,,,,,0.799978299,-0.284769965,0,0,0,,,,,,,GLOVE,C,m,y,./images/GLOVE.png,,,,,,,m,1,1.0144,,,,,,,,0,101,101,73,1
,,,,,,,,,,,,,,,,,200086,19,2022-01-28_23h08.54.027,lexical_decision_task_DD_L6,2021.2.3,MacIntel,60.0024001,,,,,,,,,,,0.897,1,,,,,,,,,,,,,,,,,,,,,,,,0.799978299,-0.284769965,0,0,0,,,,,,,DANCER,LB,m,y,./images/DANCERLB.png,,,,,,,m,1,0.897,,,,,,,,0,102,102,21,1
,,,,,,,,,,,,,,,,,200086,19,2022-01-28_23h08.54.027,lexical_decision_task_DD_L6,2021.2.3,MacIntel,60.0024001,,,,,,,,,,,1.0736,1,,,,,,,,,,,,,,,,,,,,,,,,0.799978299,-0.284769965,0,0,0,,,,,,,FARMER,HB,z,y,./images/FARMERHB.png,,,,,,,z,1,1.0736,,,,,,,,0,103,103,149,1
,,,,,,,,,,,,,,,,,200086,19,2022-01-28_23h08.54.027,lexical_decision_task_DD_L6,2021.2.3,MacIntel,60.0024001,,,,,,,,,,,0.748,0,,,,,,,,,,,,,,,,,,,,,,,,0.799978299,-0.284769965,0,0,0,,,,,,,SWEAT,LB,z,y,./images/SWEATLB.png,,,,,,,m,0,0.748,,,,,,,,0,104,104,150,1
,,,,,,,,,,,,,,,,,200086,19,2022-01-28_23h08.54.027,lexical_decision_task_DD_L6,2021.2.3,MacIntel,60.0024001,,,,,,,,,,,0.7156,1,,,,,,,,,,,,,,,,,,,,,,,,0.799978299,-0.284769965,0,0,0,,,,,,,URINE,C,z,y,./images/URINE.png,,,,,,,z,1,0.7156,,,,,,,,0,105,105,154,1
,,,,,,,,,,,,,,,,,200086,19,2022-01-28_23h08.54.027,lexical_decision_task_DD_L6,2021.2.3,MacIntel,60.0024001,,,,,,,,,,,0.7049,1,,,,,,,,,,,,,,,,,,,,,,,,0.799978299,-0.284769965,0,0,0,,,,,,,PILOT,HB,m,y,./images/PILOTHB.png,,,,,,,m,1,0.7049,,,,,,,,0,106,106,50,1
,,,,,,,,,,,,,,,,,200086,19,2022-01-28_23h08.54.027,lexical_decision_task_DD_L6,2021.2.3,MacIntel,60.0024001,,,,,,,,,,,0.7312,1,,,,,,,,,,,,,,,,,,,,,,,,0.799978299,-0.284769965,0,0,0,,,,,,,BAMBOO,HB,m,y,./images/BAMBOOHB.png,,,,,,,m,1,0.7312,,,,,,,,0,107,107,5,1
,,,,,,,,,,,,,,,,,200086,19,2022-01-28_23h08.54.027,lexical_decision_task_DD_L6,2021.2.3,MacIntel,60.0024001,,,,,,,,,,,0.7835,1,,,,,,,,,,,,,,,,,,,,,,,,0.799978299,-0.284769965,0,0,0,,,,,,,FERRY,LB,m,y,./images/FERRYLB.png,,,,,,,m,1,0.7835,,,,,,,,0,108,108,57,1
,,,,,,,,,,,,,,,,,200086,19,2022-01-28_23h08.54.027,lexical_decision_task_DD_L6,2021.2.3,MacIntel,60.0024001,,,,,,,,,,,1.0078,1,,,,,,,,,,,,,,,,,,,,,,,,0.799978299,-0.284769965,0,0,0,,,,,,,HEATER,HB,m,y,./images/HEATERHB.png,,,,,,,m,1,1.0078,,,,,,,,0,109,109,56,1
,,,,,,,,,,,,,,,,,200086,19,2022-01-28_23h08.54.027,lexical_decision_task_DD_L6,2021.2.3,MacIntel,60.0024001,,,,,,,,,,,0.898,1,,,,,,,,,,,,,,,,,,,,,,,,0.799978299,-0.284769965,0,0,0,,,,,,,JUMPER,HB,m,y,./images/JUMPERHB.png,,,,,,,m,1,0.898,,,,,,,,0,110,110,74,1
,,,,,,,,,,,,,,,,,200086,19,2022-01-28_23h08.54.027,lexical_decision_task_DD_L6,2021.2.3,MacIntel,60.0024001,,,,,,,,,,,0.9353,1,,,,,,,,,,,,,,,,,,,,,,,,0.799978299,-0.284769965,0,0,0,,,,,,,SCREW,LB,z,y,./images/SCREWLB.png,,,,,,,z,1,0.9353,,,,,,,,0,111,111,108,1
,,,,,,,,,,,,,,,,,200086,19,2022-01-28_23h08.54.027,lexical_decision_task_DD_L6,2021.2.3,MacIntel,60.0024001,,,,,,,,,,,1.0554,0,,,,,,,,,,,,,,,,,,,,,,,,0.799978299,-0.284769965,0,0,0,,,,,,,RULER,C,m,y,./images/RULER.png,,,,,,,z,0,1.0554,,,,,,,,0,112,112,79,1
,,,,,,,,,,,,,,,,,200086,19,2022-01-28_23h08.54.027,lexical_decision_task_DD_L6,2021.2.3,MacIntel,60.0024001,,,,,,,,,,,1.3697,1,,,,,,,,,,,,,,,,,,,,,,,,0.799978299,-0.284769965,0,0,0,,,,,,,COUCH,HB,z,y,./images/COUCHHB.png,,,,,,,z,1,1.3697,,,,,,,,0,113,113,161,1
,,,,,,,,,,,,,,,,,200086,19,2022-01-28_23h08.54.027,lexical_decision_task_DD_L6,2021.2.3,MacIntel,60.0024001,,,,,,,,,,,0.7555,1,,,,,,,,,,,,,,,,,,,,,,,,0.799978299,-0.284769965,0,0,0,,,,,,,PURSE,HB,z,y,./images/PURSEHB.png,,,,,,,z,1,0.7555,,,,,,,,0,114,114,146,1
,,,,,,,,,,,,,,,,,200086,19,2022-01-28_23h08.54.027,lexical_decision_task_DD_L6,2021.2.3,MacIntel,60.0024001,,,,,,,,,,,0.6333,1,,,,,,,,,,,,,,,,,,,,,,,,0.799978299,-0.284769965,0,0,0,,,,,,,FENCE,HB,m,y,./images/FENCEHB.png,,,,,,,m,1,0.6333,,,,,,,,0,115,115,14,1
,,,,,,,,,,,,,,,,,200086,19,2022-01-28_23h08.54.027,lexical_decision_task_DD_L6,2021.2.3,MacIntel,60.0024001,,,,,,,,,,,0.9134,0,,,,,,,,,,,,,,,,,,,,,,,,0.799978299,-0.284769965,0,0,0,,,,,,,CRUMB,HB,z,y,./images/CRUMBHB.png,,,,,,,m,0,0.9134,,,,,,,,0,116,116,113,1
,,,,,,,,,,,,,,,,,200086,19,2022-01-28_23h08.54.027,lexical_decision_task_DD_L6,2021.2.3,MacIntel,60.0024001,,,,,,,,,,,0.7234,1,,,,,,,,,,,,,,,,,,,,,,,,0.799978299,-0.284769965,0,0,0,,,,,,,ONION,LB,z,y,./images/ONIONLB.png,,,,,,,z,1,0.7234,,,,,,,,0,117,117,135,1
,,,,,,,,,,,,,,,,,200086,19,2022-01-28_23h08.54.027,lexical_decision_task_DD_L6,2021.2.3,MacIntel,60.0024001,,,,,,,,,,,0.7873,1,,,,,,,,,,,,,,,,,,,,,,,,0.799978299,-0.284769965,0,0,0,,,,,,,BUNNY,C,m,y,./images/BUNNY.png,,,,,,,m,1,0.7873,,,,,,,,0,118,118,13,1
,,,,,,,,,,,,,,,,,200086,19,2022-01-28_23h08.54.027,lexical_decision_task_DD_L6,2021.2.3,MacIntel,60.0024001,,,,,,,,,,,0.8169,1,,,,,,,,,,,,,,,,,,,,,,,,0.799978299,-0.284769965,0,0,0,,,,,,,SHELF,LB,z,y,./images/SHELFLB.png,,,,,,,z,1,0.8169,,,,,,,,0,119,119,123,1
,,,,,,,,,,,,,,,,,200086,19,2022-01-28_23h08.54.027,lexical_decision_task_DD_L6,2021.2.3,MacIntel,60.0024001,,,,,,,,,,,0.6829,1,,,,,,,,,,,,,,,,,,,,,,,,0.799978299,-0.284769965,0,0,0,,,,,,,FLESH,LB,m,y,./images/FLESHLB.png,,,,,,,m,1,0.6829,,,,,,,,0,120,120,24,1
,,,,,,,,,,,,,,,,,200086,19,2022-01-28_23h08.54.027,lexical_decision_task_DD_L6,2021.2.3,MacIntel,60.0024001,,,,,,,,,,,1.0505,0,,,,,,,,,,,,,,,,,,,,,,,,0.799978299,-0.284769965,0,0,0,,,,,,,GARDEN,C,m,y,./images/GARDEN.png,,,,,,,z,0,1.0505,,,,,,,,0,121,121,10,1
,,,,,,,,,,,,,,,,,200086,19,2022-01-28_23h08.54.027,lexical_decision_task_DD_L6,2021.2.3,MacIntel,60.0024001,,,,,,,,,,,1.4886,1,,,,,,,,,,,,,,,,,,,,,,,,0.799978299,-0.284769965,0,0,0,,,,,,,CANDLE,C,z,y,./images/CANDLE.png,,,,,,,z,1,1.4886,,,,,,,,0,122,122,145,1
,,,,,,,,,,,,,,,,,200086,19,2022-01-28_23h08.54.027,lexical_decision_task_DD_L6,2021.2.3,MacIntel,60.0024001,,,,,,,,,,,0.8894,0,,,,,,,,,,,,,,,,,,,,,,,,0.799978299,-0.284769965,0,0,0,,,,,,,BAKER,LB,m,y,./images/BAKERLB.png,,,,,,,z,0,0.8894,,,,,,,,0,123,123,63,1
,,,,,,,,,,,,,,,,,200086,19,2022-01-28_23h08.54.027,lexical_decision_task_DD_L6,2021.2.3,MacIntel,60.0024001,,,,,,,,,,,0.8815,0,,,,,,,,,,,,,,,,,,,,,,,,0.799978299,-0.284769965,0,0,0,,,,,,,PLANK,C,z,y,./images/PLANK.png,,,,,,,m,0,0.8815,,,,,,,,0,124,124,85,1
,,,,,,,,,,,,,,,,,200086,19,2022-01-28_23h08.54.027,lexical_decision_task_DD_L6,2021.2.3,MacIntel,60.0024001,,,,,,,,,,,0.8482,1,,,,,,,,,,,,,,,,,,,,,,,,0.799978299,-0.284769965,0,0,0,space,,,,,,JAGUAR,LB,z,y,./images/JAGUARLB.png,2.5832,,,,,,z,1,0.8482,,,,,,,,0,125,125,102,1
,,,,,,,,,,,,,,,,,200086,19,2022-01-28_23h08.54.027,lexical_decision_task_DD_L6,2021.2.3,MacIntel,60.0024001,,,,,,,,,,,0.7909,1,,,,,,,,,,,,,,,,,,,,,,,,0.799978299,-0.284769965,0,0,0,,,,,,,INFANT,C,z,y,./images/INFANT.png,,,,,,,z,1,0.7909,,,,,,,,0,126,126,160,1
,,,,,,,,,,,,,,,,,200086,19,2022-01-28_23h08.54.027,lexical_decision_task_DD_L6,2021.2.3,MacIntel,60.0024001,,,,,,,,,,,0.5661,0,,,,,,,,,,,,,,,,,,,,,,,,0.799978299,-0.284769965,0,0,0,,,,,,,BABOON,C,z,y,./images/BABOON.png,,,,,,,m,0,0.5661,,,,,,,,0,127,127,142,1
,,,,,,,,,,,,,,,,,200086,19,2022-01-28_23h08.54.027,lexical_decision_task_DD_L6,2021.2.3,MacIntel,60.0024001,,,,,,,,,,,0.581,1,,,,,,,,,,,,,,,,,,,,,,,,0.799978299,-0.284769965,0,0,0,,,,,,,WALRUS,HB,z,y,./images/WALRUSHB.png,,,,,,,z,1,0.581,,,,,,,,0,128,128,107,1
,,,,,,,,,,,,,,,,,200086,19,2022-01-28_23h08.54.027,lexical_decision_task_DD_L6,2021.2.3,MacIntel,60.0024001,,,,,,,,,,,0.6793,1,,,,,,,,,,,,,,,,,,,,,,,,0.799978299,-0.284769965,0,0,0,,,,,,,STEAK,C,m,y,./images/STEAK.png,,,,,,,m,1,0.6793,,,,,,,,0,129,129,31,1
,,,,,,,,,,,,,,,,,200086,19,2022-01-28_23h08.54.027,lexical_decision_task_DD_L6,2021.2.3,MacIntel,60.0024001,,,,,,,,,,,0.5903,1,,,,,,,,,,,,,,,,,,,,,,,,0.799978299,-0.284769965,0,0,0,,,,,,,DOUGH,C,z,y,./images/DOUGH.png,,,,,,,z,1,0.5903,,,,,,,,0,130,130,103,1
,,,,,,,,,,,,,,,,,200086,19,2022-01-28_23h08.54.027,lexical_decision_task_DD_L6,2021.2.3,MacIntel,60.0024001,,,,,,,,,,,0.6316,1,,,,,,,,,,,,,,,,,,,,,,,,0.799978299,-0.284769965,0,0,0,,,,,,,CLOWN,C,m,y,./images/CLOWN.png,,,,,,,m,1,0.6316,,,,,,,,0,131,131,22,1
,,,,,,,,,,,,,,,,,200086,19,2022-01-28_23h08.54.027,lexical_decision_task_DD_L6,2021.2.3,MacIntel,60.0024001,,,,,,,,,,,0.5652,1,,,,,,,,,,,,,,,,,,,,,,,,0.799978299,-0.284769965,0,0,0,,,,,,,BIRTH,C,z,y,./images/BIRTH.png,,,,,,,z,1,0.5652,,,,,,,,0,132,132,121,1
,,,,,,,,,,,,,,,,,200086,19,2022-01-28_23h08.54.027,lexical_decision_task_DD_L6,2021.2.3,MacIntel,60.0024001,,,,,,,,,,,0.7405,0,,,,,,,,,,,,,,,,,,,,,,,,0.799978299,-0.284769965,0,0,0,,,,,,,TWINS,LB,z,y,./images/TWINSLB.png,,,,,,,m,0,0.7405,,,,,,,,0,133,133,144,1
,,,,,,,,,,,,,,,,,200086,19,2022-01-28_23h08.54.027,lexical_decision_task_DD_L6,2021.2.3,MacIntel,60.0024001,,,,,,,,,,,0.9561,1,,,,,,,,,,,,,,,,,,,,,,,,0.799978299,-0.284769965,0,0,0,,,,,,,CRADLE,HB,z,y,./images/CRADLEHB.png,,,,,,,z,1,0.9561,,,,,,,,0,134,134,104,1
,,,,,,,,,,,,,,,,,200086,19,2022-01-28_23h08.54.027,lexical_decision_task_DD_L6,2021.2.3,MacIntel,60.0024001,,,,,,,,,,,0.7826,1,,,,,,,,,,,,,,,,,,,,,,,,0.799978299,-0.284769965,0,0,0,,,,,,,STOVE,HB,m,y,./images/STOVEHB.png,,,,,,,m,1,0.7826,,,,,,,,0,135,135,2,1
,,,,,,,,,,,,,,,,,200086,19,2022-01-28_23h08.54.027,lexical_decision_task_DD_L6,2021.2.3,MacIntel,60.0024001,,,,,,,,,,,0.7584,0,,,,,,,,,,,,,,,,,,,,,,,,0.799978299,-0.284769965,0,0,0,,,,,,,JELLY,C,z,y,./images/JELLY.png,,,,,,,m,0,0.7584,,,,,,,,0,136,136,148,1
,,,,,,,,,,,,,,,,,200086,19,2022-01-28_23h08.54.027,lexical_decision_task_DD_L6,2021.2.3,MacIntel,60.0024001,,,,,,,,,,,0.8824,1,,,,,,,,,,,,,,,,,,,,,,,,0.799978299,-0.284769965,0,0,0,,,,,,,SAUCE,LB,m,y,./images/SAUCELB.png,,,,,,,m,1,0.8824,,,,,,,,0,137,137,51,1
,,,,,,,,,,,,,,,,,200086,19,2022-01-28_23h08.54.027,lexical_decision_task_DD_L6,2021.2.3,MacIntel,60.0024001,,,,,,,,,,,0.5817,1,,,,,,,,,,,,,,,,,,,,,,,,0.799978299,-0.284769965,0,0,0,,,,,,,JUNGLE,HB,z,y,./images/JUNGLEHB.png,,,,,,,z,1,0.5817,,,,,,,,0,138,138,167,1
,,,,,,,,,,,,,,,,,200086,19,2022-01-28_23h08.54.027,lexical_decision_task_DD_L6,2021.2.3,MacIntel,60.0024001,,,,,,,,,,,0.8472,1,,,,,,,,,,,,,,,,,,,,,,,,0.799978299,-0.284769965,0,0,0,,,,,,,TOMATO,LB,z,y,./images/TOMATOLB.png,,,,,,,z,1,0.8472,,,,,,,,0,139,139,84,1
,,,,,,,,,,,,,,,,,200086,19,2022-01-28_23h08.54.027,lexical_decision_task_DD_L6,2021.2.3,MacIntel,60.0024001,,,,,,,,,,,1.1158,0,,,,,,,,,,,,,,,,,,,,,,,,0.799978299,-0.284769965,0,0,0,,,,,,,DRUMS,C,z,y,./images/DRUMS.png,,,,,,,m,0,1.1158,,,,,,,,0,140,140,133,1
,,,,,,,,,,,,,,,,,200086,19,2022-01-28_23h08.54.027,lexical_decision_task_DD_L6,2021.2.3,MacIntel,60.0024001,,,,,,,,,,,1.2824,1,,,,,,,,,,,,,,,,,,,,,,,,0.799978299,-0.284769965,0,0,0,,,,,,,MAMMAL,HB,m,y,./images/MAMMALHB.png,,,,,,,m,1,1.2824,,,,,,,,0,141,141,62,1
,,,,,,,,,,,,,,,,,200086,19,2022-01-28_23h08.54.027,lexical_decision_task_DD_L6,2021.2.3,MacIntel,60.0024001,,,,,,,,,,,0.9155,0,,,,,,,,,,,,,,,,,,,,,,,,0.799978299,-0.284769965,0,0,0,,,,,,,CURRY,LB,m,y,./images/CURRYLB.png,,,,,,,z,0,0.9155,,,,,,,,0,142,142,60,1
,,,,,,,,,,,,,,,,,200086,19,2022-01-28_23h08.54.027,lexical_decision_task_DD_L6,2021.2.3,MacIntel,60.0024001,,,,,,,,,,,2.0659,1,,,,,,,,,,,,,,,,,,,,,,,,0.799978299,-0.284769965,0,0,0,,,,,,,CARPET,HB,z,y,./images/CARPETHB.png,,,,,,,z,1,2.0659,,,,,,,,0,143,143,137,1
,,,,,,,,,,,,,,,,,200086,19,2022-01-28_23h08.54.027,lexical_decision_task_DD_L6,2021.2.3,MacIntel,60.0024001,,,,,,,,,,,0.8254,1,,,,,,,,,,,,,,,,,,,,,,,,0.799978299,-0.284769965,0,0,0,,,,,,,BURIAL,HB,z,y,./images/BURIALHB.png,,,,,,,z,1,0.8254,,,,,,,,0,144,144,143,1
,,,,,,,,,,,,,,,,,200086,19,2022-01-28_23h08.54.027,lexical_decision_task_DD_L6,2021.2.3,MacIntel,60.0024001,,,,,,,,,,,1.1333,0,,,,,,,,,,,,,,,,,,,,,,,,0.799978299,-0.284769965,0,0,0,,,,,,,VALLEY,HB,m,y,./images/VALLEYHB.png,,,,,,,z,0,1.1333,,,,,,,,0,145,145,68,1
,,,,,,,,,,,,,,,,,200086,19,2022-01-28_23h08.54.027,lexical_decision_task_DD_L6,2021.2.3,MacIntel,60.0024001,,,,,,,,,,,1.1715,0,,,,,,,,,,,,,,,,,,,,,,,,0.799978299,-0.284769965,0,0,0,,,,,,,CLOTH,HB,m,y,./images/CLOTHHB.png,,,,,,,z,0,1.1715,,,,,,,,0,146,146,23,1
,,,,,,,,,,,,,,,,,200086,19,2022-01-28_23h08.54.027,lexical_decision_task_DD_L6,2021.2.3,MacIntel,60.0024001,,,,,,,,,,,0.8066,1,,,,,,,,,,,,,,,,,,,,,,,,0.799978299,-0.284769965,0,0,0,,,,,,,CEMENT,HB,z,y,./images/CEMENTHB.png,,,,,,,z,1,0.8066,,,,,,,,0,147,147,158,1
,,,,,,,,,,,,,,,,,200086,19,2022-01-28_23h08.54.027,lexical_decision_task_DD_L6,2021.2.3,MacIntel,60.0024001,,,,,,,,,,,0.965,1,,,,,,,,,,,,,,,,,,,,,,,,0.799978299,-0.284769965,0,0,0,,,,,,,MUFFIN,C,z,y,./images/MUFFIN.png,,,,,,,z,1,0.965,,,,,,,,0,148,148,139,1
,,,,,,,,,,,,,,,,,200086,19,2022-01-28_23h08.54.027,lexical_decision_task_DD_L6,2021.2.3,MacIntel,60.0024001,,,,,,,,,,,0.731,1,,,,,,,,,,,,,,,,,,,,,,,,0.799978299,-0.284769965,0,0,0,,,,,,,WHISKY,HB,m,y,./images/WHISKYHB.png,,,,,,,m,1,0.731,,,,,,,,0,149,149,83,1
,,,,,,,,,,,,,,,,,200086,19,2022-01-28_23h08.54.027,lexical_decision_task_DD_L6,2021.2.3,MacIntel,60.0024001,,,,,,,,,,,0.765,1,,,,,,,,,,,,,,,,,,,,,,,,0.799978299,-0.284769965,0,0,0,,,,,,,GRAIN,LB,z,y,./images/GRAINLB.png,,,,,,,z,1,0.765,,,,,,,,0,150,150,159,1
,,,,,,,,,,,,,,,,,200086,19,2022-01-28_23h08.54.027,lexical_decision_task_DD_L6,2021.2.3,MacIntel,60.0024001,,,,,,,,,,,0.5689,1,,,,,,,,,,,,,,,,,,,,,,,,0.799978299,-0.284769965,0,0,0,,,,,,,CASINO,C,m,y,./images/CASINO.png,,,,,,,m,1,0.5689,,,,,,,,0,151,151,28,1
,,,,,,,,,,,,,,,,,200086,19,2022-01-28_23h08.54.027,lexical_decision_task_DD_L6,2021.2.3,MacIntel,60.0024001,,,,,,,,,,,0.5759,1,,,,,,,,,,,,,,,,,,,,,,,,0.799978299,-0.284769965,0,0,0,,,,,,,PIMPLE,HB,z,y,./images/PIMPLEHB.png,,,,,,,z,1,0.5759,,,,,,,,0,152,152,155,1
,,,,,,,,,,,,,,,,,200086,19,2022-01-28_23h08.54.027,lexical_decision_task_DD_L6,2021.2.3,MacIntel,60.0024001,,,,,,,,,,,0.966,0,,,,,,,,,,,,,,,,,,,,,,,,0.799978299,-0.284769965,0,0,0,,,,,,,BARREL,HB,z,y,./images/BARRELHB.png,,,,,,,m,0,0.966,,,,,,,,0,153,153,116,1
,,,,,,,,,,,,,,,,,200086,19,2022-01-28_23h08.54.027,lexical_decision_task_DD_L6,2021.2.3,MacIntel,60.0024001,,,,,,,,,,,0.6308,1,,,,,,,,,,,,,,,,,,,,,,,,0.799978299,-0.284769965,0,0,0,,,,,,,LLAMA,HB,m,y,./images/LLAMAHB.png,,,,,,,m,1,0.6308,,,,,,,,0,154,154,35,1
,,,,,,,,,,,,,,,,,200086,19,2022-01-28_23h08.54.027,lexical_decision_task_DD_L6,2021.2.3,MacIntel,60.0024001,,,,,,,,,,,0.8051,0,,,,,,,,,,,,,,,,,,,,,,,,0.799978299,-0.284769965,0,0,0,,,,,,,SPINE,HB,m,y,./images/SPINEHB.png,,,,,,,z,0,0.8051,,,,,,,,0,155,155,65,1
,,,,,,,,,,,,,,,,,200086,19,2022-01-28_23h08.54.027,lexical_decision_task_DD_L6,2021.2.3,MacIntel,60.0024001,,,,,,,,,,,0.8313,1,,,,,,,,,,,,,,,,,,,,,,,,0.799978299,-0.284769965,0,0,0,,,,,,,QUILL,C,z,y,./images/QUILL.png,,,,,,,z,1,0.8313,,,,,,,,0,156,156,115,1
,,,,,,,,,,,,,,,,,200086,19,2022-01-28_23h08.54.027,lexical_decision_task_DD_L6,2021.2.3,MacIntel,60.0024001,,,,,,,,,,,1.0168,0,,,,,,,,,,,,,,,,,,,,,,,,0.799978299,-0.284769965,0,0,0,,,,,,,SKIING,HB,z,y,./images/SKIINGHB.png,,,,,,,m,0,1.0168,,,,,,,,0,157,157,101,1
,,,,,,,,,,,,,,,,,200086,19,2022-01-28_23h08.54.027,lexical_decision_task_DD_L6,2021.2.3,MacIntel,60.0024001,,,,,,,,,,,0.7876,1,,,,,,,,,,,,,,,,,,,,,,,,0.799978299,-0.284769965,0,0,0,,,,,,,KIDNEY,LB,z,y,./images/KIDNEYLB.png,,,,,,,z,1,0.7876,,,,,,,,0,158,158,105,1
,,,,,,,,,,,,,,,,,200086,19,2022-01-28_23h08.54.027,lexical_decision_task_DD_L6,2021.2.3,MacIntel,60.0024001,,,,,,,,,,,0.8957,1,,,,,,,,,,,,,,,,,,,,,,,,0.799978299,-0.284769965,0,0,0,,,,,,,POODLE,LB,z,y,./images/POODLELB.png,,,,,,,z,1,0.8957,,,,,,,,0,159,159,165,1
,,,,,,,,,,,,,,,,,200086,19,2022-01-28_23h08.54.027,lexical_decision_task_DD_L6,2021.2.3,MacIntel,60.0024001,,,,,,,,,,,1.1131,1,,,,,,,,,,,,,,,,,,,,,,,,0.799978299,-0.284769965,0,0,0,,,,,,,SPORT,LB,z,y,./images/SPORTLB.png,,,,,,,z,1,1.1131,,,,,,,,0,160,160,132,1
,,,,,,,,,,,,,,,,,200086,19,2022-01-28_23h08.54.027,lexical_decision_task_DD_L6,2021.2.3,MacIntel,60.0024001,,,,,,,,,,,0.7647,0,,,,,,,,,,,,,,,,,,,,,,,,0.799978299,-0.284769965,0,0,0,,,,,,,CANYON,C,z,y,./images/CANYON.png,,,,,,,m,0,0.7647,,,,,,,,0,161,161,118,1
,,,,,,,,,,,,,,,,,200086,19,2022-01-28_23h08.54.027,lexical_decision_task_DD_L6,2021.2.3,MacIntel,60.0024001,,,,,,,,,,,0.9987,1,,,,,,,,,,,,,,,,,,,,,,,,0.799978299,-0.284769965,0,0,0,,,,,,,MIDGET,C,m,y,./images/MIDGET.png,,,,,,,m,1,0.9987,,,,,,,,0,162,162,76,1
,,,,,,,,,,,,,,,,,200086,19,2022-01-28_23h08.54.027,lexical_decision_task_DD_L6,2021.2.3,MacIntel,60.0024001,,,,,,,,,,,0.9483,0,,,,,,,,,,,,,,,,,,,,,,,,0.799978299,-0.284769965,0,0,0,,,,,,,TORCH,HB,z,y,./images/TORCHHB.png,,,,,,,m,0,0.9483,,,,,,,,0,163,163,152,1
,,,,,,,,,,,,,,,,,200086,19,2022-01-28_23h08.54.027,lexical_decision_task_DD_L6,2021.2.3,MacIntel,60.0024001,,,,,,,,,,,0.9011,1,,,,,,,,,,,,,,,,,,,,,,,,0.799978299,-0.284769965,0,0,0,,,,,,,STRING,HB,z,y,./images/STRINGHB.png,,,,,,,z,1,0.9011,,,,,,,,0,164,164,125,1
,,,,,,,,,,,,,,,,,200086,19,2022-01-28_23h08.54.027,lexical_decision_task_DD_L6,2021.2.3,MacIntel,60.0024001,,,,,,,,,,,0.765,1,,,,,,,,,,,,,,,,,,,,,,,,0.799978299,-0.284769965,0,0,0,,,,,,,LIZARD,HB,z,y,./images/LIZARDHB.png,,,,,,,z,1,0.765,,,,,,,,0,165,165,128,1
,,,,,,,,,,,,,,,,,200086,19,2022-01-28_23h08.54.027,lexical_decision_task_DD_L6,2021.2.3,MacIntel,60.0024001,,,,,,,,,,,0.6486,1,,,,,,,,,,,,,,,,,,,,,,,,0.799978299,-0.284769965,0,0,0,,,,,,,WEASEL,HB,z,y,./images/WEASELHB.png,,,,,,,z,1,0.6486,,,,,,,,0,166,166,164,1
,,,,,,,,,,,,,,,,,200086,19,2022-01-28_23h08.54.027,lexical_decision_task_DD_L6,2021.2.3,MacIntel,60.0024001,,,,,,,,,,,1.2322,0,,,,,,,,,,,,,,,,,,,,,,,,0.799978299,-0.284769965,0,0,0,,,,,,,TIGER,C,m,y,./images/TIGER.png,,,,,,,z,0,1.2322,,,,,,,,0,167,167,37,1
