key_resp.keys,instr_done_touch.x,instr_done_touch.y,instr_done_touch.leftButton,instr_done_touch.midButton,instr_done_touch.rightButton,instr_done_touch.clicked_name,instruction_pages.thisRepN,instruction_pages.thisTrialN,instruction_pages.thisN,instruction_pages.thisIndex,instruction_pages.ran,pageN,phase,instruct_text,has_image,instruct_image,participant,age,date,expName,psychopyVersion,OS,frameRate,key_resp.rt,response.keys,response.corr,response.rt,touch_resp.x,touch_resp.y,touch_resp.leftButton,touch_resp.midButton,touch_resp.rightButton,touch_resp.time,touch_resp.clicked_name,rt,corr,practrials.thisRepN,practrials.thisTrialN,practrials.thisN,practrials.thisIndex,practrials.ran,TrialID,Target,corrAns,end_of_practice_trials_pages.thisRepN,end_of_practice_trials_pages.thisTrialN,end_of_practice_trials_pages.thisN,end_of_practice_trials_pages.thisIndex,end_of_practice_trials_pages.ran,key_resp_2.keys,key_resp_2.corr,key_resp_2.rt,targ_click.x,targ_click.y,targ_click.leftButton,targ_click.midButton,targ_click.rightButton,targ_click.time,targ_click.clicked_name,break_done_touch.x,break_done_touch.y,break_done_touch.leftButton,break_done_touch.midButton,break_done_touch.rightButton,break_done_keyboard.keys,maintrials.thisRepN,maintrials.thisTrialN,maintrials.thisN,maintrials.thisIndex,maintrials.ran,string,blur,study,lex,stim_path,break_done_keyboard.rt,break_done_touch.clicked_name,test_instructions.thisRepN,test_instructions.thisTrialN,test_instructions.thisN,test_instructions.thisIndex,test_instructions.ran,key_resp_3.keys,key_resp_3.corr,key_resp_3.rt,test_click.x,test_click.y,test_click.leftButton,test_click.midButton,test_click.rightButton,test_click.time,test_click.clicked_name,test_phase.thisRepN,test_phase.thisTrialN,test_phase.thisN,test_phase.thisIndex,test_phase.ran
,0.052222222,-0.365555556,1,0,0,instr_done_button,0,0,0,0,1,1,instructions,"INSTRUCTIONS
At the start of each trial, look at the plus sign  (+) in the center of the screen.  This tells you that a trial is about to begin and where to look. Second, the plus sign will disappear and a string of letters will appear. Your task is to determine if the string of letters is a word or not. If the item is a word press the M key (on keyboard)  or touch the word button (phone/tablet).  If the item is not a word,  press the  Z key (on keyboard)  or touch the nonword button (on phone/tablet). 
Press the space bar or touch  continue.",0,,200065,18,2022-01-28_15h57.06,lexical_decision_task_DD_L3,2021.2.3,MacIntel,58.82352941,,,,,,,,,,,,,,,,,,,,,,,,,,,,,,,,,,,,,,,,,,,,,,,,,,,,,,,,,,,,,,,,,,,,,,,,,,
,0.044444444,-0.404444444,1,0,0,instr_done_button,0,1,1,1,1,2,instructions,"If your device has a keyboard, press the 'Z' key for nonwords and the 'M' key for words.





Press the space bar or touch the button below to continue.",0,keyboard-example.gif,200065,18,2022-01-28_15h57.06,lexical_decision_task_DD_L3,2021.2.3,MacIntel,58.82352941,,,,,,,,,,,,,,,,,,,,,,,,,,,,,,,,,,,,,,,,,,,,,,,,,,,,,,,,,,,,,,,,,,,,,,,,,,
space,-0.018888889,-0.395555556,0,0,0,,0,2,2,2,1,3,instructions,"If you are using a touchscreen only device, use the buttons on the screen. Do not use the mouse.





Press the space bar or touch the button below to continue.",0,touchscreen-example.gif,200065,18,2022-01-28_15h57.06,lexical_decision_task_DD_L3,2021.2.3,MacIntel,58.82352941,1.921,,,,,,,,,,,,,,,,,,,,,,,,,,,,,,,,,,,,,,,,,,,,,,,,,,,,,,,,,,,,,,,,,,,,,,,,,
space,-0.018888889,-0.395555556,0,0,0,,0,3,3,3,1,4,instructions,"It is very important that you respond as quickly and accurately as possible, as each letter string will only be on the screen for two seconds. If you do not respond within this time, the message 'Too slow!' will be displayed and the experiment will progress to the next letter string. The first 20 trials will be practice trials and you will receive feedback on your answers. 

Press the space bar or touch the button below to start the practice trials.",0,,200065,18,2022-01-28_15h57.06,lexical_decision_task_DD_L3,2021.2.3,MacIntel,58.82352941,9.152,,,,,,,,,,,,,,,,,,,,,,,,,,,,,,,,,,,,,,,,,,,,,,,,,,,,,,,,,,,,,,,,,,,,,,,,,
,,,,,,,,,,,,,,,,,200065,18,2022-01-28_15h57.06,lexical_decision_task_DD_L3,2021.2.3,MacIntel,58.82352941,,m,1,1.342,,,,,,,,1.342,1,0,0,0,3,1,1001,MATRIX,m,,,,,,,,,,,,,,,,,,,,,,,,,,,,,,,,,,,,,,,,,,,,,,,,,,,,,
,,,,,,,,,,,,,,,,,200065,18,2022-01-28_15h57.06,lexical_decision_task_DD_L3,2021.2.3,MacIntel,58.82352941,,m,1,0.797,,,,,,,,0.797,1,0,1,1,1,1,1001,ADJUST,m,,,,,,,,,,,,,,,,,,,,,,,,,,,,,,,,,,,,,,,,,,,,,,,,,,,,,
,,,,,,,,,,,,,,,,,200065,18,2022-01-28_15h57.06,lexical_decision_task_DD_L3,2021.2.3,MacIntel,58.82352941,,m,1,3.248,,,,,,,,3.248,1,0,2,2,4,1,1001,SQUEAK,m,,,,,,,,,,,,,,,,,,,,,,,,,,,,,,,,,,,,,,,,,,,,,,,,,,,,,
,,,,,,,,,,,,,,,,,200065,18,2022-01-28_15h57.06,lexical_decision_task_DD_L3,2021.2.3,MacIntel,58.82352941,,z,1,2.289,,,,,,,,2.289,1,0,3,3,8,1,1001,ASLERT,z,,,,,,,,,,,,,,,,,,,,,,,,,,,,,,,,,,,,,,,,,,,,,,,,,,,,,
,,,,,,,,,,,,,,,,,200065,18,2022-01-28_15h57.06,lexical_decision_task_DD_L3,2021.2.3,MacIntel,58.82352941,,m,1,0.808,,,,,,,,0.808,1,0,4,4,2,1,1001,ALMOND,m,,,,,,,,,,,,,,,,,,,,,,,,,,,,,,,,,,,,,,,,,,,,,,,,,,,,,
,,,,,,,,,,,,,,,,,200065,18,2022-01-28_15h57.06,lexical_decision_task_DD_L3,2021.2.3,MacIntel,58.82352941,,z,1,1.282,,,,,,,,1.282,1,0,5,5,11,1,1001,RASHET,z,,,,,,,,,,,,,,,,,,,,,,,,,,,,,,,,,,,,,,,,,,,,,,,,,,,,,
,,,,,,,,,,,,,,,,,200065,18,2022-01-28_15h57.06,lexical_decision_task_DD_L3,2021.2.3,MacIntel,58.82352941,,z,1,1.641,,,,,,,,1.641,1,0,6,6,13,1,1001,ROUPET,z,,,,,,,,,,,,,,,,,,,,,,,,,,,,,,,,,,,,,,,,,,,,,,,,,,,,,
,,,,,,,,,,,,,,,,,200065,18,2022-01-28_15h57.06,lexical_decision_task_DD_L3,2021.2.3,MacIntel,58.82352941,,z,1,1.158,,,,,,,,1.158,1,0,7,7,12,1,1001,SPRINY,z,,,,,,,,,,,,,,,,,,,,,,,,,,,,,,,,,,,,,,,,,,,,,,,,,,,,,
,,,,,,,,,,,,,,,,,200065,18,2022-01-28_15h57.06,lexical_decision_task_DD_L3,2021.2.3,MacIntel,58.82352941,,z,1,1.264,,,,,,,,1.264,1,0,8,8,9,1,1001,FARINY,z,,,,,,,,,,,,,,,,,,,,,,,,,,,,,,,,,,,,,,,,,,,,,,,,,,,,,
,,,,,,,,,,,,,,,,,200065,18,2022-01-28_15h57.06,lexical_decision_task_DD_L3,2021.2.3,MacIntel,58.82352941,,m,1,0.641,,,,,,,,0.641,1,0,9,9,7,1,1001,VOLUME,m,,,,,,,,,,,,,,,,,,,,,,,,,,,,,,,,,,,,,,,,,,,,,,,,,,,,,
,,,,,,,,,,,,,,,,,200065,18,2022-01-28_15h57.06,lexical_decision_task_DD_L3,2021.2.3,MacIntel,58.82352941,,z,1,0.881,,,,,,,,0.881,1,0,10,10,14,1,1001,THRALE,z,,,,,,,,,,,,,,,,,,,,,,,,,,,,,,,,,,,,,,,,,,,,,,,,,,,,,
,,,,,,,,,,,,,,,,,200065,18,2022-01-28_15h57.06,lexical_decision_task_DD_L3,2021.2.3,MacIntel,58.82352941,,m,1,1.124,,,,,,,,1.124,1,0,11,11,0,1,1001,UTOPIA,m,,,,,,,,,,,,,,,,,,,,,,,,,,,,,,,,,,,,,,,,,,,,,,,,,,,,,
,,,,,,,,,,,,,,,,,200065,18,2022-01-28_15h57.06,lexical_decision_task_DD_L3,2021.2.3,MacIntel,58.82352941,,m,1,0.639,,,,,,,,0.639,1,0,12,12,6,1,1001,ZOMBIE,m,,,,,,,,,,,,,,,,,,,,,,,,,,,,,,,,,,,,,,,,,,,,,,,,,,,,,
,,,,,,,,,,,,,,,,,200065,18,2022-01-28_15h57.06,lexical_decision_task_DD_L3,2021.2.3,MacIntel,58.82352941,,z,1,0.829,,,,,,,,0.829,1,0,13,13,10,1,1001,INLADE,z,,,,,,,,,,,,,,,,,,,,,,,,,,,,,,,,,,,,,,,,,,,,,,,,,,,,,
,,,,,,,,,,,,,,,,,200065,18,2022-01-28_15h57.06,lexical_decision_task_DD_L3,2021.2.3,MacIntel,58.82352941,,z,1,0.822,,,,,,,,0.822,1,0,14,14,15,1,1001,WHAISE,z,,,,,,,,,,,,,,,,,,,,,,,,,,,,,,,,,,,,,,,,,,,,,,,,,,,,,
,,,,,,,,,,,,,,,,,200065,18,2022-01-28_15h57.06,lexical_decision_task_DD_L3,2021.2.3,MacIntel,58.82352941,,m,1,0.629,,,,,,,,0.629,1,0,15,15,5,1,1001,OBTAIN,m,,,,,,,,,,,,,,,,,,,,,,,,,,,,,,,,,,,,,,,,,,,,,,,,,,,,,
space,-0.018888889,-0.395555556,0,0,0,,,,,,,1,end_of_practice,"You have completed the practice trials. During the experimental trials, you will not receive feedback. 
Before you begin, please ensure that you are in a comfortable and quiet location and will not be disturbed for about 15 minutes, as we cannot use your data if you do not complete all the trials. 
 When you are ready to start the experimental trials, please press space or touch the button below.",,,200065,18,2022-01-28_15h57.06,lexical_decision_task_DD_L3,2021.2.3,MacIntel,58.82352941,11.85,,,,,,,,,,,,,,,,,,,,,0,0,0,0,1,,,,,,,,,,,,,,,,,,,,,,,,,,,,,,,,,,,,,,,,,,,,,,,,
,,,,,,,,,,,,,,,,,200065,18,2022-01-28_15h57.06,lexical_decision_task_DD_L3,2021.2.3,MacIntel,58.82352941,,,,,,,,,,,,2.484,1,,,,,,,,,,,,,,z,1,2.484,,,,,,,,-0.018888889,-0.395555556,0,0,0,,0,0,0,85,1,CHULK,HB,old,z,./images/CHULKHB.png,,,,,,,,,,,,,,,,,,,,,,
,,,,,,,,,,,,,,,,,200065,18,2022-01-28_15h57.06,lexical_decision_task_DD_L3,2021.2.3,MacIntel,58.82352941,,,,,,,,,,,,2.398,1,,,,,,,,,,,,,,z,1,2.398,,,,,,,,-0.018888889,-0.395555556,0,0,0,,0,1,1,102,1,DULLE,C,old,z,./images/DULLE.png,,,,,,,,,,,,,,,,,,,,,,
,,,,,,,,,,,,,,,,,200065,18,2022-01-28_15h57.06,lexical_decision_task_DD_L3,2021.2.3,MacIntel,58.82352941,,,,,,,,,,,,3.579,1,,,,,,,,,,,,,,z,1,3.579,,,,,,,,-0.018888889,-0.395555556,0,0,0,,0,2,2,151,1,TINKY,HB,old,z,./images/TINKYHB.png,,,,,,,,,,,,,,,,,,,,,,
,,,,,,,,,,,,,,,,,200065,18,2022-01-28_15h57.06,lexical_decision_task_DD_L3,2021.2.3,MacIntel,58.82352941,,,,,,,,,,,,2.616,1,,,,,,,,,,,,,,z,1,2.616,,,,,,,,-0.018888889,-0.395555556,0,0,0,,0,3,3,106,1,CLUMS,HB,old,z,./images/CLUMSHB.png,,,,,,,,,,,,,,,,,,,,,,
,,,,,,,,,,,,,,,,,200065,18,2022-01-28_15h57.06,lexical_decision_task_DD_L3,2021.2.3,MacIntel,58.82352941,,,,,,,,,,,,0.782,1,,,,,,,,,,,,,,m,1,0.782,,,,,,,,-0.018888889,-0.395555556,0,0,0,,0,4,4,0,1,TOMATO,LB,old,m,./images/TOMATOLB.png,,,,,,,,,,,,,,,,,,,,,,
,,,,,,,,,,,,,,,,,200065,18,2022-01-28_15h57.06,lexical_decision_task_DD_L3,2021.2.3,MacIntel,58.82352941,,,,,,,,,,,,0.85,1,,,,,,,,,,,,,,m,1,0.85,,,,,,,,-0.018888889,-0.395555556,0,0,0,,0,5,5,52,1,BANNER,C,old,m,./images/BANNER.png,,,,,,,,,,,,,,,,,,,,,,
,,,,,,,,,,,,,,,,,200065,18,2022-01-28_15h57.06,lexical_decision_task_DD_L3,2021.2.3,MacIntel,58.82352941,,,,,,,,,,,,1.212,1,,,,,,,,,,,,,,z,1,1.212,,,,,,,,-0.018888889,-0.395555556,0,0,0,,0,6,6,113,1,LINEW,LB,old,z,./images/LINEWLB.png,,,,,,,,,,,,,,,,,,,,,,
,,,,,,,,,,,,,,,,,200065,18,2022-01-28_15h57.06,lexical_decision_task_DD_L3,2021.2.3,MacIntel,58.82352941,,,,,,,,,,,,0.888,1,,,,,,,,,,,,,,m,1,0.888,,,,,,,,-0.018888889,-0.395555556,0,0,0,,0,7,7,57,1,MOOSE,LB,old,m,./images/MOOSELB.png,,,,,,,,,,,,,,,,,,,,,,
,,,,,,,,,,,,,,,,,200065,18,2022-01-28_15h57.06,lexical_decision_task_DD_L3,2021.2.3,MacIntel,58.82352941,,,,,,,,,,,,1.307,1,,,,,,,,,,,,,,m,1,1.307,,,,,,,,-0.018888889,-0.395555556,0,0,0,,0,8,8,26,1,SMOKER,HB,old,m,./images/SMOKERHB.png,,,,,,,,,,,,,,,,,,,,,,
,,,,,,,,,,,,,,,,,200065,18,2022-01-28_15h57.06,lexical_decision_task_DD_L3,2021.2.3,MacIntel,58.82352941,,,,,,,,,,,,1.09,1,,,,,,,,,,,,,,z,1,1.09,,,,,,,,-0.018888889,-0.395555556,0,0,0,,0,9,9,161,1,BLAPS,LB,old,z,./images/BLAPSLB.png,,,,,,,,,,,,,,,,,,,,,,
,,,,,,,,,,,,,,,,,200065,18,2022-01-28_15h57.06,lexical_decision_task_DD_L3,2021.2.3,MacIntel,58.82352941,,,,,,,,,,,,1.208,1,,,,,,,,,,,,,,m,1,1.208,,,,,,,,-0.018888889,-0.395555556,0,0,0,,0,10,10,30,1,STORM,LB,old,m,./images/STORMLB.png,,,,,,,,,,,,,,,,,,,,,,
,,,,,,,,,,,,,,,,,200065,18,2022-01-28_15h57.06,lexical_decision_task_DD_L3,2021.2.3,MacIntel,58.82352941,,,,,,,,,,,,0.848,1,,,,,,,,,,,,,,m,1,0.848,,,,,,,,-0.018888889,-0.395555556,0,0,0,,0,11,11,75,1,GRAIN,LB,old,m,./images/GRAINLB.png,,,,,,,,,,,,,,,,,,,,,,
,,,,,,,,,,,,,,,,,200065,18,2022-01-28_15h57.06,lexical_decision_task_DD_L3,2021.2.3,MacIntel,58.82352941,,,,,,,,,,,,1.099,1,,,,,,,,,,,,,,z,1,1.099,,,,,,,,-0.018888889,-0.395555556,0,0,0,,0,12,12,149,1,VEASE,LB,old,z,./images/VEASELB.png,,,,,,,,,,,,,,,,,,,,,,
,,,,,,,,,,,,,,,,,200065,18,2022-01-28_15h57.06,lexical_decision_task_DD_L3,2021.2.3,MacIntel,58.82352941,,,,,,,,,,,,1.115,1,,,,,,,,,,,,,,m,1,1.115,,,,,,,,-0.018888889,-0.395555556,0,0,0,,0,13,13,8,1,TULIP,HB,old,m,./images/TULIPHB.png,,,,,,,,,,,,,,,,,,,,,,
,,,,,,,,,,,,,,,,,200065,18,2022-01-28_15h57.06,lexical_decision_task_DD_L3,2021.2.3,MacIntel,58.82352941,,,,,,,,,,,,1.214,1,,,,,,,,,,,,,,m,1,1.214,,,,,,,,-0.018888889,-0.395555556,0,0,0,,0,14,14,74,1,CEMENT,HB,old,m,./images/CEMENTHB.png,,,,,,,,,,,,,,,,,,,,,,
,,,,,,,,,,,,,,,,,200065,18,2022-01-28_15h57.06,lexical_decision_task_DD_L3,2021.2.3,MacIntel,58.82352941,,,,,,,,,,,,0.697,1,,,,,,,,,,,,,,m,1,0.697,,,,,,,,-0.018888889,-0.395555556,0,0,0,,0,15,15,79,1,CRUST,C,old,m,./images/CRUST.png,,,,,,,,,,,,,,,,,,,,,,
,,,,,,,,,,,,,,,,,200065,18,2022-01-28_15h57.06,lexical_decision_task_DD_L3,2021.2.3,MacIntel,58.82352941,,,,,,,,,,,,22.691,1,,,,,,,,,,,,,,m,1,22.691,,,,,,,,0.232222222,-0.007777778,0,0,0,,0,16,16,47,1,BERRY,HB,old,m,./images/BERRYHB.png,,,,,,,,,,,,,,,,,,,,,,
,,,,,,,,,,,,,,,,,200065,18,2022-01-28_15h57.06,lexical_decision_task_DD_L3,2021.2.3,MacIntel,58.82352941,,,,,,,,,,,,1.156,1,,,,,,,,,,,,,,z,1,1.156,,,,,,,,0.232222222,-0.007777778,0,0,0,,0,17,17,97,1,CHIDS,HB,old,z,./images/CHIDSHB.png,,,,,,,,,,,,,,,,,,,,,,
,,,,,,,,,,,,,,,,,200065,18,2022-01-28_15h57.06,lexical_decision_task_DD_L3,2021.2.3,MacIntel,58.82352941,,,,,,,,,,,,1.048,1,,,,,,,,,,,,,,z,1,1.048,,,,,,,,0.232222222,-0.007777778,0,0,0,,0,18,18,129,1,PRANS,C,old,z,./images/PRANS.png,,,,,,,,,,,,,,,,,,,,,,
,,,,,,,,,,,,,,,,,200065,18,2022-01-28_15h57.06,lexical_decision_task_DD_L3,2021.2.3,MacIntel,58.82352941,,,,,,,,,,,,1.29,1,,,,,,,,,,,,,,z,1,1.29,,,,,,,,0.232222222,-0.007777778,0,0,0,,0,19,19,143,1,MONGS,LB,old,z,./images/MONGSLB.png,,,,,,,,,,,,,,,,,,,,,,
,,,,,,,,,,,,,,,,,200065,18,2022-01-28_15h57.06,lexical_decision_task_DD_L3,2021.2.3,MacIntel,58.82352941,,,,,,,,,,,,0.796,1,,,,,,,,,,,,,,z,1,0.796,,,,,,,,0.232222222,-0.007777778,0,0,0,,0,20,20,110,1,CRUNK,LB,old,z,./images/CRUNKLB.png,,,,,,,,,,,,,,,,,,,,,,
,,,,,,,,,,,,,,,,,200065,18,2022-01-28_15h57.06,lexical_decision_task_DD_L3,2021.2.3,MacIntel,58.82352941,,,,,,,,,,,,0.98,1,,,,,,,,,,,,,,m,1,0.98,,,,,,,,0.232222222,-0.007777778,0,0,0,,0,21,21,71,1,PIMPLE,HB,old,m,./images/PIMPLEHB.png,,,,,,,,,,,,,,,,,,,,,,
,,,,,,,,,,,,,,,,,200065,18,2022-01-28_15h57.06,lexical_decision_task_DD_L3,2021.2.3,MacIntel,58.82352941,,,,,,,,,,,,1.199,1,,,,,,,,,,,,,,m,1,1.199,,,,,,,,0.232222222,-0.007777778,0,0,0,,0,22,22,58,1,BABOON,C,old,m,./images/BABOON.png,,,,,,,,,,,,,,,,,,,,,,
,,,,,,,,,,,,,,,,,200065,18,2022-01-28_15h57.06,lexical_decision_task_DD_L3,2021.2.3,MacIntel,58.82352941,,,,,,,,,,,,0.633,1,,,,,,,,,,,,,,m,1,0.633,,,,,,,,0.232222222,-0.007777778,0,0,0,,0,23,23,61,1,CANDLE,C,old,m,./images/CANDLE.png,,,,,,,,,,,,,,,,,,,,,,
,,,,,,,,,,,,,,,,,200065,18,2022-01-28_15h57.06,lexical_decision_task_DD_L3,2021.2.3,MacIntel,58.82352941,,,,,,,,,,,,0.865,1,,,,,,,,,,,,,,m,1,0.865,,,,,,,,0.232222222,-0.007777778,0,0,0,,0,24,24,9,1,RHINO,LB,old,m,./images/RHINOLB.png,,,,,,,,,,,,,,,,,,,,,,
,,,,,,,,,,,,,,,,,200065,18,2022-01-28_15h57.06,lexical_decision_task_DD_L3,2021.2.3,MacIntel,58.82352941,,,,,,,,,,,,0.552,1,,,,,,,,,,,,,,m,1,0.552,,,,,,,,0.232222222,-0.007777778,0,0,0,,0,25,25,63,1,MIRROR,LB,old,m,./images/MIRRORLB.png,,,,,,,,,,,,,,,,,,,,,,
,,,,,,,,,,,,,,,,,200065,18,2022-01-28_15h57.06,lexical_decision_task_DD_L3,2021.2.3,MacIntel,58.82352941,,,,,,,,,,,,1.023,1,,,,,,,,,,,,,,z,1,1.023,,,,,,,,0.232222222,-0.007777778,0,0,0,,0,26,26,144,1,NAIRY,C,old,z,./images/NAIRY.png,,,,,,,,,,,,,,,,,,,,,,
,,,,,,,,,,,,,,,,,200065,18,2022-01-28_15h57.06,lexical_decision_task_DD_L3,2021.2.3,MacIntel,58.82352941,,,,,,,,,,,,1.206,1,,,,,,,,,,,,,,m,1,1.206,,,,,,,,0.232222222,-0.007777778,0,0,0,,0,27,27,28,1,FALCON,C,old,m,./images/FALCON.png,,,,,,,,,,,,,,,,,,,,,,
,,,,,,,,,,,,,,,,,200065,18,2022-01-28_15h57.06,lexical_decision_task_DD_L3,2021.2.3,MacIntel,58.82352941,,,,,,,,,,,,0.656,1,,,,,,,,,,,,,,z,1,0.656,,,,,,,,0.232222222,-0.007777778,0,0,0,,0,28,28,90,1,NEAST,C,old,z,./images/NEAST.png,,,,,,,,,,,,,,,,,,,,,,
,,,,,,,,,,,,,,,,,200065,18,2022-01-28_15h57.06,lexical_decision_task_DD_L3,2021.2.3,MacIntel,58.82352941,,,,,,,,,,,,0.563,1,,,,,,,,,,,,,,m,1,0.563,,,,,,,,0.232222222,-0.007777778,0,0,0,,0,29,29,69,1,COOKER,LB,old,m,./images/COOKERLB.png,,,,,,,,,,,,,,,,,,,,,,
,,,,,,,,,,,,,,,,,200065,18,2022-01-28_15h57.06,lexical_decision_task_DD_L3,2021.2.3,MacIntel,58.82352941,,,,,,,,,,,,0.697,1,,,,,,,,,,,,,,z,1,0.697,,,,,,,,0.232222222,-0.007777778,0,0,0,,0,30,30,140,1,DOVET,LB,old,z,./images/DOVETLB.png,,,,,,,,,,,,,,,,,,,,,,
,,,,,,,,,,,,,,,,,200065,18,2022-01-28_15h57.06,lexical_decision_task_DD_L3,2021.2.3,MacIntel,58.82352941,,,,,,,,,,,,0.84,1,,,,,,,,,,,,,,m,1,0.84,,,,,,,,0.232222222,-0.007777778,0,0,0,,0,31,31,44,1,LIZARD,HB,old,m,./images/LIZARDHB.png,,,,,,,,,,,,,,,,,,,,,,
,,,,,,,,,,,,,,,,,200065,18,2022-01-28_15h57.06,lexical_decision_task_DD_L3,2021.2.3,MacIntel,58.82352941,,,,,,,,,,,,1.248,0,,,,,,,,,,,,,,m,0,1.248,,,,,,,,0.232222222,-0.007777778,0,0,0,,0,32,32,127,1,NINDY,HB,old,z,./images/NINDYHB.png,,,,,,,,,,,,,,,,,,,,,,
,,,,,,,,,,,,,,,,,200065,18,2022-01-28_15h57.06,lexical_decision_task_DD_L3,2021.2.3,MacIntel,58.82352941,,,,,,,,,,,,0.656,1,,,,,,,,,,,,,,m,1,0.656,,,,,,,,0.232222222,-0.007777778,0,0,0,,0,33,33,10,1,BELLY,C,old,m,./images/BELLY.png,,,,,,,,,,,,,,,,,,,,,,
,,,,,,,,,,,,,,,,,200065,18,2022-01-28_15h57.06,lexical_decision_task_DD_L3,2021.2.3,MacIntel,58.82352941,,,,,,,,,,,,0.609,1,,,,,,,,,,,,,,m,1,0.609,,,,,,,,0.232222222,-0.007777778,0,0,0,,0,34,34,76,1,INFANT,C,old,m,./images/INFANT.png,,,,,,,,,,,,,,,,,,,,,,
,,,,,,,,,,,,,,,,,200065,18,2022-01-28_15h57.06,lexical_decision_task_DD_L3,2021.2.3,MacIntel,58.82352941,,,,,,,,,,,,9.609,1,,,,,,,,,,,,,,m,1,9.609,0.52,-0.086666667,1,0,0,7.098,,0.144444444,-0.238888889,0,0,0,,0,35,35,39,1,SHELF,LB,old,m,./images/SHELFLB.png,,,,,,,,,,,,,,,,,,,,,,
,,,,,,,,,,,,,,,,,200065,18,2022-01-28_15h57.06,lexical_decision_task_DD_L3,2021.2.3,MacIntel,58.82352941,,,,,,,,,,,,1.09,1,,,,,,,,,,,,,,m,1,1.09,,,,,,,,0.144444444,-0.238888889,0,0,0,,0,36,36,29,1,CRUMB,HB,old,m,./images/CRUMBHB.png,,,,,,,,,,,,,,,,,,,,,,
,,,,,,,,,,,,,,,,,200065,18,2022-01-28_15h57.06,lexical_decision_task_DD_L3,2021.2.3,MacIntel,58.82352941,,,,,,,,,,,,0.977,1,,,,,,,,,,,,,,z,1,0.977,,,,,,,,0.144444444,-0.238888889,0,0,0,,0,37,37,100,1,DRIBS,HB,old,z,./images/DRIBSHB.png,,,,,,,,,,,,,,,,,,,,,,
,,,,,,,,,,,,,,,,,200065,18,2022-01-28_15h57.06,lexical_decision_task_DD_L3,2021.2.3,MacIntel,58.82352941,,,,,,,,,,,,0.78,1,,,,,,,,,,,,,,z,1,0.78,,,,,,,,0.144444444,-0.238888889,0,0,0,,0,38,38,146,1,MOOST,LB,old,z,./images/MOOSTLB.png,,,,,,,,,,,,,,,,,,,,,,
,,,,,,,,,,,,,,,,,200065,18,2022-01-28_15h57.06,lexical_decision_task_DD_L3,2021.2.3,MacIntel,58.82352941,,,,,,,,,,,,0.676,1,,,,,,,,,,,,,,z,1,0.676,,,,,,,,0.144444444,-0.238888889,0,0,0,,0,39,39,101,1,GLEET,LB,old,z,./images/GLEETLB.png,,,,,,,,,,,,,,,,,,,,,,
,,,,,,,,,,,,,,,,,200065,18,2022-01-28_15h57.06,lexical_decision_task_DD_L3,2021.2.3,MacIntel,58.82352941,,,,,,,,,,,,0.704,1,,,,,,,,,,,,,,m,1,0.704,,,,,,,,0.144444444,-0.238888889,0,0,0,,0,40,40,24,1,SCREW,LB,old,m,./images/SCREWLB.png,,,,,,,,,,,,,,,,,,,,,,
,,,,,,,,,,,,,,,,,200065,18,2022-01-28_15h57.06,lexical_decision_task_DD_L3,2021.2.3,MacIntel,58.82352941,,,,,,,,,,,,0.492,1,,,,,,,,,,,,,,m,1,0.492,,,,,,,,-0.279472954,-0.264216366,0,0,0,space,0,41,41,48,1,SPORT,LB,old,m,./images/SPORTLB.png,50.392,,,,,,,,,,,,,,,,,,,,,
,,,,,,,,,,,,,,,,,200065,18,2022-01-28_15h57.06,lexical_decision_task_DD_L3,2021.2.3,MacIntel,58.82352941,,,,,,,,,,,,1.361,1,,,,,,,,,,,,,,z,1,1.361,,,,,,,,-0.279472954,-0.264216366,0,0,0,,0,42,42,84,1,HAXES,C,old,z,./images/HAXES.png,,,,,,,,,,,,,,,,,,,,,,
,,,,,,,,,,,,,,,,,200065,18,2022-01-28_15h57.06,lexical_decision_task_DD_L3,2021.2.3,MacIntel,58.82352941,,,,,,,,,,,,13.584,1,,,,,,,,,,,,,,z,1,13.584,,,,,,,,-0.121359223,-0.144937587,0,0,0,,0,43,43,118,1,BAVEL,HB,old,z,./images/BAVELHB.png,,,,,,,,,,,,,,,,,,,,,,
,,,,,,,,,,,,,,,,,200065,18,2022-01-28_15h57.06,lexical_decision_task_DD_L3,2021.2.3,MacIntel,58.82352941,,,,,,,,,,,,0.711,1,,,,,,,,,,,,,,m,1,0.711,,,,,,,,-0.121359223,-0.144937587,0,0,0,,0,44,44,82,1,SUNSET,C,old,m,./images/SUNSET.png,,,,,,,,,,,,,,,,,,,,,,
,,,,,,,,,,,,,,,,,200065,18,2022-01-28_15h57.06,lexical_decision_task_DD_L3,2021.2.3,MacIntel,58.82352941,,,,,,,,,,,,0.807,1,,,,,,,,,,,,,,z,1,0.807,,,,,,,,-0.119972261,-0.146324549,0,0,0,,0,45,45,131,1,NACES,LB,old,z,./images/NACESLB.png,,,,,,,,,,,,,,,,,,,,,,
,,,,,,,,,,,,,,,,,200065,18,2022-01-28_15h57.06,lexical_decision_task_DD_L3,2021.2.3,MacIntel,58.82352941,,,,,,,,,,,,1.912,1,,,,,,,,,,,,,,z,1,1.912,-0.121359223,-0.153259362,1,0,0,0.815,,-0.121359223,-0.153259362,0,0,0,,0,46,46,89,1,DRIEK,LB,old,z,./images/DRIEKLB.png,,,,,,,,,,,,,,,,,,,,,,
,,,,,,,,,,,,,,,,,200065,18,2022-01-28_15h57.06,lexical_decision_task_DD_L3,2021.2.3,MacIntel,58.82352941,,,,,,,,,,,,0.714,1,,,,,,,,,,,,,,m,1,0.714,,,,,,,,-0.121359223,-0.153259362,0,0,0,,0,47,47,77,1,COUCH,HB,old,m,./images/COUCHHB.png,,,,,,,,,,,,,,,,,,,,,,
,,,,,,,,,,,,,,,,,200065,18,2022-01-28_15h57.06,lexical_decision_task_DD_L3,2021.2.3,MacIntel,58.82352941,,,,,,,,,,,,0.714,0,,,,,,,,,,,,,,z,0,0.714,,,,,,,,-0.121359223,-0.153259362,0,0,0,,0,48,48,16,1,PENCE,C,old,m,./images/PENCE.png,,,,,,,,,,,,,,,,,,,,,,
,,,,,,,,,,,,,,,,,200065,18,2022-01-28_15h57.06,lexical_decision_task_DD_L3,2021.2.3,MacIntel,58.82352941,,,,,,,,,,,,0.609,1,,,,,,,,,,,,,,m,1,0.609,,,,,,,,-0.121359223,-0.153259362,0,0,0,,0,49,49,70,1,URINE,C,old,m,./images/URINE.png,,,,,,,,,,,,,,,,,,,,,,
,,,,,,,,,,,,,,,,,200065,18,2022-01-28_15h57.06,lexical_decision_task_DD_L3,2021.2.3,MacIntel,58.82352941,,,,,,,,,,,,0.856,1,,,,,,,,,,,,,,z,1,0.856,,,,,,,,-0.121359223,-0.153259362,0,0,0,,0,50,50,104,1,GITTY,LB,old,z,./images/GITTYLB.png,,,,,,,,,,,,,,,,,,,,,,
,,,,,,,,,,,,,,,,,200065,18,2022-01-28_15h57.06,lexical_decision_task_DD_L3,2021.2.3,MacIntel,58.82352941,,,,,,,,,,,,0.696,1,,,,,,,,,,,,,,z,1,0.696,,,,,,,,-0.121359223,-0.153259362,0,0,0,,0,51,51,137,1,JOOST,LB,old,z,./images/JOOSTLB.png,,,,,,,,,,,,,,,,,,,,,,
,,,,,,,,,,,,,,,,,200065,18,2022-01-28_15h57.06,lexical_decision_task_DD_L3,2021.2.3,MacIntel,58.82352941,,,,,,,,,,,,6.248,1,,,,,,,,,,,,,,z,1,6.248,-0.124133148,-0.151872399,1,0,0,2.966,,-0.125520111,-0.151872399,0,0,0,,0,52,52,142,1,PLASK,HB,old,z,./images/PLASKHB.png,,,,,,,,,,,,,,,,,,,,,,
,,,,,,,,,,,,,,,,,200065,18,2022-01-28_15h57.06,lexical_decision_task_DD_L3,2021.2.3,MacIntel,58.82352941,,,,,,,,,,,,10.117,1,,,,,,,,,,,,,,z,1,10.117,,,,,,,,-0.377947295,0.29889043,0,0,0,,0,53,53,108,1,GRUET,C,old,z,./images/GRUET.png,,,,,,,,,,,,,,,,,,,,,,
,,,,,,,,,,,,,,,,,200065,18,2022-01-28_15h57.06,lexical_decision_task_DD_L3,2021.2.3,MacIntel,58.82352941,,,,,,,,,,,,0.623,1,,,,,,,,,,,,,,m,1,0.623,,,,,,,,-0.377947295,0.29889043,0,0,0,,0,54,54,66,1,SWEAT,LB,old,m,./images/SWEATLB.png,,,,,,,,,,,,,,,,,,,,,,
,,,,,,,,,,,,,,,,,200065,18,2022-01-28_15h57.06,lexical_decision_task_DD_L3,2021.2.3,MacIntel,58.82352941,,,,,,,,,,,,0.689,1,,,,,,,,,,,,,,z,1,0.689,,,,,,,,-0.377947295,0.29889043,0,0,0,,0,55,55,95,1,HANTY,LB,old,z,./images/HANTYLB.png,,,,,,,,,,,,,,,,,,,,,,
,,,,,,,,,,,,,,,,,200065,18,2022-01-28_15h57.06,lexical_decision_task_DD_L3,2021.2.3,MacIntel,58.82352941,,,,,,,,,,,,0.666,1,,,,,,,,,,,,,,m,1,0.666,,,,,,,,-0.377947295,0.29889043,0,0,0,,0,56,56,5,1,PASTA,HB,old,m,./images/PASTAHB.png,,,,,,,,,,,,,,,,,,,,,,
,,,,,,,,,,,,,,,,,200065,18,2022-01-28_15h57.06,lexical_decision_task_DD_L3,2021.2.3,MacIntel,58.82352941,,,,,,,,,,,,0.791,0,,,,,,,,,,,,,,z,0,0.791,,,,,,,,-0.377947295,0.29889043,0,0,0,,0,57,57,72,1,NOOSE,LB,old,m,./images/NOOSELB.png,,,,,,,,,,,,,,,,,,,,,,
,,,,,,,,,,,,,,,,,200065,18,2022-01-28_15h57.06,lexical_decision_task_DD_L3,2021.2.3,MacIntel,58.82352941,,,,,,,,,,,,2.076,1,,,,,,,,,,,,,,m,1,2.076,,,,,,,,-0.377947295,0.29889043,0,0,0,,0,58,58,54,1,TRIPOD,LB,old,m,./images/TRIPODLB.png,,,,,,,,,,,,,,,,,,,,,,
,,,,,,,,,,,,,,,,,200065,18,2022-01-28_15h57.06,lexical_decision_task_DD_L3,2021.2.3,MacIntel,58.82352941,,,,,,,,,,,,3.982,1,,,,,,,,,,,,,,m,1,3.982,,,,,,,,-0.426294821,0.5,0,0,0,,0,59,59,19,1,DOUGH,C,old,m,./images/DOUGH.png,,,,,,,,,,,,,,,,,,,,,,
,,,,,,,,,,,,,,,,,200065,18,2022-01-28_15h57.06,lexical_decision_task_DD_L3,2021.2.3,MacIntel,58.82352941,,,,,,,,,,,,0.848,1,,,,,,,,,,,,,,m,1,0.848,,,,,,,,-0.426294821,0.5,0,0,0,,0,60,60,50,1,MALLET,HB,old,m,./images/MALLETHB.png,,,,,,,,,,,,,,,,,,,,,,
,,,,,,,,,,,,,,,,,200065,18,2022-01-28_15h57.06,lexical_decision_task_DD_L3,2021.2.3,MacIntel,58.82352941,,,,,,,,,,,,0.607,1,,,,,,,,,,,,,,m,1,0.607,,,,,,,,-0.426294821,0.5,0,0,0,,0,61,61,25,1,WRIST,C,old,m,./images/WRIST.png,,,,,,,,,,,,,,,,,,,,,,
,,,,,,,,,,,,,,,,,200065,18,2022-01-28_15h57.06,lexical_decision_task_DD_L3,2021.2.3,MacIntel,58.82352941,,,,,,,,,,,,0.756,1,,,,,,,,,,,,,,z,1,0.756,,,,,,,,-0.426294821,0.5,0,0,0,,0,62,62,138,1,PLICE,C,old,z,./images/PLICE.png,,,,,,,,,,,,,,,,,,,,,,
,,,,,,,,,,,,,,,,,200065,18,2022-01-28_15h57.06,lexical_decision_task_DD_L3,2021.2.3,MacIntel,58.82352941,,,,,,,,,,,,0.679,1,,,,,,,,,,,,,,m,1,0.679,,,,,,,,-0.426294821,0.5,0,0,0,,0,63,63,64,1,JELLY,C,old,m,./images/JELLY.png,,,,,,,,,,,,,,,,,,,,,,
,,,,,,,,,,,,,,,,,200065,18,2022-01-28_15h57.06,lexical_decision_task_DD_L3,2021.2.3,MacIntel,58.82352941,,,,,,,,,,,,2.346,1,,,,,,,,,,,,,,z,1,2.346,,,,,,,,-0.426294821,0.5,0,0,0,,0,64,64,112,1,MYING,HB,old,z,./images/MYINGHB.png,,,,,,,,,,,,,,,,,,,,,,
,,,,,,,,,,,,,,,,,200065,18,2022-01-28_15h57.06,lexical_decision_task_DD_L3,2021.2.3,MacIntel,58.82352941,,,,,,,,,,,,0.908,1,,,,,,,,,,,,,,m,1,0.908,,,,,,,,-0.426294821,0.5,0,0,0,,0,65,65,32,1,BARREL,HB,old,m,./images/BARRELHB.png,,,,,,,,,,,,,,,,,,,,,,
,,,,,,,,,,,,,,,,,200065,18,2022-01-28_15h57.06,lexical_decision_task_DD_L3,2021.2.3,MacIntel,58.82352941,,,,,,,,,,,,1.274,1,,,,,,,,,,,,,,z,1,1.274,,,,,,,,-0.426294821,0.5,0,0,0,,0,66,66,159,1,CUDDY,C,old,z,./images/CUDDY.png,,,,,,,,,,,,,,,,,,,,,,
,,,,,,,,,,,,,,,,,200065,18,2022-01-28_15h57.06,lexical_decision_task_DD_L3,2021.2.3,MacIntel,58.82352941,,,,,,,,,,,,0.63,1,,,,,,,,,,,,,,m,1,0.63,,,,,,,,-0.426294821,0.5,0,0,0,,0,67,67,27,1,ATTIC,LB,old,m,./images/ATTICLB.png,,,,,,,,,,,,,,,,,,,,,,
,,,,,,,,,,,,,,,,,200065,18,2022-01-28_15h57.06,lexical_decision_task_DD_L3,2021.2.3,MacIntel,58.82352941,,,,,,,,,,,,3.608,0,,,,,,,,,,,,,,z,0,3.608,,,,,,,,-0.426294821,0.5,0,0,0,,0,68,68,31,1,QUILL,C,old,m,./images/QUILL.png,,,,,,,,,,,,,,,,,,,,,,
,,,,,,,,,,,,,,,,,200065,18,2022-01-28_15h57.06,lexical_decision_task_DD_L3,2021.2.3,MacIntel,58.82352941,,,,,,,,,,,,11.112,1,,,,,,,,,,,,,,z,1,11.112,,,,,,,,-0.103585657,-0.299468792,0,0,0,,0,69,69,157,1,INLER,HB,old,z,./images/INLERHB.png,,,,,,,,,,,,,,,,,,,,,,
,,,,,,,,,,,,,,,,,200065,18,2022-01-28_15h57.06,lexical_decision_task_DD_L3,2021.2.3,MacIntel,58.82352941,,,,,,,,,,,,0.83,1,,,,,,,,,,,,,,z,1,0.83,,,,,,,,-0.103585657,-0.299468792,0,0,0,,0,70,70,135,1,JOODY,C,old,z,./images/JOODY.png,,,,,,,,,,,,,,,,,,,,,,
,,,,,,,,,,,,,,,,,200065,18,2022-01-28_15h57.06,lexical_decision_task_DD_L3,2021.2.3,MacIntel,58.82352941,,,,,,,,,,,,0.782,1,,,,,,,,,,,,,,z,1,0.782,,,,,,,,-0.103585657,-0.299468792,0,0,0,,0,71,71,87,1,TRING,C,old,z,./images/TRING.png,,,,,,,,,,,,,,,,,,,,,,
,,,,,,,,,,,,,,,,,200065,18,2022-01-28_15h57.06,lexical_decision_task_DD_L3,2021.2.3,MacIntel,58.82352941,,,,,,,,,,,,0.714,1,,,,,,,,,,,,,,z,1,0.714,,,,,,,,-0.103585657,-0.299468792,0,0,0,,0,72,72,165,1,TROWN,C,old,z,./images/TROWN.png,,,,,,,,,,,,,,,,,,,,,,
,,,,,,,,,,,,,,,,,200065,18,2022-01-28_15h57.06,lexical_decision_task_DD_L3,2021.2.3,MacIntel,58.82352941,,,,,,,,,,,,0.68,1,,,,,,,,,,,,,,m,1,0.68,,,,,,,,-0.103585657,-0.299468792,0,0,0,,0,73,73,40,1,SWING,C,old,m,./images/SWING.png,,,,,,,,,,,,,,,,,,,,,,
,,,,,,,,,,,,,,,,,200065,18,2022-01-28_15h57.06,lexical_decision_task_DD_L3,2021.2.3,MacIntel,58.82352941,,,,,,,,,,,,0.966,1,,,,,,,,,,,,,,m,1,0.966,,,,,,,,-0.103585657,-0.299468792,0,0,0,,0,74,74,56,1,PACKET,HB,old,m,./images/PACKETHB.png,,,,,,,,,,,,,,,,,,,,,,
,,,,,,,,,,,,,,,,,200065,18,2022-01-28_15h57.06,lexical_decision_task_DD_L3,2021.2.3,MacIntel,58.82352941,,,,,,,,,,,,0.597,1,,,,,,,,,,,,,,m,1,0.597,,,,,,,,-0.103585657,-0.299468792,0,0,0,,0,75,75,21,1,KIDNEY,LB,old,m,./images/KIDNEYLB.png,,,,,,,,,,,,,,,,,,,,,,
,,,,,,,,,,,,,,,,,200065,18,2022-01-28_15h57.06,lexical_decision_task_DD_L3,2021.2.3,MacIntel,58.82352941,,,,,,,,,,,,0.734,1,,,,,,,,,,,,,,m,1,0.734,,,,,,,,-0.103585657,-0.299468792,0,0,0,,0,76,76,1,1,PLANK,C,old,m,./images/PLANK.png,,,,,,,,,,,,,,,,,,,,,,
,,,,,,,,,,,,,,,,,200065,18,2022-01-28_15h57.06,lexical_decision_task_DD_L3,2021.2.3,MacIntel,58.82352941,,,,,,,,,,,,1.562,1,,,,,,,,,,,,,,z,1,1.562,,,,,,,,-0.103585657,-0.299468792,0,0,0,,0,77,77,114,1,RIKES,C,old,z,./images/RIKES.png,,,,,,,,,,,,,,,,,,,,,,
,,,,,,,,,,,,,,,,,200065,18,2022-01-28_15h57.06,lexical_decision_task_DD_L3,2021.2.3,MacIntel,58.82352941,,,,,,,,,,,,0.662,1,,,,,,,,,,,,,,m,1,0.662,,,,,,,,-0.103585657,-0.299468792,0,0,0,,0,78,78,22,1,MELON,C,old,m,./images/MELON.png,,,,,,,,,,,,,,,,,,,,,,
,,,,,,,,,,,,,,,,,200065,18,2022-01-28_15h57.06,lexical_decision_task_DD_L3,2021.2.3,MacIntel,58.82352941,,,,,,,,,,,,0.647,1,,,,,,,,,,,,,,z,1,0.647,,,,,,,,-0.103585657,-0.299468792,0,0,0,,0,79,79,117,1,STEEG,C,old,z,./images/STEEG.png,,,,,,,,,,,,,,,,,,,,,,
,,,,,,,,,,,,,,,,,200065,18,2022-01-28_15h57.06,lexical_decision_task_DD_L3,2021.2.3,MacIntel,58.82352941,,,,,,,,,,,,1.165,1,,,,,,,,,,,,,,z,1,1.165,,,,,,,,-0.103585657,-0.299468792,0,0,0,,0,80,80,109,1,BURGE,HB,old,z,./images/BURGEHB.png,,,,,,,,,,,,,,,,,,,,,,
,,,,,,,,,,,,,,,,,200065,18,2022-01-28_15h57.06,lexical_decision_task_DD_L3,2021.2.3,MacIntel,58.82352941,,,,,,,,,,,,1.364,1,,,,,,,,,,,,,,m,1,1.364,,,,,,,,-0.103585657,-0.299468792,0,0,0,,0,81,81,41,1,STRING,HB,old,m,./images/STRINGHB.png,,,,,,,,,,,,,,,,,,,,,,
,,,,,,,,,,,,,,,,,200065,18,2022-01-28_15h57.06,lexical_decision_task_DD_L3,2021.2.3,MacIntel,58.82352941,,,,,,,,,,,,0.95,1,,,,,,,,,,,,,,z,1,0.95,,,,,,,,-0.103585657,-0.299468792,0,0,0,,0,82,82,103,1,FLORT,HB,old,z,./images/FLORTHB.png,,,,,,,,,,,,,,,,,,,,,,
,,,,,,,,,,,,,,,,,200065,18,2022-01-28_15h57.06,lexical_decision_task_DD_L3,2021.2.3,MacIntel,58.82352941,,,,,,,,,,,,1.516,1,,,,,,,,,,,,,,z,1,1.516,,,,,,,,-0.115537849,-0.357901726,1,0,0,,0,83,83,160,1,VEETS,HB,old,z,./images/VEETSHB.png,,break_done_button,,,,,,,,,,,,,,,,,,,,
,,,,,,,,,,,,,,,,,200065,18,2022-01-28_15h57.06,lexical_decision_task_DD_L3,2021.2.3,MacIntel,58.82352941,,,,,,,,,,,,1.842,1,,,,,,,,,,,,,,m,1,1.842,,,,,,,,-0.114209827,-0.344621514,0,0,0,,0,84,84,7,1,PAINT,C,old,m,./images/PAINT.png,,,,,,,,,,,,,,,,,,,,,,
,,,,,,,,,,,,,,,,,200065,18,2022-01-28_15h57.06,lexical_decision_task_DD_L3,2021.2.3,MacIntel,58.82352941,,,,,,,,,,,,1.609,1,,,,,,,,,,,,,,z,1,1.609,,,,,,,,-0.114209827,-0.344621514,0,0,0,,0,85,85,154,1,THINT,HB,old,z,./images/THINTHB.png,,,,,,,,,,,,,,,,,,,,,,
,,,,,,,,,,,,,,,,,200065,18,2022-01-28_15h57.06,lexical_decision_task_DD_L3,2021.2.3,MacIntel,58.82352941,,,,,,,,,,,,0.929,1,,,,,,,,,,,,,,z,1,0.929,,,,,,,,-0.114209827,-0.344621514,0,0,0,,0,86,86,145,1,LAMEL,HB,old,z,./images/LAMELHB.png,,,,,,,,,,,,,,,,,,,,,,
,,,,,,,,,,,,,,,,,200065,18,2022-01-28_15h57.06,lexical_decision_task_DD_L3,2021.2.3,MacIntel,58.82352941,,,,,,,,,,,,1.008,1,,,,,,,,,,,,,,z,1,1.008,,,,,,,,-0.114209827,-0.344621514,0,0,0,,0,87,87,155,1,CANGY,LB,old,z,./images/CANGYLB.png,,,,,,,,,,,,,,,,,,,,,,
,,,,,,,,,,,,,,,,,200065,18,2022-01-28_15h57.06,lexical_decision_task_DD_L3,2021.2.3,MacIntel,58.82352941,,,,,,,,,,,,2.565,0,,,,,,,,,,,,,,z,0,2.565,,,,,,,,-0.114209827,-0.344621514,0,0,0,,0,88,88,17,1,SKIING,HB,old,m,./images/SKIINGHB.png,,,,,,,,,,,,,,,,,,,,,,
,,,,,,,,,,,,,,,,,200065,18,2022-01-28_15h57.06,lexical_decision_task_DD_L3,2021.2.3,MacIntel,58.82352941,,,,,,,,,,,,1.198,1,,,,,,,,,,,,,,z,1,1.198,,,,,,,,-0.114209827,-0.344621514,0,0,0,,0,89,89,162,1,LEICH,C,old,z,./images/LEICH.png,,,,,,,,,,,,,,,,,,,,,,
,,,,,,,,,,,,,,,,,200065,18,2022-01-28_15h57.06,lexical_decision_task_DD_L3,2021.2.3,MacIntel,58.82352941,,,,,,,,,,,,3.246,1,,,,,,,,,,,,,,z,1,3.246,,,,,,,,-0.114209827,-0.344621514,0,0,0,,0,90,90,166,1,SHORY,HB,old,z,./images/SHORYHB.png,,,,,,,,,,,,,,,,,,,,,,
,,,,,,,,,,,,,,,,,200065,18,2022-01-28_15h57.06,lexical_decision_task_DD_L3,2021.2.3,MacIntel,58.82352941,,,,,,,,,,,,0.926,1,,,,,,,,,,,,,,m,1,0.926,,,,,,,,-0.114209827,-0.344621514,0,0,0,,0,91,91,53,1,CARPET,HB,old,m,./images/CARPETHB.png,,,,,,,,,,,,,,,,,,,,,,
,,,,,,,,,,,,,,,,,200065,18,2022-01-28_15h57.06,lexical_decision_task_DD_L3,2021.2.3,MacIntel,58.82352941,,,,,,,,,,,,0.784,1,,,,,,,,,,,,,,m,1,0.784,,,,,,,,-0.114209827,-0.344621514,0,0,0,,0,92,92,33,1,MAGGOT,LB,old,m,./images/MAGGOTLB.png,,,,,,,,,,,,,,,,,,,,,,
,,,,,,,,,,,,,,,,,200065,18,2022-01-28_15h57.06,lexical_decision_task_DD_L3,2021.2.3,MacIntel,58.82352941,,,,,,,,,,,,0.578,1,,,,,,,,,,,,,,m,1,0.578,,,,,,,,-0.114209827,-0.344621514,0,0,0,,0,93,93,15,1,GREASE,LB,old,m,./images/GREASELB.png,,,,,,,,,,,,,,,,,,,,,,
,,,,,,,,,,,,,,,,,200065,18,2022-01-28_15h57.06,lexical_decision_task_DD_L3,2021.2.3,MacIntel,58.82352941,,,,,,,,,,,,1.008,1,,,,,,,,,,,,,,z,1,1.008,,,,,,,,-0.114209827,-0.344621514,0,0,0,,0,94,94,99,1,BACKY,C,old,z,./images/BACKY.png,,,,,,,,,,,,,,,,,,,,,,
,,,,,,,,,,,,,,,,,200065,18,2022-01-28_15h57.06,lexical_decision_task_DD_L3,2021.2.3,MacIntel,58.82352941,,,,,,,,,,,,0.919,1,,,,,,,,,,,,,,z,1,0.919,,,,,,,,-0.114209827,-0.344621514,0,0,0,,0,95,95,128,1,GRIFT,LB,old,z,./images/GRIFTLB.png,,,,,,,,,,,,,,,,,,,,,,
,,,,,,,,,,,,,,,,,200065,18,2022-01-28_15h57.06,lexical_decision_task_DD_L3,2021.2.3,MacIntel,58.82352941,,,,,,,,,,,,0.646,1,,,,,,,,,,,,,,z,1,0.646,,,,,,,,-0.114209827,-0.344621514,0,0,0,,0,96,96,92,1,PAIMS,LB,old,z,./images/PAIMSLB.png,,,,,,,,,,,,,,,,,,,,,,
,,,,,,,,,,,,,,,,,200065,18,2022-01-28_15h57.06,lexical_decision_task_DD_L3,2021.2.3,MacIntel,58.82352941,,,,,,,,,,,,0.682,1,,,,,,,,,,,,,,m,1,0.682,,,,,,,,-0.114209827,-0.344621514,0,0,0,,0,97,97,18,1,JAGUAR,LB,old,m,./images/JAGUARLB.png,,,,,,,,,,,,,,,,,,,,,,
,,,,,,,,,,,,,,,,,200065,18,2022-01-28_15h57.06,lexical_decision_task_DD_L3,2021.2.3,MacIntel,58.82352941,,,,,,,,,,,,0.681,1,,,,,,,,,,,,,,m,1,0.681,,,,,,,,-0.114209827,-0.344621514,0,0,0,,0,98,98,60,1,TWINS,LB,old,m,./images/TWINSLB.png,,,,,,,,,,,,,,,,,,,,,,
,,,,,,,,,,,,,,,,,200065,18,2022-01-28_15h57.06,lexical_decision_task_DD_L3,2021.2.3,MacIntel,58.82352941,,,,,,,,,,,,0.732,1,,,,,,,,,,,,,,m,1,0.732,,,,,,,,-0.114209827,-0.344621514,0,0,0,,0,99,99,23,1,WALRUS,HB,old,m,./images/WALRUSHB.png,,,,,,,,,,,,,,,,,,,,,,
,,,,,,,,,,,,,,,,,200065,18,2022-01-28_15h57.06,lexical_decision_task_DD_L3,2021.2.3,MacIntel,58.82352941,,,,,,,,,,,,1.112,1,,,,,,,,,,,,,,z,1,1.112,,,,,,,,-0.114209827,-0.344621514,0,0,0,,0,100,100,132,1,SCIFF,C,old,z,./images/SCIFF.png,,,,,,,,,,,,,,,,,,,,,,
,,,,,,,,,,,,,,,,,200065,18,2022-01-28_15h57.06,lexical_decision_task_DD_L3,2021.2.3,MacIntel,58.82352941,,,,,,,,,,,,0.88,1,,,,,,,,,,,,,,z,1,0.88,,,,,,,,-0.114209827,-0.344621514,0,0,0,,0,101,101,126,1,GUELS,C,old,z,./images/GUELS.png,,,,,,,,,,,,,,,,,,,,,,
,,,,,,,,,,,,,,,,,200065,18,2022-01-28_15h57.06,lexical_decision_task_DD_L3,2021.2.3,MacIntel,58.82352941,,,,,,,,,,,,0.682,1,,,,,,,,,,,,,,m,1,0.682,,,,,,,,-0.114209827,-0.344621514,0,0,0,,0,102,102,38,1,LADDER,HB,old,m,./images/LADDERHB.png,,,,,,,,,,,,,,,,,,,,,,
,,,,,,,,,,,,,,,,,200065,18,2022-01-28_15h57.06,lexical_decision_task_DD_L3,2021.2.3,MacIntel,58.82352941,,,,,,,,,,,,0.592,1,,,,,,,,,,,,,,m,1,0.592,,,,,,,,-0.114209827,-0.344621514,0,0,0,,0,103,103,67,1,SAILOR,C,old,m,./images/SAILOR.png,,,,,,,,,,,,,,,,,,,,,,
,,,,,,,,,,,,,,,,,200065,18,2022-01-28_15h57.06,lexical_decision_task_DD_L3,2021.2.3,MacIntel,58.82352941,,,,,,,,,,,,0.616,1,,,,,,,,,,,,,,m,1,0.616,,,,,,,,-0.114209827,-0.344621514,0,0,0,,0,104,104,34,1,CANYON,C,old,m,./images/CANYON.png,,,,,,,,,,,,,,,,,,,,,,
,,,,,,,,,,,,,,,,,200065,18,2022-01-28_15h57.06,lexical_decision_task_DD_L3,2021.2.3,MacIntel,58.82352941,,,,,,,,,,,,0.575,1,,,,,,,,,,,,,,m,1,0.575,,,,,,,,-0.114209827,-0.344621514,0,0,0,,0,105,105,3,1,FINGER,LB,old,m,./images/FINGERLB.png,,,,,,,,,,,,,,,,,,,,,,
,,,,,,,,,,,,,,,,,200065,18,2022-01-28_15h57.06,lexical_decision_task_DD_L3,2021.2.3,MacIntel,58.82352941,,,,,,,,,,,,1.517,1,,,,,,,,,,,,,,z,1,1.517,,,,,,,,-0.114209827,-0.344621514,0,0,0,,0,106,106,88,1,GLUSH,HB,old,z,./images/GLUSHHB.png,,,,,,,,,,,,,,,,,,,,,,
,,,,,,,,,,,,,,,,,200065,18,2022-01-28_15h57.06,lexical_decision_task_DD_L3,2021.2.3,MacIntel,58.82352941,,,,,,,,,,,,0.613,1,,,,,,,,,,,,,,m,1,0.613,,,,,,,,-0.114209827,-0.344621514,0,0,0,,0,107,107,36,1,THROAT,LB,old,m,./images/THROATLB.png,,,,,,,,,,,,,,,,,,,,,,
,,,,,,,,,,,,,,,,,200065,18,2022-01-28_15h57.06,lexical_decision_task_DD_L3,2021.2.3,MacIntel,58.82352941,,,,,,,,,,,,0.658,1,,,,,,,,,,,,,,z,1,0.658,,,,,,,,-0.114209827,-0.344621514,0,0,0,,0,108,108,122,1,BLOOT,LB,old,z,./images/BLOOTLB.png,,,,,,,,,,,,,,,,,,,,,,
,,,,,,,,,,,,,,,,,200065,18,2022-01-28_15h57.06,lexical_decision_task_DD_L3,2021.2.3,MacIntel,58.82352941,,,,,,,,,,,,2.414,1,,,,,,,,,,,,,,m,1,2.414,,,,,,,,-0.114209827,-0.344621514,0,0,0,,0,109,109,43,1,MOSQUE,C,old,m,./images/MOSQUE.png,,,,,,,,,,,,,,,,,,,,,,
,,,,,,,,,,,,,,,,,200065,18,2022-01-28_15h57.06,lexical_decision_task_DD_L3,2021.2.3,MacIntel,58.82352941,,,,,,,,,,,,1.267,1,,,,,,,,,,,,,,m,1,1.267,,,,,,,,-0.114209827,-0.344621514,0,0,0,,0,110,110,83,1,JUNGLE,HB,old,m,./images/JUNGLEHB.png,,,,,,,,,,,,,,,,,,,,,,
,,,,,,,,,,,,,,,,,200065,18,2022-01-28_15h57.06,lexical_decision_task_DD_L3,2021.2.3,MacIntel,58.82352941,,,,,,,,,,,,1.038,1,,,,,,,,,,,,,,z,1,1.038,,,,,,,,-0.114209827,-0.344621514,0,0,0,,0,111,111,94,1,BLANS,HB,old,z,./images/BLANSHB.png,,,,,,,,,,,,,,,,,,,,,,
,,,,,,,,,,,,,,,,,200065,18,2022-01-28_15h57.06,lexical_decision_task_DD_L3,2021.2.3,MacIntel,58.82352941,,,,,,,,,,,,1.181,1,,,,,,,,,,,,,,z,1,1.181,,,,,,,,-0.114209827,-0.344621514,0,0,0,,0,112,112,163,1,GAMBA,HB,old,z,./images/GAMBAHB.png,,,,,,,,,,,,,,,,,,,,,,
,,,,,,,,,,,,,,,,,200065,18,2022-01-28_15h57.06,lexical_decision_task_DD_L3,2021.2.3,MacIntel,58.82352941,,,,,,,,,,,,0.73,1,,,,,,,,,,,,,,z,1,0.73,,,,,,,,-0.114209827,-0.344621514,0,0,0,,0,113,113,123,1,SEDGE,C,old,z,./images/SEDGE.png,,,,,,,,,,,,,,,,,,,,,,
,,,,,,,,,,,,,,,,,200065,18,2022-01-28_15h57.06,lexical_decision_task_DD_L3,2021.2.3,MacIntel,58.82352941,,,,,,,,,,,,0.644,1,,,,,,,,,,,,,,z,1,0.644,,,,,,,,-0.114209827,-0.344621514,0,0,0,,0,114,114,86,1,AIFED,LB,old,z,./images/AIFEDLB.png,,,,,,,,,,,,,,,,,,,,,,
,,,,,,,,,,,,,,,,,200065,18,2022-01-28_15h57.06,lexical_decision_task_DD_L3,2021.2.3,MacIntel,58.82352941,,,,,,,,,,,,0.707,1,,,,,,,,,,,,,,z,1,0.707,,,,,,,,-0.114209827,-0.344621514,0,0,0,,0,115,115,125,1,MOOKY,LB,old,z,./images/MOOKYLB.png,,,,,,,,,,,,,,,,,,,,,,
,,,,,,,,,,,,,,,,,200065,18,2022-01-28_15h57.06,lexical_decision_task_DD_L3,2021.2.3,MacIntel,58.82352941,,,,,,,,,,,,0.982,1,,,,,,,,,,,,,,m,1,0.982,,,,,,,,-0.114209827,-0.344621514,0,0,0,,0,116,116,73,1,SNACK,C,old,m,./images/SNACK.png,,,,,,,,,,,,,,,,,,,,,,
,,,,,,,,,,,,,,,,,200065,18,2022-01-28_15h57.06,lexical_decision_task_DD_L3,2021.2.3,MacIntel,58.82352941,,,,,,,,,,,,1.815,1,,,,,,,,,,,,,,z,1,1.815,,,,,,,,-0.114209827,-0.344621514,0,0,0,,0,117,117,115,1,MAWNS,HB,old,z,./images/MAWNSHB.png,,,,,,,,,,,,,,,,,,,,,,
,,,,,,,,,,,,,,,,,200065,18,2022-01-28_15h57.06,lexical_decision_task_DD_L3,2021.2.3,MacIntel,58.82352941,,,,,,,,,,,,0.84,1,,,,,,,,,,,,,,z,1,0.84,,,,,,,,-0.114209827,-0.344621514,0,0,0,,0,118,118,158,1,EGECT,LB,old,z,./images/EGECTLB.png,,,,,,,,,,,,,,,,,,,,,,
,,,,,,,,,,,,,,,,,200065,18,2022-01-28_15h57.06,lexical_decision_task_DD_L3,2021.2.3,MacIntel,58.82352941,,,,,,,,,,,,29.165,1,,,,,,,,,,,,,,m,1,29.165,,,,,,,,-0.071713147,-0.031208499,0,0,0,,0,119,119,68,1,TORCH,HB,old,m,./images/TORCHHB.png,,,,,,,,,,,,,,,,,,,,,,
,,,,,,,,,,,,,,,,,200065,18,2022-01-28_15h57.06,lexical_decision_task_DD_L3,2021.2.3,MacIntel,58.82352941,,,,,,,,,,,,1.462,1,,,,,,,,,,,,,,z,1,1.462,,,,,,,,-0.071713147,-0.031208499,0,0,0,,0,120,120,152,1,FRAIN,LB,old,z,./images/FRAINLB.png,,,,,,,,,,,,,,,,,,,,,,
,,,,,,,,,,,,,,,,,200065,18,2022-01-28_15h57.06,lexical_decision_task_DD_L3,2021.2.3,MacIntel,58.82352941,,,,,,,,,,,,0.677,1,,,,,,,,,,,,,,z,1,0.677,,,,,,,,-0.071713147,-0.031208499,0,0,0,,0,121,121,96,1,KEAMS,C,old,z,./images/KEAMS.png,,,,,,,,,,,,,,,,,,,,,,
,,,,,,,,,,,,,,,,,200065,18,2022-01-28_15h57.06,lexical_decision_task_DD_L3,2021.2.3,MacIntel,58.82352941,,,,,,,,,,,,0.991,1,,,,,,,,,,,,,,m,1,0.991,,,,,,,,-0.071713147,-0.031208499,0,0,0,,0,122,122,59,1,BURIAL,HB,old,m,./images/BURIALHB.png,,,,,,,,,,,,,,,,,,,,,,
,,,,,,,,,,,,,,,,,200065,18,2022-01-28_15h57.06,lexical_decision_task_DD_L3,2021.2.3,MacIntel,58.82352941,,,,,,,,,,,,0.676,1,,,,,,,,,,,,,,z,1,0.676,,,,,,,,-0.071713147,-0.031208499,0,0,0,,0,123,123,93,1,SMONE,C,old,z,./images/SMONE.png,,,,,,,,,,,,,,,,,,,,,,
,,,,,,,,,,,,,,,,,200065,18,2022-01-28_15h57.06,lexical_decision_task_DD_L3,2021.2.3,MacIntel,58.82352941,,,,,,,,,,,,0.683,1,,,,,,,,,,,,,,z,1,0.683,,,,,,,,-0.071713147,-0.031208499,0,0,0,,0,124,124,111,1,HOSSE,C,old,z,./images/HOSSE.png,,,,,,,,,,,,,,,,,,,,,,
,,,,,,,,,,,,,,,,,200065,18,2022-01-28_15h57.06,lexical_decision_task_DD_L3,2021.2.3,MacIntel,58.82352941,,,,,,,,,,,,1.096,1,,,,,,,,,,,,,,z,1,1.096,,,,,,,,-0.04249668,0.430942895,0,0,0,space,0,125,125,141,1,PLEET,C,old,z,./images/PLEET.png,89.916,,,,,,,,,,,,,,,,,,,,,
,,,,,,,,,,,,,,,,,200065,18,2022-01-28_15h57.06,lexical_decision_task_DD_L3,2021.2.3,MacIntel,58.82352941,,,,,,,,,,,,1.175,1,,,,,,,,,,,,,,z,1,1.175,,,,,,,,-0.04249668,0.430942895,0,0,0,,0,126,126,120,1,RINED,C,old,z,./images/RINED.png,,,,,,,,,,,,,,,,,,,,,,
,,,,,,,,,,,,,,,,,200065,18,2022-01-28_15h57.06,lexical_decision_task_DD_L3,2021.2.3,MacIntel,58.82352941,,,,,,,,,,,,0.674,1,,,,,,,,,,,,,,z,1,0.674,,,,,,,,-0.04249668,0.430942895,0,0,0,,0,127,127,98,1,BAMPS,LB,old,z,./images/BAMPSLB.png,,,,,,,,,,,,,,,,,,,,,,
,,,,,,,,,,,,,,,,,200065,18,2022-01-28_15h57.06,lexical_decision_task_DD_L3,2021.2.3,MacIntel,58.82352941,,,,,,,,,,,,0.994,1,,,,,,,,,,,,,,m,1,0.994,,,,,,,,-0.04249668,0.430942895,0,0,0,,0,128,128,13,1,MOTOR,C,old,m,./images/MOTOR.png,,,,,,,,,,,,,,,,,,,,,,
,,,,,,,,,,,,,,,,,200065,18,2022-01-28_15h57.06,lexical_decision_task_DD_L3,2021.2.3,MacIntel,58.82352941,,,,,,,,,,,,0.581,1,,,,,,,,,,,,,,z,1,0.581,,,,,,,,-0.04249668,0.430942895,0,0,0,,0,129,129,164,1,SGREW,LB,old,z,./images/SGREWLB.png,,,,,,,,,,,,,,,,,,,,,,
,,,,,,,,,,,,,,,,,200065,18,2022-01-28_15h57.06,lexical_decision_task_DD_L3,2021.2.3,MacIntel,58.82352941,,,,,,,,,,,,0.647,1,,,,,,,,,,,,,,m,1,0.647,,,,,,,,-0.04249668,0.430942895,0,0,0,,0,130,130,80,1,WEASEL,HB,old,m,./images/WEASELHB.png,,,,,,,,,,,,,,,,,,,,,,
,,,,,,,,,,,,,,,,,200065,18,2022-01-28_15h57.06,lexical_decision_task_DD_L3,2021.2.3,MacIntel,58.82352941,,,,,,,,,,,,0.525,1,,,,,,,,,,,,,,m,1,0.525,,,,,,,,-0.04249668,0.430942895,0,0,0,,0,131,131,6,1,SQUARE,LB,old,m,./images/SQUARELB.png,,,,,,,,,,,,,,,,,,,,,,
,,,,,,,,,,,,,,,,,200065,18,2022-01-28_15h57.06,lexical_decision_task_DD_L3,2021.2.3,MacIntel,58.82352941,,,,,,,,,,,,1.049,1,,,,,,,,,,,,,,z,1,1.049,,,,,,,,-0.04249668,0.430942895,0,0,0,,0,132,132,121,1,CEERS,HB,old,z,./images/CEERSHB.png,,,,,,,,,,,,,,,,,,,,,,
,,,,,,,,,,,,,,,,,200065,18,2022-01-28_15h57.06,lexical_decision_task_DD_L3,2021.2.3,MacIntel,58.82352941,,,,,,,,,,,,1.048,1,,,,,,,,,,,,,,m,1,1.048,,,,,,,,-0.04249668,0.430942895,0,0,0,,0,133,133,55,1,MUFFIN,C,old,m,./images/MUFFIN.png,,,,,,,,,,,,,,,,,,,,,,
,,,,,,,,,,,,,,,,,200065,18,2022-01-28_15h57.06,lexical_decision_task_DD_L3,2021.2.3,MacIntel,58.82352941,,,,,,,,,,,,0.63,1,,,,,,,,,,,,,,z,1,0.63,,,,,,,,-0.04249668,0.430942895,0,0,0,,0,134,134,105,1,MOKER,C,old,z,./images/MOKER.png,,,,,,,,,,,,,,,,,,,,,,
,,,,,,,,,,,,,,,,,200065,18,2022-01-28_15h57.06,lexical_decision_task_DD_L3,2021.2.3,MacIntel,58.82352941,,,,,,,,,,,,0.657,1,,,,,,,,,,,,,,m,1,0.657,,,,,,,,-0.04249668,0.430942895,0,0,0,,0,135,135,65,1,FARMER,HB,old,m,./images/FARMERHB.png,,,,,,,,,,,,,,,,,,,,,,
,,,,,,,,,,,,,,,,,200065,18,2022-01-28_15h57.06,lexical_decision_task_DD_L3,2021.2.3,MacIntel,58.82352941,,,,,,,,,,,,0.644,1,,,,,,,,,,,,,,z,1,0.644,,,,,,,,-0.04249668,0.430942895,0,0,0,,0,136,136,167,1,ZONET,LB,old,z,./images/ZONETLB.png,,,,,,,,,,,,,,,,,,,,,,
,,,,,,,,,,,,,,,,,200065,18,2022-01-28_15h57.06,lexical_decision_task_DD_L3,2021.2.3,MacIntel,58.82352941,,,,,,,,,,,,1.664,1,,,,,,,,,,,,,,z,1,1.664,,,,,,,,-0.04249668,0.430942895,0,0,0,,0,137,137,91,1,SHENS,HB,old,z,./images/SHENSHB.png,,,,,,,,,,,,,,,,,,,,,,
,,,,,,,,,,,,,,,,,200065,18,2022-01-28_15h57.06,lexical_decision_task_DD_L3,2021.2.3,MacIntel,58.82352941,,,,,,,,,,,,0.645,1,,,,,,,,,,,,,,z,1,0.645,,,,,,,,-0.04249668,0.430942895,0,0,0,,0,138,138,116,1,BALGY,LB,old,z,./images/BALGYLB.png,,,,,,,,,,,,,,,,,,,,,,
,,,,,,,,,,,,,,,,,200065,18,2022-01-28_15h57.06,lexical_decision_task_DD_L3,2021.2.3,MacIntel,58.82352941,,,,,,,,,,,,0.747,1,,,,,,,,,,,,,,m,1,0.747,,,,,,,,-0.04249668,0.430942895,0,0,0,,0,139,139,2,1,BEARD,HB,old,m,./images/BEARDHB.png,,,,,,,,,,,,,,,,,,,,,,
,,,,,,,,,,,,,,,,,200065,18,2022-01-28_15h57.06,lexical_decision_task_DD_L3,2021.2.3,MacIntel,58.82352941,,,,,,,,,,,,0.866,1,,,,,,,,,,,,,,z,1,0.866,,,,,,,,-0.04249668,0.430942895,0,0,0,,0,140,140,148,1,JOMS,HB,old,z,./images/JOMSHB.png,,,,,,,,,,,,,,,,,,,,,,
,,,,,,,,,,,,,,,,,200065,18,2022-01-28_15h57.06,lexical_decision_task_DD_L3,2021.2.3,MacIntel,58.82352941,,,,,,,,,,,,1.065,1,,,,,,,,,,,,,,m,1,1.065,,,,,,,,-0.04249668,0.430942895,0,0,0,,0,141,141,45,1,KITTEN,LB,old,m,./images/KITTENLB.png,,,,,,,,,,,,,,,,,,,,,,
,,,,,,,,,,,,,,,,,200065,18,2022-01-28_15h57.06,lexical_decision_task_DD_L3,2021.2.3,MacIntel,58.82352941,,,,,,,,,,,,1.096,1,,,,,,,,,,,,,,z,1,1.096,,,,,,,,-0.04249668,0.430942895,0,0,0,,0,142,142,107,1,FASKS,LB,old,z,./images/FASKSLB.png,,,,,,,,,,,,,,,,,,,,,,
,,,,,,,,,,,,,,,,,200065,18,2022-01-28_15h57.06,lexical_decision_task_DD_L3,2021.2.3,MacIntel,58.82352941,,,,,,,,,,,,0.696,1,,,,,,,,,,,,,,z,1,0.696,,,,,,,,-0.04249668,0.430942895,0,0,0,,0,143,143,150,1,NOOLS,C,old,z,./images/NOOLS.png,,,,,,,,,,,,,,,,,,,,,,
,,,,,,,,,,,,,,,,,200065,18,2022-01-28_15h57.06,lexical_decision_task_DD_L3,2021.2.3,MacIntel,58.82352941,,,,,,,,,,,,0.663,1,,,,,,,,,,,,,,m,1,0.663,,,,,,,,-0.04249668,0.430942895,0,0,0,,0,144,144,51,1,ONION,LB,old,m,./images/ONIONLB.png,,,,,,,,,,,,,,,,,,,,,,
,,,,,,,,,,,,,,,,,200065,18,2022-01-28_15h57.06,lexical_decision_task_DD_L3,2021.2.3,MacIntel,58.82352941,,,,,,,,,,,,0.83,1,,,,,,,,,,,,,,z,1,0.83,,,,,,,,-0.04249668,0.430942895,0,0,0,,0,145,145,136,1,WERVE,HB,old,z,./images/WERVEHB.png,,,,,,,,,,,,,,,,,,,,,,
,,,,,,,,,,,,,,,,,200065,18,2022-01-28_15h57.06,lexical_decision_task_DD_L3,2021.2.3,MacIntel,58.82352941,,,,,,,,,,,,1.212,1,,,,,,,,,,,,,,z,1,1.212,,,,,,,,-0.04249668,0.430942895,0,0,0,,0,146,146,124,1,TUNCH,HB,old,z,./images/TUNCHHB.png,,,,,,,,,,,,,,,,,,,,,,
,,,,,,,,,,,,,,,,,200065,18,2022-01-28_15h57.06,lexical_decision_task_DD_L3,2021.2.3,MacIntel,58.82352941,,,,,,,,,,,,0.582,1,,,,,,,,,,,,,,z,1,0.582,,,,,,,,-0.04249668,0.430942895,0,0,0,,0,147,147,147,1,ZOLES,C,old,z,./images/ZOLES.png,,,,,,,,,,,,,,,,,,,,,,
,,,,,,,,,,,,,,,,,200065,18,2022-01-28_15h57.06,lexical_decision_task_DD_L3,2021.2.3,MacIntel,58.82352941,,,,,,,,,,,,1.273,1,,,,,,,,,,,,,,m,1,1.273,,,,,,,,-0.04249668,0.430942895,0,0,0,,0,148,148,81,1,POODLE,LB,old,m,./images/POODLELB.png,,,,,,,,,,,,,,,,,,,,,,
,,,,,,,,,,,,,,,,,200065,18,2022-01-28_15h57.06,lexical_decision_task_DD_L3,2021.2.3,MacIntel,58.82352941,,,,,,,,,,,,0.613,1,,,,,,,,,,,,,,z,1,0.613,,,,,,,,-0.04249668,0.430942895,0,0,0,,0,149,149,119,1,PAFER,LB,old,z,./images/PAFERLB.png,,,,,,,,,,,,,,,,,,,,,,
,,,,,,,,,,,,,,,,,200065,18,2022-01-28_15h57.06,lexical_decision_task_DD_L3,2021.2.3,MacIntel,58.82352941,,,,,,,,,,,,1.249,1,,,,,,,,,,,,,,m,1,1.249,,,,,,,,-0.04249668,0.430942895,0,0,0,,0,150,150,11,1,BONNET,HB,old,m,./images/BONNETHB.png,,,,,,,,,,,,,,,,,,,,,,
,,,,,,,,,,,,,,,,,200065,18,2022-01-28_15h57.06,lexical_decision_task_DD_L3,2021.2.3,MacIntel,58.82352941,,,,,,,,,,,,0.856,1,,,,,,,,,,,,,,z,1,0.856,,,,,,,,-0.04249668,0.430942895,0,0,0,,0,151,151,139,1,BLEAR,HB,old,z,./images/BLEARHB.png,,,,,,,,,,,,,,,,,,,,,,
,,,,,,,,,,,,,,,,,200065,18,2022-01-28_15h57.06,lexical_decision_task_DD_L3,2021.2.3,MacIntel,58.82352941,,,,,,,,,,,,0.683,1,,,,,,,,,,,,,,m,1,0.683,,,,,,,,-0.04249668,0.430942895,0,0,0,,0,152,152,42,1,FOLDER,LB,old,m,./images/FOLDERLB.png,,,,,,,,,,,,,,,,,,,,,,
,,,,,,,,,,,,,,,,,200065,18,2022-01-28_15h57.06,lexical_decision_task_DD_L3,2021.2.3,MacIntel,58.82352941,,,,,,,,,,,,0.942,1,,,,,,,,,,,,,,m,1,0.942,,,,,,,,-0.04249668,0.430942895,0,0,0,,0,153,153,20,1,CRADLE,HB,old,m,./images/CRADLEHB.png,,,,,,,,,,,,,,,,,,,,,,
,,,,,,,,,,,,,,,,,200065,18,2022-01-28_15h57.06,lexical_decision_task_DD_L3,2021.2.3,MacIntel,58.82352941,,,,,,,,,,,,0.779,1,,,,,,,,,,,,,,z,1,0.779,,,,,,,,-0.04249668,0.430942895,0,0,0,,0,154,154,134,1,TROSS,LB,old,z,./images/TROSSLB.png,,,,,,,,,,,,,,,,,,,,,,
,,,,,,,,,,,,,,,,,200065,18,2022-01-28_15h57.06,lexical_decision_task_DD_L3,2021.2.3,MacIntel,58.82352941,,,,,,,,,,,,0.898,1,,,,,,,,,,,,,,m,1,0.898,,,,,,,,-0.04249668,0.430942895,0,0,0,,0,155,155,14,1,PICKLE,HB,old,m,./images/PICKLEHB.png,,,,,,,,,,,,,,,,,,,,,,
,,,,,,,,,,,,,,,,,200065,18,2022-01-28_15h57.06,lexical_decision_task_DD_L3,2021.2.3,MacIntel,58.82352941,,,,,,,,,,,,0.763,1,,,,,,,,,,,,,,m,1,0.763,,,,,,,,-0.04249668,0.430942895,0,0,0,,0,156,156,46,1,PEARL,C,old,m,./images/PEARL.png,,,,,,,,,,,,,,,,,,,,,,
,,,,,,,,,,,,,,,,,200065,18,2022-01-28_15h57.06,lexical_decision_task_DD_L3,2021.2.3,MacIntel,58.82352941,,,,,,,,,,,,0.58,1,,,,,,,,,,,,,,m,1,0.58,,,,,,,,-0.04249668,0.430942895,0,0,0,,0,157,157,37,1,BIRTH,C,old,m,./images/BIRTH.png,,,,,,,,,,,,,,,,,,,,,,
,,,,,,,,,,,,,,,,,200065,18,2022-01-28_15h57.06,lexical_decision_task_DD_L3,2021.2.3,MacIntel,58.82352941,,,,,,,,,,,,0.591,1,,,,,,,,,,,,,,m,1,0.591,,,,,,,,-0.04249668,0.430942895,0,0,0,,0,158,158,4,1,MUSCLE,C,old,m,./images/MUSCLE.png,,,,,,,,,,,,,,,,,,,,,,
,,,,,,,,,,,,,,,,,200065,18,2022-01-28_15h57.06,lexical_decision_task_DD_L3,2021.2.3,MacIntel,58.82352941,,,,,,,,,,,,0.698,1,,,,,,,,,,,,,,m,1,0.698,,,,,,,,-0.04249668,0.430942895,0,0,0,,0,159,159,78,1,LITTER,LB,old,m,./images/LITTERLB.png,,,,,,,,,,,,,,,,,,,,,,
,,,,,,,,,,,,,,,,,200065,18,2022-01-28_15h57.06,lexical_decision_task_DD_L3,2021.2.3,MacIntel,58.82352941,,,,,,,,,,,,0.647,1,,,,,,,,,,,,,,m,1,0.647,,,,,,,,-0.04249668,0.430942895,0,0,0,,0,160,160,62,1,PURSE,HB,old,m,./images/PURSEHB.png,,,,,,,,,,,,,,,,,,,,,,
,,,,,,,,,,,,,,,,,200065,18,2022-01-28_15h57.06,lexical_decision_task_DD_L3,2021.2.3,MacIntel,58.82352941,,,,,,,,,,,,1.847,1,,,,,,,,,,,,,,z,1,1.847,,,,,,,,-0.04249668,0.430942895,0,0,0,,0,161,161,130,1,CRILL,HB,old,z,./images/CRILLHB.png,,,,,,,,,,,,,,,,,,,,,,
,,,,,,,,,,,,,,,,,200065,18,2022-01-28_15h57.06,lexical_decision_task_DD_L3,2021.2.3,MacIntel,58.82352941,,,,,,,,,,,,0.931,1,,,,,,,,,,,,,,m,1,0.931,,,,,,,,-0.04249668,0.430942895,0,0,0,,0,162,162,49,1,DRUMS,C,old,m,./images/DRUMS.png,,,,,,,,,,,,,,,,,,,,,,
,,,,,,,,,,,,,,,,,200065,18,2022-01-28_15h57.06,lexical_decision_task_DD_L3,2021.2.3,MacIntel,58.82352941,,,,,,,,,,,,0.499,0,,,,,,,,,,,,,,z,0,0.499,,,,,,,,-0.04249668,0.430942895,0,0,0,,0,163,163,35,1,PEACH,HB,old,m,./images/PEACHHB.png,,,,,,,,,,,,,,,,,,,,,,
,,,,,,,,,,,,,,,,,200065,18,2022-01-28_15h57.06,lexical_decision_task_DD_L3,2021.2.3,MacIntel,58.82352941,,,,,,,,,,,,1.463,1,,,,,,,,,,,,,,m,1,1.463,,,,,,,,-0.04249668,0.430942895,0,0,0,,0,164,164,12,1,SHORE,LB,old,m,./images/SHORELB.png,,,,,,,,,,,,,,,,,,,,,,
,,,,,,,,,,,,,,,,,200065,18,2022-01-28_15h57.06,lexical_decision_task_DD_L3,2021.2.3,MacIntel,58.82352941,,,,,,,,,,,,1.207,1,,,,,,,,,,,,,,z,1,1.207,,,,,,,,-0.04249668,0.430942895,0,0,0,,0,165,165,133,1,POWDY,HB,old,z,./images/POWDYHB.png,,,,,,,,,,,,,,,,,,,,,,
,,,,,,,,,,,,,,,,,200065,18,2022-01-28_15h57.06,lexical_decision_task_DD_L3,2021.2.3,MacIntel,58.82352941,,,,,,,,,,,,0.746,1,,,,,,,,,,,,,,z,1,0.746,,,,,,,,-0.04249668,0.430942895,0,0,0,,0,166,166,156,1,HIXES,C,old,z,./images/HIXES.png,,,,,,,,,,,,,,,,,,,,,,
,,,,,,,,,,,,,,,,,200065,18,2022-01-28_15h57.06,lexical_decision_task_DD_L3,2021.2.3,MacIntel,58.82352941,,,,,,,,,,,,0.676,1,,,,,,,,,,,,,,z,1,0.676,,,,,,,,-0.04249668,0.430942895,0,0,0,,0,167,167,153,1,CLUPS,C,old,z,./images/CLUPS.png,,,,,,,,,,,,,,,,,,,,,,
space,-0.013280212,0.385790173,0,0,0,,,,,,,1,test,"In the next phase you will be presented with the words from the the first phase. Your job is to decide whether you remember seeing the word or not. If you remember seeing the word press ""old"" or type ""m"". If you do not remember seeing the word press ""new"" or type ""z"". Please press the space bar or click on continue to begin. ",,,200065,18,2022-01-28_15h57.06,lexical_decision_task_DD_L3,2021.2.3,MacIntel,58.82352941,17.15,,,,,,,,,,,,,,,,,,,,,,,,,,,,,,,,,,,,,,,,,,,,,,,,,,,,,,0,0,0,0,1,,,,,,,,,,,,,,,
space,-0.013280212,0.385790173,0,0,0,,,,,,,1,test,"In the next phase you will be presented with the words from the the first phase. Your job is to decide whether you remember seeing the word or not. If you remember seeing the word press ""old"" or type ""m"". If you do not remember seeing the word press ""new"" or type ""z"". Please press the space bar or click on continue to begin. ",,,200065,18,2022-01-28_15h57.06,lexical_decision_task_DD_L3,2021.2.3,MacIntel,58.82352941,0.499,,,,,,,,,,,,,,,,,,,,,,,,,,,,,,,,,,,,,,,,,,,,,,,,,,,,,,1,0,1,0,1,,,,,,,,,,,,,,,
,-0.156706507,-0.448207171,1,0,0,instr_done_button,,,,,,1,test,"In the next phase you will be presented with the words from the the first phase. Your job is to decide whether you remember seeing the word or not. If you remember seeing the word press ""old"" or type ""m"". If you do not remember seeing the word press ""new"" or type ""z"". Please press the space bar or click on continue to begin. ",,,200065,18,2022-01-28_15h57.06,lexical_decision_task_DD_L3,2021.2.3,MacIntel,58.82352941,,,,,,,,,,,,,,,,,,,,,,,,,,,,,,,,,,,,,,,,,,,,,,,,,,,,,,,2,0,2,0,1,,,,,,,,,,,,,,,
space,-0.156706507,-0.448207171,0,0,0,,,,,,,1,test,"In the next phase you will be presented with the words from the the first phase. Your job is to decide whether you remember seeing the word or not. If you remember seeing the word press ""old"" or type ""m"". If you do not remember seeing the word press ""new"" or type ""z"". Please press the space bar or click on continue to begin. ",,,200065,18,2022-01-28_15h57.06,lexical_decision_task_DD_L3,2021.2.3,MacIntel,58.82352941,0.437,,,,,,,,,,,,,,,,,,,,,,,,,,,,,,,,,,,,,,,,,,,,,,,,,,,,,,3,0,3,0,1,,,,,,,,,,,,,,,
space,0.181938911,0.462815405,0,0,0,,,,,,,1,test,"In the next phase you will be presented with the words from the the first phase. Your job is to decide whether you remember seeing the word or not. If you remember seeing the word press ""old"" or type ""m"". If you do not remember seeing the word press ""new"" or type ""z"". Please press the space bar or click on continue to begin. ",,,200065,18,2022-01-28_15h57.06,lexical_decision_task_DD_L3,2021.2.3,MacIntel,58.82352941,9.883,,,,,,,,,,,,,,,,,,,,,,,,,,,,,,,,,,,,,,,,,,,,,,,,,,,,,,4,0,4,0,1,,,,,,,,,,,,,,,
,,,,,,,,,,,,,,,,,200065,18,2022-01-28_15h57.06,lexical_decision_task_DD_L3,2021.2.3,MacIntel,58.82352941,,,,,,,,,,,,7.16,0,,,,,,,,,,,,,,,,,,,,,,,,0.181938911,0.462815405,0,0,0,,,,,,,CLOTH,HB,z,m,./images/CLOTHHB.png,,,,,,,,m,0,7.16,,,,,,,,0,0,0,107,1
,,,,,,,,,,,,,,,,,200065,18,2022-01-28_15h57.06,lexical_decision_task_DD_L3,2021.2.3,MacIntel,58.82352941,,,,,,,,,,,,1.829,1,,,,,,,,,,,,,,,,,,,,,,,,0.181938911,0.462815405,0,0,0,,,,,,,SMOKER,HB,m,m,./images/SMOKERHB.png,,,,,,,,m,1,1.829,,,,,,,,0,1,1,26,1
,,,,,,,,,,,,,,,,,200065,18,2022-01-28_15h57.06,lexical_decision_task_DD_L3,2021.2.3,MacIntel,58.82352941,,,,,,,,,,,,0.891,1,,,,,,,,,,,,,,,,,,,,,,,,0.181938911,0.462815405,0,0,0,,,,,,,JUMPER,HB,z,m,./images/JUMPERHB.png,,,,,,,,z,1,0.891,,,,,,,,0,2,2,158,1
,,,,,,,,,,,,,,,,,200065,18,2022-01-28_15h57.06,lexical_decision_task_DD_L3,2021.2.3,MacIntel,58.82352941,,,,,,,,,,,,0.965,1,,,,,,,,,,,,,,,,,,,,,,,,0.181938911,0.462815405,0,0,0,,,,,,,TIGER,C,z,m,./images/TIGER.png,,,,,,,,z,1,0.965,,,,,,,,0,3,3,121,1
,,,,,,,,,,,,,,,,,200065,18,2022-01-28_15h57.06,lexical_decision_task_DD_L3,2021.2.3,MacIntel,58.82352941,,,,,,,,,,,,0.975,1,,,,,,,,,,,,,,,,,,,,,,,,0.181938911,0.462815405,0,0,0,,,,,,,BONNET,HB,m,m,./images/BONNETHB.png,,,,,,,,m,1,0.975,,,,,,,,0,4,4,11,1
,,,,,,,,,,,,,,,,,200065,18,2022-01-28_15h57.06,lexical_decision_task_DD_L3,2021.2.3,MacIntel,58.82352941,,,,,,,,,,,,1.379,1,,,,,,,,,,,,,,,,,,,,,,,,0.181938911,0.462815405,0,0,0,,,,,,,NOOSE,LB,m,m,./images/NOOSELB.png,,,,,,,,m,1,1.379,,,,,,,,0,5,5,72,1
,,,,,,,,,,,,,,,,,200065,18,2022-01-28_15h57.06,lexical_decision_task_DD_L3,2021.2.3,MacIntel,58.82352941,,,,,,,,,,,,0.995,0,,,,,,,,,,,,,,,,,,,,,,,,0.181938911,0.462815405,0,0,0,,,,,,,DRILL,LB,z,m,./images/DRILLLB.png,,,,,,,,m,0,0.995,,,,,,,,0,6,6,165,1
,,,,,,,,,,,,,,,,,200065,18,2022-01-28_15h57.06,lexical_decision_task_DD_L3,2021.2.3,MacIntel,58.82352941,,,,,,,,,,,,0.843,0,,,,,,,,,,,,,,,,,,,,,,,,0.181938911,0.462815405,0,0,0,,,,,,,BAKER,LB,z,m,./images/BAKERLB.png,,,,,,,,m,0,0.843,,,,,,,,0,7,7,147,1
,,,,,,,,,,,,,,,,,200065,18,2022-01-28_15h57.06,lexical_decision_task_DD_L3,2021.2.3,MacIntel,58.82352941,,,,,,,,,,,,0.997,1,,,,,,,,,,,,,,,,,,,,,,,,0.181938911,0.462815405,0,0,0,,,,,,,JELLY,C,m,m,./images/JELLY.png,,,,,,,,m,1,0.997,,,,,,,,0,8,8,64,1
,,,,,,,,,,,,,,,,,200065,18,2022-01-28_15h57.06,lexical_decision_task_DD_L3,2021.2.3,MacIntel,58.82352941,,,,,,,,,,,,0.713,1,,,,,,,,,,,,,,,,,,,,,,,,0.181938911,0.462815405,0,0,0,,,,,,,ATTIC,LB,m,m,./images/ATTICLB.png,,,,,,,,m,1,0.713,,,,,,,,0,9,9,27,1
,,,,,,,,,,,,,,,,,200065,18,2022-01-28_15h57.06,lexical_decision_task_DD_L3,2021.2.3,MacIntel,58.82352941,,,,,,,,,,,,0.719,1,,,,,,,,,,,,,,,,,,,,,,,,0.181938911,0.462815405,0,0,0,,,,,,,STAIN,LB,z,m,./images/STAINLB.png,,,,,,,,z,1,0.719,,,,,,,,0,10,10,90,1
,,,,,,,,,,,,,,,,,200065,18,2022-01-28_15h57.06,lexical_decision_task_DD_L3,2021.2.3,MacIntel,58.82352941,,,,,,,,,,,,1.018,1,,,,,,,,,,,,,,,,,,,,,,,,0.181938911,0.462815405,0,0,0,,,,,,,DANCER,LB,z,m,./images/DANCERLB.png,,,,,,,,z,1,1.018,,,,,,,,0,11,11,105,1
,,,,,,,,,,,,,,,,,200065,18,2022-01-28_15h57.06,lexical_decision_task_DD_L3,2021.2.3,MacIntel,58.82352941,,,,,,,,,,,,2.117,1,,,,,,,,,,,,,,,,,,,,,,,,0.181938911,0.462815405,0,0,0,,,,,,,BLOKE,LB,z,m,./images/BLOKELB.png,,,,,,,,z,1,2.117,,,,,,,,0,12,12,96,1
,,,,,,,,,,,,,,,,,200065,18,2022-01-28_15h57.06,lexical_decision_task_DD_L3,2021.2.3,MacIntel,58.82352941,,,,,,,,,,,,0.993,1,,,,,,,,,,,,,,,,,,,,,,,,0.181938911,0.462815405,0,0,0,,,,,,,BRIDE,C,z,m,./images/BRIDE.png,,,,,,,,z,1,0.993,,,,,,,,0,13,13,148,1
,,,,,,,,,,,,,,,,,200065,18,2022-01-28_15h57.06,lexical_decision_task_DD_L3,2021.2.3,MacIntel,58.82352941,,,,,,,,,,,,0.909,1,,,,,,,,,,,,,,,,,,,,,,,,0.181938911,0.462815405,0,0,0,,,,,,,DRUMS,C,m,m,./images/DRUMS.png,,,,,,,,m,1,0.909,,,,,,,,0,14,14,49,1
,,,,,,,,,,,,,,,,,200065,18,2022-01-28_15h57.06,lexical_decision_task_DD_L3,2021.2.3,MacIntel,58.82352941,,,,,,,,,,,,3.556,0,,,,,,,,,,,,,,,,,,,,,,,,0.181938911,0.462815405,0,0,0,,,,,,,SHIELD,LB,z,m,./images/SHIELDLB.png,,,,,,,,m,0,3.556,,,,,,,,0,15,15,132,1
,,,,,,,,,,,,,,,,,200065,18,2022-01-28_15h57.06,lexical_decision_task_DD_L3,2021.2.3,MacIntel,58.82352941,,,,,,,,,,,,0.679,1,,,,,,,,,,,,,,,,,,,,,,,,0.181938911,0.462815405,0,0,0,,,,,,,MUFFIN,C,m,m,./images/MUFFIN.png,,,,,,,,m,1,0.679,,,,,,,,0,16,16,55,1
,,,,,,,,,,,,,,,,,200065,18,2022-01-28_15h57.06,lexical_decision_task_DD_L3,2021.2.3,MacIntel,58.82352941,,,,,,,,,,,,0.573,0,,,,,,,,,,,,,,,,,,,,,,,,0.181938911,0.462815405,0,0,0,,,,,,,TOWEL,C,z,m,./images/TOWEL.png,,,,,,,,m,0,0.573,,,,,,,,0,17,17,85,1
,,,,,,,,,,,,,,,,,200065,18,2022-01-28_15h57.06,lexical_decision_task_DD_L3,2021.2.3,MacIntel,58.82352941,,,,,,,,,,,,0.797,1,,,,,,,,,,,,,,,,,,,,,,,,0.181938911,0.462815405,0,0,0,,,,,,,MELON,C,m,m,./images/MELON.png,,,,,,,,m,1,0.797,,,,,,,,0,18,18,22,1
,,,,,,,,,,,,,,,,,200065,18,2022-01-28_15h57.06,lexical_decision_task_DD_L3,2021.2.3,MacIntel,58.82352941,,,,,,,,,,,,0.66,1,,,,,,,,,,,,,,,,,,,,,,,,0.181938911,0.462815405,0,0,0,,,,,,,PAINT,C,m,m,./images/PAINT.png,,,,,,,,m,1,0.66,,,,,,,,0,19,19,7,1
,,,,,,,,,,,,,,,,,200065,18,2022-01-28_15h57.06,lexical_decision_task_DD_L3,2021.2.3,MacIntel,58.82352941,,,,,,,,,,,,0.601,1,,,,,,,,,,,,,,,,,,,,,,,,0.181938911,0.462815405,0,0,0,,,,,,,MOOSE,LB,m,m,./images/MOOSELB.png,,,,,,,,m,1,0.601,,,,,,,,0,20,20,57,1
,,,,,,,,,,,,,,,,,200065,18,2022-01-28_15h57.06,lexical_decision_task_DD_L3,2021.2.3,MacIntel,58.82352941,,,,,,,,,,,,0.632,1,,,,,,,,,,,,,,,,,,,,,,,,0.181938911,0.462815405,0,0,0,,,,,,,WRIST,C,m,m,./images/WRIST.png,,,,,,,,m,1,0.632,,,,,,,,0,21,21,25,1
,,,,,,,,,,,,,,,,,200065,18,2022-01-28_15h57.06,lexical_decision_task_DD_L3,2021.2.3,MacIntel,58.82352941,,,,,,,,,,,,1.524,1,,,,,,,,,,,,,,,,,,,,,,,,0.181938911,0.462815405,0,0,0,,,,,,,HEATER,HB,z,m,./images/HEATERHB.png,,,,,,,,z,1,1.524,,,,,,,,0,22,22,140,1
,,,,,,,,,,,,,,,,,200065,18,2022-01-28_15h57.06,lexical_decision_task_DD_L3,2021.2.3,MacIntel,58.82352941,,,,,,,,,,,,0.825,1,,,,,,,,,,,,,,,,,,,,,,,,0.181938911,0.462815405,0,0,0,,,,,,,VALLEY,HB,z,m,./images/VALLEYHB.png,,,,,,,,z,1,0.825,,,,,,,,0,23,23,152,1
,,,,,,,,,,,,,,,,,200065,18,2022-01-28_15h57.06,lexical_decision_task_DD_L3,2021.2.3,MacIntel,58.82352941,,,,,,,,,,,,0.864,0,,,,,,,,,,,,,,,,,,,,,,,,0.181938911,0.462815405,0,0,0,,,,,,,GRAPE,C,z,m,./images/GRAPE.png,,,,,,,,m,0,0.864,,,,,,,,0,24,24,100,1
,,,,,,,,,,,,,,,,,200065,18,2022-01-28_15h57.06,lexical_decision_task_DD_L3,2021.2.3,MacIntel,58.82352941,,,,,,,,,,,,1.292,0,,,,,,,,,,,,,,,,,,,,,,,,0.181938911,0.462815405,0,0,0,,,,,,,MIDGET,C,z,m,./images/MIDGET.png,,,,,,,,m,0,1.292,,,,,,,,0,25,25,160,1
,,,,,,,,,,,,,,,,,200065,18,2022-01-28_15h57.06,lexical_decision_task_DD_L3,2021.2.3,MacIntel,58.82352941,,,,,,,,,,,,1.265,0,,,,,,,,,,,,,,,,,,,,,,,,0.181938911,0.462815405,0,0,0,,,,,,,PASTA,HB,m,m,./images/PASTAHB.png,,,,,,,,z,0,1.265,,,,,,,,0,26,26,5,1
,,,,,,,,,,,,,,,,,200065,18,2022-01-28_15h57.06,lexical_decision_task_DD_L3,2021.2.3,MacIntel,58.82352941,,,,,,,,,,,,1.625,1,,,,,,,,,,,,,,,,,,,,,,,,0.181938911,0.462815405,0,0,0,,,,,,,SAUCE,LB,z,m,./images/SAUCELB.png,,,,,,,,z,1,1.625,,,,,,,,0,27,27,135,1
,,,,,,,,,,,,,,,,,200065,18,2022-01-28_15h57.06,lexical_decision_task_DD_L3,2021.2.3,MacIntel,58.82352941,,,,,,,,,,,,1.461,0,,,,,,,,,,,,,,,,,,,,,,,,0.181938911,0.462815405,0,0,0,,,,,,,BOILER,LB,z,m,./images/BOILERLB.png,,,,,,,,m,0,1.461,,,,,,,,0,28,28,120,1
,,,,,,,,,,,,,,,,,200065,18,2022-01-28_15h57.06,lexical_decision_task_DD_L3,2021.2.3,MacIntel,58.82352941,,,,,,,,,,,,3.251,0,,,,,,,,,,,,,,,,,,,,,,,,0.181938911,0.462815405,0,0,0,,,,,,,HOCKEY,HB,z,m,./images/HOCKEYHB.png,,,,,,,,m,0,3.251,,,,,,,,0,29,29,116,1
,,,,,,,,,,,,,,,,,200065,18,2022-01-28_15h57.06,lexical_decision_task_DD_L3,2021.2.3,MacIntel,58.82352941,,,,,,,,,,,,0.848,1,,,,,,,,,,,,,,,,,,,,,,,,0.181938911,0.462815405,0,0,0,,,,,,,FLESH,LB,z,m,./images/FLESHLB.png,,,,,,,,z,1,0.848,,,,,,,,0,30,30,108,1
,,,,,,,,,,,,,,,,,200065,18,2022-01-28_15h57.06,lexical_decision_task_DD_L3,2021.2.3,MacIntel,58.82352941,,,,,,,,,,,,0.734,1,,,,,,,,,,,,,,,,,,,,,,,,0.181938911,0.462815405,0,0,0,,,,,,,WEASEL,HB,m,m,./images/WEASELHB.png,,,,,,,,m,1,0.734,,,,,,,,0,31,31,80,1
,,,,,,,,,,,,,,,,,200065,18,2022-01-28_15h57.06,lexical_decision_task_DD_L3,2021.2.3,MacIntel,58.82352941,,,,,,,,,,,,8.18,1,,,,,,,,,,,,,,,,,,,,,,,,0.111553785,0.267596282,0,0,0,,,,,,,CANYON,C,m,m,./images/CANYON.png,,,,,,,,m,1,8.18,,,,,,,,0,32,32,34,1
,,,,,,,,,,,,,,,,,200065,18,2022-01-28_15h57.06,lexical_decision_task_DD_L3,2021.2.3,MacIntel,58.82352941,,,,,,,,,,,,0.909,0,,,,,,,,,,,,,,,,,,,,,,,,0.111553785,0.267596282,0,0,0,,,,,,,CHALK,C,z,m,./images/CHALK.png,,,,,,,,m,0,0.909,,,,,,,,0,33,33,109,1
,,,,,,,,,,,,,,,,,200065,18,2022-01-28_15h57.06,lexical_decision_task_DD_L3,2021.2.3,MacIntel,58.82352941,,,,,,,,,,,,0.728,1,,,,,,,,,,,,,,,,,,,,,,,,0.111553785,0.267596282,0,0,0,,,,,,,FOLDER,LB,m,m,./images/FOLDERLB.png,,,,,,,,m,1,0.728,,,,,,,,0,34,34,42,1
,,,,,,,,,,,,,,,,,200065,18,2022-01-28_15h57.06,lexical_decision_task_DD_L3,2021.2.3,MacIntel,58.82352941,,,,,,,,,,,,10.976,0,,,,,,,,,,,,,,,,,,,,,,,,0.090305445,0.060424967,0,0,0,,,,,,,PLANET,HB,z,m,./images/PLANETHB.png,,,,,,,,m,0,10.976,,,,,,,,0,35,35,164,1
,,,,,,,,,,,,,,,,,200065,18,2022-01-28_15h57.06,lexical_decision_task_DD_L3,2021.2.3,MacIntel,58.82352941,,,,,,,,,,,,0.776,1,,,,,,,,,,,,,,,,,,,,,,,,0.090305445,0.060424967,0,0,0,,,,,,,STEAK,C,z,m,./images/STEAK.png,,,,,,,,z,1,0.776,,,,,,,,0,36,36,115,1
,,,,,,,,,,,,,,,,,200065,18,2022-01-28_15h57.06,lexical_decision_task_DD_L3,2021.2.3,MacIntel,58.82352941,,,,,,,,,,,,1.329,1,,,,,,,,,,,,,,,,,,,,,,,,0.090305445,0.060424967,0,0,0,,,,,,,SAUNA,LB,z,m,./images/SAUNALB.png,,,,,,,,z,1,1.329,,,,,,,,0,37,37,117,1
,,,,,,,,,,,,,,,,,200065,18,2022-01-28_15h57.06,lexical_decision_task_DD_L3,2021.2.3,MacIntel,58.82352941,,,,,,,,,,,,1.23,1,,,,,,,,,,,,,,,,,,,,,,,,0.090305445,0.060424967,0,0,0,,,,,,,BUNNY,C,z,m,./images/BUNNY.png,,,,,,,,z,1,1.23,,,,,,,,0,38,38,97,1
,,,,,,,,,,,,,,,,,200065,18,2022-01-28_15h57.06,lexical_decision_task_DD_L3,2021.2.3,MacIntel,58.82352941,,,,,,,,,,,,1.039,1,,,,,,,,,,,,,,,,,,,,,,,,0.090305445,0.060424967,0,0,0,,,,,,,LAGOON,HB,z,m,./images/LAGOONHB.png,,,,,,,,z,1,1.039,,,,,,,,0,39,39,131,1
,,,,,,,,,,,,,,,,,200065,18,2022-01-28_15h57.06,lexical_decision_task_DD_L3,2021.2.3,MacIntel,58.82352941,,,,,,,,,,,,1.114,1,,,,,,,,,,,,,,,,,,,,,,,,0.090305445,0.060424967,0,0,0,,,,,,,FALCON,C,m,m,./images/FALCON.png,,,,,,,,m,1,1.114,,,,,,,,0,40,40,28,1
,,,,,,,,,,,,,,,,,200065,18,2022-01-28_15h57.06,lexical_decision_task_DD_L3,2021.2.3,MacIntel,58.82352941,,,,,,,,,,,,0.581,1,,,,,,,,,,,,,,,,,,,,,,,,0.041168659,-0.411022576,1,0,0,,,,,,,BANNER,C,m,m,./images/BANNER.png,,break_done_button,,,,,,m,1,0.581,,,,,,,,0,41,41,52,1
,,,,,,,,,,,,,,,,,200065,18,2022-01-28_15h57.06,lexical_decision_task_DD_L3,2021.2.3,MacIntel,58.82352941,,,,,,,,,,,,2.466,0,,,,,,,,,,,,,,,,,,,,,,,,0.041168659,-0.411022576,0,0,0,,,,,,,CASINO,C,z,m,./images/CASINO.png,,,,,,,,m,0,2.466,,,,,,,,0,42,42,112,1
,,,,,,,,,,,,,,,,,200065,18,2022-01-28_15h57.06,lexical_decision_task_DD_L3,2021.2.3,MacIntel,58.82352941,,,,,,,,,,,,0.632,1,,,,,,,,,,,,,,,,,,,,,,,,0.041168659,-0.411022576,0,0,0,,,,,,,CRUMB,HB,m,m,./images/CRUMBHB.png,,,,,,,,m,1,0.632,,,,,,,,0,43,43,29,1
,,,,,,,,,,,,,,,,,200065,18,2022-01-28_15h57.06,lexical_decision_task_DD_L3,2021.2.3,MacIntel,58.82352941,,,,,,,,,,,,0.951,1,,,,,,,,,,,,,,,,,,,,,,,,0.041168659,-0.411022576,0,0,0,,,,,,,SCREW,LB,m,m,./images/SCREWLB.png,,,,,,,,m,1,0.951,,,,,,,,0,44,44,24,1
,,,,,,,,,,,,,,,,,200065,18,2022-01-28_15h57.06,lexical_decision_task_DD_L3,2021.2.3,MacIntel,58.82352941,,,,,,,,,,,,1.195,0,,,,,,,,,,,,,,,,,,,,,,,,0.041168659,-0.411022576,0,0,0,,,,,,,POSTER,HB,z,m,./images/POSTERHB.png,,,,,,,,m,0,1.195,,,,,,,,0,45,45,137,1
,,,,,,,,,,,,,,,,,200065,18,2022-01-28_15h57.06,lexical_decision_task_DD_L3,2021.2.3,MacIntel,58.82352941,,,,,,,,,,,,0.966,0,,,,,,,,,,,,,,,,,,,,,,,,0.041168659,-0.411022576,0,0,0,,,,,,,POKER,C,z,m,./images/POKER.png,,,,,,,,m,0,0.966,,,,,,,,0,46,46,151,1
,,,,,,,,,,,,,,,,,200065,18,2022-01-28_15h57.06,lexical_decision_task_DD_L3,2021.2.3,MacIntel,58.82352941,,,,,,,,,,,,0.639,1,,,,,,,,,,,,,,,,,,,,,,,,0.041168659,-0.411022576,0,0,0,,,,,,,CANOE,C,z,m,./images/CANOE.png,,,,,,,,z,1,0.639,,,,,,,,0,47,47,142,1
,,,,,,,,,,,,,,,,,200065,18,2022-01-28_15h57.06,lexical_decision_task_DD_L3,2021.2.3,MacIntel,58.82352941,,,,,,,,,,,,0.944,1,,,,,,,,,,,,,,,,,,,,,,,,0.041168659,-0.411022576,0,0,0,,,,,,,BANANA,C,z,m,./images/BANANA.png,,,,,,,,z,1,0.944,,,,,,,,0,48,48,154,1
,,,,,,,,,,,,,,,,,200065,18,2022-01-28_15h57.06,lexical_decision_task_DD_L3,2021.2.3,MacIntel,58.82352941,,,,,,,,,,,,0.91,0,,,,,,,,,,,,,,,,,,,,,,,,0.041168659,-0.411022576,0,0,0,,,,,,,MUMMY,C,z,m,./images/MUMMY.png,,,,,,,,m,0,0.91,,,,,,,,0,49,49,130,1
,,,,,,,,,,,,,,,,,200065,18,2022-01-28_15h57.06,lexical_decision_task_DD_L3,2021.2.3,MacIntel,58.82352941,,,,,,,,,,,,0.935,1,,,,,,,,,,,,,,,,,,,,,,,,0.041168659,-0.411022576,0,0,0,,,,,,,SKIING,HB,m,m,./images/SKIINGHB.png,,,,,,,,m,1,0.935,,,,,,,,0,50,50,17,1
,,,,,,,,,,,,,,,,,200065,18,2022-01-28_15h57.06,lexical_decision_task_DD_L3,2021.2.3,MacIntel,58.82352941,,,,,,,,,,,,0.946,1,,,,,,,,,,,,,,,,,,,,,,,,0.041168659,-0.411022576,0,0,0,,,,,,,GARDEN,C,z,m,./images/GARDEN.png,,,,,,,,z,1,0.946,,,,,,,,0,51,51,94,1
,,,,,,,,,,,,,,,,,200065,18,2022-01-28_15h57.06,lexical_decision_task_DD_L3,2021.2.3,MacIntel,58.82352941,,,,,,,,,,,,0.819,1,,,,,,,,,,,,,,,,,,,,,,,,0.041168659,-0.411022576,0,0,0,,,,,,,HAMMER,LB,z,m,./images/HAMMERLB.png,,,,,,,,z,1,0.819,,,,,,,,0,52,52,159,1
,,,,,,,,,,,,,,,,,200065,18,2022-01-28_15h57.06,lexical_decision_task_DD_L3,2021.2.3,MacIntel,58.82352941,,,,,,,,,,,,1.797,1,,,,,,,,,,,,,,,,,,,,,,,,0.041168659,-0.411022576,0,0,0,,,,,,,PARCEL,LB,z,m,./images/PARCELLB.png,,,,,,,,z,1,1.797,,,,,,,,0,53,53,102,1
,,,,,,,,,,,,,,,,,200065,18,2022-01-28_15h57.06,lexical_decision_task_DD_L3,2021.2.3,MacIntel,58.82352941,,,,,,,,,,,,0.628,1,,,,,,,,,,,,,,,,,,,,,,,,0.041168659,-0.411022576,0,0,0,,,,,,,BERRY,HB,m,m,./images/BERRYHB.png,,,,,,,,m,1,0.628,,,,,,,,0,54,54,47,1
,,,,,,,,,,,,,,,,,200065,18,2022-01-28_15h57.06,lexical_decision_task_DD_L3,2021.2.3,MacIntel,58.82352941,,,,,,,,,,,,0.807,1,,,,,,,,,,,,,,,,,,,,,,,,0.041168659,-0.411022576,0,0,0,,,,,,,RAZOR,C,z,m,./images/RAZOR.png,,,,,,,,z,1,0.807,,,,,,,,0,55,55,118,1
,,,,,,,,,,,,,,,,,200065,18,2022-01-28_15h57.06,lexical_decision_task_DD_L3,2021.2.3,MacIntel,58.82352941,,,,,,,,,,,,0.617,1,,,,,,,,,,,,,,,,,,,,,,,,0.041168659,-0.411022576,0,0,0,,,,,,,BABOON,C,m,m,./images/BABOON.png,,,,,,,,m,1,0.617,,,,,,,,0,56,56,58,1
,,,,,,,,,,,,,,,,,200065,18,2022-01-28_15h57.06,lexical_decision_task_DD_L3,2021.2.3,MacIntel,58.82352941,,,,,,,,,,,,1.696,1,,,,,,,,,,,,,,,,,,,,,,,,0.041168659,-0.411022576,0,0,0,,,,,,,GRANNY,HB,z,m,./images/GRANNYHB.png,,,,,,,,z,1,1.696,,,,,,,,0,57,57,104,1
,,,,,,,,,,,,,,,,,200065,18,2022-01-28_15h57.06,lexical_decision_task_DD_L3,2021.2.3,MacIntel,58.82352941,,,,,,,,,,,,1.182,1,,,,,,,,,,,,,,,,,,,,,,,,0.041168659,-0.411022576,0,0,0,,,,,,,MUSCLE,C,m,m,./images/MUSCLE.png,,,,,,,,m,1,1.182,,,,,,,,0,58,58,4,1
,,,,,,,,,,,,,,,,,200065,18,2022-01-28_15h57.06,lexical_decision_task_DD_L3,2021.2.3,MacIntel,58.82352941,,,,,,,,,,,,0.675,1,,,,,,,,,,,,,,,,,,,,,,,,0.041168659,-0.411022576,0,0,0,,,,,,,TRIPOD,LB,m,m,./images/TRIPODLB.png,,,,,,,,m,1,0.675,,,,,,,,0,59,59,54,1
,,,,,,,,,,,,,,,,,200065,18,2022-01-28_15h57.06,lexical_decision_task_DD_L3,2021.2.3,MacIntel,58.82352941,,,,,,,,,,,,1.157,1,,,,,,,,,,,,,,,,,,,,,,,,0.041168659,-0.411022576,0,0,0,,,,,,,POODLE,LB,m,m,./images/POODLELB.png,,,,,,,,m,1,1.157,,,,,,,,0,60,60,81,1
,,,,,,,,,,,,,,,,,200065,18,2022-01-28_15h57.06,lexical_decision_task_DD_L3,2021.2.3,MacIntel,58.82352941,,,,,,,,,,,,10.916,0,,,,,,,,,,,,,,,,,,,,,,,,0.087649402,-0.250332005,0,0,0,,,,,,,FLASK,LB,z,m,./images/FLASKLB.png,,,,,,,,m,0,10.916,0.363877822,-0.102921647,1,0,0,8.932,,0,61,61,156,1
,,,,,,,,,,,,,,,,,200065,18,2022-01-28_15h57.06,lexical_decision_task_DD_L3,2021.2.3,MacIntel,58.82352941,,,,,,,,,,,,0.647,1,,,,,,,,,,,,,,,,,,,,,,,,0.087649402,-0.250332005,0,0,0,,,,,,,JUNGLE,HB,m,m,./images/JUNGLEHB.png,,,,,,,,m,1,0.647,,,,,,,,0,62,62,83,1
,,,,,,,,,,,,,,,,,200065,18,2022-01-28_15h57.06,lexical_decision_task_DD_L3,2021.2.3,MacIntel,58.82352941,,,,,,,,,,,,0.848,0,,,,,,,,,,,,,,,,,,,,,,,,0.087649402,-0.250332005,0,0,0,,,,,,,PILOT,HB,z,m,./images/PILOTHB.png,,,,,,,,m,0,0.848,,,,,,,,0,63,63,134,1
,,,,,,,,,,,,,,,,,200065,18,2022-01-28_15h57.06,lexical_decision_task_DD_L3,2021.2.3,MacIntel,58.82352941,,,,,,,,,,,,0.742,0,,,,,,,,,,,,,,,,,,,,,,,,0.087649402,-0.250332005,0,0,0,,,,,,,CANDY,LB,z,m,./images/CANDYLB.png,,,,,,,,m,0,0.742,,,,,,,,0,64,64,123,1
,,,,,,,,,,,,,,,,,200065,18,2022-01-28_15h57.06,lexical_decision_task_DD_L3,2021.2.3,MacIntel,58.82352941,,,,,,,,,,,,0.682,1,,,,,,,,,,,,,,,,,,,,,,,,0.087649402,-0.250332005,0,0,0,,,,,,,MEDAL,HB,z,m,./images/MEDALHB.png,,,,,,,,z,1,0.682,,,,,,,,0,65,65,95,1
,,,,,,,,,,,,,,,,,200065,18,2022-01-28_15h57.06,lexical_decision_task_DD_L3,2021.2.3,MacIntel,58.82352941,,,,,,,,,,,,1.513,1,,,,,,,,,,,,,,,,,,,,,,,,0.087649402,-0.250332005,0,0,0,,,,,,,STOVE,HB,z,m,./images/STOVEHB.png,,,,,,,,z,1,1.513,,,,,,,,0,66,66,86,1
,,,,,,,,,,,,,,,,,200065,18,2022-01-28_15h57.06,lexical_decision_task_DD_L3,2021.2.3,MacIntel,58.82352941,,,,,,,,,,,,0.846,0,,,,,,,,,,,,,,,,,,,,,,,,0.087649402,-0.250332005,0,0,0,,,,,,,WALNUT,LB,z,m,./images/WALNUTLB.png,,,,,,,,m,0,0.846,,,,,,,,0,67,67,84,1
,,,,,,,,,,,,,,,,,200065,18,2022-01-28_15h57.06,lexical_decision_task_DD_L3,2021.2.3,MacIntel,58.82352941,,,,,,,,,,,,0.698,0,,,,,,,,,,,,,,,,,,,,,,,,0.087649402,-0.250332005,0,0,0,,,,,,,KIDNEY,LB,m,m,./images/KIDNEYLB.png,,,,,,,,z,0,0.698,,,,,,,,0,68,68,21,1
,,,,,,,,,,,,,,,,,200065,18,2022-01-28_15h57.06,lexical_decision_task_DD_L3,2021.2.3,MacIntel,58.82352941,,,,,,,,,,,,0.574,1,,,,,,,,,,,,,,,,,,,,,,,,0.087649402,-0.250332005,0,0,0,,,,,,,BOXER,C,z,m,./images/BOXER.png,,,,,,,,z,1,0.574,,,,,,,,0,69,69,88,1
,,,,,,,,,,,,,,,,,200065,18,2022-01-28_15h57.06,lexical_decision_task_DD_L3,2021.2.3,MacIntel,58.82352941,,,,,,,,,,,,0.773,1,,,,,,,,,,,,,,,,,,,,,,,,0.087649402,-0.250332005,0,0,0,,,,,,,WHEEL,HB,z,m,./images/WHEELHB.png,,,,,,,,z,1,0.773,,,,,,,,0,70,70,161,1
,,,,,,,,,,,,,,,,,200065,18,2022-01-28_15h57.06,lexical_decision_task_DD_L3,2021.2.3,MacIntel,58.82352941,,,,,,,,,,,,0.582,1,,,,,,,,,,,,,,,,,,,,,,,,0.087649402,-0.250332005,0,0,0,,,,,,,PIMPLE,HB,m,m,./images/PIMPLEHB.png,,,,,,,,m,1,0.582,,,,,,,,0,71,71,71,1
,,,,,,,,,,,,,,,,,200065,18,2022-01-28_15h57.06,lexical_decision_task_DD_L3,2021.2.3,MacIntel,58.82352941,,,,,,,,,,,,1.324,0,,,,,,,,,,,,,,,,,,,,,,,,0.087649402,-0.250332005,0,0,0,,,,,,,THROAT,LB,m,m,./images/THROATLB.png,,,,,,,,z,0,1.324,,,,,,,,0,72,72,36,1
,,,,,,,,,,,,,,,,,200065,18,2022-01-28_15h57.06,lexical_decision_task_DD_L3,2021.2.3,MacIntel,58.82352941,,,,,,,,,,,,0.832,1,,,,,,,,,,,,,,,,,,,,,,,,0.087649402,-0.250332005,0,0,0,,,,,,,STOOL,C,z,m,./images/STOOL.png,,,,,,,,z,1,0.832,,,,,,,,0,73,73,127,1
,,,,,,,,,,,,,,,,,200065,18,2022-01-28_15h57.06,lexical_decision_task_DD_L3,2021.2.3,MacIntel,58.82352941,,,,,,,,,,,,1.342,1,,,,,,,,,,,,,,,,,,,,,,,,0.087649402,-0.250332005,0,0,0,,,,,,,CLOUD,HB,z,m,./images/CLOUDHB.png,,,,,,,,z,1,1.342,,,,,,,,0,74,74,110,1
,,,,,,,,,,,,,,,,,200065,18,2022-01-28_15h57.06,lexical_decision_task_DD_L3,2021.2.3,MacIntel,58.82352941,,,,,,,,,,,,0.58,1,,,,,,,,,,,,,,,,,,,,,,,,0.087649402,-0.250332005,0,0,0,,,,,,,CRADLE,HB,m,m,./images/CRADLEHB.png,,,,,,,,m,1,0.58,,,,,,,,0,75,75,20,1
,,,,,,,,,,,,,,,,,200065,18,2022-01-28_15h57.06,lexical_decision_task_DD_L3,2021.2.3,MacIntel,58.82352941,,,,,,,,,,,,1.314,1,,,,,,,,,,,,,,,,,,,,,,,,0.087649402,-0.250332005,0,0,0,,,,,,,BISHOP,C,z,m,./images/BISHOP.png,,,,,,,,z,1,1.314,,,,,,,,0,76,76,133,1
,,,,,,,,,,,,,,,,,200065,18,2022-01-28_15h57.06,lexical_decision_task_DD_L3,2021.2.3,MacIntel,58.82352941,,,,,,,,,,,,1.135,0,,,,,,,,,,,,,,,,,,,,,,,,0.087649402,-0.250332005,0,0,0,,,,,,,FERRY,LB,z,m,./images/FERRYLB.png,,,,,,,,m,0,1.135,,,,,,,,0,77,77,141,1
,,,,,,,,,,,,,,,,,200065,18,2022-01-28_15h57.06,lexical_decision_task_DD_L3,2021.2.3,MacIntel,58.82352941,,,,,,,,,,,,1.908,1,,,,,,,,,,,,,,,,,,,,,,,,0.087649402,-0.250332005,0,0,0,,,,,,,ARROW,LB,z,m,./images/ARROWLB.png,,,,,,,,z,1,1.908,,,,,,,,0,78,78,153,1
,,,,,,,,,,,,,,,,,200065,18,2022-01-28_15h57.06,lexical_decision_task_DD_L3,2021.2.3,MacIntel,58.82352941,,,,,,,,,,,,1.61,1,,,,,,,,,,,,,,,,,,,,,,,,0.087649402,-0.250332005,0,0,0,,,,,,,JAGUAR,LB,m,m,./images/JAGUARLB.png,,,,,,,,m,1,1.61,,,,,,,,0,79,79,18,1
,,,,,,,,,,,,,,,,,200065,18,2022-01-28_15h57.06,lexical_decision_task_DD_L3,2021.2.3,MacIntel,58.82352941,,,,,,,,,,,,1.24,0,,,,,,,,,,,,,,,,,,,,,,,,0.087649402,-0.250332005,0,0,0,,,,,,,BEARD,HB,m,m,./images/BEARDHB.png,,,,,,,,z,0,1.24,,,,,,,,0,80,80,2,1
,,,,,,,,,,,,,,,,,200065,18,2022-01-28_15h57.06,lexical_decision_task_DD_L3,2021.2.3,MacIntel,58.82352941,,,,,,,,,,,,1.7,1,,,,,,,,,,,,,,,,,,,,,,,,0.087649402,-0.250332005,0,0,0,,,,,,,FARMER,HB,m,m,./images/FARMERHB.png,,,,,,,,m,1,1.7,,,,,,,,0,81,81,65,1
,,,,,,,,,,,,,,,,,200065,18,2022-01-28_15h57.06,lexical_decision_task_DD_L3,2021.2.3,MacIntel,58.82352941,,,,,,,,,,,,1.107,0,,,,,,,,,,,,,,,,,,,,,,,,0.087649402,-0.250332005,0,0,0,,,,,,,DONKEY,C,z,m,./images/DONKEY.png,,,,,,,,m,0,1.107,,,,,,,,0,82,82,103,1
,,,,,,,,,,,,,,,,,200065,18,2022-01-28_15h57.06,lexical_decision_task_DD_L3,2021.2.3,MacIntel,58.82352941,,,,,,,,,,,,0.693,1,,,,,,,,,,,,,,,,,,,,,,,,-0.055776892,-0.373837981,1,0,0,,,,,,,COOKER,LB,m,m,./images/COOKERLB.png,,break_done_button,,,,,,m,1,0.693,,,,,,,,0,83,83,69,1
,,,,,,,,,,,,,,,,,200065,18,2022-01-28_15h57.06,lexical_decision_task_DD_L3,2021.2.3,MacIntel,58.82352941,,,,,,,,,,,,1.829,1,,,,,,,,,,,,,,,,,,,,,,,,-0.055776892,-0.373837981,0,0,0,,,,,,,CRATER,LB,z,m,./images/CRATERLB.png,,,,,,,,z,1,1.829,,,,,,,,0,84,84,87,1
,,,,,,,,,,,,,,,,,200065,18,2022-01-28_15h57.06,lexical_decision_task_DD_L3,2021.2.3,MacIntel,58.82352941,,,,,,,,,,,,0.945,0,,,,,,,,,,,,,,,,,,,,,,,,-0.055776892,-0.373837981,0,0,0,,,,,,,SHORE,LB,m,m,./images/SHORELB.png,,,,,,,,z,0,0.945,,,,,,,,0,85,85,12,1
,,,,,,,,,,,,,,,,,200065,18,2022-01-28_15h57.06,lexical_decision_task_DD_L3,2021.2.3,MacIntel,58.82352941,,,,,,,,,,,,0.68,1,,,,,,,,,,,,,,,,,,,,,,,,-0.055776892,-0.373837981,0,0,0,,,,,,,INFANT,C,m,m,./images/INFANT.png,,,,,,,,m,1,0.68,,,,,,,,0,86,86,76,1
,,,,,,,,,,,,,,,,,200065,18,2022-01-28_15h57.06,lexical_decision_task_DD_L3,2021.2.3,MacIntel,58.82352941,,,,,,,,,,,,2.239,1,,,,,,,,,,,,,,,,,,,,,,,,-0.055776892,-0.373837981,0,0,0,,,,,,,TOMATO,LB,m,m,./images/TOMATOLB.png,,,,,,,,m,1,2.239,,,,,,,,0,87,87,0,1
,,,,,,,,,,,,,,,,,200065,18,2022-01-28_15h57.06,lexical_decision_task_DD_L3,2021.2.3,MacIntel,58.82352941,,,,,,,,,,,,1.364,0,,,,,,,,,,,,,,,,,,,,,,,,-0.055776892,-0.373837981,0,0,0,,,,,,,ONION,LB,m,m,./images/ONIONLB.png,,,,,,,,z,0,1.364,,,,,,,,0,88,88,51,1
,,,,,,,,,,,,,,,,,200065,18,2022-01-28_15h57.06,lexical_decision_task_DD_L3,2021.2.3,MacIntel,58.82352941,,,,,,,,,,,,0.99,0,,,,,,,,,,,,,,,,,,,,,,,,-0.055776892,-0.373837981,0,0,0,,,,,,,PISTOL,HB,z,m,./images/PISTOLHB.png,,,,,,,,m,0,0.99,,,,,,,,0,89,89,113,1
,,,,,,,,,,,,,,,,,200065,18,2022-01-28_15h57.06,lexical_decision_task_DD_L3,2021.2.3,MacIntel,58.82352941,,,,,,,,,,,,0.802,0,,,,,,,,,,,,,,,,,,,,,,,,-0.055776892,-0.373837981,0,0,0,,,,,,,MAMMAL,HB,z,m,./images/MAMMALHB.png,,,,,,,,m,0,0.802,,,,,,,,0,90,90,146,1
,,,,,,,,,,,,,,,,,200065,18,2022-01-28_15h57.06,lexical_decision_task_DD_L3,2021.2.3,MacIntel,58.82352941,,,,,,,,,,,,0.797,1,,,,,,,,,,,,,,,,,,,,,,,,-0.055776892,-0.373837981,0,0,0,,,,,,,DIVER,LB,z,m,./images/DIVERLB.png,,,,,,,,z,1,0.797,,,,,,,,0,91,91,93,1
,,,,,,,,,,,,,,,,,200065,18,2022-01-28_15h57.06,lexical_decision_task_DD_L3,2021.2.3,MacIntel,58.82352941,,,,,,,,,,,,0.682,1,,,,,,,,,,,,,,,,,,,,,,,,-0.055776892,-0.373837981,0,0,0,,,,,,,KITTEN,LB,m,m,./images/KITTENLB.png,,,,,,,,m,1,0.682,,,,,,,,0,92,92,45,1
,,,,,,,,,,,,,,,,,200065,18,2022-01-28_15h57.06,lexical_decision_task_DD_L3,2021.2.3,MacIntel,58.82352941,,,,,,,,,,,,0.812,0,,,,,,,,,,,,,,,,,,,,,,,,-0.055776892,-0.373837981,0,0,0,,,,,,,CRUST,C,m,m,./images/CRUST.png,,,,,,,,z,0,0.812,,,,,,,,0,93,93,79,1
,,,,,,,,,,,,,,,,,200065,18,2022-01-28_15h57.06,lexical_decision_task_DD_L3,2021.2.3,MacIntel,58.82352941,,,,,,,,,,,,1.198,1,,,,,,,,,,,,,,,,,,,,,,,,-0.055776892,-0.373837981,0,0,0,,,,,,,MIRROR,LB,m,m,./images/MIRRORLB.png,,,,,,,,m,1,1.198,,,,,,,,0,94,94,63,1
,,,,,,,,,,,,,,,,,200065,18,2022-01-28_15h57.06,lexical_decision_task_DD_L3,2021.2.3,MacIntel,58.82352941,,,,,,,,,,,,0.809,1,,,,,,,,,,,,,,,,,,,,,,,,-0.055776892,-0.373837981,0,0,0,,,,,,,LITTER,LB,m,m,./images/LITTERLB.png,,,,,,,,m,1,0.809,,,,,,,,0,95,95,78,1
,,,,,,,,,,,,,,,,,200065,18,2022-01-28_15h57.06,lexical_decision_task_DD_L3,2021.2.3,MacIntel,58.82352941,,,,,,,,,,,,1.192,0,,,,,,,,,,,,,,,,,,,,,,,,-0.055776892,-0.373837981,0,0,0,,,,,,,SLOPE,LB,z,m,./images/SLOPELB.png,,,,,,,,m,0,1.192,,,,,,,,0,96,96,114,1
,,,,,,,,,,,,,,,,,200065,18,2022-01-28_15h57.06,lexical_decision_task_DD_L3,2021.2.3,MacIntel,58.82352941,,,,,,,,,,,,0.681,1,,,,,,,,,,,,,,,,,,,,,,,,-0.055776892,-0.373837981,0,0,0,,,,,,,SNACK,C,m,m,./images/SNACK.png,,,,,,,,m,1,0.681,,,,,,,,0,97,97,73,1
,,,,,,,,,,,,,,,,,200065,18,2022-01-28_15h57.06,lexical_decision_task_DD_L3,2021.2.3,MacIntel,58.82352941,,,,,,,,,,,,0.747,1,,,,,,,,,,,,,,,,,,,,,,,,-0.055776892,-0.373837981,0,0,0,,,,,,,SWING,C,m,m,./images/SWING.png,,,,,,,,m,1,0.747,,,,,,,,0,98,98,40,1
,,,,,,,,,,,,,,,,,200065,18,2022-01-28_15h57.06,lexical_decision_task_DD_L3,2021.2.3,MacIntel,58.82352941,,,,,,,,,,,,0.664,0,,,,,,,,,,,,,,,,,,,,,,,,-0.055776892,-0.373837981,0,0,0,,,,,,,GREASE,LB,m,m,./images/GREASELB.png,,,,,,,,z,0,0.664,,,,,,,,0,99,99,15,1
,,,,,,,,,,,,,,,,,200065,18,2022-01-28_15h57.06,lexical_decision_task_DD_L3,2021.2.3,MacIntel,58.82352941,,,,,,,,,,,,2.116,0,,,,,,,,,,,,,,,,,,,,,,,,-0.057104914,-0.373837981,0,0,0,,,,,,,FENCE,HB,z,m,./images/FENCEHB.png,,,,,,,,m,0,2.116,,,,,,,,0,100,100,98,1
,,,,,,,,,,,,,,,,,200065,18,2022-01-28_15h57.06,lexical_decision_task_DD_L3,2021.2.3,MacIntel,58.82352941,,,,,,,,,,,,0.779,1,,,,,,,,,,,,,,,,,,,,,,,,-0.057104914,-0.373837981,0,0,0,,,,,,,MALLET,HB,m,m,./images/MALLETHB.png,,,,,,,,m,1,0.779,,,,,,,,0,101,101,50,1
,,,,,,,,,,,,,,,,,200065,18,2022-01-28_15h57.06,lexical_decision_task_DD_L3,2021.2.3,MacIntel,58.82352941,,,,,,,,,,,,1.166,1,,,,,,,,,,,,,,,,,,,,,,,,-0.057104914,-0.373837981,0,0,0,,,,,,,BARREL,HB,m,m,./images/BARRELHB.png,,,,,,,,m,1,1.166,,,,,,,,0,102,102,32,1
,,,,,,,,,,,,,,,,,200065,18,2022-01-28_15h57.06,lexical_decision_task_DD_L3,2021.2.3,MacIntel,58.82352941,,,,,,,,,,,,1.109,0,,,,,,,,,,,,,,,,,,,,,,,,-0.057104914,-0.373837981,0,0,0,,,,,,,COLLAR,LB,z,m,./images/COLLARLB.png,,,,,,,,m,0,1.109,,,,,,,,0,103,103,99,1
,,,,,,,,,,,,,,,,,200065,18,2022-01-28_15h57.06,lexical_decision_task_DD_L3,2021.2.3,MacIntel,58.82352941,,,,,,,,,,,,0.813,0,,,,,,,,,,,,,,,,,,,,,,,,-0.057104914,-0.373837981,0,0,0,,,,,,,CLIFF,HB,z,m,./images/CLIFFHB.png,,,,,,,,m,0,0.813,,,,,,,,0,104,104,92,1
,,,,,,,,,,,,,,,,,200065,18,2022-01-28_15h57.06,lexical_decision_task_DD_L3,2021.2.3,MacIntel,58.82352941,,,,,,,,,,,,1.012,1,,,,,,,,,,,,,,,,,,,,,,,,-0.057104914,-0.373837981,0,0,0,,,,,,,SAILOR,C,m,m,./images/SAILOR.png,,,,,,,,m,1,1.012,,,,,,,,0,105,105,67,1
,,,,,,,,,,,,,,,,,200065,18,2022-01-28_15h57.06,lexical_decision_task_DD_L3,2021.2.3,MacIntel,58.82352941,,,,,,,,,,,,1.227,1,,,,,,,,,,,,,,,,,,,,,,,,-0.057104914,-0.373837981,0,0,0,,,,,,,LIZARD,HB,m,m,./images/LIZARDHB.png,,,,,,,,m,1,1.227,,,,,,,,0,106,106,44,1
,,,,,,,,,,,,,,,,,200065,18,2022-01-28_15h57.06,lexical_decision_task_DD_L3,2021.2.3,MacIntel,58.82352941,,,,,,,,,,,,1.014,0,,,,,,,,,,,,,,,,,,,,,,,,-0.057104914,-0.373837981,0,0,0,,,,,,,BURIAL,HB,m,m,./images/BURIALHB.png,,,,,,,,z,0,1.014,,,,,,,,0,107,107,59,1
,,,,,,,,,,,,,,,,,200065,18,2022-01-28_15h57.06,lexical_decision_task_DD_L3,2021.2.3,MacIntel,58.82352941,,,,,,,,,,,,0.168,0,,,,,,,,,,,,,,,,,,,,,,,,-0.057104914,-0.373837981,0,0,0,,,,,,,BROOM,LB,z,m,./images/BROOMLB.png,,,,,,,,m,0,0.168,,,,,,,,0,108,108,162,1
,,,,,,,,,,,,,,,,,200065,18,2022-01-28_15h57.06,lexical_decision_task_DD_L3,2021.2.3,MacIntel,58.82352941,,,,,,,,,,,,1.08,1,,,,,,,,,,,,,,,,,,,,,,,,-0.057104914,-0.373837981,0,0,0,,,,,,,PURSE,HB,m,m,./images/PURSEHB.png,,,,,,,,m,1,1.08,,,,,,,,0,109,109,62,1
,,,,,,,,,,,,,,,,,200065,18,2022-01-28_15h57.06,lexical_decision_task_DD_L3,2021.2.3,MacIntel,58.82352941,,,,,,,,,,,,1.097,0,,,,,,,,,,,,,,,,,,,,,,,,-0.057104914,-0.373837981,0,0,0,,,,,,,CLOWN,C,z,m,./images/CLOWN.png,,,,,,,,m,0,1.097,,,,,,,,0,110,110,106,1
,,,,,,,,,,,,,,,,,200065,18,2022-01-28_15h57.06,lexical_decision_task_DD_L3,2021.2.3,MacIntel,58.82352941,,,,,,,,,,,,0.879,1,,,,,,,,,,,,,,,,,,,,,,,,-0.057104914,-0.373837981,0,0,0,,,,,,,TORCH,HB,m,m,./images/TORCHHB.png,,,,,,,,m,1,0.879,,,,,,,,0,111,111,68,1
,,,,,,,,,,,,,,,,,200065,18,2022-01-28_15h57.06,lexical_decision_task_DD_L3,2021.2.3,MacIntel,58.82352941,,,,,,,,,,,,0.599,1,,,,,,,,,,,,,,,,,,,,,,,,-0.057104914,-0.373837981,0,0,0,,,,,,,STORM,LB,m,m,./images/STORMLB.png,,,,,,,,m,1,0.599,,,,,,,,0,112,112,30,1
,,,,,,,,,,,,,,,,,200065,18,2022-01-28_15h57.06,lexical_decision_task_DD_L3,2021.2.3,MacIntel,58.82352941,,,,,,,,,,,,0.783,1,,,,,,,,,,,,,,,,,,,,,,,,-0.057104914,-0.373837981,0,0,0,,,,,,,PEBBLE,C,z,m,./images/PEBBLE.png,,,,,,,,z,1,0.783,,,,,,,,0,113,113,166,1
,,,,,,,,,,,,,,,,,200065,18,2022-01-28_15h57.06,lexical_decision_task_DD_L3,2021.2.3,MacIntel,58.82352941,,,,,,,,,,,,0.635,1,,,,,,,,,,,,,,,,,,,,,,,,-0.057104914,-0.373837981,0,0,0,,,,,,,DOUGH,C,m,m,./images/DOUGH.png,,,,,,,,m,1,0.635,,,,,,,,0,114,114,19,1
,,,,,,,,,,,,,,,,,200065,18,2022-01-28_15h57.06,lexical_decision_task_DD_L3,2021.2.3,MacIntel,58.82352941,,,,,,,,,,,,0.958,1,,,,,,,,,,,,,,,,,,,,,,,,-0.057104914,-0.373837981,0,0,0,,,,,,,CHAIN,LB,z,m,./images/CHAINLB.png,,,,,,,,z,1,0.958,,,,,,,,0,115,115,126,1
,,,,,,,,,,,,,,,,,200065,18,2022-01-28_15h57.06,lexical_decision_task_DD_L3,2021.2.3,MacIntel,58.82352941,,,,,,,,,,,,0.609,1,,,,,,,,,,,,,,,,,,,,,,,,-0.057104914,-0.373837981,0,0,0,,,,,,,PICKLE,HB,m,m,./images/PICKLEHB.png,,,,,,,,m,1,0.609,,,,,,,,0,116,116,14,1
,,,,,,,,,,,,,,,,,200065,18,2022-01-28_15h57.06,lexical_decision_task_DD_L3,2021.2.3,MacIntel,58.82352941,,,,,,,,,,,,0.479,1,,,,,,,,,,,,,,,,,,,,,,,,-0.057104914,-0.373837981,0,0,0,,,,,,,COUCH,HB,m,m,./images/COUCHHB.png,,,,,,,,m,1,0.479,,,,,,,,0,117,117,77,1
,,,,,,,,,,,,,,,,,200065,18,2022-01-28_15h57.06,lexical_decision_task_DD_L3,2021.2.3,MacIntel,58.82352941,,,,,,,,,,,,0.795,0,,,,,,,,,,,,,,,,,,,,,,,,-0.057104914,-0.373837981,0,0,0,,,,,,,CHERRY,LB,z,m,./images/CHERRYLB.png,,,,,,,,m,0,0.795,,,,,,,,0,118,118,138,1
,,,,,,,,,,,,,,,,,200065,18,2022-01-28_15h57.06,lexical_decision_task_DD_L3,2021.2.3,MacIntel,58.82352941,,,,,,,,,,,,0.692,1,,,,,,,,,,,,,,,,,,,,,,,,-0.057104914,-0.373837981,0,0,0,,,,,,,BELLY,C,m,m,./images/BELLY.png,,,,,,,,m,1,0.692,,,,,,,,0,119,119,10,1
,,,,,,,,,,,,,,,,,200065,18,2022-01-28_15h57.06,lexical_decision_task_DD_L3,2021.2.3,MacIntel,58.82352941,,,,,,,,,,,,1.224,0,,,,,,,,,,,,,,,,,,,,,,,,-0.057104914,-0.373837981,0,0,0,,,,,,,CURRY,LB,z,m,./images/CURRYLB.png,,,,,,,,m,0,1.224,,,,,,,,0,120,120,144,1
,,,,,,,,,,,,,,,,,200065,18,2022-01-28_15h57.06,lexical_decision_task_DD_L3,2021.2.3,MacIntel,58.82352941,,,,,,,,,,,,1.308,1,,,,,,,,,,,,,,,,,,,,,,,,-0.057104914,-0.373837981,0,0,0,,,,,,,BIRTH,C,m,m,./images/BIRTH.png,,,,,,,,m,1,1.308,,,,,,,,0,121,121,37,1
,,,,,,,,,,,,,,,,,200065,18,2022-01-28_15h57.06,lexical_decision_task_DD_L3,2021.2.3,MacIntel,58.82352941,,,,,,,,,,,,4.41,1,,,,,,,,,,,,,,,,,,,,,,,,0.175298805,-0.282204515,0,0,0,,,,,,,SPINE,HB,z,m,./images/SPINEHB.png,,,,,,,,z,1,4.41,,,,,,,,0,122,122,149,1
,,,,,,,,,,,,,,,,,200065,18,2022-01-28_15h57.06,lexical_decision_task_DD_L3,2021.2.3,MacIntel,58.82352941,,,,,,,,,,,,1.042,1,,,,,,,,,,,,,,,,,,,,,,,,0.175298805,-0.282204515,0,0,0,,,,,,,SNAKE,C,z,m,./images/SNAKE.png,,,,,,,,z,1,1.042,,,,,,,,0,123,123,124,1
,,,,,,,,,,,,,,,,,200065,18,2022-01-28_15h57.06,lexical_decision_task_DD_L3,2021.2.3,MacIntel,58.82352941,,,,,,,,,,,,1.052,0,,,,,,,,,,,,,,,,,,,,,,,,0.175298805,-0.282204515,0,0,0,,,,,,,LADDER,HB,m,m,./images/LADDERHB.png,,,,,,,,z,0,1.052,,,,,,,,0,124,124,38,1
,,,,,,,,,,,,,,,,,200065,18,2022-01-28_15h57.06,lexical_decision_task_DD_L3,2021.2.3,MacIntel,58.82352941,,,,,,,,,,,,0.78,1,,,,,,,,,,,,,,,,,,,,,,,,0.006640106,-0.412350598,0,0,0,space,,,,,,TULIP,HB,m,m,./images/TULIPHB.png,2.345,,,,,,,m,1,0.78,,,,,,,,0,125,125,8,1
,,,,,,,,,,,,,,,,,200065,18,2022-01-28_15h57.06,lexical_decision_task_DD_L3,2021.2.3,MacIntel,58.82352941,,,,,,,,,,,,2.659,1,,,,,,,,,,,,,,,,,,,,,,,,0.006640106,-0.412350598,0,0,0,,,,,,,BASKET,HB,z,m,./images/BASKETHB.png,,,,,,,,z,1,2.659,,,,,,,,0,126,126,128,1
,,,,,,,,,,,,,,,,,200065,18,2022-01-28_15h57.06,lexical_decision_task_DD_L3,2021.2.3,MacIntel,58.82352941,,,,,,,,,,,,1.024,1,,,,,,,,,,,,,,,,,,,,,,,,0.006640106,-0.412350598,0,0,0,,,,,,,STATUE,LB,z,m,./images/STATUELB.png,,,,,,,,z,1,1.024,,,,,,,,0,127,127,150,1
,,,,,,,,,,,,,,,,,200065,18,2022-01-28_15h57.06,lexical_decision_task_DD_L3,2021.2.3,MacIntel,58.82352941,,,,,,,,,,,,1.008,0,,,,,,,,,,,,,,,,,,,,,,,,0.006640106,-0.412350598,0,0,0,,,,,,,SQUARE,LB,m,m,./images/SQUARELB.png,,,,,,,,z,0,1.008,,,,,,,,0,128,128,6,1
,,,,,,,,,,,,,,,,,200065,18,2022-01-28_15h57.06,lexical_decision_task_DD_L3,2021.2.3,MacIntel,58.82352941,,,,,,,,,,,,0.613,0,,,,,,,,,,,,,,,,,,,,,,,,0.006640106,-0.412350598,0,0,0,,,,,,,DESERT,C,z,m,./images/DESERT.png,,,,,,,,m,0,0.613,,,,,,,,0,129,129,136,1
,,,,,,,,,,,,,,,,,200065,18,2022-01-28_15h57.06,lexical_decision_task_DD_L3,2021.2.3,MacIntel,58.82352941,,,,,,,,,,,,0.68,1,,,,,,,,,,,,,,,,,,,,,,,,0.006640106,-0.412350598,0,0,0,,,,,,,MOTOR,C,m,m,./images/MOTOR.png,,,,,,,,m,1,0.68,,,,,,,,0,130,130,13,1
,,,,,,,,,,,,,,,,,200065,18,2022-01-28_15h57.06,lexical_decision_task_DD_L3,2021.2.3,MacIntel,58.82352941,,,,,,,,,,,,0.849,1,,,,,,,,,,,,,,,,,,,,,,,,0.006640106,-0.412350598,0,0,0,,,,,,,MAGGOT,LB,m,m,./images/MAGGOTLB.png,,,,,,,,m,1,0.849,,,,,,,,0,131,131,33,1
,,,,,,,,,,,,,,,,,200065,18,2022-01-28_15h57.06,lexical_decision_task_DD_L3,2021.2.3,MacIntel,58.82352941,,,,,,,,,,,,1.162,0,,,,,,,,,,,,,,,,,,,,,,,,0.006640106,-0.412350598,0,0,0,,,,,,,SWEAT,LB,m,m,./images/SWEATLB.png,,,,,,,,z,0,1.162,,,,,,,,0,132,132,66,1
,,,,,,,,,,,,,,,,,200065,18,2022-01-28_15h57.06,lexical_decision_task_DD_L3,2021.2.3,MacIntel,58.82352941,,,,,,,,,,,,0.658,1,,,,,,,,,,,,,,,,,,,,,,,,0.006640106,-0.412350598,0,0,0,,,,,,,PARADE,HB,z,m,./images/PARADEHB.png,,,,,,,,z,1,0.658,,,,,,,,0,133,133,101,1
,,,,,,,,,,,,,,,,,200065,18,2022-01-28_15h57.06,lexical_decision_task_DD_L3,2021.2.3,MacIntel,58.82352941,,,,,,,,,,,,1.042,0,,,,,,,,,,,,,,,,,,,,,,,,0.006640106,-0.412350598,0,0,0,,,,,,,PLANK,C,m,m,./images/PLANK.png,,,,,,,,z,0,1.042,,,,,,,,0,134,134,1,1
,,,,,,,,,,,,,,,,,200065,18,2022-01-28_15h57.06,lexical_decision_task_DD_L3,2021.2.3,MacIntel,58.82352941,,,,,,,,,,,,0.634,1,,,,,,,,,,,,,,,,,,,,,,,,0.006640106,-0.412350598,0,0,0,,,,,,,LLAMA,HB,z,m,./images/LLAMAHB.png,,,,,,,,z,1,0.634,,,,,,,,0,135,135,119,1
,,,,,,,,,,,,,,,,,200065,18,2022-01-28_15h57.06,lexical_decision_task_DD_L3,2021.2.3,MacIntel,58.82352941,,,,,,,,,,,,1.349,1,,,,,,,,,,,,,,,,,,,,,,,,0.006640106,-0.412350598,0,0,0,,,,,,,CANDLE,C,m,m,./images/CANDLE.png,,,,,,,,m,1,1.349,,,,,,,,0,136,136,61,1
,,,,,,,,,,,,,,,,,200065,18,2022-01-28_15h57.06,lexical_decision_task_DD_L3,2021.2.3,MacIntel,58.82352941,,,,,,,,,,,,0.642,0,,,,,,,,,,,,,,,,,,,,,,,,0.006640106,-0.412350598,0,0,0,,,,,,,SUNSET,C,m,m,./images/SUNSET.png,,,,,,,,z,0,0.642,,,,,,,,0,137,137,82,1
,,,,,,,,,,,,,,,,,200065,18,2022-01-28_15h57.06,lexical_decision_task_DD_L3,2021.2.3,MacIntel,58.82352941,,,,,,,,,,,,1.497,0,,,,,,,,,,,,,,,,,,,,,,,,0.006640106,-0.412350598,0,0,0,,,,,,,MONKEY,LB,z,m,./images/MONKEYLB.png,,,,,,,,m,0,1.497,,,,,,,,0,138,138,129,1
,,,,,,,,,,,,,,,,,200065,18,2022-01-28_15h57.06,lexical_decision_task_DD_L3,2021.2.3,MacIntel,58.82352941,,,,,,,,,,,,0.756,1,,,,,,,,,,,,,,,,,,,,,,,,0.006640106,-0.412350598,0,0,0,,,,,,,BUBBLE,HB,z,m,./images/BUBBLEHB.png,,,,,,,,z,1,0.756,,,,,,,,0,139,139,155,1
,,,,,,,,,,,,,,,,,200065,18,2022-01-28_15h57.06,lexical_decision_task_DD_L3,2021.2.3,MacIntel,58.82352941,,,,,,,,,,,,1.616,1,,,,,,,,,,,,,,,,,,,,,,,,0.006640106,-0.412350598,0,0,0,,,,,,,QUILL,C,m,m,./images/QUILL.png,,,,,,,,m,1,1.616,,,,,,,,0,140,140,31,1
,,,,,,,,,,,,,,,,,200065,18,2022-01-28_15h57.06,lexical_decision_task_DD_L3,2021.2.3,MacIntel,58.82352941,,,,,,,,,,,,1.339,0,,,,,,,,,,,,,,,,,,,,,,,,0.006640106,-0.412350598,0,0,0,,,,,,,PEACH,HB,m,m,./images/PEACHHB.png,,,,,,,,z,0,1.339,,,,,,,,0,141,141,35,1
,,,,,,,,,,,,,,,,,200065,18,2022-01-28_15h57.06,lexical_decision_task_DD_L3,2021.2.3,MacIntel,58.82352941,,,,,,,,,,,,0.79,1,,,,,,,,,,,,,,,,,,,,,,,,0.006640106,-0.412350598,0,0,0,,,,,,,WALRUS,HB,m,m,./images/WALRUSHB.png,,,,,,,,m,1,0.79,,,,,,,,0,142,142,23,1
,,,,,,,,,,,,,,,,,200065,18,2022-01-28_15h57.06,lexical_decision_task_DD_L3,2021.2.3,MacIntel,58.82352941,,,,,,,,,,,,1.276,1,,,,,,,,,,,,,,,,,,,,,,,,0.006640106,-0.412350598,0,0,0,,,,,,,PENCE,C,m,m,./images/PENCE.png,,,,,,,,m,1,1.276,,,,,,,,0,143,143,16,1
,,,,,,,,,,,,,,,,,200065,18,2022-01-28_15h57.06,lexical_decision_task_DD_L3,2021.2.3,MacIntel,58.82352941,,,,,,,,,,,,0.93,1,,,,,,,,,,,,,,,,,,,,,,,,0.006640106,-0.412350598,0,0,0,,,,,,,BUTTER,LB,z,m,./images/BUTTERLB.png,,,,,,,,z,1,0.93,,,,,,,,0,144,144,111,1
,,,,,,,,,,,,,,,,,200065,18,2022-01-28_15h57.06,lexical_decision_task_DD_L3,2021.2.3,MacIntel,58.82352941,,,,,,,,,,,,0.782,1,,,,,,,,,,,,,,,,,,,,,,,,0.006640106,-0.412350598,0,0,0,,,,,,,ARTIST,C,z,m,./images/ARTIST.png,,,,,,,,z,1,0.782,,,,,,,,0,145,145,145,1
,,,,,,,,,,,,,,,,,200065,18,2022-01-28_15h57.06,lexical_decision_task_DD_L3,2021.2.3,MacIntel,58.82352941,,,,,,,,,,,,1.647,1,,,,,,,,,,,,,,,,,,,,,,,,0.006640106,-0.412350598,0,0,0,,,,,,,SHELF,LB,m,m,./images/SHELFLB.png,,,,,,,,m,1,1.647,,,,,,,,0,146,146,39,1
,,,,,,,,,,,,,,,,,200065,18,2022-01-28_15h57.06,lexical_decision_task_DD_L3,2021.2.3,MacIntel,58.82352941,,,,,,,,,,,,1.108,1,,,,,,,,,,,,,,,,,,,,,,,,0.006640106,-0.412350598,0,0,0,,,,,,,URINE,C,m,m,./images/URINE.png,,,,,,,,m,1,1.108,,,,,,,,0,147,147,70,1
,,,,,,,,,,,,,,,,,200065,18,2022-01-28_15h57.06,lexical_decision_task_DD_L3,2021.2.3,MacIntel,58.82352941,,,,,,,,,,,,0.864,1,,,,,,,,,,,,,,,,,,,,,,,,0.006640106,-0.412350598,0,0,0,,,,,,,MOSQUE,C,m,m,./images/MOSQUE.png,,,,,,,,m,1,0.864,,,,,,,,0,148,148,43,1
,,,,,,,,,,,,,,,,,200065,18,2022-01-28_15h57.06,lexical_decision_task_DD_L3,2021.2.3,MacIntel,58.82352941,,,,,,,,,,,,0.663,0,,,,,,,,,,,,,,,,,,,,,,,,0.006640106,-0.412350598,0,0,0,,,,,,,BAMBOO,HB,z,m,./images/BAMBOOHB.png,,,,,,,,m,0,0.663,,,,,,,,0,149,149,89,1
,,,,,,,,,,,,,,,,,200065,18,2022-01-28_15h57.06,lexical_decision_task_DD_L3,2021.2.3,MacIntel,58.82352941,,,,,,,,,,,,2.698,1,,,,,,,,,,,,,,,,,,,,,,,,0.006640106,-0.412350598,0,0,0,,,,,,,CEMENT,HB,m,m,./images/CEMENTHB.png,,,,,,,,m,1,2.698,,,,,,,,0,150,150,74,1
,,,,,,,,,,,,,,,,,200065,18,2022-01-28_15h57.06,lexical_decision_task_DD_L3,2021.2.3,MacIntel,58.82352941,,,,,,,,,,,,2.059,0,,,,,,,,,,,,,,,,,,,,,,,,0.006640106,-0.412350598,0,0,0,,,,,,,WAGON,C,z,m,./images/WAGON.png,,,,,,,,m,0,2.059,,,,,,,,0,151,151,91,1
,,,,,,,,,,,,,,,,,200065,18,2022-01-28_15h57.06,lexical_decision_task_DD_L3,2021.2.3,MacIntel,58.82352941,,,,,,,,,,,,1.024,0,,,,,,,,,,,,,,,,,,,,,,,,0.006640106,-0.412350598,0,0,0,,,,,,,STRING,HB,m,m,./images/STRINGHB.png,,,,,,,,z,0,1.024,,,,,,,,0,152,152,41,1
,,,,,,,,,,,,,,,,,200065,18,2022-01-28_15h57.06,lexical_decision_task_DD_L3,2021.2.3,MacIntel,58.82352941,,,,,,,,,,,,0.724,0,,,,,,,,,,,,,,,,,,,,,,,,0.006640106,-0.412350598,0,0,0,,,,,,,PACKET,HB,m,m,./images/PACKETHB.png,,,,,,,,z,0,0.724,,,,,,,,0,153,153,56,1
,,,,,,,,,,,,,,,,,200065,18,2022-01-28_15h57.06,lexical_decision_task_DD_L3,2021.2.3,MacIntel,58.82352941,,,,,,,,,,,,1.03,0,,,,,,,,,,,,,,,,,,,,,,,,0.006640106,-0.412350598,0,0,0,,,,,,,GRAIN,LB,m,m,./images/GRAINLB.png,,,,,,,,z,0,1.03,,,,,,,,0,154,154,75,1
,,,,,,,,,,,,,,,,,200065,18,2022-01-28_15h57.06,lexical_decision_task_DD_L3,2021.2.3,MacIntel,58.82352941,,,,,,,,,,,,7.678,1,,,,,,,,,,,,,,,,,,,,,,,,0.006640106,-0.412350598,0,0,0,,,,,,,PEARL,C,m,m,./images/PEARL.png,,,,,,,,m,1,7.678,,,,,,,,0,155,155,46,1
,,,,,,,,,,,,,,,,,200065,18,2022-01-28_15h57.06,lexical_decision_task_DD_L3,2021.2.3,MacIntel,58.82352941,,,,,,,,,,,,1.777,1,,,,,,,,,,,,,,,,,,,,,,,,0.006640106,-0.412350598,0,0,0,,,,,,,BRUSH,HB,z,m,./images/BRUSHHB.png,,,,,,,,z,1,1.777,,,,,,,,0,156,156,143,1
,,,,,,,,,,,,,,,,,200065,18,2022-01-28_15h57.06,lexical_decision_task_DD_L3,2021.2.3,MacIntel,58.82352941,,,,,,,,,,,,0.708,1,,,,,,,,,,,,,,,,,,,,,,,,0.006640106,-0.412350598,0,0,0,,,,,,,STREAM,HB,z,m,./images/STREAMHB.png,,,,,,,,z,1,0.708,,,,,,,,0,157,157,125,1
,,,,,,,,,,,,,,,,,200065,18,2022-01-28_15h57.06,lexical_decision_task_DD_L3,2021.2.3,MacIntel,58.82352941,,,,,,,,,,,,1.114,1,,,,,,,,,,,,,,,,,,,,,,,,0.006640106,-0.412350598,0,0,0,,,,,,,WHISKY,HB,z,m,./images/WHISKYHB.png,,,,,,,,z,1,1.114,,,,,,,,0,158,158,167,1
,,,,,,,,,,,,,,,,,200065,18,2022-01-28_15h57.06,lexical_decision_task_DD_L3,2021.2.3,MacIntel,58.82352941,,,,,,,,,,,,0.917,1,,,,,,,,,,,,,,,,,,,,,,,,0.006640106,-0.412350598,0,0,0,,,,,,,ENGINE,HB,z,m,./images/ENGINEHB.png,,,,,,,,z,1,0.917,,,,,,,,0,159,159,122,1
,,,,,,,,,,,,,,,,,200065,18,2022-01-28_15h57.06,lexical_decision_task_DD_L3,2021.2.3,MacIntel,58.82352941,,,,,,,,,,,,0.582,1,,,,,,,,,,,,,,,,,,,,,,,,0.006640106,-0.412350598,0,0,0,,,,,,,RHINO,LB,m,m,./images/RHINOLB.png,,,,,,,,m,1,0.582,,,,,,,,0,160,160,9,1
,,,,,,,,,,,,,,,,,200065,18,2022-01-28_15h57.06,lexical_decision_task_DD_L3,2021.2.3,MacIntel,58.82352941,,,,,,,,,,,,1.307,0,,,,,,,,,,,,,,,,,,,,,,,,0.006640106,-0.412350598,0,0,0,,,,,,,CARPET,HB,m,m,./images/CARPETHB.png,,,,,,,,z,0,1.307,,,,,,,,0,161,161,53,1
,,,,,,,,,,,,,,,,,200065,18,2022-01-28_15h57.06,lexical_decision_task_DD_L3,2021.2.3,MacIntel,58.82352941,,,,,,,,,,,,0.691,0,,,,,,,,,,,,,,,,,,,,,,,,0.006640106,-0.412350598,0,0,0,,,,,,,GLOVE,C,z,m,./images/GLOVE.png,,,,,,,,m,0,0.691,,,,,,,,0,162,162,157,1
,,,,,,,,,,,,,,,,,200065,18,2022-01-28_15h57.06,lexical_decision_task_DD_L3,2021.2.3,MacIntel,58.82352941,,,,,,,,,,,,0.68,0,,,,,,,,,,,,,,,,,,,,,,,,0.006640106,-0.412350598,0,0,0,,,,,,,TWINS,LB,m,m,./images/TWINSLB.png,,,,,,,,z,0,0.68,,,,,,,,0,163,163,60,1
,,,,,,,,,,,,,,,,,200065,18,2022-01-28_15h57.06,lexical_decision_task_DD_L3,2021.2.3,MacIntel,58.82352941,,,,,,,,,,,,0.5,1,,,,,,,,,,,,,,,,,,,,,,,,0.006640106,-0.412350598,0,0,0,,,,,,,ALLEY,C,z,m,./images/ALLEY.png,,,,,,,,z,1,0.5,,,,,,,,0,164,164,139,1
,,,,,,,,,,,,,,,,,200065,18,2022-01-28_15h57.06,lexical_decision_task_DD_L3,2021.2.3,MacIntel,58.82352941,,,,,,,,,,,,0.959,1,,,,,,,,,,,,,,,,,,,,,,,,0.006640106,-0.412350598,0,0,0,,,,,,,RULER,C,z,m,./images/RULER.png,,,,,,,,z,1,0.959,,,,,,,,0,165,165,163,1
,,,,,,,,,,,,,,,,,200065,18,2022-01-28_15h57.06,lexical_decision_task_DD_L3,2021.2.3,MacIntel,58.82352941,,,,,,,,,,,,0.829,1,,,,,,,,,,,,,,,,,,,,,,,,0.006640106,-0.412350598,0,0,0,,,,,,,FINGER,LB,m,m,./images/FINGERLB.png,,,,,,,,m,1,0.829,,,,,,,,0,166,166,3,1
,,,,,,,,,,,,,,,,,200065,18,2022-01-28_15h57.06,lexical_decision_task_DD_L3,2021.2.3,MacIntel,58.82352941,,,,,,,,,,,,1.166,1,,,,,,,,,,,,,,,,,,,,,,,,0.006640106,-0.412350598,0,0,0,,,,,,,SPORT,LB,m,m,./images/SPORTLB.png,,,,,,,,m,1,1.166,,,,,,,,0,167,167,48,1
