key_resp.keys,key_resp.rt,instr_done_touch.x,instr_done_touch.y,instr_done_touch.leftButton,instr_done_touch.midButton,instr_done_touch.rightButton,instruction_pages.thisRepN,instruction_pages.thisTrialN,instruction_pages.thisN,instruction_pages.thisIndex,instruction_pages.ran,pageN,phase,instruct_text,has_image,instruct_image,participant,age,date,expName,psychopyVersion,OS,frameRate,instr_done_touch.clicked_name,response.keys,response.corr,response.rt,touch_resp.x,touch_resp.y,touch_resp.leftButton,touch_resp.midButton,touch_resp.rightButton,touch_resp.time,touch_resp.clicked_name,rt,corr,practrials.thisRepN,practrials.thisTrialN,practrials.thisN,practrials.thisIndex,practrials.ran,TrialID,Target,corrAns,end_of_practice_trials_pages.thisRepN,end_of_practice_trials_pages.thisTrialN,end_of_practice_trials_pages.thisN,end_of_practice_trials_pages.thisIndex,end_of_practice_trials_pages.ran,key_resp_2.keys,key_resp_2.corr,key_resp_2.rt,targ_click.x,targ_click.y,targ_click.leftButton,targ_click.midButton,targ_click.rightButton,targ_click.time,targ_click.clicked_name,break_done_touch.x,break_done_touch.y,break_done_touch.leftButton,break_done_touch.midButton,break_done_touch.rightButton,break_done_keyboard.keys,maintrials.thisRepN,maintrials.thisTrialN,maintrials.thisN,maintrials.thisIndex,maintrials.ran,string,blur,study,lex,stim_path,break_done_keyboard.rt,test_instructions.thisRepN,test_instructions.thisTrialN,test_instructions.thisN,test_instructions.thisIndex,test_instructions.ran,key_resp_3.keys,key_resp_3.corr,key_resp_3.rt,test_click.x,test_click.y,test_click.leftButton,test_click.midButton,test_click.rightButton,test_click.time,test_click.clicked_name,test_phase.thisRepN,test_phase.thisTrialN,test_phase.thisN,test_phase.thisIndex,test_phase.ran
space,20.5096,0.040439724,-0.382227308,0,0,0,0,0,0,0,1,1,instructions,"INSTRUCTIONS
At the start of each trial, look at the plus sign  (+) in the center of the screen.  This tells you that a trial is about to begin and where to look. Second, the plus sign will disappear and a string of letters will appear. Your task is to determine if the string of letters is a word or not. If the item is a word press the M key (on keyboard)  or touch the word button (phone/tablet).  If the item is not a word,  press the  Z key (on keyboard)  or touch the nonword button (on phone/tablet). 
Press the space bar or touch  continue.",0,,200098,19,2022-01-28_16h27.13.996,lexical_decision_task_DD_L2,2021.2.3,MacIntel,60.0024001,,,,,,,,,,,,,,,,,,,,,,,,,,,,,,,,,,,,,,,,,,,,,,,,,,,,,,,,,,,,,,,,,,,,,,,,,
,,0.00664605,-0.378693509,1,0,0,0,1,1,1,1,2,instructions,"If your device has a keyboard, press the 'Z' key for nonwords and the 'M' key for words.





Press the space bar or touch the button below to continue.",0,keyboard-example.gif,200098,19,2022-01-28_16h27.13.996,lexical_decision_task_DD_L2,2021.2.3,MacIntel,60.0024001,instr_done_button,,,,,,,,,,,,,,,,,,,,,,,,,,,,,,,,,,,,,,,,,,,,,,,,,,,,,,,,,,,,,,,,,,,,,,,,
,,0.007964478,-0.378166097,1,0,0,0,2,2,2,1,3,instructions,"If you are using a touchscreen only device, use the buttons on the screen. Do not use the mouse.





Press the space bar or touch the button below to continue.",0,touchscreen-example.gif,200098,19,2022-01-28_16h27.13.996,lexical_decision_task_DD_L2,2021.2.3,MacIntel,60.0024001,instr_done_button,,,,,,,,,,,,,,,,,,,,,,,,,,,,,,,,,,,,,,,,,,,,,,,,,,,,,,,,,,,,,,,,,,,,,,,,
space,13.6137,0.007964478,-0.378166097,0,0,0,0,3,3,3,1,4,instructions,"It is very important that you respond as quickly and accurately as possible, as each letter string will only be on the screen for two seconds. If you do not respond within this time, the message 'Too slow!' will be displayed and the experiment will progress to the next letter string. The first 20 trials will be practice trials and you will receive feedback on your answers. 

Press the space bar or touch the button below to start the practice trials.",0,,200098,19,2022-01-28_16h27.13.996,lexical_decision_task_DD_L2,2021.2.3,MacIntel,60.0024001,,,,,,,,,,,,,,,,,,,,,,,,,,,,,,,,,,,,,,,,,,,,,,,,,,,,,,,,,,,,,,,,,,,,,,,,,
,,,,,,,,,,,,,,,,,200098,19,2022-01-28_16h27.13.996,lexical_decision_task_DD_L2,2021.2.3,MacIntel,60.0024001,,z,1,1.2046,,,,,,,,1.2046,1,0,0,0,15,1,1001,WHAISE,z,,,,,,,,,,,,,,,,,,,,,,,,,,,,,,,,,,,,,,,,,,,,,,,,,,,,
,,,,,,,,,,,,,,,,,200098,19,2022-01-28_16h27.13.996,lexical_decision_task_DD_L2,2021.2.3,MacIntel,60.0024001,,m,1,0.6806,,,,,,,,0.6806,1,0,1,1,4,1,1001,SQUEAK,m,,,,,,,,,,,,,,,,,,,,,,,,,,,,,,,,,,,,,,,,,,,,,,,,,,,,
,,,,,,,,,,,,,,,,,200098,19,2022-01-28_16h27.13.996,lexical_decision_task_DD_L2,2021.2.3,MacIntel,60.0024001,,m,0,1.0697,,,,,,,,1.0697,0,0,2,2,10,1,1001,INLADE,z,,,,,,,,,,,,,,,,,,,,,,,,,,,,,,,,,,,,,,,,,,,,,,,,,,,,
,,,,,,,,,,,,,,,,,200098,19,2022-01-28_16h27.13.996,lexical_decision_task_DD_L2,2021.2.3,MacIntel,60.0024001,,m,0,1.1434,,,,,,,,1.1434,0,0,3,3,13,1,1001,ROUPET,z,,,,,,,,,,,,,,,,,,,,,,,,,,,,,,,,,,,,,,,,,,,,,,,,,,,,
,,,,,,,,,,,,,,,,,200098,19,2022-01-28_16h27.13.996,lexical_decision_task_DD_L2,2021.2.3,MacIntel,60.0024001,,m,1,0.5751,,,,,,,,0.5751,1,0,4,4,7,1,1001,VOLUME,m,,,,,,,,,,,,,,,,,,,,,,,,,,,,,,,,,,,,,,,,,,,,,,,,,,,,
,,,,,,,,,,,,,,,,,200098,19,2022-01-28_16h27.13.996,lexical_decision_task_DD_L2,2021.2.3,MacIntel,60.0024001,,m,1,0.7102,,,,,,,,0.7102,1,0,5,5,1,1,1001,ADJUST,m,,,,,,,,,,,,,,,,,,,,,,,,,,,,,,,,,,,,,,,,,,,,,,,,,,,,
,,,,,,,,,,,,,,,,,200098,19,2022-01-28_16h27.13.996,lexical_decision_task_DD_L2,2021.2.3,MacIntel,60.0024001,,z,1,0.7912,,,,,,,,0.7912,1,0,6,6,9,1,1001,FARINY,z,,,,,,,,,,,,,,,,,,,,,,,,,,,,,,,,,,,,,,,,,,,,,,,,,,,,
,,,,,,,,,,,,,,,,,200098,19,2022-01-28_16h27.13.996,lexical_decision_task_DD_L2,2021.2.3,MacIntel,60.0024001,,z,1,1.0015,,,,,,,,1.0015,1,0,7,7,14,1,1001,THRALE,z,,,,,,,,,,,,,,,,,,,,,,,,,,,,,,,,,,,,,,,,,,,,,,,,,,,,
,,,,,,,,,,,,,,,,,200098,19,2022-01-28_16h27.13.996,lexical_decision_task_DD_L2,2021.2.3,MacIntel,60.0024001,,m,1,0.9859,,,,,,,,0.9859,1,0,8,8,0,1,1001,UTOPIA,m,,,,,,,,,,,,,,,,,,,,,,,,,,,,,,,,,,,,,,,,,,,,,,,,,,,,
,,,,,,,,,,,,,,,,,200098,19,2022-01-28_16h27.13.996,lexical_decision_task_DD_L2,2021.2.3,MacIntel,60.0024001,,z,1,0.8096,,,,,,,,0.8096,1,0,9,9,11,1,1001,RASHET,z,,,,,,,,,,,,,,,,,,,,,,,,,,,,,,,,,,,,,,,,,,,,,,,,,,,,
,,,,,,,,,,,,,,,,,200098,19,2022-01-28_16h27.13.996,lexical_decision_task_DD_L2,2021.2.3,MacIntel,60.0024001,,z,1,0.9681,,,,,,,,0.9681,1,0,10,10,8,1,1001,ASLERT,z,,,,,,,,,,,,,,,,,,,,,,,,,,,,,,,,,,,,,,,,,,,,,,,,,,,,
,,,,,,,,,,,,,,,,,200098,19,2022-01-28_16h27.13.996,lexical_decision_task_DD_L2,2021.2.3,MacIntel,60.0024001,,z,1,0.9423,,,,,,,,0.9423,1,0,11,11,12,1,1001,SPRINY,z,,,,,,,,,,,,,,,,,,,,,,,,,,,,,,,,,,,,,,,,,,,,,,,,,,,,
,,,,,,,,,,,,,,,,,200098,19,2022-01-28_16h27.13.996,lexical_decision_task_DD_L2,2021.2.3,MacIntel,60.0024001,,m,1,0.7155,,,,,,,,0.7155,1,0,12,12,5,1,1001,OBTAIN,m,,,,,,,,,,,,,,,,,,,,,,,,,,,,,,,,,,,,,,,,,,,,,,,,,,,,
,,,,,,,,,,,,,,,,,200098,19,2022-01-28_16h27.13.996,lexical_decision_task_DD_L2,2021.2.3,MacIntel,60.0024001,,m,1,0.7808,,,,,,,,0.7808,1,0,13,13,3,1,1001,MATRIX,m,,,,,,,,,,,,,,,,,,,,,,,,,,,,,,,,,,,,,,,,,,,,,,,,,,,,
,,,,,,,,,,,,,,,,,200098,19,2022-01-28_16h27.13.996,lexical_decision_task_DD_L2,2021.2.3,MacIntel,60.0024001,,m,1,0.7217,,,,,,,,0.7217,1,0,14,14,6,1,1001,ZOMBIE,m,,,,,,,,,,,,,,,,,,,,,,,,,,,,,,,,,,,,,,,,,,,,,,,,,,,,
,,,,,,,,,,,,,,,,,200098,19,2022-01-28_16h27.13.996,lexical_decision_task_DD_L2,2021.2.3,MacIntel,60.0024001,,m,1,0.8854,,,,,,,,0.8854,1,0,15,15,2,1,1001,ALMOND,m,,,,,,,,,,,,,,,,,,,,,,,,,,,,,,,,,,,,,,,,,,,,,,,,,,,,
space,13.2295,-0.023843859,-0.467492472,0,0,0,,,,,,1,end_of_practice,"You have completed the practice trials. During the experimental trials, you will not receive feedback. 
Before you begin, please ensure that you are in a comfortable and quiet location and will not be disturbed for about 15 minutes, as we cannot use your data if you do not complete all the trials. 
 When you are ready to start the experimental trials, please press space or touch the button below.",,,200098,19,2022-01-28_16h27.13.996,lexical_decision_task_DD_L2,2021.2.3,MacIntel,60.0024001,,,,,,,,,,,,,,,,,,,,,,0,0,0,0,1,,,,,,,,,,,,,,,,,,,,,,,,,,,,,,,,,,,,,,,,,,,,,,,
,,,,,,,,,,,,,,,,,200098,19,2022-01-28_16h27.13.996,lexical_decision_task_DD_L2,2021.2.3,MacIntel,60.0024001,,,,,,,,,,,,1.013,1,,,,,,,,,,,,,,m,1,1.013,,,,,,,,-0.023843859,-0.467492472,0,0,0,,0,0,0,14,1,PICKLE,C,old,m,./images/PICKLE.png,,,,,,,,,,,,,,,,,,,,,
,,,,,,,,,,,,,,,,,200098,19,2022-01-28_16h27.13.996,lexical_decision_task_DD_L2,2021.2.3,MacIntel,60.0024001,,,,,,,,,,,,0.9776,1,,,,,,,,,,,,,,z,1,0.9776,,,,,,,,-0.023843859,-0.467492472,0,0,0,,0,1,1,101,1,GLEET,LB,old,z,./images/GLEETLB.png,,,,,,,,,,,,,,,,,,,,,
,,,,,,,,,,,,,,,,,200098,19,2022-01-28_16h27.13.996,lexical_decision_task_DD_L2,2021.2.3,MacIntel,60.0024001,,,,,,,,,,,,1.6179,1,,,,,,,,,,,,,,z,1,1.6179,,,,,,,,-0.023843859,-0.467492472,0,0,0,,0,2,2,163,1,GAMBA,HB,old,z,./images/GAMBAHB.png,,,,,,,,,,,,,,,,,,,,,
,,,,,,,,,,,,,,,,,200098,19,2022-01-28_16h27.13.996,lexical_decision_task_DD_L2,2021.2.3,MacIntel,60.0024001,,,,,,,,,,,,0.9059,1,,,,,,,,,,,,,,z,1,0.9059,,,,,,,,-0.023843859,-0.467492472,0,0,0,,0,3,3,99,1,BACKY,C,old,z,./images/BACKY.png,,,,,,,,,,,,,,,,,,,,,
,,,,,,,,,,,,,,,,,200098,19,2022-01-28_16h27.13.996,lexical_decision_task_DD_L2,2021.2.3,MacIntel,60.0024001,,,,,,,,,,,,0.9294,1,,,,,,,,,,,,,,m,1,0.9294,,,,,,,,-0.023843859,-0.467492472,0,0,0,,0,4,4,80,1,WEASEL,C,old,m,./images/WEASEL.png,,,,,,,,,,,,,,,,,,,,,
,,,,,,,,,,,,,,,,,200098,19,2022-01-28_16h27.13.996,lexical_decision_task_DD_L2,2021.2.3,MacIntel,60.0024001,,,,,,,,,,,,1.1015,1,,,,,,,,,,,,,,z,1,1.1015,,,,,,,,-0.023843859,-0.467492472,0,0,0,,0,5,5,142,1,PLASK,HB,old,z,./images/PLASKHB.png,,,,,,,,,,,,,,,,,,,,,
,,,,,,,,,,,,,,,,,200098,19,2022-01-28_16h27.13.996,lexical_decision_task_DD_L2,2021.2.3,MacIntel,60.0024001,,,,,,,,,,,,0.8081,1,,,,,,,,,,,,,,m,1,0.8081,,,,,,,,-0.023843859,-0.467492472,0,0,0,,0,6,6,0,1,TOMATO,HB,old,m,./images/TOMATOHB.png,,,,,,,,,,,,,,,,,,,,,
,,,,,,,,,,,,,,,,,200098,19,2022-01-28_16h27.13.996,lexical_decision_task_DD_L2,2021.2.3,MacIntel,60.0024001,,,,,,,,,,,,1.0066,1,,,,,,,,,,,,,,m,1,1.0066,,,,,,,,-0.023843859,-0.467492472,0,0,0,,0,7,7,43,1,MOSQUE,LB,old,m,./images/MOSQUELB.png,,,,,,,,,,,,,,,,,,,,,
,,,,,,,,,,,,,,,,,200098,19,2022-01-28_16h27.13.996,lexical_decision_task_DD_L2,2021.2.3,MacIntel,60.0024001,,,,,,,,,,,,0.9508,1,,,,,,,,,,,,,,z,1,0.9508,,,,,,,,-0.023843859,-0.467492472,0,0,0,,0,8,8,165,1,TROWN,C,old,z,./images/TROWN.png,,,,,,,,,,,,,,,,,,,,,
,,,,,,,,,,,,,,,,,200098,19,2022-01-28_16h27.13.996,lexical_decision_task_DD_L2,2021.2.3,MacIntel,60.0024001,,,,,,,,,,,,0.6556,1,,,,,,,,,,,,,,m,1,0.6556,,,,,,,,-0.023843859,-0.467492472,0,0,0,,0,9,9,71,1,PIMPLE,C,old,m,./images/PIMPLE.png,,,,,,,,,,,,,,,,,,,,,
,,,,,,,,,,,,,,,,,200098,19,2022-01-28_16h27.13.996,lexical_decision_task_DD_L2,2021.2.3,MacIntel,60.0024001,,,,,,,,,,,,1.4509,0,,,,,,,,,,,,,,z,0,1.4509,,,,,,,,-0.023843859,-0.467492472,0,0,0,,0,10,10,17,1,SKIING,C,old,m,./images/SKIING.png,,,,,,,,,,,,,,,,,,,,,
,,,,,,,,,,,,,,,,,200098,19,2022-01-28_16h27.13.996,lexical_decision_task_DD_L2,2021.2.3,MacIntel,60.0024001,,,,,,,,,,,,0.8363,1,,,,,,,,,,,,,,z,1,0.8363,,,,,,,,-0.023843859,-0.467492472,0,0,0,,0,11,11,138,1,PLICE,C,old,z,./images/PLICE.png,,,,,,,,,,,,,,,,,,,,,
,,,,,,,,,,,,,,,,,200098,19,2022-01-28_16h27.13.996,lexical_decision_task_DD_L2,2021.2.3,MacIntel,60.0024001,,,,,,,,,,,,0.9195,1,,,,,,,,,,,,,,z,1,0.9195,,,,,,,,-0.023843859,-0.467492472,0,0,0,,0,12,12,146,1,MOOST,LB,old,z,./images/MOOSTLB.png,,,,,,,,,,,,,,,,,,,,,
,,,,,,,,,,,,,,,,,200098,19,2022-01-28_16h27.13.996,lexical_decision_task_DD_L2,2021.2.3,MacIntel,60.0024001,,,,,,,,,,,,1.4642,1,,,,,,,,,,,,,,m,1,1.4642,,,,,,,,-0.023843859,-0.467492472,0,0,0,,0,13,13,34,1,CANYON,LB,old,m,./images/CANYONLB.png,,,,,,,,,,,,,,,,,,,,,
,,,,,,,,,,,,,,,,,200098,19,2022-01-28_16h27.13.996,lexical_decision_task_DD_L2,2021.2.3,MacIntel,60.0024001,,,,,,,,,,,,0.7209,1,,,,,,,,,,,,,,m,1,0.7209,,,,,,,,-0.023843859,-0.467492472,0,0,0,,0,14,14,66,1,SWEAT,HB,old,m,./images/SWEATHB.png,,,,,,,,,,,,,,,,,,,,,
,,,,,,,,,,,,,,,,,200098,19,2022-01-28_16h27.13.996,lexical_decision_task_DD_L2,2021.2.3,MacIntel,60.0024001,,,,,,,,,,,,0.7623,1,,,,,,,,,,,,,,m,1,0.7623,,,,,,,,-0.023843859,-0.467492472,0,0,0,,0,15,15,67,1,SAILOR,LB,old,m,./images/SAILORLB.png,,,,,,,,,,,,,,,,,,,,,
,,,,,,,,,,,,,,,,,200098,19,2022-01-28_16h27.13.996,lexical_decision_task_DD_L2,2021.2.3,MacIntel,60.0024001,,,,,,,,,,,,0.7524,1,,,,,,,,,,,,,,z,1,0.7524,,,,,,,,-0.023843859,-0.467492472,0,0,0,,0,16,16,120,1,RINED,C,old,z,./images/RINED.png,,,,,,,,,,,,,,,,,,,,,
,,,,,,,,,,,,,,,,,200098,19,2022-01-28_16h27.13.996,lexical_decision_task_DD_L2,2021.2.3,MacIntel,60.0024001,,,,,,,,,,,,1.3617,1,,,,,,,,,,,,,,z,1,1.3617,,,,,,,,-0.023843859,-0.467492472,0,0,0,,0,17,17,139,1,BLEAR,HB,old,z,./images/BLEARHB.png,,,,,,,,,,,,,,,,,,,,,
,,,,,,,,,,,,,,,,,200098,19,2022-01-28_16h27.13.996,lexical_decision_task_DD_L2,2021.2.3,MacIntel,60.0024001,,,,,,,,,,,,0.7148,1,,,,,,,,,,,,,,z,1,0.7148,,,,,,,,-0.023843859,-0.467492472,0,0,0,,0,18,18,147,1,ZOLES,C,old,z,./images/ZOLES.png,,,,,,,,,,,,,,,,,,,,,
,,,,,,,,,,,,,,,,,200098,19,2022-01-28_16h27.13.996,lexical_decision_task_DD_L2,2021.2.3,MacIntel,60.0024001,,,,,,,,,,,,0.7543,1,,,,,,,,,,,,,,m,1,0.7543,,,,,,,,-0.023843859,-0.467492472,0,0,0,,0,19,19,75,1,GRAIN,HB,old,m,./images/GRAINHB.png,,,,,,,,,,,,,,,,,,,,,
,,,,,,,,,,,,,,,,,200098,19,2022-01-28_16h27.13.996,lexical_decision_task_DD_L2,2021.2.3,MacIntel,60.0024001,,,,,,,,,,,,0.623,1,,,,,,,,,,,,,,m,1,0.623,,,,,,,,-0.023843859,-0.467492472,0,0,0,,0,20,20,51,1,ONION,HB,old,m,./images/ONIONHB.png,,,,,,,,,,,,,,,,,,,,,
,,,,,,,,,,,,,,,,,200098,19,2022-01-28_16h27.13.996,lexical_decision_task_DD_L2,2021.2.3,MacIntel,60.0024001,,,,,,,,,,,,1.0077,1,,,,,,,,,,,,,,z,1,1.0077,,,,,,,,-0.023843859,-0.467492472,0,0,0,,0,21,21,110,1,CRUNK,LB,old,z,./images/CRUNKLB.png,,,,,,,,,,,,,,,,,,,,,
,,,,,,,,,,,,,,,,,200098,19,2022-01-28_16h27.13.996,lexical_decision_task_DD_L2,2021.2.3,MacIntel,60.0024001,,,,,,,,,,,,0.7779,1,,,,,,,,,,,,,,m,1,0.7779,,,,,,,,-0.023843859,-0.467492472,0,0,0,,0,22,22,39,1,SHELF,HB,old,m,./images/SHELFHB.png,,,,,,,,,,,,,,,,,,,,,
,,,,,,,,,,,,,,,,,200098,19,2022-01-28_16h27.13.996,lexical_decision_task_DD_L2,2021.2.3,MacIntel,60.0024001,,,,,,,,,,,,0.6497,1,,,,,,,,,,,,,,m,1,0.6497,,,,,,,,-0.023843859,-0.467492472,0,0,0,,0,23,23,77,1,COUCH,C,old,m,./images/COUCH.png,,,,,,,,,,,,,,,,,,,,,
,,,,,,,,,,,,,,,,,200098,19,2022-01-28_16h27.13.996,lexical_decision_task_DD_L2,2021.2.3,MacIntel,60.0024001,,,,,,,,,,,,0.6619,1,,,,,,,,,,,,,,m,1,0.6619,,,,,,,,-0.023843859,-0.467492472,0,0,0,,0,24,24,37,1,BIRTH,LB,old,m,./images/BIRTHLB.png,,,,,,,,,,,,,,,,,,,,,
,,,,,,,,,,,,,,,,,200098,19,2022-01-28_16h27.13.996,lexical_decision_task_DD_L2,2021.2.3,MacIntel,60.0024001,,,,,,,,,,,,0.7938,1,,,,,,,,,,,,,,z,1,0.7938,,,,,,,,-0.023843859,-0.467492472,0,0,0,,0,25,25,134,1,TROSS,LB,old,z,./images/TROSSLB.png,,,,,,,,,,,,,,,,,,,,,
,,,,,,,,,,,,,,,,,200098,19,2022-01-28_16h27.13.996,lexical_decision_task_DD_L2,2021.2.3,MacIntel,60.0024001,,,,,,,,,,,,0.9525,1,,,,,,,,,,,,,,m,1,0.9525,,,,,,,,-0.023843859,-0.467492472,0,0,0,,0,26,26,15,1,GREASE,HB,old,m,./images/GREASEHB.png,,,,,,,,,,,,,,,,,,,,,
,,,,,,,,,,,,,,,,,200098,19,2022-01-28_16h27.13.996,lexical_decision_task_DD_L2,2021.2.3,MacIntel,60.0024001,,,,,,,,,,,,1.2211,1,,,,,,,,,,,,,,z,1,1.2211,,,,,,,,-0.023843859,-0.467492472,0,0,0,,0,27,27,97,1,CHIDS,HB,old,z,./images/CHIDSHB.png,,,,,,,,,,,,,,,,,,,,,
,,,,,,,,,,,,,,,,,200098,19,2022-01-28_16h27.13.996,lexical_decision_task_DD_L2,2021.2.3,MacIntel,60.0024001,,,,,,,,,,,,0.8091,1,,,,,,,,,,,,,,m,1,0.8091,,,,,,,,-0.023843859,-0.467492472,0,0,0,,0,28,28,6,1,SQUARE,HB,old,m,./images/SQUAREHB.png,,,,,,,,,,,,,,,,,,,,,
,,,,,,,,,,,,,,,,,200098,19,2022-01-28_16h27.13.996,lexical_decision_task_DD_L2,2021.2.3,MacIntel,60.0024001,,,,,,,,,,,,0.7093,1,,,,,,,,,,,,,,m,1,0.7093,,,,,,,,-0.023843859,-0.467492472,0,0,0,,0,29,29,53,1,CARPET,C,old,m,./images/CARPET.png,,,,,,,,,,,,,,,,,,,,,
,,,,,,,,,,,,,,,,,200098,19,2022-01-28_16h27.13.996,lexical_decision_task_DD_L2,2021.2.3,MacIntel,60.0024001,,,,,,,,,,,,1.322,1,,,,,,,,,,,,,,z,1,1.322,,,,,,,,-0.023843859,-0.467492472,0,0,0,,0,30,30,136,1,WERVE,HB,old,z,./images/WERVEHB.png,,,,,,,,,,,,,,,,,,,,,
,,,,,,,,,,,,,,,,,200098,19,2022-01-28_16h27.13.996,lexical_decision_task_DD_L2,2021.2.3,MacIntel,60.0024001,,,,,,,,,,,,1.0539,0,,,,,,,,,,,,,,m,0,1.0539,,,,,,,,-0.023843859,-0.467492472,0,0,0,,0,31,31,154,1,THINT,HB,old,z,./images/THINTHB.png,,,,,,,,,,,,,,,,,,,,,
,,,,,,,,,,,,,,,,,200098,19,2022-01-28_16h27.13.996,lexical_decision_task_DD_L2,2021.2.3,MacIntel,60.0024001,,,,,,,,,,,,1.2706,1,,,,,,,,,,,,,,z,1,1.2706,,,,,,,,-0.023843859,-0.467492472,0,0,0,,0,32,32,95,1,HANTY,LB,old,z,./images/HANTYLB.png,,,,,,,,,,,,,,,,,,,,,
,,,,,,,,,,,,,,,,,200098,19,2022-01-28_16h27.13.996,lexical_decision_task_DD_L2,2021.2.3,MacIntel,60.0024001,,,,,,,,,,,,0.8794,1,,,,,,,,,,,,,,z,1,0.8794,,,,,,,,-0.023843859,-0.467492472,0,0,0,,0,33,33,149,1,VEASE,LB,old,z,./images/VEASELB.png,,,,,,,,,,,,,,,,,,,,,
,,,,,,,,,,,,,,,,,200098,19,2022-01-28_16h27.13.996,lexical_decision_task_DD_L2,2021.2.3,MacIntel,60.0024001,,,,,,,,,,,,0.8035,1,,,,,,,,,,,,,,z,1,0.8035,,,,,,,,-0.023843859,-0.467492472,0,0,0,,0,34,34,123,1,SEDGE,C,old,z,./images/SEDGE.png,,,,,,,,,,,,,,,,,,,,,
,,,,,,,,,,,,,,,,,200098,19,2022-01-28_16h27.13.996,lexical_decision_task_DD_L2,2021.2.3,MacIntel,60.0024001,,,,,,,,,,,,0.6723,1,,,,,,,,,,,,,,m,1,0.6723,,,,,,,,-0.023843859,-0.467492472,0,0,0,,0,35,35,70,1,URINE,LB,old,m,./images/URINELB.png,,,,,,,,,,,,,,,,,,,,,
,,,,,,,,,,,,,,,,,200098,19,2022-01-28_16h27.13.996,lexical_decision_task_DD_L2,2021.2.3,MacIntel,60.0024001,,,,,,,,,,,,0.7584,1,,,,,,,,,,,,,,z,1,0.7584,,,,,,,,-0.023843859,-0.467492472,0,0,0,,0,36,36,122,1,BLOOT,LB,old,z,./images/BLOOTLB.png,,,,,,,,,,,,,,,,,,,,,
,,,,,,,,,,,,,,,,,200098,19,2022-01-28_16h27.13.996,lexical_decision_task_DD_L2,2021.2.3,MacIntel,60.0024001,,,,,,,,,,,,0.9829,1,,,,,,,,,,,,,,m,1,0.9829,,,,,,,,-0.023843859,-0.467492472,0,0,0,,0,37,37,20,1,CRADLE,C,old,m,./images/CRADLE.png,,,,,,,,,,,,,,,,,,,,,
,,,,,,,,,,,,,,,,,200098,19,2022-01-28_16h27.13.996,lexical_decision_task_DD_L2,2021.2.3,MacIntel,60.0024001,,,,,,,,,,,,1.2411,0,,,,,,,,,,,,,,m,0,1.2411,,,,,,,,-0.023843859,-0.467492472,0,0,0,,0,38,38,85,1,CHULK,HB,old,z,./images/CHULKHB.png,,,,,,,,,,,,,,,,,,,,,
,,,,,,,,,,,,,,,,,200098,19,2022-01-28_16h27.13.996,lexical_decision_task_DD_L2,2021.2.3,MacIntel,60.0024001,,,,,,,,,,,,0.6692,1,,,,,,,,,,,,,,m,1,0.6692,,,,,,,,-0.023843859,-0.467492472,0,0,0,,0,39,39,41,1,STRING,C,old,m,./images/STRING.png,,,,,,,,,,,,,,,,,,,,,
,,,,,,,,,,,,,,,,,200098,19,2022-01-28_16h27.13.996,lexical_decision_task_DD_L2,2021.2.3,MacIntel,60.0024001,,,,,,,,,,,,1.2189,1,,,,,,,,,,,,,,z,1,1.2189,,,,,,,,-0.023843859,-0.467492472,0,0,0,,0,40,40,121,1,CEERS,HB,old,z,./images/CEERSHB.png,,,,,,,,,,,,,,,,,,,,,
,,,,,,,,,,,,,,,,,200098,19,2022-01-28_16h27.13.996,lexical_decision_task_DD_L2,2021.2.3,MacIntel,60.0024001,,,,,,,,,,,,0.8665,1,,,,,,,,,,,,,,m,1,0.8665,,,,,,,,-0.023843859,-0.467492472,0,0,0,space,0,41,41,58,1,BABOON,LB,old,m,./images/BABOONLB.png,13.6451,,,,,,,,,,,,,,,,,,,,
,,,,,,,,,,,,,,,,,200098,19,2022-01-28_16h27.13.996,lexical_decision_task_DD_L2,2021.2.3,MacIntel,60.0024001,,,,,,,,,,,,0.9977,1,,,,,,,,,,,,,,z,1,0.9977,,,,,,,,-0.023843859,-0.467492472,0,0,0,,0,42,42,115,1,MAWNS,HB,old,z,./images/MAWNSHB.png,,,,,,,,,,,,,,,,,,,,,
,,,,,,,,,,,,,,,,,200098,19,2022-01-28_16h27.13.996,lexical_decision_task_DD_L2,2021.2.3,MacIntel,60.0024001,,,,,,,,,,,,1.1424,1,,,,,,,,,,,,,,z,1,1.1424,,,,,,,,-0.023843859,-0.467492472,0,0,0,,0,43,43,112,1,MYING,HB,old,z,./images/MYINGHB.png,,,,,,,,,,,,,,,,,,,,,
,,,,,,,,,,,,,,,,,200098,19,2022-01-28_16h27.13.996,lexical_decision_task_DD_L2,2021.2.3,MacIntel,60.0024001,,,,,,,,,,,,0.6295,1,,,,,,,,,,,,,,m,1,0.6295,,,,,,,,-0.023843859,-0.467492472,0,0,0,,0,44,44,46,1,PEARL,LB,old,m,./images/PEARLLB.png,,,,,,,,,,,,,,,,,,,,,
,,,,,,,,,,,,,,,,,200098,19,2022-01-28_16h27.13.996,lexical_decision_task_DD_L2,2021.2.3,MacIntel,60.0024001,,,,,,,,,,,,0.6427,1,,,,,,,,,,,,,,m,1,0.6427,,,,,,,,-0.023843859,-0.467492472,0,0,0,,0,45,45,19,1,DOUGH,LB,old,m,./images/DOUGHLB.png,,,,,,,,,,,,,,,,,,,,,
,,,,,,,,,,,,,,,,,200098,19,2022-01-28_16h27.13.996,lexical_decision_task_DD_L2,2021.2.3,MacIntel,60.0024001,,,,,,,,,,,,0.707,1,,,,,,,,,,,,,,m,1,0.707,,,,,,,,-0.023843859,-0.467492472,0,0,0,,0,46,46,9,1,RHINO,HB,old,m,./images/RHINOHB.png,,,,,,,,,,,,,,,,,,,,,
,,,,,,,,,,,,,,,,,200098,19,2022-01-28_16h27.13.996,lexical_decision_task_DD_L2,2021.2.3,MacIntel,60.0024001,,,,,,,,,,,,0.6594,1,,,,,,,,,,,,,,z,1,0.6594,,,,,,,,-0.023843859,-0.467492472,0,0,0,,0,47,47,162,1,LEICH,C,old,z,./images/LEICH.png,,,,,,,,,,,,,,,,,,,,,
,,,,,,,,,,,,,,,,,200098,19,2022-01-28_16h27.13.996,lexical_decision_task_DD_L2,2021.2.3,MacIntel,60.0024001,,,,,,,,,,,,0.5606,1,,,,,,,,,,,,,,m,1,0.5606,,,,,,,,-0.023843859,-0.467492472,0,0,0,,0,48,48,61,1,CANDLE,LB,old,m,./images/CANDLELB.png,,,,,,,,,,,,,,,,,,,,,
,,,,,,,,,,,,,,,,,200098,19,2022-01-28_16h27.13.996,lexical_decision_task_DD_L2,2021.2.3,MacIntel,60.0024001,,,,,,,,,,,,0.6051,1,,,,,,,,,,,,,,z,1,0.6051,,,,,,,,-0.023843859,-0.467492472,0,0,0,,0,49,49,116,1,BALGY,LB,old,z,./images/BALGYLB.png,,,,,,,,,,,,,,,,,,,,,
,,,,,,,,,,,,,,,,,200098,19,2022-01-28_16h27.13.996,lexical_decision_task_DD_L2,2021.2.3,MacIntel,60.0024001,,,,,,,,,,,,0.8187,1,,,,,,,,,,,,,,z,1,0.8187,,,,,,,,-0.023843859,-0.467492472,0,0,0,,0,50,50,135,1,JOODY,C,old,z,./images/JOODY.png,,,,,,,,,,,,,,,,,,,,,
,,,,,,,,,,,,,,,,,200098,19,2022-01-28_16h27.13.996,lexical_decision_task_DD_L2,2021.2.3,MacIntel,60.0024001,,,,,,,,,,,,0.9453,1,,,,,,,,,,,,,,z,1,0.9453,,,,,,,,-0.023843859,-0.467492472,0,0,0,,0,51,51,84,1,HAXES,C,old,z,./images/HAXES.png,,,,,,,,,,,,,,,,,,,,,
,,,,,,,,,,,,,,,,,200098,19,2022-01-28_16h27.13.996,lexical_decision_task_DD_L2,2021.2.3,MacIntel,60.0024001,,,,,,,,,,,,1.04,1,,,,,,,,,,,,,,z,1,1.04,,,,,,,,-0.023843859,-0.467492472,0,0,0,,0,52,52,148,1,JOMS,HB,old,z,./images/JOMSHB.png,,,,,,,,,,,,,,,,,,,,,
,,,,,,,,,,,,,,,,,200098,19,2022-01-28_16h27.13.996,lexical_decision_task_DD_L2,2021.2.3,MacIntel,60.0024001,,,,,,,,,,,,0.6652,1,,,,,,,,,,,,,,z,1,0.6652,,,,,,,,-0.023843859,-0.467492472,0,0,0,,0,53,53,126,1,GUELS,C,old,z,./images/GUELS.png,,,,,,,,,,,,,,,,,,,,,
,,,,,,,,,,,,,,,,,200098,19,2022-01-28_16h27.13.996,lexical_decision_task_DD_L2,2021.2.3,MacIntel,60.0024001,,,,,,,,,,,,0.8262,1,,,,,,,,,,,,,,m,1,0.8262,,,,,,,,-0.023843859,-0.467492472,0,0,0,,0,54,54,12,1,SHORE,HB,old,m,./images/SHOREHB.png,,,,,,,,,,,,,,,,,,,,,
,,,,,,,,,,,,,,,,,200098,19,2022-01-28_16h27.13.996,lexical_decision_task_DD_L2,2021.2.3,MacIntel,60.0024001,,,,,,,,,,,,0.6357,1,,,,,,,,,,,,,,m,1,0.6357,,,,,,,,-0.023843859,-0.467492472,0,0,0,,0,55,55,48,1,SPORT,HB,old,m,./images/SPORTHB.png,,,,,,,,,,,,,,,,,,,,,
,,,,,,,,,,,,,,,,,200098,19,2022-01-28_16h27.13.996,lexical_decision_task_DD_L2,2021.2.3,MacIntel,60.0024001,,,,,,,,,,,,0.5156,1,,,,,,,,,,,,,,m,1,0.5156,,,,,,,,-0.023843859,-0.467492472,0,0,0,,0,56,56,44,1,LIZARD,C,old,m,./images/LIZARD.png,,,,,,,,,,,,,,,,,,,,,
,,,,,,,,,,,,,,,,,200098,19,2022-01-28_16h27.13.996,lexical_decision_task_DD_L2,2021.2.3,MacIntel,60.0024001,,,,,,,,,,,,0.6041,1,,,,,,,,,,,,,,z,1,0.6041,,,,,,,,-0.023843859,-0.467492472,0,0,0,,0,57,57,102,1,DULLE,C,old,z,./images/DULLE.png,,,,,,,,,,,,,,,,,,,,,
,,,,,,,,,,,,,,,,,200098,19,2022-01-28_16h27.13.996,lexical_decision_task_DD_L2,2021.2.3,MacIntel,60.0024001,,,,,,,,,,,,0.6961,1,,,,,,,,,,,,,,z,1,0.6961,,,,,,,,-0.023843859,-0.467492472,0,0,0,,0,58,58,92,1,PAIMS,LB,old,z,./images/PAIMSLB.png,,,,,,,,,,,,,,,,,,,,,
,,,,,,,,,,,,,,,,,200098,19,2022-01-28_16h27.13.996,lexical_decision_task_DD_L2,2021.2.3,MacIntel,60.0024001,,,,,,,,,,,,0.6694,1,,,,,,,,,,,,,,m,1,0.6694,,,,,,,,-0.023843859,-0.467492472,0,0,0,,0,59,59,26,1,SMOKER,C,old,m,./images/SMOKER.png,,,,,,,,,,,,,,,,,,,,,
,,,,,,,,,,,,,,,,,200098,19,2022-01-28_16h27.13.996,lexical_decision_task_DD_L2,2021.2.3,MacIntel,60.0024001,,,,,,,,,,,,0.8414,1,,,,,,,,,,,,,,z,1,0.8414,,,,,,,,-0.023843859,-0.467492472,0,0,0,,0,60,60,159,1,CUDDY,C,old,z,./images/CUDDY.png,,,,,,,,,,,,,,,,,,,,,
,,,,,,,,,,,,,,,,,200098,19,2022-01-28_16h27.13.996,lexical_decision_task_DD_L2,2021.2.3,MacIntel,60.0024001,,,,,,,,,,,,0.5659,1,,,,,,,,,,,,,,m,1,0.5659,,,,,,,,-0.023843859,-0.467492472,0,0,0,,0,61,61,83,1,JUNGLE,C,old,m,./images/JUNGLE.png,,,,,,,,,,,,,,,,,,,,,
,,,,,,,,,,,,,,,,,200098,19,2022-01-28_16h27.13.996,lexical_decision_task_DD_L2,2021.2.3,MacIntel,60.0024001,,,,,,,,,,,,0.5276,1,,,,,,,,,,,,,,m,1,0.5276,,,,,,,,-0.023843859,-0.467492472,0,0,0,,0,62,62,4,1,MUSCLE,LB,old,m,./images/MUSCLELB.png,,,,,,,,,,,,,,,,,,,,,
,,,,,,,,,,,,,,,,,200098,19,2022-01-28_16h27.13.996,lexical_decision_task_DD_L2,2021.2.3,MacIntel,60.0024001,,,,,,,,,,,,0.5675,0,,,,,,,,,,,,,,z,0,0.5675,,,,,,,,-0.023843859,-0.467492472,0,0,0,,0,63,63,23,1,WALRUS,C,old,m,./images/WALRUS.png,,,,,,,,,,,,,,,,,,,,,
,,,,,,,,,,,,,,,,,200098,19,2022-01-28_16h27.13.996,lexical_decision_task_DD_L2,2021.2.3,MacIntel,60.0024001,,,,,,,,,,,,1.7574,1,,,,,,,,,,,,,,m,1,1.7574,,,,,,,,-0.023843859,-0.467492472,0,0,0,,0,64,64,69,1,COOKER,HB,old,m,./images/COOKERHB.png,,,,,,,,,,,,,,,,,,,,,
,,,,,,,,,,,,,,,,,200098,19,2022-01-28_16h27.13.996,lexical_decision_task_DD_L2,2021.2.3,MacIntel,60.0024001,,,,,,,,,,,,0.6513,1,,,,,,,,,,,,,,z,1,0.6513,,,,,,,,-0.023843859,-0.467492472,0,0,0,,0,65,65,104,1,GITTY,LB,old,z,./images/GITTYLB.png,,,,,,,,,,,,,,,,,,,,,
,,,,,,,,,,,,,,,,,200098,19,2022-01-28_16h27.13.996,lexical_decision_task_DD_L2,2021.2.3,MacIntel,60.0024001,,,,,,,,,,,,0.9312,1,,,,,,,,,,,,,,m,1,0.9312,,,,,,,,-0.023843859,-0.467492472,0,0,0,,0,66,66,59,1,BURIAL,C,old,m,./images/BURIAL.png,,,,,,,,,,,,,,,,,,,,,
,,,,,,,,,,,,,,,,,200098,19,2022-01-28_16h27.13.996,lexical_decision_task_DD_L2,2021.2.3,MacIntel,60.0024001,,,,,,,,,,,,0.648,1,,,,,,,,,,,,,,m,1,0.648,,,,,,,,-0.023843859,-0.467492472,0,0,0,,0,67,67,32,1,BARREL,C,old,m,./images/BARREL.png,,,,,,,,,,,,,,,,,,,,,
,,,,,,,,,,,,,,,,,200098,19,2022-01-28_16h27.13.996,lexical_decision_task_DD_L2,2021.2.3,MacIntel,60.0024001,,,,,,,,,,,,0.8534,1,,,,,,,,,,,,,,z,1,0.8534,,,,,,,,-0.023843859,-0.467492472,0,0,0,,0,68,68,145,1,LAMEL,HB,old,z,./images/LAMELHB.png,,,,,,,,,,,,,,,,,,,,,
,,,,,,,,,,,,,,,,,200098,19,2022-01-28_16h27.13.996,lexical_decision_task_DD_L2,2021.2.3,MacIntel,60.0024001,,,,,,,,,,,,0.6778,1,,,,,,,,,,,,,,m,1,0.6778,,,,,,,,-0.023843859,-0.467492472,0,0,0,,0,69,69,76,1,INFANT,LB,old,m,./images/INFANTLB.png,,,,,,,,,,,,,,,,,,,,,
,,,,,,,,,,,,,,,,,200098,19,2022-01-28_16h27.13.996,lexical_decision_task_DD_L2,2021.2.3,MacIntel,60.0024001,,,,,,,,,,,,0.8028,1,,,,,,,,,,,,,,m,1,0.8028,,,,,,,,-0.023843859,-0.467492472,0,0,0,,0,70,70,5,1,PASTA,C,old,m,./images/PASTA.png,,,,,,,,,,,,,,,,,,,,,
,,,,,,,,,,,,,,,,,200098,19,2022-01-28_16h27.13.996,lexical_decision_task_DD_L2,2021.2.3,MacIntel,60.0024001,,,,,,,,,,,,0.7119,1,,,,,,,,,,,,,,m,1,0.7119,,,,,,,,-0.023843859,-0.467492472,0,0,0,,0,71,71,64,1,JELLY,LB,old,m,./images/JELLYLB.png,,,,,,,,,,,,,,,,,,,,,
,,,,,,,,,,,,,,,,,200098,19,2022-01-28_16h27.13.996,lexical_decision_task_DD_L2,2021.2.3,MacIntel,60.0024001,,,,,,,,,,,,1.2788,1,,,,,,,,,,,,,,m,1,1.2788,,,,,,,,-0.023843859,-0.467492472,0,0,0,,0,72,72,16,1,PENCE,LB,old,m,./images/PENCELB.png,,,,,,,,,,,,,,,,,,,,,
,,,,,,,,,,,,,,,,,200098,19,2022-01-28_16h27.13.996,lexical_decision_task_DD_L2,2021.2.3,MacIntel,60.0024001,,,,,,,,,,,,0.9698,1,,,,,,,,,,,,,,m,1,0.9698,,,,,,,,-0.023843859,-0.467492472,0,0,0,,0,73,73,8,1,TULIP,C,old,m,./images/TULIP.png,,,,,,,,,,,,,,,,,,,,,
,,,,,,,,,,,,,,,,,200098,19,2022-01-28_16h27.13.996,lexical_decision_task_DD_L2,2021.2.3,MacIntel,60.0024001,,,,,,,,,,,,1.4663,1,,,,,,,,,,,,,,m,1,1.4663,,,,,,,,-0.023843859,-0.467492472,0,0,0,,0,74,74,33,1,MAGGOT,HB,old,m,./images/MAGGOTHB.png,,,,,,,,,,,,,,,,,,,,,
,,,,,,,,,,,,,,,,,200098,19,2022-01-28_16h27.13.996,lexical_decision_task_DD_L2,2021.2.3,MacIntel,60.0024001,,,,,,,,,,,,0.7345,1,,,,,,,,,,,,,,m,1,0.7345,,,,,,,,-0.023843859,-0.467492472,0,0,0,,0,75,75,56,1,PACKET,C,old,m,./images/PACKET.png,,,,,,,,,,,,,,,,,,,,,
,,,,,,,,,,,,,,,,,200098,19,2022-01-28_16h27.13.996,lexical_decision_task_DD_L2,2021.2.3,MacIntel,60.0024001,,,,,,,,,,,,1.0201,1,,,,,,,,,,,,,,m,1,1.0201,,,,,,,,-0.023843859,-0.467492472,0,0,0,,0,76,76,11,1,BONNET,C,old,m,./images/BONNET.png,,,,,,,,,,,,,,,,,,,,,
,,,,,,,,,,,,,,,,,200098,19,2022-01-28_16h27.13.996,lexical_decision_task_DD_L2,2021.2.3,MacIntel,60.0024001,,,,,,,,,,,,1.5367,1,,,,,,,,,,,,,,m,1,1.5367,,,,,,,,-0.023843859,-0.467492472,0,0,0,,0,77,77,72,1,NOOSE,HB,old,m,./images/NOOSEHB.png,,,,,,,,,,,,,,,,,,,,,
,,,,,,,,,,,,,,,,,200098,19,2022-01-28_16h27.13.996,lexical_decision_task_DD_L2,2021.2.3,MacIntel,60.0024001,,,,,,,,,,,,0.5633,1,,,,,,,,,,,,,,m,1,0.5633,,,,,,,,-0.023843859,-0.467492472,0,0,0,,0,78,78,10,1,BELLY,LB,old,m,./images/BELLYLB.png,,,,,,,,,,,,,,,,,,,,,
,,,,,,,,,,,,,,,,,200098,19,2022-01-28_16h27.13.996,lexical_decision_task_DD_L2,2021.2.3,MacIntel,60.0024001,,,,,,,,,,,,0.7377,1,,,,,,,,,,,,,,z,1,0.7377,,,,,,,,-0.023843859,-0.467492472,0,0,0,,0,79,79,107,1,FASKS,LB,old,z,./images/FASKSLB.png,,,,,,,,,,,,,,,,,,,,,
,,,,,,,,,,,,,,,,,200098,19,2022-01-28_16h27.13.996,lexical_decision_task_DD_L2,2021.2.3,MacIntel,60.0024001,,,,,,,,,,,,0.6873,1,,,,,,,,,,,,,,z,1,0.6873,,,,,,,,-0.023843859,-0.467492472,0,0,0,,0,80,80,96,1,KEAMS,C,old,z,./images/KEAMS.png,,,,,,,,,,,,,,,,,,,,,
,,,,,,,,,,,,,,,,,200098,19,2022-01-28_16h27.13.996,lexical_decision_task_DD_L2,2021.2.3,MacIntel,60.0024001,,,,,,,,,,,,0.7766,1,,,,,,,,,,,,,,z,1,0.7766,,,,,,,,-0.023843859,-0.467492472,0,0,0,,0,81,81,164,1,SGREW,LB,old,z,./images/SGREWLB.png,,,,,,,,,,,,,,,,,,,,,
,,,,,,,,,,,,,,,,,200098,19,2022-01-28_16h27.13.996,lexical_decision_task_DD_L2,2021.2.3,MacIntel,60.0024001,,,,,,,,,,,,0.7107,1,,,,,,,,,,,,,,z,1,0.7107,,,,,,,,-0.023843859,-0.467492472,0,0,0,,0,82,82,117,1,STEEG,C,old,z,./images/STEEG.png,,,,,,,,,,,,,,,,,,,,,
,,,,,,,,,,,,,,,,,200098,19,2022-01-28_16h27.13.996,lexical_decision_task_DD_L2,2021.2.3,MacIntel,60.0024001,,,,,,,,,,,,0.7876,0,,,,,,,,,,,,,,m,0,0.7876,,,,,,,,-0.023843859,-0.467492472,0,0,0,space,0,83,83,108,1,GRUET,C,old,z,./images/GRUET.png,2.0826,,,,,,,,,,,,,,,,,,,,
,,,,,,,,,,,,,,,,,200098,19,2022-01-28_16h27.13.996,lexical_decision_task_DD_L2,2021.2.3,MacIntel,60.0024001,,,,,,,,,,,,0.6796,1,,,,,,,,,,,,,,m,1,0.6796,,,,,,,,-0.023843859,-0.467492472,0,0,0,,0,84,84,68,1,TORCH,C,old,m,./images/TORCH.png,,,,,,,,,,,,,,,,,,,,,
,,,,,,,,,,,,,,,,,200098,19,2022-01-28_16h27.13.996,lexical_decision_task_DD_L2,2021.2.3,MacIntel,60.0024001,,,,,,,,,,,,0.7737,1,,,,,,,,,,,,,,z,1,0.7737,,,,,,,,-0.023843859,-0.467492472,0,0,0,,0,85,85,133,1,POWDY,HB,old,z,./images/POWDYHB.png,,,,,,,,,,,,,,,,,,,,,
,,,,,,,,,,,,,,,,,200098,19,2022-01-28_16h27.13.996,lexical_decision_task_DD_L2,2021.2.3,MacIntel,60.0024001,,,,,,,,,,,,0.6975,1,,,,,,,,,,,,,,z,1,0.6975,,,,,,,,-0.023843859,-0.467492472,0,0,0,,0,86,86,137,1,JOOST,LB,old,z,./images/JOOSTLB.png,,,,,,,,,,,,,,,,,,,,,
,,,,,,,,,,,,,,,,,200098,19,2022-01-28_16h27.13.996,lexical_decision_task_DD_L2,2021.2.3,MacIntel,60.0024001,,,,,,,,,,,,0.6602,1,,,,,,,,,,,,,,z,1,0.6602,,,,,,,,-0.023843859,-0.467492472,0,0,0,,0,87,87,86,1,AIFED,LB,old,z,./images/AIFEDLB.png,,,,,,,,,,,,,,,,,,,,,
,,,,,,,,,,,,,,,,,200098,19,2022-01-28_16h27.13.996,lexical_decision_task_DD_L2,2021.2.3,MacIntel,60.0024001,,,,,,,,,,,,0.6219,1,,,,,,,,,,,,,,z,1,0.6219,,,,,,,,-0.023843859,-0.467492472,0,0,0,,0,88,88,140,1,DOVET,LB,old,z,./images/DOVETLB.png,,,,,,,,,,,,,,,,,,,,,
,,,,,,,,,,,,,,,,,200098,19,2022-01-28_16h27.13.996,lexical_decision_task_DD_L2,2021.2.3,MacIntel,60.0024001,,,,,,,,,,,,0.5932,1,,,,,,,,,,,,,,m,1,0.5932,,,,,,,,-0.023843859,-0.467492472,0,0,0,,0,89,89,28,1,FALCON,LB,old,m,./images/FALCONLB.png,,,,,,,,,,,,,,,,,,,,,
,,,,,,,,,,,,,,,,,200098,19,2022-01-28_16h27.13.996,lexical_decision_task_DD_L2,2021.2.3,MacIntel,60.0024001,,,,,,,,,,,,0.6439,1,,,,,,,,,,,,,,z,1,0.6439,,,,,,,,-0.023843859,-0.467492472,0,0,0,,0,90,90,131,1,NACES,LB,old,z,./images/NACESLB.png,,,,,,,,,,,,,,,,,,,,,
,,,,,,,,,,,,,,,,,200098,19,2022-01-28_16h27.13.996,lexical_decision_task_DD_L2,2021.2.3,MacIntel,60.0024001,,,,,,,,,,,,0.677,1,,,,,,,,,,,,,,m,1,0.677,,,,,,,,-0.023843859,-0.467492472,0,0,0,,0,91,91,22,1,MELON,LB,old,m,./images/MELONLB.png,,,,,,,,,,,,,,,,,,,,,
,,,,,,,,,,,,,,,,,200098,19,2022-01-28_16h27.13.996,lexical_decision_task_DD_L2,2021.2.3,MacIntel,60.0024001,,,,,,,,,,,,0.6595,1,,,,,,,,,,,,,,m,1,0.6595,,,,,,,,-0.023843859,-0.467492472,0,0,0,,0,92,92,79,1,CRUST,LB,old,m,./images/CRUSTLB.png,,,,,,,,,,,,,,,,,,,,,
,,,,,,,,,,,,,,,,,200098,19,2022-01-28_16h27.13.996,lexical_decision_task_DD_L2,2021.2.3,MacIntel,60.0024001,,,,,,,,,,,,0.8679,1,,,,,,,,,,,,,,z,1,0.8679,,,,,,,,-0.023843859,-0.467492472,0,0,0,,0,93,93,118,1,BAVEL,HB,old,z,./images/BAVELHB.png,,,,,,,,,,,,,,,,,,,,,
,,,,,,,,,,,,,,,,,200098,19,2022-01-28_16h27.13.996,lexical_decision_task_DD_L2,2021.2.3,MacIntel,60.0024001,,,,,,,,,,,,0.6267,1,,,,,,,,,,,,,,z,1,0.6267,,,,,,,,-0.023843859,-0.467492472,0,0,0,,0,94,94,150,1,NOOLS,C,old,z,./images/NOOLS.png,,,,,,,,,,,,,,,,,,,,,
,,,,,,,,,,,,,,,,,200098,19,2022-01-28_16h27.13.996,lexical_decision_task_DD_L2,2021.2.3,MacIntel,60.0024001,,,,,,,,,,,,0.6459,1,,,,,,,,,,,,,,m,1,0.6459,,,,,,,,-0.023843859,-0.467492472,0,0,0,,0,95,95,60,1,TWINS,HB,old,m,./images/TWINSHB.png,,,,,,,,,,,,,,,,,,,,,
,,,,,,,,,,,,,,,,,200098,19,2022-01-28_16h27.13.996,lexical_decision_task_DD_L2,2021.2.3,MacIntel,60.0024001,,,,,,,,,,,,1.2993,1,,,,,,,,,,,,,,z,1,1.2993,,,,,,,,-0.023843859,-0.467492472,0,0,0,,0,96,96,157,1,INLER,HB,old,z,./images/INLERHB.png,,,,,,,,,,,,,,,,,,,,,
,,,,,,,,,,,,,,,,,200098,19,2022-01-28_16h27.13.996,lexical_decision_task_DD_L2,2021.2.3,MacIntel,60.0024001,,,,,,,,,,,,0.601,1,,,,,,,,,,,,,,m,1,0.601,,,,,,,,-0.023843859,-0.467492472,0,0,0,,0,97,97,29,1,CRUMB,C,old,m,./images/CRUMB.png,,,,,,,,,,,,,,,,,,,,,
,,,,,,,,,,,,,,,,,200098,19,2022-01-28_16h27.13.996,lexical_decision_task_DD_L2,2021.2.3,MacIntel,60.0024001,,,,,,,,,,,,0.6764,1,,,,,,,,,,,,,,m,1,0.6764,,,,,,,,-0.023843859,-0.467492472,0,0,0,,0,98,98,47,1,BERRY,C,old,m,./images/BERRY.png,,,,,,,,,,,,,,,,,,,,,
,,,,,,,,,,,,,,,,,200098,19,2022-01-28_16h27.13.996,lexical_decision_task_DD_L2,2021.2.3,MacIntel,60.0024001,,,,,,,,,,,,0.6424,1,,,,,,,,,,,,,,z,1,0.6424,,,,,,,,-0.023843859,-0.467492472,0,0,0,,0,99,99,113,1,LINEW,LB,old,z,./images/LINEWLB.png,,,,,,,,,,,,,,,,,,,,,
,,,,,,,,,,,,,,,,,200098,19,2022-01-28_16h27.13.996,lexical_decision_task_DD_L2,2021.2.3,MacIntel,60.0024001,,,,,,,,,,,,0.7012,1,,,,,,,,,,,,,,z,1,0.7012,,,,,,,,-0.023843859,-0.467492472,0,0,0,,0,100,100,158,1,EGECT,LB,old,z,./images/EGECTLB.png,,,,,,,,,,,,,,,,,,,,,
,,,,,,,,,,,,,,,,,200098,19,2022-01-28_16h27.13.996,lexical_decision_task_DD_L2,2021.2.3,MacIntel,60.0024001,,,,,,,,,,,,0.7145,1,,,,,,,,,,,,,,z,1,0.7145,,,,,,,,-0.023843859,-0.467492472,0,0,0,,0,101,101,125,1,MOOKY,LB,old,z,./images/MOOKYLB.png,,,,,,,,,,,,,,,,,,,,,
,,,,,,,,,,,,,,,,,200098,19,2022-01-28_16h27.13.996,lexical_decision_task_DD_L2,2021.2.3,MacIntel,60.0024001,,,,,,,,,,,,0.9616,1,,,,,,,,,,,,,,z,1,0.9616,,,,,,,,-0.023843859,-0.467492472,0,0,0,,0,102,102,100,1,DRIBS,HB,old,z,./images/DRIBSHB.png,,,,,,,,,,,,,,,,,,,,,
,,,,,,,,,,,,,,,,,200098,19,2022-01-28_16h27.13.996,lexical_decision_task_DD_L2,2021.2.3,MacIntel,60.0024001,,,,,,,,,,,,0.6045,1,,,,,,,,,,,,,,m,1,0.6045,,,,,,,,-0.023843859,-0.467492472,0,0,0,,0,103,103,63,1,MIRROR,HB,old,m,./images/MIRRORHB.png,,,,,,,,,,,,,,,,,,,,,
,,,,,,,,,,,,,,,,,200098,19,2022-01-28_16h27.13.996,lexical_decision_task_DD_L2,2021.2.3,MacIntel,60.0024001,,,,,,,,,,,,0.8035,1,,,,,,,,,,,,,,m,1,0.8035,,,,,,,,-0.023843859,-0.467492472,0,0,0,,0,104,104,27,1,ATTIC,HB,old,m,./images/ATTICHB.png,,,,,,,,,,,,,,,,,,,,,
,,,,,,,,,,,,,,,,,200098,19,2022-01-28_16h27.13.996,lexical_decision_task_DD_L2,2021.2.3,MacIntel,60.0024001,,,,,,,,,,,,0.57,1,,,,,,,,,,,,,,m,1,0.57,,,,,,,,-0.023843859,-0.467492472,0,0,0,,0,105,105,25,1,WRIST,LB,old,m,./images/WRISTLB.png,,,,,,,,,,,,,,,,,,,,,
,,,,,,,,,,,,,,,,,200098,19,2022-01-28_16h27.13.996,lexical_decision_task_DD_L2,2021.2.3,MacIntel,60.0024001,,,,,,,,,,,,0.7928,1,,,,,,,,,,,,,,z,1,0.7928,,,,,,,,-0.023843859,-0.467492472,0,0,0,,0,106,106,143,1,MONGS,LB,old,z,./images/MONGSLB.png,,,,,,,,,,,,,,,,,,,,,
,,,,,,,,,,,,,,,,,200098,19,2022-01-28_16h27.13.996,lexical_decision_task_DD_L2,2021.2.3,MacIntel,60.0024001,,,,,,,,,,,,0.8855,1,,,,,,,,,,,,,,z,1,0.8855,,,,,,,,-0.023843859,-0.467492472,0,0,0,,0,107,107,106,1,CLUMS,HB,old,z,./images/CLUMSHB.png,,,,,,,,,,,,,,,,,,,,,
,,,,,,,,,,,,,,,,,200098,19,2022-01-28_16h27.13.996,lexical_decision_task_DD_L2,2021.2.3,MacIntel,60.0024001,,,,,,,,,,,,0.6888,1,,,,,,,,,,,,,,z,1,0.6888,,,,,,,,-0.023843859,-0.467492472,0,0,0,,0,108,108,89,1,DRIEK,LB,old,z,./images/DRIEKLB.png,,,,,,,,,,,,,,,,,,,,,
,,,,,,,,,,,,,,,,,200098,19,2022-01-28_16h27.13.996,lexical_decision_task_DD_L2,2021.2.3,MacIntel,60.0024001,,,,,,,,,,,,0.7527,1,,,,,,,,,,,,,,m,1,0.7527,,,,,,,,-0.023843859,-0.467492472,0,0,0,,0,109,109,57,1,MOOSE,HB,old,m,./images/MOOSEHB.png,,,,,,,,,,,,,,,,,,,,,
,,,,,,,,,,,,,,,,,200098,19,2022-01-28_16h27.13.996,lexical_decision_task_DD_L2,2021.2.3,MacIntel,60.0024001,,,,,,,,,,,,1.4353,1,,,,,,,,,,,,,,z,1,1.4353,,,,,,,,-0.023843859,-0.467492472,0,0,0,,0,110,110,130,1,CRILL,HB,old,z,./images/CRILLHB.png,,,,,,,,,,,,,,,,,,,,,
,,,,,,,,,,,,,,,,,200098,19,2022-01-28_16h27.13.996,lexical_decision_task_DD_L2,2021.2.3,MacIntel,60.0024001,,,,,,,,,,,,0.6567,1,,,,,,,,,,,,,,m,1,0.6567,,,,,,,,-0.023843859,-0.467492472,0,0,0,,0,111,111,49,1,DRUMS,LB,old,m,./images/DRUMSLB.png,,,,,,,,,,,,,,,,,,,,,
,,,,,,,,,,,,,,,,,200098,19,2022-01-28_16h27.13.996,lexical_decision_task_DD_L2,2021.2.3,MacIntel,60.0024001,,,,,,,,,,,,0.6843,1,,,,,,,,,,,,,,z,1,0.6843,,,,,,,,-0.023843859,-0.467492472,0,0,0,,0,112,112,153,1,CLUPS,C,old,z,./images/CLUPS.png,,,,,,,,,,,,,,,,,,,,,
,,,,,,,,,,,,,,,,,200098,19,2022-01-28_16h27.13.996,lexical_decision_task_DD_L2,2021.2.3,MacIntel,60.0024001,,,,,,,,,,,,0.7534,1,,,,,,,,,,,,,,z,1,0.7534,,,,,,,,-0.023843859,-0.467492472,0,0,0,,0,113,113,167,1,ZONET,LB,old,z,./images/ZONETLB.png,,,,,,,,,,,,,,,,,,,,,
,,,,,,,,,,,,,,,,,200098,19,2022-01-28_16h27.13.996,lexical_decision_task_DD_L2,2021.2.3,MacIntel,60.0024001,,,,,,,,,,,,0.6248,1,,,,,,,,,,,,,,z,1,0.6248,,,,,,,,-0.023843859,-0.467492472,0,0,0,,0,114,114,87,1,TRING,C,old,z,./images/TRING.png,,,,,,,,,,,,,,,,,,,,,
,,,,,,,,,,,,,,,,,200098,19,2022-01-28_16h27.13.996,lexical_decision_task_DD_L2,2021.2.3,MacIntel,60.0024001,,,,,,,,,,,,0.5969,1,,,,,,,,,,,,,,m,1,0.5969,,,,,,,,-0.023843859,-0.467492472,0,0,0,,0,115,115,2,1,BEARD,C,old,m,./images/BEARD.png,,,,,,,,,,,,,,,,,,,,,
,,,,,,,,,,,,,,,,,200098,19,2022-01-28_16h27.13.996,lexical_decision_task_DD_L2,2021.2.3,MacIntel,60.0024001,,,,,,,,,,,,0.6635,1,,,,,,,,,,,,,,m,1,0.6635,,,,,,,,-0.023843859,-0.467492472,0,0,0,,0,116,116,55,1,MUFFIN,LB,old,m,./images/MUFFINLB.png,,,,,,,,,,,,,,,,,,,,,
,,,,,,,,,,,,,,,,,200098,19,2022-01-28_16h27.13.996,lexical_decision_task_DD_L2,2021.2.3,MacIntel,60.0024001,,,,,,,,,,,,0.6271,1,,,,,,,,,,,,,,z,1,0.6271,,,,,,,,-0.023843859,-0.467492472,0,0,0,,0,117,117,156,1,HIXES,C,old,z,./images/HIXES.png,,,,,,,,,,,,,,,,,,,,,
,,,,,,,,,,,,,,,,,200098,19,2022-01-28_16h27.13.996,lexical_decision_task_DD_L2,2021.2.3,MacIntel,60.0024001,,,,,,,,,,,,0.6134,1,,,,,,,,,,,,,,m,1,0.6134,,,,,,,,-0.023843859,-0.467492472,0,0,0,,0,118,118,24,1,SCREW,HB,old,m,./images/SCREWHB.png,,,,,,,,,,,,,,,,,,,,,
,,,,,,,,,,,,,,,,,200098,19,2022-01-28_16h27.13.996,lexical_decision_task_DD_L2,2021.2.3,MacIntel,60.0024001,,,,,,,,,,,,1.343,0,,,,,,,,,,,,,,z,0,1.343,,,,,,,,-0.023843859,-0.467492472,0,0,0,,0,119,119,31,1,QUILL,LB,old,m,./images/QUILLLB.png,,,,,,,,,,,,,,,,,,,,,
,,,,,,,,,,,,,,,,,200098,19,2022-01-28_16h27.13.996,lexical_decision_task_DD_L2,2021.2.3,MacIntel,60.0024001,,,,,,,,,,,,0.622,1,,,,,,,,,,,,,,z,1,0.622,,,,,,,,-0.023843859,-0.467492472,0,0,0,,0,120,120,129,1,PRANS,C,old,z,./images/PRANS.png,,,,,,,,,,,,,,,,,,,,,
,,,,,,,,,,,,,,,,,200098,19,2022-01-28_16h27.13.996,lexical_decision_task_DD_L2,2021.2.3,MacIntel,60.0024001,,,,,,,,,,,,0.7873,1,,,,,,,,,,,,,,z,1,0.7873,,,,,,,,-0.023843859,-0.467492472,0,0,0,,0,121,121,93,1,SMONE,C,old,z,./images/SMONE.png,,,,,,,,,,,,,,,,,,,,,
,,,,,,,,,,,,,,,,,200098,19,2022-01-28_16h27.13.996,lexical_decision_task_DD_L2,2021.2.3,MacIntel,60.0024001,,,,,,,,,,,,1.2792,1,,,,,,,,,,,,,,z,1,1.2792,,,,,,,,-0.023843859,-0.467492472,0,0,0,,0,122,122,166,1,SHORY,HB,old,z,./images/SHORYHB.png,,,,,,,,,,,,,,,,,,,,,
,,,,,,,,,,,,,,,,,200098,19,2022-01-28_16h27.13.996,lexical_decision_task_DD_L2,2021.2.3,MacIntel,60.0024001,,,,,,,,,,,,0.5718,1,,,,,,,,,,,,,,m,1,0.5718,,,,,,,,-0.023843859,-0.467492472,0,0,0,,0,123,123,38,1,LADDER,C,old,m,./images/LADDER.png,,,,,,,,,,,,,,,,,,,,,
,,,,,,,,,,,,,,,,,200098,19,2022-01-28_16h27.13.996,lexical_decision_task_DD_L2,2021.2.3,MacIntel,60.0024001,,,,,,,,,,,,1.0794,1,,,,,,,,,,,,,,m,1,1.0794,,,,,,,,-0.023843859,-0.467492472,0,0,0,,0,124,124,73,1,SNACK,LB,old,m,./images/SNACKLB.png,,,,,,,,,,,,,,,,,,,,,
,,,,,,,,,,,,,,,,,200098,19,2022-01-28_16h27.13.996,lexical_decision_task_DD_L2,2021.2.3,MacIntel,60.0024001,,,,,,,,,,,,0.6574,1,,,,,,,,,,,,,,m,1,0.6574,,,,,,,,-0.023843859,-0.467492472,0,0,0,space,0,125,125,36,1,THROAT,HB,old,m,./images/THROATHB.png,19.0329,,,,,,,,,,,,,,,,,,,,
,,,,,,,,,,,,,,,,,200098,19,2022-01-28_16h27.13.996,lexical_decision_task_DD_L2,2021.2.3,MacIntel,60.0024001,,,,,,,,,,,,0.6893,1,,,,,,,,,,,,,,m,1,0.6893,,,,,,,,-0.023843859,-0.467492472,0,0,0,,0,126,126,52,1,BANNER,LB,old,m,./images/BANNERLB.png,,,,,,,,,,,,,,,,,,,,,
,,,,,,,,,,,,,,,,,200098,19,2022-01-28_16h27.13.996,lexical_decision_task_DD_L2,2021.2.3,MacIntel,60.0024001,,,,,,,,,,,,0.5716,1,,,,,,,,,,,,,,z,1,0.5716,,,,,,,,-0.023843859,-0.467492472,0,0,0,,0,127,127,105,1,MOKER,C,old,z,./images/MOKER.png,,,,,,,,,,,,,,,,,,,,,
,,,,,,,,,,,,,,,,,200098,19,2022-01-28_16h27.13.996,lexical_decision_task_DD_L2,2021.2.3,MacIntel,60.0024001,,,,,,,,,,,,1.1122,1,,,,,,,,,,,,,,z,1,1.1122,,,,,,,,-0.023843859,-0.467492472,0,0,0,,0,128,128,127,1,NINDY,HB,old,z,./images/NINDYHB.png,,,,,,,,,,,,,,,,,,,,,
,,,,,,,,,,,,,,,,,200098,19,2022-01-28_16h27.13.996,lexical_decision_task_DD_L2,2021.2.3,MacIntel,60.0024001,,,,,,,,,,,,0.8097,1,,,,,,,,,,,,,,m,1,0.8097,,,,,,,,-0.023843859,-0.467492472,0,0,0,,0,129,129,1,1,PLANK,LB,old,m,./images/PLANKLB.png,,,,,,,,,,,,,,,,,,,,,
,,,,,,,,,,,,,,,,,200098,19,2022-01-28_16h27.13.996,lexical_decision_task_DD_L2,2021.2.3,MacIntel,60.0024001,,,,,,,,,,,,0.7458,1,,,,,,,,,,,,,,m,1,0.7458,,,,,,,,-0.023843859,-0.467492472,0,0,0,,0,130,130,3,1,FINGER,HB,old,m,./images/FINGERHB.png,,,,,,,,,,,,,,,,,,,,,
,,,,,,,,,,,,,,,,,200098,19,2022-01-28_16h27.13.996,lexical_decision_task_DD_L2,2021.2.3,MacIntel,60.0024001,,,,,,,,,,,,0.9118,1,,,,,,,,,,,,,,z,1,0.9118,,,,,,,,-0.023843859,-0.467492472,0,0,0,,0,131,131,91,1,SHENS,HB,old,z,./images/SHENSHB.png,,,,,,,,,,,,,,,,,,,,,
,,,,,,,,,,,,,,,,,200098,19,2022-01-28_16h27.13.996,lexical_decision_task_DD_L2,2021.2.3,MacIntel,60.0024001,,,,,,,,,,,,0.7262,1,,,,,,,,,,,,,,z,1,0.7262,,,,,,,,-0.023843859,-0.467492472,0,0,0,,0,132,132,90,1,NEAST,C,old,z,./images/NEAST.png,,,,,,,,,,,,,,,,,,,,,
,,,,,,,,,,,,,,,,,200098,19,2022-01-28_16h27.13.996,lexical_decision_task_DD_L2,2021.2.3,MacIntel,60.0024001,,,,,,,,,,,,0.6981,1,,,,,,,,,,,,,,m,1,0.6981,,,,,,,,-0.023843859,-0.467492472,0,0,0,,0,133,133,18,1,JAGUAR,HB,old,m,./images/JAGUARHB.png,,,,,,,,,,,,,,,,,,,,,
,,,,,,,,,,,,,,,,,200098,19,2022-01-28_16h27.13.996,lexical_decision_task_DD_L2,2021.2.3,MacIntel,60.0024001,,,,,,,,,,,,0.7462,1,,,,,,,,,,,,,,z,1,0.7462,,,,,,,,-0.023843859,-0.467492472,0,0,0,,0,134,134,160,1,VEETS,HB,old,z,./images/VEETSHB.png,,,,,,,,,,,,,,,,,,,,,
,,,,,,,,,,,,,,,,,200098,19,2022-01-28_16h27.13.996,lexical_decision_task_DD_L2,2021.2.3,MacIntel,60.0024001,,,,,,,,,,,,0.666,1,,,,,,,,,,,,,,m,1,0.666,,,,,,,,-0.023843859,-0.467492472,0,0,0,,0,135,135,7,1,PAINT,LB,old,m,./images/PAINTLB.png,,,,,,,,,,,,,,,,,,,,,
,,,,,,,,,,,,,,,,,200098,19,2022-01-28_16h27.13.996,lexical_decision_task_DD_L2,2021.2.3,MacIntel,60.0024001,,,,,,,,,,,,0.7971,1,,,,,,,,,,,,,,m,1,0.7971,,,,,,,,-0.023843859,-0.467492472,0,0,0,,0,136,136,21,1,KIDNEY,HB,old,m,./images/KIDNEYHB.png,,,,,,,,,,,,,,,,,,,,,
,,,,,,,,,,,,,,,,,200098,19,2022-01-28_16h27.13.996,lexical_decision_task_DD_L2,2021.2.3,MacIntel,60.0024001,,,,,,,,,,,,0.7573,1,,,,,,,,,,,,,,z,1,0.7573,,,,,,,,-0.023843859,-0.467492472,0,0,0,,0,137,137,132,1,SCIFF,C,old,z,./images/SCIFF.png,,,,,,,,,,,,,,,,,,,,,
,,,,,,,,,,,,,,,,,200098,19,2022-01-28_16h27.13.996,lexical_decision_task_DD_L2,2021.2.3,MacIntel,60.0024001,,,,,,,,,,,,0.7205,1,,,,,,,,,,,,,,z,1,0.7205,,,,,,,,-0.023843859,-0.467492472,0,0,0,,0,138,138,98,1,BAMPS,LB,old,z,./images/BAMPSLB.png,,,,,,,,,,,,,,,,,,,,,
,,,,,,,,,,,,,,,,,200098,19,2022-01-28_16h27.13.996,lexical_decision_task_DD_L2,2021.2.3,MacIntel,60.0024001,,,,,,,,,,,,0.6052,1,,,,,,,,,,,,,,z,1,0.6052,,,,,,,,-0.023843859,-0.467492472,0,0,0,,0,139,139,111,1,HOSSE,C,old,z,./images/HOSSE.png,,,,,,,,,,,,,,,,,,,,,
,,,,,,,,,,,,,,,,,200098,19,2022-01-28_16h27.13.996,lexical_decision_task_DD_L2,2021.2.3,MacIntel,60.0024001,,,,,,,,,,,,0.7841,1,,,,,,,,,,,,,,z,1,0.7841,,,,,,,,-0.023843859,-0.467492472,0,0,0,,0,140,140,128,1,GRIFT,LB,old,z,./images/GRIFTLB.png,,,,,,,,,,,,,,,,,,,,,
,,,,,,,,,,,,,,,,,200098,19,2022-01-28_16h27.13.996,lexical_decision_task_DD_L2,2021.2.3,MacIntel,60.0024001,,,,,,,,,,,,1.3635,1,,,,,,,,,,,,,,m,1,1.3635,,,,,,,,-0.023843859,-0.467492472,0,0,0,,0,141,141,50,1,MALLET,C,old,m,./images/MALLET.png,,,,,,,,,,,,,,,,,,,,,
,,,,,,,,,,,,,,,,,200098,19,2022-01-28_16h27.13.996,lexical_decision_task_DD_L2,2021.2.3,MacIntel,60.0024001,,,,,,,,,,,,0.8589,1,,,,,,,,,,,,,,z,1,0.8589,,,,,,,,-0.023843859,-0.467492472,0,0,0,,0,142,142,94,1,BLANS,HB,old,z,./images/BLANSHB.png,,,,,,,,,,,,,,,,,,,,,
,,,,,,,,,,,,,,,,,200098,19,2022-01-28_16h27.13.996,lexical_decision_task_DD_L2,2021.2.3,MacIntel,60.0024001,,,,,,,,,,,,0.6412,1,,,,,,,,,,,,,,m,1,0.6412,,,,,,,,-0.023843859,-0.467492472,0,0,0,,0,143,143,45,1,KITTEN,HB,old,m,./images/KITTENHB.png,,,,,,,,,,,,,,,,,,,,,
,,,,,,,,,,,,,,,,,200098,19,2022-01-28_16h27.13.996,lexical_decision_task_DD_L2,2021.2.3,MacIntel,60.0024001,,,,,,,,,,,,0.6988,1,,,,,,,,,,,,,,z,1,0.6988,,,,,,,,-0.023843859,-0.467492472,0,0,0,,0,144,144,161,1,BLAPS,LB,old,z,./images/BLAPSLB.png,,,,,,,,,,,,,,,,,,,,,
,,,,,,,,,,,,,,,,,200098,19,2022-01-28_16h27.13.996,lexical_decision_task_DD_L2,2021.2.3,MacIntel,60.0024001,,,,,,,,,,,,0.5919,1,,,,,,,,,,,,,,z,1,0.5919,,,,,,,,-0.023843859,-0.467492472,0,0,0,,0,145,145,141,1,PLEET,C,old,z,./images/PLEET.png,,,,,,,,,,,,,,,,,,,,,
,,,,,,,,,,,,,,,,,200098,19,2022-01-28_16h27.13.996,lexical_decision_task_DD_L2,2021.2.3,MacIntel,60.0024001,,,,,,,,,,,,0.8806,0,,,,,,,,,,,,,,z,0,0.8806,,,,,,,,-0.023843859,-0.467492472,0,0,0,,0,146,146,54,1,TRIPOD,HB,old,m,./images/TRIPODHB.png,,,,,,,,,,,,,,,,,,,,,
,,,,,,,,,,,,,,,,,200098,19,2022-01-28_16h27.13.996,lexical_decision_task_DD_L2,2021.2.3,MacIntel,60.0024001,,,,,,,,,,,,0.7428,1,,,,,,,,,,,,,,m,1,0.7428,,,,,,,,-0.023843859,-0.467492472,0,0,0,,0,147,147,81,1,POODLE,HB,old,m,./images/POODLEHB.png,,,,,,,,,,,,,,,,,,,,,
,,,,,,,,,,,,,,,,,200098,19,2022-01-28_16h27.13.996,lexical_decision_task_DD_L2,2021.2.3,MacIntel,60.0024001,,,,,,,,,,,,0.6276,1,,,,,,,,,,,,,,m,1,0.6276,,,,,,,,-0.023843859,-0.467492472,0,0,0,,0,148,148,82,1,SUNSET,LB,old,m,./images/SUNSETLB.png,,,,,,,,,,,,,,,,,,,,,
,,,,,,,,,,,,,,,,,200098,19,2022-01-28_16h27.13.996,lexical_decision_task_DD_L2,2021.2.3,MacIntel,60.0024001,,,,,,,,,,,,0.8515,1,,,,,,,,,,,,,,m,1,0.8515,,,,,,,,-0.023843859,-0.467492472,0,0,0,,0,149,149,35,1,PEACH,C,old,m,./images/PEACH.png,,,,,,,,,,,,,,,,,,,,,
,,,,,,,,,,,,,,,,,200098,19,2022-01-28_16h27.13.996,lexical_decision_task_DD_L2,2021.2.3,MacIntel,60.0024001,,,,,,,,,,,,0.866,1,,,,,,,,,,,,,,z,1,0.866,,,,,,,,-0.023843859,-0.467492472,0,0,0,,0,150,150,152,1,FRAIN,LB,old,z,./images/FRAINLB.png,,,,,,,,,,,,,,,,,,,,,
,,,,,,,,,,,,,,,,,200098,19,2022-01-28_16h27.13.996,lexical_decision_task_DD_L2,2021.2.3,MacIntel,60.0024001,,,,,,,,,,,,0.761,1,,,,,,,,,,,,,,m,1,0.761,,,,,,,,-0.023843859,-0.467492472,0,0,0,,0,151,151,13,1,MOTOR,LB,old,m,./images/MOTORLB.png,,,,,,,,,,,,,,,,,,,,,
,,,,,,,,,,,,,,,,,200098,19,2022-01-28_16h27.13.996,lexical_decision_task_DD_L2,2021.2.3,MacIntel,60.0024001,,,,,,,,,,,,0.7356,1,,,,,,,,,,,,,,m,1,0.7356,,,,,,,,-0.023843859,-0.467492472,0,0,0,,0,152,152,65,1,FARMER,C,old,m,./images/FARMER.png,,,,,,,,,,,,,,,,,,,,,
,,,,,,,,,,,,,,,,,200098,19,2022-01-28_16h27.13.996,lexical_decision_task_DD_L2,2021.2.3,MacIntel,60.0024001,,,,,,,,,,,,0.6083,1,,,,,,,,,,,,,,m,1,0.6083,,,,,,,,-0.023843859,-0.467492472,0,0,0,,0,153,153,30,1,STORM,HB,old,m,./images/STORMHB.png,,,,,,,,,,,,,,,,,,,,,
,,,,,,,,,,,,,,,,,200098,19,2022-01-28_16h27.13.996,lexical_decision_task_DD_L2,2021.2.3,MacIntel,60.0024001,,,,,,,,,,,,0.7298,1,,,,,,,,,,,,,,z,1,0.7298,,,,,,,,-0.023843859,-0.467492472,0,0,0,,0,154,154,155,1,CANGY,LB,old,z,./images/CANGYLB.png,,,,,,,,,,,,,,,,,,,,,
,,,,,,,,,,,,,,,,,200098,19,2022-01-28_16h27.13.996,lexical_decision_task_DD_L2,2021.2.3,MacIntel,60.0024001,,,,,,,,,,,,0.6217,1,,,,,,,,,,,,,,m,1,0.6217,,,,,,,,-0.023843859,-0.467492472,0,0,0,,0,155,155,62,1,PURSE,C,old,m,./images/PURSE.png,,,,,,,,,,,,,,,,,,,,,
,,,,,,,,,,,,,,,,,200098,19,2022-01-28_16h27.13.996,lexical_decision_task_DD_L2,2021.2.3,MacIntel,60.0024001,,,,,,,,,,,,1.15,1,,,,,,,,,,,,,,z,1,1.15,,,,,,,,-0.023843859,-0.467492472,0,0,0,,0,156,156,151,1,TINKY,HB,old,z,./images/TINKYHB.png,,,,,,,,,,,,,,,,,,,,,
,,,,,,,,,,,,,,,,,200098,19,2022-01-28_16h27.13.996,lexical_decision_task_DD_L2,2021.2.3,MacIntel,60.0024001,,,,,,,,,,,,1.2494,1,,,,,,,,,,,,,,z,1,1.2494,,,,,,,,-0.023843859,-0.467492472,0,0,0,,0,157,157,88,1,GLUSH,HB,old,z,./images/GLUSHHB.png,,,,,,,,,,,,,,,,,,,,,
,,,,,,,,,,,,,,,,,200098,19,2022-01-28_16h27.13.996,lexical_decision_task_DD_L2,2021.2.3,MacIntel,60.0024001,,,,,,,,,,,,0.6855,1,,,,,,,,,,,,,,m,1,0.6855,,,,,,,,-0.023843859,-0.467492472,0,0,0,,0,158,158,74,1,CEMENT,C,old,m,./images/CEMENT.png,,,,,,,,,,,,,,,,,,,,,
,,,,,,,,,,,,,,,,,200098,19,2022-01-28_16h27.13.996,lexical_decision_task_DD_L2,2021.2.3,MacIntel,60.0024001,,,,,,,,,,,,1.3969,1,,,,,,,,,,,,,,z,1,1.3969,,,,,,,,-0.023843859,-0.467492472,0,0,0,,0,159,159,144,1,NAIRY,C,old,z,./images/NAIRY.png,,,,,,,,,,,,,,,,,,,,,
,,,,,,,,,,,,,,,,,200098,19,2022-01-28_16h27.13.996,lexical_decision_task_DD_L2,2021.2.3,MacIntel,60.0024001,,,,,,,,,,,,0.662,1,,,,,,,,,,,,,,m,1,0.662,,,,,,,,-0.023843859,-0.467492472,0,0,0,,0,160,160,42,1,FOLDER,HB,old,m,./images/FOLDERHB.png,,,,,,,,,,,,,,,,,,,,,
,,,,,,,,,,,,,,,,,200098,19,2022-01-28_16h27.13.996,lexical_decision_task_DD_L2,2021.2.3,MacIntel,60.0024001,,,,,,,,,,,,0.6718,1,,,,,,,,,,,,,,m,1,0.6718,,,,,,,,-0.023843859,-0.467492472,0,0,0,,0,161,161,40,1,SWING,LB,old,m,./images/SWINGLB.png,,,,,,,,,,,,,,,,,,,,,
,,,,,,,,,,,,,,,,,200098,19,2022-01-28_16h27.13.996,lexical_decision_task_DD_L2,2021.2.3,MacIntel,60.0024001,,,,,,,,,,,,0.7453,1,,,,,,,,,,,,,,m,1,0.7453,,,,,,,,-0.023843859,-0.467492472,0,0,0,,0,162,162,78,1,LITTER,HB,old,m,./images/LITTERHB.png,,,,,,,,,,,,,,,,,,,,,
,,,,,,,,,,,,,,,,,200098,19,2022-01-28_16h27.13.996,lexical_decision_task_DD_L2,2021.2.3,MacIntel,60.0024001,,,,,,,,,,,,0.6372,1,,,,,,,,,,,,,,z,1,0.6372,,,,,,,,-0.023843859,-0.467492472,0,0,0,,0,163,163,119,1,PAFER,LB,old,z,./images/PAFERLB.png,,,,,,,,,,,,,,,,,,,,,
,,,,,,,,,,,,,,,,,200098,19,2022-01-28_16h27.13.996,lexical_decision_task_DD_L2,2021.2.3,MacIntel,60.0024001,,,,,,,,,,,,1.0218,1,,,,,,,,,,,,,,z,1,1.0218,,,,,,,,-0.023843859,-0.467492472,0,0,0,,0,164,164,103,1,FLORT,HB,old,z,./images/FLORTHB.png,,,,,,,,,,,,,,,,,,,,,
,,,,,,,,,,,,,,,,,200098,19,2022-01-28_16h27.13.996,lexical_decision_task_DD_L2,2021.2.3,MacIntel,60.0024001,,,,,,,,,,,,0.9994,1,,,,,,,,,,,,,,z,1,0.9994,,,,,,,,-0.023843859,-0.467492472,0,0,0,,0,165,165,124,1,TUNCH,HB,old,z,./images/TUNCHHB.png,,,,,,,,,,,,,,,,,,,,,
,,,,,,,,,,,,,,,,,200098,19,2022-01-28_16h27.13.996,lexical_decision_task_DD_L2,2021.2.3,MacIntel,60.0024001,,,,,,,,,,,,1.3091,1,,,,,,,,,,,,,,z,1,1.3091,,,,,,,,-0.023843859,-0.467492472,0,0,0,,0,166,166,109,1,BURGE,HB,old,z,./images/BURGEHB.png,,,,,,,,,,,,,,,,,,,,,
,,,,,,,,,,,,,,,,,200098,19,2022-01-28_16h27.13.996,lexical_decision_task_DD_L2,2021.2.3,MacIntel,60.0024001,,,,,,,,,,,,0.7824,1,,,,,,,,,,,,,,z,1,0.7824,,,,,,,,-0.023843859,-0.467492472,0,0,0,,0,167,167,114,1,RIKES,C,old,z,./images/RIKES.png,,,,,,,,,,,,,,,,,,,,,
space,16.3473,-0.023843859,-0.467492472,0,0,0,,,,,,1,test,"In the next phase you will be presented with the words from the the first phase. Your job is to decide whether you remember seeing the word or not. If you remember seeing the word press ""old"" or type ""m"". If you do not remember seeing the word press ""new"" or type ""z"". Please press the space bar or click on continue to begin. ",,,200098,19,2022-01-28_16h27.13.996,lexical_decision_task_DD_L2,2021.2.3,MacIntel,60.0024001,,,,,,,,,,,,,,,,,,,,,,,,,,,,,,,,,,,,,,,,,,,,,,,,,,,,,,0,0,0,0,1,,,,,,,,,,,,,,,
,,-0.010433757,-0.42974528,1,0,0,,,,,,1,test,"In the next phase you will be presented with the words from the the first phase. Your job is to decide whether you remember seeing the word or not. If you remember seeing the word press ""old"" or type ""m"". If you do not remember seeing the word press ""new"" or type ""z"". Please press the space bar or click on continue to begin. ",,,200098,19,2022-01-28_16h27.13.996,lexical_decision_task_DD_L2,2021.2.3,MacIntel,60.0024001,instr_done_button,,,,,,,,,,,,,,,,,,,,,,,,,,,,,,,,,,,,,,,,,,,,,,,,,,,,,1,0,1,0,1,,,,,,,,,,,,,,,
,,-0.02165507,-0.42076572,1,0,0,,,,,,1,test,"In the next phase you will be presented with the words from the the first phase. Your job is to decide whether you remember seeing the word or not. If you remember seeing the word press ""old"" or type ""m"". If you do not remember seeing the word press ""new"" or type ""z"". Please press the space bar or click on continue to begin. ",,,200098,19,2022-01-28_16h27.13.996,lexical_decision_task_DD_L2,2021.2.3,MacIntel,60.0024001,instr_done_button,,,,,,,,,,,,,,,,,,,,,,,,,,,,,,,,,,,,,,,,,,,,,,,,,,,,,2,0,2,0,1,,,,,,,,,,,,,,,
space,0.9781,-0.02165507,-0.42076572,0,0,0,,,,,,1,test,"In the next phase you will be presented with the words from the the first phase. Your job is to decide whether you remember seeing the word or not. If you remember seeing the word press ""old"" or type ""m"". If you do not remember seeing the word press ""new"" or type ""z"". Please press the space bar or click on continue to begin. ",,,200098,19,2022-01-28_16h27.13.996,lexical_decision_task_DD_L2,2021.2.3,MacIntel,60.0024001,,,,,,,,,,,,,,,,,,,,,,,,,,,,,,,,,,,,,,,,,,,,,,,,,,,,,,3,0,3,0,1,,,,,,,,,,,,,,,
space,1.1021,-0.02165507,-0.42076572,0,0,0,,,,,,1,test,"In the next phase you will be presented with the words from the the first phase. Your job is to decide whether you remember seeing the word or not. If you remember seeing the word press ""old"" or type ""m"". If you do not remember seeing the word press ""new"" or type ""z"". Please press the space bar or click on continue to begin. ",,,200098,19,2022-01-28_16h27.13.996,lexical_decision_task_DD_L2,2021.2.3,MacIntel,60.0024001,,,,,,,,,,,,,,,,,,,,,,,,,,,,,,,,,,,,,,,,,,,,,,,,,,,,,,4,0,4,0,1,,,,,,,,,,,,,,,
,,,,,,,,,,,,,,,,,200098,19,2022-01-28_16h27.13.996,lexical_decision_task_DD_L2,2021.2.3,MacIntel,60.0024001,,,,,,,,,,,,1.3569,1,,,,,,,,,,,,,,,,,,,,,,,,-0.02165507,-0.42076572,0,0,0,,,,,,,THROAT,HB,m,y,./images/THROATHB.png,,,,,,,m,1,1.3569,,,,,,,,0,0,0,36,1
,,,,,,,,,,,,,,,,,200098,19,2022-01-28_16h27.13.996,lexical_decision_task_DD_L2,2021.2.3,MacIntel,60.0024001,,,,,,,,,,,,0.7882,1,,,,,,,,,,,,,,,,,,,,,,,,-0.02165507,-0.42076572,0,0,0,,,,,,,PIMPLE,C,m,y,./images/PIMPLE.png,,,,,,,m,1,0.7882,,,,,,,,0,1,1,71,1
,,,,,,,,,,,,,,,,,200098,19,2022-01-28_16h27.13.996,lexical_decision_task_DD_L2,2021.2.3,MacIntel,60.0024001,,,,,,,,,,,,1.4252,1,,,,,,,,,,,,,,,,,,,,,,,,-0.02165507,-0.42076572,0,0,0,,,,,,,POSTER,C,z,y,./images/POSTER.png,,,,,,,z,1,1.4252,,,,,,,,0,2,2,137,1
,,,,,,,,,,,,,,,,,200098,19,2022-01-28_16h27.13.996,lexical_decision_task_DD_L2,2021.2.3,MacIntel,60.0024001,,,,,,,,,,,,1.2711,1,,,,,,,,,,,,,,,,,,,,,,,,-0.02165507,-0.42076572,0,0,0,,,,,,,ATTIC,HB,m,y,./images/ATTICHB.png,,,,,,,m,1,1.2711,,,,,,,,0,3,3,27,1
,,,,,,,,,,,,,,,,,200098,19,2022-01-28_16h27.13.996,lexical_decision_task_DD_L2,2021.2.3,MacIntel,60.0024001,,,,,,,,,,,,0.6093,1,,,,,,,,,,,,,,,,,,,,,,,,-0.02165507,-0.42076572,0,0,0,,,,,,,MIRROR,HB,m,y,./images/MIRRORHB.png,,,,,,,m,1,0.6093,,,,,,,,0,4,4,63,1
,,,,,,,,,,,,,,,,,200098,19,2022-01-28_16h27.13.996,lexical_decision_task_DD_L2,2021.2.3,MacIntel,60.0024001,,,,,,,,,,,,1.2787,1,,,,,,,,,,,,,,,,,,,,,,,,-0.02165507,-0.42076572,0,0,0,,,,,,,NOOSE,HB,m,y,./images/NOOSEHB.png,,,,,,,m,1,1.2787,,,,,,,,0,5,5,72,1
,,,,,,,,,,,,,,,,,200098,19,2022-01-28_16h27.13.996,lexical_decision_task_DD_L2,2021.2.3,MacIntel,60.0024001,,,,,,,,,,,,0.6832,1,,,,,,,,,,,,,,,,,,,,,,,,-0.02165507,-0.42076572,0,0,0,,,,,,,SHORE,HB,m,y,./images/SHOREHB.png,,,,,,,m,1,0.6832,,,,,,,,0,6,6,12,1
,,,,,,,,,,,,,,,,,200098,19,2022-01-28_16h27.13.996,lexical_decision_task_DD_L2,2021.2.3,MacIntel,60.0024001,,,,,,,,,,,,1.1595,1,,,,,,,,,,,,,,,,,,,,,,,,-0.02165507,-0.42076572,0,0,0,,,,,,,BUBBLE,C,z,y,./images/BUBBLE.png,,,,,,,z,1,1.1595,,,,,,,,0,7,7,155,1
,,,,,,,,,,,,,,,,,200098,19,2022-01-28_16h27.13.996,lexical_decision_task_DD_L2,2021.2.3,MacIntel,60.0024001,,,,,,,,,,,,0.8817,1,,,,,,,,,,,,,,,,,,,,,,,,-0.02165507,-0.42076572,0,0,0,,,,,,,BANANA,LB,z,y,./images/BANANALB.png,,,,,,,z,1,0.8817,,,,,,,,0,8,8,154,1
,,,,,,,,,,,,,,,,,200098,19,2022-01-28_16h27.13.996,lexical_decision_task_DD_L2,2021.2.3,MacIntel,60.0024001,,,,,,,,,,,,1.0836,1,,,,,,,,,,,,,,,,,,,,,,,,-0.02165507,-0.42076572,0,0,0,,,,,,,PILOT,C,z,y,./images/PILOT.png,,,,,,,z,1,1.0836,,,,,,,,0,9,9,134,1
,,,,,,,,,,,,,,,,,200098,19,2022-01-28_16h27.13.996,lexical_decision_task_DD_L2,2021.2.3,MacIntel,60.0024001,,,,,,,,,,,,1.2716,1,,,,,,,,,,,,,,,,,,,,,,,,-0.02165507,-0.42076572,0,0,0,,,,,,,HAMMER,HB,z,y,./images/HAMMERHB.png,,,,,,,z,1,1.2716,,,,,,,,0,10,10,159,1
,,,,,,,,,,,,,,,,,200098,19,2022-01-28_16h27.13.996,lexical_decision_task_DD_L2,2021.2.3,MacIntel,60.0024001,,,,,,,,,,,,1.199,1,,,,,,,,,,,,,,,,,,,,,,,,-0.02165507,-0.42076572,0,0,0,,,,,,,GRAIN,HB,m,y,./images/GRAINHB.png,,,,,,,m,1,1.199,,,,,,,,0,11,11,75,1
,,,,,,,,,,,,,,,,,200098,19,2022-01-28_16h27.13.996,lexical_decision_task_DD_L2,2021.2.3,MacIntel,60.0024001,,,,,,,,,,,,0.7458,1,,,,,,,,,,,,,,,,,,,,,,,,-0.02165507,-0.42076572,0,0,0,,,,,,,BISHOP,LB,z,y,./images/BISHOPLB.png,,,,,,,z,1,0.7458,,,,,,,,0,12,12,133,1
,,,,,,,,,,,,,,,,,200098,19,2022-01-28_16h27.13.996,lexical_decision_task_DD_L2,2021.2.3,MacIntel,60.0024001,,,,,,,,,,,,1.4363,0,,,,,,,,,,,,,,,,,,,,,,,,-0.02165507,-0.42076572,0,0,0,,,,,,,MOOSE,HB,m,y,./images/MOOSEHB.png,,,,,,,z,0,1.4363,,,,,,,,0,13,13,57,1
,,,,,,,,,,,,,,,,,200098,19,2022-01-28_16h27.13.996,lexical_decision_task_DD_L2,2021.2.3,MacIntel,60.0024001,,,,,,,,,,,,1.1199,1,,,,,,,,,,,,,,,,,,,,,,,,-0.02165507,-0.42076572,0,0,0,,,,,,,MIDGET,LB,z,y,./images/MIDGETLB.png,,,,,,,z,1,1.1199,,,,,,,,0,14,14,160,1
,,,,,,,,,,,,,,,,,200098,19,2022-01-28_16h27.13.996,lexical_decision_task_DD_L2,2021.2.3,MacIntel,60.0024001,,,,,,,,,,,,0.9224,1,,,,,,,,,,,,,,,,,,,,,,,,-0.02165507,-0.42076572,0,0,0,,,,,,,SQUARE,HB,m,y,./images/SQUAREHB.png,,,,,,,m,1,0.9224,,,,,,,,0,15,15,6,1
,,,,,,,,,,,,,,,,,200098,19,2022-01-28_16h27.13.996,lexical_decision_task_DD_L2,2021.2.3,MacIntel,60.0024001,,,,,,,,,,,,0.8242,1,,,,,,,,,,,,,,,,,,,,,,,,-0.02165507,-0.42076572,0,0,0,,,,,,,TOWEL,LB,z,y,./images/TOWELLB.png,,,,,,,z,1,0.8242,,,,,,,,0,16,16,85,1
,,,,,,,,,,,,,,,,,200098,19,2022-01-28_16h27.13.996,lexical_decision_task_DD_L2,2021.2.3,MacIntel,60.0024001,,,,,,,,,,,,0.8315,1,,,,,,,,,,,,,,,,,,,,,,,,-0.02165507,-0.42076572,0,0,0,,,,,,,ARROW,HB,z,y,./images/ARROWHB.png,,,,,,,z,1,0.8315,,,,,,,,0,17,17,153,1
,,,,,,,,,,,,,,,,,200098,19,2022-01-28_16h27.13.996,lexical_decision_task_DD_L2,2021.2.3,MacIntel,60.0024001,,,,,,,,,,,,1.0496,1,,,,,,,,,,,,,,,,,,,,,,,,-0.02165507,-0.42076572,0,0,0,,,,,,,SKIING,C,m,y,./images/SKIING.png,,,,,,,m,1,1.0496,,,,,,,,0,18,18,17,1
,,,,,,,,,,,,,,,,,200098,19,2022-01-28_16h27.13.996,lexical_decision_task_DD_L2,2021.2.3,MacIntel,60.0024001,,,,,,,,,,,,1.1036,1,,,,,,,,,,,,,,,,,,,,,,,,-0.02165507,-0.42076572,0,0,0,,,,,,,WHEEL,C,z,y,./images/WHEEL.png,,,,,,,z,1,1.1036,,,,,,,,0,19,19,161,1
,,,,,,,,,,,,,,,,,200098,19,2022-01-28_16h27.13.996,lexical_decision_task_DD_L2,2021.2.3,MacIntel,60.0024001,,,,,,,,,,,,1.5601,1,,,,,,,,,,,,,,,,,,,,,,,,-0.02165507,-0.42076572,0,0,0,,,,,,,DONKEY,LB,z,y,./images/DONKEYLB.png,,,,,,,z,1,1.5601,,,,,,,,0,20,20,103,1
,,,,,,,,,,,,,,,,,200098,19,2022-01-28_16h27.13.996,lexical_decision_task_DD_L2,2021.2.3,MacIntel,60.0024001,,,,,,,,,,,,1.035,1,,,,,,,,,,,,,,,,,,,,,,,,-0.02165507,-0.42076572,0,0,0,,,,,,,DIVER,HB,z,y,./images/DIVERHB.png,,,,,,,z,1,1.035,,,,,,,,0,21,21,93,1
,,,,,,,,,,,,,,,,,200098,19,2022-01-28_16h27.13.996,lexical_decision_task_DD_L2,2021.2.3,MacIntel,60.0024001,,,,,,,,,,,,1.6614,1,,,,,,,,,,,,,,,,,,,,,,,,-0.02165507,-0.42076572,0,0,0,,,,,,,PAINT,LB,m,y,./images/PAINTLB.png,,,,,,,m,1,1.6614,,,,,,,,0,22,22,7,1
,,,,,,,,,,,,,,,,,200098,19,2022-01-28_16h27.13.996,lexical_decision_task_DD_L2,2021.2.3,MacIntel,60.0024001,,,,,,,,,,,,1.0953,1,,,,,,,,,,,,,,,,,,,,,,,,-0.02165507,-0.42076572,0,0,0,,,,,,,BELLY,LB,m,y,./images/BELLYLB.png,,,,,,,m,1,1.0953,,,,,,,,0,23,23,10,1
,,,,,,,,,,,,,,,,,200098,19,2022-01-28_16h27.13.996,lexical_decision_task_DD_L2,2021.2.3,MacIntel,60.0024001,,,,,,,,,,,,1.4614,1,,,,,,,,,,,,,,,,,,,,,,,,-0.02165507,-0.42076572,0,0,0,,,,,,,TORCH,C,m,y,./images/TORCH.png,,,,,,,m,1,1.4614,,,,,,,,0,24,24,68,1
,,,,,,,,,,,,,,,,,200098,19,2022-01-28_16h27.13.996,lexical_decision_task_DD_L2,2021.2.3,MacIntel,60.0024001,,,,,,,,,,,,1.3488,0,,,,,,,,,,,,,,,,,,,,,,,,-0.02165507,-0.42076572,0,0,0,,,,,,,SWING,LB,m,y,./images/SWINGLB.png,,,,,,,z,0,1.3488,,,,,,,,0,25,25,40,1
,,,,,,,,,,,,,,,,,200098,19,2022-01-28_16h27.13.996,lexical_decision_task_DD_L2,2021.2.3,MacIntel,60.0024001,,,,,,,,,,,,1.0149,1,,,,,,,,,,,,,,,,,,,,,,,,-0.02165507,-0.42076572,0,0,0,,,,,,,WALRUS,C,m,y,./images/WALRUS.png,,,,,,,m,1,1.0149,,,,,,,,0,26,26,23,1
,,,,,,,,,,,,,,,,,200098,19,2022-01-28_16h27.13.996,lexical_decision_task_DD_L2,2021.2.3,MacIntel,60.0024001,,,,,,,,,,,,0.7873,1,,,,,,,,,,,,,,,,,,,,,,,,-0.02165507,-0.42076572,0,0,0,,,,,,,SPORT,HB,m,y,./images/SPORTHB.png,,,,,,,m,1,0.7873,,,,,,,,0,27,27,48,1
,,,,,,,,,,,,,,,,,200098,19,2022-01-28_16h27.13.996,lexical_decision_task_DD_L2,2021.2.3,MacIntel,60.0024001,,,,,,,,,,,,0.6644,1,,,,,,,,,,,,,,,,,,,,,,,,-0.02165507,-0.42076572,0,0,0,,,,,,,TWINS,HB,m,y,./images/TWINSHB.png,,,,,,,m,1,0.6644,,,,,,,,0,28,28,60,1
,,,,,,,,,,,,,,,,,200098,19,2022-01-28_16h27.13.996,lexical_decision_task_DD_L2,2021.2.3,MacIntel,60.0024001,,,,,,,,,,,,0.6859,0,,,,,,,,,,,,,,,,,,,,,,,,-0.02165507,-0.42076572,0,0,0,,,,,,,BUNNY,LB,z,y,./images/BUNNYLB.png,,,,,,,m,0,0.6859,,,,,,,,0,29,29,97,1
,,,,,,,,,,,,,,,,,200098,19,2022-01-28_16h27.13.996,lexical_decision_task_DD_L2,2021.2.3,MacIntel,60.0024001,,,,,,,,,,,,1.0158,0,,,,,,,,,,,,,,,,,,,,,,,,-0.02165507,-0.42076572,0,0,0,,,,,,,POKER,LB,z,y,./images/POKERLB.png,,,,,,,m,0,1.0158,,,,,,,,0,30,30,151,1
,,,,,,,,,,,,,,,,,200098,19,2022-01-28_16h27.13.996,lexical_decision_task_DD_L2,2021.2.3,MacIntel,60.0024001,,,,,,,,,,,,0.6674,1,,,,,,,,,,,,,,,,,,,,,,,,-0.02165507,-0.42076572,0,0,0,,,,,,,RULER,LB,z,y,./images/RULERLB.png,,,,,,,z,1,0.6674,,,,,,,,0,31,31,163,1
,,,,,,,,,,,,,,,,,200098,19,2022-01-28_16h27.13.996,lexical_decision_task_DD_L2,2021.2.3,MacIntel,60.0024001,,,,,,,,,,,,1.4188,1,,,,,,,,,,,,,,,,,,,,,,,,-0.02165507,-0.42076572,0,0,0,,,,,,,BRIDE,LB,z,y,./images/BRIDELB.png,,,,,,,z,1,1.4188,,,,,,,,0,32,32,148,1
,,,,,,,,,,,,,,,,,200098,19,2022-01-28_16h27.13.996,lexical_decision_task_DD_L2,2021.2.3,MacIntel,60.0024001,,,,,,,,,,,,2.9003,0,,,,,,,,,,,,,,,,,,,,,,,,-0.02165507,-0.42076572,0,0,0,,,,,,,PARADE,C,z,y,./images/PARADE.png,,,,,,,m,0,2.9003,,,,,,,,0,33,33,101,1
,,,,,,,,,,,,,,,,,200098,19,2022-01-28_16h27.13.996,lexical_decision_task_DD_L2,2021.2.3,MacIntel,60.0024001,,,,,,,,,,,,3.1834,1,,,,,,,,,,,,,,,,,,,,,,,,-0.02165507,-0.42076572,0,0,0,,,,,,,CRUST,LB,m,y,./images/CRUSTLB.png,,,,,,,m,1,3.1834,,,,,,,,0,34,34,79,1
,,,,,,,,,,,,,,,,,200098,19,2022-01-28_16h27.13.996,lexical_decision_task_DD_L2,2021.2.3,MacIntel,60.0024001,,,,,,,,,,,,0.7643,1,,,,,,,,,,,,,,,,,,,,,,,,-0.02165507,-0.42076572,0,0,0,,,,,,,PURSE,C,m,y,./images/PURSE.png,,,,,,,m,1,0.7643,,,,,,,,0,35,35,62,1
,,,,,,,,,,,,,,,,,200098,19,2022-01-28_16h27.13.996,lexical_decision_task_DD_L2,2021.2.3,MacIntel,60.0024001,,,,,,,,,,,,1.031,1,,,,,,,,,,,,,,,,,,,,,,,,-0.02165507,-0.42076572,0,0,0,,,,,,,ARTIST,LB,z,y,./images/ARTISTLB.png,,,,,,,z,1,1.031,,,,,,,,0,36,36,145,1
,,,,,,,,,,,,,,,,,200098,19,2022-01-28_16h27.13.996,lexical_decision_task_DD_L2,2021.2.3,MacIntel,60.0024001,,,,,,,,,,,,1.0651,1,,,,,,,,,,,,,,,,,,,,,,,,-0.02165507,-0.42076572,0,0,0,,,,,,,MUMMY,LB,z,y,./images/MUMMYLB.png,,,,,,,z,1,1.0651,,,,,,,,0,37,37,130,1
,,,,,,,,,,,,,,,,,200098,19,2022-01-28_16h27.13.996,lexical_decision_task_DD_L2,2021.2.3,MacIntel,60.0024001,,,,,,,,,,,,0.9521,0,,,,,,,,,,,,,,,,,,,,,,,,-0.02165507,-0.42076572,0,0,0,,,,,,,KIDNEY,HB,m,y,./images/KIDNEYHB.png,,,,,,,z,0,0.9521,,,,,,,,0,38,38,21,1
,,,,,,,,,,,,,,,,,200098,19,2022-01-28_16h27.13.996,lexical_decision_task_DD_L2,2021.2.3,MacIntel,60.0024001,,,,,,,,,,,,0.6672,1,,,,,,,,,,,,,,,,,,,,,,,,-0.02165507,-0.42076572,0,0,0,,,,,,,RAZOR,LB,z,y,./images/RAZORLB.png,,,,,,,z,1,0.6672,,,,,,,,0,39,39,118,1
,,,,,,,,,,,,,,,,,200098,19,2022-01-28_16h27.13.996,lexical_decision_task_DD_L2,2021.2.3,MacIntel,60.0024001,,,,,,,,,,,,1.0423,0,,,,,,,,,,,,,,,,,,,,,,,,-0.02165507,-0.42076572,0,0,0,,,,,,,CLOWN,LB,z,y,./images/CLOWNLB.png,,,,,,,m,0,1.0423,,,,,,,,0,40,40,106,1
,,,,,,,,,,,,,,,,,200098,19,2022-01-28_16h27.13.996,lexical_decision_task_DD_L2,2021.2.3,MacIntel,60.0024001,,,,,,,,,,,,0.9194,0,,,,,,,,,,,,,,,,,,,,,,,,-0.02165507,-0.42076572,0,0,0,space,,,,,,BERRY,C,m,y,./images/BERRY.png,1.1805,,,,,,z,0,0.9194,,,,,,,,0,41,41,47,1
,,,,,,,,,,,,,,,,,200098,19,2022-01-28_16h27.13.996,lexical_decision_task_DD_L2,2021.2.3,MacIntel,60.0024001,,,,,,,,,,,,0.7946,1,,,,,,,,,,,,,,,,,,,,,,,,-0.02165507,-0.42076572,0,0,0,,,,,,,TOMATO,HB,m,y,./images/TOMATOHB.png,,,,,,,m,1,0.7946,,,,,,,,0,42,42,0,1
,,,,,,,,,,,,,,,,,200098,19,2022-01-28_16h27.13.996,lexical_decision_task_DD_L2,2021.2.3,MacIntel,60.0024001,,,,,,,,,,,,0.7349,0,,,,,,,,,,,,,,,,,,,,,,,,-0.02165507,-0.42076572,0,0,0,,,,,,,GARDEN,LB,z,y,./images/GARDENLB.png,,,,,,,m,0,0.7349,,,,,,,,0,43,43,94,1
,,,,,,,,,,,,,,,,,200098,19,2022-01-28_16h27.13.996,lexical_decision_task_DD_L2,2021.2.3,MacIntel,60.0024001,,,,,,,,,,,,0.8184,1,,,,,,,,,,,,,,,,,,,,,,,,-0.02165507,-0.42076572,0,0,0,,,,,,,SHELF,HB,m,y,./images/SHELFHB.png,,,,,,,m,1,0.8184,,,,,,,,0,44,44,39,1
,,,,,,,,,,,,,,,,,200098,19,2022-01-28_16h27.13.996,lexical_decision_task_DD_L2,2021.2.3,MacIntel,60.0024001,,,,,,,,,,,,0.7683,1,,,,,,,,,,,,,,,,,,,,,,,,-0.02165507,-0.42076572,0,0,0,,,,,,,DANCER,HB,z,y,./images/DANCERHB.png,,,,,,,z,1,0.7683,,,,,,,,0,45,45,105,1
,,,,,,,,,,,,,,,,,200098,19,2022-01-28_16h27.13.996,lexical_decision_task_DD_L2,2021.2.3,MacIntel,60.0024001,,,,,,,,,,,,0.7173,1,,,,,,,,,,,,,,,,,,,,,,,,-0.02165507,-0.42076572,0,0,0,,,,,,,LLAMA,C,z,y,./images/LLAMA.png,,,,,,,z,1,0.7173,,,,,,,,0,46,46,119,1
,,,,,,,,,,,,,,,,,200098,19,2022-01-28_16h27.13.996,lexical_decision_task_DD_L2,2021.2.3,MacIntel,60.0024001,,,,,,,,,,,,0.8235,0,,,,,,,,,,,,,,,,,,,,,,,,-0.02165507,-0.42076572,0,0,0,,,,,,,SHIELD,HB,z,y,./images/SHIELDHB.png,,,,,,,m,0,0.8235,,,,,,,,0,47,47,132,1
,,,,,,,,,,,,,,,,,200098,19,2022-01-28_16h27.13.996,lexical_decision_task_DD_L2,2021.2.3,MacIntel,60.0024001,,,,,,,,,,,,0.7194,1,,,,,,,,,,,,,,,,,,,,,,,,-0.02165507,-0.42076572,0,0,0,,,,,,,STEAK,LB,z,y,./images/STEAKLB.png,,,,,,,z,1,0.7194,,,,,,,,0,48,48,115,1
,,,,,,,,,,,,,,,,,200098,19,2022-01-28_16h27.13.996,lexical_decision_task_DD_L2,2021.2.3,MacIntel,60.0024001,,,,,,,,,,,,1.4366,0,,,,,,,,,,,,,,,,,,,,,,,,-0.02165507,-0.42076572,0,0,0,,,,,,,FALCON,LB,m,y,./images/FALCONLB.png,,,,,,,z,0,1.4366,,,,,,,,0,49,49,28,1
,,,,,,,,,,,,,,,,,200098,19,2022-01-28_16h27.13.996,lexical_decision_task_DD_L2,2021.2.3,MacIntel,60.0024001,,,,,,,,,,,,1.635,1,,,,,,,,,,,,,,,,,,,,,,,,-0.02165507,-0.42076572,0,0,0,,,,,,,MOSQUE,LB,m,y,./images/MOSQUELB.png,,,,,,,m,1,1.635,,,,,,,,0,50,50,43,1
,,,,,,,,,,,,,,,,,200098,19,2022-01-28_16h27.13.996,lexical_decision_task_DD_L2,2021.2.3,MacIntel,60.0024001,,,,,,,,,,,,0.6847,1,,,,,,,,,,,,,,,,,,,,,,,,-0.02165507,-0.42076572,0,0,0,,,,,,,BARREL,C,m,y,./images/BARREL.png,,,,,,,m,1,0.6847,,,,,,,,0,51,51,32,1
,,,,,,,,,,,,,,,,,200098,19,2022-01-28_16h27.13.996,lexical_decision_task_DD_L2,2021.2.3,MacIntel,60.0024001,,,,,,,,,,,,0.7528,1,,,,,,,,,,,,,,,,,,,,,,,,-0.02165507,-0.42076572,0,0,0,,,,,,,CANDLE,LB,m,y,./images/CANDLELB.png,,,,,,,m,1,0.7528,,,,,,,,0,52,52,61,1
,,,,,,,,,,,,,,,,,200098,19,2022-01-28_16h27.13.996,lexical_decision_task_DD_L2,2021.2.3,MacIntel,60.0024001,,,,,,,,,,,,0.9881,0,,,,,,,,,,,,,,,,,,,,,,,,-0.02165507,-0.42076572,0,0,0,,,,,,,MAMMAL,C,z,y,./images/MAMMAL.png,,,,,,,m,0,0.9881,,,,,,,,0,53,53,146,1
,,,,,,,,,,,,,,,,,200098,19,2022-01-28_16h27.13.996,lexical_decision_task_DD_L2,2021.2.3,MacIntel,60.0024001,,,,,,,,,,,,0.7227,0,,,,,,,,,,,,,,,,,,,,,,,,-0.02165507,-0.42076572,0,0,0,,,,,,,BAMBOO,C,z,y,./images/BAMBOO.png,,,,,,,m,0,0.7227,,,,,,,,0,54,54,89,1
,,,,,,,,,,,,,,,,,200098,19,2022-01-28_16h27.13.996,lexical_decision_task_DD_L2,2021.2.3,MacIntel,60.0024001,,,,,,,,,,,,1.0381,1,,,,,,,,,,,,,,,,,,,,,,,,-0.02165507,-0.42076572,0,0,0,,,,,,,MONKEY,HB,z,y,./images/MONKEYHB.png,,,,,,,z,1,1.0381,,,,,,,,0,55,55,129,1
,,,,,,,,,,,,,,,,,200098,19,2022-01-28_16h27.13.996,lexical_decision_task_DD_L2,2021.2.3,MacIntel,60.0024001,,,,,,,,,,,,0.715,1,,,,,,,,,,,,,,,,,,,,,,,,-0.02165507,-0.42076572,0,0,0,,,,,,,ENGINE,C,z,y,./images/ENGINE.png,,,,,,,z,1,0.715,,,,,,,,0,56,56,122,1
,,,,,,,,,,,,,,,,,200098,19,2022-01-28_16h27.13.996,lexical_decision_task_DD_L2,2021.2.3,MacIntel,60.0024001,,,,,,,,,,,,0.8075,1,,,,,,,,,,,,,,,,,,,,,,,,-0.02165507,-0.42076572,0,0,0,,,,,,,JUNGLE,C,m,y,./images/JUNGLE.png,,,,,,,m,1,0.8075,,,,,,,,0,57,57,83,1
,,,,,,,,,,,,,,,,,200098,19,2022-01-28_16h27.13.996,lexical_decision_task_DD_L2,2021.2.3,MacIntel,60.0024001,,,,,,,,,,,,1.4371,1,,,,,,,,,,,,,,,,,,,,,,,,-0.02165507,-0.42076572,0,0,0,,,,,,,BOXER,LB,z,y,./images/BOXERLB.png,,,,,,,z,1,1.4371,,,,,,,,0,58,58,88,1
,,,,,,,,,,,,,,,,,200098,19,2022-01-28_16h27.13.996,lexical_decision_task_DD_L2,2021.2.3,MacIntel,60.0024001,,,,,,,,,,,,0.6199,1,,,,,,,,,,,,,,,,,,,,,,,,-0.02165507,-0.42076572,0,0,0,,,,,,,VALLEY,C,z,y,./images/VALLEY.png,,,,,,,z,1,0.6199,,,,,,,,0,59,59,152,1
,,,,,,,,,,,,,,,,,200098,19,2022-01-28_16h27.13.996,lexical_decision_task_DD_L2,2021.2.3,MacIntel,60.0024001,,,,,,,,,,,,0.9112,0,,,,,,,,,,,,,,,,,,,,,,,,-0.02165507,-0.42076572,0,0,0,,,,,,,MAGGOT,HB,m,y,./images/MAGGOTHB.png,,,,,,,z,0,0.9112,,,,,,,,0,60,60,33,1
,,,,,,,,,,,,,,,,,200098,19,2022-01-28_16h27.13.996,lexical_decision_task_DD_L2,2021.2.3,MacIntel,60.0024001,,,,,,,,,,,,0.9839,1,,,,,,,,,,,,,,,,,,,,,,,,-0.02165507,-0.42076572,0,0,0,,,,,,,MUSCLE,LB,m,y,./images/MUSCLELB.png,,,,,,,m,1,0.9839,,,,,,,,0,61,61,4,1
,,,,,,,,,,,,,,,,,200098,19,2022-01-28_16h27.13.996,lexical_decision_task_DD_L2,2021.2.3,MacIntel,60.0024001,,,,,,,,,,,,2.3024,1,,,,,,,,,,,,,,,,,,,,,,,,-0.02165507,-0.42076572,0,0,0,,,,,,,PLANET,C,z,y,./images/PLANET.png,,,,,,,z,1,2.3024,,,,,,,,0,62,62,164,1
,,,,,,,,,,,,,,,,,200098,19,2022-01-28_16h27.13.996,lexical_decision_task_DD_L2,2021.2.3,MacIntel,60.0024001,,,,,,,,,,,,0.6849,1,,,,,,,,,,,,,,,,,,,,,,,,-0.02165507,-0.42076572,0,0,0,,,,,,,BANNER,LB,m,y,./images/BANNERLB.png,,,,,,,m,1,0.6849,,,,,,,,0,63,63,52,1
,,,,,,,,,,,,,,,,,200098,19,2022-01-28_16h27.13.996,lexical_decision_task_DD_L2,2021.2.3,MacIntel,60.0024001,,,,,,,,,,,,0.7384,1,,,,,,,,,,,,,,,,,,,,,,,,-0.02165507,-0.42076572,0,0,0,,,,,,,PARCEL,HB,z,y,./images/PARCELHB.png,,,,,,,z,1,0.7384,,,,,,,,0,64,64,102,1
,,,,,,,,,,,,,,,,,200098,19,2022-01-28_16h27.13.996,lexical_decision_task_DD_L2,2021.2.3,MacIntel,60.0024001,,,,,,,,,,,,1.2573,1,,,,,,,,,,,,,,,,,,,,,,,,-0.02165507,-0.42076572,0,0,0,,,,,,,FENCE,C,z,y,./images/FENCE.png,,,,,,,z,1,1.2573,,,,,,,,0,65,65,98,1
,,,,,,,,,,,,,,,,,200098,19,2022-01-28_16h27.13.996,lexical_decision_task_DD_L2,2021.2.3,MacIntel,60.0024001,,,,,,,,,,,,0.8537,1,,,,,,,,,,,,,,,,,,,,,,,,-0.02165507,-0.42076572,0,0,0,,,,,,,CRATER,HB,z,y,./images/CRATERHB.png,,,,,,,z,1,0.8537,,,,,,,,0,66,66,87,1
,,,,,,,,,,,,,,,,,200098,19,2022-01-28_16h27.13.996,lexical_decision_task_DD_L2,2021.2.3,MacIntel,60.0024001,,,,,,,,,,,,0.7696,1,,,,,,,,,,,,,,,,,,,,,,,,-0.02165507,-0.42076572,0,0,0,,,,,,,STORM,HB,m,y,./images/STORMHB.png,,,,,,,m,1,0.7696,,,,,,,,0,67,67,30,1
,,,,,,,,,,,,,,,,,200098,19,2022-01-28_16h27.13.996,lexical_decision_task_DD_L2,2021.2.3,MacIntel,60.0024001,,,,,,,,,,,,1.7263,1,,,,,,,,,,,,,,,,,,,,,,,,-0.02165507,-0.42076572,0,0,0,,,,,,,STRING,C,m,y,./images/STRING.png,,,,,,,m,1,1.7263,,,,,,,,0,68,68,41,1
,,,,,,,,,,,,,,,,,200098,19,2022-01-28_16h27.13.996,lexical_decision_task_DD_L2,2021.2.3,MacIntel,60.0024001,,,,,,,,,,,,0.8498,1,,,,,,,,,,,,,,,,,,,,,,,,-0.02165507,-0.42076572,0,0,0,,,,,,,FLASK,HB,z,y,./images/FLASKHB.png,,,,,,,z,1,0.8498,,,,,,,,0,69,69,156,1
,,,,,,,,,,,,,,,,,200098,19,2022-01-28_16h27.13.996,lexical_decision_task_DD_L2,2021.2.3,MacIntel,60.0024001,,,,,,,,,,,,0.7993,1,,,,,,,,,,,,,,,,,,,,,,,,-0.02165507,-0.42076572,0,0,0,,,,,,,BURIAL,C,m,y,./images/BURIAL.png,,,,,,,m,1,0.7993,,,,,,,,0,70,70,59,1
,,,,,,,,,,,,,,,,,200098,19,2022-01-28_16h27.13.996,lexical_decision_task_DD_L2,2021.2.3,MacIntel,60.0024001,,,,,,,,,,,,0.8115,1,,,,,,,,,,,,,,,,,,,,,,,,-0.02165507,-0.42076572,0,0,0,,,,,,,STOOL,LB,z,y,./images/STOOLLB.png,,,,,,,z,1,0.8115,,,,,,,,0,71,71,127,1
,,,,,,,,,,,,,,,,,200098,19,2022-01-28_16h27.13.996,lexical_decision_task_DD_L2,2021.2.3,MacIntel,60.0024001,,,,,,,,,,,,0.731,1,,,,,,,,,,,,,,,,,,,,,,,,-0.02165507,-0.42076572,0,0,0,,,,,,,BEARD,C,m,y,./images/BEARD.png,,,,,,,m,1,0.731,,,,,,,,0,72,72,2,1
,,,,,,,,,,,,,,,,,200098,19,2022-01-28_16h27.13.996,lexical_decision_task_DD_L2,2021.2.3,MacIntel,60.0024001,,,,,,,,,,,,0.7239,1,,,,,,,,,,,,,,,,,,,,,,,,-0.02165507,-0.42076572,0,0,0,,,,,,,TULIP,C,m,y,./images/TULIP.png,,,,,,,m,1,0.7239,,,,,,,,0,73,73,8,1
,,,,,,,,,,,,,,,,,200098,19,2022-01-28_16h27.13.996,lexical_decision_task_DD_L2,2021.2.3,MacIntel,60.0024001,,,,,,,,,,,,0.7716,1,,,,,,,,,,,,,,,,,,,,,,,,-0.02165507,-0.42076572,0,0,0,,,,,,,BOILER,HB,z,y,./images/BOILERHB.png,,,,,,,z,1,0.7716,,,,,,,,0,74,74,120,1
,,,,,,,,,,,,,,,,,200098,19,2022-01-28_16h27.13.996,lexical_decision_task_DD_L2,2021.2.3,MacIntel,60.0024001,,,,,,,,,,,,1.0494,1,,,,,,,,,,,,,,,,,,,,,,,,-0.02165507,-0.42076572,0,0,0,,,,,,,LITTER,HB,m,y,./images/LITTERHB.png,,,,,,,m,1,1.0494,,,,,,,,0,75,75,78,1
,,,,,,,,,,,,,,,,,200098,19,2022-01-28_16h27.13.996,lexical_decision_task_DD_L2,2021.2.3,MacIntel,60.0024001,,,,,,,,,,,,1.2183,0,,,,,,,,,,,,,,,,,,,,,,,,-0.02165507,-0.42076572,0,0,0,,,,,,,FLESH,HB,z,y,./images/FLESHHB.png,,,,,,,m,0,1.2183,,,,,,,,0,76,76,108,1
,,,,,,,,,,,,,,,,,200098,19,2022-01-28_16h27.13.996,lexical_decision_task_DD_L2,2021.2.3,MacIntel,60.0024001,,,,,,,,,,,,0.7623,1,,,,,,,,,,,,,,,,,,,,,,,,-0.02165507,-0.42076572,0,0,0,,,,,,,COUCH,C,m,y,./images/COUCH.png,,,,,,,m,1,0.7623,,,,,,,,0,77,77,77,1
,,,,,,,,,,,,,,,,,200098,19,2022-01-28_16h27.13.996,lexical_decision_task_DD_L2,2021.2.3,MacIntel,60.0024001,,,,,,,,,,,,0.7487,1,,,,,,,,,,,,,,,,,,,,,,,,-0.02165507,-0.42076572,0,0,0,,,,,,,CANOE,LB,z,y,./images/CANOELB.png,,,,,,,z,1,0.7487,,,,,,,,0,78,78,142,1
,,,,,,,,,,,,,,,,,200098,19,2022-01-28_16h27.13.996,lexical_decision_task_DD_L2,2021.2.3,MacIntel,60.0024001,,,,,,,,,,,,0.8137,1,,,,,,,,,,,,,,,,,,,,,,,,-0.02165507,-0.42076572,0,0,0,,,,,,,HEATER,C,z,y,./images/HEATER.png,,,,,,,z,1,0.8137,,,,,,,,0,79,79,140,1
,,,,,,,,,,,,,,,,,200098,19,2022-01-28_16h27.13.996,lexical_decision_task_DD_L2,2021.2.3,MacIntel,60.0024001,,,,,,,,,,,,0.7221,1,,,,,,,,,,,,,,,,,,,,,,,,-0.02165507,-0.42076572,0,0,0,,,,,,,STOVE,C,z,y,./images/STOVE.png,,,,,,,z,1,0.7221,,,,,,,,0,80,80,86,1
,,,,,,,,,,,,,,,,,200098,19,2022-01-28_16h27.13.996,lexical_decision_task_DD_L2,2021.2.3,MacIntel,60.0024001,,,,,,,,,,,,0.9508,1,,,,,,,,,,,,,,,,,,,,,,,,-0.02165507,-0.42076572,0,0,0,,,,,,,CANDY,HB,z,y,./images/CANDYHB.png,,,,,,,z,1,0.9508,,,,,,,,0,81,81,123,1
,,,,,,,,,,,,,,,,,200098,19,2022-01-28_16h27.13.996,lexical_decision_task_DD_L2,2021.2.3,MacIntel,60.0024001,,,,,,,,,,,,0.6878,0,,,,,,,,,,,,,,,,,,,,,,,,-0.02165507,-0.42076572,0,0,0,,,,,,,DRILL,HB,z,y,./images/DRILLHB.png,,,,,,,m,0,0.6878,,,,,,,,0,82,82,165,1
,,,,,,,,,,,,,,,,,200098,19,2022-01-28_16h27.13.996,lexical_decision_task_DD_L2,2021.2.3,MacIntel,60.0024001,,,,,,,,,,,,1.0355,1,,,,,,,,,,,,,,,,,,,,,,,,-0.02165507,-0.42076572,0,0,0,space,,,,,,WEASEL,C,m,y,./images/WEASEL.png,1.1179,,,,,,m,1,1.0355,,,,,,,,0,83,83,80,1
,,,,,,,,,,,,,,,,,200098,19,2022-01-28_16h27.13.996,lexical_decision_task_DD_L2,2021.2.3,MacIntel,60.0024001,,,,,,,,,,,,0.741,1,,,,,,,,,,,,,,,,,,,,,,,,-0.02165507,-0.42076572,0,0,0,,,,,,,BONNET,C,m,y,./images/BONNET.png,,,,,,,m,1,0.741,,,,,,,,0,84,84,11,1
,,,,,,,,,,,,,,,,,200098,19,2022-01-28_16h27.13.996,lexical_decision_task_DD_L2,2021.2.3,MacIntel,60.0024001,,,,,,,,,,,,0.6041,1,,,,,,,,,,,,,,,,,,,,,,,,-0.02165507,-0.42076572,0,0,0,,,,,,,HOCKEY,C,z,y,./images/HOCKEY.png,,,,,,,z,1,0.6041,,,,,,,,0,85,85,116,1
,,,,,,,,,,,,,,,,,200098,19,2022-01-28_16h27.13.996,lexical_decision_task_DD_L2,2021.2.3,MacIntel,60.0024001,,,,,,,,,,,,0.7606,1,,,,,,,,,,,,,,,,,,,,,,,,-0.02165507,-0.42076572,0,0,0,,,,,,,CASINO,LB,z,y,./images/CASINOLB.png,,,,,,,z,1,0.7606,,,,,,,,0,86,86,112,1
,,,,,,,,,,,,,,,,,200098,19,2022-01-28_16h27.13.996,lexical_decision_task_DD_L2,2021.2.3,MacIntel,60.0024001,,,,,,,,,,,,0.7362,1,,,,,,,,,,,,,,,,,,,,,,,,-0.02165507,-0.42076572,0,0,0,,,,,,,ONION,HB,m,y,./images/ONIONHB.png,,,,,,,m,1,0.7362,,,,,,,,0,87,87,51,1
,,,,,,,,,,,,,,,,,200098,19,2022-01-28_16h27.13.996,lexical_decision_task_DD_L2,2021.2.3,MacIntel,60.0024001,,,,,,,,,,,,0.733,1,,,,,,,,,,,,,,,,,,,,,,,,-0.02165507,-0.42076572,0,0,0,,,,,,,CURRY,HB,z,y,./images/CURRYHB.png,,,,,,,z,1,0.733,,,,,,,,0,88,88,144,1
,,,,,,,,,,,,,,,,,200098,19,2022-01-28_16h27.13.996,lexical_decision_task_DD_L2,2021.2.3,MacIntel,60.0024001,,,,,,,,,,,,1.0019,1,,,,,,,,,,,,,,,,,,,,,,,,-0.02165507,-0.42076572,0,0,0,,,,,,,BAKER,HB,z,y,./images/BAKERHB.png,,,,,,,z,1,1.0019,,,,,,,,0,89,89,147,1
,,,,,,,,,,,,,,,,,200098,19,2022-01-28_16h27.13.996,lexical_decision_task_DD_L2,2021.2.3,MacIntel,60.0024001,,,,,,,,,,,,1.0875,1,,,,,,,,,,,,,,,,,,,,,,,,-0.02165507,-0.42076572,0,0,0,,,,,,,BUTTER,HB,z,y,./images/BUTTERHB.png,,,,,,,z,1,1.0875,,,,,,,,0,90,90,111,1
,,,,,,,,,,,,,,,,,200098,19,2022-01-28_16h27.13.996,lexical_decision_task_DD_L2,2021.2.3,MacIntel,60.0024001,,,,,,,,,,,,1.1277,1,,,,,,,,,,,,,,,,,,,,,,,,-0.02165507,-0.42076572,0,0,0,,,,,,,CEMENT,C,m,y,./images/CEMENT.png,,,,,,,m,1,1.1277,,,,,,,,0,91,91,74,1
,,,,,,,,,,,,,,,,,200098,19,2022-01-28_16h27.13.996,lexical_decision_task_DD_L2,2021.2.3,MacIntel,60.0024001,,,,,,,,,,,,0.7793,0,,,,,,,,,,,,,,,,,,,,,,,,-0.02165507,-0.42076572,0,0,0,,,,,,,SCREW,HB,m,y,./images/SCREWHB.png,,,,,,,z,0,0.7793,,,,,,,,0,92,92,24,1
,,,,,,,,,,,,,,,,,200098,19,2022-01-28_16h27.13.996,lexical_decision_task_DD_L2,2021.2.3,MacIntel,60.0024001,,,,,,,,,,,,0.9351,1,,,,,,,,,,,,,,,,,,,,,,,,-0.02165507,-0.42076572,0,0,0,,,,,,,SNAKE,LB,z,y,./images/SNAKELB.png,,,,,,,z,1,0.9351,,,,,,,,0,93,93,124,1
,,,,,,,,,,,,,,,,,200098,19,2022-01-28_16h27.13.996,lexical_decision_task_DD_L2,2021.2.3,MacIntel,60.0024001,,,,,,,,,,,,0.9888,1,,,,,,,,,,,,,,,,,,,,,,,,-0.02165507,-0.42076572,0,0,0,,,,,,,CRUMB,C,m,y,./images/CRUMB.png,,,,,,,m,1,0.9888,,,,,,,,0,94,94,29,1
,,,,,,,,,,,,,,,,,200098,19,2022-01-28_16h27.13.996,lexical_decision_task_DD_L2,2021.2.3,MacIntel,60.0024001,,,,,,,,,,,,0.8501,1,,,,,,,,,,,,,,,,,,,,,,,,-0.02165507,-0.42076572,0,0,0,,,,,,,CHAIN,HB,z,y,./images/CHAINHB.png,,,,,,,z,1,0.8501,,,,,,,,0,95,95,126,1
,,,,,,,,,,,,,,,,,200098,19,2022-01-28_16h27.13.996,lexical_decision_task_DD_L2,2021.2.3,MacIntel,60.0024001,,,,,,,,,,,,0.8697,0,,,,,,,,,,,,,,,,,,,,,,,,-0.02165507,-0.42076572,0,0,0,,,,,,,CRADLE,C,m,y,./images/CRADLE.png,,,,,,,z,0,0.8697,,,,,,,,0,96,96,20,1
,,,,,,,,,,,,,,,,,200098,19,2022-01-28_16h27.13.996,lexical_decision_task_DD_L2,2021.2.3,MacIntel,60.0024001,,,,,,,,,,,,1.4473,1,,,,,,,,,,,,,,,,,,,,,,,,-0.02165507,-0.42076572,0,0,0,,,,,,,QUILL,LB,m,y,./images/QUILLLB.png,,,,,,,m,1,1.4473,,,,,,,,0,97,97,31,1
,,,,,,,,,,,,,,,,,200098,19,2022-01-28_16h27.13.996,lexical_decision_task_DD_L2,2021.2.3,MacIntel,60.0024001,,,,,,,,,,,,0.9444,1,,,,,,,,,,,,,,,,,,,,,,,,-0.02165507,-0.42076572,0,0,0,,,,,,,LIZARD,C,m,y,./images/LIZARD.png,,,,,,,m,1,0.9444,,,,,,,,0,98,98,44,1
,,,,,,,,,,,,,,,,,200098,19,2022-01-28_16h27.13.996,lexical_decision_task_DD_L2,2021.2.3,MacIntel,60.0024001,,,,,,,,,,,,0.8155,1,,,,,,,,,,,,,,,,,,,,,,,,-0.02165507,-0.42076572,0,0,0,,,,,,,WHISKY,C,z,y,./images/WHISKY.png,,,,,,,z,1,0.8155,,,,,,,,0,99,99,167,1
,,,,,,,,,,,,,,,,,200098,19,2022-01-28_16h27.13.996,lexical_decision_task_DD_L2,2021.2.3,MacIntel,60.0024001,,,,,,,,,,,,0.848,1,,,,,,,,,,,,,,,,,,,,,,,,-0.02165507,-0.42076572,0,0,0,,,,,,,BABOON,LB,m,y,./images/BABOONLB.png,,,,,,,m,1,0.848,,,,,,,,0,100,100,58,1
,,,,,,,,,,,,,,,,,200098,19,2022-01-28_16h27.13.996,lexical_decision_task_DD_L2,2021.2.3,MacIntel,60.0024001,,,,,,,,,,,,0.8766,1,,,,,,,,,,,,,,,,,,,,,,,,-0.02165507,-0.42076572,0,0,0,,,,,,,CANYON,LB,m,y,./images/CANYONLB.png,,,,,,,m,1,0.8766,,,,,,,,0,101,101,34,1
,,,,,,,,,,,,,,,,,200098,19,2022-01-28_16h27.13.996,lexical_decision_task_DD_L2,2021.2.3,MacIntel,60.0024001,,,,,,,,,,,,0.9117,1,,,,,,,,,,,,,,,,,,,,,,,,-0.02165507,-0.42076572,0,0,0,,,,,,,INFANT,LB,m,y,./images/INFANTLB.png,,,,,,,m,1,0.9117,,,,,,,,0,102,102,76,1
,,,,,,,,,,,,,,,,,200098,19,2022-01-28_16h27.13.996,lexical_decision_task_DD_L2,2021.2.3,MacIntel,60.0024001,,,,,,,,,,,,1.3473,1,,,,,,,,,,,,,,,,,,,,,,,,-0.02165507,-0.42076572,0,0,0,,,,,,,FARMER,C,m,y,./images/FARMER.png,,,,,,,m,1,1.3473,,,,,,,,0,103,103,65,1
,,,,,,,,,,,,,,,,,200098,19,2022-01-28_16h27.13.996,lexical_decision_task_DD_L2,2021.2.3,MacIntel,60.0024001,,,,,,,,,,,,0.9317,1,,,,,,,,,,,,,,,,,,,,,,,,-0.02165507,-0.42076572,0,0,0,,,,,,,LAGOON,C,z,y,./images/LAGOON.png,,,,,,,z,1,0.9317,,,,,,,,0,104,104,131,1
,,,,,,,,,,,,,,,,,200098,19,2022-01-28_16h27.13.996,lexical_decision_task_DD_L2,2021.2.3,MacIntel,60.0024001,,,,,,,,,,,,1.4345,1,,,,,,,,,,,,,,,,,,,,,,,,-0.02165507,-0.42076572,0,0,0,,,,,,,BASKET,C,z,y,./images/BASKET.png,,,,,,,z,1,1.4345,,,,,,,,0,105,105,128,1
,,,,,,,,,,,,,,,,,200098,19,2022-01-28_16h27.13.996,lexical_decision_task_DD_L2,2021.2.3,MacIntel,60.0024001,,,,,,,,,,,,1.0804,1,,,,,,,,,,,,,,,,,,,,,,,,-0.02165507,-0.42076572,0,0,0,,,,,,,TRIPOD,HB,m,y,./images/TRIPODHB.png,,,,,,,m,1,1.0804,,,,,,,,0,106,106,54,1
,,,,,,,,,,,,,,,,,200098,19,2022-01-28_16h27.13.996,lexical_decision_task_DD_L2,2021.2.3,MacIntel,60.0024001,,,,,,,,,,,,0.9766,1,,,,,,,,,,,,,,,,,,,,,,,,-0.02165507,-0.42076572,0,0,0,,,,,,,MELON,LB,m,y,./images/MELONLB.png,,,,,,,m,1,0.9766,,,,,,,,0,107,107,22,1
,,,,,,,,,,,,,,,,,200098,19,2022-01-28_16h27.13.996,lexical_decision_task_DD_L2,2021.2.3,MacIntel,60.0024001,,,,,,,,,,,,0.6773,1,,,,,,,,,,,,,,,,,,,,,,,,-0.02165507,-0.42076572,0,0,0,,,,,,,POODLE,HB,m,y,./images/POODLEHB.png,,,,,,,m,1,0.6773,,,,,,,,0,108,108,81,1
,,,,,,,,,,,,,,,,,200098,19,2022-01-28_16h27.13.996,lexical_decision_task_DD_L2,2021.2.3,MacIntel,60.0024001,,,,,,,,,,,,0.8643,1,,,,,,,,,,,,,,,,,,,,,,,,-0.02165507,-0.42076572,0,0,0,,,,,,,GRAPE,LB,z,y,./images/GRAPELB.png,,,,,,,z,1,0.8643,,,,,,,,0,109,109,100,1
,,,,,,,,,,,,,,,,,200098,19,2022-01-28_16h27.13.996,lexical_decision_task_DD_L2,2021.2.3,MacIntel,60.0024001,,,,,,,,,,,,0.6842,1,,,,,,,,,,,,,,,,,,,,,,,,-0.02165507,-0.42076572,0,0,0,,,,,,,PEARL,LB,m,y,./images/PEARLLB.png,,,,,,,m,1,0.6842,,,,,,,,0,110,110,46,1
,,,,,,,,,,,,,,,,,200098,19,2022-01-28_16h27.13.996,lexical_decision_task_DD_L2,2021.2.3,MacIntel,60.0024001,,,,,,,,,,,,1.0416,1,,,,,,,,,,,,,,,,,,,,,,,,-0.02165507,-0.42076572,0,0,0,,,,,,,FOLDER,HB,m,y,./images/FOLDERHB.png,,,,,,,m,1,1.0416,,,,,,,,0,111,111,42,1
,,,,,,,,,,,,,,,,,200098,19,2022-01-28_16h27.13.996,lexical_decision_task_DD_L2,2021.2.3,MacIntel,60.0024001,,,,,,,,,,,,0.6135,1,,,,,,,,,,,,,,,,,,,,,,,,-0.02165507,-0.42076572,0,0,0,,,,,,,PASTA,C,m,y,./images/PASTA.png,,,,,,,m,1,0.6135,,,,,,,,0,112,112,5,1
,,,,,,,,,,,,,,,,,200098,19,2022-01-28_16h27.13.996,lexical_decision_task_DD_L2,2021.2.3,MacIntel,60.0024001,,,,,,,,,,,,0.7476,1,,,,,,,,,,,,,,,,,,,,,,,,-0.02165507,-0.42076572,0,0,0,,,,,,,BRUSH,C,z,y,./images/BRUSH.png,,,,,,,z,1,0.7476,,,,,,,,0,113,113,143,1
,,,,,,,,,,,,,,,,,200098,19,2022-01-28_16h27.13.996,lexical_decision_task_DD_L2,2021.2.3,MacIntel,60.0024001,,,,,,,,,,,,0.7989,1,,,,,,,,,,,,,,,,,,,,,,,,-0.02165507,-0.42076572,0,0,0,,,,,,,SAILOR,LB,m,y,./images/SAILORLB.png,,,,,,,m,1,0.7989,,,,,,,,0,114,114,67,1
,,,,,,,,,,,,,,,,,200098,19,2022-01-28_16h27.13.996,lexical_decision_task_DD_L2,2021.2.3,MacIntel,60.0024001,,,,,,,,,,,,0.9899,1,,,,,,,,,,,,,,,,,,,,,,,,-0.02165507,-0.42076572,0,0,0,,,,,,,TIGER,LB,z,y,./images/TIGERLB.png,,,,,,,z,1,0.9899,,,,,,,,0,115,115,121,1
,,,,,,,,,,,,,,,,,200098,19,2022-01-28_16h27.13.996,lexical_decision_task_DD_L2,2021.2.3,MacIntel,60.0024001,,,,,,,,,,,,0.8279,1,,,,,,,,,,,,,,,,,,,,,,,,-0.02165507,-0.42076572,0,0,0,,,,,,,SAUNA,HB,z,y,./images/SAUNAHB.png,,,,,,,z,1,0.8279,,,,,,,,0,116,116,117,1
,,,,,,,,,,,,,,,,,200098,19,2022-01-28_16h27.13.996,lexical_decision_task_DD_L2,2021.2.3,MacIntel,60.0024001,,,,,,,,,,,,1.0952,1,,,,,,,,,,,,,,,,,,,,,,,,-0.02165507,-0.42076572,0,0,0,,,,,,,KITTEN,HB,m,y,./images/KITTENHB.png,,,,,,,m,1,1.0952,,,,,,,,0,117,117,45,1
,,,,,,,,,,,,,,,,,200098,19,2022-01-28_16h27.13.996,lexical_decision_task_DD_L2,2021.2.3,MacIntel,60.0024001,,,,,,,,,,,,1.7945,0,,,,,,,,,,,,,,,,,,,,,,,,-0.02165507,-0.42076572,0,0,0,,,,,,,WAGON,LB,z,y,./images/WAGONLB.png,,,,,,,m,0,1.7945,,,,,,,,0,118,118,91,1
,,,,,,,,,,,,,,,,,200098,19,2022-01-28_16h27.13.996,lexical_decision_task_DD_L2,2021.2.3,MacIntel,60.0024001,,,,,,,,,,,,0.9504,1,,,,,,,,,,,,,,,,,,,,,,,,-0.02165507,-0.42076572,0,0,0,,,,,,,STAIN,HB,z,y,./images/STAINHB.png,,,,,,,z,1,0.9504,,,,,,,,0,119,119,90,1
,,,,,,,,,,,,,,,,,200098,19,2022-01-28_16h27.13.996,lexical_decision_task_DD_L2,2021.2.3,MacIntel,60.0024001,,,,,,,,,,,,1.195,1,,,,,,,,,,,,,,,,,,,,,,,,-0.02165507,-0.42076572,0,0,0,,,,,,,CHERRY,HB,z,y,./images/CHERRYHB.png,,,,,,,z,1,1.195,,,,,,,,0,120,120,138,1
,,,,,,,,,,,,,,,,,200098,19,2022-01-28_16h27.13.996,lexical_decision_task_DD_L2,2021.2.3,MacIntel,60.0024001,,,,,,,,,,,,0.963,1,,,,,,,,,,,,,,,,,,,,,,,,-0.02165507,-0.42076572,0,0,0,,,,,,,MUFFIN,LB,m,y,./images/MUFFINLB.png,,,,,,,m,1,0.963,,,,,,,,0,121,121,55,1
,,,,,,,,,,,,,,,,,200098,19,2022-01-28_16h27.13.996,lexical_decision_task_DD_L2,2021.2.3,MacIntel,60.0024001,,,,,,,,,,,,0.6758,0,,,,,,,,,,,,,,,,,,,,,,,,-0.02165507,-0.42076572,0,0,0,,,,,,,COLLAR,HB,z,y,./images/COLLARHB.png,,,,,,,m,0,0.6758,,,,,,,,0,122,122,99,1
,,,,,,,,,,,,,,,,,200098,19,2022-01-28_16h27.13.996,lexical_decision_task_DD_L2,2021.2.3,MacIntel,60.0024001,,,,,,,,,,,,0.8163,1,,,,,,,,,,,,,,,,,,,,,,,,-0.02165507,-0.42076572,0,0,0,,,,,,,URINE,LB,m,y,./images/URINELB.png,,,,,,,m,1,0.8163,,,,,,,,0,123,123,70,1
,,,,,,,,,,,,,,,,,200098,19,2022-01-28_16h27.13.996,lexical_decision_task_DD_L2,2021.2.3,MacIntel,60.0024001,,,,,,,,,,,,0.8838,1,,,,,,,,,,,,,,,,,,,,,,,,-0.02165507,-0.42076572,0,0,0,,,,,,,MALLET,C,m,y,./images/MALLET.png,,,,,,,m,1,0.8838,,,,,,,,0,124,124,50,1
,,,,,,,,,,,,,,,,,200098,19,2022-01-28_16h27.13.996,lexical_decision_task_DD_L2,2021.2.3,MacIntel,60.0024001,,,,,,,,,,,,0.9347,1,,,,,,,,,,,,,,,,,,,,,,,,-0.02165507,-0.42076572,0,0,0,space,,,,,,CARPET,C,m,y,./images/CARPET.png,6.1728,,,,,,m,1,0.9347,,,,,,,,0,125,125,53,1
,,,,,,,,,,,,,,,,,200098,19,2022-01-28_16h27.13.996,lexical_decision_task_DD_L2,2021.2.3,MacIntel,60.0024001,,,,,,,,,,,,0.8637,1,,,,,,,,,,,,,,,,,,,,,,,,-0.02165507,-0.42076572,0,0,0,,,,,,,ALLEY,LB,z,y,./images/ALLEYLB.png,,,,,,,z,1,0.8637,,,,,,,,0,126,126,139,1
,,,,,,,,,,,,,,,,,200098,19,2022-01-28_16h27.13.996,lexical_decision_task_DD_L2,2021.2.3,MacIntel,60.0024001,,,,,,,,,,,,0.7909,0,,,,,,,,,,,,,,,,,,,,,,,,-0.02165507,-0.42076572,0,0,0,,,,,,,SPINE,C,z,y,./images/SPINE.png,,,,,,,m,0,0.7909,,,,,,,,0,127,127,149,1
,,,,,,,,,,,,,,,,,200098,19,2022-01-28_16h27.13.996,lexical_decision_task_DD_L2,2021.2.3,MacIntel,60.0024001,,,,,,,,,,,,1.2292,1,,,,,,,,,,,,,,,,,,,,,,,,-0.02165507,-0.42076572,0,0,0,,,,,,,PENCE,LB,m,y,./images/PENCELB.png,,,,,,,m,1,1.2292,,,,,,,,0,128,128,16,1
,,,,,,,,,,,,,,,,,200098,19,2022-01-28_16h27.13.996,lexical_decision_task_DD_L2,2021.2.3,MacIntel,60.0024001,,,,,,,,,,,,0.878,1,,,,,,,,,,,,,,,,,,,,,,,,-0.02165507,-0.42076572,0,0,0,,,,,,,GRANNY,C,z,y,./images/GRANNY.png,,,,,,,z,1,0.878,,,,,,,,0,129,129,104,1
,,,,,,,,,,,,,,,,,200098,19,2022-01-28_16h27.13.996,lexical_decision_task_DD_L2,2021.2.3,MacIntel,60.0024001,,,,,,,,,,,,0.631,1,,,,,,,,,,,,,,,,,,,,,,,,-0.02165507,-0.42076572,0,0,0,,,,,,,PICKLE,C,m,y,./images/PICKLE.png,,,,,,,m,1,0.631,,,,,,,,0,130,130,14,1
,,,,,,,,,,,,,,,,,200098,19,2022-01-28_16h27.13.996,lexical_decision_task_DD_L2,2021.2.3,MacIntel,60.0024001,,,,,,,,,,,,0.8736,0,,,,,,,,,,,,,,,,,,,,,,,,-0.02165507,-0.42076572,0,0,0,,,,,,,DRUMS,LB,m,y,./images/DRUMSLB.png,,,,,,,z,0,0.8736,,,,,,,,0,131,131,49,1
,,,,,,,,,,,,,,,,,200098,19,2022-01-28_16h27.13.996,lexical_decision_task_DD_L2,2021.2.3,MacIntel,60.0024001,,,,,,,,,,,,0.766,1,,,,,,,,,,,,,,,,,,,,,,,,-0.02165507,-0.42076572,0,0,0,,,,,,,DOUGH,LB,m,y,./images/DOUGHLB.png,,,,,,,m,1,0.766,,,,,,,,0,132,132,19,1
,,,,,,,,,,,,,,,,,200098,19,2022-01-28_16h27.13.996,lexical_decision_task_DD_L2,2021.2.3,MacIntel,60.0024001,,,,,,,,,,,,1.0179,1,,,,,,,,,,,,,,,,,,,,,,,,-0.02165507,-0.42076572,0,0,0,,,,,,,SWEAT,HB,m,y,./images/SWEATHB.png,,,,,,,m,1,1.0179,,,,,,,,0,133,133,66,1
,,,,,,,,,,,,,,,,,200098,19,2022-01-28_16h27.13.996,lexical_decision_task_DD_L2,2021.2.3,MacIntel,60.0024001,,,,,,,,,,,,0.9004,0,,,,,,,,,,,,,,,,,,,,,,,,-0.02165507,-0.42076572,0,0,0,,,,,,,CLIFF,C,z,y,./images/CLIFF.png,,,,,,,m,0,0.9004,,,,,,,,0,134,134,92,1
,,,,,,,,,,,,,,,,,200098,19,2022-01-28_16h27.13.996,lexical_decision_task_DD_L2,2021.2.3,MacIntel,60.0024001,,,,,,,,,,,,0.872,0,,,,,,,,,,,,,,,,,,,,,,,,-0.02165507,-0.42076572,0,0,0,,,,,,,WALNUT,HB,z,y,./images/WALNUTHB.png,,,,,,,m,0,0.872,,,,,,,,0,135,135,84,1
,,,,,,,,,,,,,,,,,200098,19,2022-01-28_16h27.13.996,lexical_decision_task_DD_L2,2021.2.3,MacIntel,60.0024001,,,,,,,,,,,,0.7958,1,,,,,,,,,,,,,,,,,,,,,,,,-0.02165507,-0.42076572,0,0,0,,,,,,,JELLY,LB,m,y,./images/JELLYLB.png,,,,,,,m,1,0.7958,,,,,,,,0,136,136,64,1
,,,,,,,,,,,,,,,,,200098,19,2022-01-28_16h27.13.996,lexical_decision_task_DD_L2,2021.2.3,MacIntel,60.0024001,,,,,,,,,,,,0.7934,1,,,,,,,,,,,,,,,,,,,,,,,,-0.02165507,-0.42076572,0,0,0,,,,,,,RHINO,HB,m,y,./images/RHINOHB.png,,,,,,,m,1,0.7934,,,,,,,,0,137,137,9,1
,,,,,,,,,,,,,,,,,200098,19,2022-01-28_16h27.13.996,lexical_decision_task_DD_L2,2021.2.3,MacIntel,60.0024001,,,,,,,,,,,,0.7321,1,,,,,,,,,,,,,,,,,,,,,,,,-0.02165507,-0.42076572,0,0,0,,,,,,,SLOPE,HB,z,y,./images/SLOPEHB.png,,,,,,,z,1,0.7321,,,,,,,,0,138,138,114,1
,,,,,,,,,,,,,,,,,200098,19,2022-01-28_16h27.13.996,lexical_decision_task_DD_L2,2021.2.3,MacIntel,60.0024001,,,,,,,,,,,,1.2381,0,,,,,,,,,,,,,,,,,,,,,,,,-0.02165507,-0.42076572,0,0,0,,,,,,,BIRTH,LB,m,y,./images/BIRTHLB.png,,,,,,,z,0,1.2381,,,,,,,,0,139,139,37,1
,,,,,,,,,,,,,,,,,200098,19,2022-01-28_16h27.13.996,lexical_decision_task_DD_L2,2021.2.3,MacIntel,60.0024001,,,,,,,,,,,,0.9447,1,,,,,,,,,,,,,,,,,,,,,,,,-0.02165507,-0.42076572,0,0,0,,,,,,,PACKET,C,m,y,./images/PACKET.png,,,,,,,m,1,0.9447,,,,,,,,0,140,140,56,1
,,,,,,,,,,,,,,,,,200098,19,2022-01-28_16h27.13.996,lexical_decision_task_DD_L2,2021.2.3,MacIntel,60.0024001,,,,,,,,,,,,0.8438,1,,,,,,,,,,,,,,,,,,,,,,,,-0.02165507,-0.42076572,0,0,0,,,,,,,FERRY,HB,z,y,./images/FERRYHB.png,,,,,,,z,1,0.8438,,,,,,,,0,141,141,141,1
,,,,,,,,,,,,,,,,,200098,19,2022-01-28_16h27.13.996,lexical_decision_task_DD_L2,2021.2.3,MacIntel,60.0024001,,,,,,,,,,,,1.1147,1,,,,,,,,,,,,,,,,,,,,,,,,-0.02165507,-0.42076572,0,0,0,,,,,,,PLANK,LB,m,y,./images/PLANKLB.png,,,,,,,m,1,1.1147,,,,,,,,0,142,142,1,1
,,,,,,,,,,,,,,,,,200098,19,2022-01-28_16h27.13.996,lexical_decision_task_DD_L2,2021.2.3,MacIntel,60.0024001,,,,,,,,,,,,1.0424,1,,,,,,,,,,,,,,,,,,,,,,,,-0.02165507,-0.42076572,0,0,0,,,,,,,STATUE,HB,z,y,./images/STATUEHB.png,,,,,,,z,1,1.0424,,,,,,,,0,143,143,150,1
,,,,,,,,,,,,,,,,,200098,19,2022-01-28_16h27.13.996,lexical_decision_task_DD_L2,2021.2.3,MacIntel,60.0024001,,,,,,,,,,,,1.4026,0,,,,,,,,,,,,,,,,,,,,,,,,-0.02165507,-0.42076572,0,0,0,,,,,,,SUNSET,LB,m,y,./images/SUNSETLB.png,,,,,,,z,0,1.4026,,,,,,,,0,144,144,82,1
,,,,,,,,,,,,,,,,,200098,19,2022-01-28_16h27.13.996,lexical_decision_task_DD_L2,2021.2.3,MacIntel,60.0024001,,,,,,,,,,,,0.6116,1,,,,,,,,,,,,,,,,,,,,,,,,-0.02165507,-0.42076572,0,0,0,,,,,,,SNACK,LB,m,y,./images/SNACKLB.png,,,,,,,m,1,0.6116,,,,,,,,0,145,145,73,1
,,,,,,,,,,,,,,,,,200098,19,2022-01-28_16h27.13.996,lexical_decision_task_DD_L2,2021.2.3,MacIntel,60.0024001,,,,,,,,,,,,0.6837,1,,,,,,,,,,,,,,,,,,,,,,,,-0.02165507,-0.42076572,0,0,0,,,,,,,PEACH,C,m,y,./images/PEACH.png,,,,,,,m,1,0.6837,,,,,,,,0,146,146,35,1
,,,,,,,,,,,,,,,,,200098,19,2022-01-28_16h27.13.996,lexical_decision_task_DD_L2,2021.2.3,MacIntel,60.0024001,,,,,,,,,,,,0.6187,1,,,,,,,,,,,,,,,,,,,,,,,,-0.02165507,-0.42076572,0,0,0,,,,,,,BLOKE,HB,z,y,./images/BLOKEHB.png,,,,,,,z,1,0.6187,,,,,,,,0,147,147,96,1
,,,,,,,,,,,,,,,,,200098,19,2022-01-28_16h27.13.996,lexical_decision_task_DD_L2,2021.2.3,MacIntel,60.0024001,,,,,,,,,,,,1.2889,1,,,,,,,,,,,,,,,,,,,,,,,,-0.02165507,-0.42076572,0,0,0,,,,,,,BROOM,HB,z,y,./images/BROOMHB.png,,,,,,,z,1,1.2889,,,,,,,,0,148,148,162,1
,,,,,,,,,,,,,,,,,200098,19,2022-01-28_16h27.13.996,lexical_decision_task_DD_L2,2021.2.3,MacIntel,60.0024001,,,,,,,,,,,,0.8945,1,,,,,,,,,,,,,,,,,,,,,,,,-0.02165507,-0.42076572,0,0,0,,,,,,,DESERT,LB,z,y,./images/DESERTLB.png,,,,,,,z,1,0.8945,,,,,,,,0,149,149,136,1
,,,,,,,,,,,,,,,,,200098,19,2022-01-28_16h27.13.996,lexical_decision_task_DD_L2,2021.2.3,MacIntel,60.0024001,,,,,,,,,,,,1.0989,1,,,,,,,,,,,,,,,,,,,,,,,,-0.02165507,-0.42076572,0,0,0,,,,,,,STREAM,C,z,y,./images/STREAM.png,,,,,,,z,1,1.0989,,,,,,,,0,150,150,125,1
,,,,,,,,,,,,,,,,,200098,19,2022-01-28_16h27.13.996,lexical_decision_task_DD_L2,2021.2.3,MacIntel,60.0024001,,,,,,,,,,,,0.8691,1,,,,,,,,,,,,,,,,,,,,,,,,-0.02165507,-0.42076572,0,0,0,,,,,,,WRIST,LB,m,y,./images/WRISTLB.png,,,,,,,m,1,0.8691,,,,,,,,0,151,151,25,1
,,,,,,,,,,,,,,,,,200098,19,2022-01-28_16h27.13.996,lexical_decision_task_DD_L2,2021.2.3,MacIntel,60.0024001,,,,,,,,,,,,0.8175,1,,,,,,,,,,,,,,,,,,,,,,,,-0.02165507,-0.42076572,0,0,0,,,,,,,FINGER,HB,m,y,./images/FINGERHB.png,,,,,,,m,1,0.8175,,,,,,,,0,152,152,3,1
,,,,,,,,,,,,,,,,,200098,19,2022-01-28_16h27.13.996,lexical_decision_task_DD_L2,2021.2.3,MacIntel,60.0024001,,,,,,,,,,,,0.714,1,,,,,,,,,,,,,,,,,,,,,,,,-0.02165507,-0.42076572,0,0,0,,,,,,,LADDER,C,m,y,./images/LADDER.png,,,,,,,m,1,0.714,,,,,,,,0,153,153,38,1
,,,,,,,,,,,,,,,,,200098,19,2022-01-28_16h27.13.996,lexical_decision_task_DD_L2,2021.2.3,MacIntel,60.0024001,,,,,,,,,,,,0.9039,0,,,,,,,,,,,,,,,,,,,,,,,,-0.02165507,-0.42076572,0,0,0,,,,,,,MEDAL,C,z,y,./images/MEDAL.png,,,,,,,m,0,0.9039,,,,,,,,0,154,154,95,1
,,,,,,,,,,,,,,,,,200098,19,2022-01-28_16h27.13.996,lexical_decision_task_DD_L2,2021.2.3,MacIntel,60.0024001,,,,,,,,,,,,0.9022,1,,,,,,,,,,,,,,,,,,,,,,,,-0.02165507,-0.42076572,0,0,0,,,,,,,JUMPER,C,z,y,./images/JUMPER.png,,,,,,,z,1,0.9022,,,,,,,,0,155,155,158,1
,,,,,,,,,,,,,,,,,200098,19,2022-01-28_16h27.13.996,lexical_decision_task_DD_L2,2021.2.3,MacIntel,60.0024001,,,,,,,,,,,,0.8517,1,,,,,,,,,,,,,,,,,,,,,,,,-0.02165507,-0.42076572,0,0,0,,,,,,,SAUCE,HB,z,y,./images/SAUCEHB.png,,,,,,,z,1,0.8517,,,,,,,,0,156,156,135,1
,,,,,,,,,,,,,,,,,200098,19,2022-01-28_16h27.13.996,lexical_decision_task_DD_L2,2021.2.3,MacIntel,60.0024001,,,,,,,,,,,,1.3314,0,,,,,,,,,,,,,,,,,,,,,,,,-0.02165507,-0.42076572,0,0,0,,,,,,,CLOTH,C,z,y,./images/CLOTH.png,,,,,,,m,0,1.3314,,,,,,,,0,157,157,107,1
,,,,,,,,,,,,,,,,,200098,19,2022-01-28_16h27.13.996,lexical_decision_task_DD_L2,2021.2.3,MacIntel,60.0024001,,,,,,,,,,,,0.8486,1,,,,,,,,,,,,,,,,,,,,,,,,-0.02165507,-0.42076572,0,0,0,,,,,,,PISTOL,C,z,y,./images/PISTOL.png,,,,,,,z,1,0.8486,,,,,,,,0,158,158,113,1
,,,,,,,,,,,,,,,,,200098,19,2022-01-28_16h27.13.996,lexical_decision_task_DD_L2,2021.2.3,MacIntel,60.0024001,,,,,,,,,,,,0.7649,1,,,,,,,,,,,,,,,,,,,,,,,,-0.02165507,-0.42076572,0,0,0,,,,,,,JAGUAR,HB,m,y,./images/JAGUARHB.png,,,,,,,m,1,0.7649,,,,,,,,0,159,159,18,1
,,,,,,,,,,,,,,,,,200098,19,2022-01-28_16h27.13.996,lexical_decision_task_DD_L2,2021.2.3,MacIntel,60.0024001,,,,,,,,,,,,0.8986,0,,,,,,,,,,,,,,,,,,,,,,,,-0.02165507,-0.42076572,0,0,0,,,,,,,COOKER,HB,m,y,./images/COOKERHB.png,,,,,,,z,0,0.8986,,,,,,,,0,160,160,69,1
,,,,,,,,,,,,,,,,,200098,19,2022-01-28_16h27.13.996,lexical_decision_task_DD_L2,2021.2.3,MacIntel,60.0024001,,,,,,,,,,,,1.0203,1,,,,,,,,,,,,,,,,,,,,,,,,-0.02165507,-0.42076572,0,0,0,,,,,,,MOTOR,LB,m,y,./images/MOTORLB.png,,,,,,,m,1,1.0203,,,,,,,,0,161,161,13,1
,,,,,,,,,,,,,,,,,200098,19,2022-01-28_16h27.13.996,lexical_decision_task_DD_L2,2021.2.3,MacIntel,60.0024001,,,,,,,,,,,,1.4676,1,,,,,,,,,,,,,,,,,,,,,,,,-0.02165507,-0.42076572,0,0,0,,,,,,,GREASE,HB,m,y,./images/GREASEHB.png,,,,,,,m,1,1.4676,,,,,,,,0,162,162,15,1
,,,,,,,,,,,,,,,,,200098,19,2022-01-28_16h27.13.996,lexical_decision_task_DD_L2,2021.2.3,MacIntel,60.0024001,,,,,,,,,,,,0.5837,1,,,,,,,,,,,,,,,,,,,,,,,,-0.02165507,-0.42076572,0,0,0,,,,,,,CHALK,LB,z,y,./images/CHALKLB.png,,,,,,,z,1,0.5837,,,,,,,,0,163,163,109,1
,,,,,,,,,,,,,,,,,200098,19,2022-01-28_16h27.13.996,lexical_decision_task_DD_L2,2021.2.3,MacIntel,60.0024001,,,,,,,,,,,,1.0662,1,,,,,,,,,,,,,,,,,,,,,,,,-0.02165507,-0.42076572,0,0,0,,,,,,,SMOKER,C,m,y,./images/SMOKER.png,,,,,,,m,1,1.0662,,,,,,,,0,164,164,26,1
,,,,,,,,,,,,,,,,,200098,19,2022-01-28_16h27.13.996,lexical_decision_task_DD_L2,2021.2.3,MacIntel,60.0024001,,,,,,,,,,,,0.8505,0,,,,,,,,,,,,,,,,,,,,,,,,-0.02165507,-0.42076572,0,0,0,,,,,,,GLOVE,LB,z,y,./images/GLOVELB.png,,,,,,,m,0,0.8505,,,,,,,,0,165,165,157,1
,,,,,,,,,,,,,,,,,200098,19,2022-01-28_16h27.13.996,lexical_decision_task_DD_L2,2021.2.3,MacIntel,60.0024001,,,,,,,,,,,,0.6847,1,,,,,,,,,,,,,,,,,,,,,,,,-0.02165507,-0.42076572,0,0,0,,,,,,,PEBBLE,LB,z,y,./images/PEBBLELB.png,,,,,,,z,1,0.6847,,,,,,,,0,166,166,166,1
,,,,,,,,,,,,,,,,,200098,19,2022-01-28_16h27.13.996,lexical_decision_task_DD_L2,2021.2.3,MacIntel,60.0024001,,,,,,,,,,,,0.9642,0,,,,,,,,,,,,,,,,,,,,,,,,-0.02165507,-0.42076572,0,0,0,,,,,,,CLOUD,C,z,y,./images/CLOUD.png,,,,,,,m,0,0.9642,,,,,,,,0,167,167,110,1
