key_resp.keys,instr_done_touch.x,instr_done_touch.y,instr_done_touch.leftButton,instr_done_touch.midButton,instr_done_touch.rightButton,instr_done_touch.clicked_name,instruction_pages.thisRepN,instruction_pages.thisTrialN,instruction_pages.thisN,instruction_pages.thisIndex,instruction_pages.ran,pageN,phase,instruct_text,has_image,instruct_image,participant,age,date,expName,psychopyVersion,OS,frameRate,key_resp.rt,response.keys,response.corr,response.rt,touch_resp.x,touch_resp.y,touch_resp.leftButton,touch_resp.midButton,touch_resp.rightButton,touch_resp.time,touch_resp.clicked_name,rt,corr,practrials.thisRepN,practrials.thisTrialN,practrials.thisN,practrials.thisIndex,practrials.ran,TrialID,Target,corrAns,end_of_practice_trials_pages.thisRepN,end_of_practice_trials_pages.thisTrialN,end_of_practice_trials_pages.thisN,end_of_practice_trials_pages.thisIndex,end_of_practice_trials_pages.ran,key_resp_2.keys,key_resp_2.corr,key_resp_2.rt,targ_click.x,targ_click.y,targ_click.leftButton,targ_click.midButton,targ_click.rightButton,targ_click.time,targ_click.clicked_name,break_done_touch.x,break_done_touch.y,break_done_touch.leftButton,break_done_touch.midButton,break_done_touch.rightButton,break_done_keyboard.keys,maintrials.thisRepN,maintrials.thisTrialN,maintrials.thisN,maintrials.thisIndex,maintrials.ran,string,blur,study,lex,stim_path,break_done_keyboard.rt,test_instructions.thisRepN,test_instructions.thisTrialN,test_instructions.thisN,test_instructions.thisIndex,test_instructions.ran,key_resp_3.keys,key_resp_3.corr,key_resp_3.rt,test_click.x,test_click.y,test_click.leftButton,test_click.midButton,test_click.rightButton,test_click.time,test_click.clicked_name,test_phase.thisRepN,test_phase.thisTrialN,test_phase.thisN,test_phase.thisIndex,test_phase.ran
,0.012222222,-0.373333333,1,0,0,instr_done_button,0,0,0,0,1,1,instructions,"INSTRUCTIONS
At the start of each trial, look at the plus sign  (+) in the center of the screen.  This tells you that a trial is about to begin and where to look. Second, the plus sign will disappear and a string of letters will appear. Your task is to determine if the string of letters is a word or not. If the item is a word press the M key (on keyboard)  or touch the word button (phone/tablet).  If the item is not a word,  press the  Z key (on keyboard)  or touch the nonword button (on phone/tablet). 
Press the space bar or touch  continue.",0,,200023,18,2022-01-29_05h41.56,lexical_decision_task_DD,2021.2.3,MacIntel,62.5,,,,,,,,,,,,,,,,,,,,,,,,,,,,,,,,,,,,,,,,,,,,,,,,,,,,,,,,,,,,,,,,,,,,,,,,,
space,0.306666667,-0.182222222,0,0,0,,0,1,1,1,1,2,instructions,"If your device has a keyboard, press the 'Z' key for nonwords and the 'M' key for words.





Press the space bar or touch the button below to continue.",0,keyboard-example.gif,200023,18,2022-01-29_05h41.56,lexical_decision_task_DD,2021.2.3,MacIntel,62.5,9.17,,,,,,,,,,,,,,,,,,,,,,,,,,,,,,,,,,,,,,,,,,,,,,,,,,,,,,,,,,,,,,,,,,,,,,,,
space,0.306666667,-0.182222222,0,0,0,,0,2,2,2,1,3,instructions,"If you are using a touchscreen only device, use the buttons on the screen. Do not use the mouse.





Press the space bar or touch the button below to continue.",0,touchscreen-example.gif,200023,18,2022-01-29_05h41.56,lexical_decision_task_DD,2021.2.3,MacIntel,62.5,3.542,,,,,,,,,,,,,,,,,,,,,,,,,,,,,,,,,,,,,,,,,,,,,,,,,,,,,,,,,,,,,,,,,,,,,,,,
space,0.306666667,-0.182222222,0,0,0,,0,3,3,3,1,4,instructions,"It is very important that you respond as quickly and accurately as possible, as each letter string will only be on the screen for two seconds. If you do not respond within this time, the message 'Too slow!' will be displayed and the experiment will progress to the next letter string. The first 20 trials will be practice trials and you will receive feedback on your answers. 

Press the space bar or touch the button below to start the practice trials.",0,,200023,18,2022-01-29_05h41.56,lexical_decision_task_DD,2021.2.3,MacIntel,62.5,3.688,,,,,,,,,,,,,,,,,,,,,,,,,,,,,,,,,,,,,,,,,,,,,,,,,,,,,,,,,,,,,,,,,,,,,,,,
,,,,,,,,,,,,,,,,,200023,18,2022-01-29_05h41.56,lexical_decision_task_DD,2021.2.3,MacIntel,62.5,,m,1,3.709,,,,,,,,3.709,1,0,0,0,3,1,1001,MATRIX,m,,,,,,,,,,,,,,,,,,,,,,,,,,,,,,,,,,,,,,,,,,,,,,,,,,,,
,,,,,,,,,,,,,,,,,200023,18,2022-01-29_05h41.56,lexical_decision_task_DD,2021.2.3,MacIntel,62.5,,z,1,2.83,,,,,,,,2.83,1,0,1,1,12,1,1001,SPRINY,z,,,,,,,,,,,,,,,,,,,,,,,,,,,,,,,,,,,,,,,,,,,,,,,,,,,,
,,,,,,,,,,,,,,,,,200023,18,2022-01-29_05h41.56,lexical_decision_task_DD,2021.2.3,MacIntel,62.5,,z,1,2.242,,,,,,,,2.242,1,0,2,2,9,1,1001,FARINY,z,,,,,,,,,,,,,,,,,,,,,,,,,,,,,,,,,,,,,,,,,,,,,,,,,,,,
,,,,,,,,,,,,,,,,,200023,18,2022-01-29_05h41.56,lexical_decision_task_DD,2021.2.3,MacIntel,62.5,,m,1,1.172,,,,,,,,1.172,1,0,3,3,7,1,1001,VOLUME,m,,,,,,,,,,,,,,,,,,,,,,,,,,,,,,,,,,,,,,,,,,,,,,,,,,,,
,,,,,,,,,,,,,,,,,200023,18,2022-01-29_05h41.56,lexical_decision_task_DD,2021.2.3,MacIntel,62.5,,m,1,0.881,,,,,,,,0.881,1,0,4,4,6,1,1001,ZOMBIE,m,,,,,,,,,,,,,,,,,,,,,,,,,,,,,,,,,,,,,,,,,,,,,,,,,,,,
,,,,,,,,,,,,,,,,,200023,18,2022-01-29_05h41.56,lexical_decision_task_DD,2021.2.3,MacIntel,62.5,,z,1,1.846,,,,,,,,1.846,1,0,5,5,15,1,1001,WHAISE,z,,,,,,,,,,,,,,,,,,,,,,,,,,,,,,,,,,,,,,,,,,,,,,,,,,,,
,,,,,,,,,,,,,,,,,200023,18,2022-01-29_05h41.56,lexical_decision_task_DD,2021.2.3,MacIntel,62.5,,m,1,1.188,,,,,,,,1.188,1,0,6,6,0,1,1001,UTOPIA,m,,,,,,,,,,,,,,,,,,,,,,,,,,,,,,,,,,,,,,,,,,,,,,,,,,,,
,,,,,,,,,,,,,,,,,200023,18,2022-01-29_05h41.56,lexical_decision_task_DD,2021.2.3,MacIntel,62.5,,z,1,1.548,,,,,,,,1.548,1,0,7,7,11,1,1001,RASHET,z,,,,,,,,,,,,,,,,,,,,,,,,,,,,,,,,,,,,,,,,,,,,,,,,,,,,
,,,,,,,,,,,,,,,,,200023,18,2022-01-29_05h41.56,lexical_decision_task_DD,2021.2.3,MacIntel,62.5,,z,1,1.491,,,,,,,,1.491,1,0,8,8,10,1,1001,INLADE,z,,,,,,,,,,,,,,,,,,,,,,,,,,,,,,,,,,,,,,,,,,,,,,,,,,,,
,,,,,,,,,,,,,,,,,200023,18,2022-01-29_05h41.56,lexical_decision_task_DD,2021.2.3,MacIntel,62.5,,m,1,0.979,,,,,,,,0.979,1,0,9,9,4,1,1001,SQUEAK,m,,,,,,,,,,,,,,,,,,,,,,,,,,,,,,,,,,,,,,,,,,,,,,,,,,,,
,,,,,,,,,,,,,,,,,200023,18,2022-01-29_05h41.56,lexical_decision_task_DD,2021.2.3,MacIntel,62.5,,m,1,0.822,,,,,,,,0.822,1,0,10,10,5,1,1001,OBTAIN,m,,,,,,,,,,,,,,,,,,,,,,,,,,,,,,,,,,,,,,,,,,,,,,,,,,,,
,,,,,,,,,,,,,,,,,200023,18,2022-01-29_05h41.56,lexical_decision_task_DD,2021.2.3,MacIntel,62.5,,z,1,0.881,,,,,,,,0.881,1,0,11,11,8,1,1001,ASLERT,z,,,,,,,,,,,,,,,,,,,,,,,,,,,,,,,,,,,,,,,,,,,,,,,,,,,,
,,,,,,,,,,,,,,,,,200023,18,2022-01-29_05h41.56,lexical_decision_task_DD,2021.2.3,MacIntel,62.5,,m,1,0.941,,,,,,,,0.941,1,0,12,12,2,1,1001,ALMOND,m,,,,,,,,,,,,,,,,,,,,,,,,,,,,,,,,,,,,,,,,,,,,,,,,,,,,
,,,,,,,,,,,,,,,,,200023,18,2022-01-29_05h41.56,lexical_decision_task_DD,2021.2.3,MacIntel,62.5,,z,1,1.038,,,,,,,,1.038,1,0,13,13,14,1,1001,THRALE,z,,,,,,,,,,,,,,,,,,,,,,,,,,,,,,,,,,,,,,,,,,,,,,,,,,,,
,,,,,,,,,,,,,,,,,200023,18,2022-01-29_05h41.56,lexical_decision_task_DD,2021.2.3,MacIntel,62.5,,m,1,0.762,,,,,,,,0.762,1,0,14,14,1,1,1001,ADJUST,m,,,,,,,,,,,,,,,,,,,,,,,,,,,,,,,,,,,,,,,,,,,,,,,,,,,,
,,,,,,,,,,,,,,,,,200023,18,2022-01-29_05h41.56,lexical_decision_task_DD,2021.2.3,MacIntel,62.5,,z,1,0.88,,,,,,,,0.88,1,0,15,15,13,1,1001,ROUPET,z,,,,,,,,,,,,,,,,,,,,,,,,,,,,,,,,,,,,,,,,,,,,,,,,,,,,
space,0.144444444,-0.291111111,0,0,0,,,,,,,1,end_of_practice,"You have completed the practice trials. During the experimental trials, you will not receive feedback. 
Before you begin, please ensure that you are in a comfortable and quiet location and will not be disturbed for about 15 minutes, as we cannot use your data if you do not complete all the trials. 
 When you are ready to start the experimental trials, please press space or touch the button below.",,,200023,18,2022-01-29_05h41.56,lexical_decision_task_DD,2021.2.3,MacIntel,62.5,10.665,,,,,,,,,,,,,,,,,,,,,0,0,0,0,1,,,,,,,,,,,,,,,,,,,,,,,,,,,,,,,,,,,,,,,,,,,,,,,
,,,,,,,,,,,,,,,,,200023,18,2022-01-29_05h41.56,lexical_decision_task_DD,2021.2.3,MacIntel,62.5,,,,,,,,,,,,1.175,1,,,,,,,,,,,,,,z,1,1.175,,,,,,,,0.144444444,-0.291111111,0,0,0,,0,0,0,114,1,RIKES,C,old,z,./images/RIKES.png,,,,,,,,,,,,,,,,,,,,,
,,,,,,,,,,,,,,,,,200023,18,2022-01-29_05h41.56,lexical_decision_task_DD,2021.2.3,MacIntel,62.5,,,,,,,,,,,,2.407,1,,,,,,,,,,,,,,z,1,2.407,,,,,,,,0.144444444,-0.291111111,0,0,0,,0,1,1,88,1,GLUSH,HB,old,z,./images/GLUSHHB.png,,,,,,,,,,,,,,,,,,,,,
,,,,,,,,,,,,,,,,,200023,18,2022-01-29_05h41.56,lexical_decision_task_DD,2021.2.3,MacIntel,62.5,,,,,,,,,,,,1.048,1,,,,,,,,,,,,,,m,1,1.048,,,,,,,,0.144444444,-0.291111111,0,0,0,,0,2,2,23,1,WALRUS,LB,old,m,./images/WALRUSLB.png,,,,,,,,,,,,,,,,,,,,,
,,,,,,,,,,,,,,,,,200023,18,2022-01-29_05h41.56,lexical_decision_task_DD,2021.2.3,MacIntel,62.5,,,,,,,,,,,,1.147,1,,,,,,,,,,,,,,z,1,1.147,,,,,,,,0.144444444,-0.291111111,0,0,0,,0,3,3,131,1,NACES,LB,old,z,./images/NACESLB.png,,,,,,,,,,,,,,,,,,,,,
,,,,,,,,,,,,,,,,,200023,18,2022-01-29_05h41.56,lexical_decision_task_DD,2021.2.3,MacIntel,62.5,,,,,,,,,,,,0.937,1,,,,,,,,,,,,,,m,1,0.937,,,,,,,,0.144444444,-0.291111111,0,0,0,,0,4,4,24,1,SCREW,C,old,m,./images/SCREW.png,,,,,,,,,,,,,,,,,,,,,
,,,,,,,,,,,,,,,,,200023,18,2022-01-29_05h41.56,lexical_decision_task_DD,2021.2.3,MacIntel,62.5,,,,,,,,,,,,0.948,1,,,,,,,,,,,,,,m,1,0.948,,,,,,,,0.144444444,-0.291111111,0,0,0,,0,5,5,59,1,BURIAL,LB,old,m,./images/BURIALLB.png,,,,,,,,,,,,,,,,,,,,,
,,,,,,,,,,,,,,,,,200023,18,2022-01-29_05h41.56,lexical_decision_task_DD,2021.2.3,MacIntel,62.5,,,,,,,,,,,,0.947,1,,,,,,,,,,,,,,z,1,0.947,,,,,,,,0.144444444,-0.291111111,0,0,0,,0,6,6,99,1,BACKY,C,old,z,./images/BACKY.png,,,,,,,,,,,,,,,,,,,,,
,,,,,,,,,,,,,,,,,200023,18,2022-01-29_05h41.56,lexical_decision_task_DD,2021.2.3,MacIntel,62.5,,,,,,,,,,,,0.757,1,,,,,,,,,,,,,,m,1,0.757,,,,,,,,0.144444444,-0.291111111,0,0,0,,0,7,7,5,1,PASTA,LB,old,m,./images/PASTALB.png,,,,,,,,,,,,,,,,,,,,,
,,,,,,,,,,,,,,,,,200023,18,2022-01-29_05h41.56,lexical_decision_task_DD,2021.2.3,MacIntel,62.5,,,,,,,,,,,,1.291,1,,,,,,,,,,,,,,z,1,1.291,,,,,,,,0.144444444,-0.291111111,0,0,0,,0,8,8,106,1,CLUMS,HB,old,z,./images/CLUMSHB.png,,,,,,,,,,,,,,,,,,,,,
,,,,,,,,,,,,,,,,,200023,18,2022-01-29_05h41.56,lexical_decision_task_DD,2021.2.3,MacIntel,62.5,,,,,,,,,,,,1.305,1,,,,,,,,,,,,,,m,1,1.305,,,,,,,,0.144444444,-0.291111111,0,0,0,,0,9,9,67,1,SAILOR,HB,old,m,./images/SAILORHB.png,,,,,,,,,,,,,,,,,,,,,
,,,,,,,,,,,,,,,,,200023,18,2022-01-29_05h41.56,lexical_decision_task_DD,2021.2.3,MacIntel,62.5,,,,,,,,,,,,0.841,1,,,,,,,,,,,,,,z,1,0.841,,,,,,,,0.144444444,-0.291111111,0,0,0,,0,10,10,126,1,GUELS,C,old,z,./images/GUELS.png,,,,,,,,,,,,,,,,,,,,,
,,,,,,,,,,,,,,,,,200023,18,2022-01-29_05h41.56,lexical_decision_task_DD,2021.2.3,MacIntel,62.5,,,,,,,,,,,,1.153,1,,,,,,,,,,,,,,z,1,1.153,,,,,,,,0.144444444,-0.291111111,0,0,0,,0,11,11,124,1,TUNCH,HB,old,z,./images/TUNCHHB.png,,,,,,,,,,,,,,,,,,,,,
,,,,,,,,,,,,,,,,,200023,18,2022-01-29_05h41.56,lexical_decision_task_DD,2021.2.3,MacIntel,62.5,,,,,,,,,,,,1.282,1,,,,,,,,,,,,,,z,1,1.282,,,,,,,,0.144444444,-0.291111111,0,0,0,,0,12,12,130,1,CRILL,HB,old,z,./images/CRILLHB.png,,,,,,,,,,,,,,,,,,,,,
,,,,,,,,,,,,,,,,,200023,18,2022-01-29_05h41.56,lexical_decision_task_DD,2021.2.3,MacIntel,62.5,,,,,,,,,,,,0.772,1,,,,,,,,,,,,,,m,1,0.772,,,,,,,,0.144444444,-0.291111111,0,0,0,,0,13,13,15,1,GREASE,C,old,m,./images/GREASE.png,,,,,,,,,,,,,,,,,,,,,
,,,,,,,,,,,,,,,,,200023,18,2022-01-29_05h41.56,lexical_decision_task_DD,2021.2.3,MacIntel,62.5,,,,,,,,,,,,0.757,1,,,,,,,,,,,,,,m,1,0.757,,,,,,,,0.144444444,-0.291111111,0,0,0,,0,14,14,29,1,CRUMB,LB,old,m,./images/CRUMBLB.png,,,,,,,,,,,,,,,,,,,,,
,,,,,,,,,,,,,,,,,200023,18,2022-01-29_05h41.56,lexical_decision_task_DD,2021.2.3,MacIntel,62.5,,,,,,,,,,,,0.657,1,,,,,,,,,,,,,,m,1,0.657,,,,,,,,0.144444444,-0.291111111,0,0,0,,0,15,15,19,1,DOUGH,HB,old,m,./images/DOUGHHB.png,,,,,,,,,,,,,,,,,,,,,
,,,,,,,,,,,,,,,,,200023,18,2022-01-29_05h41.56,lexical_decision_task_DD,2021.2.3,MacIntel,62.5,,,,,,,,,,,,0.616,1,,,,,,,,,,,,,,m,1,0.616,,,,,,,,0.144444444,-0.291111111,0,0,0,,0,16,16,60,1,TWINS,C,old,m,./images/TWINS.png,,,,,,,,,,,,,,,,,,,,,
,,,,,,,,,,,,,,,,,200023,18,2022-01-29_05h41.56,lexical_decision_task_DD,2021.2.3,MacIntel,62.5,,,,,,,,,,,,0.657,1,,,,,,,,,,,,,,m,1,0.657,,,,,,,,0.144444444,-0.291111111,0,0,0,,0,17,17,65,1,FARMER,LB,old,m,./images/FARMERLB.png,,,,,,,,,,,,,,,,,,,,,
,,,,,,,,,,,,,,,,,200023,18,2022-01-29_05h41.56,lexical_decision_task_DD,2021.2.3,MacIntel,62.5,,,,,,,,,,,,1.271,1,,,,,,,,,,,,,,m,1,1.271,,,,,,,,0.144444444,-0.291111111,0,0,0,,0,18,18,32,1,BARREL,LB,old,m,./images/BARRELLB.png,,,,,,,,,,,,,,,,,,,,,
,,,,,,,,,,,,,,,,,200023,18,2022-01-29_05h41.56,lexical_decision_task_DD,2021.2.3,MacIntel,62.5,,,,,,,,,,,,0.827,1,,,,,,,,,,,,,,z,1,0.827,,,,,,,,0.144444444,-0.291111111,0,0,0,,0,19,19,146,1,MOOST,LB,old,z,./images/MOOSTLB.png,,,,,,,,,,,,,,,,,,,,,
,,,,,,,,,,,,,,,,,200023,18,2022-01-29_05h41.56,lexical_decision_task_DD,2021.2.3,MacIntel,62.5,,,,,,,,,,,,0.906,1,,,,,,,,,,,,,,z,1,0.906,,,,,,,,0.144444444,-0.291111111,0,0,0,,0,20,20,98,1,BAMPS,LB,old,z,./images/BAMPSLB.png,,,,,,,,,,,,,,,,,,,,,
,,,,,,,,,,,,,,,,,200023,18,2022-01-29_05h41.56,lexical_decision_task_DD,2021.2.3,MacIntel,62.5,,,,,,,,,,,,0.915,1,,,,,,,,,,,,,,z,1,0.915,,,,,,,,0.144444444,-0.291111111,0,0,0,,0,21,21,132,1,SCIFF,C,old,z,./images/SCIFF.png,,,,,,,,,,,,,,,,,,,,,
,,,,,,,,,,,,,,,,,200023,18,2022-01-29_05h41.56,lexical_decision_task_DD,2021.2.3,MacIntel,62.5,,,,,,,,,,,,1.14,1,,,,,,,,,,,,,,z,1,1.14,,,,,,,,0.144444444,-0.291111111,0,0,0,,0,22,22,145,1,LAMEL,HB,old,z,./images/LAMELHB.png,,,,,,,,,,,,,,,,,,,,,
,,,,,,,,,,,,,,,,,200023,18,2022-01-29_05h41.56,lexical_decision_task_DD,2021.2.3,MacIntel,62.5,,,,,,,,,,,,1.131,1,,,,,,,,,,,,,,z,1,1.131,,,,,,,,0.144444444,-0.291111111,0,0,0,,0,23,23,134,1,TROSS,LB,old,z,./images/TROSSLB.png,,,,,,,,,,,,,,,,,,,,,
,,,,,,,,,,,,,,,,,200023,18,2022-01-29_05h41.56,lexical_decision_task_DD,2021.2.3,MacIntel,62.5,,,,,,,,,,,,0.69,1,,,,,,,,,,,,,,m,1,0.69,,,,,,,,0.144444444,-0.291111111,0,0,0,,0,24,24,26,1,SMOKER,LB,old,m,./images/SMOKERLB.png,,,,,,,,,,,,,,,,,,,,,
,,,,,,,,,,,,,,,,,200023,18,2022-01-29_05h41.56,lexical_decision_task_DD,2021.2.3,MacIntel,62.5,,,,,,,,,,,,3.671,1,,,,,,,,,,,,,,m,1,3.671,,,,,,,,0.144444444,-0.291111111,0,0,0,,0,25,25,31,1,QUILL,HB,old,m,./images/QUILLHB.png,,,,,,,,,,,,,,,,,,,,,
,,,,,,,,,,,,,,,,,200023,18,2022-01-29_05h41.56,lexical_decision_task_DD,2021.2.3,MacIntel,62.5,,,,,,,,,,,,0.882,1,,,,,,,,,,,,,,m,1,0.882,,,,,,,,0.144444444,-0.291111111,0,0,0,,0,26,26,48,1,SPORT,C,old,m,./images/SPORT.png,,,,,,,,,,,,,,,,,,,,,
,,,,,,,,,,,,,,,,,200023,18,2022-01-29_05h41.56,lexical_decision_task_DD,2021.2.3,MacIntel,62.5,,,,,,,,,,,,0.758,1,,,,,,,,,,,,,,m,1,0.758,,,,,,,,0.144444444,-0.291111111,0,0,0,,0,27,27,47,1,BERRY,LB,old,m,./images/BERRYLB.png,,,,,,,,,,,,,,,,,,,,,
,,,,,,,,,,,,,,,,,200023,18,2022-01-29_05h41.56,lexical_decision_task_DD,2021.2.3,MacIntel,62.5,,,,,,,,,,,,0.955,1,,,,,,,,,,,,,,z,1,0.955,,,,,,,,0.144444444,-0.291111111,0,0,0,,0,28,28,118,1,BAVEL,HB,old,z,./images/BAVELHB.png,,,,,,,,,,,,,,,,,,,,,
,,,,,,,,,,,,,,,,,200023,18,2022-01-29_05h41.56,lexical_decision_task_DD,2021.2.3,MacIntel,62.5,,,,,,,,,,,,1.274,1,,,,,,,,,,,,,,z,1,1.274,,,,,,,,0.144444444,-0.291111111,0,0,0,,0,29,29,85,1,CHULK,HB,old,z,./images/CHULKHB.png,,,,,,,,,,,,,,,,,,,,,
,,,,,,,,,,,,,,,,,200023,18,2022-01-29_05h41.56,lexical_decision_task_DD,2021.2.3,MacIntel,62.5,,,,,,,,,,,,0.84,1,,,,,,,,,,,,,,z,1,0.84,,,,,,,,0.144444444,-0.291111111,0,0,0,,0,30,30,149,1,VEASE,LB,old,z,./images/VEASELB.png,,,,,,,,,,,,,,,,,,,,,
,,,,,,,,,,,,,,,,,200023,18,2022-01-29_05h41.56,lexical_decision_task_DD,2021.2.3,MacIntel,62.5,,,,,,,,,,,,0.839,1,,,,,,,,,,,,,,z,1,0.839,,,,,,,,0.144444444,-0.291111111,0,0,0,,0,31,31,144,1,NAIRY,C,old,z,./images/NAIRY.png,,,,,,,,,,,,,,,,,,,,,
,,,,,,,,,,,,,,,,,200023,18,2022-01-29_05h41.56,lexical_decision_task_DD,2021.2.3,MacIntel,62.5,,,,,,,,,,,,0.957,1,,,,,,,,,,,,,,m,1,0.957,,,,,,,,0.144444444,-0.291111111,0,0,0,,0,32,32,46,1,PEARL,HB,old,m,./images/PEARLHB.png,,,,,,,,,,,,,,,,,,,,,
,,,,,,,,,,,,,,,,,200023,18,2022-01-29_05h41.56,lexical_decision_task_DD,2021.2.3,MacIntel,62.5,,,,,,,,,,,,0.763,1,,,,,,,,,,,,,,z,1,0.763,,,,,,,,0.144444444,-0.291111111,0,0,0,,0,33,33,141,1,PLEET,C,old,z,./images/PLEET.png,,,,,,,,,,,,,,,,,,,,,
,,,,,,,,,,,,,,,,,200023,18,2022-01-29_05h41.56,lexical_decision_task_DD,2021.2.3,MacIntel,62.5,,,,,,,,,,,,1.981,1,,,,,,,,,,,,,,m,1,1.981,,,,,,,,0.144444444,-0.291111111,0,0,0,,0,34,34,16,1,PENCE,HB,old,m,./images/PENCEHB.png,,,,,,,,,,,,,,,,,,,,,
,,,,,,,,,,,,,,,,,200023,18,2022-01-29_05h41.56,lexical_decision_task_DD,2021.2.3,MacIntel,62.5,,,,,,,,,,,,1.056,1,,,,,,,,,,,,,,z,1,1.056,,,,,,,,0.144444444,-0.291111111,0,0,0,,0,35,35,86,1,AIFED,LB,old,z,./images/AIFEDLB.png,,,,,,,,,,,,,,,,,,,,,
,,,,,,,,,,,,,,,,,200023,18,2022-01-29_05h41.56,lexical_decision_task_DD,2021.2.3,MacIntel,62.5,,,,,,,,,,,,0.975,1,,,,,,,,,,,,,,z,1,0.975,,,,,,,,0.144444444,-0.291111111,0,0,0,,0,36,36,128,1,GRIFT,LB,old,z,./images/GRIFTLB.png,,,,,,,,,,,,,,,,,,,,,
,,,,,,,,,,,,,,,,,200023,18,2022-01-29_05h41.56,lexical_decision_task_DD,2021.2.3,MacIntel,62.5,,,,,,,,,,,,1.39,1,,,,,,,,,,,,,,m,1,1.39,,,,,,,,0.144444444,-0.291111111,0,0,0,,0,37,37,43,1,MOSQUE,HB,old,m,./images/MOSQUEHB.png,,,,,,,,,,,,,,,,,,,,,
,,,,,,,,,,,,,,,,,200023,18,2022-01-29_05h41.56,lexical_decision_task_DD,2021.2.3,MacIntel,62.5,,,,,,,,,,,,0.813,1,,,,,,,,,,,,,,z,1,0.813,,,,,,,,0.144444444,-0.291111111,0,0,0,,0,38,38,143,1,MONGS,LB,old,z,./images/MONGSLB.png,,,,,,,,,,,,,,,,,,,,,
,,,,,,,,,,,,,,,,,200023,18,2022-01-29_05h41.56,lexical_decision_task_DD,2021.2.3,MacIntel,62.5,,,,,,,,,,,,0.764,1,,,,,,,,,,,,,,z,1,0.764,,,,,,,,0.144444444,-0.291111111,0,0,0,,0,39,39,155,1,CANGY,LB,old,z,./images/CANGYLB.png,,,,,,,,,,,,,,,,,,,,,
,,,,,,,,,,,,,,,,,200023,18,2022-01-29_05h41.56,lexical_decision_task_DD,2021.2.3,MacIntel,62.5,,,,,,,,,,,,1.45,1,,,,,,,,,,,,,,z,1,1.45,,,,,,,,0.144444444,-0.291111111,0,0,0,,0,40,40,154,1,THINT,HB,old,z,./images/THINTHB.png,,,,,,,,,,,,,,,,,,,,,
,,,,,,,,,,,,,,,,,200023,18,2022-01-29_05h41.56,lexical_decision_task_DD,2021.2.3,MacIntel,62.5,,,,,,,,,,,,1.272,1,,,,,,,,,,,,,,z,1,1.272,,,,,,,,0.144444444,-0.291111111,0,0,0,space,0,41,41,166,1,SHORY,HB,old,z,./images/SHORYHB.png,4.362,,,,,,,,,,,,,,,,,,,,
,,,,,,,,,,,,,,,,,200023,18,2022-01-29_05h41.56,lexical_decision_task_DD,2021.2.3,MacIntel,62.5,,,,,,,,,,,,1.514,1,,,,,,,,,,,,,,z,1,1.514,,,,,,,,0.144444444,-0.291111111,0,0,0,,0,42,42,138,1,PLICE,C,old,z,./images/PLICE.png,,,,,,,,,,,,,,,,,,,,,
,,,,,,,,,,,,,,,,,200023,18,2022-01-29_05h41.56,lexical_decision_task_DD,2021.2.3,MacIntel,62.5,,,,,,,,,,,,0.664,1,,,,,,,,,,,,,,m,1,0.664,,,,,,,,0.144444444,-0.291111111,0,0,0,,0,43,43,41,1,STRING,LB,old,m,./images/STRINGLB.png,,,,,,,,,,,,,,,,,,,,,
,,,,,,,,,,,,,,,,,200023,18,2022-01-29_05h41.56,lexical_decision_task_DD,2021.2.3,MacIntel,62.5,,,,,,,,,,,,0.699,1,,,,,,,,,,,,,,z,1,0.699,,,,,,,,0.144444444,-0.291111111,0,0,0,,0,44,44,156,1,HIXES,C,old,z,./images/HIXES.png,,,,,,,,,,,,,,,,,,,,,
,,,,,,,,,,,,,,,,,200023,18,2022-01-29_05h41.56,lexical_decision_task_DD,2021.2.3,MacIntel,62.5,,,,,,,,,,,,0.908,1,,,,,,,,,,,,,,m,1,0.908,,,,,,,,0.144444444,-0.291111111,0,0,0,,0,45,45,21,1,KIDNEY,C,old,m,./images/KIDNEY.png,,,,,,,,,,,,,,,,,,,,,
,,,,,,,,,,,,,,,,,200023,18,2022-01-29_05h41.56,lexical_decision_task_DD,2021.2.3,MacIntel,62.5,,,,,,,,,,,,0.915,1,,,,,,,,,,,,,,z,1,0.915,,,,,,,,0.144444444,-0.291111111,0,0,0,,0,46,46,93,1,SMONE,C,old,z,./images/SMONE.png,,,,,,,,,,,,,,,,,,,,,
,,,,,,,,,,,,,,,,,200023,18,2022-01-29_05h41.56,lexical_decision_task_DD,2021.2.3,MacIntel,62.5,,,,,,,,,,,,2.129,1,,,,,,,,,,,,,,m,1,2.129,,,,,,,,0.144444444,-0.291111111,0,0,0,,0,47,47,17,1,SKIING,LB,old,m,./images/SKIINGLB.png,,,,,,,,,,,,,,,,,,,,,
,,,,,,,,,,,,,,,,,200023,18,2022-01-29_05h41.56,lexical_decision_task_DD,2021.2.3,MacIntel,62.5,,,,,,,,,,,,0.795,1,,,,,,,,,,,,,,m,1,0.795,,,,,,,,0.144444444,-0.291111111,0,0,0,,0,48,48,36,1,THROAT,C,old,m,./images/THROAT.png,,,,,,,,,,,,,,,,,,,,,
,,,,,,,,,,,,,,,,,200023,18,2022-01-29_05h41.56,lexical_decision_task_DD,2021.2.3,MacIntel,62.5,,,,,,,,,,,,1.05,1,,,,,,,,,,,,,,z,1,1.05,,,,,,,,0.144444444,-0.291111111,0,0,0,,0,49,49,165,1,TROWN,C,old,z,./images/TROWN.png,,,,,,,,,,,,,,,,,,,,,
,,,,,,,,,,,,,,,,,200023,18,2022-01-29_05h41.56,lexical_decision_task_DD,2021.2.3,MacIntel,62.5,,,,,,,,,,,,1.008,1,,,,,,,,,,,,,,z,1,1.008,,,,,,,,0.144444444,-0.291111111,0,0,0,,0,50,50,139,1,BLEAR,HB,old,z,./images/BLEARHB.png,,,,,,,,,,,,,,,,,,,,,
,,,,,,,,,,,,,,,,,200023,18,2022-01-29_05h41.56,lexical_decision_task_DD,2021.2.3,MacIntel,62.5,,,,,,,,,,,,0.772,1,,,,,,,,,,,,,,z,1,0.772,,,,,,,,0.144444444,-0.291111111,0,0,0,,0,51,51,122,1,BLOOT,LB,old,z,./images/BLOOTLB.png,,,,,,,,,,,,,,,,,,,,,
,,,,,,,,,,,,,,,,,200023,18,2022-01-29_05h41.56,lexical_decision_task_DD,2021.2.3,MacIntel,62.5,,,,,,,,,,,,0.745,1,,,,,,,,,,,,,,z,1,0.745,,,,,,,,0.144444444,-0.291111111,0,0,0,,0,52,52,92,1,PAIMS,LB,old,z,./images/PAIMSLB.png,,,,,,,,,,,,,,,,,,,,,
,,,,,,,,,,,,,,,,,200023,18,2022-01-29_05h41.56,lexical_decision_task_DD,2021.2.3,MacIntel,62.5,,,,,,,,,,,,0.8,1,,,,,,,,,,,,,,m,1,0.8,,,,,,,,0.144444444,-0.291111111,0,0,0,,0,53,53,53,1,CARPET,LB,old,m,./images/CARPETLB.png,,,,,,,,,,,,,,,,,,,,,
,,,,,,,,,,,,,,,,,200023,18,2022-01-29_05h41.56,lexical_decision_task_DD,2021.2.3,MacIntel,62.5,,,,,,,,,,,,0.714,1,,,,,,,,,,,,,,z,1,0.714,,,,,,,,0.144444444,-0.291111111,0,0,0,,0,54,54,94,1,BLANS,HB,old,z,./images/BLANSHB.png,,,,,,,,,,,,,,,,,,,,,
,,,,,,,,,,,,,,,,,200023,18,2022-01-29_05h41.56,lexical_decision_task_DD,2021.2.3,MacIntel,62.5,,,,,,,,,,,,1.139,1,,,,,,,,,,,,,,m,1,1.139,,,,,,,,0.144444444,-0.291111111,0,0,0,,0,55,55,51,1,ONION,C,old,m,./images/ONION.png,,,,,,,,,,,,,,,,,,,,,
,,,,,,,,,,,,,,,,,200023,18,2022-01-29_05h41.56,lexical_decision_task_DD,2021.2.3,MacIntel,62.5,,,,,,,,,,,,0.812,1,,,,,,,,,,,,,,m,1,0.812,,,,,,,,0.144444444,-0.291111111,0,0,0,,0,56,56,18,1,JAGUAR,C,old,m,./images/JAGUAR.png,,,,,,,,,,,,,,,,,,,,,
,,,,,,,,,,,,,,,,,200023,18,2022-01-29_05h41.56,lexical_decision_task_DD,2021.2.3,MacIntel,62.5,,,,,,,,,,,,0.847,1,,,,,,,,,,,,,,z,1,0.847,,,,,,,,0.144444444,-0.291111111,0,0,0,,0,57,57,163,1,GAMBA,HB,old,z,./images/GAMBAHB.png,,,,,,,,,,,,,,,,,,,,,
,,,,,,,,,,,,,,,,,200023,18,2022-01-29_05h41.56,lexical_decision_task_DD,2021.2.3,MacIntel,62.5,,,,,,,,,,,,2.479,1,,,,,,,,,,,,,,z,1,2.479,,,,,,,,0.144444444,-0.291111111,0,0,0,,0,58,58,157,1,INLER,HB,old,z,./images/INLERHB.png,,,,,,,,,,,,,,,,,,,,,
,,,,,,,,,,,,,,,,,200023,18,2022-01-29_05h41.56,lexical_decision_task_DD,2021.2.3,MacIntel,62.5,,,,,,,,,,,,0.741,1,,,,,,,,,,,,,,m,1,0.741,,,,,,,,0.144444444,-0.291111111,0,0,0,,0,59,59,56,1,PACKET,LB,old,m,./images/PACKETLB.png,,,,,,,,,,,,,,,,,,,,,
,,,,,,,,,,,,,,,,,200023,18,2022-01-29_05h41.56,lexical_decision_task_DD,2021.2.3,MacIntel,62.5,,,,,,,,,,,,0.965,1,,,,,,,,,,,,,,z,1,0.965,,,,,,,,0.144444444,-0.291111111,0,0,0,,0,60,60,111,1,HOSSE,C,old,z,./images/HOSSE.png,,,,,,,,,,,,,,,,,,,,,
,,,,,,,,,,,,,,,,,200023,18,2022-01-29_05h41.56,lexical_decision_task_DD,2021.2.3,MacIntel,62.5,,,,,,,,,,,,0.866,1,,,,,,,,,,,,,,z,1,0.866,,,,,,,,0.144444444,-0.291111111,0,0,0,,0,61,61,164,1,SGREW,LB,old,z,./images/SGREWLB.png,,,,,,,,,,,,,,,,,,,,,
,,,,,,,,,,,,,,,,,200023,18,2022-01-29_05h41.56,lexical_decision_task_DD,2021.2.3,MacIntel,62.5,,,,,,,,,,,,1.075,1,,,,,,,,,,,,,,m,1,1.075,,,,,,,,0.144444444,-0.291111111,0,0,0,,0,62,62,11,1,BONNET,LB,old,m,./images/BONNETLB.png,,,,,,,,,,,,,,,,,,,,,
,,,,,,,,,,,,,,,,,200023,18,2022-01-29_05h41.56,lexical_decision_task_DD,2021.2.3,MacIntel,62.5,,,,,,,,,,,,0.946,1,,,,,,,,,,,,,,m,1,0.946,,,,,,,,0.144444444,-0.291111111,0,0,0,,0,63,63,33,1,MAGGOT,C,old,m,./images/MAGGOT.png,,,,,,,,,,,,,,,,,,,,,
,,,,,,,,,,,,,,,,,200023,18,2022-01-29_05h41.56,lexical_decision_task_DD,2021.2.3,MacIntel,62.5,,,,,,,,,,,,0.864,1,,,,,,,,,,,,,,m,1,0.864,,,,,,,,0.144444444,-0.291111111,0,0,0,,0,64,64,82,1,SUNSET,HB,old,m,./images/SUNSETHB.png,,,,,,,,,,,,,,,,,,,,,
,,,,,,,,,,,,,,,,,200023,18,2022-01-29_05h41.56,lexical_decision_task_DD,2021.2.3,MacIntel,62.5,,,,,,,,,,,,1.231,1,,,,,,,,,,,,,,m,1,1.231,,,,,,,,0.144444444,-0.291111111,0,0,0,,0,65,65,49,1,DRUMS,HB,old,m,./images/DRUMSHB.png,,,,,,,,,,,,,,,,,,,,,
,,,,,,,,,,,,,,,,,200023,18,2022-01-29_05h41.56,lexical_decision_task_DD,2021.2.3,MacIntel,62.5,,,,,,,,,,,,0.78,1,,,,,,,,,,,,,,m,1,0.78,,,,,,,,0.144444444,-0.291111111,0,0,0,,0,66,66,34,1,CANYON,HB,old,m,./images/CANYONHB.png,,,,,,,,,,,,,,,,,,,,,
,,,,,,,,,,,,,,,,,200023,18,2022-01-29_05h41.56,lexical_decision_task_DD,2021.2.3,MacIntel,62.5,,,,,,,,,,,,0.914,1,,,,,,,,,,,,,,z,1,0.914,,,,,,,,0.144444444,-0.291111111,0,0,0,,0,67,67,105,1,MOKER,C,old,z,./images/MOKER.png,,,,,,,,,,,,,,,,,,,,,
,,,,,,,,,,,,,,,,,200023,18,2022-01-29_05h41.56,lexical_decision_task_DD,2021.2.3,MacIntel,62.5,,,,,,,,,,,,0.979,1,,,,,,,,,,,,,,z,1,0.979,,,,,,,,0.144444444,-0.291111111,0,0,0,,0,68,68,104,1,GITTY,LB,old,z,./images/GITTYLB.png,,,,,,,,,,,,,,,,,,,,,
,,,,,,,,,,,,,,,,,200023,18,2022-01-29_05h41.56,lexical_decision_task_DD,2021.2.3,MacIntel,62.5,,,,,,,,,,,,0.731,1,,,,,,,,,,,,,,m,1,0.731,,,,,,,,0.144444444,-0.291111111,0,0,0,,0,69,69,9,1,RHINO,C,old,m,./images/RHINO.png,,,,,,,,,,,,,,,,,,,,,
,,,,,,,,,,,,,,,,,200023,18,2022-01-29_05h41.56,lexical_decision_task_DD,2021.2.3,MacIntel,62.5,,,,,,,,,,,,0.773,1,,,,,,,,,,,,,,z,1,0.773,,,,,,,,0.144444444,-0.291111111,0,0,0,,0,70,70,108,1,GRUET,C,old,z,./images/GRUET.png,,,,,,,,,,,,,,,,,,,,,
,,,,,,,,,,,,,,,,,200023,18,2022-01-29_05h41.56,lexical_decision_task_DD,2021.2.3,MacIntel,62.5,,,,,,,,,,,,0.756,1,,,,,,,,,,,,,,z,1,0.756,,,,,,,,0.144444444,-0.291111111,0,0,0,,0,71,71,161,1,BLAPS,LB,old,z,./images/BLAPSLB.png,,,,,,,,,,,,,,,,,,,,,
,,,,,,,,,,,,,,,,,200023,18,2022-01-29_05h41.56,lexical_decision_task_DD,2021.2.3,MacIntel,62.5,,,,,,,,,,,,0.891,1,,,,,,,,,,,,,,m,1,0.891,,,,,,,,0.144444444,-0.291111111,0,0,0,,0,72,72,81,1,POODLE,C,old,m,./images/POODLE.png,,,,,,,,,,,,,,,,,,,,,
,,,,,,,,,,,,,,,,,200023,18,2022-01-29_05h41.56,lexical_decision_task_DD,2021.2.3,MacIntel,62.5,,,,,,,,,,,,0.732,1,,,,,,,,,,,,,,z,1,0.732,,,,,,,,0.144444444,-0.291111111,0,0,0,,0,73,73,129,1,PRANS,C,old,z,./images/PRANS.png,,,,,,,,,,,,,,,,,,,,,
,,,,,,,,,,,,,,,,,200023,18,2022-01-29_05h41.56,lexical_decision_task_DD,2021.2.3,MacIntel,62.5,,,,,,,,,,,,0.772,1,,,,,,,,,,,,,,z,1,0.772,,,,,,,,0.144444444,-0.291111111,0,0,0,,0,74,74,110,1,CRUNK,LB,old,z,./images/CRUNKLB.png,,,,,,,,,,,,,,,,,,,,,
,,,,,,,,,,,,,,,,,200023,18,2022-01-29_05h41.56,lexical_decision_task_DD,2021.2.3,MacIntel,62.5,,,,,,,,,,,,1.742,1,,,,,,,,,,,,,,z,1,1.742,,,,,,,,0.144444444,-0.291111111,0,0,0,,0,75,75,140,1,DOVET,LB,old,z,./images/DOVETLB.png,,,,,,,,,,,,,,,,,,,,,
,,,,,,,,,,,,,,,,,200023,18,2022-01-29_05h41.56,lexical_decision_task_DD,2021.2.3,MacIntel,62.5,,,,,,,,,,,,0.663,1,,,,,,,,,,,,,,m,1,0.663,,,,,,,,0.144444444,-0.291111111,0,0,0,,0,76,76,14,1,PICKLE,LB,old,m,./images/PICKLELB.png,,,,,,,,,,,,,,,,,,,,,
,,,,,,,,,,,,,,,,,200023,18,2022-01-29_05h41.56,lexical_decision_task_DD,2021.2.3,MacIntel,62.5,,,,,,,,,,,,1.114,1,,,,,,,,,,,,,,z,1,1.114,,,,,,,,0.144444444,-0.291111111,0,0,0,,0,77,77,127,1,NINDY,HB,old,z,./images/NINDYHB.png,,,,,,,,,,,,,,,,,,,,,
,,,,,,,,,,,,,,,,,200023,18,2022-01-29_05h41.56,lexical_decision_task_DD,2021.2.3,MacIntel,62.5,,,,,,,,,,,,0.862,1,,,,,,,,,,,,,,z,1,0.862,,,,,,,,0.144444444,-0.291111111,0,0,0,,0,78,78,159,1,CUDDY,C,old,z,./images/CUDDY.png,,,,,,,,,,,,,,,,,,,,,
,,,,,,,,,,,,,,,,,200023,18,2022-01-29_05h41.56,lexical_decision_task_DD,2021.2.3,MacIntel,62.5,,,,,,,,,,,,2.413,1,,,,,,,,,,,,,,m,1,2.413,,,,,,,,0.144444444,-0.291111111,0,0,0,,0,79,79,13,1,MOTOR,HB,old,m,./images/MOTORHB.png,,,,,,,,,,,,,,,,,,,,,
,,,,,,,,,,,,,,,,,200023,18,2022-01-29_05h41.56,lexical_decision_task_DD,2021.2.3,MacIntel,62.5,,,,,,,,,,,,1.276,1,,,,,,,,,,,,,,m,1,1.276,,,,,,,,0.144444444,-0.291111111,0,0,0,,0,80,80,61,1,CANDLE,HB,old,m,./images/CANDLEHB.png,,,,,,,,,,,,,,,,,,,,,
,,,,,,,,,,,,,,,,,200023,18,2022-01-29_05h41.56,lexical_decision_task_DD,2021.2.3,MacIntel,62.5,,,,,,,,,,,,0.972,1,,,,,,,,,,,,,,z,1,0.972,,,,,,,,0.144444444,-0.291111111,0,0,0,,0,81,81,148,1,JOMS,HB,old,z,./images/JOMSHB.png,,,,,,,,,,,,,,,,,,,,,
,,,,,,,,,,,,,,,,,200023,18,2022-01-29_05h41.56,lexical_decision_task_DD,2021.2.3,MacIntel,62.5,,,,,,,,,,,,1.223,1,,,,,,,,,,,,,,z,1,1.223,,,,,,,,0.144444444,-0.291111111,0,0,0,,0,82,82,112,1,MYING,HB,old,z,./images/MYINGHB.png,,,,,,,,,,,,,,,,,,,,,
,,,,,,,,,,,,,,,,,200023,18,2022-01-29_05h41.56,lexical_decision_task_DD,2021.2.3,MacIntel,62.5,,,,,,,,,,,,0.872,1,,,,,,,,,,,,,,z,1,0.872,,,,,,,,0.144444444,-0.291111111,0,0,0,space,0,83,83,103,1,FLORT,HB,old,z,./images/FLORTHB.png,1.733,,,,,,,,,,,,,,,,,,,,
,,,,,,,,,,,,,,,,,200023,18,2022-01-29_05h41.56,lexical_decision_task_DD,2021.2.3,MacIntel,62.5,,,,,,,,,,,,0.782,1,,,,,,,,,,,,,,m,1,0.782,,,,,,,,0.144444444,-0.291111111,0,0,0,,0,84,84,35,1,PEACH,LB,old,m,./images/PEACHLB.png,,,,,,,,,,,,,,,,,,,,,
,,,,,,,,,,,,,,,,,200023,18,2022-01-29_05h41.56,lexical_decision_task_DD,2021.2.3,MacIntel,62.5,,,,,,,,,,,,3.357,1,,,,,,,,,,,,,,m,1,3.357,,,,,,,,0.144444444,-0.291111111,0,0,0,,0,85,85,62,1,PURSE,LB,old,m,./images/PURSELB.png,,,,,,,,,,,,,,,,,,,,,
,,,,,,,,,,,,,,,,,200023,18,2022-01-29_05h41.56,lexical_decision_task_DD,2021.2.3,MacIntel,62.5,,,,,,,,,,,,0.724,1,,,,,,,,,,,,,,m,1,0.724,,,,,,,,0.144444444,-0.291111111,0,0,0,,0,86,86,69,1,COOKER,C,old,m,./images/COOKER.png,,,,,,,,,,,,,,,,,,,,,
,,,,,,,,,,,,,,,,,200023,18,2022-01-29_05h41.56,lexical_decision_task_DD,2021.2.3,MacIntel,62.5,,,,,,,,,,,,0.975,1,,,,,,,,,,,,,,m,1,0.975,,,,,,,,0.144444444,-0.291111111,0,0,0,,0,87,87,83,1,JUNGLE,LB,old,m,./images/JUNGLELB.png,,,,,,,,,,,,,,,,,,,,,
,,,,,,,,,,,,,,,,,200023,18,2022-01-29_05h41.56,lexical_decision_task_DD,2021.2.3,MacIntel,62.5,,,,,,,,,,,,0.738,1,,,,,,,,,,,,,,m,1,0.738,,,,,,,,0.144444444,-0.291111111,0,0,0,,0,88,88,78,1,LITTER,C,old,m,./images/LITTER.png,,,,,,,,,,,,,,,,,,,,,
,,,,,,,,,,,,,,,,,200023,18,2022-01-29_05h41.56,lexical_decision_task_DD,2021.2.3,MacIntel,62.5,,,,,,,,,,,,0.731,1,,,,,,,,,,,,,,z,1,0.731,,,,,,,,0.144444444,-0.291111111,0,0,0,,0,89,89,96,1,KEAMS,C,old,z,./images/KEAMS.png,,,,,,,,,,,,,,,,,,,,,
,,,,,,,,,,,,,,,,,200023,18,2022-01-29_05h41.56,lexical_decision_task_DD,2021.2.3,MacIntel,62.5,,,,,,,,,,,,1.564,1,,,,,,,,,,,,,,m,1,1.564,,,,,,,,0.144444444,-0.291111111,0,0,0,,0,90,90,52,1,BANNER,HB,old,m,./images/BANNERHB.png,,,,,,,,,,,,,,,,,,,,,
,,,,,,,,,,,,,,,,,200023,18,2022-01-29_05h41.56,lexical_decision_task_DD,2021.2.3,MacIntel,62.5,,,,,,,,,,,,1.458,1,,,,,,,,,,,,,,z,1,1.458,,,,,,,,0.144444444,-0.291111111,0,0,0,,0,91,91,153,1,CLUPS,C,old,z,./images/CLUPS.png,,,,,,,,,,,,,,,,,,,,,
,,,,,,,,,,,,,,,,,200023,18,2022-01-29_05h41.56,lexical_decision_task_DD,2021.2.3,MacIntel,62.5,,,,,,,,,,,,0.747,1,,,,,,,,,,,,,,m,1,0.747,,,,,,,,0.144444444,-0.291111111,0,0,0,,0,92,92,57,1,MOOSE,C,old,m,./images/MOOSE.png,,,,,,,,,,,,,,,,,,,,,
,,,,,,,,,,,,,,,,,200023,18,2022-01-29_05h41.56,lexical_decision_task_DD,2021.2.3,MacIntel,62.5,,,,,,,,,,,,0.763,1,,,,,,,,,,,,,,z,1,0.763,,,,,,,,0.144444444,-0.291111111,0,0,0,,0,93,93,95,1,HANTY,LB,old,z,./images/HANTYLB.png,,,,,,,,,,,,,,,,,,,,,
,,,,,,,,,,,,,,,,,200023,18,2022-01-29_05h41.56,lexical_decision_task_DD,2021.2.3,MacIntel,62.5,,,,,,,,,,,,0.881,1,,,,,,,,,,,,,,m,1,0.881,,,,,,,,0.144444444,-0.291111111,0,0,0,,0,94,94,37,1,BIRTH,HB,old,m,./images/BIRTHHB.png,,,,,,,,,,,,,,,,,,,,,
,,,,,,,,,,,,,,,,,200023,18,2022-01-29_05h41.56,lexical_decision_task_DD,2021.2.3,MacIntel,62.5,,,,,,,,,,,,0.689,1,,,,,,,,,,,,,,m,1,0.689,,,,,,,,0.144444444,-0.291111111,0,0,0,,0,95,95,71,1,PIMPLE,LB,old,m,./images/PIMPLELB.png,,,,,,,,,,,,,,,,,,,,,
,,,,,,,,,,,,,,,,,200023,18,2022-01-29_05h41.56,lexical_decision_task_DD,2021.2.3,MacIntel,62.5,,,,,,,,,,,,0.726,1,,,,,,,,,,,,,,m,1,0.726,,,,,,,,0.144444444,-0.291111111,0,0,0,,0,96,96,42,1,FOLDER,C,old,m,./images/FOLDER.png,,,,,,,,,,,,,,,,,,,,,
,,,,,,,,,,,,,,,,,200023,18,2022-01-29_05h41.56,lexical_decision_task_DD,2021.2.3,MacIntel,62.5,,,,,,,,,,,,1.399,1,,,,,,,,,,,,,,z,1,1.399,,,,,,,,0.144444444,-0.291111111,0,0,0,,0,97,97,113,1,LINEW,LB,old,z,./images/LINEWLB.png,,,,,,,,,,,,,,,,,,,,,
,,,,,,,,,,,,,,,,,200023,18,2022-01-29_05h41.56,lexical_decision_task_DD,2021.2.3,MacIntel,62.5,,,,,,,,,,,,0.863,1,,,,,,,,,,,,,,z,1,0.863,,,,,,,,0.144444444,-0.291111111,0,0,0,,0,98,98,158,1,EGECT,LB,old,z,./images/EGECTLB.png,,,,,,,,,,,,,,,,,,,,,
,,,,,,,,,,,,,,,,,200023,18,2022-01-29_05h41.56,lexical_decision_task_DD,2021.2.3,MacIntel,62.5,,,,,,,,,,,,0.78,1,,,,,,,,,,,,,,z,1,0.78,,,,,,,,0.144444444,-0.291111111,0,0,0,,0,99,99,137,1,JOOST,LB,old,z,./images/JOOSTLB.png,,,,,,,,,,,,,,,,,,,,,
,,,,,,,,,,,,,,,,,200023,18,2022-01-29_05h41.56,lexical_decision_task_DD,2021.2.3,MacIntel,62.5,,,,,,,,,,,,0.743,1,,,,,,,,,,,,,,z,1,0.743,,,,,,,,0.144444444,-0.291111111,0,0,0,,0,100,100,150,1,NOOLS,C,old,z,./images/NOOLS.png,,,,,,,,,,,,,,,,,,,,,
,,,,,,,,,,,,,,,,,200023,18,2022-01-29_05h41.56,lexical_decision_task_DD,2021.2.3,MacIntel,62.5,,,,,,,,,,,,7.688,1,,,,,,,,,,,,,,z,1,7.688,,,,,,,,0.144444444,-0.291111111,0,0,0,,0,101,101,109,1,BURGE,HB,old,z,./images/BURGEHB.png,,,,,,,,,,,,,,,,,,,,,
,,,,,,,,,,,,,,,,,200023,18,2022-01-29_05h41.56,lexical_decision_task_DD,2021.2.3,MacIntel,62.5,,,,,,,,,,,,0.767,1,,,,,,,,,,,,,,z,1,0.767,,,,,,,,0.144444444,-0.291111111,0,0,0,,0,102,102,119,1,PAFER,LB,old,z,./images/PAFERLB.png,,,,,,,,,,,,,,,,,,,,,
,,,,,,,,,,,,,,,,,200023,18,2022-01-29_05h41.56,lexical_decision_task_DD,2021.2.3,MacIntel,62.5,,,,,,,,,,,,1.427,1,,,,,,,,,,,,,,m,1,1.427,,,,,,,,0.144444444,-0.291111111,0,0,0,,0,103,103,68,1,TORCH,LB,old,m,./images/TORCHLB.png,,,,,,,,,,,,,,,,,,,,,
,,,,,,,,,,,,,,,,,200023,18,2022-01-29_05h41.56,lexical_decision_task_DD,2021.2.3,MacIntel,62.5,,,,,,,,,,,,0.756,1,,,,,,,,,,,,,,z,1,0.756,,,,,,,,0.144444444,-0.292222222,0,0,0,,0,104,104,107,1,FASKS,LB,old,z,./images/FASKSLB.png,,,,,,,,,,,,,,,,,,,,,
,,,,,,,,,,,,,,,,,200023,18,2022-01-29_05h41.56,lexical_decision_task_DD,2021.2.3,MacIntel,62.5,,,,,,,,,,,,0.762,1,,,,,,,,,,,,,,m,1,0.762,,,,,,,,0.144444444,-0.292222222,0,0,0,,0,105,105,12,1,SHORE,C,old,m,./images/SHORE.png,,,,,,,,,,,,,,,,,,,,,
,,,,,,,,,,,,,,,,,200023,18,2022-01-29_05h41.56,lexical_decision_task_DD,2021.2.3,MacIntel,62.5,,,,,,,,,,,,2.024,1,,,,,,,,,,,,,,z,1,2.024,,,,,,,,0.144444444,-0.292222222,0,0,0,,0,106,106,135,1,JOODY,C,old,z,./images/JOODY.png,,,,,,,,,,,,,,,,,,,,,
,,,,,,,,,,,,,,,,,200023,18,2022-01-29_05h41.56,lexical_decision_task_DD,2021.2.3,MacIntel,62.5,,,,,,,,,,,,0.766,1,,,,,,,,,,,,,,m,1,0.766,,,,,,,,0.144444444,-0.292222222,0,0,0,,0,107,107,63,1,MIRROR,C,old,m,./images/MIRROR.png,,,,,,,,,,,,,,,,,,,,,
,,,,,,,,,,,,,,,,,200023,18,2022-01-29_05h41.56,lexical_decision_task_DD,2021.2.3,MacIntel,62.5,,,,,,,,,,,,0.74,1,,,,,,,,,,,,,,z,1,0.74,,,,,,,,0.144444444,-0.292222222,0,0,0,,0,108,108,123,1,SEDGE,C,old,z,./images/SEDGE.png,,,,,,,,,,,,,,,,,,,,,
,,,,,,,,,,,,,,,,,200023,18,2022-01-29_05h41.56,lexical_decision_task_DD,2021.2.3,MacIntel,62.5,,,,,,,,,,,,1.44,1,,,,,,,,,,,,,,m,1,1.44,,,,,,,,0.144444444,-0.292222222,0,0,0,,0,109,109,73,1,SNACK,HB,old,m,./images/SNACKHB.png,,,,,,,,,,,,,,,,,,,,,
,,,,,,,,,,,,,,,,,200023,18,2022-01-29_05h41.56,lexical_decision_task_DD,2021.2.3,MacIntel,62.5,,,,,,,,,,,,1.531,1,,,,,,,,,,,,,,z,1,1.531,,,,,,,,0.144444444,-0.292222222,0,0,0,,0,110,110,90,1,NEAST,C,old,z,./images/NEAST.png,,,,,,,,,,,,,,,,,,,,,
,,,,,,,,,,,,,,,,,200023,18,2022-01-29_05h41.56,lexical_decision_task_DD,2021.2.3,MacIntel,62.5,,,,,,,,,,,,0.915,1,,,,,,,,,,,,,,z,1,0.915,,,,,,,,0.144444444,-0.292222222,0,0,0,,0,111,111,162,1,LEICH,C,old,z,./images/LEICH.png,,,,,,,,,,,,,,,,,,,,,
,,,,,,,,,,,,,,,,,200023,18,2022-01-29_05h41.56,lexical_decision_task_DD,2021.2.3,MacIntel,62.5,,,,,,,,,,,,1.36,1,,,,,,,,,,,,,,z,1,1.36,,,,,,,,0.144444444,-0.292222222,0,0,0,,0,112,112,91,1,SHENS,HB,old,z,./images/SHENSHB.png,,,,,,,,,,,,,,,,,,,,,
,,,,,,,,,,,,,,,,,200023,18,2022-01-29_05h41.56,lexical_decision_task_DD,2021.2.3,MacIntel,62.5,,,,,,,,,,,,0.781,1,,,,,,,,,,,,,,z,1,0.781,,,,,,,,0.144444444,-0.292222222,0,0,0,,0,113,113,167,1,ZONET,LB,old,z,./images/ZONETLB.png,,,,,,,,,,,,,,,,,,,,,
,,,,,,,,,,,,,,,,,200023,18,2022-01-29_05h41.56,lexical_decision_task_DD,2021.2.3,MacIntel,62.5,,,,,,,,,,,,0.88,1,,,,,,,,,,,,,,z,1,0.88,,,,,,,,0.144444444,-0.292222222,0,0,0,,0,114,114,160,1,VEETS,HB,old,z,./images/VEETSHB.png,,,,,,,,,,,,,,,,,,,,,
,,,,,,,,,,,,,,,,,200023,18,2022-01-29_05h41.56,lexical_decision_task_DD,2021.2.3,MacIntel,62.5,,,,,,,,,,,,0.925,1,,,,,,,,,,,,,,m,1,0.925,,,,,,,,0.144444444,-0.292222222,0,0,0,,0,115,115,64,1,JELLY,HB,old,m,./images/JELLYHB.png,,,,,,,,,,,,,,,,,,,,,
,,,,,,,,,,,,,,,,,200023,18,2022-01-29_05h41.56,lexical_decision_task_DD,2021.2.3,MacIntel,62.5,,,,,,,,,,,,1.974,1,,,,,,,,,,,,,,m,1,1.974,,,,,,,,0.144444444,-0.292222222,0,0,0,,0,116,116,3,1,FINGER,C,old,m,./images/FINGER.png,,,,,,,,,,,,,,,,,,,,,
,,,,,,,,,,,,,,,,,200023,18,2022-01-29_05h41.56,lexical_decision_task_DD,2021.2.3,MacIntel,62.5,,,,,,,,,,,,1.266,1,,,,,,,,,,,,,,m,1,1.266,,,,,,,,0.144444444,-0.292222222,0,0,0,,0,117,117,45,1,KITTEN,C,old,m,./images/KITTEN.png,,,,,,,,,,,,,,,,,,,,,
,,,,,,,,,,,,,,,,,200023,18,2022-01-29_05h41.56,lexical_decision_task_DD,2021.2.3,MacIntel,62.5,,,,,,,,,,,,1.498,1,,,,,,,,,,,,,,m,1,1.498,,,,,,,,0.144444444,-0.292222222,0,0,0,,0,118,118,2,1,BEARD,LB,old,m,./images/BEARDLB.png,,,,,,,,,,,,,,,,,,,,,
,,,,,,,,,,,,,,,,,200023,18,2022-01-29_05h41.56,lexical_decision_task_DD,2021.2.3,MacIntel,62.5,,,,,,,,,,,,1.316,1,,,,,,,,,,,,,,m,1,1.316,,,,,,,,0.144444444,-0.292222222,0,0,0,,0,119,119,72,1,NOOSE,C,old,m,./images/NOOSE.png,,,,,,,,,,,,,,,,,,,,,
,,,,,,,,,,,,,,,,,200023,18,2022-01-29_05h41.56,lexical_decision_task_DD,2021.2.3,MacIntel,62.5,,,,,,,,,,,,1.573,1,,,,,,,,,,,,,,m,1,1.573,,,,,,,,0.144444444,-0.292222222,0,0,0,,0,120,120,55,1,MUFFIN,HB,old,m,./images/MUFFINHB.png,,,,,,,,,,,,,,,,,,,,,
,,,,,,,,,,,,,,,,,200023,18,2022-01-29_05h41.56,lexical_decision_task_DD,2021.2.3,MacIntel,62.5,,,,,,,,,,,,0.942,1,,,,,,,,,,,,,,z,1,0.942,,,,,,,,0.144444444,-0.292222222,0,0,0,,0,121,121,136,1,WERVE,HB,old,z,./images/WERVEHB.png,,,,,,,,,,,,,,,,,,,,,
,,,,,,,,,,,,,,,,,200023,18,2022-01-29_05h41.56,lexical_decision_task_DD,2021.2.3,MacIntel,62.5,,,,,,,,,,,,2.329,1,,,,,,,,,,,,,,m,1,2.329,,,,,,,,0.144444444,-0.292222222,0,0,0,,0,122,122,20,1,CRADLE,LB,old,m,./images/CRADLELB.png,,,,,,,,,,,,,,,,,,,,,
,,,,,,,,,,,,,,,,,200023,18,2022-01-29_05h41.56,lexical_decision_task_DD,2021.2.3,MacIntel,62.5,,,,,,,,,,,,0.683,1,,,,,,,,,,,,,,m,1,0.683,,,,,,,,0.144444444,-0.292222222,0,0,0,,0,123,123,75,1,GRAIN,C,old,m,./images/GRAIN.png,,,,,,,,,,,,,,,,,,,,,
,,,,,,,,,,,,,,,,,200023,18,2022-01-29_05h41.56,lexical_decision_task_DD,2021.2.3,MacIntel,62.5,,,,,,,,,,,,0.857,1,,,,,,,,,,,,,,z,1,0.857,,,,,,,,0.144444444,-0.292222222,0,0,0,,0,124,124,102,1,DULLE,C,old,z,./images/DULLE.png,,,,,,,,,,,,,,,,,,,,,
,,,,,,,,,,,,,,,,,200023,18,2022-01-29_05h41.56,lexical_decision_task_DD,2021.2.3,MacIntel,62.5,,,,,,,,,,,,3.406,1,,,,,,,,,,,,,,z,1,3.406,,,,,,,,0.144444444,-0.292222222,0,0,0,space,0,125,125,115,1,MAWNS,HB,old,z,./images/MAWNSHB.png,2.742,,,,,,,,,,,,,,,,,,,,
,,,,,,,,,,,,,,,,,200023,18,2022-01-29_05h41.56,lexical_decision_task_DD,2021.2.3,MacIntel,62.5,,,,,,,,,,,,1.85,1,,,,,,,,,,,,,,z,1,1.85,,,,,,,,0.144444444,-0.292222222,0,0,0,,0,126,126,120,1,RINED,C,old,z,./images/RINED.png,,,,,,,,,,,,,,,,,,,,,
,,,,,,,,,,,,,,,,,200023,18,2022-01-29_05h41.56,lexical_decision_task_DD,2021.2.3,MacIntel,62.5,,,,,,,,,,,,0.947,1,,,,,,,,,,,,,,m,1,0.947,,,,,,,,0.144444444,-0.292222222,0,0,0,,0,127,127,66,1,SWEAT,C,old,m,./images/SWEAT.png,,,,,,,,,,,,,,,,,,,,,
,,,,,,,,,,,,,,,,,200023,18,2022-01-29_05h41.56,lexical_decision_task_DD,2021.2.3,MacIntel,62.5,,,,,,,,,,,,0.946,1,,,,,,,,,,,,,,z,1,0.946,,,,,,,,0.144444444,-0.292222222,0,0,0,,0,128,128,142,1,PLASK,HB,old,z,./images/PLASKHB.png,,,,,,,,,,,,,,,,,,,,,
,,,,,,,,,,,,,,,,,200023,18,2022-01-29_05h41.56,lexical_decision_task_DD,2021.2.3,MacIntel,62.5,,,,,,,,,,,,0.983,1,,,,,,,,,,,,,,z,1,0.983,,,,,,,,0.144444444,-0.292222222,0,0,0,,0,129,129,121,1,CEERS,HB,old,z,./images/CEERSHB.png,,,,,,,,,,,,,,,,,,,,,
,,,,,,,,,,,,,,,,,200023,18,2022-01-29_05h41.56,lexical_decision_task_DD,2021.2.3,MacIntel,62.5,,,,,,,,,,,,0.824,1,,,,,,,,,,,,,,m,1,0.824,,,,,,,,0.144444444,-0.292222222,0,0,0,,0,130,130,7,1,PAINT,HB,old,m,./images/PAINTHB.png,,,,,,,,,,,,,,,,,,,,,
,,,,,,,,,,,,,,,,,200023,18,2022-01-29_05h41.56,lexical_decision_task_DD,2021.2.3,MacIntel,62.5,,,,,,,,,,,,0.72,1,,,,,,,,,,,,,,z,1,0.72,,,,,,,,0.144444444,-0.292222222,0,0,0,,0,131,131,117,1,STEEG,C,old,z,./images/STEEG.png,,,,,,,,,,,,,,,,,,,,,
,,,,,,,,,,,,,,,,,200023,18,2022-01-29_05h41.56,lexical_decision_task_DD,2021.2.3,MacIntel,62.5,,,,,,,,,,,,2.315,1,,,,,,,,,,,,,,m,1,2.315,,,,,,,,0.144444444,-0.292222222,0,0,0,,0,132,132,22,1,MELON,HB,old,m,./images/MELONHB.png,,,,,,,,,,,,,,,,,,,,,
,,,,,,,,,,,,,,,,,200023,18,2022-01-29_05h41.56,lexical_decision_task_DD,2021.2.3,MacIntel,62.5,,,,,,,,,,,,0.614,1,,,,,,,,,,,,,,m,1,0.614,,,,,,,,0.144444444,-0.292222222,0,0,0,,0,133,133,0,1,TOMATO,C,old,m,./images/TOMATO.png,,,,,,,,,,,,,,,,,,,,,
,,,,,,,,,,,,,,,,,200023,18,2022-01-29_05h41.56,lexical_decision_task_DD,2021.2.3,MacIntel,62.5,,,,,,,,,,,,1.029,1,,,,,,,,,,,,,,m,1,1.029,,,,,,,,0.144444444,-0.292222222,0,0,0,,0,134,134,50,1,MALLET,LB,old,m,./images/MALLETLB.png,,,,,,,,,,,,,,,,,,,,,
,,,,,,,,,,,,,,,,,200023,18,2022-01-29_05h41.56,lexical_decision_task_DD,2021.2.3,MacIntel,62.5,,,,,,,,,,,,1.014,1,,,,,,,,,,,,,,z,1,1.014,,,,,,,,0.144444444,-0.292222222,0,0,0,,0,135,135,152,1,FRAIN,LB,old,z,./images/FRAINLB.png,,,,,,,,,,,,,,,,,,,,,
,,,,,,,,,,,,,,,,,200023,18,2022-01-29_05h41.56,lexical_decision_task_DD,2021.2.3,MacIntel,62.5,,,,,,,,,,,,0.706,1,,,,,,,,,,,,,,z,1,0.706,,,,,,,,0.144444444,-0.292222222,0,0,0,,0,136,136,101,1,GLEET,LB,old,z,./images/GLEETLB.png,,,,,,,,,,,,,,,,,,,,,
,,,,,,,,,,,,,,,,,200023,18,2022-01-29_05h41.56,lexical_decision_task_DD,2021.2.3,MacIntel,62.5,,,,,,,,,,,,0.796,1,,,,,,,,,,,,,,m,1,0.796,,,,,,,,0.144444444,-0.292222222,0,0,0,,0,137,137,10,1,BELLY,HB,old,m,./images/BELLYHB.png,,,,,,,,,,,,,,,,,,,,,
,,,,,,,,,,,,,,,,,200023,18,2022-01-29_05h41.56,lexical_decision_task_DD,2021.2.3,MacIntel,62.5,,,,,,,,,,,,0.696,1,,,,,,,,,,,,,,m,1,0.696,,,,,,,,0.144444444,-0.292222222,0,0,0,,0,138,138,77,1,COUCH,LB,old,m,./images/COUCHLB.png,,,,,,,,,,,,,,,,,,,,,
,,,,,,,,,,,,,,,,,200023,18,2022-01-29_05h41.56,lexical_decision_task_DD,2021.2.3,MacIntel,62.5,,,,,,,,,,,,0.739,1,,,,,,,,,,,,,,m,1,0.739,,,,,,,,0.144444444,-0.292222222,0,0,0,,0,139,139,76,1,INFANT,HB,old,m,./images/INFANTHB.png,,,,,,,,,,,,,,,,,,,,,
,,,,,,,,,,,,,,,,,200023,18,2022-01-29_05h41.56,lexical_decision_task_DD,2021.2.3,MacIntel,62.5,,,,,,,,,,,,0.59,1,,,,,,,,,,,,,,m,1,0.59,,,,,,,,0.144444444,-0.292222222,0,0,0,,0,140,140,44,1,LIZARD,LB,old,m,./images/LIZARDLB.png,,,,,,,,,,,,,,,,,,,,,
,,,,,,,,,,,,,,,,,200023,18,2022-01-29_05h41.56,lexical_decision_task_DD,2021.2.3,MacIntel,62.5,,,,,,,,,,,,2.541,1,,,,,,,,,,,,,,z,1,2.541,,,,,,,,0.144444444,-0.292222222,0,0,0,,0,141,141,151,1,TINKY,HB,old,z,./images/TINKYHB.png,,,,,,,,,,,,,,,,,,,,,
,,,,,,,,,,,,,,,,,200023,18,2022-01-29_05h41.56,lexical_decision_task_DD,2021.2.3,MacIntel,62.5,,,,,,,,,,,,0.764,1,,,,,,,,,,,,,,z,1,0.764,,,,,,,,0.144444444,-0.292222222,0,0,0,,0,142,142,125,1,MOOKY,LB,old,z,./images/MOOKYLB.png,,,,,,,,,,,,,,,,,,,,,
,,,,,,,,,,,,,,,,,200023,18,2022-01-29_05h41.56,lexical_decision_task_DD,2021.2.3,MacIntel,62.5,,,,,,,,,,,,0.614,1,,,,,,,,,,,,,,m,1,0.614,,,,,,,,0.144444444,-0.292222222,0,0,0,,0,143,143,30,1,STORM,C,old,m,./images/STORM.png,,,,,,,,,,,,,,,,,,,,,
,,,,,,,,,,,,,,,,,200023,18,2022-01-29_05h41.56,lexical_decision_task_DD,2021.2.3,MacIntel,62.5,,,,,,,,,,,,0.926,1,,,,,,,,,,,,,,m,1,0.926,,,,,,,,0.144444444,-0.292222222,0,0,0,,0,144,144,25,1,WRIST,HB,old,m,./images/WRISTHB.png,,,,,,,,,,,,,,,,,,,,,
,,,,,,,,,,,,,,,,,200023,18,2022-01-29_05h41.56,lexical_decision_task_DD,2021.2.3,MacIntel,62.5,,,,,,,,,,,,0.759,1,,,,,,,,,,,,,,m,1,0.759,,,,,,,,0.144444444,-0.292222222,0,0,0,,0,145,145,54,1,TRIPOD,C,old,m,./images/TRIPOD.png,,,,,,,,,,,,,,,,,,,,,
,,,,,,,,,,,,,,,,,200023,18,2022-01-29_05h41.56,lexical_decision_task_DD,2021.2.3,MacIntel,62.5,,,,,,,,,,,,0.866,1,,,,,,,,,,,,,,m,1,0.866,,,,,,,,0.144444444,-0.292222222,0,0,0,,0,146,146,80,1,WEASEL,LB,old,m,./images/WEASELLB.png,,,,,,,,,,,,,,,,,,,,,
,,,,,,,,,,,,,,,,,200023,18,2022-01-29_05h41.56,lexical_decision_task_DD,2021.2.3,MacIntel,62.5,,,,,,,,,,,,0.857,1,,,,,,,,,,,,,,m,1,0.857,,,,,,,,0.144444444,-0.292222222,0,0,0,,0,147,147,79,1,CRUST,HB,old,m,./images/CRUSTHB.png,,,,,,,,,,,,,,,,,,,,,
,,,,,,,,,,,,,,,,,200023,18,2022-01-29_05h41.56,lexical_decision_task_DD,2021.2.3,MacIntel,62.5,,,,,,,,,,,,0.796,1,,,,,,,,,,,,,,m,1,0.796,,,,,,,,0.144444444,-0.292222222,0,0,0,,0,148,148,4,1,MUSCLE,HB,old,m,./images/MUSCLEHB.png,,,,,,,,,,,,,,,,,,,,,
,,,,,,,,,,,,,,,,,200023,18,2022-01-29_05h41.56,lexical_decision_task_DD,2021.2.3,MacIntel,62.5,,,,,,,,,,,,0.731,1,,,,,,,,,,,,,,m,1,0.731,,,,,,,,0.144444444,-0.292222222,0,0,0,,0,149,149,40,1,SWING,HB,old,m,./images/SWINGHB.png,,,,,,,,,,,,,,,,,,,,,
,,,,,,,,,,,,,,,,,200023,18,2022-01-29_05h41.56,lexical_decision_task_DD,2021.2.3,MacIntel,62.5,,,,,,,,,,,,1.273,1,,,,,,,,,,,,,,m,1,1.273,,,,,,,,0.144444444,-0.292222222,0,0,0,,0,150,150,6,1,SQUARE,C,old,m,./images/SQUARE.png,,,,,,,,,,,,,,,,,,,,,
,,,,,,,,,,,,,,,,,200023,18,2022-01-29_05h41.56,lexical_decision_task_DD,2021.2.3,MacIntel,62.5,,,,,,,,,,,,0.772,1,,,,,,,,,,,,,,z,1,0.772,,,,,,,,0.144444444,-0.292222222,0,0,0,,0,151,151,87,1,TRING,C,old,z,./images/TRING.png,,,,,,,,,,,,,,,,,,,,,
,,,,,,,,,,,,,,,,,200023,18,2022-01-29_05h41.56,lexical_decision_task_DD,2021.2.3,MacIntel,62.5,,,,,,,,,,,,0.695,1,,,,,,,,,,,,,,m,1,0.695,,,,,,,,0.144444444,-0.292222222,0,0,0,,0,152,152,38,1,LADDER,LB,old,m,./images/LADDERLB.png,,,,,,,,,,,,,,,,,,,,,
,,,,,,,,,,,,,,,,,200023,18,2022-01-29_05h41.56,lexical_decision_task_DD,2021.2.3,MacIntel,62.5,,,,,,,,,,,,1.2,1,,,,,,,,,,,,,,m,1,1.2,,,,,,,,0.144444444,-0.292222222,0,0,0,,0,153,153,8,1,TULIP,LB,old,m,./images/TULIPLB.png,,,,,,,,,,,,,,,,,,,,,
,,,,,,,,,,,,,,,,,200023,18,2022-01-29_05h41.56,lexical_decision_task_DD,2021.2.3,MacIntel,62.5,,,,,,,,,,,,0.756,1,,,,,,,,,,,,,,z,1,0.756,,,,,,,,0.144444444,-0.292222222,0,0,0,,0,154,154,84,1,HAXES,C,old,z,./images/HAXES.png,,,,,,,,,,,,,,,,,,,,,
,,,,,,,,,,,,,,,,,200023,18,2022-01-29_05h41.56,lexical_decision_task_DD,2021.2.3,MacIntel,62.5,,,,,,,,,,,,1.212,1,,,,,,,,,,,,,,z,1,1.212,,,,,,,,0.144444444,-0.292222222,0,0,0,,0,155,155,97,1,CHIDS,HB,old,z,./images/CHIDSHB.png,,,,,,,,,,,,,,,,,,,,,
,,,,,,,,,,,,,,,,,200023,18,2022-01-29_05h41.56,lexical_decision_task_DD,2021.2.3,MacIntel,62.5,,,,,,,,,,,,2.391,1,,,,,,,,,,,,,,m,1,2.391,,,,,,,,0.144444444,-0.292222222,0,0,0,,0,156,156,39,1,SHELF,C,old,m,./images/SHELF.png,,,,,,,,,,,,,,,,,,,,,
,,,,,,,,,,,,,,,,,200023,18,2022-01-29_05h41.56,lexical_decision_task_DD,2021.2.3,MacIntel,62.5,,,,,,,,,,,,1.306,1,,,,,,,,,,,,,,m,1,1.306,,,,,,,,0.144444444,-0.292222222,0,0,0,,0,157,157,1,1,PLANK,HB,old,m,./images/PLANKHB.png,,,,,,,,,,,,,,,,,,,,,
,,,,,,,,,,,,,,,,,200023,18,2022-01-29_05h41.56,lexical_decision_task_DD,2021.2.3,MacIntel,62.5,,,,,,,,,,,,0.832,1,,,,,,,,,,,,,,z,1,0.832,,,,,,,,0.144444444,-0.292222222,0,0,0,,0,158,158,133,1,POWDY,HB,old,z,./images/POWDYHB.png,,,,,,,,,,,,,,,,,,,,,
,,,,,,,,,,,,,,,,,200023,18,2022-01-29_05h41.56,lexical_decision_task_DD,2021.2.3,MacIntel,62.5,,,,,,,,,,,,0.823,1,,,,,,,,,,,,,,m,1,0.823,,,,,,,,0.144444444,-0.292222222,0,0,0,,0,159,159,28,1,FALCON,HB,old,m,./images/FALCONHB.png,,,,,,,,,,,,,,,,,,,,,
,,,,,,,,,,,,,,,,,200023,18,2022-01-29_05h41.56,lexical_decision_task_DD,2021.2.3,MacIntel,62.5,,,,,,,,,,,,0.864,1,,,,,,,,,,,,,,m,1,0.864,,,,,,,,0.144444444,-0.292222222,0,0,0,,0,160,160,70,1,URINE,HB,old,m,./images/URINEHB.png,,,,,,,,,,,,,,,,,,,,,
,,,,,,,,,,,,,,,,,200023,18,2022-01-29_05h41.56,lexical_decision_task_DD,2021.2.3,MacIntel,62.5,,,,,,,,,,,,0.673,1,,,,,,,,,,,,,,z,1,0.673,,,,,,,,0.144444444,-0.292222222,0,0,0,,0,161,161,147,1,ZOLES,C,old,z,./images/ZOLES.png,,,,,,,,,,,,,,,,,,,,,
,,,,,,,,,,,,,,,,,200023,18,2022-01-29_05h41.56,lexical_decision_task_DD,2021.2.3,MacIntel,62.5,,,,,,,,,,,,0.766,1,,,,,,,,,,,,,,z,1,0.766,,,,,,,,0.144444444,-0.292222222,0,0,0,,0,162,162,89,1,DRIEK,LB,old,z,./images/DRIEKLB.png,,,,,,,,,,,,,,,,,,,,,
,,,,,,,,,,,,,,,,,200023,18,2022-01-29_05h41.56,lexical_decision_task_DD,2021.2.3,MacIntel,62.5,,,,,,,,,,,,1.026,1,,,,,,,,,,,,,,m,1,1.026,,,,,,,,0.144444444,-0.292222222,0,0,0,,0,163,163,27,1,ATTIC,C,old,m,./images/ATTIC.png,,,,,,,,,,,,,,,,,,,,,
,,,,,,,,,,,,,,,,,200023,18,2022-01-29_05h41.56,lexical_decision_task_DD,2021.2.3,MacIntel,62.5,,,,,,,,,,,,0.609,1,,,,,,,,,,,,,,m,1,0.609,,,,,,,,0.144444444,-0.292222222,0,0,0,,0,164,164,74,1,CEMENT,LB,old,m,./images/CEMENTLB.png,,,,,,,,,,,,,,,,,,,,,
,,,,,,,,,,,,,,,,,200023,18,2022-01-29_05h41.56,lexical_decision_task_DD,2021.2.3,MacIntel,62.5,,,,,,,,,,,,1.007,1,,,,,,,,,,,,,,z,1,1.007,,,,,,,,0.144444444,-0.292222222,0,0,0,,0,165,165,100,1,DRIBS,HB,old,z,./images/DRIBSHB.png,,,,,,,,,,,,,,,,,,,,,
,,,,,,,,,,,,,,,,,200023,18,2022-01-29_05h41.56,lexical_decision_task_DD,2021.2.3,MacIntel,62.5,,,,,,,,,,,,1.129,1,,,,,,,,,,,,,,z,1,1.129,,,,,,,,0.144444444,-0.292222222,0,0,0,,0,166,166,116,1,BALGY,LB,old,z,./images/BALGYLB.png,,,,,,,,,,,,,,,,,,,,,
,,,,,,,,,,,,,,,,,200023,18,2022-01-29_05h41.56,lexical_decision_task_DD,2021.2.3,MacIntel,62.5,,,,,,,,,,,,1.914,1,,,,,,,,,,,,,,m,1,1.914,,,,,,,,0.144444444,-0.292222222,0,0,0,,0,167,167,58,1,BABOON,HB,old,m,./images/BABOONHB.png,,,,,,,,,,,,,,,,,,,,,
space,0.144444444,-0.292222222,0,0,0,,,,,,,1,test,"In the next phase you will be presented with the words from the the first phase. Your job is to decide whether you remember seeing the word or not. If you remember seeing the word press ""old"" or type ""m"". If you do not remember seeing the word press ""new"" or type ""z"". Please press the space bar or click on continue to begin. ",,,200023,18,2022-01-29_05h41.56,lexical_decision_task_DD,2021.2.3,MacIntel,62.5,12.046,,,,,,,,,,,,,,,,,,,,,,,,,,,,,,,,,,,,,,,,,,,,,,,,,,,,,0,0,0,0,1,,,,,,,,,,,,,,,
,0.134444444,-0.373333333,1,0,0,instr_done_button,,,,,,1,test,"In the next phase you will be presented with the words from the the first phase. Your job is to decide whether you remember seeing the word or not. If you remember seeing the word press ""old"" or type ""m"". If you do not remember seeing the word press ""new"" or type ""z"". Please press the space bar or click on continue to begin. ",,,200023,18,2022-01-29_05h41.56,lexical_decision_task_DD,2021.2.3,MacIntel,62.5,,,,,,,,,,,,,,,,,,,,,,,,,,,,,,,,,,,,,,,,,,,,,,,,,,,,,,1,0,1,0,1,,,,,,,,,,,,,,,
space,0.134444444,-0.351111111,0,0,0,,,,,,,1,test,"In the next phase you will be presented with the words from the the first phase. Your job is to decide whether you remember seeing the word or not. If you remember seeing the word press ""old"" or type ""m"". If you do not remember seeing the word press ""new"" or type ""z"". Please press the space bar or click on continue to begin. ",,,200023,18,2022-01-29_05h41.56,lexical_decision_task_DD,2021.2.3,MacIntel,62.5,0.671,,,,,,,,,,,,,,,,,,,,,,,,,,,,,,,,,,,,,,,,,,,,,,,,,,,,,2,0,2,0,1,,,,,,,,,,,,,,,
,0.12,-0.388888889,1,0,0,instr_done_button,,,,,,1,test,"In the next phase you will be presented with the words from the the first phase. Your job is to decide whether you remember seeing the word or not. If you remember seeing the word press ""old"" or type ""m"". If you do not remember seeing the word press ""new"" or type ""z"". Please press the space bar or click on continue to begin. ",,,200023,18,2022-01-29_05h41.56,lexical_decision_task_DD,2021.2.3,MacIntel,62.5,,,,,,,,,,,,,,,,,,,,,,,,,,,,,,,,,,,,,,,,,,,,,,,,,,,,,,3,0,3,0,1,,,,,,,,,,,,,,,
space,0.12,-0.386666667,0,0,0,,,,,,,1,test,"In the next phase you will be presented with the words from the the first phase. Your job is to decide whether you remember seeing the word or not. If you remember seeing the word press ""old"" or type ""m"". If you do not remember seeing the word press ""new"" or type ""z"". Please press the space bar or click on continue to begin. ",,,200023,18,2022-01-29_05h41.56,lexical_decision_task_DD,2021.2.3,MacIntel,62.5,0.64,,,,,,,,,,,,,,,,,,,,,,,,,,,,,,,,,,,,,,,,,,,,,,,,,,,,,4,0,4,0,1,,,,,,,,,,,,,,,
,,,,,,,,,,,,,,,,,200023,18,2022-01-29_05h41.56,lexical_decision_task_DD,2021.2.3,MacIntel,62.5,,,,,,,,,,,,3.753,1,,,,,,,,,,,,,,,,,,,,,,,,0.12,-0.386666667,0,0,0,,,,,,,STEAK,HB,z,m,./images/STEAKHB.png,,,,,,,z,1,3.753,,,,,,,,0,0,0,115,1
,,,,,,,,,,,,,,,,,200023,18,2022-01-29_05h41.56,lexical_decision_task_DD,2021.2.3,MacIntel,62.5,,,,,,,,,,,,1.273,0,,,,,,,,,,,,,,,,,,,,,,,,0.12,-0.386666667,0,0,0,,,,,,,PACKET,LB,m,m,./images/PACKETLB.png,,,,,,,z,0,1.273,,,,,,,,0,1,1,56,1
,,,,,,,,,,,,,,,,,200023,18,2022-01-29_05h41.56,lexical_decision_task_DD,2021.2.3,MacIntel,62.5,,,,,,,,,,,,0.863,1,,,,,,,,,,,,,,,,,,,,,,,,0.12,-0.386666667,0,0,0,,,,,,,LLAMA,LB,z,m,./images/LLAMALB.png,,,,,,,z,1,0.863,,,,,,,,0,2,2,119,1
,,,,,,,,,,,,,,,,,200023,18,2022-01-29_05h41.56,lexical_decision_task_DD,2021.2.3,MacIntel,62.5,,,,,,,,,,,,1.174,1,,,,,,,,,,,,,,,,,,,,,,,,0.12,-0.386666667,0,0,0,,,,,,,SHELF,C,m,m,./images/SHELF.png,,,,,,,m,1,1.174,,,,,,,,0,3,3,39,1
,,,,,,,,,,,,,,,,,200023,18,2022-01-29_05h41.56,lexical_decision_task_DD,2021.2.3,MacIntel,62.5,,,,,,,,,,,,0.731,1,,,,,,,,,,,,,,,,,,,,,,,,0.12,-0.386666667,0,0,0,,,,,,,CLOUD,LB,z,m,./images/CLOUDLB.png,,,,,,,z,1,0.731,,,,,,,,0,4,4,110,1
,,,,,,,,,,,,,,,,,200023,18,2022-01-29_05h41.56,lexical_decision_task_DD,2021.2.3,MacIntel,62.5,,,,,,,,,,,,0.74,1,,,,,,,,,,,,,,,,,,,,,,,,0.12,-0.386666667,0,0,0,,,,,,,STATUE,C,z,m,./images/STATUE.png,,,,,,,z,1,0.74,,,,,,,,0,5,5,150,1
,,,,,,,,,,,,,,,,,200023,18,2022-01-29_05h41.56,lexical_decision_task_DD,2021.2.3,MacIntel,62.5,,,,,,,,,,,,1.508,1,,,,,,,,,,,,,,,,,,,,,,,,0.12,-0.386666667,0,0,0,,,,,,,SPINE,LB,z,m,./images/SPINELB.png,,,,,,,z,1,1.508,,,,,,,,0,6,6,149,1
,,,,,,,,,,,,,,,,,200023,18,2022-01-29_05h41.56,lexical_decision_task_DD,2021.2.3,MacIntel,62.5,,,,,,,,,,,,0.767,1,,,,,,,,,,,,,,,,,,,,,,,,0.12,-0.386666667,0,0,0,,,,,,,JAGUAR,C,m,m,./images/JAGUAR.png,,,,,,,m,1,0.767,,,,,,,,0,7,7,18,1
,,,,,,,,,,,,,,,,,200023,18,2022-01-29_05h41.56,lexical_decision_task_DD,2021.2.3,MacIntel,62.5,,,,,,,,,,,,0.948,1,,,,,,,,,,,,,,,,,,,,,,,,0.12,-0.386666667,0,0,0,,,,,,,CANOE,HB,z,m,./images/CANOEHB.png,,,,,,,z,1,0.948,,,,,,,,0,8,8,142,1
,,,,,,,,,,,,,,,,,200023,18,2022-01-29_05h41.56,lexical_decision_task_DD,2021.2.3,MacIntel,62.5,,,,,,,,,,,,1.081,1,,,,,,,,,,,,,,,,,,,,,,,,0.12,-0.386666667,0,0,0,,,,,,,MAGGOT,C,m,m,./images/MAGGOT.png,,,,,,,m,1,1.081,,,,,,,,0,9,9,33,1
,,,,,,,,,,,,,,,,,200023,18,2022-01-29_05h41.56,lexical_decision_task_DD,2021.2.3,MacIntel,62.5,,,,,,,,,,,,0.9,1,,,,,,,,,,,,,,,,,,,,,,,,0.12,-0.386666667,0,0,0,,,,,,,MAMMAL,LB,z,m,./images/MAMMALLB.png,,,,,,,z,1,0.9,,,,,,,,0,10,10,146,1
,,,,,,,,,,,,,,,,,200023,18,2022-01-29_05h41.56,lexical_decision_task_DD,2021.2.3,MacIntel,62.5,,,,,,,,,,,,1.06,0,,,,,,,,,,,,,,,,,,,,,,,,0.12,-0.386666667,0,0,0,,,,,,,BASKET,LB,z,m,./images/BASKETLB.png,,,,,,,m,0,1.06,,,,,,,,0,11,11,128,1
,,,,,,,,,,,,,,,,,200023,18,2022-01-29_05h41.56,lexical_decision_task_DD,2021.2.3,MacIntel,62.5,,,,,,,,,,,,2.876,0,,,,,,,,,,,,,,,,,,,,,,,,0.12,-0.386666667,0,0,0,,,,,,,DESERT,HB,z,m,./images/DESERTHB.png,,,,,,,m,0,2.876,,,,,,,,0,12,12,136,1
,,,,,,,,,,,,,,,,,200023,18,2022-01-29_05h41.56,lexical_decision_task_DD,2021.2.3,MacIntel,62.5,,,,,,,,,,,,0.88,1,,,,,,,,,,,,,,,,,,,,,,,,0.12,-0.386666667,0,0,0,,,,,,,CHERRY,C,z,m,./images/CHERRY.png,,,,,,,z,1,0.88,,,,,,,,0,13,13,138,1
,,,,,,,,,,,,,,,,,200023,18,2022-01-29_05h41.56,lexical_decision_task_DD,2021.2.3,MacIntel,62.5,,,,,,,,,,,,1.807,1,,,,,,,,,,,,,,,,,,,,,,,,0.12,-0.386666667,0,0,0,,,,,,,RAZOR,HB,z,m,./images/RAZORHB.png,,,,,,,z,1,1.807,,,,,,,,0,14,14,118,1
,,,,,,,,,,,,,,,,,200023,18,2022-01-29_05h41.56,lexical_decision_task_DD,2021.2.3,MacIntel,62.5,,,,,,,,,,,,0.874,1,,,,,,,,,,,,,,,,,,,,,,,,0.12,-0.386666667,0,0,0,,,,,,,STRING,LB,m,m,./images/STRINGLB.png,,,,,,,m,1,0.874,,,,,,,,0,15,15,41,1
,,,,,,,,,,,,,,,,,200023,18,2022-01-29_05h41.56,lexical_decision_task_DD,2021.2.3,MacIntel,62.5,,,,,,,,,,,,2.248,1,,,,,,,,,,,,,,,,,,,,,,,,0.12,-0.386666667,0,0,0,,,,,,,BUTTER,C,z,m,./images/BUTTER.png,,,,,,,z,1,2.248,,,,,,,,0,16,16,111,1
,,,,,,,,,,,,,,,,,200023,18,2022-01-29_05h41.56,lexical_decision_task_DD,2021.2.3,MacIntel,62.5,,,,,,,,,,,,0.832,1,,,,,,,,,,,,,,,,,,,,,,,,0.12,-0.386666667,0,0,0,,,,,,,BANANA,HB,z,m,./images/BANANAHB.png,,,,,,,z,1,0.832,,,,,,,,0,17,17,154,1
,,,,,,,,,,,,,,,,,200023,18,2022-01-29_05h41.56,lexical_decision_task_DD,2021.2.3,MacIntel,62.5,,,,,,,,,,,,0.832,1,,,,,,,,,,,,,,,,,,,,,,,,0.12,-0.386666667,0,0,0,,,,,,,DRUMS,HB,m,m,./images/DRUMSHB.png,,,,,,,m,1,0.832,,,,,,,,0,18,18,49,1
,,,,,,,,,,,,,,,,,200023,18,2022-01-29_05h41.56,lexical_decision_task_DD,2021.2.3,MacIntel,62.5,,,,,,,,,,,,1.142,1,,,,,,,,,,,,,,,,,,,,,,,,0.12,-0.386666667,0,0,0,,,,,,,BAKER,C,z,m,./images/BAKER.png,,,,,,,z,1,1.142,,,,,,,,0,19,19,147,1
,,,,,,,,,,,,,,,,,200023,18,2022-01-29_05h41.56,lexical_decision_task_DD,2021.2.3,MacIntel,62.5,,,,,,,,,,,,3.524,1,,,,,,,,,,,,,,,,,,,,,,,,0.12,-0.386666667,0,0,0,,,,,,,BEARD,LB,m,m,./images/BEARDLB.png,,,,,,,m,1,3.524,,,,,,,,0,20,20,2,1
,,,,,,,,,,,,,,,,,200023,18,2022-01-29_05h41.56,lexical_decision_task_DD,2021.2.3,MacIntel,62.5,,,,,,,,,,,,1.535,1,,,,,,,,,,,,,,,,,,,,,,,,0.12,-0.386666667,0,0,0,,,,,,,PIMPLE,LB,m,m,./images/PIMPLELB.png,,,,,,,m,1,1.535,,,,,,,,0,21,21,71,1
,,,,,,,,,,,,,,,,,200023,18,2022-01-29_05h41.56,lexical_decision_task_DD,2021.2.3,MacIntel,62.5,,,,,,,,,,,,0.761,0,,,,,,,,,,,,,,,,,,,,,,,,0.12,-0.386666667,0,0,0,,,,,,,WALNUT,C,z,m,./images/WALNUT.png,,,,,,,m,0,0.761,,,,,,,,0,22,22,84,1
,,,,,,,,,,,,,,,,,200023,18,2022-01-29_05h41.56,lexical_decision_task_DD,2021.2.3,MacIntel,62.5,,,,,,,,,,,,0.704,1,,,,,,,,,,,,,,,,,,,,,,,,0.12,-0.386666667,0,0,0,,,,,,,PLANK,HB,m,m,./images/PLANKHB.png,,,,,,,m,1,0.704,,,,,,,,0,23,23,1,1
,,,,,,,,,,,,,,,,,200023,18,2022-01-29_05h41.56,lexical_decision_task_DD,2021.2.3,MacIntel,62.5,,,,,,,,,,,,0.639,1,,,,,,,,,,,,,,,,,,,,,,,,0.12,-0.386666667,0,0,0,,,,,,,MUSCLE,HB,m,m,./images/MUSCLEHB.png,,,,,,,m,1,0.639,,,,,,,,0,24,24,4,1
,,,,,,,,,,,,,,,,,200023,18,2022-01-29_05h41.56,lexical_decision_task_DD,2021.2.3,MacIntel,62.5,,,,,,,,,,,,0.906,0,,,,,,,,,,,,,,,,,,,,,,,,0.12,-0.386666667,0,0,0,,,,,,,CHAIN,C,z,m,./images/CHAIN.png,,,,,,,m,0,0.906,,,,,,,,0,25,25,126,1
,,,,,,,,,,,,,,,,,200023,18,2022-01-29_05h41.56,lexical_decision_task_DD,2021.2.3,MacIntel,62.5,,,,,,,,,,,,0.973,0,,,,,,,,,,,,,,,,,,,,,,,,0.12,-0.386666667,0,0,0,,,,,,,SLOPE,C,z,m,./images/SLOPE.png,,,,,,,m,0,0.973,,,,,,,,0,26,26,114,1
,,,,,,,,,,,,,,,,,200023,18,2022-01-29_05h41.56,lexical_decision_task_DD,2021.2.3,MacIntel,62.5,,,,,,,,,,,,0.673,1,,,,,,,,,,,,,,,,,,,,,,,,0.12,-0.386666667,0,0,0,,,,,,,TOMATO,C,m,m,./images/TOMATO.png,,,,,,,m,1,0.673,,,,,,,,0,27,27,0,1
,,,,,,,,,,,,,,,,,200023,18,2022-01-29_05h41.56,lexical_decision_task_DD,2021.2.3,MacIntel,62.5,,,,,,,,,,,,1.634,1,,,,,,,,,,,,,,,,,,,,,,,,0.12,-0.386666667,0,0,0,,,,,,,CRATER,C,z,m,./images/CRATER.png,,,,,,,z,1,1.634,,,,,,,,0,28,28,87,1
,,,,,,,,,,,,,,,,,200023,18,2022-01-29_05h41.56,lexical_decision_task_DD,2021.2.3,MacIntel,62.5,,,,,,,,,,,,1.434,1,,,,,,,,,,,,,,,,,,,,,,,,0.12,-0.386666667,0,0,0,,,,,,,MUMMY,HB,z,m,./images/MUMMYHB.png,,,,,,,z,1,1.434,,,,,,,,0,29,29,130,1
,,,,,,,,,,,,,,,,,200023,18,2022-01-29_05h41.56,lexical_decision_task_DD,2021.2.3,MacIntel,62.5,,,,,,,,,,,,0.991,1,,,,,,,,,,,,,,,,,,,,,,,,0.12,-0.386666667,0,0,0,,,,,,,FLESH,C,z,m,./images/FLESH.png,,,,,,,z,1,0.991,,,,,,,,0,30,30,108,1
,,,,,,,,,,,,,,,,,200023,18,2022-01-29_05h41.56,lexical_decision_task_DD,2021.2.3,MacIntel,62.5,,,,,,,,,,,,0.906,1,,,,,,,,,,,,,,,,,,,,,,,,0.12,-0.386666667,0,0,0,,,,,,,COLLAR,C,z,m,./images/COLLAR.png,,,,,,,z,1,0.906,,,,,,,,0,31,31,99,1
,,,,,,,,,,,,,,,,,200023,18,2022-01-29_05h41.56,lexical_decision_task_DD,2021.2.3,MacIntel,62.5,,,,,,,,,,,,0.949,1,,,,,,,,,,,,,,,,,,,,,,,,0.12,-0.386666667,0,0,0,,,,,,,JUMPER,LB,z,m,./images/JUMPERLB.png,,,,,,,z,1,0.949,,,,,,,,0,32,32,158,1
,,,,,,,,,,,,,,,,,200023,18,2022-01-29_05h41.56,lexical_decision_task_DD,2021.2.3,MacIntel,62.5,,,,,,,,,,,,1.398,1,,,,,,,,,,,,,,,,,,,,,,,,0.12,-0.386666667,0,0,0,,,,,,,HEATER,LB,z,m,./images/HEATERLB.png,,,,,,,z,1,1.398,,,,,,,,0,33,33,140,1
,,,,,,,,,,,,,,,,,200023,18,2022-01-29_05h41.56,lexical_decision_task_DD,2021.2.3,MacIntel,62.5,,,,,,,,,,,,1.207,1,,,,,,,,,,,,,,,,,,,,,,,,0.12,-0.386666667,0,0,0,,,,,,,PEARL,HB,m,m,./images/PEARLHB.png,,,,,,,m,1,1.207,,,,,,,,0,34,34,46,1
,,,,,,,,,,,,,,,,,200023,18,2022-01-29_05h41.56,lexical_decision_task_DD,2021.2.3,MacIntel,62.5,,,,,,,,,,,,7.547,0,,,,,,,,,,,,,,,,,,,,,,,,0.12,-0.386666667,0,0,0,,,,,,,STOVE,LB,z,m,./images/STOVELB.png,,,,,,,m,0,7.547,,,,,,,,0,35,35,86,1
,,,,,,,,,,,,,,,,,200023,18,2022-01-29_05h41.56,lexical_decision_task_DD,2021.2.3,MacIntel,62.5,,,,,,,,,,,,0.865,1,,,,,,,,,,,,,,,,,,,,,,,,0.12,-0.386666667,0,0,0,,,,,,,BANNER,HB,m,m,./images/BANNERHB.png,,,,,,,m,1,0.865,,,,,,,,0,36,36,52,1
,,,,,,,,,,,,,,,,,200023,18,2022-01-29_05h41.56,lexical_decision_task_DD,2021.2.3,MacIntel,62.5,,,,,,,,,,,,2.724,0,,,,,,,,,,,,,,,,,,,,,,,,0.12,-0.386666667,0,0,0,,,,,,,GARDEN,HB,z,m,./images/GARDENHB.png,,,,,,,m,0,2.724,,,,,,,,0,37,37,94,1
,,,,,,,,,,,,,,,,,200023,18,2022-01-29_05h41.56,lexical_decision_task_DD,2021.2.3,MacIntel,62.5,,,,,,,,,,,,2.131,0,,,,,,,,,,,,,,,,,,,,,,,,0.122222222,-0.385555556,0,0,0,,,,,,,SAUCE,C,z,m,./images/SAUCE.png,,,,,,,m,0,2.131,,,,,,,,0,38,38,135,1
,,,,,,,,,,,,,,,,,200023,18,2022-01-29_05h41.56,lexical_decision_task_DD,2021.2.3,MacIntel,62.5,,,,,,,,,,,,0.748,1,,,,,,,,,,,,,,,,,,,,,,,,0.122222222,-0.385555556,0,0,0,,,,,,,SHORE,C,m,m,./images/SHORE.png,,,,,,,m,1,0.748,,,,,,,,0,39,39,12,1
,,,,,,,,,,,,,,,,,200023,18,2022-01-29_05h41.56,lexical_decision_task_DD,2021.2.3,MacIntel,62.5,,,,,,,,,,,,0.791,1,,,,,,,,,,,,,,,,,,,,,,,,0.123333333,-0.385555556,0,0,0,,,,,,,MUFFIN,HB,m,m,./images/MUFFINHB.png,,,,,,,m,1,0.791,,,,,,,,0,40,40,55,1
,,,,,,,,,,,,,,,,,200023,18,2022-01-29_05h41.56,lexical_decision_task_DD,2021.2.3,MacIntel,62.5,,,,,,,,,,,,0.827,1,,,,,,,,,,,,,,,,,,,,,,,,0.123333333,-0.385555556,0,0,0,space,,,,,,NOOSE,C,m,m,./images/NOOSE.png,1.414,,,,,,m,1,0.827,,,,,,,,0,41,41,72,1
,,,,,,,,,,,,,,,,,200023,18,2022-01-29_05h41.56,lexical_decision_task_DD,2021.2.3,MacIntel,62.5,,,,,,,,,,,,1.051,1,,,,,,,,,,,,,,,,,,,,,,,,0.123333333,-0.385555556,0,0,0,,,,,,,ATTIC,C,m,m,./images/ATTIC.png,,,,,,,m,1,1.051,,,,,,,,0,42,42,27,1
,,,,,,,,,,,,,,,,,200023,18,2022-01-29_05h41.56,lexical_decision_task_DD,2021.2.3,MacIntel,62.5,,,,,,,,,,,,3.441,1,,,,,,,,,,,,,,,,,,,,,,,,0.123333333,-0.385555556,0,0,0,,,,,,,FINGER,C,m,m,./images/FINGER.png,,,,,,,m,1,3.441,,,,,,,,0,43,43,3,1
,,,,,,,,,,,,,,,,,200023,18,2022-01-29_05h41.56,lexical_decision_task_DD,2021.2.3,MacIntel,62.5,,,,,,,,,,,,0.856,0,,,,,,,,,,,,,,,,,,,,,,,,0.123333333,-0.385555556,0,0,0,,,,,,,FENCE,LB,z,m,./images/FENCELB.png,,,,,,,m,0,0.856,,,,,,,,0,44,44,98,1
,,,,,,,,,,,,,,,,,200023,18,2022-01-29_05h41.56,lexical_decision_task_DD,2021.2.3,MacIntel,62.5,,,,,,,,,,,,2.831,0,,,,,,,,,,,,,,,,,,,,,,,,0.123333333,-0.385555556,0,0,0,,,,,,,PENCE,HB,m,m,./images/PENCEHB.png,,,,,,,z,0,2.831,,,,,,,,0,45,45,16,1
,,,,,,,,,,,,,,,,,200023,18,2022-01-29_05h41.56,lexical_decision_task_DD,2021.2.3,MacIntel,62.5,,,,,,,,,,,,0.893,1,,,,,,,,,,,,,,,,,,,,,,,,0.123333333,-0.385555556,0,0,0,,,,,,,KITTEN,C,m,m,./images/KITTEN.png,,,,,,,m,1,0.893,,,,,,,,0,46,46,45,1
,,,,,,,,,,,,,,,,,200023,18,2022-01-29_05h41.56,lexical_decision_task_DD,2021.2.3,MacIntel,62.5,,,,,,,,,,,,0.609,1,,,,,,,,,,,,,,,,,,,,,,,,0.123333333,-0.385555556,0,0,0,,,,,,,ONION,C,m,m,./images/ONION.png,,,,,,,m,1,0.609,,,,,,,,0,47,47,51,1
,,,,,,,,,,,,,,,,,200023,18,2022-01-29_05h41.56,lexical_decision_task_DD,2021.2.3,MacIntel,62.5,,,,,,,,,,,,1.432,1,,,,,,,,,,,,,,,,,,,,,,,,0.124444444,-0.385555556,0,0,0,,,,,,,KIDNEY,C,m,m,./images/KIDNEY.png,,,,,,,m,1,1.432,,,,,,,,0,48,48,21,1
,,,,,,,,,,,,,,,,,200023,18,2022-01-29_05h41.56,lexical_decision_task_DD,2021.2.3,MacIntel,62.5,,,,,,,,,,,,10.016,0,,,,,,,,,,,,,,,,,,,,,,,,0.126666667,-0.382222222,0,0,0,,,,,,,BUBBLE,LB,z,m,./images/BUBBLELB.png,,,,,,,m,0,10.016,,,,,,,,0,49,49,155,1
,,,,,,,,,,,,,,,,,200023,18,2022-01-29_05h41.56,lexical_decision_task_DD,2021.2.3,MacIntel,62.5,,,,,,,,,,,,0.974,0,,,,,,,,,,,,,,,,,,,,,,,,0.127777778,-0.382222222,0,0,0,,,,,,,ARROW,C,z,m,./images/ARROW.png,,,,,,,m,0,0.974,,,,,,,,0,50,50,153,1
,,,,,,,,,,,,,,,,,200023,18,2022-01-29_05h41.56,lexical_decision_task_DD,2021.2.3,MacIntel,62.5,,,,,,,,,,,,4.752,1,,,,,,,,,,,,,,,,,,,,,,,,0.127777778,-0.381111111,0,0,0,,,,,,,MOOSE,C,m,m,./images/MOOSE.png,,,,,,,m,1,4.752,,,,,,,,0,51,51,57,1
,,,,,,,,,,,,,,,,,200023,18,2022-01-29_05h41.56,lexical_decision_task_DD,2021.2.3,MacIntel,62.5,,,,,,,,,,,,7.257,0,,,,,,,,,,,,,,,,,,,,,,,,0.123333333,-0.368888889,0,0,0,,,,,,,STAIN,C,z,m,./images/STAIN.png,,,,,,,m,0,7.257,,,,,,,,0,52,52,90,1
,,,,,,,,,,,,,,,,,200023,18,2022-01-29_05h41.56,lexical_decision_task_DD,2021.2.3,MacIntel,62.5,,,,,,,,,,,,0.946,1,,,,,,,,,,,,,,,,,,,,,,,,0.123333333,-0.368888889,0,0,0,,,,,,,GRAIN,C,m,m,./images/GRAIN.png,,,,,,,m,1,0.946,,,,,,,,0,53,53,75,1
,,,,,,,,,,,,,,,,,200023,18,2022-01-29_05h41.56,lexical_decision_task_DD,2021.2.3,MacIntel,62.5,,,,,,,,,,,,7.474,0,,,,,,,,,,,,,,,,,,,,,,,,0.124444444,-0.368888889,0,0,0,,,,,,,MIDGET,HB,z,m,./images/MIDGETHB.png,,,,,,,m,0,7.474,,,,,,,,0,54,54,160,1
,,,,,,,,,,,,,,,,,200023,18,2022-01-29_05h41.56,lexical_decision_task_DD,2021.2.3,MacIntel,62.5,,,,,,,,,,,,0.831,1,,,,,,,,,,,,,,,,,,,,,,,,0.128888889,-0.37,0,0,0,,,,,,,SKIING,LB,m,m,./images/SKIINGLB.png,,,,,,,m,1,0.831,,,,,,,,0,55,55,17,1
,,,,,,,,,,,,,,,,,200023,18,2022-01-29_05h41.56,lexical_decision_task_DD,2021.2.3,MacIntel,62.5,,,,,,,,,,,,18.692,1,,,,,,,,,,,,,,,,,,,,,,,,0.132222222,-0.37,0,0,0,,,,,,,SHIELD,C,z,m,./images/SHIELD.png,,,,,,,z,1,18.692,,,,,,,,0,56,56,132,1
,,,,,,,,,,,,,,,,,200023,18,2022-01-29_05h41.56,lexical_decision_task_DD,2021.2.3,MacIntel,62.5,,,,,,,,,,,,0.891,1,,,,,,,,,,,,,,,,,,,,,,,,0.132222222,-0.37,0,0,0,,,,,,,ENGINE,LB,z,m,./images/ENGINELB.png,,,,,,,z,1,0.891,,,,,,,,0,57,57,122,1
,,,,,,,,,,,,,,,,,200023,18,2022-01-29_05h41.56,lexical_decision_task_DD,2021.2.3,MacIntel,62.5,,,,,,,,,,,,1.176,0,,,,,,,,,,,,,,,,,,,,,,,,0.132222222,-0.37,0,0,0,,,,,,,SUNSET,HB,m,m,./images/SUNSETHB.png,,,,,,,z,0,1.176,,,,,,,,0,58,58,82,1
,,,,,,,,,,,,,,,,,200023,18,2022-01-29_05h41.56,lexical_decision_task_DD,2021.2.3,MacIntel,62.5,,,,,,,,,,,,0.84,0,,,,,,,,,,,,,,,,,,,,,,,,0.132222222,-0.37,0,0,0,,,,,,,FLASK,C,z,m,./images/FLASK.png,,,,,,,m,0,0.84,,,,,,,,0,59,59,156,1
,,,,,,,,,,,,,,,,,200023,18,2022-01-29_05h41.56,lexical_decision_task_DD,2021.2.3,MacIntel,62.5,,,,,,,,,,,,0.874,1,,,,,,,,,,,,,,,,,,,,,,,,0.132222222,-0.37,0,0,0,,,,,,,VALLEY,LB,z,m,./images/VALLEYLB.png,,,,,,,z,1,0.874,,,,,,,,0,60,60,152,1
,,,,,,,,,,,,,,,,,200023,18,2022-01-29_05h41.56,lexical_decision_task_DD,2021.2.3,MacIntel,62.5,,,,,,,,,,,,0.942,0,,,,,,,,,,,,,,,,,,,,,,,,0.132222222,-0.37,0,0,0,,,,,,,SAUNA,C,z,m,./images/SAUNA.png,,,,,,,m,0,0.942,,,,,,,,0,61,61,117,1
,,,,,,,,,,,,,,,,,200023,18,2022-01-29_05h41.56,lexical_decision_task_DD,2021.2.3,MacIntel,62.5,,,,,,,,,,,,3.483,1,,,,,,,,,,,,,,,,,,,,,,,,0.132222222,-0.37,0,0,0,,,,,,,CRADLE,LB,m,m,./images/CRADLELB.png,,,,,,,m,1,3.483,,,,,,,,0,62,62,20,1
,,,,,,,,,,,,,,,,,200023,18,2022-01-29_05h41.56,lexical_decision_task_DD,2021.2.3,MacIntel,62.5,,,,,,,,,,,,1.675,1,,,,,,,,,,,,,,,,,,,,,,,,0.132222222,-0.37,0,0,0,,,,,,,ALLEY,HB,z,m,./images/ALLEYHB.png,,,,,,,z,1,1.675,,,,,,,,0,63,63,139,1
,,,,,,,,,,,,,,,,,200023,18,2022-01-29_05h41.56,lexical_decision_task_DD,2021.2.3,MacIntel,62.5,,,,,,,,,,,,4.207,0,,,,,,,,,,,,,,,,,,,,,,,,0.132222222,-0.37,0,0,0,,,,,,,PLANET,LB,z,m,./images/PLANETLB.png,,,,,,,m,0,4.207,,,,,,,,0,64,64,164,1
,,,,,,,,,,,,,,,,,200023,18,2022-01-29_05h41.56,lexical_decision_task_DD,2021.2.3,MacIntel,62.5,,,,,,,,,,,,1.5,1,,,,,,,,,,,,,,,,,,,,,,,,0.132222222,-0.37,0,0,0,,,,,,,BLOKE,C,z,m,./images/BLOKE.png,,,,,,,z,1,1.5,,,,,,,,0,65,65,96,1
,,,,,,,,,,,,,,,,,200023,18,2022-01-29_05h41.56,lexical_decision_task_DD,2021.2.3,MacIntel,62.5,,,,,,,,,,,,1.283,1,,,,,,,,,,,,,,,,,,,,,,,,0.132222222,-0.37,0,0,0,,,,,,,TOWEL,HB,z,m,./images/TOWELHB.png,,,,,,,z,1,1.283,,,,,,,,0,66,66,85,1
,,,,,,,,,,,,,,,,,200023,18,2022-01-29_05h41.56,lexical_decision_task_DD,2021.2.3,MacIntel,62.5,,,,,,,,,,,,0.764,0,,,,,,,,,,,,,,,,,,,,,,,,0.132222222,-0.37,0,0,0,,,,,,,PARCEL,C,z,m,./images/PARCEL.png,,,,,,,m,0,0.764,,,,,,,,0,67,67,102,1
,,,,,,,,,,,,,,,,,200023,18,2022-01-29_05h41.56,lexical_decision_task_DD,2021.2.3,MacIntel,62.5,,,,,,,,,,,,0.681,1,,,,,,,,,,,,,,,,,,,,,,,,0.132222222,-0.37,0,0,0,,,,,,,SNACK,HB,m,m,./images/SNACKHB.png,,,,,,,m,1,0.681,,,,,,,,0,68,68,73,1
,,,,,,,,,,,,,,,,,200023,18,2022-01-29_05h41.56,lexical_decision_task_DD,2021.2.3,MacIntel,62.5,,,,,,,,,,,,0.69,1,,,,,,,,,,,,,,,,,,,,,,,,0.132222222,-0.37,0,0,0,,,,,,,SMOKER,LB,m,m,./images/SMOKERLB.png,,,,,,,m,1,0.69,,,,,,,,0,69,69,26,1
,,,,,,,,,,,,,,,,,200023,18,2022-01-29_05h41.56,lexical_decision_task_DD,2021.2.3,MacIntel,62.5,,,,,,,,,,,,2.322,1,,,,,,,,,,,,,,,,,,,,,,,,0.132222222,-0.37,0,0,0,,,,,,,TIGER,HB,z,m,./images/TIGERHB.png,,,,,,,z,1,2.322,,,,,,,,0,70,70,121,1
,,,,,,,,,,,,,,,,,200023,18,2022-01-29_05h41.56,lexical_decision_task_DD,2021.2.3,MacIntel,62.5,,,,,,,,,,,,2.999,1,,,,,,,,,,,,,,,,,,,,,,,,0.132222222,-0.37,0,0,0,,,,,,,BOXER,HB,z,m,./images/BOXERHB.png,,,,,,,z,1,2.999,,,,,,,,0,71,71,88,1
,,,,,,,,,,,,,,,,,200023,18,2022-01-29_05h41.56,lexical_decision_task_DD,2021.2.3,MacIntel,62.5,,,,,,,,,,,,1.633,0,,,,,,,,,,,,,,,,,,,,,,,,0.132222222,-0.37,0,0,0,,,,,,,STOOL,HB,z,m,./images/STOOLHB.png,,,,,,,m,0,1.633,,,,,,,,0,72,72,127,1
,,,,,,,,,,,,,,,,,200023,18,2022-01-29_05h41.56,lexical_decision_task_DD,2021.2.3,MacIntel,62.5,,,,,,,,,,,,2.765,1,,,,,,,,,,,,,,,,,,,,,,,,0.132222222,-0.37,0,0,0,,,,,,,HAMMER,C,z,m,./images/HAMMER.png,,,,,,,z,1,2.765,,,,,,,,0,73,73,159,1
,,,,,,,,,,,,,,,,,200023,18,2022-01-29_05h41.56,lexical_decision_task_DD,2021.2.3,MacIntel,62.5,,,,,,,,,,,,9.179,1,,,,,,,,,,,,,,,,,,,,,,,,0.132222222,-0.37,0,0,0,,,,,,,SWING,HB,m,m,./images/SWINGHB.png,,,,,,,m,1,9.179,,,,,,,,0,74,74,40,1
,,,,,,,,,,,,,,,,,200023,18,2022-01-29_05h41.56,lexical_decision_task_DD,2021.2.3,MacIntel,62.5,,,,,,,,,,,,12.597,1,,,,,,,,,,,,,,,,,,,,,,,,0.131111111,-0.37,0,0,0,,,,,,,CLOWN,HB,z,m,./images/CLOWNHB.png,,,,,,,z,1,12.597,,,,,,,,0,75,75,106,1
,,,,,,,,,,,,,,,,,200023,18,2022-01-29_05h41.56,lexical_decision_task_DD,2021.2.3,MacIntel,62.5,,,,,,,,,,,,35.274,1,,,,,,,,,,,,,,,,,,,,,,,,0.134444444,-0.374444444,0,0,0,,,,,,,RULER,HB,z,m,./images/RULERHB.png,,,,,,,z,1,35.274,,,,,,,,0,76,76,163,1
,,,,,,,,,,,,,,,,,200023,18,2022-01-29_05h41.56,lexical_decision_task_DD,2021.2.3,MacIntel,62.5,,,,,,,,,,,,2.005,0,,,,,,,,,,,,,,,,,,,,,,,,0.134444444,-0.374444444,0,0,0,,,,,,,PEBBLE,HB,z,m,./images/PEBBLEHB.png,,,,,,,m,0,2.005,,,,,,,,0,77,77,166,1
,,,,,,,,,,,,,,,,,200023,18,2022-01-29_05h41.56,lexical_decision_task_DD,2021.2.3,MacIntel,62.5,,,,,,,,,,,,1.966,0,,,,,,,,,,,,,,,,,,,,,,,,0.134444444,-0.374444444,0,0,0,,,,,,,ARTIST,HB,z,m,./images/ARTISTHB.png,,,,,,,m,0,1.966,,,,,,,,0,78,78,145,1
,,,,,,,,,,,,,,,,,200023,18,2022-01-29_05h41.56,lexical_decision_task_DD,2021.2.3,MacIntel,62.5,,,,,,,,,,,,16.423,1,,,,,,,,,,,,,,,,,,,,,,,,0.133333333,-0.374444444,0,0,0,,,,,,,DOUGH,HB,m,m,./images/DOUGHHB.png,,,,,,,m,1,16.423,,,,,,,,0,79,79,19,1
,,,,,,,,,,,,,,,,,200023,18,2022-01-29_05h41.56,lexical_decision_task_DD,2021.2.3,MacIntel,62.5,,,,,,,,,,,,1.316,1,,,,,,,,,,,,,,,,,,,,,,,,0.133333333,-0.374444444,0,0,0,,,,,,,SWEAT,C,m,m,./images/SWEAT.png,,,,,,,m,1,1.316,,,,,,,,0,80,80,66,1
,,,,,,,,,,,,,,,,,200023,18,2022-01-29_05h41.56,lexical_decision_task_DD,2021.2.3,MacIntel,62.5,,,,,,,,,,,,1.128,1,,,,,,,,,,,,,,,,,,,,,,,,0.133333333,-0.374444444,0,0,0,,,,,,,DRILL,C,z,m,./images/DRILL.png,,,,,,,z,1,1.128,,,,,,,,0,81,81,165,1
,,,,,,,,,,,,,,,,,200023,18,2022-01-29_05h41.56,lexical_decision_task_DD,2021.2.3,MacIntel,62.5,,,,,,,,,,,,1.442,1,,,,,,,,,,,,,,,,,,,,,,,,0.133333333,-0.374444444,0,0,0,,,,,,,MELON,HB,m,m,./images/MELONHB.png,,,,,,,m,1,1.442,,,,,,,,0,82,82,22,1
,,,,,,,,,,,,,,,,,200023,18,2022-01-29_05h41.56,lexical_decision_task_DD,2021.2.3,MacIntel,62.5,,,,,,,,,,,,0.723,1,,,,,,,,,,,,,,,,,,,,,,,,0.133333333,-0.374444444,0,0,0,space,,,,,,WALRUS,LB,m,m,./images/WALRUSLB.png,1.19,,,,,,m,1,0.723,,,,,,,,0,83,83,23,1
,,,,,,,,,,,,,,,,,200023,18,2022-01-29_05h41.56,lexical_decision_task_DD,2021.2.3,MacIntel,62.5,,,,,,,,,,,,2.89,0,,,,,,,,,,,,,,,,,,,,,,,,0.133333333,-0.374444444,0,0,0,,,,,,,STREAM,LB,z,m,./images/STREAMLB.png,,,,,,,m,0,2.89,,,,,,,,0,84,84,125,1
,,,,,,,,,,,,,,,,,200023,18,2022-01-29_05h41.56,lexical_decision_task_DD,2021.2.3,MacIntel,62.5,,,,,,,,,,,,0.704,1,,,,,,,,,,,,,,,,,,,,,,,,0.133333333,-0.374444444,0,0,0,,,,,,,FARMER,LB,m,m,./images/FARMERLB.png,,,,,,,m,1,0.704,,,,,,,,0,85,85,65,1
,,,,,,,,,,,,,,,,,200023,18,2022-01-29_05h41.56,lexical_decision_task_DD,2021.2.3,MacIntel,62.5,,,,,,,,,,,,0.927,0,,,,,,,,,,,,,,,,,,,,,,,,0.133333333,-0.374444444,0,0,0,,,,,,,WRIST,HB,m,m,./images/WRISTHB.png,,,,,,,z,0,0.927,,,,,,,,0,86,86,25,1
,,,,,,,,,,,,,,,,,200023,18,2022-01-29_05h41.56,lexical_decision_task_DD,2021.2.3,MacIntel,62.5,,,,,,,,,,,,0.652,1,,,,,,,,,,,,,,,,,,,,,,,,0.133333333,-0.374444444,0,0,0,,,,,,,LIZARD,LB,m,m,./images/LIZARDLB.png,,,,,,,m,1,0.652,,,,,,,,0,87,87,44,1
,,,,,,,,,,,,,,,,,200023,18,2022-01-29_05h41.56,lexical_decision_task_DD,2021.2.3,MacIntel,62.5,,,,,,,,,,,,0.654,0,,,,,,,,,,,,,,,,,,,,,,,,0.133333333,-0.374444444,0,0,0,,,,,,,BAMBOO,LB,z,m,./images/BAMBOOLB.png,,,,,,,m,0,0.654,,,,,,,,0,88,88,89,1
,,,,,,,,,,,,,,,,,200023,18,2022-01-29_05h41.56,lexical_decision_task_DD,2021.2.3,MacIntel,62.5,,,,,,,,,,,,1.275,0,,,,,,,,,,,,,,,,,,,,,,,,0.133333333,-0.374444444,0,0,0,,,,,,,DANCER,C,z,m,./images/DANCER.png,,,,,,,m,0,1.275,,,,,,,,0,89,89,105,1
,,,,,,,,,,,,,,,,,200023,18,2022-01-29_05h41.56,lexical_decision_task_DD,2021.2.3,MacIntel,62.5,,,,,,,,,,,,0.906,1,,,,,,,,,,,,,,,,,,,,,,,,0.133333333,-0.374444444,0,0,0,,,,,,,BROOM,C,z,m,./images/BROOM.png,,,,,,,z,1,0.906,,,,,,,,0,90,90,162,1
,,,,,,,,,,,,,,,,,200023,18,2022-01-29_05h41.56,lexical_decision_task_DD,2021.2.3,MacIntel,62.5,,,,,,,,,,,,0.815,1,,,,,,,,,,,,,,,,,,,,,,,,0.133333333,-0.374444444,0,0,0,,,,,,,MALLET,LB,m,m,./images/MALLETLB.png,,,,,,,m,1,0.815,,,,,,,,0,91,91,50,1
,,,,,,,,,,,,,,,,,200023,18,2022-01-29_05h41.56,lexical_decision_task_DD,2021.2.3,MacIntel,62.5,,,,,,,,,,,,13.94,0,,,,,,,,,,,,,,,,,,,,,,,,0.135555556,-0.374444444,0,0,0,,,,,,,BOILER,C,z,m,./images/BOILER.png,,,,,,,m,0,13.94,,,,,,,,0,92,92,120,1
,,,,,,,,,,,,,,,,,200023,18,2022-01-29_05h41.56,lexical_decision_task_DD,2021.2.3,MacIntel,62.5,,,,,,,,,,,,0.874,0,,,,,,,,,,,,,,,,,,,,,,,,0.135555556,-0.374444444,0,0,0,,,,,,,CANYON,HB,m,m,./images/CANYONHB.png,,,,,,,z,0,0.874,,,,,,,,0,93,93,34,1
,,,,,,,,,,,,,,,,,200023,18,2022-01-29_05h41.56,lexical_decision_task_DD,2021.2.3,MacIntel,62.5,,,,,,,,,,,,1.396,0,,,,,,,,,,,,,,,,,,,,,,,,0.135555556,-0.374444444,0,0,0,,,,,,,BERRY,LB,m,m,./images/BERRYLB.png,,,,,,,z,0,1.396,,,,,,,,0,94,94,47,1
,,,,,,,,,,,,,,,,,200023,18,2022-01-29_05h41.56,lexical_decision_task_DD,2021.2.3,MacIntel,62.5,,,,,,,,,,,,15.523,1,,,,,,,,,,,,,,,,,,,,,,,,0.136666667,-0.375555556,0,0,0,,,,,,,CURRY,C,z,m,./images/CURRY.png,,,,,,,z,1,15.523,,,,,,,,0,95,95,144,1
,,,,,,,,,,,,,,,,,200023,18,2022-01-29_05h41.56,lexical_decision_task_DD,2021.2.3,MacIntel,62.5,,,,,,,,,,,,1.257,1,,,,,,,,,,,,,,,,,,,,,,,,0.136666667,-0.375555556,0,0,0,,,,,,,LITTER,C,m,m,./images/LITTER.png,,,,,,,m,1,1.257,,,,,,,,0,96,96,78,1
,,,,,,,,,,,,,,,,,200023,18,2022-01-29_05h41.56,lexical_decision_task_DD,2021.2.3,MacIntel,62.5,,,,,,,,,,,,12.873,1,,,,,,,,,,,,,,,,,,,,,,,,0.135555556,-0.373333333,0,0,0,,,,,,,THROAT,C,m,m,./images/THROAT.png,,,,,,,m,1,12.873,,,,,,,,0,97,97,36,1
,,,,,,,,,,,,,,,,,200023,18,2022-01-29_05h41.56,lexical_decision_task_DD,2021.2.3,MacIntel,62.5,,,,,,,,,,,,1.046,1,,,,,,,,,,,,,,,,,,,,,,,,0.142222222,-0.375555556,0,0,0,,,,,,,COUCH,LB,m,m,./images/COUCHLB.png,,,,,,,m,1,1.046,,,,,,,,0,98,98,77,1
,,,,,,,,,,,,,,,,,200023,18,2022-01-29_05h41.56,lexical_decision_task_DD,2021.2.3,MacIntel,62.5,,,,,,,,,,,,1.349,1,,,,,,,,,,,,,,,,,,,,,,,,0.142222222,-0.375555556,0,0,0,,,,,,,BURIAL,LB,m,m,./images/BURIALLB.png,,,,,,,m,1,1.349,,,,,,,,0,99,99,59,1
,,,,,,,,,,,,,,,,,200023,18,2022-01-29_05h41.56,lexical_decision_task_DD,2021.2.3,MacIntel,62.5,,,,,,,,,,,,0.739,1,,,,,,,,,,,,,,,,,,,,,,,,0.142222222,-0.375555556,0,0,0,,,,,,,PURSE,LB,m,m,./images/PURSELB.png,,,,,,,m,1,0.739,,,,,,,,0,100,100,62,1
,,,,,,,,,,,,,,,,,200023,18,2022-01-29_05h41.56,lexical_decision_task_DD,2021.2.3,MacIntel,62.5,,,,,,,,,,,,0.742,1,,,,,,,,,,,,,,,,,,,,,,,,0.142222222,-0.375555556,0,0,0,,,,,,,MOSQUE,HB,m,m,./images/MOSQUEHB.png,,,,,,,m,1,0.742,,,,,,,,0,101,101,43,1
,,,,,,,,,,,,,,,,,200023,18,2022-01-29_05h41.56,lexical_decision_task_DD,2021.2.3,MacIntel,62.5,,,,,,,,,,,,0.846,1,,,,,,,,,,,,,,,,,,,,,,,,0.142222222,-0.375555556,0,0,0,,,,,,,FOLDER,C,m,m,./images/FOLDER.png,,,,,,,m,1,0.846,,,,,,,,0,102,102,42,1
,,,,,,,,,,,,,,,,,200023,18,2022-01-29_05h41.56,lexical_decision_task_DD,2021.2.3,MacIntel,62.5,,,,,,,,,,,,19.525,1,,,,,,,,,,,,,,,,,,,,,,,,0.14,-0.374444444,0,0,0,,,,,,,FALCON,HB,m,m,./images/FALCONHB.png,,,,,,,m,1,19.525,,,,,,,,0,103,103,28,1
,,,,,,,,,,,,,,,,,200023,18,2022-01-29_05h41.56,lexical_decision_task_DD,2021.2.3,MacIntel,62.5,,,,,,,,,,,,0.748,0,,,,,,,,,,,,,,,,,,,,,,,,0.14,-0.374444444,0,0,0,,,,,,,BRIDE,HB,z,m,./images/BRIDEHB.png,,,,,,,m,0,0.748,,,,,,,,0,104,104,148,1
,,,,,,,,,,,,,,,,,200023,18,2022-01-29_05h41.56,lexical_decision_task_DD,2021.2.3,MacIntel,62.5,,,,,,,,,,,,0.64,1,,,,,,,,,,,,,,,,,,,,,,,,0.14,-0.374444444,0,0,0,,,,,,,COOKER,C,m,m,./images/COOKER.png,,,,,,,m,1,0.64,,,,,,,,0,105,105,69,1
,,,,,,,,,,,,,,,,,200023,18,2022-01-29_05h41.56,lexical_decision_task_DD,2021.2.3,MacIntel,62.5,,,,,,,,,,,,1.285,0,,,,,,,,,,,,,,,,,,,,,,,,0.14,-0.374444444,0,0,0,,,,,,,SPORT,C,m,m,./images/SPORT.png,,,,,,,z,0,1.285,,,,,,,,0,106,106,48,1
,,,,,,,,,,,,,,,,,200023,18,2022-01-29_05h41.56,lexical_decision_task_DD,2021.2.3,MacIntel,62.5,,,,,,,,,,,,1.143,1,,,,,,,,,,,,,,,,,,,,,,,,0.14,-0.374444444,0,0,0,,,,,,,LAGOON,LB,z,m,./images/LAGOONLB.png,,,,,,,z,1,1.143,,,,,,,,0,107,107,131,1
,,,,,,,,,,,,,,,,,200023,18,2022-01-29_05h41.56,lexical_decision_task_DD,2021.2.3,MacIntel,62.5,,,,,,,,,,,,1.03,0,,,,,,,,,,,,,,,,,,,,,,,,0.14,-0.374444444,0,0,0,,,,,,,BUNNY,HB,z,m,./images/BUNNYHB.png,,,,,,,m,0,1.03,,,,,,,,0,108,108,97,1
,,,,,,,,,,,,,,,,,200023,18,2022-01-29_05h41.56,lexical_decision_task_DD,2021.2.3,MacIntel,62.5,,,,,,,,,,,,1.013,0,,,,,,,,,,,,,,,,,,,,,,,,0.14,-0.374444444,0,0,0,,,,,,,MOTOR,HB,m,m,./images/MOTORHB.png,,,,,,,z,0,1.013,,,,,,,,0,109,109,13,1
,,,,,,,,,,,,,,,,,200023,18,2022-01-29_05h41.56,lexical_decision_task_DD,2021.2.3,MacIntel,62.5,,,,,,,,,,,,249.946,0,,,,,,,,,,,,,,,,,,,,,,,,0.250343879,-0.578404402,0,0,0,,,,,,,GRANNY,LB,z,m,./images/GRANNYLB.png,,,,,,,m,0,249.946,,,,,,,,0,110,110,104,1
,,,,,,,,,,,,,,,,,200023,18,2022-01-29_05h41.56,lexical_decision_task_DD,2021.2.3,MacIntel,62.5,,,,,,,,,,,,1.091,0,,,,,,,,,,,,,,,,,,,,,,,,0.250343879,-0.578404402,0,0,0,,,,,,,JELLY,HB,m,m,./images/JELLYHB.png,,,,,,,z,0,1.091,,,,,,,,0,111,111,64,1
,,,,,,,,,,,,,,,,,200023,18,2022-01-29_05h41.56,lexical_decision_task_DD,2021.2.3,MacIntel,62.5,,,,,,,,,,,,1.646,0,,,,,,,,,,,,,,,,,,,,,,,,0.250343879,-0.578404402,0,0,0,,,,,,,POODLE,C,m,m,./images/POODLE.png,,,,,,,z,0,1.646,,,,,,,,0,112,112,81,1
,,,,,,,,,,,,,,,,,200023,18,2022-01-29_05h41.56,lexical_decision_task_DD,2021.2.3,MacIntel,62.5,,,,,,,,,,,,1.098,0,,,,,,,,,,,,,,,,,,,,,,,,0.250343879,-0.578404402,0,0,0,,,,,,,TWINS,C,m,m,./images/TWINS.png,,,,,,,z,0,1.098,,,,,,,,0,113,113,60,1
,,,,,,,,,,,,,,,,,200023,18,2022-01-29_05h41.56,lexical_decision_task_DD,2021.2.3,MacIntel,62.5,,,,,,,,,,,,4.015,1,,,,,,,,,,,,,,,,,,,,,,,,0.250343879,-0.578404402,0,0,0,,,,,,,CARPET,LB,m,m,./images/CARPETLB.png,,,,,,,m,1,4.015,,,,,,,,0,114,114,53,1
,,,,,,,,,,,,,,,,,200023,18,2022-01-29_05h41.56,lexical_decision_task_DD,2021.2.3,MacIntel,62.5,,,,,,,,,,,,1.641,0,,,,,,,,,,,,,,,,,,,,,,,,0.250343879,-0.578404402,0,0,0,,,,,,,PEACH,LB,m,m,./images/PEACHLB.png,,,,,,,z,0,1.641,,,,,,,,0,115,115,35,1
,,,,,,,,,,,,,,,,,200023,18,2022-01-29_05h41.56,lexical_decision_task_DD,2021.2.3,MacIntel,62.5,,,,,,,,,,,,1.007,1,,,,,,,,,,,,,,,,,,,,,,,,0.250343879,-0.578404402,0,0,0,,,,,,,STORM,C,m,m,./images/STORM.png,,,,,,,m,1,1.007,,,,,,,,0,116,116,30,1
,,,,,,,,,,,,,,,,,200023,18,2022-01-29_05h41.56,lexical_decision_task_DD,2021.2.3,MacIntel,62.5,,,,,,,,,,,,0.849,1,,,,,,,,,,,,,,,,,,,,,,,,0.250343879,-0.578404402,0,0,0,,,,,,,PAINT,HB,m,m,./images/PAINTHB.png,,,,,,,m,1,0.849,,,,,,,,0,117,117,7,1
,,,,,,,,,,,,,,,,,200023,18,2022-01-29_05h41.56,lexical_decision_task_DD,2021.2.3,MacIntel,62.5,,,,,,,,,,,,1.691,1,,,,,,,,,,,,,,,,,,,,,,,,0.250343879,-0.578404402,0,0,0,,,,,,,SNAKE,HB,z,m,./images/SNAKEHB.png,,,,,,,z,1,1.691,,,,,,,,0,118,118,124,1
,,,,,,,,,,,,,,,,,200023,18,2022-01-29_05h41.56,lexical_decision_task_DD,2021.2.3,MacIntel,62.5,,,,,,,,,,,,0.739,1,,,,,,,,,,,,,,,,,,,,,,,,0.250343879,-0.578404402,0,0,0,,,,,,,BARREL,LB,m,m,./images/BARRELLB.png,,,,,,,m,1,0.739,,,,,,,,0,119,119,32,1
,,,,,,,,,,,,,,,,,200023,18,2022-01-29_05h41.56,lexical_decision_task_DD,2021.2.3,MacIntel,62.5,,,,,,,,,,,,1.149,1,,,,,,,,,,,,,,,,,,,,,,,,0.250343879,-0.578404402,0,0,0,,,,,,,SAILOR,HB,m,m,./images/SAILORHB.png,,,,,,,m,1,1.149,,,,,,,,0,120,120,67,1
,,,,,,,,,,,,,,,,,200023,18,2022-01-29_05h41.56,lexical_decision_task_DD,2021.2.3,MacIntel,62.5,,,,,,,,,,,,0.681,1,,,,,,,,,,,,,,,,,,,,,,,,0.250343879,-0.578404402,0,0,0,,,,,,,BELLY,HB,m,m,./images/BELLYHB.png,,,,,,,m,1,0.681,,,,,,,,0,121,121,10,1
,,,,,,,,,,,,,,,,,200023,18,2022-01-29_05h41.56,lexical_decision_task_DD,2021.2.3,MacIntel,62.5,,,,,,,,,,,,2.796,1,,,,,,,,,,,,,,,,,,,,,,,,0.250343879,-0.578404402,0,0,0,,,,,,,POSTER,LB,z,m,./images/POSTERLB.png,,,,,,,z,1,2.796,,,,,,,,0,122,122,137,1
,,,,,,,,,,,,,,,,,200023,18,2022-01-29_05h41.56,lexical_decision_task_DD,2021.2.3,MacIntel,62.5,,,,,,,,,,,,0.863,0,,,,,,,,,,,,,,,,,,,,,,,,0.250343879,-0.578404402,0,0,0,,,,,,,CEMENT,LB,m,m,./images/CEMENTLB.png,,,,,,,z,0,0.863,,,,,,,,0,123,123,74,1
,,,,,,,,,,,,,,,,,200023,18,2022-01-29_05h41.56,lexical_decision_task_DD,2021.2.3,MacIntel,62.5,,,,,,,,,,,,1.248,1,,,,,,,,,,,,,,,,,,,,,,,,0.250343879,-0.578404402,0,0,0,,,,,,,MONKEY,C,z,m,./images/MONKEY.png,,,,,,,z,1,1.248,,,,,,,,0,124,124,129,1
,,,,,,,,,,,,,,,,,200023,18,2022-01-29_05h41.56,lexical_decision_task_DD,2021.2.3,MacIntel,62.5,,,,,,,,,,,,1,1,,,,,,,,,,,,,,,,,,,,,,,,0.250343879,-0.578404402,0,0,0,space,,,,,,CLIFF,LB,z,m,./images/CLIFFLB.png,1.347,,,,,,z,1,1,,,,,,,,0,125,125,92,1
,,,,,,,,,,,,,,,,,200023,18,2022-01-29_05h41.56,lexical_decision_task_DD,2021.2.3,MacIntel,62.5,,,,,,,,,,,,1.932,1,,,,,,,,,,,,,,,,,,,,,,,,0.250343879,-0.578404402,0,0,0,,,,,,,BISHOP,HB,z,m,./images/BISHOPHB.png,,,,,,,z,1,1.932,,,,,,,,0,126,126,133,1
,,,,,,,,,,,,,,,,,200023,18,2022-01-29_05h41.56,lexical_decision_task_DD,2021.2.3,MacIntel,62.5,,,,,,,,,,,,0.909,1,,,,,,,,,,,,,,,,,,,,,,,,0.250343879,-0.578404402,0,0,0,,,,,,,INFANT,HB,m,m,./images/INFANTHB.png,,,,,,,m,1,0.909,,,,,,,,0,127,127,76,1
,,,,,,,,,,,,,,,,,200023,18,2022-01-29_05h41.56,lexical_decision_task_DD,2021.2.3,MacIntel,62.5,,,,,,,,,,,,2.389,1,,,,,,,,,,,,,,,,,,,,,,,,0.250343879,-0.578404402,0,0,0,,,,,,,PISTOL,LB,z,m,./images/PISTOLLB.png,,,,,,,z,1,2.389,,,,,,,,0,128,128,113,1
,,,,,,,,,,,,,,,,,200023,18,2022-01-29_05h41.56,lexical_decision_task_DD,2021.2.3,MacIntel,62.5,,,,,,,,,,,,1.213,1,,,,,,,,,,,,,,,,,,,,,,,,0.250343879,-0.578404402,0,0,0,,,,,,,SCREW,C,m,m,./images/SCREW.png,,,,,,,m,1,1.213,,,,,,,,0,129,129,24,1
,,,,,,,,,,,,,,,,,200023,18,2022-01-29_05h41.56,lexical_decision_task_DD,2021.2.3,MacIntel,62.5,,,,,,,,,,,,1.108,1,,,,,,,,,,,,,,,,,,,,,,,,0.250343879,-0.578404402,0,0,0,,,,,,,TORCH,LB,m,m,./images/TORCHLB.png,,,,,,,m,1,1.108,,,,,,,,0,130,130,68,1
,,,,,,,,,,,,,,,,,200023,18,2022-01-29_05h41.56,lexical_decision_task_DD,2021.2.3,MacIntel,62.5,,,,,,,,,,,,0.714,1,,,,,,,,,,,,,,,,,,,,,,,,0.250343879,-0.578404402,0,0,0,,,,,,,CASINO,HB,z,m,./images/CASINOHB.png,,,,,,,z,1,0.714,,,,,,,,0,131,131,112,1
,,,,,,,,,,,,,,,,,200023,18,2022-01-29_05h41.56,lexical_decision_task_DD,2021.2.3,MacIntel,62.5,,,,,,,,,,,,0.826,1,,,,,,,,,,,,,,,,,,,,,,,,0.074277854,-0.077716644,0,0,0,,,,,,,QUILL,HB,m,m,./images/QUILLHB.png,,,,,,,m,1,0.826,,,,,,,,0,132,132,31,1
,,,,,,,,,,,,,,,,,200023,18,2022-01-29_05h41.56,lexical_decision_task_DD,2021.2.3,MacIntel,62.5,,,,,,,,,,,,1.249,0,,,,,,,,,,,,,,,,,,,,,,,,0.074277854,-0.077716644,0,0,0,,,,,,,CANDY,C,z,m,./images/CANDY.png,,,,,,,m,0,1.249,,,,,,,,0,133,133,123,1
,,,,,,,,,,,,,,,,,200023,18,2022-01-29_05h41.56,lexical_decision_task_DD,2021.2.3,MacIntel,62.5,,,,,,,,,,,,0.964,1,,,,,,,,,,,,,,,,,,,,,,,,0.074277854,-0.077716644,0,0,0,,,,,,,CHALK,HB,z,m,./images/CHALKHB.png,,,,,,,z,1,0.964,,,,,,,,0,134,134,109,1
,,,,,,,,,,,,,,,,,200023,18,2022-01-29_05h41.56,lexical_decision_task_DD,2021.2.3,MacIntel,62.5,,,,,,,,,,,,1.374,0,,,,,,,,,,,,,,,,,,,,,,,,0.074277854,-0.077716644,0,0,0,,,,,,,SQUARE,C,m,m,./images/SQUARE.png,,,,,,,z,0,1.374,,,,,,,,0,135,135,6,1
,,,,,,,,,,,,,,,,,200023,18,2022-01-29_05h41.56,lexical_decision_task_DD,2021.2.3,MacIntel,62.5,,,,,,,,,,,,1.19,1,,,,,,,,,,,,,,,,,,,,,,,,0.074277854,-0.077716644,0,0,0,,,,,,,URINE,HB,m,m,./images/URINEHB.png,,,,,,,m,1,1.19,,,,,,,,0,136,136,70,1
,,,,,,,,,,,,,,,,,200023,18,2022-01-29_05h41.56,lexical_decision_task_DD,2021.2.3,MacIntel,62.5,,,,,,,,,,,,7.882,1,,,,,,,,,,,,,,,,,,,,,,,,0.074277854,-0.077716644,0,0,0,,,,,,,BIRTH,HB,m,m,./images/BIRTHHB.png,,,,,,,m,1,7.882,,,,,,,,0,137,137,37,1
,,,,,,,,,,,,,,,,,200023,18,2022-01-29_05h41.56,lexical_decision_task_DD,2021.2.3,MacIntel,62.5,,,,,,,,,,,,2.475,0,,,,,,,,,,,,,,,,,,,,,,,,0.074277854,-0.077716644,0,0,0,,,,,,,FERRY,C,z,m,./images/FERRY.png,,,,,,,m,0,2.475,,,,,,,,0,138,138,141,1
,,,,,,,,,,,,,,,,,200023,18,2022-01-29_05h41.56,lexical_decision_task_DD,2021.2.3,MacIntel,62.5,,,,,,,,,,,,0.807,1,,,,,,,,,,,,,,,,,,,,,,,,0.074277854,-0.077716644,0,0,0,,,,,,,POKER,HB,z,m,./images/POKERHB.png,,,,,,,z,1,0.807,,,,,,,,0,139,139,151,1
,,,,,,,,,,,,,,,,,200023,18,2022-01-29_05h41.56,lexical_decision_task_DD,2021.2.3,MacIntel,62.5,,,,,,,,,,,,0.741,1,,,,,,,,,,,,,,,,,,,,,,,,0.074277854,-0.077716644,0,0,0,,,,,,,CLOTH,LB,z,m,./images/CLOTHLB.png,,,,,,,z,1,0.741,,,,,,,,0,140,140,107,1
,,,,,,,,,,,,,,,,,200023,18,2022-01-29_05h41.56,lexical_decision_task_DD,2021.2.3,MacIntel,62.5,,,,,,,,,,,,0.848,0,,,,,,,,,,,,,,,,,,,,,,,,0.074277854,-0.077716644,0,0,0,,,,,,,WEASEL,LB,m,m,./images/WEASELLB.png,,,,,,,z,0,0.848,,,,,,,,0,141,141,80,1
,,,,,,,,,,,,,,,,,200023,18,2022-01-29_05h41.56,lexical_decision_task_DD,2021.2.3,MacIntel,62.5,,,,,,,,,,,,1.581,1,,,,,,,,,,,,,,,,,,,,,,,,0.074277854,-0.077716644,0,0,0,,,,,,,GRAPE,HB,z,m,./images/GRAPEHB.png,,,,,,,z,1,1.581,,,,,,,,0,142,142,100,1
,,,,,,,,,,,,,,,,,200023,18,2022-01-29_05h41.56,lexical_decision_task_DD,2021.2.3,MacIntel,62.5,,,,,,,,,,,,3.963,1,,,,,,,,,,,,,,,,,,,,,,,,0.074277854,-0.077716644,0,0,0,,,,,,,WHEEL,LB,z,m,./images/WHEELLB.png,,,,,,,z,1,3.963,,,,,,,,0,143,143,161,1
,,,,,,,,,,,,,,,,,200023,18,2022-01-29_05h41.56,lexical_decision_task_DD,2021.2.3,MacIntel,62.5,,,,,,,,,,,,0.741,0,,,,,,,,,,,,,,,,,,,,,,,,0.074277854,-0.077716644,0,0,0,,,,,,,RHINO,C,m,m,./images/RHINO.png,,,,,,,z,0,0.741,,,,,,,,0,144,144,9,1
,,,,,,,,,,,,,,,,,200023,18,2022-01-29_05h41.56,lexical_decision_task_DD,2021.2.3,MacIntel,62.5,,,,,,,,,,,,0.773,1,,,,,,,,,,,,,,,,,,,,,,,,0.074277854,-0.077716644,0,0,0,,,,,,,MEDAL,LB,z,m,./images/MEDALLB.png,,,,,,,z,1,0.773,,,,,,,,0,145,145,95,1
,,,,,,,,,,,,,,,,,200023,18,2022-01-29_05h41.56,lexical_decision_task_DD,2021.2.3,MacIntel,62.5,,,,,,,,,,,,0.798,1,,,,,,,,,,,,,,,,,,,,,,,,0.074277854,-0.077716644,0,0,0,,,,,,,TULIP,LB,m,m,./images/TULIPLB.png,,,,,,,m,1,0.798,,,,,,,,0,146,146,8,1
,,,,,,,,,,,,,,,,,200023,18,2022-01-29_05h41.56,lexical_decision_task_DD,2021.2.3,MacIntel,62.5,,,,,,,,,,,,1.833,1,,,,,,,,,,,,,,,,,,,,,,,,0.074277854,-0.077716644,0,0,0,,,,,,,MIRROR,C,m,m,./images/MIRROR.png,,,,,,,m,1,1.833,,,,,,,,0,147,147,63,1
,,,,,,,,,,,,,,,,,200023,18,2022-01-29_05h41.56,lexical_decision_task_DD,2021.2.3,MacIntel,62.5,,,,,,,,,,,,0.692,1,,,,,,,,,,,,,,,,,,,,,,,,0.074277854,-0.077716644,0,0,0,,,,,,,GREASE,C,m,m,./images/GREASE.png,,,,,,,m,1,0.692,,,,,,,,0,148,148,15,1
,,,,,,,,,,,,,,,,,200023,18,2022-01-29_05h41.56,lexical_decision_task_DD,2021.2.3,MacIntel,62.5,,,,,,,,,,,,1.198,1,,,,,,,,,,,,,,,,,,,,,,,,0.074277854,-0.077716644,0,0,0,,,,,,,CANDLE,HB,m,m,./images/CANDLEHB.png,,,,,,,m,1,1.198,,,,,,,,0,149,149,61,1
,,,,,,,,,,,,,,,,,200023,18,2022-01-29_05h41.56,lexical_decision_task_DD,2021.2.3,MacIntel,62.5,,,,,,,,,,,,0.706,1,,,,,,,,,,,,,,,,,,,,,,,,0.074277854,-0.077716644,0,0,0,,,,,,,LADDER,LB,m,m,./images/LADDERLB.png,,,,,,,m,1,0.706,,,,,,,,0,150,150,38,1
,,,,,,,,,,,,,,,,,200023,18,2022-01-29_05h41.56,lexical_decision_task_DD,2021.2.3,MacIntel,62.5,,,,,,,,,,,,0.688,1,,,,,,,,,,,,,,,,,,,,,,,,0.074277854,-0.077716644,0,0,0,,,,,,,BABOON,HB,m,m,./images/BABOONHB.png,,,,,,,m,1,0.688,,,,,,,,0,151,151,58,1
,,,,,,,,,,,,,,,,,200023,18,2022-01-29_05h41.56,lexical_decision_task_DD,2021.2.3,MacIntel,62.5,,,,,,,,,,,,1.265,1,,,,,,,,,,,,,,,,,,,,,,,,0.074277854,-0.077716644,0,0,0,,,,,,,CRUMB,LB,m,m,./images/CRUMBLB.png,,,,,,,m,1,1.265,,,,,,,,0,152,152,29,1
,,,,,,,,,,,,,,,,,200023,18,2022-01-29_05h41.56,lexical_decision_task_DD,2021.2.3,MacIntel,62.5,,,,,,,,,,,,0.617,1,,,,,,,,,,,,,,,,,,,,,,,,0.074277854,-0.077716644,0,0,0,,,,,,,CRUST,HB,m,m,./images/CRUSTHB.png,,,,,,,m,1,0.617,,,,,,,,0,153,153,79,1
,,,,,,,,,,,,,,,,,200023,18,2022-01-29_05h41.56,lexical_decision_task_DD,2021.2.3,MacIntel,62.5,,,,,,,,,,,,1.432,0,,,,,,,,,,,,,,,,,,,,,,,,0.074277854,-0.077716644,0,0,0,,,,,,,PARADE,LB,z,m,./images/PARADELB.png,,,,,,,m,0,1.432,,,,,,,,0,154,154,101,1
,,,,,,,,,,,,,,,,,200023,18,2022-01-29_05h41.56,lexical_decision_task_DD,2021.2.3,MacIntel,62.5,,,,,,,,,,,,0.716,1,,,,,,,,,,,,,,,,,,,,,,,,0.074277854,-0.077716644,0,0,0,,,,,,,DONKEY,HB,z,m,./images/DONKEYHB.png,,,,,,,z,1,0.716,,,,,,,,0,155,155,103,1
,,,,,,,,,,,,,,,,,200023,18,2022-01-29_05h41.56,lexical_decision_task_DD,2021.2.3,MacIntel,62.5,,,,,,,,,,,,0.742,1,,,,,,,,,,,,,,,,,,,,,,,,0.074277854,-0.077716644,0,0,0,,,,,,,BRUSH,LB,z,m,./images/BRUSHLB.png,,,,,,,z,1,0.742,,,,,,,,0,156,156,143,1
,,,,,,,,,,,,,,,,,200023,18,2022-01-29_05h41.56,lexical_decision_task_DD,2021.2.3,MacIntel,62.5,,,,,,,,,,,,0.724,1,,,,,,,,,,,,,,,,,,,,,,,,0.074277854,-0.077716644,0,0,0,,,,,,,WAGON,HB,z,m,./images/WAGONHB.png,,,,,,,z,1,0.724,,,,,,,,0,157,157,91,1
,,,,,,,,,,,,,,,,,200023,18,2022-01-29_05h41.56,lexical_decision_task_DD,2021.2.3,MacIntel,62.5,,,,,,,,,,,,0.91,0,,,,,,,,,,,,,,,,,,,,,,,,0.074277854,-0.077716644,0,0,0,,,,,,,PICKLE,LB,m,m,./images/PICKLELB.png,,,,,,,z,0,0.91,,,,,,,,0,158,158,14,1
,,,,,,,,,,,,,,,,,200023,18,2022-01-29_05h41.56,lexical_decision_task_DD,2021.2.3,MacIntel,62.5,,,,,,,,,,,,2.244,1,,,,,,,,,,,,,,,,,,,,,,,,0.074277854,-0.077716644,0,0,0,,,,,,,PILOT,LB,z,m,./images/PILOTLB.png,,,,,,,z,1,2.244,,,,,,,,0,159,159,134,1
,,,,,,,,,,,,,,,,,200023,18,2022-01-29_05h41.56,lexical_decision_task_DD,2021.2.3,MacIntel,62.5,,,,,,,,,,,,0.718,1,,,,,,,,,,,,,,,,,,,,,,,,0.074277854,-0.077716644,0,0,0,,,,,,,GLOVE,HB,z,m,./images/GLOVEHB.png,,,,,,,z,1,0.718,,,,,,,,0,160,160,157,1
,,,,,,,,,,,,,,,,,200023,18,2022-01-29_05h41.56,lexical_decision_task_DD,2021.2.3,MacIntel,62.5,,,,,,,,,,,,0.706,1,,,,,,,,,,,,,,,,,,,,,,,,0.074277854,-0.077716644,0,0,0,,,,,,,JUNGLE,LB,m,m,./images/JUNGLELB.png,,,,,,,m,1,0.706,,,,,,,,0,161,161,83,1
,,,,,,,,,,,,,,,,,200023,18,2022-01-29_05h41.56,lexical_decision_task_DD,2021.2.3,MacIntel,62.5,,,,,,,,,,,,1.941,1,,,,,,,,,,,,,,,,,,,,,,,,0.074277854,-0.077716644,0,0,0,,,,,,,DIVER,C,z,m,./images/DIVER.png,,,,,,,z,1,1.941,,,,,,,,0,162,162,93,1
,,,,,,,,,,,,,,,,,200023,18,2022-01-29_05h41.56,lexical_decision_task_DD,2021.2.3,MacIntel,62.5,,,,,,,,,,,,0.732,1,,,,,,,,,,,,,,,,,,,,,,,,0.074277854,-0.077716644,0,0,0,,,,,,,WHISKY,LB,z,m,./images/WHISKYLB.png,,,,,,,z,1,0.732,,,,,,,,0,163,163,167,1
,,,,,,,,,,,,,,,,,200023,18,2022-01-29_05h41.56,lexical_decision_task_DD,2021.2.3,MacIntel,62.5,,,,,,,,,,,,0.717,1,,,,,,,,,,,,,,,,,,,,,,,,0.074277854,-0.077716644,0,0,0,,,,,,,TRIPOD,C,m,m,./images/TRIPOD.png,,,,,,,m,1,0.717,,,,,,,,0,164,164,54,1
,,,,,,,,,,,,,,,,,200023,18,2022-01-29_05h41.56,lexical_decision_task_DD,2021.2.3,MacIntel,62.5,,,,,,,,,,,,0.848,1,,,,,,,,,,,,,,,,,,,,,,,,0.074277854,-0.077716644,0,0,0,,,,,,,HOCKEY,LB,z,m,./images/HOCKEYLB.png,,,,,,,z,1,0.848,,,,,,,,0,165,165,116,1
,,,,,,,,,,,,,,,,,200023,18,2022-01-29_05h41.56,lexical_decision_task_DD,2021.2.3,MacIntel,62.5,,,,,,,,,,,,0.695,1,,,,,,,,,,,,,,,,,,,,,,,,0.074277854,-0.077716644,0,0,0,,,,,,,PASTA,LB,m,m,./images/PASTALB.png,,,,,,,m,1,0.695,,,,,,,,0,166,166,5,1
,,,,,,,,,,,,,,,,,200023,18,2022-01-29_05h41.56,lexical_decision_task_DD,2021.2.3,MacIntel,62.5,,,,,,,,,,,,0.682,1,,,,,,,,,,,,,,,,,,,,,,,,0.074277854,-0.077716644,0,0,0,,,,,,,BONNET,LB,m,m,./images/BONNETLB.png,,,,,,,m,1,0.682,,,,,,,,0,167,167,11,1
