key_resp.keys,instr_done_touch.x,instr_done_touch.y,instr_done_touch.leftButton,instr_done_touch.midButton,instr_done_touch.rightButton,instr_done_touch.clicked_name,instruction_pages.thisRepN,instruction_pages.thisTrialN,instruction_pages.thisN,instruction_pages.thisIndex,instruction_pages.ran,pageN,phase,instruct_text,has_image,instruct_image,participant,age,date,expName,psychopyVersion,OS,frameRate,key_resp.rt,response.keys,response.corr,response.rt,touch_resp.x,touch_resp.y,touch_resp.leftButton,touch_resp.midButton,touch_resp.rightButton,touch_resp.time,touch_resp.clicked_name,rt,corr,practrials.thisRepN,practrials.thisTrialN,practrials.thisN,practrials.thisIndex,practrials.ran,TrialID,Target,corrAns,end_of_practice_trials_pages.thisRepN,end_of_practice_trials_pages.thisTrialN,end_of_practice_trials_pages.thisN,end_of_practice_trials_pages.thisIndex,end_of_practice_trials_pages.ran,key_resp_2.keys,key_resp_2.corr,key_resp_2.rt,targ_click.x,targ_click.y,targ_click.leftButton,targ_click.midButton,targ_click.rightButton,targ_click.time,targ_click.clicked_name,break_done_touch.x,break_done_touch.y,break_done_touch.leftButton,break_done_touch.midButton,break_done_touch.rightButton,break_done_keyboard.keys,maintrials.thisRepN,maintrials.thisTrialN,maintrials.thisN,maintrials.thisIndex,maintrials.ran,string,blur,study,lex,stim_path,break_done_keyboard.rt,test_instructions.thisRepN,test_instructions.thisTrialN,test_instructions.thisN,test_instructions.thisIndex,test_instructions.ran,key_resp_3.keys,key_resp_3.corr,key_resp_3.rt,test_click.x,test_click.y,test_click.leftButton,test_click.midButton,test_click.rightButton,test_click.time,test_click.clicked_name,test_phase.thisRepN,test_phase.thisTrialN,test_phase.thisN,test_phase.thisIndex,test_phase.ran
,0.116551724,-0.38137931,1,0,0,instr_done_button,0,0,0,0,1,1,instructions,"INSTRUCTIONS
At the start of each trial, look at the plus sign  (+) in the center of the screen.  This tells you that a trial is about to begin and where to look. Second, the plus sign will disappear and a string of letters will appear. Your task is to determine if the string of letters is a word or not. If the item is a word press the M key (on keyboard)  or touch the word button (phone/tablet).  If the item is not a word,  press the  Z key (on keyboard)  or touch the nonword button (on phone/tablet). 
Press the space bar or touch  continue.",0,,200020,19,2022-01-25_20h52.26.870,lexical_decision_task_DD_L6,2021.2.3,MacIntel,58.82352941,,,,,,,,,,,,,,,,,,,,,,,,,,,,,,,,,,,,,,,,,,,,,,,,,,,,,,,,,,,,,,,,,,,,,,,,,
space,0.112413793,-0.006206897,0,0,0,,0,1,1,1,1,2,instructions,"If your device has a keyboard, press the 'Z' key for nonwords and the 'M' key for words.





Press the space bar or touch the button below to continue.",0,keyboard-example.gif,200020,19,2022-01-25_20h52.26.870,lexical_decision_task_DD_L6,2021.2.3,MacIntel,58.82352941,11.591,,,,,,,,,,,,,,,,,,,,,,,,,,,,,,,,,,,,,,,,,,,,,,,,,,,,,,,,,,,,,,,,,,,,,,,,
space,0.112413793,-0.006206897,0,0,0,,0,2,2,2,1,3,instructions,"If you are using a touchscreen only device, use the buttons on the screen. Do not use the mouse.





Press the space bar or touch the button below to continue.",0,touchscreen-example.gif,200020,19,2022-01-25_20h52.26.870,lexical_decision_task_DD_L6,2021.2.3,MacIntel,58.82352941,3.123,,,,,,,,,,,,,,,,,,,,,,,,,,,,,,,,,,,,,,,,,,,,,,,,,,,,,,,,,,,,,,,,,,,,,,,,
space,0.112413793,-0.006206897,0,0,0,,0,3,3,3,1,4,instructions,"It is very important that you respond as quickly and accurately as possible, as each letter string will only be on the screen for two seconds. If you do not respond within this time, the message 'Too slow!' will be displayed and the experiment will progress to the next letter string. The first 20 trials will be practice trials and you will receive feedback on your answers. 

Press the space bar or touch the button below to start the practice trials.",0,,200020,19,2022-01-25_20h52.26.870,lexical_decision_task_DD_L6,2021.2.3,MacIntel,58.82352941,22.596,,,,,,,,,,,,,,,,,,,,,,,,,,,,,,,,,,,,,,,,,,,,,,,,,,,,,,,,,,,,,,,,,,,,,,,,
,,,,,,,,,,,,,,,,,200020,19,2022-01-25_20h52.26.870,lexical_decision_task_DD_L6,2021.2.3,MacIntel,58.82352941,,m,0,1.524,,,,,,,,1.524,0,0,0,0,13,1,1001,ROUPET,z,,,,,,,,,,,,,,,,,,,,,,,,,,,,,,,,,,,,,,,,,,,,,,,,,,,,
,,,,,,,,,,,,,,,,,200020,19,2022-01-25_20h52.26.870,lexical_decision_task_DD_L6,2021.2.3,MacIntel,58.82352941,,z,1,1.212,,,,,,,,1.212,1,0,1,1,12,1,1001,SPRINY,z,,,,,,,,,,,,,,,,,,,,,,,,,,,,,,,,,,,,,,,,,,,,,,,,,,,,
,,,,,,,,,,,,,,,,,200020,19,2022-01-25_20h52.26.870,lexical_decision_task_DD_L6,2021.2.3,MacIntel,58.82352941,,m,0,0.996,,,,,,,,0.996,0,0,2,2,14,1,1001,THRALE,z,,,,,,,,,,,,,,,,,,,,,,,,,,,,,,,,,,,,,,,,,,,,,,,,,,,,
,,,,,,,,,,,,,,,,,200020,19,2022-01-25_20h52.26.870,lexical_decision_task_DD_L6,2021.2.3,MacIntel,58.82352941,,m,1,0.73,,,,,,,,0.73,1,0,3,3,5,1,1001,OBTAIN,m,,,,,,,,,,,,,,,,,,,,,,,,,,,,,,,,,,,,,,,,,,,,,,,,,,,,
,,,,,,,,,,,,,,,,,200020,19,2022-01-25_20h52.26.870,lexical_decision_task_DD_L6,2021.2.3,MacIntel,58.82352941,,z,1,1.086,,,,,,,,1.086,1,0,4,4,10,1,1001,INLADE,z,,,,,,,,,,,,,,,,,,,,,,,,,,,,,,,,,,,,,,,,,,,,,,,,,,,,
,,,,,,,,,,,,,,,,,200020,19,2022-01-25_20h52.26.870,lexical_decision_task_DD_L6,2021.2.3,MacIntel,58.82352941,,m,1,0.712,,,,,,,,0.712,1,0,5,5,6,1,1001,ZOMBIE,m,,,,,,,,,,,,,,,,,,,,,,,,,,,,,,,,,,,,,,,,,,,,,,,,,,,,
,,,,,,,,,,,,,,,,,200020,19,2022-01-25_20h52.26.870,lexical_decision_task_DD_L6,2021.2.3,MacIntel,58.82352941,,m,1,0.794,,,,,,,,0.794,1,0,6,6,0,1,1001,UTOPIA,m,,,,,,,,,,,,,,,,,,,,,,,,,,,,,,,,,,,,,,,,,,,,,,,,,,,,
,,,,,,,,,,,,,,,,,200020,19,2022-01-25_20h52.26.870,lexical_decision_task_DD_L6,2021.2.3,MacIntel,58.82352941,,m,1,0.823,,,,,,,,0.823,1,0,7,7,2,1,1001,ALMOND,m,,,,,,,,,,,,,,,,,,,,,,,,,,,,,,,,,,,,,,,,,,,,,,,,,,,,
,,,,,,,,,,,,,,,,,200020,19,2022-01-25_20h52.26.870,lexical_decision_task_DD_L6,2021.2.3,MacIntel,58.82352941,,z,1,0.779,,,,,,,,0.779,1,0,8,8,8,1,1001,ASLERT,z,,,,,,,,,,,,,,,,,,,,,,,,,,,,,,,,,,,,,,,,,,,,,,,,,,,,
,,,,,,,,,,,,,,,,,200020,19,2022-01-25_20h52.26.870,lexical_decision_task_DD_L6,2021.2.3,MacIntel,58.82352941,,m,1,0.813,,,,,,,,0.813,1,0,9,9,4,1,1001,SQUEAK,m,,,,,,,,,,,,,,,,,,,,,,,,,,,,,,,,,,,,,,,,,,,,,,,,,,,,
,,,,,,,,,,,,,,,,,200020,19,2022-01-25_20h52.26.870,lexical_decision_task_DD_L6,2021.2.3,MacIntel,58.82352941,,z,1,1.012,,,,,,,,1.012,1,0,10,10,11,1,1001,RASHET,z,,,,,,,,,,,,,,,,,,,,,,,,,,,,,,,,,,,,,,,,,,,,,,,,,,,,
,,,,,,,,,,,,,,,,,200020,19,2022-01-25_20h52.26.870,lexical_decision_task_DD_L6,2021.2.3,MacIntel,58.82352941,,m,1,0.64,,,,,,,,0.64,1,0,11,11,7,1,1001,VOLUME,m,,,,,,,,,,,,,,,,,,,,,,,,,,,,,,,,,,,,,,,,,,,,,,,,,,,,
,,,,,,,,,,,,,,,,,200020,19,2022-01-25_20h52.26.870,lexical_decision_task_DD_L6,2021.2.3,MacIntel,58.82352941,,m,1,0.763,,,,,,,,0.763,1,0,12,12,3,1,1001,MATRIX,m,,,,,,,,,,,,,,,,,,,,,,,,,,,,,,,,,,,,,,,,,,,,,,,,,,,,
,,,,,,,,,,,,,,,,,200020,19,2022-01-25_20h52.26.870,lexical_decision_task_DD_L6,2021.2.3,MacIntel,58.82352941,,z,1,0.924,,,,,,,,0.924,1,0,13,13,9,1,1001,FARINY,z,,,,,,,,,,,,,,,,,,,,,,,,,,,,,,,,,,,,,,,,,,,,,,,,,,,,
,,,,,,,,,,,,,,,,,200020,19,2022-01-25_20h52.26.870,lexical_decision_task_DD_L6,2021.2.3,MacIntel,58.82352941,,m,1,0.649,,,,,,,,0.649,1,0,14,14,1,1,1001,ADJUST,m,,,,,,,,,,,,,,,,,,,,,,,,,,,,,,,,,,,,,,,,,,,,,,,,,,,,
,,,,,,,,,,,,,,,,,200020,19,2022-01-25_20h52.26.870,lexical_decision_task_DD_L6,2021.2.3,MacIntel,58.82352941,,z,1,0.845,,,,,,,,0.845,1,0,15,15,15,1,1001,WHAISE,z,,,,,,,,,,,,,,,,,,,,,,,,,,,,,,,,,,,,,,,,,,,,,,,,,,,,
space,-0.02137931,-0.028275862,0,0,0,,,,,,,1,end_of_practice,"You have completed the practice trials. During the experimental trials, you will not receive feedback. 
Before you begin, please ensure that you are in a comfortable and quiet location and will not be disturbed for about 15 minutes, as we cannot use your data if you do not complete all the trials. 
 When you are ready to start the experimental trials, please press space or touch the button below.",,,200020,19,2022-01-25_20h52.26.870,lexical_decision_task_DD_L6,2021.2.3,MacIntel,58.82352941,52.859,,,,,,,,,,,,,,,,,,,,,0,0,0,0,1,,,,,,,,,,,,,,,,,,,,,,,,,,,,,,,,,,,,,,,,,,,,,,,
,,,,,,,,,,,,,,,,,200020,19,2022-01-25_20h52.26.870,lexical_decision_task_DD_L6,2021.2.3,MacIntel,58.82352941,,,,,,,,,,,,1.923,0,,,,,,,,,,,,,,z,0,1.923,,,,,,,,-0.02137931,-0.028275862,0,0,0,,0,0,0,103,1,FLORT,HB,old,n,./images/FLORTHB.png,,,,,,,,,,,,,,,,,,,,,
,,,,,,,,,,,,,,,,,200020,19,2022-01-25_20h52.26.870,lexical_decision_task_DD_L6,2021.2.3,MacIntel,58.82352941,,,,,,,,,,,,0.922,0,,,,,,,,,,,,,,m,0,0.922,,,,,,,,-0.02137931,-0.028275862,0,0,0,,0,1,1,71,1,BUBBLE,HB,old,y,./images/BUBBLEHB.png,,,,,,,,,,,,,,,,,,,,,
,,,,,,,,,,,,,,,,,200020,19,2022-01-25_20h52.26.870,lexical_decision_task_DD_L6,2021.2.3,MacIntel,58.82352941,,,,,,,,,,,,0.68,0,,,,,,,,,,,,,,m,0,0.68,,,,,,,,-0.02137931,-0.028275862,0,0,0,,0,2,2,19,1,DONKEY,C,old,y,./images/DONKEY.png,,,,,,,,,,,,,,,,,,,,,
,,,,,,,,,,,,,,,,,200020,19,2022-01-25_20h52.26.870,lexical_decision_task_DD_L6,2021.2.3,MacIntel,58.82352941,,,,,,,,,,,,0.923,0,,,,,,,,,,,,,,m,0,0.923,,,,,,,,-0.02137931,-0.028275862,0,0,0,,0,3,3,66,1,STATUE,LB,old,y,./images/STATUELB.png,,,,,,,,,,,,,,,,,,,,,
,,,,,,,,,,,,,,,,,200020,19,2022-01-25_20h52.26.870,lexical_decision_task_DD_L6,2021.2.3,MacIntel,58.82352941,,,,,,,,,,,,0.644,0,,,,,,,,,,,,,,z,0,0.644,,,,,,,,-0.02137931,-0.028275862,0,0,0,,0,4,4,137,1,JOOST,LB,old,n,./images/JOOSTLB.png,,,,,,,,,,,,,,,,,,,,,
,,,,,,,,,,,,,,,,,200020,19,2022-01-25_20h52.26.870,lexical_decision_task_DD_L6,2021.2.3,MacIntel,58.82352941,,,,,,,,,,,,0.843,0,,,,,,,,,,,,,,z,0,0.843,,,,,,,,-0.02137931,-0.028275862,0,0,0,,0,5,5,92,1,PAIMS,LB,old,n,./images/PAIMSLB.png,,,,,,,,,,,,,,,,,,,,,
,,,,,,,,,,,,,,,,,200020,19,2022-01-25_20h52.26.870,lexical_decision_task_DD_L6,2021.2.3,MacIntel,58.82352941,,,,,,,,,,,,0.778,0,,,,,,,,,,,,,,m,0,0.778,,,,,,,,-0.02137931,-0.028275862,0,0,0,,0,6,6,1,1,TOWEL,C,old,y,./images/TOWEL.png,,,,,,,,,,,,,,,,,,,,,
,,,,,,,,,,,,,,,,,200020,19,2022-01-25_20h52.26.870,lexical_decision_task_DD_L6,2021.2.3,MacIntel,58.82352941,,,,,,,,,,,,0.971,0,,,,,,,,,,,,,,m,0,0.971,,,,,,,,-0.02137931,-0.028275862,0,0,0,,0,7,7,38,1,ENGINE,HB,old,y,./images/ENGINEHB.png,,,,,,,,,,,,,,,,,,,,,
,,,,,,,,,,,,,,,,,200020,19,2022-01-25_20h52.26.870,lexical_decision_task_DD_L6,2021.2.3,MacIntel,58.82352941,,,,,,,,,,,,0.974,0,,,,,,,,,,,,,,z,0,0.974,,,,,,,,-0.02137931,-0.028275862,0,0,0,,0,8,8,107,1,FASKS,LB,old,n,./images/FASKSLB.png,,,,,,,,,,,,,,,,,,,,,
,,,,,,,,,,,,,,,,,200020,19,2022-01-25_20h52.26.870,lexical_decision_task_DD_L6,2021.2.3,MacIntel,58.82352941,,,,,,,,,,,,0.892,0,,,,,,,,,,,,,,m,0,0.892,,,,,,,,-0.02137931,-0.028275862,0,0,0,,0,9,9,8,1,CLIFF,HB,old,y,./images/CLIFFHB.png,,,,,,,,,,,,,,,,,,,,,
,,,,,,,,,,,,,,,,,200020,19,2022-01-25_20h52.26.870,lexical_decision_task_DD_L6,2021.2.3,MacIntel,58.82352941,,,,,,,,,,,,0.84,0,,,,,,,,,,,,,,z,0,0.84,,,,,,,,-0.02137931,-0.028275862,0,0,0,,0,10,10,93,1,SMONE,C,old,n,./images/SMONE.png,,,,,,,,,,,,,,,,,,,,,
,,,,,,,,,,,,,,,,,200020,19,2022-01-25_20h52.26.870,lexical_decision_task_DD_L6,2021.2.3,MacIntel,58.82352941,,,,,,,,,,,,1.108,0,,,,,,,,,,,,,,z,0,1.108,,,,,,,,-0.02137931,-0.028275862,0,0,0,,0,11,11,90,1,NEAST,C,old,n,./images/NEAST.png,,,,,,,,,,,,,,,,,,,,,
,,,,,,,,,,,,,,,,,200020,19,2022-01-25_20h52.26.870,lexical_decision_task_DD_L6,2021.2.3,MacIntel,58.82352941,,,,,,,,,,,,1.182,0,,,,,,,,,,,,,,z,0,1.182,,,,,,,,-0.02137931,-0.028275862,0,0,0,,0,12,12,145,1,LAMEL,HB,old,n,./images/LAMELHB.png,,,,,,,,,,,,,,,,,,,,,
,,,,,,,,,,,,,,,,,200020,19,2022-01-25_20h52.26.870,lexical_decision_task_DD_L6,2021.2.3,MacIntel,58.82352941,,,,,,,,,,,,1.604,0,,,,,,,,,,,,,,m,0,1.604,,,,,,,,-0.02137931,-0.028275862,0,0,0,,0,13,13,154,1,THINT,HB,old,n,./images/THINTHB.png,,,,,,,,,,,,,,,,,,,,,
,,,,,,,,,,,,,,,,,200020,19,2022-01-25_20h52.26.870,lexical_decision_task_DD_L6,2021.2.3,MacIntel,58.82352941,,,,,,,,,,,,0.932,0,,,,,,,,,,,,,,m,0,0.932,,,,,,,,-0.02137931,-0.028275862,0,0,0,,0,14,14,14,1,FENCE,HB,old,y,./images/FENCEHB.png,,,,,,,,,,,,,,,,,,,,,
,,,,,,,,,,,,,,,,,200020,19,2022-01-25_20h52.26.870,lexical_decision_task_DD_L6,2021.2.3,MacIntel,58.82352941,,,,,,,,,,,,0.938,0,,,,,,,,,,,,,,z,0,0.938,,,,,,,,-0.02137931,-0.028275862,0,0,0,,0,15,15,148,1,JOMS,HB,old,n,./images/JOMSHB.png,,,,,,,,,,,,,,,,,,,,,
,,,,,,,,,,,,,,,,,200020,19,2022-01-25_20h52.26.870,lexical_decision_task_DD_L6,2021.2.3,MacIntel,58.82352941,,,,,,,,,,,,0.914,0,,,,,,,,,,,,,,z,0,0.914,,,,,,,,-0.02137931,-0.028275862,0,0,0,,0,16,16,108,1,GRUET,C,old,n,./images/GRUET.png,,,,,,,,,,,,,,,,,,,,,
,,,,,,,,,,,,,,,,,200020,19,2022-01-25_20h52.26.870,lexical_decision_task_DD_L6,2021.2.3,MacIntel,58.82352941,,,,,,,,,,,,0.754,0,,,,,,,,,,,,,,m,0,0.754,,,,,,,,-0.02137931,-0.028275862,0,0,0,,0,17,17,55,1,ALLEY,C,old,y,./images/ALLEY.png,,,,,,,,,,,,,,,,,,,,,
,,,,,,,,,,,,,,,,,200020,19,2022-01-25_20h52.26.870,lexical_decision_task_DD_L6,2021.2.3,MacIntel,58.82352941,,,,,,,,,,,,1.244,0,,,,,,,,,,,,,,m,0,1.244,,,,,,,,-0.02137931,-0.028275862,0,0,0,,0,18,18,104,1,GITTY,LB,old,n,./images/GITTYLB.png,,,,,,,,,,,,,,,,,,,,,
,,,,,,,,,,,,,,,,,200020,19,2022-01-25_20h52.26.870,lexical_decision_task_DD_L6,2021.2.3,MacIntel,58.82352941,,,,,,,,,,,,1.096,0,,,,,,,,,,,,,,m,0,1.096,,,,,,,,-0.02137931,-0.028275862,0,0,0,,0,19,19,59,1,BRUSH,HB,old,y,./images/BRUSHHB.png,,,,,,,,,,,,,,,,,,,,,
,,,,,,,,,,,,,,,,,200020,19,2022-01-25_20h52.26.870,lexical_decision_task_DD_L6,2021.2.3,MacIntel,58.82352941,,,,,,,,,,,,0.914,0,,,,,,,,,,,,,,z,0,0.914,,,,,,,,-0.02137931,-0.028275862,0,0,0,,0,20,20,155,1,CANGY,LB,old,n,./images/CANGYLB.png,,,,,,,,,,,,,,,,,,,,,
,,,,,,,,,,,,,,,,,200020,19,2022-01-25_20h52.26.870,lexical_decision_task_DD_L6,2021.2.3,MacIntel,58.82352941,,,,,,,,,,,,0.883,0,,,,,,,,,,,,,,m,0,0.883,,,,,,,,-0.02137931,-0.028275862,0,0,0,,0,21,21,7,1,WAGON,C,old,y,./images/WAGON.png,,,,,,,,,,,,,,,,,,,,,
,,,,,,,,,,,,,,,,,200020,19,2022-01-25_20h52.26.870,lexical_decision_task_DD_L6,2021.2.3,MacIntel,58.82352941,,,,,,,,,,,,1.196,0,,,,,,,,,,,,,,m,0,1.196,,,,,,,,-0.02137931,-0.028275862,0,0,0,,0,22,22,162,1,LEICH,C,old,n,./images/LEICH.png,,,,,,,,,,,,,,,,,,,,,
,,,,,,,,,,,,,,,,,200020,19,2022-01-25_20h52.26.870,lexical_decision_task_DD_L6,2021.2.3,MacIntel,58.82352941,,,,,,,,,,,,1.578,0,,,,,,,,,,,,,,z,0,1.578,,,,,,,,-0.02137931,-0.028275862,0,0,0,,0,23,23,88,1,GLUSH,HB,old,n,./images/GLUSHHB.png,,,,,,,,,,,,,,,,,,,,,
,,,,,,,,,,,,,,,,,200020,19,2022-01-25_20h52.26.870,lexical_decision_task_DD_L6,2021.2.3,MacIntel,58.82352941,,,,,,,,,,,,0.964,0,,,,,,,,,,,,,,m,0,0.964,,,,,,,,-0.02137931,-0.028275862,0,0,0,,0,24,24,33,1,SAUNA,LB,old,y,./images/SAUNALB.png,,,,,,,,,,,,,,,,,,,,,
,,,,,,,,,,,,,,,,,200020,19,2022-01-25_20h52.26.870,lexical_decision_task_DD_L6,2021.2.3,MacIntel,58.82352941,,,,,,,,,,,,0.821,0,,,,,,,,,,,,,,z,0,0.821,,,,,,,,-0.02137931,-0.028275862,0,0,0,,0,25,25,167,1,ZONET,LB,old,n,./images/ZONETLB.png,,,,,,,,,,,,,,,,,,,,,
,,,,,,,,,,,,,,,,,200020,19,2022-01-25_20h52.26.870,lexical_decision_task_DD_L6,2021.2.3,MacIntel,58.82352941,,,,,,,,,,,,1.124,0,,,,,,,,,,,,,,m,0,1.124,,,,,,,,-0.02137931,-0.028275862,0,0,0,,0,26,26,110,1,CRUNK,LB,old,n,./images/CRUNKLB.png,,,,,,,,,,,,,,,,,,,,,
,,,,,,,,,,,,,,,,,200020,19,2022-01-25_20h52.26.870,lexical_decision_task_DD_L6,2021.2.3,MacIntel,58.82352941,,,,,,,,,,,,0.74,0,,,,,,,,,,,,,,m,0,0.74,,,,,,,,-0.02137931,-0.028275862,0,0,0,,0,27,27,54,1,CHERRY,LB,old,y,./images/CHERRYLB.png,,,,,,,,,,,,,,,,,,,,,
,,,,,,,,,,,,,,,,,200020,19,2022-01-25_20h52.26.870,lexical_decision_task_DD_L6,2021.2.3,MacIntel,58.82352941,,,,,,,,,,,,0.713,0,,,,,,,,,,,,,,z,0,0.713,,,,,,,,-0.02137931,-0.028275862,0,0,0,,0,28,28,147,1,ZOLES,C,old,n,./images/ZOLES.png,,,,,,,,,,,,,,,,,,,,,
,,,,,,,,,,,,,,,,,200020,19,2022-01-25_20h52.26.870,lexical_decision_task_DD_L6,2021.2.3,MacIntel,58.82352941,,,,,,,,,,,,0.697,0,,,,,,,,,,,,,,m,0,0.697,,,,,,,,-0.02137931,-0.028275862,0,0,0,,0,29,29,27,1,BUTTER,LB,old,y,./images/BUTTERLB.png,,,,,,,,,,,,,,,,,,,,,
,,,,,,,,,,,,,,,,,200020,19,2022-01-25_20h52.26.870,lexical_decision_task_DD_L6,2021.2.3,MacIntel,58.82352941,,,,,,,,,,,,0.704,0,,,,,,,,,,,,,,z,0,0.704,,,,,,,,-0.02137931,-0.028275862,0,0,0,,0,30,30,117,1,STEEG,C,old,n,./images/STEEG.png,,,,,,,,,,,,,,,,,,,,,
,,,,,,,,,,,,,,,,,200020,19,2022-01-25_20h52.26.870,lexical_decision_task_DD_L6,2021.2.3,MacIntel,58.82352941,,,,,,,,,,,,0.691,0,,,,,,,,,,,,,,z,0,0.691,,,,,,,,-0.02137931,-0.028275862,0,0,0,,0,31,31,158,1,EGECT,LB,old,n,./images/EGECTLB.png,,,,,,,,,,,,,,,,,,,,,
,,,,,,,,,,,,,,,,,200020,19,2022-01-25_20h52.26.870,lexical_decision_task_DD_L6,2021.2.3,MacIntel,58.82352941,,,,,,,,,,,,0.649,0,,,,,,,,,,,,,,m,0,0.649,,,,,,,,-0.02137931,-0.028275862,0,0,0,,0,32,32,37,1,TIGER,C,old,y,./images/TIGER.png,,,,,,,,,,,,,,,,,,,,,
,,,,,,,,,,,,,,,,,200020,19,2022-01-25_20h52.26.870,lexical_decision_task_DD_L6,2021.2.3,MacIntel,58.82352941,,,,,,,,,,,,0.835,0,,,,,,,,,,,,,,z,0,0.835,,,,,,,,-0.02137931,-0.028275862,0,0,0,,0,33,33,153,1,CLUPS,C,old,n,./images/CLUPS.png,,,,,,,,,,,,,,,,,,,,,
,,,,,,,,,,,,,,,,,200020,19,2022-01-25_20h52.26.870,lexical_decision_task_DD_L6,2021.2.3,MacIntel,58.82352941,,,,,,,,,,,,1.023,0,,,,,,,,,,,,,,m,0,1.023,,,,,,,,-0.02137931,-0.028275862,0,0,0,,0,34,34,159,1,CUDDY,C,old,n,./images/CUDDY.png,,,,,,,,,,,,,,,,,,,,,
,,,,,,,,,,,,,,,,,200020,19,2022-01-25_20h52.26.870,lexical_decision_task_DD_L6,2021.2.3,MacIntel,58.82352941,,,,,,,,,,,,0.806,0,,,,,,,,,,,,,,z,0,0.806,,,,,,,,-0.02137931,-0.028275862,0,0,0,,0,35,35,122,1,BLOOT,LB,old,n,./images/BLOOTLB.png,,,,,,,,,,,,,,,,,,,,,
,,,,,,,,,,,,,,,,,200020,19,2022-01-25_20h52.26.870,lexical_decision_task_DD_L6,2021.2.3,MacIntel,58.82352941,,,,,,,,,,,,1.13,0,,,,,,,,,,,,,,z,0,1.13,,,,,,,,-0.02137931,-0.028275862,0,0,0,,0,36,36,91,1,SHENS,HB,old,n,./images/SHENSHB.png,,,,,,,,,,,,,,,,,,,,,
,,,,,,,,,,,,,,,,,200020,19,2022-01-25_20h52.26.870,lexical_decision_task_DD_L6,2021.2.3,MacIntel,58.82352941,,,,,,,,,,,,0.981,0,,,,,,,,,,,,,,z,0,0.981,,,,,,,,-0.02137931,-0.028275862,0,0,0,,0,37,37,124,1,TUNCH,HB,old,n,./images/TUNCHHB.png,,,,,,,,,,,,,,,,,,,,,
,,,,,,,,,,,,,,,,,200020,19,2022-01-25_20h52.26.870,lexical_decision_task_DD_L6,2021.2.3,MacIntel,58.82352941,,,,,,,,,,,,0.775,0,,,,,,,,,,,,,,m,0,0.775,,,,,,,,-0.02137931,-0.028275862,0,0,0,,0,38,38,3,1,CRATER,LB,old,y,./images/CRATERLB.png,,,,,,,,,,,,,,,,,,,,,
,,,,,,,,,,,,,,,,,200020,19,2022-01-25_20h52.26.870,lexical_decision_task_DD_L6,2021.2.3,MacIntel,58.82352941,,,,,,,,,,,,1.69,0,,,,,,,,,,,,,,z,0,1.69,,,,,,,,-0.02137931,-0.028275862,0,0,0,,0,39,39,151,1,TINKY,HB,old,n,./images/TINKYHB.png,,,,,,,,,,,,,,,,,,,,,
,,,,,,,,,,,,,,,,,200020,19,2022-01-25_20h52.26.870,lexical_decision_task_DD_L6,2021.2.3,MacIntel,58.82352941,,,,,,,,,,,,0.938,0,,,,,,,,,,,,,,z,0,0.938,,,,,,,,-0.02137931,-0.028275862,0,0,0,,0,40,40,84,1,HAXES,C,old,n,./images/HAXES.png,,,,,,,,,,,,,,,,,,,,,
,,,,,,,,,,,,,,,,,200020,19,2022-01-25_20h52.26.870,lexical_decision_task_DD_L6,2021.2.3,MacIntel,58.82352941,,,,,,,,,,,,0.656,0,,,,,,,,,,,,,,m,0,0.656,,,,,,,,-0.02137931,-0.028275862,0,0,0,space,0,41,41,61,1,ARTIST,C,old,y,./images/ARTIST.png,59.962,,,,,,,,,,,,,,,,,,,,
,,,,,,,,,,,,,,,,,200020,19,2022-01-25_20h52.26.870,lexical_decision_task_DD_L6,2021.2.3,MacIntel,58.82352941,,,,,,,,,,,,0.777,0,,,,,,,,,,,,,,z,0,0.777,,,,,,,,-0.02137931,-0.028275862,0,0,0,,0,42,42,116,1,BALGY,LB,old,n,./images/BALGYLB.png,,,,,,,,,,,,,,,,,,,,,
,,,,,,,,,,,,,,,,,200020,19,2022-01-25_20h52.26.870,lexical_decision_task_DD_L6,2021.2.3,MacIntel,58.82352941,,,,,,,,,,,,0.73,0,,,,,,,,,,,,,,z,0,0.73,,,,,,,,-0.02137931,-0.028275862,0,0,0,,0,43,43,125,1,MOOKY,LB,old,n,./images/MOOKYLB.png,,,,,,,,,,,,,,,,,,,,,
,,,,,,,,,,,,,,,,,200020,19,2022-01-25_20h52.26.870,lexical_decision_task_DD_L6,2021.2.3,MacIntel,58.82352941,,,,,,,,,,,,1.056,0,,,,,,,,,,,,,,z,0,1.056,,,,,,,,-0.02137931,-0.028275862,0,0,0,,0,44,44,97,1,CHIDS,HB,old,n,./images/CHIDSHB.png,,,,,,,,,,,,,,,,,,,,,
,,,,,,,,,,,,,,,,,200020,19,2022-01-25_20h52.26.870,lexical_decision_task_DD_L6,2021.2.3,MacIntel,58.82352941,,,,,,,,,,,,0.641,0,,,,,,,,,,,,,,m,0,0.641,,,,,,,,-0.02137931,-0.028275862,0,0,0,,0,45,45,79,1,RULER,C,old,y,./images/RULER.png,,,,,,,,,,,,,,,,,,,,,
,,,,,,,,,,,,,,,,,200020,19,2022-01-25_20h52.26.870,lexical_decision_task_DD_L6,2021.2.3,MacIntel,58.82352941,,,,,,,,,,,,0.989,0,,,,,,,,,,,,,,m,0,0.989,,,,,,,,-0.02137931,-0.028275862,0,0,0,,0,46,46,142,1,PLASK,HB,old,n,./images/PLASKHB.png,,,,,,,,,,,,,,,,,,,,,
,,,,,,,,,,,,,,,,,200020,19,2022-01-25_20h52.26.870,lexical_decision_task_DD_L6,2021.2.3,MacIntel,58.82352941,,,,,,,,,,,,0.689,0,,,,,,,,,,,,,,z,0,0.689,,,,,,,,-0.02137931,-0.028275862,0,0,0,,0,47,47,89,1,DRIEK,LB,old,n,./images/DRIEKLB.png,,,,,,,,,,,,,,,,,,,,,
,,,,,,,,,,,,,,,,,200020,19,2022-01-25_20h52.26.870,lexical_decision_task_DD_L6,2021.2.3,MacIntel,58.82352941,,,,,,,,,,,,0.66,0,,,,,,,,,,,,,,m,0,0.66,,,,,,,,-0.02137931,-0.028275862,0,0,0,,0,48,48,81,1,DRILL,LB,old,y,./images/DRILLLB.png,,,,,,,,,,,,,,,,,,,,,
,,,,,,,,,,,,,,,,,200020,19,2022-01-25_20h52.26.870,lexical_decision_task_DD_L6,2021.2.3,MacIntel,58.82352941,,,,,,,,,,,,0.709,0,,,,,,,,,,,,,,z,0,0.709,,,,,,,,-0.02137931,-0.028275862,0,0,0,,0,49,49,131,1,NACES,LB,old,n,./images/NACESLB.png,,,,,,,,,,,,,,,,,,,,,
,,,,,,,,,,,,,,,,,200020,19,2022-01-25_20h52.26.870,lexical_decision_task_DD_L6,2021.2.3,MacIntel,58.82352941,,,,,,,,,,,,0.611,0,,,,,,,,,,,,,,m,0,0.611,,,,,,,,-0.02137931,-0.028275862,0,0,0,,0,50,50,46,1,MUMMY,C,old,y,./images/MUMMY.png,,,,,,,,,,,,,,,,,,,,,
,,,,,,,,,,,,,,,,,200020,19,2022-01-25_20h52.26.870,lexical_decision_task_DD_L6,2021.2.3,MacIntel,58.82352941,,,,,,,,,,,,0.863,0,,,,,,,,,,,,,,m,0,0.863,,,,,,,,-0.02137931,-0.028275862,0,0,0,,0,51,51,5,1,BAMBOO,HB,old,y,./images/BAMBOOHB.png,,,,,,,,,,,,,,,,,,,,,
,,,,,,,,,,,,,,,,,200020,19,2022-01-25_20h52.26.870,lexical_decision_task_DD_L6,2021.2.3,MacIntel,58.82352941,,,,,,,,,,,,0.68,0,,,,,,,,,,,,,,m,0,0.68,,,,,,,,-0.02137931,-0.028275862,0,0,0,,0,52,52,67,1,POKER,C,old,y,./images/POKER.png,,,,,,,,,,,,,,,,,,,,,
,,,,,,,,,,,,,,,,,200020,19,2022-01-25_20h52.26.870,lexical_decision_task_DD_L6,2021.2.3,MacIntel,58.82352941,,,,,,,,,,,,0.717,0,,,,,,,,,,,,,,z,0,0.717,,,,,,,,-0.02137931,-0.028275862,0,0,0,,0,53,53,109,1,BURGE,HB,old,n,./images/BURGEHB.png,,,,,,,,,,,,,,,,,,,,,
,,,,,,,,,,,,,,,,,200020,19,2022-01-25_20h52.26.870,lexical_decision_task_DD_L6,2021.2.3,MacIntel,58.82352941,,,,,,,,,,,,0.946,0,,,,,,,,,,,,,,z,0,0.946,,,,,,,,-0.02137931,-0.028275862,0,0,0,,0,54,54,133,1,POWDY,HB,old,n,./images/POWDYHB.png,,,,,,,,,,,,,,,,,,,,,
,,,,,,,,,,,,,,,,,200020,19,2022-01-25_20h52.26.870,lexical_decision_task_DD_L6,2021.2.3,MacIntel,58.82352941,,,,,,,,,,,,0.814,0,,,,,,,,,,,,,,z,0,0.814,,,,,,,,-0.02137931,-0.028275862,0,0,0,,0,55,55,96,1,KEAMS,C,old,n,./images/KEAMS.png,,,,,,,,,,,,,,,,,,,,,
,,,,,,,,,,,,,,,,,200020,19,2022-01-25_20h52.26.870,lexical_decision_task_DD_L6,2021.2.3,MacIntel,58.82352941,,,,,,,,,,,,0.665,0,,,,,,,,,,,,,,m,0,0.665,,,,,,,,-0.02137931,-0.028275862,0,0,0,,0,56,56,13,1,BUNNY,C,old,y,./images/BUNNY.png,,,,,,,,,,,,,,,,,,,,,
,,,,,,,,,,,,,,,,,200020,19,2022-01-25_20h52.26.870,lexical_decision_task_DD_L6,2021.2.3,MacIntel,58.82352941,,,,,,,,,,,,0.646,0,,,,,,,,,,,,,,m,0,0.646,,,,,,,,-0.02137931,-0.028275862,0,0,0,,0,57,57,10,1,GARDEN,C,old,y,./images/GARDEN.png,,,,,,,,,,,,,,,,,,,,,
,,,,,,,,,,,,,,,,,200020,19,2022-01-25_20h52.26.870,lexical_decision_task_DD_L6,2021.2.3,MacIntel,58.82352941,,,,,,,,,,,,0.697,0,,,,,,,,,,,,,,m,0,0.697,,,,,,,,-0.02137931,-0.028275862,0,0,0,,0,58,58,15,1,COLLAR,LB,old,y,./images/COLLARLB.png,,,,,,,,,,,,,,,,,,,,,
,,,,,,,,,,,,,,,,,200020,19,2022-01-25_20h52.26.870,lexical_decision_task_DD_L6,2021.2.3,MacIntel,58.82352941,,,,,,,,,,,,0.696,0,,,,,,,,,,,,,,m,0,0.696,,,,,,,,-0.02137931,-0.028275862,0,0,0,,0,59,59,6,1,STAIN,LB,old,y,./images/STAINLB.png,,,,,,,,,,,,,,,,,,,,,
,,,,,,,,,,,,,,,,,200020,19,2022-01-25_20h52.26.870,lexical_decision_task_DD_L6,2021.2.3,MacIntel,58.82352941,,,,,,,,,,,,0.663,0,,,,,,,,,,,,,,z,0,0.663,,,,,,,,-0.02137931,-0.028275862,0,0,0,,0,60,60,146,1,MOOST,LB,old,n,./images/MOOSTLB.png,,,,,,,,,,,,,,,,,,,,,
,,,,,,,,,,,,,,,,,200020,19,2022-01-25_20h52.26.870,lexical_decision_task_DD_L6,2021.2.3,MacIntel,58.82352941,,,,,,,,,,,,0.746,0,,,,,,,,,,,,,,z,0,0.746,,,,,,,,-0.02137931,-0.028275862,0,0,0,,0,61,61,141,1,PLEET,C,old,n,./images/PLEET.png,,,,,,,,,,,,,,,,,,,,,
,,,,,,,,,,,,,,,,,200020,19,2022-01-25_20h52.26.870,lexical_decision_task_DD_L6,2021.2.3,MacIntel,58.82352941,,,,,,,,,,,,0.625,0,,,,,,,,,,,,,,m,0,0.625,,,,,,,,-0.02137931,-0.028275862,0,0,0,,0,62,62,40,1,SNAKE,C,old,y,./images/SNAKE.png,,,,,,,,,,,,,,,,,,,,,
,,,,,,,,,,,,,,,,,200020,19,2022-01-25_20h52.26.870,lexical_decision_task_DD_L6,2021.2.3,MacIntel,58.82352941,,,,,,,,,,,,0.691,0,,,,,,,,,,,,,,m,0,0.691,,,,,,,,-0.02137931,-0.028275862,0,0,0,,0,63,63,0,1,WALNUT,LB,old,y,./images/WALNUTLB.png,,,,,,,,,,,,,,,,,,,,,
,,,,,,,,,,,,,,,,,200020,19,2022-01-25_20h52.26.870,lexical_decision_task_DD_L6,2021.2.3,MacIntel,58.82352941,,,,,,,,,,,,0.643,0,,,,,,,,,,,,,,m,0,0.643,,,,,,,,-0.02137931,-0.028275862,0,0,0,,0,64,64,49,1,BISHOP,C,old,y,./images/BISHOP.png,,,,,,,,,,,,,,,,,,,,,
,,,,,,,,,,,,,,,,,200020,19,2022-01-25_20h52.26.870,lexical_decision_task_DD_L6,2021.2.3,MacIntel,58.82352941,,,,,,,,,,,,1.058,0,,,,,,,,,,,,,,z,0,1.058,,,,,,,,-0.02137931,-0.028275862,0,0,0,,0,65,65,53,1,POSTER,HB,old,y,./images/POSTERHB.png,,,,,,,,,,,,,,,,,,,,,
,,,,,,,,,,,,,,,,,200020,19,2022-01-25_20h52.26.870,lexical_decision_task_DD_L6,2021.2.3,MacIntel,58.82352941,,,,,,,,,,,,0.782,0,,,,,,,,,,,,,,z,0,0.782,,,,,,,,-0.02137931,-0.028275862,0,0,0,,0,66,66,138,1,PLICE,C,old,n,./images/PLICE.png,,,,,,,,,,,,,,,,,,,,,
,,,,,,,,,,,,,,,,,200020,19,2022-01-25_20h52.26.870,lexical_decision_task_DD_L6,2021.2.3,MacIntel,58.82352941,,,,,,,,,,,,0.757,0,,,,,,,,,,,,,,z,0,0.757,,,,,,,,-0.02137931,-0.028275862,0,0,0,,0,67,67,144,1,NAIRY,C,old,n,./images/NAIRY.png,,,,,,,,,,,,,,,,,,,,,
,,,,,,,,,,,,,,,,,200020,19,2022-01-25_20h52.26.870,lexical_decision_task_DD_L6,2021.2.3,MacIntel,58.82352941,,,,,,,,,,,,0.612,0,,,,,,,,,,,,,,m,0,0.612,,,,,,,,-0.02137931,-0.028275862,0,0,0,,0,68,68,23,1,CLOTH,HB,old,y,./images/CLOTHHB.png,,,,,,,,,,,,,,,,,,,,,
,,,,,,,,,,,,,,,,,200020,19,2022-01-25_20h52.26.870,lexical_decision_task_DD_L6,2021.2.3,MacIntel,58.82352941,,,,,,,,,,,,0.755,0,,,,,,,,,,,,,,z,0,0.755,,,,,,,,-0.02137931,-0.028275862,0,0,0,,0,69,69,102,1,DULLE,C,old,n,./images/DULLE.png,,,,,,,,,,,,,,,,,,,,,
,,,,,,,,,,,,,,,,,200020,19,2022-01-25_20h52.26.870,lexical_decision_task_DD_L6,2021.2.3,MacIntel,58.82352941,,,,,,,,,,,,0.957,0,,,,,,,,,,,,,,z,0,0.957,,,,,,,,-0.02137931,-0.028275862,0,0,0,,0,70,70,134,1,TROSS,LB,old,n,./images/TROSSLB.png,,,,,,,,,,,,,,,,,,,,,
,,,,,,,,,,,,,,,,,200020,19,2022-01-25_20h52.26.870,lexical_decision_task_DD_L6,2021.2.3,MacIntel,58.82352941,,,,,,,,,,,,1.179,0,,,,,,,,,,,,,,z,0,1.179,,,,,,,,-0.02137931,-0.028275862,0,0,0,,0,71,71,115,1,MAWNS,HB,old,n,./images/MAWNSHB.png,,,,,,,,,,,,,,,,,,,,,
,,,,,,,,,,,,,,,,,200020,19,2022-01-25_20h52.26.870,lexical_decision_task_DD_L6,2021.2.3,MacIntel,58.82352941,,,,,,,,,,,,0.745,0,,,,,,,,,,,,,,z,0,0.745,,,,,,,,-0.02137931,-0.028275862,0,0,0,,0,72,72,150,1,NOOLS,C,old,n,./images/NOOLS.png,,,,,,,,,,,,,,,,,,,,,
,,,,,,,,,,,,,,,,,200020,19,2022-01-25_20h52.26.870,lexical_decision_task_DD_L6,2021.2.3,MacIntel,58.82352941,,,,,,,,,,,,1.047,0,,,,,,,,,,,,,,m,0,1.047,,,,,,,,-0.02137931,-0.028275862,0,0,0,,0,73,73,118,1,BAVEL,HB,old,n,./images/BAVELHB.png,,,,,,,,,,,,,,,,,,,,,
,,,,,,,,,,,,,,,,,200020,19,2022-01-25_20h52.26.870,lexical_decision_task_DD_L6,2021.2.3,MacIntel,58.82352941,,,,,,,,,,,,0.911,0,,,,,,,,,,,,,,m,0,0.911,,,,,,,,-0.02137931,-0.028275862,0,0,0,,0,74,74,85,1,CHULK,HB,old,n,./images/CHULKHB.png,,,,,,,,,,,,,,,,,,,,,
,,,,,,,,,,,,,,,,,200020,19,2022-01-25_20h52.26.870,lexical_decision_task_DD_L6,2021.2.3,MacIntel,58.82352941,,,,,,,,,,,,0.84,0,,,,,,,,,,,,,,m,0,0.84,,,,,,,,-0.02137931,-0.028275862,0,0,0,,0,75,75,65,1,SPINE,HB,old,y,./images/SPINEHB.png,,,,,,,,,,,,,,,,,,,,,
,,,,,,,,,,,,,,,,,200020,19,2022-01-25_20h52.26.870,lexical_decision_task_DD_L6,2021.2.3,MacIntel,58.82352941,,,,,,,,,,,,0.622,0,,,,,,,,,,,,,,m,0,0.622,,,,,,,,-0.02137931,-0.028275862,0,0,0,,0,76,76,22,1,CLOWN,C,old,y,./images/CLOWN.png,,,,,,,,,,,,,,,,,,,,,
,,,,,,,,,,,,,,,,,200020,19,2022-01-25_20h52.26.870,lexical_decision_task_DD_L6,2021.2.3,MacIntel,58.82352941,,,,,,,,,,,,0.596,0,,,,,,,,,,,,,,m,0,0.596,,,,,,,,-0.02137931,-0.028275862,0,0,0,,0,77,77,16,1,GRAPE,C,old,y,./images/GRAPE.png,,,,,,,,,,,,,,,,,,,,,
,,,,,,,,,,,,,,,,,200020,19,2022-01-25_20h52.26.870,lexical_decision_task_DD_L6,2021.2.3,MacIntel,58.82352941,,,,,,,,,,,,0.665,0,,,,,,,,,,,,,,z,0,0.665,,,,,,,,-0.02137931,-0.028275862,0,0,0,,0,78,78,135,1,JOODY,C,old,n,./images/JOODY.png,,,,,,,,,,,,,,,,,,,,,
,,,,,,,,,,,,,,,,,200020,19,2022-01-25_20h52.26.870,lexical_decision_task_DD_L6,2021.2.3,MacIntel,58.82352941,,,,,,,,,,,,0.821,0,,,,,,,,,,,,,,z,0,0.821,,,,,,,,-0.02137931,-0.028275862,0,0,0,,0,79,79,152,1,FRAIN,LB,old,n,./images/FRAINLB.png,,,,,,,,,,,,,,,,,,,,,
,,,,,,,,,,,,,,,,,200020,19,2022-01-25_20h52.26.870,lexical_decision_task_DD_L6,2021.2.3,MacIntel,58.82352941,,,,,,,,,,,,0.824,0,,,,,,,,,,,,,,m,0,0.824,,,,,,,,-0.02137931,-0.028275862,0,0,0,,0,80,80,20,1,GRANNY,HB,old,y,./images/GRANNYHB.png,,,,,,,,,,,,,,,,,,,,,
,,,,,,,,,,,,,,,,,200020,19,2022-01-25_20h52.26.870,lexical_decision_task_DD_L6,2021.2.3,MacIntel,58.82352941,,,,,,,,,,,,1.146,0,,,,,,,,,,,,,,z,0,1.146,,,,,,,,-0.02137931,-0.028275862,0,0,0,,0,81,81,157,1,INLER,HB,old,n,./images/INLERHB.png,,,,,,,,,,,,,,,,,,,,,
,,,,,,,,,,,,,,,,,200020,19,2022-01-25_20h52.26.870,lexical_decision_task_DD_L6,2021.2.3,MacIntel,58.82352941,,,,,,,,,,,,1.061,0,,,,,,,,,,,,,,z,0,1.061,,,,,,,,-0.02137931,-0.028275862,0,0,0,,0,82,82,127,1,NINDY,HB,old,n,./images/NINDYHB.png,,,,,,,,,,,,,,,,,,,,,
,,,,,,,,,,,,,,,,,200020,19,2022-01-25_20h52.26.870,lexical_decision_task_DD_L6,2021.2.3,MacIntel,58.82352941,,,,,,,,,,,,0.814,0,,,,,,,,,,,,,,m,0,0.814,,,,,,,,-0.02137931,-0.028275862,0,0,0,space,0,83,83,11,1,MEDAL,HB,old,y,./images/MEDALHB.png,6.975,,,,,,,,,,,,,,,,,,,,
,,,,,,,,,,,,,,,,,200020,19,2022-01-25_20h52.26.870,lexical_decision_task_DD_L6,2021.2.3,MacIntel,58.82352941,,,,,,,,,,,,0.648,0,,,,,,,,,,,,,,m,0,0.648,,,,,,,,-0.02137931,-0.028275862,0,0,0,,0,84,84,41,1,STREAM,HB,old,y,./images/STREAMHB.png,,,,,,,,,,,,,,,,,,,,,
,,,,,,,,,,,,,,,,,200020,19,2022-01-25_20h52.26.870,lexical_decision_task_DD_L6,2021.2.3,MacIntel,58.82352941,,,,,,,,,,,,0.687,0,,,,,,,,,,,,,,z,0,0.687,,,,,,,,-0.02137931,-0.028275862,0,0,0,,0,85,85,105,1,MOKER,C,old,n,./images/MOKER.png,,,,,,,,,,,,,,,,,,,,,
,,,,,,,,,,,,,,,,,200020,19,2022-01-25_20h52.26.870,lexical_decision_task_DD_L6,2021.2.3,MacIntel,58.82352941,,,,,,,,,,,,0.803,0,,,,,,,,,,,,,,z,0,0.803,,,,,,,,-0.02137931,-0.028275862,0,0,0,,0,86,86,99,1,BACKY,C,old,n,./images/BACKY.png,,,,,,,,,,,,,,,,,,,,,
,,,,,,,,,,,,,,,,,200020,19,2022-01-25_20h52.26.870,lexical_decision_task_DD_L6,2021.2.3,MacIntel,58.82352941,,,,,,,,,,,,0.678,0,,,,,,,,,,,,,,m,0,0.678,,,,,,,,-0.02137931,-0.028275862,0,0,0,,0,87,87,32,1,HOCKEY,HB,old,y,./images/HOCKEYHB.png,,,,,,,,,,,,,,,,,,,,,
,,,,,,,,,,,,,,,,,200020,19,2022-01-25_20h52.26.870,lexical_decision_task_DD_L6,2021.2.3,MacIntel,58.82352941,,,,,,,,,,,,0.575,0,,,,,,,,,,,,,,m,0,0.575,,,,,,,,-0.02137931,-0.028275862,0,0,0,,0,88,88,63,1,BAKER,LB,old,y,./images/BAKERLB.png,,,,,,,,,,,,,,,,,,,,,
,,,,,,,,,,,,,,,,,200020,19,2022-01-25_20h52.26.870,lexical_decision_task_DD_L6,2021.2.3,MacIntel,58.82352941,,,,,,,,,,,,0.555,0,,,,,,,,,,,,,,m,0,0.555,,,,,,,,-0.02137931,-0.028275862,0,0,0,,0,89,89,69,1,ARROW,LB,old,y,./images/ARROWLB.png,,,,,,,,,,,,,,,,,,,,,
,,,,,,,,,,,,,,,,,200020,19,2022-01-25_20h52.26.870,lexical_decision_task_DD_L6,2021.2.3,MacIntel,58.82352941,,,,,,,,,,,,0.715,0,,,,,,,,,,,,,,m,0,0.715,,,,,,,,-0.02137931,-0.028275862,0,0,0,,0,90,90,80,1,PLANET,HB,old,y,./images/PLANETHB.png,,,,,,,,,,,,,,,,,,,,,
,,,,,,,,,,,,,,,,,200020,19,2022-01-25_20h52.26.870,lexical_decision_task_DD_L6,2021.2.3,MacIntel,58.82352941,,,,,,,,,,,,0.529,0,,,,,,,,,,,,,,z,0,0.529,,,,,,,,-0.02137931,-0.028275862,0,0,0,,0,91,91,43,1,STOOL,C,old,y,./images/STOOL.png,,,,,,,,,,,,,,,,,,,,,
,,,,,,,,,,,,,,,,,200020,19,2022-01-25_20h52.26.870,lexical_decision_task_DD_L6,2021.2.3,MacIntel,58.82352941,,,,,,,,,,,,0.628,0,,,,,,,,,,,,,,z,0,0.628,,,,,,,,-0.02137931,-0.028275862,0,0,0,,0,92,92,156,1,HIXES,C,old,n,./images/HIXES.png,,,,,,,,,,,,,,,,,,,,,
,,,,,,,,,,,,,,,,,200020,19,2022-01-25_20h52.26.870,lexical_decision_task_DD_L6,2021.2.3,MacIntel,58.82352941,,,,,,,,,,,,0.949,0,,,,,,,,,,,,,,m,0,0.949,,,,,,,,-0.02137931,-0.028275862,0,0,0,,0,93,93,60,1,CURRY,LB,old,y,./images/CURRYLB.png,,,,,,,,,,,,,,,,,,,,,
,,,,,,,,,,,,,,,,,200020,19,2022-01-25_20h52.26.870,lexical_decision_task_DD_L6,2021.2.3,MacIntel,58.82352941,,,,,,,,,,,,0.579,0,,,,,,,,,,,,,,m,0,0.579,,,,,,,,-0.02137931,-0.028275862,0,0,0,,0,94,94,48,1,SHIELD,LB,old,y,./images/SHIELDLB.png,,,,,,,,,,,,,,,,,,,,,
,,,,,,,,,,,,,,,,,200020,19,2022-01-25_20h52.26.870,lexical_decision_task_DD_L6,2021.2.3,MacIntel,58.82352941,,,,,,,,,,,,0.711,0,,,,,,,,,,,,,,z,0,0.711,,,,,,,,-0.02137931,-0.028275862,0,0,0,,0,95,95,164,1,SGREW,LB,old,n,./images/SGREWLB.png,,,,,,,,,,,,,,,,,,,,,
,,,,,,,,,,,,,,,,,200020,19,2022-01-25_20h52.26.870,lexical_decision_task_DD_L6,2021.2.3,MacIntel,58.82352941,,,,,,,,,,,,0.873,0,,,,,,,,,,,,,,z,0,0.873,,,,,,,,-0.02137931,-0.028275862,0,0,0,,0,96,96,143,1,MONGS,LB,old,n,./images/MONGSLB.png,,,,,,,,,,,,,,,,,,,,,
,,,,,,,,,,,,,,,,,200020,19,2022-01-25_20h52.26.870,lexical_decision_task_DD_L6,2021.2.3,MacIntel,58.82352941,,,,,,,,,,,,0.724,0,,,,,,,,,,,,,,m,0,0.724,,,,,,,,-0.02137931,-0.028275862,0,0,0,,0,97,97,30,1,SLOPE,LB,old,y,./images/SLOPELB.png,,,,,,,,,,,,,,,,,,,,,
,,,,,,,,,,,,,,,,,200020,19,2022-01-25_20h52.26.870,lexical_decision_task_DD_L6,2021.2.3,MacIntel,58.82352941,,,,,,,,,,,,0.607,0,,,,,,,,,,,,,,m,0,0.607,,,,,,,,-0.02137931,-0.028275862,0,0,0,,0,98,98,76,1,MIDGET,C,old,y,./images/MIDGET.png,,,,,,,,,,,,,,,,,,,,,
,,,,,,,,,,,,,,,,,200020,19,2022-01-25_20h52.26.870,lexical_decision_task_DD_L6,2021.2.3,MacIntel,58.82352941,,,,,,,,,,,,0.675,0,,,,,,,,,,,,,,m,0,0.675,,,,,,,,-0.02137931,-0.028275862,0,0,0,,0,99,99,47,1,LAGOON,HB,old,y,./images/LAGOONHB.png,,,,,,,,,,,,,,,,,,,,,
,,,,,,,,,,,,,,,,,200020,19,2022-01-25_20h52.26.870,lexical_decision_task_DD_L6,2021.2.3,MacIntel,58.82352941,,,,,,,,,,,,0.747,0,,,,,,,,,,,,,,z,0,0.747,,,,,,,,-0.02137931,-0.028275862,0,0,0,,0,100,100,129,1,PRANS,C,old,n,./images/PRANS.png,,,,,,,,,,,,,,,,,,,,,
,,,,,,,,,,,,,,,,,200020,19,2022-01-25_20h52.26.870,lexical_decision_task_DD_L6,2021.2.3,MacIntel,58.82352941,,,,,,,,,,,,0.705,0,,,,,,,,,,,,,,m,0,0.705,,,,,,,,-0.02137931,-0.028275862,0,0,0,,0,101,101,24,1,FLESH,LB,old,y,./images/FLESHLB.png,,,,,,,,,,,,,,,,,,,,,
,,,,,,,,,,,,,,,,,200020,19,2022-01-25_20h52.26.870,lexical_decision_task_DD_L6,2021.2.3,MacIntel,58.82352941,,,,,,,,,,,,0.813,0,,,,,,,,,,,,,,m,0,0.813,,,,,,,,-0.02137931,-0.028275862,0,0,0,,0,102,102,62,1,MAMMAL,HB,old,y,./images/MAMMALHB.png,,,,,,,,,,,,,,,,,,,,,
,,,,,,,,,,,,,,,,,200020,19,2022-01-25_20h52.26.870,lexical_decision_task_DD_L6,2021.2.3,MacIntel,58.82352941,,,,,,,,,,,,0.599,0,,,,,,,,,,,,,,m,0,0.599,,,,,,,,-0.02137931,-0.028275862,0,0,0,,0,103,103,70,1,BANANA,C,old,y,./images/BANANA.png,,,,,,,,,,,,,,,,,,,,,
,,,,,,,,,,,,,,,,,200020,19,2022-01-25_20h52.26.870,lexical_decision_task_DD_L6,2021.2.3,MacIntel,58.82352941,,,,,,,,,,,,0.624,0,,,,,,,,,,,,,,z,0,0.624,,,,,,,,-0.02137931,-0.028275862,0,0,0,,0,104,104,111,1,HOSSE,C,old,n,./images/HOSSE.png,,,,,,,,,,,,,,,,,,,,,
,,,,,,,,,,,,,,,,,200020,19,2022-01-25_20h52.26.870,lexical_decision_task_DD_L6,2021.2.3,MacIntel,58.82352941,,,,,,,,,,,,0.707,0,,,,,,,,,,,,,,z,0,0.707,,,,,,,,-0.02137931,-0.028275862,0,0,0,,0,105,105,101,1,GLEET,LB,old,n,./images/GLEETLB.png,,,,,,,,,,,,,,,,,,,,,
,,,,,,,,,,,,,,,,,200020,19,2022-01-25_20h52.26.870,lexical_decision_task_DD_L6,2021.2.3,MacIntel,58.82352941,,,,,,,,,,,,1.069,0,,,,,,,,,,,,,,z,0,1.069,,,,,,,,-0.02137931,-0.028275862,0,0,0,,0,106,106,121,1,CEERS,HB,old,n,./images/CEERSHB.png,,,,,,,,,,,,,,,,,,,,,
,,,,,,,,,,,,,,,,,200020,19,2022-01-25_20h52.26.870,lexical_decision_task_DD_L6,2021.2.3,MacIntel,58.82352941,,,,,,,,,,,,1.308,0,,,,,,,,,,,,,,z,0,1.308,,,,,,,,-0.02137931,-0.028275862,0,0,0,,0,107,107,130,1,CRILL,HB,old,n,./images/CRILLHB.png,,,,,,,,,,,,,,,,,,,,,
,,,,,,,,,,,,,,,,,200020,19,2022-01-25_20h52.26.870,lexical_decision_task_DD_L6,2021.2.3,MacIntel,58.82352941,,,,,,,,,,,,0.681,0,,,,,,,,,,,,,,m,0,0.681,,,,,,,,-0.02137931,-0.028275862,0,0,0,,0,108,108,21,1,DANCER,LB,old,y,./images/DANCERLB.png,,,,,,,,,,,,,,,,,,,,,
,,,,,,,,,,,,,,,,,200020,19,2022-01-25_20h52.26.870,lexical_decision_task_DD_L6,2021.2.3,MacIntel,58.82352941,,,,,,,,,,,,0.874,0,,,,,,,,,,,,,,m,0,0.874,,,,,,,,-0.02137931,-0.028275862,0,0,0,,0,109,109,56,1,HEATER,HB,old,y,./images/HEATERHB.png,,,,,,,,,,,,,,,,,,,,,
,,,,,,,,,,,,,,,,,200020,19,2022-01-25_20h52.26.870,lexical_decision_task_DD_L6,2021.2.3,MacIntel,58.82352941,,,,,,,,,,,,1.18,0,,,,,,,,,,,,,,z,0,1.18,,,,,,,,-0.02137931,-0.028275862,0,0,0,,0,110,110,163,1,GAMBA,HB,old,n,./images/GAMBAHB.png,,,,,,,,,,,,,,,,,,,,,
,,,,,,,,,,,,,,,,,200020,19,2022-01-25_20h52.26.870,lexical_decision_task_DD_L6,2021.2.3,MacIntel,58.82352941,,,,,,,,,,,,0.907,0,,,,,,,,,,,,,,z,0,0.907,,,,,,,,-0.02137931,-0.028275862,0,0,0,,0,111,111,161,1,BLAPS,LB,old,n,./images/BLAPSLB.png,,,,,,,,,,,,,,,,,,,,,
,,,,,,,,,,,,,,,,,200020,19,2022-01-25_20h52.26.870,lexical_decision_task_DD_L6,2021.2.3,MacIntel,58.82352941,,,,,,,,,,,,0.997,0,,,,,,,,,,,,,,z,0,0.997,,,,,,,,-0.02137931,-0.028275862,0,0,0,,0,112,112,94,1,BLANS,HB,old,n,./images/BLANSHB.png,,,,,,,,,,,,,,,,,,,,,
,,,,,,,,,,,,,,,,,200020,19,2022-01-25_20h52.26.870,lexical_decision_task_DD_L6,2021.2.3,MacIntel,58.82352941,,,,,,,,,,,,0.597,0,,,,,,,,,,,,,,m,0,0.597,,,,,,,,-0.02137931,-0.028275862,0,0,0,,0,113,113,28,1,CASINO,C,old,y,./images/CASINO.png,,,,,,,,,,,,,,,,,,,,,
,,,,,,,,,,,,,,,,,200020,19,2022-01-25_20h52.26.870,lexical_decision_task_DD_L6,2021.2.3,MacIntel,58.82352941,,,,,,,,,,,,1.038,0,,,,,,,,,,,,,,z,0,1.038,,,,,,,,-0.02137931,-0.028275862,0,0,0,,0,114,114,114,1,RIKES,C,old,n,./images/RIKES.png,,,,,,,,,,,,,,,,,,,,,
,,,,,,,,,,,,,,,,,200020,19,2022-01-25_20h52.26.870,lexical_decision_task_DD_L6,2021.2.3,MacIntel,58.82352941,,,,,,,,,,,,0.809,0,,,,,,,,,,,,,,z,0,0.809,,,,,,,,-0.02137931,-0.028275862,0,0,0,,0,115,115,113,1,LINEW,LB,old,n,./images/LINEWLB.png,,,,,,,,,,,,,,,,,,,,,
,,,,,,,,,,,,,,,,,200020,19,2022-01-25_20h52.26.870,lexical_decision_task_DD_L6,2021.2.3,MacIntel,58.82352941,,,,,,,,,,,,0.663,0,,,,,,,,,,,,,,m,0,0.663,,,,,,,,-0.02137931,-0.028275862,0,0,0,,0,116,116,26,1,CLOUD,HB,old,y,./images/CLOUDHB.png,,,,,,,,,,,,,,,,,,,,,
,,,,,,,,,,,,,,,,,200020,19,2022-01-25_20h52.26.870,lexical_decision_task_DD_L6,2021.2.3,MacIntel,58.82352941,,,,,,,,,,,,0.764,0,,,,,,,,,,,,,,m,0,0.764,,,,,,,,-0.02137931,-0.028275862,0,0,0,,0,117,117,83,1,WHISKY,HB,old,y,./images/WHISKYHB.png,,,,,,,,,,,,,,,,,,,,,
,,,,,,,,,,,,,,,,,200020,19,2022-01-25_20h52.26.870,lexical_decision_task_DD_L6,2021.2.3,MacIntel,58.82352941,,,,,,,,,,,,0.861,0,,,,,,,,,,,,,,m,0,0.861,,,,,,,,-0.02137931,-0.028275862,0,0,0,,0,118,118,82,1,PEBBLE,C,old,y,./images/PEBBLE.png,,,,,,,,,,,,,,,,,,,,,
,,,,,,,,,,,,,,,,,200020,19,2022-01-25_20h52.26.870,lexical_decision_task_DD_L6,2021.2.3,MacIntel,58.82352941,,,,,,,,,,,,0.842,0,,,,,,,,,,,,,,m,0,0.842,,,,,,,,-0.02137931,-0.028275862,0,0,0,,0,119,119,57,1,FERRY,LB,old,y,./images/FERRYLB.png,,,,,,,,,,,,,,,,,,,,,
,,,,,,,,,,,,,,,,,200020,19,2022-01-25_20h52.26.870,lexical_decision_task_DD_L6,2021.2.3,MacIntel,58.82352941,,,,,,,,,,,,0.908,0,,,,,,,,,,,,,,m,0,0.908,,,,,,,,-0.02137931,-0.028275862,0,0,0,,0,120,120,29,1,PISTOL,HB,old,y,./images/PISTOLHB.png,,,,,,,,,,,,,,,,,,,,,
,,,,,,,,,,,,,,,,,200020,19,2022-01-25_20h52.26.870,lexical_decision_task_DD_L6,2021.2.3,MacIntel,58.82352941,,,,,,,,,,,,1.033,0,,,,,,,,,,,,,,z,0,1.033,,,,,,,,-0.02137931,-0.028275862,0,0,0,,0,121,121,139,1,BLEAR,HB,old,n,./images/BLEARHB.png,,,,,,,,,,,,,,,,,,,,,
,,,,,,,,,,,,,,,,,200020,19,2022-01-25_20h52.26.870,lexical_decision_task_DD_L6,2021.2.3,MacIntel,58.82352941,,,,,,,,,,,,0.68,0,,,,,,,,,,,,,,z,0,0.68,,,,,,,,-0.02137931,-0.028275862,0,0,0,,0,122,122,120,1,RINED,C,old,n,./images/RINED.png,,,,,,,,,,,,,,,,,,,,,
,,,,,,,,,,,,,,,,,200020,19,2022-01-25_20h52.26.870,lexical_decision_task_DD_L6,2021.2.3,MacIntel,58.82352941,,,,,,,,,,,,0.756,0,,,,,,,,,,,,,,m,0,0.756,,,,,,,,-0.02137931,-0.028275862,0,0,0,,0,123,123,9,1,DIVER,LB,old,y,./images/DIVERLB.png,,,,,,,,,,,,,,,,,,,,,
,,,,,,,,,,,,,,,,,200020,19,2022-01-25_20h52.26.870,lexical_decision_task_DD_L6,2021.2.3,MacIntel,58.82352941,,,,,,,,,,,,1.262,0,,,,,,,,,,,,,,z,0,1.262,,,,,,,,-0.02137931,-0.028275862,0,0,0,,0,124,124,112,1,MYING,HB,old,n,./images/MYINGHB.png,,,,,,,,,,,,,,,,,,,,,
,,,,,,,,,,,,,,,,,200020,19,2022-01-25_20h52.26.870,lexical_decision_task_DD_L6,2021.2.3,MacIntel,58.82352941,,,,,,,,,,,,0.573,0,,,,,,,,,,,,,,m,0,0.573,,,,,,,,-0.02137931,-0.028275862,0,0,0,space,0,125,125,31,1,STEAK,C,old,y,./images/STEAK.png,4.812,,,,,,,,,,,,,,,,,,,,
,,,,,,,,,,,,,,,,,200020,19,2022-01-25_20h52.26.870,lexical_decision_task_DD_L6,2021.2.3,MacIntel,58.82352941,,,,,,,,,,,,0.694,0,,,,,,,,,,,,,,z,0,0.694,,,,,,,,-0.02137931,-0.028275862,0,0,0,,0,126,126,98,1,BAMPS,LB,old,n,./images/BAMPSLB.png,,,,,,,,,,,,,,,,,,,,,
,,,,,,,,,,,,,,,,,200020,19,2022-01-25_20h52.26.870,lexical_decision_task_DD_L6,2021.2.3,MacIntel,58.82352941,,,,,,,,,,,,0.613,0,,,,,,,,,,,,,,m,0,0.613,,,,,,,,-0.02137931,-0.028275862,0,0,0,,0,127,127,42,1,CHAIN,LB,old,y,./images/CHAINLB.png,,,,,,,,,,,,,,,,,,,,,
,,,,,,,,,,,,,,,,,200020,19,2022-01-25_20h52.26.870,lexical_decision_task_DD_L6,2021.2.3,MacIntel,58.82352941,,,,,,,,,,,,1.048,0,,,,,,,,,,,,,,m,0,1.048,,,,,,,,-0.02137931,-0.028275862,0,0,0,,0,128,128,68,1,VALLEY,HB,old,y,./images/VALLEYHB.png,,,,,,,,,,,,,,,,,,,,,
,,,,,,,,,,,,,,,,,200020,19,2022-01-25_20h52.26.870,lexical_decision_task_DD_L6,2021.2.3,MacIntel,58.82352941,,,,,,,,,,,,0.724,0,,,,,,,,,,,,,,m,0,0.724,,,,,,,,-0.02137931,-0.028275862,0,0,0,,0,129,129,25,1,CHALK,C,old,y,./images/CHALK.png,,,,,,,,,,,,,,,,,,,,,
,,,,,,,,,,,,,,,,,200020,19,2022-01-25_20h52.26.870,lexical_decision_task_DD_L6,2021.2.3,MacIntel,58.82352941,,,,,,,,,,,,0.698,0,,,,,,,,,,,,,,z,0,0.698,,,,,,,,-0.02137931,-0.028275862,0,0,0,,0,130,130,136,1,WERVE,HB,old,n,./images/WERVEHB.png,,,,,,,,,,,,,,,,,,,,,
,,,,,,,,,,,,,,,,,200020,19,2022-01-25_20h52.26.870,lexical_decision_task_DD_L6,2021.2.3,MacIntel,58.82352941,,,,,,,,,,,,0.572,0,,,,,,,,,,,,,,m,0,0.572,,,,,,,,-0.02137931,-0.028275862,0,0,0,,0,131,131,75,1,HAMMER,LB,old,y,./images/HAMMERLB.png,,,,,,,,,,,,,,,,,,,,,
,,,,,,,,,,,,,,,,,200020,19,2022-01-25_20h52.26.870,lexical_decision_task_DD_L6,2021.2.3,MacIntel,58.82352941,,,,,,,,,,,,1.039,0,,,,,,,,,,,,,,z,0,1.039,,,,,,,,-0.02137931,-0.028275862,0,0,0,,0,132,132,100,1,DRIBS,HB,old,n,./images/DRIBSHB.png,,,,,,,,,,,,,,,,,,,,,
,,,,,,,,,,,,,,,,,200020,19,2022-01-25_20h52.26.870,lexical_decision_task_DD_L6,2021.2.3,MacIntel,58.82352941,,,,,,,,,,,,0.646,0,,,,,,,,,,,,,,m,0,0.646,,,,,,,,-0.02137931,-0.028275862,0,0,0,,0,133,133,18,1,PARCEL,LB,old,y,./images/PARCELLB.png,,,,,,,,,,,,,,,,,,,,,
,,,,,,,,,,,,,,,,,200020,19,2022-01-25_20h52.26.870,lexical_decision_task_DD_L6,2021.2.3,MacIntel,58.82352941,,,,,,,,,,,,0.762,0,,,,,,,,,,,,,,m,0,0.762,,,,,,,,-0.02137931,-0.028275862,0,0,0,,0,134,134,2,1,STOVE,HB,old,y,./images/STOVEHB.png,,,,,,,,,,,,,,,,,,,,,
,,,,,,,,,,,,,,,,,200020,19,2022-01-25_20h52.26.870,lexical_decision_task_DD_L6,2021.2.3,MacIntel,58.82352941,,,,,,,,,,,,0.521,0,,,,,,,,,,,,,,m,0,0.521,,,,,,,,-0.02137931,-0.028275862,0,0,0,,0,135,135,45,1,MONKEY,LB,old,y,./images/MONKEYLB.png,,,,,,,,,,,,,,,,,,,,,
,,,,,,,,,,,,,,,,,200020,19,2022-01-25_20h52.26.870,lexical_decision_task_DD_L6,2021.2.3,MacIntel,58.82352941,,,,,,,,,,,,0.947,0,,,,,,,,,,,,,,m,0,0.947,,,,,,,,-0.02137931,-0.028275862,0,0,0,,0,136,136,44,1,BASKET,HB,old,y,./images/BASKETHB.png,,,,,,,,,,,,,,,,,,,,,
,,,,,,,,,,,,,,,,,200020,19,2022-01-25_20h52.26.870,lexical_decision_task_DD_L6,2021.2.3,MacIntel,58.82352941,,,,,,,,,,,,0.605,0,,,,,,,,,,,,,,m,0,0.605,,,,,,,,-0.02137931,-0.028275862,0,0,0,,0,137,137,52,1,DESERT,C,old,y,./images/DESERT.png,,,,,,,,,,,,,,,,,,,,,
,,,,,,,,,,,,,,,,,200020,19,2022-01-25_20h52.26.870,lexical_decision_task_DD_L6,2021.2.3,MacIntel,58.82352941,,,,,,,,,,,,0.806,0,,,,,,,,,,,,,,m,0,0.806,,,,,,,,-0.02137931,-0.028275862,0,0,0,,0,138,138,50,1,PILOT,HB,old,y,./images/PILOTHB.png,,,,,,,,,,,,,,,,,,,,,
,,,,,,,,,,,,,,,,,200020,19,2022-01-25_20h52.26.870,lexical_decision_task_DD_L6,2021.2.3,MacIntel,58.82352941,,,,,,,,,,,,0.89,0,,,,,,,,,,,,,,m,0,0.89,,,,,,,,-0.02137931,-0.028275862,0,0,0,,0,139,139,35,1,LLAMA,HB,old,y,./images/LLAMAHB.png,,,,,,,,,,,,,,,,,,,,,
,,,,,,,,,,,,,,,,,200020,19,2022-01-25_20h52.26.870,lexical_decision_task_DD_L6,2021.2.3,MacIntel,58.82352941,,,,,,,,,,,,0.707,0,,,,,,,,,,,,,,m,0,0.707,,,,,,,,-0.02137931,-0.028275862,0,0,0,,0,140,140,74,1,JUMPER,HB,old,y,./images/JUMPERHB.png,,,,,,,,,,,,,,,,,,,,,
,,,,,,,,,,,,,,,,,200020,19,2022-01-25_20h52.26.870,lexical_decision_task_DD_L6,2021.2.3,MacIntel,58.82352941,,,,,,,,,,,,0.946,0,,,,,,,,,,,,,,m,0,0.946,,,,,,,,-0.02137931,-0.028275862,0,0,0,,0,141,141,165,1,TROWN,C,old,n,./images/TROWN.png,,,,,,,,,,,,,,,,,,,,,
,,,,,,,,,,,,,,,,,200020,19,2022-01-25_20h52.26.870,lexical_decision_task_DD_L6,2021.2.3,MacIntel,58.82352941,,,,,,,,,,,,1.124,0,,,,,,,,,,,,,,z,0,1.124,,,,,,,,-0.02137931,-0.028275862,0,0,0,,0,142,142,119,1,PAFER,LB,old,n,./images/PAFERLB.png,,,,,,,,,,,,,,,,,,,,,
,,,,,,,,,,,,,,,,,200020,19,2022-01-25_20h52.26.870,lexical_decision_task_DD_L6,2021.2.3,MacIntel,58.82352941,,,,,,,,,,,,0.879,0,,,,,,,,,,,,,,m,0,0.879,,,,,,,,-0.02137931,-0.028275862,0,0,0,,0,143,143,73,1,GLOVE,C,old,y,./images/GLOVE.png,,,,,,,,,,,,,,,,,,,,,
,,,,,,,,,,,,,,,,,200020,19,2022-01-25_20h52.26.870,lexical_decision_task_DD_L6,2021.2.3,MacIntel,58.82352941,,,,,,,,,,,,0.724,0,,,,,,,,,,,,,,m,0,0.724,,,,,,,,-0.02137931,-0.028275862,0,0,0,,0,144,144,72,1,FLASK,LB,old,y,./images/FLASKLB.png,,,,,,,,,,,,,,,,,,,,,
,,,,,,,,,,,,,,,,,200020,19,2022-01-25_20h52.26.870,lexical_decision_task_DD_L6,2021.2.3,MacIntel,58.82352941,,,,,,,,,,,,0.837,0,,,,,,,,,,,,,,m,0,0.837,,,,,,,,-0.02137931,-0.028275862,0,0,0,,0,145,145,17,1,PARADE,HB,old,y,./images/PARADEHB.png,,,,,,,,,,,,,,,,,,,,,
,,,,,,,,,,,,,,,,,200020,19,2022-01-25_20h52.26.870,lexical_decision_task_DD_L6,2021.2.3,MacIntel,58.82352941,,,,,,,,,,,,0.731,0,,,,,,,,,,,,,,m,0,0.731,,,,,,,,-0.02137931,-0.028275862,0,0,0,,0,146,146,77,1,WHEEL,HB,old,y,./images/WHEELHB.png,,,,,,,,,,,,,,,,,,,,,
,,,,,,,,,,,,,,,,,200020,19,2022-01-25_20h52.26.870,lexical_decision_task_DD_L6,2021.2.3,MacIntel,58.82352941,,,,,,,,,,,,0.667,0,,,,,,,,,,,,,,m,0,0.667,,,,,,,,-0.02137931,-0.028275862,0,0,0,,0,147,147,4,1,BOXER,C,old,y,./images/BOXER.png,,,,,,,,,,,,,,,,,,,,,
,,,,,,,,,,,,,,,,,200020,19,2022-01-25_20h52.26.870,lexical_decision_task_DD_L6,2021.2.3,MacIntel,58.82352941,,,,,,,,,,,,0.81,0,,,,,,,,,,,,,,z,0,0.81,,,,,,,,-0.02137931,-0.028275862,0,0,0,,0,148,148,86,1,AIFED,LB,old,n,./images/AIFEDLB.png,,,,,,,,,,,,,,,,,,,,,
,,,,,,,,,,,,,,,,,200020,19,2022-01-25_20h52.26.870,lexical_decision_task_DD_L6,2021.2.3,MacIntel,58.82352941,,,,,,,,,,,,1.054,0,,,,,,,,,,,,,,m,0,1.054,,,,,,,,-0.02137931,-0.028275862,0,0,0,,0,149,149,140,1,DOVET,LB,old,n,./images/DOVETLB.png,,,,,,,,,,,,,,,,,,,,,
,,,,,,,,,,,,,,,,,200020,19,2022-01-25_20h52.26.870,lexical_decision_task_DD_L6,2021.2.3,MacIntel,58.82352941,,,,,,,,,,,,0.797,0,,,,,,,,,,,,,,z,0,0.797,,,,,,,,-0.02137931,-0.028275862,0,0,0,,0,150,150,87,1,TRING,C,old,n,./images/TRING.png,,,,,,,,,,,,,,,,,,,,,
,,,,,,,,,,,,,,,,,200020,19,2022-01-25_20h52.26.870,lexical_decision_task_DD_L6,2021.2.3,MacIntel,58.82352941,,,,,,,,,,,,0.606,0,,,,,,,,,,,,,,m,0,0.606,,,,,,,,-0.02137931,-0.028275862,0,0,0,,0,151,151,39,1,CANDY,LB,old,y,./images/CANDYLB.png,,,,,,,,,,,,,,,,,,,,,
,,,,,,,,,,,,,,,,,200020,19,2022-01-25_20h52.26.870,lexical_decision_task_DD_L6,2021.2.3,MacIntel,58.82352941,,,,,,,,,,,,0.872,0,,,,,,,,,,,,,,z,0,0.872,,,,,,,,-0.02137931,-0.028275862,0,0,0,,0,152,152,149,1,VEASE,LB,old,n,./images/VEASELB.png,,,,,,,,,,,,,,,,,,,,,
,,,,,,,,,,,,,,,,,200020,19,2022-01-25_20h52.26.870,lexical_decision_task_DD_L6,2021.2.3,MacIntel,58.82352941,,,,,,,,,,,,0.906,0,,,,,,,,,,,,,,m,0,0.906,,,,,,,,-0.02137931,-0.028275862,0,0,0,,0,153,153,58,1,CANOE,C,old,y,./images/CANOE.png,,,,,,,,,,,,,,,,,,,,,
,,,,,,,,,,,,,,,,,200020,19,2022-01-25_20h52.26.870,lexical_decision_task_DD_L6,2021.2.3,MacIntel,58.82352941,,,,,,,,,,,,0.907,0,,,,,,,,,,,,,,m,0,0.907,,,,,,,,-0.02137931,-0.028275862,0,0,0,,0,154,154,123,1,SEDGE,C,old,n,./images/SEDGE.png,,,,,,,,,,,,,,,,,,,,,
,,,,,,,,,,,,,,,,,200020,19,2022-01-25_20h52.26.870,lexical_decision_task_DD_L6,2021.2.3,MacIntel,58.82352941,,,,,,,,,,,,0.808,0,,,,,,,,,,,,,,m,0,0.808,,,,,,,,-0.02137931,-0.028275862,0,0,0,,0,155,155,36,1,BOILER,LB,old,y,./images/BOILERLB.png,,,,,,,,,,,,,,,,,,,,,
,,,,,,,,,,,,,,,,,200020,19,2022-01-25_20h52.26.870,lexical_decision_task_DD_L6,2021.2.3,MacIntel,58.82352941,,,,,,,,,,,,0.608,0,,,,,,,,,,,,,,m,0,0.608,,,,,,,,-0.02137931,-0.028275862,0,0,0,,0,156,156,51,1,SAUCE,LB,old,y,./images/SAUCELB.png,,,,,,,,,,,,,,,,,,,,,
,,,,,,,,,,,,,,,,,200020,19,2022-01-25_20h52.26.870,lexical_decision_task_DD_L6,2021.2.3,MacIntel,58.82352941,,,,,,,,,,,,0.848,0,,,,,,,,,,,,,,z,0,0.848,,,,,,,,-0.02137931,-0.028275862,0,0,0,,0,157,157,128,1,GRIFT,LB,old,n,./images/GRIFTLB.png,,,,,,,,,,,,,,,,,,,,,
,,,,,,,,,,,,,,,,,200020,19,2022-01-25_20h52.26.870,lexical_decision_task_DD_L6,2021.2.3,MacIntel,58.82352941,,,,,,,,,,,,0.678,0,,,,,,,,,,,,,,z,0,0.678,,,,,,,,-0.02137931,-0.028275862,0,0,0,,0,158,158,12,1,BLOKE,LB,old,y,./images/BLOKELB.png,,,,,,,,,,,,,,,,,,,,,
,,,,,,,,,,,,,,,,,200020,19,2022-01-25_20h52.26.870,lexical_decision_task_DD_L6,2021.2.3,MacIntel,58.82352941,,,,,,,,,,,,0.792,0,,,,,,,,,,,,,,m,0,0.792,,,,,,,,-0.02137931,-0.028275862,0,0,0,,0,159,159,34,1,RAZOR,C,old,y,./images/RAZOR.png,,,,,,,,,,,,,,,,,,,,,
,,,,,,,,,,,,,,,,,200020,19,2022-01-25_20h52.26.870,lexical_decision_task_DD_L6,2021.2.3,MacIntel,58.82352941,,,,,,,,,,,,0.631,0,,,,,,,,,,,,,,m,0,0.631,,,,,,,,-0.02137931,-0.028275862,0,0,0,,0,160,160,78,1,BROOM,LB,old,y,./images/BROOMLB.png,,,,,,,,,,,,,,,,,,,,,
,,,,,,,,,,,,,,,,,200020,19,2022-01-25_20h52.26.870,lexical_decision_task_DD_L6,2021.2.3,MacIntel,58.82352941,,,,,,,,,,,,0.605,0,,,,,,,,,,,,,,m,0,0.605,,,,,,,,-0.02137931,-0.028275862,0,0,0,,0,161,161,64,1,BRIDE,C,old,y,./images/BRIDE.png,,,,,,,,,,,,,,,,,,,,,
,,,,,,,,,,,,,,,,,200020,19,2022-01-25_20h52.26.870,lexical_decision_task_DD_L6,2021.2.3,MacIntel,58.82352941,,,,,,,,,,,,0.79,0,,,,,,,,,,,,,,z,0,0.79,,,,,,,,-0.02137931,-0.028275862,0,0,0,,0,162,162,132,1,SCIFF,C,old,n,./images/SCIFF.png,,,,,,,,,,,,,,,,,,,,,
,,,,,,,,,,,,,,,,,200020,19,2022-01-25_20h52.26.870,lexical_decision_task_DD_L6,2021.2.3,MacIntel,58.82352941,,,,,,,,,,,,0.717,0,,,,,,,,,,,,,,z,0,0.717,,,,,,,,-0.02137931,-0.028275862,0,0,0,,0,163,163,95,1,HANTY,LB,old,n,./images/HANTYLB.png,,,,,,,,,,,,,,,,,,,,,
,,,,,,,,,,,,,,,,,200020,19,2022-01-25_20h52.26.870,lexical_decision_task_DD_L6,2021.2.3,MacIntel,58.82352941,,,,,,,,,,,,0.99,0,,,,,,,,,,,,,,z,0,0.99,,,,,,,,-0.02137931,-0.028275862,0,0,0,,0,164,164,160,1,VEETS,HB,old,n,./images/VEETSHB.png,,,,,,,,,,,,,,,,,,,,,
,,,,,,,,,,,,,,,,,200020,19,2022-01-25_20h52.26.870,lexical_decision_task_DD_L6,2021.2.3,MacIntel,58.82352941,,,,,,,,,,,,0.78,0,,,,,,,,,,,,,,z,0,0.78,,,,,,,,-0.02137931,-0.028275862,0,0,0,,0,165,165,126,1,GUELS,C,old,n,./images/GUELS.png,,,,,,,,,,,,,,,,,,,,,
,,,,,,,,,,,,,,,,,200020,19,2022-01-25_20h52.26.870,lexical_decision_task_DD_L6,2021.2.3,MacIntel,58.82352941,,,,,,,,,,,,0.997,0,,,,,,,,,,,,,,m,0,0.997,,,,,,,,-0.02137931,-0.028275862,0,0,0,,0,166,166,166,1,SHORY,HB,old,n,./images/SHORYHB.png,,,,,,,,,,,,,,,,,,,,,
,,,,,,,,,,,,,,,,,200020,19,2022-01-25_20h52.26.870,lexical_decision_task_DD_L6,2021.2.3,MacIntel,58.82352941,,,,,,,,,,,,1.564,0,,,,,,,,,,,,,,z,0,1.564,,,,,,,,-0.02137931,-0.028275862,0,0,0,,0,167,167,106,1,CLUMS,HB,old,n,./images/CLUMSHB.png,,,,,,,,,,,,,,,,,,,,,
space,-0.02137931,-0.028275862,0,0,0,,,,,,,1,test,"In the next phase you will be presented with the words from the the first phase. Your job is to decide whether you remember seeing the word or not. If you remember seeing the word press ""old"" or type ""m"". If you do not remember seeing the word press ""new"" or type ""z"". Please press the space bar or click on continue to begin. ",,,200020,19,2022-01-25_20h52.26.870,lexical_decision_task_DD_L6,2021.2.3,MacIntel,58.82352941,27.29,,,,,,,,,,,,,,,,,,,,,,,,,,,,,,,,,,,,,,,,,,,,,,,,,,,,,0,0,0,0,1,,,,,,,,,,,,,,,
,0.011724138,-0.356551724,1,0,0,instr_done_button,,,,,,1,test,"In the next phase you will be presented with the words from the the first phase. Your job is to decide whether you remember seeing the word or not. If you remember seeing the word press ""old"" or type ""m"". If you do not remember seeing the word press ""new"" or type ""z"". Please press the space bar or click on continue to begin. ",,,200020,19,2022-01-25_20h52.26.870,lexical_decision_task_DD_L6,2021.2.3,MacIntel,58.82352941,,,,,,,,,,,,,,,,,,,,,,,,,,,,,,,,,,,,,,,,,,,,,,,,,,,,,,1,0,1,0,1,,,,,,,,,,,,,,,
space,0.011724138,-0.356551724,0,0,0,,,,,,,1,test,"In the next phase you will be presented with the words from the the first phase. Your job is to decide whether you remember seeing the word or not. If you remember seeing the word press ""old"" or type ""m"". If you do not remember seeing the word press ""new"" or type ""z"". Please press the space bar or click on continue to begin. ",,,200020,19,2022-01-25_20h52.26.870,lexical_decision_task_DD_L6,2021.2.3,MacIntel,58.82352941,1.318,,,,,,,,,,,,,,,,,,,,,,,,,,,,,,,,,,,,,,,,,,,,,,,,,,,,,2,0,2,0,1,,,,,,,,,,,,,,,
space,0.011724138,-0.356551724,0,0,0,,,,,,,1,test,"In the next phase you will be presented with the words from the the first phase. Your job is to decide whether you remember seeing the word or not. If you remember seeing the word press ""old"" or type ""m"". If you do not remember seeing the word press ""new"" or type ""z"". Please press the space bar or click on continue to begin. ",,,200020,19,2022-01-25_20h52.26.870,lexical_decision_task_DD_L6,2021.2.3,MacIntel,58.82352941,0.865,,,,,,,,,,,,,,,,,,,,,,,,,,,,,,,,,,,,,,,,,,,,,,,,,,,,,3,0,3,0,1,,,,,,,,,,,,,,,
space,0.011724138,-0.356551724,0,0,0,,,,,,,1,test,"In the next phase you will be presented with the words from the the first phase. Your job is to decide whether you remember seeing the word or not. If you remember seeing the word press ""old"" or type ""m"". If you do not remember seeing the word press ""new"" or type ""z"". Please press the space bar or click on continue to begin. ",,,200020,19,2022-01-25_20h52.26.870,lexical_decision_task_DD_L6,2021.2.3,MacIntel,58.82352941,0.133,,,,,,,,,,,,,,,,,,,,,,,,,,,,,,,,,,,,,,,,,,,,,,,,,,,,,4,0,4,0,1,,,,,,,,,,,,,,,
,,,,,,,,,,,,,,,,,200020,19,2022-01-25_20h52.26.870,lexical_decision_task_DD_L6,2021.2.3,MacIntel,58.82352941,,,,,,,,,,,,1.252,0,,,,,,,,,,,,,,,,,,,,,,,,0.011724138,-0.356551724,0,0,0,,,,,,,GRAPE,C,old,y,./images/GRAPE.png,,,,,,,m,0,1.252,,,,,,,,0,0,0,16,1
,,,,,,,,,,,,,,,,,200020,19,2022-01-25_20h52.26.870,lexical_decision_task_DD_L6,2021.2.3,MacIntel,58.82352941,,,,,,,,,,,,1.688,0,,,,,,,,,,,,,,,,,,,,,,,,0.011724138,-0.356551724,0,0,0,,,,,,,DRUMS,C,new,y,./images/DRUMS.png,,,,,,,z,0,1.688,,,,,,,,0,1,1,133,1
,,,,,,,,,,,,,,,,,200020,19,2022-01-25_20h52.26.870,lexical_decision_task_DD_L6,2021.2.3,MacIntel,58.82352941,,,,,,,,,,,,1.388,0,,,,,,,,,,,,,,,,,,,,,,,,0.011724138,-0.356551724,0,0,0,,,,,,,SNAKE,C,old,y,./images/SNAKE.png,,,,,,,m,0,1.388,,,,,,,,0,2,2,40,1
,,,,,,,,,,,,,,,,,200020,19,2022-01-25_20h52.26.870,lexical_decision_task_DD_L6,2021.2.3,MacIntel,58.82352941,,,,,,,,,,,,1.232,0,,,,,,,,,,,,,,,,,,,,,,,,0.011724138,-0.356551724,0,0,0,,,,,,,WRIST,C,new,y,./images/WRIST.png,,,,,,,m,0,1.232,,,,,,,,0,3,3,109,1
,,,,,,,,,,,,,,,,,200020,19,2022-01-25_20h52.26.870,lexical_decision_task_DD_L6,2021.2.3,MacIntel,58.82352941,,,,,,,,,,,,0.763,0,,,,,,,,,,,,,,,,,,,,,,,,0.011724138,-0.356551724,0,0,0,,,,,,,MAMMAL,HB,old,y,./images/MAMMALHB.png,,,,,,,m,0,0.763,,,,,,,,0,4,4,62,1
,,,,,,,,,,,,,,,,,200020,19,2022-01-25_20h52.26.870,lexical_decision_task_DD_L6,2021.2.3,MacIntel,58.82352941,,,,,,,,,,,,0.906,0,,,,,,,,,,,,,,,,,,,,,,,,0.011724138,-0.356551724,0,0,0,,,,,,,WHEEL,HB,old,y,./images/WHEELHB.png,,,,,,,m,0,0.906,,,,,,,,0,5,5,77,1
,,,,,,,,,,,,,,,,,200020,19,2022-01-25_20h52.26.870,lexical_decision_task_DD_L6,2021.2.3,MacIntel,58.82352941,,,,,,,,,,,,0.81,0,,,,,,,,,,,,,,,,,,,,,,,,0.011724138,-0.356551724,0,0,0,,,,,,,CANDY,LB,old,y,./images/CANDYLB.png,,,,,,,m,0,0.81,,,,,,,,0,6,6,39,1
,,,,,,,,,,,,,,,,,200020,19,2022-01-25_20h52.26.870,lexical_decision_task_DD_L6,2021.2.3,MacIntel,58.82352941,,,,,,,,,,,,1.09,0,,,,,,,,,,,,,,,,,,,,,,,,0.011724138,-0.356551724,0,0,0,,,,,,,KITTEN,LB,new,y,./images/KITTENLB.png,,,,,,,z,0,1.09,,,,,,,,0,7,7,129,1
,,,,,,,,,,,,,,,,,200020,19,2022-01-25_20h52.26.870,lexical_decision_task_DD_L6,2021.2.3,MacIntel,58.82352941,,,,,,,,,,,,0.83,0,,,,,,,,,,,,,,,,,,,,,,,,0.011724138,-0.356551724,0,0,0,,,,,,,TRIPOD,LB,new,y,./images/TRIPODLB.png,,,,,,,z,0,0.83,,,,,,,,0,8,8,138,1
,,,,,,,,,,,,,,,,,200020,19,2022-01-25_20h52.26.870,lexical_decision_task_DD_L6,2021.2.3,MacIntel,58.82352941,,,,,,,,,,,,0.964,0,,,,,,,,,,,,,,,,,,,,,,,,0.011724138,-0.356551724,0,0,0,,,,,,,STORM,LB,new,y,./images/STORMLB.png,,,,,,,z,0,0.964,,,,,,,,0,9,9,114,1
,,,,,,,,,,,,,,,,,200020,19,2022-01-25_20h52.26.870,lexical_decision_task_DD_L6,2021.2.3,MacIntel,58.82352941,,,,,,,,,,,,0.848,0,,,,,,,,,,,,,,,,,,,,,,,,0.011724138,-0.356551724,0,0,0,,,,,,,GLOVE,C,old,y,./images/GLOVE.png,,,,,,,m,0,0.848,,,,,,,,0,10,10,73,1
,,,,,,,,,,,,,,,,,200020,19,2022-01-25_20h52.26.870,lexical_decision_task_DD_L6,2021.2.3,MacIntel,58.82352941,,,,,,,,,,,,1.02,0,,,,,,,,,,,,,,,,,,,,,,,,0.011724138,-0.356551724,0,0,0,,,,,,,CLOTH,HB,old,y,./images/CLOTHHB.png,,,,,,,m,0,1.02,,,,,,,,0,11,11,23,1
,,,,,,,,,,,,,,,,,200020,19,2022-01-25_20h52.26.870,lexical_decision_task_DD_L6,2021.2.3,MacIntel,58.82352941,,,,,,,,,,,,0.77,0,,,,,,,,,,,,,,,,,,,,,,,,0.011724138,-0.356551724,0,0,0,,,,,,,HEATER,HB,old,y,./images/HEATERHB.png,,,,,,,m,0,0.77,,,,,,,,0,12,12,56,1
,,,,,,,,,,,,,,,,,200020,19,2022-01-25_20h52.26.870,lexical_decision_task_DD_L6,2021.2.3,MacIntel,58.82352941,,,,,,,,,,,,1.041,0,,,,,,,,,,,,,,,,,,,,,,,,0.011724138,-0.356551724,0,0,0,,,,,,,FINGER,LB,new,y,./images/FINGERLB.png,,,,,,,z,0,1.041,,,,,,,,0,13,13,87,1
,,,,,,,,,,,,,,,,,200020,19,2022-01-25_20h52.26.870,lexical_decision_task_DD_L6,2021.2.3,MacIntel,58.82352941,,,,,,,,,,,,0.675,0,,,,,,,,,,,,,,,,,,,,,,,,0.011724138,-0.356551724,0,0,0,,,,,,,INFANT,C,new,y,./images/INFANT.png,,,,,,,z,0,0.675,,,,,,,,0,14,14,160,1
,,,,,,,,,,,,,,,,,200020,19,2022-01-25_20h52.26.870,lexical_decision_task_DD_L6,2021.2.3,MacIntel,58.82352941,,,,,,,,,,,,0.746,0,,,,,,,,,,,,,,,,,,,,,,,,0.011724138,-0.356551724,0,0,0,,,,,,,WALRUS,HB,new,y,./images/WALRUSHB.png,,,,,,,z,0,0.746,,,,,,,,0,15,15,107,1
,,,,,,,,,,,,,,,,,200020,19,2022-01-25_20h52.26.870,lexical_decision_task_DD_L6,2021.2.3,MacIntel,58.82352941,,,,,,,,,,,,0.864,0,,,,,,,,,,,,,,,,,,,,,,,,0.011724138,-0.356551724,0,0,0,,,,,,,PICKLE,HB,new,y,./images/PICKLEHB.png,,,,,,,z,0,0.864,,,,,,,,0,16,16,98,1
,,,,,,,,,,,,,,,,,200020,19,2022-01-25_20h52.26.870,lexical_decision_task_DD_L6,2021.2.3,MacIntel,58.82352941,,,,,,,,,,,,0.965,0,,,,,,,,,,,,,,,,,,,,,,,,0.011724138,-0.356551724,0,0,0,,,,,,,WAGON,C,old,y,./images/WAGON.png,,,,,,,m,0,0.965,,,,,,,,0,17,17,7,1
,,,,,,,,,,,,,,,,,200020,19,2022-01-25_20h52.26.870,lexical_decision_task_DD_L6,2021.2.3,MacIntel,58.82352941,,,,,,,,,,,,0.792,0,,,,,,,,,,,,,,,,,,,,,,,,0.011724138,-0.356551724,0,0,0,,,,,,,DANCER,LB,old,y,./images/DANCERLB.png,,,,,,,m,0,0.792,,,,,,,,0,18,18,21,1
,,,,,,,,,,,,,,,,,200020,19,2022-01-25_20h52.26.870,lexical_decision_task_DD_L6,2021.2.3,MacIntel,58.82352941,,,,,,,,,,,,0.633,0,,,,,,,,,,,,,,,,,,,,,,,,0.011724138,-0.356551724,0,0,0,,,,,,,BUNNY,C,old,y,./images/BUNNY.png,,,,,,,m,0,0.633,,,,,,,,0,19,19,13,1
,,,,,,,,,,,,,,,,,200020,19,2022-01-25_20h52.26.870,lexical_decision_task_DD_L6,2021.2.3,MacIntel,58.82352941,,,,,,,,,,,,0.849,0,,,,,,,,,,,,,,,,,,,,,,,,0.011724138,-0.356551724,0,0,0,,,,,,,BIRTH,C,new,y,./images/BIRTH.png,,,,,,,z,0,0.849,,,,,,,,0,20,20,121,1
,,,,,,,,,,,,,,,,,200020,19,2022-01-25_20h52.26.870,lexical_decision_task_DD_L6,2021.2.3,MacIntel,58.82352941,,,,,,,,,,,,0.794,0,,,,,,,,,,,,,,,,,,,,,,,,0.011724138,-0.356551724,0,0,0,,,,,,,SCREW,LB,new,y,./images/SCREWLB.png,,,,,,,z,0,0.794,,,,,,,,0,21,21,108,1
,,,,,,,,,,,,,,,,,200020,19,2022-01-25_20h52.26.870,lexical_decision_task_DD_L6,2021.2.3,MacIntel,58.82352941,,,,,,,,,,,,0.753,0,,,,,,,,,,,,,,,,,,,,,,,,0.011724138,-0.356551724,0,0,0,,,,,,,BRIDE,C,old,y,./images/BRIDE.png,,,,,,,m,0,0.753,,,,,,,,0,22,22,64,1
,,,,,,,,,,,,,,,,,200020,19,2022-01-25_20h52.26.870,lexical_decision_task_DD_L6,2021.2.3,MacIntel,58.82352941,,,,,,,,,,,,0.843,0,,,,,,,,,,,,,,,,,,,,,,,,0.011724138,-0.356551724,0,0,0,,,,,,,CANDLE,C,new,y,./images/CANDLE.png,,,,,,,z,0,0.843,,,,,,,,0,23,23,145,1
,,,,,,,,,,,,,,,,,200020,19,2022-01-25_20h52.26.870,lexical_decision_task_DD_L6,2021.2.3,MacIntel,58.82352941,,,,,,,,,,,,0.64,0,,,,,,,,,,,,,,,,,,,,,,,,0.011724138,-0.356551724,0,0,0,,,,,,,PISTOL,HB,old,y,./images/PISTOLHB.png,,,,,,,m,0,0.64,,,,,,,,0,24,24,29,1
,,,,,,,,,,,,,,,,,200020,19,2022-01-25_20h52.26.870,lexical_decision_task_DD_L6,2021.2.3,MacIntel,58.82352941,,,,,,,,,,,,0.913,0,,,,,,,,,,,,,,,,,,,,,,,,0.011724138,-0.356551724,0,0,0,,,,,,,PIMPLE,HB,new,y,./images/PIMPLEHB.png,,,,,,,z,0,0.913,,,,,,,,0,25,25,155,1
,,,,,,,,,,,,,,,,,200020,19,2022-01-25_20h52.26.870,lexical_decision_task_DD_L6,2021.2.3,MacIntel,58.82352941,,,,,,,,,,,,1.124,0,,,,,,,,,,,,,,,,,,,,,,,,0.011724138,-0.356551724,0,0,0,,,,,,,PILOT,HB,old,y,./images/PILOTHB.png,,,,,,,m,0,1.124,,,,,,,,0,26,26,50,1
,,,,,,,,,,,,,,,,,200020,19,2022-01-25_20h52.26.870,lexical_decision_task_DD_L6,2021.2.3,MacIntel,58.82352941,,,,,,,,,,,,0.856,0,,,,,,,,,,,,,,,,,,,,,,,,0.011724138,-0.356551724,0,0,0,,,,,,,MUFFIN,C,new,y,./images/MUFFIN.png,,,,,,,z,0,0.856,,,,,,,,0,27,27,139,1
,,,,,,,,,,,,,,,,,200020,19,2022-01-25_20h52.26.870,lexical_decision_task_DD_L6,2021.2.3,MacIntel,58.82352941,,,,,,,,,,,,0.711,0,,,,,,,,,,,,,,,,,,,,,,,,0.011724138,-0.356551724,0,0,0,,,,,,,POSTER,HB,old,y,./images/POSTERHB.png,,,,,,,z,0,0.711,,,,,,,,0,28,28,53,1
,,,,,,,,,,,,,,,,,200020,19,2022-01-25_20h52.26.870,lexical_decision_task_DD_L6,2021.2.3,MacIntel,58.82352941,,,,,,,,,,,,0.78,0,,,,,,,,,,,,,,,,,,,,,,,,0.011724138,-0.356551724,0,0,0,,,,,,,STATUE,LB,old,y,./images/STATUELB.png,,,,,,,z,0,0.78,,,,,,,,0,29,29,66,1
,,,,,,,,,,,,,,,,,200020,19,2022-01-25_20h52.26.870,lexical_decision_task_DD_L6,2021.2.3,MacIntel,58.82352941,,,,,,,,,,,,0.674,0,,,,,,,,,,,,,,,,,,,,,,,,0.011724138,-0.356551724,0,0,0,,,,,,,SHIELD,LB,old,y,./images/SHIELDLB.png,,,,,,,m,0,0.674,,,,,,,,0,30,30,48,1
,,,,,,,,,,,,,,,,,200020,19,2022-01-25_20h52.26.870,lexical_decision_task_DD_L6,2021.2.3,MacIntel,58.82352941,,,,,,,,,,,,0.914,0,,,,,,,,,,,,,,,,,,,,,,,,0.011724138,-0.356551724,0,0,0,,,,,,,SHORE,LB,new,y,./images/SHORELB.png,,,,,,,m,0,0.914,,,,,,,,0,31,31,96,1
,,,,,,,,,,,,,,,,,200020,19,2022-01-25_20h52.26.870,lexical_decision_task_DD_L6,2021.2.3,MacIntel,58.82352941,,,,,,,,,,,,0.66,0,,,,,,,,,,,,,,,,,,,,,,,,0.011724138,-0.356551724,0,0,0,,,,,,,GRANNY,HB,old,y,./images/GRANNYHB.png,,,,,,,m,0,0.66,,,,,,,,0,32,32,20,1
,,,,,,,,,,,,,,,,,200020,19,2022-01-25_20h52.26.870,lexical_decision_task_DD_L6,2021.2.3,MacIntel,58.82352941,,,,,,,,,,,,0.665,0,,,,,,,,,,,,,,,,,,,,,,,,0.011724138,-0.356551724,0,0,0,,,,,,,DONKEY,C,old,y,./images/DONKEY.png,,,,,,,m,0,0.665,,,,,,,,0,33,33,19,1
,,,,,,,,,,,,,,,,,200020,19,2022-01-25_20h52.26.870,lexical_decision_task_DD_L6,2021.2.3,MacIntel,58.82352941,,,,,,,,,,,,0.946,0,,,,,,,,,,,,,,,,,,,,,,,,0.011724138,-0.356551724,0,0,0,,,,,,,WEASEL,HB,new,y,./images/WEASELHB.png,,,,,,,z,0,0.946,,,,,,,,0,34,34,164,1
,,,,,,,,,,,,,,,,,200020,19,2022-01-25_20h52.26.870,lexical_decision_task_DD_L6,2021.2.3,MacIntel,58.82352941,,,,,,,,,,,,0.668,0,,,,,,,,,,,,,,,,,,,,,,,,0.011724138,-0.356551724,0,0,0,,,,,,,STRING,HB,new,y,./images/STRINGHB.png,,,,,,,z,0,0.668,,,,,,,,0,35,35,125,1
,,,,,,,,,,,,,,,,,200020,19,2022-01-25_20h52.26.870,lexical_decision_task_DD_L6,2021.2.3,MacIntel,58.82352941,,,,,,,,,,,,0.996,0,,,,,,,,,,,,,,,,,,,,,,,,0.011724138,-0.356551724,0,0,0,,,,,,,PENCE,C,new,y,./images/PENCE.png,,,,,,,z,0,0.996,,,,,,,,0,36,36,100,1
,,,,,,,,,,,,,,,,,200020,19,2022-01-25_20h52.26.870,lexical_decision_task_DD_L6,2021.2.3,MacIntel,58.82352941,,,,,,,,,,,,1.323,0,,,,,,,,,,,,,,,,,,,,,,,,0.011724138,-0.356551724,0,0,0,,,,,,,SMOKER,HB,new,y,./images/SMOKERHB.png,,,,,,,m,0,1.323,,,,,,,,0,37,37,110,1
,,,,,,,,,,,,,,,,,200020,19,2022-01-25_20h52.26.870,lexical_decision_task_DD_L6,2021.2.3,MacIntel,58.82352941,,,,,,,,,,,,0.963,0,,,,,,,,,,,,,,,,,,,,,,,,0.011724138,-0.356551724,0,0,0,,,,,,,SHELF,LB,new,y,./images/SHELFLB.png,,,,,,,z,0,0.963,,,,,,,,0,38,38,123,1
,,,,,,,,,,,,,,,,,200020,19,2022-01-25_20h52.26.870,lexical_decision_task_DD_L6,2021.2.3,MacIntel,58.82352941,,,,,,,,,,,,0.925,0,,,,,,,,,,,,,,,,,,,,,,,,0.011724138,-0.356551724,0,0,0,,,,,,,TIGER,C,old,y,./images/TIGER.png,,,,,,,z,0,0.925,,,,,,,,0,39,39,37,1
,,,,,,,,,,,,,,,,,200020,19,2022-01-25_20h52.26.870,lexical_decision_task_DD_L6,2021.2.3,MacIntel,58.82352941,,,,,,,,,,,,0.739,0,,,,,,,,,,,,,,,,,,,,,,,,0.011724138,-0.356551724,0,0,0,,,,,,,SPINE,HB,old,y,./images/SPINEHB.png,,,,,,,m,0,0.739,,,,,,,,0,40,40,65,1
,,,,,,,,,,,,,,,,,200020,19,2022-01-25_20h52.26.870,lexical_decision_task_DD_L6,2021.2.3,MacIntel,58.82352941,,,,,,,,,,,,0.983,0,,,,,,,,,,,,,,,,,,,,,,,,0.011724138,-0.356551724,0,0,0,space,,,,,,BLOKE,LB,old,y,./images/BLOKELB.png,48.925,,,,,,m,0,0.983,,,,,,,,0,41,41,12,1
,,,,,,,,,,,,,,,,,200020,19,2022-01-25_20h52.26.870,lexical_decision_task_DD_L6,2021.2.3,MacIntel,58.82352941,,,,,,,,,,,,0.579,0,,,,,,,,,,,,,,,,,,,,,,,,0.011724138,-0.356551724,0,0,0,,,,,,,FOLDER,LB,new,y,./images/FOLDERLB.png,,,,,,,m,0,0.579,,,,,,,,0,42,42,126,1
,,,,,,,,,,,,,,,,,200020,19,2022-01-25_20h52.26.870,lexical_decision_task_DD_L6,2021.2.3,MacIntel,58.82352941,,,,,,,,,,,,1.037,0,,,,,,,,,,,,,,,,,,,,,,,,0.011724138,-0.356551724,0,0,0,,,,,,,JUNGLE,HB,new,y,./images/JUNGLEHB.png,,,,,,,z,0,1.037,,,,,,,,0,43,43,167,1
,,,,,,,,,,,,,,,,,200020,19,2022-01-25_20h52.26.870,lexical_decision_task_DD_L6,2021.2.3,MacIntel,58.82352941,,,,,,,,,,,,0.691,0,,,,,,,,,,,,,,,,,,,,,,,,0.011724138,-0.356551724,0,0,0,,,,,,,DESERT,C,old,y,./images/DESERT.png,,,,,,,m,0,0.691,,,,,,,,0,44,44,52,1
,,,,,,,,,,,,,,,,,200020,19,2022-01-25_20h52.26.870,lexical_decision_task_DD_L6,2021.2.3,MacIntel,58.82352941,,,,,,,,,,,,0.899,0,,,,,,,,,,,,,,,,,,,,,,,,0.011724138,-0.356551724,0,0,0,,,,,,,DIVER,LB,old,y,./images/DIVERLB.png,,,,,,,z,0,0.899,,,,,,,,0,45,45,9,1
,,,,,,,,,,,,,,,,,200020,19,2022-01-25_20h52.26.870,lexical_decision_task_DD_L6,2021.2.3,MacIntel,58.82352941,,,,,,,,,,,,0.816,0,,,,,,,,,,,,,,,,,,,,,,,,0.011724138,-0.356551724,0,0,0,,,,,,,PLANET,HB,old,y,./images/PLANETHB.png,,,,,,,z,0,0.816,,,,,,,,0,46,46,80,1
,,,,,,,,,,,,,,,,,200020,19,2022-01-25_20h52.26.870,lexical_decision_task_DD_L6,2021.2.3,MacIntel,58.82352941,,,,,,,,,,,,0.758,0,,,,,,,,,,,,,,,,,,,,,,,,0.011724138,-0.356551724,0,0,0,,,,,,,CURRY,LB,old,y,./images/CURRYLB.png,,,,,,,m,0,0.758,,,,,,,,0,47,47,60,1
,,,,,,,,,,,,,,,,,200020,19,2022-01-25_20h52.26.870,lexical_decision_task_DD_L6,2021.2.3,MacIntel,58.82352941,,,,,,,,,,,,0.679,0,,,,,,,,,,,,,,,,,,,,,,,,0.011724138,-0.356551724,0,0,0,,,,,,,DOUGH,C,new,y,./images/DOUGH.png,,,,,,,z,0,0.679,,,,,,,,0,48,48,103,1
,,,,,,,,,,,,,,,,,200020,19,2022-01-25_20h52.26.870,lexical_decision_task_DD_L6,2021.2.3,MacIntel,58.82352941,,,,,,,,,,,,0.672,0,,,,,,,,,,,,,,,,,,,,,,,,0.011724138,-0.356551724,0,0,0,,,,,,,CRUMB,HB,new,y,./images/CRUMBHB.png,,,,,,,z,0,0.672,,,,,,,,0,49,49,113,1
,,,,,,,,,,,,,,,,,200020,19,2022-01-25_20h52.26.870,lexical_decision_task_DD_L6,2021.2.3,MacIntel,58.82352941,,,,,,,,,,,,0.823,0,,,,,,,,,,,,,,,,,,,,,,,,0.011724138,-0.356551724,0,0,0,,,,,,,TULIP,HB,new,y,./images/TULIPHB.png,,,,,,,z,0,0.823,,,,,,,,0,50,50,92,1
,,,,,,,,,,,,,,,,,200020,19,2022-01-25_20h52.26.870,lexical_decision_task_DD_L6,2021.2.3,MacIntel,58.82352941,,,,,,,,,,,,0.848,0,,,,,,,,,,,,,,,,,,,,,,,,0.011724138,-0.356551724,0,0,0,,,,,,,STAIN,LB,old,y,./images/STAINLB.png,,,,,,,m,0,0.848,,,,,,,,0,51,51,6,1
,,,,,,,,,,,,,,,,,200020,19,2022-01-25_20h52.26.870,lexical_decision_task_DD_L6,2021.2.3,MacIntel,58.82352941,,,,,,,,,,,,0.88,0,,,,,,,,,,,,,,,,,,,,,,,,0.011724138,-0.356551724,0,0,0,,,,,,,PEARL,C,new,y,./images/PEARL.png,,,,,,,z,0,0.88,,,,,,,,0,52,52,130,1
,,,,,,,,,,,,,,,,,200020,19,2022-01-25_20h52.26.870,lexical_decision_task_DD_L6,2021.2.3,MacIntel,58.82352941,,,,,,,,,,,,0.675,0,,,,,,,,,,,,,,,,,,,,,,,,0.011724138,-0.356551724,0,0,0,,,,,,,HOCKEY,HB,old,y,./images/HOCKEYHB.png,,,,,,,m,0,0.675,,,,,,,,0,53,53,32,1
,,,,,,,,,,,,,,,,,200020,19,2022-01-25_20h52.26.870,lexical_decision_task_DD_L6,2021.2.3,MacIntel,58.82352941,,,,,,,,,,,,0.606,0,,,,,,,,,,,,,,,,,,,,,,,,0.011724138,-0.356551724,0,0,0,,,,,,,MUMMY,C,old,y,./images/MUMMY.png,,,,,,,m,0,0.606,,,,,,,,0,54,54,46,1
,,,,,,,,,,,,,,,,,200020,19,2022-01-25_20h52.26.870,lexical_decision_task_DD_L6,2021.2.3,MacIntel,58.82352941,,,,,,,,,,,,0.794,0,,,,,,,,,,,,,,,,,,,,,,,,0.011724138,-0.356551724,0,0,0,,,,,,,BONNET,HB,new,y,./images/BONNETHB.png,,,,,,,z,0,0.794,,,,,,,,0,55,55,95,1
,,,,,,,,,,,,,,,,,200020,19,2022-01-25_20h52.26.870,lexical_decision_task_DD_L6,2021.2.3,MacIntel,58.82352941,,,,,,,,,,,,0.647,0,,,,,,,,,,,,,,,,,,,,,,,,0.011724138,-0.356551724,0,0,0,,,,,,,BANANA,C,old,y,./images/BANANA.png,,,,,,,m,0,0.647,,,,,,,,0,56,56,70,1
,,,,,,,,,,,,,,,,,200020,19,2022-01-25_20h52.26.870,lexical_decision_task_DD_L6,2021.2.3,MacIntel,58.82352941,,,,,,,,,,,,0.654,0,,,,,,,,,,,,,,,,,,,,,,,,0.011724138,-0.356551724,0,0,0,,,,,,,BASKET,HB,old,y,./images/BASKETHB.png,,,,,,,m,0,0.654,,,,,,,,0,57,57,44,1
,,,,,,,,,,,,,,,,,200020,19,2022-01-25_20h52.26.870,lexical_decision_task_DD_L6,2021.2.3,MacIntel,58.82352941,,,,,,,,,,,,0.697,0,,,,,,,,,,,,,,,,,,,,,,,,0.011724138,-0.356551724,0,0,0,,,,,,,ONION,LB,new,y,./images/ONIONLB.png,,,,,,,z,0,0.697,,,,,,,,0,58,58,135,1
,,,,,,,,,,,,,,,,,200020,19,2022-01-25_20h52.26.870,lexical_decision_task_DD_L6,2021.2.3,MacIntel,58.82352941,,,,,,,,,,,,0.699,0,,,,,,,,,,,,,,,,,,,,,,,,0.011724138,-0.356551724,0,0,0,,,,,,,LITTER,LB,new,y,./images/LITTERLB.png,,,,,,,z,0,0.699,,,,,,,,0,59,59,162,1
,,,,,,,,,,,,,,,,,200020,19,2022-01-25_20h52.26.870,lexical_decision_task_DD_L6,2021.2.3,MacIntel,58.82352941,,,,,,,,,,,,0.746,0,,,,,,,,,,,,,,,,,,,,,,,,0.011724138,-0.356551724,0,0,0,,,,,,,MIRROR,LB,new,y,./images/MIRRORLB.png,,,,,,,z,0,0.746,,,,,,,,0,60,60,147,1
,,,,,,,,,,,,,,,,,200020,19,2022-01-25_20h52.26.870,lexical_decision_task_DD_L6,2021.2.3,MacIntel,58.82352941,,,,,,,,,,,,0.772,0,,,,,,,,,,,,,,,,,,,,,,,,0.011724138,-0.356551724,0,0,0,,,,,,,WALNUT,LB,old,y,./images/WALNUTLB.png,,,,,,,m,0,0.772,,,,,,,,0,61,61,0,1
,,,,,,,,,,,,,,,,,200020,19,2022-01-25_20h52.26.870,lexical_decision_task_DD_L6,2021.2.3,MacIntel,58.82352941,,,,,,,,,,,,0.764,0,,,,,,,,,,,,,,,,,,,,,,,,0.011724138,-0.356551724,0,0,0,,,,,,,MALLET,HB,new,y,./images/MALLETHB.png,,,,,,,z,0,0.764,,,,,,,,0,62,62,134,1
,,,,,,,,,,,,,,,,,200020,19,2022-01-25_20h52.26.870,lexical_decision_task_DD_L6,2021.2.3,MacIntel,58.82352941,,,,,,,,,,,,0.765,0,,,,,,,,,,,,,,,,,,,,,,,,0.011724138,-0.356551724,0,0,0,,,,,,,URINE,C,new,y,./images/URINE.png,,,,,,,z,0,0.765,,,,,,,,0,63,63,154,1
,,,,,,,,,,,,,,,,,200020,19,2022-01-25_20h52.26.870,lexical_decision_task_DD_L6,2021.2.3,MacIntel,58.82352941,,,,,,,,,,,,0.791,0,,,,,,,,,,,,,,,,,,,,,,,,0.011724138,-0.356551724,0,0,0,,,,,,,LADDER,HB,new,y,./images/LADDERHB.png,,,,,,,z,0,0.791,,,,,,,,0,64,64,122,1
,,,,,,,,,,,,,,,,,200020,19,2022-01-25_20h52.26.870,lexical_decision_task_DD_L6,2021.2.3,MacIntel,58.82352941,,,,,,,,,,,,0.865,0,,,,,,,,,,,,,,,,,,,,,,,,0.011724138,-0.356551724,0,0,0,,,,,,,FALCON,C,new,y,./images/FALCON.png,,,,,,,m,0,0.865,,,,,,,,0,65,65,112,1
,,,,,,,,,,,,,,,,,200020,19,2022-01-25_20h52.26.870,lexical_decision_task_DD_L6,2021.2.3,MacIntel,58.82352941,,,,,,,,,,,,0.62,0,,,,,,,,,,,,,,,,,,,,,,,,0.011724138,-0.356551724,0,0,0,,,,,,,RAZOR,C,old,y,./images/RAZOR.png,,,,,,,z,0,0.62,,,,,,,,0,66,66,34,1
,,,,,,,,,,,,,,,,,200020,19,2022-01-25_20h52.26.870,lexical_decision_task_DD_L6,2021.2.3,MacIntel,58.82352941,,,,,,,,,,,,0.84,0,,,,,,,,,,,,,,,,,,,,,,,,0.011724138,-0.356551724,0,0,0,,,,,,,CHAIN,LB,old,y,./images/CHAINLB.png,,,,,,,z,0,0.84,,,,,,,,0,67,67,42,1
,,,,,,,,,,,,,,,,,200020,19,2022-01-25_20h52.26.870,lexical_decision_task_DD_L6,2021.2.3,MacIntel,58.82352941,,,,,,,,,,,,1.042,0,,,,,,,,,,,,,,,,,,,,,,,,0.011724138,-0.356551724,0,0,0,,,,,,,GREASE,LB,new,y,./images/GREASELB.png,,,,,,,m,0,1.042,,,,,,,,0,68,68,99,1
,,,,,,,,,,,,,,,,,200020,19,2022-01-25_20h52.26.870,lexical_decision_task_DD_L6,2021.2.3,MacIntel,58.82352941,,,,,,,,,,,,0.648,0,,,,,,,,,,,,,,,,,,,,,,,,0.011724138,-0.356551724,0,0,0,,,,,,,CLOWN,C,old,y,./images/CLOWN.png,,,,,,,m,0,0.648,,,,,,,,0,69,69,22,1
,,,,,,,,,,,,,,,,,200020,19,2022-01-25_20h52.26.870,lexical_decision_task_DD_L6,2021.2.3,MacIntel,58.82352941,,,,,,,,,,,,0.673,0,,,,,,,,,,,,,,,,,,,,,,,,0.011724138,-0.356551724,0,0,0,,,,,,,BARREL,HB,new,y,./images/BARRELHB.png,,,,,,,m,0,0.673,,,,,,,,0,70,70,116,1
,,,,,,,,,,,,,,,,,200020,19,2022-01-25_20h52.26.870,lexical_decision_task_DD_L6,2021.2.3,MacIntel,58.82352941,,,,,,,,,,,,0.888,0,,,,,,,,,,,,,,,,,,,,,,,,0.011724138,-0.356551724,0,0,0,,,,,,,COLLAR,LB,old,y,./images/COLLARLB.png,,,,,,,m,0,0.888,,,,,,,,0,71,71,15,1
,,,,,,,,,,,,,,,,,200020,19,2022-01-25_20h52.26.870,lexical_decision_task_DD_L6,2021.2.3,MacIntel,58.82352941,,,,,,,,,,,,0.765,0,,,,,,,,,,,,,,,,,,,,,,,,0.011724138,-0.356551724,0,0,0,,,,,,,GRAIN,LB,new,y,./images/GRAINLB.png,,,,,,,z,0,0.765,,,,,,,,0,72,72,159,1
,,,,,,,,,,,,,,,,,200020,19,2022-01-25_20h52.26.870,lexical_decision_task_DD_L6,2021.2.3,MacIntel,58.82352941,,,,,,,,,,,,0.811,0,,,,,,,,,,,,,,,,,,,,,,,,0.011724138,-0.356551724,0,0,0,,,,,,,POODLE,LB,new,y,./images/POODLELB.png,,,,,,,z,0,0.811,,,,,,,,0,73,73,165,1
,,,,,,,,,,,,,,,,,200020,19,2022-01-25_20h52.26.870,lexical_decision_task_DD_L6,2021.2.3,MacIntel,58.82352941,,,,,,,,,,,,0.706,0,,,,,,,,,,,,,,,,,,,,,,,,0.011724138,-0.356551724,0,0,0,,,,,,,STOVE,HB,old,y,./images/STOVEHB.png,,,,,,,m,0,0.706,,,,,,,,0,74,74,2,1
,,,,,,,,,,,,,,,,,200020,19,2022-01-25_20h52.26.870,lexical_decision_task_DD_L6,2021.2.3,MacIntel,58.82352941,,,,,,,,,,,,0.694,0,,,,,,,,,,,,,,,,,,,,,,,,0.011724138,-0.356551724,0,0,0,,,,,,,GARDEN,C,old,y,./images/GARDEN.png,,,,,,,m,0,0.694,,,,,,,,0,75,75,10,1
,,,,,,,,,,,,,,,,,200020,19,2022-01-25_20h52.26.870,lexical_decision_task_DD_L6,2021.2.3,MacIntel,58.82352941,,,,,,,,,,,,0.639,0,,,,,,,,,,,,,,,,,,,,,,,,0.011724138,-0.356551724,0,0,0,,,,,,,BISHOP,C,old,y,./images/BISHOP.png,,,,,,,m,0,0.639,,,,,,,,0,76,76,49,1
,,,,,,,,,,,,,,,,,200020,19,2022-01-25_20h52.26.870,lexical_decision_task_DD_L6,2021.2.3,MacIntel,58.82352941,,,,,,,,,,,,0.812,0,,,,,,,,,,,,,,,,,,,,,,,,0.011724138,-0.356551724,0,0,0,,,,,,,SNACK,C,new,y,./images/SNACK.png,,,,,,,z,0,0.812,,,,,,,,0,77,77,157,1
,,,,,,,,,,,,,,,,,200020,19,2022-01-25_20h52.26.870,lexical_decision_task_DD_L6,2021.2.3,MacIntel,58.82352941,,,,,,,,,,,,0.638,0,,,,,,,,,,,,,,,,,,,,,,,,0.011724138,-0.356551724,0,0,0,,,,,,,TOMATO,LB,new,y,./images/TOMATOLB.png,,,,,,,z,0,0.638,,,,,,,,0,78,78,84,1
,,,,,,,,,,,,,,,,,200020,19,2022-01-25_20h52.26.870,lexical_decision_task_DD_L6,2021.2.3,MacIntel,58.82352941,,,,,,,,,,,,0.612,0,,,,,,,,,,,,,,,,,,,,,,,,0.011724138,-0.356551724,0,0,0,,,,,,,ATTIC,LB,new,y,./images/ATTICLB.png,,,,,,,z,0,0.612,,,,,,,,0,79,79,111,1
,,,,,,,,,,,,,,,,,200020,19,2022-01-25_20h52.26.870,lexical_decision_task_DD_L6,2021.2.3,MacIntel,58.82352941,,,,,,,,,,,,0.689,0,,,,,,,,,,,,,,,,,,,,,,,,0.011724138,-0.356551724,0,0,0,,,,,,,CASINO,C,old,y,./images/CASINO.png,,,,,,,m,0,0.689,,,,,,,,0,80,80,28,1
,,,,,,,,,,,,,,,,,200020,19,2022-01-25_20h52.26.870,lexical_decision_task_DD_L6,2021.2.3,MacIntel,58.82352941,,,,,,,,,,,,0.804,0,,,,,,,,,,,,,,,,,,,,,,,,0.011724138,-0.356551724,0,0,0,,,,,,,PEBBLE,C,old,y,./images/PEBBLE.png,,,,,,,m,0,0.804,,,,,,,,0,81,81,82,1
,,,,,,,,,,,,,,,,,200020,19,2022-01-25_20h52.26.870,lexical_decision_task_DD_L6,2021.2.3,MacIntel,58.82352941,,,,,,,,,,,,0.754,0,,,,,,,,,,,,,,,,,,,,,,,,0.011724138,-0.356551724,0,0,0,,,,,,,CANYON,C,new,y,./images/CANYON.png,,,,,,,z,0,0.754,,,,,,,,0,82,82,118,1
,,,,,,,,,,,,,,,,,200020,19,2022-01-25_20h52.26.870,lexical_decision_task_DD_L6,2021.2.3,MacIntel,58.82352941,,,,,,,,,,,,0.777,0,,,,,,,,,,,,,,,,,,,,,,,,0.011724138,-0.356551724,0,0,0,space,,,,,,QUILL,C,new,y,./images/QUILL.png,23.097,,,,,,z,0,0.777,,,,,,,,0,83,83,115,1
,,,,,,,,,,,,,,,,,200020,19,2022-01-25_20h52.26.870,lexical_decision_task_DD_L6,2021.2.3,MacIntel,58.82352941,,,,,,,,,,,,0.571,0,,,,,,,,,,,,,,,,,,,,,,,,0.011724138,-0.356551724,0,0,0,,,,,,,BROOM,LB,old,y,./images/BROOMLB.png,,,,,,,m,0,0.571,,,,,,,,0,84,84,78,1
,,,,,,,,,,,,,,,,,200020,19,2022-01-25_20h52.26.870,lexical_decision_task_DD_L6,2021.2.3,MacIntel,58.82352941,,,,,,,,,,,,0.792,0,,,,,,,,,,,,,,,,,,,,,,,,0.011724138,-0.356551724,0,0,0,,,,,,,BELLY,C,new,y,./images/BELLY.png,,,,,,,z,0,0.792,,,,,,,,0,85,85,94,1
,,,,,,,,,,,,,,,,,200020,19,2022-01-25_20h52.26.870,lexical_decision_task_DD_L6,2021.2.3,MacIntel,58.82352941,,,,,,,,,,,,0.773,0,,,,,,,,,,,,,,,,,,,,,,,,0.011724138,-0.356551724,0,0,0,,,,,,,JAGUAR,LB,new,y,./images/JAGUARLB.png,,,,,,,z,0,0.773,,,,,,,,0,86,86,102,1
,,,,,,,,,,,,,,,,,200020,19,2022-01-25_20h52.26.870,lexical_decision_task_DD_L6,2021.2.3,MacIntel,58.82352941,,,,,,,,,,,,0.691,0,,,,,,,,,,,,,,,,,,,,,,,,0.011724138,-0.356551724,0,0,0,,,,,,,SAUCE,LB,old,y,./images/SAUCELB.png,,,,,,,m,0,0.691,,,,,,,,0,87,87,51,1
,,,,,,,,,,,,,,,,,200020,19,2022-01-25_20h52.26.870,lexical_decision_task_DD_L6,2021.2.3,MacIntel,58.82352941,,,,,,,,,,,,0.525,0,,,,,,,,,,,,,,,,,,,,,,,,0.011724138,-0.356551724,0,0,0,,,,,,,CHERRY,LB,old,y,./images/CHERRYLB.png,,,,,,,m,0,0.525,,,,,,,,0,88,88,54,1
,,,,,,,,,,,,,,,,,200020,19,2022-01-25_20h52.26.870,lexical_decision_task_DD_L6,2021.2.3,MacIntel,58.82352941,,,,,,,,,,,,0.707,0,,,,,,,,,,,,,,,,,,,,,,,,0.011724138,-0.356551724,0,0,0,,,,,,,COOKER,LB,new,y,./images/COOKERLB.png,,,,,,,z,0,0.707,,,,,,,,0,89,89,153,1
,,,,,,,,,,,,,,,,,200020,19,2022-01-25_20h52.26.870,lexical_decision_task_DD_L6,2021.2.3,MacIntel,58.82352941,,,,,,,,,,,,0.579,0,,,,,,,,,,,,,,,,,,,,,,,,0.011724138,-0.356551724,0,0,0,,,,,,,ALLEY,C,old,y,./images/ALLEY.png,,,,,,,z,0,0.579,,,,,,,,0,90,90,55,1
,,,,,,,,,,,,,,,,,200020,19,2022-01-25_20h52.26.870,lexical_decision_task_DD_L6,2021.2.3,MacIntel,58.82352941,,,,,,,,,,,,0.792,0,,,,,,,,,,,,,,,,,,,,,,,,0.011724138,-0.356551724,0,0,0,,,,,,,LAGOON,HB,old,y,./images/LAGOONHB.png,,,,,,,z,0,0.792,,,,,,,,0,91,91,47,1
,,,,,,,,,,,,,,,,,200020,19,2022-01-25_20h52.26.870,lexical_decision_task_DD_L6,2021.2.3,MacIntel,58.82352941,,,,,,,,,,,,0.709,0,,,,,,,,,,,,,,,,,,,,,,,,0.011724138,-0.356551724,0,0,0,,,,,,,COUCH,HB,new,y,./images/COUCHHB.png,,,,,,,z,0,0.709,,,,,,,,0,92,92,161,1
,,,,,,,,,,,,,,,,,200020,19,2022-01-25_20h52.26.870,lexical_decision_task_DD_L6,2021.2.3,MacIntel,58.82352941,,,,,,,,,,,,0.641,0,,,,,,,,,,,,,,,,,,,,,,,,0.011724138,-0.356551724,0,0,0,,,,,,,BRUSH,HB,old,y,./images/BRUSHHB.png,,,,,,,m,0,0.641,,,,,,,,0,93,93,59,1
,,,,,,,,,,,,,,,,,200020,19,2022-01-25_20h52.26.870,lexical_decision_task_DD_L6,2021.2.3,MacIntel,58.82352941,,,,,,,,,,,,0.85,0,,,,,,,,,,,,,,,,,,,,,,,,0.011724138,-0.356551724,0,0,0,,,,,,,FLESH,LB,old,y,./images/FLESHLB.png,,,,,,,m,0,0.85,,,,,,,,0,94,94,24,1
,,,,,,,,,,,,,,,,,200020,19,2022-01-25_20h52.26.870,lexical_decision_task_DD_L6,2021.2.3,MacIntel,58.82352941,,,,,,,,,,,,0.658,0,,,,,,,,,,,,,,,,,,,,,,,,0.011724138,-0.356551724,0,0,0,,,,,,,MOTOR,C,new,y,./images/MOTOR.png,,,,,,,z,0,0.658,,,,,,,,0,95,95,97,1
,,,,,,,,,,,,,,,,,200020,19,2022-01-25_20h52.26.870,lexical_decision_task_DD_L6,2021.2.3,MacIntel,58.82352941,,,,,,,,,,,,0.713,0,,,,,,,,,,,,,,,,,,,,,,,,0.011724138,-0.356551724,0,0,0,,,,,,,STOOL,C,old,y,./images/STOOL.png,,,,,,,z,0,0.713,,,,,,,,0,96,96,43,1
,,,,,,,,,,,,,,,,,200020,19,2022-01-25_20h52.26.870,lexical_decision_task_DD_L6,2021.2.3,MacIntel,58.82352941,,,,,,,,,,,,0.808,0,,,,,,,,,,,,,,,,,,,,,,,,0.011724138,-0.356551724,0,0,0,,,,,,,KIDNEY,LB,new,y,./images/KIDNEYLB.png,,,,,,,z,0,0.808,,,,,,,,0,97,97,105,1
,,,,,,,,,,,,,,,,,200020,19,2022-01-25_20h52.26.870,lexical_decision_task_DD_L6,2021.2.3,MacIntel,58.82352941,,,,,,,,,,,,0.839,0,,,,,,,,,,,,,,,,,,,,,,,,0.011724138,-0.356551724,0,0,0,,,,,,,PARCEL,LB,old,y,./images/PARCELLB.png,,,,,,,m,0,0.839,,,,,,,,0,98,98,18,1
,,,,,,,,,,,,,,,,,200020,19,2022-01-25_20h52.26.870,lexical_decision_task_DD_L6,2021.2.3,MacIntel,58.82352941,,,,,,,,,,,,0.827,0,,,,,,,,,,,,,,,,,,,,,,,,0.011724138,-0.356551724,0,0,0,,,,,,,BABOON,C,new,y,./images/BABOON.png,,,,,,,z,0,0.827,,,,,,,,0,99,99,142,1
,,,,,,,,,,,,,,,,,200020,19,2022-01-25_20h52.26.870,lexical_decision_task_DD_L6,2021.2.3,MacIntel,58.82352941,,,,,,,,,,,,0.847,0,,,,,,,,,,,,,,,,,,,,,,,,0.011724138,-0.356551724,0,0,0,,,,,,,PEACH,HB,new,y,./images/PEACHHB.png,,,,,,,z,0,0.847,,,,,,,,0,100,100,119,1
,,,,,,,,,,,,,,,,,200020,19,2022-01-25_20h52.26.870,lexical_decision_task_DD_L6,2021.2.3,MacIntel,58.82352941,,,,,,,,,,,,0.767,0,,,,,,,,,,,,,,,,,,,,,,,,0.011724138,-0.356551724,0,0,0,,,,,,,SQUARE,LB,new,y,./images/SQUARELB.png,,,,,,,z,0,0.767,,,,,,,,0,101,101,90,1
,,,,,,,,,,,,,,,,,200020,19,2022-01-25_20h52.26.870,lexical_decision_task_DD_L6,2021.2.3,MacIntel,58.82352941,,,,,,,,,,,,0.647,0,,,,,,,,,,,,,,,,,,,,,,,,0.011724138,-0.356551724,0,0,0,,,,,,,BOILER,LB,old,y,./images/BOILERLB.png,,,,,,,m,0,0.647,,,,,,,,0,102,102,36,1
,,,,,,,,,,,,,,,,,200020,19,2022-01-25_20h52.26.870,lexical_decision_task_DD_L6,2021.2.3,MacIntel,58.82352941,,,,,,,,,,,,0.708,0,,,,,,,,,,,,,,,,,,,,,,,,0.011724138,-0.356551724,0,0,0,,,,,,,BAMBOO,HB,old,y,./images/BAMBOOHB.png,,,,,,,m,0,0.708,,,,,,,,0,103,103,5,1
,,,,,,,,,,,,,,,,,200020,19,2022-01-25_20h52.26.870,lexical_decision_task_DD_L6,2021.2.3,MacIntel,58.82352941,,,,,,,,,,,,0.707,0,,,,,,,,,,,,,,,,,,,,,,,,0.011724138,-0.356551724,0,0,0,,,,,,,ARROW,LB,old,y,./images/ARROWLB.png,,,,,,,m,0,0.707,,,,,,,,0,104,104,69,1
,,,,,,,,,,,,,,,,,200020,19,2022-01-25_20h52.26.870,lexical_decision_task_DD_L6,2021.2.3,MacIntel,58.82352941,,,,,,,,,,,,0.806,0,,,,,,,,,,,,,,,,,,,,,,,,0.011724138,-0.356551724,0,0,0,,,,,,,SKIING,HB,new,y,./images/SKIINGHB.png,,,,,,,z,0,0.806,,,,,,,,0,105,105,101,1
,,,,,,,,,,,,,,,,,200020,19,2022-01-25_20h52.26.870,lexical_decision_task_DD_L6,2021.2.3,MacIntel,58.82352941,,,,,,,,,,,,0.689,0,,,,,,,,,,,,,,,,,,,,,,,,0.011724138,-0.356551724,0,0,0,,,,,,,THROAT,LB,new,y,./images/THROATLB.png,,,,,,,z,0,0.689,,,,,,,,0,106,106,120,1
,,,,,,,,,,,,,,,,,200020,19,2022-01-25_20h52.26.870,lexical_decision_task_DD_L6,2021.2.3,MacIntel,58.82352941,,,,,,,,,,,,0.596,0,,,,,,,,,,,,,,,,,,,,,,,,0.011724138,-0.356551724,0,0,0,,,,,,,FARMER,HB,new,y,./images/FARMERHB.png,,,,,,,z,0,0.596,,,,,,,,0,107,107,149,1
,,,,,,,,,,,,,,,,,200020,19,2022-01-25_20h52.26.870,lexical_decision_task_DD_L6,2021.2.3,MacIntel,58.82352941,,,,,,,,,,,,0.765,0,,,,,,,,,,,,,,,,,,,,,,,,0.011724138,-0.356551724,0,0,0,,,,,,,MAGGOT,LB,new,y,./images/MAGGOTLB.png,,,,,,,z,0,0.765,,,,,,,,0,108,108,117,1
,,,,,,,,,,,,,,,,,200020,19,2022-01-25_20h52.26.870,lexical_decision_task_DD_L6,2021.2.3,MacIntel,58.82352941,,,,,,,,,,,,0.822,0,,,,,,,,,,,,,,,,,,,,,,,,0.011724138,-0.356551724,0,0,0,,,,,,,FERRY,LB,old,y,./images/FERRYLB.png,,,,,,,z,0,0.822,,,,,,,,0,109,109,57,1
,,,,,,,,,,,,,,,,,200020,19,2022-01-25_20h52.26.870,lexical_decision_task_DD_L6,2021.2.3,MacIntel,58.82352941,,,,,,,,,,,,0.926,0,,,,,,,,,,,,,,,,,,,,,,,,0.011724138,-0.356551724,0,0,0,,,,,,,BURIAL,HB,new,y,./images/BURIALHB.png,,,,,,,z,0,0.926,,,,,,,,0,110,110,143,1
,,,,,,,,,,,,,,,,,200020,19,2022-01-25_20h52.26.870,lexical_decision_task_DD_L6,2021.2.3,MacIntel,58.82352941,,,,,,,,,,,,0.982,0,,,,,,,,,,,,,,,,,,,,,,,,0.011724138,-0.356551724,0,0,0,,,,,,,PURSE,HB,new,y,./images/PURSEHB.png,,,,,,,m,0,0.982,,,,,,,,0,111,111,146,1
,,,,,,,,,,,,,,,,,200020,19,2022-01-25_20h52.26.870,lexical_decision_task_DD_L6,2021.2.3,MacIntel,58.82352941,,,,,,,,,,,,0.724,0,,,,,,,,,,,,,,,,,,,,,,,,0.011724138,-0.356551724,0,0,0,,,,,,,PASTA,HB,new,y,./images/PASTAHB.png,,,,,,,z,0,0.724,,,,,,,,0,112,112,89,1
,,,,,,,,,,,,,,,,,200020,19,2022-01-25_20h52.26.870,lexical_decision_task_DD_L6,2021.2.3,MacIntel,58.82352941,,,,,,,,,,,,0.698,0,,,,,,,,,,,,,,,,,,,,,,,,0.011724138,-0.356551724,0,0,0,,,,,,,SAILOR,C,new,y,./images/SAILOR.png,,,,,,,z,0,0.698,,,,,,,,0,113,113,151,1
,,,,,,,,,,,,,,,,,200020,19,2022-01-25_20h52.26.870,lexical_decision_task_DD_L6,2021.2.3,MacIntel,58.82352941,,,,,,,,,,,,0.966,0,,,,,,,,,,,,,,,,,,,,,,,,0.011724138,-0.356551724,0,0,0,,,,,,,MEDAL,HB,old,y,./images/MEDALHB.png,,,,,,,m,0,0.966,,,,,,,,0,114,114,11,1
,,,,,,,,,,,,,,,,,200020,19,2022-01-25_20h52.26.870,lexical_decision_task_DD_L6,2021.2.3,MacIntel,58.82352941,,,,,,,,,,,,0.587,0,,,,,,,,,,,,,,,,,,,,,,,,0.011724138,-0.356551724,0,0,0,,,,,,,TWINS,LB,new,y,./images/TWINSLB.png,,,,,,,z,0,0.587,,,,,,,,0,115,115,144,1
,,,,,,,,,,,,,,,,,200020,19,2022-01-25_20h52.26.870,lexical_decision_task_DD_L6,2021.2.3,MacIntel,58.82352941,,,,,,,,,,,,0.795,0,,,,,,,,,,,,,,,,,,,,,,,,0.011724138,-0.356551724,0,0,0,,,,,,,ARTIST,C,old,y,./images/ARTIST.png,,,,,,,z,0,0.795,,,,,,,,0,116,116,61,1
,,,,,,,,,,,,,,,,,200020,19,2022-01-25_20h52.26.870,lexical_decision_task_DD_L6,2021.2.3,MacIntel,58.82352941,,,,,,,,,,,,0.854,0,,,,,,,,,,,,,,,,,,,,,,,,0.011724138,-0.356551724,0,0,0,,,,,,,BERRY,HB,new,y,./images/BERRYHB.png,,,,,,,z,0,0.854,,,,,,,,0,117,117,131,1
,,,,,,,,,,,,,,,,,200020,19,2022-01-25_20h52.26.870,lexical_decision_task_DD_L6,2021.2.3,MacIntel,58.82352941,,,,,,,,,,,,0.592,0,,,,,,,,,,,,,,,,,,,,,,,,0.011724138,-0.356551724,0,0,0,,,,,,,NOOSE,LB,new,y,./images/NOOSELB.png,,,,,,,z,0,0.592,,,,,,,,0,118,118,156,1
,,,,,,,,,,,,,,,,,200020,19,2022-01-25_20h52.26.870,lexical_decision_task_DD_L6,2021.2.3,MacIntel,58.82352941,,,,,,,,,,,,0.658,0,,,,,,,,,,,,,,,,,,,,,,,,0.011724138,-0.356551724,0,0,0,,,,,,,RHINO,LB,new,y,./images/RHINOLB.png,,,,,,,z,0,0.658,,,,,,,,0,119,119,93,1
,,,,,,,,,,,,,,,,,200020,19,2022-01-25_20h52.26.870,lexical_decision_task_DD_L6,2021.2.3,MacIntel,58.82352941,,,,,,,,,,,,0.779,0,,,,,,,,,,,,,,,,,,,,,,,,0.011724138,-0.356551724,0,0,0,,,,,,,MOOSE,LB,new,y,./images/MOOSELB.png,,,,,,,z,0,0.779,,,,,,,,0,120,120,141,1
,,,,,,,,,,,,,,,,,200020,19,2022-01-25_20h52.26.870,lexical_decision_task_DD_L6,2021.2.3,MacIntel,58.82352941,,,,,,,,,,,,0.881,0,,,,,,,,,,,,,,,,,,,,,,,,0.011724138,-0.356551724,0,0,0,,,,,,,PLANK,C,new,y,./images/PLANK.png,,,,,,,m,0,0.881,,,,,,,,0,121,121,85,1
,,,,,,,,,,,,,,,,,200020,19,2022-01-25_20h52.26.870,lexical_decision_task_DD_L6,2021.2.3,MacIntel,58.82352941,,,,,,,,,,,,0.782,0,,,,,,,,,,,,,,,,,,,,,,,,0.011724138,-0.356551724,0,0,0,,,,,,,BEARD,HB,new,y,./images/BEARDHB.png,,,,,,,z,0,0.782,,,,,,,,0,122,122,86,1
,,,,,,,,,,,,,,,,,200020,19,2022-01-25_20h52.26.870,lexical_decision_task_DD_L6,2021.2.3,MacIntel,58.82352941,,,,,,,,,,,,0.988,0,,,,,,,,,,,,,,,,,,,,,,,,0.011724138,-0.356551724,0,0,0,,,,,,,PACKET,HB,new,y,./images/PACKETHB.png,,,,,,,z,0,0.988,,,,,,,,0,123,123,140,1
,,,,,,,,,,,,,,,,,200020,19,2022-01-25_20h52.26.870,lexical_decision_task_DD_L6,2021.2.3,MacIntel,58.82352941,,,,,,,,,,,,0.957,0,,,,,,,,,,,,,,,,,,,,,,,,0.011724138,-0.356551724,0,0,0,,,,,,,MONKEY,LB,old,y,./images/MONKEYLB.png,,,,,,,z,0,0.957,,,,,,,,0,124,124,45,1
,,,,,,,,,,,,,,,,,200020,19,2022-01-25_20h52.26.870,lexical_decision_task_DD_L6,2021.2.3,MacIntel,58.82352941,,,,,,,,,,,,0.749,0,,,,,,,,,,,,,,,,,,,,,,,,0.011724138,-0.356551724,0,0,0,space,,,,,,ENGINE,HB,old,y,./images/ENGINEHB.png,1.528,,,,,,z,0,0.749,,,,,,,,0,125,125,38,1
,,,,,,,,,,,,,,,,,200020,19,2022-01-25_20h52.26.870,lexical_decision_task_DD_L6,2021.2.3,MacIntel,58.82352941,,,,,,,,,,,,1.029,0,,,,,,,,,,,,,,,,,,,,,,,,0.011724138,-0.356551724,0,0,0,,,,,,,PARADE,HB,old,y,./images/PARADEHB.png,,,,,,,z,0,1.029,,,,,,,,0,126,126,17,1
,,,,,,,,,,,,,,,,,200020,19,2022-01-25_20h52.26.870,lexical_decision_task_DD_L6,2021.2.3,MacIntel,58.82352941,,,,,,,,,,,,0.772,0,,,,,,,,,,,,,,,,,,,,,,,,0.011724138,-0.356551724,0,0,0,,,,,,,HAMMER,LB,old,y,./images/HAMMERLB.png,,,,,,,m,0,0.772,,,,,,,,0,127,127,75,1
,,,,,,,,,,,,,,,,,200020,19,2022-01-25_20h52.26.870,lexical_decision_task_DD_L6,2021.2.3,MacIntel,58.82352941,,,,,,,,,,,,0.662,0,,,,,,,,,,,,,,,,,,,,,,,,0.011724138,-0.356551724,0,0,0,,,,,,,BAKER,LB,old,y,./images/BAKERLB.png,,,,,,,m,0,0.662,,,,,,,,0,128,128,63,1
,,,,,,,,,,,,,,,,,200020,19,2022-01-25_20h52.26.870,lexical_decision_task_DD_L6,2021.2.3,MacIntel,58.82352941,,,,,,,,,,,,0.708,0,,,,,,,,,,,,,,,,,,,,,,,,0.011724138,-0.356551724,0,0,0,,,,,,,SAUNA,LB,old,y,./images/SAUNALB.png,,,,,,,z,0,0.708,,,,,,,,0,129,129,33,1
,,,,,,,,,,,,,,,,,200020,19,2022-01-25_20h52.26.870,lexical_decision_task_DD_L6,2021.2.3,MacIntel,58.82352941,,,,,,,,,,,,0.729,0,,,,,,,,,,,,,,,,,,,,,,,,0.011724138,-0.356551724,0,0,0,,,,,,,SLOPE,LB,old,y,./images/SLOPELB.png,,,,,,,m,0,0.729,,,,,,,,0,130,130,30,1
,,,,,,,,,,,,,,,,,200020,19,2022-01-25_20h52.26.870,lexical_decision_task_DD_L6,2021.2.3,MacIntel,58.82352941,,,,,,,,,,,,0.774,0,,,,,,,,,,,,,,,,,,,,,,,,0.011724138,-0.356551724,0,0,0,,,,,,,MIDGET,C,old,y,./images/MIDGET.png,,,,,,,m,0,0.774,,,,,,,,0,131,131,76,1
,,,,,,,,,,,,,,,,,200020,19,2022-01-25_20h52.26.870,lexical_decision_task_DD_L6,2021.2.3,MacIntel,58.82352941,,,,,,,,,,,,0.592,0,,,,,,,,,,,,,,,,,,,,,,,,0.011724138,-0.356551724,0,0,0,,,,,,,BUBBLE,HB,old,y,./images/BUBBLEHB.png,,,,,,,m,0,0.592,,,,,,,,0,132,132,71,1
,,,,,,,,,,,,,,,,,200020,19,2022-01-25_20h52.26.870,lexical_decision_task_DD_L6,2021.2.3,MacIntel,58.82352941,,,,,,,,,,,,0.772,0,,,,,,,,,,,,,,,,,,,,,,,,0.011724138,-0.356551724,0,0,0,,,,,,,CRATER,LB,old,y,./images/CRATERLB.png,,,,,,,m,0,0.772,,,,,,,,0,133,133,3,1
,,,,,,,,,,,,,,,,,200020,19,2022-01-25_20h52.26.870,lexical_decision_task_DD_L6,2021.2.3,MacIntel,58.82352941,,,,,,,,,,,,0.688,0,,,,,,,,,,,,,,,,,,,,,,,,0.011724138,-0.356551724,0,0,0,,,,,,,STEAK,C,old,y,./images/STEAK.png,,,,,,,m,0,0.688,,,,,,,,0,134,134,31,1
,,,,,,,,,,,,,,,,,200020,19,2022-01-25_20h52.26.870,lexical_decision_task_DD_L6,2021.2.3,MacIntel,58.82352941,,,,,,,,,,,,0.716,0,,,,,,,,,,,,,,,,,,,,,,,,0.011724138,-0.356551724,0,0,0,,,,,,,DRILL,LB,old,y,./images/DRILLLB.png,,,,,,,m,0,0.716,,,,,,,,0,135,135,81,1
,,,,,,,,,,,,,,,,,200020,19,2022-01-25_20h52.26.870,lexical_decision_task_DD_L6,2021.2.3,MacIntel,58.82352941,,,,,,,,,,,,1.02,0,,,,,,,,,,,,,,,,,,,,,,,,0.011724138,-0.356551724,0,0,0,,,,,,,BANNER,C,new,y,./images/BANNER.png,,,,,,,z,0,1.02,,,,,,,,0,136,136,136,1
,,,,,,,,,,,,,,,,,200020,19,2022-01-25_20h52.26.870,lexical_decision_task_DD_L6,2021.2.3,MacIntel,58.82352941,,,,,,,,,,,,0.638,0,,,,,,,,,,,,,,,,,,,,,,,,0.011724138,-0.356551724,0,0,0,,,,,,,RULER,C,old,y,./images/RULER.png,,,,,,,m,0,0.638,,,,,,,,0,137,137,79,1
,,,,,,,,,,,,,,,,,200020,19,2022-01-25_20h52.26.870,lexical_decision_task_DD_L6,2021.2.3,MacIntel,58.82352941,,,,,,,,,,,,0.717,0,,,,,,,,,,,,,,,,,,,,,,,,0.011724138,-0.356551724,0,0,0,,,,,,,LIZARD,HB,new,y,./images/LIZARDHB.png,,,,,,,z,0,0.717,,,,,,,,0,138,138,128,1
,,,,,,,,,,,,,,,,,200020,19,2022-01-25_20h52.26.870,lexical_decision_task_DD_L6,2021.2.3,MacIntel,58.82352941,,,,,,,,,,,,0.824,0,,,,,,,,,,,,,,,,,,,,,,,,0.011724138,-0.356551724,0,0,0,,,,,,,SUNSET,C,new,y,./images/SUNSET.png,,,,,,,z,0,0.824,,,,,,,,0,139,139,166,1
,,,,,,,,,,,,,,,,,200020,19,2022-01-25_20h52.26.870,lexical_decision_task_DD_L6,2021.2.3,MacIntel,58.82352941,,,,,,,,,,,,0.597,0,,,,,,,,,,,,,,,,,,,,,,,,0.011724138,-0.356551724,0,0,0,,,,,,,PAINT,C,new,y,./images/PAINT.png,,,,,,,z,0,0.597,,,,,,,,0,140,140,91,1
,,,,,,,,,,,,,,,,,200020,19,2022-01-25_20h52.26.870,lexical_decision_task_DD_L6,2021.2.3,MacIntel,58.82352941,,,,,,,,,,,,0.739,0,,,,,,,,,,,,,,,,,,,,,,,,0.011724138,-0.356551724,0,0,0,,,,,,,CEMENT,HB,new,y,./images/CEMENTHB.png,,,,,,,z,0,0.739,,,,,,,,0,141,141,158,1
,,,,,,,,,,,,,,,,,200020,19,2022-01-25_20h52.26.870,lexical_decision_task_DD_L6,2021.2.3,MacIntel,58.82352941,,,,,,,,,,,,0.713,0,,,,,,,,,,,,,,,,,,,,,,,,0.011724138,-0.356551724,0,0,0,,,,,,,BOXER,C,old,y,./images/BOXER.png,,,,,,,z,0,0.713,,,,,,,,0,142,142,4,1
,,,,,,,,,,,,,,,,,200020,19,2022-01-25_20h52.26.870,lexical_decision_task_DD_L6,2021.2.3,MacIntel,58.82352941,,,,,,,,,,,,0.694,0,,,,,,,,,,,,,,,,,,,,,,,,0.011724138,-0.356551724,0,0,0,,,,,,,MOSQUE,C,new,y,./images/MOSQUE.png,,,,,,,z,0,0.694,,,,,,,,0,143,143,127,1
,,,,,,,,,,,,,,,,,200020,19,2022-01-25_20h52.26.870,lexical_decision_task_DD_L6,2021.2.3,MacIntel,58.82352941,,,,,,,,,,,,0.806,0,,,,,,,,,,,,,,,,,,,,,,,,0.011724138,-0.356551724,0,0,0,,,,,,,SWING,C,new,y,./images/SWING.png,,,,,,,z,0,0.806,,,,,,,,0,144,144,124,1
,,,,,,,,,,,,,,,,,200020,19,2022-01-25_20h52.26.870,lexical_decision_task_DD_L6,2021.2.3,MacIntel,58.82352941,,,,,,,,,,,,1.239,0,,,,,,,,,,,,,,,,,,,,,,,,0.011724138,-0.356551724,0,0,0,,,,,,,CLIFF,HB,old,y,./images/CLIFFHB.png,,,,,,,m,0,1.239,,,,,,,,0,145,145,8,1
,,,,,,,,,,,,,,,,,200020,19,2022-01-25_20h52.26.870,lexical_decision_task_DD_L6,2021.2.3,MacIntel,58.82352941,,,,,,,,,,,,0.851,0,,,,,,,,,,,,,,,,,,,,,,,,0.011724138,-0.356551724,0,0,0,,,,,,,STREAM,HB,old,y,./images/STREAMHB.png,,,,,,,z,0,0.851,,,,,,,,0,146,146,41,1
,,,,,,,,,,,,,,,,,200020,19,2022-01-25_20h52.26.870,lexical_decision_task_DD_L6,2021.2.3,MacIntel,58.82352941,,,,,,,,,,,,0.573,0,,,,,,,,,,,,,,,,,,,,,,,,0.011724138,-0.356551724,0,0,0,,,,,,,LLAMA,HB,old,y,./images/LLAMAHB.png,,,,,,,z,0,0.573,,,,,,,,0,147,147,35,1
,,,,,,,,,,,,,,,,,200020,19,2022-01-25_20h52.26.870,lexical_decision_task_DD_L6,2021.2.3,MacIntel,58.82352941,,,,,,,,,,,,0.712,0,,,,,,,,,,,,,,,,,,,,,,,,0.011724138,-0.356551724,0,0,0,,,,,,,POKER,C,old,y,./images/POKER.png,,,,,,,z,0,0.712,,,,,,,,0,148,148,67,1
,,,,,,,,,,,,,,,,,200020,19,2022-01-25_20h52.26.870,lexical_decision_task_DD_L6,2021.2.3,MacIntel,58.82352941,,,,,,,,,,,,1.023,0,,,,,,,,,,,,,,,,,,,,,,,,0.011724138,-0.356551724,0,0,0,,,,,,,CRADLE,HB,new,y,./images/CRADLEHB.png,,,,,,,z,0,1.023,,,,,,,,0,149,149,104,1
,,,,,,,,,,,,,,,,,200020,19,2022-01-25_20h52.26.870,lexical_decision_task_DD_L6,2021.2.3,MacIntel,58.82352941,,,,,,,,,,,,0.861,0,,,,,,,,,,,,,,,,,,,,,,,,0.011724138,-0.356551724,0,0,0,,,,,,,VALLEY,HB,old,y,./images/VALLEYHB.png,,,,,,,m,0,0.861,,,,,,,,0,150,150,68,1
,,,,,,,,,,,,,,,,,200020,19,2022-01-25_20h52.26.870,lexical_decision_task_DD_L6,2021.2.3,MacIntel,58.82352941,,,,,,,,,,,,1.059,0,,,,,,,,,,,,,,,,,,,,,,,,0.011724138,-0.356551724,0,0,0,,,,,,,CARPET,HB,new,y,./images/CARPETHB.png,,,,,,,z,0,1.059,,,,,,,,0,151,151,137,1
,,,,,,,,,,,,,,,,,200020,19,2022-01-25_20h52.26.870,lexical_decision_task_DD_L6,2021.2.3,MacIntel,58.82352941,,,,,,,,,,,,0.835,0,,,,,,,,,,,,,,,,,,,,,,,,0.011724138,-0.356551724,0,0,0,,,,,,,TOWEL,C,old,y,./images/TOWEL.png,,,,,,,m,0,0.835,,,,,,,,0,152,152,1,1
,,,,,,,,,,,,,,,,,200020,19,2022-01-25_20h52.26.870,lexical_decision_task_DD_L6,2021.2.3,MacIntel,58.82352941,,,,,,,,,,,,0.891,0,,,,,,,,,,,,,,,,,,,,,,,,0.011724138,-0.356551724,0,0,0,,,,,,,SWEAT,LB,new,y,./images/SWEATLB.png,,,,,,,z,0,0.891,,,,,,,,0,153,153,150,1
,,,,,,,,,,,,,,,,,200020,19,2022-01-25_20h52.26.870,lexical_decision_task_DD_L6,2021.2.3,MacIntel,58.82352941,,,,,,,,,,,,0.555,0,,,,,,,,,,,,,,,,,,,,,,,,0.011724138,-0.356551724,0,0,0,,,,,,,CLOUD,HB,old,y,./images/CLOUDHB.png,,,,,,,z,0,0.555,,,,,,,,0,154,154,26,1
,,,,,,,,,,,,,,,,,200020,19,2022-01-25_20h52.26.870,lexical_decision_task_DD_L6,2021.2.3,MacIntel,58.82352941,,,,,,,,,,,,0.659,0,,,,,,,,,,,,,,,,,,,,,,,,0.011724138,-0.356551724,0,0,0,,,,,,,TORCH,HB,new,y,./images/TORCHHB.png,,,,,,,z,0,0.659,,,,,,,,0,155,155,152,1
,,,,,,,,,,,,,,,,,200020,19,2022-01-25_20h52.26.870,lexical_decision_task_DD_L6,2021.2.3,MacIntel,58.82352941,,,,,,,,,,,,0.642,0,,,,,,,,,,,,,,,,,,,,,,,,0.011724138,-0.356551724,0,0,0,,,,,,,BUTTER,LB,old,y,./images/BUTTERLB.png,,,,,,,m,0,0.642,,,,,,,,0,156,156,27,1
,,,,,,,,,,,,,,,,,200020,19,2022-01-25_20h52.26.870,lexical_decision_task_DD_L6,2021.2.3,MacIntel,58.82352941,,,,,,,,,,,,0.695,0,,,,,,,,,,,,,,,,,,,,,,,,0.011724138,-0.356551724,0,0,0,,,,,,,MELON,C,new,y,./images/MELON.png,,,,,,,z,0,0.695,,,,,,,,0,157,157,106,1
,,,,,,,,,,,,,,,,,200020,19,2022-01-25_20h52.26.870,lexical_decision_task_DD_L6,2021.2.3,MacIntel,58.82352941,,,,,,,,,,,,0.664,0,,,,,,,,,,,,,,,,,,,,,,,,0.011724138,-0.356551724,0,0,0,,,,,,,CRUST,C,new,y,./images/CRUST.png,,,,,,,z,0,0.664,,,,,,,,0,158,158,163,1
,,,,,,,,,,,,,,,,,200020,19,2022-01-25_20h52.26.870,lexical_decision_task_DD_L6,2021.2.3,MacIntel,58.82352941,,,,,,,,,,,,0.612,0,,,,,,,,,,,,,,,,,,,,,,,,0.011724138,-0.356551724,0,0,0,,,,,,,MUSCLE,C,new,y,./images/MUSCLE.png,,,,,,,z,0,0.612,,,,,,,,0,159,159,88,1
,,,,,,,,,,,,,,,,,200020,19,2022-01-25_20h52.26.870,lexical_decision_task_DD_L6,2021.2.3,MacIntel,58.82352941,,,,,,,,,,,,0.645,0,,,,,,,,,,,,,,,,,,,,,,,,0.011724138,-0.356551724,0,0,0,,,,,,,SPORT,LB,new,y,./images/SPORTLB.png,,,,,,,z,0,0.645,,,,,,,,0,160,160,132,1
,,,,,,,,,,,,,,,,,200020,19,2022-01-25_20h52.26.870,lexical_decision_task_DD_L6,2021.2.3,MacIntel,58.82352941,,,,,,,,,,,,0.855,0,,,,,,,,,,,,,,,,,,,,,,,,0.011724138,-0.356551724,0,0,0,,,,,,,CHALK,C,old,y,./images/CHALK.png,,,,,,,m,0,0.855,,,,,,,,0,161,161,25,1
,,,,,,,,,,,,,,,,,200020,19,2022-01-25_20h52.26.870,lexical_decision_task_DD_L6,2021.2.3,MacIntel,58.82352941,,,,,,,,,,,,0.632,0,,,,,,,,,,,,,,,,,,,,,,,,0.011724138,-0.356551724,0,0,0,,,,,,,JELLY,C,new,y,./images/JELLY.png,,,,,,,z,0,0.632,,,,,,,,0,162,162,148,1
,,,,,,,,,,,,,,,,,200020,19,2022-01-25_20h52.26.870,lexical_decision_task_DD_L6,2021.2.3,MacIntel,58.82352941,,,,,,,,,,,,0.642,0,,,,,,,,,,,,,,,,,,,,,,,,0.011724138,-0.356551724,0,0,0,,,,,,,FLASK,LB,old,y,./images/FLASKLB.png,,,,,,,m,0,0.642,,,,,,,,0,163,163,72,1
,,,,,,,,,,,,,,,,,200020,19,2022-01-25_20h52.26.870,lexical_decision_task_DD_L6,2021.2.3,MacIntel,58.82352941,,,,,,,,,,,,1.105,0,,,,,,,,,,,,,,,,,,,,,,,,0.011724138,-0.356551724,0,0,0,,,,,,,WHISKY,HB,old,y,./images/WHISKYHB.png,,,,,,,z,0,1.105,,,,,,,,0,164,164,83,1
,,,,,,,,,,,,,,,,,200020,19,2022-01-25_20h52.26.870,lexical_decision_task_DD_L6,2021.2.3,MacIntel,58.82352941,,,,,,,,,,,,0.713,0,,,,,,,,,,,,,,,,,,,,,,,,0.011724138,-0.356551724,0,0,0,,,,,,,FENCE,HB,old,y,./images/FENCEHB.png,,,,,,,m,0,0.713,,,,,,,,0,165,165,14,1
,,,,,,,,,,,,,,,,,200020,19,2022-01-25_20h52.26.870,lexical_decision_task_DD_L6,2021.2.3,MacIntel,58.82352941,,,,,,,,,,,,0.812,0,,,,,,,,,,,,,,,,,,,,,,,,0.011724138,-0.356551724,0,0,0,,,,,,,JUMPER,HB,old,y,./images/JUMPERHB.png,,,,,,,m,0,0.812,,,,,,,,0,166,166,74,1
,,,,,,,,,,,,,,,,,200020,19,2022-01-25_20h52.26.870,lexical_decision_task_DD_L6,2021.2.3,MacIntel,58.82352941,,,,,,,,,,,,1.092,0,,,,,,,,,,,,,,,,,,,,,,,,0.011724138,-0.356551724,0,0,0,,,,,,,CANOE,C,old,y,./images/CANOE.png,,,,,,,m,0,1.092,,,,,,,,0,167,167,58,1
