key_resp.keys,instr_done_touch.x,instr_done_touch.y,instr_done_touch.leftButton,instr_done_touch.midButton,instr_done_touch.rightButton,instr_done_touch.clicked_name,instruction_pages.thisRepN,instruction_pages.thisTrialN,instruction_pages.thisN,instruction_pages.thisIndex,instruction_pages.ran,pageN,phase,instruct_text,has_image,instruct_image,participant,age,date,expName,psychopyVersion,OS,frameRate,response.keys,response.corr,response.rt,touch_resp.x,touch_resp.y,touch_resp.leftButton,touch_resp.midButton,touch_resp.rightButton,touch_resp.time,touch_resp.clicked_name,rt,corr,practrials.thisRepN,practrials.thisTrialN,practrials.thisN,practrials.thisIndex,practrials.ran,TrialID,Target,corrAns,end_of_practice_trials_pages.thisRepN,end_of_practice_trials_pages.thisTrialN,end_of_practice_trials_pages.thisN,end_of_practice_trials_pages.thisIndex,end_of_practice_trials_pages.ran,key_resp_2.keys,key_resp_2.corr,key_resp_2.rt,targ_click.x,targ_click.y,targ_click.leftButton,targ_click.midButton,targ_click.rightButton,targ_click.time,targ_click.clicked_name,break_done_touch.x,break_done_touch.y,break_done_touch.leftButton,break_done_touch.midButton,break_done_touch.rightButton,break_done_keyboard.keys,maintrials.thisRepN,maintrials.thisTrialN,maintrials.thisN,maintrials.thisIndex,maintrials.ran,string,blur,study,lex,stim_path,break_done_touch.clicked_name,test_instructions.thisRepN,test_instructions.thisTrialN,test_instructions.thisN,test_instructions.thisIndex,test_instructions.ran,key_resp_3.keys,key_resp_3.corr,key_resp_3.rt,test_click.x,test_click.y,test_click.leftButton,test_click.midButton,test_click.rightButton,test_click.time,test_click.clicked_name,test_phase.thisRepN,test_phase.thisTrialN,test_phase.thisN,test_phase.thisIndex,test_phase.ran
,-0.00625,-0.3825,1,0,0,instr_done_button,0,0,0,0,1,1,instructions,"INSTRUCTIONS
At the start of each trial, look at the plus sign  (+) in the center of the screen.  This tells you that a trial is about to begin and where to look. Second, the plus sign will disappear and a string of letters will appear. Your task is to determine if the string of letters is a word or not. If the item is a word press the M key (on keyboard)  or touch the word button (phone/tablet).  If the item is not a word,  press the  Z key (on keyboard)  or touch the nonword button (on phone/tablet). 
Press the space bar or touch  continue.",0,,200119,18,2022-01-28_16h02.56.923,lexical_decision_task_DD_L3,2021.2.3,MacIntel,52.63157895,,,,,,,,,,,,,,,,,,,,,,,,,,,,,,,,,,,,,,,,,,,,,,,,,,,,,,,,,,,,,,,,,,,,,,,,
,-0.00625,-0.3825,1,0,0,instr_done_button,0,1,1,1,1,2,instructions,"If your device has a keyboard, press the 'Z' key for nonwords and the 'M' key for words.





Press the space bar or touch the button below to continue.",0,keyboard-example.gif,200119,18,2022-01-28_16h02.56.923,lexical_decision_task_DD_L3,2021.2.3,MacIntel,52.63157895,,,,,,,,,,,,,,,,,,,,,,,,,,,,,,,,,,,,,,,,,,,,,,,,,,,,,,,,,,,,,,,,,,,,,,,,
,-0.0025,-0.3825,1,0,0,instr_done_button,0,2,2,2,1,3,instructions,"If you are using a touchscreen only device, use the buttons on the screen. Do not use the mouse.





Press the space bar or touch the button below to continue.",0,touchscreen-example.gif,200119,18,2022-01-28_16h02.56.923,lexical_decision_task_DD_L3,2021.2.3,MacIntel,52.63157895,,,,,,,,,,,,,,,,,,,,,,,,,,,,,,,,,,,,,,,,,,,,,,,,,,,,,,,,,,,,,,,,,,,,,,,,
,-0.0025,-0.3825,1,0,0,instr_done_button,0,3,3,3,1,4,instructions,"It is very important that you respond as quickly and accurately as possible, as each letter string will only be on the screen for two seconds. If you do not respond within this time, the message 'Too slow!' will be displayed and the experiment will progress to the next letter string. The first 20 trials will be practice trials and you will receive feedback on your answers. 

Press the space bar or touch the button below to start the practice trials.",0,,200119,18,2022-01-28_16h02.56.923,lexical_decision_task_DD_L3,2021.2.3,MacIntel,52.63157895,,,,,,,,,,,,,,,,,,,,,,,,,,,,,,,,,,,,,,,,,,,,,,,,,,,,,,,,,,,,,,,,,,,,,,,,
,,,,,,,,,,,,,,,,,200119,18,2022-01-28_16h02.56.923,lexical_decision_task_DD_L3,2021.2.3,MacIntel,52.63157895,m,1,5.518,,,,,,,,5.518,1,0,0,0,7,1,1001,VOLUME,m,,,,,,,,,,,,,,,,,,,,,,,,,,,,,,,,,,,,,,,,,,,,,,,,,,,,
,,,,,,,,,,,,,,,,,200119,18,2022-01-28_16h02.56.923,lexical_decision_task_DD_L3,2021.2.3,MacIntel,52.63157895,z,1,1.844,,,,,,,,1.844,1,0,1,1,8,1,1001,ASLERT,z,,,,,,,,,,,,,,,,,,,,,,,,,,,,,,,,,,,,,,,,,,,,,,,,,,,,
,,,,,,,,,,,,,,,,,200119,18,2022-01-28_16h02.56.923,lexical_decision_task_DD_L3,2021.2.3,MacIntel,52.63157895,z,1,1.392,,,,,,,,1.392,1,0,2,2,15,1,1001,WHAISE,z,,,,,,,,,,,,,,,,,,,,,,,,,,,,,,,,,,,,,,,,,,,,,,,,,,,,
,,,,,,,,,,,,,,,,,200119,18,2022-01-28_16h02.56.923,lexical_decision_task_DD_L3,2021.2.3,MacIntel,52.63157895,m,1,0.873,,,,,,,,0.873,1,0,3,3,3,1,1001,MATRIX,m,,,,,,,,,,,,,,,,,,,,,,,,,,,,,,,,,,,,,,,,,,,,,,,,,,,,
,,,,,,,,,,,,,,,,,200119,18,2022-01-28_16h02.56.923,lexical_decision_task_DD_L3,2021.2.3,MacIntel,52.63157895,m,1,0.838,,,,,,,,0.838,1,0,4,4,4,1,1001,SQUEAK,m,,,,,,,,,,,,,,,,,,,,,,,,,,,,,,,,,,,,,,,,,,,,,,,,,,,,
,,,,,,,,,,,,,,,,,200119,18,2022-01-28_16h02.56.923,lexical_decision_task_DD_L3,2021.2.3,MacIntel,52.63157895,z,1,1.325,,,,,,,,1.325,1,0,5,5,9,1,1001,FARINY,z,,,,,,,,,,,,,,,,,,,,,,,,,,,,,,,,,,,,,,,,,,,,,,,,,,,,
,,,,,,,,,,,,,,,,,200119,18,2022-01-28_16h02.56.923,lexical_decision_task_DD_L3,2021.2.3,MacIntel,52.63157895,z,1,0.804,,,,,,,,0.804,1,0,6,6,10,1,1001,INLADE,z,,,,,,,,,,,,,,,,,,,,,,,,,,,,,,,,,,,,,,,,,,,,,,,,,,,,
,,,,,,,,,,,,,,,,,200119,18,2022-01-28_16h02.56.923,lexical_decision_task_DD_L3,2021.2.3,MacIntel,52.63157895,m,1,0.558,,,,,,,,0.558,1,0,7,7,6,1,1001,ZOMBIE,m,,,,,,,,,,,,,,,,,,,,,,,,,,,,,,,,,,,,,,,,,,,,,,,,,,,,
,,,,,,,,,,,,,,,,,200119,18,2022-01-28_16h02.56.923,lexical_decision_task_DD_L3,2021.2.3,MacIntel,52.63157895,m,1,0.575,,,,,,,,0.575,1,0,8,8,5,1,1001,OBTAIN,m,,,,,,,,,,,,,,,,,,,,,,,,,,,,,,,,,,,,,,,,,,,,,,,,,,,,
,,,,,,,,,,,,,,,,,200119,18,2022-01-28_16h02.56.923,lexical_decision_task_DD_L3,2021.2.3,MacIntel,52.63157895,m,1,0.65,,,,,,,,0.65,1,0,9,9,1,1,1001,ADJUST,m,,,,,,,,,,,,,,,,,,,,,,,,,,,,,,,,,,,,,,,,,,,,,,,,,,,,
,,,,,,,,,,,,,,,,,200119,18,2022-01-28_16h02.56.923,lexical_decision_task_DD_L3,2021.2.3,MacIntel,52.63157895,z,1,0.804,,,,,,,,0.804,1,0,10,10,14,1,1001,THRALE,z,,,,,,,,,,,,,,,,,,,,,,,,,,,,,,,,,,,,,,,,,,,,,,,,,,,,
,,,,,,,,,,,,,,,,,200119,18,2022-01-28_16h02.56.923,lexical_decision_task_DD_L3,2021.2.3,MacIntel,52.63157895,z,1,0.679,,,,,,,,0.679,1,0,11,11,11,1,1001,RASHET,z,,,,,,,,,,,,,,,,,,,,,,,,,,,,,,,,,,,,,,,,,,,,,,,,,,,,
,,,,,,,,,,,,,,,,,200119,18,2022-01-28_16h02.56.923,lexical_decision_task_DD_L3,2021.2.3,MacIntel,52.63157895,z,1,1.156,,,,,,,,1.156,1,0,12,12,13,1,1001,ROUPET,z,,,,,,,,,,,,,,,,,,,,,,,,,,,,,,,,,,,,,,,,,,,,,,,,,,,,
,,,,,,,,,,,,,,,,,200119,18,2022-01-28_16h02.56.923,lexical_decision_task_DD_L3,2021.2.3,MacIntel,52.63157895,m,1,0.999,,,,,,,,0.999,1,0,13,13,0,1,1001,UTOPIA,m,,,,,,,,,,,,,,,,,,,,,,,,,,,,,,,,,,,,,,,,,,,,,,,,,,,,
,,,,,,,,,,,,,,,,,200119,18,2022-01-28_16h02.56.923,lexical_decision_task_DD_L3,2021.2.3,MacIntel,52.63157895,m,1,0.683,,,,,,,,0.683,1,0,14,14,2,1,1001,ALMOND,m,,,,,,,,,,,,,,,,,,,,,,,,,,,,,,,,,,,,,,,,,,,,,,,,,,,,
,,,,,,,,,,,,,,,,,200119,18,2022-01-28_16h02.56.923,lexical_decision_task_DD_L3,2021.2.3,MacIntel,52.63157895,z,1,0.642,,,,,,,,0.642,1,0,15,15,12,1,1001,SPRINY,z,,,,,,,,,,,,,,,,,,,,,,,,,,,,,,,,,,,,,,,,,,,,,,,,,,,,
,-0.03375,-0.405,1,0,0,instr_done_button,,,,,,1,end_of_practice,"You have completed the practice trials. During the experimental trials, you will not receive feedback. 
Before you begin, please ensure that you are in a comfortable and quiet location and will not be disturbed for about 15 minutes, as we cannot use your data if you do not complete all the trials. 
 When you are ready to start the experimental trials, please press space or touch the button below.",,,200119,18,2022-01-28_16h02.56.923,lexical_decision_task_DD_L3,2021.2.3,MacIntel,52.63157895,,,,,,,,,,,,,,,,,,,,,0,0,0,0,1,,,,,,,,,,,,,,,,,,,,,,,,,,,,,,,,,,,,,,,,,,,,,,,
,,,,,,,,,,,,,,,,,200119,18,2022-01-28_16h02.56.923,lexical_decision_task_DD_L3,2021.2.3,MacIntel,52.63157895,,,,,,,,,,,8.786,1,,,,,,,,,,,,,,z,1,8.786,,,,,,,,-0.03375,-0.405,0,0,0,,0,0,0,133,1,POWDY,HB,old,z,./images/POWDYHB.png,,,,,,,,,,,,,,,,,,,,,
,,,,,,,,,,,,,,,,,200119,18,2022-01-28_16h02.56.923,lexical_decision_task_DD_L3,2021.2.3,MacIntel,52.63157895,,,,,,,,,,,2.907,1,,,,,,,,,,,,,,z,1,2.907,,,,,,,,-0.03375,-0.405,0,0,0,,0,1,1,157,1,INLER,HB,old,z,./images/INLERHB.png,,,,,,,,,,,,,,,,,,,,,
,,,,,,,,,,,,,,,,,200119,18,2022-01-28_16h02.56.923,lexical_decision_task_DD_L3,2021.2.3,MacIntel,52.63157895,,,,,,,,,,,2.337,0,,,,,,,,,,,,,,z,0,2.337,,,,,,,,-0.03375,-0.405,0,0,0,,0,2,2,31,1,QUILL,C,old,m,./images/QUILL.png,,,,,,,,,,,,,,,,,,,,,
,,,,,,,,,,,,,,,,,200119,18,2022-01-28_16h02.56.923,lexical_decision_task_DD_L3,2021.2.3,MacIntel,52.63157895,,,,,,,,,,,1.393,1,,,,,,,,,,,,,,m,1,1.393,,,,,,,,-0.03375,-0.405,0,0,0,,0,3,3,47,1,BERRY,HB,old,m,./images/BERRYHB.png,,,,,,,,,,,,,,,,,,,,,
,,,,,,,,,,,,,,,,,200119,18,2022-01-28_16h02.56.923,lexical_decision_task_DD_L3,2021.2.3,MacIntel,52.63157895,,,,,,,,,,,0.668,1,,,,,,,,,,,,,,m,1,0.668,,,,,,,,-0.03375,-0.405,0,0,0,,0,4,4,4,1,MUSCLE,C,old,m,./images/MUSCLE.png,,,,,,,,,,,,,,,,,,,,,
,,,,,,,,,,,,,,,,,200119,18,2022-01-28_16h02.56.923,lexical_decision_task_DD_L3,2021.2.3,MacIntel,52.63157895,,,,,,,,,,,1.383,1,,,,,,,,,,,,,,z,1,1.383,,,,,,,,-0.03375,-0.405,0,0,0,,0,5,5,103,1,FLORT,HB,old,z,./images/FLORTHB.png,,,,,,,,,,,,,,,,,,,,,
,,,,,,,,,,,,,,,,,200119,18,2022-01-28_16h02.56.923,lexical_decision_task_DD_L3,2021.2.3,MacIntel,52.63157895,,,,,,,,,,,0.853,1,,,,,,,,,,,,,,m,1,0.853,,,,,,,,-0.03375,-0.405,0,0,0,,0,6,6,29,1,CRUMB,HB,old,m,./images/CRUMBHB.png,,,,,,,,,,,,,,,,,,,,,
,,,,,,,,,,,,,,,,,200119,18,2022-01-28_16h02.56.923,lexical_decision_task_DD_L3,2021.2.3,MacIntel,52.63157895,,,,,,,,,,,1.677,1,,,,,,,,,,,,,,z,1,1.677,,,,,,,,-0.03375,-0.405,0,0,0,,0,7,7,127,1,NINDY,HB,old,z,./images/NINDYHB.png,,,,,,,,,,,,,,,,,,,,,
,,,,,,,,,,,,,,,,,200119,18,2022-01-28_16h02.56.923,lexical_decision_task_DD_L3,2021.2.3,MacIntel,52.63157895,,,,,,,,,,,0.794,1,,,,,,,,,,,,,,z,1,0.794,,,,,,,,-0.03375,-0.405,0,0,0,,0,8,8,89,1,DRIEK,LB,old,z,./images/DRIEKLB.png,,,,,,,,,,,,,,,,,,,,,
,,,,,,,,,,,,,,,,,200119,18,2022-01-28_16h02.56.923,lexical_decision_task_DD_L3,2021.2.3,MacIntel,52.63157895,,,,,,,,,,,0.866,1,,,,,,,,,,,,,,z,1,0.866,,,,,,,,-0.03375,-0.405,0,0,0,,0,9,9,110,1,CRUNK,LB,old,z,./images/CRUNKLB.png,,,,,,,,,,,,,,,,,,,,,
,,,,,,,,,,,,,,,,,200119,18,2022-01-28_16h02.56.923,lexical_decision_task_DD_L3,2021.2.3,MacIntel,52.63157895,,,,,,,,,,,0.558,1,,,,,,,,,,,,,,m,1,0.558,,,,,,,,-0.03375,-0.405,0,0,0,,0,10,10,22,1,MELON,C,old,m,./images/MELON.png,,,,,,,,,,,,,,,,,,,,,
,,,,,,,,,,,,,,,,,200119,18,2022-01-28_16h02.56.923,lexical_decision_task_DD_L3,2021.2.3,MacIntel,52.63157895,,,,,,,,,,,0.662,1,,,,,,,,,,,,,,z,1,0.662,,,,,,,,-0.03375,-0.405,0,0,0,,0,11,11,90,1,NEAST,C,old,z,./images/NEAST.png,,,,,,,,,,,,,,,,,,,,,
,,,,,,,,,,,,,,,,,200119,18,2022-01-28_16h02.56.923,lexical_decision_task_DD_L3,2021.2.3,MacIntel,52.63157895,,,,,,,,,,,0.914,0,,,,,,,,,,,,,,m,0,0.914,,,,,,,,-0.03375,-0.405,0,0,0,,0,12,12,130,1,CRILL,HB,old,z,./images/CRILLHB.png,,,,,,,,,,,,,,,,,,,,,
,,,,,,,,,,,,,,,,,200119,18,2022-01-28_16h02.56.923,lexical_decision_task_DD_L3,2021.2.3,MacIntel,52.63157895,,,,,,,,,,,0.646,1,,,,,,,,,,,,,,m,1,0.646,,,,,,,,-0.03375,-0.405,0,0,0,,0,13,13,19,1,DOUGH,C,old,m,./images/DOUGH.png,,,,,,,,,,,,,,,,,,,,,
,,,,,,,,,,,,,,,,,200119,18,2022-01-28_16h02.56.923,lexical_decision_task_DD_L3,2021.2.3,MacIntel,52.63157895,,,,,,,,,,,0.96,1,,,,,,,,,,,,,,z,1,0.96,,,,,,,,-0.03375,-0.405,0,0,0,,0,14,14,107,1,FASKS,LB,old,z,./images/FASKSLB.png,,,,,,,,,,,,,,,,,,,,,
,,,,,,,,,,,,,,,,,200119,18,2022-01-28_16h02.56.923,lexical_decision_task_DD_L3,2021.2.3,MacIntel,52.63157895,,,,,,,,,,,1.728,1,,,,,,,,,,,,,,z,1,1.728,,,,,,,,-0.03375,-0.405,0,0,0,,0,15,15,112,1,MYING,HB,old,z,./images/MYINGHB.png,,,,,,,,,,,,,,,,,,,,,
,,,,,,,,,,,,,,,,,200119,18,2022-01-28_16h02.56.923,lexical_decision_task_DD_L3,2021.2.3,MacIntel,52.63157895,,,,,,,,,,,0.818,1,,,,,,,,,,,,,,m,1,0.818,,,,,,,,-0.03375,-0.405,0,0,0,,0,16,16,35,1,PEACH,HB,old,m,./images/PEACHHB.png,,,,,,,,,,,,,,,,,,,,,
,,,,,,,,,,,,,,,,,200119,18,2022-01-28_16h02.56.923,lexical_decision_task_DD_L3,2021.2.3,MacIntel,52.63157895,,,,,,,,,,,0.663,1,,,,,,,,,,,,,,z,1,0.663,,,,,,,,-0.03375,-0.405,0,0,0,,0,17,17,116,1,BALGY,LB,old,z,./images/BALGYLB.png,,,,,,,,,,,,,,,,,,,,,
,,,,,,,,,,,,,,,,,200119,18,2022-01-28_16h02.56.923,lexical_decision_task_DD_L3,2021.2.3,MacIntel,52.63157895,,,,,,,,,,,0.75,1,,,,,,,,,,,,,,z,1,0.75,,,,,,,,-0.03375,-0.405,0,0,0,,0,18,18,147,1,ZOLES,C,old,z,./images/ZOLES.png,,,,,,,,,,,,,,,,,,,,,
,,,,,,,,,,,,,,,,,200119,18,2022-01-28_16h02.56.923,lexical_decision_task_DD_L3,2021.2.3,MacIntel,52.63157895,,,,,,,,,,,0.56,1,,,,,,,,,,,,,,m,1,0.56,,,,,,,,-0.03375,-0.405,0,0,0,,0,19,19,61,1,CANDLE,C,old,m,./images/CANDLE.png,,,,,,,,,,,,,,,,,,,,,
,,,,,,,,,,,,,,,,,200119,18,2022-01-28_16h02.56.923,lexical_decision_task_DD_L3,2021.2.3,MacIntel,52.63157895,,,,,,,,,,,0.527,1,,,,,,,,,,,,,,m,1,0.527,,,,,,,,-0.03375,-0.405,0,0,0,,0,20,20,64,1,JELLY,C,old,m,./images/JELLY.png,,,,,,,,,,,,,,,,,,,,,
,,,,,,,,,,,,,,,,,200119,18,2022-01-28_16h02.56.923,lexical_decision_task_DD_L3,2021.2.3,MacIntel,52.63157895,,,,,,,,,,,0.759,1,,,,,,,,,,,,,,z,1,0.759,,,,,,,,-0.03375,-0.405,0,0,0,,0,21,21,155,1,CANGY,LB,old,z,./images/CANGYLB.png,,,,,,,,,,,,,,,,,,,,,
,,,,,,,,,,,,,,,,,200119,18,2022-01-28_16h02.56.923,lexical_decision_task_DD_L3,2021.2.3,MacIntel,52.63157895,,,,,,,,,,,0.759,1,,,,,,,,,,,,,,z,1,0.759,,,,,,,,-0.03375,-0.405,0,0,0,,0,22,22,143,1,MONGS,LB,old,z,./images/MONGSLB.png,,,,,,,,,,,,,,,,,,,,,
,,,,,,,,,,,,,,,,,200119,18,2022-01-28_16h02.56.923,lexical_decision_task_DD_L3,2021.2.3,MacIntel,52.63157895,,,,,,,,,,,0.566,1,,,,,,,,,,,,,,m,1,0.566,,,,,,,,-0.03375,-0.405,0,0,0,,0,23,23,63,1,MIRROR,LB,old,m,./images/MIRRORLB.png,,,,,,,,,,,,,,,,,,,,,
,,,,,,,,,,,,,,,,,200119,18,2022-01-28_16h02.56.923,lexical_decision_task_DD_L3,2021.2.3,MacIntel,52.63157895,,,,,,,,,,,0.604,1,,,,,,,,,,,,,,m,1,0.604,,,,,,,,-0.03375,-0.405,0,0,0,,0,24,24,73,1,SNACK,C,old,m,./images/SNACK.png,,,,,,,,,,,,,,,,,,,,,
,,,,,,,,,,,,,,,,,200119,18,2022-01-28_16h02.56.923,lexical_decision_task_DD_L3,2021.2.3,MacIntel,52.63157895,,,,,,,,,,,0.654,1,,,,,,,,,,,,,,m,1,0.654,,,,,,,,-0.03375,-0.405,0,0,0,,0,25,25,69,1,COOKER,LB,old,m,./images/COOKERLB.png,,,,,,,,,,,,,,,,,,,,,
,,,,,,,,,,,,,,,,,200119,18,2022-01-28_16h02.56.923,lexical_decision_task_DD_L3,2021.2.3,MacIntel,52.63157895,,,,,,,,,,,1.098,1,,,,,,,,,,,,,,m,1,1.098,,,,,,,,-0.03375,-0.405,0,0,0,,0,26,26,74,1,CEMENT,HB,old,m,./images/CEMENTHB.png,,,,,,,,,,,,,,,,,,,,,
,,,,,,,,,,,,,,,,,200119,18,2022-01-28_16h02.56.923,lexical_decision_task_DD_L3,2021.2.3,MacIntel,52.63157895,,,,,,,,,,,2.26,1,,,,,,,,,,,,,,m,1,2.26,,,,,,,,-0.03375,-0.405,0,0,0,,0,27,27,11,1,BONNET,HB,old,m,./images/BONNETHB.png,,,,,,,,,,,,,,,,,,,,,
,,,,,,,,,,,,,,,,,200119,18,2022-01-28_16h02.56.923,lexical_decision_task_DD_L3,2021.2.3,MacIntel,52.63157895,,,,,,,,,,,0.535,1,,,,,,,,,,,,,,m,1,0.535,,,,,,,,-0.03375,-0.405,0,0,0,,0,28,28,75,1,GRAIN,LB,old,m,./images/GRAINLB.png,,,,,,,,,,,,,,,,,,,,,
,,,,,,,,,,,,,,,,,200119,18,2022-01-28_16h02.56.923,lexical_decision_task_DD_L3,2021.2.3,MacIntel,52.63157895,,,,,,,,,,,0.431,1,,,,,,,,,,,,,,m,1,0.431,,,,,,,,-0.03375,-0.405,0,0,0,,0,29,29,7,1,PAINT,C,old,m,./images/PAINT.png,,,,,,,,,,,,,,,,,,,,,
,,,,,,,,,,,,,,,,,200119,18,2022-01-28_16h02.56.923,lexical_decision_task_DD_L3,2021.2.3,MacIntel,52.63157895,,,,,,,,,,,0.515,1,,,,,,,,,,,,,,m,1,0.515,,,,,,,,-0.03375,-0.405,0,0,0,,0,30,30,3,1,FINGER,LB,old,m,./images/FINGERLB.png,,,,,,,,,,,,,,,,,,,,,
,,,,,,,,,,,,,,,,,200119,18,2022-01-28_16h02.56.923,lexical_decision_task_DD_L3,2021.2.3,MacIntel,52.63157895,,,,,,,,,,,1.064,1,,,,,,,,,,,,,,z,1,1.064,,,,,,,,-0.03375,-0.405,0,0,0,,0,31,31,115,1,MAWNS,HB,old,z,./images/MAWNSHB.png,,,,,,,,,,,,,,,,,,,,,
,,,,,,,,,,,,,,,,,200119,18,2022-01-28_16h02.56.923,lexical_decision_task_DD_L3,2021.2.3,MacIntel,52.63157895,,,,,,,,,,,1.013,1,,,,,,,,,,,,,,z,1,1.013,,,,,,,,-0.03375,-0.405,0,0,0,,0,32,32,99,1,BACKY,C,old,z,./images/BACKY.png,,,,,,,,,,,,,,,,,,,,,
,,,,,,,,,,,,,,,,,200119,18,2022-01-28_16h02.56.923,lexical_decision_task_DD_L3,2021.2.3,MacIntel,52.63157895,,,,,,,,,,,0.503,1,,,,,,,,,,,,,,m,1,0.503,,,,,,,,-0.03375,-0.405,0,0,0,,0,33,33,0,1,TOMATO,LB,old,m,./images/TOMATOLB.png,,,,,,,,,,,,,,,,,,,,,
,,,,,,,,,,,,,,,,,200119,18,2022-01-28_16h02.56.923,lexical_decision_task_DD_L3,2021.2.3,MacIntel,52.63157895,,,,,,,,,,,0.6,1,,,,,,,,,,,,,,z,1,0.6,,,,,,,,-0.03375,-0.405,0,0,0,,0,34,34,86,1,AIFED,LB,old,z,./images/AIFEDLB.png,,,,,,,,,,,,,,,,,,,,,
,,,,,,,,,,,,,,,,,200119,18,2022-01-28_16h02.56.923,lexical_decision_task_DD_L3,2021.2.3,MacIntel,52.63157895,,,,,,,,,,,1.051,1,,,,,,,,,,,,,,m,1,1.051,,,,,,,,-0.03375,-0.405,0,0,0,,0,35,35,71,1,PIMPLE,HB,old,m,./images/PIMPLEHB.png,,,,,,,,,,,,,,,,,,,,,
,,,,,,,,,,,,,,,,,200119,18,2022-01-28_16h02.56.923,lexical_decision_task_DD_L3,2021.2.3,MacIntel,52.63157895,,,,,,,,,,,0.865,1,,,,,,,,,,,,,,m,1,0.865,,,,,,,,-0.03375,-0.405,0,0,0,,0,36,36,8,1,TULIP,HB,old,m,./images/TULIPHB.png,,,,,,,,,,,,,,,,,,,,,
,,,,,,,,,,,,,,,,,200119,18,2022-01-28_16h02.56.923,lexical_decision_task_DD_L3,2021.2.3,MacIntel,52.63157895,,,,,,,,,,,0.698,1,,,,,,,,,,,,,,m,1,0.698,,,,,,,,-0.03375,-0.405,0,0,0,,0,37,37,9,1,RHINO,LB,old,m,./images/RHINOLB.png,,,,,,,,,,,,,,,,,,,,,
,,,,,,,,,,,,,,,,,200119,18,2022-01-28_16h02.56.923,lexical_decision_task_DD_L3,2021.2.3,MacIntel,52.63157895,,,,,,,,,,,0.454,0,,,,,,,,,,,,,,m,0,0.454,,,,,,,,-0.03375,-0.405,0,0,0,,0,38,38,122,1,BLOOT,LB,old,z,./images/BLOOTLB.png,,,,,,,,,,,,,,,,,,,,,
,,,,,,,,,,,,,,,,,200119,18,2022-01-28_16h02.56.923,lexical_decision_task_DD_L3,2021.2.3,MacIntel,52.63157895,,,,,,,,,,,0.836,1,,,,,,,,,,,,,,m,1,0.836,,,,,,,,-0.03375,-0.405,0,0,0,,0,39,39,39,1,SHELF,LB,old,m,./images/SHELFLB.png,,,,,,,,,,,,,,,,,,,,,
,,,,,,,,,,,,,,,,,200119,18,2022-01-28_16h02.56.923,lexical_decision_task_DD_L3,2021.2.3,MacIntel,52.63157895,,,,,,,,,,,2.501,1,,,,,,,,,,,,,,m,1,2.501,,,,,,,,-0.03375,-0.405,0,0,0,,0,40,40,44,1,LIZARD,HB,old,m,./images/LIZARDHB.png,,,,,,,,,,,,,,,,,,,,,
,,,,,,,,,,,,,,,,,200119,18,2022-01-28_16h02.56.923,lexical_decision_task_DD_L3,2021.2.3,MacIntel,52.63157895,,,,,,,,,,,0.679,1,,,,,,,,,,,,,,z,1,0.679,,,,,,,,-0.02875,-0.37375,1,0,0,,0,41,41,113,1,LINEW,LB,old,z,./images/LINEWLB.png,break_done_button,,,,,,,,,,,,,,,,,,,,
,,,,,,,,,,,,,,,,,200119,18,2022-01-28_16h02.56.923,lexical_decision_task_DD_L3,2021.2.3,MacIntel,52.63157895,,,,,,,,,,,0.879,1,,,,,,,,,,,,,,z,1,0.879,,,,,,,,-0.0275,-0.37625,0,0,0,,0,42,42,162,1,LEICH,C,old,z,./images/LEICH.png,,,,,,,,,,,,,,,,,,,,,
,,,,,,,,,,,,,,,,,200119,18,2022-01-28_16h02.56.923,lexical_decision_task_DD_L3,2021.2.3,MacIntel,52.63157895,,,,,,,,,,,0.596,1,,,,,,,,,,,,,,m,1,0.596,,,,,,,,-0.0275,-0.37625,0,0,0,,0,43,43,55,1,MUFFIN,C,old,m,./images/MUFFIN.png,,,,,,,,,,,,,,,,,,,,,
,,,,,,,,,,,,,,,,,200119,18,2022-01-28_16h02.56.923,lexical_decision_task_DD_L3,2021.2.3,MacIntel,52.63157895,,,,,,,,,,,0.577,1,,,,,,,,,,,,,,m,1,0.577,,,,,,,,-0.0275,-0.37625,0,0,0,,0,44,44,36,1,THROAT,LB,old,m,./images/THROATLB.png,,,,,,,,,,,,,,,,,,,,,
,,,,,,,,,,,,,,,,,200119,18,2022-01-28_16h02.56.923,lexical_decision_task_DD_L3,2021.2.3,MacIntel,52.63157895,,,,,,,,,,,0.674,1,,,,,,,,,,,,,,z,1,0.674,,,,,,,,-0.0275,-0.37625,0,0,0,,0,45,45,153,1,CLUPS,C,old,z,./images/CLUPS.png,,,,,,,,,,,,,,,,,,,,,
,,,,,,,,,,,,,,,,,200119,18,2022-01-28_16h02.56.923,lexical_decision_task_DD_L3,2021.2.3,MacIntel,52.63157895,,,,,,,,,,,1.005,1,,,,,,,,,,,,,,z,1,1.005,,,,,,,,-0.0275,-0.37625,0,0,0,,0,46,46,97,1,CHIDS,HB,old,z,./images/CHIDSHB.png,,,,,,,,,,,,,,,,,,,,,
,,,,,,,,,,,,,,,,,200119,18,2022-01-28_16h02.56.923,lexical_decision_task_DD_L3,2021.2.3,MacIntel,52.63157895,,,,,,,,,,,3.019,1,,,,,,,,,,,,,,m,1,3.019,,,,,,,,-0.2325,0.4275,0,0,0,,0,47,47,42,1,FOLDER,LB,old,m,./images/FOLDERLB.png,,,,,,,,,,,,,,,,,,,,,
,,,,,,,,,,,,,,,,,200119,18,2022-01-28_16h02.56.923,lexical_decision_task_DD_L3,2021.2.3,MacIntel,52.63157895,,,,,,,,,,,0.933,1,,,,,,,,,,,,,,z,1,0.933,,,,,,,,-0.2325,0.4275,0,0,0,,0,48,48,111,1,HOSSE,C,old,z,./images/HOSSE.png,,,,,,,,,,,,,,,,,,,,,
,,,,,,,,,,,,,,,,,200119,18,2022-01-28_16h02.56.923,lexical_decision_task_DD_L3,2021.2.3,MacIntel,52.63157895,,,,,,,,,,,0.892,1,,,,,,,,,,,,,,z,1,0.892,,,,,,,,-0.2325,0.4275,0,0,0,,0,49,49,87,1,TRING,C,old,z,./images/TRING.png,,,,,,,,,,,,,,,,,,,,,
,,,,,,,,,,,,,,,,,200119,18,2022-01-28_16h02.56.923,lexical_decision_task_DD_L3,2021.2.3,MacIntel,52.63157895,,,,,,,,,,,0.581,1,,,,,,,,,,,,,,m,1,0.581,,,,,,,,-0.2325,0.4275,0,0,0,,0,50,50,12,1,SHORE,LB,old,m,./images/SHORELB.png,,,,,,,,,,,,,,,,,,,,,
,,,,,,,,,,,,,,,,,200119,18,2022-01-28_16h02.56.923,lexical_decision_task_DD_L3,2021.2.3,MacIntel,52.63157895,,,,,,,,,,,0.711,1,,,,,,,,,,,,,,m,1,0.711,,,,,,,,-0.2325,0.4275,0,0,0,,0,51,51,40,1,SWING,C,old,m,./images/SWING.png,,,,,,,,,,,,,,,,,,,,,
,,,,,,,,,,,,,,,,,200119,18,2022-01-28_16h02.56.923,lexical_decision_task_DD_L3,2021.2.3,MacIntel,52.63157895,,,,,,,,,,,0.714,1,,,,,,,,,,,,,,m,1,0.714,,,,,,,,-0.2325,0.4275,0,0,0,,0,52,52,51,1,ONION,LB,old,m,./images/ONIONLB.png,,,,,,,,,,,,,,,,,,,,,
,,,,,,,,,,,,,,,,,200119,18,2022-01-28_16h02.56.923,lexical_decision_task_DD_L3,2021.2.3,MacIntel,52.63157895,,,,,,,,,,,0.727,1,,,,,,,,,,,,,,m,1,0.727,,,,,,,,-0.2325,0.4275,0,0,0,,0,53,53,50,1,MALLET,HB,old,m,./images/MALLETHB.png,,,,,,,,,,,,,,,,,,,,,
,,,,,,,,,,,,,,,,,200119,18,2022-01-28_16h02.56.923,lexical_decision_task_DD_L3,2021.2.3,MacIntel,52.63157895,,,,,,,,,,,0.779,1,,,,,,,,,,,,,,z,1,0.779,,,,,,,,-0.2325,0.4275,0,0,0,,0,54,54,129,1,PRANS,C,old,z,./images/PRANS.png,,,,,,,,,,,,,,,,,,,,,
,,,,,,,,,,,,,,,,,200119,18,2022-01-28_16h02.56.923,lexical_decision_task_DD_L3,2021.2.3,MacIntel,52.63157895,,,,,,,,,,,0.545,1,,,,,,,,,,,,,,m,1,0.545,,,,,,,,-0.2325,0.4275,0,0,0,,0,55,55,37,1,BIRTH,C,old,m,./images/BIRTH.png,,,,,,,,,,,,,,,,,,,,,
,,,,,,,,,,,,,,,,,200119,18,2022-01-28_16h02.56.923,lexical_decision_task_DD_L3,2021.2.3,MacIntel,52.63157895,,,,,,,,,,,0.609,1,,,,,,,,,,,,,,m,1,0.609,,,,,,,,-0.2325,0.4275,0,0,0,,0,56,56,77,1,COUCH,HB,old,m,./images/COUCHHB.png,,,,,,,,,,,,,,,,,,,,,
,,,,,,,,,,,,,,,,,200119,18,2022-01-28_16h02.56.923,lexical_decision_task_DD_L3,2021.2.3,MacIntel,52.63157895,,,,,,,,,,,0.64,1,,,,,,,,,,,,,,m,1,0.64,,,,,,,,-0.2325,0.4275,0,0,0,,0,57,57,56,1,PACKET,HB,old,m,./images/PACKETHB.png,,,,,,,,,,,,,,,,,,,,,
,,,,,,,,,,,,,,,,,200119,18,2022-01-28_16h02.56.923,lexical_decision_task_DD_L3,2021.2.3,MacIntel,52.63157895,,,,,,,,,,,0.951,1,,,,,,,,,,,,,,m,1,0.951,,,,,,,,-0.2325,0.4275,0,0,0,,0,58,58,23,1,WALRUS,HB,old,m,./images/WALRUSHB.png,,,,,,,,,,,,,,,,,,,,,
,,,,,,,,,,,,,,,,,200119,18,2022-01-28_16h02.56.923,lexical_decision_task_DD_L3,2021.2.3,MacIntel,52.63157895,,,,,,,,,,,0.674,1,,,,,,,,,,,,,,m,1,0.674,,,,,,,,-0.2325,0.4275,0,0,0,,0,59,59,32,1,BARREL,HB,old,m,./images/BARRELHB.png,,,,,,,,,,,,,,,,,,,,,
,,,,,,,,,,,,,,,,,200119,18,2022-01-28_16h02.56.923,lexical_decision_task_DD_L3,2021.2.3,MacIntel,52.63157895,,,,,,,,,,,0.678,1,,,,,,,,,,,,,,m,1,0.678,,,,,,,,-0.2325,0.4275,0,0,0,,0,60,60,83,1,JUNGLE,HB,old,m,./images/JUNGLEHB.png,,,,,,,,,,,,,,,,,,,,,
,,,,,,,,,,,,,,,,,200119,18,2022-01-28_16h02.56.923,lexical_decision_task_DD_L3,2021.2.3,MacIntel,52.63157895,,,,,,,,,,,0.66,1,,,,,,,,,,,,,,m,1,0.66,,,,,,,,-0.2325,0.4275,0,0,0,,0,61,61,10,1,BELLY,C,old,m,./images/BELLY.png,,,,,,,,,,,,,,,,,,,,,
,,,,,,,,,,,,,,,,,200119,18,2022-01-28_16h02.56.923,lexical_decision_task_DD_L3,2021.2.3,MacIntel,52.63157895,,,,,,,,,,,1.092,1,,,,,,,,,,,,,,z,1,1.092,,,,,,,,-0.2325,0.4275,0,0,0,,0,62,62,94,1,BLANS,HB,old,z,./images/BLANSHB.png,,,,,,,,,,,,,,,,,,,,,
,,,,,,,,,,,,,,,,,200119,18,2022-01-28_16h02.56.923,lexical_decision_task_DD_L3,2021.2.3,MacIntel,52.63157895,,,,,,,,,,,0.568,1,,,,,,,,,,,,,,m,1,0.568,,,,,,,,-0.2325,0.4275,0,0,0,,0,63,63,21,1,KIDNEY,LB,old,m,./images/KIDNEYLB.png,,,,,,,,,,,,,,,,,,,,,
,,,,,,,,,,,,,,,,,200119,18,2022-01-28_16h02.56.923,lexical_decision_task_DD_L3,2021.2.3,MacIntel,52.63157895,,,,,,,,,,,0.759,1,,,,,,,,,,,,,,m,1,0.759,,,,,,,,-0.2325,0.4275,0,0,0,,0,64,64,54,1,TRIPOD,LB,old,m,./images/TRIPODLB.png,,,,,,,,,,,,,,,,,,,,,
,,,,,,,,,,,,,,,,,200119,18,2022-01-28_16h02.56.923,lexical_decision_task_DD_L3,2021.2.3,MacIntel,52.63157895,,,,,,,,,,,0.524,1,,,,,,,,,,,,,,m,1,0.524,,,,,,,,-0.2325,0.4275,0,0,0,,0,65,65,41,1,STRING,HB,old,m,./images/STRINGHB.png,,,,,,,,,,,,,,,,,,,,,
,,,,,,,,,,,,,,,,,200119,18,2022-01-28_16h02.56.923,lexical_decision_task_DD_L3,2021.2.3,MacIntel,52.63157895,,,,,,,,,,,0.903,1,,,,,,,,,,,,,,z,1,0.903,,,,,,,,-0.2325,0.4275,0,0,0,,0,66,66,152,1,FRAIN,LB,old,z,./images/FRAINLB.png,,,,,,,,,,,,,,,,,,,,,
,,,,,,,,,,,,,,,,,200119,18,2022-01-28_16h02.56.923,lexical_decision_task_DD_L3,2021.2.3,MacIntel,52.63157895,,,,,,,,,,,0.543,1,,,,,,,,,,,,,,m,1,0.543,,,,,,,,-0.2325,0.4275,0,0,0,,0,67,67,81,1,POODLE,LB,old,m,./images/POODLELB.png,,,,,,,,,,,,,,,,,,,,,
,,,,,,,,,,,,,,,,,200119,18,2022-01-28_16h02.56.923,lexical_decision_task_DD_L3,2021.2.3,MacIntel,52.63157895,,,,,,,,,,,0.592,1,,,,,,,,,,,,,,m,1,0.592,,,,,,,,-0.2325,0.4275,0,0,0,,0,68,68,79,1,CRUST,C,old,m,./images/CRUST.png,,,,,,,,,,,,,,,,,,,,,
,,,,,,,,,,,,,,,,,200119,18,2022-01-28_16h02.56.923,lexical_decision_task_DD_L3,2021.2.3,MacIntel,52.63157895,,,,,,,,,,,0.733,1,,,,,,,,,,,,,,z,1,0.733,,,,,,,,-0.2325,0.4275,0,0,0,,0,69,69,105,1,MOKER,C,old,z,./images/MOKER.png,,,,,,,,,,,,,,,,,,,,,
,,,,,,,,,,,,,,,,,200119,18,2022-01-28_16h02.56.923,lexical_decision_task_DD_L3,2021.2.3,MacIntel,52.63157895,,,,,,,,,,,0.959,1,,,,,,,,,,,,,,z,1,0.959,,,,,,,,-0.2325,0.4275,0,0,0,,0,70,70,140,1,DOVET,LB,old,z,./images/DOVETLB.png,,,,,,,,,,,,,,,,,,,,,
,,,,,,,,,,,,,,,,,200119,18,2022-01-28_16h02.56.923,lexical_decision_task_DD_L3,2021.2.3,MacIntel,52.63157895,,,,,,,,,,,0.813,1,,,,,,,,,,,,,,m,1,0.813,,,,,,,,-0.2325,0.4275,0,0,0,,0,71,71,59,1,BURIAL,HB,old,m,./images/BURIALHB.png,,,,,,,,,,,,,,,,,,,,,
,,,,,,,,,,,,,,,,,200119,18,2022-01-28_16h02.56.923,lexical_decision_task_DD_L3,2021.2.3,MacIntel,52.63157895,,,,,,,,,,,1.748,1,,,,,,,,,,,,,,m,1,1.748,,,,,,,,-0.2275,0.425,0,0,0,,0,72,72,48,1,SPORT,LB,old,m,./images/SPORTLB.png,,,,,,,,,,,,,,,,,,,,,
,,,,,,,,,,,,,,,,,200119,18,2022-01-28_16h02.56.923,lexical_decision_task_DD_L3,2021.2.3,MacIntel,52.63157895,,,,,,,,,,,0.698,1,,,,,,,,,,,,,,m,1,0.698,,,,,,,,-0.2275,0.425,0,0,0,,0,73,73,34,1,CANYON,C,old,m,./images/CANYON.png,,,,,,,,,,,,,,,,,,,,,
,,,,,,,,,,,,,,,,,200119,18,2022-01-28_16h02.56.923,lexical_decision_task_DD_L3,2021.2.3,MacIntel,52.63157895,,,,,,,,,,,0.777,1,,,,,,,,,,,,,,m,1,0.777,,,,,,,,-0.2275,0.425,0,0,0,,0,74,74,26,1,SMOKER,HB,old,m,./images/SMOKERHB.png,,,,,,,,,,,,,,,,,,,,,
,,,,,,,,,,,,,,,,,200119,18,2022-01-28_16h02.56.923,lexical_decision_task_DD_L3,2021.2.3,MacIntel,52.63157895,,,,,,,,,,,0.994,1,,,,,,,,,,,,,,z,1,0.994,,,,,,,,-0.2275,0.425,0,0,0,,0,75,75,148,1,JOMS,HB,old,z,./images/JOMSHB.png,,,,,,,,,,,,,,,,,,,,,
,,,,,,,,,,,,,,,,,200119,18,2022-01-28_16h02.56.923,lexical_decision_task_DD_L3,2021.2.3,MacIntel,52.63157895,,,,,,,,,,,0.766,1,,,,,,,,,,,,,,m,1,0.766,,,,,,,,-0.2275,0.425,0,0,0,,0,76,76,25,1,WRIST,C,old,m,./images/WRIST.png,,,,,,,,,,,,,,,,,,,,,
,,,,,,,,,,,,,,,,,200119,18,2022-01-28_16h02.56.923,lexical_decision_task_DD_L3,2021.2.3,MacIntel,52.63157895,,,,,,,,,,,0.637,1,,,,,,,,,,,,,,m,1,0.637,,,,,,,,-0.2275,0.425,0,0,0,,0,77,77,53,1,CARPET,HB,old,m,./images/CARPETHB.png,,,,,,,,,,,,,,,,,,,,,
,,,,,,,,,,,,,,,,,200119,18,2022-01-28_16h02.56.923,lexical_decision_task_DD_L3,2021.2.3,MacIntel,52.63157895,,,,,,,,,,,0.975,1,,,,,,,,,,,,,,z,1,0.975,,,,,,,,-0.2275,0.425,0,0,0,,0,78,78,139,1,BLEAR,HB,old,z,./images/BLEARHB.png,,,,,,,,,,,,,,,,,,,,,
,,,,,,,,,,,,,,,,,200119,18,2022-01-28_16h02.56.923,lexical_decision_task_DD_L3,2021.2.3,MacIntel,52.63157895,,,,,,,,,,,0.662,1,,,,,,,,,,,,,,m,1,0.662,,,,,,,,-0.2275,0.425,0,0,0,,0,79,79,2,1,BEARD,HB,old,m,./images/BEARDHB.png,,,,,,,,,,,,,,,,,,,,,
,,,,,,,,,,,,,,,,,200119,18,2022-01-28_16h02.56.923,lexical_decision_task_DD_L3,2021.2.3,MacIntel,52.63157895,,,,,,,,,,,0.909,1,,,,,,,,,,,,,,z,1,0.909,,,,,,,,-0.2275,0.425,0,0,0,,0,80,80,165,1,TROWN,C,old,z,./images/TROWN.png,,,,,,,,,,,,,,,,,,,,,
,,,,,,,,,,,,,,,,,200119,18,2022-01-28_16h02.56.923,lexical_decision_task_DD_L3,2021.2.3,MacIntel,52.63157895,,,,,,,,,,,0.762,1,,,,,,,,,,,,,,z,1,0.762,,,,,,,,-0.2275,0.425,0,0,0,,0,81,81,138,1,PLICE,C,old,z,./images/PLICE.png,,,,,,,,,,,,,,,,,,,,,
,,,,,,,,,,,,,,,,,200119,18,2022-01-28_16h02.56.923,lexical_decision_task_DD_L3,2021.2.3,MacIntel,52.63157895,,,,,,,,,,,0.676,1,,,,,,,,,,,,,,z,1,0.676,,,,,,,,-0.2275,0.425,0,0,0,,0,82,82,161,1,BLAPS,LB,old,z,./images/BLAPSLB.png,,,,,,,,,,,,,,,,,,,,,
,,,,,,,,,,,,,,,,,200119,18,2022-01-28_16h02.56.923,lexical_decision_task_DD_L3,2021.2.3,MacIntel,52.63157895,,,,,,,,,,,0.509,1,,,,,,,,,,,,,,m,1,0.509,,,,,,,,-0.03875,-0.355,1,0,0,,0,83,83,6,1,SQUARE,LB,old,m,./images/SQUARELB.png,break_done_button,,,,,,,,,,,,,,,,,,,,
,,,,,,,,,,,,,,,,,200119,18,2022-01-28_16h02.56.923,lexical_decision_task_DD_L3,2021.2.3,MacIntel,52.63157895,,,,,,,,,,,0.851,1,,,,,,,,,,,,,,z,1,0.851,,,,,,,,-0.0375,-0.35625,0,0,0,,0,84,84,101,1,GLEET,LB,old,z,./images/GLEETLB.png,,,,,,,,,,,,,,,,,,,,,
,,,,,,,,,,,,,,,,,200119,18,2022-01-28_16h02.56.923,lexical_decision_task_DD_L3,2021.2.3,MacIntel,52.63157895,,,,,,,,,,,0.794,1,,,,,,,,,,,,,,z,1,0.794,,,,,,,,-0.0375,-0.35625,0,0,0,,0,85,85,84,1,HAXES,C,old,z,./images/HAXES.png,,,,,,,,,,,,,,,,,,,,,
,,,,,,,,,,,,,,,,,200119,18,2022-01-28_16h02.56.923,lexical_decision_task_DD_L3,2021.2.3,MacIntel,52.63157895,,,,,,,,,,,1.403,1,,,,,,,,,,,,,,z,1,1.403,,,,,,,,-0.0375,-0.35625,0,0,0,,0,86,86,120,1,RINED,C,old,z,./images/RINED.png,,,,,,,,,,,,,,,,,,,,,
,,,,,,,,,,,,,,,,,200119,18,2022-01-28_16h02.56.923,lexical_decision_task_DD_L3,2021.2.3,MacIntel,52.63157895,,,,,,,,,,,0.873,1,,,,,,,,,,,,,,z,1,0.873,,,,,,,,-0.0375,-0.35625,0,0,0,,0,87,87,96,1,KEAMS,C,old,z,./images/KEAMS.png,,,,,,,,,,,,,,,,,,,,,
,,,,,,,,,,,,,,,,,200119,18,2022-01-28_16h02.56.923,lexical_decision_task_DD_L3,2021.2.3,MacIntel,52.63157895,,,,,,,,,,,0.695,1,,,,,,,,,,,,,,z,1,0.695,,,,,,,,-0.0375,-0.35625,0,0,0,,0,88,88,117,1,STEEG,C,old,z,./images/STEEG.png,,,,,,,,,,,,,,,,,,,,,
,,,,,,,,,,,,,,,,,200119,18,2022-01-28_16h02.56.923,lexical_decision_task_DD_L3,2021.2.3,MacIntel,52.63157895,,,,,,,,,,,0.636,1,,,,,,,,,,,,,,m,1,0.636,,,,,,,,-0.0375,-0.35625,0,0,0,,0,89,89,15,1,GREASE,LB,old,m,./images/GREASELB.png,,,,,,,,,,,,,,,,,,,,,
,,,,,,,,,,,,,,,,,200119,18,2022-01-28_16h02.56.923,lexical_decision_task_DD_L3,2021.2.3,MacIntel,52.63157895,,,,,,,,,,,0.696,1,,,,,,,,,,,,,,z,1,0.696,,,,,,,,-0.0375,-0.35625,0,0,0,,0,90,90,131,1,NACES,LB,old,z,./images/NACESLB.png,,,,,,,,,,,,,,,,,,,,,
,,,,,,,,,,,,,,,,,200119,18,2022-01-28_16h02.56.923,lexical_decision_task_DD_L3,2021.2.3,MacIntel,52.63157895,,,,,,,,,,,0.732,0,,,,,,,,,,,,,,m,0,0.732,,,,,,,,-0.0375,-0.35625,0,0,0,,0,91,91,145,1,LAMEL,HB,old,z,./images/LAMELHB.png,,,,,,,,,,,,,,,,,,,,,
,,,,,,,,,,,,,,,,,200119,18,2022-01-28_16h02.56.923,lexical_decision_task_DD_L3,2021.2.3,MacIntel,52.63157895,,,,,,,,,,,2.707,1,,,,,,,,,,,,,,z,1,2.707,,,,,,,,-0.0375,-0.35625,0,0,0,,0,92,92,124,1,TUNCH,HB,old,z,./images/TUNCHHB.png,,,,,,,,,,,,,,,,,,,,,
,,,,,,,,,,,,,,,,,200119,18,2022-01-28_16h02.56.923,lexical_decision_task_DD_L3,2021.2.3,MacIntel,52.63157895,,,,,,,,,,,1.151,1,,,,,,,,,,,,,,z,1,1.151,,,,,,,,-0.0375,-0.35625,0,0,0,,0,93,93,160,1,VEETS,HB,old,z,./images/VEETSHB.png,,,,,,,,,,,,,,,,,,,,,
,,,,,,,,,,,,,,,,,200119,18,2022-01-28_16h02.56.923,lexical_decision_task_DD_L3,2021.2.3,MacIntel,52.63157895,,,,,,,,,,,2.06,1,,,,,,,,,,,,,,z,1,2.06,,,,,,,,-0.0375,-0.35625,0,0,0,,0,94,94,151,1,TINKY,HB,old,z,./images/TINKYHB.png,,,,,,,,,,,,,,,,,,,,,
,,,,,,,,,,,,,,,,,200119,18,2022-01-28_16h02.56.923,lexical_decision_task_DD_L3,2021.2.3,MacIntel,52.63157895,,,,,,,,,,,1.404,1,,,,,,,,,,,,,,z,1,1.404,,,,,,,,-0.0375,-0.35625,0,0,0,,0,95,95,106,1,CLUMS,HB,old,z,./images/CLUMSHB.png,,,,,,,,,,,,,,,,,,,,,
,,,,,,,,,,,,,,,,,200119,18,2022-01-28_16h02.56.923,lexical_decision_task_DD_L3,2021.2.3,MacIntel,52.63157895,,,,,,,,,,,1.083,1,,,,,,,,,,,,,,m,1,1.083,,,,,,,,-0.0375,-0.35625,0,0,0,,0,96,96,65,1,FARMER,HB,old,m,./images/FARMERHB.png,,,,,,,,,,,,,,,,,,,,,
,,,,,,,,,,,,,,,,,200119,18,2022-01-28_16h02.56.923,lexical_decision_task_DD_L3,2021.2.3,MacIntel,52.63157895,,,,,,,,,,,0.456,1,,,,,,,,,,,,,,m,1,0.456,,,,,,,,-0.0375,-0.35625,0,0,0,,0,97,97,82,1,SUNSET,C,old,m,./images/SUNSET.png,,,,,,,,,,,,,,,,,,,,,
,,,,,,,,,,,,,,,,,200119,18,2022-01-28_16h02.56.923,lexical_decision_task_DD_L3,2021.2.3,MacIntel,52.63157895,,,,,,,,,,,0.601,1,,,,,,,,,,,,,,z,1,0.601,,,,,,,,-0.0375,-0.35625,0,0,0,,0,98,98,123,1,SEDGE,C,old,z,./images/SEDGE.png,,,,,,,,,,,,,,,,,,,,,
,,,,,,,,,,,,,,,,,200119,18,2022-01-28_16h02.56.923,lexical_decision_task_DD_L3,2021.2.3,MacIntel,52.63157895,,,,,,,,,,,2.777,1,,,,,,,,,,,,,,z,1,2.777,,,,,,,,-0.0375,-0.35625,0,0,0,,0,99,99,166,1,SHORY,HB,old,z,./images/SHORYHB.png,,,,,,,,,,,,,,,,,,,,,
,,,,,,,,,,,,,,,,,200119,18,2022-01-28_16h02.56.923,lexical_decision_task_DD_L3,2021.2.3,MacIntel,52.63157895,,,,,,,,,,,0.733,1,,,,,,,,,,,,,,m,1,0.733,,,,,,,,-0.0375,-0.35625,0,0,0,,0,100,100,43,1,MOSQUE,C,old,m,./images/MOSQUE.png,,,,,,,,,,,,,,,,,,,,,
,,,,,,,,,,,,,,,,,200119,18,2022-01-28_16h02.56.923,lexical_decision_task_DD_L3,2021.2.3,MacIntel,52.63157895,,,,,,,,,,,0.666,1,,,,,,,,,,,,,,z,1,0.666,,,,,,,,-0.0375,-0.35625,0,0,0,,0,101,101,150,1,NOOLS,C,old,z,./images/NOOLS.png,,,,,,,,,,,,,,,,,,,,,
,,,,,,,,,,,,,,,,,200119,18,2022-01-28_16h02.56.923,lexical_decision_task_DD_L3,2021.2.3,MacIntel,52.63157895,,,,,,,,,,,0.676,1,,,,,,,,,,,,,,z,1,0.676,,,,,,,,-0.0375,-0.35625,0,0,0,,0,102,102,95,1,HANTY,LB,old,z,./images/HANTYLB.png,,,,,,,,,,,,,,,,,,,,,
,,,,,,,,,,,,,,,,,200119,18,2022-01-28_16h02.56.923,lexical_decision_task_DD_L3,2021.2.3,MacIntel,52.63157895,,,,,,,,,,,0.748,1,,,,,,,,,,,,,,z,1,0.748,,,,,,,,-0.0375,-0.35625,0,0,0,,0,103,103,135,1,JOODY,C,old,z,./images/JOODY.png,,,,,,,,,,,,,,,,,,,,,
,,,,,,,,,,,,,,,,,200119,18,2022-01-28_16h02.56.923,lexical_decision_task_DD_L3,2021.2.3,MacIntel,52.63157895,,,,,,,,,,,0.594,1,,,,,,,,,,,,,,m,1,0.594,,,,,,,,-0.0375,-0.35625,0,0,0,,0,104,104,38,1,LADDER,HB,old,m,./images/LADDERHB.png,,,,,,,,,,,,,,,,,,,,,
,,,,,,,,,,,,,,,,,200119,18,2022-01-28_16h02.56.923,lexical_decision_task_DD_L3,2021.2.3,MacIntel,52.63157895,,,,,,,,,,,0.745,0,,,,,,,,,,,,,,m,0,0.745,,,,,,,,-0.0375,-0.35625,0,0,0,,0,105,105,142,1,PLASK,HB,old,z,./images/PLASKHB.png,,,,,,,,,,,,,,,,,,,,,
,,,,,,,,,,,,,,,,,200119,18,2022-01-28_16h02.56.923,lexical_decision_task_DD_L3,2021.2.3,MacIntel,52.63157895,,,,,,,,,,,0.673,1,,,,,,,,,,,,,,z,1,0.673,,,,,,,,-0.0375,-0.35625,0,0,0,,0,106,106,93,1,SMONE,C,old,z,./images/SMONE.png,,,,,,,,,,,,,,,,,,,,,
,,,,,,,,,,,,,,,,,200119,18,2022-01-28_16h02.56.923,lexical_decision_task_DD_L3,2021.2.3,MacIntel,52.63157895,,,,,,,,,,,0.526,1,,,,,,,,,,,,,,m,1,0.526,,,,,,,,-0.0375,-0.35625,0,0,0,,0,107,107,46,1,PEARL,C,old,m,./images/PEARL.png,,,,,,,,,,,,,,,,,,,,,
,,,,,,,,,,,,,,,,,200119,18,2022-01-28_16h02.56.923,lexical_decision_task_DD_L3,2021.2.3,MacIntel,52.63157895,,,,,,,,,,,1.281,1,,,,,,,,,,,,,,z,1,1.281,,,,,,,,-0.0375,-0.35625,0,0,0,,0,108,108,118,1,BAVEL,HB,old,z,./images/BAVELHB.png,,,,,,,,,,,,,,,,,,,,,
,,,,,,,,,,,,,,,,,200119,18,2022-01-28_16h02.56.923,lexical_decision_task_DD_L3,2021.2.3,MacIntel,52.63157895,,,,,,,,,,,0.75,1,,,,,,,,,,,,,,m,1,0.75,,,,,,,,-0.0375,-0.35625,0,0,0,,0,109,109,18,1,JAGUAR,LB,old,m,./images/JAGUARLB.png,,,,,,,,,,,,,,,,,,,,,
,,,,,,,,,,,,,,,,,200119,18,2022-01-28_16h02.56.923,lexical_decision_task_DD_L3,2021.2.3,MacIntel,52.63157895,,,,,,,,,,,0.8,1,,,,,,,,,,,,,,m,1,0.8,,,,,,,,-0.0375,-0.35625,0,0,0,,0,110,110,49,1,DRUMS,C,old,m,./images/DRUMS.png,,,,,,,,,,,,,,,,,,,,,
,,,,,,,,,,,,,,,,,200119,18,2022-01-28_16h02.56.923,lexical_decision_task_DD_L3,2021.2.3,MacIntel,52.63157895,,,,,,,,,,,0.867,1,,,,,,,,,,,,,,m,1,0.867,,,,,,,,-0.0375,-0.35625,0,0,0,,0,111,111,68,1,TORCH,HB,old,m,./images/TORCHHB.png,,,,,,,,,,,,,,,,,,,,,
,,,,,,,,,,,,,,,,,200119,18,2022-01-28_16h02.56.923,lexical_decision_task_DD_L3,2021.2.3,MacIntel,52.63157895,,,,,,,,,,,0.882,1,,,,,,,,,,,,,,m,1,0.882,,,,,,,,-0.0375,-0.35625,0,0,0,,0,112,112,62,1,PURSE,HB,old,m,./images/PURSEHB.png,,,,,,,,,,,,,,,,,,,,,
,,,,,,,,,,,,,,,,,200119,18,2022-01-28_16h02.56.923,lexical_decision_task_DD_L3,2021.2.3,MacIntel,52.63157895,,,,,,,,,,,1.235,1,,,,,,,,,,,,,,z,1,1.235,,,,,,,,-0.0375,-0.35625,0,0,0,,0,113,113,85,1,CHULK,HB,old,z,./images/CHULKHB.png,,,,,,,,,,,,,,,,,,,,,
,,,,,,,,,,,,,,,,,200119,18,2022-01-28_16h02.56.923,lexical_decision_task_DD_L3,2021.2.3,MacIntel,52.63157895,,,,,,,,,,,0.664,1,,,,,,,,,,,,,,z,1,0.664,,,,,,,,-0.0375,-0.35625,0,0,0,,0,114,114,132,1,SCIFF,C,old,z,./images/SCIFF.png,,,,,,,,,,,,,,,,,,,,,
,,,,,,,,,,,,,,,,,200119,18,2022-01-28_16h02.56.923,lexical_decision_task_DD_L3,2021.2.3,MacIntel,52.63157895,,,,,,,,,,,1.147,0,,,,,,,,,,,,,,m,0,1.147,,,,,,,,-0.0375,-0.35625,0,0,0,,0,115,115,154,1,THINT,HB,old,z,./images/THINTHB.png,,,,,,,,,,,,,,,,,,,,,
,,,,,,,,,,,,,,,,,200119,18,2022-01-28_16h02.56.923,lexical_decision_task_DD_L3,2021.2.3,MacIntel,52.63157895,,,,,,,,,,,0.574,1,,,,,,,,,,,,,,z,1,0.574,,,,,,,,-0.0375,-0.35625,0,0,0,,0,116,116,137,1,JOOST,LB,old,z,./images/JOOSTLB.png,,,,,,,,,,,,,,,,,,,,,
,,,,,,,,,,,,,,,,,200119,18,2022-01-28_16h02.56.923,lexical_decision_task_DD_L3,2021.2.3,MacIntel,52.63157895,,,,,,,,,,,0.844,1,,,,,,,,,,,,,,m,1,0.844,,,,,,,,-0.0375,-0.35625,0,0,0,,0,117,117,70,1,URINE,C,old,m,./images/URINE.png,,,,,,,,,,,,,,,,,,,,,
,,,,,,,,,,,,,,,,,200119,18,2022-01-28_16h02.56.923,lexical_decision_task_DD_L3,2021.2.3,MacIntel,52.63157895,,,,,,,,,,,0.629,1,,,,,,,,,,,,,,z,1,0.629,,,,,,,,-0.0375,-0.35625,0,0,0,,0,118,118,125,1,MOOKY,LB,old,z,./images/MOOKYLB.png,,,,,,,,,,,,,,,,,,,,,
,,,,,,,,,,,,,,,,,200119,18,2022-01-28_16h02.56.923,lexical_decision_task_DD_L3,2021.2.3,MacIntel,52.63157895,,,,,,,,,,,0.567,1,,,,,,,,,,,,,,m,1,0.567,,,,,,,,-0.0375,-0.35625,0,0,0,,0,119,119,33,1,MAGGOT,LB,old,m,./images/MAGGOTLB.png,,,,,,,,,,,,,,,,,,,,,
,,,,,,,,,,,,,,,,,200119,18,2022-01-28_16h02.56.923,lexical_decision_task_DD_L3,2021.2.3,MacIntel,52.63157895,,,,,,,,,,,0.681,1,,,,,,,,,,,,,,m,1,0.681,,,,,,,,-0.0375,-0.35625,0,0,0,,0,120,120,1,1,PLANK,C,old,m,./images/PLANK.png,,,,,,,,,,,,,,,,,,,,,
,,,,,,,,,,,,,,,,,200119,18,2022-01-28_16h02.56.923,lexical_decision_task_DD_L3,2021.2.3,MacIntel,52.63157895,,,,,,,,,,,1.28,1,,,,,,,,,,,,,,z,1,1.28,,,,,,,,-0.0375,-0.35625,0,0,0,,0,121,121,88,1,GLUSH,HB,old,z,./images/GLUSHHB.png,,,,,,,,,,,,,,,,,,,,,
,,,,,,,,,,,,,,,,,200119,18,2022-01-28_16h02.56.923,lexical_decision_task_DD_L3,2021.2.3,MacIntel,52.63157895,,,,,,,,,,,0.517,1,,,,,,,,,,,,,,m,1,0.517,,,,,,,,-0.0375,-0.35625,0,0,0,,0,122,122,76,1,INFANT,C,old,m,./images/INFANT.png,,,,,,,,,,,,,,,,,,,,,
,,,,,,,,,,,,,,,,,200119,18,2022-01-28_16h02.56.923,lexical_decision_task_DD_L3,2021.2.3,MacIntel,52.63157895,,,,,,,,,,,0.564,1,,,,,,,,,,,,,,z,1,0.564,,,,,,,,-0.0375,-0.35625,0,0,0,,0,123,123,126,1,GUELS,C,old,z,./images/GUELS.png,,,,,,,,,,,,,,,,,,,,,
,,,,,,,,,,,,,,,,,200119,18,2022-01-28_16h02.56.923,lexical_decision_task_DD_L3,2021.2.3,MacIntel,52.63157895,,,,,,,,,,,0.545,1,,,,,,,,,,,,,,m,1,0.545,,,,,,,,-0.0375,-0.35625,0,0,0,,0,124,124,20,1,CRADLE,HB,old,m,./images/CRADLEHB.png,,,,,,,,,,,,,,,,,,,,,
,,,,,,,,,,,,,,,,,200119,18,2022-01-28_16h02.56.923,lexical_decision_task_DD_L3,2021.2.3,MacIntel,52.63157895,,,,,,,,,,,0.668,1,,,,,,,,,,,,,,z,1,0.668,,,,,,,,-0.03625,-0.385,1,0,0,,0,125,125,114,1,RIKES,C,old,z,./images/RIKES.png,break_done_button,,,,,,,,,,,,,,,,,,,,
,,,,,,,,,,,,,,,,,200119,18,2022-01-28_16h02.56.923,lexical_decision_task_DD_L3,2021.2.3,MacIntel,52.63157895,,,,,,,,,,,1.148,1,,,,,,,,,,,,,,z,1,1.148,,,,,,,,-0.03625,-0.385,0,0,0,,0,126,126,91,1,SHENS,HB,old,z,./images/SHENSHB.png,,,,,,,,,,,,,,,,,,,,,
,,,,,,,,,,,,,,,,,200119,18,2022-01-28_16h02.56.923,lexical_decision_task_DD_L3,2021.2.3,MacIntel,52.63157895,,,,,,,,,,,0.844,1,,,,,,,,,,,,,,z,1,0.844,,,,,,,,-0.03625,-0.385,0,0,0,,0,127,127,163,1,GAMBA,HB,old,z,./images/GAMBAHB.png,,,,,,,,,,,,,,,,,,,,,
,,,,,,,,,,,,,,,,,200119,18,2022-01-28_16h02.56.923,lexical_decision_task_DD_L3,2021.2.3,MacIntel,52.63157895,,,,,,,,,,,0.434,1,,,,,,,,,,,,,,m,1,0.434,,,,,,,,-0.03625,-0.385,0,0,0,,0,128,128,52,1,BANNER,C,old,m,./images/BANNER.png,,,,,,,,,,,,,,,,,,,,,
,,,,,,,,,,,,,,,,,200119,18,2022-01-28_16h02.56.923,lexical_decision_task_DD_L3,2021.2.3,MacIntel,52.63157895,,,,,,,,,,,0.51,0,,,,,,,,,,,,,,m,0,0.51,,,,,,,,-0.03625,-0.385,0,0,0,,0,129,129,149,1,VEASE,LB,old,z,./images/VEASELB.png,,,,,,,,,,,,,,,,,,,,,
,,,,,,,,,,,,,,,,,200119,18,2022-01-28_16h02.56.923,lexical_decision_task_DD_L3,2021.2.3,MacIntel,52.63157895,,,,,,,,,,,1.265,1,,,,,,,,,,,,,,m,1,1.265,,,,,,,,-0.03625,-0.385,0,0,0,,0,130,130,16,1,PENCE,C,old,m,./images/PENCE.png,,,,,,,,,,,,,,,,,,,,,
,,,,,,,,,,,,,,,,,200119,18,2022-01-28_16h02.56.923,lexical_decision_task_DD_L3,2021.2.3,MacIntel,52.63157895,,,,,,,,,,,2.386,1,,,,,,,,,,,,,,z,1,2.386,,,,,,,,-0.03625,-0.385,0,0,0,,0,131,131,134,1,TROSS,LB,old,z,./images/TROSSLB.png,,,,,,,,,,,,,,,,,,,,,
,,,,,,,,,,,,,,,,,200119,18,2022-01-28_16h02.56.923,lexical_decision_task_DD_L3,2021.2.3,MacIntel,52.63157895,,,,,,,,,,,0.824,1,,,,,,,,,,,,,,m,1,0.824,,,,,,,,-0.03625,-0.385,0,0,0,,0,132,132,58,1,BABOON,C,old,m,./images/BABOON.png,,,,,,,,,,,,,,,,,,,,,
,,,,,,,,,,,,,,,,,200119,18,2022-01-28_16h02.56.923,lexical_decision_task_DD_L3,2021.2.3,MacIntel,52.63157895,,,,,,,,,,,1.032,1,,,,,,,,,,,,,,z,1,1.032,,,,,,,,-0.03625,-0.385,0,0,0,,0,133,133,102,1,DULLE,C,old,z,./images/DULLE.png,,,,,,,,,,,,,,,,,,,,,
,,,,,,,,,,,,,,,,,200119,18,2022-01-28_16h02.56.923,lexical_decision_task_DD_L3,2021.2.3,MacIntel,52.63157895,,,,,,,,,,,0.866,1,,,,,,,,,,,,,,z,1,0.866,,,,,,,,-0.03625,-0.385,0,0,0,,0,134,134,119,1,PAFER,LB,old,z,./images/PAFERLB.png,,,,,,,,,,,,,,,,,,,,,
,,,,,,,,,,,,,,,,,200119,18,2022-01-28_16h02.56.923,lexical_decision_task_DD_L3,2021.2.3,MacIntel,52.63157895,,,,,,,,,,,0.556,1,,,,,,,,,,,,,,m,1,0.556,,,,,,,,-0.03625,-0.385,0,0,0,,0,135,135,60,1,TWINS,LB,old,m,./images/TWINSLB.png,,,,,,,,,,,,,,,,,,,,,
,,,,,,,,,,,,,,,,,200119,18,2022-01-28_16h02.56.923,lexical_decision_task_DD_L3,2021.2.3,MacIntel,52.63157895,,,,,,,,,,,0.734,1,,,,,,,,,,,,,,m,1,0.734,,,,,,,,-0.03625,-0.385,0,0,0,,0,136,136,57,1,MOOSE,LB,old,m,./images/MOOSELB.png,,,,,,,,,,,,,,,,,,,,,
,,,,,,,,,,,,,,,,,200119,18,2022-01-28_16h02.56.923,lexical_decision_task_DD_L3,2021.2.3,MacIntel,52.63157895,,,,,,,,,,,1.48,1,,,,,,,,,,,,,,z,1,1.48,,,,,,,,-0.03625,-0.385,0,0,0,,0,137,137,164,1,SGREW,LB,old,z,./images/SGREWLB.png,,,,,,,,,,,,,,,,,,,,,
,,,,,,,,,,,,,,,,,200119,18,2022-01-28_16h02.56.923,lexical_decision_task_DD_L3,2021.2.3,MacIntel,52.63157895,,,,,,,,,,,0.884,1,,,,,,,,,,,,,,m,1,0.884,,,,,,,,-0.03625,-0.385,0,0,0,,0,138,138,5,1,PASTA,HB,old,m,./images/PASTAHB.png,,,,,,,,,,,,,,,,,,,,,
,,,,,,,,,,,,,,,,,200119,18,2022-01-28_16h02.56.923,lexical_decision_task_DD_L3,2021.2.3,MacIntel,52.63157895,,,,,,,,,,,1.261,1,,,,,,,,,,,,,,z,1,1.261,,,,,,,,-0.03625,-0.385,0,0,0,,0,139,139,136,1,WERVE,HB,old,z,./images/WERVEHB.png,,,,,,,,,,,,,,,,,,,,,
,,,,,,,,,,,,,,,,,200119,18,2022-01-28_16h02.56.923,lexical_decision_task_DD_L3,2021.2.3,MacIntel,52.63157895,,,,,,,,,,,0.5,1,,,,,,,,,,,,,,m,1,0.5,,,,,,,,-0.03625,-0.385,0,0,0,,0,140,140,30,1,STORM,LB,old,m,./images/STORMLB.png,,,,,,,,,,,,,,,,,,,,,
,,,,,,,,,,,,,,,,,200119,18,2022-01-28_16h02.56.923,lexical_decision_task_DD_L3,2021.2.3,MacIntel,52.63157895,,,,,,,,,,,0.784,1,,,,,,,,,,,,,,z,1,0.784,,,,,,,,-0.03625,-0.385,0,0,0,,0,141,141,146,1,MOOST,LB,old,z,./images/MOOSTLB.png,,,,,,,,,,,,,,,,,,,,,
,,,,,,,,,,,,,,,,,200119,18,2022-01-28_16h02.56.923,lexical_decision_task_DD_L3,2021.2.3,MacIntel,52.63157895,,,,,,,,,,,0.582,1,,,,,,,,,,,,,,m,1,0.582,,,,,,,,-0.03625,-0.385,0,0,0,,0,142,142,24,1,SCREW,LB,old,m,./images/SCREWLB.png,,,,,,,,,,,,,,,,,,,,,
,,,,,,,,,,,,,,,,,200119,18,2022-01-28_16h02.56.923,lexical_decision_task_DD_L3,2021.2.3,MacIntel,52.63157895,,,,,,,,,,,1.004,1,,,,,,,,,,,,,,m,1,1.004,,,,,,,,-0.03625,-0.385,0,0,0,,0,143,143,14,1,PICKLE,HB,old,m,./images/PICKLEHB.png,,,,,,,,,,,,,,,,,,,,,
,,,,,,,,,,,,,,,,,200119,18,2022-01-28_16h02.56.923,lexical_decision_task_DD_L3,2021.2.3,MacIntel,52.63157895,,,,,,,,,,,0.628,1,,,,,,,,,,,,,,m,1,0.628,,,,,,,,-0.03625,-0.385,0,0,0,,0,144,144,78,1,LITTER,LB,old,m,./images/LITTERLB.png,,,,,,,,,,,,,,,,,,,,,
,,,,,,,,,,,,,,,,,200119,18,2022-01-28_16h02.56.923,lexical_decision_task_DD_L3,2021.2.3,MacIntel,52.63157895,,,,,,,,,,,0.651,1,,,,,,,,,,,,,,z,1,0.651,,,,,,,,-0.03625,-0.385,0,0,0,,0,145,145,156,1,HIXES,C,old,z,./images/HIXES.png,,,,,,,,,,,,,,,,,,,,,
,,,,,,,,,,,,,,,,,200119,18,2022-01-28_16h02.56.923,lexical_decision_task_DD_L3,2021.2.3,MacIntel,52.63157895,,,,,,,,,,,1.27,1,,,,,,,,,,,,,,z,1,1.27,,,,,,,,-0.03625,-0.385,0,0,0,,0,146,146,159,1,CUDDY,C,old,z,./images/CUDDY.png,,,,,,,,,,,,,,,,,,,,,
,,,,,,,,,,,,,,,,,200119,18,2022-01-28_16h02.56.923,lexical_decision_task_DD_L3,2021.2.3,MacIntel,52.63157895,,,,,,,,,,,0.602,1,,,,,,,,,,,,,,m,1,0.602,,,,,,,,-0.03625,-0.385,0,0,0,,0,147,147,27,1,ATTIC,LB,old,m,./images/ATTICLB.png,,,,,,,,,,,,,,,,,,,,,
,,,,,,,,,,,,,,,,,200119,18,2022-01-28_16h02.56.923,lexical_decision_task_DD_L3,2021.2.3,MacIntel,52.63157895,,,,,,,,,,,1.831,1,,,,,,,,,,,,,,z,1,1.831,,,,,,,,-0.03625,-0.385,0,0,0,,0,148,148,121,1,CEERS,HB,old,z,./images/CEERSHB.png,,,,,,,,,,,,,,,,,,,,,
,,,,,,,,,,,,,,,,,200119,18,2022-01-28_16h02.56.923,lexical_decision_task_DD_L3,2021.2.3,MacIntel,52.63157895,,,,,,,,,,,0.899,1,,,,,,,,,,,,,,z,1,0.899,,,,,,,,-0.03625,-0.385,0,0,0,,0,149,149,109,1,BURGE,HB,old,z,./images/BURGEHB.png,,,,,,,,,,,,,,,,,,,,,
,,,,,,,,,,,,,,,,,200119,18,2022-01-28_16h02.56.923,lexical_decision_task_DD_L3,2021.2.3,MacIntel,52.63157895,,,,,,,,,,,0.77,1,,,,,,,,,,,,,,m,1,0.77,,,,,,,,-0.03625,-0.385,0,0,0,,0,150,150,80,1,WEASEL,HB,old,m,./images/WEASELHB.png,,,,,,,,,,,,,,,,,,,,,
,,,,,,,,,,,,,,,,,200119,18,2022-01-28_16h02.56.923,lexical_decision_task_DD_L3,2021.2.3,MacIntel,52.63157895,,,,,,,,,,,1.253,1,,,,,,,,,,,,,,z,1,1.253,,,,,,,,-0.03625,-0.385,0,0,0,,0,151,151,98,1,BAMPS,LB,old,z,./images/BAMPSLB.png,,,,,,,,,,,,,,,,,,,,,
,,,,,,,,,,,,,,,,,200119,18,2022-01-28_16h02.56.923,lexical_decision_task_DD_L3,2021.2.3,MacIntel,52.63157895,,,,,,,,,,,0.86,0,,,,,,,,,,,,,,z,0,0.86,,,,,,,,-0.03625,-0.385,0,0,0,,0,152,152,72,1,NOOSE,LB,old,m,./images/NOOSELB.png,,,,,,,,,,,,,,,,,,,,,
,,,,,,,,,,,,,,,,,200119,18,2022-01-28_16h02.56.923,lexical_decision_task_DD_L3,2021.2.3,MacIntel,52.63157895,,,,,,,,,,,0.684,1,,,,,,,,,,,,,,z,1,0.684,,,,,,,,-0.03625,-0.385,0,0,0,,0,153,153,108,1,GRUET,C,old,z,./images/GRUET.png,,,,,,,,,,,,,,,,,,,,,
,,,,,,,,,,,,,,,,,200119,18,2022-01-28_16h02.56.923,lexical_decision_task_DD_L3,2021.2.3,MacIntel,52.63157895,,,,,,,,,,,0.682,1,,,,,,,,,,,,,,z,1,0.682,,,,,,,,-0.03625,-0.385,0,0,0,,0,154,154,141,1,PLEET,C,old,z,./images/PLEET.png,,,,,,,,,,,,,,,,,,,,,
,,,,,,,,,,,,,,,,,200119,18,2022-01-28_16h02.56.923,lexical_decision_task_DD_L3,2021.2.3,MacIntel,52.63157895,,,,,,,,,,,0.534,1,,,,,,,,,,,,,,m,1,0.534,,,,,,,,-0.03625,-0.385,0,0,0,,0,155,155,67,1,SAILOR,C,old,m,./images/SAILOR.png,,,,,,,,,,,,,,,,,,,,,
,,,,,,,,,,,,,,,,,200119,18,2022-01-28_16h02.56.923,lexical_decision_task_DD_L3,2021.2.3,MacIntel,52.63157895,,,,,,,,,,,0.702,1,,,,,,,,,,,,,,m,1,0.702,,,,,,,,-0.03625,-0.385,0,0,0,,0,156,156,28,1,FALCON,C,old,m,./images/FALCON.png,,,,,,,,,,,,,,,,,,,,,
,,,,,,,,,,,,,,,,,200119,18,2022-01-28_16h02.56.923,lexical_decision_task_DD_L3,2021.2.3,MacIntel,52.63157895,,,,,,,,,,,1.637,1,,,,,,,,,,,,,,m,1,1.637,,,,,,,,-0.03625,-0.385,0,0,0,,0,157,157,17,1,SKIING,HB,old,m,./images/SKIINGHB.png,,,,,,,,,,,,,,,,,,,,,
,,,,,,,,,,,,,,,,,200119,18,2022-01-28_16h02.56.923,lexical_decision_task_DD_L3,2021.2.3,MacIntel,52.63157895,,,,,,,,,,,1.314,1,,,,,,,,,,,,,,z,1,1.314,,,,,,,,-0.03625,-0.385,0,0,0,,0,158,158,100,1,DRIBS,HB,old,z,./images/DRIBSHB.png,,,,,,,,,,,,,,,,,,,,,
,,,,,,,,,,,,,,,,,200119,18,2022-01-28_16h02.56.923,lexical_decision_task_DD_L3,2021.2.3,MacIntel,52.63157895,,,,,,,,,,,0.984,1,,,,,,,,,,,,,,z,1,0.984,,,,,,,,-0.03625,-0.385,0,0,0,,0,159,159,128,1,GRIFT,LB,old,z,./images/GRIFTLB.png,,,,,,,,,,,,,,,,,,,,,
,,,,,,,,,,,,,,,,,200119,18,2022-01-28_16h02.56.923,lexical_decision_task_DD_L3,2021.2.3,MacIntel,52.63157895,,,,,,,,,,,0.618,1,,,,,,,,,,,,,,z,1,0.618,,,,,,,,-0.03625,-0.385,0,0,0,,0,160,160,167,1,ZONET,LB,old,z,./images/ZONETLB.png,,,,,,,,,,,,,,,,,,,,,
,,,,,,,,,,,,,,,,,200119,18,2022-01-28_16h02.56.923,lexical_decision_task_DD_L3,2021.2.3,MacIntel,52.63157895,,,,,,,,,,,0.55,1,,,,,,,,,,,,,,z,1,0.55,,,,,,,,-0.03625,-0.385,0,0,0,,0,161,161,92,1,PAIMS,LB,old,z,./images/PAIMSLB.png,,,,,,,,,,,,,,,,,,,,,
,,,,,,,,,,,,,,,,,200119,18,2022-01-28_16h02.56.923,lexical_decision_task_DD_L3,2021.2.3,MacIntel,52.63157895,,,,,,,,,,,0.627,1,,,,,,,,,,,,,,z,1,0.627,,,,,,,,-0.03625,-0.385,0,0,0,,0,162,162,158,1,EGECT,LB,old,z,./images/EGECTLB.png,,,,,,,,,,,,,,,,,,,,,
,,,,,,,,,,,,,,,,,200119,18,2022-01-28_16h02.56.923,lexical_decision_task_DD_L3,2021.2.3,MacIntel,52.63157895,,,,,,,,,,,0.759,1,,,,,,,,,,,,,,m,1,0.759,,,,,,,,-0.03625,-0.385,0,0,0,,0,163,163,66,1,SWEAT,LB,old,m,./images/SWEATLB.png,,,,,,,,,,,,,,,,,,,,,
,,,,,,,,,,,,,,,,,200119,18,2022-01-28_16h02.56.923,lexical_decision_task_DD_L3,2021.2.3,MacIntel,52.63157895,,,,,,,,,,,0.7,1,,,,,,,,,,,,,,z,1,0.7,,,,,,,,-0.03625,-0.385,0,0,0,,0,164,164,144,1,NAIRY,C,old,z,./images/NAIRY.png,,,,,,,,,,,,,,,,,,,,,
,,,,,,,,,,,,,,,,,200119,18,2022-01-28_16h02.56.923,lexical_decision_task_DD_L3,2021.2.3,MacIntel,52.63157895,,,,,,,,,,,0.826,1,,,,,,,,,,,,,,z,1,0.826,,,,,,,,-0.03625,-0.385,0,0,0,,0,165,165,104,1,GITTY,LB,old,z,./images/GITTYLB.png,,,,,,,,,,,,,,,,,,,,,
,,,,,,,,,,,,,,,,,200119,18,2022-01-28_16h02.56.923,lexical_decision_task_DD_L3,2021.2.3,MacIntel,52.63157895,,,,,,,,,,,0.701,1,,,,,,,,,,,,,,m,1,0.701,,,,,,,,-0.03625,-0.385,0,0,0,,0,166,166,13,1,MOTOR,C,old,m,./images/MOTOR.png,,,,,,,,,,,,,,,,,,,,,
,,,,,,,,,,,,,,,,,200119,18,2022-01-28_16h02.56.923,lexical_decision_task_DD_L3,2021.2.3,MacIntel,52.63157895,,,,,,,,,,,0.613,1,,,,,,,,,,,,,,m,1,0.613,,,,,,,,-0.03625,-0.385,0,0,0,,0,167,167,45,1,KITTEN,LB,old,m,./images/KITTENLB.png,,,,,,,,,,,,,,,,,,,,,
,-0.05375,-0.39125,1,0,0,instr_done_button,,,,,,1,test,"In the next phase you will be presented with the words from the the first phase. Your job is to decide whether you remember seeing the word or not. If you remember seeing the word press ""old"" or type ""m"". If you do not remember seeing the word press ""new"" or type ""z"". Please press the space bar or click on continue to begin. ",,,200119,18,2022-01-28_16h02.56.923,lexical_decision_task_DD_L3,2021.2.3,MacIntel,52.63157895,,,,,,,,,,,,,,,,,,,,,,,,,,,,,,,,,,,,,,,,,,,,,,,,,,,,,0,0,0,0,1,,,,,,,,,,,,,,,
,-0.05375,-0.39375,1,0,0,instr_done_button,,,,,,1,test,"In the next phase you will be presented with the words from the the first phase. Your job is to decide whether you remember seeing the word or not. If you remember seeing the word press ""old"" or type ""m"". If you do not remember seeing the word press ""new"" or type ""z"". Please press the space bar or click on continue to begin. ",,,200119,18,2022-01-28_16h02.56.923,lexical_decision_task_DD_L3,2021.2.3,MacIntel,52.63157895,,,,,,,,,,,,,,,,,,,,,,,,,,,,,,,,,,,,,,,,,,,,,,,,,,,,,1,0,1,0,1,,,,,,,,,,,,,,,
,-0.05125,-0.385,1,0,0,instr_done_button,,,,,,1,test,"In the next phase you will be presented with the words from the the first phase. Your job is to decide whether you remember seeing the word or not. If you remember seeing the word press ""old"" or type ""m"". If you do not remember seeing the word press ""new"" or type ""z"". Please press the space bar or click on continue to begin. ",,,200119,18,2022-01-28_16h02.56.923,lexical_decision_task_DD_L3,2021.2.3,MacIntel,52.63157895,,,,,,,,,,,,,,,,,,,,,,,,,,,,,,,,,,,,,,,,,,,,,,,,,,,,,2,0,2,0,1,,,,,,,,,,,,,,,
,-0.03,-0.395,1,0,0,instr_done_button,,,,,,1,test,"In the next phase you will be presented with the words from the the first phase. Your job is to decide whether you remember seeing the word or not. If you remember seeing the word press ""old"" or type ""m"". If you do not remember seeing the word press ""new"" or type ""z"". Please press the space bar or click on continue to begin. ",,,200119,18,2022-01-28_16h02.56.923,lexical_decision_task_DD_L3,2021.2.3,MacIntel,52.63157895,,,,,,,,,,,,,,,,,,,,,,,,,,,,,,,,,,,,,,,,,,,,,,,,,,,,,3,0,3,0,1,,,,,,,,,,,,,,,
,-0.0475,-0.3875,1,0,0,instr_done_button,,,,,,1,test,"In the next phase you will be presented with the words from the the first phase. Your job is to decide whether you remember seeing the word or not. If you remember seeing the word press ""old"" or type ""m"". If you do not remember seeing the word press ""new"" or type ""z"". Please press the space bar or click on continue to begin. ",,,200119,18,2022-01-28_16h02.56.923,lexical_decision_task_DD_L3,2021.2.3,MacIntel,52.63157895,,,,,,,,,,,,,,,,,,,,,,,,,,,,,,,,,,,,,,,,,,,,,,,,,,,,,4,0,4,0,1,,,,,,,,,,,,,,,
,,,,,,,,,,,,,,,,,200119,18,2022-01-28_16h02.56.923,lexical_decision_task_DD_L3,2021.2.3,MacIntel,52.63157895,,,,,,,,,,,2.771,1,,,,,,,,,,,,,,,,,,,,,,,,-0.0475,-0.3875,0,0,0,,,,,,,SNACK,C,m,m,./images/SNACK.png,,,,,,,m,1,2.771,,,,,,,,0,0,0,73,1
,,,,,,,,,,,,,,,,,200119,18,2022-01-28_16h02.56.923,lexical_decision_task_DD_L3,2021.2.3,MacIntel,52.63157895,,,,,,,,,,,1.114,1,,,,,,,,,,,,,,,,,,,,,,,,-0.0475,-0.3875,0,0,0,,,,,,,SHIELD,LB,z,m,./images/SHIELDLB.png,,,,,,,z,1,1.114,,,,,,,,0,1,1,132,1
,,,,,,,,,,,,,,,,,200119,18,2022-01-28_16h02.56.923,lexical_decision_task_DD_L3,2021.2.3,MacIntel,52.63157895,,,,,,,,,,,0.794,1,,,,,,,,,,,,,,,,,,,,,,,,-0.0475,-0.3875,0,0,0,,,,,,,MAMMAL,HB,z,m,./images/MAMMALHB.png,,,,,,,z,1,0.794,,,,,,,,0,2,2,146,1
,,,,,,,,,,,,,,,,,200119,18,2022-01-28_16h02.56.923,lexical_decision_task_DD_L3,2021.2.3,MacIntel,52.63157895,,,,,,,,,,,0.825,1,,,,,,,,,,,,,,,,,,,,,,,,-0.0475,-0.3875,0,0,0,,,,,,,LAGOON,HB,z,m,./images/LAGOONHB.png,,,,,,,z,1,0.825,,,,,,,,0,3,3,131,1
,,,,,,,,,,,,,,,,,200119,18,2022-01-28_16h02.56.923,lexical_decision_task_DD_L3,2021.2.3,MacIntel,52.63157895,,,,,,,,,,,1.196,1,,,,,,,,,,,,,,,,,,,,,,,,-0.0475,-0.3875,0,0,0,,,,,,,TOWEL,C,z,m,./images/TOWEL.png,,,,,,,z,1,1.196,,,,,,,,0,4,4,85,1
,,,,,,,,,,,,,,,,,200119,18,2022-01-28_16h02.56.923,lexical_decision_task_DD_L3,2021.2.3,MacIntel,52.63157895,,,,,,,,,,,1.083,1,,,,,,,,,,,,,,,,,,,,,,,,-0.0475,-0.3875,0,0,0,,,,,,,INFANT,C,m,m,./images/INFANT.png,,,,,,,m,1,1.083,,,,,,,,0,5,5,76,1
,,,,,,,,,,,,,,,,,200119,18,2022-01-28_16h02.56.923,lexical_decision_task_DD_L3,2021.2.3,MacIntel,52.63157895,,,,,,,,,,,0.842,0,,,,,,,,,,,,,,,,,,,,,,,,-0.0475,-0.3875,0,0,0,,,,,,,CRADLE,HB,m,m,./images/CRADLEHB.png,,,,,,,z,0,0.842,,,,,,,,0,6,6,20,1
,,,,,,,,,,,,,,,,,200119,18,2022-01-28_16h02.56.923,lexical_decision_task_DD_L3,2021.2.3,MacIntel,52.63157895,,,,,,,,,,,1.197,0,,,,,,,,,,,,,,,,,,,,,,,,-0.0475,-0.3875,0,0,0,,,,,,,BIRTH,C,m,m,./images/BIRTH.png,,,,,,,z,0,1.197,,,,,,,,0,7,7,37,1
,,,,,,,,,,,,,,,,,200119,18,2022-01-28_16h02.56.923,lexical_decision_task_DD_L3,2021.2.3,MacIntel,52.63157895,,,,,,,,,,,0.816,1,,,,,,,,,,,,,,,,,,,,,,,,-0.0475,-0.3875,0,0,0,,,,,,,PARADE,HB,z,m,./images/PARADEHB.png,,,,,,,z,1,0.816,,,,,,,,0,8,8,101,1
,,,,,,,,,,,,,,,,,200119,18,2022-01-28_16h02.56.923,lexical_decision_task_DD_L3,2021.2.3,MacIntel,52.63157895,,,,,,,,,,,0.53,1,,,,,,,,,,,,,,,,,,,,,,,,-0.0475,-0.3875,0,0,0,,,,,,,POSTER,HB,z,m,./images/POSTERHB.png,,,,,,,z,1,0.53,,,,,,,,0,9,9,137,1
,,,,,,,,,,,,,,,,,200119,18,2022-01-28_16h02.56.923,lexical_decision_task_DD_L3,2021.2.3,MacIntel,52.63157895,,,,,,,,,,,0.762,1,,,,,,,,,,,,,,,,,,,,,,,,-0.0475,-0.3875,0,0,0,,,,,,,CASINO,C,z,m,./images/CASINO.png,,,,,,,z,1,0.762,,,,,,,,0,10,10,112,1
,,,,,,,,,,,,,,,,,200119,18,2022-01-28_16h02.56.923,lexical_decision_task_DD_L3,2021.2.3,MacIntel,52.63157895,,,,,,,,,,,0.635,1,,,,,,,,,,,,,,,,,,,,,,,,-0.0475,-0.3875,0,0,0,,,,,,,BANNER,C,m,m,./images/BANNER.png,,,,,,,m,1,0.635,,,,,,,,0,11,11,52,1
,,,,,,,,,,,,,,,,,200119,18,2022-01-28_16h02.56.923,lexical_decision_task_DD_L3,2021.2.3,MacIntel,52.63157895,,,,,,,,,,,0.82,1,,,,,,,,,,,,,,,,,,,,,,,,-0.0475,-0.3875,0,0,0,,,,,,,RULER,C,z,m,./images/RULER.png,,,,,,,z,1,0.82,,,,,,,,0,12,12,163,1
,,,,,,,,,,,,,,,,,200119,18,2022-01-28_16h02.56.923,lexical_decision_task_DD_L3,2021.2.3,MacIntel,52.63157895,,,,,,,,,,,0.66,0,,,,,,,,,,,,,,,,,,,,,,,,-0.0475,-0.3875,0,0,0,,,,,,,FENCE,HB,z,m,./images/FENCEHB.png,,,,,,,m,0,0.66,,,,,,,,0,13,13,98,1
,,,,,,,,,,,,,,,,,200119,18,2022-01-28_16h02.56.923,lexical_decision_task_DD_L3,2021.2.3,MacIntel,52.63157895,,,,,,,,,,,1.468,1,,,,,,,,,,,,,,,,,,,,,,,,-0.0475,-0.3875,0,0,0,,,,,,,MUMMY,C,z,m,./images/MUMMY.png,,,,,,,z,1,1.468,,,,,,,,0,14,14,130,1
,,,,,,,,,,,,,,,,,200119,18,2022-01-28_16h02.56.923,lexical_decision_task_DD_L3,2021.2.3,MacIntel,52.63157895,,,,,,,,,,,0.58,1,,,,,,,,,,,,,,,,,,,,,,,,-0.0475,-0.3875,0,0,0,,,,,,,MIDGET,C,z,m,./images/MIDGET.png,,,,,,,z,1,0.58,,,,,,,,0,15,15,160,1
,,,,,,,,,,,,,,,,,200119,18,2022-01-28_16h02.56.923,lexical_decision_task_DD_L3,2021.2.3,MacIntel,52.63157895,,,,,,,,,,,0.778,1,,,,,,,,,,,,,,,,,,,,,,,,-0.0475,-0.3875,0,0,0,,,,,,,SQUARE,LB,m,m,./images/SQUARELB.png,,,,,,,m,1,0.778,,,,,,,,0,16,16,6,1
,,,,,,,,,,,,,,,,,200119,18,2022-01-28_16h02.56.923,lexical_decision_task_DD_L3,2021.2.3,MacIntel,52.63157895,,,,,,,,,,,0.762,0,,,,,,,,,,,,,,,,,,,,,,,,-0.0475,-0.3875,0,0,0,,,,,,,PURSE,HB,m,m,./images/PURSEHB.png,,,,,,,z,0,0.762,,,,,,,,0,17,17,62,1
,,,,,,,,,,,,,,,,,200119,18,2022-01-28_16h02.56.923,lexical_decision_task_DD_L3,2021.2.3,MacIntel,52.63157895,,,,,,,,,,,0.877,1,,,,,,,,,,,,,,,,,,,,,,,,-0.0475,-0.3875,0,0,0,,,,,,,HEATER,HB,z,m,./images/HEATERHB.png,,,,,,,z,1,0.877,,,,,,,,0,18,18,140,1
,,,,,,,,,,,,,,,,,200119,18,2022-01-28_16h02.56.923,lexical_decision_task_DD_L3,2021.2.3,MacIntel,52.63157895,,,,,,,,,,,0.633,1,,,,,,,,,,,,,,,,,,,,,,,,-0.0475,-0.3875,0,0,0,,,,,,,BLOKE,LB,z,m,./images/BLOKELB.png,,,,,,,z,1,0.633,,,,,,,,0,19,19,96,1
,,,,,,,,,,,,,,,,,200119,18,2022-01-28_16h02.56.923,lexical_decision_task_DD_L3,2021.2.3,MacIntel,52.63157895,,,,,,,,,,,0.645,1,,,,,,,,,,,,,,,,,,,,,,,,-0.0475,-0.3875,0,0,0,,,,,,,POKER,C,z,m,./images/POKER.png,,,,,,,z,1,0.645,,,,,,,,0,20,20,151,1
,,,,,,,,,,,,,,,,,200119,18,2022-01-28_16h02.56.923,lexical_decision_task_DD_L3,2021.2.3,MacIntel,52.63157895,,,,,,,,,,,0.563,1,,,,,,,,,,,,,,,,,,,,,,,,-0.0475,-0.3875,0,0,0,,,,,,,KITTEN,LB,m,m,./images/KITTENLB.png,,,,,,,m,1,0.563,,,,,,,,0,21,21,45,1
,,,,,,,,,,,,,,,,,200119,18,2022-01-28_16h02.56.923,lexical_decision_task_DD_L3,2021.2.3,MacIntel,52.63157895,,,,,,,,,,,0.546,1,,,,,,,,,,,,,,,,,,,,,,,,-0.0475,-0.3875,0,0,0,,,,,,,MALLET,HB,m,m,./images/MALLETHB.png,,,,,,,m,1,0.546,,,,,,,,0,22,22,50,1
,,,,,,,,,,,,,,,,,200119,18,2022-01-28_16h02.56.923,lexical_decision_task_DD_L3,2021.2.3,MacIntel,52.63157895,,,,,,,,,,,0.724,1,,,,,,,,,,,,,,,,,,,,,,,,-0.0475,-0.3875,0,0,0,,,,,,,BONNET,HB,m,m,./images/BONNETHB.png,,,,,,,m,1,0.724,,,,,,,,0,23,23,11,1
,,,,,,,,,,,,,,,,,200119,18,2022-01-28_16h02.56.923,lexical_decision_task_DD_L3,2021.2.3,MacIntel,52.63157895,,,,,,,,,,,0.543,1,,,,,,,,,,,,,,,,,,,,,,,,-0.04875,-0.3875,0,0,0,,,,,,,CRUST,C,m,m,./images/CRUST.png,,,,,,,m,1,0.543,,,,,,,,0,24,24,79,1
,,,,,,,,,,,,,,,,,200119,18,2022-01-28_16h02.56.923,lexical_decision_task_DD_L3,2021.2.3,MacIntel,52.63157895,,,,,,,,,,,0.745,1,,,,,,,,,,,,,,,,,,,,,,,,-0.04875,-0.3875,0,0,0,,,,,,,STEAK,C,z,m,./images/STEAK.png,,,,,,,z,1,0.745,,,,,,,,0,25,25,115,1
,,,,,,,,,,,,,,,,,200119,18,2022-01-28_16h02.56.923,lexical_decision_task_DD_L3,2021.2.3,MacIntel,52.63157895,,,,,,,,,,,0.696,0,,,,,,,,,,,,,,,,,,,,,,,,-0.04875,-0.3875,0,0,0,,,,,,,SWEAT,LB,m,m,./images/SWEATLB.png,,,,,,,z,0,0.696,,,,,,,,0,26,26,66,1
,,,,,,,,,,,,,,,,,200119,18,2022-01-28_16h02.56.923,lexical_decision_task_DD_L3,2021.2.3,MacIntel,52.63157895,,,,,,,,,,,0.876,0,,,,,,,,,,,,,,,,,,,,,,,,-0.04875,-0.3875,0,0,0,,,,,,,WEASEL,HB,m,m,./images/WEASELHB.png,,,,,,,z,0,0.876,,,,,,,,0,27,27,80,1
,,,,,,,,,,,,,,,,,200119,18,2022-01-28_16h02.56.923,lexical_decision_task_DD_L3,2021.2.3,MacIntel,52.63157895,,,,,,,,,,,0.609,1,,,,,,,,,,,,,,,,,,,,,,,,-0.04875,-0.3875,0,0,0,,,,,,,WRIST,C,m,m,./images/WRIST.png,,,,,,,m,1,0.609,,,,,,,,0,28,28,25,1
,,,,,,,,,,,,,,,,,200119,18,2022-01-28_16h02.56.923,lexical_decision_task_DD_L3,2021.2.3,MacIntel,52.63157895,,,,,,,,,,,1.027,1,,,,,,,,,,,,,,,,,,,,,,,,-0.04875,-0.3875,0,0,0,,,,,,,HAMMER,LB,z,m,./images/HAMMERLB.png,,,,,,,z,1,1.027,,,,,,,,0,29,29,159,1
,,,,,,,,,,,,,,,,,200119,18,2022-01-28_16h02.56.923,lexical_decision_task_DD_L3,2021.2.3,MacIntel,52.63157895,,,,,,,,,,,0.898,0,,,,,,,,,,,,,,,,,,,,,,,,-0.04875,-0.3875,0,0,0,,,,,,,GREASE,LB,m,m,./images/GREASELB.png,,,,,,,z,0,0.898,,,,,,,,0,30,30,15,1
,,,,,,,,,,,,,,,,,200119,18,2022-01-28_16h02.56.923,lexical_decision_task_DD_L3,2021.2.3,MacIntel,52.63157895,,,,,,,,,,,0.526,0,,,,,,,,,,,,,,,,,,,,,,,,-0.04875,-0.3875,0,0,0,,,,,,,BASKET,HB,z,m,./images/BASKETHB.png,,,,,,,m,0,0.526,,,,,,,,0,31,31,128,1
,,,,,,,,,,,,,,,,,200119,18,2022-01-28_16h02.56.923,lexical_decision_task_DD_L3,2021.2.3,MacIntel,52.63157895,,,,,,,,,,,0.779,1,,,,,,,,,,,,,,,,,,,,,,,,-0.04875,-0.3875,0,0,0,,,,,,,SCREW,LB,m,m,./images/SCREWLB.png,,,,,,,m,1,0.779,,,,,,,,0,32,32,24,1
,,,,,,,,,,,,,,,,,200119,18,2022-01-28_16h02.56.923,lexical_decision_task_DD_L3,2021.2.3,MacIntel,52.63157895,,,,,,,,,,,1.243,1,,,,,,,,,,,,,,,,,,,,,,,,-0.04875,-0.3875,0,0,0,,,,,,,NOOSE,LB,m,m,./images/NOOSELB.png,,,,,,,m,1,1.243,,,,,,,,0,33,33,72,1
,,,,,,,,,,,,,,,,,200119,18,2022-01-28_16h02.56.923,lexical_decision_task_DD_L3,2021.2.3,MacIntel,52.63157895,,,,,,,,,,,0.544,0,,,,,,,,,,,,,,,,,,,,,,,,-0.04875,-0.3875,0,0,0,,,,,,,WALNUT,LB,z,m,./images/WALNUTLB.png,,,,,,,m,0,0.544,,,,,,,,0,34,34,84,1
,,,,,,,,,,,,,,,,,200119,18,2022-01-28_16h02.56.923,lexical_decision_task_DD_L3,2021.2.3,MacIntel,52.63157895,,,,,,,,,,,0.596,1,,,,,,,,,,,,,,,,,,,,,,,,-0.04875,-0.3875,0,0,0,,,,,,,JELLY,C,m,m,./images/JELLY.png,,,,,,,m,1,0.596,,,,,,,,0,35,35,64,1
,,,,,,,,,,,,,,,,,200119,18,2022-01-28_16h02.56.923,lexical_decision_task_DD_L3,2021.2.3,MacIntel,52.63157895,,,,,,,,,,,0.88,0,,,,,,,,,,,,,,,,,,,,,,,,-0.04875,-0.3875,0,0,0,,,,,,,GRAIN,LB,m,m,./images/GRAINLB.png,,,,,,,z,0,0.88,,,,,,,,0,36,36,75,1
,,,,,,,,,,,,,,,,,200119,18,2022-01-28_16h02.56.923,lexical_decision_task_DD_L3,2021.2.3,MacIntel,52.63157895,,,,,,,,,,,0.665,1,,,,,,,,,,,,,,,,,,,,,,,,-0.04875,-0.3875,0,0,0,,,,,,,PISTOL,HB,z,m,./images/PISTOLHB.png,,,,,,,z,1,0.665,,,,,,,,0,37,37,113,1
,,,,,,,,,,,,,,,,,200119,18,2022-01-28_16h02.56.923,lexical_decision_task_DD_L3,2021.2.3,MacIntel,52.63157895,,,,,,,,,,,0.548,1,,,,,,,,,,,,,,,,,,,,,,,,-0.04875,-0.3875,0,0,0,,,,,,,PARCEL,LB,z,m,./images/PARCELLB.png,,,,,,,z,1,0.548,,,,,,,,0,38,38,102,1
,,,,,,,,,,,,,,,,,200119,18,2022-01-28_16h02.56.923,lexical_decision_task_DD_L3,2021.2.3,MacIntel,52.63157895,,,,,,,,,,,0.827,1,,,,,,,,,,,,,,,,,,,,,,,,-0.04875,-0.3875,0,0,0,,,,,,,TWINS,LB,m,m,./images/TWINSLB.png,,,,,,,m,1,0.827,,,,,,,,0,39,39,60,1
,,,,,,,,,,,,,,,,,200119,18,2022-01-28_16h02.56.923,lexical_decision_task_DD_L3,2021.2.3,MacIntel,52.63157895,,,,,,,,,,,0.56,0,,,,,,,,,,,,,,,,,,,,,,,,-0.04875,-0.3875,0,0,0,,,,,,,MEDAL,HB,z,m,./images/MEDALHB.png,,,,,,,m,0,0.56,,,,,,,,0,40,40,95,1
,,,,,,,,,,,,,,,,,200119,18,2022-01-28_16h02.56.923,lexical_decision_task_DD_L3,2021.2.3,MacIntel,52.63157895,,,,,,,,,,,0.728,0,,,,,,,,,,,,,,,,,,,,,,,,-0.04625,-0.41,1,0,0,,,,,,,CANDY,LB,z,m,./images/CANDYLB.png,break_done_button,,,,,,m,0,0.728,,,,,,,,0,41,41,123,1
,,,,,,,,,,,,,,,,,200119,18,2022-01-28_16h02.56.923,lexical_decision_task_DD_L3,2021.2.3,MacIntel,52.63157895,,,,,,,,,,,0.645,1,,,,,,,,,,,,,,,,,,,,,,,,-0.04625,-0.36,0,0,0,,,,,,,CRUMB,HB,m,m,./images/CRUMBHB.png,,,,,,,m,1,0.645,,,,,,,,0,42,42,29,1
,,,,,,,,,,,,,,,,,200119,18,2022-01-28_16h02.56.923,lexical_decision_task_DD_L3,2021.2.3,MacIntel,52.63157895,,,,,,,,,,,0.827,1,,,,,,,,,,,,,,,,,,,,,,,,-0.04625,-0.36,0,0,0,,,,,,,SNAKE,C,z,m,./images/SNAKE.png,,,,,,,z,1,0.827,,,,,,,,0,43,43,124,1
,,,,,,,,,,,,,,,,,200119,18,2022-01-28_16h02.56.923,lexical_decision_task_DD_L3,2021.2.3,MacIntel,52.63157895,,,,,,,,,,,0.882,0,,,,,,,,,,,,,,,,,,,,,,,,-0.04625,-0.36,0,0,0,,,,,,,BRIDE,C,z,m,./images/BRIDE.png,,,,,,,m,0,0.882,,,,,,,,0,44,44,148,1
,,,,,,,,,,,,,,,,,200119,18,2022-01-28_16h02.56.923,lexical_decision_task_DD_L3,2021.2.3,MacIntel,52.63157895,,,,,,,,,,,0.794,0,,,,,,,,,,,,,,,,,,,,,,,,-0.04625,-0.36,0,0,0,,,,,,,LIZARD,HB,m,m,./images/LIZARDHB.png,,,,,,,z,0,0.794,,,,,,,,0,45,45,44,1
,,,,,,,,,,,,,,,,,200119,18,2022-01-28_16h02.56.923,lexical_decision_task_DD_L3,2021.2.3,MacIntel,52.63157895,,,,,,,,,,,1.029,1,,,,,,,,,,,,,,,,,,,,,,,,-0.04625,-0.36,0,0,0,,,,,,,BOILER,LB,z,m,./images/BOILERLB.png,,,,,,,z,1,1.029,,,,,,,,0,46,46,120,1
,,,,,,,,,,,,,,,,,200119,18,2022-01-28_16h02.56.923,lexical_decision_task_DD_L3,2021.2.3,MacIntel,52.63157895,,,,,,,,,,,0.588,1,,,,,,,,,,,,,,,,,,,,,,,,-0.04625,-0.36,0,0,0,,,,,,,WHISKY,HB,z,m,./images/WHISKYHB.png,,,,,,,z,1,0.588,,,,,,,,0,47,47,167,1
,,,,,,,,,,,,,,,,,200119,18,2022-01-28_16h02.56.923,lexical_decision_task_DD_L3,2021.2.3,MacIntel,52.63157895,,,,,,,,,,,0.531,1,,,,,,,,,,,,,,,,,,,,,,,,-0.04625,-0.36,0,0,0,,,,,,,DONKEY,C,z,m,./images/DONKEY.png,,,,,,,z,1,0.531,,,,,,,,0,48,48,103,1
,,,,,,,,,,,,,,,,,200119,18,2022-01-28_16h02.56.923,lexical_decision_task_DD_L3,2021.2.3,MacIntel,52.63157895,,,,,,,,,,,0.783,1,,,,,,,,,,,,,,,,,,,,,,,,-0.04625,-0.36,0,0,0,,,,,,,PLANK,C,m,m,./images/PLANK.png,,,,,,,m,1,0.783,,,,,,,,0,49,49,1,1
,,,,,,,,,,,,,,,,,200119,18,2022-01-28_16h02.56.923,lexical_decision_task_DD_L3,2021.2.3,MacIntel,52.63157895,,,,,,,,,,,4.412,1,,,,,,,,,,,,,,,,,,,,,,,,-0.04625,-0.36,0,0,0,,,,,,,DOUGH,C,m,m,./images/DOUGH.png,,,,,,,m,1,4.412,,,,,,,,0,50,50,19,1
,,,,,,,,,,,,,,,,,200119,18,2022-01-28_16h02.56.923,lexical_decision_task_DD_L3,2021.2.3,MacIntel,52.63157895,,,,,,,,,,,1.615,1,,,,,,,,,,,,,,,,,,,,,,,,-0.04625,-0.36,0,0,0,,,,,,,BEARD,HB,m,m,./images/BEARDHB.png,,,,,,,m,1,1.615,,,,,,,,0,51,51,2,1
,,,,,,,,,,,,,,,,,200119,18,2022-01-28_16h02.56.923,lexical_decision_task_DD_L3,2021.2.3,MacIntel,52.63157895,,,,,,,,,,,0.712,1,,,,,,,,,,,,,,,,,,,,,,,,-0.04625,-0.36,0,0,0,,,,,,,ALLEY,C,z,m,./images/ALLEY.png,,,,,,,z,1,0.712,,,,,,,,0,52,52,139,1
,,,,,,,,,,,,,,,,,200119,18,2022-01-28_16h02.56.923,lexical_decision_task_DD_L3,2021.2.3,MacIntel,52.63157895,,,,,,,,,,,1.874,0,,,,,,,,,,,,,,,,,,,,,,,,-0.04625,-0.36,0,0,0,,,,,,,PACKET,HB,m,m,./images/PACKETHB.png,,,,,,,z,0,1.874,,,,,,,,0,53,53,56,1
,,,,,,,,,,,,,,,,,200119,18,2022-01-28_16h02.56.923,lexical_decision_task_DD_L3,2021.2.3,MacIntel,52.63157895,,,,,,,,,,,0.878,1,,,,,,,,,,,,,,,,,,,,,,,,-0.04625,-0.36,0,0,0,,,,,,,CANDLE,C,m,m,./images/CANDLE.png,,,,,,,m,1,0.878,,,,,,,,0,54,54,61,1
,,,,,,,,,,,,,,,,,200119,18,2022-01-28_16h02.56.923,lexical_decision_task_DD_L3,2021.2.3,MacIntel,52.63157895,,,,,,,,,,,2.101,1,,,,,,,,,,,,,,,,,,,,,,,,-0.04625,-0.36,0,0,0,,,,,,,JUMPER,HB,z,m,./images/JUMPERHB.png,,,,,,,z,1,2.101,,,,,,,,0,55,55,158,1
,,,,,,,,,,,,,,,,,200119,18,2022-01-28_16h02.56.923,lexical_decision_task_DD_L3,2021.2.3,MacIntel,52.63157895,,,,,,,,,,,0.796,1,,,,,,,,,,,,,,,,,,,,,,,,-0.04625,-0.36,0,0,0,,,,,,,PLANET,HB,z,m,./images/PLANETHB.png,,,,,,,z,1,0.796,,,,,,,,0,56,56,164,1
,,,,,,,,,,,,,,,,,200119,18,2022-01-28_16h02.56.923,lexical_decision_task_DD_L3,2021.2.3,MacIntel,52.63157895,,,,,,,,,,,0.862,1,,,,,,,,,,,,,,,,,,,,,,,,-0.04625,-0.36125,0,0,0,,,,,,,CEMENT,HB,m,m,./images/CEMENTHB.png,,,,,,,m,1,0.862,,,,,,,,0,57,57,74,1
,,,,,,,,,,,,,,,,,200119,18,2022-01-28_16h02.56.923,lexical_decision_task_DD_L3,2021.2.3,MacIntel,52.63157895,,,,,,,,,,,0.593,0,,,,,,,,,,,,,,,,,,,,,,,,-0.04625,-0.36125,0,0,0,,,,,,,BROOM,LB,z,m,./images/BROOMLB.png,,,,,,,m,0,0.593,,,,,,,,0,58,58,162,1
,,,,,,,,,,,,,,,,,200119,18,2022-01-28_16h02.56.923,lexical_decision_task_DD_L3,2021.2.3,MacIntel,52.63157895,,,,,,,,,,,0.582,1,,,,,,,,,,,,,,,,,,,,,,,,-0.04625,-0.36125,0,0,0,,,,,,,SPINE,HB,z,m,./images/SPINEHB.png,,,,,,,z,1,0.582,,,,,,,,0,59,59,149,1
,,,,,,,,,,,,,,,,,200119,18,2022-01-28_16h02.56.923,lexical_decision_task_DD_L3,2021.2.3,MacIntel,52.63157895,,,,,,,,,,,0.675,0,,,,,,,,,,,,,,,,,,,,,,,,-0.04625,-0.36125,0,0,0,,,,,,,FALCON,C,m,m,./images/FALCON.png,,,,,,,z,0,0.675,,,,,,,,0,60,60,28,1
,,,,,,,,,,,,,,,,,200119,18,2022-01-28_16h02.56.923,lexical_decision_task_DD_L3,2021.2.3,MacIntel,52.63157895,,,,,,,,,,,2.218,1,,,,,,,,,,,,,,,,,,,,,,,,-0.22875,0.42875,0,0,0,,,,,,,PIMPLE,HB,m,m,./images/PIMPLEHB.png,,,,,,,m,1,2.218,,,,,,,,0,61,61,71,1
,,,,,,,,,,,,,,,,,200119,18,2022-01-28_16h02.56.923,lexical_decision_task_DD_L3,2021.2.3,MacIntel,52.63157895,,,,,,,,,,,0.566,1,,,,,,,,,,,,,,,,,,,,,,,,-0.22875,0.42875,0,0,0,,,,,,,URINE,C,m,m,./images/URINE.png,,,,,,,m,1,0.566,,,,,,,,0,62,62,70,1
,,,,,,,,,,,,,,,,,200119,18,2022-01-28_16h02.56.923,lexical_decision_task_DD_L3,2021.2.3,MacIntel,52.63157895,,,,,,,,,,,0.501,1,,,,,,,,,,,,,,,,,,,,,,,,-0.22875,0.42875,0,0,0,,,,,,,MIRROR,LB,m,m,./images/MIRRORLB.png,,,,,,,m,1,0.501,,,,,,,,0,63,63,63,1
,,,,,,,,,,,,,,,,,200119,18,2022-01-28_16h02.56.923,lexical_decision_task_DD_L3,2021.2.3,MacIntel,52.63157895,,,,,,,,,,,0.644,1,,,,,,,,,,,,,,,,,,,,,,,,-0.22875,0.42875,0,0,0,,,,,,,SHORE,LB,m,m,./images/SHORELB.png,,,,,,,m,1,0.644,,,,,,,,0,64,64,12,1
,,,,,,,,,,,,,,,,,200119,18,2022-01-28_16h02.56.923,lexical_decision_task_DD_L3,2021.2.3,MacIntel,52.63157895,,,,,,,,,,,0.86,0,,,,,,,,,,,,,,,,,,,,,,,,-0.22875,0.42875,0,0,0,,,,,,,POODLE,LB,m,m,./images/POODLELB.png,,,,,,,z,0,0.86,,,,,,,,0,65,65,81,1
,,,,,,,,,,,,,,,,,200119,18,2022-01-28_16h02.56.923,lexical_decision_task_DD_L3,2021.2.3,MacIntel,52.63157895,,,,,,,,,,,0.535,1,,,,,,,,,,,,,,,,,,,,,,,,-0.22875,0.42875,0,0,0,,,,,,,STORM,LB,m,m,./images/STORMLB.png,,,,,,,m,1,0.535,,,,,,,,0,66,66,30,1
,,,,,,,,,,,,,,,,,200119,18,2022-01-28_16h02.56.923,lexical_decision_task_DD_L3,2021.2.3,MacIntel,52.63157895,,,,,,,,,,,0.647,1,,,,,,,,,,,,,,,,,,,,,,,,-0.22875,0.42875,0,0,0,,,,,,,BELLY,C,m,m,./images/BELLY.png,,,,,,,m,1,0.647,,,,,,,,0,67,67,10,1
,,,,,,,,,,,,,,,,,200119,18,2022-01-28_16h02.56.923,lexical_decision_task_DD_L3,2021.2.3,MacIntel,52.63157895,,,,,,,,,,,0.764,1,,,,,,,,,,,,,,,,,,,,,,,,-0.22875,0.42875,0,0,0,,,,,,,CANOE,C,z,m,./images/CANOE.png,,,,,,,z,1,0.764,,,,,,,,0,68,68,142,1
,,,,,,,,,,,,,,,,,200119,18,2022-01-28_16h02.56.923,lexical_decision_task_DD_L3,2021.2.3,MacIntel,52.63157895,,,,,,,,,,,0.471,1,,,,,,,,,,,,,,,,,,,,,,,,-0.22875,0.42875,0,0,0,,,,,,,CLOTH,HB,z,m,./images/CLOTHHB.png,,,,,,,z,1,0.471,,,,,,,,0,69,69,107,1
,,,,,,,,,,,,,,,,,200119,18,2022-01-28_16h02.56.923,lexical_decision_task_DD_L3,2021.2.3,MacIntel,52.63157895,,,,,,,,,,,0.651,0,,,,,,,,,,,,,,,,,,,,,,,,-0.22875,0.42875,0,0,0,,,,,,,CANYON,C,m,m,./images/CANYON.png,,,,,,,z,0,0.651,,,,,,,,0,70,70,34,1
,,,,,,,,,,,,,,,,,200119,18,2022-01-28_16h02.56.923,lexical_decision_task_DD_L3,2021.2.3,MacIntel,52.63157895,,,,,,,,,,,0.647,1,,,,,,,,,,,,,,,,,,,,,,,,-0.22875,0.42875,0,0,0,,,,,,,PENCE,C,m,m,./images/PENCE.png,,,,,,,m,1,0.647,,,,,,,,0,71,71,16,1
,,,,,,,,,,,,,,,,,200119,18,2022-01-28_16h02.56.923,lexical_decision_task_DD_L3,2021.2.3,MacIntel,52.63157895,,,,,,,,,,,0.643,1,,,,,,,,,,,,,,,,,,,,,,,,-0.22875,0.42875,0,0,0,,,,,,,THROAT,LB,m,m,./images/THROATLB.png,,,,,,,m,1,0.643,,,,,,,,0,72,72,36,1
,,,,,,,,,,,,,,,,,200119,18,2022-01-28_16h02.56.923,lexical_decision_task_DD_L3,2021.2.3,MacIntel,52.63157895,,,,,,,,,,,0.559,1,,,,,,,,,,,,,,,,,,,,,,,,-0.22875,0.42875,0,0,0,,,,,,,HOCKEY,HB,z,m,./images/HOCKEYHB.png,,,,,,,z,1,0.559,,,,,,,,0,73,73,116,1
,,,,,,,,,,,,,,,,,200119,18,2022-01-28_16h02.56.923,lexical_decision_task_DD_L3,2021.2.3,MacIntel,52.63157895,,,,,,,,,,,0.647,0,,,,,,,,,,,,,,,,,,,,,,,,-0.22875,0.42875,0,0,0,,,,,,,STOVE,HB,z,m,./images/STOVEHB.png,,,,,,,m,0,0.647,,,,,,,,0,74,74,86,1
,,,,,,,,,,,,,,,,,200119,18,2022-01-28_16h02.56.923,lexical_decision_task_DD_L3,2021.2.3,MacIntel,52.63157895,,,,,,,,,,,0.636,0,,,,,,,,,,,,,,,,,,,,,,,,-0.22875,0.42875,0,0,0,,,,,,,MOTOR,C,m,m,./images/MOTOR.png,,,,,,,z,0,0.636,,,,,,,,0,75,75,13,1
,,,,,,,,,,,,,,,,,200119,18,2022-01-28_16h02.56.923,lexical_decision_task_DD_L3,2021.2.3,MacIntel,52.63157895,,,,,,,,,,,0.581,0,,,,,,,,,,,,,,,,,,,,,,,,-0.22875,0.42875,0,0,0,,,,,,,MELON,C,m,m,./images/MELON.png,,,,,,,z,0,0.581,,,,,,,,0,76,76,22,1
,,,,,,,,,,,,,,,,,200119,18,2022-01-28_16h02.56.923,lexical_decision_task_DD_L3,2021.2.3,MacIntel,52.63157895,,,,,,,,,,,0.91,1,,,,,,,,,,,,,,,,,,,,,,,,-0.22875,0.42875,0,0,0,,,,,,,BAMBOO,HB,z,m,./images/BAMBOOHB.png,,,,,,,z,1,0.91,,,,,,,,0,77,77,89,1
,,,,,,,,,,,,,,,,,200119,18,2022-01-28_16h02.56.923,lexical_decision_task_DD_L3,2021.2.3,MacIntel,52.63157895,,,,,,,,,,,0.467,1,,,,,,,,,,,,,,,,,,,,,,,,-0.22875,0.42875,0,0,0,,,,,,,CURRY,LB,z,m,./images/CURRYLB.png,,,,,,,z,1,0.467,,,,,,,,0,78,78,144,1
,,,,,,,,,,,,,,,,,200119,18,2022-01-28_16h02.56.923,lexical_decision_task_DD_L3,2021.2.3,MacIntel,52.63157895,,,,,,,,,,,0.465,0,,,,,,,,,,,,,,,,,,,,,,,,-0.22875,0.42875,0,0,0,,,,,,,SHELF,LB,m,m,./images/SHELFLB.png,,,,,,,z,0,0.465,,,,,,,,0,79,79,39,1
,,,,,,,,,,,,,,,,,200119,18,2022-01-28_16h02.56.923,lexical_decision_task_DD_L3,2021.2.3,MacIntel,52.63157895,,,,,,,,,,,0.968,1,,,,,,,,,,,,,,,,,,,,,,,,-0.22875,0.42875,0,0,0,,,,,,,WHEEL,HB,z,m,./images/WHEELHB.png,,,,,,,z,1,0.968,,,,,,,,0,80,80,161,1
,,,,,,,,,,,,,,,,,200119,18,2022-01-28_16h02.56.923,lexical_decision_task_DD_L3,2021.2.3,MacIntel,52.63157895,,,,,,,,,,,0.615,0,,,,,,,,,,,,,,,,,,,,,,,,-0.22875,0.42875,0,0,0,,,,,,,COOKER,LB,m,m,./images/COOKERLB.png,,,,,,,z,0,0.615,,,,,,,,0,81,81,69,1
,,,,,,,,,,,,,,,,,200119,18,2022-01-28_16h02.56.923,lexical_decision_task_DD_L3,2021.2.3,MacIntel,52.63157895,,,,,,,,,,,1.423,1,,,,,,,,,,,,,,,,,,,,,,,,-0.22875,0.42875,0,0,0,,,,,,,BURIAL,HB,m,m,./images/BURIALHB.png,,,,,,,m,1,1.423,,,,,,,,0,82,82,59,1
,,,,,,,,,,,,,,,,,200119,18,2022-01-28_16h02.56.923,lexical_decision_task_DD_L3,2021.2.3,MacIntel,52.63157895,,,,,,,,,,,1.162,0,,,,,,,,,,,,,,,,,,,,,,,,-0.04875,-0.41875,1,0,0,,,,,,,FERRY,LB,z,m,./images/FERRYLB.png,break_done_button,,,,,,m,0,1.162,,,,,,,,0,83,83,141,1
,,,,,,,,,,,,,,,,,200119,18,2022-01-28_16h02.56.923,lexical_decision_task_DD_L3,2021.2.3,MacIntel,52.63157895,,,,,,,,,,,0.714,0,,,,,,,,,,,,,,,,,,,,,,,,-0.0475,-0.41875,0,0,0,,,,,,,GRAPE,C,z,m,./images/GRAPE.png,,,,,,,m,0,0.714,,,,,,,,0,84,84,100,1
,,,,,,,,,,,,,,,,,200119,18,2022-01-28_16h02.56.923,lexical_decision_task_DD_L3,2021.2.3,MacIntel,52.63157895,,,,,,,,,,,0.624,0,,,,,,,,,,,,,,,,,,,,,,,,-0.0475,-0.41875,0,0,0,,,,,,,PILOT,HB,z,m,./images/PILOTHB.png,,,,,,,m,0,0.624,,,,,,,,0,85,85,134,1
,,,,,,,,,,,,,,,,,200119,18,2022-01-28_16h02.56.923,lexical_decision_task_DD_L3,2021.2.3,MacIntel,52.63157895,,,,,,,,,,,0.752,0,,,,,,,,,,,,,,,,,,,,,,,,-0.0475,-0.41875,0,0,0,,,,,,,ONION,LB,m,m,./images/ONIONLB.png,,,,,,,z,0,0.752,,,,,,,,0,86,86,51,1
,,,,,,,,,,,,,,,,,200119,18,2022-01-28_16h02.56.923,lexical_decision_task_DD_L3,2021.2.3,MacIntel,52.63157895,,,,,,,,,,,0.564,1,,,,,,,,,,,,,,,,,,,,,,,,-0.0475,-0.41875,0,0,0,,,,,,,TIGER,C,z,m,./images/TIGER.png,,,,,,,z,1,0.564,,,,,,,,0,87,87,121,1
,,,,,,,,,,,,,,,,,200119,18,2022-01-28_16h02.56.923,lexical_decision_task_DD_L3,2021.2.3,MacIntel,52.63157895,,,,,,,,,,,0.618,1,,,,,,,,,,,,,,,,,,,,,,,,-0.0475,-0.41875,0,0,0,,,,,,,DANCER,LB,z,m,./images/DANCERLB.png,,,,,,,z,1,0.618,,,,,,,,0,88,88,105,1
,,,,,,,,,,,,,,,,,200119,18,2022-01-28_16h02.56.923,lexical_decision_task_DD_L3,2021.2.3,MacIntel,52.63157895,,,,,,,,,,,0.747,1,,,,,,,,,,,,,,,,,,,,,,,,-0.0475,-0.41875,0,0,0,,,,,,,ENGINE,HB,z,m,./images/ENGINEHB.png,,,,,,,z,1,0.747,,,,,,,,0,89,89,122,1
,,,,,,,,,,,,,,,,,200119,18,2022-01-28_16h02.56.923,lexical_decision_task_DD_L3,2021.2.3,MacIntel,52.63157895,,,,,,,,,,,0.879,1,,,,,,,,,,,,,,,,,,,,,,,,-0.0475,-0.41875,0,0,0,,,,,,,BANANA,C,z,m,./images/BANANA.png,,,,,,,z,1,0.879,,,,,,,,0,90,90,154,1
,,,,,,,,,,,,,,,,,200119,18,2022-01-28_16h02.56.923,lexical_decision_task_DD_L3,2021.2.3,MacIntel,52.63157895,,,,,,,,,,,0.812,1,,,,,,,,,,,,,,,,,,,,,,,,-0.0475,-0.41875,0,0,0,,,,,,,DESERT,C,z,m,./images/DESERT.png,,,,,,,z,1,0.812,,,,,,,,0,91,91,136,1
,,,,,,,,,,,,,,,,,200119,18,2022-01-28_16h02.56.923,lexical_decision_task_DD_L3,2021.2.3,MacIntel,52.63157895,,,,,,,,,,,0.53,0,,,,,,,,,,,,,,,,,,,,,,,,-0.0475,-0.41875,0,0,0,,,,,,,BUTTER,LB,z,m,./images/BUTTERLB.png,,,,,,,m,0,0.53,,,,,,,,0,92,92,111,1
,,,,,,,,,,,,,,,,,200119,18,2022-01-28_16h02.56.923,lexical_decision_task_DD_L3,2021.2.3,MacIntel,52.63157895,,,,,,,,,,,0.594,1,,,,,,,,,,,,,,,,,,,,,,,,-0.0475,-0.41875,0,0,0,,,,,,,FLASK,LB,z,m,./images/FLASKLB.png,,,,,,,z,1,0.594,,,,,,,,0,93,93,156,1
,,,,,,,,,,,,,,,,,200119,18,2022-01-28_16h02.56.923,lexical_decision_task_DD_L3,2021.2.3,MacIntel,52.63157895,,,,,,,,,,,0.609,1,,,,,,,,,,,,,,,,,,,,,,,,-0.0475,-0.41875,0,0,0,,,,,,,MOOSE,LB,m,m,./images/MOOSELB.png,,,,,,,m,1,0.609,,,,,,,,0,94,94,57,1
,,,,,,,,,,,,,,,,,200119,18,2022-01-28_16h02.56.923,lexical_decision_task_DD_L3,2021.2.3,MacIntel,52.63157895,,,,,,,,,,,0.888,0,,,,,,,,,,,,,,,,,,,,,,,,-0.0475,-0.41875,0,0,0,,,,,,,GLOVE,C,z,m,./images/GLOVE.png,,,,,,,m,0,0.888,,,,,,,,0,95,95,157,1
,,,,,,,,,,,,,,,,,200119,18,2022-01-28_16h02.56.923,lexical_decision_task_DD_L3,2021.2.3,MacIntel,52.63157895,,,,,,,,,,,0.567,1,,,,,,,,,,,,,,,,,,,,,,,,-0.0475,-0.41875,0,0,0,,,,,,,LLAMA,HB,z,m,./images/LLAMAHB.png,,,,,,,z,1,0.567,,,,,,,,0,96,96,119,1
,,,,,,,,,,,,,,,,,200119,18,2022-01-28_16h02.56.923,lexical_decision_task_DD_L3,2021.2.3,MacIntel,52.63157895,,,,,,,,,,,0.538,1,,,,,,,,,,,,,,,,,,,,,,,,-0.0475,-0.41875,0,0,0,,,,,,,BRUSH,HB,z,m,./images/BRUSHHB.png,,,,,,,z,1,0.538,,,,,,,,0,97,97,143,1
,,,,,,,,,,,,,,,,,200119,18,2022-01-28_16h02.56.923,lexical_decision_task_DD_L3,2021.2.3,MacIntel,52.63157895,,,,,,,,,,,0.704,1,,,,,,,,,,,,,,,,,,,,,,,,-0.0475,-0.41875,0,0,0,,,,,,,STREAM,HB,z,m,./images/STREAMHB.png,,,,,,,z,1,0.704,,,,,,,,0,98,98,125,1
,,,,,,,,,,,,,,,,,200119,18,2022-01-28_16h02.56.923,lexical_decision_task_DD_L3,2021.2.3,MacIntel,52.63157895,,,,,,,,,,,0.868,1,,,,,,,,,,,,,,,,,,,,,,,,-0.0475,-0.41875,0,0,0,,,,,,,RHINO,LB,m,m,./images/RHINOLB.png,,,,,,,m,1,0.868,,,,,,,,0,99,99,9,1
,,,,,,,,,,,,,,,,,200119,18,2022-01-28_16h02.56.923,lexical_decision_task_DD_L3,2021.2.3,MacIntel,52.63157895,,,,,,,,,,,0.433,1,,,,,,,,,,,,,,,,,,,,,,,,-0.0475,-0.41875,0,0,0,,,,,,,PEARL,C,m,m,./images/PEARL.png,,,,,,,m,1,0.433,,,,,,,,0,100,100,46,1
,,,,,,,,,,,,,,,,,200119,18,2022-01-28_16h02.56.923,lexical_decision_task_DD_L3,2021.2.3,MacIntel,52.63157895,,,,,,,,,,,0.65,1,,,,,,,,,,,,,,,,,,,,,,,,-0.0475,-0.41875,0,0,0,,,,,,,DRUMS,C,m,m,./images/DRUMS.png,,,,,,,m,1,0.65,,,,,,,,0,101,101,49,1
,,,,,,,,,,,,,,,,,200119,18,2022-01-28_16h02.56.923,lexical_decision_task_DD_L3,2021.2.3,MacIntel,52.63157895,,,,,,,,,,,0.613,1,,,,,,,,,,,,,,,,,,,,,,,,-0.0475,-0.41875,0,0,0,,,,,,,WAGON,C,z,m,./images/WAGON.png,,,,,,,z,1,0.613,,,,,,,,0,102,102,91,1
,,,,,,,,,,,,,,,,,200119,18,2022-01-28_16h02.56.923,lexical_decision_task_DD_L3,2021.2.3,MacIntel,52.63157895,,,,,,,,,,,0.785,0,,,,,,,,,,,,,,,,,,,,,,,,-0.0475,-0.41875,0,0,0,,,,,,,QUILL,C,m,m,./images/QUILL.png,,,,,,,z,0,0.785,,,,,,,,0,103,103,31,1
,,,,,,,,,,,,,,,,,200119,18,2022-01-28_16h02.56.923,lexical_decision_task_DD_L3,2021.2.3,MacIntel,52.63157895,,,,,,,,,,,0.913,0,,,,,,,,,,,,,,,,,,,,,,,,-0.0475,-0.41875,0,0,0,,,,,,,SUNSET,C,m,m,./images/SUNSET.png,,,,,,,z,0,0.913,,,,,,,,0,104,104,82,1
,,,,,,,,,,,,,,,,,200119,18,2022-01-28_16h02.56.923,lexical_decision_task_DD_L3,2021.2.3,MacIntel,52.63157895,,,,,,,,,,,2.714,1,,,,,,,,,,,,,,,,,,,,,,,,-0.2275,0.42625,0,0,0,,,,,,,RAZOR,C,z,m,./images/RAZOR.png,,,,,,,z,1,2.714,,,,,,,,0,105,105,118,1
,,,,,,,,,,,,,,,,,200119,18,2022-01-28_16h02.56.923,lexical_decision_task_DD_L3,2021.2.3,MacIntel,52.63157895,,,,,,,,,,,0.631,1,,,,,,,,,,,,,,,,,,,,,,,,-0.2275,0.42625,0,0,0,,,,,,,ARROW,LB,z,m,./images/ARROWLB.png,,,,,,,z,1,0.631,,,,,,,,0,106,106,153,1
,,,,,,,,,,,,,,,,,200119,18,2022-01-28_16h02.56.923,lexical_decision_task_DD_L3,2021.2.3,MacIntel,52.63157895,,,,,,,,,,,0.539,1,,,,,,,,,,,,,,,,,,,,,,,,-0.2275,0.42625,0,0,0,,,,,,,STAIN,LB,z,m,./images/STAINLB.png,,,,,,,z,1,0.539,,,,,,,,0,107,107,90,1
,,,,,,,,,,,,,,,,,200119,18,2022-01-28_16h02.56.923,lexical_decision_task_DD_L3,2021.2.3,MacIntel,52.63157895,,,,,,,,,,,1.546,0,,,,,,,,,,,,,,,,,,,,,,,,-0.2275,0.42625,0,0,0,,,,,,,MUSCLE,C,m,m,./images/MUSCLE.png,,,,,,,z,0,1.546,,,,,,,,0,108,108,4,1
,,,,,,,,,,,,,,,,,200119,18,2022-01-28_16h02.56.923,lexical_decision_task_DD_L3,2021.2.3,MacIntel,52.63157895,,,,,,,,,,,0.612,1,,,,,,,,,,,,,,,,,,,,,,,,-0.2275,0.42625,0,0,0,,,,,,,CLOWN,C,z,m,./images/CLOWN.png,,,,,,,z,1,0.612,,,,,,,,0,109,109,106,1
,,,,,,,,,,,,,,,,,200119,18,2022-01-28_16h02.56.923,lexical_decision_task_DD_L3,2021.2.3,MacIntel,52.63157895,,,,,,,,,,,0.781,0,,,,,,,,,,,,,,,,,,,,,,,,-0.2275,0.42625,0,0,0,,,,,,,TORCH,HB,m,m,./images/TORCHHB.png,,,,,,,z,0,0.781,,,,,,,,0,110,110,68,1
,,,,,,,,,,,,,,,,,200119,18,2022-01-28_16h02.56.923,lexical_decision_task_DD_L3,2021.2.3,MacIntel,52.63157895,,,,,,,,,,,0.616,1,,,,,,,,,,,,,,,,,,,,,,,,-0.2275,0.42625,0,0,0,,,,,,,JUNGLE,HB,m,m,./images/JUNGLEHB.png,,,,,,,m,1,0.616,,,,,,,,0,111,111,83,1
,,,,,,,,,,,,,,,,,200119,18,2022-01-28_16h02.56.923,lexical_decision_task_DD_L3,2021.2.3,MacIntel,52.63157895,,,,,,,,,,,0.53,1,,,,,,,,,,,,,,,,,,,,,,,,-0.2275,0.42625,0,0,0,,,,,,,PICKLE,HB,m,m,./images/PICKLEHB.png,,,,,,,m,1,0.53,,,,,,,,0,112,112,14,1
,,,,,,,,,,,,,,,,,200119,18,2022-01-28_16h02.56.923,lexical_decision_task_DD_L3,2021.2.3,MacIntel,52.63157895,,,,,,,,,,,0.649,1,,,,,,,,,,,,,,,,,,,,,,,,-0.2275,0.42625,0,0,0,,,,,,,MOSQUE,C,m,m,./images/MOSQUE.png,,,,,,,m,1,0.649,,,,,,,,0,113,113,43,1
,,,,,,,,,,,,,,,,,200119,18,2022-01-28_16h02.56.923,lexical_decision_task_DD_L3,2021.2.3,MacIntel,52.63157895,,,,,,,,,,,0.512,1,,,,,,,,,,,,,,,,,,,,,,,,-0.2275,0.42625,0,0,0,,,,,,,SKIING,HB,m,m,./images/SKIINGHB.png,,,,,,,m,1,0.512,,,,,,,,0,114,114,17,1
,,,,,,,,,,,,,,,,,200119,18,2022-01-28_16h02.56.923,lexical_decision_task_DD_L3,2021.2.3,MacIntel,52.63157895,,,,,,,,,,,0.552,1,,,,,,,,,,,,,,,,,,,,,,,,-0.2275,0.42625,0,0,0,,,,,,,SAILOR,C,m,m,./images/SAILOR.png,,,,,,,m,1,0.552,,,,,,,,0,115,115,67,1
,,,,,,,,,,,,,,,,,200119,18,2022-01-28_16h02.56.923,lexical_decision_task_DD_L3,2021.2.3,MacIntel,52.63157895,,,,,,,,,,,0.499,0,,,,,,,,,,,,,,,,,,,,,,,,-0.2275,0.42625,0,0,0,,,,,,,VALLEY,HB,z,m,./images/VALLEYHB.png,,,,,,,m,0,0.499,,,,,,,,0,116,116,152,1
,,,,,,,,,,,,,,,,,200119,18,2022-01-28_16h02.56.923,lexical_decision_task_DD_L3,2021.2.3,MacIntel,52.63157895,,,,,,,,,,,1.011,0,,,,,,,,,,,,,,,,,,,,,,,,-0.2275,0.42625,0,0,0,,,,,,,SWING,C,m,m,./images/SWING.png,,,,,,,z,0,1.011,,,,,,,,0,117,117,40,1
,,,,,,,,,,,,,,,,,200119,18,2022-01-28_16h02.56.923,lexical_decision_task_DD_L3,2021.2.3,MacIntel,52.63157895,,,,,,,,,,,0.76,0,,,,,,,,,,,,,,,,,,,,,,,,-0.2275,0.42625,0,0,0,,,,,,,COUCH,HB,m,m,./images/COUCHHB.png,,,,,,,z,0,0.76,,,,,,,,0,118,118,77,1
,,,,,,,,,,,,,,,,,200119,18,2022-01-28_16h02.56.923,lexical_decision_task_DD_L3,2021.2.3,MacIntel,52.63157895,,,,,,,,,,,0.559,1,,,,,,,,,,,,,,,,,,,,,,,,-0.2275,0.42625,0,0,0,,,,,,,SPORT,LB,m,m,./images/SPORTLB.png,,,,,,,m,1,0.559,,,,,,,,0,119,119,48,1
,,,,,,,,,,,,,,,,,200119,18,2022-01-28_16h02.56.923,lexical_decision_task_DD_L3,2021.2.3,MacIntel,52.63157895,,,,,,,,,,,0.678,1,,,,,,,,,,,,,,,,,,,,,,,,-0.2275,0.42625,0,0,0,,,,,,,CARPET,HB,m,m,./images/CARPETHB.png,,,,,,,m,1,0.678,,,,,,,,0,120,120,53,1
,,,,,,,,,,,,,,,,,200119,18,2022-01-28_16h02.56.923,lexical_decision_task_DD_L3,2021.2.3,MacIntel,52.63157895,,,,,,,,,,,0.767,0,,,,,,,,,,,,,,,,,,,,,,,,-0.2275,0.42625,0,0,0,,,,,,,WALRUS,HB,m,m,./images/WALRUSHB.png,,,,,,,z,0,0.767,,,,,,,,0,121,121,23,1
,,,,,,,,,,,,,,,,,200119,18,2022-01-28_16h02.56.923,lexical_decision_task_DD_L3,2021.2.3,MacIntel,52.63157895,,,,,,,,,,,0.794,1,,,,,,,,,,,,,,,,,,,,,,,,-0.2275,0.42625,0,0,0,,,,,,,SAUCE,LB,z,m,./images/SAUCELB.png,,,,,,,z,1,0.794,,,,,,,,0,122,122,135,1
,,,,,,,,,,,,,,,,,200119,18,2022-01-28_16h02.56.923,lexical_decision_task_DD_L3,2021.2.3,MacIntel,52.63157895,,,,,,,,,,,0.757,1,,,,,,,,,,,,,,,,,,,,,,,,-0.2275,0.42625,0,0,0,,,,,,,MONKEY,LB,z,m,./images/MONKEYLB.png,,,,,,,z,1,0.757,,,,,,,,0,123,123,129,1
,,,,,,,,,,,,,,,,,200119,18,2022-01-28_16h02.56.923,lexical_decision_task_DD_L3,2021.2.3,MacIntel,52.63157895,,,,,,,,,,,0.646,1,,,,,,,,,,,,,,,,,,,,,,,,-0.2275,0.42625,0,0,0,,,,,,,PEACH,HB,m,m,./images/PEACHHB.png,,,,,,,m,1,0.646,,,,,,,,0,124,124,35,1
,,,,,,,,,,,,,,,,,200119,18,2022-01-28_16h02.56.923,lexical_decision_task_DD_L3,2021.2.3,MacIntel,52.63157895,,,,,,,,,,,1.125,1,,,,,,,,,,,,,,,,,,,,,,,,-0.04875,-0.37125,1,0,0,,,,,,,LADDER,HB,m,m,./images/LADDERHB.png,break_done_button,,,,,,m,1,1.125,,,,,,,,0,125,125,38,1
,,,,,,,,,,,,,,,,,200119,18,2022-01-28_16h02.56.923,lexical_decision_task_DD_L3,2021.2.3,MacIntel,52.63157895,,,,,,,,,,,0.579,1,,,,,,,,,,,,,,,,,,,,,,,,-0.04875,-0.37125,0,0,0,,,,,,,FINGER,LB,m,m,./images/FINGERLB.png,,,,,,,m,1,0.579,,,,,,,,0,126,126,3,1
,,,,,,,,,,,,,,,,,200119,18,2022-01-28_16h02.56.923,lexical_decision_task_DD_L3,2021.2.3,MacIntel,52.63157895,,,,,,,,,,,0.427,0,,,,,,,,,,,,,,,,,,,,,,,,-0.04875,-0.37125,0,0,0,,,,,,,MAGGOT,LB,m,m,./images/MAGGOTLB.png,,,,,,,z,0,0.427,,,,,,,,0,127,127,33,1
,,,,,,,,,,,,,,,,,200119,18,2022-01-28_16h02.56.923,lexical_decision_task_DD_L3,2021.2.3,MacIntel,52.63157895,,,,,,,,,,,0.851,0,,,,,,,,,,,,,,,,,,,,,,,,-0.04875,-0.37125,0,0,0,,,,,,,LITTER,LB,m,m,./images/LITTERLB.png,,,,,,,z,0,0.851,,,,,,,,0,128,128,78,1
,,,,,,,,,,,,,,,,,200119,18,2022-01-28_16h02.56.923,lexical_decision_task_DD_L3,2021.2.3,MacIntel,52.63157895,,,,,,,,,,,0.745,1,,,,,,,,,,,,,,,,,,,,,,,,-0.04875,-0.37125,0,0,0,,,,,,,SMOKER,HB,m,m,./images/SMOKERHB.png,,,,,,,m,1,0.745,,,,,,,,0,129,129,26,1
,,,,,,,,,,,,,,,,,200119,18,2022-01-28_16h02.56.923,lexical_decision_task_DD_L3,2021.2.3,MacIntel,52.63157895,,,,,,,,,,,0.847,1,,,,,,,,,,,,,,,,,,,,,,,,-0.04875,-0.37125,0,0,0,,,,,,,CHERRY,LB,z,m,./images/CHERRYLB.png,,,,,,,z,1,0.847,,,,,,,,0,130,130,138,1
,,,,,,,,,,,,,,,,,200119,18,2022-01-28_16h02.56.923,lexical_decision_task_DD_L3,2021.2.3,MacIntel,52.63157895,,,,,,,,,,,1.045,1,,,,,,,,,,,,,,,,,,,,,,,,-0.04875,-0.37125,0,0,0,,,,,,,SAUNA,LB,z,m,./images/SAUNALB.png,,,,,,,z,1,1.045,,,,,,,,0,131,131,117,1
,,,,,,,,,,,,,,,,,200119,18,2022-01-28_16h02.56.923,lexical_decision_task_DD_L3,2021.2.3,MacIntel,52.63157895,,,,,,,,,,,0.946,1,,,,,,,,,,,,,,,,,,,,,,,,-0.04875,-0.37125,0,0,0,,,,,,,STATUE,LB,z,m,./images/STATUELB.png,,,,,,,z,1,0.946,,,,,,,,0,132,132,150,1
,,,,,,,,,,,,,,,,,200119,18,2022-01-28_16h02.56.923,lexical_decision_task_DD_L3,2021.2.3,MacIntel,52.63157895,,,,,,,,,,,0.961,1,,,,,,,,,,,,,,,,,,,,,,,,-0.04875,-0.37125,0,0,0,,,,,,,FLESH,LB,z,m,./images/FLESHLB.png,,,,,,,z,1,0.961,,,,,,,,0,133,133,108,1
,,,,,,,,,,,,,,,,,200119,18,2022-01-28_16h02.56.923,lexical_decision_task_DD_L3,2021.2.3,MacIntel,52.63157895,,,,,,,,,,,0.995,1,,,,,,,,,,,,,,,,,,,,,,,,-0.04875,-0.37125,0,0,0,,,,,,,BARREL,HB,m,m,./images/BARRELHB.png,,,,,,,m,1,0.995,,,,,,,,0,134,134,32,1
,,,,,,,,,,,,,,,,,200119,18,2022-01-28_16h02.56.923,lexical_decision_task_DD_L3,2021.2.3,MacIntel,52.63157895,,,,,,,,,,,0.775,0,,,,,,,,,,,,,,,,,,,,,,,,-0.04875,-0.37125,0,0,0,,,,,,,STRING,HB,m,m,./images/STRINGHB.png,,,,,,,z,0,0.775,,,,,,,,0,135,135,41,1
,,,,,,,,,,,,,,,,,200119,18,2022-01-28_16h02.56.923,lexical_decision_task_DD_L3,2021.2.3,MacIntel,52.63157895,,,,,,,,,,,0.713,1,,,,,,,,,,,,,,,,,,,,,,,,-0.04875,-0.37125,0,0,0,,,,,,,GARDEN,C,z,m,./images/GARDEN.png,,,,,,,z,1,0.713,,,,,,,,0,136,136,94,1
,,,,,,,,,,,,,,,,,200119,18,2022-01-28_16h02.56.923,lexical_decision_task_DD_L3,2021.2.3,MacIntel,52.63157895,,,,,,,,,,,0.813,0,,,,,,,,,,,,,,,,,,,,,,,,-0.04875,-0.37125,0,0,0,,,,,,,STOOL,C,z,m,./images/STOOL.png,,,,,,,m,0,0.813,,,,,,,,0,137,137,127,1
,,,,,,,,,,,,,,,,,200119,18,2022-01-28_16h02.56.923,lexical_decision_task_DD_L3,2021.2.3,MacIntel,52.63157895,,,,,,,,,,,0.695,1,,,,,,,,,,,,,,,,,,,,,,,,-0.04875,-0.37125,0,0,0,,,,,,,BOXER,C,z,m,./images/BOXER.png,,,,,,,z,1,0.695,,,,,,,,0,138,138,88,1
,,,,,,,,,,,,,,,,,200119,18,2022-01-28_16h02.56.923,lexical_decision_task_DD_L3,2021.2.3,MacIntel,52.63157895,,,,,,,,,,,0.637,1,,,,,,,,,,,,,,,,,,,,,,,,-0.04875,-0.37125,0,0,0,,,,,,,BABOON,C,m,m,./images/BABOON.png,,,,,,,m,1,0.637,,,,,,,,0,139,139,58,1
,,,,,,,,,,,,,,,,,200119,18,2022-01-28_16h02.56.923,lexical_decision_task_DD_L3,2021.2.3,MacIntel,52.63157895,,,,,,,,,,,0.912,1,,,,,,,,,,,,,,,,,,,,,,,,-0.04875,-0.37125,0,0,0,,,,,,,PEBBLE,C,z,m,./images/PEBBLE.png,,,,,,,z,1,0.912,,,,,,,,0,140,140,166,1
,,,,,,,,,,,,,,,,,200119,18,2022-01-28_16h02.56.923,lexical_decision_task_DD_L3,2021.2.3,MacIntel,52.63157895,,,,,,,,,,,0.595,1,,,,,,,,,,,,,,,,,,,,,,,,-0.04875,-0.37125,0,0,0,,,,,,,BERRY,HB,m,m,./images/BERRYHB.png,,,,,,,m,1,0.595,,,,,,,,0,141,141,47,1
,,,,,,,,,,,,,,,,,200119,18,2022-01-28_16h02.56.923,lexical_decision_task_DD_L3,2021.2.3,MacIntel,52.63157895,,,,,,,,,,,0.702,1,,,,,,,,,,,,,,,,,,,,,,,,-0.04875,-0.37125,0,0,0,,,,,,,TULIP,HB,m,m,./images/TULIPHB.png,,,,,,,m,1,0.702,,,,,,,,0,142,142,8,1
,,,,,,,,,,,,,,,,,200119,18,2022-01-28_16h02.56.923,lexical_decision_task_DD_L3,2021.2.3,MacIntel,52.63157895,,,,,,,,,,,0.45,1,,,,,,,,,,,,,,,,,,,,,,,,-0.04875,-0.37125,0,0,0,,,,,,,PASTA,HB,m,m,./images/PASTAHB.png,,,,,,,m,1,0.45,,,,,,,,0,143,143,5,1
,,,,,,,,,,,,,,,,,200119,18,2022-01-28_16h02.56.923,lexical_decision_task_DD_L3,2021.2.3,MacIntel,52.63157895,,,,,,,,,,,0.666,1,,,,,,,,,,,,,,,,,,,,,,,,-0.04875,-0.37125,0,0,0,,,,,,,TRIPOD,LB,m,m,./images/TRIPODLB.png,,,,,,,m,1,0.666,,,,,,,,0,144,144,54,1
,,,,,,,,,,,,,,,,,200119,18,2022-01-28_16h02.56.923,lexical_decision_task_DD_L3,2021.2.3,MacIntel,52.63157895,,,,,,,,,,,0.859,1,,,,,,,,,,,,,,,,,,,,,,,,-0.04875,-0.37125,0,0,0,,,,,,,CLIFF,HB,z,m,./images/CLIFFHB.png,,,,,,,z,1,0.859,,,,,,,,0,145,145,92,1
,,,,,,,,,,,,,,,,,200119,18,2022-01-28_16h02.56.923,lexical_decision_task_DD_L3,2021.2.3,MacIntel,52.63157895,,,,,,,,,,,0.589,0,,,,,,,,,,,,,,,,,,,,,,,,-0.04875,-0.37125,0,0,0,,,,,,,CHALK,C,z,m,./images/CHALK.png,,,,,,,m,0,0.589,,,,,,,,0,146,146,109,1
,,,,,,,,,,,,,,,,,200119,18,2022-01-28_16h02.56.923,lexical_decision_task_DD_L3,2021.2.3,MacIntel,52.63157895,,,,,,,,,,,0.774,1,,,,,,,,,,,,,,,,,,,,,,,,-0.04875,-0.37125,0,0,0,,,,,,,DRILL,LB,z,m,./images/DRILLLB.png,,,,,,,z,1,0.774,,,,,,,,0,147,147,165,1
,,,,,,,,,,,,,,,,,200119,18,2022-01-28_16h02.56.923,lexical_decision_task_DD_L3,2021.2.3,MacIntel,52.63157895,,,,,,,,,,,0.542,1,,,,,,,,,,,,,,,,,,,,,,,,-0.04875,-0.37125,0,0,0,,,,,,,TOMATO,LB,m,m,./images/TOMATOLB.png,,,,,,,m,1,0.542,,,,,,,,0,148,148,0,1
,,,,,,,,,,,,,,,,,200119,18,2022-01-28_16h02.56.923,lexical_decision_task_DD_L3,2021.2.3,MacIntel,52.63157895,,,,,,,,,,,0.643,1,,,,,,,,,,,,,,,,,,,,,,,,-0.04875,-0.37125,0,0,0,,,,,,,ARTIST,C,z,m,./images/ARTIST.png,,,,,,,z,1,0.643,,,,,,,,0,149,149,145,1
,,,,,,,,,,,,,,,,,200119,18,2022-01-28_16h02.56.923,lexical_decision_task_DD_L3,2021.2.3,MacIntel,52.63157895,,,,,,,,,,,0.778,1,,,,,,,,,,,,,,,,,,,,,,,,-0.04875,-0.37125,0,0,0,,,,,,,CHAIN,LB,z,m,./images/CHAINLB.png,,,,,,,z,1,0.778,,,,,,,,0,150,150,126,1
,,,,,,,,,,,,,,,,,200119,18,2022-01-28_16h02.56.923,lexical_decision_task_DD_L3,2021.2.3,MacIntel,52.63157895,,,,,,,,,,,0.829,1,,,,,,,,,,,,,,,,,,,,,,,,-0.04875,-0.37125,0,0,0,,,,,,,COLLAR,LB,z,m,./images/COLLARLB.png,,,,,,,z,1,0.829,,,,,,,,0,151,151,99,1
,,,,,,,,,,,,,,,,,200119,18,2022-01-28_16h02.56.923,lexical_decision_task_DD_L3,2021.2.3,MacIntel,52.63157895,,,,,,,,,,,0.516,1,,,,,,,,,,,,,,,,,,,,,,,,-0.04875,-0.37125,0,0,0,,,,,,,SLOPE,LB,z,m,./images/SLOPELB.png,,,,,,,z,1,0.516,,,,,,,,0,152,152,114,1
,,,,,,,,,,,,,,,,,200119,18,2022-01-28_16h02.56.923,lexical_decision_task_DD_L3,2021.2.3,MacIntel,52.63157895,,,,,,,,,,,0.626,1,,,,,,,,,,,,,,,,,,,,,,,,-0.04875,-0.37125,0,0,0,,,,,,,ATTIC,LB,m,m,./images/ATTICLB.png,,,,,,,m,1,0.626,,,,,,,,0,153,153,27,1
,,,,,,,,,,,,,,,,,200119,18,2022-01-28_16h02.56.923,lexical_decision_task_DD_L3,2021.2.3,MacIntel,52.63157895,,,,,,,,,,,0.686,1,,,,,,,,,,,,,,,,,,,,,,,,-0.04875,-0.37125,0,0,0,,,,,,,CLOUD,HB,z,m,./images/CLOUDHB.png,,,,,,,z,1,0.686,,,,,,,,0,154,154,110,1
,,,,,,,,,,,,,,,,,200119,18,2022-01-28_16h02.56.923,lexical_decision_task_DD_L3,2021.2.3,MacIntel,52.63157895,,,,,,,,,,,0.897,1,,,,,,,,,,,,,,,,,,,,,,,,-0.04875,-0.37125,0,0,0,,,,,,,KIDNEY,LB,m,m,./images/KIDNEYLB.png,,,,,,,m,1,0.897,,,,,,,,0,155,155,21,1
,,,,,,,,,,,,,,,,,200119,18,2022-01-28_16h02.56.923,lexical_decision_task_DD_L3,2021.2.3,MacIntel,52.63157895,,,,,,,,,,,0.68,1,,,,,,,,,,,,,,,,,,,,,,,,-0.04875,-0.37125,0,0,0,,,,,,,JAGUAR,LB,m,m,./images/JAGUARLB.png,,,,,,,m,1,0.68,,,,,,,,0,156,156,18,1
,,,,,,,,,,,,,,,,,200119,18,2022-01-28_16h02.56.923,lexical_decision_task_DD_L3,2021.2.3,MacIntel,52.63157895,,,,,,,,,,,0.914,1,,,,,,,,,,,,,,,,,,,,,,,,-0.04875,-0.37125,0,0,0,,,,,,,DIVER,LB,z,m,./images/DIVERLB.png,,,,,,,z,1,0.914,,,,,,,,0,157,157,93,1
,,,,,,,,,,,,,,,,,200119,18,2022-01-28_16h02.56.923,lexical_decision_task_DD_L3,2021.2.3,MacIntel,52.63157895,,,,,,,,,,,0.725,1,,,,,,,,,,,,,,,,,,,,,,,,-0.04875,-0.37125,0,0,0,,,,,,,CRATER,LB,z,m,./images/CRATERLB.png,,,,,,,z,1,0.725,,,,,,,,0,158,158,87,1
,,,,,,,,,,,,,,,,,200119,18,2022-01-28_16h02.56.923,lexical_decision_task_DD_L3,2021.2.3,MacIntel,52.63157895,,,,,,,,,,,0.614,0,,,,,,,,,,,,,,,,,,,,,,,,-0.04875,-0.37125,0,0,0,,,,,,,BAKER,LB,z,m,./images/BAKERLB.png,,,,,,,m,0,0.614,,,,,,,,0,159,159,147,1
,,,,,,,,,,,,,,,,,200119,18,2022-01-28_16h02.56.923,lexical_decision_task_DD_L3,2021.2.3,MacIntel,52.63157895,,,,,,,,,,,0.509,1,,,,,,,,,,,,,,,,,,,,,,,,-0.04875,-0.37125,0,0,0,,,,,,,PAINT,C,m,m,./images/PAINT.png,,,,,,,m,1,0.509,,,,,,,,0,160,160,7,1
,,,,,,,,,,,,,,,,,200119,18,2022-01-28_16h02.56.923,lexical_decision_task_DD_L3,2021.2.3,MacIntel,52.63157895,,,,,,,,,,,0.616,1,,,,,,,,,,,,,,,,,,,,,,,,-0.04875,-0.37125,0,0,0,,,,,,,GRANNY,HB,z,m,./images/GRANNYHB.png,,,,,,,z,1,0.616,,,,,,,,0,161,161,104,1
,,,,,,,,,,,,,,,,,200119,18,2022-01-28_16h02.56.923,lexical_decision_task_DD_L3,2021.2.3,MacIntel,52.63157895,,,,,,,,,,,0.481,1,,,,,,,,,,,,,,,,,,,,,,,,-0.04875,-0.37125,0,0,0,,,,,,,BUNNY,C,z,m,./images/BUNNY.png,,,,,,,z,1,0.481,,,,,,,,0,162,162,97,1
,,,,,,,,,,,,,,,,,200119,18,2022-01-28_16h02.56.923,lexical_decision_task_DD_L3,2021.2.3,MacIntel,52.63157895,,,,,,,,,,,0.514,0,,,,,,,,,,,,,,,,,,,,,,,,-0.04875,-0.37125,0,0,0,,,,,,,FOLDER,LB,m,m,./images/FOLDERLB.png,,,,,,,z,0,0.514,,,,,,,,0,163,163,42,1
,,,,,,,,,,,,,,,,,200119,18,2022-01-28_16h02.56.923,lexical_decision_task_DD_L3,2021.2.3,MacIntel,52.63157895,,,,,,,,,,,3.211,1,,,,,,,,,,,,,,,,,,,,,,,,-0.04875,-0.37125,0,0,0,,,,,,,MUFFIN,C,m,m,./images/MUFFIN.png,,,,,,,m,1,3.211,,,,,,,,0,164,164,55,1
,,,,,,,,,,,,,,,,,200119,18,2022-01-28_16h02.56.923,lexical_decision_task_DD_L3,2021.2.3,MacIntel,52.63157895,,,,,,,,,,,0.716,1,,,,,,,,,,,,,,,,,,,,,,,,-0.04875,-0.37125,0,0,0,,,,,,,BISHOP,C,z,m,./images/BISHOP.png,,,,,,,z,1,0.716,,,,,,,,0,165,165,133,1
,,,,,,,,,,,,,,,,,200119,18,2022-01-28_16h02.56.923,lexical_decision_task_DD_L3,2021.2.3,MacIntel,52.63157895,,,,,,,,,,,0.968,0,,,,,,,,,,,,,,,,,,,,,,,,-0.04875,-0.37125,0,0,0,,,,,,,BUBBLE,HB,z,m,./images/BUBBLEHB.png,,,,,,,m,0,0.968,,,,,,,,0,166,166,155,1
,,,,,,,,,,,,,,,,,200119,18,2022-01-28_16h02.56.923,lexical_decision_task_DD_L3,2021.2.3,MacIntel,52.63157895,,,,,,,,,,,0.713,1,,,,,,,,,,,,,,,,,,,,,,,,-0.04875,-0.37125,0,0,0,,,,,,,FARMER,HB,m,m,./images/FARMERHB.png,,,,,,,m,1,0.713,,,,,,,,0,167,167,65,1
