key_resp.keys,instr_done_touch.x,instr_done_touch.y,instr_done_touch.leftButton,instr_done_touch.midButton,instr_done_touch.rightButton,instr_done_touch.clicked_name,instruction_pages.thisRepN,instruction_pages.thisTrialN,instruction_pages.thisN,instruction_pages.thisIndex,instruction_pages.ran,pageN,phase,instruct_text,has_image,instruct_image,participant,age,date,expName,psychopyVersion,OS,frameRate,key_resp.rt,response.keys,response.corr,response.rt,touch_resp.x,touch_resp.y,touch_resp.leftButton,touch_resp.midButton,touch_resp.rightButton,touch_resp.time,touch_resp.clicked_name,rt,corr,practrials.thisRepN,practrials.thisTrialN,practrials.thisN,practrials.thisIndex,practrials.ran,TrialID,Target,corrAns,end_of_practice_trials_pages.thisRepN,end_of_practice_trials_pages.thisTrialN,end_of_practice_trials_pages.thisN,end_of_practice_trials_pages.thisIndex,end_of_practice_trials_pages.ran,key_resp_2.keys,key_resp_2.corr,key_resp_2.rt,targ_click.x,targ_click.y,targ_click.leftButton,targ_click.midButton,targ_click.rightButton,targ_click.time,targ_click.clicked_name,break_done_touch.x,break_done_touch.y,break_done_touch.leftButton,break_done_touch.midButton,break_done_touch.rightButton,break_done_keyboard.keys,maintrials.thisRepN,maintrials.thisTrialN,maintrials.thisN,maintrials.thisIndex,maintrials.ran,string,blur,study,lex,stim_path,break_done_keyboard.rt,break_done_touch.clicked_name,test_instructions.thisRepN,test_instructions.thisTrialN,test_instructions.thisN,test_instructions.thisIndex,test_instructions.ran,key_resp_3.keys,key_resp_3.corr,key_resp_3.rt,test_click.x,test_click.y,test_click.leftButton,test_click.midButton,test_click.rightButton,test_click.time,test_click.clicked_name,test_phase.thisRepN,test_phase.thisTrialN,test_phase.thisN,test_phase.thisIndex,test_phase.ran
,-0.024265072,-0.373207906,1,0,0,instr_done_button,0,0,0,0,1,1,instructions,"INSTRUCTIONS
At the start of each trial, look at the plus sign  (+) in the center of the screen.  This tells you that a trial is about to begin and where to look. Second, the plus sign will disappear and a string of letters will appear. Your task is to determine if the string of letters is a word or not. If the item is a word press the M key (on keyboard)  or touch the word button (phone/tablet).  If the item is not a word,  press the  Z key (on keyboard)  or touch the nonword button (on phone/tablet). 
Press the space bar or touch  continue.",0,,200143,20,2022-01-28_14h10.07.064,lexical_decision_task_DD,2021.2.3,MacIntel,59.97720866,,,,,,,,,,,,,,,,,,,,,,,,,,,,,,,,,,,,,,,,,,,,,,,,,,,,,,,,,,,,,,,,,,,,,,,,,,
space,-0.052903629,-0.126881567,0,0,0,,0,1,1,1,1,2,instructions,"If your device has a keyboard, press the 'Z' key for nonwords and the 'M' key for words.





Press the space bar or touch the button below to continue.",0,keyboard-example.gif,200143,20,2022-01-28_14h10.07.064,lexical_decision_task_DD,2021.2.3,MacIntel,59.97720866,11.3013,,,,,,,,,,,,,,,,,,,,,,,,,,,,,,,,,,,,,,,,,,,,,,,,,,,,,,,,,,,,,,,,,,,,,,,,,
space,-0.052903629,-0.126881567,0,0,0,,0,2,2,2,1,3,instructions,"If you are using a touchscreen only device, use the buttons on the screen. Do not use the mouse.





Press the space bar or touch the button below to continue.",0,touchscreen-example.gif,200143,20,2022-01-28_14h10.07.064,lexical_decision_task_DD,2021.2.3,MacIntel,59.97720866,12.1064,,,,,,,,,,,,,,,,,,,,,,,,,,,,,,,,,,,,,,,,,,,,,,,,,,,,,,,,,,,,,,,,,,,,,,,,,
space,-0.052903629,-0.126881567,0,0,0,,0,3,3,3,1,4,instructions,"It is very important that you respond as quickly and accurately as possible, as each letter string will only be on the screen for two seconds. If you do not respond within this time, the message 'Too slow!' will be displayed and the experiment will progress to the next letter string. The first 20 trials will be practice trials and you will receive feedback on your answers. 

Press the space bar or touch the button below to start the practice trials.",0,,200143,20,2022-01-28_14h10.07.064,lexical_decision_task_DD,2021.2.3,MacIntel,59.97720866,25.0305,,,,,,,,,,,,,,,,,,,,,,,,,,,,,,,,,,,,,,,,,,,,,,,,,,,,,,,,,,,,,,,,,,,,,,,,,
,,,,,,,,,,,,,,,,,200143,20,2022-01-28_14h10.07.064,lexical_decision_task_DD,2021.2.3,MacIntel,59.97720866,,z,1,1.7957,,,,,,,,1.7957,1,0,0,0,14,1,1001,THRALE,z,,,,,,,,,,,,,,,,,,,,,,,,,,,,,,,,,,,,,,,,,,,,,,,,,,,,,
,,,,,,,,,,,,,,,,,200143,20,2022-01-28_14h10.07.064,lexical_decision_task_DD,2021.2.3,MacIntel,59.97720866,,z,1,0.8402,,,,,,,,0.8402,1,0,1,1,8,1,1001,ASLERT,z,,,,,,,,,,,,,,,,,,,,,,,,,,,,,,,,,,,,,,,,,,,,,,,,,,,,,
,,,,,,,,,,,,,,,,,200143,20,2022-01-28_14h10.07.064,lexical_decision_task_DD,2021.2.3,MacIntel,59.97720866,,z,1,0.7501,,,,,,,,0.7501,1,0,2,2,12,1,1001,SPRINY,z,,,,,,,,,,,,,,,,,,,,,,,,,,,,,,,,,,,,,,,,,,,,,,,,,,,,,
,,,,,,,,,,,,,,,,,200143,20,2022-01-28_14h10.07.064,lexical_decision_task_DD,2021.2.3,MacIntel,59.97720866,,z,1,1.1322,,,,,,,,1.1322,1,0,3,3,15,1,1001,WHAISE,z,,,,,,,,,,,,,,,,,,,,,,,,,,,,,,,,,,,,,,,,,,,,,,,,,,,,,
,,,,,,,,,,,,,,,,,200143,20,2022-01-28_14h10.07.064,lexical_decision_task_DD,2021.2.3,MacIntel,59.97720866,,z,1,1.0209,,,,,,,,1.0209,1,0,4,4,13,1,1001,ROUPET,z,,,,,,,,,,,,,,,,,,,,,,,,,,,,,,,,,,,,,,,,,,,,,,,,,,,,,
,,,,,,,,,,,,,,,,,200143,20,2022-01-28_14h10.07.064,lexical_decision_task_DD,2021.2.3,MacIntel,59.97720866,,m,1,0.7032,,,,,,,,0.7032,1,0,5,5,6,1,1001,ZOMBIE,m,,,,,,,,,,,,,,,,,,,,,,,,,,,,,,,,,,,,,,,,,,,,,,,,,,,,,
,,,,,,,,,,,,,,,,,200143,20,2022-01-28_14h10.07.064,lexical_decision_task_DD,2021.2.3,MacIntel,59.97720866,,m,1,0.916,,,,,,,,0.916,1,0,6,6,0,1,1001,UTOPIA,m,,,,,,,,,,,,,,,,,,,,,,,,,,,,,,,,,,,,,,,,,,,,,,,,,,,,,
,,,,,,,,,,,,,,,,,200143,20,2022-01-28_14h10.07.064,lexical_decision_task_DD,2021.2.3,MacIntel,59.97720866,,z,1,0.7434,,,,,,,,0.7434,1,0,7,7,9,1,1001,FARINY,z,,,,,,,,,,,,,,,,,,,,,,,,,,,,,,,,,,,,,,,,,,,,,,,,,,,,,
,,,,,,,,,,,,,,,,,200143,20,2022-01-28_14h10.07.064,lexical_decision_task_DD,2021.2.3,MacIntel,59.97720866,,m,1,0.7158,,,,,,,,0.7158,1,0,8,8,4,1,1001,SQUEAK,m,,,,,,,,,,,,,,,,,,,,,,,,,,,,,,,,,,,,,,,,,,,,,,,,,,,,,
,,,,,,,,,,,,,,,,,200143,20,2022-01-28_14h10.07.064,lexical_decision_task_DD,2021.2.3,MacIntel,59.97720866,,m,1,0.7743,,,,,,,,0.7743,1,0,9,9,3,1,1001,MATRIX,m,,,,,,,,,,,,,,,,,,,,,,,,,,,,,,,,,,,,,,,,,,,,,,,,,,,,,
,,,,,,,,,,,,,,,,,200143,20,2022-01-28_14h10.07.064,lexical_decision_task_DD,2021.2.3,MacIntel,59.97720866,,m,1,0.7023,,,,,,,,0.7023,1,0,10,10,7,1,1001,VOLUME,m,,,,,,,,,,,,,,,,,,,,,,,,,,,,,,,,,,,,,,,,,,,,,,,,,,,,,
,,,,,,,,,,,,,,,,,200143,20,2022-01-28_14h10.07.064,lexical_decision_task_DD,2021.2.3,MacIntel,59.97720866,,m,1,0.6855,,,,,,,,0.6855,1,0,11,11,1,1,1001,ADJUST,m,,,,,,,,,,,,,,,,,,,,,,,,,,,,,,,,,,,,,,,,,,,,,,,,,,,,,
,,,,,,,,,,,,,,,,,200143,20,2022-01-28_14h10.07.064,lexical_decision_task_DD,2021.2.3,MacIntel,59.97720866,,z,1,1.0642,,,,,,,,1.0642,1,0,12,12,11,1,1001,RASHET,z,,,,,,,,,,,,,,,,,,,,,,,,,,,,,,,,,,,,,,,,,,,,,,,,,,,,,
,,,,,,,,,,,,,,,,,200143,20,2022-01-28_14h10.07.064,lexical_decision_task_DD,2021.2.3,MacIntel,59.97720866,,z,0,0.9378,,,,,,,,0.9378,0,0,13,13,2,1,1001,ALMOND,m,,,,,,,,,,,,,,,,,,,,,,,,,,,,,,,,,,,,,,,,,,,,,,,,,,,,,
,,,,,,,,,,,,,,,,,200143,20,2022-01-28_14h10.07.064,lexical_decision_task_DD,2021.2.3,MacIntel,59.97720866,,z,1,1.2198,,,,,,,,1.2198,1,0,14,14,10,1,1001,INLADE,z,,,,,,,,,,,,,,,,,,,,,,,,,,,,,,,,,,,,,,,,,,,,,,,,,,,,,
,,,,,,,,,,,,,,,,,200143,20,2022-01-28_14h10.07.064,lexical_decision_task_DD,2021.2.3,MacIntel,59.97720866,,m,1,0.6589,,,,,,,,0.6589,1,0,15,15,5,1,1001,OBTAIN,m,,,,,,,,,,,,,,,,,,,,,,,,,,,,,,,,,,,,,,,,,,,,,,,,,,,,,
space,-0.002350602,-0.412250449,0,0,0,,,,,,,1,end_of_practice,"You have completed the practice trials. During the experimental trials, you will not receive feedback. 
Before you begin, please ensure that you are in a comfortable and quiet location and will not be disturbed for about 15 minutes, as we cannot use your data if you do not complete all the trials. 
 When you are ready to start the experimental trials, please press space or touch the button below.",,,200143,20,2022-01-28_14h10.07.064,lexical_decision_task_DD,2021.2.3,MacIntel,59.97720866,85.257,,,,,,,,,,,,,,,,,,,,,0,0,0,0,1,,,,,,,,,,,,,,,,,,,,,,,,,,,,,,,,,,,,,,,,,,,,,,,,
,,,,,,,,,,,,,,,,,200143,20,2022-01-28_14h10.07.064,lexical_decision_task_DD,2021.2.3,MacIntel,59.97720866,,,,,,,,,,,,1.0748,1,,,,,,,,,,,,,,m,1,1.0748,,,,,,,,-0.002350602,-0.412250449,0,0,0,,0,0,0,33,1,MAGGOT,C,old,m,./images/MAGGOT.png,,,,,,,,,,,,,,,,,,,,,,
,,,,,,,,,,,,,,,,,200143,20,2022-01-28_14h10.07.064,lexical_decision_task_DD,2021.2.3,MacIntel,59.97720866,,,,,,,,,,,,0.6981,1,,,,,,,,,,,,,,z,1,0.6981,,,,,,,,-0.002350602,-0.412250449,0,0,0,,0,1,1,141,1,PLEET,C,old,z,./images/PLEET.png,,,,,,,,,,,,,,,,,,,,,,
,,,,,,,,,,,,,,,,,200143,20,2022-01-28_14h10.07.064,lexical_decision_task_DD,2021.2.3,MacIntel,59.97720866,,,,,,,,,,,,2.3491,0,,,,,,,,,,,,,,m,0,2.3491,,,,,,,,-0.002350602,-0.412250449,0,0,0,,0,2,2,128,1,GRIFT,LB,old,z,./images/GRIFTLB.png,,,,,,,,,,,,,,,,,,,,,,
,,,,,,,,,,,,,,,,,200143,20,2022-01-28_14h10.07.064,lexical_decision_task_DD,2021.2.3,MacIntel,59.97720866,,,,,,,,,,,,1.0727,1,,,,,,,,,,,,,,m,1,1.0727,,,,,,,,-0.002350602,-0.412250449,0,0,0,,0,3,3,25,1,WRIST,HB,old,m,./images/WRISTHB.png,,,,,,,,,,,,,,,,,,,,,,
,,,,,,,,,,,,,,,,,200143,20,2022-01-28_14h10.07.064,lexical_decision_task_DD,2021.2.3,MacIntel,59.97720866,,,,,,,,,,,,1.6421,1,,,,,,,,,,,,,,z,1,1.6421,,,,,,,,-0.002350602,-0.412250449,0,0,0,,0,4,4,95,1,HANTY,LB,old,z,./images/HANTYLB.png,,,,,,,,,,,,,,,,,,,,,,
,,,,,,,,,,,,,,,,,200143,20,2022-01-28_14h10.07.064,lexical_decision_task_DD,2021.2.3,MacIntel,59.97720866,,,,,,,,,,,,1.9817,1,,,,,,,,,,,,,,z,1,1.9817,,,,,,,,-0.002350602,-0.412250449,0,0,0,,0,5,5,158,1,EGECT,LB,old,z,./images/EGECTLB.png,,,,,,,,,,,,,,,,,,,,,,
,,,,,,,,,,,,,,,,,200143,20,2022-01-28_14h10.07.064,lexical_decision_task_DD,2021.2.3,MacIntel,59.97720866,,,,,,,,,,,,1.1957,1,,,,,,,,,,,,,,m,1,1.1957,,,,,,,,-0.002350602,-0.412250449,0,0,0,,0,6,6,13,1,MOTOR,HB,old,m,./images/MOTORHB.png,,,,,,,,,,,,,,,,,,,,,,
,,,,,,,,,,,,,,,,,200143,20,2022-01-28_14h10.07.064,lexical_decision_task_DD,2021.2.3,MacIntel,59.97720866,,,,,,,,,,,,1.1976,1,,,,,,,,,,,,,,z,1,1.1976,,,,,,,,-0.002350602,-0.412250449,0,0,0,,0,7,7,145,1,LAMEL,HB,old,z,./images/LAMELHB.png,,,,,,,,,,,,,,,,,,,,,,
,,,,,,,,,,,,,,,,,200143,20,2022-01-28_14h10.07.064,lexical_decision_task_DD,2021.2.3,MacIntel,59.97720866,,,,,,,,,,,,0.9106,1,,,,,,,,,,,,,,m,1,0.9106,,,,,,,,-0.002350602,-0.412250449,0,0,0,,0,8,8,21,1,KIDNEY,C,old,m,./images/KIDNEY.png,,,,,,,,,,,,,,,,,,,,,,
,,,,,,,,,,,,,,,,,200143,20,2022-01-28_14h10.07.064,lexical_decision_task_DD,2021.2.3,MacIntel,59.97720866,,,,,,,,,,,,1.8829,1,,,,,,,,,,,,,,m,1,1.8829,,,,,,,,-0.002350602,-0.412250449,0,0,0,,0,9,9,61,1,CANDLE,HB,old,m,./images/CANDLEHB.png,,,,,,,,,,,,,,,,,,,,,,
,,,,,,,,,,,,,,,,,200143,20,2022-01-28_14h10.07.064,lexical_decision_task_DD,2021.2.3,MacIntel,59.97720866,,,,,,,,,,,,3.0016,1,,,,,,,,,,,,,,z,1,3.0016,,,,,,,,-0.002350602,-0.412250449,0,0,0,,0,10,10,126,1,GUELS,C,old,z,./images/GUELS.png,,,,,,,,,,,,,,,,,,,,,,
,,,,,,,,,,,,,,,,,200143,20,2022-01-28_14h10.07.064,lexical_decision_task_DD,2021.2.3,MacIntel,59.97720866,,,,,,,,,,,,0.6713,1,,,,,,,,,,,,,,m,1,0.6713,,,,,,,,-0.002350602,-0.412250449,0,0,0,,0,11,11,26,1,SMOKER,LB,old,m,./images/SMOKERLB.png,,,,,,,,,,,,,,,,,,,,,,
,,,,,,,,,,,,,,,,,200143,20,2022-01-28_14h10.07.064,lexical_decision_task_DD,2021.2.3,MacIntel,59.97720866,,,,,,,,,,,,0.8687,1,,,,,,,,,,,,,,z,1,0.8687,,,,,,,,-0.002350602,-0.412250449,0,0,0,,0,12,12,146,1,MOOST,LB,old,z,./images/MOOSTLB.png,,,,,,,,,,,,,,,,,,,,,,
,,,,,,,,,,,,,,,,,200143,20,2022-01-28_14h10.07.064,lexical_decision_task_DD,2021.2.3,MacIntel,59.97720866,,,,,,,,,,,,0.9088,1,,,,,,,,,,,,,,m,1,0.9088,,,,,,,,-0.002350602,-0.412250449,0,0,0,,0,13,13,20,1,CRADLE,LB,old,m,./images/CRADLELB.png,,,,,,,,,,,,,,,,,,,,,,
,,,,,,,,,,,,,,,,,200143,20,2022-01-28_14h10.07.064,lexical_decision_task_DD,2021.2.3,MacIntel,59.97720866,,,,,,,,,,,,1.8816,1,,,,,,,,,,,,,,z,1,1.8816,,,,,,,,-0.002350602,-0.412250449,0,0,0,,0,14,14,96,1,KEAMS,C,old,z,./images/KEAMS.png,,,,,,,,,,,,,,,,,,,,,,
,,,,,,,,,,,,,,,,,200143,20,2022-01-28_14h10.07.064,lexical_decision_task_DD,2021.2.3,MacIntel,59.97720866,,,,,,,,,,,,3.4002,1,,,,,,,,,,,,,,z,1,3.4002,,,,,,,,-0.002350602,-0.412250449,0,0,0,,0,15,15,163,1,GAMBA,HB,old,z,./images/GAMBAHB.png,,,,,,,,,,,,,,,,,,,,,,
,,,,,,,,,,,,,,,,,200143,20,2022-01-28_14h10.07.064,lexical_decision_task_DD,2021.2.3,MacIntel,59.97720866,,,,,,,,,,,,1.0364,1,,,,,,,,,,,,,,m,1,1.0364,,,,,,,,-0.002350602,-0.412250449,0,0,0,,0,16,16,71,1,PIMPLE,LB,old,m,./images/PIMPLELB.png,,,,,,,,,,,,,,,,,,,,,,
,,,,,,,,,,,,,,,,,200143,20,2022-01-28_14h10.07.064,lexical_decision_task_DD,2021.2.3,MacIntel,59.97720866,,,,,,,,,,,,1.1923,1,,,,,,,,,,,,,,z,1,1.1923,,,,,,,,-0.002350602,-0.412250449,0,0,0,,0,17,17,102,1,DULLE,C,old,z,./images/DULLE.png,,,,,,,,,,,,,,,,,,,,,,
,,,,,,,,,,,,,,,,,200143,20,2022-01-28_14h10.07.064,lexical_decision_task_DD,2021.2.3,MacIntel,59.97720866,,,,,,,,,,,,0.7351,1,,,,,,,,,,,,,,m,1,0.7351,,,,,,,,-0.002350602,-0.412250449,0,0,0,,0,18,18,65,1,FARMER,LB,old,m,./images/FARMERLB.png,,,,,,,,,,,,,,,,,,,,,,
,,,,,,,,,,,,,,,,,200143,20,2022-01-28_14h10.07.064,lexical_decision_task_DD,2021.2.3,MacIntel,59.97720866,,,,,,,,,,,,1.6406,1,,,,,,,,,,,,,,m,1,1.6406,,,,,,,,-0.002350602,-0.412250449,0,0,0,,0,19,19,49,1,DRUMS,HB,old,m,./images/DRUMSHB.png,,,,,,,,,,,,,,,,,,,,,,
,,,,,,,,,,,,,,,,,200143,20,2022-01-28_14h10.07.064,lexical_decision_task_DD,2021.2.3,MacIntel,59.97720866,,,,,,,,,,,,1.3515,1,,,,,,,,,,,,,,m,1,1.3515,,,,,,,,-0.002350602,-0.412250449,0,0,0,,0,20,20,4,1,MUSCLE,HB,old,m,./images/MUSCLEHB.png,,,,,,,,,,,,,,,,,,,,,,
,,,,,,,,,,,,,,,,,200143,20,2022-01-28_14h10.07.064,lexical_decision_task_DD,2021.2.3,MacIntel,59.97720866,,,,,,,,,,,,1.1188,1,,,,,,,,,,,,,,m,1,1.1188,,,,,,,,-0.002350602,-0.412250449,0,0,0,,0,21,21,15,1,GREASE,C,old,m,./images/GREASE.png,,,,,,,,,,,,,,,,,,,,,,
,,,,,,,,,,,,,,,,,200143,20,2022-01-28_14h10.07.064,lexical_decision_task_DD,2021.2.3,MacIntel,59.97720866,,,,,,,,,,,,1.3123,1,,,,,,,,,,,,,,z,1,1.3123,,,,,,,,-0.002350602,-0.412250449,0,0,0,,0,22,22,111,1,HOSSE,C,old,z,./images/HOSSE.png,,,,,,,,,,,,,,,,,,,,,,
,,,,,,,,,,,,,,,,,200143,20,2022-01-28_14h10.07.064,lexical_decision_task_DD,2021.2.3,MacIntel,59.97720866,,,,,,,,,,,,1.3644,1,,,,,,,,,,,,,,m,1,1.3644,,,,,,,,-0.002350602,-0.412250449,0,0,0,,0,23,23,28,1,FALCON,HB,old,m,./images/FALCONHB.png,,,,,,,,,,,,,,,,,,,,,,
,,,,,,,,,,,,,,,,,200143,20,2022-01-28_14h10.07.064,lexical_decision_task_DD,2021.2.3,MacIntel,59.97720866,,,,,,,,,,,,0.7163,1,,,,,,,,,,,,,,m,1,0.7163,,,,,,,,-0.002350602,-0.412250449,0,0,0,,0,24,24,62,1,PURSE,LB,old,m,./images/PURSELB.png,,,,,,,,,,,,,,,,,,,,,,
,,,,,,,,,,,,,,,,,200143,20,2022-01-28_14h10.07.064,lexical_decision_task_DD,2021.2.3,MacIntel,59.97720866,,,,,,,,,,,,1.9763,1,,,,,,,,,,,,,,m,1,1.9763,,,,,,,,-0.002350602,-0.412250449,0,0,0,,0,25,25,1,1,PLANK,HB,old,m,./images/PLANKHB.png,,,,,,,,,,,,,,,,,,,,,,
,,,,,,,,,,,,,,,,,200143,20,2022-01-28_14h10.07.064,lexical_decision_task_DD,2021.2.3,MacIntel,59.97720866,,,,,,,,,,,,2.0505,1,,,,,,,,,,,,,,z,1,2.0505,,,,,,,,-0.002350602,-0.412250449,0,0,0,,0,26,26,136,1,WERVE,HB,old,z,./images/WERVEHB.png,,,,,,,,,,,,,,,,,,,,,,
,,,,,,,,,,,,,,,,,200143,20,2022-01-28_14h10.07.064,lexical_decision_task_DD,2021.2.3,MacIntel,59.97720866,,,,,,,,,,,,3.4161,1,,,,,,,,,,,,,,z,1,3.4161,,,,,,,,-0.002350602,-0.412250449,0,0,0,,0,27,27,159,1,CUDDY,C,old,z,./images/CUDDY.png,,,,,,,,,,,,,,,,,,,,,,
,,,,,,,,,,,,,,,,,200143,20,2022-01-28_14h10.07.064,lexical_decision_task_DD,2021.2.3,MacIntel,59.97720866,,,,,,,,,,,,0.9567,1,,,,,,,,,,,,,,z,1,0.9567,,,,,,,,-0.002350602,-0.412250449,0,0,0,,0,28,28,105,1,MOKER,C,old,z,./images/MOKER.png,,,,,,,,,,,,,,,,,,,,,,
,,,,,,,,,,,,,,,,,200143,20,2022-01-28_14h10.07.064,lexical_decision_task_DD,2021.2.3,MacIntel,59.97720866,,,,,,,,,,,,1.4676,0,,,,,,,,,,,,,,m,0,1.4676,,,,,,,,-0.002350602,-0.412250449,0,0,0,,0,29,29,123,1,SEDGE,C,old,z,./images/SEDGE.png,,,,,,,,,,,,,,,,,,,,,,
,,,,,,,,,,,,,,,,,200143,20,2022-01-28_14h10.07.064,lexical_decision_task_DD,2021.2.3,MacIntel,59.97720866,,,,,,,,,,,,0.816,1,,,,,,,,,,,,,,m,1,0.816,,,,,,,,-0.002350602,-0.412250449,0,0,0,,0,30,30,9,1,RHINO,C,old,m,./images/RHINO.png,,,,,,,,,,,,,,,,,,,,,,
,,,,,,,,,,,,,,,,,200143,20,2022-01-28_14h10.07.064,lexical_decision_task_DD,2021.2.3,MacIntel,59.97720866,,,,,,,,,,,,3.755,1,,,,,,,,,,,,,,z,1,3.755,,,,,,,,-0.002350602,-0.412250449,0,0,0,,0,31,31,151,1,TINKY,HB,old,z,./images/TINKYHB.png,,,,,,,,,,,,,,,,,,,,,,
,,,,,,,,,,,,,,,,,200143,20,2022-01-28_14h10.07.064,lexical_decision_task_DD,2021.2.3,MacIntel,59.97720866,,,,,,,,,,,,1.0262,1,,,,,,,,,,,,,,m,1,1.0262,,,,,,,,-0.002350602,-0.412250449,0,0,0,,0,32,32,63,1,MIRROR,C,old,m,./images/MIRROR.png,,,,,,,,,,,,,,,,,,,,,,
,,,,,,,,,,,,,,,,,200143,20,2022-01-28_14h10.07.064,lexical_decision_task_DD,2021.2.3,MacIntel,59.97720866,,,,,,,,,,,,1.1929,1,,,,,,,,,,,,,,m,1,1.1929,,,,,,,,-0.002350602,-0.412250449,0,0,0,,0,33,33,79,1,CRUST,HB,old,m,./images/CRUSTHB.png,,,,,,,,,,,,,,,,,,,,,,
,,,,,,,,,,,,,,,,,200143,20,2022-01-28_14h10.07.064,lexical_decision_task_DD,2021.2.3,MacIntel,59.97720866,,,,,,,,,,,,2.0821,1,,,,,,,,,,,,,,z,1,2.0821,,,,,,,,-0.002350602,-0.412250449,0,0,0,,0,34,34,127,1,NINDY,HB,old,z,./images/NINDYHB.png,,,,,,,,,,,,,,,,,,,,,,
,,,,,,,,,,,,,,,,,200143,20,2022-01-28_14h10.07.064,lexical_decision_task_DD,2021.2.3,MacIntel,59.97720866,,,,,,,,,,,,1.1287,0,,,,,,,,,,,,,,m,0,1.1287,,,,,,,,-0.002350602,-0.412250449,0,0,0,,0,35,35,110,1,CRUNK,LB,old,z,./images/CRUNKLB.png,,,,,,,,,,,,,,,,,,,,,,
,,,,,,,,,,,,,,,,,200143,20,2022-01-28_14h10.07.064,lexical_decision_task_DD,2021.2.3,MacIntel,59.97720866,,,,,,,,,,,,0.9824,1,,,,,,,,,,,,,,m,1,0.9824,,,,,,,,-0.002350602,-0.412250449,0,0,0,,0,36,36,17,1,SKIING,LB,old,m,./images/SKIINGLB.png,,,,,,,,,,,,,,,,,,,,,,
,,,,,,,,,,,,,,,,,200143,20,2022-01-28_14h10.07.064,lexical_decision_task_DD,2021.2.3,MacIntel,59.97720866,,,,,,,,,,,,0.9666,1,,,,,,,,,,,,,,z,1,0.9666,,,,,,,,-0.002350602,-0.412250449,0,0,0,,0,37,37,108,1,GRUET,C,old,z,./images/GRUET.png,,,,,,,,,,,,,,,,,,,,,,
,,,,,,,,,,,,,,,,,200143,20,2022-01-28_14h10.07.064,lexical_decision_task_DD,2021.2.3,MacIntel,59.97720866,,,,,,,,,,,,0.7805,1,,,,,,,,,,,,,,m,1,0.7805,,,,,,,,-0.002350602,-0.412250449,0,0,0,,0,38,38,36,1,THROAT,C,old,m,./images/THROAT.png,,,,,,,,,,,,,,,,,,,,,,
,,,,,,,,,,,,,,,,,200143,20,2022-01-28_14h10.07.064,lexical_decision_task_DD,2021.2.3,MacIntel,59.97720866,,,,,,,,,,,,3.6899,1,,,,,,,,,,,,,,z,1,3.6899,,,,,,,,-0.002350602,-0.412250449,0,0,0,,0,39,39,103,1,FLORT,HB,old,z,./images/FLORTHB.png,,,,,,,,,,,,,,,,,,,,,,
,,,,,,,,,,,,,,,,,200143,20,2022-01-28_14h10.07.064,lexical_decision_task_DD,2021.2.3,MacIntel,59.97720866,,,,,,,,,,,,1.8475,1,,,,,,,,,,,,,,z,1,1.8475,,,,,,,,-0.002350602,-0.412250449,0,0,0,,0,40,40,119,1,PAFER,LB,old,z,./images/PAFERLB.png,,,,,,,,,,,,,,,,,,,,,,
,,,,,,,,,,,,,,,,,200143,20,2022-01-28_14h10.07.064,lexical_decision_task_DD,2021.2.3,MacIntel,59.97720866,,,,,,,,,,,,1.5459,1,,,,,,,,,,,,,,m,1,1.5459,,,,,,,,0.048722062,-0.243844296,0,0,0,space,0,41,41,34,1,CANYON,HB,old,m,./images/CANYONHB.png,31.6654,,,,,,,,,,,,,,,,,,,,,
,,,,,,,,,,,,,,,,,200143,20,2022-01-28_14h10.07.064,lexical_decision_task_DD,2021.2.3,MacIntel,59.97720866,,,,,,,,,,,,1.2636,0,,,,,,,,,,,,,,z,0,1.2636,,,,,,,,0.048722062,-0.243844296,0,0,0,,0,42,42,10,1,BELLY,HB,old,m,./images/BELLYHB.png,,,,,,,,,,,,,,,,,,,,,,
,,,,,,,,,,,,,,,,,200143,20,2022-01-28_14h10.07.064,lexical_decision_task_DD,2021.2.3,MacIntel,59.97720866,,,,,,,,,,,,1.0641,1,,,,,,,,,,,,,,m,1,1.0641,,,,,,,,0.048722062,-0.243844296,0,0,0,,0,43,43,67,1,SAILOR,HB,old,m,./images/SAILORHB.png,,,,,,,,,,,,,,,,,,,,,,
,,,,,,,,,,,,,,,,,200143,20,2022-01-28_14h10.07.064,lexical_decision_task_DD,2021.2.3,MacIntel,59.97720866,,,,,,,,,,,,0.8954,1,,,,,,,,,,,,,,m,1,0.8954,,,,,,,,0.048722062,-0.243844296,0,0,0,,0,44,44,57,1,MOOSE,C,old,m,./images/MOOSE.png,,,,,,,,,,,,,,,,,,,,,,
,,,,,,,,,,,,,,,,,200143,20,2022-01-28_14h10.07.064,lexical_decision_task_DD,2021.2.3,MacIntel,59.97720866,,,,,,,,,,,,2.9308,1,,,,,,,,,,,,,,m,1,2.9308,,,,,,,,0.048722062,-0.243844296,0,0,0,,0,45,45,14,1,PICKLE,LB,old,m,./images/PICKLELB.png,,,,,,,,,,,,,,,,,,,,,,
,,,,,,,,,,,,,,,,,200143,20,2022-01-28_14h10.07.064,lexical_decision_task_DD,2021.2.3,MacIntel,59.97720866,,,,,,,,,,,,0.8958,1,,,,,,,,,,,,,,z,1,0.8958,,,,,,,,0.048722062,-0.243844296,0,0,0,,0,46,46,86,1,AIFED,LB,old,z,./images/AIFEDLB.png,,,,,,,,,,,,,,,,,,,,,,
,,,,,,,,,,,,,,,,,200143,20,2022-01-28_14h10.07.064,lexical_decision_task_DD,2021.2.3,MacIntel,59.97720866,,,,,,,,,,,,1.6684,1,,,,,,,,,,,,,,m,1,1.6684,,,,,,,,0.048722062,-0.243844296,0,0,0,,0,47,47,31,1,QUILL,HB,old,m,./images/QUILLHB.png,,,,,,,,,,,,,,,,,,,,,,
,,,,,,,,,,,,,,,,,200143,20,2022-01-28_14h10.07.064,lexical_decision_task_DD,2021.2.3,MacIntel,59.97720866,,,,,,,,,,,,1.5146,1,,,,,,,,,,,,,,z,1,1.5146,,,,,,,,0.048722062,-0.243844296,0,0,0,,0,48,48,117,1,STEEG,C,old,z,./images/STEEG.png,,,,,,,,,,,,,,,,,,,,,,
,,,,,,,,,,,,,,,,,200143,20,2022-01-28_14h10.07.064,lexical_decision_task_DD,2021.2.3,MacIntel,59.97720866,,,,,,,,,,,,1.1636,1,,,,,,,,,,,,,,m,1,1.1636,,,,,,,,0.048722062,-0.243844296,0,0,0,,0,49,49,58,1,BABOON,HB,old,m,./images/BABOONHB.png,,,,,,,,,,,,,,,,,,,,,,
,,,,,,,,,,,,,,,,,200143,20,2022-01-28_14h10.07.064,lexical_decision_task_DD,2021.2.3,MacIntel,59.97720866,,,,,,,,,,,,0.7786,1,,,,,,,,,,,,,,m,1,0.7786,,,,,,,,0.048722062,-0.243844296,0,0,0,,0,50,50,53,1,CARPET,LB,old,m,./images/CARPETLB.png,,,,,,,,,,,,,,,,,,,,,,
,,,,,,,,,,,,,,,,,200143,20,2022-01-28_14h10.07.064,lexical_decision_task_DD,2021.2.3,MacIntel,59.97720866,,,,,,,,,,,,0.7499,1,,,,,,,,,,,,,,m,1,0.7499,,,,,,,,0.048722062,-0.243844296,0,0,0,,0,51,51,72,1,NOOSE,C,old,m,./images/NOOSE.png,,,,,,,,,,,,,,,,,,,,,,
,,,,,,,,,,,,,,,,,200143,20,2022-01-28_14h10.07.064,lexical_decision_task_DD,2021.2.3,MacIntel,59.97720866,,,,,,,,,,,,0.5855,1,,,,,,,,,,,,,,m,1,0.5855,,,,,,,,0.048722062,-0.243844296,0,0,0,,0,52,52,30,1,STORM,C,old,m,./images/STORM.png,,,,,,,,,,,,,,,,,,,,,,
,,,,,,,,,,,,,,,,,200143,20,2022-01-28_14h10.07.064,lexical_decision_task_DD,2021.2.3,MacIntel,59.97720866,,,,,,,,,,,,0.5854,1,,,,,,,,,,,,,,m,1,0.5854,,,,,,,,0.048722062,-0.243844296,0,0,0,,0,53,53,32,1,BARREL,LB,old,m,./images/BARRELLB.png,,,,,,,,,,,,,,,,,,,,,,
,,,,,,,,,,,,,,,,,200143,20,2022-01-28_14h10.07.064,lexical_decision_task_DD,2021.2.3,MacIntel,59.97720866,,,,,,,,,,,,1.1349,1,,,,,,,,,,,,,,z,1,1.1349,,,,,,,,0.048722062,-0.243844296,0,0,0,,0,54,54,143,1,MONGS,LB,old,z,./images/MONGSLB.png,,,,,,,,,,,,,,,,,,,,,,
,,,,,,,,,,,,,,,,,200143,20,2022-01-28_14h10.07.064,lexical_decision_task_DD,2021.2.3,MacIntel,59.97720866,,,,,,,,,,,,0.6989,1,,,,,,,,,,,,,,m,1,0.6989,,,,,,,,0.048722062,-0.243844296,0,0,0,,0,55,55,60,1,TWINS,C,old,m,./images/TWINS.png,,,,,,,,,,,,,,,,,,,,,,
,,,,,,,,,,,,,,,,,200143,20,2022-01-28_14h10.07.064,lexical_decision_task_DD,2021.2.3,MacIntel,59.97720866,,,,,,,,,,,,0.9452,1,,,,,,,,,,,,,,m,1,0.9452,,,,,,,,0.048722062,-0.243844296,0,0,0,,0,56,56,23,1,WALRUS,LB,old,m,./images/WALRUSLB.png,,,,,,,,,,,,,,,,,,,,,,
,,,,,,,,,,,,,,,,,200143,20,2022-01-28_14h10.07.064,lexical_decision_task_DD,2021.2.3,MacIntel,59.97720866,,,,,,,,,,,,1.1564,1,,,,,,,,,,,,,,m,1,1.1564,,,,,,,,0.048722062,-0.243844296,0,0,0,,0,57,57,82,1,SUNSET,HB,old,m,./images/SUNSETHB.png,,,,,,,,,,,,,,,,,,,,,,
,,,,,,,,,,,,,,,,,200143,20,2022-01-28_14h10.07.064,lexical_decision_task_DD,2021.2.3,MacIntel,59.97720866,,,,,,,,,,,,1.5175,1,,,,,,,,,,,,,,z,1,1.5175,,,,,,,,0.048722062,-0.243844296,0,0,0,,0,58,58,92,1,PAIMS,LB,old,z,./images/PAIMSLB.png,,,,,,,,,,,,,,,,,,,,,,
,,,,,,,,,,,,,,,,,200143,20,2022-01-28_14h10.07.064,lexical_decision_task_DD,2021.2.3,MacIntel,59.97720866,,,,,,,,,,,,1.6755,1,,,,,,,,,,,,,,z,1,1.6755,,,,,,,,0.048722062,-0.243844296,0,0,0,,0,59,59,129,1,PRANS,C,old,z,./images/PRANS.png,,,,,,,,,,,,,,,,,,,,,,
,,,,,,,,,,,,,,,,,200143,20,2022-01-28_14h10.07.064,lexical_decision_task_DD,2021.2.3,MacIntel,59.97720866,,,,,,,,,,,,2.9478,1,,,,,,,,,,,,,,z,1,2.9478,,,,,,,,0.048722062,-0.243844296,0,0,0,,0,60,60,85,1,CHULK,HB,old,z,./images/CHULKHB.png,,,,,,,,,,,,,,,,,,,,,,
,,,,,,,,,,,,,,,,,200143,20,2022-01-28_14h10.07.064,lexical_decision_task_DD,2021.2.3,MacIntel,59.97720866,,,,,,,,,,,,3.4679,0,,,,,,,,,,,,,,m,0,3.4679,,,,,,,,0.048722062,-0.243844296,0,0,0,,0,61,61,88,1,GLUSH,HB,old,z,./images/GLUSHHB.png,,,,,,,,,,,,,,,,,,,,,,
,,,,,,,,,,,,,,,,,200143,20,2022-01-28_14h10.07.064,lexical_decision_task_DD,2021.2.3,MacIntel,59.97720866,,,,,,,,,,,,1.114,1,,,,,,,,,,,,,,z,1,1.114,,,,,,,,0.048722062,-0.243844296,0,0,0,,0,62,62,167,1,ZONET,LB,old,z,./images/ZONETLB.png,,,,,,,,,,,,,,,,,,,,,,
,,,,,,,,,,,,,,,,,200143,20,2022-01-28_14h10.07.064,lexical_decision_task_DD,2021.2.3,MacIntel,59.97720866,,,,,,,,,,,,1.8495,1,,,,,,,,,,,,,,z,1,1.8495,,,,,,,,0.048722062,-0.243844296,0,0,0,,0,63,63,133,1,POWDY,HB,old,z,./images/POWDYHB.png,,,,,,,,,,,,,,,,,,,,,,
,,,,,,,,,,,,,,,,,200143,20,2022-01-28_14h10.07.064,lexical_decision_task_DD,2021.2.3,MacIntel,59.97720866,,,,,,,,,,,,0.7509,1,,,,,,,,,,,,,,m,1,0.7509,,,,,,,,0.048722062,-0.243844296,0,0,0,,0,64,64,80,1,WEASEL,LB,old,m,./images/WEASELLB.png,,,,,,,,,,,,,,,,,,,,,,
,,,,,,,,,,,,,,,,,200143,20,2022-01-28_14h10.07.064,lexical_decision_task_DD,2021.2.3,MacIntel,59.97720866,,,,,,,,,,,,0.8001,1,,,,,,,,,,,,,,z,1,0.8001,,,,,,,,0.048722062,-0.243844296,0,0,0,,0,65,65,113,1,LINEW,LB,old,z,./images/LINEWLB.png,,,,,,,,,,,,,,,,,,,,,,
,,,,,,,,,,,,,,,,,200143,20,2022-01-28_14h10.07.064,lexical_decision_task_DD,2021.2.3,MacIntel,59.97720866,,,,,,,,,,,,0.776,1,,,,,,,,,,,,,,m,1,0.776,,,,,,,,0.048722062,-0.243844296,0,0,0,,0,66,66,27,1,ATTIC,C,old,m,./images/ATTIC.png,,,,,,,,,,,,,,,,,,,,,,
,,,,,,,,,,,,,,,,,200143,20,2022-01-28_14h10.07.064,lexical_decision_task_DD,2021.2.3,MacIntel,59.97720866,,,,,,,,,,,,3.1957,1,,,,,,,,,,,,,,z,1,3.1957,,,,,,,,0.048722062,-0.243844296,0,0,0,,0,67,67,160,1,VEETS,HB,old,z,./images/VEETSHB.png,,,,,,,,,,,,,,,,,,,,,,
,,,,,,,,,,,,,,,,,200143,20,2022-01-28_14h10.07.064,lexical_decision_task_DD,2021.2.3,MacIntel,59.97720866,,,,,,,,,,,,4.364,1,,,,,,,,,,,,,,m,1,4.364,,,,,,,,0.048722062,-0.243844296,0,0,0,,0,68,68,16,1,PENCE,HB,old,m,./images/PENCEHB.png,,,,,,,,,,,,,,,,,,,,,,
,,,,,,,,,,,,,,,,,200143,20,2022-01-28_14h10.07.064,lexical_decision_task_DD,2021.2.3,MacIntel,59.97720866,,,,,,,,,,,,1.0351,1,,,,,,,,,,,,,,z,1,1.0351,,,,,,,,0.048722062,-0.243844296,0,0,0,,0,69,69,164,1,SGREW,LB,old,z,./images/SGREWLB.png,,,,,,,,,,,,,,,,,,,,,,
,,,,,,,,,,,,,,,,,200143,20,2022-01-28_14h10.07.064,lexical_decision_task_DD,2021.2.3,MacIntel,59.97720866,,,,,,,,,,,,1.361,1,,,,,,,,,,,,,,z,1,1.361,,,,,,,,0.048722062,-0.243844296,0,0,0,,0,70,70,132,1,SCIFF,C,old,z,./images/SCIFF.png,,,,,,,,,,,,,,,,,,,,,,
,,,,,,,,,,,,,,,,,200143,20,2022-01-28_14h10.07.064,lexical_decision_task_DD,2021.2.3,MacIntel,59.97720866,,,,,,,,,,,,1.0184,1,,,,,,,,,,,,,,m,1,1.0184,,,,,,,,0.048722062,-0.243844296,0,0,0,,0,71,71,8,1,TULIP,LB,old,m,./images/TULIPLB.png,,,,,,,,,,,,,,,,,,,,,,
,,,,,,,,,,,,,,,,,200143,20,2022-01-28_14h10.07.064,lexical_decision_task_DD,2021.2.3,MacIntel,59.97720866,,,,,,,,,,,,1.1787,1,,,,,,,,,,,,,,z,1,1.1787,,,,,,,,0.048722062,-0.243844296,0,0,0,,0,72,72,149,1,VEASE,LB,old,z,./images/VEASELB.png,,,,,,,,,,,,,,,,,,,,,,
,,,,,,,,,,,,,,,,,200143,20,2022-01-28_14h10.07.064,lexical_decision_task_DD,2021.2.3,MacIntel,59.97720866,,,,,,,,,,,,3.7343,1,,,,,,,,,,,,,,z,1,3.7343,,,,,,,,0.048722062,-0.243844296,0,0,0,,0,73,73,121,1,CEERS,HB,old,z,./images/CEERSHB.png,,,,,,,,,,,,,,,,,,,,,,
,,,,,,,,,,,,,,,,,200143,20,2022-01-28_14h10.07.064,lexical_decision_task_DD,2021.2.3,MacIntel,59.97720866,,,,,,,,,,,,4.896,1,,,,,,,,,,,,,,m,1,4.896,,,,,,,,0.048722062,-0.243844296,0,0,0,,0,74,74,69,1,COOKER,C,old,m,./images/COOKER.png,,,,,,,,,,,,,,,,,,,,,,
,,,,,,,,,,,,,,,,,200143,20,2022-01-28_14h10.07.064,lexical_decision_task_DD,2021.2.3,MacIntel,59.97720866,,,,,,,,,,,,3.9659,1,,,,,,,,,,,,,,m,1,3.9659,,,,,,,,0.048722062,-0.243844296,0,0,0,,0,75,75,11,1,BONNET,LB,old,m,./images/BONNETLB.png,,,,,,,,,,,,,,,,,,,,,,
,,,,,,,,,,,,,,,,,200143,20,2022-01-28_14h10.07.064,lexical_decision_task_DD,2021.2.3,MacIntel,59.97720866,,,,,,,,,,,,1.1148,1,,,,,,,,,,,,,,z,1,1.1148,,,,,,,,0.048722062,-0.243844296,0,0,0,,0,76,76,165,1,TROWN,C,old,z,./images/TROWN.png,,,,,,,,,,,,,,,,,,,,,,
,,,,,,,,,,,,,,,,,200143,20,2022-01-28_14h10.07.064,lexical_decision_task_DD,2021.2.3,MacIntel,59.97720866,,,,,,,,,,,,1.0525,1,,,,,,,,,,,,,,z,1,1.0525,,,,,,,,0.048722062,-0.243844296,0,0,0,,0,77,77,84,1,HAXES,C,old,z,./images/HAXES.png,,,,,,,,,,,,,,,,,,,,,,
,,,,,,,,,,,,,,,,,200143,20,2022-01-28_14h10.07.064,lexical_decision_task_DD,2021.2.3,MacIntel,59.97720866,,,,,,,,,,,,2.5595,1,,,,,,,,,,,,,,z,1,2.5595,,,,,,,,0.048722062,-0.243844296,0,0,0,,0,78,78,112,1,MYING,HB,old,z,./images/MYINGHB.png,,,,,,,,,,,,,,,,,,,,,,
,,,,,,,,,,,,,,,,,200143,20,2022-01-28_14h10.07.064,lexical_decision_task_DD,2021.2.3,MacIntel,59.97720866,,,,,,,,,,,,0.9711,1,,,,,,,,,,,,,,m,1,0.9711,,,,,,,,0.048722062,-0.243844296,0,0,0,,0,79,79,55,1,MUFFIN,HB,old,m,./images/MUFFINHB.png,,,,,,,,,,,,,,,,,,,,,,
,,,,,,,,,,,,,,,,,200143,20,2022-01-28_14h10.07.064,lexical_decision_task_DD,2021.2.3,MacIntel,59.97720866,,,,,,,,,,,,0.6484,1,,,,,,,,,,,,,,m,1,0.6484,,,,,,,,0.048722062,-0.243844296,0,0,0,,0,80,80,29,1,CRUMB,LB,old,m,./images/CRUMBLB.png,,,,,,,,,,,,,,,,,,,,,,
,,,,,,,,,,,,,,,,,200143,20,2022-01-28_14h10.07.064,lexical_decision_task_DD,2021.2.3,MacIntel,59.97720866,,,,,,,,,,,,0.6543,1,,,,,,,,,,,,,,z,1,0.6543,,,,,,,,0.048722062,-0.243844296,0,0,0,,0,81,81,93,1,SMONE,C,old,z,./images/SMONE.png,,,,,,,,,,,,,,,,,,,,,,
,,,,,,,,,,,,,,,,,200143,20,2022-01-28_14h10.07.064,lexical_decision_task_DD,2021.2.3,MacIntel,59.97720866,,,,,,,,,,,,3.3641,1,,,,,,,,,,,,,,z,1,3.3641,,,,,,,,0.048722062,-0.243844296,0,0,0,,0,82,82,157,1,INLER,HB,old,z,./images/INLERHB.png,,,,,,,,,,,,,,,,,,,,,,
,,,,,,,,,,,,,,,,,200143,20,2022-01-28_14h10.07.064,lexical_decision_task_DD,2021.2.3,MacIntel,59.97720866,,,,,,,,,,,,1.0185,1,,,,,,,,,,,,,,m,1,1.0185,,,,,,,,-0.010564418,-0.040974997,0,0,0,space,0,83,83,47,1,BERRY,LB,old,m,./images/BERRYLB.png,39.0922,,,,,,,,,,,,,,,,,,,,,
,,,,,,,,,,,,,,,,,200143,20,2022-01-28_14h10.07.064,lexical_decision_task_DD,2021.2.3,MacIntel,59.97720866,,,,,,,,,,,,0.9975,1,,,,,,,,,,,,,,m,1,0.9975,,,,,,,,-0.010564418,-0.040974997,0,0,0,,0,84,84,76,1,INFANT,HB,old,m,./images/INFANTHB.png,,,,,,,,,,,,,,,,,,,,,,
,,,,,,,,,,,,,,,,,200143,20,2022-01-28_14h10.07.064,lexical_decision_task_DD,2021.2.3,MacIntel,59.97720866,,,,,,,,,,,,0.6867,1,,,,,,,,,,,,,,z,1,0.6867,,,,,,,,-0.010564418,-0.040974997,0,0,0,,0,85,85,120,1,RINED,C,old,z,./images/RINED.png,,,,,,,,,,,,,,,,,,,,,,
,,,,,,,,,,,,,,,,,200143,20,2022-01-28_14h10.07.064,lexical_decision_task_DD,2021.2.3,MacIntel,59.97720866,,,,,,,,,,,,2.8497,1,,,,,,,,,,,,,,m,1,2.8497,,,,,,,,-0.010564418,-0.040974997,0,0,0,,0,86,86,18,1,JAGUAR,C,old,m,./images/JAGUAR.png,,,,,,,,,,,,,,,,,,,,,,
,,,,,,,,,,,,,,,,,200143,20,2022-01-28_14h10.07.064,lexical_decision_task_DD,2021.2.3,MacIntel,59.97720866,,,,,,,,,,,,0.8994,1,,,,,,,,,,,,,,m,1,0.8994,,,,,,,,-0.010564418,-0.040974997,0,0,0,,0,87,87,6,1,SQUARE,C,old,m,./images/SQUARE.png,,,,,,,,,,,,,,,,,,,,,,
,,,,,,,,,,,,,,,,,200143,20,2022-01-28_14h10.07.064,lexical_decision_task_DD,2021.2.3,MacIntel,59.97720866,,,,,,,,,,,,2.0866,1,,,,,,,,,,,,,,z,1,2.0866,,,,,,,,-0.010564418,-0.040974997,0,0,0,,0,88,88,152,1,FRAIN,LB,old,z,./images/FRAINLB.png,,,,,,,,,,,,,,,,,,,,,,
,,,,,,,,,,,,,,,,,200143,20,2022-01-28_14h10.07.064,lexical_decision_task_DD,2021.2.3,MacIntel,59.97720866,,,,,,,,,,,,0.9297,1,,,,,,,,,,,,,,m,1,0.9297,,,,,,,,-0.010564418,-0.040974997,0,0,0,,0,89,89,19,1,DOUGH,HB,old,m,./images/DOUGHHB.png,,,,,,,,,,,,,,,,,,,,,,
,,,,,,,,,,,,,,,,,200143,20,2022-01-28_14h10.07.064,lexical_decision_task_DD,2021.2.3,MacIntel,59.97720866,,,,,,,,,,,,3.2577,1,,,,,,,,,,,,,,z,1,3.2577,,,,,,,,-0.010564418,-0.040974997,0,0,0,,0,90,90,124,1,TUNCH,HB,old,z,./images/TUNCHHB.png,,,,,,,,,,,,,,,,,,,,,,
,,,,,,,,,,,,,,,,,200143,20,2022-01-28_14h10.07.064,lexical_decision_task_DD,2021.2.3,MacIntel,59.97720866,,,,,,,,,,,,1.2847,1,,,,,,,,,,,,,,z,1,1.2847,,,,,,,,-0.010564418,-0.040974997,0,0,0,,0,91,91,134,1,TROSS,LB,old,z,./images/TROSSLB.png,,,,,,,,,,,,,,,,,,,,,,
,,,,,,,,,,,,,,,,,200143,20,2022-01-28_14h10.07.064,lexical_decision_task_DD,2021.2.3,MacIntel,59.97720866,,,,,,,,,,,,2.3311,1,,,,,,,,,,,,,,m,1,2.3311,,,,,,,,-0.010564418,-0.040974997,0,0,0,,0,92,92,22,1,MELON,HB,old,m,./images/MELONHB.png,,,,,,,,,,,,,,,,,,,,,,
,,,,,,,,,,,,,,,,,200143,20,2022-01-28_14h10.07.064,lexical_decision_task_DD,2021.2.3,MacIntel,59.97720866,,,,,,,,,,,,1.2674,1,,,,,,,,,,,,,,z,1,1.2674,,,,,,,,-0.010564418,-0.040974997,0,0,0,,0,93,93,153,1,CLUPS,C,old,z,./images/CLUPS.png,,,,,,,,,,,,,,,,,,,,,,
,,,,,,,,,,,,,,,,,200143,20,2022-01-28_14h10.07.064,lexical_decision_task_DD,2021.2.3,MacIntel,59.97720866,,,,,,,,,,,,0.9299,1,,,,,,,,,,,,,,m,1,0.9299,,,,,,,,-0.010564418,-0.040974997,0,0,0,,0,94,94,3,1,FINGER,C,old,m,./images/FINGER.png,,,,,,,,,,,,,,,,,,,,,,
,,,,,,,,,,,,,,,,,200143,20,2022-01-28_14h10.07.064,lexical_decision_task_DD,2021.2.3,MacIntel,59.97720866,,,,,,,,,,,,3.6526,1,,,,,,,,,,,,,,z,1,3.6526,,,,,,,,-0.010564418,-0.040974997,0,0,0,,0,95,95,166,1,SHORY,HB,old,z,./images/SHORYHB.png,,,,,,,,,,,,,,,,,,,,,,
,,,,,,,,,,,,,,,,,200143,20,2022-01-28_14h10.07.064,lexical_decision_task_DD,2021.2.3,MacIntel,59.97720866,,,,,,,,,,,,0.8292,0,,,,,,,,,,,,,,m,0,0.8292,,,,,,,,-0.010564418,-0.040974997,0,0,0,,0,96,96,147,1,ZOLES,C,old,z,./images/ZOLES.png,,,,,,,,,,,,,,,,,,,,,,
,,,,,,,,,,,,,,,,,200143,20,2022-01-28_14h10.07.064,lexical_decision_task_DD,2021.2.3,MacIntel,59.97720866,,,,,,,,,,,,3.0907,1,,,,,,,,,,,,,,m,1,3.0907,,,,,,,,-0.010564418,-0.040974997,0,0,0,,0,97,97,83,1,JUNGLE,LB,old,m,./images/JUNGLELB.png,,,,,,,,,,,,,,,,,,,,,,
,,,,,,,,,,,,,,,,,200143,20,2022-01-28_14h10.07.064,lexical_decision_task_DD,2021.2.3,MacIntel,59.97720866,,,,,,,,,,,,2.1616,1,,,,,,,,,,,,,,z,1,2.1616,,,,,,,,-0.010564418,-0.040974997,0,0,0,,0,98,98,122,1,BLOOT,LB,old,z,./images/BLOOTLB.png,,,,,,,,,,,,,,,,,,,,,,
,,,,,,,,,,,,,,,,,200143,20,2022-01-28_14h10.07.064,lexical_decision_task_DD,2021.2.3,MacIntel,59.97720866,,,,,,,,,,,,0.7563,1,,,,,,,,,,,,,,z,1,0.7563,,,,,,,,-0.010564418,-0.040974997,0,0,0,,0,99,99,162,1,LEICH,C,old,z,./images/LEICH.png,,,,,,,,,,,,,,,,,,,,,,
,,,,,,,,,,,,,,,,,200143,20,2022-01-28_14h10.07.064,lexical_decision_task_DD,2021.2.3,MacIntel,59.97720866,,,,,,,,,,,,2.5878,0,,,,,,,,,,,,,,m,0,2.5878,,,,,,,,-0.010564418,-0.040974997,0,0,0,,0,100,100,104,1,GITTY,LB,old,z,./images/GITTYLB.png,,,,,,,,,,,,,,,,,,,,,,
,,,,,,,,,,,,,,,,,200143,20,2022-01-28_14h10.07.064,lexical_decision_task_DD,2021.2.3,MacIntel,59.97720866,,,,,,,,,,,,0.6836,1,,,,,,,,,,,,,,z,1,0.6836,,,,,,,,-0.010564418,-0.040974997,0,0,0,,0,101,101,144,1,NAIRY,C,old,z,./images/NAIRY.png,,,,,,,,,,,,,,,,,,,,,,
,,,,,,,,,,,,,,,,,200143,20,2022-01-28_14h10.07.064,lexical_decision_task_DD,2021.2.3,MacIntel,59.97720866,,,,,,,,,,,,1.2108,1,,,,,,,,,,,,,,z,1,1.2108,,,,,,,,-0.010564418,-0.040974997,0,0,0,,0,102,102,135,1,JOODY,C,old,z,./images/JOODY.png,,,,,,,,,,,,,,,,,,,,,,
,,,,,,,,,,,,,,,,,200143,20,2022-01-28_14h10.07.064,lexical_decision_task_DD,2021.2.3,MacIntel,59.97720866,,,,,,,,,,,,0.6597,1,,,,,,,,,,,,,,z,1,0.6597,,,,,,,,-0.010564418,-0.040974997,0,0,0,,0,103,103,150,1,NOOLS,C,old,z,./images/NOOLS.png,,,,,,,,,,,,,,,,,,,,,,
,,,,,,,,,,,,,,,,,200143,20,2022-01-28_14h10.07.064,lexical_decision_task_DD,2021.2.3,MacIntel,59.97720866,,,,,,,,,,,,0.7633,1,,,,,,,,,,,,,,m,1,0.7633,,,,,,,,-0.010564418,-0.040974997,0,0,0,,0,104,104,38,1,LADDER,LB,old,m,./images/LADDERLB.png,,,,,,,,,,,,,,,,,,,,,,
,,,,,,,,,,,,,,,,,200143,20,2022-01-28_14h10.07.064,lexical_decision_task_DD,2021.2.3,MacIntel,59.97720866,,,,,,,,,,,,0.6935,1,,,,,,,,,,,,,,m,1,0.6935,,,,,,,,-0.010564418,-0.040974997,0,0,0,,0,105,105,51,1,ONION,C,old,m,./images/ONION.png,,,,,,,,,,,,,,,,,,,,,,
,,,,,,,,,,,,,,,,,200143,20,2022-01-28_14h10.07.064,lexical_decision_task_DD,2021.2.3,MacIntel,59.97720866,,,,,,,,,,,,4.1652,1,,,,,,,,,,,,,,z,1,4.1652,,,,,,,,-0.010564418,-0.040974997,0,0,0,,0,106,106,115,1,MAWNS,HB,old,z,./images/MAWNSHB.png,,,,,,,,,,,,,,,,,,,,,,
,,,,,,,,,,,,,,,,,200143,20,2022-01-28_14h10.07.064,lexical_decision_task_DD,2021.2.3,MacIntel,59.97720866,,,,,,,,,,,,1.665,1,,,,,,,,,,,,,,m,1,1.665,,,,,,,,-0.010564418,-0.040974997,0,0,0,,0,107,107,2,1,BEARD,LB,old,m,./images/BEARDLB.png,,,,,,,,,,,,,,,,,,,,,,
,,,,,,,,,,,,,,,,,200143,20,2022-01-28_14h10.07.064,lexical_decision_task_DD,2021.2.3,MacIntel,59.97720866,,,,,,,,,,,,1.6786,1,,,,,,,,,,,,,,z,1,1.6786,,,,,,,,-0.010564418,-0.040974997,0,0,0,,0,108,108,114,1,RIKES,C,old,z,./images/RIKES.png,,,,,,,,,,,,,,,,,,,,,,
,,,,,,,,,,,,,,,,,200143,20,2022-01-28_14h10.07.064,lexical_decision_task_DD,2021.2.3,MacIntel,59.97720866,,,,,,,,,,,,1.3484,1,,,,,,,,,,,,,,m,1,1.3484,,,,,,,,-0.010564418,-0.040974997,0,0,0,,0,109,109,43,1,MOSQUE,HB,old,m,./images/MOSQUEHB.png,,,,,,,,,,,,,,,,,,,,,,
,,,,,,,,,,,,,,,,,200143,20,2022-01-28_14h10.07.064,lexical_decision_task_DD,2021.2.3,MacIntel,59.97720866,,,,,,,,,,,,0.804,1,,,,,,,,,,,,,,m,1,0.804,,,,,,,,-0.010564418,-0.040974997,0,0,0,,0,110,110,37,1,BIRTH,HB,old,m,./images/BIRTHHB.png,,,,,,,,,,,,,,,,,,,,,,
,,,,,,,,,,,,,,,,,200143,20,2022-01-28_14h10.07.064,lexical_decision_task_DD,2021.2.3,MacIntel,59.97720866,,,,,,,,,,,,2.364,1,,,,,,,,,,,,,,m,1,2.364,,,,,,,,-0.010564418,-0.040974997,0,0,0,,0,111,111,0,1,TOMATO,C,old,m,./images/TOMATO.png,,,,,,,,,,,,,,,,,,,,,,
,,,,,,,,,,,,,,,,,200143,20,2022-01-28_14h10.07.064,lexical_decision_task_DD,2021.2.3,MacIntel,59.97720866,,,,,,,,,,,,0.7974,1,,,,,,,,,,,,,,m,1,0.7974,,,,,,,,-0.010564418,-0.040974997,0,0,0,,0,112,112,54,1,TRIPOD,C,old,m,./images/TRIPOD.png,,,,,,,,,,,,,,,,,,,,,,
,,,,,,,,,,,,,,,,,200143,20,2022-01-28_14h10.07.064,lexical_decision_task_DD,2021.2.3,MacIntel,59.97720866,,,,,,,,,,,,0.6288,1,,,,,,,,,,,,,,m,1,0.6288,,,,,,,,-0.010564418,-0.040974997,0,0,0,,0,113,113,48,1,SPORT,C,old,m,./images/SPORT.png,,,,,,,,,,,,,,,,,,,,,,
,,,,,,,,,,,,,,,,,200143,20,2022-01-28_14h10.07.064,lexical_decision_task_DD,2021.2.3,MacIntel,59.97720866,,,,,,,,,,,,2.3794,1,,,,,,,,,,,,,,m,1,2.3794,,,,,,,,-0.010564418,-0.040974997,0,0,0,,0,114,114,78,1,LITTER,C,old,m,./images/LITTER.png,,,,,,,,,,,,,,,,,,,,,,
,,,,,,,,,,,,,,,,,200143,20,2022-01-28_14h10.07.064,lexical_decision_task_DD,2021.2.3,MacIntel,59.97720866,,,,,,,,,,,,5.4158,1,,,,,,,,,,,,,,z,1,5.4158,,,,,,,,-0.010564418,-0.040974997,0,0,0,,0,115,115,94,1,BLANS,HB,old,z,./images/BLANSHB.png,,,,,,,,,,,,,,,,,,,,,,
,,,,,,,,,,,,,,,,,200143,20,2022-01-28_14h10.07.064,lexical_decision_task_DD,2021.2.3,MacIntel,59.97720866,,,,,,,,,,,,1.4178,1,,,,,,,,,,,,,,z,1,1.4178,,,,,,,,-0.010564418,-0.040974997,0,0,0,,0,116,116,125,1,MOOKY,LB,old,z,./images/MOOKYLB.png,,,,,,,,,,,,,,,,,,,,,,
,,,,,,,,,,,,,,,,,200143,20,2022-01-28_14h10.07.064,lexical_decision_task_DD,2021.2.3,MacIntel,59.97720866,,,,,,,,,,,,2.4803,1,,,,,,,,,,,,,,z,1,2.4803,,,,,,,,-0.010564418,-0.040974997,0,0,0,,0,117,117,154,1,THINT,HB,old,z,./images/THINTHB.png,,,,,,,,,,,,,,,,,,,,,,
,,,,,,,,,,,,,,,,,200143,20,2022-01-28_14h10.07.064,lexical_decision_task_DD,2021.2.3,MacIntel,59.97720866,,,,,,,,,,,,3.2215,1,,,,,,,,,,,,,,z,1,3.2215,,,,,,,,-0.010564418,-0.040974997,0,0,0,,0,118,118,148,1,JOMS,HB,old,z,./images/JOMSHB.png,,,,,,,,,,,,,,,,,,,,,,
,,,,,,,,,,,,,,,,,200143,20,2022-01-28_14h10.07.064,lexical_decision_task_DD,2021.2.3,MacIntel,59.97720866,,,,,,,,,,,,3.1732,1,,,,,,,,,,,,,,z,1,3.1732,,,,,,,,-0.010564418,-0.040974997,0,0,0,,0,119,119,118,1,BAVEL,HB,old,z,./images/BAVELHB.png,,,,,,,,,,,,,,,,,,,,,,
,,,,,,,,,,,,,,,,,200143,20,2022-01-28_14h10.07.064,lexical_decision_task_DD,2021.2.3,MacIntel,59.97720866,,,,,,,,,,,,1.1224,1,,,,,,,,,,,,,,z,1,1.1224,,,,,,,,-0.010564418,-0.040974997,0,0,0,,0,120,120,89,1,DRIEK,LB,old,z,./images/DRIEKLB.png,,,,,,,,,,,,,,,,,,,,,,
,,,,,,,,,,,,,,,,,200143,20,2022-01-28_14h10.07.064,lexical_decision_task_DD,2021.2.3,MacIntel,59.97720866,,,,,,,,,,,,1.0757,1,,,,,,,,,,,,,,z,1,1.0757,,,,,,,,-0.010564418,-0.040974997,0,0,0,,0,121,121,99,1,BACKY,C,old,z,./images/BACKY.png,,,,,,,,,,,,,,,,,,,,,,
,,,,,,,,,,,,,,,,,200143,20,2022-01-28_14h10.07.064,lexical_decision_task_DD,2021.2.3,MacIntel,59.97720866,,,,,,,,,,,,2.238,1,,,,,,,,,,,,,,z,1,2.238,,,,,,,,-0.010564418,-0.040974997,0,0,0,,0,122,122,101,1,GLEET,LB,old,z,./images/GLEETLB.png,,,,,,,,,,,,,,,,,,,,,,
,,,,,,,,,,,,,,,,,200143,20,2022-01-28_14h10.07.064,lexical_decision_task_DD,2021.2.3,MacIntel,59.97720866,,,,,,,,,,,,3.9802,1,,,,,,,,,,,,,,m,1,3.9802,,,,,,,,-0.010564418,-0.040974997,0,0,0,,0,123,123,45,1,KITTEN,C,old,m,./images/KITTEN.png,,,,,,,,,,,,,,,,,,,,,,
,,,,,,,,,,,,,,,,,200143,20,2022-01-28_14h10.07.064,lexical_decision_task_DD,2021.2.3,MacIntel,59.97720866,,,,,,,,,,,,1.6321,1,,,,,,,,,,,,,,m,1,1.6321,,,,,,,,-0.010564418,-0.040974997,0,0,0,,0,124,124,68,1,TORCH,LB,old,m,./images/TORCHLB.png,,,,,,,,,,,,,,,,,,,,,,
,,,,,,,,,,,,,,,,,200143,20,2022-01-28_14h10.07.064,lexical_decision_task_DD,2021.2.3,MacIntel,59.97720866,,,,,,,,,,,,7.3182,1,,,,,,,,,,,,,,z,1,7.3182,,,,,,,,-0.118102185,-0.378281576,1,0,0,,0,125,125,139,1,BLEAR,HB,old,z,./images/BLEARHB.png,,break_done_button,,,,,,,,,,,,,,,,,,,,
,,,,,,,,,,,,,,,,,200143,20,2022-01-28_14h10.07.064,lexical_decision_task_DD,2021.2.3,MacIntel,59.97720866,,,,,,,,,,,,1.5565,1,,,,,,,,,,,,,,m,1,1.5565,,,,,,,,0.097048894,0.009542734,0,0,0,,0,126,126,73,1,SNACK,HB,old,m,./images/SNACKHB.png,,,,,,,,,,,,,,,,,,,,,,
,,,,,,,,,,,,,,,,,200143,20,2022-01-28_14h10.07.064,lexical_decision_task_DD,2021.2.3,MacIntel,59.97720866,,,,,,,,,,,,2.3367,1,,,,,,,,,,,,,,m,1,2.3367,,,,,,,,0.097048894,0.009542734,0,0,0,,0,127,127,12,1,SHORE,C,old,m,./images/SHORE.png,,,,,,,,,,,,,,,,,,,,,,
,,,,,,,,,,,,,,,,,200143,20,2022-01-28_14h10.07.064,lexical_decision_task_DD,2021.2.3,MacIntel,59.97720866,,,,,,,,,,,,1.8536,1,,,,,,,,,,,,,,m,1,1.8536,,,,,,,,0.097048894,0.009542734,0,0,0,,0,128,128,24,1,SCREW,C,old,m,./images/SCREW.png,,,,,,,,,,,,,,,,,,,,,,
,,,,,,,,,,,,,,,,,200143,20,2022-01-28_14h10.07.064,lexical_decision_task_DD,2021.2.3,MacIntel,59.97720866,,,,,,,,,,,,0.6824,1,,,,,,,,,,,,,,m,1,0.6824,,,,,,,,0.097048894,0.009542734,0,0,0,,0,129,129,5,1,PASTA,LB,old,m,./images/PASTALB.png,,,,,,,,,,,,,,,,,,,,,,
,,,,,,,,,,,,,,,,,200143,20,2022-01-28_14h10.07.064,lexical_decision_task_DD,2021.2.3,MacIntel,59.97720866,,,,,,,,,,,,2.7669,1,,,,,,,,,,,,,,z,1,2.7669,,,,,,,,0.097048894,0.009542734,0,0,0,,0,130,130,98,1,BAMPS,LB,old,z,./images/BAMPSLB.png,,,,,,,,,,,,,,,,,,,,,,
,,,,,,,,,,,,,,,,,200143,20,2022-01-28_14h10.07.064,lexical_decision_task_DD,2021.2.3,MacIntel,59.97720866,,,,,,,,,,,,2.8613,1,,,,,,,,,,,,,,m,1,2.8613,,,,,,,,0.097048894,0.009542734,0,0,0,,0,131,131,75,1,GRAIN,C,old,m,./images/GRAIN.png,,,,,,,,,,,,,,,,,,,,,,
,,,,,,,,,,,,,,,,,200143,20,2022-01-28_14h10.07.064,lexical_decision_task_DD,2021.2.3,MacIntel,59.97720866,,,,,,,,,,,,1.3413,1,,,,,,,,,,,,,,z,1,1.3413,,,,,,,,0.097048894,0.009542734,0,0,0,,0,132,132,137,1,JOOST,LB,old,z,./images/JOOSTLB.png,,,,,,,,,,,,,,,,,,,,,,
,,,,,,,,,,,,,,,,,200143,20,2022-01-28_14h10.07.064,lexical_decision_task_DD,2021.2.3,MacIntel,59.97720866,,,,,,,,,,,,1.5202,1,,,,,,,,,,,,,,m,1,1.5202,,,,,,,,0.097048894,0.009542734,0,0,0,,0,133,133,7,1,PAINT,HB,old,m,./images/PAINTHB.png,,,,,,,,,,,,,,,,,,,,,,
,,,,,,,,,,,,,,,,,200143,20,2022-01-28_14h10.07.064,lexical_decision_task_DD,2021.2.3,MacIntel,59.97720866,,,,,,,,,,,,2.6691,1,,,,,,,,,,,,,,z,1,2.6691,,,,,,,,0.097048894,0.009542734,0,0,0,,0,134,134,100,1,DRIBS,HB,old,z,./images/DRIBSHB.png,,,,,,,,,,,,,,,,,,,,,,
,,,,,,,,,,,,,,,,,200143,20,2022-01-28_14h10.07.064,lexical_decision_task_DD,2021.2.3,MacIntel,59.97720866,,,,,,,,,,,,1.2673,1,,,,,,,,,,,,,,m,1,1.2673,,,,,,,,0.097048894,0.009542734,0,0,0,,0,135,135,46,1,PEARL,HB,old,m,./images/PEARLHB.png,,,,,,,,,,,,,,,,,,,,,,
,,,,,,,,,,,,,,,,,200143,20,2022-01-28_14h10.07.064,lexical_decision_task_DD,2021.2.3,MacIntel,59.97720866,,,,,,,,,,,,1.7968,1,,,,,,,,,,,,,,z,1,1.7968,,,,,,,,0.097048894,0.009542734,0,0,0,,0,136,136,106,1,CLUMS,HB,old,z,./images/CLUMSHB.png,,,,,,,,,,,,,,,,,,,,,,
,,,,,,,,,,,,,,,,,200143,20,2022-01-28_14h10.07.064,lexical_decision_task_DD,2021.2.3,MacIntel,59.97720866,,,,,,,,,,,,0.7981,1,,,,,,,,,,,,,,m,1,0.7981,,,,,,,,0.097048894,0.009542734,0,0,0,,0,137,137,64,1,JELLY,HB,old,m,./images/JELLYHB.png,,,,,,,,,,,,,,,,,,,,,,
,,,,,,,,,,,,,,,,,200143,20,2022-01-28_14h10.07.064,lexical_decision_task_DD,2021.2.3,MacIntel,59.97720866,,,,,,,,,,,,1.0963,1,,,,,,,,,,,,,,z,1,1.0963,,,,,,,,0.097048894,0.009542734,0,0,0,,0,138,138,107,1,FASKS,LB,old,z,./images/FASKSLB.png,,,,,,,,,,,,,,,,,,,,,,
,,,,,,,,,,,,,,,,,200143,20,2022-01-28_14h10.07.064,lexical_decision_task_DD,2021.2.3,MacIntel,59.97720866,,,,,,,,,,,,1.1482,1,,,,,,,,,,,,,,m,1,1.1482,,,,,,,,0.097048894,0.009542734,0,0,0,,0,139,139,70,1,URINE,HB,old,m,./images/URINEHB.png,,,,,,,,,,,,,,,,,,,,,,
,,,,,,,,,,,,,,,,,200143,20,2022-01-28_14h10.07.064,lexical_decision_task_DD,2021.2.3,MacIntel,59.97720866,,,,,,,,,,,,0.7294,1,,,,,,,,,,,,,,m,1,0.7294,,,,,,,,0.097048894,0.009542734,0,0,0,,0,140,140,74,1,CEMENT,LB,old,m,./images/CEMENTLB.png,,,,,,,,,,,,,,,,,,,,,,
,,,,,,,,,,,,,,,,,200143,20,2022-01-28_14h10.07.064,lexical_decision_task_DD,2021.2.3,MacIntel,59.97720866,,,,,,,,,,,,0.8572,1,,,,,,,,,,,,,,z,1,0.8572,,,,,,,,0.097048894,0.009542734,0,0,0,,0,141,141,140,1,DOVET,LB,old,z,./images/DOVETLB.png,,,,,,,,,,,,,,,,,,,,,,
,,,,,,,,,,,,,,,,,200143,20,2022-01-28_14h10.07.064,lexical_decision_task_DD,2021.2.3,MacIntel,59.97720866,,,,,,,,,,,,0.9512,1,,,,,,,,,,,,,,m,1,0.9512,,,,,,,,0.097048894,0.009542734,0,0,0,,0,142,142,56,1,PACKET,LB,old,m,./images/PACKETLB.png,,,,,,,,,,,,,,,,,,,,,,
,,,,,,,,,,,,,,,,,200143,20,2022-01-28_14h10.07.064,lexical_decision_task_DD,2021.2.3,MacIntel,59.97720866,,,,,,,,,,,,0.6802,1,,,,,,,,,,,,,,m,1,0.6802,,,,,,,,0.097048894,0.009542734,0,0,0,,0,143,143,35,1,PEACH,LB,old,m,./images/PEACHLB.png,,,,,,,,,,,,,,,,,,,,,,
,,,,,,,,,,,,,,,,,200143,20,2022-01-28_14h10.07.064,lexical_decision_task_DD,2021.2.3,MacIntel,59.97720866,,,,,,,,,,,,0.67,1,,,,,,,,,,,,,,m,1,0.67,,,,,,,,0.097048894,0.009542734,0,0,0,,0,144,144,66,1,SWEAT,C,old,m,./images/SWEAT.png,,,,,,,,,,,,,,,,,,,,,,
,,,,,,,,,,,,,,,,,200143,20,2022-01-28_14h10.07.064,lexical_decision_task_DD,2021.2.3,MacIntel,59.97720866,,,,,,,,,,,,0.9939,1,,,,,,,,,,,,,,z,1,0.9939,,,,,,,,0.097048894,0.009542734,0,0,0,,0,145,145,90,1,NEAST,C,old,z,./images/NEAST.png,,,,,,,,,,,,,,,,,,,,,,
,,,,,,,,,,,,,,,,,200143,20,2022-01-28_14h10.07.064,lexical_decision_task_DD,2021.2.3,MacIntel,59.97720866,,,,,,,,,,,,0.8538,1,,,,,,,,,,,,,,z,1,0.8538,,,,,,,,0.097048894,0.009542734,0,0,0,,0,146,146,138,1,PLICE,C,old,z,./images/PLICE.png,,,,,,,,,,,,,,,,,,,,,,
,,,,,,,,,,,,,,,,,200143,20,2022-01-28_14h10.07.064,lexical_decision_task_DD,2021.2.3,MacIntel,59.97720866,,,,,,,,,,,,2.6992,1,,,,,,,,,,,,,,z,1,2.6992,,,,,,,,0.097048894,0.009542734,0,0,0,,0,147,147,91,1,SHENS,HB,old,z,./images/SHENSHB.png,,,,,,,,,,,,,,,,,,,,,,
,,,,,,,,,,,,,,,,,200143,20,2022-01-28_14h10.07.064,lexical_decision_task_DD,2021.2.3,MacIntel,59.97720866,,,,,,,,,,,,3.1807,1,,,,,,,,,,,,,,z,1,3.1807,,,,,,,,0.097048894,0.009542734,0,0,0,,0,148,148,109,1,BURGE,HB,old,z,./images/BURGEHB.png,,,,,,,,,,,,,,,,,,,,,,
,,,,,,,,,,,,,,,,,200143,20,2022-01-28_14h10.07.064,lexical_decision_task_DD,2021.2.3,MacIntel,59.97720866,,,,,,,,,,,,0.8514,1,,,,,,,,,,,,,,z,1,0.8514,,,,,,,,0.097048894,0.009542734,0,0,0,,0,149,149,131,1,NACES,LB,old,z,./images/NACESLB.png,,,,,,,,,,,,,,,,,,,,,,
,,,,,,,,,,,,,,,,,200143,20,2022-01-28_14h10.07.064,lexical_decision_task_DD,2021.2.3,MacIntel,59.97720866,,,,,,,,,,,,0.8473,1,,,,,,,,,,,,,,m,1,0.8473,,,,,,,,0.097048894,0.009542734,0,0,0,,0,150,150,44,1,LIZARD,LB,old,m,./images/LIZARDLB.png,,,,,,,,,,,,,,,,,,,,,,
,,,,,,,,,,,,,,,,,200143,20,2022-01-28_14h10.07.064,lexical_decision_task_DD,2021.2.3,MacIntel,59.97720866,,,,,,,,,,,,0.8165,1,,,,,,,,,,,,,,m,1,0.8165,,,,,,,,0.097048894,0.009542734,0,0,0,,0,151,151,59,1,BURIAL,LB,old,m,./images/BURIALLB.png,,,,,,,,,,,,,,,,,,,,,,
,,,,,,,,,,,,,,,,,200143,20,2022-01-28_14h10.07.064,lexical_decision_task_DD,2021.2.3,MacIntel,59.97720866,,,,,,,,,,,,0.7863,1,,,,,,,,,,,,,,m,1,0.7863,,,,,,,,0.097048894,0.009542734,0,0,0,,0,152,152,41,1,STRING,LB,old,m,./images/STRINGLB.png,,,,,,,,,,,,,,,,,,,,,,
,,,,,,,,,,,,,,,,,200143,20,2022-01-28_14h10.07.064,lexical_decision_task_DD,2021.2.3,MacIntel,59.97720866,,,,,,,,,,,,1.0442,1,,,,,,,,,,,,,,m,1,1.0442,,,,,,,,0.097048894,0.009542734,0,0,0,,0,153,153,81,1,POODLE,C,old,m,./images/POODLE.png,,,,,,,,,,,,,,,,,,,,,,
,,,,,,,,,,,,,,,,,200143,20,2022-01-28_14h10.07.064,lexical_decision_task_DD,2021.2.3,MacIntel,59.97720866,,,,,,,,,,,,2.1187,1,,,,,,,,,,,,,,m,1,2.1187,,,,,,,,0.097048894,0.009542734,0,0,0,,0,154,154,40,1,SWING,HB,old,m,./images/SWINGHB.png,,,,,,,,,,,,,,,,,,,,,,
,,,,,,,,,,,,,,,,,200143,20,2022-01-28_14h10.07.064,lexical_decision_task_DD,2021.2.3,MacIntel,59.97720866,,,,,,,,,,,,4.3659,1,,,,,,,,,,,,,,z,1,4.3659,,,,,,,,0.097048894,0.009542734,0,0,0,,0,155,155,142,1,PLASK,HB,old,z,./images/PLASKHB.png,,,,,,,,,,,,,,,,,,,,,,
,,,,,,,,,,,,,,,,,200143,20,2022-01-28_14h10.07.064,lexical_decision_task_DD,2021.2.3,MacIntel,59.97720866,,,,,,,,,,,,1.6512,1,,,,,,,,,,,,,,m,1,1.6512,,,,,,,,0.097048894,0.009542734,0,0,0,,0,156,156,52,1,BANNER,HB,old,m,./images/BANNERHB.png,,,,,,,,,,,,,,,,,,,,,,
,,,,,,,,,,,,,,,,,200143,20,2022-01-28_14h10.07.064,lexical_decision_task_DD,2021.2.3,MacIntel,59.97720866,,,,,,,,,,,,10.9926,1,,,,,,,,,,,,,,z,1,10.9926,,,,,,,,0.097048894,0.009542734,0,0,0,,0,157,157,130,1,CRILL,HB,old,z,./images/CRILLHB.png,,,,,,,,,,,,,,,,,,,,,,
,,,,,,,,,,,,,,,,,200143,20,2022-01-28_14h10.07.064,lexical_decision_task_DD,2021.2.3,MacIntel,59.97720866,,,,,,,,,,,,1.3684,1,,,,,,,,,,,,,,z,1,1.3684,,,,,,,,0.097048894,0.009542734,0,0,0,,0,158,158,97,1,CHIDS,HB,old,z,./images/CHIDSHB.png,,,,,,,,,,,,,,,,,,,,,,
,,,,,,,,,,,,,,,,,200143,20,2022-01-28_14h10.07.064,lexical_decision_task_DD,2021.2.3,MacIntel,59.97720866,,,,,,,,,,,,1.0673,1,,,,,,,,,,,,,,m,1,1.0673,,,,,,,,0.097048894,0.009542734,0,0,0,,0,159,159,50,1,MALLET,LB,old,m,./images/MALLETLB.png,,,,,,,,,,,,,,,,,,,,,,
,,,,,,,,,,,,,,,,,200143,20,2022-01-28_14h10.07.064,lexical_decision_task_DD,2021.2.3,MacIntel,59.97720866,,,,,,,,,,,,3.7385,1,,,,,,,,,,,,,,z,1,3.7385,,,,,,,,0.097048894,0.009542734,0,0,0,,0,160,160,87,1,TRING,C,old,z,./images/TRING.png,,,,,,,,,,,,,,,,,,,,,,
,,,,,,,,,,,,,,,,,200143,20,2022-01-28_14h10.07.064,lexical_decision_task_DD,2021.2.3,MacIntel,59.97720866,,,,,,,,,,,,0.8815,1,,,,,,,,,,,,,,z,1,0.8815,,,,,,,,0.097048894,0.009542734,0,0,0,,0,161,161,156,1,HIXES,C,old,z,./images/HIXES.png,,,,,,,,,,,,,,,,,,,,,,
,,,,,,,,,,,,,,,,,200143,20,2022-01-28_14h10.07.064,lexical_decision_task_DD,2021.2.3,MacIntel,59.97720866,,,,,,,,,,,,5.4666,1,,,,,,,,,,,,,,m,1,5.4666,,,,,,,,0.097048894,0.009542734,0,0,0,,0,162,162,77,1,COUCH,LB,old,m,./images/COUCHLB.png,,,,,,,,,,,,,,,,,,,,,,
,,,,,,,,,,,,,,,,,200143,20,2022-01-28_14h10.07.064,lexical_decision_task_DD,2021.2.3,MacIntel,59.97720866,,,,,,,,,,,,0.9171,1,,,,,,,,,,,,,,z,1,0.9171,,,,,,,,0.097048894,0.009542734,0,0,0,,0,163,163,161,1,BLAPS,LB,old,z,./images/BLAPSLB.png,,,,,,,,,,,,,,,,,,,,,,
,,,,,,,,,,,,,,,,,200143,20,2022-01-28_14h10.07.064,lexical_decision_task_DD,2021.2.3,MacIntel,59.97720866,,,,,,,,,,,,0.7647,1,,,,,,,,,,,,,,m,1,0.7647,,,,,,,,0.097048894,0.009542734,0,0,0,,0,164,164,42,1,FOLDER,C,old,m,./images/FOLDER.png,,,,,,,,,,,,,,,,,,,,,,
,,,,,,,,,,,,,,,,,200143,20,2022-01-28_14h10.07.064,lexical_decision_task_DD,2021.2.3,MacIntel,59.97720866,,,,,,,,,,,,0.772,1,,,,,,,,,,,,,,z,1,0.772,,,,,,,,0.097048894,0.009542734,0,0,0,,0,165,165,116,1,BALGY,LB,old,z,./images/BALGYLB.png,,,,,,,,,,,,,,,,,,,,,,
,,,,,,,,,,,,,,,,,200143,20,2022-01-28_14h10.07.064,lexical_decision_task_DD,2021.2.3,MacIntel,59.97720866,,,,,,,,,,,,1.899,1,,,,,,,,,,,,,,z,1,1.899,,,,,,,,0.097048894,0.009542734,0,0,0,,0,166,166,155,1,CANGY,LB,old,z,./images/CANGYLB.png,,,,,,,,,,,,,,,,,,,,,,
,,,,,,,,,,,,,,,,,200143,20,2022-01-28_14h10.07.064,lexical_decision_task_DD,2021.2.3,MacIntel,59.97720866,,,,,,,,,,,,1.144,1,,,,,,,,,,,,,,m,1,1.144,,,,,,,,0.097048894,0.009542734,0,0,0,,0,167,167,39,1,SHELF,C,old,m,./images/SHELF.png,,,,,,,,,,,,,,,,,,,,,,
space,0.097048894,0.009542734,0,0,0,,,,,,,1,test,"In the next phase you will be presented with the words from the the first phase. Your job is to decide whether you remember seeing the word or not. If you remember seeing the word press ""old"" or type ""m"". If you do not remember seeing the word press ""new"" or type ""z"". Please press the space bar or click on continue to begin. ",,,200143,20,2022-01-28_14h10.07.064,lexical_decision_task_DD,2021.2.3,MacIntel,59.97720866,19.8874,,,,,,,,,,,,,,,,,,,,,,,,,,,,,,,,,,,,,,,,,,,,,,,,,,,,,,0,0,0,0,1,,,,,,,,,,,,,,,
space,-0.006045851,-0.130817952,0,0,0,,,,,,,1,test,"In the next phase you will be presented with the words from the the first phase. Your job is to decide whether you remember seeing the word or not. If you remember seeing the word press ""old"" or type ""m"". If you do not remember seeing the word press ""new"" or type ""z"". Please press the space bar or click on continue to begin. ",,,200143,20,2022-01-28_14h10.07.064,lexical_decision_task_DD,2021.2.3,MacIntel,59.97720866,1.9289,,,,,,,,,,,,,,,,,,,,,,,,,,,,,,,,,,,,,,,,,,,,,,,,,,,,,,1,0,1,0,1,,,,,,,,,,,,,,,
,-0.011053261,-0.38712381,1,0,0,instr_done_button,,,,,,1,test,"In the next phase you will be presented with the words from the the first phase. Your job is to decide whether you remember seeing the word or not. If you remember seeing the word press ""old"" or type ""m"". If you do not remember seeing the word press ""new"" or type ""z"". Please press the space bar or click on continue to begin. ",,,200143,20,2022-01-28_14h10.07.064,lexical_decision_task_DD,2021.2.3,MacIntel,59.97720866,,,,,,,,,,,,,,,,,,,,,,,,,,,,,,,,,,,,,,,,,,,,,,,,,,,,,,,2,0,2,0,1,,,,,,,,,,,,,,,
,0.028466254,-0.360573891,1,0,0,instr_done_button,,,,,,1,test,"In the next phase you will be presented with the words from the the first phase. Your job is to decide whether you remember seeing the word or not. If you remember seeing the word press ""old"" or type ""m"". If you do not remember seeing the word press ""new"" or type ""z"". Please press the space bar or click on continue to begin. ",,,200143,20,2022-01-28_14h10.07.064,lexical_decision_task_DD,2021.2.3,MacIntel,59.97720866,,,,,,,,,,,,,,,,,,,,,,,,,,,,,,,,,,,,,,,,,,,,,,,,,,,,,,,3,0,3,0,1,,,,,,,,,,,,,,,
space,0.089270001,-0.160833347,0,0,0,,,,,,,1,test,"In the next phase you will be presented with the words from the the first phase. Your job is to decide whether you remember seeing the word or not. If you remember seeing the word press ""old"" or type ""m"". If you do not remember seeing the word press ""new"" or type ""z"". Please press the space bar or click on continue to begin. ",,,200143,20,2022-01-28_14h10.07.064,lexical_decision_task_DD,2021.2.3,MacIntel,59.97720866,2.3301,,,,,,,,,,,,,,,,,,,,,,,,,,,,,,,,,,,,,,,,,,,,,,,,,,,,,,4,0,4,0,1,,,,,,,,,,,,,,,
,,,,,,,,,,,,,,,,,200143,20,2022-01-28_14h10.07.064,lexical_decision_task_DD,2021.2.3,MacIntel,59.97720866,,,,,,,,,,,,2.6654,1,,,,,,,,,,,,,,,,,,,,,,,,0.089270001,-0.160833347,0,0,0,,,,,,,PISTOL,LB,z,m,./images/PISTOLLB.png,,,,,,,,z,1,2.6654,,,,,,,,0,0,0,113,1
,,,,,,,,,,,,,,,,,200143,20,2022-01-28_14h10.07.064,lexical_decision_task_DD,2021.2.3,MacIntel,59.97720866,,,,,,,,,,,,1.2326,1,,,,,,,,,,,,,,,,,,,,,,,,0.089270001,-0.160833347,0,0,0,,,,,,,CANDY,C,z,m,./images/CANDY.png,,,,,,,,z,1,1.2326,,,,,,,,0,1,1,123,1
,,,,,,,,,,,,,,,,,200143,20,2022-01-28_14h10.07.064,lexical_decision_task_DD,2021.2.3,MacIntel,59.97720866,,,,,,,,,,,,1.4827,1,,,,,,,,,,,,,,,,,,,,,,,,0.089270001,-0.160833347,0,0,0,,,,,,,MELON,HB,m,m,./images/MELONHB.png,,,,,,,,m,1,1.4827,,,,,,,,0,2,2,22,1
,,,,,,,,,,,,,,,,,200143,20,2022-01-28_14h10.07.064,lexical_decision_task_DD,2021.2.3,MacIntel,59.97720866,,,,,,,,,,,,4.8766,1,,,,,,,,,,,,,,,,,,,,,,,,0.089270001,-0.160833347,0,0,0,,,,,,,SHIELD,C,z,m,./images/SHIELD.png,,,,,,,,z,1,4.8766,,,,,,,,0,3,3,132,1
,,,,,,,,,,,,,,,,,200143,20,2022-01-28_14h10.07.064,lexical_decision_task_DD,2021.2.3,MacIntel,59.97720866,,,,,,,,,,,,9.108,1,,,,,,,,,,,,,,,,,,,,,,,,0.089270001,-0.160833347,0,0,0,,,,,,,CASINO,HB,z,m,./images/CASINOHB.png,,,,,,,,z,1,9.108,,,,,,,,0,4,4,112,1
,,,,,,,,,,,,,,,,,200143,20,2022-01-28_14h10.07.064,lexical_decision_task_DD,2021.2.3,MacIntel,59.97720866,,,,,,,,,,,,2.4215,1,,,,,,,,,,,,,,,,,,,,,,,,0.089270001,-0.160833347,0,0,0,,,,,,,GARDEN,HB,z,m,./images/GARDENHB.png,,,,,,,,z,1,2.4215,,,,,,,,0,5,5,94,1
,,,,,,,,,,,,,,,,,200143,20,2022-01-28_14h10.07.064,lexical_decision_task_DD,2021.2.3,MacIntel,59.97720866,,,,,,,,,,,,0.9516,1,,,,,,,,,,,,,,,,,,,,,,,,0.089270001,-0.160833347,0,0,0,,,,,,,QUILL,HB,m,m,./images/QUILLHB.png,,,,,,,,m,1,0.9516,,,,,,,,0,6,6,31,1
,,,,,,,,,,,,,,,,,200143,20,2022-01-28_14h10.07.064,lexical_decision_task_DD,2021.2.3,MacIntel,59.97720866,,,,,,,,,,,,7.9186,1,,,,,,,,,,,,,,,,,,,,,,,,0.089270001,-0.160833347,0,0,0,,,,,,,MOOSE,C,m,m,./images/MOOSE.png,,,,,,,,m,1,7.9186,,,,,,,,0,7,7,57,1
,,,,,,,,,,,,,,,,,200143,20,2022-01-28_14h10.07.064,lexical_decision_task_DD,2021.2.3,MacIntel,59.97720866,,,,,,,,,,,,2.0154,1,,,,,,,,,,,,,,,,,,,,,,,,0.089270001,-0.160833347,0,0,0,,,,,,,SWEAT,C,m,m,./images/SWEAT.png,,,,,,,,m,1,2.0154,,,,,,,,0,8,8,66,1
,,,,,,,,,,,,,,,,,200143,20,2022-01-28_14h10.07.064,lexical_decision_task_DD,2021.2.3,MacIntel,59.97720866,,,,,,,,,,,,2.2755,1,,,,,,,,,,,,,,,,,,,,,,,,0.089270001,-0.160833347,0,0,0,,,,,,,SHORE,C,m,m,./images/SHORE.png,,,,,,,,m,1,2.2755,,,,,,,,0,9,9,12,1
,,,,,,,,,,,,,,,,,200143,20,2022-01-28_14h10.07.064,lexical_decision_task_DD,2021.2.3,MacIntel,59.97720866,,,,,,,,,,,,9.908,0,,,,,,,,,,,,,,,,,,,,,,,,0.089270001,-0.160833347,0,0,0,,,,,,,SNAKE,HB,z,m,./images/SNAKEHB.png,,,,,,,,m,0,9.908,,,,,,,,0,10,10,124,1
,,,,,,,,,,,,,,,,,200143,20,2022-01-28_14h10.07.064,lexical_decision_task_DD,2021.2.3,MacIntel,59.97720866,,,,,,,,,,,,2.819,0,,,,,,,,,,,,,,,,,,,,,,,,0.089270001,-0.160833347,0,0,0,,,,,,,WALRUS,LB,m,m,./images/WALRUSLB.png,,,,,,,,z,0,2.819,,,,,,,,0,11,11,23,1
,,,,,,,,,,,,,,,,,200143,20,2022-01-28_14h10.07.064,lexical_decision_task_DD,2021.2.3,MacIntel,59.97720866,,,,,,,,,,,,1.5156,1,,,,,,,,,,,,,,,,,,,,,,,,0.089270001,-0.160833347,0,0,0,,,,,,,CARPET,LB,m,m,./images/CARPETLB.png,,,,,,,,m,1,1.5156,,,,,,,,0,12,12,53,1
,,,,,,,,,,,,,,,,,200143,20,2022-01-28_14h10.07.064,lexical_decision_task_DD,2021.2.3,MacIntel,59.97720866,,,,,,,,,,,,1.1334,0,,,,,,,,,,,,,,,,,,,,,,,,0.089270001,-0.160833347,0,0,0,,,,,,,POKER,HB,z,m,./images/POKERHB.png,,,,,,,,m,0,1.1334,,,,,,,,0,13,13,151,1
,,,,,,,,,,,,,,,,,200143,20,2022-01-28_14h10.07.064,lexical_decision_task_DD,2021.2.3,MacIntel,59.97720866,,,,,,,,,,,,0.8065,1,,,,,,,,,,,,,,,,,,,,,,,,0.089270001,-0.160833347,0,0,0,,,,,,,FARMER,LB,m,m,./images/FARMERLB.png,,,,,,,,m,1,0.8065,,,,,,,,0,14,14,65,1
,,,,,,,,,,,,,,,,,200143,20,2022-01-28_14h10.07.064,lexical_decision_task_DD,2021.2.3,MacIntel,59.97720866,,,,,,,,,,,,0.8873,1,,,,,,,,,,,,,,,,,,,,,,,,0.089270001,-0.160833347,0,0,0,,,,,,,MAMMAL,LB,z,m,./images/MAMMALLB.png,,,,,,,,z,1,0.8873,,,,,,,,0,15,15,146,1
,,,,,,,,,,,,,,,,,200143,20,2022-01-28_14h10.07.064,lexical_decision_task_DD,2021.2.3,MacIntel,59.97720866,,,,,,,,,,,,5.0178,1,,,,,,,,,,,,,,,,,,,,,,,,0.089270001,-0.160833347,0,0,0,,,,,,,PARADE,LB,z,m,./images/PARADELB.png,,,,,,,,z,1,5.0178,,,,,,,,0,16,16,101,1
,,,,,,,,,,,,,,,,,200143,20,2022-01-28_14h10.07.064,lexical_decision_task_DD,2021.2.3,MacIntel,59.97720866,,,,,,,,,,,,0.7645,1,,,,,,,,,,,,,,,,,,,,,,,,0.089270001,-0.160833347,0,0,0,,,,,,,CRUST,HB,m,m,./images/CRUSTHB.png,,,,,,,,m,1,0.7645,,,,,,,,0,17,17,79,1
,,,,,,,,,,,,,,,,,200143,20,2022-01-28_14h10.07.064,lexical_decision_task_DD,2021.2.3,MacIntel,59.97720866,,,,,,,,,,,,0.7238,0,,,,,,,,,,,,,,,,,,,,,,,,0.089270001,-0.160833347,0,0,0,,,,,,,SLOPE,C,z,m,./images/SLOPE.png,,,,,,,,m,0,0.7238,,,,,,,,0,18,18,114,1
,,,,,,,,,,,,,,,,,200143,20,2022-01-28_14h10.07.064,lexical_decision_task_DD,2021.2.3,MacIntel,59.97720866,,,,,,,,,,,,1.4914,0,,,,,,,,,,,,,,,,,,,,,,,,0.089270001,-0.160833347,0,0,0,,,,,,,STOVE,LB,z,m,./images/STOVELB.png,,,,,,,,m,0,1.4914,,,,,,,,0,19,19,86,1
,,,,,,,,,,,,,,,,,200143,20,2022-01-28_14h10.07.064,lexical_decision_task_DD,2021.2.3,MacIntel,59.97720866,,,,,,,,,,,,0.8394,1,,,,,,,,,,,,,,,,,,,,,,,,0.089270001,-0.160833347,0,0,0,,,,,,,LLAMA,LB,z,m,./images/LLAMALB.png,,,,,,,,z,1,0.8394,,,,,,,,0,20,20,119,1
,,,,,,,,,,,,,,,,,200143,20,2022-01-28_14h10.07.064,lexical_decision_task_DD,2021.2.3,MacIntel,59.97720866,,,,,,,,,,,,0.7882,1,,,,,,,,,,,,,,,,,,,,,,,,0.089270001,-0.160833347,0,0,0,,,,,,,PLANK,HB,m,m,./images/PLANKHB.png,,,,,,,,m,1,0.7882,,,,,,,,0,21,21,1,1
,,,,,,,,,,,,,,,,,200143,20,2022-01-28_14h10.07.064,lexical_decision_task_DD,2021.2.3,MacIntel,59.97720866,,,,,,,,,,,,8.6783,1,,,,,,,,,,,,,,,,,,,,,,,,0.089270001,-0.160833347,0,0,0,,,,,,,PURSE,LB,m,m,./images/PURSELB.png,,,,,,,,m,1,8.6783,,,,,,,,0,22,22,62,1
,,,,,,,,,,,,,,,,,200143,20,2022-01-28_14h10.07.064,lexical_decision_task_DD,2021.2.3,MacIntel,59.97720866,,,,,,,,,,,,4.7248,1,,,,,,,,,,,,,,,,,,,,,,,,0.089270001,-0.160833347,0,0,0,,,,,,,PAINT,HB,m,m,./images/PAINTHB.png,,,,,,,,m,1,4.7248,,,,,,,,0,23,23,7,1
,,,,,,,,,,,,,,,,,200143,20,2022-01-28_14h10.07.064,lexical_decision_task_DD,2021.2.3,MacIntel,59.97720866,,,,,,,,,,,,1.6096,0,,,,,,,,,,,,,,,,,,,,,,,,0.089270001,-0.160833347,0,0,0,,,,,,,DRILL,C,z,m,./images/DRILL.png,,,,,,,,m,0,1.6096,,,,,,,,0,24,24,165,1
,,,,,,,,,,,,,,,,,200143,20,2022-01-28_14h10.07.064,lexical_decision_task_DD,2021.2.3,MacIntel,59.97720866,,,,,,,,,,,,6.6577,1,,,,,,,,,,,,,,,,,,,,,,,,0.089270001,-0.160833347,0,0,0,,,,,,,CANDLE,HB,m,m,./images/CANDLEHB.png,,,,,,,,m,1,6.6577,,,,,,,,0,25,25,61,1
,,,,,,,,,,,,,,,,,200143,20,2022-01-28_14h10.07.064,lexical_decision_task_DD,2021.2.3,MacIntel,59.97720866,,,,,,,,,,,,0.7807,1,,,,,,,,,,,,,,,,,,,,,,,,0.089270001,-0.160833347,0,0,0,,,,,,,MALLET,LB,m,m,./images/MALLETLB.png,,,,,,,,m,1,0.7807,,,,,,,,0,26,26,50,1
,,,,,,,,,,,,,,,,,200143,20,2022-01-28_14h10.07.064,lexical_decision_task_DD,2021.2.3,MacIntel,59.97720866,,,,,,,,,,,,3.8776,0,,,,,,,,,,,,,,,,,,,,,,,,0.089270001,-0.160833347,0,0,0,,,,,,,MONKEY,C,z,m,./images/MONKEY.png,,,,,,,,m,0,3.8776,,,,,,,,0,27,27,129,1
,,,,,,,,,,,,,,,,,200143,20,2022-01-28_14h10.07.064,lexical_decision_task_DD,2021.2.3,MacIntel,59.97720866,,,,,,,,,,,,0.9535,1,,,,,,,,,,,,,,,,,,,,,,,,0.089270001,-0.160833347,0,0,0,,,,,,,LADDER,LB,m,m,./images/LADDERLB.png,,,,,,,,m,1,0.9535,,,,,,,,0,28,28,38,1
,,,,,,,,,,,,,,,,,200143,20,2022-01-28_14h10.07.064,lexical_decision_task_DD,2021.2.3,MacIntel,59.97720866,,,,,,,,,,,,1.2022,1,,,,,,,,,,,,,,,,,,,,,,,,0.089270001,-0.160833347,0,0,0,,,,,,,CANYON,HB,m,m,./images/CANYONHB.png,,,,,,,,m,1,1.2022,,,,,,,,0,29,29,34,1
,,,,,,,,,,,,,,,,,200143,20,2022-01-28_14h10.07.064,lexical_decision_task_DD,2021.2.3,MacIntel,59.97720866,,,,,,,,,,,,0.966,1,,,,,,,,,,,,,,,,,,,,,,,,0.089270001,-0.160833347,0,0,0,,,,,,,MIDGET,HB,z,m,./images/MIDGETHB.png,,,,,,,,z,1,0.966,,,,,,,,0,30,30,160,1
,,,,,,,,,,,,,,,,,200143,20,2022-01-28_14h10.07.064,lexical_decision_task_DD,2021.2.3,MacIntel,59.97720866,,,,,,,,,,,,1.2326,1,,,,,,,,,,,,,,,,,,,,,,,,0.089270001,-0.160833347,0,0,0,,,,,,,HEATER,LB,z,m,./images/HEATERLB.png,,,,,,,,z,1,1.2326,,,,,,,,0,31,31,140,1
,,,,,,,,,,,,,,,,,200143,20,2022-01-28_14h10.07.064,lexical_decision_task_DD,2021.2.3,MacIntel,59.97720866,,,,,,,,,,,,1.1753,0,,,,,,,,,,,,,,,,,,,,,,,,0.089270001,-0.160833347,0,0,0,,,,,,,CLIFF,LB,z,m,./images/CLIFFLB.png,,,,,,,,m,0,1.1753,,,,,,,,0,32,32,92,1
,,,,,,,,,,,,,,,,,200143,20,2022-01-28_14h10.07.064,lexical_decision_task_DD,2021.2.3,MacIntel,59.97720866,,,,,,,,,,,,0.9197,1,,,,,,,,,,,,,,,,,,,,,,,,0.089270001,-0.160833347,0,0,0,,,,,,,BRIDE,HB,z,m,./images/BRIDEHB.png,,,,,,,,z,1,0.9197,,,,,,,,0,33,33,148,1
,,,,,,,,,,,,,,,,,200143,20,2022-01-28_14h10.07.064,lexical_decision_task_DD,2021.2.3,MacIntel,59.97720866,,,,,,,,,,,,4.9503,1,,,,,,,,,,,,,,,,,,,,,,,,0.089270001,-0.160833347,0,0,0,,,,,,,STAIN,C,z,m,./images/STAIN.png,,,,,,,,z,1,4.9503,,,,,,,,0,34,34,90,1
,,,,,,,,,,,,,,,,,200143,20,2022-01-28_14h10.07.064,lexical_decision_task_DD,2021.2.3,MacIntel,59.97720866,,,,,,,,,,,,5.5867,0,,,,,,,,,,,,,,,,,,,,,,,,0.089270001,-0.160833347,0,0,0,,,,,,,DRUMS,HB,m,m,./images/DRUMSHB.png,,,,,,,,z,0,5.5867,,,,,,,,0,35,35,49,1
,,,,,,,,,,,,,,,,,200143,20,2022-01-28_14h10.07.064,lexical_decision_task_DD,2021.2.3,MacIntel,59.97720866,,,,,,,,,,,,1.4105,1,,,,,,,,,,,,,,,,,,,,,,,,0.089270001,-0.160833347,0,0,0,,,,,,,JUMPER,LB,z,m,./images/JUMPERLB.png,,,,,,,,z,1,1.4105,,,,,,,,0,36,36,158,1
,,,,,,,,,,,,,,,,,200143,20,2022-01-28_14h10.07.064,lexical_decision_task_DD,2021.2.3,MacIntel,59.97720866,,,,,,,,,,,,1.3433,1,,,,,,,,,,,,,,,,,,,,,,,,0.089270001,-0.160833347,0,0,0,,,,,,,SHELF,C,m,m,./images/SHELF.png,,,,,,,,m,1,1.3433,,,,,,,,0,37,37,39,1
,,,,,,,,,,,,,,,,,200143,20,2022-01-28_14h10.07.064,lexical_decision_task_DD,2021.2.3,MacIntel,59.97720866,,,,,,,,,,,,0.6685,1,,,,,,,,,,,,,,,,,,,,,,,,0.089270001,-0.160833347,0,0,0,,,,,,,LAGOON,LB,z,m,./images/LAGOONLB.png,,,,,,,,z,1,0.6685,,,,,,,,0,38,38,131,1
,,,,,,,,,,,,,,,,,200143,20,2022-01-28_14h10.07.064,lexical_decision_task_DD,2021.2.3,MacIntel,59.97720866,,,,,,,,,,,,1.0334,1,,,,,,,,,,,,,,,,,,,,,,,,0.089270001,-0.160833347,0,0,0,,,,,,,FLASK,C,z,m,./images/FLASK.png,,,,,,,,z,1,1.0334,,,,,,,,0,39,39,156,1
,,,,,,,,,,,,,,,,,200143,20,2022-01-28_14h10.07.064,lexical_decision_task_DD,2021.2.3,MacIntel,59.97720866,,,,,,,,,,,,1.0494,1,,,,,,,,,,,,,,,,,,,,,,,,0.089270001,-0.160833347,0,0,0,,,,,,,BROOM,C,z,m,./images/BROOM.png,,,,,,,,z,1,1.0494,,,,,,,,0,40,40,162,1
,,,,,,,,,,,,,,,,,200143,20,2022-01-28_14h10.07.064,lexical_decision_task_DD,2021.2.3,MacIntel,59.97720866,,,,,,,,,,,,1.5512,0,,,,,,,,,,,,,,,,,,,,,,,,-0.482017658,-0.003166854,0,0,0,space,,,,,,CEMENT,LB,m,m,./images/CEMENTLB.png,63.844,,,,,,,z,0,1.5512,,,,,,,,0,41,41,74,1
,,,,,,,,,,,,,,,,,200143,20,2022-01-28_14h10.07.064,lexical_decision_task_DD,2021.2.3,MacIntel,59.97720866,,,,,,,,,,,,1.4661,1,,,,,,,,,,,,,,,,,,,,,,,,-0.482017658,-0.003166854,0,0,0,,,,,,,SKIING,LB,m,m,./images/SKIINGLB.png,,,,,,,,m,1,1.4661,,,,,,,,0,42,42,17,1
,,,,,,,,,,,,,,,,,200143,20,2022-01-28_14h10.07.064,lexical_decision_task_DD,2021.2.3,MacIntel,59.97720866,,,,,,,,,,,,6.9346,1,,,,,,,,,,,,,,,,,,,,,,,,-0.482017658,-0.003166854,0,0,0,,,,,,,FINGER,C,m,m,./images/FINGER.png,,,,,,,,m,1,6.9346,,,,,,,,0,43,43,3,1
,,,,,,,,,,,,,,,,,200143,20,2022-01-28_14h10.07.064,lexical_decision_task_DD,2021.2.3,MacIntel,59.97720866,,,,,,,,,,,,1.1662,1,,,,,,,,,,,,,,,,,,,,,,,,-0.482017658,-0.003166854,0,0,0,,,,,,,BEARD,LB,m,m,./images/BEARDLB.png,,,,,,,,m,1,1.1662,,,,,,,,0,44,44,2,1
,,,,,,,,,,,,,,,,,200143,20,2022-01-28_14h10.07.064,lexical_decision_task_DD,2021.2.3,MacIntel,59.97720866,,,,,,,,,,,,2.8287,0,,,,,,,,,,,,,,,,,,,,,,,,-0.482017658,-0.003166854,0,0,0,,,,,,,FENCE,LB,z,m,./images/FENCELB.png,,,,,,,,m,0,2.8287,,,,,,,,0,45,45,98,1
,,,,,,,,,,,,,,,,,200143,20,2022-01-28_14h10.07.064,lexical_decision_task_DD,2021.2.3,MacIntel,59.97720866,,,,,,,,,,,,2.9343,0,,,,,,,,,,,,,,,,,,,,,,,,-0.482017658,-0.003166854,0,0,0,,,,,,,TOMATO,C,m,m,./images/TOMATO.png,,,,,,,,z,0,2.9343,,,,,,,,0,46,46,0,1
,,,,,,,,,,,,,,,,,200143,20,2022-01-28_14h10.07.064,lexical_decision_task_DD,2021.2.3,MacIntel,59.97720866,,,,,,,,,,,,0.8384,1,,,,,,,,,,,,,,,,,,,,,,,,-0.482017658,-0.003166854,0,0,0,,,,,,,BAKER,C,z,m,./images/BAKER.png,,,,,,,,z,1,0.8384,,,,,,,,0,47,47,147,1
,,,,,,,,,,,,,,,,,200143,20,2022-01-28_14h10.07.064,lexical_decision_task_DD,2021.2.3,MacIntel,59.97720866,,,,,,,,,,,,0.7324,1,,,,,,,,,,,,,,,,,,,,,,,,-0.482017658,-0.003166854,0,0,0,,,,,,,TIGER,HB,z,m,./images/TIGERHB.png,,,,,,,,z,1,0.7324,,,,,,,,0,48,48,121,1
,,,,,,,,,,,,,,,,,200143,20,2022-01-28_14h10.07.064,lexical_decision_task_DD,2021.2.3,MacIntel,59.97720866,,,,,,,,,,,,0.9419,1,,,,,,,,,,,,,,,,,,,,,,,,-0.482017658,-0.003166854,0,0,0,,,,,,,SCREW,C,m,m,./images/SCREW.png,,,,,,,,m,1,0.9419,,,,,,,,0,49,49,24,1
,,,,,,,,,,,,,,,,,200143,20,2022-01-28_14h10.07.064,lexical_decision_task_DD,2021.2.3,MacIntel,59.97720866,,,,,,,,,,,,1.562,1,,,,,,,,,,,,,,,,,,,,,,,,-0.482017658,-0.003166854,0,0,0,,,,,,,BABOON,HB,m,m,./images/BABOONHB.png,,,,,,,,m,1,1.562,,,,,,,,0,50,50,58,1
,,,,,,,,,,,,,,,,,200143,20,2022-01-28_14h10.07.064,lexical_decision_task_DD,2021.2.3,MacIntel,59.97720866,,,,,,,,,,,,2.0194,0,,,,,,,,,,,,,,,,,,,,,,,,-0.482017658,-0.003166854,0,0,0,,,,,,,DIVER,C,z,m,./images/DIVER.png,,,,,,,,m,0,2.0194,,,,,,,,0,51,51,93,1
,,,,,,,,,,,,,,,,,200143,20,2022-01-28_14h10.07.064,lexical_decision_task_DD,2021.2.3,MacIntel,59.97720866,,,,,,,,,,,,0.8652,1,,,,,,,,,,,,,,,,,,,,,,,,-0.482017658,-0.003166854,0,0,0,,,,,,,PILOT,LB,z,m,./images/PILOTLB.png,,,,,,,,z,1,0.8652,,,,,,,,0,52,52,134,1
,,,,,,,,,,,,,,,,,200143,20,2022-01-28_14h10.07.064,lexical_decision_task_DD,2021.2.3,MacIntel,59.97720866,,,,,,,,,,,,0.9745,0,,,,,,,,,,,,,,,,,,,,,,,,-0.482017658,-0.003166854,0,0,0,,,,,,,CHALK,HB,z,m,./images/CHALKHB.png,,,,,,,,m,0,0.9745,,,,,,,,0,53,53,109,1
,,,,,,,,,,,,,,,,,200143,20,2022-01-28_14h10.07.064,lexical_decision_task_DD,2021.2.3,MacIntel,59.97720866,,,,,,,,,,,,0.821,1,,,,,,,,,,,,,,,,,,,,,,,,-0.482017658,-0.003166854,0,0,0,,,,,,,MUSCLE,HB,m,m,./images/MUSCLEHB.png,,,,,,,,m,1,0.821,,,,,,,,0,54,54,4,1
,,,,,,,,,,,,,,,,,200143,20,2022-01-28_14h10.07.064,lexical_decision_task_DD,2021.2.3,MacIntel,59.97720866,,,,,,,,,,,,0.8269,1,,,,,,,,,,,,,,,,,,,,,,,,-0.482017658,-0.003166854,0,0,0,,,,,,,BRUSH,LB,z,m,./images/BRUSHLB.png,,,,,,,,z,1,0.8269,,,,,,,,0,55,55,143,1
,,,,,,,,,,,,,,,,,200143,20,2022-01-28_14h10.07.064,lexical_decision_task_DD,2021.2.3,MacIntel,59.97720866,,,,,,,,,,,,2.1084,1,,,,,,,,,,,,,,,,,,,,,,,,-0.482017658,-0.003166854,0,0,0,,,,,,,HAMMER,C,z,m,./images/HAMMER.png,,,,,,,,z,1,2.1084,,,,,,,,0,56,56,159,1
,,,,,,,,,,,,,,,,,200143,20,2022-01-28_14h10.07.064,lexical_decision_task_DD,2021.2.3,MacIntel,59.97720866,,,,,,,,,,,,2.7676,1,,,,,,,,,,,,,,,,,,,,,,,,-0.482017658,-0.003166854,0,0,0,,,,,,,DANCER,C,z,m,./images/DANCER.png,,,,,,,,z,1,2.7676,,,,,,,,0,57,57,105,1
,,,,,,,,,,,,,,,,,200143,20,2022-01-28_14h10.07.064,lexical_decision_task_DD,2021.2.3,MacIntel,59.97720866,,,,,,,,,,,,0.751,1,,,,,,,,,,,,,,,,,,,,,,,,-0.482017658,-0.003166854,0,0,0,,,,,,,JELLY,HB,m,m,./images/JELLYHB.png,,,,,,,,m,1,0.751,,,,,,,,0,58,58,64,1
,,,,,,,,,,,,,,,,,200143,20,2022-01-28_14h10.07.064,lexical_decision_task_DD,2021.2.3,MacIntel,59.97720866,,,,,,,,,,,,1.2154,0,,,,,,,,,,,,,,,,,,,,,,,,-0.482017658,-0.003166854,0,0,0,,,,,,,PASTA,LB,m,m,./images/PASTALB.png,,,,,,,,z,0,1.2154,,,,,,,,0,59,59,5,1
,,,,,,,,,,,,,,,,,200143,20,2022-01-28_14h10.07.064,lexical_decision_task_DD,2021.2.3,MacIntel,59.97720866,,,,,,,,,,,,0.8983,1,,,,,,,,,,,,,,,,,,,,,,,,-0.482017658,-0.003166854,0,0,0,,,,,,,MAGGOT,C,m,m,./images/MAGGOT.png,,,,,,,,m,1,0.8983,,,,,,,,0,60,60,33,1
,,,,,,,,,,,,,,,,,200143,20,2022-01-28_14h10.07.064,lexical_decision_task_DD,2021.2.3,MacIntel,59.97720866,,,,,,,,,,,,1.0187,0,,,,,,,,,,,,,,,,,,,,,,,,-0.482017658,-0.003166854,0,0,0,,,,,,,INFANT,HB,m,m,./images/INFANTHB.png,,,,,,,,z,0,1.0187,,,,,,,,0,61,61,76,1
,,,,,,,,,,,,,,,,,200143,20,2022-01-28_14h10.07.064,lexical_decision_task_DD,2021.2.3,MacIntel,59.97720866,,,,,,,,,,,,1.0935,0,,,,,,,,,,,,,,,,,,,,,,,,-0.482017658,-0.003166854,0,0,0,,,,,,,CHERRY,C,z,m,./images/CHERRY.png,,,,,,,,m,0,1.0935,,,,,,,,0,62,62,138,1
,,,,,,,,,,,,,,,,,200143,20,2022-01-28_14h10.07.064,lexical_decision_task_DD,2021.2.3,MacIntel,59.97720866,,,,,,,,,,,,3.7929,1,,,,,,,,,,,,,,,,,,,,,,,,-0.482017658,-0.003166854,0,0,0,,,,,,,PEACH,LB,m,m,./images/PEACHLB.png,,,,,,,,m,1,3.7929,,,,,,,,0,63,63,35,1
,,,,,,,,,,,,,,,,,200143,20,2022-01-28_14h10.07.064,lexical_decision_task_DD,2021.2.3,MacIntel,59.97720866,,,,,,,,,,,,4.3235,1,,,,,,,,,,,,,,,,,,,,,,,,-0.482017658,-0.003166854,0,0,0,,,,,,,COUCH,LB,m,m,./images/COUCHLB.png,,,,,,,,m,1,4.3235,,,,,,,,0,64,64,77,1
,,,,,,,,,,,,,,,,,200143,20,2022-01-28_14h10.07.064,lexical_decision_task_DD,2021.2.3,MacIntel,59.97720866,,,,,,,,,,,,0.8825,1,,,,,,,,,,,,,,,,,,,,,,,,-0.482017658,-0.003166854,0,0,0,,,,,,,BISHOP,HB,z,m,./images/BISHOPHB.png,,,,,,,,z,1,0.8825,,,,,,,,0,65,65,133,1
,,,,,,,,,,,,,,,,,200143,20,2022-01-28_14h10.07.064,lexical_decision_task_DD,2021.2.3,MacIntel,59.97720866,,,,,,,,,,,,5.4186,0,,,,,,,,,,,,,,,,,,,,,,,,-0.482017658,-0.003166854,0,0,0,,,,,,,WHEEL,LB,z,m,./images/WHEELLB.png,,,,,,,,m,0,5.4186,,,,,,,,0,66,66,161,1
,,,,,,,,,,,,,,,,,200143,20,2022-01-28_14h10.07.064,lexical_decision_task_DD,2021.2.3,MacIntel,59.97720866,,,,,,,,,,,,0.7411,1,,,,,,,,,,,,,,,,,,,,,,,,-0.482017658,-0.003166854,0,0,0,,,,,,,ALLEY,HB,z,m,./images/ALLEYHB.png,,,,,,,,z,1,0.7411,,,,,,,,0,67,67,139,1
,,,,,,,,,,,,,,,,,200143,20,2022-01-28_14h10.07.064,lexical_decision_task_DD,2021.2.3,MacIntel,59.97720866,,,,,,,,,,,,0.766,0,,,,,,,,,,,,,,,,,,,,,,,,-0.482017658,-0.003166854,0,0,0,,,,,,,SQUARE,C,m,m,./images/SQUARE.png,,,,,,,,z,0,0.766,,,,,,,,0,68,68,6,1
,,,,,,,,,,,,,,,,,200143,20,2022-01-28_14h10.07.064,lexical_decision_task_DD,2021.2.3,MacIntel,59.97720866,,,,,,,,,,,,6.4063,1,,,,,,,,,,,,,,,,,,,,,,,,-0.482017658,-0.003166854,0,0,0,,,,,,,SAUNA,C,z,m,./images/SAUNA.png,,,,,,,,z,1,6.4063,,,,,,,,0,69,69,117,1
,,,,,,,,,,,,,,,,,200143,20,2022-01-28_14h10.07.064,lexical_decision_task_DD,2021.2.3,MacIntel,59.97720866,,,,,,,,,,,,7.7719,1,,,,,,,,,,,,,,,,,,,,,,,,-0.482017658,-0.003166854,0,0,0,,,,,,,BANANA,HB,z,m,./images/BANANAHB.png,,,,,,,,z,1,7.7719,,,,,,,,0,70,70,154,1
,,,,,,,,,,,,,,,,,200143,20,2022-01-28_14h10.07.064,lexical_decision_task_DD,2021.2.3,MacIntel,59.97720866,,,,,,,,,,,,7.8821,1,,,,,,,,,,,,,,,,,,,,,,,,-0.482017658,-0.003166854,0,0,0,,,,,,,SPORT,C,m,m,./images/SPORT.png,,,,,,,,m,1,7.8821,,,,,,,,0,71,71,48,1
,,,,,,,,,,,,,,,,,200143,20,2022-01-28_14h10.07.064,lexical_decision_task_DD,2021.2.3,MacIntel,59.97720866,,,,,,,,,,,,4.3025,1,,,,,,,,,,,,,,,,,,,,,,,,-0.482017658,-0.003166854,0,0,0,,,,,,,WRIST,HB,m,m,./images/WRISTHB.png,,,,,,,,m,1,4.3025,,,,,,,,0,72,72,25,1
,,,,,,,,,,,,,,,,,200143,20,2022-01-28_14h10.07.064,lexical_decision_task_DD,2021.2.3,MacIntel,59.97720866,,,,,,,,,,,,0.8735,1,,,,,,,,,,,,,,,,,,,,,,,,-0.482017658,-0.003166854,0,0,0,,,,,,,FALCON,HB,m,m,./images/FALCONHB.png,,,,,,,,m,1,0.8735,,,,,,,,0,73,73,28,1
,,,,,,,,,,,,,,,,,200143,20,2022-01-28_14h10.07.064,lexical_decision_task_DD,2021.2.3,MacIntel,59.97720866,,,,,,,,,,,,0.9001,1,,,,,,,,,,,,,,,,,,,,,,,,-0.482017658,-0.003166854,0,0,0,,,,,,,SAILOR,HB,m,m,./images/SAILORHB.png,,,,,,,,m,1,0.9001,,,,,,,,0,74,74,67,1
,,,,,,,,,,,,,,,,,200143,20,2022-01-28_14h10.07.064,lexical_decision_task_DD,2021.2.3,MacIntel,59.97720866,,,,,,,,,,,,2.0053,1,,,,,,,,,,,,,,,,,,,,,,,,-0.482017658,-0.003166854,0,0,0,,,,,,,CRADLE,LB,m,m,./images/CRADLELB.png,,,,,,,,m,1,2.0053,,,,,,,,0,75,75,20,1
,,,,,,,,,,,,,,,,,200143,20,2022-01-28_14h10.07.064,lexical_decision_task_DD,2021.2.3,MacIntel,59.97720866,,,,,,,,,,,,1.3493,0,,,,,,,,,,,,,,,,,,,,,,,,-0.482017658,-0.003166854,0,0,0,,,,,,,BUTTER,C,z,m,./images/BUTTER.png,,,,,,,,m,0,1.3493,,,,,,,,0,76,76,111,1
,,,,,,,,,,,,,,,,,200143,20,2022-01-28_14h10.07.064,lexical_decision_task_DD,2021.2.3,MacIntel,59.97720866,,,,,,,,,,,,0.8039,0,,,,,,,,,,,,,,,,,,,,,,,,-0.482017658,-0.003166854,0,0,0,,,,,,,JAGUAR,C,m,m,./images/JAGUAR.png,,,,,,,,z,0,0.8039,,,,,,,,0,77,77,18,1
,,,,,,,,,,,,,,,,,200143,20,2022-01-28_14h10.07.064,lexical_decision_task_DD,2021.2.3,MacIntel,59.97720866,,,,,,,,,,,,0.8413,1,,,,,,,,,,,,,,,,,,,,,,,,-0.482017658,-0.003166854,0,0,0,,,,,,,PLANET,LB,z,m,./images/PLANETLB.png,,,,,,,,z,1,0.8413,,,,,,,,0,78,78,164,1
,,,,,,,,,,,,,,,,,200143,20,2022-01-28_14h10.07.064,lexical_decision_task_DD,2021.2.3,MacIntel,59.97720866,,,,,,,,,,,,1.367,1,,,,,,,,,,,,,,,,,,,,,,,,-0.482017658,-0.003166854,0,0,0,,,,,,,TOWEL,HB,z,m,./images/TOWELHB.png,,,,,,,,z,1,1.367,,,,,,,,0,79,79,85,1
,,,,,,,,,,,,,,,,,200143,20,2022-01-28_14h10.07.064,lexical_decision_task_DD,2021.2.3,MacIntel,59.97720866,,,,,,,,,,,,0.9026,1,,,,,,,,,,,,,,,,,,,,,,,,-0.482017658,-0.003166854,0,0,0,,,,,,,RAZOR,HB,z,m,./images/RAZORHB.png,,,,,,,,z,1,0.9026,,,,,,,,0,80,80,118,1
,,,,,,,,,,,,,,,,,200143,20,2022-01-28_14h10.07.064,lexical_decision_task_DD,2021.2.3,MacIntel,59.97720866,,,,,,,,,,,,12.7473,0,,,,,,,,,,,,,,,,,,,,,,,,-0.482017658,-0.003166854,0,0,0,,,,,,,CLOTH,LB,z,m,./images/CLOTHLB.png,,,,,,,,m,0,12.7473,,,,,,,,0,81,81,107,1
,,,,,,,,,,,,,,,,,200143,20,2022-01-28_14h10.07.064,lexical_decision_task_DD,2021.2.3,MacIntel,59.97720866,,,,,,,,,,,,0.7395,0,,,,,,,,,,,,,,,,,,,,,,,,-0.482017658,-0.003166854,0,0,0,,,,,,,BAMBOO,LB,z,m,./images/BAMBOOLB.png,,,,,,,,m,0,0.7395,,,,,,,,0,82,82,89,1
,,,,,,,,,,,,,,,,,200143,20,2022-01-28_14h10.07.064,lexical_decision_task_DD,2021.2.3,MacIntel,59.97720866,,,,,,,,,,,,1.1949,1,,,,,,,,,,,,,,,,,,,,,,,,-0.972779818,0.027918997,0,0,0,space,,,,,,BIRTH,HB,m,m,./images/BIRTHHB.png,527.6828,,,,,,,m,1,1.1949,,,,,,,,0,83,83,37,1
,,,,,,,,,,,,,,,,,200143,20,2022-01-28_14h10.07.064,lexical_decision_task_DD,2021.2.3,MacIntel,59.97720866,,,,,,,,,,,,1.5003,1,,,,,,,,,,,,,,,,,,,,,,,,-0.972779818,0.027918997,0,0,0,,,,,,,CLOWN,HB,z,m,./images/CLOWNHB.png,,,,,,,,z,1,1.5003,,,,,,,,0,84,84,106,1
,,,,,,,,,,,,,,,,,200143,20,2022-01-28_14h10.07.064,lexical_decision_task_DD,2021.2.3,MacIntel,59.97720866,,,,,,,,,,,,0.899,1,,,,,,,,,,,,,,,,,,,,,,,,-0.972779818,0.027918997,0,0,0,,,,,,,BUBBLE,LB,z,m,./images/BUBBLELB.png,,,,,,,,z,1,0.899,,,,,,,,0,85,85,155,1
,,,,,,,,,,,,,,,,,200143,20,2022-01-28_14h10.07.064,lexical_decision_task_DD,2021.2.3,MacIntel,59.97720866,,,,,,,,,,,,1.6694,1,,,,,,,,,,,,,,,,,,,,,,,,-0.972779818,0.027918997,0,0,0,,,,,,,BANNER,HB,m,m,./images/BANNERHB.png,,,,,,,,m,1,1.6694,,,,,,,,0,86,86,52,1
,,,,,,,,,,,,,,,,,200143,20,2022-01-28_14h10.07.064,lexical_decision_task_DD,2021.2.3,MacIntel,59.97720866,,,,,,,,,,,,1.3317,1,,,,,,,,,,,,,,,,,,,,,,,,-0.972779818,0.027918997,0,0,0,,,,,,,POSTER,LB,z,m,./images/POSTERLB.png,,,,,,,,z,1,1.3317,,,,,,,,0,87,87,137,1
,,,,,,,,,,,,,,,,,200143,20,2022-01-28_14h10.07.064,lexical_decision_task_DD,2021.2.3,MacIntel,59.97720866,,,,,,,,,,,,2.0332,0,,,,,,,,,,,,,,,,,,,,,,,,-0.972779818,0.027918997,0,0,0,,,,,,,BARREL,LB,m,m,./images/BARRELLB.png,,,,,,,,z,0,2.0332,,,,,,,,0,88,88,32,1
,,,,,,,,,,,,,,,,,200143,20,2022-01-28_14h10.07.064,lexical_decision_task_DD,2021.2.3,MacIntel,59.97720866,,,,,,,,,,,,1.016,1,,,,,,,,,,,,,,,,,,,,,,,,-0.972779818,0.027918997,0,0,0,,,,,,,URINE,HB,m,m,./images/URINEHB.png,,,,,,,,m,1,1.016,,,,,,,,0,89,89,70,1
,,,,,,,,,,,,,,,,,200143,20,2022-01-28_14h10.07.064,lexical_decision_task_DD,2021.2.3,MacIntel,59.97720866,,,,,,,,,,,,0.9355,1,,,,,,,,,,,,,,,,,,,,,,,,-0.972779818,0.027918997,0,0,0,,,,,,,KIDNEY,C,m,m,./images/KIDNEY.png,,,,,,,,m,1,0.9355,,,,,,,,0,90,90,21,1
,,,,,,,,,,,,,,,,,200143,20,2022-01-28_14h10.07.064,lexical_decision_task_DD,2021.2.3,MacIntel,59.97720866,,,,,,,,,,,,1.1038,0,,,,,,,,,,,,,,,,,,,,,,,,-0.972779818,0.027918997,0,0,0,,,,,,,GLOVE,HB,z,m,./images/GLOVEHB.png,,,,,,,,m,0,1.1038,,,,,,,,0,91,91,157,1
,,,,,,,,,,,,,,,,,200143,20,2022-01-28_14h10.07.064,lexical_decision_task_DD,2021.2.3,MacIntel,59.97720866,,,,,,,,,,,,0.8984,0,,,,,,,,,,,,,,,,,,,,,,,,-0.972779818,0.027918997,0,0,0,,,,,,,HOCKEY,LB,z,m,./images/HOCKEYLB.png,,,,,,,,m,0,0.8984,,,,,,,,0,92,92,116,1
,,,,,,,,,,,,,,,,,200143,20,2022-01-28_14h10.07.064,lexical_decision_task_DD,2021.2.3,MacIntel,59.97720866,,,,,,,,,,,,0.7937,1,,,,,,,,,,,,,,,,,,,,,,,,-0.972779818,0.027918997,0,0,0,,,,,,,TORCH,LB,m,m,./images/TORCHLB.png,,,,,,,,m,1,0.7937,,,,,,,,0,93,93,68,1
,,,,,,,,,,,,,,,,,200143,20,2022-01-28_14h10.07.064,lexical_decision_task_DD,2021.2.3,MacIntel,59.97720866,,,,,,,,,,,,0.695,1,,,,,,,,,,,,,,,,,,,,,,,,-0.972779818,0.027918997,0,0,0,,,,,,,SMOKER,LB,m,m,./images/SMOKERLB.png,,,,,,,,m,1,0.695,,,,,,,,0,94,94,26,1
,,,,,,,,,,,,,,,,,200143,20,2022-01-28_14h10.07.064,lexical_decision_task_DD,2021.2.3,MacIntel,59.97720866,,,,,,,,,,,,0.9979,1,,,,,,,,,,,,,,,,,,,,,,,,-0.972779818,0.027918997,0,0,0,,,,,,,SUNSET,HB,m,m,./images/SUNSETHB.png,,,,,,,,m,1,0.9979,,,,,,,,0,95,95,82,1
,,,,,,,,,,,,,,,,,200143,20,2022-01-28_14h10.07.064,lexical_decision_task_DD,2021.2.3,MacIntel,59.97720866,,,,,,,,,,,,0.857,1,,,,,,,,,,,,,,,,,,,,,,,,-0.972779818,0.027918997,0,0,0,,,,,,,PEBBLE,HB,z,m,./images/PEBBLEHB.png,,,,,,,,z,1,0.857,,,,,,,,0,96,96,166,1
,,,,,,,,,,,,,,,,,200143,20,2022-01-28_14h10.07.064,lexical_decision_task_DD,2021.2.3,MacIntel,59.97720866,,,,,,,,,,,,1.0234,1,,,,,,,,,,,,,,,,,,,,,,,,-0.972779818,0.027918997,0,0,0,,,,,,,WALNUT,C,z,m,./images/WALNUT.png,,,,,,,,z,1,1.0234,,,,,,,,0,97,97,84,1
,,,,,,,,,,,,,,,,,200143,20,2022-01-28_14h10.07.064,lexical_decision_task_DD,2021.2.3,MacIntel,59.97720866,,,,,,,,,,,,0.7715,1,,,,,,,,,,,,,,,,,,,,,,,,-0.972779818,0.027918997,0,0,0,,,,,,,CURRY,C,z,m,./images/CURRY.png,,,,,,,,z,1,0.7715,,,,,,,,0,98,98,144,1
,,,,,,,,,,,,,,,,,200143,20,2022-01-28_14h10.07.064,lexical_decision_task_DD,2021.2.3,MacIntel,59.97720866,,,,,,,,,,,,2.8218,1,,,,,,,,,,,,,,,,,,,,,,,,-0.972779818,0.027918997,0,0,0,,,,,,,STRING,LB,m,m,./images/STRINGLB.png,,,,,,,,m,1,2.8218,,,,,,,,0,99,99,41,1
,,,,,,,,,,,,,,,,,200143,20,2022-01-28_14h10.07.064,lexical_decision_task_DD,2021.2.3,MacIntel,59.97720866,,,,,,,,,,,,2.2346,0,,,,,,,,,,,,,,,,,,,,,,,,-0.972779818,0.027918997,0,0,0,,,,,,,CLOUD,LB,z,m,./images/CLOUDLB.png,,,,,,,,m,0,2.2346,,,,,,,,0,100,100,110,1
,,,,,,,,,,,,,,,,,200143,20,2022-01-28_14h10.07.064,lexical_decision_task_DD,2021.2.3,MacIntel,59.97720866,,,,,,,,,,,,0.9183,1,,,,,,,,,,,,,,,,,,,,,,,,-0.972779818,0.027918997,0,0,0,,,,,,,GRAIN,C,m,m,./images/GRAIN.png,,,,,,,,m,1,0.9183,,,,,,,,0,101,101,75,1
,,,,,,,,,,,,,,,,,200143,20,2022-01-28_14h10.07.064,lexical_decision_task_DD,2021.2.3,MacIntel,59.97720866,,,,,,,,,,,,0.8447,1,,,,,,,,,,,,,,,,,,,,,,,,-0.972779818,0.027918997,0,0,0,,,,,,,PEARL,HB,m,m,./images/PEARLHB.png,,,,,,,,m,1,0.8447,,,,,,,,0,102,102,46,1
,,,,,,,,,,,,,,,,,200143,20,2022-01-28_14h10.07.064,lexical_decision_task_DD,2021.2.3,MacIntel,59.97720866,,,,,,,,,,,,1.7657,1,,,,,,,,,,,,,,,,,,,,,,,,-0.972779818,0.027918997,0,0,0,,,,,,,PENCE,HB,m,m,./images/PENCEHB.png,,,,,,,,m,1,1.7657,,,,,,,,0,103,103,16,1
,,,,,,,,,,,,,,,,,200143,20,2022-01-28_14h10.07.064,lexical_decision_task_DD,2021.2.3,MacIntel,59.97720866,,,,,,,,,,,,5.1387,1,,,,,,,,,,,,,,,,,,,,,,,,-0.972779818,0.027918997,0,0,0,,,,,,,GREASE,C,m,m,./images/GREASE.png,,,,,,,,m,1,5.1387,,,,,,,,0,104,104,15,1
,,,,,,,,,,,,,,,,,200143,20,2022-01-28_14h10.07.064,lexical_decision_task_DD,2021.2.3,MacIntel,59.97720866,,,,,,,,,,,,1.2318,1,,,,,,,,,,,,,,,,,,,,,,,,-0.972779818,0.027918997,0,0,0,,,,,,,LIZARD,LB,m,m,./images/LIZARDLB.png,,,,,,,,m,1,1.2318,,,,,,,,0,105,105,44,1
,,,,,,,,,,,,,,,,,200143,20,2022-01-28_14h10.07.064,lexical_decision_task_DD,2021.2.3,MacIntel,59.97720866,,,,,,,,,,,,1.7478,0,,,,,,,,,,,,,,,,,,,,,,,,-0.972779818,0.027918997,0,0,0,,,,,,,PARCEL,C,z,m,./images/PARCEL.png,,,,,,,,m,0,1.7478,,,,,,,,0,106,106,102,1
,,,,,,,,,,,,,,,,,200143,20,2022-01-28_14h10.07.064,lexical_decision_task_DD,2021.2.3,MacIntel,59.97720866,,,,,,,,,,,,3.1921,0,,,,,,,,,,,,,,,,,,,,,,,,-0.972779818,0.027918997,0,0,0,,,,,,,FERRY,C,z,m,./images/FERRY.png,,,,,,,,m,0,3.1921,,,,,,,,0,107,107,141,1
,,,,,,,,,,,,,,,,,200143,20,2022-01-28_14h10.07.064,lexical_decision_task_DD,2021.2.3,MacIntel,59.97720866,,,,,,,,,,,,5.7966,0,,,,,,,,,,,,,,,,,,,,,,,,-0.972779818,0.027918997,0,0,0,,,,,,,GRAPE,HB,z,m,./images/GRAPEHB.png,,,,,,,,m,0,5.7966,,,,,,,,0,108,108,100,1
,,,,,,,,,,,,,,,,,200143,20,2022-01-28_14h10.07.064,lexical_decision_task_DD,2021.2.3,MacIntel,59.97720866,,,,,,,,,,,,0.8192,0,,,,,,,,,,,,,,,,,,,,,,,,-0.972779818,0.027918997,0,0,0,,,,,,,MOTOR,HB,m,m,./images/MOTORHB.png,,,,,,,,z,0,0.8192,,,,,,,,0,109,109,13,1
,,,,,,,,,,,,,,,,,200143,20,2022-01-28_14h10.07.064,lexical_decision_task_DD,2021.2.3,MacIntel,59.97720866,,,,,,,,,,,,0.9742,0,,,,,,,,,,,,,,,,,,,,,,,,-0.972779818,0.027918997,0,0,0,,,,,,,BONNET,LB,m,m,./images/BONNETLB.png,,,,,,,,z,0,0.9742,,,,,,,,0,110,110,11,1
,,,,,,,,,,,,,,,,,200143,20,2022-01-28_14h10.07.064,lexical_decision_task_DD,2021.2.3,MacIntel,59.97720866,,,,,,,,,,,,4.3916,0,,,,,,,,,,,,,,,,,,,,,,,,-0.972779818,0.027918997,0,0,0,,,,,,,ENGINE,LB,z,m,./images/ENGINELB.png,,,,,,,,m,0,4.3916,,,,,,,,0,111,111,122,1
,,,,,,,,,,,,,,,,,200143,20,2022-01-28_14h10.07.064,lexical_decision_task_DD,2021.2.3,MacIntel,59.97720866,,,,,,,,,,,,1.6577,1,,,,,,,,,,,,,,,,,,,,,,,,-0.972779818,0.027918997,0,0,0,,,,,,,STORM,C,m,m,./images/STORM.png,,,,,,,,m,1,1.6577,,,,,,,,0,112,112,30,1
,,,,,,,,,,,,,,,,,200143,20,2022-01-28_14h10.07.064,lexical_decision_task_DD,2021.2.3,MacIntel,59.97720866,,,,,,,,,,,,0.9204,1,,,,,,,,,,,,,,,,,,,,,,,,-0.972779818,0.027918997,0,0,0,,,,,,,STREAM,LB,z,m,./images/STREAMLB.png,,,,,,,,z,1,0.9204,,,,,,,,0,113,113,125,1
,,,,,,,,,,,,,,,,,200143,20,2022-01-28_14h10.07.064,lexical_decision_task_DD,2021.2.3,MacIntel,59.97720866,,,,,,,,,,,,2.7566,0,,,,,,,,,,,,,,,,,,,,,,,,-0.972779818,0.027918997,0,0,0,,,,,,,SWING,HB,m,m,./images/SWINGHB.png,,,,,,,,z,0,2.7566,,,,,,,,0,114,114,40,1
,,,,,,,,,,,,,,,,,200143,20,2022-01-28_14h10.07.064,lexical_decision_task_DD,2021.2.3,MacIntel,59.97720866,,,,,,,,,,,,1.8501,0,,,,,,,,,,,,,,,,,,,,,,,,-0.972779818,0.027918997,0,0,0,,,,,,,PIMPLE,LB,m,m,./images/PIMPLELB.png,,,,,,,,z,0,1.8501,,,,,,,,0,115,115,71,1
,,,,,,,,,,,,,,,,,200143,20,2022-01-28_14h10.07.064,lexical_decision_task_DD,2021.2.3,MacIntel,59.97720866,,,,,,,,,,,,3.6681,1,,,,,,,,,,,,,,,,,,,,,,,,-0.972779818,0.027918997,0,0,0,,,,,,,CRATER,C,z,m,./images/CRATER.png,,,,,,,,z,1,3.6681,,,,,,,,0,116,116,87,1
,,,,,,,,,,,,,,,,,200143,20,2022-01-28_14h10.07.064,lexical_decision_task_DD,2021.2.3,MacIntel,59.97720866,,,,,,,,,,,,2.4046,1,,,,,,,,,,,,,,,,,,,,,,,,-0.972779818,0.027918997,0,0,0,,,,,,,THROAT,C,m,m,./images/THROAT.png,,,,,,,,m,1,2.4046,,,,,,,,0,117,117,36,1
,,,,,,,,,,,,,,,,,200143,20,2022-01-28_14h10.07.064,lexical_decision_task_DD,2021.2.3,MacIntel,59.97720866,,,,,,,,,,,,0.8883,1,,,,,,,,,,,,,,,,,,,,,,,,-0.972779818,0.027918997,0,0,0,,,,,,,MIRROR,C,m,m,./images/MIRROR.png,,,,,,,,m,1,0.8883,,,,,,,,0,118,118,63,1
,,,,,,,,,,,,,,,,,200143,20,2022-01-28_14h10.07.064,lexical_decision_task_DD,2021.2.3,MacIntel,59.97720866,,,,,,,,,,,,2.4472,1,,,,,,,,,,,,,,,,,,,,,,,,-0.972779818,0.027918997,0,0,0,,,,,,,WHISKY,LB,z,m,./images/WHISKYLB.png,,,,,,,,z,1,2.4472,,,,,,,,0,119,119,167,1
,,,,,,,,,,,,,,,,,200143,20,2022-01-28_14h10.07.064,lexical_decision_task_DD,2021.2.3,MacIntel,59.97720866,,,,,,,,,,,,1.7114,0,,,,,,,,,,,,,,,,,,,,,,,,-0.972779818,0.027918997,0,0,0,,,,,,,GRANNY,LB,z,m,./images/GRANNYLB.png,,,,,,,,m,0,1.7114,,,,,,,,0,120,120,104,1
,,,,,,,,,,,,,,,,,200143,20,2022-01-28_14h10.07.064,lexical_decision_task_DD,2021.2.3,MacIntel,59.97720866,,,,,,,,,,,,2.0203,0,,,,,,,,,,,,,,,,,,,,,,,,-0.972779818,0.027918997,0,0,0,,,,,,,CANOE,HB,z,m,./images/CANOEHB.png,,,,,,,,m,0,2.0203,,,,,,,,0,121,121,142,1
,,,,,,,,,,,,,,,,,200143,20,2022-01-28_14h10.07.064,lexical_decision_task_DD,2021.2.3,MacIntel,59.97720866,,,,,,,,,,,,0.849,1,,,,,,,,,,,,,,,,,,,,,,,,-0.972779818,0.027918997,0,0,0,,,,,,,ARTIST,HB,z,m,./images/ARTISTHB.png,,,,,,,,z,1,0.849,,,,,,,,0,122,122,145,1
,,,,,,,,,,,,,,,,,200143,20,2022-01-28_14h10.07.064,lexical_decision_task_DD,2021.2.3,MacIntel,59.97720866,,,,,,,,,,,,1.285,0,,,,,,,,,,,,,,,,,,,,,,,,-0.972779818,0.027918997,0,0,0,,,,,,,BELLY,HB,m,m,./images/BELLYHB.png,,,,,,,,z,0,1.285,,,,,,,,0,123,123,10,1
,,,,,,,,,,,,,,,,,200143,20,2022-01-28_14h10.07.064,lexical_decision_task_DD,2021.2.3,MacIntel,59.97720866,,,,,,,,,,,,1.2222,0,,,,,,,,,,,,,,,,,,,,,,,,-0.972779818,0.027918997,0,0,0,,,,,,,JUNGLE,LB,m,m,./images/JUNGLELB.png,,,,,,,,z,0,1.2222,,,,,,,,0,124,124,83,1
,,,,,,,,,,,,,,,,,200143,20,2022-01-28_14h10.07.064,lexical_decision_task_DD,2021.2.3,MacIntel,59.97720866,,,,,,,,,,,,1.4334,1,,,,,,,,,,,,,,,,,,,,,,,,-0.972779818,0.027918997,0,0,0,space,,,,,,SPINE,LB,z,m,./images/SPINELB.png,1.2342,,,,,,,z,1,1.4334,,,,,,,,0,125,125,149,1
,,,,,,,,,,,,,,,,,200143,20,2022-01-28_14h10.07.064,lexical_decision_task_DD,2021.2.3,MacIntel,59.97720866,,,,,,,,,,,,3.9164,1,,,,,,,,,,,,,,,,,,,,,,,,-0.972779818,0.027918997,0,0,0,,,,,,,FOLDER,C,m,m,./images/FOLDER.png,,,,,,,,m,1,3.9164,,,,,,,,0,126,126,42,1
,,,,,,,,,,,,,,,,,200143,20,2022-01-28_14h10.07.064,lexical_decision_task_DD,2021.2.3,MacIntel,59.97720866,,,,,,,,,,,,1.2028,0,,,,,,,,,,,,,,,,,,,,,,,,-0.972779818,0.027918997,0,0,0,,,,,,,DONKEY,HB,z,m,./images/DONKEYHB.png,,,,,,,,m,0,1.2028,,,,,,,,0,127,127,103,1
,,,,,,,,,,,,,,,,,200143,20,2022-01-28_14h10.07.064,lexical_decision_task_DD,2021.2.3,MacIntel,59.97720866,,,,,,,,,,,,1.0023,0,,,,,,,,,,,,,,,,,,,,,,,,-0.972779818,0.027918997,0,0,0,,,,,,,PICKLE,LB,m,m,./images/PICKLELB.png,,,,,,,,z,0,1.0023,,,,,,,,0,128,128,14,1
,,,,,,,,,,,,,,,,,200143,20,2022-01-28_14h10.07.064,lexical_decision_task_DD,2021.2.3,MacIntel,59.97720866,,,,,,,,,,,,0.834,1,,,,,,,,,,,,,,,,,,,,,,,,-0.972779818,0.027918997,0,0,0,,,,,,,RULER,HB,z,m,./images/RULERHB.png,,,,,,,,z,1,0.834,,,,,,,,0,129,129,163,1
,,,,,,,,,,,,,,,,,200143,20,2022-01-28_14h10.07.064,lexical_decision_task_DD,2021.2.3,MacIntel,59.97720866,,,,,,,,,,,,0.7169,1,,,,,,,,,,,,,,,,,,,,,,,,-0.972779818,0.027918997,0,0,0,,,,,,,BLOKE,C,z,m,./images/BLOKE.png,,,,,,,,z,1,0.7169,,,,,,,,0,130,130,96,1
,,,,,,,,,,,,,,,,,200143,20,2022-01-28_14h10.07.064,lexical_decision_task_DD,2021.2.3,MacIntel,59.97720866,,,,,,,,,,,,5.7229,0,,,,,,,,,,,,,,,,,,,,,,,,-0.972779818,0.027918997,0,0,0,,,,,,,BOILER,C,z,m,./images/BOILER.png,,,,,,,,m,0,5.7229,,,,,,,,0,131,131,120,1
,,,,,,,,,,,,,,,,,200143,20,2022-01-28_14h10.07.064,lexical_decision_task_DD,2021.2.3,MacIntel,59.97720866,,,,,,,,,,,,1.6421,0,,,,,,,,,,,,,,,,,,,,,,,,-0.972779818,0.027918997,0,0,0,,,,,,,TWINS,C,m,m,./images/TWINS.png,,,,,,,,z,0,1.6421,,,,,,,,0,132,132,60,1
,,,,,,,,,,,,,,,,,200143,20,2022-01-28_14h10.07.064,lexical_decision_task_DD,2021.2.3,MacIntel,59.97720866,,,,,,,,,,,,1.5831,1,,,,,,,,,,,,,,,,,,,,,,,,-0.972779818,0.027918997,0,0,0,,,,,,,BASKET,LB,z,m,./images/BASKETLB.png,,,,,,,,z,1,1.5831,,,,,,,,0,133,133,128,1
,,,,,,,,,,,,,,,,,200143,20,2022-01-28_14h10.07.064,lexical_decision_task_DD,2021.2.3,MacIntel,59.97720866,,,,,,,,,,,,3.167,1,,,,,,,,,,,,,,,,,,,,,,,,-0.972779818,0.027918997,0,0,0,,,,,,,ARROW,C,z,m,./images/ARROW.png,,,,,,,,z,1,3.167,,,,,,,,0,134,134,153,1
,,,,,,,,,,,,,,,,,200143,20,2022-01-28_14h10.07.064,lexical_decision_task_DD,2021.2.3,MacIntel,59.97720866,,,,,,,,,,,,10.4779,1,,,,,,,,,,,,,,,,,,,,,,,,-0.972779818,0.027918997,0,0,0,,,,,,,COLLAR,C,z,m,./images/COLLAR.png,,,,,,,,z,1,10.4779,,,,,,,,0,135,135,99,1
,,,,,,,,,,,,,,,,,200143,20,2022-01-28_14h10.07.064,lexical_decision_task_DD,2021.2.3,MacIntel,59.97720866,,,,,,,,,,,,0.8276,1,,,,,,,,,,,,,,,,,,,,,,,,-0.972779818,0.027918997,0,0,0,,,,,,,LITTER,C,m,m,./images/LITTER.png,,,,,,,,m,1,0.8276,,,,,,,,0,136,136,78,1
,,,,,,,,,,,,,,,,,200143,20,2022-01-28_14h10.07.064,lexical_decision_task_DD,2021.2.3,MacIntel,59.97720866,,,,,,,,,,,,2.0327,1,,,,,,,,,,,,,,,,,,,,,,,,-0.972779818,0.027918997,0,0,0,,,,,,,WEASEL,LB,m,m,./images/WEASELLB.png,,,,,,,,m,1,2.0327,,,,,,,,0,137,137,80,1
,,,,,,,,,,,,,,,,,200143,20,2022-01-28_14h10.07.064,lexical_decision_task_DD,2021.2.3,MacIntel,59.97720866,,,,,,,,,,,,2.0036,0,,,,,,,,,,,,,,,,,,,,,,,,-0.972779818,0.027918997,0,0,0,,,,,,,STATUE,C,z,m,./images/STATUE.png,,,,,,,,m,0,2.0036,,,,,,,,0,138,138,150,1
,,,,,,,,,,,,,,,,,200143,20,2022-01-28_14h10.07.064,lexical_decision_task_DD,2021.2.3,MacIntel,59.97720866,,,,,,,,,,,,1.8427,1,,,,,,,,,,,,,,,,,,,,,,,,-0.972779818,0.027918997,0,0,0,,,,,,,STEAK,HB,z,m,./images/STEAKHB.png,,,,,,,,z,1,1.8427,,,,,,,,0,139,139,115,1
,,,,,,,,,,,,,,,,,200143,20,2022-01-28_14h10.07.064,lexical_decision_task_DD,2021.2.3,MacIntel,59.97720866,,,,,,,,,,,,0.8735,0,,,,,,,,,,,,,,,,,,,,,,,,-0.972779818,0.027918997,0,0,0,,,,,,,KITTEN,C,m,m,./images/KITTEN.png,,,,,,,,z,0,0.8735,,,,,,,,0,140,140,45,1
,,,,,,,,,,,,,,,,,200143,20,2022-01-28_14h10.07.064,lexical_decision_task_DD,2021.2.3,MacIntel,59.97720866,,,,,,,,,,,,0.8799,1,,,,,,,,,,,,,,,,,,,,,,,,-0.972779818,0.027918997,0,0,0,,,,,,,TULIP,LB,m,m,./images/TULIPLB.png,,,,,,,,m,1,0.8799,,,,,,,,0,141,141,8,1
,,,,,,,,,,,,,,,,,200143,20,2022-01-28_14h10.07.064,lexical_decision_task_DD,2021.2.3,MacIntel,59.97720866,,,,,,,,,,,,0.9674,1,,,,,,,,,,,,,,,,,,,,,,,,-0.972779818,0.027918997,0,0,0,,,,,,,MEDAL,LB,z,m,./images/MEDALLB.png,,,,,,,,z,1,0.9674,,,,,,,,0,142,142,95,1
,,,,,,,,,,,,,,,,,200143,20,2022-01-28_14h10.07.064,lexical_decision_task_DD,2021.2.3,MacIntel,59.97720866,,,,,,,,,,,,0.766,1,,,,,,,,,,,,,,,,,,,,,,,,-0.972779818,0.027918997,0,0,0,,,,,,,RHINO,C,m,m,./images/RHINO.png,,,,,,,,m,1,0.766,,,,,,,,0,143,143,9,1
,,,,,,,,,,,,,,,,,200143,20,2022-01-28_14h10.07.064,lexical_decision_task_DD,2021.2.3,MacIntel,59.97720866,,,,,,,,,,,,2.9829,1,,,,,,,,,,,,,,,,,,,,,,,,-0.972779818,0.027918997,0,0,0,,,,,,,ATTIC,C,m,m,./images/ATTIC.png,,,,,,,,m,1,2.9829,,,,,,,,0,144,144,27,1
,,,,,,,,,,,,,,,,,200143,20,2022-01-28_14h10.07.064,lexical_decision_task_DD,2021.2.3,MacIntel,59.97720866,,,,,,,,,,,,0.7997,1,,,,,,,,,,,,,,,,,,,,,,,,-0.972779818,0.027918997,0,0,0,,,,,,,CRUMB,LB,m,m,./images/CRUMBLB.png,,,,,,,,m,1,0.7997,,,,,,,,0,145,145,29,1
,,,,,,,,,,,,,,,,,200143,20,2022-01-28_14h10.07.064,lexical_decision_task_DD,2021.2.3,MacIntel,59.97720866,,,,,,,,,,,,0.9161,1,,,,,,,,,,,,,,,,,,,,,,,,-0.972779818,0.027918997,0,0,0,,,,,,,MUMMY,HB,z,m,./images/MUMMYHB.png,,,,,,,,z,1,0.9161,,,,,,,,0,146,146,130,1
,,,,,,,,,,,,,,,,,200143,20,2022-01-28_14h10.07.064,lexical_decision_task_DD,2021.2.3,MacIntel,59.97720866,,,,,,,,,,,,0.7818,1,,,,,,,,,,,,,,,,,,,,,,,,-0.972779818,0.027918997,0,0,0,,,,,,,TRIPOD,C,m,m,./images/TRIPOD.png,,,,,,,,m,1,0.7818,,,,,,,,0,147,147,54,1
,,,,,,,,,,,,,,,,,200143,20,2022-01-28_14h10.07.064,lexical_decision_task_DD,2021.2.3,MacIntel,59.97720866,,,,,,,,,,,,10.6971,0,,,,,,,,,,,,,,,,,,,,,,,,-0.972779818,0.027918997,0,0,0,,,,,,,STOOL,HB,z,m,./images/STOOLHB.png,,,,,,,,m,0,10.6971,,,,,,,,0,148,148,127,1
,,,,,,,,,,,,,,,,,200143,20,2022-01-28_14h10.07.064,lexical_decision_task_DD,2021.2.3,MacIntel,59.97720866,,,,,,,,,,,,0.8401,0,,,,,,,,,,,,,,,,,,,,,,,,-0.972779818,0.027918997,0,0,0,,,,,,,DOUGH,HB,m,m,./images/DOUGHHB.png,,,,,,,,z,0,0.8401,,,,,,,,0,149,149,19,1
,,,,,,,,,,,,,,,,,200143,20,2022-01-28_14h10.07.064,lexical_decision_task_DD,2021.2.3,MacIntel,59.97720866,,,,,,,,,,,,1.1152,0,,,,,,,,,,,,,,,,,,,,,,,,-0.972779818,0.027918997,0,0,0,,,,,,,FLESH,C,z,m,./images/FLESH.png,,,,,,,,m,0,1.1152,,,,,,,,0,150,150,108,1
,,,,,,,,,,,,,,,,,200143,20,2022-01-28_14h10.07.064,lexical_decision_task_DD,2021.2.3,MacIntel,59.97720866,,,,,,,,,,,,5.8723,0,,,,,,,,,,,,,,,,,,,,,,,,-0.972779818,0.027918997,0,0,0,,,,,,,PACKET,LB,m,m,./images/PACKETLB.png,,,,,,,,z,0,5.8723,,,,,,,,0,151,151,56,1
,,,,,,,,,,,,,,,,,200143,20,2022-01-28_14h10.07.064,lexical_decision_task_DD,2021.2.3,MacIntel,59.97720866,,,,,,,,,,,,1.4523,0,,,,,,,,,,,,,,,,,,,,,,,,-0.972779818,0.027918997,0,0,0,,,,,,,ONION,C,m,m,./images/ONION.png,,,,,,,,z,0,1.4523,,,,,,,,0,152,152,51,1
,,,,,,,,,,,,,,,,,200143,20,2022-01-28_14h10.07.064,lexical_decision_task_DD,2021.2.3,MacIntel,59.97720866,,,,,,,,,,,,1.2563,1,,,,,,,,,,,,,,,,,,,,,,,,-0.972779818,0.027918997,0,0,0,,,,,,,POODLE,C,m,m,./images/POODLE.png,,,,,,,,m,1,1.2563,,,,,,,,0,153,153,81,1
,,,,,,,,,,,,,,,,,200143,20,2022-01-28_14h10.07.064,lexical_decision_task_DD,2021.2.3,MacIntel,59.97720866,,,,,,,,,,,,2.9534,1,,,,,,,,,,,,,,,,,,,,,,,,-0.972779818,0.027918997,0,0,0,,,,,,,COOKER,C,m,m,./images/COOKER.png,,,,,,,,m,1,2.9534,,,,,,,,0,154,154,69,1
,,,,,,,,,,,,,,,,,200143,20,2022-01-28_14h10.07.064,lexical_decision_task_DD,2021.2.3,MacIntel,59.97720866,,,,,,,,,,,,1.1015,1,,,,,,,,,,,,,,,,,,,,,,,,-0.972779818,0.027918997,0,0,0,,,,,,,CHAIN,C,z,m,./images/CHAIN.png,,,,,,,,z,1,1.1015,,,,,,,,0,155,155,126,1
,,,,,,,,,,,,,,,,,200143,20,2022-01-28_14h10.07.064,lexical_decision_task_DD,2021.2.3,MacIntel,59.97720866,,,,,,,,,,,,1.5497,1,,,,,,,,,,,,,,,,,,,,,,,,-0.972779818,0.027918997,0,0,0,,,,,,,NOOSE,C,m,m,./images/NOOSE.png,,,,,,,,m,1,1.5497,,,,,,,,0,156,156,72,1
,,,,,,,,,,,,,,,,,200143,20,2022-01-28_14h10.07.064,lexical_decision_task_DD,2021.2.3,MacIntel,59.97720866,,,,,,,,,,,,0.9482,1,,,,,,,,,,,,,,,,,,,,,,,,-0.972779818,0.027918997,0,0,0,,,,,,,BURIAL,LB,m,m,./images/BURIALLB.png,,,,,,,,m,1,0.9482,,,,,,,,0,157,157,59,1
,,,,,,,,,,,,,,,,,200143,20,2022-01-28_14h10.07.064,lexical_decision_task_DD,2021.2.3,MacIntel,59.97720866,,,,,,,,,,,,0.8757,1,,,,,,,,,,,,,,,,,,,,,,,,-0.972779818,0.027918997,0,0,0,,,,,,,BUNNY,HB,z,m,./images/BUNNYHB.png,,,,,,,,z,1,0.8757,,,,,,,,0,158,158,97,1
,,,,,,,,,,,,,,,,,200143,20,2022-01-28_14h10.07.064,lexical_decision_task_DD,2021.2.3,MacIntel,59.97720866,,,,,,,,,,,,3.5702,1,,,,,,,,,,,,,,,,,,,,,,,,-0.972779818,0.027918997,0,0,0,,,,,,,SNACK,HB,m,m,./images/SNACKHB.png,,,,,,,,m,1,3.5702,,,,,,,,0,159,159,73,1
,,,,,,,,,,,,,,,,,200143,20,2022-01-28_14h10.07.064,lexical_decision_task_DD,2021.2.3,MacIntel,59.97720866,,,,,,,,,,,,0.9351,1,,,,,,,,,,,,,,,,,,,,,,,,-0.972779818,0.027918997,0,0,0,,,,,,,WAGON,HB,z,m,./images/WAGONHB.png,,,,,,,,z,1,0.9351,,,,,,,,0,160,160,91,1
,,,,,,,,,,,,,,,,,200143,20,2022-01-28_14h10.07.064,lexical_decision_task_DD,2021.2.3,MacIntel,59.97720866,,,,,,,,,,,,0.9787,1,,,,,,,,,,,,,,,,,,,,,,,,-0.972779818,0.027918997,0,0,0,,,,,,,VALLEY,LB,z,m,./images/VALLEYLB.png,,,,,,,,z,1,0.9787,,,,,,,,0,161,161,152,1
,,,,,,,,,,,,,,,,,200143,20,2022-01-28_14h10.07.064,lexical_decision_task_DD,2021.2.3,MacIntel,59.97720866,,,,,,,,,,,,2.4609,0,,,,,,,,,,,,,,,,,,,,,,,,-0.972779818,0.027918997,0,0,0,,,,,,,SAUCE,C,z,m,./images/SAUCE.png,,,,,,,,m,0,2.4609,,,,,,,,0,162,162,135,1
,,,,,,,,,,,,,,,,,200143,20,2022-01-28_14h10.07.064,lexical_decision_task_DD,2021.2.3,MacIntel,59.97720866,,,,,,,,,,,,1.3899,0,,,,,,,,,,,,,,,,,,,,,,,,-0.972779818,0.027918997,0,0,0,,,,,,,BOXER,HB,z,m,./images/BOXERHB.png,,,,,,,,m,0,1.3899,,,,,,,,0,163,163,88,1
,,,,,,,,,,,,,,,,,200143,20,2022-01-28_14h10.07.064,lexical_decision_task_DD,2021.2.3,MacIntel,59.97720866,,,,,,,,,,,,1.5906,1,,,,,,,,,,,,,,,,,,,,,,,,-0.972779818,0.027918997,0,0,0,,,,,,,MUFFIN,HB,m,m,./images/MUFFINHB.png,,,,,,,,m,1,1.5906,,,,,,,,0,164,164,55,1
,,,,,,,,,,,,,,,,,200143,20,2022-01-28_14h10.07.064,lexical_decision_task_DD,2021.2.3,MacIntel,59.97720866,,,,,,,,,,,,0.799,1,,,,,,,,,,,,,,,,,,,,,,,,-0.972779818,0.027918997,0,0,0,,,,,,,DESERT,HB,z,m,./images/DESERTHB.png,,,,,,,,z,1,0.799,,,,,,,,0,165,165,136,1
,,,,,,,,,,,,,,,,,200143,20,2022-01-28_14h10.07.064,lexical_decision_task_DD,2021.2.3,MacIntel,59.97720866,,,,,,,,,,,,3.9513,1,,,,,,,,,,,,,,,,,,,,,,,,-0.972779818,0.027918997,0,0,0,,,,,,,BERRY,LB,m,m,./images/BERRYLB.png,,,,,,,,m,1,3.9513,,,,,,,,0,166,166,47,1
,,,,,,,,,,,,,,,,,200143,20,2022-01-28_14h10.07.064,lexical_decision_task_DD,2021.2.3,MacIntel,59.97720866,,,,,,,,,,,,1.0707,1,,,,,,,,,,,,,,,,,,,,,,,,-0.972779818,0.027918997,0,0,0,,,,,,,MOSQUE,HB,m,m,./images/MOSQUEHB.png,,,,,,,,m,1,1.0707,,,,,,,,0,167,167,43,1
