key_resp.keys,instr_done_touch.x,instr_done_touch.y,instr_done_touch.leftButton,instr_done_touch.midButton,instr_done_touch.rightButton,instr_done_touch.clicked_name,instruction_pages.thisRepN,instruction_pages.thisTrialN,instruction_pages.thisN,instruction_pages.thisIndex,instruction_pages.ran,pageN,phase,instruct_text,has_image,instruct_image,participant,age,date,expName,psychopyVersion,OS,frameRate,key_resp.rt,response.keys,response.corr,response.rt,touch_resp.x,touch_resp.y,touch_resp.leftButton,touch_resp.midButton,touch_resp.rightButton,touch_resp.time,touch_resp.clicked_name,rt,corr,practrials.thisRepN,practrials.thisTrialN,practrials.thisN,practrials.thisIndex,practrials.ran,TrialID,Target,corrAns,end_of_practice_trials_pages.thisRepN,end_of_practice_trials_pages.thisTrialN,end_of_practice_trials_pages.thisN,end_of_practice_trials_pages.thisIndex,end_of_practice_trials_pages.ran,key_resp_2.keys,key_resp_2.corr,key_resp_2.rt,targ_click.x,targ_click.y,targ_click.leftButton,targ_click.midButton,targ_click.rightButton,targ_click.time,targ_click.clicked_name,break_done_touch.x,break_done_touch.y,break_done_touch.leftButton,break_done_touch.midButton,break_done_touch.rightButton,break_done_keyboard.keys,maintrials.thisRepN,maintrials.thisTrialN,maintrials.thisN,maintrials.thisIndex,maintrials.ran,string,blur,study,lex,stim_path,break_done_keyboard.rt,test_instructions.thisRepN,test_instructions.thisTrialN,test_instructions.thisN,test_instructions.thisIndex,test_instructions.ran,key_resp_3.keys,key_resp_3.corr,key_resp_3.rt,test_click.x,test_click.y,test_click.leftButton,test_click.midButton,test_click.rightButton,test_click.time,test_click.clicked_name,test_phase.thisRepN,test_phase.thisTrialN,test_phase.thisN,test_phase.thisIndex,test_phase.ran
,-0.023148135,-0.403703717,1,0,0,instr_done_button,0,0,0,0,1,1,instructions,"INSTRUCTIONS
At the start of each trial, look at the plus sign  (+) in the center of the screen.  This tells you that a trial is about to begin and where to look. Second, the plus sign will disappear and a string of letters will appear. Your task is to determine if the string of letters is a word or not. If the item is a word press the M key (on keyboard)  or touch the word button (phone/tablet).  If the item is not a word,  press the  Z key (on keyboard)  or touch the nonword button (on phone/tablet). 
Press the space bar or touch  continue.",0,,200254,21,2022-01-28_17h40.24.468,lexical_decision_task_DD_L6,2021.2.3,Win32,60.34638827,,,,,,,,,,,,,,,,,,,,,,,,,,,,,,,,,,,,,,,,,,,,,,,,,,,,,,,,,,,,,,,,,,,,,,,,,
space,0.064814829,-0.371296309,0,0,0,,0,1,1,1,1,2,instructions,"If your device has a keyboard, press the 'Z' key for nonwords and the 'M' key for words.





Press the space bar or touch the button below to continue.",0,keyboard-example.gif,200254,21,2022-01-28_17h40.24.468,lexical_decision_task_DD_L6,2021.2.3,Win32,60.34638827,8.8943,,,,,,,,,,,,,,,,,,,,,,,,,,,,,,,,,,,,,,,,,,,,,,,,,,,,,,,,,,,,,,,,,,,,,,,,
space,0.064814829,-0.371296309,0,0,0,,0,2,2,2,1,3,instructions,"If you are using a touchscreen only device, use the buttons on the screen. Do not use the mouse.





Press the space bar or touch the button below to continue.",0,touchscreen-example.gif,200254,21,2022-01-28_17h40.24.468,lexical_decision_task_DD_L6,2021.2.3,Win32,60.34638827,6.0913,,,,,,,,,,,,,,,,,,,,,,,,,,,,,,,,,,,,,,,,,,,,,,,,,,,,,,,,,,,,,,,,,,,,,,,,
space,0.064814829,-0.371296309,0,0,0,,0,3,3,3,1,4,instructions,"It is very important that you respond as quickly and accurately as possible, as each letter string will only be on the screen for two seconds. If you do not respond within this time, the message 'Too slow!' will be displayed and the experiment will progress to the next letter string. The first 20 trials will be practice trials and you will receive feedback on your answers. 

Press the space bar or touch the button below to start the practice trials.",0,,200254,21,2022-01-28_17h40.24.468,lexical_decision_task_DD_L6,2021.2.3,Win32,60.34638827,17.1795,,,,,,,,,,,,,,,,,,,,,,,,,,,,,,,,,,,,,,,,,,,,,,,,,,,,,,,,,,,,,,,,,,,,,,,,
,,,,,,,,,,,,,,,,,200254,21,2022-01-28_17h40.24.468,lexical_decision_task_DD_L6,2021.2.3,Win32,60.34638827,,z,1,1.463,,,,,,,,1.463,1,0,0,0,13,1,1001,ROUPET,z,,,,,,,,,,,,,,,,,,,,,,,,,,,,,,,,,,,,,,,,,,,,,,,,,,,,
,,,,,,,,,,,,,,,,,200254,21,2022-01-28_17h40.24.468,lexical_decision_task_DD_L6,2021.2.3,Win32,60.34638827,,z,1,1.2076,,,,,,,,1.2076,1,0,1,1,14,1,1001,THRALE,z,,,,,,,,,,,,,,,,,,,,,,,,,,,,,,,,,,,,,,,,,,,,,,,,,,,,
,,,,,,,,,,,,,,,,,200254,21,2022-01-28_17h40.24.468,lexical_decision_task_DD_L6,2021.2.3,Win32,60.34638827,,m,1,0.7621,,,,,,,,0.7621,1,0,2,2,4,1,1001,SQUEAK,m,,,,,,,,,,,,,,,,,,,,,,,,,,,,,,,,,,,,,,,,,,,,,,,,,,,,
,,,,,,,,,,,,,,,,,200254,21,2022-01-28_17h40.24.468,lexical_decision_task_DD_L6,2021.2.3,Win32,60.34638827,,z,1,0.8739,,,,,,,,0.8739,1,0,3,3,11,1,1001,RASHET,z,,,,,,,,,,,,,,,,,,,,,,,,,,,,,,,,,,,,,,,,,,,,,,,,,,,,
,,,,,,,,,,,,,,,,,200254,21,2022-01-28_17h40.24.468,lexical_decision_task_DD_L6,2021.2.3,Win32,60.34638827,,m,1,0.62,,,,,,,,0.62,1,0,4,4,2,1,1001,ALMOND,m,,,,,,,,,,,,,,,,,,,,,,,,,,,,,,,,,,,,,,,,,,,,,,,,,,,,
,,,,,,,,,,,,,,,,,200254,21,2022-01-28_17h40.24.468,lexical_decision_task_DD_L6,2021.2.3,Win32,60.34638827,,z,1,0.7887,,,,,,,,0.7887,1,0,5,5,9,1,1001,FARINY,z,,,,,,,,,,,,,,,,,,,,,,,,,,,,,,,,,,,,,,,,,,,,,,,,,,,,
,,,,,,,,,,,,,,,,,200254,21,2022-01-28_17h40.24.468,lexical_decision_task_DD_L6,2021.2.3,Win32,60.34638827,,z,1,0.8881,,,,,,,,0.8881,1,0,6,6,8,1,1001,ASLERT,z,,,,,,,,,,,,,,,,,,,,,,,,,,,,,,,,,,,,,,,,,,,,,,,,,,,,
,,,,,,,,,,,,,,,,,200254,21,2022-01-28_17h40.24.468,lexical_decision_task_DD_L6,2021.2.3,Win32,60.34638827,,m,1,0.6556,,,,,,,,0.6556,1,0,7,7,1,1,1001,ADJUST,m,,,,,,,,,,,,,,,,,,,,,,,,,,,,,,,,,,,,,,,,,,,,,,,,,,,,
,,,,,,,,,,,,,,,,,200254,21,2022-01-28_17h40.24.468,lexical_decision_task_DD_L6,2021.2.3,Win32,60.34638827,,z,1,0.7782,,,,,,,,0.7782,1,0,8,8,15,1,1001,WHAISE,z,,,,,,,,,,,,,,,,,,,,,,,,,,,,,,,,,,,,,,,,,,,,,,,,,,,,
,,,,,,,,,,,,,,,,,200254,21,2022-01-28_17h40.24.468,lexical_decision_task_DD_L6,2021.2.3,Win32,60.34638827,,m,1,1.1558,,,,,,,,1.1558,1,0,9,9,5,1,1001,OBTAIN,m,,,,,,,,,,,,,,,,,,,,,,,,,,,,,,,,,,,,,,,,,,,,,,,,,,,,
,,,,,,,,,,,,,,,,,200254,21,2022-01-28_17h40.24.468,lexical_decision_task_DD_L6,2021.2.3,Win32,60.34638827,,z,1,0.9034,,,,,,,,0.9034,1,0,10,10,12,1,1001,SPRINY,z,,,,,,,,,,,,,,,,,,,,,,,,,,,,,,,,,,,,,,,,,,,,,,,,,,,,
,,,,,,,,,,,,,,,,,200254,21,2022-01-28_17h40.24.468,lexical_decision_task_DD_L6,2021.2.3,Win32,60.34638827,,m,1,0.6009,,,,,,,,0.6009,1,0,11,11,3,1,1001,MATRIX,m,,,,,,,,,,,,,,,,,,,,,,,,,,,,,,,,,,,,,,,,,,,,,,,,,,,,
,,,,,,,,,,,,,,,,,200254,21,2022-01-28_17h40.24.468,lexical_decision_task_DD_L6,2021.2.3,Win32,60.34638827,,m,1,0.698,,,,,,,,0.698,1,0,12,12,0,1,1001,UTOPIA,m,,,,,,,,,,,,,,,,,,,,,,,,,,,,,,,,,,,,,,,,,,,,,,,,,,,,
,,,,,,,,,,,,,,,,,200254,21,2022-01-28_17h40.24.468,lexical_decision_task_DD_L6,2021.2.3,Win32,60.34638827,,z,1,0.7879,,,,,,,,0.7879,1,0,13,13,10,1,1001,INLADE,z,,,,,,,,,,,,,,,,,,,,,,,,,,,,,,,,,,,,,,,,,,,,,,,,,,,,
,,,,,,,,,,,,,,,,,200254,21,2022-01-28_17h40.24.468,lexical_decision_task_DD_L6,2021.2.3,Win32,60.34638827,,m,1,0.61,,,,,,,,0.61,1,0,14,14,6,1,1001,ZOMBIE,m,,,,,,,,,,,,,,,,,,,,,,,,,,,,,,,,,,,,,,,,,,,,,,,,,,,,
,,,,,,,,,,,,,,,,,200254,21,2022-01-28_17h40.24.468,lexical_decision_task_DD_L6,2021.2.3,Win32,60.34638827,,m,1,0.6703,,,,,,,,0.6703,1,0,15,15,7,1,1001,VOLUME,m,,,,,,,,,,,,,,,,,,,,,,,,,,,,,,,,,,,,,,,,,,,,,,,,,,,,
space,0.064814829,-0.371296309,0,0,0,,,,,,,1,end_of_practice,"You have completed the practice trials. During the experimental trials, you will not receive feedback. 
Before you begin, please ensure that you are in a comfortable and quiet location and will not be disturbed for about 15 minutes, as we cannot use your data if you do not complete all the trials. 
 When you are ready to start the experimental trials, please press space or touch the button below.",,,200254,21,2022-01-28_17h40.24.468,lexical_decision_task_DD_L6,2021.2.3,Win32,60.34638827,13.8507,,,,,,,,,,,,,,,,,,,,,0,0,0,0,1,,,,,,,,,,,,,,,,,,,,,,,,,,,,,,,,,,,,,,,,,,,,,,,
,,,,,,,,,,,,,,,,,200254,21,2022-01-28_17h40.24.468,lexical_decision_task_DD_L6,2021.2.3,Win32,60.34638827,,,,,,,,,,,,0.7522,1,,,,,,,,,,,,,,z,1,0.7522,,,,,,,,0.064814829,-0.371296309,0,0,0,,0,0,0,89,1,DRIEK,LB,old,z,./images/DRIEKLB.png,,,,,,,,,,,,,,,,,,,,,
,,,,,,,,,,,,,,,,,200254,21,2022-01-28_17h40.24.468,lexical_decision_task_DD_L6,2021.2.3,Win32,60.34638827,,,,,,,,,,,,0.7462,1,,,,,,,,,,,,,,m,1,0.7462,,,,,,,,0.064814829,-0.371296309,0,0,0,,0,1,1,80,1,PLANET,HB,old,m,./images/PLANETHB.png,,,,,,,,,,,,,,,,,,,,,
,,,,,,,,,,,,,,,,,200254,21,2022-01-28_17h40.24.468,lexical_decision_task_DD_L6,2021.2.3,Win32,60.34638827,,,,,,,,,,,,0.6144,1,,,,,,,,,,,,,,m,1,0.6144,,,,,,,,0.064814829,-0.371296309,0,0,0,,0,2,2,54,1,CHERRY,LB,old,m,./images/CHERRYLB.png,,,,,,,,,,,,,,,,,,,,,
,,,,,,,,,,,,,,,,,200254,21,2022-01-28_17h40.24.468,lexical_decision_task_DD_L6,2021.2.3,Win32,60.34638827,,,,,,,,,,,,0.7686,1,,,,,,,,,,,,,,z,1,0.7686,,,,,,,,0.064814829,-0.371296309,0,0,0,,0,3,3,152,1,FRAIN,LB,old,z,./images/FRAINLB.png,,,,,,,,,,,,,,,,,,,,,
,,,,,,,,,,,,,,,,,200254,21,2022-01-28_17h40.24.468,lexical_decision_task_DD_L6,2021.2.3,Win32,60.34638827,,,,,,,,,,,,0.9302,1,,,,,,,,,,,,,,z,1,0.9302,,,,,,,,0.064814829,-0.371296309,0,0,0,,0,4,4,133,1,POWDY,HB,old,z,./images/POWDYHB.png,,,,,,,,,,,,,,,,,,,,,
,,,,,,,,,,,,,,,,,200254,21,2022-01-28_17h40.24.468,lexical_decision_task_DD_L6,2021.2.3,Win32,60.34638827,,,,,,,,,,,,0.9121,1,,,,,,,,,,,,,,z,1,0.9121,,,,,,,,0.064814829,-0.371296309,0,0,0,,0,5,5,102,1,DULLE,C,old,z,./images/DULLE.png,,,,,,,,,,,,,,,,,,,,,
,,,,,,,,,,,,,,,,,200254,21,2022-01-28_17h40.24.468,lexical_decision_task_DD_L6,2021.2.3,Win32,60.34638827,,,,,,,,,,,,0.765,1,,,,,,,,,,,,,,z,1,0.765,,,,,,,,0.064814829,-0.371296309,0,0,0,,0,6,6,160,1,VEETS,HB,old,z,./images/VEETSHB.png,,,,,,,,,,,,,,,,,,,,,
,,,,,,,,,,,,,,,,,200254,21,2022-01-28_17h40.24.468,lexical_decision_task_DD_L6,2021.2.3,Win32,60.34638827,,,,,,,,,,,,0.5243,1,,,,,,,,,,,,,,m,1,0.5243,,,,,,,,0.064814829,-0.371296309,0,0,0,,0,7,7,10,1,GARDEN,C,old,m,./images/GARDEN.png,,,,,,,,,,,,,,,,,,,,,
,,,,,,,,,,,,,,,,,200254,21,2022-01-28_17h40.24.468,lexical_decision_task_DD_L6,2021.2.3,Win32,60.34638827,,,,,,,,,,,,0.611,1,,,,,,,,,,,,,,m,1,0.611,,,,,,,,0.064814829,-0.371296309,0,0,0,,0,8,8,68,1,VALLEY,HB,old,m,./images/VALLEYHB.png,,,,,,,,,,,,,,,,,,,,,
,,,,,,,,,,,,,,,,,200254,21,2022-01-28_17h40.24.468,lexical_decision_task_DD_L6,2021.2.3,Win32,60.34638827,,,,,,,,,,,,0.53,0,,,,,,,,,,,,,,m,0,0.53,,,,,,,,0.064814829,-0.371296309,0,0,0,,0,9,9,140,1,DOVET,LB,old,z,./images/DOVETLB.png,,,,,,,,,,,,,,,,,,,,,
,,,,,,,,,,,,,,,,,200254,21,2022-01-28_17h40.24.468,lexical_decision_task_DD_L6,2021.2.3,Win32,60.34638827,,,,,,,,,,,,0.8214,1,,,,,,,,,,,,,,z,1,0.8214,,,,,,,,0.064814829,-0.371296309,0,0,0,,0,10,10,118,1,BAVEL,HB,old,z,./images/BAVELHB.png,,,,,,,,,,,,,,,,,,,,,
,,,,,,,,,,,,,,,,,200254,21,2022-01-28_17h40.24.468,lexical_decision_task_DD_L6,2021.2.3,Win32,60.34638827,,,,,,,,,,,,0.6083,1,,,,,,,,,,,,,,m,1,0.6083,,,,,,,,0.064814829,-0.371296309,0,0,0,,0,11,11,43,1,STOOL,C,old,m,./images/STOOL.png,,,,,,,,,,,,,,,,,,,,,
,,,,,,,,,,,,,,,,,200254,21,2022-01-28_17h40.24.468,lexical_decision_task_DD_L6,2021.2.3,Win32,60.34638827,,,,,,,,,,,,0.5566,1,,,,,,,,,,,,,,m,1,0.5566,,,,,,,,0.064814829,-0.371296309,0,0,0,,0,12,12,75,1,HAMMER,LB,old,m,./images/HAMMERLB.png,,,,,,,,,,,,,,,,,,,,,
,,,,,,,,,,,,,,,,,200254,21,2022-01-28_17h40.24.468,lexical_decision_task_DD_L6,2021.2.3,Win32,60.34638827,,,,,,,,,,,,0.7731,1,,,,,,,,,,,,,,m,1,0.7731,,,,,,,,0.064814829,-0.371296309,0,0,0,,0,13,13,20,1,GRANNY,HB,old,m,./images/GRANNYHB.png,,,,,,,,,,,,,,,,,,,,,
,,,,,,,,,,,,,,,,,200254,21,2022-01-28_17h40.24.468,lexical_decision_task_DD_L6,2021.2.3,Win32,60.34638827,,,,,,,,,,,,0.6244,1,,,,,,,,,,,,,,z,1,0.6244,,,,,,,,0.064814829,-0.371296309,0,0,0,,0,14,14,119,1,PAFER,LB,old,z,./images/PAFERLB.png,,,,,,,,,,,,,,,,,,,,,
,,,,,,,,,,,,,,,,,200254,21,2022-01-28_17h40.24.468,lexical_decision_task_DD_L6,2021.2.3,Win32,60.34638827,,,,,,,,,,,,0.6924,1,,,,,,,,,,,,,,m,1,0.6924,,,,,,,,0.064814829,-0.371296309,0,0,0,,0,15,15,18,1,PARCEL,LB,old,m,./images/PARCELLB.png,,,,,,,,,,,,,,,,,,,,,
,,,,,,,,,,,,,,,,,200254,21,2022-01-28_17h40.24.468,lexical_decision_task_DD_L6,2021.2.3,Win32,60.34638827,,,,,,,,,,,,0.7318,1,,,,,,,,,,,,,,m,1,0.7318,,,,,,,,0.064814829,-0.371296309,0,0,0,,0,16,16,56,1,HEATER,HB,old,m,./images/HEATERHB.png,,,,,,,,,,,,,,,,,,,,,
,,,,,,,,,,,,,,,,,200254,21,2022-01-28_17h40.24.468,lexical_decision_task_DD_L6,2021.2.3,Win32,60.34638827,,,,,,,,,,,,0.5881,1,,,,,,,,,,,,,,m,1,0.5881,,,,,,,,0.064814829,-0.371296309,0,0,0,,0,17,17,55,1,ALLEY,C,old,m,./images/ALLEY.png,,,,,,,,,,,,,,,,,,,,,
,,,,,,,,,,,,,,,,,200254,21,2022-01-28_17h40.24.468,lexical_decision_task_DD_L6,2021.2.3,Win32,60.34638827,,,,,,,,,,,,0.4562,1,,,,,,,,,,,,,,m,1,0.4562,,,,,,,,0.064814829,-0.371296309,0,0,0,,0,18,18,48,1,SHIELD,LB,old,m,./images/SHIELDLB.png,,,,,,,,,,,,,,,,,,,,,
,,,,,,,,,,,,,,,,,200254,21,2022-01-28_17h40.24.468,lexical_decision_task_DD_L6,2021.2.3,Win32,60.34638827,,,,,,,,,,,,0.7246,1,,,,,,,,,,,,,,z,1,0.7246,,,,,,,,0.064814829,-0.371296309,0,0,0,,0,19,19,145,1,LAMEL,HB,old,z,./images/LAMELHB.png,,,,,,,,,,,,,,,,,,,,,
,,,,,,,,,,,,,,,,,200254,21,2022-01-28_17h40.24.468,lexical_decision_task_DD_L6,2021.2.3,Win32,60.34638827,,,,,,,,,,,,0.6865,1,,,,,,,,,,,,,,m,1,0.6865,,,,,,,,0.064814829,-0.371296309,0,0,0,,0,20,20,8,1,CLIFF,HB,old,m,./images/CLIFFHB.png,,,,,,,,,,,,,,,,,,,,,
,,,,,,,,,,,,,,,,,200254,21,2022-01-28_17h40.24.468,lexical_decision_task_DD_L6,2021.2.3,Win32,60.34638827,,,,,,,,,,,,0.5378,1,,,,,,,,,,,,,,m,1,0.5378,,,,,,,,0.064814829,-0.371296309,0,0,0,,0,21,21,13,1,BUNNY,C,old,m,./images/BUNNY.png,,,,,,,,,,,,,,,,,,,,,
,,,,,,,,,,,,,,,,,200254,21,2022-01-28_17h40.24.468,lexical_decision_task_DD_L6,2021.2.3,Win32,60.34638827,,,,,,,,,,,,0.5293,1,,,,,,,,,,,,,,m,1,0.5293,,,,,,,,0.064814829,-0.371296309,0,0,0,,0,22,22,16,1,GRAPE,C,old,m,./images/GRAPE.png,,,,,,,,,,,,,,,,,,,,,
,,,,,,,,,,,,,,,,,200254,21,2022-01-28_17h40.24.468,lexical_decision_task_DD_L6,2021.2.3,Win32,60.34638827,,,,,,,,,,,,0.6917,1,,,,,,,,,,,,,,z,1,0.6917,,,,,,,,0.064814829,-0.371296309,0,0,0,,0,23,23,103,1,FLORT,HB,old,z,./images/FLORTHB.png,,,,,,,,,,,,,,,,,,,,,
,,,,,,,,,,,,,,,,,200254,21,2022-01-28_17h40.24.468,lexical_decision_task_DD_L6,2021.2.3,Win32,60.34638827,,,,,,,,,,,,0.7895,1,,,,,,,,,,,,,,z,1,0.7895,,,,,,,,0.064814829,-0.371296309,0,0,0,,0,24,24,104,1,GITTY,LB,old,z,./images/GITTYLB.png,,,,,,,,,,,,,,,,,,,,,
,,,,,,,,,,,,,,,,,200254,21,2022-01-28_17h40.24.468,lexical_decision_task_DD_L6,2021.2.3,Win32,60.34638827,,,,,,,,,,,,1.0255,1,,,,,,,,,,,,,,m,1,1.0255,,,,,,,,0.064814829,-0.371296309,0,0,0,,0,25,25,44,1,BASKET,HB,old,m,./images/BASKETHB.png,,,,,,,,,,,,,,,,,,,,,
,,,,,,,,,,,,,,,,,200254,21,2022-01-28_17h40.24.468,lexical_decision_task_DD_L6,2021.2.3,Win32,60.34638827,,,,,,,,,,,,0.9364,1,,,,,,,,,,,,,,m,1,0.9364,,,,,,,,0.064814829,-0.371296309,0,0,0,,0,26,26,38,1,ENGINE,HB,old,m,./images/ENGINEHB.png,,,,,,,,,,,,,,,,,,,,,
,,,,,,,,,,,,,,,,,200254,21,2022-01-28_17h40.24.468,lexical_decision_task_DD_L6,2021.2.3,Win32,60.34638827,,,,,,,,,,,,0.6074,1,,,,,,,,,,,,,,m,1,0.6074,,,,,,,,0.064814829,-0.371296309,0,0,0,,0,27,27,19,1,DONKEY,C,old,m,./images/DONKEY.png,,,,,,,,,,,,,,,,,,,,,
,,,,,,,,,,,,,,,,,200254,21,2022-01-28_17h40.24.468,lexical_decision_task_DD_L6,2021.2.3,Win32,60.34638827,,,,,,,,,,,,0.7045,1,,,,,,,,,,,,,,m,1,0.7045,,,,,,,,0.064814829,-0.371296309,0,0,0,,0,28,28,23,1,CLOTH,HB,old,m,./images/CLOTHHB.png,,,,,,,,,,,,,,,,,,,,,
,,,,,,,,,,,,,,,,,200254,21,2022-01-28_17h40.24.468,lexical_decision_task_DD_L6,2021.2.3,Win32,60.34638827,,,,,,,,,,,,0.7809,1,,,,,,,,,,,,,,z,1,0.7809,,,,,,,,0.064814829,-0.371296309,0,0,0,,0,29,29,124,1,TUNCH,HB,old,z,./images/TUNCHHB.png,,,,,,,,,,,,,,,,,,,,,
,,,,,,,,,,,,,,,,,200254,21,2022-01-28_17h40.24.468,lexical_decision_task_DD_L6,2021.2.3,Win32,60.34638827,,,,,,,,,,,,1.1277,1,,,,,,,,,,,,,,z,1,1.1277,,,,,,,,0.064814829,-0.371296309,0,0,0,,0,30,30,166,1,SHORY,HB,old,z,./images/SHORYHB.png,,,,,,,,,,,,,,,,,,,,,
,,,,,,,,,,,,,,,,,200254,21,2022-01-28_17h40.24.468,lexical_decision_task_DD_L6,2021.2.3,Win32,60.34638827,,,,,,,,,,,,2.4319,1,,,,,,,,,,,,,,z,1,2.4319,,,,,,,,0.064814829,-0.371296309,0,0,0,,0,31,31,115,1,MAWNS,HB,old,z,./images/MAWNSHB.png,,,,,,,,,,,,,,,,,,,,,
,,,,,,,,,,,,,,,,,200254,21,2022-01-28_17h40.24.468,lexical_decision_task_DD_L6,2021.2.3,Win32,60.34638827,,,,,,,,,,,,0.8402,1,,,,,,,,,,,,,,z,1,0.8402,,,,,,,,0.064814829,-0.371296309,0,0,0,,0,32,32,136,1,WERVE,HB,old,z,./images/WERVEHB.png,,,,,,,,,,,,,,,,,,,,,
,,,,,,,,,,,,,,,,,200254,21,2022-01-28_17h40.24.468,lexical_decision_task_DD_L6,2021.2.3,Win32,60.34638827,,,,,,,,,,,,0.8767,1,,,,,,,,,,,,,,m,1,0.8767,,,,,,,,0.064814829,-0.371296309,0,0,0,,0,33,33,74,1,JUMPER,HB,old,m,./images/JUMPERHB.png,,,,,,,,,,,,,,,,,,,,,
,,,,,,,,,,,,,,,,,200254,21,2022-01-28_17h40.24.468,lexical_decision_task_DD_L6,2021.2.3,Win32,60.34638827,,,,,,,,,,,,0.7488,1,,,,,,,,,,,,,,z,1,0.7488,,,,,,,,0.064814829,-0.371296309,0,0,0,,0,34,34,101,1,GLEET,LB,old,z,./images/GLEETLB.png,,,,,,,,,,,,,,,,,,,,,
,,,,,,,,,,,,,,,,,200254,21,2022-01-28_17h40.24.468,lexical_decision_task_DD_L6,2021.2.3,Win32,60.34638827,,,,,,,,,,,,0.8071,1,,,,,,,,,,,,,,m,1,0.8071,,,,,,,,0.064814829,-0.371296309,0,0,0,,0,35,35,50,1,PILOT,HB,old,m,./images/PILOTHB.png,,,,,,,,,,,,,,,,,,,,,
,,,,,,,,,,,,,,,,,200254,21,2022-01-28_17h40.24.468,lexical_decision_task_DD_L6,2021.2.3,Win32,60.34638827,,,,,,,,,,,,0.7083,1,,,,,,,,,,,,,,z,1,0.7083,,,,,,,,0.064814829,-0.371296309,0,0,0,,0,36,36,86,1,AIFED,LB,old,z,./images/AIFEDLB.png,,,,,,,,,,,,,,,,,,,,,
,,,,,,,,,,,,,,,,,200254,21,2022-01-28_17h40.24.468,lexical_decision_task_DD_L6,2021.2.3,Win32,60.34638827,,,,,,,,,,,,0.8872,1,,,,,,,,,,,,,,z,1,0.8872,,,,,,,,0.064814829,-0.371296309,0,0,0,,0,37,37,92,1,PAIMS,LB,old,z,./images/PAIMSLB.png,,,,,,,,,,,,,,,,,,,,,
,,,,,,,,,,,,,,,,,200254,21,2022-01-28_17h40.24.468,lexical_decision_task_DD_L6,2021.2.3,Win32,60.34638827,,,,,,,,,,,,0.608,1,,,,,,,,,,,,,,m,1,0.608,,,,,,,,0.064814829,-0.371296309,0,0,0,,0,38,38,67,1,POKER,C,old,m,./images/POKER.png,,,,,,,,,,,,,,,,,,,,,
,,,,,,,,,,,,,,,,,200254,21,2022-01-28_17h40.24.468,lexical_decision_task_DD_L6,2021.2.3,Win32,60.34638827,,,,,,,,,,,,0.6614,1,,,,,,,,,,,,,,z,1,0.6614,,,,,,,,0.064814829,-0.371296309,0,0,0,,0,39,39,129,1,PRANS,C,old,z,./images/PRANS.png,,,,,,,,,,,,,,,,,,,,,
,,,,,,,,,,,,,,,,,200254,21,2022-01-28_17h40.24.468,lexical_decision_task_DD_L6,2021.2.3,Win32,60.34638827,,,,,,,,,,,,0.983,1,,,,,,,,,,,,,,z,1,0.983,,,,,,,,0.064814829,-0.371296309,0,0,0,,0,40,40,156,1,HIXES,C,old,z,./images/HIXES.png,,,,,,,,,,,,,,,,,,,,,
,,,,,,,,,,,,,,,,,200254,21,2022-01-28_17h40.24.468,lexical_decision_task_DD_L6,2021.2.3,Win32,60.34638827,,,,,,,,,,,,0.5862,1,,,,,,,,,,,,,,m,1,0.5862,,,,,,,,0.064814829,-0.371296309,0,0,0,space,0,41,41,52,1,DESERT,C,old,m,./images/DESERT.png,6.7219,,,,,,,,,,,,,,,,,,,,
,,,,,,,,,,,,,,,,,200254,21,2022-01-28_17h40.24.468,lexical_decision_task_DD_L6,2021.2.3,Win32,60.34638827,,,,,,,,,,,,0.7283,1,,,,,,,,,,,,,,z,1,0.7283,,,,,,,,0.064814829,-0.371296309,0,0,0,,0,42,42,148,1,JOMS,HB,old,z,./images/JOMSHB.png,,,,,,,,,,,,,,,,,,,,,
,,,,,,,,,,,,,,,,,200254,21,2022-01-28_17h40.24.468,lexical_decision_task_DD_L6,2021.2.3,Win32,60.34638827,,,,,,,,,,,,0.7602,1,,,,,,,,,,,,,,z,1,0.7602,,,,,,,,0.064814829,-0.371296309,0,0,0,,0,43,43,142,1,PLASK,HB,old,z,./images/PLASKHB.png,,,,,,,,,,,,,,,,,,,,,
,,,,,,,,,,,,,,,,,200254,21,2022-01-28_17h40.24.468,lexical_decision_task_DD_L6,2021.2.3,Win32,60.34638827,,,,,,,,,,,,0.5693,1,,,,,,,,,,,,,,m,1,0.5693,,,,,,,,0.064814829,-0.371296309,0,0,0,,0,44,44,79,1,RULER,C,old,m,./images/RULER.png,,,,,,,,,,,,,,,,,,,,,
,,,,,,,,,,,,,,,,,200254,21,2022-01-28_17h40.24.468,lexical_decision_task_DD_L6,2021.2.3,Win32,60.34638827,,,,,,,,,,,,0.6432,1,,,,,,,,,,,,,,m,1,0.6432,,,,,,,,0.064814829,-0.371296309,0,0,0,,0,45,45,30,1,SLOPE,LB,old,m,./images/SLOPELB.png,,,,,,,,,,,,,,,,,,,,,
,,,,,,,,,,,,,,,,,200254,21,2022-01-28_17h40.24.468,lexical_decision_task_DD_L6,2021.2.3,Win32,60.34638827,,,,,,,,,,,,0.6719,1,,,,,,,,,,,,,,m,1,0.6719,,,,,,,,0.064814829,-0.371296309,0,0,0,,0,46,46,7,1,WAGON,C,old,m,./images/WAGON.png,,,,,,,,,,,,,,,,,,,,,
,,,,,,,,,,,,,,,,,200254,21,2022-01-28_17h40.24.468,lexical_decision_task_DD_L6,2021.2.3,Win32,60.34638827,,,,,,,,,,,,0.6568,1,,,,,,,,,,,,,,z,1,0.6568,,,,,,,,0.064814829,-0.371296309,0,0,0,,0,47,47,114,1,RIKES,C,old,z,./images/RIKES.png,,,,,,,,,,,,,,,,,,,,,
,,,,,,,,,,,,,,,,,200254,21,2022-01-28_17h40.24.468,lexical_decision_task_DD_L6,2021.2.3,Win32,60.34638827,,,,,,,,,,,,0.6763,1,,,,,,,,,,,,,,m,1,0.6763,,,,,,,,0.064814829,-0.371296309,0,0,0,,0,48,48,24,1,FLESH,LB,old,m,./images/FLESHLB.png,,,,,,,,,,,,,,,,,,,,,
,,,,,,,,,,,,,,,,,200254,21,2022-01-28_17h40.24.468,lexical_decision_task_DD_L6,2021.2.3,Win32,60.34638827,,,,,,,,,,,,0.456,1,,,,,,,,,,,,,,m,1,0.456,,,,,,,,0.064814829,-0.371296309,0,0,0,,0,49,49,73,1,GLOVE,C,old,m,./images/GLOVE.png,,,,,,,,,,,,,,,,,,,,,
,,,,,,,,,,,,,,,,,200254,21,2022-01-28_17h40.24.468,lexical_decision_task_DD_L6,2021.2.3,Win32,60.34638827,,,,,,,,,,,,0.6164,1,,,,,,,,,,,,,,z,1,0.6164,,,,,,,,0.064814829,-0.371296309,0,0,0,,0,50,50,150,1,NOOLS,C,old,z,./images/NOOLS.png,,,,,,,,,,,,,,,,,,,,,
,,,,,,,,,,,,,,,,,200254,21,2022-01-28_17h40.24.468,lexical_decision_task_DD_L6,2021.2.3,Win32,60.34638827,,,,,,,,,,,,0.5588,1,,,,,,,,,,,,,,z,1,0.5588,,,,,,,,0.064814829,-0.371296309,0,0,0,,0,51,51,141,1,PLEET,C,old,z,./images/PLEET.png,,,,,,,,,,,,,,,,,,,,,
,,,,,,,,,,,,,,,,,200254,21,2022-01-28_17h40.24.468,lexical_decision_task_DD_L6,2021.2.3,Win32,60.34638827,,,,,,,,,,,,0.725,1,,,,,,,,,,,,,,z,1,0.725,,,,,,,,0.064814829,-0.371296309,0,0,0,,0,52,52,157,1,INLER,HB,old,z,./images/INLERHB.png,,,,,,,,,,,,,,,,,,,,,
,,,,,,,,,,,,,,,,,200254,21,2022-01-28_17h40.24.468,lexical_decision_task_DD_L6,2021.2.3,Win32,60.34638827,,,,,,,,,,,,0.6706,1,,,,,,,,,,,,,,m,1,0.6706,,,,,,,,0.064814829,-0.371296309,0,0,0,,0,53,53,32,1,HOCKEY,HB,old,m,./images/HOCKEYHB.png,,,,,,,,,,,,,,,,,,,,,
,,,,,,,,,,,,,,,,,200254,21,2022-01-28_17h40.24.468,lexical_decision_task_DD_L6,2021.2.3,Win32,60.34638827,,,,,,,,,,,,0.5693,1,,,,,,,,,,,,,,m,1,0.5693,,,,,,,,0.064814829,-0.371296309,0,0,0,,0,54,54,46,1,MUMMY,C,old,m,./images/MUMMY.png,,,,,,,,,,,,,,,,,,,,,
,,,,,,,,,,,,,,,,,200254,21,2022-01-28_17h40.24.468,lexical_decision_task_DD_L6,2021.2.3,Win32,60.34638827,,,,,,,,,,,,0.5374,1,,,,,,,,,,,,,,m,1,0.5374,,,,,,,,0.064814829,-0.371296309,0,0,0,,0,55,55,0,1,WALNUT,LB,old,m,./images/WALNUTLB.png,,,,,,,,,,,,,,,,,,,,,
,,,,,,,,,,,,,,,,,200254,21,2022-01-28_17h40.24.468,lexical_decision_task_DD_L6,2021.2.3,Win32,60.34638827,,,,,,,,,,,,0.6549,1,,,,,,,,,,,,,,z,1,0.6549,,,,,,,,0.064814829,-0.371296309,0,0,0,,0,56,56,93,1,SMONE,C,old,z,./images/SMONE.png,,,,,,,,,,,,,,,,,,,,,
,,,,,,,,,,,,,,,,,200254,21,2022-01-28_17h40.24.468,lexical_decision_task_DD_L6,2021.2.3,Win32,60.34638827,,,,,,,,,,,,0.4776,1,,,,,,,,,,,,,,m,1,0.4776,,,,,,,,0.064814829,-0.371296309,0,0,0,,0,57,57,42,1,CHAIN,LB,old,m,./images/CHAINLB.png,,,,,,,,,,,,,,,,,,,,,
,,,,,,,,,,,,,,,,,200254,21,2022-01-28_17h40.24.468,lexical_decision_task_DD_L6,2021.2.3,Win32,60.34638827,,,,,,,,,,,,0.5783,1,,,,,,,,,,,,,,z,1,0.5783,,,,,,,,0.064814829,-0.371296309,0,0,0,,0,58,58,125,1,MOOKY,LB,old,z,./images/MOOKYLB.png,,,,,,,,,,,,,,,,,,,,,
,,,,,,,,,,,,,,,,,200254,21,2022-01-28_17h40.24.468,lexical_decision_task_DD_L6,2021.2.3,Win32,60.34638827,,,,,,,,,,,,0.4929,1,,,,,,,,,,,,,,m,1,0.4929,,,,,,,,0.064814829,-0.371296309,0,0,0,,0,59,59,21,1,DANCER,LB,old,m,./images/DANCERLB.png,,,,,,,,,,,,,,,,,,,,,
,,,,,,,,,,,,,,,,,200254,21,2022-01-28_17h40.24.468,lexical_decision_task_DD_L6,2021.2.3,Win32,60.34638827,,,,,,,,,,,,0.5107,1,,,,,,,,,,,,,,m,1,0.5107,,,,,,,,0.064814829,-0.371296309,0,0,0,,0,60,60,27,1,BUTTER,LB,old,m,./images/BUTTERLB.png,,,,,,,,,,,,,,,,,,,,,
,,,,,,,,,,,,,,,,,200254,21,2022-01-28_17h40.24.468,lexical_decision_task_DD_L6,2021.2.3,Win32,60.34638827,,,,,,,,,,,,0.5718,1,,,,,,,,,,,,,,m,1,0.5718,,,,,,,,0.064814829,-0.371296309,0,0,0,,0,61,61,63,1,BAKER,LB,old,m,./images/BAKERLB.png,,,,,,,,,,,,,,,,,,,,,
,,,,,,,,,,,,,,,,,200254,21,2022-01-28_17h40.24.468,lexical_decision_task_DD_L6,2021.2.3,Win32,60.34638827,,,,,,,,,,,,0.5384,0,,,,,,,,,,,,,,z,0,0.5384,,,,,,,,0.064814829,-0.371296309,0,0,0,,0,62,62,33,1,SAUNA,LB,old,m,./images/SAUNALB.png,,,,,,,,,,,,,,,,,,,,,
,,,,,,,,,,,,,,,,,200254,21,2022-01-28_17h40.24.468,lexical_decision_task_DD_L6,2021.2.3,Win32,60.34638827,,,,,,,,,,,,0.502,1,,,,,,,,,,,,,,m,1,0.502,,,,,,,,0.064814829,-0.371296309,0,0,0,,0,63,63,45,1,MONKEY,LB,old,m,./images/MONKEYLB.png,,,,,,,,,,,,,,,,,,,,,
,,,,,,,,,,,,,,,,,200254,21,2022-01-28_17h40.24.468,lexical_decision_task_DD_L6,2021.2.3,Win32,60.34638827,,,,,,,,,,,,0.6422,1,,,,,,,,,,,,,,z,1,0.6422,,,,,,,,0.064814829,-0.371296309,0,0,0,,0,64,64,98,1,BAMPS,LB,old,z,./images/BAMPSLB.png,,,,,,,,,,,,,,,,,,,,,
,,,,,,,,,,,,,,,,,200254,21,2022-01-28_17h40.24.468,lexical_decision_task_DD_L6,2021.2.3,Win32,60.34638827,,,,,,,,,,,,1.6811,1,,,,,,,,,,,,,,z,1,1.6811,,,,,,,,0.064814829,-0.371296309,0,0,0,,0,65,65,120,1,RINED,C,old,z,./images/RINED.png,,,,,,,,,,,,,,,,,,,,,
,,,,,,,,,,,,,,,,,200254,21,2022-01-28_17h40.24.468,lexical_decision_task_DD_L6,2021.2.3,Win32,60.34638827,,,,,,,,,,,,0.712,1,,,,,,,,,,,,,,z,1,0.712,,,,,,,,0.064814829,-0.371296309,0,0,0,,0,66,66,91,1,SHENS,HB,old,z,./images/SHENSHB.png,,,,,,,,,,,,,,,,,,,,,
,,,,,,,,,,,,,,,,,200254,21,2022-01-28_17h40.24.468,lexical_decision_task_DD_L6,2021.2.3,Win32,60.34638827,,,,,,,,,,,,0.5975,1,,,,,,,,,,,,,,m,1,0.5975,,,,,,,,0.064814829,-0.371296309,0,0,0,,0,67,67,66,1,STATUE,LB,old,m,./images/STATUELB.png,,,,,,,,,,,,,,,,,,,,,
,,,,,,,,,,,,,,,,,200254,21,2022-01-28_17h40.24.468,lexical_decision_task_DD_L6,2021.2.3,Win32,60.34638827,,,,,,,,,,,,0.5776,1,,,,,,,,,,,,,,z,1,0.5776,,,,,,,,0.064814829,-0.371296309,0,0,0,,0,68,68,135,1,JOODY,C,old,z,./images/JOODY.png,,,,,,,,,,,,,,,,,,,,,
,,,,,,,,,,,,,,,,,200254,21,2022-01-28_17h40.24.468,lexical_decision_task_DD_L6,2021.2.3,Win32,60.34638827,,,,,,,,,,,,0.5258,1,,,,,,,,,,,,,,z,1,0.5258,,,,,,,,0.064814829,-0.371296309,0,0,0,,0,69,69,117,1,STEEG,C,old,z,./images/STEEG.png,,,,,,,,,,,,,,,,,,,,,
,,,,,,,,,,,,,,,,,200254,21,2022-01-28_17h40.24.468,lexical_decision_task_DD_L6,2021.2.3,Win32,60.34638827,,,,,,,,,,,,0.5573,1,,,,,,,,,,,,,,z,1,0.5573,,,,,,,,0.064814829,-0.371296309,0,0,0,,0,70,70,126,1,GUELS,C,old,z,./images/GUELS.png,,,,,,,,,,,,,,,,,,,,,
,,,,,,,,,,,,,,,,,200254,21,2022-01-28_17h40.24.468,lexical_decision_task_DD_L6,2021.2.3,Win32,60.34638827,,,,,,,,,,,,0.5889,1,,,,,,,,,,,,,,z,1,0.5889,,,,,,,,0.064814829,-0.371296309,0,0,0,,0,71,71,155,1,CANGY,LB,old,z,./images/CANGYLB.png,,,,,,,,,,,,,,,,,,,,,
,,,,,,,,,,,,,,,,,200254,21,2022-01-28_17h40.24.468,lexical_decision_task_DD_L6,2021.2.3,Win32,60.34638827,,,,,,,,,,,,0.5555,1,,,,,,,,,,,,,,m,1,0.5555,,,,,,,,0.064814829,-0.371296309,0,0,0,,0,72,72,39,1,CANDY,LB,old,m,./images/CANDYLB.png,,,,,,,,,,,,,,,,,,,,,
,,,,,,,,,,,,,,,,,200254,21,2022-01-28_17h40.24.468,lexical_decision_task_DD_L6,2021.2.3,Win32,60.34638827,,,,,,,,,,,,0.6266,1,,,,,,,,,,,,,,m,1,0.6266,,,,,,,,0.064814829,-0.371296309,0,0,0,,0,73,73,77,1,WHEEL,HB,old,m,./images/WHEELHB.png,,,,,,,,,,,,,,,,,,,,,
,,,,,,,,,,,,,,,,,200254,21,2022-01-28_17h40.24.468,lexical_decision_task_DD_L6,2021.2.3,Win32,60.34638827,,,,,,,,,,,,0.4936,1,,,,,,,,,,,,,,m,1,0.4936,,,,,,,,0.064814829,-0.371296309,0,0,0,,0,74,74,70,1,BANANA,C,old,m,./images/BANANA.png,,,,,,,,,,,,,,,,,,,,,
,,,,,,,,,,,,,,,,,200254,21,2022-01-28_17h40.24.468,lexical_decision_task_DD_L6,2021.2.3,Win32,60.34638827,,,,,,,,,,,,0.5332,1,,,,,,,,,,,,,,z,1,0.5332,,,,,,,,0.064814829,-0.371296309,0,0,0,,0,75,75,107,1,FASKS,LB,old,z,./images/FASKSLB.png,,,,,,,,,,,,,,,,,,,,,
,,,,,,,,,,,,,,,,,200254,21,2022-01-28_17h40.24.468,lexical_decision_task_DD_L6,2021.2.3,Win32,60.34638827,,,,,,,,,,,,0.6426,1,,,,,,,,,,,,,,z,1,0.6426,,,,,,,,0.064814829,-0.371296309,0,0,0,,0,76,76,94,1,BLANS,HB,old,z,./images/BLANSHB.png,,,,,,,,,,,,,,,,,,,,,
,,,,,,,,,,,,,,,,,200254,21,2022-01-28_17h40.24.468,lexical_decision_task_DD_L6,2021.2.3,Win32,60.34638827,,,,,,,,,,,,0.5333,1,,,,,,,,,,,,,,z,1,0.5333,,,,,,,,0.064814829,-0.371296309,0,0,0,,0,77,77,167,1,ZONET,LB,old,z,./images/ZONETLB.png,,,,,,,,,,,,,,,,,,,,,
,,,,,,,,,,,,,,,,,200254,21,2022-01-28_17h40.24.468,lexical_decision_task_DD_L6,2021.2.3,Win32,60.34638827,,,,,,,,,,,,0.594,1,,,,,,,,,,,,,,m,1,0.594,,,,,,,,0.064814829,-0.371296309,0,0,0,,0,78,78,2,1,STOVE,HB,old,m,./images/STOVEHB.png,,,,,,,,,,,,,,,,,,,,,
,,,,,,,,,,,,,,,,,200254,21,2022-01-28_17h40.24.468,lexical_decision_task_DD_L6,2021.2.3,Win32,60.34638827,,,,,,,,,,,,0.6495,1,,,,,,,,,,,,,,m,1,0.6495,,,,,,,,0.064814829,-0.371296309,0,0,0,,0,79,79,58,1,CANOE,C,old,m,./images/CANOE.png,,,,,,,,,,,,,,,,,,,,,
,,,,,,,,,,,,,,,,,200254,21,2022-01-28_17h40.24.468,lexical_decision_task_DD_L6,2021.2.3,Win32,60.34638827,,,,,,,,,,,,0.6325,1,,,,,,,,,,,,,,z,1,0.6325,,,,,,,,0.064814829,-0.371296309,0,0,0,,0,80,80,84,1,HAXES,C,old,z,./images/HAXES.png,,,,,,,,,,,,,,,,,,,,,
,,,,,,,,,,,,,,,,,200254,21,2022-01-28_17h40.24.468,lexical_decision_task_DD_L6,2021.2.3,Win32,60.34638827,,,,,,,,,,,,0.5294,1,,,,,,,,,,,,,,m,1,0.5294,,,,,,,,0.064814829,-0.371296309,0,0,0,,0,81,81,81,1,DRILL,LB,old,m,./images/DRILLLB.png,,,,,,,,,,,,,,,,,,,,,
,,,,,,,,,,,,,,,,,200254,21,2022-01-28_17h40.24.468,lexical_decision_task_DD_L6,2021.2.3,Win32,60.34638827,,,,,,,,,,,,0.7287,1,,,,,,,,,,,,,,m,1,0.7287,,,,,,,,0.064814829,-0.371296309,0,0,0,,0,82,82,35,1,LLAMA,HB,old,m,./images/LLAMAHB.png,,,,,,,,,,,,,,,,,,,,,
,,,,,,,,,,,,,,,,,200254,21,2022-01-28_17h40.24.468,lexical_decision_task_DD_L6,2021.2.3,Win32,60.34638827,,,,,,,,,,,,0.5298,1,,,,,,,,,,,,,,m,1,0.5298,,,,,,,,0.064814829,-0.371296309,0,0,0,space,0,83,83,51,1,SAUCE,LB,old,m,./images/SAUCELB.png,6.2577,,,,,,,,,,,,,,,,,,,,
,,,,,,,,,,,,,,,,,200254,21,2022-01-28_17h40.24.468,lexical_decision_task_DD_L6,2021.2.3,Win32,60.34638827,,,,,,,,,,,,0.637,1,,,,,,,,,,,,,,m,1,0.637,,,,,,,,0.064814829,-0.371296309,0,0,0,,0,84,84,47,1,LAGOON,HB,old,m,./images/LAGOONHB.png,,,,,,,,,,,,,,,,,,,,,
,,,,,,,,,,,,,,,,,200254,21,2022-01-28_17h40.24.468,lexical_decision_task_DD_L6,2021.2.3,Win32,60.34638827,,,,,,,,,,,,0.8069,1,,,,,,,,,,,,,,z,1,0.8069,,,,,,,,0.064814829,-0.371296309,0,0,0,,0,85,85,130,1,CRILL,HB,old,z,./images/CRILLHB.png,,,,,,,,,,,,,,,,,,,,,
,,,,,,,,,,,,,,,,,200254,21,2022-01-28_17h40.24.468,lexical_decision_task_DD_L6,2021.2.3,Win32,60.34638827,,,,,,,,,,,,0.8397,1,,,,,,,,,,,,,,m,1,0.8397,,,,,,,,0.064814829,-0.371296309,0,0,0,,0,86,86,12,1,BLOKE,LB,old,m,./images/BLOKELB.png,,,,,,,,,,,,,,,,,,,,,
,,,,,,,,,,,,,,,,,200254,21,2022-01-28_17h40.24.468,lexical_decision_task_DD_L6,2021.2.3,Win32,60.34638827,,,,,,,,,,,,0.5677,1,,,,,,,,,,,,,,m,1,0.5677,,,,,,,,0.064814829,-0.371296309,0,0,0,,0,87,87,3,1,CRATER,LB,old,m,./images/CRATERLB.png,,,,,,,,,,,,,,,,,,,,,
,,,,,,,,,,,,,,,,,200254,21,2022-01-28_17h40.24.468,lexical_decision_task_DD_L6,2021.2.3,Win32,60.34638827,,,,,,,,,,,,1.0489,1,,,,,,,,,,,,,,z,1,1.0489,,,,,,,,0.064814829,-0.371296309,0,0,0,,0,88,88,85,1,CHULK,HB,old,z,./images/CHULKHB.png,,,,,,,,,,,,,,,,,,,,,
,,,,,,,,,,,,,,,,,200254,21,2022-01-28_17h40.24.468,lexical_decision_task_DD_L6,2021.2.3,Win32,60.34638827,,,,,,,,,,,,0.7385,1,,,,,,,,,,,,,,m,1,0.7385,,,,,,,,0.064814829,-0.371296309,0,0,0,,0,89,89,62,1,MAMMAL,HB,old,m,./images/MAMMALHB.png,,,,,,,,,,,,,,,,,,,,,
,,,,,,,,,,,,,,,,,200254,21,2022-01-28_17h40.24.468,lexical_decision_task_DD_L6,2021.2.3,Win32,60.34638827,,,,,,,,,,,,0.5277,1,,,,,,,,,,,,,,m,1,0.5277,,,,,,,,0.064814829,-0.371296309,0,0,0,,0,90,90,31,1,STEAK,C,old,m,./images/STEAK.png,,,,,,,,,,,,,,,,,,,,,
,,,,,,,,,,,,,,,,,200254,21,2022-01-28_17h40.24.468,lexical_decision_task_DD_L6,2021.2.3,Win32,60.34638827,,,,,,,,,,,,0.7183,1,,,,,,,,,,,,,,m,1,0.7183,,,,,,,,0.064814829,-0.371296309,0,0,0,,0,91,91,11,1,MEDAL,HB,old,m,./images/MEDALHB.png,,,,,,,,,,,,,,,,,,,,,
,,,,,,,,,,,,,,,,,200254,21,2022-01-28_17h40.24.468,lexical_decision_task_DD_L6,2021.2.3,Win32,60.34638827,,,,,,,,,,,,0.9883,1,,,,,,,,,,,,,,z,1,0.9883,,,,,,,,0.064814829,-0.371296309,0,0,0,,0,92,92,151,1,TINKY,HB,old,z,./images/TINKYHB.png,,,,,,,,,,,,,,,,,,,,,
,,,,,,,,,,,,,,,,,200254,21,2022-01-28_17h40.24.468,lexical_decision_task_DD_L6,2021.2.3,Win32,60.34638827,,,,,,,,,,,,0.5233,1,,,,,,,,,,,,,,m,1,0.5233,,,,,,,,0.064814829,-0.371296309,0,0,0,,0,93,93,25,1,CHALK,C,old,m,./images/CHALK.png,,,,,,,,,,,,,,,,,,,,,
,,,,,,,,,,,,,,,,,200254,21,2022-01-28_17h40.24.468,lexical_decision_task_DD_L6,2021.2.3,Win32,60.34638827,,,,,,,,,,,,0.5655,1,,,,,,,,,,,,,,m,1,0.5655,,,,,,,,0.064814829,-0.371296309,0,0,0,,0,94,94,5,1,BAMBOO,HB,old,m,./images/BAMBOOHB.png,,,,,,,,,,,,,,,,,,,,,
,,,,,,,,,,,,,,,,,200254,21,2022-01-28_17h40.24.468,lexical_decision_task_DD_L6,2021.2.3,Win32,60.34638827,,,,,,,,,,,,0.761,1,,,,,,,,,,,,,,z,1,0.761,,,,,,,,0.064814829,-0.371296309,0,0,0,,0,95,95,128,1,GRIFT,LB,old,z,./images/GRIFTLB.png,,,,,,,,,,,,,,,,,,,,,
,,,,,,,,,,,,,,,,,200254,21,2022-01-28_17h40.24.468,lexical_decision_task_DD_L6,2021.2.3,Win32,60.34638827,,,,,,,,,,,,0.8556,1,,,,,,,,,,,,,,m,1,0.8556,,,,,,,,0.064814829,-0.371296309,0,0,0,,0,96,96,9,1,DIVER,LB,old,m,./images/DIVERLB.png,,,,,,,,,,,,,,,,,,,,,
,,,,,,,,,,,,,,,,,200254,21,2022-01-28_17h40.24.468,lexical_decision_task_DD_L6,2021.2.3,Win32,60.34638827,,,,,,,,,,,,0.6756,1,,,,,,,,,,,,,,z,1,0.6756,,,,,,,,0.064814829,-0.371296309,0,0,0,,0,97,97,121,1,CEERS,HB,old,z,./images/CEERSHB.png,,,,,,,,,,,,,,,,,,,,,
,,,,,,,,,,,,,,,,,200254,21,2022-01-28_17h40.24.468,lexical_decision_task_DD_L6,2021.2.3,Win32,60.34638827,,,,,,,,,,,,0.8741,1,,,,,,,,,,,,,,z,1,0.8741,,,,,,,,0.064814829,-0.371296309,0,0,0,,0,98,98,97,1,CHIDS,HB,old,z,./images/CHIDSHB.png,,,,,,,,,,,,,,,,,,,,,
,,,,,,,,,,,,,,,,,200254,21,2022-01-28_17h40.24.468,lexical_decision_task_DD_L6,2021.2.3,Win32,60.34638827,,,,,,,,,,,,0.5774,1,,,,,,,,,,,,,,m,1,0.5774,,,,,,,,0.064814829,-0.371296309,0,0,0,,0,99,99,28,1,CASINO,C,old,m,./images/CASINO.png,,,,,,,,,,,,,,,,,,,,,
,,,,,,,,,,,,,,,,,200254,21,2022-01-28_17h40.24.468,lexical_decision_task_DD_L6,2021.2.3,Win32,60.34638827,,,,,,,,,,,,0.6592,1,,,,,,,,,,,,,,z,1,0.6592,,,,,,,,0.064814829,-0.371296309,0,0,0,,0,100,100,165,1,TROWN,C,old,z,./images/TROWN.png,,,,,,,,,,,,,,,,,,,,,
,,,,,,,,,,,,,,,,,200254,21,2022-01-28_17h40.24.468,lexical_decision_task_DD_L6,2021.2.3,Win32,60.34638827,,,,,,,,,,,,0.581,1,,,,,,,,,,,,,,m,1,0.581,,,,,,,,0.064814829,-0.371296309,0,0,0,,0,101,101,49,1,BISHOP,C,old,m,./images/BISHOP.png,,,,,,,,,,,,,,,,,,,,,
,,,,,,,,,,,,,,,,,200254,21,2022-01-28_17h40.24.468,lexical_decision_task_DD_L6,2021.2.3,Win32,60.34638827,,,,,,,,,,,,0.6827,1,,,,,,,,,,,,,,m,1,0.6827,,,,,,,,0.064814829,-0.371296309,0,0,0,,0,102,102,65,1,SPINE,HB,old,m,./images/SPINEHB.png,,,,,,,,,,,,,,,,,,,,,
,,,,,,,,,,,,,,,,,200254,21,2022-01-28_17h40.24.468,lexical_decision_task_DD_L6,2021.2.3,Win32,60.34638827,,,,,,,,,,,,0.6818,1,,,,,,,,,,,,,,m,1,0.6818,,,,,,,,0.064814829,-0.371296309,0,0,0,,0,103,103,26,1,CLOUD,HB,old,m,./images/CLOUDHB.png,,,,,,,,,,,,,,,,,,,,,
,,,,,,,,,,,,,,,,,200254,21,2022-01-28_17h40.24.468,lexical_decision_task_DD_L6,2021.2.3,Win32,60.34638827,,,,,,,,,,,,0.7338,1,,,,,,,,,,,,,,z,1,0.7338,,,,,,,,0.064814829,-0.371296309,0,0,0,,0,104,104,90,1,NEAST,C,old,z,./images/NEAST.png,,,,,,,,,,,,,,,,,,,,,
,,,,,,,,,,,,,,,,,200254,21,2022-01-28_17h40.24.468,lexical_decision_task_DD_L6,2021.2.3,Win32,60.34638827,,,,,,,,,,,,0.7811,1,,,,,,,,,,,,,,z,1,0.7811,,,,,,,,0.064814829,-0.371296309,0,0,0,,0,105,105,149,1,VEASE,LB,old,z,./images/VEASELB.png,,,,,,,,,,,,,,,,,,,,,
,,,,,,,,,,,,,,,,,200254,21,2022-01-28_17h40.24.468,lexical_decision_task_DD_L6,2021.2.3,Win32,60.34638827,,,,,,,,,,,,0.6242,1,,,,,,,,,,,,,,m,1,0.6242,,,,,,,,0.064814829,-0.371296309,0,0,0,,0,106,106,69,1,ARROW,LB,old,m,./images/ARROWLB.png,,,,,,,,,,,,,,,,,,,,,
,,,,,,,,,,,,,,,,,200254,21,2022-01-28_17h40.24.468,lexical_decision_task_DD_L6,2021.2.3,Win32,60.34638827,,,,,,,,,,,,0.64,1,,,,,,,,,,,,,,m,1,0.64,,,,,,,,0.064814829,-0.371296309,0,0,0,,0,107,107,14,1,FENCE,HB,old,m,./images/FENCEHB.png,,,,,,,,,,,,,,,,,,,,,
,,,,,,,,,,,,,,,,,200254,21,2022-01-28_17h40.24.468,lexical_decision_task_DD_L6,2021.2.3,Win32,60.34638827,,,,,,,,,,,,0.8372,1,,,,,,,,,,,,,,m,1,0.8372,,,,,,,,0.064814829,-0.371296309,0,0,0,,0,108,108,72,1,FLASK,LB,old,m,./images/FLASKLB.png,,,,,,,,,,,,,,,,,,,,,
,,,,,,,,,,,,,,,,,200254,21,2022-01-28_17h40.24.468,lexical_decision_task_DD_L6,2021.2.3,Win32,60.34638827,,,,,,,,,,,,0.6391,1,,,,,,,,,,,,,,z,1,0.6391,,,,,,,,0.064814829,-0.371296309,0,0,0,,0,109,109,95,1,HANTY,LB,old,z,./images/HANTYLB.png,,,,,,,,,,,,,,,,,,,,,
,,,,,,,,,,,,,,,,,200254,21,2022-01-28_17h40.24.468,lexical_decision_task_DD_L6,2021.2.3,Win32,60.34638827,,,,,,,,,,,,0.8174,1,,,,,,,,,,,,,,m,1,0.8174,,,,,,,,0.064814829,-0.371296309,0,0,0,,0,110,110,57,1,FERRY,LB,old,m,./images/FERRYLB.png,,,,,,,,,,,,,,,,,,,,,
,,,,,,,,,,,,,,,,,200254,21,2022-01-28_17h40.24.468,lexical_decision_task_DD_L6,2021.2.3,Win32,60.34638827,,,,,,,,,,,,0.8616,1,,,,,,,,,,,,,,z,1,0.8616,,,,,,,,0.064814829,-0.371296309,0,0,0,,0,111,111,162,1,LEICH,C,old,z,./images/LEICH.png,,,,,,,,,,,,,,,,,,,,,
,,,,,,,,,,,,,,,,,200254,21,2022-01-28_17h40.24.468,lexical_decision_task_DD_L6,2021.2.3,Win32,60.34638827,,,,,,,,,,,,0.9665,1,,,,,,,,,,,,,,z,1,0.9665,,,,,,,,0.064814829,-0.371296309,0,0,0,,0,112,112,112,1,MYING,HB,old,z,./images/MYINGHB.png,,,,,,,,,,,,,,,,,,,,,
,,,,,,,,,,,,,,,,,200254,21,2022-01-28_17h40.24.468,lexical_decision_task_DD_L6,2021.2.3,Win32,60.34638827,,,,,,,,,,,,0.5686,1,,,,,,,,,,,,,,m,1,0.5686,,,,,,,,0.064814829,-0.371296309,0,0,0,,0,113,113,4,1,BOXER,C,old,m,./images/BOXER.png,,,,,,,,,,,,,,,,,,,,,
,,,,,,,,,,,,,,,,,200254,21,2022-01-28_17h40.24.468,lexical_decision_task_DD_L6,2021.2.3,Win32,60.34638827,,,,,,,,,,,,0.7398,1,,,,,,,,,,,,,,z,1,0.7398,,,,,,,,0.064814829,-0.371296309,0,0,0,,0,114,114,105,1,MOKER,C,old,z,./images/MOKER.png,,,,,,,,,,,,,,,,,,,,,
,,,,,,,,,,,,,,,,,200254,21,2022-01-28_17h40.24.468,lexical_decision_task_DD_L6,2021.2.3,Win32,60.34638827,,,,,,,,,,,,0.6017,1,,,,,,,,,,,,,,z,1,0.6017,,,,,,,,0.064814829,-0.371296309,0,0,0,,0,115,115,147,1,ZOLES,C,old,z,./images/ZOLES.png,,,,,,,,,,,,,,,,,,,,,
,,,,,,,,,,,,,,,,,200254,21,2022-01-28_17h40.24.468,lexical_decision_task_DD_L6,2021.2.3,Win32,60.34638827,,,,,,,,,,,,0.491,1,,,,,,,,,,,,,,m,1,0.491,,,,,,,,0.064814829,-0.371296309,0,0,0,,0,116,116,64,1,BRIDE,C,old,m,./images/BRIDE.png,,,,,,,,,,,,,,,,,,,,,
,,,,,,,,,,,,,,,,,200254,21,2022-01-28_17h40.24.468,lexical_decision_task_DD_L6,2021.2.3,Win32,60.34638827,,,,,,,,,,,,0.5382,1,,,,,,,,,,,,,,z,1,0.5382,,,,,,,,0.064814829,-0.371296309,0,0,0,,0,117,117,131,1,NACES,LB,old,z,./images/NACESLB.png,,,,,,,,,,,,,,,,,,,,,
,,,,,,,,,,,,,,,,,200254,21,2022-01-28_17h40.24.468,lexical_decision_task_DD_L6,2021.2.3,Win32,60.34638827,,,,,,,,,,,,0.6456,1,,,,,,,,,,,,,,m,1,0.6456,,,,,,,,0.064814829,-0.371296309,0,0,0,,0,118,118,17,1,PARADE,HB,old,m,./images/PARADEHB.png,,,,,,,,,,,,,,,,,,,,,
,,,,,,,,,,,,,,,,,200254,21,2022-01-28_17h40.24.468,lexical_decision_task_DD_L6,2021.2.3,Win32,60.34638827,,,,,,,,,,,,0.8492,1,,,,,,,,,,,,,,m,1,0.8492,,,,,,,,0.064814829,-0.371296309,0,0,0,,0,119,119,71,1,BUBBLE,HB,old,m,./images/BUBBLEHB.png,,,,,,,,,,,,,,,,,,,,,
,,,,,,,,,,,,,,,,,200254,21,2022-01-28_17h40.24.468,lexical_decision_task_DD_L6,2021.2.3,Win32,60.34638827,,,,,,,,,,,,0.6125,1,,,,,,,,,,,,,,m,1,0.6125,,,,,,,,0.064814829,-0.371296309,0,0,0,,0,120,120,36,1,BOILER,LB,old,m,./images/BOILERLB.png,,,,,,,,,,,,,,,,,,,,,
,,,,,,,,,,,,,,,,,200254,21,2022-01-28_17h40.24.468,lexical_decision_task_DD_L6,2021.2.3,Win32,60.34638827,,,,,,,,,,,,0.5584,1,,,,,,,,,,,,,,m,1,0.5584,,,,,,,,0.064814829,-0.371296309,0,0,0,,0,121,121,15,1,COLLAR,LB,old,m,./images/COLLARLB.png,,,,,,,,,,,,,,,,,,,,,
,,,,,,,,,,,,,,,,,200254,21,2022-01-28_17h40.24.468,lexical_decision_task_DD_L6,2021.2.3,Win32,60.34638827,,,,,,,,,,,,0.6286,1,,,,,,,,,,,,,,z,1,0.6286,,,,,,,,0.064814829,-0.371296309,0,0,0,,0,122,122,111,1,HOSSE,C,old,z,./images/HOSSE.png,,,,,,,,,,,,,,,,,,,,,
,,,,,,,,,,,,,,,,,200254,21,2022-01-28_17h40.24.468,lexical_decision_task_DD_L6,2021.2.3,Win32,60.34638827,,,,,,,,,,,,0.7619,1,,,,,,,,,,,,,,z,1,0.7619,,,,,,,,0.064814829,-0.371296309,0,0,0,,0,123,123,139,1,BLEAR,HB,old,z,./images/BLEARHB.png,,,,,,,,,,,,,,,,,,,,,
,,,,,,,,,,,,,,,,,200254,21,2022-01-28_17h40.24.468,lexical_decision_task_DD_L6,2021.2.3,Win32,60.34638827,,,,,,,,,,,,1.7094,0,,,,,,,,,,,,,,m,0,1.7094,,,,,,,,0.064814829,-0.371296309,0,0,0,,0,124,124,110,1,CRUNK,LB,old,z,./images/CRUNKLB.png,,,,,,,,,,,,,,,,,,,,,
,,,,,,,,,,,,,,,,,200254,21,2022-01-28_17h40.24.468,lexical_decision_task_DD_L6,2021.2.3,Win32,60.34638827,,,,,,,,,,,,0.6914,1,,,,,,,,,,,,,,z,1,0.6914,,,,,,,,0.064814829,-0.371296309,0,0,0,space,0,125,125,144,1,NAIRY,C,old,z,./images/NAIRY.png,1.4418,,,,,,,,,,,,,,,,,,,,
,,,,,,,,,,,,,,,,,200254,21,2022-01-28_17h40.24.468,lexical_decision_task_DD_L6,2021.2.3,Win32,60.34638827,,,,,,,,,,,,0.8595,1,,,,,,,,,,,,,,z,1,0.8595,,,,,,,,0.064814829,-0.371296309,0,0,0,,0,126,126,159,1,CUDDY,C,old,z,./images/CUDDY.png,,,,,,,,,,,,,,,,,,,,,
,,,,,,,,,,,,,,,,,200254,21,2022-01-28_17h40.24.468,lexical_decision_task_DD_L6,2021.2.3,Win32,60.34638827,,,,,,,,,,,,0.8858,1,,,,,,,,,,,,,,z,1,0.8858,,,,,,,,0.064814829,-0.371296309,0,0,0,,0,127,127,88,1,GLUSH,HB,old,z,./images/GLUSHHB.png,,,,,,,,,,,,,,,,,,,,,
,,,,,,,,,,,,,,,,,200254,21,2022-01-28_17h40.24.468,lexical_decision_task_DD_L6,2021.2.3,Win32,60.34638827,,,,,,,,,,,,0.5603,1,,,,,,,,,,,,,,z,1,0.5603,,,,,,,,0.064814829,-0.371296309,0,0,0,,0,128,128,96,1,KEAMS,C,old,z,./images/KEAMS.png,,,,,,,,,,,,,,,,,,,,,
,,,,,,,,,,,,,,,,,200254,21,2022-01-28_17h40.24.468,lexical_decision_task_DD_L6,2021.2.3,Win32,60.34638827,,,,,,,,,,,,0.6715,1,,,,,,,,,,,,,,z,1,0.6715,,,,,,,,0.064814829,-0.371296309,0,0,0,,0,129,129,158,1,EGECT,LB,old,z,./images/EGECTLB.png,,,,,,,,,,,,,,,,,,,,,
,,,,,,,,,,,,,,,,,200254,21,2022-01-28_17h40.24.468,lexical_decision_task_DD_L6,2021.2.3,Win32,60.34638827,,,,,,,,,,,,0.5545,1,,,,,,,,,,,,,,z,1,0.5545,,,,,,,,0.064814829,-0.371296309,0,0,0,,0,130,130,108,1,GRUET,C,old,z,./images/GRUET.png,,,,,,,,,,,,,,,,,,,,,
,,,,,,,,,,,,,,,,,200254,21,2022-01-28_17h40.24.468,lexical_decision_task_DD_L6,2021.2.3,Win32,60.34638827,,,,,,,,,,,,0.515,1,,,,,,,,,,,,,,z,1,0.515,,,,,,,,0.064814829,-0.371296309,0,0,0,,0,131,131,113,1,LINEW,LB,old,z,./images/LINEWLB.png,,,,,,,,,,,,,,,,,,,,,
,,,,,,,,,,,,,,,,,200254,21,2022-01-28_17h40.24.468,lexical_decision_task_DD_L6,2021.2.3,Win32,60.34638827,,,,,,,,,,,,0.6316,1,,,,,,,,,,,,,,z,1,0.6316,,,,,,,,0.064814829,-0.371296309,0,0,0,,0,132,132,87,1,TRING,C,old,z,./images/TRING.png,,,,,,,,,,,,,,,,,,,,,
,,,,,,,,,,,,,,,,,200254,21,2022-01-28_17h40.24.468,lexical_decision_task_DD_L6,2021.2.3,Win32,60.34638827,,,,,,,,,,,,0.883,1,,,,,,,,,,,,,,z,1,0.883,,,,,,,,0.064814829,-0.371296309,0,0,0,,0,133,133,143,1,MONGS,LB,old,z,./images/MONGSLB.png,,,,,,,,,,,,,,,,,,,,,
,,,,,,,,,,,,,,,,,200254,21,2022-01-28_17h40.24.468,lexical_decision_task_DD_L6,2021.2.3,Win32,60.34638827,,,,,,,,,,,,0.6685,1,,,,,,,,,,,,,,z,1,0.6685,,,,,,,,0.064814829,-0.371296309,0,0,0,,0,134,134,163,1,GAMBA,HB,old,z,./images/GAMBAHB.png,,,,,,,,,,,,,,,,,,,,,
,,,,,,,,,,,,,,,,,200254,21,2022-01-28_17h40.24.468,lexical_decision_task_DD_L6,2021.2.3,Win32,60.34638827,,,,,,,,,,,,0.6715,1,,,,,,,,,,,,,,m,1,0.6715,,,,,,,,0.064814829,-0.371296309,0,0,0,,0,135,135,83,1,WHISKY,HB,old,m,./images/WHISKYHB.png,,,,,,,,,,,,,,,,,,,,,
,,,,,,,,,,,,,,,,,200254,21,2022-01-28_17h40.24.468,lexical_decision_task_DD_L6,2021.2.3,Win32,60.34638827,,,,,,,,,,,,0.6437,1,,,,,,,,,,,,,,z,1,0.6437,,,,,,,,0.064814829,-0.371296309,0,0,0,,0,136,136,138,1,PLICE,C,old,z,./images/PLICE.png,,,,,,,,,,,,,,,,,,,,,
,,,,,,,,,,,,,,,,,200254,21,2022-01-28_17h40.24.468,lexical_decision_task_DD_L6,2021.2.3,Win32,60.34638827,,,,,,,,,,,,0.6301,1,,,,,,,,,,,,,,m,1,0.6301,,,,,,,,0.064814829,-0.371296309,0,0,0,,0,137,137,41,1,STREAM,HB,old,m,./images/STREAMHB.png,,,,,,,,,,,,,,,,,,,,,
,,,,,,,,,,,,,,,,,200254,21,2022-01-28_17h40.24.468,lexical_decision_task_DD_L6,2021.2.3,Win32,60.34638827,,,,,,,,,,,,0.6016,1,,,,,,,,,,,,,,z,1,0.6016,,,,,,,,0.064814829,-0.371296309,0,0,0,,0,138,138,106,1,CLUMS,HB,old,z,./images/CLUMSHB.png,,,,,,,,,,,,,,,,,,,,,
,,,,,,,,,,,,,,,,,200254,21,2022-01-28_17h40.24.468,lexical_decision_task_DD_L6,2021.2.3,Win32,60.34638827,,,,,,,,,,,,0.9917,1,,,,,,,,,,,,,,z,1,0.9917,,,,,,,,0.064814829,-0.371296309,0,0,0,,0,139,139,100,1,DRIBS,HB,old,z,./images/DRIBSHB.png,,,,,,,,,,,,,,,,,,,,,
,,,,,,,,,,,,,,,,,200254,21,2022-01-28_17h40.24.468,lexical_decision_task_DD_L6,2021.2.3,Win32,60.34638827,,,,,,,,,,,,0.5526,1,,,,,,,,,,,,,,m,1,0.5526,,,,,,,,0.064814829,-0.371296309,0,0,0,,0,140,140,34,1,RAZOR,C,old,m,./images/RAZOR.png,,,,,,,,,,,,,,,,,,,,,
,,,,,,,,,,,,,,,,,200254,21,2022-01-28_17h40.24.468,lexical_decision_task_DD_L6,2021.2.3,Win32,60.34638827,,,,,,,,,,,,0.6902,1,,,,,,,,,,,,,,z,1,0.6902,,,,,,,,0.064814829,-0.371296309,0,0,0,,0,141,141,164,1,SGREW,LB,old,z,./images/SGREWLB.png,,,,,,,,,,,,,,,,,,,,,
,,,,,,,,,,,,,,,,,200254,21,2022-01-28_17h40.24.468,lexical_decision_task_DD_L6,2021.2.3,Win32,60.34638827,,,,,,,,,,,,0.685,1,,,,,,,,,,,,,,z,1,0.685,,,,,,,,0.064814829,-0.371296309,0,0,0,,0,142,142,99,1,BACKY,C,old,z,./images/BACKY.png,,,,,,,,,,,,,,,,,,,,,
,,,,,,,,,,,,,,,,,200254,21,2022-01-28_17h40.24.468,lexical_decision_task_DD_L6,2021.2.3,Win32,60.34638827,,,,,,,,,,,,0.5711,1,,,,,,,,,,,,,,m,1,0.5711,,,,,,,,0.064814829,-0.371296309,0,0,0,,0,143,143,82,1,PEBBLE,C,old,m,./images/PEBBLE.png,,,,,,,,,,,,,,,,,,,,,
,,,,,,,,,,,,,,,,,200254,21,2022-01-28_17h40.24.468,lexical_decision_task_DD_L6,2021.2.3,Win32,60.34638827,,,,,,,,,,,,0.8041,1,,,,,,,,,,,,,,m,1,0.8041,,,,,,,,0.064814829,-0.371296309,0,0,0,,0,144,144,53,1,POSTER,HB,old,m,./images/POSTERHB.png,,,,,,,,,,,,,,,,,,,,,
,,,,,,,,,,,,,,,,,200254,21,2022-01-28_17h40.24.468,lexical_decision_task_DD_L6,2021.2.3,Win32,60.34638827,,,,,,,,,,,,0.666,1,,,,,,,,,,,,,,m,1,0.666,,,,,,,,0.064814829,-0.371296309,0,0,0,,0,145,145,29,1,PISTOL,HB,old,m,./images/PISTOLHB.png,,,,,,,,,,,,,,,,,,,,,
,,,,,,,,,,,,,,,,,200254,21,2022-01-28_17h40.24.468,lexical_decision_task_DD_L6,2021.2.3,Win32,60.34638827,,,,,,,,,,,,0.6779,1,,,,,,,,,,,,,,z,1,0.6779,,,,,,,,0.064814829,-0.371296309,0,0,0,,0,146,146,134,1,TROSS,LB,old,z,./images/TROSSLB.png,,,,,,,,,,,,,,,,,,,,,
,,,,,,,,,,,,,,,,,200254,21,2022-01-28_17h40.24.468,lexical_decision_task_DD_L6,2021.2.3,Win32,60.34638827,,,,,,,,,,,,0.59,1,,,,,,,,,,,,,,z,1,0.59,,,,,,,,0.064814829,-0.371296309,0,0,0,,0,147,147,122,1,BLOOT,LB,old,z,./images/BLOOTLB.png,,,,,,,,,,,,,,,,,,,,,
,,,,,,,,,,,,,,,,,200254,21,2022-01-28_17h40.24.468,lexical_decision_task_DD_L6,2021.2.3,Win32,60.34638827,,,,,,,,,,,,0.5476,1,,,,,,,,,,,,,,z,1,0.5476,,,,,,,,0.064814829,-0.371296309,0,0,0,,0,148,148,137,1,JOOST,LB,old,z,./images/JOOSTLB.png,,,,,,,,,,,,,,,,,,,,,
,,,,,,,,,,,,,,,,,200254,21,2022-01-28_17h40.24.468,lexical_decision_task_DD_L6,2021.2.3,Win32,60.34638827,,,,,,,,,,,,0.7641,1,,,,,,,,,,,,,,z,1,0.7641,,,,,,,,0.064814829,-0.371296309,0,0,0,,0,149,149,154,1,THINT,HB,old,z,./images/THINTHB.png,,,,,,,,,,,,,,,,,,,,,
,,,,,,,,,,,,,,,,,200254,21,2022-01-28_17h40.24.468,lexical_decision_task_DD_L6,2021.2.3,Win32,60.34638827,,,,,,,,,,,,0.5883,1,,,,,,,,,,,,,,m,1,0.5883,,,,,,,,0.064814829,-0.371296309,0,0,0,,0,150,150,60,1,CURRY,LB,old,m,./images/CURRYLB.png,,,,,,,,,,,,,,,,,,,,,
,,,,,,,,,,,,,,,,,200254,21,2022-01-28_17h40.24.468,lexical_decision_task_DD_L6,2021.2.3,Win32,60.34638827,,,,,,,,,,,,0.6365,1,,,,,,,,,,,,,,z,1,0.6365,,,,,,,,0.064814829,-0.371296309,0,0,0,,0,151,151,109,1,BURGE,HB,old,z,./images/BURGEHB.png,,,,,,,,,,,,,,,,,,,,,
,,,,,,,,,,,,,,,,,200254,21,2022-01-28_17h40.24.468,lexical_decision_task_DD_L6,2021.2.3,Win32,60.34638827,,,,,,,,,,,,0.7685,1,,,,,,,,,,,,,,z,1,0.7685,,,,,,,,0.064814829,-0.371296309,0,0,0,,0,152,152,153,1,CLUPS,C,old,z,./images/CLUPS.png,,,,,,,,,,,,,,,,,,,,,
,,,,,,,,,,,,,,,,,200254,21,2022-01-28_17h40.24.468,lexical_decision_task_DD_L6,2021.2.3,Win32,60.34638827,,,,,,,,,,,,0.6513,1,,,,,,,,,,,,,,m,1,0.6513,,,,,,,,0.064814829,-0.371296309,0,0,0,,0,153,153,76,1,MIDGET,C,old,m,./images/MIDGET.png,,,,,,,,,,,,,,,,,,,,,
,,,,,,,,,,,,,,,,,200254,21,2022-01-28_17h40.24.468,lexical_decision_task_DD_L6,2021.2.3,Win32,60.34638827,,,,,,,,,,,,0.7442,1,,,,,,,,,,,,,,z,1,0.7442,,,,,,,,0.064814829,-0.371296309,0,0,0,,0,154,154,127,1,NINDY,HB,old,z,./images/NINDYHB.png,,,,,,,,,,,,,,,,,,,,,
,,,,,,,,,,,,,,,,,200254,21,2022-01-28_17h40.24.468,lexical_decision_task_DD_L6,2021.2.3,Win32,60.34638827,,,,,,,,,,,,0.5055,1,,,,,,,,,,,,,,m,1,0.5055,,,,,,,,0.064814829,-0.371296309,0,0,0,,0,155,155,22,1,CLOWN,C,old,m,./images/CLOWN.png,,,,,,,,,,,,,,,,,,,,,
,,,,,,,,,,,,,,,,,200254,21,2022-01-28_17h40.24.468,lexical_decision_task_DD_L6,2021.2.3,Win32,60.34638827,,,,,,,,,,,,0.5743,1,,,,,,,,,,,,,,m,1,0.5743,,,,,,,,0.064814829,-0.371296309,0,0,0,,0,156,156,37,1,TIGER,C,old,m,./images/TIGER.png,,,,,,,,,,,,,,,,,,,,,
,,,,,,,,,,,,,,,,,200254,21,2022-01-28_17h40.24.468,lexical_decision_task_DD_L6,2021.2.3,Win32,60.34638827,,,,,,,,,,,,1.0346,1,,,,,,,,,,,,,,z,1,1.0346,,,,,,,,0.064814829,-0.371296309,0,0,0,,0,157,157,123,1,SEDGE,C,old,z,./images/SEDGE.png,,,,,,,,,,,,,,,,,,,,,
,,,,,,,,,,,,,,,,,200254,21,2022-01-28_17h40.24.468,lexical_decision_task_DD_L6,2021.2.3,Win32,60.34638827,,,,,,,,,,,,0.6469,1,,,,,,,,,,,,,,m,1,0.6469,,,,,,,,0.064814829,-0.371296309,0,0,0,,0,158,158,6,1,STAIN,LB,old,m,./images/STAINLB.png,,,,,,,,,,,,,,,,,,,,,
,,,,,,,,,,,,,,,,,200254,21,2022-01-28_17h40.24.468,lexical_decision_task_DD_L6,2021.2.3,Win32,60.34638827,,,,,,,,,,,,0.5495,1,,,,,,,,,,,,,,m,1,0.5495,,,,,,,,0.064814829,-0.371296309,0,0,0,,0,159,159,40,1,SNAKE,C,old,m,./images/SNAKE.png,,,,,,,,,,,,,,,,,,,,,
,,,,,,,,,,,,,,,,,200254,21,2022-01-28_17h40.24.468,lexical_decision_task_DD_L6,2021.2.3,Win32,60.34638827,,,,,,,,,,,,0.6524,1,,,,,,,,,,,,,,m,1,0.6524,,,,,,,,0.064814829,-0.371296309,0,0,0,,0,160,160,78,1,BROOM,LB,old,m,./images/BROOMLB.png,,,,,,,,,,,,,,,,,,,,,
,,,,,,,,,,,,,,,,,200254,21,2022-01-28_17h40.24.468,lexical_decision_task_DD_L6,2021.2.3,Win32,60.34638827,,,,,,,,,,,,0.6858,1,,,,,,,,,,,,,,z,1,0.6858,,,,,,,,0.064814829,-0.371296309,0,0,0,,0,161,161,161,1,BLAPS,LB,old,z,./images/BLAPSLB.png,,,,,,,,,,,,,,,,,,,,,
,,,,,,,,,,,,,,,,,200254,21,2022-01-28_17h40.24.468,lexical_decision_task_DD_L6,2021.2.3,Win32,60.34638827,,,,,,,,,,,,0.5481,1,,,,,,,,,,,,,,m,1,0.5481,,,,,,,,0.064814829,-0.371296309,0,0,0,,0,162,162,1,1,TOWEL,C,old,m,./images/TOWEL.png,,,,,,,,,,,,,,,,,,,,,
,,,,,,,,,,,,,,,,,200254,21,2022-01-28_17h40.24.468,lexical_decision_task_DD_L6,2021.2.3,Win32,60.34638827,,,,,,,,,,,,0.6297,1,,,,,,,,,,,,,,m,1,0.6297,,,,,,,,0.064814829,-0.371296309,0,0,0,,0,163,163,59,1,BRUSH,HB,old,m,./images/BRUSHHB.png,,,,,,,,,,,,,,,,,,,,,
,,,,,,,,,,,,,,,,,200254,21,2022-01-28_17h40.24.468,lexical_decision_task_DD_L6,2021.2.3,Win32,60.34638827,,,,,,,,,,,,0.5735,1,,,,,,,,,,,,,,z,1,0.5735,,,,,,,,0.064814829,-0.371296309,0,0,0,,0,164,164,116,1,BALGY,LB,old,z,./images/BALGYLB.png,,,,,,,,,,,,,,,,,,,,,
,,,,,,,,,,,,,,,,,200254,21,2022-01-28_17h40.24.468,lexical_decision_task_DD_L6,2021.2.3,Win32,60.34638827,,,,,,,,,,,,0.6465,1,,,,,,,,,,,,,,z,1,0.6465,,,,,,,,0.064814829,-0.371296309,0,0,0,,0,165,165,146,1,MOOST,LB,old,z,./images/MOOSTLB.png,,,,,,,,,,,,,,,,,,,,,
,,,,,,,,,,,,,,,,,200254,21,2022-01-28_17h40.24.468,lexical_decision_task_DD_L6,2021.2.3,Win32,60.34638827,,,,,,,,,,,,0.5703,1,,,,,,,,,,,,,,z,1,0.5703,,,,,,,,0.064814829,-0.371296309,0,0,0,,0,166,166,132,1,SCIFF,C,old,z,./images/SCIFF.png,,,,,,,,,,,,,,,,,,,,,
,,,,,,,,,,,,,,,,,200254,21,2022-01-28_17h40.24.468,lexical_decision_task_DD_L6,2021.2.3,Win32,60.34638827,,,,,,,,,,,,0.5558,1,,,,,,,,,,,,,,m,1,0.5558,,,,,,,,0.064814829,-0.371296309,0,0,0,,0,167,167,61,1,ARTIST,C,old,m,./images/ARTIST.png,,,,,,,,,,,,,,,,,,,,,
space,0.064814829,-0.371296309,0,0,0,,,,,,,1,test,"In the next phase you will be presented with the words from the the first phase. Your job is to decide whether you remember seeing the word or not. If you remember seeing the word press ""old"" or type ""m"". If you do not remember seeing the word press ""new"" or type ""z"". Please press the space bar or click on continue to begin. ",,,200254,21,2022-01-28_17h40.24.468,lexical_decision_task_DD_L6,2021.2.3,Win32,60.34638827,17.404,,,,,,,,,,,,,,,,,,,,,,,,,,,,,,,,,,,,,,,,,,,,,,,,,,,,,0,0,0,0,1,,,,,,,,,,,,,,,
space,0.064814829,-0.371296309,0,0,0,,,,,,,1,test,"In the next phase you will be presented with the words from the the first phase. Your job is to decide whether you remember seeing the word or not. If you remember seeing the word press ""old"" or type ""m"". If you do not remember seeing the word press ""new"" or type ""z"". Please press the space bar or click on continue to begin. ",,,200254,21,2022-01-28_17h40.24.468,lexical_decision_task_DD_L6,2021.2.3,Win32,60.34638827,1.798,,,,,,,,,,,,,,,,,,,,,,,,,,,,,,,,,,,,,,,,,,,,,,,,,,,,,1,0,1,0,1,,,,,,,,,,,,,,,
,0.086111126,-0.389814828,1,0,0,instr_done_button,,,,,,1,test,"In the next phase you will be presented with the words from the the first phase. Your job is to decide whether you remember seeing the word or not. If you remember seeing the word press ""old"" or type ""m"". If you do not remember seeing the word press ""new"" or type ""z"". Please press the space bar or click on continue to begin. ",,,200254,21,2022-01-28_17h40.24.468,lexical_decision_task_DD_L6,2021.2.3,Win32,60.34638827,,,,,,,,,,,,,,,,,,,,,,,,,,,,,,,,,,,,,,,,,,,,,,,,,,,,,,2,0,2,0,1,,,,,,,,,,,,,,,
,0.104629644,-0.378703717,1,0,0,instr_done_button,,,,,,1,test,"In the next phase you will be presented with the words from the the first phase. Your job is to decide whether you remember seeing the word or not. If you remember seeing the word press ""old"" or type ""m"". If you do not remember seeing the word press ""new"" or type ""z"". Please press the space bar or click on continue to begin. ",,,200254,21,2022-01-28_17h40.24.468,lexical_decision_task_DD_L6,2021.2.3,Win32,60.34638827,,,,,,,,,,,,,,,,,,,,,,,,,,,,,,,,,,,,,,,,,,,,,,,,,,,,,,3,0,3,0,1,,,,,,,,,,,,,,,
space,0.372222241,-0.046296304,0,0,0,,,,,,,1,test,"In the next phase you will be presented with the words from the the first phase. Your job is to decide whether you remember seeing the word or not. If you remember seeing the word press ""old"" or type ""m"". If you do not remember seeing the word press ""new"" or type ""z"". Please press the space bar or click on continue to begin. ",,,200254,21,2022-01-28_17h40.24.468,lexical_decision_task_DD_L6,2021.2.3,Win32,60.34638827,1.7592,,,,,,,,,,,,,,,,,,,,,,,,,,,,,,,,,,,,,,,,,,,,,,,,,,,,,4,0,4,0,1,,,,,,,,,,,,,,,
,,,,,,,,,,,,,,,,,200254,21,2022-01-28_17h40.24.468,lexical_decision_task_DD_L6,2021.2.3,Win32,60.34638827,,,,,,,,,,,,2.2845,1,,,,,,,,,,,,,,,,,,,,,,,,0.464814835,0.019444437,0,0,0,,,,,,,BONNET,HB,z,y,./images/BONNETHB.png,,,,,,,z,1,2.2845,,,,,,,,0,0,0,95,1
,,,,,,,,,,,,,,,,,200254,21,2022-01-28_17h40.24.468,lexical_decision_task_DD_L6,2021.2.3,Win32,60.34638827,,,,,,,,,,,,1.0651,0,,,,,,,,,,,,,,,,,,,,,,,,0.591666802,0.087037003,0,0,0,,,,,,,STORM,LB,z,y,./images/STORMLB.png,,,,,,,m,0,1.0651,,,,,,,,0,1,1,114,1
,,,,,,,,,,,,,,,,,200254,21,2022-01-28_17h40.24.468,lexical_decision_task_DD_L6,2021.2.3,Win32,60.34638827,,,,,,,,,,,,1.4392,0,,,,,,,,,,,,,,,,,,,,,,,,0.591666802,0.087037003,0,0,0,,,,,,,LIZARD,HB,z,y,./images/LIZARDHB.png,,,,,,,m,0,1.4392,,,,,,,,0,2,2,128,1
,,,,,,,,,,,,,,,,,200254,21,2022-01-28_17h40.24.468,lexical_decision_task_DD_L6,2021.2.3,Win32,60.34638827,,,,,,,,,,,,1.4298,1,,,,,,,,,,,,,,,,,,,,,,,,0.591666802,0.087037003,0,0,0,,,,,,,FOLDER,LB,z,y,./images/FOLDERLB.png,,,,,,,z,1,1.4298,,,,,,,,0,3,3,126,1
,,,,,,,,,,,,,,,,,200254,21,2022-01-28_17h40.24.468,lexical_decision_task_DD_L6,2021.2.3,Win32,60.34638827,,,,,,,,,,,,1.0886,1,,,,,,,,,,,,,,,,,,,,,,,,0.591666802,0.087037003,0,0,0,,,,,,,LAGOON,HB,m,y,./images/LAGOONHB.png,,,,,,,m,1,1.0886,,,,,,,,0,4,4,47,1
,,,,,,,,,,,,,,,,,200254,21,2022-01-28_17h40.24.468,lexical_decision_task_DD_L6,2021.2.3,Win32,60.34638827,,,,,,,,,,,,2.2607,0,,,,,,,,,,,,,,,,,,,,,,,,0.887963102,0.354629627,0,0,0,,,,,,,STRING,HB,z,y,./images/STRINGHB.png,,,,,,,m,0,2.2607,,,,,,,,0,5,5,125,1
,,,,,,,,,,,,,,,,,200254,21,2022-01-28_17h40.24.468,lexical_decision_task_DD_L6,2021.2.3,Win32,60.34638827,,,,,,,,,,,,1.6306,0,,,,,,,,,,,,,,,,,,,,,,,,0.75555558,0.141666661,0,0,0,,,,,,,SNACK,C,z,y,./images/SNACK.png,,,,,,,m,0,1.6306,,,,,,,,0,6,6,157,1
,,,,,,,,,,,,,,,,,200254,21,2022-01-28_17h40.24.468,lexical_decision_task_DD_L6,2021.2.3,Win32,60.34638827,,,,,,,,,,,,0.6374,0,,,,,,,,,,,,,,,,,,,,,,,,0.75555558,0.141666661,0,0,0,,,,,,,SMOKER,HB,z,y,./images/SMOKERHB.png,,,,,,,m,0,0.6374,,,,,,,,0,7,7,110,1
,,,,,,,,,,,,,,,,,200254,21,2022-01-28_17h40.24.468,lexical_decision_task_DD_L6,2021.2.3,Win32,60.34638827,,,,,,,,,,,,0.8562,1,,,,,,,,,,,,,,,,,,,,,,,,0.75555558,0.141666661,0,0,0,,,,,,,SKIING,HB,z,y,./images/SKIINGHB.png,,,,,,,z,1,0.8562,,,,,,,,0,8,8,101,1
,,,,,,,,,,,,,,,,,200254,21,2022-01-28_17h40.24.468,lexical_decision_task_DD_L6,2021.2.3,Win32,60.34638827,,,,,,,,,,,,0.748,1,,,,,,,,,,,,,,,,,,,,,,,,0.75555558,0.141666661,0,0,0,,,,,,,BRIDE,C,m,y,./images/BRIDE.png,,,,,,,m,1,0.748,,,,,,,,0,9,9,64,1
,,,,,,,,,,,,,,,,,200254,21,2022-01-28_17h40.24.468,lexical_decision_task_DD_L6,2021.2.3,Win32,60.34638827,,,,,,,,,,,,1.8762,0,,,,,,,,,,,,,,,,,,,,,,,,0.75555558,0.141666661,0,0,0,,,,,,,POODLE,LB,z,y,./images/POODLELB.png,,,,,,,m,0,1.8762,,,,,,,,0,10,10,165,1
,,,,,,,,,,,,,,,,,200254,21,2022-01-28_17h40.24.468,lexical_decision_task_DD_L6,2021.2.3,Win32,60.34638827,,,,,,,,,,,,1.0103,1,,,,,,,,,,,,,,,,,,,,,,,,0.75555558,0.141666661,0,0,0,,,,,,,COUCH,HB,z,y,./images/COUCHHB.png,,,,,,,z,1,1.0103,,,,,,,,0,11,11,161,1
,,,,,,,,,,,,,,,,,200254,21,2022-01-28_17h40.24.468,lexical_decision_task_DD_L6,2021.2.3,Win32,60.34638827,,,,,,,,,,,,0.7881,1,,,,,,,,,,,,,,,,,,,,,,,,0.75555558,0.141666661,0,0,0,,,,,,,CLOTH,HB,m,y,./images/CLOTHHB.png,,,,,,,m,1,0.7881,,,,,,,,0,12,12,23,1
,,,,,,,,,,,,,,,,,200254,21,2022-01-28_17h40.24.468,lexical_decision_task_DD_L6,2021.2.3,Win32,60.34638827,,,,,,,,,,,,0.8102,1,,,,,,,,,,,,,,,,,,,,,,,,0.75555558,0.141666661,0,0,0,,,,,,,CHERRY,LB,m,y,./images/CHERRYLB.png,,,,,,,m,1,0.8102,,,,,,,,0,13,13,54,1
,,,,,,,,,,,,,,,,,200254,21,2022-01-28_17h40.24.468,lexical_decision_task_DD_L6,2021.2.3,Win32,60.34638827,,,,,,,,,,,,1.6793,1,,,,,,,,,,,,,,,,,,,,,,,,0.75555558,0.141666661,0,0,0,,,,,,,KITTEN,LB,z,y,./images/KITTENLB.png,,,,,,,z,1,1.6793,,,,,,,,0,14,14,129,1
,,,,,,,,,,,,,,,,,200254,21,2022-01-28_17h40.24.468,lexical_decision_task_DD_L6,2021.2.3,Win32,60.34638827,,,,,,,,,,,,3.4065,1,,,,,,,,,,,,,,,,,,,,,,,,0.75555558,0.141666661,0,0,0,,,,,,,BERRY,HB,z,y,./images/BERRYHB.png,,,,,,,z,1,3.4065,,,,,,,,0,15,15,131,1
,,,,,,,,,,,,,,,,,200254,21,2022-01-28_17h40.24.468,lexical_decision_task_DD_L6,2021.2.3,Win32,60.34638827,,,,,,,,,,,,0.8946,1,,,,,,,,,,,,,,,,,,,,,,,,0.75555558,0.141666661,0,0,0,,,,,,,BOILER,LB,m,y,./images/BOILERLB.png,,,,,,,m,1,0.8946,,,,,,,,0,16,16,36,1
,,,,,,,,,,,,,,,,,200254,21,2022-01-28_17h40.24.468,lexical_decision_task_DD_L6,2021.2.3,Win32,60.34638827,,,,,,,,,,,,1.0099,1,,,,,,,,,,,,,,,,,,,,,,,,0.75555558,0.141666661,0,0,0,,,,,,,SLOPE,LB,m,y,./images/SLOPELB.png,,,,,,,m,1,1.0099,,,,,,,,0,17,17,30,1
,,,,,,,,,,,,,,,,,200254,21,2022-01-28_17h40.24.468,lexical_decision_task_DD_L6,2021.2.3,Win32,60.34638827,,,,,,,,,,,,0.6641,1,,,,,,,,,,,,,,,,,,,,,,,,0.75555558,0.141666661,0,0,0,,,,,,,STEAK,C,m,y,./images/STEAK.png,,,,,,,m,1,0.6641,,,,,,,,0,18,18,31,1
,,,,,,,,,,,,,,,,,200254,21,2022-01-28_17h40.24.468,lexical_decision_task_DD_L6,2021.2.3,Win32,60.34638827,,,,,,,,,,,,0.7175,1,,,,,,,,,,,,,,,,,,,,,,,,0.75555558,0.141666661,0,0,0,,,,,,,BASKET,HB,m,y,./images/BASKETHB.png,,,,,,,m,1,0.7175,,,,,,,,0,19,19,44,1
,,,,,,,,,,,,,,,,,200254,21,2022-01-28_17h40.24.468,lexical_decision_task_DD_L6,2021.2.3,Win32,60.34638827,,,,,,,,,,,,1.7915,1,,,,,,,,,,,,,,,,,,,,,,,,0.75555558,0.141666661,0,0,0,,,,,,,JUNGLE,HB,z,y,./images/JUNGLEHB.png,,,,,,,z,1,1.7915,,,,,,,,0,20,20,167,1
,,,,,,,,,,,,,,,,,200254,21,2022-01-28_17h40.24.468,lexical_decision_task_DD_L6,2021.2.3,Win32,60.34638827,,,,,,,,,,,,2.4381,1,,,,,,,,,,,,,,,,,,,,,,,,0.75555558,0.141666661,0,0,0,,,,,,,PLANK,C,z,y,./images/PLANK.png,,,,,,,z,1,2.4381,,,,,,,,0,21,21,85,1
,,,,,,,,,,,,,,,,,200254,21,2022-01-28_17h40.24.468,lexical_decision_task_DD_L6,2021.2.3,Win32,60.34638827,,,,,,,,,,,,0.7832,1,,,,,,,,,,,,,,,,,,,,,,,,0.75555558,0.141666661,0,0,0,,,,,,,WALNUT,LB,m,y,./images/WALNUTLB.png,,,,,,,m,1,0.7832,,,,,,,,0,22,22,0,1
,,,,,,,,,,,,,,,,,200254,21,2022-01-28_17h40.24.468,lexical_decision_task_DD_L6,2021.2.3,Win32,60.34638827,,,,,,,,,,,,0.6536,1,,,,,,,,,,,,,,,,,,,,,,,,0.75555558,0.141666661,0,0,0,,,,,,,LLAMA,HB,m,y,./images/LLAMAHB.png,,,,,,,m,1,0.6536,,,,,,,,0,23,23,35,1
,,,,,,,,,,,,,,,,,200254,21,2022-01-28_17h40.24.468,lexical_decision_task_DD_L6,2021.2.3,Win32,60.34638827,,,,,,,,,,,,0.7467,1,,,,,,,,,,,,,,,,,,,,,,,,0.75555558,0.141666661,0,0,0,,,,,,,FLASK,LB,m,y,./images/FLASKLB.png,,,,,,,m,1,0.7467,,,,,,,,0,24,24,72,1
,,,,,,,,,,,,,,,,,200254,21,2022-01-28_17h40.24.468,lexical_decision_task_DD_L6,2021.2.3,Win32,60.34638827,,,,,,,,,,,,1.0262,1,,,,,,,,,,,,,,,,,,,,,,,,0.75555558,0.141666661,0,0,0,,,,,,,ENGINE,HB,m,y,./images/ENGINEHB.png,,,,,,,m,1,1.0262,,,,,,,,0,25,25,38,1
,,,,,,,,,,,,,,,,,200254,21,2022-01-28_17h40.24.468,lexical_decision_task_DD_L6,2021.2.3,Win32,60.34638827,,,,,,,,,,,,2.7205,0,,,,,,,,,,,,,,,,,,,,,,,,0.75555558,0.141666661,0,0,0,,,,,,,THROAT,LB,z,y,./images/THROATLB.png,,,,,,,m,0,2.7205,,,,,,,,0,26,26,120,1
,,,,,,,,,,,,,,,,,200254,21,2022-01-28_17h40.24.468,lexical_decision_task_DD_L6,2021.2.3,Win32,60.34638827,,,,,,,,,,,,2.0928,1,,,,,,,,,,,,,,,,,,,,,,,,0.75555558,0.141666661,0,0,0,,,,,,,PEARL,C,z,y,./images/PEARL.png,,,,,,,z,1,2.0928,,,,,,,,0,27,27,130,1
,,,,,,,,,,,,,,,,,200254,21,2022-01-28_17h40.24.468,lexical_decision_task_DD_L6,2021.2.3,Win32,60.34638827,,,,,,,,,,,,0.9304,1,,,,,,,,,,,,,,,,,,,,,,,,0.75555558,0.141666661,0,0,0,,,,,,,BABOON,C,z,y,./images/BABOON.png,,,,,,,z,1,0.9304,,,,,,,,0,28,28,142,1
,,,,,,,,,,,,,,,,,200254,21,2022-01-28_17h40.24.468,lexical_decision_task_DD_L6,2021.2.3,Win32,60.34638827,,,,,,,,,,,,0.8476,0,,,,,,,,,,,,,,,,,,,,,,,,0.75555558,0.141666661,0,0,0,,,,,,,MIRROR,LB,z,y,./images/MIRRORLB.png,,,,,,,m,0,0.8476,,,,,,,,0,29,29,147,1
,,,,,,,,,,,,,,,,,200254,21,2022-01-28_17h40.24.468,lexical_decision_task_DD_L6,2021.2.3,Win32,60.34638827,,,,,,,,,,,,3.0874,0,,,,,,,,,,,,,,,,,,,,,,,,0.75555558,0.141666661,0,0,0,,,,,,,PENCE,C,z,y,./images/PENCE.png,,,,,,,m,0,3.0874,,,,,,,,0,30,30,100,1
,,,,,,,,,,,,,,,,,200254,21,2022-01-28_17h40.24.468,lexical_decision_task_DD_L6,2021.2.3,Win32,60.34638827,,,,,,,,,,,,1.1402,1,,,,,,,,,,,,,,,,,,,,,,,,0.75555558,0.141666661,0,0,0,,,,,,,BUNNY,C,m,y,./images/BUNNY.png,,,,,,,m,1,1.1402,,,,,,,,0,31,31,13,1
,,,,,,,,,,,,,,,,,200254,21,2022-01-28_17h40.24.468,lexical_decision_task_DD_L6,2021.2.3,Win32,60.34638827,,,,,,,,,,,,3.6562,1,,,,,,,,,,,,,,,,,,,,,,,,0.75555558,0.141666661,0,0,0,,,,,,,DRUMS,C,z,y,./images/DRUMS.png,,,,,,,z,1,3.6562,,,,,,,,0,32,32,133,1
,,,,,,,,,,,,,,,,,200254,21,2022-01-28_17h40.24.468,lexical_decision_task_DD_L6,2021.2.3,Win32,60.34638827,,,,,,,,,,,,0.8222,1,,,,,,,,,,,,,,,,,,,,,,,,0.75555558,0.141666661,0,0,0,,,,,,,INFANT,C,z,y,./images/INFANT.png,,,,,,,z,1,0.8222,,,,,,,,0,33,33,160,1
,,,,,,,,,,,,,,,,,200254,21,2022-01-28_17h40.24.468,lexical_decision_task_DD_L6,2021.2.3,Win32,60.34638827,,,,,,,,,,,,0.758,1,,,,,,,,,,,,,,,,,,,,,,,,0.75555558,0.141666661,0,0,0,,,,,,,HEATER,HB,m,y,./images/HEATERHB.png,,,,,,,m,1,0.758,,,,,,,,0,34,34,56,1
,,,,,,,,,,,,,,,,,200254,21,2022-01-28_17h40.24.468,lexical_decision_task_DD_L6,2021.2.3,Win32,60.34638827,,,,,,,,,,,,0.7502,1,,,,,,,,,,,,,,,,,,,,,,,,0.75555558,0.141666661,0,0,0,,,,,,,DOUGH,C,z,y,./images/DOUGH.png,,,,,,,z,1,0.7502,,,,,,,,0,35,35,103,1
,,,,,,,,,,,,,,,,,200254,21,2022-01-28_17h40.24.468,lexical_decision_task_DD_L6,2021.2.3,Win32,60.34638827,,,,,,,,,,,,0.7722,1,,,,,,,,,,,,,,,,,,,,,,,,0.75555558,0.141666661,0,0,0,,,,,,,SHIELD,LB,m,y,./images/SHIELDLB.png,,,,,,,m,1,0.7722,,,,,,,,0,36,36,48,1
,,,,,,,,,,,,,,,,,200254,21,2022-01-28_17h40.24.468,lexical_decision_task_DD_L6,2021.2.3,Win32,60.34638827,,,,,,,,,,,,0.782,1,,,,,,,,,,,,,,,,,,,,,,,,0.75555558,0.141666661,0,0,0,,,,,,,CANOE,C,m,y,./images/CANOE.png,,,,,,,m,1,0.782,,,,,,,,0,37,37,58,1
,,,,,,,,,,,,,,,,,200254,21,2022-01-28_17h40.24.468,lexical_decision_task_DD_L6,2021.2.3,Win32,60.34638827,,,,,,,,,,,,0.773,1,,,,,,,,,,,,,,,,,,,,,,,,0.75555558,0.141666661,0,0,0,,,,,,,WHEEL,HB,m,y,./images/WHEELHB.png,,,,,,,m,1,0.773,,,,,,,,0,38,38,77,1
,,,,,,,,,,,,,,,,,200254,21,2022-01-28_17h40.24.468,lexical_decision_task_DD_L6,2021.2.3,Win32,60.34638827,,,,,,,,,,,,1.892,1,,,,,,,,,,,,,,,,,,,,,,,,0.75555558,0.141666661,0,0,0,,,,,,,MOOSE,LB,z,y,./images/MOOSELB.png,,,,,,,z,1,1.892,,,,,,,,0,39,39,141,1
,,,,,,,,,,,,,,,,,200254,21,2022-01-28_17h40.24.468,lexical_decision_task_DD_L6,2021.2.3,Win32,60.34638827,,,,,,,,,,,,3.1551,1,,,,,,,,,,,,,,,,,,,,,,,,0.75555558,0.141666661,0,0,0,,,,,,,BANNER,C,z,y,./images/BANNER.png,,,,,,,z,1,3.1551,,,,,,,,0,40,40,136,1
,,,,,,,,,,,,,,,,,200254,21,2022-01-28_17h40.24.468,lexical_decision_task_DD_L6,2021.2.3,Win32,60.34638827,,,,,,,,,,,,3.4638,1,,,,,,,,,,,,,,,,,,,,,,,,0.75555558,0.141666661,0,0,0,space,,,,,,MALLET,HB,z,y,./images/MALLETHB.png,6.8582,,,,,,z,1,3.4638,,,,,,,,0,41,41,134,1
,,,,,,,,,,,,,,,,,200254,21,2022-01-28_17h40.24.468,lexical_decision_task_DD_L6,2021.2.3,Win32,60.34638827,,,,,,,,,,,,1.1553,1,,,,,,,,,,,,,,,,,,,,,,,,0.75555558,0.141666661,0,0,0,,,,,,,MIDGET,C,m,y,./images/MIDGET.png,,,,,,,m,1,1.1553,,,,,,,,0,42,42,76,1
,,,,,,,,,,,,,,,,,200254,21,2022-01-28_17h40.24.468,lexical_decision_task_DD_L6,2021.2.3,Win32,60.34638827,,,,,,,,,,,,1.1727,1,,,,,,,,,,,,,,,,,,,,,,,,0.75555558,0.141666661,0,0,0,,,,,,,DANCER,LB,m,y,./images/DANCERLB.png,,,,,,,m,1,1.1727,,,,,,,,0,43,43,21,1
,,,,,,,,,,,,,,,,,200254,21,2022-01-28_17h40.24.468,lexical_decision_task_DD_L6,2021.2.3,Win32,60.34638827,,,,,,,,,,,,0.8087,1,,,,,,,,,,,,,,,,,,,,,,,,0.75555558,0.141666661,0,0,0,,,,,,,JAGUAR,LB,z,y,./images/JAGUARLB.png,,,,,,,z,1,0.8087,,,,,,,,0,44,44,102,1
,,,,,,,,,,,,,,,,,200254,21,2022-01-28_17h40.24.468,lexical_decision_task_DD_L6,2021.2.3,Win32,60.34638827,,,,,,,,,,,,0.7387,1,,,,,,,,,,,,,,,,,,,,,,,,0.75555558,0.141666661,0,0,0,,,,,,,MUSCLE,C,z,y,./images/MUSCLE.png,,,,,,,z,1,0.7387,,,,,,,,0,45,45,88,1
,,,,,,,,,,,,,,,,,200254,21,2022-01-28_17h40.24.468,lexical_decision_task_DD_L6,2021.2.3,Win32,60.34638827,,,,,,,,,,,,0.5754,1,,,,,,,,,,,,,,,,,,,,,,,,0.75555558,0.141666661,0,0,0,,,,,,,CURRY,LB,m,y,./images/CURRYLB.png,,,,,,,m,1,0.5754,,,,,,,,0,46,46,60,1
,,,,,,,,,,,,,,,,,200254,21,2022-01-28_17h40.24.468,lexical_decision_task_DD_L6,2021.2.3,Win32,60.34638827,,,,,,,,,,,,0.6379,1,,,,,,,,,,,,,,,,,,,,,,,,0.75555558,0.141666661,0,0,0,,,,,,,FERRY,LB,m,y,./images/FERRYLB.png,,,,,,,m,1,0.6379,,,,,,,,0,47,47,57,1
,,,,,,,,,,,,,,,,,200254,21,2022-01-28_17h40.24.468,lexical_decision_task_DD_L6,2021.2.3,Win32,60.34638827,,,,,,,,,,,,1.1401,1,,,,,,,,,,,,,,,,,,,,,,,,0.75555558,0.141666661,0,0,0,,,,,,,WEASEL,HB,z,y,./images/WEASELHB.png,,,,,,,z,1,1.1401,,,,,,,,0,48,48,164,1
,,,,,,,,,,,,,,,,,200254,21,2022-01-28_17h40.24.468,lexical_decision_task_DD_L6,2021.2.3,Win32,60.34638827,,,,,,,,,,,,0.9442,1,,,,,,,,,,,,,,,,,,,,,,,,0.75555558,0.141666661,0,0,0,,,,,,,TIGER,C,m,y,./images/TIGER.png,,,,,,,m,1,0.9442,,,,,,,,0,49,49,37,1
,,,,,,,,,,,,,,,,,200254,21,2022-01-28_17h40.24.468,lexical_decision_task_DD_L6,2021.2.3,Win32,60.34638827,,,,,,,,,,,,0.6448,1,,,,,,,,,,,,,,,,,,,,,,,,0.75555558,0.141666661,0,0,0,,,,,,,ARROW,LB,m,y,./images/ARROWLB.png,,,,,,,m,1,0.6448,,,,,,,,0,50,50,69,1
,,,,,,,,,,,,,,,,,200254,21,2022-01-28_17h40.24.468,lexical_decision_task_DD_L6,2021.2.3,Win32,60.34638827,,,,,,,,,,,,0.9891,1,,,,,,,,,,,,,,,,,,,,,,,,0.75555558,0.141666661,0,0,0,,,,,,,LADDER,HB,z,y,./images/LADDERHB.png,,,,,,,z,1,0.9891,,,,,,,,0,51,51,122,1
,,,,,,,,,,,,,,,,,200254,21,2022-01-28_17h40.24.468,lexical_decision_task_DD_L6,2021.2.3,Win32,60.34638827,,,,,,,,,,,,0.8334,1,,,,,,,,,,,,,,,,,,,,,,,,0.75555558,0.141666661,0,0,0,,,,,,,MUFFIN,C,z,y,./images/MUFFIN.png,,,,,,,z,1,0.8334,,,,,,,,0,52,52,139,1
,,,,,,,,,,,,,,,,,200254,21,2022-01-28_17h40.24.468,lexical_decision_task_DD_L6,2021.2.3,Win32,60.34638827,,,,,,,,,,,,1.1935,1,,,,,,,,,,,,,,,,,,,,,,,,0.75555558,0.141666661,0,0,0,,,,,,,CRADLE,HB,z,y,./images/CRADLEHB.png,,,,,,,z,1,1.1935,,,,,,,,0,53,53,104,1
,,,,,,,,,,,,,,,,,200254,21,2022-01-28_17h40.24.468,lexical_decision_task_DD_L6,2021.2.3,Win32,60.34638827,,,,,,,,,,,,0.6247,1,,,,,,,,,,,,,,,,,,,,,,,,0.75555558,0.141666661,0,0,0,,,,,,,MAMMAL,HB,m,y,./images/MAMMALHB.png,,,,,,,m,1,0.6247,,,,,,,,0,54,54,62,1
,,,,,,,,,,,,,,,,,200254,21,2022-01-28_17h40.24.468,lexical_decision_task_DD_L6,2021.2.3,Win32,60.34638827,,,,,,,,,,,,1.9162,1,,,,,,,,,,,,,,,,,,,,,,,,0.75555558,0.141666661,0,0,0,,,,,,,BAKER,LB,m,y,./images/BAKERLB.png,,,,,,,m,1,1.9162,,,,,,,,0,55,55,63,1
,,,,,,,,,,,,,,,,,200254,21,2022-01-28_17h40.24.468,lexical_decision_task_DD_L6,2021.2.3,Win32,60.34638827,,,,,,,,,,,,0.9252,1,,,,,,,,,,,,,,,,,,,,,,,,0.75555558,0.141666661,0,0,0,,,,,,,ALLEY,C,m,y,./images/ALLEY.png,,,,,,,m,1,0.9252,,,,,,,,0,56,56,55,1
,,,,,,,,,,,,,,,,,200254,21,2022-01-28_17h40.24.468,lexical_decision_task_DD_L6,2021.2.3,Win32,60.34638827,,,,,,,,,,,,1.0717,0,,,,,,,,,,,,,,,,,,,,,,,,0.75555558,0.141666661,0,0,0,,,,,,,FARMER,HB,z,y,./images/FARMERHB.png,,,,,,,m,0,1.0717,,,,,,,,0,57,57,149,1
,,,,,,,,,,,,,,,,,200254,21,2022-01-28_17h40.24.468,lexical_decision_task_DD_L6,2021.2.3,Win32,60.34638827,,,,,,,,,,,,1.311,1,,,,,,,,,,,,,,,,,,,,,,,,0.75555558,0.141666661,0,0,0,,,,,,,STATUE,LB,m,y,./images/STATUELB.png,,,,,,,m,1,1.311,,,,,,,,0,58,58,66,1
,,,,,,,,,,,,,,,,,200254,21,2022-01-28_17h40.24.468,lexical_decision_task_DD_L6,2021.2.3,Win32,60.34638827,,,,,,,,,,,,1.2385,1,,,,,,,,,,,,,,,,,,,,,,,,0.75555558,0.141666661,0,0,0,,,,,,,SAUNA,LB,m,y,./images/SAUNALB.png,,,,,,,m,1,1.2385,,,,,,,,0,59,59,33,1
,,,,,,,,,,,,,,,,,200254,21,2022-01-28_17h40.24.468,lexical_decision_task_DD_L6,2021.2.3,Win32,60.34638827,,,,,,,,,,,,0.822,1,,,,,,,,,,,,,,,,,,,,,,,,0.75555558,0.141666661,0,0,0,,,,,,,DESERT,C,m,y,./images/DESERT.png,,,,,,,m,1,0.822,,,,,,,,0,60,60,52,1
,,,,,,,,,,,,,,,,,200254,21,2022-01-28_17h40.24.468,lexical_decision_task_DD_L6,2021.2.3,Win32,60.34638827,,,,,,,,,,,,3.4642,0,,,,,,,,,,,,,,,,,,,,,,,,0.75555558,0.141666661,0,0,0,,,,,,,MOTOR,C,z,y,./images/MOTOR.png,,,,,,,m,0,3.4642,,,,,,,,0,61,61,97,1
,,,,,,,,,,,,,,,,,200254,21,2022-01-28_17h40.24.468,lexical_decision_task_DD_L6,2021.2.3,Win32,60.34638827,,,,,,,,,,,,1.0049,0,,,,,,,,,,,,,,,,,,,,,,,,0.75555558,0.141666661,0,0,0,,,,,,,CLIFF,HB,m,y,./images/CLIFFHB.png,,,,,,,z,0,1.0049,,,,,,,,0,62,62,8,1
,,,,,,,,,,,,,,,,,200254,21,2022-01-28_17h40.24.468,lexical_decision_task_DD_L6,2021.2.3,Win32,60.34638827,,,,,,,,,,,,0.8097,1,,,,,,,,,,,,,,,,,,,,,,,,0.75555558,0.141666661,0,0,0,,,,,,,BANANA,C,m,y,./images/BANANA.png,,,,,,,m,1,0.8097,,,,,,,,0,63,63,70,1
,,,,,,,,,,,,,,,,,200254,21,2022-01-28_17h40.24.468,lexical_decision_task_DD_L6,2021.2.3,Win32,60.34638827,,,,,,,,,,,,0.7483,1,,,,,,,,,,,,,,,,,,,,,,,,0.75555558,0.141666661,0,0,0,,,,,,,PICKLE,HB,z,y,./images/PICKLEHB.png,,,,,,,z,1,0.7483,,,,,,,,0,64,64,98,1
,,,,,,,,,,,,,,,,,200254,21,2022-01-28_17h40.24.468,lexical_decision_task_DD_L6,2021.2.3,Win32,60.34638827,,,,,,,,,,,,0.8541,1,,,,,,,,,,,,,,,,,,,,,,,,0.75555558,0.141666661,0,0,0,,,,,,,STAIN,LB,m,y,./images/STAINLB.png,,,,,,,m,1,0.8541,,,,,,,,0,65,65,6,1
,,,,,,,,,,,,,,,,,200254,21,2022-01-28_17h40.24.468,lexical_decision_task_DD_L6,2021.2.3,Win32,60.34638827,,,,,,,,,,,,0.8374,1,,,,,,,,,,,,,,,,,,,,,,,,0.75555558,0.141666661,0,0,0,,,,,,,WHISKY,HB,m,y,./images/WHISKYHB.png,,,,,,,m,1,0.8374,,,,,,,,0,66,66,83,1
,,,,,,,,,,,,,,,,,200254,21,2022-01-28_17h40.24.468,lexical_decision_task_DD_L6,2021.2.3,Win32,60.34638827,,,,,,,,,,,,0.5962,1,,,,,,,,,,,,,,,,,,,,,,,,0.75555558,0.141666661,0,0,0,,,,,,,BAMBOO,HB,m,y,./images/BAMBOOHB.png,,,,,,,m,1,0.5962,,,,,,,,0,67,67,5,1
,,,,,,,,,,,,,,,,,200254,21,2022-01-28_17h40.24.468,lexical_decision_task_DD_L6,2021.2.3,Win32,60.34638827,,,,,,,,,,,,0.7726,1,,,,,,,,,,,,,,,,,,,,,,,,0.75555558,0.141666661,0,0,0,,,,,,,PASTA,HB,z,y,./images/PASTAHB.png,,,,,,,z,1,0.7726,,,,,,,,0,68,68,89,1
,,,,,,,,,,,,,,,,,200254,21,2022-01-28_17h40.24.468,lexical_decision_task_DD_L6,2021.2.3,Win32,60.34638827,,,,,,,,,,,,0.9001,1,,,,,,,,,,,,,,,,,,,,,,,,0.75555558,0.141666661,0,0,0,,,,,,,GARDEN,C,m,y,./images/GARDEN.png,,,,,,,m,1,0.9001,,,,,,,,0,69,69,10,1
,,,,,,,,,,,,,,,,,200254,21,2022-01-28_17h40.24.468,lexical_decision_task_DD_L6,2021.2.3,Win32,60.34638827,,,,,,,,,,,,0.6829,1,,,,,,,,,,,,,,,,,,,,,,,,0.75555558,0.141666661,0,0,0,,,,,,,DRILL,LB,m,y,./images/DRILLLB.png,,,,,,,m,1,0.6829,,,,,,,,0,70,70,81,1
,,,,,,,,,,,,,,,,,200254,21,2022-01-28_17h40.24.468,lexical_decision_task_DD_L6,2021.2.3,Win32,60.34638827,,,,,,,,,,,,1.4825,1,,,,,,,,,,,,,,,,,,,,,,,,0.75555558,0.141666661,0,0,0,,,,,,,STOOL,C,m,y,./images/STOOL.png,,,,,,,m,1,1.4825,,,,,,,,0,71,71,43,1
,,,,,,,,,,,,,,,,,200254,21,2022-01-28_17h40.24.468,lexical_decision_task_DD_L6,2021.2.3,Win32,60.34638827,,,,,,,,,,,,3.0808,0,,,,,,,,,,,,,,,,,,,,,,,,0.75555558,0.141666661,0,0,0,,,,,,,CARPET,HB,z,y,./images/CARPETHB.png,,,,,,,m,0,3.0808,,,,,,,,0,72,72,137,1
,,,,,,,,,,,,,,,,,200254,21,2022-01-28_17h40.24.468,lexical_decision_task_DD_L6,2021.2.3,Win32,60.34638827,,,,,,,,,,,,0.6456,1,,,,,,,,,,,,,,,,,,,,,,,,0.75555558,0.141666661,0,0,0,,,,,,,TRIPOD,LB,z,y,./images/TRIPODLB.png,,,,,,,z,1,0.6456,,,,,,,,0,73,73,138,1
,,,,,,,,,,,,,,,,,200254,21,2022-01-28_17h40.24.468,lexical_decision_task_DD_L6,2021.2.3,Win32,60.34638827,,,,,,,,,,,,0.756,1,,,,,,,,,,,,,,,,,,,,,,,,0.75555558,0.141666661,0,0,0,,,,,,,DIVER,LB,m,y,./images/DIVERLB.png,,,,,,,m,1,0.756,,,,,,,,0,74,74,9,1
,,,,,,,,,,,,,,,,,200254,21,2022-01-28_17h40.24.468,lexical_decision_task_DD_L6,2021.2.3,Win32,60.34638827,,,,,,,,,,,,0.9657,1,,,,,,,,,,,,,,,,,,,,,,,,0.75555558,0.141666661,0,0,0,,,,,,,FINGER,LB,z,y,./images/FINGERLB.png,,,,,,,z,1,0.9657,,,,,,,,0,75,75,87,1
,,,,,,,,,,,,,,,,,200254,21,2022-01-28_17h40.24.468,lexical_decision_task_DD_L6,2021.2.3,Win32,60.34638827,,,,,,,,,,,,0.8439,1,,,,,,,,,,,,,,,,,,,,,,,,0.75555558,0.141666661,0,0,0,,,,,,,FALCON,C,z,y,./images/FALCON.png,,,,,,,z,1,0.8439,,,,,,,,0,76,76,112,1
,,,,,,,,,,,,,,,,,200254,21,2022-01-28_17h40.24.468,lexical_decision_task_DD_L6,2021.2.3,Win32,60.34638827,,,,,,,,,,,,1.7612,1,,,,,,,,,,,,,,,,,,,,,,,,0.75555558,0.141666661,0,0,0,,,,,,,RHINO,LB,z,y,./images/RHINOLB.png,,,,,,,z,1,1.7612,,,,,,,,0,77,77,93,1
,,,,,,,,,,,,,,,,,200254,21,2022-01-28_17h40.24.468,lexical_decision_task_DD_L6,2021.2.3,Win32,60.34638827,,,,,,,,,,,,1.8327,1,,,,,,,,,,,,,,,,,,,,,,,,0.75555558,0.141666661,0,0,0,,,,,,,SWING,C,z,y,./images/SWING.png,,,,,,,z,1,1.8327,,,,,,,,0,78,78,124,1
,,,,,,,,,,,,,,,,,200254,21,2022-01-28_17h40.24.468,lexical_decision_task_DD_L6,2021.2.3,Win32,60.34638827,,,,,,,,,,,,2.5215,1,,,,,,,,,,,,,,,,,,,,,,,,0.75555558,0.141666661,0,0,0,,,,,,,PACKET,HB,z,y,./images/PACKETHB.png,,,,,,,z,1,2.5215,,,,,,,,0,79,79,140,1
,,,,,,,,,,,,,,,,,200254,21,2022-01-28_17h40.24.468,lexical_decision_task_DD_L6,2021.2.3,Win32,60.34638827,,,,,,,,,,,,2.3433,1,,,,,,,,,,,,,,,,,,,,,,,,0.75555558,0.141666661,0,0,0,,,,,,,ATTIC,LB,z,y,./images/ATTICLB.png,,,,,,,z,1,2.3433,,,,,,,,0,80,80,111,1
,,,,,,,,,,,,,,,,,200254,21,2022-01-28_17h40.24.468,lexical_decision_task_DD_L6,2021.2.3,Win32,60.34638827,,,,,,,,,,,,2.5401,1,,,,,,,,,,,,,,,,,,,,,,,,0.75555558,0.141666661,0,0,0,,,,,,,CANDLE,C,z,y,./images/CANDLE.png,,,,,,,z,1,2.5401,,,,,,,,0,81,81,145,1
,,,,,,,,,,,,,,,,,200254,21,2022-01-28_17h40.24.468,lexical_decision_task_DD_L6,2021.2.3,Win32,60.34638827,,,,,,,,,,,,0.8558,1,,,,,,,,,,,,,,,,,,,,,,,,0.75555558,0.141666661,0,0,0,,,,,,,PISTOL,HB,m,y,./images/PISTOLHB.png,,,,,,,m,1,0.8558,,,,,,,,0,82,82,29,1
,,,,,,,,,,,,,,,,,200254,21,2022-01-28_17h40.24.468,lexical_decision_task_DD_L6,2021.2.3,Win32,60.34638827,,,,,,,,,,,,0.7079,1,,,,,,,,,,,,,,,,,,,,,,,,0.75555558,0.141666661,0,0,0,space,,,,,,POSTER,HB,m,y,./images/POSTERHB.png,1.1582,,,,,,m,1,0.7079,,,,,,,,0,83,83,53,1
,,,,,,,,,,,,,,,,,200254,21,2022-01-28_17h40.24.468,lexical_decision_task_DD_L6,2021.2.3,Win32,60.34638827,,,,,,,,,,,,0.6711,1,,,,,,,,,,,,,,,,,,,,,,,,0.75555558,0.141666661,0,0,0,,,,,,,FLESH,LB,m,y,./images/FLESHLB.png,,,,,,,m,1,0.6711,,,,,,,,0,84,84,24,1
,,,,,,,,,,,,,,,,,200254,21,2022-01-28_17h40.24.468,lexical_decision_task_DD_L6,2021.2.3,Win32,60.34638827,,,,,,,,,,,,0.7174,1,,,,,,,,,,,,,,,,,,,,,,,,0.75555558,0.141666661,0,0,0,,,,,,,URINE,C,z,y,./images/URINE.png,,,,,,,z,1,0.7174,,,,,,,,0,85,85,154,1
,,,,,,,,,,,,,,,,,200254,21,2022-01-28_17h40.24.468,lexical_decision_task_DD_L6,2021.2.3,Win32,60.34638827,,,,,,,,,,,,0.8148,1,,,,,,,,,,,,,,,,,,,,,,,,0.75555558,0.141666661,0,0,0,,,,,,,WRIST,C,z,y,./images/WRIST.png,,,,,,,z,1,0.8148,,,,,,,,0,86,86,109,1
,,,,,,,,,,,,,,,,,200254,21,2022-01-28_17h40.24.468,lexical_decision_task_DD_L6,2021.2.3,Win32,60.34638827,,,,,,,,,,,,1.038,1,,,,,,,,,,,,,,,,,,,,,,,,0.75555558,0.141666661,0,0,0,,,,,,,QUILL,C,z,y,./images/QUILL.png,,,,,,,z,1,1.038,,,,,,,,0,87,87,115,1
,,,,,,,,,,,,,,,,,200254,21,2022-01-28_17h40.24.468,lexical_decision_task_DD_L6,2021.2.3,Win32,60.34638827,,,,,,,,,,,,2.9306,0,,,,,,,,,,,,,,,,,,,,,,,,0.75555558,0.141666661,0,0,0,,,,,,,SHELF,LB,z,y,./images/SHELFLB.png,,,,,,,m,0,2.9306,,,,,,,,0,88,88,123,1
,,,,,,,,,,,,,,,,,200254,21,2022-01-28_17h40.24.468,lexical_decision_task_DD_L6,2021.2.3,Win32,60.34638827,,,,,,,,,,,,0.9821,1,,,,,,,,,,,,,,,,,,,,,,,,0.75555558,0.141666661,0,0,0,,,,,,,CLOUD,HB,m,y,./images/CLOUDHB.png,,,,,,,m,1,0.9821,,,,,,,,0,89,89,26,1
,,,,,,,,,,,,,,,,,200254,21,2022-01-28_17h40.24.468,lexical_decision_task_DD_L6,2021.2.3,Win32,60.34638827,,,,,,,,,,,,0.7048,1,,,,,,,,,,,,,,,,,,,,,,,,0.75555558,0.141666661,0,0,0,,,,,,,BISHOP,C,m,y,./images/BISHOP.png,,,,,,,m,1,0.7048,,,,,,,,0,90,90,49,1
,,,,,,,,,,,,,,,,,200254,21,2022-01-28_17h40.24.468,lexical_decision_task_DD_L6,2021.2.3,Win32,60.34638827,,,,,,,,,,,,0.6,1,,,,,,,,,,,,,,,,,,,,,,,,0.75555558,0.141666661,0,0,0,,,,,,,ARTIST,C,m,y,./images/ARTIST.png,,,,,,,m,1,0.6,,,,,,,,0,91,91,61,1
,,,,,,,,,,,,,,,,,200254,21,2022-01-28_17h40.24.468,lexical_decision_task_DD_L6,2021.2.3,Win32,60.34638827,,,,,,,,,,,,0.6547,1,,,,,,,,,,,,,,,,,,,,,,,,0.75555558,0.141666661,0,0,0,,,,,,,PILOT,HB,m,y,./images/PILOTHB.png,,,,,,,m,1,0.6547,,,,,,,,0,92,92,50,1
,,,,,,,,,,,,,,,,,200254,21,2022-01-28_17h40.24.468,lexical_decision_task_DD_L6,2021.2.3,Win32,60.34638827,,,,,,,,,,,,0.9553,1,,,,,,,,,,,,,,,,,,,,,,,,0.75555558,0.141666661,0,0,0,,,,,,,GREASE,LB,z,y,./images/GREASELB.png,,,,,,,z,1,0.9553,,,,,,,,0,93,93,99,1
,,,,,,,,,,,,,,,,,200254,21,2022-01-28_17h40.24.468,lexical_decision_task_DD_L6,2021.2.3,Win32,60.34638827,,,,,,,,,,,,0.7302,1,,,,,,,,,,,,,,,,,,,,,,,,0.75555558,0.141666661,0,0,0,,,,,,,BROOM,LB,m,y,./images/BROOMLB.png,,,,,,,m,1,0.7302,,,,,,,,0,94,94,78,1
,,,,,,,,,,,,,,,,,200254,21,2022-01-28_17h40.24.468,lexical_decision_task_DD_L6,2021.2.3,Win32,60.34638827,,,,,,,,,,,,1.748,1,,,,,,,,,,,,,,,,,,,,,,,,0.75555558,0.141666661,0,0,0,,,,,,,KIDNEY,LB,z,y,./images/KIDNEYLB.png,,,,,,,z,1,1.748,,,,,,,,0,95,95,105,1
,,,,,,,,,,,,,,,,,200254,21,2022-01-28_17h40.24.468,lexical_decision_task_DD_L6,2021.2.3,Win32,60.34638827,,,,,,,,,,,,1.3565,1,,,,,,,,,,,,,,,,,,,,,,,,0.75555558,0.141666661,0,0,0,,,,,,,TULIP,HB,z,y,./images/TULIPHB.png,,,,,,,z,1,1.3565,,,,,,,,0,96,96,92,1
,,,,,,,,,,,,,,,,,200254,21,2022-01-28_17h40.24.468,lexical_decision_task_DD_L6,2021.2.3,Win32,60.34638827,,,,,,,,,,,,0.9351,1,,,,,,,,,,,,,,,,,,,,,,,,0.75555558,0.141666661,0,0,0,,,,,,,DONKEY,C,m,y,./images/DONKEY.png,,,,,,,m,1,0.9351,,,,,,,,0,97,97,19,1
,,,,,,,,,,,,,,,,,200254,21,2022-01-28_17h40.24.468,lexical_decision_task_DD_L6,2021.2.3,Win32,60.34638827,,,,,,,,,,,,2.4217,1,,,,,,,,,,,,,,,,,,,,,,,,0.75555558,0.141666661,0,0,0,,,,,,,BARREL,HB,z,y,./images/BARRELHB.png,,,,,,,z,1,2.4217,,,,,,,,0,98,98,116,1
,,,,,,,,,,,,,,,,,200254,21,2022-01-28_17h40.24.468,lexical_decision_task_DD_L6,2021.2.3,Win32,60.34638827,,,,,,,,,,,,1.7994,1,,,,,,,,,,,,,,,,,,,,,,,,0.75555558,0.141666661,0,0,0,,,,,,,SQUARE,LB,z,y,./images/SQUARELB.png,,,,,,,z,1,1.7994,,,,,,,,0,99,99,90,1
,,,,,,,,,,,,,,,,,200254,21,2022-01-28_17h40.24.468,lexical_decision_task_DD_L6,2021.2.3,Win32,60.34638827,,,,,,,,,,,,0.7999,1,,,,,,,,,,,,,,,,,,,,,,,,0.75555558,0.141666661,0,0,0,,,,,,,PIMPLE,HB,z,y,./images/PIMPLEHB.png,,,,,,,z,1,0.7999,,,,,,,,0,100,100,155,1
,,,,,,,,,,,,,,,,,200254,21,2022-01-28_17h40.24.468,lexical_decision_task_DD_L6,2021.2.3,Win32,60.34638827,,,,,,,,,,,,0.8532,1,,,,,,,,,,,,,,,,,,,,,,,,0.75555558,0.141666661,0,0,0,,,,,,,HOCKEY,HB,m,y,./images/HOCKEYHB.png,,,,,,,m,1,0.8532,,,,,,,,0,101,101,32,1
,,,,,,,,,,,,,,,,,200254,21,2022-01-28_17h40.24.468,lexical_decision_task_DD_L6,2021.2.3,Win32,60.34638827,,,,,,,,,,,,1.7423,1,,,,,,,,,,,,,,,,,,,,,,,,0.75555558,0.141666661,0,0,0,,,,,,,BIRTH,C,z,y,./images/BIRTH.png,,,,,,,z,1,1.7423,,,,,,,,0,102,102,121,1
,,,,,,,,,,,,,,,,,200254,21,2022-01-28_17h40.24.468,lexical_decision_task_DD_L6,2021.2.3,Win32,60.34638827,,,,,,,,,,,,0.7036,1,,,,,,,,,,,,,,,,,,,,,,,,0.75555558,0.141666661,0,0,0,,,,,,,CANDY,LB,m,y,./images/CANDYLB.png,,,,,,,m,1,0.7036,,,,,,,,0,103,103,39,1
,,,,,,,,,,,,,,,,,200254,21,2022-01-28_17h40.24.468,lexical_decision_task_DD_L6,2021.2.3,Win32,60.34638827,,,,,,,,,,,,0.7049,1,,,,,,,,,,,,,,,,,,,,,,,,0.75555558,0.141666661,0,0,0,,,,,,,CLOWN,C,m,y,./images/CLOWN.png,,,,,,,m,1,0.7049,,,,,,,,0,104,104,22,1
,,,,,,,,,,,,,,,,,200254,21,2022-01-28_17h40.24.468,lexical_decision_task_DD_L6,2021.2.3,Win32,60.34638827,,,,,,,,,,,,1.0044,0,,,,,,,,,,,,,,,,,,,,,,,,0.75555558,0.141666661,0,0,0,,,,,,,TORCH,HB,z,y,./images/TORCHHB.png,,,,,,,m,0,1.0044,,,,,,,,0,105,105,152,1
,,,,,,,,,,,,,,,,,200254,21,2022-01-28_17h40.24.468,lexical_decision_task_DD_L6,2021.2.3,Win32,60.34638827,,,,,,,,,,,,0.9376,1,,,,,,,,,,,,,,,,,,,,,,,,0.75555558,0.141666661,0,0,0,,,,,,,BURIAL,HB,z,y,./images/BURIALHB.png,,,,,,,z,1,0.9376,,,,,,,,0,106,106,143,1
,,,,,,,,,,,,,,,,,200254,21,2022-01-28_17h40.24.468,lexical_decision_task_DD_L6,2021.2.3,Win32,60.34638827,,,,,,,,,,,,0.6989,0,,,,,,,,,,,,,,,,,,,,,,,,0.75555558,0.141666661,0,0,0,,,,,,,PAINT,C,z,y,./images/PAINT.png,,,,,,,m,0,0.6989,,,,,,,,0,107,107,91,1
,,,,,,,,,,,,,,,,,200254,21,2022-01-28_17h40.24.468,lexical_decision_task_DD_L6,2021.2.3,Win32,60.34638827,,,,,,,,,,,,2.5383,0,,,,,,,,,,,,,,,,,,,,,,,,0.75555558,0.141666661,0,0,0,,,,,,,SWEAT,LB,z,y,./images/SWEATLB.png,,,,,,,m,0,2.5383,,,,,,,,0,108,108,150,1
,,,,,,,,,,,,,,,,,200254,21,2022-01-28_17h40.24.468,lexical_decision_task_DD_L6,2021.2.3,Win32,60.34638827,,,,,,,,,,,,0.8218,0,,,,,,,,,,,,,,,,,,,,,,,,0.75555558,0.141666661,0,0,0,,,,,,,PEACH,HB,z,y,./images/PEACHHB.png,,,,,,,m,0,0.8218,,,,,,,,0,109,109,119,1
,,,,,,,,,,,,,,,,,200254,21,2022-01-28_17h40.24.468,lexical_decision_task_DD_L6,2021.2.3,Win32,60.34638827,,,,,,,,,,,,1.5061,1,,,,,,,,,,,,,,,,,,,,,,,,0.75555558,0.141666661,0,0,0,,,,,,,MOSQUE,C,z,y,./images/MOSQUE.png,,,,,,,z,1,1.5061,,,,,,,,0,110,110,127,1
,,,,,,,,,,,,,,,,,200254,21,2022-01-28_17h40.24.468,lexical_decision_task_DD_L6,2021.2.3,Win32,60.34638827,,,,,,,,,,,,5.031,1,,,,,,,,,,,,,,,,,,,,,,,,0.75555558,0.141666661,0,0,0,,,,,,,COOKER,LB,z,y,./images/COOKERLB.png,,,,,,,z,1,5.031,,,,,,,,0,111,111,153,1
,,,,,,,,,,,,,,,,,200254,21,2022-01-28_17h40.24.468,lexical_decision_task_DD_L6,2021.2.3,Win32,60.34638827,,,,,,,,,,,,0.7699,1,,,,,,,,,,,,,,,,,,,,,,,,0.75555558,0.141666661,0,0,0,,,,,,,FENCE,HB,m,y,./images/FENCEHB.png,,,,,,,m,1,0.7699,,,,,,,,0,112,112,14,1
,,,,,,,,,,,,,,,,,200254,21,2022-01-28_17h40.24.468,lexical_decision_task_DD_L6,2021.2.3,Win32,60.34638827,,,,,,,,,,,,0.8383,1,,,,,,,,,,,,,,,,,,,,,,,,0.75555558,0.141666661,0,0,0,,,,,,,SUNSET,C,z,y,./images/SUNSET.png,,,,,,,z,1,0.8383,,,,,,,,0,113,113,166,1
,,,,,,,,,,,,,,,,,200254,21,2022-01-28_17h40.24.468,lexical_decision_task_DD_L6,2021.2.3,Win32,60.34638827,,,,,,,,,,,,1.0598,1,,,,,,,,,,,,,,,,,,,,,,,,0.75555558,0.141666661,0,0,0,,,,,,,SPORT,LB,z,y,./images/SPORTLB.png,,,,,,,z,1,1.0598,,,,,,,,0,114,114,132,1
,,,,,,,,,,,,,,,,,200254,21,2022-01-28_17h40.24.468,lexical_decision_task_DD_L6,2021.2.3,Win32,60.34638827,,,,,,,,,,,,0.7874,1,,,,,,,,,,,,,,,,,,,,,,,,0.75555558,0.141666661,0,0,0,,,,,,,RAZOR,C,m,y,./images/RAZOR.png,,,,,,,m,1,0.7874,,,,,,,,0,115,115,34,1
,,,,,,,,,,,,,,,,,200254,21,2022-01-28_17h40.24.468,lexical_decision_task_DD_L6,2021.2.3,Win32,60.34638827,,,,,,,,,,,,0.8318,1,,,,,,,,,,,,,,,,,,,,,,,,0.75555558,0.141666661,0,0,0,,,,,,,CHAIN,LB,m,y,./images/CHAINLB.png,,,,,,,m,1,0.8318,,,,,,,,0,116,116,42,1
,,,,,,,,,,,,,,,,,200254,21,2022-01-28_17h40.24.468,lexical_decision_task_DD_L6,2021.2.3,Win32,60.34638827,,,,,,,,,,,,0.8062,1,,,,,,,,,,,,,,,,,,,,,,,,0.75555558,0.141666661,0,0,0,,,,,,,BUTTER,LB,m,y,./images/BUTTERLB.png,,,,,,,m,1,0.8062,,,,,,,,0,117,117,27,1
,,,,,,,,,,,,,,,,,200254,21,2022-01-28_17h40.24.468,lexical_decision_task_DD_L6,2021.2.3,Win32,60.34638827,,,,,,,,,,,,0.7722,1,,,,,,,,,,,,,,,,,,,,,,,,0.75555558,0.141666661,0,0,0,,,,,,,HAMMER,LB,m,y,./images/HAMMERLB.png,,,,,,,m,1,0.7722,,,,,,,,0,118,118,75,1
,,,,,,,,,,,,,,,,,200254,21,2022-01-28_17h40.24.468,lexical_decision_task_DD_L6,2021.2.3,Win32,60.34638827,,,,,,,,,,,,0.7939,1,,,,,,,,,,,,,,,,,,,,,,,,0.75555558,0.141666661,0,0,0,,,,,,,CEMENT,HB,z,y,./images/CEMENTHB.png,,,,,,,z,1,0.7939,,,,,,,,0,119,119,158,1
,,,,,,,,,,,,,,,,,200254,21,2022-01-28_17h40.24.468,lexical_decision_task_DD_L6,2021.2.3,Win32,60.34638827,,,,,,,,,,,,0.7452,1,,,,,,,,,,,,,,,,,,,,,,,,0.75555558,0.141666661,0,0,0,,,,,,,MEDAL,HB,m,y,./images/MEDALHB.png,,,,,,,m,1,0.7452,,,,,,,,0,120,120,11,1
,,,,,,,,,,,,,,,,,200254,21,2022-01-28_17h40.24.468,lexical_decision_task_DD_L6,2021.2.3,Win32,60.34638827,,,,,,,,,,,,0.7153,1,,,,,,,,,,,,,,,,,,,,,,,,0.75555558,0.141666661,0,0,0,,,,,,,GRANNY,HB,m,y,./images/GRANNYHB.png,,,,,,,m,1,0.7153,,,,,,,,0,121,121,20,1
,,,,,,,,,,,,,,,,,200254,21,2022-01-28_17h40.24.468,lexical_decision_task_DD_L6,2021.2.3,Win32,60.34638827,,,,,,,,,,,,1.4957,1,,,,,,,,,,,,,,,,,,,,,,,,0.75555558,0.141666661,0,0,0,,,,,,,PURSE,HB,z,y,./images/PURSEHB.png,,,,,,,z,1,1.4957,,,,,,,,0,122,122,146,1
,,,,,,,,,,,,,,,,,200254,21,2022-01-28_17h40.24.468,lexical_decision_task_DD_L6,2021.2.3,Win32,60.34638827,,,,,,,,,,,,0.8903,1,,,,,,,,,,,,,,,,,,,,,,,,0.75555558,0.141666661,0,0,0,,,,,,,SHORE,LB,z,y,./images/SHORELB.png,,,,,,,z,1,0.8903,,,,,,,,0,123,123,96,1
,,,,,,,,,,,,,,,,,200254,21,2022-01-28_17h40.24.468,lexical_decision_task_DD_L6,2021.2.3,Win32,60.34638827,,,,,,,,,,,,0.9607,1,,,,,,,,,,,,,,,,,,,,,,,,0.75555558,0.141666661,0,0,0,,,,,,,MAGGOT,LB,z,y,./images/MAGGOTLB.png,,,,,,,z,1,0.9607,,,,,,,,0,124,124,117,1
,,,,,,,,,,,,,,,,,200254,21,2022-01-28_17h40.24.468,lexical_decision_task_DD_L6,2021.2.3,Win32,60.34638827,,,,,,,,,,,,1.4109,1,,,,,,,,,,,,,,,,,,,,,,,,0.75555558,0.141666661,0,0,0,space,,,,,,PLANET,HB,m,y,./images/PLANETHB.png,1.2538,,,,,,m,1,1.4109,,,,,,,,0,125,125,80,1
,,,,,,,,,,,,,,,,,200254,21,2022-01-28_17h40.24.468,lexical_decision_task_DD_L6,2021.2.3,Win32,60.34638827,,,,,,,,,,,,1.3551,1,,,,,,,,,,,,,,,,,,,,,,,,0.75555558,0.141666661,0,0,0,,,,,,,BELLY,C,z,y,./images/BELLY.png,,,,,,,z,1,1.3551,,,,,,,,0,126,126,94,1
,,,,,,,,,,,,,,,,,200254,21,2022-01-28_17h40.24.468,lexical_decision_task_DD_L6,2021.2.3,Win32,60.34638827,,,,,,,,,,,,0.6728,1,,,,,,,,,,,,,,,,,,,,,,,,0.75555558,0.141666661,0,0,0,,,,,,,SPINE,HB,m,y,./images/SPINEHB.png,,,,,,,m,1,0.6728,,,,,,,,0,127,127,65,1
,,,,,,,,,,,,,,,,,200254,21,2022-01-28_17h40.24.468,lexical_decision_task_DD_L6,2021.2.3,Win32,60.34638827,,,,,,,,,,,,0.799,1,,,,,,,,,,,,,,,,,,,,,,,,0.75555558,0.141666661,0,0,0,,,,,,,POKER,C,m,y,./images/POKER.png,,,,,,,m,1,0.799,,,,,,,,0,128,128,67,1
,,,,,,,,,,,,,,,,,200254,21,2022-01-28_17h40.24.468,lexical_decision_task_DD_L6,2021.2.3,Win32,60.34638827,,,,,,,,,,,,0.8606,0,,,,,,,,,,,,,,,,,,,,,,,,0.75555558,0.141666661,0,0,0,,,,,,,PARCEL,LB,m,y,./images/PARCELLB.png,,,,,,,z,0,0.8606,,,,,,,,0,129,129,18,1
,,,,,,,,,,,,,,,,,200254,21,2022-01-28_17h40.24.468,lexical_decision_task_DD_L6,2021.2.3,Win32,60.34638827,,,,,,,,,,,,2.4147,1,,,,,,,,,,,,,,,,,,,,,,,,0.75555558,0.141666661,0,0,0,,,,,,,PARADE,HB,m,y,./images/PARADEHB.png,,,,,,,m,1,2.4147,,,,,,,,0,130,130,17,1
,,,,,,,,,,,,,,,,,200254,21,2022-01-28_17h40.24.468,lexical_decision_task_DD_L6,2021.2.3,Win32,60.34638827,,,,,,,,,,,,0.7486,1,,,,,,,,,,,,,,,,,,,,,,,,0.75555558,0.141666661,0,0,0,,,,,,,TOMATO,LB,z,y,./images/TOMATOLB.png,,,,,,,z,1,0.7486,,,,,,,,0,131,131,84,1
,,,,,,,,,,,,,,,,,200254,21,2022-01-28_17h40.24.468,lexical_decision_task_DD_L6,2021.2.3,Win32,60.34638827,,,,,,,,,,,,0.6386,1,,,,,,,,,,,,,,,,,,,,,,,,0.75555558,0.141666661,0,0,0,,,,,,,MUMMY,C,m,y,./images/MUMMY.png,,,,,,,m,1,0.6386,,,,,,,,0,132,132,46,1
,,,,,,,,,,,,,,,,,200254,21,2022-01-28_17h40.24.468,lexical_decision_task_DD_L6,2021.2.3,Win32,60.34638827,,,,,,,,,,,,0.7226,1,,,,,,,,,,,,,,,,,,,,,,,,0.75555558,0.141666661,0,0,0,,,,,,,PEBBLE,C,m,y,./images/PEBBLE.png,,,,,,,m,1,0.7226,,,,,,,,0,133,133,82,1
,,,,,,,,,,,,,,,,,200254,21,2022-01-28_17h40.24.468,lexical_decision_task_DD_L6,2021.2.3,Win32,60.34638827,,,,,,,,,,,,0.6396,1,,,,,,,,,,,,,,,,,,,,,,,,0.75555558,0.141666661,0,0,0,,,,,,,GLOVE,C,m,y,./images/GLOVE.png,,,,,,,m,1,0.6396,,,,,,,,0,134,134,73,1
,,,,,,,,,,,,,,,,,200254,21,2022-01-28_17h40.24.468,lexical_decision_task_DD_L6,2021.2.3,Win32,60.34638827,,,,,,,,,,,,0.9707,0,,,,,,,,,,,,,,,,,,,,,,,,0.75555558,0.141666661,0,0,0,,,,,,,SCREW,LB,z,y,./images/SCREWLB.png,,,,,,,m,0,0.9707,,,,,,,,0,135,135,108,1
,,,,,,,,,,,,,,,,,200254,21,2022-01-28_17h40.24.468,lexical_decision_task_DD_L6,2021.2.3,Win32,60.34638827,,,,,,,,,,,,0.797,1,,,,,,,,,,,,,,,,,,,,,,,,0.75555558,0.141666661,0,0,0,,,,,,,ONION,LB,z,y,./images/ONIONLB.png,,,,,,,z,1,0.797,,,,,,,,0,136,136,135,1
,,,,,,,,,,,,,,,,,200254,21,2022-01-28_17h40.24.468,lexical_decision_task_DD_L6,2021.2.3,Win32,60.34638827,,,,,,,,,,,,0.8139,1,,,,,,,,,,,,,,,,,,,,,,,,0.75555558,0.141666661,0,0,0,,,,,,,SNAKE,C,m,y,./images/SNAKE.png,,,,,,,m,1,0.8139,,,,,,,,0,137,137,40,1
,,,,,,,,,,,,,,,,,200254,21,2022-01-28_17h40.24.468,lexical_decision_task_DD_L6,2021.2.3,Win32,60.34638827,,,,,,,,,,,,0.8395,1,,,,,,,,,,,,,,,,,,,,,,,,0.75555558,0.141666661,0,0,0,,,,,,,COLLAR,LB,m,y,./images/COLLARLB.png,,,,,,,m,1,0.8395,,,,,,,,0,138,138,15,1
,,,,,,,,,,,,,,,,,200254,21,2022-01-28_17h40.24.468,lexical_decision_task_DD_L6,2021.2.3,Win32,60.34638827,,,,,,,,,,,,0.9138,1,,,,,,,,,,,,,,,,,,,,,,,,0.75555558,0.141666661,0,0,0,,,,,,,MELON,C,z,y,./images/MELON.png,,,,,,,z,1,0.9138,,,,,,,,0,139,139,106,1
,,,,,,,,,,,,,,,,,200254,21,2022-01-28_17h40.24.468,lexical_decision_task_DD_L6,2021.2.3,Win32,60.34638827,,,,,,,,,,,,0.9638,1,,,,,,,,,,,,,,,,,,,,,,,,0.75555558,0.141666661,0,0,0,,,,,,,SAUCE,LB,m,y,./images/SAUCELB.png,,,,,,,m,1,0.9638,,,,,,,,0,140,140,51,1
,,,,,,,,,,,,,,,,,200254,21,2022-01-28_17h40.24.468,lexical_decision_task_DD_L6,2021.2.3,Win32,60.34638827,,,,,,,,,,,,0.835,1,,,,,,,,,,,,,,,,,,,,,,,,0.75555558,0.141666661,0,0,0,,,,,,,GRAIN,LB,z,y,./images/GRAINLB.png,,,,,,,z,1,0.835,,,,,,,,0,141,141,159,1
,,,,,,,,,,,,,,,,,200254,21,2022-01-28_17h40.24.468,lexical_decision_task_DD_L6,2021.2.3,Win32,60.34638827,,,,,,,,,,,,0.7558,1,,,,,,,,,,,,,,,,,,,,,,,,0.75555558,0.141666661,0,0,0,,,,,,,GRAPE,C,m,y,./images/GRAPE.png,,,,,,,m,1,0.7558,,,,,,,,0,142,142,16,1
,,,,,,,,,,,,,,,,,200254,21,2022-01-28_17h40.24.468,lexical_decision_task_DD_L6,2021.2.3,Win32,60.34638827,,,,,,,,,,,,0.7888,1,,,,,,,,,,,,,,,,,,,,,,,,0.75555558,0.141666661,0,0,0,,,,,,,BUBBLE,HB,m,y,./images/BUBBLEHB.png,,,,,,,m,1,0.7888,,,,,,,,0,143,143,71,1
,,,,,,,,,,,,,,,,,200254,21,2022-01-28_17h40.24.468,lexical_decision_task_DD_L6,2021.2.3,Win32,60.34638827,,,,,,,,,,,,0.7434,1,,,,,,,,,,,,,,,,,,,,,,,,0.75555558,0.141666661,0,0,0,,,,,,,CANYON,C,z,y,./images/CANYON.png,,,,,,,z,1,0.7434,,,,,,,,0,144,144,118,1
,,,,,,,,,,,,,,,,,200254,21,2022-01-28_17h40.24.468,lexical_decision_task_DD_L6,2021.2.3,Win32,60.34638827,,,,,,,,,,,,0.7559,1,,,,,,,,,,,,,,,,,,,,,,,,0.75555558,0.141666661,0,0,0,,,,,,,JUMPER,HB,m,y,./images/JUMPERHB.png,,,,,,,m,1,0.7559,,,,,,,,0,145,145,74,1
,,,,,,,,,,,,,,,,,200254,21,2022-01-28_17h40.24.468,lexical_decision_task_DD_L6,2021.2.3,Win32,60.34638827,,,,,,,,,,,,0.8057,1,,,,,,,,,,,,,,,,,,,,,,,,0.75555558,0.141666661,0,0,0,,,,,,,TOWEL,C,m,y,./images/TOWEL.png,,,,,,,m,1,0.8057,,,,,,,,0,146,146,1,1
,,,,,,,,,,,,,,,,,200254,21,2022-01-28_17h40.24.468,lexical_decision_task_DD_L6,2021.2.3,Win32,60.34638827,,,,,,,,,,,,0.7708,1,,,,,,,,,,,,,,,,,,,,,,,,0.75555558,0.141666661,0,0,0,,,,,,,TWINS,LB,z,y,./images/TWINSLB.png,,,,,,,z,1,0.7708,,,,,,,,0,147,147,144,1
,,,,,,,,,,,,,,,,,200254,21,2022-01-28_17h40.24.468,lexical_decision_task_DD_L6,2021.2.3,Win32,60.34638827,,,,,,,,,,,,0.8553,1,,,,,,,,,,,,,,,,,,,,,,,,0.75555558,0.141666661,0,0,0,,,,,,,SAILOR,C,z,y,./images/SAILOR.png,,,,,,,z,1,0.8553,,,,,,,,0,148,148,151,1
,,,,,,,,,,,,,,,,,200254,21,2022-01-28_17h40.24.468,lexical_decision_task_DD_L6,2021.2.3,Win32,60.34638827,,,,,,,,,,,,1.8561,1,,,,,,,,,,,,,,,,,,,,,,,,0.75555558,0.141666661,0,0,0,,,,,,,BEARD,HB,z,y,./images/BEARDHB.png,,,,,,,z,1,1.8561,,,,,,,,0,149,149,86,1
,,,,,,,,,,,,,,,,,200254,21,2022-01-28_17h40.24.468,lexical_decision_task_DD_L6,2021.2.3,Win32,60.34638827,,,,,,,,,,,,0.9549,1,,,,,,,,,,,,,,,,,,,,,,,,0.75555558,0.141666661,0,0,0,,,,,,,WALRUS,HB,z,y,./images/WALRUSHB.png,,,,,,,z,1,0.9549,,,,,,,,0,150,150,107,1
,,,,,,,,,,,,,,,,,200254,21,2022-01-28_17h40.24.468,lexical_decision_task_DD_L6,2021.2.3,Win32,60.34638827,,,,,,,,,,,,0.9377,1,,,,,,,,,,,,,,,,,,,,,,,,0.75555558,0.141666661,0,0,0,,,,,,,VALLEY,HB,m,y,./images/VALLEYHB.png,,,,,,,m,1,0.9377,,,,,,,,0,151,151,68,1
,,,,,,,,,,,,,,,,,200254,21,2022-01-28_17h40.24.468,lexical_decision_task_DD_L6,2021.2.3,Win32,60.34638827,,,,,,,,,,,,0.9214,0,,,,,,,,,,,,,,,,,,,,,,,,0.75555558,0.141666661,0,0,0,,,,,,,CRUMB,HB,z,y,./images/CRUMBHB.png,,,,,,,m,0,0.9214,,,,,,,,0,152,152,113,1
,,,,,,,,,,,,,,,,,200254,21,2022-01-28_17h40.24.468,lexical_decision_task_DD_L6,2021.2.3,Win32,60.34638827,,,,,,,,,,,,1.0025,1,,,,,,,,,,,,,,,,,,,,,,,,0.75555558,0.141666661,0,0,0,,,,,,,RULER,C,m,y,./images/RULER.png,,,,,,,m,1,1.0025,,,,,,,,0,153,153,79,1
,,,,,,,,,,,,,,,,,200254,21,2022-01-28_17h40.24.468,lexical_decision_task_DD_L6,2021.2.3,Win32,60.34638827,,,,,,,,,,,,0.7262,1,,,,,,,,,,,,,,,,,,,,,,,,0.75555558,0.141666661,0,0,0,,,,,,,STOVE,HB,m,y,./images/STOVEHB.png,,,,,,,m,1,0.7262,,,,,,,,0,154,154,2,1
,,,,,,,,,,,,,,,,,200254,21,2022-01-28_17h40.24.468,lexical_decision_task_DD_L6,2021.2.3,Win32,60.34638827,,,,,,,,,,,,0.698,1,,,,,,,,,,,,,,,,,,,,,,,,0.75555558,0.141666661,0,0,0,,,,,,,CHALK,C,m,y,./images/CHALK.png,,,,,,,m,1,0.698,,,,,,,,0,155,155,25,1
,,,,,,,,,,,,,,,,,200254,21,2022-01-28_17h40.24.468,lexical_decision_task_DD_L6,2021.2.3,Win32,60.34638827,,,,,,,,,,,,1.2425,1,,,,,,,,,,,,,,,,,,,,,,,,0.75555558,0.141666661,0,0,0,,,,,,,CRUST,C,z,y,./images/CRUST.png,,,,,,,z,1,1.2425,,,,,,,,0,156,156,163,1
,,,,,,,,,,,,,,,,,200254,21,2022-01-28_17h40.24.468,lexical_decision_task_DD_L6,2021.2.3,Win32,60.34638827,,,,,,,,,,,,0.8058,1,,,,,,,,,,,,,,,,,,,,,,,,0.75555558,0.141666661,0,0,0,,,,,,,WAGON,C,m,y,./images/WAGON.png,,,,,,,m,1,0.8058,,,,,,,,0,157,157,7,1
,,,,,,,,,,,,,,,,,200254,21,2022-01-28_17h40.24.468,lexical_decision_task_DD_L6,2021.2.3,Win32,60.34638827,,,,,,,,,,,,2.4069,1,,,,,,,,,,,,,,,,,,,,,,,,0.75555558,0.141666661,0,0,0,,,,,,,BRUSH,HB,m,y,./images/BRUSHHB.png,,,,,,,m,1,2.4069,,,,,,,,0,158,158,59,1
,,,,,,,,,,,,,,,,,200254,21,2022-01-28_17h40.24.468,lexical_decision_task_DD_L6,2021.2.3,Win32,60.34638827,,,,,,,,,,,,1.4704,1,,,,,,,,,,,,,,,,,,,,,,,,0.75555558,0.141666661,0,0,0,,,,,,,STREAM,HB,m,y,./images/STREAMHB.png,,,,,,,m,1,1.4704,,,,,,,,0,159,159,41,1
,,,,,,,,,,,,,,,,,200254,21,2022-01-28_17h40.24.468,lexical_decision_task_DD_L6,2021.2.3,Win32,60.34638827,,,,,,,,,,,,1.109,1,,,,,,,,,,,,,,,,,,,,,,,,0.75555558,0.141666661,0,0,0,,,,,,,LITTER,LB,z,y,./images/LITTERLB.png,,,,,,,z,1,1.109,,,,,,,,0,160,160,162,1
,,,,,,,,,,,,,,,,,200254,21,2022-01-28_17h40.24.468,lexical_decision_task_DD_L6,2021.2.3,Win32,60.34638827,,,,,,,,,,,,0.9394,1,,,,,,,,,,,,,,,,,,,,,,,,0.75555558,0.141666661,0,0,0,,,,,,,BLOKE,LB,m,y,./images/BLOKELB.png,,,,,,,m,1,0.9394,,,,,,,,0,161,161,12,1
,,,,,,,,,,,,,,,,,200254,21,2022-01-28_17h40.24.468,lexical_decision_task_DD_L6,2021.2.3,Win32,60.34638827,,,,,,,,,,,,0.7181,1,,,,,,,,,,,,,,,,,,,,,,,,0.75555558,0.141666661,0,0,0,,,,,,,BOXER,C,m,y,./images/BOXER.png,,,,,,,m,1,0.7181,,,,,,,,0,162,162,4,1
,,,,,,,,,,,,,,,,,200254,21,2022-01-28_17h40.24.468,lexical_decision_task_DD_L6,2021.2.3,Win32,60.34638827,,,,,,,,,,,,0.6882,1,,,,,,,,,,,,,,,,,,,,,,,,0.75555558,0.141666661,0,0,0,,,,,,,CASINO,C,m,y,./images/CASINO.png,,,,,,,m,1,0.6882,,,,,,,,0,163,163,28,1
,,,,,,,,,,,,,,,,,200254,21,2022-01-28_17h40.24.468,lexical_decision_task_DD_L6,2021.2.3,Win32,60.34638827,,,,,,,,,,,,0.8554,1,,,,,,,,,,,,,,,,,,,,,,,,0.75555558,0.141666661,0,0,0,,,,,,,JELLY,C,z,y,./images/JELLY.png,,,,,,,z,1,0.8554,,,,,,,,0,164,164,148,1
,,,,,,,,,,,,,,,,,200254,21,2022-01-28_17h40.24.468,lexical_decision_task_DD_L6,2021.2.3,Win32,60.34638827,,,,,,,,,,,,0.8502,1,,,,,,,,,,,,,,,,,,,,,,,,0.75555558,0.141666661,0,0,0,,,,,,,NOOSE,LB,z,y,./images/NOOSELB.png,,,,,,,z,1,0.8502,,,,,,,,0,165,165,156,1
,,,,,,,,,,,,,,,,,200254,21,2022-01-28_17h40.24.468,lexical_decision_task_DD_L6,2021.2.3,Win32,60.34638827,,,,,,,,,,,,0.7745,1,,,,,,,,,,,,,,,,,,,,,,,,0.75555558,0.141666661,0,0,0,,,,,,,CRATER,LB,m,y,./images/CRATERLB.png,,,,,,,m,1,0.7745,,,,,,,,0,166,166,3,1
,,,,,,,,,,,,,,,,,200254,21,2022-01-28_17h40.24.468,lexical_decision_task_DD_L6,2021.2.3,Win32,60.34638827,,,,,,,,,,,,2.9565,1,,,,,,,,,,,,,,,,,,,,,,,,0.75555558,0.141666661,0,0,0,,,,,,,MONKEY,LB,m,y,./images/MONKEYLB.png,,,,,,,m,1,2.9565,,,,,,,,0,167,167,45,1
