key_resp.keys,key_resp.rt,instr_done_touch.x,instr_done_touch.y,instr_done_touch.leftButton,instr_done_touch.midButton,instr_done_touch.rightButton,instruction_pages.thisRepN,instruction_pages.thisTrialN,instruction_pages.thisN,instruction_pages.thisIndex,instruction_pages.ran,pageN,phase,instruct_text,has_image,instruct_image,participant,age,date,expName,psychopyVersion,OS,frameRate,response.keys,response.corr,response.rt,touch_resp.x,touch_resp.y,touch_resp.leftButton,touch_resp.midButton,touch_resp.rightButton,touch_resp.time,touch_resp.clicked_name,rt,corr,practrials.thisRepN,practrials.thisTrialN,practrials.thisN,practrials.thisIndex,practrials.ran,TrialID,Target,corrAns,end_of_practice_trials_pages.thisRepN,end_of_practice_trials_pages.thisTrialN,end_of_practice_trials_pages.thisN,end_of_practice_trials_pages.thisIndex,end_of_practice_trials_pages.ran,key_resp_2.keys,key_resp_2.corr,key_resp_2.rt,targ_click.x,targ_click.y,targ_click.leftButton,targ_click.midButton,targ_click.rightButton,targ_click.time,targ_click.clicked_name,break_done_touch.x,break_done_touch.y,break_done_touch.leftButton,break_done_touch.midButton,break_done_touch.rightButton,break_done_keyboard.keys,maintrials.thisRepN,maintrials.thisTrialN,maintrials.thisN,maintrials.thisIndex,maintrials.ran,string,blur,study,lex,stim_path,break_done_keyboard.rt,test_instructions.thisRepN,test_instructions.thisTrialN,test_instructions.thisN,test_instructions.thisIndex,test_instructions.ran,instr_done_touch.clicked_name,key_resp_3.keys,key_resp_3.corr,key_resp_3.rt,test_click.x,test_click.y,test_click.leftButton,test_click.midButton,test_click.rightButton,test_click.time,test_click.clicked_name,test_phase.thisRepN,test_phase.thisTrialN,test_phase.thisN,test_phase.thisIndex,test_phase.ran
space,58.8588,0.116038208,-0.419045478,0,0,0,0,0,0,0,1,1,instructions,"INSTRUCTIONS
At the start of each trial, look at the plus sign  (+) in the center of the screen.  This tells you that a trial is about to begin and where to look. Second, the plus sign will disappear and a string of letters will appear. Your task is to determine if the string of letters is a word or not. If the item is a word press the M key (on keyboard)  or touch the word button (phone/tablet).  If the item is not a word,  press the  Z key (on keyboard)  or touch the nonword button (on phone/tablet). 
Press the space bar or touch  continue.",0,,200284,20,2022-01-28_20h48.19.282,lexical_decision_task_DD_L3,2021.2.3,MacIntel,59.99880002,,,,,,,,,,,,,,,,,,,,,,,,,,,,,,,,,,,,,,,,,,,,,,,,,,,,,,,,,,,,,,,,,,,,,,,,,
space,5.7862,0.116038208,-0.419045478,0,0,0,0,1,1,1,1,2,instructions,"If your device has a keyboard, press the 'Z' key for nonwords and the 'M' key for words.





Press the space bar or touch the button below to continue.",0,keyboard-example.gif,200284,20,2022-01-28_20h48.19.282,lexical_decision_task_DD_L3,2021.2.3,MacIntel,59.99880002,,,,,,,,,,,,,,,,,,,,,,,,,,,,,,,,,,,,,,,,,,,,,,,,,,,,,,,,,,,,,,,,,,,,,,,,,
space,0.8876,0.116038208,-0.419045478,0,0,0,0,2,2,2,1,3,instructions,"If you are using a touchscreen only device, use the buttons on the screen. Do not use the mouse.





Press the space bar or touch the button below to continue.",0,touchscreen-example.gif,200284,20,2022-01-28_20h48.19.282,lexical_decision_task_DD_L3,2021.2.3,MacIntel,59.99880002,,,,,,,,,,,,,,,,,,,,,,,,,,,,,,,,,,,,,,,,,,,,,,,,,,,,,,,,,,,,,,,,,,,,,,,,,
space,15.3988,0.116038208,-0.419045478,0,0,0,0,3,3,3,1,4,instructions,"It is very important that you respond as quickly and accurately as possible, as each letter string will only be on the screen for two seconds. If you do not respond within this time, the message 'Too slow!' will be displayed and the experiment will progress to the next letter string. The first 20 trials will be practice trials and you will receive feedback on your answers. 

Press the space bar or touch the button below to start the practice trials.",0,,200284,20,2022-01-28_20h48.19.282,lexical_decision_task_DD_L3,2021.2.3,MacIntel,59.99880002,,,,,,,,,,,,,,,,,,,,,,,,,,,,,,,,,,,,,,,,,,,,,,,,,,,,,,,,,,,,,,,,,,,,,,,,,
,,,,,,,,,,,,,,,,,200284,20,2022-01-28_20h48.19.282,lexical_decision_task_DD_L3,2021.2.3,MacIntel,59.99880002,m,1,1.8528,,,,,,,,1.8528,1,0,0,0,0,1,1001,UTOPIA,m,,,,,,,,,,,,,,,,,,,,,,,,,,,,,,,,,,,,,,,,,,,,,,,,,,,,,
,,,,,,,,,,,,,,,,,200284,20,2022-01-28_20h48.19.282,lexical_decision_task_DD_L3,2021.2.3,MacIntel,59.99880002,z,1,1.0663,,,,,,,,1.0663,1,0,1,1,13,1,1001,ROUPET,z,,,,,,,,,,,,,,,,,,,,,,,,,,,,,,,,,,,,,,,,,,,,,,,,,,,,,
,,,,,,,,,,,,,,,,,200284,20,2022-01-28_20h48.19.282,lexical_decision_task_DD_L3,2021.2.3,MacIntel,59.99880002,z,1,0.7835,,,,,,,,0.7835,1,0,2,2,8,1,1001,ASLERT,z,,,,,,,,,,,,,,,,,,,,,,,,,,,,,,,,,,,,,,,,,,,,,,,,,,,,,
,,,,,,,,,,,,,,,,,200284,20,2022-01-28_20h48.19.282,lexical_decision_task_DD_L3,2021.2.3,MacIntel,59.99880002,z,1,0.7833,,,,,,,,0.7833,1,0,3,3,10,1,1001,INLADE,z,,,,,,,,,,,,,,,,,,,,,,,,,,,,,,,,,,,,,,,,,,,,,,,,,,,,,
,,,,,,,,,,,,,,,,,200284,20,2022-01-28_20h48.19.282,lexical_decision_task_DD_L3,2021.2.3,MacIntel,59.99880002,m,1,0.7172,,,,,,,,0.7172,1,0,4,4,2,1,1001,ALMOND,m,,,,,,,,,,,,,,,,,,,,,,,,,,,,,,,,,,,,,,,,,,,,,,,,,,,,,
,,,,,,,,,,,,,,,,,200284,20,2022-01-28_20h48.19.282,lexical_decision_task_DD_L3,2021.2.3,MacIntel,59.99880002,m,1,0.6373,,,,,,,,0.6373,1,0,5,5,3,1,1001,MATRIX,m,,,,,,,,,,,,,,,,,,,,,,,,,,,,,,,,,,,,,,,,,,,,,,,,,,,,,
,,,,,,,,,,,,,,,,,200284,20,2022-01-28_20h48.19.282,lexical_decision_task_DD_L3,2021.2.3,MacIntel,59.99880002,z,1,0.7682,,,,,,,,0.7682,1,0,6,6,9,1,1001,FARINY,z,,,,,,,,,,,,,,,,,,,,,,,,,,,,,,,,,,,,,,,,,,,,,,,,,,,,,
,,,,,,,,,,,,,,,,,200284,20,2022-01-28_20h48.19.282,lexical_decision_task_DD_L3,2021.2.3,MacIntel,59.99880002,m,1,0.5676,,,,,,,,0.5676,1,0,7,7,7,1,1001,VOLUME,m,,,,,,,,,,,,,,,,,,,,,,,,,,,,,,,,,,,,,,,,,,,,,,,,,,,,,
,,,,,,,,,,,,,,,,,200284,20,2022-01-28_20h48.19.282,lexical_decision_task_DD_L3,2021.2.3,MacIntel,59.99880002,z,1,0.9026,,,,,,,,0.9026,1,0,8,8,15,1,1001,WHAISE,z,,,,,,,,,,,,,,,,,,,,,,,,,,,,,,,,,,,,,,,,,,,,,,,,,,,,,
,,,,,,,,,,,,,,,,,200284,20,2022-01-28_20h48.19.282,lexical_decision_task_DD_L3,2021.2.3,MacIntel,59.99880002,m,1,0.535,,,,,,,,0.535,1,0,9,9,1,1,1001,ADJUST,m,,,,,,,,,,,,,,,,,,,,,,,,,,,,,,,,,,,,,,,,,,,,,,,,,,,,,
,,,,,,,,,,,,,,,,,200284,20,2022-01-28_20h48.19.282,lexical_decision_task_DD_L3,2021.2.3,MacIntel,59.99880002,z,1,0.7501,,,,,,,,0.7501,1,0,10,10,12,1,1001,SPRINY,z,,,,,,,,,,,,,,,,,,,,,,,,,,,,,,,,,,,,,,,,,,,,,,,,,,,,,
,,,,,,,,,,,,,,,,,200284,20,2022-01-28_20h48.19.282,lexical_decision_task_DD_L3,2021.2.3,MacIntel,59.99880002,z,1,0.7256,,,,,,,,0.7256,1,0,11,11,11,1,1001,RASHET,z,,,,,,,,,,,,,,,,,,,,,,,,,,,,,,,,,,,,,,,,,,,,,,,,,,,,,
,,,,,,,,,,,,,,,,,200284,20,2022-01-28_20h48.19.282,lexical_decision_task_DD_L3,2021.2.3,MacIntel,59.99880002,m,1,0.5007,,,,,,,,0.5007,1,0,12,12,6,1,1001,ZOMBIE,m,,,,,,,,,,,,,,,,,,,,,,,,,,,,,,,,,,,,,,,,,,,,,,,,,,,,,
,,,,,,,,,,,,,,,,,200284,20,2022-01-28_20h48.19.282,lexical_decision_task_DD_L3,2021.2.3,MacIntel,59.99880002,m,1,0.566,,,,,,,,0.566,1,0,13,13,5,1,1001,OBTAIN,m,,,,,,,,,,,,,,,,,,,,,,,,,,,,,,,,,,,,,,,,,,,,,,,,,,,,,
,,,,,,,,,,,,,,,,,200284,20,2022-01-28_20h48.19.282,lexical_decision_task_DD_L3,2021.2.3,MacIntel,59.99880002,z,1,0.667,,,,,,,,0.667,1,0,14,14,14,1,1001,THRALE,z,,,,,,,,,,,,,,,,,,,,,,,,,,,,,,,,,,,,,,,,,,,,,,,,,,,,,
,,,,,,,,,,,,,,,,,200284,20,2022-01-28_20h48.19.282,lexical_decision_task_DD_L3,2021.2.3,MacIntel,59.99880002,m,1,0.5881,,,,,,,,0.5881,1,0,15,15,4,1,1001,SQUEAK,m,,,,,,,,,,,,,,,,,,,,,,,,,,,,,,,,,,,,,,,,,,,,,,,,,,,,,
space,18.4336,0.116038208,-0.419045478,0,0,0,,,,,,1,end_of_practice,"You have completed the practice trials. During the experimental trials, you will not receive feedback. 
Before you begin, please ensure that you are in a comfortable and quiet location and will not be disturbed for about 15 minutes, as we cannot use your data if you do not complete all the trials. 
 When you are ready to start the experimental trials, please press space or touch the button below.",,,200284,20,2022-01-28_20h48.19.282,lexical_decision_task_DD_L3,2021.2.3,MacIntel,59.99880002,,,,,,,,,,,,,,,,,,,,,0,0,0,0,1,,,,,,,,,,,,,,,,,,,,,,,,,,,,,,,,,,,,,,,,,,,,,,,,
,,,,,,,,,,,,,,,,,200284,20,2022-01-28_20h48.19.282,lexical_decision_task_DD_L3,2021.2.3,MacIntel,59.99880002,,,,,,,,,,,0.7499,1,,,,,,,,,,,,,,m,1,0.7499,,,,,,,,0.116038208,-0.419045478,0,0,0,,0,0,0,61,1,CANDLE,C,old,m,./images/CANDLE.png,,,,,,,,,,,,,,,,,,,,,,
,,,,,,,,,,,,,,,,,200284,20,2022-01-28_20h48.19.282,lexical_decision_task_DD_L3,2021.2.3,MacIntel,59.99880002,,,,,,,,,,,0.6294,1,,,,,,,,,,,,,,m,1,0.6294,,,,,,,,0.116038208,-0.419045478,0,0,0,,0,1,1,22,1,MELON,C,old,m,./images/MELON.png,,,,,,,,,,,,,,,,,,,,,,
,,,,,,,,,,,,,,,,,200284,20,2022-01-28_20h48.19.282,lexical_decision_task_DD_L3,2021.2.3,MacIntel,59.99880002,,,,,,,,,,,0.8002,1,,,,,,,,,,,,,,z,1,0.8002,,,,,,,,0.116038208,-0.419045478,0,0,0,,0,2,2,122,1,BLOOT,LB,old,z,./images/BLOOTLB.png,,,,,,,,,,,,,,,,,,,,,,
,,,,,,,,,,,,,,,,,200284,20,2022-01-28_20h48.19.282,lexical_decision_task_DD_L3,2021.2.3,MacIntel,59.99880002,,,,,,,,,,,0.5604,0,,,,,,,,,,,,,,m,0,0.5604,,,,,,,,0.116038208,-0.419045478,0,0,0,,0,3,3,108,1,GRUET,C,old,z,./images/GRUET.png,,,,,,,,,,,,,,,,,,,,,,
,,,,,,,,,,,,,,,,,200284,20,2022-01-28_20h48.19.282,lexical_decision_task_DD_L3,2021.2.3,MacIntel,59.99880002,,,,,,,,,,,1.438,1,,,,,,,,,,,,,,z,1,1.438,,,,,,,,0.116038208,-0.419045478,0,0,0,,0,4,4,112,1,MYING,HB,old,z,./images/MYINGHB.png,,,,,,,,,,,,,,,,,,,,,,
,,,,,,,,,,,,,,,,,200284,20,2022-01-28_20h48.19.282,lexical_decision_task_DD_L3,2021.2.3,MacIntel,59.99880002,,,,,,,,,,,0.6383,1,,,,,,,,,,,,,,m,1,0.6383,,,,,,,,0.116038208,-0.419045478,0,0,0,,0,5,5,16,1,PENCE,C,old,m,./images/PENCE.png,,,,,,,,,,,,,,,,,,,,,,
,,,,,,,,,,,,,,,,,200284,20,2022-01-28_20h48.19.282,lexical_decision_task_DD_L3,2021.2.3,MacIntel,59.99880002,,,,,,,,,,,0.6975,1,,,,,,,,,,,,,,m,1,0.6975,,,,,,,,0.116038208,-0.419045478,0,0,0,,0,6,6,41,1,STRING,HB,old,m,./images/STRINGHB.png,,,,,,,,,,,,,,,,,,,,,,
,,,,,,,,,,,,,,,,,200284,20,2022-01-28_20h48.19.282,lexical_decision_task_DD_L3,2021.2.3,MacIntel,59.99880002,,,,,,,,,,,0.5179,0,,,,,,,,,,,,,,m,0,0.5179,,,,,,,,0.116038208,-0.419045478,0,0,0,,0,7,7,143,1,MONGS,LB,old,z,./images/MONGSLB.png,,,,,,,,,,,,,,,,,,,,,,
,,,,,,,,,,,,,,,,,200284,20,2022-01-28_20h48.19.282,lexical_decision_task_DD_L3,2021.2.3,MacIntel,59.99880002,,,,,,,,,,,0.5324,1,,,,,,,,,,,,,,m,1,0.5324,,,,,,,,0.116038208,-0.419045478,0,0,0,,0,8,8,51,1,ONION,LB,old,m,./images/ONIONLB.png,,,,,,,,,,,,,,,,,,,,,,
,,,,,,,,,,,,,,,,,200284,20,2022-01-28_20h48.19.282,lexical_decision_task_DD_L3,2021.2.3,MacIntel,59.99880002,,,,,,,,,,,0.7853,1,,,,,,,,,,,,,,m,1,0.7853,,,,,,,,0.116038208,-0.419045478,0,0,0,,0,9,9,8,1,TULIP,HB,old,m,./images/TULIPHB.png,,,,,,,,,,,,,,,,,,,,,,
,,,,,,,,,,,,,,,,,200284,20,2022-01-28_20h48.19.282,lexical_decision_task_DD_L3,2021.2.3,MacIntel,59.99880002,,,,,,,,,,,1.2352,0,,,,,,,,,,,,,,m,0,1.2352,,,,,,,,0.116038208,-0.419045478,0,0,0,,0,10,10,157,1,INLER,HB,old,z,./images/INLERHB.png,,,,,,,,,,,,,,,,,,,,,,
,,,,,,,,,,,,,,,,,200284,20,2022-01-28_20h48.19.282,lexical_decision_task_DD_L3,2021.2.3,MacIntel,59.99880002,,,,,,,,,,,1.6741,1,,,,,,,,,,,,,,z,1,1.6741,,,,,,,,0.116038208,-0.419045478,0,0,0,,0,11,11,106,1,CLUMS,HB,old,z,./images/CLUMSHB.png,,,,,,,,,,,,,,,,,,,,,,
,,,,,,,,,,,,,,,,,200284,20,2022-01-28_20h48.19.282,lexical_decision_task_DD_L3,2021.2.3,MacIntel,59.99880002,,,,,,,,,,,0.9661,0,,,,,,,,,,,,,,m,0,0.9661,,,,,,,,0.116038208,-0.419045478,0,0,0,,0,12,12,163,1,GAMBA,HB,old,z,./images/GAMBAHB.png,,,,,,,,,,,,,,,,,,,,,,
,,,,,,,,,,,,,,,,,200284,20,2022-01-28_20h48.19.282,lexical_decision_task_DD_L3,2021.2.3,MacIntel,59.99880002,,,,,,,,,,,0.817,1,,,,,,,,,,,,,,z,1,0.817,,,,,,,,0.116038208,-0.419045478,0,0,0,,0,13,13,155,1,CANGY,LB,old,z,./images/CANGYLB.png,,,,,,,,,,,,,,,,,,,,,,
,,,,,,,,,,,,,,,,,200284,20,2022-01-28_20h48.19.282,lexical_decision_task_DD_L3,2021.2.3,MacIntel,59.99880002,,,,,,,,,,,0.8259,0,,,,,,,,,,,,,,m,0,0.8259,,,,,,,,0.116038208,-0.419045478,0,0,0,,0,14,14,101,1,GLEET,LB,old,z,./images/GLEETLB.png,,,,,,,,,,,,,,,,,,,,,,
,,,,,,,,,,,,,,,,,200284,20,2022-01-28_20h48.19.282,lexical_decision_task_DD_L3,2021.2.3,MacIntel,59.99880002,,,,,,,,,,,0.9204,1,,,,,,,,,,,,,,z,1,0.9204,,,,,,,,0.116038208,-0.419045478,0,0,0,,0,15,15,156,1,HIXES,C,old,z,./images/HIXES.png,,,,,,,,,,,,,,,,,,,,,,
,,,,,,,,,,,,,,,,,200284,20,2022-01-28_20h48.19.282,lexical_decision_task_DD_L3,2021.2.3,MacIntel,59.99880002,,,,,,,,,,,1.0014,1,,,,,,,,,,,,,,z,1,1.0014,,,,,,,,0.116038208,-0.419045478,0,0,0,,0,16,16,86,1,AIFED,LB,old,z,./images/AIFEDLB.png,,,,,,,,,,,,,,,,,,,,,,
,,,,,,,,,,,,,,,,,200284,20,2022-01-28_20h48.19.282,lexical_decision_task_DD_L3,2021.2.3,MacIntel,59.99880002,,,,,,,,,,,0.9012,1,,,,,,,,,,,,,,m,1,0.9012,,,,,,,,0.116038208,-0.419045478,0,0,0,,0,17,17,43,1,MOSQUE,C,old,m,./images/MOSQUE.png,,,,,,,,,,,,,,,,,,,,,,
,,,,,,,,,,,,,,,,,200284,20,2022-01-28_20h48.19.282,lexical_decision_task_DD_L3,2021.2.3,MacIntel,59.99880002,,,,,,,,,,,0.7703,1,,,,,,,,,,,,,,m,1,0.7703,,,,,,,,0.116038208,-0.419045478,0,0,0,,0,18,18,29,1,CRUMB,HB,old,m,./images/CRUMBHB.png,,,,,,,,,,,,,,,,,,,,,,
,,,,,,,,,,,,,,,,,200284,20,2022-01-28_20h48.19.282,lexical_decision_task_DD_L3,2021.2.3,MacIntel,59.99880002,,,,,,,,,,,1.0688,1,,,,,,,,,,,,,,z,1,1.0688,,,,,,,,0.116038208,-0.419045478,0,0,0,,0,19,19,166,1,SHORY,HB,old,z,./images/SHORYHB.png,,,,,,,,,,,,,,,,,,,,,,
,,,,,,,,,,,,,,,,,200284,20,2022-01-28_20h48.19.282,lexical_decision_task_DD_L3,2021.2.3,MacIntel,59.99880002,,,,,,,,,,,0.8,1,,,,,,,,,,,,,,m,1,0.8,,,,,,,,0.116038208,-0.419045478,0,0,0,,0,20,20,1,1,PLANK,C,old,m,./images/PLANK.png,,,,,,,,,,,,,,,,,,,,,,
,,,,,,,,,,,,,,,,,200284,20,2022-01-28_20h48.19.282,lexical_decision_task_DD_L3,2021.2.3,MacIntel,59.99880002,,,,,,,,,,,0.7421,1,,,,,,,,,,,,,,m,1,0.7421,,,,,,,,0.116038208,-0.419045478,0,0,0,,0,21,21,19,1,DOUGH,C,old,m,./images/DOUGH.png,,,,,,,,,,,,,,,,,,,,,,
,,,,,,,,,,,,,,,,,200284,20,2022-01-28_20h48.19.282,lexical_decision_task_DD_L3,2021.2.3,MacIntel,59.99880002,,,,,,,,,,,0.5428,1,,,,,,,,,,,,,,m,1,0.5428,,,,,,,,0.116038208,-0.419045478,0,0,0,,0,22,22,63,1,MIRROR,LB,old,m,./images/MIRRORLB.png,,,,,,,,,,,,,,,,,,,,,,
,,,,,,,,,,,,,,,,,200284,20,2022-01-28_20h48.19.282,lexical_decision_task_DD_L3,2021.2.3,MacIntel,59.99880002,,,,,,,,,,,0.9041,1,,,,,,,,,,,,,,z,1,0.9041,,,,,,,,0.116038208,-0.419045478,0,0,0,,0,23,23,164,1,SGREW,LB,old,z,./images/SGREWLB.png,,,,,,,,,,,,,,,,,,,,,,
,,,,,,,,,,,,,,,,,200284,20,2022-01-28_20h48.19.282,lexical_decision_task_DD_L3,2021.2.3,MacIntel,59.99880002,,,,,,,,,,,1.4134,1,,,,,,,,,,,,,,z,1,1.4134,,,,,,,,0.116038208,-0.419045478,0,0,0,,0,24,24,130,1,CRILL,HB,old,z,./images/CRILLHB.png,,,,,,,,,,,,,,,,,,,,,,
,,,,,,,,,,,,,,,,,200284,20,2022-01-28_20h48.19.282,lexical_decision_task_DD_L3,2021.2.3,MacIntel,59.99880002,,,,,,,,,,,0.6021,0,,,,,,,,,,,,,,m,0,0.6021,,,,,,,,0.116038208,-0.419045478,0,0,0,,0,25,25,146,1,MOOST,LB,old,z,./images/MOOSTLB.png,,,,,,,,,,,,,,,,,,,,,,
,,,,,,,,,,,,,,,,,200284,20,2022-01-28_20h48.19.282,lexical_decision_task_DD_L3,2021.2.3,MacIntel,59.99880002,,,,,,,,,,,0.5014,1,,,,,,,,,,,,,,m,1,0.5014,,,,,,,,0.116038208,-0.419045478,0,0,0,,0,26,26,82,1,SUNSET,C,old,m,./images/SUNSET.png,,,,,,,,,,,,,,,,,,,,,,
,,,,,,,,,,,,,,,,,200284,20,2022-01-28_20h48.19.282,lexical_decision_task_DD_L3,2021.2.3,MacIntel,59.99880002,,,,,,,,,,,0.6853,1,,,,,,,,,,,,,,z,1,0.6853,,,,,,,,0.116038208,-0.419045478,0,0,0,,0,27,27,125,1,MOOKY,LB,old,z,./images/MOOKYLB.png,,,,,,,,,,,,,,,,,,,,,,
,,,,,,,,,,,,,,,,,200284,20,2022-01-28_20h48.19.282,lexical_decision_task_DD_L3,2021.2.3,MacIntel,59.99880002,,,,,,,,,,,0.6699,1,,,,,,,,,,,,,,m,1,0.6699,,,,,,,,0.116038208,-0.419045478,0,0,0,,0,28,28,38,1,LADDER,HB,old,m,./images/LADDERHB.png,,,,,,,,,,,,,,,,,,,,,,
,,,,,,,,,,,,,,,,,200284,20,2022-01-28_20h48.19.282,lexical_decision_task_DD_L3,2021.2.3,MacIntel,59.99880002,,,,,,,,,,,0.9838,1,,,,,,,,,,,,,,z,1,0.9838,,,,,,,,0.116038208,-0.419045478,0,0,0,,0,29,29,87,1,TRING,C,old,z,./images/TRING.png,,,,,,,,,,,,,,,,,,,,,,
,,,,,,,,,,,,,,,,,200284,20,2022-01-28_20h48.19.282,lexical_decision_task_DD_L3,2021.2.3,MacIntel,59.99880002,,,,,,,,,,,0.9005,1,,,,,,,,,,,,,,z,1,0.9005,,,,,,,,0.116038208,-0.419045478,0,0,0,,0,30,30,167,1,ZONET,LB,old,z,./images/ZONETLB.png,,,,,,,,,,,,,,,,,,,,,,
,,,,,,,,,,,,,,,,,200284,20,2022-01-28_20h48.19.282,lexical_decision_task_DD_L3,2021.2.3,MacIntel,59.99880002,,,,,,,,,,,0.5667,1,,,,,,,,,,,,,,m,1,0.5667,,,,,,,,0.116038208,-0.419045478,0,0,0,,0,31,31,57,1,MOOSE,LB,old,m,./images/MOOSELB.png,,,,,,,,,,,,,,,,,,,,,,
,,,,,,,,,,,,,,,,,200284,20,2022-01-28_20h48.19.282,lexical_decision_task_DD_L3,2021.2.3,MacIntel,59.99880002,,,,,,,,,,,0.6902,1,,,,,,,,,,,,,,m,1,0.6902,,,,,,,,0.116038208,-0.419045478,0,0,0,,0,32,32,52,1,BANNER,C,old,m,./images/BANNER.png,,,,,,,,,,,,,,,,,,,,,,
,,,,,,,,,,,,,,,,,200284,20,2022-01-28_20h48.19.282,lexical_decision_task_DD_L3,2021.2.3,MacIntel,59.99880002,,,,,,,,,,,1.3357,1,,,,,,,,,,,,,,m,1,1.3357,,,,,,,,0.116038208,-0.419045478,0,0,0,,0,33,33,80,1,WEASEL,HB,old,m,./images/WEASELHB.png,,,,,,,,,,,,,,,,,,,,,,
,,,,,,,,,,,,,,,,,200284,20,2022-01-28_20h48.19.282,lexical_decision_task_DD_L3,2021.2.3,MacIntel,59.99880002,,,,,,,,,,,0.6354,1,,,,,,,,,,,,,,m,1,0.6354,,,,,,,,0.116038208,-0.419045478,0,0,0,,0,34,34,24,1,SCREW,LB,old,m,./images/SCREWLB.png,,,,,,,,,,,,,,,,,,,,,,
,,,,,,,,,,,,,,,,,200284,20,2022-01-28_20h48.19.282,lexical_decision_task_DD_L3,2021.2.3,MacIntel,59.99880002,,,,,,,,,,,0.6057,1,,,,,,,,,,,,,,m,1,0.6057,,,,,,,,0.116038208,-0.419045478,0,0,0,,0,35,35,74,1,CEMENT,HB,old,m,./images/CEMENTHB.png,,,,,,,,,,,,,,,,,,,,,,
,,,,,,,,,,,,,,,,,200284,20,2022-01-28_20h48.19.282,lexical_decision_task_DD_L3,2021.2.3,MacIntel,59.99880002,,,,,,,,,,,0.4353,1,,,,,,,,,,,,,,m,1,0.4353,,,,,,,,0.116038208,-0.419045478,0,0,0,,0,36,36,0,1,TOMATO,LB,old,m,./images/TOMATOLB.png,,,,,,,,,,,,,,,,,,,,,,
,,,,,,,,,,,,,,,,,200284,20,2022-01-28_20h48.19.282,lexical_decision_task_DD_L3,2021.2.3,MacIntel,59.99880002,,,,,,,,,,,0.5192,0,,,,,,,,,,,,,,z,0,0.5192,,,,,,,,0.116038208,-0.419045478,0,0,0,,0,37,37,31,1,QUILL,C,old,m,./images/QUILL.png,,,,,,,,,,,,,,,,,,,,,,
,,,,,,,,,,,,,,,,,200284,20,2022-01-28_20h48.19.282,lexical_decision_task_DD_L3,2021.2.3,MacIntel,59.99880002,,,,,,,,,,,0.5834,1,,,,,,,,,,,,,,m,1,0.5834,,,,,,,,0.116038208,-0.419045478,0,0,0,,0,38,38,33,1,MAGGOT,LB,old,m,./images/MAGGOTLB.png,,,,,,,,,,,,,,,,,,,,,,
,,,,,,,,,,,,,,,,,200284,20,2022-01-28_20h48.19.282,lexical_decision_task_DD_L3,2021.2.3,MacIntel,59.99880002,,,,,,,,,,,0.7507,1,,,,,,,,,,,,,,m,1,0.7507,,,,,,,,0.116038208,-0.419045478,0,0,0,,0,39,39,65,1,FARMER,HB,old,m,./images/FARMERHB.png,,,,,,,,,,,,,,,,,,,,,,
,,,,,,,,,,,,,,,,,200284,20,2022-01-28_20h48.19.282,lexical_decision_task_DD_L3,2021.2.3,MacIntel,59.99880002,,,,,,,,,,,0.6162,1,,,,,,,,,,,,,,m,1,0.6162,,,,,,,,0.116038208,-0.419045478,0,0,0,,0,40,40,2,1,BEARD,HB,old,m,./images/BEARDHB.png,,,,,,,,,,,,,,,,,,,,,,
,,,,,,,,,,,,,,,,,200284,20,2022-01-28_20h48.19.282,lexical_decision_task_DD_L3,2021.2.3,MacIntel,59.99880002,,,,,,,,,,,0.9084,1,,,,,,,,,,,,,,z,1,0.9084,,,,,,,,0.116038208,-0.419045478,0,0,0,space,0,41,41,109,1,BURGE,HB,old,z,./images/BURGEHB.png,8.8015,,,,,,,,,,,,,,,,,,,,,
,,,,,,,,,,,,,,,,,200284,20,2022-01-28_20h48.19.282,lexical_decision_task_DD_L3,2021.2.3,MacIntel,59.99880002,,,,,,,,,,,1.005,1,,,,,,,,,,,,,,m,1,1.005,,,,,,,,0.116038208,-0.419045478,0,0,0,,0,42,42,23,1,WALRUS,HB,old,m,./images/WALRUSHB.png,,,,,,,,,,,,,,,,,,,,,,
,,,,,,,,,,,,,,,,,200284,20,2022-01-28_20h48.19.282,lexical_decision_task_DD_L3,2021.2.3,MacIntel,59.99880002,,,,,,,,,,,0.7546,1,,,,,,,,,,,,,,z,1,0.7546,,,,,,,,0.116038208,-0.419045478,0,0,0,,0,43,43,145,1,LAMEL,HB,old,z,./images/LAMELHB.png,,,,,,,,,,,,,,,,,,,,,,
,,,,,,,,,,,,,,,,,200284,20,2022-01-28_20h48.19.282,lexical_decision_task_DD_L3,2021.2.3,MacIntel,59.99880002,,,,,,,,,,,0.602,1,,,,,,,,,,,,,,m,1,0.602,,,,,,,,0.116038208,-0.419045478,0,0,0,,0,44,44,53,1,CARPET,HB,old,m,./images/CARPETHB.png,,,,,,,,,,,,,,,,,,,,,,
,,,,,,,,,,,,,,,,,200284,20,2022-01-28_20h48.19.282,lexical_decision_task_DD_L3,2021.2.3,MacIntel,59.99880002,,,,,,,,,,,0.5705,1,,,,,,,,,,,,,,m,1,0.5705,,,,,,,,0.116038208,-0.419045478,0,0,0,,0,45,45,10,1,BELLY,C,old,m,./images/BELLY.png,,,,,,,,,,,,,,,,,,,,,,
,,,,,,,,,,,,,,,,,200284,20,2022-01-28_20h48.19.282,lexical_decision_task_DD_L3,2021.2.3,MacIntel,59.99880002,,,,,,,,,,,0.4825,1,,,,,,,,,,,,,,m,1,0.4825,,,,,,,,0.116038208,-0.419045478,0,0,0,,0,46,46,25,1,WRIST,C,old,m,./images/WRIST.png,,,,,,,,,,,,,,,,,,,,,,
,,,,,,,,,,,,,,,,,200284,20,2022-01-28_20h48.19.282,lexical_decision_task_DD_L3,2021.2.3,MacIntel,59.99880002,,,,,,,,,,,0.7525,0,,,,,,,,,,,,,,z,0,0.7525,,,,,,,,0.116038208,-0.419045478,0,0,0,,0,47,47,50,1,MALLET,HB,old,m,./images/MALLETHB.png,,,,,,,,,,,,,,,,,,,,,,
,,,,,,,,,,,,,,,,,200284,20,2022-01-28_20h48.19.282,lexical_decision_task_DD_L3,2021.2.3,MacIntel,59.99880002,,,,,,,,,,,0.7065,1,,,,,,,,,,,,,,m,1,0.7065,,,,,,,,0.116038208,-0.419045478,0,0,0,,0,48,48,59,1,BURIAL,HB,old,m,./images/BURIALHB.png,,,,,,,,,,,,,,,,,,,,,,
,,,,,,,,,,,,,,,,,200284,20,2022-01-28_20h48.19.282,lexical_decision_task_DD_L3,2021.2.3,MacIntel,59.99880002,,,,,,,,,,,0.5176,1,,,,,,,,,,,,,,m,1,0.5176,,,,,,,,0.116038208,-0.419045478,0,0,0,,0,49,49,60,1,TWINS,LB,old,m,./images/TWINSLB.png,,,,,,,,,,,,,,,,,,,,,,
,,,,,,,,,,,,,,,,,200284,20,2022-01-28_20h48.19.282,lexical_decision_task_DD_L3,2021.2.3,MacIntel,59.99880002,,,,,,,,,,,0.4827,1,,,,,,,,,,,,,,m,1,0.4827,,,,,,,,0.116038208,-0.419045478,0,0,0,,0,50,50,79,1,CRUST,C,old,m,./images/CRUST.png,,,,,,,,,,,,,,,,,,,,,,
,,,,,,,,,,,,,,,,,200284,20,2022-01-28_20h48.19.282,lexical_decision_task_DD_L3,2021.2.3,MacIntel,59.99880002,,,,,,,,,,,0.6258,1,,,,,,,,,,,,,,m,1,0.6258,,,,,,,,0.116038208,-0.419045478,0,0,0,,0,51,51,18,1,JAGUAR,LB,old,m,./images/JAGUARLB.png,,,,,,,,,,,,,,,,,,,,,,
,,,,,,,,,,,,,,,,,200284,20,2022-01-28_20h48.19.282,lexical_decision_task_DD_L3,2021.2.3,MacIntel,59.99880002,,,,,,,,,,,0.6681,0,,,,,,,,,,,,,,m,0,0.6681,,,,,,,,0.116038208,-0.419045478,0,0,0,,0,52,52,152,1,FRAIN,LB,old,z,./images/FRAINLB.png,,,,,,,,,,,,,,,,,,,,,,
,,,,,,,,,,,,,,,,,200284,20,2022-01-28_20h48.19.282,lexical_decision_task_DD_L3,2021.2.3,MacIntel,59.99880002,,,,,,,,,,,0.6012,1,,,,,,,,,,,,,,m,1,0.6012,,,,,,,,0.116038208,-0.419045478,0,0,0,,0,53,53,48,1,SPORT,LB,old,m,./images/SPORTLB.png,,,,,,,,,,,,,,,,,,,,,,
,,,,,,,,,,,,,,,,,200284,20,2022-01-28_20h48.19.282,lexical_decision_task_DD_L3,2021.2.3,MacIntel,59.99880002,,,,,,,,,,,0.6676,1,,,,,,,,,,,,,,m,1,0.6676,,,,,,,,0.116038208,-0.419045478,0,0,0,,0,54,54,26,1,SMOKER,HB,old,m,./images/SMOKERHB.png,,,,,,,,,,,,,,,,,,,,,,
,,,,,,,,,,,,,,,,,200284,20,2022-01-28_20h48.19.282,lexical_decision_task_DD_L3,2021.2.3,MacIntel,59.99880002,,,,,,,,,,,0.4507,0,,,,,,,,,,,,,,m,0,0.4507,,,,,,,,0.116038208,-0.419045478,0,0,0,,0,55,55,149,1,VEASE,LB,old,z,./images/VEASELB.png,,,,,,,,,,,,,,,,,,,,,,
,,,,,,,,,,,,,,,,,200284,20,2022-01-28_20h48.19.282,lexical_decision_task_DD_L3,2021.2.3,MacIntel,59.99880002,,,,,,,,,,,1.0509,1,,,,,,,,,,,,,,z,1,1.0509,,,,,,,,0.116038208,-0.419045478,0,0,0,,0,56,56,133,1,POWDY,HB,old,z,./images/POWDYHB.png,,,,,,,,,,,,,,,,,,,,,,
,,,,,,,,,,,,,,,,,200284,20,2022-01-28_20h48.19.282,lexical_decision_task_DD_L3,2021.2.3,MacIntel,59.99880002,,,,,,,,,,,1.2676,1,,,,,,,,,,,,,,z,1,1.2676,,,,,,,,0.116038208,-0.419045478,0,0,0,,0,57,57,127,1,NINDY,HB,old,z,./images/NINDYHB.png,,,,,,,,,,,,,,,,,,,,,,
,,,,,,,,,,,,,,,,,200284,20,2022-01-28_20h48.19.282,lexical_decision_task_DD_L3,2021.2.3,MacIntel,59.99880002,,,,,,,,,,,0.5985,1,,,,,,,,,,,,,,m,1,0.5985,,,,,,,,0.116038208,-0.419045478,0,0,0,,0,58,58,64,1,JELLY,C,old,m,./images/JELLY.png,,,,,,,,,,,,,,,,,,,,,,
,,,,,,,,,,,,,,,,,200284,20,2022-01-28_20h48.19.282,lexical_decision_task_DD_L3,2021.2.3,MacIntel,59.99880002,,,,,,,,,,,0.522,1,,,,,,,,,,,,,,m,1,0.522,,,,,,,,0.116038208,-0.419045478,0,0,0,,0,59,59,4,1,MUSCLE,C,old,m,./images/MUSCLE.png,,,,,,,,,,,,,,,,,,,,,,
,,,,,,,,,,,,,,,,,200284,20,2022-01-28_20h48.19.282,lexical_decision_task_DD_L3,2021.2.3,MacIntel,59.99880002,,,,,,,,,,,0.682,1,,,,,,,,,,,,,,z,1,0.682,,,,,,,,0.116038208,-0.419045478,0,0,0,,0,60,60,114,1,RIKES,C,old,z,./images/RIKES.png,,,,,,,,,,,,,,,,,,,,,,
,,,,,,,,,,,,,,,,,200284,20,2022-01-28_20h48.19.282,lexical_decision_task_DD_L3,2021.2.3,MacIntel,59.99880002,,,,,,,,,,,0.6512,1,,,,,,,,,,,,,,m,1,0.6512,,,,,,,,0.116038208,-0.419045478,0,0,0,,0,61,61,70,1,URINE,C,old,m,./images/URINE.png,,,,,,,,,,,,,,,,,,,,,,
,,,,,,,,,,,,,,,,,200284,20,2022-01-28_20h48.19.282,lexical_decision_task_DD_L3,2021.2.3,MacIntel,59.99880002,,,,,,,,,,,0.5717,1,,,,,,,,,,,,,,m,1,0.5717,,,,,,,,0.116038208,-0.419045478,0,0,0,,0,62,62,35,1,PEACH,HB,old,m,./images/PEACHHB.png,,,,,,,,,,,,,,,,,,,,,,
,,,,,,,,,,,,,,,,,200284,20,2022-01-28_20h48.19.282,lexical_decision_task_DD_L3,2021.2.3,MacIntel,59.99880002,,,,,,,,,,,0.9371,1,,,,,,,,,,,,,,m,1,0.9371,,,,,,,,0.116038208,-0.419045478,0,0,0,,0,63,63,28,1,FALCON,C,old,m,./images/FALCON.png,,,,,,,,,,,,,,,,,,,,,,
,,,,,,,,,,,,,,,,,200284,20,2022-01-28_20h48.19.282,lexical_decision_task_DD_L3,2021.2.3,MacIntel,59.99880002,,,,,,,,,,,0.5508,1,,,,,,,,,,,,,,m,1,0.5508,,,,,,,,0.116038208,-0.419045478,0,0,0,,0,64,64,81,1,POODLE,LB,old,m,./images/POODLELB.png,,,,,,,,,,,,,,,,,,,,,,
,,,,,,,,,,,,,,,,,200284,20,2022-01-28_20h48.19.282,lexical_decision_task_DD_L3,2021.2.3,MacIntel,59.99880002,,,,,,,,,,,0.8533,1,,,,,,,,,,,,,,m,1,0.8533,,,,,,,,0.116038208,-0.419045478,0,0,0,,0,65,65,14,1,PICKLE,HB,old,m,./images/PICKLEHB.png,,,,,,,,,,,,,,,,,,,,,,
,,,,,,,,,,,,,,,,,200284,20,2022-01-28_20h48.19.282,lexical_decision_task_DD_L3,2021.2.3,MacIntel,59.99880002,,,,,,,,,,,0.7172,1,,,,,,,,,,,,,,z,1,0.7172,,,,,,,,0.116038208,-0.419045478,0,0,0,,0,66,66,148,1,JOMS,HB,old,z,./images/JOMSHB.png,,,,,,,,,,,,,,,,,,,,,,
,,,,,,,,,,,,,,,,,200284,20,2022-01-28_20h48.19.282,lexical_decision_task_DD_L3,2021.2.3,MacIntel,59.99880002,,,,,,,,,,,0.7073,1,,,,,,,,,,,,,,z,1,0.7073,,,,,,,,0.116038208,-0.419045478,0,0,0,,0,67,67,119,1,PAFER,LB,old,z,./images/PAFERLB.png,,,,,,,,,,,,,,,,,,,,,,
,,,,,,,,,,,,,,,,,200284,20,2022-01-28_20h48.19.282,lexical_decision_task_DD_L3,2021.2.3,MacIntel,59.99880002,,,,,,,,,,,0.7694,1,,,,,,,,,,,,,,z,1,0.7694,,,,,,,,0.116038208,-0.419045478,0,0,0,,0,68,68,147,1,ZOLES,C,old,z,./images/ZOLES.png,,,,,,,,,,,,,,,,,,,,,,
,,,,,,,,,,,,,,,,,200284,20,2022-01-28_20h48.19.282,lexical_decision_task_DD_L3,2021.2.3,MacIntel,59.99880002,,,,,,,,,,,0.7857,1,,,,,,,,,,,,,,m,1,0.7857,,,,,,,,0.116038208,-0.419045478,0,0,0,,0,69,69,11,1,BONNET,HB,old,m,./images/BONNETHB.png,,,,,,,,,,,,,,,,,,,,,,
,,,,,,,,,,,,,,,,,200284,20,2022-01-28_20h48.19.282,lexical_decision_task_DD_L3,2021.2.3,MacIntel,59.99880002,,,,,,,,,,,0.4895,1,,,,,,,,,,,,,,m,1,0.4895,,,,,,,,0.116038208,-0.419045478,0,0,0,,0,70,70,7,1,PAINT,C,old,m,./images/PAINT.png,,,,,,,,,,,,,,,,,,,,,,
,,,,,,,,,,,,,,,,,200284,20,2022-01-28_20h48.19.282,lexical_decision_task_DD_L3,2021.2.3,MacIntel,59.99880002,,,,,,,,,,,0.7556,1,,,,,,,,,,,,,,z,1,0.7556,,,,,,,,0.116038208,-0.419045478,0,0,0,,0,71,71,139,1,BLEAR,HB,old,z,./images/BLEARHB.png,,,,,,,,,,,,,,,,,,,,,,
,,,,,,,,,,,,,,,,,200284,20,2022-01-28_20h48.19.282,lexical_decision_task_DD_L3,2021.2.3,MacIntel,59.99880002,,,,,,,,,,,1.1507,1,,,,,,,,,,,,,,z,1,1.1507,,,,,,,,0.116038208,-0.419045478,0,0,0,,0,72,72,121,1,CEERS,HB,old,z,./images/CEERSHB.png,,,,,,,,,,,,,,,,,,,,,,
,,,,,,,,,,,,,,,,,200284,20,2022-01-28_20h48.19.282,lexical_decision_task_DD_L3,2021.2.3,MacIntel,59.99880002,,,,,,,,,,,0.7059,1,,,,,,,,,,,,,,m,1,0.7059,,,,,,,,0.116038208,-0.419045478,0,0,0,,0,73,73,42,1,FOLDER,LB,old,m,./images/FOLDERLB.png,,,,,,,,,,,,,,,,,,,,,,
,,,,,,,,,,,,,,,,,200284,20,2022-01-28_20h48.19.282,lexical_decision_task_DD_L3,2021.2.3,MacIntel,59.99880002,,,,,,,,,,,0.601,1,,,,,,,,,,,,,,m,1,0.601,,,,,,,,0.116038208,-0.419045478,0,0,0,,0,74,74,77,1,COUCH,HB,old,m,./images/COUCHHB.png,,,,,,,,,,,,,,,,,,,,,,
,,,,,,,,,,,,,,,,,200284,20,2022-01-28_20h48.19.282,lexical_decision_task_DD_L3,2021.2.3,MacIntel,59.99880002,,,,,,,,,,,0.6339,1,,,,,,,,,,,,,,z,1,0.6339,,,,,,,,0.116038208,-0.419045478,0,0,0,,0,75,75,90,1,NEAST,C,old,z,./images/NEAST.png,,,,,,,,,,,,,,,,,,,,,,
,,,,,,,,,,,,,,,,,200284,20,2022-01-28_20h48.19.282,lexical_decision_task_DD_L3,2021.2.3,MacIntel,59.99880002,,,,,,,,,,,0.6228,1,,,,,,,,,,,,,,m,1,0.6228,,,,,,,,0.116038208,-0.419045478,0,0,0,,0,76,76,55,1,MUFFIN,C,old,m,./images/MUFFIN.png,,,,,,,,,,,,,,,,,,,,,,
,,,,,,,,,,,,,,,,,200284,20,2022-01-28_20h48.19.282,lexical_decision_task_DD_L3,2021.2.3,MacIntel,59.99880002,,,,,,,,,,,0.7009,1,,,,,,,,,,,,,,z,1,0.7009,,,,,,,,0.116038208,-0.419045478,0,0,0,,0,77,77,95,1,HANTY,LB,old,z,./images/HANTYLB.png,,,,,,,,,,,,,,,,,,,,,,
,,,,,,,,,,,,,,,,,200284,20,2022-01-28_20h48.19.282,lexical_decision_task_DD_L3,2021.2.3,MacIntel,59.99880002,,,,,,,,,,,0.7343,1,,,,,,,,,,,,,,z,1,0.7343,,,,,,,,0.116038208,-0.419045478,0,0,0,,0,78,78,103,1,FLORT,HB,old,z,./images/FLORTHB.png,,,,,,,,,,,,,,,,,,,,,,
,,,,,,,,,,,,,,,,,200284,20,2022-01-28_20h48.19.282,lexical_decision_task_DD_L3,2021.2.3,MacIntel,59.99880002,,,,,,,,,,,1.6858,0,,,,,,,,,,,,,,m,0,1.6858,,,,,,,,0.116038208,-0.419045478,0,0,0,,0,79,79,104,1,GITTY,LB,old,z,./images/GITTYLB.png,,,,,,,,,,,,,,,,,,,,,,
,,,,,,,,,,,,,,,,,200284,20,2022-01-28_20h48.19.282,lexical_decision_task_DD_L3,2021.2.3,MacIntel,59.99880002,,,,,,,,,,,0.9508,1,,,,,,,,,,,,,,m,1,0.9508,,,,,,,,0.116038208,-0.419045478,0,0,0,,0,80,80,78,1,LITTER,LB,old,m,./images/LITTERLB.png,,,,,,,,,,,,,,,,,,,,,,
,,,,,,,,,,,,,,,,,200284,20,2022-01-28_20h48.19.282,lexical_decision_task_DD_L3,2021.2.3,MacIntel,59.99880002,,,,,,,,,,,0.536,1,,,,,,,,,,,,,,m,1,0.536,,,,,,,,0.116038208,-0.419045478,0,0,0,,0,81,81,37,1,BIRTH,C,old,m,./images/BIRTH.png,,,,,,,,,,,,,,,,,,,,,,
,,,,,,,,,,,,,,,,,200284,20,2022-01-28_20h48.19.282,lexical_decision_task_DD_L3,2021.2.3,MacIntel,59.99880002,,,,,,,,,,,0.8563,1,,,,,,,,,,,,,,z,1,0.8563,,,,,,,,0.116038208,-0.419045478,0,0,0,,0,82,82,97,1,CHIDS,HB,old,z,./images/CHIDSHB.png,,,,,,,,,,,,,,,,,,,,,,
,,,,,,,,,,,,,,,,,200284,20,2022-01-28_20h48.19.282,lexical_decision_task_DD_L3,2021.2.3,MacIntel,59.99880002,,,,,,,,,,,0.6754,1,,,,,,,,,,,,,,m,1,0.6754,,,,,,,,0.116038208,-0.419045478,0,0,0,space,0,83,83,21,1,KIDNEY,LB,old,m,./images/KIDNEYLB.png,9.4038,,,,,,,,,,,,,,,,,,,,,
,,,,,,,,,,,,,,,,,200284,20,2022-01-28_20h48.19.282,lexical_decision_task_DD_L3,2021.2.3,MacIntel,59.99880002,,,,,,,,,,,0.6003,1,,,,,,,,,,,,,,m,1,0.6003,,,,,,,,0.116038208,-0.419045478,0,0,0,,0,84,84,27,1,ATTIC,LB,old,m,./images/ATTICLB.png,,,,,,,,,,,,,,,,,,,,,,
,,,,,,,,,,,,,,,,,200284,20,2022-01-28_20h48.19.282,lexical_decision_task_DD_L3,2021.2.3,MacIntel,59.99880002,,,,,,,,,,,0.8997,1,,,,,,,,,,,,,,m,1,0.8997,,,,,,,,0.116038208,-0.419045478,0,0,0,,0,85,85,58,1,BABOON,C,old,m,./images/BABOON.png,,,,,,,,,,,,,,,,,,,,,,
,,,,,,,,,,,,,,,,,200284,20,2022-01-28_20h48.19.282,lexical_decision_task_DD_L3,2021.2.3,MacIntel,59.99880002,,,,,,,,,,,0.6152,1,,,,,,,,,,,,,,z,1,0.6152,,,,,,,,0.116038208,-0.419045478,0,0,0,,0,86,86,135,1,JOODY,C,old,z,./images/JOODY.png,,,,,,,,,,,,,,,,,,,,,,
,,,,,,,,,,,,,,,,,200284,20,2022-01-28_20h48.19.282,lexical_decision_task_DD_L3,2021.2.3,MacIntel,59.99880002,,,,,,,,,,,0.976,1,,,,,,,,,,,,,,z,1,0.976,,,,,,,,0.116038208,-0.419045478,0,0,0,,0,87,87,151,1,TINKY,HB,old,z,./images/TINKYHB.png,,,,,,,,,,,,,,,,,,,,,,
,,,,,,,,,,,,,,,,,200284,20,2022-01-28_20h48.19.282,lexical_decision_task_DD_L3,2021.2.3,MacIntel,59.99880002,,,,,,,,,,,0.5029,1,,,,,,,,,,,,,,m,1,0.5029,,,,,,,,0.116038208,-0.419045478,0,0,0,,0,88,88,3,1,FINGER,LB,old,m,./images/FINGERLB.png,,,,,,,,,,,,,,,,,,,,,,
,,,,,,,,,,,,,,,,,200284,20,2022-01-28_20h48.19.282,lexical_decision_task_DD_L3,2021.2.3,MacIntel,59.99880002,,,,,,,,,,,0.6171,1,,,,,,,,,,,,,,m,1,0.6171,,,,,,,,0.116038208,-0.419045478,0,0,0,,0,89,89,71,1,PIMPLE,HB,old,m,./images/PIMPLEHB.png,,,,,,,,,,,,,,,,,,,,,,
,,,,,,,,,,,,,,,,,200284,20,2022-01-28_20h48.19.282,lexical_decision_task_DD_L3,2021.2.3,MacIntel,59.99880002,,,,,,,,,,,0.6208,1,,,,,,,,,,,,,,z,1,0.6208,,,,,,,,0.116038208,-0.419045478,0,0,0,,0,90,90,98,1,BAMPS,LB,old,z,./images/BAMPSLB.png,,,,,,,,,,,,,,,,,,,,,,
,,,,,,,,,,,,,,,,,200284,20,2022-01-28_20h48.19.282,lexical_decision_task_DD_L3,2021.2.3,MacIntel,59.99880002,,,,,,,,,,,0.8184,1,,,,,,,,,,,,,,m,1,0.8184,,,,,,,,0.116038208,-0.419045478,0,0,0,,0,91,91,66,1,SWEAT,LB,old,m,./images/SWEATLB.png,,,,,,,,,,,,,,,,,,,,,,
,,,,,,,,,,,,,,,,,200284,20,2022-01-28_20h48.19.282,lexical_decision_task_DD_L3,2021.2.3,MacIntel,59.99880002,,,,,,,,,,,0.7184,0,,,,,,,,,,,,,,z,0,0.7184,,,,,,,,0.116038208,-0.419045478,0,0,0,,0,92,92,17,1,SKIING,HB,old,m,./images/SKIINGHB.png,,,,,,,,,,,,,,,,,,,,,,
,,,,,,,,,,,,,,,,,200284,20,2022-01-28_20h48.19.282,lexical_decision_task_DD_L3,2021.2.3,MacIntel,59.99880002,,,,,,,,,,,0.5132,1,,,,,,,,,,,,,,m,1,0.5132,,,,,,,,0.116038208,-0.419045478,0,0,0,,0,93,93,6,1,SQUARE,LB,old,m,./images/SQUARELB.png,,,,,,,,,,,,,,,,,,,,,,
,,,,,,,,,,,,,,,,,200284,20,2022-01-28_20h48.19.282,lexical_decision_task_DD_L3,2021.2.3,MacIntel,59.99880002,,,,,,,,,,,0.5867,1,,,,,,,,,,,,,,m,1,0.5867,,,,,,,,0.116038208,-0.419045478,0,0,0,,0,94,94,76,1,INFANT,C,old,m,./images/INFANT.png,,,,,,,,,,,,,,,,,,,,,,
,,,,,,,,,,,,,,,,,200284,20,2022-01-28_20h48.19.282,lexical_decision_task_DD_L3,2021.2.3,MacIntel,59.99880002,,,,,,,,,,,0.7838,1,,,,,,,,,,,,,,m,1,0.7838,,,,,,,,0.116038208,-0.419045478,0,0,0,,0,95,95,44,1,LIZARD,HB,old,m,./images/LIZARDHB.png,,,,,,,,,,,,,,,,,,,,,,
,,,,,,,,,,,,,,,,,200284,20,2022-01-28_20h48.19.282,lexical_decision_task_DD_L3,2021.2.3,MacIntel,59.99880002,,,,,,,,,,,0.7045,0,,,,,,,,,,,,,,z,0,0.7045,,,,,,,,0.116038208,-0.419045478,0,0,0,,0,96,96,67,1,SAILOR,C,old,m,./images/SAILOR.png,,,,,,,,,,,,,,,,,,,,,,
,,,,,,,,,,,,,,,,,200284,20,2022-01-28_20h48.19.282,lexical_decision_task_DD_L3,2021.2.3,MacIntel,59.99880002,,,,,,,,,,,1.7345,1,,,,,,,,,,,,,,z,1,1.7345,,,,,,,,0.116038208,-0.419045478,0,0,0,,0,97,97,136,1,WERVE,HB,old,z,./images/WERVEHB.png,,,,,,,,,,,,,,,,,,,,,,
,,,,,,,,,,,,,,,,,200284,20,2022-01-28_20h48.19.282,lexical_decision_task_DD_L3,2021.2.3,MacIntel,59.99880002,,,,,,,,,,,0.8587,1,,,,,,,,,,,,,,z,1,0.8587,,,,,,,,0.116038208,-0.419045478,0,0,0,,0,98,98,105,1,MOKER,C,old,z,./images/MOKER.png,,,,,,,,,,,,,,,,,,,,,,
,,,,,,,,,,,,,,,,,200284,20,2022-01-28_20h48.19.282,lexical_decision_task_DD_L3,2021.2.3,MacIntel,59.99880002,,,,,,,,,,,1.1344,1,,,,,,,,,,,,,,z,1,1.1344,,,,,,,,0.116038208,-0.419045478,0,0,0,,0,99,99,85,1,CHULK,HB,old,z,./images/CHULKHB.png,,,,,,,,,,,,,,,,,,,,,,
,,,,,,,,,,,,,,,,,200284,20,2022-01-28_20h48.19.282,lexical_decision_task_DD_L3,2021.2.3,MacIntel,59.99880002,,,,,,,,,,,0.6728,1,,,,,,,,,,,,,,z,1,0.6728,,,,,,,,0.116038208,-0.419045478,0,0,0,,0,100,100,117,1,STEEG,C,old,z,./images/STEEG.png,,,,,,,,,,,,,,,,,,,,,,
,,,,,,,,,,,,,,,,,200284,20,2022-01-28_20h48.19.282,lexical_decision_task_DD_L3,2021.2.3,MacIntel,59.99880002,,,,,,,,,,,0.5856,1,,,,,,,,,,,,,,m,1,0.5856,,,,,,,,0.116038208,-0.419045478,0,0,0,,0,101,101,15,1,GREASE,LB,old,m,./images/GREASELB.png,,,,,,,,,,,,,,,,,,,,,,
,,,,,,,,,,,,,,,,,200284,20,2022-01-28_20h48.19.282,lexical_decision_task_DD_L3,2021.2.3,MacIntel,59.99880002,,,,,,,,,,,0.9755,1,,,,,,,,,,,,,,z,1,0.9755,,,,,,,,0.116038208,-0.419045478,0,0,0,,0,102,102,154,1,THINT,HB,old,z,./images/THINTHB.png,,,,,,,,,,,,,,,,,,,,,,
,,,,,,,,,,,,,,,,,200284,20,2022-01-28_20h48.19.282,lexical_decision_task_DD_L3,2021.2.3,MacIntel,59.99880002,,,,,,,,,,,0.6007,1,,,,,,,,,,,,,,z,1,0.6007,,,,,,,,0.116038208,-0.419045478,0,0,0,,0,103,103,96,1,KEAMS,C,old,z,./images/KEAMS.png,,,,,,,,,,,,,,,,,,,,,,
,,,,,,,,,,,,,,,,,200284,20,2022-01-28_20h48.19.282,lexical_decision_task_DD_L3,2021.2.3,MacIntel,59.99880002,,,,,,,,,,,1.3343,1,,,,,,,,,,,,,,z,1,1.3343,,,,,,,,0.116038208,-0.419045478,0,0,0,,0,104,104,141,1,PLEET,C,old,z,./images/PLEET.png,,,,,,,,,,,,,,,,,,,,,,
,,,,,,,,,,,,,,,,,200284,20,2022-01-28_20h48.19.282,lexical_decision_task_DD_L3,2021.2.3,MacIntel,59.99880002,,,,,,,,,,,1.7171,1,,,,,,,,,,,,,,z,1,1.7171,,,,,,,,0.116038208,-0.419045478,0,0,0,,0,105,105,94,1,BLANS,HB,old,z,./images/BLANSHB.png,,,,,,,,,,,,,,,,,,,,,,
,,,,,,,,,,,,,,,,,200284,20,2022-01-28_20h48.19.282,lexical_decision_task_DD_L3,2021.2.3,MacIntel,59.99880002,,,,,,,,,,,0.6845,1,,,,,,,,,,,,,,m,1,0.6845,,,,,,,,0.116038208,-0.419045478,0,0,0,,0,106,106,47,1,BERRY,HB,old,m,./images/BERRYHB.png,,,,,,,,,,,,,,,,,,,,,,
,,,,,,,,,,,,,,,,,200284,20,2022-01-28_20h48.19.282,lexical_decision_task_DD_L3,2021.2.3,MacIntel,59.99880002,,,,,,,,,,,0.7673,1,,,,,,,,,,,,,,m,1,0.7673,,,,,,,,0.116038208,-0.419045478,0,0,0,,0,107,107,12,1,SHORE,LB,old,m,./images/SHORELB.png,,,,,,,,,,,,,,,,,,,,,,
,,,,,,,,,,,,,,,,,200284,20,2022-01-28_20h48.19.282,lexical_decision_task_DD_L3,2021.2.3,MacIntel,59.99880002,,,,,,,,,,,0.6665,1,,,,,,,,,,,,,,z,1,0.6665,,,,,,,,0.116038208,-0.419045478,0,0,0,,0,108,108,131,1,NACES,LB,old,z,./images/NACESLB.png,,,,,,,,,,,,,,,,,,,,,,
,,,,,,,,,,,,,,,,,200284,20,2022-01-28_20h48.19.282,lexical_decision_task_DD_L3,2021.2.3,MacIntel,59.99880002,,,,,,,,,,,0.5377,1,,,,,,,,,,,,,,m,1,0.5377,,,,,,,,0.116038208,-0.419045478,0,0,0,,0,109,109,49,1,DRUMS,C,old,m,./images/DRUMS.png,,,,,,,,,,,,,,,,,,,,,,
,,,,,,,,,,,,,,,,,200284,20,2022-01-28_20h48.19.282,lexical_decision_task_DD_L3,2021.2.3,MacIntel,59.99880002,,,,,,,,,,,0.5733,1,,,,,,,,,,,,,,m,1,0.5733,,,,,,,,0.116038208,-0.419045478,0,0,0,,0,110,110,62,1,PURSE,HB,old,m,./images/PURSEHB.png,,,,,,,,,,,,,,,,,,,,,,
,,,,,,,,,,,,,,,,,200284,20,2022-01-28_20h48.19.282,lexical_decision_task_DD_L3,2021.2.3,MacIntel,59.99880002,,,,,,,,,,,0.6762,1,,,,,,,,,,,,,,z,1,0.6762,,,,,,,,0.116038208,-0.419045478,0,0,0,,0,111,111,100,1,DRIBS,HB,old,z,./images/DRIBSHB.png,,,,,,,,,,,,,,,,,,,,,,
,,,,,,,,,,,,,,,,,200284,20,2022-01-28_20h48.19.282,lexical_decision_task_DD_L3,2021.2.3,MacIntel,59.99880002,,,,,,,,,,,0.6005,1,,,,,,,,,,,,,,z,1,0.6005,,,,,,,,0.116038208,-0.419045478,0,0,0,,0,112,112,126,1,GUELS,C,old,z,./images/GUELS.png,,,,,,,,,,,,,,,,,,,,,,
,,,,,,,,,,,,,,,,,200284,20,2022-01-28_20h48.19.282,lexical_decision_task_DD_L3,2021.2.3,MacIntel,59.99880002,,,,,,,,,,,0.5353,1,,,,,,,,,,,,,,m,1,0.5353,,,,,,,,0.116038208,-0.419045478,0,0,0,,0,113,113,36,1,THROAT,LB,old,m,./images/THROATLB.png,,,,,,,,,,,,,,,,,,,,,,
,,,,,,,,,,,,,,,,,200284,20,2022-01-28_20h48.19.282,lexical_decision_task_DD_L3,2021.2.3,MacIntel,59.99880002,,,,,,,,,,,0.7528,1,,,,,,,,,,,,,,z,1,0.7528,,,,,,,,0.116038208,-0.419045478,0,0,0,,0,114,114,92,1,PAIMS,LB,old,z,./images/PAIMSLB.png,,,,,,,,,,,,,,,,,,,,,,
,,,,,,,,,,,,,,,,,200284,20,2022-01-28_20h48.19.282,lexical_decision_task_DD_L3,2021.2.3,MacIntel,59.99880002,,,,,,,,,,,0.6361,1,,,,,,,,,,,,,,m,1,0.6361,,,,,,,,0.116038208,-0.419045478,0,0,0,,0,115,115,69,1,COOKER,LB,old,m,./images/COOKERLB.png,,,,,,,,,,,,,,,,,,,,,,
,,,,,,,,,,,,,,,,,200284,20,2022-01-28_20h48.19.282,lexical_decision_task_DD_L3,2021.2.3,MacIntel,59.99880002,,,,,,,,,,,0.6346,1,,,,,,,,,,,,,,m,1,0.6346,,,,,,,,0.116038208,-0.419045478,0,0,0,,0,116,116,9,1,RHINO,LB,old,m,./images/RHINOLB.png,,,,,,,,,,,,,,,,,,,,,,
,,,,,,,,,,,,,,,,,200284,20,2022-01-28_20h48.19.282,lexical_decision_task_DD_L3,2021.2.3,MacIntel,59.99880002,,,,,,,,,,,0.6013,1,,,,,,,,,,,,,,m,1,0.6013,,,,,,,,0.116038208,-0.419045478,0,0,0,,0,117,117,83,1,JUNGLE,HB,old,m,./images/JUNGLEHB.png,,,,,,,,,,,,,,,,,,,,,,
,,,,,,,,,,,,,,,,,200284,20,2022-01-28_20h48.19.282,lexical_decision_task_DD_L3,2021.2.3,MacIntel,59.99880002,,,,,,,,,,,0.5392,1,,,,,,,,,,,,,,m,1,0.5392,,,,,,,,0.116038208,-0.419045478,0,0,0,,0,118,118,46,1,PEARL,C,old,m,./images/PEARL.png,,,,,,,,,,,,,,,,,,,,,,
,,,,,,,,,,,,,,,,,200284,20,2022-01-28_20h48.19.282,lexical_decision_task_DD_L3,2021.2.3,MacIntel,59.99880002,,,,,,,,,,,1.2667,1,,,,,,,,,,,,,,z,1,1.2667,,,,,,,,0.116038208,-0.419045478,0,0,0,,0,119,119,140,1,DOVET,LB,old,z,./images/DOVETLB.png,,,,,,,,,,,,,,,,,,,,,,
,,,,,,,,,,,,,,,,,200284,20,2022-01-28_20h48.19.282,lexical_decision_task_DD_L3,2021.2.3,MacIntel,59.99880002,,,,,,,,,,,0.6672,1,,,,,,,,,,,,,,z,1,0.6672,,,,,,,,0.116038208,-0.419045478,0,0,0,,0,120,120,116,1,BALGY,LB,old,z,./images/BALGYLB.png,,,,,,,,,,,,,,,,,,,,,,
,,,,,,,,,,,,,,,,,200284,20,2022-01-28_20h48.19.282,lexical_decision_task_DD_L3,2021.2.3,MacIntel,59.99880002,,,,,,,,,,,0.6408,1,,,,,,,,,,,,,,z,1,0.6408,,,,,,,,0.116038208,-0.419045478,0,0,0,,0,121,121,128,1,GRIFT,LB,old,z,./images/GRIFTLB.png,,,,,,,,,,,,,,,,,,,,,,
,,,,,,,,,,,,,,,,,200284,20,2022-01-28_20h48.19.282,lexical_decision_task_DD_L3,2021.2.3,MacIntel,59.99880002,,,,,,,,,,,0.8992,1,,,,,,,,,,,,,,z,1,0.8992,,,,,,,,0.116038208,-0.419045478,0,0,0,,0,122,122,115,1,MAWNS,HB,old,z,./images/MAWNSHB.png,,,,,,,,,,,,,,,,,,,,,,
,,,,,,,,,,,,,,,,,200284,20,2022-01-28_20h48.19.282,lexical_decision_task_DD_L3,2021.2.3,MacIntel,59.99880002,,,,,,,,,,,0.6506,1,,,,,,,,,,,,,,m,1,0.6506,,,,,,,,0.116038208,-0.419045478,0,0,0,,0,123,123,32,1,BARREL,HB,old,m,./images/BARRELHB.png,,,,,,,,,,,,,,,,,,,,,,
,,,,,,,,,,,,,,,,,200284,20,2022-01-28_20h48.19.282,lexical_decision_task_DD_L3,2021.2.3,MacIntel,59.99880002,,,,,,,,,,,0.6814,1,,,,,,,,,,,,,,z,1,0.6814,,,,,,,,0.116038208,-0.419045478,0,0,0,,0,124,124,161,1,BLAPS,LB,old,z,./images/BLAPSLB.png,,,,,,,,,,,,,,,,,,,,,,
,,,,,,,,,,,,,,,,,200284,20,2022-01-28_20h48.19.282,lexical_decision_task_DD_L3,2021.2.3,MacIntel,59.99880002,,,,,,,,,,,0.554,1,,,,,,,,,,,,,,m,1,0.554,,,,,,,,0.116038208,-0.419045478,0,0,0,space,0,125,125,73,1,SNACK,C,old,m,./images/SNACK.png,1.334,,,,,,,,,,,,,,,,,,,,,
,,,,,,,,,,,,,,,,,200284,20,2022-01-28_20h48.19.282,lexical_decision_task_DD_L3,2021.2.3,MacIntel,59.99880002,,,,,,,,,,,0.6747,1,,,,,,,,,,,,,,z,1,0.6747,,,,,,,,0.116038208,-0.419045478,0,0,0,,0,126,126,120,1,RINED,C,old,z,./images/RINED.png,,,,,,,,,,,,,,,,,,,,,,
,,,,,,,,,,,,,,,,,200284,20,2022-01-28_20h48.19.282,lexical_decision_task_DD_L3,2021.2.3,MacIntel,59.99880002,,,,,,,,,,,0.6164,1,,,,,,,,,,,,,,z,1,0.6164,,,,,,,,0.116038208,-0.419045478,0,0,0,,0,127,127,84,1,HAXES,C,old,z,./images/HAXES.png,,,,,,,,,,,,,,,,,,,,,,
,,,,,,,,,,,,,,,,,200284,20,2022-01-28_20h48.19.282,lexical_decision_task_DD_L3,2021.2.3,MacIntel,59.99880002,,,,,,,,,,,0.6061,1,,,,,,,,,,,,,,z,1,0.6061,,,,,,,,0.116038208,-0.419045478,0,0,0,,0,128,128,160,1,VEETS,HB,old,z,./images/VEETSHB.png,,,,,,,,,,,,,,,,,,,,,,
,,,,,,,,,,,,,,,,,200284,20,2022-01-28_20h48.19.282,lexical_decision_task_DD_L3,2021.2.3,MacIntel,59.99880002,,,,,,,,,,,0.7194,1,,,,,,,,,,,,,,z,1,0.7194,,,,,,,,0.116038208,-0.419045478,0,0,0,,0,129,129,124,1,TUNCH,HB,old,z,./images/TUNCHHB.png,,,,,,,,,,,,,,,,,,,,,,
,,,,,,,,,,,,,,,,,200284,20,2022-01-28_20h48.19.282,lexical_decision_task_DD_L3,2021.2.3,MacIntel,59.99880002,,,,,,,,,,,0.7364,1,,,,,,,,,,,,,,z,1,0.7364,,,,,,,,0.116038208,-0.419045478,0,0,0,,0,130,130,142,1,PLASK,HB,old,z,./images/PLASKHB.png,,,,,,,,,,,,,,,,,,,,,,
,,,,,,,,,,,,,,,,,200284,20,2022-01-28_20h48.19.282,lexical_decision_task_DD_L3,2021.2.3,MacIntel,59.99880002,,,,,,,,,,,0.5659,1,,,,,,,,,,,,,,z,1,0.5659,,,,,,,,0.116038208,-0.419045478,0,0,0,,0,131,131,123,1,SEDGE,C,old,z,./images/SEDGE.png,,,,,,,,,,,,,,,,,,,,,,
,,,,,,,,,,,,,,,,,200284,20,2022-01-28_20h48.19.282,lexical_decision_task_DD_L3,2021.2.3,MacIntel,59.99880002,,,,,,,,,,,1.3997,1,,,,,,,,,,,,,,z,1,1.3997,,,,,,,,0.116038208,-0.419045478,0,0,0,,0,132,132,118,1,BAVEL,HB,old,z,./images/BAVELHB.png,,,,,,,,,,,,,,,,,,,,,,
,,,,,,,,,,,,,,,,,200284,20,2022-01-28_20h48.19.282,lexical_decision_task_DD_L3,2021.2.3,MacIntel,59.99880002,,,,,,,,,,,0.5878,1,,,,,,,,,,,,,,z,1,0.5878,,,,,,,,0.116038208,-0.419045478,0,0,0,,0,133,133,159,1,CUDDY,C,old,z,./images/CUDDY.png,,,,,,,,,,,,,,,,,,,,,,
,,,,,,,,,,,,,,,,,200284,20,2022-01-28_20h48.19.282,lexical_decision_task_DD_L3,2021.2.3,MacIntel,59.99880002,,,,,,,,,,,0.7196,1,,,,,,,,,,,,,,m,1,0.7196,,,,,,,,0.116038208,-0.419045478,0,0,0,,0,134,134,75,1,GRAIN,LB,old,m,./images/GRAINLB.png,,,,,,,,,,,,,,,,,,,,,,
,,,,,,,,,,,,,,,,,200284,20,2022-01-28_20h48.19.282,lexical_decision_task_DD_L3,2021.2.3,MacIntel,59.99880002,,,,,,,,,,,1.0164,1,,,,,,,,,,,,,,z,1,1.0164,,,,,,,,0.116038208,-0.419045478,0,0,0,,0,135,135,99,1,BACKY,C,old,z,./images/BACKY.png,,,,,,,,,,,,,,,,,,,,,,
,,,,,,,,,,,,,,,,,200284,20,2022-01-28_20h48.19.282,lexical_decision_task_DD_L3,2021.2.3,MacIntel,59.99880002,,,,,,,,,,,0.6167,1,,,,,,,,,,,,,,z,1,0.6167,,,,,,,,0.116038208,-0.419045478,0,0,0,,0,136,136,111,1,HOSSE,C,old,z,./images/HOSSE.png,,,,,,,,,,,,,,,,,,,,,,
,,,,,,,,,,,,,,,,,200284,20,2022-01-28_20h48.19.282,lexical_decision_task_DD_L3,2021.2.3,MacIntel,59.99880002,,,,,,,,,,,0.6727,1,,,,,,,,,,,,,,z,1,0.6727,,,,,,,,0.116038208,-0.419045478,0,0,0,,0,137,137,134,1,TROSS,LB,old,z,./images/TROSSLB.png,,,,,,,,,,,,,,,,,,,,,,
,,,,,,,,,,,,,,,,,200284,20,2022-01-28_20h48.19.282,lexical_decision_task_DD_L3,2021.2.3,MacIntel,59.99880002,,,,,,,,,,,0.58,1,,,,,,,,,,,,,,z,1,0.58,,,,,,,,0.116038208,-0.419045478,0,0,0,,0,138,138,107,1,FASKS,LB,old,z,./images/FASKSLB.png,,,,,,,,,,,,,,,,,,,,,,
,,,,,,,,,,,,,,,,,200284,20,2022-01-28_20h48.19.282,lexical_decision_task_DD_L3,2021.2.3,MacIntel,59.99880002,,,,,,,,,,,0.936,1,,,,,,,,,,,,,,z,1,0.936,,,,,,,,0.116038208,-0.419045478,0,0,0,,0,139,139,153,1,CLUPS,C,old,z,./images/CLUPS.png,,,,,,,,,,,,,,,,,,,,,,
,,,,,,,,,,,,,,,,,200284,20,2022-01-28_20h48.19.282,lexical_decision_task_DD_L3,2021.2.3,MacIntel,59.99880002,,,,,,,,,,,0.66,1,,,,,,,,,,,,,,m,1,0.66,,,,,,,,0.116038208,-0.419045478,0,0,0,,0,140,140,56,1,PACKET,HB,old,m,./images/PACKETHB.png,,,,,,,,,,,,,,,,,,,,,,
,,,,,,,,,,,,,,,,,200284,20,2022-01-28_20h48.19.282,lexical_decision_task_DD_L3,2021.2.3,MacIntel,59.99880002,,,,,,,,,,,0.5836,1,,,,,,,,,,,,,,z,1,0.5836,,,,,,,,0.116038208,-0.419045478,0,0,0,,0,141,141,144,1,NAIRY,C,old,z,./images/NAIRY.png,,,,,,,,,,,,,,,,,,,,,,
,,,,,,,,,,,,,,,,,200284,20,2022-01-28_20h48.19.282,lexical_decision_task_DD_L3,2021.2.3,MacIntel,59.99880002,,,,,,,,,,,0.6506,1,,,,,,,,,,,,,,m,1,0.6506,,,,,,,,0.116038208,-0.419045478,0,0,0,,0,142,142,13,1,MOTOR,C,old,m,./images/MOTOR.png,,,,,,,,,,,,,,,,,,,,,,
,,,,,,,,,,,,,,,,,200284,20,2022-01-28_20h48.19.282,lexical_decision_task_DD_L3,2021.2.3,MacIntel,59.99880002,,,,,,,,,,,0.7153,1,,,,,,,,,,,,,,z,1,0.7153,,,,,,,,0.116038208,-0.419045478,0,0,0,,0,143,143,129,1,PRANS,C,old,z,./images/PRANS.png,,,,,,,,,,,,,,,,,,,,,,
,,,,,,,,,,,,,,,,,200284,20,2022-01-28_20h48.19.282,lexical_decision_task_DD_L3,2021.2.3,MacIntel,59.99880002,,,,,,,,,,,0.5362,0,,,,,,,,,,,,,,m,0,0.5362,,,,,,,,0.116038208,-0.419045478,0,0,0,,0,144,144,110,1,CRUNK,LB,old,z,./images/CRUNKLB.png,,,,,,,,,,,,,,,,,,,,,,
,,,,,,,,,,,,,,,,,200284,20,2022-01-28_20h48.19.282,lexical_decision_task_DD_L3,2021.2.3,MacIntel,59.99880002,,,,,,,,,,,0.6021,1,,,,,,,,,,,,,,m,1,0.6021,,,,,,,,0.116038208,-0.419045478,0,0,0,,0,145,145,5,1,PASTA,HB,old,m,./images/PASTAHB.png,,,,,,,,,,,,,,,,,,,,,,
,,,,,,,,,,,,,,,,,200284,20,2022-01-28_20h48.19.282,lexical_decision_task_DD_L3,2021.2.3,MacIntel,59.99880002,,,,,,,,,,,0.5599,1,,,,,,,,,,,,,,m,1,0.5599,,,,,,,,0.116038208,-0.419045478,0,0,0,,0,146,146,45,1,KITTEN,LB,old,m,./images/KITTENLB.png,,,,,,,,,,,,,,,,,,,,,,
,,,,,,,,,,,,,,,,,200284,20,2022-01-28_20h48.19.282,lexical_decision_task_DD_L3,2021.2.3,MacIntel,59.99880002,,,,,,,,,,,0.5089,1,,,,,,,,,,,,,,m,1,0.5089,,,,,,,,0.116038208,-0.419045478,0,0,0,,0,147,147,40,1,SWING,C,old,m,./images/SWING.png,,,,,,,,,,,,,,,,,,,,,,
,,,,,,,,,,,,,,,,,200284,20,2022-01-28_20h48.19.282,lexical_decision_task_DD_L3,2021.2.3,MacIntel,59.99880002,,,,,,,,,,,0.601,1,,,,,,,,,,,,,,z,1,0.601,,,,,,,,0.116038208,-0.419045478,0,0,0,,0,148,148,150,1,NOOLS,C,old,z,./images/NOOLS.png,,,,,,,,,,,,,,,,,,,,,,
,,,,,,,,,,,,,,,,,200284,20,2022-01-28_20h48.19.282,lexical_decision_task_DD_L3,2021.2.3,MacIntel,59.99880002,,,,,,,,,,,1.1858,1,,,,,,,,,,,,,,z,1,1.1858,,,,,,,,0.116038208,-0.419045478,0,0,0,,0,149,149,88,1,GLUSH,HB,old,z,./images/GLUSHHB.png,,,,,,,,,,,,,,,,,,,,,,
,,,,,,,,,,,,,,,,,200284,20,2022-01-28_20h48.19.282,lexical_decision_task_DD_L3,2021.2.3,MacIntel,59.99880002,,,,,,,,,,,0.6919,1,,,,,,,,,,,,,,m,1,0.6919,,,,,,,,0.116038208,-0.419045478,0,0,0,,0,150,150,72,1,NOOSE,LB,old,m,./images/NOOSELB.png,,,,,,,,,,,,,,,,,,,,,,
,,,,,,,,,,,,,,,,,200284,20,2022-01-28_20h48.19.282,lexical_decision_task_DD_L3,2021.2.3,MacIntel,59.99880002,,,,,,,,,,,0.5542,1,,,,,,,,,,,,,,z,1,0.5542,,,,,,,,0.116038208,-0.419045478,0,0,0,,0,151,151,102,1,DULLE,C,old,z,./images/DULLE.png,,,,,,,,,,,,,,,,,,,,,,
,,,,,,,,,,,,,,,,,200284,20,2022-01-28_20h48.19.282,lexical_decision_task_DD_L3,2021.2.3,MacIntel,59.99880002,,,,,,,,,,,0.6172,1,,,,,,,,,,,,,,z,1,0.6172,,,,,,,,0.116038208,-0.419045478,0,0,0,,0,152,152,89,1,DRIEK,LB,old,z,./images/DRIEKLB.png,,,,,,,,,,,,,,,,,,,,,,
,,,,,,,,,,,,,,,,,200284,20,2022-01-28_20h48.19.282,lexical_decision_task_DD_L3,2021.2.3,MacIntel,59.99880002,,,,,,,,,,,0.5666,1,,,,,,,,,,,,,,z,1,0.5666,,,,,,,,0.116038208,-0.419045478,0,0,0,,0,153,153,137,1,JOOST,LB,old,z,./images/JOOSTLB.png,,,,,,,,,,,,,,,,,,,,,,
,,,,,,,,,,,,,,,,,200284,20,2022-01-28_20h48.19.282,lexical_decision_task_DD_L3,2021.2.3,MacIntel,59.99880002,,,,,,,,,,,0.4495,1,,,,,,,,,,,,,,z,1,0.4495,,,,,,,,0.116038208,-0.419045478,0,0,0,,0,154,154,132,1,SCIFF,C,old,z,./images/SCIFF.png,,,,,,,,,,,,,,,,,,,,,,
,,,,,,,,,,,,,,,,,200284,20,2022-01-28_20h48.19.282,lexical_decision_task_DD_L3,2021.2.3,MacIntel,59.99880002,,,,,,,,,,,0.6415,1,,,,,,,,,,,,,,z,1,0.6415,,,,,,,,0.116038208,-0.419045478,0,0,0,,0,155,155,158,1,EGECT,LB,old,z,./images/EGECTLB.png,,,,,,,,,,,,,,,,,,,,,,
,,,,,,,,,,,,,,,,,200284,20,2022-01-28_20h48.19.282,lexical_decision_task_DD_L3,2021.2.3,MacIntel,59.99880002,,,,,,,,,,,0.4996,1,,,,,,,,,,,,,,z,1,0.4996,,,,,,,,0.116038208,-0.419045478,0,0,0,,0,156,156,138,1,PLICE,C,old,z,./images/PLICE.png,,,,,,,,,,,,,,,,,,,,,,
,,,,,,,,,,,,,,,,,200284,20,2022-01-28_20h48.19.282,lexical_decision_task_DD_L3,2021.2.3,MacIntel,59.99880002,,,,,,,,,,,0.7355,1,,,,,,,,,,,,,,m,1,0.7355,,,,,,,,0.116038208,-0.419045478,0,0,0,,0,157,157,39,1,SHELF,LB,old,m,./images/SHELFLB.png,,,,,,,,,,,,,,,,,,,,,,
,,,,,,,,,,,,,,,,,200284,20,2022-01-28_20h48.19.282,lexical_decision_task_DD_L3,2021.2.3,MacIntel,59.99880002,,,,,,,,,,,0.6386,1,,,,,,,,,,,,,,z,1,0.6386,,,,,,,,0.116038208,-0.419045478,0,0,0,,0,158,158,93,1,SMONE,C,old,z,./images/SMONE.png,,,,,,,,,,,,,,,,,,,,,,
,,,,,,,,,,,,,,,,,200284,20,2022-01-28_20h48.19.282,lexical_decision_task_DD_L3,2021.2.3,MacIntel,59.99880002,,,,,,,,,,,0.7025,1,,,,,,,,,,,,,,m,1,0.7025,,,,,,,,0.116038208,-0.419045478,0,0,0,,0,159,159,68,1,TORCH,HB,old,m,./images/TORCHHB.png,,,,,,,,,,,,,,,,,,,,,,
,,,,,,,,,,,,,,,,,200284,20,2022-01-28_20h48.19.282,lexical_decision_task_DD_L3,2021.2.3,MacIntel,59.99880002,,,,,,,,,,,0.5229,1,,,,,,,,,,,,,,m,1,0.5229,,,,,,,,0.116038208,-0.419045478,0,0,0,,0,160,160,30,1,STORM,LB,old,m,./images/STORMLB.png,,,,,,,,,,,,,,,,,,,,,,
,,,,,,,,,,,,,,,,,200284,20,2022-01-28_20h48.19.282,lexical_decision_task_DD_L3,2021.2.3,MacIntel,59.99880002,,,,,,,,,,,0.6709,1,,,,,,,,,,,,,,m,1,0.6709,,,,,,,,0.116038208,-0.419045478,0,0,0,,0,161,161,20,1,CRADLE,HB,old,m,./images/CRADLEHB.png,,,,,,,,,,,,,,,,,,,,,,
,,,,,,,,,,,,,,,,,200284,20,2022-01-28_20h48.19.282,lexical_decision_task_DD_L3,2021.2.3,MacIntel,59.99880002,,,,,,,,,,,0.6234,1,,,,,,,,,,,,,,m,1,0.6234,,,,,,,,0.116038208,-0.419045478,0,0,0,,0,162,162,54,1,TRIPOD,LB,old,m,./images/TRIPODLB.png,,,,,,,,,,,,,,,,,,,,,,
,,,,,,,,,,,,,,,,,200284,20,2022-01-28_20h48.19.282,lexical_decision_task_DD_L3,2021.2.3,MacIntel,59.99880002,,,,,,,,,,,1.0903,1,,,,,,,,,,,,,,z,1,1.0903,,,,,,,,0.116038208,-0.419045478,0,0,0,,0,163,163,91,1,SHENS,HB,old,z,./images/SHENSHB.png,,,,,,,,,,,,,,,,,,,,,,
,,,,,,,,,,,,,,,,,200284,20,2022-01-28_20h48.19.282,lexical_decision_task_DD_L3,2021.2.3,MacIntel,59.99880002,,,,,,,,,,,0.6013,1,,,,,,,,,,,,,,z,1,0.6013,,,,,,,,0.116038208,-0.419045478,0,0,0,,0,164,164,162,1,LEICH,C,old,z,./images/LEICH.png,,,,,,,,,,,,,,,,,,,,,,
,,,,,,,,,,,,,,,,,200284,20,2022-01-28_20h48.19.282,lexical_decision_task_DD_L3,2021.2.3,MacIntel,59.99880002,,,,,,,,,,,0.1177,0,,,,,,,,,,,,,,z,0,0.1177,,,,,,,,0.116038208,-0.419045478,0,0,0,,0,165,165,34,1,CANYON,C,old,m,./images/CANYON.png,,,,,,,,,,,,,,,,,,,,,,
,,,,,,,,,,,,,,,,,200284,20,2022-01-28_20h48.19.282,lexical_decision_task_DD_L3,2021.2.3,MacIntel,59.99880002,,,,,,,,,,,0.7391,1,,,,,,,,,,,,,,z,1,0.7391,,,,,,,,0.116038208,-0.419045478,0,0,0,,0,166,166,113,1,LINEW,LB,old,z,./images/LINEWLB.png,,,,,,,,,,,,,,,,,,,,,,
,,,,,,,,,,,,,,,,,200284,20,2022-01-28_20h48.19.282,lexical_decision_task_DD_L3,2021.2.3,MacIntel,59.99880002,,,,,,,,,,,0.8839,1,,,,,,,,,,,,,,z,1,0.8839,,,,,,,,0.116038208,-0.419045478,0,0,0,,0,167,167,165,1,TROWN,C,old,z,./images/TROWN.png,,,,,,,,,,,,,,,,,,,,,,
space,17.7043,0.116038208,-0.419045478,0,0,0,,,,,,1,test,"In the next phase you will be presented with the words from the the first phase. Your job is to decide whether you remember seeing the word or not. If you remember seeing the word press ""old"" or type ""m"". If you do not remember seeing the word press ""new"" or type ""z"". Please press the space bar or click on continue to begin. ",,,200284,20,2022-01-28_20h48.19.282,lexical_decision_task_DD_L3,2021.2.3,MacIntel,59.99880002,,,,,,,,,,,,,,,,,,,,,,,,,,,,,,,,,,,,,,,,,,,,,,,,,,,,,0,0,0,0,1,,,,,,,,,,,,,,,,
space,1.8092,0.116038208,-0.419045478,0,0,0,,,,,,1,test,"In the next phase you will be presented with the words from the the first phase. Your job is to decide whether you remember seeing the word or not. If you remember seeing the word press ""old"" or type ""m"". If you do not remember seeing the word press ""new"" or type ""z"". Please press the space bar or click on continue to begin. ",,,200284,20,2022-01-28_20h48.19.282,lexical_decision_task_DD_L3,2021.2.3,MacIntel,59.99880002,,,,,,,,,,,,,,,,,,,,,,,,,,,,,,,,,,,,,,,,,,,,,,,,,,,,,1,0,1,0,1,,,,,,,,,,,,,,,,
,,0.116038208,-0.419045478,1,0,0,,,,,,1,test,"In the next phase you will be presented with the words from the the first phase. Your job is to decide whether you remember seeing the word or not. If you remember seeing the word press ""old"" or type ""m"". If you do not remember seeing the word press ""new"" or type ""z"". Please press the space bar or click on continue to begin. ",,,200284,20,2022-01-28_20h48.19.282,lexical_decision_task_DD_L3,2021.2.3,MacIntel,59.99880002,,,,,,,,,,,,,,,,,,,,,,,,,,,,,,,,,,,,,,,,,,,,,,,,,,,,,2,0,2,0,1,instr_done_button,,,,,,,,,,,,,,,
,,0.021154243,-0.426013116,1,0,0,,,,,,1,test,"In the next phase you will be presented with the words from the the first phase. Your job is to decide whether you remember seeing the word or not. If you remember seeing the word press ""old"" or type ""m"". If you do not remember seeing the word press ""new"" or type ""z"". Please press the space bar or click on continue to begin. ",,,200284,20,2022-01-28_20h48.19.282,lexical_decision_task_DD_L3,2021.2.3,MacIntel,59.99880002,,,,,,,,,,,,,,,,,,,,,,,,,,,,,,,,,,,,,,,,,,,,,,,,,,,,,3,0,3,0,1,instr_done_button,,,,,,,,,,,,,,,
,,0.025097995,-0.409396227,1,0,0,,,,,,1,test,"In the next phase you will be presented with the words from the the first phase. Your job is to decide whether you remember seeing the word or not. If you remember seeing the word press ""old"" or type ""m"". If you do not remember seeing the word press ""new"" or type ""z"". Please press the space bar or click on continue to begin. ",,,200284,20,2022-01-28_20h48.19.282,lexical_decision_task_DD_L3,2021.2.3,MacIntel,59.99880002,,,,,,,,,,,,,,,,,,,,,,,,,,,,,,,,,,,,,,,,,,,,,,,,,,,,,4,0,4,0,1,instr_done_button,,,,,,,,,,,,,,,
,,,,,,,,,,,,,,,,,200284,20,2022-01-28_20h48.19.282,lexical_decision_task_DD_L3,2021.2.3,MacIntel,59.99880002,,,,,,,,,,,2.6173,1,,,,,,,,,,,,,,,,,,,,,,,,0.025097995,-0.409396227,0,0,0,,,,,,,LAGOON,HB,z,m,./images/LAGOONHB.png,,,,,,,,z,1,2.6173,,,,,,,,0,0,0,131,1
,,,,,,,,,,,,,,,,,200284,20,2022-01-28_20h48.19.282,lexical_decision_task_DD_L3,2021.2.3,MacIntel,59.99880002,,,,,,,,,,,1.5671,1,,,,,,,,,,,,,,,,,,,,,,,,0.025097995,-0.409396227,0,0,0,,,,,,,RAZOR,C,z,m,./images/RAZOR.png,,,,,,,,z,1,1.5671,,,,,,,,0,1,1,118,1
,,,,,,,,,,,,,,,,,200284,20,2022-01-28_20h48.19.282,lexical_decision_task_DD_L3,2021.2.3,MacIntel,59.99880002,,,,,,,,,,,0.6896,1,,,,,,,,,,,,,,,,,,,,,,,,0.025097995,-0.409396227,0,0,0,,,,,,,CEMENT,HB,m,m,./images/CEMENTHB.png,,,,,,,,m,1,0.6896,,,,,,,,0,2,2,74,1
,,,,,,,,,,,,,,,,,200284,20,2022-01-28_20h48.19.282,lexical_decision_task_DD_L3,2021.2.3,MacIntel,59.99880002,,,,,,,,,,,0.6162,1,,,,,,,,,,,,,,,,,,,,,,,,0.025097995,-0.409396227,0,0,0,,,,,,,TOWEL,C,z,m,./images/TOWEL.png,,,,,,,,z,1,0.6162,,,,,,,,0,3,3,85,1
,,,,,,,,,,,,,,,,,200284,20,2022-01-28_20h48.19.282,lexical_decision_task_DD_L3,2021.2.3,MacIntel,59.99880002,,,,,,,,,,,0.7373,1,,,,,,,,,,,,,,,,,,,,,,,,0.025097995,-0.409396227,0,0,0,,,,,,,BEARD,HB,m,m,./images/BEARDHB.png,,,,,,,,m,1,0.7373,,,,,,,,0,4,4,2,1
,,,,,,,,,,,,,,,,,200284,20,2022-01-28_20h48.19.282,lexical_decision_task_DD_L3,2021.2.3,MacIntel,59.99880002,,,,,,,,,,,0.6827,1,,,,,,,,,,,,,,,,,,,,,,,,0.025097995,-0.409396227,0,0,0,,,,,,,WALRUS,HB,m,m,./images/WALRUSHB.png,,,,,,,,m,1,0.6827,,,,,,,,0,5,5,23,1
,,,,,,,,,,,,,,,,,200284,20,2022-01-28_20h48.19.282,lexical_decision_task_DD_L3,2021.2.3,MacIntel,59.99880002,,,,,,,,,,,0.5758,1,,,,,,,,,,,,,,,,,,,,,,,,0.025097995,-0.409396227,0,0,0,,,,,,,WEASEL,HB,m,m,./images/WEASELHB.png,,,,,,,,m,1,0.5758,,,,,,,,0,6,6,80,1
,,,,,,,,,,,,,,,,,200284,20,2022-01-28_20h48.19.282,lexical_decision_task_DD_L3,2021.2.3,MacIntel,59.99880002,,,,,,,,,,,0.6234,1,,,,,,,,,,,,,,,,,,,,,,,,0.025097995,-0.409396227,0,0,0,,,,,,,BANNER,C,m,m,./images/BANNER.png,,,,,,,,m,1,0.6234,,,,,,,,0,7,7,52,1
,,,,,,,,,,,,,,,,,200284,20,2022-01-28_20h48.19.282,lexical_decision_task_DD_L3,2021.2.3,MacIntel,59.99880002,,,,,,,,,,,0.733,1,,,,,,,,,,,,,,,,,,,,,,,,0.025097995,-0.409396227,0,0,0,,,,,,,PLANET,HB,z,m,./images/PLANETHB.png,,,,,,,,z,1,0.733,,,,,,,,0,8,8,164,1
,,,,,,,,,,,,,,,,,200284,20,2022-01-28_20h48.19.282,lexical_decision_task_DD_L3,2021.2.3,MacIntel,59.99880002,,,,,,,,,,,0.6499,1,,,,,,,,,,,,,,,,,,,,,,,,0.025097995,-0.409396227,0,0,0,,,,,,,KIDNEY,LB,m,m,./images/KIDNEYLB.png,,,,,,,,m,1,0.6499,,,,,,,,0,9,9,21,1
,,,,,,,,,,,,,,,,,200284,20,2022-01-28_20h48.19.282,lexical_decision_task_DD_L3,2021.2.3,MacIntel,59.99880002,,,,,,,,,,,0.5507,1,,,,,,,,,,,,,,,,,,,,,,,,0.025097995,-0.409396227,0,0,0,,,,,,,PASTA,HB,m,m,./images/PASTAHB.png,,,,,,,,m,1,0.5507,,,,,,,,0,10,10,5,1
,,,,,,,,,,,,,,,,,200284,20,2022-01-28_20h48.19.282,lexical_decision_task_DD_L3,2021.2.3,MacIntel,59.99880002,,,,,,,,,,,0.9034,1,,,,,,,,,,,,,,,,,,,,,,,,0.025097995,-0.409396227,0,0,0,,,,,,,LLAMA,HB,z,m,./images/LLAMAHB.png,,,,,,,,z,1,0.9034,,,,,,,,0,11,11,119,1
,,,,,,,,,,,,,,,,,200284,20,2022-01-28_20h48.19.282,lexical_decision_task_DD_L3,2021.2.3,MacIntel,59.99880002,,,,,,,,,,,1.3665,1,,,,,,,,,,,,,,,,,,,,,,,,0.025097995,-0.409396227,0,0,0,,,,,,,GREASE,LB,m,m,./images/GREASELB.png,,,,,,,,m,1,1.3665,,,,,,,,0,12,12,15,1
,,,,,,,,,,,,,,,,,200284,20,2022-01-28_20h48.19.282,lexical_decision_task_DD_L3,2021.2.3,MacIntel,59.99880002,,,,,,,,,,,0.9912,0,,,,,,,,,,,,,,,,,,,,,,,,0.025097995,-0.409396227,0,0,0,,,,,,,SQUARE,LB,m,m,./images/SQUARELB.png,,,,,,,,z,0,0.9912,,,,,,,,0,13,13,6,1
,,,,,,,,,,,,,,,,,200284,20,2022-01-28_20h48.19.282,lexical_decision_task_DD_L3,2021.2.3,MacIntel,59.99880002,,,,,,,,,,,0.6518,1,,,,,,,,,,,,,,,,,,,,,,,,0.025097995,-0.409396227,0,0,0,,,,,,,MUSCLE,C,m,m,./images/MUSCLE.png,,,,,,,,m,1,0.6518,,,,,,,,0,14,14,4,1
,,,,,,,,,,,,,,,,,200284,20,2022-01-28_20h48.19.282,lexical_decision_task_DD_L3,2021.2.3,MacIntel,59.99880002,,,,,,,,,,,0.8332,1,,,,,,,,,,,,,,,,,,,,,,,,0.025097995,-0.409396227,0,0,0,,,,,,,BRUSH,HB,z,m,./images/BRUSHHB.png,,,,,,,,z,1,0.8332,,,,,,,,0,15,15,143,1
,,,,,,,,,,,,,,,,,200284,20,2022-01-28_20h48.19.282,lexical_decision_task_DD_L3,2021.2.3,MacIntel,59.99880002,,,,,,,,,,,0.6247,0,,,,,,,,,,,,,,,,,,,,,,,,0.025097995,-0.409396227,0,0,0,,,,,,,ENGINE,HB,z,m,./images/ENGINEHB.png,,,,,,,,m,0,0.6247,,,,,,,,0,16,16,122,1
,,,,,,,,,,,,,,,,,200284,20,2022-01-28_20h48.19.282,lexical_decision_task_DD_L3,2021.2.3,MacIntel,59.99880002,,,,,,,,,,,0.5661,1,,,,,,,,,,,,,,,,,,,,,,,,0.025097995,-0.409396227,0,0,0,,,,,,,BONNET,HB,m,m,./images/BONNETHB.png,,,,,,,,m,1,0.5661,,,,,,,,0,17,17,11,1
,,,,,,,,,,,,,,,,,200284,20,2022-01-28_20h48.19.282,lexical_decision_task_DD_L3,2021.2.3,MacIntel,59.99880002,,,,,,,,,,,0.649,1,,,,,,,,,,,,,,,,,,,,,,,,0.025097995,-0.409396227,0,0,0,,,,,,,SHORE,LB,m,m,./images/SHORELB.png,,,,,,,,m,1,0.649,,,,,,,,0,18,18,12,1
,,,,,,,,,,,,,,,,,200284,20,2022-01-28_20h48.19.282,lexical_decision_task_DD_L3,2021.2.3,MacIntel,59.99880002,,,,,,,,,,,0.7662,1,,,,,,,,,,,,,,,,,,,,,,,,0.025097995,-0.409396227,0,0,0,,,,,,,JUMPER,HB,z,m,./images/JUMPERHB.png,,,,,,,,z,1,0.7662,,,,,,,,0,19,19,158,1
,,,,,,,,,,,,,,,,,200284,20,2022-01-28_20h48.19.282,lexical_decision_task_DD_L3,2021.2.3,MacIntel,59.99880002,,,,,,,,,,,1.5226,0,,,,,,,,,,,,,,,,,,,,,,,,0.025097995,-0.409396227,0,0,0,,,,,,,PICKLE,HB,m,m,./images/PICKLEHB.png,,,,,,,,z,0,1.5226,,,,,,,,0,20,20,14,1
,,,,,,,,,,,,,,,,,200284,20,2022-01-28_20h48.19.282,lexical_decision_task_DD_L3,2021.2.3,MacIntel,59.99880002,,,,,,,,,,,0.7221,1,,,,,,,,,,,,,,,,,,,,,,,,0.025097995,-0.409396227,0,0,0,,,,,,,DONKEY,C,z,m,./images/DONKEY.png,,,,,,,,z,1,0.7221,,,,,,,,0,21,21,103,1
,,,,,,,,,,,,,,,,,200284,20,2022-01-28_20h48.19.282,lexical_decision_task_DD_L3,2021.2.3,MacIntel,59.99880002,,,,,,,,,,,0.6662,1,,,,,,,,,,,,,,,,,,,,,,,,0.025097995,-0.409396227,0,0,0,,,,,,,MELON,C,m,m,./images/MELON.png,,,,,,,,m,1,0.6662,,,,,,,,0,22,22,22,1
,,,,,,,,,,,,,,,,,200284,20,2022-01-28_20h48.19.282,lexical_decision_task_DD_L3,2021.2.3,MacIntel,59.99880002,,,,,,,,,,,1.1322,1,,,,,,,,,,,,,,,,,,,,,,,,0.025097995,-0.409396227,0,0,0,,,,,,,CRUST,C,m,m,./images/CRUST.png,,,,,,,,m,1,1.1322,,,,,,,,0,23,23,79,1
,,,,,,,,,,,,,,,,,200284,20,2022-01-28_20h48.19.282,lexical_decision_task_DD_L3,2021.2.3,MacIntel,59.99880002,,,,,,,,,,,0.6994,1,,,,,,,,,,,,,,,,,,,,,,,,0.025097995,-0.409396227,0,0,0,,,,,,,JAGUAR,LB,m,m,./images/JAGUARLB.png,,,,,,,,m,1,0.6994,,,,,,,,0,24,24,18,1
,,,,,,,,,,,,,,,,,200284,20,2022-01-28_20h48.19.282,lexical_decision_task_DD_L3,2021.2.3,MacIntel,59.99880002,,,,,,,,,,,1.7496,1,,,,,,,,,,,,,,,,,,,,,,,,0.025097995,-0.409396227,0,0,0,,,,,,,FLASK,LB,z,m,./images/FLASKLB.png,,,,,,,,z,1,1.7496,,,,,,,,0,25,25,156,1
,,,,,,,,,,,,,,,,,200284,20,2022-01-28_20h48.19.282,lexical_decision_task_DD_L3,2021.2.3,MacIntel,59.99880002,,,,,,,,,,,0.8155,0,,,,,,,,,,,,,,,,,,,,,,,,0.025097995,-0.409396227,0,0,0,,,,,,,CLOTH,HB,z,m,./images/CLOTHHB.png,,,,,,,,m,0,0.8155,,,,,,,,0,26,26,107,1
,,,,,,,,,,,,,,,,,200284,20,2022-01-28_20h48.19.282,lexical_decision_task_DD_L3,2021.2.3,MacIntel,59.99880002,,,,,,,,,,,0.7834,1,,,,,,,,,,,,,,,,,,,,,,,,0.025097995,-0.409396227,0,0,0,,,,,,,MUFFIN,C,m,m,./images/MUFFIN.png,,,,,,,,m,1,0.7834,,,,,,,,0,27,27,55,1
,,,,,,,,,,,,,,,,,200284,20,2022-01-28_20h48.19.282,lexical_decision_task_DD_L3,2021.2.3,MacIntel,59.99880002,,,,,,,,,,,0.5992,1,,,,,,,,,,,,,,,,,,,,,,,,0.025097995,-0.409396227,0,0,0,,,,,,,HOCKEY,HB,z,m,./images/HOCKEYHB.png,,,,,,,,z,1,0.5992,,,,,,,,0,28,28,116,1
,,,,,,,,,,,,,,,,,200284,20,2022-01-28_20h48.19.282,lexical_decision_task_DD_L3,2021.2.3,MacIntel,59.99880002,,,,,,,,,,,0.785,1,,,,,,,,,,,,,,,,,,,,,,,,0.025097995,-0.409396227,0,0,0,,,,,,,CHALK,C,z,m,./images/CHALK.png,,,,,,,,z,1,0.785,,,,,,,,0,29,29,109,1
,,,,,,,,,,,,,,,,,200284,20,2022-01-28_20h48.19.282,lexical_decision_task_DD_L3,2021.2.3,MacIntel,59.99880002,,,,,,,,,,,0.6824,1,,,,,,,,,,,,,,,,,,,,,,,,0.025097995,-0.409396227,0,0,0,,,,,,,BURIAL,HB,m,m,./images/BURIALHB.png,,,,,,,,m,1,0.6824,,,,,,,,0,30,30,59,1
,,,,,,,,,,,,,,,,,200284,20,2022-01-28_20h48.19.282,lexical_decision_task_DD_L3,2021.2.3,MacIntel,59.99880002,,,,,,,,,,,0.6676,1,,,,,,,,,,,,,,,,,,,,,,,,0.025097995,-0.409396227,0,0,0,,,,,,,STRING,HB,m,m,./images/STRINGHB.png,,,,,,,,m,1,0.6676,,,,,,,,0,31,31,41,1
,,,,,,,,,,,,,,,,,200284,20,2022-01-28_20h48.19.282,lexical_decision_task_DD_L3,2021.2.3,MacIntel,59.99880002,,,,,,,,,,,0.9162,0,,,,,,,,,,,,,,,,,,,,,,,,0.025097995,-0.409396227,0,0,0,,,,,,,FERRY,LB,z,m,./images/FERRYLB.png,,,,,,,,m,0,0.9162,,,,,,,,0,32,32,141,1
,,,,,,,,,,,,,,,,,200284,20,2022-01-28_20h48.19.282,lexical_decision_task_DD_L3,2021.2.3,MacIntel,59.99880002,,,,,,,,,,,0.6708,1,,,,,,,,,,,,,,,,,,,,,,,,0.025097995,-0.409396227,0,0,0,,,,,,,QUILL,C,m,m,./images/QUILL.png,,,,,,,,m,1,0.6708,,,,,,,,0,33,33,31,1
,,,,,,,,,,,,,,,,,200284,20,2022-01-28_20h48.19.282,lexical_decision_task_DD_L3,2021.2.3,MacIntel,59.99880002,,,,,,,,,,,0.6496,1,,,,,,,,,,,,,,,,,,,,,,,,0.025097995,-0.409396227,0,0,0,,,,,,,GRAIN,LB,m,m,./images/GRAINLB.png,,,,,,,,m,1,0.6496,,,,,,,,0,34,34,75,1
,,,,,,,,,,,,,,,,,200284,20,2022-01-28_20h48.19.282,lexical_decision_task_DD_L3,2021.2.3,MacIntel,59.99880002,,,,,,,,,,,0.6376,1,,,,,,,,,,,,,,,,,,,,,,,,0.025097995,-0.409396227,0,0,0,,,,,,,POKER,C,z,m,./images/POKER.png,,,,,,,,z,1,0.6376,,,,,,,,0,35,35,151,1
,,,,,,,,,,,,,,,,,200284,20,2022-01-28_20h48.19.282,lexical_decision_task_DD_L3,2021.2.3,MacIntel,59.99880002,,,,,,,,,,,1.5504,0,,,,,,,,,,,,,,,,,,,,,,,,0.025097995,-0.409396227,0,0,0,,,,,,,POODLE,LB,m,m,./images/POODLELB.png,,,,,,,,z,0,1.5504,,,,,,,,0,36,36,81,1
,,,,,,,,,,,,,,,,,200284,20,2022-01-28_20h48.19.282,lexical_decision_task_DD_L3,2021.2.3,MacIntel,59.99880002,,,,,,,,,,,0.6371,1,,,,,,,,,,,,,,,,,,,,,,,,0.025097995,-0.409396227,0,0,0,,,,,,,BARREL,HB,m,m,./images/BARRELHB.png,,,,,,,,m,1,0.6371,,,,,,,,0,37,37,32,1
,,,,,,,,,,,,,,,,,200284,20,2022-01-28_20h48.19.282,lexical_decision_task_DD_L3,2021.2.3,MacIntel,59.99880002,,,,,,,,,,,0.7001,1,,,,,,,,,,,,,,,,,,,,,,,,0.025097995,-0.409396227,0,0,0,,,,,,,JELLY,C,m,m,./images/JELLY.png,,,,,,,,m,1,0.7001,,,,,,,,0,38,38,64,1
,,,,,,,,,,,,,,,,,200284,20,2022-01-28_20h48.19.282,lexical_decision_task_DD_L3,2021.2.3,MacIntel,59.99880002,,,,,,,,,,,0.7351,0,,,,,,,,,,,,,,,,,,,,,,,,0.025097995,-0.409396227,0,0,0,,,,,,,POSTER,HB,z,m,./images/POSTERHB.png,,,,,,,,m,0,0.7351,,,,,,,,0,39,39,137,1
,,,,,,,,,,,,,,,,,200284,20,2022-01-28_20h48.19.282,lexical_decision_task_DD_L3,2021.2.3,MacIntel,59.99880002,,,,,,,,,,,0.8375,1,,,,,,,,,,,,,,,,,,,,,,,,0.025097995,-0.409396227,0,0,0,,,,,,,BABOON,C,m,m,./images/BABOON.png,,,,,,,,m,1,0.8375,,,,,,,,0,40,40,58,1
,,,,,,,,,,,,,,,,,200284,20,2022-01-28_20h48.19.282,lexical_decision_task_DD_L3,2021.2.3,MacIntel,59.99880002,,,,,,,,,,,0.551,1,,,,,,,,,,,,,,,,,,,,,,,,0.025097995,-0.409396227,0,0,0,space,,,,,,KITTEN,LB,m,m,./images/KITTENLB.png,18.7232,,,,,,,m,1,0.551,,,,,,,,0,41,41,45,1
,,,,,,,,,,,,,,,,,200284,20,2022-01-28_20h48.19.282,lexical_decision_task_DD_L3,2021.2.3,MacIntel,59.99880002,,,,,,,,,,,0.969,1,,,,,,,,,,,,,,,,,,,,,,,,0.025097995,-0.409396227,0,0,0,,,,,,,CRATER,LB,z,m,./images/CRATERLB.png,,,,,,,,z,1,0.969,,,,,,,,0,42,42,87,1
,,,,,,,,,,,,,,,,,200284,20,2022-01-28_20h48.19.282,lexical_decision_task_DD_L3,2021.2.3,MacIntel,59.99880002,,,,,,,,,,,0.6669,1,,,,,,,,,,,,,,,,,,,,,,,,0.025097995,-0.409396227,0,0,0,,,,,,,ONION,LB,m,m,./images/ONIONLB.png,,,,,,,,m,1,0.6669,,,,,,,,0,43,43,51,1
,,,,,,,,,,,,,,,,,200284,20,2022-01-28_20h48.19.282,lexical_decision_task_DD_L3,2021.2.3,MacIntel,59.99880002,,,,,,,,,,,0.538,1,,,,,,,,,,,,,,,,,,,,,,,,0.025097995,-0.409396227,0,0,0,,,,,,,CANDLE,C,m,m,./images/CANDLE.png,,,,,,,,m,1,0.538,,,,,,,,0,44,44,61,1
,,,,,,,,,,,,,,,,,200284,20,2022-01-28_20h48.19.282,lexical_decision_task_DD_L3,2021.2.3,MacIntel,59.99880002,,,,,,,,,,,0.8397,1,,,,,,,,,,,,,,,,,,,,,,,,0.025097995,-0.409396227,0,0,0,,,,,,,SCREW,LB,m,m,./images/SCREWLB.png,,,,,,,,m,1,0.8397,,,,,,,,0,45,45,24,1
,,,,,,,,,,,,,,,,,200284,20,2022-01-28_20h48.19.282,lexical_decision_task_DD_L3,2021.2.3,MacIntel,59.99880002,,,,,,,,,,,0.8352,1,,,,,,,,,,,,,,,,,,,,,,,,0.025097995,-0.409396227,0,0,0,,,,,,,DIVER,LB,z,m,./images/DIVERLB.png,,,,,,,,z,1,0.8352,,,,,,,,0,46,46,93,1
,,,,,,,,,,,,,,,,,200284,20,2022-01-28_20h48.19.282,lexical_decision_task_DD_L3,2021.2.3,MacIntel,59.99880002,,,,,,,,,,,0.7064,1,,,,,,,,,,,,,,,,,,,,,,,,0.025097995,-0.409396227,0,0,0,,,,,,,MIDGET,C,z,m,./images/MIDGET.png,,,,,,,,z,1,0.7064,,,,,,,,0,47,47,160,1
,,,,,,,,,,,,,,,,,200284,20,2022-01-28_20h48.19.282,lexical_decision_task_DD_L3,2021.2.3,MacIntel,59.99880002,,,,,,,,,,,0.6703,0,,,,,,,,,,,,,,,,,,,,,,,,0.025097995,-0.409396227,0,0,0,,,,,,,NOOSE,LB,m,m,./images/NOOSELB.png,,,,,,,,z,0,0.6703,,,,,,,,0,48,48,72,1
,,,,,,,,,,,,,,,,,200284,20,2022-01-28_20h48.19.282,lexical_decision_task_DD_L3,2021.2.3,MacIntel,59.99880002,,,,,,,,,,,0.8507,1,,,,,,,,,,,,,,,,,,,,,,,,0.025097995,-0.409396227,0,0,0,,,,,,,STORM,LB,m,m,./images/STORMLB.png,,,,,,,,m,1,0.8507,,,,,,,,0,49,49,30,1
,,,,,,,,,,,,,,,,,200284,20,2022-01-28_20h48.19.282,lexical_decision_task_DD_L3,2021.2.3,MacIntel,59.99880002,,,,,,,,,,,0.6502,1,,,,,,,,,,,,,,,,,,,,,,,,0.025097995,-0.409396227,0,0,0,,,,,,,LADDER,HB,m,m,./images/LADDERHB.png,,,,,,,,m,1,0.6502,,,,,,,,0,50,50,38,1
,,,,,,,,,,,,,,,,,200284,20,2022-01-28_20h48.19.282,lexical_decision_task_DD_L3,2021.2.3,MacIntel,59.99880002,,,,,,,,,,,1.2174,1,,,,,,,,,,,,,,,,,,,,,,,,0.025097995,-0.409396227,0,0,0,,,,,,,SHIELD,LB,z,m,./images/SHIELDLB.png,,,,,,,,z,1,1.2174,,,,,,,,0,51,51,132,1
,,,,,,,,,,,,,,,,,200284,20,2022-01-28_20h48.19.282,lexical_decision_task_DD_L3,2021.2.3,MacIntel,59.99880002,,,,,,,,,,,0.6173,1,,,,,,,,,,,,,,,,,,,,,,,,0.025097995,-0.409396227,0,0,0,,,,,,,DRUMS,C,m,m,./images/DRUMS.png,,,,,,,,m,1,0.6173,,,,,,,,0,52,52,49,1
,,,,,,,,,,,,,,,,,200284,20,2022-01-28_20h48.19.282,lexical_decision_task_DD_L3,2021.2.3,MacIntel,59.99880002,,,,,,,,,,,0.5506,1,,,,,,,,,,,,,,,,,,,,,,,,0.025097995,-0.409396227,0,0,0,,,,,,,CRUMB,HB,m,m,./images/CRUMBHB.png,,,,,,,,m,1,0.5506,,,,,,,,0,53,53,29,1
,,,,,,,,,,,,,,,,,200284,20,2022-01-28_20h48.19.282,lexical_decision_task_DD_L3,2021.2.3,MacIntel,59.99880002,,,,,,,,,,,0.584,1,,,,,,,,,,,,,,,,,,,,,,,,0.025097995,-0.409396227,0,0,0,,,,,,,RHINO,LB,m,m,./images/RHINOLB.png,,,,,,,,m,1,0.584,,,,,,,,0,54,54,9,1
,,,,,,,,,,,,,,,,,200284,20,2022-01-28_20h48.19.282,lexical_decision_task_DD_L3,2021.2.3,MacIntel,59.99880002,,,,,,,,,,,0.8026,0,,,,,,,,,,,,,,,,,,,,,,,,0.025097995,-0.409396227,0,0,0,,,,,,,MAMMAL,HB,z,m,./images/MAMMALHB.png,,,,,,,,m,0,0.8026,,,,,,,,0,55,55,146,1
,,,,,,,,,,,,,,,,,200284,20,2022-01-28_20h48.19.282,lexical_decision_task_DD_L3,2021.2.3,MacIntel,59.99880002,,,,,,,,,,,0.7064,1,,,,,,,,,,,,,,,,,,,,,,,,0.025097995,-0.409396227,0,0,0,,,,,,,MONKEY,LB,z,m,./images/MONKEYLB.png,,,,,,,,z,1,0.7064,,,,,,,,0,56,56,129,1
,,,,,,,,,,,,,,,,,200284,20,2022-01-28_20h48.19.282,lexical_decision_task_DD_L3,2021.2.3,MacIntel,59.99880002,,,,,,,,,,,1.1407,0,,,,,,,,,,,,,,,,,,,,,,,,0.025097995,-0.409396227,0,0,0,,,,,,,BAKER,LB,z,m,./images/BAKERLB.png,,,,,,,,m,0,1.1407,,,,,,,,0,57,57,147,1
,,,,,,,,,,,,,,,,,200284,20,2022-01-28_20h48.19.282,lexical_decision_task_DD_L3,2021.2.3,MacIntel,59.99880002,,,,,,,,,,,0.8397,1,,,,,,,,,,,,,,,,,,,,,,,,0.025097995,-0.409396227,0,0,0,,,,,,,SKIING,HB,m,m,./images/SKIINGHB.png,,,,,,,,m,1,0.8397,,,,,,,,0,58,58,17,1
,,,,,,,,,,,,,,,,,200284,20,2022-01-28_20h48.19.282,lexical_decision_task_DD_L3,2021.2.3,MacIntel,59.99880002,,,,,,,,,,,0.7005,1,,,,,,,,,,,,,,,,,,,,,,,,0.025097995,-0.409396227,0,0,0,,,,,,,SWING,C,m,m,./images/SWING.png,,,,,,,,m,1,0.7005,,,,,,,,0,59,59,40,1
,,,,,,,,,,,,,,,,,200284,20,2022-01-28_20h48.19.282,lexical_decision_task_DD_L3,2021.2.3,MacIntel,59.99880002,,,,,,,,,,,1.4185,1,,,,,,,,,,,,,,,,,,,,,,,,0.025097995,-0.409396227,0,0,0,,,,,,,CLOWN,C,z,m,./images/CLOWN.png,,,,,,,,z,1,1.4185,,,,,,,,0,60,60,106,1
,,,,,,,,,,,,,,,,,200284,20,2022-01-28_20h48.19.282,lexical_decision_task_DD_L3,2021.2.3,MacIntel,59.99880002,,,,,,,,,,,0.8098,0,,,,,,,,,,,,,,,,,,,,,,,,0.025097995,-0.409396227,0,0,0,,,,,,,BAMBOO,HB,z,m,./images/BAMBOOHB.png,,,,,,,,m,0,0.8098,,,,,,,,0,61,61,89,1
,,,,,,,,,,,,,,,,,200284,20,2022-01-28_20h48.19.282,lexical_decision_task_DD_L3,2021.2.3,MacIntel,59.99880002,,,,,,,,,,,0.6676,1,,,,,,,,,,,,,,,,,,,,,,,,0.025097995,-0.409396227,0,0,0,,,,,,,WRIST,C,m,m,./images/WRIST.png,,,,,,,,m,1,0.6676,,,,,,,,0,62,62,25,1
,,,,,,,,,,,,,,,,,200284,20,2022-01-28_20h48.19.282,lexical_decision_task_DD_L3,2021.2.3,MacIntel,59.99880002,,,,,,,,,,,0.7427,0,,,,,,,,,,,,,,,,,,,,,,,,0.025097995,-0.409396227,0,0,0,,,,,,,BUTTER,LB,z,m,./images/BUTTERLB.png,,,,,,,,m,0,0.7427,,,,,,,,0,63,63,111,1
,,,,,,,,,,,,,,,,,200284,20,2022-01-28_20h48.19.282,lexical_decision_task_DD_L3,2021.2.3,MacIntel,59.99880002,,,,,,,,,,,0.6228,1,,,,,,,,,,,,,,,,,,,,,,,,0.025097995,-0.409396227,0,0,0,,,,,,,SMOKER,HB,m,m,./images/SMOKERHB.png,,,,,,,,m,1,0.6228,,,,,,,,0,64,64,26,1
,,,,,,,,,,,,,,,,,200284,20,2022-01-28_20h48.19.282,lexical_decision_task_DD_L3,2021.2.3,MacIntel,59.99880002,,,,,,,,,,,0.5869,1,,,,,,,,,,,,,,,,,,,,,,,,0.025097995,-0.409396227,0,0,0,,,,,,,THROAT,LB,m,m,./images/THROATLB.png,,,,,,,,m,1,0.5869,,,,,,,,0,65,65,36,1
,,,,,,,,,,,,,,,,,200284,20,2022-01-28_20h48.19.282,lexical_decision_task_DD_L3,2021.2.3,MacIntel,59.99880002,,,,,,,,,,,0.668,1,,,,,,,,,,,,,,,,,,,,,,,,0.025097995,-0.409396227,0,0,0,,,,,,,PISTOL,HB,z,m,./images/PISTOLHB.png,,,,,,,,z,1,0.668,,,,,,,,0,66,66,113,1
,,,,,,,,,,,,,,,,,200284,20,2022-01-28_20h48.19.282,lexical_decision_task_DD_L3,2021.2.3,MacIntel,59.99880002,,,,,,,,,,,1.0845,1,,,,,,,,,,,,,,,,,,,,,,,,0.025097995,-0.409396227,0,0,0,,,,,,,WHEEL,HB,z,m,./images/WHEELHB.png,,,,,,,,z,1,1.0845,,,,,,,,0,67,67,161,1
,,,,,,,,,,,,,,,,,200284,20,2022-01-28_20h48.19.282,lexical_decision_task_DD_L3,2021.2.3,MacIntel,59.99880002,,,,,,,,,,,0.8021,1,,,,,,,,,,,,,,,,,,,,,,,,0.025097995,-0.409396227,0,0,0,,,,,,,PIMPLE,HB,m,m,./images/PIMPLEHB.png,,,,,,,,m,1,0.8021,,,,,,,,0,68,68,71,1
,,,,,,,,,,,,,,,,,200284,20,2022-01-28_20h48.19.282,lexical_decision_task_DD_L3,2021.2.3,MacIntel,59.99880002,,,,,,,,,,,0.7671,1,,,,,,,,,,,,,,,,,,,,,,,,0.025097995,-0.409396227,0,0,0,,,,,,,ALLEY,C,z,m,./images/ALLEY.png,,,,,,,,z,1,0.7671,,,,,,,,0,69,69,139,1
,,,,,,,,,,,,,,,,,200284,20,2022-01-28_20h48.19.282,lexical_decision_task_DD_L3,2021.2.3,MacIntel,59.99880002,,,,,,,,,,,0.7331,1,,,,,,,,,,,,,,,,,,,,,,,,0.025097995,-0.409396227,0,0,0,,,,,,,PENCE,C,m,m,./images/PENCE.png,,,,,,,,m,1,0.7331,,,,,,,,0,70,70,16,1
,,,,,,,,,,,,,,,,,200284,20,2022-01-28_20h48.19.282,lexical_decision_task_DD_L3,2021.2.3,MacIntel,59.99880002,,,,,,,,,,,0.5867,1,,,,,,,,,,,,,,,,,,,,,,,,0.025097995,-0.409396227,0,0,0,,,,,,,FINGER,LB,m,m,./images/FINGERLB.png,,,,,,,,m,1,0.5867,,,,,,,,0,71,71,3,1
,,,,,,,,,,,,,,,,,200284,20,2022-01-28_20h48.19.282,lexical_decision_task_DD_L3,2021.2.3,MacIntel,59.99880002,,,,,,,,,,,0.7215,0,,,,,,,,,,,,,,,,,,,,,,,,0.025097995,-0.409396227,0,0,0,,,,,,,HAMMER,LB,z,m,./images/HAMMERLB.png,,,,,,,,m,0,0.7215,,,,,,,,0,72,72,159,1
,,,,,,,,,,,,,,,,,200284,20,2022-01-28_20h48.19.282,lexical_decision_task_DD_L3,2021.2.3,MacIntel,59.99880002,,,,,,,,,,,0.5856,1,,,,,,,,,,,,,,,,,,,,,,,,0.025097995,-0.409396227,0,0,0,,,,,,,MIRROR,LB,m,m,./images/MIRRORLB.png,,,,,,,,m,1,0.5856,,,,,,,,0,73,73,63,1
,,,,,,,,,,,,,,,,,200284,20,2022-01-28_20h48.19.282,lexical_decision_task_DD_L3,2021.2.3,MacIntel,59.99880002,,,,,,,,,,,1.0177,1,,,,,,,,,,,,,,,,,,,,,,,,0.025097995,-0.409396227,0,0,0,,,,,,,SHELF,LB,m,m,./images/SHELFLB.png,,,,,,,,m,1,1.0177,,,,,,,,0,74,74,39,1
,,,,,,,,,,,,,,,,,200284,20,2022-01-28_20h48.19.282,lexical_decision_task_DD_L3,2021.2.3,MacIntel,59.99880002,,,,,,,,,,,1.1224,1,,,,,,,,,,,,,,,,,,,,,,,,0.025097995,-0.409396227,0,0,0,,,,,,,SNACK,C,m,m,./images/SNACK.png,,,,,,,,m,1,1.1224,,,,,,,,0,75,75,73,1
,,,,,,,,,,,,,,,,,200284,20,2022-01-28_20h48.19.282,lexical_decision_task_DD_L3,2021.2.3,MacIntel,59.99880002,,,,,,,,,,,0.6725,1,,,,,,,,,,,,,,,,,,,,,,,,0.025097995,-0.409396227,0,0,0,,,,,,,PLANK,C,m,m,./images/PLANK.png,,,,,,,,m,1,0.6725,,,,,,,,0,76,76,1,1
,,,,,,,,,,,,,,,,,200284,20,2022-01-28_20h48.19.282,lexical_decision_task_DD_L3,2021.2.3,MacIntel,59.99880002,,,,,,,,,,,0.8336,1,,,,,,,,,,,,,,,,,,,,,,,,0.025097995,-0.409396227,0,0,0,,,,,,,STAIN,LB,z,m,./images/STAINLB.png,,,,,,,,z,1,0.8336,,,,,,,,0,77,77,90,1
,,,,,,,,,,,,,,,,,200284,20,2022-01-28_20h48.19.282,lexical_decision_task_DD_L3,2021.2.3,MacIntel,59.99880002,,,,,,,,,,,0.6845,0,,,,,,,,,,,,,,,,,,,,,,,,0.025097995,-0.409396227,0,0,0,,,,,,,WALNUT,LB,z,m,./images/WALNUTLB.png,,,,,,,,m,0,0.6845,,,,,,,,0,78,78,84,1
,,,,,,,,,,,,,,,,,200284,20,2022-01-28_20h48.19.282,lexical_decision_task_DD_L3,2021.2.3,MacIntel,59.99880002,,,,,,,,,,,0.8839,1,,,,,,,,,,,,,,,,,,,,,,,,0.025097995,-0.409396227,0,0,0,,,,,,,DANCER,LB,z,m,./images/DANCERLB.png,,,,,,,,z,1,0.8839,,,,,,,,0,79,79,105,1
,,,,,,,,,,,,,,,,,200284,20,2022-01-28_20h48.19.282,lexical_decision_task_DD_L3,2021.2.3,MacIntel,59.99880002,,,,,,,,,,,0.7577,1,,,,,,,,,,,,,,,,,,,,,,,,0.025097995,-0.409396227,0,0,0,,,,,,,JUNGLE,HB,m,m,./images/JUNGLEHB.png,,,,,,,,m,1,0.7577,,,,,,,,0,80,80,83,1
,,,,,,,,,,,,,,,,,200284,20,2022-01-28_20h48.19.282,lexical_decision_task_DD_L3,2021.2.3,MacIntel,59.99880002,,,,,,,,,,,2.4501,1,,,,,,,,,,,,,,,,,,,,,,,,0.025097995,-0.409396227,0,0,0,,,,,,,BOILER,LB,z,m,./images/BOILERLB.png,,,,,,,,z,1,2.4501,,,,,,,,0,81,81,120,1
,,,,,,,,,,,,,,,,,200284,20,2022-01-28_20h48.19.282,lexical_decision_task_DD_L3,2021.2.3,MacIntel,59.99880002,,,,,,,,,,,1.0015,1,,,,,,,,,,,,,,,,,,,,,,,,0.025097995,-0.409396227,0,0,0,,,,,,,BRIDE,C,z,m,./images/BRIDE.png,,,,,,,,z,1,1.0015,,,,,,,,0,82,82,148,1
,,,,,,,,,,,,,,,,,200284,20,2022-01-28_20h48.19.282,lexical_decision_task_DD_L3,2021.2.3,MacIntel,59.99880002,,,,,,,,,,,0.8172,1,,,,,,,,,,,,,,,,,,,,,,,,0.025097995,-0.409396227,0,0,0,space,,,,,,BELLY,C,m,m,./images/BELLY.png,8.8744,,,,,,,m,1,0.8172,,,,,,,,0,83,83,10,1
,,,,,,,,,,,,,,,,,200284,20,2022-01-28_20h48.19.282,lexical_decision_task_DD_L3,2021.2.3,MacIntel,59.99880002,,,,,,,,,,,0.95,0,,,,,,,,,,,,,,,,,,,,,,,,0.025097995,-0.409396227,0,0,0,,,,,,,DOUGH,C,m,m,./images/DOUGH.png,,,,,,,,z,0,0.95,,,,,,,,0,84,84,19,1
,,,,,,,,,,,,,,,,,200284,20,2022-01-28_20h48.19.282,lexical_decision_task_DD_L3,2021.2.3,MacIntel,59.99880002,,,,,,,,,,,0.5383,1,,,,,,,,,,,,,,,,,,,,,,,,0.025097995,-0.409396227,0,0,0,,,,,,,BERRY,HB,m,m,./images/BERRYHB.png,,,,,,,,m,1,0.5383,,,,,,,,0,85,85,47,1
,,,,,,,,,,,,,,,,,200284,20,2022-01-28_20h48.19.282,lexical_decision_task_DD_L3,2021.2.3,MacIntel,59.99880002,,,,,,,,,,,1.17,1,,,,,,,,,,,,,,,,,,,,,,,,0.025097995,-0.409396227,0,0,0,,,,,,,SUNSET,C,m,m,./images/SUNSET.png,,,,,,,,m,1,1.17,,,,,,,,0,86,86,82,1
,,,,,,,,,,,,,,,,,200284,20,2022-01-28_20h48.19.282,lexical_decision_task_DD_L3,2021.2.3,MacIntel,59.99880002,,,,,,,,,,,0.9334,1,,,,,,,,,,,,,,,,,,,,,,,,0.025097995,-0.409396227,0,0,0,,,,,,,MALLET,HB,m,m,./images/MALLETHB.png,,,,,,,,m,1,0.9334,,,,,,,,0,87,87,50,1
,,,,,,,,,,,,,,,,,200284,20,2022-01-28_20h48.19.282,lexical_decision_task_DD_L3,2021.2.3,MacIntel,59.99880002,,,,,,,,,,,1.1534,1,,,,,,,,,,,,,,,,,,,,,,,,0.025097995,-0.409396227,0,0,0,,,,,,,DESERT,C,z,m,./images/DESERT.png,,,,,,,,z,1,1.1534,,,,,,,,0,88,88,136,1
,,,,,,,,,,,,,,,,,200284,20,2022-01-28_20h48.19.282,lexical_decision_task_DD_L3,2021.2.3,MacIntel,59.99880002,,,,,,,,,,,1.234,1,,,,,,,,,,,,,,,,,,,,,,,,0.025097995,-0.409396227,0,0,0,,,,,,,FLESH,LB,z,m,./images/FLESHLB.png,,,,,,,,z,1,1.234,,,,,,,,0,89,89,108,1
,,,,,,,,,,,,,,,,,200284,20,2022-01-28_20h48.19.282,lexical_decision_task_DD_L3,2021.2.3,MacIntel,59.99880002,,,,,,,,,,,0.587,1,,,,,,,,,,,,,,,,,,,,,,,,0.025097995,-0.409396227,0,0,0,,,,,,,MAGGOT,LB,m,m,./images/MAGGOTLB.png,,,,,,,,m,1,0.587,,,,,,,,0,90,90,33,1
,,,,,,,,,,,,,,,,,200284,20,2022-01-28_20h48.19.282,lexical_decision_task_DD_L3,2021.2.3,MacIntel,59.99880002,,,,,,,,,,,0.736,0,,,,,,,,,,,,,,,,,,,,,,,,0.025097995,-0.409396227,0,0,0,,,,,,,WHISKY,HB,z,m,./images/WHISKYHB.png,,,,,,,,m,0,0.736,,,,,,,,0,91,91,167,1
,,,,,,,,,,,,,,,,,200284,20,2022-01-28_20h48.19.282,lexical_decision_task_DD_L3,2021.2.3,MacIntel,59.99880002,,,,,,,,,,,1.3009,1,,,,,,,,,,,,,,,,,,,,,,,,0.025097995,-0.409396227,0,0,0,,,,,,,PEACH,HB,m,m,./images/PEACHHB.png,,,,,,,,m,1,1.3009,,,,,,,,0,92,92,35,1
,,,,,,,,,,,,,,,,,200284,20,2022-01-28_20h48.19.282,lexical_decision_task_DD_L3,2021.2.3,MacIntel,59.99880002,,,,,,,,,,,0.8836,1,,,,,,,,,,,,,,,,,,,,,,,,0.025097995,-0.409396227,0,0,0,,,,,,,GLOVE,C,z,m,./images/GLOVE.png,,,,,,,,z,1,0.8836,,,,,,,,0,93,93,157,1
,,,,,,,,,,,,,,,,,200284,20,2022-01-28_20h48.19.282,lexical_decision_task_DD_L3,2021.2.3,MacIntel,59.99880002,,,,,,,,,,,0.9507,1,,,,,,,,,,,,,,,,,,,,,,,,0.025097995,-0.409396227,0,0,0,,,,,,,SAILOR,C,m,m,./images/SAILOR.png,,,,,,,,m,1,0.9507,,,,,,,,0,94,94,67,1
,,,,,,,,,,,,,,,,,200284,20,2022-01-28_20h48.19.282,lexical_decision_task_DD_L3,2021.2.3,MacIntel,59.99880002,,,,,,,,,,,0.79,1,,,,,,,,,,,,,,,,,,,,,,,,0.025097995,-0.409396227,0,0,0,,,,,,,COUCH,HB,m,m,./images/COUCHHB.png,,,,,,,,m,1,0.79,,,,,,,,0,95,95,77,1
,,,,,,,,,,,,,,,,,200284,20,2022-01-28_20h48.19.282,lexical_decision_task_DD_L3,2021.2.3,MacIntel,59.99880002,,,,,,,,,,,0.9505,1,,,,,,,,,,,,,,,,,,,,,,,,0.025097995,-0.409396227,0,0,0,,,,,,,BOXER,C,z,m,./images/BOXER.png,,,,,,,,z,1,0.9505,,,,,,,,0,96,96,88,1
,,,,,,,,,,,,,,,,,200284,20,2022-01-28_20h48.19.282,lexical_decision_task_DD_L3,2021.2.3,MacIntel,59.99880002,,,,,,,,,,,0.7673,1,,,,,,,,,,,,,,,,,,,,,,,,0.025097995,-0.409396227,0,0,0,,,,,,,TIGER,C,z,m,./images/TIGER.png,,,,,,,,z,1,0.7673,,,,,,,,0,97,97,121,1
,,,,,,,,,,,,,,,,,200284,20,2022-01-28_20h48.19.282,lexical_decision_task_DD_L3,2021.2.3,MacIntel,59.99880002,,,,,,,,,,,0.8503,1,,,,,,,,,,,,,,,,,,,,,,,,0.025097995,-0.409396227,0,0,0,,,,,,,FENCE,HB,z,m,./images/FENCEHB.png,,,,,,,,z,1,0.8503,,,,,,,,0,98,98,98,1
,,,,,,,,,,,,,,,,,200284,20,2022-01-28_20h48.19.282,lexical_decision_task_DD_L3,2021.2.3,MacIntel,59.99880002,,,,,,,,,,,0.9383,1,,,,,,,,,,,,,,,,,,,,,,,,0.025097995,-0.409396227,0,0,0,,,,,,,BUBBLE,HB,z,m,./images/BUBBLEHB.png,,,,,,,,z,1,0.9383,,,,,,,,0,99,99,155,1
,,,,,,,,,,,,,,,,,200284,20,2022-01-28_20h48.19.282,lexical_decision_task_DD_L3,2021.2.3,MacIntel,59.99880002,,,,,,,,,,,0.9168,1,,,,,,,,,,,,,,,,,,,,,,,,0.025097995,-0.409396227,0,0,0,,,,,,,TORCH,HB,m,m,./images/TORCHHB.png,,,,,,,,m,1,0.9168,,,,,,,,0,100,100,68,1
,,,,,,,,,,,,,,,,,200284,20,2022-01-28_20h48.19.282,lexical_decision_task_DD_L3,2021.2.3,MacIntel,59.99880002,,,,,,,,,,,0.6383,0,,,,,,,,,,,,,,,,,,,,,,,,0.025097995,-0.409396227,0,0,0,,,,,,,MUMMY,C,z,m,./images/MUMMY.png,,,,,,,,m,0,0.6383,,,,,,,,0,101,101,130,1
,,,,,,,,,,,,,,,,,200284,20,2022-01-28_20h48.19.282,lexical_decision_task_DD_L3,2021.2.3,MacIntel,59.99880002,,,,,,,,,,,1.5505,1,,,,,,,,,,,,,,,,,,,,,,,,0.025097995,-0.409396227,0,0,0,,,,,,,CARPET,HB,m,m,./images/CARPETHB.png,,,,,,,,m,1,1.5505,,,,,,,,0,102,102,53,1
,,,,,,,,,,,,,,,,,200284,20,2022-01-28_20h48.19.282,lexical_decision_task_DD_L3,2021.2.3,MacIntel,59.99880002,,,,,,,,,,,1.0764,1,,,,,,,,,,,,,,,,,,,,,,,,0.025097995,-0.409396227,0,0,0,,,,,,,STREAM,HB,z,m,./images/STREAMHB.png,,,,,,,,z,1,1.0764,,,,,,,,0,103,103,125,1
,,,,,,,,,,,,,,,,,200284,20,2022-01-28_20h48.19.282,lexical_decision_task_DD_L3,2021.2.3,MacIntel,59.99880002,,,,,,,,,,,0.717,1,,,,,,,,,,,,,,,,,,,,,,,,0.025097995,-0.409396227,0,0,0,,,,,,,CANOE,C,z,m,./images/CANOE.png,,,,,,,,z,1,0.717,,,,,,,,0,104,104,142,1
,,,,,,,,,,,,,,,,,200284,20,2022-01-28_20h48.19.282,lexical_decision_task_DD_L3,2021.2.3,MacIntel,59.99880002,,,,,,,,,,,0.6843,1,,,,,,,,,,,,,,,,,,,,,,,,0.025097995,-0.409396227,0,0,0,,,,,,,PEARL,C,m,m,./images/PEARL.png,,,,,,,,m,1,0.6843,,,,,,,,0,105,105,46,1
,,,,,,,,,,,,,,,,,200284,20,2022-01-28_20h48.19.282,lexical_decision_task_DD_L3,2021.2.3,MacIntel,59.99880002,,,,,,,,,,,0.7837,1,,,,,,,,,,,,,,,,,,,,,,,,0.025097995,-0.409396227,0,0,0,,,,,,,STEAK,C,z,m,./images/STEAK.png,,,,,,,,z,1,0.7837,,,,,,,,0,106,106,115,1
,,,,,,,,,,,,,,,,,200284,20,2022-01-28_20h48.19.282,lexical_decision_task_DD_L3,2021.2.3,MacIntel,59.99880002,,,,,,,,,,,0.7502,1,,,,,,,,,,,,,,,,,,,,,,,,0.025097995,-0.409396227,0,0,0,,,,,,,SPORT,LB,m,m,./images/SPORTLB.png,,,,,,,,m,1,0.7502,,,,,,,,0,107,107,48,1
,,,,,,,,,,,,,,,,,200284,20,2022-01-28_20h48.19.282,lexical_decision_task_DD_L3,2021.2.3,MacIntel,59.99880002,,,,,,,,,,,0.7558,1,,,,,,,,,,,,,,,,,,,,,,,,0.025097995,-0.409396227,0,0,0,,,,,,,PAINT,C,m,m,./images/PAINT.png,,,,,,,,m,1,0.7558,,,,,,,,0,108,108,7,1
,,,,,,,,,,,,,,,,,200284,20,2022-01-28_20h48.19.282,lexical_decision_task_DD_L3,2021.2.3,MacIntel,59.99880002,,,,,,,,,,,0.7879,1,,,,,,,,,,,,,,,,,,,,,,,,0.025097995,-0.409396227,0,0,0,,,,,,,PARADE,HB,z,m,./images/PARADEHB.png,,,,,,,,z,1,0.7879,,,,,,,,0,109,109,101,1
,,,,,,,,,,,,,,,,,200284,20,2022-01-28_20h48.19.282,lexical_decision_task_DD_L3,2021.2.3,MacIntel,59.99880002,,,,,,,,,,,0.7054,1,,,,,,,,,,,,,,,,,,,,,,,,0.025097995,-0.409396227,0,0,0,,,,,,,SAUNA,LB,z,m,./images/SAUNALB.png,,,,,,,,z,1,0.7054,,,,,,,,0,110,110,117,1
,,,,,,,,,,,,,,,,,200284,20,2022-01-28_20h48.19.282,lexical_decision_task_DD_L3,2021.2.3,MacIntel,59.99880002,,,,,,,,,,,0.7335,1,,,,,,,,,,,,,,,,,,,,,,,,0.025097995,-0.409396227,0,0,0,,,,,,,GARDEN,C,z,m,./images/GARDEN.png,,,,,,,,z,1,0.7335,,,,,,,,0,111,111,94,1
,,,,,,,,,,,,,,,,,200284,20,2022-01-28_20h48.19.282,lexical_decision_task_DD_L3,2021.2.3,MacIntel,59.99880002,,,,,,,,,,,0.9183,1,,,,,,,,,,,,,,,,,,,,,,,,0.025097995,-0.409396227,0,0,0,,,,,,,GRAPE,C,z,m,./images/GRAPE.png,,,,,,,,z,1,0.9183,,,,,,,,0,112,112,100,1
,,,,,,,,,,,,,,,,,200284,20,2022-01-28_20h48.19.282,lexical_decision_task_DD_L3,2021.2.3,MacIntel,59.99880002,,,,,,,,,,,0.9172,1,,,,,,,,,,,,,,,,,,,,,,,,0.025097995,-0.409396227,0,0,0,,,,,,,BLOKE,LB,z,m,./images/BLOKELB.png,,,,,,,,z,1,0.9172,,,,,,,,0,113,113,96,1
,,,,,,,,,,,,,,,,,200284,20,2022-01-28_20h48.19.282,lexical_decision_task_DD_L3,2021.2.3,MacIntel,59.99880002,,,,,,,,,,,0.7733,1,,,,,,,,,,,,,,,,,,,,,,,,0.025097995,-0.409396227,0,0,0,,,,,,,BROOM,LB,z,m,./images/BROOMLB.png,,,,,,,,z,1,0.7733,,,,,,,,0,114,114,162,1
,,,,,,,,,,,,,,,,,200284,20,2022-01-28_20h48.19.282,lexical_decision_task_DD_L3,2021.2.3,MacIntel,59.99880002,,,,,,,,,,,0.7253,1,,,,,,,,,,,,,,,,,,,,,,,,0.025097995,-0.409396227,0,0,0,,,,,,,CANYON,C,m,m,./images/CANYON.png,,,,,,,,m,1,0.7253,,,,,,,,0,115,115,34,1
,,,,,,,,,,,,,,,,,200284,20,2022-01-28_20h48.19.282,lexical_decision_task_DD_L3,2021.2.3,MacIntel,59.99880002,,,,,,,,,,,2.9714,0,,,,,,,,,,,,,,,,,,,,,,,,0.025097995,-0.409396227,0,0,0,,,,,,,INFANT,C,m,m,./images/INFANT.png,,,,,,,,z,0,2.9714,,,,,,,,0,116,116,76,1
,,,,,,,,,,,,,,,,,200284,20,2022-01-28_20h48.19.282,lexical_decision_task_DD_L3,2021.2.3,MacIntel,59.99880002,,,,,,,,,,,1.0408,1,,,,,,,,,,,,,,,,,,,,,,,,0.025097995,-0.409396227,0,0,0,,,,,,,CLOUD,HB,z,m,./images/CLOUDHB.png,,,,,,,,z,1,1.0408,,,,,,,,0,117,117,110,1
,,,,,,,,,,,,,,,,,200284,20,2022-01-28_20h48.19.282,lexical_decision_task_DD_L3,2021.2.3,MacIntel,59.99880002,,,,,,,,,,,0.7507,1,,,,,,,,,,,,,,,,,,,,,,,,0.025097995,-0.409396227,0,0,0,,,,,,,TULIP,HB,m,m,./images/TULIPHB.png,,,,,,,,m,1,0.7507,,,,,,,,0,118,118,8,1
,,,,,,,,,,,,,,,,,200284,20,2022-01-28_20h48.19.282,lexical_decision_task_DD_L3,2021.2.3,MacIntel,59.99880002,,,,,,,,,,,0.7208,1,,,,,,,,,,,,,,,,,,,,,,,,0.025097995,-0.409396227,0,0,0,,,,,,,TRIPOD,LB,m,m,./images/TRIPODLB.png,,,,,,,,m,1,0.7208,,,,,,,,0,119,119,54,1
,,,,,,,,,,,,,,,,,200284,20,2022-01-28_20h48.19.282,lexical_decision_task_DD_L3,2021.2.3,MacIntel,59.99880002,,,,,,,,,,,0.5701,1,,,,,,,,,,,,,,,,,,,,,,,,0.025097995,-0.409396227,0,0,0,,,,,,,PURSE,HB,m,m,./images/PURSEHB.png,,,,,,,,m,1,0.5701,,,,,,,,0,120,120,62,1
,,,,,,,,,,,,,,,,,200284,20,2022-01-28_20h48.19.282,lexical_decision_task_DD_L3,2021.2.3,MacIntel,59.99880002,,,,,,,,,,,0.8226,1,,,,,,,,,,,,,,,,,,,,,,,,0.025097995,-0.409396227,0,0,0,,,,,,,STATUE,LB,z,m,./images/STATUELB.png,,,,,,,,z,1,0.8226,,,,,,,,0,121,121,150,1
,,,,,,,,,,,,,,,,,200284,20,2022-01-28_20h48.19.282,lexical_decision_task_DD_L3,2021.2.3,MacIntel,59.99880002,,,,,,,,,,,0.6001,1,,,,,,,,,,,,,,,,,,,,,,,,0.025097995,-0.409396227,0,0,0,,,,,,,URINE,C,m,m,./images/URINE.png,,,,,,,,m,1,0.6001,,,,,,,,0,122,122,70,1
,,,,,,,,,,,,,,,,,200284,20,2022-01-28_20h48.19.282,lexical_decision_task_DD_L3,2021.2.3,MacIntel,59.99880002,,,,,,,,,,,0.6328,1,,,,,,,,,,,,,,,,,,,,,,,,0.025097995,-0.409396227,0,0,0,,,,,,,CRADLE,HB,m,m,./images/CRADLEHB.png,,,,,,,,m,1,0.6328,,,,,,,,0,123,123,20,1
,,,,,,,,,,,,,,,,,200284,20,2022-01-28_20h48.19.282,lexical_decision_task_DD_L3,2021.2.3,MacIntel,59.99880002,,,,,,,,,,,0.626,1,,,,,,,,,,,,,,,,,,,,,,,,0.025097995,-0.409396227,0,0,0,,,,,,,ATTIC,LB,m,m,./images/ATTICLB.png,,,,,,,,m,1,0.626,,,,,,,,0,124,124,27,1
,,,,,,,,,,,,,,,,,200284,20,2022-01-28_20h48.19.282,lexical_decision_task_DD_L3,2021.2.3,MacIntel,59.99880002,,,,,,,,,,,0.801,1,,,,,,,,,,,,,,,,,,,,,,,,0.025097995,-0.409396227,0,0,0,space,,,,,,FALCON,C,m,m,./images/FALCON.png,13.3907,,,,,,,m,1,0.801,,,,,,,,0,125,125,28,1
,,,,,,,,,,,,,,,,,200284,20,2022-01-28_20h48.19.282,lexical_decision_task_DD_L3,2021.2.3,MacIntel,59.99880002,,,,,,,,,,,0.8681,1,,,,,,,,,,,,,,,,,,,,,,,,0.025097995,-0.409396227,0,0,0,,,,,,,COLLAR,LB,z,m,./images/COLLARLB.png,,,,,,,,z,1,0.8681,,,,,,,,0,126,126,99,1
,,,,,,,,,,,,,,,,,200284,20,2022-01-28_20h48.19.282,lexical_decision_task_DD_L3,2021.2.3,MacIntel,59.99880002,,,,,,,,,,,0.7553,1,,,,,,,,,,,,,,,,,,,,,,,,0.025097995,-0.409396227,0,0,0,,,,,,,HEATER,HB,z,m,./images/HEATERHB.png,,,,,,,,z,1,0.7553,,,,,,,,0,127,127,140,1
,,,,,,,,,,,,,,,,,200284,20,2022-01-28_20h48.19.282,lexical_decision_task_DD_L3,2021.2.3,MacIntel,59.99880002,,,,,,,,,,,0.6,1,,,,,,,,,,,,,,,,,,,,,,,,0.025097995,-0.409396227,0,0,0,,,,,,,SWEAT,LB,m,m,./images/SWEATLB.png,,,,,,,,m,1,0.6,,,,,,,,0,128,128,66,1
,,,,,,,,,,,,,,,,,200284,20,2022-01-28_20h48.19.282,lexical_decision_task_DD_L3,2021.2.3,MacIntel,59.99880002,,,,,,,,,,,0.8056,1,,,,,,,,,,,,,,,,,,,,,,,,0.025097995,-0.409396227,0,0,0,,,,,,,RULER,C,z,m,./images/RULER.png,,,,,,,,z,1,0.8056,,,,,,,,0,129,129,163,1
,,,,,,,,,,,,,,,,,200284,20,2022-01-28_20h48.19.282,lexical_decision_task_DD_L3,2021.2.3,MacIntel,59.99880002,,,,,,,,,,,0.7666,1,,,,,,,,,,,,,,,,,,,,,,,,0.025097995,-0.409396227,0,0,0,,,,,,,LITTER,LB,m,m,./images/LITTERLB.png,,,,,,,,m,1,0.7666,,,,,,,,0,130,130,78,1
,,,,,,,,,,,,,,,,,200284,20,2022-01-28_20h48.19.282,lexical_decision_task_DD_L3,2021.2.3,MacIntel,59.99880002,,,,,,,,,,,0.9365,0,,,,,,,,,,,,,,,,,,,,,,,,0.025097995,-0.409396227,0,0,0,,,,,,,BIRTH,C,m,m,./images/BIRTH.png,,,,,,,,z,0,0.9365,,,,,,,,0,131,131,37,1
,,,,,,,,,,,,,,,,,200284,20,2022-01-28_20h48.19.282,lexical_decision_task_DD_L3,2021.2.3,MacIntel,59.99880002,,,,,,,,,,,0.8394,0,,,,,,,,,,,,,,,,,,,,,,,,0.025097995,-0.409396227,0,0,0,,,,,,,PILOT,HB,z,m,./images/PILOTHB.png,,,,,,,,m,0,0.8394,,,,,,,,0,132,132,134,1
,,,,,,,,,,,,,,,,,200284,20,2022-01-28_20h48.19.282,lexical_decision_task_DD_L3,2021.2.3,MacIntel,59.99880002,,,,,,,,,,,0.607,0,,,,,,,,,,,,,,,,,,,,,,,,0.025097995,-0.409396227,0,0,0,,,,,,,CHERRY,LB,z,m,./images/CHERRYLB.png,,,,,,,,m,0,0.607,,,,,,,,0,133,133,138,1
,,,,,,,,,,,,,,,,,200284,20,2022-01-28_20h48.19.282,lexical_decision_task_DD_L3,2021.2.3,MacIntel,59.99880002,,,,,,,,,,,1.338,0,,,,,,,,,,,,,,,,,,,,,,,,0.025097995,-0.409396227,0,0,0,,,,,,,CHAIN,LB,z,m,./images/CHAINLB.png,,,,,,,,m,0,1.338,,,,,,,,0,134,134,126,1
,,,,,,,,,,,,,,,,,200284,20,2022-01-28_20h48.19.282,lexical_decision_task_DD_L3,2021.2.3,MacIntel,59.99880002,,,,,,,,,,,1.7503,0,,,,,,,,,,,,,,,,,,,,,,,,0.025097995,-0.409396227,0,0,0,,,,,,,COOKER,LB,m,m,./images/COOKERLB.png,,,,,,,,z,0,1.7503,,,,,,,,0,135,135,69,1
,,,,,,,,,,,,,,,,,200284,20,2022-01-28_20h48.19.282,lexical_decision_task_DD_L3,2021.2.3,MacIntel,59.99880002,,,,,,,,,,,0.8165,1,,,,,,,,,,,,,,,,,,,,,,,,0.025097995,-0.409396227,0,0,0,,,,,,,STOOL,C,z,m,./images/STOOL.png,,,,,,,,z,1,0.8165,,,,,,,,0,136,136,127,1
,,,,,,,,,,,,,,,,,200284,20,2022-01-28_20h48.19.282,lexical_decision_task_DD_L3,2021.2.3,MacIntel,59.99880002,,,,,,,,,,,0.9672,1,,,,,,,,,,,,,,,,,,,,,,,,0.025097995,-0.409396227,0,0,0,,,,,,,FOLDER,LB,m,m,./images/FOLDERLB.png,,,,,,,,m,1,0.9672,,,,,,,,0,137,137,42,1
,,,,,,,,,,,,,,,,,200284,20,2022-01-28_20h48.19.282,lexical_decision_task_DD_L3,2021.2.3,MacIntel,59.99880002,,,,,,,,,,,0.6188,1,,,,,,,,,,,,,,,,,,,,,,,,0.025097995,-0.409396227,0,0,0,,,,,,,MOTOR,C,m,m,./images/MOTOR.png,,,,,,,,m,1,0.6188,,,,,,,,0,138,138,13,1
,,,,,,,,,,,,,,,,,200284,20,2022-01-28_20h48.19.282,lexical_decision_task_DD_L3,2021.2.3,MacIntel,59.99880002,,,,,,,,,,,0.6393,1,,,,,,,,,,,,,,,,,,,,,,,,0.025097995,-0.409396227,0,0,0,,,,,,,FARMER,HB,m,m,./images/FARMERHB.png,,,,,,,,m,1,0.6393,,,,,,,,0,139,139,65,1
,,,,,,,,,,,,,,,,,200284,20,2022-01-28_20h48.19.282,lexical_decision_task_DD_L3,2021.2.3,MacIntel,59.99880002,,,,,,,,,,,0.7163,1,,,,,,,,,,,,,,,,,,,,,,,,0.025097995,-0.409396227,0,0,0,,,,,,,MOSQUE,C,m,m,./images/MOSQUE.png,,,,,,,,m,1,0.7163,,,,,,,,0,140,140,43,1
,,,,,,,,,,,,,,,,,200284,20,2022-01-28_20h48.19.282,lexical_decision_task_DD_L3,2021.2.3,MacIntel,59.99880002,,,,,,,,,,,0.6835,1,,,,,,,,,,,,,,,,,,,,,,,,0.025097995,-0.409396227,0,0,0,,,,,,,BUNNY,C,z,m,./images/BUNNY.png,,,,,,,,z,1,0.6835,,,,,,,,0,141,141,97,1
,,,,,,,,,,,,,,,,,200284,20,2022-01-28_20h48.19.282,lexical_decision_task_DD_L3,2021.2.3,MacIntel,59.99880002,,,,,,,,,,,0.7668,1,,,,,,,,,,,,,,,,,,,,,,,,0.025097995,-0.409396227,0,0,0,,,,,,,BASKET,HB,z,m,./images/BASKETHB.png,,,,,,,,z,1,0.7668,,,,,,,,0,142,142,128,1
,,,,,,,,,,,,,,,,,200284,20,2022-01-28_20h48.19.282,lexical_decision_task_DD_L3,2021.2.3,MacIntel,59.99880002,,,,,,,,,,,0.5873,0,,,,,,,,,,,,,,,,,,,,,,,,0.025097995,-0.409396227,0,0,0,,,,,,,SPINE,HB,z,m,./images/SPINEHB.png,,,,,,,,m,0,0.5873,,,,,,,,0,143,143,149,1
,,,,,,,,,,,,,,,,,200284,20,2022-01-28_20h48.19.282,lexical_decision_task_DD_L3,2021.2.3,MacIntel,59.99880002,,,,,,,,,,,1.1847,0,,,,,,,,,,,,,,,,,,,,,,,,0.025097995,-0.409396227,0,0,0,,,,,,,ARTIST,C,z,m,./images/ARTIST.png,,,,,,,,m,0,1.1847,,,,,,,,0,144,144,145,1
,,,,,,,,,,,,,,,,,200284,20,2022-01-28_20h48.19.282,lexical_decision_task_DD_L3,2021.2.3,MacIntel,59.99880002,,,,,,,,,,,0.8168,1,,,,,,,,,,,,,,,,,,,,,,,,0.025097995,-0.409396227,0,0,0,,,,,,,BISHOP,C,z,m,./images/BISHOP.png,,,,,,,,z,1,0.8168,,,,,,,,0,145,145,133,1
,,,,,,,,,,,,,,,,,200284,20,2022-01-28_20h48.19.282,lexical_decision_task_DD_L3,2021.2.3,MacIntel,59.99880002,,,,,,,,,,,0.8368,1,,,,,,,,,,,,,,,,,,,,,,,,0.025097995,-0.409396227,0,0,0,,,,,,,PEBBLE,C,z,m,./images/PEBBLE.png,,,,,,,,z,1,0.8368,,,,,,,,0,146,146,166,1
,,,,,,,,,,,,,,,,,200284,20,2022-01-28_20h48.19.282,lexical_decision_task_DD_L3,2021.2.3,MacIntel,59.99880002,,,,,,,,,,,0.8517,1,,,,,,,,,,,,,,,,,,,,,,,,0.025097995,-0.409396227,0,0,0,,,,,,,VALLEY,HB,z,m,./images/VALLEYHB.png,,,,,,,,z,1,0.8517,,,,,,,,0,147,147,152,1
,,,,,,,,,,,,,,,,,200284,20,2022-01-28_20h48.19.282,lexical_decision_task_DD_L3,2021.2.3,MacIntel,59.99880002,,,,,,,,,,,0.8529,1,,,,,,,,,,,,,,,,,,,,,,,,0.025097995,-0.409396227,0,0,0,,,,,,,SNAKE,C,z,m,./images/SNAKE.png,,,,,,,,z,1,0.8529,,,,,,,,0,148,148,124,1
,,,,,,,,,,,,,,,,,200284,20,2022-01-28_20h48.19.282,lexical_decision_task_DD_L3,2021.2.3,MacIntel,59.99880002,,,,,,,,,,,0.9891,1,,,,,,,,,,,,,,,,,,,,,,,,0.025097995,-0.409396227,0,0,0,,,,,,,DRILL,LB,z,m,./images/DRILLLB.png,,,,,,,,z,1,0.9891,,,,,,,,0,149,149,165,1
,,,,,,,,,,,,,,,,,200284,20,2022-01-28_20h48.19.282,lexical_decision_task_DD_L3,2021.2.3,MacIntel,59.99880002,,,,,,,,,,,0.6671,1,,,,,,,,,,,,,,,,,,,,,,,,0.025097995,-0.409396227,0,0,0,,,,,,,PACKET,HB,m,m,./images/PACKETHB.png,,,,,,,,m,1,0.6671,,,,,,,,0,150,150,56,1
,,,,,,,,,,,,,,,,,200284,20,2022-01-28_20h48.19.282,lexical_decision_task_DD_L3,2021.2.3,MacIntel,59.99880002,,,,,,,,,,,0.7851,1,,,,,,,,,,,,,,,,,,,,,,,,0.025097995,-0.409396227,0,0,0,,,,,,,CLIFF,HB,z,m,./images/CLIFFHB.png,,,,,,,,z,1,0.7851,,,,,,,,0,151,151,92,1
,,,,,,,,,,,,,,,,,200284,20,2022-01-28_20h48.19.282,lexical_decision_task_DD_L3,2021.2.3,MacIntel,59.99880002,,,,,,,,,,,0.6754,1,,,,,,,,,,,,,,,,,,,,,,,,0.025097995,-0.409396227,0,0,0,,,,,,,LIZARD,HB,m,m,./images/LIZARDHB.png,,,,,,,,m,1,0.6754,,,,,,,,0,152,152,44,1
,,,,,,,,,,,,,,,,,200284,20,2022-01-28_20h48.19.282,lexical_decision_task_DD_L3,2021.2.3,MacIntel,59.99880002,,,,,,,,,,,0.8168,1,,,,,,,,,,,,,,,,,,,,,,,,0.025097995,-0.409396227,0,0,0,,,,,,,WAGON,C,z,m,./images/WAGON.png,,,,,,,,z,1,0.8168,,,,,,,,0,153,153,91,1
,,,,,,,,,,,,,,,,,200284,20,2022-01-28_20h48.19.282,lexical_decision_task_DD_L3,2021.2.3,MacIntel,59.99880002,,,,,,,,,,,0.6887,1,,,,,,,,,,,,,,,,,,,,,,,,0.025097995,-0.409396227,0,0,0,,,,,,,CASINO,C,z,m,./images/CASINO.png,,,,,,,,z,1,0.6887,,,,,,,,0,154,154,112,1
,,,,,,,,,,,,,,,,,200284,20,2022-01-28_20h48.19.282,lexical_decision_task_DD_L3,2021.2.3,MacIntel,59.99880002,,,,,,,,,,,1.0339,1,,,,,,,,,,,,,,,,,,,,,,,,0.025097995,-0.409396227,0,0,0,,,,,,,SLOPE,LB,z,m,./images/SLOPELB.png,,,,,,,,z,1,1.0339,,,,,,,,0,155,155,114,1
,,,,,,,,,,,,,,,,,200284,20,2022-01-28_20h48.19.282,lexical_decision_task_DD_L3,2021.2.3,MacIntel,59.99880002,,,,,,,,,,,0.7505,1,,,,,,,,,,,,,,,,,,,,,,,,0.025097995,-0.409396227,0,0,0,,,,,,,MEDAL,HB,z,m,./images/MEDALHB.png,,,,,,,,z,1,0.7505,,,,,,,,0,156,156,95,1
,,,,,,,,,,,,,,,,,200284,20,2022-01-28_20h48.19.282,lexical_decision_task_DD_L3,2021.2.3,MacIntel,59.99880002,,,,,,,,,,,1.1515,0,,,,,,,,,,,,,,,,,,,,,,,,0.025097995,-0.409396227,0,0,0,,,,,,,CANDY,LB,z,m,./images/CANDYLB.png,,,,,,,,m,0,1.1515,,,,,,,,0,157,157,123,1
,,,,,,,,,,,,,,,,,200284,20,2022-01-28_20h48.19.282,lexical_decision_task_DD_L3,2021.2.3,MacIntel,59.99880002,,,,,,,,,,,0.7394,1,,,,,,,,,,,,,,,,,,,,,,,,0.025097995,-0.409396227,0,0,0,,,,,,,BANANA,C,z,m,./images/BANANA.png,,,,,,,,z,1,0.7394,,,,,,,,0,158,158,154,1
,,,,,,,,,,,,,,,,,200284,20,2022-01-28_20h48.19.282,lexical_decision_task_DD_L3,2021.2.3,MacIntel,59.99880002,,,,,,,,,,,0.7832,1,,,,,,,,,,,,,,,,,,,,,,,,0.025097995,-0.409396227,0,0,0,,,,,,,TWINS,LB,m,m,./images/TWINSLB.png,,,,,,,,m,1,0.7832,,,,,,,,0,159,159,60,1
,,,,,,,,,,,,,,,,,200284,20,2022-01-28_20h48.19.282,lexical_decision_task_DD_L3,2021.2.3,MacIntel,59.99880002,,,,,,,,,,,0.7903,0,,,,,,,,,,,,,,,,,,,,,,,,0.025097995,-0.409396227,0,0,0,,,,,,,TOMATO,LB,m,m,./images/TOMATOLB.png,,,,,,,,z,0,0.7903,,,,,,,,0,160,160,0,1
,,,,,,,,,,,,,,,,,200284,20,2022-01-28_20h48.19.282,lexical_decision_task_DD_L3,2021.2.3,MacIntel,59.99880002,,,,,,,,,,,0.6341,1,,,,,,,,,,,,,,,,,,,,,,,,0.025097995,-0.409396227,0,0,0,,,,,,,GRANNY,HB,z,m,./images/GRANNYHB.png,,,,,,,,z,1,0.6341,,,,,,,,0,161,161,104,1
,,,,,,,,,,,,,,,,,200284,20,2022-01-28_20h48.19.282,lexical_decision_task_DD_L3,2021.2.3,MacIntel,59.99880002,,,,,,,,,,,1.3012,0,,,,,,,,,,,,,,,,,,,,,,,,0.025097995,-0.409396227,0,0,0,,,,,,,STOVE,HB,z,m,./images/STOVEHB.png,,,,,,,,m,0,1.3012,,,,,,,,0,162,162,86,1
,,,,,,,,,,,,,,,,,200284,20,2022-01-28_20h48.19.282,lexical_decision_task_DD_L3,2021.2.3,MacIntel,59.99880002,,,,,,,,,,,0.7692,1,,,,,,,,,,,,,,,,,,,,,,,,0.025097995,-0.409396227,0,0,0,,,,,,,PARCEL,LB,z,m,./images/PARCELLB.png,,,,,,,,z,1,0.7692,,,,,,,,0,163,163,102,1
,,,,,,,,,,,,,,,,,200284,20,2022-01-28_20h48.19.282,lexical_decision_task_DD_L3,2021.2.3,MacIntel,59.99880002,,,,,,,,,,,0.9879,1,,,,,,,,,,,,,,,,,,,,,,,,0.025097995,-0.409396227,0,0,0,,,,,,,SAUCE,LB,z,m,./images/SAUCELB.png,,,,,,,,z,1,0.9879,,,,,,,,0,164,164,135,1
,,,,,,,,,,,,,,,,,200284,20,2022-01-28_20h48.19.282,lexical_decision_task_DD_L3,2021.2.3,MacIntel,59.99880002,,,,,,,,,,,0.5728,1,,,,,,,,,,,,,,,,,,,,,,,,0.025097995,-0.409396227,0,0,0,,,,,,,MOOSE,LB,m,m,./images/MOOSELB.png,,,,,,,,m,1,0.5728,,,,,,,,0,165,165,57,1
,,,,,,,,,,,,,,,,,200284,20,2022-01-28_20h48.19.282,lexical_decision_task_DD_L3,2021.2.3,MacIntel,59.99880002,,,,,,,,,,,0.619,0,,,,,,,,,,,,,,,,,,,,,,,,0.025097995,-0.409396227,0,0,0,,,,,,,CURRY,LB,z,m,./images/CURRYLB.png,,,,,,,,m,0,0.619,,,,,,,,0,166,166,144,1
,,,,,,,,,,,,,,,,,200284,20,2022-01-28_20h48.19.282,lexical_decision_task_DD_L3,2021.2.3,MacIntel,59.99880002,,,,,,,,,,,2.7559,1,,,,,,,,,,,,,,,,,,,,,,,,0.025097995,-0.409396227,0,0,0,,,,,,,ARROW,LB,z,m,./images/ARROWLB.png,,,,,,,,z,1,2.7559,,,,,,,,0,167,167,153,1
