key_resp.keys,instr_done_touch.x,instr_done_touch.y,instr_done_touch.leftButton,instr_done_touch.midButton,instr_done_touch.rightButton,instr_done_touch.clicked_name,instruction_pages.thisRepN,instruction_pages.thisTrialN,instruction_pages.thisN,instruction_pages.thisIndex,instruction_pages.ran,pageN,phase,instruct_text,has_image,instruct_image,participant,age,date,expName,psychopyVersion,OS,frameRate,key_resp.rt,response.keys,response.corr,response.rt,touch_resp.x,touch_resp.y,touch_resp.leftButton,touch_resp.midButton,touch_resp.rightButton,touch_resp.time,touch_resp.clicked_name,rt,corr,practrials.thisRepN,practrials.thisTrialN,practrials.thisN,practrials.thisIndex,practrials.ran,TrialID,Target,corrAns,end_of_practice_trials_pages.thisRepN,end_of_practice_trials_pages.thisTrialN,end_of_practice_trials_pages.thisN,end_of_practice_trials_pages.thisIndex,end_of_practice_trials_pages.ran,key_resp_2.keys,key_resp_2.corr,key_resp_2.rt,targ_click.x,targ_click.y,targ_click.leftButton,targ_click.midButton,targ_click.rightButton,targ_click.time,targ_click.clicked_name,break_done_touch.x,break_done_touch.y,break_done_touch.leftButton,break_done_touch.midButton,break_done_touch.rightButton,break_done_keyboard.keys,maintrials.thisRepN,maintrials.thisTrialN,maintrials.thisN,maintrials.thisIndex,maintrials.ran,string,blur,study,lex,stim_path,break_done_keyboard.rt,test_instructions.thisRepN,test_instructions.thisTrialN,test_instructions.thisN,test_instructions.thisIndex,test_instructions.ran,key_resp_3.keys,key_resp_3.corr,key_resp_3.rt,test_click.x,test_click.y,test_click.leftButton,test_click.midButton,test_click.rightButton,test_click.time,test_click.clicked_name,test_phase.thisRepN,test_phase.thisTrialN,test_phase.thisN,test_phase.thisIndex,test_phase.ran
,0.167592608,-0.387962976,1,0,0,instr_done_button,0,0,0,0,1,1,instructions,"INSTRUCTIONS
At the start of each trial, look at the plus sign  (+) in the center of the screen.  This tells you that a trial is about to begin and where to look. Second, the plus sign will disappear and a string of letters will appear. Your task is to determine if the string of letters is a word or not. If the item is a word press the M key (on keyboard)  or touch the word button (phone/tablet).  If the item is not a word,  press the  Z key (on keyboard)  or touch the nonword button (on phone/tablet). 
Press the space bar or touch  continue.",0,,200254,21,2022-01-28_17h59.16.601,lexical_decision_task_DD_L6,2021.2.3,Win32,59.96282305,,,,,,,,,,,,,,,,,,,,,,,,,,,,,,,,,,,,,,,,,,,,,,,,,,,,,,,,,,,,,,,,,,,,,,,,,
space,0.325925944,-0.112037046,0,0,0,,0,1,1,1,1,2,instructions,"If your device has a keyboard, press the 'Z' key for nonwords and the 'M' key for words.





Press the space bar or touch the button below to continue.",0,keyboard-example.gif,200254,21,2022-01-28_17h59.16.601,lexical_decision_task_DD_L6,2021.2.3,Win32,59.96282305,2.5345,,,,,,,,,,,,,,,,,,,,,,,,,,,,,,,,,,,,,,,,,,,,,,,,,,,,,,,,,,,,,,,,,,,,,,,,
space,0.325925944,-0.112037046,0,0,0,,0,2,2,2,1,3,instructions,"If you are using a touchscreen only device, use the buttons on the screen. Do not use the mouse.





Press the space bar or touch the button below to continue.",0,touchscreen-example.gif,200254,21,2022-01-28_17h59.16.601,lexical_decision_task_DD_L6,2021.2.3,Win32,59.96282305,2.7372,,,,,,,,,,,,,,,,,,,,,,,,,,,,,,,,,,,,,,,,,,,,,,,,,,,,,,,,,,,,,,,,,,,,,,,,
space,0.325925944,-0.112037046,0,0,0,,0,3,3,3,1,4,instructions,"It is very important that you respond as quickly and accurately as possible, as each letter string will only be on the screen for two seconds. If you do not respond within this time, the message 'Too slow!' will be displayed and the experiment will progress to the next letter string. The first 20 trials will be practice trials and you will receive feedback on your answers. 

Press the space bar or touch the button below to start the practice trials.",0,,200254,21,2022-01-28_17h59.16.601,lexical_decision_task_DD_L6,2021.2.3,Win32,59.96282305,1.1708,,,,,,,,,,,,,,,,,,,,,,,,,,,,,,,,,,,,,,,,,,,,,,,,,,,,,,,,,,,,,,,,,,,,,,,,
,,,,,,,,,,,,,,,,,200254,21,2022-01-28_17h59.16.601,lexical_decision_task_DD_L6,2021.2.3,Win32,59.96282305,,m,1,1.3832,,,,,,,,1.3832,1,0,0,0,4,1,1001,SQUEAK,m,,,,,,,,,,,,,,,,,,,,,,,,,,,,,,,,,,,,,,,,,,,,,,,,,,,,
,,,,,,,,,,,,,,,,,200254,21,2022-01-28_17h59.16.601,lexical_decision_task_DD_L6,2021.2.3,Win32,59.96282305,,m,1,0.5062,,,,,,,,0.5062,1,0,1,1,6,1,1001,ZOMBIE,m,,,,,,,,,,,,,,,,,,,,,,,,,,,,,,,,,,,,,,,,,,,,,,,,,,,,
,,,,,,,,,,,,,,,,,200254,21,2022-01-28_17h59.16.601,lexical_decision_task_DD_L6,2021.2.3,Win32,59.96282305,,z,1,0.681,,,,,,,,0.681,1,0,2,2,10,1,1001,INLADE,z,,,,,,,,,,,,,,,,,,,,,,,,,,,,,,,,,,,,,,,,,,,,,,,,,,,,
,,,,,,,,,,,,,,,,,200254,21,2022-01-28_17h59.16.601,lexical_decision_task_DD_L6,2021.2.3,Win32,59.96282305,,z,1,0.9233,,,,,,,,0.9233,1,0,3,3,9,1,1001,FARINY,z,,,,,,,,,,,,,,,,,,,,,,,,,,,,,,,,,,,,,,,,,,,,,,,,,,,,
,,,,,,,,,,,,,,,,,200254,21,2022-01-28_17h59.16.601,lexical_decision_task_DD_L6,2021.2.3,Win32,59.96282305,,z,1,0.6051,,,,,,,,0.6051,1,0,4,4,11,1,1001,RASHET,z,,,,,,,,,,,,,,,,,,,,,,,,,,,,,,,,,,,,,,,,,,,,,,,,,,,,
,,,,,,,,,,,,,,,,,200254,21,2022-01-28_17h59.16.601,lexical_decision_task_DD_L6,2021.2.3,Win32,59.96282305,,m,1,0.5975,,,,,,,,0.5975,1,0,5,5,7,1,1001,VOLUME,m,,,,,,,,,,,,,,,,,,,,,,,,,,,,,,,,,,,,,,,,,,,,,,,,,,,,
,,,,,,,,,,,,,,,,,200254,21,2022-01-28_17h59.16.601,lexical_decision_task_DD_L6,2021.2.3,Win32,59.96282305,,m,1,0.6813,,,,,,,,0.6813,1,0,6,6,0,1,1001,UTOPIA,m,,,,,,,,,,,,,,,,,,,,,,,,,,,,,,,,,,,,,,,,,,,,,,,,,,,,
,,,,,,,,,,,,,,,,,200254,21,2022-01-28_17h59.16.601,lexical_decision_task_DD_L6,2021.2.3,Win32,59.96282305,,m,1,0.6316,,,,,,,,0.6316,1,0,7,7,3,1,1001,MATRIX,m,,,,,,,,,,,,,,,,,,,,,,,,,,,,,,,,,,,,,,,,,,,,,,,,,,,,
,,,,,,,,,,,,,,,,,200254,21,2022-01-28_17h59.16.601,lexical_decision_task_DD_L6,2021.2.3,Win32,59.96282305,,z,1,0.7585,,,,,,,,0.7585,1,0,8,8,12,1,1001,SPRINY,z,,,,,,,,,,,,,,,,,,,,,,,,,,,,,,,,,,,,,,,,,,,,,,,,,,,,
,,,,,,,,,,,,,,,,,200254,21,2022-01-28_17h59.16.601,lexical_decision_task_DD_L6,2021.2.3,Win32,59.96282305,,m,1,1.4546,,,,,,,,1.4546,1,0,9,9,1,1,1001,ADJUST,m,,,,,,,,,,,,,,,,,,,,,,,,,,,,,,,,,,,,,,,,,,,,,,,,,,,,
,,,,,,,,,,,,,,,,,200254,21,2022-01-28_17h59.16.601,lexical_decision_task_DD_L6,2021.2.3,Win32,59.96282305,,z,1,0.7058,,,,,,,,0.7058,1,0,10,10,8,1,1001,ASLERT,z,,,,,,,,,,,,,,,,,,,,,,,,,,,,,,,,,,,,,,,,,,,,,,,,,,,,
,,,,,,,,,,,,,,,,,200254,21,2022-01-28_17h59.16.601,lexical_decision_task_DD_L6,2021.2.3,Win32,59.96282305,,z,1,0.6434,,,,,,,,0.6434,1,0,11,11,14,1,1001,THRALE,z,,,,,,,,,,,,,,,,,,,,,,,,,,,,,,,,,,,,,,,,,,,,,,,,,,,,
,,,,,,,,,,,,,,,,,200254,21,2022-01-28_17h59.16.601,lexical_decision_task_DD_L6,2021.2.3,Win32,59.96282305,,m,1,0.5813,,,,,,,,0.5813,1,0,12,12,2,1,1001,ALMOND,m,,,,,,,,,,,,,,,,,,,,,,,,,,,,,,,,,,,,,,,,,,,,,,,,,,,,
,,,,,,,,,,,,,,,,,200254,21,2022-01-28_17h59.16.601,lexical_decision_task_DD_L6,2021.2.3,Win32,59.96282305,,z,0,0.8886,,,,,,,,0.8886,0,0,13,13,5,1,1001,OBTAIN,m,,,,,,,,,,,,,,,,,,,,,,,,,,,,,,,,,,,,,,,,,,,,,,,,,,,,
,,,,,,,,,,,,,,,,,200254,21,2022-01-28_17h59.16.601,lexical_decision_task_DD_L6,2021.2.3,Win32,59.96282305,,z,1,0.7831,,,,,,,,0.7831,1,0,14,14,15,1,1001,WHAISE,z,,,,,,,,,,,,,,,,,,,,,,,,,,,,,,,,,,,,,,,,,,,,,,,,,,,,
,,,,,,,,,,,,,,,,,200254,21,2022-01-28_17h59.16.601,lexical_decision_task_DD_L6,2021.2.3,Win32,59.96282305,,z,1,0.6248,,,,,,,,0.6248,1,0,15,15,13,1,1001,ROUPET,z,,,,,,,,,,,,,,,,,,,,,,,,,,,,,,,,,,,,,,,,,,,,,,,,,,,,
space,0.887963102,0.195370366,0,0,0,,,,,,,1,end_of_practice,"You have completed the practice trials. During the experimental trials, you will not receive feedback. 
Before you begin, please ensure that you are in a comfortable and quiet location and will not be disturbed for about 15 minutes, as we cannot use your data if you do not complete all the trials. 
 When you are ready to start the experimental trials, please press space or touch the button below.",,,200254,21,2022-01-28_17h59.16.601,lexical_decision_task_DD_L6,2021.2.3,Win32,59.96282305,7.1061,,,,,,,,,,,,,,,,,,,,,0,0,0,0,1,,,,,,,,,,,,,,,,,,,,,,,,,,,,,,,,,,,,,,,,,,,,,,,
,,,,,,,,,,,,,,,,,200254,21,2022-01-28_17h59.16.601,lexical_decision_task_DD_L6,2021.2.3,Win32,59.96282305,,,,,,,,,,,,0.7227,1,,,,,,,,,,,,,,z,1,0.7227,,,,,,,,0.887963102,0.195370366,0,0,0,,0,0,0,162,1,LEICH,C,old,z,./images/LEICH.png,,,,,,,,,,,,,,,,,,,,,
,,,,,,,,,,,,,,,,,200254,21,2022-01-28_17h59.16.601,lexical_decision_task_DD_L6,2021.2.3,Win32,59.96282305,,,,,,,,,,,,0.5603,1,,,,,,,,,,,,,,m,1,0.5603,,,,,,,,0.887963102,0.195370366,0,0,0,,0,1,1,46,1,MUMMY,C,old,m,./images/MUMMY.png,,,,,,,,,,,,,,,,,,,,,
,,,,,,,,,,,,,,,,,200254,21,2022-01-28_17h59.16.601,lexical_decision_task_DD_L6,2021.2.3,Win32,59.96282305,,,,,,,,,,,,0.6726,1,,,,,,,,,,,,,,z,1,0.6726,,,,,,,,0.887963102,0.195370366,0,0,0,,0,2,2,129,1,PRANS,C,old,z,./images/PRANS.png,,,,,,,,,,,,,,,,,,,,,
,,,,,,,,,,,,,,,,,200254,21,2022-01-28_17h59.16.601,lexical_decision_task_DD_L6,2021.2.3,Win32,59.96282305,,,,,,,,,,,,0.5777,1,,,,,,,,,,,,,,m,1,0.5777,,,,,,,,0.887963102,0.195370366,0,0,0,,0,3,3,34,1,RAZOR,C,old,m,./images/RAZOR.png,,,,,,,,,,,,,,,,,,,,,
,,,,,,,,,,,,,,,,,200254,21,2022-01-28_17h59.16.601,lexical_decision_task_DD_L6,2021.2.3,Win32,59.96282305,,,,,,,,,,,,0.6109,1,,,,,,,,,,,,,,m,1,0.6109,,,,,,,,0.887963102,0.195370366,0,0,0,,0,4,4,4,1,BOXER,C,old,m,./images/BOXER.png,,,,,,,,,,,,,,,,,,,,,
,,,,,,,,,,,,,,,,,200254,21,2022-01-28_17h59.16.601,lexical_decision_task_DD_L6,2021.2.3,Win32,59.96282305,,,,,,,,,,,,0.7468,1,,,,,,,,,,,,,,m,1,0.7468,,,,,,,,0.887963102,0.195370366,0,0,0,,0,5,5,11,1,MEDAL,HB,old,m,./images/MEDALHB.png,,,,,,,,,,,,,,,,,,,,,
,,,,,,,,,,,,,,,,,200254,21,2022-01-28_17h59.16.601,lexical_decision_task_DD_L6,2021.2.3,Win32,59.96282305,,,,,,,,,,,,0.629,1,,,,,,,,,,,,,,m,1,0.629,,,,,,,,0.887963102,0.195370366,0,0,0,,0,6,6,76,1,MIDGET,C,old,m,./images/MIDGET.png,,,,,,,,,,,,,,,,,,,,,
,,,,,,,,,,,,,,,,,200254,21,2022-01-28_17h59.16.601,lexical_decision_task_DD_L6,2021.2.3,Win32,59.96282305,,,,,,,,,,,,0.6436,1,,,,,,,,,,,,,,z,1,0.6436,,,,,,,,0.887963102,0.195370366,0,0,0,,0,7,7,86,1,AIFED,LB,old,z,./images/AIFEDLB.png,,,,,,,,,,,,,,,,,,,,,
,,,,,,,,,,,,,,,,,200254,21,2022-01-28_17h59.16.601,lexical_decision_task_DD_L6,2021.2.3,Win32,59.96282305,,,,,,,,,,,,0.7281,1,,,,,,,,,,,,,,m,1,0.7281,,,,,,,,0.887963102,0.195370366,0,0,0,,0,8,8,44,1,BASKET,HB,old,m,./images/BASKETHB.png,,,,,,,,,,,,,,,,,,,,,
,,,,,,,,,,,,,,,,,200254,21,2022-01-28_17h59.16.601,lexical_decision_task_DD_L6,2021.2.3,Win32,59.96282305,,,,,,,,,,,,0.7084,1,,,,,,,,,,,,,,z,1,0.7084,,,,,,,,0.887963102,0.195370366,0,0,0,,0,9,9,151,1,TINKY,HB,old,z,./images/TINKYHB.png,,,,,,,,,,,,,,,,,,,,,
,,,,,,,,,,,,,,,,,200254,21,2022-01-28_17h59.16.601,lexical_decision_task_DD_L6,2021.2.3,Win32,59.96282305,,,,,,,,,,,,0.6704,1,,,,,,,,,,,,,,z,1,0.6704,,,,,,,,0.887963102,0.195370366,0,0,0,,0,10,10,133,1,POWDY,HB,old,z,./images/POWDYHB.png,,,,,,,,,,,,,,,,,,,,,
,,,,,,,,,,,,,,,,,200254,21,2022-01-28_17h59.16.601,lexical_decision_task_DD_L6,2021.2.3,Win32,59.96282305,,,,,,,,,,,,0.5863,1,,,,,,,,,,,,,,m,1,0.5863,,,,,,,,0.887963102,0.195370366,0,0,0,,0,11,11,43,1,STOOL,C,old,m,./images/STOOL.png,,,,,,,,,,,,,,,,,,,,,
,,,,,,,,,,,,,,,,,200254,21,2022-01-28_17h59.16.601,lexical_decision_task_DD_L6,2021.2.3,Win32,59.96282305,,,,,,,,,,,,0.588,1,,,,,,,,,,,,,,z,1,0.588,,,,,,,,0.887963102,0.195370366,0,0,0,,0,12,12,89,1,DRIEK,LB,old,z,./images/DRIEKLB.png,,,,,,,,,,,,,,,,,,,,,
,,,,,,,,,,,,,,,,,200254,21,2022-01-28_17h59.16.601,lexical_decision_task_DD_L6,2021.2.3,Win32,59.96282305,,,,,,,,,,,,0.5304,1,,,,,,,,,,,,,,z,1,0.5304,,,,,,,,0.887963102,0.195370366,0,0,0,,0,13,13,84,1,HAXES,C,old,z,./images/HAXES.png,,,,,,,,,,,,,,,,,,,,,
,,,,,,,,,,,,,,,,,200254,21,2022-01-28_17h59.16.601,lexical_decision_task_DD_L6,2021.2.3,Win32,59.96282305,,,,,,,,,,,,0.5279,1,,,,,,,,,,,,,,m,1,0.5279,,,,,,,,0.887963102,0.195370366,0,0,0,,0,14,14,40,1,SNAKE,C,old,m,./images/SNAKE.png,,,,,,,,,,,,,,,,,,,,,
,,,,,,,,,,,,,,,,,200254,21,2022-01-28_17h59.16.601,lexical_decision_task_DD_L6,2021.2.3,Win32,59.96282305,,,,,,,,,,,,0.5913,1,,,,,,,,,,,,,,m,1,0.5913,,,,,,,,0.887963102,0.195370366,0,0,0,,0,15,15,26,1,CLOUD,HB,old,m,./images/CLOUDHB.png,,,,,,,,,,,,,,,,,,,,,
,,,,,,,,,,,,,,,,,200254,21,2022-01-28_17h59.16.601,lexical_decision_task_DD_L6,2021.2.3,Win32,59.96282305,,,,,,,,,,,,0.55,1,,,,,,,,,,,,,,m,1,0.55,,,,,,,,0.887963102,0.195370366,0,0,0,,0,16,16,71,1,BUBBLE,HB,old,m,./images/BUBBLEHB.png,,,,,,,,,,,,,,,,,,,,,
,,,,,,,,,,,,,,,,,200254,21,2022-01-28_17h59.16.601,lexical_decision_task_DD_L6,2021.2.3,Win32,59.96282305,,,,,,,,,,,,0.5138,1,,,,,,,,,,,,,,m,1,0.5138,,,,,,,,0.887963102,0.195370366,0,0,0,,0,17,17,37,1,TIGER,C,old,m,./images/TIGER.png,,,,,,,,,,,,,,,,,,,,,
,,,,,,,,,,,,,,,,,200254,21,2022-01-28_17h59.16.601,lexical_decision_task_DD_L6,2021.2.3,Win32,59.96282305,,,,,,,,,,,,0.6081,1,,,,,,,,,,,,,,z,1,0.6081,,,,,,,,0.887963102,0.195370366,0,0,0,,0,18,18,124,1,TUNCH,HB,old,z,./images/TUNCHHB.png,,,,,,,,,,,,,,,,,,,,,
,,,,,,,,,,,,,,,,,200254,21,2022-01-28_17h59.16.601,lexical_decision_task_DD_L6,2021.2.3,Win32,59.96282305,,,,,,,,,,,,0.5379,1,,,,,,,,,,,,,,m,1,0.5379,,,,,,,,0.887963102,0.195370366,0,0,0,,0,19,19,47,1,LAGOON,HB,old,m,./images/LAGOONHB.png,,,,,,,,,,,,,,,,,,,,,
,,,,,,,,,,,,,,,,,200254,21,2022-01-28_17h59.16.601,lexical_decision_task_DD_L6,2021.2.3,Win32,59.96282305,,,,,,,,,,,,0.7891,1,,,,,,,,,,,,,,m,1,0.7891,,,,,,,,0.887963102,0.195370366,0,0,0,,0,20,20,65,1,SPINE,HB,old,m,./images/SPINEHB.png,,,,,,,,,,,,,,,,,,,,,
,,,,,,,,,,,,,,,,,200254,21,2022-01-28_17h59.16.601,lexical_decision_task_DD_L6,2021.2.3,Win32,59.96282305,,,,,,,,,,,,0.6758,1,,,,,,,,,,,,,,z,1,0.6758,,,,,,,,0.887963102,0.195370366,0,0,0,,0,21,21,130,1,CRILL,HB,old,z,./images/CRILLHB.png,,,,,,,,,,,,,,,,,,,,,
,,,,,,,,,,,,,,,,,200254,21,2022-01-28_17h59.16.601,lexical_decision_task_DD_L6,2021.2.3,Win32,59.96282305,,,,,,,,,,,,0.7467,1,,,,,,,,,,,,,,z,1,0.7467,,,,,,,,0.887963102,0.195370366,0,0,0,,0,22,22,141,1,PLEET,C,old,z,./images/PLEET.png,,,,,,,,,,,,,,,,,,,,,
,,,,,,,,,,,,,,,,,200254,21,2022-01-28_17h59.16.601,lexical_decision_task_DD_L6,2021.2.3,Win32,59.96282305,,,,,,,,,,,,0.6686,1,,,,,,,,,,,,,,m,1,0.6686,,,,,,,,0.887963102,0.195370366,0,0,0,,0,23,23,14,1,FENCE,HB,old,m,./images/FENCEHB.png,,,,,,,,,,,,,,,,,,,,,
,,,,,,,,,,,,,,,,,200254,21,2022-01-28_17h59.16.601,lexical_decision_task_DD_L6,2021.2.3,Win32,59.96282305,,,,,,,,,,,,0.6141,1,,,,,,,,,,,,,,z,1,0.6141,,,,,,,,0.887963102,0.195370366,0,0,0,,0,24,24,160,1,VEETS,HB,old,z,./images/VEETSHB.png,,,,,,,,,,,,,,,,,,,,,
,,,,,,,,,,,,,,,,,200254,21,2022-01-28_17h59.16.601,lexical_decision_task_DD_L6,2021.2.3,Win32,59.96282305,,,,,,,,,,,,0.6044,1,,,,,,,,,,,,,,m,1,0.6044,,,,,,,,0.887963102,0.195370366,0,0,0,,0,25,25,69,1,ARROW,LB,old,m,./images/ARROWLB.png,,,,,,,,,,,,,,,,,,,,,
,,,,,,,,,,,,,,,,,200254,21,2022-01-28_17h59.16.601,lexical_decision_task_DD_L6,2021.2.3,Win32,59.96282305,,,,,,,,,,,,0.5899,1,,,,,,,,,,,,,,m,1,0.5899,,,,,,,,0.887963102,0.195370366,0,0,0,,0,26,26,32,1,HOCKEY,HB,old,m,./images/HOCKEYHB.png,,,,,,,,,,,,,,,,,,,,,
,,,,,,,,,,,,,,,,,200254,21,2022-01-28_17h59.16.601,lexical_decision_task_DD_L6,2021.2.3,Win32,59.96282305,,,,,,,,,,,,0.6354,1,,,,,,,,,,,,,,m,1,0.6354,,,,,,,,0.887963102,0.195370366,0,0,0,,0,27,27,52,1,DESERT,C,old,m,./images/DESERT.png,,,,,,,,,,,,,,,,,,,,,
,,,,,,,,,,,,,,,,,200254,21,2022-01-28_17h59.16.601,lexical_decision_task_DD_L6,2021.2.3,Win32,59.96282305,,,,,,,,,,,,0.5738,1,,,,,,,,,,,,,,m,1,0.5738,,,,,,,,0.887963102,0.195370366,0,0,0,,0,28,28,79,1,RULER,C,old,m,./images/RULER.png,,,,,,,,,,,,,,,,,,,,,
,,,,,,,,,,,,,,,,,200254,21,2022-01-28_17h59.16.601,lexical_decision_task_DD_L6,2021.2.3,Win32,59.96282305,,,,,,,,,,,,0.7507,1,,,,,,,,,,,,,,z,1,0.7507,,,,,,,,0.887963102,0.195370366,0,0,0,,0,29,29,139,1,BLEAR,HB,old,z,./images/BLEARHB.png,,,,,,,,,,,,,,,,,,,,,
,,,,,,,,,,,,,,,,,200254,21,2022-01-28_17h59.16.601,lexical_decision_task_DD_L6,2021.2.3,Win32,59.96282305,,,,,,,,,,,,0.6414,1,,,,,,,,,,,,,,z,1,0.6414,,,,,,,,0.887963102,0.195370366,0,0,0,,0,30,30,87,1,TRING,C,old,z,./images/TRING.png,,,,,,,,,,,,,,,,,,,,,
,,,,,,,,,,,,,,,,,200254,21,2022-01-28_17h59.16.601,lexical_decision_task_DD_L6,2021.2.3,Win32,59.96282305,,,,,,,,,,,,0.608,1,,,,,,,,,,,,,,m,1,0.608,,,,,,,,0.887963102,0.195370366,0,0,0,,0,31,31,81,1,DRILL,LB,old,m,./images/DRILLLB.png,,,,,,,,,,,,,,,,,,,,,
,,,,,,,,,,,,,,,,,200254,21,2022-01-28_17h59.16.601,lexical_decision_task_DD_L6,2021.2.3,Win32,59.96282305,,,,,,,,,,,,0.7029,1,,,,,,,,,,,,,,z,1,0.7029,,,,,,,,0.887963102,0.195370366,0,0,0,,0,32,32,165,1,TROWN,C,old,z,./images/TROWN.png,,,,,,,,,,,,,,,,,,,,,
,,,,,,,,,,,,,,,,,200254,21,2022-01-28_17h59.16.601,lexical_decision_task_DD_L6,2021.2.3,Win32,59.96282305,,,,,,,,,,,,0.7289,1,,,,,,,,,,,,,,m,1,0.7289,,,,,,,,0.887963102,0.195370366,0,0,0,,0,33,33,29,1,PISTOL,HB,old,m,./images/PISTOLHB.png,,,,,,,,,,,,,,,,,,,,,
,,,,,,,,,,,,,,,,,200254,21,2022-01-28_17h59.16.601,lexical_decision_task_DD_L6,2021.2.3,Win32,59.96282305,,,,,,,,,,,,0.5338,1,,,,,,,,,,,,,,m,1,0.5338,,,,,,,,0.887963102,0.195370366,0,0,0,,0,34,34,82,1,PEBBLE,C,old,m,./images/PEBBLE.png,,,,,,,,,,,,,,,,,,,,,
,,,,,,,,,,,,,,,,,200254,21,2022-01-28_17h59.16.601,lexical_decision_task_DD_L6,2021.2.3,Win32,59.96282305,,,,,,,,,,,,0.6116,1,,,,,,,,,,,,,,m,1,0.6116,,,,,,,,0.887963102,0.195370366,0,0,0,,0,35,35,36,1,BOILER,LB,old,m,./images/BOILERLB.png,,,,,,,,,,,,,,,,,,,,,
,,,,,,,,,,,,,,,,,200254,21,2022-01-28_17h59.16.601,lexical_decision_task_DD_L6,2021.2.3,Win32,59.96282305,,,,,,,,,,,,0.644,1,,,,,,,,,,,,,,z,1,0.644,,,,,,,,0.887963102,0.195370366,0,0,0,,0,36,36,96,1,KEAMS,C,old,z,./images/KEAMS.png,,,,,,,,,,,,,,,,,,,,,
,,,,,,,,,,,,,,,,,200254,21,2022-01-28_17h59.16.601,lexical_decision_task_DD_L6,2021.2.3,Win32,59.96282305,,,,,,,,,,,,0.5096,1,,,,,,,,,,,,,,m,1,0.5096,,,,,,,,0.887963102,0.195370366,0,0,0,,0,37,37,0,1,WALNUT,LB,old,m,./images/WALNUTLB.png,,,,,,,,,,,,,,,,,,,,,
,,,,,,,,,,,,,,,,,200254,21,2022-01-28_17h59.16.601,lexical_decision_task_DD_L6,2021.2.3,Win32,59.96282305,,,,,,,,,,,,0.741,1,,,,,,,,,,,,,,z,1,0.741,,,,,,,,0.887963102,0.195370366,0,0,0,,0,38,38,156,1,HIXES,C,old,z,./images/HIXES.png,,,,,,,,,,,,,,,,,,,,,
,,,,,,,,,,,,,,,,,200254,21,2022-01-28_17h59.16.601,lexical_decision_task_DD_L6,2021.2.3,Win32,59.96282305,,,,,,,,,,,,0.63,1,,,,,,,,,,,,,,m,1,0.63,,,,,,,,0.887963102,0.195370366,0,0,0,,0,39,39,17,1,PARADE,HB,old,m,./images/PARADEHB.png,,,,,,,,,,,,,,,,,,,,,
,,,,,,,,,,,,,,,,,200254,21,2022-01-28_17h59.16.601,lexical_decision_task_DD_L6,2021.2.3,Win32,59.96282305,,,,,,,,,,,,0.5698,1,,,,,,,,,,,,,,m,1,0.5698,,,,,,,,0.887963102,0.195370366,0,0,0,,0,40,40,42,1,CHAIN,LB,old,m,./images/CHAINLB.png,,,,,,,,,,,,,,,,,,,,,
,,,,,,,,,,,,,,,,,200254,21,2022-01-28_17h59.16.601,lexical_decision_task_DD_L6,2021.2.3,Win32,59.96282305,,,,,,,,,,,,0.7268,1,,,,,,,,,,,,,,m,1,0.7268,,,,,,,,0.887963102,0.195370366,0,0,0,space,0,41,41,8,1,CLIFF,HB,old,m,./images/CLIFFHB.png,0.8829,,,,,,,,,,,,,,,,,,,,
,,,,,,,,,,,,,,,,,200254,21,2022-01-28_17h59.16.601,lexical_decision_task_DD_L6,2021.2.3,Win32,59.96282305,,,,,,,,,,,,0.6276,1,,,,,,,,,,,,,,m,1,0.6276,,,,,,,,0.887963102,0.195370366,0,0,0,,0,42,42,74,1,JUMPER,HB,old,m,./images/JUMPERHB.png,,,,,,,,,,,,,,,,,,,,,
,,,,,,,,,,,,,,,,,200254,21,2022-01-28_17h59.16.601,lexical_decision_task_DD_L6,2021.2.3,Win32,59.96282305,,,,,,,,,,,,0.6252,1,,,,,,,,,,,,,,z,1,0.6252,,,,,,,,0.887963102,0.195370366,0,0,0,,0,43,43,153,1,CLUPS,C,old,z,./images/CLUPS.png,,,,,,,,,,,,,,,,,,,,,
,,,,,,,,,,,,,,,,,200254,21,2022-01-28_17h59.16.601,lexical_decision_task_DD_L6,2021.2.3,Win32,59.96282305,,,,,,,,,,,,0.5585,1,,,,,,,,,,,,,,m,1,0.5585,,,,,,,,0.887963102,0.195370366,0,0,0,,0,44,44,78,1,BROOM,LB,old,m,./images/BROOMLB.png,,,,,,,,,,,,,,,,,,,,,
,,,,,,,,,,,,,,,,,200254,21,2022-01-28_17h59.16.601,lexical_decision_task_DD_L6,2021.2.3,Win32,59.96282305,,,,,,,,,,,,0.6236,1,,,,,,,,,,,,,,z,1,0.6236,,,,,,,,0.887963102,0.195370366,0,0,0,,0,45,45,121,1,CEERS,HB,old,z,./images/CEERSHB.png,,,,,,,,,,,,,,,,,,,,,
,,,,,,,,,,,,,,,,,200254,21,2022-01-28_17h59.16.601,lexical_decision_task_DD_L6,2021.2.3,Win32,59.96282305,,,,,,,,,,,,0.6437,1,,,,,,,,,,,,,,z,1,0.6437,,,,,,,,0.887963102,0.195370366,0,0,0,,0,46,46,105,1,MOKER,C,old,z,./images/MOKER.png,,,,,,,,,,,,,,,,,,,,,
,,,,,,,,,,,,,,,,,200254,21,2022-01-28_17h59.16.601,lexical_decision_task_DD_L6,2021.2.3,Win32,59.96282305,,,,,,,,,,,,0.5757,1,,,,,,,,,,,,,,m,1,0.5757,,,,,,,,0.887963102,0.195370366,0,0,0,,0,47,47,50,1,PILOT,HB,old,m,./images/PILOTHB.png,,,,,,,,,,,,,,,,,,,,,
,,,,,,,,,,,,,,,,,200254,21,2022-01-28_17h59.16.601,lexical_decision_task_DD_L6,2021.2.3,Win32,59.96282305,,,,,,,,,,,,0.5479,1,,,,,,,,,,,,,,z,1,0.5479,,,,,,,,0.887963102,0.195370366,0,0,0,,0,48,48,108,1,GRUET,C,old,z,./images/GRUET.png,,,,,,,,,,,,,,,,,,,,,
,,,,,,,,,,,,,,,,,200254,21,2022-01-28_17h59.16.601,lexical_decision_task_DD_L6,2021.2.3,Win32,59.96282305,,,,,,,,,,,,1.0595,1,,,,,,,,,,,,,,z,1,1.0595,,,,,,,,0.887963102,0.195370366,0,0,0,,0,49,49,140,1,DOVET,LB,old,z,./images/DOVETLB.png,,,,,,,,,,,,,,,,,,,,,
,,,,,,,,,,,,,,,,,200254,21,2022-01-28_17h59.16.601,lexical_decision_task_DD_L6,2021.2.3,Win32,59.96282305,,,,,,,,,,,,0.6254,1,,,,,,,,,,,,,,z,1,0.6254,,,,,,,,0.887963102,0.195370366,0,0,0,,0,50,50,107,1,FASKS,LB,old,z,./images/FASKSLB.png,,,,,,,,,,,,,,,,,,,,,
,,,,,,,,,,,,,,,,,200254,21,2022-01-28_17h59.16.601,lexical_decision_task_DD_L6,2021.2.3,Win32,59.96282305,,,,,,,,,,,,0.6846,1,,,,,,,,,,,,,,z,1,0.6846,,,,,,,,0.887963102,0.195370366,0,0,0,,0,51,51,149,1,VEASE,LB,old,z,./images/VEASELB.png,,,,,,,,,,,,,,,,,,,,,
,,,,,,,,,,,,,,,,,200254,21,2022-01-28_17h59.16.601,lexical_decision_task_DD_L6,2021.2.3,Win32,59.96282305,,,,,,,,,,,,0.7121,1,,,,,,,,,,,,,,m,1,0.7121,,,,,,,,0.887963102,0.195370366,0,0,0,,0,52,52,72,1,FLASK,LB,old,m,./images/FLASKLB.png,,,,,,,,,,,,,,,,,,,,,
,,,,,,,,,,,,,,,,,200254,21,2022-01-28_17h59.16.601,lexical_decision_task_DD_L6,2021.2.3,Win32,59.96282305,,,,,,,,,,,,0.6639,1,,,,,,,,,,,,,,m,1,0.6639,,,,,,,,0.887963102,0.195370366,0,0,0,,0,53,53,9,1,DIVER,LB,old,m,./images/DIVERLB.png,,,,,,,,,,,,,,,,,,,,,
,,,,,,,,,,,,,,,,,200254,21,2022-01-28_17h59.16.601,lexical_decision_task_DD_L6,2021.2.3,Win32,59.96282305,,,,,,,,,,,,0.6407,1,,,,,,,,,,,,,,m,1,0.6407,,,,,,,,0.887963102,0.195370366,0,0,0,,0,54,54,57,1,FERRY,LB,old,m,./images/FERRYLB.png,,,,,,,,,,,,,,,,,,,,,
,,,,,,,,,,,,,,,,,200254,21,2022-01-28_17h59.16.601,lexical_decision_task_DD_L6,2021.2.3,Win32,59.96282305,,,,,,,,,,,,0.6773,1,,,,,,,,,,,,,,z,1,0.6773,,,,,,,,0.887963102,0.195370366,0,0,0,,0,55,55,100,1,DRIBS,HB,old,z,./images/DRIBSHB.png,,,,,,,,,,,,,,,,,,,,,
,,,,,,,,,,,,,,,,,200254,21,2022-01-28_17h59.16.601,lexical_decision_task_DD_L6,2021.2.3,Win32,59.96282305,,,,,,,,,,,,0.5101,1,,,,,,,,,,,,,,m,1,0.5101,,,,,,,,0.887963102,0.195370366,0,0,0,,0,56,56,16,1,GRAPE,C,old,m,./images/GRAPE.png,,,,,,,,,,,,,,,,,,,,,
,,,,,,,,,,,,,,,,,200254,21,2022-01-28_17h59.16.601,lexical_decision_task_DD_L6,2021.2.3,Win32,59.96282305,,,,,,,,,,,,0.6468,1,,,,,,,,,,,,,,m,1,0.6468,,,,,,,,0.887963102,0.195370366,0,0,0,,0,57,57,30,1,SLOPE,LB,old,m,./images/SLOPELB.png,,,,,,,,,,,,,,,,,,,,,
,,,,,,,,,,,,,,,,,200254,21,2022-01-28_17h59.16.601,lexical_decision_task_DD_L6,2021.2.3,Win32,59.96282305,,,,,,,,,,,,0.6026,1,,,,,,,,,,,,,,z,1,0.6026,,,,,,,,0.887963102,0.195370366,0,0,0,,0,58,58,114,1,RIKES,C,old,z,./images/RIKES.png,,,,,,,,,,,,,,,,,,,,,
,,,,,,,,,,,,,,,,,200254,21,2022-01-28_17h59.16.601,lexical_decision_task_DD_L6,2021.2.3,Win32,59.96282305,,,,,,,,,,,,0.5207,1,,,,,,,,,,,,,,m,1,0.5207,,,,,,,,0.887963102,0.195370366,0,0,0,,0,59,59,45,1,MONKEY,LB,old,m,./images/MONKEYLB.png,,,,,,,,,,,,,,,,,,,,,
,,,,,,,,,,,,,,,,,200254,21,2022-01-28_17h59.16.601,lexical_decision_task_DD_L6,2021.2.3,Win32,59.96282305,,,,,,,,,,,,0.8109,1,,,,,,,,,,,,,,m,1,0.8109,,,,,,,,0.887963102,0.195370366,0,0,0,,0,60,60,80,1,PLANET,HB,old,m,./images/PLANETHB.png,,,,,,,,,,,,,,,,,,,,,
,,,,,,,,,,,,,,,,,200254,21,2022-01-28_17h59.16.601,lexical_decision_task_DD_L6,2021.2.3,Win32,59.96282305,,,,,,,,,,,,0.7409,1,,,,,,,,,,,,,,z,1,0.7409,,,,,,,,0.887963102,0.195370366,0,0,0,,0,61,61,123,1,SEDGE,C,old,z,./images/SEDGE.png,,,,,,,,,,,,,,,,,,,,,
,,,,,,,,,,,,,,,,,200254,21,2022-01-28_17h59.16.601,lexical_decision_task_DD_L6,2021.2.3,Win32,59.96282305,,,,,,,,,,,,0.4911,1,,,,,,,,,,,,,,m,1,0.4911,,,,,,,,0.887963102,0.195370366,0,0,0,,0,62,62,70,1,BANANA,C,old,m,./images/BANANA.png,,,,,,,,,,,,,,,,,,,,,
,,,,,,,,,,,,,,,,,200254,21,2022-01-28_17h59.16.601,lexical_decision_task_DD_L6,2021.2.3,Win32,59.96282305,,,,,,,,,,,,0.6439,1,,,,,,,,,,,,,,m,1,0.6439,,,,,,,,0.887963102,0.195370366,0,0,0,,0,63,63,5,1,BAMBOO,HB,old,m,./images/BAMBOOHB.png,,,,,,,,,,,,,,,,,,,,,
,,,,,,,,,,,,,,,,,200254,21,2022-01-28_17h59.16.601,lexical_decision_task_DD_L6,2021.2.3,Win32,59.96282305,,,,,,,,,,,,0.6661,1,,,,,,,,,,,,,,z,1,0.6661,,,,,,,,0.887963102,0.195370366,0,0,0,,0,64,64,85,1,CHULK,HB,old,z,./images/CHULKHB.png,,,,,,,,,,,,,,,,,,,,,
,,,,,,,,,,,,,,,,,200254,21,2022-01-28_17h59.16.601,lexical_decision_task_DD_L6,2021.2.3,Win32,59.96282305,,,,,,,,,,,,0.7452,1,,,,,,,,,,,,,,m,1,0.7452,,,,,,,,0.887963102,0.195370366,0,0,0,,0,65,65,53,1,POSTER,HB,old,m,./images/POSTERHB.png,,,,,,,,,,,,,,,,,,,,,
,,,,,,,,,,,,,,,,,200254,21,2022-01-28_17h59.16.601,lexical_decision_task_DD_L6,2021.2.3,Win32,59.96282305,,,,,,,,,,,,0.7876,1,,,,,,,,,,,,,,z,1,0.7876,,,,,,,,0.887963102,0.195370366,0,0,0,,0,66,66,146,1,MOOST,LB,old,z,./images/MOOSTLB.png,,,,,,,,,,,,,,,,,,,,,
,,,,,,,,,,,,,,,,,200254,21,2022-01-28_17h59.16.601,lexical_decision_task_DD_L6,2021.2.3,Win32,59.96282305,,,,,,,,,,,,1.0501,1,,,,,,,,,,,,,,z,1,1.0501,,,,,,,,0.887963102,0.195370366,0,0,0,,0,67,67,97,1,CHIDS,HB,old,z,./images/CHIDSHB.png,,,,,,,,,,,,,,,,,,,,,
,,,,,,,,,,,,,,,,,200254,21,2022-01-28_17h59.16.601,lexical_decision_task_DD_L6,2021.2.3,Win32,59.96282305,,,,,,,,,,,,0.6735,1,,,,,,,,,,,,,,z,1,0.6735,,,,,,,,0.887963102,0.195370366,0,0,0,,0,68,68,132,1,SCIFF,C,old,z,./images/SCIFF.png,,,,,,,,,,,,,,,,,,,,,
,,,,,,,,,,,,,,,,,200254,21,2022-01-28_17h59.16.601,lexical_decision_task_DD_L6,2021.2.3,Win32,59.96282305,,,,,,,,,,,,0.5941,1,,,,,,,,,,,,,,z,1,0.5941,,,,,,,,0.887963102,0.195370366,0,0,0,,0,69,69,94,1,BLANS,HB,old,z,./images/BLANSHB.png,,,,,,,,,,,,,,,,,,,,,
,,,,,,,,,,,,,,,,,200254,21,2022-01-28_17h59.16.601,lexical_decision_task_DD_L6,2021.2.3,Win32,59.96282305,,,,,,,,,,,,0.6344,1,,,,,,,,,,,,,,m,1,0.6344,,,,,,,,0.887963102,0.195370366,0,0,0,,0,70,70,3,1,CRATER,LB,old,m,./images/CRATERLB.png,,,,,,,,,,,,,,,,,,,,,
,,,,,,,,,,,,,,,,,200254,21,2022-01-28_17h59.16.601,lexical_decision_task_DD_L6,2021.2.3,Win32,59.96282305,,,,,,,,,,,,0.5958,1,,,,,,,,,,,,,,m,1,0.5958,,,,,,,,0.887963102,0.195370366,0,0,0,,0,71,71,48,1,SHIELD,LB,old,m,./images/SHIELDLB.png,,,,,,,,,,,,,,,,,,,,,
,,,,,,,,,,,,,,,,,200254,21,2022-01-28_17h59.16.601,lexical_decision_task_DD_L6,2021.2.3,Win32,59.96282305,,,,,,,,,,,,0.5732,1,,,,,,,,,,,,,,m,1,0.5732,,,,,,,,0.887963102,0.195370366,0,0,0,,0,72,72,60,1,CURRY,LB,old,m,./images/CURRYLB.png,,,,,,,,,,,,,,,,,,,,,
,,,,,,,,,,,,,,,,,200254,21,2022-01-28_17h59.16.601,lexical_decision_task_DD_L6,2021.2.3,Win32,59.96282305,,,,,,,,,,,,0.6113,1,,,,,,,,,,,,,,z,1,0.6113,,,,,,,,0.887963102,0.195370366,0,0,0,,0,73,73,155,1,CANGY,LB,old,z,./images/CANGYLB.png,,,,,,,,,,,,,,,,,,,,,
,,,,,,,,,,,,,,,,,200254,21,2022-01-28_17h59.16.601,lexical_decision_task_DD_L6,2021.2.3,Win32,59.96282305,,,,,,,,,,,,0.7258,1,,,,,,,,,,,,,,z,1,0.7258,,,,,,,,0.887963102,0.195370366,0,0,0,,0,74,74,118,1,BAVEL,HB,old,z,./images/BAVELHB.png,,,,,,,,,,,,,,,,,,,,,
,,,,,,,,,,,,,,,,,200254,21,2022-01-28_17h59.16.601,lexical_decision_task_DD_L6,2021.2.3,Win32,59.96282305,,,,,,,,,,,,0.5916,1,,,,,,,,,,,,,,z,1,0.5916,,,,,,,,0.887963102,0.195370366,0,0,0,,0,75,75,135,1,JOODY,C,old,z,./images/JOODY.png,,,,,,,,,,,,,,,,,,,,,
,,,,,,,,,,,,,,,,,200254,21,2022-01-28_17h59.16.601,lexical_decision_task_DD_L6,2021.2.3,Win32,59.96282305,,,,,,,,,,,,0.692,1,,,,,,,,,,,,,,z,1,0.692,,,,,,,,0.887963102,0.195370366,0,0,0,,0,76,76,88,1,GLUSH,HB,old,z,./images/GLUSHHB.png,,,,,,,,,,,,,,,,,,,,,
,,,,,,,,,,,,,,,,,200254,21,2022-01-28_17h59.16.601,lexical_decision_task_DD_L6,2021.2.3,Win32,59.96282305,,,,,,,,,,,,0.6659,1,,,,,,,,,,,,,,z,1,0.6659,,,,,,,,0.887963102,0.195370366,0,0,0,,0,77,77,91,1,SHENS,HB,old,z,./images/SHENSHB.png,,,,,,,,,,,,,,,,,,,,,
,,,,,,,,,,,,,,,,,200254,21,2022-01-28_17h59.16.601,lexical_decision_task_DD_L6,2021.2.3,Win32,59.96282305,,,,,,,,,,,,0.5499,1,,,,,,,,,,,,,,m,1,0.5499,,,,,,,,0.887963102,0.195370366,0,0,0,,0,78,78,22,1,CLOWN,C,old,m,./images/CLOWN.png,,,,,,,,,,,,,,,,,,,,,
,,,,,,,,,,,,,,,,,200254,21,2022-01-28_17h59.16.601,lexical_decision_task_DD_L6,2021.2.3,Win32,59.96282305,,,,,,,,,,,,0.6387,1,,,,,,,,,,,,,,m,1,0.6387,,,,,,,,0.887963102,0.195370366,0,0,0,,0,79,79,41,1,STREAM,HB,old,m,./images/STREAMHB.png,,,,,,,,,,,,,,,,,,,,,
,,,,,,,,,,,,,,,,,200254,21,2022-01-28_17h59.16.601,lexical_decision_task_DD_L6,2021.2.3,Win32,59.96282305,,,,,,,,,,,,0.6276,1,,,,,,,,,,,,,,m,1,0.6276,,,,,,,,0.887963102,0.195370366,0,0,0,,0,80,80,64,1,BRIDE,C,old,m,./images/BRIDE.png,,,,,,,,,,,,,,,,,,,,,
,,,,,,,,,,,,,,,,,200254,21,2022-01-28_17h59.16.601,lexical_decision_task_DD_L6,2021.2.3,Win32,59.96282305,,,,,,,,,,,,0.5748,0,,,,,,,,,,,,,,m,0,0.5748,,,,,,,,0.887963102,0.195370366,0,0,0,,0,81,81,159,1,CUDDY,C,old,z,./images/CUDDY.png,,,,,,,,,,,,,,,,,,,,,
,,,,,,,,,,,,,,,,,200254,21,2022-01-28_17h59.16.601,lexical_decision_task_DD_L6,2021.2.3,Win32,59.96282305,,,,,,,,,,,,0.5888,1,,,,,,,,,,,,,,m,1,0.5888,,,,,,,,0.887963102,0.195370366,0,0,0,,0,82,82,75,1,HAMMER,LB,old,m,./images/HAMMERLB.png,,,,,,,,,,,,,,,,,,,,,
,,,,,,,,,,,,,,,,,200254,21,2022-01-28_17h59.16.601,lexical_decision_task_DD_L6,2021.2.3,Win32,59.96282305,,,,,,,,,,,,0.6142,1,,,,,,,,,,,,,,z,1,0.6142,,,,,,,,0.887963102,0.195370366,0,0,0,space,0,83,83,95,1,HANTY,LB,old,z,./images/HANTYLB.png,3.4895,,,,,,,,,,,,,,,,,,,,
,,,,,,,,,,,,,,,,,200254,21,2022-01-28_17h59.16.601,lexical_decision_task_DD_L6,2021.2.3,Win32,59.96282305,,,,,,,,,,,,0.581,1,,,,,,,,,,,,,,m,1,0.581,,,,,,,,0.887963102,0.195370366,0,0,0,,0,84,84,19,1,DONKEY,C,old,m,./images/DONKEY.png,,,,,,,,,,,,,,,,,,,,,
,,,,,,,,,,,,,,,,,200254,21,2022-01-28_17h59.16.601,lexical_decision_task_DD_L6,2021.2.3,Win32,59.96282305,,,,,,,,,,,,0.5401,1,,,,,,,,,,,,,,z,1,0.5401,,,,,,,,0.887963102,0.195370366,0,0,0,,0,85,85,147,1,ZOLES,C,old,z,./images/ZOLES.png,,,,,,,,,,,,,,,,,,,,,
,,,,,,,,,,,,,,,,,200254,21,2022-01-28_17h59.16.601,lexical_decision_task_DD_L6,2021.2.3,Win32,59.96282305,,,,,,,,,,,,0.7281,1,,,,,,,,,,,,,,z,1,0.7281,,,,,,,,0.887963102,0.195370366,0,0,0,,0,86,86,142,1,PLASK,HB,old,z,./images/PLASKHB.png,,,,,,,,,,,,,,,,,,,,,
,,,,,,,,,,,,,,,,,200254,21,2022-01-28_17h59.16.601,lexical_decision_task_DD_L6,2021.2.3,Win32,59.96282305,,,,,,,,,,,,0.6053,1,,,,,,,,,,,,,,m,1,0.6053,,,,,,,,0.887963102,0.195370366,0,0,0,,0,87,87,27,1,BUTTER,LB,old,m,./images/BUTTERLB.png,,,,,,,,,,,,,,,,,,,,,
,,,,,,,,,,,,,,,,,200254,21,2022-01-28_17h59.16.601,lexical_decision_task_DD_L6,2021.2.3,Win32,59.96282305,,,,,,,,,,,,0.6288,1,,,,,,,,,,,,,,z,1,0.6288,,,,,,,,0.887963102,0.195370366,0,0,0,,0,88,88,109,1,BURGE,HB,old,z,./images/BURGEHB.png,,,,,,,,,,,,,,,,,,,,,
,,,,,,,,,,,,,,,,,200254,21,2022-01-28_17h59.16.601,lexical_decision_task_DD_L6,2021.2.3,Win32,59.96282305,,,,,,,,,,,,0.577,1,,,,,,,,,,,,,,z,1,0.577,,,,,,,,0.887963102,0.195370366,0,0,0,,0,89,89,92,1,PAIMS,LB,old,z,./images/PAIMSLB.png,,,,,,,,,,,,,,,,,,,,,
,,,,,,,,,,,,,,,,,200254,21,2022-01-28_17h59.16.601,lexical_decision_task_DD_L6,2021.2.3,Win32,59.96282305,,,,,,,,,,,,0.5549,1,,,,,,,,,,,,,,m,1,0.5549,,,,,,,,0.887963102,0.195370366,0,0,0,,0,90,90,61,1,ARTIST,C,old,m,./images/ARTIST.png,,,,,,,,,,,,,,,,,,,,,
,,,,,,,,,,,,,,,,,200254,21,2022-01-28_17h59.16.601,lexical_decision_task_DD_L6,2021.2.3,Win32,59.96282305,,,,,,,,,,,,0.7334,1,,,,,,,,,,,,,,m,1,0.7334,,,,,,,,0.887963102,0.195370366,0,0,0,,0,91,91,66,1,STATUE,LB,old,m,./images/STATUELB.png,,,,,,,,,,,,,,,,,,,,,
,,,,,,,,,,,,,,,,,200254,21,2022-01-28_17h59.16.601,lexical_decision_task_DD_L6,2021.2.3,Win32,59.96282305,,,,,,,,,,,,0.6051,1,,,,,,,,,,,,,,z,1,0.6051,,,,,,,,0.887963102,0.195370366,0,0,0,,0,92,92,120,1,RINED,C,old,z,./images/RINED.png,,,,,,,,,,,,,,,,,,,,,
,,,,,,,,,,,,,,,,,200254,21,2022-01-28_17h59.16.601,lexical_decision_task_DD_L6,2021.2.3,Win32,59.96282305,,,,,,,,,,,,0.5782,1,,,,,,,,,,,,,,m,1,0.5782,,,,,,,,0.887963102,0.195370366,0,0,0,,0,93,93,67,1,POKER,C,old,m,./images/POKER.png,,,,,,,,,,,,,,,,,,,,,
,,,,,,,,,,,,,,,,,200254,21,2022-01-28_17h59.16.601,lexical_decision_task_DD_L6,2021.2.3,Win32,59.96282305,,,,,,,,,,,,0.5682,1,,,,,,,,,,,,,,m,1,0.5682,,,,,,,,0.887963102,0.195370366,0,0,0,,0,94,94,55,1,ALLEY,C,old,m,./images/ALLEY.png,,,,,,,,,,,,,,,,,,,,,
,,,,,,,,,,,,,,,,,200254,21,2022-01-28_17h59.16.601,lexical_decision_task_DD_L6,2021.2.3,Win32,59.96282305,,,,,,,,,,,,0.6444,1,,,,,,,,,,,,,,z,1,0.6444,,,,,,,,0.887963102,0.195370366,0,0,0,,0,95,95,134,1,TROSS,LB,old,z,./images/TROSSLB.png,,,,,,,,,,,,,,,,,,,,,
,,,,,,,,,,,,,,,,,200254,21,2022-01-28_17h59.16.601,lexical_decision_task_DD_L6,2021.2.3,Win32,59.96282305,,,,,,,,,,,,0.5666,1,,,,,,,,,,,,,,m,1,0.5666,,,,,,,,0.887963102,0.195370366,0,0,0,,0,96,96,38,1,ENGINE,HB,old,m,./images/ENGINEHB.png,,,,,,,,,,,,,,,,,,,,,
,,,,,,,,,,,,,,,,,200254,21,2022-01-28_17h59.16.601,lexical_decision_task_DD_L6,2021.2.3,Win32,59.96282305,,,,,,,,,,,,0.5918,1,,,,,,,,,,,,,,m,1,0.5918,,,,,,,,0.887963102,0.195370366,0,0,0,,0,97,97,15,1,COLLAR,LB,old,m,./images/COLLARLB.png,,,,,,,,,,,,,,,,,,,,,
,,,,,,,,,,,,,,,,,200254,21,2022-01-28_17h59.16.601,lexical_decision_task_DD_L6,2021.2.3,Win32,59.96282305,,,,,,,,,,,,0.7602,1,,,,,,,,,,,,,,m,1,0.7602,,,,,,,,0.887963102,0.195370366,0,0,0,,0,98,98,68,1,VALLEY,HB,old,m,./images/VALLEYHB.png,,,,,,,,,,,,,,,,,,,,,
,,,,,,,,,,,,,,,,,200254,21,2022-01-28_17h59.16.601,lexical_decision_task_DD_L6,2021.2.3,Win32,59.96282305,,,,,,,,,,,,0.6475,1,,,,,,,,,,,,,,z,1,0.6475,,,,,,,,0.887963102,0.195370366,0,0,0,,0,99,99,101,1,GLEET,LB,old,z,./images/GLEETLB.png,,,,,,,,,,,,,,,,,,,,,
,,,,,,,,,,,,,,,,,200254,21,2022-01-28_17h59.16.601,lexical_decision_task_DD_L6,2021.2.3,Win32,59.96282305,,,,,,,,,,,,0.6415,1,,,,,,,,,,,,,,z,1,0.6415,,,,,,,,0.887963102,0.195370366,0,0,0,,0,100,100,138,1,PLICE,C,old,z,./images/PLICE.png,,,,,,,,,,,,,,,,,,,,,
,,,,,,,,,,,,,,,,,200254,21,2022-01-28_17h59.16.601,lexical_decision_task_DD_L6,2021.2.3,Win32,59.96282305,,,,,,,,,,,,0.6316,1,,,,,,,,,,,,,,m,1,0.6316,,,,,,,,0.887963102,0.195370366,0,0,0,,0,101,101,2,1,STOVE,HB,old,m,./images/STOVEHB.png,,,,,,,,,,,,,,,,,,,,,
,,,,,,,,,,,,,,,,,200254,21,2022-01-28_17h59.16.601,lexical_decision_task_DD_L6,2021.2.3,Win32,59.96282305,,,,,,,,,,,,0.6698,1,,,,,,,,,,,,,,m,1,0.6698,,,,,,,,0.887963102,0.195370366,0,0,0,,0,102,102,23,1,CLOTH,HB,old,m,./images/CLOTHHB.png,,,,,,,,,,,,,,,,,,,,,
,,,,,,,,,,,,,,,,,200254,21,2022-01-28_17h59.16.601,lexical_decision_task_DD_L6,2021.2.3,Win32,59.96282305,,,,,,,,,,,,0.6624,1,,,,,,,,,,,,,,z,1,0.6624,,,,,,,,0.887963102,0.195370366,0,0,0,,0,103,103,104,1,GITTY,LB,old,z,./images/GITTYLB.png,,,,,,,,,,,,,,,,,,,,,
,,,,,,,,,,,,,,,,,200254,21,2022-01-28_17h59.16.601,lexical_decision_task_DD_L6,2021.2.3,Win32,59.96282305,,,,,,,,,,,,0.5601,1,,,,,,,,,,,,,,z,1,0.5601,,,,,,,,0.887963102,0.195370366,0,0,0,,0,104,104,122,1,BLOOT,LB,old,z,./images/BLOOTLB.png,,,,,,,,,,,,,,,,,,,,,
,,,,,,,,,,,,,,,,,200254,21,2022-01-28_17h59.16.601,lexical_decision_task_DD_L6,2021.2.3,Win32,59.96282305,,,,,,,,,,,,0.5794,1,,,,,,,,,,,,,,z,1,0.5794,,,,,,,,0.887963102,0.195370366,0,0,0,,0,105,105,161,1,BLAPS,LB,old,z,./images/BLAPSLB.png,,,,,,,,,,,,,,,,,,,,,
,,,,,,,,,,,,,,,,,200254,21,2022-01-28_17h59.16.601,lexical_decision_task_DD_L6,2021.2.3,Win32,59.96282305,,,,,,,,,,,,0.6519,1,,,,,,,,,,,,,,z,1,0.6519,,,,,,,,0.887963102,0.195370366,0,0,0,,0,106,106,119,1,PAFER,LB,old,z,./images/PAFERLB.png,,,,,,,,,,,,,,,,,,,,,
,,,,,,,,,,,,,,,,,200254,21,2022-01-28_17h59.16.601,lexical_decision_task_DD_L6,2021.2.3,Win32,59.96282305,,,,,,,,,,,,0.7721,1,,,,,,,,,,,,,,m,1,0.7721,,,,,,,,0.887963102,0.195370366,0,0,0,,0,107,107,18,1,PARCEL,LB,old,m,./images/PARCELLB.png,,,,,,,,,,,,,,,,,,,,,
,,,,,,,,,,,,,,,,,200254,21,2022-01-28_17h59.16.601,lexical_decision_task_DD_L6,2021.2.3,Win32,59.96282305,,,,,,,,,,,,1.0625,1,,,,,,,,,,,,,,z,1,1.0625,,,,,,,,0.887963102,0.195370366,0,0,0,,0,108,108,106,1,CLUMS,HB,old,z,./images/CLUMSHB.png,,,,,,,,,,,,,,,,,,,,,
,,,,,,,,,,,,,,,,,200254,21,2022-01-28_17h59.16.601,lexical_decision_task_DD_L6,2021.2.3,Win32,59.96282305,,,,,,,,,,,,0.6325,1,,,,,,,,,,,,,,z,1,0.6325,,,,,,,,0.887963102,0.195370366,0,0,0,,0,109,109,90,1,NEAST,C,old,z,./images/NEAST.png,,,,,,,,,,,,,,,,,,,,,
,,,,,,,,,,,,,,,,,200254,21,2022-01-28_17h59.16.601,lexical_decision_task_DD_L6,2021.2.3,Win32,59.96282305,,,,,,,,,,,,0.4859,1,,,,,,,,,,,,,,z,1,0.4859,,,,,,,,0.887963102,0.195370366,0,0,0,,0,110,110,102,1,DULLE,C,old,z,./images/DULLE.png,,,,,,,,,,,,,,,,,,,,,
,,,,,,,,,,,,,,,,,200254,21,2022-01-28_17h59.16.601,lexical_decision_task_DD_L6,2021.2.3,Win32,59.96282305,,,,,,,,,,,,0.638,1,,,,,,,,,,,,,,z,1,0.638,,,,,,,,0.887963102,0.195370366,0,0,0,,0,111,111,158,1,EGECT,LB,old,z,./images/EGECTLB.png,,,,,,,,,,,,,,,,,,,,,
,,,,,,,,,,,,,,,,,200254,21,2022-01-28_17h59.16.601,lexical_decision_task_DD_L6,2021.2.3,Win32,59.96282305,,,,,,,,,,,,0.5942,1,,,,,,,,,,,,,,z,1,0.5942,,,,,,,,0.887963102,0.195370366,0,0,0,,0,112,112,137,1,JOOST,LB,old,z,./images/JOOSTLB.png,,,,,,,,,,,,,,,,,,,,,
,,,,,,,,,,,,,,,,,200254,21,2022-01-28_17h59.16.601,lexical_decision_task_DD_L6,2021.2.3,Win32,59.96282305,,,,,,,,,,,,0.6602,1,,,,,,,,,,,,,,m,1,0.6602,,,,,,,,0.887963102,0.195370366,0,0,0,,0,113,113,33,1,SAUNA,LB,old,m,./images/SAUNALB.png,,,,,,,,,,,,,,,,,,,,,
,,,,,,,,,,,,,,,,,200254,21,2022-01-28_17h59.16.601,lexical_decision_task_DD_L6,2021.2.3,Win32,59.96282305,,,,,,,,,,,,0.6547,1,,,,,,,,,,,,,,z,1,0.6547,,,,,,,,0.887963102,0.195370366,0,0,0,,0,114,114,136,1,WERVE,HB,old,z,./images/WERVEHB.png,,,,,,,,,,,,,,,,,,,,,
,,,,,,,,,,,,,,,,,200254,21,2022-01-28_17h59.16.601,lexical_decision_task_DD_L6,2021.2.3,Win32,59.96282305,,,,,,,,,,,,0.6172,1,,,,,,,,,,,,,,z,1,0.6172,,,,,,,,0.887963102,0.195370366,0,0,0,,0,115,115,143,1,MONGS,LB,old,z,./images/MONGSLB.png,,,,,,,,,,,,,,,,,,,,,
,,,,,,,,,,,,,,,,,200254,21,2022-01-28_17h59.16.601,lexical_decision_task_DD_L6,2021.2.3,Win32,59.96282305,,,,,,,,,,,,0.7098,1,,,,,,,,,,,,,,m,1,0.7098,,,,,,,,0.887963102,0.195370366,0,0,0,,0,116,116,12,1,BLOKE,LB,old,m,./images/BLOKELB.png,,,,,,,,,,,,,,,,,,,,,
,,,,,,,,,,,,,,,,,200254,21,2022-01-28_17h59.16.601,lexical_decision_task_DD_L6,2021.2.3,Win32,59.96282305,,,,,,,,,,,,0.5558,1,,,,,,,,,,,,,,z,1,0.5558,,,,,,,,0.887963102,0.195370366,0,0,0,,0,117,117,150,1,NOOLS,C,old,z,./images/NOOLS.png,,,,,,,,,,,,,,,,,,,,,
,,,,,,,,,,,,,,,,,200254,21,2022-01-28_17h59.16.601,lexical_decision_task_DD_L6,2021.2.3,Win32,59.96282305,,,,,,,,,,,,0.6005,1,,,,,,,,,,,,,,z,1,0.6005,,,,,,,,0.887963102,0.195370366,0,0,0,,0,118,118,152,1,FRAIN,LB,old,z,./images/FRAINLB.png,,,,,,,,,,,,,,,,,,,,,
,,,,,,,,,,,,,,,,,200254,21,2022-01-28_17h59.16.601,lexical_decision_task_DD_L6,2021.2.3,Win32,59.96282305,,,,,,,,,,,,0.7487,1,,,,,,,,,,,,,,m,1,0.7487,,,,,,,,0.887963102,0.195370366,0,0,0,,0,119,119,20,1,GRANNY,HB,old,m,./images/GRANNYHB.png,,,,,,,,,,,,,,,,,,,,,
,,,,,,,,,,,,,,,,,200254,21,2022-01-28_17h59.16.601,lexical_decision_task_DD_L6,2021.2.3,Win32,59.96282305,,,,,,,,,,,,0.6282,1,,,,,,,,,,,,,,m,1,0.6282,,,,,,,,0.887963102,0.195370366,0,0,0,,0,120,120,10,1,GARDEN,C,old,m,./images/GARDEN.png,,,,,,,,,,,,,,,,,,,,,
,,,,,,,,,,,,,,,,,200254,21,2022-01-28_17h59.16.601,lexical_decision_task_DD_L6,2021.2.3,Win32,59.96282305,,,,,,,,,,,,0.6242,1,,,,,,,,,,,,,,m,1,0.6242,,,,,,,,0.887963102,0.195370366,0,0,0,,0,121,121,62,1,MAMMAL,HB,old,m,./images/MAMMALHB.png,,,,,,,,,,,,,,,,,,,,,
,,,,,,,,,,,,,,,,,200254,21,2022-01-28_17h59.16.601,lexical_decision_task_DD_L6,2021.2.3,Win32,59.96282305,,,,,,,,,,,,0.637,1,,,,,,,,,,,,,,z,1,0.637,,,,,,,,0.887963102,0.195370366,0,0,0,,0,122,122,164,1,SGREW,LB,old,z,./images/SGREWLB.png,,,,,,,,,,,,,,,,,,,,,
,,,,,,,,,,,,,,,,,200254,21,2022-01-28_17h59.16.601,lexical_decision_task_DD_L6,2021.2.3,Win32,59.96282305,,,,,,,,,,,,0.5578,1,,,,,,,,,,,,,,m,1,0.5578,,,,,,,,0.887963102,0.195370366,0,0,0,,0,123,123,39,1,CANDY,LB,old,m,./images/CANDYLB.png,,,,,,,,,,,,,,,,,,,,,
,,,,,,,,,,,,,,,,,200254,21,2022-01-28_17h59.16.601,lexical_decision_task_DD_L6,2021.2.3,Win32,59.96282305,,,,,,,,,,,,0.6409,1,,,,,,,,,,,,,,m,1,0.6409,,,,,,,,0.887963102,0.195370366,0,0,0,,0,124,124,73,1,GLOVE,C,old,m,./images/GLOVE.png,,,,,,,,,,,,,,,,,,,,,
,,,,,,,,,,,,,,,,,200254,21,2022-01-28_17h59.16.601,lexical_decision_task_DD_L6,2021.2.3,Win32,59.96282305,,,,,,,,,,,,0.6743,1,,,,,,,,,,,,,,z,1,0.6743,,,,,,,,0.887963102,0.195370366,0,0,0,space,0,125,125,127,1,NINDY,HB,old,z,./images/NINDYHB.png,4.1021,,,,,,,,,,,,,,,,,,,,
,,,,,,,,,,,,,,,,,200254,21,2022-01-28_17h59.16.601,lexical_decision_task_DD_L6,2021.2.3,Win32,59.96282305,,,,,,,,,,,,0.6172,1,,,,,,,,,,,,,,m,1,0.6172,,,,,,,,0.887963102,0.195370366,0,0,0,,0,126,126,58,1,CANOE,C,old,m,./images/CANOE.png,,,,,,,,,,,,,,,,,,,,,
,,,,,,,,,,,,,,,,,200254,21,2022-01-28_17h59.16.601,lexical_decision_task_DD_L6,2021.2.3,Win32,59.96282305,,,,,,,,,,,,0.6195,1,,,,,,,,,,,,,,z,1,0.6195,,,,,,,,0.887963102,0.195370366,0,0,0,,0,127,127,99,1,BACKY,C,old,z,./images/BACKY.png,,,,,,,,,,,,,,,,,,,,,
,,,,,,,,,,,,,,,,,200254,21,2022-01-28_17h59.16.601,lexical_decision_task_DD_L6,2021.2.3,Win32,59.96282305,,,,,,,,,,,,0.6001,1,,,,,,,,,,,,,,z,1,0.6001,,,,,,,,0.887963102,0.195370366,0,0,0,,0,128,128,157,1,INLER,HB,old,z,./images/INLERHB.png,,,,,,,,,,,,,,,,,,,,,
,,,,,,,,,,,,,,,,,200254,21,2022-01-28_17h59.16.601,lexical_decision_task_DD_L6,2021.2.3,Win32,59.96282305,,,,,,,,,,,,0.6529,1,,,,,,,,,,,,,,z,1,0.6529,,,,,,,,0.887963102,0.195370366,0,0,0,,0,129,129,113,1,LINEW,LB,old,z,./images/LINEWLB.png,,,,,,,,,,,,,,,,,,,,,
,,,,,,,,,,,,,,,,,200254,21,2022-01-28_17h59.16.601,lexical_decision_task_DD_L6,2021.2.3,Win32,59.96282305,,,,,,,,,,,,1.1281,1,,,,,,,,,,,,,,z,1,1.1281,,,,,,,,0.887963102,0.195370366,0,0,0,,0,130,130,145,1,LAMEL,HB,old,z,./images/LAMELHB.png,,,,,,,,,,,,,,,,,,,,,
,,,,,,,,,,,,,,,,,200254,21,2022-01-28_17h59.16.601,lexical_decision_task_DD_L6,2021.2.3,Win32,59.96282305,,,,,,,,,,,,0.5956,1,,,,,,,,,,,,,,z,1,0.5956,,,,,,,,0.887963102,0.195370366,0,0,0,,0,131,131,144,1,NAIRY,C,old,z,./images/NAIRY.png,,,,,,,,,,,,,,,,,,,,,
,,,,,,,,,,,,,,,,,200254,21,2022-01-28_17h59.16.601,lexical_decision_task_DD_L6,2021.2.3,Win32,59.96282305,,,,,,,,,,,,0.6791,1,,,,,,,,,,,,,,z,1,0.6791,,,,,,,,0.887963102,0.195370366,0,0,0,,0,132,132,148,1,JOMS,HB,old,z,./images/JOMSHB.png,,,,,,,,,,,,,,,,,,,,,
,,,,,,,,,,,,,,,,,200254,21,2022-01-28_17h59.16.601,lexical_decision_task_DD_L6,2021.2.3,Win32,59.96282305,,,,,,,,,,,,0.5539,1,,,,,,,,,,,,,,m,1,0.5539,,,,,,,,0.887963102,0.195370366,0,0,0,,0,133,133,31,1,STEAK,C,old,m,./images/STEAK.png,,,,,,,,,,,,,,,,,,,,,
,,,,,,,,,,,,,,,,,200254,21,2022-01-28_17h59.16.601,lexical_decision_task_DD_L6,2021.2.3,Win32,59.96282305,,,,,,,,,,,,0.5739,1,,,,,,,,,,,,,,z,1,0.5739,,,,,,,,0.887963102,0.195370366,0,0,0,,0,134,134,167,1,ZONET,LB,old,z,./images/ZONETLB.png,,,,,,,,,,,,,,,,,,,,,
,,,,,,,,,,,,,,,,,200254,21,2022-01-28_17h59.16.601,lexical_decision_task_DD_L6,2021.2.3,Win32,59.96282305,,,,,,,,,,,,0.5408,1,,,,,,,,,,,,,,m,1,0.5408,,,,,,,,0.887963102,0.195370366,0,0,0,,0,135,135,24,1,FLESH,LB,old,m,./images/FLESHLB.png,,,,,,,,,,,,,,,,,,,,,
,,,,,,,,,,,,,,,,,200254,21,2022-01-28_17h59.16.601,lexical_decision_task_DD_L6,2021.2.3,Win32,59.96282305,,,,,,,,,,,,0.6541,1,,,,,,,,,,,,,,z,1,0.6541,,,,,,,,0.887963102,0.195370366,0,0,0,,0,136,136,111,1,HOSSE,C,old,z,./images/HOSSE.png,,,,,,,,,,,,,,,,,,,,,
,,,,,,,,,,,,,,,,,200254,21,2022-01-28_17h59.16.601,lexical_decision_task_DD_L6,2021.2.3,Win32,59.96282305,,,,,,,,,,,,0.5782,1,,,,,,,,,,,,,,z,1,0.5782,,,,,,,,0.887963102,0.195370366,0,0,0,,0,137,137,117,1,STEEG,C,old,z,./images/STEEG.png,,,,,,,,,,,,,,,,,,,,,
,,,,,,,,,,,,,,,,,200254,21,2022-01-28_17h59.16.601,lexical_decision_task_DD_L6,2021.2.3,Win32,59.96282305,,,,,,,,,,,,0.6127,1,,,,,,,,,,,,,,m,1,0.6127,,,,,,,,0.887963102,0.195370366,0,0,0,,0,138,138,1,1,TOWEL,C,old,m,./images/TOWEL.png,,,,,,,,,,,,,,,,,,,,,
,,,,,,,,,,,,,,,,,200254,21,2022-01-28_17h59.16.601,lexical_decision_task_DD_L6,2021.2.3,Win32,59.96282305,,,,,,,,,,,,0.6711,1,,,,,,,,,,,,,,m,1,0.6711,,,,,,,,0.887963102,0.195370366,0,0,0,,0,139,139,77,1,WHEEL,HB,old,m,./images/WHEELHB.png,,,,,,,,,,,,,,,,,,,,,
,,,,,,,,,,,,,,,,,200254,21,2022-01-28_17h59.16.601,lexical_decision_task_DD_L6,2021.2.3,Win32,59.96282305,,,,,,,,,,,,0.5962,1,,,,,,,,,,,,,,m,1,0.5962,,,,,,,,0.887963102,0.195370366,0,0,0,,0,140,140,49,1,BISHOP,C,old,m,./images/BISHOP.png,,,,,,,,,,,,,,,,,,,,,
,,,,,,,,,,,,,,,,,200254,21,2022-01-28_17h59.16.601,lexical_decision_task_DD_L6,2021.2.3,Win32,59.96282305,,,,,,,,,,,,0.6161,1,,,,,,,,,,,,,,z,1,0.6161,,,,,,,,0.887963102,0.195370366,0,0,0,,0,141,141,116,1,BALGY,LB,old,z,./images/BALGYLB.png,,,,,,,,,,,,,,,,,,,,,
,,,,,,,,,,,,,,,,,200254,21,2022-01-28_17h59.16.601,lexical_decision_task_DD_L6,2021.2.3,Win32,59.96282305,,,,,,,,,,,,0.5228,1,,,,,,,,,,,,,,m,1,0.5228,,,,,,,,0.887963102,0.195370366,0,0,0,,0,142,142,7,1,WAGON,C,old,m,./images/WAGON.png,,,,,,,,,,,,,,,,,,,,,
,,,,,,,,,,,,,,,,,200254,21,2022-01-28_17h59.16.601,lexical_decision_task_DD_L6,2021.2.3,Win32,59.96282305,,,,,,,,,,,,0.5191,1,,,,,,,,,,,,,,m,1,0.5191,,,,,,,,0.887963102,0.195370366,0,0,0,,0,143,143,51,1,SAUCE,LB,old,m,./images/SAUCELB.png,,,,,,,,,,,,,,,,,,,,,
,,,,,,,,,,,,,,,,,200254,21,2022-01-28_17h59.16.601,lexical_decision_task_DD_L6,2021.2.3,Win32,59.96282305,,,,,,,,,,,,0.5486,1,,,,,,,,,,,,,,m,1,0.5486,,,,,,,,0.887963102,0.195370366,0,0,0,,0,144,144,25,1,CHALK,C,old,m,./images/CHALK.png,,,,,,,,,,,,,,,,,,,,,
,,,,,,,,,,,,,,,,,200254,21,2022-01-28_17h59.16.601,lexical_decision_task_DD_L6,2021.2.3,Win32,59.96282305,,,,,,,,,,,,0.5409,1,,,,,,,,,,,,,,m,1,0.5409,,,,,,,,0.887963102,0.195370366,0,0,0,,0,145,145,63,1,BAKER,LB,old,m,./images/BAKERLB.png,,,,,,,,,,,,,,,,,,,,,
,,,,,,,,,,,,,,,,,200254,21,2022-01-28_17h59.16.601,lexical_decision_task_DD_L6,2021.2.3,Win32,59.96282305,,,,,,,,,,,,0.5821,1,,,,,,,,,,,,,,m,1,0.5821,,,,,,,,0.887963102,0.195370366,0,0,0,,0,146,146,6,1,STAIN,LB,old,m,./images/STAINLB.png,,,,,,,,,,,,,,,,,,,,,
,,,,,,,,,,,,,,,,,200254,21,2022-01-28_17h59.16.601,lexical_decision_task_DD_L6,2021.2.3,Win32,59.96282305,,,,,,,,,,,,0.6243,1,,,,,,,,,,,,,,z,1,0.6243,,,,,,,,0.887963102,0.195370366,0,0,0,,0,147,147,98,1,BAMPS,LB,old,z,./images/BAMPSLB.png,,,,,,,,,,,,,,,,,,,,,
,,,,,,,,,,,,,,,,,200254,21,2022-01-28_17h59.16.601,lexical_decision_task_DD_L6,2021.2.3,Win32,59.96282305,,,,,,,,,,,,0.7807,1,,,,,,,,,,,,,,z,1,0.7807,,,,,,,,0.887963102,0.195370366,0,0,0,,0,148,148,154,1,THINT,HB,old,z,./images/THINTHB.png,,,,,,,,,,,,,,,,,,,,,
,,,,,,,,,,,,,,,,,200254,21,2022-01-28_17h59.16.601,lexical_decision_task_DD_L6,2021.2.3,Win32,59.96282305,,,,,,,,,,,,0.6286,1,,,,,,,,,,,,,,z,1,0.6286,,,,,,,,0.887963102,0.195370366,0,0,0,,0,149,149,112,1,MYING,HB,old,z,./images/MYINGHB.png,,,,,,,,,,,,,,,,,,,,,
,,,,,,,,,,,,,,,,,200254,21,2022-01-28_17h59.16.601,lexical_decision_task_DD_L6,2021.2.3,Win32,59.96282305,,,,,,,,,,,,0.6167,1,,,,,,,,,,,,,,z,1,0.6167,,,,,,,,0.887963102,0.195370366,0,0,0,,0,150,150,166,1,SHORY,HB,old,z,./images/SHORYHB.png,,,,,,,,,,,,,,,,,,,,,
,,,,,,,,,,,,,,,,,200254,21,2022-01-28_17h59.16.601,lexical_decision_task_DD_L6,2021.2.3,Win32,59.96282305,,,,,,,,,,,,0.6785,1,,,,,,,,,,,,,,z,1,0.6785,,,,,,,,0.887963102,0.195370366,0,0,0,,0,151,151,93,1,SMONE,C,old,z,./images/SMONE.png,,,,,,,,,,,,,,,,,,,,,
,,,,,,,,,,,,,,,,,200254,21,2022-01-28_17h59.16.601,lexical_decision_task_DD_L6,2021.2.3,Win32,59.96282305,,,,,,,,,,,,0.5083,1,,,,,,,,,,,,,,m,1,0.5083,,,,,,,,0.887963102,0.195370366,0,0,0,,0,152,152,54,1,CHERRY,LB,old,m,./images/CHERRYLB.png,,,,,,,,,,,,,,,,,,,,,
,,,,,,,,,,,,,,,,,200254,21,2022-01-28_17h59.16.601,lexical_decision_task_DD_L6,2021.2.3,Win32,59.96282305,,,,,,,,,,,,0.5416,1,,,,,,,,,,,,,,z,1,0.5416,,,,,,,,0.887963102,0.195370366,0,0,0,,0,153,153,131,1,NACES,LB,old,z,./images/NACESLB.png,,,,,,,,,,,,,,,,,,,,,
,,,,,,,,,,,,,,,,,200254,21,2022-01-28_17h59.16.601,lexical_decision_task_DD_L6,2021.2.3,Win32,59.96282305,,,,,,,,,,,,0.6018,1,,,,,,,,,,,,,,m,1,0.6018,,,,,,,,0.887963102,0.195370366,0,0,0,,0,154,154,59,1,BRUSH,HB,old,m,./images/BRUSHHB.png,,,,,,,,,,,,,,,,,,,,,
,,,,,,,,,,,,,,,,,200254,21,2022-01-28_17h59.16.601,lexical_decision_task_DD_L6,2021.2.3,Win32,59.96282305,,,,,,,,,,,,0.6005,1,,,,,,,,,,,,,,z,1,0.6005,,,,,,,,0.887963102,0.195370366,0,0,0,,0,155,155,128,1,GRIFT,LB,old,z,./images/GRIFTLB.png,,,,,,,,,,,,,,,,,,,,,
,,,,,,,,,,,,,,,,,200254,21,2022-01-28_17h59.16.601,lexical_decision_task_DD_L6,2021.2.3,Win32,59.96282305,,,,,,,,,,,,0.6587,1,,,,,,,,,,,,,,z,1,0.6587,,,,,,,,0.887963102,0.195370366,0,0,0,,0,156,156,126,1,GUELS,C,old,z,./images/GUELS.png,,,,,,,,,,,,,,,,,,,,,
,,,,,,,,,,,,,,,,,200254,21,2022-01-28_17h59.16.601,lexical_decision_task_DD_L6,2021.2.3,Win32,59.96282305,,,,,,,,,,,,0.675,1,,,,,,,,,,,,,,z,1,0.675,,,,,,,,0.887963102,0.195370366,0,0,0,,0,157,157,103,1,FLORT,HB,old,z,./images/FLORTHB.png,,,,,,,,,,,,,,,,,,,,,
,,,,,,,,,,,,,,,,,200254,21,2022-01-28_17h59.16.601,lexical_decision_task_DD_L6,2021.2.3,Win32,59.96282305,,,,,,,,,,,,0.5438,1,,,,,,,,,,,,,,m,1,0.5438,,,,,,,,0.887963102,0.195370366,0,0,0,,0,158,158,28,1,CASINO,C,old,m,./images/CASINO.png,,,,,,,,,,,,,,,,,,,,,
,,,,,,,,,,,,,,,,,200254,21,2022-01-28_17h59.16.601,lexical_decision_task_DD_L6,2021.2.3,Win32,59.96282305,,,,,,,,,,,,0.6245,1,,,,,,,,,,,,,,m,1,0.6245,,,,,,,,0.887963102,0.195370366,0,0,0,,0,159,159,13,1,BUNNY,C,old,m,./images/BUNNY.png,,,,,,,,,,,,,,,,,,,,,
,,,,,,,,,,,,,,,,,200254,21,2022-01-28_17h59.16.601,lexical_decision_task_DD_L6,2021.2.3,Win32,59.96282305,,,,,,,,,,,,0.9974,1,,,,,,,,,,,,,,z,1,0.9974,,,,,,,,0.887963102,0.195370366,0,0,0,,0,160,160,110,1,CRUNK,LB,old,z,./images/CRUNKLB.png,,,,,,,,,,,,,,,,,,,,,
,,,,,,,,,,,,,,,,,200254,21,2022-01-28_17h59.16.601,lexical_decision_task_DD_L6,2021.2.3,Win32,59.96282305,,,,,,,,,,,,0.5787,1,,,,,,,,,,,,,,m,1,0.5787,,,,,,,,0.887963102,0.195370366,0,0,0,,0,161,161,35,1,LLAMA,HB,old,m,./images/LLAMAHB.png,,,,,,,,,,,,,,,,,,,,,
,,,,,,,,,,,,,,,,,200254,21,2022-01-28_17h59.16.601,lexical_decision_task_DD_L6,2021.2.3,Win32,59.96282305,,,,,,,,,,,,0.6522,1,,,,,,,,,,,,,,z,1,0.6522,,,,,,,,0.887963102,0.195370366,0,0,0,,0,162,162,125,1,MOOKY,LB,old,z,./images/MOOKYLB.png,,,,,,,,,,,,,,,,,,,,,
,,,,,,,,,,,,,,,,,200254,21,2022-01-28_17h59.16.601,lexical_decision_task_DD_L6,2021.2.3,Win32,59.96282305,,,,,,,,,,,,0.6805,1,,,,,,,,,,,,,,z,1,0.6805,,,,,,,,0.887963102,0.195370366,0,0,0,,0,163,163,163,1,GAMBA,HB,old,z,./images/GAMBAHB.png,,,,,,,,,,,,,,,,,,,,,
,,,,,,,,,,,,,,,,,200254,21,2022-01-28_17h59.16.601,lexical_decision_task_DD_L6,2021.2.3,Win32,59.96282305,,,,,,,,,,,,0.4819,1,,,,,,,,,,,,,,m,1,0.4819,,,,,,,,0.887963102,0.195370366,0,0,0,,0,164,164,21,1,DANCER,LB,old,m,./images/DANCERLB.png,,,,,,,,,,,,,,,,,,,,,
,,,,,,,,,,,,,,,,,200254,21,2022-01-28_17h59.16.601,lexical_decision_task_DD_L6,2021.2.3,Win32,59.96282305,,,,,,,,,,,,0.5989,1,,,,,,,,,,,,,,m,1,0.5989,,,,,,,,0.887963102,0.195370366,0,0,0,,0,165,165,56,1,HEATER,HB,old,m,./images/HEATERHB.png,,,,,,,,,,,,,,,,,,,,,
,,,,,,,,,,,,,,,,,200254,21,2022-01-28_17h59.16.601,lexical_decision_task_DD_L6,2021.2.3,Win32,59.96282305,,,,,,,,,,,,0.6245,1,,,,,,,,,,,,,,m,1,0.6245,,,,,,,,0.887963102,0.195370366,0,0,0,,0,166,166,83,1,WHISKY,HB,old,m,./images/WHISKYHB.png,,,,,,,,,,,,,,,,,,,,,
,,,,,,,,,,,,,,,,,200254,21,2022-01-28_17h59.16.601,lexical_decision_task_DD_L6,2021.2.3,Win32,59.96282305,,,,,,,,,,,,0.8318,1,,,,,,,,,,,,,,z,1,0.8318,,,,,,,,0.887963102,0.195370366,0,0,0,,0,167,167,115,1,MAWNS,HB,old,z,./images/MAWNSHB.png,,,,,,,,,,,,,,,,,,,,,
space,0.887963102,0.195370366,0,0,0,,,,,,,1,test,"In the next phase you will be presented with the words from the the first phase. Your job is to decide whether you remember seeing the word or not. If you remember seeing the word press ""old"" or type ""m"". If you do not remember seeing the word press ""new"" or type ""z"". Please press the space bar or click on continue to begin. ",,,200254,21,2022-01-28_17h59.16.601,lexical_decision_task_DD_L6,2021.2.3,Win32,59.96282305,0.8715,,,,,,,,,,,,,,,,,,,,,,,,,,,,,,,,,,,,,,,,,,,,,,,,,,,,,0,0,0,0,1,,,,,,,,,,,,,,,
space,0.887963102,0.195370366,0,0,0,,,,,,,1,test,"In the next phase you will be presented with the words from the the first phase. Your job is to decide whether you remember seeing the word or not. If you remember seeing the word press ""old"" or type ""m"". If you do not remember seeing the word press ""new"" or type ""z"". Please press the space bar or click on continue to begin. ",,,200254,21,2022-01-28_17h59.16.601,lexical_decision_task_DD_L6,2021.2.3,Win32,59.96282305,1.0861,,,,,,,,,,,,,,,,,,,,,,,,,,,,,,,,,,,,,,,,,,,,,,,,,,,,,1,0,1,0,1,,,,,,,,,,,,,,,
,0.075000014,-0.362963032,1,0,0,instr_done_button,,,,,,1,test,"In the next phase you will be presented with the words from the the first phase. Your job is to decide whether you remember seeing the word or not. If you remember seeing the word press ""old"" or type ""m"". If you do not remember seeing the word press ""new"" or type ""z"". Please press the space bar or click on continue to begin. ",,,200254,21,2022-01-28_17h59.16.601,lexical_decision_task_DD_L6,2021.2.3,Win32,59.96282305,,,,,,,,,,,,,,,,,,,,,,,,,,,,,,,,,,,,,,,,,,,,,,,,,,,,,,2,0,2,0,1,,,,,,,,,,,,,,,
,0.072222237,-0.388888902,1,0,0,instr_done_button,,,,,,1,test,"In the next phase you will be presented with the words from the the first phase. Your job is to decide whether you remember seeing the word or not. If you remember seeing the word press ""old"" or type ""m"". If you do not remember seeing the word press ""new"" or type ""z"". Please press the space bar or click on continue to begin. ",,,200254,21,2022-01-28_17h59.16.601,lexical_decision_task_DD_L6,2021.2.3,Win32,59.96282305,,,,,,,,,,,,,,,,,,,,,,,,,,,,,,,,,,,,,,,,,,,,,,,,,,,,,,3,0,3,0,1,,,,,,,,,,,,,,,
space,0.187037053,-0.24259266,1,0,0,,,,,,,1,test,"In the next phase you will be presented with the words from the the first phase. Your job is to decide whether you remember seeing the word or not. If you remember seeing the word press ""old"" or type ""m"". If you do not remember seeing the word press ""new"" or type ""z"". Please press the space bar or click on continue to begin. ",,,200254,21,2022-01-28_17h59.16.601,lexical_decision_task_DD_L6,2021.2.3,Win32,59.96282305,1.3207,,,,,,,,,,,,,,,,,,,,,,,,,,,,,,,,,,,,,,,,,,,,,,,,,,,,,4,0,4,0,1,,,,,,,,,,,,,,,
,,,,,,,,,,,,,,,,,200254,21,2022-01-28_17h59.16.601,lexical_decision_task_DD_L6,2021.2.3,Win32,59.96282305,,,,,,,,,,,,1.3533,1,,,,,,,,,,,,,,,,,,,,,,,,0.717592617,0.089814809,0,0,0,,,,,,,PURSE,HB,z,y,./images/PURSEHB.png,,,,,,,z,1,1.3533,,,,,,,,0,0,0,146,1
,,,,,,,,,,,,,,,,,200254,21,2022-01-28_17h59.16.601,lexical_decision_task_DD_L6,2021.2.3,Win32,59.96282305,,,,,,,,,,,,0.5548,1,,,,,,,,,,,,,,,,,,,,,,,,0.887963102,0.199999996,0,0,0,,,,,,,RULER,C,m,y,./images/RULER.png,,,,,,,m,1,0.5548,,,,,,,,0,1,1,79,1
,,,,,,,,,,,,,,,,,200254,21,2022-01-28_17h59.16.601,lexical_decision_task_DD_L6,2021.2.3,Win32,59.96282305,,,,,,,,,,,,0.4981,1,,,,,,,,,,,,,,,,,,,,,,,,0.887963102,0.199999996,0,0,0,,,,,,,HEATER,HB,m,y,./images/HEATERHB.png,,,,,,,m,1,0.4981,,,,,,,,0,2,2,56,1
,,,,,,,,,,,,,,,,,200254,21,2022-01-28_17h59.16.601,lexical_decision_task_DD_L6,2021.2.3,Win32,59.96282305,,,,,,,,,,,,0.555,1,,,,,,,,,,,,,,,,,,,,,,,,0.887963102,0.199999996,0,0,0,,,,,,,COLLAR,LB,m,y,./images/COLLARLB.png,,,,,,,m,1,0.555,,,,,,,,0,3,3,15,1
,,,,,,,,,,,,,,,,,200254,21,2022-01-28_17h59.16.601,lexical_decision_task_DD_L6,2021.2.3,Win32,59.96282305,,,,,,,,,,,,0.4805,0,,,,,,,,,,,,,,,,,,,,,,,,0.887963102,0.199999996,0,0,0,,,,,,,DRUMS,C,z,y,./images/DRUMS.png,,,,,,,m,0,0.4805,,,,,,,,0,4,4,133,1
,,,,,,,,,,,,,,,,,200254,21,2022-01-28_17h59.16.601,lexical_decision_task_DD_L6,2021.2.3,Win32,59.96282305,,,,,,,,,,,,0.5462,1,,,,,,,,,,,,,,,,,,,,,,,,0.887963102,0.199999996,0,0,0,,,,,,,MONKEY,LB,m,y,./images/MONKEYLB.png,,,,,,,m,1,0.5462,,,,,,,,0,5,5,45,1
,,,,,,,,,,,,,,,,,200254,21,2022-01-28_17h59.16.601,lexical_decision_task_DD_L6,2021.2.3,Win32,59.96282305,,,,,,,,,,,,0.871,1,,,,,,,,,,,,,,,,,,,,,,,,0.887963102,0.199999996,0,0,0,,,,,,,BEARD,HB,z,y,./images/BEARDHB.png,,,,,,,z,1,0.871,,,,,,,,0,6,6,86,1
,,,,,,,,,,,,,,,,,200254,21,2022-01-28_17h59.16.601,lexical_decision_task_DD_L6,2021.2.3,Win32,59.96282305,,,,,,,,,,,,0.5428,1,,,,,,,,,,,,,,,,,,,,,,,,0.887963102,0.199999996,0,0,0,,,,,,,CANOE,C,m,y,./images/CANOE.png,,,,,,,m,1,0.5428,,,,,,,,0,7,7,58,1
,,,,,,,,,,,,,,,,,200254,21,2022-01-28_17h59.16.601,lexical_decision_task_DD_L6,2021.2.3,Win32,59.96282305,,,,,,,,,,,,0.6066,1,,,,,,,,,,,,,,,,,,,,,,,,0.887963102,0.199999996,0,0,0,,,,,,,DESERT,C,m,y,./images/DESERT.png,,,,,,,m,1,0.6066,,,,,,,,0,8,8,52,1
,,,,,,,,,,,,,,,,,200254,21,2022-01-28_17h59.16.601,lexical_decision_task_DD_L6,2021.2.3,Win32,59.96282305,,,,,,,,,,,,0.4619,0,,,,,,,,,,,,,,,,,,,,,,,,0.887963102,0.199999996,0,0,0,,,,,,,SQUARE,LB,z,y,./images/SQUARELB.png,,,,,,,m,0,0.4619,,,,,,,,0,9,9,90,1
,,,,,,,,,,,,,,,,,200254,21,2022-01-28_17h59.16.601,lexical_decision_task_DD_L6,2021.2.3,Win32,59.96282305,,,,,,,,,,,,0.6648,1,,,,,,,,,,,,,,,,,,,,,,,,0.887963102,0.199999996,0,0,0,,,,,,,TOMATO,LB,z,y,./images/TOMATOLB.png,,,,,,,z,1,0.6648,,,,,,,,0,10,10,84,1
,,,,,,,,,,,,,,,,,200254,21,2022-01-28_17h59.16.601,lexical_decision_task_DD_L6,2021.2.3,Win32,59.96282305,,,,,,,,,,,,0.5941,1,,,,,,,,,,,,,,,,,,,,,,,,0.887963102,0.199999996,0,0,0,,,,,,,CLOUD,HB,m,y,./images/CLOUDHB.png,,,,,,,m,1,0.5941,,,,,,,,0,11,11,26,1
,,,,,,,,,,,,,,,,,200254,21,2022-01-28_17h59.16.601,lexical_decision_task_DD_L6,2021.2.3,Win32,59.96282305,,,,,,,,,,,,0.5101,1,,,,,,,,,,,,,,,,,,,,,,,,0.887963102,0.199999996,0,0,0,,,,,,,DANCER,LB,m,y,./images/DANCERLB.png,,,,,,,m,1,0.5101,,,,,,,,0,12,12,21,1
,,,,,,,,,,,,,,,,,200254,21,2022-01-28_17h59.16.601,lexical_decision_task_DD_L6,2021.2.3,Win32,59.96282305,,,,,,,,,,,,0.6279,1,,,,,,,,,,,,,,,,,,,,,,,,0.887963102,0.199999996,0,0,0,,,,,,,URINE,C,z,y,./images/URINE.png,,,,,,,z,1,0.6279,,,,,,,,0,13,13,154,1
,,,,,,,,,,,,,,,,,200254,21,2022-01-28_17h59.16.601,lexical_decision_task_DD_L6,2021.2.3,Win32,59.96282305,,,,,,,,,,,,0.5903,1,,,,,,,,,,,,,,,,,,,,,,,,0.887963102,0.199999996,0,0,0,,,,,,,TRIPOD,LB,z,y,./images/TRIPODLB.png,,,,,,,z,1,0.5903,,,,,,,,0,14,14,138,1
,,,,,,,,,,,,,,,,,200254,21,2022-01-28_17h59.16.601,lexical_decision_task_DD_L6,2021.2.3,Win32,59.96282305,,,,,,,,,,,,0.5733,1,,,,,,,,,,,,,,,,,,,,,,,,0.887963102,0.199999996,0,0,0,,,,,,,SPINE,HB,m,y,./images/SPINEHB.png,,,,,,,m,1,0.5733,,,,,,,,0,15,15,65,1
,,,,,,,,,,,,,,,,,200254,21,2022-01-28_17h59.16.601,lexical_decision_task_DD_L6,2021.2.3,Win32,59.96282305,,,,,,,,,,,,0.5603,1,,,,,,,,,,,,,,,,,,,,,,,,0.887963102,0.199999996,0,0,0,,,,,,,BUBBLE,HB,m,y,./images/BUBBLEHB.png,,,,,,,m,1,0.5603,,,,,,,,0,16,16,71,1
,,,,,,,,,,,,,,,,,200254,21,2022-01-28_17h59.16.601,lexical_decision_task_DD_L6,2021.2.3,Win32,59.96282305,,,,,,,,,,,,0.5475,1,,,,,,,,,,,,,,,,,,,,,,,,0.887963102,0.199999996,0,0,0,,,,,,,LITTER,LB,z,y,./images/LITTERLB.png,,,,,,,z,1,0.5475,,,,,,,,0,17,17,162,1
,,,,,,,,,,,,,,,,,200254,21,2022-01-28_17h59.16.601,lexical_decision_task_DD_L6,2021.2.3,Win32,59.96282305,,,,,,,,,,,,1.7496,1,,,,,,,,,,,,,,,,,,,,,,,,0.887963102,0.199999996,0,0,0,,,,,,,PENCE,C,z,y,./images/PENCE.png,,,,,,,z,1,1.7496,,,,,,,,0,18,18,100,1
,,,,,,,,,,,,,,,,,200254,21,2022-01-28_17h59.16.601,lexical_decision_task_DD_L6,2021.2.3,Win32,59.96282305,,,,,,,,,,,,0.5426,0,,,,,,,,,,,,,,,,,,,,,,,,0.887963102,0.199999996,0,0,0,,,,,,,CANDLE,C,z,y,./images/CANDLE.png,,,,,,,m,0,0.5426,,,,,,,,0,19,19,145,1
,,,,,,,,,,,,,,,,,200254,21,2022-01-28_17h59.16.601,lexical_decision_task_DD_L6,2021.2.3,Win32,59.96282305,,,,,,,,,,,,0.6269,1,,,,,,,,,,,,,,,,,,,,,,,,0.887963102,0.199999996,0,0,0,,,,,,,DRILL,LB,m,y,./images/DRILLLB.png,,,,,,,m,1,0.6269,,,,,,,,0,20,20,81,1
,,,,,,,,,,,,,,,,,200254,21,2022-01-28_17h59.16.601,lexical_decision_task_DD_L6,2021.2.3,Win32,59.96282305,,,,,,,,,,,,0.6227,1,,,,,,,,,,,,,,,,,,,,,,,,0.887963102,0.199999996,0,0,0,,,,,,,ARROW,LB,m,y,./images/ARROWLB.png,,,,,,,m,1,0.6227,,,,,,,,0,21,21,69,1
,,,,,,,,,,,,,,,,,200254,21,2022-01-28_17h59.16.601,lexical_decision_task_DD_L6,2021.2.3,Win32,59.96282305,,,,,,,,,,,,0.6553,1,,,,,,,,,,,,,,,,,,,,,,,,0.887963102,0.199999996,0,0,0,,,,,,,QUILL,C,z,y,./images/QUILL.png,,,,,,,z,1,0.6553,,,,,,,,0,22,22,115,1
,,,,,,,,,,,,,,,,,200254,21,2022-01-28_17h59.16.601,lexical_decision_task_DD_L6,2021.2.3,Win32,59.96282305,,,,,,,,,,,,0.6228,1,,,,,,,,,,,,,,,,,,,,,,,,0.887963102,0.199999996,0,0,0,,,,,,,CRATER,LB,m,y,./images/CRATERLB.png,,,,,,,m,1,0.6228,,,,,,,,0,23,23,3,1
,,,,,,,,,,,,,,,,,200254,21,2022-01-28_17h59.16.601,lexical_decision_task_DD_L6,2021.2.3,Win32,59.96282305,,,,,,,,,,,,1.0157,1,,,,,,,,,,,,,,,,,,,,,,,,0.887963102,0.199999996,0,0,0,,,,,,,BRUSH,HB,m,y,./images/BRUSHHB.png,,,,,,,m,1,1.0157,,,,,,,,0,24,24,59,1
,,,,,,,,,,,,,,,,,200254,21,2022-01-28_17h59.16.601,lexical_decision_task_DD_L6,2021.2.3,Win32,59.96282305,,,,,,,,,,,,0.6495,1,,,,,,,,,,,,,,,,,,,,,,,,0.887963102,0.199999996,0,0,0,,,,,,,MIDGET,C,m,y,./images/MIDGET.png,,,,,,,m,1,0.6495,,,,,,,,0,25,25,76,1
,,,,,,,,,,,,,,,,,200254,21,2022-01-28_17h59.16.601,lexical_decision_task_DD_L6,2021.2.3,Win32,59.96282305,,,,,,,,,,,,0.537,1,,,,,,,,,,,,,,,,,,,,,,,,0.887963102,0.199999996,0,0,0,,,,,,,BUTTER,LB,m,y,./images/BUTTERLB.png,,,,,,,m,1,0.537,,,,,,,,0,26,26,27,1
,,,,,,,,,,,,,,,,,200254,21,2022-01-28_17h59.16.601,lexical_decision_task_DD_L6,2021.2.3,Win32,59.96282305,,,,,,,,,,,,0.5731,1,,,,,,,,,,,,,,,,,,,,,,,,0.887963102,0.199999996,0,0,0,,,,,,,RAZOR,C,m,y,./images/RAZOR.png,,,,,,,m,1,0.5731,,,,,,,,0,27,27,34,1
,,,,,,,,,,,,,,,,,200254,21,2022-01-28_17h59.16.601,lexical_decision_task_DD_L6,2021.2.3,Win32,59.96282305,,,,,,,,,,,,0.8217,1,,,,,,,,,,,,,,,,,,,,,,,,0.887963102,0.199999996,0,0,0,,,,,,,BELLY,C,z,y,./images/BELLY.png,,,,,,,z,1,0.8217,,,,,,,,0,28,28,94,1
,,,,,,,,,,,,,,,,,200254,21,2022-01-28_17h59.16.601,lexical_decision_task_DD_L6,2021.2.3,Win32,59.96282305,,,,,,,,,,,,0.7414,1,,,,,,,,,,,,,,,,,,,,,,,,0.887963102,0.199999996,0,0,0,,,,,,,HOCKEY,HB,m,y,./images/HOCKEYHB.png,,,,,,,m,1,0.7414,,,,,,,,0,29,29,32,1
,,,,,,,,,,,,,,,,,200254,21,2022-01-28_17h59.16.601,lexical_decision_task_DD_L6,2021.2.3,Win32,59.96282305,,,,,,,,,,,,0.7713,1,,,,,,,,,,,,,,,,,,,,,,,,0.887963102,0.199999996,0,0,0,,,,,,,FOLDER,LB,z,y,./images/FOLDERLB.png,,,,,,,z,1,0.7713,,,,,,,,0,30,30,126,1
,,,,,,,,,,,,,,,,,200254,21,2022-01-28_17h59.16.601,lexical_decision_task_DD_L6,2021.2.3,Win32,59.96282305,,,,,,,,,,,,0.6058,1,,,,,,,,,,,,,,,,,,,,,,,,0.887963102,0.199999996,0,0,0,,,,,,,BISHOP,C,m,y,./images/BISHOP.png,,,,,,,m,1,0.6058,,,,,,,,0,31,31,49,1
,,,,,,,,,,,,,,,,,200254,21,2022-01-28_17h59.16.601,lexical_decision_task_DD_L6,2021.2.3,Win32,59.96282305,,,,,,,,,,,,0.7728,0,,,,,,,,,,,,,,,,,,,,,,,,0.887963102,0.199999996,0,0,0,,,,,,,CRADLE,HB,z,y,./images/CRADLEHB.png,,,,,,,m,0,0.7728,,,,,,,,0,32,32,104,1
,,,,,,,,,,,,,,,,,200254,21,2022-01-28_17h59.16.601,lexical_decision_task_DD_L6,2021.2.3,Win32,59.96282305,,,,,,,,,,,,0.6495,1,,,,,,,,,,,,,,,,,,,,,,,,0.887963102,0.199999996,0,0,0,,,,,,,KITTEN,LB,z,y,./images/KITTENLB.png,,,,,,,z,1,0.6495,,,,,,,,0,33,33,129,1
,,,,,,,,,,,,,,,,,200254,21,2022-01-28_17h59.16.601,lexical_decision_task_DD_L6,2021.2.3,Win32,59.96282305,,,,,,,,,,,,0.5791,1,,,,,,,,,,,,,,,,,,,,,,,,0.887963102,0.199999996,0,0,0,,,,,,,WHISKY,HB,m,y,./images/WHISKYHB.png,,,,,,,m,1,0.5791,,,,,,,,0,34,34,83,1
,,,,,,,,,,,,,,,,,200254,21,2022-01-28_17h59.16.601,lexical_decision_task_DD_L6,2021.2.3,Win32,59.96282305,,,,,,,,,,,,0.6059,1,,,,,,,,,,,,,,,,,,,,,,,,0.887963102,0.199999996,0,0,0,,,,,,,LLAMA,HB,m,y,./images/LLAMAHB.png,,,,,,,m,1,0.6059,,,,,,,,0,35,35,35,1
,,,,,,,,,,,,,,,,,200254,21,2022-01-28_17h59.16.601,lexical_decision_task_DD_L6,2021.2.3,Win32,59.96282305,,,,,,,,,,,,1.6048,1,,,,,,,,,,,,,,,,,,,,,,,,0.887963102,0.199999996,0,0,0,,,,,,,BLOKE,LB,m,y,./images/BLOKELB.png,,,,,,,m,1,1.6048,,,,,,,,0,36,36,12,1
,,,,,,,,,,,,,,,,,200254,21,2022-01-28_17h59.16.601,lexical_decision_task_DD_L6,2021.2.3,Win32,59.96282305,,,,,,,,,,,,0.589,1,,,,,,,,,,,,,,,,,,,,,,,,0.887963102,0.199999996,0,0,0,,,,,,,CEMENT,HB,z,y,./images/CEMENTHB.png,,,,,,,z,1,0.589,,,,,,,,0,37,37,158,1
,,,,,,,,,,,,,,,,,200254,21,2022-01-28_17h59.16.601,lexical_decision_task_DD_L6,2021.2.3,Win32,59.96282305,,,,,,,,,,,,0.7373,1,,,,,,,,,,,,,,,,,,,,,,,,0.887963102,0.199999996,0,0,0,,,,,,,SAILOR,C,z,y,./images/SAILOR.png,,,,,,,z,1,0.7373,,,,,,,,0,38,38,151,1
,,,,,,,,,,,,,,,,,200254,21,2022-01-28_17h59.16.601,lexical_decision_task_DD_L6,2021.2.3,Win32,59.96282305,,,,,,,,,,,,0.7895,1,,,,,,,,,,,,,,,,,,,,,,,,0.887963102,0.199999996,0,0,0,,,,,,,FARMER,HB,z,y,./images/FARMERHB.png,,,,,,,z,1,0.7895,,,,,,,,0,39,39,149,1
,,,,,,,,,,,,,,,,,200254,21,2022-01-28_17h59.16.601,lexical_decision_task_DD_L6,2021.2.3,Win32,59.96282305,,,,,,,,,,,,0.6033,1,,,,,,,,,,,,,,,,,,,,,,,,0.887963102,0.199999996,0,0,0,,,,,,,PARCEL,LB,m,y,./images/PARCELLB.png,,,,,,,m,1,0.6033,,,,,,,,0,40,40,18,1
,,,,,,,,,,,,,,,,,200254,21,2022-01-28_17h59.16.601,lexical_decision_task_DD_L6,2021.2.3,Win32,59.96282305,,,,,,,,,,,,0.6045,1,,,,,,,,,,,,,,,,,,,,,,,,0.887963102,0.199999996,0,0,0,space,,,,,,ALLEY,C,m,y,./images/ALLEY.png,1.3041,,,,,,m,1,0.6045,,,,,,,,0,41,41,55,1
,,,,,,,,,,,,,,,,,200254,21,2022-01-28_17h59.16.601,lexical_decision_task_DD_L6,2021.2.3,Win32,59.96282305,,,,,,,,,,,,0.6579,1,,,,,,,,,,,,,,,,,,,,,,,,0.887963102,0.199999996,0,0,0,,,,,,,JUMPER,HB,m,y,./images/JUMPERHB.png,,,,,,,m,1,0.6579,,,,,,,,0,42,42,74,1
,,,,,,,,,,,,,,,,,200254,21,2022-01-28_17h59.16.601,lexical_decision_task_DD_L6,2021.2.3,Win32,59.96282305,,,,,,,,,,,,0.5513,1,,,,,,,,,,,,,,,,,,,,,,,,0.887963102,0.199999996,0,0,0,,,,,,,CANDY,LB,m,y,./images/CANDYLB.png,,,,,,,m,1,0.5513,,,,,,,,0,43,43,39,1
,,,,,,,,,,,,,,,,,200254,21,2022-01-28_17h59.16.601,lexical_decision_task_DD_L6,2021.2.3,Win32,59.96282305,,,,,,,,,,,,1.322,1,,,,,,,,,,,,,,,,,,,,,,,,0.887963102,0.199999996,0,0,0,,,,,,,FERRY,LB,m,y,./images/FERRYLB.png,,,,,,,m,1,1.322,,,,,,,,0,44,44,57,1
,,,,,,,,,,,,,,,,,200254,21,2022-01-28_17h59.16.601,lexical_decision_task_DD_L6,2021.2.3,Win32,59.96282305,,,,,,,,,,,,0.8549,1,,,,,,,,,,,,,,,,,,,,,,,,0.887963102,0.199999996,0,0,0,,,,,,,POODLE,LB,z,y,./images/POODLELB.png,,,,,,,z,1,0.8549,,,,,,,,0,45,45,165,1
,,,,,,,,,,,,,,,,,200254,21,2022-01-28_17h59.16.601,lexical_decision_task_DD_L6,2021.2.3,Win32,59.96282305,,,,,,,,,,,,0.7143,1,,,,,,,,,,,,,,,,,,,,,,,,0.887963102,0.199999996,0,0,0,,,,,,,ONION,LB,z,y,./images/ONIONLB.png,,,,,,,z,1,0.7143,,,,,,,,0,46,46,135,1
,,,,,,,,,,,,,,,,,200254,21,2022-01-28_17h59.16.601,lexical_decision_task_DD_L6,2021.2.3,Win32,59.96282305,,,,,,,,,,,,0.6393,1,,,,,,,,,,,,,,,,,,,,,,,,0.887963102,0.199999996,0,0,0,,,,,,,DIVER,LB,m,y,./images/DIVERLB.png,,,,,,,m,1,0.6393,,,,,,,,0,47,47,9,1
,,,,,,,,,,,,,,,,,200254,21,2022-01-28_17h59.16.601,lexical_decision_task_DD_L6,2021.2.3,Win32,59.96282305,,,,,,,,,,,,0.5445,1,,,,,,,,,,,,,,,,,,,,,,,,0.887963102,0.199999996,0,0,0,,,,,,,CURRY,LB,m,y,./images/CURRYLB.png,,,,,,,m,1,0.5445,,,,,,,,0,48,48,60,1
,,,,,,,,,,,,,,,,,200254,21,2022-01-28_17h59.16.601,lexical_decision_task_DD_L6,2021.2.3,Win32,59.96282305,,,,,,,,,,,,0.5261,0,,,,,,,,,,,,,,,,,,,,,,,,0.887963102,0.199999996,0,0,0,,,,,,,MIRROR,LB,z,y,./images/MIRRORLB.png,,,,,,,m,0,0.5261,,,,,,,,0,49,49,147,1
,,,,,,,,,,,,,,,,,200254,21,2022-01-28_17h59.16.601,lexical_decision_task_DD_L6,2021.2.3,Win32,59.96282305,,,,,,,,,,,,0.7064,1,,,,,,,,,,,,,,,,,,,,,,,,0.887963102,0.199999996,0,0,0,,,,,,,RHINO,LB,z,y,./images/RHINOLB.png,,,,,,,z,1,0.7064,,,,,,,,0,50,50,93,1
,,,,,,,,,,,,,,,,,200254,21,2022-01-28_17h59.16.601,lexical_decision_task_DD_L6,2021.2.3,Win32,59.96282305,,,,,,,,,,,,0.6564,0,,,,,,,,,,,,,,,,,,,,,,,,0.887963102,0.199999996,0,0,0,,,,,,,STORM,LB,z,y,./images/STORMLB.png,,,,,,,m,0,0.6564,,,,,,,,0,51,51,114,1
,,,,,,,,,,,,,,,,,200254,21,2022-01-28_17h59.16.601,lexical_decision_task_DD_L6,2021.2.3,Win32,59.96282305,,,,,,,,,,,,0.6298,1,,,,,,,,,,,,,,,,,,,,,,,,0.887963102,0.199999996,0,0,0,,,,,,,CHALK,C,m,y,./images/CHALK.png,,,,,,,m,1,0.6298,,,,,,,,0,52,52,25,1
,,,,,,,,,,,,,,,,,200254,21,2022-01-28_17h59.16.601,lexical_decision_task_DD_L6,2021.2.3,Win32,59.96282305,,,,,,,,,,,,0.6058,1,,,,,,,,,,,,,,,,,,,,,,,,0.887963102,0.199999996,0,0,0,,,,,,,STAIN,LB,m,y,./images/STAINLB.png,,,,,,,m,1,0.6058,,,,,,,,0,53,53,6,1
,,,,,,,,,,,,,,,,,200254,21,2022-01-28_17h59.16.601,lexical_decision_task_DD_L6,2021.2.3,Win32,59.96282305,,,,,,,,,,,,0.6409,1,,,,,,,,,,,,,,,,,,,,,,,,0.887963102,0.199999996,0,0,0,,,,,,,FALCON,C,z,y,./images/FALCON.png,,,,,,,z,1,0.6409,,,,,,,,0,54,54,112,1
,,,,,,,,,,,,,,,,,200254,21,2022-01-28_17h59.16.601,lexical_decision_task_DD_L6,2021.2.3,Win32,59.96282305,,,,,,,,,,,,0.6097,1,,,,,,,,,,,,,,,,,,,,,,,,0.887963102,0.199999996,0,0,0,,,,,,,PEBBLE,C,m,y,./images/PEBBLE.png,,,,,,,m,1,0.6097,,,,,,,,0,55,55,82,1
,,,,,,,,,,,,,,,,,200254,21,2022-01-28_17h59.16.601,lexical_decision_task_DD_L6,2021.2.3,Win32,59.96282305,,,,,,,,,,,,0.7743,1,,,,,,,,,,,,,,,,,,,,,,,,0.887963102,0.199999996,0,0,0,,,,,,,PLANK,C,z,y,./images/PLANK.png,,,,,,,z,1,0.7743,,,,,,,,0,56,56,85,1
,,,,,,,,,,,,,,,,,200254,21,2022-01-28_17h59.16.601,lexical_decision_task_DD_L6,2021.2.3,Win32,59.96282305,,,,,,,,,,,,0.6048,1,,,,,,,,,,,,,,,,,,,,,,,,0.887963102,0.199999996,0,0,0,,,,,,,PARADE,HB,m,y,./images/PARADEHB.png,,,,,,,m,1,0.6048,,,,,,,,0,57,57,17,1
,,,,,,,,,,,,,,,,,200254,21,2022-01-28_17h59.16.601,lexical_decision_task_DD_L6,2021.2.3,Win32,59.96282305,,,,,,,,,,,,0.7265,1,,,,,,,,,,,,,,,,,,,,,,,,0.887963102,0.199999996,0,0,0,,,,,,,COUCH,HB,z,y,./images/COUCHHB.png,,,,,,,z,1,0.7265,,,,,,,,0,58,58,161,1
,,,,,,,,,,,,,,,,,200254,21,2022-01-28_17h59.16.601,lexical_decision_task_DD_L6,2021.2.3,Win32,59.96282305,,,,,,,,,,,,0.646,1,,,,,,,,,,,,,,,,,,,,,,,,0.887963102,0.199999996,0,0,0,,,,,,,TULIP,HB,z,y,./images/TULIPHB.png,,,,,,,z,1,0.646,,,,,,,,0,59,59,92,1
,,,,,,,,,,,,,,,,,200254,21,2022-01-28_17h59.16.601,lexical_decision_task_DD_L6,2021.2.3,Win32,59.96282305,,,,,,,,,,,,0.7104,1,,,,,,,,,,,,,,,,,,,,,,,,0.887963102,0.199999996,0,0,0,,,,,,,MALLET,HB,z,y,./images/MALLETHB.png,,,,,,,z,1,0.7104,,,,,,,,0,60,60,134,1
,,,,,,,,,,,,,,,,,200254,21,2022-01-28_17h59.16.601,lexical_decision_task_DD_L6,2021.2.3,Win32,59.96282305,,,,,,,,,,,,0.6889,1,,,,,,,,,,,,,,,,,,,,,,,,0.887963102,0.199999996,0,0,0,,,,,,,STATUE,LB,m,y,./images/STATUELB.png,,,,,,,m,1,0.6889,,,,,,,,0,61,61,66,1
,,,,,,,,,,,,,,,,,200254,21,2022-01-28_17h59.16.601,lexical_decision_task_DD_L6,2021.2.3,Win32,59.96282305,,,,,,,,,,,,0.5733,1,,,,,,,,,,,,,,,,,,,,,,,,0.887963102,0.199999996,0,0,0,,,,,,,PLANET,HB,m,y,./images/PLANETHB.png,,,,,,,m,1,0.5733,,,,,,,,0,62,62,80,1
,,,,,,,,,,,,,,,,,200254,21,2022-01-28_17h59.16.601,lexical_decision_task_DD_L6,2021.2.3,Win32,59.96282305,,,,,,,,,,,,0.5708,0,,,,,,,,,,,,,,,,,,,,,,,,0.887963102,0.199999996,0,0,0,,,,,,,WEASEL,HB,z,y,./images/WEASELHB.png,,,,,,,m,0,0.5708,,,,,,,,0,63,63,164,1
,,,,,,,,,,,,,,,,,200254,21,2022-01-28_17h59.16.601,lexical_decision_task_DD_L6,2021.2.3,Win32,59.96282305,,,,,,,,,,,,0.8481,1,,,,,,,,,,,,,,,,,,,,,,,,0.887963102,0.199999996,0,0,0,,,,,,,BARREL,HB,z,y,./images/BARRELHB.png,,,,,,,z,1,0.8481,,,,,,,,0,64,64,116,1
,,,,,,,,,,,,,,,,,200254,21,2022-01-28_17h59.16.601,lexical_decision_task_DD_L6,2021.2.3,Win32,59.96282305,,,,,,,,,,,,0.5984,1,,,,,,,,,,,,,,,,,,,,,,,,0.887963102,0.199999996,0,0,0,,,,,,,SNAKE,C,m,y,./images/SNAKE.png,,,,,,,m,1,0.5984,,,,,,,,0,65,65,40,1
,,,,,,,,,,,,,,,,,200254,21,2022-01-28_17h59.16.601,lexical_decision_task_DD_L6,2021.2.3,Win32,59.96282305,,,,,,,,,,,,0.6332,1,,,,,,,,,,,,,,,,,,,,,,,,0.887963102,0.199999996,0,0,0,,,,,,,CHAIN,LB,m,y,./images/CHAINLB.png,,,,,,,m,1,0.6332,,,,,,,,0,66,66,42,1
,,,,,,,,,,,,,,,,,200254,21,2022-01-28_17h59.16.601,lexical_decision_task_DD_L6,2021.2.3,Win32,59.96282305,,,,,,,,,,,,0.6553,1,,,,,,,,,,,,,,,,,,,,,,,,0.887963102,0.199999996,0,0,0,,,,,,,JAGUAR,LB,z,y,./images/JAGUARLB.png,,,,,,,z,1,0.6553,,,,,,,,0,67,67,102,1
,,,,,,,,,,,,,,,,,200254,21,2022-01-28_17h59.16.601,lexical_decision_task_DD_L6,2021.2.3,Win32,59.96282305,,,,,,,,,,,,0.6397,1,,,,,,,,,,,,,,,,,,,,,,,,0.887963102,0.199999996,0,0,0,,,,,,,SHIELD,LB,m,y,./images/SHIELDLB.png,,,,,,,m,1,0.6397,,,,,,,,0,68,68,48,1
,,,,,,,,,,,,,,,,,200254,21,2022-01-28_17h59.16.601,lexical_decision_task_DD_L6,2021.2.3,Win32,59.96282305,,,,,,,,,,,,0.6389,1,,,,,,,,,,,,,,,,,,,,,,,,0.887963102,0.199999996,0,0,0,,,,,,,ENGINE,HB,m,y,./images/ENGINEHB.png,,,,,,,m,1,0.6389,,,,,,,,0,69,69,38,1
,,,,,,,,,,,,,,,,,200254,21,2022-01-28_17h59.16.601,lexical_decision_task_DD_L6,2021.2.3,Win32,59.96282305,,,,,,,,,,,,0.6729,1,,,,,,,,,,,,,,,,,,,,,,,,0.887963102,0.199999996,0,0,0,,,,,,,BRIDE,C,m,y,./images/BRIDE.png,,,,,,,m,1,0.6729,,,,,,,,0,70,70,64,1
,,,,,,,,,,,,,,,,,200254,21,2022-01-28_17h59.16.601,lexical_decision_task_DD_L6,2021.2.3,Win32,59.96282305,,,,,,,,,,,,0.5647,0,,,,,,,,,,,,,,,,,,,,,,,,0.887963102,0.199999996,0,0,0,,,,,,,COOKER,LB,z,y,./images/COOKERLB.png,,,,,,,m,0,0.5647,,,,,,,,0,71,71,153,1
,,,,,,,,,,,,,,,,,200254,21,2022-01-28_17h59.16.601,lexical_decision_task_DD_L6,2021.2.3,Win32,59.96282305,,,,,,,,,,,,0.722,1,,,,,,,,,,,,,,,,,,,,,,,,0.887963102,0.199999996,0,0,0,,,,,,,SKIING,HB,z,y,./images/SKIINGHB.png,,,,,,,z,1,0.722,,,,,,,,0,72,72,101,1
,,,,,,,,,,,,,,,,,200254,21,2022-01-28_17h59.16.601,lexical_decision_task_DD_L6,2021.2.3,Win32,59.96282305,,,,,,,,,,,,0.6301,1,,,,,,,,,,,,,,,,,,,,,,,,0.887963102,0.199999996,0,0,0,,,,,,,BURIAL,HB,z,y,./images/BURIALHB.png,,,,,,,z,1,0.6301,,,,,,,,0,73,73,143,1
,,,,,,,,,,,,,,,,,200254,21,2022-01-28_17h59.16.601,lexical_decision_task_DD_L6,2021.2.3,Win32,59.96282305,,,,,,,,,,,,0.8049,0,,,,,,,,,,,,,,,,,,,,,,,,0.887963102,0.199999996,0,0,0,,,,,,,TORCH,HB,z,y,./images/TORCHHB.png,,,,,,,m,0,0.8049,,,,,,,,0,74,74,152,1
,,,,,,,,,,,,,,,,,200254,21,2022-01-28_17h59.16.601,lexical_decision_task_DD_L6,2021.2.3,Win32,59.96282305,,,,,,,,,,,,0.6698,1,,,,,,,,,,,,,,,,,,,,,,,,0.887963102,0.199999996,0,0,0,,,,,,,LAGOON,HB,m,y,./images/LAGOONHB.png,,,,,,,m,1,0.6698,,,,,,,,0,75,75,47,1
,,,,,,,,,,,,,,,,,200254,21,2022-01-28_17h59.16.601,lexical_decision_task_DD_L6,2021.2.3,Win32,59.96282305,,,,,,,,,,,,0.622,1,,,,,,,,,,,,,,,,,,,,,,,,0.887963102,0.199999996,0,0,0,,,,,,,TWINS,LB,z,y,./images/TWINSLB.png,,,,,,,z,1,0.622,,,,,,,,0,76,76,144,1
,,,,,,,,,,,,,,,,,200254,21,2022-01-28_17h59.16.601,lexical_decision_task_DD_L6,2021.2.3,Win32,59.96282305,,,,,,,,,,,,0.6499,1,,,,,,,,,,,,,,,,,,,,,,,,0.887963102,0.199999996,0,0,0,,,,,,,MEDAL,HB,m,y,./images/MEDALHB.png,,,,,,,m,1,0.6499,,,,,,,,0,77,77,11,1
,,,,,,,,,,,,,,,,,200254,21,2022-01-28_17h59.16.601,lexical_decision_task_DD_L6,2021.2.3,Win32,59.96282305,,,,,,,,,,,,0.6132,1,,,,,,,,,,,,,,,,,,,,,,,,0.887963102,0.199999996,0,0,0,,,,,,,MUMMY,C,m,y,./images/MUMMY.png,,,,,,,m,1,0.6132,,,,,,,,0,78,78,46,1
,,,,,,,,,,,,,,,,,200254,21,2022-01-28_17h59.16.601,lexical_decision_task_DD_L6,2021.2.3,Win32,59.96282305,,,,,,,,,,,,0.9137,1,,,,,,,,,,,,,,,,,,,,,,,,0.887963102,0.199999996,0,0,0,,,,,,,BROOM,LB,m,y,./images/BROOMLB.png,,,,,,,m,1,0.9137,,,,,,,,0,79,79,78,1
,,,,,,,,,,,,,,,,,200254,21,2022-01-28_17h59.16.601,lexical_decision_task_DD_L6,2021.2.3,Win32,59.96282305,,,,,,,,,,,,0.5324,0,,,,,,,,,,,,,,,,,,,,,,,,0.887963102,0.199999996,0,0,0,,,,,,,SMOKER,HB,z,y,./images/SMOKERHB.png,,,,,,,m,0,0.5324,,,,,,,,0,80,80,110,1
,,,,,,,,,,,,,,,,,200254,21,2022-01-28_17h59.16.601,lexical_decision_task_DD_L6,2021.2.3,Win32,59.96282305,,,,,,,,,,,,0.8255,1,,,,,,,,,,,,,,,,,,,,,,,,0.887963102,0.199999996,0,0,0,,,,,,,FLASK,LB,m,y,./images/FLASKLB.png,,,,,,,m,1,0.8255,,,,,,,,0,81,81,72,1
,,,,,,,,,,,,,,,,,200254,21,2022-01-28_17h59.16.601,lexical_decision_task_DD_L6,2021.2.3,Win32,59.96282305,,,,,,,,,,,,0.9228,0,,,,,,,,,,,,,,,,,,,,,,,,0.887963102,0.199999996,0,0,0,,,,,,,PAINT,C,z,y,./images/PAINT.png,,,,,,,m,0,0.9228,,,,,,,,0,82,82,91,1
,,,,,,,,,,,,,,,,,200254,21,2022-01-28_17h59.16.601,lexical_decision_task_DD_L6,2021.2.3,Win32,59.96282305,,,,,,,,,,,,0.5869,1,,,,,,,,,,,,,,,,,,,,,,,,0.887963102,0.199999996,0,0,0,space,,,,,,HAMMER,LB,m,y,./images/HAMMERLB.png,1.1039,,,,,,m,1,0.5869,,,,,,,,0,83,83,75,1
,,,,,,,,,,,,,,,,,200254,21,2022-01-28_17h59.16.601,lexical_decision_task_DD_L6,2021.2.3,Win32,59.96282305,,,,,,,,,,,,0.6539,1,,,,,,,,,,,,,,,,,,,,,,,,0.887963102,0.199999996,0,0,0,,,,,,,JUNGLE,HB,z,y,./images/JUNGLEHB.png,,,,,,,z,1,0.6539,,,,,,,,0,84,84,167,1
,,,,,,,,,,,,,,,,,200254,21,2022-01-28_17h59.16.601,lexical_decision_task_DD_L6,2021.2.3,Win32,59.96282305,,,,,,,,,,,,0.5888,1,,,,,,,,,,,,,,,,,,,,,,,,0.887963102,0.199999996,0,0,0,,,,,,,GRAPE,C,m,y,./images/GRAPE.png,,,,,,,m,1,0.5888,,,,,,,,0,85,85,16,1
,,,,,,,,,,,,,,,,,200254,21,2022-01-28_17h59.16.601,lexical_decision_task_DD_L6,2021.2.3,Win32,59.96282305,,,,,,,,,,,,0.6373,1,,,,,,,,,,,,,,,,,,,,,,,,0.887963102,0.199999996,0,0,0,,,,,,,STREAM,HB,m,y,./images/STREAMHB.png,,,,,,,m,1,0.6373,,,,,,,,0,86,86,41,1
,,,,,,,,,,,,,,,,,200254,21,2022-01-28_17h59.16.601,lexical_decision_task_DD_L6,2021.2.3,Win32,59.96282305,,,,,,,,,,,,0.6392,1,,,,,,,,,,,,,,,,,,,,,,,,0.887963102,0.199999996,0,0,0,,,,,,,SAUNA,LB,m,y,./images/SAUNALB.png,,,,,,,m,1,0.6392,,,,,,,,0,87,87,33,1
,,,,,,,,,,,,,,,,,200254,21,2022-01-28_17h59.16.601,lexical_decision_task_DD_L6,2021.2.3,Win32,59.96282305,,,,,,,,,,,,0.7083,1,,,,,,,,,,,,,,,,,,,,,,,,0.887963102,0.199999996,0,0,0,,,,,,,MAGGOT,LB,z,y,./images/MAGGOTLB.png,,,,,,,z,1,0.7083,,,,,,,,0,88,88,117,1
,,,,,,,,,,,,,,,,,200254,21,2022-01-28_17h59.16.601,lexical_decision_task_DD_L6,2021.2.3,Win32,59.96282305,,,,,,,,,,,,0.7465,1,,,,,,,,,,,,,,,,,,,,,,,,0.887963102,0.199999996,0,0,0,,,,,,,MUSCLE,C,z,y,./images/MUSCLE.png,,,,,,,z,1,0.7465,,,,,,,,0,89,89,88,1
,,,,,,,,,,,,,,,,,200254,21,2022-01-28_17h59.16.601,lexical_decision_task_DD_L6,2021.2.3,Win32,59.96282305,,,,,,,,,,,,0.5721,1,,,,,,,,,,,,,,,,,,,,,,,,0.887963102,0.199999996,0,0,0,,,,,,,SAUCE,LB,m,y,./images/SAUCELB.png,,,,,,,m,1,0.5721,,,,,,,,0,90,90,51,1
,,,,,,,,,,,,,,,,,200254,21,2022-01-28_17h59.16.601,lexical_decision_task_DD_L6,2021.2.3,Win32,59.96282305,,,,,,,,,,,,0.7065,1,,,,,,,,,,,,,,,,,,,,,,,,0.887963102,0.199999996,0,0,0,,,,,,,SHELF,LB,z,y,./images/SHELFLB.png,,,,,,,z,1,0.7065,,,,,,,,0,91,91,123,1
,,,,,,,,,,,,,,,,,200254,21,2022-01-28_17h59.16.601,lexical_decision_task_DD_L6,2021.2.3,Win32,59.96282305,,,,,,,,,,,,0.5997,1,,,,,,,,,,,,,,,,,,,,,,,,0.887963102,0.199999996,0,0,0,,,,,,,STOOL,C,m,y,./images/STOOL.png,,,,,,,m,1,0.5997,,,,,,,,0,92,92,43,1
,,,,,,,,,,,,,,,,,200254,21,2022-01-28_17h59.16.601,lexical_decision_task_DD_L6,2021.2.3,Win32,59.96282305,,,,,,,,,,,,0.6133,1,,,,,,,,,,,,,,,,,,,,,,,,0.887963102,0.199999996,0,0,0,,,,,,,TIGER,C,m,y,./images/TIGER.png,,,,,,,m,1,0.6133,,,,,,,,0,93,93,37,1
,,,,,,,,,,,,,,,,,200254,21,2022-01-28_17h59.16.601,lexical_decision_task_DD_L6,2021.2.3,Win32,59.96282305,,,,,,,,,,,,0.5674,0,,,,,,,,,,,,,,,,,,,,,,,,0.887963102,0.199999996,0,0,0,,,,,,,SNACK,C,z,y,./images/SNACK.png,,,,,,,m,0,0.5674,,,,,,,,0,94,94,157,1
,,,,,,,,,,,,,,,,,200254,21,2022-01-28_17h59.16.601,lexical_decision_task_DD_L6,2021.2.3,Win32,59.96282305,,,,,,,,,,,,0.7221,1,,,,,,,,,,,,,,,,,,,,,,,,0.887963102,0.199999996,0,0,0,,,,,,,BERRY,HB,z,y,./images/BERRYHB.png,,,,,,,z,1,0.7221,,,,,,,,0,95,95,131,1
,,,,,,,,,,,,,,,,,200254,21,2022-01-28_17h59.16.601,lexical_decision_task_DD_L6,2021.2.3,Win32,59.96282305,,,,,,,,,,,,0.5772,1,,,,,,,,,,,,,,,,,,,,,,,,0.887963102,0.199999996,0,0,0,,,,,,,MAMMAL,HB,m,y,./images/MAMMALHB.png,,,,,,,m,1,0.5772,,,,,,,,0,96,96,62,1
,,,,,,,,,,,,,,,,,200254,21,2022-01-28_17h59.16.601,lexical_decision_task_DD_L6,2021.2.3,Win32,59.96282305,,,,,,,,,,,,0.7054,1,,,,,,,,,,,,,,,,,,,,,,,,0.887963102,0.199999996,0,0,0,,,,,,,LIZARD,HB,z,y,./images/LIZARDHB.png,,,,,,,z,1,0.7054,,,,,,,,0,97,97,128,1
,,,,,,,,,,,,,,,,,200254,21,2022-01-28_17h59.16.601,lexical_decision_task_DD_L6,2021.2.3,Win32,59.96282305,,,,,,,,,,,,0.65,1,,,,,,,,,,,,,,,,,,,,,,,,0.887963102,0.199999996,0,0,0,,,,,,,PIMPLE,HB,z,y,./images/PIMPLEHB.png,,,,,,,z,1,0.65,,,,,,,,0,98,98,155,1
,,,,,,,,,,,,,,,,,200254,21,2022-01-28_17h59.16.601,lexical_decision_task_DD_L6,2021.2.3,Win32,59.96282305,,,,,,,,,,,,1.8934,1,,,,,,,,,,,,,,,,,,,,,,,,0.887963102,0.199999996,0,0,0,,,,,,,KIDNEY,LB,z,y,./images/KIDNEYLB.png,,,,,,,z,1,1.8934,,,,,,,,0,99,99,105,1
,,,,,,,,,,,,,,,,,200254,21,2022-01-28_17h59.16.601,lexical_decision_task_DD_L6,2021.2.3,Win32,59.96282305,,,,,,,,,,,,0.6054,1,,,,,,,,,,,,,,,,,,,,,,,,0.887963102,0.199999996,0,0,0,,,,,,,POSTER,HB,m,y,./images/POSTERHB.png,,,,,,,m,1,0.6054,,,,,,,,0,100,100,53,1
,,,,,,,,,,,,,,,,,200254,21,2022-01-28_17h59.16.601,lexical_decision_task_DD_L6,2021.2.3,Win32,59.96282305,,,,,,,,,,,,0.6391,1,,,,,,,,,,,,,,,,,,,,,,,,0.887963102,0.199999996,0,0,0,,,,,,,BOXER,C,m,y,./images/BOXER.png,,,,,,,m,1,0.6391,,,,,,,,0,101,101,4,1
,,,,,,,,,,,,,,,,,200254,21,2022-01-28_17h59.16.601,lexical_decision_task_DD_L6,2021.2.3,Win32,59.96282305,,,,,,,,,,,,0.5554,1,,,,,,,,,,,,,,,,,,,,,,,,0.887963102,0.199999996,0,0,0,,,,,,,STEAK,C,m,y,./images/STEAK.png,,,,,,,m,1,0.5554,,,,,,,,0,102,102,31,1
,,,,,,,,,,,,,,,,,200254,21,2022-01-28_17h59.16.601,lexical_decision_task_DD_L6,2021.2.3,Win32,59.96282305,,,,,,,,,,,,0.9489,1,,,,,,,,,,,,,,,,,,,,,,,,0.887963102,0.199999996,0,0,0,,,,,,,TOWEL,C,m,y,./images/TOWEL.png,,,,,,,m,1,0.9489,,,,,,,,0,103,103,1,1
,,,,,,,,,,,,,,,,,200254,21,2022-01-28_17h59.16.601,lexical_decision_task_DD_L6,2021.2.3,Win32,59.96282305,,,,,,,,,,,,0.5448,1,,,,,,,,,,,,,,,,,,,,,,,,0.887963102,0.199999996,0,0,0,,,,,,,GARDEN,C,m,y,./images/GARDEN.png,,,,,,,m,1,0.5448,,,,,,,,0,104,104,10,1
,,,,,,,,,,,,,,,,,200254,21,2022-01-28_17h59.16.601,lexical_decision_task_DD_L6,2021.2.3,Win32,59.96282305,,,,,,,,,,,,0.5384,1,,,,,,,,,,,,,,,,,,,,,,,,0.887963102,0.199999996,0,0,0,,,,,,,BAMBOO,HB,m,y,./images/BAMBOOHB.png,,,,,,,m,1,0.5384,,,,,,,,0,105,105,5,1
,,,,,,,,,,,,,,,,,200254,21,2022-01-28_17h59.16.601,lexical_decision_task_DD_L6,2021.2.3,Win32,59.96282305,,,,,,,,,,,,0.7563,1,,,,,,,,,,,,,,,,,,,,,,,,0.887963102,0.199999996,0,0,0,,,,,,,BONNET,HB,z,y,./images/BONNETHB.png,,,,,,,z,1,0.7563,,,,,,,,0,106,106,95,1
,,,,,,,,,,,,,,,,,200254,21,2022-01-28_17h59.16.601,lexical_decision_task_DD_L6,2021.2.3,Win32,59.96282305,,,,,,,,,,,,0.7884,1,,,,,,,,,,,,,,,,,,,,,,,,0.887963102,0.199999996,0,0,0,,,,,,,BOILER,LB,m,y,./images/BOILERLB.png,,,,,,,m,1,0.7884,,,,,,,,0,107,107,36,1
,,,,,,,,,,,,,,,,,200254,21,2022-01-28_17h59.16.601,lexical_decision_task_DD_L6,2021.2.3,Win32,59.96282305,,,,,,,,,,,,1.2974,1,,,,,,,,,,,,,,,,,,,,,,,,0.887963102,0.199999996,0,0,0,,,,,,,STRING,HB,z,y,./images/STRINGHB.png,,,,,,,z,1,1.2974,,,,,,,,0,108,108,125,1
,,,,,,,,,,,,,,,,,200254,21,2022-01-28_17h59.16.601,lexical_decision_task_DD_L6,2021.2.3,Win32,59.96282305,,,,,,,,,,,,0.8212,1,,,,,,,,,,,,,,,,,,,,,,,,0.887963102,0.199999996,0,0,0,,,,,,,SHORE,LB,z,y,./images/SHORELB.png,,,,,,,z,1,0.8212,,,,,,,,0,109,109,96,1
,,,,,,,,,,,,,,,,,200254,21,2022-01-28_17h59.16.601,lexical_decision_task_DD_L6,2021.2.3,Win32,59.96282305,,,,,,,,,,,,2.0772,1,,,,,,,,,,,,,,,,,,,,,,,,0.887963102,0.199999996,0,0,0,,,,,,,CANYON,C,z,y,./images/CANYON.png,,,,,,,z,1,2.0772,,,,,,,,0,110,110,118,1
,,,,,,,,,,,,,,,,,200254,21,2022-01-28_17h59.16.601,lexical_decision_task_DD_L6,2021.2.3,Win32,59.96282305,,,,,,,,,,,,1.3562,1,,,,,,,,,,,,,,,,,,,,,,,,0.887963102,0.199999996,0,0,0,,,,,,,GRAIN,LB,z,y,./images/GRAINLB.png,,,,,,,z,1,1.3562,,,,,,,,0,111,111,159,1
,,,,,,,,,,,,,,,,,200254,21,2022-01-28_17h59.16.601,lexical_decision_task_DD_L6,2021.2.3,Win32,59.96282305,,,,,,,,,,,,0.7477,1,,,,,,,,,,,,,,,,,,,,,,,,0.887963102,0.199999996,0,0,0,,,,,,,SLOPE,LB,m,y,./images/SLOPELB.png,,,,,,,m,1,0.7477,,,,,,,,0,112,112,30,1
,,,,,,,,,,,,,,,,,200254,21,2022-01-28_17h59.16.601,lexical_decision_task_DD_L6,2021.2.3,Win32,59.96282305,,,,,,,,,,,,0.6728,1,,,,,,,,,,,,,,,,,,,,,,,,0.887963102,0.199999996,0,0,0,,,,,,,CRUMB,HB,z,y,./images/CRUMBHB.png,,,,,,,z,1,0.6728,,,,,,,,0,113,113,113,1
,,,,,,,,,,,,,,,,,200254,21,2022-01-28_17h59.16.601,lexical_decision_task_DD_L6,2021.2.3,Win32,59.96282305,,,,,,,,,,,,0.6272,0,,,,,,,,,,,,,,,,,,,,,,,,0.887963102,0.199999996,0,0,0,,,,,,,PEACH,HB,z,y,./images/PEACHHB.png,,,,,,,m,0,0.6272,,,,,,,,0,114,114,119,1
,,,,,,,,,,,,,,,,,200254,21,2022-01-28_17h59.16.601,lexical_decision_task_DD_L6,2021.2.3,Win32,59.96282305,,,,,,,,,,,,0.6926,1,,,,,,,,,,,,,,,,,,,,,,,,0.887963102,0.199999996,0,0,0,,,,,,,PICKLE,HB,z,y,./images/PICKLEHB.png,,,,,,,z,1,0.6926,,,,,,,,0,115,115,98,1
,,,,,,,,,,,,,,,,,200254,21,2022-01-28_17h59.16.601,lexical_decision_task_DD_L6,2021.2.3,Win32,59.96282305,,,,,,,,,,,,0.6344,1,,,,,,,,,,,,,,,,,,,,,,,,0.887963102,0.199999996,0,0,0,,,,,,,CASINO,C,m,y,./images/CASINO.png,,,,,,,m,1,0.6344,,,,,,,,0,116,116,28,1
,,,,,,,,,,,,,,,,,200254,21,2022-01-28_17h59.16.601,lexical_decision_task_DD_L6,2021.2.3,Win32,59.96282305,,,,,,,,,,,,0.6263,1,,,,,,,,,,,,,,,,,,,,,,,,0.887963102,0.199999996,0,0,0,,,,,,,WALNUT,LB,m,y,./images/WALNUTLB.png,,,,,,,m,1,0.6263,,,,,,,,0,117,117,0,1
,,,,,,,,,,,,,,,,,200254,21,2022-01-28_17h59.16.601,lexical_decision_task_DD_L6,2021.2.3,Win32,59.96282305,,,,,,,,,,,,0.7251,1,,,,,,,,,,,,,,,,,,,,,,,,0.887963102,0.199999996,0,0,0,,,,,,,BASKET,HB,m,y,./images/BASKETHB.png,,,,,,,m,1,0.7251,,,,,,,,0,118,118,44,1
,,,,,,,,,,,,,,,,,200254,21,2022-01-28_17h59.16.601,lexical_decision_task_DD_L6,2021.2.3,Win32,59.96282305,,,,,,,,,,,,0.7892,0,,,,,,,,,,,,,,,,,,,,,,,,0.887963102,0.199999996,0,0,0,,,,,,,BABOON,C,z,y,./images/BABOON.png,,,,,,,m,0,0.7892,,,,,,,,0,119,119,142,1
,,,,,,,,,,,,,,,,,200254,21,2022-01-28_17h59.16.601,lexical_decision_task_DD_L6,2021.2.3,Win32,59.96282305,,,,,,,,,,,,0.5828,1,,,,,,,,,,,,,,,,,,,,,,,,0.887963102,0.199999996,0,0,0,,,,,,,BANANA,C,m,y,./images/BANANA.png,,,,,,,m,1,0.5828,,,,,,,,0,120,120,70,1
,,,,,,,,,,,,,,,,,200254,21,2022-01-28_17h59.16.601,lexical_decision_task_DD_L6,2021.2.3,Win32,59.96282305,,,,,,,,,,,,0.5888,1,,,,,,,,,,,,,,,,,,,,,,,,0.887963102,0.199999996,0,0,0,,,,,,,GRANNY,HB,m,y,./images/GRANNYHB.png,,,,,,,m,1,0.5888,,,,,,,,0,121,121,20,1
,,,,,,,,,,,,,,,,,200254,21,2022-01-28_17h59.16.601,lexical_decision_task_DD_L6,2021.2.3,Win32,59.96282305,,,,,,,,,,,,0.5719,1,,,,,,,,,,,,,,,,,,,,,,,,0.887963102,0.199999996,0,0,0,,,,,,,STOVE,HB,m,y,./images/STOVEHB.png,,,,,,,m,1,0.5719,,,,,,,,0,122,122,2,1
,,,,,,,,,,,,,,,,,200254,21,2022-01-28_17h59.16.601,lexical_decision_task_DD_L6,2021.2.3,Win32,59.96282305,,,,,,,,,,,,0.6337,1,,,,,,,,,,,,,,,,,,,,,,,,0.887963102,0.199999996,0,0,0,,,,,,,CRUST,C,z,y,./images/CRUST.png,,,,,,,z,1,0.6337,,,,,,,,0,123,123,163,1
,,,,,,,,,,,,,,,,,200254,21,2022-01-28_17h59.16.601,lexical_decision_task_DD_L6,2021.2.3,Win32,59.96282305,,,,,,,,,,,,0.6789,1,,,,,,,,,,,,,,,,,,,,,,,,0.887963102,0.199999996,0,0,0,,,,,,,PEARL,C,z,y,./images/PEARL.png,,,,,,,z,1,0.6789,,,,,,,,0,124,124,130,1
,,,,,,,,,,,,,,,,,200254,21,2022-01-28_17h59.16.601,lexical_decision_task_DD_L6,2021.2.3,Win32,59.96282305,,,,,,,,,,,,1.3252,1,,,,,,,,,,,,,,,,,,,,,,,,0.887963102,0.199999996,0,0,0,space,,,,,,GLOVE,C,m,y,./images/GLOVE.png,2.1369,,,,,,m,1,1.3252,,,,,,,,0,125,125,73,1
,,,,,,,,,,,,,,,,,200254,21,2022-01-28_17h59.16.601,lexical_decision_task_DD_L6,2021.2.3,Win32,59.96282305,,,,,,,,,,,,0.894,1,,,,,,,,,,,,,,,,,,,,,,,,0.887963102,0.199999996,0,0,0,,,,,,,PACKET,HB,z,y,./images/PACKETHB.png,,,,,,,z,1,0.894,,,,,,,,0,126,126,140,1
,,,,,,,,,,,,,,,,,200254,21,2022-01-28_17h59.16.601,lexical_decision_task_DD_L6,2021.2.3,Win32,59.96282305,,,,,,,,,,,,0.8439,1,,,,,,,,,,,,,,,,,,,,,,,,0.887963102,0.199999996,0,0,0,,,,,,,DOUGH,C,z,y,./images/DOUGH.png,,,,,,,z,1,0.8439,,,,,,,,0,127,127,103,1
,,,,,,,,,,,,,,,,,200254,21,2022-01-28_17h59.16.601,lexical_decision_task_DD_L6,2021.2.3,Win32,59.96282305,,,,,,,,,,,,0.9158,1,,,,,,,,,,,,,,,,,,,,,,,,0.887963102,0.199999996,0,0,0,,,,,,,MOOSE,LB,z,y,./images/MOOSELB.png,,,,,,,z,1,0.9158,,,,,,,,0,128,128,141,1
,,,,,,,,,,,,,,,,,200254,21,2022-01-28_17h59.16.601,lexical_decision_task_DD_L6,2021.2.3,Win32,59.96282305,,,,,,,,,,,,0.7714,1,,,,,,,,,,,,,,,,,,,,,,,,0.887963102,0.199999996,0,0,0,,,,,,,MOTOR,C,z,y,./images/MOTOR.png,,,,,,,z,1,0.7714,,,,,,,,0,129,129,97,1
,,,,,,,,,,,,,,,,,200254,21,2022-01-28_17h59.16.601,lexical_decision_task_DD_L6,2021.2.3,Win32,59.96282305,,,,,,,,,,,,0.6375,1,,,,,,,,,,,,,,,,,,,,,,,,0.887963102,0.199999996,0,0,0,,,,,,,NOOSE,LB,z,y,./images/NOOSELB.png,,,,,,,z,1,0.6375,,,,,,,,0,130,130,156,1
,,,,,,,,,,,,,,,,,200254,21,2022-01-28_17h59.16.601,lexical_decision_task_DD_L6,2021.2.3,Win32,59.96282305,,,,,,,,,,,,0.799,1,,,,,,,,,,,,,,,,,,,,,,,,0.887963102,0.199999996,0,0,0,,,,,,,ATTIC,LB,z,y,./images/ATTICLB.png,,,,,,,z,1,0.799,,,,,,,,0,131,131,111,1
,,,,,,,,,,,,,,,,,200254,21,2022-01-28_17h59.16.601,lexical_decision_task_DD_L6,2021.2.3,Win32,59.96282305,,,,,,,,,,,,1.0744,1,,,,,,,,,,,,,,,,,,,,,,,,0.887963102,0.199999996,0,0,0,,,,,,,MUFFIN,C,z,y,./images/MUFFIN.png,,,,,,,z,1,1.0744,,,,,,,,0,132,132,139,1
,,,,,,,,,,,,,,,,,200254,21,2022-01-28_17h59.16.601,lexical_decision_task_DD_L6,2021.2.3,Win32,59.96282305,,,,,,,,,,,,0.6184,1,,,,,,,,,,,,,,,,,,,,,,,,0.887963102,0.199999996,0,0,0,,,,,,,POKER,C,m,y,./images/POKER.png,,,,,,,m,1,0.6184,,,,,,,,0,133,133,67,1
,,,,,,,,,,,,,,,,,200254,21,2022-01-28_17h59.16.601,lexical_decision_task_DD_L6,2021.2.3,Win32,59.96282305,,,,,,,,,,,,0.6053,1,,,,,,,,,,,,,,,,,,,,,,,,0.887963102,0.199999996,0,0,0,,,,,,,SUNSET,C,z,y,./images/SUNSET.png,,,,,,,z,1,0.6053,,,,,,,,0,134,134,166,1
,,,,,,,,,,,,,,,,,200254,21,2022-01-28_17h59.16.601,lexical_decision_task_DD_L6,2021.2.3,Win32,59.96282305,,,,,,,,,,,,0.6887,1,,,,,,,,,,,,,,,,,,,,,,,,0.887963102,0.199999996,0,0,0,,,,,,,INFANT,C,z,y,./images/INFANT.png,,,,,,,z,1,0.6887,,,,,,,,0,135,135,160,1
,,,,,,,,,,,,,,,,,200254,21,2022-01-28_17h59.16.601,lexical_decision_task_DD_L6,2021.2.3,Win32,59.96282305,,,,,,,,,,,,0.5729,1,,,,,,,,,,,,,,,,,,,,,,,,0.887963102,0.199999996,0,0,0,,,,,,,CHERRY,LB,m,y,./images/CHERRYLB.png,,,,,,,m,1,0.5729,,,,,,,,0,136,136,54,1
,,,,,,,,,,,,,,,,,200254,21,2022-01-28_17h59.16.601,lexical_decision_task_DD_L6,2021.2.3,Win32,59.96282305,,,,,,,,,,,,0.6556,1,,,,,,,,,,,,,,,,,,,,,,,,0.887963102,0.199999996,0,0,0,,,,,,,PASTA,HB,z,y,./images/PASTAHB.png,,,,,,,z,1,0.6556,,,,,,,,0,137,137,89,1
,,,,,,,,,,,,,,,,,200254,21,2022-01-28_17h59.16.601,lexical_decision_task_DD_L6,2021.2.3,Win32,59.96282305,,,,,,,,,,,,0.6251,1,,,,,,,,,,,,,,,,,,,,,,,,0.887963102,0.199999996,0,0,0,,,,,,,CLOTH,HB,m,y,./images/CLOTHHB.png,,,,,,,m,1,0.6251,,,,,,,,0,138,138,23,1
,,,,,,,,,,,,,,,,,200254,21,2022-01-28_17h59.16.601,lexical_decision_task_DD_L6,2021.2.3,Win32,59.96282305,,,,,,,,,,,,0.5944,1,,,,,,,,,,,,,,,,,,,,,,,,0.887963102,0.199999996,0,0,0,,,,,,,BUNNY,C,m,y,./images/BUNNY.png,,,,,,,m,1,0.5944,,,,,,,,0,139,139,13,1
,,,,,,,,,,,,,,,,,200254,21,2022-01-28_17h59.16.601,lexical_decision_task_DD_L6,2021.2.3,Win32,59.96282305,,,,,,,,,,,,0.5563,1,,,,,,,,,,,,,,,,,,,,,,,,0.887963102,0.199999996,0,0,0,,,,,,,PILOT,HB,m,y,./images/PILOTHB.png,,,,,,,m,1,0.5563,,,,,,,,0,140,140,50,1
,,,,,,,,,,,,,,,,,200254,21,2022-01-28_17h59.16.601,lexical_decision_task_DD_L6,2021.2.3,Win32,59.96282305,,,,,,,,,,,,0.6374,1,,,,,,,,,,,,,,,,,,,,,,,,0.887963102,0.199999996,0,0,0,,,,,,,PISTOL,HB,m,y,./images/PISTOLHB.png,,,,,,,m,1,0.6374,,,,,,,,0,141,141,29,1
,,,,,,,,,,,,,,,,,200254,21,2022-01-28_17h59.16.601,lexical_decision_task_DD_L6,2021.2.3,Win32,59.96282305,,,,,,,,,,,,0.6263,1,,,,,,,,,,,,,,,,,,,,,,,,0.887963102,0.199999996,0,0,0,,,,,,,MELON,C,z,y,./images/MELON.png,,,,,,,z,1,0.6263,,,,,,,,0,142,142,106,1
,,,,,,,,,,,,,,,,,200254,21,2022-01-28_17h59.16.601,lexical_decision_task_DD_L6,2021.2.3,Win32,59.96282305,,,,,,,,,,,,1.523,0,,,,,,,,,,,,,,,,,,,,,,,,0.887963102,0.199999996,0,0,0,,,,,,,CLIFF,HB,m,y,./images/CLIFFHB.png,,,,,,,z,0,1.523,,,,,,,,0,143,143,8,1
,,,,,,,,,,,,,,,,,200254,21,2022-01-28_17h59.16.601,lexical_decision_task_DD_L6,2021.2.3,Win32,59.96282305,,,,,,,,,,,,0.8398,1,,,,,,,,,,,,,,,,,,,,,,,,0.887963102,0.199999996,0,0,0,,,,,,,SWING,C,z,y,./images/SWING.png,,,,,,,z,1,0.8398,,,,,,,,0,144,144,124,1
,,,,,,,,,,,,,,,,,200254,21,2022-01-28_17h59.16.601,lexical_decision_task_DD_L6,2021.2.3,Win32,59.96282305,,,,,,,,,,,,1.7327,0,,,,,,,,,,,,,,,,,,,,,,,,0.887963102,0.199999996,0,0,0,,,,,,,SCREW,LB,z,y,./images/SCREWLB.png,,,,,,,m,0,1.7327,,,,,,,,0,145,145,108,1
,,,,,,,,,,,,,,,,,200254,21,2022-01-28_17h59.16.601,lexical_decision_task_DD_L6,2021.2.3,Win32,59.96282305,,,,,,,,,,,,0.7413,1,,,,,,,,,,,,,,,,,,,,,,,,0.887963102,0.199999996,0,0,0,,,,,,,LADDER,HB,z,y,./images/LADDERHB.png,,,,,,,z,1,0.7413,,,,,,,,0,146,146,122,1
,,,,,,,,,,,,,,,,,200254,21,2022-01-28_17h59.16.601,lexical_decision_task_DD_L6,2021.2.3,Win32,59.96282305,,,,,,,,,,,,0.6489,1,,,,,,,,,,,,,,,,,,,,,,,,0.887963102,0.199999996,0,0,0,,,,,,,WHEEL,HB,m,y,./images/WHEELHB.png,,,,,,,m,1,0.6489,,,,,,,,0,147,147,77,1
,,,,,,,,,,,,,,,,,200254,21,2022-01-28_17h59.16.601,lexical_decision_task_DD_L6,2021.2.3,Win32,59.96282305,,,,,,,,,,,,0.6595,1,,,,,,,,,,,,,,,,,,,,,,,,0.887963102,0.199999996,0,0,0,,,,,,,BIRTH,C,z,y,./images/BIRTH.png,,,,,,,z,1,0.6595,,,,,,,,0,148,148,121,1
,,,,,,,,,,,,,,,,,200254,21,2022-01-28_17h59.16.601,lexical_decision_task_DD_L6,2021.2.3,Win32,59.96282305,,,,,,,,,,,,0.7557,1,,,,,,,,,,,,,,,,,,,,,,,,0.887963102,0.199999996,0,0,0,,,,,,,FINGER,LB,z,y,./images/FINGERLB.png,,,,,,,z,1,0.7557,,,,,,,,0,149,149,87,1
,,,,,,,,,,,,,,,,,200254,21,2022-01-28_17h59.16.601,lexical_decision_task_DD_L6,2021.2.3,Win32,59.96282305,,,,,,,,,,,,0.9378,0,,,,,,,,,,,,,,,,,,,,,,,,0.887963102,0.199999996,0,0,0,,,,,,,CARPET,HB,z,y,./images/CARPETHB.png,,,,,,,m,0,0.9378,,,,,,,,0,150,150,137,1
,,,,,,,,,,,,,,,,,200254,21,2022-01-28_17h59.16.601,lexical_decision_task_DD_L6,2021.2.3,Win32,59.96282305,,,,,,,,,,,,0.5718,1,,,,,,,,,,,,,,,,,,,,,,,,0.887963102,0.199999996,0,0,0,,,,,,,SPORT,LB,z,y,./images/SPORTLB.png,,,,,,,z,1,0.5718,,,,,,,,0,151,151,132,1
,,,,,,,,,,,,,,,,,200254,21,2022-01-28_17h59.16.601,lexical_decision_task_DD_L6,2021.2.3,Win32,59.96282305,,,,,,,,,,,,0.8418,1,,,,,,,,,,,,,,,,,,,,,,,,0.887963102,0.199999996,0,0,0,,,,,,,GREASE,LB,z,y,./images/GREASELB.png,,,,,,,z,1,0.8418,,,,,,,,0,152,152,99,1
,,,,,,,,,,,,,,,,,200254,21,2022-01-28_17h59.16.601,lexical_decision_task_DD_L6,2021.2.3,Win32,59.96282305,,,,,,,,,,,,0.8637,1,,,,,,,,,,,,,,,,,,,,,,,,0.887963102,0.199999996,0,0,0,,,,,,,FENCE,HB,m,y,./images/FENCEHB.png,,,,,,,m,1,0.8637,,,,,,,,0,153,153,14,1
,,,,,,,,,,,,,,,,,200254,21,2022-01-28_17h59.16.601,lexical_decision_task_DD_L6,2021.2.3,Win32,59.96282305,,,,,,,,,,,,0.8107,1,,,,,,,,,,,,,,,,,,,,,,,,0.887963102,0.199999996,0,0,0,,,,,,,THROAT,LB,z,y,./images/THROATLB.png,,,,,,,z,1,0.8107,,,,,,,,0,154,154,120,1
,,,,,,,,,,,,,,,,,200254,21,2022-01-28_17h59.16.601,lexical_decision_task_DD_L6,2021.2.3,Win32,59.96282305,,,,,,,,,,,,1.1581,1,,,,,,,,,,,,,,,,,,,,,,,,0.887963102,0.199999996,0,0,0,,,,,,,SWEAT,LB,z,y,./images/SWEATLB.png,,,,,,,z,1,1.1581,,,,,,,,0,155,155,150,1
,,,,,,,,,,,,,,,,,200254,21,2022-01-28_17h59.16.601,lexical_decision_task_DD_L6,2021.2.3,Win32,59.96282305,,,,,,,,,,,,0.758,1,,,,,,,,,,,,,,,,,,,,,,,,0.887963102,0.199999996,0,0,0,,,,,,,WALRUS,HB,z,y,./images/WALRUSHB.png,,,,,,,z,1,0.758,,,,,,,,0,156,156,107,1
,,,,,,,,,,,,,,,,,200254,21,2022-01-28_17h59.16.601,lexical_decision_task_DD_L6,2021.2.3,Win32,59.96282305,,,,,,,,,,,,0.6558,1,,,,,,,,,,,,,,,,,,,,,,,,0.887963102,0.199999996,0,0,0,,,,,,,BANNER,C,z,y,./images/BANNER.png,,,,,,,z,1,0.6558,,,,,,,,0,157,157,136,1
,,,,,,,,,,,,,,,,,200254,21,2022-01-28_17h59.16.601,lexical_decision_task_DD_L6,2021.2.3,Win32,59.96282305,,,,,,,,,,,,0.739,1,,,,,,,,,,,,,,,,,,,,,,,,0.887963102,0.199999996,0,0,0,,,,,,,WAGON,C,m,y,./images/WAGON.png,,,,,,,m,1,0.739,,,,,,,,0,158,158,7,1
,,,,,,,,,,,,,,,,,200254,21,2022-01-28_17h59.16.601,lexical_decision_task_DD_L6,2021.2.3,Win32,59.96282305,,,,,,,,,,,,0.5724,1,,,,,,,,,,,,,,,,,,,,,,,,0.887963102,0.199999996,0,0,0,,,,,,,CLOWN,C,m,y,./images/CLOWN.png,,,,,,,m,1,0.5724,,,,,,,,0,159,159,22,1
,,,,,,,,,,,,,,,,,200254,21,2022-01-28_17h59.16.601,lexical_decision_task_DD_L6,2021.2.3,Win32,59.96282305,,,,,,,,,,,,0.5728,1,,,,,,,,,,,,,,,,,,,,,,,,0.887963102,0.199999996,0,0,0,,,,,,,ARTIST,C,m,y,./images/ARTIST.png,,,,,,,m,1,0.5728,,,,,,,,0,160,160,61,1
,,,,,,,,,,,,,,,,,200254,21,2022-01-28_17h59.16.601,lexical_decision_task_DD_L6,2021.2.3,Win32,59.96282305,,,,,,,,,,,,0.6769,1,,,,,,,,,,,,,,,,,,,,,,,,0.887963102,0.199999996,0,0,0,,,,,,,WRIST,C,z,y,./images/WRIST.png,,,,,,,z,1,0.6769,,,,,,,,0,161,161,109,1
,,,,,,,,,,,,,,,,,200254,21,2022-01-28_17h59.16.601,lexical_decision_task_DD_L6,2021.2.3,Win32,59.96282305,,,,,,,,,,,,0.5987,1,,,,,,,,,,,,,,,,,,,,,,,,0.887963102,0.199999996,0,0,0,,,,,,,FLESH,LB,m,y,./images/FLESHLB.png,,,,,,,m,1,0.5987,,,,,,,,0,162,162,24,1
,,,,,,,,,,,,,,,,,200254,21,2022-01-28_17h59.16.601,lexical_decision_task_DD_L6,2021.2.3,Win32,59.96282305,,,,,,,,,,,,0.7553,1,,,,,,,,,,,,,,,,,,,,,,,,0.887963102,0.199999996,0,0,0,,,,,,,MOSQUE,C,z,y,./images/MOSQUE.png,,,,,,,z,1,0.7553,,,,,,,,0,163,163,127,1
,,,,,,,,,,,,,,,,,200254,21,2022-01-28_17h59.16.601,lexical_decision_task_DD_L6,2021.2.3,Win32,59.96282305,,,,,,,,,,,,0.6483,1,,,,,,,,,,,,,,,,,,,,,,,,0.887963102,0.199999996,0,0,0,,,,,,,BAKER,LB,m,y,./images/BAKERLB.png,,,,,,,m,1,0.6483,,,,,,,,0,164,164,63,1
,,,,,,,,,,,,,,,,,200254,21,2022-01-28_17h59.16.601,lexical_decision_task_DD_L6,2021.2.3,Win32,59.96282305,,,,,,,,,,,,0.6955,1,,,,,,,,,,,,,,,,,,,,,,,,0.887963102,0.199999996,0,0,0,,,,,,,VALLEY,HB,m,y,./images/VALLEYHB.png,,,,,,,m,1,0.6955,,,,,,,,0,165,165,68,1
,,,,,,,,,,,,,,,,,200254,21,2022-01-28_17h59.16.601,lexical_decision_task_DD_L6,2021.2.3,Win32,59.96282305,,,,,,,,,,,,0.6223,1,,,,,,,,,,,,,,,,,,,,,,,,0.887963102,0.199999996,0,0,0,,,,,,,JELLY,C,z,y,./images/JELLY.png,,,,,,,z,1,0.6223,,,,,,,,0,166,166,148,1
,,,,,,,,,,,,,,,,,200254,21,2022-01-28_17h59.16.601,lexical_decision_task_DD_L6,2021.2.3,Win32,59.96282305,,,,,,,,,,,,0.575,1,,,,,,,,,,,,,,,,,,,,,,,,0.887963102,0.199999996,0,0,0,,,,,,,DONKEY,C,m,y,./images/DONKEY.png,,,,,,,m,1,0.575,,,,,,,,0,167,167,19,1
