key_resp.keys,instr_done_touch.x,instr_done_touch.y,instr_done_touch.leftButton,instr_done_touch.midButton,instr_done_touch.rightButton,instr_done_touch.clicked_name,instruction_pages.thisRepN,instruction_pages.thisTrialN,instruction_pages.thisN,instruction_pages.thisIndex,instruction_pages.ran,pageN,phase,instruct_text,has_image,instruct_image,participant,age,date,expName,psychopyVersion,OS,frameRate,response.keys,response.corr,response.rt,touch_resp.x,touch_resp.y,touch_resp.leftButton,touch_resp.midButton,touch_resp.rightButton,touch_resp.time,touch_resp.clicked_name,rt,corr,practrials.thisRepN,practrials.thisTrialN,practrials.thisN,practrials.thisIndex,practrials.ran,TrialID,Target,corrAns,end_of_practice_trials_pages.thisRepN,end_of_practice_trials_pages.thisTrialN,end_of_practice_trials_pages.thisN,end_of_practice_trials_pages.thisIndex,end_of_practice_trials_pages.ran,key_resp_2.keys,key_resp_2.corr,key_resp_2.rt,targ_click.x,targ_click.y,targ_click.leftButton,targ_click.midButton,targ_click.rightButton,targ_click.time,targ_click.clicked_name,break_done_touch.x,break_done_touch.y,break_done_touch.leftButton,break_done_touch.midButton,break_done_touch.rightButton,break_done_keyboard.keys,maintrials.thisRepN,maintrials.thisTrialN,maintrials.thisN,maintrials.thisIndex,maintrials.ran,string,blur,study,lex,stim_path,break_done_touch.clicked_name,test_instructions.thisRepN,test_instructions.thisTrialN,test_instructions.thisN,test_instructions.thisIndex,test_instructions.ran,key_resp_3.keys,key_resp_3.corr,key_resp_3.rt,test_click.x,test_click.y,test_click.leftButton,test_click.midButton,test_click.rightButton,test_click.time,test_click.clicked_name,test_phase.thisRepN,test_phase.thisTrialN,test_phase.thisN,test_phase.thisIndex,test_phase.ran
,-0.076851828,-0.387037063,1,0,0,instr_done_button,0,0,0,0,1,1,instructions,"INSTRUCTIONS
At the start of each trial, look at the plus sign  (+) in the center of the screen.  This tells you that a trial is about to begin and where to look. Second, the plus sign will disappear and a string of letters will appear. Your task is to determine if the string of letters is a word or not. If the item is a word press the M key (on keyboard)  or touch the word button (phone/tablet).  If the item is not a word,  press the  Z key (on keyboard)  or touch the nonword button (on phone/tablet). 
Press the space bar or touch  continue.",0,,200200,19,2022-01-28_16h48.03.308,lexical_decision_task_DD_L3,2021.2.3,Win32,60.20469597,,,,,,,,,,,,,,,,,,,,,,,,,,,,,,,,,,,,,,,,,,,,,,,,,,,,,,,,,,,,,,,,,,,,,,,,
,0.035185269,-0.436111139,1,0,0,instr_done_button,0,1,1,1,1,2,instructions,"If your device has a keyboard, press the 'Z' key for nonwords and the 'M' key for words.





Press the space bar or touch the button below to continue.",0,keyboard-example.gif,200200,19,2022-01-28_16h48.03.308,lexical_decision_task_DD_L3,2021.2.3,Win32,60.20469597,,,,,,,,,,,,,,,,,,,,,,,,,,,,,,,,,,,,,,,,,,,,,,,,,,,,,,,,,,,,,,,,,,,,,,,,
,0.035185269,-0.436111139,1,0,0,instr_done_button,0,2,2,2,1,3,instructions,"If you are using a touchscreen only device, use the buttons on the screen. Do not use the mouse.





Press the space bar or touch the button below to continue.",0,touchscreen-example.gif,200200,19,2022-01-28_16h48.03.308,lexical_decision_task_DD_L3,2021.2.3,Win32,60.20469597,,,,,,,,,,,,,,,,,,,,,,,,,,,,,,,,,,,,,,,,,,,,,,,,,,,,,,,,,,,,,,,,,,,,,,,,
,0.035185269,-0.436111139,1,0,0,instr_done_button,0,3,3,3,1,4,instructions,"It is very important that you respond as quickly and accurately as possible, as each letter string will only be on the screen for two seconds. If you do not respond within this time, the message 'Too slow!' will be displayed and the experiment will progress to the next letter string. The first 20 trials will be practice trials and you will receive feedback on your answers. 

Press the space bar or touch the button below to start the practice trials.",0,,200200,19,2022-01-28_16h48.03.308,lexical_decision_task_DD_L3,2021.2.3,Win32,60.20469597,,,,,,,,,,,,,,,,,,,,,,,,,,,,,,,,,,,,,,,,,,,,,,,,,,,,,,,,,,,,,,,,,,,,,,,,
,,,,,,,,,,,,,,,,,200200,19,2022-01-28_16h48.03.308,lexical_decision_task_DD_L3,2021.2.3,Win32,60.20469597,m,1,2.382,,,,,,,,2.382,1,0,0,0,2,1,1001,ALMOND,m,,,,,,,,,,,,,,,,,,,,,,,,,,,,,,,,,,,,,,,,,,,,,,,,,,,,
,,,,,,,,,,,,,,,,,200200,19,2022-01-28_16h48.03.308,lexical_decision_task_DD_L3,2021.2.3,Win32,60.20469597,m,0,0.3667,,,,,,,,0.3667,0,0,1,1,14,1,1001,THRALE,z,,,,,,,,,,,,,,,,,,,,,,,,,,,,,,,,,,,,,,,,,,,,,,,,,,,,
,,,,,,,,,,,,,,,,,200200,19,2022-01-28_16h48.03.308,lexical_decision_task_DD_L3,2021.2.3,Win32,60.20469597,z,1,0.7506,,,,,,,,0.7506,1,0,2,2,13,1,1001,ROUPET,z,,,,,,,,,,,,,,,,,,,,,,,,,,,,,,,,,,,,,,,,,,,,,,,,,,,,
,,,,,,,,,,,,,,,,,200200,19,2022-01-28_16h48.03.308,lexical_decision_task_DD_L3,2021.2.3,Win32,60.20469597,z,1,0.8043,,,,,,,,0.8043,1,0,3,3,9,1,1001,FARINY,z,,,,,,,,,,,,,,,,,,,,,,,,,,,,,,,,,,,,,,,,,,,,,,,,,,,,
,,,,,,,,,,,,,,,,,200200,19,2022-01-28_16h48.03.308,lexical_decision_task_DD_L3,2021.2.3,Win32,60.20469597,m,1,0.6052,,,,,,,,0.6052,1,0,4,4,0,1,1001,UTOPIA,m,,,,,,,,,,,,,,,,,,,,,,,,,,,,,,,,,,,,,,,,,,,,,,,,,,,,
,,,,,,,,,,,,,,,,,200200,19,2022-01-28_16h48.03.308,lexical_decision_task_DD_L3,2021.2.3,Win32,60.20469597,m,1,0.3502,,,,,,,,0.3502,1,0,5,5,5,1,1001,OBTAIN,m,,,,,,,,,,,,,,,,,,,,,,,,,,,,,,,,,,,,,,,,,,,,,,,,,,,,
,,,,,,,,,,,,,,,,,200200,19,2022-01-28_16h48.03.308,lexical_decision_task_DD_L3,2021.2.3,Win32,60.20469597,z,1,0.45,,,,,,,,0.45,1,0,6,6,8,1,1001,ASLERT,z,,,,,,,,,,,,,,,,,,,,,,,,,,,,,,,,,,,,,,,,,,,,,,,,,,,,
,,,,,,,,,,,,,,,,,200200,19,2022-01-28_16h48.03.308,lexical_decision_task_DD_L3,2021.2.3,Win32,60.20469597,z,1,0.705,,,,,,,,0.705,1,0,7,7,10,1,1001,INLADE,z,,,,,,,,,,,,,,,,,,,,,,,,,,,,,,,,,,,,,,,,,,,,,,,,,,,,
,,,,,,,,,,,,,,,,,200200,19,2022-01-28_16h48.03.308,lexical_decision_task_DD_L3,2021.2.3,Win32,60.20469597,z,1,0.5847,,,,,,,,0.5847,1,0,8,8,12,1,1001,SPRINY,z,,,,,,,,,,,,,,,,,,,,,,,,,,,,,,,,,,,,,,,,,,,,,,,,,,,,
,,,,,,,,,,,,,,,,,200200,19,2022-01-28_16h48.03.308,lexical_decision_task_DD_L3,2021.2.3,Win32,60.20469597,m,0,0.3673,,,,,,,,0.3673,0,0,9,9,11,1,1001,RASHET,z,,,,,,,,,,,,,,,,,,,,,,,,,,,,,,,,,,,,,,,,,,,,,,,,,,,,
,,,,,,,,,,,,,,,,,200200,19,2022-01-28_16h48.03.308,lexical_decision_task_DD_L3,2021.2.3,Win32,60.20469597,m,1,0.8518,,,,,,,,0.8518,1,0,10,10,3,1,1001,MATRIX,m,,,,,,,,,,,,,,,,,,,,,,,,,,,,,,,,,,,,,,,,,,,,,,,,,,,,
,,,,,,,,,,,,,,,,,200200,19,2022-01-28_16h48.03.308,lexical_decision_task_DD_L3,2021.2.3,Win32,60.20469597,m,1,0.6521,,,,,,,,0.6521,1,0,11,11,1,1,1001,ADJUST,m,,,,,,,,,,,,,,,,,,,,,,,,,,,,,,,,,,,,,,,,,,,,,,,,,,,,
,,,,,,,,,,,,,,,,,200200,19,2022-01-28_16h48.03.308,lexical_decision_task_DD_L3,2021.2.3,Win32,60.20469597,m,1,0.4541,,,,,,,,0.4541,1,0,12,12,6,1,1001,ZOMBIE,m,,,,,,,,,,,,,,,,,,,,,,,,,,,,,,,,,,,,,,,,,,,,,,,,,,,,
,,,,,,,,,,,,,,,,,200200,19,2022-01-28_16h48.03.308,lexical_decision_task_DD_L3,2021.2.3,Win32,60.20469597,z,1,0.5997,,,,,,,,0.5997,1,0,13,13,15,1,1001,WHAISE,z,,,,,,,,,,,,,,,,,,,,,,,,,,,,,,,,,,,,,,,,,,,,,,,,,,,,
,,,,,,,,,,,,,,,,,200200,19,2022-01-28_16h48.03.308,lexical_decision_task_DD_L3,2021.2.3,Win32,60.20469597,m,1,0.4216,,,,,,,,0.4216,1,0,14,14,7,1,1001,VOLUME,m,,,,,,,,,,,,,,,,,,,,,,,,,,,,,,,,,,,,,,,,,,,,,,,,,,,,
,,,,,,,,,,,,,,,,,200200,19,2022-01-28_16h48.03.308,lexical_decision_task_DD_L3,2021.2.3,Win32,60.20469597,m,1,0.4562,,,,,,,,0.4562,1,0,15,15,4,1,1001,SQUEAK,m,,,,,,,,,,,,,,,,,,,,,,,,,,,,,,,,,,,,,,,,,,,,,,,,,,,,
,0.035185269,-0.436111139,1,0,0,instr_done_button,,,,,,1,end_of_practice,"You have completed the practice trials. During the experimental trials, you will not receive feedback. 
Before you begin, please ensure that you are in a comfortable and quiet location and will not be disturbed for about 15 minutes, as we cannot use your data if you do not complete all the trials. 
 When you are ready to start the experimental trials, please press space or touch the button below.",,,200200,19,2022-01-28_16h48.03.308,lexical_decision_task_DD_L3,2021.2.3,Win32,60.20469597,,,,,,,,,,,,,,,,,,,,,0,0,0,0,1,,,,,,,,,,,,,,,,,,,,,,,,,,,,,,,,,,,,,,,,,,,,,,,
,,,,,,,,,,,,,,,,,200200,19,2022-01-28_16h48.03.308,lexical_decision_task_DD_L3,2021.2.3,Win32,60.20469597,,,,,,,,,,,0.4625,1,,,,,,,,,,,,,,m,1,0.4625,,,,,,,,0.035185269,-0.436111139,0,0,0,,0,0,0,52,1,BANNER,C,old,m,./images/BANNER.png,,,,,,,,,,,,,,,,,,,,,
,,,,,,,,,,,,,,,,,200200,19,2022-01-28_16h48.03.308,lexical_decision_task_DD_L3,2021.2.3,Win32,60.20469597,,,,,,,,,,,1.3012,0,,,,,,,,,,,,,,z,0,1.3012,,,,,,,,0.035185269,-0.436111139,0,0,0,,0,1,1,68,1,TORCH,HB,old,m,./images/TORCHHB.png,,,,,,,,,,,,,,,,,,,,,
,,,,,,,,,,,,,,,,,200200,19,2022-01-28_16h48.03.308,lexical_decision_task_DD_L3,2021.2.3,Win32,60.20469597,,,,,,,,,,,0.4502,1,,,,,,,,,,,,,,m,1,0.4502,,,,,,,,0.035185269,-0.436111139,0,0,0,,0,2,2,6,1,SQUARE,LB,old,m,./images/SQUARELB.png,,,,,,,,,,,,,,,,,,,,,
,,,,,,,,,,,,,,,,,200200,19,2022-01-28_16h48.03.308,lexical_decision_task_DD_L3,2021.2.3,Win32,60.20469597,,,,,,,,,,,0.634,1,,,,,,,,,,,,,,m,1,0.634,,,,,,,,0.035185269,-0.436111139,0,0,0,,0,3,3,5,1,PASTA,HB,old,m,./images/PASTAHB.png,,,,,,,,,,,,,,,,,,,,,
,,,,,,,,,,,,,,,,,200200,19,2022-01-28_16h48.03.308,lexical_decision_task_DD_L3,2021.2.3,Win32,60.20469597,,,,,,,,,,,0.7692,1,,,,,,,,,,,,,,z,1,0.7692,,,,,,,,0.035185269,-0.436111139,0,0,0,,0,4,4,101,1,GLEET,LB,old,z,./images/GLEETLB.png,,,,,,,,,,,,,,,,,,,,,
,,,,,,,,,,,,,,,,,200200,19,2022-01-28_16h48.03.308,lexical_decision_task_DD_L3,2021.2.3,Win32,60.20469597,,,,,,,,,,,0.4386,1,,,,,,,,,,,,,,m,1,0.4386,,,,,,,,0.035185269,-0.436111139,0,0,0,,0,5,5,28,1,FALCON,C,old,m,./images/FALCON.png,,,,,,,,,,,,,,,,,,,,,
,,,,,,,,,,,,,,,,,200200,19,2022-01-28_16h48.03.308,lexical_decision_task_DD_L3,2021.2.3,Win32,60.20469597,,,,,,,,,,,0.4337,1,,,,,,,,,,,,,,m,1,0.4337,,,,,,,,0.035185269,-0.436111139,0,0,0,,0,6,6,3,1,FINGER,LB,old,m,./images/FINGERLB.png,,,,,,,,,,,,,,,,,,,,,
,,,,,,,,,,,,,,,,,200200,19,2022-01-28_16h48.03.308,lexical_decision_task_DD_L3,2021.2.3,Win32,60.20469597,,,,,,,,,,,0.5884,1,,,,,,,,,,,,,,m,1,0.5884,,,,,,,,0.035185269,-0.436111139,0,0,0,,0,7,7,31,1,QUILL,C,old,m,./images/QUILL.png,,,,,,,,,,,,,,,,,,,,,
,,,,,,,,,,,,,,,,,200200,19,2022-01-28_16h48.03.308,lexical_decision_task_DD_L3,2021.2.3,Win32,60.20469597,,,,,,,,,,,0.7007,1,,,,,,,,,,,,,,m,1,0.7007,,,,,,,,0.035185269,-0.436111139,0,0,0,,0,8,8,77,1,COUCH,HB,old,m,./images/COUCHHB.png,,,,,,,,,,,,,,,,,,,,,
,,,,,,,,,,,,,,,,,200200,19,2022-01-28_16h48.03.308,lexical_decision_task_DD_L3,2021.2.3,Win32,60.20469597,,,,,,,,,,,0.4171,1,,,,,,,,,,,,,,m,1,0.4171,,,,,,,,0.035185269,-0.436111139,0,0,0,,0,9,9,45,1,KITTEN,LB,old,m,./images/KITTENLB.png,,,,,,,,,,,,,,,,,,,,,
,,,,,,,,,,,,,,,,,200200,19,2022-01-28_16h48.03.308,lexical_decision_task_DD_L3,2021.2.3,Win32,60.20469597,,,,,,,,,,,1.1504,1,,,,,,,,,,,,,,z,1,1.1504,,,,,,,,0.035185269,-0.436111139,0,0,0,,0,10,10,163,1,GAMBA,HB,old,z,./images/GAMBAHB.png,,,,,,,,,,,,,,,,,,,,,
,,,,,,,,,,,,,,,,,200200,19,2022-01-28_16h48.03.308,lexical_decision_task_DD_L3,2021.2.3,Win32,60.20469597,,,,,,,,,,,1.5722,1,,,,,,,,,,,,,,m,1,1.5722,,,,,,,,0.035185269,-0.436111139,0,0,0,,0,11,11,17,1,SKIING,HB,old,m,./images/SKIINGHB.png,,,,,,,,,,,,,,,,,,,,,
,,,,,,,,,,,,,,,,,200200,19,2022-01-28_16h48.03.308,lexical_decision_task_DD_L3,2021.2.3,Win32,60.20469597,,,,,,,,,,,0.6717,1,,,,,,,,,,,,,,z,1,0.6717,,,,,,,,0.035185269,-0.436111139,0,0,0,,0,12,12,129,1,PRANS,C,old,z,./images/PRANS.png,,,,,,,,,,,,,,,,,,,,,
,,,,,,,,,,,,,,,,,200200,19,2022-01-28_16h48.03.308,lexical_decision_task_DD_L3,2021.2.3,Win32,60.20469597,,,,,,,,,,,0.5738,1,,,,,,,,,,,,,,m,1,0.5738,,,,,,,,0.035185269,-0.436111139,0,0,0,,0,13,13,27,1,ATTIC,LB,old,m,./images/ATTICLB.png,,,,,,,,,,,,,,,,,,,,,
,,,,,,,,,,,,,,,,,200200,19,2022-01-28_16h48.03.308,lexical_decision_task_DD_L3,2021.2.3,Win32,60.20469597,,,,,,,,,,,0.6168,1,,,,,,,,,,,,,,m,1,0.6168,,,,,,,,0.035185269,-0.436111139,0,0,0,,0,14,14,72,1,NOOSE,LB,old,m,./images/NOOSELB.png,,,,,,,,,,,,,,,,,,,,,
,,,,,,,,,,,,,,,,,200200,19,2022-01-28_16h48.03.308,lexical_decision_task_DD_L3,2021.2.3,Win32,60.20469597,,,,,,,,,,,0.75,1,,,,,,,,,,,,,,m,1,0.75,,,,,,,,0.035185269,-0.436111139,0,0,0,,0,15,15,11,1,BONNET,HB,old,m,./images/BONNETHB.png,,,,,,,,,,,,,,,,,,,,,
,,,,,,,,,,,,,,,,,200200,19,2022-01-28_16h48.03.308,lexical_decision_task_DD_L3,2021.2.3,Win32,60.20469597,,,,,,,,,,,0.6675,1,,,,,,,,,,,,,,z,1,0.6675,,,,,,,,0.035185269,-0.436111139,0,0,0,,0,16,16,150,1,NOOLS,C,old,z,./images/NOOLS.png,,,,,,,,,,,,,,,,,,,,,
,,,,,,,,,,,,,,,,,200200,19,2022-01-28_16h48.03.308,lexical_decision_task_DD_L3,2021.2.3,Win32,60.20469597,,,,,,,,,,,0.7046,1,,,,,,,,,,,,,,z,1,0.7046,,,,,,,,0.035185269,-0.436111139,0,0,0,,0,17,17,134,1,TROSS,LB,old,z,./images/TROSSLB.png,,,,,,,,,,,,,,,,,,,,,
,,,,,,,,,,,,,,,,,200200,19,2022-01-28_16h48.03.308,lexical_decision_task_DD_L3,2021.2.3,Win32,60.20469597,,,,,,,,,,,1.0051,1,,,,,,,,,,,,,,z,1,1.0051,,,,,,,,0.035185269,-0.436111139,0,0,0,,0,18,18,88,1,GLUSH,HB,old,z,./images/GLUSHHB.png,,,,,,,,,,,,,,,,,,,,,
,,,,,,,,,,,,,,,,,200200,19,2022-01-28_16h48.03.308,lexical_decision_task_DD_L3,2021.2.3,Win32,60.20469597,,,,,,,,,,,1.3686,0,,,,,,,,,,,,,,z,0,1.3686,,,,,,,,0.035185269,-0.436111139,0,0,0,,0,19,19,38,1,LADDER,HB,old,m,./images/LADDERHB.png,,,,,,,,,,,,,,,,,,,,,
,,,,,,,,,,,,,,,,,200200,19,2022-01-28_16h48.03.308,lexical_decision_task_DD_L3,2021.2.3,Win32,60.20469597,,,,,,,,,,,0.6335,1,,,,,,,,,,,,,,z,1,0.6335,,,,,,,,0.035185269,-0.436111139,0,0,0,,0,20,20,144,1,NAIRY,C,old,z,./images/NAIRY.png,,,,,,,,,,,,,,,,,,,,,
,,,,,,,,,,,,,,,,,200200,19,2022-01-28_16h48.03.308,lexical_decision_task_DD_L3,2021.2.3,Win32,60.20469597,,,,,,,,,,,1.1037,1,,,,,,,,,,,,,,z,1,1.1037,,,,,,,,0.035185269,-0.436111139,0,0,0,,0,21,21,145,1,LAMEL,HB,old,z,./images/LAMELHB.png,,,,,,,,,,,,,,,,,,,,,
,,,,,,,,,,,,,,,,,200200,19,2022-01-28_16h48.03.308,lexical_decision_task_DD_L3,2021.2.3,Win32,60.20469597,,,,,,,,,,,0.8674,1,,,,,,,,,,,,,,m,1,0.8674,,,,,,,,0.035185269,-0.436111139,0,0,0,,0,22,22,50,1,MALLET,HB,old,m,./images/MALLETHB.png,,,,,,,,,,,,,,,,,,,,,
,,,,,,,,,,,,,,,,,200200,19,2022-01-28_16h48.03.308,lexical_decision_task_DD_L3,2021.2.3,Win32,60.20469597,,,,,,,,,,,0.8169,1,,,,,,,,,,,,,,z,1,0.8169,,,,,,,,0.035185269,-0.436111139,0,0,0,,0,23,23,128,1,GRIFT,LB,old,z,./images/GRIFTLB.png,,,,,,,,,,,,,,,,,,,,,
,,,,,,,,,,,,,,,,,200200,19,2022-01-28_16h48.03.308,lexical_decision_task_DD_L3,2021.2.3,Win32,60.20469597,,,,,,,,,,,1.0238,1,,,,,,,,,,,,,,z,1,1.0238,,,,,,,,0.035185269,-0.436111139,0,0,0,,0,24,24,160,1,VEETS,HB,old,z,./images/VEETSHB.png,,,,,,,,,,,,,,,,,,,,,
,,,,,,,,,,,,,,,,,200200,19,2022-01-28_16h48.03.308,lexical_decision_task_DD_L3,2021.2.3,Win32,60.20469597,,,,,,,,,,,0.583,1,,,,,,,,,,,,,,m,1,0.583,,,,,,,,0.035185269,-0.436111139,0,0,0,,0,25,25,58,1,BABOON,C,old,m,./images/BABOON.png,,,,,,,,,,,,,,,,,,,,,
,,,,,,,,,,,,,,,,,200200,19,2022-01-28_16h48.03.308,lexical_decision_task_DD_L3,2021.2.3,Win32,60.20469597,,,,,,,,,,,0.7174,1,,,,,,,,,,,,,,z,1,0.7174,,,,,,,,0.035185269,-0.436111139,0,0,0,,0,26,26,137,1,JOOST,LB,old,z,./images/JOOSTLB.png,,,,,,,,,,,,,,,,,,,,,
,,,,,,,,,,,,,,,,,200200,19,2022-01-28_16h48.03.308,lexical_decision_task_DD_L3,2021.2.3,Win32,60.20469597,,,,,,,,,,,0.6004,1,,,,,,,,,,,,,,z,1,0.6004,,,,,,,,0.035185269,-0.436111139,0,0,0,,0,27,27,108,1,GRUET,C,old,z,./images/GRUET.png,,,,,,,,,,,,,,,,,,,,,
,,,,,,,,,,,,,,,,,200200,19,2022-01-28_16h48.03.308,lexical_decision_task_DD_L3,2021.2.3,Win32,60.20469597,,,,,,,,,,,0.3424,1,,,,,,,,,,,,,,m,1,0.3424,,,,,,,,0.035185269,-0.436111139,0,0,0,,0,28,28,49,1,DRUMS,C,old,m,./images/DRUMS.png,,,,,,,,,,,,,,,,,,,,,
,,,,,,,,,,,,,,,,,200200,19,2022-01-28_16h48.03.308,lexical_decision_task_DD_L3,2021.2.3,Win32,60.20469597,,,,,,,,,,,1.3353,1,,,,,,,,,,,,,,m,1,1.3353,,,,,,,,0.035185269,-0.436111139,0,0,0,,0,29,29,29,1,CRUMB,HB,old,m,./images/CRUMBHB.png,,,,,,,,,,,,,,,,,,,,,
,,,,,,,,,,,,,,,,,200200,19,2022-01-28_16h48.03.308,lexical_decision_task_DD_L3,2021.2.3,Win32,60.20469597,,,,,,,,,,,1.3039,1,,,,,,,,,,,,,,z,1,1.3039,,,,,,,,0.035185269,-0.436111139,0,0,0,,0,30,30,154,1,THINT,HB,old,z,./images/THINTHB.png,,,,,,,,,,,,,,,,,,,,,
,,,,,,,,,,,,,,,,,200200,19,2022-01-28_16h48.03.308,lexical_decision_task_DD_L3,2021.2.3,Win32,60.20469597,,,,,,,,,,,0.6503,1,,,,,,,,,,,,,,z,1,0.6503,,,,,,,,0.035185269,-0.436111139,0,0,0,,0,31,31,131,1,NACES,LB,old,z,./images/NACESLB.png,,,,,,,,,,,,,,,,,,,,,
,,,,,,,,,,,,,,,,,200200,19,2022-01-28_16h48.03.308,lexical_decision_task_DD_L3,2021.2.3,Win32,60.20469597,,,,,,,,,,,0.7363,1,,,,,,,,,,,,,,z,1,0.7363,,,,,,,,0.035185269,-0.436111139,0,0,0,,0,32,32,124,1,TUNCH,HB,old,z,./images/TUNCHHB.png,,,,,,,,,,,,,,,,,,,,,
,,,,,,,,,,,,,,,,,200200,19,2022-01-28_16h48.03.308,lexical_decision_task_DD_L3,2021.2.3,Win32,60.20469597,,,,,,,,,,,0.4672,1,,,,,,,,,,,,,,m,1,0.4672,,,,,,,,0.035185269,-0.436111139,0,0,0,,0,33,33,75,1,GRAIN,LB,old,m,./images/GRAINLB.png,,,,,,,,,,,,,,,,,,,,,
,,,,,,,,,,,,,,,,,200200,19,2022-01-28_16h48.03.308,lexical_decision_task_DD_L3,2021.2.3,Win32,60.20469597,,,,,,,,,,,0.5345,1,,,,,,,,,,,,,,z,1,0.5345,,,,,,,,0.035185269,-0.436111139,0,0,0,,0,34,34,102,1,DULLE,C,old,z,./images/DULLE.png,,,,,,,,,,,,,,,,,,,,,
,,,,,,,,,,,,,,,,,200200,19,2022-01-28_16h48.03.308,lexical_decision_task_DD_L3,2021.2.3,Win32,60.20469597,,,,,,,,,,,0.7672,1,,,,,,,,,,,,,,z,1,0.7672,,,,,,,,0.035185269,-0.436111139,0,0,0,,0,35,35,130,1,CRILL,HB,old,z,./images/CRILLHB.png,,,,,,,,,,,,,,,,,,,,,
,,,,,,,,,,,,,,,,,200200,19,2022-01-28_16h48.03.308,lexical_decision_task_DD_L3,2021.2.3,Win32,60.20469597,,,,,,,,,,,0.7247,1,,,,,,,,,,,,,,m,1,0.7247,,,,,,,,0.035185269,-0.436111139,0,0,0,,0,36,36,9,1,RHINO,LB,old,m,./images/RHINOLB.png,,,,,,,,,,,,,,,,,,,,,
,,,,,,,,,,,,,,,,,200200,19,2022-01-28_16h48.03.308,lexical_decision_task_DD_L3,2021.2.3,Win32,60.20469597,,,,,,,,,,,0.6339,1,,,,,,,,,,,,,,m,1,0.6339,,,,,,,,0.035185269,-0.436111139,0,0,0,,0,37,37,20,1,CRADLE,HB,old,m,./images/CRADLEHB.png,,,,,,,,,,,,,,,,,,,,,
,,,,,,,,,,,,,,,,,200200,19,2022-01-28_16h48.03.308,lexical_decision_task_DD_L3,2021.2.3,Win32,60.20469597,,,,,,,,,,,1.1339,1,,,,,,,,,,,,,,z,1,1.1339,,,,,,,,0.035185269,-0.436111139,0,0,0,,0,38,38,115,1,MAWNS,HB,old,z,./images/MAWNSHB.png,,,,,,,,,,,,,,,,,,,,,
,,,,,,,,,,,,,,,,,200200,19,2022-01-28_16h48.03.308,lexical_decision_task_DD_L3,2021.2.3,Win32,60.20469597,,,,,,,,,,,1.2019,1,,,,,,,,,,,,,,z,1,1.2019,,,,,,,,0.035185269,-0.436111139,0,0,0,,0,39,39,112,1,MYING,HB,old,z,./images/MYINGHB.png,,,,,,,,,,,,,,,,,,,,,
,,,,,,,,,,,,,,,,,200200,19,2022-01-28_16h48.03.308,lexical_decision_task_DD_L3,2021.2.3,Win32,60.20469597,,,,,,,,,,,0.4173,0,,,,,,,,,,,,,,m,0,0.4173,,,,,,,,0.035185269,-0.436111139,0,0,0,,0,40,40,90,1,NEAST,C,old,z,./images/NEAST.png,,,,,,,,,,,,,,,,,,,,,
,,,,,,,,,,,,,,,,,200200,19,2022-01-28_16h48.03.308,lexical_decision_task_DD_L3,2021.2.3,Win32,60.20469597,,,,,,,,,,,0.757,1,,,,,,,,,,,,,,z,1,0.757,,,,,,,,0.035185269,-0.436111139,1,0,0,,0,41,41,133,1,POWDY,HB,old,z,./images/POWDYHB.png,break_done_button,,,,,,,,,,,,,,,,,,,,
,,,,,,,,,,,,,,,,,200200,19,2022-01-28_16h48.03.308,lexical_decision_task_DD_L3,2021.2.3,Win32,60.20469597,,,,,,,,,,,0.6669,1,,,,,,,,,,,,,,z,1,0.6669,,,,,,,,0.035185269,-0.436111139,0,0,0,,0,42,42,149,1,VEASE,LB,old,z,./images/VEASELB.png,,,,,,,,,,,,,,,,,,,,,
,,,,,,,,,,,,,,,,,200200,19,2022-01-28_16h48.03.308,lexical_decision_task_DD_L3,2021.2.3,Win32,60.20469597,,,,,,,,,,,0.7066,1,,,,,,,,,,,,,,m,1,0.7066,,,,,,,,0.035185269,-0.436111139,0,0,0,,0,43,43,32,1,BARREL,HB,old,m,./images/BARRELHB.png,,,,,,,,,,,,,,,,,,,,,
,,,,,,,,,,,,,,,,,200200,19,2022-01-28_16h48.03.308,lexical_decision_task_DD_L3,2021.2.3,Win32,60.20469597,,,,,,,,,,,0.5532,1,,,,,,,,,,,,,,z,1,0.5532,,,,,,,,0.035185269,-0.436111139,0,0,0,,0,44,44,161,1,BLAPS,LB,old,z,./images/BLAPSLB.png,,,,,,,,,,,,,,,,,,,,,
,,,,,,,,,,,,,,,,,200200,19,2022-01-28_16h48.03.308,lexical_decision_task_DD_L3,2021.2.3,Win32,60.20469597,,,,,,,,,,,0.6003,1,,,,,,,,,,,,,,z,1,0.6003,,,,,,,,0.035185269,-0.436111139,0,0,0,,0,45,45,114,1,RIKES,C,old,z,./images/RIKES.png,,,,,,,,,,,,,,,,,,,,,
,,,,,,,,,,,,,,,,,200200,19,2022-01-28_16h48.03.308,lexical_decision_task_DD_L3,2021.2.3,Win32,60.20469597,,,,,,,,,,,0.7073,0,,,,,,,,,,,,,,m,0,0.7073,,,,,,,,0.035185269,-0.436111139,0,0,0,,0,46,46,140,1,DOVET,LB,old,z,./images/DOVETLB.png,,,,,,,,,,,,,,,,,,,,,
,,,,,,,,,,,,,,,,,200200,19,2022-01-28_16h48.03.308,lexical_decision_task_DD_L3,2021.2.3,Win32,60.20469597,,,,,,,,,,,1.8502,1,,,,,,,,,,,,,,z,1,1.8502,,,,,,,,0.035185269,-0.436111139,0,0,0,,0,47,47,136,1,WERVE,HB,old,z,./images/WERVEHB.png,,,,,,,,,,,,,,,,,,,,,
,,,,,,,,,,,,,,,,,200200,19,2022-01-28_16h48.03.308,lexical_decision_task_DD_L3,2021.2.3,Win32,60.20469597,,,,,,,,,,,0.5007,1,,,,,,,,,,,,,,m,1,0.5007,,,,,,,,0.035185269,-0.436111139,0,0,0,,0,48,48,39,1,SHELF,LB,old,m,./images/SHELFLB.png,,,,,,,,,,,,,,,,,,,,,
,,,,,,,,,,,,,,,,,200200,19,2022-01-28_16h48.03.308,lexical_decision_task_DD_L3,2021.2.3,Win32,60.20469597,,,,,,,,,,,0.5335,1,,,,,,,,,,,,,,m,1,0.5335,,,,,,,,0.035185269,-0.436111139,0,0,0,,0,49,49,48,1,SPORT,LB,old,m,./images/SPORTLB.png,,,,,,,,,,,,,,,,,,,,,
,,,,,,,,,,,,,,,,,200200,19,2022-01-28_16h48.03.308,lexical_decision_task_DD_L3,2021.2.3,Win32,60.20469597,,,,,,,,,,,0.9673,1,,,,,,,,,,,,,,z,1,0.9673,,,,,,,,0.035185269,-0.436111139,0,0,0,,0,50,50,157,1,INLER,HB,old,z,./images/INLERHB.png,,,,,,,,,,,,,,,,,,,,,
,,,,,,,,,,,,,,,,,200200,19,2022-01-28_16h48.03.308,lexical_decision_task_DD_L3,2021.2.3,Win32,60.20469597,,,,,,,,,,,0.6253,1,,,,,,,,,,,,,,m,1,0.6253,,,,,,,,0.035185269,-0.436111139,0,0,0,,0,51,51,13,1,MOTOR,C,old,m,./images/MOTOR.png,,,,,,,,,,,,,,,,,,,,,
,,,,,,,,,,,,,,,,,200200,19,2022-01-28_16h48.03.308,lexical_decision_task_DD_L3,2021.2.3,Win32,60.20469597,,,,,,,,,,,0.4679,1,,,,,,,,,,,,,,m,1,0.4679,,,,,,,,0.035185269,-0.436111139,0,0,0,,0,52,52,7,1,PAINT,C,old,m,./images/PAINT.png,,,,,,,,,,,,,,,,,,,,,
,,,,,,,,,,,,,,,,,200200,19,2022-01-28_16h48.03.308,lexical_decision_task_DD_L3,2021.2.3,Win32,60.20469597,,,,,,,,,,,0.4503,0,,,,,,,,,,,,,,z,0,0.4503,,,,,,,,0.035185269,-0.436111139,0,0,0,,0,53,53,35,1,PEACH,HB,old,m,./images/PEACHHB.png,,,,,,,,,,,,,,,,,,,,,
,,,,,,,,,,,,,,,,,200200,19,2022-01-28_16h48.03.308,lexical_decision_task_DD_L3,2021.2.3,Win32,60.20469597,,,,,,,,,,,1.4074,1,,,,,,,,,,,,,,z,1,1.4074,,,,,,,,0.035185269,-0.436111139,0,0,0,,0,54,54,106,1,CLUMS,HB,old,z,./images/CLUMSHB.png,,,,,,,,,,,,,,,,,,,,,
,,,,,,,,,,,,,,,,,200200,19,2022-01-28_16h48.03.308,lexical_decision_task_DD_L3,2021.2.3,Win32,60.20469597,,,,,,,,,,,0.9076,1,,,,,,,,,,,,,,m,1,0.9076,,,,,,,,0.035185269,-0.436111139,0,0,0,,0,55,55,74,1,CEMENT,HB,old,m,./images/CEMENTHB.png,,,,,,,,,,,,,,,,,,,,,
,,,,,,,,,,,,,,,,,200200,19,2022-01-28_16h48.03.308,lexical_decision_task_DD_L3,2021.2.3,Win32,60.20469597,,,,,,,,,,,0.791,1,,,,,,,,,,,,,,z,1,0.791,,,,,,,,0.035185269,-0.436111139,0,0,0,,0,56,56,116,1,BALGY,LB,old,z,./images/BALGYLB.png,,,,,,,,,,,,,,,,,,,,,
,,,,,,,,,,,,,,,,,200200,19,2022-01-28_16h48.03.308,lexical_decision_task_DD_L3,2021.2.3,Win32,60.20469597,,,,,,,,,,,0.6001,1,,,,,,,,,,,,,,z,1,0.6001,,,,,,,,0.035185269,-0.436111139,0,0,0,,0,57,57,126,1,GUELS,C,old,z,./images/GUELS.png,,,,,,,,,,,,,,,,,,,,,
,,,,,,,,,,,,,,,,,200200,19,2022-01-28_16h48.03.308,lexical_decision_task_DD_L3,2021.2.3,Win32,60.20469597,,,,,,,,,,,1.2336,0,,,,,,,,,,,,,,m,0,1.2336,,,,,,,,0.035185269,-0.436111139,0,0,0,,0,58,58,100,1,DRIBS,HB,old,z,./images/DRIBSHB.png,,,,,,,,,,,,,,,,,,,,,
,,,,,,,,,,,,,,,,,200200,19,2022-01-28_16h48.03.308,lexical_decision_task_DD_L3,2021.2.3,Win32,60.20469597,,,,,,,,,,,0.655,1,,,,,,,,,,,,,,z,1,0.655,,,,,,,,0.035185269,-0.436111139,0,0,0,,0,59,59,89,1,DRIEK,LB,old,z,./images/DRIEKLB.png,,,,,,,,,,,,,,,,,,,,,
,,,,,,,,,,,,,,,,,200200,19,2022-01-28_16h48.03.308,lexical_decision_task_DD_L3,2021.2.3,Win32,60.20469597,,,,,,,,,,,1.0202,1,,,,,,,,,,,,,,z,1,1.0202,,,,,,,,0.035185269,-0.436111139,0,0,0,,0,60,60,139,1,BLEAR,HB,old,z,./images/BLEARHB.png,,,,,,,,,,,,,,,,,,,,,
,,,,,,,,,,,,,,,,,200200,19,2022-01-28_16h48.03.308,lexical_decision_task_DD_L3,2021.2.3,Win32,60.20469597,,,,,,,,,,,0.4514,1,,,,,,,,,,,,,,m,1,0.4514,,,,,,,,0.035185269,-0.436111139,0,0,0,,0,61,61,51,1,ONION,LB,old,m,./images/ONIONLB.png,,,,,,,,,,,,,,,,,,,,,
,,,,,,,,,,,,,,,,,200200,19,2022-01-28_16h48.03.308,lexical_decision_task_DD_L3,2021.2.3,Win32,60.20469597,,,,,,,,,,,1.1563,1,,,,,,,,,,,,,,z,1,1.1563,,,,,,,,0.035185269,-0.436111139,0,0,0,,0,62,62,85,1,CHULK,HB,old,z,./images/CHULKHB.png,,,,,,,,,,,,,,,,,,,,,
,,,,,,,,,,,,,,,,,200200,19,2022-01-28_16h48.03.308,lexical_decision_task_DD_L3,2021.2.3,Win32,60.20469597,,,,,,,,,,,0.6009,1,,,,,,,,,,,,,,m,1,0.6009,,,,,,,,0.035185269,-0.436111139,0,0,0,,0,63,63,71,1,PIMPLE,HB,old,m,./images/PIMPLEHB.png,,,,,,,,,,,,,,,,,,,,,
,,,,,,,,,,,,,,,,,200200,19,2022-01-28_16h48.03.308,lexical_decision_task_DD_L3,2021.2.3,Win32,60.20469597,,,,,,,,,,,0.6501,1,,,,,,,,,,,,,,z,1,0.6501,,,,,,,,0.035185269,-0.436111139,0,0,0,,0,64,64,111,1,HOSSE,C,old,z,./images/HOSSE.png,,,,,,,,,,,,,,,,,,,,,
,,,,,,,,,,,,,,,,,200200,19,2022-01-28_16h48.03.308,lexical_decision_task_DD_L3,2021.2.3,Win32,60.20469597,,,,,,,,,,,0.6838,1,,,,,,,,,,,,,,m,1,0.6838,,,,,,,,0.035185269,-0.436111139,0,0,0,,0,65,65,18,1,JAGUAR,LB,old,m,./images/JAGUARLB.png,,,,,,,,,,,,,,,,,,,,,
,,,,,,,,,,,,,,,,,200200,19,2022-01-28_16h48.03.308,lexical_decision_task_DD_L3,2021.2.3,Win32,60.20469597,,,,,,,,,,,1.1014,1,,,,,,,,,,,,,,z,1,1.1014,,,,,,,,0.035185269,-0.436111139,0,0,0,,0,66,66,103,1,FLORT,HB,old,z,./images/FLORTHB.png,,,,,,,,,,,,,,,,,,,,,
,,,,,,,,,,,,,,,,,200200,19,2022-01-28_16h48.03.308,lexical_decision_task_DD_L3,2021.2.3,Win32,60.20469597,,,,,,,,,,,1.1006,1,,,,,,,,,,,,,,m,1,1.1006,,,,,,,,0.035185269,-0.436111139,0,0,0,,0,67,67,26,1,SMOKER,HB,old,m,./images/SMOKERHB.png,,,,,,,,,,,,,,,,,,,,,
,,,,,,,,,,,,,,,,,200200,19,2022-01-28_16h48.03.308,lexical_decision_task_DD_L3,2021.2.3,Win32,60.20469597,,,,,,,,,,,1.2336,1,,,,,,,,,,,,,,z,1,1.2336,,,,,,,,0.035185269,-0.436111139,0,0,0,,0,68,68,142,1,PLASK,HB,old,z,./images/PLASKHB.png,,,,,,,,,,,,,,,,,,,,,
,,,,,,,,,,,,,,,,,200200,19,2022-01-28_16h48.03.308,lexical_decision_task_DD_L3,2021.2.3,Win32,60.20469597,,,,,,,,,,,0.5757,1,,,,,,,,,,,,,,m,1,0.5757,,,,,,,,0.035185269,-0.436111139,0,0,0,,0,69,69,78,1,LITTER,LB,old,m,./images/LITTERLB.png,,,,,,,,,,,,,,,,,,,,,
,,,,,,,,,,,,,,,,,200200,19,2022-01-28_16h48.03.308,lexical_decision_task_DD_L3,2021.2.3,Win32,60.20469597,,,,,,,,,,,0.5002,1,,,,,,,,,,,,,,m,1,0.5002,,,,,,,,0.035185269,-0.436111139,0,0,0,,0,70,70,82,1,SUNSET,C,old,m,./images/SUNSET.png,,,,,,,,,,,,,,,,,,,,,
,,,,,,,,,,,,,,,,,200200,19,2022-01-28_16h48.03.308,lexical_decision_task_DD_L3,2021.2.3,Win32,60.20469597,,,,,,,,,,,0.4507,1,,,,,,,,,,,,,,m,1,0.4507,,,,,,,,0.035185269,-0.436111139,0,0,0,,0,71,71,19,1,DOUGH,C,old,m,./images/DOUGH.png,,,,,,,,,,,,,,,,,,,,,
,,,,,,,,,,,,,,,,,200200,19,2022-01-28_16h48.03.308,lexical_decision_task_DD_L3,2021.2.3,Win32,60.20469597,,,,,,,,,,,0.6387,1,,,,,,,,,,,,,,z,1,0.6387,,,,,,,,0.035185269,-0.436111139,0,0,0,,0,72,72,167,1,ZONET,LB,old,z,./images/ZONETLB.png,,,,,,,,,,,,,,,,,,,,,
,,,,,,,,,,,,,,,,,200200,19,2022-01-28_16h48.03.308,lexical_decision_task_DD_L3,2021.2.3,Win32,60.20469597,,,,,,,,,,,0.6022,1,,,,,,,,,,,,,,m,1,0.6022,,,,,,,,0.035185269,-0.436111139,0,0,0,,0,73,73,81,1,POODLE,LB,old,m,./images/POODLELB.png,,,,,,,,,,,,,,,,,,,,,
,,,,,,,,,,,,,,,,,200200,19,2022-01-28_16h48.03.308,lexical_decision_task_DD_L3,2021.2.3,Win32,60.20469597,,,,,,,,,,,0.5336,1,,,,,,,,,,,,,,z,1,0.5336,,,,,,,,0.035185269,-0.436111139,0,0,0,,0,74,74,84,1,HAXES,C,old,z,./images/HAXES.png,,,,,,,,,,,,,,,,,,,,,
,,,,,,,,,,,,,,,,,200200,19,2022-01-28_16h48.03.308,lexical_decision_task_DD_L3,2021.2.3,Win32,60.20469597,,,,,,,,,,,0.6502,1,,,,,,,,,,,,,,m,1,0.6502,,,,,,,,0.035185269,-0.436111139,0,0,0,,0,75,75,14,1,PICKLE,HB,old,m,./images/PICKLEHB.png,,,,,,,,,,,,,,,,,,,,,
,,,,,,,,,,,,,,,,,200200,19,2022-01-28_16h48.03.308,lexical_decision_task_DD_L3,2021.2.3,Win32,60.20469597,,,,,,,,,,,0.6245,0,,,,,,,,,,,,,,z,0,0.6245,,,,,,,,0.035185269,-0.436111139,0,0,0,,0,76,76,16,1,PENCE,C,old,m,./images/PENCE.png,,,,,,,,,,,,,,,,,,,,,
,,,,,,,,,,,,,,,,,200200,19,2022-01-28_16h48.03.308,lexical_decision_task_DD_L3,2021.2.3,Win32,60.20469597,,,,,,,,,,,0.6713,1,,,,,,,,,,,,,,z,1,0.6713,,,,,,,,0.035185269,-0.436111139,0,0,0,,0,77,77,120,1,RINED,C,old,z,./images/RINED.png,,,,,,,,,,,,,,,,,,,,,
,,,,,,,,,,,,,,,,,200200,19,2022-01-28_16h48.03.308,lexical_decision_task_DD_L3,2021.2.3,Win32,60.20469597,,,,,,,,,,,0.5696,1,,,,,,,,,,,,,,z,1,0.5696,,,,,,,,0.035185269,-0.436111139,0,0,0,,0,78,78,132,1,SCIFF,C,old,z,./images/SCIFF.png,,,,,,,,,,,,,,,,,,,,,
,,,,,,,,,,,,,,,,,200200,19,2022-01-28_16h48.03.308,lexical_decision_task_DD_L3,2021.2.3,Win32,60.20469597,,,,,,,,,,,0.4841,1,,,,,,,,,,,,,,m,1,0.4841,,,,,,,,0.035185269,-0.436111139,0,0,0,,0,79,79,61,1,CANDLE,C,old,m,./images/CANDLE.png,,,,,,,,,,,,,,,,,,,,,
,,,,,,,,,,,,,,,,,200200,19,2022-01-28_16h48.03.308,lexical_decision_task_DD_L3,2021.2.3,Win32,60.20469597,,,,,,,,,,,0.934,0,,,,,,,,,,,,,,m,0,0.934,,,,,,,,0.035185269,-0.436111139,0,0,0,,0,80,80,166,1,SHORY,HB,old,z,./images/SHORYHB.png,,,,,,,,,,,,,,,,,,,,,
,,,,,,,,,,,,,,,,,200200,19,2022-01-28_16h48.03.308,lexical_decision_task_DD_L3,2021.2.3,Win32,60.20469597,,,,,,,,,,,0.7036,1,,,,,,,,,,,,,,m,1,0.7036,,,,,,,,0.035185269,-0.436111139,0,0,0,,0,81,81,47,1,BERRY,HB,old,m,./images/BERRYHB.png,,,,,,,,,,,,,,,,,,,,,
,,,,,,,,,,,,,,,,,200200,19,2022-01-28_16h48.03.308,lexical_decision_task_DD_L3,2021.2.3,Win32,60.20469597,,,,,,,,,,,0.5003,1,,,,,,,,,,,,,,m,1,0.5003,,,,,,,,0.035185269,-0.436111139,0,0,0,,0,82,82,64,1,JELLY,C,old,m,./images/JELLY.png,,,,,,,,,,,,,,,,,,,,,
,,,,,,,,,,,,,,,,,200200,19,2022-01-28_16h48.03.308,lexical_decision_task_DD_L3,2021.2.3,Win32,60.20469597,,,,,,,,,,,0.7837,1,,,,,,,,,,,,,,z,1,0.7837,,,,,,,,0.035185269,-0.436111139,1,0,0,,0,83,83,94,1,BLANS,HB,old,z,./images/BLANSHB.png,break_done_button,,,,,,,,,,,,,,,,,,,,
,,,,,,,,,,,,,,,,,200200,19,2022-01-28_16h48.03.308,lexical_decision_task_DD_L3,2021.2.3,Win32,60.20469597,,,,,,,,,,,0.4672,1,,,,,,,,,,,,,,m,1,0.4672,,,,,,,,0.035185269,-0.436111139,0,0,0,,0,84,84,79,1,CRUST,C,old,m,./images/CRUST.png,,,,,,,,,,,,,,,,,,,,,
,,,,,,,,,,,,,,,,,200200,19,2022-01-28_16h48.03.308,lexical_decision_task_DD_L3,2021.2.3,Win32,60.20469597,,,,,,,,,,,0.4672,1,,,,,,,,,,,,,,m,1,0.4672,,,,,,,,0.035185269,-0.436111139,0,0,0,,0,85,85,70,1,URINE,C,old,m,./images/URINE.png,,,,,,,,,,,,,,,,,,,,,
,,,,,,,,,,,,,,,,,200200,19,2022-01-28_16h48.03.308,lexical_decision_task_DD_L3,2021.2.3,Win32,60.20469597,,,,,,,,,,,0.5009,1,,,,,,,,,,,,,,z,1,0.5009,,,,,,,,0.035185269,-0.436111139,0,0,0,,0,86,86,135,1,JOODY,C,old,z,./images/JOODY.png,,,,,,,,,,,,,,,,,,,,,
,,,,,,,,,,,,,,,,,200200,19,2022-01-28_16h48.03.308,lexical_decision_task_DD_L3,2021.2.3,Win32,60.20469597,,,,,,,,,,,0.4346,1,,,,,,,,,,,,,,m,1,0.4346,,,,,,,,0.035185269,-0.436111139,0,0,0,,0,87,87,73,1,SNACK,C,old,m,./images/SNACK.png,,,,,,,,,,,,,,,,,,,,,
,,,,,,,,,,,,,,,,,200200,19,2022-01-28_16h48.03.308,lexical_decision_task_DD_L3,2021.2.3,Win32,60.20469597,,,,,,,,,,,0.6335,1,,,,,,,,,,,,,,z,1,0.6335,,,,,,,,0.035185269,-0.436111139,0,0,0,,0,88,88,122,1,BLOOT,LB,old,z,./images/BLOOTLB.png,,,,,,,,,,,,,,,,,,,,,
,,,,,,,,,,,,,,,,,200200,19,2022-01-28_16h48.03.308,lexical_decision_task_DD_L3,2021.2.3,Win32,60.20469597,,,,,,,,,,,0.618,1,,,,,,,,,,,,,,z,1,0.618,,,,,,,,0.035185269,-0.436111139,0,0,0,,0,89,89,98,1,BAMPS,LB,old,z,./images/BAMPSLB.png,,,,,,,,,,,,,,,,,,,,,
,,,,,,,,,,,,,,,,,200200,19,2022-01-28_16h48.03.308,lexical_decision_task_DD_L3,2021.2.3,Win32,60.20469597,,,,,,,,,,,0.4504,1,,,,,,,,,,,,,,m,1,0.4504,,,,,,,,0.035185269,-0.436111139,0,0,0,,0,90,90,60,1,TWINS,LB,old,m,./images/TWINSLB.png,,,,,,,,,,,,,,,,,,,,,
,,,,,,,,,,,,,,,,,200200,19,2022-01-28_16h48.03.308,lexical_decision_task_DD_L3,2021.2.3,Win32,60.20469597,,,,,,,,,,,1.1202,1,,,,,,,,,,,,,,z,1,1.1202,,,,,,,,0.035185269,-0.436111139,0,0,0,,0,91,91,127,1,NINDY,HB,old,z,./images/NINDYHB.png,,,,,,,,,,,,,,,,,,,,,
,,,,,,,,,,,,,,,,,200200,19,2022-01-28_16h48.03.308,lexical_decision_task_DD_L3,2021.2.3,Win32,60.20469597,,,,,,,,,,,0.4551,1,,,,,,,,,,,,,,m,1,0.4551,,,,,,,,0.035185269,-0.436111139,0,0,0,,0,92,92,69,1,COOKER,LB,old,m,./images/COOKERLB.png,,,,,,,,,,,,,,,,,,,,,
,,,,,,,,,,,,,,,,,200200,19,2022-01-28_16h48.03.308,lexical_decision_task_DD_L3,2021.2.3,Win32,60.20469597,,,,,,,,,,,0.4334,1,,,,,,,,,,,,,,m,1,0.4334,,,,,,,,0.035185269,-0.436111139,0,0,0,,0,93,93,10,1,BELLY,C,old,m,./images/BELLY.png,,,,,,,,,,,,,,,,,,,,,
,,,,,,,,,,,,,,,,,200200,19,2022-01-28_16h48.03.308,lexical_decision_task_DD_L3,2021.2.3,Win32,60.20469597,,,,,,,,,,,0.4671,1,,,,,,,,,,,,,,m,1,0.4671,,,,,,,,0.035185269,-0.436111139,0,0,0,,0,94,94,30,1,STORM,LB,old,m,./images/STORMLB.png,,,,,,,,,,,,,,,,,,,,,
,,,,,,,,,,,,,,,,,200200,19,2022-01-28_16h48.03.308,lexical_decision_task_DD_L3,2021.2.3,Win32,60.20469597,,,,,,,,,,,0.6839,1,,,,,,,,,,,,,,z,1,0.6839,,,,,,,,0.035185269,-0.436111139,0,0,0,,0,95,95,125,1,MOOKY,LB,old,z,./images/MOOKYLB.png,,,,,,,,,,,,,,,,,,,,,
,,,,,,,,,,,,,,,,,200200,19,2022-01-28_16h48.03.308,lexical_decision_task_DD_L3,2021.2.3,Win32,60.20469597,,,,,,,,,,,0.618,1,,,,,,,,,,,,,,z,1,0.618,,,,,,,,0.035185269,-0.436111139,0,0,0,,0,96,96,153,1,CLUPS,C,old,z,./images/CLUPS.png,,,,,,,,,,,,,,,,,,,,,
,,,,,,,,,,,,,,,,,200200,19,2022-01-28_16h48.03.308,lexical_decision_task_DD_L3,2021.2.3,Win32,60.20469597,,,,,,,,,,,0.8548,1,,,,,,,,,,,,,,z,1,0.8548,,,,,,,,0.035185269,-0.436111139,0,0,0,,0,97,97,110,1,CRUNK,LB,old,z,./images/CRUNKLB.png,,,,,,,,,,,,,,,,,,,,,
,,,,,,,,,,,,,,,,,200200,19,2022-01-28_16h48.03.308,lexical_decision_task_DD_L3,2021.2.3,Win32,60.20469597,,,,,,,,,,,0.5166,1,,,,,,,,,,,,,,z,1,0.5166,,,,,,,,0.035185269,-0.436111139,0,0,0,,0,98,98,113,1,LINEW,LB,old,z,./images/LINEWLB.png,,,,,,,,,,,,,,,,,,,,,
,,,,,,,,,,,,,,,,,200200,19,2022-01-28_16h48.03.308,lexical_decision_task_DD_L3,2021.2.3,Win32,60.20469597,,,,,,,,,,,0.6686,1,,,,,,,,,,,,,,m,1,0.6686,,,,,,,,0.035185269,-0.436111139,0,0,0,,0,99,99,76,1,INFANT,C,old,m,./images/INFANT.png,,,,,,,,,,,,,,,,,,,,,
,,,,,,,,,,,,,,,,,200200,19,2022-01-28_16h48.03.308,lexical_decision_task_DD_L3,2021.2.3,Win32,60.20469597,,,,,,,,,,,0.6173,1,,,,,,,,,,,,,,z,1,0.6173,,,,,,,,0.035185269,-0.436111139,0,0,0,,0,100,100,95,1,HANTY,LB,old,z,./images/HANTYLB.png,,,,,,,,,,,,,,,,,,,,,
,,,,,,,,,,,,,,,,,200200,19,2022-01-28_16h48.03.308,lexical_decision_task_DD_L3,2021.2.3,Win32,60.20469597,,,,,,,,,,,0.7503,1,,,,,,,,,,,,,,z,1,0.7503,,,,,,,,0.035185269,-0.436111139,0,0,0,,0,101,101,146,1,MOOST,LB,old,z,./images/MOOSTLB.png,,,,,,,,,,,,,,,,,,,,,
,,,,,,,,,,,,,,,,,200200,19,2022-01-28_16h48.03.308,lexical_decision_task_DD_L3,2021.2.3,Win32,60.20469597,,,,,,,,,,,0.4589,1,,,,,,,,,,,,,,m,1,0.4589,,,,,,,,0.035185269,-0.436111139,0,0,0,,0,102,102,63,1,MIRROR,LB,old,m,./images/MIRRORLB.png,,,,,,,,,,,,,,,,,,,,,
,,,,,,,,,,,,,,,,,200200,19,2022-01-28_16h48.03.308,lexical_decision_task_DD_L3,2021.2.3,Win32,60.20469597,,,,,,,,,,,0.52,1,,,,,,,,,,,,,,z,1,0.52,,,,,,,,0.035185269,-0.436111139,0,0,0,,0,103,103,104,1,GITTY,LB,old,z,./images/GITTYLB.png,,,,,,,,,,,,,,,,,,,,,
,,,,,,,,,,,,,,,,,200200,19,2022-01-28_16h48.03.308,lexical_decision_task_DD_L3,2021.2.3,Win32,60.20469597,,,,,,,,,,,0.5171,1,,,,,,,,,,,,,,m,1,0.5171,,,,,,,,0.035185269,-0.436111139,0,0,0,,0,104,104,46,1,PEARL,C,old,m,./images/PEARL.png,,,,,,,,,,,,,,,,,,,,,
,,,,,,,,,,,,,,,,,200200,19,2022-01-28_16h48.03.308,lexical_decision_task_DD_L3,2021.2.3,Win32,60.20469597,,,,,,,,,,,0.7241,1,,,,,,,,,,,,,,z,1,0.7241,,,,,,,,0.035185269,-0.436111139,0,0,0,,0,105,105,105,1,MOKER,C,old,z,./images/MOKER.png,,,,,,,,,,,,,,,,,,,,,
,,,,,,,,,,,,,,,,,200200,19,2022-01-28_16h48.03.308,lexical_decision_task_DD_L3,2021.2.3,Win32,60.20469597,,,,,,,,,,,0.5331,1,,,,,,,,,,,,,,z,1,0.5331,,,,,,,,0.035185269,-0.436111139,0,0,0,,0,106,106,87,1,TRING,C,old,z,./images/TRING.png,,,,,,,,,,,,,,,,,,,,,
,,,,,,,,,,,,,,,,,200200,19,2022-01-28_16h48.03.308,lexical_decision_task_DD_L3,2021.2.3,Win32,60.20469597,,,,,,,,,,,0.6664,1,,,,,,,,,,,,,,z,1,0.6664,,,,,,,,0.035185269,-0.436111139,0,0,0,,0,107,107,86,1,AIFED,LB,old,z,./images/AIFEDLB.png,,,,,,,,,,,,,,,,,,,,,
,,,,,,,,,,,,,,,,,200200,19,2022-01-28_16h48.03.308,lexical_decision_task_DD_L3,2021.2.3,Win32,60.20469597,,,,,,,,,,,0.7674,1,,,,,,,,,,,,,,m,1,0.7674,,,,,,,,0.035185269,-0.436111139,0,0,0,,0,108,108,23,1,WALRUS,HB,old,m,./images/WALRUSHB.png,,,,,,,,,,,,,,,,,,,,,
,,,,,,,,,,,,,,,,,200200,19,2022-01-28_16h48.03.308,lexical_decision_task_DD_L3,2021.2.3,Win32,60.20469597,,,,,,,,,,,0.5093,1,,,,,,,,,,,,,,z,1,0.5093,,,,,,,,0.035185269,-0.436111139,0,0,0,,0,109,109,156,1,HIXES,C,old,z,./images/HIXES.png,,,,,,,,,,,,,,,,,,,,,
,,,,,,,,,,,,,,,,,200200,19,2022-01-28_16h48.03.308,lexical_decision_task_DD_L3,2021.2.3,Win32,60.20469597,,,,,,,,,,,1.5668,1,,,,,,,,,,,,,,z,1,1.5668,,,,,,,,0.035185269,-0.436111139,0,0,0,,0,110,110,151,1,TINKY,HB,old,z,./images/TINKYHB.png,,,,,,,,,,,,,,,,,,,,,
,,,,,,,,,,,,,,,,,200200,19,2022-01-28_16h48.03.308,lexical_decision_task_DD_L3,2021.2.3,Win32,60.20469597,,,,,,,,,,,0.5057,1,,,,,,,,,,,,,,m,1,0.5057,,,,,,,,0.035185269,-0.436111139,0,0,0,,0,111,111,34,1,CANYON,C,old,m,./images/CANYON.png,,,,,,,,,,,,,,,,,,,,,
,,,,,,,,,,,,,,,,,200200,19,2022-01-28_16h48.03.308,lexical_decision_task_DD_L3,2021.2.3,Win32,60.20469597,,,,,,,,,,,0.5688,1,,,,,,,,,,,,,,z,1,0.5688,,,,,,,,0.035185269,-0.436111139,0,0,0,,0,112,112,117,1,STEEG,C,old,z,./images/STEEG.png,,,,,,,,,,,,,,,,,,,,,
,,,,,,,,,,,,,,,,,200200,19,2022-01-28_16h48.03.308,lexical_decision_task_DD_L3,2021.2.3,Win32,60.20469597,,,,,,,,,,,0.5163,1,,,,,,,,,,,,,,m,1,0.5163,,,,,,,,0.035185269,-0.436111139,0,0,0,,0,113,113,67,1,SAILOR,C,old,m,./images/SAILOR.png,,,,,,,,,,,,,,,,,,,,,
,,,,,,,,,,,,,,,,,200200,19,2022-01-28_16h48.03.308,lexical_decision_task_DD_L3,2021.2.3,Win32,60.20469597,,,,,,,,,,,0.7068,1,,,,,,,,,,,,,,m,1,0.7068,,,,,,,,0.035185269,-0.436111139,0,0,0,,0,114,114,41,1,STRING,HB,old,m,./images/STRINGHB.png,,,,,,,,,,,,,,,,,,,,,
,,,,,,,,,,,,,,,,,200200,19,2022-01-28_16h48.03.308,lexical_decision_task_DD_L3,2021.2.3,Win32,60.20469597,,,,,,,,,,,0.5732,1,,,,,,,,,,,,,,z,1,0.5732,,,,,,,,0.035185269,-0.436111139,0,0,0,,0,115,115,165,1,TROWN,C,old,z,./images/TROWN.png,,,,,,,,,,,,,,,,,,,,,
,,,,,,,,,,,,,,,,,200200,19,2022-01-28_16h48.03.308,lexical_decision_task_DD_L3,2021.2.3,Win32,60.20469597,,,,,,,,,,,1.2181,1,,,,,,,,,,,,,,z,1,1.2181,,,,,,,,0.035185269,-0.436111139,0,0,0,,0,116,116,121,1,CEERS,HB,old,z,./images/CEERSHB.png,,,,,,,,,,,,,,,,,,,,,
,,,,,,,,,,,,,,,,,200200,19,2022-01-28_16h48.03.308,lexical_decision_task_DD_L3,2021.2.3,Win32,60.20469597,,,,,,,,,,,0.4668,1,,,,,,,,,,,,,,m,1,0.4668,,,,,,,,0.035185269,-0.436111139,0,0,0,,0,117,117,4,1,MUSCLE,C,old,m,./images/MUSCLE.png,,,,,,,,,,,,,,,,,,,,,
,,,,,,,,,,,,,,,,,200200,19,2022-01-28_16h48.03.308,lexical_decision_task_DD_L3,2021.2.3,Win32,60.20469597,,,,,,,,,,,0.517,1,,,,,,,,,,,,,,z,1,0.517,,,,,,,,0.035185269,-0.436111139,0,0,0,,0,118,118,155,1,CANGY,LB,old,z,./images/CANGYLB.png,,,,,,,,,,,,,,,,,,,,,
,,,,,,,,,,,,,,,,,200200,19,2022-01-28_16h48.03.308,lexical_decision_task_DD_L3,2021.2.3,Win32,60.20469597,,,,,,,,,,,0.4338,1,,,,,,,,,,,,,,m,1,0.4338,,,,,,,,0.035185269,-0.436111139,0,0,0,,0,119,119,66,1,SWEAT,LB,old,m,./images/SWEATLB.png,,,,,,,,,,,,,,,,,,,,,
,,,,,,,,,,,,,,,,,200200,19,2022-01-28_16h48.03.308,lexical_decision_task_DD_L3,2021.2.3,Win32,60.20469597,,,,,,,,,,,1.639,1,,,,,,,,,,,,,,z,1,1.639,,,,,,,,0.035185269,-0.436111139,0,0,0,,0,120,120,91,1,SHENS,HB,old,z,./images/SHENSHB.png,,,,,,,,,,,,,,,,,,,,,
,,,,,,,,,,,,,,,,,200200,19,2022-01-28_16h48.03.308,lexical_decision_task_DD_L3,2021.2.3,Win32,60.20469597,,,,,,,,,,,0.7709,1,,,,,,,,,,,,,,m,1,0.7709,,,,,,,,0.035185269,-0.436111139,0,0,0,,0,121,121,42,1,FOLDER,LB,old,m,./images/FOLDERLB.png,,,,,,,,,,,,,,,,,,,,,
,,,,,,,,,,,,,,,,,200200,19,2022-01-28_16h48.03.308,lexical_decision_task_DD_L3,2021.2.3,Win32,60.20469597,,,,,,,,,,,0.8011,1,,,,,,,,,,,,,,m,1,0.8011,,,,,,,,0.035185269,-0.436111139,0,0,0,,0,122,122,59,1,BURIAL,HB,old,m,./images/BURIALHB.png,,,,,,,,,,,,,,,,,,,,,
,,,,,,,,,,,,,,,,,200200,19,2022-01-28_16h48.03.308,lexical_decision_task_DD_L3,2021.2.3,Win32,60.20469597,,,,,,,,,,,0.5407,1,,,,,,,,,,,,,,m,1,0.5407,,,,,,,,0.035185269,-0.436111139,0,0,0,,0,123,123,40,1,SWING,C,old,m,./images/SWING.png,,,,,,,,,,,,,,,,,,,,,
,,,,,,,,,,,,,,,,,200200,19,2022-01-28_16h48.03.308,lexical_decision_task_DD_L3,2021.2.3,Win32,60.20469597,,,,,,,,,,,0.7199,1,,,,,,,,,,,,,,m,1,0.7199,,,,,,,,0.035185269,-0.436111139,0,0,0,,0,124,124,43,1,MOSQUE,C,old,m,./images/MOSQUE.png,,,,,,,,,,,,,,,,,,,,,
,,,,,,,,,,,,,,,,,200200,19,2022-01-28_16h48.03.308,lexical_decision_task_DD_L3,2021.2.3,Win32,60.20469597,,,,,,,,,,,0.4506,1,,,,,,,,,,,,,,m,1,0.4506,,,,,,,,0.035185269,-0.436111139,1,0,0,,0,125,125,57,1,MOOSE,LB,old,m,./images/MOOSELB.png,break_done_button,,,,,,,,,,,,,,,,,,,,
,,,,,,,,,,,,,,,,,200200,19,2022-01-28_16h48.03.308,lexical_decision_task_DD_L3,2021.2.3,Win32,60.20469597,,,,,,,,,,,0.6094,1,,,,,,,,,,,,,,m,1,0.6094,,,,,,,,0.035185269,-0.436111139,0,0,0,,0,126,126,12,1,SHORE,LB,old,m,./images/SHORELB.png,,,,,,,,,,,,,,,,,,,,,
,,,,,,,,,,,,,,,,,200200,19,2022-01-28_16h48.03.308,lexical_decision_task_DD_L3,2021.2.3,Win32,60.20469597,,,,,,,,,,,0.7833,1,,,,,,,,,,,,,,m,1,0.7833,,,,,,,,0.035185269,-0.436111139,0,0,0,,0,127,127,25,1,WRIST,C,old,m,./images/WRIST.png,,,,,,,,,,,,,,,,,,,,,
,,,,,,,,,,,,,,,,,200200,19,2022-01-28_16h48.03.308,lexical_decision_task_DD_L3,2021.2.3,Win32,60.20469597,,,,,,,,,,,0.4337,1,,,,,,,,,,,,,,m,1,0.4337,,,,,,,,0.035185269,-0.436111139,0,0,0,,0,128,128,1,1,PLANK,C,old,m,./images/PLANK.png,,,,,,,,,,,,,,,,,,,,,
,,,,,,,,,,,,,,,,,200200,19,2022-01-28_16h48.03.308,lexical_decision_task_DD_L3,2021.2.3,Win32,60.20469597,,,,,,,,,,,0.4172,1,,,,,,,,,,,,,,m,1,0.4172,,,,,,,,0.035185269,-0.436111139,0,0,0,,0,129,129,55,1,MUFFIN,C,old,m,./images/MUFFIN.png,,,,,,,,,,,,,,,,,,,,,
,,,,,,,,,,,,,,,,,200200,19,2022-01-28_16h48.03.308,lexical_decision_task_DD_L3,2021.2.3,Win32,60.20469597,,,,,,,,,,,0.4832,1,,,,,,,,,,,,,,m,1,0.4832,,,,,,,,0.035185269,-0.436111139,0,0,0,,0,130,130,22,1,MELON,C,old,m,./images/MELON.png,,,,,,,,,,,,,,,,,,,,,
,,,,,,,,,,,,,,,,,200200,19,2022-01-28_16h48.03.308,lexical_decision_task_DD_L3,2021.2.3,Win32,60.20469597,,,,,,,,,,,0.5092,0,,,,,,,,,,,,,,m,0,0.5092,,,,,,,,0.035185269,-0.436111139,0,0,0,,0,131,131,92,1,PAIMS,LB,old,z,./images/PAIMSLB.png,,,,,,,,,,,,,,,,,,,,,
,,,,,,,,,,,,,,,,,200200,19,2022-01-28_16h48.03.308,lexical_decision_task_DD_L3,2021.2.3,Win32,60.20469597,,,,,,,,,,,0.7693,1,,,,,,,,,,,,,,z,1,0.7693,,,,,,,,0.035185269,-0.436111139,0,0,0,,0,132,132,123,1,SEDGE,C,old,z,./images/SEDGE.png,,,,,,,,,,,,,,,,,,,,,
,,,,,,,,,,,,,,,,,200200,19,2022-01-28_16h48.03.308,lexical_decision_task_DD_L3,2021.2.3,Win32,60.20469597,,,,,,,,,,,0.6171,1,,,,,,,,,,,,,,z,1,0.6171,,,,,,,,0.035185269,-0.436111139,0,0,0,,0,133,133,143,1,MONGS,LB,old,z,./images/MONGSLB.png,,,,,,,,,,,,,,,,,,,,,
,,,,,,,,,,,,,,,,,200200,19,2022-01-28_16h48.03.308,lexical_decision_task_DD_L3,2021.2.3,Win32,60.20469597,,,,,,,,,,,0.6524,1,,,,,,,,,,,,,,z,1,0.6524,,,,,,,,0.035185269,-0.436111139,0,0,0,,0,134,134,96,1,KEAMS,C,old,z,./images/KEAMS.png,,,,,,,,,,,,,,,,,,,,,
,,,,,,,,,,,,,,,,,200200,19,2022-01-28_16h48.03.308,lexical_decision_task_DD_L3,2021.2.3,Win32,60.20469597,,,,,,,,,,,1.2865,1,,,,,,,,,,,,,,z,1,1.2865,,,,,,,,0.035185269,-0.436111139,0,0,0,,0,135,135,141,1,PLEET,C,old,z,./images/PLEET.png,,,,,,,,,,,,,,,,,,,,,
,,,,,,,,,,,,,,,,,200200,19,2022-01-28_16h48.03.308,lexical_decision_task_DD_L3,2021.2.3,Win32,60.20469597,,,,,,,,,,,0.7192,1,,,,,,,,,,,,,,z,1,0.7192,,,,,,,,0.035185269,-0.436111139,0,0,0,,0,136,136,164,1,SGREW,LB,old,z,./images/SGREWLB.png,,,,,,,,,,,,,,,,,,,,,
,,,,,,,,,,,,,,,,,200200,19,2022-01-28_16h48.03.308,lexical_decision_task_DD_L3,2021.2.3,Win32,60.20469597,,,,,,,,,,,0.4338,1,,,,,,,,,,,,,,m,1,0.4338,,,,,,,,0.035185269,-0.436111139,0,0,0,,0,137,137,37,1,BIRTH,C,old,m,./images/BIRTH.png,,,,,,,,,,,,,,,,,,,,,
,,,,,,,,,,,,,,,,,200200,19,2022-01-28_16h48.03.308,lexical_decision_task_DD_L3,2021.2.3,Win32,60.20469597,,,,,,,,,,,1.7843,0,,,,,,,,,,,,,,m,0,1.7843,,,,,,,,0.035185269,-0.436111139,0,0,0,,0,138,138,152,1,FRAIN,LB,old,z,./images/FRAINLB.png,,,,,,,,,,,,,,,,,,,,,
,,,,,,,,,,,,,,,,,200200,19,2022-01-28_16h48.03.308,lexical_decision_task_DD_L3,2021.2.3,Win32,60.20469597,,,,,,,,,,,0.5014,1,,,,,,,,,,,,,,m,1,0.5014,,,,,,,,0.035185269,-0.436111139,0,0,0,,0,139,139,15,1,GREASE,LB,old,m,./images/GREASELB.png,,,,,,,,,,,,,,,,,,,,,
,,,,,,,,,,,,,,,,,200200,19,2022-01-28_16h48.03.308,lexical_decision_task_DD_L3,2021.2.3,Win32,60.20469597,,,,,,,,,,,0.6856,1,,,,,,,,,,,,,,m,1,0.6856,,,,,,,,0.035185269,-0.436111139,0,0,0,,0,140,140,62,1,PURSE,HB,old,m,./images/PURSEHB.png,,,,,,,,,,,,,,,,,,,,,
,,,,,,,,,,,,,,,,,200200,19,2022-01-28_16h48.03.308,lexical_decision_task_DD_L3,2021.2.3,Win32,60.20469597,,,,,,,,,,,0.5841,1,,,,,,,,,,,,,,m,1,0.5841,,,,,,,,0.035185269,-0.436111139,0,0,0,,0,141,141,21,1,KIDNEY,LB,old,m,./images/KIDNEYLB.png,,,,,,,,,,,,,,,,,,,,,
,,,,,,,,,,,,,,,,,200200,19,2022-01-28_16h48.03.308,lexical_decision_task_DD_L3,2021.2.3,Win32,60.20469597,,,,,,,,,,,0.7501,1,,,,,,,,,,,,,,z,1,0.7501,,,,,,,,0.035185269,-0.436111139,0,0,0,,0,142,142,93,1,SMONE,C,old,z,./images/SMONE.png,,,,,,,,,,,,,,,,,,,,,
,,,,,,,,,,,,,,,,,200200,19,2022-01-28_16h48.03.308,lexical_decision_task_DD_L3,2021.2.3,Win32,60.20469597,,,,,,,,,,,0.6336,1,,,,,,,,,,,,,,z,1,0.6336,,,,,,,,0.035185269,-0.436111139,0,0,0,,0,143,143,119,1,PAFER,LB,old,z,./images/PAFERLB.png,,,,,,,,,,,,,,,,,,,,,
,,,,,,,,,,,,,,,,,200200,19,2022-01-28_16h48.03.308,lexical_decision_task_DD_L3,2021.2.3,Win32,60.20469597,,,,,,,,,,,0.867,1,,,,,,,,,,,,,,z,1,0.867,,,,,,,,0.035185269,-0.436111139,0,0,0,,0,144,144,118,1,BAVEL,HB,old,z,./images/BAVELHB.png,,,,,,,,,,,,,,,,,,,,,
,,,,,,,,,,,,,,,,,200200,19,2022-01-28_16h48.03.308,lexical_decision_task_DD_L3,2021.2.3,Win32,60.20469597,,,,,,,,,,,0.6506,1,,,,,,,,,,,,,,m,1,0.6506,,,,,,,,0.035185269,-0.436111139,0,0,0,,0,145,145,2,1,BEARD,HB,old,m,./images/BEARDHB.png,,,,,,,,,,,,,,,,,,,,,
,,,,,,,,,,,,,,,,,200200,19,2022-01-28_16h48.03.308,lexical_decision_task_DD_L3,2021.2.3,Win32,60.20469597,,,,,,,,,,,0.4832,1,,,,,,,,,,,,,,m,1,0.4832,,,,,,,,0.035185269,-0.436111139,0,0,0,,0,146,146,0,1,TOMATO,LB,old,m,./images/TOMATOLB.png,,,,,,,,,,,,,,,,,,,,,
,,,,,,,,,,,,,,,,,200200,19,2022-01-28_16h48.03.308,lexical_decision_task_DD_L3,2021.2.3,Win32,60.20469597,,,,,,,,,,,0.6009,1,,,,,,,,,,,,,,m,1,0.6009,,,,,,,,0.035185269,-0.436111139,0,0,0,,0,147,147,33,1,MAGGOT,LB,old,m,./images/MAGGOTLB.png,,,,,,,,,,,,,,,,,,,,,
,,,,,,,,,,,,,,,,,200200,19,2022-01-28_16h48.03.308,lexical_decision_task_DD_L3,2021.2.3,Win32,60.20469597,,,,,,,,,,,0.6505,1,,,,,,,,,,,,,,m,1,0.6505,,,,,,,,0.035185269,-0.436111139,0,0,0,,0,148,148,44,1,LIZARD,HB,old,m,./images/LIZARDHB.png,,,,,,,,,,,,,,,,,,,,,
,,,,,,,,,,,,,,,,,200200,19,2022-01-28_16h48.03.308,lexical_decision_task_DD_L3,2021.2.3,Win32,60.20469597,,,,,,,,,,,0.5001,1,,,,,,,,,,,,,,m,1,0.5001,,,,,,,,0.035185269,-0.436111139,0,0,0,,0,149,149,36,1,THROAT,LB,old,m,./images/THROATLB.png,,,,,,,,,,,,,,,,,,,,,
,,,,,,,,,,,,,,,,,200200,19,2022-01-28_16h48.03.308,lexical_decision_task_DD_L3,2021.2.3,Win32,60.20469597,,,,,,,,,,,0.7009,1,,,,,,,,,,,,,,m,1,0.7009,,,,,,,,0.035185269,-0.436111139,0,0,0,,0,150,150,53,1,CARPET,HB,old,m,./images/CARPETHB.png,,,,,,,,,,,,,,,,,,,,,
,,,,,,,,,,,,,,,,,200200,19,2022-01-28_16h48.03.308,lexical_decision_task_DD_L3,2021.2.3,Win32,60.20469597,,,,,,,,,,,0.7671,1,,,,,,,,,,,,,,m,1,0.7671,,,,,,,,0.035185269,-0.436111139,0,0,0,,0,151,151,80,1,WEASEL,HB,old,m,./images/WEASELHB.png,,,,,,,,,,,,,,,,,,,,,
,,,,,,,,,,,,,,,,,200200,19,2022-01-28_16h48.03.308,lexical_decision_task_DD_L3,2021.2.3,Win32,60.20469597,,,,,,,,,,,0.5396,1,,,,,,,,,,,,,,z,1,0.5396,,,,,,,,0.035185269,-0.436111139,0,0,0,,0,152,152,147,1,ZOLES,C,old,z,./images/ZOLES.png,,,,,,,,,,,,,,,,,,,,,
,,,,,,,,,,,,,,,,,200200,19,2022-01-28_16h48.03.308,lexical_decision_task_DD_L3,2021.2.3,Win32,60.20469597,,,,,,,,,,,0.7556,1,,,,,,,,,,,,,,m,1,0.7556,,,,,,,,0.035185269,-0.436111139,0,0,0,,0,153,153,56,1,PACKET,HB,old,m,./images/PACKETHB.png,,,,,,,,,,,,,,,,,,,,,
,,,,,,,,,,,,,,,,,200200,19,2022-01-28_16h48.03.308,lexical_decision_task_DD_L3,2021.2.3,Win32,60.20469597,,,,,,,,,,,0.6355,1,,,,,,,,,,,,,,m,1,0.6355,,,,,,,,0.035185269,-0.436111139,0,0,0,,0,154,154,54,1,TRIPOD,LB,old,m,./images/TRIPODLB.png,,,,,,,,,,,,,,,,,,,,,
,,,,,,,,,,,,,,,,,200200,19,2022-01-28_16h48.03.308,lexical_decision_task_DD_L3,2021.2.3,Win32,60.20469597,,,,,,,,,,,1.7017,1,,,,,,,,,,,,,,m,1,1.7017,,,,,,,,0.035185269,-0.436111139,0,0,0,,0,155,155,65,1,FARMER,HB,old,m,./images/FARMERHB.png,,,,,,,,,,,,,,,,,,,,,
,,,,,,,,,,,,,,,,,200200,19,2022-01-28_16h48.03.308,lexical_decision_task_DD_L3,2021.2.3,Win32,60.20469597,,,,,,,,,,,1.1267,1,,,,,,,,,,,,,,z,1,1.1267,,,,,,,,0.035185269,-0.436111139,0,0,0,,0,156,156,109,1,BURGE,HB,old,z,./images/BURGEHB.png,,,,,,,,,,,,,,,,,,,,,
,,,,,,,,,,,,,,,,,200200,19,2022-01-28_16h48.03.308,lexical_decision_task_DD_L3,2021.2.3,Win32,60.20469597,,,,,,,,,,,0.5761,1,,,,,,,,,,,,,,z,1,0.5761,,,,,,,,0.035185269,-0.436111139,0,0,0,,0,157,157,162,1,LEICH,C,old,z,./images/LEICH.png,,,,,,,,,,,,,,,,,,,,,
,,,,,,,,,,,,,,,,,200200,19,2022-01-28_16h48.03.308,lexical_decision_task_DD_L3,2021.2.3,Win32,60.20469597,,,,,,,,,,,0.5981,1,,,,,,,,,,,,,,m,1,0.5981,,,,,,,,0.035185269,-0.436111139,0,0,0,,0,158,158,24,1,SCREW,LB,old,m,./images/SCREWLB.png,,,,,,,,,,,,,,,,,,,,,
,,,,,,,,,,,,,,,,,200200,19,2022-01-28_16h48.03.308,lexical_decision_task_DD_L3,2021.2.3,Win32,60.20469597,,,,,,,,,,,1.0789,1,,,,,,,,,,,,,,m,1,1.0789,,,,,,,,0.035185269,-0.436111139,0,0,0,,0,159,159,8,1,TULIP,HB,old,m,./images/TULIPHB.png,,,,,,,,,,,,,,,,,,,,,
,,,,,,,,,,,,,,,,,200200,19,2022-01-28_16h48.03.308,lexical_decision_task_DD_L3,2021.2.3,Win32,60.20469597,,,,,,,,,,,0.8625,1,,,,,,,,,,,,,,z,1,0.8625,,,,,,,,0.035185269,-0.436111139,0,0,0,,0,160,160,97,1,CHIDS,HB,old,z,./images/CHIDSHB.png,,,,,,,,,,,,,,,,,,,,,
,,,,,,,,,,,,,,,,,200200,19,2022-01-28_16h48.03.308,lexical_decision_task_DD_L3,2021.2.3,Win32,60.20469597,,,,,,,,,,,0.6598,1,,,,,,,,,,,,,,z,1,0.6598,,,,,,,,0.035185269,-0.436111139,0,0,0,,0,161,161,138,1,PLICE,C,old,z,./images/PLICE.png,,,,,,,,,,,,,,,,,,,,,
,,,,,,,,,,,,,,,,,200200,19,2022-01-28_16h48.03.308,lexical_decision_task_DD_L3,2021.2.3,Win32,60.20469597,,,,,,,,,,,0.7922,1,,,,,,,,,,,,,,z,1,0.7922,,,,,,,,0.035185269,-0.436111139,0,0,0,,0,162,162,159,1,CUDDY,C,old,z,./images/CUDDY.png,,,,,,,,,,,,,,,,,,,,,
,,,,,,,,,,,,,,,,,200200,19,2022-01-28_16h48.03.308,lexical_decision_task_DD_L3,2021.2.3,Win32,60.20469597,,,,,,,,,,,0.579,1,,,,,,,,,,,,,,z,1,0.579,,,,,,,,0.035185269,-0.436111139,0,0,0,,0,163,163,99,1,BACKY,C,old,z,./images/BACKY.png,,,,,,,,,,,,,,,,,,,,,
,,,,,,,,,,,,,,,,,200200,19,2022-01-28_16h48.03.308,lexical_decision_task_DD_L3,2021.2.3,Win32,60.20469597,,,,,,,,,,,0.7621,1,,,,,,,,,,,,,,z,1,0.7621,,,,,,,,0.035185269,-0.436111139,0,0,0,,0,164,164,148,1,JOMS,HB,old,z,./images/JOMSHB.png,,,,,,,,,,,,,,,,,,,,,
,,,,,,,,,,,,,,,,,200200,19,2022-01-28_16h48.03.308,lexical_decision_task_DD_L3,2021.2.3,Win32,60.20469597,,,,,,,,,,,0.6319,1,,,,,,,,,,,,,,z,1,0.6319,,,,,,,,0.035185269,-0.436111139,0,0,0,,0,165,165,107,1,FASKS,LB,old,z,./images/FASKSLB.png,,,,,,,,,,,,,,,,,,,,,
,,,,,,,,,,,,,,,,,200200,19,2022-01-28_16h48.03.308,lexical_decision_task_DD_L3,2021.2.3,Win32,60.20469597,,,,,,,,,,,0.5808,1,,,,,,,,,,,,,,m,1,0.5808,,,,,,,,0.035185269,-0.436111139,0,0,0,,0,166,166,83,1,JUNGLE,HB,old,m,./images/JUNGLEHB.png,,,,,,,,,,,,,,,,,,,,,
,,,,,,,,,,,,,,,,,200200,19,2022-01-28_16h48.03.308,lexical_decision_task_DD_L3,2021.2.3,Win32,60.20469597,,,,,,,,,,,0.5834,1,,,,,,,,,,,,,,z,1,0.5834,,,,,,,,0.035185269,-0.436111139,0,0,0,,0,167,167,158,1,EGECT,LB,old,z,./images/EGECTLB.png,,,,,,,,,,,,,,,,,,,,,
,0.035185269,-0.436111139,1,0,0,instr_done_button,,,,,,1,test,"In the next phase you will be presented with the words from the the first phase. Your job is to decide whether you remember seeing the word or not. If you remember seeing the word press ""old"" or type ""m"". If you do not remember seeing the word press ""new"" or type ""z"". Please press the space bar or click on continue to begin. ",,,200200,19,2022-01-28_16h48.03.308,lexical_decision_task_DD_L3,2021.2.3,Win32,60.20469597,,,,,,,,,,,,,,,,,,,,,,,,,,,,,,,,,,,,,,,,,,,,,,,,,,,,,0,0,0,0,1,,,,,,,,,,,,,,,
,0.007407491,-0.387037063,1,0,0,instr_done_button,,,,,,1,test,"In the next phase you will be presented with the words from the the first phase. Your job is to decide whether you remember seeing the word or not. If you remember seeing the word press ""old"" or type ""m"". If you do not remember seeing the word press ""new"" or type ""z"". Please press the space bar or click on continue to begin. ",,,200200,19,2022-01-28_16h48.03.308,lexical_decision_task_DD_L3,2021.2.3,Win32,60.20469597,,,,,,,,,,,,,,,,,,,,,,,,,,,,,,,,,,,,,,,,,,,,,,,,,,,,,1,0,1,0,1,,,,,,,,,,,,,,,
,0.02129638,-0.390740824,1,0,0,instr_done_button,,,,,,1,test,"In the next phase you will be presented with the words from the the first phase. Your job is to decide whether you remember seeing the word or not. If you remember seeing the word press ""old"" or type ""m"". If you do not remember seeing the word press ""new"" or type ""z"". Please press the space bar or click on continue to begin. ",,,200200,19,2022-01-28_16h48.03.308,lexical_decision_task_DD_L3,2021.2.3,Win32,60.20469597,,,,,,,,,,,,,,,,,,,,,,,,,,,,,,,,,,,,,,,,,,,,,,,,,,,,,2,0,2,0,1,,,,,,,,,,,,,,,
,0.02129638,-0.390740824,1,0,0,instr_done_button,,,,,,1,test,"In the next phase you will be presented with the words from the the first phase. Your job is to decide whether you remember seeing the word or not. If you remember seeing the word press ""old"" or type ""m"". If you do not remember seeing the word press ""new"" or type ""z"". Please press the space bar or click on continue to begin. ",,,200200,19,2022-01-28_16h48.03.308,lexical_decision_task_DD_L3,2021.2.3,Win32,60.20469597,,,,,,,,,,,,,,,,,,,,,,,,,,,,,,,,,,,,,,,,,,,,,,,,,,,,,3,0,3,0,1,,,,,,,,,,,,,,,
,0.02129638,-0.390740824,1,0,0,instr_done_button,,,,,,1,test,"In the next phase you will be presented with the words from the the first phase. Your job is to decide whether you remember seeing the word or not. If you remember seeing the word press ""old"" or type ""m"". If you do not remember seeing the word press ""new"" or type ""z"". Please press the space bar or click on continue to begin. ",,,200200,19,2022-01-28_16h48.03.308,lexical_decision_task_DD_L3,2021.2.3,Win32,60.20469597,,,,,,,,,,,,,,,,,,,,,,,,,,,,,,,,,,,,,,,,,,,,,,,,,,,,,4,0,4,0,1,,,,,,,,,,,,,,,
,,,,,,,,,,,,,,,,,200200,19,2022-01-28_16h48.03.308,lexical_decision_task_DD_L3,2021.2.3,Win32,60.20469597,,,,,,,,,,,3.269,1,,,,,,,,,,,,,,,,,,,,,,,,0.059259288,-0.348148173,0,0,0,,,,,,,TULIP,HB,m,m,./images/TULIPHB.png,,,,,,,m,1,3.269,,,,,,,,0,0,0,8,1
,,,,,,,,,,,,,,,,,200200,19,2022-01-28_16h48.03.308,lexical_decision_task_DD_L3,2021.2.3,Win32,60.20469597,,,,,,,,,,,0.7174,1,,,,,,,,,,,,,,,,,,,,,,,,0.059259288,-0.348148173,0,0,0,,,,,,,SWEAT,LB,m,m,./images/SWEATLB.png,,,,,,,m,1,0.7174,,,,,,,,0,1,1,66,1
,,,,,,,,,,,,,,,,,200200,19,2022-01-28_16h48.03.308,lexical_decision_task_DD_L3,2021.2.3,Win32,60.20469597,,,,,,,,,,,1.6071,0,,,,,,,,,,,,,,,,,,,,,,,,0.059259288,-0.348148173,0,0,0,,,,,,,ARTIST,C,z,m,./images/ARTIST.png,,,,,,,m,0,1.6071,,,,,,,,0,2,2,145,1
,,,,,,,,,,,,,,,,,200200,19,2022-01-28_16h48.03.308,lexical_decision_task_DD_L3,2021.2.3,Win32,60.20469597,,,,,,,,,,,0.6358,1,,,,,,,,,,,,,,,,,,,,,,,,0.059259288,-0.348148173,0,0,0,,,,,,,DOUGH,C,m,m,./images/DOUGH.png,,,,,,,m,1,0.6358,,,,,,,,0,3,3,19,1
,,,,,,,,,,,,,,,,,200200,19,2022-01-28_16h48.03.308,lexical_decision_task_DD_L3,2021.2.3,Win32,60.20469597,,,,,,,,,,,1.1017,1,,,,,,,,,,,,,,,,,,,,,,,,0.059259288,-0.348148173,0,0,0,,,,,,,RHINO,LB,m,m,./images/RHINOLB.png,,,,,,,m,1,1.1017,,,,,,,,0,4,4,9,1
,,,,,,,,,,,,,,,,,200200,19,2022-01-28_16h48.03.308,lexical_decision_task_DD_L3,2021.2.3,Win32,60.20469597,,,,,,,,,,,1.1668,1,,,,,,,,,,,,,,,,,,,,,,,,0.059259288,-0.348148173,0,0,0,,,,,,,GLOVE,C,z,m,./images/GLOVE.png,,,,,,,z,1,1.1668,,,,,,,,0,5,5,157,1
,,,,,,,,,,,,,,,,,200200,19,2022-01-28_16h48.03.308,lexical_decision_task_DD_L3,2021.2.3,Win32,60.20469597,,,,,,,,,,,1.2504,1,,,,,,,,,,,,,,,,,,,,,,,,0.059259288,-0.348148173,0,0,0,,,,,,,PEACH,HB,m,m,./images/PEACHHB.png,,,,,,,m,1,1.2504,,,,,,,,0,6,6,35,1
,,,,,,,,,,,,,,,,,200200,19,2022-01-28_16h48.03.308,lexical_decision_task_DD_L3,2021.2.3,Win32,60.20469597,,,,,,,,,,,1.3514,1,,,,,,,,,,,,,,,,,,,,,,,,0.059259288,-0.348148173,0,0,0,,,,,,,PARADE,HB,z,m,./images/PARADEHB.png,,,,,,,z,1,1.3514,,,,,,,,0,7,7,101,1
,,,,,,,,,,,,,,,,,200200,19,2022-01-28_16h48.03.308,lexical_decision_task_DD_L3,2021.2.3,Win32,60.20469597,,,,,,,,,,,0.9345,0,,,,,,,,,,,,,,,,,,,,,,,,0.059259288,-0.348148173,0,0,0,,,,,,,ONION,LB,m,m,./images/ONIONLB.png,,,,,,,z,0,0.9345,,,,,,,,0,8,8,51,1
,,,,,,,,,,,,,,,,,200200,19,2022-01-28_16h48.03.308,lexical_decision_task_DD_L3,2021.2.3,Win32,60.20469597,,,,,,,,,,,0.6235,1,,,,,,,,,,,,,,,,,,,,,,,,0.059259288,-0.348148173,0,0,0,,,,,,,STORM,LB,m,m,./images/STORMLB.png,,,,,,,m,1,0.6235,,,,,,,,0,9,9,30,1
,,,,,,,,,,,,,,,,,200200,19,2022-01-28_16h48.03.308,lexical_decision_task_DD_L3,2021.2.3,Win32,60.20469597,,,,,,,,,,,0.784,1,,,,,,,,,,,,,,,,,,,,,,,,0.059259288,-0.348148173,0,0,0,,,,,,,COOKER,LB,m,m,./images/COOKERLB.png,,,,,,,m,1,0.784,,,,,,,,0,10,10,69,1
,,,,,,,,,,,,,,,,,200200,19,2022-01-28_16h48.03.308,lexical_decision_task_DD_L3,2021.2.3,Win32,60.20469597,,,,,,,,,,,0.8177,0,,,,,,,,,,,,,,,,,,,,,,,,0.059259288,-0.348148173,0,0,0,,,,,,,PISTOL,HB,z,m,./images/PISTOLHB.png,,,,,,,m,0,0.8177,,,,,,,,0,11,11,113,1
,,,,,,,,,,,,,,,,,200200,19,2022-01-28_16h48.03.308,lexical_decision_task_DD_L3,2021.2.3,Win32,60.20469597,,,,,,,,,,,0.7669,1,,,,,,,,,,,,,,,,,,,,,,,,0.059259288,-0.348148173,0,0,0,,,,,,,PARCEL,LB,z,m,./images/PARCELLB.png,,,,,,,z,1,0.7669,,,,,,,,0,12,12,102,1
,,,,,,,,,,,,,,,,,200200,19,2022-01-28_16h48.03.308,lexical_decision_task_DD_L3,2021.2.3,Win32,60.20469597,,,,,,,,,,,0.6167,1,,,,,,,,,,,,,,,,,,,,,,,,0.059259288,-0.348148173,0,0,0,,,,,,,MOOSE,LB,m,m,./images/MOOSELB.png,,,,,,,m,1,0.6167,,,,,,,,0,13,13,57,1
,,,,,,,,,,,,,,,,,200200,19,2022-01-28_16h48.03.308,lexical_decision_task_DD_L3,2021.2.3,Win32,60.20469597,,,,,,,,,,,0.5667,1,,,,,,,,,,,,,,,,,,,,,,,,0.059259288,-0.348148173,0,0,0,,,,,,,CEMENT,HB,m,m,./images/CEMENTHB.png,,,,,,,m,1,0.5667,,,,,,,,0,14,14,74,1
,,,,,,,,,,,,,,,,,200200,19,2022-01-28_16h48.03.308,lexical_decision_task_DD_L3,2021.2.3,Win32,60.20469597,,,,,,,,,,,0.5698,1,,,,,,,,,,,,,,,,,,,,,,,,0.059259288,-0.348148173,0,0,0,,,,,,,NOOSE,LB,m,m,./images/NOOSELB.png,,,,,,,m,1,0.5698,,,,,,,,0,15,15,72,1
,,,,,,,,,,,,,,,,,200200,19,2022-01-28_16h48.03.308,lexical_decision_task_DD_L3,2021.2.3,Win32,60.20469597,,,,,,,,,,,1.4336,0,,,,,,,,,,,,,,,,,,,,,,,,0.059259288,-0.348148173,0,0,0,,,,,,,CLOWN,C,z,m,./images/CLOWN.png,,,,,,,m,0,1.4336,,,,,,,,0,16,16,106,1
,,,,,,,,,,,,,,,,,200200,19,2022-01-28_16h48.03.308,lexical_decision_task_DD_L3,2021.2.3,Win32,60.20469597,,,,,,,,,,,0.6676,1,,,,,,,,,,,,,,,,,,,,,,,,0.059259288,-0.348148173,0,0,0,,,,,,,WHISKY,HB,z,m,./images/WHISKYHB.png,,,,,,,z,1,0.6676,,,,,,,,0,17,17,167,1
,,,,,,,,,,,,,,,,,200200,19,2022-01-28_16h48.03.308,lexical_decision_task_DD_L3,2021.2.3,Win32,60.20469597,,,,,,,,,,,1.1372,1,,,,,,,,,,,,,,,,,,,,,,,,0.059259288,-0.348148173,0,0,0,,,,,,,ATTIC,LB,m,m,./images/ATTICLB.png,,,,,,,m,1,1.1372,,,,,,,,0,18,18,27,1
,,,,,,,,,,,,,,,,,200200,19,2022-01-28_16h48.03.308,lexical_decision_task_DD_L3,2021.2.3,Win32,60.20469597,,,,,,,,,,,0.8672,1,,,,,,,,,,,,,,,,,,,,,,,,0.059259288,-0.348148173,0,0,0,,,,,,,HEATER,HB,z,m,./images/HEATERHB.png,,,,,,,z,1,0.8672,,,,,,,,0,19,19,140,1
,,,,,,,,,,,,,,,,,200200,19,2022-01-28_16h48.03.308,lexical_decision_task_DD_L3,2021.2.3,Win32,60.20469597,,,,,,,,,,,1.4041,1,,,,,,,,,,,,,,,,,,,,,,,,0.059259288,-0.348148173,0,0,0,,,,,,,SLOPE,LB,z,m,./images/SLOPELB.png,,,,,,,z,1,1.4041,,,,,,,,0,20,20,114,1
,,,,,,,,,,,,,,,,,200200,19,2022-01-28_16h48.03.308,lexical_decision_task_DD_L3,2021.2.3,Win32,60.20469597,,,,,,,,,,,0.8215,1,,,,,,,,,,,,,,,,,,,,,,,,0.059259288,-0.348148173,0,0,0,,,,,,,GRAIN,LB,m,m,./images/GRAINLB.png,,,,,,,m,1,0.8215,,,,,,,,0,21,21,75,1
,,,,,,,,,,,,,,,,,200200,19,2022-01-28_16h48.03.308,lexical_decision_task_DD_L3,2021.2.3,Win32,60.20469597,,,,,,,,,,,2.0364,1,,,,,,,,,,,,,,,,,,,,,,,,0.059259288,-0.348148173,0,0,0,,,,,,,DRILL,LB,z,m,./images/DRILLLB.png,,,,,,,z,1,2.0364,,,,,,,,0,22,22,165,1
,,,,,,,,,,,,,,,,,200200,19,2022-01-28_16h48.03.308,lexical_decision_task_DD_L3,2021.2.3,Win32,60.20469597,,,,,,,,,,,0.5006,1,,,,,,,,,,,,,,,,,,,,,,,,0.059259288,-0.348148173,0,0,0,,,,,,,CARPET,HB,m,m,./images/CARPETHB.png,,,,,,,m,1,0.5006,,,,,,,,0,23,23,53,1
,,,,,,,,,,,,,,,,,200200,19,2022-01-28_16h48.03.308,lexical_decision_task_DD_L3,2021.2.3,Win32,60.20469597,,,,,,,,,,,0.5219,1,,,,,,,,,,,,,,,,,,,,,,,,0.059259288,-0.348148173,0,0,0,,,,,,,GREASE,LB,m,m,./images/GREASELB.png,,,,,,,m,1,0.5219,,,,,,,,0,24,24,15,1
,,,,,,,,,,,,,,,,,200200,19,2022-01-28_16h48.03.308,lexical_decision_task_DD_L3,2021.2.3,Win32,60.20469597,,,,,,,,,,,0.5547,1,,,,,,,,,,,,,,,,,,,,,,,,0.059259288,-0.348148173,0,0,0,,,,,,,JAGUAR,LB,m,m,./images/JAGUARLB.png,,,,,,,m,1,0.5547,,,,,,,,0,25,25,18,1
,,,,,,,,,,,,,,,,,200200,19,2022-01-28_16h48.03.308,lexical_decision_task_DD_L3,2021.2.3,Win32,60.20469597,,,,,,,,,,,0.5713,1,,,,,,,,,,,,,,,,,,,,,,,,0.059259288,-0.348148173,0,0,0,,,,,,,SKIING,HB,m,m,./images/SKIINGHB.png,,,,,,,m,1,0.5713,,,,,,,,0,26,26,17,1
,,,,,,,,,,,,,,,,,200200,19,2022-01-28_16h48.03.308,lexical_decision_task_DD_L3,2021.2.3,Win32,60.20469597,,,,,,,,,,,0.5833,1,,,,,,,,,,,,,,,,,,,,,,,,0.059259288,-0.348148173,0,0,0,,,,,,,DRUMS,C,m,m,./images/DRUMS.png,,,,,,,m,1,0.5833,,,,,,,,0,27,27,49,1
,,,,,,,,,,,,,,,,,200200,19,2022-01-28_16h48.03.308,lexical_decision_task_DD_L3,2021.2.3,Win32,60.20469597,,,,,,,,,,,0.5841,1,,,,,,,,,,,,,,,,,,,,,,,,0.059259288,-0.348148173,0,0,0,,,,,,,KIDNEY,LB,m,m,./images/KIDNEYLB.png,,,,,,,m,1,0.5841,,,,,,,,0,28,28,21,1
,,,,,,,,,,,,,,,,,200200,19,2022-01-28_16h48.03.308,lexical_decision_task_DD_L3,2021.2.3,Win32,60.20469597,,,,,,,,,,,0.7173,1,,,,,,,,,,,,,,,,,,,,,,,,0.059259288,-0.348148173,0,0,0,,,,,,,MUSCLE,C,m,m,./images/MUSCLE.png,,,,,,,m,1,0.7173,,,,,,,,0,29,29,4,1
,,,,,,,,,,,,,,,,,200200,19,2022-01-28_16h48.03.308,lexical_decision_task_DD_L3,2021.2.3,Win32,60.20469597,,,,,,,,,,,0.8173,0,,,,,,,,,,,,,,,,,,,,,,,,0.059259288,-0.348148173,0,0,0,,,,,,,BAKER,LB,z,m,./images/BAKERLB.png,,,,,,,m,0,0.8173,,,,,,,,0,30,30,147,1
,,,,,,,,,,,,,,,,,200200,19,2022-01-28_16h48.03.308,lexical_decision_task_DD_L3,2021.2.3,Win32,60.20469597,,,,,,,,,,,1.6587,1,,,,,,,,,,,,,,,,,,,,,,,,0.059259288,-0.348148173,0,0,0,,,,,,,HAMMER,LB,z,m,./images/HAMMERLB.png,,,,,,,z,1,1.6587,,,,,,,,0,31,31,159,1
,,,,,,,,,,,,,,,,,200200,19,2022-01-28_16h48.03.308,lexical_decision_task_DD_L3,2021.2.3,Win32,60.20469597,,,,,,,,,,,0.7549,1,,,,,,,,,,,,,,,,,,,,,,,,0.059259288,-0.348148173,0,0,0,,,,,,,COLLAR,LB,z,m,./images/COLLARLB.png,,,,,,,z,1,0.7549,,,,,,,,0,32,32,99,1
,,,,,,,,,,,,,,,,,200200,19,2022-01-28_16h48.03.308,lexical_decision_task_DD_L3,2021.2.3,Win32,60.20469597,,,,,,,,,,,1.1327,1,,,,,,,,,,,,,,,,,,,,,,,,0.059259288,-0.348148173,0,0,0,,,,,,,MAMMAL,HB,z,m,./images/MAMMALHB.png,,,,,,,z,1,1.1327,,,,,,,,0,33,33,146,1
,,,,,,,,,,,,,,,,,200200,19,2022-01-28_16h48.03.308,lexical_decision_task_DD_L3,2021.2.3,Win32,60.20469597,,,,,,,,,,,0.5565,1,,,,,,,,,,,,,,,,,,,,,,,,0.059259288,-0.348148173,0,0,0,,,,,,,FARMER,HB,m,m,./images/FARMERHB.png,,,,,,,m,1,0.5565,,,,,,,,0,34,34,65,1
,,,,,,,,,,,,,,,,,200200,19,2022-01-28_16h48.03.308,lexical_decision_task_DD_L3,2021.2.3,Win32,60.20469597,,,,,,,,,,,0.7504,1,,,,,,,,,,,,,,,,,,,,,,,,0.059259288,-0.348148173,0,0,0,,,,,,,MUFFIN,C,m,m,./images/MUFFIN.png,,,,,,,m,1,0.7504,,,,,,,,0,35,35,55,1
,,,,,,,,,,,,,,,,,200200,19,2022-01-28_16h48.03.308,lexical_decision_task_DD_L3,2021.2.3,Win32,60.20469597,,,,,,,,,,,0.95,1,,,,,,,,,,,,,,,,,,,,,,,,0.059259288,-0.348148173,0,0,0,,,,,,,MUMMY,C,z,m,./images/MUMMY.png,,,,,,,z,1,0.95,,,,,,,,0,36,36,130,1
,,,,,,,,,,,,,,,,,200200,19,2022-01-28_16h48.03.308,lexical_decision_task_DD_L3,2021.2.3,Win32,60.20469597,,,,,,,,,,,0.6177,1,,,,,,,,,,,,,,,,,,,,,,,,0.059259288,-0.348148173,0,0,0,,,,,,,BIRTH,C,m,m,./images/BIRTH.png,,,,,,,m,1,0.6177,,,,,,,,0,37,37,37,1
,,,,,,,,,,,,,,,,,200200,19,2022-01-28_16h48.03.308,lexical_decision_task_DD_L3,2021.2.3,Win32,60.20469597,,,,,,,,,,,0.6051,1,,,,,,,,,,,,,,,,,,,,,,,,0.059259288,-0.348148173,0,0,0,,,,,,,KITTEN,LB,m,m,./images/KITTENLB.png,,,,,,,m,1,0.6051,,,,,,,,0,38,38,45,1
,,,,,,,,,,,,,,,,,200200,19,2022-01-28_16h48.03.308,lexical_decision_task_DD_L3,2021.2.3,Win32,60.20469597,,,,,,,,,,,2.1072,1,,,,,,,,,,,,,,,,,,,,,,,,0.059259288,-0.348148173,0,0,0,,,,,,,CHAIN,LB,z,m,./images/CHAINLB.png,,,,,,,z,1,2.1072,,,,,,,,0,39,39,126,1
,,,,,,,,,,,,,,,,,200200,19,2022-01-28_16h48.03.308,lexical_decision_task_DD_L3,2021.2.3,Win32,60.20469597,,,,,,,,,,,0.773,1,,,,,,,,,,,,,,,,,,,,,,,,0.059259288,-0.348148173,0,0,0,,,,,,,BUBBLE,HB,z,m,./images/BUBBLEHB.png,,,,,,,z,1,0.773,,,,,,,,0,40,40,155,1
,,,,,,,,,,,,,,,,,200200,19,2022-01-28_16h48.03.308,lexical_decision_task_DD_L3,2021.2.3,Win32,60.20469597,,,,,,,,,,,0.9549,1,,,,,,,,,,,,,,,,,,,,,,,,0.004629713,-0.372222248,1,0,0,,,,,,,RULER,C,z,m,./images/RULER.png,break_done_button,,,,,,z,1,0.9549,,,,,,,,0,41,41,163,1
,,,,,,,,,,,,,,,,,200200,19,2022-01-28_16h48.03.308,lexical_decision_task_DD_L3,2021.2.3,Win32,60.20469597,,,,,,,,,,,1.2505,1,,,,,,,,,,,,,,,,,,,,,,,,0.004629713,-0.372222248,0,0,0,,,,,,,LAGOON,HB,z,m,./images/LAGOONHB.png,,,,,,,z,1,1.2505,,,,,,,,0,42,42,131,1
,,,,,,,,,,,,,,,,,200200,19,2022-01-28_16h48.03.308,lexical_decision_task_DD_L3,2021.2.3,Win32,60.20469597,,,,,,,,,,,0.7505,1,,,,,,,,,,,,,,,,,,,,,,,,0.004629713,-0.372222248,0,0,0,,,,,,,POODLE,LB,m,m,./images/POODLELB.png,,,,,,,m,1,0.7505,,,,,,,,0,43,43,81,1
,,,,,,,,,,,,,,,,,200200,19,2022-01-28_16h48.03.308,lexical_decision_task_DD_L3,2021.2.3,Win32,60.20469597,,,,,,,,,,,0.6836,1,,,,,,,,,,,,,,,,,,,,,,,,0.004629713,-0.372222248,0,0,0,,,,,,,WALNUT,LB,z,m,./images/WALNUTLB.png,,,,,,,z,1,0.6836,,,,,,,,0,44,44,84,1
,,,,,,,,,,,,,,,,,200200,19,2022-01-28_16h48.03.308,lexical_decision_task_DD_L3,2021.2.3,Win32,60.20469597,,,,,,,,,,,1.9511,1,,,,,,,,,,,,,,,,,,,,,,,,0.004629713,-0.372222248,0,0,0,,,,,,,TIGER,C,z,m,./images/TIGER.png,,,,,,,z,1,1.9511,,,,,,,,0,45,45,121,1
,,,,,,,,,,,,,,,,,200200,19,2022-01-28_16h48.03.308,lexical_decision_task_DD_L3,2021.2.3,Win32,60.20469597,,,,,,,,,,,0.9889,1,,,,,,,,,,,,,,,,,,,,,,,,0.004629713,-0.372222248,0,0,0,,,,,,,DONKEY,C,z,m,./images/DONKEY.png,,,,,,,z,1,0.9889,,,,,,,,0,46,46,103,1
,,,,,,,,,,,,,,,,,200200,19,2022-01-28_16h48.03.308,lexical_decision_task_DD_L3,2021.2.3,Win32,60.20469597,,,,,,,,,,,0.951,0,,,,,,,,,,,,,,,,,,,,,,,,0.004629713,-0.372222248,0,0,0,,,,,,,POSTER,HB,z,m,./images/POSTERHB.png,,,,,,,m,0,0.951,,,,,,,,0,47,47,137,1
,,,,,,,,,,,,,,,,,200200,19,2022-01-28_16h48.03.308,lexical_decision_task_DD_L3,2021.2.3,Win32,60.20469597,,,,,,,,,,,0.5835,1,,,,,,,,,,,,,,,,,,,,,,,,0.004629713,-0.372222248,0,0,0,,,,,,,MOSQUE,C,m,m,./images/MOSQUE.png,,,,,,,m,1,0.5835,,,,,,,,0,48,48,43,1
,,,,,,,,,,,,,,,,,200200,19,2022-01-28_16h48.03.308,lexical_decision_task_DD_L3,2021.2.3,Win32,60.20469597,,,,,,,,,,,0.5413,1,,,,,,,,,,,,,,,,,,,,,,,,0.004629713,-0.372222248,0,0,0,,,,,,,MAGGOT,LB,m,m,./images/MAGGOTLB.png,,,,,,,m,1,0.5413,,,,,,,,0,49,49,33,1
,,,,,,,,,,,,,,,,,200200,19,2022-01-28_16h48.03.308,lexical_decision_task_DD_L3,2021.2.3,Win32,60.20469597,,,,,,,,,,,2.5005,0,,,,,,,,,,,,,,,,,,,,,,,,0.004629713,-0.372222248,0,0,0,,,,,,,SWING,C,m,m,./images/SWING.png,,,,,,,z,0,2.5005,,,,,,,,0,50,50,40,1
,,,,,,,,,,,,,,,,,200200,19,2022-01-28_16h48.03.308,lexical_decision_task_DD_L3,2021.2.3,Win32,60.20469597,,,,,,,,,,,1.4837,1,,,,,,,,,,,,,,,,,,,,,,,,0.004629713,-0.372222248,0,0,0,,,,,,,STATUE,LB,z,m,./images/STATUELB.png,,,,,,,z,1,1.4837,,,,,,,,0,51,51,150,1
,,,,,,,,,,,,,,,,,200200,19,2022-01-28_16h48.03.308,lexical_decision_task_DD_L3,2021.2.3,Win32,60.20469597,,,,,,,,,,,0.9207,1,,,,,,,,,,,,,,,,,,,,,,,,0.004629713,-0.372222248,0,0,0,,,,,,,SAILOR,C,m,m,./images/SAILOR.png,,,,,,,m,1,0.9207,,,,,,,,0,52,52,67,1
,,,,,,,,,,,,,,,,,200200,19,2022-01-28_16h48.03.308,lexical_decision_task_DD_L3,2021.2.3,Win32,60.20469597,,,,,,,,,,,0.6086,1,,,,,,,,,,,,,,,,,,,,,,,,0.004629713,-0.372222248,0,0,0,,,,,,,PACKET,HB,m,m,./images/PACKETHB.png,,,,,,,m,1,0.6086,,,,,,,,0,53,53,56,1
,,,,,,,,,,,,,,,,,200200,19,2022-01-28_16h48.03.308,lexical_decision_task_DD_L3,2021.2.3,Win32,60.20469597,,,,,,,,,,,0.5849,1,,,,,,,,,,,,,,,,,,,,,,,,0.004629713,-0.372222248,0,0,0,,,,,,,CRUMB,HB,m,m,./images/CRUMBHB.png,,,,,,,m,1,0.5849,,,,,,,,0,54,54,29,1
,,,,,,,,,,,,,,,,,200200,19,2022-01-28_16h48.03.308,lexical_decision_task_DD_L3,2021.2.3,Win32,60.20469597,,,,,,,,,,,0.8485,1,,,,,,,,,,,,,,,,,,,,,,,,0.004629713,-0.372222248,0,0,0,,,,,,,LIZARD,HB,m,m,./images/LIZARDHB.png,,,,,,,m,1,0.8485,,,,,,,,0,55,55,44,1
,,,,,,,,,,,,,,,,,200200,19,2022-01-28_16h48.03.308,lexical_decision_task_DD_L3,2021.2.3,Win32,60.20469597,,,,,,,,,,,1.842,1,,,,,,,,,,,,,,,,,,,,,,,,0.004629713,-0.372222248,0,0,0,,,,,,,STRING,HB,m,m,./images/STRINGHB.png,,,,,,,m,1,1.842,,,,,,,,0,56,56,41,1
,,,,,,,,,,,,,,,,,200200,19,2022-01-28_16h48.03.308,lexical_decision_task_DD_L3,2021.2.3,Win32,60.20469597,,,,,,,,,,,1.0513,0,,,,,,,,,,,,,,,,,,,,,,,,0.004629713,-0.372222248,0,0,0,,,,,,,TORCH,HB,m,m,./images/TORCHHB.png,,,,,,,z,0,1.0513,,,,,,,,0,57,57,68,1
,,,,,,,,,,,,,,,,,200200,19,2022-01-28_16h48.03.308,lexical_decision_task_DD_L3,2021.2.3,Win32,60.20469597,,,,,,,,,,,0.6503,1,,,,,,,,,,,,,,,,,,,,,,,,0.004629713,-0.372222248,0,0,0,,,,,,,HOCKEY,HB,z,m,./images/HOCKEYHB.png,,,,,,,z,1,0.6503,,,,,,,,0,58,58,116,1
,,,,,,,,,,,,,,,,,200200,19,2022-01-28_16h48.03.308,lexical_decision_task_DD_L3,2021.2.3,Win32,60.20469597,,,,,,,,,,,1.8172,1,,,,,,,,,,,,,,,,,,,,,,,,0.004629713,-0.372222248,0,0,0,,,,,,,SQUARE,LB,m,m,./images/SQUARELB.png,,,,,,,m,1,1.8172,,,,,,,,0,59,59,6,1
,,,,,,,,,,,,,,,,,200200,19,2022-01-28_16h48.03.308,lexical_decision_task_DD_L3,2021.2.3,Win32,60.20469597,,,,,,,,,,,1.5377,1,,,,,,,,,,,,,,,,,,,,,,,,0.004629713,-0.372222248,0,0,0,,,,,,,GRAPE,C,z,m,./images/GRAPE.png,,,,,,,z,1,1.5377,,,,,,,,0,60,60,100,1
,,,,,,,,,,,,,,,,,200200,19,2022-01-28_16h48.03.308,lexical_decision_task_DD_L3,2021.2.3,Win32,60.20469597,,,,,,,,,,,1.1918,0,,,,,,,,,,,,,,,,,,,,,,,,0.004629713,-0.372222248,0,0,0,,,,,,,FENCE,HB,z,m,./images/FENCEHB.png,,,,,,,m,0,1.1918,,,,,,,,0,61,61,98,1
,,,,,,,,,,,,,,,,,200200,19,2022-01-28_16h48.03.308,lexical_decision_task_DD_L3,2021.2.3,Win32,60.20469597,,,,,,,,,,,0.9839,1,,,,,,,,,,,,,,,,,,,,,,,,0.004629713,-0.372222248,0,0,0,,,,,,,MIDGET,C,z,m,./images/MIDGET.png,,,,,,,z,1,0.9839,,,,,,,,0,62,62,160,1
,,,,,,,,,,,,,,,,,200200,19,2022-01-28_16h48.03.308,lexical_decision_task_DD_L3,2021.2.3,Win32,60.20469597,,,,,,,,,,,0.8004,1,,,,,,,,,,,,,,,,,,,,,,,,0.004629713,-0.372222248,0,0,0,,,,,,,TOMATO,LB,m,m,./images/TOMATOLB.png,,,,,,,m,1,0.8004,,,,,,,,0,63,63,0,1
,,,,,,,,,,,,,,,,,200200,19,2022-01-28_16h48.03.308,lexical_decision_task_DD_L3,2021.2.3,Win32,60.20469597,,,,,,,,,,,1.0512,1,,,,,,,,,,,,,,,,,,,,,,,,0.004629713,-0.372222248,0,0,0,,,,,,,BLOKE,LB,z,m,./images/BLOKELB.png,,,,,,,z,1,1.0512,,,,,,,,0,64,64,96,1
,,,,,,,,,,,,,,,,,200200,19,2022-01-28_16h48.03.308,lexical_decision_task_DD_L3,2021.2.3,Win32,60.20469597,,,,,,,,,,,0.5505,1,,,,,,,,,,,,,,,,,,,,,,,,0.004629713,-0.372222248,0,0,0,,,,,,,CANYON,C,m,m,./images/CANYON.png,,,,,,,m,1,0.5505,,,,,,,,0,65,65,34,1
,,,,,,,,,,,,,,,,,200200,19,2022-01-28_16h48.03.308,lexical_decision_task_DD_L3,2021.2.3,Win32,60.20469597,,,,,,,,,,,0.6829,1,,,,,,,,,,,,,,,,,,,,,,,,0.004629713,-0.372222248,0,0,0,,,,,,,BUNNY,C,z,m,./images/BUNNY.png,,,,,,,z,1,0.6829,,,,,,,,0,66,66,97,1
,,,,,,,,,,,,,,,,,200200,19,2022-01-28_16h48.03.308,lexical_decision_task_DD_L3,2021.2.3,Win32,60.20469597,,,,,,,,,,,0.767,1,,,,,,,,,,,,,,,,,,,,,,,,0.004629713,-0.372222248,0,0,0,,,,,,,CURRY,LB,z,m,./images/CURRYLB.png,,,,,,,z,1,0.767,,,,,,,,0,67,67,144,1
,,,,,,,,,,,,,,,,,200200,19,2022-01-28_16h48.03.308,lexical_decision_task_DD_L3,2021.2.3,Win32,60.20469597,,,,,,,,,,,0.5169,0,,,,,,,,,,,,,,,,,,,,,,,,0.004629713,-0.372222248,0,0,0,,,,,,,BAMBOO,HB,z,m,./images/BAMBOOHB.png,,,,,,,m,0,0.5169,,,,,,,,0,68,68,89,1
,,,,,,,,,,,,,,,,,200200,19,2022-01-28_16h48.03.308,lexical_decision_task_DD_L3,2021.2.3,Win32,60.20469597,,,,,,,,,,,0.7671,1,,,,,,,,,,,,,,,,,,,,,,,,0.004629713,-0.372222248,0,0,0,,,,,,,LLAMA,HB,z,m,./images/LLAMAHB.png,,,,,,,z,1,0.7671,,,,,,,,0,69,69,119,1
,,,,,,,,,,,,,,,,,200200,19,2022-01-28_16h48.03.308,lexical_decision_task_DD_L3,2021.2.3,Win32,60.20469597,,,,,,,,,,,0.5,1,,,,,,,,,,,,,,,,,,,,,,,,0.004629713,-0.372222248,0,0,0,,,,,,,CRUST,C,m,m,./images/CRUST.png,,,,,,,m,1,0.5,,,,,,,,0,70,70,79,1
,,,,,,,,,,,,,,,,,200200,19,2022-01-28_16h48.03.308,lexical_decision_task_DD_L3,2021.2.3,Win32,60.20469597,,,,,,,,,,,1.1668,1,,,,,,,,,,,,,,,,,,,,,,,,0.004629713,-0.372222248,0,0,0,,,,,,,BOILER,LB,z,m,./images/BOILERLB.png,,,,,,,z,1,1.1668,,,,,,,,0,71,71,120,1
,,,,,,,,,,,,,,,,,200200,19,2022-01-28_16h48.03.308,lexical_decision_task_DD_L3,2021.2.3,Win32,60.20469597,,,,,,,,,,,1.7004,1,,,,,,,,,,,,,,,,,,,,,,,,0.004629713,-0.372222248,0,0,0,,,,,,,BURIAL,HB,m,m,./images/BURIALHB.png,,,,,,,m,1,1.7004,,,,,,,,0,72,72,59,1
,,,,,,,,,,,,,,,,,200200,19,2022-01-28_16h48.03.308,lexical_decision_task_DD_L3,2021.2.3,Win32,60.20469597,,,,,,,,,,,0.8171,1,,,,,,,,,,,,,,,,,,,,,,,,0.004629713,-0.372222248,0,0,0,,,,,,,STREAM,HB,z,m,./images/STREAMHB.png,,,,,,,z,1,0.8171,,,,,,,,0,73,73,125,1
,,,,,,,,,,,,,,,,,200200,19,2022-01-28_16h48.03.308,lexical_decision_task_DD_L3,2021.2.3,Win32,60.20469597,,,,,,,,,,,0.905,1,,,,,,,,,,,,,,,,,,,,,,,,0.004629713,-0.372222248,0,0,0,,,,,,,BARREL,HB,m,m,./images/BARRELHB.png,,,,,,,m,1,0.905,,,,,,,,0,74,74,32,1
,,,,,,,,,,,,,,,,,200200,19,2022-01-28_16h48.03.308,lexical_decision_task_DD_L3,2021.2.3,Win32,60.20469597,,,,,,,,,,,1.2836,1,,,,,,,,,,,,,,,,,,,,,,,,0.004629713,-0.372222248,0,0,0,,,,,,,CRADLE,HB,m,m,./images/CRADLEHB.png,,,,,,,m,1,1.2836,,,,,,,,0,75,75,20,1
,,,,,,,,,,,,,,,,,200200,19,2022-01-28_16h48.03.308,lexical_decision_task_DD_L3,2021.2.3,Win32,60.20469597,,,,,,,,,,,1.0835,1,,,,,,,,,,,,,,,,,,,,,,,,0.004629713,-0.372222248,0,0,0,,,,,,,WAGON,C,z,m,./images/WAGON.png,,,,,,,z,1,1.0835,,,,,,,,0,76,76,91,1
,,,,,,,,,,,,,,,,,200200,19,2022-01-28_16h48.03.308,lexical_decision_task_DD_L3,2021.2.3,Win32,60.20469597,,,,,,,,,,,0.884,0,,,,,,,,,,,,,,,,,,,,,,,,0.004629713,-0.372222248,0,0,0,,,,,,,CANDLE,C,m,m,./images/CANDLE.png,,,,,,,z,0,0.884,,,,,,,,0,77,77,61,1
,,,,,,,,,,,,,,,,,200200,19,2022-01-28_16h48.03.308,lexical_decision_task_DD_L3,2021.2.3,Win32,60.20469597,,,,,,,,,,,1.6841,1,,,,,,,,,,,,,,,,,,,,,,,,0.004629713,-0.372222248,0,0,0,,,,,,,FOLDER,LB,m,m,./images/FOLDERLB.png,,,,,,,m,1,1.6841,,,,,,,,0,78,78,42,1
,,,,,,,,,,,,,,,,,200200,19,2022-01-28_16h48.03.308,lexical_decision_task_DD_L3,2021.2.3,Win32,60.20469597,,,,,,,,,,,1.3182,0,,,,,,,,,,,,,,,,,,,,,,,,0.004629713,-0.372222248,0,0,0,,,,,,,FALCON,C,m,m,./images/FALCON.png,,,,,,,z,0,1.3182,,,,,,,,0,79,79,28,1
,,,,,,,,,,,,,,,,,200200,19,2022-01-28_16h48.03.308,lexical_decision_task_DD_L3,2021.2.3,Win32,60.20469597,,,,,,,,,,,1.1922,1,,,,,,,,,,,,,,,,,,,,,,,,0.004629713,-0.372222248,0,0,0,,,,,,,DESERT,C,z,m,./images/DESERT.png,,,,,,,z,1,1.1922,,,,,,,,0,80,80,136,1
,,,,,,,,,,,,,,,,,200200,19,2022-01-28_16h48.03.308,lexical_decision_task_DD_L3,2021.2.3,Win32,60.20469597,,,,,,,,,,,2.0024,0,,,,,,,,,,,,,,,,,,,,,,,,0.004629713,-0.372222248,0,0,0,,,,,,,SPORT,LB,m,m,./images/SPORTLB.png,,,,,,,z,0,2.0024,,,,,,,,0,81,81,48,1
,,,,,,,,,,,,,,,,,200200,19,2022-01-28_16h48.03.308,lexical_decision_task_DD_L3,2021.2.3,Win32,60.20469597,,,,,,,,,,,0.867,1,,,,,,,,,,,,,,,,,,,,,,,,0.004629713,-0.372222248,0,0,0,,,,,,,CANDY,LB,z,m,./images/CANDYLB.png,,,,,,,z,1,0.867,,,,,,,,0,82,82,123,1
,,,,,,,,,,,,,,,,,200200,19,2022-01-28_16h48.03.308,lexical_decision_task_DD_L3,2021.2.3,Win32,60.20469597,,,,,,,,,,,1.0902,1,,,,,,,,,,,,,,,,,,,,,,,,-0.020370288,-0.37870373,1,0,0,,,,,,,CHALK,C,z,m,./images/CHALK.png,break_done_button,,,,,,z,1,1.0902,,,,,,,,0,83,83,109,1
,,,,,,,,,,,,,,,,,200200,19,2022-01-28_16h48.03.308,lexical_decision_task_DD_L3,2021.2.3,Win32,60.20469597,,,,,,,,,,,0.7854,0,,,,,,,,,,,,,,,,,,,,,,,,-0.020370288,-0.37870373,0,0,0,,,,,,,CLOTH,HB,z,m,./images/CLOTHHB.png,,,,,,,m,0,0.7854,,,,,,,,0,84,84,107,1
,,,,,,,,,,,,,,,,,200200,19,2022-01-28_16h48.03.308,lexical_decision_task_DD_L3,2021.2.3,Win32,60.20469597,,,,,,,,,,,0.7208,1,,,,,,,,,,,,,,,,,,,,,,,,-0.020370288,-0.37870373,0,0,0,,,,,,,GARDEN,C,z,m,./images/GARDEN.png,,,,,,,z,1,0.7208,,,,,,,,0,85,85,94,1
,,,,,,,,,,,,,,,,,200200,19,2022-01-28_16h48.03.308,lexical_decision_task_DD_L3,2021.2.3,Win32,60.20469597,,,,,,,,,,,0.6504,1,,,,,,,,,,,,,,,,,,,,,,,,-0.020370288,-0.37870373,0,0,0,,,,,,,FERRY,LB,z,m,./images/FERRYLB.png,,,,,,,z,1,0.6504,,,,,,,,0,86,86,141,1
,,,,,,,,,,,,,,,,,200200,19,2022-01-28_16h48.03.308,lexical_decision_task_DD_L3,2021.2.3,Win32,60.20469597,,,,,,,,,,,0.8558,1,,,,,,,,,,,,,,,,,,,,,,,,-0.020370288,-0.37870373,0,0,0,,,,,,,BELLY,C,m,m,./images/BELLY.png,,,,,,,m,1,0.8558,,,,,,,,0,87,87,10,1
,,,,,,,,,,,,,,,,,200200,19,2022-01-28_16h48.03.308,lexical_decision_task_DD_L3,2021.2.3,Win32,60.20469597,,,,,,,,,,,0.586,1,,,,,,,,,,,,,,,,,,,,,,,,-0.020370288,-0.37870373,0,0,0,,,,,,,MELON,C,m,m,./images/MELON.png,,,,,,,m,1,0.586,,,,,,,,0,88,88,22,1
,,,,,,,,,,,,,,,,,200200,19,2022-01-28_16h48.03.308,lexical_decision_task_DD_L3,2021.2.3,Win32,60.20469597,,,,,,,,,,,0.9016,1,,,,,,,,,,,,,,,,,,,,,,,,-0.020370288,-0.37870373,0,0,0,,,,,,,PURSE,HB,m,m,./images/PURSEHB.png,,,,,,,m,1,0.9016,,,,,,,,0,89,89,62,1
,,,,,,,,,,,,,,,,,200200,19,2022-01-28_16h48.03.308,lexical_decision_task_DD_L3,2021.2.3,Win32,60.20469597,,,,,,,,,,,0.634,0,,,,,,,,,,,,,,,,,,,,,,,,-0.020370288,-0.37870373,0,0,0,,,,,,,PASTA,HB,m,m,./images/PASTAHB.png,,,,,,,z,0,0.634,,,,,,,,0,90,90,5,1
,,,,,,,,,,,,,,,,,200200,19,2022-01-28_16h48.03.308,lexical_decision_task_DD_L3,2021.2.3,Win32,60.20469597,,,,,,,,,,,0.838,1,,,,,,,,,,,,,,,,,,,,,,,,-0.020370288,-0.37870373,0,0,0,,,,,,,BANNER,C,m,m,./images/BANNER.png,,,,,,,m,1,0.838,,,,,,,,0,91,91,52,1
,,,,,,,,,,,,,,,,,200200,19,2022-01-28_16h48.03.308,lexical_decision_task_DD_L3,2021.2.3,Win32,60.20469597,,,,,,,,,,,0.8003,1,,,,,,,,,,,,,,,,,,,,,,,,-0.020370288,-0.37870373,0,0,0,,,,,,,BUTTER,LB,z,m,./images/BUTTERLB.png,,,,,,,z,1,0.8003,,,,,,,,0,92,92,111,1
,,,,,,,,,,,,,,,,,200200,19,2022-01-28_16h48.03.308,lexical_decision_task_DD_L3,2021.2.3,Win32,60.20469597,,,,,,,,,,,1.0861,1,,,,,,,,,,,,,,,,,,,,,,,,-0.020370288,-0.37870373,0,0,0,,,,,,,TOWEL,C,z,m,./images/TOWEL.png,,,,,,,z,1,1.0861,,,,,,,,0,93,93,85,1
,,,,,,,,,,,,,,,,,200200,19,2022-01-28_16h48.03.308,lexical_decision_task_DD_L3,2021.2.3,Win32,60.20469597,,,,,,,,,,,0.9357,0,,,,,,,,,,,,,,,,,,,,,,,,-0.020370288,-0.37870373,0,0,0,,,,,,,COUCH,HB,m,m,./images/COUCHHB.png,,,,,,,z,0,0.9357,,,,,,,,0,94,94,77,1
,,,,,,,,,,,,,,,,,200200,19,2022-01-28_16h48.03.308,lexical_decision_task_DD_L3,2021.2.3,Win32,60.20469597,,,,,,,,,,,1.2837,1,,,,,,,,,,,,,,,,,,,,,,,,-0.020370288,-0.37870373,0,0,0,,,,,,,FLESH,LB,z,m,./images/FLESHLB.png,,,,,,,z,1,1.2837,,,,,,,,0,95,95,108,1
,,,,,,,,,,,,,,,,,200200,19,2022-01-28_16h48.03.308,lexical_decision_task_DD_L3,2021.2.3,Win32,60.20469597,,,,,,,,,,,0.9879,0,,,,,,,,,,,,,,,,,,,,,,,,-0.020370288,-0.37870373,0,0,0,,,,,,,PAINT,C,m,m,./images/PAINT.png,,,,,,,z,0,0.9879,,,,,,,,0,96,96,7,1
,,,,,,,,,,,,,,,,,200200,19,2022-01-28_16h48.03.308,lexical_decision_task_DD_L3,2021.2.3,Win32,60.20469597,,,,,,,,,,,1.5003,1,,,,,,,,,,,,,,,,,,,,,,,,-0.020370288,-0.37870373,0,0,0,,,,,,,MONKEY,LB,z,m,./images/MONKEYLB.png,,,,,,,z,1,1.5003,,,,,,,,0,97,97,129,1
,,,,,,,,,,,,,,,,,200200,19,2022-01-28_16h48.03.308,lexical_decision_task_DD_L3,2021.2.3,Win32,60.20469597,,,,,,,,,,,0.7671,1,,,,,,,,,,,,,,,,,,,,,,,,-0.020370288,-0.37870373,0,0,0,,,,,,,BANANA,C,z,m,./images/BANANA.png,,,,,,,z,1,0.7671,,,,,,,,0,98,98,154,1
,,,,,,,,,,,,,,,,,200200,19,2022-01-28_16h48.03.308,lexical_decision_task_DD_L3,2021.2.3,Win32,60.20469597,,,,,,,,,,,1.0751,0,,,,,,,,,,,,,,,,,,,,,,,,-0.020370288,-0.37870373,0,0,0,,,,,,,SNACK,C,m,m,./images/SNACK.png,,,,,,,z,0,1.0751,,,,,,,,0,99,99,73,1
,,,,,,,,,,,,,,,,,200200,19,2022-01-28_16h48.03.308,lexical_decision_task_DD_L3,2021.2.3,Win32,60.20469597,,,,,,,,,,,1.1745,1,,,,,,,,,,,,,,,,,,,,,,,,-0.020370288,-0.37870373,0,0,0,,,,,,,FINGER,LB,m,m,./images/FINGERLB.png,,,,,,,m,1,1.1745,,,,,,,,0,100,100,3,1
,,,,,,,,,,,,,,,,,200200,19,2022-01-28_16h48.03.308,lexical_decision_task_DD_L3,2021.2.3,Win32,60.20469597,,,,,,,,,,,1.1091,1,,,,,,,,,,,,,,,,,,,,,,,,-0.020370288,-0.37870373,0,0,0,,,,,,,SAUNA,LB,z,m,./images/SAUNALB.png,,,,,,,z,1,1.1091,,,,,,,,0,101,101,117,1
,,,,,,,,,,,,,,,,,200200,19,2022-01-28_16h48.03.308,lexical_decision_task_DD_L3,2021.2.3,Win32,60.20469597,,,,,,,,,,,0.734,1,,,,,,,,,,,,,,,,,,,,,,,,-0.020370288,-0.37870373,0,0,0,,,,,,,BONNET,HB,m,m,./images/BONNETHB.png,,,,,,,m,1,0.734,,,,,,,,0,102,102,11,1
,,,,,,,,,,,,,,,,,200200,19,2022-01-28_16h48.03.308,lexical_decision_task_DD_L3,2021.2.3,Win32,60.20469597,,,,,,,,,,,0.6834,1,,,,,,,,,,,,,,,,,,,,,,,,-0.020370288,-0.37870373,0,0,0,,,,,,,CHERRY,LB,z,m,./images/CHERRYLB.png,,,,,,,z,1,0.6834,,,,,,,,0,103,103,138,1
,,,,,,,,,,,,,,,,,200200,19,2022-01-28_16h48.03.308,lexical_decision_task_DD_L3,2021.2.3,Win32,60.20469597,,,,,,,,,,,1.1,1,,,,,,,,,,,,,,,,,,,,,,,,-0.020370288,-0.37870373,0,0,0,,,,,,,GRANNY,HB,z,m,./images/GRANNYHB.png,,,,,,,z,1,1.1,,,,,,,,0,104,104,104,1
,,,,,,,,,,,,,,,,,200200,19,2022-01-28_16h48.03.308,lexical_decision_task_DD_L3,2021.2.3,Win32,60.20469597,,,,,,,,,,,1.074,0,,,,,,,,,,,,,,,,,,,,,,,,-0.020370288,-0.37870373,0,0,0,,,,,,,PIMPLE,HB,m,m,./images/PIMPLEHB.png,,,,,,,z,0,1.074,,,,,,,,0,105,105,71,1
,,,,,,,,,,,,,,,,,200200,19,2022-01-28_16h48.03.308,lexical_decision_task_DD_L3,2021.2.3,Win32,60.20469597,,,,,,,,,,,0.9833,0,,,,,,,,,,,,,,,,,,,,,,,,-0.020370288,-0.37870373,0,0,0,,,,,,,SHORE,LB,m,m,./images/SHORELB.png,,,,,,,z,0,0.9833,,,,,,,,0,106,106,12,1
,,,,,,,,,,,,,,,,,200200,19,2022-01-28_16h48.03.308,lexical_decision_task_DD_L3,2021.2.3,Win32,60.20469597,,,,,,,,,,,2.1406,1,,,,,,,,,,,,,,,,,,,,,,,,-0.020370288,-0.37870373,0,0,0,,,,,,,WEASEL,HB,m,m,./images/WEASELHB.png,,,,,,,m,1,2.1406,,,,,,,,0,107,107,80,1
,,,,,,,,,,,,,,,,,200200,19,2022-01-28_16h48.03.308,lexical_decision_task_DD_L3,2021.2.3,Win32,60.20469597,,,,,,,,,,,1.8004,0,,,,,,,,,,,,,,,,,,,,,,,,-0.020370288,-0.37870373,0,0,0,,,,,,,SCREW,LB,m,m,./images/SCREWLB.png,,,,,,,z,0,1.8004,,,,,,,,0,108,108,24,1
,,,,,,,,,,,,,,,,,200200,19,2022-01-28_16h48.03.308,lexical_decision_task_DD_L3,2021.2.3,Win32,60.20469597,,,,,,,,,,,0.9002,1,,,,,,,,,,,,,,,,,,,,,,,,-0.020370288,-0.37870373,0,0,0,,,,,,,RAZOR,C,z,m,./images/RAZOR.png,,,,,,,z,1,0.9002,,,,,,,,0,109,109,118,1
,,,,,,,,,,,,,,,,,200200,19,2022-01-28_16h48.03.308,lexical_decision_task_DD_L3,2021.2.3,Win32,60.20469597,,,,,,,,,,,0.9577,1,,,,,,,,,,,,,,,,,,,,,,,,-0.020370288,-0.37870373,0,0,0,,,,,,,SNAKE,C,z,m,./images/SNAKE.png,,,,,,,z,1,0.9577,,,,,,,,0,110,110,124,1
,,,,,,,,,,,,,,,,,200200,19,2022-01-28_16h48.03.308,lexical_decision_task_DD_L3,2021.2.3,Win32,60.20469597,,,,,,,,,,,1.367,1,,,,,,,,,,,,,,,,,,,,,,,,-0.020370288,-0.37870373,0,0,0,,,,,,,PEARL,C,m,m,./images/PEARL.png,,,,,,,m,1,1.367,,,,,,,,0,111,111,46,1
,,,,,,,,,,,,,,,,,200200,19,2022-01-28_16h48.03.308,lexical_decision_task_DD_L3,2021.2.3,Win32,60.20469597,,,,,,,,,,,0.7742,1,,,,,,,,,,,,,,,,,,,,,,,,-0.020370288,-0.37870373,0,0,0,,,,,,,BRIDE,C,z,m,./images/BRIDE.png,,,,,,,z,1,0.7742,,,,,,,,0,112,112,148,1
,,,,,,,,,,,,,,,,,200200,19,2022-01-28_16h48.03.308,lexical_decision_task_DD_L3,2021.2.3,Win32,60.20469597,,,,,,,,,,,0.9191,1,,,,,,,,,,,,,,,,,,,,,,,,-0.020370288,-0.37870373,0,0,0,,,,,,,VALLEY,HB,z,m,./images/VALLEYHB.png,,,,,,,z,1,0.9191,,,,,,,,0,113,113,152,1
,,,,,,,,,,,,,,,,,200200,19,2022-01-28_16h48.03.308,lexical_decision_task_DD_L3,2021.2.3,Win32,60.20469597,,,,,,,,,,,0.7579,1,,,,,,,,,,,,,,,,,,,,,,,,-0.020370288,-0.37870373,0,0,0,,,,,,,JUNGLE,HB,m,m,./images/JUNGLEHB.png,,,,,,,m,1,0.7579,,,,,,,,0,114,114,83,1
,,,,,,,,,,,,,,,,,200200,19,2022-01-28_16h48.03.308,lexical_decision_task_DD_L3,2021.2.3,Win32,60.20469597,,,,,,,,,,,0.5505,1,,,,,,,,,,,,,,,,,,,,,,,,-0.020370288,-0.37870373,0,0,0,,,,,,,STOOL,C,z,m,./images/STOOL.png,,,,,,,z,1,0.5505,,,,,,,,0,115,115,127,1
,,,,,,,,,,,,,,,,,200200,19,2022-01-28_16h48.03.308,lexical_decision_task_DD_L3,2021.2.3,Win32,60.20469597,,,,,,,,,,,0.6396,1,,,,,,,,,,,,,,,,,,,,,,,,-0.020370288,-0.37870373,0,0,0,,,,,,,WALRUS,HB,m,m,./images/WALRUSHB.png,,,,,,,m,1,0.6396,,,,,,,,0,116,116,23,1
,,,,,,,,,,,,,,,,,200200,19,2022-01-28_16h48.03.308,lexical_decision_task_DD_L3,2021.2.3,Win32,60.20469597,,,,,,,,,,,0.8844,1,,,,,,,,,,,,,,,,,,,,,,,,-0.020370288,-0.37870373,0,0,0,,,,,,,QUILL,C,m,m,./images/QUILL.png,,,,,,,m,1,0.8844,,,,,,,,0,117,117,31,1
,,,,,,,,,,,,,,,,,200200,19,2022-01-28_16h48.03.308,lexical_decision_task_DD_L3,2021.2.3,Win32,60.20469597,,,,,,,,,,,1.0723,1,,,,,,,,,,,,,,,,,,,,,,,,-0.020370288,-0.37870373,0,0,0,,,,,,,ALLEY,C,z,m,./images/ALLEY.png,,,,,,,z,1,1.0723,,,,,,,,0,118,118,139,1
,,,,,,,,,,,,,,,,,200200,19,2022-01-28_16h48.03.308,lexical_decision_task_DD_L3,2021.2.3,Win32,60.20469597,,,,,,,,,,,1.038,0,,,,,,,,,,,,,,,,,,,,,,,,-0.020370288,-0.37870373,0,0,0,,,,,,,SHELF,LB,m,m,./images/SHELFLB.png,,,,,,,z,0,1.038,,,,,,,,0,119,119,39,1
,,,,,,,,,,,,,,,,,200200,19,2022-01-28_16h48.03.308,lexical_decision_task_DD_L3,2021.2.3,Win32,60.20469597,,,,,,,,,,,0.8167,1,,,,,,,,,,,,,,,,,,,,,,,,-0.020370288,-0.37870373,0,0,0,,,,,,,STEAK,C,z,m,./images/STEAK.png,,,,,,,z,1,0.8167,,,,,,,,0,120,120,115,1
,,,,,,,,,,,,,,,,,200200,19,2022-01-28_16h48.03.308,lexical_decision_task_DD_L3,2021.2.3,Win32,60.20469597,,,,,,,,,,,1.1503,1,,,,,,,,,,,,,,,,,,,,,,,,-0.020370288,-0.37870373,0,0,0,,,,,,,WHEEL,HB,z,m,./images/WHEELHB.png,,,,,,,z,1,1.1503,,,,,,,,0,121,121,161,1
,,,,,,,,,,,,,,,,,200200,19,2022-01-28_16h48.03.308,lexical_decision_task_DD_L3,2021.2.3,Win32,60.20469597,,,,,,,,,,,0.6163,1,,,,,,,,,,,,,,,,,,,,,,,,-0.020370288,-0.37870373,0,0,0,,,,,,,BERRY,HB,m,m,./images/BERRYHB.png,,,,,,,m,1,0.6163,,,,,,,,0,122,122,47,1
,,,,,,,,,,,,,,,,,200200,19,2022-01-28_16h48.03.308,lexical_decision_task_DD_L3,2021.2.3,Win32,60.20469597,,,,,,,,,,,3.2223,1,,,,,,,,,,,,,,,,,,,,,,,,-0.020370288,-0.37870373,0,0,0,,,,,,,DANCER,LB,z,m,./images/DANCERLB.png,,,,,,,z,1,3.2223,,,,,,,,0,123,123,105,1
,,,,,,,,,,,,,,,,,200200,19,2022-01-28_16h48.03.308,lexical_decision_task_DD_L3,2021.2.3,Win32,60.20469597,,,,,,,,,,,2.0672,1,,,,,,,,,,,,,,,,,,,,,,,,-0.020370288,-0.37870373,0,0,0,,,,,,,INFANT,C,m,m,./images/INFANT.png,,,,,,,m,1,2.0672,,,,,,,,0,124,124,76,1
,,,,,,,,,,,,,,,,,200200,19,2022-01-28_16h48.03.308,lexical_decision_task_DD_L3,2021.2.3,Win32,60.20469597,,,,,,,,,,,0.9837,1,,,,,,,,,,,,,,,,,,,,,,,,-0.020370288,-0.37870373,1,0,0,,,,,,,JUMPER,HB,z,m,./images/JUMPERHB.png,break_done_button,,,,,,z,1,0.9837,,,,,,,,0,125,125,158,1
,,,,,,,,,,,,,,,,,200200,19,2022-01-28_16h48.03.308,lexical_decision_task_DD_L3,2021.2.3,Win32,60.20469597,,,,,,,,,,,1.136,1,,,,,,,,,,,,,,,,,,,,,,,,-0.020370288,-0.37870373,0,0,0,,,,,,,JELLY,C,m,m,./images/JELLY.png,,,,,,,m,1,1.136,,,,,,,,0,126,126,64,1
,,,,,,,,,,,,,,,,,200200,19,2022-01-28_16h48.03.308,lexical_decision_task_DD_L3,2021.2.3,Win32,60.20469597,,,,,,,,,,,0.636,1,,,,,,,,,,,,,,,,,,,,,,,,-0.020370288,-0.37870373,0,0,0,,,,,,,SMOKER,HB,m,m,./images/SMOKERHB.png,,,,,,,m,1,0.636,,,,,,,,0,127,127,26,1
,,,,,,,,,,,,,,,,,200200,19,2022-01-28_16h48.03.308,lexical_decision_task_DD_L3,2021.2.3,Win32,60.20469597,,,,,,,,,,,0.9381,0,,,,,,,,,,,,,,,,,,,,,,,,-0.020370288,-0.37870373,0,0,0,,,,,,,MIRROR,LB,m,m,./images/MIRRORLB.png,,,,,,,z,0,0.9381,,,,,,,,0,128,128,63,1
,,,,,,,,,,,,,,,,,200200,19,2022-01-28_16h48.03.308,lexical_decision_task_DD_L3,2021.2.3,Win32,60.20469597,,,,,,,,,,,1.4834,1,,,,,,,,,,,,,,,,,,,,,,,,-0.020370288,-0.37870373,0,0,0,,,,,,,BROOM,LB,z,m,./images/BROOMLB.png,,,,,,,z,1,1.4834,,,,,,,,0,129,129,162,1
,,,,,,,,,,,,,,,,,200200,19,2022-01-28_16h48.03.308,lexical_decision_task_DD_L3,2021.2.3,Win32,60.20469597,,,,,,,,,,,0.8002,1,,,,,,,,,,,,,,,,,,,,,,,,-0.020370288,-0.37870373,0,0,0,,,,,,,POKER,C,z,m,./images/POKER.png,,,,,,,z,1,0.8002,,,,,,,,0,130,130,151,1
,,,,,,,,,,,,,,,,,200200,19,2022-01-28_16h48.03.308,lexical_decision_task_DD_L3,2021.2.3,Win32,60.20469597,,,,,,,,,,,0.9361,0,,,,,,,,,,,,,,,,,,,,,,,,-0.020370288,-0.37870373,0,0,0,,,,,,,LADDER,HB,m,m,./images/LADDERHB.png,,,,,,,z,0,0.9361,,,,,,,,0,131,131,38,1
,,,,,,,,,,,,,,,,,200200,19,2022-01-28_16h48.03.308,lexical_decision_task_DD_L3,2021.2.3,Win32,60.20469597,,,,,,,,,,,1.117,1,,,,,,,,,,,,,,,,,,,,,,,,-0.020370288,-0.37870373,0,0,0,,,,,,,THROAT,LB,m,m,./images/THROATLB.png,,,,,,,m,1,1.117,,,,,,,,0,132,132,36,1
,,,,,,,,,,,,,,,,,200200,19,2022-01-28_16h48.03.308,lexical_decision_task_DD_L3,2021.2.3,Win32,60.20469597,,,,,,,,,,,1.8747,1,,,,,,,,,,,,,,,,,,,,,,,,-0.020370288,-0.37870373,0,0,0,,,,,,,CASINO,C,z,m,./images/CASINO.png,,,,,,,z,1,1.8747,,,,,,,,0,133,133,112,1
,,,,,,,,,,,,,,,,,200200,19,2022-01-28_16h48.03.308,lexical_decision_task_DD_L3,2021.2.3,Win32,60.20469597,,,,,,,,,,,1.9247,1,,,,,,,,,,,,,,,,,,,,,,,,-0.020370288,-0.37870373,0,0,0,,,,,,,PILOT,HB,z,m,./images/PILOTHB.png,,,,,,,z,1,1.9247,,,,,,,,0,134,134,134,1
,,,,,,,,,,,,,,,,,200200,19,2022-01-28_16h48.03.308,lexical_decision_task_DD_L3,2021.2.3,Win32,60.20469597,,,,,,,,,,,0.9732,0,,,,,,,,,,,,,,,,,,,,,,,,-0.020370288,-0.37870373,0,0,0,,,,,,,MALLET,HB,m,m,./images/MALLETHB.png,,,,,,,z,0,0.9732,,,,,,,,0,135,135,50,1
,,,,,,,,,,,,,,,,,200200,19,2022-01-28_16h48.03.308,lexical_decision_task_DD_L3,2021.2.3,Win32,60.20469597,,,,,,,,,,,0.8077,1,,,,,,,,,,,,,,,,,,,,,,,,-0.020370288,-0.37870373,0,0,0,,,,,,,SPINE,HB,z,m,./images/SPINEHB.png,,,,,,,z,1,0.8077,,,,,,,,0,136,136,149,1
,,,,,,,,,,,,,,,,,200200,19,2022-01-28_16h48.03.308,lexical_decision_task_DD_L3,2021.2.3,Win32,60.20469597,,,,,,,,,,,0.8005,1,,,,,,,,,,,,,,,,,,,,,,,,-0.020370288,-0.37870373,0,0,0,,,,,,,CANOE,C,z,m,./images/CANOE.png,,,,,,,z,1,0.8005,,,,,,,,0,137,137,142,1
,,,,,,,,,,,,,,,,,200200,19,2022-01-28_16h48.03.308,lexical_decision_task_DD_L3,2021.2.3,Win32,60.20469597,,,,,,,,,,,0.3577,1,,,,,,,,,,,,,,,,,,,,,,,,-0.020370288,-0.37870373,0,0,0,,,,,,,FLASK,LB,z,m,./images/FLASKLB.png,,,,,,,z,1,0.3577,,,,,,,,0,138,138,156,1
,,,,,,,,,,,,,,,,,200200,19,2022-01-28_16h48.03.308,lexical_decision_task_DD_L3,2021.2.3,Win32,60.20469597,,,,,,,,,,,0.6502,1,,,,,,,,,,,,,,,,,,,,,,,,-0.020370288,-0.37870373,0,0,0,,,,,,,TRIPOD,LB,m,m,./images/TRIPODLB.png,,,,,,,m,1,0.6502,,,,,,,,0,139,139,54,1
,,,,,,,,,,,,,,,,,200200,19,2022-01-28_16h48.03.308,lexical_decision_task_DD_L3,2021.2.3,Win32,60.20469597,,,,,,,,,,,0.7904,0,,,,,,,,,,,,,,,,,,,,,,,,-0.020370288,-0.37870373,0,0,0,,,,,,,URINE,C,m,m,./images/URINE.png,,,,,,,z,0,0.7904,,,,,,,,0,140,140,70,1
,,,,,,,,,,,,,,,,,200200,19,2022-01-28_16h48.03.308,lexical_decision_task_DD_L3,2021.2.3,Win32,60.20469597,,,,,,,,,,,0.6211,1,,,,,,,,,,,,,,,,,,,,,,,,-0.020370288,-0.37870373,0,0,0,,,,,,,BABOON,C,m,m,./images/BABOON.png,,,,,,,m,1,0.6211,,,,,,,,0,141,141,58,1
,,,,,,,,,,,,,,,,,200200,19,2022-01-28_16h48.03.308,lexical_decision_task_DD_L3,2021.2.3,Win32,60.20469597,,,,,,,,,,,1.2501,0,,,,,,,,,,,,,,,,,,,,,,,,-0.020370288,-0.37870373,0,0,0,,,,,,,WRIST,C,m,m,./images/WRIST.png,,,,,,,z,0,1.2501,,,,,,,,0,142,142,25,1
,,,,,,,,,,,,,,,,,200200,19,2022-01-28_16h48.03.308,lexical_decision_task_DD_L3,2021.2.3,Win32,60.20469597,,,,,,,,,,,1.6007,1,,,,,,,,,,,,,,,,,,,,,,,,-0.020370288,-0.37870373,0,0,0,,,,,,,DIVER,LB,z,m,./images/DIVERLB.png,,,,,,,z,1,1.6007,,,,,,,,0,143,143,93,1
,,,,,,,,,,,,,,,,,200200,19,2022-01-28_16h48.03.308,lexical_decision_task_DD_L3,2021.2.3,Win32,60.20469597,,,,,,,,,,,1.8003,0,,,,,,,,,,,,,,,,,,,,,,,,-0.020370288,-0.37870373,0,0,0,,,,,,,ENGINE,HB,z,m,./images/ENGINEHB.png,,,,,,,m,0,1.8003,,,,,,,,0,144,144,122,1
,,,,,,,,,,,,,,,,,200200,19,2022-01-28_16h48.03.308,lexical_decision_task_DD_L3,2021.2.3,Win32,60.20469597,,,,,,,,,,,0.8334,1,,,,,,,,,,,,,,,,,,,,,,,,-0.020370288,-0.37870373,0,0,0,,,,,,,BOXER,C,z,m,./images/BOXER.png,,,,,,,z,1,0.8334,,,,,,,,0,145,145,88,1
,,,,,,,,,,,,,,,,,200200,19,2022-01-28_16h48.03.308,lexical_decision_task_DD_L3,2021.2.3,Win32,60.20469597,,,,,,,,,,,2.4175,0,,,,,,,,,,,,,,,,,,,,,,,,-0.020370288,-0.37870373,0,0,0,,,,,,,CRATER,LB,z,m,./images/CRATERLB.png,,,,,,,m,0,2.4175,,,,,,,,0,146,146,87,1
,,,,,,,,,,,,,,,,,200200,19,2022-01-28_16h48.03.308,lexical_decision_task_DD_L3,2021.2.3,Win32,60.20469597,,,,,,,,,,,1.2335,1,,,,,,,,,,,,,,,,,,,,,,,,-0.020370288,-0.37870373,0,0,0,,,,,,,LITTER,LB,m,m,./images/LITTERLB.png,,,,,,,m,1,1.2335,,,,,,,,0,147,147,78,1
,,,,,,,,,,,,,,,,,200200,19,2022-01-28_16h48.03.308,lexical_decision_task_DD_L3,2021.2.3,Win32,60.20469597,,,,,,,,,,,0.8862,1,,,,,,,,,,,,,,,,,,,,,,,,-0.020370288,-0.37870373,0,0,0,,,,,,,BASKET,HB,z,m,./images/BASKETHB.png,,,,,,,z,1,0.8862,,,,,,,,0,148,148,128,1
,,,,,,,,,,,,,,,,,200200,19,2022-01-28_16h48.03.308,lexical_decision_task_DD_L3,2021.2.3,Win32,60.20469597,,,,,,,,,,,1.1514,1,,,,,,,,,,,,,,,,,,,,,,,,-0.020370288,-0.37870373,0,0,0,,,,,,,PLANET,HB,z,m,./images/PLANETHB.png,,,,,,,z,1,1.1514,,,,,,,,0,149,149,164,1
,,,,,,,,,,,,,,,,,200200,19,2022-01-28_16h48.03.308,lexical_decision_task_DD_L3,2021.2.3,Win32,60.20469597,,,,,,,,,,,0.825,1,,,,,,,,,,,,,,,,,,,,,,,,-0.020370288,-0.37870373,0,0,0,,,,,,,SAUCE,LB,z,m,./images/SAUCELB.png,,,,,,,z,1,0.825,,,,,,,,0,150,150,135,1
,,,,,,,,,,,,,,,,,200200,19,2022-01-28_16h48.03.308,lexical_decision_task_DD_L3,2021.2.3,Win32,60.20469597,,,,,,,,,,,0.8335,1,,,,,,,,,,,,,,,,,,,,,,,,-0.020370288,-0.37870373,0,0,0,,,,,,,PLANK,C,m,m,./images/PLANK.png,,,,,,,m,1,0.8335,,,,,,,,0,151,151,1,1
,,,,,,,,,,,,,,,,,200200,19,2022-01-28_16h48.03.308,lexical_decision_task_DD_L3,2021.2.3,Win32,60.20469597,,,,,,,,,,,0.8214,0,,,,,,,,,,,,,,,,,,,,,,,,-0.020370288,-0.37870373,0,0,0,,,,,,,BRUSH,HB,z,m,./images/BRUSHHB.png,,,,,,,m,0,0.8214,,,,,,,,0,152,152,143,1
,,,,,,,,,,,,,,,,,200200,19,2022-01-28_16h48.03.308,lexical_decision_task_DD_L3,2021.2.3,Win32,60.20469597,,,,,,,,,,,0.6529,0,,,,,,,,,,,,,,,,,,,,,,,,-0.020370288,-0.37870373,0,0,0,,,,,,,TWINS,LB,m,m,./images/TWINSLB.png,,,,,,,z,0,0.6529,,,,,,,,0,153,153,60,1
,,,,,,,,,,,,,,,,,200200,19,2022-01-28_16h48.03.308,lexical_decision_task_DD_L3,2021.2.3,Win32,60.20469597,,,,,,,,,,,1.3577,0,,,,,,,,,,,,,,,,,,,,,,,,-0.020370288,-0.37870373,0,0,0,,,,,,,PENCE,C,m,m,./images/PENCE.png,,,,,,,z,0,1.3577,,,,,,,,0,154,154,16,1
,,,,,,,,,,,,,,,,,200200,19,2022-01-28_16h48.03.308,lexical_decision_task_DD_L3,2021.2.3,Win32,60.20469597,,,,,,,,,,,0.8838,1,,,,,,,,,,,,,,,,,,,,,,,,-0.020370288,-0.37870373,0,0,0,,,,,,,ARROW,LB,z,m,./images/ARROWLB.png,,,,,,,z,1,0.8838,,,,,,,,0,155,155,153,1
,,,,,,,,,,,,,,,,,200200,19,2022-01-28_16h48.03.308,lexical_decision_task_DD_L3,2021.2.3,Win32,60.20469597,,,,,,,,,,,0.75,1,,,,,,,,,,,,,,,,,,,,,,,,-0.020370288,-0.37870373,0,0,0,,,,,,,PEBBLE,C,z,m,./images/PEBBLE.png,,,,,,,z,1,0.75,,,,,,,,0,156,156,166,1
,,,,,,,,,,,,,,,,,200200,19,2022-01-28_16h48.03.308,lexical_decision_task_DD_L3,2021.2.3,Win32,60.20469597,,,,,,,,,,,0.8335,1,,,,,,,,,,,,,,,,,,,,,,,,-0.020370288,-0.37870373,0,0,0,,,,,,,MEDAL,HB,z,m,./images/MEDALHB.png,,,,,,,z,1,0.8335,,,,,,,,0,157,157,95,1
,,,,,,,,,,,,,,,,,200200,19,2022-01-28_16h48.03.308,lexical_decision_task_DD_L3,2021.2.3,Win32,60.20469597,,,,,,,,,,,0.9064,1,,,,,,,,,,,,,,,,,,,,,,,,-0.020370288,-0.37870373,0,0,0,,,,,,,BEARD,HB,m,m,./images/BEARDHB.png,,,,,,,m,1,0.9064,,,,,,,,0,158,158,2,1
,,,,,,,,,,,,,,,,,200200,19,2022-01-28_16h48.03.308,lexical_decision_task_DD_L3,2021.2.3,Win32,60.20469597,,,,,,,,,,,0.8669,0,,,,,,,,,,,,,,,,,,,,,,,,-0.020370288,-0.37870373,0,0,0,,,,,,,PICKLE,HB,m,m,./images/PICKLEHB.png,,,,,,,z,0,0.8669,,,,,,,,0,159,159,14,1
,,,,,,,,,,,,,,,,,200200,19,2022-01-28_16h48.03.308,lexical_decision_task_DD_L3,2021.2.3,Win32,60.20469597,,,,,,,,,,,2.4925,0,,,,,,,,,,,,,,,,,,,,,,,,-0.020370288,-0.37870373,0,0,0,,,,,,,SUNSET,C,m,m,./images/SUNSET.png,,,,,,,z,0,2.4925,,,,,,,,0,160,160,82,1
,,,,,,,,,,,,,,,,,200200,19,2022-01-28_16h48.03.308,lexical_decision_task_DD_L3,2021.2.3,Win32,60.20469597,,,,,,,,,,,0.9042,1,,,,,,,,,,,,,,,,,,,,,,,,-0.020370288,-0.37870373,0,0,0,,,,,,,STAIN,LB,z,m,./images/STAINLB.png,,,,,,,z,1,0.9042,,,,,,,,0,161,161,90,1
,,,,,,,,,,,,,,,,,200200,19,2022-01-28_16h48.03.308,lexical_decision_task_DD_L3,2021.2.3,Win32,60.20469597,,,,,,,,,,,1.1837,0,,,,,,,,,,,,,,,,,,,,,,,,-0.020370288,-0.37870373,0,0,0,,,,,,,BISHOP,C,z,m,./images/BISHOP.png,,,,,,,m,0,1.1837,,,,,,,,0,162,162,133,1
,,,,,,,,,,,,,,,,,200200,19,2022-01-28_16h48.03.308,lexical_decision_task_DD_L3,2021.2.3,Win32,60.20469597,,,,,,,,,,,1.4843,0,,,,,,,,,,,,,,,,,,,,,,,,-0.020370288,-0.37870373,0,0,0,,,,,,,MOTOR,C,m,m,./images/MOTOR.png,,,,,,,z,0,1.4843,,,,,,,,0,163,163,13,1
,,,,,,,,,,,,,,,,,200200,19,2022-01-28_16h48.03.308,lexical_decision_task_DD_L3,2021.2.3,Win32,60.20469597,,,,,,,,,,,0.7671,1,,,,,,,,,,,,,,,,,,,,,,,,-0.020370288,-0.37870373,0,0,0,,,,,,,CLIFF,HB,z,m,./images/CLIFFHB.png,,,,,,,z,1,0.7671,,,,,,,,0,164,164,92,1
,,,,,,,,,,,,,,,,,200200,19,2022-01-28_16h48.03.308,lexical_decision_task_DD_L3,2021.2.3,Win32,60.20469597,,,,,,,,,,,0.7248,1,,,,,,,,,,,,,,,,,,,,,,,,-0.020370288,-0.37870373,0,0,0,,,,,,,STOVE,HB,z,m,./images/STOVEHB.png,,,,,,,z,1,0.7248,,,,,,,,0,165,165,86,1
,,,,,,,,,,,,,,,,,200200,19,2022-01-28_16h48.03.308,lexical_decision_task_DD_L3,2021.2.3,Win32,60.20469597,,,,,,,,,,,0.8835,1,,,,,,,,,,,,,,,,,,,,,,,,-0.020370288,-0.37870373,0,0,0,,,,,,,SHIELD,LB,z,m,./images/SHIELDLB.png,,,,,,,z,1,0.8835,,,,,,,,0,166,166,132,1
,,,,,,,,,,,,,,,,,200200,19,2022-01-28_16h48.03.308,lexical_decision_task_DD_L3,2021.2.3,Win32,60.20469597,,,,,,,,,,,2.3407,0,,,,,,,,,,,,,,,,,,,,,,,,-0.020370288,-0.37870373,0,0,0,,,,,,,CLOUD,HB,z,m,./images/CLOUDHB.png,,,,,,,m,0,2.3407,,,,,,,,0,167,167,110,1
