key_resp.keys,instr_done_touch.x,instr_done_touch.y,instr_done_touch.leftButton,instr_done_touch.midButton,instr_done_touch.rightButton,instr_done_touch.clicked_name,instruction_pages.thisRepN,instruction_pages.thisTrialN,instruction_pages.thisN,instruction_pages.thisIndex,instruction_pages.ran,pageN,phase,instruct_text,has_image,instruct_image,participant,age,date,expName,psychopyVersion,OS,frameRate,response.keys,response.corr,response.rt,touch_resp.x,touch_resp.y,touch_resp.leftButton,touch_resp.midButton,touch_resp.rightButton,touch_resp.time,touch_resp.clicked_name,rt,corr,practrials.thisRepN,practrials.thisTrialN,practrials.thisN,practrials.thisIndex,practrials.ran,TrialID,Target,corrAns,end_of_practice_trials_pages.thisRepN,end_of_practice_trials_pages.thisTrialN,end_of_practice_trials_pages.thisN,end_of_practice_trials_pages.thisIndex,end_of_practice_trials_pages.ran,key_resp_2.keys,key_resp_2.corr,key_resp_2.rt,targ_click.x,targ_click.y,targ_click.leftButton,targ_click.midButton,targ_click.rightButton,targ_click.time,targ_click.clicked_name,break_done_touch.x,break_done_touch.y,break_done_touch.leftButton,break_done_touch.midButton,break_done_touch.rightButton,break_done_keyboard.keys,maintrials.thisRepN,maintrials.thisTrialN,maintrials.thisN,maintrials.thisIndex,maintrials.ran,string,blur,study,lex,stim_path,break_done_keyboard.rt,key_resp.rt,test_instructions.thisRepN,test_instructions.thisTrialN,test_instructions.thisN,test_instructions.thisIndex,test_instructions.ran,key_resp_3.keys,key_resp_3.corr,key_resp_3.rt,test_click.x,test_click.y,test_click.leftButton,test_click.midButton,test_click.rightButton,test_click.time,test_click.clicked_name,test_phase.thisRepN,test_phase.thisTrialN,test_phase.thisN,test_phase.thisIndex,test_phase.ran
,0.034444444,-0.394444444,1,0,0,instr_done_button,0,0,0,0,1,1,instructions,"INSTRUCTIONS
At the start of each trial, look at the plus sign  (+) in the center of the screen.  This tells you that a trial is about to begin and where to look. Second, the plus sign will disappear and a string of letters will appear. Your task is to determine if the string of letters is a word or not. If the item is a word press the M key (on keyboard)  or touch the word button (phone/tablet).  If the item is not a word,  press the  Z key (on keyboard)  or touch the nonword button (on phone/tablet). 
Press the space bar or touch  continue.",0,,200218,22,2022-01-29_10h36.57.986,lexical_decision_task_DD_L5,2021.2.3,MacIntel,29.41176471,,,,,,,,,,,,,,,,,,,,,,,,,,,,,,,,,,,,,,,,,,,,,,,,,,,,,,,,,,,,,,,,,,,,,,,,,
,0.03,-0.396666667,1,0,0,instr_done_button,0,1,1,1,1,2,instructions,"If your device has a keyboard, press the 'Z' key for nonwords and the 'M' key for words.





Press the space bar or touch the button below to continue.",0,keyboard-example.gif,200218,22,2022-01-29_10h36.57.986,lexical_decision_task_DD_L5,2021.2.3,MacIntel,29.41176471,,,,,,,,,,,,,,,,,,,,,,,,,,,,,,,,,,,,,,,,,,,,,,,,,,,,,,,,,,,,,,,,,,,,,,,,,
,0.025555556,-0.4,1,0,0,instr_done_button,0,2,2,2,1,3,instructions,"If you are using a touchscreen only device, use the buttons on the screen. Do not use the mouse.





Press the space bar or touch the button below to continue.",0,touchscreen-example.gif,200218,22,2022-01-29_10h36.57.986,lexical_decision_task_DD_L5,2021.2.3,MacIntel,29.41176471,,,,,,,,,,,,,,,,,,,,,,,,,,,,,,,,,,,,,,,,,,,,,,,,,,,,,,,,,,,,,,,,,,,,,,,,,
,0.012222222,-0.384444444,1,0,0,instr_done_button,0,3,3,3,1,4,instructions,"It is very important that you respond as quickly and accurately as possible, as each letter string will only be on the screen for two seconds. If you do not respond within this time, the message 'Too slow!' will be displayed and the experiment will progress to the next letter string. The first 20 trials will be practice trials and you will receive feedback on your answers. 

Press the space bar or touch the button below to start the practice trials.",0,,200218,22,2022-01-29_10h36.57.986,lexical_decision_task_DD_L5,2021.2.3,MacIntel,29.41176471,,,,,,,,,,,,,,,,,,,,,,,,,,,,,,,,,,,,,,,,,,,,,,,,,,,,,,,,,,,,,,,,,,,,,,,,,
,,,,,,,,,,,,,,,,,200218,22,2022-01-29_10h36.57.986,lexical_decision_task_DD_L5,2021.2.3,MacIntel,29.41176471,m,1,0.911,,,,,,,,0.911,1,0,0,0,1,1,1001,ADJUST,m,,,,,,,,,,,,,,,,,,,,,,,,,,,,,,,,,,,,,,,,,,,,,,,,,,,,,
,,,,,,,,,,,,,,,,,200218,22,2022-01-29_10h36.57.986,lexical_decision_task_DD_L5,2021.2.3,MacIntel,29.41176471,m,0,0.927,,,,,,,,0.927,0,0,1,1,11,1,1001,RASHET,z,,,,,,,,,,,,,,,,,,,,,,,,,,,,,,,,,,,,,,,,,,,,,,,,,,,,,
,,,,,,,,,,,,,,,,,200218,22,2022-01-29_10h36.57.986,lexical_decision_task_DD_L5,2021.2.3,MacIntel,29.41176471,m,1,0.657,,,,,,,,0.657,1,0,2,2,5,1,1001,OBTAIN,m,,,,,,,,,,,,,,,,,,,,,,,,,,,,,,,,,,,,,,,,,,,,,,,,,,,,,
,,,,,,,,,,,,,,,,,200218,22,2022-01-29_10h36.57.986,lexical_decision_task_DD_L5,2021.2.3,MacIntel,29.41176471,z,1,0.828,,,,,,,,0.828,1,0,3,3,8,1,1001,ASLERT,z,,,,,,,,,,,,,,,,,,,,,,,,,,,,,,,,,,,,,,,,,,,,,,,,,,,,,
,,,,,,,,,,,,,,,,,200218,22,2022-01-29_10h36.57.986,lexical_decision_task_DD_L5,2021.2.3,MacIntel,29.41176471,m,1,0.7,,,,,,,,0.7,1,0,4,4,6,1,1001,ZOMBIE,m,,,,,,,,,,,,,,,,,,,,,,,,,,,,,,,,,,,,,,,,,,,,,,,,,,,,,
,,,,,,,,,,,,,,,,,200218,22,2022-01-29_10h36.57.986,lexical_decision_task_DD_L5,2021.2.3,MacIntel,29.41176471,m,0,0.746,,,,,,,,0.746,0,0,5,5,9,1,1001,FARINY,z,,,,,,,,,,,,,,,,,,,,,,,,,,,,,,,,,,,,,,,,,,,,,,,,,,,,,
,,,,,,,,,,,,,,,,,200218,22,2022-01-29_10h36.57.986,lexical_decision_task_DD_L5,2021.2.3,MacIntel,29.41176471,m,1,0.65,,,,,,,,0.65,1,0,6,6,0,1,1001,UTOPIA,m,,,,,,,,,,,,,,,,,,,,,,,,,,,,,,,,,,,,,,,,,,,,,,,,,,,,,
,,,,,,,,,,,,,,,,,200218,22,2022-01-29_10h36.57.986,lexical_decision_task_DD_L5,2021.2.3,MacIntel,29.41176471,m,1,0.612,,,,,,,,0.612,1,0,7,7,7,1,1001,VOLUME,m,,,,,,,,,,,,,,,,,,,,,,,,,,,,,,,,,,,,,,,,,,,,,,,,,,,,,
,,,,,,,,,,,,,,,,,200218,22,2022-01-29_10h36.57.986,lexical_decision_task_DD_L5,2021.2.3,MacIntel,29.41176471,m,1,0.61,,,,,,,,0.61,1,0,8,8,3,1,1001,MATRIX,m,,,,,,,,,,,,,,,,,,,,,,,,,,,,,,,,,,,,,,,,,,,,,,,,,,,,,
,,,,,,,,,,,,,,,,,200218,22,2022-01-29_10h36.57.986,lexical_decision_task_DD_L5,2021.2.3,MacIntel,29.41176471,z,1,0.864,,,,,,,,0.864,1,0,9,9,13,1,1001,ROUPET,z,,,,,,,,,,,,,,,,,,,,,,,,,,,,,,,,,,,,,,,,,,,,,,,,,,,,,
,,,,,,,,,,,,,,,,,200218,22,2022-01-29_10h36.57.986,lexical_decision_task_DD_L5,2021.2.3,MacIntel,29.41176471,m,1,0.587,,,,,,,,0.587,1,0,10,10,4,1,1001,SQUEAK,m,,,,,,,,,,,,,,,,,,,,,,,,,,,,,,,,,,,,,,,,,,,,,,,,,,,,,
,,,,,,,,,,,,,,,,,200218,22,2022-01-29_10h36.57.986,lexical_decision_task_DD_L5,2021.2.3,MacIntel,29.41176471,m,1,0.551,,,,,,,,0.551,1,0,11,11,2,1,1001,ALMOND,m,,,,,,,,,,,,,,,,,,,,,,,,,,,,,,,,,,,,,,,,,,,,,,,,,,,,,
,,,,,,,,,,,,,,,,,200218,22,2022-01-29_10h36.57.986,lexical_decision_task_DD_L5,2021.2.3,MacIntel,29.41176471,z,1,1.088,,,,,,,,1.088,1,0,12,12,15,1,1001,WHAISE,z,,,,,,,,,,,,,,,,,,,,,,,,,,,,,,,,,,,,,,,,,,,,,,,,,,,,,
,,,,,,,,,,,,,,,,,200218,22,2022-01-29_10h36.57.986,lexical_decision_task_DD_L5,2021.2.3,MacIntel,29.41176471,m,0,0.692,,,,,,,,0.692,0,0,13,13,14,1,1001,THRALE,z,,,,,,,,,,,,,,,,,,,,,,,,,,,,,,,,,,,,,,,,,,,,,,,,,,,,,
,,,,,,,,,,,,,,,,,200218,22,2022-01-29_10h36.57.986,lexical_decision_task_DD_L5,2021.2.3,MacIntel,29.41176471,m,0,0.98,,,,,,,,0.98,0,0,14,14,12,1,1001,SPRINY,z,,,,,,,,,,,,,,,,,,,,,,,,,,,,,,,,,,,,,,,,,,,,,,,,,,,,,
,,,,,,,,,,,,,,,,,200218,22,2022-01-29_10h36.57.986,lexical_decision_task_DD_L5,2021.2.3,MacIntel,29.41176471,z,1,0.854,,,,,,,,0.854,1,0,15,15,10,1,1001,INLADE,z,,,,,,,,,,,,,,,,,,,,,,,,,,,,,,,,,,,,,,,,,,,,,,,,,,,,,
,0.086666667,-0.422222222,1,0,0,instr_done_button,,,,,,1,end_of_practice,"You have completed the practice trials. During the experimental trials, you will not receive feedback. 
Before you begin, please ensure that you are in a comfortable and quiet location and will not be disturbed for about 15 minutes, as we cannot use your data if you do not complete all the trials. 
 When you are ready to start the experimental trials, please press space or touch the button below.",,,200218,22,2022-01-29_10h36.57.986,lexical_decision_task_DD_L5,2021.2.3,MacIntel,29.41176471,,,,,,,,,,,,,,,,,,,,,0,0,0,0,1,,,,,,,,,,,,,,,,,,,,,,,,,,,,,,,,,,,,,,,,,,,,,,,,
,,,,,,,,,,,,,,,,,200218,22,2022-01-29_10h36.57.986,lexical_decision_task_DD_L5,2021.2.3,MacIntel,29.41176471,,,,,,,,,,,0.63,1,,,,,,,,,,,,,,m,1,0.63,,,,,,,,0.43,-0.316666667,0,0,0,,0,0,0,65,1,SPINE,C,old,m,./images/SPINE.png,,,,,,,,,,,,,,,,,,,,,,
,,,,,,,,,,,,,,,,,200218,22,2022-01-29_10h36.57.986,lexical_decision_task_DD_L5,2021.2.3,MacIntel,29.41176471,,,,,,,,,,,0.758,1,,,,,,,,,,,,,,z,1,0.758,,,,,,,,0.43,-0.316666667,0,0,0,,0,1,1,140,1,DOVET,LB,old,z,./images/DOVETLB.png,,,,,,,,,,,,,,,,,,,,,,
,,,,,,,,,,,,,,,,,200218,22,2022-01-29_10h36.57.986,lexical_decision_task_DD_L5,2021.2.3,MacIntel,29.41176471,,,,,,,,,,,0.983,1,,,,,,,,,,,,,,m,1,0.983,,,,,,,,0.43,-0.316666667,0,0,0,,0,2,2,71,1,BUBBLE,C,old,m,./images/BUBBLE.png,,,,,,,,,,,,,,,,,,,,,,
,,,,,,,,,,,,,,,,,200218,22,2022-01-29_10h36.57.986,lexical_decision_task_DD_L5,2021.2.3,MacIntel,29.41176471,,,,,,,,,,,0.955,0,,,,,,,,,,,,,,m,0,0.955,,,,,,,,0.43,-0.316666667,0,0,0,,0,3,3,109,1,BURGE,HB,old,z,./images/BURGEHB.png,,,,,,,,,,,,,,,,,,,,,,
,,,,,,,,,,,,,,,,,200218,22,2022-01-29_10h36.57.986,lexical_decision_task_DD_L5,2021.2.3,MacIntel,29.41176471,,,,,,,,,,,0.633,1,,,,,,,,,,,,,,m,1,0.633,,,,,,,,0.43,-0.316666667,0,0,0,,0,4,4,25,1,CHALK,LB,old,m,./images/CHALKLB.png,,,,,,,,,,,,,,,,,,,,,,
,,,,,,,,,,,,,,,,,200218,22,2022-01-29_10h36.57.986,lexical_decision_task_DD_L5,2021.2.3,MacIntel,29.41176471,,,,,,,,,,,0.73,1,,,,,,,,,,,,,,z,1,0.73,,,,,,,,0.43,-0.316666667,0,0,0,,0,5,5,87,1,TRING,C,old,z,./images/TRING.png,,,,,,,,,,,,,,,,,,,,,,
,,,,,,,,,,,,,,,,,200218,22,2022-01-29_10h36.57.986,lexical_decision_task_DD_L5,2021.2.3,MacIntel,29.41176471,,,,,,,,,,,0.604,1,,,,,,,,,,,,,,m,1,0.604,,,,,,,,0.43,-0.316666667,0,0,0,,0,6,6,53,1,POSTER,C,old,m,./images/POSTER.png,,,,,,,,,,,,,,,,,,,,,,
,,,,,,,,,,,,,,,,,200218,22,2022-01-29_10h36.57.986,lexical_decision_task_DD_L5,2021.2.3,MacIntel,29.41176471,,,,,,,,,,,0.55,1,,,,,,,,,,,,,,m,1,0.55,,,,,,,,0.43,-0.316666667,0,0,0,,0,7,7,74,1,JUMPER,C,old,m,./images/JUMPER.png,,,,,,,,,,,,,,,,,,,,,,
,,,,,,,,,,,,,,,,,200218,22,2022-01-29_10h36.57.986,lexical_decision_task_DD_L5,2021.2.3,MacIntel,29.41176471,,,,,,,,,,,0.861,1,,,,,,,,,,,,,,z,1,0.861,,,,,,,,0.43,-0.316666667,0,0,0,,0,8,8,135,1,JOODY,C,old,z,./images/JOODY.png,,,,,,,,,,,,,,,,,,,,,,
,,,,,,,,,,,,,,,,,200218,22,2022-01-29_10h36.57.986,lexical_decision_task_DD_L5,2021.2.3,MacIntel,29.41176471,,,,,,,,,,,0.578,0,,,,,,,,,,,,,,m,0,0.578,,,,,,,,0.43,-0.316666667,0,0,0,,0,9,9,92,1,PAIMS,LB,old,z,./images/PAIMSLB.png,,,,,,,,,,,,,,,,,,,,,,
,,,,,,,,,,,,,,,,,200218,22,2022-01-29_10h36.57.986,lexical_decision_task_DD_L5,2021.2.3,MacIntel,29.41176471,,,,,,,,,,,0.614,1,,,,,,,,,,,,,,m,1,0.614,,,,,,,,0.43,-0.316666667,0,0,0,,0,10,10,5,1,BAMBOO,C,old,m,./images/BAMBOO.png,,,,,,,,,,,,,,,,,,,,,,
,,,,,,,,,,,,,,,,,200218,22,2022-01-29_10h36.57.986,lexical_decision_task_DD_L5,2021.2.3,MacIntel,29.41176471,,,,,,,,,,,0.976,1,,,,,,,,,,,,,,z,1,0.976,,,,,,,,0.43,-0.316666667,0,0,0,,0,11,11,142,1,PLASK,HB,old,z,./images/PLASKHB.png,,,,,,,,,,,,,,,,,,,,,,
,,,,,,,,,,,,,,,,,200218,22,2022-01-29_10h36.57.986,lexical_decision_task_DD_L5,2021.2.3,MacIntel,29.41176471,,,,,,,,,,,1.244,0,,,,,,,,,,,,,,m,0,1.244,,,,,,,,0.43,-0.316666667,0,0,0,,0,12,12,141,1,PLEET,C,old,z,./images/PLEET.png,,,,,,,,,,,,,,,,,,,,,,
,,,,,,,,,,,,,,,,,200218,22,2022-01-29_10h36.57.986,lexical_decision_task_DD_L5,2021.2.3,MacIntel,29.41176471,,,,,,,,,,,0.736,1,,,,,,,,,,,,,,z,1,0.736,,,,,,,,0.43,-0.316666667,0,0,0,,0,13,13,102,1,DULLE,C,old,z,./images/DULLE.png,,,,,,,,,,,,,,,,,,,,,,
,,,,,,,,,,,,,,,,,200218,22,2022-01-29_10h36.57.986,lexical_decision_task_DD_L5,2021.2.3,MacIntel,29.41176471,,,,,,,,,,,0.542,1,,,,,,,,,,,,,,m,1,0.542,,,,,,,,0.43,-0.316666667,0,0,0,,0,14,14,77,1,WHEEL,C,old,m,./images/WHEEL.png,,,,,,,,,,,,,,,,,,,,,,
,,,,,,,,,,,,,,,,,200218,22,2022-01-29_10h36.57.986,lexical_decision_task_DD_L5,2021.2.3,MacIntel,29.41176471,,,,,,,,,,,0.941,1,,,,,,,,,,,,,,z,1,0.941,,,,,,,,0.43,-0.316666667,0,0,0,,0,15,15,106,1,CLUMS,HB,old,z,./images/CLUMSHB.png,,,,,,,,,,,,,,,,,,,,,,
,,,,,,,,,,,,,,,,,200218,22,2022-01-29_10h36.57.986,lexical_decision_task_DD_L5,2021.2.3,MacIntel,29.41176471,,,,,,,,,,,0.546,1,,,,,,,,,,,,,,m,1,0.546,,,,,,,,0.43,-0.316666667,0,0,0,,0,16,16,26,1,CLOUD,C,old,m,./images/CLOUD.png,,,,,,,,,,,,,,,,,,,,,,
,,,,,,,,,,,,,,,,,200218,22,2022-01-29_10h36.57.986,lexical_decision_task_DD_L5,2021.2.3,MacIntel,29.41176471,,,,,,,,,,,0.71,1,,,,,,,,,,,,,,z,1,0.71,,,,,,,,0.43,-0.316666667,0,0,0,,0,17,17,105,1,MOKER,C,old,z,./images/MOKER.png,,,,,,,,,,,,,,,,,,,,,,
,,,,,,,,,,,,,,,,,200218,22,2022-01-29_10h36.57.986,lexical_decision_task_DD_L5,2021.2.3,MacIntel,29.41176471,,,,,,,,,,,0.891,1,,,,,,,,,,,,,,m,1,0.891,,,,,,,,0.43,-0.316666667,0,0,0,,0,18,18,34,1,RAZOR,LB,old,m,./images/RAZORLB.png,,,,,,,,,,,,,,,,,,,,,,
,,,,,,,,,,,,,,,,,200218,22,2022-01-29_10h36.57.986,lexical_decision_task_DD_L5,2021.2.3,MacIntel,29.41176471,,,,,,,,,,,0.725,1,,,,,,,,,,,,,,m,1,0.725,,,,,,,,0.43,-0.316666667,0,0,0,,0,19,19,43,1,STOOL,LB,old,m,./images/STOOLLB.png,,,,,,,,,,,,,,,,,,,,,,
,,,,,,,,,,,,,,,,,200218,22,2022-01-29_10h36.57.986,lexical_decision_task_DD_L5,2021.2.3,MacIntel,29.41176471,,,,,,,,,,,0.952,1,,,,,,,,,,,,,,z,1,0.952,,,,,,,,0.43,-0.316666667,0,0,0,,0,20,20,151,1,TINKY,HB,old,z,./images/TINKYHB.png,,,,,,,,,,,,,,,,,,,,,,
,,,,,,,,,,,,,,,,,200218,22,2022-01-29_10h36.57.986,lexical_decision_task_DD_L5,2021.2.3,MacIntel,29.41176471,,,,,,,,,,,1.23,1,,,,,,,,,,,,,,m,1,1.23,,,,,,,,0.43,-0.316666667,0,0,0,,0,21,21,81,1,DRILL,HB,old,m,./images/DRILLHB.png,,,,,,,,,,,,,,,,,,,,,,
,,,,,,,,,,,,,,,,,200218,22,2022-01-29_10h36.57.986,lexical_decision_task_DD_L5,2021.2.3,MacIntel,29.41176471,,,,,,,,,,,0.948,1,,,,,,,,,,,,,,m,1,0.948,,,,,,,,0.43,-0.316666667,0,0,0,,0,22,22,21,1,DANCER,HB,old,m,./images/DANCERHB.png,,,,,,,,,,,,,,,,,,,,,,
,,,,,,,,,,,,,,,,,200218,22,2022-01-29_10h36.57.986,lexical_decision_task_DD_L5,2021.2.3,MacIntel,29.41176471,,,,,,,,,,,0.549,1,,,,,,,,,,,,,,m,1,0.549,,,,,,,,0.43,-0.316666667,0,0,0,,0,23,23,28,1,CASINO,LB,old,m,./images/CASINOLB.png,,,,,,,,,,,,,,,,,,,,,,
,,,,,,,,,,,,,,,,,200218,22,2022-01-29_10h36.57.986,lexical_decision_task_DD_L5,2021.2.3,MacIntel,29.41176471,,,,,,,,,,,0.559,1,,,,,,,,,,,,,,m,1,0.559,,,,,,,,0.43,-0.316666667,0,0,0,,0,24,24,10,1,GARDEN,LB,old,m,./images/GARDENLB.png,,,,,,,,,,,,,,,,,,,,,,
,,,,,,,,,,,,,,,,,200218,22,2022-01-29_10h36.57.986,lexical_decision_task_DD_L5,2021.2.3,MacIntel,29.41176471,,,,,,,,,,,0.532,1,,,,,,,,,,,,,,z,1,0.532,,,,,,,,0.43,-0.316666667,0,0,0,,0,25,25,147,1,ZOLES,C,old,z,./images/ZOLES.png,,,,,,,,,,,,,,,,,,,,,,
,,,,,,,,,,,,,,,,,200218,22,2022-01-29_10h36.57.986,lexical_decision_task_DD_L5,2021.2.3,MacIntel,29.41176471,,,,,,,,,,,0.595,1,,,,,,,,,,,,,,m,1,0.595,,,,,,,,0.43,-0.316666667,0,0,0,,0,26,26,13,1,BUNNY,LB,old,m,./images/BUNNYLB.png,,,,,,,,,,,,,,,,,,,,,,
,,,,,,,,,,,,,,,,,200218,22,2022-01-29_10h36.57.986,lexical_decision_task_DD_L5,2021.2.3,MacIntel,29.41176471,,,,,,,,,,,0.651,1,,,,,,,,,,,,,,m,1,0.651,,,,,,,,0.43,-0.316666667,0,0,0,,0,27,27,69,1,ARROW,HB,old,m,./images/ARROWHB.png,,,,,,,,,,,,,,,,,,,,,,
,,,,,,,,,,,,,,,,,200218,22,2022-01-29_10h36.57.986,lexical_decision_task_DD_L5,2021.2.3,MacIntel,29.41176471,,,,,,,,,,,0.924,1,,,,,,,,,,,,,,z,1,0.924,,,,,,,,0.43,-0.316666667,0,0,0,,0,28,28,149,1,VEASE,LB,old,z,./images/VEASELB.png,,,,,,,,,,,,,,,,,,,,,,
,,,,,,,,,,,,,,,,,200218,22,2022-01-29_10h36.57.986,lexical_decision_task_DD_L5,2021.2.3,MacIntel,29.41176471,,,,,,,,,,,1.476,1,,,,,,,,,,,,,,z,1,1.476,,,,,,,,0.43,-0.316666667,0,0,0,,0,29,29,107,1,FASKS,LB,old,z,./images/FASKSLB.png,,,,,,,,,,,,,,,,,,,,,,
,,,,,,,,,,,,,,,,,200218,22,2022-01-29_10h36.57.986,lexical_decision_task_DD_L5,2021.2.3,MacIntel,29.41176471,,,,,,,,,,,0.543,1,,,,,,,,,,,,,,m,1,0.543,,,,,,,,0.43,-0.316666667,0,0,0,,0,30,30,40,1,SNAKE,LB,old,m,./images/SNAKELB.png,,,,,,,,,,,,,,,,,,,,,,
,,,,,,,,,,,,,,,,,200218,22,2022-01-29_10h36.57.986,lexical_decision_task_DD_L5,2021.2.3,MacIntel,29.41176471,,,,,,,,,,,0.947,1,,,,,,,,,,,,,,m,1,0.947,,,,,,,,0.43,-0.316666667,0,0,0,,0,31,31,55,1,ALLEY,LB,old,m,./images/ALLEYLB.png,,,,,,,,,,,,,,,,,,,,,,
,,,,,,,,,,,,,,,,,200218,22,2022-01-29_10h36.57.986,lexical_decision_task_DD_L5,2021.2.3,MacIntel,29.41176471,,,,,,,,,,,0.782,1,,,,,,,,,,,,,,z,1,0.782,,,,,,,,0.43,-0.316666667,0,0,0,,0,32,32,120,1,RINED,C,old,z,./images/RINED.png,,,,,,,,,,,,,,,,,,,,,,
,,,,,,,,,,,,,,,,,200218,22,2022-01-29_10h36.57.986,lexical_decision_task_DD_L5,2021.2.3,MacIntel,29.41176471,,,,,,,,,,,0.946,1,,,,,,,,,,,,,,z,1,0.946,,,,,,,,0.43,-0.316666667,0,0,0,,0,33,33,88,1,GLUSH,HB,old,z,./images/GLUSHHB.png,,,,,,,,,,,,,,,,,,,,,,
,,,,,,,,,,,,,,,,,200218,22,2022-01-29_10h36.57.986,lexical_decision_task_DD_L5,2021.2.3,MacIntel,29.41176471,,,,,,,,,,,1.297,1,,,,,,,,,,,,,,m,1,1.297,,,,,,,,0.43,-0.316666667,0,0,0,,0,34,34,30,1,SLOPE,HB,old,m,./images/SLOPEHB.png,,,,,,,,,,,,,,,,,,,,,,
,,,,,,,,,,,,,,,,,200218,22,2022-01-29_10h36.57.986,lexical_decision_task_DD_L5,2021.2.3,MacIntel,29.41176471,,,,,,,,,,,1.091,1,,,,,,,,,,,,,,m,1,1.091,,,,,,,,0.43,-0.316666667,0,0,0,,0,35,35,57,1,FERRY,HB,old,m,./images/FERRYHB.png,,,,,,,,,,,,,,,,,,,,,,
,,,,,,,,,,,,,,,,,200218,22,2022-01-29_10h36.57.986,lexical_decision_task_DD_L5,2021.2.3,MacIntel,29.41176471,,,,,,,,,,,0.701,1,,,,,,,,,,,,,,m,1,0.701,,,,,,,,0.43,-0.316666667,0,0,0,,0,36,36,60,1,CURRY,HB,old,m,./images/CURRYHB.png,,,,,,,,,,,,,,,,,,,,,,
,,,,,,,,,,,,,,,,,200218,22,2022-01-29_10h36.57.986,lexical_decision_task_DD_L5,2021.2.3,MacIntel,29.41176471,,,,,,,,,,,0.613,1,,,,,,,,,,,,,,m,1,0.613,,,,,,,,0.43,-0.316666667,0,0,0,,0,37,37,2,1,STOVE,C,old,m,./images/STOVE.png,,,,,,,,,,,,,,,,,,,,,,
,,,,,,,,,,,,,,,,,200218,22,2022-01-29_10h36.57.986,lexical_decision_task_DD_L5,2021.2.3,MacIntel,29.41176471,,,,,,,,,,,1.12,1,,,,,,,,,,,,,,m,1,1.12,,,,,,,,0.43,-0.316666667,0,0,0,,0,38,38,3,1,CRATER,HB,old,m,./images/CRATERHB.png,,,,,,,,,,,,,,,,,,,,,,
,,,,,,,,,,,,,,,,,200218,22,2022-01-29_10h36.57.986,lexical_decision_task_DD_L5,2021.2.3,MacIntel,29.41176471,,,,,,,,,,,0.664,1,,,,,,,,,,,,,,m,1,0.664,,,,,,,,0.43,-0.316666667,0,0,0,,0,39,39,47,1,LAGOON,C,old,m,./images/LAGOON.png,,,,,,,,,,,,,,,,,,,,,,
,,,,,,,,,,,,,,,,,200218,22,2022-01-29_10h36.57.986,lexical_decision_task_DD_L5,2021.2.3,MacIntel,29.41176471,,,,,,,,,,,0.529,1,,,,,,,,,,,,,,m,1,0.529,,,,,,,,0.43,-0.316666667,0,0,0,,0,40,40,70,1,BANANA,LB,old,m,./images/BANANALB.png,,,,,,,,,,,,,,,,,,,,,,
,,,,,,,,,,,,,,,,,200218,22,2022-01-29_10h36.57.986,lexical_decision_task_DD_L5,2021.2.3,MacIntel,29.41176471,,,,,,,,,,,1.149,1,,,,,,,,,,,,,,z,1,1.149,,,,,,,,0.43,-0.316666667,0,0,0,space,0,41,41,112,1,MYING,HB,old,z,./images/MYINGHB.png,4.557,,,,,,,,,,,,,,,,,,,,,
,,,,,,,,,,,,,,,,,200218,22,2022-01-29_10h36.57.986,lexical_decision_task_DD_L5,2021.2.3,MacIntel,29.41176471,,,,,,,,,,,0.811,1,,,,,,,,,,,,,,z,1,0.811,,,,,,,,0.43,-0.316666667,0,0,0,,0,42,42,125,1,MOOKY,LB,old,z,./images/MOOKYLB.png,,,,,,,,,,,,,,,,,,,,,,
,,,,,,,,,,,,,,,,,200218,22,2022-01-29_10h36.57.986,lexical_decision_task_DD_L5,2021.2.3,MacIntel,29.41176471,,,,,,,,,,,1.195,1,,,,,,,,,,,,,,z,1,1.195,,,,,,,,0.43,-0.316666667,0,0,0,,0,43,43,167,1,ZONET,LB,old,z,./images/ZONETLB.png,,,,,,,,,,,,,,,,,,,,,,
,,,,,,,,,,,,,,,,,200218,22,2022-01-29_10h36.57.986,lexical_decision_task_DD_L5,2021.2.3,MacIntel,29.41176471,,,,,,,,,,,1.444,1,,,,,,,,,,,,,,z,1,1.444,,,,,,,,0.43,-0.316666667,0,0,0,,0,44,44,131,1,NACES,LB,old,z,./images/NACESLB.png,,,,,,,,,,,,,,,,,,,,,,
,,,,,,,,,,,,,,,,,200218,22,2022-01-29_10h36.57.986,lexical_decision_task_DD_L5,2021.2.3,MacIntel,29.41176471,,,,,,,,,,,1.102,1,,,,,,,,,,,,,,z,1,1.102,,,,,,,,0.43,-0.316666667,0,0,0,,0,45,45,133,1,POWDY,HB,old,z,./images/POWDYHB.png,,,,,,,,,,,,,,,,,,,,,,
,,,,,,,,,,,,,,,,,200218,22,2022-01-29_10h36.57.986,lexical_decision_task_DD_L5,2021.2.3,MacIntel,29.41176471,,,,,,,,,,,0.579,1,,,,,,,,,,,,,,m,1,0.579,,,,,,,,0.43,-0.316666667,0,0,0,,0,46,46,19,1,DONKEY,LB,old,m,./images/DONKEYLB.png,,,,,,,,,,,,,,,,,,,,,,
,,,,,,,,,,,,,,,,,200218,22,2022-01-29_10h36.57.986,lexical_decision_task_DD_L5,2021.2.3,MacIntel,29.41176471,,,,,,,,,,,1.163,1,,,,,,,,,,,,,,z,1,1.163,,,,,,,,0.43,-0.316666667,0,0,0,,0,47,47,116,1,BALGY,LB,old,z,./images/BALGYLB.png,,,,,,,,,,,,,,,,,,,,,,
,,,,,,,,,,,,,,,,,200218,22,2022-01-29_10h36.57.986,lexical_decision_task_DD_L5,2021.2.3,MacIntel,29.41176471,,,,,,,,,,,1.421,0,,,,,,,,,,,,,,m,0,1.421,,,,,,,,0.43,-0.316666667,0,0,0,,0,48,48,128,1,GRIFT,LB,old,z,./images/GRIFTLB.png,,,,,,,,,,,,,,,,,,,,,,
,,,,,,,,,,,,,,,,,200218,22,2022-01-29_10h36.57.986,lexical_decision_task_DD_L5,2021.2.3,MacIntel,29.41176471,,,,,,,,,,,0.877,1,,,,,,,,,,,,,,z,1,0.877,,,,,,,,0.43,-0.316666667,0,0,0,,0,49,49,119,1,PAFER,LB,old,z,./images/PAFERLB.png,,,,,,,,,,,,,,,,,,,,,,
,,,,,,,,,,,,,,,,,200218,22,2022-01-29_10h36.57.986,lexical_decision_task_DD_L5,2021.2.3,MacIntel,29.41176471,,,,,,,,,,,0.81,1,,,,,,,,,,,,,,m,1,0.81,,,,,,,,0.43,-0.316666667,0,0,0,,0,50,50,72,1,FLASK,HB,old,m,./images/FLASKHB.png,,,,,,,,,,,,,,,,,,,,,,
,,,,,,,,,,,,,,,,,200218,22,2022-01-29_10h36.57.986,lexical_decision_task_DD_L5,2021.2.3,MacIntel,29.41176471,,,,,,,,,,,0.613,1,,,,,,,,,,,,,,m,1,0.613,,,,,,,,0.43,-0.316666667,0,0,0,,0,51,51,58,1,CANOE,LB,old,m,./images/CANOELB.png,,,,,,,,,,,,,,,,,,,,,,
,,,,,,,,,,,,,,,,,200218,22,2022-01-29_10h36.57.986,lexical_decision_task_DD_L5,2021.2.3,MacIntel,29.41176471,,,,,,,,,,,0.62,1,,,,,,,,,,,,,,m,1,0.62,,,,,,,,0.43,-0.316666667,0,0,0,,0,52,52,42,1,CHAIN,HB,old,m,./images/CHAINHB.png,,,,,,,,,,,,,,,,,,,,,,
,,,,,,,,,,,,,,,,,200218,22,2022-01-29_10h36.57.986,lexical_decision_task_DD_L5,2021.2.3,MacIntel,29.41176471,,,,,,,,,,,1.054,1,,,,,,,,,,,,,,z,1,1.054,,,,,,,,0.43,-0.316666667,0,0,0,,0,53,53,139,1,BLEAR,HB,old,z,./images/BLEARHB.png,,,,,,,,,,,,,,,,,,,,,,
,,,,,,,,,,,,,,,,,200218,22,2022-01-29_10h36.57.986,lexical_decision_task_DD_L5,2021.2.3,MacIntel,29.41176471,,,,,,,,,,,0.547,1,,,,,,,,,,,,,,m,1,0.547,,,,,,,,0.43,-0.316666667,0,0,0,,0,54,54,61,1,ARTIST,LB,old,m,./images/ARTISTLB.png,,,,,,,,,,,,,,,,,,,,,,
,,,,,,,,,,,,,,,,,200218,22,2022-01-29_10h36.57.986,lexical_decision_task_DD_L5,2021.2.3,MacIntel,29.41176471,,,,,,,,,,,0.713,1,,,,,,,,,,,,,,m,1,0.713,,,,,,,,0.43,-0.316666667,0,0,0,,0,55,55,76,1,MIDGET,LB,old,m,./images/MIDGETLB.png,,,,,,,,,,,,,,,,,,,,,,
,,,,,,,,,,,,,,,,,200218,22,2022-01-29_10h36.57.986,lexical_decision_task_DD_L5,2021.2.3,MacIntel,29.41176471,,,,,,,,,,,0.936,1,,,,,,,,,,,,,,z,1,0.936,,,,,,,,0.43,-0.316666667,0,0,0,,0,56,56,94,1,BLANS,HB,old,z,./images/BLANSHB.png,,,,,,,,,,,,,,,,,,,,,,
,,,,,,,,,,,,,,,,,200218,22,2022-01-29_10h36.57.986,lexical_decision_task_DD_L5,2021.2.3,MacIntel,29.41176471,,,,,,,,,,,0.581,1,,,,,,,,,,,,,,m,1,0.581,,,,,,,,0.43,-0.316666667,0,0,0,,0,57,57,64,1,BRIDE,LB,old,m,./images/BRIDELB.png,,,,,,,,,,,,,,,,,,,,,,
,,,,,,,,,,,,,,,,,200218,22,2022-01-29_10h36.57.986,lexical_decision_task_DD_L5,2021.2.3,MacIntel,29.41176471,,,,,,,,,,,0.557,1,,,,,,,,,,,,,,m,1,0.557,,,,,,,,0.43,-0.316666667,0,0,0,,0,58,58,31,1,STEAK,LB,old,m,./images/STEAKLB.png,,,,,,,,,,,,,,,,,,,,,,
,,,,,,,,,,,,,,,,,200218,22,2022-01-29_10h36.57.986,lexical_decision_task_DD_L5,2021.2.3,MacIntel,29.41176471,,,,,,,,,,,0.718,1,,,,,,,,,,,,,,z,1,0.718,,,,,,,,0.43,-0.316666667,0,0,0,,0,59,59,84,1,HAXES,C,old,z,./images/HAXES.png,,,,,,,,,,,,,,,,,,,,,,
,,,,,,,,,,,,,,,,,200218,22,2022-01-29_10h36.57.986,lexical_decision_task_DD_L5,2021.2.3,MacIntel,29.41176471,,,,,,,,,,,1.269,0,,,,,,,,,,,,,,m,0,1.269,,,,,,,,0.43,-0.316666667,0,0,0,,0,60,60,104,1,GITTY,LB,old,z,./images/GITTYLB.png,,,,,,,,,,,,,,,,,,,,,,
,,,,,,,,,,,,,,,,,200218,22,2022-01-29_10h36.57.986,lexical_decision_task_DD_L5,2021.2.3,MacIntel,29.41176471,,,,,,,,,,,1.232,1,,,,,,,,,,,,,,z,1,1.232,,,,,,,,0.43,-0.316666667,0,0,0,,0,61,61,165,1,TROWN,C,old,z,./images/TROWN.png,,,,,,,,,,,,,,,,,,,,,,
,,,,,,,,,,,,,,,,,200218,22,2022-01-29_10h36.57.986,lexical_decision_task_DD_L5,2021.2.3,MacIntel,29.41176471,,,,,,,,,,,1.788,1,,,,,,,,,,,,,,z,1,1.788,,,,,,,,0.43,-0.316666667,0,0,0,,0,62,62,115,1,MAWNS,HB,old,z,./images/MAWNSHB.png,,,,,,,,,,,,,,,,,,,,,,
,,,,,,,,,,,,,,,,,200218,22,2022-01-29_10h36.57.986,lexical_decision_task_DD_L5,2021.2.3,MacIntel,29.41176471,,,,,,,,,,,1.926,1,,,,,,,,,,,,,,z,1,1.926,,,,,,,,0.43,-0.316666667,0,0,0,,0,63,63,103,1,FLORT,HB,old,z,./images/FLORTHB.png,,,,,,,,,,,,,,,,,,,,,,
,,,,,,,,,,,,,,,,,200218,22,2022-01-29_10h36.57.986,lexical_decision_task_DD_L5,2021.2.3,MacIntel,29.41176471,,,,,,,,,,,1.043,1,,,,,,,,,,,,,,z,1,1.043,,,,,,,,0.43,-0.316666667,0,0,0,,0,64,64,126,1,GUELS,C,old,z,./images/GUELS.png,,,,,,,,,,,,,,,,,,,,,,
,,,,,,,,,,,,,,,,,200218,22,2022-01-29_10h36.57.986,lexical_decision_task_DD_L5,2021.2.3,MacIntel,29.41176471,,,,,,,,,,,0.626,1,,,,,,,,,,,,,,m,1,0.626,,,,,,,,0.43,-0.316666667,0,0,0,,0,65,65,52,1,DESERT,LB,old,m,./images/DESERTLB.png,,,,,,,,,,,,,,,,,,,,,,
,,,,,,,,,,,,,,,,,200218,22,2022-01-29_10h36.57.986,lexical_decision_task_DD_L5,2021.2.3,MacIntel,29.41176471,,,,,,,,,,,0.69,1,,,,,,,,,,,,,,m,1,0.69,,,,,,,,0.43,-0.316666667,0,0,0,,0,66,66,27,1,BUTTER,HB,old,m,./images/BUTTERHB.png,,,,,,,,,,,,,,,,,,,,,,
,,,,,,,,,,,,,,,,,200218,22,2022-01-29_10h36.57.986,lexical_decision_task_DD_L5,2021.2.3,MacIntel,29.41176471,,,,,,,,,,,0.832,1,,,,,,,,,,,,,,z,1,0.832,,,,,,,,0.43,-0.316666667,0,0,0,,0,67,67,99,1,BACKY,C,old,z,./images/BACKY.png,,,,,,,,,,,,,,,,,,,,,,
,,,,,,,,,,,,,,,,,200218,22,2022-01-29_10h36.57.986,lexical_decision_task_DD_L5,2021.2.3,MacIntel,29.41176471,,,,,,,,,,,1.535,1,,,,,,,,,,,,,,z,1,1.535,,,,,,,,0.43,-0.316666667,0,0,0,,0,68,68,145,1,LAMEL,HB,old,z,./images/LAMELHB.png,,,,,,,,,,,,,,,,,,,,,,
,,,,,,,,,,,,,,,,,200218,22,2022-01-29_10h36.57.986,lexical_decision_task_DD_L5,2021.2.3,MacIntel,29.41176471,,,,,,,,,,,0.674,1,,,,,,,,,,,,,,m,1,0.674,,,,,,,,0.43,-0.316666667,0,0,0,,0,69,69,39,1,CANDY,HB,old,m,./images/CANDYHB.png,,,,,,,,,,,,,,,,,,,,,,
,,,,,,,,,,,,,,,,,200218,22,2022-01-29_10h36.57.986,lexical_decision_task_DD_L5,2021.2.3,MacIntel,29.41176471,,,,,,,,,,,1.133,0,,,,,,,,,,,,,,m,0,1.133,,,,,,,,0.43,-0.316666667,0,0,0,,0,70,70,113,1,LINEW,LB,old,z,./images/LINEWLB.png,,,,,,,,,,,,,,,,,,,,,,
,,,,,,,,,,,,,,,,,200218,22,2022-01-29_10h36.57.986,lexical_decision_task_DD_L5,2021.2.3,MacIntel,29.41176471,,,,,,,,,,,1.488,1,,,,,,,,,,,,,,z,1,1.488,,,,,,,,0.43,-0.316666667,0,0,0,,0,71,71,123,1,SEDGE,C,old,z,./images/SEDGE.png,,,,,,,,,,,,,,,,,,,,,,
,,,,,,,,,,,,,,,,,200218,22,2022-01-29_10h36.57.986,lexical_decision_task_DD_L5,2021.2.3,MacIntel,29.41176471,,,,,,,,,,,1.636,0,,,,,,,,,,,,,,m,0,1.636,,,,,,,,0.43,-0.316666667,0,0,0,,0,72,72,132,1,SCIFF,C,old,z,./images/SCIFF.png,,,,,,,,,,,,,,,,,,,,,,
,,,,,,,,,,,,,,,,,200218,22,2022-01-29_10h36.57.986,lexical_decision_task_DD_L5,2021.2.3,MacIntel,29.41176471,,,,,,,,,,,2.141,1,,,,,,,,,,,,,,z,1,2.141,,,,,,,,0.43,-0.316666667,0,0,0,,0,73,73,91,1,SHENS,HB,old,z,./images/SHENSHB.png,,,,,,,,,,,,,,,,,,,,,,
,,,,,,,,,,,,,,,,,200218,22,2022-01-29_10h36.57.986,lexical_decision_task_DD_L5,2021.2.3,MacIntel,29.41176471,,,,,,,,,,,0.636,1,,,,,,,,,,,,,,m,1,0.636,,,,,,,,0.43,-0.316666667,0,0,0,,0,74,74,50,1,PILOT,C,old,m,./images/PILOT.png,,,,,,,,,,,,,,,,,,,,,,
,,,,,,,,,,,,,,,,,200218,22,2022-01-29_10h36.57.986,lexical_decision_task_DD_L5,2021.2.3,MacIntel,29.41176471,,,,,,,,,,,1.253,1,,,,,,,,,,,,,,z,1,1.253,,,,,,,,0.43,-0.316666667,0,0,0,,0,75,75,146,1,MOOST,LB,old,z,./images/MOOSTLB.png,,,,,,,,,,,,,,,,,,,,,,
,,,,,,,,,,,,,,,,,200218,22,2022-01-29_10h36.57.986,lexical_decision_task_DD_L5,2021.2.3,MacIntel,29.41176471,,,,,,,,,,,0.859,1,,,,,,,,,,,,,,m,1,0.859,,,,,,,,0.43,-0.316666667,0,0,0,,0,76,76,78,1,BROOM,HB,old,m,./images/BROOMHB.png,,,,,,,,,,,,,,,,,,,,,,
,,,,,,,,,,,,,,,,,200218,22,2022-01-29_10h36.57.986,lexical_decision_task_DD_L5,2021.2.3,MacIntel,29.41176471,,,,,,,,,,,1.819,1,,,,,,,,,,,,,,z,1,1.819,,,,,,,,0.43,-0.316666667,0,0,0,,0,77,77,85,1,CHULK,HB,old,z,./images/CHULKHB.png,,,,,,,,,,,,,,,,,,,,,,
,,,,,,,,,,,,,,,,,200218,22,2022-01-29_10h36.57.986,lexical_decision_task_DD_L5,2021.2.3,MacIntel,29.41176471,,,,,,,,,,,1.609,1,,,,,,,,,,,,,,m,1,1.609,,,,,,,,0.43,-0.316666667,0,0,0,,0,78,78,48,1,SHIELD,HB,old,m,./images/SHIELDHB.png,,,,,,,,,,,,,,,,,,,,,,
,,,,,,,,,,,,,,,,,200218,22,2022-01-29_10h36.57.986,lexical_decision_task_DD_L5,2021.2.3,MacIntel,29.41176471,,,,,,,,,,,0.776,1,,,,,,,,,,,,,,z,1,0.776,,,,,,,,0.43,-0.316666667,0,0,0,,0,79,79,117,1,STEEG,C,old,z,./images/STEEG.png,,,,,,,,,,,,,,,,,,,,,,
,,,,,,,,,,,,,,,,,200218,22,2022-01-29_10h36.57.986,lexical_decision_task_DD_L5,2021.2.3,MacIntel,29.41176471,,,,,,,,,,,1.08,1,,,,,,,,,,,,,,z,1,1.08,,,,,,,,0.43,-0.316666667,0,0,0,,0,80,80,154,1,THINT,HB,old,z,./images/THINTHB.png,,,,,,,,,,,,,,,,,,,,,,
,,,,,,,,,,,,,,,,,200218,22,2022-01-29_10h36.57.986,lexical_decision_task_DD_L5,2021.2.3,MacIntel,29.41176471,,,,,,,,,,,1.188,1,,,,,,,,,,,,,,z,1,1.188,,,,,,,,0.43,-0.316666667,0,0,0,,0,81,81,110,1,CRUNK,LB,old,z,./images/CRUNKLB.png,,,,,,,,,,,,,,,,,,,,,,
,,,,,,,,,,,,,,,,,200218,22,2022-01-29_10h36.57.986,lexical_decision_task_DD_L5,2021.2.3,MacIntel,29.41176471,,,,,,,,,,,0.813,1,,,,,,,,,,,,,,z,1,0.813,,,,,,,,0.43,-0.316666667,0,0,0,,0,82,82,95,1,HANTY,LB,old,z,./images/HANTYLB.png,,,,,,,,,,,,,,,,,,,,,,
,,,,,,,,,,,,,,,,,200218,22,2022-01-29_10h36.57.986,lexical_decision_task_DD_L5,2021.2.3,MacIntel,29.41176471,,,,,,,,,,,1.018,1,,,,,,,,,,,,,,m,1,1.018,,,,,,,,0.43,-0.316666667,0,0,0,space,0,83,83,37,1,TIGER,LB,old,m,./images/TIGERLB.png,72.955,,,,,,,,,,,,,,,,,,,,,
,,,,,,,,,,,,,,,,,200218,22,2022-01-29_10h36.57.986,lexical_decision_task_DD_L5,2021.2.3,MacIntel,29.41176471,,,,,,,,,,,0.858,0,,,,,,,,,,,,,,m,0,0.858,,,,,,,,0.43,-0.316666667,0,0,0,,0,84,84,93,1,SMONE,C,old,z,./images/SMONE.png,,,,,,,,,,,,,,,,,,,,,,
,,,,,,,,,,,,,,,,,200218,22,2022-01-29_10h36.57.986,lexical_decision_task_DD_L5,2021.2.3,MacIntel,29.41176471,,,,,,,,,,,0.98,1,,,,,,,,,,,,,,z,1,0.98,,,,,,,,0.43,-0.316666667,0,0,0,,0,85,85,166,1,SHORY,HB,old,z,./images/SHORYHB.png,,,,,,,,,,,,,,,,,,,,,,
,,,,,,,,,,,,,,,,,200218,22,2022-01-29_10h36.57.986,lexical_decision_task_DD_L5,2021.2.3,MacIntel,29.41176471,,,,,,,,,,,0.91,1,,,,,,,,,,,,,,z,1,0.91,,,,,,,,0.43,-0.316666667,0,0,0,,0,86,86,127,1,NINDY,HB,old,z,./images/NINDYHB.png,,,,,,,,,,,,,,,,,,,,,,
,,,,,,,,,,,,,,,,,200218,22,2022-01-29_10h36.57.986,lexical_decision_task_DD_L5,2021.2.3,MacIntel,29.41176471,,,,,,,,,,,2.326,0,,,,,,,,,,,,,,m,0,2.326,,,,,,,,0.43,-0.316666667,0,0,0,,0,87,87,114,1,RIKES,C,old,z,./images/RIKES.png,,,,,,,,,,,,,,,,,,,,,,
,,,,,,,,,,,,,,,,,200218,22,2022-01-29_10h36.57.986,lexical_decision_task_DD_L5,2021.2.3,MacIntel,29.41176471,,,,,,,,,,,0.61,1,,,,,,,,,,,,,,m,1,0.61,,,,,,,,0.43,-0.316666667,0,0,0,,0,88,88,17,1,PARADE,C,old,m,./images/PARADE.png,,,,,,,,,,,,,,,,,,,,,,
,,,,,,,,,,,,,,,,,200218,22,2022-01-29_10h36.57.986,lexical_decision_task_DD_L5,2021.2.3,MacIntel,29.41176471,,,,,,,,,,,0.559,1,,,,,,,,,,,,,,m,1,0.559,,,,,,,,0.43,-0.316666667,0,0,0,,0,89,89,8,1,CLIFF,C,old,m,./images/CLIFF.png,,,,,,,,,,,,,,,,,,,,,,
,,,,,,,,,,,,,,,,,200218,22,2022-01-29_10h36.57.986,lexical_decision_task_DD_L5,2021.2.3,MacIntel,29.41176471,,,,,,,,,,,0.801,1,,,,,,,,,,,,,,z,1,0.801,,,,,,,,0.43,-0.316666667,0,0,0,,0,90,90,136,1,WERVE,HB,old,z,./images/WERVEHB.png,,,,,,,,,,,,,,,,,,,,,,
,,,,,,,,,,,,,,,,,200218,22,2022-01-29_10h36.57.986,lexical_decision_task_DD_L5,2021.2.3,MacIntel,29.41176471,,,,,,,,,,,0.581,1,,,,,,,,,,,,,,m,1,0.581,,,,,,,,0.43,-0.316666667,0,0,0,,0,91,91,14,1,FENCE,C,old,m,./images/FENCE.png,,,,,,,,,,,,,,,,,,,,,,
,,,,,,,,,,,,,,,,,200218,22,2022-01-29_10h36.57.986,lexical_decision_task_DD_L5,2021.2.3,MacIntel,29.41176471,,,,,,,,,,,0.769,1,,,,,,,,,,,,,,z,1,0.769,,,,,,,,0.43,-0.316666667,0,0,0,,0,92,92,108,1,GRUET,C,old,z,./images/GRUET.png,,,,,,,,,,,,,,,,,,,,,,
,,,,,,,,,,,,,,,,,200218,22,2022-01-29_10h36.57.986,lexical_decision_task_DD_L5,2021.2.3,MacIntel,29.41176471,,,,,,,,,,,0.744,1,,,,,,,,,,,,,,z,1,0.744,,,,,,,,0.43,-0.316666667,0,0,0,,0,93,93,111,1,HOSSE,C,old,z,./images/HOSSE.png,,,,,,,,,,,,,,,,,,,,,,
,,,,,,,,,,,,,,,,,200218,22,2022-01-29_10h36.57.986,lexical_decision_task_DD_L5,2021.2.3,MacIntel,29.41176471,,,,,,,,,,,1.769,1,,,,,,,,,,,,,,m,1,1.769,,,,,,,,0.43,-0.316666667,0,0,0,,0,94,94,75,1,HAMMER,HB,old,m,./images/HAMMERHB.png,,,,,,,,,,,,,,,,,,,,,,
,,,,,,,,,,,,,,,,,200218,22,2022-01-29_10h36.57.986,lexical_decision_task_DD_L5,2021.2.3,MacIntel,29.41176471,,,,,,,,,,,1.142,1,,,,,,,,,,,,,,m,1,1.142,,,,,,,,0.43,-0.316666667,0,0,0,,0,95,95,45,1,MONKEY,HB,old,m,./images/MONKEYHB.png,,,,,,,,,,,,,,,,,,,,,,
,,,,,,,,,,,,,,,,,200218,22,2022-01-29_10h36.57.986,lexical_decision_task_DD_L5,2021.2.3,MacIntel,29.41176471,,,,,,,,,,,0.597,1,,,,,,,,,,,,,,m,1,0.597,,,,,,,,0.43,-0.316666667,0,0,0,,0,96,96,7,1,WAGON,LB,old,m,./images/WAGONLB.png,,,,,,,,,,,,,,,,,,,,,,
,,,,,,,,,,,,,,,,,200218,22,2022-01-29_10h36.57.986,lexical_decision_task_DD_L5,2021.2.3,MacIntel,29.41176471,,,,,,,,,,,0.847,1,,,,,,,,,,,,,,m,1,0.847,,,,,,,,0.43,-0.316666667,0,0,0,,0,97,97,38,1,ENGINE,C,old,m,./images/ENGINE.png,,,,,,,,,,,,,,,,,,,,,,
,,,,,,,,,,,,,,,,,200218,22,2022-01-29_10h36.57.986,lexical_decision_task_DD_L5,2021.2.3,MacIntel,29.41176471,,,,,,,,,,,0.662,1,,,,,,,,,,,,,,z,1,0.662,,,,,,,,0.43,-0.316666667,0,0,0,,0,98,98,124,1,TUNCH,HB,old,z,./images/TUNCHHB.png,,,,,,,,,,,,,,,,,,,,,,
,,,,,,,,,,,,,,,,,200218,22,2022-01-29_10h36.57.986,lexical_decision_task_DD_L5,2021.2.3,MacIntel,29.41176471,,,,,,,,,,,0.813,1,,,,,,,,,,,,,,m,1,0.813,,,,,,,,0.43,-0.316666667,0,0,0,,0,99,99,0,1,WALNUT,HB,old,m,./images/WALNUTHB.png,,,,,,,,,,,,,,,,,,,,,,
,,,,,,,,,,,,,,,,,200218,22,2022-01-29_10h36.57.986,lexical_decision_task_DD_L5,2021.2.3,MacIntel,29.41176471,,,,,,,,,,,1.269,1,,,,,,,,,,,,,,z,1,1.269,,,,,,,,0.43,-0.316666667,0,0,0,,0,100,100,157,1,INLER,HB,old,z,./images/INLERHB.png,,,,,,,,,,,,,,,,,,,,,,
,,,,,,,,,,,,,,,,,200218,22,2022-01-29_10h36.57.986,lexical_decision_task_DD_L5,2021.2.3,MacIntel,29.41176471,,,,,,,,,,,1.062,1,,,,,,,,,,,,,,z,1,1.062,,,,,,,,0.43,-0.316666667,0,0,0,,0,101,101,96,1,KEAMS,C,old,z,./images/KEAMS.png,,,,,,,,,,,,,,,,,,,,,,
,,,,,,,,,,,,,,,,,200218,22,2022-01-29_10h36.57.986,lexical_decision_task_DD_L5,2021.2.3,MacIntel,29.41176471,,,,,,,,,,,0.899,1,,,,,,,,,,,,,,m,1,0.899,,,,,,,,0.43,-0.316666667,0,0,0,,0,102,102,9,1,DIVER,HB,old,m,./images/DIVERHB.png,,,,,,,,,,,,,,,,,,,,,,
,,,,,,,,,,,,,,,,,200218,22,2022-01-29_10h36.57.986,lexical_decision_task_DD_L5,2021.2.3,MacIntel,29.41176471,,,,,,,,,,,0.501,1,,,,,,,,,,,,,,m,1,0.501,,,,,,,,0.43,-0.316666667,0,0,0,,0,103,103,79,1,RULER,LB,old,m,./images/RULERLB.png,,,,,,,,,,,,,,,,,,,,,,
,,,,,,,,,,,,,,,,,200218,22,2022-01-29_10h36.57.986,lexical_decision_task_DD_L5,2021.2.3,MacIntel,29.41176471,,,,,,,,,,,0.685,1,,,,,,,,,,,,,,z,1,0.685,,,,,,,,0.43,-0.316666667,0,0,0,,0,104,104,161,1,BLAPS,LB,old,z,./images/BLAPSLB.png,,,,,,,,,,,,,,,,,,,,,,
,,,,,,,,,,,,,,,,,200218,22,2022-01-29_10h36.57.986,lexical_decision_task_DD_L5,2021.2.3,MacIntel,29.41176471,,,,,,,,,,,0.923,1,,,,,,,,,,,,,,z,1,0.923,,,,,,,,0.43,-0.316666667,0,0,0,,0,105,105,122,1,BLOOT,LB,old,z,./images/BLOOTLB.png,,,,,,,,,,,,,,,,,,,,,,
,,,,,,,,,,,,,,,,,200218,22,2022-01-29_10h36.57.986,lexical_decision_task_DD_L5,2021.2.3,MacIntel,29.41176471,,,,,,,,,,,0.813,1,,,,,,,,,,,,,,m,1,0.813,,,,,,,,0.43,-0.316666667,0,0,0,,0,106,106,24,1,FLESH,HB,old,m,./images/FLESHHB.png,,,,,,,,,,,,,,,,,,,,,,
,,,,,,,,,,,,,,,,,200218,22,2022-01-29_10h36.57.986,lexical_decision_task_DD_L5,2021.2.3,MacIntel,29.41176471,,,,,,,,,,,0.561,1,,,,,,,,,,,,,,m,1,0.561,,,,,,,,0.43,-0.316666667,0,0,0,,0,107,107,22,1,CLOWN,LB,old,m,./images/CLOWNLB.png,,,,,,,,,,,,,,,,,,,,,,
,,,,,,,,,,,,,,,,,200218,22,2022-01-29_10h36.57.986,lexical_decision_task_DD_L5,2021.2.3,MacIntel,29.41176471,,,,,,,,,,,1.249,1,,,,,,,,,,,,,,z,1,1.249,,,,,,,,0.43,-0.316666667,0,0,0,,0,108,108,121,1,CEERS,HB,old,z,./images/CEERSHB.png,,,,,,,,,,,,,,,,,,,,,,
,,,,,,,,,,,,,,,,,200218,22,2022-01-29_10h36.57.986,lexical_decision_task_DD_L5,2021.2.3,MacIntel,29.41176471,,,,,,,,,,,0.926,1,,,,,,,,,,,,,,m,1,0.926,,,,,,,,0.43,-0.316666667,0,0,0,,0,109,109,35,1,LLAMA,C,old,m,./images/LLAMA.png,,,,,,,,,,,,,,,,,,,,,,
,,,,,,,,,,,,,,,,,200218,22,2022-01-29_10h36.57.986,lexical_decision_task_DD_L5,2021.2.3,MacIntel,29.41176471,,,,,,,,,,,0.752,1,,,,,,,,,,,,,,z,1,0.752,,,,,,,,0.43,-0.316666667,0,0,0,,0,110,110,144,1,NAIRY,C,old,z,./images/NAIRY.png,,,,,,,,,,,,,,,,,,,,,,
,,,,,,,,,,,,,,,,,200218,22,2022-01-29_10h36.57.986,lexical_decision_task_DD_L5,2021.2.3,MacIntel,29.41176471,,,,,,,,,,,0.663,1,,,,,,,,,,,,,,m,1,0.663,,,,,,,,0.43,-0.316666667,0,0,0,,0,111,111,67,1,POKER,LB,old,m,./images/POKERLB.png,,,,,,,,,,,,,,,,,,,,,,
,,,,,,,,,,,,,,,,,200218,22,2022-01-29_10h36.57.986,lexical_decision_task_DD_L5,2021.2.3,MacIntel,29.41176471,,,,,,,,,,,0.813,1,,,,,,,,,,,,,,m,1,0.813,,,,,,,,0.43,-0.316666667,0,0,0,,0,112,112,51,1,SAUCE,HB,old,m,./images/SAUCEHB.png,,,,,,,,,,,,,,,,,,,,,,
,,,,,,,,,,,,,,,,,200218,22,2022-01-29_10h36.57.986,lexical_decision_task_DD_L5,2021.2.3,MacIntel,29.41176471,,,,,,,,,,,0.466,1,,,,,,,,,,,,,,m,1,0.466,,,,,,,,0.43,-0.316666667,0,0,0,,0,113,113,41,1,STREAM,C,old,m,./images/STREAM.png,,,,,,,,,,,,,,,,,,,,,,
,,,,,,,,,,,,,,,,,200218,22,2022-01-29_10h36.57.986,lexical_decision_task_DD_L5,2021.2.3,MacIntel,29.41176471,,,,,,,,,,,0.924,1,,,,,,,,,,,,,,z,1,0.924,,,,,,,,0.43,-0.316666667,0,0,0,,0,114,114,100,1,DRIBS,HB,old,z,./images/DRIBSHB.png,,,,,,,,,,,,,,,,,,,,,,
,,,,,,,,,,,,,,,,,200218,22,2022-01-29_10h36.57.986,lexical_decision_task_DD_L5,2021.2.3,MacIntel,29.41176471,,,,,,,,,,,0.78,1,,,,,,,,,,,,,,m,1,0.78,,,,,,,,0.43,-0.316666667,0,0,0,,0,115,115,12,1,BLOKE,HB,old,m,./images/BLOKEHB.png,,,,,,,,,,,,,,,,,,,,,,
,,,,,,,,,,,,,,,,,200218,22,2022-01-29_10h36.57.986,lexical_decision_task_DD_L5,2021.2.3,MacIntel,29.41176471,,,,,,,,,,,0.716,1,,,,,,,,,,,,,,m,1,0.716,,,,,,,,0.43,-0.316666667,0,0,0,,0,116,116,15,1,COLLAR,HB,old,m,./images/COLLARHB.png,,,,,,,,,,,,,,,,,,,,,,
,,,,,,,,,,,,,,,,,200218,22,2022-01-29_10h36.57.986,lexical_decision_task_DD_L5,2021.2.3,MacIntel,29.41176471,,,,,,,,,,,0.994,1,,,,,,,,,,,,,,z,1,0.994,,,,,,,,0.43,-0.316666667,0,0,0,,0,117,117,163,1,GAMBA,HB,old,z,./images/GAMBAHB.png,,,,,,,,,,,,,,,,,,,,,,
,,,,,,,,,,,,,,,,,200218,22,2022-01-29_10h36.57.986,lexical_decision_task_DD_L5,2021.2.3,MacIntel,29.41176471,,,,,,,,,,,0.589,1,,,,,,,,,,,,,,m,1,0.589,,,,,,,,0.43,-0.316666667,0,0,0,,0,118,118,62,1,MAMMAL,C,old,m,./images/MAMMAL.png,,,,,,,,,,,,,,,,,,,,,,
,,,,,,,,,,,,,,,,,200218,22,2022-01-29_10h36.57.986,lexical_decision_task_DD_L5,2021.2.3,MacIntel,29.41176471,,,,,,,,,,,0.863,1,,,,,,,,,,,,,,z,1,0.863,,,,,,,,0.43,-0.316666667,0,0,0,,0,119,119,129,1,PRANS,C,old,z,./images/PRANS.png,,,,,,,,,,,,,,,,,,,,,,
,,,,,,,,,,,,,,,,,200218,22,2022-01-29_10h36.57.986,lexical_decision_task_DD_L5,2021.2.3,MacIntel,29.41176471,,,,,,,,,,,1.044,1,,,,,,,,,,,,,,z,1,1.044,,,,,,,,0.43,-0.316666667,0,0,0,,0,120,120,159,1,CUDDY,C,old,z,./images/CUDDY.png,,,,,,,,,,,,,,,,,,,,,,
,,,,,,,,,,,,,,,,,200218,22,2022-01-29_10h36.57.986,lexical_decision_task_DD_L5,2021.2.3,MacIntel,29.41176471,,,,,,,,,,,0.975,1,,,,,,,,,,,,,,m,1,0.975,,,,,,,,0.43,-0.316666667,0,0,0,,0,121,121,18,1,PARCEL,HB,old,m,./images/PARCELHB.png,,,,,,,,,,,,,,,,,,,,,,
,,,,,,,,,,,,,,,,,200218,22,2022-01-29_10h36.57.986,lexical_decision_task_DD_L5,2021.2.3,MacIntel,29.41176471,,,,,,,,,,,0.78,1,,,,,,,,,,,,,,m,1,0.78,,,,,,,,0.43,-0.316666667,0,0,0,,0,122,122,66,1,STATUE,HB,old,m,./images/STATUEHB.png,,,,,,,,,,,,,,,,,,,,,,
,,,,,,,,,,,,,,,,,200218,22,2022-01-29_10h36.57.986,lexical_decision_task_DD_L5,2021.2.3,MacIntel,29.41176471,,,,,,,,,,,1.121,1,,,,,,,,,,,,,,z,1,1.121,,,,,,,,0.43,-0.316666667,0,0,0,,0,123,123,164,1,SGREW,LB,old,z,./images/SGREWLB.png,,,,,,,,,,,,,,,,,,,,,,
,,,,,,,,,,,,,,,,,200218,22,2022-01-29_10h36.57.986,lexical_decision_task_DD_L5,2021.2.3,MacIntel,29.41176471,,,,,,,,,,,0.786,1,,,,,,,,,,,,,,z,1,0.786,,,,,,,,0.43,-0.316666667,0,0,0,,0,124,124,89,1,DRIEK,LB,old,z,./images/DRIEKLB.png,,,,,,,,,,,,,,,,,,,,,,
,,,,,,,,,,,,,,,,,200218,22,2022-01-29_10h36.57.986,lexical_decision_task_DD_L5,2021.2.3,MacIntel,29.41176471,,,,,,,,,,,0.934,1,,,,,,,,,,,,,,z,1,0.934,,,,,,,,0.43,-0.316666667,0,0,0,space,0,125,125,90,1,NEAST,C,old,z,./images/NEAST.png,6.72,,,,,,,,,,,,,,,,,,,,,
,,,,,,,,,,,,,,,,,200218,22,2022-01-29_10h36.57.986,lexical_decision_task_DD_L5,2021.2.3,MacIntel,29.41176471,,,,,,,,,,,0.76,1,,,,,,,,,,,,,,m,1,0.76,,,,,,,,0.43,-0.316666667,0,0,0,,0,126,126,49,1,BISHOP,LB,old,m,./images/BISHOPLB.png,,,,,,,,,,,,,,,,,,,,,,
,,,,,,,,,,,,,,,,,200218,22,2022-01-29_10h36.57.986,lexical_decision_task_DD_L5,2021.2.3,MacIntel,29.41176471,,,,,,,,,,,0.769,1,,,,,,,,,,,,,,z,1,0.769,,,,,,,,0.43,-0.316666667,0,0,0,,0,127,127,152,1,FRAIN,LB,old,z,./images/FRAINLB.png,,,,,,,,,,,,,,,,,,,,,,
,,,,,,,,,,,,,,,,,200218,22,2022-01-29_10h36.57.986,lexical_decision_task_DD_L5,2021.2.3,MacIntel,29.41176471,,,,,,,,,,,0.58,1,,,,,,,,,,,,,,m,1,0.58,,,,,,,,0.43,-0.316666667,0,0,0,,0,128,128,73,1,GLOVE,LB,old,m,./images/GLOVELB.png,,,,,,,,,,,,,,,,,,,,,,
,,,,,,,,,,,,,,,,,200218,22,2022-01-29_10h36.57.986,lexical_decision_task_DD_L5,2021.2.3,MacIntel,29.41176471,,,,,,,,,,,0.635,1,,,,,,,,,,,,,,z,1,0.635,,,,,,,,0.43,-0.316666667,0,0,0,,0,129,129,155,1,CANGY,LB,old,z,./images/CANGYLB.png,,,,,,,,,,,,,,,,,,,,,,
,,,,,,,,,,,,,,,,,200218,22,2022-01-29_10h36.57.986,lexical_decision_task_DD_L5,2021.2.3,MacIntel,29.41176471,,,,,,,,,,,0.596,0,,,,,,,,,,,,,,m,0,0.596,,,,,,,,0.43,-0.316666667,0,0,0,,0,130,130,162,1,LEICH,C,old,z,./images/LEICH.png,,,,,,,,,,,,,,,,,,,,,,
,,,,,,,,,,,,,,,,,200218,22,2022-01-29_10h36.57.986,lexical_decision_task_DD_L5,2021.2.3,MacIntel,29.41176471,,,,,,,,,,,0.919,1,,,,,,,,,,,,,,z,1,0.919,,,,,,,,0.43,-0.316666667,0,0,0,,0,131,131,156,1,HIXES,C,old,z,./images/HIXES.png,,,,,,,,,,,,,,,,,,,,,,
,,,,,,,,,,,,,,,,,200218,22,2022-01-29_10h36.57.986,lexical_decision_task_DD_L5,2021.2.3,MacIntel,29.41176471,,,,,,,,,,,0.914,1,,,,,,,,,,,,,,m,1,0.914,,,,,,,,0.43,-0.316666667,0,0,0,,0,132,132,33,1,SAUNA,HB,old,m,./images/SAUNAHB.png,,,,,,,,,,,,,,,,,,,,,,
,,,,,,,,,,,,,,,,,200218,22,2022-01-29_10h36.57.986,lexical_decision_task_DD_L5,2021.2.3,MacIntel,29.41176471,,,,,,,,,,,0.647,1,,,,,,,,,,,,,,m,1,0.647,,,,,,,,0.43,-0.316666667,0,0,0,,0,133,133,82,1,PEBBLE,LB,old,m,./images/PEBBLELB.png,,,,,,,,,,,,,,,,,,,,,,
,,,,,,,,,,,,,,,,,200218,22,2022-01-29_10h36.57.986,lexical_decision_task_DD_L5,2021.2.3,MacIntel,29.41176471,,,,,,,,,,,0.76,1,,,,,,,,,,,,,,z,1,0.76,,,,,,,,0.43,-0.316666667,0,0,0,,0,134,134,101,1,GLEET,LB,old,z,./images/GLEETLB.png,,,,,,,,,,,,,,,,,,,,,,
,,,,,,,,,,,,,,,,,200218,22,2022-01-29_10h36.57.986,lexical_decision_task_DD_L5,2021.2.3,MacIntel,29.41176471,,,,,,,,,,,0.752,1,,,,,,,,,,,,,,m,1,0.752,,,,,,,,0.43,-0.316666667,0,0,0,,0,135,135,4,1,BOXER,LB,old,m,./images/BOXERLB.png,,,,,,,,,,,,,,,,,,,,,,
,,,,,,,,,,,,,,,,,200218,22,2022-01-29_10h36.57.986,lexical_decision_task_DD_L5,2021.2.3,MacIntel,29.41176471,,,,,,,,,,,0.782,1,,,,,,,,,,,,,,z,1,0.782,,,,,,,,0.43,-0.316666667,0,0,0,,0,136,136,150,1,NOOLS,C,old,z,./images/NOOLS.png,,,,,,,,,,,,,,,,,,,,,,
,,,,,,,,,,,,,,,,,200218,22,2022-01-29_10h36.57.986,lexical_decision_task_DD_L5,2021.2.3,MacIntel,29.41176471,,,,,,,,,,,0.844,1,,,,,,,,,,,,,,m,1,0.844,,,,,,,,0.43,-0.316666667,0,0,0,,0,137,137,11,1,MEDAL,C,old,m,./images/MEDAL.png,,,,,,,,,,,,,,,,,,,,,,
,,,,,,,,,,,,,,,,,200218,22,2022-01-29_10h36.57.986,lexical_decision_task_DD_L5,2021.2.3,MacIntel,29.41176471,,,,,,,,,,,0.659,1,,,,,,,,,,,,,,m,1,0.659,,,,,,,,0.43,-0.316666667,0,0,0,,0,138,138,56,1,HEATER,C,old,m,./images/HEATER.png,,,,,,,,,,,,,,,,,,,,,,
,,,,,,,,,,,,,,,,,200218,22,2022-01-29_10h36.57.986,lexical_decision_task_DD_L5,2021.2.3,MacIntel,29.41176471,,,,,,,,,,,0.88,0,,,,,,,,,,,,,,z,0,0.88,,,,,,,,0.43,-0.316666667,0,0,0,,0,139,139,63,1,BAKER,HB,old,m,./images/BAKERHB.png,,,,,,,,,,,,,,,,,,,,,,
,,,,,,,,,,,,,,,,,200218,22,2022-01-29_10h36.57.986,lexical_decision_task_DD_L5,2021.2.3,MacIntel,29.41176471,,,,,,,,,,,1.092,1,,,,,,,,,,,,,,z,1,1.092,,,,,,,,0.43,-0.316666667,0,0,0,,0,140,140,158,1,EGECT,LB,old,z,./images/EGECTLB.png,,,,,,,,,,,,,,,,,,,,,,
,,,,,,,,,,,,,,,,,200218,22,2022-01-29_10h36.57.986,lexical_decision_task_DD_L5,2021.2.3,MacIntel,29.41176471,,,,,,,,,,,0.692,1,,,,,,,,,,,,,,m,1,0.692,,,,,,,,0.43,-0.316666667,0,0,0,,0,141,141,46,1,MUMMY,LB,old,m,./images/MUMMYLB.png,,,,,,,,,,,,,,,,,,,,,,
,,,,,,,,,,,,,,,,,200218,22,2022-01-29_10h36.57.986,lexical_decision_task_DD_L5,2021.2.3,MacIntel,29.41176471,,,,,,,,,,,0.926,1,,,,,,,,,,,,,,z,1,0.926,,,,,,,,0.43,-0.316666667,0,0,0,,0,142,142,143,1,MONGS,LB,old,z,./images/MONGSLB.png,,,,,,,,,,,,,,,,,,,,,,
,,,,,,,,,,,,,,,,,200218,22,2022-01-29_10h36.57.986,lexical_decision_task_DD_L5,2021.2.3,MacIntel,29.41176471,,,,,,,,,,,0.599,1,,,,,,,,,,,,,,m,1,0.599,,,,,,,,0.43,-0.316666667,0,0,0,,0,143,143,16,1,GRAPE,LB,old,m,./images/GRAPELB.png,,,,,,,,,,,,,,,,,,,,,,
,,,,,,,,,,,,,,,,,200218,22,2022-01-29_10h36.57.986,lexical_decision_task_DD_L5,2021.2.3,MacIntel,29.41176471,,,,,,,,,,,1.502,1,,,,,,,,,,,,,,z,1,1.502,,,,,,,,0.43,-0.316666667,0,0,0,,0,144,144,138,1,PLICE,C,old,z,./images/PLICE.png,,,,,,,,,,,,,,,,,,,,,,
,,,,,,,,,,,,,,,,,200218,22,2022-01-29_10h36.57.986,lexical_decision_task_DD_L5,2021.2.3,MacIntel,29.41176471,,,,,,,,,,,0.961,1,,,,,,,,,,,,,,z,1,0.961,,,,,,,,0.43,-0.316666667,0,0,0,,0,145,145,160,1,VEETS,HB,old,z,./images/VEETSHB.png,,,,,,,,,,,,,,,,,,,,,,
,,,,,,,,,,,,,,,,,200218,22,2022-01-29_10h36.57.986,lexical_decision_task_DD_L5,2021.2.3,MacIntel,29.41176471,,,,,,,,,,,0.855,1,,,,,,,,,,,,,,m,1,0.855,,,,,,,,0.43,-0.316666667,0,0,0,,0,146,146,6,1,STAIN,HB,old,m,./images/STAINHB.png,,,,,,,,,,,,,,,,,,,,,,
,,,,,,,,,,,,,,,,,200218,22,2022-01-29_10h36.57.986,lexical_decision_task_DD_L5,2021.2.3,MacIntel,29.41176471,,,,,,,,,,,1.715,1,,,,,,,,,,,,,,z,1,1.715,,,,,,,,0.43,-0.316666667,0,0,0,,0,147,147,130,1,CRILL,HB,old,z,./images/CRILLHB.png,,,,,,,,,,,,,,,,,,,,,,
,,,,,,,,,,,,,,,,,200218,22,2022-01-29_10h36.57.986,lexical_decision_task_DD_L5,2021.2.3,MacIntel,29.41176471,,,,,,,,,,,0.635,1,,,,,,,,,,,,,,m,1,0.635,,,,,,,,0.43,-0.316666667,0,0,0,,0,148,148,54,1,CHERRY,HB,old,m,./images/CHERRYHB.png,,,,,,,,,,,,,,,,,,,,,,
,,,,,,,,,,,,,,,,,200218,22,2022-01-29_10h36.57.986,lexical_decision_task_DD_L5,2021.2.3,MacIntel,29.41176471,,,,,,,,,,,0.744,1,,,,,,,,,,,,,,m,1,0.744,,,,,,,,0.43,-0.316666667,0,0,0,,0,149,149,59,1,BRUSH,C,old,m,./images/BRUSH.png,,,,,,,,,,,,,,,,,,,,,,
,,,,,,,,,,,,,,,,,200218,22,2022-01-29_10h36.57.986,lexical_decision_task_DD_L5,2021.2.3,MacIntel,29.41176471,,,,,,,,,,,1.586,1,,,,,,,,,,,,,,m,1,1.586,,,,,,,,0.43,-0.316666667,0,0,0,,0,150,150,29,1,PISTOL,C,old,m,./images/PISTOL.png,,,,,,,,,,,,,,,,,,,,,,
,,,,,,,,,,,,,,,,,200218,22,2022-01-29_10h36.57.986,lexical_decision_task_DD_L5,2021.2.3,MacIntel,29.41176471,,,,,,,,,,,0.834,1,,,,,,,,,,,,,,m,1,0.834,,,,,,,,0.43,-0.316666667,0,0,0,,0,151,151,20,1,GRANNY,C,old,m,./images/GRANNY.png,,,,,,,,,,,,,,,,,,,,,,
,,,,,,,,,,,,,,,,,200218,22,2022-01-29_10h36.57.986,lexical_decision_task_DD_L5,2021.2.3,MacIntel,29.41176471,,,,,,,,,,,0.585,1,,,,,,,,,,,,,,m,1,0.585,,,,,,,,0.43,-0.316666667,0,0,0,,0,152,152,68,1,VALLEY,C,old,m,./images/VALLEY.png,,,,,,,,,,,,,,,,,,,,,,
,,,,,,,,,,,,,,,,,200218,22,2022-01-29_10h36.57.986,lexical_decision_task_DD_L5,2021.2.3,MacIntel,29.41176471,,,,,,,,,,,0.513,1,,,,,,,,,,,,,,m,1,0.513,,,,,,,,0.43,-0.316666667,0,0,0,,0,153,153,23,1,CLOTH,C,old,m,./images/CLOTH.png,,,,,,,,,,,,,,,,,,,,,,
,,,,,,,,,,,,,,,,,200218,22,2022-01-29_10h36.57.986,lexical_decision_task_DD_L5,2021.2.3,MacIntel,29.41176471,,,,,,,,,,,0.477,1,,,,,,,,,,,,,,m,1,0.477,,,,,,,,0.43,-0.316666667,0,0,0,,0,154,154,83,1,WHISKY,C,old,m,./images/WHISKY.png,,,,,,,,,,,,,,,,,,,,,,
,,,,,,,,,,,,,,,,,200218,22,2022-01-29_10h36.57.986,lexical_decision_task_DD_L5,2021.2.3,MacIntel,29.41176471,,,,,,,,,,,0.613,1,,,,,,,,,,,,,,z,1,0.613,,,,,,,,0.43,-0.316666667,0,0,0,,0,155,155,86,1,AIFED,LB,old,z,./images/AIFEDLB.png,,,,,,,,,,,,,,,,,,,,,,
,,,,,,,,,,,,,,,,,200218,22,2022-01-29_10h36.57.986,lexical_decision_task_DD_L5,2021.2.3,MacIntel,29.41176471,,,,,,,,,,,0.795,1,,,,,,,,,,,,,,z,1,0.795,,,,,,,,0.43,-0.316666667,0,0,0,,0,156,156,134,1,TROSS,LB,old,z,./images/TROSSLB.png,,,,,,,,,,,,,,,,,,,,,,
,,,,,,,,,,,,,,,,,200218,22,2022-01-29_10h36.57.986,lexical_decision_task_DD_L5,2021.2.3,MacIntel,29.41176471,,,,,,,,,,,0.862,1,,,,,,,,,,,,,,m,1,0.862,,,,,,,,0.43,-0.316666667,0,0,0,,0,157,157,36,1,BOILER,HB,old,m,./images/BOILERHB.png,,,,,,,,,,,,,,,,,,,,,,
,,,,,,,,,,,,,,,,,200218,22,2022-01-29_10h36.57.986,lexical_decision_task_DD_L5,2021.2.3,MacIntel,29.41176471,,,,,,,,,,,0.903,1,,,,,,,,,,,,,,z,1,0.903,,,,,,,,0.43,-0.316666667,0,0,0,,0,158,158,137,1,JOOST,LB,old,z,./images/JOOSTLB.png,,,,,,,,,,,,,,,,,,,,,,
,,,,,,,,,,,,,,,,,200218,22,2022-01-29_10h36.57.986,lexical_decision_task_DD_L5,2021.2.3,MacIntel,29.41176471,,,,,,,,,,,0.863,1,,,,,,,,,,,,,,m,1,0.863,,,,,,,,0.43,-0.316666667,0,0,0,,0,159,159,1,1,TOWEL,LB,old,m,./images/TOWELLB.png,,,,,,,,,,,,,,,,,,,,,,
,,,,,,,,,,,,,,,,,200218,22,2022-01-29_10h36.57.986,lexical_decision_task_DD_L5,2021.2.3,MacIntel,29.41176471,,,,,,,,,,,0.614,1,,,,,,,,,,,,,,m,1,0.614,,,,,,,,0.43,-0.316666667,0,0,0,,0,160,160,32,1,HOCKEY,C,old,m,./images/HOCKEY.png,,,,,,,,,,,,,,,,,,,,,,
,,,,,,,,,,,,,,,,,200218,22,2022-01-29_10h36.57.986,lexical_decision_task_DD_L5,2021.2.3,MacIntel,29.41176471,,,,,,,,,,,0.612,1,,,,,,,,,,,,,,m,1,0.612,,,,,,,,0.43,-0.316666667,0,0,0,,0,161,161,44,1,BASKET,C,old,m,./images/BASKET.png,,,,,,,,,,,,,,,,,,,,,,
,,,,,,,,,,,,,,,,,200218,22,2022-01-29_10h36.57.986,lexical_decision_task_DD_L5,2021.2.3,MacIntel,29.41176471,,,,,,,,,,,0.814,1,,,,,,,,,,,,,,z,1,0.814,,,,,,,,0.43,-0.316666667,0,0,0,,0,162,162,148,1,JOMS,HB,old,z,./images/JOMSHB.png,,,,,,,,,,,,,,,,,,,,,,
,,,,,,,,,,,,,,,,,200218,22,2022-01-29_10h36.57.986,lexical_decision_task_DD_L5,2021.2.3,MacIntel,29.41176471,,,,,,,,,,,0.567,1,,,,,,,,,,,,,,m,1,0.567,,,,,,,,0.43,-0.316666667,0,0,0,,0,163,163,80,1,PLANET,C,old,m,./images/PLANET.png,,,,,,,,,,,,,,,,,,,,,,
,,,,,,,,,,,,,,,,,200218,22,2022-01-29_10h36.57.986,lexical_decision_task_DD_L5,2021.2.3,MacIntel,29.41176471,,,,,,,,,,,0.771,1,,,,,,,,,,,,,,z,1,0.771,,,,,,,,0.43,-0.316666667,0,0,0,,0,164,164,153,1,CLUPS,C,old,z,./images/CLUPS.png,,,,,,,,,,,,,,,,,,,,,,
,,,,,,,,,,,,,,,,,200218,22,2022-01-29_10h36.57.986,lexical_decision_task_DD_L5,2021.2.3,MacIntel,29.41176471,,,,,,,,,,,1.154,1,,,,,,,,,,,,,,z,1,1.154,,,,,,,,0.43,-0.316666667,0,0,0,,0,165,165,118,1,BAVEL,HB,old,z,./images/BAVELHB.png,,,,,,,,,,,,,,,,,,,,,,
,,,,,,,,,,,,,,,,,200218,22,2022-01-29_10h36.57.986,lexical_decision_task_DD_L5,2021.2.3,MacIntel,29.41176471,,,,,,,,,,,1.272,1,,,,,,,,,,,,,,z,1,1.272,,,,,,,,0.43,-0.316666667,0,0,0,,0,166,166,97,1,CHIDS,HB,old,z,./images/CHIDSHB.png,,,,,,,,,,,,,,,,,,,,,,
,,,,,,,,,,,,,,,,,200218,22,2022-01-29_10h36.57.986,lexical_decision_task_DD_L5,2021.2.3,MacIntel,29.41176471,,,,,,,,,,,1.794,1,,,,,,,,,,,,,,z,1,1.794,,,,,,,,0.43,-0.316666667,0,0,0,,0,167,167,98,1,BAMPS,LB,old,z,./images/BAMPSLB.png,,,,,,,,,,,,,,,,,,,,,,
space,0.43,-0.316666667,0,0,0,,,,,,,1,test,"In the next phase you will be presented with the words from the the first phase. Your job is to decide whether you remember seeing the word or not. If you remember seeing the word press ""old"" or type ""m"". If you do not remember seeing the word press ""new"" or type ""z"". Please press the space bar or click on continue to begin. ",,,200218,22,2022-01-29_10h36.57.986,lexical_decision_task_DD_L5,2021.2.3,MacIntel,29.41176471,,,,,,,,,,,,,,,,,,,,,,,,,,,,,,,,,,,,,,,,,,,,,,,,,,,,,26.462,0,0,0,0,1,,,,,,,,,,,,,,,
space,0.43,-0.316666667,0,0,0,,,,,,,1,test,"In the next phase you will be presented with the words from the the first phase. Your job is to decide whether you remember seeing the word or not. If you remember seeing the word press ""old"" or type ""m"". If you do not remember seeing the word press ""new"" or type ""z"". Please press the space bar or click on continue to begin. ",,,200218,22,2022-01-29_10h36.57.986,lexical_decision_task_DD_L5,2021.2.3,MacIntel,29.41176471,,,,,,,,,,,,,,,,,,,,,,,,,,,,,,,,,,,,,,,,,,,,,,,,,,,,,1.127,1,0,1,0,1,,,,,,,,,,,,,,,
,0.06,-0.421111111,1,0,0,instr_done_button,,,,,,1,test,"In the next phase you will be presented with the words from the the first phase. Your job is to decide whether you remember seeing the word or not. If you remember seeing the word press ""old"" or type ""m"". If you do not remember seeing the word press ""new"" or type ""z"". Please press the space bar or click on continue to begin. ",,,200218,22,2022-01-29_10h36.57.986,lexical_decision_task_DD_L5,2021.2.3,MacIntel,29.41176471,,,,,,,,,,,,,,,,,,,,,,,,,,,,,,,,,,,,,,,,,,,,,,,,,,,,,,2,0,2,0,1,,,,,,,,,,,,,,,
space,-0.017777778,-0.191111111,0,0,0,,,,,,,1,test,"In the next phase you will be presented with the words from the the first phase. Your job is to decide whether you remember seeing the word or not. If you remember seeing the word press ""old"" or type ""m"". If you do not remember seeing the word press ""new"" or type ""z"". Please press the space bar or click on continue to begin. ",,,200218,22,2022-01-29_10h36.57.986,lexical_decision_task_DD_L5,2021.2.3,MacIntel,29.41176471,,,,,,,,,,,,,,,,,,,,,,,,,,,,,,,,,,,,,,,,,,,,,,,,,,,,,3.32,3,0,3,0,1,,,,,,,,,,,,,,,
space,-0.017777778,-0.191111111,0,0,0,,,,,,,1,test,"In the next phase you will be presented with the words from the the first phase. Your job is to decide whether you remember seeing the word or not. If you remember seeing the word press ""old"" or type ""m"". If you do not remember seeing the word press ""new"" or type ""z"". Please press the space bar or click on continue to begin. ",,,200218,22,2022-01-29_10h36.57.986,lexical_decision_task_DD_L5,2021.2.3,MacIntel,29.41176471,,,,,,,,,,,,,,,,,,,,,,,,,,,,,,,,,,,,,,,,,,,,,,,,,,,,,1.565,4,0,4,0,1,,,,,,,,,,,,,,,
,,,,,,,,,,,,,,,,,200218,22,2022-01-29_10h36.57.986,lexical_decision_task_DD_L5,2021.2.3,MacIntel,29.41176471,,,,,,,,,,,1.34,1,,,,,,,,,,,,,,,,,,,,,,,,-0.017777778,-0.191111111,0,0,0,,,,,,,KIDNEY,HB,z,y,./images/KIDNEYHB.png,,,,,,,,z,1,1.34,,,,,,,,0,0,0,105,1
,,,,,,,,,,,,,,,,,200218,22,2022-01-29_10h36.57.986,lexical_decision_task_DD_L5,2021.2.3,MacIntel,29.41176471,,,,,,,,,,,0.981,0,,,,,,,,,,,,,,,,,,,,,,,,-0.017777778,-0.191111111,0,0,0,,,,,,,PEACH,C,z,y,./images/PEACH.png,,,,,,,,m,0,0.981,,,,,,,,0,1,1,119,1
,,,,,,,,,,,,,,,,,200218,22,2022-01-29_10h36.57.986,lexical_decision_task_DD_L5,2021.2.3,MacIntel,29.41176471,,,,,,,,,,,1.002,1,,,,,,,,,,,,,,,,,,,,,,,,-0.017777778,-0.191111111,0,0,0,,,,,,,COLLAR,HB,m,y,./images/COLLARHB.png,,,,,,,,m,1,1.002,,,,,,,,0,2,2,15,1
,,,,,,,,,,,,,,,,,200218,22,2022-01-29_10h36.57.986,lexical_decision_task_DD_L5,2021.2.3,MacIntel,29.41176471,,,,,,,,,,,0.954,0,,,,,,,,,,,,,,,,,,,,,,,,-0.017777778,-0.191111111,0,0,0,,,,,,,BUBBLE,C,m,y,./images/BUBBLE.png,,,,,,,,z,0,0.954,,,,,,,,0,3,3,71,1
,,,,,,,,,,,,,,,,,200218,22,2022-01-29_10h36.57.986,lexical_decision_task_DD_L5,2021.2.3,MacIntel,29.41176471,,,,,,,,,,,1.014,1,,,,,,,,,,,,,,,,,,,,,,,,-0.017777778,-0.191111111,0,0,0,,,,,,,WAGON,LB,m,y,./images/WAGONLB.png,,,,,,,,m,1,1.014,,,,,,,,0,4,4,7,1
,,,,,,,,,,,,,,,,,200218,22,2022-01-29_10h36.57.986,lexical_decision_task_DD_L5,2021.2.3,MacIntel,29.41176471,,,,,,,,,,,0.721,1,,,,,,,,,,,,,,,,,,,,,,,,-0.017777778,-0.191111111,0,0,0,,,,,,,BURIAL,C,z,y,./images/BURIAL.png,,,,,,,,z,1,0.721,,,,,,,,0,5,5,143,1
,,,,,,,,,,,,,,,,,200218,22,2022-01-29_10h36.57.986,lexical_decision_task_DD_L5,2021.2.3,MacIntel,29.41176471,,,,,,,,,,,1.382,1,,,,,,,,,,,,,,,,,,,,,,,,-0.017777778,-0.191111111,0,0,0,,,,,,,SPORT,HB,z,y,./images/SPORTHB.png,,,,,,,,z,1,1.382,,,,,,,,0,6,6,132,1
,,,,,,,,,,,,,,,,,200218,22,2022-01-29_10h36.57.986,lexical_decision_task_DD_L5,2021.2.3,MacIntel,29.41176471,,,,,,,,,,,1.299,1,,,,,,,,,,,,,,,,,,,,,,,,-0.017777778,-0.191111111,0,0,0,,,,,,,JELLY,LB,z,y,./images/JELLYLB.png,,,,,,,,z,1,1.299,,,,,,,,0,7,7,148,1
,,,,,,,,,,,,,,,,,200218,22,2022-01-29_10h36.57.986,lexical_decision_task_DD_L5,2021.2.3,MacIntel,29.41176471,,,,,,,,,,,0.744,1,,,,,,,,,,,,,,,,,,,,,,,,-0.017777778,-0.191111111,0,0,0,,,,,,,LITTER,HB,z,y,./images/LITTERHB.png,,,,,,,,z,1,0.744,,,,,,,,0,8,8,162,1
,,,,,,,,,,,,,,,,,200218,22,2022-01-29_10h36.57.986,lexical_decision_task_DD_L5,2021.2.3,MacIntel,29.41176471,,,,,,,,,,,2.359,1,,,,,,,,,,,,,,,,,,,,,,,,-0.017777778,-0.191111111,0,0,0,,,,,,,WRIST,LB,z,y,./images/WRISTLB.png,,,,,,,,z,1,2.359,,,,,,,,0,9,9,109,1
,,,,,,,,,,,,,,,,,200218,22,2022-01-29_10h36.57.986,lexical_decision_task_DD_L5,2021.2.3,MacIntel,29.41176471,,,,,,,,,,,0.947,1,,,,,,,,,,,,,,,,,,,,,,,,-0.017777778,-0.191111111,0,0,0,,,,,,,JAGUAR,HB,z,y,./images/JAGUARHB.png,,,,,,,,z,1,0.947,,,,,,,,0,10,10,102,1
,,,,,,,,,,,,,,,,,200218,22,2022-01-29_10h36.57.986,lexical_decision_task_DD_L5,2021.2.3,MacIntel,29.41176471,,,,,,,,,,,0.881,1,,,,,,,,,,,,,,,,,,,,,,,,-0.017777778,-0.191111111,0,0,0,,,,,,,SLOPE,HB,m,y,./images/SLOPEHB.png,,,,,,,,m,1,0.881,,,,,,,,0,11,11,30,1
,,,,,,,,,,,,,,,,,200218,22,2022-01-29_10h36.57.986,lexical_decision_task_DD_L5,2021.2.3,MacIntel,29.41176471,,,,,,,,,,,0.752,1,,,,,,,,,,,,,,,,,,,,,,,,-0.017777778,-0.191111111,0,0,0,,,,,,,STOOL,LB,m,y,./images/STOOLLB.png,,,,,,,,m,1,0.752,,,,,,,,0,12,12,43,1
,,,,,,,,,,,,,,,,,200218,22,2022-01-29_10h36.57.986,lexical_decision_task_DD_L5,2021.2.3,MacIntel,29.41176471,,,,,,,,,,,1.737,1,,,,,,,,,,,,,,,,,,,,,,,,-0.017777778,-0.191111111,0,0,0,,,,,,,CLOWN,LB,m,y,./images/CLOWNLB.png,,,,,,,,m,1,1.737,,,,,,,,0,13,13,22,1
,,,,,,,,,,,,,,,,,200218,22,2022-01-29_10h36.57.986,lexical_decision_task_DD_L5,2021.2.3,MacIntel,29.41176471,,,,,,,,,,,1.18,1,,,,,,,,,,,,,,,,,,,,,,,,-0.017777778,-0.191111111,0,0,0,,,,,,,PENCE,LB,z,y,./images/PENCELB.png,,,,,,,,z,1,1.18,,,,,,,,0,14,14,100,1
,,,,,,,,,,,,,,,,,200218,22,2022-01-29_10h36.57.986,lexical_decision_task_DD_L5,2021.2.3,MacIntel,29.41176471,,,,,,,,,,,0.761,1,,,,,,,,,,,,,,,,,,,,,,,,-0.017777778,-0.191111111,0,0,0,,,,,,,GARDEN,LB,m,y,./images/GARDENLB.png,,,,,,,,m,1,0.761,,,,,,,,0,15,15,10,1
,,,,,,,,,,,,,,,,,200218,22,2022-01-29_10h36.57.986,lexical_decision_task_DD_L5,2021.2.3,MacIntel,29.41176471,,,,,,,,,,,1.13,1,,,,,,,,,,,,,,,,,,,,,,,,-0.017777778,-0.191111111,0,0,0,,,,,,,PILOT,C,m,y,./images/PILOT.png,,,,,,,,m,1,1.13,,,,,,,,0,16,16,50,1
,,,,,,,,,,,,,,,,,200218,22,2022-01-29_10h36.57.986,lexical_decision_task_DD_L5,2021.2.3,MacIntel,29.41176471,,,,,,,,,,,0.764,1,,,,,,,,,,,,,,,,,,,,,,,,-0.017777778,-0.191111111,0,0,0,,,,,,,LLAMA,C,m,y,./images/LLAMA.png,,,,,,,,m,1,0.764,,,,,,,,0,17,17,35,1
,,,,,,,,,,,,,,,,,200218,22,2022-01-29_10h36.57.986,lexical_decision_task_DD_L5,2021.2.3,MacIntel,29.41176471,,,,,,,,,,,0.97,0,,,,,,,,,,,,,,,,,,,,,,,,-0.017777778,-0.191111111,0,0,0,,,,,,,BIRTH,LB,z,y,./images/BIRTHLB.png,,,,,,,,m,0,0.97,,,,,,,,0,18,18,121,1
,,,,,,,,,,,,,,,,,200218,22,2022-01-29_10h36.57.986,lexical_decision_task_DD_L5,2021.2.3,MacIntel,29.41176471,,,,,,,,,,,0.819,0,,,,,,,,,,,,,,,,,,,,,,,,-0.017777778,-0.191111111,0,0,0,,,,,,,MOOSE,HB,z,y,./images/MOOSEHB.png,,,,,,,,m,0,0.819,,,,,,,,0,19,19,141,1
,,,,,,,,,,,,,,,,,200218,22,2022-01-29_10h36.57.986,lexical_decision_task_DD_L5,2021.2.3,MacIntel,29.41176471,,,,,,,,,,,0.642,1,,,,,,,,,,,,,,,,,,,,,,,,-0.017777778,-0.191111111,0,0,0,,,,,,,GRANNY,C,m,y,./images/GRANNY.png,,,,,,,,m,1,0.642,,,,,,,,0,20,20,20,1
,,,,,,,,,,,,,,,,,200218,22,2022-01-29_10h36.57.986,lexical_decision_task_DD_L5,2021.2.3,MacIntel,29.41176471,,,,,,,,,,,0.662,1,,,,,,,,,,,,,,,,,,,,,,,,-0.017777778,-0.191111111,0,0,0,,,,,,,MONKEY,HB,m,y,./images/MONKEYHB.png,,,,,,,,m,1,0.662,,,,,,,,0,21,21,45,1
,,,,,,,,,,,,,,,,,200218,22,2022-01-29_10h36.57.986,lexical_decision_task_DD_L5,2021.2.3,MacIntel,29.41176471,,,,,,,,,,,0.888,0,,,,,,,,,,,,,,,,,,,,,,,,-0.017777778,-0.191111111,0,0,0,,,,,,,SHELF,HB,z,y,./images/SHELFHB.png,,,,,,,,m,0,0.888,,,,,,,,0,22,22,123,1
,,,,,,,,,,,,,,,,,200218,22,2022-01-29_10h36.57.986,lexical_decision_task_DD_L5,2021.2.3,MacIntel,29.41176471,,,,,,,,,,,0.994,1,,,,,,,,,,,,,,,,,,,,,,,,-0.017777778,-0.191111111,0,0,0,,,,,,,CLOUD,C,m,y,./images/CLOUD.png,,,,,,,,m,1,0.994,,,,,,,,0,23,23,26,1
,,,,,,,,,,,,,,,,,200218,22,2022-01-29_10h36.57.986,lexical_decision_task_DD_L5,2021.2.3,MacIntel,29.41176471,,,,,,,,,,,0.714,1,,,,,,,,,,,,,,,,,,,,,,,,-0.017777778,-0.191111111,0,0,0,,,,,,,SNAKE,LB,m,y,./images/SNAKELB.png,,,,,,,,m,1,0.714,,,,,,,,0,24,24,40,1
,,,,,,,,,,,,,,,,,200218,22,2022-01-29_10h36.57.986,lexical_decision_task_DD_L5,2021.2.3,MacIntel,29.41176471,,,,,,,,,,,1.595,0,,,,,,,,,,,,,,,,,,,,,,,,-0.017777778,-0.191111111,0,0,0,,,,,,,CRADLE,C,z,y,./images/CRADLE.png,,,,,,,,m,0,1.595,,,,,,,,0,25,25,104,1
,,,,,,,,,,,,,,,,,200218,22,2022-01-29_10h36.57.986,lexical_decision_task_DD_L5,2021.2.3,MacIntel,29.41176471,,,,,,,,,,,1.648,1,,,,,,,,,,,,,,,,,,,,,,,,-0.017777778,-0.191111111,0,0,0,,,,,,,LADDER,C,z,y,./images/LADDER.png,,,,,,,,z,1,1.648,,,,,,,,0,26,26,122,1
,,,,,,,,,,,,,,,,,200218,22,2022-01-29_10h36.57.986,lexical_decision_task_DD_L5,2021.2.3,MacIntel,29.41176471,,,,,,,,,,,1.248,0,,,,,,,,,,,,,,,,,,,,,,,,-0.017777778,-0.191111111,0,0,0,,,,,,,BUTTER,HB,m,y,./images/BUTTERHB.png,,,,,,,,z,0,1.248,,,,,,,,0,27,27,27,1
,,,,,,,,,,,,,,,,,200218,22,2022-01-29_10h36.57.986,lexical_decision_task_DD_L5,2021.2.3,MacIntel,29.41176471,,,,,,,,,,,1.232,1,,,,,,,,,,,,,,,,,,,,,,,,-0.017777778,-0.191111111,0,0,0,,,,,,,LIZARD,C,z,y,./images/LIZARD.png,,,,,,,,z,1,1.232,,,,,,,,0,28,28,128,1
,,,,,,,,,,,,,,,,,200218,22,2022-01-29_10h36.57.986,lexical_decision_task_DD_L5,2021.2.3,MacIntel,29.41176471,,,,,,,,,,,1.595,0,,,,,,,,,,,,,,,,,,,,,,,,-0.017777778,-0.191111111,0,0,0,,,,,,,PAINT,LB,z,y,./images/PAINTLB.png,,,,,,,,m,0,1.595,,,,,,,,0,29,29,91,1
,,,,,,,,,,,,,,,,,200218,22,2022-01-29_10h36.57.986,lexical_decision_task_DD_L5,2021.2.3,MacIntel,29.41176471,,,,,,,,,,,1.028,1,,,,,,,,,,,,,,,,,,,,,,,,-0.017777778,-0.191111111,0,0,0,,,,,,,PACKET,C,z,y,./images/PACKET.png,,,,,,,,z,1,1.028,,,,,,,,0,30,30,140,1
,,,,,,,,,,,,,,,,,200218,22,2022-01-29_10h36.57.986,lexical_decision_task_DD_L5,2021.2.3,MacIntel,29.41176471,,,,,,,,,,,0.861,1,,,,,,,,,,,,,,,,,,,,,,,,-0.017777778,-0.191111111,0,0,0,,,,,,,BANNER,LB,z,y,./images/BANNERLB.png,,,,,,,,z,1,0.861,,,,,,,,0,31,31,136,1
,,,,,,,,,,,,,,,,,200218,22,2022-01-29_10h36.57.986,lexical_decision_task_DD_L5,2021.2.3,MacIntel,29.41176471,,,,,,,,,,,1.347,1,,,,,,,,,,,,,,,,,,,,,,,,-0.017777778,-0.191111111,0,0,0,,,,,,,WALNUT,HB,m,y,./images/WALNUTHB.png,,,,,,,,m,1,1.347,,,,,,,,0,32,32,0,1
,,,,,,,,,,,,,,,,,200218,22,2022-01-29_10h36.57.986,lexical_decision_task_DD_L5,2021.2.3,MacIntel,29.41176471,,,,,,,,,,,0.851,1,,,,,,,,,,,,,,,,,,,,,,,,-0.017777778,-0.191111111,0,0,0,,,,,,,ONION,HB,z,y,./images/ONIONHB.png,,,,,,,,z,1,0.851,,,,,,,,0,33,33,135,1
,,,,,,,,,,,,,,,,,200218,22,2022-01-29_10h36.57.986,lexical_decision_task_DD_L5,2021.2.3,MacIntel,29.41176471,,,,,,,,,,,1.892,1,,,,,,,,,,,,,,,,,,,,,,,,-0.017777778,-0.191111111,0,0,0,,,,,,,CRUST,LB,z,y,./images/CRUSTLB.png,,,,,,,,z,1,1.892,,,,,,,,0,34,34,163,1
,,,,,,,,,,,,,,,,,200218,22,2022-01-29_10h36.57.986,lexical_decision_task_DD_L5,2021.2.3,MacIntel,29.41176471,,,,,,,,,,,1.947,1,,,,,,,,,,,,,,,,,,,,,,,,-0.017777778,-0.191111111,0,0,0,,,,,,,COOKER,HB,z,y,./images/COOKERHB.png,,,,,,,,z,1,1.947,,,,,,,,0,35,35,153,1
,,,,,,,,,,,,,,,,,200218,22,2022-01-29_10h36.57.986,lexical_decision_task_DD_L5,2021.2.3,MacIntel,29.41176471,,,,,,,,,,,1.017,1,,,,,,,,,,,,,,,,,,,,,,,,-0.017777778,-0.191111111,0,0,0,,,,,,,MAGGOT,HB,z,y,./images/MAGGOTHB.png,,,,,,,,z,1,1.017,,,,,,,,0,36,36,117,1
,,,,,,,,,,,,,,,,,200218,22,2022-01-29_10h36.57.986,lexical_decision_task_DD_L5,2021.2.3,MacIntel,29.41176471,,,,,,,,,,,0.948,1,,,,,,,,,,,,,,,,,,,,,,,,-0.017777778,-0.191111111,0,0,0,,,,,,,BOXER,LB,m,y,./images/BOXERLB.png,,,,,,,,m,1,0.948,,,,,,,,0,37,37,4,1
,,,,,,,,,,,,,,,,,200218,22,2022-01-29_10h36.57.986,lexical_decision_task_DD_L5,2021.2.3,MacIntel,29.41176471,,,,,,,,,,,0.935,1,,,,,,,,,,,,,,,,,,,,,,,,-0.017777778,-0.191111111,0,0,0,,,,,,,JUMPER,C,m,y,./images/JUMPER.png,,,,,,,,m,1,0.935,,,,,,,,0,38,38,74,1
,,,,,,,,,,,,,,,,,200218,22,2022-01-29_10h36.57.986,lexical_decision_task_DD_L5,2021.2.3,MacIntel,29.41176471,,,,,,,,,,,0.882,1,,,,,,,,,,,,,,,,,,,,,,,,-0.017777778,-0.191111111,0,0,0,,,,,,,WHEEL,C,m,y,./images/WHEEL.png,,,,,,,,m,1,0.882,,,,,,,,0,39,39,77,1
,,,,,,,,,,,,,,,,,200218,22,2022-01-29_10h36.57.986,lexical_decision_task_DD_L5,2021.2.3,MacIntel,29.41176471,,,,,,,,,,,1.11,1,,,,,,,,,,,,,,,,,,,,,,,,-0.017777778,-0.191111111,0,0,0,,,,,,,PEARL,LB,z,y,./images/PEARLLB.png,,,,,,,,z,1,1.11,,,,,,,,0,40,40,130,1
,,,,,,,,,,,,,,,,,200218,22,2022-01-29_10h36.57.986,lexical_decision_task_DD_L5,2021.2.3,MacIntel,29.41176471,,,,,,,,,,,0.88,1,,,,,,,,,,,,,,,,,,,,,,,,-0.017777778,-0.191111111,0,0,0,space,,,,,,POSTER,C,m,y,./images/POSTER.png,31.552,,,,,,,m,1,0.88,,,,,,,,0,41,41,53,1
,,,,,,,,,,,,,,,,,200218,22,2022-01-29_10h36.57.986,lexical_decision_task_DD_L5,2021.2.3,MacIntel,29.41176471,,,,,,,,,,,0.931,1,,,,,,,,,,,,,,,,,,,,,,,,-0.017777778,-0.191111111,0,0,0,,,,,,,BLOKE,HB,m,y,./images/BLOKEHB.png,,,,,,,,m,1,0.931,,,,,,,,0,42,42,12,1
,,,,,,,,,,,,,,,,,200218,22,2022-01-29_10h36.57.986,lexical_decision_task_DD_L5,2021.2.3,MacIntel,29.41176471,,,,,,,,,,,1.743,0,,,,,,,,,,,,,,,,,,,,,,,,-0.017777778,-0.191111111,0,0,0,,,,,,,FALCON,LB,z,y,./images/FALCONLB.png,,,,,,,,m,0,1.743,,,,,,,,0,43,43,112,1
,,,,,,,,,,,,,,,,,200218,22,2022-01-29_10h36.57.986,lexical_decision_task_DD_L5,2021.2.3,MacIntel,29.41176471,,,,,,,,,,,0.66,1,,,,,,,,,,,,,,,,,,,,,,,,-0.017777778,-0.191111111,0,0,0,,,,,,,FERRY,HB,m,y,./images/FERRYHB.png,,,,,,,,m,1,0.66,,,,,,,,0,44,44,57,1
,,,,,,,,,,,,,,,,,200218,22,2022-01-29_10h36.57.986,lexical_decision_task_DD_L5,2021.2.3,MacIntel,29.41176471,,,,,,,,,,,0.721,1,,,,,,,,,,,,,,,,,,,,,,,,-0.017777778,-0.191111111,0,0,0,,,,,,,STOVE,C,m,y,./images/STOVE.png,,,,,,,,m,1,0.721,,,,,,,,0,45,45,2,1
,,,,,,,,,,,,,,,,,200218,22,2022-01-29_10h36.57.986,lexical_decision_task_DD_L5,2021.2.3,MacIntel,29.41176471,,,,,,,,,,,0.781,1,,,,,,,,,,,,,,,,,,,,,,,,-0.017777778,-0.191111111,0,0,0,,,,,,,STEAK,LB,m,y,./images/STEAKLB.png,,,,,,,,m,1,0.781,,,,,,,,0,46,46,31,1
,,,,,,,,,,,,,,,,,200218,22,2022-01-29_10h36.57.986,lexical_decision_task_DD_L5,2021.2.3,MacIntel,29.41176471,,,,,,,,,,,0.644,1,,,,,,,,,,,,,,,,,,,,,,,,-0.017777778,-0.191111111,0,0,0,,,,,,,SHIELD,HB,m,y,./images/SHIELDHB.png,,,,,,,,m,1,0.644,,,,,,,,0,47,47,48,1
,,,,,,,,,,,,,,,,,200218,22,2022-01-29_10h36.57.986,lexical_decision_task_DD_L5,2021.2.3,MacIntel,29.41176471,,,,,,,,,,,0.647,1,,,,,,,,,,,,,,,,,,,,,,,,-0.017777778,-0.191111111,0,0,0,,,,,,,TIGER,LB,m,y,./images/TIGERLB.png,,,,,,,,m,1,0.647,,,,,,,,0,48,48,37,1
,,,,,,,,,,,,,,,,,200218,22,2022-01-29_10h36.57.986,lexical_decision_task_DD_L5,2021.2.3,MacIntel,29.41176471,,,,,,,,,,,0.769,1,,,,,,,,,,,,,,,,,,,,,,,,-0.017777778,-0.191111111,0,0,0,,,,,,,TRIPOD,HB,z,y,./images/TRIPODHB.png,,,,,,,,z,1,0.769,,,,,,,,0,49,49,138,1
,,,,,,,,,,,,,,,,,200218,22,2022-01-29_10h36.57.986,lexical_decision_task_DD_L5,2021.2.3,MacIntel,29.41176471,,,,,,,,,,,0.816,1,,,,,,,,,,,,,,,,,,,,,,,,-0.017777778,-0.191111111,0,0,0,,,,,,,RAZOR,LB,m,y,./images/RAZORLB.png,,,,,,,,m,1,0.816,,,,,,,,0,50,50,34,1
,,,,,,,,,,,,,,,,,200218,22,2022-01-29_10h36.57.986,lexical_decision_task_DD_L5,2021.2.3,MacIntel,29.41176471,,,,,,,,,,,1.43,1,,,,,,,,,,,,,,,,,,,,,,,,-0.017777778,-0.191111111,0,0,0,,,,,,,MUFFIN,LB,z,y,./images/MUFFINLB.png,,,,,,,,z,1,1.43,,,,,,,,0,51,51,139,1
,,,,,,,,,,,,,,,,,200218,22,2022-01-29_10h36.57.986,lexical_decision_task_DD_L5,2021.2.3,MacIntel,29.41176471,,,,,,,,,,,0.683,1,,,,,,,,,,,,,,,,,,,,,,,,-0.017777778,-0.191111111,0,0,0,,,,,,,BISHOP,LB,m,y,./images/BISHOPLB.png,,,,,,,,m,1,0.683,,,,,,,,0,52,52,49,1
,,,,,,,,,,,,,,,,,200218,22,2022-01-29_10h36.57.986,lexical_decision_task_DD_L5,2021.2.3,MacIntel,29.41176471,,,,,,,,,,,1.05,1,,,,,,,,,,,,,,,,,,,,,,,,-0.017777778,-0.191111111,0,0,0,,,,,,,STREAM,C,m,y,./images/STREAM.png,,,,,,,,m,1,1.05,,,,,,,,0,53,53,41,1
,,,,,,,,,,,,,,,,,200218,22,2022-01-29_10h36.57.986,lexical_decision_task_DD_L5,2021.2.3,MacIntel,29.41176471,,,,,,,,,,,1.25,1,,,,,,,,,,,,,,,,,,,,,,,,-0.017777778,-0.191111111,0,0,0,,,,,,,BROOM,HB,m,y,./images/BROOMHB.png,,,,,,,,m,1,1.25,,,,,,,,0,54,54,78,1
,,,,,,,,,,,,,,,,,200218,22,2022-01-29_10h36.57.986,lexical_decision_task_DD_L5,2021.2.3,MacIntel,29.41176471,,,,,,,,,,,0.68,1,,,,,,,,,,,,,,,,,,,,,,,,-0.017777778,-0.191111111,0,0,0,,,,,,,DIVER,HB,m,y,./images/DIVERHB.png,,,,,,,,m,1,0.68,,,,,,,,0,55,55,9,1
,,,,,,,,,,,,,,,,,200218,22,2022-01-29_10h36.57.986,lexical_decision_task_DD_L5,2021.2.3,MacIntel,29.41176471,,,,,,,,,,,0.876,1,,,,,,,,,,,,,,,,,,,,,,,,-0.017777778,-0.191111111,0,0,0,,,,,,,MELON,LB,z,y,./images/MELONLB.png,,,,,,,,z,1,0.876,,,,,,,,0,56,56,106,1
,,,,,,,,,,,,,,,,,200218,22,2022-01-29_10h36.57.986,lexical_decision_task_DD_L5,2021.2.3,MacIntel,29.41176471,,,,,,,,,,,1.156,1,,,,,,,,,,,,,,,,,,,,,,,,-0.017777778,-0.191111111,0,0,0,,,,,,,PLANK,LB,z,y,./images/PLANKLB.png,,,,,,,,z,1,1.156,,,,,,,,0,57,57,85,1
,,,,,,,,,,,,,,,,,200218,22,2022-01-29_10h36.57.986,lexical_decision_task_DD_L5,2021.2.3,MacIntel,29.41176471,,,,,,,,,,,1.188,1,,,,,,,,,,,,,,,,,,,,,,,,-0.017777778,-0.191111111,0,0,0,,,,,,,PURSE,C,z,y,./images/PURSE.png,,,,,,,,z,1,1.188,,,,,,,,0,58,58,146,1
,,,,,,,,,,,,,,,,,200218,22,2022-01-29_10h36.57.986,lexical_decision_task_DD_L5,2021.2.3,MacIntel,29.41176471,,,,,,,,,,,1.628,1,,,,,,,,,,,,,,,,,,,,,,,,-0.017777778,-0.191111111,0,0,0,,,,,,,CANDLE,LB,z,y,./images/CANDLELB.png,,,,,,,,z,1,1.628,,,,,,,,0,59,59,145,1
,,,,,,,,,,,,,,,,,200218,22,2022-01-29_10h36.57.986,lexical_decision_task_DD_L5,2021.2.3,MacIntel,29.41176471,,,,,,,,,,,1.744,1,,,,,,,,,,,,,,,,,,,,,,,,-0.017777778,-0.191111111,0,0,0,,,,,,,SNACK,LB,z,y,./images/SNACKLB.png,,,,,,,,z,1,1.744,,,,,,,,0,60,60,157,1
,,,,,,,,,,,,,,,,,200218,22,2022-01-29_10h36.57.986,lexical_decision_task_DD_L5,2021.2.3,MacIntel,29.41176471,,,,,,,,,,,1.643,1,,,,,,,,,,,,,,,,,,,,,,,,-0.017777778,-0.191111111,0,0,0,,,,,,,FARMER,C,z,y,./images/FARMER.png,,,,,,,,z,1,1.643,,,,,,,,0,61,61,149,1
,,,,,,,,,,,,,,,,,200218,22,2022-01-29_10h36.57.986,lexical_decision_task_DD_L5,2021.2.3,MacIntel,29.41176471,,,,,,,,,,,1.095,1,,,,,,,,,,,,,,,,,,,,,,,,-0.017777778,-0.191111111,0,0,0,,,,,,,PIMPLE,C,z,y,./images/PIMPLE.png,,,,,,,,z,1,1.095,,,,,,,,0,62,62,155,1
,,,,,,,,,,,,,,,,,200218,22,2022-01-29_10h36.57.986,lexical_decision_task_DD_L5,2021.2.3,MacIntel,29.41176471,,,,,,,,,,,1.07,1,,,,,,,,,,,,,,,,,,,,,,,,-0.017777778,-0.191111111,0,0,0,,,,,,,LAGOON,C,m,y,./images/LAGOON.png,,,,,,,,m,1,1.07,,,,,,,,0,63,63,47,1
,,,,,,,,,,,,,,,,,200218,22,2022-01-29_10h36.57.986,lexical_decision_task_DD_L5,2021.2.3,MacIntel,29.41176471,,,,,,,,,,,0.914,1,,,,,,,,,,,,,,,,,,,,,,,,-0.017777778,-0.191111111,0,0,0,,,,,,,DANCER,HB,m,y,./images/DANCERHB.png,,,,,,,,m,1,0.914,,,,,,,,0,64,64,21,1
,,,,,,,,,,,,,,,,,200218,22,2022-01-29_10h36.57.986,lexical_decision_task_DD_L5,2021.2.3,MacIntel,29.41176471,,,,,,,,,,,0.81,1,,,,,,,,,,,,,,,,,,,,,,,,-0.017777778,-0.191111111,0,0,0,,,,,,,TOMATO,HB,z,y,./images/TOMATOHB.png,,,,,,,,z,1,0.81,,,,,,,,0,65,65,84,1
,,,,,,,,,,,,,,,,,200218,22,2022-01-29_10h36.57.986,lexical_decision_task_DD_L5,2021.2.3,MacIntel,29.41176471,,,,,,,,,,,0.886,1,,,,,,,,,,,,,,,,,,,,,,,,-0.017777778,-0.191111111,0,0,0,,,,,,,WALRUS,C,z,y,./images/WALRUS.png,,,,,,,,z,1,0.886,,,,,,,,0,66,66,107,1
,,,,,,,,,,,,,,,,,200218,22,2022-01-29_10h36.57.986,lexical_decision_task_DD_L5,2021.2.3,MacIntel,29.41176471,,,,,,,,,,,1.495,1,,,,,,,,,,,,,,,,,,,,,,,,-0.017777778,-0.191111111,0,0,0,,,,,,,STRING,C,z,y,./images/STRING.png,,,,,,,,z,1,1.495,,,,,,,,0,67,67,125,1
,,,,,,,,,,,,,,,,,200218,22,2022-01-29_10h36.57.986,lexical_decision_task_DD_L5,2021.2.3,MacIntel,29.41176471,,,,,,,,,,,0.815,1,,,,,,,,,,,,,,,,,,,,,,,,-0.017777778,-0.191111111,0,0,0,,,,,,,TOWEL,LB,m,y,./images/TOWELLB.png,,,,,,,,m,1,0.815,,,,,,,,0,68,68,1,1
,,,,,,,,,,,,,,,,,200218,22,2022-01-29_10h36.57.986,lexical_decision_task_DD_L5,2021.2.3,MacIntel,29.41176471,,,,,,,,,,,0.977,1,,,,,,,,,,,,,,,,,,,,,,,,-0.017777778,-0.191111111,0,0,0,,,,,,,BUNNY,LB,m,y,./images/BUNNYLB.png,,,,,,,,m,1,0.977,,,,,,,,0,69,69,13,1
,,,,,,,,,,,,,,,,,200218,22,2022-01-29_10h36.57.986,lexical_decision_task_DD_L5,2021.2.3,MacIntel,29.41176471,,,,,,,,,,,1.926,0,,,,,,,,,,,,,,,,,,,,,,,,-0.017777778,-0.191111111,0,0,0,,,,,,,POKER,LB,m,y,./images/POKERLB.png,,,,,,,,z,0,1.926,,,,,,,,0,70,70,67,1
,,,,,,,,,,,,,,,,,200218,22,2022-01-29_10h36.57.986,lexical_decision_task_DD_L5,2021.2.3,MacIntel,29.41176471,,,,,,,,,,,1.548,1,,,,,,,,,,,,,,,,,,,,,,,,-0.017777778,-0.191111111,0,0,0,,,,,,,BANANA,LB,m,y,./images/BANANALB.png,,,,,,,,m,1,1.548,,,,,,,,0,71,71,70,1
,,,,,,,,,,,,,,,,,200218,22,2022-01-29_10h36.57.986,lexical_decision_task_DD_L5,2021.2.3,MacIntel,29.41176471,,,,,,,,,,,0.913,1,,,,,,,,,,,,,,,,,,,,,,,,-0.017777778,-0.191111111,0,0,0,,,,,,,STATUE,HB,m,y,./images/STATUEHB.png,,,,,,,,m,1,0.913,,,,,,,,0,72,72,66,1
,,,,,,,,,,,,,,,,,200218,22,2022-01-29_10h36.57.986,lexical_decision_task_DD_L5,2021.2.3,MacIntel,29.41176471,,,,,,,,,,,1.324,1,,,,,,,,,,,,,,,,,,,,,,,,-0.017777778,-0.191111111,0,0,0,,,,,,,BABOON,LB,z,y,./images/BABOONLB.png,,,,,,,,z,1,1.324,,,,,,,,0,73,73,142,1
,,,,,,,,,,,,,,,,,200218,22,2022-01-29_10h36.57.986,lexical_decision_task_DD_L5,2021.2.3,MacIntel,29.41176471,,,,,,,,,,,0.961,1,,,,,,,,,,,,,,,,,,,,,,,,-0.017777778,-0.191111111,0,0,0,,,,,,,WHISKY,C,m,y,./images/WHISKY.png,,,,,,,,m,1,0.961,,,,,,,,0,74,74,83,1
,,,,,,,,,,,,,,,,,200218,22,2022-01-29_10h36.57.986,lexical_decision_task_DD_L5,2021.2.3,MacIntel,29.41176471,,,,,,,,,,,1.765,0,,,,,,,,,,,,,,,,,,,,,,,,-0.017777778,-0.191111111,0,0,0,,,,,,,RHINO,HB,z,y,./images/RHINOHB.png,,,,,,,,m,0,1.765,,,,,,,,0,75,75,93,1
,,,,,,,,,,,,,,,,,200218,22,2022-01-29_10h36.57.986,lexical_decision_task_DD_L5,2021.2.3,MacIntel,29.41176471,,,,,,,,,,,0.975,1,,,,,,,,,,,,,,,,,,,,,,,,-0.017777778,-0.191111111,0,0,0,,,,,,,RULER,LB,m,y,./images/RULERLB.png,,,,,,,,m,1,0.975,,,,,,,,0,76,76,79,1
,,,,,,,,,,,,,,,,,200218,22,2022-01-29_10h36.57.986,lexical_decision_task_DD_L5,2021.2.3,MacIntel,29.41176471,,,,,,,,,,,0.753,0,,,,,,,,,,,,,,,,,,,,,,,,-0.017777778,-0.191111111,0,0,0,,,,,,,CASINO,LB,m,y,./images/CASINOLB.png,,,,,,,,z,0,0.753,,,,,,,,0,77,77,28,1
,,,,,,,,,,,,,,,,,200218,22,2022-01-29_10h36.57.986,lexical_decision_task_DD_L5,2021.2.3,MacIntel,29.41176471,,,,,,,,,,,2.577,0,,,,,,,,,,,,,,,,,,,,,,,,-0.017777778,-0.191111111,0,0,0,,,,,,,MUMMY,LB,m,y,./images/MUMMYLB.png,,,,,,,,z,0,2.577,,,,,,,,0,78,78,46,1
,,,,,,,,,,,,,,,,,200218,22,2022-01-29_10h36.57.986,lexical_decision_task_DD_L5,2021.2.3,MacIntel,29.41176471,,,,,,,,,,,1.048,1,,,,,,,,,,,,,,,,,,,,,,,,-0.017777778,-0.191111111,0,0,0,,,,,,,CRATER,HB,m,y,./images/CRATERHB.png,,,,,,,,m,1,1.048,,,,,,,,0,79,79,3,1
,,,,,,,,,,,,,,,,,200218,22,2022-01-29_10h36.57.986,lexical_decision_task_DD_L5,2021.2.3,MacIntel,29.41176471,,,,,,,,,,,1.047,0,,,,,,,,,,,,,,,,,,,,,,,,-0.017777778,-0.191111111,0,0,0,,,,,,,THROAT,HB,z,y,./images/THROATHB.png,,,,,,,,m,0,1.047,,,,,,,,0,80,80,120,1
,,,,,,,,,,,,,,,,,200218,22,2022-01-29_10h36.57.986,lexical_decision_task_DD_L5,2021.2.3,MacIntel,29.41176471,,,,,,,,,,,0.929,0,,,,,,,,,,,,,,,,,,,,,,,,-0.017777778,-0.191111111,0,0,0,,,,,,,PISTOL,C,m,y,./images/PISTOL.png,,,,,,,,z,0,0.929,,,,,,,,0,81,81,29,1
,,,,,,,,,,,,,,,,,200218,22,2022-01-29_10h36.57.986,lexical_decision_task_DD_L5,2021.2.3,MacIntel,29.41176471,,,,,,,,,,,1.143,0,,,,,,,,,,,,,,,,,,,,,,,,-0.017777778,-0.191111111,0,0,0,,,,,,,DONKEY,LB,m,y,./images/DONKEYLB.png,,,,,,,,z,0,1.143,,,,,,,,0,82,82,19,1
,,,,,,,,,,,,,,,,,200218,22,2022-01-29_10h36.57.986,lexical_decision_task_DD_L5,2021.2.3,MacIntel,29.41176471,,,,,,,,,,,2.622,0,,,,,,,,,,,,,,,,,,,,,,,,-0.017777778,-0.191111111,0,0,0,space,,,,,,GRAPE,LB,m,y,./images/GRAPELB.png,37.9,,,,,,,z,0,2.622,,,,,,,,0,83,83,16,1
,,,,,,,,,,,,,,,,,200218,22,2022-01-29_10h36.57.986,lexical_decision_task_DD_L5,2021.2.3,MacIntel,29.41176471,,,,,,,,,,,0.86,1,,,,,,,,,,,,,,,,,,,,,,,,-0.017777778,-0.191111111,0,0,0,,,,,,,PARADE,C,m,y,./images/PARADE.png,,,,,,,,m,1,0.86,,,,,,,,0,84,84,17,1
,,,,,,,,,,,,,,,,,200218,22,2022-01-29_10h36.57.986,lexical_decision_task_DD_L5,2021.2.3,MacIntel,29.41176471,,,,,,,,,,,0.66,1,,,,,,,,,,,,,,,,,,,,,,,,-0.017777778,-0.191111111,0,0,0,,,,,,,SAUCE,HB,m,y,./images/SAUCEHB.png,,,,,,,,m,1,0.66,,,,,,,,0,85,85,51,1
,,,,,,,,,,,,,,,,,200218,22,2022-01-29_10h36.57.986,lexical_decision_task_DD_L5,2021.2.3,MacIntel,29.41176471,,,,,,,,,,,1.149,0,,,,,,,,,,,,,,,,,,,,,,,,-0.017777778,-0.191111111,0,0,0,,,,,,,POODLE,HB,z,y,./images/POODLEHB.png,,,,,,,,m,0,1.149,,,,,,,,0,86,86,165,1
,,,,,,,,,,,,,,,,,200218,22,2022-01-29_10h36.57.986,lexical_decision_task_DD_L5,2021.2.3,MacIntel,29.41176471,,,,,,,,,,,1.187,1,,,,,,,,,,,,,,,,,,,,,,,,-0.017777778,-0.191111111,0,0,0,,,,,,,BAMBOO,C,m,y,./images/BAMBOO.png,,,,,,,,m,1,1.187,,,,,,,,0,87,87,5,1
,,,,,,,,,,,,,,,,,200218,22,2022-01-29_10h36.57.986,lexical_decision_task_DD_L5,2021.2.3,MacIntel,29.41176471,,,,,,,,,,,0.662,1,,,,,,,,,,,,,,,,,,,,,,,,-0.017777778,-0.191111111,0,0,0,,,,,,,MAMMAL,C,m,y,./images/MAMMAL.png,,,,,,,,m,1,0.662,,,,,,,,0,88,88,62,1
,,,,,,,,,,,,,,,,,200218,22,2022-01-29_10h36.57.986,lexical_decision_task_DD_L5,2021.2.3,MacIntel,29.41176471,,,,,,,,,,,1.331,1,,,,,,,,,,,,,,,,,,,,,,,,-0.017777778,-0.191111111,0,0,0,,,,,,,SHORE,HB,z,y,./images/SHOREHB.png,,,,,,,,z,1,1.331,,,,,,,,0,89,89,96,1
,,,,,,,,,,,,,,,,,200218,22,2022-01-29_10h36.57.986,lexical_decision_task_DD_L5,2021.2.3,MacIntel,29.41176471,,,,,,,,,,,0.693,1,,,,,,,,,,,,,,,,,,,,,,,,-0.017777778,-0.191111111,0,0,0,,,,,,,DOUGH,LB,z,y,./images/DOUGHLB.png,,,,,,,,z,1,0.693,,,,,,,,0,90,90,103,1
,,,,,,,,,,,,,,,,,200218,22,2022-01-29_10h36.57.986,lexical_decision_task_DD_L5,2021.2.3,MacIntel,29.41176471,,,,,,,,,,,1.314,1,,,,,,,,,,,,,,,,,,,,,,,,-0.017777778,-0.191111111,0,0,0,,,,,,,MALLET,C,z,y,./images/MALLET.png,,,,,,,,z,1,1.314,,,,,,,,0,91,91,134,1
,,,,,,,,,,,,,,,,,200218,22,2022-01-29_10h36.57.986,lexical_decision_task_DD_L5,2021.2.3,MacIntel,29.41176471,,,,,,,,,,,1.203,1,,,,,,,,,,,,,,,,,,,,,,,,-0.017777778,-0.191111111,0,0,0,,,,,,,BONNET,C,z,y,./images/BONNET.png,,,,,,,,z,1,1.203,,,,,,,,0,92,92,95,1
,,,,,,,,,,,,,,,,,200218,22,2022-01-29_10h36.57.986,lexical_decision_task_DD_L5,2021.2.3,MacIntel,29.41176471,,,,,,,,,,,0.933,1,,,,,,,,,,,,,,,,,,,,,,,,-0.017777778,-0.191111111,0,0,0,,,,,,,FLESH,HB,m,y,./images/FLESHHB.png,,,,,,,,m,1,0.933,,,,,,,,0,93,93,24,1
,,,,,,,,,,,,,,,,,200218,22,2022-01-29_10h36.57.986,lexical_decision_task_DD_L5,2021.2.3,MacIntel,29.41176471,,,,,,,,,,,0.648,1,,,,,,,,,,,,,,,,,,,,,,,,-0.017777778,-0.191111111,0,0,0,,,,,,,CHALK,LB,m,y,./images/CHALKLB.png,,,,,,,,m,1,0.648,,,,,,,,0,94,94,25,1
,,,,,,,,,,,,,,,,,200218,22,2022-01-29_10h36.57.986,lexical_decision_task_DD_L5,2021.2.3,MacIntel,29.41176471,,,,,,,,,,,1.203,1,,,,,,,,,,,,,,,,,,,,,,,,-0.017777778,-0.191111111,0,0,0,,,,,,,PASTA,C,z,y,./images/PASTA.png,,,,,,,,z,1,1.203,,,,,,,,0,95,95,89,1
,,,,,,,,,,,,,,,,,200218,22,2022-01-29_10h36.57.986,lexical_decision_task_DD_L5,2021.2.3,MacIntel,29.41176471,,,,,,,,,,,0.981,1,,,,,,,,,,,,,,,,,,,,,,,,-0.017777778,-0.191111111,0,0,0,,,,,,,BEARD,C,z,y,./images/BEARD.png,,,,,,,,z,1,0.981,,,,,,,,0,96,96,86,1
,,,,,,,,,,,,,,,,,200218,22,2022-01-29_10h36.57.986,lexical_decision_task_DD_L5,2021.2.3,MacIntel,29.41176471,,,,,,,,,,,1.133,0,,,,,,,,,,,,,,,,,,,,,,,,-0.017777778,-0.191111111,0,0,0,,,,,,,TORCH,C,z,y,./images/TORCH.png,,,,,,,,m,0,1.133,,,,,,,,0,97,97,152,1
,,,,,,,,,,,,,,,,,200218,22,2022-01-29_10h36.57.986,lexical_decision_task_DD_L5,2021.2.3,MacIntel,29.41176471,,,,,,,,,,,1.547,0,,,,,,,,,,,,,,,,,,,,,,,,-0.017777778,-0.191111111,0,0,0,,,,,,,STAIN,HB,m,y,./images/STAINHB.png,,,,,,,,z,0,1.547,,,,,,,,0,98,98,6,1
,,,,,,,,,,,,,,,,,200218,22,2022-01-29_10h36.57.986,lexical_decision_task_DD_L5,2021.2.3,MacIntel,29.41176471,,,,,,,,,,,0.83,1,,,,,,,,,,,,,,,,,,,,,,,,-0.017777778,-0.191111111,0,0,0,,,,,,,SUNSET,LB,z,y,./images/SUNSETLB.png,,,,,,,,z,1,0.83,,,,,,,,0,99,99,166,1
,,,,,,,,,,,,,,,,,200218,22,2022-01-29_10h36.57.986,lexical_decision_task_DD_L5,2021.2.3,MacIntel,29.41176471,,,,,,,,,,,0.746,1,,,,,,,,,,,,,,,,,,,,,,,,-0.017777778,-0.191111111,0,0,0,,,,,,,CLOTH,C,m,y,./images/CLOTH.png,,,,,,,,m,1,0.746,,,,,,,,0,100,100,23,1
,,,,,,,,,,,,,,,,,200218,22,2022-01-29_10h36.57.986,lexical_decision_task_DD_L5,2021.2.3,MacIntel,29.41176471,,,,,,,,,,,0.685,1,,,,,,,,,,,,,,,,,,,,,,,,-0.017777778,-0.191111111,0,0,0,,,,,,,DRILL,HB,m,y,./images/DRILLHB.png,,,,,,,,m,1,0.685,,,,,,,,0,101,101,81,1
,,,,,,,,,,,,,,,,,200218,22,2022-01-29_10h36.57.986,lexical_decision_task_DD_L5,2021.2.3,MacIntel,29.41176471,,,,,,,,,,,0.884,1,,,,,,,,,,,,,,,,,,,,,,,,-0.017777778,-0.191111111,0,0,0,,,,,,,NOOSE,HB,z,y,./images/NOOSEHB.png,,,,,,,,z,1,0.884,,,,,,,,0,102,102,156,1
,,,,,,,,,,,,,,,,,200218,22,2022-01-29_10h36.57.986,lexical_decision_task_DD_L5,2021.2.3,MacIntel,29.41176471,,,,,,,,,,,1.988,0,,,,,,,,,,,,,,,,,,,,,,,,-0.017777778,-0.191111111,0,0,0,,,,,,,DESERT,LB,m,y,./images/DESERTLB.png,,,,,,,,z,0,1.988,,,,,,,,0,103,103,52,1
,,,,,,,,,,,,,,,,,200218,22,2022-01-29_10h36.57.986,lexical_decision_task_DD_L5,2021.2.3,MacIntel,29.41176471,,,,,,,,,,,1.298,1,,,,,,,,,,,,,,,,,,,,,,,,-0.017777778,-0.191111111,0,0,0,,,,,,,SMOKER,C,z,y,./images/SMOKER.png,,,,,,,,z,1,1.298,,,,,,,,0,104,104,110,1
,,,,,,,,,,,,,,,,,200218,22,2022-01-29_10h36.57.986,lexical_decision_task_DD_L5,2021.2.3,MacIntel,29.41176471,,,,,,,,,,,1.244,0,,,,,,,,,,,,,,,,,,,,,,,,-0.017777778,-0.191111111,0,0,0,,,,,,,BRIDE,LB,m,y,./images/BRIDELB.png,,,,,,,,z,0,1.244,,,,,,,,0,105,105,64,1
,,,,,,,,,,,,,,,,,200218,22,2022-01-29_10h36.57.986,lexical_decision_task_DD_L5,2021.2.3,MacIntel,29.41176471,,,,,,,,,,,1.381,0,,,,,,,,,,,,,,,,,,,,,,,,-0.017777778,-0.191111111,0,0,0,,,,,,,CHAIN,HB,m,y,./images/CHAINHB.png,,,,,,,,z,0,1.381,,,,,,,,0,106,106,42,1
,,,,,,,,,,,,,,,,,200218,22,2022-01-29_10h36.57.986,lexical_decision_task_DD_L5,2021.2.3,MacIntel,29.41176471,,,,,,,,,,,0.717,1,,,,,,,,,,,,,,,,,,,,,,,,-0.017777778,-0.191111111,0,0,0,,,,,,,BASKET,C,m,y,./images/BASKET.png,,,,,,,,m,1,0.717,,,,,,,,0,107,107,44,1
,,,,,,,,,,,,,,,,,200218,22,2022-01-29_10h36.57.986,lexical_decision_task_DD_L5,2021.2.3,MacIntel,29.41176471,,,,,,,,,,,0.954,0,,,,,,,,,,,,,,,,,,,,,,,,-0.017777778,-0.191111111,0,0,0,,,,,,,CLIFF,C,m,y,./images/CLIFF.png,,,,,,,,z,0,0.954,,,,,,,,0,108,108,8,1
,,,,,,,,,,,,,,,,,200218,22,2022-01-29_10h36.57.986,lexical_decision_task_DD_L5,2021.2.3,MacIntel,29.41176471,,,,,,,,,,,1.377,1,,,,,,,,,,,,,,,,,,,,,,,,-0.017777778,-0.191111111,0,0,0,,,,,,,CRUMB,C,z,y,./images/CRUMB.png,,,,,,,,z,1,1.377,,,,,,,,0,109,109,113,1
,,,,,,,,,,,,,,,,,200218,22,2022-01-29_10h36.57.986,lexical_decision_task_DD_L5,2021.2.3,MacIntel,29.41176471,,,,,,,,,,,1.259,1,,,,,,,,,,,,,,,,,,,,,,,,-0.017777778,-0.191111111,0,0,0,,,,,,,CANOE,LB,m,y,./images/CANOELB.png,,,,,,,,m,1,1.259,,,,,,,,0,110,110,58,1
,,,,,,,,,,,,,,,,,200218,22,2022-01-29_10h36.57.986,lexical_decision_task_DD_L5,2021.2.3,MacIntel,29.41176471,,,,,,,,,,,0.63,0,,,,,,,,,,,,,,,,,,,,,,,,-0.017777778,-0.191111111,0,0,0,,,,,,,SCREW,HB,z,y,./images/SCREWHB.png,,,,,,,,m,0,0.63,,,,,,,,0,111,111,108,1
,,,,,,,,,,,,,,,,,200218,22,2022-01-29_10h36.57.986,lexical_decision_task_DD_L5,2021.2.3,MacIntel,29.41176471,,,,,,,,,,,1.328,1,,,,,,,,,,,,,,,,,,,,,,,,-0.017777778,-0.191111111,0,0,0,,,,,,,FLASK,HB,m,y,./images/FLASKHB.png,,,,,,,,m,1,1.328,,,,,,,,0,112,112,72,1
,,,,,,,,,,,,,,,,,200218,22,2022-01-29_10h36.57.986,lexical_decision_task_DD_L5,2021.2.3,MacIntel,29.41176471,,,,,,,,,,,0.864,0,,,,,,,,,,,,,,,,,,,,,,,,-0.017777778,-0.191111111,0,0,0,,,,,,,PLANET,C,m,y,./images/PLANET.png,,,,,,,,z,0,0.864,,,,,,,,0,113,113,80,1
,,,,,,,,,,,,,,,,,200218,22,2022-01-29_10h36.57.986,lexical_decision_task_DD_L5,2021.2.3,MacIntel,29.41176471,,,,,,,,,,,1.111,1,,,,,,,,,,,,,,,,,,,,,,,,-0.017777778,-0.191111111,0,0,0,,,,,,,STORM,HB,z,y,./images/STORMHB.png,,,,,,,,z,1,1.111,,,,,,,,0,114,114,114,1
,,,,,,,,,,,,,,,,,200218,22,2022-01-29_10h36.57.986,lexical_decision_task_DD_L5,2021.2.3,MacIntel,29.41176471,,,,,,,,,,,1.031,1,,,,,,,,,,,,,,,,,,,,,,,,-0.017777778,-0.191111111,0,0,0,,,,,,,CANYON,LB,z,y,./images/CANYONLB.png,,,,,,,,z,1,1.031,,,,,,,,0,115,115,118,1
,,,,,,,,,,,,,,,,,200218,22,2022-01-29_10h36.57.986,lexical_decision_task_DD_L5,2021.2.3,MacIntel,29.41176471,,,,,,,,,,,1.06,1,,,,,,,,,,,,,,,,,,,,,,,,-0.017777778,-0.191111111,0,0,0,,,,,,,TULIP,C,z,y,./images/TULIP.png,,,,,,,,z,1,1.06,,,,,,,,0,116,116,92,1
,,,,,,,,,,,,,,,,,200218,22,2022-01-29_10h36.57.986,lexical_decision_task_DD_L5,2021.2.3,MacIntel,29.41176471,,,,,,,,,,,0.975,1,,,,,,,,,,,,,,,,,,,,,,,,-0.017777778,-0.191111111,0,0,0,,,,,,,BRUSH,C,m,y,./images/BRUSH.png,,,,,,,,m,1,0.975,,,,,,,,0,117,117,59,1
,,,,,,,,,,,,,,,,,200218,22,2022-01-29_10h36.57.986,lexical_decision_task_DD_L5,2021.2.3,MacIntel,29.41176471,,,,,,,,,,,1.187,1,,,,,,,,,,,,,,,,,,,,,,,,-0.017777778,-0.191111111,0,0,0,,,,,,,FENCE,C,m,y,./images/FENCE.png,,,,,,,,m,1,1.187,,,,,,,,0,118,118,14,1
,,,,,,,,,,,,,,,,,200218,22,2022-01-29_10h36.57.986,lexical_decision_task_DD_L5,2021.2.3,MacIntel,29.41176471,,,,,,,,,,,0.664,1,,,,,,,,,,,,,,,,,,,,,,,,-0.017777778,-0.191111111,0,0,0,,,,,,,CANDY,HB,m,y,./images/CANDYHB.png,,,,,,,,m,1,0.664,,,,,,,,0,119,119,39,1
,,,,,,,,,,,,,,,,,200218,22,2022-01-29_10h36.57.986,lexical_decision_task_DD_L5,2021.2.3,MacIntel,29.41176471,,,,,,,,,,,0.79,1,,,,,,,,,,,,,,,,,,,,,,,,-0.017777778,-0.191111111,0,0,0,,,,,,,BELLY,LB,z,y,./images/BELLYLB.png,,,,,,,,z,1,0.79,,,,,,,,0,120,120,94,1
,,,,,,,,,,,,,,,,,200218,22,2022-01-29_10h36.57.986,lexical_decision_task_DD_L5,2021.2.3,MacIntel,29.41176471,,,,,,,,,,,2.097,1,,,,,,,,,,,,,,,,,,,,,,,,-0.017777778,-0.191111111,0,0,0,,,,,,,SPINE,C,m,y,./images/SPINE.png,,,,,,,,m,1,2.097,,,,,,,,0,121,121,65,1
,,,,,,,,,,,,,,,,,200218,22,2022-01-29_10h36.57.986,lexical_decision_task_DD_L5,2021.2.3,MacIntel,29.41176471,,,,,,,,,,,0.799,1,,,,,,,,,,,,,,,,,,,,,,,,-0.017777778,-0.191111111,0,0,0,,,,,,,SWING,LB,z,y,./images/SWINGLB.png,,,,,,,,z,1,0.799,,,,,,,,0,122,122,124,1
,,,,,,,,,,,,,,,,,200218,22,2022-01-29_10h36.57.986,lexical_decision_task_DD_L5,2021.2.3,MacIntel,29.41176471,,,,,,,,,,,0.692,1,,,,,,,,,,,,,,,,,,,,,,,,-0.017777778,-0.191111111,0,0,0,,,,,,,INFANT,LB,z,y,./images/INFANTLB.png,,,,,,,,z,1,0.692,,,,,,,,0,123,123,160,1
,,,,,,,,,,,,,,,,,200218,22,2022-01-29_10h36.57.986,lexical_decision_task_DD_L5,2021.2.3,MacIntel,29.41176471,,,,,,,,,,,1.91,1,,,,,,,,,,,,,,,,,,,,,,,,-0.017777778,-0.191111111,0,0,0,,,,,,,BOILER,HB,m,y,./images/BOILERHB.png,,,,,,,,m,1,1.91,,,,,,,,0,124,124,36,1
,,,,,,,,,,,,,,,,,200218,22,2022-01-29_10h36.57.986,lexical_decision_task_DD_L5,2021.2.3,MacIntel,29.41176471,,,,,,,,,,,0.849,1,,,,,,,,,,,,,,,,,,,,,,,,-0.017777778,-0.191111111,0,0,0,space,,,,,,ATTIC,HB,z,y,./images/ATTICHB.png,48.406,,,,,,,z,1,0.849,,,,,,,,0,125,125,111,1
,,,,,,,,,,,,,,,,,200218,22,2022-01-29_10h36.57.986,lexical_decision_task_DD_L5,2021.2.3,MacIntel,29.41176471,,,,,,,,,,,1.267,0,,,,,,,,,,,,,,,,,,,,,,,,-0.017777778,-0.191111111,0,0,0,,,,,,,CHERRY,HB,m,y,./images/CHERRYHB.png,,,,,,,,z,0,1.267,,,,,,,,0,126,126,54,1
,,,,,,,,,,,,,,,,,200218,22,2022-01-29_10h36.57.986,lexical_decision_task_DD_L5,2021.2.3,MacIntel,29.41176471,,,,,,,,,,,0.786,1,,,,,,,,,,,,,,,,,,,,,,,,-0.017777778,-0.191111111,0,0,0,,,,,,,CURRY,HB,m,y,./images/CURRYHB.png,,,,,,,,m,1,0.786,,,,,,,,0,127,127,60,1
,,,,,,,,,,,,,,,,,200218,22,2022-01-29_10h36.57.986,lexical_decision_task_DD_L5,2021.2.3,MacIntel,29.41176471,,,,,,,,,,,0.733,1,,,,,,,,,,,,,,,,,,,,,,,,-0.017777778,-0.191111111,0,0,0,,,,,,,CEMENT,C,z,y,./images/CEMENT.png,,,,,,,,z,1,0.733,,,,,,,,0,128,128,158,1
,,,,,,,,,,,,,,,,,200218,22,2022-01-29_10h36.57.986,lexical_decision_task_DD_L5,2021.2.3,MacIntel,29.41176471,,,,,,,,,,,0.993,0,,,,,,,,,,,,,,,,,,,,,,,,-0.017777778,-0.191111111,0,0,0,,,,,,,DRUMS,LB,z,y,./images/DRUMSLB.png,,,,,,,,m,0,0.993,,,,,,,,0,129,129,133,1
,,,,,,,,,,,,,,,,,200218,22,2022-01-29_10h36.57.986,lexical_decision_task_DD_L5,2021.2.3,MacIntel,29.41176471,,,,,,,,,,,1.089,0,,,,,,,,,,,,,,,,,,,,,,,,-0.017777778,-0.191111111,0,0,0,,,,,,,JUNGLE,C,z,y,./images/JUNGLE.png,,,,,,,,m,0,1.089,,,,,,,,0,130,130,167,1
,,,,,,,,,,,,,,,,,200218,22,2022-01-29_10h36.57.986,lexical_decision_task_DD_L5,2021.2.3,MacIntel,29.41176471,,,,,,,,,,,0.931,1,,,,,,,,,,,,,,,,,,,,,,,,-0.017777778,-0.191111111,0,0,0,,,,,,,SKIING,C,z,y,./images/SKIING.png,,,,,,,,z,1,0.931,,,,,,,,0,131,131,101,1
,,,,,,,,,,,,,,,,,200218,22,2022-01-29_10h36.57.986,lexical_decision_task_DD_L5,2021.2.3,MacIntel,29.41176471,,,,,,,,,,,1.361,0,,,,,,,,,,,,,,,,,,,,,,,,-0.017777778,-0.191111111,0,0,0,,,,,,,ALLEY,LB,m,y,./images/ALLEYLB.png,,,,,,,,z,0,1.361,,,,,,,,0,132,132,55,1
,,,,,,,,,,,,,,,,,200218,22,2022-01-29_10h36.57.986,lexical_decision_task_DD_L5,2021.2.3,MacIntel,29.41176471,,,,,,,,,,,1.059,1,,,,,,,,,,,,,,,,,,,,,,,,-0.017777778,-0.191111111,0,0,0,,,,,,,COUCH,C,z,y,./images/COUCH.png,,,,,,,,z,1,1.059,,,,,,,,0,133,133,161,1
,,,,,,,,,,,,,,,,,200218,22,2022-01-29_10h36.57.986,lexical_decision_task_DD_L5,2021.2.3,MacIntel,29.41176471,,,,,,,,,,,0.954,1,,,,,,,,,,,,,,,,,,,,,,,,-0.017777778,-0.191111111,0,0,0,,,,,,,BERRY,C,z,y,./images/BERRY.png,,,,,,,,z,1,0.954,,,,,,,,0,134,134,131,1
,,,,,,,,,,,,,,,,,200218,22,2022-01-29_10h36.57.986,lexical_decision_task_DD_L5,2021.2.3,MacIntel,29.41176471,,,,,,,,,,,1.281,1,,,,,,,,,,,,,,,,,,,,,,,,-0.017777778,-0.191111111,0,0,0,,,,,,,ARTIST,LB,m,y,./images/ARTISTLB.png,,,,,,,,m,1,1.281,,,,,,,,0,135,135,61,1
,,,,,,,,,,,,,,,,,200218,22,2022-01-29_10h36.57.986,lexical_decision_task_DD_L5,2021.2.3,MacIntel,29.41176471,,,,,,,,,,,1.197,1,,,,,,,,,,,,,,,,,,,,,,,,-0.017777778,-0.191111111,0,0,0,,,,,,,BARREL,C,z,y,./images/BARREL.png,,,,,,,,z,1,1.197,,,,,,,,0,136,136,116,1
,,,,,,,,,,,,,,,,,200218,22,2022-01-29_10h36.57.986,lexical_decision_task_DD_L5,2021.2.3,MacIntel,29.41176471,,,,,,,,,,,1.886,1,,,,,,,,,,,,,,,,,,,,,,,,-0.017777778,-0.191111111,0,0,0,,,,,,,GRAIN,HB,z,y,./images/GRAINHB.png,,,,,,,,z,1,1.886,,,,,,,,0,137,137,159,1
,,,,,,,,,,,,,,,,,200218,22,2022-01-29_10h36.57.986,lexical_decision_task_DD_L5,2021.2.3,MacIntel,29.41176471,,,,,,,,,,,0.959,0,,,,,,,,,,,,,,,,,,,,,,,,-0.017777778,-0.191111111,0,0,0,,,,,,,MEDAL,C,m,y,./images/MEDAL.png,,,,,,,,z,0,0.959,,,,,,,,0,138,138,11,1
,,,,,,,,,,,,,,,,,200218,22,2022-01-29_10h36.57.986,lexical_decision_task_DD_L5,2021.2.3,MacIntel,29.41176471,,,,,,,,,,,0.932,1,,,,,,,,,,,,,,,,,,,,,,,,-0.017777778,-0.191111111,0,0,0,,,,,,,ARROW,HB,m,y,./images/ARROWHB.png,,,,,,,,m,1,0.932,,,,,,,,0,139,139,69,1
,,,,,,,,,,,,,,,,,200218,22,2022-01-29_10h36.57.986,lexical_decision_task_DD_L5,2021.2.3,MacIntel,29.41176471,,,,,,,,,,,1.496,1,,,,,,,,,,,,,,,,,,,,,,,,-0.017777778,-0.191111111,0,0,0,,,,,,,MUSCLE,LB,z,y,./images/MUSCLELB.png,,,,,,,,z,1,1.496,,,,,,,,0,140,140,88,1
,,,,,,,,,,,,,,,,,200218,22,2022-01-29_10h36.57.986,lexical_decision_task_DD_L5,2021.2.3,MacIntel,29.41176471,,,,,,,,,,,1.105,1,,,,,,,,,,,,,,,,,,,,,,,,-0.017777778,-0.191111111,0,0,0,,,,,,,PEBBLE,LB,m,y,./images/PEBBLELB.png,,,,,,,,m,1,1.105,,,,,,,,0,141,141,82,1
,,,,,,,,,,,,,,,,,200218,22,2022-01-29_10h36.57.986,lexical_decision_task_DD_L5,2021.2.3,MacIntel,29.41176471,,,,,,,,,,,0.877,1,,,,,,,,,,,,,,,,,,,,,,,,-0.017777778,-0.191111111,0,0,0,,,,,,,MIRROR,HB,z,y,./images/MIRRORHB.png,,,,,,,,z,1,0.877,,,,,,,,0,142,142,147,1
,,,,,,,,,,,,,,,,,200218,22,2022-01-29_10h36.57.986,lexical_decision_task_DD_L5,2021.2.3,MacIntel,29.41176471,,,,,,,,,,,0.68,1,,,,,,,,,,,,,,,,,,,,,,,,-0.017777778,-0.191111111,0,0,0,,,,,,,HOCKEY,C,m,y,./images/HOCKEY.png,,,,,,,,m,1,0.68,,,,,,,,0,143,143,32,1
,,,,,,,,,,,,,,,,,200218,22,2022-01-29_10h36.57.986,lexical_decision_task_DD_L5,2021.2.3,MacIntel,29.41176471,,,,,,,,,,,0.679,1,,,,,,,,,,,,,,,,,,,,,,,,-0.017777778,-0.191111111,0,0,0,,,,,,,SQUARE,HB,z,y,./images/SQUAREHB.png,,,,,,,,z,1,0.679,,,,,,,,0,144,144,90,1
,,,,,,,,,,,,,,,,,200218,22,2022-01-29_10h36.57.986,lexical_decision_task_DD_L5,2021.2.3,MacIntel,29.41176471,,,,,,,,,,,1.142,0,,,,,,,,,,,,,,,,,,,,,,,,-0.017777778,-0.191111111,0,0,0,,,,,,,SAILOR,LB,z,y,./images/SAILORLB.png,,,,,,,,m,0,1.142,,,,,,,,0,145,145,151,1
,,,,,,,,,,,,,,,,,200218,22,2022-01-29_10h36.57.986,lexical_decision_task_DD_L5,2021.2.3,MacIntel,29.41176471,,,,,,,,,,,1.06,1,,,,,,,,,,,,,,,,,,,,,,,,-0.017777778,-0.191111111,0,0,0,,,,,,,KITTEN,HB,z,y,./images/KITTENHB.png,,,,,,,,z,1,1.06,,,,,,,,0,146,146,129,1
,,,,,,,,,,,,,,,,,200218,22,2022-01-29_10h36.57.986,lexical_decision_task_DD_L5,2021.2.3,MacIntel,29.41176471,,,,,,,,,,,0.813,1,,,,,,,,,,,,,,,,,,,,,,,,-0.017777778,-0.191111111,0,0,0,,,,,,,MOSQUE,LB,z,y,./images/MOSQUELB.png,,,,,,,,z,1,0.813,,,,,,,,0,147,147,127,1
,,,,,,,,,,,,,,,,,200218,22,2022-01-29_10h36.57.986,lexical_decision_task_DD_L5,2021.2.3,MacIntel,29.41176471,,,,,,,,,,,1.155,1,,,,,,,,,,,,,,,,,,,,,,,,-0.017777778,-0.191111111,0,0,0,,,,,,,SWEAT,HB,z,y,./images/SWEATHB.png,,,,,,,,z,1,1.155,,,,,,,,0,148,148,150,1
,,,,,,,,,,,,,,,,,200218,22,2022-01-29_10h36.57.986,lexical_decision_task_DD_L5,2021.2.3,MacIntel,29.41176471,,,,,,,,,,,0.793,1,,,,,,,,,,,,,,,,,,,,,,,,-0.017777778,-0.191111111,0,0,0,,,,,,,TWINS,HB,z,y,./images/TWINSHB.png,,,,,,,,z,1,0.793,,,,,,,,0,149,149,144,1
,,,,,,,,,,,,,,,,,200218,22,2022-01-29_10h36.57.986,lexical_decision_task_DD_L5,2021.2.3,MacIntel,29.41176471,,,,,,,,,,,0.783,1,,,,,,,,,,,,,,,,,,,,,,,,-0.017777778,-0.191111111,0,0,0,,,,,,,QUILL,LB,z,y,./images/QUILLLB.png,,,,,,,,z,1,0.783,,,,,,,,0,150,150,115,1
,,,,,,,,,,,,,,,,,200218,22,2022-01-29_10h36.57.986,lexical_decision_task_DD_L5,2021.2.3,MacIntel,29.41176471,,,,,,,,,,,0.553,1,,,,,,,,,,,,,,,,,,,,,,,,-0.017777778,-0.191111111,0,0,0,,,,,,,HAMMER,HB,m,y,./images/HAMMERHB.png,,,,,,,,m,1,0.553,,,,,,,,0,151,151,75,1
,,,,,,,,,,,,,,,,,200218,22,2022-01-29_10h36.57.986,lexical_decision_task_DD_L5,2021.2.3,MacIntel,29.41176471,,,,,,,,,,,0.58,1,,,,,,,,,,,,,,,,,,,,,,,,-0.017777778,-0.191111111,0,0,0,,,,,,,HEATER,C,m,y,./images/HEATER.png,,,,,,,,m,1,0.58,,,,,,,,0,152,152,56,1
,,,,,,,,,,,,,,,,,200218,22,2022-01-29_10h36.57.986,lexical_decision_task_DD_L5,2021.2.3,MacIntel,29.41176471,,,,,,,,,,,0.927,1,,,,,,,,,,,,,,,,,,,,,,,,-0.017777778,-0.191111111,0,0,0,,,,,,,PARCEL,HB,m,y,./images/PARCELHB.png,,,,,,,,m,1,0.927,,,,,,,,0,153,153,18,1
,,,,,,,,,,,,,,,,,200218,22,2022-01-29_10h36.57.986,lexical_decision_task_DD_L5,2021.2.3,MacIntel,29.41176471,,,,,,,,,,,0.698,1,,,,,,,,,,,,,,,,,,,,,,,,-0.017777778,-0.191111111,0,0,0,,,,,,,GREASE,HB,z,y,./images/GREASEHB.png,,,,,,,,z,1,0.698,,,,,,,,0,154,154,99,1
,,,,,,,,,,,,,,,,,200218,22,2022-01-29_10h36.57.986,lexical_decision_task_DD_L5,2021.2.3,MacIntel,29.41176471,,,,,,,,,,,0.822,1,,,,,,,,,,,,,,,,,,,,,,,,-0.017777778,-0.191111111,0,0,0,,,,,,,MIDGET,LB,m,y,./images/MIDGETLB.png,,,,,,,,m,1,0.822,,,,,,,,0,155,155,76,1
,,,,,,,,,,,,,,,,,200218,22,2022-01-29_10h36.57.986,lexical_decision_task_DD_L5,2021.2.3,MacIntel,29.41176471,,,,,,,,,,,0.726,1,,,,,,,,,,,,,,,,,,,,,,,,-0.017777778,-0.191111111,0,0,0,,,,,,,URINE,LB,z,y,./images/URINELB.png,,,,,,,,z,1,0.726,,,,,,,,0,156,156,154,1
,,,,,,,,,,,,,,,,,200218,22,2022-01-29_10h36.57.986,lexical_decision_task_DD_L5,2021.2.3,MacIntel,29.41176471,,,,,,,,,,,0.863,1,,,,,,,,,,,,,,,,,,,,,,,,-0.017777778,-0.191111111,0,0,0,,,,,,,FINGER,HB,z,y,./images/FINGERHB.png,,,,,,,,z,1,0.863,,,,,,,,0,157,157,87,1
,,,,,,,,,,,,,,,,,200218,22,2022-01-29_10h36.57.986,lexical_decision_task_DD_L5,2021.2.3,MacIntel,29.41176471,,,,,,,,,,,1.23,1,,,,,,,,,,,,,,,,,,,,,,,,-0.017777778,-0.191111111,0,0,0,,,,,,,MOTOR,LB,z,y,./images/MOTORLB.png,,,,,,,,z,1,1.23,,,,,,,,0,158,158,97,1
,,,,,,,,,,,,,,,,,200218,22,2022-01-29_10h36.57.986,lexical_decision_task_DD_L5,2021.2.3,MacIntel,29.41176471,,,,,,,,,,,1.012,1,,,,,,,,,,,,,,,,,,,,,,,,-0.017777778,-0.191111111,0,0,0,,,,,,,FOLDER,HB,z,y,./images/FOLDERHB.png,,,,,,,,z,1,1.012,,,,,,,,0,159,159,126,1
,,,,,,,,,,,,,,,,,200218,22,2022-01-29_10h36.57.986,lexical_decision_task_DD_L5,2021.2.3,MacIntel,29.41176471,,,,,,,,,,,0.731,1,,,,,,,,,,,,,,,,,,,,,,,,-0.017777778,-0.191111111,0,0,0,,,,,,,ENGINE,C,m,y,./images/ENGINE.png,,,,,,,,m,1,0.731,,,,,,,,0,160,160,38,1
,,,,,,,,,,,,,,,,,200218,22,2022-01-29_10h36.57.986,lexical_decision_task_DD_L5,2021.2.3,MacIntel,29.41176471,,,,,,,,,,,0.998,1,,,,,,,,,,,,,,,,,,,,,,,,-0.017777778,-0.191111111,0,0,0,,,,,,,WEASEL,C,z,y,./images/WEASEL.png,,,,,,,,z,1,0.998,,,,,,,,0,161,161,164,1
,,,,,,,,,,,,,,,,,200218,22,2022-01-29_10h36.57.986,lexical_decision_task_DD_L5,2021.2.3,MacIntel,29.41176471,,,,,,,,,,,0.758,1,,,,,,,,,,,,,,,,,,,,,,,,-0.017777778,-0.191111111,0,0,0,,,,,,,VALLEY,C,m,y,./images/VALLEY.png,,,,,,,,m,1,0.758,,,,,,,,0,162,162,68,1
,,,,,,,,,,,,,,,,,200218,22,2022-01-29_10h36.57.986,lexical_decision_task_DD_L5,2021.2.3,MacIntel,29.41176471,,,,,,,,,,,1.137,0,,,,,,,,,,,,,,,,,,,,,,,,-0.017777778,-0.191111111,0,0,0,,,,,,,GLOVE,LB,m,y,./images/GLOVELB.png,,,,,,,,z,0,1.137,,,,,,,,0,163,163,73,1
,,,,,,,,,,,,,,,,,200218,22,2022-01-29_10h36.57.986,lexical_decision_task_DD_L5,2021.2.3,MacIntel,29.41176471,,,,,,,,,,,1.288,1,,,,,,,,,,,,,,,,,,,,,,,,-0.017777778,-0.191111111,0,0,0,,,,,,,CARPET,C,z,y,./images/CARPET.png,,,,,,,,z,1,1.288,,,,,,,,0,164,164,137,1
,,,,,,,,,,,,,,,,,200218,22,2022-01-29_10h36.57.986,lexical_decision_task_DD_L5,2021.2.3,MacIntel,29.41176471,,,,,,,,,,,0.814,1,,,,,,,,,,,,,,,,,,,,,,,,-0.017777778,-0.191111111,0,0,0,,,,,,,PICKLE,C,z,y,./images/PICKLE.png,,,,,,,,z,1,0.814,,,,,,,,0,165,165,98,1
,,,,,,,,,,,,,,,,,200218,22,2022-01-29_10h36.57.986,lexical_decision_task_DD_L5,2021.2.3,MacIntel,29.41176471,,,,,,,,,,,0.867,1,,,,,,,,,,,,,,,,,,,,,,,,-0.017777778,-0.191111111,0,0,0,,,,,,,BAKER,HB,m,y,./images/BAKERHB.png,,,,,,,,m,1,0.867,,,,,,,,0,166,166,63,1
,,,,,,,,,,,,,,,,,200218,22,2022-01-29_10h36.57.986,lexical_decision_task_DD_L5,2021.2.3,MacIntel,29.41176471,,,,,,,,,,,0.764,1,,,,,,,,,,,,,,,,,,,,,,,,-0.017777778,-0.191111111,0,0,0,,,,,,,SAUNA,HB,m,y,./images/SAUNAHB.png,,,,,,,,m,1,0.764,,,,,,,,0,167,167,33,1
