key_resp.keys,key_resp.rt,instr_done_touch.x,instr_done_touch.y,instr_done_touch.leftButton,instr_done_touch.midButton,instr_done_touch.rightButton,instruction_pages.thisRepN,instruction_pages.thisTrialN,instruction_pages.thisN,instruction_pages.thisIndex,instruction_pages.ran,pageN,phase,instruct_text,has_image,instruct_image,participant,age,date,expName,psychopyVersion,OS,frameRate,response.keys,response.corr,response.rt,touch_resp.x,touch_resp.y,touch_resp.leftButton,touch_resp.midButton,touch_resp.rightButton,touch_resp.time,touch_resp.clicked_name,rt,corr,practrials.thisRepN,practrials.thisTrialN,practrials.thisN,practrials.thisIndex,practrials.ran,TrialID,Target,corrAns,end_of_practice_trials_pages.thisRepN,end_of_practice_trials_pages.thisTrialN,end_of_practice_trials_pages.thisN,end_of_practice_trials_pages.thisIndex,end_of_practice_trials_pages.ran,key_resp_2.keys,key_resp_2.corr,key_resp_2.rt,targ_click.x,targ_click.y,targ_click.leftButton,targ_click.midButton,targ_click.rightButton,targ_click.time,targ_click.clicked_name,break_done_touch.x,break_done_touch.y,break_done_touch.leftButton,break_done_touch.midButton,break_done_touch.rightButton,break_done_keyboard.keys,maintrials.thisRepN,maintrials.thisTrialN,maintrials.thisN,maintrials.thisIndex,maintrials.ran,string,blur,study,lex,stim_path,break_done_keyboard.rt,test_instructions.thisRepN,test_instructions.thisTrialN,test_instructions.thisN,test_instructions.thisIndex,test_instructions.ran,instr_done_touch.clicked_name,key_resp_3.keys,key_resp_3.corr,key_resp_3.rt,test_click.x,test_click.y,test_click.leftButton,test_click.midButton,test_click.rightButton,test_click.time,test_click.clicked_name,test_phase.thisRepN,test_phase.thisTrialN,test_phase.thisN,test_phase.thisIndex,test_phase.ran
space,49.169,0.069865451,-0.395902778,0,0,0,0,0,0,0,1,1,instructions,"INSTRUCTIONS
At the start of each trial, look at the plus sign  (+) in the center of the screen.  This tells you that a trial is about to begin and where to look. Second, the plus sign will disappear and a string of letters will appear. Your task is to determine if the string of letters is a word or not. If the item is a word press the M key (on keyboard)  or touch the word button (phone/tablet).  If the item is not a word,  press the  Z key (on keyboard)  or touch the nonword button (on phone/tablet). 
Press the space bar or touch  continue.",0,,200398,18,2022-01-28_23h37.43.902,lexical_decision_task_DD_L5,2021.2.3,MacIntel,60.0024001,,,,,,,,,,,,,,,,,,,,,,,,,,,,,,,,,,,,,,,,,,,,,,,,,,,,,,,,,,,,,,,,,,,,,,,,,
space,7.8578,0.069865451,-0.395902778,0,0,0,0,1,1,1,1,2,instructions,"If your device has a keyboard, press the 'Z' key for nonwords and the 'M' key for words.





Press the space bar or touch the button below to continue.",0,keyboard-example.gif,200398,18,2022-01-28_23h37.43.902,lexical_decision_task_DD_L5,2021.2.3,MacIntel,60.0024001,,,,,,,,,,,,,,,,,,,,,,,,,,,,,,,,,,,,,,,,,,,,,,,,,,,,,,,,,,,,,,,,,,,,,,,,,
space,4.6804,0.069865451,-0.395902778,0,0,0,0,2,2,2,1,3,instructions,"If you are using a touchscreen only device, use the buttons on the screen. Do not use the mouse.





Press the space bar or touch the button below to continue.",0,touchscreen-example.gif,200398,18,2022-01-28_23h37.43.902,lexical_decision_task_DD_L5,2021.2.3,MacIntel,60.0024001,,,,,,,,,,,,,,,,,,,,,,,,,,,,,,,,,,,,,,,,,,,,,,,,,,,,,,,,,,,,,,,,,,,,,,,,,
space,17.2158,0.069865451,-0.395902778,0,0,0,0,3,3,3,1,4,instructions,"It is very important that you respond as quickly and accurately as possible, as each letter string will only be on the screen for two seconds. If you do not respond within this time, the message 'Too slow!' will be displayed and the experiment will progress to the next letter string. The first 20 trials will be practice trials and you will receive feedback on your answers. 

Press the space bar or touch the button below to start the practice trials.",0,,200398,18,2022-01-28_23h37.43.902,lexical_decision_task_DD_L5,2021.2.3,MacIntel,60.0024001,,,,,,,,,,,,,,,,,,,,,,,,,,,,,,,,,,,,,,,,,,,,,,,,,,,,,,,,,,,,,,,,,,,,,,,,,
,,,,,,,,,,,,,,,,,200398,18,2022-01-28_23h37.43.902,lexical_decision_task_DD_L5,2021.2.3,MacIntel,60.0024001,m,1,2.9919,,,,,,,,2.9919,1,0,0,0,0,1,1001,UTOPIA,m,,,,,,,,,,,,,,,,,,,,,,,,,,,,,,,,,,,,,,,,,,,,,,,,,,,,,
,,,,,,,,,,,,,,,,,200398,18,2022-01-28_23h37.43.902,lexical_decision_task_DD_L5,2021.2.3,MacIntel,60.0024001,z,1,1.8384,,,,,,,,1.8384,1,0,1,1,10,1,1001,INLADE,z,,,,,,,,,,,,,,,,,,,,,,,,,,,,,,,,,,,,,,,,,,,,,,,,,,,,,
,,,,,,,,,,,,,,,,,200398,18,2022-01-28_23h37.43.902,lexical_decision_task_DD_L5,2021.2.3,MacIntel,60.0024001,z,1,1.2753,,,,,,,,1.2753,1,0,2,2,12,1,1001,SPRINY,z,,,,,,,,,,,,,,,,,,,,,,,,,,,,,,,,,,,,,,,,,,,,,,,,,,,,,
,,,,,,,,,,,,,,,,,200398,18,2022-01-28_23h37.43.902,lexical_decision_task_DD_L5,2021.2.3,MacIntel,60.0024001,m,1,0.9456,,,,,,,,0.9456,1,0,3,3,6,1,1001,ZOMBIE,m,,,,,,,,,,,,,,,,,,,,,,,,,,,,,,,,,,,,,,,,,,,,,,,,,,,,,
,,,,,,,,,,,,,,,,,200398,18,2022-01-28_23h37.43.902,lexical_decision_task_DD_L5,2021.2.3,MacIntel,60.0024001,z,1,0.9971,,,,,,,,0.9971,1,0,4,4,9,1,1001,FARINY,z,,,,,,,,,,,,,,,,,,,,,,,,,,,,,,,,,,,,,,,,,,,,,,,,,,,,,
,,,,,,,,,,,,,,,,,200398,18,2022-01-28_23h37.43.902,lexical_decision_task_DD_L5,2021.2.3,MacIntel,60.0024001,m,1,0.7163,,,,,,,,0.7163,1,0,5,5,4,1,1001,SQUEAK,m,,,,,,,,,,,,,,,,,,,,,,,,,,,,,,,,,,,,,,,,,,,,,,,,,,,,,
,,,,,,,,,,,,,,,,,200398,18,2022-01-28_23h37.43.902,lexical_decision_task_DD_L5,2021.2.3,MacIntel,60.0024001,z,1,1.0721,,,,,,,,1.0721,1,0,6,6,14,1,1001,THRALE,z,,,,,,,,,,,,,,,,,,,,,,,,,,,,,,,,,,,,,,,,,,,,,,,,,,,,,
,,,,,,,,,,,,,,,,,200398,18,2022-01-28_23h37.43.902,lexical_decision_task_DD_L5,2021.2.3,MacIntel,60.0024001,m,1,0.8368,,,,,,,,0.8368,1,0,7,7,2,1,1001,ALMOND,m,,,,,,,,,,,,,,,,,,,,,,,,,,,,,,,,,,,,,,,,,,,,,,,,,,,,,
,,,,,,,,,,,,,,,,,200398,18,2022-01-28_23h37.43.902,lexical_decision_task_DD_L5,2021.2.3,MacIntel,60.0024001,z,1,0.9072,,,,,,,,0.9072,1,0,8,8,13,1,1001,ROUPET,z,,,,,,,,,,,,,,,,,,,,,,,,,,,,,,,,,,,,,,,,,,,,,,,,,,,,,
,,,,,,,,,,,,,,,,,200398,18,2022-01-28_23h37.43.902,lexical_decision_task_DD_L5,2021.2.3,MacIntel,60.0024001,m,1,0.6679,,,,,,,,0.6679,1,0,9,9,5,1,1001,OBTAIN,m,,,,,,,,,,,,,,,,,,,,,,,,,,,,,,,,,,,,,,,,,,,,,,,,,,,,,
,,,,,,,,,,,,,,,,,200398,18,2022-01-28_23h37.43.902,lexical_decision_task_DD_L5,2021.2.3,MacIntel,60.0024001,m,1,0.5727,,,,,,,,0.5727,1,0,10,10,1,1,1001,ADJUST,m,,,,,,,,,,,,,,,,,,,,,,,,,,,,,,,,,,,,,,,,,,,,,,,,,,,,,
,,,,,,,,,,,,,,,,,200398,18,2022-01-28_23h37.43.902,lexical_decision_task_DD_L5,2021.2.3,MacIntel,60.0024001,z,1,0.8226,,,,,,,,0.8226,1,0,11,11,15,1,1001,WHAISE,z,,,,,,,,,,,,,,,,,,,,,,,,,,,,,,,,,,,,,,,,,,,,,,,,,,,,,
,,,,,,,,,,,,,,,,,200398,18,2022-01-28_23h37.43.902,lexical_decision_task_DD_L5,2021.2.3,MacIntel,60.0024001,z,1,0.8879,,,,,,,,0.8879,1,0,12,12,8,1,1001,ASLERT,z,,,,,,,,,,,,,,,,,,,,,,,,,,,,,,,,,,,,,,,,,,,,,,,,,,,,,
,,,,,,,,,,,,,,,,,200398,18,2022-01-28_23h37.43.902,lexical_decision_task_DD_L5,2021.2.3,MacIntel,60.0024001,m,1,0.6504,,,,,,,,0.6504,1,0,13,13,3,1,1001,MATRIX,m,,,,,,,,,,,,,,,,,,,,,,,,,,,,,,,,,,,,,,,,,,,,,,,,,,,,,
,,,,,,,,,,,,,,,,,200398,18,2022-01-28_23h37.43.902,lexical_decision_task_DD_L5,2021.2.3,MacIntel,60.0024001,z,1,0.7015,,,,,,,,0.7015,1,0,14,14,11,1,1001,RASHET,z,,,,,,,,,,,,,,,,,,,,,,,,,,,,,,,,,,,,,,,,,,,,,,,,,,,,,
,,,,,,,,,,,,,,,,,200398,18,2022-01-28_23h37.43.902,lexical_decision_task_DD_L5,2021.2.3,MacIntel,60.0024001,m,1,0.5575,,,,,,,,0.5575,1,0,15,15,7,1,1001,VOLUME,m,,,,,,,,,,,,,,,,,,,,,,,,,,,,,,,,,,,,,,,,,,,,,,,,,,,,,
space,46.3061,0.069865451,-0.395902778,0,0,0,,,,,,1,end_of_practice,"You have completed the practice trials. During the experimental trials, you will not receive feedback. 
Before you begin, please ensure that you are in a comfortable and quiet location and will not be disturbed for about 15 minutes, as we cannot use your data if you do not complete all the trials. 
 When you are ready to start the experimental trials, please press space or touch the button below.",,,200398,18,2022-01-28_23h37.43.902,lexical_decision_task_DD_L5,2021.2.3,MacIntel,60.0024001,,,,,,,,,,,,,,,,,,,,,0,0,0,0,1,,,,,,,,,,,,,,,,,,,,,,,,,,,,,,,,,,,,,,,,,,,,,,,,
,,,,,,,,,,,,,,,,,200398,18,2022-01-28_23h37.43.902,lexical_decision_task_DD_L5,2021.2.3,MacIntel,60.0024001,,,,,,,,,,,2.2308,1,,,,,,,,,,,,,,m,1,2.2308,,,,,,,,0.069865451,-0.395902778,0,0,0,,0,0,0,51,1,SAUCE,HB,old,m,./images/SAUCEHB.png,,,,,,,,,,,,,,,,,,,,,,
,,,,,,,,,,,,,,,,,200398,18,2022-01-28_23h37.43.902,lexical_decision_task_DD_L5,2021.2.3,MacIntel,60.0024001,,,,,,,,,,,1.1302,1,,,,,,,,,,,,,,z,1,1.1302,,,,,,,,0.069865451,-0.395902778,0,0,0,,0,1,1,128,1,GRIFT,LB,old,z,./images/GRIFTLB.png,,,,,,,,,,,,,,,,,,,,,,
,,,,,,,,,,,,,,,,,200398,18,2022-01-28_23h37.43.902,lexical_decision_task_DD_L5,2021.2.3,MacIntel,60.0024001,,,,,,,,,,,1.2808,0,,,,,,,,,,,,,,m,0,1.2808,,,,,,,,0.069865451,-0.395902778,0,0,0,,0,2,2,109,1,BURGE,HB,old,z,./images/BURGEHB.png,,,,,,,,,,,,,,,,,,,,,,
,,,,,,,,,,,,,,,,,200398,18,2022-01-28_23h37.43.902,lexical_decision_task_DD_L5,2021.2.3,MacIntel,60.0024001,,,,,,,,,,,0.8416,1,,,,,,,,,,,,,,m,1,0.8416,,,,,,,,0.069865451,-0.395902778,0,0,0,,0,3,3,80,1,PLANET,C,old,m,./images/PLANET.png,,,,,,,,,,,,,,,,,,,,,,
,,,,,,,,,,,,,,,,,200398,18,2022-01-28_23h37.43.902,lexical_decision_task_DD_L5,2021.2.3,MacIntel,60.0024001,,,,,,,,,,,1.1194,0,,,,,,,,,,,,,,m,0,1.1194,,,,,,,,0.069865451,-0.395902778,0,0,0,,0,4,4,110,1,CRUNK,LB,old,z,./images/CRUNKLB.png,,,,,,,,,,,,,,,,,,,,,,
,,,,,,,,,,,,,,,,,200398,18,2022-01-28_23h37.43.902,lexical_decision_task_DD_L5,2021.2.3,MacIntel,60.0024001,,,,,,,,,,,0.8493,1,,,,,,,,,,,,,,m,1,0.8493,,,,,,,,0.069865451,-0.395902778,0,0,0,,0,5,5,67,1,POKER,LB,old,m,./images/POKERLB.png,,,,,,,,,,,,,,,,,,,,,,
,,,,,,,,,,,,,,,,,200398,18,2022-01-28_23h37.43.902,lexical_decision_task_DD_L5,2021.2.3,MacIntel,60.0024001,,,,,,,,,,,0.8893,1,,,,,,,,,,,,,,m,1,0.8893,,,,,,,,0.069865451,-0.395902778,0,0,0,,0,6,6,79,1,RULER,LB,old,m,./images/RULERLB.png,,,,,,,,,,,,,,,,,,,,,,
,,,,,,,,,,,,,,,,,200398,18,2022-01-28_23h37.43.902,lexical_decision_task_DD_L5,2021.2.3,MacIntel,60.0024001,,,,,,,,,,,0.9156,1,,,,,,,,,,,,,,z,1,0.9156,,,,,,,,0.069865451,-0.395902778,0,0,0,,0,7,7,152,1,FRAIN,LB,old,z,./images/FRAINLB.png,,,,,,,,,,,,,,,,,,,,,,
,,,,,,,,,,,,,,,,,200398,18,2022-01-28_23h37.43.902,lexical_decision_task_DD_L5,2021.2.3,MacIntel,60.0024001,,,,,,,,,,,0.9715,1,,,,,,,,,,,,,,m,1,0.9715,,,,,,,,0.069865451,-0.395902778,0,0,0,,0,8,8,34,1,RAZOR,LB,old,m,./images/RAZORLB.png,,,,,,,,,,,,,,,,,,,,,,
,,,,,,,,,,,,,,,,,200398,18,2022-01-28_23h37.43.902,lexical_decision_task_DD_L5,2021.2.3,MacIntel,60.0024001,,,,,,,,,,,0.699,1,,,,,,,,,,,,,,m,1,0.699,,,,,,,,0.069865451,-0.395902778,0,0,0,,0,9,9,5,1,BAMBOO,C,old,m,./images/BAMBOO.png,,,,,,,,,,,,,,,,,,,,,,
,,,,,,,,,,,,,,,,,200398,18,2022-01-28_23h37.43.902,lexical_decision_task_DD_L5,2021.2.3,MacIntel,60.0024001,,,,,,,,,,,0.7595,1,,,,,,,,,,,,,,m,1,0.7595,,,,,,,,0.069865451,-0.395902778,0,0,0,,0,10,10,4,1,BOXER,LB,old,m,./images/BOXERLB.png,,,,,,,,,,,,,,,,,,,,,,
,,,,,,,,,,,,,,,,,200398,18,2022-01-28_23h37.43.902,lexical_decision_task_DD_L5,2021.2.3,MacIntel,60.0024001,,,,,,,,,,,0.5849,1,,,,,,,,,,,,,,m,1,0.5849,,,,,,,,0.069865451,-0.395902778,0,0,0,,0,11,11,65,1,SPINE,C,old,m,./images/SPINE.png,,,,,,,,,,,,,,,,,,,,,,
,,,,,,,,,,,,,,,,,200398,18,2022-01-28_23h37.43.902,lexical_decision_task_DD_L5,2021.2.3,MacIntel,60.0024001,,,,,,,,,,,0.5848,1,,,,,,,,,,,,,,m,1,0.5848,,,,,,,,0.069865451,-0.395902778,0,0,0,,0,12,12,83,1,WHISKY,C,old,m,./images/WHISKY.png,,,,,,,,,,,,,,,,,,,,,,
,,,,,,,,,,,,,,,,,200398,18,2022-01-28_23h37.43.902,lexical_decision_task_DD_L5,2021.2.3,MacIntel,60.0024001,,,,,,,,,,,1.0092,1,,,,,,,,,,,,,,m,1,1.0092,,,,,,,,0.069865451,-0.395902778,0,0,0,,0,13,13,35,1,LLAMA,C,old,m,./images/LLAMA.png,,,,,,,,,,,,,,,,,,,,,,
,,,,,,,,,,,,,,,,,200398,18,2022-01-28_23h37.43.902,lexical_decision_task_DD_L5,2021.2.3,MacIntel,60.0024001,,,,,,,,,,,0.7527,1,,,,,,,,,,,,,,m,1,0.7527,,,,,,,,0.069865451,-0.395902778,0,0,0,,0,14,14,61,1,ARTIST,LB,old,m,./images/ARTISTLB.png,,,,,,,,,,,,,,,,,,,,,,
,,,,,,,,,,,,,,,,,200398,18,2022-01-28_23h37.43.902,lexical_decision_task_DD_L5,2021.2.3,MacIntel,60.0024001,,,,,,,,,,,1.1602,1,,,,,,,,,,,,,,m,1,1.1602,,,,,,,,0.069865451,-0.395902778,0,0,0,,0,15,15,12,1,BLOKE,HB,old,m,./images/BLOKEHB.png,,,,,,,,,,,,,,,,,,,,,,
,,,,,,,,,,,,,,,,,200398,18,2022-01-28_23h37.43.902,lexical_decision_task_DD_L5,2021.2.3,MacIntel,60.0024001,,,,,,,,,,,0.6382,1,,,,,,,,,,,,,,m,1,0.6382,,,,,,,,0.069865451,-0.395902778,0,0,0,,0,16,16,26,1,CLOUD,C,old,m,./images/CLOUD.png,,,,,,,,,,,,,,,,,,,,,,
,,,,,,,,,,,,,,,,,200398,18,2022-01-28_23h37.43.902,lexical_decision_task_DD_L5,2021.2.3,MacIntel,60.0024001,,,,,,,,,,,0.6952,1,,,,,,,,,,,,,,m,1,0.6952,,,,,,,,0.069865451,-0.395902778,0,0,0,,0,17,17,47,1,LAGOON,C,old,m,./images/LAGOON.png,,,,,,,,,,,,,,,,,,,,,,
,,,,,,,,,,,,,,,,,200398,18,2022-01-28_23h37.43.902,lexical_decision_task_DD_L5,2021.2.3,MacIntel,60.0024001,,,,,,,,,,,0.8508,0,,,,,,,,,,,,,,m,0,0.8508,,,,,,,,0.069865451,-0.395902778,0,0,0,,0,18,18,88,1,GLUSH,HB,old,z,./images/GLUSHHB.png,,,,,,,,,,,,,,,,,,,,,,
,,,,,,,,,,,,,,,,,200398,18,2022-01-28_23h37.43.902,lexical_decision_task_DD_L5,2021.2.3,MacIntel,60.0024001,,,,,,,,,,,0.933,1,,,,,,,,,,,,,,z,1,0.933,,,,,,,,0.069865451,-0.395902778,0,0,0,,0,19,19,162,1,LEICH,C,old,z,./images/LEICH.png,,,,,,,,,,,,,,,,,,,,,,
,,,,,,,,,,,,,,,,,200398,18,2022-01-28_23h37.43.902,lexical_decision_task_DD_L5,2021.2.3,MacIntel,60.0024001,,,,,,,,,,,0.9177,1,,,,,,,,,,,,,,z,1,0.9177,,,,,,,,0.069865451,-0.395902778,0,0,0,,0,20,20,148,1,JOMS,HB,old,z,./images/JOMSHB.png,,,,,,,,,,,,,,,,,,,,,,
,,,,,,,,,,,,,,,,,200398,18,2022-01-28_23h37.43.902,lexical_decision_task_DD_L5,2021.2.3,MacIntel,60.0024001,,,,,,,,,,,0.7223,1,,,,,,,,,,,,,,m,1,0.7223,,,,,,,,0.069865451,-0.395902778,0,0,0,,0,21,21,7,1,WAGON,LB,old,m,./images/WAGONLB.png,,,,,,,,,,,,,,,,,,,,,,
,,,,,,,,,,,,,,,,,200398,18,2022-01-28_23h37.43.902,lexical_decision_task_DD_L5,2021.2.3,MacIntel,60.0024001,,,,,,,,,,,0.9141,0,,,,,,,,,,,,,,z,0,0.9141,,,,,,,,0.069865451,-0.395902778,0,0,0,,0,22,22,3,1,CRATER,HB,old,m,./images/CRATERHB.png,,,,,,,,,,,,,,,,,,,,,,
,,,,,,,,,,,,,,,,,200398,18,2022-01-28_23h37.43.902,lexical_decision_task_DD_L5,2021.2.3,MacIntel,60.0024001,,,,,,,,,,,1.4175,0,,,,,,,,,,,,,,m,0,1.4175,,,,,,,,0.069865451,-0.395902778,0,0,0,,0,23,23,154,1,THINT,HB,old,z,./images/THINTHB.png,,,,,,,,,,,,,,,,,,,,,,
,,,,,,,,,,,,,,,,,200398,18,2022-01-28_23h37.43.902,lexical_decision_task_DD_L5,2021.2.3,MacIntel,60.0024001,,,,,,,,,,,1.6074,1,,,,,,,,,,,,,,z,1,1.6074,,,,,,,,0.069865451,-0.395902778,0,0,0,,0,24,24,100,1,DRIBS,HB,old,z,./images/DRIBSHB.png,,,,,,,,,,,,,,,,,,,,,,
,,,,,,,,,,,,,,,,,200398,18,2022-01-28_23h37.43.902,lexical_decision_task_DD_L5,2021.2.3,MacIntel,60.0024001,,,,,,,,,,,1.2316,1,,,,,,,,,,,,,,z,1,1.2316,,,,,,,,0.069865451,-0.395902778,0,0,0,,0,25,25,101,1,GLEET,LB,old,z,./images/GLEETLB.png,,,,,,,,,,,,,,,,,,,,,,
,,,,,,,,,,,,,,,,,200398,18,2022-01-28_23h37.43.902,lexical_decision_task_DD_L5,2021.2.3,MacIntel,60.0024001,,,,,,,,,,,1.1029,1,,,,,,,,,,,,,,z,1,1.1029,,,,,,,,0.069865451,-0.395902778,0,0,0,,0,26,26,120,1,RINED,C,old,z,./images/RINED.png,,,,,,,,,,,,,,,,,,,,,,
,,,,,,,,,,,,,,,,,200398,18,2022-01-28_23h37.43.902,lexical_decision_task_DD_L5,2021.2.3,MacIntel,60.0024001,,,,,,,,,,,0.6739,1,,,,,,,,,,,,,,m,1,0.6739,,,,,,,,0.069865451,-0.395902778,0,0,0,,0,27,27,50,1,PILOT,C,old,m,./images/PILOT.png,,,,,,,,,,,,,,,,,,,,,,
,,,,,,,,,,,,,,,,,200398,18,2022-01-28_23h37.43.902,lexical_decision_task_DD_L5,2021.2.3,MacIntel,60.0024001,,,,,,,,,,,0.6389,1,,,,,,,,,,,,,,m,1,0.6389,,,,,,,,0.069865451,-0.395902778,0,0,0,,0,28,28,77,1,WHEEL,C,old,m,./images/WHEEL.png,,,,,,,,,,,,,,,,,,,,,,
,,,,,,,,,,,,,,,,,200398,18,2022-01-28_23h37.43.902,lexical_decision_task_DD_L5,2021.2.3,MacIntel,60.0024001,,,,,,,,,,,0.9437,1,,,,,,,,,,,,,,m,1,0.9437,,,,,,,,0.069865451,-0.395902778,0,0,0,,0,29,29,14,1,FENCE,C,old,m,./images/FENCE.png,,,,,,,,,,,,,,,,,,,,,,
,,,,,,,,,,,,,,,,,200398,18,2022-01-28_23h37.43.902,lexical_decision_task_DD_L5,2021.2.3,MacIntel,60.0024001,,,,,,,,,,,0.8108,1,,,,,,,,,,,,,,z,1,0.8108,,,,,,,,0.069865451,-0.395902778,0,0,0,,0,30,30,149,1,VEASE,LB,old,z,./images/VEASELB.png,,,,,,,,,,,,,,,,,,,,,,
,,,,,,,,,,,,,,,,,200398,18,2022-01-28_23h37.43.902,lexical_decision_task_DD_L5,2021.2.3,MacIntel,60.0024001,,,,,,,,,,,0.9838,1,,,,,,,,,,,,,,z,1,0.9838,,,,,,,,0.069865451,-0.395902778,0,0,0,,0,31,31,92,1,PAIMS,LB,old,z,./images/PAIMSLB.png,,,,,,,,,,,,,,,,,,,,,,
,,,,,,,,,,,,,,,,,200398,18,2022-01-28_23h37.43.902,lexical_decision_task_DD_L5,2021.2.3,MacIntel,60.0024001,,,,,,,,,,,0.7067,1,,,,,,,,,,,,,,m,1,0.7067,,,,,,,,0.069865451,-0.395902778,0,0,0,,0,32,32,62,1,MAMMAL,C,old,m,./images/MAMMAL.png,,,,,,,,,,,,,,,,,,,,,,
,,,,,,,,,,,,,,,,,200398,18,2022-01-28_23h37.43.902,lexical_decision_task_DD_L5,2021.2.3,MacIntel,60.0024001,,,,,,,,,,,0.7549,1,,,,,,,,,,,,,,z,1,0.7549,,,,,,,,0.069865451,-0.395902778,0,0,0,,0,33,33,105,1,MOKER,C,old,z,./images/MOKER.png,,,,,,,,,,,,,,,,,,,,,,
,,,,,,,,,,,,,,,,,200398,18,2022-01-28_23h37.43.902,lexical_decision_task_DD_L5,2021.2.3,MacIntel,60.0024001,,,,,,,,,,,1.0146,1,,,,,,,,,,,,,,z,1,1.0146,,,,,,,,0.069865451,-0.395902778,0,0,0,,0,34,34,122,1,BLOOT,LB,old,z,./images/BLOOTLB.png,,,,,,,,,,,,,,,,,,,,,,
,,,,,,,,,,,,,,,,,200398,18,2022-01-28_23h37.43.902,lexical_decision_task_DD_L5,2021.2.3,MacIntel,60.0024001,,,,,,,,,,,0.8449,1,,,,,,,,,,,,,,z,1,0.8449,,,,,,,,0.069865451,-0.395902778,0,0,0,,0,35,35,141,1,PLEET,C,old,z,./images/PLEET.png,,,,,,,,,,,,,,,,,,,,,,
,,,,,,,,,,,,,,,,,200398,18,2022-01-28_23h37.43.902,lexical_decision_task_DD_L5,2021.2.3,MacIntel,60.0024001,,,,,,,,,,,1.102,0,,,,,,,,,,,,,,m,0,1.102,,,,,,,,0.069865451,-0.395902778,0,0,0,,0,36,36,165,1,TROWN,C,old,z,./images/TROWN.png,,,,,,,,,,,,,,,,,,,,,,
,,,,,,,,,,,,,,,,,200398,18,2022-01-28_23h37.43.902,lexical_decision_task_DD_L5,2021.2.3,MacIntel,60.0024001,,,,,,,,,,,0.9034,1,,,,,,,,,,,,,,z,1,0.9034,,,,,,,,0.069865451,-0.395902778,0,0,0,,0,37,37,132,1,SCIFF,C,old,z,./images/SCIFF.png,,,,,,,,,,,,,,,,,,,,,,
,,,,,,,,,,,,,,,,,200398,18,2022-01-28_23h37.43.902,lexical_decision_task_DD_L5,2021.2.3,MacIntel,60.0024001,,,,,,,,,,,0.8648,1,,,,,,,,,,,,,,m,1,0.8648,,,,,,,,0.069865451,-0.395902778,0,0,0,,0,38,38,49,1,BISHOP,LB,old,m,./images/BISHOPLB.png,,,,,,,,,,,,,,,,,,,,,,
,,,,,,,,,,,,,,,,,200398,18,2022-01-28_23h37.43.902,lexical_decision_task_DD_L5,2021.2.3,MacIntel,60.0024001,,,,,,,,,,,1.2835,1,,,,,,,,,,,,,,z,1,1.2835,,,,,,,,0.069865451,-0.395902778,0,0,0,,0,39,39,97,1,CHIDS,HB,old,z,./images/CHIDSHB.png,,,,,,,,,,,,,,,,,,,,,,
,,,,,,,,,,,,,,,,,200398,18,2022-01-28_23h37.43.902,lexical_decision_task_DD_L5,2021.2.3,MacIntel,60.0024001,,,,,,,,,,,1.0222,1,,,,,,,,,,,,,,m,1,1.0222,,,,,,,,0.069865451,-0.395902778,0,0,0,,0,40,40,21,1,DANCER,HB,old,m,./images/DANCERHB.png,,,,,,,,,,,,,,,,,,,,,,
,,,,,,,,,,,,,,,,,200398,18,2022-01-28_23h37.43.902,lexical_decision_task_DD_L5,2021.2.3,MacIntel,60.0024001,,,,,,,,,,,1.8299,1,,,,,,,,,,,,,,m,1,1.8299,,,,,,,,0.069865451,-0.395902778,0,0,0,space,0,41,41,78,1,BROOM,HB,old,m,./images/BROOMHB.png,10.7006,,,,,,,,,,,,,,,,,,,,,
,,,,,,,,,,,,,,,,,200398,18,2022-01-28_23h37.43.902,lexical_decision_task_DD_L5,2021.2.3,MacIntel,60.0024001,,,,,,,,,,,1.0167,1,,,,,,,,,,,,,,m,1,1.0167,,,,,,,,0.069865451,-0.395902778,0,0,0,,0,42,42,22,1,CLOWN,LB,old,m,./images/CLOWNLB.png,,,,,,,,,,,,,,,,,,,,,,
,,,,,,,,,,,,,,,,,200398,18,2022-01-28_23h37.43.902,lexical_decision_task_DD_L5,2021.2.3,MacIntel,60.0024001,,,,,,,,,,,0.6957,1,,,,,,,,,,,,,,m,1,0.6957,,,,,,,,0.069865451,-0.395902778,0,0,0,,0,43,43,71,1,BUBBLE,C,old,m,./images/BUBBLE.png,,,,,,,,,,,,,,,,,,,,,,
,,,,,,,,,,,,,,,,,200398,18,2022-01-28_23h37.43.902,lexical_decision_task_DD_L5,2021.2.3,MacIntel,60.0024001,,,,,,,,,,,1.1517,1,,,,,,,,,,,,,,z,1,1.1517,,,,,,,,0.069865451,-0.395902778,0,0,0,,0,44,44,163,1,GAMBA,HB,old,z,./images/GAMBAHB.png,,,,,,,,,,,,,,,,,,,,,,
,,,,,,,,,,,,,,,,,200398,18,2022-01-28_23h37.43.902,lexical_decision_task_DD_L5,2021.2.3,MacIntel,60.0024001,,,,,,,,,,,0.9972,1,,,,,,,,,,,,,,m,1,0.9972,,,,,,,,0.069865451,-0.395902778,0,0,0,,0,45,45,30,1,SLOPE,HB,old,m,./images/SLOPEHB.png,,,,,,,,,,,,,,,,,,,,,,
,,,,,,,,,,,,,,,,,200398,18,2022-01-28_23h37.43.902,lexical_decision_task_DD_L5,2021.2.3,MacIntel,60.0024001,,,,,,,,,,,0.7992,1,,,,,,,,,,,,,,z,1,0.7992,,,,,,,,0.069865451,-0.395902778,0,0,0,,0,46,46,137,1,JOOST,LB,old,z,./images/JOOSTLB.png,,,,,,,,,,,,,,,,,,,,,,
,,,,,,,,,,,,,,,,,200398,18,2022-01-28_23h37.43.902,lexical_decision_task_DD_L5,2021.2.3,MacIntel,60.0024001,,,,,,,,,,,1.0287,0,,,,,,,,,,,,,,m,0,1.0287,,,,,,,,0.069865451,-0.395902778,0,0,0,,0,47,47,166,1,SHORY,HB,old,z,./images/SHORYHB.png,,,,,,,,,,,,,,,,,,,,,,
,,,,,,,,,,,,,,,,,200398,18,2022-01-28_23h37.43.902,lexical_decision_task_DD_L5,2021.2.3,MacIntel,60.0024001,,,,,,,,,,,0.8689,1,,,,,,,,,,,,,,z,1,0.8689,,,,,,,,0.069865451,-0.395902778,0,0,0,,0,48,48,95,1,HANTY,LB,old,z,./images/HANTYLB.png,,,,,,,,,,,,,,,,,,,,,,
,,,,,,,,,,,,,,,,,200398,18,2022-01-28_23h37.43.902,lexical_decision_task_DD_L5,2021.2.3,MacIntel,60.0024001,,,,,,,,,,,1.0877,1,,,,,,,,,,,,,,z,1,1.0877,,,,,,,,0.069865451,-0.395902778,0,0,0,,0,49,49,156,1,HIXES,C,old,z,./images/HIXES.png,,,,,,,,,,,,,,,,,,,,,,
,,,,,,,,,,,,,,,,,200398,18,2022-01-28_23h37.43.902,lexical_decision_task_DD_L5,2021.2.3,MacIntel,60.0024001,,,,,,,,,,,1.2989,1,,,,,,,,,,,,,,z,1,1.2989,,,,,,,,0.069865451,-0.395902778,0,0,0,,0,50,50,133,1,POWDY,HB,old,z,./images/POWDYHB.png,,,,,,,,,,,,,,,,,,,,,,
,,,,,,,,,,,,,,,,,200398,18,2022-01-28_23h37.43.902,lexical_decision_task_DD_L5,2021.2.3,MacIntel,60.0024001,,,,,,,,,,,1.1315,0,,,,,,,,,,,,,,m,0,1.1315,,,,,,,,0.069865451,-0.395902778,0,0,0,,0,51,51,103,1,FLORT,HB,old,z,./images/FLORTHB.png,,,,,,,,,,,,,,,,,,,,,,
,,,,,,,,,,,,,,,,,200398,18,2022-01-28_23h37.43.902,lexical_decision_task_DD_L5,2021.2.3,MacIntel,60.0024001,,,,,,,,,,,0.9703,1,,,,,,,,,,,,,,m,1,0.9703,,,,,,,,0.069865451,-0.395902778,0,0,0,,0,52,52,6,1,STAIN,HB,old,m,./images/STAINHB.png,,,,,,,,,,,,,,,,,,,,,,
,,,,,,,,,,,,,,,,,200398,18,2022-01-28_23h37.43.902,lexical_decision_task_DD_L5,2021.2.3,MacIntel,60.0024001,,,,,,,,,,,0.9383,1,,,,,,,,,,,,,,z,1,0.9383,,,,,,,,0.069865451,-0.395902778,0,0,0,,0,53,53,114,1,RIKES,C,old,z,./images/RIKES.png,,,,,,,,,,,,,,,,,,,,,,
,,,,,,,,,,,,,,,,,200398,18,2022-01-28_23h37.43.902,lexical_decision_task_DD_L5,2021.2.3,MacIntel,60.0024001,,,,,,,,,,,0.882,1,,,,,,,,,,,,,,z,1,0.882,,,,,,,,0.069865451,-0.395902778,0,0,0,,0,54,54,129,1,PRANS,C,old,z,./images/PRANS.png,,,,,,,,,,,,,,,,,,,,,,
,,,,,,,,,,,,,,,,,200398,18,2022-01-28_23h37.43.902,lexical_decision_task_DD_L5,2021.2.3,MacIntel,60.0024001,,,,,,,,,,,1.5538,1,,,,,,,,,,,,,,z,1,1.5538,,,,,,,,0.069865451,-0.395902778,0,0,0,,0,55,55,94,1,BLANS,HB,old,z,./images/BLANSHB.png,,,,,,,,,,,,,,,,,,,,,,
,,,,,,,,,,,,,,,,,200398,18,2022-01-28_23h37.43.902,lexical_decision_task_DD_L5,2021.2.3,MacIntel,60.0024001,,,,,,,,,,,0.8805,1,,,,,,,,,,,,,,z,1,0.8805,,,,,,,,0.069865451,-0.395902778,0,0,0,,0,56,56,123,1,SEDGE,C,old,z,./images/SEDGE.png,,,,,,,,,,,,,,,,,,,,,,
,,,,,,,,,,,,,,,,,200398,18,2022-01-28_23h37.43.902,lexical_decision_task_DD_L5,2021.2.3,MacIntel,60.0024001,,,,,,,,,,,1.1541,1,,,,,,,,,,,,,,z,1,1.1541,,,,,,,,0.069865451,-0.395902778,0,0,0,,0,57,57,111,1,HOSSE,C,old,z,./images/HOSSE.png,,,,,,,,,,,,,,,,,,,,,,
,,,,,,,,,,,,,,,,,200398,18,2022-01-28_23h37.43.902,lexical_decision_task_DD_L5,2021.2.3,MacIntel,60.0024001,,,,,,,,,,,1.097,1,,,,,,,,,,,,,,z,1,1.097,,,,,,,,0.069865451,-0.395902778,0,0,0,,0,58,58,127,1,NINDY,HB,old,z,./images/NINDYHB.png,,,,,,,,,,,,,,,,,,,,,,
,,,,,,,,,,,,,,,,,200398,18,2022-01-28_23h37.43.902,lexical_decision_task_DD_L5,2021.2.3,MacIntel,60.0024001,,,,,,,,,,,0.9234,1,,,,,,,,,,,,,,z,1,0.9234,,,,,,,,0.069865451,-0.395902778,0,0,0,,0,59,59,108,1,GRUET,C,old,z,./images/GRUET.png,,,,,,,,,,,,,,,,,,,,,,
,,,,,,,,,,,,,,,,,200398,18,2022-01-28_23h37.43.902,lexical_decision_task_DD_L5,2021.2.3,MacIntel,60.0024001,,,,,,,,,,,1.0389,1,,,,,,,,,,,,,,z,1,1.0389,,,,,,,,0.069865451,-0.395902778,0,0,0,,0,60,60,146,1,MOOST,LB,old,z,./images/MOOSTLB.png,,,,,,,,,,,,,,,,,,,,,,
,,,,,,,,,,,,,,,,,200398,18,2022-01-28_23h37.43.902,lexical_decision_task_DD_L5,2021.2.3,MacIntel,60.0024001,,,,,,,,,,,1.5501,1,,,,,,,,,,,,,,m,1,1.5501,,,,,,,,0.069865451,-0.395902778,0,0,0,,0,61,61,18,1,PARCEL,HB,old,m,./images/PARCELHB.png,,,,,,,,,,,,,,,,,,,,,,
,,,,,,,,,,,,,,,,,200398,18,2022-01-28_23h37.43.902,lexical_decision_task_DD_L5,2021.2.3,MacIntel,60.0024001,,,,,,,,,,,0.6425,1,,,,,,,,,,,,,,m,1,0.6425,,,,,,,,0.069865451,-0.395902778,0,0,0,,0,62,62,20,1,GRANNY,C,old,m,./images/GRANNY.png,,,,,,,,,,,,,,,,,,,,,,
,,,,,,,,,,,,,,,,,200398,18,2022-01-28_23h37.43.902,lexical_decision_task_DD_L5,2021.2.3,MacIntel,60.0024001,,,,,,,,,,,0.6006,1,,,,,,,,,,,,,,m,1,0.6006,,,,,,,,0.069865451,-0.395902778,0,0,0,,0,63,63,40,1,SNAKE,LB,old,m,./images/SNAKELB.png,,,,,,,,,,,,,,,,,,,,,,
,,,,,,,,,,,,,,,,,200398,18,2022-01-28_23h37.43.902,lexical_decision_task_DD_L5,2021.2.3,MacIntel,60.0024001,,,,,,,,,,,0.7932,1,,,,,,,,,,,,,,z,1,0.7932,,,,,,,,0.069865451,-0.395902778,0,0,0,,0,64,64,135,1,JOODY,C,old,z,./images/JOODY.png,,,,,,,,,,,,,,,,,,,,,,
,,,,,,,,,,,,,,,,,200398,18,2022-01-28_23h37.43.902,lexical_decision_task_DD_L5,2021.2.3,MacIntel,60.0024001,,,,,,,,,,,0.7343,1,,,,,,,,,,,,,,z,1,0.7343,,,,,,,,0.069865451,-0.395902778,0,0,0,,0,65,65,96,1,KEAMS,C,old,z,./images/KEAMS.png,,,,,,,,,,,,,,,,,,,,,,
,,,,,,,,,,,,,,,,,200398,18,2022-01-28_23h37.43.902,lexical_decision_task_DD_L5,2021.2.3,MacIntel,60.0024001,,,,,,,,,,,0.7815,1,,,,,,,,,,,,,,z,1,0.7815,,,,,,,,0.069865451,-0.395902778,0,0,0,,0,66,66,104,1,GITTY,LB,old,z,./images/GITTYLB.png,,,,,,,,,,,,,,,,,,,,,,
,,,,,,,,,,,,,,,,,200398,18,2022-01-28_23h37.43.902,lexical_decision_task_DD_L5,2021.2.3,MacIntel,60.0024001,,,,,,,,,,,0.7486,1,,,,,,,,,,,,,,z,1,0.7486,,,,,,,,0.069865451,-0.395902778,0,0,0,,0,67,67,89,1,DRIEK,LB,old,z,./images/DRIEKLB.png,,,,,,,,,,,,,,,,,,,,,,
,,,,,,,,,,,,,,,,,200398,18,2022-01-28_23h37.43.902,lexical_decision_task_DD_L5,2021.2.3,MacIntel,60.0024001,,,,,,,,,,,0.6654,1,,,,,,,,,,,,,,m,1,0.6654,,,,,,,,0.069865451,-0.395902778,0,0,0,,0,68,68,70,1,BANANA,LB,old,m,./images/BANANALB.png,,,,,,,,,,,,,,,,,,,,,,
,,,,,,,,,,,,,,,,,200398,18,2022-01-28_23h37.43.902,lexical_decision_task_DD_L5,2021.2.3,MacIntel,60.0024001,,,,,,,,,,,0.7618,1,,,,,,,,,,,,,,z,1,0.7618,,,,,,,,0.069865451,-0.395902778,0,0,0,,0,69,69,113,1,LINEW,LB,old,z,./images/LINEWLB.png,,,,,,,,,,,,,,,,,,,,,,
,,,,,,,,,,,,,,,,,200398,18,2022-01-28_23h37.43.902,lexical_decision_task_DD_L5,2021.2.3,MacIntel,60.0024001,,,,,,,,,,,0.7435,1,,,,,,,,,,,,,,m,1,0.7435,,,,,,,,0.069865451,-0.395902778,0,0,0,,0,70,70,76,1,MIDGET,LB,old,m,./images/MIDGETLB.png,,,,,,,,,,,,,,,,,,,,,,
,,,,,,,,,,,,,,,,,200398,18,2022-01-28_23h37.43.902,lexical_decision_task_DD_L5,2021.2.3,MacIntel,60.0024001,,,,,,,,,,,0.8624,1,,,,,,,,,,,,,,z,1,0.8624,,,,,,,,0.069865451,-0.395902778,0,0,0,,0,71,71,112,1,MYING,HB,old,z,./images/MYINGHB.png,,,,,,,,,,,,,,,,,,,,,,
,,,,,,,,,,,,,,,,,200398,18,2022-01-28_23h37.43.902,lexical_decision_task_DD_L5,2021.2.3,MacIntel,60.0024001,,,,,,,,,,,0.8736,1,,,,,,,,,,,,,,m,1,0.8736,,,,,,,,0.069865451,-0.395902778,0,0,0,,0,72,72,27,1,BUTTER,HB,old,m,./images/BUTTERHB.png,,,,,,,,,,,,,,,,,,,,,,
,,,,,,,,,,,,,,,,,200398,18,2022-01-28_23h37.43.902,lexical_decision_task_DD_L5,2021.2.3,MacIntel,60.0024001,,,,,,,,,,,0.6796,1,,,,,,,,,,,,,,m,1,0.6796,,,,,,,,0.069865451,-0.395902778,0,0,0,,0,73,73,31,1,STEAK,LB,old,m,./images/STEAKLB.png,,,,,,,,,,,,,,,,,,,,,,
,,,,,,,,,,,,,,,,,200398,18,2022-01-28_23h37.43.902,lexical_decision_task_DD_L5,2021.2.3,MacIntel,60.0024001,,,,,,,,,,,0.8202,1,,,,,,,,,,,,,,m,1,0.8202,,,,,,,,0.069865451,-0.395902778,0,0,0,,0,74,74,81,1,DRILL,HB,old,m,./images/DRILLHB.png,,,,,,,,,,,,,,,,,,,,,,
,,,,,,,,,,,,,,,,,200398,18,2022-01-28_23h37.43.902,lexical_decision_task_DD_L5,2021.2.3,MacIntel,60.0024001,,,,,,,,,,,0.8316,1,,,,,,,,,,,,,,z,1,0.8316,,,,,,,,0.069865451,-0.395902778,0,0,0,,0,75,75,102,1,DULLE,C,old,z,./images/DULLE.png,,,,,,,,,,,,,,,,,,,,,,
,,,,,,,,,,,,,,,,,200398,18,2022-01-28_23h37.43.902,lexical_decision_task_DD_L5,2021.2.3,MacIntel,60.0024001,,,,,,,,,,,1.0141,1,,,,,,,,,,,,,,m,1,1.0141,,,,,,,,0.069865451,-0.395902778,0,0,0,,0,76,76,48,1,SHIELD,HB,old,m,./images/SHIELDHB.png,,,,,,,,,,,,,,,,,,,,,,
,,,,,,,,,,,,,,,,,200398,18,2022-01-28_23h37.43.902,lexical_decision_task_DD_L5,2021.2.3,MacIntel,60.0024001,,,,,,,,,,,0.6851,1,,,,,,,,,,,,,,m,1,0.6851,,,,,,,,0.069865451,-0.395902778,0,0,0,,0,77,77,37,1,TIGER,LB,old,m,./images/TIGERLB.png,,,,,,,,,,,,,,,,,,,,,,
,,,,,,,,,,,,,,,,,200398,18,2022-01-28_23h37.43.902,lexical_decision_task_DD_L5,2021.2.3,MacIntel,60.0024001,,,,,,,,,,,0.8845,1,,,,,,,,,,,,,,z,1,0.8845,,,,,,,,0.069865451,-0.395902778,0,0,0,,0,78,78,121,1,CEERS,HB,old,z,./images/CEERSHB.png,,,,,,,,,,,,,,,,,,,,,,
,,,,,,,,,,,,,,,,,200398,18,2022-01-28_23h37.43.902,lexical_decision_task_DD_L5,2021.2.3,MacIntel,60.0024001,,,,,,,,,,,0.8345,0,,,,,,,,,,,,,,m,0,0.8345,,,,,,,,0.069865451,-0.395902778,0,0,0,,0,79,79,155,1,CANGY,LB,old,z,./images/CANGYLB.png,,,,,,,,,,,,,,,,,,,,,,
,,,,,,,,,,,,,,,,,200398,18,2022-01-28_23h37.43.902,lexical_decision_task_DD_L5,2021.2.3,MacIntel,60.0024001,,,,,,,,,,,0.9028,1,,,,,,,,,,,,,,m,1,0.9028,,,,,,,,0.069865451,-0.395902778,0,0,0,,0,80,80,53,1,POSTER,C,old,m,./images/POSTER.png,,,,,,,,,,,,,,,,,,,,,,
,,,,,,,,,,,,,,,,,200398,18,2022-01-28_23h37.43.902,lexical_decision_task_DD_L5,2021.2.3,MacIntel,60.0024001,,,,,,,,,,,0.6014,1,,,,,,,,,,,,,,m,1,0.6014,,,,,,,,0.069865451,-0.395902778,0,0,0,,0,81,81,1,1,TOWEL,LB,old,m,./images/TOWELLB.png,,,,,,,,,,,,,,,,,,,,,,
,,,,,,,,,,,,,,,,,200398,18,2022-01-28_23h37.43.902,lexical_decision_task_DD_L5,2021.2.3,MacIntel,60.0024001,,,,,,,,,,,0.8535,1,,,,,,,,,,,,,,m,1,0.8535,,,,,,,,0.069865451,-0.395902778,0,0,0,,0,82,82,15,1,COLLAR,HB,old,m,./images/COLLARHB.png,,,,,,,,,,,,,,,,,,,,,,
,,,,,,,,,,,,,,,,,200398,18,2022-01-28_23h37.43.902,lexical_decision_task_DD_L5,2021.2.3,MacIntel,60.0024001,,,,,,,,,,,0.7332,1,,,,,,,,,,,,,,z,1,0.7332,,,,,,,,0.069865451,-0.395902778,0,0,0,space,0,83,83,107,1,FASKS,LB,old,z,./images/FASKSLB.png,10.7528,,,,,,,,,,,,,,,,,,,,,
,,,,,,,,,,,,,,,,,200398,18,2022-01-28_23h37.43.902,lexical_decision_task_DD_L5,2021.2.3,MacIntel,60.0024001,,,,,,,,,,,0.9084,1,,,,,,,,,,,,,,z,1,0.9084,,,,,,,,0.069865451,-0.395902778,0,0,0,,0,84,84,125,1,MOOKY,LB,old,z,./images/MOOKYLB.png,,,,,,,,,,,,,,,,,,,,,,
,,,,,,,,,,,,,,,,,200398,18,2022-01-28_23h37.43.902,lexical_decision_task_DD_L5,2021.2.3,MacIntel,60.0024001,,,,,,,,,,,0.9641,1,,,,,,,,,,,,,,z,1,0.9641,,,,,,,,0.069865451,-0.395902778,0,0,0,,0,85,85,136,1,WERVE,HB,old,z,./images/WERVEHB.png,,,,,,,,,,,,,,,,,,,,,,
,,,,,,,,,,,,,,,,,200398,18,2022-01-28_23h37.43.902,lexical_decision_task_DD_L5,2021.2.3,MacIntel,60.0024001,,,,,,,,,,,1.3837,0,,,,,,,,,,,,,,z,0,1.3837,,,,,,,,0.069865451,-0.395902778,0,0,0,,0,86,86,63,1,BAKER,HB,old,m,./images/BAKERHB.png,,,,,,,,,,,,,,,,,,,,,,
,,,,,,,,,,,,,,,,,200398,18,2022-01-28_23h37.43.902,lexical_decision_task_DD_L5,2021.2.3,MacIntel,60.0024001,,,,,,,,,,,1.1947,1,,,,,,,,,,,,,,m,1,1.1947,,,,,,,,0.069865451,-0.395902778,0,0,0,,0,87,87,8,1,CLIFF,C,old,m,./images/CLIFF.png,,,,,,,,,,,,,,,,,,,,,,
,,,,,,,,,,,,,,,,,200398,18,2022-01-28_23h37.43.902,lexical_decision_task_DD_L5,2021.2.3,MacIntel,60.0024001,,,,,,,,,,,0.6767,1,,,,,,,,,,,,,,m,1,0.6767,,,,,,,,0.069865451,-0.395902778,0,0,0,,0,88,88,52,1,DESERT,LB,old,m,./images/DESERTLB.png,,,,,,,,,,,,,,,,,,,,,,
,,,,,,,,,,,,,,,,,200398,18,2022-01-28_23h37.43.902,lexical_decision_task_DD_L5,2021.2.3,MacIntel,60.0024001,,,,,,,,,,,0.7695,1,,,,,,,,,,,,,,m,1,0.7695,,,,,,,,0.069865451,-0.395902778,0,0,0,,0,89,89,45,1,MONKEY,HB,old,m,./images/MONKEYHB.png,,,,,,,,,,,,,,,,,,,,,,
,,,,,,,,,,,,,,,,,200398,18,2022-01-28_23h37.43.902,lexical_decision_task_DD_L5,2021.2.3,MacIntel,60.0024001,,,,,,,,,,,0.6883,1,,,,,,,,,,,,,,m,1,0.6883,,,,,,,,0.069865451,-0.395902778,0,0,0,,0,90,90,55,1,ALLEY,LB,old,m,./images/ALLEYLB.png,,,,,,,,,,,,,,,,,,,,,,
,,,,,,,,,,,,,,,,,200398,18,2022-01-28_23h37.43.902,lexical_decision_task_DD_L5,2021.2.3,MacIntel,60.0024001,,,,,,,,,,,0.6331,1,,,,,,,,,,,,,,m,1,0.6331,,,,,,,,0.069865451,-0.395902778,0,0,0,,0,91,91,25,1,CHALK,LB,old,m,./images/CHALKLB.png,,,,,,,,,,,,,,,,,,,,,,
,,,,,,,,,,,,,,,,,200398,18,2022-01-28_23h37.43.902,lexical_decision_task_DD_L5,2021.2.3,MacIntel,60.0024001,,,,,,,,,,,0.7441,1,,,,,,,,,,,,,,z,1,0.7441,,,,,,,,0.069865451,-0.395902778,0,0,0,,0,92,92,164,1,SGREW,LB,old,z,./images/SGREWLB.png,,,,,,,,,,,,,,,,,,,,,,
,,,,,,,,,,,,,,,,,200398,18,2022-01-28_23h37.43.902,lexical_decision_task_DD_L5,2021.2.3,MacIntel,60.0024001,,,,,,,,,,,0.8503,1,,,,,,,,,,,,,,z,1,0.8503,,,,,,,,0.069865451,-0.395902778,0,0,0,,0,93,93,124,1,TUNCH,HB,old,z,./images/TUNCHHB.png,,,,,,,,,,,,,,,,,,,,,,
,,,,,,,,,,,,,,,,,200398,18,2022-01-28_23h37.43.902,lexical_decision_task_DD_L5,2021.2.3,MacIntel,60.0024001,,,,,,,,,,,0.7541,1,,,,,,,,,,,,,,z,1,0.7541,,,,,,,,0.069865451,-0.395902778,0,0,0,,0,94,94,90,1,NEAST,C,old,z,./images/NEAST.png,,,,,,,,,,,,,,,,,,,,,,
,,,,,,,,,,,,,,,,,200398,18,2022-01-28_23h37.43.902,lexical_decision_task_DD_L5,2021.2.3,MacIntel,60.0024001,,,,,,,,,,,0.6255,1,,,,,,,,,,,,,,m,1,0.6255,,,,,,,,0.069865451,-0.395902778,0,0,0,,0,95,95,68,1,VALLEY,C,old,m,./images/VALLEY.png,,,,,,,,,,,,,,,,,,,,,,
,,,,,,,,,,,,,,,,,200398,18,2022-01-28_23h37.43.902,lexical_decision_task_DD_L5,2021.2.3,MacIntel,60.0024001,,,,,,,,,,,0.8014,1,,,,,,,,,,,,,,z,1,0.8014,,,,,,,,0.069865451,-0.395902778,0,0,0,,0,96,96,98,1,BAMPS,LB,old,z,./images/BAMPSLB.png,,,,,,,,,,,,,,,,,,,,,,
,,,,,,,,,,,,,,,,,200398,18,2022-01-28_23h37.43.902,lexical_decision_task_DD_L5,2021.2.3,MacIntel,60.0024001,,,,,,,,,,,1.5518,0,,,,,,,,,,,,,,m,0,1.5518,,,,,,,,0.069865451,-0.395902778,0,0,0,,0,97,97,140,1,DOVET,LB,old,z,./images/DOVETLB.png,,,,,,,,,,,,,,,,,,,,,,
,,,,,,,,,,,,,,,,,200398,18,2022-01-28_23h37.43.902,lexical_decision_task_DD_L5,2021.2.3,MacIntel,60.0024001,,,,,,,,,,,1.0992,1,,,,,,,,,,,,,,m,1,1.0992,,,,,,,,0.069865451,-0.395902778,0,0,0,,0,98,98,82,1,PEBBLE,LB,old,m,./images/PEBBLELB.png,,,,,,,,,,,,,,,,,,,,,,
,,,,,,,,,,,,,,,,,200398,18,2022-01-28_23h37.43.902,lexical_decision_task_DD_L5,2021.2.3,MacIntel,60.0024001,,,,,,,,,,,1.0956,1,,,,,,,,,,,,,,z,1,1.0956,,,,,,,,0.069865451,-0.395902778,0,0,0,,0,99,99,115,1,MAWNS,HB,old,z,./images/MAWNSHB.png,,,,,,,,,,,,,,,,,,,,,,
,,,,,,,,,,,,,,,,,200398,18,2022-01-28_23h37.43.902,lexical_decision_task_DD_L5,2021.2.3,MacIntel,60.0024001,,,,,,,,,,,1.3477,1,,,,,,,,,,,,,,z,1,1.3477,,,,,,,,0.069865451,-0.395902778,0,0,0,,0,100,100,142,1,PLASK,HB,old,z,./images/PLASKHB.png,,,,,,,,,,,,,,,,,,,,,,
,,,,,,,,,,,,,,,,,200398,18,2022-01-28_23h37.43.902,lexical_decision_task_DD_L5,2021.2.3,MacIntel,60.0024001,,,,,,,,,,,0.6541,1,,,,,,,,,,,,,,m,1,0.6541,,,,,,,,0.069865451,-0.395902778,0,0,0,,0,101,101,73,1,GLOVE,LB,old,m,./images/GLOVELB.png,,,,,,,,,,,,,,,,,,,,,,
,,,,,,,,,,,,,,,,,200398,18,2022-01-28_23h37.43.902,lexical_decision_task_DD_L5,2021.2.3,MacIntel,60.0024001,,,,,,,,,,,0.8199,1,,,,,,,,,,,,,,z,1,0.8199,,,,,,,,0.069865451,-0.395902778,0,0,0,,0,102,102,119,1,PAFER,LB,old,z,./images/PAFERLB.png,,,,,,,,,,,,,,,,,,,,,,
,,,,,,,,,,,,,,,,,200398,18,2022-01-28_23h37.43.902,lexical_decision_task_DD_L5,2021.2.3,MacIntel,60.0024001,,,,,,,,,,,0.7749,1,,,,,,,,,,,,,,m,1,0.7749,,,,,,,,0.069865451,-0.395902778,0,0,0,,0,103,103,24,1,FLESH,HB,old,m,./images/FLESHHB.png,,,,,,,,,,,,,,,,,,,,,,
,,,,,,,,,,,,,,,,,200398,18,2022-01-28_23h37.43.902,lexical_decision_task_DD_L5,2021.2.3,MacIntel,60.0024001,,,,,,,,,,,0.9118,1,,,,,,,,,,,,,,z,1,0.9118,,,,,,,,0.069865451,-0.395902778,0,0,0,,0,104,104,138,1,PLICE,C,old,z,./images/PLICE.png,,,,,,,,,,,,,,,,,,,,,,
,,,,,,,,,,,,,,,,,200398,18,2022-01-28_23h37.43.902,lexical_decision_task_DD_L5,2021.2.3,MacIntel,60.0024001,,,,,,,,,,,1.4551,1,,,,,,,,,,,,,,m,1,1.4551,,,,,,,,0.069865451,-0.395902778,0,0,0,,0,105,105,57,1,FERRY,HB,old,m,./images/FERRYHB.png,,,,,,,,,,,,,,,,,,,,,,
,,,,,,,,,,,,,,,,,200398,18,2022-01-28_23h37.43.902,lexical_decision_task_DD_L5,2021.2.3,MacIntel,60.0024001,,,,,,,,,,,1.1218,0,,,,,,,,,,,,,,m,0,1.1218,,,,,,,,0.069865451,-0.395902778,0,0,0,,0,106,106,167,1,ZONET,LB,old,z,./images/ZONETLB.png,,,,,,,,,,,,,,,,,,,,,,
,,,,,,,,,,,,,,,,,200398,18,2022-01-28_23h37.43.902,lexical_decision_task_DD_L5,2021.2.3,MacIntel,60.0024001,,,,,,,,,,,0.8676,1,,,,,,,,,,,,,,z,1,0.8676,,,,,,,,0.069865451,-0.395902778,0,0,0,,0,107,107,134,1,TROSS,LB,old,z,./images/TROSSLB.png,,,,,,,,,,,,,,,,,,,,,,
,,,,,,,,,,,,,,,,,200398,18,2022-01-28_23h37.43.902,lexical_decision_task_DD_L5,2021.2.3,MacIntel,60.0024001,,,,,,,,,,,1.1659,0,,,,,,,,,,,,,,m,0,1.1659,,,,,,,,0.069865451,-0.395902778,0,0,0,,0,108,108,84,1,HAXES,C,old,z,./images/HAXES.png,,,,,,,,,,,,,,,,,,,,,,
,,,,,,,,,,,,,,,,,200398,18,2022-01-28_23h37.43.902,lexical_decision_task_DD_L5,2021.2.3,MacIntel,60.0024001,,,,,,,,,,,1.1089,1,,,,,,,,,,,,,,m,1,1.1089,,,,,,,,0.069865451,-0.395902778,0,0,0,,0,109,109,60,1,CURRY,HB,old,m,./images/CURRYHB.png,,,,,,,,,,,,,,,,,,,,,,
,,,,,,,,,,,,,,,,,200398,18,2022-01-28_23h37.43.902,lexical_decision_task_DD_L5,2021.2.3,MacIntel,60.0024001,,,,,,,,,,,0.7064,1,,,,,,,,,,,,,,m,1,0.7064,,,,,,,,0.069865451,-0.395902778,0,0,0,,0,110,110,74,1,JUMPER,C,old,m,./images/JUMPER.png,,,,,,,,,,,,,,,,,,,,,,
,,,,,,,,,,,,,,,,,200398,18,2022-01-28_23h37.43.902,lexical_decision_task_DD_L5,2021.2.3,MacIntel,60.0024001,,,,,,,,,,,0.6291,1,,,,,,,,,,,,,,m,1,0.6291,,,,,,,,0.069865451,-0.395902778,0,0,0,,0,111,111,32,1,HOCKEY,C,old,m,./images/HOCKEY.png,,,,,,,,,,,,,,,,,,,,,,
,,,,,,,,,,,,,,,,,200398,18,2022-01-28_23h37.43.902,lexical_decision_task_DD_L5,2021.2.3,MacIntel,60.0024001,,,,,,,,,,,0.4932,1,,,,,,,,,,,,,,m,1,0.4932,,,,,,,,0.069865451,-0.395902778,0,0,0,,0,112,112,17,1,PARADE,C,old,m,./images/PARADE.png,,,,,,,,,,,,,,,,,,,,,,
,,,,,,,,,,,,,,,,,200398,18,2022-01-28_23h37.43.902,lexical_decision_task_DD_L5,2021.2.3,MacIntel,60.0024001,,,,,,,,,,,0.8055,1,,,,,,,,,,,,,,z,1,0.8055,,,,,,,,0.069865451,-0.395902778,0,0,0,,0,113,113,144,1,NAIRY,C,old,z,./images/NAIRY.png,,,,,,,,,,,,,,,,,,,,,,
,,,,,,,,,,,,,,,,,200398,18,2022-01-28_23h37.43.902,lexical_decision_task_DD_L5,2021.2.3,MacIntel,60.0024001,,,,,,,,,,,0.817,1,,,,,,,,,,,,,,z,1,0.817,,,,,,,,0.069865451,-0.395902778,0,0,0,,0,114,114,161,1,BLAPS,LB,old,z,./images/BLAPSLB.png,,,,,,,,,,,,,,,,,,,,,,
,,,,,,,,,,,,,,,,,200398,18,2022-01-28_23h37.43.902,lexical_decision_task_DD_L5,2021.2.3,MacIntel,60.0024001,,,,,,,,,,,0.6909,1,,,,,,,,,,,,,,m,1,0.6909,,,,,,,,0.069865451,-0.395902778,0,0,0,,0,115,115,59,1,BRUSH,C,old,m,./images/BRUSH.png,,,,,,,,,,,,,,,,,,,,,,
,,,,,,,,,,,,,,,,,200398,18,2022-01-28_23h37.43.902,lexical_decision_task_DD_L5,2021.2.3,MacIntel,60.0024001,,,,,,,,,,,0.6315,1,,,,,,,,,,,,,,m,1,0.6315,,,,,,,,0.069865451,-0.395902778,0,0,0,,0,116,116,41,1,STREAM,C,old,m,./images/STREAM.png,,,,,,,,,,,,,,,,,,,,,,
,,,,,,,,,,,,,,,,,200398,18,2022-01-28_23h37.43.902,lexical_decision_task_DD_L5,2021.2.3,MacIntel,60.0024001,,,,,,,,,,,0.8759,1,,,,,,,,,,,,,,z,1,0.8759,,,,,,,,0.069865451,-0.395902778,0,0,0,,0,117,117,159,1,CUDDY,C,old,z,./images/CUDDY.png,,,,,,,,,,,,,,,,,,,,,,
,,,,,,,,,,,,,,,,,200398,18,2022-01-28_23h37.43.902,lexical_decision_task_DD_L5,2021.2.3,MacIntel,60.0024001,,,,,,,,,,,0.7876,1,,,,,,,,,,,,,,m,1,0.7876,,,,,,,,0.069865451,-0.395902778,0,0,0,,0,118,118,28,1,CASINO,LB,old,m,./images/CASINOLB.png,,,,,,,,,,,,,,,,,,,,,,
,,,,,,,,,,,,,,,,,200398,18,2022-01-28_23h37.43.902,lexical_decision_task_DD_L5,2021.2.3,MacIntel,60.0024001,,,,,,,,,,,0.7038,1,,,,,,,,,,,,,,m,1,0.7038,,,,,,,,0.069865451,-0.395902778,0,0,0,,0,119,119,43,1,STOOL,LB,old,m,./images/STOOLLB.png,,,,,,,,,,,,,,,,,,,,,,
,,,,,,,,,,,,,,,,,200398,18,2022-01-28_23h37.43.902,lexical_decision_task_DD_L5,2021.2.3,MacIntel,60.0024001,,,,,,,,,,,0.9633,1,,,,,,,,,,,,,,z,1,0.9633,,,,,,,,0.069865451,-0.395902778,0,0,0,,0,120,120,147,1,ZOLES,C,old,z,./images/ZOLES.png,,,,,,,,,,,,,,,,,,,,,,
,,,,,,,,,,,,,,,,,200398,18,2022-01-28_23h37.43.902,lexical_decision_task_DD_L5,2021.2.3,MacIntel,60.0024001,,,,,,,,,,,0.9911,1,,,,,,,,,,,,,,m,1,0.9911,,,,,,,,0.069865451,-0.395902778,0,0,0,,0,121,121,0,1,WALNUT,HB,old,m,./images/WALNUTHB.png,,,,,,,,,,,,,,,,,,,,,,
,,,,,,,,,,,,,,,,,200398,18,2022-01-28_23h37.43.902,lexical_decision_task_DD_L5,2021.2.3,MacIntel,60.0024001,,,,,,,,,,,0.7357,1,,,,,,,,,,,,,,m,1,0.7357,,,,,,,,0.069865451,-0.395902778,0,0,0,,0,122,122,23,1,CLOTH,C,old,m,./images/CLOTH.png,,,,,,,,,,,,,,,,,,,,,,
,,,,,,,,,,,,,,,,,200398,18,2022-01-28_23h37.43.902,lexical_decision_task_DD_L5,2021.2.3,MacIntel,60.0024001,,,,,,,,,,,0.6879,1,,,,,,,,,,,,,,z,1,0.6879,,,,,,,,0.069865451,-0.395902778,0,0,0,,0,123,123,99,1,BACKY,C,old,z,./images/BACKY.png,,,,,,,,,,,,,,,,,,,,,,
,,,,,,,,,,,,,,,,,200398,18,2022-01-28_23h37.43.902,lexical_decision_task_DD_L5,2021.2.3,MacIntel,60.0024001,,,,,,,,,,,0.8503,1,,,,,,,,,,,,,,m,1,0.8503,,,,,,,,0.069865451,-0.395902778,0,0,0,,0,124,124,69,1,ARROW,HB,old,m,./images/ARROWHB.png,,,,,,,,,,,,,,,,,,,,,,
,,,,,,,,,,,,,,,,,200398,18,2022-01-28_23h37.43.902,lexical_decision_task_DD_L5,2021.2.3,MacIntel,60.0024001,,,,,,,,,,,0.8771,1,,,,,,,,,,,,,,z,1,0.8771,,,,,,,,0.069865451,-0.395902778,0,0,0,space,0,125,125,106,1,CLUMS,HB,old,z,./images/CLUMSHB.png,6.3475,,,,,,,,,,,,,,,,,,,,,
,,,,,,,,,,,,,,,,,200398,18,2022-01-28_23h37.43.902,lexical_decision_task_DD_L5,2021.2.3,MacIntel,60.0024001,,,,,,,,,,,1.2954,1,,,,,,,,,,,,,,z,1,1.2954,,,,,,,,0.069865451,-0.395902778,0,0,0,,0,126,126,145,1,LAMEL,HB,old,z,./images/LAMELHB.png,,,,,,,,,,,,,,,,,,,,,,
,,,,,,,,,,,,,,,,,200398,18,2022-01-28_23h37.43.902,lexical_decision_task_DD_L5,2021.2.3,MacIntel,60.0024001,,,,,,,,,,,0.8434,0,,,,,,,,,,,,,,m,0,0.8434,,,,,,,,0.069865451,-0.395902778,0,0,0,,0,127,127,85,1,CHULK,HB,old,z,./images/CHULKHB.png,,,,,,,,,,,,,,,,,,,,,,
,,,,,,,,,,,,,,,,,200398,18,2022-01-28_23h37.43.902,lexical_decision_task_DD_L5,2021.2.3,MacIntel,60.0024001,,,,,,,,,,,0.669,1,,,,,,,,,,,,,,m,1,0.669,,,,,,,,0.069865451,-0.395902778,0,0,0,,0,128,128,29,1,PISTOL,C,old,m,./images/PISTOL.png,,,,,,,,,,,,,,,,,,,,,,
,,,,,,,,,,,,,,,,,200398,18,2022-01-28_23h37.43.902,lexical_decision_task_DD_L5,2021.2.3,MacIntel,60.0024001,,,,,,,,,,,0.7128,1,,,,,,,,,,,,,,z,1,0.7128,,,,,,,,0.069865451,-0.395902778,0,0,0,,0,129,129,86,1,AIFED,LB,old,z,./images/AIFEDLB.png,,,,,,,,,,,,,,,,,,,,,,
,,,,,,,,,,,,,,,,,200398,18,2022-01-28_23h37.43.902,lexical_decision_task_DD_L5,2021.2.3,MacIntel,60.0024001,,,,,,,,,,,0.9753,1,,,,,,,,,,,,,,z,1,0.9753,,,,,,,,0.069865451,-0.395902778,0,0,0,,0,130,130,117,1,STEEG,C,old,z,./images/STEEG.png,,,,,,,,,,,,,,,,,,,,,,
,,,,,,,,,,,,,,,,,200398,18,2022-01-28_23h37.43.902,lexical_decision_task_DD_L5,2021.2.3,MacIntel,60.0024001,,,,,,,,,,,1.0624,1,,,,,,,,,,,,,,z,1,1.0624,,,,,,,,0.069865451,-0.395902778,0,0,0,,0,131,131,130,1,CRILL,HB,old,z,./images/CRILLHB.png,,,,,,,,,,,,,,,,,,,,,,
,,,,,,,,,,,,,,,,,200398,18,2022-01-28_23h37.43.902,lexical_decision_task_DD_L5,2021.2.3,MacIntel,60.0024001,,,,,,,,,,,0.7082,1,,,,,,,,,,,,,,z,1,0.7082,,,,,,,,0.069865451,-0.395902778,0,0,0,,0,132,132,150,1,NOOLS,C,old,z,./images/NOOLS.png,,,,,,,,,,,,,,,,,,,,,,
,,,,,,,,,,,,,,,,,200398,18,2022-01-28_23h37.43.902,lexical_decision_task_DD_L5,2021.2.3,MacIntel,60.0024001,,,,,,,,,,,0.6676,1,,,,,,,,,,,,,,m,1,0.6676,,,,,,,,0.069865451,-0.395902778,0,0,0,,0,133,133,16,1,GRAPE,LB,old,m,./images/GRAPELB.png,,,,,,,,,,,,,,,,,,,,,,
,,,,,,,,,,,,,,,,,200398,18,2022-01-28_23h37.43.902,lexical_decision_task_DD_L5,2021.2.3,MacIntel,60.0024001,,,,,,,,,,,0.7225,1,,,,,,,,,,,,,,z,1,0.7225,,,,,,,,0.069865451,-0.395902778,0,0,0,,0,134,134,126,1,GUELS,C,old,z,./images/GUELS.png,,,,,,,,,,,,,,,,,,,,,,
,,,,,,,,,,,,,,,,,200398,18,2022-01-28_23h37.43.902,lexical_decision_task_DD_L5,2021.2.3,MacIntel,60.0024001,,,,,,,,,,,0.7033,1,,,,,,,,,,,,,,m,1,0.7033,,,,,,,,0.069865451,-0.395902778,0,0,0,,0,135,135,19,1,DONKEY,LB,old,m,./images/DONKEYLB.png,,,,,,,,,,,,,,,,,,,,,,
,,,,,,,,,,,,,,,,,200398,18,2022-01-28_23h37.43.902,lexical_decision_task_DD_L5,2021.2.3,MacIntel,60.0024001,,,,,,,,,,,0.6303,1,,,,,,,,,,,,,,m,1,0.6303,,,,,,,,0.069865451,-0.395902778,0,0,0,,0,136,136,10,1,GARDEN,LB,old,m,./images/GARDENLB.png,,,,,,,,,,,,,,,,,,,,,,
,,,,,,,,,,,,,,,,,200398,18,2022-01-28_23h37.43.902,lexical_decision_task_DD_L5,2021.2.3,MacIntel,60.0024001,,,,,,,,,,,0.9851,1,,,,,,,,,,,,,,m,1,0.9851,,,,,,,,0.069865451,-0.395902778,0,0,0,,0,137,137,39,1,CANDY,HB,old,m,./images/CANDYHB.png,,,,,,,,,,,,,,,,,,,,,,
,,,,,,,,,,,,,,,,,200398,18,2022-01-28_23h37.43.902,lexical_decision_task_DD_L5,2021.2.3,MacIntel,60.0024001,,,,,,,,,,,0.8772,1,,,,,,,,,,,,,,m,1,0.8772,,,,,,,,0.069865451,-0.395902778,0,0,0,,0,138,138,36,1,BOILER,HB,old,m,./images/BOILERHB.png,,,,,,,,,,,,,,,,,,,,,,
,,,,,,,,,,,,,,,,,200398,18,2022-01-28_23h37.43.902,lexical_decision_task_DD_L5,2021.2.3,MacIntel,60.0024001,,,,,,,,,,,0.819,1,,,,,,,,,,,,,,z,1,0.819,,,,,,,,0.069865451,-0.395902778,0,0,0,,0,139,139,143,1,MONGS,LB,old,z,./images/MONGSLB.png,,,,,,,,,,,,,,,,,,,,,,
,,,,,,,,,,,,,,,,,200398,18,2022-01-28_23h37.43.902,lexical_decision_task_DD_L5,2021.2.3,MacIntel,60.0024001,,,,,,,,,,,0.6488,1,,,,,,,,,,,,,,m,1,0.6488,,,,,,,,0.069865451,-0.395902778,0,0,0,,0,140,140,46,1,MUMMY,LB,old,m,./images/MUMMYLB.png,,,,,,,,,,,,,,,,,,,,,,
,,,,,,,,,,,,,,,,,200398,18,2022-01-28_23h37.43.902,lexical_decision_task_DD_L5,2021.2.3,MacIntel,60.0024001,,,,,,,,,,,0.9694,1,,,,,,,,,,,,,,m,1,0.9694,,,,,,,,0.069865451,-0.395902778,0,0,0,,0,141,141,9,1,DIVER,HB,old,m,./images/DIVERHB.png,,,,,,,,,,,,,,,,,,,,,,
,,,,,,,,,,,,,,,,,200398,18,2022-01-28_23h37.43.902,lexical_decision_task_DD_L5,2021.2.3,MacIntel,60.0024001,,,,,,,,,,,0.8569,1,,,,,,,,,,,,,,z,1,0.8569,,,,,,,,0.069865451,-0.395902778,0,0,0,,0,142,142,158,1,EGECT,LB,old,z,./images/EGECTLB.png,,,,,,,,,,,,,,,,,,,,,,
,,,,,,,,,,,,,,,,,200398,18,2022-01-28_23h37.43.902,lexical_decision_task_DD_L5,2021.2.3,MacIntel,60.0024001,,,,,,,,,,,0.9263,1,,,,,,,,,,,,,,z,1,0.9263,,,,,,,,0.069865451,-0.395902778,0,0,0,,0,143,143,151,1,TINKY,HB,old,z,./images/TINKYHB.png,,,,,,,,,,,,,,,,,,,,,,
,,,,,,,,,,,,,,,,,200398,18,2022-01-28_23h37.43.902,lexical_decision_task_DD_L5,2021.2.3,MacIntel,60.0024001,,,,,,,,,,,0.6413,1,,,,,,,,,,,,,,m,1,0.6413,,,,,,,,0.069865451,-0.395902778,0,0,0,,0,144,144,11,1,MEDAL,C,old,m,./images/MEDAL.png,,,,,,,,,,,,,,,,,,,,,,
,,,,,,,,,,,,,,,,,200398,18,2022-01-28_23h37.43.902,lexical_decision_task_DD_L5,2021.2.3,MacIntel,60.0024001,,,,,,,,,,,0.7895,1,,,,,,,,,,,,,,z,1,0.7895,,,,,,,,0.069865451,-0.395902778,0,0,0,,0,145,145,116,1,BALGY,LB,old,z,./images/BALGYLB.png,,,,,,,,,,,,,,,,,,,,,,
,,,,,,,,,,,,,,,,,200398,18,2022-01-28_23h37.43.902,lexical_decision_task_DD_L5,2021.2.3,MacIntel,60.0024001,,,,,,,,,,,0.6989,1,,,,,,,,,,,,,,m,1,0.6989,,,,,,,,0.069865451,-0.395902778,0,0,0,,0,146,146,2,1,STOVE,C,old,m,./images/STOVE.png,,,,,,,,,,,,,,,,,,,,,,
,,,,,,,,,,,,,,,,,200398,18,2022-01-28_23h37.43.902,lexical_decision_task_DD_L5,2021.2.3,MacIntel,60.0024001,,,,,,,,,,,0.8905,1,,,,,,,,,,,,,,m,1,0.8905,,,,,,,,0.069865451,-0.395902778,0,0,0,,0,147,147,56,1,HEATER,C,old,m,./images/HEATER.png,,,,,,,,,,,,,,,,,,,,,,
,,,,,,,,,,,,,,,,,200398,18,2022-01-28_23h37.43.902,lexical_decision_task_DD_L5,2021.2.3,MacIntel,60.0024001,,,,,,,,,,,1.1003,1,,,,,,,,,,,,,,z,1,1.1003,,,,,,,,0.069865451,-0.395902778,0,0,0,,0,148,148,118,1,BAVEL,HB,old,z,./images/BAVELHB.png,,,,,,,,,,,,,,,,,,,,,,
,,,,,,,,,,,,,,,,,200398,18,2022-01-28_23h37.43.902,lexical_decision_task_DD_L5,2021.2.3,MacIntel,60.0024001,,,,,,,,,,,1.0481,1,,,,,,,,,,,,,,z,1,1.0481,,,,,,,,0.069865451,-0.395902778,0,0,0,,0,149,149,139,1,BLEAR,HB,old,z,./images/BLEARHB.png,,,,,,,,,,,,,,,,,,,,,,
,,,,,,,,,,,,,,,,,200398,18,2022-01-28_23h37.43.902,lexical_decision_task_DD_L5,2021.2.3,MacIntel,60.0024001,,,,,,,,,,,0.8996,1,,,,,,,,,,,,,,z,1,0.8996,,,,,,,,0.069865451,-0.395902778,0,0,0,,0,150,150,131,1,NACES,LB,old,z,./images/NACESLB.png,,,,,,,,,,,,,,,,,,,,,,
,,,,,,,,,,,,,,,,,200398,18,2022-01-28_23h37.43.902,lexical_decision_task_DD_L5,2021.2.3,MacIntel,60.0024001,,,,,,,,,,,1.5374,1,,,,,,,,,,,,,,m,1,1.5374,,,,,,,,0.069865451,-0.395902778,0,0,0,,0,151,151,75,1,HAMMER,HB,old,m,./images/HAMMERHB.png,,,,,,,,,,,,,,,,,,,,,,
,,,,,,,,,,,,,,,,,200398,18,2022-01-28_23h37.43.902,lexical_decision_task_DD_L5,2021.2.3,MacIntel,60.0024001,,,,,,,,,,,0.6842,1,,,,,,,,,,,,,,z,1,0.6842,,,,,,,,0.069865451,-0.395902778,0,0,0,,0,152,152,87,1,TRING,C,old,z,./images/TRING.png,,,,,,,,,,,,,,,,,,,,,,
,,,,,,,,,,,,,,,,,200398,18,2022-01-28_23h37.43.902,lexical_decision_task_DD_L5,2021.2.3,MacIntel,60.0024001,,,,,,,,,,,0.7909,1,,,,,,,,,,,,,,m,1,0.7909,,,,,,,,0.069865451,-0.395902778,0,0,0,,0,153,153,58,1,CANOE,LB,old,m,./images/CANOELB.png,,,,,,,,,,,,,,,,,,,,,,
,,,,,,,,,,,,,,,,,200398,18,2022-01-28_23h37.43.902,lexical_decision_task_DD_L5,2021.2.3,MacIntel,60.0024001,,,,,,,,,,,0.8692,1,,,,,,,,,,,,,,z,1,0.8692,,,,,,,,0.069865451,-0.395902778,0,0,0,,0,154,154,91,1,SHENS,HB,old,z,./images/SHENSHB.png,,,,,,,,,,,,,,,,,,,,,,
,,,,,,,,,,,,,,,,,200398,18,2022-01-28_23h37.43.902,lexical_decision_task_DD_L5,2021.2.3,MacIntel,60.0024001,,,,,,,,,,,0.7753,1,,,,,,,,,,,,,,z,1,0.7753,,,,,,,,0.069865451,-0.395902778,0,0,0,,0,155,155,93,1,SMONE,C,old,z,./images/SMONE.png,,,,,,,,,,,,,,,,,,,,,,
,,,,,,,,,,,,,,,,,200398,18,2022-01-28_23h37.43.902,lexical_decision_task_DD_L5,2021.2.3,MacIntel,60.0024001,,,,,,,,,,,1.1753,1,,,,,,,,,,,,,,m,1,1.1753,,,,,,,,0.069865451,-0.395902778,0,0,0,,0,156,156,66,1,STATUE,HB,old,m,./images/STATUEHB.png,,,,,,,,,,,,,,,,,,,,,,
,,,,,,,,,,,,,,,,,200398,18,2022-01-28_23h37.43.902,lexical_decision_task_DD_L5,2021.2.3,MacIntel,60.0024001,,,,,,,,,,,0.8488,1,,,,,,,,,,,,,,m,1,0.8488,,,,,,,,0.069865451,-0.395902778,0,0,0,,0,157,157,54,1,CHERRY,HB,old,m,./images/CHERRYHB.png,,,,,,,,,,,,,,,,,,,,,,
,,,,,,,,,,,,,,,,,200398,18,2022-01-28_23h37.43.902,lexical_decision_task_DD_L5,2021.2.3,MacIntel,60.0024001,,,,,,,,,,,0.9504,1,,,,,,,,,,,,,,z,1,0.9504,,,,,,,,0.069865451,-0.395902778,0,0,0,,0,158,158,160,1,VEETS,HB,old,z,./images/VEETSHB.png,,,,,,,,,,,,,,,,,,,,,,
,,,,,,,,,,,,,,,,,200398,18,2022-01-28_23h37.43.902,lexical_decision_task_DD_L5,2021.2.3,MacIntel,60.0024001,,,,,,,,,,,0.8045,1,,,,,,,,,,,,,,m,1,0.8045,,,,,,,,0.069865451,-0.395902778,0,0,0,,0,159,159,42,1,CHAIN,HB,old,m,./images/CHAINHB.png,,,,,,,,,,,,,,,,,,,,,,
,,,,,,,,,,,,,,,,,200398,18,2022-01-28_23h37.43.902,lexical_decision_task_DD_L5,2021.2.3,MacIntel,60.0024001,,,,,,,,,,,0.7598,1,,,,,,,,,,,,,,m,1,0.7598,,,,,,,,0.069865451,-0.395902778,0,0,0,,0,160,160,38,1,ENGINE,C,old,m,./images/ENGINE.png,,,,,,,,,,,,,,,,,,,,,,
,,,,,,,,,,,,,,,,,200398,18,2022-01-28_23h37.43.902,lexical_decision_task_DD_L5,2021.2.3,MacIntel,60.0024001,,,,,,,,,,,0.7032,1,,,,,,,,,,,,,,m,1,0.7032,,,,,,,,0.069865451,-0.395902778,0,0,0,,0,161,161,13,1,BUNNY,LB,old,m,./images/BUNNYLB.png,,,,,,,,,,,,,,,,,,,,,,
,,,,,,,,,,,,,,,,,200398,18,2022-01-28_23h37.43.902,lexical_decision_task_DD_L5,2021.2.3,MacIntel,60.0024001,,,,,,,,,,,0.672,1,,,,,,,,,,,,,,m,1,0.672,,,,,,,,0.069865451,-0.395902778,0,0,0,,0,162,162,44,1,BASKET,C,old,m,./images/BASKET.png,,,,,,,,,,,,,,,,,,,,,,
,,,,,,,,,,,,,,,,,200398,18,2022-01-28_23h37.43.902,lexical_decision_task_DD_L5,2021.2.3,MacIntel,60.0024001,,,,,,,,,,,0.7497,1,,,,,,,,,,,,,,m,1,0.7497,,,,,,,,0.069865451,-0.395902778,0,0,0,,0,163,163,64,1,BRIDE,LB,old,m,./images/BRIDELB.png,,,,,,,,,,,,,,,,,,,,,,
,,,,,,,,,,,,,,,,,200398,18,2022-01-28_23h37.43.902,lexical_decision_task_DD_L5,2021.2.3,MacIntel,60.0024001,,,,,,,,,,,0.9695,1,,,,,,,,,,,,,,m,1,0.9695,,,,,,,,0.069865451,-0.395902778,0,0,0,,0,164,164,33,1,SAUNA,HB,old,m,./images/SAUNAHB.png,,,,,,,,,,,,,,,,,,,,,,
,,,,,,,,,,,,,,,,,200398,18,2022-01-28_23h37.43.902,lexical_decision_task_DD_L5,2021.2.3,MacIntel,60.0024001,,,,,,,,,,,0.8723,1,,,,,,,,,,,,,,m,1,0.8723,,,,,,,,0.069865451,-0.395902778,0,0,0,,0,165,165,72,1,FLASK,HB,old,m,./images/FLASKHB.png,,,,,,,,,,,,,,,,,,,,,,
,,,,,,,,,,,,,,,,,200398,18,2022-01-28_23h37.43.902,lexical_decision_task_DD_L5,2021.2.3,MacIntel,60.0024001,,,,,,,,,,,0.6145,0,,,,,,,,,,,,,,m,0,0.6145,,,,,,,,0.069865451,-0.395902778,0,0,0,,0,166,166,153,1,CLUPS,C,old,z,./images/CLUPS.png,,,,,,,,,,,,,,,,,,,,,,
,,,,,,,,,,,,,,,,,200398,18,2022-01-28_23h37.43.902,lexical_decision_task_DD_L5,2021.2.3,MacIntel,60.0024001,,,,,,,,,,,1.7154,1,,,,,,,,,,,,,,z,1,1.7154,,,,,,,,0.069865451,-0.395902778,0,0,0,,0,167,167,157,1,INLER,HB,old,z,./images/INLERHB.png,,,,,,,,,,,,,,,,,,,,,,
space,25.9559,0.069865451,-0.395902778,0,0,0,,,,,,1,test,"In the next phase you will be presented with the words from the the first phase. Your job is to decide whether you remember seeing the word or not. If you remember seeing the word press ""old"" or type ""m"". If you do not remember seeing the word press ""new"" or type ""z"". Please press the space bar or click on continue to begin. ",,,200398,18,2022-01-28_23h37.43.902,lexical_decision_task_DD_L5,2021.2.3,MacIntel,60.0024001,,,,,,,,,,,,,,,,,,,,,,,,,,,,,,,,,,,,,,,,,,,,,,,,,,,,,0,0,0,0,1,,,,,,,,,,,,,,,,
space,1.5512,0.069865451,-0.395902778,0,0,0,,,,,,1,test,"In the next phase you will be presented with the words from the the first phase. Your job is to decide whether you remember seeing the word or not. If you remember seeing the word press ""old"" or type ""m"". If you do not remember seeing the word press ""new"" or type ""z"". Please press the space bar or click on continue to begin. ",,,200398,18,2022-01-28_23h37.43.902,lexical_decision_task_DD_L5,2021.2.3,MacIntel,60.0024001,,,,,,,,,,,,,,,,,,,,,,,,,,,,,,,,,,,,,,,,,,,,,,,,,,,,,1,0,1,0,1,,,,,,,,,,,,,,,,
,,0.052634549,-0.409019097,1,0,0,,,,,,1,test,"In the next phase you will be presented with the words from the the first phase. Your job is to decide whether you remember seeing the word or not. If you remember seeing the word press ""old"" or type ""m"". If you do not remember seeing the word press ""new"" or type ""z"". Please press the space bar or click on continue to begin. ",,,200398,18,2022-01-28_23h37.43.902,lexical_decision_task_DD_L5,2021.2.3,MacIntel,60.0024001,,,,,,,,,,,,,,,,,,,,,,,,,,,,,,,,,,,,,,,,,,,,,,,,,,,,,2,0,2,0,1,instr_done_button,,,,,,,,,,,,,,,
space,15.749,0.154162326,0.057717014,0,0,0,,,,,,1,test,"In the next phase you will be presented with the words from the the first phase. Your job is to decide whether you remember seeing the word or not. If you remember seeing the word press ""old"" or type ""m"". If you do not remember seeing the word press ""new"" or type ""z"". Please press the space bar or click on continue to begin. ",,,200398,18,2022-01-28_23h37.43.902,lexical_decision_task_DD_L5,2021.2.3,MacIntel,60.0024001,,,,,,,,,,,,,,,,,,,,,,,,,,,,,,,,,,,,,,,,,,,,,,,,,,,,,3,0,3,0,1,,,,,,,,,,,,,,,,
space,0.1832,0.154162326,0.057717014,0,0,0,,,,,,1,test,"In the next phase you will be presented with the words from the the first phase. Your job is to decide whether you remember seeing the word or not. If you remember seeing the word press ""old"" or type ""m"". If you do not remember seeing the word press ""new"" or type ""z"". Please press the space bar or click on continue to begin. ",,,200398,18,2022-01-28_23h37.43.902,lexical_decision_task_DD_L5,2021.2.3,MacIntel,60.0024001,,,,,,,,,,,,,,,,,,,,,,,,,,,,,,,,,,,,,,,,,,,,,,,,,,,,,4,0,4,0,1,,,,,,,,,,,,,,,,
,,,,,,,,,,,,,,,,,200398,18,2022-01-28_23h37.43.902,lexical_decision_task_DD_L5,2021.2.3,MacIntel,60.0024001,,,,,,,,,,,2.0287,1,,,,,,,,,,,,,,,,,,,,,,,,0.154162326,0.057717014,0,0,0,,,,,,,STOOL,LB,m,y,./images/STOOLLB.png,,,,,,,,m,1,2.0287,,,,,,,,0,0,0,43,1
,,,,,,,,,,,,,,,,,200398,18,2022-01-28_23h37.43.902,lexical_decision_task_DD_L5,2021.2.3,MacIntel,60.0024001,,,,,,,,,,,1.6325,1,,,,,,,,,,,,,,,,,,,,,,,,0.154162326,0.057717014,0,0,0,,,,,,,FLASK,HB,m,y,./images/FLASKHB.png,,,,,,,,m,1,1.6325,,,,,,,,0,1,1,72,1
,,,,,,,,,,,,,,,,,200398,18,2022-01-28_23h37.43.902,lexical_decision_task_DD_L5,2021.2.3,MacIntel,60.0024001,,,,,,,,,,,1.491,1,,,,,,,,,,,,,,,,,,,,,,,,0.154162326,0.057717014,0,0,0,,,,,,,KITTEN,HB,z,y,./images/KITTENHB.png,,,,,,,,z,1,1.491,,,,,,,,0,2,2,129,1
,,,,,,,,,,,,,,,,,200398,18,2022-01-28_23h37.43.902,lexical_decision_task_DD_L5,2021.2.3,MacIntel,60.0024001,,,,,,,,,,,2.3959,0,,,,,,,,,,,,,,,,,,,,,,,,0.154162326,0.057717014,0,0,0,,,,,,,DRILL,HB,m,y,./images/DRILLHB.png,,,,,,,,z,0,2.3959,,,,,,,,0,3,3,81,1
,,,,,,,,,,,,,,,,,200398,18,2022-01-28_23h37.43.902,lexical_decision_task_DD_L5,2021.2.3,MacIntel,60.0024001,,,,,,,,,,,1.0944,0,,,,,,,,,,,,,,,,,,,,,,,,0.154162326,0.057717014,0,0,0,,,,,,,PLANET,C,m,y,./images/PLANET.png,,,,,,,,z,0,1.0944,,,,,,,,0,4,4,80,1
,,,,,,,,,,,,,,,,,200398,18,2022-01-28_23h37.43.902,lexical_decision_task_DD_L5,2021.2.3,MacIntel,60.0024001,,,,,,,,,,,0.9411,1,,,,,,,,,,,,,,,,,,,,,,,,0.154162326,0.057717014,0,0,0,,,,,,,BELLY,LB,z,y,./images/BELLYLB.png,,,,,,,,z,1,0.9411,,,,,,,,0,5,5,94,1
,,,,,,,,,,,,,,,,,200398,18,2022-01-28_23h37.43.902,lexical_decision_task_DD_L5,2021.2.3,MacIntel,60.0024001,,,,,,,,,,,1.1002,1,,,,,,,,,,,,,,,,,,,,,,,,0.154162326,0.057717014,0,0,0,,,,,,,BURIAL,C,z,y,./images/BURIAL.png,,,,,,,,z,1,1.1002,,,,,,,,0,6,6,143,1
,,,,,,,,,,,,,,,,,200398,18,2022-01-28_23h37.43.902,lexical_decision_task_DD_L5,2021.2.3,MacIntel,60.0024001,,,,,,,,,,,0.7667,1,,,,,,,,,,,,,,,,,,,,,,,,0.154162326,0.057717014,0,0,0,,,,,,,HOCKEY,C,m,y,./images/HOCKEY.png,,,,,,,,m,1,0.7667,,,,,,,,0,7,7,32,1
,,,,,,,,,,,,,,,,,200398,18,2022-01-28_23h37.43.902,lexical_decision_task_DD_L5,2021.2.3,MacIntel,60.0024001,,,,,,,,,,,1.1016,1,,,,,,,,,,,,,,,,,,,,,,,,0.154162326,0.057717014,0,0,0,,,,,,,CHERRY,HB,m,y,./images/CHERRYHB.png,,,,,,,,m,1,1.1016,,,,,,,,0,8,8,54,1
,,,,,,,,,,,,,,,,,200398,18,2022-01-28_23h37.43.902,lexical_decision_task_DD_L5,2021.2.3,MacIntel,60.0024001,,,,,,,,,,,0.6642,1,,,,,,,,,,,,,,,,,,,,,,,,0.154162326,0.057717014,0,0,0,,,,,,,SPINE,C,m,y,./images/SPINE.png,,,,,,,,m,1,0.6642,,,,,,,,0,9,9,65,1
,,,,,,,,,,,,,,,,,200398,18,2022-01-28_23h37.43.902,lexical_decision_task_DD_L5,2021.2.3,MacIntel,60.0024001,,,,,,,,,,,0.7915,1,,,,,,,,,,,,,,,,,,,,,,,,0.154162326,0.057717014,0,0,0,,,,,,,BIRTH,LB,z,y,./images/BIRTHLB.png,,,,,,,,z,1,0.7915,,,,,,,,0,10,10,121,1
,,,,,,,,,,,,,,,,,200398,18,2022-01-28_23h37.43.902,lexical_decision_task_DD_L5,2021.2.3,MacIntel,60.0024001,,,,,,,,,,,0.9018,1,,,,,,,,,,,,,,,,,,,,,,,,0.154162326,0.057717014,0,0,0,,,,,,,FINGER,HB,z,y,./images/FINGERHB.png,,,,,,,,z,1,0.9018,,,,,,,,0,11,11,87,1
,,,,,,,,,,,,,,,,,200398,18,2022-01-28_23h37.43.902,lexical_decision_task_DD_L5,2021.2.3,MacIntel,60.0024001,,,,,,,,,,,0.9244,0,,,,,,,,,,,,,,,,,,,,,,,,0.154162326,0.057717014,0,0,0,,,,,,,BARREL,C,z,y,./images/BARREL.png,,,,,,,,m,0,0.9244,,,,,,,,0,12,12,116,1
,,,,,,,,,,,,,,,,,200398,18,2022-01-28_23h37.43.902,lexical_decision_task_DD_L5,2021.2.3,MacIntel,60.0024001,,,,,,,,,,,0.824,1,,,,,,,,,,,,,,,,,,,,,,,,0.154162326,0.057717014,0,0,0,,,,,,,WHEEL,C,m,y,./images/WHEEL.png,,,,,,,,m,1,0.824,,,,,,,,0,13,13,77,1
,,,,,,,,,,,,,,,,,200398,18,2022-01-28_23h37.43.902,lexical_decision_task_DD_L5,2021.2.3,MacIntel,60.0024001,,,,,,,,,,,0.7293,1,,,,,,,,,,,,,,,,,,,,,,,,0.154162326,0.057717014,0,0,0,,,,,,,BOXER,LB,m,y,./images/BOXERLB.png,,,,,,,,m,1,0.7293,,,,,,,,0,14,14,4,1
,,,,,,,,,,,,,,,,,200398,18,2022-01-28_23h37.43.902,lexical_decision_task_DD_L5,2021.2.3,MacIntel,60.0024001,,,,,,,,,,,0.7991,1,,,,,,,,,,,,,,,,,,,,,,,,0.154162326,0.057717014,0,0,0,,,,,,,TWINS,HB,z,y,./images/TWINSHB.png,,,,,,,,z,1,0.7991,,,,,,,,0,15,15,144,1
,,,,,,,,,,,,,,,,,200398,18,2022-01-28_23h37.43.902,lexical_decision_task_DD_L5,2021.2.3,MacIntel,60.0024001,,,,,,,,,,,0.8708,0,,,,,,,,,,,,,,,,,,,,,,,,0.154162326,0.057717014,0,0,0,,,,,,,ARTIST,LB,m,y,./images/ARTISTLB.png,,,,,,,,z,0,0.8708,,,,,,,,0,16,16,61,1
,,,,,,,,,,,,,,,,,200398,18,2022-01-28_23h37.43.902,lexical_decision_task_DD_L5,2021.2.3,MacIntel,60.0024001,,,,,,,,,,,0.8032,0,,,,,,,,,,,,,,,,,,,,,,,,0.154162326,0.057717014,0,0,0,,,,,,,MELON,LB,z,y,./images/MELONLB.png,,,,,,,,m,0,0.8032,,,,,,,,0,17,17,106,1
,,,,,,,,,,,,,,,,,200398,18,2022-01-28_23h37.43.902,lexical_decision_task_DD_L5,2021.2.3,MacIntel,60.0024001,,,,,,,,,,,0.9657,1,,,,,,,,,,,,,,,,,,,,,,,,0.154162326,0.057717014,0,0,0,,,,,,,BUNNY,LB,m,y,./images/BUNNYLB.png,,,,,,,,m,1,0.9657,,,,,,,,0,18,18,13,1
,,,,,,,,,,,,,,,,,200398,18,2022-01-28_23h37.43.902,lexical_decision_task_DD_L5,2021.2.3,MacIntel,60.0024001,,,,,,,,,,,1.041,1,,,,,,,,,,,,,,,,,,,,,,,,0.154162326,0.057717014,0,0,0,,,,,,,PURSE,C,z,y,./images/PURSE.png,,,,,,,,z,1,1.041,,,,,,,,0,19,19,146,1
,,,,,,,,,,,,,,,,,200398,18,2022-01-28_23h37.43.902,lexical_decision_task_DD_L5,2021.2.3,MacIntel,60.0024001,,,,,,,,,,,1.0341,1,,,,,,,,,,,,,,,,,,,,,,,,0.154162326,0.057717014,0,0,0,,,,,,,DIVER,HB,m,y,./images/DIVERHB.png,,,,,,,,m,1,1.0341,,,,,,,,0,20,20,9,1
,,,,,,,,,,,,,,,,,200398,18,2022-01-28_23h37.43.902,lexical_decision_task_DD_L5,2021.2.3,MacIntel,60.0024001,,,,,,,,,,,1.0988,1,,,,,,,,,,,,,,,,,,,,,,,,0.154162326,0.057717014,0,0,0,,,,,,,CLOUD,C,m,y,./images/CLOUD.png,,,,,,,,m,1,1.0988,,,,,,,,0,21,21,26,1
,,,,,,,,,,,,,,,,,200398,18,2022-01-28_23h37.43.902,lexical_decision_task_DD_L5,2021.2.3,MacIntel,60.0024001,,,,,,,,,,,1.2991,1,,,,,,,,,,,,,,,,,,,,,,,,0.154162326,0.057717014,0,0,0,,,,,,,TIGER,LB,m,y,./images/TIGERLB.png,,,,,,,,m,1,1.2991,,,,,,,,0,22,22,37,1
,,,,,,,,,,,,,,,,,200398,18,2022-01-28_23h37.43.902,lexical_decision_task_DD_L5,2021.2.3,MacIntel,60.0024001,,,,,,,,,,,0.766,1,,,,,,,,,,,,,,,,,,,,,,,,0.154162326,0.057717014,0,0,0,,,,,,,BRIDE,LB,m,y,./images/BRIDELB.png,,,,,,,,m,1,0.766,,,,,,,,0,23,23,64,1
,,,,,,,,,,,,,,,,,200398,18,2022-01-28_23h37.43.902,lexical_decision_task_DD_L5,2021.2.3,MacIntel,60.0024001,,,,,,,,,,,1.1336,0,,,,,,,,,,,,,,,,,,,,,,,,0.154162326,0.057717014,0,0,0,,,,,,,PICKLE,C,z,y,./images/PICKLE.png,,,,,,,,m,0,1.1336,,,,,,,,0,24,24,98,1
,,,,,,,,,,,,,,,,,200398,18,2022-01-28_23h37.43.902,lexical_decision_task_DD_L5,2021.2.3,MacIntel,60.0024001,,,,,,,,,,,0.884,1,,,,,,,,,,,,,,,,,,,,,,,,0.154162326,0.057717014,0,0,0,,,,,,,CRADLE,C,z,y,./images/CRADLE.png,,,,,,,,z,1,0.884,,,,,,,,0,25,25,104,1
,,,,,,,,,,,,,,,,,200398,18,2022-01-28_23h37.43.902,lexical_decision_task_DD_L5,2021.2.3,MacIntel,60.0024001,,,,,,,,,,,1.0728,1,,,,,,,,,,,,,,,,,,,,,,,,0.154162326,0.057717014,0,0,0,,,,,,,SHELF,HB,z,y,./images/SHELFHB.png,,,,,,,,z,1,1.0728,,,,,,,,0,26,26,123,1
,,,,,,,,,,,,,,,,,200398,18,2022-01-28_23h37.43.902,lexical_decision_task_DD_L5,2021.2.3,MacIntel,60.0024001,,,,,,,,,,,0.7324,1,,,,,,,,,,,,,,,,,,,,,,,,0.154162326,0.057717014,0,0,0,,,,,,,PILOT,C,m,y,./images/PILOT.png,,,,,,,,m,1,0.7324,,,,,,,,0,27,27,50,1
,,,,,,,,,,,,,,,,,200398,18,2022-01-28_23h37.43.902,lexical_decision_task_DD_L5,2021.2.3,MacIntel,60.0024001,,,,,,,,,,,0.7456,1,,,,,,,,,,,,,,,,,,,,,,,,0.154162326,0.057717014,0,0,0,,,,,,,DESERT,LB,m,y,./images/DESERTLB.png,,,,,,,,m,1,0.7456,,,,,,,,0,28,28,52,1
,,,,,,,,,,,,,,,,,200398,18,2022-01-28_23h37.43.902,lexical_decision_task_DD_L5,2021.2.3,MacIntel,60.0024001,,,,,,,,,,,1.0687,1,,,,,,,,,,,,,,,,,,,,,,,,0.154162326,0.057717014,0,0,0,,,,,,,BRUSH,C,m,y,./images/BRUSH.png,,,,,,,,m,1,1.0687,,,,,,,,0,29,29,59,1
,,,,,,,,,,,,,,,,,200398,18,2022-01-28_23h37.43.902,lexical_decision_task_DD_L5,2021.2.3,MacIntel,60.0024001,,,,,,,,,,,1.1385,1,,,,,,,,,,,,,,,,,,,,,,,,0.154162326,0.057717014,0,0,0,,,,,,,WAGON,LB,m,y,./images/WAGONLB.png,,,,,,,,m,1,1.1385,,,,,,,,0,30,30,7,1
,,,,,,,,,,,,,,,,,200398,18,2022-01-28_23h37.43.902,lexical_decision_task_DD_L5,2021.2.3,MacIntel,60.0024001,,,,,,,,,,,0.5667,1,,,,,,,,,,,,,,,,,,,,,,,,0.154162326,0.057717014,0,0,0,,,,,,,RAZOR,LB,m,y,./images/RAZORLB.png,,,,,,,,m,1,0.5667,,,,,,,,0,31,31,34,1
,,,,,,,,,,,,,,,,,200398,18,2022-01-28_23h37.43.902,lexical_decision_task_DD_L5,2021.2.3,MacIntel,60.0024001,,,,,,,,,,,0.6858,1,,,,,,,,,,,,,,,,,,,,,,,,0.154162326,0.057717014,0,0,0,,,,,,,DANCER,HB,m,y,./images/DANCERHB.png,,,,,,,,m,1,0.6858,,,,,,,,0,32,32,21,1
,,,,,,,,,,,,,,,,,200398,18,2022-01-28_23h37.43.902,lexical_decision_task_DD_L5,2021.2.3,MacIntel,60.0024001,,,,,,,,,,,0.8313,1,,,,,,,,,,,,,,,,,,,,,,,,0.154162326,0.057717014,0,0,0,,,,,,,PEARL,LB,z,y,./images/PEARLLB.png,,,,,,,,z,1,0.8313,,,,,,,,0,33,33,130,1
,,,,,,,,,,,,,,,,,200398,18,2022-01-28_23h37.43.902,lexical_decision_task_DD_L5,2021.2.3,MacIntel,60.0024001,,,,,,,,,,,0.751,1,,,,,,,,,,,,,,,,,,,,,,,,0.154162326,0.057717014,0,0,0,,,,,,,HAMMER,HB,m,y,./images/HAMMERHB.png,,,,,,,,m,1,0.751,,,,,,,,0,34,34,75,1
,,,,,,,,,,,,,,,,,200398,18,2022-01-28_23h37.43.902,lexical_decision_task_DD_L5,2021.2.3,MacIntel,60.0024001,,,,,,,,,,,0.7318,1,,,,,,,,,,,,,,,,,,,,,,,,0.154162326,0.057717014,0,0,0,,,,,,,BANANA,LB,m,y,./images/BANANALB.png,,,,,,,,m,1,0.7318,,,,,,,,0,35,35,70,1
,,,,,,,,,,,,,,,,,200398,18,2022-01-28_23h37.43.902,lexical_decision_task_DD_L5,2021.2.3,MacIntel,60.0024001,,,,,,,,,,,0.6747,1,,,,,,,,,,,,,,,,,,,,,,,,0.154162326,0.057717014,0,0,0,,,,,,,WHISKY,C,m,y,./images/WHISKY.png,,,,,,,,m,1,0.6747,,,,,,,,0,36,36,83,1
,,,,,,,,,,,,,,,,,200398,18,2022-01-28_23h37.43.902,lexical_decision_task_DD_L5,2021.2.3,MacIntel,60.0024001,,,,,,,,,,,1.0684,0,,,,,,,,,,,,,,,,,,,,,,,,0.154162326,0.057717014,0,0,0,,,,,,,COOKER,HB,z,y,./images/COOKERHB.png,,,,,,,,m,0,1.0684,,,,,,,,0,37,37,153,1
,,,,,,,,,,,,,,,,,200398,18,2022-01-28_23h37.43.902,lexical_decision_task_DD_L5,2021.2.3,MacIntel,60.0024001,,,,,,,,,,,0.6144,1,,,,,,,,,,,,,,,,,,,,,,,,0.154162326,0.057717014,0,0,0,,,,,,,GRANNY,C,m,y,./images/GRANNY.png,,,,,,,,m,1,0.6144,,,,,,,,0,38,38,20,1
,,,,,,,,,,,,,,,,,200398,18,2022-01-28_23h37.43.902,lexical_decision_task_DD_L5,2021.2.3,MacIntel,60.0024001,,,,,,,,,,,0.5301,1,,,,,,,,,,,,,,,,,,,,,,,,0.154162326,0.057717014,0,0,0,,,,,,,GRAPE,LB,m,y,./images/GRAPELB.png,,,,,,,,m,1,0.5301,,,,,,,,0,39,39,16,1
,,,,,,,,,,,,,,,,,200398,18,2022-01-28_23h37.43.902,lexical_decision_task_DD_L5,2021.2.3,MacIntel,60.0024001,,,,,,,,,,,0.7017,1,,,,,,,,,,,,,,,,,,,,,,,,0.154162326,0.057717014,0,0,0,,,,,,,SHORE,HB,z,y,./images/SHOREHB.png,,,,,,,,z,1,0.7017,,,,,,,,0,40,40,96,1
,,,,,,,,,,,,,,,,,200398,18,2022-01-28_23h37.43.902,lexical_decision_task_DD_L5,2021.2.3,MacIntel,60.0024001,,,,,,,,,,,1.095,1,,,,,,,,,,,,,,,,,,,,,,,,0.154162326,0.057717014,0,0,0,space,,,,,,CLIFF,C,m,y,./images/CLIFF.png,29.9078,,,,,,,m,1,1.095,,,,,,,,0,41,41,8,1
,,,,,,,,,,,,,,,,,200398,18,2022-01-28_23h37.43.902,lexical_decision_task_DD_L5,2021.2.3,MacIntel,60.0024001,,,,,,,,,,,1.3555,1,,,,,,,,,,,,,,,,,,,,,,,,0.154162326,0.057717014,0,0,0,,,,,,,STOVE,C,m,y,./images/STOVE.png,,,,,,,,m,1,1.3555,,,,,,,,0,42,42,2,1
,,,,,,,,,,,,,,,,,200398,18,2022-01-28_23h37.43.902,lexical_decision_task_DD_L5,2021.2.3,MacIntel,60.0024001,,,,,,,,,,,0.8015,0,,,,,,,,,,,,,,,,,,,,,,,,0.154162326,0.057717014,0,0,0,,,,,,,MAGGOT,HB,z,y,./images/MAGGOTHB.png,,,,,,,,m,0,0.8015,,,,,,,,0,43,43,117,1
,,,,,,,,,,,,,,,,,200398,18,2022-01-28_23h37.43.902,lexical_decision_task_DD_L5,2021.2.3,MacIntel,60.0024001,,,,,,,,,,,0.6459,1,,,,,,,,,,,,,,,,,,,,,,,,0.154162326,0.057717014,0,0,0,,,,,,,BAMBOO,C,m,y,./images/BAMBOO.png,,,,,,,,m,1,0.6459,,,,,,,,0,44,44,5,1
,,,,,,,,,,,,,,,,,200398,18,2022-01-28_23h37.43.902,lexical_decision_task_DD_L5,2021.2.3,MacIntel,60.0024001,,,,,,,,,,,1.2508,1,,,,,,,,,,,,,,,,,,,,,,,,0.154162326,0.057717014,0,0,0,,,,,,,WALRUS,C,z,y,./images/WALRUS.png,,,,,,,,z,1,1.2508,,,,,,,,0,45,45,107,1
,,,,,,,,,,,,,,,,,200398,18,2022-01-28_23h37.43.902,lexical_decision_task_DD_L5,2021.2.3,MacIntel,60.0024001,,,,,,,,,,,0.9678,0,,,,,,,,,,,,,,,,,,,,,,,,0.154162326,0.057717014,0,0,0,,,,,,,WRIST,LB,z,y,./images/WRISTLB.png,,,,,,,,m,0,0.9678,,,,,,,,0,46,46,109,1
,,,,,,,,,,,,,,,,,200398,18,2022-01-28_23h37.43.902,lexical_decision_task_DD_L5,2021.2.3,MacIntel,60.0024001,,,,,,,,,,,0.8904,1,,,,,,,,,,,,,,,,,,,,,,,,0.154162326,0.057717014,0,0,0,,,,,,,ENGINE,C,m,y,./images/ENGINE.png,,,,,,,,m,1,0.8904,,,,,,,,0,47,47,38,1
,,,,,,,,,,,,,,,,,200398,18,2022-01-28_23h37.43.902,lexical_decision_task_DD_L5,2021.2.3,MacIntel,60.0024001,,,,,,,,,,,0.5988,1,,,,,,,,,,,,,,,,,,,,,,,,0.154162326,0.057717014,0,0,0,,,,,,,MUMMY,LB,m,y,./images/MUMMYLB.png,,,,,,,,m,1,0.5988,,,,,,,,0,48,48,46,1
,,,,,,,,,,,,,,,,,200398,18,2022-01-28_23h37.43.902,lexical_decision_task_DD_L5,2021.2.3,MacIntel,60.0024001,,,,,,,,,,,0.8919,1,,,,,,,,,,,,,,,,,,,,,,,,0.154162326,0.057717014,0,0,0,,,,,,,PAINT,LB,z,y,./images/PAINTLB.png,,,,,,,,z,1,0.8919,,,,,,,,0,49,49,91,1
,,,,,,,,,,,,,,,,,200398,18,2022-01-28_23h37.43.902,lexical_decision_task_DD_L5,2021.2.3,MacIntel,60.0024001,,,,,,,,,,,0.785,0,,,,,,,,,,,,,,,,,,,,,,,,0.154162326,0.057717014,0,0,0,,,,,,,STORM,HB,z,y,./images/STORMHB.png,,,,,,,,m,0,0.785,,,,,,,,0,50,50,114,1
,,,,,,,,,,,,,,,,,200398,18,2022-01-28_23h37.43.902,lexical_decision_task_DD_L5,2021.2.3,MacIntel,60.0024001,,,,,,,,,,,0.933,1,,,,,,,,,,,,,,,,,,,,,,,,0.154162326,0.057717014,0,0,0,,,,,,,TORCH,C,z,y,./images/TORCH.png,,,,,,,,z,1,0.933,,,,,,,,0,51,51,152,1
,,,,,,,,,,,,,,,,,200398,18,2022-01-28_23h37.43.902,lexical_decision_task_DD_L5,2021.2.3,MacIntel,60.0024001,,,,,,,,,,,0.7166,0,,,,,,,,,,,,,,,,,,,,,,,,0.154162326,0.057717014,0,0,0,,,,,,,PASTA,C,z,y,./images/PASTA.png,,,,,,,,m,0,0.7166,,,,,,,,0,52,52,89,1
,,,,,,,,,,,,,,,,,200398,18,2022-01-28_23h37.43.902,lexical_decision_task_DD_L5,2021.2.3,MacIntel,60.0024001,,,,,,,,,,,0.6812,1,,,,,,,,,,,,,,,,,,,,,,,,0.154162326,0.057717014,0,0,0,,,,,,,BOILER,HB,m,y,./images/BOILERHB.png,,,,,,,,m,1,0.6812,,,,,,,,0,53,53,36,1
,,,,,,,,,,,,,,,,,200398,18,2022-01-28_23h37.43.902,lexical_decision_task_DD_L5,2021.2.3,MacIntel,60.0024001,,,,,,,,,,,1.3177,1,,,,,,,,,,,,,,,,,,,,,,,,0.154162326,0.057717014,0,0,0,,,,,,,CLOWN,LB,m,y,./images/CLOWNLB.png,,,,,,,,m,1,1.3177,,,,,,,,0,54,54,22,1
,,,,,,,,,,,,,,,,,200398,18,2022-01-28_23h37.43.902,lexical_decision_task_DD_L5,2021.2.3,MacIntel,60.0024001,,,,,,,,,,,0.8973,1,,,,,,,,,,,,,,,,,,,,,,,,0.154162326,0.057717014,0,0,0,,,,,,,FLESH,HB,m,y,./images/FLESHHB.png,,,,,,,,m,1,0.8973,,,,,,,,0,55,55,24,1
,,,,,,,,,,,,,,,,,200398,18,2022-01-28_23h37.43.902,lexical_decision_task_DD_L5,2021.2.3,MacIntel,60.0024001,,,,,,,,,,,0.8356,1,,,,,,,,,,,,,,,,,,,,,,,,0.154162326,0.057717014,0,0,0,,,,,,,RULER,LB,m,y,./images/RULERLB.png,,,,,,,,m,1,0.8356,,,,,,,,0,56,56,79,1
,,,,,,,,,,,,,,,,,200398,18,2022-01-28_23h37.43.902,lexical_decision_task_DD_L5,2021.2.3,MacIntel,60.0024001,,,,,,,,,,,0.6665,1,,,,,,,,,,,,,,,,,,,,,,,,0.154162326,0.057717014,0,0,0,,,,,,,WALNUT,HB,m,y,./images/WALNUTHB.png,,,,,,,,m,1,0.6665,,,,,,,,0,57,57,0,1
,,,,,,,,,,,,,,,,,200398,18,2022-01-28_23h37.43.902,lexical_decision_task_DD_L5,2021.2.3,MacIntel,60.0024001,,,,,,,,,,,0.8,0,,,,,,,,,,,,,,,,,,,,,,,,0.154162326,0.057717014,0,0,0,,,,,,,STRING,C,z,y,./images/STRING.png,,,,,,,,m,0,0.8,,,,,,,,0,58,58,125,1
,,,,,,,,,,,,,,,,,200398,18,2022-01-28_23h37.43.902,lexical_decision_task_DD_L5,2021.2.3,MacIntel,60.0024001,,,,,,,,,,,0.6484,1,,,,,,,,,,,,,,,,,,,,,,,,0.154162326,0.057717014,0,0,0,,,,,,,STATUE,HB,m,y,./images/STATUEHB.png,,,,,,,,m,1,0.6484,,,,,,,,0,59,59,66,1
,,,,,,,,,,,,,,,,,200398,18,2022-01-28_23h37.43.902,lexical_decision_task_DD_L5,2021.2.3,MacIntel,60.0024001,,,,,,,,,,,0.8494,1,,,,,,,,,,,,,,,,,,,,,,,,0.154162326,0.057717014,0,0,0,,,,,,,QUILL,LB,z,y,./images/QUILLLB.png,,,,,,,,z,1,0.8494,,,,,,,,0,60,60,115,1
,,,,,,,,,,,,,,,,,200398,18,2022-01-28_23h37.43.902,lexical_decision_task_DD_L5,2021.2.3,MacIntel,60.0024001,,,,,,,,,,,0.6835,0,,,,,,,,,,,,,,,,,,,,,,,,0.154162326,0.057717014,0,0,0,,,,,,,CANDLE,LB,z,y,./images/CANDLELB.png,,,,,,,,m,0,0.6835,,,,,,,,0,61,61,145,1
,,,,,,,,,,,,,,,,,200398,18,2022-01-28_23h37.43.902,lexical_decision_task_DD_L5,2021.2.3,MacIntel,60.0024001,,,,,,,,,,,0.6737,1,,,,,,,,,,,,,,,,,,,,,,,,0.154162326,0.057717014,0,0,0,,,,,,,SAUCE,HB,m,y,./images/SAUCEHB.png,,,,,,,,m,1,0.6737,,,,,,,,0,62,62,51,1
,,,,,,,,,,,,,,,,,200398,18,2022-01-28_23h37.43.902,lexical_decision_task_DD_L5,2021.2.3,MacIntel,60.0024001,,,,,,,,,,,0.5998,1,,,,,,,,,,,,,,,,,,,,,,,,0.154162326,0.057717014,0,0,0,,,,,,,BASKET,C,m,y,./images/BASKET.png,,,,,,,,m,1,0.5998,,,,,,,,0,63,63,44,1
,,,,,,,,,,,,,,,,,200398,18,2022-01-28_23h37.43.902,lexical_decision_task_DD_L5,2021.2.3,MacIntel,60.0024001,,,,,,,,,,,0.7673,1,,,,,,,,,,,,,,,,,,,,,,,,0.154162326,0.057717014,0,0,0,,,,,,,SUNSET,LB,z,y,./images/SUNSETLB.png,,,,,,,,z,1,0.7673,,,,,,,,0,64,64,166,1
,,,,,,,,,,,,,,,,,200398,18,2022-01-28_23h37.43.902,lexical_decision_task_DD_L5,2021.2.3,MacIntel,60.0024001,,,,,,,,,,,0.7668,0,,,,,,,,,,,,,,,,,,,,,,,,0.154162326,0.057717014,0,0,0,,,,,,,BLOKE,HB,m,y,./images/BLOKEHB.png,,,,,,,,z,0,0.7668,,,,,,,,0,65,65,12,1
,,,,,,,,,,,,,,,,,200398,18,2022-01-28_23h37.43.902,lexical_decision_task_DD_L5,2021.2.3,MacIntel,60.0024001,,,,,,,,,,,0.6516,0,,,,,,,,,,,,,,,,,,,,,,,,0.154162326,0.057717014,0,0,0,,,,,,,ATTIC,HB,z,y,./images/ATTICHB.png,,,,,,,,m,0,0.6516,,,,,,,,0,66,66,111,1
,,,,,,,,,,,,,,,,,200398,18,2022-01-28_23h37.43.902,lexical_decision_task_DD_L5,2021.2.3,MacIntel,60.0024001,,,,,,,,,,,1.0953,1,,,,,,,,,,,,,,,,,,,,,,,,0.154162326,0.057717014,0,0,0,,,,,,,TOWEL,LB,m,y,./images/TOWELLB.png,,,,,,,,m,1,1.0953,,,,,,,,0,67,67,1,1
,,,,,,,,,,,,,,,,,200398,18,2022-01-28_23h37.43.902,lexical_decision_task_DD_L5,2021.2.3,MacIntel,60.0024001,,,,,,,,,,,0.74,1,,,,,,,,,,,,,,,,,,,,,,,,0.154162326,0.057717014,0,0,0,,,,,,,LAGOON,C,m,y,./images/LAGOON.png,,,,,,,,m,1,0.74,,,,,,,,0,68,68,47,1
,,,,,,,,,,,,,,,,,200398,18,2022-01-28_23h37.43.902,lexical_decision_task_DD_L5,2021.2.3,MacIntel,60.0024001,,,,,,,,,,,0.9764,1,,,,,,,,,,,,,,,,,,,,,,,,0.154162326,0.057717014,0,0,0,,,,,,,STREAM,C,m,y,./images/STREAM.png,,,,,,,,m,1,0.9764,,,,,,,,0,69,69,41,1
,,,,,,,,,,,,,,,,,200398,18,2022-01-28_23h37.43.902,lexical_decision_task_DD_L5,2021.2.3,MacIntel,60.0024001,,,,,,,,,,,1.1007,0,,,,,,,,,,,,,,,,,,,,,,,,0.154162326,0.057717014,0,0,0,,,,,,,PLANK,LB,z,y,./images/PLANKLB.png,,,,,,,,m,0,1.1007,,,,,,,,0,70,70,85,1
,,,,,,,,,,,,,,,,,200398,18,2022-01-28_23h37.43.902,lexical_decision_task_DD_L5,2021.2.3,MacIntel,60.0024001,,,,,,,,,,,0.7524,0,,,,,,,,,,,,,,,,,,,,,,,,0.154162326,0.057717014,0,0,0,,,,,,,POODLE,HB,z,y,./images/POODLEHB.png,,,,,,,,m,0,0.7524,,,,,,,,0,71,71,165,1
,,,,,,,,,,,,,,,,,200398,18,2022-01-28_23h37.43.902,lexical_decision_task_DD_L5,2021.2.3,MacIntel,60.0024001,,,,,,,,,,,0.8071,0,,,,,,,,,,,,,,,,,,,,,,,,0.154162326,0.057717014,0,0,0,,,,,,,PENCE,LB,z,y,./images/PENCELB.png,,,,,,,,m,0,0.8071,,,,,,,,0,72,72,100,1
,,,,,,,,,,,,,,,,,200398,18,2022-01-28_23h37.43.902,lexical_decision_task_DD_L5,2021.2.3,MacIntel,60.0024001,,,,,,,,,,,0.7879,0,,,,,,,,,,,,,,,,,,,,,,,,0.154162326,0.057717014,0,0,0,,,,,,,SKIING,C,z,y,./images/SKIING.png,,,,,,,,m,0,0.7879,,,,,,,,0,73,73,101,1
,,,,,,,,,,,,,,,,,200398,18,2022-01-28_23h37.43.902,lexical_decision_task_DD_L5,2021.2.3,MacIntel,60.0024001,,,,,,,,,,,0.5676,1,,,,,,,,,,,,,,,,,,,,,,,,0.154162326,0.057717014,0,0,0,,,,,,,BUBBLE,C,m,y,./images/BUBBLE.png,,,,,,,,m,1,0.5676,,,,,,,,0,74,74,71,1
,,,,,,,,,,,,,,,,,200398,18,2022-01-28_23h37.43.902,lexical_decision_task_DD_L5,2021.2.3,MacIntel,60.0024001,,,,,,,,,,,0.6757,0,,,,,,,,,,,,,,,,,,,,,,,,0.154162326,0.057717014,0,0,0,,,,,,,BEARD,C,z,y,./images/BEARD.png,,,,,,,,m,0,0.6757,,,,,,,,0,75,75,86,1
,,,,,,,,,,,,,,,,,200398,18,2022-01-28_23h37.43.902,lexical_decision_task_DD_L5,2021.2.3,MacIntel,60.0024001,,,,,,,,,,,1.0414,1,,,,,,,,,,,,,,,,,,,,,,,,0.154162326,0.057717014,0,0,0,,,,,,,PACKET,C,z,y,./images/PACKET.png,,,,,,,,z,1,1.0414,,,,,,,,0,76,76,140,1
,,,,,,,,,,,,,,,,,200398,18,2022-01-28_23h37.43.902,lexical_decision_task_DD_L5,2021.2.3,MacIntel,60.0024001,,,,,,,,,,,0.8686,0,,,,,,,,,,,,,,,,,,,,,,,,0.154162326,0.057717014,0,0,0,,,,,,,SWEAT,HB,z,y,./images/SWEATHB.png,,,,,,,,m,0,0.8686,,,,,,,,0,77,77,150,1
,,,,,,,,,,,,,,,,,200398,18,2022-01-28_23h37.43.902,lexical_decision_task_DD_L5,2021.2.3,MacIntel,60.0024001,,,,,,,,,,,1.0236,0,,,,,,,,,,,,,,,,,,,,,,,,0.154162326,0.057717014,0,0,0,,,,,,,BONNET,C,z,y,./images/BONNET.png,,,,,,,,m,0,1.0236,,,,,,,,0,78,78,95,1
,,,,,,,,,,,,,,,,,200398,18,2022-01-28_23h37.43.902,lexical_decision_task_DD_L5,2021.2.3,MacIntel,60.0024001,,,,,,,,,,,0.6868,1,,,,,,,,,,,,,,,,,,,,,,,,0.154162326,0.057717014,0,0,0,,,,,,,CURRY,HB,m,y,./images/CURRYHB.png,,,,,,,,m,1,0.6868,,,,,,,,0,79,79,60,1
,,,,,,,,,,,,,,,,,200398,18,2022-01-28_23h37.43.902,lexical_decision_task_DD_L5,2021.2.3,MacIntel,60.0024001,,,,,,,,,,,0.8255,0,,,,,,,,,,,,,,,,,,,,,,,,0.154162326,0.057717014,0,0,0,,,,,,,THROAT,HB,z,y,./images/THROATHB.png,,,,,,,,m,0,0.8255,,,,,,,,0,80,80,120,1
,,,,,,,,,,,,,,,,,200398,18,2022-01-28_23h37.43.902,lexical_decision_task_DD_L5,2021.2.3,MacIntel,60.0024001,,,,,,,,,,,0.58,0,,,,,,,,,,,,,,,,,,,,,,,,0.154162326,0.057717014,0,0,0,,,,,,,SAILOR,LB,z,y,./images/SAILORLB.png,,,,,,,,m,0,0.58,,,,,,,,0,81,81,151,1
,,,,,,,,,,,,,,,,,200398,18,2022-01-28_23h37.43.902,lexical_decision_task_DD_L5,2021.2.3,MacIntel,60.0024001,,,,,,,,,,,0.6669,0,,,,,,,,,,,,,,,,,,,,,,,,0.154162326,0.057717014,0,0,0,,,,,,,TOMATO,HB,z,y,./images/TOMATOHB.png,,,,,,,,m,0,0.6669,,,,,,,,0,82,82,84,1
,,,,,,,,,,,,,,,,,200398,18,2022-01-28_23h37.43.902,lexical_decision_task_DD_L5,2021.2.3,MacIntel,60.0024001,,,,,,,,,,,1,0,,,,,,,,,,,,,,,,,,,,,,,,0.154162326,0.057717014,0,0,0,space,,,,,,CRATER,HB,m,y,./images/CRATERHB.png,1.2062,,,,,,,z,0,1,,,,,,,,0,83,83,3,1
,,,,,,,,,,,,,,,,,200398,18,2022-01-28_23h37.43.902,lexical_decision_task_DD_L5,2021.2.3,MacIntel,60.0024001,,,,,,,,,,,1.0314,1,,,,,,,,,,,,,,,,,,,,,,,,0.154162326,0.057717014,0,0,0,,,,,,,LIZARD,C,z,y,./images/LIZARD.png,,,,,,,,z,1,1.0314,,,,,,,,0,84,84,128,1
,,,,,,,,,,,,,,,,,200398,18,2022-01-28_23h37.43.902,lexical_decision_task_DD_L5,2021.2.3,MacIntel,60.0024001,,,,,,,,,,,0.9648,1,,,,,,,,,,,,,,,,,,,,,,,,0.154162326,0.057717014,0,0,0,,,,,,,HEATER,C,m,y,./images/HEATER.png,,,,,,,,m,1,0.9648,,,,,,,,0,85,85,56,1
,,,,,,,,,,,,,,,,,200398,18,2022-01-28_23h37.43.902,lexical_decision_task_DD_L5,2021.2.3,MacIntel,60.0024001,,,,,,,,,,,0.8092,1,,,,,,,,,,,,,,,,,,,,,,,,0.154162326,0.057717014,0,0,0,,,,,,,DOUGH,LB,z,y,./images/DOUGHLB.png,,,,,,,,z,1,0.8092,,,,,,,,0,86,86,103,1
,,,,,,,,,,,,,,,,,200398,18,2022-01-28_23h37.43.902,lexical_decision_task_DD_L5,2021.2.3,MacIntel,60.0024001,,,,,,,,,,,0.9667,1,,,,,,,,,,,,,,,,,,,,,,,,0.154162326,0.057717014,0,0,0,,,,,,,JAGUAR,HB,z,y,./images/JAGUARHB.png,,,,,,,,z,1,0.9667,,,,,,,,0,87,87,102,1
,,,,,,,,,,,,,,,,,200398,18,2022-01-28_23h37.43.902,lexical_decision_task_DD_L5,2021.2.3,MacIntel,60.0024001,,,,,,,,,,,0.9182,1,,,,,,,,,,,,,,,,,,,,,,,,0.154162326,0.057717014,0,0,0,,,,,,,JUMPER,C,m,y,./images/JUMPER.png,,,,,,,,m,1,0.9182,,,,,,,,0,88,88,74,1
,,,,,,,,,,,,,,,,,200398,18,2022-01-28_23h37.43.902,lexical_decision_task_DD_L5,2021.2.3,MacIntel,60.0024001,,,,,,,,,,,0.6174,0,,,,,,,,,,,,,,,,,,,,,,,,0.154162326,0.057717014,0,0,0,,,,,,,MIRROR,HB,z,y,./images/MIRRORHB.png,,,,,,,,m,0,0.6174,,,,,,,,0,89,89,147,1
,,,,,,,,,,,,,,,,,200398,18,2022-01-28_23h37.43.902,lexical_decision_task_DD_L5,2021.2.3,MacIntel,60.0024001,,,,,,,,,,,0.5495,1,,,,,,,,,,,,,,,,,,,,,,,,0.154162326,0.057717014,0,0,0,,,,,,,COLLAR,HB,m,y,./images/COLLARHB.png,,,,,,,,m,1,0.5495,,,,,,,,0,90,90,15,1
,,,,,,,,,,,,,,,,,200398,18,2022-01-28_23h37.43.902,lexical_decision_task_DD_L5,2021.2.3,MacIntel,60.0024001,,,,,,,,,,,0.6814,1,,,,,,,,,,,,,,,,,,,,,,,,0.154162326,0.057717014,0,0,0,,,,,,,MONKEY,HB,m,y,./images/MONKEYHB.png,,,,,,,,m,1,0.6814,,,,,,,,0,91,91,45,1
,,,,,,,,,,,,,,,,,200398,18,2022-01-28_23h37.43.902,lexical_decision_task_DD_L5,2021.2.3,MacIntel,60.0024001,,,,,,,,,,,1.115,0,,,,,,,,,,,,,,,,,,,,,,,,0.154162326,0.057717014,0,0,0,,,,,,,GREASE,HB,z,y,./images/GREASEHB.png,,,,,,,,m,0,1.115,,,,,,,,0,92,92,99,1
,,,,,,,,,,,,,,,,,200398,18,2022-01-28_23h37.43.902,lexical_decision_task_DD_L5,2021.2.3,MacIntel,60.0024001,,,,,,,,,,,0.7649,1,,,,,,,,,,,,,,,,,,,,,,,,0.154162326,0.057717014,0,0,0,,,,,,,SHIELD,HB,m,y,./images/SHIELDHB.png,,,,,,,,m,1,0.7649,,,,,,,,0,93,93,48,1
,,,,,,,,,,,,,,,,,200398,18,2022-01-28_23h37.43.902,lexical_decision_task_DD_L5,2021.2.3,MacIntel,60.0024001,,,,,,,,,,,0.9664,1,,,,,,,,,,,,,,,,,,,,,,,,0.154162326,0.057717014,0,0,0,,,,,,,FOLDER,HB,z,y,./images/FOLDERHB.png,,,,,,,,z,1,0.9664,,,,,,,,0,94,94,126,1
,,,,,,,,,,,,,,,,,200398,18,2022-01-28_23h37.43.902,lexical_decision_task_DD_L5,2021.2.3,MacIntel,60.0024001,,,,,,,,,,,0.8148,0,,,,,,,,,,,,,,,,,,,,,,,,0.154162326,0.057717014,0,0,0,,,,,,,JELLY,LB,z,y,./images/JELLYLB.png,,,,,,,,m,0,0.8148,,,,,,,,0,95,95,148,1
,,,,,,,,,,,,,,,,,200398,18,2022-01-28_23h37.43.902,lexical_decision_task_DD_L5,2021.2.3,MacIntel,60.0024001,,,,,,,,,,,0.7647,0,,,,,,,,,,,,,,,,,,,,,,,,0.154162326,0.057717014,0,0,0,,,,,,,CRUST,LB,z,y,./images/CRUSTLB.png,,,,,,,,m,0,0.7647,,,,,,,,0,96,96,163,1
,,,,,,,,,,,,,,,,,200398,18,2022-01-28_23h37.43.902,lexical_decision_task_DD_L5,2021.2.3,MacIntel,60.0024001,,,,,,,,,,,0.5999,1,,,,,,,,,,,,,,,,,,,,,,,,0.154162326,0.057717014,0,0,0,,,,,,,CANDY,HB,m,y,./images/CANDYHB.png,,,,,,,,m,1,0.5999,,,,,,,,0,97,97,39,1
,,,,,,,,,,,,,,,,,200398,18,2022-01-28_23h37.43.902,lexical_decision_task_DD_L5,2021.2.3,MacIntel,60.0024001,,,,,,,,,,,0.6329,0,,,,,,,,,,,,,,,,,,,,,,,,0.154162326,0.057717014,0,0,0,,,,,,,KIDNEY,HB,z,y,./images/KIDNEYHB.png,,,,,,,,m,0,0.6329,,,,,,,,0,98,98,105,1
,,,,,,,,,,,,,,,,,200398,18,2022-01-28_23h37.43.902,lexical_decision_task_DD_L5,2021.2.3,MacIntel,60.0024001,,,,,,,,,,,0.6654,1,,,,,,,,,,,,,,,,,,,,,,,,0.154162326,0.057717014,0,0,0,,,,,,,DONKEY,LB,m,y,./images/DONKEYLB.png,,,,,,,,m,1,0.6654,,,,,,,,0,99,99,19,1
,,,,,,,,,,,,,,,,,200398,18,2022-01-28_23h37.43.902,lexical_decision_task_DD_L5,2021.2.3,MacIntel,60.0024001,,,,,,,,,,,0.7746,1,,,,,,,,,,,,,,,,,,,,,,,,0.154162326,0.057717014,0,0,0,,,,,,,PARCEL,HB,m,y,./images/PARCELHB.png,,,,,,,,m,1,0.7746,,,,,,,,0,100,100,18,1
,,,,,,,,,,,,,,,,,200398,18,2022-01-28_23h37.43.902,lexical_decision_task_DD_L5,2021.2.3,MacIntel,60.0024001,,,,,,,,,,,0.742,1,,,,,,,,,,,,,,,,,,,,,,,,0.154162326,0.057717014,0,0,0,,,,,,,BISHOP,LB,m,y,./images/BISHOPLB.png,,,,,,,,m,1,0.742,,,,,,,,0,101,101,49,1
,,,,,,,,,,,,,,,,,200398,18,2022-01-28_23h37.43.902,lexical_decision_task_DD_L5,2021.2.3,MacIntel,60.0024001,,,,,,,,,,,0.7009,1,,,,,,,,,,,,,,,,,,,,,,,,0.154162326,0.057717014,0,0,0,,,,,,,STEAK,LB,m,y,./images/STEAKLB.png,,,,,,,,m,1,0.7009,,,,,,,,0,102,102,31,1
,,,,,,,,,,,,,,,,,200398,18,2022-01-28_23h37.43.902,lexical_decision_task_DD_L5,2021.2.3,MacIntel,60.0024001,,,,,,,,,,,0.7995,1,,,,,,,,,,,,,,,,,,,,,,,,0.154162326,0.057717014,0,0,0,,,,,,,TRIPOD,HB,z,y,./images/TRIPODHB.png,,,,,,,,z,1,0.7995,,,,,,,,0,103,103,138,1
,,,,,,,,,,,,,,,,,200398,18,2022-01-28_23h37.43.902,lexical_decision_task_DD_L5,2021.2.3,MacIntel,60.0024001,,,,,,,,,,,0.7497,0,,,,,,,,,,,,,,,,,,,,,,,,0.154162326,0.057717014,0,0,0,,,,,,,MUFFIN,LB,z,y,./images/MUFFINLB.png,,,,,,,,m,0,0.7497,,,,,,,,0,104,104,139,1
,,,,,,,,,,,,,,,,,200398,18,2022-01-28_23h37.43.902,lexical_decision_task_DD_L5,2021.2.3,MacIntel,60.0024001,,,,,,,,,,,0.6841,1,,,,,,,,,,,,,,,,,,,,,,,,0.154162326,0.057717014,0,0,0,,,,,,,CLOTH,C,m,y,./images/CLOTH.png,,,,,,,,m,1,0.6841,,,,,,,,0,105,105,23,1
,,,,,,,,,,,,,,,,,200398,18,2022-01-28_23h37.43.902,lexical_decision_task_DD_L5,2021.2.3,MacIntel,60.0024001,,,,,,,,,,,0.8188,1,,,,,,,,,,,,,,,,,,,,,,,,0.154162326,0.057717014,0,0,0,,,,,,,CHAIN,HB,m,y,./images/CHAINHB.png,,,,,,,,m,1,0.8188,,,,,,,,0,106,106,42,1
,,,,,,,,,,,,,,,,,200398,18,2022-01-28_23h37.43.902,lexical_decision_task_DD_L5,2021.2.3,MacIntel,60.0024001,,,,,,,,,,,0.7989,1,,,,,,,,,,,,,,,,,,,,,,,,0.154162326,0.057717014,0,0,0,,,,,,,SAUNA,HB,m,y,./images/SAUNAHB.png,,,,,,,,m,1,0.7989,,,,,,,,0,107,107,33,1
,,,,,,,,,,,,,,,,,200398,18,2022-01-28_23h37.43.902,lexical_decision_task_DD_L5,2021.2.3,MacIntel,60.0024001,,,,,,,,,,,0.7705,1,,,,,,,,,,,,,,,,,,,,,,,,0.154162326,0.057717014,0,0,0,,,,,,,TULIP,C,z,y,./images/TULIP.png,,,,,,,,z,1,0.7705,,,,,,,,0,108,108,92,1
,,,,,,,,,,,,,,,,,200398,18,2022-01-28_23h37.43.902,lexical_decision_task_DD_L5,2021.2.3,MacIntel,60.0024001,,,,,,,,,,,0.7592,1,,,,,,,,,,,,,,,,,,,,,,,,0.154162326,0.057717014,0,0,0,,,,,,,MIDGET,LB,m,y,./images/MIDGETLB.png,,,,,,,,m,1,0.7592,,,,,,,,0,109,109,76,1
,,,,,,,,,,,,,,,,,200398,18,2022-01-28_23h37.43.902,lexical_decision_task_DD_L5,2021.2.3,MacIntel,60.0024001,,,,,,,,,,,1.1993,1,,,,,,,,,,,,,,,,,,,,,,,,0.154162326,0.057717014,0,0,0,,,,,,,LITTER,HB,z,y,./images/LITTERHB.png,,,,,,,,z,1,1.1993,,,,,,,,0,110,110,162,1
,,,,,,,,,,,,,,,,,200398,18,2022-01-28_23h37.43.902,lexical_decision_task_DD_L5,2021.2.3,MacIntel,60.0024001,,,,,,,,,,,0.8348,1,,,,,,,,,,,,,,,,,,,,,,,,0.154162326,0.057717014,0,0,0,,,,,,,LLAMA,C,m,y,./images/LLAMA.png,,,,,,,,m,1,0.8348,,,,,,,,0,111,111,35,1
,,,,,,,,,,,,,,,,,200398,18,2022-01-28_23h37.43.902,lexical_decision_task_DD_L5,2021.2.3,MacIntel,60.0024001,,,,,,,,,,,0.774,1,,,,,,,,,,,,,,,,,,,,,,,,0.154162326,0.057717014,0,0,0,,,,,,,RHINO,HB,z,y,./images/RHINOHB.png,,,,,,,,z,1,0.774,,,,,,,,0,112,112,93,1
,,,,,,,,,,,,,,,,,200398,18,2022-01-28_23h37.43.902,lexical_decision_task_DD_L5,2021.2.3,MacIntel,60.0024001,,,,,,,,,,,1.0295,1,,,,,,,,,,,,,,,,,,,,,,,,0.154162326,0.057717014,0,0,0,,,,,,,MOSQUE,LB,z,y,./images/MOSQUELB.png,,,,,,,,z,1,1.0295,,,,,,,,0,113,113,127,1
,,,,,,,,,,,,,,,,,200398,18,2022-01-28_23h37.43.902,lexical_decision_task_DD_L5,2021.2.3,MacIntel,60.0024001,,,,,,,,,,,0.9486,1,,,,,,,,,,,,,,,,,,,,,,,,0.154162326,0.057717014,0,0,0,,,,,,,MOOSE,HB,z,y,./images/MOOSEHB.png,,,,,,,,z,1,0.9486,,,,,,,,0,114,114,141,1
,,,,,,,,,,,,,,,,,200398,18,2022-01-28_23h37.43.902,lexical_decision_task_DD_L5,2021.2.3,MacIntel,60.0024001,,,,,,,,,,,0.7681,1,,,,,,,,,,,,,,,,,,,,,,,,0.154162326,0.057717014,0,0,0,,,,,,,SLOPE,HB,m,y,./images/SLOPEHB.png,,,,,,,,m,1,0.7681,,,,,,,,0,115,115,30,1
,,,,,,,,,,,,,,,,,200398,18,2022-01-28_23h37.43.902,lexical_decision_task_DD_L5,2021.2.3,MacIntel,60.0024001,,,,,,,,,,,0.7194,1,,,,,,,,,,,,,,,,,,,,,,,,0.154162326,0.057717014,0,0,0,,,,,,,POKER,LB,m,y,./images/POKERLB.png,,,,,,,,m,1,0.7194,,,,,,,,0,116,116,67,1
,,,,,,,,,,,,,,,,,200398,18,2022-01-28_23h37.43.902,lexical_decision_task_DD_L5,2021.2.3,MacIntel,60.0024001,,,,,,,,,,,0.9975,1,,,,,,,,,,,,,,,,,,,,,,,,0.154162326,0.057717014,0,0,0,,,,,,,MOTOR,LB,z,y,./images/MOTORLB.png,,,,,,,,z,1,0.9975,,,,,,,,0,117,117,97,1
,,,,,,,,,,,,,,,,,200398,18,2022-01-28_23h37.43.902,lexical_decision_task_DD_L5,2021.2.3,MacIntel,60.0024001,,,,,,,,,,,1.3826,1,,,,,,,,,,,,,,,,,,,,,,,,0.154162326,0.057717014,0,0,0,,,,,,,JUNGLE,C,z,y,./images/JUNGLE.png,,,,,,,,z,1,1.3826,,,,,,,,0,118,118,167,1
,,,,,,,,,,,,,,,,,200398,18,2022-01-28_23h37.43.902,lexical_decision_task_DD_L5,2021.2.3,MacIntel,60.0024001,,,,,,,,,,,1.2809,0,,,,,,,,,,,,,,,,,,,,,,,,0.154162326,0.057717014,0,0,0,,,,,,,BUTTER,HB,m,y,./images/BUTTERHB.png,,,,,,,,z,0,1.2809,,,,,,,,0,119,119,27,1
,,,,,,,,,,,,,,,,,200398,18,2022-01-28_23h37.43.902,lexical_decision_task_DD_L5,2021.2.3,MacIntel,60.0024001,,,,,,,,,,,0.8257,1,,,,,,,,,,,,,,,,,,,,,,,,0.154162326,0.057717014,0,0,0,,,,,,,CASINO,LB,m,y,./images/CASINOLB.png,,,,,,,,m,1,0.8257,,,,,,,,0,120,120,28,1
,,,,,,,,,,,,,,,,,200398,18,2022-01-28_23h37.43.902,lexical_decision_task_DD_L5,2021.2.3,MacIntel,60.0024001,,,,,,,,,,,0.9663,0,,,,,,,,,,,,,,,,,,,,,,,,0.154162326,0.057717014,0,0,0,,,,,,,ALLEY,LB,m,y,./images/ALLEYLB.png,,,,,,,,z,0,0.9663,,,,,,,,0,121,121,55,1
,,,,,,,,,,,,,,,,,200398,18,2022-01-28_23h37.43.902,lexical_decision_task_DD_L5,2021.2.3,MacIntel,60.0024001,,,,,,,,,,,1.0682,1,,,,,,,,,,,,,,,,,,,,,,,,0.154162326,0.057717014,0,0,0,,,,,,,SNAKE,LB,m,y,./images/SNAKELB.png,,,,,,,,m,1,1.0682,,,,,,,,0,122,122,40,1
,,,,,,,,,,,,,,,,,200398,18,2022-01-28_23h37.43.902,lexical_decision_task_DD_L5,2021.2.3,MacIntel,60.0024001,,,,,,,,,,,0.704,1,,,,,,,,,,,,,,,,,,,,,,,,0.154162326,0.057717014,0,0,0,,,,,,,CANOE,LB,m,y,./images/CANOELB.png,,,,,,,,m,1,0.704,,,,,,,,0,123,123,58,1
,,,,,,,,,,,,,,,,,200398,18,2022-01-28_23h37.43.902,lexical_decision_task_DD_L5,2021.2.3,MacIntel,60.0024001,,,,,,,,,,,0.8182,0,,,,,,,,,,,,,,,,,,,,,,,,0.154162326,0.057717014,0,0,0,,,,,,,BABOON,LB,z,y,./images/BABOONLB.png,,,,,,,,m,0,0.8182,,,,,,,,0,124,124,142,1
,,,,,,,,,,,,,,,,,200398,18,2022-01-28_23h37.43.902,lexical_decision_task_DD_L5,2021.2.3,MacIntel,60.0024001,,,,,,,,,,,0.7003,1,,,,,,,,,,,,,,,,,,,,,,,,0.154162326,0.057717014,0,0,0,space,,,,,,FERRY,HB,m,y,./images/FERRYHB.png,1.172,,,,,,,m,1,0.7003,,,,,,,,0,125,125,57,1
,,,,,,,,,,,,,,,,,200398,18,2022-01-28_23h37.43.902,lexical_decision_task_DD_L5,2021.2.3,MacIntel,60.0024001,,,,,,,,,,,0.8702,1,,,,,,,,,,,,,,,,,,,,,,,,0.154162326,0.057717014,0,0,0,,,,,,,DRUMS,LB,z,y,./images/DRUMSLB.png,,,,,,,,z,1,0.8702,,,,,,,,0,126,126,133,1
,,,,,,,,,,,,,,,,,200398,18,2022-01-28_23h37.43.902,lexical_decision_task_DD_L5,2021.2.3,MacIntel,60.0024001,,,,,,,,,,,1.0166,1,,,,,,,,,,,,,,,,,,,,,,,,0.154162326,0.057717014,0,0,0,,,,,,,SPORT,HB,z,y,./images/SPORTHB.png,,,,,,,,z,1,1.0166,,,,,,,,0,127,127,132,1
,,,,,,,,,,,,,,,,,200398,18,2022-01-28_23h37.43.902,lexical_decision_task_DD_L5,2021.2.3,MacIntel,60.0024001,,,,,,,,,,,1.0828,1,,,,,,,,,,,,,,,,,,,,,,,,0.154162326,0.057717014,0,0,0,,,,,,,SWING,LB,z,y,./images/SWINGLB.png,,,,,,,,z,1,1.0828,,,,,,,,0,128,128,124,1
,,,,,,,,,,,,,,,,,200398,18,2022-01-28_23h37.43.902,lexical_decision_task_DD_L5,2021.2.3,MacIntel,60.0024001,,,,,,,,,,,0.8414,1,,,,,,,,,,,,,,,,,,,,,,,,0.154162326,0.057717014,0,0,0,,,,,,,POSTER,C,m,y,./images/POSTER.png,,,,,,,,m,1,0.8414,,,,,,,,0,129,129,53,1
,,,,,,,,,,,,,,,,,200398,18,2022-01-28_23h37.43.902,lexical_decision_task_DD_L5,2021.2.3,MacIntel,60.0024001,,,,,,,,,,,1.0018,1,,,,,,,,,,,,,,,,,,,,,,,,0.154162326,0.057717014,0,0,0,,,,,,,SCREW,HB,z,y,./images/SCREWHB.png,,,,,,,,z,1,1.0018,,,,,,,,0,130,130,108,1
,,,,,,,,,,,,,,,,,200398,18,2022-01-28_23h37.43.902,lexical_decision_task_DD_L5,2021.2.3,MacIntel,60.0024001,,,,,,,,,,,0.7128,1,,,,,,,,,,,,,,,,,,,,,,,,0.154162326,0.057717014,0,0,0,,,,,,,BROOM,HB,m,y,./images/BROOMHB.png,,,,,,,,m,1,0.7128,,,,,,,,0,131,131,78,1
,,,,,,,,,,,,,,,,,200398,18,2022-01-28_23h37.43.902,lexical_decision_task_DD_L5,2021.2.3,MacIntel,60.0024001,,,,,,,,,,,0.7724,1,,,,,,,,,,,,,,,,,,,,,,,,0.154162326,0.057717014,0,0,0,,,,,,,ONION,HB,z,y,./images/ONIONHB.png,,,,,,,,z,1,0.7724,,,,,,,,0,132,132,135,1
,,,,,,,,,,,,,,,,,200398,18,2022-01-28_23h37.43.902,lexical_decision_task_DD_L5,2021.2.3,MacIntel,60.0024001,,,,,,,,,,,0.9155,1,,,,,,,,,,,,,,,,,,,,,,,,0.154162326,0.057717014,0,0,0,,,,,,,MUSCLE,LB,z,y,./images/MUSCLELB.png,,,,,,,,z,1,0.9155,,,,,,,,0,133,133,88,1
,,,,,,,,,,,,,,,,,200398,18,2022-01-28_23h37.43.902,lexical_decision_task_DD_L5,2021.2.3,MacIntel,60.0024001,,,,,,,,,,,1.5499,1,,,,,,,,,,,,,,,,,,,,,,,,0.154162326,0.057717014,0,0,0,,,,,,,MEDAL,C,m,y,./images/MEDAL.png,,,,,,,,m,1,1.5499,,,,,,,,0,134,134,11,1
,,,,,,,,,,,,,,,,,200398,18,2022-01-28_23h37.43.902,lexical_decision_task_DD_L5,2021.2.3,MacIntel,60.0024001,,,,,,,,,,,1.0581,0,,,,,,,,,,,,,,,,,,,,,,,,0.154162326,0.057717014,0,0,0,,,,,,,WEASEL,C,z,y,./images/WEASEL.png,,,,,,,,m,0,1.0581,,,,,,,,0,135,135,164,1
,,,,,,,,,,,,,,,,,200398,18,2022-01-28_23h37.43.902,lexical_decision_task_DD_L5,2021.2.3,MacIntel,60.0024001,,,,,,,,,,,0.8738,1,,,,,,,,,,,,,,,,,,,,,,,,0.154162326,0.057717014,0,0,0,,,,,,,CARPET,C,z,y,./images/CARPET.png,,,,,,,,z,1,0.8738,,,,,,,,0,136,136,137,1
,,,,,,,,,,,,,,,,,200398,18,2022-01-28_23h37.43.902,lexical_decision_task_DD_L5,2021.2.3,MacIntel,60.0024001,,,,,,,,,,,0.8846,0,,,,,,,,,,,,,,,,,,,,,,,,0.154162326,0.057717014,0,0,0,,,,,,,STAIN,HB,m,y,./images/STAINHB.png,,,,,,,,z,0,0.8846,,,,,,,,0,137,137,6,1
,,,,,,,,,,,,,,,,,200398,18,2022-01-28_23h37.43.902,lexical_decision_task_DD_L5,2021.2.3,MacIntel,60.0024001,,,,,,,,,,,1.015,1,,,,,,,,,,,,,,,,,,,,,,,,0.154162326,0.057717014,0,0,0,,,,,,,FALCON,LB,z,y,./images/FALCONLB.png,,,,,,,,z,1,1.015,,,,,,,,0,138,138,112,1
,,,,,,,,,,,,,,,,,200398,18,2022-01-28_23h37.43.902,lexical_decision_task_DD_L5,2021.2.3,MacIntel,60.0024001,,,,,,,,,,,0.7654,1,,,,,,,,,,,,,,,,,,,,,,,,0.154162326,0.057717014,0,0,0,,,,,,,URINE,LB,z,y,./images/URINELB.png,,,,,,,,z,1,0.7654,,,,,,,,0,139,139,154,1
,,,,,,,,,,,,,,,,,200398,18,2022-01-28_23h37.43.902,lexical_decision_task_DD_L5,2021.2.3,MacIntel,60.0024001,,,,,,,,,,,0.7998,1,,,,,,,,,,,,,,,,,,,,,,,,0.154162326,0.057717014,0,0,0,,,,,,,ARROW,HB,m,y,./images/ARROWHB.png,,,,,,,,m,1,0.7998,,,,,,,,0,140,140,69,1
,,,,,,,,,,,,,,,,,200398,18,2022-01-28_23h37.43.902,lexical_decision_task_DD_L5,2021.2.3,MacIntel,60.0024001,,,,,,,,,,,0.7978,1,,,,,,,,,,,,,,,,,,,,,,,,0.154162326,0.057717014,0,0,0,,,,,,,GRAIN,HB,z,y,./images/GRAINHB.png,,,,,,,,z,1,0.7978,,,,,,,,0,141,141,159,1
,,,,,,,,,,,,,,,,,200398,18,2022-01-28_23h37.43.902,lexical_decision_task_DD_L5,2021.2.3,MacIntel,60.0024001,,,,,,,,,,,0.8752,0,,,,,,,,,,,,,,,,,,,,,,,,0.154162326,0.057717014,0,0,0,,,,,,,FARMER,C,z,y,./images/FARMER.png,,,,,,,,m,0,0.8752,,,,,,,,0,142,142,149,1
,,,,,,,,,,,,,,,,,200398,18,2022-01-28_23h37.43.902,lexical_decision_task_DD_L5,2021.2.3,MacIntel,60.0024001,,,,,,,,,,,0.6478,1,,,,,,,,,,,,,,,,,,,,,,,,0.154162326,0.057717014,0,0,0,,,,,,,MAMMAL,C,m,y,./images/MAMMAL.png,,,,,,,,m,1,0.6478,,,,,,,,0,143,143,62,1
,,,,,,,,,,,,,,,,,200398,18,2022-01-28_23h37.43.902,lexical_decision_task_DD_L5,2021.2.3,MacIntel,60.0024001,,,,,,,,,,,0.8343,1,,,,,,,,,,,,,,,,,,,,,,,,0.154162326,0.057717014,0,0,0,,,,,,,BERRY,C,z,y,./images/BERRY.png,,,,,,,,z,1,0.8343,,,,,,,,0,144,144,131,1
,,,,,,,,,,,,,,,,,200398,18,2022-01-28_23h37.43.902,lexical_decision_task_DD_L5,2021.2.3,MacIntel,60.0024001,,,,,,,,,,,0.8542,1,,,,,,,,,,,,,,,,,,,,,,,,0.154162326,0.057717014,0,0,0,,,,,,,SNACK,LB,z,y,./images/SNACKLB.png,,,,,,,,z,1,0.8542,,,,,,,,0,145,145,157,1
,,,,,,,,,,,,,,,,,200398,18,2022-01-28_23h37.43.902,lexical_decision_task_DD_L5,2021.2.3,MacIntel,60.0024001,,,,,,,,,,,0.76,0,,,,,,,,,,,,,,,,,,,,,,,,0.154162326,0.057717014,0,0,0,,,,,,,PISTOL,C,m,y,./images/PISTOL.png,,,,,,,,z,0,0.76,,,,,,,,0,146,146,29,1
,,,,,,,,,,,,,,,,,200398,18,2022-01-28_23h37.43.902,lexical_decision_task_DD_L5,2021.2.3,MacIntel,60.0024001,,,,,,,,,,,0.7981,0,,,,,,,,,,,,,,,,,,,,,,,,0.154162326,0.057717014,0,0,0,,,,,,,LADDER,C,z,y,./images/LADDER.png,,,,,,,,m,0,0.7981,,,,,,,,0,147,147,122,1
,,,,,,,,,,,,,,,,,200398,18,2022-01-28_23h37.43.902,lexical_decision_task_DD_L5,2021.2.3,MacIntel,60.0024001,,,,,,,,,,,0.9664,1,,,,,,,,,,,,,,,,,,,,,,,,0.154162326,0.057717014,0,0,0,,,,,,,BAKER,HB,m,y,./images/BAKERHB.png,,,,,,,,m,1,0.9664,,,,,,,,0,148,148,63,1
,,,,,,,,,,,,,,,,,200398,18,2022-01-28_23h37.43.902,lexical_decision_task_DD_L5,2021.2.3,MacIntel,60.0024001,,,,,,,,,,,0.7997,0,,,,,,,,,,,,,,,,,,,,,,,,0.154162326,0.057717014,0,0,0,,,,,,,VALLEY,C,m,y,./images/VALLEY.png,,,,,,,,z,0,0.7997,,,,,,,,0,149,149,68,1
,,,,,,,,,,,,,,,,,200398,18,2022-01-28_23h37.43.902,lexical_decision_task_DD_L5,2021.2.3,MacIntel,60.0024001,,,,,,,,,,,0.8179,0,,,,,,,,,,,,,,,,,,,,,,,,0.154162326,0.057717014,0,0,0,,,,,,,GLOVE,LB,m,y,./images/GLOVELB.png,,,,,,,,z,0,0.8179,,,,,,,,0,150,150,73,1
,,,,,,,,,,,,,,,,,200398,18,2022-01-28_23h37.43.902,lexical_decision_task_DD_L5,2021.2.3,MacIntel,60.0024001,,,,,,,,,,,0.9082,0,,,,,,,,,,,,,,,,,,,,,,,,0.154162326,0.057717014,0,0,0,,,,,,,SQUARE,HB,z,y,./images/SQUAREHB.png,,,,,,,,m,0,0.9082,,,,,,,,0,151,151,90,1
,,,,,,,,,,,,,,,,,200398,18,2022-01-28_23h37.43.902,lexical_decision_task_DD_L5,2021.2.3,MacIntel,60.0024001,,,,,,,,,,,0.7708,1,,,,,,,,,,,,,,,,,,,,,,,,0.154162326,0.057717014,0,0,0,,,,,,,PIMPLE,C,z,y,./images/PIMPLE.png,,,,,,,,z,1,0.7708,,,,,,,,0,152,152,155,1
,,,,,,,,,,,,,,,,,200398,18,2022-01-28_23h37.43.902,lexical_decision_task_DD_L5,2021.2.3,MacIntel,60.0024001,,,,,,,,,,,0.8873,0,,,,,,,,,,,,,,,,,,,,,,,,0.154162326,0.057717014,0,0,0,,,,,,,FENCE,C,m,y,./images/FENCE.png,,,,,,,,z,0,0.8873,,,,,,,,0,153,153,14,1
,,,,,,,,,,,,,,,,,200398,18,2022-01-28_23h37.43.902,lexical_decision_task_DD_L5,2021.2.3,MacIntel,60.0024001,,,,,,,,,,,0.8497,1,,,,,,,,,,,,,,,,,,,,,,,,0.154162326,0.057717014,0,0,0,,,,,,,PEACH,C,z,y,./images/PEACH.png,,,,,,,,z,1,0.8497,,,,,,,,0,154,154,119,1
,,,,,,,,,,,,,,,,,200398,18,2022-01-28_23h37.43.902,lexical_decision_task_DD_L5,2021.2.3,MacIntel,60.0024001,,,,,,,,,,,1.0485,1,,,,,,,,,,,,,,,,,,,,,,,,0.154162326,0.057717014,0,0,0,,,,,,,CEMENT,C,z,y,./images/CEMENT.png,,,,,,,,z,1,1.0485,,,,,,,,0,155,155,158,1
,,,,,,,,,,,,,,,,,200398,18,2022-01-28_23h37.43.902,lexical_decision_task_DD_L5,2021.2.3,MacIntel,60.0024001,,,,,,,,,,,0.863,0,,,,,,,,,,,,,,,,,,,,,,,,0.154162326,0.057717014,0,0,0,,,,,,,PARADE,C,m,y,./images/PARADE.png,,,,,,,,z,0,0.863,,,,,,,,0,156,156,17,1
,,,,,,,,,,,,,,,,,200398,18,2022-01-28_23h37.43.902,lexical_decision_task_DD_L5,2021.2.3,MacIntel,60.0024001,,,,,,,,,,,0.9233,0,,,,,,,,,,,,,,,,,,,,,,,,0.154162326,0.057717014,0,0,0,,,,,,,SMOKER,C,z,y,./images/SMOKER.png,,,,,,,,m,0,0.9233,,,,,,,,0,157,157,110,1
,,,,,,,,,,,,,,,,,200398,18,2022-01-28_23h37.43.902,lexical_decision_task_DD_L5,2021.2.3,MacIntel,60.0024001,,,,,,,,,,,0.94,0,,,,,,,,,,,,,,,,,,,,,,,,0.154162326,0.057717014,0,0,0,,,,,,,NOOSE,HB,z,y,./images/NOOSEHB.png,,,,,,,,m,0,0.94,,,,,,,,0,158,158,156,1
,,,,,,,,,,,,,,,,,200398,18,2022-01-28_23h37.43.902,lexical_decision_task_DD_L5,2021.2.3,MacIntel,60.0024001,,,,,,,,,,,0.8855,1,,,,,,,,,,,,,,,,,,,,,,,,0.154162326,0.057717014,0,0,0,,,,,,,CRUMB,C,z,y,./images/CRUMB.png,,,,,,,,z,1,0.8855,,,,,,,,0,159,159,113,1
,,,,,,,,,,,,,,,,,200398,18,2022-01-28_23h37.43.902,lexical_decision_task_DD_L5,2021.2.3,MacIntel,60.0024001,,,,,,,,,,,0.9674,0,,,,,,,,,,,,,,,,,,,,,,,,0.154162326,0.057717014,0,0,0,,,,,,,GARDEN,LB,m,y,./images/GARDENLB.png,,,,,,,,z,0,0.9674,,,,,,,,0,160,160,10,1
,,,,,,,,,,,,,,,,,200398,18,2022-01-28_23h37.43.902,lexical_decision_task_DD_L5,2021.2.3,MacIntel,60.0024001,,,,,,,,,,,0.7721,0,,,,,,,,,,,,,,,,,,,,,,,,0.154162326,0.057717014,0,0,0,,,,,,,COUCH,C,z,y,./images/COUCH.png,,,,,,,,m,0,0.7721,,,,,,,,0,161,161,161,1
,,,,,,,,,,,,,,,,,200398,18,2022-01-28_23h37.43.902,lexical_decision_task_DD_L5,2021.2.3,MacIntel,60.0024001,,,,,,,,,,,1.0863,1,,,,,,,,,,,,,,,,,,,,,,,,0.154162326,0.057717014,0,0,0,,,,,,,PEBBLE,LB,m,y,./images/PEBBLELB.png,,,,,,,,m,1,1.0863,,,,,,,,0,162,162,82,1
,,,,,,,,,,,,,,,,,200398,18,2022-01-28_23h37.43.902,lexical_decision_task_DD_L5,2021.2.3,MacIntel,60.0024001,,,,,,,,,,,0.9694,1,,,,,,,,,,,,,,,,,,,,,,,,0.154162326,0.057717014,0,0,0,,,,,,,INFANT,LB,z,y,./images/INFANTLB.png,,,,,,,,z,1,0.9694,,,,,,,,0,163,163,160,1
,,,,,,,,,,,,,,,,,200398,18,2022-01-28_23h37.43.902,lexical_decision_task_DD_L5,2021.2.3,MacIntel,60.0024001,,,,,,,,,,,0.8211,0,,,,,,,,,,,,,,,,,,,,,,,,0.154162326,0.057717014,0,0,0,,,,,,,BANNER,LB,z,y,./images/BANNERLB.png,,,,,,,,m,0,0.8211,,,,,,,,0,164,164,136,1
,,,,,,,,,,,,,,,,,200398,18,2022-01-28_23h37.43.902,lexical_decision_task_DD_L5,2021.2.3,MacIntel,60.0024001,,,,,,,,,,,0.7837,1,,,,,,,,,,,,,,,,,,,,,,,,0.154162326,0.057717014,0,0,0,,,,,,,CHALK,LB,m,y,./images/CHALKLB.png,,,,,,,,m,1,0.7837,,,,,,,,0,165,165,25,1
,,,,,,,,,,,,,,,,,200398,18,2022-01-28_23h37.43.902,lexical_decision_task_DD_L5,2021.2.3,MacIntel,60.0024001,,,,,,,,,,,0.951,0,,,,,,,,,,,,,,,,,,,,,,,,0.154162326,0.057717014,0,0,0,,,,,,,MALLET,C,z,y,./images/MALLET.png,,,,,,,,m,0,0.951,,,,,,,,0,166,166,134,1
,,,,,,,,,,,,,,,,,200398,18,2022-01-28_23h37.43.902,lexical_decision_task_DD_L5,2021.2.3,MacIntel,60.0024001,,,,,,,,,,,1.2335,1,,,,,,,,,,,,,,,,,,,,,,,,0.154162326,0.057717014,0,0,0,,,,,,,CANYON,LB,z,y,./images/CANYONLB.png,,,,,,,,z,1,1.2335,,,,,,,,0,167,167,118,1
