key_resp.keys,instr_done_touch.x,instr_done_touch.y,instr_done_touch.leftButton,instr_done_touch.midButton,instr_done_touch.rightButton,instr_done_touch.clicked_name,instruction_pages.thisRepN,instruction_pages.thisTrialN,instruction_pages.thisN,instruction_pages.thisIndex,instruction_pages.ran,pageN,phase,instruct_text,has_image,instruct_image,participant,age,date,expName,psychopyVersion,OS,frameRate,key_resp.rt,response.keys,response.corr,response.rt,touch_resp.x,touch_resp.y,touch_resp.leftButton,touch_resp.midButton,touch_resp.rightButton,touch_resp.time,touch_resp.clicked_name,rt,corr,practrials.thisRepN,practrials.thisTrialN,practrials.thisN,practrials.thisIndex,practrials.ran,TrialID,Target,corrAns,end_of_practice_trials_pages.thisRepN,end_of_practice_trials_pages.thisTrialN,end_of_practice_trials_pages.thisN,end_of_practice_trials_pages.thisIndex,end_of_practice_trials_pages.ran,key_resp_2.keys,key_resp_2.corr,key_resp_2.rt,targ_click.x,targ_click.y,targ_click.leftButton,targ_click.midButton,targ_click.rightButton,targ_click.time,targ_click.clicked_name,break_done_touch.x,break_done_touch.y,break_done_touch.leftButton,break_done_touch.midButton,break_done_touch.rightButton,break_done_keyboard.keys,maintrials.thisRepN,maintrials.thisTrialN,maintrials.thisN,maintrials.thisIndex,maintrials.ran,string,blur,study,lex,stim_path,break_done_keyboard.rt,test_instructions.thisRepN,test_instructions.thisTrialN,test_instructions.thisN,test_instructions.thisIndex,test_instructions.ran,key_resp_3.keys,key_resp_3.corr,key_resp_3.rt,test_click.x,test_click.y,test_click.leftButton,test_click.midButton,test_click.rightButton,test_click.time,test_click.clicked_name,test_phase.thisRepN,test_phase.thisTrialN,test_phase.thisN,test_phase.thisIndex,test_phase.ran
,0.0484375,-0.395303819,1,0,0,instr_done_button,0,0,0,0,1,1,instructions,"INSTRUCTIONS
At the start of each trial, look at the plus sign  (+) in the center of the screen.  This tells you that a trial is about to begin and where to look. Second, the plus sign will disappear and a string of letters will appear. Your task is to determine if the string of letters is a word or not. If the item is a word press the M key (on keyboard)  or touch the word button (phone/tablet).  If the item is not a word,  press the  Z key (on keyboard)  or touch the nonword button (on phone/tablet). 
Press the space bar or touch  continue.",0,,200446,19,2022-01-28_16h25.33.885,lexical_decision_task_DD_L5,2021.2.3,MacIntel,60.0024001,,,,,,,,,,,,,,,,,,,,,,,,,,,,,,,,,,,,,,,,,,,,,,,,,,,,,,,,,,,,,,,,,,,,,,,,,
space,0.0484375,-0.395303819,0,0,0,,0,1,1,1,1,2,instructions,"If your device has a keyboard, press the 'Z' key for nonwords and the 'M' key for words.





Press the space bar or touch the button below to continue.",0,keyboard-example.gif,200446,19,2022-01-28_16h25.33.885,lexical_decision_task_DD_L5,2021.2.3,MacIntel,60.0024001,3.8881,,,,,,,,,,,,,,,,,,,,,,,,,,,,,,,,,,,,,,,,,,,,,,,,,,,,,,,,,,,,,,,,,,,,,,,,
space,0.0484375,-0.395303819,0,0,0,,0,2,2,2,1,3,instructions,"If you are using a touchscreen only device, use the buttons on the screen. Do not use the mouse.





Press the space bar or touch the button below to continue.",0,touchscreen-example.gif,200446,19,2022-01-28_16h25.33.885,lexical_decision_task_DD_L5,2021.2.3,MacIntel,60.0024001,2.0837,,,,,,,,,,,,,,,,,,,,,,,,,,,,,,,,,,,,,,,,,,,,,,,,,,,,,,,,,,,,,,,,,,,,,,,,
space,0.0484375,-0.395303819,0,0,0,,0,3,3,3,1,4,instructions,"It is very important that you respond as quickly and accurately as possible, as each letter string will only be on the screen for two seconds. If you do not respond within this time, the message 'Too slow!' will be displayed and the experiment will progress to the next letter string. The first 20 trials will be practice trials and you will receive feedback on your answers. 

Press the space bar or touch the button below to start the practice trials.",0,,200446,19,2022-01-28_16h25.33.885,lexical_decision_task_DD_L5,2021.2.3,MacIntel,60.0024001,9.0896,,,,,,,,,,,,,,,,,,,,,,,,,,,,,,,,,,,,,,,,,,,,,,,,,,,,,,,,,,,,,,,,,,,,,,,,
,,,,,,,,,,,,,,,,,200446,19,2022-01-28_16h25.33.885,lexical_decision_task_DD_L5,2021.2.3,MacIntel,60.0024001,,m,1,1.1765,,,,,,,,1.1765,1,0,0,0,4,1,1001,SQUEAK,m,,,,,,,,,,,,,,,,,,,,,,,,,,,,,,,,,,,,,,,,,,,,,,,,,,,,
,,,,,,,,,,,,,,,,,200446,19,2022-01-28_16h25.33.885,lexical_decision_task_DD_L5,2021.2.3,MacIntel,60.0024001,,m,0,1.0082,,,,,,,,1.0082,0,0,1,1,9,1,1001,FARINY,z,,,,,,,,,,,,,,,,,,,,,,,,,,,,,,,,,,,,,,,,,,,,,,,,,,,,
,,,,,,,,,,,,,,,,,200446,19,2022-01-28_16h25.33.885,lexical_decision_task_DD_L5,2021.2.3,MacIntel,60.0024001,,m,0,0.7073,,,,,,,,0.7073,0,0,2,2,15,1,1001,WHAISE,z,,,,,,,,,,,,,,,,,,,,,,,,,,,,,,,,,,,,,,,,,,,,,,,,,,,,
,,,,,,,,,,,,,,,,,200446,19,2022-01-28_16h25.33.885,lexical_decision_task_DD_L5,2021.2.3,MacIntel,60.0024001,,m,1,0.5568,,,,,,,,0.5568,1,0,3,3,5,1,1001,OBTAIN,m,,,,,,,,,,,,,,,,,,,,,,,,,,,,,,,,,,,,,,,,,,,,,,,,,,,,
,,,,,,,,,,,,,,,,,200446,19,2022-01-28_16h25.33.885,lexical_decision_task_DD_L5,2021.2.3,MacIntel,60.0024001,,z,1,0.97,,,,,,,,0.97,1,0,4,4,14,1,1001,THRALE,z,,,,,,,,,,,,,,,,,,,,,,,,,,,,,,,,,,,,,,,,,,,,,,,,,,,,
,,,,,,,,,,,,,,,,,200446,19,2022-01-28_16h25.33.885,lexical_decision_task_DD_L5,2021.2.3,MacIntel,60.0024001,,z,1,0.7485,,,,,,,,0.7485,1,0,5,5,12,1,1001,SPRINY,z,,,,,,,,,,,,,,,,,,,,,,,,,,,,,,,,,,,,,,,,,,,,,,,,,,,,
,,,,,,,,,,,,,,,,,200446,19,2022-01-28_16h25.33.885,lexical_decision_task_DD_L5,2021.2.3,MacIntel,60.0024001,,m,1,0.689,,,,,,,,0.689,1,0,6,6,7,1,1001,VOLUME,m,,,,,,,,,,,,,,,,,,,,,,,,,,,,,,,,,,,,,,,,,,,,,,,,,,,,
,,,,,,,,,,,,,,,,,200446,19,2022-01-28_16h25.33.885,lexical_decision_task_DD_L5,2021.2.3,MacIntel,60.0024001,,m,1,0.8484,,,,,,,,0.8484,1,0,7,7,3,1,1001,MATRIX,m,,,,,,,,,,,,,,,,,,,,,,,,,,,,,,,,,,,,,,,,,,,,,,,,,,,,
,,,,,,,,,,,,,,,,,200446,19,2022-01-28_16h25.33.885,lexical_decision_task_DD_L5,2021.2.3,MacIntel,60.0024001,,m,1,0.6185,,,,,,,,0.6185,1,0,8,8,2,1,1001,ALMOND,m,,,,,,,,,,,,,,,,,,,,,,,,,,,,,,,,,,,,,,,,,,,,,,,,,,,,
,,,,,,,,,,,,,,,,,200446,19,2022-01-28_16h25.33.885,lexical_decision_task_DD_L5,2021.2.3,MacIntel,60.0024001,,m,0,1.349,,,,,,,,1.349,0,0,9,9,8,1,1001,ASLERT,z,,,,,,,,,,,,,,,,,,,,,,,,,,,,,,,,,,,,,,,,,,,,,,,,,,,,
,,,,,,,,,,,,,,,,,200446,19,2022-01-28_16h25.33.885,lexical_decision_task_DD_L5,2021.2.3,MacIntel,60.0024001,,z,1,0.831,,,,,,,,0.831,1,0,10,10,13,1,1001,ROUPET,z,,,,,,,,,,,,,,,,,,,,,,,,,,,,,,,,,,,,,,,,,,,,,,,,,,,,
,,,,,,,,,,,,,,,,,200446,19,2022-01-28_16h25.33.885,lexical_decision_task_DD_L5,2021.2.3,MacIntel,60.0024001,,z,1,0.6468,,,,,,,,0.6468,1,0,11,11,11,1,1001,RASHET,z,,,,,,,,,,,,,,,,,,,,,,,,,,,,,,,,,,,,,,,,,,,,,,,,,,,,
,,,,,,,,,,,,,,,,,200446,19,2022-01-28_16h25.33.885,lexical_decision_task_DD_L5,2021.2.3,MacIntel,60.0024001,,m,1,0.7476,,,,,,,,0.7476,1,0,12,12,0,1,1001,UTOPIA,m,,,,,,,,,,,,,,,,,,,,,,,,,,,,,,,,,,,,,,,,,,,,,,,,,,,,
,,,,,,,,,,,,,,,,,200446,19,2022-01-28_16h25.33.885,lexical_decision_task_DD_L5,2021.2.3,MacIntel,60.0024001,,m,1,0.6127,,,,,,,,0.6127,1,0,13,13,1,1,1001,ADJUST,m,,,,,,,,,,,,,,,,,,,,,,,,,,,,,,,,,,,,,,,,,,,,,,,,,,,,
,,,,,,,,,,,,,,,,,200446,19,2022-01-28_16h25.33.885,lexical_decision_task_DD_L5,2021.2.3,MacIntel,60.0024001,,m,1,0.5767,,,,,,,,0.5767,1,0,14,14,6,1,1001,ZOMBIE,m,,,,,,,,,,,,,,,,,,,,,,,,,,,,,,,,,,,,,,,,,,,,,,,,,,,,
,,,,,,,,,,,,,,,,,200446,19,2022-01-28_16h25.33.885,lexical_decision_task_DD_L5,2021.2.3,MacIntel,60.0024001,,z,1,1.0293,,,,,,,,1.0293,1,0,15,15,10,1,1001,INLADE,z,,,,,,,,,,,,,,,,,,,,,,,,,,,,,,,,,,,,,,,,,,,,,,,,,,,,
space,0.050798611,-0.396579861,0,0,0,,,,,,,1,end_of_practice,"You have completed the practice trials. During the experimental trials, you will not receive feedback. 
Before you begin, please ensure that you are in a comfortable and quiet location and will not be disturbed for about 15 minutes, as we cannot use your data if you do not complete all the trials. 
 When you are ready to start the experimental trials, please press space or touch the button below.",,,200446,19,2022-01-28_16h25.33.885,lexical_decision_task_DD_L5,2021.2.3,MacIntel,60.0024001,3.751,,,,,,,,,,,,,,,,,,,,,0,0,0,0,1,,,,,,,,,,,,,,,,,,,,,,,,,,,,,,,,,,,,,,,,,,,,,,,
,,,,,,,,,,,,,,,,,200446,19,2022-01-28_16h25.33.885,lexical_decision_task_DD_L5,2021.2.3,MacIntel,60.0024001,,,,,,,,,,,,2.9463,0,,,,,,,,,,,,,,m,0,2.9463,,,,,,,,0.257838542,-0.044960937,0,0,0,,0,0,0,154,1,THINT,HB,old,z,./images/THINTHB.png,,,,,,,,,,,,,,,,,,,,,
,,,,,,,,,,,,,,,,,200446,19,2022-01-28_16h25.33.885,lexical_decision_task_DD_L5,2021.2.3,MacIntel,60.0024001,,,,,,,,,,,,0.7936,1,,,,,,,,,,,,,,m,1,0.7936,,,,,,,,0.257838542,-0.044960937,0,0,0,,0,1,1,20,1,GRANNY,C,old,m,./images/GRANNY.png,,,,,,,,,,,,,,,,,,,,,
,,,,,,,,,,,,,,,,,200446,19,2022-01-28_16h25.33.885,lexical_decision_task_DD_L5,2021.2.3,MacIntel,60.0024001,,,,,,,,,,,,0.9511,1,,,,,,,,,,,,,,z,1,0.9511,,,,,,,,0.257838542,-0.044960937,0,0,0,,0,2,2,108,1,GRUET,C,old,z,./images/GRUET.png,,,,,,,,,,,,,,,,,,,,,
,,,,,,,,,,,,,,,,,200446,19,2022-01-28_16h25.33.885,lexical_decision_task_DD_L5,2021.2.3,MacIntel,60.0024001,,,,,,,,,,,,0.8277,1,,,,,,,,,,,,,,m,1,0.8277,,,,,,,,0.257838542,-0.044960937,0,0,0,,0,3,3,76,1,MIDGET,LB,old,m,./images/MIDGETLB.png,,,,,,,,,,,,,,,,,,,,,
,,,,,,,,,,,,,,,,,200446,19,2022-01-28_16h25.33.885,lexical_decision_task_DD_L5,2021.2.3,MacIntel,60.0024001,,,,,,,,,,,,1.7215,1,,,,,,,,,,,,,,z,1,1.7215,,,,,,,,0.257838542,-0.044960937,0,0,0,,0,4,4,91,1,SHENS,HB,old,z,./images/SHENSHB.png,,,,,,,,,,,,,,,,,,,,,
,,,,,,,,,,,,,,,,,200446,19,2022-01-28_16h25.33.885,lexical_decision_task_DD_L5,2021.2.3,MacIntel,60.0024001,,,,,,,,,,,,1.0094,1,,,,,,,,,,,,,,z,1,1.0094,,,,,,,,0.257838542,-0.044960937,0,0,0,,0,5,5,129,1,PRANS,C,old,z,./images/PRANS.png,,,,,,,,,,,,,,,,,,,,,
,,,,,,,,,,,,,,,,,200446,19,2022-01-28_16h25.33.885,lexical_decision_task_DD_L5,2021.2.3,MacIntel,60.0024001,,,,,,,,,,,,0.6574,1,,,,,,,,,,,,,,m,1,0.6574,,,,,,,,0.257838542,-0.044960937,0,0,0,,0,6,6,5,1,BAMBOO,C,old,m,./images/BAMBOO.png,,,,,,,,,,,,,,,,,,,,,
,,,,,,,,,,,,,,,,,200446,19,2022-01-28_16h25.33.885,lexical_decision_task_DD_L5,2021.2.3,MacIntel,60.0024001,,,,,,,,,,,,2.179,1,,,,,,,,,,,,,,z,1,2.179,,,,,,,,0.257838542,-0.044960937,0,0,0,,0,7,7,94,1,BLANS,HB,old,z,./images/BLANSHB.png,,,,,,,,,,,,,,,,,,,,,
,,,,,,,,,,,,,,,,,200446,19,2022-01-28_16h25.33.885,lexical_decision_task_DD_L5,2021.2.3,MacIntel,60.0024001,,,,,,,,,,,,0.7262,1,,,,,,,,,,,,,,m,1,0.7262,,,,,,,,0.257838542,-0.044960937,0,0,0,,0,8,8,1,1,TOWEL,LB,old,m,./images/TOWELLB.png,,,,,,,,,,,,,,,,,,,,,
,,,,,,,,,,,,,,,,,200446,19,2022-01-28_16h25.33.885,lexical_decision_task_DD_L5,2021.2.3,MacIntel,60.0024001,,,,,,,,,,,,1.2784,1,,,,,,,,,,,,,,m,1,1.2784,,,,,,,,0.257838542,-0.044960937,0,0,0,,0,9,9,30,1,SLOPE,HB,old,m,./images/SLOPEHB.png,,,,,,,,,,,,,,,,,,,,,
,,,,,,,,,,,,,,,,,200446,19,2022-01-28_16h25.33.885,lexical_decision_task_DD_L5,2021.2.3,MacIntel,60.0024001,,,,,,,,,,,,1.0087,1,,,,,,,,,,,,,,z,1,1.0087,,,,,,,,0.257838542,-0.044960937,0,0,0,,0,10,10,165,1,TROWN,C,old,z,./images/TROWN.png,,,,,,,,,,,,,,,,,,,,,
,,,,,,,,,,,,,,,,,200446,19,2022-01-28_16h25.33.885,lexical_decision_task_DD_L5,2021.2.3,MacIntel,60.0024001,,,,,,,,,,,,1.1823,1,,,,,,,,,,,,,,z,1,1.1823,,,,,,,,0.257838542,-0.044960937,0,0,0,,0,11,11,130,1,CRILL,HB,old,z,./images/CRILLHB.png,,,,,,,,,,,,,,,,,,,,,
,,,,,,,,,,,,,,,,,200446,19,2022-01-28_16h25.33.885,lexical_decision_task_DD_L5,2021.2.3,MacIntel,60.0024001,,,,,,,,,,,,1.4124,1,,,,,,,,,,,,,,z,1,1.4124,,,,,,,,0.257838542,-0.044960937,0,0,0,,0,12,12,126,1,GUELS,C,old,z,./images/GUELS.png,,,,,,,,,,,,,,,,,,,,,
,,,,,,,,,,,,,,,,,200446,19,2022-01-28_16h25.33.885,lexical_decision_task_DD_L5,2021.2.3,MacIntel,60.0024001,,,,,,,,,,,,0.8754,1,,,,,,,,,,,,,,m,1,0.8754,,,,,,,,0.257838542,-0.044960937,0,0,0,,0,13,13,77,1,WHEEL,C,old,m,./images/WHEEL.png,,,,,,,,,,,,,,,,,,,,,
,,,,,,,,,,,,,,,,,200446,19,2022-01-28_16h25.33.885,lexical_decision_task_DD_L5,2021.2.3,MacIntel,60.0024001,,,,,,,,,,,,0.8988,1,,,,,,,,,,,,,,z,1,0.8988,,,,,,,,0.257838542,-0.044960937,0,0,0,,0,14,14,93,1,SMONE,C,old,z,./images/SMONE.png,,,,,,,,,,,,,,,,,,,,,
,,,,,,,,,,,,,,,,,200446,19,2022-01-28_16h25.33.885,lexical_decision_task_DD_L5,2021.2.3,MacIntel,60.0024001,,,,,,,,,,,,0.5982,1,,,,,,,,,,,,,,m,1,0.5982,,,,,,,,0.257838542,-0.044960937,0,0,0,,0,15,15,11,1,MEDAL,C,old,m,./images/MEDAL.png,,,,,,,,,,,,,,,,,,,,,
,,,,,,,,,,,,,,,,,200446,19,2022-01-28_16h25.33.885,lexical_decision_task_DD_L5,2021.2.3,MacIntel,60.0024001,,,,,,,,,,,,0.7464,1,,,,,,,,,,,,,,m,1,0.7464,,,,,,,,0.257838542,-0.044960937,0,0,0,,0,16,16,40,1,SNAKE,LB,old,m,./images/SNAKELB.png,,,,,,,,,,,,,,,,,,,,,
,,,,,,,,,,,,,,,,,200446,19,2022-01-28_16h25.33.885,lexical_decision_task_DD_L5,2021.2.3,MacIntel,60.0024001,,,,,,,,,,,,1.0617,1,,,,,,,,,,,,,,m,1,1.0617,,,,,,,,0.257838542,-0.044960937,0,0,0,,0,17,17,12,1,BLOKE,HB,old,m,./images/BLOKEHB.png,,,,,,,,,,,,,,,,,,,,,
,,,,,,,,,,,,,,,,,200446,19,2022-01-28_16h25.33.885,lexical_decision_task_DD_L5,2021.2.3,MacIntel,60.0024001,,,,,,,,,,,,0.6913,1,,,,,,,,,,,,,,z,1,0.6913,,,,,,,,0.257838542,-0.044960937,0,0,0,,0,18,18,102,1,DULLE,C,old,z,./images/DULLE.png,,,,,,,,,,,,,,,,,,,,,
,,,,,,,,,,,,,,,,,200446,19,2022-01-28_16h25.33.885,lexical_decision_task_DD_L5,2021.2.3,MacIntel,60.0024001,,,,,,,,,,,,1.1452,1,,,,,,,,,,,,,,z,1,1.1452,,,,,,,,0.257838542,-0.044960937,0,0,0,,0,19,19,133,1,POWDY,HB,old,z,./images/POWDYHB.png,,,,,,,,,,,,,,,,,,,,,
,,,,,,,,,,,,,,,,,200446,19,2022-01-28_16h25.33.885,lexical_decision_task_DD_L5,2021.2.3,MacIntel,60.0024001,,,,,,,,,,,,0.6474,1,,,,,,,,,,,,,,m,1,0.6474,,,,,,,,0.257838542,-0.044960937,0,0,0,,0,20,20,25,1,CHALK,LB,old,m,./images/CHALKLB.png,,,,,,,,,,,,,,,,,,,,,
,,,,,,,,,,,,,,,,,200446,19,2022-01-28_16h25.33.885,lexical_decision_task_DD_L5,2021.2.3,MacIntel,60.0024001,,,,,,,,,,,,0.6115,1,,,,,,,,,,,,,,m,1,0.6115,,,,,,,,0.257838542,-0.044960937,0,0,0,,0,21,21,67,1,POKER,LB,old,m,./images/POKERLB.png,,,,,,,,,,,,,,,,,,,,,
,,,,,,,,,,,,,,,,,200446,19,2022-01-28_16h25.33.885,lexical_decision_task_DD_L5,2021.2.3,MacIntel,60.0024001,,,,,,,,,,,,0.7938,1,,,,,,,,,,,,,,z,1,0.7938,,,,,,,,0.257838542,-0.044960937,0,0,0,,0,22,22,90,1,NEAST,C,old,z,./images/NEAST.png,,,,,,,,,,,,,,,,,,,,,
,,,,,,,,,,,,,,,,,200446,19,2022-01-28_16h25.33.885,lexical_decision_task_DD_L5,2021.2.3,MacIntel,60.0024001,,,,,,,,,,,,0.8277,1,,,,,,,,,,,,,,z,1,0.8277,,,,,,,,0.257838542,-0.044960937,0,0,0,,0,23,23,134,1,TROSS,LB,old,z,./images/TROSSLB.png,,,,,,,,,,,,,,,,,,,,,
,,,,,,,,,,,,,,,,,200446,19,2022-01-28_16h25.33.885,lexical_decision_task_DD_L5,2021.2.3,MacIntel,60.0024001,,,,,,,,,,,,0.6961,1,,,,,,,,,,,,,,m,1,0.6961,,,,,,,,0.257838542,-0.044960937,0,0,0,,0,24,24,75,1,HAMMER,HB,old,m,./images/HAMMERHB.png,,,,,,,,,,,,,,,,,,,,,
,,,,,,,,,,,,,,,,,200446,19,2022-01-28_16h25.33.885,lexical_decision_task_DD_L5,2021.2.3,MacIntel,60.0024001,,,,,,,,,,,,0.5779,1,,,,,,,,,,,,,,m,1,0.5779,,,,,,,,0.257838542,-0.044960937,0,0,0,,0,25,25,15,1,COLLAR,HB,old,m,./images/COLLARHB.png,,,,,,,,,,,,,,,,,,,,,
,,,,,,,,,,,,,,,,,200446,19,2022-01-28_16h25.33.885,lexical_decision_task_DD_L5,2021.2.3,MacIntel,60.0024001,,,,,,,,,,,,0.5116,1,,,,,,,,,,,,,,m,1,0.5116,,,,,,,,0.257838542,-0.044960937,0,0,0,,0,26,26,4,1,BOXER,LB,old,m,./images/BOXERLB.png,,,,,,,,,,,,,,,,,,,,,
,,,,,,,,,,,,,,,,,200446,19,2022-01-28_16h25.33.885,lexical_decision_task_DD_L5,2021.2.3,MacIntel,60.0024001,,,,,,,,,,,,0.694,1,,,,,,,,,,,,,,z,1,0.694,,,,,,,,0.257838542,-0.044960937,0,0,0,,0,27,27,164,1,SGREW,LB,old,z,./images/SGREWLB.png,,,,,,,,,,,,,,,,,,,,,
,,,,,,,,,,,,,,,,,200446,19,2022-01-28_16h25.33.885,lexical_decision_task_DD_L5,2021.2.3,MacIntel,60.0024001,,,,,,,,,,,,0.7159,1,,,,,,,,,,,,,,z,1,0.7159,,,,,,,,0.257838542,-0.044960937,0,0,0,,0,28,28,138,1,PLICE,C,old,z,./images/PLICE.png,,,,,,,,,,,,,,,,,,,,,
,,,,,,,,,,,,,,,,,200446,19,2022-01-28_16h25.33.885,lexical_decision_task_DD_L5,2021.2.3,MacIntel,60.0024001,,,,,,,,,,,,0.5442,1,,,,,,,,,,,,,,m,1,0.5442,,,,,,,,0.257838542,-0.044960937,0,0,0,,0,29,29,29,1,PISTOL,C,old,m,./images/PISTOL.png,,,,,,,,,,,,,,,,,,,,,
,,,,,,,,,,,,,,,,,200446,19,2022-01-28_16h25.33.885,lexical_decision_task_DD_L5,2021.2.3,MacIntel,60.0024001,,,,,,,,,,,,0.5147,1,,,,,,,,,,,,,,m,1,0.5147,,,,,,,,0.257838542,-0.044960937,0,0,0,,0,30,30,31,1,STEAK,LB,old,m,./images/STEAKLB.png,,,,,,,,,,,,,,,,,,,,,
,,,,,,,,,,,,,,,,,200446,19,2022-01-28_16h25.33.885,lexical_decision_task_DD_L5,2021.2.3,MacIntel,60.0024001,,,,,,,,,,,,0.5089,1,,,,,,,,,,,,,,m,1,0.5089,,,,,,,,0.257838542,-0.044960937,0,0,0,,0,31,31,71,1,BUBBLE,C,old,m,./images/BUBBLE.png,,,,,,,,,,,,,,,,,,,,,
,,,,,,,,,,,,,,,,,200446,19,2022-01-28_16h25.33.885,lexical_decision_task_DD_L5,2021.2.3,MacIntel,60.0024001,,,,,,,,,,,,1.144,1,,,,,,,,,,,,,,z,1,1.144,,,,,,,,0.257838542,-0.044960937,0,0,0,,0,32,32,85,1,CHULK,HB,old,z,./images/CHULKHB.png,,,,,,,,,,,,,,,,,,,,,
,,,,,,,,,,,,,,,,,200446,19,2022-01-28_16h25.33.885,lexical_decision_task_DD_L5,2021.2.3,MacIntel,60.0024001,,,,,,,,,,,,0.9163,1,,,,,,,,,,,,,,z,1,0.9163,,,,,,,,0.257838542,-0.044960937,0,0,0,,0,33,33,142,1,PLASK,HB,old,z,./images/PLASKHB.png,,,,,,,,,,,,,,,,,,,,,
,,,,,,,,,,,,,,,,,200446,19,2022-01-28_16h25.33.885,lexical_decision_task_DD_L5,2021.2.3,MacIntel,60.0024001,,,,,,,,,,,,0.612,1,,,,,,,,,,,,,,m,1,0.612,,,,,,,,0.257838542,-0.044960937,0,0,0,,0,34,34,19,1,DONKEY,LB,old,m,./images/DONKEYLB.png,,,,,,,,,,,,,,,,,,,,,
,,,,,,,,,,,,,,,,,200446,19,2022-01-28_16h25.33.885,lexical_decision_task_DD_L5,2021.2.3,MacIntel,60.0024001,,,,,,,,,,,,0.5334,1,,,,,,,,,,,,,,m,1,0.5334,,,,,,,,0.257838542,-0.044960937,0,0,0,,0,35,35,34,1,RAZOR,LB,old,m,./images/RAZORLB.png,,,,,,,,,,,,,,,,,,,,,
,,,,,,,,,,,,,,,,,200446,19,2022-01-28_16h25.33.885,lexical_decision_task_DD_L5,2021.2.3,MacIntel,60.0024001,,,,,,,,,,,,0.8092,1,,,,,,,,,,,,,,z,1,0.8092,,,,,,,,0.257838542,-0.044960937,0,0,0,,0,36,36,98,1,BAMPS,LB,old,z,./images/BAMPSLB.png,,,,,,,,,,,,,,,,,,,,,
,,,,,,,,,,,,,,,,,200446,19,2022-01-28_16h25.33.885,lexical_decision_task_DD_L5,2021.2.3,MacIntel,60.0024001,,,,,,,,,,,,0.9974,1,,,,,,,,,,,,,,z,1,0.9974,,,,,,,,0.257838542,-0.044960937,0,0,0,,0,37,37,97,1,CHIDS,HB,old,z,./images/CHIDSHB.png,,,,,,,,,,,,,,,,,,,,,
,,,,,,,,,,,,,,,,,200446,19,2022-01-28_16h25.33.885,lexical_decision_task_DD_L5,2021.2.3,MacIntel,60.0024001,,,,,,,,,,,,0.63,1,,,,,,,,,,,,,,z,1,0.63,,,,,,,,0.257838542,-0.044960937,0,0,0,,0,38,38,92,1,PAIMS,LB,old,z,./images/PAIMSLB.png,,,,,,,,,,,,,,,,,,,,,
,,,,,,,,,,,,,,,,,200446,19,2022-01-28_16h25.33.885,lexical_decision_task_DD_L5,2021.2.3,MacIntel,60.0024001,,,,,,,,,,,,0.4962,1,,,,,,,,,,,,,,m,1,0.4962,,,,,,,,0.257838542,-0.044960937,0,0,0,,0,39,39,65,1,SPINE,C,old,m,./images/SPINE.png,,,,,,,,,,,,,,,,,,,,,
,,,,,,,,,,,,,,,,,200446,19,2022-01-28_16h25.33.885,lexical_decision_task_DD_L5,2021.2.3,MacIntel,60.0024001,,,,,,,,,,,,0.7825,1,,,,,,,,,,,,,,m,1,0.7825,,,,,,,,0.257838542,-0.044960937,0,0,0,,0,40,40,48,1,SHIELD,HB,old,m,./images/SHIELDHB.png,,,,,,,,,,,,,,,,,,,,,
,,,,,,,,,,,,,,,,,200446,19,2022-01-28_16h25.33.885,lexical_decision_task_DD_L5,2021.2.3,MacIntel,60.0024001,,,,,,,,,,,,0.8462,1,,,,,,,,,,,,,,z,1,0.8462,,,,,,,,0.257838542,-0.044960937,0,0,0,space,0,41,41,127,1,NINDY,HB,old,z,./images/NINDYHB.png,8.2828,,,,,,,,,,,,,,,,,,,,
,,,,,,,,,,,,,,,,,200446,19,2022-01-28_16h25.33.885,lexical_decision_task_DD_L5,2021.2.3,MacIntel,60.0024001,,,,,,,,,,,,0.9472,1,,,,,,,,,,,,,,m,1,0.9472,,,,,,,,0.257838542,-0.044960937,0,0,0,,0,42,42,78,1,BROOM,HB,old,m,./images/BROOMHB.png,,,,,,,,,,,,,,,,,,,,,
,,,,,,,,,,,,,,,,,200446,19,2022-01-28_16h25.33.885,lexical_decision_task_DD_L5,2021.2.3,MacIntel,60.0024001,,,,,,,,,,,,0.7766,1,,,,,,,,,,,,,,z,1,0.7766,,,,,,,,0.257838542,-0.044960937,0,0,0,,0,43,43,99,1,BACKY,C,old,z,./images/BACKY.png,,,,,,,,,,,,,,,,,,,,,
,,,,,,,,,,,,,,,,,200446,19,2022-01-28_16h25.33.885,lexical_decision_task_DD_L5,2021.2.3,MacIntel,60.0024001,,,,,,,,,,,,0.4939,1,,,,,,,,,,,,,,m,1,0.4939,,,,,,,,0.257838542,-0.044960937,0,0,0,,0,44,44,61,1,ARTIST,LB,old,m,./images/ARTISTLB.png,,,,,,,,,,,,,,,,,,,,,
,,,,,,,,,,,,,,,,,200446,19,2022-01-28_16h25.33.885,lexical_decision_task_DD_L5,2021.2.3,MacIntel,60.0024001,,,,,,,,,,,,0.6319,1,,,,,,,,,,,,,,z,1,0.6319,,,,,,,,0.257838542,-0.044960937,0,0,0,,0,45,45,95,1,HANTY,LB,old,z,./images/HANTYLB.png,,,,,,,,,,,,,,,,,,,,,
,,,,,,,,,,,,,,,,,200446,19,2022-01-28_16h25.33.885,lexical_decision_task_DD_L5,2021.2.3,MacIntel,60.0024001,,,,,,,,,,,,0.5992,1,,,,,,,,,,,,,,m,1,0.5992,,,,,,,,0.257838542,-0.044960937,0,0,0,,0,46,46,39,1,CANDY,HB,old,m,./images/CANDYHB.png,,,,,,,,,,,,,,,,,,,,,
,,,,,,,,,,,,,,,,,200446,19,2022-01-28_16h25.33.885,lexical_decision_task_DD_L5,2021.2.3,MacIntel,60.0024001,,,,,,,,,,,,0.6359,1,,,,,,,,,,,,,,z,1,0.6359,,,,,,,,0.257838542,-0.044960937,0,0,0,,0,47,47,104,1,GITTY,LB,old,z,./images/GITTYLB.png,,,,,,,,,,,,,,,,,,,,,
,,,,,,,,,,,,,,,,,200446,19,2022-01-28_16h25.33.885,lexical_decision_task_DD_L5,2021.2.3,MacIntel,60.0024001,,,,,,,,,,,,0.6983,1,,,,,,,,,,,,,,m,1,0.6983,,,,,,,,0.257838542,-0.044960937,0,0,0,,0,48,48,42,1,CHAIN,HB,old,m,./images/CHAINHB.png,,,,,,,,,,,,,,,,,,,,,
,,,,,,,,,,,,,,,,,200446,19,2022-01-28_16h25.33.885,lexical_decision_task_DD_L5,2021.2.3,MacIntel,60.0024001,,,,,,,,,,,,0.6268,1,,,,,,,,,,,,,,z,1,0.6268,,,,,,,,0.257838542,-0.044960937,0,0,0,,0,49,49,153,1,CLUPS,C,old,z,./images/CLUPS.png,,,,,,,,,,,,,,,,,,,,,
,,,,,,,,,,,,,,,,,200446,19,2022-01-28_16h25.33.885,lexical_decision_task_DD_L5,2021.2.3,MacIntel,60.0024001,,,,,,,,,,,,0.7988,1,,,,,,,,,,,,,,z,1,0.7988,,,,,,,,0.257838542,-0.044960937,0,0,0,,0,50,50,146,1,MOOST,LB,old,z,./images/MOOSTLB.png,,,,,,,,,,,,,,,,,,,,,
,,,,,,,,,,,,,,,,,200446,19,2022-01-28_16h25.33.885,lexical_decision_task_DD_L5,2021.2.3,MacIntel,60.0024001,,,,,,,,,,,,0.646,1,,,,,,,,,,,,,,z,1,0.646,,,,,,,,0.257838542,-0.044960937,0,0,0,,0,51,51,101,1,GLEET,LB,old,z,./images/GLEETLB.png,,,,,,,,,,,,,,,,,,,,,
,,,,,,,,,,,,,,,,,200446,19,2022-01-28_16h25.33.885,lexical_decision_task_DD_L5,2021.2.3,MacIntel,60.0024001,,,,,,,,,,,,0.5359,1,,,,,,,,,,,,,,m,1,0.5359,,,,,,,,0.257838542,-0.044960937,0,0,0,,0,52,52,23,1,CLOTH,C,old,m,./images/CLOTH.png,,,,,,,,,,,,,,,,,,,,,
,,,,,,,,,,,,,,,,,200446,19,2022-01-28_16h25.33.885,lexical_decision_task_DD_L5,2021.2.3,MacIntel,60.0024001,,,,,,,,,,,,0.5296,1,,,,,,,,,,,,,,m,1,0.5296,,,,,,,,0.257838542,-0.044960937,0,0,0,,0,53,53,17,1,PARADE,C,old,m,./images/PARADE.png,,,,,,,,,,,,,,,,,,,,,
,,,,,,,,,,,,,,,,,200446,19,2022-01-28_16h25.33.885,lexical_decision_task_DD_L5,2021.2.3,MacIntel,60.0024001,,,,,,,,,,,,0.7461,1,,,,,,,,,,,,,,m,1,0.7461,,,,,,,,0.257838542,-0.044960937,0,0,0,,0,54,54,18,1,PARCEL,HB,old,m,./images/PARCELHB.png,,,,,,,,,,,,,,,,,,,,,
,,,,,,,,,,,,,,,,,200446,19,2022-01-28_16h25.33.885,lexical_decision_task_DD_L5,2021.2.3,MacIntel,60.0024001,,,,,,,,,,,,0.5166,1,,,,,,,,,,,,,,m,1,0.5166,,,,,,,,0.257838542,-0.044960937,0,0,0,,0,55,55,56,1,HEATER,C,old,m,./images/HEATER.png,,,,,,,,,,,,,,,,,,,,,
,,,,,,,,,,,,,,,,,200446,19,2022-01-28_16h25.33.885,lexical_decision_task_DD_L5,2021.2.3,MacIntel,60.0024001,,,,,,,,,,,,0.829,1,,,,,,,,,,,,,,z,1,0.829,,,,,,,,0.257838542,-0.044960937,0,0,0,,0,56,56,124,1,TUNCH,HB,old,z,./images/TUNCHHB.png,,,,,,,,,,,,,,,,,,,,,
,,,,,,,,,,,,,,,,,200446,19,2022-01-28_16h25.33.885,lexical_decision_task_DD_L5,2021.2.3,MacIntel,60.0024001,,,,,,,,,,,,0.6169,1,,,,,,,,,,,,,,m,1,0.6169,,,,,,,,0.257838542,-0.044960937,0,0,0,,0,57,57,57,1,FERRY,HB,old,m,./images/FERRYHB.png,,,,,,,,,,,,,,,,,,,,,
,,,,,,,,,,,,,,,,,200446,19,2022-01-28_16h25.33.885,lexical_decision_task_DD_L5,2021.2.3,MacIntel,60.0024001,,,,,,,,,,,,0.6438,1,,,,,,,,,,,,,,m,1,0.6438,,,,,,,,0.257838542,-0.044960937,0,0,0,,0,58,58,8,1,CLIFF,C,old,m,./images/CLIFF.png,,,,,,,,,,,,,,,,,,,,,
,,,,,,,,,,,,,,,,,200446,19,2022-01-28_16h25.33.885,lexical_decision_task_DD_L5,2021.2.3,MacIntel,60.0024001,,,,,,,,,,,,0.712,1,,,,,,,,,,,,,,z,1,0.712,,,,,,,,0.257838542,-0.044960937,0,0,0,,0,59,59,89,1,DRIEK,LB,old,z,./images/DRIEKLB.png,,,,,,,,,,,,,,,,,,,,,
,,,,,,,,,,,,,,,,,200446,19,2022-01-28_16h25.33.885,lexical_decision_task_DD_L5,2021.2.3,MacIntel,60.0024001,,,,,,,,,,,,0.5288,1,,,,,,,,,,,,,,m,1,0.5288,,,,,,,,0.257838542,-0.044960937,0,0,0,,0,60,60,21,1,DANCER,HB,old,m,./images/DANCERHB.png,,,,,,,,,,,,,,,,,,,,,
,,,,,,,,,,,,,,,,,200446,19,2022-01-28_16h25.33.885,lexical_decision_task_DD_L5,2021.2.3,MacIntel,60.0024001,,,,,,,,,,,,0.6126,1,,,,,,,,,,,,,,z,1,0.6126,,,,,,,,0.257838542,-0.044960937,0,0,0,,0,61,61,120,1,RINED,C,old,z,./images/RINED.png,,,,,,,,,,,,,,,,,,,,,
,,,,,,,,,,,,,,,,,200446,19,2022-01-28_16h25.33.885,lexical_decision_task_DD_L5,2021.2.3,MacIntel,60.0024001,,,,,,,,,,,,0.5644,1,,,,,,,,,,,,,,m,1,0.5644,,,,,,,,0.257838542,-0.044960937,0,0,0,,0,62,62,62,1,MAMMAL,C,old,m,./images/MAMMAL.png,,,,,,,,,,,,,,,,,,,,,
,,,,,,,,,,,,,,,,,200446,19,2022-01-28_16h25.33.885,lexical_decision_task_DD_L5,2021.2.3,MacIntel,60.0024001,,,,,,,,,,,,0.7484,1,,,,,,,,,,,,,,z,1,0.7484,,,,,,,,0.257838542,-0.044960937,0,0,0,,0,63,63,86,1,AIFED,LB,old,z,./images/AIFEDLB.png,,,,,,,,,,,,,,,,,,,,,
,,,,,,,,,,,,,,,,,200446,19,2022-01-28_16h25.33.885,lexical_decision_task_DD_L5,2021.2.3,MacIntel,60.0024001,,,,,,,,,,,,0.7769,1,,,,,,,,,,,,,,m,1,0.7769,,,,,,,,0.257838542,-0.044960937,0,0,0,,0,64,64,74,1,JUMPER,C,old,m,./images/JUMPER.png,,,,,,,,,,,,,,,,,,,,,
,,,,,,,,,,,,,,,,,200446,19,2022-01-28_16h25.33.885,lexical_decision_task_DD_L5,2021.2.3,MacIntel,60.0024001,,,,,,,,,,,,0.695,1,,,,,,,,,,,,,,z,1,0.695,,,,,,,,0.257838542,-0.044960937,0,0,0,,0,65,65,118,1,BAVEL,HB,old,z,./images/BAVELHB.png,,,,,,,,,,,,,,,,,,,,,
,,,,,,,,,,,,,,,,,200446,19,2022-01-28_16h25.33.885,lexical_decision_task_DD_L5,2021.2.3,MacIntel,60.0024001,,,,,,,,,,,,0.9276,1,,,,,,,,,,,,,,z,1,0.9276,,,,,,,,0.257838542,-0.044960937,0,0,0,,0,66,66,139,1,BLEAR,HB,old,z,./images/BLEARHB.png,,,,,,,,,,,,,,,,,,,,,
,,,,,,,,,,,,,,,,,200446,19,2022-01-28_16h25.33.885,lexical_decision_task_DD_L5,2021.2.3,MacIntel,60.0024001,,,,,,,,,,,,0.7619,1,,,,,,,,,,,,,,m,1,0.7619,,,,,,,,0.257838542,-0.044960937,0,0,0,,0,67,67,82,1,PEBBLE,LB,old,m,./images/PEBBLELB.png,,,,,,,,,,,,,,,,,,,,,
,,,,,,,,,,,,,,,,,200446,19,2022-01-28_16h25.33.885,lexical_decision_task_DD_L5,2021.2.3,MacIntel,60.0024001,,,,,,,,,,,,0.4985,1,,,,,,,,,,,,,,m,1,0.4985,,,,,,,,0.257838542,-0.044960937,0,0,0,,0,68,68,16,1,GRAPE,LB,old,m,./images/GRAPELB.png,,,,,,,,,,,,,,,,,,,,,
,,,,,,,,,,,,,,,,,200446,19,2022-01-28_16h25.33.885,lexical_decision_task_DD_L5,2021.2.3,MacIntel,60.0024001,,,,,,,,,,,,0.5642,1,,,,,,,,,,,,,,m,1,0.5642,,,,,,,,0.257838542,-0.044960937,0,0,0,,0,69,69,6,1,STAIN,HB,old,m,./images/STAINHB.png,,,,,,,,,,,,,,,,,,,,,
,,,,,,,,,,,,,,,,,200446,19,2022-01-28_16h25.33.885,lexical_decision_task_DD_L5,2021.2.3,MacIntel,60.0024001,,,,,,,,,,,,0.5677,1,,,,,,,,,,,,,,m,1,0.5677,,,,,,,,0.257838542,-0.044960937,0,0,0,,0,70,70,55,1,ALLEY,LB,old,m,./images/ALLEYLB.png,,,,,,,,,,,,,,,,,,,,,
,,,,,,,,,,,,,,,,,200446,19,2022-01-28_16h25.33.885,lexical_decision_task_DD_L5,2021.2.3,MacIntel,60.0024001,,,,,,,,,,,,0.6784,1,,,,,,,,,,,,,,z,1,0.6784,,,,,,,,0.257838542,-0.044960937,0,0,0,,0,71,71,147,1,ZOLES,C,old,z,./images/ZOLES.png,,,,,,,,,,,,,,,,,,,,,
,,,,,,,,,,,,,,,,,200446,19,2022-01-28_16h25.33.885,lexical_decision_task_DD_L5,2021.2.3,MacIntel,60.0024001,,,,,,,,,,,,0.5814,1,,,,,,,,,,,,,,m,1,0.5814,,,,,,,,0.257838542,-0.044960937,0,0,0,,0,72,72,3,1,CRATER,HB,old,m,./images/CRATERHB.png,,,,,,,,,,,,,,,,,,,,,
,,,,,,,,,,,,,,,,,200446,19,2022-01-28_16h25.33.885,lexical_decision_task_DD_L5,2021.2.3,MacIntel,60.0024001,,,,,,,,,,,,0.4956,1,,,,,,,,,,,,,,m,1,0.4956,,,,,,,,0.257838542,-0.044960937,0,0,0,,0,73,73,10,1,GARDEN,LB,old,m,./images/GARDENLB.png,,,,,,,,,,,,,,,,,,,,,
,,,,,,,,,,,,,,,,,200446,19,2022-01-28_16h25.33.885,lexical_decision_task_DD_L5,2021.2.3,MacIntel,60.0024001,,,,,,,,,,,,0.4966,1,,,,,,,,,,,,,,m,1,0.4966,,,,,,,,0.257838542,-0.044960937,0,0,0,,0,74,74,46,1,MUMMY,LB,old,m,./images/MUMMYLB.png,,,,,,,,,,,,,,,,,,,,,
,,,,,,,,,,,,,,,,,200446,19,2022-01-28_16h25.33.885,lexical_decision_task_DD_L5,2021.2.3,MacIntel,60.0024001,,,,,,,,,,,,0.6259,1,,,,,,,,,,,,,,z,1,0.6259,,,,,,,,0.257838542,-0.044960937,0,0,0,,0,75,75,155,1,CANGY,LB,old,z,./images/CANGYLB.png,,,,,,,,,,,,,,,,,,,,,
,,,,,,,,,,,,,,,,,200446,19,2022-01-28_16h25.33.885,lexical_decision_task_DD_L5,2021.2.3,MacIntel,60.0024001,,,,,,,,,,,,0.4959,1,,,,,,,,,,,,,,m,1,0.4959,,,,,,,,0.257838542,-0.044960937,0,0,0,,0,76,76,53,1,POSTER,C,old,m,./images/POSTER.png,,,,,,,,,,,,,,,,,,,,,
,,,,,,,,,,,,,,,,,200446,19,2022-01-28_16h25.33.885,lexical_decision_task_DD_L5,2021.2.3,MacIntel,60.0024001,,,,,,,,,,,,0.4585,1,,,,,,,,,,,,,,m,1,0.4585,,,,,,,,0.257838542,-0.044960937,0,0,0,,0,77,77,41,1,STREAM,C,old,m,./images/STREAM.png,,,,,,,,,,,,,,,,,,,,,
,,,,,,,,,,,,,,,,,200446,19,2022-01-28_16h25.33.885,lexical_decision_task_DD_L5,2021.2.3,MacIntel,60.0024001,,,,,,,,,,,,0.6287,1,,,,,,,,,,,,,,z,1,0.6287,,,,,,,,0.257838542,-0.044960937,0,0,0,,0,78,78,125,1,MOOKY,LB,old,z,./images/MOOKYLB.png,,,,,,,,,,,,,,,,,,,,,
,,,,,,,,,,,,,,,,,200446,19,2022-01-28_16h25.33.885,lexical_decision_task_DD_L5,2021.2.3,MacIntel,60.0024001,,,,,,,,,,,,0.6325,1,,,,,,,,,,,,,,z,1,0.6325,,,,,,,,0.257838542,-0.044960937,0,0,0,,0,79,79,88,1,GLUSH,HB,old,z,./images/GLUSHHB.png,,,,,,,,,,,,,,,,,,,,,
,,,,,,,,,,,,,,,,,200446,19,2022-01-28_16h25.33.885,lexical_decision_task_DD_L5,2021.2.3,MacIntel,60.0024001,,,,,,,,,,,,0.6688,1,,,,,,,,,,,,,,z,1,0.6688,,,,,,,,0.257838542,-0.044960937,0,0,0,,0,80,80,100,1,DRIBS,HB,old,z,./images/DRIBSHB.png,,,,,,,,,,,,,,,,,,,,,
,,,,,,,,,,,,,,,,,200446,19,2022-01-28_16h25.33.885,lexical_decision_task_DD_L5,2021.2.3,MacIntel,60.0024001,,,,,,,,,,,,0.6115,1,,,,,,,,,,,,,,m,1,0.6115,,,,,,,,0.257838542,-0.044960937,0,0,0,,0,81,81,81,1,DRILL,HB,old,m,./images/DRILLHB.png,,,,,,,,,,,,,,,,,,,,,
,,,,,,,,,,,,,,,,,200446,19,2022-01-28_16h25.33.885,lexical_decision_task_DD_L5,2021.2.3,MacIntel,60.0024001,,,,,,,,,,,,0.6586,1,,,,,,,,,,,,,,m,1,0.6586,,,,,,,,0.257838542,-0.044960937,0,0,0,,0,82,82,47,1,LAGOON,C,old,m,./images/LAGOON.png,,,,,,,,,,,,,,,,,,,,,
,,,,,,,,,,,,,,,,,200446,19,2022-01-28_16h25.33.885,lexical_decision_task_DD_L5,2021.2.3,MacIntel,60.0024001,,,,,,,,,,,,0.993,1,,,,,,,,,,,,,,z,1,0.993,,,,,,,,0.257838542,-0.044960937,0,0,0,space,0,83,83,112,1,MYING,HB,old,z,./images/MYINGHB.png,18.8848,,,,,,,,,,,,,,,,,,,,
,,,,,,,,,,,,,,,,,200446,19,2022-01-28_16h25.33.885,lexical_decision_task_DD_L5,2021.2.3,MacIntel,60.0024001,,,,,,,,,,,,0.8597,1,,,,,,,,,,,,,,z,1,0.8597,,,,,,,,0.257838542,-0.044960937,0,0,0,,0,84,84,109,1,BURGE,HB,old,z,./images/BURGEHB.png,,,,,,,,,,,,,,,,,,,,,
,,,,,,,,,,,,,,,,,200446,19,2022-01-28_16h25.33.885,lexical_decision_task_DD_L5,2021.2.3,MacIntel,60.0024001,,,,,,,,,,,,0.6012,1,,,,,,,,,,,,,,m,1,0.6012,,,,,,,,0.257838542,-0.044960937,0,0,0,,0,85,85,43,1,STOOL,LB,old,m,./images/STOOLLB.png,,,,,,,,,,,,,,,,,,,,,
,,,,,,,,,,,,,,,,,200446,19,2022-01-28_16h25.33.885,lexical_decision_task_DD_L5,2021.2.3,MacIntel,60.0024001,,,,,,,,,,,,0.5371,1,,,,,,,,,,,,,,m,1,0.5371,,,,,,,,0.257838542,-0.044960937,0,0,0,,0,86,86,63,1,BAKER,HB,old,m,./images/BAKERHB.png,,,,,,,,,,,,,,,,,,,,,
,,,,,,,,,,,,,,,,,200446,19,2022-01-28_16h25.33.885,lexical_decision_task_DD_L5,2021.2.3,MacIntel,60.0024001,,,,,,,,,,,,0.8499,1,,,,,,,,,,,,,,z,1,0.8499,,,,,,,,0.257838542,-0.044960937,0,0,0,,0,87,87,148,1,JOMS,HB,old,z,./images/JOMSHB.png,,,,,,,,,,,,,,,,,,,,,
,,,,,,,,,,,,,,,,,200446,19,2022-01-28_16h25.33.885,lexical_decision_task_DD_L5,2021.2.3,MacIntel,60.0024001,,,,,,,,,,,,0.5097,1,,,,,,,,,,,,,,m,1,0.5097,,,,,,,,0.257838542,-0.044960937,0,0,0,,0,88,88,69,1,ARROW,HB,old,m,./images/ARROWHB.png,,,,,,,,,,,,,,,,,,,,,
,,,,,,,,,,,,,,,,,200446,19,2022-01-28_16h25.33.885,lexical_decision_task_DD_L5,2021.2.3,MacIntel,60.0024001,,,,,,,,,,,,0.4698,1,,,,,,,,,,,,,,m,1,0.4698,,,,,,,,0.257838542,-0.044960937,0,0,0,,0,89,89,73,1,GLOVE,LB,old,m,./images/GLOVELB.png,,,,,,,,,,,,,,,,,,,,,
,,,,,,,,,,,,,,,,,200446,19,2022-01-28_16h25.33.885,lexical_decision_task_DD_L5,2021.2.3,MacIntel,60.0024001,,,,,,,,,,,,0.4518,1,,,,,,,,,,,,,,m,1,0.4518,,,,,,,,0.257838542,-0.044960937,0,0,0,,0,90,90,79,1,RULER,LB,old,m,./images/RULERLB.png,,,,,,,,,,,,,,,,,,,,,
,,,,,,,,,,,,,,,,,200446,19,2022-01-28_16h25.33.885,lexical_decision_task_DD_L5,2021.2.3,MacIntel,60.0024001,,,,,,,,,,,,0.6623,1,,,,,,,,,,,,,,m,1,0.6623,,,,,,,,0.257838542,-0.044960937,0,0,0,,0,91,91,54,1,CHERRY,HB,old,m,./images/CHERRYHB.png,,,,,,,,,,,,,,,,,,,,,
,,,,,,,,,,,,,,,,,200446,19,2022-01-28_16h25.33.885,lexical_decision_task_DD_L5,2021.2.3,MacIntel,60.0024001,,,,,,,,,,,,0.7592,0,,,,,,,,,,,,,,m,0,0.7592,,,,,,,,0.257838542,-0.044960937,0,0,0,,0,92,92,106,1,CLUMS,HB,old,z,./images/CLUMSHB.png,,,,,,,,,,,,,,,,,,,,,
,,,,,,,,,,,,,,,,,200446,19,2022-01-28_16h25.33.885,lexical_decision_task_DD_L5,2021.2.3,MacIntel,60.0024001,,,,,,,,,,,,0.7466,1,,,,,,,,,,,,,,z,1,0.7466,,,,,,,,0.257838542,-0.044960937,0,0,0,,0,93,93,161,1,BLAPS,LB,old,z,./images/BLAPSLB.png,,,,,,,,,,,,,,,,,,,,,
,,,,,,,,,,,,,,,,,200446,19,2022-01-28_16h25.33.885,lexical_decision_task_DD_L5,2021.2.3,MacIntel,60.0024001,,,,,,,,,,,,0.5799,1,,,,,,,,,,,,,,z,1,0.5799,,,,,,,,0.257838542,-0.044960937,0,0,0,,0,94,94,137,1,JOOST,LB,old,z,./images/JOOSTLB.png,,,,,,,,,,,,,,,,,,,,,
,,,,,,,,,,,,,,,,,200446,19,2022-01-28_16h25.33.885,lexical_decision_task_DD_L5,2021.2.3,MacIntel,60.0024001,,,,,,,,,,,,0.6322,1,,,,,,,,,,,,,,z,1,0.6322,,,,,,,,0.257838542,-0.044960937,0,0,0,,0,95,95,96,1,KEAMS,C,old,z,./images/KEAMS.png,,,,,,,,,,,,,,,,,,,,,
,,,,,,,,,,,,,,,,,200446,19,2022-01-28_16h25.33.885,lexical_decision_task_DD_L5,2021.2.3,MacIntel,60.0024001,,,,,,,,,,,,0.6937,1,,,,,,,,,,,,,,z,1,0.6937,,,,,,,,0.257838542,-0.044960937,0,0,0,,0,96,96,103,1,FLORT,HB,old,z,./images/FLORTHB.png,,,,,,,,,,,,,,,,,,,,,
,,,,,,,,,,,,,,,,,200446,19,2022-01-28_16h25.33.885,lexical_decision_task_DD_L5,2021.2.3,MacIntel,60.0024001,,,,,,,,,,,,0.6982,1,,,,,,,,,,,,,,m,1,0.6982,,,,,,,,0.257838542,-0.044960937,0,0,0,,0,97,97,36,1,BOILER,HB,old,m,./images/BOILERHB.png,,,,,,,,,,,,,,,,,,,,,
,,,,,,,,,,,,,,,,,200446,19,2022-01-28_16h25.33.885,lexical_decision_task_DD_L5,2021.2.3,MacIntel,60.0024001,,,,,,,,,,,,0.819,1,,,,,,,,,,,,,,m,1,0.819,,,,,,,,0.257838542,-0.044960937,0,0,0,,0,98,98,9,1,DIVER,HB,old,m,./images/DIVERHB.png,,,,,,,,,,,,,,,,,,,,,
,,,,,,,,,,,,,,,,,200446,19,2022-01-28_16h25.33.885,lexical_decision_task_DD_L5,2021.2.3,MacIntel,60.0024001,,,,,,,,,,,,0.6957,1,,,,,,,,,,,,,,m,1,0.6957,,,,,,,,0.257838542,-0.044960937,0,0,0,,0,99,99,27,1,BUTTER,HB,old,m,./images/BUTTERHB.png,,,,,,,,,,,,,,,,,,,,,
,,,,,,,,,,,,,,,,,200446,19,2022-01-28_16h25.33.885,lexical_decision_task_DD_L5,2021.2.3,MacIntel,60.0024001,,,,,,,,,,,,0.4321,1,,,,,,,,,,,,,,m,1,0.4321,,,,,,,,0.257838542,-0.044960937,0,0,0,,0,100,100,44,1,BASKET,C,old,m,./images/BASKET.png,,,,,,,,,,,,,,,,,,,,,
,,,,,,,,,,,,,,,,,200446,19,2022-01-28_16h25.33.885,lexical_decision_task_DD_L5,2021.2.3,MacIntel,60.0024001,,,,,,,,,,,,0.6934,1,,,,,,,,,,,,,,z,1,0.6934,,,,,,,,0.257838542,-0.044960937,0,0,0,,0,101,101,158,1,EGECT,LB,old,z,./images/EGECTLB.png,,,,,,,,,,,,,,,,,,,,,
,,,,,,,,,,,,,,,,,200446,19,2022-01-28_16h25.33.885,lexical_decision_task_DD_L5,2021.2.3,MacIntel,60.0024001,,,,,,,,,,,,1.2758,1,,,,,,,,,,,,,,z,1,1.2758,,,,,,,,0.257838542,-0.044960937,0,0,0,,0,102,102,141,1,PLEET,C,old,z,./images/PLEET.png,,,,,,,,,,,,,,,,,,,,,
,,,,,,,,,,,,,,,,,200446,19,2022-01-28_16h25.33.885,lexical_decision_task_DD_L5,2021.2.3,MacIntel,60.0024001,,,,,,,,,,,,0.5454,1,,,,,,,,,,,,,,m,1,0.5454,,,,,,,,0.257838542,-0.044960937,0,0,0,,0,103,103,37,1,TIGER,LB,old,m,./images/TIGERLB.png,,,,,,,,,,,,,,,,,,,,,
,,,,,,,,,,,,,,,,,200446,19,2022-01-28_16h25.33.885,lexical_decision_task_DD_L5,2021.2.3,MacIntel,60.0024001,,,,,,,,,,,,0.5126,1,,,,,,,,,,,,,,m,1,0.5126,,,,,,,,0.257838542,-0.044960937,0,0,0,,0,104,104,22,1,CLOWN,LB,old,m,./images/CLOWNLB.png,,,,,,,,,,,,,,,,,,,,,
,,,,,,,,,,,,,,,,,200446,19,2022-01-28_16h25.33.885,lexical_decision_task_DD_L5,2021.2.3,MacIntel,60.0024001,,,,,,,,,,,,0.5274,1,,,,,,,,,,,,,,m,1,0.5274,,,,,,,,0.257838542,-0.044960937,0,0,0,,0,105,105,2,1,STOVE,C,old,m,./images/STOVE.png,,,,,,,,,,,,,,,,,,,,,
,,,,,,,,,,,,,,,,,200446,19,2022-01-28_16h25.33.885,lexical_decision_task_DD_L5,2021.2.3,MacIntel,60.0024001,,,,,,,,,,,,0.7926,1,,,,,,,,,,,,,,z,1,0.7926,,,,,,,,0.257838542,-0.044960937,0,0,0,,0,106,106,144,1,NAIRY,C,old,z,./images/NAIRY.png,,,,,,,,,,,,,,,,,,,,,
,,,,,,,,,,,,,,,,,200446,19,2022-01-28_16h25.33.885,lexical_decision_task_DD_L5,2021.2.3,MacIntel,60.0024001,,,,,,,,,,,,0.5511,1,,,,,,,,,,,,,,m,1,0.5511,,,,,,,,0.257838542,-0.044960937,0,0,0,,0,107,107,52,1,DESERT,LB,old,m,./images/DESERTLB.png,,,,,,,,,,,,,,,,,,,,,
,,,,,,,,,,,,,,,,,200446,19,2022-01-28_16h25.33.885,lexical_decision_task_DD_L5,2021.2.3,MacIntel,60.0024001,,,,,,,,,,,,0.843,1,,,,,,,,,,,,,,m,1,0.843,,,,,,,,0.257838542,-0.044960937,0,0,0,,0,108,108,72,1,FLASK,HB,old,m,./images/FLASKHB.png,,,,,,,,,,,,,,,,,,,,,
,,,,,,,,,,,,,,,,,200446,19,2022-01-28_16h25.33.885,lexical_decision_task_DD_L5,2021.2.3,MacIntel,60.0024001,,,,,,,,,,,,0.628,1,,,,,,,,,,,,,,z,1,0.628,,,,,,,,0.257838542,-0.044960937,0,0,0,,0,109,109,159,1,CUDDY,C,old,z,./images/CUDDY.png,,,,,,,,,,,,,,,,,,,,,
,,,,,,,,,,,,,,,,,200446,19,2022-01-28_16h25.33.885,lexical_decision_task_DD_L5,2021.2.3,MacIntel,60.0024001,,,,,,,,,,,,0.6112,0,,,,,,,,,,,,,,m,0,0.6112,,,,,,,,0.257838542,-0.044960937,0,0,0,,0,110,110,128,1,GRIFT,LB,old,z,./images/GRIFTLB.png,,,,,,,,,,,,,,,,,,,,,
,,,,,,,,,,,,,,,,,200446,19,2022-01-28_16h25.33.885,lexical_decision_task_DD_L5,2021.2.3,MacIntel,60.0024001,,,,,,,,,,,,0.579,1,,,,,,,,,,,,,,m,1,0.579,,,,,,,,0.257838542,-0.044960937,0,0,0,,0,111,111,32,1,HOCKEY,C,old,m,./images/HOCKEY.png,,,,,,,,,,,,,,,,,,,,,
,,,,,,,,,,,,,,,,,200446,19,2022-01-28_16h25.33.885,lexical_decision_task_DD_L5,2021.2.3,MacIntel,60.0024001,,,,,,,,,,,,0.7132,1,,,,,,,,,,,,,,z,1,0.7132,,,,,,,,0.257838542,-0.044960937,0,0,0,,0,112,112,123,1,SEDGE,C,old,z,./images/SEDGE.png,,,,,,,,,,,,,,,,,,,,,
,,,,,,,,,,,,,,,,,200446,19,2022-01-28_16h25.33.885,lexical_decision_task_DD_L5,2021.2.3,MacIntel,60.0024001,,,,,,,,,,,,0.5274,1,,,,,,,,,,,,,,m,1,0.5274,,,,,,,,0.257838542,-0.044960937,0,0,0,,0,113,113,7,1,WAGON,LB,old,m,./images/WAGONLB.png,,,,,,,,,,,,,,,,,,,,,
,,,,,,,,,,,,,,,,,200446,19,2022-01-28_16h25.33.885,lexical_decision_task_DD_L5,2021.2.3,MacIntel,60.0024001,,,,,,,,,,,,0.7129,1,,,,,,,,,,,,,,m,1,0.7129,,,,,,,,0.257838542,-0.044960937,0,0,0,,0,114,114,49,1,BISHOP,LB,old,m,./images/BISHOPLB.png,,,,,,,,,,,,,,,,,,,,,
,,,,,,,,,,,,,,,,,200446,19,2022-01-28_16h25.33.885,lexical_decision_task_DD_L5,2021.2.3,MacIntel,60.0024001,,,,,,,,,,,,0.8784,1,,,,,,,,,,,,,,z,1,0.8784,,,,,,,,0.257838542,-0.044960937,0,0,0,,0,115,115,152,1,FRAIN,LB,old,z,./images/FRAINLB.png,,,,,,,,,,,,,,,,,,,,,
,,,,,,,,,,,,,,,,,200446,19,2022-01-28_16h25.33.885,lexical_decision_task_DD_L5,2021.2.3,MacIntel,60.0024001,,,,,,,,,,,,0.8514,1,,,,,,,,,,,,,,z,1,0.8514,,,,,,,,0.257838542,-0.044960937,0,0,0,,0,116,116,145,1,LAMEL,HB,old,z,./images/LAMELHB.png,,,,,,,,,,,,,,,,,,,,,
,,,,,,,,,,,,,,,,,200446,19,2022-01-28_16h25.33.885,lexical_decision_task_DD_L5,2021.2.3,MacIntel,60.0024001,,,,,,,,,,,,0.6265,1,,,,,,,,,,,,,,m,1,0.6265,,,,,,,,0.257838542,-0.044960937,0,0,0,,0,117,117,59,1,BRUSH,C,old,m,./images/BRUSH.png,,,,,,,,,,,,,,,,,,,,,
,,,,,,,,,,,,,,,,,200446,19,2022-01-28_16h25.33.885,lexical_decision_task_DD_L5,2021.2.3,MacIntel,60.0024001,,,,,,,,,,,,0.6612,1,,,,,,,,,,,,,,z,1,0.6612,,,,,,,,0.257838542,-0.044960937,0,0,0,,0,118,118,135,1,JOODY,C,old,z,./images/JOODY.png,,,,,,,,,,,,,,,,,,,,,
,,,,,,,,,,,,,,,,,200446,19,2022-01-28_16h25.33.885,lexical_decision_task_DD_L5,2021.2.3,MacIntel,60.0024001,,,,,,,,,,,,1.1452,1,,,,,,,,,,,,,,z,1,1.1452,,,,,,,,0.257838542,-0.044960937,0,0,0,,0,119,119,143,1,MONGS,LB,old,z,./images/MONGSLB.png,,,,,,,,,,,,,,,,,,,,,
,,,,,,,,,,,,,,,,,200446,19,2022-01-28_16h25.33.885,lexical_decision_task_DD_L5,2021.2.3,MacIntel,60.0024001,,,,,,,,,,,,0.8363,1,,,,,,,,,,,,,,z,1,0.8363,,,,,,,,0.257838542,-0.044960937,0,0,0,,0,120,120,136,1,WERVE,HB,old,z,./images/WERVEHB.png,,,,,,,,,,,,,,,,,,,,,
,,,,,,,,,,,,,,,,,200446,19,2022-01-28_16h25.33.885,lexical_decision_task_DD_L5,2021.2.3,MacIntel,60.0024001,,,,,,,,,,,,0.6259,1,,,,,,,,,,,,,,z,1,0.6259,,,,,,,,0.257838542,-0.044960937,0,0,0,,0,121,121,111,1,HOSSE,C,old,z,./images/HOSSE.png,,,,,,,,,,,,,,,,,,,,,
,,,,,,,,,,,,,,,,,200446,19,2022-01-28_16h25.33.885,lexical_decision_task_DD_L5,2021.2.3,MacIntel,60.0024001,,,,,,,,,,,,0.5443,1,,,,,,,,,,,,,,m,1,0.5443,,,,,,,,0.257838542,-0.044960937,0,0,0,,0,122,122,28,1,CASINO,LB,old,m,./images/CASINOLB.png,,,,,,,,,,,,,,,,,,,,,
,,,,,,,,,,,,,,,,,200446,19,2022-01-28_16h25.33.885,lexical_decision_task_DD_L5,2021.2.3,MacIntel,60.0024001,,,,,,,,,,,,0.7937,1,,,,,,,,,,,,,,m,1,0.7937,,,,,,,,0.257838542,-0.044960937,0,0,0,,0,123,123,51,1,SAUCE,HB,old,m,./images/SAUCEHB.png,,,,,,,,,,,,,,,,,,,,,
,,,,,,,,,,,,,,,,,200446,19,2022-01-28_16h25.33.885,lexical_decision_task_DD_L5,2021.2.3,MacIntel,60.0024001,,,,,,,,,,,,0.5773,1,,,,,,,,,,,,,,m,1,0.5773,,,,,,,,0.257838542,-0.044960937,0,0,0,,0,124,124,14,1,FENCE,C,old,m,./images/FENCE.png,,,,,,,,,,,,,,,,,,,,,
,,,,,,,,,,,,,,,,,200446,19,2022-01-28_16h25.33.885,lexical_decision_task_DD_L5,2021.2.3,MacIntel,60.0024001,,,,,,,,,,,,0.8263,1,,,,,,,,,,,,,,z,1,0.8263,,,,,,,,0.257838542,-0.044960937,0,0,0,space,0,125,125,113,1,LINEW,LB,old,z,./images/LINEWLB.png,16.6026,,,,,,,,,,,,,,,,,,,,
,,,,,,,,,,,,,,,,,200446,19,2022-01-28_16h25.33.885,lexical_decision_task_DD_L5,2021.2.3,MacIntel,60.0024001,,,,,,,,,,,,1.1942,1,,,,,,,,,,,,,,z,1,1.1942,,,,,,,,0.257838542,-0.044960937,0,0,0,,0,126,126,110,1,CRUNK,LB,old,z,./images/CRUNKLB.png,,,,,,,,,,,,,,,,,,,,,
,,,,,,,,,,,,,,,,,200446,19,2022-01-28_16h25.33.885,lexical_decision_task_DD_L5,2021.2.3,MacIntel,60.0024001,,,,,,,,,,,,0.6797,1,,,,,,,,,,,,,,z,1,0.6797,,,,,,,,0.257838542,-0.044960937,0,0,0,,0,127,127,160,1,VEETS,HB,old,z,./images/VEETSHB.png,,,,,,,,,,,,,,,,,,,,,
,,,,,,,,,,,,,,,,,200446,19,2022-01-28_16h25.33.885,lexical_decision_task_DD_L5,2021.2.3,MacIntel,60.0024001,,,,,,,,,,,,0.514,1,,,,,,,,,,,,,,m,1,0.514,,,,,,,,0.257838542,-0.044960937,0,0,0,,0,128,128,45,1,MONKEY,HB,old,m,./images/MONKEYHB.png,,,,,,,,,,,,,,,,,,,,,
,,,,,,,,,,,,,,,,,200446,19,2022-01-28_16h25.33.885,lexical_decision_task_DD_L5,2021.2.3,MacIntel,60.0024001,,,,,,,,,,,,1.1268,1,,,,,,,,,,,,,,z,1,1.1268,,,,,,,,0.257838542,-0.044960937,0,0,0,,0,129,129,151,1,TINKY,HB,old,z,./images/TINKYHB.png,,,,,,,,,,,,,,,,,,,,,
,,,,,,,,,,,,,,,,,200446,19,2022-01-28_16h25.33.885,lexical_decision_task_DD_L5,2021.2.3,MacIntel,60.0024001,,,,,,,,,,,,0.7165,1,,,,,,,,,,,,,,z,1,0.7165,,,,,,,,0.257838542,-0.044960937,0,0,0,,0,130,130,140,1,DOVET,LB,old,z,./images/DOVETLB.png,,,,,,,,,,,,,,,,,,,,,
,,,,,,,,,,,,,,,,,200446,19,2022-01-28_16h25.33.885,lexical_decision_task_DD_L5,2021.2.3,MacIntel,60.0024001,,,,,,,,,,,,0.5423,1,,,,,,,,,,,,,,m,1,0.5423,,,,,,,,0.257838542,-0.044960937,0,0,0,,0,131,131,35,1,LLAMA,C,old,m,./images/LLAMA.png,,,,,,,,,,,,,,,,,,,,,
,,,,,,,,,,,,,,,,,200446,19,2022-01-28_16h25.33.885,lexical_decision_task_DD_L5,2021.2.3,MacIntel,60.0024001,,,,,,,,,,,,0.5322,1,,,,,,,,,,,,,,m,1,0.5322,,,,,,,,0.257838542,-0.044960937,0,0,0,,0,132,132,60,1,CURRY,HB,old,m,./images/CURRYHB.png,,,,,,,,,,,,,,,,,,,,,
,,,,,,,,,,,,,,,,,200446,19,2022-01-28_16h25.33.885,lexical_decision_task_DD_L5,2021.2.3,MacIntel,60.0024001,,,,,,,,,,,,0.516,1,,,,,,,,,,,,,,m,1,0.516,,,,,,,,0.257838542,-0.044960937,0,0,0,,0,133,133,64,1,BRIDE,LB,old,m,./images/BRIDELB.png,,,,,,,,,,,,,,,,,,,,,
,,,,,,,,,,,,,,,,,200446,19,2022-01-28_16h25.33.885,lexical_decision_task_DD_L5,2021.2.3,MacIntel,60.0024001,,,,,,,,,,,,0.9703,0,,,,,,,,,,,,,,m,0,0.9703,,,,,,,,0.257838542,-0.044960937,0,0,0,,0,134,134,163,1,GAMBA,HB,old,z,./images/GAMBAHB.png,,,,,,,,,,,,,,,,,,,,,
,,,,,,,,,,,,,,,,,200446,19,2022-01-28_16h25.33.885,lexical_decision_task_DD_L5,2021.2.3,MacIntel,60.0024001,,,,,,,,,,,,0.709,1,,,,,,,,,,,,,,m,1,0.709,,,,,,,,0.257838542,-0.044960937,0,0,0,,0,135,135,58,1,CANOE,LB,old,m,./images/CANOELB.png,,,,,,,,,,,,,,,,,,,,,
,,,,,,,,,,,,,,,,,200446,19,2022-01-28_16h25.33.885,lexical_decision_task_DD_L5,2021.2.3,MacIntel,60.0024001,,,,,,,,,,,,0.6464,1,,,,,,,,,,,,,,z,1,0.6464,,,,,,,,0.257838542,-0.044960937,0,0,0,,0,136,136,105,1,MOKER,C,old,z,./images/MOKER.png,,,,,,,,,,,,,,,,,,,,,
,,,,,,,,,,,,,,,,,200446,19,2022-01-28_16h25.33.885,lexical_decision_task_DD_L5,2021.2.3,MacIntel,60.0024001,,,,,,,,,,,,0.5823,1,,,,,,,,,,,,,,m,1,0.5823,,,,,,,,0.257838542,-0.044960937,0,0,0,,0,137,137,80,1,PLANET,C,old,m,./images/PLANET.png,,,,,,,,,,,,,,,,,,,,,
,,,,,,,,,,,,,,,,,200446,19,2022-01-28_16h25.33.885,lexical_decision_task_DD_L5,2021.2.3,MacIntel,60.0024001,,,,,,,,,,,,0.7284,1,,,,,,,,,,,,,,z,1,0.7284,,,,,,,,0.257838542,-0.044960937,0,0,0,,0,138,138,132,1,SCIFF,C,old,z,./images/SCIFF.png,,,,,,,,,,,,,,,,,,,,,
,,,,,,,,,,,,,,,,,200446,19,2022-01-28_16h25.33.885,lexical_decision_task_DD_L5,2021.2.3,MacIntel,60.0024001,,,,,,,,,,,,0.6279,1,,,,,,,,,,,,,,z,1,0.6279,,,,,,,,0.257838542,-0.044960937,0,0,0,,0,139,139,116,1,BALGY,LB,old,z,./images/BALGYLB.png,,,,,,,,,,,,,,,,,,,,,
,,,,,,,,,,,,,,,,,200446,19,2022-01-28_16h25.33.885,lexical_decision_task_DD_L5,2021.2.3,MacIntel,60.0024001,,,,,,,,,,,,0.6279,1,,,,,,,,,,,,,,z,1,0.6279,,,,,,,,0.257838542,-0.044960937,0,0,0,,0,140,140,167,1,ZONET,LB,old,z,./images/ZONETLB.png,,,,,,,,,,,,,,,,,,,,,
,,,,,,,,,,,,,,,,,200446,19,2022-01-28_16h25.33.885,lexical_decision_task_DD_L5,2021.2.3,MacIntel,60.0024001,,,,,,,,,,,,0.5956,1,,,,,,,,,,,,,,z,1,0.5956,,,,,,,,0.257838542,-0.044960937,0,0,0,,0,141,141,162,1,LEICH,C,old,z,./images/LEICH.png,,,,,,,,,,,,,,,,,,,,,
,,,,,,,,,,,,,,,,,200446,19,2022-01-28_16h25.33.885,lexical_decision_task_DD_L5,2021.2.3,MacIntel,60.0024001,,,,,,,,,,,,0.5813,1,,,,,,,,,,,,,,m,1,0.5813,,,,,,,,0.257838542,-0.044960937,0,0,0,,0,142,142,0,1,WALNUT,HB,old,m,./images/WALNUTHB.png,,,,,,,,,,,,,,,,,,,,,
,,,,,,,,,,,,,,,,,200446,19,2022-01-28_16h25.33.885,lexical_decision_task_DD_L5,2021.2.3,MacIntel,60.0024001,,,,,,,,,,,,0.5609,1,,,,,,,,,,,,,,m,1,0.5609,,,,,,,,0.257838542,-0.044960937,0,0,0,,0,143,143,83,1,WHISKY,C,old,m,./images/WHISKY.png,,,,,,,,,,,,,,,,,,,,,
,,,,,,,,,,,,,,,,,200446,19,2022-01-28_16h25.33.885,lexical_decision_task_DD_L5,2021.2.3,MacIntel,60.0024001,,,,,,,,,,,,0.6434,1,,,,,,,,,,,,,,m,1,0.6434,,,,,,,,0.257838542,-0.044960937,0,0,0,,0,144,144,70,1,BANANA,LB,old,m,./images/BANANALB.png,,,,,,,,,,,,,,,,,,,,,
,,,,,,,,,,,,,,,,,200446,19,2022-01-28_16h25.33.885,lexical_decision_task_DD_L5,2021.2.3,MacIntel,60.0024001,,,,,,,,,,,,0.5105,1,,,,,,,,,,,,,,m,1,0.5105,,,,,,,,0.257838542,-0.044960937,0,0,0,,0,145,145,68,1,VALLEY,C,old,m,./images/VALLEY.png,,,,,,,,,,,,,,,,,,,,,
,,,,,,,,,,,,,,,,,200446,19,2022-01-28_16h25.33.885,lexical_decision_task_DD_L5,2021.2.3,MacIntel,60.0024001,,,,,,,,,,,,0.9522,1,,,,,,,,,,,,,,m,1,0.9522,,,,,,,,0.257838542,-0.044960937,0,0,0,,0,146,146,33,1,SAUNA,HB,old,m,./images/SAUNAHB.png,,,,,,,,,,,,,,,,,,,,,
,,,,,,,,,,,,,,,,,200446,19,2022-01-28_16h25.33.885,lexical_decision_task_DD_L5,2021.2.3,MacIntel,60.0024001,,,,,,,,,,,,0.684,0,,,,,,,,,,,,,,m,0,0.684,,,,,,,,0.257838542,-0.044960937,0,0,0,,0,147,147,115,1,MAWNS,HB,old,z,./images/MAWNSHB.png,,,,,,,,,,,,,,,,,,,,,
,,,,,,,,,,,,,,,,,200446,19,2022-01-28_16h25.33.885,lexical_decision_task_DD_L5,2021.2.3,MacIntel,60.0024001,,,,,,,,,,,,0.7315,1,,,,,,,,,,,,,,z,1,0.7315,,,,,,,,0.257838542,-0.044960937,0,0,0,,0,148,148,149,1,VEASE,LB,old,z,./images/VEASELB.png,,,,,,,,,,,,,,,,,,,,,
,,,,,,,,,,,,,,,,,200446,19,2022-01-28_16h25.33.885,lexical_decision_task_DD_L5,2021.2.3,MacIntel,60.0024001,,,,,,,,,,,,0.8127,1,,,,,,,,,,,,,,z,1,0.8127,,,,,,,,0.257838542,-0.044960937,0,0,0,,0,149,149,121,1,CEERS,HB,old,z,./images/CEERSHB.png,,,,,,,,,,,,,,,,,,,,,
,,,,,,,,,,,,,,,,,200446,19,2022-01-28_16h25.33.885,lexical_decision_task_DD_L5,2021.2.3,MacIntel,60.0024001,,,,,,,,,,,,1.113,1,,,,,,,,,,,,,,z,1,1.113,,,,,,,,0.257838542,-0.044960937,0,0,0,,0,150,150,157,1,INLER,HB,old,z,./images/INLERHB.png,,,,,,,,,,,,,,,,,,,,,
,,,,,,,,,,,,,,,,,200446,19,2022-01-28_16h25.33.885,lexical_decision_task_DD_L5,2021.2.3,MacIntel,60.0024001,,,,,,,,,,,,0.7443,1,,,,,,,,,,,,,,z,1,0.7443,,,,,,,,0.257838542,-0.044960937,0,0,0,,0,151,151,84,1,HAXES,C,old,z,./images/HAXES.png,,,,,,,,,,,,,,,,,,,,,
,,,,,,,,,,,,,,,,,200446,19,2022-01-28_16h25.33.885,lexical_decision_task_DD_L5,2021.2.3,MacIntel,60.0024001,,,,,,,,,,,,0.6476,1,,,,,,,,,,,,,,z,1,0.6476,,,,,,,,0.257838542,-0.044960937,0,0,0,,0,152,152,119,1,PAFER,LB,old,z,./images/PAFERLB.png,,,,,,,,,,,,,,,,,,,,,
,,,,,,,,,,,,,,,,,200446,19,2022-01-28_16h25.33.885,lexical_decision_task_DD_L5,2021.2.3,MacIntel,60.0024001,,,,,,,,,,,,0.7788,1,,,,,,,,,,,,,,z,1,0.7788,,,,,,,,0.257838542,-0.044960937,0,0,0,,0,153,153,166,1,SHORY,HB,old,z,./images/SHORYHB.png,,,,,,,,,,,,,,,,,,,,,
,,,,,,,,,,,,,,,,,200446,19,2022-01-28_16h25.33.885,lexical_decision_task_DD_L5,2021.2.3,MacIntel,60.0024001,,,,,,,,,,,,0.5334,1,,,,,,,,,,,,,,m,1,0.5334,,,,,,,,0.257838542,-0.044960937,0,0,0,,0,154,154,26,1,CLOUD,C,old,m,./images/CLOUD.png,,,,,,,,,,,,,,,,,,,,,
,,,,,,,,,,,,,,,,,200446,19,2022-01-28_16h25.33.885,lexical_decision_task_DD_L5,2021.2.3,MacIntel,60.0024001,,,,,,,,,,,,0.728,1,,,,,,,,,,,,,,z,1,0.728,,,,,,,,0.257838542,-0.044960937,0,0,0,,0,155,155,150,1,NOOLS,C,old,z,./images/NOOLS.png,,,,,,,,,,,,,,,,,,,,,
,,,,,,,,,,,,,,,,,200446,19,2022-01-28_16h25.33.885,lexical_decision_task_DD_L5,2021.2.3,MacIntel,60.0024001,,,,,,,,,,,,0.5607,1,,,,,,,,,,,,,,m,1,0.5607,,,,,,,,0.257838542,-0.044960937,0,0,0,,0,156,156,66,1,STATUE,HB,old,m,./images/STATUEHB.png,,,,,,,,,,,,,,,,,,,,,
,,,,,,,,,,,,,,,,,200446,19,2022-01-28_16h25.33.885,lexical_decision_task_DD_L5,2021.2.3,MacIntel,60.0024001,,,,,,,,,,,,0.6605,1,,,,,,,,,,,,,,z,1,0.6605,,,,,,,,0.257838542,-0.044960937,0,0,0,,0,157,157,117,1,STEEG,C,old,z,./images/STEEG.png,,,,,,,,,,,,,,,,,,,,,
,,,,,,,,,,,,,,,,,200446,19,2022-01-28_16h25.33.885,lexical_decision_task_DD_L5,2021.2.3,MacIntel,60.0024001,,,,,,,,,,,,0.7169,0,,,,,,,,,,,,,,m,0,0.7169,,,,,,,,0.257838542,-0.044960937,0,0,0,,0,158,158,114,1,RIKES,C,old,z,./images/RIKES.png,,,,,,,,,,,,,,,,,,,,,
,,,,,,,,,,,,,,,,,200446,19,2022-01-28_16h25.33.885,lexical_decision_task_DD_L5,2021.2.3,MacIntel,60.0024001,,,,,,,,,,,,0.7663,1,,,,,,,,,,,,,,m,1,0.7663,,,,,,,,0.257838542,-0.044960937,0,0,0,,0,159,159,38,1,ENGINE,C,old,m,./images/ENGINE.png,,,,,,,,,,,,,,,,,,,,,
,,,,,,,,,,,,,,,,,200446,19,2022-01-28_16h25.33.885,lexical_decision_task_DD_L5,2021.2.3,MacIntel,60.0024001,,,,,,,,,,,,0.6981,1,,,,,,,,,,,,,,m,1,0.6981,,,,,,,,0.257838542,-0.044960937,0,0,0,,0,160,160,24,1,FLESH,HB,old,m,./images/FLESHHB.png,,,,,,,,,,,,,,,,,,,,,
,,,,,,,,,,,,,,,,,200446,19,2022-01-28_16h25.33.885,lexical_decision_task_DD_L5,2021.2.3,MacIntel,60.0024001,,,,,,,,,,,,0.6773,1,,,,,,,,,,,,,,z,1,0.6773,,,,,,,,0.257838542,-0.044960937,0,0,0,,0,161,161,131,1,NACES,LB,old,z,./images/NACESLB.png,,,,,,,,,,,,,,,,,,,,,
,,,,,,,,,,,,,,,,,200446,19,2022-01-28_16h25.33.885,lexical_decision_task_DD_L5,2021.2.3,MacIntel,60.0024001,,,,,,,,,,,,0.6615,1,,,,,,,,,,,,,,m,1,0.6615,,,,,,,,0.257838542,-0.044960937,0,0,0,,0,162,162,13,1,BUNNY,LB,old,m,./images/BUNNYLB.png,,,,,,,,,,,,,,,,,,,,,
,,,,,,,,,,,,,,,,,200446,19,2022-01-28_16h25.33.885,lexical_decision_task_DD_L5,2021.2.3,MacIntel,60.0024001,,,,,,,,,,,,0.794,1,,,,,,,,,,,,,,z,1,0.794,,,,,,,,0.257838542,-0.044960937,0,0,0,,0,163,163,107,1,FASKS,LB,old,z,./images/FASKSLB.png,,,,,,,,,,,,,,,,,,,,,
,,,,,,,,,,,,,,,,,200446,19,2022-01-28_16h25.33.885,lexical_decision_task_DD_L5,2021.2.3,MacIntel,60.0024001,,,,,,,,,,,,0.634,1,,,,,,,,,,,,,,m,1,0.634,,,,,,,,0.257838542,-0.044960937,0,0,0,,0,164,164,50,1,PILOT,C,old,m,./images/PILOT.png,,,,,,,,,,,,,,,,,,,,,
,,,,,,,,,,,,,,,,,200446,19,2022-01-28_16h25.33.885,lexical_decision_task_DD_L5,2021.2.3,MacIntel,60.0024001,,,,,,,,,,,,0.6527,1,,,,,,,,,,,,,,z,1,0.6527,,,,,,,,0.257838542,-0.044960937,0,0,0,,0,165,165,87,1,TRING,C,old,z,./images/TRING.png,,,,,,,,,,,,,,,,,,,,,
,,,,,,,,,,,,,,,,,200446,19,2022-01-28_16h25.33.885,lexical_decision_task_DD_L5,2021.2.3,MacIntel,60.0024001,,,,,,,,,,,,1.2155,0,,,,,,,,,,,,,,m,0,1.2155,,,,,,,,0.257838542,-0.044960937,0,0,0,,0,166,166,122,1,BLOOT,LB,old,z,./images/BLOOTLB.png,,,,,,,,,,,,,,,,,,,,,
,,,,,,,,,,,,,,,,,200446,19,2022-01-28_16h25.33.885,lexical_decision_task_DD_L5,2021.2.3,MacIntel,60.0024001,,,,,,,,,,,,0.6445,1,,,,,,,,,,,,,,z,1,0.6445,,,,,,,,0.257838542,-0.044960937,0,0,0,,0,167,167,156,1,HIXES,C,old,z,./images/HIXES.png,,,,,,,,,,,,,,,,,,,,,
space,0.257838542,-0.044960937,0,0,0,,,,,,,1,test,"In the next phase you will be presented with the words from the the first phase. Your job is to decide whether you remember seeing the word or not. If you remember seeing the word press ""old"" or type ""m"". If you do not remember seeing the word press ""new"" or type ""z"". Please press the space bar or click on continue to begin. ",,,200446,19,2022-01-28_16h25.33.885,lexical_decision_task_DD_L5,2021.2.3,MacIntel,60.0024001,15.4711,,,,,,,,,,,,,,,,,,,,,,,,,,,,,,,,,,,,,,,,,,,,,,,,,,,,,0,0,0,0,1,,,,,,,,,,,,,,,
space,0.123875868,-0.226757812,0,0,0,,,,,,,1,test,"In the next phase you will be presented with the words from the the first phase. Your job is to decide whether you remember seeing the word or not. If you remember seeing the word press ""old"" or type ""m"". If you do not remember seeing the word press ""new"" or type ""z"". Please press the space bar or click on continue to begin. ",,,200446,19,2022-01-28_16h25.33.885,lexical_decision_task_DD_L5,2021.2.3,MacIntel,60.0024001,1.8932,,,,,,,,,,,,,,,,,,,,,,,,,,,,,,,,,,,,,,,,,,,,,,,,,,,,,1,0,1,0,1,,,,,,,,,,,,,,,
,0.065407986,-0.370117188,1,0,0,instr_done_button,,,,,,1,test,"In the next phase you will be presented with the words from the the first phase. Your job is to decide whether you remember seeing the word or not. If you remember seeing the word press ""old"" or type ""m"". If you do not remember seeing the word press ""new"" or type ""z"". Please press the space bar or click on continue to begin. ",,,200446,19,2022-01-28_16h25.33.885,lexical_decision_task_DD_L5,2021.2.3,MacIntel,60.0024001,,,,,,,,,,,,,,,,,,,,,,,,,,,,,,,,,,,,,,,,,,,,,,,,,,,,,,2,0,2,0,1,,,,,,,,,,,,,,,
space,0.126358507,-0.14734809,0,0,0,,,,,,,1,test,"In the next phase you will be presented with the words from the the first phase. Your job is to decide whether you remember seeing the word or not. If you remember seeing the word press ""old"" or type ""m"". If you do not remember seeing the word press ""new"" or type ""z"". Please press the space bar or click on continue to begin. ",,,200446,19,2022-01-28_16h25.33.885,lexical_decision_task_DD_L5,2021.2.3,MacIntel,60.0024001,3.1759,,,,,,,,,,,,,,,,,,,,,,,,,,,,,,,,,,,,,,,,,,,,,,,,,,,,,3,0,3,0,1,,,,,,,,,,,,,,,
,0.039778646,-0.370525174,1,0,0,instr_done_button,,,,,,1,test,"In the next phase you will be presented with the words from the the first phase. Your job is to decide whether you remember seeing the word or not. If you remember seeing the word press ""old"" or type ""m"". If you do not remember seeing the word press ""new"" or type ""z"". Please press the space bar or click on continue to begin. ",,,200446,19,2022-01-28_16h25.33.885,lexical_decision_task_DD_L5,2021.2.3,MacIntel,60.0024001,,,,,,,,,,,,,,,,,,,,,,,,,,,,,,,,,,,,,,,,,,,,,,,,,,,,,,4,0,4,0,1,,,,,,,,,,,,,,,
,,,,,,,,,,,,,,,,,200446,19,2022-01-28_16h25.33.885,lexical_decision_task_DD_L5,2021.2.3,MacIntel,60.0024001,,,,,,,,,,,,1.5397,1,,,,,,,,,,,,,,,,,,,,,,,,0.066475694,-0.279049479,0,0,0,,,,,,,CHAIN,HB,m,y,./images/CHAINHB.png,,,,,,,m,1,1.5397,,,,,,,,0,0,0,42,1
,,,,,,,,,,,,,,,,,200446,19,2022-01-28_16h25.33.885,lexical_decision_task_DD_L5,2021.2.3,MacIntel,60.0024001,,,,,,,,,,,,0.7333,1,,,,,,,,,,,,,,,,,,,,,,,,0.066475694,-0.279049479,0,0,0,,,,,,,PISTOL,C,m,y,./images/PISTOL.png,,,,,,,m,1,0.7333,,,,,,,,0,1,1,29,1
,,,,,,,,,,,,,,,,,200446,19,2022-01-28_16h25.33.885,lexical_decision_task_DD_L5,2021.2.3,MacIntel,60.0024001,,,,,,,,,,,,0.6655,0,,,,,,,,,,,,,,,,,,,,,,,,0.066475694,-0.279049479,0,0,0,,,,,,,SHORE,HB,z,y,./images/SHOREHB.png,,,,,,,m,0,0.6655,,,,,,,,0,2,2,96,1
,,,,,,,,,,,,,,,,,200446,19,2022-01-28_16h25.33.885,lexical_decision_task_DD_L5,2021.2.3,MacIntel,60.0024001,,,,,,,,,,,,0.7473,1,,,,,,,,,,,,,,,,,,,,,,,,0.066475694,-0.279049479,0,0,0,,,,,,,BUNNY,LB,m,y,./images/BUNNYLB.png,,,,,,,m,1,0.7473,,,,,,,,0,3,3,13,1
,,,,,,,,,,,,,,,,,200446,19,2022-01-28_16h25.33.885,lexical_decision_task_DD_L5,2021.2.3,MacIntel,60.0024001,,,,,,,,,,,,0.6827,1,,,,,,,,,,,,,,,,,,,,,,,,0.066475694,-0.279049479,0,0,0,,,,,,,BRIDE,LB,m,y,./images/BRIDELB.png,,,,,,,m,1,0.6827,,,,,,,,0,4,4,64,1
,,,,,,,,,,,,,,,,,200446,19,2022-01-28_16h25.33.885,lexical_decision_task_DD_L5,2021.2.3,MacIntel,60.0024001,,,,,,,,,,,,0.5845,1,,,,,,,,,,,,,,,,,,,,,,,,0.066475694,-0.279049479,0,0,0,,,,,,,SAUCE,HB,m,y,./images/SAUCEHB.png,,,,,,,m,1,0.5845,,,,,,,,0,5,5,51,1
,,,,,,,,,,,,,,,,,200446,19,2022-01-28_16h25.33.885,lexical_decision_task_DD_L5,2021.2.3,MacIntel,60.0024001,,,,,,,,,,,,0.9158,1,,,,,,,,,,,,,,,,,,,,,,,,0.066475694,-0.279049479,0,0,0,,,,,,,JELLY,LB,z,y,./images/JELLYLB.png,,,,,,,z,1,0.9158,,,,,,,,0,6,6,148,1
,,,,,,,,,,,,,,,,,200446,19,2022-01-28_16h25.33.885,lexical_decision_task_DD_L5,2021.2.3,MacIntel,60.0024001,,,,,,,,,,,,1.2691,1,,,,,,,,,,,,,,,,,,,,,,,,0.066475694,-0.279049479,0,0,0,,,,,,,CHERRY,HB,m,y,./images/CHERRYHB.png,,,,,,,m,1,1.2691,,,,,,,,0,7,7,54,1
,,,,,,,,,,,,,,,,,200446,19,2022-01-28_16h25.33.885,lexical_decision_task_DD_L5,2021.2.3,MacIntel,60.0024001,,,,,,,,,,,,0.631,1,,,,,,,,,,,,,,,,,,,,,,,,0.066475694,-0.279049479,0,0,0,,,,,,,WALNUT,HB,m,y,./images/WALNUTHB.png,,,,,,,m,1,0.631,,,,,,,,0,8,8,0,1
,,,,,,,,,,,,,,,,,200446,19,2022-01-28_16h25.33.885,lexical_decision_task_DD_L5,2021.2.3,MacIntel,60.0024001,,,,,,,,,,,,0.9646,1,,,,,,,,,,,,,,,,,,,,,,,,0.066475694,-0.279049479,0,0,0,,,,,,,PURSE,C,z,y,./images/PURSE.png,,,,,,,z,1,0.9646,,,,,,,,0,9,9,146,1
,,,,,,,,,,,,,,,,,200446,19,2022-01-28_16h25.33.885,lexical_decision_task_DD_L5,2021.2.3,MacIntel,60.0024001,,,,,,,,,,,,0.7316,0,,,,,,,,,,,,,,,,,,,,,,,,0.066475694,-0.279049479,0,0,0,,,,,,,COLLAR,HB,m,y,./images/COLLARHB.png,,,,,,,z,0,0.7316,,,,,,,,0,10,10,15,1
,,,,,,,,,,,,,,,,,200446,19,2022-01-28_16h25.33.885,lexical_decision_task_DD_L5,2021.2.3,MacIntel,60.0024001,,,,,,,,,,,,0.8455,1,,,,,,,,,,,,,,,,,,,,,,,,0.066475694,-0.279049479,0,0,0,,,,,,,GARDEN,LB,m,y,./images/GARDENLB.png,,,,,,,m,1,0.8455,,,,,,,,0,11,11,10,1
,,,,,,,,,,,,,,,,,200446,19,2022-01-28_16h25.33.885,lexical_decision_task_DD_L5,2021.2.3,MacIntel,60.0024001,,,,,,,,,,,,0.7828,1,,,,,,,,,,,,,,,,,,,,,,,,0.066475694,-0.279049479,0,0,0,,,,,,,BUBBLE,C,m,y,./images/BUBBLE.png,,,,,,,m,1,0.7828,,,,,,,,0,12,12,71,1
,,,,,,,,,,,,,,,,,200446,19,2022-01-28_16h25.33.885,lexical_decision_task_DD_L5,2021.2.3,MacIntel,60.0024001,,,,,,,,,,,,1.0667,1,,,,,,,,,,,,,,,,,,,,,,,,0.066475694,-0.279049479,0,0,0,,,,,,,MAGGOT,HB,z,y,./images/MAGGOTHB.png,,,,,,,z,1,1.0667,,,,,,,,0,13,13,117,1
,,,,,,,,,,,,,,,,,200446,19,2022-01-28_16h25.33.885,lexical_decision_task_DD_L5,2021.2.3,MacIntel,60.0024001,,,,,,,,,,,,0.9808,1,,,,,,,,,,,,,,,,,,,,,,,,0.066475694,-0.279049479,0,0,0,,,,,,,SNAKE,LB,m,y,./images/SNAKELB.png,,,,,,,m,1,0.9808,,,,,,,,0,14,14,40,1
,,,,,,,,,,,,,,,,,200446,19,2022-01-28_16h25.33.885,lexical_decision_task_DD_L5,2021.2.3,MacIntel,60.0024001,,,,,,,,,,,,0.7657,1,,,,,,,,,,,,,,,,,,,,,,,,0.066475694,-0.279049479,0,0,0,,,,,,,MELON,LB,z,y,./images/MELONLB.png,,,,,,,z,1,0.7657,,,,,,,,0,15,15,106,1
,,,,,,,,,,,,,,,,,200446,19,2022-01-28_16h25.33.885,lexical_decision_task_DD_L5,2021.2.3,MacIntel,60.0024001,,,,,,,,,,,,0.6669,1,,,,,,,,,,,,,,,,,,,,,,,,0.066475694,-0.279049479,0,0,0,,,,,,,STOOL,LB,m,y,./images/STOOLLB.png,,,,,,,m,1,0.6669,,,,,,,,0,16,16,43,1
,,,,,,,,,,,,,,,,,200446,19,2022-01-28_16h25.33.885,lexical_decision_task_DD_L5,2021.2.3,MacIntel,60.0024001,,,,,,,,,,,,0.7316,1,,,,,,,,,,,,,,,,,,,,,,,,0.066475694,-0.279049479,0,0,0,,,,,,,FENCE,C,m,y,./images/FENCE.png,,,,,,,m,1,0.7316,,,,,,,,0,17,17,14,1
,,,,,,,,,,,,,,,,,200446,19,2022-01-28_16h25.33.885,lexical_decision_task_DD_L5,2021.2.3,MacIntel,60.0024001,,,,,,,,,,,,1.3539,1,,,,,,,,,,,,,,,,,,,,,,,,0.066475694,-0.279049479,0,0,0,,,,,,,BARREL,C,z,y,./images/BARREL.png,,,,,,,z,1,1.3539,,,,,,,,0,18,18,116,1
,,,,,,,,,,,,,,,,,200446,19,2022-01-28_16h25.33.885,lexical_decision_task_DD_L5,2021.2.3,MacIntel,60.0024001,,,,,,,,,,,,1.1305,0,,,,,,,,,,,,,,,,,,,,,,,,0.066475694,-0.279049479,0,0,0,,,,,,,NOOSE,HB,z,y,./images/NOOSEHB.png,,,,,,,m,0,1.1305,,,,,,,,0,19,19,156,1
,,,,,,,,,,,,,,,,,200446,19,2022-01-28_16h25.33.885,lexical_decision_task_DD_L5,2021.2.3,MacIntel,60.0024001,,,,,,,,,,,,0.8489,1,,,,,,,,,,,,,,,,,,,,,,,,0.066475694,-0.279049479,0,0,0,,,,,,,WALRUS,C,z,y,./images/WALRUS.png,,,,,,,z,1,0.8489,,,,,,,,0,20,20,107,1
,,,,,,,,,,,,,,,,,200446,19,2022-01-28_16h25.33.885,lexical_decision_task_DD_L5,2021.2.3,MacIntel,60.0024001,,,,,,,,,,,,0.7181,1,,,,,,,,,,,,,,,,,,,,,,,,0.066475694,-0.279049479,0,0,0,,,,,,,STRING,C,z,y,./images/STRING.png,,,,,,,z,1,0.7181,,,,,,,,0,21,21,125,1
,,,,,,,,,,,,,,,,,200446,19,2022-01-28_16h25.33.885,lexical_decision_task_DD_L5,2021.2.3,MacIntel,60.0024001,,,,,,,,,,,,0.8142,1,,,,,,,,,,,,,,,,,,,,,,,,0.066475694,-0.279049479,0,0,0,,,,,,,SMOKER,C,z,y,./images/SMOKER.png,,,,,,,z,1,0.8142,,,,,,,,0,22,22,110,1
,,,,,,,,,,,,,,,,,200446,19,2022-01-28_16h25.33.885,lexical_decision_task_DD_L5,2021.2.3,MacIntel,60.0024001,,,,,,,,,,,,0.6045,1,,,,,,,,,,,,,,,,,,,,,,,,0.066475694,-0.279049479,0,0,0,,,,,,,STOVE,C,m,y,./images/STOVE.png,,,,,,,m,1,0.6045,,,,,,,,0,23,23,2,1
,,,,,,,,,,,,,,,,,200446,19,2022-01-28_16h25.33.885,lexical_decision_task_DD_L5,2021.2.3,MacIntel,60.0024001,,,,,,,,,,,,0.7518,1,,,,,,,,,,,,,,,,,,,,,,,,0.066475694,-0.279049479,0,0,0,,,,,,,PENCE,LB,z,y,./images/PENCELB.png,,,,,,,z,1,0.7518,,,,,,,,0,24,24,100,1
,,,,,,,,,,,,,,,,,200446,19,2022-01-28_16h25.33.885,lexical_decision_task_DD_L5,2021.2.3,MacIntel,60.0024001,,,,,,,,,,,,0.598,1,,,,,,,,,,,,,,,,,,,,,,,,0.066475694,-0.279049479,0,0,0,,,,,,,TULIP,C,z,y,./images/TULIP.png,,,,,,,z,1,0.598,,,,,,,,0,25,25,92,1
,,,,,,,,,,,,,,,,,200446,19,2022-01-28_16h25.33.885,lexical_decision_task_DD_L5,2021.2.3,MacIntel,60.0024001,,,,,,,,,,,,1.2664,0,,,,,,,,,,,,,,,,,,,,,,,,0.066475694,-0.279049479,0,0,0,,,,,,,PAINT,LB,z,y,./images/PAINTLB.png,,,,,,,m,0,1.2664,,,,,,,,0,26,26,91,1
,,,,,,,,,,,,,,,,,200446,19,2022-01-28_16h25.33.885,lexical_decision_task_DD_L5,2021.2.3,MacIntel,60.0024001,,,,,,,,,,,,0.6797,1,,,,,,,,,,,,,,,,,,,,,,,,0.066475694,-0.279049479,0,0,0,,,,,,,PASTA,C,z,y,./images/PASTA.png,,,,,,,z,1,0.6797,,,,,,,,0,27,27,89,1
,,,,,,,,,,,,,,,,,200446,19,2022-01-28_16h25.33.885,lexical_decision_task_DD_L5,2021.2.3,MacIntel,60.0024001,,,,,,,,,,,,0.6822,1,,,,,,,,,,,,,,,,,,,,,,,,0.066475694,-0.279049479,0,0,0,,,,,,,CLIFF,C,m,y,./images/CLIFF.png,,,,,,,m,1,0.6822,,,,,,,,0,28,28,8,1
,,,,,,,,,,,,,,,,,200446,19,2022-01-28_16h25.33.885,lexical_decision_task_DD_L5,2021.2.3,MacIntel,60.0024001,,,,,,,,,,,,0.5712,1,,,,,,,,,,,,,,,,,,,,,,,,0.066475694,-0.279049479,0,0,0,,,,,,,BOILER,HB,m,y,./images/BOILERHB.png,,,,,,,m,1,0.5712,,,,,,,,0,29,29,36,1
,,,,,,,,,,,,,,,,,200446,19,2022-01-28_16h25.33.885,lexical_decision_task_DD_L5,2021.2.3,MacIntel,60.0024001,,,,,,,,,,,,0.7316,1,,,,,,,,,,,,,,,,,,,,,,,,0.066475694,-0.279049479,0,0,0,,,,,,,DRUMS,LB,z,y,./images/DRUMSLB.png,,,,,,,z,1,0.7316,,,,,,,,0,30,30,133,1
,,,,,,,,,,,,,,,,,200446,19,2022-01-28_16h25.33.885,lexical_decision_task_DD_L5,2021.2.3,MacIntel,60.0024001,,,,,,,,,,,,0.6171,1,,,,,,,,,,,,,,,,,,,,,,,,0.066475694,-0.279049479,0,0,0,,,,,,,PIMPLE,C,z,y,./images/PIMPLE.png,,,,,,,z,1,0.6171,,,,,,,,0,31,31,155,1
,,,,,,,,,,,,,,,,,200446,19,2022-01-28_16h25.33.885,lexical_decision_task_DD_L5,2021.2.3,MacIntel,60.0024001,,,,,,,,,,,,0.6966,1,,,,,,,,,,,,,,,,,,,,,,,,0.066475694,-0.279049479,0,0,0,,,,,,,CANOE,LB,m,y,./images/CANOELB.png,,,,,,,m,1,0.6966,,,,,,,,0,32,32,58,1
,,,,,,,,,,,,,,,,,200446,19,2022-01-28_16h25.33.885,lexical_decision_task_DD_L5,2021.2.3,MacIntel,60.0024001,,,,,,,,,,,,1.2802,0,,,,,,,,,,,,,,,,,,,,,,,,0.066475694,-0.279049479,0,0,0,,,,,,,FARMER,C,z,y,./images/FARMER.png,,,,,,,m,0,1.2802,,,,,,,,0,33,33,149,1
,,,,,,,,,,,,,,,,,200446,19,2022-01-28_16h25.33.885,lexical_decision_task_DD_L5,2021.2.3,MacIntel,60.0024001,,,,,,,,,,,,0.8984,1,,,,,,,,,,,,,,,,,,,,,,,,0.066475694,-0.279049479,0,0,0,,,,,,,ENGINE,C,m,y,./images/ENGINE.png,,,,,,,m,1,0.8984,,,,,,,,0,34,34,38,1
,,,,,,,,,,,,,,,,,200446,19,2022-01-28_16h25.33.885,lexical_decision_task_DD_L5,2021.2.3,MacIntel,60.0024001,,,,,,,,,,,,1.0128,0,,,,,,,,,,,,,,,,,,,,,,,,0.066475694,-0.279049479,0,0,0,,,,,,,BONNET,C,z,y,./images/BONNET.png,,,,,,,m,0,1.0128,,,,,,,,0,35,35,95,1
,,,,,,,,,,,,,,,,,200446,19,2022-01-28_16h25.33.885,lexical_decision_task_DD_L5,2021.2.3,MacIntel,60.0024001,,,,,,,,,,,,1.183,1,,,,,,,,,,,,,,,,,,,,,,,,0.066475694,-0.279049479,0,0,0,,,,,,,HEATER,C,m,y,./images/HEATER.png,,,,,,,m,1,1.183,,,,,,,,0,36,36,56,1
,,,,,,,,,,,,,,,,,200446,19,2022-01-28_16h25.33.885,lexical_decision_task_DD_L5,2021.2.3,MacIntel,60.0024001,,,,,,,,,,,,1.2654,1,,,,,,,,,,,,,,,,,,,,,,,,0.066475694,-0.279049479,0,0,0,,,,,,,RHINO,HB,z,y,./images/RHINOHB.png,,,,,,,z,1,1.2654,,,,,,,,0,37,37,93,1
,,,,,,,,,,,,,,,,,200446,19,2022-01-28_16h25.33.885,lexical_decision_task_DD_L5,2021.2.3,MacIntel,60.0024001,,,,,,,,,,,,0.7285,1,,,,,,,,,,,,,,,,,,,,,,,,0.066475694,-0.279049479,0,0,0,,,,,,,CLOWN,LB,m,y,./images/CLOWNLB.png,,,,,,,m,1,0.7285,,,,,,,,0,38,38,22,1
,,,,,,,,,,,,,,,,,200446,19,2022-01-28_16h25.33.885,lexical_decision_task_DD_L5,2021.2.3,MacIntel,60.0024001,,,,,,,,,,,,0.897,1,,,,,,,,,,,,,,,,,,,,,,,,0.066475694,-0.279049479,0,0,0,,,,,,,BRUSH,C,m,y,./images/BRUSH.png,,,,,,,m,1,0.897,,,,,,,,0,39,39,59,1
,,,,,,,,,,,,,,,,,200446,19,2022-01-28_16h25.33.885,lexical_decision_task_DD_L5,2021.2.3,MacIntel,60.0024001,,,,,,,,,,,,0.6662,1,,,,,,,,,,,,,,,,,,,,,,,,0.066475694,-0.279049479,0,0,0,,,,,,,MUFFIN,LB,z,y,./images/MUFFINLB.png,,,,,,,z,1,0.6662,,,,,,,,0,40,40,139,1
,,,,,,,,,,,,,,,,,200446,19,2022-01-28_16h25.33.885,lexical_decision_task_DD_L5,2021.2.3,MacIntel,60.0024001,,,,,,,,,,,,0.8138,1,,,,,,,,,,,,,,,,,,,,,,,,0.180616319,0.209913194,0,0,0,space,,,,,,MIRROR,HB,z,y,./images/MIRRORHB.png,45.2175,,,,,,z,1,0.8138,,,,,,,,0,41,41,147,1
,,,,,,,,,,,,,,,,,200446,19,2022-01-28_16h25.33.885,lexical_decision_task_DD_L5,2021.2.3,MacIntel,60.0024001,,,,,,,,,,,,0.9031,0,,,,,,,,,,,,,,,,,,,,,,,,0.180616319,0.209913194,0,0,0,,,,,,,BABOON,LB,z,y,./images/BABOONLB.png,,,,,,,m,0,0.9031,,,,,,,,0,42,42,142,1
,,,,,,,,,,,,,,,,,200446,19,2022-01-28_16h25.33.885,lexical_decision_task_DD_L5,2021.2.3,MacIntel,60.0024001,,,,,,,,,,,,0.6858,1,,,,,,,,,,,,,,,,,,,,,,,,0.180616319,0.209913194,0,0,0,,,,,,,BASKET,C,m,y,./images/BASKET.png,,,,,,,m,1,0.6858,,,,,,,,0,43,43,44,1
,,,,,,,,,,,,,,,,,200446,19,2022-01-28_16h25.33.885,lexical_decision_task_DD_L5,2021.2.3,MacIntel,60.0024001,,,,,,,,,,,,0.9954,0,,,,,,,,,,,,,,,,,,,,,,,,0.180616319,0.209913194,0,0,0,,,,,,,CANDLE,LB,z,y,./images/CANDLELB.png,,,,,,,m,0,0.9954,,,,,,,,0,44,44,145,1
,,,,,,,,,,,,,,,,,200446,19,2022-01-28_16h25.33.885,lexical_decision_task_DD_L5,2021.2.3,MacIntel,60.0024001,,,,,,,,,,,,0.6306,1,,,,,,,,,,,,,,,,,,,,,,,,0.180616319,0.209913194,0,0,0,,,,,,,TWINS,HB,z,y,./images/TWINSHB.png,,,,,,,z,1,0.6306,,,,,,,,0,45,45,144,1
,,,,,,,,,,,,,,,,,200446,19,2022-01-28_16h25.33.885,lexical_decision_task_DD_L5,2021.2.3,MacIntel,60.0024001,,,,,,,,,,,,0.9473,1,,,,,,,,,,,,,,,,,,,,,,,,0.180616319,0.209913194,0,0,0,,,,,,,CHALK,LB,m,y,./images/CHALKLB.png,,,,,,,m,1,0.9473,,,,,,,,0,46,46,25,1
,,,,,,,,,,,,,,,,,200446,19,2022-01-28_16h25.33.885,lexical_decision_task_DD_L5,2021.2.3,MacIntel,60.0024001,,,,,,,,,,,,0.7321,1,,,,,,,,,,,,,,,,,,,,,,,,0.180616319,0.209913194,0,0,0,,,,,,,SHIELD,HB,m,y,./images/SHIELDHB.png,,,,,,,m,1,0.7321,,,,,,,,0,47,47,48,1
,,,,,,,,,,,,,,,,,200446,19,2022-01-28_16h25.33.885,lexical_decision_task_DD_L5,2021.2.3,MacIntel,60.0024001,,,,,,,,,,,,1.2437,1,,,,,,,,,,,,,,,,,,,,,,,,0.180616319,0.209913194,0,0,0,,,,,,,RULER,LB,m,y,./images/RULERLB.png,,,,,,,m,1,1.2437,,,,,,,,0,48,48,79,1
,,,,,,,,,,,,,,,,,200446,19,2022-01-28_16h25.33.885,lexical_decision_task_DD_L5,2021.2.3,MacIntel,60.0024001,,,,,,,,,,,,0.7158,1,,,,,,,,,,,,,,,,,,,,,,,,0.180616319,0.209913194,0,0,0,,,,,,,BERRY,C,z,y,./images/BERRY.png,,,,,,,z,1,0.7158,,,,,,,,0,49,49,131,1
,,,,,,,,,,,,,,,,,200446,19,2022-01-28_16h25.33.885,lexical_decision_task_DD_L5,2021.2.3,MacIntel,60.0024001,,,,,,,,,,,,0.6815,1,,,,,,,,,,,,,,,,,,,,,,,,0.180616319,0.209913194,0,0,0,,,,,,,DANCER,HB,m,y,./images/DANCERHB.png,,,,,,,m,1,0.6815,,,,,,,,0,50,50,21,1
,,,,,,,,,,,,,,,,,200446,19,2022-01-28_16h25.33.885,lexical_decision_task_DD_L5,2021.2.3,MacIntel,60.0024001,,,,,,,,,,,,0.6485,1,,,,,,,,,,,,,,,,,,,,,,,,0.180616319,0.209913194,0,0,0,,,,,,,PILOT,C,m,y,./images/PILOT.png,,,,,,,m,1,0.6485,,,,,,,,0,51,51,50,1
,,,,,,,,,,,,,,,,,200446,19,2022-01-28_16h25.33.885,lexical_decision_task_DD_L5,2021.2.3,MacIntel,60.0024001,,,,,,,,,,,,0.865,1,,,,,,,,,,,,,,,,,,,,,,,,0.180616319,0.209913194,0,0,0,,,,,,,BANANA,LB,m,y,./images/BANANALB.png,,,,,,,m,1,0.865,,,,,,,,0,52,52,70,1
,,,,,,,,,,,,,,,,,200446,19,2022-01-28_16h25.33.885,lexical_decision_task_DD_L5,2021.2.3,MacIntel,60.0024001,,,,,,,,,,,,0.6366,1,,,,,,,,,,,,,,,,,,,,,,,,0.180616319,0.209913194,0,0,0,,,,,,,CLOTH,C,m,y,./images/CLOTH.png,,,,,,,m,1,0.6366,,,,,,,,0,53,53,23,1
,,,,,,,,,,,,,,,,,200446,19,2022-01-28_16h25.33.885,lexical_decision_task_DD_L5,2021.2.3,MacIntel,60.0024001,,,,,,,,,,,,0.9295,1,,,,,,,,,,,,,,,,,,,,,,,,0.180616319,0.209913194,0,0,0,,,,,,,CANDY,HB,m,y,./images/CANDYHB.png,,,,,,,m,1,0.9295,,,,,,,,0,54,54,39,1
,,,,,,,,,,,,,,,,,200446,19,2022-01-28_16h25.33.885,lexical_decision_task_DD_L5,2021.2.3,MacIntel,60.0024001,,,,,,,,,,,,0.8479,1,,,,,,,,,,,,,,,,,,,,,,,,0.180616319,0.209913194,0,0,0,,,,,,,WEASEL,C,z,y,./images/WEASEL.png,,,,,,,z,1,0.8479,,,,,,,,0,55,55,164,1
,,,,,,,,,,,,,,,,,200446,19,2022-01-28_16h25.33.885,lexical_decision_task_DD_L5,2021.2.3,MacIntel,60.0024001,,,,,,,,,,,,0.733,1,,,,,,,,,,,,,,,,,,,,,,,,0.180616319,0.209913194,0,0,0,,,,,,,FERRY,HB,m,y,./images/FERRYHB.png,,,,,,,m,1,0.733,,,,,,,,0,56,56,57,1
,,,,,,,,,,,,,,,,,200446,19,2022-01-28_16h25.33.885,lexical_decision_task_DD_L5,2021.2.3,MacIntel,60.0024001,,,,,,,,,,,,1.6903,0,,,,,,,,,,,,,,,,,,,,,,,,0.180616319,0.209913194,0,0,0,,,,,,,QUILL,LB,z,y,./images/QUILLLB.png,,,,,,,m,0,1.6903,,,,,,,,0,57,57,115,1
,,,,,,,,,,,,,,,,,200446,19,2022-01-28_16h25.33.885,lexical_decision_task_DD_L5,2021.2.3,MacIntel,60.0024001,,,,,,,,,,,,0.965,1,,,,,,,,,,,,,,,,,,,,,,,,0.180616319,0.209913194,0,0,0,,,,,,,LADDER,C,z,y,./images/LADDER.png,,,,,,,z,1,0.965,,,,,,,,0,58,58,122,1
,,,,,,,,,,,,,,,,,200446,19,2022-01-28_16h25.33.885,lexical_decision_task_DD_L5,2021.2.3,MacIntel,60.0024001,,,,,,,,,,,,0.6672,1,,,,,,,,,,,,,,,,,,,,,,,,0.180616319,0.209913194,0,0,0,,,,,,,LLAMA,C,m,y,./images/LLAMA.png,,,,,,,m,1,0.6672,,,,,,,,0,59,59,35,1
,,,,,,,,,,,,,,,,,200446,19,2022-01-28_16h25.33.885,lexical_decision_task_DD_L5,2021.2.3,MacIntel,60.0024001,,,,,,,,,,,,0.7807,0,,,,,,,,,,,,,,,,,,,,,,,,0.180616319,0.209913194,0,0,0,,,,,,,GRAIN,HB,z,y,./images/GRAINHB.png,,,,,,,m,0,0.7807,,,,,,,,0,60,60,159,1
,,,,,,,,,,,,,,,,,200446,19,2022-01-28_16h25.33.885,lexical_decision_task_DD_L5,2021.2.3,MacIntel,60.0024001,,,,,,,,,,,,1.0817,0,,,,,,,,,,,,,,,,,,,,,,,,0.180616319,0.209913194,0,0,0,,,,,,,FOLDER,HB,z,y,./images/FOLDERHB.png,,,,,,,m,0,1.0817,,,,,,,,0,61,61,126,1
,,,,,,,,,,,,,,,,,200446,19,2022-01-28_16h25.33.885,lexical_decision_task_DD_L5,2021.2.3,MacIntel,60.0024001,,,,,,,,,,,,1.0694,0,,,,,,,,,,,,,,,,,,,,,,,,0.180616319,0.209913194,0,0,0,,,,,,,CRADLE,C,z,y,./images/CRADLE.png,,,,,,,m,0,1.0694,,,,,,,,0,62,62,104,1
,,,,,,,,,,,,,,,,,200446,19,2022-01-28_16h25.33.885,lexical_decision_task_DD_L5,2021.2.3,MacIntel,60.0024001,,,,,,,,,,,,0.766,1,,,,,,,,,,,,,,,,,,,,,,,,0.180616319,0.209913194,0,0,0,,,,,,,SKIING,C,z,y,./images/SKIING.png,,,,,,,z,1,0.766,,,,,,,,0,63,63,101,1
,,,,,,,,,,,,,,,,,200446,19,2022-01-28_16h25.33.885,lexical_decision_task_DD_L5,2021.2.3,MacIntel,60.0024001,,,,,,,,,,,,0.9526,0,,,,,,,,,,,,,,,,,,,,,,,,0.180616319,0.209913194,0,0,0,,,,,,,MAMMAL,C,m,y,./images/MAMMAL.png,,,,,,,z,0,0.9526,,,,,,,,0,64,64,62,1
,,,,,,,,,,,,,,,,,200446,19,2022-01-28_16h25.33.885,lexical_decision_task_DD_L5,2021.2.3,MacIntel,60.0024001,,,,,,,,,,,,0.7456,1,,,,,,,,,,,,,,,,,,,,,,,,0.180616319,0.209913194,0,0,0,,,,,,,GRAPE,LB,m,y,./images/GRAPELB.png,,,,,,,m,1,0.7456,,,,,,,,0,65,65,16,1
,,,,,,,,,,,,,,,,,200446,19,2022-01-28_16h25.33.885,lexical_decision_task_DD_L5,2021.2.3,MacIntel,60.0024001,,,,,,,,,,,,0.7285,1,,,,,,,,,,,,,,,,,,,,,,,,0.180616319,0.209913194,0,0,0,,,,,,,KITTEN,HB,z,y,./images/KITTENHB.png,,,,,,,z,1,0.7285,,,,,,,,0,66,66,129,1
,,,,,,,,,,,,,,,,,200446,19,2022-01-28_16h25.33.885,lexical_decision_task_DD_L5,2021.2.3,MacIntel,60.0024001,,,,,,,,,,,,1.0279,1,,,,,,,,,,,,,,,,,,,,,,,,0.180616319,0.209913194,0,0,0,,,,,,,POSTER,C,m,y,./images/POSTER.png,,,,,,,m,1,1.0279,,,,,,,,0,67,67,53,1
,,,,,,,,,,,,,,,,,200446,19,2022-01-28_16h25.33.885,lexical_decision_task_DD_L5,2021.2.3,MacIntel,60.0024001,,,,,,,,,,,,0.6632,1,,,,,,,,,,,,,,,,,,,,,,,,0.180616319,0.209913194,0,0,0,,,,,,,PEBBLE,LB,m,y,./images/PEBBLELB.png,,,,,,,m,1,0.6632,,,,,,,,0,68,68,82,1
,,,,,,,,,,,,,,,,,200446,19,2022-01-28_16h25.33.885,lexical_decision_task_DD_L5,2021.2.3,MacIntel,60.0024001,,,,,,,,,,,,0.6181,1,,,,,,,,,,,,,,,,,,,,,,,,0.180616319,0.209913194,0,0,0,,,,,,,FLASK,HB,m,y,./images/FLASKHB.png,,,,,,,m,1,0.6181,,,,,,,,0,69,69,72,1
,,,,,,,,,,,,,,,,,200446,19,2022-01-28_16h25.33.885,lexical_decision_task_DD_L5,2021.2.3,MacIntel,60.0024001,,,,,,,,,,,,0.6489,1,,,,,,,,,,,,,,,,,,,,,,,,0.180616319,0.209913194,0,0,0,,,,,,,TOWEL,LB,m,y,./images/TOWELLB.png,,,,,,,m,1,0.6489,,,,,,,,0,70,70,1,1
,,,,,,,,,,,,,,,,,200446,19,2022-01-28_16h25.33.885,lexical_decision_task_DD_L5,2021.2.3,MacIntel,60.0024001,,,,,,,,,,,,0.7311,0,,,,,,,,,,,,,,,,,,,,,,,,0.180616319,0.209913194,0,0,0,,,,,,,PACKET,C,z,y,./images/PACKET.png,,,,,,,m,0,0.7311,,,,,,,,0,71,71,140,1
,,,,,,,,,,,,,,,,,200446,19,2022-01-28_16h25.33.885,lexical_decision_task_DD_L5,2021.2.3,MacIntel,60.0024001,,,,,,,,,,,,0.6141,1,,,,,,,,,,,,,,,,,,,,,,,,0.180616319,0.209913194,0,0,0,,,,,,,PARADE,C,m,y,./images/PARADE.png,,,,,,,m,1,0.6141,,,,,,,,0,72,72,17,1
,,,,,,,,,,,,,,,,,200446,19,2022-01-28_16h25.33.885,lexical_decision_task_DD_L5,2021.2.3,MacIntel,60.0024001,,,,,,,,,,,,0.8044,1,,,,,,,,,,,,,,,,,,,,,,,,0.180616319,0.209913194,0,0,0,,,,,,,ALLEY,LB,m,y,./images/ALLEYLB.png,,,,,,,m,1,0.8044,,,,,,,,0,73,73,55,1
,,,,,,,,,,,,,,,,,200446,19,2022-01-28_16h25.33.885,lexical_decision_task_DD_L5,2021.2.3,MacIntel,60.0024001,,,,,,,,,,,,0.7329,1,,,,,,,,,,,,,,,,,,,,,,,,0.180616319,0.209913194,0,0,0,,,,,,,JAGUAR,HB,z,y,./images/JAGUARHB.png,,,,,,,z,1,0.7329,,,,,,,,0,74,74,102,1
,,,,,,,,,,,,,,,,,200446,19,2022-01-28_16h25.33.885,lexical_decision_task_DD_L5,2021.2.3,MacIntel,60.0024001,,,,,,,,,,,,1.0013,1,,,,,,,,,,,,,,,,,,,,,,,,0.180616319,0.209913194,0,0,0,,,,,,,BAKER,HB,m,y,./images/BAKERHB.png,,,,,,,m,1,1.0013,,,,,,,,0,75,75,63,1
,,,,,,,,,,,,,,,,,200446,19,2022-01-28_16h25.33.885,lexical_decision_task_DD_L5,2021.2.3,MacIntel,60.0024001,,,,,,,,,,,,0.7319,1,,,,,,,,,,,,,,,,,,,,,,,,0.180616319,0.209913194,0,0,0,,,,,,,MALLET,C,z,y,./images/MALLET.png,,,,,,,z,1,0.7319,,,,,,,,0,76,76,134,1
,,,,,,,,,,,,,,,,,200446,19,2022-01-28_16h25.33.885,lexical_decision_task_DD_L5,2021.2.3,MacIntel,60.0024001,,,,,,,,,,,,0.6988,1,,,,,,,,,,,,,,,,,,,,,,,,0.180616319,0.209913194,0,0,0,,,,,,,THROAT,HB,z,y,./images/THROATHB.png,,,,,,,z,1,0.6988,,,,,,,,0,77,77,120,1
,,,,,,,,,,,,,,,,,200446,19,2022-01-28_16h25.33.885,lexical_decision_task_DD_L5,2021.2.3,MacIntel,60.0024001,,,,,,,,,,,,0.6828,1,,,,,,,,,,,,,,,,,,,,,,,,0.180616319,0.209913194,0,0,0,,,,,,,SWEAT,HB,z,y,./images/SWEATHB.png,,,,,,,z,1,0.6828,,,,,,,,0,78,78,150,1
,,,,,,,,,,,,,,,,,200446,19,2022-01-28_16h25.33.885,lexical_decision_task_DD_L5,2021.2.3,MacIntel,60.0024001,,,,,,,,,,,,0.9471,0,,,,,,,,,,,,,,,,,,,,,,,,0.180616319,0.209913194,0,0,0,,,,,,,STREAM,C,m,y,./images/STREAM.png,,,,,,,z,0,0.9471,,,,,,,,0,79,79,41,1
,,,,,,,,,,,,,,,,,200446,19,2022-01-28_16h25.33.885,lexical_decision_task_DD_L5,2021.2.3,MacIntel,60.0024001,,,,,,,,,,,,0.7066,1,,,,,,,,,,,,,,,,,,,,,,,,0.180616319,0.209913194,0,0,0,,,,,,,STATUE,HB,m,y,./images/STATUEHB.png,,,,,,,m,1,0.7066,,,,,,,,0,80,80,66,1
,,,,,,,,,,,,,,,,,200446,19,2022-01-28_16h25.33.885,lexical_decision_task_DD_L5,2021.2.3,MacIntel,60.0024001,,,,,,,,,,,,0.7172,1,,,,,,,,,,,,,,,,,,,,,,,,0.180616319,0.209913194,0,0,0,,,,,,,DOUGH,LB,z,y,./images/DOUGHLB.png,,,,,,,z,1,0.7172,,,,,,,,0,81,81,103,1
,,,,,,,,,,,,,,,,,200446,19,2022-01-28_16h25.33.885,lexical_decision_task_DD_L5,2021.2.3,MacIntel,60.0024001,,,,,,,,,,,,0.7483,0,,,,,,,,,,,,,,,,,,,,,,,,0.180616319,0.209913194,0,0,0,,,,,,,RAZOR,LB,m,y,./images/RAZORLB.png,,,,,,,z,0,0.7483,,,,,,,,0,82,82,34,1
,,,,,,,,,,,,,,,,,200446,19,2022-01-28_16h25.33.885,lexical_decision_task_DD_L5,2021.2.3,MacIntel,60.0024001,,,,,,,,,,,,0.7144,1,,,,,,,,,,,,,,,,,,,,,,,,0.180616319,0.209913194,0,0,0,space,,,,,,JUNGLE,C,z,y,./images/JUNGLE.png,0.7343,,,,,,z,1,0.7144,,,,,,,,0,83,83,167,1
,,,,,,,,,,,,,,,,,200446,19,2022-01-28_16h25.33.885,lexical_decision_task_DD_L5,2021.2.3,MacIntel,60.0024001,,,,,,,,,,,,0.9345,1,,,,,,,,,,,,,,,,,,,,,,,,0.180616319,0.209913194,0,0,0,,,,,,,MIDGET,LB,m,y,./images/MIDGETLB.png,,,,,,,m,1,0.9345,,,,,,,,0,84,84,76,1
,,,,,,,,,,,,,,,,,200446,19,2022-01-28_16h25.33.885,lexical_decision_task_DD_L5,2021.2.3,MacIntel,60.0024001,,,,,,,,,,,,0.5969,1,,,,,,,,,,,,,,,,,,,,,,,,0.180616319,0.209913194,0,0,0,,,,,,,CURRY,HB,m,y,./images/CURRYHB.png,,,,,,,m,1,0.5969,,,,,,,,0,85,85,60,1
,,,,,,,,,,,,,,,,,200446,19,2022-01-28_16h25.33.885,lexical_decision_task_DD_L5,2021.2.3,MacIntel,60.0024001,,,,,,,,,,,,0.6663,1,,,,,,,,,,,,,,,,,,,,,,,,0.180616319,0.209913194,0,0,0,,,,,,,SHELF,HB,z,y,./images/SHELFHB.png,,,,,,,z,1,0.6663,,,,,,,,0,86,86,123,1
,,,,,,,,,,,,,,,,,200446,19,2022-01-28_16h25.33.885,lexical_decision_task_DD_L5,2021.2.3,MacIntel,60.0024001,,,,,,,,,,,,0.9834,1,,,,,,,,,,,,,,,,,,,,,,,,0.180616319,0.209913194,0,0,0,,,,,,,SAILOR,LB,z,y,./images/SAILORLB.png,,,,,,,z,1,0.9834,,,,,,,,0,87,87,151,1
,,,,,,,,,,,,,,,,,200446,19,2022-01-28_16h25.33.885,lexical_decision_task_DD_L5,2021.2.3,MacIntel,60.0024001,,,,,,,,,,,,0.6653,0,,,,,,,,,,,,,,,,,,,,,,,,0.180616319,0.209913194,0,0,0,,,,,,,BELLY,LB,z,y,./images/BELLYLB.png,,,,,,,m,0,0.6653,,,,,,,,0,88,88,94,1
,,,,,,,,,,,,,,,,,200446,19,2022-01-28_16h25.33.885,lexical_decision_task_DD_L5,2021.2.3,MacIntel,60.0024001,,,,,,,,,,,,0.6814,1,,,,,,,,,,,,,,,,,,,,,,,,0.180616319,0.209913194,0,0,0,,,,,,,WHISKY,C,m,y,./images/WHISKY.png,,,,,,,m,1,0.6814,,,,,,,,0,89,89,83,1
,,,,,,,,,,,,,,,,,200446,19,2022-01-28_16h25.33.885,lexical_decision_task_DD_L5,2021.2.3,MacIntel,60.0024001,,,,,,,,,,,,0.9492,1,,,,,,,,,,,,,,,,,,,,,,,,0.180616319,0.209913194,0,0,0,,,,,,,STAIN,HB,m,y,./images/STAINHB.png,,,,,,,m,1,0.9492,,,,,,,,0,90,90,6,1
,,,,,,,,,,,,,,,,,200446,19,2022-01-28_16h25.33.885,lexical_decision_task_DD_L5,2021.2.3,MacIntel,60.0024001,,,,,,,,,,,,0.6806,1,,,,,,,,,,,,,,,,,,,,,,,,0.180616319,0.209913194,0,0,0,,,,,,,HOCKEY,C,m,y,./images/HOCKEY.png,,,,,,,m,1,0.6806,,,,,,,,0,91,91,32,1
,,,,,,,,,,,,,,,,,200446,19,2022-01-28_16h25.33.885,lexical_decision_task_DD_L5,2021.2.3,MacIntel,60.0024001,,,,,,,,,,,,0.918,1,,,,,,,,,,,,,,,,,,,,,,,,0.180616319,0.209913194,0,0,0,,,,,,,ARTIST,LB,m,y,./images/ARTISTLB.png,,,,,,,m,1,0.918,,,,,,,,0,92,92,61,1
,,,,,,,,,,,,,,,,,200446,19,2022-01-28_16h25.33.885,lexical_decision_task_DD_L5,2021.2.3,MacIntel,60.0024001,,,,,,,,,,,,0.813,1,,,,,,,,,,,,,,,,,,,,,,,,0.180616319,0.209913194,0,0,0,,,,,,,FINGER,HB,z,y,./images/FINGERHB.png,,,,,,,z,1,0.813,,,,,,,,0,93,93,87,1
,,,,,,,,,,,,,,,,,200446,19,2022-01-28_16h25.33.885,lexical_decision_task_DD_L5,2021.2.3,MacIntel,60.0024001,,,,,,,,,,,,1.0623,1,,,,,,,,,,,,,,,,,,,,,,,,0.180616319,0.209913194,0,0,0,,,,,,,TOMATO,HB,z,y,./images/TOMATOHB.png,,,,,,,z,1,1.0623,,,,,,,,0,94,94,84,1
,,,,,,,,,,,,,,,,,200446,19,2022-01-28_16h25.33.885,lexical_decision_task_DD_L5,2021.2.3,MacIntel,60.0024001,,,,,,,,,,,,0.7993,1,,,,,,,,,,,,,,,,,,,,,,,,0.180616319,0.209913194,0,0,0,,,,,,,GRANNY,C,m,y,./images/GRANNY.png,,,,,,,m,1,0.7993,,,,,,,,0,95,95,20,1
,,,,,,,,,,,,,,,,,200446,19,2022-01-28_16h25.33.885,lexical_decision_task_DD_L5,2021.2.3,MacIntel,60.0024001,,,,,,,,,,,,0.6851,1,,,,,,,,,,,,,,,,,,,,,,,,0.180616319,0.209913194,0,0,0,,,,,,,JUMPER,C,m,y,./images/JUMPER.png,,,,,,,m,1,0.6851,,,,,,,,0,96,96,74,1
,,,,,,,,,,,,,,,,,200446,19,2022-01-28_16h25.33.885,lexical_decision_task_DD_L5,2021.2.3,MacIntel,60.0024001,,,,,,,,,,,,0.5849,1,,,,,,,,,,,,,,,,,,,,,,,,0.180616319,0.209913194,0,0,0,,,,,,,BAMBOO,C,m,y,./images/BAMBOO.png,,,,,,,m,1,0.5849,,,,,,,,0,97,97,5,1
,,,,,,,,,,,,,,,,,200446,19,2022-01-28_16h25.33.885,lexical_decision_task_DD_L5,2021.2.3,MacIntel,60.0024001,,,,,,,,,,,,0.8325,1,,,,,,,,,,,,,,,,,,,,,,,,0.180616319,0.209913194,0,0,0,,,,,,,PEARL,LB,z,y,./images/PEARLLB.png,,,,,,,z,1,0.8325,,,,,,,,0,98,98,130,1
,,,,,,,,,,,,,,,,,200446,19,2022-01-28_16h25.33.885,lexical_decision_task_DD_L5,2021.2.3,MacIntel,60.0024001,,,,,,,,,,,,0.6186,0,,,,,,,,,,,,,,,,,,,,,,,,0.180616319,0.209913194,0,0,0,,,,,,,PLANK,LB,z,y,./images/PLANKLB.png,,,,,,,m,0,0.6186,,,,,,,,0,99,99,85,1
,,,,,,,,,,,,,,,,,200446,19,2022-01-28_16h25.33.885,lexical_decision_task_DD_L5,2021.2.3,MacIntel,60.0024001,,,,,,,,,,,,0.7295,1,,,,,,,,,,,,,,,,,,,,,,,,0.180616319,0.209913194,0,0,0,,,,,,,GREASE,HB,z,y,./images/GREASEHB.png,,,,,,,z,1,0.7295,,,,,,,,0,100,100,99,1
,,,,,,,,,,,,,,,,,200446,19,2022-01-28_16h25.33.885,lexical_decision_task_DD_L5,2021.2.3,MacIntel,60.0024001,,,,,,,,,,,,0.6144,1,,,,,,,,,,,,,,,,,,,,,,,,0.180616319,0.209913194,0,0,0,,,,,,,SCREW,HB,z,y,./images/SCREWHB.png,,,,,,,z,1,0.6144,,,,,,,,0,101,101,108,1
,,,,,,,,,,,,,,,,,200446,19,2022-01-28_16h25.33.885,lexical_decision_task_DD_L5,2021.2.3,MacIntel,60.0024001,,,,,,,,,,,,0.8683,1,,,,,,,,,,,,,,,,,,,,,,,,0.180616319,0.209913194,0,0,0,,,,,,,DRILL,HB,m,y,./images/DRILLHB.png,,,,,,,m,1,0.8683,,,,,,,,0,102,102,81,1
,,,,,,,,,,,,,,,,,200446,19,2022-01-28_16h25.33.885,lexical_decision_task_DD_L5,2021.2.3,MacIntel,60.0024001,,,,,,,,,,,,0.6528,1,,,,,,,,,,,,,,,,,,,,,,,,0.180616319,0.209913194,0,0,0,,,,,,,POKER,LB,m,y,./images/POKERLB.png,,,,,,,m,1,0.6528,,,,,,,,0,103,103,67,1
,,,,,,,,,,,,,,,,,200446,19,2022-01-28_16h25.33.885,lexical_decision_task_DD_L5,2021.2.3,MacIntel,60.0024001,,,,,,,,,,,,0.6854,1,,,,,,,,,,,,,,,,,,,,,,,,0.180616319,0.209913194,0,0,0,,,,,,,SLOPE,HB,m,y,./images/SLOPEHB.png,,,,,,,m,1,0.6854,,,,,,,,0,104,104,30,1
,,,,,,,,,,,,,,,,,200446,19,2022-01-28_16h25.33.885,lexical_decision_task_DD_L5,2021.2.3,MacIntel,60.0024001,,,,,,,,,,,,0.6328,1,,,,,,,,,,,,,,,,,,,,,,,,0.180616319,0.209913194,0,0,0,,,,,,,DIVER,HB,m,y,./images/DIVERHB.png,,,,,,,m,1,0.6328,,,,,,,,0,105,105,9,1
,,,,,,,,,,,,,,,,,200446,19,2022-01-28_16h25.33.885,lexical_decision_task_DD_L5,2021.2.3,MacIntel,60.0024001,,,,,,,,,,,,0.6288,1,,,,,,,,,,,,,,,,,,,,,,,,0.180616319,0.209913194,0,0,0,,,,,,,CRATER,HB,m,y,./images/CRATERHB.png,,,,,,,m,1,0.6288,,,,,,,,0,106,106,3,1
,,,,,,,,,,,,,,,,,200446,19,2022-01-28_16h25.33.885,lexical_decision_task_DD_L5,2021.2.3,MacIntel,60.0024001,,,,,,,,,,,,0.7523,1,,,,,,,,,,,,,,,,,,,,,,,,0.180616319,0.209913194,0,0,0,,,,,,,PICKLE,C,z,y,./images/PICKLE.png,,,,,,,z,1,0.7523,,,,,,,,0,107,107,98,1
,,,,,,,,,,,,,,,,,200446,19,2022-01-28_16h25.33.885,lexical_decision_task_DD_L5,2021.2.3,MacIntel,60.0024001,,,,,,,,,,,,0.7501,1,,,,,,,,,,,,,,,,,,,,,,,,0.180616319,0.209913194,0,0,0,,,,,,,BUTTER,HB,m,y,./images/BUTTERHB.png,,,,,,,m,1,0.7501,,,,,,,,0,108,108,27,1
,,,,,,,,,,,,,,,,,200446,19,2022-01-28_16h25.33.885,lexical_decision_task_DD_L5,2021.2.3,MacIntel,60.0024001,,,,,,,,,,,,0.6973,1,,,,,,,,,,,,,,,,,,,,,,,,0.180616319,0.209913194,0,0,0,,,,,,,BEARD,C,z,y,./images/BEARD.png,,,,,,,z,1,0.6973,,,,,,,,0,109,109,86,1
,,,,,,,,,,,,,,,,,200446,19,2022-01-28_16h25.33.885,lexical_decision_task_DD_L5,2021.2.3,MacIntel,60.0024001,,,,,,,,,,,,0.7068,1,,,,,,,,,,,,,,,,,,,,,,,,0.180616319,0.209913194,0,0,0,,,,,,,POODLE,HB,z,y,./images/POODLEHB.png,,,,,,,z,1,0.7068,,,,,,,,0,110,110,165,1
,,,,,,,,,,,,,,,,,200446,19,2022-01-28_16h25.33.885,lexical_decision_task_DD_L5,2021.2.3,MacIntel,60.0024001,,,,,,,,,,,,0.916,0,,,,,,,,,,,,,,,,,,,,,,,,0.180616319,0.209913194,0,0,0,,,,,,,PARCEL,HB,m,y,./images/PARCELHB.png,,,,,,,z,0,0.916,,,,,,,,0,111,111,18,1
,,,,,,,,,,,,,,,,,200446,19,2022-01-28_16h25.33.885,lexical_decision_task_DD_L5,2021.2.3,MacIntel,60.0024001,,,,,,,,,,,,0.6492,1,,,,,,,,,,,,,,,,,,,,,,,,0.180616319,0.209913194,0,0,0,,,,,,,BOXER,LB,m,y,./images/BOXERLB.png,,,,,,,m,1,0.6492,,,,,,,,0,112,112,4,1
,,,,,,,,,,,,,,,,,200446,19,2022-01-28_16h25.33.885,lexical_decision_task_DD_L5,2021.2.3,MacIntel,60.0024001,,,,,,,,,,,,0.9002,1,,,,,,,,,,,,,,,,,,,,,,,,0.180616319,0.209913194,0,0,0,,,,,,,MOOSE,HB,z,y,./images/MOOSEHB.png,,,,,,,z,1,0.9002,,,,,,,,0,113,113,141,1
,,,,,,,,,,,,,,,,,200446,19,2022-01-28_16h25.33.885,lexical_decision_task_DD_L5,2021.2.3,MacIntel,60.0024001,,,,,,,,,,,,0.766,1,,,,,,,,,,,,,,,,,,,,,,,,0.180616319,0.209913194,0,0,0,,,,,,,SPINE,C,m,y,./images/SPINE.png,,,,,,,m,1,0.766,,,,,,,,0,114,114,65,1
,,,,,,,,,,,,,,,,,200446,19,2022-01-28_16h25.33.885,lexical_decision_task_DD_L5,2021.2.3,MacIntel,60.0024001,,,,,,,,,,,,0.7824,0,,,,,,,,,,,,,,,,,,,,,,,,0.180616319,0.209913194,0,0,0,,,,,,,MONKEY,HB,m,y,./images/MONKEYHB.png,,,,,,,z,0,0.7824,,,,,,,,0,115,115,45,1
,,,,,,,,,,,,,,,,,200446,19,2022-01-28_16h25.33.885,lexical_decision_task_DD_L5,2021.2.3,MacIntel,60.0024001,,,,,,,,,,,,0.7832,1,,,,,,,,,,,,,,,,,,,,,,,,0.180616319,0.209913194,0,0,0,,,,,,,COOKER,HB,z,y,./images/COOKERHB.png,,,,,,,z,1,0.7832,,,,,,,,0,116,116,153,1
,,,,,,,,,,,,,,,,,200446,19,2022-01-28_16h25.33.885,lexical_decision_task_DD_L5,2021.2.3,MacIntel,60.0024001,,,,,,,,,,,,0.7644,1,,,,,,,,,,,,,,,,,,,,,,,,0.180616319,0.209913194,0,0,0,,,,,,,CASINO,LB,m,y,./images/CASINOLB.png,,,,,,,m,1,0.7644,,,,,,,,0,117,117,28,1
,,,,,,,,,,,,,,,,,200446,19,2022-01-28_16h25.33.885,lexical_decision_task_DD_L5,2021.2.3,MacIntel,60.0024001,,,,,,,,,,,,1.0966,1,,,,,,,,,,,,,,,,,,,,,,,,0.180616319,0.209913194,0,0,0,,,,,,,CEMENT,C,z,y,./images/CEMENT.png,,,,,,,z,1,1.0966,,,,,,,,0,118,118,158,1
,,,,,,,,,,,,,,,,,200446,19,2022-01-28_16h25.33.885,lexical_decision_task_DD_L5,2021.2.3,MacIntel,60.0024001,,,,,,,,,,,,0.8624,1,,,,,,,,,,,,,,,,,,,,,,,,0.180616319,0.209913194,0,0,0,,,,,,,MUSCLE,LB,z,y,./images/MUSCLELB.png,,,,,,,z,1,0.8624,,,,,,,,0,119,119,88,1
,,,,,,,,,,,,,,,,,200446,19,2022-01-28_16h25.33.885,lexical_decision_task_DD_L5,2021.2.3,MacIntel,60.0024001,,,,,,,,,,,,0.6299,1,,,,,,,,,,,,,,,,,,,,,,,,0.180616319,0.209913194,0,0,0,,,,,,,INFANT,LB,z,y,./images/INFANTLB.png,,,,,,,z,1,0.6299,,,,,,,,0,120,120,160,1
,,,,,,,,,,,,,,,,,200446,19,2022-01-28_16h25.33.885,lexical_decision_task_DD_L5,2021.2.3,MacIntel,60.0024001,,,,,,,,,,,,0.9142,1,,,,,,,,,,,,,,,,,,,,,,,,0.180616319,0.209913194,0,0,0,,,,,,,LIZARD,C,z,y,./images/LIZARD.png,,,,,,,z,1,0.9142,,,,,,,,0,121,121,128,1
,,,,,,,,,,,,,,,,,200446,19,2022-01-28_16h25.33.885,lexical_decision_task_DD_L5,2021.2.3,MacIntel,60.0024001,,,,,,,,,,,,0.6885,1,,,,,,,,,,,,,,,,,,,,,,,,0.180616319,0.209913194,0,0,0,,,,,,,ONION,HB,z,y,./images/ONIONHB.png,,,,,,,z,1,0.6885,,,,,,,,0,122,122,135,1
,,,,,,,,,,,,,,,,,200446,19,2022-01-28_16h25.33.885,lexical_decision_task_DD_L5,2021.2.3,MacIntel,60.0024001,,,,,,,,,,,,0.6644,1,,,,,,,,,,,,,,,,,,,,,,,,0.180616319,0.209913194,0,0,0,,,,,,,CRUMB,C,z,y,./images/CRUMB.png,,,,,,,z,1,0.6644,,,,,,,,0,123,123,113,1
,,,,,,,,,,,,,,,,,200446,19,2022-01-28_16h25.33.885,lexical_decision_task_DD_L5,2021.2.3,MacIntel,60.0024001,,,,,,,,,,,,0.7313,1,,,,,,,,,,,,,,,,,,,,,,,,0.180616319,0.209913194,0,0,0,,,,,,,PLANET,C,m,y,./images/PLANET.png,,,,,,,m,1,0.7313,,,,,,,,0,124,124,80,1
,,,,,,,,,,,,,,,,,200446,19,2022-01-28_16h25.33.885,lexical_decision_task_DD_L5,2021.2.3,MacIntel,60.0024001,,,,,,,,,,,,0.7634,1,,,,,,,,,,,,,,,,,,,,,,,,0.180616319,0.209913194,0,0,0,space,,,,,,KIDNEY,HB,z,y,./images/KIDNEYHB.png,0.7891,,,,,,z,1,0.7634,,,,,,,,0,125,125,105,1
,,,,,,,,,,,,,,,,,200446,19,2022-01-28_16h25.33.885,lexical_decision_task_DD_L5,2021.2.3,MacIntel,60.0024001,,,,,,,,,,,,0.8461,1,,,,,,,,,,,,,,,,,,,,,,,,0.180616319,0.209913194,0,0,0,,,,,,,WRIST,LB,z,y,./images/WRISTLB.png,,,,,,,z,1,0.8461,,,,,,,,0,126,126,109,1
,,,,,,,,,,,,,,,,,200446,19,2022-01-28_16h25.33.885,lexical_decision_task_DD_L5,2021.2.3,MacIntel,60.0024001,,,,,,,,,,,,0.5516,1,,,,,,,,,,,,,,,,,,,,,,,,0.180616319,0.209913194,0,0,0,,,,,,,TRIPOD,HB,z,y,./images/TRIPODHB.png,,,,,,,z,1,0.5516,,,,,,,,0,127,127,138,1
,,,,,,,,,,,,,,,,,200446,19,2022-01-28_16h25.33.885,lexical_decision_task_DD_L5,2021.2.3,MacIntel,60.0024001,,,,,,,,,,,,0.5655,1,,,,,,,,,,,,,,,,,,,,,,,,0.180616319,0.209913194,0,0,0,,,,,,,SQUARE,HB,z,y,./images/SQUAREHB.png,,,,,,,z,1,0.5655,,,,,,,,0,128,128,90,1
,,,,,,,,,,,,,,,,,200446,19,2022-01-28_16h25.33.885,lexical_decision_task_DD_L5,2021.2.3,MacIntel,60.0024001,,,,,,,,,,,,0.8651,1,,,,,,,,,,,,,,,,,,,,,,,,0.180616319,0.209913194,0,0,0,,,,,,,GLOVE,LB,m,y,./images/GLOVELB.png,,,,,,,m,1,0.8651,,,,,,,,0,129,129,73,1
,,,,,,,,,,,,,,,,,200446,19,2022-01-28_16h25.33.885,lexical_decision_task_DD_L5,2021.2.3,MacIntel,60.0024001,,,,,,,,,,,,0.9454,1,,,,,,,,,,,,,,,,,,,,,,,,0.180616319,0.209913194,0,0,0,,,,,,,SNACK,LB,z,y,./images/SNACKLB.png,,,,,,,z,1,0.9454,,,,,,,,0,130,130,157,1
,,,,,,,,,,,,,,,,,200446,19,2022-01-28_16h25.33.885,lexical_decision_task_DD_L5,2021.2.3,MacIntel,60.0024001,,,,,,,,,,,,0.5517,1,,,,,,,,,,,,,,,,,,,,,,,,0.180616319,0.209913194,0,0,0,,,,,,,WAGON,LB,m,y,./images/WAGONLB.png,,,,,,,m,1,0.5517,,,,,,,,0,131,131,7,1
,,,,,,,,,,,,,,,,,200446,19,2022-01-28_16h25.33.885,lexical_decision_task_DD_L5,2021.2.3,MacIntel,60.0024001,,,,,,,,,,,,1.1508,1,,,,,,,,,,,,,,,,,,,,,,,,0.180616319,0.209913194,0,0,0,,,,,,,CARPET,C,z,y,./images/CARPET.png,,,,,,,z,1,1.1508,,,,,,,,0,132,132,137,1
,,,,,,,,,,,,,,,,,200446,19,2022-01-28_16h25.33.885,lexical_decision_task_DD_L5,2021.2.3,MacIntel,60.0024001,,,,,,,,,,,,0.9373,1,,,,,,,,,,,,,,,,,,,,,,,,0.180616319,0.209913194,0,0,0,,,,,,,VALLEY,C,m,y,./images/VALLEY.png,,,,,,,m,1,0.9373,,,,,,,,0,133,133,68,1
,,,,,,,,,,,,,,,,,200446,19,2022-01-28_16h25.33.885,lexical_decision_task_DD_L5,2021.2.3,MacIntel,60.0024001,,,,,,,,,,,,0.9031,1,,,,,,,,,,,,,,,,,,,,,,,,0.180616319,0.209913194,0,0,0,,,,,,,CANYON,LB,z,y,./images/CANYONLB.png,,,,,,,z,1,0.9031,,,,,,,,0,134,134,118,1
,,,,,,,,,,,,,,,,,200446,19,2022-01-28_16h25.33.885,lexical_decision_task_DD_L5,2021.2.3,MacIntel,60.0024001,,,,,,,,,,,,0.7823,1,,,,,,,,,,,,,,,,,,,,,,,,0.180616319,0.209913194,0,0,0,,,,,,,WHEEL,C,m,y,./images/WHEEL.png,,,,,,,m,1,0.7823,,,,,,,,0,135,135,77,1
,,,,,,,,,,,,,,,,,200446,19,2022-01-28_16h25.33.885,lexical_decision_task_DD_L5,2021.2.3,MacIntel,60.0024001,,,,,,,,,,,,0.7045,1,,,,,,,,,,,,,,,,,,,,,,,,0.180616319,0.209913194,0,0,0,,,,,,,CRUST,LB,z,y,./images/CRUSTLB.png,,,,,,,z,1,0.7045,,,,,,,,0,136,136,163,1
,,,,,,,,,,,,,,,,,200446,19,2022-01-28_16h25.33.885,lexical_decision_task_DD_L5,2021.2.3,MacIntel,60.0024001,,,,,,,,,,,,0.9148,1,,,,,,,,,,,,,,,,,,,,,,,,0.180616319,0.209913194,0,0,0,,,,,,,SPORT,HB,z,y,./images/SPORTHB.png,,,,,,,z,1,0.9148,,,,,,,,0,137,137,132,1
,,,,,,,,,,,,,,,,,200446,19,2022-01-28_16h25.33.885,lexical_decision_task_DD_L5,2021.2.3,MacIntel,60.0024001,,,,,,,,,,,,1.2315,0,,,,,,,,,,,,,,,,,,,,,,,,0.180616319,0.209913194,0,0,0,,,,,,,PEACH,C,z,y,./images/PEACH.png,,,,,,,m,0,1.2315,,,,,,,,0,138,138,119,1
,,,,,,,,,,,,,,,,,200446,19,2022-01-28_16h25.33.885,lexical_decision_task_DD_L5,2021.2.3,MacIntel,60.0024001,,,,,,,,,,,,0.7837,1,,,,,,,,,,,,,,,,,,,,,,,,0.180616319,0.209913194,0,0,0,,,,,,,MUMMY,LB,m,y,./images/MUMMYLB.png,,,,,,,m,1,0.7837,,,,,,,,0,139,139,46,1
,,,,,,,,,,,,,,,,,200446,19,2022-01-28_16h25.33.885,lexical_decision_task_DD_L5,2021.2.3,MacIntel,60.0024001,,,,,,,,,,,,0.6713,1,,,,,,,,,,,,,,,,,,,,,,,,0.180616319,0.209913194,0,0,0,,,,,,,ATTIC,HB,z,y,./images/ATTICHB.png,,,,,,,z,1,0.6713,,,,,,,,0,140,140,111,1
,,,,,,,,,,,,,,,,,200446,19,2022-01-28_16h25.33.885,lexical_decision_task_DD_L5,2021.2.3,MacIntel,60.0024001,,,,,,,,,,,,0.6525,1,,,,,,,,,,,,,,,,,,,,,,,,0.180616319,0.209913194,0,0,0,,,,,,,COUCH,C,z,y,./images/COUCH.png,,,,,,,z,1,0.6525,,,,,,,,0,141,141,161,1
,,,,,,,,,,,,,,,,,200446,19,2022-01-28_16h25.33.885,lexical_decision_task_DD_L5,2021.2.3,MacIntel,60.0024001,,,,,,,,,,,,1.0133,1,,,,,,,,,,,,,,,,,,,,,,,,0.180616319,0.209913194,0,0,0,,,,,,,CLOUD,C,m,y,./images/CLOUD.png,,,,,,,m,1,1.0133,,,,,,,,0,142,142,26,1
,,,,,,,,,,,,,,,,,200446,19,2022-01-28_16h25.33.885,lexical_decision_task_DD_L5,2021.2.3,MacIntel,60.0024001,,,,,,,,,,,,0.749,1,,,,,,,,,,,,,,,,,,,,,,,,0.180616319,0.209913194,0,0,0,,,,,,,FALCON,LB,z,y,./images/FALCONLB.png,,,,,,,z,1,0.749,,,,,,,,0,143,143,112,1
,,,,,,,,,,,,,,,,,200446,19,2022-01-28_16h25.33.885,lexical_decision_task_DD_L5,2021.2.3,MacIntel,60.0024001,,,,,,,,,,,,0.6989,1,,,,,,,,,,,,,,,,,,,,,,,,0.180616319,0.209913194,0,0,0,,,,,,,TORCH,C,z,y,./images/TORCH.png,,,,,,,z,1,0.6989,,,,,,,,0,144,144,152,1
,,,,,,,,,,,,,,,,,200446,19,2022-01-28_16h25.33.885,lexical_decision_task_DD_L5,2021.2.3,MacIntel,60.0024001,,,,,,,,,,,,0.6828,1,,,,,,,,,,,,,,,,,,,,,,,,0.180616319,0.209913194,0,0,0,,,,,,,SWING,LB,z,y,./images/SWINGLB.png,,,,,,,z,1,0.6828,,,,,,,,0,145,145,124,1
,,,,,,,,,,,,,,,,,200446,19,2022-01-28_16h25.33.885,lexical_decision_task_DD_L5,2021.2.3,MacIntel,60.0024001,,,,,,,,,,,,0.6351,1,,,,,,,,,,,,,,,,,,,,,,,,0.180616319,0.209913194,0,0,0,,,,,,,SAUNA,HB,m,y,./images/SAUNAHB.png,,,,,,,m,1,0.6351,,,,,,,,0,146,146,33,1
,,,,,,,,,,,,,,,,,200446,19,2022-01-28_16h25.33.885,lexical_decision_task_DD_L5,2021.2.3,MacIntel,60.0024001,,,,,,,,,,,,0.6807,1,,,,,,,,,,,,,,,,,,,,,,,,0.180616319,0.209913194,0,0,0,,,,,,,BLOKE,HB,m,y,./images/BLOKEHB.png,,,,,,,m,1,0.6807,,,,,,,,0,147,147,12,1
,,,,,,,,,,,,,,,,,200446,19,2022-01-28_16h25.33.885,lexical_decision_task_DD_L5,2021.2.3,MacIntel,60.0024001,,,,,,,,,,,,0.7331,1,,,,,,,,,,,,,,,,,,,,,,,,0.180616319,0.209913194,0,0,0,,,,,,,SUNSET,LB,z,y,./images/SUNSETLB.png,,,,,,,z,1,0.7331,,,,,,,,0,148,148,166,1
,,,,,,,,,,,,,,,,,200446,19,2022-01-28_16h25.33.885,lexical_decision_task_DD_L5,2021.2.3,MacIntel,60.0024001,,,,,,,,,,,,0.6315,1,,,,,,,,,,,,,,,,,,,,,,,,0.180616319,0.209913194,0,0,0,,,,,,,LAGOON,C,m,y,./images/LAGOON.png,,,,,,,m,1,0.6315,,,,,,,,0,149,149,47,1
,,,,,,,,,,,,,,,,,200446,19,2022-01-28_16h25.33.885,lexical_decision_task_DD_L5,2021.2.3,MacIntel,60.0024001,,,,,,,,,,,,1.2154,1,,,,,,,,,,,,,,,,,,,,,,,,0.180616319,0.209913194,0,0,0,,,,,,,STEAK,LB,m,y,./images/STEAKLB.png,,,,,,,m,1,1.2154,,,,,,,,0,150,150,31,1
,,,,,,,,,,,,,,,,,200446,19,2022-01-28_16h25.33.885,lexical_decision_task_DD_L5,2021.2.3,MacIntel,60.0024001,,,,,,,,,,,,0.8674,1,,,,,,,,,,,,,,,,,,,,,,,,0.180616319,0.209913194,0,0,0,,,,,,,BISHOP,LB,m,y,./images/BISHOPLB.png,,,,,,,m,1,0.8674,,,,,,,,0,151,151,49,1
,,,,,,,,,,,,,,,,,200446,19,2022-01-28_16h25.33.885,lexical_decision_task_DD_L5,2021.2.3,MacIntel,60.0024001,,,,,,,,,,,,0.7896,1,,,,,,,,,,,,,,,,,,,,,,,,0.180616319,0.209913194,0,0,0,,,,,,,STORM,HB,z,y,./images/STORMHB.png,,,,,,,z,1,0.7896,,,,,,,,0,152,152,114,1
,,,,,,,,,,,,,,,,,200446,19,2022-01-28_16h25.33.885,lexical_decision_task_DD_L5,2021.2.3,MacIntel,60.0024001,,,,,,,,,,,,0.649,1,,,,,,,,,,,,,,,,,,,,,,,,0.180616319,0.209913194,0,0,0,,,,,,,URINE,LB,z,y,./images/URINELB.png,,,,,,,z,1,0.649,,,,,,,,0,153,153,154,1
,,,,,,,,,,,,,,,,,200446,19,2022-01-28_16h25.33.885,lexical_decision_task_DD_L5,2021.2.3,MacIntel,60.0024001,,,,,,,,,,,,0.7312,1,,,,,,,,,,,,,,,,,,,,,,,,0.180616319,0.209913194,0,0,0,,,,,,,MOTOR,LB,z,y,./images/MOTORLB.png,,,,,,,z,1,0.7312,,,,,,,,0,154,154,97,1
,,,,,,,,,,,,,,,,,200446,19,2022-01-28_16h25.33.885,lexical_decision_task_DD_L5,2021.2.3,MacIntel,60.0024001,,,,,,,,,,,,0.5866,1,,,,,,,,,,,,,,,,,,,,,,,,0.180616319,0.209913194,0,0,0,,,,,,,LITTER,HB,z,y,./images/LITTERHB.png,,,,,,,z,1,0.5866,,,,,,,,0,155,155,162,1
,,,,,,,,,,,,,,,,,200446,19,2022-01-28_16h25.33.885,lexical_decision_task_DD_L5,2021.2.3,MacIntel,60.0024001,,,,,,,,,,,,0.8651,0,,,,,,,,,,,,,,,,,,,,,,,,0.180616319,0.209913194,0,0,0,,,,,,,ARROW,HB,m,y,./images/ARROWHB.png,,,,,,,z,0,0.8651,,,,,,,,0,156,156,69,1
,,,,,,,,,,,,,,,,,200446,19,2022-01-28_16h25.33.885,lexical_decision_task_DD_L5,2021.2.3,MacIntel,60.0024001,,,,,,,,,,,,0.6318,1,,,,,,,,,,,,,,,,,,,,,,,,0.180616319,0.209913194,0,0,0,,,,,,,BROOM,HB,m,y,./images/BROOMHB.png,,,,,,,m,1,0.6318,,,,,,,,0,157,157,78,1
,,,,,,,,,,,,,,,,,200446,19,2022-01-28_16h25.33.885,lexical_decision_task_DD_L5,2021.2.3,MacIntel,60.0024001,,,,,,,,,,,,0.6322,1,,,,,,,,,,,,,,,,,,,,,,,,0.180616319,0.209913194,0,0,0,,,,,,,FLESH,HB,m,y,./images/FLESHHB.png,,,,,,,m,1,0.6322,,,,,,,,0,158,158,24,1
,,,,,,,,,,,,,,,,,200446,19,2022-01-28_16h25.33.885,lexical_decision_task_DD_L5,2021.2.3,MacIntel,60.0024001,,,,,,,,,,,,0.5821,1,,,,,,,,,,,,,,,,,,,,,,,,0.180616319,0.209913194,0,0,0,,,,,,,BURIAL,C,z,y,./images/BURIAL.png,,,,,,,z,1,0.5821,,,,,,,,0,159,159,143,1
,,,,,,,,,,,,,,,,,200446,19,2022-01-28_16h25.33.885,lexical_decision_task_DD_L5,2021.2.3,MacIntel,60.0024001,,,,,,,,,,,,0.7319,1,,,,,,,,,,,,,,,,,,,,,,,,0.180616319,0.209913194,0,0,0,,,,,,,MOSQUE,LB,z,y,./images/MOSQUELB.png,,,,,,,z,1,0.7319,,,,,,,,0,160,160,127,1
,,,,,,,,,,,,,,,,,200446,19,2022-01-28_16h25.33.885,lexical_decision_task_DD_L5,2021.2.3,MacIntel,60.0024001,,,,,,,,,,,,1.0871,1,,,,,,,,,,,,,,,,,,,,,,,,0.180616319,0.209913194,0,0,0,,,,,,,MEDAL,C,m,y,./images/MEDAL.png,,,,,,,m,1,1.0871,,,,,,,,0,161,161,11,1
,,,,,,,,,,,,,,,,,200446,19,2022-01-28_16h25.33.885,lexical_decision_task_DD_L5,2021.2.3,MacIntel,60.0024001,,,,,,,,,,,,1.0145,0,,,,,,,,,,,,,,,,,,,,,,,,0.180616319,0.209913194,0,0,0,,,,,,,TIGER,LB,m,y,./images/TIGERLB.png,,,,,,,z,0,1.0145,,,,,,,,0,162,162,37,1
,,,,,,,,,,,,,,,,,200446,19,2022-01-28_16h25.33.885,lexical_decision_task_DD_L5,2021.2.3,MacIntel,60.0024001,,,,,,,,,,,,1.1469,1,,,,,,,,,,,,,,,,,,,,,,,,0.180616319,0.209913194,0,0,0,,,,,,,DESERT,LB,m,y,./images/DESERTLB.png,,,,,,,m,1,1.1469,,,,,,,,0,163,163,52,1
,,,,,,,,,,,,,,,,,200446,19,2022-01-28_16h25.33.885,lexical_decision_task_DD_L5,2021.2.3,MacIntel,60.0024001,,,,,,,,,,,,0.7058,1,,,,,,,,,,,,,,,,,,,,,,,,0.180616319,0.209913194,0,0,0,,,,,,,DONKEY,LB,m,y,./images/DONKEYLB.png,,,,,,,m,1,0.7058,,,,,,,,0,164,164,19,1
,,,,,,,,,,,,,,,,,200446,19,2022-01-28_16h25.33.885,lexical_decision_task_DD_L5,2021.2.3,MacIntel,60.0024001,,,,,,,,,,,,1.0166,1,,,,,,,,,,,,,,,,,,,,,,,,0.180616319,0.209913194,0,0,0,,,,,,,BANNER,LB,z,y,./images/BANNERLB.png,,,,,,,z,1,1.0166,,,,,,,,0,165,165,136,1
,,,,,,,,,,,,,,,,,200446,19,2022-01-28_16h25.33.885,lexical_decision_task_DD_L5,2021.2.3,MacIntel,60.0024001,,,,,,,,,,,,0.782,1,,,,,,,,,,,,,,,,,,,,,,,,0.180616319,0.209913194,0,0,0,,,,,,,HAMMER,HB,m,y,./images/HAMMERHB.png,,,,,,,m,1,0.782,,,,,,,,0,166,166,75,1
,,,,,,,,,,,,,,,,,200446,19,2022-01-28_16h25.33.885,lexical_decision_task_DD_L5,2021.2.3,MacIntel,60.0024001,,,,,,,,,,,,0.7036,1,,,,,,,,,,,,,,,,,,,,,,,,0.180616319,0.209913194,0,0,0,,,,,,,BIRTH,LB,z,y,./images/BIRTHLB.png,,,,,,,z,1,0.7036,,,,,,,,0,167,167,121,1
