key_resp.keys,key_resp.rt,instr_done_touch.x,instr_done_touch.y,instr_done_touch.leftButton,instr_done_touch.midButton,instr_done_touch.rightButton,instruction_pages.thisRepN,instruction_pages.thisTrialN,instruction_pages.thisN,instruction_pages.thisIndex,instruction_pages.ran,pageN,phase,instruct_text,has_image,instruct_image,participant,age,date,expName,psychopyVersion,OS,frameRate,response.keys,response.corr,response.rt,touch_resp.x,touch_resp.y,touch_resp.leftButton,touch_resp.midButton,touch_resp.rightButton,touch_resp.time,touch_resp.clicked_name,rt,corr,practrials.thisRepN,practrials.thisTrialN,practrials.thisN,practrials.thisIndex,practrials.ran,TrialID,Target,corrAns,end_of_practice_trials_pages.thisRepN,end_of_practice_trials_pages.thisTrialN,end_of_practice_trials_pages.thisN,end_of_practice_trials_pages.thisIndex,end_of_practice_trials_pages.ran,key_resp_2.keys,key_resp_2.corr,key_resp_2.rt,targ_click.x,targ_click.y,targ_click.leftButton,targ_click.midButton,targ_click.rightButton,targ_click.time,targ_click.clicked_name,break_done_touch.x,break_done_touch.y,break_done_touch.leftButton,break_done_touch.midButton,break_done_touch.rightButton,break_done_keyboard.keys,maintrials.thisRepN,maintrials.thisTrialN,maintrials.thisN,maintrials.thisIndex,maintrials.ran,string,blur,study,lex,stim_path,break_done_keyboard.rt,test_instructions.thisRepN,test_instructions.thisTrialN,test_instructions.thisN,test_instructions.thisIndex,test_instructions.ran,key_resp_3.keys,key_resp_3.corr,key_resp_3.rt,test_click.x,test_click.y,test_click.leftButton,test_click.midButton,test_click.rightButton,test_click.time,test_click.clicked_name,test_phase.thisRepN,test_phase.thisTrialN,test_phase.thisN,test_phase.thisIndex,test_phase.ran
space,23.4169,0.298148184,-0.227777799,0,0,0,0,0,0,0,1,1,instructions,"INSTRUCTIONS
At the start of each trial, look at the plus sign  (+) in the center of the screen.  This tells you that a trial is about to begin and where to look. Second, the plus sign will disappear and a string of letters will appear. Your task is to determine if the string of letters is a word or not. If the item is a word press the M key (on keyboard)  or touch the word button (phone/tablet).  If the item is not a word,  press the  Z key (on keyboard)  or touch the nonword button (on phone/tablet). 
Press the space bar or touch  continue.",0,,200497,18,2022-01-29_17h32.01.360,lexical_decision_task_DD_L6,2021.2.3,Win32,58.77858109,,,,,,,,,,,,,,,,,,,,,,,,,,,,,,,,,,,,,,,,,,,,,,,,,,,,,,,,,,,,,,,,,,,,,,,,
space,3.7478,0.298148184,-0.227777799,0,0,0,0,1,1,1,1,2,instructions,"If your device has a keyboard, press the 'Z' key for nonwords and the 'M' key for words.





Press the space bar or touch the button below to continue.",0,keyboard-example.gif,200497,18,2022-01-29_17h32.01.360,lexical_decision_task_DD_L6,2021.2.3,Win32,58.77858109,,,,,,,,,,,,,,,,,,,,,,,,,,,,,,,,,,,,,,,,,,,,,,,,,,,,,,,,,,,,,,,,,,,,,,,,
space,3.9744,0.298148184,-0.227777799,0,0,0,0,2,2,2,1,3,instructions,"If you are using a touchscreen only device, use the buttons on the screen. Do not use the mouse.





Press the space bar or touch the button below to continue.",0,touchscreen-example.gif,200497,18,2022-01-29_17h32.01.360,lexical_decision_task_DD_L6,2021.2.3,Win32,58.77858109,,,,,,,,,,,,,,,,,,,,,,,,,,,,,,,,,,,,,,,,,,,,,,,,,,,,,,,,,,,,,,,,,,,,,,,,
space,12.023,0.298148184,-0.227777799,0,0,0,0,3,3,3,1,4,instructions,"It is very important that you respond as quickly and accurately as possible, as each letter string will only be on the screen for two seconds. If you do not respond within this time, the message 'Too slow!' will be displayed and the experiment will progress to the next letter string. The first 20 trials will be practice trials and you will receive feedback on your answers. 

Press the space bar or touch the button below to start the practice trials.",0,,200497,18,2022-01-29_17h32.01.360,lexical_decision_task_DD_L6,2021.2.3,Win32,58.77858109,,,,,,,,,,,,,,,,,,,,,,,,,,,,,,,,,,,,,,,,,,,,,,,,,,,,,,,,,,,,,,,,,,,,,,,,
,,,,,,,,,,,,,,,,,200497,18,2022-01-29_17h32.01.360,lexical_decision_task_DD_L6,2021.2.3,Win32,58.77858109,z,1,0.7097,,,,,,,,0.7097,1,0,0,0,9,1,1001,FARINY,z,,,,,,,,,,,,,,,,,,,,,,,,,,,,,,,,,,,,,,,,,,,,,,,,,,,,
,,,,,,,,,,,,,,,,,200497,18,2022-01-29_17h32.01.360,lexical_decision_task_DD_L6,2021.2.3,Win32,58.77858109,m,1,0.4996,,,,,,,,0.4996,1,0,1,1,1,1,1001,ADJUST,m,,,,,,,,,,,,,,,,,,,,,,,,,,,,,,,,,,,,,,,,,,,,,,,,,,,,
,,,,,,,,,,,,,,,,,200497,18,2022-01-29_17h32.01.360,lexical_decision_task_DD_L6,2021.2.3,Win32,58.77858109,z,1,0.6414,,,,,,,,0.6414,1,0,2,2,12,1,1001,SPRINY,z,,,,,,,,,,,,,,,,,,,,,,,,,,,,,,,,,,,,,,,,,,,,,,,,,,,,
,,,,,,,,,,,,,,,,,200497,18,2022-01-29_17h32.01.360,lexical_decision_task_DD_L6,2021.2.3,Win32,58.77858109,z,1,0.5499,,,,,,,,0.5499,1,0,3,3,11,1,1001,RASHET,z,,,,,,,,,,,,,,,,,,,,,,,,,,,,,,,,,,,,,,,,,,,,,,,,,,,,
,,,,,,,,,,,,,,,,,200497,18,2022-01-29_17h32.01.360,lexical_decision_task_DD_L6,2021.2.3,Win32,58.77858109,m,1,0.569,,,,,,,,0.569,1,0,4,4,7,1,1001,VOLUME,m,,,,,,,,,,,,,,,,,,,,,,,,,,,,,,,,,,,,,,,,,,,,,,,,,,,,
,,,,,,,,,,,,,,,,,200497,18,2022-01-29_17h32.01.360,lexical_decision_task_DD_L6,2021.2.3,Win32,58.77858109,z,1,0.7017,,,,,,,,0.7017,1,0,5,5,8,1,1001,ASLERT,z,,,,,,,,,,,,,,,,,,,,,,,,,,,,,,,,,,,,,,,,,,,,,,,,,,,,
,,,,,,,,,,,,,,,,,200497,18,2022-01-29_17h32.01.360,lexical_decision_task_DD_L6,2021.2.3,Win32,58.77858109,m,1,0.6565,,,,,,,,0.6565,1,0,6,6,0,1,1001,UTOPIA,m,,,,,,,,,,,,,,,,,,,,,,,,,,,,,,,,,,,,,,,,,,,,,,,,,,,,
,,,,,,,,,,,,,,,,,200497,18,2022-01-29_17h32.01.360,lexical_decision_task_DD_L6,2021.2.3,Win32,58.77858109,z,1,0.4418,,,,,,,,0.4418,1,0,7,7,14,1,1001,THRALE,z,,,,,,,,,,,,,,,,,,,,,,,,,,,,,,,,,,,,,,,,,,,,,,,,,,,,
,,,,,,,,,,,,,,,,,200497,18,2022-01-29_17h32.01.360,lexical_decision_task_DD_L6,2021.2.3,Win32,58.77858109,m,0,0.2839,,,,,,,,0.2839,0,0,8,8,15,1,1001,WHAISE,z,,,,,,,,,,,,,,,,,,,,,,,,,,,,,,,,,,,,,,,,,,,,,,,,,,,,
,,,,,,,,,,,,,,,,,200497,18,2022-01-29_17h32.01.360,lexical_decision_task_DD_L6,2021.2.3,Win32,58.77858109,m,1,0.7547,,,,,,,,0.7547,1,0,9,9,4,1,1001,SQUEAK,m,,,,,,,,,,,,,,,,,,,,,,,,,,,,,,,,,,,,,,,,,,,,,,,,,,,,
,,,,,,,,,,,,,,,,,200497,18,2022-01-29_17h32.01.360,lexical_decision_task_DD_L6,2021.2.3,Win32,58.77858109,m,1,0.6099,,,,,,,,0.6099,1,0,10,10,6,1,1001,ZOMBIE,m,,,,,,,,,,,,,,,,,,,,,,,,,,,,,,,,,,,,,,,,,,,,,,,,,,,,
,,,,,,,,,,,,,,,,,200497,18,2022-01-29_17h32.01.360,lexical_decision_task_DD_L6,2021.2.3,Win32,58.77858109,m,0,0.987,,,,,,,,0.987,0,0,11,11,10,1,1001,INLADE,z,,,,,,,,,,,,,,,,,,,,,,,,,,,,,,,,,,,,,,,,,,,,,,,,,,,,
,,,,,,,,,,,,,,,,,200497,18,2022-01-29_17h32.01.360,lexical_decision_task_DD_L6,2021.2.3,Win32,58.77858109,m,1,0.618,,,,,,,,0.618,1,0,12,12,5,1,1001,OBTAIN,m,,,,,,,,,,,,,,,,,,,,,,,,,,,,,,,,,,,,,,,,,,,,,,,,,,,,
,,,,,,,,,,,,,,,,,200497,18,2022-01-29_17h32.01.360,lexical_decision_task_DD_L6,2021.2.3,Win32,58.77858109,m,1,0.6753,,,,,,,,0.6753,1,0,13,13,2,1,1001,ALMOND,m,,,,,,,,,,,,,,,,,,,,,,,,,,,,,,,,,,,,,,,,,,,,,,,,,,,,
,,,,,,,,,,,,,,,,,200497,18,2022-01-29_17h32.01.360,lexical_decision_task_DD_L6,2021.2.3,Win32,58.77858109,m,1,0.9165,,,,,,,,0.9165,1,0,14,14,3,1,1001,MATRIX,m,,,,,,,,,,,,,,,,,,,,,,,,,,,,,,,,,,,,,,,,,,,,,,,,,,,,
,,,,,,,,,,,,,,,,,200497,18,2022-01-29_17h32.01.360,lexical_decision_task_DD_L6,2021.2.3,Win32,58.77858109,z,1,0.6211,,,,,,,,0.6211,1,0,15,15,13,1,1001,ROUPET,z,,,,,,,,,,,,,,,,,,,,,,,,,,,,,,,,,,,,,,,,,,,,,,,,,,,,
space,9.9616,0.298148184,-0.227777799,0,0,0,,,,,,1,end_of_practice,"You have completed the practice trials. During the experimental trials, you will not receive feedback. 
Before you begin, please ensure that you are in a comfortable and quiet location and will not be disturbed for about 15 minutes, as we cannot use your data if you do not complete all the trials. 
 When you are ready to start the experimental trials, please press space or touch the button below.",,,200497,18,2022-01-29_17h32.01.360,lexical_decision_task_DD_L6,2021.2.3,Win32,58.77858109,,,,,,,,,,,,,,,,,,,,,0,0,0,0,1,,,,,,,,,,,,,,,,,,,,,,,,,,,,,,,,,,,,,,,,,,,,,,,
,,,,,,,,,,,,,,,,,200497,18,2022-01-29_17h32.01.360,lexical_decision_task_DD_L6,2021.2.3,Win32,58.77858109,,,,,,,,,,,0.5074,1,,,,,,,,,,,,,,m,1,0.5074,,,,,,,,0.298148184,-0.227777799,0,0,0,,0,0,0,31,1,STEAK,C,old,m,./images/STEAK.png,,,,,,,,,,,,,,,,,,,,,
,,,,,,,,,,,,,,,,,200497,18,2022-01-29_17h32.01.360,lexical_decision_task_DD_L6,2021.2.3,Win32,58.77858109,,,,,,,,,,,0.6202,1,,,,,,,,,,,,,,z,1,0.6202,,,,,,,,0.298148184,-0.227777799,0,0,0,,0,1,1,132,1,SCIFF,C,old,z,./images/SCIFF.png,,,,,,,,,,,,,,,,,,,,,
,,,,,,,,,,,,,,,,,200497,18,2022-01-29_17h32.01.360,lexical_decision_task_DD_L6,2021.2.3,Win32,58.77858109,,,,,,,,,,,0.4391,1,,,,,,,,,,,,,,m,1,0.4391,,,,,,,,0.298148184,-0.227777799,0,0,0,,0,2,2,22,1,CLOWN,C,old,m,./images/CLOWN.png,,,,,,,,,,,,,,,,,,,,,
,,,,,,,,,,,,,,,,,200497,18,2022-01-29_17h32.01.360,lexical_decision_task_DD_L6,2021.2.3,Win32,58.77858109,,,,,,,,,,,0.5588,1,,,,,,,,,,,,,,z,1,0.5588,,,,,,,,0.298148184,-0.227777799,0,0,0,,0,3,3,119,1,PAFER,LB,old,z,./images/PAFERLB.png,,,,,,,,,,,,,,,,,,,,,
,,,,,,,,,,,,,,,,,200497,18,2022-01-29_17h32.01.360,lexical_decision_task_DD_L6,2021.2.3,Win32,58.77858109,,,,,,,,,,,0.5119,1,,,,,,,,,,,,,,m,1,0.5119,,,,,,,,0.298148184,-0.227777799,0,0,0,,0,4,4,66,1,STATUE,LB,old,m,./images/STATUELB.png,,,,,,,,,,,,,,,,,,,,,
,,,,,,,,,,,,,,,,,200497,18,2022-01-29_17h32.01.360,lexical_decision_task_DD_L6,2021.2.3,Win32,58.77858109,,,,,,,,,,,0.5129,0,,,,,,,,,,,,,,m,0,0.5129,,,,,,,,0.298148184,-0.227777799,0,0,0,,0,5,5,107,1,FASKS,LB,old,z,./images/FASKSLB.png,,,,,,,,,,,,,,,,,,,,,
,,,,,,,,,,,,,,,,,200497,18,2022-01-29_17h32.01.360,lexical_decision_task_DD_L6,2021.2.3,Win32,58.77858109,,,,,,,,,,,0.5458,1,,,,,,,,,,,,,,m,1,0.5458,,,,,,,,0.298148184,-0.227777799,0,0,0,,0,6,6,32,1,HOCKEY,HB,old,m,./images/HOCKEYHB.png,,,,,,,,,,,,,,,,,,,,,
,,,,,,,,,,,,,,,,,200497,18,2022-01-29_17h32.01.360,lexical_decision_task_DD_L6,2021.2.3,Win32,58.77858109,,,,,,,,,,,0.5976,1,,,,,,,,,,,,,,m,1,0.5976,,,,,,,,0.298148184,-0.227777799,0,0,0,,0,7,7,39,1,CANDY,LB,old,m,./images/CANDYLB.png,,,,,,,,,,,,,,,,,,,,,
,,,,,,,,,,,,,,,,,200497,18,2022-01-29_17h32.01.360,lexical_decision_task_DD_L6,2021.2.3,Win32,58.77858109,,,,,,,,,,,0.7168,1,,,,,,,,,,,,,,z,1,0.7168,,,,,,,,0.298148184,-0.227777799,0,0,0,,0,8,8,109,1,BURGE,HB,old,z,./images/BURGEHB.png,,,,,,,,,,,,,,,,,,,,,
,,,,,,,,,,,,,,,,,200497,18,2022-01-29_17h32.01.360,lexical_decision_task_DD_L6,2021.2.3,Win32,58.77858109,,,,,,,,,,,0.484,1,,,,,,,,,,,,,,m,1,0.484,,,,,,,,0.298148184,-0.227777799,0,0,0,,0,9,9,43,1,STOOL,C,old,m,./images/STOOL.png,,,,,,,,,,,,,,,,,,,,,
,,,,,,,,,,,,,,,,,200497,18,2022-01-29_17h32.01.360,lexical_decision_task_DD_L6,2021.2.3,Win32,58.77858109,,,,,,,,,,,0.4219,1,,,,,,,,,,,,,,m,1,0.4219,,,,,,,,0.298148184,-0.227777799,0,0,0,,0,10,10,25,1,CHALK,C,old,m,./images/CHALK.png,,,,,,,,,,,,,,,,,,,,,
,,,,,,,,,,,,,,,,,200497,18,2022-01-29_17h32.01.360,lexical_decision_task_DD_L6,2021.2.3,Win32,58.77858109,,,,,,,,,,,0.64,1,,,,,,,,,,,,,,m,1,0.64,,,,,,,,0.298148184,-0.227777799,0,0,0,,0,11,11,15,1,COLLAR,LB,old,m,./images/COLLARLB.png,,,,,,,,,,,,,,,,,,,,,
,,,,,,,,,,,,,,,,,200497,18,2022-01-29_17h32.01.360,lexical_decision_task_DD_L6,2021.2.3,Win32,58.77858109,,,,,,,,,,,0.7218,0,,,,,,,,,,,,,,z,0,0.7218,,,,,,,,0.298148184,-0.227777799,0,0,0,,0,12,12,29,1,PISTOL,HB,old,m,./images/PISTOLHB.png,,,,,,,,,,,,,,,,,,,,,
,,,,,,,,,,,,,,,,,200497,18,2022-01-29_17h32.01.360,lexical_decision_task_DD_L6,2021.2.3,Win32,58.77858109,,,,,,,,,,,0.8092,1,,,,,,,,,,,,,,z,1,0.8092,,,,,,,,0.298148184,-0.227777799,0,0,0,,0,13,13,143,1,MONGS,LB,old,z,./images/MONGSLB.png,,,,,,,,,,,,,,,,,,,,,
,,,,,,,,,,,,,,,,,200497,18,2022-01-29_17h32.01.360,lexical_decision_task_DD_L6,2021.2.3,Win32,58.77858109,,,,,,,,,,,0.8219,1,,,,,,,,,,,,,,z,1,0.8219,,,,,,,,0.298148184,-0.227777799,0,0,0,,0,14,14,140,1,DOVET,LB,old,z,./images/DOVETLB.png,,,,,,,,,,,,,,,,,,,,,
,,,,,,,,,,,,,,,,,200497,18,2022-01-29_17h32.01.360,lexical_decision_task_DD_L6,2021.2.3,Win32,58.77858109,,,,,,,,,,,0.5822,1,,,,,,,,,,,,,,m,1,0.5822,,,,,,,,0.298148184,-0.227777799,0,0,0,,0,15,15,33,1,SAUNA,LB,old,m,./images/SAUNALB.png,,,,,,,,,,,,,,,,,,,,,
,,,,,,,,,,,,,,,,,200497,18,2022-01-29_17h32.01.360,lexical_decision_task_DD_L6,2021.2.3,Win32,58.77858109,,,,,,,,,,,0.8637,1,,,,,,,,,,,,,,z,1,0.8637,,,,,,,,0.298148184,-0.227777799,0,0,0,,0,16,16,116,1,BALGY,LB,old,z,./images/BALGYLB.png,,,,,,,,,,,,,,,,,,,,,
,,,,,,,,,,,,,,,,,200497,18,2022-01-29_17h32.01.360,lexical_decision_task_DD_L6,2021.2.3,Win32,58.77858109,,,,,,,,,,,0.9538,0,,,,,,,,,,,,,,m,0,0.9538,,,,,,,,0.298148184,-0.227777799,0,0,0,,0,17,17,106,1,CLUMS,HB,old,z,./images/CLUMSHB.png,,,,,,,,,,,,,,,,,,,,,
,,,,,,,,,,,,,,,,,200497,18,2022-01-29_17h32.01.360,lexical_decision_task_DD_L6,2021.2.3,Win32,58.77858109,,,,,,,,,,,1.0403,1,,,,,,,,,,,,,,z,1,1.0403,,,,,,,,0.298148184,-0.227777799,0,0,0,,0,18,18,113,1,LINEW,LB,old,z,./images/LINEWLB.png,,,,,,,,,,,,,,,,,,,,,
,,,,,,,,,,,,,,,,,200497,18,2022-01-29_17h32.01.360,lexical_decision_task_DD_L6,2021.2.3,Win32,58.77858109,,,,,,,,,,,0.7289,1,,,,,,,,,,,,,,z,1,0.7289,,,,,,,,0.298148184,-0.227777799,0,0,0,,0,19,19,114,1,RIKES,C,old,z,./images/RIKES.png,,,,,,,,,,,,,,,,,,,,,
,,,,,,,,,,,,,,,,,200497,18,2022-01-29_17h32.01.360,lexical_decision_task_DD_L6,2021.2.3,Win32,58.77858109,,,,,,,,,,,0.8492,1,,,,,,,,,,,,,,z,1,0.8492,,,,,,,,0.298148184,-0.227777799,0,0,0,,0,20,20,155,1,CANGY,LB,old,z,./images/CANGYLB.png,,,,,,,,,,,,,,,,,,,,,
,,,,,,,,,,,,,,,,,200497,18,2022-01-29_17h32.01.360,lexical_decision_task_DD_L6,2021.2.3,Win32,58.77858109,,,,,,,,,,,0.929,1,,,,,,,,,,,,,,m,1,0.929,,,,,,,,0.298148184,-0.227777799,0,0,0,,0,21,21,38,1,ENGINE,HB,old,m,./images/ENGINEHB.png,,,,,,,,,,,,,,,,,,,,,
,,,,,,,,,,,,,,,,,200497,18,2022-01-29_17h32.01.360,lexical_decision_task_DD_L6,2021.2.3,Win32,58.77858109,,,,,,,,,,,0.9597,1,,,,,,,,,,,,,,z,1,0.9597,,,,,,,,0.298148184,-0.227777799,0,0,0,,0,22,22,89,1,DRIEK,LB,old,z,./images/DRIEKLB.png,,,,,,,,,,,,,,,,,,,,,
,,,,,,,,,,,,,,,,,200497,18,2022-01-29_17h32.01.360,lexical_decision_task_DD_L6,2021.2.3,Win32,58.77858109,,,,,,,,,,,0.5325,1,,,,,,,,,,,,,,m,1,0.5325,,,,,,,,0.298148184,-0.227777799,0,0,0,,0,23,23,73,1,GLOVE,C,old,m,./images/GLOVE.png,,,,,,,,,,,,,,,,,,,,,
,,,,,,,,,,,,,,,,,200497,18,2022-01-29_17h32.01.360,lexical_decision_task_DD_L6,2021.2.3,Win32,58.77858109,,,,,,,,,,,0.6466,1,,,,,,,,,,,,,,z,1,0.6466,,,,,,,,0.298148184,-0.227777799,0,0,0,,0,24,24,101,1,GLEET,LB,old,z,./images/GLEETLB.png,,,,,,,,,,,,,,,,,,,,,
,,,,,,,,,,,,,,,,,200497,18,2022-01-29_17h32.01.360,lexical_decision_task_DD_L6,2021.2.3,Win32,58.77858109,,,,,,,,,,,0.7353,1,,,,,,,,,,,,,,m,1,0.7353,,,,,,,,0.298148184,-0.227777799,0,0,0,,0,25,25,40,1,SNAKE,C,old,m,./images/SNAKE.png,,,,,,,,,,,,,,,,,,,,,
,,,,,,,,,,,,,,,,,200497,18,2022-01-29_17h32.01.360,lexical_decision_task_DD_L6,2021.2.3,Win32,58.77858109,,,,,,,,,,,0.6075,1,,,,,,,,,,,,,,z,1,0.6075,,,,,,,,0.298148184,-0.227777799,0,0,0,,0,26,26,96,1,KEAMS,C,old,z,./images/KEAMS.png,,,,,,,,,,,,,,,,,,,,,
,,,,,,,,,,,,,,,,,200497,18,2022-01-29_17h32.01.360,lexical_decision_task_DD_L6,2021.2.3,Win32,58.77858109,,,,,,,,,,,0.7558,1,,,,,,,,,,,,,,z,1,0.7558,,,,,,,,0.298148184,-0.227777799,0,0,0,,0,27,27,148,1,JOMS,HB,old,z,./images/JOMSHB.png,,,,,,,,,,,,,,,,,,,,,
,,,,,,,,,,,,,,,,,200497,18,2022-01-29_17h32.01.360,lexical_decision_task_DD_L6,2021.2.3,Win32,58.77858109,,,,,,,,,,,0.8484,1,,,,,,,,,,,,,,m,1,0.8484,,,,,,,,0.298148184,-0.227777799,0,0,0,,0,28,28,36,1,BOILER,LB,old,m,./images/BOILERLB.png,,,,,,,,,,,,,,,,,,,,,
,,,,,,,,,,,,,,,,,200497,18,2022-01-29_17h32.01.360,lexical_decision_task_DD_L6,2021.2.3,Win32,58.77858109,,,,,,,,,,,0.6813,1,,,,,,,,,,,,,,z,1,0.6813,,,,,,,,0.298148184,-0.227777799,0,0,0,,0,29,29,126,1,GUELS,C,old,z,./images/GUELS.png,,,,,,,,,,,,,,,,,,,,,
,,,,,,,,,,,,,,,,,200497,18,2022-01-29_17h32.01.360,lexical_decision_task_DD_L6,2021.2.3,Win32,58.77858109,,,,,,,,,,,0.559,1,,,,,,,,,,,,,,m,1,0.559,,,,,,,,0.298148184,-0.227777799,0,0,0,,0,30,30,50,1,PILOT,HB,old,m,./images/PILOTHB.png,,,,,,,,,,,,,,,,,,,,,
,,,,,,,,,,,,,,,,,200497,18,2022-01-29_17h32.01.360,lexical_decision_task_DD_L6,2021.2.3,Win32,58.77858109,,,,,,,,,,,0.7015,1,,,,,,,,,,,,,,m,1,0.7015,,,,,,,,0.298148184,-0.227777799,0,0,0,,0,31,31,44,1,BASKET,HB,old,m,./images/BASKETHB.png,,,,,,,,,,,,,,,,,,,,,
,,,,,,,,,,,,,,,,,200497,18,2022-01-29_17h32.01.360,lexical_decision_task_DD_L6,2021.2.3,Win32,58.77858109,,,,,,,,,,,0.5098,0,,,,,,,,,,,,,,z,0,0.5098,,,,,,,,0.298148184,-0.227777799,0,0,0,,0,32,32,67,1,POKER,C,old,m,./images/POKER.png,,,,,,,,,,,,,,,,,,,,,
,,,,,,,,,,,,,,,,,200497,18,2022-01-29_17h32.01.360,lexical_decision_task_DD_L6,2021.2.3,Win32,58.77858109,,,,,,,,,,,1.0998,1,,,,,,,,,,,,,,z,1,1.0998,,,,,,,,0.298148184,-0.227777799,0,0,0,,0,33,33,163,1,GAMBA,HB,old,z,./images/GAMBAHB.png,,,,,,,,,,,,,,,,,,,,,
,,,,,,,,,,,,,,,,,200497,18,2022-01-29_17h32.01.360,lexical_decision_task_DD_L6,2021.2.3,Win32,58.77858109,,,,,,,,,,,1.2703,1,,,,,,,,,,,,,,z,1,1.2703,,,,,,,,0.298148184,-0.227777799,0,0,0,,0,34,34,154,1,THINT,HB,old,z,./images/THINTHB.png,,,,,,,,,,,,,,,,,,,,,
,,,,,,,,,,,,,,,,,200497,18,2022-01-29_17h32.01.360,lexical_decision_task_DD_L6,2021.2.3,Win32,58.77858109,,,,,,,,,,,0.5576,1,,,,,,,,,,,,,,m,1,0.5576,,,,,,,,0.298148184,-0.227777799,0,0,0,,0,35,35,54,1,CHERRY,LB,old,m,./images/CHERRYLB.png,,,,,,,,,,,,,,,,,,,,,
,,,,,,,,,,,,,,,,,200497,18,2022-01-29_17h32.01.360,lexical_decision_task_DD_L6,2021.2.3,Win32,58.77858109,,,,,,,,,,,0.6731,0,,,,,,,,,,,,,,m,0,0.6731,,,,,,,,0.298148184,-0.227777799,0,0,0,,0,36,36,166,1,SHORY,HB,old,z,./images/SHORYHB.png,,,,,,,,,,,,,,,,,,,,,
,,,,,,,,,,,,,,,,,200497,18,2022-01-29_17h32.01.360,lexical_decision_task_DD_L6,2021.2.3,Win32,58.77858109,,,,,,,,,,,0.8021,1,,,,,,,,,,,,,,m,1,0.8021,,,,,,,,0.298148184,-0.227777799,0,0,0,,0,37,37,58,1,CANOE,C,old,m,./images/CANOE.png,,,,,,,,,,,,,,,,,,,,,
,,,,,,,,,,,,,,,,,200497,18,2022-01-29_17h32.01.360,lexical_decision_task_DD_L6,2021.2.3,Win32,58.77858109,,,,,,,,,,,0.5699,1,,,,,,,,,,,,,,m,1,0.5699,,,,,,,,0.298148184,-0.227777799,0,0,0,,0,38,38,3,1,CRATER,LB,old,m,./images/CRATERLB.png,,,,,,,,,,,,,,,,,,,,,
,,,,,,,,,,,,,,,,,200497,18,2022-01-29_17h32.01.360,lexical_decision_task_DD_L6,2021.2.3,Win32,58.77858109,,,,,,,,,,,0.4828,0,,,,,,,,,,,,,,z,0,0.4828,,,,,,,,0.298148184,-0.227777799,0,0,0,,0,39,39,70,1,BANANA,C,old,m,./images/BANANA.png,,,,,,,,,,,,,,,,,,,,,
,,,,,,,,,,,,,,,,,200497,18,2022-01-29_17h32.01.360,lexical_decision_task_DD_L6,2021.2.3,Win32,58.77858109,,,,,,,,,,,1.4367,0,,,,,,,,,,,,,,m,0,1.4367,,,,,,,,0.298148184,-0.227777799,0,0,0,,0,40,40,142,1,PLASK,HB,old,z,./images/PLASKHB.png,,,,,,,,,,,,,,,,,,,,,
,,,,,,,,,,,,,,,,,200497,18,2022-01-29_17h32.01.360,lexical_decision_task_DD_L6,2021.2.3,Win32,58.77858109,,,,,,,,,,,0.8091,1,,,,,,,,,,,,,,m,1,0.8091,,,,,,,,0.298148184,-0.227777799,0,0,0,space,0,41,41,8,1,CLIFF,HB,old,m,./images/CLIFFHB.png,4.7504,,,,,,,,,,,,,,,,,,,,
,,,,,,,,,,,,,,,,,200497,18,2022-01-29_17h32.01.360,lexical_decision_task_DD_L6,2021.2.3,Win32,58.77858109,,,,,,,,,,,1.2276,1,,,,,,,,,,,,,,z,1,1.2276,,,,,,,,0.298148184,-0.227777799,0,0,0,,0,42,42,133,1,POWDY,HB,old,z,./images/POWDYHB.png,,,,,,,,,,,,,,,,,,,,,
,,,,,,,,,,,,,,,,,200497,18,2022-01-29_17h32.01.360,lexical_decision_task_DD_L6,2021.2.3,Win32,58.77858109,,,,,,,,,,,0.6109,1,,,,,,,,,,,,,,m,1,0.6109,,,,,,,,0.298148184,-0.227777799,0,0,0,,0,43,43,14,1,FENCE,HB,old,m,./images/FENCEHB.png,,,,,,,,,,,,,,,,,,,,,
,,,,,,,,,,,,,,,,,200497,18,2022-01-29_17h32.01.360,lexical_decision_task_DD_L6,2021.2.3,Win32,58.77858109,,,,,,,,,,,0.9807,1,,,,,,,,,,,,,,z,1,0.9807,,,,,,,,0.298148184,-0.227777799,0,0,0,,0,44,44,97,1,CHIDS,HB,old,z,./images/CHIDSHB.png,,,,,,,,,,,,,,,,,,,,,
,,,,,,,,,,,,,,,,,200497,18,2022-01-29_17h32.01.360,lexical_decision_task_DD_L6,2021.2.3,Win32,58.77858109,,,,,,,,,,,0.7907,1,,,,,,,,,,,,,,z,1,0.7907,,,,,,,,0.298148184,-0.227777799,0,0,0,,0,45,45,87,1,TRING,C,old,z,./images/TRING.png,,,,,,,,,,,,,,,,,,,,,
,,,,,,,,,,,,,,,,,200497,18,2022-01-29_17h32.01.360,lexical_decision_task_DD_L6,2021.2.3,Win32,58.77858109,,,,,,,,,,,0.6375,1,,,,,,,,,,,,,,m,1,0.6375,,,,,,,,0.298148184,-0.227777799,0,0,0,,0,46,46,71,1,BUBBLE,HB,old,m,./images/BUBBLEHB.png,,,,,,,,,,,,,,,,,,,,,
,,,,,,,,,,,,,,,,,200497,18,2022-01-29_17h32.01.360,lexical_decision_task_DD_L6,2021.2.3,Win32,58.77858109,,,,,,,,,,,0.5558,1,,,,,,,,,,,,,,m,1,0.5558,,,,,,,,0.298148184,-0.227777799,0,0,0,,0,47,47,51,1,SAUCE,LB,old,m,./images/SAUCELB.png,,,,,,,,,,,,,,,,,,,,,
,,,,,,,,,,,,,,,,,200497,18,2022-01-29_17h32.01.360,lexical_decision_task_DD_L6,2021.2.3,Win32,58.77858109,,,,,,,,,,,0.6678,1,,,,,,,,,,,,,,z,1,0.6678,,,,,,,,0.298148184,-0.227777799,0,0,0,,0,48,48,158,1,EGECT,LB,old,z,./images/EGECTLB.png,,,,,,,,,,,,,,,,,,,,,
,,,,,,,,,,,,,,,,,200497,18,2022-01-29_17h32.01.360,lexical_decision_task_DD_L6,2021.2.3,Win32,58.77858109,,,,,,,,,,,0.7638,1,,,,,,,,,,,,,,z,1,0.7638,,,,,,,,0.298148184,-0.227777799,0,0,0,,0,49,49,108,1,GRUET,C,old,z,./images/GRUET.png,,,,,,,,,,,,,,,,,,,,,
,,,,,,,,,,,,,,,,,200497,18,2022-01-29_17h32.01.360,lexical_decision_task_DD_L6,2021.2.3,Win32,58.77858109,,,,,,,,,,,0.8952,1,,,,,,,,,,,,,,z,1,0.8952,,,,,,,,0.298148184,-0.227777799,0,0,0,,0,50,50,100,1,DRIBS,HB,old,z,./images/DRIBSHB.png,,,,,,,,,,,,,,,,,,,,,
,,,,,,,,,,,,,,,,,200497,18,2022-01-29_17h32.01.360,lexical_decision_task_DD_L6,2021.2.3,Win32,58.77858109,,,,,,,,,,,0.7142,1,,,,,,,,,,,,,,z,1,0.7142,,,,,,,,0.298148184,-0.227777799,0,0,0,,0,51,51,137,1,JOOST,LB,old,z,./images/JOOSTLB.png,,,,,,,,,,,,,,,,,,,,,
,,,,,,,,,,,,,,,,,200497,18,2022-01-29_17h32.01.360,lexical_decision_task_DD_L6,2021.2.3,Win32,58.77858109,,,,,,,,,,,0.8201,1,,,,,,,,,,,,,,z,1,0.8201,,,,,,,,0.298148184,-0.227777799,0,0,0,,0,52,52,118,1,BAVEL,HB,old,z,./images/BAVELHB.png,,,,,,,,,,,,,,,,,,,,,
,,,,,,,,,,,,,,,,,200497,18,2022-01-29_17h32.01.360,lexical_decision_task_DD_L6,2021.2.3,Win32,58.77858109,,,,,,,,,,,0.7332,1,,,,,,,,,,,,,,z,1,0.7332,,,,,,,,0.298148184,-0.227777799,0,0,0,,0,53,53,165,1,TROWN,C,old,z,./images/TROWN.png,,,,,,,,,,,,,,,,,,,,,
,,,,,,,,,,,,,,,,,200497,18,2022-01-29_17h32.01.360,lexical_decision_task_DD_L6,2021.2.3,Win32,58.77858109,,,,,,,,,,,0.6891,1,,,,,,,,,,,,,,m,1,0.6891,,,,,,,,0.298148184,-0.227777799,0,0,0,,0,54,54,49,1,BISHOP,C,old,m,./images/BISHOP.png,,,,,,,,,,,,,,,,,,,,,
,,,,,,,,,,,,,,,,,200497,18,2022-01-29_17h32.01.360,lexical_decision_task_DD_L6,2021.2.3,Win32,58.77858109,,,,,,,,,,,0.9444,0,,,,,,,,,,,,,,m,0,0.9444,,,,,,,,0.298148184,-0.227777799,0,0,0,,0,55,55,110,1,CRUNK,LB,old,z,./images/CRUNKLB.png,,,,,,,,,,,,,,,,,,,,,
,,,,,,,,,,,,,,,,,200497,18,2022-01-29_17h32.01.360,lexical_decision_task_DD_L6,2021.2.3,Win32,58.77858109,,,,,,,,,,,0.9545,1,,,,,,,,,,,,,,z,1,0.9545,,,,,,,,0.298148184,-0.227777799,0,0,0,,0,56,56,146,1,MOOST,LB,old,z,./images/MOOSTLB.png,,,,,,,,,,,,,,,,,,,,,
,,,,,,,,,,,,,,,,,200497,18,2022-01-29_17h32.01.360,lexical_decision_task_DD_L6,2021.2.3,Win32,58.77858109,,,,,,,,,,,0.5872,1,,,,,,,,,,,,,,z,1,0.5872,,,,,,,,0.298148184,-0.227777799,0,0,0,,0,57,57,135,1,JOODY,C,old,z,./images/JOODY.png,,,,,,,,,,,,,,,,,,,,,
,,,,,,,,,,,,,,,,,200497,18,2022-01-29_17h32.01.360,lexical_decision_task_DD_L6,2021.2.3,Win32,58.77858109,,,,,,,,,,,0.5875,1,,,,,,,,,,,,,,m,1,0.5875,,,,,,,,0.298148184,-0.227777799,0,0,0,,0,58,58,10,1,GARDEN,C,old,m,./images/GARDEN.png,,,,,,,,,,,,,,,,,,,,,
,,,,,,,,,,,,,,,,,200497,18,2022-01-29_17h32.01.360,lexical_decision_task_DD_L6,2021.2.3,Win32,58.77858109,,,,,,,,,,,0.6223,1,,,,,,,,,,,,,,m,1,0.6223,,,,,,,,0.298148184,-0.227777799,0,0,0,,0,59,59,24,1,FLESH,LB,old,m,./images/FLESHLB.png,,,,,,,,,,,,,,,,,,,,,
,,,,,,,,,,,,,,,,,200497,18,2022-01-29_17h32.01.360,lexical_decision_task_DD_L6,2021.2.3,Win32,58.77858109,,,,,,,,,,,0.4829,1,,,,,,,,,,,,,,m,1,0.4829,,,,,,,,0.298148184,-0.227777799,0,0,0,,0,60,60,27,1,BUTTER,LB,old,m,./images/BUTTERLB.png,,,,,,,,,,,,,,,,,,,,,
,,,,,,,,,,,,,,,,,200497,18,2022-01-29_17h32.01.360,lexical_decision_task_DD_L6,2021.2.3,Win32,58.77858109,,,,,,,,,,,0.83,1,,,,,,,,,,,,,,z,1,0.83,,,,,,,,0.298148184,-0.227777799,0,0,0,,0,61,61,131,1,NACES,LB,old,z,./images/NACESLB.png,,,,,,,,,,,,,,,,,,,,,
,,,,,,,,,,,,,,,,,200497,18,2022-01-29_17h32.01.360,lexical_decision_task_DD_L6,2021.2.3,Win32,58.77858109,,,,,,,,,,,0.4946,1,,,,,,,,,,,,,,m,1,0.4946,,,,,,,,0.298148184,-0.227777799,0,0,0,,0,62,62,1,1,TOWEL,C,old,m,./images/TOWEL.png,,,,,,,,,,,,,,,,,,,,,
,,,,,,,,,,,,,,,,,200497,18,2022-01-29_17h32.01.360,lexical_decision_task_DD_L6,2021.2.3,Win32,58.77858109,,,,,,,,,,,1.1032,1,,,,,,,,,,,,,,z,1,1.1032,,,,,,,,0.298148184,-0.227777799,0,0,0,,0,63,63,91,1,SHENS,HB,old,z,./images/SHENSHB.png,,,,,,,,,,,,,,,,,,,,,
,,,,,,,,,,,,,,,,,200497,18,2022-01-29_17h32.01.360,lexical_decision_task_DD_L6,2021.2.3,Win32,58.77858109,,,,,,,,,,,0.9067,1,,,,,,,,,,,,,,z,1,0.9067,,,,,,,,0.298148184,-0.227777799,0,0,0,,0,64,64,122,1,BLOOT,LB,old,z,./images/BLOOTLB.png,,,,,,,,,,,,,,,,,,,,,
,,,,,,,,,,,,,,,,,200497,18,2022-01-29_17h32.01.360,lexical_decision_task_DD_L6,2021.2.3,Win32,58.77858109,,,,,,,,,,,0.7479,1,,,,,,,,,,,,,,m,1,0.7479,,,,,,,,0.298148184,-0.227777799,0,0,0,,0,65,65,62,1,MAMMAL,HB,old,m,./images/MAMMALHB.png,,,,,,,,,,,,,,,,,,,,,
,,,,,,,,,,,,,,,,,200497,18,2022-01-29_17h32.01.360,lexical_decision_task_DD_L6,2021.2.3,Win32,58.77858109,,,,,,,,,,,0.4909,1,,,,,,,,,,,,,,m,1,0.4909,,,,,,,,0.298148184,-0.227777799,0,0,0,,0,66,66,6,1,STAIN,LB,old,m,./images/STAINLB.png,,,,,,,,,,,,,,,,,,,,,
,,,,,,,,,,,,,,,,,200497,18,2022-01-29_17h32.01.360,lexical_decision_task_DD_L6,2021.2.3,Win32,58.77858109,,,,,,,,,,,0.6488,1,,,,,,,,,,,,,,z,1,0.6488,,,,,,,,0.298148184,-0.227777799,0,0,0,,0,67,67,138,1,PLICE,C,old,z,./images/PLICE.png,,,,,,,,,,,,,,,,,,,,,
,,,,,,,,,,,,,,,,,200497,18,2022-01-29_17h32.01.360,lexical_decision_task_DD_L6,2021.2.3,Win32,58.77858109,,,,,,,,,,,1.0428,1,,,,,,,,,,,,,,z,1,1.0428,,,,,,,,0.298148184,-0.227777799,0,0,0,,0,68,68,115,1,MAWNS,HB,old,z,./images/MAWNSHB.png,,,,,,,,,,,,,,,,,,,,,
,,,,,,,,,,,,,,,,,200497,18,2022-01-29_17h32.01.360,lexical_decision_task_DD_L6,2021.2.3,Win32,58.77858109,,,,,,,,,,,0.5149,1,,,,,,,,,,,,,,m,1,0.5149,,,,,,,,0.298148184,-0.227777799,0,0,0,,0,69,69,34,1,RAZOR,C,old,m,./images/RAZOR.png,,,,,,,,,,,,,,,,,,,,,
,,,,,,,,,,,,,,,,,200497,18,2022-01-29_17h32.01.360,lexical_decision_task_DD_L6,2021.2.3,Win32,58.77858109,,,,,,,,,,,0.6959,1,,,,,,,,,,,,,,z,1,0.6959,,,,,,,,0.298148184,-0.227777799,0,0,0,,0,70,70,93,1,SMONE,C,old,z,./images/SMONE.png,,,,,,,,,,,,,,,,,,,,,
,,,,,,,,,,,,,,,,,200497,18,2022-01-29_17h32.01.360,lexical_decision_task_DD_L6,2021.2.3,Win32,58.77858109,,,,,,,,,,,0.5792,1,,,,,,,,,,,,,,z,1,0.5792,,,,,,,,0.298148184,-0.227777799,0,0,0,,0,71,71,150,1,NOOLS,C,old,z,./images/NOOLS.png,,,,,,,,,,,,,,,,,,,,,
,,,,,,,,,,,,,,,,,200497,18,2022-01-29_17h32.01.360,lexical_decision_task_DD_L6,2021.2.3,Win32,58.77858109,,,,,,,,,,,0.3229,1,,,,,,,,,,,,,,m,1,0.3229,,,,,,,,0.298148184,-0.227777799,0,0,0,,0,72,72,52,1,DESERT,C,old,m,./images/DESERT.png,,,,,,,,,,,,,,,,,,,,,
,,,,,,,,,,,,,,,,,200497,18,2022-01-29_17h32.01.360,lexical_decision_task_DD_L6,2021.2.3,Win32,58.77858109,,,,,,,,,,,1.079,1,,,,,,,,,,,,,,z,1,1.079,,,,,,,,0.298148184,-0.227777799,0,0,0,,0,73,73,136,1,WERVE,HB,old,z,./images/WERVEHB.png,,,,,,,,,,,,,,,,,,,,,
,,,,,,,,,,,,,,,,,200497,18,2022-01-29_17h32.01.360,lexical_decision_task_DD_L6,2021.2.3,Win32,58.77858109,,,,,,,,,,,0.4869,1,,,,,,,,,,,,,,m,1,0.4869,,,,,,,,0.298148184,-0.227777799,0,0,0,,0,74,74,46,1,MUMMY,C,old,m,./images/MUMMY.png,,,,,,,,,,,,,,,,,,,,,
,,,,,,,,,,,,,,,,,200497,18,2022-01-29_17h32.01.360,lexical_decision_task_DD_L6,2021.2.3,Win32,58.77858109,,,,,,,,,,,0.6661,1,,,,,,,,,,,,,,m,1,0.6661,,,,,,,,0.298148184,-0.227777799,0,0,0,,0,75,75,4,1,BOXER,C,old,m,./images/BOXER.png,,,,,,,,,,,,,,,,,,,,,
,,,,,,,,,,,,,,,,,200497,18,2022-01-29_17h32.01.360,lexical_decision_task_DD_L6,2021.2.3,Win32,58.77858109,,,,,,,,,,,0.7475,1,,,,,,,,,,,,,,m,1,0.7475,,,,,,,,0.298148184,-0.227777799,0,0,0,,0,76,76,17,1,PARADE,HB,old,m,./images/PARADEHB.png,,,,,,,,,,,,,,,,,,,,,
,,,,,,,,,,,,,,,,,200497,18,2022-01-29_17h32.01.360,lexical_decision_task_DD_L6,2021.2.3,Win32,58.77858109,,,,,,,,,,,0.5216,1,,,,,,,,,,,,,,m,1,0.5216,,,,,,,,0.298148184,-0.227777799,0,0,0,,0,77,77,79,1,RULER,C,old,m,./images/RULER.png,,,,,,,,,,,,,,,,,,,,,
,,,,,,,,,,,,,,,,,200497,18,2022-01-29_17h32.01.360,lexical_decision_task_DD_L6,2021.2.3,Win32,58.77858109,,,,,,,,,,,0.5005,1,,,,,,,,,,,,,,m,1,0.5005,,,,,,,,0.298148184,-0.227777799,0,0,0,,0,78,78,61,1,ARTIST,C,old,m,./images/ARTIST.png,,,,,,,,,,,,,,,,,,,,,
,,,,,,,,,,,,,,,,,200497,18,2022-01-29_17h32.01.360,lexical_decision_task_DD_L6,2021.2.3,Win32,58.77858109,,,,,,,,,,,0.5583,0,,,,,,,,,,,,,,z,0,0.5583,,,,,,,,0.298148184,-0.227777799,0,0,0,,0,79,79,18,1,PARCEL,LB,old,m,./images/PARCELLB.png,,,,,,,,,,,,,,,,,,,,,
,,,,,,,,,,,,,,,,,200497,18,2022-01-29_17h32.01.360,lexical_decision_task_DD_L6,2021.2.3,Win32,58.77858109,,,,,,,,,,,0.5829,1,,,,,,,,,,,,,,z,1,0.5829,,,,,,,,0.298148184,-0.227777799,0,0,0,,0,80,80,105,1,MOKER,C,old,z,./images/MOKER.png,,,,,,,,,,,,,,,,,,,,,
,,,,,,,,,,,,,,,,,200497,18,2022-01-29_17h32.01.360,lexical_decision_task_DD_L6,2021.2.3,Win32,58.77858109,,,,,,,,,,,0.7145,1,,,,,,,,,,,,,,z,1,0.7145,,,,,,,,0.298148184,-0.227777799,0,0,0,,0,81,81,125,1,MOOKY,LB,old,z,./images/MOOKYLB.png,,,,,,,,,,,,,,,,,,,,,
,,,,,,,,,,,,,,,,,200497,18,2022-01-29_17h32.01.360,lexical_decision_task_DD_L6,2021.2.3,Win32,58.77858109,,,,,,,,,,,0.529,1,,,,,,,,,,,,,,z,1,0.529,,,,,,,,0.298148184,-0.227777799,0,0,0,,0,82,82,129,1,PRANS,C,old,z,./images/PRANS.png,,,,,,,,,,,,,,,,,,,,,
,,,,,,,,,,,,,,,,,200497,18,2022-01-29_17h32.01.360,lexical_decision_task_DD_L6,2021.2.3,Win32,58.77858109,,,,,,,,,,,0.5354,1,,,,,,,,,,,,,,m,1,0.5354,,,,,,,,0.298148184,-0.227777799,0,0,0,space,0,83,83,57,1,FERRY,LB,old,m,./images/FERRYLB.png,4.0796,,,,,,,,,,,,,,,,,,,,
,,,,,,,,,,,,,,,,,200497,18,2022-01-29_17h32.01.360,lexical_decision_task_DD_L6,2021.2.3,Win32,58.77858109,,,,,,,,,,,1.1692,1,,,,,,,,,,,,,,z,1,1.1692,,,,,,,,0.298148184,-0.227777799,0,0,0,,0,84,84,157,1,INLER,HB,old,z,./images/INLERHB.png,,,,,,,,,,,,,,,,,,,,,
,,,,,,,,,,,,,,,,,200497,18,2022-01-29_17h32.01.360,lexical_decision_task_DD_L6,2021.2.3,Win32,58.77858109,,,,,,,,,,,0.7362,1,,,,,,,,,,,,,,z,1,0.7362,,,,,,,,0.298148184,-0.227777799,0,0,0,,0,85,85,112,1,MYING,HB,old,z,./images/MYINGHB.png,,,,,,,,,,,,,,,,,,,,,
,,,,,,,,,,,,,,,,,200497,18,2022-01-29_17h32.01.360,lexical_decision_task_DD_L6,2021.2.3,Win32,58.77858109,,,,,,,,,,,0.5967,1,,,,,,,,,,,,,,m,1,0.5967,,,,,,,,0.298148184,-0.227777799,0,0,0,,0,86,86,41,1,STREAM,HB,old,m,./images/STREAMHB.png,,,,,,,,,,,,,,,,,,,,,
,,,,,,,,,,,,,,,,,200497,18,2022-01-29_17h32.01.360,lexical_decision_task_DD_L6,2021.2.3,Win32,58.77858109,,,,,,,,,,,0.6321,1,,,,,,,,,,,,,,z,1,0.6321,,,,,,,,0.298148184,-0.227777799,0,0,0,,0,87,87,145,1,LAMEL,HB,old,z,./images/LAMELHB.png,,,,,,,,,,,,,,,,,,,,,
,,,,,,,,,,,,,,,,,200497,18,2022-01-29_17h32.01.360,lexical_decision_task_DD_L6,2021.2.3,Win32,58.77858109,,,,,,,,,,,0.7223,1,,,,,,,,,,,,,,z,1,0.7223,,,,,,,,0.298148184,-0.227777799,0,0,0,,0,88,88,152,1,FRAIN,LB,old,z,./images/FRAINLB.png,,,,,,,,,,,,,,,,,,,,,
,,,,,,,,,,,,,,,,,200497,18,2022-01-29_17h32.01.360,lexical_decision_task_DD_L6,2021.2.3,Win32,58.77858109,,,,,,,,,,,0.5115,1,,,,,,,,,,,,,,m,1,0.5115,,,,,,,,0.298148184,-0.227777799,0,0,0,,0,89,89,13,1,BUNNY,C,old,m,./images/BUNNY.png,,,,,,,,,,,,,,,,,,,,,
,,,,,,,,,,,,,,,,,200497,18,2022-01-29_17h32.01.360,lexical_decision_task_DD_L6,2021.2.3,Win32,58.77858109,,,,,,,,,,,0.392,0,,,,,,,,,,,,,,m,0,0.392,,,,,,,,0.298148184,-0.227777799,0,0,0,,0,90,90,159,1,CUDDY,C,old,z,./images/CUDDY.png,,,,,,,,,,,,,,,,,,,,,
,,,,,,,,,,,,,,,,,200497,18,2022-01-29_17h32.01.360,lexical_decision_task_DD_L6,2021.2.3,Win32,58.77858109,,,,,,,,,,,0.4874,1,,,,,,,,,,,,,,m,1,0.4874,,,,,,,,0.298148184,-0.227777799,0,0,0,,0,91,91,55,1,ALLEY,C,old,m,./images/ALLEY.png,,,,,,,,,,,,,,,,,,,,,
,,,,,,,,,,,,,,,,,200497,18,2022-01-29_17h32.01.360,lexical_decision_task_DD_L6,2021.2.3,Win32,58.77858109,,,,,,,,,,,0.6368,1,,,,,,,,,,,,,,z,1,0.6368,,,,,,,,0.298148184,-0.227777799,0,0,0,,0,92,92,139,1,BLEAR,HB,old,z,./images/BLEARHB.png,,,,,,,,,,,,,,,,,,,,,
,,,,,,,,,,,,,,,,,200497,18,2022-01-29_17h32.01.360,lexical_decision_task_DD_L6,2021.2.3,Win32,58.77858109,,,,,,,,,,,0.8582,0,,,,,,,,,,,,,,z,0,0.8582,,,,,,,,0.298148184,-0.227777799,0,0,0,,0,93,93,59,1,BRUSH,HB,old,m,./images/BRUSHHB.png,,,,,,,,,,,,,,,,,,,,,
,,,,,,,,,,,,,,,,,200497,18,2022-01-29_17h32.01.360,lexical_decision_task_DD_L6,2021.2.3,Win32,58.77858109,,,,,,,,,,,0.7177,1,,,,,,,,,,,,,,z,1,0.7177,,,,,,,,0.298148184,-0.227777799,0,0,0,,0,94,94,90,1,NEAST,C,old,z,./images/NEAST.png,,,,,,,,,,,,,,,,,,,,,
,,,,,,,,,,,,,,,,,200497,18,2022-01-29_17h32.01.360,lexical_decision_task_DD_L6,2021.2.3,Win32,58.77858109,,,,,,,,,,,0.6018,1,,,,,,,,,,,,,,m,1,0.6018,,,,,,,,0.298148184,-0.227777799,0,0,0,,0,95,95,26,1,CLOUD,HB,old,m,./images/CLOUDHB.png,,,,,,,,,,,,,,,,,,,,,
,,,,,,,,,,,,,,,,,200497,18,2022-01-29_17h32.01.360,lexical_decision_task_DD_L6,2021.2.3,Win32,58.77858109,,,,,,,,,,,0.731,1,,,,,,,,,,,,,,m,1,0.731,,,,,,,,0.298148184,-0.227777799,0,0,0,,0,96,96,77,1,WHEEL,HB,old,m,./images/WHEELHB.png,,,,,,,,,,,,,,,,,,,,,
,,,,,,,,,,,,,,,,,200497,18,2022-01-29_17h32.01.360,lexical_decision_task_DD_L6,2021.2.3,Win32,58.77858109,,,,,,,,,,,0.7475,1,,,,,,,,,,,,,,z,1,0.7475,,,,,,,,0.298148184,-0.227777799,0,0,0,,0,97,97,92,1,PAIMS,LB,old,z,./images/PAIMSLB.png,,,,,,,,,,,,,,,,,,,,,
,,,,,,,,,,,,,,,,,200497,18,2022-01-29_17h32.01.360,lexical_decision_task_DD_L6,2021.2.3,Win32,58.77858109,,,,,,,,,,,0.5514,0,,,,,,,,,,,,,,z,0,0.5514,,,,,,,,0.298148184,-0.227777799,0,0,0,,0,98,98,7,1,WAGON,C,old,m,./images/WAGON.png,,,,,,,,,,,,,,,,,,,,,
,,,,,,,,,,,,,,,,,200497,18,2022-01-29_17h32.01.360,lexical_decision_task_DD_L6,2021.2.3,Win32,58.77858109,,,,,,,,,,,0.6666,1,,,,,,,,,,,,,,m,1,0.6666,,,,,,,,0.298148184,-0.227777799,0,0,0,,0,99,99,56,1,HEATER,HB,old,m,./images/HEATERHB.png,,,,,,,,,,,,,,,,,,,,,
,,,,,,,,,,,,,,,,,200497,18,2022-01-29_17h32.01.360,lexical_decision_task_DD_L6,2021.2.3,Win32,58.77858109,,,,,,,,,,,0.666,1,,,,,,,,,,,,,,z,1,0.666,,,,,,,,0.298148184,-0.227777799,0,0,0,,0,100,100,95,1,HANTY,LB,old,z,./images/HANTYLB.png,,,,,,,,,,,,,,,,,,,,,
,,,,,,,,,,,,,,,,,200497,18,2022-01-29_17h32.01.360,lexical_decision_task_DD_L6,2021.2.3,Win32,58.77858109,,,,,,,,,,,0.6924,1,,,,,,,,,,,,,,z,1,0.6924,,,,,,,,0.298148184,-0.227777799,0,0,0,,0,101,101,167,1,ZONET,LB,old,z,./images/ZONETLB.png,,,,,,,,,,,,,,,,,,,,,
,,,,,,,,,,,,,,,,,200497,18,2022-01-29_17h32.01.360,lexical_decision_task_DD_L6,2021.2.3,Win32,58.77858109,,,,,,,,,,,0.9117,1,,,,,,,,,,,,,,z,1,0.9117,,,,,,,,0.298148184,-0.227777799,0,0,0,,0,102,102,111,1,HOSSE,C,old,z,./images/HOSSE.png,,,,,,,,,,,,,,,,,,,,,
,,,,,,,,,,,,,,,,,200497,18,2022-01-29_17h32.01.360,lexical_decision_task_DD_L6,2021.2.3,Win32,58.77858109,,,,,,,,,,,0.5934,1,,,,,,,,,,,,,,z,1,0.5934,,,,,,,,0.298148184,-0.227777799,0,0,0,,0,103,103,156,1,HIXES,C,old,z,./images/HIXES.png,,,,,,,,,,,,,,,,,,,,,
,,,,,,,,,,,,,,,,,200497,18,2022-01-29_17h32.01.360,lexical_decision_task_DD_L6,2021.2.3,Win32,58.77858109,,,,,,,,,,,0.5753,1,,,,,,,,,,,,,,m,1,0.5753,,,,,,,,0.298148184,-0.227777799,0,0,0,,0,104,104,28,1,CASINO,C,old,m,./images/CASINO.png,,,,,,,,,,,,,,,,,,,,,
,,,,,,,,,,,,,,,,,200497,18,2022-01-29_17h32.01.360,lexical_decision_task_DD_L6,2021.2.3,Win32,58.77858109,,,,,,,,,,,0.7004,0,,,,,,,,,,,,,,z,0,0.7004,,,,,,,,0.298148184,-0.227777799,0,0,0,,0,105,105,47,1,LAGOON,HB,old,m,./images/LAGOONHB.png,,,,,,,,,,,,,,,,,,,,,
,,,,,,,,,,,,,,,,,200497,18,2022-01-29_17h32.01.360,lexical_decision_task_DD_L6,2021.2.3,Win32,58.77858109,,,,,,,,,,,0.7678,1,,,,,,,,,,,,,,m,1,0.7678,,,,,,,,0.298148184,-0.227777799,0,0,0,,0,106,106,11,1,MEDAL,HB,old,m,./images/MEDALHB.png,,,,,,,,,,,,,,,,,,,,,
,,,,,,,,,,,,,,,,,200497,18,2022-01-29_17h32.01.360,lexical_decision_task_DD_L6,2021.2.3,Win32,58.77858109,,,,,,,,,,,1.0546,1,,,,,,,,,,,,,,m,1,1.0546,,,,,,,,0.298148184,-0.227777799,0,0,0,,0,107,107,53,1,POSTER,HB,old,m,./images/POSTERHB.png,,,,,,,,,,,,,,,,,,,,,
,,,,,,,,,,,,,,,,,200497,18,2022-01-29_17h32.01.360,lexical_decision_task_DD_L6,2021.2.3,Win32,58.77858109,,,,,,,,,,,0.9298,1,,,,,,,,,,,,,,z,1,0.9298,,,,,,,,0.298148184,-0.227777799,0,0,0,,0,108,108,160,1,VEETS,HB,old,z,./images/VEETSHB.png,,,,,,,,,,,,,,,,,,,,,
,,,,,,,,,,,,,,,,,200497,18,2022-01-29_17h32.01.360,lexical_decision_task_DD_L6,2021.2.3,Win32,58.77858109,,,,,,,,,,,0.6515,1,,,,,,,,,,,,,,m,1,0.6515,,,,,,,,0.298148184,-0.227777799,0,0,0,,0,109,109,65,1,SPINE,HB,old,m,./images/SPINEHB.png,,,,,,,,,,,,,,,,,,,,,
,,,,,,,,,,,,,,,,,200497,18,2022-01-29_17h32.01.360,lexical_decision_task_DD_L6,2021.2.3,Win32,58.77858109,,,,,,,,,,,0.7052,1,,,,,,,,,,,,,,m,1,0.7052,,,,,,,,0.298148184,-0.227777799,0,0,0,,0,110,110,82,1,PEBBLE,C,old,m,./images/PEBBLE.png,,,,,,,,,,,,,,,,,,,,,
,,,,,,,,,,,,,,,,,200497,18,2022-01-29_17h32.01.360,lexical_decision_task_DD_L6,2021.2.3,Win32,58.77858109,,,,,,,,,,,0.7007,1,,,,,,,,,,,,,,z,1,0.7007,,,,,,,,0.298148184,-0.227777799,0,0,0,,0,111,111,99,1,BACKY,C,old,z,./images/BACKY.png,,,,,,,,,,,,,,,,,,,,,
,,,,,,,,,,,,,,,,,200497,18,2022-01-29_17h32.01.360,lexical_decision_task_DD_L6,2021.2.3,Win32,58.77858109,,,,,,,,,,,0.6964,1,,,,,,,,,,,,,,m,1,0.6964,,,,,,,,0.298148184,-0.227777799,0,0,0,,0,112,112,78,1,BROOM,LB,old,m,./images/BROOMLB.png,,,,,,,,,,,,,,,,,,,,,
,,,,,,,,,,,,,,,,,200497,18,2022-01-29_17h32.01.360,lexical_decision_task_DD_L6,2021.2.3,Win32,58.77858109,,,,,,,,,,,0.6787,1,,,,,,,,,,,,,,m,1,0.6787,,,,,,,,0.298148184,-0.227777799,0,0,0,,0,113,113,21,1,DANCER,LB,old,m,./images/DANCERLB.png,,,,,,,,,,,,,,,,,,,,,
,,,,,,,,,,,,,,,,,200497,18,2022-01-29_17h32.01.360,lexical_decision_task_DD_L6,2021.2.3,Win32,58.77858109,,,,,,,,,,,0.4739,0,,,,,,,,,,,,,,m,0,0.4739,,,,,,,,0.298148184,-0.227777799,0,0,0,,0,114,114,161,1,BLAPS,LB,old,z,./images/BLAPSLB.png,,,,,,,,,,,,,,,,,,,,,
,,,,,,,,,,,,,,,,,200497,18,2022-01-29_17h32.01.360,lexical_decision_task_DD_L6,2021.2.3,Win32,58.77858109,,,,,,,,,,,0.5662,1,,,,,,,,,,,,,,m,1,0.5662,,,,,,,,0.298148184,-0.227777799,0,0,0,,0,115,115,9,1,DIVER,LB,old,m,./images/DIVERLB.png,,,,,,,,,,,,,,,,,,,,,
,,,,,,,,,,,,,,,,,200497,18,2022-01-29_17h32.01.360,lexical_decision_task_DD_L6,2021.2.3,Win32,58.77858109,,,,,,,,,,,0.7512,1,,,,,,,,,,,,,,m,1,0.7512,,,,,,,,0.298148184,-0.227777799,0,0,0,,0,116,116,23,1,CLOTH,HB,old,m,./images/CLOTHHB.png,,,,,,,,,,,,,,,,,,,,,
,,,,,,,,,,,,,,,,,200497,18,2022-01-29_17h32.01.360,lexical_decision_task_DD_L6,2021.2.3,Win32,58.77858109,,,,,,,,,,,0.7219,1,,,,,,,,,,,,,,m,1,0.7219,,,,,,,,0.298148184,-0.227777799,0,0,0,,0,117,117,20,1,GRANNY,HB,old,m,./images/GRANNYHB.png,,,,,,,,,,,,,,,,,,,,,
,,,,,,,,,,,,,,,,,200497,18,2022-01-29_17h32.01.360,lexical_decision_task_DD_L6,2021.2.3,Win32,58.77858109,,,,,,,,,,,0.5748,1,,,,,,,,,,,,,,m,1,0.5748,,,,,,,,0.298148184,-0.227777799,0,0,0,,0,118,118,63,1,BAKER,LB,old,m,./images/BAKERLB.png,,,,,,,,,,,,,,,,,,,,,
,,,,,,,,,,,,,,,,,200497,18,2022-01-29_17h32.01.360,lexical_decision_task_DD_L6,2021.2.3,Win32,58.77858109,,,,,,,,,,,0.65,1,,,,,,,,,,,,,,m,1,0.65,,,,,,,,0.298148184,-0.227777799,0,0,0,,0,119,119,19,1,DONKEY,C,old,m,./images/DONKEY.png,,,,,,,,,,,,,,,,,,,,,
,,,,,,,,,,,,,,,,,200497,18,2022-01-29_17h32.01.360,lexical_decision_task_DD_L6,2021.2.3,Win32,58.77858109,,,,,,,,,,,1.1955,1,,,,,,,,,,,,,,z,1,1.1955,,,,,,,,0.298148184,-0.227777799,0,0,0,,0,120,120,127,1,NINDY,HB,old,z,./images/NINDYHB.png,,,,,,,,,,,,,,,,,,,,,
,,,,,,,,,,,,,,,,,200497,18,2022-01-29_17h32.01.360,lexical_decision_task_DD_L6,2021.2.3,Win32,58.77858109,,,,,,,,,,,0.7814,1,,,,,,,,,,,,,,z,1,0.7814,,,,,,,,0.298148184,-0.227777799,0,0,0,,0,121,121,144,1,NAIRY,C,old,z,./images/NAIRY.png,,,,,,,,,,,,,,,,,,,,,
,,,,,,,,,,,,,,,,,200497,18,2022-01-29_17h32.01.360,lexical_decision_task_DD_L6,2021.2.3,Win32,58.77858109,,,,,,,,,,,0.629,1,,,,,,,,,,,,,,m,1,0.629,,,,,,,,0.298148184,-0.227777799,0,0,0,,0,122,122,16,1,GRAPE,C,old,m,./images/GRAPE.png,,,,,,,,,,,,,,,,,,,,,
,,,,,,,,,,,,,,,,,200497,18,2022-01-29_17h32.01.360,lexical_decision_task_DD_L6,2021.2.3,Win32,58.77858109,,,,,,,,,,,0.5776,1,,,,,,,,,,,,,,m,1,0.5776,,,,,,,,0.298148184,-0.227777799,0,0,0,,0,123,123,64,1,BRIDE,C,old,m,./images/BRIDE.png,,,,,,,,,,,,,,,,,,,,,
,,,,,,,,,,,,,,,,,200497,18,2022-01-29_17h32.01.360,lexical_decision_task_DD_L6,2021.2.3,Win32,58.77858109,,,,,,,,,,,0.7111,1,,,,,,,,,,,,,,z,1,0.7111,,,,,,,,0.298148184,-0.227777799,0,0,0,,0,124,124,164,1,SGREW,LB,old,z,./images/SGREWLB.png,,,,,,,,,,,,,,,,,,,,,
,,,,,,,,,,,,,,,,,200497,18,2022-01-29_17h32.01.360,lexical_decision_task_DD_L6,2021.2.3,Win32,58.77858109,,,,,,,,,,,0.605,1,,,,,,,,,,,,,,m,1,0.605,,,,,,,,0.298148184,-0.227777799,0,0,0,space,0,125,125,37,1,TIGER,C,old,m,./images/TIGER.png,4.7199,,,,,,,,,,,,,,,,,,,,
,,,,,,,,,,,,,,,,,200497,18,2022-01-29_17h32.01.360,lexical_decision_task_DD_L6,2021.2.3,Win32,58.77858109,,,,,,,,,,,0.5588,1,,,,,,,,,,,,,,m,1,0.5588,,,,,,,,0.298148184,-0.227777799,0,0,0,,0,126,126,30,1,SLOPE,LB,old,m,./images/SLOPELB.png,,,,,,,,,,,,,,,,,,,,,
,,,,,,,,,,,,,,,,,200497,18,2022-01-29_17h32.01.360,lexical_decision_task_DD_L6,2021.2.3,Win32,58.77858109,,,,,,,,,,,0.6044,1,,,,,,,,,,,,,,z,1,0.6044,,,,,,,,0.298148184,-0.227777799,0,0,0,,0,127,127,147,1,ZOLES,C,old,z,./images/ZOLES.png,,,,,,,,,,,,,,,,,,,,,
,,,,,,,,,,,,,,,,,200497,18,2022-01-29_17h32.01.360,lexical_decision_task_DD_L6,2021.2.3,Win32,58.77858109,,,,,,,,,,,0.8308,0,,,,,,,,,,,,,,m,0,0.8308,,,,,,,,0.298148184,-0.227777799,0,0,0,,0,128,128,151,1,TINKY,HB,old,z,./images/TINKYHB.png,,,,,,,,,,,,,,,,,,,,,
,,,,,,,,,,,,,,,,,200497,18,2022-01-29_17h32.01.360,lexical_decision_task_DD_L6,2021.2.3,Win32,58.77858109,,,,,,,,,,,0.8198,1,,,,,,,,,,,,,,m,1,0.8198,,,,,,,,0.298148184,-0.227777799,0,0,0,,0,129,129,12,1,BLOKE,LB,old,m,./images/BLOKELB.png,,,,,,,,,,,,,,,,,,,,,
,,,,,,,,,,,,,,,,,200497,18,2022-01-29_17h32.01.360,lexical_decision_task_DD_L6,2021.2.3,Win32,58.77858109,,,,,,,,,,,0.4922,0,,,,,,,,,,,,,,m,0,0.4922,,,,,,,,0.298148184,-0.227777799,0,0,0,,0,130,130,141,1,PLEET,C,old,z,./images/PLEET.png,,,,,,,,,,,,,,,,,,,,,
,,,,,,,,,,,,,,,,,200497,18,2022-01-29_17h32.01.360,lexical_decision_task_DD_L6,2021.2.3,Win32,58.77858109,,,,,,,,,,,0.9082,1,,,,,,,,,,,,,,z,1,0.9082,,,,,,,,0.298148184,-0.227777799,0,0,0,,0,131,131,134,1,TROSS,LB,old,z,./images/TROSSLB.png,,,,,,,,,,,,,,,,,,,,,
,,,,,,,,,,,,,,,,,200497,18,2022-01-29_17h32.01.360,lexical_decision_task_DD_L6,2021.2.3,Win32,58.77858109,,,,,,,,,,,0.8721,1,,,,,,,,,,,,,,z,1,0.8721,,,,,,,,0.298148184,-0.227777799,0,0,0,,0,132,132,102,1,DULLE,C,old,z,./images/DULLE.png,,,,,,,,,,,,,,,,,,,,,
,,,,,,,,,,,,,,,,,200497,18,2022-01-29_17h32.01.360,lexical_decision_task_DD_L6,2021.2.3,Win32,58.77858109,,,,,,,,,,,0.7034,1,,,,,,,,,,,,,,m,1,0.7034,,,,,,,,0.298148184,-0.227777799,0,0,0,,0,133,133,5,1,BAMBOO,HB,old,m,./images/BAMBOOHB.png,,,,,,,,,,,,,,,,,,,,,
,,,,,,,,,,,,,,,,,200497,18,2022-01-29_17h32.01.360,lexical_decision_task_DD_L6,2021.2.3,Win32,58.77858109,,,,,,,,,,,0.5027,1,,,,,,,,,,,,,,m,1,0.5027,,,,,,,,0.298148184,-0.227777799,0,0,0,,0,134,134,48,1,SHIELD,LB,old,m,./images/SHIELDLB.png,,,,,,,,,,,,,,,,,,,,,
,,,,,,,,,,,,,,,,,200497,18,2022-01-29_17h32.01.360,lexical_decision_task_DD_L6,2021.2.3,Win32,58.77858109,,,,,,,,,,,0.7451,1,,,,,,,,,,,,,,m,1,0.7451,,,,,,,,0.298148184,-0.227777799,0,0,0,,0,135,135,68,1,VALLEY,HB,old,m,./images/VALLEYHB.png,,,,,,,,,,,,,,,,,,,,,
,,,,,,,,,,,,,,,,,200497,18,2022-01-29_17h32.01.360,lexical_decision_task_DD_L6,2021.2.3,Win32,58.77858109,,,,,,,,,,,0.7082,1,,,,,,,,,,,,,,m,1,0.7082,,,,,,,,0.298148184,-0.227777799,0,0,0,,0,136,136,76,1,MIDGET,C,old,m,./images/MIDGET.png,,,,,,,,,,,,,,,,,,,,,
,,,,,,,,,,,,,,,,,200497,18,2022-01-29_17h32.01.360,lexical_decision_task_DD_L6,2021.2.3,Win32,58.77858109,,,,,,,,,,,0.5067,1,,,,,,,,,,,,,,m,1,0.5067,,,,,,,,0.298148184,-0.227777799,0,0,0,,0,137,137,60,1,CURRY,LB,old,m,./images/CURRYLB.png,,,,,,,,,,,,,,,,,,,,,
,,,,,,,,,,,,,,,,,200497,18,2022-01-29_17h32.01.360,lexical_decision_task_DD_L6,2021.2.3,Win32,58.77858109,,,,,,,,,,,0.6256,1,,,,,,,,,,,,,,z,1,0.6256,,,,,,,,0.298148184,-0.227777799,0,0,0,,0,138,138,84,1,HAXES,C,old,z,./images/HAXES.png,,,,,,,,,,,,,,,,,,,,,
,,,,,,,,,,,,,,,,,200497,18,2022-01-29_17h32.01.360,lexical_decision_task_DD_L6,2021.2.3,Win32,58.77858109,,,,,,,,,,,0.5679,1,,,,,,,,,,,,,,m,1,0.5679,,,,,,,,0.298148184,-0.227777799,0,0,0,,0,139,139,75,1,HAMMER,LB,old,m,./images/HAMMERLB.png,,,,,,,,,,,,,,,,,,,,,
,,,,,,,,,,,,,,,,,200497,18,2022-01-29_17h32.01.360,lexical_decision_task_DD_L6,2021.2.3,Win32,58.77858109,,,,,,,,,,,1.0217,1,,,,,,,,,,,,,,z,1,1.0217,,,,,,,,0.298148184,-0.227777799,0,0,0,,0,140,140,103,1,FLORT,HB,old,z,./images/FLORTHB.png,,,,,,,,,,,,,,,,,,,,,
,,,,,,,,,,,,,,,,,200497,18,2022-01-29_17h32.01.360,lexical_decision_task_DD_L6,2021.2.3,Win32,58.77858109,,,,,,,,,,,0.5001,1,,,,,,,,,,,,,,m,1,0.5001,,,,,,,,0.298148184,-0.227777799,0,0,0,,0,141,141,69,1,ARROW,LB,old,m,./images/ARROWLB.png,,,,,,,,,,,,,,,,,,,,,
,,,,,,,,,,,,,,,,,200497,18,2022-01-29_17h32.01.360,lexical_decision_task_DD_L6,2021.2.3,Win32,58.77858109,,,,,,,,,,,0.7518,0,,,,,,,,,,,,,,m,0,0.7518,,,,,,,,0.298148184,-0.227777799,0,0,0,,0,142,142,123,1,SEDGE,C,old,z,./images/SEDGE.png,,,,,,,,,,,,,,,,,,,,,
,,,,,,,,,,,,,,,,,200497,18,2022-01-29_17h32.01.360,lexical_decision_task_DD_L6,2021.2.3,Win32,58.77858109,,,,,,,,,,,1.0985,1,,,,,,,,,,,,,,z,1,1.0985,,,,,,,,0.298148184,-0.227777799,0,0,0,,0,143,143,86,1,AIFED,LB,old,z,./images/AIFEDLB.png,,,,,,,,,,,,,,,,,,,,,
,,,,,,,,,,,,,,,,,200497,18,2022-01-29_17h32.01.360,lexical_decision_task_DD_L6,2021.2.3,Win32,58.77858109,,,,,,,,,,,0.6692,1,,,,,,,,,,,,,,m,1,0.6692,,,,,,,,0.298148184,-0.227777799,0,0,0,,0,144,144,80,1,PLANET,HB,old,m,./images/PLANETHB.png,,,,,,,,,,,,,,,,,,,,,
,,,,,,,,,,,,,,,,,200497,18,2022-01-29_17h32.01.360,lexical_decision_task_DD_L6,2021.2.3,Win32,58.77858109,,,,,,,,,,,0.6153,1,,,,,,,,,,,,,,m,1,0.6153,,,,,,,,0.298148184,-0.227777799,0,0,0,,0,145,145,81,1,DRILL,LB,old,m,./images/DRILLLB.png,,,,,,,,,,,,,,,,,,,,,
,,,,,,,,,,,,,,,,,200497,18,2022-01-29_17h32.01.360,lexical_decision_task_DD_L6,2021.2.3,Win32,58.77858109,,,,,,,,,,,0.8236,1,,,,,,,,,,,,,,z,1,0.8236,,,,,,,,0.298148184,-0.227777799,0,0,0,,0,146,146,130,1,CRILL,HB,old,z,./images/CRILLHB.png,,,,,,,,,,,,,,,,,,,,,
,,,,,,,,,,,,,,,,,200497,18,2022-01-29_17h32.01.360,lexical_decision_task_DD_L6,2021.2.3,Win32,58.77858109,,,,,,,,,,,0.6287,1,,,,,,,,,,,,,,m,1,0.6287,,,,,,,,0.298148184,-0.227777799,0,0,0,,0,147,147,0,1,WALNUT,LB,old,m,./images/WALNUTLB.png,,,,,,,,,,,,,,,,,,,,,
,,,,,,,,,,,,,,,,,200497,18,2022-01-29_17h32.01.360,lexical_decision_task_DD_L6,2021.2.3,Win32,58.77858109,,,,,,,,,,,0.7813,1,,,,,,,,,,,,,,z,1,0.7813,,,,,,,,0.298148184,-0.227777799,0,0,0,,0,148,148,98,1,BAMPS,LB,old,z,./images/BAMPSLB.png,,,,,,,,,,,,,,,,,,,,,
,,,,,,,,,,,,,,,,,200497,18,2022-01-29_17h32.01.360,lexical_decision_task_DD_L6,2021.2.3,Win32,58.77858109,,,,,,,,,,,0.7548,1,,,,,,,,,,,,,,z,1,0.7548,,,,,,,,0.298148184,-0.227777799,0,0,0,,0,149,149,128,1,GRIFT,LB,old,z,./images/GRIFTLB.png,,,,,,,,,,,,,,,,,,,,,
,,,,,,,,,,,,,,,,,200497,18,2022-01-29_17h32.01.360,lexical_decision_task_DD_L6,2021.2.3,Win32,58.77858109,,,,,,,,,,,0.8504,1,,,,,,,,,,,,,,m,1,0.8504,,,,,,,,0.298148184,-0.227777799,0,0,0,,0,150,150,45,1,MONKEY,LB,old,m,./images/MONKEYLB.png,,,,,,,,,,,,,,,,,,,,,
,,,,,,,,,,,,,,,,,200497,18,2022-01-29_17h32.01.360,lexical_decision_task_DD_L6,2021.2.3,Win32,58.77858109,,,,,,,,,,,0.8512,0,,,,,,,,,,,,,,m,0,0.8512,,,,,,,,0.298148184,-0.227777799,0,0,0,,0,151,151,121,1,CEERS,HB,old,z,./images/CEERSHB.png,,,,,,,,,,,,,,,,,,,,,
,,,,,,,,,,,,,,,,,200497,18,2022-01-29_17h32.01.360,lexical_decision_task_DD_L6,2021.2.3,Win32,58.77858109,,,,,,,,,,,0.9647,1,,,,,,,,,,,,,,z,1,0.9647,,,,,,,,0.298148184,-0.227777799,0,0,0,,0,152,152,153,1,CLUPS,C,old,z,./images/CLUPS.png,,,,,,,,,,,,,,,,,,,,,
,,,,,,,,,,,,,,,,,200497,18,2022-01-29_17h32.01.360,lexical_decision_task_DD_L6,2021.2.3,Win32,58.77858109,,,,,,,,,,,0.7492,1,,,,,,,,,,,,,,z,1,0.7492,,,,,,,,0.298148184,-0.227777799,0,0,0,,0,153,153,149,1,VEASE,LB,old,z,./images/VEASELB.png,,,,,,,,,,,,,,,,,,,,,
,,,,,,,,,,,,,,,,,200497,18,2022-01-29_17h32.01.360,lexical_decision_task_DD_L6,2021.2.3,Win32,58.77858109,,,,,,,,,,,0.6197,1,,,,,,,,,,,,,,m,1,0.6197,,,,,,,,0.298148184,-0.227777799,0,0,0,,0,154,154,35,1,LLAMA,HB,old,m,./images/LLAMAHB.png,,,,,,,,,,,,,,,,,,,,,
,,,,,,,,,,,,,,,,,200497,18,2022-01-29_17h32.01.360,lexical_decision_task_DD_L6,2021.2.3,Win32,58.77858109,,,,,,,,,,,1.2266,1,,,,,,,,,,,,,,z,1,1.2266,,,,,,,,0.298148184,-0.227777799,0,0,0,,0,155,155,94,1,BLANS,HB,old,z,./images/BLANSHB.png,,,,,,,,,,,,,,,,,,,,,
,,,,,,,,,,,,,,,,,200497,18,2022-01-29_17h32.01.360,lexical_decision_task_DD_L6,2021.2.3,Win32,58.77858109,,,,,,,,,,,0.8709,1,,,,,,,,,,,,,,z,1,0.8709,,,,,,,,0.298148184,-0.227777799,0,0,0,,0,156,156,124,1,TUNCH,HB,old,z,./images/TUNCHHB.png,,,,,,,,,,,,,,,,,,,,,
,,,,,,,,,,,,,,,,,200497,18,2022-01-29_17h32.01.360,lexical_decision_task_DD_L6,2021.2.3,Win32,58.77858109,,,,,,,,,,,0.7206,1,,,,,,,,,,,,,,z,1,0.7206,,,,,,,,0.298148184,-0.227777799,0,0,0,,0,157,157,104,1,GITTY,LB,old,z,./images/GITTYLB.png,,,,,,,,,,,,,,,,,,,,,
,,,,,,,,,,,,,,,,,200497,18,2022-01-29_17h32.01.360,lexical_decision_task_DD_L6,2021.2.3,Win32,58.77858109,,,,,,,,,,,0.7818,1,,,,,,,,,,,,,,z,1,0.7818,,,,,,,,0.298148184,-0.227777799,0,0,0,,0,158,158,120,1,RINED,C,old,z,./images/RINED.png,,,,,,,,,,,,,,,,,,,,,
,,,,,,,,,,,,,,,,,200497,18,2022-01-29_17h32.01.360,lexical_decision_task_DD_L6,2021.2.3,Win32,58.77858109,,,,,,,,,,,0.9093,1,,,,,,,,,,,,,,m,1,0.9093,,,,,,,,0.298148184,-0.227777799,0,0,0,,0,159,159,74,1,JUMPER,HB,old,m,./images/JUMPERHB.png,,,,,,,,,,,,,,,,,,,,,
,,,,,,,,,,,,,,,,,200497,18,2022-01-29_17h32.01.360,lexical_decision_task_DD_L6,2021.2.3,Win32,58.77858109,,,,,,,,,,,0.6866,1,,,,,,,,,,,,,,m,1,0.6866,,,,,,,,0.298148184,-0.227777799,0,0,0,,0,160,160,72,1,FLASK,LB,old,m,./images/FLASKLB.png,,,,,,,,,,,,,,,,,,,,,
,,,,,,,,,,,,,,,,,200497,18,2022-01-29_17h32.01.360,lexical_decision_task_DD_L6,2021.2.3,Win32,58.77858109,,,,,,,,,,,0.7799,1,,,,,,,,,,,,,,z,1,0.7799,,,,,,,,0.298148184,-0.227777799,0,0,0,,0,161,161,88,1,GLUSH,HB,old,z,./images/GLUSHHB.png,,,,,,,,,,,,,,,,,,,,,
,,,,,,,,,,,,,,,,,200497,18,2022-01-29_17h32.01.360,lexical_decision_task_DD_L6,2021.2.3,Win32,58.77858109,,,,,,,,,,,0.7013,1,,,,,,,,,,,,,,z,1,0.7013,,,,,,,,0.298148184,-0.227777799,0,0,0,,0,162,162,117,1,STEEG,C,old,z,./images/STEEG.png,,,,,,,,,,,,,,,,,,,,,
,,,,,,,,,,,,,,,,,200497,18,2022-01-29_17h32.01.360,lexical_decision_task_DD_L6,2021.2.3,Win32,58.77858109,,,,,,,,,,,0.8871,1,,,,,,,,,,,,,,m,1,0.8871,,,,,,,,0.298148184,-0.227777799,0,0,0,,0,163,163,2,1,STOVE,HB,old,m,./images/STOVEHB.png,,,,,,,,,,,,,,,,,,,,,
,,,,,,,,,,,,,,,,,200497,18,2022-01-29_17h32.01.360,lexical_decision_task_DD_L6,2021.2.3,Win32,58.77858109,,,,,,,,,,,0.5479,1,,,,,,,,,,,,,,m,1,0.5479,,,,,,,,0.298148184,-0.227777799,0,0,0,,0,164,164,42,1,CHAIN,LB,old,m,./images/CHAINLB.png,,,,,,,,,,,,,,,,,,,,,
,,,,,,,,,,,,,,,,,200497,18,2022-01-29_17h32.01.360,lexical_decision_task_DD_L6,2021.2.3,Win32,58.77858109,,,,,,,,,,,0.6768,0,,,,,,,,,,,,,,z,0,0.6768,,,,,,,,0.298148184,-0.227777799,0,0,0,,0,165,165,83,1,WHISKY,HB,old,m,./images/WHISKYHB.png,,,,,,,,,,,,,,,,,,,,,
,,,,,,,,,,,,,,,,,200497,18,2022-01-29_17h32.01.360,lexical_decision_task_DD_L6,2021.2.3,Win32,58.77858109,,,,,,,,,,,0.724,0,,,,,,,,,,,,,,m,0,0.724,,,,,,,,0.298148184,-0.227777799,0,0,0,,0,166,166,85,1,CHULK,HB,old,z,./images/CHULKHB.png,,,,,,,,,,,,,,,,,,,,,
,,,,,,,,,,,,,,,,,200497,18,2022-01-29_17h32.01.360,lexical_decision_task_DD_L6,2021.2.3,Win32,58.77858109,,,,,,,,,,,0.6725,1,,,,,,,,,,,,,,z,1,0.6725,,,,,,,,0.298148184,-0.227777799,0,0,0,,0,167,167,162,1,LEICH,C,old,z,./images/LEICH.png,,,,,,,,,,,,,,,,,,,,,
space,13.2062,0.298148184,-0.227777799,0,0,0,,,,,,1,test,"In the next phase you will be presented with the words from the the first phase. Your job is to decide whether you remember seeing the word or not. If you remember seeing the word press ""old"" or type ""m"". If you do not remember seeing the word press ""new"" or type ""z"". Please press the space bar or click on continue to begin. ",,,200497,18,2022-01-29_17h32.01.360,lexical_decision_task_DD_L6,2021.2.3,Win32,58.77858109,,,,,,,,,,,,,,,,,,,,,,,,,,,,,,,,,,,,,,,,,,,,,,,,,,,,,0,0,0,0,1,,,,,,,,,,,,,,,
space,1.591,0.298148184,-0.227777799,0,0,0,,,,,,1,test,"In the next phase you will be presented with the words from the the first phase. Your job is to decide whether you remember seeing the word or not. If you remember seeing the word press ""old"" or type ""m"". If you do not remember seeing the word press ""new"" or type ""z"". Please press the space bar or click on continue to begin. ",,,200497,18,2022-01-29_17h32.01.360,lexical_decision_task_DD_L6,2021.2.3,Win32,58.77858109,,,,,,,,,,,,,,,,,,,,,,,,,,,,,,,,,,,,,,,,,,,,,,,,,,,,,1,0,1,0,1,,,,,,,,,,,,,,,
space,0.9752,0.298148184,-0.227777799,0,0,0,,,,,,1,test,"In the next phase you will be presented with the words from the the first phase. Your job is to decide whether you remember seeing the word or not. If you remember seeing the word press ""old"" or type ""m"". If you do not remember seeing the word press ""new"" or type ""z"". Please press the space bar or click on continue to begin. ",,,200497,18,2022-01-29_17h32.01.360,lexical_decision_task_DD_L6,2021.2.3,Win32,58.77858109,,,,,,,,,,,,,,,,,,,,,,,,,,,,,,,,,,,,,,,,,,,,,,,,,,,,,2,0,2,0,1,,,,,,,,,,,,,,,
space,0.4455,0.298148184,-0.227777799,0,0,0,,,,,,1,test,"In the next phase you will be presented with the words from the the first phase. Your job is to decide whether you remember seeing the word or not. If you remember seeing the word press ""old"" or type ""m"". If you do not remember seeing the word press ""new"" or type ""z"". Please press the space bar or click on continue to begin. ",,,200497,18,2022-01-29_17h32.01.360,lexical_decision_task_DD_L6,2021.2.3,Win32,58.77858109,,,,,,,,,,,,,,,,,,,,,,,,,,,,,,,,,,,,,,,,,,,,,,,,,,,,,3,0,3,0,1,,,,,,,,,,,,,,,
space,0.2086,0.298148184,-0.227777799,0,0,0,,,,,,1,test,"In the next phase you will be presented with the words from the the first phase. Your job is to decide whether you remember seeing the word or not. If you remember seeing the word press ""old"" or type ""m"". If you do not remember seeing the word press ""new"" or type ""z"". Please press the space bar or click on continue to begin. ",,,200497,18,2022-01-29_17h32.01.360,lexical_decision_task_DD_L6,2021.2.3,Win32,58.77858109,,,,,,,,,,,,,,,,,,,,,,,,,,,,,,,,,,,,,,,,,,,,,,,,,,,,,4,0,4,0,1,,,,,,,,,,,,,,,
,,,,,,,,,,,,,,,,,200497,18,2022-01-29_17h32.01.360,lexical_decision_task_DD_L6,2021.2.3,Win32,58.77858109,,,,,,,,,,,5.1972,1,,,,,,,,,,,,,,,,,,,,,,,,0.298148184,-0.227777799,0,0,0,,,,,,,SLOPE,LB,m,y,./images/SLOPELB.png,,,,,,,m,1,5.1972,,,,,,,,0,0,0,30,1
,,,,,,,,,,,,,,,,,200497,18,2022-01-29_17h32.01.360,lexical_decision_task_DD_L6,2021.2.3,Win32,58.77858109,,,,,,,,,,,2.2278,1,,,,,,,,,,,,,,,,,,,,,,,,0.298148184,-0.227777799,0,0,0,,,,,,,COLLAR,LB,m,y,./images/COLLARLB.png,,,,,,,m,1,2.2278,,,,,,,,0,1,1,15,1
,,,,,,,,,,,,,,,,,200497,18,2022-01-29_17h32.01.360,lexical_decision_task_DD_L6,2021.2.3,Win32,58.77858109,,,,,,,,,,,0.83,1,,,,,,,,,,,,,,,,,,,,,,,,0.298148184,-0.227777799,0,0,0,,,,,,,RULER,C,m,y,./images/RULER.png,,,,,,,m,1,0.83,,,,,,,,0,2,2,79,1
,,,,,,,,,,,,,,,,,200497,18,2022-01-29_17h32.01.360,lexical_decision_task_DD_L6,2021.2.3,Win32,58.77858109,,,,,,,,,,,0.7231,1,,,,,,,,,,,,,,,,,,,,,,,,0.298148184,-0.227777799,0,0,0,,,,,,,GRANNY,HB,m,y,./images/GRANNYHB.png,,,,,,,m,1,0.7231,,,,,,,,0,3,3,20,1
,,,,,,,,,,,,,,,,,200497,18,2022-01-29_17h32.01.360,lexical_decision_task_DD_L6,2021.2.3,Win32,58.77858109,,,,,,,,,,,0.6721,1,,,,,,,,,,,,,,,,,,,,,,,,0.298148184,-0.227777799,0,0,0,,,,,,,BURIAL,HB,z,y,./images/BURIALHB.png,,,,,,,z,1,0.6721,,,,,,,,0,4,4,143,1
,,,,,,,,,,,,,,,,,200497,18,2022-01-29_17h32.01.360,lexical_decision_task_DD_L6,2021.2.3,Win32,58.77858109,,,,,,,,,,,0.752,1,,,,,,,,,,,,,,,,,,,,,,,,0.298148184,-0.227777799,0,0,0,,,,,,,MEDAL,HB,m,y,./images/MEDALHB.png,,,,,,,m,1,0.752,,,,,,,,0,5,5,11,1
,,,,,,,,,,,,,,,,,200497,18,2022-01-29_17h32.01.360,lexical_decision_task_DD_L6,2021.2.3,Win32,58.77858109,,,,,,,,,,,0.814,1,,,,,,,,,,,,,,,,,,,,,,,,0.298148184,-0.227777799,0,0,0,,,,,,,BOXER,C,m,y,./images/BOXER.png,,,,,,,m,1,0.814,,,,,,,,0,6,6,4,1
,,,,,,,,,,,,,,,,,200497,18,2022-01-29_17h32.01.360,lexical_decision_task_DD_L6,2021.2.3,Win32,58.77858109,,,,,,,,,,,0.7687,1,,,,,,,,,,,,,,,,,,,,,,,,0.298148184,-0.227777799,0,0,0,,,,,,,KITTEN,LB,z,y,./images/KITTENLB.png,,,,,,,z,1,0.7687,,,,,,,,0,7,7,129,1
,,,,,,,,,,,,,,,,,200497,18,2022-01-29_17h32.01.360,lexical_decision_task_DD_L6,2021.2.3,Win32,58.77858109,,,,,,,,,,,1.5879,1,,,,,,,,,,,,,,,,,,,,,,,,0.298148184,-0.227777799,0,0,0,,,,,,,LAGOON,HB,m,y,./images/LAGOONHB.png,,,,,,,m,1,1.5879,,,,,,,,0,8,8,47,1
,,,,,,,,,,,,,,,,,200497,18,2022-01-29_17h32.01.360,lexical_decision_task_DD_L6,2021.2.3,Win32,58.77858109,,,,,,,,,,,0.8187,1,,,,,,,,,,,,,,,,,,,,,,,,0.298148184,-0.227777799,0,0,0,,,,,,,SHORE,LB,z,y,./images/SHORELB.png,,,,,,,z,1,0.8187,,,,,,,,0,9,9,96,1
,,,,,,,,,,,,,,,,,200497,18,2022-01-29_17h32.01.360,lexical_decision_task_DD_L6,2021.2.3,Win32,58.77858109,,,,,,,,,,,0.6956,1,,,,,,,,,,,,,,,,,,,,,,,,0.298148184,-0.227777799,0,0,0,,,,,,,CURRY,LB,m,y,./images/CURRYLB.png,,,,,,,m,1,0.6956,,,,,,,,0,10,10,60,1
,,,,,,,,,,,,,,,,,200497,18,2022-01-29_17h32.01.360,lexical_decision_task_DD_L6,2021.2.3,Win32,58.77858109,,,,,,,,,,,0.6288,1,,,,,,,,,,,,,,,,,,,,,,,,0.298148184,-0.227777799,0,0,0,,,,,,,MUFFIN,C,z,y,./images/MUFFIN.png,,,,,,,z,1,0.6288,,,,,,,,0,11,11,139,1
,,,,,,,,,,,,,,,,,200497,18,2022-01-29_17h32.01.360,lexical_decision_task_DD_L6,2021.2.3,Win32,58.77858109,,,,,,,,,,,0.7719,1,,,,,,,,,,,,,,,,,,,,,,,,0.298148184,-0.227777799,0,0,0,,,,,,,PLANET,HB,m,y,./images/PLANETHB.png,,,,,,,m,1,0.7719,,,,,,,,0,12,12,80,1
,,,,,,,,,,,,,,,,,200497,18,2022-01-29_17h32.01.360,lexical_decision_task_DD_L6,2021.2.3,Win32,58.77858109,,,,,,,,,,,0.6483,1,,,,,,,,,,,,,,,,,,,,,,,,0.298148184,-0.227777799,0,0,0,,,,,,,URINE,C,z,y,./images/URINE.png,,,,,,,z,1,0.6483,,,,,,,,0,13,13,154,1
,,,,,,,,,,,,,,,,,200497,18,2022-01-29_17h32.01.360,lexical_decision_task_DD_L6,2021.2.3,Win32,58.77858109,,,,,,,,,,,0.7595,1,,,,,,,,,,,,,,,,,,,,,,,,0.298148184,-0.227777799,0,0,0,,,,,,,CLIFF,HB,m,y,./images/CLIFFHB.png,,,,,,,m,1,0.7595,,,,,,,,0,14,14,8,1
,,,,,,,,,,,,,,,,,200497,18,2022-01-29_17h32.01.360,lexical_decision_task_DD_L6,2021.2.3,Win32,58.77858109,,,,,,,,,,,1.5089,1,,,,,,,,,,,,,,,,,,,,,,,,0.298148184,-0.227777799,0,0,0,,,,,,,PEARL,C,z,y,./images/PEARL.png,,,,,,,z,1,1.5089,,,,,,,,0,15,15,130,1
,,,,,,,,,,,,,,,,,200497,18,2022-01-29_17h32.01.360,lexical_decision_task_DD_L6,2021.2.3,Win32,58.77858109,,,,,,,,,,,0.4315,1,,,,,,,,,,,,,,,,,,,,,,,,0.298148184,-0.227777799,0,0,0,,,,,,,VALLEY,HB,m,y,./images/VALLEYHB.png,,,,,,,m,1,0.4315,,,,,,,,0,16,16,68,1
,,,,,,,,,,,,,,,,,200497,18,2022-01-29_17h32.01.360,lexical_decision_task_DD_L6,2021.2.3,Win32,58.77858109,,,,,,,,,,,0.8118,0,,,,,,,,,,,,,,,,,,,,,,,,0.298148184,-0.227777799,0,0,0,,,,,,,BONNET,HB,z,y,./images/BONNETHB.png,,,,,,,m,0,0.8118,,,,,,,,0,17,17,95,1
,,,,,,,,,,,,,,,,,200497,18,2022-01-29_17h32.01.360,lexical_decision_task_DD_L6,2021.2.3,Win32,58.77858109,,,,,,,,,,,0.5521,0,,,,,,,,,,,,,,,,,,,,,,,,0.298148184,-0.227777799,0,0,0,,,,,,,CRUMB,HB,z,y,./images/CRUMBHB.png,,,,,,,m,0,0.5521,,,,,,,,0,18,18,113,1
,,,,,,,,,,,,,,,,,200497,18,2022-01-29_17h32.01.360,lexical_decision_task_DD_L6,2021.2.3,Win32,58.77858109,,,,,,,,,,,1.044,1,,,,,,,,,,,,,,,,,,,,,,,,0.298148184,-0.227777799,0,0,0,,,,,,,BROOM,LB,m,y,./images/BROOMLB.png,,,,,,,m,1,1.044,,,,,,,,0,19,19,78,1
,,,,,,,,,,,,,,,,,200497,18,2022-01-29_17h32.01.360,lexical_decision_task_DD_L6,2021.2.3,Win32,58.77858109,,,,,,,,,,,0.6558,1,,,,,,,,,,,,,,,,,,,,,,,,0.298148184,-0.227777799,0,0,0,,,,,,,SCREW,LB,z,y,./images/SCREWLB.png,,,,,,,z,1,0.6558,,,,,,,,0,20,20,108,1
,,,,,,,,,,,,,,,,,200497,18,2022-01-29_17h32.01.360,lexical_decision_task_DD_L6,2021.2.3,Win32,58.77858109,,,,,,,,,,,0.7865,0,,,,,,,,,,,,,,,,,,,,,,,,0.298148184,-0.227777799,0,0,0,,,,,,,STORM,LB,z,y,./images/STORMLB.png,,,,,,,m,0,0.7865,,,,,,,,0,21,21,114,1
,,,,,,,,,,,,,,,,,200497,18,2022-01-29_17h32.01.360,lexical_decision_task_DD_L6,2021.2.3,Win32,58.77858109,,,,,,,,,,,0.7811,1,,,,,,,,,,,,,,,,,,,,,,,,0.298148184,-0.227777799,0,0,0,,,,,,,QUILL,C,z,y,./images/QUILL.png,,,,,,,z,1,0.7811,,,,,,,,0,22,22,115,1
,,,,,,,,,,,,,,,,,200497,18,2022-01-29_17h32.01.360,lexical_decision_task_DD_L6,2021.2.3,Win32,58.77858109,,,,,,,,,,,0.6532,1,,,,,,,,,,,,,,,,,,,,,,,,0.298148184,-0.227777799,0,0,0,,,,,,,HAMMER,LB,m,y,./images/HAMMERLB.png,,,,,,,m,1,0.6532,,,,,,,,0,23,23,75,1
,,,,,,,,,,,,,,,,,200497,18,2022-01-29_17h32.01.360,lexical_decision_task_DD_L6,2021.2.3,Win32,58.77858109,,,,,,,,,,,0.9146,1,,,,,,,,,,,,,,,,,,,,,,,,0.298148184,-0.227777799,0,0,0,,,,,,,PEACH,HB,z,y,./images/PEACHHB.png,,,,,,,z,1,0.9146,,,,,,,,0,24,24,119,1
,,,,,,,,,,,,,,,,,200497,18,2022-01-29_17h32.01.360,lexical_decision_task_DD_L6,2021.2.3,Win32,58.77858109,,,,,,,,,,,1.3276,1,,,,,,,,,,,,,,,,,,,,,,,,0.298148184,-0.227777799,0,0,0,,,,,,,THROAT,LB,z,y,./images/THROATLB.png,,,,,,,z,1,1.3276,,,,,,,,0,25,25,120,1
,,,,,,,,,,,,,,,,,200497,18,2022-01-29_17h32.01.360,lexical_decision_task_DD_L6,2021.2.3,Win32,58.77858109,,,,,,,,,,,0.957,1,,,,,,,,,,,,,,,,,,,,,,,,0.298148184,-0.227777799,0,0,0,,,,,,,JUMPER,HB,m,y,./images/JUMPERHB.png,,,,,,,m,1,0.957,,,,,,,,0,26,26,74,1
,,,,,,,,,,,,,,,,,200497,18,2022-01-29_17h32.01.360,lexical_decision_task_DD_L6,2021.2.3,Win32,58.77858109,,,,,,,,,,,0.761,1,,,,,,,,,,,,,,,,,,,,,,,,0.298148184,-0.227777799,0,0,0,,,,,,,FARMER,HB,z,y,./images/FARMERHB.png,,,,,,,z,1,0.761,,,,,,,,0,27,27,149,1
,,,,,,,,,,,,,,,,,200497,18,2022-01-29_17h32.01.360,lexical_decision_task_DD_L6,2021.2.3,Win32,58.77858109,,,,,,,,,,,0.6372,0,,,,,,,,,,,,,,,,,,,,,,,,0.298148184,-0.227777799,0,0,0,,,,,,,SNACK,C,z,y,./images/SNACK.png,,,,,,,m,0,0.6372,,,,,,,,0,28,28,157,1
,,,,,,,,,,,,,,,,,200497,18,2022-01-29_17h32.01.360,lexical_decision_task_DD_L6,2021.2.3,Win32,58.77858109,,,,,,,,,,,1.1741,1,,,,,,,,,,,,,,,,,,,,,,,,0.298148184,-0.227777799,0,0,0,,,,,,,CEMENT,HB,z,y,./images/CEMENTHB.png,,,,,,,z,1,1.1741,,,,,,,,0,29,29,158,1
,,,,,,,,,,,,,,,,,200497,18,2022-01-29_17h32.01.360,lexical_decision_task_DD_L6,2021.2.3,Win32,58.77858109,,,,,,,,,,,0.8886,1,,,,,,,,,,,,,,,,,,,,,,,,0.298148184,-0.227777799,0,0,0,,,,,,,POKER,C,m,y,./images/POKER.png,,,,,,,m,1,0.8886,,,,,,,,0,30,30,67,1
,,,,,,,,,,,,,,,,,200497,18,2022-01-29_17h32.01.360,lexical_decision_task_DD_L6,2021.2.3,Win32,58.77858109,,,,,,,,,,,0.9728,1,,,,,,,,,,,,,,,,,,,,,,,,0.298148184,-0.227777799,0,0,0,,,,,,,RHINO,LB,z,y,./images/RHINOLB.png,,,,,,,z,1,0.9728,,,,,,,,0,31,31,93,1
,,,,,,,,,,,,,,,,,200497,18,2022-01-29_17h32.01.360,lexical_decision_task_DD_L6,2021.2.3,Win32,58.77858109,,,,,,,,,,,2.3399,0,,,,,,,,,,,,,,,,,,,,,,,,0.298148184,-0.227777799,0,0,0,,,,,,,COUCH,HB,z,y,./images/COUCHHB.png,,,,,,,m,0,2.3399,,,,,,,,0,32,32,161,1
,,,,,,,,,,,,,,,,,200497,18,2022-01-29_17h32.01.360,lexical_decision_task_DD_L6,2021.2.3,Win32,58.77858109,,,,,,,,,,,1.2731,0,,,,,,,,,,,,,,,,,,,,,,,,0.298148184,-0.227777799,0,0,0,,,,,,,ENGINE,HB,m,y,./images/ENGINEHB.png,,,,,,,z,0,1.2731,,,,,,,,0,33,33,38,1
,,,,,,,,,,,,,,,,,200497,18,2022-01-29_17h32.01.360,lexical_decision_task_DD_L6,2021.2.3,Win32,58.77858109,,,,,,,,,,,4.3878,0,,,,,,,,,,,,,,,,,,,,,,,,0.298148184,-0.227777799,0,0,0,,,,,,,WALNUT,LB,m,y,./images/WALNUTLB.png,,,,,,,z,0,4.3878,,,,,,,,0,34,34,0,1
,,,,,,,,,,,,,,,,,200497,18,2022-01-29_17h32.01.360,lexical_decision_task_DD_L6,2021.2.3,Win32,58.77858109,,,,,,,,,,,0.692,1,,,,,,,,,,,,,,,,,,,,,,,,0.298148184,-0.227777799,0,0,0,,,,,,,ALLEY,C,m,y,./images/ALLEY.png,,,,,,,m,1,0.692,,,,,,,,0,35,35,55,1
,,,,,,,,,,,,,,,,,200497,18,2022-01-29_17h32.01.360,lexical_decision_task_DD_L6,2021.2.3,Win32,58.77858109,,,,,,,,,,,1.0672,1,,,,,,,,,,,,,,,,,,,,,,,,0.298148184,-0.227777799,0,0,0,,,,,,,HOCKEY,HB,m,y,./images/HOCKEYHB.png,,,,,,,m,1,1.0672,,,,,,,,0,36,36,32,1
,,,,,,,,,,,,,,,,,200497,18,2022-01-29_17h32.01.360,lexical_decision_task_DD_L6,2021.2.3,Win32,58.77858109,,,,,,,,,,,0.8767,0,,,,,,,,,,,,,,,,,,,,,,,,0.298148184,-0.227777799,0,0,0,,,,,,,PEBBLE,C,m,y,./images/PEBBLE.png,,,,,,,z,0,0.8767,,,,,,,,0,37,37,82,1
,,,,,,,,,,,,,,,,,200497,18,2022-01-29_17h32.01.360,lexical_decision_task_DD_L6,2021.2.3,Win32,58.77858109,,,,,,,,,,,1.8425,1,,,,,,,,,,,,,,,,,,,,,,,,0.298148184,-0.227777799,0,0,0,,,,,,,GREASE,LB,z,y,./images/GREASELB.png,,,,,,,z,1,1.8425,,,,,,,,0,38,38,99,1
,,,,,,,,,,,,,,,,,200497,18,2022-01-29_17h32.01.360,lexical_decision_task_DD_L6,2021.2.3,Win32,58.77858109,,,,,,,,,,,1.3044,1,,,,,,,,,,,,,,,,,,,,,,,,0.298148184,-0.227777799,0,0,0,,,,,,,CANYON,C,z,y,./images/CANYON.png,,,,,,,z,1,1.3044,,,,,,,,0,39,39,118,1
,,,,,,,,,,,,,,,,,200497,18,2022-01-29_17h32.01.360,lexical_decision_task_DD_L6,2021.2.3,Win32,58.77858109,,,,,,,,,,,0.797,1,,,,,,,,,,,,,,,,,,,,,,,,0.298148184,-0.227777799,0,0,0,,,,,,,MUMMY,C,m,y,./images/MUMMY.png,,,,,,,m,1,0.797,,,,,,,,0,40,40,46,1
,,,,,,,,,,,,,,,,,200497,18,2022-01-29_17h32.01.360,lexical_decision_task_DD_L6,2021.2.3,Win32,58.77858109,,,,,,,,,,,0.9279,0,,,,,,,,,,,,,,,,,,,,,,,,0.298148184,-0.227777799,0,0,0,space,,,,,,BUNNY,C,m,y,./images/BUNNY.png,11.0378,,,,,,z,0,0.9279,,,,,,,,0,41,41,13,1
,,,,,,,,,,,,,,,,,200497,18,2022-01-29_17h32.01.360,lexical_decision_task_DD_L6,2021.2.3,Win32,58.77858109,,,,,,,,,,,0.974,1,,,,,,,,,,,,,,,,,,,,,,,,0.298148184,-0.227777799,0,0,0,,,,,,,GRAPE,C,m,y,./images/GRAPE.png,,,,,,,m,1,0.974,,,,,,,,0,42,42,16,1
,,,,,,,,,,,,,,,,,200497,18,2022-01-29_17h32.01.360,lexical_decision_task_DD_L6,2021.2.3,Win32,58.77858109,,,,,,,,,,,0.7069,1,,,,,,,,,,,,,,,,,,,,,,,,0.298148184,-0.227777799,0,0,0,,,,,,,INFANT,C,z,y,./images/INFANT.png,,,,,,,z,1,0.7069,,,,,,,,0,43,43,160,1
,,,,,,,,,,,,,,,,,200497,18,2022-01-29_17h32.01.360,lexical_decision_task_DD_L6,2021.2.3,Win32,58.77858109,,,,,,,,,,,0.8298,1,,,,,,,,,,,,,,,,,,,,,,,,0.298148184,-0.227777799,0,0,0,,,,,,,DOUGH,C,z,y,./images/DOUGH.png,,,,,,,z,1,0.8298,,,,,,,,0,44,44,103,1
,,,,,,,,,,,,,,,,,200497,18,2022-01-29_17h32.01.360,lexical_decision_task_DD_L6,2021.2.3,Win32,58.77858109,,,,,,,,,,,0.8695,1,,,,,,,,,,,,,,,,,,,,,,,,0.298148184,-0.227777799,0,0,0,,,,,,,FENCE,HB,m,y,./images/FENCEHB.png,,,,,,,m,1,0.8695,,,,,,,,0,45,45,14,1
,,,,,,,,,,,,,,,,,200497,18,2022-01-29_17h32.01.360,lexical_decision_task_DD_L6,2021.2.3,Win32,58.77858109,,,,,,,,,,,0.8728,1,,,,,,,,,,,,,,,,,,,,,,,,0.298148184,-0.227777799,0,0,0,,,,,,,STREAM,HB,m,y,./images/STREAMHB.png,,,,,,,m,1,0.8728,,,,,,,,0,46,46,41,1
,,,,,,,,,,,,,,,,,200497,18,2022-01-29_17h32.01.360,lexical_decision_task_DD_L6,2021.2.3,Win32,58.77858109,,,,,,,,,,,1.0621,1,,,,,,,,,,,,,,,,,,,,,,,,0.298148184,-0.227777799,0,0,0,,,,,,,BARREL,HB,z,y,./images/BARRELHB.png,,,,,,,z,1,1.0621,,,,,,,,0,47,47,116,1
,,,,,,,,,,,,,,,,,200497,18,2022-01-29_17h32.01.360,lexical_decision_task_DD_L6,2021.2.3,Win32,58.77858109,,,,,,,,,,,0.7439,1,,,,,,,,,,,,,,,,,,,,,,,,0.298148184,-0.227777799,0,0,0,,,,,,,MONKEY,LB,m,y,./images/MONKEYLB.png,,,,,,,m,1,0.7439,,,,,,,,0,48,48,45,1
,,,,,,,,,,,,,,,,,200497,18,2022-01-29_17h32.01.360,lexical_decision_task_DD_L6,2021.2.3,Win32,58.77858109,,,,,,,,,,,3.8247,1,,,,,,,,,,,,,,,,,,,,,,,,0.298148184,-0.227777799,0,0,0,,,,,,,CARPET,HB,z,y,./images/CARPETHB.png,,,,,,,z,1,3.8247,,,,,,,,0,49,49,137,1
,,,,,,,,,,,,,,,,,200497,18,2022-01-29_17h32.01.360,lexical_decision_task_DD_L6,2021.2.3,Win32,58.77858109,,,,,,,,,,,0.6194,0,,,,,,,,,,,,,,,,,,,,,,,,0.298148184,-0.227777799,0,0,0,,,,,,,CRATER,LB,m,y,./images/CRATERLB.png,,,,,,,z,0,0.6194,,,,,,,,0,50,50,3,1
,,,,,,,,,,,,,,,,,200497,18,2022-01-29_17h32.01.360,lexical_decision_task_DD_L6,2021.2.3,Win32,58.77858109,,,,,,,,,,,0.6396,1,,,,,,,,,,,,,,,,,,,,,,,,0.298148184,-0.227777799,0,0,0,,,,,,,DANCER,LB,m,y,./images/DANCERLB.png,,,,,,,m,1,0.6396,,,,,,,,0,51,51,21,1
,,,,,,,,,,,,,,,,,200497,18,2022-01-29_17h32.01.360,lexical_decision_task_DD_L6,2021.2.3,Win32,58.77858109,,,,,,,,,,,0.8897,0,,,,,,,,,,,,,,,,,,,,,,,,0.298148184,-0.227777799,0,0,0,,,,,,,BEARD,HB,z,y,./images/BEARDHB.png,,,,,,,m,0,0.8897,,,,,,,,0,52,52,86,1
,,,,,,,,,,,,,,,,,200497,18,2022-01-29_17h32.01.360,lexical_decision_task_DD_L6,2021.2.3,Win32,58.77858109,,,,,,,,,,,0.7372,1,,,,,,,,,,,,,,,,,,,,,,,,0.298148184,-0.227777799,0,0,0,,,,,,,SHIELD,LB,m,y,./images/SHIELDLB.png,,,,,,,m,1,0.7372,,,,,,,,0,53,53,48,1
,,,,,,,,,,,,,,,,,200497,18,2022-01-29_17h32.01.360,lexical_decision_task_DD_L6,2021.2.3,Win32,58.77858109,,,,,,,,,,,0.7407,1,,,,,,,,,,,,,,,,,,,,,,,,0.298148184,-0.227777799,0,0,0,,,,,,,BLOKE,LB,m,y,./images/BLOKELB.png,,,,,,,m,1,0.7407,,,,,,,,0,54,54,12,1
,,,,,,,,,,,,,,,,,200497,18,2022-01-29_17h32.01.360,lexical_decision_task_DD_L6,2021.2.3,Win32,58.77858109,,,,,,,,,,,1.6666,1,,,,,,,,,,,,,,,,,,,,,,,,0.298148184,-0.227777799,0,0,0,,,,,,,CANOE,C,m,y,./images/CANOE.png,,,,,,,m,1,1.6666,,,,,,,,0,55,55,58,1
,,,,,,,,,,,,,,,,,200497,18,2022-01-29_17h32.01.360,lexical_decision_task_DD_L6,2021.2.3,Win32,58.77858109,,,,,,,,,,,1.993,1,,,,,,,,,,,,,,,,,,,,,,,,0.298148184,-0.227777799,0,0,0,,,,,,,BUBBLE,HB,m,y,./images/BUBBLEHB.png,,,,,,,m,1,1.993,,,,,,,,0,56,56,71,1
,,,,,,,,,,,,,,,,,200497,18,2022-01-29_17h32.01.360,lexical_decision_task_DD_L6,2021.2.3,Win32,58.77858109,,,,,,,,,,,0.6829,1,,,,,,,,,,,,,,,,,,,,,,,,0.298148184,-0.227777799,0,0,0,,,,,,,PICKLE,HB,z,y,./images/PICKLEHB.png,,,,,,,z,1,0.6829,,,,,,,,0,57,57,98,1
,,,,,,,,,,,,,,,,,200497,18,2022-01-29_17h32.01.360,lexical_decision_task_DD_L6,2021.2.3,Win32,58.77858109,,,,,,,,,,,0.7213,0,,,,,,,,,,,,,,,,,,,,,,,,0.298148184,-0.227777799,0,0,0,,,,,,,WALRUS,HB,z,y,./images/WALRUSHB.png,,,,,,,m,0,0.7213,,,,,,,,0,58,58,107,1
,,,,,,,,,,,,,,,,,200497,18,2022-01-29_17h32.01.360,lexical_decision_task_DD_L6,2021.2.3,Win32,58.77858109,,,,,,,,,,,0.7897,1,,,,,,,,,,,,,,,,,,,,,,,,0.298148184,-0.227777799,0,0,0,,,,,,,BANNER,C,z,y,./images/BANNER.png,,,,,,,z,1,0.7897,,,,,,,,0,59,59,136,1
,,,,,,,,,,,,,,,,,200497,18,2022-01-29_17h32.01.360,lexical_decision_task_DD_L6,2021.2.3,Win32,58.77858109,,,,,,,,,,,1.1272,1,,,,,,,,,,,,,,,,,,,,,,,,0.298148184,-0.227777799,0,0,0,,,,,,,BANANA,C,m,y,./images/BANANA.png,,,,,,,m,1,1.1272,,,,,,,,0,60,60,70,1
,,,,,,,,,,,,,,,,,200497,18,2022-01-29_17h32.01.360,lexical_decision_task_DD_L6,2021.2.3,Win32,58.77858109,,,,,,,,,,,3.5938,1,,,,,,,,,,,,,,,,,,,,,,,,0.298148184,-0.227777799,0,0,0,,,,,,,COOKER,LB,z,y,./images/COOKERLB.png,,,,,,,z,1,3.5938,,,,,,,,0,61,61,153,1
,,,,,,,,,,,,,,,,,200497,18,2022-01-29_17h32.01.360,lexical_decision_task_DD_L6,2021.2.3,Win32,58.77858109,,,,,,,,,,,1.5311,0,,,,,,,,,,,,,,,,,,,,,,,,0.298148184,-0.227777799,0,0,0,,,,,,,SQUARE,LB,z,y,./images/SQUARELB.png,,,,,,,m,0,1.5311,,,,,,,,0,62,62,90,1
,,,,,,,,,,,,,,,,,200497,18,2022-01-29_17h32.01.360,lexical_decision_task_DD_L6,2021.2.3,Win32,58.77858109,,,,,,,,,,,0.8614,1,,,,,,,,,,,,,,,,,,,,,,,,0.298148184,-0.227777799,0,0,0,,,,,,,GARDEN,C,m,y,./images/GARDEN.png,,,,,,,m,1,0.8614,,,,,,,,0,63,63,10,1
,,,,,,,,,,,,,,,,,200497,18,2022-01-29_17h32.01.360,lexical_decision_task_DD_L6,2021.2.3,Win32,58.77858109,,,,,,,,,,,0.6472,1,,,,,,,,,,,,,,,,,,,,,,,,0.298148184,-0.227777799,0,0,0,,,,,,,LLAMA,HB,m,y,./images/LLAMAHB.png,,,,,,,m,1,0.6472,,,,,,,,0,64,64,35,1
,,,,,,,,,,,,,,,,,200497,18,2022-01-29_17h32.01.360,lexical_decision_task_DD_L6,2021.2.3,Win32,58.77858109,,,,,,,,,,,1.6991,1,,,,,,,,,,,,,,,,,,,,,,,,0.298148184,-0.227777799,0,0,0,,,,,,,KIDNEY,LB,z,y,./images/KIDNEYLB.png,,,,,,,z,1,1.6991,,,,,,,,0,65,65,105,1
,,,,,,,,,,,,,,,,,200497,18,2022-01-29_17h32.01.360,lexical_decision_task_DD_L6,2021.2.3,Win32,58.77858109,,,,,,,,,,,1.0286,1,,,,,,,,,,,,,,,,,,,,,,,,0.298148184,-0.227777799,0,0,0,,,,,,,CHAIN,LB,m,y,./images/CHAINLB.png,,,,,,,m,1,1.0286,,,,,,,,0,66,66,42,1
,,,,,,,,,,,,,,,,,200497,18,2022-01-29_17h32.01.360,lexical_decision_task_DD_L6,2021.2.3,Win32,58.77858109,,,,,,,,,,,1.0575,1,,,,,,,,,,,,,,,,,,,,,,,,0.298148184,-0.227777799,0,0,0,,,,,,,STAIN,LB,m,y,./images/STAINLB.png,,,,,,,m,1,1.0575,,,,,,,,0,67,67,6,1
,,,,,,,,,,,,,,,,,200497,18,2022-01-29_17h32.01.360,lexical_decision_task_DD_L6,2021.2.3,Win32,58.77858109,,,,,,,,,,,1.1636,1,,,,,,,,,,,,,,,,,,,,,,,,0.298148184,-0.227777799,0,0,0,,,,,,,PENCE,C,z,y,./images/PENCE.png,,,,,,,z,1,1.1636,,,,,,,,0,68,68,100,1
,,,,,,,,,,,,,,,,,200497,18,2022-01-29_17h32.01.360,lexical_decision_task_DD_L6,2021.2.3,Win32,58.77858109,,,,,,,,,,,1.2378,0,,,,,,,,,,,,,,,,,,,,,,,,0.298148184,-0.227777799,0,0,0,,,,,,,LADDER,HB,z,y,./images/LADDERHB.png,,,,,,,m,0,1.2378,,,,,,,,0,69,69,122,1
,,,,,,,,,,,,,,,,,200497,18,2022-01-29_17h32.01.360,lexical_decision_task_DD_L6,2021.2.3,Win32,58.77858109,,,,,,,,,,,1.356,1,,,,,,,,,,,,,,,,,,,,,,,,0.298148184,-0.227777799,0,0,0,,,,,,,ATTIC,LB,z,y,./images/ATTICLB.png,,,,,,,z,1,1.356,,,,,,,,0,70,70,111,1
,,,,,,,,,,,,,,,,,200497,18,2022-01-29_17h32.01.360,lexical_decision_task_DD_L6,2021.2.3,Win32,58.77858109,,,,,,,,,,,1.9666,1,,,,,,,,,,,,,,,,,,,,,,,,0.298148184,-0.227777799,0,0,0,,,,,,,MALLET,HB,z,y,./images/MALLETHB.png,,,,,,,z,1,1.9666,,,,,,,,0,71,71,134,1
,,,,,,,,,,,,,,,,,200497,18,2022-01-29_17h32.01.360,lexical_decision_task_DD_L6,2021.2.3,Win32,58.77858109,,,,,,,,,,,0.9653,1,,,,,,,,,,,,,,,,,,,,,,,,0.298148184,-0.227777799,0,0,0,,,,,,,BABOON,C,z,y,./images/BABOON.png,,,,,,,z,1,0.9653,,,,,,,,0,72,72,142,1
,,,,,,,,,,,,,,,,,200497,18,2022-01-29_17h32.01.360,lexical_decision_task_DD_L6,2021.2.3,Win32,58.77858109,,,,,,,,,,,1.9945,1,,,,,,,,,,,,,,,,,,,,,,,,0.298148184,-0.227777799,0,0,0,,,,,,,PLANK,C,z,y,./images/PLANK.png,,,,,,,z,1,1.9945,,,,,,,,0,73,73,85,1
,,,,,,,,,,,,,,,,,200497,18,2022-01-29_17h32.01.360,lexical_decision_task_DD_L6,2021.2.3,Win32,58.77858109,,,,,,,,,,,1.1608,1,,,,,,,,,,,,,,,,,,,,,,,,0.298148184,-0.227777799,0,0,0,,,,,,,BELLY,C,z,y,./images/BELLY.png,,,,,,,z,1,1.1608,,,,,,,,0,74,74,94,1
,,,,,,,,,,,,,,,,,200497,18,2022-01-29_17h32.01.360,lexical_decision_task_DD_L6,2021.2.3,Win32,58.77858109,,,,,,,,,,,0.6921,0,,,,,,,,,,,,,,,,,,,,,,,,0.298148184,-0.227777799,0,0,0,,,,,,,FLASK,LB,m,y,./images/FLASKLB.png,,,,,,,z,0,0.6921,,,,,,,,0,75,75,72,1
,,,,,,,,,,,,,,,,,200497,18,2022-01-29_17h32.01.360,lexical_decision_task_DD_L6,2021.2.3,Win32,58.77858109,,,,,,,,,,,0.7869,1,,,,,,,,,,,,,,,,,,,,,,,,0.298148184,-0.227777799,0,0,0,,,,,,,TWINS,LB,z,y,./images/TWINSLB.png,,,,,,,z,1,0.7869,,,,,,,,0,76,76,144,1
,,,,,,,,,,,,,,,,,200497,18,2022-01-29_17h32.01.360,lexical_decision_task_DD_L6,2021.2.3,Win32,58.77858109,,,,,,,,,,,1.3002,1,,,,,,,,,,,,,,,,,,,,,,,,0.298148184,-0.227777799,0,0,0,,,,,,,PASTA,HB,z,y,./images/PASTAHB.png,,,,,,,z,1,1.3002,,,,,,,,0,77,77,89,1
,,,,,,,,,,,,,,,,,200497,18,2022-01-29_17h32.01.360,lexical_decision_task_DD_L6,2021.2.3,Win32,58.77858109,,,,,,,,,,,0.5807,1,,,,,,,,,,,,,,,,,,,,,,,,0.298148184,-0.227777799,0,0,0,,,,,,,MOTOR,C,z,y,./images/MOTOR.png,,,,,,,z,1,0.5807,,,,,,,,0,78,78,97,1
,,,,,,,,,,,,,,,,,200497,18,2022-01-29_17h32.01.360,lexical_decision_task_DD_L6,2021.2.3,Win32,58.77858109,,,,,,,,,,,1.1367,1,,,,,,,,,,,,,,,,,,,,,,,,0.298148184,-0.227777799,0,0,0,,,,,,,PACKET,HB,z,y,./images/PACKETHB.png,,,,,,,z,1,1.1367,,,,,,,,0,79,79,140,1
,,,,,,,,,,,,,,,,,200497,18,2022-01-29_17h32.01.360,lexical_decision_task_DD_L6,2021.2.3,Win32,58.77858109,,,,,,,,,,,0.7844,1,,,,,,,,,,,,,,,,,,,,,,,,0.298148184,-0.227777799,0,0,0,,,,,,,DONKEY,C,m,y,./images/DONKEY.png,,,,,,,m,1,0.7844,,,,,,,,0,80,80,19,1
,,,,,,,,,,,,,,,,,200497,18,2022-01-29_17h32.01.360,lexical_decision_task_DD_L6,2021.2.3,Win32,58.77858109,,,,,,,,,,,0.8035,0,,,,,,,,,,,,,,,,,,,,,,,,0.298148184,-0.227777799,0,0,0,,,,,,,TORCH,HB,z,y,./images/TORCHHB.png,,,,,,,m,0,0.8035,,,,,,,,0,81,81,152,1
,,,,,,,,,,,,,,,,,200497,18,2022-01-29_17h32.01.360,lexical_decision_task_DD_L6,2021.2.3,Win32,58.77858109,,,,,,,,,,,0.6483,1,,,,,,,,,,,,,,,,,,,,,,,,0.298148184,-0.227777799,0,0,0,,,,,,,GRAIN,LB,z,y,./images/GRAINLB.png,,,,,,,z,1,0.6483,,,,,,,,0,82,82,159,1
,,,,,,,,,,,,,,,,,200497,18,2022-01-29_17h32.01.360,lexical_decision_task_DD_L6,2021.2.3,Win32,58.77858109,,,,,,,,,,,0.6221,0,,,,,,,,,,,,,,,,,,,,,,,,0.298148184,-0.227777799,0,0,0,space,,,,,,CLOUD,HB,m,y,./images/CLOUDHB.png,0.9837,,,,,,z,0,0.6221,,,,,,,,0,83,83,26,1
,,,,,,,,,,,,,,,,,200497,18,2022-01-29_17h32.01.360,lexical_decision_task_DD_L6,2021.2.3,Win32,58.77858109,,,,,,,,,,,1.1357,1,,,,,,,,,,,,,,,,,,,,,,,,0.298148184,-0.227777799,0,0,0,,,,,,,SNAKE,C,m,y,./images/SNAKE.png,,,,,,,m,1,1.1357,,,,,,,,0,84,84,40,1
,,,,,,,,,,,,,,,,,200497,18,2022-01-29_17h32.01.360,lexical_decision_task_DD_L6,2021.2.3,Win32,58.77858109,,,,,,,,,,,0.8954,1,,,,,,,,,,,,,,,,,,,,,,,,0.298148184,-0.227777799,0,0,0,,,,,,,STATUE,LB,m,y,./images/STATUELB.png,,,,,,,m,1,0.8954,,,,,,,,0,85,85,66,1
,,,,,,,,,,,,,,,,,200497,18,2022-01-29_17h32.01.360,lexical_decision_task_DD_L6,2021.2.3,Win32,58.77858109,,,,,,,,,,,0.7454,1,,,,,,,,,,,,,,,,,,,,,,,,0.298148184,-0.227777799,0,0,0,,,,,,,ONION,LB,z,y,./images/ONIONLB.png,,,,,,,z,1,0.7454,,,,,,,,0,86,86,135,1
,,,,,,,,,,,,,,,,,200497,18,2022-01-29_17h32.01.360,lexical_decision_task_DD_L6,2021.2.3,Win32,58.77858109,,,,,,,,,,,1.0943,1,,,,,,,,,,,,,,,,,,,,,,,,0.298148184,-0.227777799,0,0,0,,,,,,,WHEEL,HB,m,y,./images/WHEELHB.png,,,,,,,m,1,1.0943,,,,,,,,0,87,87,77,1
,,,,,,,,,,,,,,,,,200497,18,2022-01-29_17h32.01.360,lexical_decision_task_DD_L6,2021.2.3,Win32,58.77858109,,,,,,,,,,,1.0998,0,,,,,,,,,,,,,,,,,,,,,,,,0.298148184,-0.227777799,0,0,0,,,,,,,POSTER,HB,m,y,./images/POSTERHB.png,,,,,,,z,0,1.0998,,,,,,,,0,88,88,53,1
,,,,,,,,,,,,,,,,,200497,18,2022-01-29_17h32.01.360,lexical_decision_task_DD_L6,2021.2.3,Win32,58.77858109,,,,,,,,,,,1.8405,1,,,,,,,,,,,,,,,,,,,,,,,,0.298148184,-0.227777799,0,0,0,,,,,,,DESERT,C,m,y,./images/DESERT.png,,,,,,,m,1,1.8405,,,,,,,,0,89,89,52,1
,,,,,,,,,,,,,,,,,200497,18,2022-01-29_17h32.01.360,lexical_decision_task_DD_L6,2021.2.3,Win32,58.77858109,,,,,,,,,,,0.6847,0,,,,,,,,,,,,,,,,,,,,,,,,0.298148184,-0.227777799,0,0,0,,,,,,,BIRTH,C,z,y,./images/BIRTH.png,,,,,,,m,0,0.6847,,,,,,,,0,90,90,121,1
,,,,,,,,,,,,,,,,,200497,18,2022-01-29_17h32.01.360,lexical_decision_task_DD_L6,2021.2.3,Win32,58.77858109,,,,,,,,,,,0.8077,0,,,,,,,,,,,,,,,,,,,,,,,,0.298148184,-0.227777799,0,0,0,,,,,,,CLOTH,HB,m,y,./images/CLOTHHB.png,,,,,,,z,0,0.8077,,,,,,,,0,91,91,23,1
,,,,,,,,,,,,,,,,,200497,18,2022-01-29_17h32.01.360,lexical_decision_task_DD_L6,2021.2.3,Win32,58.77858109,,,,,,,,,,,0.6133,1,,,,,,,,,,,,,,,,,,,,,,,,0.298148184,-0.227777799,0,0,0,,,,,,,CASINO,C,m,y,./images/CASINO.png,,,,,,,m,1,0.6133,,,,,,,,0,92,92,28,1
,,,,,,,,,,,,,,,,,200497,18,2022-01-29_17h32.01.360,lexical_decision_task_DD_L6,2021.2.3,Win32,58.77858109,,,,,,,,,,,1.1668,1,,,,,,,,,,,,,,,,,,,,,,,,0.298148184,-0.227777799,0,0,0,,,,,,,SKIING,HB,z,y,./images/SKIINGHB.png,,,,,,,z,1,1.1668,,,,,,,,0,93,93,101,1
,,,,,,,,,,,,,,,,,200497,18,2022-01-29_17h32.01.360,lexical_decision_task_DD_L6,2021.2.3,Win32,58.77858109,,,,,,,,,,,0.8085,1,,,,,,,,,,,,,,,,,,,,,,,,0.298148184,-0.227777799,0,0,0,,,,,,,SAUNA,LB,m,y,./images/SAUNALB.png,,,,,,,m,1,0.8085,,,,,,,,0,94,94,33,1
,,,,,,,,,,,,,,,,,200497,18,2022-01-29_17h32.01.360,lexical_decision_task_DD_L6,2021.2.3,Win32,58.77858109,,,,,,,,,,,0.7495,1,,,,,,,,,,,,,,,,,,,,,,,,0.298148184,-0.227777799,0,0,0,,,,,,,MAGGOT,LB,z,y,./images/MAGGOTLB.png,,,,,,,z,1,0.7495,,,,,,,,0,95,95,117,1
,,,,,,,,,,,,,,,,,200497,18,2022-01-29_17h32.01.360,lexical_decision_task_DD_L6,2021.2.3,Win32,58.77858109,,,,,,,,,,,0.7404,0,,,,,,,,,,,,,,,,,,,,,,,,0.298148184,-0.227777799,0,0,0,,,,,,,FINGER,LB,z,y,./images/FINGERLB.png,,,,,,,m,0,0.7404,,,,,,,,0,96,96,87,1
,,,,,,,,,,,,,,,,,200497,18,2022-01-29_17h32.01.360,lexical_decision_task_DD_L6,2021.2.3,Win32,58.77858109,,,,,,,,,,,0.7312,0,,,,,,,,,,,,,,,,,,,,,,,,0.298148184,-0.227777799,0,0,0,,,,,,,FERRY,LB,m,y,./images/FERRYLB.png,,,,,,,z,0,0.7312,,,,,,,,0,97,97,57,1
,,,,,,,,,,,,,,,,,200497,18,2022-01-29_17h32.01.360,lexical_decision_task_DD_L6,2021.2.3,Win32,58.77858109,,,,,,,,,,,0.7978,1,,,,,,,,,,,,,,,,,,,,,,,,0.298148184,-0.227777799,0,0,0,,,,,,,WAGON,C,m,y,./images/WAGON.png,,,,,,,m,1,0.7978,,,,,,,,0,98,98,7,1
,,,,,,,,,,,,,,,,,200497,18,2022-01-29_17h32.01.360,lexical_decision_task_DD_L6,2021.2.3,Win32,58.77858109,,,,,,,,,,,0.5068,0,,,,,,,,,,,,,,,,,,,,,,,,0.298148184,-0.227777799,0,0,0,,,,,,,MUSCLE,C,z,y,./images/MUSCLE.png,,,,,,,m,0,0.5068,,,,,,,,0,99,99,88,1
,,,,,,,,,,,,,,,,,200497,18,2022-01-29_17h32.01.360,lexical_decision_task_DD_L6,2021.2.3,Win32,58.77858109,,,,,,,,,,,0.33,1,,,,,,,,,,,,,,,,,,,,,,,,0.298148184,-0.227777799,0,0,0,,,,,,,BAKER,LB,m,y,./images/BAKERLB.png,,,,,,,m,1,0.33,,,,,,,,0,100,100,63,1
,,,,,,,,,,,,,,,,,200497,18,2022-01-29_17h32.01.360,lexical_decision_task_DD_L6,2021.2.3,Win32,58.77858109,,,,,,,,,,,0.7469,0,,,,,,,,,,,,,,,,,,,,,,,,0.298148184,-0.227777799,0,0,0,,,,,,,STOVE,HB,m,y,./images/STOVEHB.png,,,,,,,z,0,0.7469,,,,,,,,0,101,101,2,1
,,,,,,,,,,,,,,,,,200497,18,2022-01-29_17h32.01.360,lexical_decision_task_DD_L6,2021.2.3,Win32,58.77858109,,,,,,,,,,,0.5802,1,,,,,,,,,,,,,,,,,,,,,,,,0.298148184,-0.227777799,0,0,0,,,,,,,BASKET,HB,m,y,./images/BASKETHB.png,,,,,,,m,1,0.5802,,,,,,,,0,102,102,44,1
,,,,,,,,,,,,,,,,,200497,18,2022-01-29_17h32.01.360,lexical_decision_task_DD_L6,2021.2.3,Win32,58.77858109,,,,,,,,,,,1.3917,1,,,,,,,,,,,,,,,,,,,,,,,,0.298148184,-0.227777799,0,0,0,,,,,,,PARADE,HB,m,y,./images/PARADEHB.png,,,,,,,m,1,1.3917,,,,,,,,0,103,103,17,1
,,,,,,,,,,,,,,,,,200497,18,2022-01-29_17h32.01.360,lexical_decision_task_DD_L6,2021.2.3,Win32,58.77858109,,,,,,,,,,,1.6611,1,,,,,,,,,,,,,,,,,,,,,,,,0.298148184,-0.227777799,0,0,0,,,,,,,FOLDER,LB,z,y,./images/FOLDERLB.png,,,,,,,z,1,1.6611,,,,,,,,0,104,104,126,1
,,,,,,,,,,,,,,,,,200497,18,2022-01-29_17h32.01.360,lexical_decision_task_DD_L6,2021.2.3,Win32,58.77858109,,,,,,,,,,,0.5691,0,,,,,,,,,,,,,,,,,,,,,,,,0.298148184,-0.227777799,0,0,0,,,,,,,SUNSET,C,z,y,./images/SUNSET.png,,,,,,,m,0,0.5691,,,,,,,,0,105,105,166,1
,,,,,,,,,,,,,,,,,200497,18,2022-01-29_17h32.01.360,lexical_decision_task_DD_L6,2021.2.3,Win32,58.77858109,,,,,,,,,,,0.6178,1,,,,,,,,,,,,,,,,,,,,,,,,0.298148184,-0.227777799,0,0,0,,,,,,,WHISKY,HB,m,y,./images/WHISKYHB.png,,,,,,,m,1,0.6178,,,,,,,,0,106,106,83,1
,,,,,,,,,,,,,,,,,200497,18,2022-01-29_17h32.01.360,lexical_decision_task_DD_L6,2021.2.3,Win32,58.77858109,,,,,,,,,,,0.6629,1,,,,,,,,,,,,,,,,,,,,,,,,0.298148184,-0.227777799,0,0,0,,,,,,,TOWEL,C,m,y,./images/TOWEL.png,,,,,,,m,1,0.6629,,,,,,,,0,107,107,1,1
,,,,,,,,,,,,,,,,,200497,18,2022-01-29_17h32.01.360,lexical_decision_task_DD_L6,2021.2.3,Win32,58.77858109,,,,,,,,,,,0.6551,1,,,,,,,,,,,,,,,,,,,,,,,,0.298148184,-0.227777799,0,0,0,,,,,,,JAGUAR,LB,z,y,./images/JAGUARLB.png,,,,,,,z,1,0.6551,,,,,,,,0,108,108,102,1
,,,,,,,,,,,,,,,,,200497,18,2022-01-29_17h32.01.360,lexical_decision_task_DD_L6,2021.2.3,Win32,58.77858109,,,,,,,,,,,0.8581,1,,,,,,,,,,,,,,,,,,,,,,,,0.298148184,-0.227777799,0,0,0,,,,,,,ARTIST,C,m,y,./images/ARTIST.png,,,,,,,m,1,0.8581,,,,,,,,0,109,109,61,1
,,,,,,,,,,,,,,,,,200497,18,2022-01-29_17h32.01.360,lexical_decision_task_DD_L6,2021.2.3,Win32,58.77858109,,,,,,,,,,,0.7897,0,,,,,,,,,,,,,,,,,,,,,,,,0.298148184,-0.227777799,0,0,0,,,,,,,PARCEL,LB,m,y,./images/PARCELLB.png,,,,,,,z,0,0.7897,,,,,,,,0,110,110,18,1
,,,,,,,,,,,,,,,,,200497,18,2022-01-29_17h32.01.360,lexical_decision_task_DD_L6,2021.2.3,Win32,58.77858109,,,,,,,,,,,0.9715,1,,,,,,,,,,,,,,,,,,,,,,,,0.298148184,-0.227777799,0,0,0,,,,,,,PIMPLE,HB,z,y,./images/PIMPLEHB.png,,,,,,,z,1,0.9715,,,,,,,,0,111,111,155,1
,,,,,,,,,,,,,,,,,200497,18,2022-01-29_17h32.01.360,lexical_decision_task_DD_L6,2021.2.3,Win32,58.77858109,,,,,,,,,,,0.8975,0,,,,,,,,,,,,,,,,,,,,,,,,0.298148184,-0.227777799,0,0,0,,,,,,,JUNGLE,HB,z,y,./images/JUNGLEHB.png,,,,,,,m,0,0.8975,,,,,,,,0,112,112,167,1
,,,,,,,,,,,,,,,,,200497,18,2022-01-29_17h32.01.360,lexical_decision_task_DD_L6,2021.2.3,Win32,58.77858109,,,,,,,,,,,1.0326,1,,,,,,,,,,,,,,,,,,,,,,,,0.298148184,-0.227777799,0,0,0,,,,,,,PISTOL,HB,m,y,./images/PISTOLHB.png,,,,,,,m,1,1.0326,,,,,,,,0,113,113,29,1
,,,,,,,,,,,,,,,,,200497,18,2022-01-29_17h32.01.360,lexical_decision_task_DD_L6,2021.2.3,Win32,58.77858109,,,,,,,,,,,1.0469,1,,,,,,,,,,,,,,,,,,,,,,,,0.298148184,-0.227777799,0,0,0,,,,,,,DIVER,LB,m,y,./images/DIVERLB.png,,,,,,,m,1,1.0469,,,,,,,,0,114,114,9,1
,,,,,,,,,,,,,,,,,200497,18,2022-01-29_17h32.01.360,lexical_decision_task_DD_L6,2021.2.3,Win32,58.77858109,,,,,,,,,,,3.3118,0,,,,,,,,,,,,,,,,,,,,,,,,0.298148184,-0.227777799,0,0,0,,,,,,,LITTER,LB,z,y,./images/LITTERLB.png,,,,,,,m,0,3.3118,,,,,,,,0,115,115,162,1
,,,,,,,,,,,,,,,,,200497,18,2022-01-29_17h32.01.360,lexical_decision_task_DD_L6,2021.2.3,Win32,58.77858109,,,,,,,,,,,0.5448,1,,,,,,,,,,,,,,,,,,,,,,,,0.298148184,-0.227777799,0,0,0,,,,,,,TOMATO,LB,z,y,./images/TOMATOLB.png,,,,,,,z,1,0.5448,,,,,,,,0,116,116,84,1
,,,,,,,,,,,,,,,,,200497,18,2022-01-29_17h32.01.360,lexical_decision_task_DD_L6,2021.2.3,Win32,58.77858109,,,,,,,,,,,0.5346,1,,,,,,,,,,,,,,,,,,,,,,,,0.298148184,-0.227777799,0,0,0,,,,,,,ARROW,LB,m,y,./images/ARROWLB.png,,,,,,,m,1,0.5346,,,,,,,,0,117,117,69,1
,,,,,,,,,,,,,,,,,200497,18,2022-01-29_17h32.01.360,lexical_decision_task_DD_L6,2021.2.3,Win32,58.77858109,,,,,,,,,,,0.3309,0,,,,,,,,,,,,,,,,,,,,,,,,0.298148184,-0.227777799,0,0,0,,,,,,,SPORT,LB,z,y,./images/SPORTLB.png,,,,,,,m,0,0.3309,,,,,,,,0,118,118,132,1
,,,,,,,,,,,,,,,,,200497,18,2022-01-29_17h32.01.360,lexical_decision_task_DD_L6,2021.2.3,Win32,58.77858109,,,,,,,,,,,0.8187,0,,,,,,,,,,,,,,,,,,,,,,,,0.298148184,-0.227777799,0,0,0,,,,,,,GLOVE,C,m,y,./images/GLOVE.png,,,,,,,z,0,0.8187,,,,,,,,0,119,119,73,1
,,,,,,,,,,,,,,,,,200497,18,2022-01-29_17h32.01.360,lexical_decision_task_DD_L6,2021.2.3,Win32,58.77858109,,,,,,,,,,,0.9043,1,,,,,,,,,,,,,,,,,,,,,,,,0.298148184,-0.227777799,0,0,0,,,,,,,BISHOP,C,m,y,./images/BISHOP.png,,,,,,,m,1,0.9043,,,,,,,,0,120,120,49,1
,,,,,,,,,,,,,,,,,200497,18,2022-01-29_17h32.01.360,lexical_decision_task_DD_L6,2021.2.3,Win32,58.77858109,,,,,,,,,,,0.8078,1,,,,,,,,,,,,,,,,,,,,,,,,0.298148184,-0.227777799,0,0,0,,,,,,,SPINE,HB,m,y,./images/SPINEHB.png,,,,,,,m,1,0.8078,,,,,,,,0,121,121,65,1
,,,,,,,,,,,,,,,,,200497,18,2022-01-29_17h32.01.360,lexical_decision_task_DD_L6,2021.2.3,Win32,58.77858109,,,,,,,,,,,1.2062,1,,,,,,,,,,,,,,,,,,,,,,,,0.298148184,-0.227777799,0,0,0,,,,,,,CANDY,LB,m,y,./images/CANDYLB.png,,,,,,,m,1,1.2062,,,,,,,,0,122,122,39,1
,,,,,,,,,,,,,,,,,200497,18,2022-01-29_17h32.01.360,lexical_decision_task_DD_L6,2021.2.3,Win32,58.77858109,,,,,,,,,,,1.1607,1,,,,,,,,,,,,,,,,,,,,,,,,0.298148184,-0.227777799,0,0,0,,,,,,,CRUST,C,z,y,./images/CRUST.png,,,,,,,z,1,1.1607,,,,,,,,0,123,123,163,1
,,,,,,,,,,,,,,,,,200497,18,2022-01-29_17h32.01.360,lexical_decision_task_DD_L6,2021.2.3,Win32,58.77858109,,,,,,,,,,,0.7698,0,,,,,,,,,,,,,,,,,,,,,,,,0.298148184,-0.227777799,0,0,0,,,,,,,MIRROR,LB,z,y,./images/MIRRORLB.png,,,,,,,m,0,0.7698,,,,,,,,0,124,124,147,1
,,,,,,,,,,,,,,,,,200497,18,2022-01-29_17h32.01.360,lexical_decision_task_DD_L6,2021.2.3,Win32,58.77858109,,,,,,,,,,,0.6809,1,,,,,,,,,,,,,,,,,,,,,,,,0.298148184,-0.227777799,0,0,0,space,,,,,,CHALK,C,m,y,./images/CHALK.png,1.6693,,,,,,m,1,0.6809,,,,,,,,0,125,125,25,1
,,,,,,,,,,,,,,,,,200497,18,2022-01-29_17h32.01.360,lexical_decision_task_DD_L6,2021.2.3,Win32,58.77858109,,,,,,,,,,,0.789,0,,,,,,,,,,,,,,,,,,,,,,,,0.298148184,-0.227777799,0,0,0,,,,,,,SHELF,LB,z,y,./images/SHELFLB.png,,,,,,,m,0,0.789,,,,,,,,0,126,126,123,1
,,,,,,,,,,,,,,,,,200497,18,2022-01-29_17h32.01.360,lexical_decision_task_DD_L6,2021.2.3,Win32,58.77858109,,,,,,,,,,,1.0618,0,,,,,,,,,,,,,,,,,,,,,,,,0.298148184,-0.227777799,0,0,0,,,,,,,MOOSE,LB,z,y,./images/MOOSELB.png,,,,,,,m,0,1.0618,,,,,,,,0,127,127,141,1
,,,,,,,,,,,,,,,,,200497,18,2022-01-29_17h32.01.360,lexical_decision_task_DD_L6,2021.2.3,Win32,58.77858109,,,,,,,,,,,0.856,0,,,,,,,,,,,,,,,,,,,,,,,,0.298148184,-0.227777799,0,0,0,,,,,,,STRING,HB,z,y,./images/STRINGHB.png,,,,,,,m,0,0.856,,,,,,,,0,128,128,125,1
,,,,,,,,,,,,,,,,,200497,18,2022-01-29_17h32.01.360,lexical_decision_task_DD_L6,2021.2.3,Win32,58.77858109,,,,,,,,,,,0.7649,1,,,,,,,,,,,,,,,,,,,,,,,,0.298148184,-0.227777799,0,0,0,,,,,,,FLESH,LB,m,y,./images/FLESHLB.png,,,,,,,m,1,0.7649,,,,,,,,0,129,129,24,1
,,,,,,,,,,,,,,,,,200497,18,2022-01-29_17h32.01.360,lexical_decision_task_DD_L6,2021.2.3,Win32,58.77858109,,,,,,,,,,,1.0369,0,,,,,,,,,,,,,,,,,,,,,,,,0.298148184,-0.227777799,0,0,0,,,,,,,DRUMS,C,z,y,./images/DRUMS.png,,,,,,,m,0,1.0369,,,,,,,,0,130,130,133,1
,,,,,,,,,,,,,,,,,200497,18,2022-01-29_17h32.01.360,lexical_decision_task_DD_L6,2021.2.3,Win32,58.77858109,,,,,,,,,,,1.2852,1,,,,,,,,,,,,,,,,,,,,,,,,0.298148184,-0.227777799,0,0,0,,,,,,,SMOKER,HB,z,y,./images/SMOKERHB.png,,,,,,,z,1,1.2852,,,,,,,,0,131,131,110,1
,,,,,,,,,,,,,,,,,200497,18,2022-01-29_17h32.01.360,lexical_decision_task_DD_L6,2021.2.3,Win32,58.77858109,,,,,,,,,,,2.8112,0,,,,,,,,,,,,,,,,,,,,,,,,0.298148184,-0.227777799,0,0,0,,,,,,,CANDLE,C,z,y,./images/CANDLE.png,,,,,,,m,0,2.8112,,,,,,,,0,132,132,145,1
,,,,,,,,,,,,,,,,,200497,18,2022-01-29_17h32.01.360,lexical_decision_task_DD_L6,2021.2.3,Win32,58.77858109,,,,,,,,,,,0.6881,1,,,,,,,,,,,,,,,,,,,,,,,,0.298148184,-0.227777799,0,0,0,,,,,,,MOSQUE,C,z,y,./images/MOSQUE.png,,,,,,,z,1,0.6881,,,,,,,,0,133,133,127,1
,,,,,,,,,,,,,,,,,200497,18,2022-01-29_17h32.01.360,lexical_decision_task_DD_L6,2021.2.3,Win32,58.77858109,,,,,,,,,,,1.0349,1,,,,,,,,,,,,,,,,,,,,,,,,0.298148184,-0.227777799,0,0,0,,,,,,,SWING,C,z,y,./images/SWING.png,,,,,,,z,1,1.0349,,,,,,,,0,134,134,124,1
,,,,,,,,,,,,,,,,,200497,18,2022-01-29_17h32.01.360,lexical_decision_task_DD_L6,2021.2.3,Win32,58.77858109,,,,,,,,,,,1.033,1,,,,,,,,,,,,,,,,,,,,,,,,0.298148184,-0.227777799,0,0,0,,,,,,,LIZARD,HB,z,y,./images/LIZARDHB.png,,,,,,,z,1,1.033,,,,,,,,0,135,135,128,1
,,,,,,,,,,,,,,,,,200497,18,2022-01-29_17h32.01.360,lexical_decision_task_DD_L6,2021.2.3,Win32,58.77858109,,,,,,,,,,,0.6488,1,,,,,,,,,,,,,,,,,,,,,,,,0.298148184,-0.227777799,0,0,0,,,,,,,MIDGET,C,m,y,./images/MIDGET.png,,,,,,,m,1,0.6488,,,,,,,,0,136,136,76,1
,,,,,,,,,,,,,,,,,200497,18,2022-01-29_17h32.01.360,lexical_decision_task_DD_L6,2021.2.3,Win32,58.77858109,,,,,,,,,,,0.715,1,,,,,,,,,,,,,,,,,,,,,,,,0.298148184,-0.227777799,0,0,0,,,,,,,BAMBOO,HB,m,y,./images/BAMBOOHB.png,,,,,,,m,1,0.715,,,,,,,,0,137,137,5,1
,,,,,,,,,,,,,,,,,200497,18,2022-01-29_17h32.01.360,lexical_decision_task_DD_L6,2021.2.3,Win32,58.77858109,,,,,,,,,,,0.7985,0,,,,,,,,,,,,,,,,,,,,,,,,0.298148184,-0.227777799,0,0,0,,,,,,,RAZOR,C,m,y,./images/RAZOR.png,,,,,,,z,0,0.7985,,,,,,,,0,138,138,34,1
,,,,,,,,,,,,,,,,,200497,18,2022-01-29_17h32.01.360,lexical_decision_task_DD_L6,2021.2.3,Win32,58.77858109,,,,,,,,,,,2.5606,0,,,,,,,,,,,,,,,,,,,,,,,,0.298148184,-0.227777799,0,0,0,,,,,,,PAINT,C,z,y,./images/PAINT.png,,,,,,,m,0,2.5606,,,,,,,,0,139,139,91,1
,,,,,,,,,,,,,,,,,200497,18,2022-01-29_17h32.01.360,lexical_decision_task_DD_L6,2021.2.3,Win32,58.77858109,,,,,,,,,,,1.0902,1,,,,,,,,,,,,,,,,,,,,,,,,0.298148184,-0.227777799,0,0,0,,,,,,,FALCON,C,z,y,./images/FALCON.png,,,,,,,z,1,1.0902,,,,,,,,0,140,140,112,1
,,,,,,,,,,,,,,,,,200497,18,2022-01-29_17h32.01.360,lexical_decision_task_DD_L6,2021.2.3,Win32,58.77858109,,,,,,,,,,,0.8083,1,,,,,,,,,,,,,,,,,,,,,,,,0.298148184,-0.227777799,0,0,0,,,,,,,SAUCE,LB,m,y,./images/SAUCELB.png,,,,,,,m,1,0.8083,,,,,,,,0,141,141,51,1
,,,,,,,,,,,,,,,,,200497,18,2022-01-29_17h32.01.360,lexical_decision_task_DD_L6,2021.2.3,Win32,58.77858109,,,,,,,,,,,0.6704,0,,,,,,,,,,,,,,,,,,,,,,,,0.298148184,-0.227777799,0,0,0,,,,,,,CHERRY,LB,m,y,./images/CHERRYLB.png,,,,,,,z,0,0.6704,,,,,,,,0,142,142,54,1
,,,,,,,,,,,,,,,,,200497,18,2022-01-29_17h32.01.360,lexical_decision_task_DD_L6,2021.2.3,Win32,58.77858109,,,,,,,,,,,0.9664,1,,,,,,,,,,,,,,,,,,,,,,,,0.298148184,-0.227777799,0,0,0,,,,,,,POODLE,LB,z,y,./images/POODLELB.png,,,,,,,z,1,0.9664,,,,,,,,0,143,143,165,1
,,,,,,,,,,,,,,,,,200497,18,2022-01-29_17h32.01.360,lexical_decision_task_DD_L6,2021.2.3,Win32,58.77858109,,,,,,,,,,,0.6282,0,,,,,,,,,,,,,,,,,,,,,,,,0.298148184,-0.227777799,0,0,0,,,,,,,MELON,C,z,y,./images/MELON.png,,,,,,,m,0,0.6282,,,,,,,,0,144,144,106,1
,,,,,,,,,,,,,,,,,200497,18,2022-01-29_17h32.01.360,lexical_decision_task_DD_L6,2021.2.3,Win32,58.77858109,,,,,,,,,,,0.7526,0,,,,,,,,,,,,,,,,,,,,,,,,0.298148184,-0.227777799,0,0,0,,,,,,,TRIPOD,LB,z,y,./images/TRIPODLB.png,,,,,,,m,0,0.7526,,,,,,,,0,145,145,138,1
,,,,,,,,,,,,,,,,,200497,18,2022-01-29_17h32.01.360,lexical_decision_task_DD_L6,2021.2.3,Win32,58.77858109,,,,,,,,,,,0.6838,1,,,,,,,,,,,,,,,,,,,,,,,,0.298148184,-0.227777799,0,0,0,,,,,,,MAMMAL,HB,m,y,./images/MAMMALHB.png,,,,,,,m,1,0.6838,,,,,,,,0,146,146,62,1
,,,,,,,,,,,,,,,,,200497,18,2022-01-29_17h32.01.360,lexical_decision_task_DD_L6,2021.2.3,Win32,58.77858109,,,,,,,,,,,0.7659,0,,,,,,,,,,,,,,,,,,,,,,,,0.298148184,-0.227777799,0,0,0,,,,,,,BRUSH,HB,m,y,./images/BRUSHHB.png,,,,,,,z,0,0.7659,,,,,,,,0,147,147,59,1
,,,,,,,,,,,,,,,,,200497,18,2022-01-29_17h32.01.360,lexical_decision_task_DD_L6,2021.2.3,Win32,58.77858109,,,,,,,,,,,2.1721,0,,,,,,,,,,,,,,,,,,,,,,,,0.298148184,-0.227777799,0,0,0,,,,,,,PILOT,HB,m,y,./images/PILOTHB.png,,,,,,,z,0,2.1721,,,,,,,,0,148,148,50,1
,,,,,,,,,,,,,,,,,200497,18,2022-01-29_17h32.01.360,lexical_decision_task_DD_L6,2021.2.3,Win32,58.77858109,,,,,,,,,,,0.7216,0,,,,,,,,,,,,,,,,,,,,,,,,0.298148184,-0.227777799,0,0,0,,,,,,,SWEAT,LB,z,y,./images/SWEATLB.png,,,,,,,m,0,0.7216,,,,,,,,0,149,149,150,1
,,,,,,,,,,,,,,,,,200497,18,2022-01-29_17h32.01.360,lexical_decision_task_DD_L6,2021.2.3,Win32,58.77858109,,,,,,,,,,,0.7201,1,,,,,,,,,,,,,,,,,,,,,,,,0.298148184,-0.227777799,0,0,0,,,,,,,BERRY,HB,z,y,./images/BERRYHB.png,,,,,,,z,1,0.7201,,,,,,,,0,150,150,131,1
,,,,,,,,,,,,,,,,,200497,18,2022-01-29_17h32.01.360,lexical_decision_task_DD_L6,2021.2.3,Win32,58.77858109,,,,,,,,,,,2.131,1,,,,,,,,,,,,,,,,,,,,,,,,0.298148184,-0.227777799,0,0,0,,,,,,,PURSE,HB,z,y,./images/PURSEHB.png,,,,,,,z,1,2.131,,,,,,,,0,151,151,146,1
,,,,,,,,,,,,,,,,,200497,18,2022-01-29_17h32.01.360,lexical_decision_task_DD_L6,2021.2.3,Win32,58.77858109,,,,,,,,,,,0.6371,1,,,,,,,,,,,,,,,,,,,,,,,,0.298148184,-0.227777799,0,0,0,,,,,,,DRILL,LB,m,y,./images/DRILLLB.png,,,,,,,m,1,0.6371,,,,,,,,0,152,152,81,1
,,,,,,,,,,,,,,,,,200497,18,2022-01-29_17h32.01.360,lexical_decision_task_DD_L6,2021.2.3,Win32,58.77858109,,,,,,,,,,,1.4123,1,,,,,,,,,,,,,,,,,,,,,,,,0.298148184,-0.227777799,0,0,0,,,,,,,CRADLE,HB,z,y,./images/CRADLEHB.png,,,,,,,z,1,1.4123,,,,,,,,0,153,153,104,1
,,,,,,,,,,,,,,,,,200497,18,2022-01-29_17h32.01.360,lexical_decision_task_DD_L6,2021.2.3,Win32,58.77858109,,,,,,,,,,,1.9045,0,,,,,,,,,,,,,,,,,,,,,,,,0.298148184,-0.227777799,0,0,0,,,,,,,JELLY,C,z,y,./images/JELLY.png,,,,,,,m,0,1.9045,,,,,,,,0,154,154,148,1
,,,,,,,,,,,,,,,,,200497,18,2022-01-29_17h32.01.360,lexical_decision_task_DD_L6,2021.2.3,Win32,58.77858109,,,,,,,,,,,0.5951,0,,,,,,,,,,,,,,,,,,,,,,,,0.298148184,-0.227777799,0,0,0,,,,,,,WRIST,C,z,y,./images/WRIST.png,,,,,,,m,0,0.5951,,,,,,,,0,155,155,109,1
,,,,,,,,,,,,,,,,,200497,18,2022-01-29_17h32.01.360,lexical_decision_task_DD_L6,2021.2.3,Win32,58.77858109,,,,,,,,,,,0.9362,1,,,,,,,,,,,,,,,,,,,,,,,,0.298148184,-0.227777799,0,0,0,,,,,,,TULIP,HB,z,y,./images/TULIPHB.png,,,,,,,z,1,0.9362,,,,,,,,0,156,156,92,1
,,,,,,,,,,,,,,,,,200497,18,2022-01-29_17h32.01.360,lexical_decision_task_DD_L6,2021.2.3,Win32,58.77858109,,,,,,,,,,,1.329,0,,,,,,,,,,,,,,,,,,,,,,,,0.298148184,-0.227777799,0,0,0,,,,,,,NOOSE,LB,z,y,./images/NOOSELB.png,,,,,,,m,0,1.329,,,,,,,,0,157,157,156,1
,,,,,,,,,,,,,,,,,200497,18,2022-01-29_17h32.01.360,lexical_decision_task_DD_L6,2021.2.3,Win32,58.77858109,,,,,,,,,,,1.8414,1,,,,,,,,,,,,,,,,,,,,,,,,0.298148184,-0.227777799,0,0,0,,,,,,,STOOL,C,m,y,./images/STOOL.png,,,,,,,m,1,1.8414,,,,,,,,0,158,158,43,1
,,,,,,,,,,,,,,,,,200497,18,2022-01-29_17h32.01.360,lexical_decision_task_DD_L6,2021.2.3,Win32,58.77858109,,,,,,,,,,,0.5226,1,,,,,,,,,,,,,,,,,,,,,,,,0.298148184,-0.227777799,0,0,0,,,,,,,BUTTER,LB,m,y,./images/BUTTERLB.png,,,,,,,m,1,0.5226,,,,,,,,0,159,159,27,1
,,,,,,,,,,,,,,,,,200497,18,2022-01-29_17h32.01.360,lexical_decision_task_DD_L6,2021.2.3,Win32,58.77858109,,,,,,,,,,,1.0959,1,,,,,,,,,,,,,,,,,,,,,,,,0.298148184,-0.227777799,0,0,0,,,,,,,STEAK,C,m,y,./images/STEAK.png,,,,,,,m,1,1.0959,,,,,,,,0,160,160,31,1
,,,,,,,,,,,,,,,,,200497,18,2022-01-29_17h32.01.360,lexical_decision_task_DD_L6,2021.2.3,Win32,58.77858109,,,,,,,,,,,6.9084,1,,,,,,,,,,,,,,,,,,,,,,,,0.298148184,-0.227777799,0,0,0,,,,,,,CLOWN,C,m,y,./images/CLOWN.png,,,,,,,m,1,6.9084,,,,,,,,0,161,161,22,1
,,,,,,,,,,,,,,,,,200497,18,2022-01-29_17h32.01.360,lexical_decision_task_DD_L6,2021.2.3,Win32,58.77858109,,,,,,,,,,,0.8655,0,,,,,,,,,,,,,,,,,,,,,,,,0.298148184,-0.227777799,0,0,0,,,,,,,BRIDE,C,m,y,./images/BRIDE.png,,,,,,,z,0,0.8655,,,,,,,,0,162,162,64,1
,,,,,,,,,,,,,,,,,200497,18,2022-01-29_17h32.01.360,lexical_decision_task_DD_L6,2021.2.3,Win32,58.77858109,,,,,,,,,,,1.0456,1,,,,,,,,,,,,,,,,,,,,,,,,0.298148184,-0.227777799,0,0,0,,,,,,,SAILOR,C,z,y,./images/SAILOR.png,,,,,,,z,1,1.0456,,,,,,,,0,163,163,151,1
,,,,,,,,,,,,,,,,,200497,18,2022-01-29_17h32.01.360,lexical_decision_task_DD_L6,2021.2.3,Win32,58.77858109,,,,,,,,,,,0.9528,1,,,,,,,,,,,,,,,,,,,,,,,,0.298148184,-0.227777799,0,0,0,,,,,,,WEASEL,HB,z,y,./images/WEASELHB.png,,,,,,,z,1,0.9528,,,,,,,,0,164,164,164,1
,,,,,,,,,,,,,,,,,200497,18,2022-01-29_17h32.01.360,lexical_decision_task_DD_L6,2021.2.3,Win32,58.77858109,,,,,,,,,,,0.8731,1,,,,,,,,,,,,,,,,,,,,,,,,0.298148184,-0.227777799,0,0,0,,,,,,,BOILER,LB,m,y,./images/BOILERLB.png,,,,,,,m,1,0.8731,,,,,,,,0,165,165,36,1
,,,,,,,,,,,,,,,,,200497,18,2022-01-29_17h32.01.360,lexical_decision_task_DD_L6,2021.2.3,Win32,58.77858109,,,,,,,,,,,1.457,1,,,,,,,,,,,,,,,,,,,,,,,,0.298148184,-0.227777799,0,0,0,,,,,,,HEATER,HB,m,y,./images/HEATERHB.png,,,,,,,m,1,1.457,,,,,,,,0,166,166,56,1
,,,,,,,,,,,,,,,,,200497,18,2022-01-29_17h32.01.360,lexical_decision_task_DD_L6,2021.2.3,Win32,58.77858109,,,,,,,,,,,1.1367,0,,,,,,,,,,,,,,,,,,,,,,,,0.298148184,-0.227777799,0,0,0,,,,,,,TIGER,C,m,y,./images/TIGER.png,,,,,,,z,0,1.1367,,,,,,,,0,167,167,37,1
