key_resp.keys,key_resp.rt,instr_done_touch.x,instr_done_touch.y,instr_done_touch.leftButton,instr_done_touch.midButton,instr_done_touch.rightButton,instruction_pages.thisRepN,instruction_pages.thisTrialN,instruction_pages.thisN,instruction_pages.thisIndex,instruction_pages.ran,pageN,phase,instruct_text,has_image,instruct_image,participant,age,date,expName,psychopyVersion,OS,frameRate,response.keys,response.corr,response.rt,touch_resp.x,touch_resp.y,touch_resp.leftButton,touch_resp.midButton,touch_resp.rightButton,touch_resp.time,touch_resp.clicked_name,rt,corr,practrials.thisRepN,practrials.thisTrialN,practrials.thisN,practrials.thisIndex,practrials.ran,TrialID,Target,corrAns,end_of_practice_trials_pages.thisRepN,end_of_practice_trials_pages.thisTrialN,end_of_practice_trials_pages.thisN,end_of_practice_trials_pages.thisIndex,end_of_practice_trials_pages.ran,key_resp_2.keys,key_resp_2.corr,key_resp_2.rt,targ_click.x,targ_click.y,targ_click.leftButton,targ_click.midButton,targ_click.rightButton,targ_click.time,targ_click.clicked_name,break_done_touch.x,break_done_touch.y,break_done_touch.leftButton,break_done_touch.midButton,break_done_touch.rightButton,break_done_keyboard.keys,maintrials.thisRepN,maintrials.thisTrialN,maintrials.thisN,maintrials.thisIndex,maintrials.ran,string,blur,study,lex,stim_path,break_done_keyboard.rt,test_instructions.thisRepN,test_instructions.thisTrialN,test_instructions.thisN,test_instructions.thisIndex,test_instructions.ran,key_resp_3.keys,key_resp_3.corr,key_resp_3.rt,test_click.x,test_click.y,test_click.leftButton,test_click.midButton,test_click.rightButton,test_click.time,test_click.clicked_name,test_phase.thisRepN,test_phase.thisTrialN,test_phase.thisN,test_phase.thisIndex,test_phase.ran
space,4.246,-0.8,0.5,0,0,0,0,0,0,0,1,1,instructions,"INSTRUCTIONS
At the start of each trial, look at the plus sign  (+) in the center of the screen.  This tells you that a trial is about to begin and where to look. Second, the plus sign will disappear and a string of letters will appear. Your task is to determine if the string of letters is a word or not. If the item is a word press the M key (on keyboard)  or touch the word button (phone/tablet).  If the item is not a word,  press the  Z key (on keyboard)  or touch the nonword button (on phone/tablet). 
Press the space bar or touch  continue.",0,,200485,19,2022-01-29_14h56.36,lexical_decision_task_DD_L5,2021.2.3,MacIntel,58.82352941,,,,,,,,,,,,,,,,,,,,,,,,,,,,,,,,,,,,,,,,,,,,,,,,,,,,,,,,,,,,,,,,,,,,,,,,
space,10.57,-0.8,0.5,0,0,0,0,1,1,1,1,2,instructions,"If your device has a keyboard, press the 'Z' key for nonwords and the 'M' key for words.





Press the space bar or touch the button below to continue.",0,keyboard-example.gif,200485,19,2022-01-29_14h56.36,lexical_decision_task_DD_L5,2021.2.3,MacIntel,58.82352941,,,,,,,,,,,,,,,,,,,,,,,,,,,,,,,,,,,,,,,,,,,,,,,,,,,,,,,,,,,,,,,,,,,,,,,,
space,4.508,-0.8,0.5,0,0,0,0,2,2,2,1,3,instructions,"If you are using a touchscreen only device, use the buttons on the screen. Do not use the mouse.





Press the space bar or touch the button below to continue.",0,touchscreen-example.gif,200485,19,2022-01-29_14h56.36,lexical_decision_task_DD_L5,2021.2.3,MacIntel,58.82352941,,,,,,,,,,,,,,,,,,,,,,,,,,,,,,,,,,,,,,,,,,,,,,,,,,,,,,,,,,,,,,,,,,,,,,,,
space,0.927,-0.8,0.5,0,0,0,0,3,3,3,1,4,instructions,"It is very important that you respond as quickly and accurately as possible, as each letter string will only be on the screen for two seconds. If you do not respond within this time, the message 'Too slow!' will be displayed and the experiment will progress to the next letter string. The first 20 trials will be practice trials and you will receive feedback on your answers. 

Press the space bar or touch the button below to start the practice trials.",0,,200485,19,2022-01-29_14h56.36,lexical_decision_task_DD_L5,2021.2.3,MacIntel,58.82352941,,,,,,,,,,,,,,,,,,,,,,,,,,,,,,,,,,,,,,,,,,,,,,,,,,,,,,,,,,,,,,,,,,,,,,,,
,,,,,,,,,,,,,,,,,200485,19,2022-01-29_14h56.36,lexical_decision_task_DD_L5,2021.2.3,MacIntel,58.82352941,z,0,2.302,,,,,,,,2.302,0,0,0,0,0,1,1001,UTOPIA,m,,,,,,,,,,,,,,,,,,,,,,,,,,,,,,,,,,,,,,,,,,,,,,,,,,,,
,,,,,,,,,,,,,,,,,200485,19,2022-01-29_14h56.36,lexical_decision_task_DD_L5,2021.2.3,MacIntel,58.82352941,m,0,1.14,,,,,,,,1.14,0,0,1,1,15,1,1001,WHAISE,z,,,,,,,,,,,,,,,,,,,,,,,,,,,,,,,,,,,,,,,,,,,,,,,,,,,,
,,,,,,,,,,,,,,,,,200485,19,2022-01-29_14h56.36,lexical_decision_task_DD_L5,2021.2.3,MacIntel,58.82352941,z,1,3.173,,,,,,,,3.173,1,0,2,2,12,1,1001,SPRINY,z,,,,,,,,,,,,,,,,,,,,,,,,,,,,,,,,,,,,,,,,,,,,,,,,,,,,
,,,,,,,,,,,,,,,,,200485,19,2022-01-29_14h56.36,lexical_decision_task_DD_L5,2021.2.3,MacIntel,58.82352941,z,1,1.308,,,,,,,,1.308,1,0,3,3,11,1,1001,RASHET,z,,,,,,,,,,,,,,,,,,,,,,,,,,,,,,,,,,,,,,,,,,,,,,,,,,,,
,,,,,,,,,,,,,,,,,200485,19,2022-01-29_14h56.36,lexical_decision_task_DD_L5,2021.2.3,MacIntel,58.82352941,m,1,1.437,,,,,,,,1.437,1,0,4,4,4,1,1001,SQUEAK,m,,,,,,,,,,,,,,,,,,,,,,,,,,,,,,,,,,,,,,,,,,,,,,,,,,,,
,,,,,,,,,,,,,,,,,200485,19,2022-01-29_14h56.36,lexical_decision_task_DD_L5,2021.2.3,MacIntel,58.82352941,m,1,0.823,,,,,,,,0.823,1,0,5,5,1,1,1001,ADJUST,m,,,,,,,,,,,,,,,,,,,,,,,,,,,,,,,,,,,,,,,,,,,,,,,,,,,,
,,,,,,,,,,,,,,,,,200485,19,2022-01-29_14h56.36,lexical_decision_task_DD_L5,2021.2.3,MacIntel,58.82352941,m,1,0.68,,,,,,,,0.68,1,0,6,6,5,1,1001,OBTAIN,m,,,,,,,,,,,,,,,,,,,,,,,,,,,,,,,,,,,,,,,,,,,,,,,,,,,,
,,,,,,,,,,,,,,,,,200485,19,2022-01-29_14h56.36,lexical_decision_task_DD_L5,2021.2.3,MacIntel,58.82352941,z,1,3.401,,,,,,,,3.401,1,0,7,7,14,1,1001,THRALE,z,,,,,,,,,,,,,,,,,,,,,,,,,,,,,,,,,,,,,,,,,,,,,,,,,,,,
,,,,,,,,,,,,,,,,,200485,19,2022-01-29_14h56.36,lexical_decision_task_DD_L5,2021.2.3,MacIntel,58.82352941,z,1,1.081,,,,,,,,1.081,1,0,8,8,10,1,1001,INLADE,z,,,,,,,,,,,,,,,,,,,,,,,,,,,,,,,,,,,,,,,,,,,,,,,,,,,,
,,,,,,,,,,,,,,,,,200485,19,2022-01-29_14h56.36,lexical_decision_task_DD_L5,2021.2.3,MacIntel,58.82352941,m,1,0.705,,,,,,,,0.705,1,0,9,9,6,1,1001,ZOMBIE,m,,,,,,,,,,,,,,,,,,,,,,,,,,,,,,,,,,,,,,,,,,,,,,,,,,,,
,,,,,,,,,,,,,,,,,200485,19,2022-01-29_14h56.36,lexical_decision_task_DD_L5,2021.2.3,MacIntel,58.82352941,m,1,0.847,,,,,,,,0.847,1,0,10,10,3,1,1001,MATRIX,m,,,,,,,,,,,,,,,,,,,,,,,,,,,,,,,,,,,,,,,,,,,,,,,,,,,,
,,,,,,,,,,,,,,,,,200485,19,2022-01-29_14h56.36,lexical_decision_task_DD_L5,2021.2.3,MacIntel,58.82352941,z,1,0.723,,,,,,,,0.723,1,0,11,11,13,1,1001,ROUPET,z,,,,,,,,,,,,,,,,,,,,,,,,,,,,,,,,,,,,,,,,,,,,,,,,,,,,
,,,,,,,,,,,,,,,,,200485,19,2022-01-29_14h56.36,lexical_decision_task_DD_L5,2021.2.3,MacIntel,58.82352941,z,1,1.098,,,,,,,,1.098,1,0,12,12,8,1,1001,ASLERT,z,,,,,,,,,,,,,,,,,,,,,,,,,,,,,,,,,,,,,,,,,,,,,,,,,,,,
,,,,,,,,,,,,,,,,,200485,19,2022-01-29_14h56.36,lexical_decision_task_DD_L5,2021.2.3,MacIntel,58.82352941,m,1,0.766,,,,,,,,0.766,1,0,13,13,2,1,1001,ALMOND,m,,,,,,,,,,,,,,,,,,,,,,,,,,,,,,,,,,,,,,,,,,,,,,,,,,,,
,,,,,,,,,,,,,,,,,200485,19,2022-01-29_14h56.36,lexical_decision_task_DD_L5,2021.2.3,MacIntel,58.82352941,z,1,0.834,,,,,,,,0.834,1,0,14,14,9,1,1001,FARINY,z,,,,,,,,,,,,,,,,,,,,,,,,,,,,,,,,,,,,,,,,,,,,,,,,,,,,
,,,,,,,,,,,,,,,,,200485,19,2022-01-29_14h56.36,lexical_decision_task_DD_L5,2021.2.3,MacIntel,58.82352941,m,1,0.816,,,,,,,,0.816,1,0,15,15,7,1,1001,VOLUME,m,,,,,,,,,,,,,,,,,,,,,,,,,,,,,,,,,,,,,,,,,,,,,,,,,,,,
space,10.391,-0.8,0.5,0,0,0,,,,,,1,end_of_practice,"You have completed the practice trials. During the experimental trials, you will not receive feedback. 
Before you begin, please ensure that you are in a comfortable and quiet location and will not be disturbed for about 15 minutes, as we cannot use your data if you do not complete all the trials. 
 When you are ready to start the experimental trials, please press space or touch the button below.",,,200485,19,2022-01-29_14h56.36,lexical_decision_task_DD_L5,2021.2.3,MacIntel,58.82352941,,,,,,,,,,,,,,,,,,,,,0,0,0,0,1,,,,,,,,,,,,,,,,,,,,,,,,,,,,,,,,,,,,,,,,,,,,,,,
,,,,,,,,,,,,,,,,,200485,19,2022-01-29_14h56.36,lexical_decision_task_DD_L5,2021.2.3,MacIntel,58.82352941,,,,,,,,,,,1.336,1,,,,,,,,,,,,,,m,1,1.336,,,,,,,,-0.8,0.5,0,0,0,,0,0,0,70,1,BANANA,LB,old,m,./images/BANANALB.png,,,,,,,,,,,,,,,,,,,,,
,,,,,,,,,,,,,,,,,200485,19,2022-01-29_14h56.36,lexical_decision_task_DD_L5,2021.2.3,MacIntel,58.82352941,,,,,,,,,,,1.016,1,,,,,,,,,,,,,,z,1,1.016,,,,,,,,-0.8,0.5,0,0,0,,0,1,1,95,1,HANTY,LB,old,z,./images/HANTYLB.png,,,,,,,,,,,,,,,,,,,,,
,,,,,,,,,,,,,,,,,200485,19,2022-01-29_14h56.36,lexical_decision_task_DD_L5,2021.2.3,MacIntel,58.82352941,,,,,,,,,,,0.933,1,,,,,,,,,,,,,,m,1,0.933,,,,,,,,-0.8,0.5,0,0,0,,0,2,2,0,1,WALNUT,HB,old,m,./images/WALNUTHB.png,,,,,,,,,,,,,,,,,,,,,
,,,,,,,,,,,,,,,,,200485,19,2022-01-29_14h56.36,lexical_decision_task_DD_L5,2021.2.3,MacIntel,58.82352941,,,,,,,,,,,1.929,1,,,,,,,,,,,,,,z,1,1.929,,,,,,,,-0.8,0.5,0,0,0,,0,3,3,106,1,CLUMS,HB,old,z,./images/CLUMSHB.png,,,,,,,,,,,,,,,,,,,,,
,,,,,,,,,,,,,,,,,200485,19,2022-01-29_14h56.36,lexical_decision_task_DD_L5,2021.2.3,MacIntel,58.82352941,,,,,,,,,,,1.471,1,,,,,,,,,,,,,,m,1,1.471,,,,,,,,-0.8,0.5,0,0,0,,0,4,4,59,1,BRUSH,C,old,m,./images/BRUSH.png,,,,,,,,,,,,,,,,,,,,,
,,,,,,,,,,,,,,,,,200485,19,2022-01-29_14h56.36,lexical_decision_task_DD_L5,2021.2.3,MacIntel,58.82352941,,,,,,,,,,,0.84,1,,,,,,,,,,,,,,z,1,0.84,,,,,,,,-0.8,0.5,0,0,0,,0,5,5,135,1,JOODY,C,old,z,./images/JOODY.png,,,,,,,,,,,,,,,,,,,,,
,,,,,,,,,,,,,,,,,200485,19,2022-01-29_14h56.36,lexical_decision_task_DD_L5,2021.2.3,MacIntel,58.82352941,,,,,,,,,,,1.238,1,,,,,,,,,,,,,,z,1,1.238,,,,,,,,-0.8,0.5,0,0,0,,0,6,6,140,1,DOVET,LB,old,z,./images/DOVETLB.png,,,,,,,,,,,,,,,,,,,,,
,,,,,,,,,,,,,,,,,200485,19,2022-01-29_14h56.36,lexical_decision_task_DD_L5,2021.2.3,MacIntel,58.82352941,,,,,,,,,,,2.256,1,,,,,,,,,,,,,,z,1,2.256,,,,,,,,-0.8,0.5,0,0,0,,0,7,7,94,1,BLANS,HB,old,z,./images/BLANSHB.png,,,,,,,,,,,,,,,,,,,,,
,,,,,,,,,,,,,,,,,200485,19,2022-01-29_14h56.36,lexical_decision_task_DD_L5,2021.2.3,MacIntel,58.82352941,,,,,,,,,,,0.812,1,,,,,,,,,,,,,,z,1,0.812,,,,,,,,-0.8,0.5,0,0,0,,0,8,8,122,1,BLOOT,LB,old,z,./images/BLOOTLB.png,,,,,,,,,,,,,,,,,,,,,
,,,,,,,,,,,,,,,,,200485,19,2022-01-29_14h56.36,lexical_decision_task_DD_L5,2021.2.3,MacIntel,58.82352941,,,,,,,,,,,2.32,1,,,,,,,,,,,,,,m,1,2.32,,,,,,,,-0.8,0.5,0,0,0,,0,9,9,3,1,CRATER,HB,old,m,./images/CRATERHB.png,,,,,,,,,,,,,,,,,,,,,
,,,,,,,,,,,,,,,,,200485,19,2022-01-29_14h56.36,lexical_decision_task_DD_L5,2021.2.3,MacIntel,58.82352941,,,,,,,,,,,0.666,1,,,,,,,,,,,,,,m,1,0.666,,,,,,,,-0.8,0.5,0,0,0,,0,10,10,50,1,PILOT,C,old,m,./images/PILOT.png,,,,,,,,,,,,,,,,,,,,,
,,,,,,,,,,,,,,,,,200485,19,2022-01-29_14h56.36,lexical_decision_task_DD_L5,2021.2.3,MacIntel,58.82352941,,,,,,,,,,,1.272,1,,,,,,,,,,,,,,z,1,1.272,,,,,,,,-0.8,0.5,0,0,0,,0,11,11,142,1,PLASK,HB,old,z,./images/PLASKHB.png,,,,,,,,,,,,,,,,,,,,,
,,,,,,,,,,,,,,,,,200485,19,2022-01-29_14h56.36,lexical_decision_task_DD_L5,2021.2.3,MacIntel,58.82352941,,,,,,,,,,,0.997,1,,,,,,,,,,,,,,m,1,0.997,,,,,,,,-0.8,0.5,0,0,0,,0,12,12,41,1,STREAM,C,old,m,./images/STREAM.png,,,,,,,,,,,,,,,,,,,,,
,,,,,,,,,,,,,,,,,200485,19,2022-01-29_14h56.36,lexical_decision_task_DD_L5,2021.2.3,MacIntel,58.82352941,,,,,,,,,,,0.588,1,,,,,,,,,,,,,,m,1,0.588,,,,,,,,-0.8,0.5,0,0,0,,0,13,13,79,1,RULER,LB,old,m,./images/RULERLB.png,,,,,,,,,,,,,,,,,,,,,
,,,,,,,,,,,,,,,,,200485,19,2022-01-29_14h56.36,lexical_decision_task_DD_L5,2021.2.3,MacIntel,58.82352941,,,,,,,,,,,0.853,1,,,,,,,,,,,,,,m,1,0.853,,,,,,,,-0.8,0.5,0,0,0,,0,14,14,33,1,SAUNA,HB,old,m,./images/SAUNAHB.png,,,,,,,,,,,,,,,,,,,,,
,,,,,,,,,,,,,,,,,200485,19,2022-01-29_14h56.36,lexical_decision_task_DD_L5,2021.2.3,MacIntel,58.82352941,,,,,,,,,,,0.695,1,,,,,,,,,,,,,,m,1,0.695,,,,,,,,-0.8,0.5,0,0,0,,0,15,15,25,1,CHALK,LB,old,m,./images/CHALKLB.png,,,,,,,,,,,,,,,,,,,,,
,,,,,,,,,,,,,,,,,200485,19,2022-01-29_14h56.36,lexical_decision_task_DD_L5,2021.2.3,MacIntel,58.82352941,,,,,,,,,,,0.554,1,,,,,,,,,,,,,,m,1,0.554,,,,,,,,-0.8,0.5,0,0,0,,0,16,16,37,1,TIGER,LB,old,m,./images/TIGERLB.png,,,,,,,,,,,,,,,,,,,,,
,,,,,,,,,,,,,,,,,200485,19,2022-01-29_14h56.36,lexical_decision_task_DD_L5,2021.2.3,MacIntel,58.82352941,,,,,,,,,,,0.61,1,,,,,,,,,,,,,,m,1,0.61,,,,,,,,-0.8,0.5,0,0,0,,0,17,17,27,1,BUTTER,HB,old,m,./images/BUTTERHB.png,,,,,,,,,,,,,,,,,,,,,
,,,,,,,,,,,,,,,,,200485,19,2022-01-29_14h56.36,lexical_decision_task_DD_L5,2021.2.3,MacIntel,58.82352941,,,,,,,,,,,0.818,1,,,,,,,,,,,,,,m,1,0.818,,,,,,,,-0.8,0.5,0,0,0,,0,18,18,35,1,LLAMA,C,old,m,./images/LLAMA.png,,,,,,,,,,,,,,,,,,,,,
,,,,,,,,,,,,,,,,,200485,19,2022-01-29_14h56.36,lexical_decision_task_DD_L5,2021.2.3,MacIntel,58.82352941,,,,,,,,,,,1.88,1,,,,,,,,,,,,,,z,1,1.88,,,,,,,,-0.8,0.5,0,0,0,,0,19,19,115,1,MAWNS,HB,old,z,./images/MAWNSHB.png,,,,,,,,,,,,,,,,,,,,,
,,,,,,,,,,,,,,,,,200485,19,2022-01-29_14h56.36,lexical_decision_task_DD_L5,2021.2.3,MacIntel,58.82352941,,,,,,,,,,,1.021,1,,,,,,,,,,,,,,m,1,1.021,,,,,,,,-0.8,0.5,0,0,0,,0,20,20,21,1,DANCER,HB,old,m,./images/DANCERHB.png,,,,,,,,,,,,,,,,,,,,,
,,,,,,,,,,,,,,,,,200485,19,2022-01-29_14h56.36,lexical_decision_task_DD_L5,2021.2.3,MacIntel,58.82352941,,,,,,,,,,,0.528,1,,,,,,,,,,,,,,m,1,0.528,,,,,,,,-0.8,0.5,0,0,0,,0,21,21,31,1,STEAK,LB,old,m,./images/STEAKLB.png,,,,,,,,,,,,,,,,,,,,,
,,,,,,,,,,,,,,,,,200485,19,2022-01-29_14h56.36,lexical_decision_task_DD_L5,2021.2.3,MacIntel,58.82352941,,,,,,,,,,,0.881,1,,,,,,,,,,,,,,z,1,0.881,,,,,,,,-0.8,0.5,0,0,0,,0,22,22,156,1,HIXES,C,old,z,./images/HIXES.png,,,,,,,,,,,,,,,,,,,,,
,,,,,,,,,,,,,,,,,200485,19,2022-01-29_14h56.36,lexical_decision_task_DD_L5,2021.2.3,MacIntel,58.82352941,,,,,,,,,,,0.746,1,,,,,,,,,,,,,,z,1,0.746,,,,,,,,-0.8,0.5,0,0,0,,0,23,23,93,1,SMONE,C,old,z,./images/SMONE.png,,,,,,,,,,,,,,,,,,,,,
,,,,,,,,,,,,,,,,,200485,19,2022-01-29_14h56.36,lexical_decision_task_DD_L5,2021.2.3,MacIntel,58.82352941,,,,,,,,,,,0.64,1,,,,,,,,,,,,,,m,1,0.64,,,,,,,,-0.8,0.5,0,0,0,,0,24,24,83,1,WHISKY,C,old,m,./images/WHISKY.png,,,,,,,,,,,,,,,,,,,,,
,,,,,,,,,,,,,,,,,200485,19,2022-01-29_14h56.36,lexical_decision_task_DD_L5,2021.2.3,MacIntel,58.82352941,,,,,,,,,,,0.748,1,,,,,,,,,,,,,,z,1,0.748,,,,,,,,-0.8,0.5,0,0,0,,0,25,25,162,1,LEICH,C,old,z,./images/LEICH.png,,,,,,,,,,,,,,,,,,,,,
,,,,,,,,,,,,,,,,,200485,19,2022-01-29_14h56.36,lexical_decision_task_DD_L5,2021.2.3,MacIntel,58.82352941,,,,,,,,,,,2.64,1,,,,,,,,,,,,,,z,1,2.64,,,,,,,,-0.8,0.5,0,0,0,,0,26,26,158,1,EGECT,LB,old,z,./images/EGECTLB.png,,,,,,,,,,,,,,,,,,,,,
,,,,,,,,,,,,,,,,,200485,19,2022-01-29_14h56.36,lexical_decision_task_DD_L5,2021.2.3,MacIntel,58.82352941,,,,,,,,,,,0.689,1,,,,,,,,,,,,,,m,1,0.689,,,,,,,,-0.8,0.5,0,0,0,,0,27,27,29,1,PISTOL,C,old,m,./images/PISTOL.png,,,,,,,,,,,,,,,,,,,,,
,,,,,,,,,,,,,,,,,200485,19,2022-01-29_14h56.36,lexical_decision_task_DD_L5,2021.2.3,MacIntel,58.82352941,,,,,,,,,,,0.64,1,,,,,,,,,,,,,,m,1,0.64,,,,,,,,-0.8,0.5,0,0,0,,0,28,28,13,1,BUNNY,LB,old,m,./images/BUNNYLB.png,,,,,,,,,,,,,,,,,,,,,
,,,,,,,,,,,,,,,,,200485,19,2022-01-29_14h56.36,lexical_decision_task_DD_L5,2021.2.3,MacIntel,58.82352941,,,,,,,,,,,0.735,1,,,,,,,,,,,,,,z,1,0.735,,,,,,,,-0.8,0.5,0,0,0,,0,29,29,153,1,CLUPS,C,old,z,./images/CLUPS.png,,,,,,,,,,,,,,,,,,,,,
,,,,,,,,,,,,,,,,,200485,19,2022-01-29_14h56.36,lexical_decision_task_DD_L5,2021.2.3,MacIntel,58.82352941,,,,,,,,,,,1.345,1,,,,,,,,,,,,,,z,1,1.345,,,,,,,,-0.8,0.5,0,0,0,,0,30,30,167,1,ZONET,LB,old,z,./images/ZONETLB.png,,,,,,,,,,,,,,,,,,,,,
,,,,,,,,,,,,,,,,,200485,19,2022-01-29_14h56.36,lexical_decision_task_DD_L5,2021.2.3,MacIntel,58.82352941,,,,,,,,,,,0.662,1,,,,,,,,,,,,,,z,1,0.662,,,,,,,,-0.8,0.5,0,0,0,,0,31,31,104,1,GITTY,LB,old,z,./images/GITTYLB.png,,,,,,,,,,,,,,,,,,,,,
,,,,,,,,,,,,,,,,,200485,19,2022-01-29_14h56.36,lexical_decision_task_DD_L5,2021.2.3,MacIntel,58.82352941,,,,,,,,,,,1.405,1,,,,,,,,,,,,,,m,1,1.405,,,,,,,,-0.8,0.5,0,0,0,,0,32,32,43,1,STOOL,LB,old,m,./images/STOOLLB.png,,,,,,,,,,,,,,,,,,,,,
,,,,,,,,,,,,,,,,,200485,19,2022-01-29_14h56.36,lexical_decision_task_DD_L5,2021.2.3,MacIntel,58.82352941,,,,,,,,,,,1.111,1,,,,,,,,,,,,,,m,1,1.111,,,,,,,,-0.8,0.5,0,0,0,,0,33,33,72,1,FLASK,HB,old,m,./images/FLASKHB.png,,,,,,,,,,,,,,,,,,,,,
,,,,,,,,,,,,,,,,,200485,19,2022-01-29_14h56.36,lexical_decision_task_DD_L5,2021.2.3,MacIntel,58.82352941,,,,,,,,,,,0.606,1,,,,,,,,,,,,,,z,1,0.606,,,,,,,,-0.8,0.5,0,0,0,,0,34,34,117,1,STEEG,C,old,z,./images/STEEG.png,,,,,,,,,,,,,,,,,,,,,
,,,,,,,,,,,,,,,,,200485,19,2022-01-29_14h56.36,lexical_decision_task_DD_L5,2021.2.3,MacIntel,58.82352941,,,,,,,,,,,0.637,1,,,,,,,,,,,,,,z,1,0.637,,,,,,,,-0.8,0.5,0,0,0,,0,35,35,149,1,VEASE,LB,old,z,./images/VEASELB.png,,,,,,,,,,,,,,,,,,,,,
,,,,,,,,,,,,,,,,,200485,19,2022-01-29_14h56.36,lexical_decision_task_DD_L5,2021.2.3,MacIntel,58.82352941,,,,,,,,,,,0.745,1,,,,,,,,,,,,,,z,1,0.745,,,,,,,,-0.8,0.5,0,0,0,,0,36,36,118,1,BAVEL,HB,old,z,./images/BAVELHB.png,,,,,,,,,,,,,,,,,,,,,
,,,,,,,,,,,,,,,,,200485,19,2022-01-29_14h56.36,lexical_decision_task_DD_L5,2021.2.3,MacIntel,58.82352941,,,,,,,,,,,0.581,1,,,,,,,,,,,,,,z,1,0.581,,,,,,,,-0.8,0.5,0,0,0,,0,37,37,120,1,RINED,C,old,z,./images/RINED.png,,,,,,,,,,,,,,,,,,,,,
,,,,,,,,,,,,,,,,,200485,19,2022-01-29_14h56.36,lexical_decision_task_DD_L5,2021.2.3,MacIntel,58.82352941,,,,,,,,,,,1.245,1,,,,,,,,,,,,,,z,1,1.245,,,,,,,,-0.8,0.5,0,0,0,,0,38,38,148,1,JOMS,HB,old,z,./images/JOMSHB.png,,,,,,,,,,,,,,,,,,,,,
,,,,,,,,,,,,,,,,,200485,19,2022-01-29_14h56.36,lexical_decision_task_DD_L5,2021.2.3,MacIntel,58.82352941,,,,,,,,,,,0.688,0,,,,,,,,,,,,,,z,0,0.688,,,,,,,,-0.8,0.5,0,0,0,,0,39,39,28,1,CASINO,LB,old,m,./images/CASINOLB.png,,,,,,,,,,,,,,,,,,,,,
,,,,,,,,,,,,,,,,,200485,19,2022-01-29_14h56.36,lexical_decision_task_DD_L5,2021.2.3,MacIntel,58.82352941,,,,,,,,,,,1.195,1,,,,,,,,,,,,,,z,1,1.195,,,,,,,,-0.8,0.5,0,0,0,,0,40,40,157,1,INLER,HB,old,z,./images/INLERHB.png,,,,,,,,,,,,,,,,,,,,,
,,,,,,,,,,,,,,,,,200485,19,2022-01-29_14h56.36,lexical_decision_task_DD_L5,2021.2.3,MacIntel,58.82352941,,,,,,,,,,,0.589,1,,,,,,,,,,,,,,m,1,0.589,,,,,,,,-0.8,0.5,0,0,0,space,0,41,41,52,1,DESERT,LB,old,m,./images/DESERTLB.png,8.3,,,,,,,,,,,,,,,,,,,,
,,,,,,,,,,,,,,,,,200485,19,2022-01-29_14h56.36,lexical_decision_task_DD_L5,2021.2.3,MacIntel,58.82352941,,,,,,,,,,,1.363,1,,,,,,,,,,,,,,m,1,1.363,,,,,,,,-0.8,0.5,0,0,0,,0,42,42,80,1,PLANET,C,old,m,./images/PLANET.png,,,,,,,,,,,,,,,,,,,,,
,,,,,,,,,,,,,,,,,200485,19,2022-01-29_14h56.36,lexical_decision_task_DD_L5,2021.2.3,MacIntel,58.82352941,,,,,,,,,,,1.254,1,,,,,,,,,,,,,,z,1,1.254,,,,,,,,-0.8,0.5,0,0,0,,0,43,43,88,1,GLUSH,HB,old,z,./images/GLUSHHB.png,,,,,,,,,,,,,,,,,,,,,
,,,,,,,,,,,,,,,,,200485,19,2022-01-29_14h56.36,lexical_decision_task_DD_L5,2021.2.3,MacIntel,58.82352941,,,,,,,,,,,0.658,1,,,,,,,,,,,,,,z,1,0.658,,,,,,,,-0.8,0.5,0,0,0,,0,44,44,165,1,TROWN,C,old,z,./images/TROWN.png,,,,,,,,,,,,,,,,,,,,,
,,,,,,,,,,,,,,,,,200485,19,2022-01-29_14h56.36,lexical_decision_task_DD_L5,2021.2.3,MacIntel,58.82352941,,,,,,,,,,,0.713,1,,,,,,,,,,,,,,m,1,0.713,,,,,,,,-0.8,0.5,0,0,0,,0,45,45,23,1,CLOTH,C,old,m,./images/CLOTH.png,,,,,,,,,,,,,,,,,,,,,
,,,,,,,,,,,,,,,,,200485,19,2022-01-29_14h56.36,lexical_decision_task_DD_L5,2021.2.3,MacIntel,58.82352941,,,,,,,,,,,0.895,0,,,,,,,,,,,,,,z,0,0.895,,,,,,,,-0.8,0.5,0,0,0,,0,46,46,18,1,PARCEL,HB,old,m,./images/PARCELHB.png,,,,,,,,,,,,,,,,,,,,,
,,,,,,,,,,,,,,,,,200485,19,2022-01-29_14h56.36,lexical_decision_task_DD_L5,2021.2.3,MacIntel,58.82352941,,,,,,,,,,,0.899,1,,,,,,,,,,,,,,z,1,0.899,,,,,,,,-0.8,0.5,0,0,0,,0,47,47,100,1,DRIBS,HB,old,z,./images/DRIBSHB.png,,,,,,,,,,,,,,,,,,,,,
,,,,,,,,,,,,,,,,,200485,19,2022-01-29_14h56.36,lexical_decision_task_DD_L5,2021.2.3,MacIntel,58.82352941,,,,,,,,,,,0.649,1,,,,,,,,,,,,,,m,1,0.649,,,,,,,,-0.8,0.5,0,0,0,,0,48,48,62,1,MAMMAL,C,old,m,./images/MAMMAL.png,,,,,,,,,,,,,,,,,,,,,
,,,,,,,,,,,,,,,,,200485,19,2022-01-29_14h56.36,lexical_decision_task_DD_L5,2021.2.3,MacIntel,58.82352941,,,,,,,,,,,0.554,1,,,,,,,,,,,,,,z,1,0.554,,,,,,,,-0.8,0.5,0,0,0,,0,49,49,132,1,SCIFF,C,old,z,./images/SCIFF.png,,,,,,,,,,,,,,,,,,,,,
,,,,,,,,,,,,,,,,,200485,19,2022-01-29_14h56.36,lexical_decision_task_DD_L5,2021.2.3,MacIntel,58.82352941,,,,,,,,,,,1.047,1,,,,,,,,,,,,,,m,1,1.047,,,,,,,,-0.8,0.5,0,0,0,,0,50,50,68,1,VALLEY,C,old,m,./images/VALLEY.png,,,,,,,,,,,,,,,,,,,,,
,,,,,,,,,,,,,,,,,200485,19,2022-01-29_14h56.36,lexical_decision_task_DD_L5,2021.2.3,MacIntel,58.82352941,,,,,,,,,,,1.015,1,,,,,,,,,,,,,,m,1,1.015,,,,,,,,-0.8,0.5,0,0,0,,0,51,51,77,1,WHEEL,C,old,m,./images/WHEEL.png,,,,,,,,,,,,,,,,,,,,,
,,,,,,,,,,,,,,,,,200485,19,2022-01-29_14h56.36,lexical_decision_task_DD_L5,2021.2.3,MacIntel,58.82352941,,,,,,,,,,,1.316,1,,,,,,,,,,,,,,z,1,1.316,,,,,,,,-0.8,0.5,0,0,0,,0,52,52,166,1,SHORY,HB,old,z,./images/SHORYHB.png,,,,,,,,,,,,,,,,,,,,,
,,,,,,,,,,,,,,,,,200485,19,2022-01-29_14h56.36,lexical_decision_task_DD_L5,2021.2.3,MacIntel,58.82352941,,,,,,,,,,,1.282,1,,,,,,,,,,,,,,z,1,1.282,,,,,,,,-0.8,0.5,0,0,0,,0,53,53,123,1,SEDGE,C,old,z,./images/SEDGE.png,,,,,,,,,,,,,,,,,,,,,
,,,,,,,,,,,,,,,,,200485,19,2022-01-29_14h56.36,lexical_decision_task_DD_L5,2021.2.3,MacIntel,58.82352941,,,,,,,,,,,0.776,1,,,,,,,,,,,,,,m,1,0.776,,,,,,,,-0.8,0.5,0,0,0,,0,54,54,60,1,CURRY,HB,old,m,./images/CURRYHB.png,,,,,,,,,,,,,,,,,,,,,
,,,,,,,,,,,,,,,,,200485,19,2022-01-29_14h56.36,lexical_decision_task_DD_L5,2021.2.3,MacIntel,58.82352941,,,,,,,,,,,0.778,1,,,,,,,,,,,,,,z,1,0.778,,,,,,,,-0.8,0.5,0,0,0,,0,55,55,147,1,ZOLES,C,old,z,./images/ZOLES.png,,,,,,,,,,,,,,,,,,,,,
,,,,,,,,,,,,,,,,,200485,19,2022-01-29_14h56.36,lexical_decision_task_DD_L5,2021.2.3,MacIntel,58.82352941,,,,,,,,,,,1.263,1,,,,,,,,,,,,,,m,1,1.263,,,,,,,,-0.8,0.5,0,0,0,,0,56,56,48,1,SHIELD,HB,old,m,./images/SHIELDHB.png,,,,,,,,,,,,,,,,,,,,,
,,,,,,,,,,,,,,,,,200485,19,2022-01-29_14h56.36,lexical_decision_task_DD_L5,2021.2.3,MacIntel,58.82352941,,,,,,,,,,,0.731,1,,,,,,,,,,,,,,m,1,0.731,,,,,,,,-0.8,0.5,0,0,0,,0,57,57,30,1,SLOPE,HB,old,m,./images/SLOPEHB.png,,,,,,,,,,,,,,,,,,,,,
,,,,,,,,,,,,,,,,,200485,19,2022-01-29_14h56.36,lexical_decision_task_DD_L5,2021.2.3,MacIntel,58.82352941,,,,,,,,,,,0.848,1,,,,,,,,,,,,,,z,1,0.848,,,,,,,,-0.8,0.5,0,0,0,,0,58,58,143,1,MONGS,LB,old,z,./images/MONGSLB.png,,,,,,,,,,,,,,,,,,,,,
,,,,,,,,,,,,,,,,,200485,19,2022-01-29_14h56.36,lexical_decision_task_DD_L5,2021.2.3,MacIntel,58.82352941,,,,,,,,,,,0.757,1,,,,,,,,,,,,,,m,1,0.757,,,,,,,,-0.8,0.5,0,0,0,,0,59,59,54,1,CHERRY,HB,old,m,./images/CHERRYHB.png,,,,,,,,,,,,,,,,,,,,,
,,,,,,,,,,,,,,,,,200485,19,2022-01-29_14h56.36,lexical_decision_task_DD_L5,2021.2.3,MacIntel,58.82352941,,,,,,,,,,,0.656,1,,,,,,,,,,,,,,m,1,0.656,,,,,,,,-0.8,0.5,0,0,0,,0,60,60,8,1,CLIFF,C,old,m,./images/CLIFF.png,,,,,,,,,,,,,,,,,,,,,
,,,,,,,,,,,,,,,,,200485,19,2022-01-29_14h56.36,lexical_decision_task_DD_L5,2021.2.3,MacIntel,58.82352941,,,,,,,,,,,0.874,1,,,,,,,,,,,,,,m,1,0.874,,,,,,,,-0.8,0.5,0,0,0,,0,61,61,44,1,BASKET,C,old,m,./images/BASKET.png,,,,,,,,,,,,,,,,,,,,,
,,,,,,,,,,,,,,,,,200485,19,2022-01-29_14h56.36,lexical_decision_task_DD_L5,2021.2.3,MacIntel,58.82352941,,,,,,,,,,,0.647,1,,,,,,,,,,,,,,z,1,0.647,,,,,,,,-0.8,0.5,0,0,0,,0,62,62,84,1,HAXES,C,old,z,./images/HAXES.png,,,,,,,,,,,,,,,,,,,,,
,,,,,,,,,,,,,,,,,200485,19,2022-01-29_14h56.36,lexical_decision_task_DD_L5,2021.2.3,MacIntel,58.82352941,,,,,,,,,,,0.903,1,,,,,,,,,,,,,,z,1,0.903,,,,,,,,-0.8,0.5,0,0,0,,0,63,63,124,1,TUNCH,HB,old,z,./images/TUNCHHB.png,,,,,,,,,,,,,,,,,,,,,
,,,,,,,,,,,,,,,,,200485,19,2022-01-29_14h56.36,lexical_decision_task_DD_L5,2021.2.3,MacIntel,58.82352941,,,,,,,,,,,0.752,1,,,,,,,,,,,,,,z,1,0.752,,,,,,,,-0.8,0.5,0,0,0,,0,64,64,99,1,BACKY,C,old,z,./images/BACKY.png,,,,,,,,,,,,,,,,,,,,,
,,,,,,,,,,,,,,,,,200485,19,2022-01-29_14h56.36,lexical_decision_task_DD_L5,2021.2.3,MacIntel,58.82352941,,,,,,,,,,,0.75,1,,,,,,,,,,,,,,z,1,0.75,,,,,,,,-0.8,0.5,0,0,0,,0,65,65,90,1,NEAST,C,old,z,./images/NEAST.png,,,,,,,,,,,,,,,,,,,,,
,,,,,,,,,,,,,,,,,200485,19,2022-01-29_14h56.36,lexical_decision_task_DD_L5,2021.2.3,MacIntel,58.82352941,,,,,,,,,,,0.753,1,,,,,,,,,,,,,,m,1,0.753,,,,,,,,-0.8,0.5,0,0,0,,0,66,66,7,1,WAGON,LB,old,m,./images/WAGONLB.png,,,,,,,,,,,,,,,,,,,,,
,,,,,,,,,,,,,,,,,200485,19,2022-01-29_14h56.36,lexical_decision_task_DD_L5,2021.2.3,MacIntel,58.82352941,,,,,,,,,,,0.734,0,,,,,,,,,,,,,,z,0,0.734,,,,,,,,-0.8,0.5,0,0,0,,0,67,67,20,1,GRANNY,C,old,m,./images/GRANNY.png,,,,,,,,,,,,,,,,,,,,,
,,,,,,,,,,,,,,,,,200485,19,2022-01-29_14h56.36,lexical_decision_task_DD_L5,2021.2.3,MacIntel,58.82352941,,,,,,,,,,,0.624,1,,,,,,,,,,,,,,z,1,0.624,,,,,,,,-0.8,0.5,0,0,0,,0,68,68,96,1,KEAMS,C,old,z,./images/KEAMS.png,,,,,,,,,,,,,,,,,,,,,
,,,,,,,,,,,,,,,,,200485,19,2022-01-29_14h56.36,lexical_decision_task_DD_L5,2021.2.3,MacIntel,58.82352941,,,,,,,,,,,0.629,1,,,,,,,,,,,,,,m,1,0.629,,,,,,,,-0.8,0.5,0,0,0,,0,69,69,61,1,ARTIST,LB,old,m,./images/ARTISTLB.png,,,,,,,,,,,,,,,,,,,,,
,,,,,,,,,,,,,,,,,200485,19,2022-01-29_14h56.36,lexical_decision_task_DD_L5,2021.2.3,MacIntel,58.82352941,,,,,,,,,,,1.355,1,,,,,,,,,,,,,,z,1,1.355,,,,,,,,-0.8,0.5,0,0,0,,0,70,70,163,1,GAMBA,HB,old,z,./images/GAMBAHB.png,,,,,,,,,,,,,,,,,,,,,
,,,,,,,,,,,,,,,,,200485,19,2022-01-29_14h56.36,lexical_decision_task_DD_L5,2021.2.3,MacIntel,58.82352941,,,,,,,,,,,0.695,1,,,,,,,,,,,,,,z,1,0.695,,,,,,,,-0.8,0.5,0,0,0,,0,71,71,164,1,SGREW,LB,old,z,./images/SGREWLB.png,,,,,,,,,,,,,,,,,,,,,
,,,,,,,,,,,,,,,,,200485,19,2022-01-29_14h56.36,lexical_decision_task_DD_L5,2021.2.3,MacIntel,58.82352941,,,,,,,,,,,0.673,1,,,,,,,,,,,,,,m,1,0.673,,,,,,,,-0.8,0.5,0,0,0,,0,72,72,40,1,SNAKE,LB,old,m,./images/SNAKELB.png,,,,,,,,,,,,,,,,,,,,,
,,,,,,,,,,,,,,,,,200485,19,2022-01-29_14h56.36,lexical_decision_task_DD_L5,2021.2.3,MacIntel,58.82352941,,,,,,,,,,,0.764,1,,,,,,,,,,,,,,m,1,0.764,,,,,,,,-0.8,0.5,0,0,0,,0,73,73,71,1,BUBBLE,C,old,m,./images/BUBBLE.png,,,,,,,,,,,,,,,,,,,,,
,,,,,,,,,,,,,,,,,200485,19,2022-01-29_14h56.36,lexical_decision_task_DD_L5,2021.2.3,MacIntel,58.82352941,,,,,,,,,,,0.646,1,,,,,,,,,,,,,,z,1,0.646,,,,,,,,-0.8,0.5,0,0,0,,0,74,74,109,1,BURGE,HB,old,z,./images/BURGEHB.png,,,,,,,,,,,,,,,,,,,,,
,,,,,,,,,,,,,,,,,200485,19,2022-01-29_14h56.36,lexical_decision_task_DD_L5,2021.2.3,MacIntel,58.82352941,,,,,,,,,,,0.611,1,,,,,,,,,,,,,,m,1,0.611,,,,,,,,-0.8,0.5,0,0,0,,0,75,75,26,1,CLOUD,C,old,m,./images/CLOUD.png,,,,,,,,,,,,,,,,,,,,,
,,,,,,,,,,,,,,,,,200485,19,2022-01-29_14h56.36,lexical_decision_task_DD_L5,2021.2.3,MacIntel,58.82352941,,,,,,,,,,,0.61,1,,,,,,,,,,,,,,z,1,0.61,,,,,,,,-0.8,0.5,0,0,0,,0,76,76,101,1,GLEET,LB,old,z,./images/GLEETLB.png,,,,,,,,,,,,,,,,,,,,,
,,,,,,,,,,,,,,,,,200485,19,2022-01-29_14h56.36,lexical_decision_task_DD_L5,2021.2.3,MacIntel,58.82352941,,,,,,,,,,,0.657,1,,,,,,,,,,,,,,z,1,0.657,,,,,,,,-0.8,0.5,0,0,0,,0,77,77,129,1,PRANS,C,old,z,./images/PRANS.png,,,,,,,,,,,,,,,,,,,,,
,,,,,,,,,,,,,,,,,200485,19,2022-01-29_14h56.36,lexical_decision_task_DD_L5,2021.2.3,MacIntel,58.82352941,,,,,,,,,,,0.604,1,,,,,,,,,,,,,,z,1,0.604,,,,,,,,-0.8,0.5,0,0,0,,0,78,78,155,1,CANGY,LB,old,z,./images/CANGYLB.png,,,,,,,,,,,,,,,,,,,,,
,,,,,,,,,,,,,,,,,200485,19,2022-01-29_14h56.36,lexical_decision_task_DD_L5,2021.2.3,MacIntel,58.82352941,,,,,,,,,,,0.65,1,,,,,,,,,,,,,,z,1,0.65,,,,,,,,-0.8,0.5,0,0,0,,0,79,79,144,1,NAIRY,C,old,z,./images/NAIRY.png,,,,,,,,,,,,,,,,,,,,,
,,,,,,,,,,,,,,,,,200485,19,2022-01-29_14h56.36,lexical_decision_task_DD_L5,2021.2.3,MacIntel,58.82352941,,,,,,,,,,,0.665,1,,,,,,,,,,,,,,m,1,0.665,,,,,,,,-0.8,0.5,0,0,0,,0,80,80,51,1,SAUCE,HB,old,m,./images/SAUCEHB.png,,,,,,,,,,,,,,,,,,,,,
,,,,,,,,,,,,,,,,,200485,19,2022-01-29_14h56.36,lexical_decision_task_DD_L5,2021.2.3,MacIntel,58.82352941,,,,,,,,,,,0.737,1,,,,,,,,,,,,,,z,1,0.737,,,,,,,,-0.8,0.5,0,0,0,,0,81,81,108,1,GRUET,C,old,z,./images/GRUET.png,,,,,,,,,,,,,,,,,,,,,
,,,,,,,,,,,,,,,,,200485,19,2022-01-29_14h56.36,lexical_decision_task_DD_L5,2021.2.3,MacIntel,58.82352941,,,,,,,,,,,0.714,1,,,,,,,,,,,,,,z,1,0.714,,,,,,,,-0.8,0.5,0,0,0,,0,82,82,137,1,JOOST,LB,old,z,./images/JOOSTLB.png,,,,,,,,,,,,,,,,,,,,,
,,,,,,,,,,,,,,,,,200485,19,2022-01-29_14h56.36,lexical_decision_task_DD_L5,2021.2.3,MacIntel,58.82352941,,,,,,,,,,,0.554,1,,,,,,,,,,,,,,z,1,0.554,,,,,,,,-0.8,0.5,0,0,0,space,0,83,83,98,1,BAMPS,LB,old,z,./images/BAMPSLB.png,6.093,,,,,,,,,,,,,,,,,,,,
,,,,,,,,,,,,,,,,,200485,19,2022-01-29_14h56.36,lexical_decision_task_DD_L5,2021.2.3,MacIntel,58.82352941,,,,,,,,,,,1.853,1,,,,,,,,,,,,,,z,1,1.853,,,,,,,,-0.8,0.5,0,0,0,,0,84,84,151,1,TINKY,HB,old,z,./images/TINKYHB.png,,,,,,,,,,,,,,,,,,,,,
,,,,,,,,,,,,,,,,,200485,19,2022-01-29_14h56.36,lexical_decision_task_DD_L5,2021.2.3,MacIntel,58.82352941,,,,,,,,,,,0.848,1,,,,,,,,,,,,,,m,1,0.848,,,,,,,,-0.8,0.5,0,0,0,,0,85,85,14,1,FENCE,C,old,m,./images/FENCE.png,,,,,,,,,,,,,,,,,,,,,
,,,,,,,,,,,,,,,,,200485,19,2022-01-29_14h56.36,lexical_decision_task_DD_L5,2021.2.3,MacIntel,58.82352941,,,,,,,,,,,0.619,1,,,,,,,,,,,,,,m,1,0.619,,,,,,,,-0.8,0.5,0,0,0,,0,86,86,34,1,RAZOR,LB,old,m,./images/RAZORLB.png,,,,,,,,,,,,,,,,,,,,,
,,,,,,,,,,,,,,,,,200485,19,2022-01-29_14h56.36,lexical_decision_task_DD_L5,2021.2.3,MacIntel,58.82352941,,,,,,,,,,,0.65,1,,,,,,,,,,,,,,m,1,0.65,,,,,,,,-0.8,0.5,0,0,0,,0,87,87,56,1,HEATER,C,old,m,./images/HEATER.png,,,,,,,,,,,,,,,,,,,,,
,,,,,,,,,,,,,,,,,200485,19,2022-01-29_14h56.36,lexical_decision_task_DD_L5,2021.2.3,MacIntel,58.82352941,,,,,,,,,,,0.755,1,,,,,,,,,,,,,,z,1,0.755,,,,,,,,-0.8,0.5,0,0,0,,0,88,88,139,1,BLEAR,HB,old,z,./images/BLEARHB.png,,,,,,,,,,,,,,,,,,,,,
,,,,,,,,,,,,,,,,,200485,19,2022-01-29_14h56.36,lexical_decision_task_DD_L5,2021.2.3,MacIntel,58.82352941,,,,,,,,,,,1.527,1,,,,,,,,,,,,,,m,1,1.527,,,,,,,,-0.8,0.5,0,0,0,,0,89,89,45,1,MONKEY,HB,old,m,./images/MONKEYHB.png,,,,,,,,,,,,,,,,,,,,,
,,,,,,,,,,,,,,,,,200485,19,2022-01-29_14h56.36,lexical_decision_task_DD_L5,2021.2.3,MacIntel,58.82352941,,,,,,,,,,,0.603,1,,,,,,,,,,,,,,m,1,0.603,,,,,,,,-0.8,0.5,0,0,0,,0,90,90,16,1,GRAPE,LB,old,m,./images/GRAPELB.png,,,,,,,,,,,,,,,,,,,,,
,,,,,,,,,,,,,,,,,200485,19,2022-01-29_14h56.36,lexical_decision_task_DD_L5,2021.2.3,MacIntel,58.82352941,,,,,,,,,,,1.512,1,,,,,,,,,,,,,,z,1,1.512,,,,,,,,-0.8,0.5,0,0,0,,0,91,91,127,1,NINDY,HB,old,z,./images/NINDYHB.png,,,,,,,,,,,,,,,,,,,,,
,,,,,,,,,,,,,,,,,200485,19,2022-01-29_14h56.36,lexical_decision_task_DD_L5,2021.2.3,MacIntel,58.82352941,,,,,,,,,,,1.536,1,,,,,,,,,,,,,,z,1,1.536,,,,,,,,-0.8,0.5,0,0,0,,0,92,92,121,1,CEERS,HB,old,z,./images/CEERSHB.png,,,,,,,,,,,,,,,,,,,,,
,,,,,,,,,,,,,,,,,200485,19,2022-01-29_14h56.36,lexical_decision_task_DD_L5,2021.2.3,MacIntel,58.82352941,,,,,,,,,,,1.03,1,,,,,,,,,,,,,,m,1,1.03,,,,,,,,-0.8,0.5,0,0,0,,0,93,93,6,1,STAIN,HB,old,m,./images/STAINHB.png,,,,,,,,,,,,,,,,,,,,,
,,,,,,,,,,,,,,,,,200485,19,2022-01-29_14h56.36,lexical_decision_task_DD_L5,2021.2.3,MacIntel,58.82352941,,,,,,,,,,,0.772,1,,,,,,,,,,,,,,z,1,0.772,,,,,,,,-0.8,0.5,0,0,0,,0,94,94,119,1,PAFER,LB,old,z,./images/PAFERLB.png,,,,,,,,,,,,,,,,,,,,,
,,,,,,,,,,,,,,,,,200485,19,2022-01-29_14h56.36,lexical_decision_task_DD_L5,2021.2.3,MacIntel,58.82352941,,,,,,,,,,,1.11,1,,,,,,,,,,,,,,z,1,1.11,,,,,,,,-0.8,0.5,0,0,0,,0,95,95,145,1,LAMEL,HB,old,z,./images/LAMELHB.png,,,,,,,,,,,,,,,,,,,,,
,,,,,,,,,,,,,,,,,200485,19,2022-01-29_14h56.36,lexical_decision_task_DD_L5,2021.2.3,MacIntel,58.82352941,,,,,,,,,,,0.625,1,,,,,,,,,,,,,,m,1,0.625,,,,,,,,-0.8,0.5,0,0,0,,0,96,96,17,1,PARADE,C,old,m,./images/PARADE.png,,,,,,,,,,,,,,,,,,,,,
,,,,,,,,,,,,,,,,,200485,19,2022-01-29_14h56.36,lexical_decision_task_DD_L5,2021.2.3,MacIntel,58.82352941,,,,,,,,,,,0.754,1,,,,,,,,,,,,,,m,1,0.754,,,,,,,,-0.8,0.5,0,0,0,,0,97,97,11,1,MEDAL,C,old,m,./images/MEDAL.png,,,,,,,,,,,,,,,,,,,,,
,,,,,,,,,,,,,,,,,200485,19,2022-01-29_14h56.36,lexical_decision_task_DD_L5,2021.2.3,MacIntel,58.82352941,,,,,,,,,,,0.653,1,,,,,,,,,,,,,,m,1,0.653,,,,,,,,-0.8,0.5,0,0,0,,0,98,98,75,1,HAMMER,HB,old,m,./images/HAMMERHB.png,,,,,,,,,,,,,,,,,,,,,
,,,,,,,,,,,,,,,,,200485,19,2022-01-29_14h56.36,lexical_decision_task_DD_L5,2021.2.3,MacIntel,58.82352941,,,,,,,,,,,0.66,1,,,,,,,,,,,,,,m,1,0.66,,,,,,,,-0.8,0.5,0,0,0,,0,99,99,22,1,CLOWN,LB,old,m,./images/CLOWNLB.png,,,,,,,,,,,,,,,,,,,,,
,,,,,,,,,,,,,,,,,200485,19,2022-01-29_14h56.36,lexical_decision_task_DD_L5,2021.2.3,MacIntel,58.82352941,,,,,,,,,,,0.948,1,,,,,,,,,,,,,,z,1,0.948,,,,,,,,-0.8,0.5,0,0,0,,0,100,100,97,1,CHIDS,HB,old,z,./images/CHIDSHB.png,,,,,,,,,,,,,,,,,,,,,
,,,,,,,,,,,,,,,,,200485,19,2022-01-29_14h56.36,lexical_decision_task_DD_L5,2021.2.3,MacIntel,58.82352941,,,,,,,,,,,1.599,1,,,,,,,,,,,,,,m,1,1.599,,,,,,,,-0.8,0.5,0,0,0,,0,101,101,63,1,BAKER,HB,old,m,./images/BAKERHB.png,,,,,,,,,,,,,,,,,,,,,
,,,,,,,,,,,,,,,,,200485,19,2022-01-29_14h56.36,lexical_decision_task_DD_L5,2021.2.3,MacIntel,58.82352941,,,,,,,,,,,0.732,1,,,,,,,,,,,,,,z,1,0.732,,,,,,,,-0.8,0.5,0,0,0,,0,102,102,141,1,PLEET,C,old,z,./images/PLEET.png,,,,,,,,,,,,,,,,,,,,,
,,,,,,,,,,,,,,,,,200485,19,2022-01-29_14h56.36,lexical_decision_task_DD_L5,2021.2.3,MacIntel,58.82352941,,,,,,,,,,,0.712,1,,,,,,,,,,,,,,m,1,0.712,,,,,,,,-0.8,0.5,0,0,0,,0,103,103,69,1,ARROW,HB,old,m,./images/ARROWHB.png,,,,,,,,,,,,,,,,,,,,,
,,,,,,,,,,,,,,,,,200485,19,2022-01-29_14h56.36,lexical_decision_task_DD_L5,2021.2.3,MacIntel,58.82352941,,,,,,,,,,,0.728,1,,,,,,,,,,,,,,z,1,0.728,,,,,,,,-0.8,0.5,0,0,0,,0,104,104,92,1,PAIMS,LB,old,z,./images/PAIMSLB.png,,,,,,,,,,,,,,,,,,,,,
,,,,,,,,,,,,,,,,,200485,19,2022-01-29_14h56.36,lexical_decision_task_DD_L5,2021.2.3,MacIntel,58.82352941,,,,,,,,,,,0.649,1,,,,,,,,,,,,,,m,1,0.649,,,,,,,,-0.8,0.5,0,0,0,,0,105,105,19,1,DONKEY,LB,old,m,./images/DONKEYLB.png,,,,,,,,,,,,,,,,,,,,,
,,,,,,,,,,,,,,,,,200485,19,2022-01-29_14h56.36,lexical_decision_task_DD_L5,2021.2.3,MacIntel,58.82352941,,,,,,,,,,,1.046,1,,,,,,,,,,,,,,z,1,1.046,,,,,,,,-0.8,0.5,0,0,0,,0,106,106,91,1,SHENS,HB,old,z,./images/SHENSHB.png,,,,,,,,,,,,,,,,,,,,,
,,,,,,,,,,,,,,,,,200485,19,2022-01-29_14h56.36,lexical_decision_task_DD_L5,2021.2.3,MacIntel,58.82352941,,,,,,,,,,,0.972,1,,,,,,,,,,,,,,z,1,0.972,,,,,,,,-0.8,0.5,0,0,0,,0,107,107,85,1,CHULK,HB,old,z,./images/CHULKHB.png,,,,,,,,,,,,,,,,,,,,,
,,,,,,,,,,,,,,,,,200485,19,2022-01-29_14h56.36,lexical_decision_task_DD_L5,2021.2.3,MacIntel,58.82352941,,,,,,,,,,,0.614,1,,,,,,,,,,,,,,m,1,0.614,,,,,,,,-0.8,0.5,0,0,0,,0,108,108,65,1,SPINE,C,old,m,./images/SPINE.png,,,,,,,,,,,,,,,,,,,,,
,,,,,,,,,,,,,,,,,200485,19,2022-01-29_14h56.36,lexical_decision_task_DD_L5,2021.2.3,MacIntel,58.82352941,,,,,,,,,,,0.653,1,,,,,,,,,,,,,,z,1,0.653,,,,,,,,-0.8,0.5,0,0,0,,0,109,109,112,1,MYING,HB,old,z,./images/MYINGHB.png,,,,,,,,,,,,,,,,,,,,,
,,,,,,,,,,,,,,,,,200485,19,2022-01-29_14h56.36,lexical_decision_task_DD_L5,2021.2.3,MacIntel,58.82352941,,,,,,,,,,,0.797,1,,,,,,,,,,,,,,z,1,0.797,,,,,,,,-0.8,0.5,0,0,0,,0,110,110,86,1,AIFED,LB,old,z,./images/AIFEDLB.png,,,,,,,,,,,,,,,,,,,,,
,,,,,,,,,,,,,,,,,200485,19,2022-01-29_14h56.36,lexical_decision_task_DD_L5,2021.2.3,MacIntel,58.82352941,,,,,,,,,,,0.662,1,,,,,,,,,,,,,,m,1,0.662,,,,,,,,-0.8,0.5,0,0,0,,0,111,111,64,1,BRIDE,LB,old,m,./images/BRIDELB.png,,,,,,,,,,,,,,,,,,,,,
,,,,,,,,,,,,,,,,,200485,19,2022-01-29_14h56.36,lexical_decision_task_DD_L5,2021.2.3,MacIntel,58.82352941,,,,,,,,,,,0.72,1,,,,,,,,,,,,,,m,1,0.72,,,,,,,,-0.8,0.5,0,0,0,,0,112,112,24,1,FLESH,HB,old,m,./images/FLESHHB.png,,,,,,,,,,,,,,,,,,,,,
,,,,,,,,,,,,,,,,,200485,19,2022-01-29_14h56.36,lexical_decision_task_DD_L5,2021.2.3,MacIntel,58.82352941,,,,,,,,,,,1.129,1,,,,,,,,,,,,,,m,1,1.129,,,,,,,,-0.8,0.5,0,0,0,,0,113,113,67,1,POKER,LB,old,m,./images/POKERLB.png,,,,,,,,,,,,,,,,,,,,,
,,,,,,,,,,,,,,,,,200485,19,2022-01-29_14h56.36,lexical_decision_task_DD_L5,2021.2.3,MacIntel,58.82352941,,,,,,,,,,,0.602,1,,,,,,,,,,,,,,z,1,0.602,,,,,,,,-0.8,0.5,0,0,0,,0,114,114,133,1,POWDY,HB,old,z,./images/POWDYHB.png,,,,,,,,,,,,,,,,,,,,,
,,,,,,,,,,,,,,,,,200485,19,2022-01-29_14h56.36,lexical_decision_task_DD_L5,2021.2.3,MacIntel,58.82352941,,,,,,,,,,,0.831,1,,,,,,,,,,,,,,m,1,0.831,,,,,,,,-0.8,0.5,0,0,0,,0,115,115,49,1,BISHOP,LB,old,m,./images/BISHOPLB.png,,,,,,,,,,,,,,,,,,,,,
,,,,,,,,,,,,,,,,,200485,19,2022-01-29_14h56.36,lexical_decision_task_DD_L5,2021.2.3,MacIntel,58.82352941,,,,,,,,,,,1.056,1,,,,,,,,,,,,,,m,1,1.056,,,,,,,,-0.8,0.5,0,0,0,,0,116,116,38,1,ENGINE,C,old,m,./images/ENGINE.png,,,,,,,,,,,,,,,,,,,,,
,,,,,,,,,,,,,,,,,200485,19,2022-01-29_14h56.36,lexical_decision_task_DD_L5,2021.2.3,MacIntel,58.82352941,,,,,,,,,,,0.645,1,,,,,,,,,,,,,,m,1,0.645,,,,,,,,-0.8,0.5,0,0,0,,0,117,117,55,1,ALLEY,LB,old,m,./images/ALLEYLB.png,,,,,,,,,,,,,,,,,,,,,
,,,,,,,,,,,,,,,,,200485,19,2022-01-29_14h56.36,lexical_decision_task_DD_L5,2021.2.3,MacIntel,58.82352941,,,,,,,,,,,0.947,1,,,,,,,,,,,,,,m,1,0.947,,,,,,,,-0.8,0.5,0,0,0,,0,118,118,78,1,BROOM,HB,old,m,./images/BROOMHB.png,,,,,,,,,,,,,,,,,,,,,
,,,,,,,,,,,,,,,,,200485,19,2022-01-29_14h56.36,lexical_decision_task_DD_L5,2021.2.3,MacIntel,58.82352941,,,,,,,,,,,0.881,1,,,,,,,,,,,,,,z,1,0.881,,,,,,,,-0.8,0.5,0,0,0,,0,119,119,128,1,GRIFT,LB,old,z,./images/GRIFTLB.png,,,,,,,,,,,,,,,,,,,,,
,,,,,,,,,,,,,,,,,200485,19,2022-01-29_14h56.36,lexical_decision_task_DD_L5,2021.2.3,MacIntel,58.82352941,,,,,,,,,,,0.729,0,,,,,,,,,,,,,,z,0,0.729,,,,,,,,-0.8,0.5,0,0,0,,0,120,120,81,1,DRILL,HB,old,m,./images/DRILLHB.png,,,,,,,,,,,,,,,,,,,,,
,,,,,,,,,,,,,,,,,200485,19,2022-01-29_14h56.36,lexical_decision_task_DD_L5,2021.2.3,MacIntel,58.82352941,,,,,,,,,,,0.846,1,,,,,,,,,,,,,,m,1,0.846,,,,,,,,-0.8,0.5,0,0,0,,0,121,121,46,1,MUMMY,LB,old,m,./images/MUMMYLB.png,,,,,,,,,,,,,,,,,,,,,
,,,,,,,,,,,,,,,,,200485,19,2022-01-29_14h56.36,lexical_decision_task_DD_L5,2021.2.3,MacIntel,58.82352941,,,,,,,,,,,0.72,1,,,,,,,,,,,,,,m,1,0.72,,,,,,,,-0.8,0.5,0,0,0,,0,122,122,74,1,JUMPER,C,old,m,./images/JUMPER.png,,,,,,,,,,,,,,,,,,,,,
,,,,,,,,,,,,,,,,,200485,19,2022-01-29_14h56.36,lexical_decision_task_DD_L5,2021.2.3,MacIntel,58.82352941,,,,,,,,,,,0.896,1,,,,,,,,,,,,,,z,1,0.896,,,,,,,,-0.8,0.5,0,0,0,,0,123,123,159,1,CUDDY,C,old,z,./images/CUDDY.png,,,,,,,,,,,,,,,,,,,,,
,,,,,,,,,,,,,,,,,200485,19,2022-01-29_14h56.36,lexical_decision_task_DD_L5,2021.2.3,MacIntel,58.82352941,,,,,,,,,,,0.947,1,,,,,,,,,,,,,,z,1,0.947,,,,,,,,-0.8,0.5,0,0,0,,0,124,124,107,1,FASKS,LB,old,z,./images/FASKSLB.png,,,,,,,,,,,,,,,,,,,,,
,,,,,,,,,,,,,,,,,200485,19,2022-01-29_14h56.36,lexical_decision_task_DD_L5,2021.2.3,MacIntel,58.82352941,,,,,,,,,,,0.659,1,,,,,,,,,,,,,,z,1,0.659,,,,,,,,-0.8,0.5,0,0,0,space,0,125,125,111,1,HOSSE,C,old,z,./images/HOSSE.png,43.576,,,,,,,,,,,,,,,,,,,,
,,,,,,,,,,,,,,,,,200485,19,2022-01-29_14h56.36,lexical_decision_task_DD_L5,2021.2.3,MacIntel,58.82352941,,,,,,,,,,,1.561,1,,,,,,,,,,,,,,z,1,1.561,,,,,,,,-0.8,0.5,0,0,0,,0,126,126,103,1,FLORT,HB,old,z,./images/FLORTHB.png,,,,,,,,,,,,,,,,,,,,,
,,,,,,,,,,,,,,,,,200485,19,2022-01-29_14h56.36,lexical_decision_task_DD_L5,2021.2.3,MacIntel,58.82352941,,,,,,,,,,,0.984,1,,,,,,,,,,,,,,z,1,0.984,,,,,,,,-0.8,0.5,0,0,0,,0,127,127,113,1,LINEW,LB,old,z,./images/LINEWLB.png,,,,,,,,,,,,,,,,,,,,,
,,,,,,,,,,,,,,,,,200485,19,2022-01-29_14h56.36,lexical_decision_task_DD_L5,2021.2.3,MacIntel,58.82352941,,,,,,,,,,,0.963,1,,,,,,,,,,,,,,z,1,0.963,,,,,,,,-0.8,0.5,0,0,0,,0,128,128,116,1,BALGY,LB,old,z,./images/BALGYLB.png,,,,,,,,,,,,,,,,,,,,,
,,,,,,,,,,,,,,,,,200485,19,2022-01-29_14h56.36,lexical_decision_task_DD_L5,2021.2.3,MacIntel,58.82352941,,,,,,,,,,,0.706,1,,,,,,,,,,,,,,m,1,0.706,,,,,,,,-0.8,0.5,0,0,0,,0,129,129,5,1,BAMBOO,C,old,m,./images/BAMBOO.png,,,,,,,,,,,,,,,,,,,,,
,,,,,,,,,,,,,,,,,200485,19,2022-01-29_14h56.36,lexical_decision_task_DD_L5,2021.2.3,MacIntel,58.82352941,,,,,,,,,,,1.376,1,,,,,,,,,,,,,,m,1,1.376,,,,,,,,-0.8,0.5,0,0,0,,0,130,130,36,1,BOILER,HB,old,m,./images/BOILERHB.png,,,,,,,,,,,,,,,,,,,,,
,,,,,,,,,,,,,,,,,200485,19,2022-01-29_14h56.36,lexical_decision_task_DD_L5,2021.2.3,MacIntel,58.82352941,,,,,,,,,,,0.671,1,,,,,,,,,,,,,,z,1,0.671,,,,,,,,-0.8,0.5,0,0,0,,0,131,131,161,1,BLAPS,LB,old,z,./images/BLAPSLB.png,,,,,,,,,,,,,,,,,,,,,
,,,,,,,,,,,,,,,,,200485,19,2022-01-29_14h56.36,lexical_decision_task_DD_L5,2021.2.3,MacIntel,58.82352941,,,,,,,,,,,0.605,1,,,,,,,,,,,,,,z,1,0.605,,,,,,,,-0.8,0.5,0,0,0,,0,132,132,105,1,MOKER,C,old,z,./images/MOKER.png,,,,,,,,,,,,,,,,,,,,,
,,,,,,,,,,,,,,,,,200485,19,2022-01-29_14h56.36,lexical_decision_task_DD_L5,2021.2.3,MacIntel,58.82352941,,,,,,,,,,,1.295,1,,,,,,,,,,,,,,m,1,1.295,,,,,,,,-0.8,0.5,0,0,0,,0,133,133,9,1,DIVER,HB,old,m,./images/DIVERHB.png,,,,,,,,,,,,,,,,,,,,,
,,,,,,,,,,,,,,,,,200485,19,2022-01-29_14h56.36,lexical_decision_task_DD_L5,2021.2.3,MacIntel,58.82352941,,,,,,,,,,,0.796,1,,,,,,,,,,,,,,z,1,0.796,,,,,,,,-0.8,0.5,0,0,0,,0,134,134,136,1,WERVE,HB,old,z,./images/WERVEHB.png,,,,,,,,,,,,,,,,,,,,,
,,,,,,,,,,,,,,,,,200485,19,2022-01-29_14h56.36,lexical_decision_task_DD_L5,2021.2.3,MacIntel,58.82352941,,,,,,,,,,,0.737,1,,,,,,,,,,,,,,z,1,0.737,,,,,,,,-0.8,0.5,0,0,0,,0,135,135,152,1,FRAIN,LB,old,z,./images/FRAINLB.png,,,,,,,,,,,,,,,,,,,,,
,,,,,,,,,,,,,,,,,200485,19,2022-01-29_14h56.36,lexical_decision_task_DD_L5,2021.2.3,MacIntel,58.82352941,,,,,,,,,,,0.54,1,,,,,,,,,,,,,,z,1,0.54,,,,,,,,-0.8,0.5,0,0,0,,0,136,136,150,1,NOOLS,C,old,z,./images/NOOLS.png,,,,,,,,,,,,,,,,,,,,,
,,,,,,,,,,,,,,,,,200485,19,2022-01-29_14h56.36,lexical_decision_task_DD_L5,2021.2.3,MacIntel,58.82352941,,,,,,,,,,,0.437,0,,,,,,,,,,,,,,z,0,0.437,,,,,,,,-0.8,0.5,0,0,0,,0,137,137,58,1,CANOE,LB,old,m,./images/CANOELB.png,,,,,,,,,,,,,,,,,,,,,
,,,,,,,,,,,,,,,,,200485,19,2022-01-29_14h56.36,lexical_decision_task_DD_L5,2021.2.3,MacIntel,58.82352941,,,,,,,,,,,0.589,1,,,,,,,,,,,,,,z,1,0.589,,,,,,,,-0.8,0.5,0,0,0,,0,138,138,131,1,NACES,LB,old,z,./images/NACESLB.png,,,,,,,,,,,,,,,,,,,,,
,,,,,,,,,,,,,,,,,200485,19,2022-01-29_14h56.36,lexical_decision_task_DD_L5,2021.2.3,MacIntel,58.82352941,,,,,,,,,,,0.571,1,,,,,,,,,,,,,,z,1,0.571,,,,,,,,-0.8,0.5,0,0,0,,0,139,139,146,1,MOOST,LB,old,z,./images/MOOSTLB.png,,,,,,,,,,,,,,,,,,,,,
,,,,,,,,,,,,,,,,,200485,19,2022-01-29_14h56.36,lexical_decision_task_DD_L5,2021.2.3,MacIntel,58.82352941,,,,,,,,,,,0.676,1,,,,,,,,,,,,,,m,1,0.676,,,,,,,,-0.8,0.5,0,0,0,,0,140,140,10,1,GARDEN,LB,old,m,./images/GARDENLB.png,,,,,,,,,,,,,,,,,,,,,
,,,,,,,,,,,,,,,,,200485,19,2022-01-29_14h56.36,lexical_decision_task_DD_L5,2021.2.3,MacIntel,58.82352941,,,,,,,,,,,0.671,1,,,,,,,,,,,,,,z,1,0.671,,,,,,,,-0.8,0.5,0,0,0,,0,141,141,130,1,CRILL,HB,old,z,./images/CRILLHB.png,,,,,,,,,,,,,,,,,,,,,
,,,,,,,,,,,,,,,,,200485,19,2022-01-29_14h56.36,lexical_decision_task_DD_L5,2021.2.3,MacIntel,58.82352941,,,,,,,,,,,0.567,1,,,,,,,,,,,,,,z,1,0.567,,,,,,,,-0.8,0.5,0,0,0,,0,142,142,102,1,DULLE,C,old,z,./images/DULLE.png,,,,,,,,,,,,,,,,,,,,,
,,,,,,,,,,,,,,,,,200485,19,2022-01-29_14h56.36,lexical_decision_task_DD_L5,2021.2.3,MacIntel,58.82352941,,,,,,,,,,,0.64,1,,,,,,,,,,,,,,z,1,0.64,,,,,,,,-0.8,0.5,0,0,0,,0,143,143,110,1,CRUNK,LB,old,z,./images/CRUNKLB.png,,,,,,,,,,,,,,,,,,,,,
,,,,,,,,,,,,,,,,,200485,19,2022-01-29_14h56.36,lexical_decision_task_DD_L5,2021.2.3,MacIntel,58.82352941,,,,,,,,,,,0.674,1,,,,,,,,,,,,,,m,1,0.674,,,,,,,,-0.8,0.5,0,0,0,,0,144,144,73,1,GLOVE,LB,old,m,./images/GLOVELB.png,,,,,,,,,,,,,,,,,,,,,
,,,,,,,,,,,,,,,,,200485,19,2022-01-29_14h56.36,lexical_decision_task_DD_L5,2021.2.3,MacIntel,58.82352941,,,,,,,,,,,0.555,1,,,,,,,,,,,,,,z,1,0.555,,,,,,,,-0.8,0.5,0,0,0,,0,145,145,126,1,GUELS,C,old,z,./images/GUELS.png,,,,,,,,,,,,,,,,,,,,,
,,,,,,,,,,,,,,,,,200485,19,2022-01-29_14h56.36,lexical_decision_task_DD_L5,2021.2.3,MacIntel,58.82352941,,,,,,,,,,,0.487,0,,,,,,,,,,,,,,z,0,0.487,,,,,,,,-0.8,0.5,0,0,0,,0,146,146,66,1,STATUE,HB,old,m,./images/STATUEHB.png,,,,,,,,,,,,,,,,,,,,,
,,,,,,,,,,,,,,,,,200485,19,2022-01-29_14h56.36,lexical_decision_task_DD_L5,2021.2.3,MacIntel,58.82352941,,,,,,,,,,,2.273,1,,,,,,,,,,,,,,z,1,2.273,,,,,,,,-0.8,0.5,0,0,0,,0,147,147,134,1,TROSS,LB,old,z,./images/TROSSLB.png,,,,,,,,,,,,,,,,,,,,,
,,,,,,,,,,,,,,,,,200485,19,2022-01-29_14h56.36,lexical_decision_task_DD_L5,2021.2.3,MacIntel,58.82352941,,,,,,,,,,,1.437,1,,,,,,,,,,,,,,z,1,1.437,,,,,,,,-0.8,0.5,0,0,0,,0,148,148,160,1,VEETS,HB,old,z,./images/VEETSHB.png,,,,,,,,,,,,,,,,,,,,,
,,,,,,,,,,,,,,,,,200485,19,2022-01-29_14h56.36,lexical_decision_task_DD_L5,2021.2.3,MacIntel,58.82352941,,,,,,,,,,,0.651,1,,,,,,,,,,,,,,z,1,0.651,,,,,,,,-0.8,0.5,0,0,0,,0,149,149,114,1,RIKES,C,old,z,./images/RIKES.png,,,,,,,,,,,,,,,,,,,,,
,,,,,,,,,,,,,,,,,200485,19,2022-01-29_14h56.36,lexical_decision_task_DD_L5,2021.2.3,MacIntel,58.82352941,,,,,,,,,,,0.68,1,,,,,,,,,,,,,,m,1,0.68,,,,,,,,-0.8,0.5,0,0,0,,0,150,150,53,1,POSTER,C,old,m,./images/POSTER.png,,,,,,,,,,,,,,,,,,,,,
,,,,,,,,,,,,,,,,,200485,19,2022-01-29_14h56.36,lexical_decision_task_DD_L5,2021.2.3,MacIntel,58.82352941,,,,,,,,,,,0.645,1,,,,,,,,,,,,,,z,1,0.645,,,,,,,,-0.8,0.5,0,0,0,,0,151,151,125,1,MOOKY,LB,old,z,./images/MOOKYLB.png,,,,,,,,,,,,,,,,,,,,,
,,,,,,,,,,,,,,,,,200485,19,2022-01-29_14h56.36,lexical_decision_task_DD_L5,2021.2.3,MacIntel,58.82352941,,,,,,,,,,,0.755,1,,,,,,,,,,,,,,m,1,0.755,,,,,,,,-0.8,0.5,0,0,0,,0,152,152,2,1,STOVE,C,old,m,./images/STOVE.png,,,,,,,,,,,,,,,,,,,,,
,,,,,,,,,,,,,,,,,200485,19,2022-01-29_14h56.36,lexical_decision_task_DD_L5,2021.2.3,MacIntel,58.82352941,,,,,,,,,,,0.831,1,,,,,,,,,,,,,,m,1,0.831,,,,,,,,-0.8,0.5,0,0,0,,0,153,153,39,1,CANDY,HB,old,m,./images/CANDYHB.png,,,,,,,,,,,,,,,,,,,,,
,,,,,,,,,,,,,,,,,200485,19,2022-01-29_14h56.36,lexical_decision_task_DD_L5,2021.2.3,MacIntel,58.82352941,,,,,,,,,,,0.655,1,,,,,,,,,,,,,,m,1,0.655,,,,,,,,-0.8,0.5,0,0,0,,0,154,154,32,1,HOCKEY,C,old,m,./images/HOCKEY.png,,,,,,,,,,,,,,,,,,,,,
,,,,,,,,,,,,,,,,,200485,19,2022-01-29_14h56.36,lexical_decision_task_DD_L5,2021.2.3,MacIntel,58.82352941,,,,,,,,,,,0.605,1,,,,,,,,,,,,,,z,1,0.605,,,,,,,,-0.8,0.5,0,0,0,,0,155,155,138,1,PLICE,C,old,z,./images/PLICE.png,,,,,,,,,,,,,,,,,,,,,
,,,,,,,,,,,,,,,,,200485,19,2022-01-29_14h56.36,lexical_decision_task_DD_L5,2021.2.3,MacIntel,58.82352941,,,,,,,,,,,1.155,1,,,,,,,,,,,,,,m,1,1.155,,,,,,,,-0.8,0.5,0,0,0,,0,156,156,82,1,PEBBLE,LB,old,m,./images/PEBBLELB.png,,,,,,,,,,,,,,,,,,,,,
,,,,,,,,,,,,,,,,,200485,19,2022-01-29_14h56.36,lexical_decision_task_DD_L5,2021.2.3,MacIntel,58.82352941,,,,,,,,,,,0.68,1,,,,,,,,,,,,,,m,1,0.68,,,,,,,,-0.8,0.5,0,0,0,,0,157,157,15,1,COLLAR,HB,old,m,./images/COLLARHB.png,,,,,,,,,,,,,,,,,,,,,
,,,,,,,,,,,,,,,,,200485,19,2022-01-29_14h56.36,lexical_decision_task_DD_L5,2021.2.3,MacIntel,58.82352941,,,,,,,,,,,0.591,0,,,,,,,,,,,,,,z,0,0.591,,,,,,,,-0.8,0.5,0,0,0,,0,158,158,76,1,MIDGET,LB,old,m,./images/MIDGETLB.png,,,,,,,,,,,,,,,,,,,,,
,,,,,,,,,,,,,,,,,200485,19,2022-01-29_14h56.36,lexical_decision_task_DD_L5,2021.2.3,MacIntel,58.82352941,,,,,,,,,,,0.692,1,,,,,,,,,,,,,,z,1,0.692,,,,,,,,-0.8,0.5,0,0,0,,0,159,159,154,1,THINT,HB,old,z,./images/THINTHB.png,,,,,,,,,,,,,,,,,,,,,
,,,,,,,,,,,,,,,,,200485,19,2022-01-29_14h56.36,lexical_decision_task_DD_L5,2021.2.3,MacIntel,58.82352941,,,,,,,,,,,0.78,0,,,,,,,,,,,,,,z,0,0.78,,,,,,,,-0.8,0.5,0,0,0,,0,160,160,12,1,BLOKE,HB,old,m,./images/BLOKEHB.png,,,,,,,,,,,,,,,,,,,,,
,,,,,,,,,,,,,,,,,200485,19,2022-01-29_14h56.36,lexical_decision_task_DD_L5,2021.2.3,MacIntel,58.82352941,,,,,,,,,,,0.839,1,,,,,,,,,,,,,,m,1,0.839,,,,,,,,-0.8,0.5,0,0,0,,0,161,161,57,1,FERRY,HB,old,m,./images/FERRYHB.png,,,,,,,,,,,,,,,,,,,,,
,,,,,,,,,,,,,,,,,200485,19,2022-01-29_14h56.36,lexical_decision_task_DD_L5,2021.2.3,MacIntel,58.82352941,,,,,,,,,,,0.737,1,,,,,,,,,,,,,,m,1,0.737,,,,,,,,-0.8,0.5,0,0,0,,0,162,162,47,1,LAGOON,C,old,m,./images/LAGOON.png,,,,,,,,,,,,,,,,,,,,,
,,,,,,,,,,,,,,,,,200485,19,2022-01-29_14h56.36,lexical_decision_task_DD_L5,2021.2.3,MacIntel,58.82352941,,,,,,,,,,,1.038,1,,,,,,,,,,,,,,m,1,1.038,,,,,,,,-0.8,0.5,0,0,0,,0,163,163,42,1,CHAIN,HB,old,m,./images/CHAINHB.png,,,,,,,,,,,,,,,,,,,,,
,,,,,,,,,,,,,,,,,200485,19,2022-01-29_14h56.36,lexical_decision_task_DD_L5,2021.2.3,MacIntel,58.82352941,,,,,,,,,,,0.7,1,,,,,,,,,,,,,,z,1,0.7,,,,,,,,-0.8,0.5,0,0,0,,0,164,164,87,1,TRING,C,old,z,./images/TRING.png,,,,,,,,,,,,,,,,,,,,,
,,,,,,,,,,,,,,,,,200485,19,2022-01-29_14h56.36,lexical_decision_task_DD_L5,2021.2.3,MacIntel,58.82352941,,,,,,,,,,,0.627,1,,,,,,,,,,,,,,z,1,0.627,,,,,,,,-0.8,0.5,0,0,0,,0,165,165,89,1,DRIEK,LB,old,z,./images/DRIEKLB.png,,,,,,,,,,,,,,,,,,,,,
,,,,,,,,,,,,,,,,,200485,19,2022-01-29_14h56.36,lexical_decision_task_DD_L5,2021.2.3,MacIntel,58.82352941,,,,,,,,,,,0.59,1,,,,,,,,,,,,,,m,1,0.59,,,,,,,,-0.8,0.5,0,0,0,,0,166,166,4,1,BOXER,LB,old,m,./images/BOXERLB.png,,,,,,,,,,,,,,,,,,,,,
,,,,,,,,,,,,,,,,,200485,19,2022-01-29_14h56.36,lexical_decision_task_DD_L5,2021.2.3,MacIntel,58.82352941,,,,,,,,,,,2.478,1,,,,,,,,,,,,,,m,1,2.478,,,,,,,,-0.8,0.5,0,0,0,,0,167,167,1,1,TOWEL,LB,old,m,./images/TOWELLB.png,,,,,,,,,,,,,,,,,,,,,
space,30.595,-0.8,0.5,0,0,0,,,,,,1,test,"In the next phase you will be presented with the words from the the first phase. Your job is to decide whether you remember seeing the word or not. If you remember seeing the word press ""old"" or type ""m"". If you do not remember seeing the word press ""new"" or type ""z"". Please press the space bar or click on continue to begin. ",,,200485,19,2022-01-29_14h56.36,lexical_decision_task_DD_L5,2021.2.3,MacIntel,58.82352941,,,,,,,,,,,,,,,,,,,,,,,,,,,,,,,,,,,,,,,,,,,,,,,,,,,,,0,0,0,0,1,,,,,,,,,,,,,,,
space,4.499,-0.8,0.5,0,0,0,,,,,,1,test,"In the next phase you will be presented with the words from the the first phase. Your job is to decide whether you remember seeing the word or not. If you remember seeing the word press ""old"" or type ""m"". If you do not remember seeing the word press ""new"" or type ""z"". Please press the space bar or click on continue to begin. ",,,200485,19,2022-01-29_14h56.36,lexical_decision_task_DD_L5,2021.2.3,MacIntel,58.82352941,,,,,,,,,,,,,,,,,,,,,,,,,,,,,,,,,,,,,,,,,,,,,,,,,,,,,1,0,1,0,1,,,,,,,,,,,,,,,
space,16.122,-0.998613037,0.5,0,0,0,,,,,,1,test,"In the next phase you will be presented with the words from the the first phase. Your job is to decide whether you remember seeing the word or not. If you remember seeing the word press ""old"" or type ""m"". If you do not remember seeing the word press ""new"" or type ""z"". Please press the space bar or click on continue to begin. ",,,200485,19,2022-01-29_14h56.36,lexical_decision_task_DD_L5,2021.2.3,MacIntel,58.82352941,,,,,,,,,,,,,,,,,,,,,,,,,,,,,,,,,,,,,,,,,,,,,,,,,,,,,2,0,2,0,1,,,,,,,,,,,,,,,
space,60.976,-0.998613037,0.5,0,0,0,,,,,,1,test,"In the next phase you will be presented with the words from the the first phase. Your job is to decide whether you remember seeing the word or not. If you remember seeing the word press ""old"" or type ""m"". If you do not remember seeing the word press ""new"" or type ""z"". Please press the space bar or click on continue to begin. ",,,200485,19,2022-01-29_14h56.36,lexical_decision_task_DD_L5,2021.2.3,MacIntel,58.82352941,,,,,,,,,,,,,,,,,,,,,,,,,,,,,,,,,,,,,,,,,,,,,,,,,,,,,3,0,3,0,1,,,,,,,,,,,,,,,
space,0.226,-0.998613037,0.5,0,0,0,,,,,,1,test,"In the next phase you will be presented with the words from the the first phase. Your job is to decide whether you remember seeing the word or not. If you remember seeing the word press ""old"" or type ""m"". If you do not remember seeing the word press ""new"" or type ""z"". Please press the space bar or click on continue to begin. ",,,200485,19,2022-01-29_14h56.36,lexical_decision_task_DD_L5,2021.2.3,MacIntel,58.82352941,,,,,,,,,,,,,,,,,,,,,,,,,,,,,,,,,,,,,,,,,,,,,,,,,,,,,4,0,4,0,1,,,,,,,,,,,,,,,
,,,,,,,,,,,,,,,,,200485,19,2022-01-29_14h56.36,lexical_decision_task_DD_L5,2021.2.3,MacIntel,58.82352941,,,,,,,,,,,5.076,0,,,,,,,,,,,,,,,,,,,,,,,,-0.998613037,0.5,0,0,0,,,,,,,PICKLE,C,z,y,./images/PICKLE.png,,,,,,,m,0,5.076,,,,,,,,0,0,0,98,1
,,,,,,,,,,,,,,,,,200485,19,2022-01-29_14h56.36,lexical_decision_task_DD_L5,2021.2.3,MacIntel,58.82352941,,,,,,,,,,,2.898,0,,,,,,,,,,,,,,,,,,,,,,,,-0.998613037,0.5,0,0,0,,,,,,,RAZOR,LB,m,y,./images/RAZORLB.png,,,,,,,z,0,2.898,,,,,,,,0,1,1,34,1
,,,,,,,,,,,,,,,,,200485,19,2022-01-29_14h56.36,lexical_decision_task_DD_L5,2021.2.3,MacIntel,58.82352941,,,,,,,,,,,0.831,0,,,,,,,,,,,,,,,,,,,,,,,,-0.998613037,0.5,0,0,0,,,,,,,WHISKY,C,m,y,./images/WHISKY.png,,,,,,,z,0,0.831,,,,,,,,0,2,2,83,1
,,,,,,,,,,,,,,,,,200485,19,2022-01-29_14h56.36,lexical_decision_task_DD_L5,2021.2.3,MacIntel,58.82352941,,,,,,,,,,,0.651,1,,,,,,,,,,,,,,,,,,,,,,,,-0.998613037,0.5,0,0,0,,,,,,,WRIST,LB,z,y,./images/WRISTLB.png,,,,,,,z,1,0.651,,,,,,,,0,3,3,109,1
,,,,,,,,,,,,,,,,,200485,19,2022-01-29_14h56.36,lexical_decision_task_DD_L5,2021.2.3,MacIntel,58.82352941,,,,,,,,,,,0.302,1,,,,,,,,,,,,,,,,,,,,,,,,-0.998613037,0.5,0,0,0,,,,,,,CRATER,HB,m,y,./images/CRATERHB.png,,,,,,,m,1,0.302,,,,,,,,0,4,4,3,1
,,,,,,,,,,,,,,,,,200485,19,2022-01-29_14h56.36,lexical_decision_task_DD_L5,2021.2.3,MacIntel,58.82352941,,,,,,,,,,,0.114,0,,,,,,,,,,,,,,,,,,,,,,,,-0.998613037,0.5,0,0,0,,,,,,,NOOSE,HB,z,y,./images/NOOSEHB.png,,,,,,,m,0,0.114,,,,,,,,0,5,5,156,1
,,,,,,,,,,,,,,,,,200485,19,2022-01-29_14h56.36,lexical_decision_task_DD_L5,2021.2.3,MacIntel,58.82352941,,,,,,,,,,,0.247,0,,,,,,,,,,,,,,,,,,,,,,,,-0.998613037,0.5,0,0,0,,,,,,,BLOKE,HB,m,y,./images/BLOKEHB.png,,,,,,,z,0,0.247,,,,,,,,0,6,6,12,1
,,,,,,,,,,,,,,,,,200485,19,2022-01-29_14h56.36,lexical_decision_task_DD_L5,2021.2.3,MacIntel,58.82352941,,,,,,,,,,,0.266,0,,,,,,,,,,,,,,,,,,,,,,,,-0.998613037,0.5,0,0,0,,,,,,,SHELF,HB,z,y,./images/SHELFHB.png,,,,,,,m,0,0.266,,,,,,,,0,7,7,123,1
,,,,,,,,,,,,,,,,,200485,19,2022-01-29_14h56.36,lexical_decision_task_DD_L5,2021.2.3,MacIntel,58.82352941,,,,,,,,,,,0.203,0,,,,,,,,,,,,,,,,,,,,,,,,-0.998613037,0.5,0,0,0,,,,,,,BRUSH,C,m,y,./images/BRUSH.png,,,,,,,z,0,0.203,,,,,,,,0,8,8,59,1
,,,,,,,,,,,,,,,,,200485,19,2022-01-29_14h56.36,lexical_decision_task_DD_L5,2021.2.3,MacIntel,58.82352941,,,,,,,,,,,0.023,1,,,,,,,,,,,,,,,,,,,,,,,,-0.998613037,0.5,0,0,0,,,,,,,HOCKEY,C,m,y,./images/HOCKEY.png,,,,,,,m,1,0.023,,,,,,,,0,9,9,32,1
,,,,,,,,,,,,,,,,,200485,19,2022-01-29_14h56.36,lexical_decision_task_DD_L5,2021.2.3,MacIntel,58.82352941,,,,,,,,,,,0.159,0,,,,,,,,,,,,,,,,,,,,,,,,-0.998613037,0.5,0,0,0,,,,,,,STAIN,HB,m,y,./images/STAINHB.png,,,,,,,z,0,0.159,,,,,,,,0,10,10,6,1
,,,,,,,,,,,,,,,,,200485,19,2022-01-29_14h56.36,lexical_decision_task_DD_L5,2021.2.3,MacIntel,58.82352941,,,,,,,,,,,0.001,1,,,,,,,,,,,,,,,,,,,,,,,,-0.998613037,0.5,0,0,0,,,,,,,BROOM,HB,m,y,./images/BROOMHB.png,,,,,,,m,1,0.001,,,,,,,,0,11,11,78,1
,,,,,,,,,,,,,,,,,200485,19,2022-01-29_14h56.36,lexical_decision_task_DD_L5,2021.2.3,MacIntel,58.82352941,,,,,,,,,,,0.042,0,,,,,,,,,,,,,,,,,,,,,,,,-0.998613037,0.5,0,0,0,,,,,,,CRUST,LB,z,y,./images/CRUSTLB.png,,,,,,,m,0,0.042,,,,,,,,0,12,12,163,1
,,,,,,,,,,,,,,,,,200485,19,2022-01-29_14h56.36,lexical_decision_task_DD_L5,2021.2.3,MacIntel,58.82352941,,,,,,,,,,,0.051,0,,,,,,,,,,,,,,,,,,,,,,,,-0.998613037,0.5,0,0,0,,,,,,,INFANT,LB,z,y,./images/INFANTLB.png,,,,,,,m,0,0.051,,,,,,,,0,13,13,160,1
,,,,,,,,,,,,,,,,,200485,19,2022-01-29_14h56.36,lexical_decision_task_DD_L5,2021.2.3,MacIntel,58.82352941,,,,,,,,,,,0.125,0,,,,,,,,,,,,,,,,,,,,,,,,-0.998613037,0.5,0,0,0,,,,,,,MUMMY,LB,m,y,./images/MUMMYLB.png,,,,,,,z,0,0.125,,,,,,,,0,14,14,46,1
,,,,,,,,,,,,,,,,,200485,19,2022-01-29_14h56.36,lexical_decision_task_DD_L5,2021.2.3,MacIntel,58.82352941,,,,,,,,,,,0.043,1,,,,,,,,,,,,,,,,,,,,,,,,-0.998613037,0.5,0,0,0,,,,,,,SNACK,LB,z,y,./images/SNACKLB.png,,,,,,,z,1,0.043,,,,,,,,0,15,15,157,1
,,,,,,,,,,,,,,,,,200485,19,2022-01-29_14h56.36,lexical_decision_task_DD_L5,2021.2.3,MacIntel,58.82352941,,,,,,,,,,,0.1,1,,,,,,,,,,,,,,,,,,,,,,,,-0.998613037,0.5,0,0,0,,,,,,,STREAM,C,m,y,./images/STREAM.png,,,,,,,m,1,0.1,,,,,,,,0,16,16,41,1
,,,,,,,,,,,,,,,,,200485,19,2022-01-29_14h56.36,lexical_decision_task_DD_L5,2021.2.3,MacIntel,58.82352941,,,,,,,,,,,0.048,0,,,,,,,,,,,,,,,,,,,,,,,,-0.998613037,0.5,0,0,0,,,,,,,TRIPOD,HB,z,y,./images/TRIPODHB.png,,,,,,,m,0,0.048,,,,,,,,0,17,17,138,1
,,,,,,,,,,,,,,,,,200485,19,2022-01-29_14h56.36,lexical_decision_task_DD_L5,2021.2.3,MacIntel,58.82352941,,,,,,,,,,,0.085,1,,,,,,,,,,,,,,,,,,,,,,,,-0.998613037,0.5,0,0,0,,,,,,,RULER,LB,m,y,./images/RULERLB.png,,,,,,,m,1,0.085,,,,,,,,0,18,18,79,1
,,,,,,,,,,,,,,,,,200485,19,2022-01-29_14h56.36,lexical_decision_task_DD_L5,2021.2.3,MacIntel,58.82352941,,,,,,,,,,,0.065,0,,,,,,,,,,,,,,,,,,,,,,,,-0.998613037,0.5,0,0,0,,,,,,,CRUMB,C,z,y,./images/CRUMB.png,,,,,,,m,0,0.065,,,,,,,,0,19,19,113,1
,,,,,,,,,,,,,,,,,200485,19,2022-01-29_14h56.36,lexical_decision_task_DD_L5,2021.2.3,MacIntel,58.82352941,,,,,,,,,,,0.058,0,,,,,,,,,,,,,,,,,,,,,,,,-0.998613037,0.5,0,0,0,,,,,,,CARPET,C,z,y,./images/CARPET.png,,,,,,,m,0,0.058,,,,,,,,0,20,20,137,1
,,,,,,,,,,,,,,,,,200485,19,2022-01-29_14h56.36,lexical_decision_task_DD_L5,2021.2.3,MacIntel,58.82352941,,,,,,,,,,,0.051,1,,,,,,,,,,,,,,,,,,,,,,,,-0.998613037,0.5,0,0,0,,,,,,,FLESH,HB,m,y,./images/FLESHHB.png,,,,,,,m,1,0.051,,,,,,,,0,21,21,24,1
,,,,,,,,,,,,,,,,,200485,19,2022-01-29_14h56.36,lexical_decision_task_DD_L5,2021.2.3,MacIntel,58.82352941,,,,,,,,,,,0.047,0,,,,,,,,,,,,,,,,,,,,,,,,-0.998613037,0.5,0,0,0,,,,,,,DOUGH,LB,z,y,./images/DOUGHLB.png,,,,,,,m,0,0.047,,,,,,,,0,22,22,103,1
,,,,,,,,,,,,,,,,,200485,19,2022-01-29_14h56.36,lexical_decision_task_DD_L5,2021.2.3,MacIntel,58.82352941,,,,,,,,,,,0.175,1,,,,,,,,,,,,,,,,,,,,,,,,-0.998613037,0.5,0,0,0,,,,,,,WHEEL,C,m,y,./images/WHEEL.png,,,,,,,m,1,0.175,,,,,,,,0,23,23,77,1
,,,,,,,,,,,,,,,,,200485,19,2022-01-29_14h56.36,lexical_decision_task_DD_L5,2021.2.3,MacIntel,58.82352941,,,,,,,,,,,0.131,0,,,,,,,,,,,,,,,,,,,,,,,,-0.998613037,0.5,0,0,0,,,,,,,CEMENT,C,z,y,./images/CEMENT.png,,,,,,,m,0,0.131,,,,,,,,0,24,24,158,1
,,,,,,,,,,,,,,,,,200485,19,2022-01-29_14h56.36,lexical_decision_task_DD_L5,2021.2.3,MacIntel,58.82352941,,,,,,,,,,,0.139,0,,,,,,,,,,,,,,,,,,,,,,,,-0.998613037,0.5,0,0,0,,,,,,,SHORE,HB,z,y,./images/SHOREHB.png,,,,,,,m,0,0.139,,,,,,,,0,25,25,96,1
,,,,,,,,,,,,,,,,,200485,19,2022-01-29_14h56.36,lexical_decision_task_DD_L5,2021.2.3,MacIntel,58.82352941,,,,,,,,,,,0.142,0,,,,,,,,,,,,,,,,,,,,,,,,-0.998613037,0.5,0,0,0,,,,,,,SWING,LB,z,y,./images/SWINGLB.png,,,,,,,m,0,0.142,,,,,,,,0,26,26,124,1
,,,,,,,,,,,,,,,,,200485,19,2022-01-29_14h56.36,lexical_decision_task_DD_L5,2021.2.3,MacIntel,58.82352941,,,,,,,,,,,0.044,1,,,,,,,,,,,,,,,,,,,,,,,,-0.998613037,0.5,0,0,0,,,,,,,GRANNY,C,m,y,./images/GRANNY.png,,,,,,,m,1,0.044,,,,,,,,0,27,27,20,1
,,,,,,,,,,,,,,,,,200485,19,2022-01-29_14h56.36,lexical_decision_task_DD_L5,2021.2.3,MacIntel,58.82352941,,,,,,,,,,,0.052,1,,,,,,,,,,,,,,,,,,,,,,,,-0.998613037,0.5,0,0,0,,,,,,,ARTIST,LB,m,y,./images/ARTISTLB.png,,,,,,,m,1,0.052,,,,,,,,0,28,28,61,1
,,,,,,,,,,,,,,,,,200485,19,2022-01-29_14h56.36,lexical_decision_task_DD_L5,2021.2.3,MacIntel,58.82352941,,,,,,,,,,,0.118,1,,,,,,,,,,,,,,,,,,,,,,,,-0.998613037,0.5,0,0,0,,,,,,,SNAKE,LB,m,y,./images/SNAKELB.png,,,,,,,m,1,0.118,,,,,,,,0,29,29,40,1
,,,,,,,,,,,,,,,,,200485,19,2022-01-29_14h56.36,lexical_decision_task_DD_L5,2021.2.3,MacIntel,58.82352941,,,,,,,,,,,0.156,1,,,,,,,,,,,,,,,,,,,,,,,,-0.998613037,0.5,0,0,0,,,,,,,MIDGET,LB,m,y,./images/MIDGETLB.png,,,,,,,m,1,0.156,,,,,,,,0,30,30,76,1
,,,,,,,,,,,,,,,,,200485,19,2022-01-29_14h56.36,lexical_decision_task_DD_L5,2021.2.3,MacIntel,58.82352941,,,,,,,,,,,0.157,0,,,,,,,,,,,,,,,,,,,,,,,,-0.998613037,0.5,0,0,0,,,,,,,BELLY,LB,z,y,./images/BELLYLB.png,,,,,,,m,0,0.157,,,,,,,,0,31,31,94,1
,,,,,,,,,,,,,,,,,200485,19,2022-01-29_14h56.36,lexical_decision_task_DD_L5,2021.2.3,MacIntel,58.82352941,,,,,,,,,,,0.2,1,,,,,,,,,,,,,,,,,,,,,,,,-0.998613037,0.5,0,0,0,,,,,,,JELLY,LB,z,y,./images/JELLYLB.png,,,,,,,z,1,0.2,,,,,,,,0,32,32,148,1
,,,,,,,,,,,,,,,,,200485,19,2022-01-29_14h56.36,lexical_decision_task_DD_L5,2021.2.3,MacIntel,58.82352941,,,,,,,,,,,0.086,0,,,,,,,,,,,,,,,,,,,,,,,,-0.998613037,0.5,0,0,0,,,,,,,CLOWN,LB,m,y,./images/CLOWNLB.png,,,,,,,z,0,0.086,,,,,,,,0,33,33,22,1
,,,,,,,,,,,,,,,,,200485,19,2022-01-29_14h56.36,lexical_decision_task_DD_L5,2021.2.3,MacIntel,58.82352941,,,,,,,,,,,1.174,0,,,,,,,,,,,,,,,,,,,,,,,,-0.998613037,0.5,0,0,0,,,,,,,GRAPE,LB,m,y,./images/GRAPELB.png,,,,,,,z,0,1.174,,,,,,,,0,34,34,16,1
,,,,,,,,,,,,,,,,,200485,19,2022-01-29_14h56.36,lexical_decision_task_DD_L5,2021.2.3,MacIntel,58.82352941,,,,,,,,,,,2.841,0,,,,,,,,,,,,,,,,,,,,,,,,-0.998613037,0.5,0,0,0,,,,,,,BRIDE,LB,m,y,./images/BRIDELB.png,,,,,,,z,0,2.841,,,,,,,,0,35,35,64,1
,,,,,,,,,,,,,,,,,200485,19,2022-01-29_14h56.36,lexical_decision_task_DD_L5,2021.2.3,MacIntel,58.82352941,,,,,,,,,,,0.818,1,,,,,,,,,,,,,,,,,,,,,,,,-0.998613037,0.5,0,0,0,,,,,,,WALRUS,C,z,y,./images/WALRUS.png,,,,,,,z,1,0.818,,,,,,,,0,36,36,107,1
,,,,,,,,,,,,,,,,,200485,19,2022-01-29_14h56.36,lexical_decision_task_DD_L5,2021.2.3,MacIntel,58.82352941,,,,,,,,,,,0.791,0,,,,,,,,,,,,,,,,,,,,,,,,-0.998613037,0.5,0,0,0,,,,,,,BUBBLE,C,m,y,./images/BUBBLE.png,,,,,,,z,0,0.791,,,,,,,,0,37,37,71,1
,,,,,,,,,,,,,,,,,200485,19,2022-01-29_14h56.36,lexical_decision_task_DD_L5,2021.2.3,MacIntel,58.82352941,,,,,,,,,,,0.88,1,,,,,,,,,,,,,,,,,,,,,,,,-0.998613037,0.5,0,0,0,,,,,,,BISHOP,LB,m,y,./images/BISHOPLB.png,,,,,,,m,1,0.88,,,,,,,,0,38,38,49,1
,,,,,,,,,,,,,,,,,200485,19,2022-01-29_14h56.36,lexical_decision_task_DD_L5,2021.2.3,MacIntel,58.82352941,,,,,,,,,,,1.915,1,,,,,,,,,,,,,,,,,,,,,,,,-0.998613037,0.5,0,0,0,,,,,,,FALCON,LB,z,y,./images/FALCONLB.png,,,,,,,z,1,1.915,,,,,,,,0,39,39,112,1
,,,,,,,,,,,,,,,,,200485,19,2022-01-29_14h56.36,lexical_decision_task_DD_L5,2021.2.3,MacIntel,58.82352941,,,,,,,,,,,0.765,1,,,,,,,,,,,,,,,,,,,,,,,,-0.998613037,0.5,0,0,0,,,,,,,FLASK,HB,m,y,./images/FLASKHB.png,,,,,,,m,1,0.765,,,,,,,,0,40,40,72,1
,,,,,,,,,,,,,,,,,200485,19,2022-01-29_14h56.36,lexical_decision_task_DD_L5,2021.2.3,MacIntel,58.82352941,,,,,,,,,,,0.574,1,,,,,,,,,,,,,,,,,,,,,,,,-0.998613037,0.5,0,0,0,space,,,,,,PENCE,LB,z,y,./images/PENCELB.png,2.696,,,,,,z,1,0.574,,,,,,,,0,41,41,100,1
,,,,,,,,,,,,,,,,,200485,19,2022-01-29_14h56.36,lexical_decision_task_DD_L5,2021.2.3,MacIntel,58.82352941,,,,,,,,,,,0.359,1,,,,,,,,,,,,,,,,,,,,,,,,-0.998613037,0.5,0,0,0,,,,,,,LLAMA,C,m,y,./images/LLAMA.png,,,,,,,m,1,0.359,,,,,,,,0,42,42,35,1
,,,,,,,,,,,,,,,,,200485,19,2022-01-29_14h56.36,lexical_decision_task_DD_L5,2021.2.3,MacIntel,58.82352941,,,,,,,,,,,1.208,1,,,,,,,,,,,,,,,,,,,,,,,,-0.998613037,0.5,0,0,0,,,,,,,CANDY,HB,m,y,./images/CANDYHB.png,,,,,,,m,1,1.208,,,,,,,,0,43,43,39,1
,,,,,,,,,,,,,,,,,200485,19,2022-01-29_14h56.36,lexical_decision_task_DD_L5,2021.2.3,MacIntel,58.82352941,,,,,,,,,,,0.633,1,,,,,,,,,,,,,,,,,,,,,,,,-0.998613037,0.5,0,0,0,,,,,,,WAGON,LB,m,y,./images/WAGONLB.png,,,,,,,m,1,0.633,,,,,,,,0,44,44,7,1
,,,,,,,,,,,,,,,,,200485,19,2022-01-29_14h56.36,lexical_decision_task_DD_L5,2021.2.3,MacIntel,58.82352941,,,,,,,,,,,0.007,0,,,,,,,,,,,,,,,,,,,,,,,,-0.998613037,0.5,0,0,0,,,,,,,MELON,LB,z,y,./images/MELONLB.png,,,,,,,m,0,0.007,,,,,,,,0,45,45,106,1
,,,,,,,,,,,,,,,,,200485,19,2022-01-29_14h56.36,lexical_decision_task_DD_L5,2021.2.3,MacIntel,58.82352941,,,,,,,,,,,0.06,1,,,,,,,,,,,,,,,,,,,,,,,,-0.998613037,0.5,0,0,0,,,,,,,BOXER,LB,m,y,./images/BOXERLB.png,,,,,,,m,1,0.06,,,,,,,,0,46,46,4,1
,,,,,,,,,,,,,,,,,200485,19,2022-01-29_14h56.36,lexical_decision_task_DD_L5,2021.2.3,MacIntel,58.82352941,,,,,,,,,,,0.007,0,,,,,,,,,,,,,,,,,,,,,,,,-0.998613037,0.5,0,0,0,,,,,,,SCREW,HB,z,y,./images/SCREWHB.png,,,,,,,m,0,0.007,,,,,,,,0,47,47,108,1
,,,,,,,,,,,,,,,,,200485,19,2022-01-29_14h56.36,lexical_decision_task_DD_L5,2021.2.3,MacIntel,58.82352941,,,,,,,,,,,0.067,0,,,,,,,,,,,,,,,,,,,,,,,,-0.998613037,0.5,0,0,0,,,,,,,JUNGLE,C,z,y,./images/JUNGLE.png,,,,,,,m,0,0.067,,,,,,,,0,48,48,167,1
,,,,,,,,,,,,,,,,,200485,19,2022-01-29_14h56.36,lexical_decision_task_DD_L5,2021.2.3,MacIntel,58.82352941,,,,,,,,,,,0.01,1,,,,,,,,,,,,,,,,,,,,,,,,-0.998613037,0.5,0,0,0,,,,,,,BANANA,LB,m,y,./images/BANANALB.png,,,,,,,m,1,0.01,,,,,,,,0,49,49,70,1
,,,,,,,,,,,,,,,,,200485,19,2022-01-29_14h56.36,lexical_decision_task_DD_L5,2021.2.3,MacIntel,58.82352941,,,,,,,,,,,0.124,0,,,,,,,,,,,,,,,,,,,,,,,,-0.998613037,0.5,0,0,0,,,,,,,SKIING,C,z,y,./images/SKIING.png,,,,,,,m,0,0.124,,,,,,,,0,50,50,101,1
,,,,,,,,,,,,,,,,,200485,19,2022-01-29_14h56.36,lexical_decision_task_DD_L5,2021.2.3,MacIntel,58.82352941,,,,,,,,,,,0.031,1,,,,,,,,,,,,,,,,,,,,,,,,-0.998613037,0.5,0,0,0,,,,,,,CANDLE,LB,z,y,./images/CANDLELB.png,,,,,,,z,1,0.031,,,,,,,,0,51,51,145,1
,,,,,,,,,,,,,,,,,200485,19,2022-01-29_14h56.36,lexical_decision_task_DD_L5,2021.2.3,MacIntel,58.82352941,,,,,,,,,,,0.975,1,,,,,,,,,,,,,,,,,,,,,,,,-0.998613037,0.5,0,0,0,,,,,,,STORM,HB,z,y,./images/STORMHB.png,,,,,,,z,1,0.975,,,,,,,,0,52,52,114,1
,,,,,,,,,,,,,,,,,200485,19,2022-01-29_14h56.36,lexical_decision_task_DD_L5,2021.2.3,MacIntel,58.82352941,,,,,,,,,,,0.032,0,,,,,,,,,,,,,,,,,,,,,,,,-0.998613037,0.5,0,0,0,,,,,,,FENCE,C,m,y,./images/FENCE.png,,,,,,,z,0,0.032,,,,,,,,0,53,53,14,1
,,,,,,,,,,,,,,,,,200485,19,2022-01-29_14h56.36,lexical_decision_task_DD_L5,2021.2.3,MacIntel,58.82352941,,,,,,,,,,,1.408,1,,,,,,,,,,,,,,,,,,,,,,,,-0.998613037,0.5,0,0,0,,,,,,,BERRY,C,z,y,./images/BERRY.png,,,,,,,z,1,1.408,,,,,,,,0,54,54,131,1
,,,,,,,,,,,,,,,,,200485,19,2022-01-29_14h56.36,lexical_decision_task_DD_L5,2021.2.3,MacIntel,58.82352941,,,,,,,,,,,1.01,1,,,,,,,,,,,,,,,,,,,,,,,,-0.998613037,0.5,0,0,0,,,,,,,BUTTER,HB,m,y,./images/BUTTERHB.png,,,,,,,m,1,1.01,,,,,,,,0,55,55,27,1
,,,,,,,,,,,,,,,,,200485,19,2022-01-29_14h56.36,lexical_decision_task_DD_L5,2021.2.3,MacIntel,58.82352941,,,,,,,,,,,0.95,1,,,,,,,,,,,,,,,,,,,,,,,,-0.998613037,0.5,0,0,0,,,,,,,BARREL,C,z,y,./images/BARREL.png,,,,,,,z,1,0.95,,,,,,,,0,56,56,116,1
,,,,,,,,,,,,,,,,,200485,19,2022-01-29_14h56.36,lexical_decision_task_DD_L5,2021.2.3,MacIntel,58.82352941,,,,,,,,,,,0.472,1,,,,,,,,,,,,,,,,,,,,,,,,-0.998613037,0.5,0,0,0,,,,,,,QUILL,LB,z,y,./images/QUILLLB.png,,,,,,,z,1,0.472,,,,,,,,0,57,57,115,1
,,,,,,,,,,,,,,,,,200485,19,2022-01-29_14h56.36,lexical_decision_task_DD_L5,2021.2.3,MacIntel,58.82352941,,,,,,,,,,,0.048,1,,,,,,,,,,,,,,,,,,,,,,,,-0.998613037,0.5,0,0,0,,,,,,,PIMPLE,C,z,y,./images/PIMPLE.png,,,,,,,z,1,0.048,,,,,,,,0,58,58,155,1
,,,,,,,,,,,,,,,,,200485,19,2022-01-29_14h56.36,lexical_decision_task_DD_L5,2021.2.3,MacIntel,58.82352941,,,,,,,,,,,0.007,0,,,,,,,,,,,,,,,,,,,,,,,,-0.998613037,0.5,0,0,0,,,,,,,MONKEY,HB,m,y,./images/MONKEYHB.png,,,,,,,z,0,0.007,,,,,,,,0,59,59,45,1
,,,,,,,,,,,,,,,,,200485,19,2022-01-29_14h56.36,lexical_decision_task_DD_L5,2021.2.3,MacIntel,58.82352941,,,,,,,,,,,0.158,0,,,,,,,,,,,,,,,,,,,,,,,,-0.998613037,0.5,0,0,0,,,,,,,CASINO,LB,m,y,./images/CASINOLB.png,,,,,,,z,0,0.158,,,,,,,,0,60,60,28,1
,,,,,,,,,,,,,,,,,200485,19,2022-01-29_14h56.36,lexical_decision_task_DD_L5,2021.2.3,MacIntel,58.82352941,,,,,,,,,,,0.057,0,,,,,,,,,,,,,,,,,,,,,,,,-0.998613037,0.5,0,0,0,,,,,,,BOILER,HB,m,y,./images/BOILERHB.png,,,,,,,z,0,0.057,,,,,,,,0,61,61,36,1
,,,,,,,,,,,,,,,,,200485,19,2022-01-29_14h56.36,lexical_decision_task_DD_L5,2021.2.3,MacIntel,58.82352941,,,,,,,,,,,0.084,0,,,,,,,,,,,,,,,,,,,,,,,,-0.998613037,0.5,0,0,0,,,,,,,FERRY,HB,m,y,./images/FERRYHB.png,,,,,,,z,0,0.084,,,,,,,,0,62,62,57,1
,,,,,,,,,,,,,,,,,200485,19,2022-01-29_14h56.36,lexical_decision_task_DD_L5,2021.2.3,MacIntel,58.82352941,,,,,,,,,,,0.051,1,,,,,,,,,,,,,,,,,,,,,,,,-0.998613037,0.5,0,0,0,,,,,,,FOLDER,HB,z,y,./images/FOLDERHB.png,,,,,,,z,1,0.051,,,,,,,,0,63,63,126,1
,,,,,,,,,,,,,,,,,200485,19,2022-01-29_14h56.36,lexical_decision_task_DD_L5,2021.2.3,MacIntel,58.82352941,,,,,,,,,,,0.106,0,,,,,,,,,,,,,,,,,,,,,,,,-0.998613037,0.5,0,0,0,,,,,,,MEDAL,C,m,y,./images/MEDAL.png,,,,,,,z,0,0.106,,,,,,,,0,64,64,11,1
,,,,,,,,,,,,,,,,,200485,19,2022-01-29_14h56.36,lexical_decision_task_DD_L5,2021.2.3,MacIntel,58.82352941,,,,,,,,,,,0.024,0,,,,,,,,,,,,,,,,,,,,,,,,-0.998613037,0.5,0,0,0,,,,,,,WEASEL,C,z,y,./images/WEASEL.png,,,,,,,m,0,0.024,,,,,,,,0,65,65,164,1
,,,,,,,,,,,,,,,,,200485,19,2022-01-29_14h56.36,lexical_decision_task_DD_L5,2021.2.3,MacIntel,58.82352941,,,,,,,,,,,0.002,0,,,,,,,,,,,,,,,,,,,,,,,,-0.998613037,0.5,0,0,0,,,,,,,GRAIN,HB,z,y,./images/GRAINHB.png,,,,,,,m,0,0.002,,,,,,,,0,66,66,159,1
,,,,,,,,,,,,,,,,,200485,19,2022-01-29_14h56.36,lexical_decision_task_DD_L5,2021.2.3,MacIntel,58.82352941,,,,,,,,,,,0.041,0,,,,,,,,,,,,,,,,,,,,,,,,-0.998613037,0.5,0,0,0,,,,,,,STRING,C,z,y,./images/STRING.png,,,,,,,m,0,0.041,,,,,,,,0,67,67,125,1
,,,,,,,,,,,,,,,,,200485,19,2022-01-29_14h56.36,lexical_decision_task_DD_L5,2021.2.3,MacIntel,58.82352941,,,,,,,,,,,0.132,1,,,,,,,,,,,,,,,,,,,,,,,,-0.998613037,0.5,0,0,0,,,,,,,BAMBOO,C,m,y,./images/BAMBOO.png,,,,,,,m,1,0.132,,,,,,,,0,68,68,5,1
,,,,,,,,,,,,,,,,,200485,19,2022-01-29_14h56.36,lexical_decision_task_DD_L5,2021.2.3,MacIntel,58.82352941,,,,,,,,,,,0,0,,,,,,,,,,,,,,,,,,,,,,,,-0.998613037,0.5,0,0,0,,,,,,,SQUARE,HB,z,y,./images/SQUAREHB.png,,,,,,,m,0,0,,,,,,,,0,69,69,90,1
,,,,,,,,,,,,,,,,,200485,19,2022-01-29_14h56.36,lexical_decision_task_DD_L5,2021.2.3,MacIntel,58.82352941,,,,,,,,,,,2.966,1,,,,,,,,,,,,,,,,,,,,,,,,-0.998613037,0.5,0,0,0,,,,,,,DRILL,HB,m,y,./images/DRILLHB.png,,,,,,,m,1,2.966,,,,,,,,0,70,70,81,1
,,,,,,,,,,,,,,,,,200485,19,2022-01-29_14h56.36,lexical_decision_task_DD_L5,2021.2.3,MacIntel,58.82352941,,,,,,,,,,,1.448,1,,,,,,,,,,,,,,,,,,,,,,,,-0.998613037,0.5,0,0,0,,,,,,,SUNSET,LB,z,y,./images/SUNSETLB.png,,,,,,,z,1,1.448,,,,,,,,0,71,71,166,1
,,,,,,,,,,,,,,,,,200485,19,2022-01-29_14h56.36,lexical_decision_task_DD_L5,2021.2.3,MacIntel,58.82352941,,,,,,,,,,,1.198,1,,,,,,,,,,,,,,,,,,,,,,,,-0.998613037,0.5,0,0,0,,,,,,,SMOKER,C,z,y,./images/SMOKER.png,,,,,,,z,1,1.198,,,,,,,,0,72,72,110,1
,,,,,,,,,,,,,,,,,200485,19,2022-01-29_14h56.36,lexical_decision_task_DD_L5,2021.2.3,MacIntel,58.82352941,,,,,,,,,,,0.001,0,,,,,,,,,,,,,,,,,,,,,,,,-0.998613037,0.5,0,0,0,,,,,,,JAGUAR,HB,z,y,./images/JAGUARHB.png,,,,,,,m,0,0.001,,,,,,,,0,73,73,102,1
,,,,,,,,,,,,,,,,,200485,19,2022-01-29_14h56.36,lexical_decision_task_DD_L5,2021.2.3,MacIntel,58.82352941,,,,,,,,,,,0.081,0,,,,,,,,,,,,,,,,,,,,,,,,-0.998613037,0.5,0,0,0,,,,,,,MALLET,C,z,y,./images/MALLET.png,,,,,,,m,0,0.081,,,,,,,,0,74,74,134,1
,,,,,,,,,,,,,,,,,200485,19,2022-01-29_14h56.36,lexical_decision_task_DD_L5,2021.2.3,MacIntel,58.82352941,,,,,,,,,,,0.065,0,,,,,,,,,,,,,,,,,,,,,,,,-0.998613037,0.5,0,0,0,,,,,,,COUCH,C,z,y,./images/COUCH.png,,,,,,,m,0,0.065,,,,,,,,0,75,75,161,1
,,,,,,,,,,,,,,,,,200485,19,2022-01-29_14h56.36,lexical_decision_task_DD_L5,2021.2.3,MacIntel,58.82352941,,,,,,,,,,,0.049,0,,,,,,,,,,,,,,,,,,,,,,,,-0.998613037,0.5,0,0,0,,,,,,,ENGINE,C,m,y,./images/ENGINE.png,,,,,,,z,0,0.049,,,,,,,,0,76,76,38,1
,,,,,,,,,,,,,,,,,200485,19,2022-01-29_14h56.36,lexical_decision_task_DD_L5,2021.2.3,MacIntel,58.82352941,,,,,,,,,,,0.215,1,,,,,,,,,,,,,,,,,,,,,,,,-0.998613037,0.5,0,0,0,,,,,,,LITTER,HB,z,y,./images/LITTERHB.png,,,,,,,z,1,0.215,,,,,,,,0,77,77,162,1
,,,,,,,,,,,,,,,,,200485,19,2022-01-29_14h56.36,lexical_decision_task_DD_L5,2021.2.3,MacIntel,58.82352941,,,,,,,,,,,0.273,1,,,,,,,,,,,,,,,,,,,,,,,,-0.998613037,0.5,0,0,0,,,,,,,PEBBLE,LB,m,y,./images/PEBBLELB.png,,,,,,,m,1,0.273,,,,,,,,0,78,78,82,1
,,,,,,,,,,,,,,,,,200485,19,2022-01-29_14h56.36,lexical_decision_task_DD_L5,2021.2.3,MacIntel,58.82352941,,,,,,,,,,,0.075,0,,,,,,,,,,,,,,,,,,,,,,,,-0.998613037,0.5,0,0,0,,,,,,,BASKET,C,m,y,./images/BASKET.png,,,,,,,z,0,0.075,,,,,,,,0,79,79,44,1
,,,,,,,,,,,,,,,,,200485,19,2022-01-29_14h56.36,lexical_decision_task_DD_L5,2021.2.3,MacIntel,58.82352941,,,,,,,,,,,0.057,1,,,,,,,,,,,,,,,,,,,,,,,,-0.998613037,0.5,0,0,0,,,,,,,MOSQUE,LB,z,y,./images/MOSQUELB.png,,,,,,,z,1,0.057,,,,,,,,0,80,80,127,1
,,,,,,,,,,,,,,,,,200485,19,2022-01-29_14h56.36,lexical_decision_task_DD_L5,2021.2.3,MacIntel,58.82352941,,,,,,,,,,,0.115,1,,,,,,,,,,,,,,,,,,,,,,,,-0.998613037,0.5,0,0,0,,,,,,,TOWEL,LB,m,y,./images/TOWELLB.png,,,,,,,m,1,0.115,,,,,,,,0,81,81,1,1
,,,,,,,,,,,,,,,,,200485,19,2022-01-29_14h56.36,lexical_decision_task_DD_L5,2021.2.3,MacIntel,58.82352941,,,,,,,,,,,0.155,0,,,,,,,,,,,,,,,,,,,,,,,,-0.998613037,0.5,0,0,0,,,,,,,POKER,LB,m,y,./images/POKERLB.png,,,,,,,z,0,0.155,,,,,,,,0,82,82,67,1
,,,,,,,,,,,,,,,,,200485,19,2022-01-29_14h56.36,lexical_decision_task_DD_L5,2021.2.3,MacIntel,58.82352941,,,,,,,,,,,0.14,0,,,,,,,,,,,,,,,,,,,,,,,,-0.998613037,0.5,0,0,0,space,,,,,,CHERRY,HB,m,y,./images/CHERRYHB.png,1.8,,,,,,z,0,0.14,,,,,,,,0,83,83,54,1
,,,,,,,,,,,,,,,,,200485,19,2022-01-29_14h56.36,lexical_decision_task_DD_L5,2021.2.3,MacIntel,58.82352941,,,,,,,,,,,0.065,1,,,,,,,,,,,,,,,,,,,,,,,,-0.998613037,0.5,0,0,0,,,,,,,LIZARD,C,z,y,./images/LIZARD.png,,,,,,,z,1,0.065,,,,,,,,0,84,84,128,1
,,,,,,,,,,,,,,,,,200485,19,2022-01-29_14h56.36,lexical_decision_task_DD_L5,2021.2.3,MacIntel,58.82352941,,,,,,,,,,,0.066,0,,,,,,,,,,,,,,,,,,,,,,,,-0.998613037,0.5,0,0,0,,,,,,,BONNET,C,z,y,./images/BONNET.png,,,,,,,m,0,0.066,,,,,,,,0,85,85,95,1
,,,,,,,,,,,,,,,,,200485,19,2022-01-29_14h56.36,lexical_decision_task_DD_L5,2021.2.3,MacIntel,58.82352941,,,,,,,,,,,0.015,1,,,,,,,,,,,,,,,,,,,,,,,,-0.998613037,0.5,0,0,0,,,,,,,LAGOON,C,m,y,./images/LAGOON.png,,,,,,,m,1,0.015,,,,,,,,0,86,86,47,1
,,,,,,,,,,,,,,,,,200485,19,2022-01-29_14h56.36,lexical_decision_task_DD_L5,2021.2.3,MacIntel,58.82352941,,,,,,,,,,,0.184,1,,,,,,,,,,,,,,,,,,,,,,,,-0.998613037,0.5,0,0,0,,,,,,,PLANK,LB,z,y,./images/PLANKLB.png,,,,,,,z,1,0.184,,,,,,,,0,87,87,85,1
,,,,,,,,,,,,,,,,,200485,19,2022-01-29_14h56.36,lexical_decision_task_DD_L5,2021.2.3,MacIntel,58.82352941,,,,,,,,,,,0.044,1,,,,,,,,,,,,,,,,,,,,,,,,-0.998613037,0.5,0,0,0,,,,,,,KIDNEY,HB,z,y,./images/KIDNEYHB.png,,,,,,,z,1,0.044,,,,,,,,0,88,88,105,1
,,,,,,,,,,,,,,,,,200485,19,2022-01-29_14h56.36,lexical_decision_task_DD_L5,2021.2.3,MacIntel,58.82352941,,,,,,,,,,,0.082,0,,,,,,,,,,,,,,,,,,,,,,,,-0.998613037,0.5,0,0,0,,,,,,,BABOON,LB,z,y,./images/BABOONLB.png,,,,,,,m,0,0.082,,,,,,,,0,89,89,142,1
,,,,,,,,,,,,,,,,,200485,19,2022-01-29_14h56.36,lexical_decision_task_DD_L5,2021.2.3,MacIntel,58.82352941,,,,,,,,,,,0.042,1,,,,,,,,,,,,,,,,,,,,,,,,-0.998613037,0.5,0,0,0,,,,,,,DESERT,LB,m,y,./images/DESERTLB.png,,,,,,,m,1,0.042,,,,,,,,0,90,90,52,1
,,,,,,,,,,,,,,,,,200485,19,2022-01-29_14h56.36,lexical_decision_task_DD_L5,2021.2.3,MacIntel,58.82352941,,,,,,,,,,,0.133,1,,,,,,,,,,,,,,,,,,,,,,,,-0.998613037,0.5,0,0,0,,,,,,,THROAT,HB,z,y,./images/THROATHB.png,,,,,,,z,1,0.133,,,,,,,,0,91,91,120,1
,,,,,,,,,,,,,,,,,200485,19,2022-01-29_14h56.36,lexical_decision_task_DD_L5,2021.2.3,MacIntel,58.82352941,,,,,,,,,,,0.008,1,,,,,,,,,,,,,,,,,,,,,,,,-0.998613037,0.5,0,0,0,,,,,,,TORCH,C,z,y,./images/TORCH.png,,,,,,,z,1,0.008,,,,,,,,0,92,92,152,1
,,,,,,,,,,,,,,,,,200485,19,2022-01-29_14h56.36,lexical_decision_task_DD_L5,2021.2.3,MacIntel,58.82352941,,,,,,,,,,,0.142,0,,,,,,,,,,,,,,,,,,,,,,,,-0.998613037,0.5,0,0,0,,,,,,,RHINO,HB,z,y,./images/RHINOHB.png,,,,,,,m,0,0.142,,,,,,,,0,93,93,93,1
,,,,,,,,,,,,,,,,,200485,19,2022-01-29_14h56.36,lexical_decision_task_DD_L5,2021.2.3,MacIntel,58.82352941,,,,,,,,,,,0.448,0,,,,,,,,,,,,,,,,,,,,,,,,-0.998613037,0.5,0,0,0,,,,,,,SAUCE,HB,m,y,./images/SAUCEHB.png,,,,,,,z,0,0.448,,,,,,,,0,94,94,51,1
,,,,,,,,,,,,,,,,,200485,19,2022-01-29_14h56.36,lexical_decision_task_DD_L5,2021.2.3,MacIntel,58.82352941,,,,,,,,,,,0.17,1,,,,,,,,,,,,,,,,,,,,,,,,-0.998613037,0.5,0,0,0,,,,,,,STOVE,C,m,y,./images/STOVE.png,,,,,,,m,1,0.17,,,,,,,,0,95,95,2,1
,,,,,,,,,,,,,,,,,200485,19,2022-01-29_14h56.36,lexical_decision_task_DD_L5,2021.2.3,MacIntel,58.82352941,,,,,,,,,,,0.119,1,,,,,,,,,,,,,,,,,,,,,,,,-0.998613037,0.5,0,0,0,,,,,,,MAGGOT,HB,z,y,./images/MAGGOTHB.png,,,,,,,z,1,0.119,,,,,,,,0,96,96,117,1
,,,,,,,,,,,,,,,,,200485,19,2022-01-29_14h56.36,lexical_decision_task_DD_L5,2021.2.3,MacIntel,58.82352941,,,,,,,,,,,0.158,1,,,,,,,,,,,,,,,,,,,,,,,,-0.998613037,0.5,0,0,0,,,,,,,PASTA,C,z,y,./images/PASTA.png,,,,,,,z,1,0.158,,,,,,,,0,97,97,89,1
,,,,,,,,,,,,,,,,,200485,19,2022-01-29_14h56.36,lexical_decision_task_DD_L5,2021.2.3,MacIntel,58.82352941,,,,,,,,,,,0.103,1,,,,,,,,,,,,,,,,,,,,,,,,-0.998613037,0.5,0,0,0,,,,,,,PILOT,C,m,y,./images/PILOT.png,,,,,,,m,1,0.103,,,,,,,,0,98,98,50,1
,,,,,,,,,,,,,,,,,200485,19,2022-01-29_14h56.36,lexical_decision_task_DD_L5,2021.2.3,MacIntel,58.82352941,,,,,,,,,,,1.462,0,,,,,,,,,,,,,,,,,,,,,,,,-0.998613037,0.5,0,0,0,,,,,,,SHIELD,HB,m,y,./images/SHIELDHB.png,,,,,,,z,0,1.462,,,,,,,,0,99,99,48,1
,,,,,,,,,,,,,,,,,200485,19,2022-01-29_14h56.36,lexical_decision_task_DD_L5,2021.2.3,MacIntel,58.82352941,,,,,,,,,,,0.363,1,,,,,,,,,,,,,,,,,,,,,,,,-0.998613037,0.5,0,0,0,,,,,,,TIGER,LB,m,y,./images/TIGERLB.png,,,,,,,m,1,0.363,,,,,,,,0,100,100,37,1
,,,,,,,,,,,,,,,,,200485,19,2022-01-29_14h56.36,lexical_decision_task_DD_L5,2021.2.3,MacIntel,58.82352941,,,,,,,,,,,8.33,1,,,,,,,,,,,,,,,,,,,,,,,,-0.998613037,0.5,0,0,0,,,,,,,VALLEY,C,m,y,./images/VALLEY.png,,,,,,,m,1,8.33,,,,,,,,0,101,101,68,1
,,,,,,,,,,,,,,,,,200485,19,2022-01-29_14h56.36,lexical_decision_task_DD_L5,2021.2.3,MacIntel,58.82352941,,,,,,,,,,,0.877,1,,,,,,,,,,,,,,,,,,,,,,,,-0.998613037,0.5,0,0,0,,,,,,,PACKET,C,z,y,./images/PACKET.png,,,,,,,z,1,0.877,,,,,,,,0,102,102,140,1
,,,,,,,,,,,,,,,,,200485,19,2022-01-29_14h56.36,lexical_decision_task_DD_L5,2021.2.3,MacIntel,58.82352941,,,,,,,,,,,0.602,1,,,,,,,,,,,,,,,,,,,,,,,,-0.998613037,0.5,0,0,0,,,,,,,URINE,LB,z,y,./images/URINELB.png,,,,,,,z,1,0.602,,,,,,,,0,103,103,154,1
,,,,,,,,,,,,,,,,,200485,19,2022-01-29_14h56.36,lexical_decision_task_DD_L5,2021.2.3,MacIntel,58.82352941,,,,,,,,,,,0.233,1,,,,,,,,,,,,,,,,,,,,,,,,-0.998613037,0.5,0,0,0,,,,,,,PEARL,LB,z,y,./images/PEARLLB.png,,,,,,,z,1,0.233,,,,,,,,0,104,104,130,1
,,,,,,,,,,,,,,,,,200485,19,2022-01-29_14h56.36,lexical_decision_task_DD_L5,2021.2.3,MacIntel,58.82352941,,,,,,,,,,,0.326,1,,,,,,,,,,,,,,,,,,,,,,,,-0.998613037,0.5,0,0,0,,,,,,,FARMER,C,z,y,./images/FARMER.png,,,,,,,z,1,0.326,,,,,,,,0,105,105,149,1
,,,,,,,,,,,,,,,,,200485,19,2022-01-29_14h56.36,lexical_decision_task_DD_L5,2021.2.3,MacIntel,58.82352941,,,,,,,,,,,0.141,0,,,,,,,,,,,,,,,,,,,,,,,,-0.998613037,0.5,0,0,0,,,,,,,JUMPER,C,m,y,./images/JUMPER.png,,,,,,,z,0,0.141,,,,,,,,0,106,106,74,1
,,,,,,,,,,,,,,,,,200485,19,2022-01-29_14h56.36,lexical_decision_task_DD_L5,2021.2.3,MacIntel,58.82352941,,,,,,,,,,,0.018,1,,,,,,,,,,,,,,,,,,,,,,,,-0.998613037,0.5,0,0,0,,,,,,,CRADLE,C,z,y,./images/CRADLE.png,,,,,,,z,1,0.018,,,,,,,,0,107,107,104,1
,,,,,,,,,,,,,,,,,200485,19,2022-01-29_14h56.36,lexical_decision_task_DD_L5,2021.2.3,MacIntel,58.82352941,,,,,,,,,,,0.3,0,,,,,,,,,,,,,,,,,,,,,,,,-0.998613037,0.5,0,0,0,,,,,,,BEARD,C,z,y,./images/BEARD.png,,,,,,,m,0,0.3,,,,,,,,0,108,108,86,1
,,,,,,,,,,,,,,,,,200485,19,2022-01-29_14h56.36,lexical_decision_task_DD_L5,2021.2.3,MacIntel,58.82352941,,,,,,,,,,,0.036,0,,,,,,,,,,,,,,,,,,,,,,,,-0.998613037,0.5,0,0,0,,,,,,,BUNNY,LB,m,y,./images/BUNNYLB.png,,,,,,,z,0,0.036,,,,,,,,0,109,109,13,1
,,,,,,,,,,,,,,,,,200485,19,2022-01-29_14h56.36,lexical_decision_task_DD_L5,2021.2.3,MacIntel,58.82352941,,,,,,,,,,,0.223,1,,,,,,,,,,,,,,,,,,,,,,,,-0.998613037,0.5,0,0,0,,,,,,,SPORT,HB,z,y,./images/SPORTHB.png,,,,,,,z,1,0.223,,,,,,,,0,110,110,132,1
,,,,,,,,,,,,,,,,,200485,19,2022-01-29_14h56.36,lexical_decision_task_DD_L5,2021.2.3,MacIntel,58.82352941,,,,,,,,,,,0.03,1,,,,,,,,,,,,,,,,,,,,,,,,-0.998613037,0.5,0,0,0,,,,,,,ATTIC,HB,z,y,./images/ATTICHB.png,,,,,,,z,1,0.03,,,,,,,,0,111,111,111,1
,,,,,,,,,,,,,,,,,200485,19,2022-01-29_14h56.36,lexical_decision_task_DD_L5,2021.2.3,MacIntel,58.82352941,,,,,,,,,,,0.861,1,,,,,,,,,,,,,,,,,,,,,,,,-0.998613037,0.5,0,0,0,,,,,,,ARROW,HB,m,y,./images/ARROWHB.png,,,,,,,m,1,0.861,,,,,,,,0,112,112,69,1
,,,,,,,,,,,,,,,,,200485,19,2022-01-29_14h56.36,lexical_decision_task_DD_L5,2021.2.3,MacIntel,58.82352941,,,,,,,,,,,0.647,1,,,,,,,,,,,,,,,,,,,,,,,,-0.998613037,0.5,0,0,0,,,,,,,TOMATO,HB,z,y,./images/TOMATOHB.png,,,,,,,z,1,0.647,,,,,,,,0,113,113,84,1
,,,,,,,,,,,,,,,,,200485,19,2022-01-29_14h56.36,lexical_decision_task_DD_L5,2021.2.3,MacIntel,58.82352941,,,,,,,,,,,0.35,1,,,,,,,,,,,,,,,,,,,,,,,,-0.998613037,0.5,0,0,0,,,,,,,BIRTH,LB,z,y,./images/BIRTHLB.png,,,,,,,z,1,0.35,,,,,,,,0,114,114,121,1
,,,,,,,,,,,,,,,,,200485,19,2022-01-29_14h56.36,lexical_decision_task_DD_L5,2021.2.3,MacIntel,58.82352941,,,,,,,,,,,0.415,1,,,,,,,,,,,,,,,,,,,,,,,,-0.998613037,0.5,0,0,0,,,,,,,BANNER,LB,z,y,./images/BANNERLB.png,,,,,,,z,1,0.415,,,,,,,,0,115,115,136,1
,,,,,,,,,,,,,,,,,200485,19,2022-01-29_14h56.36,lexical_decision_task_DD_L5,2021.2.3,MacIntel,58.82352941,,,,,,,,,,,0.131,0,,,,,,,,,,,,,,,,,,,,,,,,-0.998613037,0.5,0,0,0,,,,,,,CHAIN,HB,m,y,./images/CHAINHB.png,,,,,,,z,0,0.131,,,,,,,,0,116,116,42,1
,,,,,,,,,,,,,,,,,200485,19,2022-01-29_14h56.36,lexical_decision_task_DD_L5,2021.2.3,MacIntel,58.82352941,,,,,,,,,,,0.051,0,,,,,,,,,,,,,,,,,,,,,,,,-0.998613037,0.5,0,0,0,,,,,,,PISTOL,C,m,y,./images/PISTOL.png,,,,,,,z,0,0.051,,,,,,,,0,117,117,29,1
,,,,,,,,,,,,,,,,,200485,19,2022-01-29_14h56.36,lexical_decision_task_DD_L5,2021.2.3,MacIntel,58.82352941,,,,,,,,,,,0.129,0,,,,,,,,,,,,,,,,,,,,,,,,-0.998613037,0.5,0,0,0,,,,,,,CHALK,LB,m,y,./images/CHALKLB.png,,,,,,,z,0,0.129,,,,,,,,0,118,118,25,1
,,,,,,,,,,,,,,,,,200485,19,2022-01-29_14h56.36,lexical_decision_task_DD_L5,2021.2.3,MacIntel,58.82352941,,,,,,,,,,,0.197,1,,,,,,,,,,,,,,,,,,,,,,,,-0.998613037,0.5,0,0,0,,,,,,,DRUMS,LB,z,y,./images/DRUMSLB.png,,,,,,,z,1,0.197,,,,,,,,0,119,119,133,1
,,,,,,,,,,,,,,,,,200485,19,2022-01-29_14h56.36,lexical_decision_task_DD_L5,2021.2.3,MacIntel,58.82352941,,,,,,,,,,,0.114,0,,,,,,,,,,,,,,,,,,,,,,,,-0.998613037,0.5,0,0,0,,,,,,,BAKER,HB,m,y,./images/BAKERHB.png,,,,,,,z,0,0.114,,,,,,,,0,120,120,63,1
,,,,,,,,,,,,,,,,,200485,19,2022-01-29_14h56.36,lexical_decision_task_DD_L5,2021.2.3,MacIntel,58.82352941,,,,,,,,,,,0.198,1,,,,,,,,,,,,,,,,,,,,,,,,-0.998613037,0.5,0,0,0,,,,,,,CLOTH,C,m,y,./images/CLOTH.png,,,,,,,m,1,0.198,,,,,,,,0,121,121,23,1
,,,,,,,,,,,,,,,,,200485,19,2022-01-29_14h56.36,lexical_decision_task_DD_L5,2021.2.3,MacIntel,58.82352941,,,,,,,,,,,0.173,1,,,,,,,,,,,,,,,,,,,,,,,,-0.998613037,0.5,0,0,0,,,,,,,ONION,HB,z,y,./images/ONIONHB.png,,,,,,,z,1,0.173,,,,,,,,0,122,122,135,1
,,,,,,,,,,,,,,,,,200485,19,2022-01-29_14h56.36,lexical_decision_task_DD_L5,2021.2.3,MacIntel,58.82352941,,,,,,,,,,,0.257,0,,,,,,,,,,,,,,,,,,,,,,,,-0.998613037,0.5,0,0,0,,,,,,,SWEAT,HB,z,y,./images/SWEATHB.png,,,,,,,m,0,0.257,,,,,,,,0,123,123,150,1
,,,,,,,,,,,,,,,,,200485,19,2022-01-29_14h56.36,lexical_decision_task_DD_L5,2021.2.3,MacIntel,58.82352941,,,,,,,,,,,0.04,1,,,,,,,,,,,,,,,,,,,,,,,,-0.998613037,0.5,0,0,0,,,,,,,TWINS,HB,z,y,./images/TWINSHB.png,,,,,,,z,1,0.04,,,,,,,,0,124,124,144,1
,,,,,,,,,,,,,,,,,200485,19,2022-01-29_14h56.36,lexical_decision_task_DD_L5,2021.2.3,MacIntel,58.82352941,,,,,,,,,,,1.131,1,,,,,,,,,,,,,,,,,,,,,,,,-0.998613037,0.5,0,0,0,space,,,,,,CLOUD,C,m,y,./images/CLOUD.png,1.2,,,,,,m,1,1.131,,,,,,,,0,125,125,26,1
,,,,,,,,,,,,,,,,,200485,19,2022-01-29_14h56.36,lexical_decision_task_DD_L5,2021.2.3,MacIntel,58.82352941,,,,,,,,,,,0.691,1,,,,,,,,,,,,,,,,,,,,,,,,-0.998613037,0.5,0,0,0,,,,,,,POSTER,C,m,y,./images/POSTER.png,,,,,,,m,1,0.691,,,,,,,,0,126,126,53,1
,,,,,,,,,,,,,,,,,200485,19,2022-01-29_14h56.36,lexical_decision_task_DD_L5,2021.2.3,MacIntel,58.82352941,,,,,,,,,,,0.025,0,,,,,,,,,,,,,,,,,,,,,,,,-0.998613037,0.5,0,0,0,,,,,,,COLLAR,HB,m,y,./images/COLLARHB.png,,,,,,,z,0,0.025,,,,,,,,0,127,127,15,1
,,,,,,,,,,,,,,,,,200485,19,2022-01-29_14h56.36,lexical_decision_task_DD_L5,2021.2.3,MacIntel,58.82352941,,,,,,,,,,,0.379,1,,,,,,,,,,,,,,,,,,,,,,,,-0.998613037,0.5,0,0,0,,,,,,,SAILOR,LB,z,y,./images/SAILORLB.png,,,,,,,z,1,0.379,,,,,,,,0,128,128,151,1
,,,,,,,,,,,,,,,,,200485,19,2022-01-29_14h56.36,lexical_decision_task_DD_L5,2021.2.3,MacIntel,58.82352941,,,,,,,,,,,0.141,0,,,,,,,,,,,,,,,,,,,,,,,,-0.998613037,0.5,0,0,0,,,,,,,PEACH,C,z,y,./images/PEACH.png,,,,,,,m,0,0.141,,,,,,,,0,129,129,119,1
,,,,,,,,,,,,,,,,,200485,19,2022-01-29_14h56.36,lexical_decision_task_DD_L5,2021.2.3,MacIntel,58.82352941,,,,,,,,,,,0.097,0,,,,,,,,,,,,,,,,,,,,,,,,-0.998613037,0.5,0,0,0,,,,,,,PLANET,C,m,y,./images/PLANET.png,,,,,,,z,0,0.097,,,,,,,,0,130,130,80,1
,,,,,,,,,,,,,,,,,200485,19,2022-01-29_14h56.36,lexical_decision_task_DD_L5,2021.2.3,MacIntel,58.82352941,,,,,,,,,,,0.001,0,,,,,,,,,,,,,,,,,,,,,,,,-0.998613037,0.5,0,0,0,,,,,,,SLOPE,HB,m,y,./images/SLOPEHB.png,,,,,,,z,0,0.001,,,,,,,,0,131,131,30,1
,,,,,,,,,,,,,,,,,200485,19,2022-01-29_14h56.36,lexical_decision_task_DD_L5,2021.2.3,MacIntel,58.82352941,,,,,,,,,,,0.377,1,,,,,,,,,,,,,,,,,,,,,,,,-0.998613037,0.5,0,0,0,,,,,,,ALLEY,LB,m,y,./images/ALLEYLB.png,,,,,,,m,1,0.377,,,,,,,,0,132,132,55,1
,,,,,,,,,,,,,,,,,200485,19,2022-01-29_14h56.36,lexical_decision_task_DD_L5,2021.2.3,MacIntel,58.82352941,,,,,,,,,,,0.415,1,,,,,,,,,,,,,,,,,,,,,,,,-0.998613037,0.5,0,0,0,,,,,,,POODLE,HB,z,y,./images/POODLEHB.png,,,,,,,z,1,0.415,,,,,,,,0,133,133,165,1
,,,,,,,,,,,,,,,,,200485,19,2022-01-29_14h56.36,lexical_decision_task_DD_L5,2021.2.3,MacIntel,58.82352941,,,,,,,,,,,0.314,1,,,,,,,,,,,,,,,,,,,,,,,,-0.998613037,0.5,0,0,0,,,,,,,MUSCLE,LB,z,y,./images/MUSCLELB.png,,,,,,,z,1,0.314,,,,,,,,0,134,134,88,1
,,,,,,,,,,,,,,,,,200485,19,2022-01-29_14h56.36,lexical_decision_task_DD_L5,2021.2.3,MacIntel,58.82352941,,,,,,,,,,,0.175,1,,,,,,,,,,,,,,,,,,,,,,,,-0.998613037,0.5,0,0,0,,,,,,,STOOL,LB,m,y,./images/STOOLLB.png,,,,,,,m,1,0.175,,,,,,,,0,135,135,43,1
,,,,,,,,,,,,,,,,,200485,19,2022-01-29_14h56.36,lexical_decision_task_DD_L5,2021.2.3,MacIntel,58.82352941,,,,,,,,,,,0.183,0,,,,,,,,,,,,,,,,,,,,,,,,-0.998613037,0.5,0,0,0,,,,,,,MOTOR,LB,z,y,./images/MOTORLB.png,,,,,,,m,0,0.183,,,,,,,,0,136,136,97,1
,,,,,,,,,,,,,,,,,200485,19,2022-01-29_14h56.36,lexical_decision_task_DD_L5,2021.2.3,MacIntel,58.82352941,,,,,,,,,,,0.364,1,,,,,,,,,,,,,,,,,,,,,,,,-0.998613037,0.5,0,0,0,,,,,,,DIVER,HB,m,y,./images/DIVERHB.png,,,,,,,m,1,0.364,,,,,,,,0,137,137,9,1
,,,,,,,,,,,,,,,,,200485,19,2022-01-29_14h56.36,lexical_decision_task_DD_L5,2021.2.3,MacIntel,58.82352941,,,,,,,,,,,0.191,0,,,,,,,,,,,,,,,,,,,,,,,,-0.998613037,0.5,0,0,0,,,,,,,SPINE,C,m,y,./images/SPINE.png,,,,,,,z,0,0.191,,,,,,,,0,138,138,65,1
,,,,,,,,,,,,,,,,,200485,19,2022-01-29_14h56.36,lexical_decision_task_DD_L5,2021.2.3,MacIntel,58.82352941,,,,,,,,,,,0.073,1,,,,,,,,,,,,,,,,,,,,,,,,-0.998613037,0.5,0,0,0,,,,,,,TULIP,C,z,y,./images/TULIP.png,,,,,,,z,1,0.073,,,,,,,,0,139,139,92,1
,,,,,,,,,,,,,,,,,200485,19,2022-01-29_14h56.36,lexical_decision_task_DD_L5,2021.2.3,MacIntel,58.82352941,,,,,,,,,,,0.063,1,,,,,,,,,,,,,,,,,,,,,,,,-0.998613037,0.5,0,0,0,,,,,,,DANCER,HB,m,y,./images/DANCERHB.png,,,,,,,m,1,0.063,,,,,,,,0,140,140,21,1
,,,,,,,,,,,,,,,,,200485,19,2022-01-29_14h56.36,lexical_decision_task_DD_L5,2021.2.3,MacIntel,58.82352941,,,,,,,,,,,0.12,1,,,,,,,,,,,,,,,,,,,,,,,,-0.998613037,0.5,0,0,0,,,,,,,STATUE,HB,m,y,./images/STATUEHB.png,,,,,,,m,1,0.12,,,,,,,,0,141,141,66,1
,,,,,,,,,,,,,,,,,200485,19,2022-01-29_14h56.36,lexical_decision_task_DD_L5,2021.2.3,MacIntel,58.82352941,,,,,,,,,,,0.501,0,,,,,,,,,,,,,,,,,,,,,,,,-0.998613037,0.5,0,0,0,,,,,,,MAMMAL,C,m,y,./images/MAMMAL.png,,,,,,,z,0,0.501,,,,,,,,0,142,142,62,1
,,,,,,,,,,,,,,,,,200485,19,2022-01-29_14h56.36,lexical_decision_task_DD_L5,2021.2.3,MacIntel,58.82352941,,,,,,,,,,,0.084,0,,,,,,,,,,,,,,,,,,,,,,,,-0.998613037,0.5,0,0,0,,,,,,,BURIAL,C,z,y,./images/BURIAL.png,,,,,,,m,0,0.084,,,,,,,,0,143,143,143,1
,,,,,,,,,,,,,,,,,200485,19,2022-01-29_14h56.36,lexical_decision_task_DD_L5,2021.2.3,MacIntel,58.82352941,,,,,,,,,,,0.004,0,,,,,,,,,,,,,,,,,,,,,,,,-0.998613037,0.5,0,0,0,,,,,,,PURSE,C,z,y,./images/PURSE.png,,,,,,,m,0,0.004,,,,,,,,0,144,144,146,1
,,,,,,,,,,,,,,,,,200485,19,2022-01-29_14h56.36,lexical_decision_task_DD_L5,2021.2.3,MacIntel,58.82352941,,,,,,,,,,,0.207,0,,,,,,,,,,,,,,,,,,,,,,,,-0.998613037,0.5,0,0,0,,,,,,,COOKER,HB,z,y,./images/COOKERHB.png,,,,,,,m,0,0.207,,,,,,,,0,145,145,153,1
,,,,,,,,,,,,,,,,,200485,19,2022-01-29_14h56.36,lexical_decision_task_DD_L5,2021.2.3,MacIntel,58.82352941,,,,,,,,,,,0.158,0,,,,,,,,,,,,,,,,,,,,,,,,-0.998613037,0.5,0,0,0,,,,,,,MOOSE,HB,z,y,./images/MOOSEHB.png,,,,,,,m,0,0.158,,,,,,,,0,146,146,141,1
,,,,,,,,,,,,,,,,,200485,19,2022-01-29_14h56.36,lexical_decision_task_DD_L5,2021.2.3,MacIntel,58.82352941,,,,,,,,,,,0.132,0,,,,,,,,,,,,,,,,,,,,,,,,-0.998613037,0.5,0,0,0,,,,,,,CANYON,LB,z,y,./images/CANYONLB.png,,,,,,,m,0,0.132,,,,,,,,0,147,147,118,1
,,,,,,,,,,,,,,,,,200485,19,2022-01-29_14h56.36,lexical_decision_task_DD_L5,2021.2.3,MacIntel,58.82352941,,,,,,,,,,,0.139,1,,,,,,,,,,,,,,,,,,,,,,,,-0.998613037,0.5,0,0,0,,,,,,,HAMMER,HB,m,y,./images/HAMMERHB.png,,,,,,,m,1,0.139,,,,,,,,0,148,148,75,1
,,,,,,,,,,,,,,,,,200485,19,2022-01-29_14h56.36,lexical_decision_task_DD_L5,2021.2.3,MacIntel,58.82352941,,,,,,,,,,,0.069,0,,,,,,,,,,,,,,,,,,,,,,,,-0.998613037,0.5,0,0,0,,,,,,,PARADE,C,m,y,./images/PARADE.png,,,,,,,z,0,0.069,,,,,,,,0,149,149,17,1
,,,,,,,,,,,,,,,,,200485,19,2022-01-29_14h56.36,lexical_decision_task_DD_L5,2021.2.3,MacIntel,58.82352941,,,,,,,,,,,0.122,1,,,,,,,,,,,,,,,,,,,,,,,,-0.998613037,0.5,0,0,0,,,,,,,GLOVE,LB,m,y,./images/GLOVELB.png,,,,,,,m,1,0.122,,,,,,,,0,150,150,73,1
,,,,,,,,,,,,,,,,,200485,19,2022-01-29_14h56.36,lexical_decision_task_DD_L5,2021.2.3,MacIntel,58.82352941,,,,,,,,,,,0.082,0,,,,,,,,,,,,,,,,,,,,,,,,-0.998613037,0.5,0,0,0,,,,,,,PAINT,LB,z,y,./images/PAINTLB.png,,,,,,,m,0,0.082,,,,,,,,0,151,151,91,1
,,,,,,,,,,,,,,,,,200485,19,2022-01-29_14h56.36,lexical_decision_task_DD_L5,2021.2.3,MacIntel,58.82352941,,,,,,,,,,,0.168,1,,,,,,,,,,,,,,,,,,,,,,,,-0.998613037,0.5,0,0,0,,,,,,,CURRY,HB,m,y,./images/CURRYHB.png,,,,,,,m,1,0.168,,,,,,,,0,152,152,60,1
,,,,,,,,,,,,,,,,,200485,19,2022-01-29_14h56.36,lexical_decision_task_DD_L5,2021.2.3,MacIntel,58.82352941,,,,,,,,,,,0.034,0,,,,,,,,,,,,,,,,,,,,,,,,-0.998613037,0.5,0,0,0,,,,,,,LADDER,C,z,y,./images/LADDER.png,,,,,,,m,0,0.034,,,,,,,,0,153,153,122,1
,,,,,,,,,,,,,,,,,200485,19,2022-01-29_14h56.36,lexical_decision_task_DD_L5,2021.2.3,MacIntel,58.82352941,,,,,,,,,,,0.05,0,,,,,,,,,,,,,,,,,,,,,,,,-0.998613037,0.5,0,0,0,,,,,,,MIRROR,HB,z,y,./images/MIRRORHB.png,,,,,,,m,0,0.05,,,,,,,,0,154,154,147,1
,,,,,,,,,,,,,,,,,200485,19,2022-01-29_14h56.36,lexical_decision_task_DD_L5,2021.2.3,MacIntel,58.82352941,,,,,,,,,,,0.097,1,,,,,,,,,,,,,,,,,,,,,,,,-0.998613037,0.5,0,0,0,,,,,,,CLIFF,C,m,y,./images/CLIFF.png,,,,,,,m,1,0.097,,,,,,,,0,155,155,8,1
,,,,,,,,,,,,,,,,,200485,19,2022-01-29_14h56.36,lexical_decision_task_DD_L5,2021.2.3,MacIntel,58.82352941,,,,,,,,,,,0.148,0,,,,,,,,,,,,,,,,,,,,,,,,-0.998613037,0.5,0,0,0,,,,,,,KITTEN,HB,z,y,./images/KITTENHB.png,,,,,,,m,0,0.148,,,,,,,,0,156,156,129,1
,,,,,,,,,,,,,,,,,200485,19,2022-01-29_14h56.36,lexical_decision_task_DD_L5,2021.2.3,MacIntel,58.82352941,,,,,,,,,,,0.615,1,,,,,,,,,,,,,,,,,,,,,,,,-0.998613037,0.5,0,0,0,,,,,,,STEAK,LB,m,y,./images/STEAKLB.png,,,,,,,m,1,0.615,,,,,,,,0,157,157,31,1
,,,,,,,,,,,,,,,,,200485,19,2022-01-29_14h56.36,lexical_decision_task_DD_L5,2021.2.3,MacIntel,58.82352941,,,,,,,,,,,0.503,1,,,,,,,,,,,,,,,,,,,,,,,,-0.998613037,0.5,0,0,0,,,,,,,MUFFIN,LB,z,y,./images/MUFFINLB.png,,,,,,,z,1,0.503,,,,,,,,0,158,158,139,1
,,,,,,,,,,,,,,,,,200485,19,2022-01-29_14h56.36,lexical_decision_task_DD_L5,2021.2.3,MacIntel,58.82352941,,,,,,,,,,,0.232,1,,,,,,,,,,,,,,,,,,,,,,,,-0.998613037,0.5,0,0,0,,,,,,,CANOE,LB,m,y,./images/CANOELB.png,,,,,,,m,1,0.232,,,,,,,,0,159,159,58,1
,,,,,,,,,,,,,,,,,200485,19,2022-01-29_14h56.36,lexical_decision_task_DD_L5,2021.2.3,MacIntel,58.82352941,,,,,,,,,,,0.65,0,,,,,,,,,,,,,,,,,,,,,,,,-0.998613037,0.5,0,0,0,,,,,,,PARCEL,HB,m,y,./images/PARCELHB.png,,,,,,,z,0,0.65,,,,,,,,0,160,160,18,1
,,,,,,,,,,,,,,,,,200485,19,2022-01-29_14h56.36,lexical_decision_task_DD_L5,2021.2.3,MacIntel,58.82352941,,,,,,,,,,,1.064,0,,,,,,,,,,,,,,,,,,,,,,,,-0.998613037,0.5,0,0,0,,,,,,,GREASE,HB,z,y,./images/GREASEHB.png,,,,,,,m,0,1.064,,,,,,,,0,161,161,99,1
,,,,,,,,,,,,,,,,,200485,19,2022-01-29_14h56.36,lexical_decision_task_DD_L5,2021.2.3,MacIntel,58.82352941,,,,,,,,,,,0.623,0,,,,,,,,,,,,,,,,,,,,,,,,-0.998613037,0.5,0,0,0,,,,,,,WALNUT,HB,m,y,./images/WALNUTHB.png,,,,,,,z,0,0.623,,,,,,,,0,162,162,0,1
,,,,,,,,,,,,,,,,,200485,19,2022-01-29_14h56.36,lexical_decision_task_DD_L5,2021.2.3,MacIntel,58.82352941,,,,,,,,,,,0.375,0,,,,,,,,,,,,,,,,,,,,,,,,-0.998613037,0.5,0,0,0,,,,,,,HEATER,C,m,y,./images/HEATER.png,,,,,,,z,0,0.375,,,,,,,,0,163,163,56,1
,,,,,,,,,,,,,,,,,200485,19,2022-01-29_14h56.36,lexical_decision_task_DD_L5,2021.2.3,MacIntel,58.82352941,,,,,,,,,,,0.219,1,,,,,,,,,,,,,,,,,,,,,,,,-0.998613037,0.5,0,0,0,,,,,,,GARDEN,LB,m,y,./images/GARDENLB.png,,,,,,,m,1,0.219,,,,,,,,0,164,164,10,1
,,,,,,,,,,,,,,,,,200485,19,2022-01-29_14h56.36,lexical_decision_task_DD_L5,2021.2.3,MacIntel,58.82352941,,,,,,,,,,,0.242,0,,,,,,,,,,,,,,,,,,,,,,,,-0.998613037,0.5,0,0,0,,,,,,,SAUNA,HB,m,y,./images/SAUNAHB.png,,,,,,,z,0,0.242,,,,,,,,0,165,165,33,1
,,,,,,,,,,,,,,,,,200485,19,2022-01-29_14h56.36,lexical_decision_task_DD_L5,2021.2.3,MacIntel,58.82352941,,,,,,,,,,,0.006,0,,,,,,,,,,,,,,,,,,,,,,,,-0.998613037,0.5,0,0,0,,,,,,,FINGER,HB,z,y,./images/FINGERHB.png,,,,,,,m,0,0.006,,,,,,,,0,166,166,87,1
,,,,,,,,,,,,,,,,,200485,19,2022-01-29_14h56.36,lexical_decision_task_DD_L5,2021.2.3,MacIntel,58.82352941,,,,,,,,,,,0.699,1,,,,,,,,,,,,,,,,,,,,,,,,-0.998613037,0.5,0,0,0,,,,,,,DONKEY,LB,m,y,./images/DONKEYLB.png,,,,,,,m,1,0.699,,,,,,,,0,167,167,19,1
