key_resp.keys,instr_done_touch.x,instr_done_touch.y,instr_done_touch.leftButton,instr_done_touch.midButton,instr_done_touch.rightButton,instr_done_touch.clicked_name,instruction_pages.thisRepN,instruction_pages.thisTrialN,instruction_pages.thisN,instruction_pages.thisIndex,instruction_pages.ran,pageN,phase,instruct_text,has_image,instruct_image,participant,age,date,expName,psychopyVersion,OS,frameRate,response.keys,response.corr,response.rt,touch_resp.x,touch_resp.y,touch_resp.leftButton,touch_resp.midButton,touch_resp.rightButton,touch_resp.time,touch_resp.clicked_name,rt,corr,practrials.thisRepN,practrials.thisTrialN,practrials.thisN,practrials.thisIndex,practrials.ran,TrialID,Target,corrAns,end_of_practice_trials_pages.thisRepN,end_of_practice_trials_pages.thisTrialN,end_of_practice_trials_pages.thisN,end_of_practice_trials_pages.thisIndex,end_of_practice_trials_pages.ran,key_resp_2.keys,key_resp_2.corr,key_resp_2.rt,targ_click.x,targ_click.y,targ_click.leftButton,targ_click.midButton,targ_click.rightButton,targ_click.time,targ_click.clicked_name,break_done_touch.x,break_done_touch.y,break_done_touch.leftButton,break_done_touch.midButton,break_done_touch.rightButton,break_done_keyboard.keys,maintrials.thisRepN,maintrials.thisTrialN,maintrials.thisN,maintrials.thisIndex,maintrials.ran,string,blur,study,lex,stim_path,break_done_touch.clicked_name,break_done_keyboard.rt,test_instructions.thisRepN,test_instructions.thisTrialN,test_instructions.thisN,test_instructions.thisIndex,test_instructions.ran,key_resp.rt,key_resp_3.keys,key_resp_3.corr,key_resp_3.rt,test_click.x,test_click.y,test_click.leftButton,test_click.midButton,test_click.rightButton,test_click.time,test_click.clicked_name,test_phase.thisRepN,test_phase.thisTrialN,test_phase.thisN,test_phase.thisIndex,test_phase.ran
,0.048148148,-0.390740741,1,0,0,instr_done_button,0,0,0,0,1,1,instructions,"INSTRUCTIONS
At the start of each trial, look at the plus sign  (+) in the center of the screen.  This tells you that a trial is about to begin and where to look. Second, the plus sign will disappear and a string of letters will appear. Your task is to determine if the string of letters is a word or not. If the item is a word press the M key (on keyboard)  or touch the word button (phone/tablet).  If the item is not a word,  press the  Z key (on keyboard)  or touch the nonword button (on phone/tablet). 
Press the space bar or touch  continue.",0,,200479,19,2022-01-28_17h55.40.018,lexical_decision_task_DD_L5,2021.2.3,Win32,143.2254368,,,,,,,,,,,,,,,,,,,,,,,,,,,,,,,,,,,,,,,,,,,,,,,,,,,,,,,,,,,,,,,,,,,,,,,,,,
,0.058333333,-0.406481481,1,0,0,instr_done_button,0,1,1,1,1,2,instructions,"If your device has a keyboard, press the 'Z' key for nonwords and the 'M' key for words.





Press the space bar or touch the button below to continue.",0,keyboard-example.gif,200479,19,2022-01-28_17h55.40.018,lexical_decision_task_DD_L5,2021.2.3,Win32,143.2254368,,,,,,,,,,,,,,,,,,,,,,,,,,,,,,,,,,,,,,,,,,,,,,,,,,,,,,,,,,,,,,,,,,,,,,,,,,
,0.024074074,-0.397222222,1,0,0,instr_done_button,0,2,2,2,1,3,instructions,"If you are using a touchscreen only device, use the buttons on the screen. Do not use the mouse.





Press the space bar or touch the button below to continue.",0,touchscreen-example.gif,200479,19,2022-01-28_17h55.40.018,lexical_decision_task_DD_L5,2021.2.3,Win32,143.2254368,,,,,,,,,,,,,,,,,,,,,,,,,,,,,,,,,,,,,,,,,,,,,,,,,,,,,,,,,,,,,,,,,,,,,,,,,,
,0.02962963,-0.382407407,1,0,0,instr_done_button,0,3,3,3,1,4,instructions,"It is very important that you respond as quickly and accurately as possible, as each letter string will only be on the screen for two seconds. If you do not respond within this time, the message 'Too slow!' will be displayed and the experiment will progress to the next letter string. The first 20 trials will be practice trials and you will receive feedback on your answers. 

Press the space bar or touch the button below to start the practice trials.",0,,200479,19,2022-01-28_17h55.40.018,lexical_decision_task_DD_L5,2021.2.3,Win32,143.2254368,,,,,,,,,,,,,,,,,,,,,,,,,,,,,,,,,,,,,,,,,,,,,,,,,,,,,,,,,,,,,,,,,,,,,,,,,,
,,,,,,,,,,,,,,,,,200479,19,2022-01-28_17h55.40.018,lexical_decision_task_DD_L5,2021.2.3,Win32,143.2254368,z,1,1.6656,,,,,,,,1.6656,1,0,0,0,8,1,1001,ASLERT,z,,,,,,,,,,,,,,,,,,,,,,,,,,,,,,,,,,,,,,,,,,,,,,,,,,,,,,
,,,,,,,,,,,,,,,,,200479,19,2022-01-28_17h55.40.018,lexical_decision_task_DD_L5,2021.2.3,Win32,143.2254368,m,1,0.9671,,,,,,,,0.9671,1,0,1,1,6,1,1001,ZOMBIE,m,,,,,,,,,,,,,,,,,,,,,,,,,,,,,,,,,,,,,,,,,,,,,,,,,,,,,,
,,,,,,,,,,,,,,,,,200479,19,2022-01-28_17h55.40.018,lexical_decision_task_DD_L5,2021.2.3,Win32,143.2254368,m,1,0.8332,,,,,,,,0.8332,1,0,2,2,0,1,1001,UTOPIA,m,,,,,,,,,,,,,,,,,,,,,,,,,,,,,,,,,,,,,,,,,,,,,,,,,,,,,,
,,,,,,,,,,,,,,,,,200479,19,2022-01-28_17h55.40.018,lexical_decision_task_DD_L5,2021.2.3,Win32,143.2254368,m,1,0.5988,,,,,,,,0.5988,1,0,3,3,7,1,1001,VOLUME,m,,,,,,,,,,,,,,,,,,,,,,,,,,,,,,,,,,,,,,,,,,,,,,,,,,,,,,
,,,,,,,,,,,,,,,,,200479,19,2022-01-28_17h55.40.018,lexical_decision_task_DD_L5,2021.2.3,Win32,143.2254368,z,1,1.1157,,,,,,,,1.1157,1,0,4,4,12,1,1001,SPRINY,z,,,,,,,,,,,,,,,,,,,,,,,,,,,,,,,,,,,,,,,,,,,,,,,,,,,,,,
,,,,,,,,,,,,,,,,,200479,19,2022-01-28_17h55.40.018,lexical_decision_task_DD_L5,2021.2.3,Win32,143.2254368,z,1,0.6484,,,,,,,,0.6484,1,0,5,5,9,1,1001,FARINY,z,,,,,,,,,,,,,,,,,,,,,,,,,,,,,,,,,,,,,,,,,,,,,,,,,,,,,,
,,,,,,,,,,,,,,,,,200479,19,2022-01-28_17h55.40.018,lexical_decision_task_DD_L5,2021.2.3,Win32,143.2254368,z,1,0.8494,,,,,,,,0.8494,1,0,6,6,13,1,1001,ROUPET,z,,,,,,,,,,,,,,,,,,,,,,,,,,,,,,,,,,,,,,,,,,,,,,,,,,,,,,
,,,,,,,,,,,,,,,,,200479,19,2022-01-28_17h55.40.018,lexical_decision_task_DD_L5,2021.2.3,Win32,143.2254368,z,1,0.6498,,,,,,,,0.6498,1,0,7,7,11,1,1001,RASHET,z,,,,,,,,,,,,,,,,,,,,,,,,,,,,,,,,,,,,,,,,,,,,,,,,,,,,,,
,,,,,,,,,,,,,,,,,200479,19,2022-01-28_17h55.40.018,lexical_decision_task_DD_L5,2021.2.3,Win32,143.2254368,z,1,0.6666,,,,,,,,0.6666,1,0,8,8,14,1,1001,THRALE,z,,,,,,,,,,,,,,,,,,,,,,,,,,,,,,,,,,,,,,,,,,,,,,,,,,,,,,
,,,,,,,,,,,,,,,,,200479,19,2022-01-28_17h55.40.018,lexical_decision_task_DD_L5,2021.2.3,Win32,143.2254368,m,1,0.5991,,,,,,,,0.5991,1,0,9,9,3,1,1001,MATRIX,m,,,,,,,,,,,,,,,,,,,,,,,,,,,,,,,,,,,,,,,,,,,,,,,,,,,,,,
,,,,,,,,,,,,,,,,,200479,19,2022-01-28_17h55.40.018,lexical_decision_task_DD_L5,2021.2.3,Win32,143.2254368,m,1,0.6495,,,,,,,,0.6495,1,0,10,10,1,1,1001,ADJUST,m,,,,,,,,,,,,,,,,,,,,,,,,,,,,,,,,,,,,,,,,,,,,,,,,,,,,,,
,,,,,,,,,,,,,,,,,200479,19,2022-01-28_17h55.40.018,lexical_decision_task_DD_L5,2021.2.3,Win32,143.2254368,m,1,0.817,,,,,,,,0.817,1,0,11,11,4,1,1001,SQUEAK,m,,,,,,,,,,,,,,,,,,,,,,,,,,,,,,,,,,,,,,,,,,,,,,,,,,,,,,
,,,,,,,,,,,,,,,,,200479,19,2022-01-28_17h55.40.018,lexical_decision_task_DD_L5,2021.2.3,Win32,143.2254368,m,1,0.6501,,,,,,,,0.6501,1,0,12,12,2,1,1001,ALMOND,m,,,,,,,,,,,,,,,,,,,,,,,,,,,,,,,,,,,,,,,,,,,,,,,,,,,,,,
,,,,,,,,,,,,,,,,,200479,19,2022-01-28_17h55.40.018,lexical_decision_task_DD_L5,2021.2.3,Win32,143.2254368,m,1,0.7014,,,,,,,,0.7014,1,0,13,13,5,1,1001,OBTAIN,m,,,,,,,,,,,,,,,,,,,,,,,,,,,,,,,,,,,,,,,,,,,,,,,,,,,,,,
,,,,,,,,,,,,,,,,,200479,19,2022-01-28_17h55.40.018,lexical_decision_task_DD_L5,2021.2.3,Win32,143.2254368,z,1,0.7498,,,,,,,,0.7498,1,0,14,14,15,1,1001,WHAISE,z,,,,,,,,,,,,,,,,,,,,,,,,,,,,,,,,,,,,,,,,,,,,,,,,,,,,,,
,,,,,,,,,,,,,,,,,200479,19,2022-01-28_17h55.40.018,lexical_decision_task_DD_L5,2021.2.3,Win32,143.2254368,z,1,0.7667,,,,,,,,0.7667,1,0,15,15,10,1,1001,INLADE,z,,,,,,,,,,,,,,,,,,,,,,,,,,,,,,,,,,,,,,,,,,,,,,,,,,,,,,
,0.05,-0.367592593,1,0,0,instr_done_button,,,,,,1,end_of_practice,"You have completed the practice trials. During the experimental trials, you will not receive feedback. 
Before you begin, please ensure that you are in a comfortable and quiet location and will not be disturbed for about 15 minutes, as we cannot use your data if you do not complete all the trials. 
 When you are ready to start the experimental trials, please press space or touch the button below.",,,200479,19,2022-01-28_17h55.40.018,lexical_decision_task_DD_L5,2021.2.3,Win32,143.2254368,,,,,,,,,,,,,,,,,,,,,0,0,0,0,1,,,,,,,,,,,,,,,,,,,,,,,,,,,,,,,,,,,,,,,,,,,,,,,,,
,,,,,,,,,,,,,,,,,200479,19,2022-01-28_17h55.40.018,lexical_decision_task_DD_L5,2021.2.3,Win32,143.2254368,,,,,,,,,,,0.8381,1,,,,,,,,,,,,,,z,1,0.8381,,,,,,,,-0.371296296,-0.289814815,0,0,0,,0,0,0,102,1,DULLE,C,old,z,./images/DULLE.png,,,,,,,,,,,,,,,,,,,,,,,
,,,,,,,,,,,,,,,,,200479,19,2022-01-28_17h55.40.018,lexical_decision_task_DD_L5,2021.2.3,Win32,143.2254368,,,,,,,,,,,1.401,1,,,,,,,,,,,,,,m,1,1.401,,,,,,,,-0.371296296,-0.289814815,0,0,0,,0,1,1,58,1,CANOE,LB,old,m,./images/CANOELB.png,,,,,,,,,,,,,,,,,,,,,,,
,,,,,,,,,,,,,,,,,200479,19,2022-01-28_17h55.40.018,lexical_decision_task_DD_L5,2021.2.3,Win32,143.2254368,,,,,,,,,,,1.1166,1,,,,,,,,,,,,,,m,1,1.1166,,,,,,,,-0.371296296,-0.289814815,0,0,0,,0,2,2,70,1,BANANA,LB,old,m,./images/BANANALB.png,,,,,,,,,,,,,,,,,,,,,,,
,,,,,,,,,,,,,,,,,200479,19,2022-01-28_17h55.40.018,lexical_decision_task_DD_L5,2021.2.3,Win32,143.2254368,,,,,,,,,,,1.4998,1,,,,,,,,,,,,,,m,1,1.4998,,,,,,,,-0.371296296,-0.289814815,0,0,0,,0,3,3,56,1,HEATER,C,old,m,./images/HEATER.png,,,,,,,,,,,,,,,,,,,,,,,
,,,,,,,,,,,,,,,,,200479,19,2022-01-28_17h55.40.018,lexical_decision_task_DD_L5,2021.2.3,Win32,143.2254368,,,,,,,,,,,0.7845,1,,,,,,,,,,,,,,z,1,0.7845,,,,,,,,-0.371296296,-0.289814815,0,0,0,,0,4,4,95,1,HANTY,LB,old,z,./images/HANTYLB.png,,,,,,,,,,,,,,,,,,,,,,,
,,,,,,,,,,,,,,,,,200479,19,2022-01-28_17h55.40.018,lexical_decision_task_DD_L5,2021.2.3,Win32,143.2254368,,,,,,,,,,,1.5165,0,,,,,,,,,,,,,,z,0,1.5165,,,,,,,,-0.371296296,-0.289814815,0,0,0,,0,5,5,12,1,BLOKE,HB,old,m,./images/BLOKEHB.png,,,,,,,,,,,,,,,,,,,,,,,
,,,,,,,,,,,,,,,,,200479,19,2022-01-28_17h55.40.018,lexical_decision_task_DD_L5,2021.2.3,Win32,143.2254368,,,,,,,,,,,1.0664,1,,,,,,,,,,,,,,z,1,1.0664,,,,,,,,-0.371296296,-0.289814815,0,0,0,,0,6,6,167,1,ZONET,LB,old,z,./images/ZONETLB.png,,,,,,,,,,,,,,,,,,,,,,,
,,,,,,,,,,,,,,,,,200479,19,2022-01-28_17h55.40.018,lexical_decision_task_DD_L5,2021.2.3,Win32,143.2254368,,,,,,,,,,,1.6172,1,,,,,,,,,,,,,,z,1,1.6172,,,,,,,,-0.371296296,-0.289814815,0,0,0,,0,7,7,145,1,LAMEL,HB,old,z,./images/LAMELHB.png,,,,,,,,,,,,,,,,,,,,,,,
,,,,,,,,,,,,,,,,,200479,19,2022-01-28_17h55.40.018,lexical_decision_task_DD_L5,2021.2.3,Win32,143.2254368,,,,,,,,,,,1.3152,1,,,,,,,,,,,,,,z,1,1.3152,,,,,,,,-0.371296296,-0.289814815,0,0,0,,0,8,8,142,1,PLASK,HB,old,z,./images/PLASKHB.png,,,,,,,,,,,,,,,,,,,,,,,
,,,,,,,,,,,,,,,,,200479,19,2022-01-28_17h55.40.018,lexical_decision_task_DD_L5,2021.2.3,Win32,143.2254368,,,,,,,,,,,1.0834,1,,,,,,,,,,,,,,m,1,1.0834,,,,,,,,-0.371296296,-0.289814815,0,0,0,,0,9,9,2,1,STOVE,C,old,m,./images/STOVE.png,,,,,,,,,,,,,,,,,,,,,,,
,,,,,,,,,,,,,,,,,200479,19,2022-01-28_17h55.40.018,lexical_decision_task_DD_L5,2021.2.3,Win32,143.2254368,,,,,,,,,,,1.6504,1,,,,,,,,,,,,,,m,1,1.6504,,,,,,,,-0.371296296,-0.289814815,0,0,0,,0,10,10,3,1,CRATER,HB,old,m,./images/CRATERHB.png,,,,,,,,,,,,,,,,,,,,,,,
,,,,,,,,,,,,,,,,,200479,19,2022-01-28_17h55.40.018,lexical_decision_task_DD_L5,2021.2.3,Win32,143.2254368,,,,,,,,,,,0.7179,1,,,,,,,,,,,,,,z,1,0.7179,,,,,,,,-0.371296296,-0.289814815,0,0,0,,0,11,11,117,1,STEEG,C,old,z,./images/STEEG.png,,,,,,,,,,,,,,,,,,,,,,,
,,,,,,,,,,,,,,,,,200479,19,2022-01-28_17h55.40.018,lexical_decision_task_DD_L5,2021.2.3,Win32,143.2254368,,,,,,,,,,,2.2496,0,,,,,,,,,,,,,,z,0,2.2496,,,,,,,,-0.371296296,-0.289814815,0,0,0,,0,12,12,20,1,GRANNY,C,old,m,./images/GRANNY.png,,,,,,,,,,,,,,,,,,,,,,,
,,,,,,,,,,,,,,,,,200479,19,2022-01-28_17h55.40.018,lexical_decision_task_DD_L5,2021.2.3,Win32,143.2254368,,,,,,,,,,,0.6504,1,,,,,,,,,,,,,,m,1,0.6504,,,,,,,,-0.371296296,-0.289814815,0,0,0,,0,13,13,29,1,PISTOL,C,old,m,./images/PISTOL.png,,,,,,,,,,,,,,,,,,,,,,,
,,,,,,,,,,,,,,,,,200479,19,2022-01-28_17h55.40.018,lexical_decision_task_DD_L5,2021.2.3,Win32,143.2254368,,,,,,,,,,,1.0173,1,,,,,,,,,,,,,,z,1,1.0173,,,,,,,,-0.371296296,-0.289814815,0,0,0,,0,14,14,153,1,CLUPS,C,old,z,./images/CLUPS.png,,,,,,,,,,,,,,,,,,,,,,,
,,,,,,,,,,,,,,,,,200479,19,2022-01-28_17h55.40.018,lexical_decision_task_DD_L5,2021.2.3,Win32,143.2254368,,,,,,,,,,,0.7,1,,,,,,,,,,,,,,m,1,0.7,,,,,,,,-0.371296296,-0.289814815,0,0,0,,0,15,15,75,1,HAMMER,HB,old,m,./images/HAMMERHB.png,,,,,,,,,,,,,,,,,,,,,,,
,,,,,,,,,,,,,,,,,200479,19,2022-01-28_17h55.40.018,lexical_decision_task_DD_L5,2021.2.3,Win32,143.2254368,,,,,,,,,,,0.7834,1,,,,,,,,,,,,,,z,1,0.7834,,,,,,,,-0.371296296,-0.289814815,0,0,0,,0,16,16,129,1,PRANS,C,old,z,./images/PRANS.png,,,,,,,,,,,,,,,,,,,,,,,
,,,,,,,,,,,,,,,,,200479,19,2022-01-28_17h55.40.018,lexical_decision_task_DD_L5,2021.2.3,Win32,143.2254368,,,,,,,,,,,0.8998,1,,,,,,,,,,,,,,z,1,0.8998,,,,,,,,-0.371296296,-0.289814815,0,0,0,,0,17,17,113,1,LINEW,LB,old,z,./images/LINEWLB.png,,,,,,,,,,,,,,,,,,,,,,,
,,,,,,,,,,,,,,,,,200479,19,2022-01-28_17h55.40.018,lexical_decision_task_DD_L5,2021.2.3,Win32,143.2254368,,,,,,,,,,,2.1998,1,,,,,,,,,,,,,,z,1,2.1998,,,,,,,,-0.371296296,-0.289814815,0,0,0,,0,18,18,112,1,MYING,HB,old,z,./images/MYINGHB.png,,,,,,,,,,,,,,,,,,,,,,,
,,,,,,,,,,,,,,,,,200479,19,2022-01-28_17h55.40.018,lexical_decision_task_DD_L5,2021.2.3,Win32,143.2254368,,,,,,,,,,,0.899,1,,,,,,,,,,,,,,m,1,0.899,,,,,,,,-0.371296296,-0.289814815,0,0,0,,0,19,19,63,1,BAKER,HB,old,m,./images/BAKERHB.png,,,,,,,,,,,,,,,,,,,,,,,
,,,,,,,,,,,,,,,,,200479,19,2022-01-28_17h55.40.018,lexical_decision_task_DD_L5,2021.2.3,Win32,143.2254368,,,,,,,,,,,1.6659,1,,,,,,,,,,,,,,m,1,1.6659,,,,,,,,-0.371296296,-0.289814815,0,0,0,,0,20,20,52,1,DESERT,LB,old,m,./images/DESERTLB.png,,,,,,,,,,,,,,,,,,,,,,,
,,,,,,,,,,,,,,,,,200479,19,2022-01-28_17h55.40.018,lexical_decision_task_DD_L5,2021.2.3,Win32,143.2254368,,,,,,,,,,,1.3011,1,,,,,,,,,,,,,,z,1,1.3011,,,,,,,,-0.371296296,-0.289814815,0,0,0,,0,21,21,99,1,BACKY,C,old,z,./images/BACKY.png,,,,,,,,,,,,,,,,,,,,,,,
,,,,,,,,,,,,,,,,,200479,19,2022-01-28_17h55.40.018,lexical_decision_task_DD_L5,2021.2.3,Win32,143.2254368,,,,,,,,,,,1.2669,1,,,,,,,,,,,,,,m,1,1.2669,,,,,,,,-0.371296296,-0.289814815,0,0,0,,0,22,22,34,1,RAZOR,LB,old,m,./images/RAZORLB.png,,,,,,,,,,,,,,,,,,,,,,,
,,,,,,,,,,,,,,,,,200479,19,2022-01-28_17h55.40.018,lexical_decision_task_DD_L5,2021.2.3,Win32,143.2254368,,,,,,,,,,,0.6163,1,,,,,,,,,,,,,,m,1,0.6163,,,,,,,,-0.371296296,-0.289814815,0,0,0,,0,23,23,13,1,BUNNY,LB,old,m,./images/BUNNYLB.png,,,,,,,,,,,,,,,,,,,,,,,
,,,,,,,,,,,,,,,,,200479,19,2022-01-28_17h55.40.018,lexical_decision_task_DD_L5,2021.2.3,Win32,143.2254368,,,,,,,,,,,0.8337,1,,,,,,,,,,,,,,m,1,0.8337,,,,,,,,-0.371296296,-0.289814815,0,0,0,,0,24,24,57,1,FERRY,HB,old,m,./images/FERRYHB.png,,,,,,,,,,,,,,,,,,,,,,,
,,,,,,,,,,,,,,,,,200479,19,2022-01-28_17h55.40.018,lexical_decision_task_DD_L5,2021.2.3,Win32,143.2254368,,,,,,,,,,,0.7831,1,,,,,,,,,,,,,,z,1,0.7831,,,,,,,,-0.371296296,-0.289814815,0,0,0,,0,25,25,123,1,SEDGE,C,old,z,./images/SEDGE.png,,,,,,,,,,,,,,,,,,,,,,,
,,,,,,,,,,,,,,,,,200479,19,2022-01-28_17h55.40.018,lexical_decision_task_DD_L5,2021.2.3,Win32,143.2254368,,,,,,,,,,,1.0497,1,,,,,,,,,,,,,,z,1,1.0497,,,,,,,,-0.371296296,-0.289814815,0,0,0,,0,26,26,124,1,TUNCH,HB,old,z,./images/TUNCHHB.png,,,,,,,,,,,,,,,,,,,,,,,
,,,,,,,,,,,,,,,,,200479,19,2022-01-28_17h55.40.018,lexical_decision_task_DD_L5,2021.2.3,Win32,143.2254368,,,,,,,,,,,1.1171,1,,,,,,,,,,,,,,m,1,1.1171,,,,,,,,-0.371296296,-0.289814815,0,0,0,,0,27,27,73,1,GLOVE,LB,old,m,./images/GLOVELB.png,,,,,,,,,,,,,,,,,,,,,,,
,,,,,,,,,,,,,,,,,200479,19,2022-01-28_17h55.40.018,lexical_decision_task_DD_L5,2021.2.3,Win32,143.2254368,,,,,,,,,,,1.2331,1,,,,,,,,,,,,,,m,1,1.2331,,,,,,,,-0.371296296,-0.289814815,0,0,0,,0,28,28,69,1,ARROW,HB,old,m,./images/ARROWHB.png,,,,,,,,,,,,,,,,,,,,,,,
,,,,,,,,,,,,,,,,,200479,19,2022-01-28_17h55.40.018,lexical_decision_task_DD_L5,2021.2.3,Win32,143.2254368,,,,,,,,,,,0.9996,1,,,,,,,,,,,,,,m,1,0.9996,,,,,,,,-0.371296296,-0.289814815,0,0,0,,0,29,29,72,1,FLASK,HB,old,m,./images/FLASKHB.png,,,,,,,,,,,,,,,,,,,,,,,
,,,,,,,,,,,,,,,,,200479,19,2022-01-28_17h55.40.018,lexical_decision_task_DD_L5,2021.2.3,Win32,143.2254368,,,,,,,,,,,1.4006,1,,,,,,,,,,,,,,z,1,1.4006,,,,,,,,-0.371296296,-0.289814815,0,0,0,,0,30,30,127,1,NINDY,HB,old,z,./images/NINDYHB.png,,,,,,,,,,,,,,,,,,,,,,,
,,,,,,,,,,,,,,,,,200479,19,2022-01-28_17h55.40.018,lexical_decision_task_DD_L5,2021.2.3,Win32,143.2254368,,,,,,,,,,,0.8162,1,,,,,,,,,,,,,,m,1,0.8162,,,,,,,,-0.371296296,-0.289814815,0,0,0,,0,31,31,19,1,DONKEY,LB,old,m,./images/DONKEYLB.png,,,,,,,,,,,,,,,,,,,,,,,
,,,,,,,,,,,,,,,,,200479,19,2022-01-28_17h55.40.018,lexical_decision_task_DD_L5,2021.2.3,Win32,143.2254368,,,,,,,,,,,1.3656,1,,,,,,,,,,,,,,m,1,1.3656,,,,,,,,-0.371296296,-0.289814815,0,0,0,,0,32,32,50,1,PILOT,C,old,m,./images/PILOT.png,,,,,,,,,,,,,,,,,,,,,,,
,,,,,,,,,,,,,,,,,200479,19,2022-01-28_17h55.40.018,lexical_decision_task_DD_L5,2021.2.3,Win32,143.2254368,,,,,,,,,,,0.649,1,,,,,,,,,,,,,,m,1,0.649,,,,,,,,-0.371296296,-0.289814815,0,0,0,,0,33,33,28,1,CASINO,LB,old,m,./images/CASINOLB.png,,,,,,,,,,,,,,,,,,,,,,,
,,,,,,,,,,,,,,,,,200479,19,2022-01-28_17h55.40.018,lexical_decision_task_DD_L5,2021.2.3,Win32,143.2254368,,,,,,,,,,,1.6327,1,,,,,,,,,,,,,,z,1,1.6327,,,,,,,,-0.371296296,-0.289814815,0,0,0,,0,34,34,109,1,BURGE,HB,old,z,./images/BURGEHB.png,,,,,,,,,,,,,,,,,,,,,,,
,,,,,,,,,,,,,,,,,200479,19,2022-01-28_17h55.40.018,lexical_decision_task_DD_L5,2021.2.3,Win32,143.2254368,,,,,,,,,,,0.8324,1,,,,,,,,,,,,,,m,1,0.8324,,,,,,,,-0.371296296,-0.289814815,0,0,0,,0,35,35,77,1,WHEEL,C,old,m,./images/WHEEL.png,,,,,,,,,,,,,,,,,,,,,,,
,,,,,,,,,,,,,,,,,200479,19,2022-01-28_17h55.40.018,lexical_decision_task_DD_L5,2021.2.3,Win32,143.2254368,,,,,,,,,,,1.5323,1,,,,,,,,,,,,,,z,1,1.5323,,,,,,,,-0.371296296,-0.289814815,0,0,0,,0,36,36,160,1,VEETS,HB,old,z,./images/VEETSHB.png,,,,,,,,,,,,,,,,,,,,,,,
,,,,,,,,,,,,,,,,,200479,19,2022-01-28_17h55.40.018,lexical_decision_task_DD_L5,2021.2.3,Win32,143.2254368,,,,,,,,,,,0.5994,1,,,,,,,,,,,,,,m,1,0.5994,,,,,,,,-0.371296296,-0.289814815,0,0,0,,0,37,37,68,1,VALLEY,C,old,m,./images/VALLEY.png,,,,,,,,,,,,,,,,,,,,,,,
,,,,,,,,,,,,,,,,,200479,19,2022-01-28_17h55.40.018,lexical_decision_task_DD_L5,2021.2.3,Win32,143.2254368,,,,,,,,,,,2.1333,1,,,,,,,,,,,,,,z,1,2.1333,,,,,,,,-0.371296296,-0.289814815,0,0,0,,0,38,38,130,1,CRILL,HB,old,z,./images/CRILLHB.png,,,,,,,,,,,,,,,,,,,,,,,
,,,,,,,,,,,,,,,,,200479,19,2022-01-28_17h55.40.018,lexical_decision_task_DD_L5,2021.2.3,Win32,143.2254368,,,,,,,,,,,2.1995,0,,,,,,,,,,,,,,m,0,2.1995,,,,,,,,-0.371296296,-0.289814815,0,0,0,,0,39,39,143,1,MONGS,LB,old,z,./images/MONGSLB.png,,,,,,,,,,,,,,,,,,,,,,,
,,,,,,,,,,,,,,,,,200479,19,2022-01-28_17h55.40.018,lexical_decision_task_DD_L5,2021.2.3,Win32,143.2254368,,,,,,,,,,,1.2838,1,,,,,,,,,,,,,,m,1,1.2838,,,,,,,,-0.371296296,-0.289814815,0,0,0,,0,40,40,39,1,CANDY,HB,old,m,./images/CANDYHB.png,,,,,,,,,,,,,,,,,,,,,,,
,,,,,,,,,,,,,,,,,200479,19,2022-01-28_17h55.40.018,lexical_decision_task_DD_L5,2021.2.3,Win32,143.2254368,,,,,,,,,,,0.8173,1,,,,,,,,,,,,,,m,1,0.8173,,,,,,,,-0.113888889,-0.377777778,1,0,0,,0,41,41,78,1,BROOM,HB,old,m,./images/BROOMHB.png,break_done_button,,,,,,,,,,,,,,,,,,,,,,
,,,,,,,,,,,,,,,,,200479,19,2022-01-28_17h55.40.018,lexical_decision_task_DD_L5,2021.2.3,Win32,143.2254368,,,,,,,,,,,1.2484,1,,,,,,,,,,,,,,z,1,1.2484,,,,,,,,0.471296296,0.051851852,0,0,0,,0,42,42,149,1,VEASE,LB,old,z,./images/VEASELB.png,,,,,,,,,,,,,,,,,,,,,,,
,,,,,,,,,,,,,,,,,200479,19,2022-01-28_17h55.40.018,lexical_decision_task_DD_L5,2021.2.3,Win32,143.2254368,,,,,,,,,,,0.717,1,,,,,,,,,,,,,,m,1,0.717,,,,,,,,0.471296296,0.051851852,0,0,0,,0,43,43,42,1,CHAIN,HB,old,m,./images/CHAINHB.png,,,,,,,,,,,,,,,,,,,,,,,
,,,,,,,,,,,,,,,,,200479,19,2022-01-28_17h55.40.018,lexical_decision_task_DD_L5,2021.2.3,Win32,143.2254368,,,,,,,,,,,1.3164,1,,,,,,,,,,,,,,m,1,1.3164,,,,,,,,0.471296296,0.051851852,0,0,0,,0,44,44,53,1,POSTER,C,old,m,./images/POSTER.png,,,,,,,,,,,,,,,,,,,,,,,
,,,,,,,,,,,,,,,,,200479,19,2022-01-28_17h55.40.018,lexical_decision_task_DD_L5,2021.2.3,Win32,143.2254368,,,,,,,,,,,1.2348,1,,,,,,,,,,,,,,m,1,1.2348,,,,,,,,0.471296296,0.051851852,0,0,0,,0,45,45,15,1,COLLAR,HB,old,m,./images/COLLARHB.png,,,,,,,,,,,,,,,,,,,,,,,
,,,,,,,,,,,,,,,,,200479,19,2022-01-28_17h55.40.018,lexical_decision_task_DD_L5,2021.2.3,Win32,143.2254368,,,,,,,,,,,2.2327,1,,,,,,,,,,,,,,z,1,2.2327,,,,,,,,0.471296296,0.051851852,0,0,0,,0,46,46,103,1,FLORT,HB,old,z,./images/FLORTHB.png,,,,,,,,,,,,,,,,,,,,,,,
,,,,,,,,,,,,,,,,,200479,19,2022-01-28_17h55.40.018,lexical_decision_task_DD_L5,2021.2.3,Win32,143.2254368,,,,,,,,,,,0.7663,1,,,,,,,,,,,,,,z,1,0.7663,,,,,,,,0.471296296,0.051851852,0,0,0,,0,47,47,126,1,GUELS,C,old,z,./images/GUELS.png,,,,,,,,,,,,,,,,,,,,,,,
,,,,,,,,,,,,,,,,,200479,19,2022-01-28_17h55.40.018,lexical_decision_task_DD_L5,2021.2.3,Win32,143.2254368,,,,,,,,,,,0.767,1,,,,,,,,,,,,,,z,1,0.767,,,,,,,,0.471296296,0.051851852,0,0,0,,0,48,48,90,1,NEAST,C,old,z,./images/NEAST.png,,,,,,,,,,,,,,,,,,,,,,,
,,,,,,,,,,,,,,,,,200479,19,2022-01-28_17h55.40.018,lexical_decision_task_DD_L5,2021.2.3,Win32,143.2254368,,,,,,,,,,,1.0154,1,,,,,,,,,,,,,,z,1,1.0154,,,,,,,,0.471296296,0.051851852,0,0,0,,0,49,49,158,1,EGECT,LB,old,z,./images/EGECTLB.png,,,,,,,,,,,,,,,,,,,,,,,
,,,,,,,,,,,,,,,,,200479,19,2022-01-28_17h55.40.018,lexical_decision_task_DD_L5,2021.2.3,Win32,143.2254368,,,,,,,,,,,1.5985,1,,,,,,,,,,,,,,z,1,1.5985,,,,,,,,0.471296296,0.051851852,0,0,0,,0,50,50,159,1,CUDDY,C,old,z,./images/CUDDY.png,,,,,,,,,,,,,,,,,,,,,,,
,,,,,,,,,,,,,,,,,200479,19,2022-01-28_17h55.40.018,lexical_decision_task_DD_L5,2021.2.3,Win32,143.2254368,,,,,,,,,,,1.6998,1,,,,,,,,,,,,,,z,1,1.6998,,,,,,,,0.471296296,0.051851852,0,0,0,,0,51,51,96,1,KEAMS,C,old,z,./images/KEAMS.png,,,,,,,,,,,,,,,,,,,,,,,
,,,,,,,,,,,,,,,,,200479,19,2022-01-28_17h55.40.018,lexical_decision_task_DD_L5,2021.2.3,Win32,143.2254368,,,,,,,,,,,0.6504,1,,,,,,,,,,,,,,m,1,0.6504,,,,,,,,0.471296296,0.051851852,0,0,0,,0,52,52,26,1,CLOUD,C,old,m,./images/CLOUD.png,,,,,,,,,,,,,,,,,,,,,,,
,,,,,,,,,,,,,,,,,200479,19,2022-01-28_17h55.40.018,lexical_decision_task_DD_L5,2021.2.3,Win32,143.2254368,,,,,,,,,,,1.7987,1,,,,,,,,,,,,,,z,1,1.7987,,,,,,,,0.471296296,0.051851852,0,0,0,,0,53,53,115,1,MAWNS,HB,old,z,./images/MAWNSHB.png,,,,,,,,,,,,,,,,,,,,,,,
,,,,,,,,,,,,,,,,,200479,19,2022-01-28_17h55.40.018,lexical_decision_task_DD_L5,2021.2.3,Win32,143.2254368,,,,,,,,,,,1.5657,1,,,,,,,,,,,,,,z,1,1.5657,,,,,,,,0.471296296,0.051851852,0,0,0,,0,54,54,110,1,CRUNK,LB,old,z,./images/CRUNKLB.png,,,,,,,,,,,,,,,,,,,,,,,
,,,,,,,,,,,,,,,,,200479,19,2022-01-28_17h55.40.018,lexical_decision_task_DD_L5,2021.2.3,Win32,143.2254368,,,,,,,,,,,0.8677,1,,,,,,,,,,,,,,m,1,0.8677,,,,,,,,0.471296296,0.051851852,0,0,0,,0,55,55,9,1,DIVER,HB,old,m,./images/DIVERHB.png,,,,,,,,,,,,,,,,,,,,,,,
,,,,,,,,,,,,,,,,,200479,19,2022-01-28_17h55.40.018,lexical_decision_task_DD_L5,2021.2.3,Win32,143.2254368,,,,,,,,,,,2.3684,1,,,,,,,,,,,,,,z,1,2.3684,,,,,,,,0.471296296,0.051851852,0,0,0,,0,56,56,157,1,INLER,HB,old,z,./images/INLERHB.png,,,,,,,,,,,,,,,,,,,,,,,
,,,,,,,,,,,,,,,,,200479,19,2022-01-28_17h55.40.018,lexical_decision_task_DD_L5,2021.2.3,Win32,143.2254368,,,,,,,,,,,1.8839,1,,,,,,,,,,,,,,z,1,1.8839,,,,,,,,0.471296296,0.051851852,0,0,0,,0,57,57,163,1,GAMBA,HB,old,z,./images/GAMBAHB.png,,,,,,,,,,,,,,,,,,,,,,,
,,,,,,,,,,,,,,,,,200479,19,2022-01-28_17h55.40.018,lexical_decision_task_DD_L5,2021.2.3,Win32,143.2254368,,,,,,,,,,,0.7172,1,,,,,,,,,,,,,,m,1,0.7172,,,,,,,,0.471296296,0.051851852,0,0,0,,0,58,58,35,1,LLAMA,C,old,m,./images/LLAMA.png,,,,,,,,,,,,,,,,,,,,,,,
,,,,,,,,,,,,,,,,,200479,19,2022-01-28_17h55.40.018,lexical_decision_task_DD_L5,2021.2.3,Win32,143.2254368,,,,,,,,,,,1.3494,1,,,,,,,,,,,,,,z,1,1.3494,,,,,,,,0.471296296,0.051851852,0,0,0,,0,59,59,144,1,NAIRY,C,old,z,./images/NAIRY.png,,,,,,,,,,,,,,,,,,,,,,,
,,,,,,,,,,,,,,,,,200479,19,2022-01-28_17h55.40.018,lexical_decision_task_DD_L5,2021.2.3,Win32,143.2254368,,,,,,,,,,,1.466,1,,,,,,,,,,,,,,z,1,1.466,,,,,,,,0.471296296,0.051851852,0,0,0,,0,60,60,106,1,CLUMS,HB,old,z,./images/CLUMSHB.png,,,,,,,,,,,,,,,,,,,,,,,
,,,,,,,,,,,,,,,,,200479,19,2022-01-28_17h55.40.018,lexical_decision_task_DD_L5,2021.2.3,Win32,143.2254368,,,,,,,,,,,0.5491,1,,,,,,,,,,,,,,m,1,0.5491,,,,,,,,0.471296296,0.051851852,0,0,0,,0,61,61,31,1,STEAK,LB,old,m,./images/STEAKLB.png,,,,,,,,,,,,,,,,,,,,,,,
,,,,,,,,,,,,,,,,,200479,19,2022-01-28_17h55.40.018,lexical_decision_task_DD_L5,2021.2.3,Win32,143.2254368,,,,,,,,,,,0.4995,1,,,,,,,,,,,,,,m,1,0.4995,,,,,,,,0.471296296,0.051851852,0,0,0,,0,62,62,65,1,SPINE,C,old,m,./images/SPINE.png,,,,,,,,,,,,,,,,,,,,,,,
,,,,,,,,,,,,,,,,,200479,19,2022-01-28_17h55.40.018,lexical_decision_task_DD_L5,2021.2.3,Win32,143.2254368,,,,,,,,,,,0.7145,1,,,,,,,,,,,,,,z,1,0.7145,,,,,,,,0.471296296,0.051851852,0,0,0,,0,63,63,98,1,BAMPS,LB,old,z,./images/BAMPSLB.png,,,,,,,,,,,,,,,,,,,,,,,
,,,,,,,,,,,,,,,,,200479,19,2022-01-28_17h55.40.018,lexical_decision_task_DD_L5,2021.2.3,Win32,143.2254368,,,,,,,,,,,0.6495,1,,,,,,,,,,,,,,m,1,0.6495,,,,,,,,0.471296296,0.051851852,0,0,0,,0,64,64,47,1,LAGOON,C,old,m,./images/LAGOON.png,,,,,,,,,,,,,,,,,,,,,,,
,,,,,,,,,,,,,,,,,200479,19,2022-01-28_17h55.40.018,lexical_decision_task_DD_L5,2021.2.3,Win32,143.2254368,,,,,,,,,,,0.668,1,,,,,,,,,,,,,,m,1,0.668,,,,,,,,0.471296296,0.051851852,0,0,0,,0,65,65,32,1,HOCKEY,C,old,m,./images/HOCKEY.png,,,,,,,,,,,,,,,,,,,,,,,
,,,,,,,,,,,,,,,,,200479,19,2022-01-28_17h55.40.018,lexical_decision_task_DD_L5,2021.2.3,Win32,143.2254368,,,,,,,,,,,0.7823,1,,,,,,,,,,,,,,z,1,0.7823,,,,,,,,0.471296296,0.051851852,0,0,0,,0,66,66,165,1,TROWN,C,old,z,./images/TROWN.png,,,,,,,,,,,,,,,,,,,,,,,
,,,,,,,,,,,,,,,,,200479,19,2022-01-28_17h55.40.018,lexical_decision_task_DD_L5,2021.2.3,Win32,143.2254368,,,,,,,,,,,1.3345,1,,,,,,,,,,,,,,z,1,1.3345,,,,,,,,0.471296296,0.051851852,0,0,0,,0,67,67,122,1,BLOOT,LB,old,z,./images/BLOOTLB.png,,,,,,,,,,,,,,,,,,,,,,,
,,,,,,,,,,,,,,,,,200479,19,2022-01-28_17h55.40.018,lexical_decision_task_DD_L5,2021.2.3,Win32,143.2254368,,,,,,,,,,,0.7185,1,,,,,,,,,,,,,,z,1,0.7185,,,,,,,,0.471296296,0.051851852,0,0,0,,0,68,68,161,1,BLAPS,LB,old,z,./images/BLAPSLB.png,,,,,,,,,,,,,,,,,,,,,,,
,,,,,,,,,,,,,,,,,200479,19,2022-01-28_17h55.40.018,lexical_decision_task_DD_L5,2021.2.3,Win32,143.2254368,,,,,,,,,,,0.8814,1,,,,,,,,,,,,,,z,1,0.8814,,,,,,,,0.471296296,0.051851852,0,0,0,,0,69,69,89,1,DRIEK,LB,old,z,./images/DRIEKLB.png,,,,,,,,,,,,,,,,,,,,,,,
,,,,,,,,,,,,,,,,,200479,19,2022-01-28_17h55.40.018,lexical_decision_task_DD_L5,2021.2.3,Win32,143.2254368,,,,,,,,,,,0.8997,1,,,,,,,,,,,,,,m,1,0.8997,,,,,,,,0.471296296,0.051851852,0,0,0,,0,70,70,1,1,TOWEL,LB,old,m,./images/TOWELLB.png,,,,,,,,,,,,,,,,,,,,,,,
,,,,,,,,,,,,,,,,,200479,19,2022-01-28_17h55.40.018,lexical_decision_task_DD_L5,2021.2.3,Win32,143.2254368,,,,,,,,,,,0.6355,1,,,,,,,,,,,,,,m,1,0.6355,,,,,,,,0.471296296,0.051851852,0,0,0,,0,71,71,83,1,WHISKY,C,old,m,./images/WHISKY.png,,,,,,,,,,,,,,,,,,,,,,,
,,,,,,,,,,,,,,,,,200479,19,2022-01-28_17h55.40.018,lexical_decision_task_DD_L5,2021.2.3,Win32,143.2254368,,,,,,,,,,,1.5517,1,,,,,,,,,,,,,,z,1,1.5517,,,,,,,,0.471296296,0.051851852,0,0,0,,0,72,72,104,1,GITTY,LB,old,z,./images/GITTYLB.png,,,,,,,,,,,,,,,,,,,,,,,
,,,,,,,,,,,,,,,,,200479,19,2022-01-28_17h55.40.018,lexical_decision_task_DD_L5,2021.2.3,Win32,143.2254368,,,,,,,,,,,1.6664,1,,,,,,,,,,,,,,z,1,1.6664,,,,,,,,0.471296296,0.051851852,0,0,0,,0,73,73,87,1,TRING,C,old,z,./images/TRING.png,,,,,,,,,,,,,,,,,,,,,,,
,,,,,,,,,,,,,,,,,200479,19,2022-01-28_17h55.40.018,lexical_decision_task_DD_L5,2021.2.3,Win32,143.2254368,,,,,,,,,,,0.7499,1,,,,,,,,,,,,,,m,1,0.7499,,,,,,,,0.471296296,0.051851852,0,0,0,,0,74,74,0,1,WALNUT,HB,old,m,./images/WALNUTHB.png,,,,,,,,,,,,,,,,,,,,,,,
,,,,,,,,,,,,,,,,,200479,19,2022-01-28_17h55.40.018,lexical_decision_task_DD_L5,2021.2.3,Win32,143.2254368,,,,,,,,,,,0.6023,1,,,,,,,,,,,,,,z,1,0.6023,,,,,,,,0.471296296,0.051851852,0,0,0,,0,75,75,135,1,JOODY,C,old,z,./images/JOODY.png,,,,,,,,,,,,,,,,,,,,,,,
,,,,,,,,,,,,,,,,,200479,19,2022-01-28_17h55.40.018,lexical_decision_task_DD_L5,2021.2.3,Win32,143.2254368,,,,,,,,,,,1.1006,1,,,,,,,,,,,,,,z,1,1.1006,,,,,,,,0.471296296,0.051851852,0,0,0,,0,76,76,107,1,FASKS,LB,old,z,./images/FASKSLB.png,,,,,,,,,,,,,,,,,,,,,,,
,,,,,,,,,,,,,,,,,200479,19,2022-01-28_17h55.40.018,lexical_decision_task_DD_L5,2021.2.3,Win32,143.2254368,,,,,,,,,,,1.0503,1,,,,,,,,,,,,,,z,1,1.0503,,,,,,,,0.471296296,0.051851852,0,0,0,,0,77,77,156,1,HIXES,C,old,z,./images/HIXES.png,,,,,,,,,,,,,,,,,,,,,,,
,,,,,,,,,,,,,,,,,200479,19,2022-01-28_17h55.40.018,lexical_decision_task_DD_L5,2021.2.3,Win32,143.2254368,,,,,,,,,,,0.666,1,,,,,,,,,,,,,,z,1,0.666,,,,,,,,0.471296296,0.051851852,0,0,0,,0,78,78,131,1,NACES,LB,old,z,./images/NACESLB.png,,,,,,,,,,,,,,,,,,,,,,,
,,,,,,,,,,,,,,,,,200479,19,2022-01-28_17h55.40.018,lexical_decision_task_DD_L5,2021.2.3,Win32,143.2254368,,,,,,,,,,,2.2327,1,,,,,,,,,,,,,,z,1,2.2327,,,,,,,,0.471296296,0.051851852,0,0,0,,0,79,79,97,1,CHIDS,HB,old,z,./images/CHIDSHB.png,,,,,,,,,,,,,,,,,,,,,,,
,,,,,,,,,,,,,,,,,200479,19,2022-01-28_17h55.40.018,lexical_decision_task_DD_L5,2021.2.3,Win32,143.2254368,,,,,,,,,,,1.4502,1,,,,,,,,,,,,,,z,1,1.4502,,,,,,,,0.471296296,0.051851852,0,0,0,,0,80,80,148,1,JOMS,HB,old,z,./images/JOMSHB.png,,,,,,,,,,,,,,,,,,,,,,,
,,,,,,,,,,,,,,,,,200479,19,2022-01-28_17h55.40.018,lexical_decision_task_DD_L5,2021.2.3,Win32,143.2254368,,,,,,,,,,,0.6016,1,,,,,,,,,,,,,,m,1,0.6016,,,,,,,,0.471296296,0.051851852,0,0,0,,0,81,81,22,1,CLOWN,LB,old,m,./images/CLOWNLB.png,,,,,,,,,,,,,,,,,,,,,,,
,,,,,,,,,,,,,,,,,200479,19,2022-01-28_17h55.40.018,lexical_decision_task_DD_L5,2021.2.3,Win32,143.2254368,,,,,,,,,,,1.0161,1,,,,,,,,,,,,,,z,1,1.0161,,,,,,,,0.471296296,0.051851852,0,0,0,,0,82,82,93,1,SMONE,C,old,z,./images/SMONE.png,,,,,,,,,,,,,,,,,,,,,,,
,,,,,,,,,,,,,,,,,200479,19,2022-01-28_17h55.40.018,lexical_decision_task_DD_L5,2021.2.3,Win32,143.2254368,,,,,,,,,,,0.733,1,,,,,,,,,,,,,,m,1,0.733,,,,,,,,-0.030555556,-0.384259259,1,0,0,,0,83,83,61,1,ARTIST,LB,old,m,./images/ARTISTLB.png,break_done_button,,,,,,,,,,,,,,,,,,,,,,
,,,,,,,,,,,,,,,,,200479,19,2022-01-28_17h55.40.018,lexical_decision_task_DD_L5,2021.2.3,Win32,143.2254368,,,,,,,,,,,0.7829,1,,,,,,,,,,,,,,m,1,0.7829,,,,,,,,0.034259259,-0.380555556,0,0,0,,0,84,84,55,1,ALLEY,LB,old,m,./images/ALLEYLB.png,,,,,,,,,,,,,,,,,,,,,,,
,,,,,,,,,,,,,,,,,200479,19,2022-01-28_17h55.40.018,lexical_decision_task_DD_L5,2021.2.3,Win32,143.2254368,,,,,,,,,,,1.683,1,,,,,,,,,,,,,,m,1,1.683,,,,,,,,0.034259259,-0.380555556,0,0,0,,0,85,85,51,1,SAUCE,HB,old,m,./images/SAUCEHB.png,,,,,,,,,,,,,,,,,,,,,,,
,,,,,,,,,,,,,,,,,200479,19,2022-01-28_17h55.40.018,lexical_decision_task_DD_L5,2021.2.3,Win32,143.2254368,,,,,,,,,,,1.6662,1,,,,,,,,,,,,,,z,1,1.6662,,,,,,,,0.034259259,-0.380555556,0,0,0,,0,86,86,146,1,MOOST,LB,old,z,./images/MOOSTLB.png,,,,,,,,,,,,,,,,,,,,,,,
,,,,,,,,,,,,,,,,,200479,19,2022-01-28_17h55.40.018,lexical_decision_task_DD_L5,2021.2.3,Win32,143.2254368,,,,,,,,,,,0.7663,1,,,,,,,,,,,,,,z,1,0.7663,,,,,,,,0.034259259,-0.380555556,0,0,0,,0,87,87,150,1,NOOLS,C,old,z,./images/NOOLS.png,,,,,,,,,,,,,,,,,,,,,,,
,,,,,,,,,,,,,,,,,200479,19,2022-01-28_17h55.40.018,lexical_decision_task_DD_L5,2021.2.3,Win32,143.2254368,,,,,,,,,,,0.8161,1,,,,,,,,,,,,,,m,1,0.8161,,,,,,,,0.034259259,-0.380555556,0,0,0,,0,88,88,74,1,JUMPER,C,old,m,./images/JUMPER.png,,,,,,,,,,,,,,,,,,,,,,,
,,,,,,,,,,,,,,,,,200479,19,2022-01-28_17h55.40.018,lexical_decision_task_DD_L5,2021.2.3,Win32,143.2254368,,,,,,,,,,,1.0672,1,,,,,,,,,,,,,,z,1,1.0672,,,,,,,,0.034259259,-0.380555556,0,0,0,,0,89,89,154,1,THINT,HB,old,z,./images/THINTHB.png,,,,,,,,,,,,,,,,,,,,,,,
,,,,,,,,,,,,,,,,,200479,19,2022-01-28_17h55.40.018,lexical_decision_task_DD_L5,2021.2.3,Win32,143.2254368,,,,,,,,,,,0.9672,1,,,,,,,,,,,,,,m,1,0.9672,,,,,,,,0.034259259,-0.380555556,0,0,0,,0,90,90,33,1,SAUNA,HB,old,m,./images/SAUNAHB.png,,,,,,,,,,,,,,,,,,,,,,,
,,,,,,,,,,,,,,,,,200479,19,2022-01-28_17h55.40.018,lexical_decision_task_DD_L5,2021.2.3,Win32,143.2254368,,,,,,,,,,,0.681,1,,,,,,,,,,,,,,z,1,0.681,,,,,,,,0.034259259,-0.380555556,0,0,0,,0,91,91,101,1,GLEET,LB,old,z,./images/GLEETLB.png,,,,,,,,,,,,,,,,,,,,,,,
,,,,,,,,,,,,,,,,,200479,19,2022-01-28_17h55.40.018,lexical_decision_task_DD_L5,2021.2.3,Win32,143.2254368,,,,,,,,,,,1.4164,1,,,,,,,,,,,,,,m,1,1.4164,,,,,,,,0.034259259,-0.380555556,0,0,0,,0,92,92,36,1,BOILER,HB,old,m,./images/BOILERHB.png,,,,,,,,,,,,,,,,,,,,,,,
,,,,,,,,,,,,,,,,,200479,19,2022-01-28_17h55.40.018,lexical_decision_task_DD_L5,2021.2.3,Win32,143.2254368,,,,,,,,,,,0.6836,1,,,,,,,,,,,,,,z,1,0.6836,,,,,,,,0.034259259,-0.380555556,0,0,0,,0,93,93,108,1,GRUET,C,old,z,./images/GRUET.png,,,,,,,,,,,,,,,,,,,,,,,
,,,,,,,,,,,,,,,,,200479,19,2022-01-28_17h55.40.018,lexical_decision_task_DD_L5,2021.2.3,Win32,143.2254368,,,,,,,,,,,0.6842,1,,,,,,,,,,,,,,z,1,0.6842,,,,,,,,0.034259259,-0.380555556,0,0,0,,0,94,94,134,1,TROSS,LB,old,z,./images/TROSSLB.png,,,,,,,,,,,,,,,,,,,,,,,
,,,,,,,,,,,,,,,,,200479,19,2022-01-28_17h55.40.018,lexical_decision_task_DD_L5,2021.2.3,Win32,143.2254368,,,,,,,,,,,1.651,1,,,,,,,,,,,,,,z,1,1.651,,,,,,,,0.034259259,-0.380555556,0,0,0,,0,95,95,133,1,POWDY,HB,old,z,./images/POWDYHB.png,,,,,,,,,,,,,,,,,,,,,,,
,,,,,,,,,,,,,,,,,200479,19,2022-01-28_17h55.40.018,lexical_decision_task_DD_L5,2021.2.3,Win32,143.2254368,,,,,,,,,,,0.9814,1,,,,,,,,,,,,,,m,1,0.9814,,,,,,,,0.034259259,-0.380555556,0,0,0,,0,96,96,24,1,FLESH,HB,old,m,./images/FLESHHB.png,,,,,,,,,,,,,,,,,,,,,,,
,,,,,,,,,,,,,,,,,200479,19,2022-01-28_17h55.40.018,lexical_decision_task_DD_L5,2021.2.3,Win32,143.2254368,,,,,,,,,,,1.4824,1,,,,,,,,,,,,,,z,1,1.4824,,,,,,,,0.034259259,-0.380555556,0,0,0,,0,97,97,151,1,TINKY,HB,old,z,./images/TINKYHB.png,,,,,,,,,,,,,,,,,,,,,,,
,,,,,,,,,,,,,,,,,200479,19,2022-01-28_17h55.40.018,lexical_decision_task_DD_L5,2021.2.3,Win32,143.2254368,,,,,,,,,,,2.3493,1,,,,,,,,,,,,,,m,1,2.3493,,,,,,,,0.034259259,-0.380555556,0,0,0,,0,98,98,67,1,POKER,LB,old,m,./images/POKERLB.png,,,,,,,,,,,,,,,,,,,,,,,
,,,,,,,,,,,,,,,,,200479,19,2022-01-28_17h55.40.018,lexical_decision_task_DD_L5,2021.2.3,Win32,143.2254368,,,,,,,,,,,0.8159,1,,,,,,,,,,,,,,m,1,0.8159,,,,,,,,0.034259259,-0.380555556,0,0,0,,0,99,99,64,1,BRIDE,LB,old,m,./images/BRIDELB.png,,,,,,,,,,,,,,,,,,,,,,,
,,,,,,,,,,,,,,,,,200479,19,2022-01-28_17h55.40.018,lexical_decision_task_DD_L5,2021.2.3,Win32,143.2254368,,,,,,,,,,,0.9172,1,,,,,,,,,,,,,,m,1,0.9172,,,,,,,,0.034259259,-0.380555556,0,0,0,,0,100,100,17,1,PARADE,C,old,m,./images/PARADE.png,,,,,,,,,,,,,,,,,,,,,,,
,,,,,,,,,,,,,,,,,200479,19,2022-01-28_17h55.40.018,lexical_decision_task_DD_L5,2021.2.3,Win32,143.2254368,,,,,,,,,,,0.8166,1,,,,,,,,,,,,,,m,1,0.8166,,,,,,,,0.034259259,-0.380555556,0,0,0,,0,101,101,79,1,RULER,LB,old,m,./images/RULERLB.png,,,,,,,,,,,,,,,,,,,,,,,
,,,,,,,,,,,,,,,,,200479,19,2022-01-28_17h55.40.018,lexical_decision_task_DD_L5,2021.2.3,Win32,143.2254368,,,,,,,,,,,0.8328,1,,,,,,,,,,,,,,z,1,0.8328,,,,,,,,0.034259259,-0.380555556,0,0,0,,0,102,102,128,1,GRIFT,LB,old,z,./images/GRIFTLB.png,,,,,,,,,,,,,,,,,,,,,,,
,,,,,,,,,,,,,,,,,200479,19,2022-01-28_17h55.40.018,lexical_decision_task_DD_L5,2021.2.3,Win32,143.2254368,,,,,,,,,,,0.6662,1,,,,,,,,,,,,,,m,1,0.6662,,,,,,,,0.034259259,-0.380555556,0,0,0,,0,103,103,76,1,MIDGET,LB,old,m,./images/MIDGETLB.png,,,,,,,,,,,,,,,,,,,,,,,
,,,,,,,,,,,,,,,,,200479,19,2022-01-28_17h55.40.018,lexical_decision_task_DD_L5,2021.2.3,Win32,143.2254368,,,,,,,,,,,0.7498,1,,,,,,,,,,,,,,z,1,0.7498,,,,,,,,0.034259259,-0.380555556,0,0,0,,0,104,104,152,1,FRAIN,LB,old,z,./images/FRAINLB.png,,,,,,,,,,,,,,,,,,,,,,,
,,,,,,,,,,,,,,,,,200479,19,2022-01-28_17h55.40.018,lexical_decision_task_DD_L5,2021.2.3,Win32,143.2254368,,,,,,,,,,,0.9513,1,,,,,,,,,,,,,,m,1,0.9513,,,,,,,,0.034259259,-0.380555556,0,0,0,,0,105,105,66,1,STATUE,HB,old,m,./images/STATUEHB.png,,,,,,,,,,,,,,,,,,,,,,,
,,,,,,,,,,,,,,,,,200479,19,2022-01-28_17h55.40.018,lexical_decision_task_DD_L5,2021.2.3,Win32,143.2254368,,,,,,,,,,,0.5498,1,,,,,,,,,,,,,,m,1,0.5498,,,,,,,,0.034259259,-0.380555556,0,0,0,,0,106,106,45,1,MONKEY,HB,old,m,./images/MONKEYHB.png,,,,,,,,,,,,,,,,,,,,,,,
,,,,,,,,,,,,,,,,,200479,19,2022-01-28_17h55.40.018,lexical_decision_task_DD_L5,2021.2.3,Win32,143.2254368,,,,,,,,,,,0.6006,1,,,,,,,,,,,,,,m,1,0.6006,,,,,,,,0.034259259,-0.380555556,0,0,0,,0,107,107,37,1,TIGER,LB,old,m,./images/TIGERLB.png,,,,,,,,,,,,,,,,,,,,,,,
,,,,,,,,,,,,,,,,,200479,19,2022-01-28_17h55.40.018,lexical_decision_task_DD_L5,2021.2.3,Win32,143.2254368,,,,,,,,,,,0.7,1,,,,,,,,,,,,,,m,1,0.7,,,,,,,,0.034259259,-0.380555556,0,0,0,,0,108,108,59,1,BRUSH,C,old,m,./images/BRUSH.png,,,,,,,,,,,,,,,,,,,,,,,
,,,,,,,,,,,,,,,,,200479,19,2022-01-28_17h55.40.018,lexical_decision_task_DD_L5,2021.2.3,Win32,143.2254368,,,,,,,,,,,0.9981,1,,,,,,,,,,,,,,z,1,0.9981,,,,,,,,0.034259259,-0.380555556,0,0,0,,0,109,109,111,1,HOSSE,C,old,z,./images/HOSSE.png,,,,,,,,,,,,,,,,,,,,,,,
,,,,,,,,,,,,,,,,,200479,19,2022-01-28_17h55.40.018,lexical_decision_task_DD_L5,2021.2.3,Win32,143.2254368,,,,,,,,,,,0.8667,1,,,,,,,,,,,,,,z,1,0.8667,,,,,,,,0.034259259,-0.380555556,0,0,0,,0,110,110,155,1,CANGY,LB,old,z,./images/CANGYLB.png,,,,,,,,,,,,,,,,,,,,,,,
,,,,,,,,,,,,,,,,,200479,19,2022-01-28_17h55.40.018,lexical_decision_task_DD_L5,2021.2.3,Win32,143.2254368,,,,,,,,,,,1.1013,1,,,,,,,,,,,,,,m,1,1.1013,,,,,,,,0.034259259,-0.380555556,0,0,0,,0,111,111,21,1,DANCER,HB,old,m,./images/DANCERHB.png,,,,,,,,,,,,,,,,,,,,,,,
,,,,,,,,,,,,,,,,,200479,19,2022-01-28_17h55.40.018,lexical_decision_task_DD_L5,2021.2.3,Win32,143.2254368,,,,,,,,,,,2.9656,1,,,,,,,,,,,,,,m,1,2.9656,,,,,,,,0.034259259,-0.380555556,0,0,0,,0,112,112,40,1,SNAKE,LB,old,m,./images/SNAKELB.png,,,,,,,,,,,,,,,,,,,,,,,
,,,,,,,,,,,,,,,,,200479,19,2022-01-28_17h55.40.018,lexical_decision_task_DD_L5,2021.2.3,Win32,143.2254368,,,,,,,,,,,2.2488,1,,,,,,,,,,,,,,m,1,2.2488,,,,,,,,0.034259259,-0.380555556,0,0,0,,0,113,113,8,1,CLIFF,C,old,m,./images/CLIFF.png,,,,,,,,,,,,,,,,,,,,,,,
,,,,,,,,,,,,,,,,,200479,19,2022-01-28_17h55.40.018,lexical_decision_task_DD_L5,2021.2.3,Win32,143.2254368,,,,,,,,,,,1.2995,1,,,,,,,,,,,,,,z,1,1.2995,,,,,,,,0.034259259,-0.380555556,0,0,0,,0,114,114,166,1,SHORY,HB,old,z,./images/SHORYHB.png,,,,,,,,,,,,,,,,,,,,,,,
,,,,,,,,,,,,,,,,,200479,19,2022-01-28_17h55.40.018,lexical_decision_task_DD_L5,2021.2.3,Win32,143.2254368,,,,,,,,,,,0.6003,1,,,,,,,,,,,,,,z,1,0.6003,,,,,,,,0.034259259,-0.380555556,0,0,0,,0,115,115,141,1,PLEET,C,old,z,./images/PLEET.png,,,,,,,,,,,,,,,,,,,,,,,
,,,,,,,,,,,,,,,,,200479,19,2022-01-28_17h55.40.018,lexical_decision_task_DD_L5,2021.2.3,Win32,143.2254368,,,,,,,,,,,0.4002,1,,,,,,,,,,,,,,m,1,0.4002,,,,,,,,0.034259259,-0.380555556,0,0,0,,0,116,116,25,1,CHALK,LB,old,m,./images/CHALKLB.png,,,,,,,,,,,,,,,,,,,,,,,
,,,,,,,,,,,,,,,,,200479,19,2022-01-28_17h55.40.018,lexical_decision_task_DD_L5,2021.2.3,Win32,143.2254368,,,,,,,,,,,0.5499,1,,,,,,,,,,,,,,m,1,0.5499,,,,,,,,0.034259259,-0.380555556,0,0,0,,0,117,117,44,1,BASKET,C,old,m,./images/BASKET.png,,,,,,,,,,,,,,,,,,,,,,,
,,,,,,,,,,,,,,,,,200479,19,2022-01-28_17h55.40.018,lexical_decision_task_DD_L5,2021.2.3,Win32,143.2254368,,,,,,,,,,,0.7666,1,,,,,,,,,,,,,,m,1,0.7666,,,,,,,,0.034259259,-0.380555556,0,0,0,,0,118,118,18,1,PARCEL,HB,old,m,./images/PARCELHB.png,,,,,,,,,,,,,,,,,,,,,,,
,,,,,,,,,,,,,,,,,200479,19,2022-01-28_17h55.40.018,lexical_decision_task_DD_L5,2021.2.3,Win32,143.2254368,,,,,,,,,,,0.5828,1,,,,,,,,,,,,,,z,1,0.5828,,,,,,,,0.034259259,-0.380555556,0,0,0,,0,119,119,147,1,ZOLES,C,old,z,./images/ZOLES.png,,,,,,,,,,,,,,,,,,,,,,,
,,,,,,,,,,,,,,,,,200479,19,2022-01-28_17h55.40.018,lexical_decision_task_DD_L5,2021.2.3,Win32,143.2254368,,,,,,,,,,,1.115,1,,,,,,,,,,,,,,z,1,1.115,,,,,,,,0.034259259,-0.380555556,0,0,0,,0,120,120,94,1,BLANS,HB,old,z,./images/BLANSHB.png,,,,,,,,,,,,,,,,,,,,,,,
,,,,,,,,,,,,,,,,,200479,19,2022-01-28_17h55.40.018,lexical_decision_task_DD_L5,2021.2.3,Win32,143.2254368,,,,,,,,,,,1.2183,1,,,,,,,,,,,,,,m,1,1.2183,,,,,,,,0.034259259,-0.380555556,0,0,0,,0,121,121,30,1,SLOPE,HB,old,m,./images/SLOPEHB.png,,,,,,,,,,,,,,,,,,,,,,,
,,,,,,,,,,,,,,,,,200479,19,2022-01-28_17h55.40.018,lexical_decision_task_DD_L5,2021.2.3,Win32,143.2254368,,,,,,,,,,,0.6273,1,,,,,,,,,,,,,,m,1,0.6273,,,,,,,,0.034259259,-0.380555556,0,0,0,,0,122,122,80,1,PLANET,C,old,m,./images/PLANET.png,,,,,,,,,,,,,,,,,,,,,,,
,,,,,,,,,,,,,,,,,200479,19,2022-01-28_17h55.40.018,lexical_decision_task_DD_L5,2021.2.3,Win32,143.2254368,,,,,,,,,,,1.2676,1,,,,,,,,,,,,,,m,1,1.2676,,,,,,,,0.034259259,-0.380555556,0,0,0,,0,123,123,43,1,STOOL,LB,old,m,./images/STOOLLB.png,,,,,,,,,,,,,,,,,,,,,,,
,,,,,,,,,,,,,,,,,200479,19,2022-01-28_17h55.40.018,lexical_decision_task_DD_L5,2021.2.3,Win32,143.2254368,,,,,,,,,,,0.6664,1,,,,,,,,,,,,,,m,1,0.6664,,,,,,,,0.034259259,-0.380555556,0,0,0,,0,124,124,14,1,FENCE,C,old,m,./images/FENCE.png,,,,,,,,,,,,,,,,,,,,,,,
,,,,,,,,,,,,,,,,,200479,19,2022-01-28_17h55.40.018,lexical_decision_task_DD_L5,2021.2.3,Win32,143.2254368,,,,,,,,,,,0.5834,1,,,,,,,,,,,,,,m,1,0.5834,,,,,,,,0.034259259,-0.380555556,0,0,0,space,0,125,125,46,1,MUMMY,LB,old,m,./images/MUMMYLB.png,,1.585,,,,,,,,,,,,,,,,,,,,,
,,,,,,,,,,,,,,,,,200479,19,2022-01-28_17h55.40.018,lexical_decision_task_DD_L5,2021.2.3,Win32,143.2254368,,,,,,,,,,,1.2674,1,,,,,,,,,,,,,,z,1,1.2674,,,,,,,,0.034259259,-0.380555556,0,0,0,,0,126,126,120,1,RINED,C,old,z,./images/RINED.png,,,,,,,,,,,,,,,,,,,,,,,
,,,,,,,,,,,,,,,,,200479,19,2022-01-28_17h55.40.018,lexical_decision_task_DD_L5,2021.2.3,Win32,143.2254368,,,,,,,,,,,1.3672,1,,,,,,,,,,,,,,z,1,1.3672,,,,,,,,0.034259259,-0.380555556,0,0,0,,0,127,127,85,1,CHULK,HB,old,z,./images/CHULKHB.png,,,,,,,,,,,,,,,,,,,,,,,
,,,,,,,,,,,,,,,,,200479,19,2022-01-28_17h55.40.018,lexical_decision_task_DD_L5,2021.2.3,Win32,143.2254368,,,,,,,,,,,1.2665,1,,,,,,,,,,,,,,z,1,1.2665,,,,,,,,0.034259259,-0.380555556,0,0,0,,0,128,128,125,1,MOOKY,LB,old,z,./images/MOOKYLB.png,,,,,,,,,,,,,,,,,,,,,,,
,,,,,,,,,,,,,,,,,200479,19,2022-01-28_17h55.40.018,lexical_decision_task_DD_L5,2021.2.3,Win32,143.2254368,,,,,,,,,,,0.6671,1,,,,,,,,,,,,,,z,1,0.6671,,,,,,,,0.034259259,-0.380555556,0,0,0,,0,129,129,86,1,AIFED,LB,old,z,./images/AIFEDLB.png,,,,,,,,,,,,,,,,,,,,,,,
,,,,,,,,,,,,,,,,,200479,19,2022-01-28_17h55.40.018,lexical_decision_task_DD_L5,2021.2.3,Win32,143.2254368,,,,,,,,,,,0.6675,1,,,,,,,,,,,,,,m,1,0.6675,,,,,,,,0.034259259,-0.380555556,0,0,0,,0,130,130,11,1,MEDAL,C,old,m,./images/MEDAL.png,,,,,,,,,,,,,,,,,,,,,,,
,,,,,,,,,,,,,,,,,200479,19,2022-01-28_17h55.40.018,lexical_decision_task_DD_L5,2021.2.3,Win32,143.2254368,,,,,,,,,,,1.1342,1,,,,,,,,,,,,,,m,1,1.1342,,,,,,,,0.034259259,-0.380555556,0,0,0,,0,131,131,49,1,BISHOP,LB,old,m,./images/BISHOPLB.png,,,,,,,,,,,,,,,,,,,,,,,
,,,,,,,,,,,,,,,,,200479,19,2022-01-28_17h55.40.018,lexical_decision_task_DD_L5,2021.2.3,Win32,143.2254368,,,,,,,,,,,0.833,1,,,,,,,,,,,,,,z,1,0.833,,,,,,,,0.034259259,-0.380555556,0,0,0,,0,132,132,116,1,BALGY,LB,old,z,./images/BALGYLB.png,,,,,,,,,,,,,,,,,,,,,,,
,,,,,,,,,,,,,,,,,200479,19,2022-01-28_17h55.40.018,lexical_decision_task_DD_L5,2021.2.3,Win32,143.2254368,,,,,,,,,,,1.3683,1,,,,,,,,,,,,,,z,1,1.3683,,,,,,,,0.034259259,-0.380555556,0,0,0,,0,133,133,137,1,JOOST,LB,old,z,./images/JOOSTLB.png,,,,,,,,,,,,,,,,,,,,,,,
,,,,,,,,,,,,,,,,,200479,19,2022-01-28_17h55.40.018,lexical_decision_task_DD_L5,2021.2.3,Win32,143.2254368,,,,,,,,,,,0.5667,1,,,,,,,,,,,,,,m,1,0.5667,,,,,,,,0.034259259,-0.380555556,0,0,0,,0,134,134,16,1,GRAPE,LB,old,m,./images/GRAPELB.png,,,,,,,,,,,,,,,,,,,,,,,
,,,,,,,,,,,,,,,,,200479,19,2022-01-28_17h55.40.018,lexical_decision_task_DD_L5,2021.2.3,Win32,143.2254368,,,,,,,,,,,0.7325,1,,,,,,,,,,,,,,z,1,0.7325,,,,,,,,0.034259259,-0.380555556,0,0,0,,0,135,135,162,1,LEICH,C,old,z,./images/LEICH.png,,,,,,,,,,,,,,,,,,,,,,,
,,,,,,,,,,,,,,,,,200479,19,2022-01-28_17h55.40.018,lexical_decision_task_DD_L5,2021.2.3,Win32,143.2254368,,,,,,,,,,,0.7338,1,,,,,,,,,,,,,,z,1,0.7338,,,,,,,,0.034259259,-0.380555556,0,0,0,,0,136,136,105,1,MOKER,C,old,z,./images/MOKER.png,,,,,,,,,,,,,,,,,,,,,,,
,,,,,,,,,,,,,,,,,200479,19,2022-01-28_17h55.40.018,lexical_decision_task_DD_L5,2021.2.3,Win32,143.2254368,,,,,,,,,,,0.7673,1,,,,,,,,,,,,,,z,1,0.7673,,,,,,,,0.034259259,-0.380555556,0,0,0,,0,137,137,119,1,PAFER,LB,old,z,./images/PAFERLB.png,,,,,,,,,,,,,,,,,,,,,,,
,,,,,,,,,,,,,,,,,200479,19,2022-01-28_17h55.40.018,lexical_decision_task_DD_L5,2021.2.3,Win32,143.2254368,,,,,,,,,,,1.3495,1,,,,,,,,,,,,,,z,1,1.3495,,,,,,,,0.034259259,-0.380555556,0,0,0,,0,138,138,88,1,GLUSH,HB,old,z,./images/GLUSHHB.png,,,,,,,,,,,,,,,,,,,,,,,
,,,,,,,,,,,,,,,,,200479,19,2022-01-28_17h55.40.018,lexical_decision_task_DD_L5,2021.2.3,Win32,143.2254368,,,,,,,,,,,0.5,1,,,,,,,,,,,,,,m,1,0.5,,,,,,,,0.034259259,-0.380555556,0,0,0,,0,139,139,71,1,BUBBLE,C,old,m,./images/BUBBLE.png,,,,,,,,,,,,,,,,,,,,,,,
,,,,,,,,,,,,,,,,,200479,19,2022-01-28_17h55.40.018,lexical_decision_task_DD_L5,2021.2.3,Win32,143.2254368,,,,,,,,,,,0.7656,1,,,,,,,,,,,,,,z,1,0.7656,,,,,,,,0.034259259,-0.380555556,0,0,0,,0,140,140,164,1,SGREW,LB,old,z,./images/SGREWLB.png,,,,,,,,,,,,,,,,,,,,,,,
,,,,,,,,,,,,,,,,,200479,19,2022-01-28_17h55.40.018,lexical_decision_task_DD_L5,2021.2.3,Win32,143.2254368,,,,,,,,,,,2.2001,1,,,,,,,,,,,,,,z,1,2.2001,,,,,,,,0.034259259,-0.380555556,0,0,0,,0,141,141,138,1,PLICE,C,old,z,./images/PLICE.png,,,,,,,,,,,,,,,,,,,,,,,
,,,,,,,,,,,,,,,,,200479,19,2022-01-28_17h55.40.018,lexical_decision_task_DD_L5,2021.2.3,Win32,143.2254368,,,,,,,,,,,0.5502,1,,,,,,,,,,,,,,m,1,0.5502,,,,,,,,0.034259259,-0.380555556,0,0,0,,0,142,142,38,1,ENGINE,C,old,m,./images/ENGINE.png,,,,,,,,,,,,,,,,,,,,,,,
,,,,,,,,,,,,,,,,,200479,19,2022-01-28_17h55.40.018,lexical_decision_task_DD_L5,2021.2.3,Win32,143.2254368,,,,,,,,,,,0.7505,1,,,,,,,,,,,,,,z,1,0.7505,,,,,,,,0.034259259,-0.380555556,0,0,0,,0,143,143,84,1,HAXES,C,old,z,./images/HAXES.png,,,,,,,,,,,,,,,,,,,,,,,
,,,,,,,,,,,,,,,,,200479,19,2022-01-28_17h55.40.018,lexical_decision_task_DD_L5,2021.2.3,Win32,143.2254368,,,,,,,,,,,1.3172,1,,,,,,,,,,,,,,z,1,1.3172,,,,,,,,0.034259259,-0.380555556,0,0,0,,0,144,144,139,1,BLEAR,HB,old,z,./images/BLEARHB.png,,,,,,,,,,,,,,,,,,,,,,,
,,,,,,,,,,,,,,,,,200479,19,2022-01-28_17h55.40.018,lexical_decision_task_DD_L5,2021.2.3,Win32,143.2254368,,,,,,,,,,,1.3662,1,,,,,,,,,,,,,,m,1,1.3662,,,,,,,,0.034259259,-0.380555556,0,0,0,,0,145,145,7,1,WAGON,LB,old,m,./images/WAGONLB.png,,,,,,,,,,,,,,,,,,,,,,,
,,,,,,,,,,,,,,,,,200479,19,2022-01-28_17h55.40.018,lexical_decision_task_DD_L5,2021.2.3,Win32,143.2254368,,,,,,,,,,,1.0536,1,,,,,,,,,,,,,,m,1,1.0536,,,,,,,,0.034259259,-0.380555556,0,0,0,,0,146,146,41,1,STREAM,C,old,m,./images/STREAM.png,,,,,,,,,,,,,,,,,,,,,,,
,,,,,,,,,,,,,,,,,200479,19,2022-01-28_17h55.40.018,lexical_decision_task_DD_L5,2021.2.3,Win32,143.2254368,,,,,,,,,,,1.7826,1,,,,,,,,,,,,,,z,1,1.7826,,,,,,,,0.034259259,-0.380555556,0,0,0,,0,147,147,118,1,BAVEL,HB,old,z,./images/BAVELHB.png,,,,,,,,,,,,,,,,,,,,,,,
,,,,,,,,,,,,,,,,,200479,19,2022-01-28_17h55.40.018,lexical_decision_task_DD_L5,2021.2.3,Win32,143.2254368,,,,,,,,,,,1.0333,1,,,,,,,,,,,,,,z,1,1.0333,,,,,,,,0.034259259,-0.380555556,0,0,0,,0,148,148,121,1,CEERS,HB,old,z,./images/CEERSHB.png,,,,,,,,,,,,,,,,,,,,,,,
,,,,,,,,,,,,,,,,,200479,19,2022-01-28_17h55.40.018,lexical_decision_task_DD_L5,2021.2.3,Win32,143.2254368,,,,,,,,,,,0.732,1,,,,,,,,,,,,,,m,1,0.732,,,,,,,,0.034259259,-0.380555556,0,0,0,,0,149,149,82,1,PEBBLE,LB,old,m,./images/PEBBLELB.png,,,,,,,,,,,,,,,,,,,,,,,
,,,,,,,,,,,,,,,,,200479,19,2022-01-28_17h55.40.018,lexical_decision_task_DD_L5,2021.2.3,Win32,143.2254368,,,,,,,,,,,0.8514,1,,,,,,,,,,,,,,m,1,0.8514,,,,,,,,0.034259259,-0.380555556,0,0,0,,0,150,150,27,1,BUTTER,HB,old,m,./images/BUTTERHB.png,,,,,,,,,,,,,,,,,,,,,,,
,,,,,,,,,,,,,,,,,200479,19,2022-01-28_17h55.40.018,lexical_decision_task_DD_L5,2021.2.3,Win32,143.2254368,,,,,,,,,,,0.7499,1,,,,,,,,,,,,,,z,1,0.7499,,,,,,,,0.034259259,-0.380555556,0,0,0,,0,151,151,140,1,DOVET,LB,old,z,./images/DOVETLB.png,,,,,,,,,,,,,,,,,,,,,,,
,,,,,,,,,,,,,,,,,200479,19,2022-01-28_17h55.40.018,lexical_decision_task_DD_L5,2021.2.3,Win32,143.2254368,,,,,,,,,,,1.3322,1,,,,,,,,,,,,,,m,1,1.3322,,,,,,,,0.034259259,-0.380555556,0,0,0,,0,152,152,5,1,BAMBOO,C,old,m,./images/BAMBOO.png,,,,,,,,,,,,,,,,,,,,,,,
,,,,,,,,,,,,,,,,,200479,19,2022-01-28_17h55.40.018,lexical_decision_task_DD_L5,2021.2.3,Win32,143.2254368,,,,,,,,,,,0.7997,1,,,,,,,,,,,,,,z,1,0.7997,,,,,,,,0.034259259,-0.380555556,0,0,0,,0,153,153,91,1,SHENS,HB,old,z,./images/SHENSHB.png,,,,,,,,,,,,,,,,,,,,,,,
,,,,,,,,,,,,,,,,,200479,19,2022-01-28_17h55.40.018,lexical_decision_task_DD_L5,2021.2.3,Win32,143.2254368,,,,,,,,,,,0.5677,1,,,,,,,,,,,,,,m,1,0.5677,,,,,,,,0.034259259,-0.380555556,0,0,0,,0,154,154,10,1,GARDEN,LB,old,m,./images/GARDENLB.png,,,,,,,,,,,,,,,,,,,,,,,
,,,,,,,,,,,,,,,,,200479,19,2022-01-28_17h55.40.018,lexical_decision_task_DD_L5,2021.2.3,Win32,143.2254368,,,,,,,,,,,1.5012,1,,,,,,,,,,,,,,m,1,1.5012,,,,,,,,0.034259259,-0.380555556,0,0,0,,0,155,155,4,1,BOXER,LB,old,m,./images/BOXERLB.png,,,,,,,,,,,,,,,,,,,,,,,
,,,,,,,,,,,,,,,,,200479,19,2022-01-28_17h55.40.018,lexical_decision_task_DD_L5,2021.2.3,Win32,143.2254368,,,,,,,,,,,0.9327,1,,,,,,,,,,,,,,z,1,0.9327,,,,,,,,0.034259259,-0.380555556,0,0,0,,0,156,156,136,1,WERVE,HB,old,z,./images/WERVEHB.png,,,,,,,,,,,,,,,,,,,,,,,
,,,,,,,,,,,,,,,,,200479,19,2022-01-28_17h55.40.018,lexical_decision_task_DD_L5,2021.2.3,Win32,143.2254368,,,,,,,,,,,0.9839,1,,,,,,,,,,,,,,m,1,0.9839,,,,,,,,0.034259259,-0.380555556,0,0,0,,0,157,157,62,1,MAMMAL,C,old,m,./images/MAMMAL.png,,,,,,,,,,,,,,,,,,,,,,,
,,,,,,,,,,,,,,,,,200479,19,2022-01-28_17h55.40.018,lexical_decision_task_DD_L5,2021.2.3,Win32,143.2254368,,,,,,,,,,,0.7313,1,,,,,,,,,,,,,,m,1,0.7313,,,,,,,,0.034259259,-0.380555556,0,0,0,,0,158,158,81,1,DRILL,HB,old,m,./images/DRILLHB.png,,,,,,,,,,,,,,,,,,,,,,,
,,,,,,,,,,,,,,,,,200479,19,2022-01-28_17h55.40.018,lexical_decision_task_DD_L5,2021.2.3,Win32,143.2254368,,,,,,,,,,,0.6668,1,,,,,,,,,,,,,,m,1,0.6668,,,,,,,,0.034259259,-0.380555556,0,0,0,,0,159,159,48,1,SHIELD,HB,old,m,./images/SHIELDHB.png,,,,,,,,,,,,,,,,,,,,,,,
,,,,,,,,,,,,,,,,,200479,19,2022-01-28_17h55.40.018,lexical_decision_task_DD_L5,2021.2.3,Win32,143.2254368,,,,,,,,,,,0.8011,1,,,,,,,,,,,,,,z,1,0.8011,,,,,,,,0.034259259,-0.380555556,0,0,0,,0,160,160,92,1,PAIMS,LB,old,z,./images/PAIMSLB.png,,,,,,,,,,,,,,,,,,,,,,,
,,,,,,,,,,,,,,,,,200479,19,2022-01-28_17h55.40.018,lexical_decision_task_DD_L5,2021.2.3,Win32,143.2254368,,,,,,,,,,,0.7336,1,,,,,,,,,,,,,,m,1,0.7336,,,,,,,,0.034259259,-0.380555556,0,0,0,,0,161,161,54,1,CHERRY,HB,old,m,./images/CHERRYHB.png,,,,,,,,,,,,,,,,,,,,,,,
,,,,,,,,,,,,,,,,,200479,19,2022-01-28_17h55.40.018,lexical_decision_task_DD_L5,2021.2.3,Win32,143.2254368,,,,,,,,,,,1.6664,1,,,,,,,,,,,,,,z,1,1.6664,,,,,,,,0.034259259,-0.380555556,0,0,0,,0,162,162,100,1,DRIBS,HB,old,z,./images/DRIBSHB.png,,,,,,,,,,,,,,,,,,,,,,,
,,,,,,,,,,,,,,,,,200479,19,2022-01-28_17h55.40.018,lexical_decision_task_DD_L5,2021.2.3,Win32,143.2254368,,,,,,,,,,,0.7667,1,,,,,,,,,,,,,,m,1,0.7667,,,,,,,,0.034259259,-0.380555556,0,0,0,,0,163,163,23,1,CLOTH,C,old,m,./images/CLOTH.png,,,,,,,,,,,,,,,,,,,,,,,
,,,,,,,,,,,,,,,,,200479,19,2022-01-28_17h55.40.018,lexical_decision_task_DD_L5,2021.2.3,Win32,143.2254368,,,,,,,,,,,0.7014,1,,,,,,,,,,,,,,m,1,0.7014,,,,,,,,0.034259259,-0.380555556,0,0,0,,0,164,164,60,1,CURRY,HB,old,m,./images/CURRYHB.png,,,,,,,,,,,,,,,,,,,,,,,
,,,,,,,,,,,,,,,,,200479,19,2022-01-28_17h55.40.018,lexical_decision_task_DD_L5,2021.2.3,Win32,143.2254368,,,,,,,,,,,0.735,1,,,,,,,,,,,,,,z,1,0.735,,,,,,,,0.034259259,-0.380555556,0,0,0,,0,165,165,114,1,RIKES,C,old,z,./images/RIKES.png,,,,,,,,,,,,,,,,,,,,,,,
,,,,,,,,,,,,,,,,,200479,19,2022-01-28_17h55.40.018,lexical_decision_task_DD_L5,2021.2.3,Win32,143.2254368,,,,,,,,,,,1.0323,1,,,,,,,,,,,,,,z,1,1.0323,,,,,,,,0.034259259,-0.380555556,0,0,0,,0,166,166,132,1,SCIFF,C,old,z,./images/SCIFF.png,,,,,,,,,,,,,,,,,,,,,,,
,,,,,,,,,,,,,,,,,200479,19,2022-01-28_17h55.40.018,lexical_decision_task_DD_L5,2021.2.3,Win32,143.2254368,,,,,,,,,,,1.501,1,,,,,,,,,,,,,,m,1,1.501,,,,,,,,0.034259259,-0.380555556,0,0,0,,0,167,167,6,1,STAIN,HB,old,m,./images/STAINHB.png,,,,,,,,,,,,,,,,,,,,,,,
,0.034259259,-0.42962963,1,0,0,instr_done_button,,,,,,1,test,"In the next phase you will be presented with the words from the the first phase. Your job is to decide whether you remember seeing the word or not. If you remember seeing the word press ""old"" or type ""m"". If you do not remember seeing the word press ""new"" or type ""z"". Please press the space bar or click on continue to begin. ",,,200479,19,2022-01-28_17h55.40.018,lexical_decision_task_DD_L5,2021.2.3,Win32,143.2254368,,,,,,,,,,,,,,,,,,,,,,,,,,,,,,,,,,,,,,,,,,,,,,,,,,,,,,0,0,0,0,1,,,,,,,,,,,,,,,,
,-0.006481481,-0.374074074,1,0,0,instr_done_button,,,,,,1,test,"In the next phase you will be presented with the words from the the first phase. Your job is to decide whether you remember seeing the word or not. If you remember seeing the word press ""old"" or type ""m"". If you do not remember seeing the word press ""new"" or type ""z"". Please press the space bar or click on continue to begin. ",,,200479,19,2022-01-28_17h55.40.018,lexical_decision_task_DD_L5,2021.2.3,Win32,143.2254368,,,,,,,,,,,,,,,,,,,,,,,,,,,,,,,,,,,,,,,,,,,,,,,,,,,,,,1,0,1,0,1,,,,,,,,,,,,,,,,
,0.060185185,-0.388888889,1,0,0,instr_done_button,,,,,,1,test,"In the next phase you will be presented with the words from the the first phase. Your job is to decide whether you remember seeing the word or not. If you remember seeing the word press ""old"" or type ""m"". If you do not remember seeing the word press ""new"" or type ""z"". Please press the space bar or click on continue to begin. ",,,200479,19,2022-01-28_17h55.40.018,lexical_decision_task_DD_L5,2021.2.3,Win32,143.2254368,,,,,,,,,,,,,,,,,,,,,,,,,,,,,,,,,,,,,,,,,,,,,,,,,,,,,,2,0,2,0,1,,,,,,,,,,,,,,,,
space,-0.085185185,-0.278703704,0,0,0,,,,,,,1,test,"In the next phase you will be presented with the words from the the first phase. Your job is to decide whether you remember seeing the word or not. If you remember seeing the word press ""old"" or type ""m"". If you do not remember seeing the word press ""new"" or type ""z"". Please press the space bar or click on continue to begin. ",,,200479,19,2022-01-28_17h55.40.018,lexical_decision_task_DD_L5,2021.2.3,Win32,143.2254368,,,,,,,,,,,,,,,,,,,,,,,,,,,,,,,,,,,,,,,,,,,,,,,,,,,,,,3,0,3,0,1,2.5157,,,,,,,,,,,,,,,
space,-0.04537037,-0.309259259,0,0,0,,,,,,,1,test,"In the next phase you will be presented with the words from the the first phase. Your job is to decide whether you remember seeing the word or not. If you remember seeing the word press ""old"" or type ""m"". If you do not remember seeing the word press ""new"" or type ""z"". Please press the space bar or click on continue to begin. ",,,200479,19,2022-01-28_17h55.40.018,lexical_decision_task_DD_L5,2021.2.3,Win32,143.2254368,,,,,,,,,,,,,,,,,,,,,,,,,,,,,,,,,,,,,,,,,,,,,,,,,,,,,,4,0,4,0,1,0.5504,,,,,,,,,,,,,,,
,,,,,,,,,,,,,,,,,200479,19,2022-01-28_17h55.40.018,lexical_decision_task_DD_L5,2021.2.3,Win32,143.2254368,,,,,,,,,,,2,1,,,,,,,,,,,,,,,,,,,,,,,,-0.026851852,-0.309259259,0,0,0,,,,,,,JAGUAR,HB,z,y,./images/JAGUARHB.png,,,,,,,,,z,1,2,,,,,,,,0,0,0,102,1
,,,,,,,,,,,,,,,,,200479,19,2022-01-28_17h55.40.018,lexical_decision_task_DD_L5,2021.2.3,Win32,143.2254368,,,,,,,,,,,2.8331,0,,,,,,,,,,,,,,,,,,,,,,,,-0.026851852,-0.309259259,0,0,0,,,,,,,VALLEY,C,m,y,./images/VALLEY.png,,,,,,,,,z,0,2.8331,,,,,,,,0,1,1,68,1
,,,,,,,,,,,,,,,,,200479,19,2022-01-28_17h55.40.018,lexical_decision_task_DD_L5,2021.2.3,Win32,143.2254368,,,,,,,,,,,0.6672,1,,,,,,,,,,,,,,,,,,,,,,,,-0.026851852,-0.309259259,0,0,0,,,,,,,PEBBLE,LB,m,y,./images/PEBBLELB.png,,,,,,,,,m,1,0.6672,,,,,,,,0,2,2,82,1
,,,,,,,,,,,,,,,,,200479,19,2022-01-28_17h55.40.018,lexical_decision_task_DD_L5,2021.2.3,Win32,143.2254368,,,,,,,,,,,0.6004,0,,,,,,,,,,,,,,,,,,,,,,,,-0.026851852,-0.309259259,0,0,0,,,,,,,STRING,C,z,y,./images/STRING.png,,,,,,,,,m,0,0.6004,,,,,,,,0,3,3,125,1
,,,,,,,,,,,,,,,,,200479,19,2022-01-28_17h55.40.018,lexical_decision_task_DD_L5,2021.2.3,Win32,143.2254368,,,,,,,,,,,0.7675,1,,,,,,,,,,,,,,,,,,,,,,,,-0.026851852,-0.309259259,0,0,0,,,,,,,CHERRY,HB,m,y,./images/CHERRYHB.png,,,,,,,,,m,1,0.7675,,,,,,,,0,4,4,54,1
,,,,,,,,,,,,,,,,,200479,19,2022-01-28_17h55.40.018,lexical_decision_task_DD_L5,2021.2.3,Win32,143.2254368,,,,,,,,,,,0.884,1,,,,,,,,,,,,,,,,,,,,,,,,-0.026851852,-0.309259259,0,0,0,,,,,,,CARPET,C,z,y,./images/CARPET.png,,,,,,,,,z,1,0.884,,,,,,,,0,5,5,137,1
,,,,,,,,,,,,,,,,,200479,19,2022-01-28_17h55.40.018,lexical_decision_task_DD_L5,2021.2.3,Win32,143.2254368,,,,,,,,,,,0.6995,1,,,,,,,,,,,,,,,,,,,,,,,,-0.026851852,-0.309259259,0,0,0,,,,,,,STEAK,LB,m,y,./images/STEAKLB.png,,,,,,,,,m,1,0.6995,,,,,,,,0,6,6,31,1
,,,,,,,,,,,,,,,,,200479,19,2022-01-28_17h55.40.018,lexical_decision_task_DD_L5,2021.2.3,Win32,143.2254368,,,,,,,,,,,1.1168,0,,,,,,,,,,,,,,,,,,,,,,,,-0.026851852,-0.309259259,0,0,0,,,,,,,JUNGLE,C,z,y,./images/JUNGLE.png,,,,,,,,,m,0,1.1168,,,,,,,,0,7,7,167,1
,,,,,,,,,,,,,,,,,200479,19,2022-01-28_17h55.40.018,lexical_decision_task_DD_L5,2021.2.3,Win32,143.2254368,,,,,,,,,,,1.5341,1,,,,,,,,,,,,,,,,,,,,,,,,-0.026851852,-0.309259259,0,0,0,,,,,,,STORM,HB,z,y,./images/STORMHB.png,,,,,,,,,z,1,1.5341,,,,,,,,0,8,8,114,1
,,,,,,,,,,,,,,,,,200479,19,2022-01-28_17h55.40.018,lexical_decision_task_DD_L5,2021.2.3,Win32,143.2254368,,,,,,,,,,,1.0819,1,,,,,,,,,,,,,,,,,,,,,,,,-0.026851852,-0.309259259,0,0,0,,,,,,,TIGER,LB,m,y,./images/TIGERLB.png,,,,,,,,,m,1,1.0819,,,,,,,,0,9,9,37,1
,,,,,,,,,,,,,,,,,200479,19,2022-01-28_17h55.40.018,lexical_decision_task_DD_L5,2021.2.3,Win32,143.2254368,,,,,,,,,,,0.867,1,,,,,,,,,,,,,,,,,,,,,,,,-0.026851852,-0.309259259,0,0,0,,,,,,,KITTEN,HB,z,y,./images/KITTENHB.png,,,,,,,,,z,1,0.867,,,,,,,,0,10,10,129,1
,,,,,,,,,,,,,,,,,200479,19,2022-01-28_17h55.40.018,lexical_decision_task_DD_L5,2021.2.3,Win32,143.2254368,,,,,,,,,,,1.2168,0,,,,,,,,,,,,,,,,,,,,,,,,-0.026851852,-0.309259259,0,0,0,,,,,,,DONKEY,LB,m,y,./images/DONKEYLB.png,,,,,,,,,z,0,1.2168,,,,,,,,0,11,11,19,1
,,,,,,,,,,,,,,,,,200479,19,2022-01-28_17h55.40.018,lexical_decision_task_DD_L5,2021.2.3,Win32,143.2254368,,,,,,,,,,,0.5996,0,,,,,,,,,,,,,,,,,,,,,,,,-0.026851852,-0.309259259,0,0,0,,,,,,,PEARL,LB,z,y,./images/PEARLLB.png,,,,,,,,,m,0,0.5996,,,,,,,,0,12,12,130,1
,,,,,,,,,,,,,,,,,200479,19,2022-01-28_17h55.40.018,lexical_decision_task_DD_L5,2021.2.3,Win32,143.2254368,,,,,,,,,,,1.4839,1,,,,,,,,,,,,,,,,,,,,,,,,-0.026851852,-0.309259259,0,0,0,,,,,,,PLANK,LB,z,y,./images/PLANKLB.png,,,,,,,,,z,1,1.4839,,,,,,,,0,13,13,85,1
,,,,,,,,,,,,,,,,,200479,19,2022-01-28_17h55.40.018,lexical_decision_task_DD_L5,2021.2.3,Win32,143.2254368,,,,,,,,,,,1.3503,1,,,,,,,,,,,,,,,,,,,,,,,,-0.026851852,-0.309259259,0,0,0,,,,,,,PURSE,C,z,y,./images/PURSE.png,,,,,,,,,z,1,1.3503,,,,,,,,0,14,14,146,1
,,,,,,,,,,,,,,,,,200479,19,2022-01-28_17h55.40.018,lexical_decision_task_DD_L5,2021.2.3,Win32,143.2254368,,,,,,,,,,,2.1165,0,,,,,,,,,,,,,,,,,,,,,,,,-0.026851852,-0.309259259,0,0,0,,,,,,,BERRY,C,z,y,./images/BERRY.png,,,,,,,,,m,0,2.1165,,,,,,,,0,15,15,131,1
,,,,,,,,,,,,,,,,,200479,19,2022-01-28_17h55.40.018,lexical_decision_task_DD_L5,2021.2.3,Win32,143.2254368,,,,,,,,,,,1.6,1,,,,,,,,,,,,,,,,,,,,,,,,-0.026851852,-0.309259259,0,0,0,,,,,,,DANCER,HB,m,y,./images/DANCERHB.png,,,,,,,,,m,1,1.6,,,,,,,,0,16,16,21,1
,,,,,,,,,,,,,,,,,200479,19,2022-01-28_17h55.40.018,lexical_decision_task_DD_L5,2021.2.3,Win32,143.2254368,,,,,,,,,,,2.2331,1,,,,,,,,,,,,,,,,,,,,,,,,-0.026851852,-0.309259259,0,0,0,,,,,,,BRIDE,LB,m,y,./images/BRIDELB.png,,,,,,,,,m,1,2.2331,,,,,,,,0,17,17,64,1
,,,,,,,,,,,,,,,,,200479,19,2022-01-28_17h55.40.018,lexical_decision_task_DD_L5,2021.2.3,Win32,143.2254368,,,,,,,,,,,0.8666,1,,,,,,,,,,,,,,,,,,,,,,,,-0.026851852,-0.309259259,0,0,0,,,,,,,GRAIN,HB,z,y,./images/GRAINHB.png,,,,,,,,,z,1,0.8666,,,,,,,,0,18,18,159,1
,,,,,,,,,,,,,,,,,200479,19,2022-01-28_17h55.40.018,lexical_decision_task_DD_L5,2021.2.3,Win32,143.2254368,,,,,,,,,,,1.3322,1,,,,,,,,,,,,,,,,,,,,,,,,-0.026851852,-0.309259259,0,0,0,,,,,,,GRANNY,C,m,y,./images/GRANNY.png,,,,,,,,,m,1,1.3322,,,,,,,,0,19,19,20,1
,,,,,,,,,,,,,,,,,200479,19,2022-01-28_17h55.40.018,lexical_decision_task_DD_L5,2021.2.3,Win32,143.2254368,,,,,,,,,,,1.1016,1,,,,,,,,,,,,,,,,,,,,,,,,-0.026851852,-0.309259259,0,0,0,,,,,,,MIRROR,HB,z,y,./images/MIRRORHB.png,,,,,,,,,z,1,1.1016,,,,,,,,0,20,20,147,1
,,,,,,,,,,,,,,,,,200479,19,2022-01-28_17h55.40.018,lexical_decision_task_DD_L5,2021.2.3,Win32,143.2254368,,,,,,,,,,,1.6986,1,,,,,,,,,,,,,,,,,,,,,,,,-0.026851852,-0.309259259,0,0,0,,,,,,,SCREW,HB,z,y,./images/SCREWHB.png,,,,,,,,,z,1,1.6986,,,,,,,,0,21,21,108,1
,,,,,,,,,,,,,,,,,200479,19,2022-01-28_17h55.40.018,lexical_decision_task_DD_L5,2021.2.3,Win32,143.2254368,,,,,,,,,,,1.1335,1,,,,,,,,,,,,,,,,,,,,,,,,-0.026851852,-0.309259259,0,0,0,,,,,,,POODLE,HB,z,y,./images/POODLEHB.png,,,,,,,,,z,1,1.1335,,,,,,,,0,22,22,165,1
,,,,,,,,,,,,,,,,,200479,19,2022-01-28_17h55.40.018,lexical_decision_task_DD_L5,2021.2.3,Win32,143.2254368,,,,,,,,,,,0.7664,1,,,,,,,,,,,,,,,,,,,,,,,,-0.026851852,-0.309259259,0,0,0,,,,,,,CLOTH,C,m,y,./images/CLOTH.png,,,,,,,,,m,1,0.7664,,,,,,,,0,23,23,23,1
,,,,,,,,,,,,,,,,,200479,19,2022-01-28_17h55.40.018,lexical_decision_task_DD_L5,2021.2.3,Win32,143.2254368,,,,,,,,,,,1.0997,1,,,,,,,,,,,,,,,,,,,,,,,,-0.026851852,-0.309259259,0,0,0,,,,,,,FENCE,C,m,y,./images/FENCE.png,,,,,,,,,m,1,1.0997,,,,,,,,0,24,24,14,1
,,,,,,,,,,,,,,,,,200479,19,2022-01-28_17h55.40.018,lexical_decision_task_DD_L5,2021.2.3,Win32,143.2254368,,,,,,,,,,,2.7331,1,,,,,,,,,,,,,,,,,,,,,,,,-0.026851852,-0.309259259,0,0,0,,,,,,,ARROW,HB,m,y,./images/ARROWHB.png,,,,,,,,,m,1,2.7331,,,,,,,,0,25,25,69,1
,,,,,,,,,,,,,,,,,200479,19,2022-01-28_17h55.40.018,lexical_decision_task_DD_L5,2021.2.3,Win32,143.2254368,,,,,,,,,,,1.5838,1,,,,,,,,,,,,,,,,,,,,,,,,-0.026851852,-0.309259259,0,0,0,,,,,,,RULER,LB,m,y,./images/RULERLB.png,,,,,,,,,m,1,1.5838,,,,,,,,0,26,26,79,1
,,,,,,,,,,,,,,,,,200479,19,2022-01-28_17h55.40.018,lexical_decision_task_DD_L5,2021.2.3,Win32,143.2254368,,,,,,,,,,,3.0328,1,,,,,,,,,,,,,,,,,,,,,,,,-0.026851852,-0.309259259,0,0,0,,,,,,,BIRTH,LB,z,y,./images/BIRTHLB.png,,,,,,,,,z,1,3.0328,,,,,,,,0,27,27,121,1
,,,,,,,,,,,,,,,,,200479,19,2022-01-28_17h55.40.018,lexical_decision_task_DD_L5,2021.2.3,Win32,143.2254368,,,,,,,,,,,2.5836,1,,,,,,,,,,,,,,,,,,,,,,,,-0.026851852,-0.309259259,0,0,0,,,,,,,STREAM,C,m,y,./images/STREAM.png,,,,,,,,,m,1,2.5836,,,,,,,,0,28,28,41,1
,,,,,,,,,,,,,,,,,200479,19,2022-01-28_17h55.40.018,lexical_decision_task_DD_L5,2021.2.3,Win32,143.2254368,,,,,,,,,,,4.601,0,,,,,,,,,,,,,,,,,,,,,,,,-0.026851852,-0.309259259,0,0,0,,,,,,,FARMER,C,z,y,./images/FARMER.png,,,,,,,,,m,0,4.601,,,,,,,,0,29,29,149,1
,,,,,,,,,,,,,,,,,200479,19,2022-01-28_17h55.40.018,lexical_decision_task_DD_L5,2021.2.3,Win32,143.2254368,,,,,,,,,,,0.6173,1,,,,,,,,,,,,,,,,,,,,,,,,-0.026851852,-0.309259259,0,0,0,,,,,,,HOCKEY,C,m,y,./images/HOCKEY.png,,,,,,,,,m,1,0.6173,,,,,,,,0,30,30,32,1
,,,,,,,,,,,,,,,,,200479,19,2022-01-28_17h55.40.018,lexical_decision_task_DD_L5,2021.2.3,Win32,143.2254368,,,,,,,,,,,3.7168,1,,,,,,,,,,,,,,,,,,,,,,,,-0.026851852,-0.309259259,0,0,0,,,,,,,STATUE,HB,m,y,./images/STATUEHB.png,,,,,,,,,m,1,3.7168,,,,,,,,0,31,31,66,1
,,,,,,,,,,,,,,,,,200479,19,2022-01-28_17h55.40.018,lexical_decision_task_DD_L5,2021.2.3,Win32,143.2254368,,,,,,,,,,,0.6332,1,,,,,,,,,,,,,,,,,,,,,,,,-0.026851852,-0.309259259,0,0,0,,,,,,,LLAMA,C,m,y,./images/LLAMA.png,,,,,,,,,m,1,0.6332,,,,,,,,0,32,32,35,1
,,,,,,,,,,,,,,,,,200479,19,2022-01-28_17h55.40.018,lexical_decision_task_DD_L5,2021.2.3,Win32,143.2254368,,,,,,,,,,,0.5504,1,,,,,,,,,,,,,,,,,,,,,,,,-0.026851852,-0.309259259,0,0,0,,,,,,,BISHOP,LB,m,y,./images/BISHOPLB.png,,,,,,,,,m,1,0.5504,,,,,,,,0,33,33,49,1
,,,,,,,,,,,,,,,,,200479,19,2022-01-28_17h55.40.018,lexical_decision_task_DD_L5,2021.2.3,Win32,143.2254368,,,,,,,,,,,0.7988,1,,,,,,,,,,,,,,,,,,,,,,,,-0.026851852,-0.309259259,0,0,0,,,,,,,STAIN,HB,m,y,./images/STAINHB.png,,,,,,,,,m,1,0.7988,,,,,,,,0,34,34,6,1
,,,,,,,,,,,,,,,,,200479,19,2022-01-28_17h55.40.018,lexical_decision_task_DD_L5,2021.2.3,Win32,143.2254368,,,,,,,,,,,0.7335,1,,,,,,,,,,,,,,,,,,,,,,,,-0.026851852,-0.309259259,0,0,0,,,,,,,FOLDER,HB,z,y,./images/FOLDERHB.png,,,,,,,,,z,1,0.7335,,,,,,,,0,35,35,126,1
,,,,,,,,,,,,,,,,,200479,19,2022-01-28_17h55.40.018,lexical_decision_task_DD_L5,2021.2.3,Win32,143.2254368,,,,,,,,,,,0.8008,1,,,,,,,,,,,,,,,,,,,,,,,,-0.026851852,-0.309259259,0,0,0,,,,,,,MEDAL,C,m,y,./images/MEDAL.png,,,,,,,,,m,1,0.8008,,,,,,,,0,36,36,11,1
,,,,,,,,,,,,,,,,,200479,19,2022-01-28_17h55.40.018,lexical_decision_task_DD_L5,2021.2.3,Win32,143.2254368,,,,,,,,,,,2.1498,1,,,,,,,,,,,,,,,,,,,,,,,,-0.026851852,-0.309259259,0,0,0,,,,,,,SLOPE,HB,m,y,./images/SLOPEHB.png,,,,,,,,,m,1,2.1498,,,,,,,,0,37,37,30,1
,,,,,,,,,,,,,,,,,200479,19,2022-01-28_17h55.40.018,lexical_decision_task_DD_L5,2021.2.3,Win32,143.2254368,,,,,,,,,,,1,0,,,,,,,,,,,,,,,,,,,,,,,,-0.026851852,-0.309259259,0,0,0,,,,,,,BARREL,C,z,y,./images/BARREL.png,,,,,,,,,m,0,1,,,,,,,,0,38,38,116,1
,,,,,,,,,,,,,,,,,200479,19,2022-01-28_17h55.40.018,lexical_decision_task_DD_L5,2021.2.3,Win32,143.2254368,,,,,,,,,,,0.8015,1,,,,,,,,,,,,,,,,,,,,,,,,-0.026851852,-0.309259259,0,0,0,,,,,,,BELLY,LB,z,y,./images/BELLYLB.png,,,,,,,,,z,1,0.8015,,,,,,,,0,39,39,94,1
,,,,,,,,,,,,,,,,,200479,19,2022-01-28_17h55.40.018,lexical_decision_task_DD_L5,2021.2.3,Win32,143.2254368,,,,,,,,,,,1.0513,1,,,,,,,,,,,,,,,,,,,,,,,,-0.026851852,-0.309259259,0,0,0,,,,,,,BABOON,LB,z,y,./images/BABOONLB.png,,,,,,,,,z,1,1.0513,,,,,,,,0,40,40,142,1
,,,,,,,,,,,,,,,,,200479,19,2022-01-28_17h55.40.018,lexical_decision_task_DD_L5,2021.2.3,Win32,143.2254368,,,,,,,,,,,2.5665,1,,,,,,,,,,,,,,,,,,,,,,,,-0.009259259,-0.416666667,1,0,0,,,,,,,WRIST,LB,z,y,./images/WRISTLB.png,break_done_button,,,,,,,,z,1,2.5665,,,,,,,,0,41,41,109,1
,,,,,,,,,,,,,,,,,200479,19,2022-01-28_17h55.40.018,lexical_decision_task_DD_L5,2021.2.3,Win32,143.2254368,,,,,,,,,,,2.8358,1,,,,,,,,,,,,,,,,,,,,,,,,0.29537037,-0.463888889,0,0,0,,,,,,,JELLY,LB,z,y,./images/JELLYLB.png,,,,,,,,,z,1,2.8358,,,,,,,,0,42,42,148,1
,,,,,,,,,,,,,,,,,200479,19,2022-01-28_17h55.40.018,lexical_decision_task_DD_L5,2021.2.3,Win32,143.2254368,,,,,,,,,,,0.7348,1,,,,,,,,,,,,,,,,,,,,,,,,0.29537037,-0.463888889,0,0,0,,,,,,,TOMATO,HB,z,y,./images/TOMATOHB.png,,,,,,,,,z,1,0.7348,,,,,,,,0,43,43,84,1
,,,,,,,,,,,,,,,,,200479,19,2022-01-28_17h55.40.018,lexical_decision_task_DD_L5,2021.2.3,Win32,143.2254368,,,,,,,,,,,1.0156,0,,,,,,,,,,,,,,,,,,,,,,,,0.29537037,-0.463888889,0,0,0,,,,,,,BANNER,LB,z,y,./images/BANNERLB.png,,,,,,,,,m,0,1.0156,,,,,,,,0,44,44,136,1
,,,,,,,,,,,,,,,,,200479,19,2022-01-28_17h55.40.018,lexical_decision_task_DD_L5,2021.2.3,Win32,143.2254368,,,,,,,,,,,0.8168,1,,,,,,,,,,,,,,,,,,,,,,,,0.29537037,-0.463888889,0,0,0,,,,,,,TULIP,C,z,y,./images/TULIP.png,,,,,,,,,z,1,0.8168,,,,,,,,0,45,45,92,1
,,,,,,,,,,,,,,,,,200479,19,2022-01-28_17h55.40.018,lexical_decision_task_DD_L5,2021.2.3,Win32,143.2254368,,,,,,,,,,,1.1658,0,,,,,,,,,,,,,,,,,,,,,,,,0.29537037,-0.463888889,0,0,0,,,,,,,ALLEY,LB,m,y,./images/ALLEYLB.png,,,,,,,,,z,0,1.1658,,,,,,,,0,46,46,55,1
,,,,,,,,,,,,,,,,,200479,19,2022-01-28_17h55.40.018,lexical_decision_task_DD_L5,2021.2.3,Win32,143.2254368,,,,,,,,,,,2.6831,1,,,,,,,,,,,,,,,,,,,,,,,,0.29537037,-0.463888889,0,0,0,,,,,,,WEASEL,C,z,y,./images/WEASEL.png,,,,,,,,,z,1,2.6831,,,,,,,,0,47,47,164,1
,,,,,,,,,,,,,,,,,200479,19,2022-01-28_17h55.40.018,lexical_decision_task_DD_L5,2021.2.3,Win32,143.2254368,,,,,,,,,,,1.2848,1,,,,,,,,,,,,,,,,,,,,,,,,0.29537037,-0.463888889,0,0,0,,,,,,,NOOSE,HB,z,y,./images/NOOSEHB.png,,,,,,,,,z,1,1.2848,,,,,,,,0,48,48,156,1
,,,,,,,,,,,,,,,,,200479,19,2022-01-28_17h55.40.018,lexical_decision_task_DD_L5,2021.2.3,Win32,143.2254368,,,,,,,,,,,0.8842,1,,,,,,,,,,,,,,,,,,,,,,,,0.29537037,-0.463888889,0,0,0,,,,,,,CRADLE,C,z,y,./images/CRADLE.png,,,,,,,,,z,1,0.8842,,,,,,,,0,49,49,104,1
,,,,,,,,,,,,,,,,,200479,19,2022-01-28_17h55.40.018,lexical_decision_task_DD_L5,2021.2.3,Win32,143.2254368,,,,,,,,,,,1.0165,1,,,,,,,,,,,,,,,,,,,,,,,,0.29537037,-0.463888889,0,0,0,,,,,,,SQUARE,HB,z,y,./images/SQUAREHB.png,,,,,,,,,z,1,1.0165,,,,,,,,0,50,50,90,1
,,,,,,,,,,,,,,,,,200479,19,2022-01-28_17h55.40.018,lexical_decision_task_DD_L5,2021.2.3,Win32,143.2254368,,,,,,,,,,,1.3677,1,,,,,,,,,,,,,,,,,,,,,,,,0.29537037,-0.463888889,0,0,0,,,,,,,FALCON,LB,z,y,./images/FALCONLB.png,,,,,,,,,z,1,1.3677,,,,,,,,0,51,51,112,1
,,,,,,,,,,,,,,,,,200479,19,2022-01-28_17h55.40.018,lexical_decision_task_DD_L5,2021.2.3,Win32,143.2254368,,,,,,,,,,,0.6502,1,,,,,,,,,,,,,,,,,,,,,,,,0.29537037,-0.463888889,0,0,0,,,,,,,SHIELD,HB,m,y,./images/SHIELDHB.png,,,,,,,,,m,1,0.6502,,,,,,,,0,52,52,48,1
,,,,,,,,,,,,,,,,,200479,19,2022-01-28_17h55.40.018,lexical_decision_task_DD_L5,2021.2.3,Win32,143.2254368,,,,,,,,,,,1.0001,1,,,,,,,,,,,,,,,,,,,,,,,,0.29537037,-0.463888889,0,0,0,,,,,,,PAINT,LB,z,y,./images/PAINTLB.png,,,,,,,,,z,1,1.0001,,,,,,,,0,53,53,91,1
,,,,,,,,,,,,,,,,,200479,19,2022-01-28_17h55.40.018,lexical_decision_task_DD_L5,2021.2.3,Win32,143.2254368,,,,,,,,,,,1.7195,0,,,,,,,,,,,,,,,,,,,,,,,,0.29537037,-0.463888889,0,0,0,,,,,,,COUCH,C,z,y,./images/COUCH.png,,,,,,,,,m,0,1.7195,,,,,,,,0,54,54,161,1
,,,,,,,,,,,,,,,,,200479,19,2022-01-28_17h55.40.018,lexical_decision_task_DD_L5,2021.2.3,Win32,143.2254368,,,,,,,,,,,3.4818,0,,,,,,,,,,,,,,,,,,,,,,,,0.29537037,-0.463888889,0,0,0,,,,,,,KIDNEY,HB,z,y,./images/KIDNEYHB.png,,,,,,,,,m,0,3.4818,,,,,,,,0,55,55,105,1
,,,,,,,,,,,,,,,,,200479,19,2022-01-28_17h55.40.018,lexical_decision_task_DD_L5,2021.2.3,Win32,143.2254368,,,,,,,,,,,0.9852,1,,,,,,,,,,,,,,,,,,,,,,,,0.29537037,-0.463888889,0,0,0,,,,,,,MOOSE,HB,z,y,./images/MOOSEHB.png,,,,,,,,,z,1,0.9852,,,,,,,,0,56,56,141,1
,,,,,,,,,,,,,,,,,200479,19,2022-01-28_17h55.40.018,lexical_decision_task_DD_L5,2021.2.3,Win32,143.2254368,,,,,,,,,,,2.3828,1,,,,,,,,,,,,,,,,,,,,,,,,0.29537037,-0.463888889,0,0,0,,,,,,,SAUCE,HB,m,y,./images/SAUCEHB.png,,,,,,,,,m,1,2.3828,,,,,,,,0,57,57,51,1
,,,,,,,,,,,,,,,,,200479,19,2022-01-28_17h55.40.018,lexical_decision_task_DD_L5,2021.2.3,Win32,143.2254368,,,,,,,,,,,0.8166,1,,,,,,,,,,,,,,,,,,,,,,,,0.29537037,-0.463888889,0,0,0,,,,,,,ENGINE,C,m,y,./images/ENGINE.png,,,,,,,,,m,1,0.8166,,,,,,,,0,58,58,38,1
,,,,,,,,,,,,,,,,,200479,19,2022-01-28_17h55.40.018,lexical_decision_task_DD_L5,2021.2.3,Win32,143.2254368,,,,,,,,,,,1.8497,1,,,,,,,,,,,,,,,,,,,,,,,,0.29537037,-0.463888889,0,0,0,,,,,,,BEARD,C,z,y,./images/BEARD.png,,,,,,,,,z,1,1.8497,,,,,,,,0,59,59,86,1
,,,,,,,,,,,,,,,,,200479,19,2022-01-28_17h55.40.018,lexical_decision_task_DD_L5,2021.2.3,Win32,143.2254368,,,,,,,,,,,0.6017,1,,,,,,,,,,,,,,,,,,,,,,,,0.29537037,-0.463888889,0,0,0,,,,,,,BROOM,HB,m,y,./images/BROOMHB.png,,,,,,,,,m,1,0.6017,,,,,,,,0,60,60,78,1
,,,,,,,,,,,,,,,,,200479,19,2022-01-28_17h55.40.018,lexical_decision_task_DD_L5,2021.2.3,Win32,143.2254368,,,,,,,,,,,3.4351,1,,,,,,,,,,,,,,,,,,,,,,,,0.29537037,-0.463888889,0,0,0,,,,,,,WALNUT,HB,m,y,./images/WALNUTHB.png,,,,,,,,,m,1,3.4351,,,,,,,,0,61,61,0,1
,,,,,,,,,,,,,,,,,200479,19,2022-01-28_17h55.40.018,lexical_decision_task_DD_L5,2021.2.3,Win32,143.2254368,,,,,,,,,,,0.9334,1,,,,,,,,,,,,,,,,,,,,,,,,0.29537037,-0.463888889,0,0,0,,,,,,,RAZOR,LB,m,y,./images/RAZORLB.png,,,,,,,,,m,1,0.9334,,,,,,,,0,62,62,34,1
,,,,,,,,,,,,,,,,,200479,19,2022-01-28_17h55.40.018,lexical_decision_task_DD_L5,2021.2.3,Win32,143.2254368,,,,,,,,,,,1.1487,1,,,,,,,,,,,,,,,,,,,,,,,,0.29537037,-0.463888889,0,0,0,,,,,,,POSTER,C,m,y,./images/POSTER.png,,,,,,,,,m,1,1.1487,,,,,,,,0,63,63,53,1
,,,,,,,,,,,,,,,,,200479,19,2022-01-28_17h55.40.018,lexical_decision_task_DD_L5,2021.2.3,Win32,143.2254368,,,,,,,,,,,0.6169,1,,,,,,,,,,,,,,,,,,,,,,,,0.29537037,-0.463888889,0,0,0,,,,,,,TWINS,HB,z,y,./images/TWINSHB.png,,,,,,,,,z,1,0.6169,,,,,,,,0,64,64,144,1
,,,,,,,,,,,,,,,,,200479,19,2022-01-28_17h55.40.018,lexical_decision_task_DD_L5,2021.2.3,Win32,143.2254368,,,,,,,,,,,4.7336,1,,,,,,,,,,,,,,,,,,,,,,,,0.29537037,-0.463888889,0,0,0,,,,,,,RHINO,HB,z,y,./images/RHINOHB.png,,,,,,,,,z,1,4.7336,,,,,,,,0,65,65,93,1
,,,,,,,,,,,,,,,,,200479,19,2022-01-28_17h55.40.018,lexical_decision_task_DD_L5,2021.2.3,Win32,143.2254368,,,,,,,,,,,0.8158,1,,,,,,,,,,,,,,,,,,,,,,,,0.29537037,-0.463888889,0,0,0,,,,,,,BOXER,LB,m,y,./images/BOXERLB.png,,,,,,,,,m,1,0.8158,,,,,,,,0,66,66,4,1
,,,,,,,,,,,,,,,,,200479,19,2022-01-28_17h55.40.018,lexical_decision_task_DD_L5,2021.2.3,Win32,143.2254368,,,,,,,,,,,1.1175,1,,,,,,,,,,,,,,,,,,,,,,,,0.29537037,-0.463888889,0,0,0,,,,,,,CHAIN,HB,m,y,./images/CHAINHB.png,,,,,,,,,m,1,1.1175,,,,,,,,0,67,67,42,1
,,,,,,,,,,,,,,,,,200479,19,2022-01-28_17h55.40.018,lexical_decision_task_DD_L5,2021.2.3,Win32,143.2254368,,,,,,,,,,,0.7657,1,,,,,,,,,,,,,,,,,,,,,,,,0.29537037,-0.463888889,0,0,0,,,,,,,WHISKY,C,m,y,./images/WHISKY.png,,,,,,,,,m,1,0.7657,,,,,,,,0,68,68,83,1
,,,,,,,,,,,,,,,,,200479,19,2022-01-28_17h55.40.018,lexical_decision_task_DD_L5,2021.2.3,Win32,143.2254368,,,,,,,,,,,2.0321,1,,,,,,,,,,,,,,,,,,,,,,,,0.29537037,-0.463888889,0,0,0,,,,,,,SAUNA,HB,m,y,./images/SAUNAHB.png,,,,,,,,,m,1,2.0321,,,,,,,,0,69,69,33,1
,,,,,,,,,,,,,,,,,200479,19,2022-01-28_17h55.40.018,lexical_decision_task_DD_L5,2021.2.3,Win32,143.2254368,,,,,,,,,,,0.7832,1,,,,,,,,,,,,,,,,,,,,,,,,0.29537037,-0.463888889,0,0,0,,,,,,,CRUST,LB,z,y,./images/CRUSTLB.png,,,,,,,,,z,1,0.7832,,,,,,,,0,70,70,163,1
,,,,,,,,,,,,,,,,,200479,19,2022-01-28_17h55.40.018,lexical_decision_task_DD_L5,2021.2.3,Win32,143.2254368,,,,,,,,,,,0.6329,1,,,,,,,,,,,,,,,,,,,,,,,,0.29537037,-0.463888889,0,0,0,,,,,,,CURRY,HB,m,y,./images/CURRYHB.png,,,,,,,,,m,1,0.6329,,,,,,,,0,71,71,60,1
,,,,,,,,,,,,,,,,,200479,19,2022-01-28_17h55.40.018,lexical_decision_task_DD_L5,2021.2.3,Win32,143.2254368,,,,,,,,,,,0.8342,1,,,,,,,,,,,,,,,,,,,,,,,,0.29537037,-0.463888889,0,0,0,,,,,,,WHEEL,C,m,y,./images/WHEEL.png,,,,,,,,,m,1,0.8342,,,,,,,,0,72,72,77,1
,,,,,,,,,,,,,,,,,200479,19,2022-01-28_17h55.40.018,lexical_decision_task_DD_L5,2021.2.3,Win32,143.2254368,,,,,,,,,,,0.785,1,,,,,,,,,,,,,,,,,,,,,,,,0.29537037,-0.463888889,0,0,0,,,,,,,PARADE,C,m,y,./images/PARADE.png,,,,,,,,,m,1,0.785,,,,,,,,0,73,73,17,1
,,,,,,,,,,,,,,,,,200479,19,2022-01-28_17h55.40.018,lexical_decision_task_DD_L5,2021.2.3,Win32,143.2254368,,,,,,,,,,,1.5155,1,,,,,,,,,,,,,,,,,,,,,,,,0.29537037,-0.463888889,0,0,0,,,,,,,MAGGOT,HB,z,y,./images/MAGGOTHB.png,,,,,,,,,z,1,1.5155,,,,,,,,0,74,74,117,1
,,,,,,,,,,,,,,,,,200479,19,2022-01-28_17h55.40.018,lexical_decision_task_DD_L5,2021.2.3,Win32,143.2254368,,,,,,,,,,,0.8517,1,,,,,,,,,,,,,,,,,,,,,,,,0.29537037,-0.463888889,0,0,0,,,,,,,PARCEL,HB,m,y,./images/PARCELHB.png,,,,,,,,,m,1,0.8517,,,,,,,,0,75,75,18,1
,,,,,,,,,,,,,,,,,200479,19,2022-01-28_17h55.40.018,lexical_decision_task_DD_L5,2021.2.3,Win32,143.2254368,,,,,,,,,,,0.7325,1,,,,,,,,,,,,,,,,,,,,,,,,0.29537037,-0.463888889,0,0,0,,,,,,,BOILER,HB,m,y,./images/BOILERHB.png,,,,,,,,,m,1,0.7325,,,,,,,,0,76,76,36,1
,,,,,,,,,,,,,,,,,200479,19,2022-01-28_17h55.40.018,lexical_decision_task_DD_L5,2021.2.3,Win32,143.2254368,,,,,,,,,,,0.6329,1,,,,,,,,,,,,,,,,,,,,,,,,0.29537037,-0.463888889,0,0,0,,,,,,,FERRY,HB,m,y,./images/FERRYHB.png,,,,,,,,,m,1,0.6329,,,,,,,,0,77,77,57,1
,,,,,,,,,,,,,,,,,200479,19,2022-01-28_17h55.40.018,lexical_decision_task_DD_L5,2021.2.3,Win32,143.2254368,,,,,,,,,,,0.865,1,,,,,,,,,,,,,,,,,,,,,,,,0.29537037,-0.463888889,0,0,0,,,,,,,PENCE,LB,z,y,./images/PENCELB.png,,,,,,,,,z,1,0.865,,,,,,,,0,78,78,100,1
,,,,,,,,,,,,,,,,,200479,19,2022-01-28_17h55.40.018,lexical_decision_task_DD_L5,2021.2.3,Win32,143.2254368,,,,,,,,,,,3.699,1,,,,,,,,,,,,,,,,,,,,,,,,0.29537037,-0.463888889,0,0,0,,,,,,,SWEAT,HB,z,y,./images/SWEATHB.png,,,,,,,,,z,1,3.699,,,,,,,,0,79,79,150,1
,,,,,,,,,,,,,,,,,200479,19,2022-01-28_17h55.40.018,lexical_decision_task_DD_L5,2021.2.3,Win32,143.2254368,,,,,,,,,,,2.0836,1,,,,,,,,,,,,,,,,,,,,,,,,0.29537037,-0.463888889,0,0,0,,,,,,,SAILOR,LB,z,y,./images/SAILORLB.png,,,,,,,,,z,1,2.0836,,,,,,,,0,80,80,151,1
,,,,,,,,,,,,,,,,,200479,19,2022-01-28_17h55.40.018,lexical_decision_task_DD_L5,2021.2.3,Win32,143.2254368,,,,,,,,,,,0.7189,1,,,,,,,,,,,,,,,,,,,,,,,,0.29537037,-0.463888889,0,0,0,,,,,,,SKIING,C,z,y,./images/SKIING.png,,,,,,,,,z,1,0.7189,,,,,,,,0,81,81,101,1
,,,,,,,,,,,,,,,,,200479,19,2022-01-28_17h55.40.018,lexical_decision_task_DD_L5,2021.2.3,Win32,143.2254368,,,,,,,,,,,0.9349,1,,,,,,,,,,,,,,,,,,,,,,,,0.29537037,-0.463888889,0,0,0,,,,,,,WALRUS,C,z,y,./images/WALRUS.png,,,,,,,,,z,1,0.9349,,,,,,,,0,82,82,107,1
,,,,,,,,,,,,,,,,,200479,19,2022-01-28_17h55.40.018,lexical_decision_task_DD_L5,2021.2.3,Win32,143.2254368,,,,,,,,,,,2.7668,1,,,,,,,,,,,,,,,,,,,,,,,,0.057407407,-0.364814815,1,0,0,,,,,,,SMOKER,C,z,y,./images/SMOKER.png,break_done_button,,,,,,,,z,1,2.7668,,,,,,,,0,83,83,110,1
,,,,,,,,,,,,,,,,,200479,19,2022-01-28_17h55.40.018,lexical_decision_task_DD_L5,2021.2.3,Win32,143.2254368,,,,,,,,,,,1.0152,1,,,,,,,,,,,,,,,,,,,,,,,,-0.008333333,-0.298148148,0,0,0,,,,,,,TOWEL,LB,m,y,./images/TOWELLB.png,,,,,,,,,m,1,1.0152,,,,,,,,0,84,84,1,1
,,,,,,,,,,,,,,,,,200479,19,2022-01-28_17h55.40.018,lexical_decision_task_DD_L5,2021.2.3,Win32,143.2254368,,,,,,,,,,,2.6511,1,,,,,,,,,,,,,,,,,,,,,,,,-0.008333333,-0.3,0,0,0,,,,,,,WAGON,LB,m,y,./images/WAGONLB.png,,,,,,,,,m,1,2.6511,,,,,,,,0,85,85,7,1
,,,,,,,,,,,,,,,,,200479,19,2022-01-28_17h55.40.018,lexical_decision_task_DD_L5,2021.2.3,Win32,143.2254368,,,,,,,,,,,2.3676,1,,,,,,,,,,,,,,,,,,,,,,,,-0.008333333,-0.3,0,0,0,,,,,,,CLIFF,C,m,y,./images/CLIFF.png,,,,,,,,,m,1,2.3676,,,,,,,,0,86,86,8,1
,,,,,,,,,,,,,,,,,200479,19,2022-01-28_17h55.40.018,lexical_decision_task_DD_L5,2021.2.3,Win32,143.2254368,,,,,,,,,,,1.1154,1,,,,,,,,,,,,,,,,,,,,,,,,-0.008333333,-0.3,0,0,0,,,,,,,ARTIST,LB,m,y,./images/ARTISTLB.png,,,,,,,,,m,1,1.1154,,,,,,,,0,87,87,61,1
,,,,,,,,,,,,,,,,,200479,19,2022-01-28_17h55.40.018,lexical_decision_task_DD_L5,2021.2.3,Win32,143.2254368,,,,,,,,,,,0.7177,1,,,,,,,,,,,,,,,,,,,,,,,,-0.008333333,-0.3,0,0,0,,,,,,,BUTTER,HB,m,y,./images/BUTTERHB.png,,,,,,,,,m,1,0.7177,,,,,,,,0,88,88,27,1
,,,,,,,,,,,,,,,,,200479,19,2022-01-28_17h55.40.018,lexical_decision_task_DD_L5,2021.2.3,Win32,143.2254368,,,,,,,,,,,0.9487,0,,,,,,,,,,,,,,,,,,,,,,,,-0.008333333,-0.3,0,0,0,,,,,,,SHORE,HB,z,y,./images/SHOREHB.png,,,,,,,,,m,0,0.9487,,,,,,,,0,89,89,96,1
,,,,,,,,,,,,,,,,,200479,19,2022-01-28_17h55.40.018,lexical_decision_task_DD_L5,2021.2.3,Win32,143.2254368,,,,,,,,,,,1.0331,0,,,,,,,,,,,,,,,,,,,,,,,,-0.008333333,-0.3,0,0,0,,,,,,,PLANET,C,m,y,./images/PLANET.png,,,,,,,,,z,0,1.0331,,,,,,,,0,90,90,80,1
,,,,,,,,,,,,,,,,,200479,19,2022-01-28_17h55.40.018,lexical_decision_task_DD_L5,2021.2.3,Win32,143.2254368,,,,,,,,,,,0.7345,1,,,,,,,,,,,,,,,,,,,,,,,,-0.008333333,-0.3,0,0,0,,,,,,,URINE,LB,z,y,./images/URINELB.png,,,,,,,,,z,1,0.7345,,,,,,,,0,91,91,154,1
,,,,,,,,,,,,,,,,,200479,19,2022-01-28_17h55.40.018,lexical_decision_task_DD_L5,2021.2.3,Win32,143.2254368,,,,,,,,,,,0.8169,1,,,,,,,,,,,,,,,,,,,,,,,,-0.008333333,-0.3,0,0,0,,,,,,,BAMBOO,C,m,y,./images/BAMBOO.png,,,,,,,,,m,1,0.8169,,,,,,,,0,92,92,5,1
,,,,,,,,,,,,,,,,,200479,19,2022-01-28_17h55.40.018,lexical_decision_task_DD_L5,2021.2.3,Win32,143.2254368,,,,,,,,,,,1.7999,1,,,,,,,,,,,,,,,,,,,,,,,,-0.008333333,-0.3,0,0,0,,,,,,,PACKET,C,z,y,./images/PACKET.png,,,,,,,,,z,1,1.7999,,,,,,,,0,93,93,140,1
,,,,,,,,,,,,,,,,,200479,19,2022-01-28_17h55.40.018,lexical_decision_task_DD_L5,2021.2.3,Win32,143.2254368,,,,,,,,,,,0.9344,1,,,,,,,,,,,,,,,,,,,,,,,,-0.008333333,-0.3,0,0,0,,,,,,,BUBBLE,C,m,y,./images/BUBBLE.png,,,,,,,,,m,1,0.9344,,,,,,,,0,94,94,71,1
,,,,,,,,,,,,,,,,,200479,19,2022-01-28_17h55.40.018,lexical_decision_task_DD_L5,2021.2.3,Win32,143.2254368,,,,,,,,,,,0.7344,1,,,,,,,,,,,,,,,,,,,,,,,,-0.008333333,-0.3,0,0,0,,,,,,,MOSQUE,LB,z,y,./images/MOSQUELB.png,,,,,,,,,z,1,0.7344,,,,,,,,0,95,95,127,1
,,,,,,,,,,,,,,,,,200479,19,2022-01-28_17h55.40.018,lexical_decision_task_DD_L5,2021.2.3,Win32,143.2254368,,,,,,,,,,,0.7174,1,,,,,,,,,,,,,,,,,,,,,,,,-0.008333333,-0.3,0,0,0,,,,,,,PISTOL,C,m,y,./images/PISTOL.png,,,,,,,,,m,1,0.7174,,,,,,,,0,96,96,29,1
,,,,,,,,,,,,,,,,,200479,19,2022-01-28_17h55.40.018,lexical_decision_task_DD_L5,2021.2.3,Win32,143.2254368,,,,,,,,,,,0.833,1,,,,,,,,,,,,,,,,,,,,,,,,-0.008333333,-0.3,0,0,0,,,,,,,FINGER,HB,z,y,./images/FINGERHB.png,,,,,,,,,z,1,0.833,,,,,,,,0,97,97,87,1
,,,,,,,,,,,,,,,,,200479,19,2022-01-28_17h55.40.018,lexical_decision_task_DD_L5,2021.2.3,Win32,143.2254368,,,,,,,,,,,0.7835,1,,,,,,,,,,,,,,,,,,,,,,,,-0.008333333,-0.3,0,0,0,,,,,,,PIMPLE,C,z,y,./images/PIMPLE.png,,,,,,,,,z,1,0.7835,,,,,,,,0,98,98,155,1
,,,,,,,,,,,,,,,,,200479,19,2022-01-28_17h55.40.018,lexical_decision_task_DD_L5,2021.2.3,Win32,143.2254368,,,,,,,,,,,1.0494,1,,,,,,,,,,,,,,,,,,,,,,,,-0.008333333,-0.3,0,0,0,,,,,,,SPORT,HB,z,y,./images/SPORTHB.png,,,,,,,,,z,1,1.0494,,,,,,,,0,99,99,132,1
,,,,,,,,,,,,,,,,,200479,19,2022-01-28_17h55.40.018,lexical_decision_task_DD_L5,2021.2.3,Win32,143.2254368,,,,,,,,,,,0.9502,1,,,,,,,,,,,,,,,,,,,,,,,,-0.008333333,-0.3,0,0,0,,,,,,,BAKER,HB,m,y,./images/BAKERHB.png,,,,,,,,,m,1,0.9502,,,,,,,,0,100,100,63,1
,,,,,,,,,,,,,,,,,200479,19,2022-01-28_17h55.40.018,lexical_decision_task_DD_L5,2021.2.3,Win32,143.2254368,,,,,,,,,,,1.1841,1,,,,,,,,,,,,,,,,,,,,,,,,-0.008333333,-0.3,0,0,0,,,,,,,BUNNY,LB,m,y,./images/BUNNYLB.png,,,,,,,,,m,1,1.1841,,,,,,,,0,101,101,13,1
,,,,,,,,,,,,,,,,,200479,19,2022-01-28_17h55.40.018,lexical_decision_task_DD_L5,2021.2.3,Win32,143.2254368,,,,,,,,,,,2.049,1,,,,,,,,,,,,,,,,,,,,,,,,-0.008333333,-0.3,0,0,0,,,,,,,CANDY,HB,m,y,./images/CANDYHB.png,,,,,,,,,m,1,2.049,,,,,,,,0,102,102,39,1
,,,,,,,,,,,,,,,,,200479,19,2022-01-28_17h55.40.018,lexical_decision_task_DD_L5,2021.2.3,Win32,143.2254368,,,,,,,,,,,1.5167,0,,,,,,,,,,,,,,,,,,,,,,,,-0.008333333,-0.3,0,0,0,,,,,,,MOTOR,LB,z,y,./images/MOTORLB.png,,,,,,,,,m,0,1.5167,,,,,,,,0,103,103,97,1
,,,,,,,,,,,,,,,,,200479,19,2022-01-28_17h55.40.018,lexical_decision_task_DD_L5,2021.2.3,Win32,143.2254368,,,,,,,,,,,0.632,1,,,,,,,,,,,,,,,,,,,,,,,,-0.008333333,-0.3,0,0,0,,,,,,,BANANA,LB,m,y,./images/BANANALB.png,,,,,,,,,m,1,0.632,,,,,,,,0,104,104,70,1
,,,,,,,,,,,,,,,,,200479,19,2022-01-28_17h55.40.018,lexical_decision_task_DD_L5,2021.2.3,Win32,143.2254368,,,,,,,,,,,1.2848,1,,,,,,,,,,,,,,,,,,,,,,,,-0.008333333,-0.3,0,0,0,,,,,,,PICKLE,C,z,y,./images/PICKLE.png,,,,,,,,,z,1,1.2848,,,,,,,,0,105,105,98,1
,,,,,,,,,,,,,,,,,200479,19,2022-01-28_17h55.40.018,lexical_decision_task_DD_L5,2021.2.3,Win32,143.2254368,,,,,,,,,,,1.7661,1,,,,,,,,,,,,,,,,,,,,,,,,-0.008333333,-0.3,0,0,0,,,,,,,MUMMY,LB,m,y,./images/MUMMYLB.png,,,,,,,,,m,1,1.7661,,,,,,,,0,106,106,46,1
,,,,,,,,,,,,,,,,,200479,19,2022-01-28_17h55.40.018,lexical_decision_task_DD_L5,2021.2.3,Win32,143.2254368,,,,,,,,,,,1.0495,1,,,,,,,,,,,,,,,,,,,,,,,,-0.008333333,-0.3,0,0,0,,,,,,,LAGOON,C,m,y,./images/LAGOON.png,,,,,,,,,m,1,1.0495,,,,,,,,0,107,107,47,1
,,,,,,,,,,,,,,,,,200479,19,2022-01-28_17h55.40.018,lexical_decision_task_DD_L5,2021.2.3,Win32,143.2254368,,,,,,,,,,,0.982,0,,,,,,,,,,,,,,,,,,,,,,,,-0.008333333,-0.3,0,0,0,,,,,,,ONION,HB,z,y,./images/ONIONHB.png,,,,,,,,,m,0,0.982,,,,,,,,0,108,108,135,1
,,,,,,,,,,,,,,,,,200479,19,2022-01-28_17h55.40.018,lexical_decision_task_DD_L5,2021.2.3,Win32,143.2254368,,,,,,,,,,,2.4499,1,,,,,,,,,,,,,,,,,,,,,,,,-0.008333333,-0.3,0,0,0,,,,,,,MALLET,C,z,y,./images/MALLET.png,,,,,,,,,z,1,2.4499,,,,,,,,0,109,109,134,1
,,,,,,,,,,,,,,,,,200479,19,2022-01-28_17h55.40.018,lexical_decision_task_DD_L5,2021.2.3,Win32,143.2254368,,,,,,,,,,,0.9505,1,,,,,,,,,,,,,,,,,,,,,,,,-0.008333333,-0.3,0,0,0,,,,,,,GREASE,HB,z,y,./images/GREASEHB.png,,,,,,,,,z,1,0.9505,,,,,,,,0,110,110,99,1
,,,,,,,,,,,,,,,,,200479,19,2022-01-28_17h55.40.018,lexical_decision_task_DD_L5,2021.2.3,Win32,143.2254368,,,,,,,,,,,0.75,1,,,,,,,,,,,,,,,,,,,,,,,,-0.008333333,-0.3,0,0,0,,,,,,,HEATER,C,m,y,./images/HEATER.png,,,,,,,,,m,1,0.75,,,,,,,,0,111,111,56,1
,,,,,,,,,,,,,,,,,200479,19,2022-01-28_17h55.40.018,lexical_decision_task_DD_L5,2021.2.3,Win32,143.2254368,,,,,,,,,,,0.6828,1,,,,,,,,,,,,,,,,,,,,,,,,-0.008333333,-0.3,0,0,0,,,,,,,FLASK,HB,m,y,./images/FLASKHB.png,,,,,,,,,m,1,0.6828,,,,,,,,0,112,112,72,1
,,,,,,,,,,,,,,,,,200479,19,2022-01-28_17h55.40.018,lexical_decision_task_DD_L5,2021.2.3,Win32,143.2254368,,,,,,,,,,,0.7828,1,,,,,,,,,,,,,,,,,,,,,,,,-0.008333333,-0.3,0,0,0,,,,,,,BONNET,C,z,y,./images/BONNET.png,,,,,,,,,z,1,0.7828,,,,,,,,0,113,113,95,1
,,,,,,,,,,,,,,,,,200479,19,2022-01-28_17h55.40.018,lexical_decision_task_DD_L5,2021.2.3,Win32,143.2254368,,,,,,,,,,,0.8,0,,,,,,,,,,,,,,,,,,,,,,,,-0.008333333,-0.3,0,0,0,,,,,,,CANDLE,LB,z,y,./images/CANDLELB.png,,,,,,,,,m,0,0.8,,,,,,,,0,114,114,145,1
,,,,,,,,,,,,,,,,,200479,19,2022-01-28_17h55.40.018,lexical_decision_task_DD_L5,2021.2.3,Win32,143.2254368,,,,,,,,,,,0.8494,1,,,,,,,,,,,,,,,,,,,,,,,,-0.008333333,-0.3,0,0,0,,,,,,,SUNSET,LB,z,y,./images/SUNSETLB.png,,,,,,,,,z,1,0.8494,,,,,,,,0,115,115,166,1
,,,,,,,,,,,,,,,,,200479,19,2022-01-28_17h55.40.018,lexical_decision_task_DD_L5,2021.2.3,Win32,143.2254368,,,,,,,,,,,0.8506,1,,,,,,,,,,,,,,,,,,,,,,,,-0.008333333,-0.3,0,0,0,,,,,,,STOOL,LB,m,y,./images/STOOLLB.png,,,,,,,,,m,1,0.8506,,,,,,,,0,116,116,43,1
,,,,,,,,,,,,,,,,,200479,19,2022-01-28_17h55.40.018,lexical_decision_task_DD_L5,2021.2.3,Win32,143.2254368,,,,,,,,,,,0.8497,1,,,,,,,,,,,,,,,,,,,,,,,,-0.008333333,-0.3,0,0,0,,,,,,,MAMMAL,C,m,y,./images/MAMMAL.png,,,,,,,,,m,1,0.8497,,,,,,,,0,117,117,62,1
,,,,,,,,,,,,,,,,,200479,19,2022-01-28_17h55.40.018,lexical_decision_task_DD_L5,2021.2.3,Win32,143.2254368,,,,,,,,,,,0.8174,1,,,,,,,,,,,,,,,,,,,,,,,,-0.008333333,-0.3,0,0,0,,,,,,,BLOKE,HB,m,y,./images/BLOKEHB.png,,,,,,,,,m,1,0.8174,,,,,,,,0,118,118,12,1
,,,,,,,,,,,,,,,,,200479,19,2022-01-28_17h55.40.018,lexical_decision_task_DD_L5,2021.2.3,Win32,143.2254368,,,,,,,,,,,1.4012,1,,,,,,,,,,,,,,,,,,,,,,,,-0.008333333,-0.3,0,0,0,,,,,,,MUFFIN,LB,z,y,./images/MUFFINLB.png,,,,,,,,,z,1,1.4012,,,,,,,,0,119,119,139,1
,,,,,,,,,,,,,,,,,200479,19,2022-01-28_17h55.40.018,lexical_decision_task_DD_L5,2021.2.3,Win32,143.2254368,,,,,,,,,,,3.0498,0,,,,,,,,,,,,,,,,,,,,,,,,-0.008333333,-0.3,0,0,0,,,,,,,MELON,LB,z,y,./images/MELONLB.png,,,,,,,,,m,0,3.0498,,,,,,,,0,120,120,106,1
,,,,,,,,,,,,,,,,,200479,19,2022-01-28_17h55.40.018,lexical_decision_task_DD_L5,2021.2.3,Win32,143.2254368,,,,,,,,,,,1.9497,1,,,,,,,,,,,,,,,,,,,,,,,,-0.008333333,-0.3,0,0,0,,,,,,,BASKET,C,m,y,./images/BASKET.png,,,,,,,,,m,1,1.9497,,,,,,,,0,121,121,44,1
,,,,,,,,,,,,,,,,,200479,19,2022-01-28_17h55.40.018,lexical_decision_task_DD_L5,2021.2.3,Win32,143.2254368,,,,,,,,,,,0.7,1,,,,,,,,,,,,,,,,,,,,,,,,-0.008333333,-0.3,0,0,0,,,,,,,DOUGH,LB,z,y,./images/DOUGHLB.png,,,,,,,,,z,1,0.7,,,,,,,,0,122,122,103,1
,,,,,,,,,,,,,,,,,200479,19,2022-01-28_17h55.40.018,lexical_decision_task_DD_L5,2021.2.3,Win32,143.2254368,,,,,,,,,,,1.5003,1,,,,,,,,,,,,,,,,,,,,,,,,-0.008333333,-0.3,0,0,0,,,,,,,CLOUD,C,m,y,./images/CLOUD.png,,,,,,,,,m,1,1.5003,,,,,,,,0,123,123,26,1
,,,,,,,,,,,,,,,,,200479,19,2022-01-28_17h55.40.018,lexical_decision_task_DD_L5,2021.2.3,Win32,143.2254368,,,,,,,,,,,1.0679,1,,,,,,,,,,,,,,,,,,,,,,,,-0.008333333,-0.3,0,0,0,,,,,,,MIDGET,LB,m,y,./images/MIDGETLB.png,,,,,,,,,m,1,1.0679,,,,,,,,0,124,124,76,1
,,,,,,,,,,,,,,,,,200479,19,2022-01-28_17h55.40.018,lexical_decision_task_DD_L5,2021.2.3,Win32,143.2254368,,,,,,,,,,,0.8495,1,,,,,,,,,,,,,,,,,,,,,,,,-0.008333333,-0.3,0,0,0,space,,,,,,GARDEN,LB,m,y,./images/GARDENLB.png,,7.7494,,,,,,,m,1,0.8495,,,,,,,,0,125,125,10,1
,,,,,,,,,,,,,,,,,200479,19,2022-01-28_17h55.40.018,lexical_decision_task_DD_L5,2021.2.3,Win32,143.2254368,,,,,,,,,,,1.0502,1,,,,,,,,,,,,,,,,,,,,,,,,-0.008333333,-0.3,0,0,0,,,,,,,HAMMER,HB,m,y,./images/HAMMERHB.png,,,,,,,,,m,1,1.0502,,,,,,,,0,126,126,75,1
,,,,,,,,,,,,,,,,,200479,19,2022-01-28_17h55.40.018,lexical_decision_task_DD_L5,2021.2.3,Win32,143.2254368,,,,,,,,,,,1.1499,0,,,,,,,,,,,,,,,,,,,,,,,,-0.008333333,-0.3,0,0,0,,,,,,,CRUMB,C,z,y,./images/CRUMB.png,,,,,,,,,m,0,1.1499,,,,,,,,0,127,127,113,1
,,,,,,,,,,,,,,,,,200479,19,2022-01-28_17h55.40.018,lexical_decision_task_DD_L5,2021.2.3,Win32,143.2254368,,,,,,,,,,,1.0172,1,,,,,,,,,,,,,,,,,,,,,,,,-0.008333333,-0.3,0,0,0,,,,,,,DESERT,LB,m,y,./images/DESERTLB.png,,,,,,,,,m,1,1.0172,,,,,,,,0,128,128,52,1
,,,,,,,,,,,,,,,,,200479,19,2022-01-28_17h55.40.018,lexical_decision_task_DD_L5,2021.2.3,Win32,143.2254368,,,,,,,,,,,1.1664,1,,,,,,,,,,,,,,,,,,,,,,,,-0.008333333,-0.3,0,0,0,,,,,,,CANYON,LB,z,y,./images/CANYONLB.png,,,,,,,,,z,1,1.1664,,,,,,,,0,129,129,118,1
,,,,,,,,,,,,,,,,,200479,19,2022-01-28_17h55.40.018,lexical_decision_task_DD_L5,2021.2.3,Win32,143.2254368,,,,,,,,,,,1.2007,1,,,,,,,,,,,,,,,,,,,,,,,,-0.008333333,-0.3,0,0,0,,,,,,,SNACK,LB,z,y,./images/SNACKLB.png,,,,,,,,,z,1,1.2007,,,,,,,,0,130,130,157,1
,,,,,,,,,,,,,,,,,200479,19,2022-01-28_17h55.40.018,lexical_decision_task_DD_L5,2021.2.3,Win32,143.2254368,,,,,,,,,,,1.9171,1,,,,,,,,,,,,,,,,,,,,,,,,-0.008333333,-0.3,0,0,0,,,,,,,SHELF,HB,z,y,./images/SHELFHB.png,,,,,,,,,z,1,1.9171,,,,,,,,0,131,131,123,1
,,,,,,,,,,,,,,,,,200479,19,2022-01-28_17h55.40.018,lexical_decision_task_DD_L5,2021.2.3,Win32,143.2254368,,,,,,,,,,,1.3505,1,,,,,,,,,,,,,,,,,,,,,,,,-0.008333333,-0.3,0,0,0,,,,,,,LIZARD,C,z,y,./images/LIZARD.png,,,,,,,,,z,1,1.3505,,,,,,,,0,132,132,128,1
,,,,,,,,,,,,,,,,,200479,19,2022-01-28_17h55.40.018,lexical_decision_task_DD_L5,2021.2.3,Win32,143.2254368,,,,,,,,,,,2.017,1,,,,,,,,,,,,,,,,,,,,,,,,-0.008333333,-0.3,0,0,0,,,,,,,PASTA,C,z,y,./images/PASTA.png,,,,,,,,,z,1,2.017,,,,,,,,0,133,133,89,1
,,,,,,,,,,,,,,,,,200479,19,2022-01-28_17h55.40.018,lexical_decision_task_DD_L5,2021.2.3,Win32,143.2254368,,,,,,,,,,,1.1504,0,,,,,,,,,,,,,,,,,,,,,,,,-0.008333333,-0.3,0,0,0,,,,,,,PEACH,C,z,y,./images/PEACH.png,,,,,,,,,m,0,1.1504,,,,,,,,0,134,134,119,1
,,,,,,,,,,,,,,,,,200479,19,2022-01-28_17h55.40.018,lexical_decision_task_DD_L5,2021.2.3,Win32,143.2254368,,,,,,,,,,,0.9334,1,,,,,,,,,,,,,,,,,,,,,,,,-0.008333333,-0.3,0,0,0,,,,,,,MUSCLE,LB,z,y,./images/MUSCLELB.png,,,,,,,,,z,1,0.9334,,,,,,,,0,135,135,88,1
,,,,,,,,,,,,,,,,,200479,19,2022-01-28_17h55.40.018,lexical_decision_task_DD_L5,2021.2.3,Win32,143.2254368,,,,,,,,,,,0.9829,1,,,,,,,,,,,,,,,,,,,,,,,,-0.008333333,-0.3,0,0,0,,,,,,,LITTER,HB,z,y,./images/LITTERHB.png,,,,,,,,,z,1,0.9829,,,,,,,,0,136,136,162,1
,,,,,,,,,,,,,,,,,200479,19,2022-01-28_17h55.40.018,lexical_decision_task_DD_L5,2021.2.3,Win32,143.2254368,,,,,,,,,,,0.648,1,,,,,,,,,,,,,,,,,,,,,,,,-0.008333333,-0.3,0,0,0,,,,,,,POKER,LB,m,y,./images/POKERLB.png,,,,,,,,,m,1,0.648,,,,,,,,0,137,137,67,1
,,,,,,,,,,,,,,,,,200479,19,2022-01-28_17h55.40.018,lexical_decision_task_DD_L5,2021.2.3,Win32,143.2254368,,,,,,,,,,,3.8002,1,,,,,,,,,,,,,,,,,,,,,,,,-0.008333333,-0.3,0,0,0,,,,,,,DRUMS,LB,z,y,./images/DRUMSLB.png,,,,,,,,,z,1,3.8002,,,,,,,,0,138,138,133,1
,,,,,,,,,,,,,,,,,200479,19,2022-01-28_17h55.40.018,lexical_decision_task_DD_L5,2021.2.3,Win32,143.2254368,,,,,,,,,,,0.633,1,,,,,,,,,,,,,,,,,,,,,,,,-0.008333333,-0.3,0,0,0,,,,,,,FLESH,HB,m,y,./images/FLESHHB.png,,,,,,,,,m,1,0.633,,,,,,,,0,139,139,24,1
,,,,,,,,,,,,,,,,,200479,19,2022-01-28_17h55.40.018,lexical_decision_task_DD_L5,2021.2.3,Win32,143.2254368,,,,,,,,,,,0.8399,1,,,,,,,,,,,,,,,,,,,,,,,,-0.008333333,-0.3,0,0,0,,,,,,,COOKER,HB,z,y,./images/COOKERHB.png,,,,,,,,,z,1,0.8399,,,,,,,,0,140,140,153,1
,,,,,,,,,,,,,,,,,200479,19,2022-01-28_17h55.40.018,lexical_decision_task_DD_L5,2021.2.3,Win32,143.2254368,,,,,,,,,,,1.4824,0,,,,,,,,,,,,,,,,,,,,,,,,-0.008333333,-0.3,0,0,0,,,,,,,TORCH,C,z,y,./images/TORCH.png,,,,,,,,,m,0,1.4824,,,,,,,,0,141,141,152,1
,,,,,,,,,,,,,,,,,200479,19,2022-01-28_17h55.40.018,lexical_decision_task_DD_L5,2021.2.3,Win32,143.2254368,,,,,,,,,,,0.6678,1,,,,,,,,,,,,,,,,,,,,,,,,-0.008333333,-0.3,0,0,0,,,,,,,MONKEY,HB,m,y,./images/MONKEYHB.png,,,,,,,,,m,1,0.6678,,,,,,,,0,142,142,45,1
,,,,,,,,,,,,,,,,,200479,19,2022-01-28_17h55.40.018,lexical_decision_task_DD_L5,2021.2.3,Win32,143.2254368,,,,,,,,,,,0.8151,1,,,,,,,,,,,,,,,,,,,,,,,,-0.008333333,-0.3,0,0,0,,,,,,,SWING,LB,z,y,./images/SWINGLB.png,,,,,,,,,z,1,0.8151,,,,,,,,0,143,143,124,1
,,,,,,,,,,,,,,,,,200479,19,2022-01-28_17h55.40.018,lexical_decision_task_DD_L5,2021.2.3,Win32,143.2254368,,,,,,,,,,,0.6519,1,,,,,,,,,,,,,,,,,,,,,,,,-0.008333333,-0.3,0,0,0,,,,,,,CASINO,LB,m,y,./images/CASINOLB.png,,,,,,,,,m,1,0.6519,,,,,,,,0,144,144,28,1
,,,,,,,,,,,,,,,,,200479,19,2022-01-28_17h55.40.018,lexical_decision_task_DD_L5,2021.2.3,Win32,143.2254368,,,,,,,,,,,1.4338,0,,,,,,,,,,,,,,,,,,,,,,,,-0.008333333,-0.3,0,0,0,,,,,,,CLOWN,LB,m,y,./images/CLOWNLB.png,,,,,,,,,z,0,1.4338,,,,,,,,0,145,145,22,1
,,,,,,,,,,,,,,,,,200479,19,2022-01-28_17h55.40.018,lexical_decision_task_DD_L5,2021.2.3,Win32,143.2254368,,,,,,,,,,,0.7491,1,,,,,,,,,,,,,,,,,,,,,,,,-0.008333333,-0.3,0,0,0,,,,,,,PILOT,C,m,y,./images/PILOT.png,,,,,,,,,m,1,0.7491,,,,,,,,0,146,146,50,1
,,,,,,,,,,,,,,,,,200479,19,2022-01-28_17h55.40.018,lexical_decision_task_DD_L5,2021.2.3,Win32,143.2254368,,,,,,,,,,,0.8676,1,,,,,,,,,,,,,,,,,,,,,,,,-0.008333333,-0.3,0,0,0,,,,,,,COLLAR,HB,m,y,./images/COLLARHB.png,,,,,,,,,m,1,0.8676,,,,,,,,0,147,147,15,1
,,,,,,,,,,,,,,,,,200479,19,2022-01-28_17h55.40.018,lexical_decision_task_DD_L5,2021.2.3,Win32,143.2254368,,,,,,,,,,,1.3659,0,,,,,,,,,,,,,,,,,,,,,,,,-0.008333333,-0.3,0,0,0,,,,,,,THROAT,HB,z,y,./images/THROATHB.png,,,,,,,,,m,0,1.3659,,,,,,,,0,148,148,120,1
,,,,,,,,,,,,,,,,,200479,19,2022-01-28_17h55.40.018,lexical_decision_task_DD_L5,2021.2.3,Win32,143.2254368,,,,,,,,,,,0.6327,1,,,,,,,,,,,,,,,,,,,,,,,,-0.008333333,-0.3,0,0,0,,,,,,,DRILL,HB,m,y,./images/DRILLHB.png,,,,,,,,,m,1,0.6327,,,,,,,,0,149,149,81,1
,,,,,,,,,,,,,,,,,200479,19,2022-01-28_17h55.40.018,lexical_decision_task_DD_L5,2021.2.3,Win32,143.2254368,,,,,,,,,,,2.2671,1,,,,,,,,,,,,,,,,,,,,,,,,-0.008333333,-0.3,0,0,0,,,,,,,TRIPOD,HB,z,y,./images/TRIPODHB.png,,,,,,,,,z,1,2.2671,,,,,,,,0,150,150,138,1
,,,,,,,,,,,,,,,,,200479,19,2022-01-28_17h55.40.018,lexical_decision_task_DD_L5,2021.2.3,Win32,143.2254368,,,,,,,,,,,1.282,0,,,,,,,,,,,,,,,,,,,,,,,,-0.008333333,-0.3,0,0,0,,,,,,,SNAKE,LB,m,y,./images/SNAKELB.png,,,,,,,,,z,0,1.282,,,,,,,,0,151,151,40,1
,,,,,,,,,,,,,,,,,200479,19,2022-01-28_17h55.40.018,lexical_decision_task_DD_L5,2021.2.3,Win32,143.2254368,,,,,,,,,,,0.7661,1,,,,,,,,,,,,,,,,,,,,,,,,-0.008333333,-0.3,0,0,0,,,,,,,CRATER,HB,m,y,./images/CRATERHB.png,,,,,,,,,m,1,0.7661,,,,,,,,0,152,152,3,1
,,,,,,,,,,,,,,,,,200479,19,2022-01-28_17h55.40.018,lexical_decision_task_DD_L5,2021.2.3,Win32,143.2254368,,,,,,,,,,,1.1168,1,,,,,,,,,,,,,,,,,,,,,,,,-0.008333333,-0.3,0,0,0,,,,,,,CHALK,LB,m,y,./images/CHALKLB.png,,,,,,,,,m,1,1.1168,,,,,,,,0,153,153,25,1
,,,,,,,,,,,,,,,,,200479,19,2022-01-28_17h55.40.018,lexical_decision_task_DD_L5,2021.2.3,Win32,143.2254368,,,,,,,,,,,1.1521,1,,,,,,,,,,,,,,,,,,,,,,,,-0.008333333,-0.3,0,0,0,,,,,,,SPINE,C,m,y,./images/SPINE.png,,,,,,,,,m,1,1.1521,,,,,,,,0,154,154,65,1
,,,,,,,,,,,,,,,,,200479,19,2022-01-28_17h55.40.018,lexical_decision_task_DD_L5,2021.2.3,Win32,143.2254368,,,,,,,,,,,0.6003,1,,,,,,,,,,,,,,,,,,,,,,,,-0.008333333,-0.3,0,0,0,,,,,,,BRUSH,C,m,y,./images/BRUSH.png,,,,,,,,,m,1,0.6003,,,,,,,,0,155,155,59,1
,,,,,,,,,,,,,,,,,200479,19,2022-01-28_17h55.40.018,lexical_decision_task_DD_L5,2021.2.3,Win32,143.2254368,,,,,,,,,,,0.849,1,,,,,,,,,,,,,,,,,,,,,,,,-0.008333333,-0.3,0,0,0,,,,,,,QUILL,LB,z,y,./images/QUILLLB.png,,,,,,,,,z,1,0.849,,,,,,,,0,156,156,115,1
,,,,,,,,,,,,,,,,,200479,19,2022-01-28_17h55.40.018,lexical_decision_task_DD_L5,2021.2.3,Win32,143.2254368,,,,,,,,,,,0.6158,1,,,,,,,,,,,,,,,,,,,,,,,,-0.008333333,-0.3,0,0,0,,,,,,,JUMPER,C,m,y,./images/JUMPER.png,,,,,,,,,m,1,0.6158,,,,,,,,0,157,157,74,1
,,,,,,,,,,,,,,,,,200479,19,2022-01-28_17h55.40.018,lexical_decision_task_DD_L5,2021.2.3,Win32,143.2254368,,,,,,,,,,,0.5149,1,,,,,,,,,,,,,,,,,,,,,,,,-0.008333333,-0.3,0,0,0,,,,,,,GRAPE,LB,m,y,./images/GRAPELB.png,,,,,,,,,m,1,0.5149,,,,,,,,0,158,158,16,1
,,,,,,,,,,,,,,,,,200479,19,2022-01-28_17h55.40.018,lexical_decision_task_DD_L5,2021.2.3,Win32,143.2254368,,,,,,,,,,,1.7,1,,,,,,,,,,,,,,,,,,,,,,,,-0.008333333,-0.3,0,0,0,,,,,,,LADDER,C,z,y,./images/LADDER.png,,,,,,,,,z,1,1.7,,,,,,,,0,159,159,122,1
,,,,,,,,,,,,,,,,,200479,19,2022-01-28_17h55.40.018,lexical_decision_task_DD_L5,2021.2.3,Win32,143.2254368,,,,,,,,,,,0.8682,1,,,,,,,,,,,,,,,,,,,,,,,,-0.008333333,-0.3,0,0,0,,,,,,,CANOE,LB,m,y,./images/CANOELB.png,,,,,,,,,m,1,0.8682,,,,,,,,0,160,160,58,1
,,,,,,,,,,,,,,,,,200479,19,2022-01-28_17h55.40.018,lexical_decision_task_DD_L5,2021.2.3,Win32,143.2254368,,,,,,,,,,,2.0985,1,,,,,,,,,,,,,,,,,,,,,,,,-0.008333333,-0.3,0,0,0,,,,,,,BURIAL,C,z,y,./images/BURIAL.png,,,,,,,,,z,1,2.0985,,,,,,,,0,161,161,143,1
,,,,,,,,,,,,,,,,,200479,19,2022-01-28_17h55.40.018,lexical_decision_task_DD_L5,2021.2.3,Win32,143.2254368,,,,,,,,,,,1.2344,1,,,,,,,,,,,,,,,,,,,,,,,,-0.008333333,-0.3,0,0,0,,,,,,,DIVER,HB,m,y,./images/DIVERHB.png,,,,,,,,,m,1,1.2344,,,,,,,,0,162,162,9,1
,,,,,,,,,,,,,,,,,200479,19,2022-01-28_17h55.40.018,lexical_decision_task_DD_L5,2021.2.3,Win32,143.2254368,,,,,,,,,,,1.2983,1,,,,,,,,,,,,,,,,,,,,,,,,-0.008333333,-0.3,0,0,0,,,,,,,STOVE,C,m,y,./images/STOVE.png,,,,,,,,,m,1,1.2983,,,,,,,,0,163,163,2,1
,,,,,,,,,,,,,,,,,200479,19,2022-01-28_17h55.40.018,lexical_decision_task_DD_L5,2021.2.3,Win32,143.2254368,,,,,,,,,,,1.6653,1,,,,,,,,,,,,,,,,,,,,,,,,-0.008333333,-0.3,0,0,0,,,,,,,CEMENT,C,z,y,./images/CEMENT.png,,,,,,,,,z,1,1.6653,,,,,,,,0,164,164,158,1
,,,,,,,,,,,,,,,,,200479,19,2022-01-28_17h55.40.018,lexical_decision_task_DD_L5,2021.2.3,Win32,143.2254368,,,,,,,,,,,1.3652,1,,,,,,,,,,,,,,,,,,,,,,,,-0.008333333,-0.3,0,0,0,,,,,,,ATTIC,HB,z,y,./images/ATTICHB.png,,,,,,,,,z,1,1.3652,,,,,,,,0,165,165,111,1
,,,,,,,,,,,,,,,,,200479,19,2022-01-28_17h55.40.018,lexical_decision_task_DD_L5,2021.2.3,Win32,143.2254368,,,,,,,,,,,1.917,1,,,,,,,,,,,,,,,,,,,,,,,,-0.008333333,-0.3,0,0,0,,,,,,,GLOVE,LB,m,y,./images/GLOVELB.png,,,,,,,,,m,1,1.917,,,,,,,,0,166,166,73,1
,,,,,,,,,,,,,,,,,200479,19,2022-01-28_17h55.40.018,lexical_decision_task_DD_L5,2021.2.3,Win32,143.2254368,,,,,,,,,,,1.033,1,,,,,,,,,,,,,,,,,,,,,,,,-0.008333333,-0.3,0,0,0,,,,,,,INFANT,LB,z,y,./images/INFANTLB.png,,,,,,,,,z,1,1.033,,,,,,,,0,167,167,160,1
