key_resp.keys,instr_done_touch.x,instr_done_touch.y,instr_done_touch.leftButton,instr_done_touch.midButton,instr_done_touch.rightButton,instr_done_touch.clicked_name,instruction_pages.thisRepN,instruction_pages.thisTrialN,instruction_pages.thisN,instruction_pages.thisIndex,instruction_pages.ran,pageN,phase,instruct_text,has_image,instruct_image,participant,age,date,expName,psychopyVersion,OS,frameRate,key_resp.rt,response.keys,response.corr,response.rt,touch_resp.x,touch_resp.y,touch_resp.leftButton,touch_resp.midButton,touch_resp.rightButton,touch_resp.time,touch_resp.clicked_name,rt,corr,practrials.thisRepN,practrials.thisTrialN,practrials.thisN,practrials.thisIndex,practrials.ran,TrialID,Target,corrAns,end_of_practice_trials_pages.thisRepN,end_of_practice_trials_pages.thisTrialN,end_of_practice_trials_pages.thisN,end_of_practice_trials_pages.thisIndex,end_of_practice_trials_pages.ran,key_resp_2.keys,key_resp_2.corr,key_resp_2.rt,targ_click.x,targ_click.y,targ_click.leftButton,targ_click.midButton,targ_click.rightButton,targ_click.time,targ_click.clicked_name,break_done_touch.x,break_done_touch.y,break_done_touch.leftButton,break_done_touch.midButton,break_done_touch.rightButton,break_done_keyboard.keys,maintrials.thisRepN,maintrials.thisTrialN,maintrials.thisN,maintrials.thisIndex,maintrials.ran,string,blur,study,lex,stim_path,break_done_touch.clicked_name,test_instructions.thisRepN,test_instructions.thisTrialN,test_instructions.thisN,test_instructions.thisIndex,test_instructions.ran,key_resp_3.keys,key_resp_3.corr,key_resp_3.rt,test_click.x,test_click.y,test_click.leftButton,test_click.midButton,test_click.rightButton,test_click.time,test_click.clicked_name,test_phase.thisRepN,test_phase.thisTrialN,test_phase.thisN,test_phase.thisIndex,test_phase.ran
,-0.006510417,-0.415364583,1,0,0,instr_done_button,0,0,0,0,1,1,instructions,"INSTRUCTIONS
At the start of each trial, look at the plus sign  (+) in the center of the screen.  This tells you that a trial is about to begin and where to look. Second, the plus sign will disappear and a string of letters will appear. Your task is to determine if the string of letters is a word or not. If the item is a word press the M key (on keyboard)  or touch the word button (phone/tablet).  If the item is not a word,  press the  Z key (on keyboard)  or touch the nonword button (on phone/tablet). 
Press the space bar or touch  continue.",0,,200425,18,2022-01-28_15h48.26.294,lexical_decision_task_DD_L6,2021.2.3,Win32,59.01097604,,,,,,,,,,,,,,,,,,,,,,,,,,,,,,,,,,,,,,,,,,,,,,,,,,,,,,,,,,,,,,,,,,,,,,,,,
space,-0.006510417,-0.415364583,0,0,0,,0,1,1,1,1,2,instructions,"If your device has a keyboard, press the 'Z' key for nonwords and the 'M' key for words.





Press the space bar or touch the button below to continue.",0,keyboard-example.gif,200425,18,2022-01-28_15h48.26.294,lexical_decision_task_DD_L6,2021.2.3,Win32,59.01097604,5.8443,,,,,,,,,,,,,,,,,,,,,,,,,,,,,,,,,,,,,,,,,,,,,,,,,,,,,,,,,,,,,,,,,,,,,,,,
space,-0.006510417,-0.415364583,0,0,0,,0,2,2,2,1,3,instructions,"If you are using a touchscreen only device, use the buttons on the screen. Do not use the mouse.





Press the space bar or touch the button below to continue.",0,touchscreen-example.gif,200425,18,2022-01-28_15h48.26.294,lexical_decision_task_DD_L6,2021.2.3,Win32,59.01097604,5.6665,,,,,,,,,,,,,,,,,,,,,,,,,,,,,,,,,,,,,,,,,,,,,,,,,,,,,,,,,,,,,,,,,,,,,,,,
space,-0.006510417,-0.415364583,0,0,0,,0,3,3,3,1,4,instructions,"It is very important that you respond as quickly and accurately as possible, as each letter string will only be on the screen for two seconds. If you do not respond within this time, the message 'Too slow!' will be displayed and the experiment will progress to the next letter string. The first 20 trials will be practice trials and you will receive feedback on your answers. 

Press the space bar or touch the button below to start the practice trials.",0,,200425,18,2022-01-28_15h48.26.294,lexical_decision_task_DD_L6,2021.2.3,Win32,59.01097604,3.5309,,,,,,,,,,,,,,,,,,,,,,,,,,,,,,,,,,,,,,,,,,,,,,,,,,,,,,,,,,,,,,,,,,,,,,,,
,,,,,,,,,,,,,,,,,200425,18,2022-01-28_15h48.26.294,lexical_decision_task_DD_L6,2021.2.3,Win32,59.01097604,,m,1,2.5883,,,,,,,,2.5883,1,0,0,0,7,1,1001,VOLUME,m,,,,,,,,,,,,,,,,,,,,,,,,,,,,,,,,,,,,,,,,,,,,,,,,,,,,
,,,,,,,,,,,,,,,,,200425,18,2022-01-28_15h48.26.294,lexical_decision_task_DD_L6,2021.2.3,Win32,59.01097604,,m,1,1.7969,,,,,,,,1.7969,1,0,1,1,4,1,1001,SQUEAK,m,,,,,,,,,,,,,,,,,,,,,,,,,,,,,,,,,,,,,,,,,,,,,,,,,,,,
,,,,,,,,,,,,,,,,,200425,18,2022-01-28_15h48.26.294,lexical_decision_task_DD_L6,2021.2.3,Win32,59.01097604,,z,1,1.5669,,,,,,,,1.5669,1,0,2,2,10,1,1001,INLADE,z,,,,,,,,,,,,,,,,,,,,,,,,,,,,,,,,,,,,,,,,,,,,,,,,,,,,
,,,,,,,,,,,,,,,,,200425,18,2022-01-28_15h48.26.294,lexical_decision_task_DD_L6,2021.2.3,Win32,59.01097604,,m,1,0.9783,,,,,,,,0.9783,1,0,3,3,3,1,1001,MATRIX,m,,,,,,,,,,,,,,,,,,,,,,,,,,,,,,,,,,,,,,,,,,,,,,,,,,,,
,,,,,,,,,,,,,,,,,200425,18,2022-01-28_15h48.26.294,lexical_decision_task_DD_L6,2021.2.3,Win32,59.01097604,,m,0,1.0946,,,,,,,,1.0946,0,0,4,4,12,1,1001,SPRINY,z,,,,,,,,,,,,,,,,,,,,,,,,,,,,,,,,,,,,,,,,,,,,,,,,,,,,
,,,,,,,,,,,,,,,,,200425,18,2022-01-28_15h48.26.294,lexical_decision_task_DD_L6,2021.2.3,Win32,59.01097604,,z,1,1.9677,,,,,,,,1.9677,1,0,5,5,14,1,1001,THRALE,z,,,,,,,,,,,,,,,,,,,,,,,,,,,,,,,,,,,,,,,,,,,,,,,,,,,,
,,,,,,,,,,,,,,,,,200425,18,2022-01-28_15h48.26.294,lexical_decision_task_DD_L6,2021.2.3,Win32,59.01097604,,m,1,2.0741,,,,,,,,2.0741,1,0,6,6,5,1,1001,OBTAIN,m,,,,,,,,,,,,,,,,,,,,,,,,,,,,,,,,,,,,,,,,,,,,,,,,,,,,
,,,,,,,,,,,,,,,,,200425,18,2022-01-28_15h48.26.294,lexical_decision_task_DD_L6,2021.2.3,Win32,59.01097604,,z,1,2.982,,,,,,,,2.982,1,0,7,7,13,1,1001,ROUPET,z,,,,,,,,,,,,,,,,,,,,,,,,,,,,,,,,,,,,,,,,,,,,,,,,,,,,
,,,,,,,,,,,,,,,,,200425,18,2022-01-28_15h48.26.294,lexical_decision_task_DD_L6,2021.2.3,Win32,59.01097604,,m,1,1.0085,,,,,,,,1.0085,1,0,8,8,2,1,1001,ALMOND,m,,,,,,,,,,,,,,,,,,,,,,,,,,,,,,,,,,,,,,,,,,,,,,,,,,,,
,,,,,,,,,,,,,,,,,200425,18,2022-01-28_15h48.26.294,lexical_decision_task_DD_L6,2021.2.3,Win32,59.01097604,,z,1,1.5007,,,,,,,,1.5007,1,0,9,9,8,1,1001,ASLERT,z,,,,,,,,,,,,,,,,,,,,,,,,,,,,,,,,,,,,,,,,,,,,,,,,,,,,
,,,,,,,,,,,,,,,,,200425,18,2022-01-28_15h48.26.294,lexical_decision_task_DD_L6,2021.2.3,Win32,59.01097604,,m,1,0.6956,,,,,,,,0.6956,1,0,10,10,0,1,1001,UTOPIA,m,,,,,,,,,,,,,,,,,,,,,,,,,,,,,,,,,,,,,,,,,,,,,,,,,,,,
,,,,,,,,,,,,,,,,,200425,18,2022-01-28_15h48.26.294,lexical_decision_task_DD_L6,2021.2.3,Win32,59.01097604,,z,1,1.3927,,,,,,,,1.3927,1,0,11,11,9,1,1001,FARINY,z,,,,,,,,,,,,,,,,,,,,,,,,,,,,,,,,,,,,,,,,,,,,,,,,,,,,
,,,,,,,,,,,,,,,,,200425,18,2022-01-28_15h48.26.294,lexical_decision_task_DD_L6,2021.2.3,Win32,59.01097604,,z,1,2.5969,,,,,,,,2.5969,1,0,12,12,15,1,1001,WHAISE,z,,,,,,,,,,,,,,,,,,,,,,,,,,,,,,,,,,,,,,,,,,,,,,,,,,,,
,,,,,,,,,,,,,,,,,200425,18,2022-01-28_15h48.26.294,lexical_decision_task_DD_L6,2021.2.3,Win32,59.01097604,,z,1,1.8219,,,,,,,,1.8219,1,0,13,13,11,1,1001,RASHET,z,,,,,,,,,,,,,,,,,,,,,,,,,,,,,,,,,,,,,,,,,,,,,,,,,,,,
,,,,,,,,,,,,,,,,,200425,18,2022-01-28_15h48.26.294,lexical_decision_task_DD_L6,2021.2.3,Win32,59.01097604,,m,1,0.7152,,,,,,,,0.7152,1,0,14,14,6,1,1001,ZOMBIE,m,,,,,,,,,,,,,,,,,,,,,,,,,,,,,,,,,,,,,,,,,,,,,,,,,,,,
,,,,,,,,,,,,,,,,,200425,18,2022-01-28_15h48.26.294,lexical_decision_task_DD_L6,2021.2.3,Win32,59.01097604,,m,1,0.6324,,,,,,,,0.6324,1,0,15,15,1,1,1001,ADJUST,m,,,,,,,,,,,,,,,,,,,,,,,,,,,,,,,,,,,,,,,,,,,,,,,,,,,,
,-0.006510417,-0.415364583,1,0,0,instr_done_button,,,,,,1,end_of_practice,"You have completed the practice trials. During the experimental trials, you will not receive feedback. 
Before you begin, please ensure that you are in a comfortable and quiet location and will not be disturbed for about 15 minutes, as we cannot use your data if you do not complete all the trials. 
 When you are ready to start the experimental trials, please press space or touch the button below.",,,200425,18,2022-01-28_15h48.26.294,lexical_decision_task_DD_L6,2021.2.3,Win32,59.01097604,,,,,,,,,,,,,,,,,,,,,,0,0,0,0,1,,,,,,,,,,,,,,,,,,,,,,,,,,,,,,,,,,,,,,,,,,,,,,,
,,,,,,,,,,,,,,,,,200425,18,2022-01-28_15h48.26.294,lexical_decision_task_DD_L6,2021.2.3,Win32,59.01097604,,,,,,,,,,,,2.4761,0,,,,,,,,,,,,,,m,0,2.4761,,,,,,,,-0.006510417,-0.415364583,0,0,0,,0,0,0,110,1,CRUNK,LB,old,z,./images/CRUNKLB.png,,,,,,,,,,,,,,,,,,,,,
,,,,,,,,,,,,,,,,,200425,18,2022-01-28_15h48.26.294,lexical_decision_task_DD_L6,2021.2.3,Win32,59.01097604,,,,,,,,,,,,0.7761,1,,,,,,,,,,,,,,m,1,0.7761,,,,,,,,-0.006510417,-0.415364583,0,0,0,,0,1,1,15,1,COLLAR,LB,old,m,./images/COLLARLB.png,,,,,,,,,,,,,,,,,,,,,
,,,,,,,,,,,,,,,,,200425,18,2022-01-28_15h48.26.294,lexical_decision_task_DD_L6,2021.2.3,Win32,59.01097604,,,,,,,,,,,,1.0196,1,,,,,,,,,,,,,,m,1,1.0196,,,,,,,,-0.006510417,-0.415364583,0,0,0,,0,2,2,32,1,HOCKEY,HB,old,m,./images/HOCKEYHB.png,,,,,,,,,,,,,,,,,,,,,
,,,,,,,,,,,,,,,,,200425,18,2022-01-28_15h48.26.294,lexical_decision_task_DD_L6,2021.2.3,Win32,59.01097604,,,,,,,,,,,,0.9842,1,,,,,,,,,,,,,,m,1,0.9842,,,,,,,,-0.006510417,-0.415364583,0,0,0,,0,3,3,50,1,PILOT,HB,old,m,./images/PILOTHB.png,,,,,,,,,,,,,,,,,,,,,
,,,,,,,,,,,,,,,,,200425,18,2022-01-28_15h48.26.294,lexical_decision_task_DD_L6,2021.2.3,Win32,59.01097604,,,,,,,,,,,,1.1413,1,,,,,,,,,,,,,,z,1,1.1413,,,,,,,,-0.006510417,-0.415364583,0,0,0,,0,4,4,140,1,DOVET,LB,old,z,./images/DOVETLB.png,,,,,,,,,,,,,,,,,,,,,
,,,,,,,,,,,,,,,,,200425,18,2022-01-28_15h48.26.294,lexical_decision_task_DD_L6,2021.2.3,Win32,59.01097604,,,,,,,,,,,,2.0193,0,,,,,,,,,,,,,,m,0,2.0193,,,,,,,,-0.006510417,-0.415364583,0,0,0,,0,5,5,142,1,PLASK,HB,old,z,./images/PLASKHB.png,,,,,,,,,,,,,,,,,,,,,
,,,,,,,,,,,,,,,,,200425,18,2022-01-28_15h48.26.294,lexical_decision_task_DD_L6,2021.2.3,Win32,59.01097604,,,,,,,,,,,,1.2307,1,,,,,,,,,,,,,,z,1,1.2307,,,,,,,,-0.006510417,-0.415364583,0,0,0,,0,6,6,102,1,DULLE,C,old,z,./images/DULLE.png,,,,,,,,,,,,,,,,,,,,,
,,,,,,,,,,,,,,,,,200425,18,2022-01-28_15h48.26.294,lexical_decision_task_DD_L6,2021.2.3,Win32,59.01097604,,,,,,,,,,,,1.0824,1,,,,,,,,,,,,,,m,1,1.0824,,,,,,,,-0.006510417,-0.415364583,0,0,0,,0,7,7,52,1,DESERT,C,old,m,./images/DESERT.png,,,,,,,,,,,,,,,,,,,,,
,,,,,,,,,,,,,,,,,200425,18,2022-01-28_15h48.26.294,lexical_decision_task_DD_L6,2021.2.3,Win32,59.01097604,,,,,,,,,,,,1.861,1,,,,,,,,,,,,,,z,1,1.861,,,,,,,,-0.006510417,-0.415364583,0,0,0,,0,8,8,157,1,INLER,HB,old,z,./images/INLERHB.png,,,,,,,,,,,,,,,,,,,,,
,,,,,,,,,,,,,,,,,200425,18,2022-01-28_15h48.26.294,lexical_decision_task_DD_L6,2021.2.3,Win32,59.01097604,,,,,,,,,,,,0.9085,1,,,,,,,,,,,,,,z,1,0.9085,,,,,,,,-0.006510417,-0.415364583,0,0,0,,0,9,9,141,1,PLEET,C,old,z,./images/PLEET.png,,,,,,,,,,,,,,,,,,,,,
,,,,,,,,,,,,,,,,,200425,18,2022-01-28_15h48.26.294,lexical_decision_task_DD_L6,2021.2.3,Win32,59.01097604,,,,,,,,,,,,0.7042,1,,,,,,,,,,,,,,m,1,0.7042,,,,,,,,-0.006510417,-0.415364583,0,0,0,,0,10,10,58,1,CANOE,C,old,m,./images/CANOE.png,,,,,,,,,,,,,,,,,,,,,
,,,,,,,,,,,,,,,,,200425,18,2022-01-28_15h48.26.294,lexical_decision_task_DD_L6,2021.2.3,Win32,59.01097604,,,,,,,,,,,,1.4781,1,,,,,,,,,,,,,,z,1,1.4781,,,,,,,,-0.006510417,-0.415364583,0,0,0,,0,11,11,127,1,NINDY,HB,old,z,./images/NINDYHB.png,,,,,,,,,,,,,,,,,,,,,
,,,,,,,,,,,,,,,,,200425,18,2022-01-28_15h48.26.294,lexical_decision_task_DD_L6,2021.2.3,Win32,59.01097604,,,,,,,,,,,,0.6045,1,,,,,,,,,,,,,,m,1,0.6045,,,,,,,,-0.006510417,-0.415364583,0,0,0,,0,12,12,66,1,STATUE,LB,old,m,./images/STATUELB.png,,,,,,,,,,,,,,,,,,,,,
,,,,,,,,,,,,,,,,,200425,18,2022-01-28_15h48.26.294,lexical_decision_task_DD_L6,2021.2.3,Win32,59.01097604,,,,,,,,,,,,0.6534,1,,,,,,,,,,,,,,m,1,0.6534,,,,,,,,-0.006510417,-0.415364583,0,0,0,,0,13,13,26,1,CLOUD,HB,old,m,./images/CLOUDHB.png,,,,,,,,,,,,,,,,,,,,,
,,,,,,,,,,,,,,,,,200425,18,2022-01-28_15h48.26.294,lexical_decision_task_DD_L6,2021.2.3,Win32,59.01097604,,,,,,,,,,,,0.6638,1,,,,,,,,,,,,,,m,1,0.6638,,,,,,,,-0.006510417,-0.415364583,0,0,0,,0,14,14,57,1,FERRY,LB,old,m,./images/FERRYLB.png,,,,,,,,,,,,,,,,,,,,,
,,,,,,,,,,,,,,,,,200425,18,2022-01-28_15h48.26.294,lexical_decision_task_DD_L6,2021.2.3,Win32,59.01097604,,,,,,,,,,,,1.1663,1,,,,,,,,,,,,,,m,1,1.1663,,,,,,,,-0.006510417,-0.415364583,0,0,0,,0,15,15,77,1,WHEEL,HB,old,m,./images/WHEELHB.png,,,,,,,,,,,,,,,,,,,,,
,,,,,,,,,,,,,,,,,200425,18,2022-01-28_15h48.26.294,lexical_decision_task_DD_L6,2021.2.3,Win32,59.01097604,,,,,,,,,,,,0.8752,1,,,,,,,,,,,,,,z,1,0.8752,,,,,,,,-0.006510417,-0.415364583,0,0,0,,0,16,16,114,1,RIKES,C,old,z,./images/RIKES.png,,,,,,,,,,,,,,,,,,,,,
,,,,,,,,,,,,,,,,,200425,18,2022-01-28_15h48.26.294,lexical_decision_task_DD_L6,2021.2.3,Win32,59.01097604,,,,,,,,,,,,0.6239,1,,,,,,,,,,,,,,m,1,0.6239,,,,,,,,-0.006510417,-0.415364583,0,0,0,,0,17,17,33,1,SAUNA,LB,old,m,./images/SAUNALB.png,,,,,,,,,,,,,,,,,,,,,
,,,,,,,,,,,,,,,,,200425,18,2022-01-28_15h48.26.294,lexical_decision_task_DD_L6,2021.2.3,Win32,59.01097604,,,,,,,,,,,,1.6623,1,,,,,,,,,,,,,,z,1,1.6623,,,,,,,,-0.006510417,-0.415364583,0,0,0,,0,18,18,85,1,CHULK,HB,old,z,./images/CHULKHB.png,,,,,,,,,,,,,,,,,,,,,
,,,,,,,,,,,,,,,,,200425,18,2022-01-28_15h48.26.294,lexical_decision_task_DD_L6,2021.2.3,Win32,59.01097604,,,,,,,,,,,,0.6151,1,,,,,,,,,,,,,,m,1,0.6151,,,,,,,,-0.006510417,-0.415364583,0,0,0,,0,19,19,30,1,SLOPE,LB,old,m,./images/SLOPELB.png,,,,,,,,,,,,,,,,,,,,,
,,,,,,,,,,,,,,,,,200425,18,2022-01-28_15h48.26.294,lexical_decision_task_DD_L6,2021.2.3,Win32,59.01097604,,,,,,,,,,,,0.5697,1,,,,,,,,,,,,,,m,1,0.5697,,,,,,,,-0.006510417,-0.415364583,0,0,0,,0,20,20,24,1,FLESH,LB,old,m,./images/FLESHLB.png,,,,,,,,,,,,,,,,,,,,,
,,,,,,,,,,,,,,,,,200425,18,2022-01-28_15h48.26.294,lexical_decision_task_DD_L6,2021.2.3,Win32,59.01097604,,,,,,,,,,,,0.7537,1,,,,,,,,,,,,,,m,1,0.7537,,,,,,,,-0.006510417,-0.415364583,0,0,0,,0,21,21,69,1,ARROW,LB,old,m,./images/ARROWLB.png,,,,,,,,,,,,,,,,,,,,,
,,,,,,,,,,,,,,,,,200425,18,2022-01-28_15h48.26.294,lexical_decision_task_DD_L6,2021.2.3,Win32,59.01097604,,,,,,,,,,,,0.9988,1,,,,,,,,,,,,,,m,1,0.9988,,,,,,,,-0.006510417,-0.415364583,0,0,0,,0,22,22,34,1,RAZOR,C,old,m,./images/RAZOR.png,,,,,,,,,,,,,,,,,,,,,
,,,,,,,,,,,,,,,,,200425,18,2022-01-28_15h48.26.294,lexical_decision_task_DD_L6,2021.2.3,Win32,59.01097604,,,,,,,,,,,,1.0659,1,,,,,,,,,,,,,,z,1,1.0659,,,,,,,,-0.006510417,-0.415364583,0,0,0,,0,23,23,129,1,PRANS,C,old,z,./images/PRANS.png,,,,,,,,,,,,,,,,,,,,,
,,,,,,,,,,,,,,,,,200425,18,2022-01-28_15h48.26.294,lexical_decision_task_DD_L6,2021.2.3,Win32,59.01097604,,,,,,,,,,,,0.946,1,,,,,,,,,,,,,,z,1,0.946,,,,,,,,-0.006510417,-0.415364583,0,0,0,,0,24,24,155,1,CANGY,LB,old,z,./images/CANGYLB.png,,,,,,,,,,,,,,,,,,,,,
,,,,,,,,,,,,,,,,,200425,18,2022-01-28_15h48.26.294,lexical_decision_task_DD_L6,2021.2.3,Win32,59.01097604,,,,,,,,,,,,0.797,1,,,,,,,,,,,,,,z,1,0.797,,,,,,,,-0.006510417,-0.415364583,0,0,0,,0,25,25,96,1,KEAMS,C,old,z,./images/KEAMS.png,,,,,,,,,,,,,,,,,,,,,
,,,,,,,,,,,,,,,,,200425,18,2022-01-28_15h48.26.294,lexical_decision_task_DD_L6,2021.2.3,Win32,59.01097604,,,,,,,,,,,,1.1834,1,,,,,,,,,,,,,,z,1,1.1834,,,,,,,,-0.006510417,-0.415364583,0,0,0,,0,26,26,164,1,SGREW,LB,old,z,./images/SGREWLB.png,,,,,,,,,,,,,,,,,,,,,
,,,,,,,,,,,,,,,,,200425,18,2022-01-28_15h48.26.294,lexical_decision_task_DD_L6,2021.2.3,Win32,59.01097604,,,,,,,,,,,,3.2601,1,,,,,,,,,,,,,,z,1,3.2601,,,,,,,,-0.006510417,-0.415364583,0,0,0,,0,27,27,145,1,LAMEL,HB,old,z,./images/LAMELHB.png,,,,,,,,,,,,,,,,,,,,,
,,,,,,,,,,,,,,,,,200425,18,2022-01-28_15h48.26.294,lexical_decision_task_DD_L6,2021.2.3,Win32,59.01097604,,,,,,,,,,,,0.7879,1,,,,,,,,,,,,,,m,1,0.7879,,,,,,,,-0.006510417,-0.415364583,0,0,0,,0,28,28,38,1,ENGINE,HB,old,m,./images/ENGINEHB.png,,,,,,,,,,,,,,,,,,,,,
,,,,,,,,,,,,,,,,,200425,18,2022-01-28_15h48.26.294,lexical_decision_task_DD_L6,2021.2.3,Win32,59.01097604,,,,,,,,,,,,0.7839,1,,,,,,,,,,,,,,z,1,0.7839,,,,,,,,-0.006510417,-0.415364583,0,0,0,,0,29,29,119,1,PAFER,LB,old,z,./images/PAFERLB.png,,,,,,,,,,,,,,,,,,,,,
,,,,,,,,,,,,,,,,,200425,18,2022-01-28_15h48.26.294,lexical_decision_task_DD_L6,2021.2.3,Win32,59.01097604,,,,,,,,,,,,0.7123,1,,,,,,,,,,,,,,m,1,0.7123,,,,,,,,-0.006510417,-0.415364583,0,0,0,,0,30,30,61,1,ARTIST,C,old,m,./images/ARTIST.png,,,,,,,,,,,,,,,,,,,,,
,,,,,,,,,,,,,,,,,200425,18,2022-01-28_15h48.26.294,lexical_decision_task_DD_L6,2021.2.3,Win32,59.01097604,,,,,,,,,,,,0.9906,1,,,,,,,,,,,,,,z,1,0.9906,,,,,,,,-0.006510417,-0.415364583,0,0,0,,0,31,31,153,1,CLUPS,C,old,z,./images/CLUPS.png,,,,,,,,,,,,,,,,,,,,,
,,,,,,,,,,,,,,,,,200425,18,2022-01-28_15h48.26.294,lexical_decision_task_DD_L6,2021.2.3,Win32,59.01097604,,,,,,,,,,,,0.5228,1,,,,,,,,,,,,,,m,1,0.5228,,,,,,,,-0.006510417,-0.415364583,0,0,0,,0,32,32,37,1,TIGER,C,old,m,./images/TIGER.png,,,,,,,,,,,,,,,,,,,,,
,,,,,,,,,,,,,,,,,200425,18,2022-01-28_15h48.26.294,lexical_decision_task_DD_L6,2021.2.3,Win32,59.01097604,,,,,,,,,,,,1.1503,1,,,,,,,,,,,,,,m,1,1.1503,,,,,,,,-0.006510417,-0.415364583,0,0,0,,0,33,33,46,1,MUMMY,C,old,m,./images/MUMMY.png,,,,,,,,,,,,,,,,,,,,,
,,,,,,,,,,,,,,,,,200425,18,2022-01-28_15h48.26.294,lexical_decision_task_DD_L6,2021.2.3,Win32,59.01097604,,,,,,,,,,,,0.7629,1,,,,,,,,,,,,,,m,1,0.7629,,,,,,,,-0.006510417,-0.415364583,0,0,0,,0,34,34,20,1,GRANNY,HB,old,m,./images/GRANNYHB.png,,,,,,,,,,,,,,,,,,,,,
,,,,,,,,,,,,,,,,,200425,18,2022-01-28_15h48.26.294,lexical_decision_task_DD_L6,2021.2.3,Win32,59.01097604,,,,,,,,,,,,2.2615,1,,,,,,,,,,,,,,z,1,2.2615,,,,,,,,-0.006510417,-0.415364583,0,0,0,,0,35,35,166,1,SHORY,HB,old,z,./images/SHORYHB.png,,,,,,,,,,,,,,,,,,,,,
,,,,,,,,,,,,,,,,,200425,18,2022-01-28_15h48.26.294,lexical_decision_task_DD_L6,2021.2.3,Win32,59.01097604,,,,,,,,,,,,0.4982,1,,,,,,,,,,,,,,m,1,0.4982,,,,,,,,-0.006510417,-0.415364583,0,0,0,,0,36,36,54,1,CHERRY,LB,old,m,./images/CHERRYLB.png,,,,,,,,,,,,,,,,,,,,,
,,,,,,,,,,,,,,,,,200425,18,2022-01-28_15h48.26.294,lexical_decision_task_DD_L6,2021.2.3,Win32,59.01097604,,,,,,,,,,,,0.7326,1,,,,,,,,,,,,,,z,1,0.7326,,,,,,,,-0.006510417,-0.415364583,0,0,0,,0,37,37,162,1,LEICH,C,old,z,./images/LEICH.png,,,,,,,,,,,,,,,,,,,,,
,,,,,,,,,,,,,,,,,200425,18,2022-01-28_15h48.26.294,lexical_decision_task_DD_L6,2021.2.3,Win32,59.01097604,,,,,,,,,,,,1.5218,1,,,,,,,,,,,,,,z,1,1.5218,,,,,,,,-0.006510417,-0.415364583,0,0,0,,0,38,38,99,1,BACKY,C,old,z,./images/BACKY.png,,,,,,,,,,,,,,,,,,,,,
,,,,,,,,,,,,,,,,,200425,18,2022-01-28_15h48.26.294,lexical_decision_task_DD_L6,2021.2.3,Win32,59.01097604,,,,,,,,,,,,2.005,1,,,,,,,,,,,,,,z,1,2.005,,,,,,,,-0.006510417,-0.415364583,0,0,0,,0,39,39,136,1,WERVE,HB,old,z,./images/WERVEHB.png,,,,,,,,,,,,,,,,,,,,,
,,,,,,,,,,,,,,,,,200425,18,2022-01-28_15h48.26.294,lexical_decision_task_DD_L6,2021.2.3,Win32,59.01097604,,,,,,,,,,,,0.9633,1,,,,,,,,,,,,,,z,1,0.9633,,,,,,,,-0.006510417,-0.415364583,0,0,0,,0,40,40,107,1,FASKS,LB,old,z,./images/FASKSLB.png,,,,,,,,,,,,,,,,,,,,,
,,,,,,,,,,,,,,,,,200425,18,2022-01-28_15h48.26.294,lexical_decision_task_DD_L6,2021.2.3,Win32,59.01097604,,,,,,,,,,,,0.7669,1,,,,,,,,,,,,,,z,1,0.7669,,,,,,,,-0.006510417,-0.415364583,1,0,0,,0,41,41,86,1,AIFED,LB,old,z,./images/AIFEDLB.png,break_done_button,,,,,,,,,,,,,,,,,,,,
,,,,,,,,,,,,,,,,,200425,18,2022-01-28_15h48.26.294,lexical_decision_task_DD_L6,2021.2.3,Win32,59.01097604,,,,,,,,,,,,1.0012,1,,,,,,,,,,,,,,z,1,1.0012,,,,,,,,-0.006510417,-0.415364583,0,0,0,,0,42,42,89,1,DRIEK,LB,old,z,./images/DRIEKLB.png,,,,,,,,,,,,,,,,,,,,,
,,,,,,,,,,,,,,,,,200425,18,2022-01-28_15h48.26.294,lexical_decision_task_DD_L6,2021.2.3,Win32,59.01097604,,,,,,,,,,,,1.4084,1,,,,,,,,,,,,,,z,1,1.4084,,,,,,,,-0.006510417,-0.415364583,0,0,0,,0,43,43,130,1,CRILL,HB,old,z,./images/CRILLHB.png,,,,,,,,,,,,,,,,,,,,,
,,,,,,,,,,,,,,,,,200425,18,2022-01-28_15h48.26.294,lexical_decision_task_DD_L6,2021.2.3,Win32,59.01097604,,,,,,,,,,,,1.9031,1,,,,,,,,,,,,,,z,1,1.9031,,,,,,,,-0.006510417,-0.415364583,0,0,0,,0,44,44,118,1,BAVEL,HB,old,z,./images/BAVELHB.png,,,,,,,,,,,,,,,,,,,,,
,,,,,,,,,,,,,,,,,200425,18,2022-01-28_15h48.26.294,lexical_decision_task_DD_L6,2021.2.3,Win32,59.01097604,,,,,,,,,,,,0.7913,1,,,,,,,,,,,,,,z,1,0.7913,,,,,,,,-0.006510417,-0.415364583,0,0,0,,0,45,45,143,1,MONGS,LB,old,z,./images/MONGSLB.png,,,,,,,,,,,,,,,,,,,,,
,,,,,,,,,,,,,,,,,200425,18,2022-01-28_15h48.26.294,lexical_decision_task_DD_L6,2021.2.3,Win32,59.01097604,,,,,,,,,,,,0.7134,1,,,,,,,,,,,,,,m,1,0.7134,,,,,,,,-0.006510417,-0.415364583,0,0,0,,0,46,46,7,1,WAGON,C,old,m,./images/WAGON.png,,,,,,,,,,,,,,,,,,,,,
,,,,,,,,,,,,,,,,,200425,18,2022-01-28_15h48.26.294,lexical_decision_task_DD_L6,2021.2.3,Win32,59.01097604,,,,,,,,,,,,0.6581,1,,,,,,,,,,,,,,m,1,0.6581,,,,,,,,-0.006510417,-0.415364583,0,0,0,,0,47,47,2,1,STOVE,HB,old,m,./images/STOVEHB.png,,,,,,,,,,,,,,,,,,,,,
,,,,,,,,,,,,,,,,,200425,18,2022-01-28_15h48.26.294,lexical_decision_task_DD_L6,2021.2.3,Win32,59.01097604,,,,,,,,,,,,0.7256,1,,,,,,,,,,,,,,z,1,0.7256,,,,,,,,-0.006510417,-0.415364583,0,0,0,,0,48,48,137,1,JOOST,LB,old,z,./images/JOOSTLB.png,,,,,,,,,,,,,,,,,,,,,
,,,,,,,,,,,,,,,,,200425,18,2022-01-28_15h48.26.294,lexical_decision_task_DD_L6,2021.2.3,Win32,59.01097604,,,,,,,,,,,,0.8695,1,,,,,,,,,,,,,,m,1,0.8695,,,,,,,,-0.006510417,-0.415364583,0,0,0,,0,49,49,12,1,BLOKE,LB,old,m,./images/BLOKELB.png,,,,,,,,,,,,,,,,,,,,,
,,,,,,,,,,,,,,,,,200425,18,2022-01-28_15h48.26.294,lexical_decision_task_DD_L6,2021.2.3,Win32,59.01097604,,,,,,,,,,,,0.8348,1,,,,,,,,,,,,,,z,1,0.8348,,,,,,,,-0.006510417,-0.415364583,0,0,0,,0,50,50,128,1,GRIFT,LB,old,z,./images/GRIFTLB.png,,,,,,,,,,,,,,,,,,,,,
,,,,,,,,,,,,,,,,,200425,18,2022-01-28_15h48.26.294,lexical_decision_task_DD_L6,2021.2.3,Win32,59.01097604,,,,,,,,,,,,0.7466,1,,,,,,,,,,,,,,z,1,0.7466,,,,,,,,-0.006510417,-0.415364583,0,0,0,,0,51,51,98,1,BAMPS,LB,old,z,./images/BAMPSLB.png,,,,,,,,,,,,,,,,,,,,,
,,,,,,,,,,,,,,,,,200425,18,2022-01-28_15h48.26.294,lexical_decision_task_DD_L6,2021.2.3,Win32,59.01097604,,,,,,,,,,,,1.0371,1,,,,,,,,,,,,,,m,1,1.0371,,,,,,,,-0.006510417,-0.415364583,0,0,0,,0,52,52,60,1,CURRY,LB,old,m,./images/CURRYLB.png,,,,,,,,,,,,,,,,,,,,,
,,,,,,,,,,,,,,,,,200425,18,2022-01-28_15h48.26.294,lexical_decision_task_DD_L6,2021.2.3,Win32,59.01097604,,,,,,,,,,,,0.6992,1,,,,,,,,,,,,,,m,1,0.6992,,,,,,,,-0.006510417,-0.415364583,0,0,0,,0,53,53,36,1,BOILER,LB,old,m,./images/BOILERLB.png,,,,,,,,,,,,,,,,,,,,,
,,,,,,,,,,,,,,,,,200425,18,2022-01-28_15h48.26.294,lexical_decision_task_DD_L6,2021.2.3,Win32,59.01097604,,,,,,,,,,,,1.2569,1,,,,,,,,,,,,,,m,1,1.2569,,,,,,,,-0.006510417,-0.415364583,0,0,0,,0,54,54,62,1,MAMMAL,HB,old,m,./images/MAMMALHB.png,,,,,,,,,,,,,,,,,,,,,
,,,,,,,,,,,,,,,,,200425,18,2022-01-28_15h48.26.294,lexical_decision_task_DD_L6,2021.2.3,Win32,59.01097604,,,,,,,,,,,,1.3707,1,,,,,,,,,,,,,,z,1,1.3707,,,,,,,,-0.006510417,-0.415364583,0,0,0,,0,55,55,88,1,GLUSH,HB,old,z,./images/GLUSHHB.png,,,,,,,,,,,,,,,,,,,,,
,,,,,,,,,,,,,,,,,200425,18,2022-01-28_15h48.26.294,lexical_decision_task_DD_L6,2021.2.3,Win32,59.01097604,,,,,,,,,,,,0.8918,1,,,,,,,,,,,,,,z,1,0.8918,,,,,,,,-0.006510417,-0.415364583,0,0,0,,0,56,56,124,1,TUNCH,HB,old,z,./images/TUNCHHB.png,,,,,,,,,,,,,,,,,,,,,
,,,,,,,,,,,,,,,,,200425,18,2022-01-28_15h48.26.294,lexical_decision_task_DD_L6,2021.2.3,Win32,59.01097604,,,,,,,,,,,,1.0417,1,,,,,,,,,,,,,,z,1,1.0417,,,,,,,,-0.006510417,-0.415364583,0,0,0,,0,57,57,138,1,PLICE,C,old,z,./images/PLICE.png,,,,,,,,,,,,,,,,,,,,,
,,,,,,,,,,,,,,,,,200425,18,2022-01-28_15h48.26.294,lexical_decision_task_DD_L6,2021.2.3,Win32,59.01097604,,,,,,,,,,,,0.9487,1,,,,,,,,,,,,,,z,1,0.9487,,,,,,,,-0.006510417,-0.415364583,0,0,0,,0,58,58,103,1,FLORT,HB,old,z,./images/FLORTHB.png,,,,,,,,,,,,,,,,,,,,,
,,,,,,,,,,,,,,,,,200425,18,2022-01-28_15h48.26.294,lexical_decision_task_DD_L6,2021.2.3,Win32,59.01097604,,,,,,,,,,,,0.5906,1,,,,,,,,,,,,,,m,1,0.5906,,,,,,,,-0.006510417,-0.415364583,0,0,0,,0,59,59,49,1,BISHOP,C,old,m,./images/BISHOP.png,,,,,,,,,,,,,,,,,,,,,
,,,,,,,,,,,,,,,,,200425,18,2022-01-28_15h48.26.294,lexical_decision_task_DD_L6,2021.2.3,Win32,59.01097604,,,,,,,,,,,,0.5335,1,,,,,,,,,,,,,,m,1,0.5335,,,,,,,,-0.006510417,-0.415364583,0,0,0,,0,60,60,27,1,BUTTER,LB,old,m,./images/BUTTERLB.png,,,,,,,,,,,,,,,,,,,,,
,,,,,,,,,,,,,,,,,200425,18,2022-01-28_15h48.26.294,lexical_decision_task_DD_L6,2021.2.3,Win32,59.01097604,,,,,,,,,,,,0.7051,1,,,,,,,,,,,,,,m,1,0.7051,,,,,,,,-0.006510417,-0.415364583,0,0,0,,0,61,61,23,1,CLOTH,HB,old,m,./images/CLOTHHB.png,,,,,,,,,,,,,,,,,,,,,
,,,,,,,,,,,,,,,,,200425,18,2022-01-28_15h48.26.294,lexical_decision_task_DD_L6,2021.2.3,Win32,59.01097604,,,,,,,,,,,,0.7846,1,,,,,,,,,,,,,,z,1,0.7846,,,,,,,,-0.006510417,-0.415364583,0,0,0,,0,62,62,125,1,MOOKY,LB,old,z,./images/MOOKYLB.png,,,,,,,,,,,,,,,,,,,,,
,,,,,,,,,,,,,,,,,200425,18,2022-01-28_15h48.26.294,lexical_decision_task_DD_L6,2021.2.3,Win32,59.01097604,,,,,,,,,,,,0.6301,1,,,,,,,,,,,,,,m,1,0.6301,,,,,,,,-0.006510417,-0.415364583,0,0,0,,0,63,63,44,1,BASKET,HB,old,m,./images/BASKETHB.png,,,,,,,,,,,,,,,,,,,,,
,,,,,,,,,,,,,,,,,200425,18,2022-01-28_15h48.26.294,lexical_decision_task_DD_L6,2021.2.3,Win32,59.01097604,,,,,,,,,,,,0.6294,1,,,,,,,,,,,,,,z,1,0.6294,,,,,,,,-0.006510417,-0.415364583,0,0,0,,0,64,64,111,1,HOSSE,C,old,z,./images/HOSSE.png,,,,,,,,,,,,,,,,,,,,,
,,,,,,,,,,,,,,,,,200425,18,2022-01-28_15h48.26.294,lexical_decision_task_DD_L6,2021.2.3,Win32,59.01097604,,,,,,,,,,,,0.573,0,,,,,,,,,,,,,,z,0,0.573,,,,,,,,-0.006510417,-0.415364583,0,0,0,,0,65,65,19,1,DONKEY,C,old,m,./images/DONKEY.png,,,,,,,,,,,,,,,,,,,,,
,,,,,,,,,,,,,,,,,200425,18,2022-01-28_15h48.26.294,lexical_decision_task_DD_L6,2021.2.3,Win32,59.01097604,,,,,,,,,,,,0.881,1,,,,,,,,,,,,,,z,1,0.881,,,,,,,,-0.006510417,-0.415364583,0,0,0,,0,66,66,90,1,NEAST,C,old,z,./images/NEAST.png,,,,,,,,,,,,,,,,,,,,,
,,,,,,,,,,,,,,,,,200425,18,2022-01-28_15h48.26.294,lexical_decision_task_DD_L6,2021.2.3,Win32,59.01097604,,,,,,,,,,,,0.6104,1,,,,,,,,,,,,,,m,1,0.6104,,,,,,,,-0.006510417,-0.415364583,0,0,0,,0,67,67,75,1,HAMMER,LB,old,m,./images/HAMMERLB.png,,,,,,,,,,,,,,,,,,,,,
,,,,,,,,,,,,,,,,,200425,18,2022-01-28_15h48.26.294,lexical_decision_task_DD_L6,2021.2.3,Win32,59.01097604,,,,,,,,,,,,2.3157,1,,,,,,,,,,,,,,z,1,2.3157,,,,,,,,-0.006510417,-0.415364583,0,0,0,,0,68,68,115,1,MAWNS,HB,old,z,./images/MAWNSHB.png,,,,,,,,,,,,,,,,,,,,,
,,,,,,,,,,,,,,,,,200425,18,2022-01-28_15h48.26.294,lexical_decision_task_DD_L6,2021.2.3,Win32,59.01097604,,,,,,,,,,,,1.9488,1,,,,,,,,,,,,,,z,1,1.9488,,,,,,,,-0.006510417,-0.415364583,0,0,0,,0,69,69,139,1,BLEAR,HB,old,z,./images/BLEARHB.png,,,,,,,,,,,,,,,,,,,,,
,,,,,,,,,,,,,,,,,200425,18,2022-01-28_15h48.26.294,lexical_decision_task_DD_L6,2021.2.3,Win32,59.01097604,,,,,,,,,,,,1.0789,1,,,,,,,,,,,,,,m,1,1.0789,,,,,,,,-0.006510417,-0.415364583,0,0,0,,0,70,70,4,1,BOXER,C,old,m,./images/BOXER.png,,,,,,,,,,,,,,,,,,,,,
,,,,,,,,,,,,,,,,,200425,18,2022-01-28_15h48.26.294,lexical_decision_task_DD_L6,2021.2.3,Win32,59.01097604,,,,,,,,,,,,1.9798,1,,,,,,,,,,,,,,z,1,1.9798,,,,,,,,-0.006510417,-0.415364583,0,0,0,,0,71,71,106,1,CLUMS,HB,old,z,./images/CLUMSHB.png,,,,,,,,,,,,,,,,,,,,,
,,,,,,,,,,,,,,,,,200425,18,2022-01-28_15h48.26.294,lexical_decision_task_DD_L6,2021.2.3,Win32,59.01097604,,,,,,,,,,,,1.3022,1,,,,,,,,,,,,,,z,1,1.3022,,,,,,,,-0.006510417,-0.415364583,0,0,0,,0,72,72,163,1,GAMBA,HB,old,z,./images/GAMBAHB.png,,,,,,,,,,,,,,,,,,,,,
,,,,,,,,,,,,,,,,,200425,18,2022-01-28_15h48.26.294,lexical_decision_task_DD_L6,2021.2.3,Win32,59.01097604,,,,,,,,,,,,1.5956,1,,,,,,,,,,,,,,m,1,1.5956,,,,,,,,-0.006510417,-0.415364583,0,0,0,,0,73,73,74,1,JUMPER,HB,old,m,./images/JUMPERHB.png,,,,,,,,,,,,,,,,,,,,,
,,,,,,,,,,,,,,,,,200425,18,2022-01-28_15h48.26.294,lexical_decision_task_DD_L6,2021.2.3,Win32,59.01097604,,,,,,,,,,,,0.6819,1,,,,,,,,,,,,,,m,1,0.6819,,,,,,,,-0.006510417,-0.415364583,0,0,0,,0,74,74,72,1,FLASK,LB,old,m,./images/FLASKLB.png,,,,,,,,,,,,,,,,,,,,,
,,,,,,,,,,,,,,,,,200425,18,2022-01-28_15h48.26.294,lexical_decision_task_DD_L6,2021.2.3,Win32,59.01097604,,,,,,,,,,,,0.6024,1,,,,,,,,,,,,,,m,1,0.6024,,,,,,,,-0.006510417,-0.415364583,0,0,0,,0,75,75,43,1,STOOL,C,old,m,./images/STOOL.png,,,,,,,,,,,,,,,,,,,,,
,,,,,,,,,,,,,,,,,200425,18,2022-01-28_15h48.26.294,lexical_decision_task_DD_L6,2021.2.3,Win32,59.01097604,,,,,,,,,,,,0.605,1,,,,,,,,,,,,,,m,1,0.605,,,,,,,,-0.006510417,-0.415364583,0,0,0,,0,76,76,67,1,POKER,C,old,m,./images/POKER.png,,,,,,,,,,,,,,,,,,,,,
,,,,,,,,,,,,,,,,,200425,18,2022-01-28_15h48.26.294,lexical_decision_task_DD_L6,2021.2.3,Win32,59.01097604,,,,,,,,,,,,1.4537,1,,,,,,,,,,,,,,z,1,1.4537,,,,,,,,-0.006510417,-0.415364583,0,0,0,,0,77,77,112,1,MYING,HB,old,z,./images/MYINGHB.png,,,,,,,,,,,,,,,,,,,,,
,,,,,,,,,,,,,,,,,200425,18,2022-01-28_15h48.26.294,lexical_decision_task_DD_L6,2021.2.3,Win32,59.01097604,,,,,,,,,,,,1.0989,1,,,,,,,,,,,,,,z,1,1.0989,,,,,,,,-0.006510417,-0.415364583,0,0,0,,0,78,78,94,1,BLANS,HB,old,z,./images/BLANSHB.png,,,,,,,,,,,,,,,,,,,,,
,,,,,,,,,,,,,,,,,200425,18,2022-01-28_15h48.26.294,lexical_decision_task_DD_L6,2021.2.3,Win32,59.01097604,,,,,,,,,,,,0.6746,1,,,,,,,,,,,,,,m,1,0.6746,,,,,,,,-0.006510417,-0.415364583,0,0,0,,0,79,79,79,1,RULER,C,old,m,./images/RULER.png,,,,,,,,,,,,,,,,,,,,,
,,,,,,,,,,,,,,,,,200425,18,2022-01-28_15h48.26.294,lexical_decision_task_DD_L6,2021.2.3,Win32,59.01097604,,,,,,,,,,,,1.1479,1,,,,,,,,,,,,,,z,1,1.1479,,,,,,,,-0.006510417,-0.415364583,0,0,0,,0,80,80,97,1,CHIDS,HB,old,z,./images/CHIDSHB.png,,,,,,,,,,,,,,,,,,,,,
,,,,,,,,,,,,,,,,,200425,18,2022-01-28_15h48.26.294,lexical_decision_task_DD_L6,2021.2.3,Win32,59.01097604,,,,,,,,,,,,0.85,1,,,,,,,,,,,,,,z,1,0.85,,,,,,,,-0.006510417,-0.415364583,0,0,0,,0,81,81,126,1,GUELS,C,old,z,./images/GUELS.png,,,,,,,,,,,,,,,,,,,,,
,,,,,,,,,,,,,,,,,200425,18,2022-01-28_15h48.26.294,lexical_decision_task_DD_L6,2021.2.3,Win32,59.01097604,,,,,,,,,,,,0.6263,1,,,,,,,,,,,,,,m,1,0.6263,,,,,,,,-0.006510417,-0.415364583,0,0,0,,0,82,82,28,1,CASINO,C,old,m,./images/CASINO.png,,,,,,,,,,,,,,,,,,,,,
,,,,,,,,,,,,,,,,,200425,18,2022-01-28_15h48.26.294,lexical_decision_task_DD_L6,2021.2.3,Win32,59.01097604,,,,,,,,,,,,0.9244,1,,,,,,,,,,,,,,z,1,0.9244,,,,,,,,-0.006510417,-0.415364583,1,0,0,,0,83,83,109,1,BURGE,HB,old,z,./images/BURGEHB.png,break_done_button,,,,,,,,,,,,,,,,,,,,
,,,,,,,,,,,,,,,,,200425,18,2022-01-28_15h48.26.294,lexical_decision_task_DD_L6,2021.2.3,Win32,59.01097604,,,,,,,,,,,,3.855,1,,,,,,,,,,,,,,m,1,3.855,,,,,,,,-0.006510417,-0.415364583,0,0,0,,0,84,84,73,1,GLOVE,C,old,m,./images/GLOVE.png,,,,,,,,,,,,,,,,,,,,,
,,,,,,,,,,,,,,,,,200425,18,2022-01-28_15h48.26.294,lexical_decision_task_DD_L6,2021.2.3,Win32,59.01097604,,,,,,,,,,,,0.7501,1,,,,,,,,,,,,,,m,1,0.7501,,,,,,,,-0.006510417,-0.415364583,0,0,0,,0,85,85,76,1,MIDGET,C,old,m,./images/MIDGET.png,,,,,,,,,,,,,,,,,,,,,
,,,,,,,,,,,,,,,,,200425,18,2022-01-28_15h48.26.294,lexical_decision_task_DD_L6,2021.2.3,Win32,59.01097604,,,,,,,,,,,,0.5244,1,,,,,,,,,,,,,,m,1,0.5244,,,,,,,,-0.006510417,-0.415364583,0,0,0,,0,86,86,9,1,DIVER,LB,old,m,./images/DIVERLB.png,,,,,,,,,,,,,,,,,,,,,
,,,,,,,,,,,,,,,,,200425,18,2022-01-28_15h48.26.294,lexical_decision_task_DD_L6,2021.2.3,Win32,59.01097604,,,,,,,,,,,,0.7734,1,,,,,,,,,,,,,,z,1,0.7734,,,,,,,,-0.006510417,-0.415364583,0,0,0,,0,87,87,84,1,HAXES,C,old,z,./images/HAXES.png,,,,,,,,,,,,,,,,,,,,,
,,,,,,,,,,,,,,,,,200425,18,2022-01-28_15h48.26.294,lexical_decision_task_DD_L6,2021.2.3,Win32,59.01097604,,,,,,,,,,,,1.8338,1,,,,,,,,,,,,,,z,1,1.8338,,,,,,,,-0.006510417,-0.415364583,0,0,0,,0,88,88,148,1,JOMS,HB,old,z,./images/JOMSHB.png,,,,,,,,,,,,,,,,,,,,,
,,,,,,,,,,,,,,,,,200425,18,2022-01-28_15h48.26.294,lexical_decision_task_DD_L6,2021.2.3,Win32,59.01097604,,,,,,,,,,,,1.1812,1,,,,,,,,,,,,,,m,1,1.1812,,,,,,,,-0.006510417,-0.415364583,0,0,0,,0,89,89,53,1,POSTER,HB,old,m,./images/POSTERHB.png,,,,,,,,,,,,,,,,,,,,,
,,,,,,,,,,,,,,,,,200425,18,2022-01-28_15h48.26.294,lexical_decision_task_DD_L6,2021.2.3,Win32,59.01097604,,,,,,,,,,,,0.6275,1,,,,,,,,,,,,,,m,1,0.6275,,,,,,,,-0.006510417,-0.415364583,0,0,0,,0,90,90,6,1,STAIN,LB,old,m,./images/STAINLB.png,,,,,,,,,,,,,,,,,,,,,
,,,,,,,,,,,,,,,,,200425,18,2022-01-28_15h48.26.294,lexical_decision_task_DD_L6,2021.2.3,Win32,59.01097604,,,,,,,,,,,,0.8337,1,,,,,,,,,,,,,,m,1,0.8337,,,,,,,,-0.006510417,-0.415364583,0,0,0,,0,91,91,21,1,DANCER,LB,old,m,./images/DANCERLB.png,,,,,,,,,,,,,,,,,,,,,
,,,,,,,,,,,,,,,,,200425,18,2022-01-28_15h48.26.294,lexical_decision_task_DD_L6,2021.2.3,Win32,59.01097604,,,,,,,,,,,,0.7099,1,,,,,,,,,,,,,,m,1,0.7099,,,,,,,,-0.006510417,-0.415364583,0,0,0,,0,92,92,80,1,PLANET,HB,old,m,./images/PLANETHB.png,,,,,,,,,,,,,,,,,,,,,
,,,,,,,,,,,,,,,,,200425,18,2022-01-28_15h48.26.294,lexical_decision_task_DD_L6,2021.2.3,Win32,59.01097604,,,,,,,,,,,,0.9866,1,,,,,,,,,,,,,,z,1,0.9866,,,,,,,,-0.006510417,-0.415364583,0,0,0,,0,93,93,92,1,PAIMS,LB,old,z,./images/PAIMSLB.png,,,,,,,,,,,,,,,,,,,,,
,,,,,,,,,,,,,,,,,200425,18,2022-01-28_15h48.26.294,lexical_decision_task_DD_L6,2021.2.3,Win32,59.01097604,,,,,,,,,,,,2.266,1,,,,,,,,,,,,,,z,1,2.266,,,,,,,,-0.006510417,-0.415364583,0,0,0,,0,94,94,87,1,TRING,C,old,z,./images/TRING.png,,,,,,,,,,,,,,,,,,,,,
,,,,,,,,,,,,,,,,,200425,18,2022-01-28_15h48.26.294,lexical_decision_task_DD_L6,2021.2.3,Win32,59.01097604,,,,,,,,,,,,2.6252,1,,,,,,,,,,,,,,m,1,2.6252,,,,,,,,-0.006510417,-0.415364583,0,0,0,,0,95,95,63,1,BAKER,LB,old,m,./images/BAKERLB.png,,,,,,,,,,,,,,,,,,,,,
,,,,,,,,,,,,,,,,,200425,18,2022-01-28_15h48.26.294,lexical_decision_task_DD_L6,2021.2.3,Win32,59.01097604,,,,,,,,,,,,0.6981,1,,,,,,,,,,,,,,m,1,0.6981,,,,,,,,-0.006510417,-0.415364583,0,0,0,,0,96,96,56,1,HEATER,HB,old,m,./images/HEATERHB.png,,,,,,,,,,,,,,,,,,,,,
,,,,,,,,,,,,,,,,,200425,18,2022-01-28_15h48.26.294,lexical_decision_task_DD_L6,2021.2.3,Win32,59.01097604,,,,,,,,,,,,0.9674,1,,,,,,,,,,,,,,m,1,0.9674,,,,,,,,-0.006510417,-0.415364583,0,0,0,,0,97,97,10,1,GARDEN,C,old,m,./images/GARDEN.png,,,,,,,,,,,,,,,,,,,,,
,,,,,,,,,,,,,,,,,200425,18,2022-01-28_15h48.26.294,lexical_decision_task_DD_L6,2021.2.3,Win32,59.01097604,,,,,,,,,,,,0.6741,1,,,,,,,,,,,,,,m,1,0.6741,,,,,,,,-0.006510417,-0.415364583,0,0,0,,0,98,98,71,1,BUBBLE,HB,old,m,./images/BUBBLEHB.png,,,,,,,,,,,,,,,,,,,,,
,,,,,,,,,,,,,,,,,200425,18,2022-01-28_15h48.26.294,lexical_decision_task_DD_L6,2021.2.3,Win32,59.01097604,,,,,,,,,,,,0.978,1,,,,,,,,,,,,,,m,1,0.978,,,,,,,,-0.006510417,-0.415364583,0,0,0,,0,99,99,31,1,STEAK,C,old,m,./images/STEAK.png,,,,,,,,,,,,,,,,,,,,,
,,,,,,,,,,,,,,,,,200425,18,2022-01-28_15h48.26.294,lexical_decision_task_DD_L6,2021.2.3,Win32,59.01097604,,,,,,,,,,,,0.7496,1,,,,,,,,,,,,,,m,1,0.7496,,,,,,,,-0.006510417,-0.415364583,0,0,0,,0,100,100,17,1,PARADE,HB,old,m,./images/PARADEHB.png,,,,,,,,,,,,,,,,,,,,,
,,,,,,,,,,,,,,,,,200425,18,2022-01-28_15h48.26.294,lexical_decision_task_DD_L6,2021.2.3,Win32,59.01097604,,,,,,,,,,,,0.6357,1,,,,,,,,,,,,,,m,1,0.6357,,,,,,,,-0.006510417,-0.415364583,0,0,0,,0,101,101,48,1,SHIELD,LB,old,m,./images/SHIELDLB.png,,,,,,,,,,,,,,,,,,,,,
,,,,,,,,,,,,,,,,,200425,18,2022-01-28_15h48.26.294,lexical_decision_task_DD_L6,2021.2.3,Win32,59.01097604,,,,,,,,,,,,0.8115,1,,,,,,,,,,,,,,m,1,0.8115,,,,,,,,-0.006510417,-0.415364583,0,0,0,,0,102,102,0,1,WALNUT,LB,old,m,./images/WALNUTLB.png,,,,,,,,,,,,,,,,,,,,,
,,,,,,,,,,,,,,,,,200425,18,2022-01-28_15h48.26.294,lexical_decision_task_DD_L6,2021.2.3,Win32,59.01097604,,,,,,,,,,,,0.704,1,,,,,,,,,,,,,,z,1,0.704,,,,,,,,-0.006510417,-0.415364583,0,0,0,,0,103,103,113,1,LINEW,LB,old,z,./images/LINEWLB.png,,,,,,,,,,,,,,,,,,,,,
,,,,,,,,,,,,,,,,,200425,18,2022-01-28_15h48.26.294,lexical_decision_task_DD_L6,2021.2.3,Win32,59.01097604,,,,,,,,,,,,0.5234,1,,,,,,,,,,,,,,m,1,0.5234,,,,,,,,-0.006510417,-0.415364583,0,0,0,,0,104,104,22,1,CLOWN,C,old,m,./images/CLOWN.png,,,,,,,,,,,,,,,,,,,,,
,,,,,,,,,,,,,,,,,200425,18,2022-01-28_15h48.26.294,lexical_decision_task_DD_L6,2021.2.3,Win32,59.01097604,,,,,,,,,,,,0.7295,1,,,,,,,,,,,,,,z,1,0.7295,,,,,,,,-0.006510417,-0.415364583,0,0,0,,0,105,105,161,1,BLAPS,LB,old,z,./images/BLAPSLB.png,,,,,,,,,,,,,,,,,,,,,
,,,,,,,,,,,,,,,,,200425,18,2022-01-28_15h48.26.294,lexical_decision_task_DD_L6,2021.2.3,Win32,59.01097604,,,,,,,,,,,,0.6938,1,,,,,,,,,,,,,,z,1,0.6938,,,,,,,,-0.006510417,-0.415364583,0,0,0,,0,106,106,122,1,BLOOT,LB,old,z,./images/BLOOTLB.png,,,,,,,,,,,,,,,,,,,,,
,,,,,,,,,,,,,,,,,200425,18,2022-01-28_15h48.26.294,lexical_decision_task_DD_L6,2021.2.3,Win32,59.01097604,,,,,,,,,,,,0.6319,1,,,,,,,,,,,,,,z,1,0.6319,,,,,,,,-0.006510417,-0.415364583,0,0,0,,0,107,107,158,1,EGECT,LB,old,z,./images/EGECTLB.png,,,,,,,,,,,,,,,,,,,,,
,,,,,,,,,,,,,,,,,200425,18,2022-01-28_15h48.26.294,lexical_decision_task_DD_L6,2021.2.3,Win32,59.01097604,,,,,,,,,,,,0.7877,1,,,,,,,,,,,,,,z,1,0.7877,,,,,,,,-0.006510417,-0.415364583,0,0,0,,0,108,108,101,1,GLEET,LB,old,z,./images/GLEETLB.png,,,,,,,,,,,,,,,,,,,,,
,,,,,,,,,,,,,,,,,200425,18,2022-01-28_15h48.26.294,lexical_decision_task_DD_L6,2021.2.3,Win32,59.01097604,,,,,,,,,,,,0.7982,1,,,,,,,,,,,,,,z,1,0.7982,,,,,,,,-0.006510417,-0.415364583,0,0,0,,0,109,109,144,1,NAIRY,C,old,z,./images/NAIRY.png,,,,,,,,,,,,,,,,,,,,,
,,,,,,,,,,,,,,,,,200425,18,2022-01-28_15h48.26.294,lexical_decision_task_DD_L6,2021.2.3,Win32,59.01097604,,,,,,,,,,,,0.6794,1,,,,,,,,,,,,,,z,1,0.6794,,,,,,,,-0.006510417,-0.415364583,0,0,0,,0,110,110,167,1,ZONET,LB,old,z,./images/ZONETLB.png,,,,,,,,,,,,,,,,,,,,,
,,,,,,,,,,,,,,,,,200425,18,2022-01-28_15h48.26.294,lexical_decision_task_DD_L6,2021.2.3,Win32,59.01097604,,,,,,,,,,,,1.1065,1,,,,,,,,,,,,,,z,1,1.1065,,,,,,,,-0.006510417,-0.415364583,0,0,0,,0,111,111,121,1,CEERS,HB,old,z,./images/CEERSHB.png,,,,,,,,,,,,,,,,,,,,,
,,,,,,,,,,,,,,,,,200425,18,2022-01-28_15h48.26.294,lexical_decision_task_DD_L6,2021.2.3,Win32,59.01097604,,,,,,,,,,,,0.8998,1,,,,,,,,,,,,,,m,1,0.8998,,,,,,,,-0.006510417,-0.415364583,0,0,0,,0,112,112,81,1,DRILL,LB,old,m,./images/DRILLLB.png,,,,,,,,,,,,,,,,,,,,,
,,,,,,,,,,,,,,,,,200425,18,2022-01-28_15h48.26.294,lexical_decision_task_DD_L6,2021.2.3,Win32,59.01097604,,,,,,,,,,,,0.7148,1,,,,,,,,,,,,,,z,1,0.7148,,,,,,,,-0.006510417,-0.415364583,0,0,0,,0,113,113,146,1,MOOST,LB,old,z,./images/MOOSTLB.png,,,,,,,,,,,,,,,,,,,,,
,,,,,,,,,,,,,,,,,200425,18,2022-01-28_15h48.26.294,lexical_decision_task_DD_L6,2021.2.3,Win32,59.01097604,,,,,,,,,,,,1.1595,1,,,,,,,,,,,,,,z,1,1.1595,,,,,,,,-0.006510417,-0.415364583,0,0,0,,0,114,114,151,1,TINKY,HB,old,z,./images/TINKYHB.png,,,,,,,,,,,,,,,,,,,,,
,,,,,,,,,,,,,,,,,200425,18,2022-01-28_15h48.26.294,lexical_decision_task_DD_L6,2021.2.3,Win32,59.01097604,,,,,,,,,,,,0.7231,1,,,,,,,,,,,,,,z,1,0.7231,,,,,,,,-0.006510417,-0.415364583,0,0,0,,0,115,115,149,1,VEASE,LB,old,z,./images/VEASELB.png,,,,,,,,,,,,,,,,,,,,,
,,,,,,,,,,,,,,,,,200425,18,2022-01-28_15h48.26.294,lexical_decision_task_DD_L6,2021.2.3,Win32,59.01097604,,,,,,,,,,,,1.0095,1,,,,,,,,,,,,,,z,1,1.0095,,,,,,,,-0.006510417,-0.415364583,0,0,0,,0,116,116,150,1,NOOLS,C,old,z,./images/NOOLS.png,,,,,,,,,,,,,,,,,,,,,
,,,,,,,,,,,,,,,,,200425,18,2022-01-28_15h48.26.294,lexical_decision_task_DD_L6,2021.2.3,Win32,59.01097604,,,,,,,,,,,,0.6835,1,,,,,,,,,,,,,,m,1,0.6835,,,,,,,,-0.006510417,-0.415364583,0,0,0,,0,117,117,64,1,BRIDE,C,old,m,./images/BRIDE.png,,,,,,,,,,,,,,,,,,,,,
,,,,,,,,,,,,,,,,,200425,18,2022-01-28_15h48.26.294,lexical_decision_task_DD_L6,2021.2.3,Win32,59.01097604,,,,,,,,,,,,1.1933,1,,,,,,,,,,,,,,m,1,1.1933,,,,,,,,-0.006510417,-0.415364583,0,0,0,,0,118,118,11,1,MEDAL,HB,old,m,./images/MEDALHB.png,,,,,,,,,,,,,,,,,,,,,
,,,,,,,,,,,,,,,,,200425,18,2022-01-28_15h48.26.294,lexical_decision_task_DD_L6,2021.2.3,Win32,59.01097604,,,,,,,,,,,,2.4164,1,,,,,,,,,,,,,,z,1,2.4164,,,,,,,,-0.006510417,-0.415364583,0,0,0,,0,119,119,100,1,DRIBS,HB,old,z,./images/DRIBSHB.png,,,,,,,,,,,,,,,,,,,,,
,,,,,,,,,,,,,,,,,200425,18,2022-01-28_15h48.26.294,lexical_decision_task_DD_L6,2021.2.3,Win32,59.01097604,,,,,,,,,,,,0.996,1,,,,,,,,,,,,,,z,1,0.996,,,,,,,,-0.006510417,-0.415364583,0,0,0,,0,120,120,116,1,BALGY,LB,old,z,./images/BALGYLB.png,,,,,,,,,,,,,,,,,,,,,
,,,,,,,,,,,,,,,,,200425,18,2022-01-28_15h48.26.294,lexical_decision_task_DD_L6,2021.2.3,Win32,59.01097604,,,,,,,,,,,,0.984,1,,,,,,,,,,,,,,z,1,0.984,,,,,,,,-0.006510417,-0.415364583,0,0,0,,0,121,121,154,1,THINT,HB,old,z,./images/THINTHB.png,,,,,,,,,,,,,,,,,,,,,
,,,,,,,,,,,,,,,,,200425,18,2022-01-28_15h48.26.294,lexical_decision_task_DD_L6,2021.2.3,Win32,59.01097604,,,,,,,,,,,,1.9863,0,,,,,,,,,,,,,,m,0,1.9863,,,,,,,,-0.006510417,-0.415364583,0,0,0,,0,122,122,159,1,CUDDY,C,old,z,./images/CUDDY.png,,,,,,,,,,,,,,,,,,,,,
,,,,,,,,,,,,,,,,,200425,18,2022-01-28_15h48.26.294,lexical_decision_task_DD_L6,2021.2.3,Win32,59.01097604,,,,,,,,,,,,1.8751,1,,,,,,,,,,,,,,z,1,1.8751,,,,,,,,-0.006510417,-0.415364583,0,0,0,,0,123,123,133,1,POWDY,HB,old,z,./images/POWDYHB.png,,,,,,,,,,,,,,,,,,,,,
,,,,,,,,,,,,,,,,,200425,18,2022-01-28_15h48.26.294,lexical_decision_task_DD_L6,2021.2.3,Win32,59.01097604,,,,,,,,,,,,0.6602,1,,,,,,,,,,,,,,m,1,0.6602,,,,,,,,-0.006510417,-0.415364583,0,0,0,,0,124,124,39,1,CANDY,LB,old,m,./images/CANDYLB.png,,,,,,,,,,,,,,,,,,,,,
,,,,,,,,,,,,,,,,,200425,18,2022-01-28_15h48.26.294,lexical_decision_task_DD_L6,2021.2.3,Win32,59.01097604,,,,,,,,,,,,0.7658,1,,,,,,,,,,,,,,m,1,0.7658,,,,,,,,-0.006510417,-0.415364583,1,0,0,,0,125,125,83,1,WHISKY,HB,old,m,./images/WHISKYHB.png,break_done_button,,,,,,,,,,,,,,,,,,,,
,,,,,,,,,,,,,,,,,200425,18,2022-01-28_15h48.26.294,lexical_decision_task_DD_L6,2021.2.3,Win32,59.01097604,,,,,,,,,,,,0.7631,1,,,,,,,,,,,,,,m,1,0.7631,,,,,,,,-0.006510417,-0.415364583,0,0,0,,0,126,126,29,1,PISTOL,HB,old,m,./images/PISTOLHB.png,,,,,,,,,,,,,,,,,,,,,
,,,,,,,,,,,,,,,,,200425,18,2022-01-28_15h48.26.294,lexical_decision_task_DD_L6,2021.2.3,Win32,59.01097604,,,,,,,,,,,,0.7762,1,,,,,,,,,,,,,,m,1,0.7762,,,,,,,,-0.006510417,-0.415364583,0,0,0,,0,127,127,8,1,CLIFF,HB,old,m,./images/CLIFFHB.png,,,,,,,,,,,,,,,,,,,,,
,,,,,,,,,,,,,,,,,200425,18,2022-01-28_15h48.26.294,lexical_decision_task_DD_L6,2021.2.3,Win32,59.01097604,,,,,,,,,,,,0.6674,1,,,,,,,,,,,,,,m,1,0.6674,,,,,,,,-0.006510417,-0.415364583,0,0,0,,0,128,128,16,1,GRAPE,C,old,m,./images/GRAPE.png,,,,,,,,,,,,,,,,,,,,,
,,,,,,,,,,,,,,,,,200425,18,2022-01-28_15h48.26.294,lexical_decision_task_DD_L6,2021.2.3,Win32,59.01097604,,,,,,,,,,,,0.6613,1,,,,,,,,,,,,,,z,1,0.6613,,,,,,,,-0.006510417,-0.415364583,0,0,0,,0,129,129,147,1,ZOLES,C,old,z,./images/ZOLES.png,,,,,,,,,,,,,,,,,,,,,
,,,,,,,,,,,,,,,,,200425,18,2022-01-28_15h48.26.294,lexical_decision_task_DD_L6,2021.2.3,Win32,59.01097604,,,,,,,,,,,,0.8052,1,,,,,,,,,,,,,,z,1,0.8052,,,,,,,,-0.006510417,-0.415364583,0,0,0,,0,130,130,104,1,GITTY,LB,old,z,./images/GITTYLB.png,,,,,,,,,,,,,,,,,,,,,
,,,,,,,,,,,,,,,,,200425,18,2022-01-28_15h48.26.294,lexical_decision_task_DD_L6,2021.2.3,Win32,59.01097604,,,,,,,,,,,,0.6349,1,,,,,,,,,,,,,,z,1,0.6349,,,,,,,,-0.006510417,-0.415364583,0,0,0,,0,131,131,135,1,JOODY,C,old,z,./images/JOODY.png,,,,,,,,,,,,,,,,,,,,,
,,,,,,,,,,,,,,,,,200425,18,2022-01-28_15h48.26.294,lexical_decision_task_DD_L6,2021.2.3,Win32,59.01097604,,,,,,,,,,,,0.6249,1,,,,,,,,,,,,,,m,1,0.6249,,,,,,,,-0.006510417,-0.415364583,0,0,0,,0,132,132,25,1,CHALK,C,old,m,./images/CHALK.png,,,,,,,,,,,,,,,,,,,,,
,,,,,,,,,,,,,,,,,200425,18,2022-01-28_15h48.26.294,lexical_decision_task_DD_L6,2021.2.3,Win32,59.01097604,,,,,,,,,,,,0.6448,1,,,,,,,,,,,,,,z,1,0.6448,,,,,,,,-0.006510417,-0.415364583,0,0,0,,0,133,133,134,1,TROSS,LB,old,z,./images/TROSSLB.png,,,,,,,,,,,,,,,,,,,,,
,,,,,,,,,,,,,,,,,200425,18,2022-01-28_15h48.26.294,lexical_decision_task_DD_L6,2021.2.3,Win32,59.01097604,,,,,,,,,,,,0.5431,1,,,,,,,,,,,,,,m,1,0.5431,,,,,,,,-0.006510417,-0.415364583,0,0,0,,0,134,134,70,1,BANANA,C,old,m,./images/BANANA.png,,,,,,,,,,,,,,,,,,,,,
,,,,,,,,,,,,,,,,,200425,18,2022-01-28_15h48.26.294,lexical_decision_task_DD_L6,2021.2.3,Win32,59.01097604,,,,,,,,,,,,0.6015,1,,,,,,,,,,,,,,m,1,0.6015,,,,,,,,-0.006510417,-0.415364583,0,0,0,,0,135,135,1,1,TOWEL,C,old,m,./images/TOWEL.png,,,,,,,,,,,,,,,,,,,,,
,,,,,,,,,,,,,,,,,200425,18,2022-01-28_15h48.26.294,lexical_decision_task_DD_L6,2021.2.3,Win32,59.01097604,,,,,,,,,,,,0.8145,1,,,,,,,,,,,,,,z,1,0.8145,,,,,,,,-0.006510417,-0.415364583,0,0,0,,0,136,136,160,1,VEETS,HB,old,z,./images/VEETSHB.png,,,,,,,,,,,,,,,,,,,,,
,,,,,,,,,,,,,,,,,200425,18,2022-01-28_15h48.26.294,lexical_decision_task_DD_L6,2021.2.3,Win32,59.01097604,,,,,,,,,,,,0.5373,1,,,,,,,,,,,,,,m,1,0.5373,,,,,,,,-0.006510417,-0.415364583,0,0,0,,0,137,137,42,1,CHAIN,LB,old,m,./images/CHAINLB.png,,,,,,,,,,,,,,,,,,,,,
,,,,,,,,,,,,,,,,,200425,18,2022-01-28_15h48.26.294,lexical_decision_task_DD_L6,2021.2.3,Win32,59.01097604,,,,,,,,,,,,0.4682,1,,,,,,,,,,,,,,m,1,0.4682,,,,,,,,-0.006510417,-0.415364583,0,0,0,,0,138,138,51,1,SAUCE,LB,old,m,./images/SAUCELB.png,,,,,,,,,,,,,,,,,,,,,
,,,,,,,,,,,,,,,,,200425,18,2022-01-28_15h48.26.294,lexical_decision_task_DD_L6,2021.2.3,Win32,59.01097604,,,,,,,,,,,,0.6712,1,,,,,,,,,,,,,,z,1,0.6712,,,,,,,,-0.006510417,-0.415364583,0,0,0,,0,139,139,93,1,SMONE,C,old,z,./images/SMONE.png,,,,,,,,,,,,,,,,,,,,,
,,,,,,,,,,,,,,,,,200425,18,2022-01-28_15h48.26.294,lexical_decision_task_DD_L6,2021.2.3,Win32,59.01097604,,,,,,,,,,,,0.6037,1,,,,,,,,,,,,,,m,1,0.6037,,,,,,,,-0.006510417,-0.415364583,0,0,0,,0,140,140,68,1,VALLEY,HB,old,m,./images/VALLEYHB.png,,,,,,,,,,,,,,,,,,,,,
,,,,,,,,,,,,,,,,,200425,18,2022-01-28_15h48.26.294,lexical_decision_task_DD_L6,2021.2.3,Win32,59.01097604,,,,,,,,,,,,0.9362,1,,,,,,,,,,,,,,m,1,0.9362,,,,,,,,-0.006510417,-0.415364583,0,0,0,,0,141,141,35,1,LLAMA,HB,old,m,./images/LLAMAHB.png,,,,,,,,,,,,,,,,,,,,,
,,,,,,,,,,,,,,,,,200425,18,2022-01-28_15h48.26.294,lexical_decision_task_DD_L6,2021.2.3,Win32,59.01097604,,,,,,,,,,,,0.6051,1,,,,,,,,,,,,,,z,1,0.6051,,,,,,,,-0.006510417,-0.415364583,0,0,0,,0,142,142,95,1,HANTY,LB,old,z,./images/HANTYLB.png,,,,,,,,,,,,,,,,,,,,,
,,,,,,,,,,,,,,,,,200425,18,2022-01-28_15h48.26.294,lexical_decision_task_DD_L6,2021.2.3,Win32,59.01097604,,,,,,,,,,,,0.6582,1,,,,,,,,,,,,,,m,1,0.6582,,,,,,,,-0.006510417,-0.415364583,0,0,0,,0,143,143,47,1,LAGOON,HB,old,m,./images/LAGOONHB.png,,,,,,,,,,,,,,,,,,,,,
,,,,,,,,,,,,,,,,,200425,18,2022-01-28_15h48.26.294,lexical_decision_task_DD_L6,2021.2.3,Win32,59.01097604,,,,,,,,,,,,0.682,1,,,,,,,,,,,,,,z,1,0.682,,,,,,,,-0.006510417,-0.415364583,0,0,0,,0,144,144,131,1,NACES,LB,old,z,./images/NACESLB.png,,,,,,,,,,,,,,,,,,,,,
,,,,,,,,,,,,,,,,,200425,18,2022-01-28_15h48.26.294,lexical_decision_task_DD_L6,2021.2.3,Win32,59.01097604,,,,,,,,,,,,0.5887,1,,,,,,,,,,,,,,m,1,0.5887,,,,,,,,-0.006510417,-0.415364583,0,0,0,,0,145,145,40,1,SNAKE,C,old,m,./images/SNAKE.png,,,,,,,,,,,,,,,,,,,,,
,,,,,,,,,,,,,,,,,200425,18,2022-01-28_15h48.26.294,lexical_decision_task_DD_L6,2021.2.3,Win32,59.01097604,,,,,,,,,,,,0.5787,1,,,,,,,,,,,,,,m,1,0.5787,,,,,,,,-0.006510417,-0.415364583,0,0,0,,0,146,146,18,1,PARCEL,LB,old,m,./images/PARCELLB.png,,,,,,,,,,,,,,,,,,,,,
,,,,,,,,,,,,,,,,,200425,18,2022-01-28_15h48.26.294,lexical_decision_task_DD_L6,2021.2.3,Win32,59.01097604,,,,,,,,,,,,0.7276,1,,,,,,,,,,,,,,z,1,0.7276,,,,,,,,-0.006510417,-0.415364583,0,0,0,,0,147,147,123,1,SEDGE,C,old,z,./images/SEDGE.png,,,,,,,,,,,,,,,,,,,,,
,,,,,,,,,,,,,,,,,200425,18,2022-01-28_15h48.26.294,lexical_decision_task_DD_L6,2021.2.3,Win32,59.01097604,,,,,,,,,,,,0.8016,1,,,,,,,,,,,,,,m,1,0.8016,,,,,,,,-0.006510417,-0.415364583,0,0,0,,0,148,148,65,1,SPINE,HB,old,m,./images/SPINEHB.png,,,,,,,,,,,,,,,,,,,,,
,,,,,,,,,,,,,,,,,200425,18,2022-01-28_15h48.26.294,lexical_decision_task_DD_L6,2021.2.3,Win32,59.01097604,,,,,,,,,,,,1.7059,1,,,,,,,,,,,,,,z,1,1.7059,,,,,,,,-0.006510417,-0.415364583,0,0,0,,0,149,149,91,1,SHENS,HB,old,z,./images/SHENSHB.png,,,,,,,,,,,,,,,,,,,,,
,,,,,,,,,,,,,,,,,200425,18,2022-01-28_15h48.26.294,lexical_decision_task_DD_L6,2021.2.3,Win32,59.01097604,,,,,,,,,,,,0.6645,1,,,,,,,,,,,,,,z,1,0.6645,,,,,,,,-0.006510417,-0.415364583,0,0,0,,0,150,150,120,1,RINED,C,old,z,./images/RINED.png,,,,,,,,,,,,,,,,,,,,,
,,,,,,,,,,,,,,,,,200425,18,2022-01-28_15h48.26.294,lexical_decision_task_DD_L6,2021.2.3,Win32,59.01097604,,,,,,,,,,,,0.654,1,,,,,,,,,,,,,,m,1,0.654,,,,,,,,-0.006510417,-0.415364583,0,0,0,,0,151,151,13,1,BUNNY,C,old,m,./images/BUNNY.png,,,,,,,,,,,,,,,,,,,,,
,,,,,,,,,,,,,,,,,200425,18,2022-01-28_15h48.26.294,lexical_decision_task_DD_L6,2021.2.3,Win32,59.01097604,,,,,,,,,,,,0.7779,1,,,,,,,,,,,,,,z,1,0.7779,,,,,,,,-0.006510417,-0.415364583,0,0,0,,0,152,152,108,1,GRUET,C,old,z,./images/GRUET.png,,,,,,,,,,,,,,,,,,,,,
,,,,,,,,,,,,,,,,,200425,18,2022-01-28_15h48.26.294,lexical_decision_task_DD_L6,2021.2.3,Win32,59.01097604,,,,,,,,,,,,0.6624,1,,,,,,,,,,,,,,z,1,0.6624,,,,,,,,-0.006510417,-0.415364583,0,0,0,,0,153,153,105,1,MOKER,C,old,z,./images/MOKER.png,,,,,,,,,,,,,,,,,,,,,
,,,,,,,,,,,,,,,,,200425,18,2022-01-28_15h48.26.294,lexical_decision_task_DD_L6,2021.2.3,Win32,59.01097604,,,,,,,,,,,,0.6369,1,,,,,,,,,,,,,,m,1,0.6369,,,,,,,,-0.006510417,-0.415364583,0,0,0,,0,154,154,5,1,BAMBOO,HB,old,m,./images/BAMBOOHB.png,,,,,,,,,,,,,,,,,,,,,
,,,,,,,,,,,,,,,,,200425,18,2022-01-28_15h48.26.294,lexical_decision_task_DD_L6,2021.2.3,Win32,59.01097604,,,,,,,,,,,,0.734,1,,,,,,,,,,,,,,m,1,0.734,,,,,,,,-0.006510417,-0.415364583,0,0,0,,0,155,155,82,1,PEBBLE,C,old,m,./images/PEBBLE.png,,,,,,,,,,,,,,,,,,,,,
,,,,,,,,,,,,,,,,,200425,18,2022-01-28_15h48.26.294,lexical_decision_task_DD_L6,2021.2.3,Win32,59.01097604,,,,,,,,,,,,0.5684,1,,,,,,,,,,,,,,z,1,0.5684,,,,,,,,-0.006510417,-0.415364583,0,0,0,,0,156,156,117,1,STEEG,C,old,z,./images/STEEG.png,,,,,,,,,,,,,,,,,,,,,
,,,,,,,,,,,,,,,,,200425,18,2022-01-28_15h48.26.294,lexical_decision_task_DD_L6,2021.2.3,Win32,59.01097604,,,,,,,,,,,,0.4855,1,,,,,,,,,,,,,,m,1,0.4855,,,,,,,,-0.006510417,-0.415364583,0,0,0,,0,157,157,45,1,MONKEY,LB,old,m,./images/MONKEYLB.png,,,,,,,,,,,,,,,,,,,,,
,,,,,,,,,,,,,,,,,200425,18,2022-01-28_15h48.26.294,lexical_decision_task_DD_L6,2021.2.3,Win32,59.01097604,,,,,,,,,,,,0.6721,0,,,,,,,,,,,,,,z,0,0.6721,,,,,,,,-0.006510417,-0.415364583,0,0,0,,0,158,158,41,1,STREAM,HB,old,m,./images/STREAMHB.png,,,,,,,,,,,,,,,,,,,,,
,,,,,,,,,,,,,,,,,200425,18,2022-01-28_15h48.26.294,lexical_decision_task_DD_L6,2021.2.3,Win32,59.01097604,,,,,,,,,,,,0.6324,1,,,,,,,,,,,,,,m,1,0.6324,,,,,,,,-0.006510417,-0.415364583,0,0,0,,0,159,159,14,1,FENCE,HB,old,m,./images/FENCEHB.png,,,,,,,,,,,,,,,,,,,,,
,,,,,,,,,,,,,,,,,200425,18,2022-01-28_15h48.26.294,lexical_decision_task_DD_L6,2021.2.3,Win32,59.01097604,,,,,,,,,,,,0.748,1,,,,,,,,,,,,,,m,1,0.748,,,,,,,,-0.006510417,-0.415364583,0,0,0,,0,160,160,3,1,CRATER,LB,old,m,./images/CRATERLB.png,,,,,,,,,,,,,,,,,,,,,
,,,,,,,,,,,,,,,,,200425,18,2022-01-28_15h48.26.294,lexical_decision_task_DD_L6,2021.2.3,Win32,59.01097604,,,,,,,,,,,,0.712,1,,,,,,,,,,,,,,m,1,0.712,,,,,,,,-0.006510417,-0.415364583,0,0,0,,0,161,161,59,1,BRUSH,HB,old,m,./images/BRUSHHB.png,,,,,,,,,,,,,,,,,,,,,
,,,,,,,,,,,,,,,,,200425,18,2022-01-28_15h48.26.294,lexical_decision_task_DD_L6,2021.2.3,Win32,59.01097604,,,,,,,,,,,,0.9877,1,,,,,,,,,,,,,,z,1,0.9877,,,,,,,,-0.006510417,-0.415364583,0,0,0,,0,162,162,152,1,FRAIN,LB,old,z,./images/FRAINLB.png,,,,,,,,,,,,,,,,,,,,,
,,,,,,,,,,,,,,,,,200425,18,2022-01-28_15h48.26.294,lexical_decision_task_DD_L6,2021.2.3,Win32,59.01097604,,,,,,,,,,,,0.7904,1,,,,,,,,,,,,,,z,1,0.7904,,,,,,,,-0.006510417,-0.415364583,0,0,0,,0,163,163,165,1,TROWN,C,old,z,./images/TROWN.png,,,,,,,,,,,,,,,,,,,,,
,,,,,,,,,,,,,,,,,200425,18,2022-01-28_15h48.26.294,lexical_decision_task_DD_L6,2021.2.3,Win32,59.01097604,,,,,,,,,,,,0.5213,1,,,,,,,,,,,,,,z,1,0.5213,,,,,,,,-0.006510417,-0.415364583,0,0,0,,0,164,164,132,1,SCIFF,C,old,z,./images/SCIFF.png,,,,,,,,,,,,,,,,,,,,,
,,,,,,,,,,,,,,,,,200425,18,2022-01-28_15h48.26.294,lexical_decision_task_DD_L6,2021.2.3,Win32,59.01097604,,,,,,,,,,,,0.6122,1,,,,,,,,,,,,,,m,1,0.6122,,,,,,,,-0.006510417,-0.415364583,0,0,0,,0,165,165,55,1,ALLEY,C,old,m,./images/ALLEY.png,,,,,,,,,,,,,,,,,,,,,
,,,,,,,,,,,,,,,,,200425,18,2022-01-28_15h48.26.294,lexical_decision_task_DD_L6,2021.2.3,Win32,59.01097604,,,,,,,,,,,,0.5267,1,,,,,,,,,,,,,,m,1,0.5267,,,,,,,,-0.006510417,-0.415364583,0,0,0,,0,166,166,78,1,BROOM,LB,old,m,./images/BROOMLB.png,,,,,,,,,,,,,,,,,,,,,
,,,,,,,,,,,,,,,,,200425,18,2022-01-28_15h48.26.294,lexical_decision_task_DD_L6,2021.2.3,Win32,59.01097604,,,,,,,,,,,,0.8901,1,,,,,,,,,,,,,,z,1,0.8901,,,,,,,,-0.006510417,-0.415364583,0,0,0,,0,167,167,156,1,HIXES,C,old,z,./images/HIXES.png,,,,,,,,,,,,,,,,,,,,,
,-0.006510417,-0.415364583,1,0,0,instr_done_button,,,,,,1,test,"In the next phase you will be presented with the words from the the first phase. Your job is to decide whether you remember seeing the word or not. If you remember seeing the word press ""old"" or type ""m"". If you do not remember seeing the word press ""new"" or type ""z"". Please press the space bar or click on continue to begin. ",,,200425,18,2022-01-28_15h48.26.294,lexical_decision_task_DD_L6,2021.2.3,Win32,59.01097604,,,,,,,,,,,,,,,,,,,,,,,,,,,,,,,,,,,,,,,,,,,,,,,,,,,,,,0,0,0,0,1,,,,,,,,,,,,,,,
,-0.006510417,-0.415364583,1,0,0,instr_done_button,,,,,,1,test,"In the next phase you will be presented with the words from the the first phase. Your job is to decide whether you remember seeing the word or not. If you remember seeing the word press ""old"" or type ""m"". If you do not remember seeing the word press ""new"" or type ""z"". Please press the space bar or click on continue to begin. ",,,200425,18,2022-01-28_15h48.26.294,lexical_decision_task_DD_L6,2021.2.3,Win32,59.01097604,,,,,,,,,,,,,,,,,,,,,,,,,,,,,,,,,,,,,,,,,,,,,,,,,,,,,,1,0,1,0,1,,,,,,,,,,,,,,,
space,-0.006510417,-0.415364583,0,0,0,,,,,,,1,test,"In the next phase you will be presented with the words from the the first phase. Your job is to decide whether you remember seeing the word or not. If you remember seeing the word press ""old"" or type ""m"". If you do not remember seeing the word press ""new"" or type ""z"". Please press the space bar or click on continue to begin. ",,,200425,18,2022-01-28_15h48.26.294,lexical_decision_task_DD_L6,2021.2.3,Win32,59.01097604,1.0719,,,,,,,,,,,,,,,,,,,,,,,,,,,,,,,,,,,,,,,,,,,,,,,,,,,,,2,0,2,0,1,,,,,,,,,,,,,,,
,0.0625,-0.365885417,1,0,0,instr_done_button,,,,,,1,test,"In the next phase you will be presented with the words from the the first phase. Your job is to decide whether you remember seeing the word or not. If you remember seeing the word press ""old"" or type ""m"". If you do not remember seeing the word press ""new"" or type ""z"". Please press the space bar or click on continue to begin. ",,,200425,18,2022-01-28_15h48.26.294,lexical_decision_task_DD_L6,2021.2.3,Win32,59.01097604,,,,,,,,,,,,,,,,,,,,,,,,,,,,,,,,,,,,,,,,,,,,,,,,,,,,,,3,0,3,0,1,,,,,,,,,,,,,,,
space,0.0625,-0.365885417,0,0,0,,,,,,,1,test,"In the next phase you will be presented with the words from the the first phase. Your job is to decide whether you remember seeing the word or not. If you remember seeing the word press ""old"" or type ""m"". If you do not remember seeing the word press ""new"" or type ""z"". Please press the space bar or click on continue to begin. ",,,200425,18,2022-01-28_15h48.26.294,lexical_decision_task_DD_L6,2021.2.3,Win32,59.01097604,4.482,,,,,,,,,,,,,,,,,,,,,,,,,,,,,,,,,,,,,,,,,,,,,,,,,,,,,4,0,4,0,1,,,,,,,,,,,,,,,
,,,,,,,,,,,,,,,,,200425,18,2022-01-28_15h48.26.294,lexical_decision_task_DD_L6,2021.2.3,Win32,59.01097604,,,,,,,,,,,,4.324,0,,,,,,,,,,,,,,,,,,,,,,,,0.0625,-0.365885417,0,0,0,,,,,,,PLANK,C,z,y,./images/PLANK.png,,,,,,,m,0,4.324,,,,,,,,0,0,0,85,1
,,,,,,,,,,,,,,,,,200425,18,2022-01-28_15h48.26.294,lexical_decision_task_DD_L6,2021.2.3,Win32,59.01097604,,,,,,,,,,,,0.7239,1,,,,,,,,,,,,,,,,,,,,,,,,0.0625,-0.365885417,0,0,0,,,,,,,CHALK,C,m,y,./images/CHALK.png,,,,,,,m,1,0.7239,,,,,,,,0,1,1,25,1
,,,,,,,,,,,,,,,,,200425,18,2022-01-28_15h48.26.294,lexical_decision_task_DD_L6,2021.2.3,Win32,59.01097604,,,,,,,,,,,,0.6671,1,,,,,,,,,,,,,,,,,,,,,,,,0.0625,-0.365885417,0,0,0,,,,,,,CLOUD,HB,m,y,./images/CLOUDHB.png,,,,,,,m,1,0.6671,,,,,,,,0,2,2,26,1
,,,,,,,,,,,,,,,,,200425,18,2022-01-28_15h48.26.294,lexical_decision_task_DD_L6,2021.2.3,Win32,59.01097604,,,,,,,,,,,,0.6126,1,,,,,,,,,,,,,,,,,,,,,,,,0.0625,-0.365885417,0,0,0,,,,,,,CHERRY,LB,m,y,./images/CHERRYLB.png,,,,,,,m,1,0.6126,,,,,,,,0,3,3,54,1
,,,,,,,,,,,,,,,,,200425,18,2022-01-28_15h48.26.294,lexical_decision_task_DD_L6,2021.2.3,Win32,59.01097604,,,,,,,,,,,,0.6006,1,,,,,,,,,,,,,,,,,,,,,,,,0.0625,-0.365885417,0,0,0,,,,,,,POKER,C,m,y,./images/POKER.png,,,,,,,m,1,0.6006,,,,,,,,0,4,4,67,1
,,,,,,,,,,,,,,,,,200425,18,2022-01-28_15h48.26.294,lexical_decision_task_DD_L6,2021.2.3,Win32,59.01097604,,,,,,,,,,,,0.7344,1,,,,,,,,,,,,,,,,,,,,,,,,0.0625,-0.365885417,0,0,0,,,,,,,DIVER,LB,m,y,./images/DIVERLB.png,,,,,,,m,1,0.7344,,,,,,,,0,5,5,9,1
,,,,,,,,,,,,,,,,,200425,18,2022-01-28_15h48.26.294,lexical_decision_task_DD_L6,2021.2.3,Win32,59.01097604,,,,,,,,,,,,0.7017,1,,,,,,,,,,,,,,,,,,,,,,,,0.0625,-0.365885417,0,0,0,,,,,,,BURIAL,HB,z,y,./images/BURIALHB.png,,,,,,,z,1,0.7017,,,,,,,,0,6,6,143,1
,,,,,,,,,,,,,,,,,200425,18,2022-01-28_15h48.26.294,lexical_decision_task_DD_L6,2021.2.3,Win32,59.01097604,,,,,,,,,,,,0.7289,1,,,,,,,,,,,,,,,,,,,,,,,,0.0625,-0.365885417,0,0,0,,,,,,,DESERT,C,m,y,./images/DESERT.png,,,,,,,m,1,0.7289,,,,,,,,0,7,7,52,1
,,,,,,,,,,,,,,,,,200425,18,2022-01-28_15h48.26.294,lexical_decision_task_DD_L6,2021.2.3,Win32,59.01097604,,,,,,,,,,,,0.7684,0,,,,,,,,,,,,,,,,,,,,,,,,0.0625,-0.365885417,0,0,0,,,,,,,HOCKEY,HB,m,y,./images/HOCKEYHB.png,,,,,,,z,0,0.7684,,,,,,,,0,8,8,32,1
,,,,,,,,,,,,,,,,,200425,18,2022-01-28_15h48.26.294,lexical_decision_task_DD_L6,2021.2.3,Win32,59.01097604,,,,,,,,,,,,0.8368,1,,,,,,,,,,,,,,,,,,,,,,,,0.0625,-0.365885417,0,0,0,,,,,,,PICKLE,HB,z,y,./images/PICKLEHB.png,,,,,,,z,1,0.8368,,,,,,,,0,9,9,98,1
,,,,,,,,,,,,,,,,,200425,18,2022-01-28_15h48.26.294,lexical_decision_task_DD_L6,2021.2.3,Win32,59.01097604,,,,,,,,,,,,0.9286,1,,,,,,,,,,,,,,,,,,,,,,,,0.0625,-0.365885417,0,0,0,,,,,,,TULIP,HB,z,y,./images/TULIPHB.png,,,,,,,z,1,0.9286,,,,,,,,0,10,10,92,1
,,,,,,,,,,,,,,,,,200425,18,2022-01-28_15h48.26.294,lexical_decision_task_DD_L6,2021.2.3,Win32,59.01097604,,,,,,,,,,,,0.9349,0,,,,,,,,,,,,,,,,,,,,,,,,0.0625,-0.365885417,0,0,0,,,,,,,BUTTER,LB,m,y,./images/BUTTERLB.png,,,,,,,z,0,0.9349,,,,,,,,0,11,11,27,1
,,,,,,,,,,,,,,,,,200425,18,2022-01-28_15h48.26.294,lexical_decision_task_DD_L6,2021.2.3,Win32,59.01097604,,,,,,,,,,,,0.6173,1,,,,,,,,,,,,,,,,,,,,,,,,0.0625,-0.365885417,0,0,0,,,,,,,CHAIN,LB,m,y,./images/CHAINLB.png,,,,,,,m,1,0.6173,,,,,,,,0,12,12,42,1
,,,,,,,,,,,,,,,,,200425,18,2022-01-28_15h48.26.294,lexical_decision_task_DD_L6,2021.2.3,Win32,59.01097604,,,,,,,,,,,,0.9031,1,,,,,,,,,,,,,,,,,,,,,,,,0.0625,-0.365885417,0,0,0,,,,,,,JUMPER,HB,m,y,./images/JUMPERHB.png,,,,,,,m,1,0.9031,,,,,,,,0,13,13,74,1
,,,,,,,,,,,,,,,,,200425,18,2022-01-28_15h48.26.294,lexical_decision_task_DD_L6,2021.2.3,Win32,59.01097604,,,,,,,,,,,,1.0159,1,,,,,,,,,,,,,,,,,,,,,,,,0.0625,-0.365885417,0,0,0,,,,,,,SWING,C,z,y,./images/SWING.png,,,,,,,z,1,1.0159,,,,,,,,0,14,14,124,1
,,,,,,,,,,,,,,,,,200425,18,2022-01-28_15h48.26.294,lexical_decision_task_DD_L6,2021.2.3,Win32,59.01097604,,,,,,,,,,,,0.6682,0,,,,,,,,,,,,,,,,,,,,,,,,0.0625,-0.365885417,0,0,0,,,,,,,STRING,HB,z,y,./images/STRINGHB.png,,,,,,,m,0,0.6682,,,,,,,,0,15,15,125,1
,,,,,,,,,,,,,,,,,200425,18,2022-01-28_15h48.26.294,lexical_decision_task_DD_L6,2021.2.3,Win32,59.01097604,,,,,,,,,,,,0.8521,1,,,,,,,,,,,,,,,,,,,,,,,,0.0625,-0.365885417,0,0,0,,,,,,,PAINT,C,z,y,./images/PAINT.png,,,,,,,z,1,0.8521,,,,,,,,0,16,16,91,1
,,,,,,,,,,,,,,,,,200425,18,2022-01-28_15h48.26.294,lexical_decision_task_DD_L6,2021.2.3,Win32,59.01097604,,,,,,,,,,,,0.8711,1,,,,,,,,,,,,,,,,,,,,,,,,0.0625,-0.365885417,0,0,0,,,,,,,DRUMS,C,z,y,./images/DRUMS.png,,,,,,,z,1,0.8711,,,,,,,,0,17,17,133,1
,,,,,,,,,,,,,,,,,200425,18,2022-01-28_15h48.26.294,lexical_decision_task_DD_L6,2021.2.3,Win32,59.01097604,,,,,,,,,,,,0.6193,0,,,,,,,,,,,,,,,,,,,,,,,,0.0625,-0.365885417,0,0,0,,,,,,,GREASE,LB,z,y,./images/GREASELB.png,,,,,,,m,0,0.6193,,,,,,,,0,18,18,99,1
,,,,,,,,,,,,,,,,,200425,18,2022-01-28_15h48.26.294,lexical_decision_task_DD_L6,2021.2.3,Win32,59.01097604,,,,,,,,,,,,1.3368,0,,,,,,,,,,,,,,,,,,,,,,,,0.0625,-0.365885417,0,0,0,,,,,,,CRADLE,HB,z,y,./images/CRADLEHB.png,,,,,,,m,0,1.3368,,,,,,,,0,19,19,104,1
,,,,,,,,,,,,,,,,,200425,18,2022-01-28_15h48.26.294,lexical_decision_task_DD_L6,2021.2.3,Win32,59.01097604,,,,,,,,,,,,1.353,1,,,,,,,,,,,,,,,,,,,,,,,,0.0625,-0.365885417,0,0,0,,,,,,,SHORE,LB,z,y,./images/SHORELB.png,,,,,,,z,1,1.353,,,,,,,,0,20,20,96,1
,,,,,,,,,,,,,,,,,200425,18,2022-01-28_15h48.26.294,lexical_decision_task_DD_L6,2021.2.3,Win32,59.01097604,,,,,,,,,,,,0.857,1,,,,,,,,,,,,,,,,,,,,,,,,0.0625,-0.365885417,0,0,0,,,,,,,PIMPLE,HB,z,y,./images/PIMPLEHB.png,,,,,,,z,1,0.857,,,,,,,,0,21,21,155,1
,,,,,,,,,,,,,,,,,200425,18,2022-01-28_15h48.26.294,lexical_decision_task_DD_L6,2021.2.3,Win32,59.01097604,,,,,,,,,,,,0.6998,1,,,,,,,,,,,,,,,,,,,,,,,,0.0625,-0.365885417,0,0,0,,,,,,,BUBBLE,HB,m,y,./images/BUBBLEHB.png,,,,,,,m,1,0.6998,,,,,,,,0,22,22,71,1
,,,,,,,,,,,,,,,,,200425,18,2022-01-28_15h48.26.294,lexical_decision_task_DD_L6,2021.2.3,Win32,59.01097604,,,,,,,,,,,,0.6345,1,,,,,,,,,,,,,,,,,,,,,,,,0.0625,-0.365885417,0,0,0,,,,,,,DONKEY,C,m,y,./images/DONKEY.png,,,,,,,m,1,0.6345,,,,,,,,0,23,23,19,1
,,,,,,,,,,,,,,,,,200425,18,2022-01-28_15h48.26.294,lexical_decision_task_DD_L6,2021.2.3,Win32,59.01097604,,,,,,,,,,,,0.7363,1,,,,,,,,,,,,,,,,,,,,,,,,0.0625,-0.365885417,0,0,0,,,,,,,PASTA,HB,z,y,./images/PASTAHB.png,,,,,,,z,1,0.7363,,,,,,,,0,24,24,89,1
,,,,,,,,,,,,,,,,,200425,18,2022-01-28_15h48.26.294,lexical_decision_task_DD_L6,2021.2.3,Win32,59.01097604,,,,,,,,,,,,1.1012,1,,,,,,,,,,,,,,,,,,,,,,,,0.0625,-0.365885417,0,0,0,,,,,,,LADDER,HB,z,y,./images/LADDERHB.png,,,,,,,z,1,1.1012,,,,,,,,0,25,25,122,1
,,,,,,,,,,,,,,,,,200425,18,2022-01-28_15h48.26.294,lexical_decision_task_DD_L6,2021.2.3,Win32,59.01097604,,,,,,,,,,,,1.0793,1,,,,,,,,,,,,,,,,,,,,,,,,0.0625,-0.365885417,0,0,0,,,,,,,BUNNY,C,m,y,./images/BUNNY.png,,,,,,,m,1,1.0793,,,,,,,,0,26,26,13,1
,,,,,,,,,,,,,,,,,200425,18,2022-01-28_15h48.26.294,lexical_decision_task_DD_L6,2021.2.3,Win32,59.01097604,,,,,,,,,,,,0.7997,1,,,,,,,,,,,,,,,,,,,,,,,,0.0625,-0.365885417,0,0,0,,,,,,,RAZOR,C,m,y,./images/RAZOR.png,,,,,,,m,1,0.7997,,,,,,,,0,27,27,34,1
,,,,,,,,,,,,,,,,,200425,18,2022-01-28_15h48.26.294,lexical_decision_task_DD_L6,2021.2.3,Win32,59.01097604,,,,,,,,,,,,0.734,1,,,,,,,,,,,,,,,,,,,,,,,,0.0625,-0.365885417,0,0,0,,,,,,,COOKER,LB,z,y,./images/COOKERLB.png,,,,,,,z,1,0.734,,,,,,,,0,28,28,153,1
,,,,,,,,,,,,,,,,,200425,18,2022-01-28_15h48.26.294,lexical_decision_task_DD_L6,2021.2.3,Win32,59.01097604,,,,,,,,,,,,0.6364,1,,,,,,,,,,,,,,,,,,,,,,,,0.0625,-0.365885417,0,0,0,,,,,,,FERRY,LB,m,y,./images/FERRYLB.png,,,,,,,m,1,0.6364,,,,,,,,0,29,29,57,1
,,,,,,,,,,,,,,,,,200425,18,2022-01-28_15h48.26.294,lexical_decision_task_DD_L6,2021.2.3,Win32,59.01097604,,,,,,,,,,,,0.9117,1,,,,,,,,,,,,,,,,,,,,,,,,0.0625,-0.365885417,0,0,0,,,,,,,MOOSE,LB,z,y,./images/MOOSELB.png,,,,,,,z,1,0.9117,,,,,,,,0,30,30,141,1
,,,,,,,,,,,,,,,,,200425,18,2022-01-28_15h48.26.294,lexical_decision_task_DD_L6,2021.2.3,Win32,59.01097604,,,,,,,,,,,,0.9869,1,,,,,,,,,,,,,,,,,,,,,,,,0.0625,-0.365885417,0,0,0,,,,,,,ATTIC,LB,z,y,./images/ATTICLB.png,,,,,,,z,1,0.9869,,,,,,,,0,31,31,111,1
,,,,,,,,,,,,,,,,,200425,18,2022-01-28_15h48.26.294,lexical_decision_task_DD_L6,2021.2.3,Win32,59.01097604,,,,,,,,,,,,0.5813,1,,,,,,,,,,,,,,,,,,,,,,,,0.0625,-0.365885417,0,0,0,,,,,,,LLAMA,HB,m,y,./images/LLAMAHB.png,,,,,,,m,1,0.5813,,,,,,,,0,32,32,35,1
,,,,,,,,,,,,,,,,,200425,18,2022-01-28_15h48.26.294,lexical_decision_task_DD_L6,2021.2.3,Win32,59.01097604,,,,,,,,,,,,0.702,1,,,,,,,,,,,,,,,,,,,,,,,,0.0625,-0.365885417,0,0,0,,,,,,,SAUCE,LB,m,y,./images/SAUCELB.png,,,,,,,m,1,0.702,,,,,,,,0,33,33,51,1
,,,,,,,,,,,,,,,,,200425,18,2022-01-28_15h48.26.294,lexical_decision_task_DD_L6,2021.2.3,Win32,59.01097604,,,,,,,,,,,,0.8843,0,,,,,,,,,,,,,,,,,,,,,,,,0.0625,-0.365885417,0,0,0,,,,,,,POSTER,HB,m,y,./images/POSTERHB.png,,,,,,,z,0,0.8843,,,,,,,,0,34,34,53,1
,,,,,,,,,,,,,,,,,200425,18,2022-01-28_15h48.26.294,lexical_decision_task_DD_L6,2021.2.3,Win32,59.01097604,,,,,,,,,,,,1.7013,0,,,,,,,,,,,,,,,,,,,,,,,,0.0625,-0.365885417,0,0,0,,,,,,,SKIING,HB,z,y,./images/SKIINGHB.png,,,,,,,m,0,1.7013,,,,,,,,0,35,35,101,1
,,,,,,,,,,,,,,,,,200425,18,2022-01-28_15h48.26.294,lexical_decision_task_DD_L6,2021.2.3,Win32,59.01097604,,,,,,,,,,,,0.7613,1,,,,,,,,,,,,,,,,,,,,,,,,0.0625,-0.365885417,0,0,0,,,,,,,RHINO,LB,z,y,./images/RHINOLB.png,,,,,,,z,1,0.7613,,,,,,,,0,36,36,93,1
,,,,,,,,,,,,,,,,,200425,18,2022-01-28_15h48.26.294,lexical_decision_task_DD_L6,2021.2.3,Win32,59.01097604,,,,,,,,,,,,0.6601,1,,,,,,,,,,,,,,,,,,,,,,,,0.0625,-0.365885417,0,0,0,,,,,,,BRUSH,HB,m,y,./images/BRUSHHB.png,,,,,,,m,1,0.6601,,,,,,,,0,37,37,59,1
,,,,,,,,,,,,,,,,,200425,18,2022-01-28_15h48.26.294,lexical_decision_task_DD_L6,2021.2.3,Win32,59.01097604,,,,,,,,,,,,0.9348,1,,,,,,,,,,,,,,,,,,,,,,,,0.0625,-0.365885417,0,0,0,,,,,,,SAUNA,LB,m,y,./images/SAUNALB.png,,,,,,,m,1,0.9348,,,,,,,,0,38,38,33,1
,,,,,,,,,,,,,,,,,200425,18,2022-01-28_15h48.26.294,lexical_decision_task_DD_L6,2021.2.3,Win32,59.01097604,,,,,,,,,,,,0.7908,1,,,,,,,,,,,,,,,,,,,,,,,,0.0625,-0.365885417,0,0,0,,,,,,,PACKET,HB,z,y,./images/PACKETHB.png,,,,,,,z,1,0.7908,,,,,,,,0,39,39,140,1
,,,,,,,,,,,,,,,,,200425,18,2022-01-28_15h48.26.294,lexical_decision_task_DD_L6,2021.2.3,Win32,59.01097604,,,,,,,,,,,,0.867,1,,,,,,,,,,,,,,,,,,,,,,,,0.0625,-0.365885417,0,0,0,,,,,,,SHELF,LB,z,y,./images/SHELFLB.png,,,,,,,z,1,0.867,,,,,,,,0,40,40,123,1
,,,,,,,,,,,,,,,,,200425,18,2022-01-28_15h48.26.294,lexical_decision_task_DD_L6,2021.2.3,Win32,59.01097604,,,,,,,,,,,,1.0502,1,,,,,,,,,,,,,,,,,,,,,,,,0.0625,-0.365885417,1,0,0,,,,,,,JUNGLE,HB,z,y,./images/JUNGLEHB.png,break_done_button,,,,,,z,1,1.0502,,,,,,,,0,41,41,167,1
,,,,,,,,,,,,,,,,,200425,18,2022-01-28_15h48.26.294,lexical_decision_task_DD_L6,2021.2.3,Win32,59.01097604,,,,,,,,,,,,0.673,1,,,,,,,,,,,,,,,,,,,,,,,,0.0625,-0.365885417,0,0,0,,,,,,,CURRY,LB,m,y,./images/CURRYLB.png,,,,,,,m,1,0.673,,,,,,,,0,42,42,60,1
,,,,,,,,,,,,,,,,,200425,18,2022-01-28_15h48.26.294,lexical_decision_task_DD_L6,2021.2.3,Win32,59.01097604,,,,,,,,,,,,0.6581,1,,,,,,,,,,,,,,,,,,,,,,,,0.0625,-0.365885417,0,0,0,,,,,,,LAGOON,HB,m,y,./images/LAGOONHB.png,,,,,,,m,1,0.6581,,,,,,,,0,43,43,47,1
,,,,,,,,,,,,,,,,,200425,18,2022-01-28_15h48.26.294,lexical_decision_task_DD_L6,2021.2.3,Win32,59.01097604,,,,,,,,,,,,0.6351,1,,,,,,,,,,,,,,,,,,,,,,,,0.0625,-0.365885417,0,0,0,,,,,,,LITTER,LB,z,y,./images/LITTERLB.png,,,,,,,z,1,0.6351,,,,,,,,0,44,44,162,1
,,,,,,,,,,,,,,,,,200425,18,2022-01-28_15h48.26.294,lexical_decision_task_DD_L6,2021.2.3,Win32,59.01097604,,,,,,,,,,,,0.5221,1,,,,,,,,,,,,,,,,,,,,,,,,0.0625,-0.365885417,0,0,0,,,,,,,PLANET,HB,m,y,./images/PLANETHB.png,,,,,,,m,1,0.5221,,,,,,,,0,45,45,80,1
,,,,,,,,,,,,,,,,,200425,18,2022-01-28_15h48.26.294,lexical_decision_task_DD_L6,2021.2.3,Win32,59.01097604,,,,,,,,,,,,0.5995,0,,,,,,,,,,,,,,,,,,,,,,,,0.0625,-0.365885417,0,0,0,,,,,,,CRUMB,HB,z,y,./images/CRUMBHB.png,,,,,,,m,0,0.5995,,,,,,,,0,46,46,113,1
,,,,,,,,,,,,,,,,,200425,18,2022-01-28_15h48.26.294,lexical_decision_task_DD_L6,2021.2.3,Win32,59.01097604,,,,,,,,,,,,0.7181,1,,,,,,,,,,,,,,,,,,,,,,,,0.0625,-0.365885417,0,0,0,,,,,,,STATUE,LB,m,y,./images/STATUELB.png,,,,,,,m,1,0.7181,,,,,,,,0,47,47,66,1
,,,,,,,,,,,,,,,,,200425,18,2022-01-28_15h48.26.294,lexical_decision_task_DD_L6,2021.2.3,Win32,59.01097604,,,,,,,,,,,,0.8674,1,,,,,,,,,,,,,,,,,,,,,,,,0.0625,-0.365885417,0,0,0,,,,,,,NOOSE,LB,z,y,./images/NOOSELB.png,,,,,,,z,1,0.8674,,,,,,,,0,48,48,156,1
,,,,,,,,,,,,,,,,,200425,18,2022-01-28_15h48.26.294,lexical_decision_task_DD_L6,2021.2.3,Win32,59.01097604,,,,,,,,,,,,0.8465,0,,,,,,,,,,,,,,,,,,,,,,,,0.0625,-0.365885417,0,0,0,,,,,,,CANDLE,C,z,y,./images/CANDLE.png,,,,,,,m,0,0.8465,,,,,,,,0,49,49,145,1
,,,,,,,,,,,,,,,,,200425,18,2022-01-28_15h48.26.294,lexical_decision_task_DD_L6,2021.2.3,Win32,59.01097604,,,,,,,,,,,,0.6751,1,,,,,,,,,,,,,,,,,,,,,,,,0.0625,-0.365885417,0,0,0,,,,,,,FALCON,C,z,y,./images/FALCON.png,,,,,,,z,1,0.6751,,,,,,,,0,50,50,112,1
,,,,,,,,,,,,,,,,,200425,18,2022-01-28_15h48.26.294,lexical_decision_task_DD_L6,2021.2.3,Win32,59.01097604,,,,,,,,,,,,0.5501,0,,,,,,,,,,,,,,,,,,,,,,,,0.0625,-0.365885417,0,0,0,,,,,,,TIGER,C,m,y,./images/TIGER.png,,,,,,,z,0,0.5501,,,,,,,,0,51,51,37,1
,,,,,,,,,,,,,,,,,200425,18,2022-01-28_15h48.26.294,lexical_decision_task_DD_L6,2021.2.3,Win32,59.01097604,,,,,,,,,,,,0.6844,0,,,,,,,,,,,,,,,,,,,,,,,,0.0625,-0.365885417,0,0,0,,,,,,,SCREW,LB,z,y,./images/SCREWLB.png,,,,,,,m,0,0.6844,,,,,,,,0,52,52,108,1
,,,,,,,,,,,,,,,,,200425,18,2022-01-28_15h48.26.294,lexical_decision_task_DD_L6,2021.2.3,Win32,59.01097604,,,,,,,,,,,,0.8681,1,,,,,,,,,,,,,,,,,,,,,,,,0.0625,-0.365885417,0,0,0,,,,,,,DOUGH,C,z,y,./images/DOUGH.png,,,,,,,z,1,0.8681,,,,,,,,0,53,53,103,1
,,,,,,,,,,,,,,,,,200425,18,2022-01-28_15h48.26.294,lexical_decision_task_DD_L6,2021.2.3,Win32,59.01097604,,,,,,,,,,,,0.7245,1,,,,,,,,,,,,,,,,,,,,,,,,0.0625,-0.365885417,0,0,0,,,,,,,BAKER,LB,m,y,./images/BAKERLB.png,,,,,,,m,1,0.7245,,,,,,,,0,54,54,63,1
,,,,,,,,,,,,,,,,,200425,18,2022-01-28_15h48.26.294,lexical_decision_task_DD_L6,2021.2.3,Win32,59.01097604,,,,,,,,,,,,0.674,0,,,,,,,,,,,,,,,,,,,,,,,,0.0625,-0.365885417,0,0,0,,,,,,,WAGON,C,m,y,./images/WAGON.png,,,,,,,z,0,0.674,,,,,,,,0,55,55,7,1
,,,,,,,,,,,,,,,,,200425,18,2022-01-28_15h48.26.294,lexical_decision_task_DD_L6,2021.2.3,Win32,59.01097604,,,,,,,,,,,,0.8885,1,,,,,,,,,,,,,,,,,,,,,,,,0.0625,-0.365885417,0,0,0,,,,,,,BANNER,C,z,y,./images/BANNER.png,,,,,,,z,1,0.8885,,,,,,,,0,56,56,136,1
,,,,,,,,,,,,,,,,,200425,18,2022-01-28_15h48.26.294,lexical_decision_task_DD_L6,2021.2.3,Win32,59.01097604,,,,,,,,,,,,0.7266,1,,,,,,,,,,,,,,,,,,,,,,,,0.0625,-0.365885417,0,0,0,,,,,,,MAMMAL,HB,m,y,./images/MAMMALHB.png,,,,,,,m,1,0.7266,,,,,,,,0,57,57,62,1
,,,,,,,,,,,,,,,,,200425,18,2022-01-28_15h48.26.294,lexical_decision_task_DD_L6,2021.2.3,Win32,59.01097604,,,,,,,,,,,,0.6001,1,,,,,,,,,,,,,,,,,,,,,,,,0.0625,-0.365885417,0,0,0,,,,,,,CANOE,C,m,y,./images/CANOE.png,,,,,,,m,1,0.6001,,,,,,,,0,58,58,58,1
,,,,,,,,,,,,,,,,,200425,18,2022-01-28_15h48.26.294,lexical_decision_task_DD_L6,2021.2.3,Win32,59.01097604,,,,,,,,,,,,1.3757,0,,,,,,,,,,,,,,,,,,,,,,,,0.0625,-0.365885417,0,0,0,,,,,,,KITTEN,LB,z,y,./images/KITTENLB.png,,,,,,,m,0,1.3757,,,,,,,,0,59,59,129,1
,,,,,,,,,,,,,,,,,200425,18,2022-01-28_15h48.26.294,lexical_decision_task_DD_L6,2021.2.3,Win32,59.01097604,,,,,,,,,,,,0.8498,1,,,,,,,,,,,,,,,,,,,,,,,,0.0625,-0.365885417,0,0,0,,,,,,,MELON,C,z,y,./images/MELON.png,,,,,,,z,1,0.8498,,,,,,,,0,60,60,106,1
,,,,,,,,,,,,,,,,,200425,18,2022-01-28_15h48.26.294,lexical_decision_task_DD_L6,2021.2.3,Win32,59.01097604,,,,,,,,,,,,0.684,1,,,,,,,,,,,,,,,,,,,,,,,,0.0625,-0.365885417,0,0,0,,,,,,,INFANT,C,z,y,./images/INFANT.png,,,,,,,z,1,0.684,,,,,,,,0,61,61,160,1
,,,,,,,,,,,,,,,,,200425,18,2022-01-28_15h48.26.294,lexical_decision_task_DD_L6,2021.2.3,Win32,59.01097604,,,,,,,,,,,,0.7428,1,,,,,,,,,,,,,,,,,,,,,,,,0.0625,-0.365885417,0,0,0,,,,,,,FLASK,LB,m,y,./images/FLASKLB.png,,,,,,,m,1,0.7428,,,,,,,,0,62,62,72,1
,,,,,,,,,,,,,,,,,200425,18,2022-01-28_15h48.26.294,lexical_decision_task_DD_L6,2021.2.3,Win32,59.01097604,,,,,,,,,,,,0.8624,0,,,,,,,,,,,,,,,,,,,,,,,,0.0625,-0.365885417,0,0,0,,,,,,,SWEAT,LB,z,y,./images/SWEATLB.png,,,,,,,m,0,0.8624,,,,,,,,0,63,63,150,1
,,,,,,,,,,,,,,,,,200425,18,2022-01-28_15h48.26.294,lexical_decision_task_DD_L6,2021.2.3,Win32,59.01097604,,,,,,,,,,,,0.8168,1,,,,,,,,,,,,,,,,,,,,,,,,0.0625,-0.365885417,0,0,0,,,,,,,BISHOP,C,m,y,./images/BISHOP.png,,,,,,,m,1,0.8168,,,,,,,,0,64,64,49,1
,,,,,,,,,,,,,,,,,200425,18,2022-01-28_15h48.26.294,lexical_decision_task_DD_L6,2021.2.3,Win32,59.01097604,,,,,,,,,,,,0.715,0,,,,,,,,,,,,,,,,,,,,,,,,0.0625,-0.365885417,0,0,0,,,,,,,FLESH,LB,m,y,./images/FLESHLB.png,,,,,,,z,0,0.715,,,,,,,,0,65,65,24,1
,,,,,,,,,,,,,,,,,200425,18,2022-01-28_15h48.26.294,lexical_decision_task_DD_L6,2021.2.3,Win32,59.01097604,,,,,,,,,,,,0.6905,1,,,,,,,,,,,,,,,,,,,,,,,,0.0625,-0.365885417,0,0,0,,,,,,,WRIST,C,z,y,./images/WRIST.png,,,,,,,z,1,0.6905,,,,,,,,0,66,66,109,1
,,,,,,,,,,,,,,,,,200425,18,2022-01-28_15h48.26.294,lexical_decision_task_DD_L6,2021.2.3,Win32,59.01097604,,,,,,,,,,,,0.5653,1,,,,,,,,,,,,,,,,,,,,,,,,0.0625,-0.365885417,0,0,0,,,,,,,CRATER,LB,m,y,./images/CRATERLB.png,,,,,,,m,1,0.5653,,,,,,,,0,67,67,3,1
,,,,,,,,,,,,,,,,,200425,18,2022-01-28_15h48.26.294,lexical_decision_task_DD_L6,2021.2.3,Win32,59.01097604,,,,,,,,,,,,0.7866,1,,,,,,,,,,,,,,,,,,,,,,,,0.0625,-0.365885417,0,0,0,,,,,,,SAILOR,C,z,y,./images/SAILOR.png,,,,,,,z,1,0.7866,,,,,,,,0,68,68,151,1
,,,,,,,,,,,,,,,,,200425,18,2022-01-28_15h48.26.294,lexical_decision_task_DD_L6,2021.2.3,Win32,59.01097604,,,,,,,,,,,,0.9647,1,,,,,,,,,,,,,,,,,,,,,,,,0.0625,-0.365885417,0,0,0,,,,,,,WEASEL,HB,z,y,./images/WEASELHB.png,,,,,,,z,1,0.9647,,,,,,,,0,69,69,164,1
,,,,,,,,,,,,,,,,,200425,18,2022-01-28_15h48.26.294,lexical_decision_task_DD_L6,2021.2.3,Win32,59.01097604,,,,,,,,,,,,0.8012,1,,,,,,,,,,,,,,,,,,,,,,,,0.0625,-0.365885417,0,0,0,,,,,,,FENCE,HB,m,y,./images/FENCEHB.png,,,,,,,m,1,0.8012,,,,,,,,0,70,70,14,1
,,,,,,,,,,,,,,,,,200425,18,2022-01-28_15h48.26.294,lexical_decision_task_DD_L6,2021.2.3,Win32,59.01097604,,,,,,,,,,,,1.1836,1,,,,,,,,,,,,,,,,,,,,,,,,0.0625,-0.365885417,0,0,0,,,,,,,BIRTH,C,z,y,./images/BIRTH.png,,,,,,,z,1,1.1836,,,,,,,,0,71,71,121,1
,,,,,,,,,,,,,,,,,200425,18,2022-01-28_15h48.26.294,lexical_decision_task_DD_L6,2021.2.3,Win32,59.01097604,,,,,,,,,,,,0.952,1,,,,,,,,,,,,,,,,,,,,,,,,0.0625,-0.365885417,0,0,0,,,,,,,SQUARE,LB,z,y,./images/SQUARELB.png,,,,,,,z,1,0.952,,,,,,,,0,72,72,90,1
,,,,,,,,,,,,,,,,,200425,18,2022-01-28_15h48.26.294,lexical_decision_task_DD_L6,2021.2.3,Win32,59.01097604,,,,,,,,,,,,0.6934,1,,,,,,,,,,,,,,,,,,,,,,,,0.0625,-0.365885417,0,0,0,,,,,,,TOMATO,LB,z,y,./images/TOMATOLB.png,,,,,,,z,1,0.6934,,,,,,,,0,73,73,84,1
,,,,,,,,,,,,,,,,,200425,18,2022-01-28_15h48.26.294,lexical_decision_task_DD_L6,2021.2.3,Win32,59.01097604,,,,,,,,,,,,1.0586,0,,,,,,,,,,,,,,,,,,,,,,,,0.0625,-0.365885417,0,0,0,,,,,,,BOXER,C,m,y,./images/BOXER.png,,,,,,,z,0,1.0586,,,,,,,,0,74,74,4,1
,,,,,,,,,,,,,,,,,200425,18,2022-01-28_15h48.26.294,lexical_decision_task_DD_L6,2021.2.3,Win32,59.01097604,,,,,,,,,,,,0.7604,1,,,,,,,,,,,,,,,,,,,,,,,,0.0625,-0.365885417,0,0,0,,,,,,,MUSCLE,C,z,y,./images/MUSCLE.png,,,,,,,z,1,0.7604,,,,,,,,0,75,75,88,1
,,,,,,,,,,,,,,,,,200425,18,2022-01-28_15h48.26.294,lexical_decision_task_DD_L6,2021.2.3,Win32,59.01097604,,,,,,,,,,,,0.8401,1,,,,,,,,,,,,,,,,,,,,,,,,0.0625,-0.365885417,0,0,0,,,,,,,PEACH,HB,z,y,./images/PEACHHB.png,,,,,,,z,1,0.8401,,,,,,,,0,76,76,119,1
,,,,,,,,,,,,,,,,,200425,18,2022-01-28_15h48.26.294,lexical_decision_task_DD_L6,2021.2.3,Win32,59.01097604,,,,,,,,,,,,0.6337,1,,,,,,,,,,,,,,,,,,,,,,,,0.0625,-0.365885417,0,0,0,,,,,,,VALLEY,HB,m,y,./images/VALLEYHB.png,,,,,,,m,1,0.6337,,,,,,,,0,77,77,68,1
,,,,,,,,,,,,,,,,,200425,18,2022-01-28_15h48.26.294,lexical_decision_task_DD_L6,2021.2.3,Win32,59.01097604,,,,,,,,,,,,0.8389,1,,,,,,,,,,,,,,,,,,,,,,,,0.0625,-0.365885417,0,0,0,,,,,,,DANCER,LB,m,y,./images/DANCERLB.png,,,,,,,m,1,0.8389,,,,,,,,0,78,78,21,1
,,,,,,,,,,,,,,,,,200425,18,2022-01-28_15h48.26.294,lexical_decision_task_DD_L6,2021.2.3,Win32,59.01097604,,,,,,,,,,,,0.6905,1,,,,,,,,,,,,,,,,,,,,,,,,0.0625,-0.365885417,0,0,0,,,,,,,KIDNEY,LB,z,y,./images/KIDNEYLB.png,,,,,,,z,1,0.6905,,,,,,,,0,79,79,105,1
,,,,,,,,,,,,,,,,,200425,18,2022-01-28_15h48.26.294,lexical_decision_task_DD_L6,2021.2.3,Win32,59.01097604,,,,,,,,,,,,0.6999,1,,,,,,,,,,,,,,,,,,,,,,,,0.0625,-0.365885417,0,0,0,,,,,,,WHEEL,HB,m,y,./images/WHEELHB.png,,,,,,,m,1,0.6999,,,,,,,,0,80,80,77,1
,,,,,,,,,,,,,,,,,200425,18,2022-01-28_15h48.26.294,lexical_decision_task_DD_L6,2021.2.3,Win32,59.01097604,,,,,,,,,,,,0.6716,1,,,,,,,,,,,,,,,,,,,,,,,,0.0625,-0.365885417,0,0,0,,,,,,,SPINE,HB,m,y,./images/SPINEHB.png,,,,,,,m,1,0.6716,,,,,,,,0,81,81,65,1
,,,,,,,,,,,,,,,,,200425,18,2022-01-28_15h48.26.294,lexical_decision_task_DD_L6,2021.2.3,Win32,59.01097604,,,,,,,,,,,,1.0679,1,,,,,,,,,,,,,,,,,,,,,,,,0.0625,-0.365885417,0,0,0,,,,,,,FOLDER,LB,z,y,./images/FOLDERLB.png,,,,,,,z,1,1.0679,,,,,,,,0,82,82,126,1
,,,,,,,,,,,,,,,,,200425,18,2022-01-28_15h48.26.294,lexical_decision_task_DD_L6,2021.2.3,Win32,59.01097604,,,,,,,,,,,,1.2265,0,,,,,,,,,,,,,,,,,,,,,,,,0.0625,-0.365885417,1,0,0,,,,,,,BERRY,HB,z,y,./images/BERRYHB.png,break_done_button,,,,,,m,0,1.2265,,,,,,,,0,83,83,131,1
,,,,,,,,,,,,,,,,,200425,18,2022-01-28_15h48.26.294,lexical_decision_task_DD_L6,2021.2.3,Win32,59.01097604,,,,,,,,,,,,0.9836,1,,,,,,,,,,,,,,,,,,,,,,,,0.0625,-0.365885417,0,0,0,,,,,,,HAMMER,LB,m,y,./images/HAMMERLB.png,,,,,,,m,1,0.9836,,,,,,,,0,84,84,75,1
,,,,,,,,,,,,,,,,,200425,18,2022-01-28_15h48.26.294,lexical_decision_task_DD_L6,2021.2.3,Win32,59.01097604,,,,,,,,,,,,0.7849,0,,,,,,,,,,,,,,,,,,,,,,,,0.0625,-0.365885417,0,0,0,,,,,,,CANYON,C,z,y,./images/CANYON.png,,,,,,,m,0,0.7849,,,,,,,,0,85,85,118,1
,,,,,,,,,,,,,,,,,200425,18,2022-01-28_15h48.26.294,lexical_decision_task_DD_L6,2021.2.3,Win32,59.01097604,,,,,,,,,,,,0.5955,1,,,,,,,,,,,,,,,,,,,,,,,,0.0625,-0.365885417,0,0,0,,,,,,,SPORT,LB,z,y,./images/SPORTLB.png,,,,,,,z,1,0.5955,,,,,,,,0,86,86,132,1
,,,,,,,,,,,,,,,,,200425,18,2022-01-28_15h48.26.294,lexical_decision_task_DD_L6,2021.2.3,Win32,59.01097604,,,,,,,,,,,,0.7671,1,,,,,,,,,,,,,,,,,,,,,,,,0.0625,-0.365885417,0,0,0,,,,,,,MOSQUE,C,z,y,./images/MOSQUE.png,,,,,,,z,1,0.7671,,,,,,,,0,87,87,127,1
,,,,,,,,,,,,,,,,,200425,18,2022-01-28_15h48.26.294,lexical_decision_task_DD_L6,2021.2.3,Win32,59.01097604,,,,,,,,,,,,1.8167,1,,,,,,,,,,,,,,,,,,,,,,,,0.0625,-0.365885417,0,0,0,,,,,,,PARADE,HB,m,y,./images/PARADEHB.png,,,,,,,m,1,1.8167,,,,,,,,0,88,88,17,1
,,,,,,,,,,,,,,,,,200425,18,2022-01-28_15h48.26.294,lexical_decision_task_DD_L6,2021.2.3,Win32,59.01097604,,,,,,,,,,,,0.8008,1,,,,,,,,,,,,,,,,,,,,,,,,0.0625,-0.365885417,0,0,0,,,,,,,WHISKY,HB,m,y,./images/WHISKYHB.png,,,,,,,m,1,0.8008,,,,,,,,0,89,89,83,1
,,,,,,,,,,,,,,,,,200425,18,2022-01-28_15h48.26.294,lexical_decision_task_DD_L6,2021.2.3,Win32,59.01097604,,,,,,,,,,,,0.9779,1,,,,,,,,,,,,,,,,,,,,,,,,0.0625,-0.365885417,0,0,0,,,,,,,MAGGOT,LB,z,y,./images/MAGGOTLB.png,,,,,,,z,1,0.9779,,,,,,,,0,90,90,117,1
,,,,,,,,,,,,,,,,,200425,18,2022-01-28_15h48.26.294,lexical_decision_task_DD_L6,2021.2.3,Win32,59.01097604,,,,,,,,,,,,26.3962,1,,,,,,,,,,,,,,,,,,,,,,,,0.34375,-0.2578125,1,0,0,,,,,,,BLOKE,LB,m,y,./images/BLOKELB.png,,,,,,,,0,,0.34375,-0.2578125,1,0,0,26.3962,button_right_test,0,91,91,12,1
,,,,,,,,,,,,,,,,,200425,18,2022-01-28_15h48.26.294,lexical_decision_task_DD_L6,2021.2.3,Win32,59.01097604,,,,,,,,,,,,0.6914,1,,,,,,,,,,,,,,,,,,,,,,,,0.34375,-0.2578125,0,0,0,,,,,,,BOILER,LB,m,y,./images/BOILERLB.png,,,,,,,m,1,0.6914,,,,,,,,0,92,92,36,1
,,,,,,,,,,,,,,,,,200425,18,2022-01-28_15h48.26.294,lexical_decision_task_DD_L6,2021.2.3,Win32,59.01097604,,,,,,,,,,,,1.0481,1,,,,,,,,,,,,,,,,,,,,,,,,0.34375,-0.2578125,0,0,0,,,,,,,CEMENT,HB,z,y,./images/CEMENTHB.png,,,,,,,z,1,1.0481,,,,,,,,0,93,93,158,1
,,,,,,,,,,,,,,,,,200425,18,2022-01-28_15h48.26.294,lexical_decision_task_DD_L6,2021.2.3,Win32,59.01097604,,,,,,,,,,,,1.3193,1,,,,,,,,,,,,,,,,,,,,,,,,0.34375,-0.251302083,0,0,0,,,,,,,GLOVE,C,m,y,./images/GLOVE.png,,,,,,,m,1,1.3193,,,,,,,,0,94,94,73,1
,,,,,,,,,,,,,,,,,200425,18,2022-01-28_15h48.26.294,lexical_decision_task_DD_L6,2021.2.3,Win32,59.01097604,,,,,,,,,,,,0.684,1,,,,,,,,,,,,,,,,,,,,,,,,0.34375,-0.251302083,0,0,0,,,,,,,BEARD,HB,z,y,./images/BEARDHB.png,,,,,,,z,1,0.684,,,,,,,,0,95,95,86,1
,,,,,,,,,,,,,,,,,200425,18,2022-01-28_15h48.26.294,lexical_decision_task_DD_L6,2021.2.3,Win32,59.01097604,,,,,,,,,,,,2.5555,1,,,,,,,,,,,,,,,,,,,,,,,,0.34375,-0.251302083,0,0,0,,,,,,,TWINS,LB,z,y,./images/TWINSLB.png,,,,,,,z,1,2.5555,,,,,,,,0,96,96,144,1
,,,,,,,,,,,,,,,,,200425,18,2022-01-28_15h48.26.294,lexical_decision_task_DD_L6,2021.2.3,Win32,59.01097604,,,,,,,,,,,,0.8371,1,,,,,,,,,,,,,,,,,,,,,,,,0.34375,-0.251302083,0,0,0,,,,,,,MIDGET,C,m,y,./images/MIDGET.png,,,,,,,m,1,0.8371,,,,,,,,0,97,97,76,1
,,,,,,,,,,,,,,,,,200425,18,2022-01-28_15h48.26.294,lexical_decision_task_DD_L6,2021.2.3,Win32,59.01097604,,,,,,,,,,,,0.9656,1,,,,,,,,,,,,,,,,,,,,,,,,0.34375,-0.251302083,0,0,0,,,,,,,WALNUT,LB,m,y,./images/WALNUTLB.png,,,,,,,m,1,0.9656,,,,,,,,0,98,98,0,1
,,,,,,,,,,,,,,,,,200425,18,2022-01-28_15h48.26.294,lexical_decision_task_DD_L6,2021.2.3,Win32,59.01097604,,,,,,,,,,,,1.0677,1,,,,,,,,,,,,,,,,,,,,,,,,0.34375,-0.251302083,0,0,0,,,,,,,TOWEL,C,m,y,./images/TOWEL.png,,,,,,,m,1,1.0677,,,,,,,,0,99,99,1,1
,,,,,,,,,,,,,,,,,200425,18,2022-01-28_15h48.26.294,lexical_decision_task_DD_L6,2021.2.3,Win32,59.01097604,,,,,,,,,,,,0.6512,1,,,,,,,,,,,,,,,,,,,,,,,,0.34375,-0.251302083,0,0,0,,,,,,,CLIFF,HB,m,y,./images/CLIFFHB.png,,,,,,,m,1,0.6512,,,,,,,,0,100,100,8,1
,,,,,,,,,,,,,,,,,200425,18,2022-01-28_15h48.26.294,lexical_decision_task_DD_L6,2021.2.3,Win32,59.01097604,,,,,,,,,,,,0.6703,0,,,,,,,,,,,,,,,,,,,,,,,,0.34375,-0.251302083,0,0,0,,,,,,,ARTIST,C,m,y,./images/ARTIST.png,,,,,,,z,0,0.6703,,,,,,,,0,101,101,61,1
,,,,,,,,,,,,,,,,,200425,18,2022-01-28_15h48.26.294,lexical_decision_task_DD_L6,2021.2.3,Win32,59.01097604,,,,,,,,,,,,0.8877,0,,,,,,,,,,,,,,,,,,,,,,,,0.34375,-0.251302083,0,0,0,,,,,,,RULER,C,m,y,./images/RULER.png,,,,,,,z,0,0.8877,,,,,,,,0,102,102,79,1
,,,,,,,,,,,,,,,,,200425,18,2022-01-28_15h48.26.294,lexical_decision_task_DD_L6,2021.2.3,Win32,59.01097604,,,,,,,,,,,,0.9685,0,,,,,,,,,,,,,,,,,,,,,,,,0.34375,-0.251302083,0,0,0,,,,,,,STEAK,C,m,y,./images/STEAK.png,,,,,,,z,0,0.9685,,,,,,,,0,103,103,31,1
,,,,,,,,,,,,,,,,,200425,18,2022-01-28_15h48.26.294,lexical_decision_task_DD_L6,2021.2.3,Win32,59.01097604,,,,,,,,,,,,0.6184,1,,,,,,,,,,,,,,,,,,,,,,,,0.34375,-0.251302083,0,0,0,,,,,,,FARMER,HB,z,y,./images/FARMERHB.png,,,,,,,z,1,0.6184,,,,,,,,0,104,104,149,1
,,,,,,,,,,,,,,,,,200425,18,2022-01-28_15h48.26.294,lexical_decision_task_DD_L6,2021.2.3,Win32,59.01097604,,,,,,,,,,,,0.7864,1,,,,,,,,,,,,,,,,,,,,,,,,0.34375,-0.251302083,0,0,0,,,,,,,CASINO,C,m,y,./images/CASINO.png,,,,,,,m,1,0.7864,,,,,,,,0,105,105,28,1
,,,,,,,,,,,,,,,,,200425,18,2022-01-28_15h48.26.294,lexical_decision_task_DD_L6,2021.2.3,Win32,59.01097604,,,,,,,,,,,,0.8118,1,,,,,,,,,,,,,,,,,,,,,,,,0.34375,-0.251302083,0,0,0,,,,,,,SMOKER,HB,z,y,./images/SMOKERHB.png,,,,,,,z,1,0.8118,,,,,,,,0,106,106,110,1
,,,,,,,,,,,,,,,,,200425,18,2022-01-28_15h48.26.294,lexical_decision_task_DD_L6,2021.2.3,Win32,59.01097604,,,,,,,,,,,,5.6199,0,,,,,,,,,,,,,,,,,,,,,,,,-0.428385417,-0.24609375,1,0,0,,,,,,,HEATER,HB,m,y,./images/HEATERHB.png,,,,,,,,0,,-0.428385417,-0.24609375,1,0,0,5.6199,button_left_test,0,107,107,56,1
,,,,,,,,,,,,,,,,,200425,18,2022-01-28_15h48.26.294,lexical_decision_task_DD_L6,2021.2.3,Win32,59.01097604,,,,,,,,,,,,0.6598,1,,,,,,,,,,,,,,,,,,,,,,,,-0.428385417,-0.24609375,0,0,0,,,,,,,MUMMY,C,m,y,./images/MUMMY.png,,,,,,,m,1,0.6598,,,,,,,,0,108,108,46,1
,,,,,,,,,,,,,,,,,200425,18,2022-01-28_15h48.26.294,lexical_decision_task_DD_L6,2021.2.3,Win32,59.01097604,,,,,,,,,,,,1.0203,0,,,,,,,,,,,,,,,,,,,,,,,,-0.428385417,-0.24609375,0,0,0,,,,,,,ENGINE,HB,m,y,./images/ENGINEHB.png,,,,,,,z,0,1.0203,,,,,,,,0,109,109,38,1
,,,,,,,,,,,,,,,,,200425,18,2022-01-28_15h48.26.294,lexical_decision_task_DD_L6,2021.2.3,Win32,59.01097604,,,,,,,,,,,,0.8165,1,,,,,,,,,,,,,,,,,,,,,,,,-0.428385417,-0.24609375,0,0,0,,,,,,,SNAKE,C,m,y,./images/SNAKE.png,,,,,,,m,1,0.8165,,,,,,,,0,110,110,40,1
,,,,,,,,,,,,,,,,,200425,18,2022-01-28_15h48.26.294,lexical_decision_task_DD_L6,2021.2.3,Win32,59.01097604,,,,,,,,,,,,0.6233,1,,,,,,,,,,,,,,,,,,,,,,,,-0.428385417,-0.24609375,0,0,0,,,,,,,MOTOR,C,z,y,./images/MOTOR.png,,,,,,,z,1,0.6233,,,,,,,,0,111,111,97,1
,,,,,,,,,,,,,,,,,200425,18,2022-01-28_15h48.26.294,lexical_decision_task_DD_L6,2021.2.3,Win32,59.01097604,,,,,,,,,,,,0.6332,1,,,,,,,,,,,,,,,,,,,,,,,,-0.428385417,-0.24609375,0,0,0,,,,,,,CRUST,C,z,y,./images/CRUST.png,,,,,,,z,1,0.6332,,,,,,,,0,112,112,163,1
,,,,,,,,,,,,,,,,,200425,18,2022-01-28_15h48.26.294,lexical_decision_task_DD_L6,2021.2.3,Win32,59.01097604,,,,,,,,,,,,1.0862,0,,,,,,,,,,,,,,,,,,,,,,,,-0.428385417,-0.24609375,0,0,0,,,,,,,BELLY,C,z,y,./images/BELLY.png,,,,,,,m,0,1.0862,,,,,,,,0,113,113,94,1
,,,,,,,,,,,,,,,,,200425,18,2022-01-28_15h48.26.294,lexical_decision_task_DD_L6,2021.2.3,Win32,59.01097604,,,,,,,,,,,,0.8341,1,,,,,,,,,,,,,,,,,,,,,,,,-0.428385417,-0.24609375,0,0,0,,,,,,,DRILL,LB,m,y,./images/DRILLLB.png,,,,,,,m,1,0.8341,,,,,,,,0,114,114,81,1
,,,,,,,,,,,,,,,,,200425,18,2022-01-28_15h48.26.294,lexical_decision_task_DD_L6,2021.2.3,Win32,59.01097604,,,,,,,,,,,,0.6329,1,,,,,,,,,,,,,,,,,,,,,,,,-0.428385417,-0.24609375,0,0,0,,,,,,,MUFFIN,C,z,y,./images/MUFFIN.png,,,,,,,z,1,0.6329,,,,,,,,0,115,115,139,1
,,,,,,,,,,,,,,,,,200425,18,2022-01-28_15h48.26.294,lexical_decision_task_DD_L6,2021.2.3,Win32,59.01097604,,,,,,,,,,,,0.6328,1,,,,,,,,,,,,,,,,,,,,,,,,-0.428385417,-0.24609375,0,0,0,,,,,,,PILOT,HB,m,y,./images/PILOTHB.png,,,,,,,m,1,0.6328,,,,,,,,0,116,116,50,1
,,,,,,,,,,,,,,,,,200425,18,2022-01-28_15h48.26.294,lexical_decision_task_DD_L6,2021.2.3,Win32,59.01097604,,,,,,,,,,,,1.3258,1,,,,,,,,,,,,,,,,,,,,,,,,-0.428385417,-0.24609375,0,0,0,,,,,,,GRANNY,HB,m,y,./images/GRANNYHB.png,,,,,,,m,1,1.3258,,,,,,,,0,117,117,20,1
,,,,,,,,,,,,,,,,,200425,18,2022-01-28_15h48.26.294,lexical_decision_task_DD_L6,2021.2.3,Win32,59.01097604,,,,,,,,,,,,0.6671,1,,,,,,,,,,,,,,,,,,,,,,,,-0.428385417,-0.24609375,0,0,0,,,,,,,GRAIN,LB,z,y,./images/GRAINLB.png,,,,,,,z,1,0.6671,,,,,,,,0,118,118,159,1
,,,,,,,,,,,,,,,,,200425,18,2022-01-28_15h48.26.294,lexical_decision_task_DD_L6,2021.2.3,Win32,59.01097604,,,,,,,,,,,,0.8837,0,,,,,,,,,,,,,,,,,,,,,,,,-0.428385417,-0.24609375,0,0,0,,,,,,,GRAPE,C,m,y,./images/GRAPE.png,,,,,,,z,0,0.8837,,,,,,,,0,119,119,16,1
,,,,,,,,,,,,,,,,,200425,18,2022-01-28_15h48.26.294,lexical_decision_task_DD_L6,2021.2.3,Win32,59.01097604,,,,,,,,,,,,10.0924,1,,,,,,,,,,,,,,,,,,,,,,,,-0.279947917,-0.278645833,1,0,0,,,,,,,POODLE,LB,z,y,./images/POODLELB.png,,,,,,,,0,,-0.279947917,-0.278645833,1,0,0,10.0924,button_left_test,0,120,120,165,1
,,,,,,,,,,,,,,,,,200425,18,2022-01-28_15h48.26.294,lexical_decision_task_DD_L6,2021.2.3,Win32,59.01097604,,,,,,,,,,,,0.936,0,,,,,,,,,,,,,,,,,,,,,,,,-0.279947917,-0.278645833,0,0,0,,,,,,,BRIDE,C,m,y,./images/BRIDE.png,,,,,,,z,0,0.936,,,,,,,,0,121,121,64,1
,,,,,,,,,,,,,,,,,200425,18,2022-01-28_15h48.26.294,lexical_decision_task_DD_L6,2021.2.3,Win32,59.01097604,,,,,,,,,,,,0.8525,0,,,,,,,,,,,,,,,,,,,,,,,,-0.279947917,-0.278645833,0,0,0,,,,,,,BARREL,HB,z,y,./images/BARRELHB.png,,,,,,,m,0,0.8525,,,,,,,,0,122,122,116,1
,,,,,,,,,,,,,,,,,200425,18,2022-01-28_15h48.26.294,lexical_decision_task_DD_L6,2021.2.3,Win32,59.01097604,,,,,,,,,,,,0.553,1,,,,,,,,,,,,,,,,,,,,,,,,-0.279947917,-0.278645833,0,0,0,,,,,,,CLOTH,HB,m,y,./images/CLOTHHB.png,,,,,,,m,1,0.553,,,,,,,,0,123,123,23,1
,,,,,,,,,,,,,,,,,200425,18,2022-01-28_15h48.26.294,lexical_decision_task_DD_L6,2021.2.3,Win32,59.01097604,,,,,,,,,,,,1.1208,1,,,,,,,,,,,,,,,,,,,,,,,,-0.279947917,-0.278645833,0,0,0,,,,,,,TRIPOD,LB,z,y,./images/TRIPODLB.png,,,,,,,z,1,1.1208,,,,,,,,0,124,124,138,1
,,,,,,,,,,,,,,,,,200425,18,2022-01-28_15h48.26.294,lexical_decision_task_DD_L6,2021.2.3,Win32,59.01097604,,,,,,,,,,,,0.9526,1,,,,,,,,,,,,,,,,,,,,,,,,-0.067708333,-0.372395833,1,0,0,,,,,,,ARROW,LB,m,y,./images/ARROWLB.png,break_done_button,,,,,,m,1,0.9526,,,,,,,,0,125,125,69,1
,,,,,,,,,,,,,,,,,200425,18,2022-01-28_15h48.26.294,lexical_decision_task_DD_L6,2021.2.3,Win32,59.01097604,,,,,,,,,,,,1.434,1,,,,,,,,,,,,,,,,,,,,,,,,-0.067708333,-0.372395833,0,0,0,,,,,,,SNACK,C,z,y,./images/SNACK.png,,,,,,,z,1,1.434,,,,,,,,0,126,126,157,1
,,,,,,,,,,,,,,,,,200425,18,2022-01-28_15h48.26.294,lexical_decision_task_DD_L6,2021.2.3,Win32,59.01097604,,,,,,,,,,,,0.7797,1,,,,,,,,,,,,,,,,,,,,,,,,-0.067708333,-0.372395833,0,0,0,,,,,,,THROAT,LB,z,y,./images/THROATLB.png,,,,,,,z,1,0.7797,,,,,,,,0,127,127,120,1
,,,,,,,,,,,,,,,,,200425,18,2022-01-28_15h48.26.294,lexical_decision_task_DD_L6,2021.2.3,Win32,59.01097604,,,,,,,,,,,,0.7516,0,,,,,,,,,,,,,,,,,,,,,,,,-0.067708333,-0.372395833,0,0,0,,,,,,,QUILL,C,z,y,./images/QUILL.png,,,,,,,m,0,0.7516,,,,,,,,0,128,128,115,1
,,,,,,,,,,,,,,,,,200425,18,2022-01-28_15h48.26.294,lexical_decision_task_DD_L6,2021.2.3,Win32,59.01097604,,,,,,,,,,,,0.8668,1,,,,,,,,,,,,,,,,,,,,,,,,-0.067708333,-0.372395833,0,0,0,,,,,,,BONNET,HB,z,y,./images/BONNETHB.png,,,,,,,z,1,0.8668,,,,,,,,0,129,129,95,1
,,,,,,,,,,,,,,,,,200425,18,2022-01-28_15h48.26.294,lexical_decision_task_DD_L6,2021.2.3,Win32,59.01097604,,,,,,,,,,,,0.9051,1,,,,,,,,,,,,,,,,,,,,,,,,-0.067708333,-0.372395833,0,0,0,,,,,,,BANANA,C,m,y,./images/BANANA.png,,,,,,,m,1,0.9051,,,,,,,,0,130,130,70,1
,,,,,,,,,,,,,,,,,200425,18,2022-01-28_15h48.26.294,lexical_decision_task_DD_L6,2021.2.3,Win32,59.01097604,,,,,,,,,,,,0.8745,0,,,,,,,,,,,,,,,,,,,,,,,,-0.067708333,-0.372395833,0,0,0,,,,,,,BASKET,HB,m,y,./images/BASKETHB.png,,,,,,,z,0,0.8745,,,,,,,,0,131,131,44,1
,,,,,,,,,,,,,,,,,200425,18,2022-01-28_15h48.26.294,lexical_decision_task_DD_L6,2021.2.3,Win32,59.01097604,,,,,,,,,,,,0.8055,0,,,,,,,,,,,,,,,,,,,,,,,,-0.067708333,-0.372395833,0,0,0,,,,,,,MIRROR,LB,z,y,./images/MIRRORLB.png,,,,,,,m,0,0.8055,,,,,,,,0,132,132,147,1
,,,,,,,,,,,,,,,,,200425,18,2022-01-28_15h48.26.294,lexical_decision_task_DD_L6,2021.2.3,Win32,59.01097604,,,,,,,,,,,,0.7018,1,,,,,,,,,,,,,,,,,,,,,,,,-0.067708333,-0.372395833,0,0,0,,,,,,,STREAM,HB,m,y,./images/STREAMHB.png,,,,,,,m,1,0.7018,,,,,,,,0,133,133,41,1
,,,,,,,,,,,,,,,,,200425,18,2022-01-28_15h48.26.294,lexical_decision_task_DD_L6,2021.2.3,Win32,59.01097604,,,,,,,,,,,,0.8172,1,,,,,,,,,,,,,,,,,,,,,,,,-0.067708333,-0.372395833,0,0,0,,,,,,,PEARL,C,z,y,./images/PEARL.png,,,,,,,z,1,0.8172,,,,,,,,0,134,134,130,1
,,,,,,,,,,,,,,,,,200425,18,2022-01-28_15h48.26.294,lexical_decision_task_DD_L6,2021.2.3,Win32,59.01097604,,,,,,,,,,,,0.8232,1,,,,,,,,,,,,,,,,,,,,,,,,-0.067708333,-0.372395833,0,0,0,,,,,,,COLLAR,LB,m,y,./images/COLLARLB.png,,,,,,,m,1,0.8232,,,,,,,,0,135,135,15,1
,,,,,,,,,,,,,,,,,200425,18,2022-01-28_15h48.26.294,lexical_decision_task_DD_L6,2021.2.3,Win32,59.01097604,,,,,,,,,,,,0.5798,1,,,,,,,,,,,,,,,,,,,,,,,,-0.067708333,-0.372395833,0,0,0,,,,,,,URINE,C,z,y,./images/URINE.png,,,,,,,z,1,0.5798,,,,,,,,0,136,136,154,1
,,,,,,,,,,,,,,,,,200425,18,2022-01-28_15h48.26.294,lexical_decision_task_DD_L6,2021.2.3,Win32,59.01097604,,,,,,,,,,,,0.6889,0,,,,,,,,,,,,,,,,,,,,,,,,-0.067708333,-0.372395833,0,0,0,,,,,,,CLOWN,C,m,y,./images/CLOWN.png,,,,,,,z,0,0.6889,,,,,,,,0,137,137,22,1
,,,,,,,,,,,,,,,,,200425,18,2022-01-28_15h48.26.294,lexical_decision_task_DD_L6,2021.2.3,Win32,59.01097604,,,,,,,,,,,,2.3594,1,,,,,,,,,,,,,,,,,,,,,,,,0.291666667,-0.260416667,1,0,0,,,,,,,BAMBOO,HB,m,y,./images/BAMBOOHB.png,,,,,,,,0,,0.291666667,-0.260416667,1,0,0,2.3594,button_right_test,0,138,138,5,1
,,,,,,,,,,,,,,,,,200425,18,2022-01-28_15h48.26.294,lexical_decision_task_DD_L6,2021.2.3,Win32,59.01097604,,,,,,,,,,,,0.7889,1,,,,,,,,,,,,,,,,,,,,,,,,0.291666667,-0.260416667,0,0,0,,,,,,,PENCE,C,z,y,./images/PENCE.png,,,,,,,z,1,0.7889,,,,,,,,0,139,139,100,1
,,,,,,,,,,,,,,,,,200425,18,2022-01-28_15h48.26.294,lexical_decision_task_DD_L6,2021.2.3,Win32,59.01097604,,,,,,,,,,,,1.1841,0,,,,,,,,,,,,,,,,,,,,,,,,0.291666667,-0.260416667,0,0,0,,,,,,,PURSE,HB,z,y,./images/PURSEHB.png,,,,,,,m,0,1.1841,,,,,,,,0,140,140,146,1
,,,,,,,,,,,,,,,,,200425,18,2022-01-28_15h48.26.294,lexical_decision_task_DD_L6,2021.2.3,Win32,59.01097604,,,,,,,,,,,,1.2853,1,,,,,,,,,,,,,,,,,,,,,,,,0.291666667,-0.260416667,0,0,0,,,,,,,STOOL,C,m,y,./images/STOOL.png,,,,,,,m,1,1.2853,,,,,,,,0,141,141,43,1
,,,,,,,,,,,,,,,,,200425,18,2022-01-28_15h48.26.294,lexical_decision_task_DD_L6,2021.2.3,Win32,59.01097604,,,,,,,,,,,,0.704,1,,,,,,,,,,,,,,,,,,,,,,,,0.291666667,-0.260416667,0,0,0,,,,,,,CANDY,LB,m,y,./images/CANDYLB.png,,,,,,,m,1,0.704,,,,,,,,0,142,142,39,1
,,,,,,,,,,,,,,,,,200425,18,2022-01-28_15h48.26.294,lexical_decision_task_DD_L6,2021.2.3,Win32,59.01097604,,,,,,,,,,,,0.7504,1,,,,,,,,,,,,,,,,,,,,,,,,0.291666667,-0.260416667,0,0,0,,,,,,,LIZARD,HB,z,y,./images/LIZARDHB.png,,,,,,,z,1,0.7504,,,,,,,,0,143,143,128,1
,,,,,,,,,,,,,,,,,200425,18,2022-01-28_15h48.26.294,lexical_decision_task_DD_L6,2021.2.3,Win32,59.01097604,,,,,,,,,,,,0.7221,0,,,,,,,,,,,,,,,,,,,,,,,,0.291666667,-0.260416667,0,0,0,,,,,,,MEDAL,HB,m,y,./images/MEDALHB.png,,,,,,,z,0,0.7221,,,,,,,,0,144,144,11,1
,,,,,,,,,,,,,,,,,200425,18,2022-01-28_15h48.26.294,lexical_decision_task_DD_L6,2021.2.3,Win32,59.01097604,,,,,,,,,,,,1.106,1,,,,,,,,,,,,,,,,,,,,,,,,0.291666667,-0.260416667,0,0,0,,,,,,,TORCH,HB,z,y,./images/TORCHHB.png,,,,,,,z,1,1.106,,,,,,,,0,145,145,152,1
,,,,,,,,,,,,,,,,,200425,18,2022-01-28_15h48.26.294,lexical_decision_task_DD_L6,2021.2.3,Win32,59.01097604,,,,,,,,,,,,1.2353,0,,,,,,,,,,,,,,,,,,,,,,,,0.291666667,-0.260416667,0,0,0,,,,,,,PISTOL,HB,m,y,./images/PISTOLHB.png,,,,,,,z,0,1.2353,,,,,,,,0,146,146,29,1
,,,,,,,,,,,,,,,,,200425,18,2022-01-28_15h48.26.294,lexical_decision_task_DD_L6,2021.2.3,Win32,59.01097604,,,,,,,,,,,,0.7666,1,,,,,,,,,,,,,,,,,,,,,,,,0.291666667,-0.260416667,0,0,0,,,,,,,SHIELD,LB,m,y,./images/SHIELDLB.png,,,,,,,m,1,0.7666,,,,,,,,0,147,147,48,1
,,,,,,,,,,,,,,,,,200425,18,2022-01-28_15h48.26.294,lexical_decision_task_DD_L6,2021.2.3,Win32,59.01097604,,,,,,,,,,,,1.0694,1,,,,,,,,,,,,,,,,,,,,,,,,0.291666667,-0.260416667,0,0,0,,,,,,,ALLEY,C,m,y,./images/ALLEY.png,,,,,,,m,1,1.0694,,,,,,,,0,148,148,55,1
,,,,,,,,,,,,,,,,,200425,18,2022-01-28_15h48.26.294,lexical_decision_task_DD_L6,2021.2.3,Win32,59.01097604,,,,,,,,,,,,1.577,1,,,,,,,,,,,,,,,,,,,,,,,,0.291666667,-0.260416667,0,0,0,,,,,,,STORM,LB,z,y,./images/STORMLB.png,,,,,,,z,1,1.577,,,,,,,,0,149,149,114,1
,,,,,,,,,,,,,,,,,200425,18,2022-01-28_15h48.26.294,lexical_decision_task_DD_L6,2021.2.3,Win32,59.01097604,,,,,,,,,,,,0.7739,1,,,,,,,,,,,,,,,,,,,,,,,,0.291666667,-0.260416667,0,0,0,,,,,,,STAIN,LB,m,y,./images/STAINLB.png,,,,,,,m,1,0.7739,,,,,,,,0,150,150,6,1
,,,,,,,,,,,,,,,,,200425,18,2022-01-28_15h48.26.294,lexical_decision_task_DD_L6,2021.2.3,Win32,59.01097604,,,,,,,,,,,,0.8278,0,,,,,,,,,,,,,,,,,,,,,,,,0.291666667,-0.260416667,0,0,0,,,,,,,SLOPE,LB,m,y,./images/SLOPELB.png,,,,,,,z,0,0.8278,,,,,,,,0,151,151,30,1
,,,,,,,,,,,,,,,,,200425,18,2022-01-28_15h48.26.294,lexical_decision_task_DD_L6,2021.2.3,Win32,59.01097604,,,,,,,,,,,,0.9944,0,,,,,,,,,,,,,,,,,,,,,,,,0.291666667,-0.260416667,0,0,0,,,,,,,JELLY,C,z,y,./images/JELLY.png,,,,,,,m,0,0.9944,,,,,,,,0,152,152,148,1
,,,,,,,,,,,,,,,,,200425,18,2022-01-28_15h48.26.294,lexical_decision_task_DD_L6,2021.2.3,Win32,59.01097604,,,,,,,,,,,,0.6388,1,,,,,,,,,,,,,,,,,,,,,,,,0.291666667,-0.260416667,0,0,0,,,,,,,WALRUS,HB,z,y,./images/WALRUSHB.png,,,,,,,z,1,0.6388,,,,,,,,0,153,153,107,1
,,,,,,,,,,,,,,,,,200425,18,2022-01-28_15h48.26.294,lexical_decision_task_DD_L6,2021.2.3,Win32,59.01097604,,,,,,,,,,,,9.4502,0,,,,,,,,,,,,,,,,,,,,,,,,-0.397135417,-0.348958333,1,0,0,,,,,,,PARCEL,LB,m,y,./images/PARCELLB.png,,,,,,,,0,,-0.397135417,-0.348958333,1,0,0,9.4502,button_left_test,0,154,154,18,1
,,,,,,,,,,,,,,,,,200425,18,2022-01-28_15h48.26.294,lexical_decision_task_DD_L6,2021.2.3,Win32,59.01097604,,,,,,,,,,,,0.7247,1,,,,,,,,,,,,,,,,,,,,,,,,-0.397135417,-0.348958333,0,0,0,,,,,,,MONKEY,LB,m,y,./images/MONKEYLB.png,,,,,,,m,1,0.7247,,,,,,,,0,155,155,45,1
,,,,,,,,,,,,,,,,,200425,18,2022-01-28_15h48.26.294,lexical_decision_task_DD_L6,2021.2.3,Win32,59.01097604,,,,,,,,,,,,0.7009,1,,,,,,,,,,,,,,,,,,,,,,,,-0.397135417,-0.348958333,0,0,0,,,,,,,COUCH,HB,z,y,./images/COUCHHB.png,,,,,,,z,1,0.7009,,,,,,,,0,156,156,161,1
,,,,,,,,,,,,,,,,,200425,18,2022-01-28_15h48.26.294,lexical_decision_task_DD_L6,2021.2.3,Win32,59.01097604,,,,,,,,,,,,1.0178,0,,,,,,,,,,,,,,,,,,,,,,,,-0.397135417,-0.348958333,0,0,0,,,,,,,PEBBLE,C,m,y,./images/PEBBLE.png,,,,,,,z,0,1.0178,,,,,,,,0,157,157,82,1
,,,,,,,,,,,,,,,,,200425,18,2022-01-28_15h48.26.294,lexical_decision_task_DD_L6,2021.2.3,Win32,59.01097604,,,,,,,,,,,,0.9046,1,,,,,,,,,,,,,,,,,,,,,,,,-0.397135417,-0.348958333,0,0,0,,,,,,,STOVE,HB,m,y,./images/STOVEHB.png,,,,,,,m,1,0.9046,,,,,,,,0,158,158,2,1
,,,,,,,,,,,,,,,,,200425,18,2022-01-28_15h48.26.294,lexical_decision_task_DD_L6,2021.2.3,Win32,59.01097604,,,,,,,,,,,,1.0943,0,,,,,,,,,,,,,,,,,,,,,,,,-0.397135417,-0.348958333,0,0,0,,,,,,,BROOM,LB,m,y,./images/BROOMLB.png,,,,,,,z,0,1.0943,,,,,,,,0,159,159,78,1
,,,,,,,,,,,,,,,,,200425,18,2022-01-28_15h48.26.294,lexical_decision_task_DD_L6,2021.2.3,Win32,59.01097604,,,,,,,,,,,,0.7468,1,,,,,,,,,,,,,,,,,,,,,,,,-0.397135417,-0.348958333,0,0,0,,,,,,,MALLET,HB,z,y,./images/MALLETHB.png,,,,,,,z,1,0.7468,,,,,,,,0,160,160,134,1
,,,,,,,,,,,,,,,,,200425,18,2022-01-28_15h48.26.294,lexical_decision_task_DD_L6,2021.2.3,Win32,59.01097604,,,,,,,,,,,,0.85,1,,,,,,,,,,,,,,,,,,,,,,,,-0.397135417,-0.348958333,0,0,0,,,,,,,JAGUAR,LB,z,y,./images/JAGUARLB.png,,,,,,,z,1,0.85,,,,,,,,0,161,161,102,1
,,,,,,,,,,,,,,,,,200425,18,2022-01-28_15h48.26.294,lexical_decision_task_DD_L6,2021.2.3,Win32,59.01097604,,,,,,,,,,,,1.0611,1,,,,,,,,,,,,,,,,,,,,,,,,-0.397135417,-0.348958333,0,0,0,,,,,,,SUNSET,C,z,y,./images/SUNSET.png,,,,,,,z,1,1.0611,,,,,,,,0,162,162,166,1
,,,,,,,,,,,,,,,,,200425,18,2022-01-28_15h48.26.294,lexical_decision_task_DD_L6,2021.2.3,Win32,59.01097604,,,,,,,,,,,,0.8193,0,,,,,,,,,,,,,,,,,,,,,,,,-0.397135417,-0.348958333,0,0,0,,,,,,,GARDEN,C,m,y,./images/GARDEN.png,,,,,,,z,0,0.8193,,,,,,,,0,163,163,10,1
,,,,,,,,,,,,,,,,,200425,18,2022-01-28_15h48.26.294,lexical_decision_task_DD_L6,2021.2.3,Win32,59.01097604,,,,,,,,,,,,0.5836,1,,,,,,,,,,,,,,,,,,,,,,,,-0.397135417,-0.348958333,0,0,0,,,,,,,ONION,LB,z,y,./images/ONIONLB.png,,,,,,,z,1,0.5836,,,,,,,,0,164,164,135,1
,,,,,,,,,,,,,,,,,200425,18,2022-01-28_15h48.26.294,lexical_decision_task_DD_L6,2021.2.3,Win32,59.01097604,,,,,,,,,,,,0.8723,1,,,,,,,,,,,,,,,,,,,,,,,,-0.397135417,-0.348958333,0,0,0,,,,,,,CARPET,HB,z,y,./images/CARPETHB.png,,,,,,,z,1,0.8723,,,,,,,,0,165,165,137,1
,,,,,,,,,,,,,,,,,200425,18,2022-01-28_15h48.26.294,lexical_decision_task_DD_L6,2021.2.3,Win32,59.01097604,,,,,,,,,,,,0.9166,1,,,,,,,,,,,,,,,,,,,,,,,,-0.397135417,-0.348958333,0,0,0,,,,,,,FINGER,LB,z,y,./images/FINGERLB.png,,,,,,,z,1,0.9166,,,,,,,,0,166,166,87,1
,,,,,,,,,,,,,,,,,200425,18,2022-01-28_15h48.26.294,lexical_decision_task_DD_L6,2021.2.3,Win32,59.01097604,,,,,,,,,,,,0.9537,0,,,,,,,,,,,,,,,,,,,,,,,,-0.397135417,-0.348958333,0,0,0,,,,,,,BABOON,C,z,y,./images/BABOON.png,,,,,,,m,0,0.9537,,,,,,,,0,167,167,142,1
