key_resp.keys,instr_done_touch.x,instr_done_touch.y,instr_done_touch.leftButton,instr_done_touch.midButton,instr_done_touch.rightButton,instr_done_touch.clicked_name,instruction_pages.thisRepN,instruction_pages.thisTrialN,instruction_pages.thisN,instruction_pages.thisIndex,instruction_pages.ran,pageN,phase,instruct_text,has_image,instruct_image,participant,age,date,expName,psychopyVersion,OS,frameRate,key_resp.rt,response.keys,response.corr,response.rt,touch_resp.x,touch_resp.y,touch_resp.leftButton,touch_resp.midButton,touch_resp.rightButton,touch_resp.time,touch_resp.clicked_name,rt,corr,practrials.thisRepN,practrials.thisTrialN,practrials.thisN,practrials.thisIndex,practrials.ran,TrialID,Target,corrAns,end_of_practice_trials_pages.thisRepN,end_of_practice_trials_pages.thisTrialN,end_of_practice_trials_pages.thisN,end_of_practice_trials_pages.thisIndex,end_of_practice_trials_pages.ran,key_resp_2.keys,key_resp_2.corr,key_resp_2.rt,targ_click.x,targ_click.y,targ_click.leftButton,targ_click.midButton,targ_click.rightButton,targ_click.time,targ_click.clicked_name,break_done_touch.x,break_done_touch.y,break_done_touch.leftButton,break_done_touch.midButton,break_done_touch.rightButton,break_done_keyboard.keys,maintrials.thisRepN,maintrials.thisTrialN,maintrials.thisN,maintrials.thisIndex,maintrials.ran,string,blur,study,lex,stim_path,break_done_keyboard.rt,test_instructions.thisRepN,test_instructions.thisTrialN,test_instructions.thisN,test_instructions.thisIndex,test_instructions.ran,key_resp_3.keys,key_resp_3.corr,key_resp_3.rt,test_click.x,test_click.y,test_click.leftButton,test_click.midButton,test_click.rightButton,test_click.time,test_click.clicked_name,test_phase.thisRepN,test_phase.thisTrialN,test_phase.thisN,test_phase.thisIndex,test_phase.ran
,0.023041992,-0.389375,1,0,0,instr_done_button,0,0,0,0,1,1,instructions,"INSTRUCTIONS
At the start of each trial, look at the plus sign  (+) in the center of the screen.  This tells you that a trial is about to begin and where to look. Second, the plus sign will disappear and a string of letters will appear. Your task is to determine if the string of letters is a word or not. If the item is a word press the M key (on keyboard)  or touch the word button (phone/tablet).  If the item is not a word,  press the  Z key (on keyboard)  or touch the nonword button (on phone/tablet). 
Press the space bar or touch  continue.",0,,200581,19,2022-01-28_16h51.39.804,lexical_decision_task_DD_L6,2021.2.3,MacIntel,59.97361161,,,,,,,,,,,,,,,,,,,,,,,,,,,,,,,,,,,,,,,,,,,,,,,,,,,,,,,,,,,,,,,,,,,,,,,,,
,0.009755859,-0.422314453,1,0,0,instr_done_button,0,1,1,1,1,2,instructions,"If your device has a keyboard, press the 'Z' key for nonwords and the 'M' key for words.





Press the space bar or touch the button below to continue.",0,keyboard-example.gif,200581,19,2022-01-28_16h51.39.804,lexical_decision_task_DD_L6,2021.2.3,MacIntel,59.97361161,,,,,,,,,,,,,,,,,,,,,,,,,,,,,,,,,,,,,,,,,,,,,,,,,,,,,,,,,,,,,,,,,,,,,,,,,
space,0.038618164,-0.411503906,0,0,0,,0,2,2,2,1,3,instructions,"If you are using a touchscreen only device, use the buttons on the screen. Do not use the mouse.





Press the space bar or touch the button below to continue.",0,touchscreen-example.gif,200581,19,2022-01-28_16h51.39.804,lexical_decision_task_DD_L6,2021.2.3,MacIntel,59.97361161,1.8252,,,,,,,,,,,,,,,,,,,,,,,,,,,,,,,,,,,,,,,,,,,,,,,,,,,,,,,,,,,,,,,,,,,,,,,,
space,0.025844727,-0.379458008,0,0,0,,0,3,3,3,1,4,instructions,"It is very important that you respond as quickly and accurately as possible, as each letter string will only be on the screen for two seconds. If you do not respond within this time, the message 'Too slow!' will be displayed and the experiment will progress to the next letter string. The first 20 trials will be practice trials and you will receive feedback on your answers. 

Press the space bar or touch the button below to start the practice trials.",0,,200581,19,2022-01-28_16h51.39.804,lexical_decision_task_DD_L6,2021.2.3,MacIntel,59.97361161,5.229,,,,,,,,,,,,,,,,,,,,,,,,,,,,,,,,,,,,,,,,,,,,,,,,,,,,,,,,,,,,,,,,,,,,,,,,
,,,,,,,,,,,,,,,,,200581,19,2022-01-28_16h51.39.804,lexical_decision_task_DD_L6,2021.2.3,MacIntel,59.97361161,,z,0,0.2361,,,,,,,,0.2361,0,0,0,0,3,1,1001,MATRIX,m,,,,,,,,,,,,,,,,,,,,,,,,,,,,,,,,,,,,,,,,,,,,,,,,,,,,
,,,,,,,,,,,,,,,,,200581,19,2022-01-28_16h51.39.804,lexical_decision_task_DD_L6,2021.2.3,MacIntel,59.97361161,,m,1,0.827,,,,,,,,0.827,1,0,1,1,4,1,1001,SQUEAK,m,,,,,,,,,,,,,,,,,,,,,,,,,,,,,,,,,,,,,,,,,,,,,,,,,,,,
,,,,,,,,,,,,,,,,,200581,19,2022-01-28_16h51.39.804,lexical_decision_task_DD_L6,2021.2.3,MacIntel,59.97361161,,m,0,1.4,,,,,,,,1.4,0,0,2,2,10,1,1001,INLADE,z,,,,,,,,,,,,,,,,,,,,,,,,,,,,,,,,,,,,,,,,,,,,,,,,,,,,
,,,,,,,,,,,,,,,,,200581,19,2022-01-28_16h51.39.804,lexical_decision_task_DD_L6,2021.2.3,MacIntel,59.97361161,,m,1,0.7978,,,,,,,,0.7978,1,0,3,3,6,1,1001,ZOMBIE,m,,,,,,,,,,,,,,,,,,,,,,,,,,,,,,,,,,,,,,,,,,,,,,,,,,,,
,,,,,,,,,,,,,,,,,200581,19,2022-01-28_16h51.39.804,lexical_decision_task_DD_L6,2021.2.3,MacIntel,59.97361161,,m,1,0.5875,,,,,,,,0.5875,1,0,4,4,1,1,1001,ADJUST,m,,,,,,,,,,,,,,,,,,,,,,,,,,,,,,,,,,,,,,,,,,,,,,,,,,,,
,,,,,,,,,,,,,,,,,200581,19,2022-01-28_16h51.39.804,lexical_decision_task_DD_L6,2021.2.3,MacIntel,59.97361161,,m,1,0.5999,,,,,,,,0.5999,1,0,5,5,7,1,1001,VOLUME,m,,,,,,,,,,,,,,,,,,,,,,,,,,,,,,,,,,,,,,,,,,,,,,,,,,,,
,,,,,,,,,,,,,,,,,200581,19,2022-01-28_16h51.39.804,lexical_decision_task_DD_L6,2021.2.3,MacIntel,59.97361161,,z,1,0.8325,,,,,,,,0.8325,1,0,6,6,8,1,1001,ASLERT,z,,,,,,,,,,,,,,,,,,,,,,,,,,,,,,,,,,,,,,,,,,,,,,,,,,,,
,,,,,,,,,,,,,,,,,200581,19,2022-01-28_16h51.39.804,lexical_decision_task_DD_L6,2021.2.3,MacIntel,59.97361161,,z,1,0.9141,,,,,,,,0.9141,1,0,7,7,9,1,1001,FARINY,z,,,,,,,,,,,,,,,,,,,,,,,,,,,,,,,,,,,,,,,,,,,,,,,,,,,,
,,,,,,,,,,,,,,,,,200581,19,2022-01-28_16h51.39.804,lexical_decision_task_DD_L6,2021.2.3,MacIntel,59.97361161,,m,1,0.5632,,,,,,,,0.5632,1,0,8,8,2,1,1001,ALMOND,m,,,,,,,,,,,,,,,,,,,,,,,,,,,,,,,,,,,,,,,,,,,,,,,,,,,,
,,,,,,,,,,,,,,,,,200581,19,2022-01-28_16h51.39.804,lexical_decision_task_DD_L6,2021.2.3,MacIntel,59.97361161,,m,1,0.5631,,,,,,,,0.5631,1,0,9,9,5,1,1001,OBTAIN,m,,,,,,,,,,,,,,,,,,,,,,,,,,,,,,,,,,,,,,,,,,,,,,,,,,,,
,,,,,,,,,,,,,,,,,200581,19,2022-01-28_16h51.39.804,lexical_decision_task_DD_L6,2021.2.3,MacIntel,59.97361161,,z,1,0.9089,,,,,,,,0.9089,1,0,10,10,13,1,1001,ROUPET,z,,,,,,,,,,,,,,,,,,,,,,,,,,,,,,,,,,,,,,,,,,,,,,,,,,,,
,,,,,,,,,,,,,,,,,200581,19,2022-01-28_16h51.39.804,lexical_decision_task_DD_L6,2021.2.3,MacIntel,59.97361161,,z,1,1.2645,,,,,,,,1.2645,1,0,11,11,12,1,1001,SPRINY,z,,,,,,,,,,,,,,,,,,,,,,,,,,,,,,,,,,,,,,,,,,,,,,,,,,,,
,,,,,,,,,,,,,,,,,200581,19,2022-01-28_16h51.39.804,lexical_decision_task_DD_L6,2021.2.3,MacIntel,59.97361161,,z,0,0.9993,,,,,,,,0.9993,0,0,12,12,0,1,1001,UTOPIA,m,,,,,,,,,,,,,,,,,,,,,,,,,,,,,,,,,,,,,,,,,,,,,,,,,,,,
,,,,,,,,,,,,,,,,,200581,19,2022-01-28_16h51.39.804,lexical_decision_task_DD_L6,2021.2.3,MacIntel,59.97361161,,z,1,0.8434,,,,,,,,0.8434,1,0,13,13,11,1,1001,RASHET,z,,,,,,,,,,,,,,,,,,,,,,,,,,,,,,,,,,,,,,,,,,,,,,,,,,,,
,,,,,,,,,,,,,,,,,200581,19,2022-01-28_16h51.39.804,lexical_decision_task_DD_L6,2021.2.3,MacIntel,59.97361161,,z,1,0.8496,,,,,,,,0.8496,1,0,14,14,15,1,1001,WHAISE,z,,,,,,,,,,,,,,,,,,,,,,,,,,,,,,,,,,,,,,,,,,,,,,,,,,,,
,,,,,,,,,,,,,,,,,200581,19,2022-01-28_16h51.39.804,lexical_decision_task_DD_L6,2021.2.3,MacIntel,59.97361161,,z,1,0.9647,,,,,,,,0.9647,1,0,15,15,14,1,1001,THRALE,z,,,,,,,,,,,,,,,,,,,,,,,,,,,,,,,,,,,,,,,,,,,,,,,,,,,,
,-0.000112305,-0.396821289,1,0,0,instr_done_button,,,,,,1,end_of_practice,"You have completed the practice trials. During the experimental trials, you will not receive feedback. 
Before you begin, please ensure that you are in a comfortable and quiet location and will not be disturbed for about 15 minutes, as we cannot use your data if you do not complete all the trials. 
 When you are ready to start the experimental trials, please press space or touch the button below.",,,200581,19,2022-01-28_16h51.39.804,lexical_decision_task_DD_L6,2021.2.3,MacIntel,59.97361161,,,,,,,,,,,,,,,,,,,,,,0,0,0,0,1,,,,,,,,,,,,,,,,,,,,,,,,,,,,,,,,,,,,,,,,,,,,,,,
,,,,,,,,,,,,,,,,,200581,19,2022-01-28_16h51.39.804,lexical_decision_task_DD_L6,2021.2.3,MacIntel,59.97361161,,,,,,,,,,,,1.1278,1,,,,,,,,,,,,,,m,1,1.1278,,,,,,,,-0.000112305,-0.396821289,0,0,0,,0,0,0,79,1,RULER,C,old,m,./images/RULER.png,,,,,,,,,,,,,,,,,,,,,
,,,,,,,,,,,,,,,,,200581,19,2022-01-28_16h51.39.804,lexical_decision_task_DD_L6,2021.2.3,MacIntel,59.97361161,,,,,,,,,,,,1.0604,0,,,,,,,,,,,,,,m,0,1.0604,,,,,,,,-0.000112305,-0.396821289,0,0,0,,0,1,1,112,1,MYING,HB,old,z,./images/MYINGHB.png,,,,,,,,,,,,,,,,,,,,,
,,,,,,,,,,,,,,,,,200581,19,2022-01-28_16h51.39.804,lexical_decision_task_DD_L6,2021.2.3,MacIntel,59.97361161,,,,,,,,,,,,1.2696,0,,,,,,,,,,,,,,z,0,1.2696,,,,,,,,-0.000112305,-0.396821289,0,0,0,,0,2,2,50,1,PILOT,HB,old,m,./images/PILOTHB.png,,,,,,,,,,,,,,,,,,,,,
,,,,,,,,,,,,,,,,,200581,19,2022-01-28_16h51.39.804,lexical_decision_task_DD_L6,2021.2.3,MacIntel,59.97361161,,,,,,,,,,,,0.8267,1,,,,,,,,,,,,,,z,1,0.8267,,,,,,,,-0.000112305,-0.396821289,0,0,0,,0,3,3,105,1,MOKER,C,old,z,./images/MOKER.png,,,,,,,,,,,,,,,,,,,,,
,,,,,,,,,,,,,,,,,200581,19,2022-01-28_16h51.39.804,lexical_decision_task_DD_L6,2021.2.3,MacIntel,59.97361161,,,,,,,,,,,,0.761,1,,,,,,,,,,,,,,m,1,0.761,,,,,,,,-0.000112305,-0.396821289,0,0,0,,0,4,4,19,1,DONKEY,C,old,m,./images/DONKEY.png,,,,,,,,,,,,,,,,,,,,,
,,,,,,,,,,,,,,,,,200581,19,2022-01-28_16h51.39.804,lexical_decision_task_DD_L6,2021.2.3,MacIntel,59.97361161,,,,,,,,,,,,0.6137,1,,,,,,,,,,,,,,m,1,0.6137,,,,,,,,-0.000112305,-0.396821289,0,0,0,,0,5,5,49,1,BISHOP,C,old,m,./images/BISHOP.png,,,,,,,,,,,,,,,,,,,,,
,,,,,,,,,,,,,,,,,200581,19,2022-01-28_16h51.39.804,lexical_decision_task_DD_L6,2021.2.3,MacIntel,59.97361161,,,,,,,,,,,,0.8866,1,,,,,,,,,,,,,,z,1,0.8866,,,,,,,,-0.000112305,-0.396821289,0,0,0,,0,6,6,95,1,HANTY,LB,old,z,./images/HANTYLB.png,,,,,,,,,,,,,,,,,,,,,
,,,,,,,,,,,,,,,,,200581,19,2022-01-28_16h51.39.804,lexical_decision_task_DD_L6,2021.2.3,MacIntel,59.97361161,,,,,,,,,,,,0.665,1,,,,,,,,,,,,,,m,1,0.665,,,,,,,,-0.000112305,-0.396821289,0,0,0,,0,7,7,67,1,POKER,C,old,m,./images/POKER.png,,,,,,,,,,,,,,,,,,,,,
,,,,,,,,,,,,,,,,,200581,19,2022-01-28_16h51.39.804,lexical_decision_task_DD_L6,2021.2.3,MacIntel,59.97361161,,,,,,,,,,,,0.7446,1,,,,,,,,,,,,,,m,1,0.7446,,,,,,,,-0.000112305,-0.396821289,0,0,0,,0,8,8,7,1,WAGON,C,old,m,./images/WAGON.png,,,,,,,,,,,,,,,,,,,,,
,,,,,,,,,,,,,,,,,200581,19,2022-01-28_16h51.39.804,lexical_decision_task_DD_L6,2021.2.3,MacIntel,59.97361161,,,,,,,,,,,,1.6343,1,,,,,,,,,,,,,,m,1,1.6343,,,,,,,,-0.000112305,-0.396821289,0,0,0,,0,9,9,44,1,BASKET,HB,old,m,./images/BASKETHB.png,,,,,,,,,,,,,,,,,,,,,
,,,,,,,,,,,,,,,,,200581,19,2022-01-28_16h51.39.804,lexical_decision_task_DD_L6,2021.2.3,MacIntel,59.97361161,,,,,,,,,,,,0.9993,1,,,,,,,,,,,,,,z,1,0.9993,,,,,,,,-0.000112305,-0.396821289,0,0,0,,0,10,10,144,1,NAIRY,C,old,z,./images/NAIRY.png,,,,,,,,,,,,,,,,,,,,,
,,,,,,,,,,,,,,,,,200581,19,2022-01-28_16h51.39.804,lexical_decision_task_DD_L6,2021.2.3,MacIntel,59.97361161,,,,,,,,,,,,1.1001,1,,,,,,,,,,,,,,z,1,1.1001,,,,,,,,-0.000112305,-0.396821289,0,0,0,,0,11,11,98,1,BAMPS,LB,old,z,./images/BAMPSLB.png,,,,,,,,,,,,,,,,,,,,,
,,,,,,,,,,,,,,,,,200581,19,2022-01-28_16h51.39.804,lexical_decision_task_DD_L6,2021.2.3,MacIntel,59.97361161,,,,,,,,,,,,1.0982,1,,,,,,,,,,,,,,z,1,1.0982,,,,,,,,-0.000112305,-0.396821289,0,0,0,,0,12,12,140,1,DOVET,LB,old,z,./images/DOVETLB.png,,,,,,,,,,,,,,,,,,,,,
,,,,,,,,,,,,,,,,,200581,19,2022-01-28_16h51.39.804,lexical_decision_task_DD_L6,2021.2.3,MacIntel,59.97361161,,,,,,,,,,,,0.6662,1,,,,,,,,,,,,,,m,1,0.6662,,,,,,,,-0.000112305,-0.396821289,0,0,0,,0,13,13,24,1,FLESH,LB,old,m,./images/FLESHLB.png,,,,,,,,,,,,,,,,,,,,,
,,,,,,,,,,,,,,,,,200581,19,2022-01-28_16h51.39.804,lexical_decision_task_DD_L6,2021.2.3,MacIntel,59.97361161,,,,,,,,,,,,0.9812,1,,,,,,,,,,,,,,m,1,0.9812,,,,,,,,-0.000112305,-0.396821289,0,0,0,,0,14,14,76,1,MIDGET,C,old,m,./images/MIDGET.png,,,,,,,,,,,,,,,,,,,,,
,,,,,,,,,,,,,,,,,200581,19,2022-01-28_16h51.39.804,lexical_decision_task_DD_L6,2021.2.3,MacIntel,59.97361161,,,,,,,,,,,,0.6128,1,,,,,,,,,,,,,,m,1,0.6128,,,,,,,,-0.000112305,-0.396821289,0,0,0,,0,15,15,66,1,STATUE,LB,old,m,./images/STATUELB.png,,,,,,,,,,,,,,,,,,,,,
,,,,,,,,,,,,,,,,,200581,19,2022-01-28_16h51.39.804,lexical_decision_task_DD_L6,2021.2.3,MacIntel,59.97361161,,,,,,,,,,,,0.7955,1,,,,,,,,,,,,,,m,1,0.7955,,,,,,,,-0.000112305,-0.396821289,0,0,0,,0,16,16,17,1,PARADE,HB,old,m,./images/PARADEHB.png,,,,,,,,,,,,,,,,,,,,,
,,,,,,,,,,,,,,,,,200581,19,2022-01-28_16h51.39.804,lexical_decision_task_DD_L6,2021.2.3,MacIntel,59.97361161,,,,,,,,,,,,1.2824,1,,,,,,,,,,,,,,m,1,1.2824,,,,,,,,-0.000112305,-0.396821289,0,0,0,,0,17,17,18,1,PARCEL,LB,old,m,./images/PARCELLB.png,,,,,,,,,,,,,,,,,,,,,
,,,,,,,,,,,,,,,,,200581,19,2022-01-28_16h51.39.804,lexical_decision_task_DD_L6,2021.2.3,MacIntel,59.97361161,,,,,,,,,,,,1.3143,1,,,,,,,,,,,,,,z,1,1.3143,,,,,,,,-0.000112305,-0.396821289,0,0,0,,0,18,18,109,1,BURGE,HB,old,z,./images/BURGEHB.png,,,,,,,,,,,,,,,,,,,,,
,,,,,,,,,,,,,,,,,200581,19,2022-01-28_16h51.39.804,lexical_decision_task_DD_L6,2021.2.3,MacIntel,59.97361161,,,,,,,,,,,,0.5869,1,,,,,,,,,,,,,,m,1,0.5869,,,,,,,,-0.000112305,-0.396821289,0,0,0,,0,19,19,1,1,TOWEL,C,old,m,./images/TOWEL.png,,,,,,,,,,,,,,,,,,,,,
,,,,,,,,,,,,,,,,,200581,19,2022-01-28_16h51.39.804,lexical_decision_task_DD_L6,2021.2.3,MacIntel,59.97361161,,,,,,,,,,,,0.68,1,,,,,,,,,,,,,,m,1,0.68,,,,,,,,-0.000112305,-0.396821289,0,0,0,,0,20,20,28,1,CASINO,C,old,m,./images/CASINO.png,,,,,,,,,,,,,,,,,,,,,
,,,,,,,,,,,,,,,,,200581,19,2022-01-28_16h51.39.804,lexical_decision_task_DD_L6,2021.2.3,MacIntel,59.97361161,,,,,,,,,,,,0.7612,1,,,,,,,,,,,,,,z,1,0.7612,,,,,,,,-0.000112305,-0.396821289,0,0,0,,0,21,21,90,1,NEAST,C,old,z,./images/NEAST.png,,,,,,,,,,,,,,,,,,,,,
,,,,,,,,,,,,,,,,,200581,19,2022-01-28_16h51.39.804,lexical_decision_task_DD_L6,2021.2.3,MacIntel,59.97361161,,,,,,,,,,,,0.5268,1,,,,,,,,,,,,,,m,1,0.5268,,,,,,,,-0.000112305,-0.396821289,0,0,0,,0,22,22,70,1,BANANA,C,old,m,./images/BANANA.png,,,,,,,,,,,,,,,,,,,,,
,,,,,,,,,,,,,,,,,200581,19,2022-01-28_16h51.39.804,lexical_decision_task_DD_L6,2021.2.3,MacIntel,59.97361161,,,,,,,,,,,,0.6344,1,,,,,,,,,,,,,,m,1,0.6344,,,,,,,,-0.000112305,-0.396821289,0,0,0,,0,23,23,30,1,SLOPE,LB,old,m,./images/SLOPELB.png,,,,,,,,,,,,,,,,,,,,,
,,,,,,,,,,,,,,,,,200581,19,2022-01-28_16h51.39.804,lexical_decision_task_DD_L6,2021.2.3,MacIntel,59.97361161,,,,,,,,,,,,0.4733,1,,,,,,,,,,,,,,m,1,0.4733,,,,,,,,-0.000112305,-0.396821289,0,0,0,,0,24,24,4,1,BOXER,C,old,m,./images/BOXER.png,,,,,,,,,,,,,,,,,,,,,
,,,,,,,,,,,,,,,,,200581,19,2022-01-28_16h51.39.804,lexical_decision_task_DD_L6,2021.2.3,MacIntel,59.97361161,,,,,,,,,,,,1.1117,1,,,,,,,,,,,,,,z,1,1.1117,,,,,,,,-0.000112305,-0.396821289,0,0,0,,0,25,25,87,1,TRING,C,old,z,./images/TRING.png,,,,,,,,,,,,,,,,,,,,,
,,,,,,,,,,,,,,,,,200581,19,2022-01-28_16h51.39.804,lexical_decision_task_DD_L6,2021.2.3,MacIntel,59.97361161,,,,,,,,,,,,1.1652,1,,,,,,,,,,,,,,z,1,1.1652,,,,,,,,-0.000112305,-0.396821289,0,0,0,,0,26,26,97,1,CHIDS,HB,old,z,./images/CHIDSHB.png,,,,,,,,,,,,,,,,,,,,,
,,,,,,,,,,,,,,,,,200581,19,2022-01-28_16h51.39.804,lexical_decision_task_DD_L6,2021.2.3,MacIntel,59.97361161,,,,,,,,,,,,1.0131,1,,,,,,,,,,,,,,z,1,1.0131,,,,,,,,-0.000112305,-0.396821289,0,0,0,,0,27,27,146,1,MOOST,LB,old,z,./images/MOOSTLB.png,,,,,,,,,,,,,,,,,,,,,
,,,,,,,,,,,,,,,,,200581,19,2022-01-28_16h51.39.804,lexical_decision_task_DD_L6,2021.2.3,MacIntel,59.97361161,,,,,,,,,,,,1.7679,1,,,,,,,,,,,,,,m,1,1.7679,,,,,,,,-0.000112305,-0.396821289,0,0,0,,0,28,28,12,1,BLOKE,LB,old,m,./images/BLOKELB.png,,,,,,,,,,,,,,,,,,,,,
,,,,,,,,,,,,,,,,,200581,19,2022-01-28_16h51.39.804,lexical_decision_task_DD_L6,2021.2.3,MacIntel,59.97361161,,,,,,,,,,,,1.4827,1,,,,,,,,,,,,,,m,1,1.4827,,,,,,,,-0.000112305,-0.396821289,0,0,0,,0,29,29,5,1,BAMBOO,HB,old,m,./images/BAMBOOHB.png,,,,,,,,,,,,,,,,,,,,,
,,,,,,,,,,,,,,,,,200581,19,2022-01-28_16h51.39.804,lexical_decision_task_DD_L6,2021.2.3,MacIntel,59.97361161,,,,,,,,,,,,1.2147,1,,,,,,,,,,,,,,m,1,1.2147,,,,,,,,-0.000112305,-0.396821289,0,0,0,,0,30,30,11,1,MEDAL,HB,old,m,./images/MEDALHB.png,,,,,,,,,,,,,,,,,,,,,
,,,,,,,,,,,,,,,,,200581,19,2022-01-28_16h51.39.804,lexical_decision_task_DD_L6,2021.2.3,MacIntel,59.97361161,,,,,,,,,,,,1.1162,1,,,,,,,,,,,,,,z,1,1.1162,,,,,,,,-0.000112305,-0.396821289,0,0,0,,0,31,31,122,1,BLOOT,LB,old,z,./images/BLOOTLB.png,,,,,,,,,,,,,,,,,,,,,
,,,,,,,,,,,,,,,,,200581,19,2022-01-28_16h51.39.804,lexical_decision_task_DD_L6,2021.2.3,MacIntel,59.97361161,,,,,,,,,,,,1.5285,1,,,,,,,,,,,,,,z,1,1.5285,,,,,,,,-0.000142383,-0.47536772,0,0,0,,0,32,32,138,1,PLICE,C,old,z,./images/PLICE.png,,,,,,,,,,,,,,,,,,,,,
,,,,,,,,,,,,,,,,,200581,19,2022-01-28_16h51.39.804,lexical_decision_task_DD_L6,2021.2.3,MacIntel,59.97361161,,,,,,,,,,,,1.9341,1,,,,,,,,,,,,,,z,1,1.9341,,,,,,,,-0.000142383,-0.47536772,0,0,0,,0,33,33,103,1,FLORT,HB,old,z,./images/FLORTHB.png,,,,,,,,,,,,,,,,,,,,,
,,,,,,,,,,,,,,,,,200581,19,2022-01-28_16h51.39.804,lexical_decision_task_DD_L6,2021.2.3,MacIntel,59.97361161,,,,,,,,,,,,0.7179,1,,,,,,,,,,,,,,m,1,0.7179,,,,,,,,-0.000142383,-0.47536772,0,0,0,,0,34,34,75,1,HAMMER,LB,old,m,./images/HAMMERLB.png,,,,,,,,,,,,,,,,,,,,,
,,,,,,,,,,,,,,,,,200581,19,2022-01-28_16h51.39.804,lexical_decision_task_DD_L6,2021.2.3,MacIntel,59.97361161,,,,,,,,,,,,0.6512,1,,,,,,,,,,,,,,m,1,0.6512,,,,,,,,-0.000142383,-0.47536772,0,0,0,,0,35,35,23,1,CLOTH,HB,old,m,./images/CLOTHHB.png,,,,,,,,,,,,,,,,,,,,,
,,,,,,,,,,,,,,,,,200581,19,2022-01-28_16h51.39.804,lexical_decision_task_DD_L6,2021.2.3,MacIntel,59.97361161,,,,,,,,,,,,0.5354,1,,,,,,,,,,,,,,m,1,0.5354,,,,,,,,-0.000142383,-0.47536772,0,0,0,,0,36,36,3,1,CRATER,LB,old,m,./images/CRATERLB.png,,,,,,,,,,,,,,,,,,,,,
,,,,,,,,,,,,,,,,,200581,19,2022-01-28_16h51.39.804,lexical_decision_task_DD_L6,2021.2.3,MacIntel,59.97361161,,,,,,,,,,,,1.287,1,,,,,,,,,,,,,,z,1,1.287,,,,,,,,-0.000142383,-0.47536772,0,0,0,,0,37,37,119,1,PAFER,LB,old,z,./images/PAFERLB.png,,,,,,,,,,,,,,,,,,,,,
,,,,,,,,,,,,,,,,,200581,19,2022-01-28_16h51.39.804,lexical_decision_task_DD_L6,2021.2.3,MacIntel,59.97361161,,,,,,,,,,,,0.6799,1,,,,,,,,,,,,,,z,1,0.6799,,,,,,,,-0.000142383,-0.47536772,0,0,0,,0,38,38,113,1,LINEW,LB,old,z,./images/LINEWLB.png,,,,,,,,,,,,,,,,,,,,,
,,,,,,,,,,,,,,,,,200581,19,2022-01-28_16h51.39.804,lexical_decision_task_DD_L6,2021.2.3,MacIntel,59.97361161,,,,,,,,,,,,0.7189,1,,,,,,,,,,,,,,m,1,0.7189,,,,,,,,-0.000142383,-0.47536772,0,0,0,,0,39,39,14,1,FENCE,HB,old,m,./images/FENCEHB.png,,,,,,,,,,,,,,,,,,,,,
,,,,,,,,,,,,,,,,,200581,19,2022-01-28_16h51.39.804,lexical_decision_task_DD_L6,2021.2.3,MacIntel,59.97361161,,,,,,,,,,,,0.7303,1,,,,,,,,,,,,,,z,1,0.7303,,,,,,,,-0.000142383,-0.47536772,0,0,0,,0,40,40,134,1,TROSS,LB,old,z,./images/TROSSLB.png,,,,,,,,,,,,,,,,,,,,,
,,,,,,,,,,,,,,,,,200581,19,2022-01-28_16h51.39.804,lexical_decision_task_DD_L6,2021.2.3,MacIntel,59.97361161,,,,,,,,,,,,0.6685,1,,,,,,,,,,,,,,z,1,0.6685,,,,,,,,0.009304427,-0.453830725,0,0,0,space,0,41,41,158,1,EGECT,LB,old,z,./images/EGECTLB.png,6.7201,,,,,,,,,,,,,,,,,,,,
,,,,,,,,,,,,,,,,,200581,19,2022-01-28_16h51.39.804,lexical_decision_task_DD_L6,2021.2.3,MacIntel,59.97361161,,,,,,,,,,,,1.0347,1,,,,,,,,,,,,,,m,1,1.0347,,,,,,,,0.009304427,-0.453830725,0,0,0,,0,42,42,37,1,TIGER,C,old,m,./images/TIGER.png,,,,,,,,,,,,,,,,,,,,,
,,,,,,,,,,,,,,,,,200581,19,2022-01-28_16h51.39.804,lexical_decision_task_DD_L6,2021.2.3,MacIntel,59.97361161,,,,,,,,,,,,0.8974,1,,,,,,,,,,,,,,m,1,0.8974,,,,,,,,0.009304427,-0.453830725,0,0,0,,0,43,43,60,1,CURRY,LB,old,m,./images/CURRYLB.png,,,,,,,,,,,,,,,,,,,,,
,,,,,,,,,,,,,,,,,200581,19,2022-01-28_16h51.39.804,lexical_decision_task_DD_L6,2021.2.3,MacIntel,59.97361161,,,,,,,,,,,,0.6626,1,,,,,,,,,,,,,,z,1,0.6626,,,,,,,,0.009304427,-0.453830725,0,0,0,,0,44,44,129,1,PRANS,C,old,z,./images/PRANS.png,,,,,,,,,,,,,,,,,,,,,
,,,,,,,,,,,,,,,,,200581,19,2022-01-28_16h51.39.804,lexical_decision_task_DD_L6,2021.2.3,MacIntel,59.97361161,,,,,,,,,,,,0.8416,1,,,,,,,,,,,,,,m,1,0.8416,,,,,,,,0.009304427,-0.453830725,0,0,0,,0,45,45,62,1,MAMMAL,HB,old,m,./images/MAMMALHB.png,,,,,,,,,,,,,,,,,,,,,
,,,,,,,,,,,,,,,,,200581,19,2022-01-28_16h51.39.804,lexical_decision_task_DD_L6,2021.2.3,MacIntel,59.97361161,,,,,,,,,,,,0.5219,1,,,,,,,,,,,,,,m,1,0.5219,,,,,,,,0.009304427,-0.453830725,0,0,0,,0,46,46,16,1,GRAPE,C,old,m,./images/GRAPE.png,,,,,,,,,,,,,,,,,,,,,
,,,,,,,,,,,,,,,,,200581,19,2022-01-28_16h51.39.804,lexical_decision_task_DD_L6,2021.2.3,MacIntel,59.97361161,,,,,,,,,,,,0.5238,1,,,,,,,,,,,,,,m,1,0.5238,,,,,,,,0.009304427,-0.453830725,0,0,0,,0,47,47,31,1,STEAK,C,old,m,./images/STEAK.png,,,,,,,,,,,,,,,,,,,,,
,,,,,,,,,,,,,,,,,200581,19,2022-01-28_16h51.39.804,lexical_decision_task_DD_L6,2021.2.3,MacIntel,59.97361161,,,,,,,,,,,,0.7567,1,,,,,,,,,,,,,,z,1,0.7567,,,,,,,,0.009304427,-0.453830725,0,0,0,,0,48,48,164,1,SGREW,LB,old,z,./images/SGREWLB.png,,,,,,,,,,,,,,,,,,,,,
,,,,,,,,,,,,,,,,,200581,19,2022-01-28_16h51.39.804,lexical_decision_task_DD_L6,2021.2.3,MacIntel,59.97361161,,,,,,,,,,,,0.7506,1,,,,,,,,,,,,,,z,1,0.7506,,,,,,,,0.009304427,-0.453830725,0,0,0,,0,49,49,116,1,BALGY,LB,old,z,./images/BALGYLB.png,,,,,,,,,,,,,,,,,,,,,
,,,,,,,,,,,,,,,,,200581,19,2022-01-28_16h51.39.804,lexical_decision_task_DD_L6,2021.2.3,MacIntel,59.97361161,,,,,,,,,,,,0.6626,1,,,,,,,,,,,,,,m,1,0.6626,,,,,,,,0.009304427,-0.453830725,0,0,0,,0,50,50,2,1,STOVE,HB,old,m,./images/STOVEHB.png,,,,,,,,,,,,,,,,,,,,,
,,,,,,,,,,,,,,,,,200581,19,2022-01-28_16h51.39.804,lexical_decision_task_DD_L6,2021.2.3,MacIntel,59.97361161,,,,,,,,,,,,0.705,1,,,,,,,,,,,,,,z,1,0.705,,,,,,,,0.009304427,-0.453830725,0,0,0,,0,51,51,104,1,GITTY,LB,old,z,./images/GITTYLB.png,,,,,,,,,,,,,,,,,,,,,
,,,,,,,,,,,,,,,,,200581,19,2022-01-28_16h51.39.804,lexical_decision_task_DD_L6,2021.2.3,MacIntel,59.97361161,,,,,,,,,,,,0.9345,1,,,,,,,,,,,,,,z,1,0.9345,,,,,,,,0.009304427,-0.453830725,0,0,0,,0,52,52,163,1,GAMBA,HB,old,z,./images/GAMBAHB.png,,,,,,,,,,,,,,,,,,,,,
,,,,,,,,,,,,,,,,,200581,19,2022-01-28_16h51.39.804,lexical_decision_task_DD_L6,2021.2.3,MacIntel,59.97361161,,,,,,,,,,,,0.8414,1,,,,,,,,,,,,,,m,1,0.8414,,,,,,,,0.009304427,-0.453830725,0,0,0,,0,53,53,42,1,CHAIN,LB,old,m,./images/CHAINLB.png,,,,,,,,,,,,,,,,,,,,,
,,,,,,,,,,,,,,,,,200581,19,2022-01-28_16h51.39.804,lexical_decision_task_DD_L6,2021.2.3,MacIntel,59.97361161,,,,,,,,,,,,0.6507,0,,,,,,,,,,,,,,z,0,0.6507,,,,,,,,0.009304427,-0.453830725,0,0,0,,0,54,54,36,1,BOILER,LB,old,m,./images/BOILERLB.png,,,,,,,,,,,,,,,,,,,,,
,,,,,,,,,,,,,,,,,200581,19,2022-01-28_16h51.39.804,lexical_decision_task_DD_L6,2021.2.3,MacIntel,59.97361161,,,,,,,,,,,,0.7828,1,,,,,,,,,,,,,,z,1,0.7828,,,,,,,,0.009304427,-0.453830725,0,0,0,,0,55,55,125,1,MOOKY,LB,old,z,./images/MOOKYLB.png,,,,,,,,,,,,,,,,,,,,,
,,,,,,,,,,,,,,,,,200581,19,2022-01-28_16h51.39.804,lexical_decision_task_DD_L6,2021.2.3,MacIntel,59.97361161,,,,,,,,,,,,0.6965,1,,,,,,,,,,,,,,z,1,0.6965,,,,,,,,0.009304427,-0.453830725,0,0,0,,0,56,56,132,1,SCIFF,C,old,z,./images/SCIFF.png,,,,,,,,,,,,,,,,,,,,,
,,,,,,,,,,,,,,,,,200581,19,2022-01-28_16h51.39.804,lexical_decision_task_DD_L6,2021.2.3,MacIntel,59.97361161,,,,,,,,,,,,0.6977,0,,,,,,,,,,,,,,z,0,0.6977,,,,,,,,0.009304427,-0.453830725,0,0,0,,0,57,57,72,1,FLASK,LB,old,m,./images/FLASKLB.png,,,,,,,,,,,,,,,,,,,,,
,,,,,,,,,,,,,,,,,200581,19,2022-01-28_16h51.39.804,lexical_decision_task_DD_L6,2021.2.3,MacIntel,59.97361161,,,,,,,,,,,,0.898,1,,,,,,,,,,,,,,z,1,0.898,,,,,,,,0.009304427,-0.453830725,0,0,0,,0,58,58,108,1,GRUET,C,old,z,./images/GRUET.png,,,,,,,,,,,,,,,,,,,,,
,,,,,,,,,,,,,,,,,200581,19,2022-01-28_16h51.39.804,lexical_decision_task_DD_L6,2021.2.3,MacIntel,59.97361161,,,,,,,,,,,,1.5529,0,,,,,,,,,,,,,,m,0,1.5529,,,,,,,,0.009304427,-0.453830725,0,0,0,,0,59,59,151,1,TINKY,HB,old,z,./images/TINKYHB.png,,,,,,,,,,,,,,,,,,,,,
,,,,,,,,,,,,,,,,,200581,19,2022-01-28_16h51.39.804,lexical_decision_task_DD_L6,2021.2.3,MacIntel,59.97361161,,,,,,,,,,,,0.6488,1,,,,,,,,,,,,,,m,1,0.6488,,,,,,,,0.009304427,-0.453830725,0,0,0,,0,60,60,9,1,DIVER,LB,old,m,./images/DIVERLB.png,,,,,,,,,,,,,,,,,,,,,
,,,,,,,,,,,,,,,,,200581,19,2022-01-28_16h51.39.804,lexical_decision_task_DD_L6,2021.2.3,MacIntel,59.97361161,,,,,,,,,,,,0.6298,1,,,,,,,,,,,,,,m,1,0.6298,,,,,,,,0.009304427,-0.453830725,0,0,0,,0,61,61,33,1,SAUNA,LB,old,m,./images/SAUNALB.png,,,,,,,,,,,,,,,,,,,,,
,,,,,,,,,,,,,,,,,200581,19,2022-01-28_16h51.39.804,lexical_decision_task_DD_L6,2021.2.3,MacIntel,59.97361161,,,,,,,,,,,,0.8289,1,,,,,,,,,,,,,,z,1,0.8289,,,,,,,,0.009304427,-0.453830725,0,0,0,,0,62,62,141,1,PLEET,C,old,z,./images/PLEET.png,,,,,,,,,,,,,,,,,,,,,
,,,,,,,,,,,,,,,,,200581,19,2022-01-28_16h51.39.804,lexical_decision_task_DD_L6,2021.2.3,MacIntel,59.97361161,,,,,,,,,,,,0.7998,1,,,,,,,,,,,,,,m,1,0.7998,,,,,,,,0.009304427,-0.453830725,0,0,0,,0,63,63,47,1,LAGOON,HB,old,m,./images/LAGOONHB.png,,,,,,,,,,,,,,,,,,,,,
,,,,,,,,,,,,,,,,,200581,19,2022-01-28_16h51.39.804,lexical_decision_task_DD_L6,2021.2.3,MacIntel,59.97361161,,,,,,,,,,,,2.8163,1,,,,,,,,,,,,,,m,1,2.8163,,,,,,,,0.009304427,-0.453830725,0,0,0,,0,64,64,20,1,GRANNY,HB,old,m,./images/GRANNYHB.png,,,,,,,,,,,,,,,,,,,,,
,,,,,,,,,,,,,,,,,200581,19,2022-01-28_16h51.39.804,lexical_decision_task_DD_L6,2021.2.3,MacIntel,59.97361161,,,,,,,,,,,,1.2094,0,,,,,,,,,,,,,,m,0,1.2094,,,,,,,,0.009304427,-0.453830725,0,0,0,,0,65,65,142,1,PLASK,HB,old,z,./images/PLASKHB.png,,,,,,,,,,,,,,,,,,,,,
,,,,,,,,,,,,,,,,,200581,19,2022-01-28_16h51.39.804,lexical_decision_task_DD_L6,2021.2.3,MacIntel,59.97361161,,,,,,,,,,,,1.1674,1,,,,,,,,,,,,,,z,1,1.1674,,,,,,,,0.009304427,-0.453830725,0,0,0,,0,66,66,121,1,CEERS,HB,old,z,./images/CEERSHB.png,,,,,,,,,,,,,,,,,,,,,
,,,,,,,,,,,,,,,,,200581,19,2022-01-28_16h51.39.804,lexical_decision_task_DD_L6,2021.2.3,MacIntel,59.97361161,,,,,,,,,,,,1.3661,1,,,,,,,,,,,,,,z,1,1.3661,,,,,,,,0.009304427,-0.453830725,0,0,0,,0,67,67,137,1,JOOST,LB,old,z,./images/JOOSTLB.png,,,,,,,,,,,,,,,,,,,,,
,,,,,,,,,,,,,,,,,200581,19,2022-01-28_16h51.39.804,lexical_decision_task_DD_L6,2021.2.3,MacIntel,59.97361161,,,,,,,,,,,,1.1978,1,,,,,,,,,,,,,,z,1,1.1978,,,,,,,,0.009304427,-0.453830725,0,0,0,,0,68,68,111,1,HOSSE,C,old,z,./images/HOSSE.png,,,,,,,,,,,,,,,,,,,,,
,,,,,,,,,,,,,,,,,200581,19,2022-01-28_16h51.39.804,lexical_decision_task_DD_L6,2021.2.3,MacIntel,59.97361161,,,,,,,,,,,,1.447,1,,,,,,,,,,,,,,z,1,1.447,,,,,,,,0.009304427,-0.453830725,0,0,0,,0,69,69,160,1,VEETS,HB,old,z,./images/VEETSHB.png,,,,,,,,,,,,,,,,,,,,,
,,,,,,,,,,,,,,,,,200581,19,2022-01-28_16h51.39.804,lexical_decision_task_DD_L6,2021.2.3,MacIntel,59.97361161,,,,,,,,,,,,0.6506,1,,,,,,,,,,,,,,m,1,0.6506,,,,,,,,0.009304427,-0.453830725,0,0,0,,0,70,70,68,1,VALLEY,HB,old,m,./images/VALLEYHB.png,,,,,,,,,,,,,,,,,,,,,
,,,,,,,,,,,,,,,,,200581,19,2022-01-28_16h51.39.804,lexical_decision_task_DD_L6,2021.2.3,MacIntel,59.97361161,,,,,,,,,,,,1.0972,1,,,,,,,,,,,,,,m,1,1.0972,,,,,,,,0.009304427,-0.453830725,0,0,0,,0,71,71,59,1,BRUSH,HB,old,m,./images/BRUSHHB.png,,,,,,,,,,,,,,,,,,,,,
,,,,,,,,,,,,,,,,,200581,19,2022-01-28_16h51.39.804,lexical_decision_task_DD_L6,2021.2.3,MacIntel,59.97361161,,,,,,,,,,,,0.6099,1,,,,,,,,,,,,,,m,1,0.6099,,,,,,,,0.009304427,-0.453830725,0,0,0,,0,72,72,61,1,ARTIST,C,old,m,./images/ARTIST.png,,,,,,,,,,,,,,,,,,,,,
,,,,,,,,,,,,,,,,,200581,19,2022-01-28_16h51.39.804,lexical_decision_task_DD_L6,2021.2.3,MacIntel,59.97361161,,,,,,,,,,,,1.7534,0,,,,,,,,,,,,,,m,0,1.7534,,,,,,,,0.009304427,-0.453830725,0,0,0,,0,73,73,107,1,FASKS,LB,old,z,./images/FASKSLB.png,,,,,,,,,,,,,,,,,,,,,
,,,,,,,,,,,,,,,,,200581,19,2022-01-28_16h51.39.804,lexical_decision_task_DD_L6,2021.2.3,MacIntel,59.97361161,,,,,,,,,,,,0.8404,1,,,,,,,,,,,,,,z,1,0.8404,,,,,,,,0.009304427,-0.453830725,0,0,0,,0,74,74,120,1,RINED,C,old,z,./images/RINED.png,,,,,,,,,,,,,,,,,,,,,
,,,,,,,,,,,,,,,,,200581,19,2022-01-28_16h51.39.804,lexical_decision_task_DD_L6,2021.2.3,MacIntel,59.97361161,,,,,,,,,,,,1.1824,1,,,,,,,,,,,,,,z,1,1.1824,,,,,,,,0.009304427,-0.453830725,0,0,0,,0,75,75,124,1,TUNCH,HB,old,z,./images/TUNCHHB.png,,,,,,,,,,,,,,,,,,,,,
,,,,,,,,,,,,,,,,,200581,19,2022-01-28_16h51.39.804,lexical_decision_task_DD_L6,2021.2.3,MacIntel,59.97361161,,,,,,,,,,,,1.3535,1,,,,,,,,,,,,,,z,1,1.3535,,,,,,,,0.009304427,-0.453830725,0,0,0,,0,76,76,133,1,POWDY,HB,old,z,./images/POWDYHB.png,,,,,,,,,,,,,,,,,,,,,
,,,,,,,,,,,,,,,,,200581,19,2022-01-28_16h51.39.804,lexical_decision_task_DD_L6,2021.2.3,MacIntel,59.97361161,,,,,,,,,,,,0.6296,1,,,,,,,,,,,,,,m,1,0.6296,,,,,,,,0.009304427,-0.453830725,0,0,0,,0,77,77,0,1,WALNUT,LB,old,m,./images/WALNUTLB.png,,,,,,,,,,,,,,,,,,,,,
,,,,,,,,,,,,,,,,,200581,19,2022-01-28_16h51.39.804,lexical_decision_task_DD_L6,2021.2.3,MacIntel,59.97361161,,,,,,,,,,,,1.0487,1,,,,,,,,,,,,,,z,1,1.0487,,,,,,,,0.009304427,-0.453830725,0,0,0,,0,78,78,127,1,NINDY,HB,old,z,./images/NINDYHB.png,,,,,,,,,,,,,,,,,,,,,
,,,,,,,,,,,,,,,,,200581,19,2022-01-28_16h51.39.804,lexical_decision_task_DD_L6,2021.2.3,MacIntel,59.97361161,,,,,,,,,,,,1.1088,1,,,,,,,,,,,,,,z,1,1.1088,,,,,,,,0.009304427,-0.453830725,0,0,0,,0,79,79,84,1,HAXES,C,old,z,./images/HAXES.png,,,,,,,,,,,,,,,,,,,,,
,,,,,,,,,,,,,,,,,200581,19,2022-01-28_16h51.39.804,lexical_decision_task_DD_L6,2021.2.3,MacIntel,59.97361161,,,,,,,,,,,,0.9641,1,,,,,,,,,,,,,,z,1,0.9641,,,,,,,,0.009304427,-0.453830725,0,0,0,,0,80,80,99,1,BACKY,C,old,z,./images/BACKY.png,,,,,,,,,,,,,,,,,,,,,
,,,,,,,,,,,,,,,,,200581,19,2022-01-28_16h51.39.804,lexical_decision_task_DD_L6,2021.2.3,MacIntel,59.97361161,,,,,,,,,,,,0.7671,1,,,,,,,,,,,,,,m,1,0.7671,,,,,,,,0.009304427,-0.453830725,0,0,0,,0,81,81,32,1,HOCKEY,HB,old,m,./images/HOCKEYHB.png,,,,,,,,,,,,,,,,,,,,,
,,,,,,,,,,,,,,,,,200581,19,2022-01-28_16h51.39.804,lexical_decision_task_DD_L6,2021.2.3,MacIntel,59.97361161,,,,,,,,,,,,1.1991,1,,,,,,,,,,,,,,z,1,1.1991,,,,,,,,0.009304427,-0.453830725,0,0,0,,0,82,82,94,1,BLANS,HB,old,z,./images/BLANSHB.png,,,,,,,,,,,,,,,,,,,,,
,,,,,,,,,,,,,,,,,200581,19,2022-01-28_16h51.39.804,lexical_decision_task_DD_L6,2021.2.3,MacIntel,59.97361161,,,,,,,,,,,,0.6707,1,,,,,,,,,,,,,,m,1,0.6707,,,,,,,,0.009304427,-0.453830725,0,0,0,space,0,83,83,51,1,SAUCE,LB,old,m,./images/SAUCELB.png,2.7904,,,,,,,,,,,,,,,,,,,,
,,,,,,,,,,,,,,,,,200581,19,2022-01-28_16h51.39.804,lexical_decision_task_DD_L6,2021.2.3,MacIntel,59.97361161,,,,,,,,,,,,1.4346,1,,,,,,,,,,,,,,z,1,1.4346,,,,,,,,0.009304427,-0.453830725,0,0,0,,0,84,84,86,1,AIFED,LB,old,z,./images/AIFEDLB.png,,,,,,,,,,,,,,,,,,,,,
,,,,,,,,,,,,,,,,,200581,19,2022-01-28_16h51.39.804,lexical_decision_task_DD_L6,2021.2.3,MacIntel,59.97361161,,,,,,,,,,,,0.7655,1,,,,,,,,,,,,,,z,1,0.7655,,,,,,,,0.009304427,-0.453830725,0,0,0,,0,85,85,147,1,ZOLES,C,old,z,./images/ZOLES.png,,,,,,,,,,,,,,,,,,,,,
,,,,,,,,,,,,,,,,,200581,19,2022-01-28_16h51.39.804,lexical_decision_task_DD_L6,2021.2.3,MacIntel,59.97361161,,,,,,,,,,,,1.5986,1,,,,,,,,,,,,,,z,1,1.5986,,,,,,,,0.009304427,-0.453830725,0,0,0,,0,86,86,118,1,BAVEL,HB,old,z,./images/BAVELHB.png,,,,,,,,,,,,,,,,,,,,,
,,,,,,,,,,,,,,,,,200581,19,2022-01-28_16h51.39.804,lexical_decision_task_DD_L6,2021.2.3,MacIntel,59.97361161,,,,,,,,,,,,0.6282,1,,,,,,,,,,,,,,m,1,0.6282,,,,,,,,0.009304427,-0.453830725,0,0,0,,0,87,87,52,1,DESERT,C,old,m,./images/DESERT.png,,,,,,,,,,,,,,,,,,,,,
,,,,,,,,,,,,,,,,,200581,19,2022-01-28_16h51.39.804,lexical_decision_task_DD_L6,2021.2.3,MacIntel,59.97361161,,,,,,,,,,,,0.8794,1,,,,,,,,,,,,,,z,1,0.8794,,,,,,,,0.009304427,-0.453830725,0,0,0,,0,88,88,148,1,JOMS,HB,old,z,./images/JOMSHB.png,,,,,,,,,,,,,,,,,,,,,
,,,,,,,,,,,,,,,,,200581,19,2022-01-28_16h51.39.804,lexical_decision_task_DD_L6,2021.2.3,MacIntel,59.97361161,,,,,,,,,,,,0.8568,0,,,,,,,,,,,,,,z,0,0.8568,,,,,,,,0.009304427,-0.453830725,0,0,0,,0,89,89,53,1,POSTER,HB,old,m,./images/POSTERHB.png,,,,,,,,,,,,,,,,,,,,,
,,,,,,,,,,,,,,,,,200581,19,2022-01-28_16h51.39.804,lexical_decision_task_DD_L6,2021.2.3,MacIntel,59.97361161,,,,,,,,,,,,1.1339,1,,,,,,,,,,,,,,z,1,1.1339,,,,,,,,0.009304427,-0.453830725,0,0,0,,0,90,90,139,1,BLEAR,HB,old,z,./images/BLEARHB.png,,,,,,,,,,,,,,,,,,,,,
,,,,,,,,,,,,,,,,,200581,19,2022-01-28_16h51.39.804,lexical_decision_task_DD_L6,2021.2.3,MacIntel,59.97361161,,,,,,,,,,,,0.8642,1,,,,,,,,,,,,,,z,1,0.8642,,,,,,,,0.009304427,-0.453830725,0,0,0,,0,91,91,159,1,CUDDY,C,old,z,./images/CUDDY.png,,,,,,,,,,,,,,,,,,,,,
,,,,,,,,,,,,,,,,,200581,19,2022-01-28_16h51.39.804,lexical_decision_task_DD_L6,2021.2.3,MacIntel,59.97361161,,,,,,,,,,,,0.8166,1,,,,,,,,,,,,,,z,1,0.8166,,,,,,,,0.009304427,-0.453830725,0,0,0,,0,92,92,110,1,CRUNK,LB,old,z,./images/CRUNKLB.png,,,,,,,,,,,,,,,,,,,,,
,,,,,,,,,,,,,,,,,200581,19,2022-01-28_16h51.39.804,lexical_decision_task_DD_L6,2021.2.3,MacIntel,59.97361161,,,,,,,,,,,,0.6812,1,,,,,,,,,,,,,,m,1,0.6812,,,,,,,,0.009304427,-0.453830725,0,0,0,,0,93,93,39,1,CANDY,LB,old,m,./images/CANDYLB.png,,,,,,,,,,,,,,,,,,,,,
,,,,,,,,,,,,,,,,,200581,19,2022-01-28_16h51.39.804,lexical_decision_task_DD_L6,2021.2.3,MacIntel,59.97361161,,,,,,,,,,,,0.6288,1,,,,,,,,,,,,,,m,1,0.6288,,,,,,,,0.009304427,-0.453830725,0,0,0,,0,94,94,55,1,ALLEY,C,old,m,./images/ALLEY.png,,,,,,,,,,,,,,,,,,,,,
,,,,,,,,,,,,,,,,,200581,19,2022-01-28_16h51.39.804,lexical_decision_task_DD_L6,2021.2.3,MacIntel,59.97361161,,,,,,,,,,,,0.8148,1,,,,,,,,,,,,,,z,1,0.8148,,,,,,,,0.009304427,-0.453830725,0,0,0,,0,95,95,143,1,MONGS,LB,old,z,./images/MONGSLB.png,,,,,,,,,,,,,,,,,,,,,
,,,,,,,,,,,,,,,,,200581,19,2022-01-28_16h51.39.804,lexical_decision_task_DD_L6,2021.2.3,MacIntel,59.97361161,,,,,,,,,,,,1.1783,1,,,,,,,,,,,,,,z,1,1.1783,,,,,,,,0.009304427,-0.453830725,0,0,0,,0,96,96,96,1,KEAMS,C,old,z,./images/KEAMS.png,,,,,,,,,,,,,,,,,,,,,
,,,,,,,,,,,,,,,,,200581,19,2022-01-28_16h51.39.804,lexical_decision_task_DD_L6,2021.2.3,MacIntel,59.97361161,,,,,,,,,,,,0.5951,1,,,,,,,,,,,,,,m,1,0.5951,,,,,,,,0.009304427,-0.453830725,0,0,0,,0,97,97,43,1,STOOL,C,old,m,./images/STOOL.png,,,,,,,,,,,,,,,,,,,,,
,,,,,,,,,,,,,,,,,200581,19,2022-01-28_16h51.39.804,lexical_decision_task_DD_L6,2021.2.3,MacIntel,59.97361161,,,,,,,,,,,,1.3749,1,,,,,,,,,,,,,,m,1,1.3749,,,,,,,,0.009304427,-0.453830725,0,0,0,,0,98,98,83,1,WHISKY,HB,old,m,./images/WHISKYHB.png,,,,,,,,,,,,,,,,,,,,,
,,,,,,,,,,,,,,,,,200581,19,2022-01-28_16h51.39.804,lexical_decision_task_DD_L6,2021.2.3,MacIntel,59.97361161,,,,,,,,,,,,0.7817,1,,,,,,,,,,,,,,m,1,0.7817,,,,,,,,0.009304427,-0.453830725,0,0,0,,0,99,99,65,1,SPINE,HB,old,m,./images/SPINEHB.png,,,,,,,,,,,,,,,,,,,,,
,,,,,,,,,,,,,,,,,200581,19,2022-01-28_16h51.39.804,lexical_decision_task_DD_L6,2021.2.3,MacIntel,59.97361161,,,,,,,,,,,,0.9648,1,,,,,,,,,,,,,,m,1,0.9648,,,,,,,,0.009304427,-0.453830725,0,0,0,,0,100,100,22,1,CLOWN,C,old,m,./images/CLOWN.png,,,,,,,,,,,,,,,,,,,,,
,,,,,,,,,,,,,,,,,200581,19,2022-01-28_16h51.39.804,lexical_decision_task_DD_L6,2021.2.3,MacIntel,59.97361161,,,,,,,,,,,,3.8686,1,,,,,,,,,,,,,,z,1,3.8686,,,,,,,,0.009304427,-0.453830725,0,0,0,,0,101,101,88,1,GLUSH,HB,old,z,./images/GLUSHHB.png,,,,,,,,,,,,,,,,,,,,,
,,,,,,,,,,,,,,,,,200581,19,2022-01-28_16h51.39.804,lexical_decision_task_DD_L6,2021.2.3,MacIntel,59.97361161,,,,,,,,,,,,0.5803,1,,,,,,,,,,,,,,m,1,0.5803,,,,,,,,0.009304427,-0.453830725,0,0,0,,0,102,102,13,1,BUNNY,C,old,m,./images/BUNNY.png,,,,,,,,,,,,,,,,,,,,,
,,,,,,,,,,,,,,,,,200581,19,2022-01-28_16h51.39.804,lexical_decision_task_DD_L6,2021.2.3,MacIntel,59.97361161,,,,,,,,,,,,0.4817,1,,,,,,,,,,,,,,m,1,0.4817,,,,,,,,0.009304427,-0.453830725,0,0,0,,0,103,103,81,1,DRILL,LB,old,m,./images/DRILLLB.png,,,,,,,,,,,,,,,,,,,,,
,,,,,,,,,,,,,,,,,200581,19,2022-01-28_16h51.39.804,lexical_decision_task_DD_L6,2021.2.3,MacIntel,59.97361161,,,,,,,,,,,,1.0508,1,,,,,,,,,,,,,,z,1,1.0508,,,,,,,,0.009304427,-0.453830725,0,0,0,,0,104,104,85,1,CHULK,HB,old,z,./images/CHULKHB.png,,,,,,,,,,,,,,,,,,,,,
,,,,,,,,,,,,,,,,,200581,19,2022-01-28_16h51.39.804,lexical_decision_task_DD_L6,2021.2.3,MacIntel,59.97361161,,,,,,,,,,,,0.8646,1,,,,,,,,,,,,,,m,1,0.8646,,,,,,,,0.009304427,-0.453830725,0,0,0,,0,105,105,77,1,WHEEL,HB,old,m,./images/WHEELHB.png,,,,,,,,,,,,,,,,,,,,,
,,,,,,,,,,,,,,,,,200581,19,2022-01-28_16h51.39.804,lexical_decision_task_DD_L6,2021.2.3,MacIntel,59.97361161,,,,,,,,,,,,1.0138,1,,,,,,,,,,,,,,z,1,1.0138,,,,,,,,0.009304427,-0.453830725,0,0,0,,0,106,106,100,1,DRIBS,HB,old,z,./images/DRIBSHB.png,,,,,,,,,,,,,,,,,,,,,
,,,,,,,,,,,,,,,,,200581,19,2022-01-28_16h51.39.804,lexical_decision_task_DD_L6,2021.2.3,MacIntel,59.97361161,,,,,,,,,,,,0.73,1,,,,,,,,,,,,,,z,1,0.73,,,,,,,,0.009304427,-0.453830725,0,0,0,,0,107,107,126,1,GUELS,C,old,z,./images/GUELS.png,,,,,,,,,,,,,,,,,,,,,
,,,,,,,,,,,,,,,,,200581,19,2022-01-28_16h51.39.804,lexical_decision_task_DD_L6,2021.2.3,MacIntel,59.97361161,,,,,,,,,,,,0.9063,1,,,,,,,,,,,,,,z,1,0.9063,,,,,,,,0.009304427,-0.453830725,0,0,0,,0,108,108,153,1,CLUPS,C,old,z,./images/CLUPS.png,,,,,,,,,,,,,,,,,,,,,
,,,,,,,,,,,,,,,,,200581,19,2022-01-28_16h51.39.804,lexical_decision_task_DD_L6,2021.2.3,MacIntel,59.97361161,,,,,,,,,,,,1.2175,1,,,,,,,,,,,,,,z,1,1.2175,,,,,,,,0.009304427,-0.453830725,0,0,0,,0,109,109,154,1,THINT,HB,old,z,./images/THINTHB.png,,,,,,,,,,,,,,,,,,,,,
,,,,,,,,,,,,,,,,,200581,19,2022-01-28_16h51.39.804,lexical_decision_task_DD_L6,2021.2.3,MacIntel,59.97361161,,,,,,,,,,,,0.7635,1,,,,,,,,,,,,,,m,1,0.7635,,,,,,,,0.009304427,-0.453830725,0,0,0,,0,110,110,41,1,STREAM,HB,old,m,./images/STREAMHB.png,,,,,,,,,,,,,,,,,,,,,
,,,,,,,,,,,,,,,,,200581,19,2022-01-28_16h51.39.804,lexical_decision_task_DD_L6,2021.2.3,MacIntel,59.97361161,,,,,,,,,,,,1.1548,1,,,,,,,,,,,,,,z,1,1.1548,,,,,,,,0.009304427,-0.453830725,0,0,0,,0,111,111,106,1,CLUMS,HB,old,z,./images/CLUMSHB.png,,,,,,,,,,,,,,,,,,,,,
,,,,,,,,,,,,,,,,,200581,19,2022-01-28_16h51.39.804,lexical_decision_task_DD_L6,2021.2.3,MacIntel,59.97361161,,,,,,,,,,,,0.6485,1,,,,,,,,,,,,,,m,1,0.6485,,,,,,,,0.009304427,-0.453830725,0,0,0,,0,112,112,34,1,RAZOR,C,old,m,./images/RAZOR.png,,,,,,,,,,,,,,,,,,,,,
,,,,,,,,,,,,,,,,,200581,19,2022-01-28_16h51.39.804,lexical_decision_task_DD_L6,2021.2.3,MacIntel,59.97361161,,,,,,,,,,,,0.7503,1,,,,,,,,,,,,,,m,1,0.7503,,,,,,,,0.009304427,-0.453830725,0,0,0,,0,113,113,27,1,BUTTER,LB,old,m,./images/BUTTERLB.png,,,,,,,,,,,,,,,,,,,,,
,,,,,,,,,,,,,,,,,200581,19,2022-01-28_16h51.39.804,lexical_decision_task_DD_L6,2021.2.3,MacIntel,59.97361161,,,,,,,,,,,,1.4486,1,,,,,,,,,,,,,,z,1,1.4486,,,,,,,,0.009304427,-0.453830725,0,0,0,,0,114,114,135,1,JOODY,C,old,z,./images/JOODY.png,,,,,,,,,,,,,,,,,,,,,
,,,,,,,,,,,,,,,,,200581,19,2022-01-28_16h51.39.804,lexical_decision_task_DD_L6,2021.2.3,MacIntel,59.97361161,,,,,,,,,,,,0.7989,1,,,,,,,,,,,,,,z,1,0.7989,,,,,,,,0.009304427,-0.453830725,0,0,0,,0,115,115,93,1,SMONE,C,old,z,./images/SMONE.png,,,,,,,,,,,,,,,,,,,,,
,,,,,,,,,,,,,,,,,200581,19,2022-01-28_16h51.39.804,lexical_decision_task_DD_L6,2021.2.3,MacIntel,59.97361161,,,,,,,,,,,,0.7957,1,,,,,,,,,,,,,,m,1,0.7957,,,,,,,,0.009304427,-0.453830725,0,0,0,,0,116,116,82,1,PEBBLE,C,old,m,./images/PEBBLE.png,,,,,,,,,,,,,,,,,,,,,
,,,,,,,,,,,,,,,,,200581,19,2022-01-28_16h51.39.804,lexical_decision_task_DD_L6,2021.2.3,MacIntel,59.97361161,,,,,,,,,,,,0.9364,0,,,,,,,,,,,,,,z,0,0.9364,,,,,,,,0.009304427,-0.453830725,0,0,0,,0,117,117,8,1,CLIFF,HB,old,m,./images/CLIFFHB.png,,,,,,,,,,,,,,,,,,,,,
,,,,,,,,,,,,,,,,,200581,19,2022-01-28_16h51.39.804,lexical_decision_task_DD_L6,2021.2.3,MacIntel,59.97361161,,,,,,,,,,,,0.9293,1,,,,,,,,,,,,,,m,1,0.9293,,,,,,,,0.009304427,-0.453830725,0,0,0,,0,118,118,40,1,SNAKE,C,old,m,./images/SNAKE.png,,,,,,,,,,,,,,,,,,,,,
,,,,,,,,,,,,,,,,,200581,19,2022-01-28_16h51.39.804,lexical_decision_task_DD_L6,2021.2.3,MacIntel,59.97361161,,,,,,,,,,,,0.9813,1,,,,,,,,,,,,,,z,1,0.9813,,,,,,,,0.009304427,-0.453830725,0,0,0,,0,119,119,92,1,PAIMS,LB,old,z,./images/PAIMSLB.png,,,,,,,,,,,,,,,,,,,,,
,,,,,,,,,,,,,,,,,200581,19,2022-01-28_16h51.39.804,lexical_decision_task_DD_L6,2021.2.3,MacIntel,59.97361161,,,,,,,,,,,,0.797,1,,,,,,,,,,,,,,m,1,0.797,,,,,,,,0.009304427,-0.453830725,0,0,0,,0,120,120,26,1,CLOUD,HB,old,m,./images/CLOUDHB.png,,,,,,,,,,,,,,,,,,,,,
,,,,,,,,,,,,,,,,,200581,19,2022-01-28_16h51.39.804,lexical_decision_task_DD_L6,2021.2.3,MacIntel,59.97361161,,,,,,,,,,,,0.9955,1,,,,,,,,,,,,,,z,1,0.9955,,,,,,,,0.009304427,-0.453830725,0,0,0,,0,121,121,114,1,RIKES,C,old,z,./images/RIKES.png,,,,,,,,,,,,,,,,,,,,,
,,,,,,,,,,,,,,,,,200581,19,2022-01-28_16h51.39.804,lexical_decision_task_DD_L6,2021.2.3,MacIntel,59.97361161,,,,,,,,,,,,0.6254,1,,,,,,,,,,,,,,m,1,0.6254,,,,,,,,0.009304427,-0.453830725,0,0,0,,0,122,122,45,1,MONKEY,LB,old,m,./images/MONKEYLB.png,,,,,,,,,,,,,,,,,,,,,
,,,,,,,,,,,,,,,,,200581,19,2022-01-28_16h51.39.804,lexical_decision_task_DD_L6,2021.2.3,MacIntel,59.97361161,,,,,,,,,,,,0.5963,1,,,,,,,,,,,,,,m,1,0.5963,,,,,,,,0.009304427,-0.453830725,0,0,0,,0,123,123,69,1,ARROW,LB,old,m,./images/ARROWLB.png,,,,,,,,,,,,,,,,,,,,,
,,,,,,,,,,,,,,,,,200581,19,2022-01-28_16h51.39.804,lexical_decision_task_DD_L6,2021.2.3,MacIntel,59.97361161,,,,,,,,,,,,1.0154,1,,,,,,,,,,,,,,z,1,1.0154,,,,,,,,0.009304427,-0.453830725,0,0,0,,0,124,124,136,1,WERVE,HB,old,z,./images/WERVEHB.png,,,,,,,,,,,,,,,,,,,,,
,,,,,,,,,,,,,,,,,200581,19,2022-01-28_16h51.39.804,lexical_decision_task_DD_L6,2021.2.3,MacIntel,59.97361161,,,,,,,,,,,,0.8819,1,,,,,,,,,,,,,,m,1,0.8819,,,,,,,,0.009304427,-0.453830725,0,0,0,space,0,125,125,57,1,FERRY,LB,old,m,./images/FERRYLB.png,2.9675,,,,,,,,,,,,,,,,,,,,
,,,,,,,,,,,,,,,,,200581,19,2022-01-28_16h51.39.804,lexical_decision_task_DD_L6,2021.2.3,MacIntel,59.97361161,,,,,,,,,,,,1.3514,1,,,,,,,,,,,,,,z,1,1.3514,,,,,,,,0.009304427,-0.453830725,0,0,0,,0,126,126,155,1,CANGY,LB,old,z,./images/CANGYLB.png,,,,,,,,,,,,,,,,,,,,,
,,,,,,,,,,,,,,,,,200581,19,2022-01-28_16h51.39.804,lexical_decision_task_DD_L6,2021.2.3,MacIntel,59.97361161,,,,,,,,,,,,0.6317,1,,,,,,,,,,,,,,m,1,0.6317,,,,,,,,0.009304427,-0.453830725,0,0,0,,0,127,127,54,1,CHERRY,LB,old,m,./images/CHERRYLB.png,,,,,,,,,,,,,,,,,,,,,
,,,,,,,,,,,,,,,,,200581,19,2022-01-28_16h51.39.804,lexical_decision_task_DD_L6,2021.2.3,MacIntel,59.97361161,,,,,,,,,,,,0.8094,1,,,,,,,,,,,,,,z,1,0.8094,,,,,,,,0.009304427,-0.453830725,0,0,0,,0,128,128,102,1,DULLE,C,old,z,./images/DULLE.png,,,,,,,,,,,,,,,,,,,,,
,,,,,,,,,,,,,,,,,200581,19,2022-01-28_16h51.39.804,lexical_decision_task_DD_L6,2021.2.3,MacIntel,59.97361161,,,,,,,,,,,,0.7947,1,,,,,,,,,,,,,,z,1,0.7947,,,,,,,,0.009304427,-0.453830725,0,0,0,,0,129,129,162,1,LEICH,C,old,z,./images/LEICH.png,,,,,,,,,,,,,,,,,,,,,
,,,,,,,,,,,,,,,,,200581,19,2022-01-28_16h51.39.804,lexical_decision_task_DD_L6,2021.2.3,MacIntel,59.97361161,,,,,,,,,,,,0.9355,1,,,,,,,,,,,,,,z,1,0.9355,,,,,,,,0.009304427,-0.453830725,0,0,0,,0,130,130,161,1,BLAPS,LB,old,z,./images/BLAPSLB.png,,,,,,,,,,,,,,,,,,,,,
,,,,,,,,,,,,,,,,,200581,19,2022-01-28_16h51.39.804,lexical_decision_task_DD_L6,2021.2.3,MacIntel,59.97361161,,,,,,,,,,,,0.5993,1,,,,,,,,,,,,,,m,1,0.5993,,,,,,,,0.009304427,-0.453830725,0,0,0,,0,131,131,6,1,STAIN,LB,old,m,./images/STAINLB.png,,,,,,,,,,,,,,,,,,,,,
,,,,,,,,,,,,,,,,,200581,19,2022-01-28_16h51.39.804,lexical_decision_task_DD_L6,2021.2.3,MacIntel,59.97361161,,,,,,,,,,,,1.4959,1,,,,,,,,,,,,,,m,1,1.4959,,,,,,,,0.009304427,-0.453830725,0,0,0,,0,132,132,58,1,CANOE,C,old,m,./images/CANOE.png,,,,,,,,,,,,,,,,,,,,,
,,,,,,,,,,,,,,,,,200581,19,2022-01-28_16h51.39.804,lexical_decision_task_DD_L6,2021.2.3,MacIntel,59.97361161,,,,,,,,,,,,0.931,1,,,,,,,,,,,,,,m,1,0.931,,,,,,,,0.009304427,-0.453830725,0,0,0,,0,133,133,73,1,GLOVE,C,old,m,./images/GLOVE.png,,,,,,,,,,,,,,,,,,,,,
,,,,,,,,,,,,,,,,,200581,19,2022-01-28_16h51.39.804,lexical_decision_task_DD_L6,2021.2.3,MacIntel,59.97361161,,,,,,,,,,,,0.8304,1,,,,,,,,,,,,,,z,1,0.8304,,,,,,,,0.009304427,-0.453830725,0,0,0,,0,134,134,150,1,NOOLS,C,old,z,./images/NOOLS.png,,,,,,,,,,,,,,,,,,,,,
,,,,,,,,,,,,,,,,,200581,19,2022-01-28_16h51.39.804,lexical_decision_task_DD_L6,2021.2.3,MacIntel,59.97361161,,,,,,,,,,,,0.7998,1,,,,,,,,,,,,,,z,1,0.7998,,,,,,,,0.009304427,-0.453830725,0,0,0,,0,135,135,89,1,DRIEK,LB,old,z,./images/DRIEKLB.png,,,,,,,,,,,,,,,,,,,,,
,,,,,,,,,,,,,,,,,200581,19,2022-01-28_16h51.39.804,lexical_decision_task_DD_L6,2021.2.3,MacIntel,59.97361161,,,,,,,,,,,,1.1642,1,,,,,,,,,,,,,,z,1,1.1642,,,,,,,,0.009304427,-0.453830725,0,0,0,,0,136,136,152,1,FRAIN,LB,old,z,./images/FRAINLB.png,,,,,,,,,,,,,,,,,,,,,
,,,,,,,,,,,,,,,,,200581,19,2022-01-28_16h51.39.804,lexical_decision_task_DD_L6,2021.2.3,MacIntel,59.97361161,,,,,,,,,,,,1.0788,1,,,,,,,,,,,,,,z,1,1.0788,,,,,,,,0.009304427,-0.453830725,0,0,0,,0,137,137,117,1,STEEG,C,old,z,./images/STEEG.png,,,,,,,,,,,,,,,,,,,,,
,,,,,,,,,,,,,,,,,200581,19,2022-01-28_16h51.39.804,lexical_decision_task_DD_L6,2021.2.3,MacIntel,59.97361161,,,,,,,,,,,,1.4479,1,,,,,,,,,,,,,,z,1,1.4479,,,,,,,,0.009304427,-0.453830725,0,0,0,,0,138,138,91,1,SHENS,HB,old,z,./images/SHENSHB.png,,,,,,,,,,,,,,,,,,,,,
,,,,,,,,,,,,,,,,,200581,19,2022-01-28_16h51.39.804,lexical_decision_task_DD_L6,2021.2.3,MacIntel,59.97361161,,,,,,,,,,,,0.6301,0,,,,,,,,,,,,,,m,0,0.6301,,,,,,,,0.009304427,-0.453830725,0,0,0,,0,139,139,167,1,ZONET,LB,old,z,./images/ZONETLB.png,,,,,,,,,,,,,,,,,,,,,
,,,,,,,,,,,,,,,,,200581,19,2022-01-28_16h51.39.804,lexical_decision_task_DD_L6,2021.2.3,MacIntel,59.97361161,,,,,,,,,,,,1.2001,1,,,,,,,,,,,,,,z,1,1.2001,,,,,,,,0.009304427,-0.453830725,0,0,0,,0,140,140,165,1,TROWN,C,old,z,./images/TROWN.png,,,,,,,,,,,,,,,,,,,,,
,,,,,,,,,,,,,,,,,200581,19,2022-01-28_16h51.39.804,lexical_decision_task_DD_L6,2021.2.3,MacIntel,59.97361161,,,,,,,,,,,,0.7322,1,,,,,,,,,,,,,,m,1,0.7322,,,,,,,,0.009304427,-0.453830725,0,0,0,,0,141,141,63,1,BAKER,LB,old,m,./images/BAKERLB.png,,,,,,,,,,,,,,,,,,,,,
,,,,,,,,,,,,,,,,,200581,19,2022-01-28_16h51.39.804,lexical_decision_task_DD_L6,2021.2.3,MacIntel,59.97361161,,,,,,,,,,,,0.6275,1,,,,,,,,,,,,,,m,1,0.6275,,,,,,,,0.009304427,-0.453830725,0,0,0,,0,142,142,25,1,CHALK,C,old,m,./images/CHALK.png,,,,,,,,,,,,,,,,,,,,,
,,,,,,,,,,,,,,,,,200581,19,2022-01-28_16h51.39.804,lexical_decision_task_DD_L6,2021.2.3,MacIntel,59.97361161,,,,,,,,,,,,0.8103,1,,,,,,,,,,,,,,m,1,0.8103,,,,,,,,0.009304427,-0.453830725,0,0,0,,0,143,143,71,1,BUBBLE,HB,old,m,./images/BUBBLEHB.png,,,,,,,,,,,,,,,,,,,,,
,,,,,,,,,,,,,,,,,200581,19,2022-01-28_16h51.39.804,lexical_decision_task_DD_L6,2021.2.3,MacIntel,59.97361161,,,,,,,,,,,,1.285,1,,,,,,,,,,,,,,z,1,1.285,,,,,,,,0.009304427,-0.453830725,0,0,0,,0,144,144,145,1,LAMEL,HB,old,z,./images/LAMELHB.png,,,,,,,,,,,,,,,,,,,,,
,,,,,,,,,,,,,,,,,200581,19,2022-01-28_16h51.39.804,lexical_decision_task_DD_L6,2021.2.3,MacIntel,59.97361161,,,,,,,,,,,,0.631,1,,,,,,,,,,,,,,m,1,0.631,,,,,,,,0.009304427,-0.453830725,0,0,0,,0,145,145,80,1,PLANET,HB,old,m,./images/PLANETHB.png,,,,,,,,,,,,,,,,,,,,,
,,,,,,,,,,,,,,,,,200581,19,2022-01-28_16h51.39.804,lexical_decision_task_DD_L6,2021.2.3,MacIntel,59.97361161,,,,,,,,,,,,0.7475,1,,,,,,,,,,,,,,z,1,0.7475,,,,,,,,0.009304427,-0.453830725,0,0,0,,0,146,146,156,1,HIXES,C,old,z,./images/HIXES.png,,,,,,,,,,,,,,,,,,,,,
,,,,,,,,,,,,,,,,,200581,19,2022-01-28_16h51.39.804,lexical_decision_task_DD_L6,2021.2.3,MacIntel,59.97361161,,,,,,,,,,,,0.7651,1,,,,,,,,,,,,,,z,1,0.7651,,,,,,,,0.009304427,-0.453830725,0,0,0,,0,147,147,123,1,SEDGE,C,old,z,./images/SEDGE.png,,,,,,,,,,,,,,,,,,,,,
,,,,,,,,,,,,,,,,,200581,19,2022-01-28_16h51.39.804,lexical_decision_task_DD_L6,2021.2.3,MacIntel,59.97361161,,,,,,,,,,,,0.7646,1,,,,,,,,,,,,,,m,1,0.7646,,,,,,,,0.009304427,-0.453830725,0,0,0,,0,148,148,64,1,BRIDE,C,old,m,./images/BRIDE.png,,,,,,,,,,,,,,,,,,,,,
,,,,,,,,,,,,,,,,,200581,19,2022-01-28_16h51.39.804,lexical_decision_task_DD_L6,2021.2.3,MacIntel,59.97361161,,,,,,,,,,,,0.7973,1,,,,,,,,,,,,,,m,1,0.7973,,,,,,,,0.009304427,-0.453830725,0,0,0,,0,149,149,38,1,ENGINE,HB,old,m,./images/ENGINEHB.png,,,,,,,,,,,,,,,,,,,,,
,,,,,,,,,,,,,,,,,200581,19,2022-01-28_16h51.39.804,lexical_decision_task_DD_L6,2021.2.3,MacIntel,59.97361161,,,,,,,,,,,,0.5953,1,,,,,,,,,,,,,,m,1,0.5953,,,,,,,,0.009304427,-0.453830725,0,0,0,,0,150,150,21,1,DANCER,LB,old,m,./images/DANCERLB.png,,,,,,,,,,,,,,,,,,,,,
,,,,,,,,,,,,,,,,,200581,19,2022-01-28_16h51.39.804,lexical_decision_task_DD_L6,2021.2.3,MacIntel,59.97361161,,,,,,,,,,,,0.4986,1,,,,,,,,,,,,,,m,1,0.4986,,,,,,,,0.009304427,-0.453830725,0,0,0,,0,151,151,46,1,MUMMY,C,old,m,./images/MUMMY.png,,,,,,,,,,,,,,,,,,,,,
,,,,,,,,,,,,,,,,,200581,19,2022-01-28_16h51.39.804,lexical_decision_task_DD_L6,2021.2.3,MacIntel,59.97361161,,,,,,,,,,,,0.7143,1,,,,,,,,,,,,,,m,1,0.7143,,,,,,,,0.009304427,-0.453830725,0,0,0,,0,152,152,56,1,HEATER,HB,old,m,./images/HEATERHB.png,,,,,,,,,,,,,,,,,,,,,
,,,,,,,,,,,,,,,,,200581,19,2022-01-28_16h51.39.804,lexical_decision_task_DD_L6,2021.2.3,MacIntel,59.97361161,,,,,,,,,,,,0.9644,1,,,,,,,,,,,,,,z,1,0.9644,,,,,,,,0.009304427,-0.453830725,0,0,0,,0,153,153,130,1,CRILL,HB,old,z,./images/CRILLHB.png,,,,,,,,,,,,,,,,,,,,,
,,,,,,,,,,,,,,,,,200581,19,2022-01-28_16h51.39.804,lexical_decision_task_DD_L6,2021.2.3,MacIntel,59.97361161,,,,,,,,,,,,0.716,1,,,,,,,,,,,,,,z,1,0.716,,,,,,,,0.009304427,-0.453830725,0,0,0,,0,154,154,101,1,GLEET,LB,old,z,./images/GLEETLB.png,,,,,,,,,,,,,,,,,,,,,
,,,,,,,,,,,,,,,,,200581,19,2022-01-28_16h51.39.804,lexical_decision_task_DD_L6,2021.2.3,MacIntel,59.97361161,,,,,,,,,,,,0.6846,1,,,,,,,,,,,,,,z,1,0.6846,,,,,,,,0.009304427,-0.453830725,0,0,0,,0,155,155,128,1,GRIFT,LB,old,z,./images/GRIFTLB.png,,,,,,,,,,,,,,,,,,,,,
,,,,,,,,,,,,,,,,,200581,19,2022-01-28_16h51.39.804,lexical_decision_task_DD_L6,2021.2.3,MacIntel,59.97361161,,,,,,,,,,,,0.7188,0,,,,,,,,,,,,,,m,0,0.7188,,,,,,,,0.009304427,-0.453830725,0,0,0,,0,156,156,166,1,SHORY,HB,old,z,./images/SHORYHB.png,,,,,,,,,,,,,,,,,,,,,
,,,,,,,,,,,,,,,,,200581,19,2022-01-28_16h51.39.804,lexical_decision_task_DD_L6,2021.2.3,MacIntel,59.97361161,,,,,,,,,,,,0.6433,1,,,,,,,,,,,,,,m,1,0.6433,,,,,,,,0.009304427,-0.453830725,0,0,0,,0,157,157,29,1,PISTOL,HB,old,m,./images/PISTOLHB.png,,,,,,,,,,,,,,,,,,,,,
,,,,,,,,,,,,,,,,,200581,19,2022-01-28_16h51.39.804,lexical_decision_task_DD_L6,2021.2.3,MacIntel,59.97361161,,,,,,,,,,,,0.5973,1,,,,,,,,,,,,,,m,1,0.5973,,,,,,,,0.009304427,-0.453830725,0,0,0,,0,158,158,15,1,COLLAR,LB,old,m,./images/COLLARLB.png,,,,,,,,,,,,,,,,,,,,,
,,,,,,,,,,,,,,,,,200581,19,2022-01-28_16h51.39.804,lexical_decision_task_DD_L6,2021.2.3,MacIntel,59.97361161,,,,,,,,,,,,0.7828,1,,,,,,,,,,,,,,z,1,0.7828,,,,,,,,0.009304427,-0.453830725,0,0,0,,0,159,159,149,1,VEASE,LB,old,z,./images/VEASELB.png,,,,,,,,,,,,,,,,,,,,,
,,,,,,,,,,,,,,,,,200581,19,2022-01-28_16h51.39.804,lexical_decision_task_DD_L6,2021.2.3,MacIntel,59.97361161,,,,,,,,,,,,0.6493,1,,,,,,,,,,,,,,m,1,0.6493,,,,,,,,0.009304427,-0.453830725,0,0,0,,0,160,160,74,1,JUMPER,HB,old,m,./images/JUMPERHB.png,,,,,,,,,,,,,,,,,,,,,
,,,,,,,,,,,,,,,,,200581,19,2022-01-28_16h51.39.804,lexical_decision_task_DD_L6,2021.2.3,MacIntel,59.97361161,,,,,,,,,,,,1.5002,1,,,,,,,,,,,,,,z,1,1.5002,,,,,,,,0.009304427,-0.453830725,0,0,0,,0,161,161,157,1,INLER,HB,old,z,./images/INLERHB.png,,,,,,,,,,,,,,,,,,,,,
,,,,,,,,,,,,,,,,,200581,19,2022-01-28_16h51.39.804,lexical_decision_task_DD_L6,2021.2.3,MacIntel,59.97361161,,,,,,,,,,,,0.7617,1,,,,,,,,,,,,,,m,1,0.7617,,,,,,,,0.009304427,-0.453830725,0,0,0,,0,162,162,48,1,SHIELD,LB,old,m,./images/SHIELDLB.png,,,,,,,,,,,,,,,,,,,,,
,,,,,,,,,,,,,,,,,200581,19,2022-01-28_16h51.39.804,lexical_decision_task_DD_L6,2021.2.3,MacIntel,59.97361161,,,,,,,,,,,,0.6309,1,,,,,,,,,,,,,,m,1,0.6309,,,,,,,,0.009304427,-0.453830725,0,0,0,,0,163,163,78,1,BROOM,LB,old,m,./images/BROOMLB.png,,,,,,,,,,,,,,,,,,,,,
,,,,,,,,,,,,,,,,,200581,19,2022-01-28_16h51.39.804,lexical_decision_task_DD_L6,2021.2.3,MacIntel,59.97361161,,,,,,,,,,,,2.8845,1,,,,,,,,,,,,,,z,1,2.8845,,,,,,,,0.009304427,-0.453830725,0,0,0,,0,164,164,115,1,MAWNS,HB,old,z,./images/MAWNSHB.png,,,,,,,,,,,,,,,,,,,,,
,,,,,,,,,,,,,,,,,200581,19,2022-01-28_16h51.39.804,lexical_decision_task_DD_L6,2021.2.3,MacIntel,59.97361161,,,,,,,,,,,,0.9992,1,,,,,,,,,,,,,,z,1,0.9992,,,,,,,,0.009304427,-0.453830725,0,0,0,,0,165,165,131,1,NACES,LB,old,z,./images/NACESLB.png,,,,,,,,,,,,,,,,,,,,,
,,,,,,,,,,,,,,,,,200581,19,2022-01-28_16h51.39.804,lexical_decision_task_DD_L6,2021.2.3,MacIntel,59.97361161,,,,,,,,,,,,0.8287,1,,,,,,,,,,,,,,m,1,0.8287,,,,,,,,0.009304427,-0.453830725,0,0,0,,0,166,166,35,1,LLAMA,HB,old,m,./images/LLAMAHB.png,,,,,,,,,,,,,,,,,,,,,
,,,,,,,,,,,,,,,,,200581,19,2022-01-28_16h51.39.804,lexical_decision_task_DD_L6,2021.2.3,MacIntel,59.97361161,,,,,,,,,,,,0.685,1,,,,,,,,,,,,,,m,1,0.685,,,,,,,,0.009304427,-0.453830725,0,0,0,,0,167,167,10,1,GARDEN,C,old,m,./images/GARDEN.png,,,,,,,,,,,,,,,,,,,,,
space,0.057733261,-0.462881339,0,0,0,,,,,,,1,test,"In the next phase you will be presented with the words from the the first phase. Your job is to decide whether you remember seeing the word or not. If you remember seeing the word press ""old"" or type ""m"". If you do not remember seeing the word press ""new"" or type ""z"". Please press the space bar or click on continue to begin. ",,,200581,19,2022-01-28_16h51.39.804,lexical_decision_task_DD_L6,2021.2.3,MacIntel,59.97361161,6.8293,,,,,,,,,,,,,,,,,,,,,,,,,,,,,,,,,,,,,,,,,,,,,,,,,,,,,0,0,0,0,1,,,,,,,,,,,,,,,
space,0.092827605,-0.387826862,0,0,0,,,,,,,1,test,"In the next phase you will be presented with the words from the the first phase. Your job is to decide whether you remember seeing the word or not. If you remember seeing the word press ""old"" or type ""m"". If you do not remember seeing the word press ""new"" or type ""z"". Please press the space bar or click on continue to begin. ",,,200581,19,2022-01-28_16h51.39.804,lexical_decision_task_DD_L6,2021.2.3,MacIntel,59.97361161,8.9294,,,,,,,,,,,,,,,,,,,,,,,,,,,,,,,,,,,,,,,,,,,,,,,,,,,,,1,0,1,0,1,,,,,,,,,,,,,,,
space,0.033602417,-0.36708226,0,0,0,,,,,,,1,test,"In the next phase you will be presented with the words from the the first phase. Your job is to decide whether you remember seeing the word or not. If you remember seeing the word press ""old"" or type ""m"". If you do not remember seeing the word press ""new"" or type ""z"". Please press the space bar or click on continue to begin. ",,,200581,19,2022-01-28_16h51.39.804,lexical_decision_task_DD_L6,2021.2.3,MacIntel,59.97361161,2.9393,,,,,,,,,,,,,,,,,,,,,,,,,,,,,,,,,,,,,,,,,,,,,,,,,,,,,2,0,2,0,1,,,,,,,,,,,,,,,
space,0.033602417,-0.36708226,0,0,0,,,,,,,1,test,"In the next phase you will be presented with the words from the the first phase. Your job is to decide whether you remember seeing the word or not. If you remember seeing the word press ""old"" or type ""m"". If you do not remember seeing the word press ""new"" or type ""z"". Please press the space bar or click on continue to begin. ",,,200581,19,2022-01-28_16h51.39.804,lexical_decision_task_DD_L6,2021.2.3,MacIntel,59.97361161,0.7564,,,,,,,,,,,,,,,,,,,,,,,,,,,,,,,,,,,,,,,,,,,,,,,,,,,,,3,0,3,0,1,,,,,,,,,,,,,,,
space,0.033602417,-0.36708226,0,0,0,,,,,,,1,test,"In the next phase you will be presented with the words from the the first phase. Your job is to decide whether you remember seeing the word or not. If you remember seeing the word press ""old"" or type ""m"". If you do not remember seeing the word press ""new"" or type ""z"". Please press the space bar or click on continue to begin. ",,,200581,19,2022-01-28_16h51.39.804,lexical_decision_task_DD_L6,2021.2.3,MacIntel,59.97361161,3.8542,,,,,,,,,,,,,,,,,,,,,,,,,,,,,,,,,,,,,,,,,,,,,,,,,,,,,4,0,4,0,1,,,,,,,,,,,,,,,
,,,,,,,,,,,,,,,,,200581,19,2022-01-28_16h51.39.804,lexical_decision_task_DD_L6,2021.2.3,MacIntel,59.97361161,,,,,,,,,,,,0.8561,1,,,,,,,,,,,,,,,,,,,,,,,,0.033602417,-0.36708226,0,0,0,,,,,,,PISTOL,HB,m,y,./images/PISTOLHB.png,,,,,,,m,1,0.8561,,,,,,,,0,0,0,29,1
,,,,,,,,,,,,,,,,,200581,19,2022-01-28_16h51.39.804,lexical_decision_task_DD_L6,2021.2.3,MacIntel,59.97361161,,,,,,,,,,,,0.8336,1,,,,,,,,,,,,,,,,,,,,,,,,0.033602417,-0.36708226,0,0,0,,,,,,,COLLAR,LB,m,y,./images/COLLARLB.png,,,,,,,m,1,0.8336,,,,,,,,0,1,1,15,1
,,,,,,,,,,,,,,,,,200581,19,2022-01-28_16h51.39.804,lexical_decision_task_DD_L6,2021.2.3,MacIntel,59.97361161,,,,,,,,,,,,1.5351,1,,,,,,,,,,,,,,,,,,,,,,,,0.033602417,-0.36708226,0,0,0,,,,,,,FLASK,LB,m,y,./images/FLASKLB.png,,,,,,,m,1,1.5351,,,,,,,,0,2,2,72,1
,,,,,,,,,,,,,,,,,200581,19,2022-01-28_16h51.39.804,lexical_decision_task_DD_L6,2021.2.3,MacIntel,59.97361161,,,,,,,,,,,,0.653,0,,,,,,,,,,,,,,,,,,,,,,,,0.033602417,-0.36708226,0,0,0,,,,,,,MOOSE,LB,z,y,./images/MOOSELB.png,,,,,,,m,0,0.653,,,,,,,,0,3,3,141,1
,,,,,,,,,,,,,,,,,200581,19,2022-01-28_16h51.39.804,lexical_decision_task_DD_L6,2021.2.3,MacIntel,59.97361161,,,,,,,,,,,,0.5842,0,,,,,,,,,,,,,,,,,,,,,,,,0.033602417,-0.36708226,0,0,0,,,,,,,CANYON,C,z,y,./images/CANYON.png,,,,,,,m,0,0.5842,,,,,,,,0,4,4,118,1
,,,,,,,,,,,,,,,,,200581,19,2022-01-28_16h51.39.804,lexical_decision_task_DD_L6,2021.2.3,MacIntel,59.97361161,,,,,,,,,,,,0.5657,1,,,,,,,,,,,,,,,,,,,,,,,,0.033602417,-0.36708226,0,0,0,,,,,,,CLIFF,HB,m,y,./images/CLIFFHB.png,,,,,,,m,1,0.5657,,,,,,,,0,5,5,8,1
,,,,,,,,,,,,,,,,,200581,19,2022-01-28_16h51.39.804,lexical_decision_task_DD_L6,2021.2.3,MacIntel,59.97361161,,,,,,,,,,,,0.6157,1,,,,,,,,,,,,,,,,,,,,,,,,0.033602417,-0.36708226,0,0,0,,,,,,,PARCEL,LB,m,y,./images/PARCELLB.png,,,,,,,m,1,0.6157,,,,,,,,0,6,6,18,1
,,,,,,,,,,,,,,,,,200581,19,2022-01-28_16h51.39.804,lexical_decision_task_DD_L6,2021.2.3,MacIntel,59.97361161,,,,,,,,,,,,0.5788,1,,,,,,,,,,,,,,,,,,,,,,,,0.033602417,-0.36708226,0,0,0,,,,,,,RAZOR,C,m,y,./images/RAZOR.png,,,,,,,m,1,0.5788,,,,,,,,0,7,7,34,1
,,,,,,,,,,,,,,,,,200581,19,2022-01-28_16h51.39.804,lexical_decision_task_DD_L6,2021.2.3,MacIntel,59.97361161,,,,,,,,,,,,0.4842,1,,,,,,,,,,,,,,,,,,,,,,,,0.033602417,-0.36708226,0,0,0,,,,,,,WALNUT,LB,m,y,./images/WALNUTLB.png,,,,,,,m,1,0.4842,,,,,,,,0,8,8,0,1
,,,,,,,,,,,,,,,,,200581,19,2022-01-28_16h51.39.804,lexical_decision_task_DD_L6,2021.2.3,MacIntel,59.97361161,,,,,,,,,,,,0.8329,1,,,,,,,,,,,,,,,,,,,,,,,,0.033602417,-0.36708226,0,0,0,,,,,,,BELLY,C,z,y,./images/BELLY.png,,,,,,,z,1,0.8329,,,,,,,,0,9,9,94,1
,,,,,,,,,,,,,,,,,200581,19,2022-01-28_16h51.39.804,lexical_decision_task_DD_L6,2021.2.3,MacIntel,59.97361161,,,,,,,,,,,,0.6348,0,,,,,,,,,,,,,,,,,,,,,,,,0.033602417,-0.36708226,0,0,0,,,,,,,MIRROR,LB,z,y,./images/MIRRORLB.png,,,,,,,m,0,0.6348,,,,,,,,0,10,10,147,1
,,,,,,,,,,,,,,,,,200581,19,2022-01-28_16h51.39.804,lexical_decision_task_DD_L6,2021.2.3,MacIntel,59.97361161,,,,,,,,,,,,1.6516,1,,,,,,,,,,,,,,,,,,,,,,,,0.033602417,-0.36708226,0,0,0,,,,,,,PENCE,C,z,y,./images/PENCE.png,,,,,,,z,1,1.6516,,,,,,,,0,11,11,100,1
,,,,,,,,,,,,,,,,,200581,19,2022-01-28_16h51.39.804,lexical_decision_task_DD_L6,2021.2.3,MacIntel,59.97361161,,,,,,,,,,,,0.8697,1,,,,,,,,,,,,,,,,,,,,,,,,0.033602417,-0.36708226,0,0,0,,,,,,,POKER,C,m,y,./images/POKER.png,,,,,,,m,1,0.8697,,,,,,,,0,12,12,67,1
,,,,,,,,,,,,,,,,,200581,19,2022-01-28_16h51.39.804,lexical_decision_task_DD_L6,2021.2.3,MacIntel,59.97361161,,,,,,,,,,,,0.6586,1,,,,,,,,,,,,,,,,,,,,,,,,0.033602417,-0.36708226,0,0,0,,,,,,,WHEEL,HB,m,y,./images/WHEELHB.png,,,,,,,m,1,0.6586,,,,,,,,0,13,13,77,1
,,,,,,,,,,,,,,,,,200581,19,2022-01-28_16h51.39.804,lexical_decision_task_DD_L6,2021.2.3,MacIntel,59.97361161,,,,,,,,,,,,0.786,1,,,,,,,,,,,,,,,,,,,,,,,,0.033602417,-0.36708226,0,0,0,,,,,,,MOSQUE,C,z,y,./images/MOSQUE.png,,,,,,,z,1,0.786,,,,,,,,0,14,14,127,1
,,,,,,,,,,,,,,,,,200581,19,2022-01-28_16h51.39.804,lexical_decision_task_DD_L6,2021.2.3,MacIntel,59.97361161,,,,,,,,,,,,0.7687,1,,,,,,,,,,,,,,,,,,,,,,,,0.033602417,-0.36708226,0,0,0,,,,,,,DOUGH,C,z,y,./images/DOUGH.png,,,,,,,z,1,0.7687,,,,,,,,0,15,15,103,1
,,,,,,,,,,,,,,,,,200581,19,2022-01-28_16h51.39.804,lexical_decision_task_DD_L6,2021.2.3,MacIntel,59.97361161,,,,,,,,,,,,0.8644,0,,,,,,,,,,,,,,,,,,,,,,,,0.033602417,-0.36708226,0,0,0,,,,,,,CRADLE,HB,z,y,./images/CRADLEHB.png,,,,,,,m,0,0.8644,,,,,,,,0,16,16,104,1
,,,,,,,,,,,,,,,,,200581,19,2022-01-28_16h51.39.804,lexical_decision_task_DD_L6,2021.2.3,MacIntel,59.97361161,,,,,,,,,,,,0.8146,1,,,,,,,,,,,,,,,,,,,,,,,,0.033602417,-0.36708226,0,0,0,,,,,,,GRANNY,HB,m,y,./images/GRANNYHB.png,,,,,,,m,1,0.8146,,,,,,,,0,17,17,20,1
,,,,,,,,,,,,,,,,,200581,19,2022-01-28_16h51.39.804,lexical_decision_task_DD_L6,2021.2.3,MacIntel,59.97361161,,,,,,,,,,,,0.9313,0,,,,,,,,,,,,,,,,,,,,,,,,0.033602417,-0.36708226,0,0,0,,,,,,,STAIN,LB,m,y,./images/STAINLB.png,,,,,,,z,0,0.9313,,,,,,,,0,18,18,6,1
,,,,,,,,,,,,,,,,,200581,19,2022-01-28_16h51.39.804,lexical_decision_task_DD_L6,2021.2.3,MacIntel,59.97361161,,,,,,,,,,,,0.8503,1,,,,,,,,,,,,,,,,,,,,,,,,0.033602417,-0.36708226,0,0,0,,,,,,,JAGUAR,LB,z,y,./images/JAGUARLB.png,,,,,,,z,1,0.8503,,,,,,,,0,19,19,102,1
,,,,,,,,,,,,,,,,,200581,19,2022-01-28_16h51.39.804,lexical_decision_task_DD_L6,2021.2.3,MacIntel,59.97361161,,,,,,,,,,,,0.702,0,,,,,,,,,,,,,,,,,,,,,,,,0.033602417,-0.36708226,0,0,0,,,,,,,LADDER,HB,z,y,./images/LADDERHB.png,,,,,,,m,0,0.702,,,,,,,,0,20,20,122,1
,,,,,,,,,,,,,,,,,200581,19,2022-01-28_16h51.39.804,lexical_decision_task_DD_L6,2021.2.3,MacIntel,59.97361161,,,,,,,,,,,,0.8187,1,,,,,,,,,,,,,,,,,,,,,,,,0.033602417,-0.36708226,0,0,0,,,,,,,DIVER,LB,m,y,./images/DIVERLB.png,,,,,,,m,1,0.8187,,,,,,,,0,21,21,9,1
,,,,,,,,,,,,,,,,,200581,19,2022-01-28_16h51.39.804,lexical_decision_task_DD_L6,2021.2.3,MacIntel,59.97361161,,,,,,,,,,,,1.1329,1,,,,,,,,,,,,,,,,,,,,,,,,0.033602417,-0.36708226,0,0,0,,,,,,,CRUMB,HB,z,y,./images/CRUMBHB.png,,,,,,,z,1,1.1329,,,,,,,,0,22,22,113,1
,,,,,,,,,,,,,,,,,200581,19,2022-01-28_16h51.39.804,lexical_decision_task_DD_L6,2021.2.3,MacIntel,59.97361161,,,,,,,,,,,,1.5536,1,,,,,,,,,,,,,,,,,,,,,,,,0.033602417,-0.36708226,0,0,0,,,,,,,LITTER,LB,z,y,./images/LITTERLB.png,,,,,,,z,1,1.5536,,,,,,,,0,23,23,162,1
,,,,,,,,,,,,,,,,,200581,19,2022-01-28_16h51.39.804,lexical_decision_task_DD_L6,2021.2.3,MacIntel,59.97361161,,,,,,,,,,,,0.9676,1,,,,,,,,,,,,,,,,,,,,,,,,0.033602417,-0.36708226,0,0,0,,,,,,,MUFFIN,C,z,y,./images/MUFFIN.png,,,,,,,z,1,0.9676,,,,,,,,0,24,24,139,1
,,,,,,,,,,,,,,,,,200581,19,2022-01-28_16h51.39.804,lexical_decision_task_DD_L6,2021.2.3,MacIntel,59.97361161,,,,,,,,,,,,0.7951,1,,,,,,,,,,,,,,,,,,,,,,,,0.033602417,-0.36708226,0,0,0,,,,,,,JUMPER,HB,m,y,./images/JUMPERHB.png,,,,,,,m,1,0.7951,,,,,,,,0,25,25,74,1
,,,,,,,,,,,,,,,,,200581,19,2022-01-28_16h51.39.804,lexical_decision_task_DD_L6,2021.2.3,MacIntel,59.97361161,,,,,,,,,,,,0.8169,1,,,,,,,,,,,,,,,,,,,,,,,,0.033602417,-0.36708226,0,0,0,,,,,,,ATTIC,LB,z,y,./images/ATTICLB.png,,,,,,,z,1,0.8169,,,,,,,,0,26,26,111,1
,,,,,,,,,,,,,,,,,200581,19,2022-01-28_16h51.39.804,lexical_decision_task_DD_L6,2021.2.3,MacIntel,59.97361161,,,,,,,,,,,,0.9821,1,,,,,,,,,,,,,,,,,,,,,,,,0.033602417,-0.36708226,0,0,0,,,,,,,SWING,C,z,y,./images/SWING.png,,,,,,,z,1,0.9821,,,,,,,,0,27,27,124,1
,,,,,,,,,,,,,,,,,200581,19,2022-01-28_16h51.39.804,lexical_decision_task_DD_L6,2021.2.3,MacIntel,59.97361161,,,,,,,,,,,,1.4517,0,,,,,,,,,,,,,,,,,,,,,,,,0.033602417,-0.36708226,0,0,0,,,,,,,MONKEY,LB,m,y,./images/MONKEYLB.png,,,,,,,z,0,1.4517,,,,,,,,0,28,28,45,1
,,,,,,,,,,,,,,,,,200581,19,2022-01-28_16h51.39.804,lexical_decision_task_DD_L6,2021.2.3,MacIntel,59.97361161,,,,,,,,,,,,0.6134,1,,,,,,,,,,,,,,,,,,,,,,,,0.033602417,-0.36708226,0,0,0,,,,,,,FERRY,LB,m,y,./images/FERRYLB.png,,,,,,,m,1,0.6134,,,,,,,,0,29,29,57,1
,,,,,,,,,,,,,,,,,200581,19,2022-01-28_16h51.39.804,lexical_decision_task_DD_L6,2021.2.3,MacIntel,59.97361161,,,,,,,,,,,,1.2525,0,,,,,,,,,,,,,,,,,,,,,,,,0.033602417,-0.36708226,0,0,0,,,,,,,GLOVE,C,m,y,./images/GLOVE.png,,,,,,,z,0,1.2525,,,,,,,,0,30,30,73,1
,,,,,,,,,,,,,,,,,200581,19,2022-01-28_16h51.39.804,lexical_decision_task_DD_L6,2021.2.3,MacIntel,59.97361161,,,,,,,,,,,,0.584,1,,,,,,,,,,,,,,,,,,,,,,,,0.033602417,-0.36708226,0,0,0,,,,,,,VALLEY,HB,m,y,./images/VALLEYHB.png,,,,,,,m,1,0.584,,,,,,,,0,31,31,68,1
,,,,,,,,,,,,,,,,,200581,19,2022-01-28_16h51.39.804,lexical_decision_task_DD_L6,2021.2.3,MacIntel,59.97361161,,,,,,,,,,,,0.663,1,,,,,,,,,,,,,,,,,,,,,,,,0.033602417,-0.36708226,0,0,0,,,,,,,SAUNA,LB,m,y,./images/SAUNALB.png,,,,,,,m,1,0.663,,,,,,,,0,32,32,33,1
,,,,,,,,,,,,,,,,,200581,19,2022-01-28_16h51.39.804,lexical_decision_task_DD_L6,2021.2.3,MacIntel,59.97361161,,,,,,,,,,,,2.736,1,,,,,,,,,,,,,,,,,,,,,,,,0.033602417,-0.36708226,0,0,0,,,,,,,JELLY,C,z,y,./images/JELLY.png,,,,,,,z,1,2.736,,,,,,,,0,33,33,148,1
,,,,,,,,,,,,,,,,,200581,19,2022-01-28_16h51.39.804,lexical_decision_task_DD_L6,2021.2.3,MacIntel,59.97361161,,,,,,,,,,,,2.5577,0,,,,,,,,,,,,,,,,,,,,,,,,0.033602417,-0.36708226,0,0,0,,,,,,,STRING,HB,z,y,./images/STRINGHB.png,,,,,,,m,0,2.5577,,,,,,,,0,34,34,125,1
,,,,,,,,,,,,,,,,,200581,19,2022-01-28_16h51.39.804,lexical_decision_task_DD_L6,2021.2.3,MacIntel,59.97361161,,,,,,,,,,,,0.9361,1,,,,,,,,,,,,,,,,,,,,,,,,0.033602417,-0.36708226,0,0,0,,,,,,,TOWEL,C,m,y,./images/TOWEL.png,,,,,,,m,1,0.9361,,,,,,,,0,35,35,1,1
,,,,,,,,,,,,,,,,,200581,19,2022-01-28_16h51.39.804,lexical_decision_task_DD_L6,2021.2.3,MacIntel,59.97361161,,,,,,,,,,,,0.8711,1,,,,,,,,,,,,,,,,,,,,,,,,0.033602417,-0.36708226,0,0,0,,,,,,,BIRTH,C,z,y,./images/BIRTH.png,,,,,,,z,1,0.8711,,,,,,,,0,36,36,121,1
,,,,,,,,,,,,,,,,,200581,19,2022-01-28_16h51.39.804,lexical_decision_task_DD_L6,2021.2.3,MacIntel,59.97361161,,,,,,,,,,,,0.7538,1,,,,,,,,,,,,,,,,,,,,,,,,0.033602417,-0.36708226,0,0,0,,,,,,,MAGGOT,LB,z,y,./images/MAGGOTLB.png,,,,,,,z,1,0.7538,,,,,,,,0,37,37,117,1
,,,,,,,,,,,,,,,,,200581,19,2022-01-28_16h51.39.804,lexical_decision_task_DD_L6,2021.2.3,MacIntel,59.97361161,,,,,,,,,,,,1.0304,1,,,,,,,,,,,,,,,,,,,,,,,,0.033602417,-0.36708226,0,0,0,,,,,,,KIDNEY,LB,z,y,./images/KIDNEYLB.png,,,,,,,z,1,1.0304,,,,,,,,0,38,38,105,1
,,,,,,,,,,,,,,,,,200581,19,2022-01-28_16h51.39.804,lexical_decision_task_DD_L6,2021.2.3,MacIntel,59.97361161,,,,,,,,,,,,0.9026,0,,,,,,,,,,,,,,,,,,,,,,,,0.033602417,-0.36708226,0,0,0,,,,,,,HAMMER,LB,m,y,./images/HAMMERLB.png,,,,,,,z,0,0.9026,,,,,,,,0,39,39,75,1
,,,,,,,,,,,,,,,,,200581,19,2022-01-28_16h51.39.804,lexical_decision_task_DD_L6,2021.2.3,MacIntel,59.97361161,,,,,,,,,,,,2.2664,1,,,,,,,,,,,,,,,,,,,,,,,,0.033602417,-0.36708226,0,0,0,,,,,,,RULER,C,m,y,./images/RULER.png,,,,,,,m,1,2.2664,,,,,,,,0,40,40,79,1
,,,,,,,,,,,,,,,,,200581,19,2022-01-28_16h51.39.804,lexical_decision_task_DD_L6,2021.2.3,MacIntel,59.97361161,,,,,,,,,,,,0.6855,1,,,,,,,,,,,,,,,,,,,,,,,,-0.47515105,0.21972192,0,0,0,space,,,,,,SLOPE,LB,m,y,./images/SLOPELB.png,27.9964,,,,,,m,1,0.6855,,,,,,,,0,41,41,30,1
,,,,,,,,,,,,,,,,,200581,19,2022-01-28_16h51.39.804,lexical_decision_task_DD_L6,2021.2.3,MacIntel,59.97361161,,,,,,,,,,,,0.9205,1,,,,,,,,,,,,,,,,,,,,,,,,-0.47515105,0.21972192,0,0,0,,,,,,,TWINS,LB,z,y,./images/TWINSLB.png,,,,,,,z,1,0.9205,,,,,,,,0,42,42,144,1
,,,,,,,,,,,,,,,,,200581,19,2022-01-28_16h51.39.804,lexical_decision_task_DD_L6,2021.2.3,MacIntel,59.97361161,,,,,,,,,,,,0.5813,1,,,,,,,,,,,,,,,,,,,,,,,,-0.47515105,0.21972192,0,0,0,,,,,,,DRILL,LB,m,y,./images/DRILLLB.png,,,,,,,m,1,0.5813,,,,,,,,0,43,43,81,1
,,,,,,,,,,,,,,,,,200581,19,2022-01-28_16h51.39.804,lexical_decision_task_DD_L6,2021.2.3,MacIntel,59.97361161,,,,,,,,,,,,0.598,1,,,,,,,,,,,,,,,,,,,,,,,,-0.47515105,0.21972192,0,0,0,,,,,,,PILOT,HB,m,y,./images/PILOTHB.png,,,,,,,m,1,0.598,,,,,,,,0,44,44,50,1
,,,,,,,,,,,,,,,,,200581,19,2022-01-28_16h51.39.804,lexical_decision_task_DD_L6,2021.2.3,MacIntel,59.97361161,,,,,,,,,,,,1.017,0,,,,,,,,,,,,,,,,,,,,,,,,-0.47515105,0.21972192,0,0,0,,,,,,,BABOON,C,z,y,./images/BABOON.png,,,,,,,m,0,1.017,,,,,,,,0,45,45,142,1
,,,,,,,,,,,,,,,,,200581,19,2022-01-28_16h51.39.804,lexical_decision_task_DD_L6,2021.2.3,MacIntel,59.97361161,,,,,,,,,,,,0.6525,1,,,,,,,,,,,,,,,,,,,,,,,,-0.47515105,0.21972192,0,0,0,,,,,,,MEDAL,HB,m,y,./images/MEDALHB.png,,,,,,,m,1,0.6525,,,,,,,,0,46,46,11,1
,,,,,,,,,,,,,,,,,200581,19,2022-01-28_16h51.39.804,lexical_decision_task_DD_L6,2021.2.3,MacIntel,59.97361161,,,,,,,,,,,,0.615,1,,,,,,,,,,,,,,,,,,,,,,,,-0.47515105,0.21972192,0,0,0,,,,,,,BRIDE,C,m,y,./images/BRIDE.png,,,,,,,m,1,0.615,,,,,,,,0,47,47,64,1
,,,,,,,,,,,,,,,,,200581,19,2022-01-28_16h51.39.804,lexical_decision_task_DD_L6,2021.2.3,MacIntel,59.97361161,,,,,,,,,,,,0.8823,1,,,,,,,,,,,,,,,,,,,,,,,,-0.47515105,0.21972192,0,0,0,,,,,,,SAUCE,LB,m,y,./images/SAUCELB.png,,,,,,,m,1,0.8823,,,,,,,,0,48,48,51,1
,,,,,,,,,,,,,,,,,200581,19,2022-01-28_16h51.39.804,lexical_decision_task_DD_L6,2021.2.3,MacIntel,59.97361161,,,,,,,,,,,,2.8621,1,,,,,,,,,,,,,,,,,,,,,,,,-0.47515105,0.21972192,0,0,0,,,,,,,KITTEN,LB,z,y,./images/KITTENLB.png,,,,,,,z,1,2.8621,,,,,,,,0,49,49,129,1
,,,,,,,,,,,,,,,,,200581,19,2022-01-28_16h51.39.804,lexical_decision_task_DD_L6,2021.2.3,MacIntel,59.97361161,,,,,,,,,,,,0.5969,1,,,,,,,,,,,,,,,,,,,,,,,,-0.47515105,0.21972192,0,0,0,,,,,,,MUMMY,C,m,y,./images/MUMMY.png,,,,,,,m,1,0.5969,,,,,,,,0,50,50,46,1
,,,,,,,,,,,,,,,,,200581,19,2022-01-28_16h51.39.804,lexical_decision_task_DD_L6,2021.2.3,MacIntel,59.97361161,,,,,,,,,,,,0.8492,1,,,,,,,,,,,,,,,,,,,,,,,,-0.47515105,0.21972192,0,0,0,,,,,,,BRUSH,HB,m,y,./images/BRUSHHB.png,,,,,,,m,1,0.8492,,,,,,,,0,51,51,59,1
,,,,,,,,,,,,,,,,,200581,19,2022-01-28_16h51.39.804,lexical_decision_task_DD_L6,2021.2.3,MacIntel,59.97361161,,,,,,,,,,,,0.8001,1,,,,,,,,,,,,,,,,,,,,,,,,-0.47515105,0.21972192,0,0,0,,,,,,,SUNSET,C,z,y,./images/SUNSET.png,,,,,,,z,1,0.8001,,,,,,,,0,52,52,166,1
,,,,,,,,,,,,,,,,,200581,19,2022-01-28_16h51.39.804,lexical_decision_task_DD_L6,2021.2.3,MacIntel,59.97361161,,,,,,,,,,,,0.8179,0,,,,,,,,,,,,,,,,,,,,,,,,-0.47515105,0.21972192,0,0,0,,,,,,,PLANK,C,z,y,./images/PLANK.png,,,,,,,m,0,0.8179,,,,,,,,0,53,53,85,1
,,,,,,,,,,,,,,,,,200581,19,2022-01-28_16h51.39.804,lexical_decision_task_DD_L6,2021.2.3,MacIntel,59.97361161,,,,,,,,,,,,0.8875,1,,,,,,,,,,,,,,,,,,,,,,,,-0.47515105,0.21972192,0,0,0,,,,,,,SNACK,C,z,y,./images/SNACK.png,,,,,,,z,1,0.8875,,,,,,,,0,54,54,157,1
,,,,,,,,,,,,,,,,,200581,19,2022-01-28_16h51.39.804,lexical_decision_task_DD_L6,2021.2.3,MacIntel,59.97361161,,,,,,,,,,,,0.6667,1,,,,,,,,,,,,,,,,,,,,,,,,-0.47515105,0.21972192,0,0,0,,,,,,,SNAKE,C,m,y,./images/SNAKE.png,,,,,,,m,1,0.6667,,,,,,,,0,55,55,40,1
,,,,,,,,,,,,,,,,,200581,19,2022-01-28_16h51.39.804,lexical_decision_task_DD_L6,2021.2.3,MacIntel,59.97361161,,,,,,,,,,,,0.9352,1,,,,,,,,,,,,,,,,,,,,,,,,-0.47515105,0.21972192,0,0,0,,,,,,,SPINE,HB,m,y,./images/SPINEHB.png,,,,,,,m,1,0.9352,,,,,,,,0,56,56,65,1
,,,,,,,,,,,,,,,,,200581,19,2022-01-28_16h51.39.804,lexical_decision_task_DD_L6,2021.2.3,MacIntel,59.97361161,,,,,,,,,,,,0.7879,1,,,,,,,,,,,,,,,,,,,,,,,,-0.47515105,0.21972192,0,0,0,,,,,,,CLOWN,C,m,y,./images/CLOWN.png,,,,,,,m,1,0.7879,,,,,,,,0,57,57,22,1
,,,,,,,,,,,,,,,,,200581,19,2022-01-28_16h51.39.804,lexical_decision_task_DD_L6,2021.2.3,MacIntel,59.97361161,,,,,,,,,,,,0.6952,1,,,,,,,,,,,,,,,,,,,,,,,,-0.47515105,0.21972192,0,0,0,,,,,,,BERRY,HB,z,y,./images/BERRYHB.png,,,,,,,z,1,0.6952,,,,,,,,0,58,58,131,1
,,,,,,,,,,,,,,,,,200581,19,2022-01-28_16h51.39.804,lexical_decision_task_DD_L6,2021.2.3,MacIntel,59.97361161,,,,,,,,,,,,0.7324,1,,,,,,,,,,,,,,,,,,,,,,,,-0.47515105,0.21972192,0,0,0,,,,,,,NOOSE,LB,z,y,./images/NOOSELB.png,,,,,,,z,1,0.7324,,,,,,,,0,59,59,156,1
,,,,,,,,,,,,,,,,,200581,19,2022-01-28_16h51.39.804,lexical_decision_task_DD_L6,2021.2.3,MacIntel,59.97361161,,,,,,,,,,,,0.9639,0,,,,,,,,,,,,,,,,,,,,,,,,-0.47515105,0.21972192,0,0,0,,,,,,,BOILER,LB,m,y,./images/BOILERLB.png,,,,,,,z,0,0.9639,,,,,,,,0,60,60,36,1
,,,,,,,,,,,,,,,,,200581,19,2022-01-28_16h51.39.804,lexical_decision_task_DD_L6,2021.2.3,MacIntel,59.97361161,,,,,,,,,,,,0.5817,1,,,,,,,,,,,,,,,,,,,,,,,,-0.47515105,0.21972192,0,0,0,,,,,,,MAMMAL,HB,m,y,./images/MAMMALHB.png,,,,,,,m,1,0.5817,,,,,,,,0,61,61,62,1
,,,,,,,,,,,,,,,,,200581,19,2022-01-28_16h51.39.804,lexical_decision_task_DD_L6,2021.2.3,MacIntel,59.97361161,,,,,,,,,,,,1.0837,0,,,,,,,,,,,,,,,,,,,,,,,,-0.47515105,0.21972192,0,0,0,,,,,,,GRAPE,C,m,y,./images/GRAPE.png,,,,,,,z,0,1.0837,,,,,,,,0,62,62,16,1
,,,,,,,,,,,,,,,,,200581,19,2022-01-28_16h51.39.804,lexical_decision_task_DD_L6,2021.2.3,MacIntel,59.97361161,,,,,,,,,,,,0.9942,1,,,,,,,,,,,,,,,,,,,,,,,,-0.47515105,0.21972192,0,0,0,,,,,,,BANNER,C,z,y,./images/BANNER.png,,,,,,,z,1,0.9942,,,,,,,,0,63,63,136,1
,,,,,,,,,,,,,,,,,200581,19,2022-01-28_16h51.39.804,lexical_decision_task_DD_L6,2021.2.3,MacIntel,59.97361161,,,,,,,,,,,,1.816,0,,,,,,,,,,,,,,,,,,,,,,,,-0.47515105,0.21972192,0,0,0,,,,,,,PURSE,HB,z,y,./images/PURSEHB.png,,,,,,,m,0,1.816,,,,,,,,0,64,64,146,1
,,,,,,,,,,,,,,,,,200581,19,2022-01-28_16h51.39.804,lexical_decision_task_DD_L6,2021.2.3,MacIntel,59.97361161,,,,,,,,,,,,1.0332,1,,,,,,,,,,,,,,,,,,,,,,,,-0.47515105,0.21972192,0,0,0,,,,,,,BUNNY,C,m,y,./images/BUNNY.png,,,,,,,m,1,1.0332,,,,,,,,0,65,65,13,1
,,,,,,,,,,,,,,,,,200581,19,2022-01-28_16h51.39.804,lexical_decision_task_DD_L6,2021.2.3,MacIntel,59.97361161,,,,,,,,,,,,0.8998,1,,,,,,,,,,,,,,,,,,,,,,,,-0.47515105,0.21972192,0,0,0,,,,,,,DANCER,LB,m,y,./images/DANCERLB.png,,,,,,,m,1,0.8998,,,,,,,,0,66,66,21,1
,,,,,,,,,,,,,,,,,200581,19,2022-01-28_16h51.39.804,lexical_decision_task_DD_L6,2021.2.3,MacIntel,59.97361161,,,,,,,,,,,,0.9001,1,,,,,,,,,,,,,,,,,,,,,,,,-0.47515105,0.21972192,0,0,0,,,,,,,SHELF,LB,z,y,./images/SHELFLB.png,,,,,,,z,1,0.9001,,,,,,,,0,67,67,123,1
,,,,,,,,,,,,,,,,,200581,19,2022-01-28_16h51.39.804,lexical_decision_task_DD_L6,2021.2.3,MacIntel,59.97361161,,,,,,,,,,,,0.6683,1,,,,,,,,,,,,,,,,,,,,,,,,-0.47515105,0.21972192,0,0,0,,,,,,,ALLEY,C,m,y,./images/ALLEY.png,,,,,,,m,1,0.6683,,,,,,,,0,68,68,55,1
,,,,,,,,,,,,,,,,,200581,19,2022-01-28_16h51.39.804,lexical_decision_task_DD_L6,2021.2.3,MacIntel,59.97361161,,,,,,,,,,,,1.5325,1,,,,,,,,,,,,,,,,,,,,,,,,-0.47515105,0.21972192,0,0,0,,,,,,,CARPET,HB,z,y,./images/CARPETHB.png,,,,,,,z,1,1.5325,,,,,,,,0,69,69,137,1
,,,,,,,,,,,,,,,,,200581,19,2022-01-28_16h51.39.804,lexical_decision_task_DD_L6,2021.2.3,MacIntel,59.97361161,,,,,,,,,,,,0.8161,1,,,,,,,,,,,,,,,,,,,,,,,,-0.47515105,0.21972192,0,0,0,,,,,,,CURRY,LB,m,y,./images/CURRYLB.png,,,,,,,m,1,0.8161,,,,,,,,0,70,70,60,1
,,,,,,,,,,,,,,,,,200581,19,2022-01-28_16h51.39.804,lexical_decision_task_DD_L6,2021.2.3,MacIntel,59.97361161,,,,,,,,,,,,0.8013,1,,,,,,,,,,,,,,,,,,,,,,,,-0.47515105,0.21972192,0,0,0,,,,,,,STEAK,C,m,y,./images/STEAK.png,,,,,,,m,1,0.8013,,,,,,,,0,71,71,31,1
,,,,,,,,,,,,,,,,,200581,19,2022-01-28_16h51.39.804,lexical_decision_task_DD_L6,2021.2.3,MacIntel,59.97361161,,,,,,,,,,,,1.8516,1,,,,,,,,,,,,,,,,,,,,,,,,-0.47515105,0.21972192,0,0,0,,,,,,,LIZARD,HB,z,y,./images/LIZARDHB.png,,,,,,,z,1,1.8516,,,,,,,,0,72,72,128,1
,,,,,,,,,,,,,,,,,200581,19,2022-01-28_16h51.39.804,lexical_decision_task_DD_L6,2021.2.3,MacIntel,59.97361161,,,,,,,,,,,,1.5329,0,,,,,,,,,,,,,,,,,,,,,,,,-0.47515105,0.21972192,0,0,0,,,,,,,CLOUD,HB,m,y,./images/CLOUDHB.png,,,,,,,z,0,1.5329,,,,,,,,0,73,73,26,1
,,,,,,,,,,,,,,,,,200581,19,2022-01-28_16h51.39.804,lexical_decision_task_DD_L6,2021.2.3,MacIntel,59.97361161,,,,,,,,,,,,1.3014,0,,,,,,,,,,,,,,,,,,,,,,,,-0.47515105,0.21972192,0,0,0,,,,,,,STREAM,HB,m,y,./images/STREAMHB.png,,,,,,,z,0,1.3014,,,,,,,,0,74,74,41,1
,,,,,,,,,,,,,,,,,200581,19,2022-01-28_16h51.39.804,lexical_decision_task_DD_L6,2021.2.3,MacIntel,59.97361161,,,,,,,,,,,,0.6289,1,,,,,,,,,,,,,,,,,,,,,,,,-0.47515105,0.21972192,0,0,0,,,,,,,ARROW,LB,m,y,./images/ARROWLB.png,,,,,,,m,1,0.6289,,,,,,,,0,75,75,69,1
,,,,,,,,,,,,,,,,,200581,19,2022-01-28_16h51.39.804,lexical_decision_task_DD_L6,2021.2.3,MacIntel,59.97361161,,,,,,,,,,,,0.7448,1,,,,,,,,,,,,,,,,,,,,,,,,-0.47515105,0.21972192,0,0,0,,,,,,,CLOTH,HB,m,y,./images/CLOTHHB.png,,,,,,,m,1,0.7448,,,,,,,,0,76,76,23,1
,,,,,,,,,,,,,,,,,200581,19,2022-01-28_16h51.39.804,lexical_decision_task_DD_L6,2021.2.3,MacIntel,59.97361161,,,,,,,,,,,,0.9164,0,,,,,,,,,,,,,,,,,,,,,,,,-0.47515105,0.21972192,0,0,0,,,,,,,BASKET,HB,m,y,./images/BASKETHB.png,,,,,,,z,0,0.9164,,,,,,,,0,77,77,44,1
,,,,,,,,,,,,,,,,,200581,19,2022-01-28_16h51.39.804,lexical_decision_task_DD_L6,2021.2.3,MacIntel,59.97361161,,,,,,,,,,,,0.951,0,,,,,,,,,,,,,,,,,,,,,,,,-0.47515105,0.21972192,0,0,0,,,,,,,BANANA,C,m,y,./images/BANANA.png,,,,,,,z,0,0.951,,,,,,,,0,78,78,70,1
,,,,,,,,,,,,,,,,,200581,19,2022-01-28_16h51.39.804,lexical_decision_task_DD_L6,2021.2.3,MacIntel,59.97361161,,,,,,,,,,,,0.9974,0,,,,,,,,,,,,,,,,,,,,,,,,-0.47515105,0.21972192,0,0,0,,,,,,,STOVE,HB,m,y,./images/STOVEHB.png,,,,,,,z,0,0.9974,,,,,,,,0,79,79,2,1
,,,,,,,,,,,,,,,,,200581,19,2022-01-28_16h51.39.804,lexical_decision_task_DD_L6,2021.2.3,MacIntel,59.97361161,,,,,,,,,,,,0.7997,1,,,,,,,,,,,,,,,,,,,,,,,,-0.47515105,0.21972192,0,0,0,,,,,,,SHORE,LB,z,y,./images/SHORELB.png,,,,,,,z,1,0.7997,,,,,,,,0,80,80,96,1
,,,,,,,,,,,,,,,,,200581,19,2022-01-28_16h51.39.804,lexical_decision_task_DD_L6,2021.2.3,MacIntel,59.97361161,,,,,,,,,,,,0.7521,1,,,,,,,,,,,,,,,,,,,,,,,,-0.47515105,0.21972192,0,0,0,,,,,,,FENCE,HB,m,y,./images/FENCEHB.png,,,,,,,m,1,0.7521,,,,,,,,0,81,81,14,1
,,,,,,,,,,,,,,,,,200581,19,2022-01-28_16h51.39.804,lexical_decision_task_DD_L6,2021.2.3,MacIntel,59.97361161,,,,,,,,,,,,0.7233,1,,,,,,,,,,,,,,,,,,,,,,,,-0.47515105,0.21972192,0,0,0,,,,,,,PASTA,HB,z,y,./images/PASTAHB.png,,,,,,,z,1,0.7233,,,,,,,,0,82,82,89,1
,,,,,,,,,,,,,,,,,200581,19,2022-01-28_16h51.39.804,lexical_decision_task_DD_L6,2021.2.3,MacIntel,59.97361161,,,,,,,,,,,,1.1192,1,,,,,,,,,,,,,,,,,,,,,,,,0.026347068,-0.135214441,0,0,0,space,,,,,,MALLET,HB,z,y,./images/MALLETHB.png,157.8199,,,,,,z,1,1.1192,,,,,,,,0,83,83,134,1
,,,,,,,,,,,,,,,,,200581,19,2022-01-28_16h51.39.804,lexical_decision_task_DD_L6,2021.2.3,MacIntel,59.97361161,,,,,,,,,,,,0.783,1,,,,,,,,,,,,,,,,,,,,,,,,0.026347068,-0.135214441,0,0,0,,,,,,,PLANET,HB,m,y,./images/PLANETHB.png,,,,,,,m,1,0.783,,,,,,,,0,84,84,80,1
,,,,,,,,,,,,,,,,,200581,19,2022-01-28_16h51.39.804,lexical_decision_task_DD_L6,2021.2.3,MacIntel,59.97361161,,,,,,,,,,,,0.8068,0,,,,,,,,,,,,,,,,,,,,,,,,0.026347068,-0.135214441,0,0,0,,,,,,,HEATER,HB,m,y,./images/HEATERHB.png,,,,,,,z,0,0.8068,,,,,,,,0,85,85,56,1
,,,,,,,,,,,,,,,,,200581,19,2022-01-28_16h51.39.804,lexical_decision_task_DD_L6,2021.2.3,MacIntel,59.97361161,,,,,,,,,,,,1.0869,1,,,,,,,,,,,,,,,,,,,,,,,,0.026347068,-0.135214441,0,0,0,,,,,,,WHISKY,HB,m,y,./images/WHISKYHB.png,,,,,,,m,1,1.0869,,,,,,,,0,86,86,83,1
,,,,,,,,,,,,,,,,,200581,19,2022-01-28_16h51.39.804,lexical_decision_task_DD_L6,2021.2.3,MacIntel,59.97361161,,,,,,,,,,,,1.9853,0,,,,,,,,,,,,,,,,,,,,,,,,0.026347068,-0.135214441,0,0,0,,,,,,,PEARL,C,z,y,./images/PEARL.png,,,,,,,m,0,1.9853,,,,,,,,0,87,87,130,1
,,,,,,,,,,,,,,,,,200581,19,2022-01-28_16h51.39.804,lexical_decision_task_DD_L6,2021.2.3,MacIntel,59.97361161,,,,,,,,,,,,0.7853,1,,,,,,,,,,,,,,,,,,,,,,,,0.026347068,-0.135214441,0,0,0,,,,,,,HOCKEY,HB,m,y,./images/HOCKEYHB.png,,,,,,,m,1,0.7853,,,,,,,,0,88,88,32,1
,,,,,,,,,,,,,,,,,200581,19,2022-01-28_16h51.39.804,lexical_decision_task_DD_L6,2021.2.3,MacIntel,59.97361161,,,,,,,,,,,,0.5974,1,,,,,,,,,,,,,,,,,,,,,,,,0.026347068,-0.135214441,0,0,0,,,,,,,QUILL,C,z,y,./images/QUILL.png,,,,,,,z,1,0.5974,,,,,,,,0,89,89,115,1
,,,,,,,,,,,,,,,,,200581,19,2022-01-28_16h51.39.804,lexical_decision_task_DD_L6,2021.2.3,MacIntel,59.97361161,,,,,,,,,,,,0.9015,1,,,,,,,,,,,,,,,,,,,,,,,,0.026347068,-0.135214441,0,0,0,,,,,,,RHINO,LB,z,y,./images/RHINOLB.png,,,,,,,z,1,0.9015,,,,,,,,0,90,90,93,1
,,,,,,,,,,,,,,,,,200581,19,2022-01-28_16h51.39.804,lexical_decision_task_DD_L6,2021.2.3,MacIntel,59.97361161,,,,,,,,,,,,0.8837,1,,,,,,,,,,,,,,,,,,,,,,,,0.026347068,-0.135214441,0,0,0,,,,,,,MOTOR,C,z,y,./images/MOTOR.png,,,,,,,z,1,0.8837,,,,,,,,0,91,91,97,1
,,,,,,,,,,,,,,,,,200581,19,2022-01-28_16h51.39.804,lexical_decision_task_DD_L6,2021.2.3,MacIntel,59.97361161,,,,,,,,,,,,1.0174,1,,,,,,,,,,,,,,,,,,,,,,,,0.026347068,-0.135214441,0,0,0,,,,,,,DRUMS,C,z,y,./images/DRUMS.png,,,,,,,z,1,1.0174,,,,,,,,0,92,92,133,1
,,,,,,,,,,,,,,,,,200581,19,2022-01-28_16h51.39.804,lexical_decision_task_DD_L6,2021.2.3,MacIntel,59.97361161,,,,,,,,,,,,0.8525,1,,,,,,,,,,,,,,,,,,,,,,,,0.026347068,-0.135214441,0,0,0,,,,,,,CRATER,LB,m,y,./images/CRATERLB.png,,,,,,,m,1,0.8525,,,,,,,,0,93,93,3,1
,,,,,,,,,,,,,,,,,200581,19,2022-01-28_16h51.39.804,lexical_decision_task_DD_L6,2021.2.3,MacIntel,59.97361161,,,,,,,,,,,,2.4139,0,,,,,,,,,,,,,,,,,,,,,,,,0.026347068,-0.135214441,0,0,0,,,,,,,CANDLE,C,z,y,./images/CANDLE.png,,,,,,,m,0,2.4139,,,,,,,,0,94,94,145,1
,,,,,,,,,,,,,,,,,200581,19,2022-01-28_16h51.39.804,lexical_decision_task_DD_L6,2021.2.3,MacIntel,59.97361161,,,,,,,,,,,,0.7013,1,,,,,,,,,,,,,,,,,,,,,,,,0.026347068,-0.135214441,0,0,0,,,,,,,COOKER,LB,z,y,./images/COOKERLB.png,,,,,,,z,1,0.7013,,,,,,,,0,95,95,153,1
,,,,,,,,,,,,,,,,,200581,19,2022-01-28_16h51.39.804,lexical_decision_task_DD_L6,2021.2.3,MacIntel,59.97361161,,,,,,,,,,,,0.7657,0,,,,,,,,,,,,,,,,,,,,,,,,0.026347068,-0.135214441,0,0,0,,,,,,,CHALK,C,m,y,./images/CHALK.png,,,,,,,z,0,0.7657,,,,,,,,0,96,96,25,1
,,,,,,,,,,,,,,,,,200581,19,2022-01-28_16h51.39.804,lexical_decision_task_DD_L6,2021.2.3,MacIntel,59.97361161,,,,,,,,,,,,0.6177,1,,,,,,,,,,,,,,,,,,,,,,,,0.026347068,-0.135214441,0,0,0,,,,,,,INFANT,C,z,y,./images/INFANT.png,,,,,,,z,1,0.6177,,,,,,,,0,97,97,160,1
,,,,,,,,,,,,,,,,,200581,19,2022-01-28_16h51.39.804,lexical_decision_task_DD_L6,2021.2.3,MacIntel,59.97361161,,,,,,,,,,,,0.7293,1,,,,,,,,,,,,,,,,,,,,,,,,0.026347068,-0.135214441,0,0,0,,,,,,,PIMPLE,HB,z,y,./images/PIMPLEHB.png,,,,,,,z,1,0.7293,,,,,,,,0,98,98,155,1
,,,,,,,,,,,,,,,,,200581,19,2022-01-28_16h51.39.804,lexical_decision_task_DD_L6,2021.2.3,MacIntel,59.97361161,,,,,,,,,,,,0.8837,0,,,,,,,,,,,,,,,,,,,,,,,,0.026347068,-0.135214441,0,0,0,,,,,,,CHAIN,LB,m,y,./images/CHAINLB.png,,,,,,,z,0,0.8837,,,,,,,,0,99,99,42,1
,,,,,,,,,,,,,,,,,200581,19,2022-01-28_16h51.39.804,lexical_decision_task_DD_L6,2021.2.3,MacIntel,59.97361161,,,,,,,,,,,,0.7807,1,,,,,,,,,,,,,,,,,,,,,,,,0.026347068,-0.135214441,0,0,0,,,,,,,SMOKER,HB,z,y,./images/SMOKERHB.png,,,,,,,z,1,0.7807,,,,,,,,0,100,100,110,1
,,,,,,,,,,,,,,,,,200581,19,2022-01-28_16h51.39.804,lexical_decision_task_DD_L6,2021.2.3,MacIntel,59.97361161,,,,,,,,,,,,0.6699,1,,,,,,,,,,,,,,,,,,,,,,,,0.026347068,-0.135214441,0,0,0,,,,,,,TIGER,C,m,y,./images/TIGER.png,,,,,,,m,1,0.6699,,,,,,,,0,101,101,37,1
,,,,,,,,,,,,,,,,,200581,19,2022-01-28_16h51.39.804,lexical_decision_task_DD_L6,2021.2.3,MacIntel,59.97361161,,,,,,,,,,,,6.1855,1,,,,,,,,,,,,,,,,,,,,,,,,0.026347068,-0.135214441,0,0,0,,,,,,,SWEAT,LB,z,y,./images/SWEATLB.png,,,,,,,z,1,6.1855,,,,,,,,0,102,102,150,1
,,,,,,,,,,,,,,,,,200581,19,2022-01-28_16h51.39.804,lexical_decision_task_DD_L6,2021.2.3,MacIntel,59.97361161,,,,,,,,,,,,0.817,1,,,,,,,,,,,,,,,,,,,,,,,,0.026347068,-0.135214441,0,0,0,,,,,,,FINGER,LB,z,y,./images/FINGERLB.png,,,,,,,z,1,0.817,,,,,,,,0,103,103,87,1
,,,,,,,,,,,,,,,,,200581,19,2022-01-28_16h51.39.804,lexical_decision_task_DD_L6,2021.2.3,MacIntel,59.97361161,,,,,,,,,,,,1.5468,1,,,,,,,,,,,,,,,,,,,,,,,,0.026347068,-0.135214441,0,0,0,,,,,,,BLOKE,LB,m,y,./images/BLOKELB.png,,,,,,,m,1,1.5468,,,,,,,,0,104,104,12,1
,,,,,,,,,,,,,,,,,200581,19,2022-01-28_16h51.39.804,lexical_decision_task_DD_L6,2021.2.3,MacIntel,59.97361161,,,,,,,,,,,,0.8851,1,,,,,,,,,,,,,,,,,,,,,,,,0.026347068,-0.135214441,0,0,0,,,,,,,TORCH,HB,z,y,./images/TORCHHB.png,,,,,,,z,1,0.8851,,,,,,,,0,105,105,152,1
,,,,,,,,,,,,,,,,,200581,19,2022-01-28_16h51.39.804,lexical_decision_task_DD_L6,2021.2.3,MacIntel,59.97361161,,,,,,,,,,,,0.7927,0,,,,,,,,,,,,,,,,,,,,,,,,0.026347068,-0.135214441,0,0,0,,,,,,,MIDGET,C,m,y,./images/MIDGET.png,,,,,,,z,0,0.7927,,,,,,,,0,106,106,76,1
,,,,,,,,,,,,,,,,,200581,19,2022-01-28_16h51.39.804,lexical_decision_task_DD_L6,2021.2.3,MacIntel,59.97361161,,,,,,,,,,,,0.9333,1,,,,,,,,,,,,,,,,,,,,,,,,0.026347068,-0.135214441,0,0,0,,,,,,,BISHOP,C,m,y,./images/BISHOP.png,,,,,,,m,1,0.9333,,,,,,,,0,107,107,49,1
,,,,,,,,,,,,,,,,,200581,19,2022-01-28_16h51.39.804,lexical_decision_task_DD_L6,2021.2.3,MacIntel,59.97361161,,,,,,,,,,,,2.9568,1,,,,,,,,,,,,,,,,,,,,,,,,0.026347068,-0.135214441,0,0,0,,,,,,,STATUE,LB,m,y,./images/STATUELB.png,,,,,,,m,1,2.9568,,,,,,,,0,108,108,66,1
,,,,,,,,,,,,,,,,,200581,19,2022-01-28_16h51.39.804,lexical_decision_task_DD_L6,2021.2.3,MacIntel,59.97361161,,,,,,,,,,,,4.2841,1,,,,,,,,,,,,,,,,,,,,,,,,0.026347068,-0.135214441,0,0,0,,,,,,,MUSCLE,C,z,y,./images/MUSCLE.png,,,,,,,z,1,4.2841,,,,,,,,0,109,109,88,1
,,,,,,,,,,,,,,,,,200581,19,2022-01-28_16h51.39.804,lexical_decision_task_DD_L6,2021.2.3,MacIntel,59.97361161,,,,,,,,,,,,0.8373,1,,,,,,,,,,,,,,,,,,,,,,,,0.026347068,-0.135214441,0,0,0,,,,,,,GRAIN,LB,z,y,./images/GRAINLB.png,,,,,,,z,1,0.8373,,,,,,,,0,110,110,159,1
,,,,,,,,,,,,,,,,,200581,19,2022-01-28_16h51.39.804,lexical_decision_task_DD_L6,2021.2.3,MacIntel,59.97361161,,,,,,,,,,,,1.5153,1,,,,,,,,,,,,,,,,,,,,,,,,0.026347068,-0.135214441,0,0,0,,,,,,,STORM,LB,z,y,./images/STORMLB.png,,,,,,,z,1,1.5153,,,,,,,,0,111,111,114,1
,,,,,,,,,,,,,,,,,200581,19,2022-01-28_16h51.39.804,lexical_decision_task_DD_L6,2021.2.3,MacIntel,59.97361161,,,,,,,,,,,,0.8656,0,,,,,,,,,,,,,,,,,,,,,,,,0.026347068,-0.135214441,0,0,0,,,,,,,THROAT,LB,z,y,./images/THROATLB.png,,,,,,,m,0,0.8656,,,,,,,,0,112,112,120,1
,,,,,,,,,,,,,,,,,200581,19,2022-01-28_16h51.39.804,lexical_decision_task_DD_L6,2021.2.3,MacIntel,59.97361161,,,,,,,,,,,,1.0824,1,,,,,,,,,,,,,,,,,,,,,,,,0.026347068,-0.135214441,0,0,0,,,,,,,BUBBLE,HB,m,y,./images/BUBBLEHB.png,,,,,,,m,1,1.0824,,,,,,,,0,113,113,71,1
,,,,,,,,,,,,,,,,,200581,19,2022-01-28_16h51.39.804,lexical_decision_task_DD_L6,2021.2.3,MacIntel,59.97361161,,,,,,,,,,,,1.0843,0,,,,,,,,,,,,,,,,,,,,,,,,0.026347068,-0.135214441,0,0,0,,,,,,,PACKET,HB,z,y,./images/PACKETHB.png,,,,,,,m,0,1.0843,,,,,,,,0,114,114,140,1
,,,,,,,,,,,,,,,,,200581,19,2022-01-28_16h51.39.804,lexical_decision_task_DD_L6,2021.2.3,MacIntel,59.97361161,,,,,,,,,,,,0.948,0,,,,,,,,,,,,,,,,,,,,,,,,0.026347068,-0.135214441,0,0,0,,,,,,,PAINT,C,z,y,./images/PAINT.png,,,,,,,m,0,0.948,,,,,,,,0,115,115,91,1
,,,,,,,,,,,,,,,,,200581,19,2022-01-28_16h51.39.804,lexical_decision_task_DD_L6,2021.2.3,MacIntel,59.97361161,,,,,,,,,,,,0.9589,1,,,,,,,,,,,,,,,,,,,,,,,,0.026347068,-0.135214441,0,0,0,,,,,,,SPORT,LB,z,y,./images/SPORTLB.png,,,,,,,z,1,0.9589,,,,,,,,0,116,116,132,1
,,,,,,,,,,,,,,,,,200581,19,2022-01-28_16h51.39.804,lexical_decision_task_DD_L6,2021.2.3,MacIntel,59.97361161,,,,,,,,,,,,0.6166,0,,,,,,,,,,,,,,,,,,,,,,,,0.026347068,-0.135214441,0,0,0,,,,,,,POSTER,HB,m,y,./images/POSTERHB.png,,,,,,,z,0,0.6166,,,,,,,,0,117,117,53,1
,,,,,,,,,,,,,,,,,200581,19,2022-01-28_16h51.39.804,lexical_decision_task_DD_L6,2021.2.3,MacIntel,59.97361161,,,,,,,,,,,,0.7526,0,,,,,,,,,,,,,,,,,,,,,,,,0.026347068,-0.135214441,0,0,0,,,,,,,PEBBLE,C,m,y,./images/PEBBLE.png,,,,,,,z,0,0.7526,,,,,,,,0,118,118,82,1
,,,,,,,,,,,,,,,,,200581,19,2022-01-28_16h51.39.804,lexical_decision_task_DD_L6,2021.2.3,MacIntel,59.97361161,,,,,,,,,,,,1.2135,1,,,,,,,,,,,,,,,,,,,,,,,,0.026347068,-0.135214441,0,0,0,,,,,,,CEMENT,HB,z,y,./images/CEMENTHB.png,,,,,,,z,1,1.2135,,,,,,,,0,119,119,158,1
,,,,,,,,,,,,,,,,,200581,19,2022-01-28_16h51.39.804,lexical_decision_task_DD_L6,2021.2.3,MacIntel,59.97361161,,,,,,,,,,,,0.7698,1,,,,,,,,,,,,,,,,,,,,,,,,0.026347068,-0.135214441,0,0,0,,,,,,,MELON,C,z,y,./images/MELON.png,,,,,,,z,1,0.7698,,,,,,,,0,120,120,106,1
,,,,,,,,,,,,,,,,,200581,19,2022-01-28_16h51.39.804,lexical_decision_task_DD_L6,2021.2.3,MacIntel,59.97361161,,,,,,,,,,,,1.4313,0,,,,,,,,,,,,,,,,,,,,,,,,0.026347068,-0.135214441,0,0,0,,,,,,,WAGON,C,m,y,./images/WAGON.png,,,,,,,z,0,1.4313,,,,,,,,0,121,121,7,1
,,,,,,,,,,,,,,,,,200581,19,2022-01-28_16h51.39.804,lexical_decision_task_DD_L6,2021.2.3,MacIntel,59.97361161,,,,,,,,,,,,0.7329,1,,,,,,,,,,,,,,,,,,,,,,,,0.026347068,-0.135214441,0,0,0,,,,,,,BEARD,HB,z,y,./images/BEARDHB.png,,,,,,,z,1,0.7329,,,,,,,,0,122,122,86,1
,,,,,,,,,,,,,,,,,200581,19,2022-01-28_16h51.39.804,lexical_decision_task_DD_L6,2021.2.3,MacIntel,59.97361161,,,,,,,,,,,,1.4343,1,,,,,,,,,,,,,,,,,,,,,,,,0.026347068,-0.135214441,0,0,0,,,,,,,BARREL,HB,z,y,./images/BARRELHB.png,,,,,,,z,1,1.4343,,,,,,,,0,123,123,116,1
,,,,,,,,,,,,,,,,,200581,19,2022-01-28_16h51.39.804,lexical_decision_task_DD_L6,2021.2.3,MacIntel,59.97361161,,,,,,,,,,,,0.7322,0,,,,,,,,,,,,,,,,,,,,,,,,0.026347068,-0.135214441,0,0,0,,,,,,,BONNET,HB,z,y,./images/BONNETHB.png,,,,,,,m,0,0.7322,,,,,,,,0,124,124,95,1
,,,,,,,,,,,,,,,,,200581,19,2022-01-28_16h51.39.804,lexical_decision_task_DD_L6,2021.2.3,MacIntel,59.97361161,,,,,,,,,,,,0.8013,1,,,,,,,,,,,,,,,,,,,,,,,,-0.422048336,0.279337114,0,0,0,space,,,,,,DESERT,C,m,y,./images/DESERT.png,42.7379,,,,,,m,1,0.8013,,,,,,,,0,125,125,52,1
,,,,,,,,,,,,,,,,,200581,19,2022-01-28_16h51.39.804,lexical_decision_task_DD_L6,2021.2.3,MacIntel,59.97361161,,,,,,,,,,,,0.7483,1,,,,,,,,,,,,,,,,,,,,,,,,-0.422048336,0.279337114,0,0,0,,,,,,,CHERRY,LB,m,y,./images/CHERRYLB.png,,,,,,,m,1,0.7483,,,,,,,,0,126,126,54,1
,,,,,,,,,,,,,,,,,200581,19,2022-01-28_16h51.39.804,lexical_decision_task_DD_L6,2021.2.3,MacIntel,59.97361161,,,,,,,,,,,,0.9675,0,,,,,,,,,,,,,,,,,,,,,,,,-0.422048336,0.279337114,0,0,0,,,,,,,FALCON,C,z,y,./images/FALCON.png,,,,,,,m,0,0.9675,,,,,,,,0,127,127,112,1
,,,,,,,,,,,,,,,,,200581,19,2022-01-28_16h51.39.804,lexical_decision_task_DD_L6,2021.2.3,MacIntel,59.97361161,,,,,,,,,,,,0.748,1,,,,,,,,,,,,,,,,,,,,,,,,-0.422048336,0.279337114,0,0,0,,,,,,,WRIST,C,z,y,./images/WRIST.png,,,,,,,z,1,0.748,,,,,,,,0,128,128,109,1
,,,,,,,,,,,,,,,,,200581,19,2022-01-28_16h51.39.804,lexical_decision_task_DD_L6,2021.2.3,MacIntel,59.97361161,,,,,,,,,,,,0.7488,1,,,,,,,,,,,,,,,,,,,,,,,,-0.422048336,0.279337114,0,0,0,,,,,,,CRUST,C,z,y,./images/CRUST.png,,,,,,,z,1,0.7488,,,,,,,,0,129,129,163,1
,,,,,,,,,,,,,,,,,200581,19,2022-01-28_16h51.39.804,lexical_decision_task_DD_L6,2021.2.3,MacIntel,59.97361161,,,,,,,,,,,,0.8219,0,,,,,,,,,,,,,,,,,,,,,,,,-0.422048336,0.279337114,0,0,0,,,,,,,STOOL,C,m,y,./images/STOOL.png,,,,,,,z,0,0.8219,,,,,,,,0,130,130,43,1
,,,,,,,,,,,,,,,,,200581,19,2022-01-28_16h51.39.804,lexical_decision_task_DD_L6,2021.2.3,MacIntel,59.97361161,,,,,,,,,,,,0.849,1,,,,,,,,,,,,,,,,,,,,,,,,-0.422048336,0.279337114,0,0,0,,,,,,,BAKER,LB,m,y,./images/BAKERLB.png,,,,,,,m,1,0.849,,,,,,,,0,131,131,63,1
,,,,,,,,,,,,,,,,,200581,19,2022-01-28_16h51.39.804,lexical_decision_task_DD_L6,2021.2.3,MacIntel,59.97361161,,,,,,,,,,,,0.918,0,,,,,,,,,,,,,,,,,,,,,,,,-0.422048336,0.279337114,0,0,0,,,,,,,BROOM,LB,m,y,./images/BROOMLB.png,,,,,,,z,0,0.918,,,,,,,,0,132,132,78,1
,,,,,,,,,,,,,,,,,200581,19,2022-01-28_16h51.39.804,lexical_decision_task_DD_L6,2021.2.3,MacIntel,59.97361161,,,,,,,,,,,,0.6814,1,,,,,,,,,,,,,,,,,,,,,,,,-0.422048336,0.279337114,0,0,0,,,,,,,URINE,C,z,y,./images/URINE.png,,,,,,,z,1,0.6814,,,,,,,,0,133,133,154,1
,,,,,,,,,,,,,,,,,200581,19,2022-01-28_16h51.39.804,lexical_decision_task_DD_L6,2021.2.3,MacIntel,59.97361161,,,,,,,,,,,,1.015,1,,,,,,,,,,,,,,,,,,,,,,,,-0.422048336,0.279337114,0,0,0,,,,,,,CANDY,LB,m,y,./images/CANDYLB.png,,,,,,,m,1,1.015,,,,,,,,0,134,134,39,1
,,,,,,,,,,,,,,,,,200581,19,2022-01-28_16h51.39.804,lexical_decision_task_DD_L6,2021.2.3,MacIntel,59.97361161,,,,,,,,,,,,1.1633,0,,,,,,,,,,,,,,,,,,,,,,,,-0.422048336,0.279337114,0,0,0,,,,,,,SCREW,LB,z,y,./images/SCREWLB.png,,,,,,,m,0,1.1633,,,,,,,,0,135,135,108,1
,,,,,,,,,,,,,,,,,200581,19,2022-01-28_16h51.39.804,lexical_decision_task_DD_L6,2021.2.3,MacIntel,59.97361161,,,,,,,,,,,,0.7865,1,,,,,,,,,,,,,,,,,,,,,,,,-0.422048336,0.279337114,0,0,0,,,,,,,FARMER,HB,z,y,./images/FARMERHB.png,,,,,,,z,1,0.7865,,,,,,,,0,136,136,149,1
,,,,,,,,,,,,,,,,,200581,19,2022-01-28_16h51.39.804,lexical_decision_task_DD_L6,2021.2.3,MacIntel,59.97361161,,,,,,,,,,,,0.7178,1,,,,,,,,,,,,,,,,,,,,,,,,-0.422048336,0.279337114,0,0,0,,,,,,,TRIPOD,LB,z,y,./images/TRIPODLB.png,,,,,,,z,1,0.7178,,,,,,,,0,137,137,138,1
,,,,,,,,,,,,,,,,,200581,19,2022-01-28_16h51.39.804,lexical_decision_task_DD_L6,2021.2.3,MacIntel,59.97361161,,,,,,,,,,,,3.1821,1,,,,,,,,,,,,,,,,,,,,,,,,-0.422048336,0.279337114,0,0,0,,,,,,,SKIING,HB,z,y,./images/SKIINGHB.png,,,,,,,z,1,3.1821,,,,,,,,0,138,138,101,1
,,,,,,,,,,,,,,,,,200581,19,2022-01-28_16h51.39.804,lexical_decision_task_DD_L6,2021.2.3,MacIntel,59.97361161,,,,,,,,,,,,12.0923,1,,,,,,,,,,,,,,,,,,,,,,,,0.31900629,0.05175317,0,0,0,,,,,,,FLESH,LB,m,y,./images/FLESHLB.png,,,,,,,m,1,12.0923,,,,,,,,0,139,139,24,1
,,,,,,,,,,,,,,,,,200581,19,2022-01-28_16h51.39.804,lexical_decision_task_DD_L6,2021.2.3,MacIntel,59.97361161,,,,,,,,,,,,0.7544,1,,,,,,,,,,,,,,,,,,,,,,,,0.31900629,0.05175317,0,0,0,,,,,,,DONKEY,C,m,y,./images/DONKEY.png,,,,,,,m,1,0.7544,,,,,,,,0,140,140,19,1
,,,,,,,,,,,,,,,,,200581,19,2022-01-28_16h51.39.804,lexical_decision_task_DD_L6,2021.2.3,MacIntel,59.97361161,,,,,,,,,,,,1.0248,0,,,,,,,,,,,,,,,,,,,,,,,,0.31900629,0.05175317,0,0,0,,,,,,,WEASEL,HB,z,y,./images/WEASELHB.png,,,,,,,m,0,1.0248,,,,,,,,0,141,141,164,1
,,,,,,,,,,,,,,,,,200581,19,2022-01-28_16h51.39.804,lexical_decision_task_DD_L6,2021.2.3,MacIntel,59.97361161,,,,,,,,,,,,0.7172,1,,,,,,,,,,,,,,,,,,,,,,,,0.31900629,0.05175317,0,0,0,,,,,,,ONION,LB,z,y,./images/ONIONLB.png,,,,,,,z,1,0.7172,,,,,,,,0,142,142,135,1
,,,,,,,,,,,,,,,,,200581,19,2022-01-28_16h51.39.804,lexical_decision_task_DD_L6,2021.2.3,MacIntel,59.97361161,,,,,,,,,,,,0.982,1,,,,,,,,,,,,,,,,,,,,,,,,0.31900629,0.05175317,0,0,0,,,,,,,COUCH,HB,z,y,./images/COUCHHB.png,,,,,,,z,1,0.982,,,,,,,,0,143,143,161,1
,,,,,,,,,,,,,,,,,200581,19,2022-01-28_16h51.39.804,lexical_decision_task_DD_L6,2021.2.3,MacIntel,59.97361161,,,,,,,,,,,,0.9636,1,,,,,,,,,,,,,,,,,,,,,,,,0.31900629,0.05175317,0,0,0,,,,,,,LAGOON,HB,m,y,./images/LAGOONHB.png,,,,,,,m,1,0.9636,,,,,,,,0,144,144,47,1
,,,,,,,,,,,,,,,,,200581,19,2022-01-28_16h51.39.804,lexical_decision_task_DD_L6,2021.2.3,MacIntel,59.97361161,,,,,,,,,,,,1.2037,0,,,,,,,,,,,,,,,,,,,,,,,,0.31900629,0.05175317,0,0,0,,,,,,,PEACH,HB,z,y,./images/PEACHHB.png,,,,,,,m,0,1.2037,,,,,,,,0,145,145,119,1
,,,,,,,,,,,,,,,,,200581,19,2022-01-28_16h51.39.804,lexical_decision_task_DD_L6,2021.2.3,MacIntel,59.97361161,,,,,,,,,,,,0.7649,1,,,,,,,,,,,,,,,,,,,,,,,,0.31900629,0.05175317,0,0,0,,,,,,,PICKLE,HB,z,y,./images/PICKLEHB.png,,,,,,,z,1,0.7649,,,,,,,,0,146,146,98,1
,,,,,,,,,,,,,,,,,200581,19,2022-01-28_16h51.39.804,lexical_decision_task_DD_L6,2021.2.3,MacIntel,59.97361161,,,,,,,,,,,,0.8618,1,,,,,,,,,,,,,,,,,,,,,,,,0.31900629,0.05175317,0,0,0,,,,,,,SAILOR,C,z,y,./images/SAILOR.png,,,,,,,z,1,0.8618,,,,,,,,0,147,147,151,1
,,,,,,,,,,,,,,,,,200581,19,2022-01-28_16h51.39.804,lexical_decision_task_DD_L6,2021.2.3,MacIntel,59.97361161,,,,,,,,,,,,0.8222,1,,,,,,,,,,,,,,,,,,,,,,,,0.31900629,0.05175317,0,0,0,,,,,,,BAMBOO,HB,m,y,./images/BAMBOOHB.png,,,,,,,m,1,0.8222,,,,,,,,0,148,148,5,1
,,,,,,,,,,,,,,,,,200581,19,2022-01-28_16h51.39.804,lexical_decision_task_DD_L6,2021.2.3,MacIntel,59.97361161,,,,,,,,,,,,2.0985,1,,,,,,,,,,,,,,,,,,,,,,,,0.31900629,0.05175317,0,0,0,,,,,,,BOXER,C,m,y,./images/BOXER.png,,,,,,,m,1,2.0985,,,,,,,,0,149,149,4,1
,,,,,,,,,,,,,,,,,200581,19,2022-01-28_16h51.39.804,lexical_decision_task_DD_L6,2021.2.3,MacIntel,59.97361161,,,,,,,,,,,,0.8173,1,,,,,,,,,,,,,,,,,,,,,,,,0.31900629,0.05175317,0,0,0,,,,,,,PARADE,HB,m,y,./images/PARADEHB.png,,,,,,,m,1,0.8173,,,,,,,,0,150,150,17,1
,,,,,,,,,,,,,,,,,200581,19,2022-01-28_16h51.39.804,lexical_decision_task_DD_L6,2021.2.3,MacIntel,59.97361161,,,,,,,,,,,,0.6639,1,,,,,,,,,,,,,,,,,,,,,,,,0.31900629,0.05175317,0,0,0,,,,,,,SQUARE,LB,z,y,./images/SQUARELB.png,,,,,,,z,1,0.6639,,,,,,,,0,151,151,90,1
,,,,,,,,,,,,,,,,,200581,19,2022-01-28_16h51.39.804,lexical_decision_task_DD_L6,2021.2.3,MacIntel,59.97361161,,,,,,,,,,,,0.8693,1,,,,,,,,,,,,,,,,,,,,,,,,0.31900629,0.05175317,0,0,0,,,,,,,LLAMA,HB,m,y,./images/LLAMAHB.png,,,,,,,m,1,0.8693,,,,,,,,0,152,152,35,1
,,,,,,,,,,,,,,,,,200581,19,2022-01-28_16h51.39.804,lexical_decision_task_DD_L6,2021.2.3,MacIntel,59.97361161,,,,,,,,,,,,0.7149,1,,,,,,,,,,,,,,,,,,,,,,,,0.31900629,0.05175317,0,0,0,,,,,,,TOMATO,LB,z,y,./images/TOMATOLB.png,,,,,,,z,1,0.7149,,,,,,,,0,153,153,84,1
,,,,,,,,,,,,,,,,,200581,19,2022-01-28_16h51.39.804,lexical_decision_task_DD_L6,2021.2.3,MacIntel,59.97361161,,,,,,,,,,,,0.6827,1,,,,,,,,,,,,,,,,,,,,,,,,0.31900629,0.05175317,0,0,0,,,,,,,CASINO,C,m,y,./images/CASINO.png,,,,,,,m,1,0.6827,,,,,,,,0,154,154,28,1
,,,,,,,,,,,,,,,,,200581,19,2022-01-28_16h51.39.804,lexical_decision_task_DD_L6,2021.2.3,MacIntel,59.97361161,,,,,,,,,,,,0.7837,1,,,,,,,,,,,,,,,,,,,,,,,,0.31900629,0.05175317,0,0,0,,,,,,,BURIAL,HB,z,y,./images/BURIALHB.png,,,,,,,z,1,0.7837,,,,,,,,0,155,155,143,1
,,,,,,,,,,,,,,,,,200581,19,2022-01-28_16h51.39.804,lexical_decision_task_DD_L6,2021.2.3,MacIntel,59.97361161,,,,,,,,,,,,1.0024,1,,,,,,,,,,,,,,,,,,,,,,,,0.31900629,0.05175317,0,0,0,,,,,,,GREASE,LB,z,y,./images/GREASELB.png,,,,,,,z,1,1.0024,,,,,,,,0,156,156,99,1
,,,,,,,,,,,,,,,,,200581,19,2022-01-28_16h51.39.804,lexical_decision_task_DD_L6,2021.2.3,MacIntel,59.97361161,,,,,,,,,,,,0.7208,0,,,,,,,,,,,,,,,,,,,,,,,,0.31900629,0.05175317,0,0,0,,,,,,,ARTIST,C,m,y,./images/ARTIST.png,,,,,,,z,0,0.7208,,,,,,,,0,157,157,61,1
,,,,,,,,,,,,,,,,,200581,19,2022-01-28_16h51.39.804,lexical_decision_task_DD_L6,2021.2.3,MacIntel,59.97361161,,,,,,,,,,,,0.7556,1,,,,,,,,,,,,,,,,,,,,,,,,0.31900629,0.05175317,0,0,0,,,,,,,JUNGLE,HB,z,y,./images/JUNGLEHB.png,,,,,,,z,1,0.7556,,,,,,,,0,158,158,167,1
,,,,,,,,,,,,,,,,,200581,19,2022-01-28_16h51.39.804,lexical_decision_task_DD_L6,2021.2.3,MacIntel,59.97361161,,,,,,,,,,,,0.8328,1,,,,,,,,,,,,,,,,,,,,,,,,0.31900629,0.05175317,0,0,0,,,,,,,POODLE,LB,z,y,./images/POODLELB.png,,,,,,,z,1,0.8328,,,,,,,,0,159,159,165,1
,,,,,,,,,,,,,,,,,200581,19,2022-01-28_16h51.39.804,lexical_decision_task_DD_L6,2021.2.3,MacIntel,59.97361161,,,,,,,,,,,,0.7695,1,,,,,,,,,,,,,,,,,,,,,,,,0.31900629,0.05175317,0,0,0,,,,,,,ENGINE,HB,m,y,./images/ENGINEHB.png,,,,,,,m,1,0.7695,,,,,,,,0,160,160,38,1
,,,,,,,,,,,,,,,,,200581,19,2022-01-28_16h51.39.804,lexical_decision_task_DD_L6,2021.2.3,MacIntel,59.97361161,,,,,,,,,,,,0.6136,0,,,,,,,,,,,,,,,,,,,,,,,,0.31900629,0.05175317,0,0,0,,,,,,,BUTTER,LB,m,y,./images/BUTTERLB.png,,,,,,,z,0,0.6136,,,,,,,,0,161,161,27,1
,,,,,,,,,,,,,,,,,200581,19,2022-01-28_16h51.39.804,lexical_decision_task_DD_L6,2021.2.3,MacIntel,59.97361161,,,,,,,,,,,,0.649,0,,,,,,,,,,,,,,,,,,,,,,,,0.31900629,0.05175317,0,0,0,,,,,,,GARDEN,C,m,y,./images/GARDEN.png,,,,,,,z,0,0.649,,,,,,,,0,162,162,10,1
,,,,,,,,,,,,,,,,,200581,19,2022-01-28_16h51.39.804,lexical_decision_task_DD_L6,2021.2.3,MacIntel,59.97361161,,,,,,,,,,,,0.7284,1,,,,,,,,,,,,,,,,,,,,,,,,0.31900629,0.05175317,0,0,0,,,,,,,WALRUS,HB,z,y,./images/WALRUSHB.png,,,,,,,z,1,0.7284,,,,,,,,0,163,163,107,1
,,,,,,,,,,,,,,,,,200581,19,2022-01-28_16h51.39.804,lexical_decision_task_DD_L6,2021.2.3,MacIntel,59.97361161,,,,,,,,,,,,0.7524,1,,,,,,,,,,,,,,,,,,,,,,,,0.31900629,0.05175317,0,0,0,,,,,,,TULIP,HB,z,y,./images/TULIPHB.png,,,,,,,z,1,0.7524,,,,,,,,0,164,164,92,1
,,,,,,,,,,,,,,,,,200581,19,2022-01-28_16h51.39.804,lexical_decision_task_DD_L6,2021.2.3,MacIntel,59.97361161,,,,,,,,,,,,0.7015,0,,,,,,,,,,,,,,,,,,,,,,,,0.31900629,0.05175317,0,0,0,,,,,,,CANOE,C,m,y,./images/CANOE.png,,,,,,,z,0,0.7015,,,,,,,,0,165,165,58,1
,,,,,,,,,,,,,,,,,200581,19,2022-01-28_16h51.39.804,lexical_decision_task_DD_L6,2021.2.3,MacIntel,59.97361161,,,,,,,,,,,,0.7789,0,,,,,,,,,,,,,,,,,,,,,,,,0.31900629,0.05175317,0,0,0,,,,,,,SHIELD,LB,m,y,./images/SHIELDLB.png,,,,,,,z,0,0.7789,,,,,,,,0,166,166,48,1
,,,,,,,,,,,,,,,,,200581,19,2022-01-28_16h51.39.804,lexical_decision_task_DD_L6,2021.2.3,MacIntel,59.97361161,,,,,,,,,,,,0.818,1,,,,,,,,,,,,,,,,,,,,,,,,0.31900629,0.05175317,0,0,0,,,,,,,FOLDER,LB,z,y,./images/FOLDERLB.png,,,,,,,z,1,0.818,,,,,,,,0,167,167,126,1
