key_resp.keys,instr_done_touch.x,instr_done_touch.y,instr_done_touch.leftButton,instr_done_touch.midButton,instr_done_touch.rightButton,instr_done_touch.clicked_name,instruction_pages.thisRepN,instruction_pages.thisTrialN,instruction_pages.thisN,instruction_pages.thisIndex,instruction_pages.ran,pageN,phase,instruct_text,has_image,instruct_image,participant,age,date,expName,psychopyVersion,OS,frameRate,key_resp.rt,response.keys,response.corr,response.rt,touch_resp.x,touch_resp.y,touch_resp.leftButton,touch_resp.midButton,touch_resp.rightButton,touch_resp.time,touch_resp.clicked_name,rt,corr,practrials.thisRepN,practrials.thisTrialN,practrials.thisN,practrials.thisIndex,practrials.ran,TrialID,Target,corrAns,end_of_practice_trials_pages.thisRepN,end_of_practice_trials_pages.thisTrialN,end_of_practice_trials_pages.thisN,end_of_practice_trials_pages.thisIndex,end_of_practice_trials_pages.ran,key_resp_2.keys,key_resp_2.corr,key_resp_2.rt,targ_click.x,targ_click.y,targ_click.leftButton,targ_click.midButton,targ_click.rightButton,targ_click.time,targ_click.clicked_name,break_done_touch.x,break_done_touch.y,break_done_touch.leftButton,break_done_touch.midButton,break_done_touch.rightButton,break_done_keyboard.keys,maintrials.thisRepN,maintrials.thisTrialN,maintrials.thisN,maintrials.thisIndex,maintrials.ran,string,blur,study,lex,stim_path,break_done_keyboard.rt,test_instructions.thisRepN,test_instructions.thisTrialN,test_instructions.thisN,test_instructions.thisIndex,test_instructions.ran,key_resp_3.keys,key_resp_3.corr,key_resp_3.rt,test_click.x,test_click.y,test_click.leftButton,test_click.midButton,test_click.rightButton,test_click.time,test_click.clicked_name,test_phase.thisRepN,test_phase.thisTrialN,test_phase.thisN,test_phase.thisIndex,test_phase.ran
,0.085466155,-0.396815313,1,0,0,instr_done_button,0,0,0,0,1,1,instructions,"INSTRUCTIONS
At the start of each trial, look at the plus sign  (+) in the center of the screen.  This tells you that a trial is about to begin and where to look. Second, the plus sign will disappear and a string of letters will appear. Your task is to determine if the string of letters is a word or not. If the item is a word press the M key (on keyboard)  or touch the word button (phone/tablet).  If the item is not a word,  press the  Z key (on keyboard)  or touch the nonword button (on phone/tablet). 
Press the space bar or touch  continue.",0,,200584,19,2022-01-28_15h02.57.206,lexical_decision_task_DD_L2,2021.2.3,Win32,60.93473889,,,,,,,,,,,,,,,,,,,,,,,,,,,,,,,,,,,,,,,,,,,,,,,,,,,,,,,,,,,,,,,,,,,,,,,,,
space,0.094730776,-0.138332387,0,0,0,,0,1,1,1,1,2,instructions,"If your device has a keyboard, press the 'Z' key for nonwords and the 'M' key for words.





Press the space bar or touch the button below to continue.",0,keyboard-example.gif,200584,19,2022-01-28_15h02.57.206,lexical_decision_task_DD_L2,2021.2.3,Win32,60.93473889,24.6498,,,,,,,,,,,,,,,,,,,,,,,,,,,,,,,,,,,,,,,,,,,,,,,,,,,,,,,,,,,,,,,,,,,,,,,,
space,0.094730776,-0.138332387,0,0,0,,0,2,2,2,1,3,instructions,"If you are using a touchscreen only device, use the buttons on the screen. Do not use the mouse.





Press the space bar or touch the button below to continue.",0,touchscreen-example.gif,200584,19,2022-01-28_15h02.57.206,lexical_decision_task_DD_L2,2021.2.3,Win32,60.93473889,8.5562,,,,,,,,,,,,,,,,,,,,,,,,,,,,,,,,,,,,,,,,,,,,,,,,,,,,,,,,,,,,,,,,,,,,,,,,
space,0.094730776,-0.138332387,0,0,0,,0,3,3,3,1,4,instructions,"It is very important that you respond as quickly and accurately as possible, as each letter string will only be on the screen for two seconds. If you do not respond within this time, the message 'Too slow!' will be displayed and the experiment will progress to the next letter string. The first 20 trials will be practice trials and you will receive feedback on your answers. 

Press the space bar or touch the button below to start the practice trials.",0,,200584,19,2022-01-28_15h02.57.206,lexical_decision_task_DD_L2,2021.2.3,Win32,60.93473889,16.5087,,,,,,,,,,,,,,,,,,,,,,,,,,,,,,,,,,,,,,,,,,,,,,,,,,,,,,,,,,,,,,,,,,,,,,,,
,,,,,,,,,,,,,,,,,200584,19,2022-01-28_15h02.57.206,lexical_decision_task_DD_L2,2021.2.3,Win32,60.93473889,,z,0,10.1649,0.053040038,0.000636928,1,0,0,8.2639,,10.1649,0,0,0,0,7,1,1001,VOLUME,m,,,,,,,,,,,,,,,,,,,,,,,,,,,,,,,,,,,,,,,,,,,,,,,,,,,,
,,,,,,,,,,,,,,,,,200584,19,2022-01-28_15h02.57.206,lexical_decision_task_DD_L2,2021.2.3,Win32,60.93473889,,z,1,2.647,,,,,,,,2.647,1,0,1,1,10,1,1001,INLADE,z,,,,,,,,,,,,,,,,,,,,,,,,,,,,,,,,,,,,,,,,,,,,,,,,,,,,
,,,,,,,,,,,,,,,,,200584,19,2022-01-28_15h02.57.206,lexical_decision_task_DD_L2,2021.2.3,Win32,60.93473889,,z,1,1.1432,,,,,,,,1.1432,1,0,2,2,15,1,1001,WHAISE,z,,,,,,,,,,,,,,,,,,,,,,,,,,,,,,,,,,,,,,,,,,,,,,,,,,,,
,,,,,,,,,,,,,,,,,200584,19,2022-01-28_15h02.57.206,lexical_decision_task_DD_L2,2021.2.3,Win32,60.93473889,,z,1,1.1815,,,,,,,,1.1815,1,0,3,3,9,1,1001,FARINY,z,,,,,,,,,,,,,,,,,,,,,,,,,,,,,,,,,,,,,,,,,,,,,,,,,,,,
,,,,,,,,,,,,,,,,,200584,19,2022-01-28_15h02.57.206,lexical_decision_task_DD_L2,2021.2.3,Win32,60.93473889,,m,1,1.0836,,,,,,,,1.0836,1,0,4,4,3,1,1001,MATRIX,m,,,,,,,,,,,,,,,,,,,,,,,,,,,,,,,,,,,,,,,,,,,,,,,,,,,,
,,,,,,,,,,,,,,,,,200584,19,2022-01-28_15h02.57.206,lexical_decision_task_DD_L2,2021.2.3,Win32,60.93473889,,z,1,1.0337,,,,,,,,1.0337,1,0,5,5,11,1,1001,RASHET,z,,,,,,,,,,,,,,,,,,,,,,,,,,,,,,,,,,,,,,,,,,,,,,,,,,,,
,,,,,,,,,,,,,,,,,200584,19,2022-01-28_15h02.57.206,lexical_decision_task_DD_L2,2021.2.3,Win32,60.93473889,,m,1,0.6181,,,,,,,,0.6181,1,0,6,6,6,1,1001,ZOMBIE,m,,,,,,,,,,,,,,,,,,,,,,,,,,,,,,,,,,,,,,,,,,,,,,,,,,,,
,,,,,,,,,,,,,,,,,200584,19,2022-01-28_15h02.57.206,lexical_decision_task_DD_L2,2021.2.3,Win32,60.93473889,,m,1,0.7505,,,,,,,,0.7505,1,0,7,7,5,1,1001,OBTAIN,m,,,,,,,,,,,,,,,,,,,,,,,,,,,,,,,,,,,,,,,,,,,,,,,,,,,,
,,,,,,,,,,,,,,,,,200584,19,2022-01-28_15h02.57.206,lexical_decision_task_DD_L2,2021.2.3,Win32,60.93473889,,m,1,0.6343,,,,,,,,0.6343,1,0,8,8,2,1,1001,ALMOND,m,,,,,,,,,,,,,,,,,,,,,,,,,,,,,,,,,,,,,,,,,,,,,,,,,,,,
,,,,,,,,,,,,,,,,,200584,19,2022-01-28_15h02.57.206,lexical_decision_task_DD_L2,2021.2.3,Win32,60.93473889,,z,1,0.7007,,,,,,,,0.7007,1,0,9,9,12,1,1001,SPRINY,z,,,,,,,,,,,,,,,,,,,,,,,,,,,,,,,,,,,,,,,,,,,,,,,,,,,,
,,,,,,,,,,,,,,,,,200584,19,2022-01-28_15h02.57.206,lexical_decision_task_DD_L2,2021.2.3,Win32,60.93473889,,m,1,0.5505,,,,,,,,0.5505,1,0,10,10,4,1,1001,SQUEAK,m,,,,,,,,,,,,,,,,,,,,,,,,,,,,,,,,,,,,,,,,,,,,,,,,,,,,
,,,,,,,,,,,,,,,,,200584,19,2022-01-28_15h02.57.206,lexical_decision_task_DD_L2,2021.2.3,Win32,60.93473889,,z,1,0.6504,,,,,,,,0.6504,1,0,11,11,8,1,1001,ASLERT,z,,,,,,,,,,,,,,,,,,,,,,,,,,,,,,,,,,,,,,,,,,,,,,,,,,,,
,,,,,,,,,,,,,,,,,200584,19,2022-01-28_15h02.57.206,lexical_decision_task_DD_L2,2021.2.3,Win32,60.93473889,,z,1,0.6339,,,,,,,,0.6339,1,0,12,12,14,1,1001,THRALE,z,,,,,,,,,,,,,,,,,,,,,,,,,,,,,,,,,,,,,,,,,,,,,,,,,,,,
,,,,,,,,,,,,,,,,,200584,19,2022-01-28_15h02.57.206,lexical_decision_task_DD_L2,2021.2.3,Win32,60.93473889,,z,1,0.8997,,,,,,,,0.8997,1,0,13,13,13,1,1001,ROUPET,z,,,,,,,,,,,,,,,,,,,,,,,,,,,,,,,,,,,,,,,,,,,,,,,,,,,,
,,,,,,,,,,,,,,,,,200584,19,2022-01-28_15h02.57.206,lexical_decision_task_DD_L2,2021.2.3,Win32,60.93473889,,m,1,0.6678,,,,,,,,0.6678,1,0,14,14,0,1,1001,UTOPIA,m,,,,,,,,,,,,,,,,,,,,,,,,,,,,,,,,,,,,,,,,,,,,,,,,,,,,
,,,,,,,,,,,,,,,,,200584,19,2022-01-28_15h02.57.206,lexical_decision_task_DD_L2,2021.2.3,Win32,60.93473889,,m,1,0.5343,,,,,,,,0.5343,1,0,15,15,1,1,1001,ADJUST,m,,,,,,,,,,,,,,,,,,,,,,,,,,,,,,,,,,,,,,,,,,,,,,,,,,,,
space,0.88870891,-0.292125096,0,0,0,,,,,,,1,end_of_practice,"You have completed the practice trials. During the experimental trials, you will not receive feedback. 
Before you begin, please ensure that you are in a comfortable and quiet location and will not be disturbed for about 15 minutes, as we cannot use your data if you do not complete all the trials. 
 When you are ready to start the experimental trials, please press space or touch the button below.",,,200584,19,2022-01-28_15h02.57.206,lexical_decision_task_DD_L2,2021.2.3,Win32,60.93473889,15.967,,,,,,,,,,,,,,,,,,,,,0,0,0,0,1,,,,,,,,,,,,,,,,,,,,,,,,,,,,,,,,,,,,,,,,,,,,,,,
,,,,,,,,,,,,,,,,,200584,19,2022-01-28_15h02.57.206,lexical_decision_task_DD_L2,2021.2.3,Win32,60.93473889,,,,,,,,,,,,2.5736,1,,,,,,,,,,,,,,z,1,2.5736,,,,,,,,0.88870891,-0.292125096,0,0,0,,0,0,0,85,1,CHULK,HB,old,z,./images/CHULKHB.png,,,,,,,,,,,,,,,,,,,,,
,,,,,,,,,,,,,,,,,200584,19,2022-01-28_15h02.57.206,lexical_decision_task_DD_L2,2021.2.3,Win32,60.93473889,,,,,,,,,,,,0.7253,1,,,,,,,,,,,,,,m,1,0.7253,,,,,,,,0.88870891,-0.292125096,0,0,0,,0,1,1,44,1,LIZARD,C,old,m,./images/LIZARD.png,,,,,,,,,,,,,,,,,,,,,
,,,,,,,,,,,,,,,,,200584,19,2022-01-28_15h02.57.206,lexical_decision_task_DD_L2,2021.2.3,Win32,60.93473889,,,,,,,,,,,,1.5006,1,,,,,,,,,,,,,,z,1,1.5006,,,,,,,,0.88870891,-0.292125096,0,0,0,,0,2,2,124,1,TUNCH,HB,old,z,./images/TUNCHHB.png,,,,,,,,,,,,,,,,,,,,,
,,,,,,,,,,,,,,,,,200584,19,2022-01-28_15h02.57.206,lexical_decision_task_DD_L2,2021.2.3,Win32,60.93473889,,,,,,,,,,,,0.8233,1,,,,,,,,,,,,,,z,1,0.8233,,,,,,,,0.88870891,-0.292125096,0,0,0,,0,3,3,122,1,BLOOT,LB,old,z,./images/BLOOTLB.png,,,,,,,,,,,,,,,,,,,,,
,,,,,,,,,,,,,,,,,200584,19,2022-01-28_15h02.57.206,lexical_decision_task_DD_L2,2021.2.3,Win32,60.93473889,,,,,,,,,,,,0.9259,1,,,,,,,,,,,,,,z,1,0.9259,,,,,,,,0.88870891,-0.292125096,0,0,0,,0,4,4,148,1,JOMS,HB,old,z,./images/JOMSHB.png,,,,,,,,,,,,,,,,,,,,,
,,,,,,,,,,,,,,,,,200584,19,2022-01-28_15h02.57.206,lexical_decision_task_DD_L2,2021.2.3,Win32,60.93473889,,,,,,,,,,,,0.6242,1,,,,,,,,,,,,,,m,1,0.6242,,,,,,,,0.88870891,-0.292125096,0,0,0,,0,5,5,38,1,LADDER,C,old,m,./images/LADDER.png,,,,,,,,,,,,,,,,,,,,,
,,,,,,,,,,,,,,,,,200584,19,2022-01-28_15h02.57.206,lexical_decision_task_DD_L2,2021.2.3,Win32,60.93473889,,,,,,,,,,,,0.8358,1,,,,,,,,,,,,,,m,1,0.8358,,,,,,,,0.88870891,-0.292125096,0,0,0,,0,6,6,6,1,SQUARE,HB,old,m,./images/SQUAREHB.png,,,,,,,,,,,,,,,,,,,,,
,,,,,,,,,,,,,,,,,200584,19,2022-01-28_15h02.57.206,lexical_decision_task_DD_L2,2021.2.3,Win32,60.93473889,,,,,,,,,,,,0.6233,1,,,,,,,,,,,,,,z,1,0.6233,,,,,,,,0.88870891,-0.292125096,0,0,0,,0,7,7,99,1,BACKY,C,old,z,./images/BACKY.png,,,,,,,,,,,,,,,,,,,,,
,,,,,,,,,,,,,,,,,200584,19,2022-01-28_15h02.57.206,lexical_decision_task_DD_L2,2021.2.3,Win32,60.93473889,,,,,,,,,,,,0.9663,1,,,,,,,,,,,,,,z,1,0.9663,,,,,,,,0.88870891,-0.292125096,0,0,0,,0,8,8,97,1,CHIDS,HB,old,z,./images/CHIDSHB.png,,,,,,,,,,,,,,,,,,,,,
,,,,,,,,,,,,,,,,,200584,19,2022-01-28_15h02.57.206,lexical_decision_task_DD_L2,2021.2.3,Win32,60.93473889,,,,,,,,,,,,0.9324,1,,,,,,,,,,,,,,z,1,0.9324,,,,,,,,0.88870891,-0.292125096,0,0,0,,0,9,9,133,1,POWDY,HB,old,z,./images/POWDYHB.png,,,,,,,,,,,,,,,,,,,,,
,,,,,,,,,,,,,,,,,200584,19,2022-01-28_15h02.57.206,lexical_decision_task_DD_L2,2021.2.3,Win32,60.93473889,,,,,,,,,,,,0.8662,1,,,,,,,,,,,,,,m,1,0.8662,,,,,,,,0.88870891,-0.292125096,0,0,0,,0,10,10,9,1,RHINO,HB,old,m,./images/RHINOHB.png,,,,,,,,,,,,,,,,,,,,,
,,,,,,,,,,,,,,,,,200584,19,2022-01-28_15h02.57.206,lexical_decision_task_DD_L2,2021.2.3,Win32,60.93473889,,,,,,,,,,,,0.7834,1,,,,,,,,,,,,,,z,1,0.7834,,,,,,,,0.88870891,-0.292125096,0,0,0,,0,11,11,142,1,PLASK,HB,old,z,./images/PLASKHB.png,,,,,,,,,,,,,,,,,,,,,
,,,,,,,,,,,,,,,,,200584,19,2022-01-28_15h02.57.206,lexical_decision_task_DD_L2,2021.2.3,Win32,60.93473889,,,,,,,,,,,,0.718,1,,,,,,,,,,,,,,z,1,0.718,,,,,,,,0.88870891,-0.292125096,0,0,0,,0,12,12,146,1,MOOST,LB,old,z,./images/MOOSTLB.png,,,,,,,,,,,,,,,,,,,,,
,,,,,,,,,,,,,,,,,200584,19,2022-01-28_15h02.57.206,lexical_decision_task_DD_L2,2021.2.3,Win32,60.93473889,,,,,,,,,,,,0.6663,1,,,,,,,,,,,,,,z,1,0.6663,,,,,,,,0.88870891,-0.292125096,0,0,0,,0,13,13,167,1,ZONET,LB,old,z,./images/ZONETLB.png,,,,,,,,,,,,,,,,,,,,,
,,,,,,,,,,,,,,,,,200584,19,2022-01-28_15h02.57.206,lexical_decision_task_DD_L2,2021.2.3,Win32,60.93473889,,,,,,,,,,,,0.6345,1,,,,,,,,,,,,,,m,1,0.6345,,,,,,,,0.88870891,-0.292125096,0,0,0,,0,14,14,82,1,SUNSET,LB,old,m,./images/SUNSETLB.png,,,,,,,,,,,,,,,,,,,,,
,,,,,,,,,,,,,,,,,200584,19,2022-01-28_15h02.57.206,lexical_decision_task_DD_L2,2021.2.3,Win32,60.93473889,,,,,,,,,,,,0.8017,1,,,,,,,,,,,,,,m,1,0.8017,,,,,,,,0.88870891,-0.292125096,0,0,0,,0,15,15,12,1,SHORE,HB,old,m,./images/SHOREHB.png,,,,,,,,,,,,,,,,,,,,,
,,,,,,,,,,,,,,,,,200584,19,2022-01-28_15h02.57.206,lexical_decision_task_DD_L2,2021.2.3,Win32,60.93473889,,,,,,,,,,,,0.5636,1,,,,,,,,,,,,,,z,1,0.5636,,,,,,,,0.88870891,-0.292125096,0,0,0,,0,16,16,129,1,PRANS,C,old,z,./images/PRANS.png,,,,,,,,,,,,,,,,,,,,,
,,,,,,,,,,,,,,,,,200584,19,2022-01-28_15h02.57.206,lexical_decision_task_DD_L2,2021.2.3,Win32,60.93473889,,,,,,,,,,,,1.8392,1,,,,,,,,,,,,,,z,1,1.8392,,,,,,,,0.88870891,-0.292125096,0,0,0,,0,17,17,88,1,GLUSH,HB,old,z,./images/GLUSHHB.png,,,,,,,,,,,,,,,,,,,,,
,,,,,,,,,,,,,,,,,200584,19,2022-01-28_15h02.57.206,lexical_decision_task_DD_L2,2021.2.3,Win32,60.93473889,,,,,,,,,,,,0.7351,1,,,,,,,,,,,,,,z,1,0.7351,,,,,,,,0.88870891,-0.292125096,0,0,0,,0,18,18,138,1,PLICE,C,old,z,./images/PLICE.png,,,,,,,,,,,,,,,,,,,,,
,,,,,,,,,,,,,,,,,200584,19,2022-01-28_15h02.57.206,lexical_decision_task_DD_L2,2021.2.3,Win32,60.93473889,,,,,,,,,,,,1.0435,0,,,,,,,,,,,,,,m,0,1.0435,,,,,,,,0.88870891,-0.292125096,0,0,0,,0,19,19,106,1,CLUMS,HB,old,z,./images/CLUMSHB.png,,,,,,,,,,,,,,,,,,,,,
,,,,,,,,,,,,,,,,,200584,19,2022-01-28_15h02.57.206,lexical_decision_task_DD_L2,2021.2.3,Win32,60.93473889,,,,,,,,,,,,0.9019,1,,,,,,,,,,,,,,z,1,0.9019,,,,,,,,0.88870891,-0.292125096,0,0,0,,0,20,20,103,1,FLORT,HB,old,z,./images/FLORTHB.png,,,,,,,,,,,,,,,,,,,,,
,,,,,,,,,,,,,,,,,200584,19,2022-01-28_15h02.57.206,lexical_decision_task_DD_L2,2021.2.3,Win32,60.93473889,,,,,,,,,,,,0.701,1,,,,,,,,,,,,,,z,1,0.701,,,,,,,,0.88870891,-0.292125096,0,0,0,,0,21,21,144,1,NAIRY,C,old,z,./images/NAIRY.png,,,,,,,,,,,,,,,,,,,,,
,,,,,,,,,,,,,,,,,200584,19,2022-01-28_15h02.57.206,lexical_decision_task_DD_L2,2021.2.3,Win32,60.93473889,,,,,,,,,,,,0.5988,1,,,,,,,,,,,,,,z,1,0.5988,,,,,,,,0.88870891,-0.292125096,0,0,0,,0,22,22,153,1,CLUPS,C,old,z,./images/CLUPS.png,,,,,,,,,,,,,,,,,,,,,
,,,,,,,,,,,,,,,,,200584,19,2022-01-28_15h02.57.206,lexical_decision_task_DD_L2,2021.2.3,Win32,60.93473889,,,,,,,,,,,,0.6186,1,,,,,,,,,,,,,,m,1,0.6186,,,,,,,,0.88870891,-0.292125096,0,0,0,,0,23,23,42,1,FOLDER,HB,old,m,./images/FOLDERHB.png,,,,,,,,,,,,,,,,,,,,,
,,,,,,,,,,,,,,,,,200584,19,2022-01-28_15h02.57.206,lexical_decision_task_DD_L2,2021.2.3,Win32,60.93473889,,,,,,,,,,,,0.6694,1,,,,,,,,,,,,,,z,1,0.6694,,,,,,,,0.88870891,-0.292125096,0,0,0,,0,24,24,90,1,NEAST,C,old,z,./images/NEAST.png,,,,,,,,,,,,,,,,,,,,,
,,,,,,,,,,,,,,,,,200584,19,2022-01-28_15h02.57.206,lexical_decision_task_DD_L2,2021.2.3,Win32,60.93473889,,,,,,,,,,,,0.6332,1,,,,,,,,,,,,,,m,1,0.6332,,,,,,,,0.88870891,-0.292125096,0,0,0,,0,25,25,56,1,PACKET,C,old,m,./images/PACKET.png,,,,,,,,,,,,,,,,,,,,,
,,,,,,,,,,,,,,,,,200584,19,2022-01-28_15h02.57.206,lexical_decision_task_DD_L2,2021.2.3,Win32,60.93473889,,,,,,,,,,,,0.5687,1,,,,,,,,,,,,,,z,1,0.5687,,,,,,,,0.88870891,-0.292125096,0,0,0,,0,26,26,98,1,BAMPS,LB,old,z,./images/BAMPSLB.png,,,,,,,,,,,,,,,,,,,,,
,,,,,,,,,,,,,,,,,200584,19,2022-01-28_15h02.57.206,lexical_decision_task_DD_L2,2021.2.3,Win32,60.93473889,,,,,,,,,,,,0.6088,1,,,,,,,,,,,,,,z,1,0.6088,,,,,,,,0.88870891,-0.292125096,0,0,0,,0,27,27,116,1,BALGY,LB,old,z,./images/BALGYLB.png,,,,,,,,,,,,,,,,,,,,,
,,,,,,,,,,,,,,,,,200584,19,2022-01-28_15h02.57.206,lexical_decision_task_DD_L2,2021.2.3,Win32,60.93473889,,,,,,,,,,,,0.6102,1,,,,,,,,,,,,,,m,1,0.6102,,,,,,,,0.88870891,-0.292125096,0,0,0,,0,28,28,3,1,FINGER,HB,old,m,./images/FINGERHB.png,,,,,,,,,,,,,,,,,,,,,
,,,,,,,,,,,,,,,,,200584,19,2022-01-28_15h02.57.206,lexical_decision_task_DD_L2,2021.2.3,Win32,60.93473889,,,,,,,,,,,,0.5686,1,,,,,,,,,,,,,,m,1,0.5686,,,,,,,,0.88870891,-0.292125096,0,0,0,,0,29,29,39,1,SHELF,HB,old,m,./images/SHELFHB.png,,,,,,,,,,,,,,,,,,,,,
,,,,,,,,,,,,,,,,,200584,19,2022-01-28_15h02.57.206,lexical_decision_task_DD_L2,2021.2.3,Win32,60.93473889,,,,,,,,,,,,0.7681,1,,,,,,,,,,,,,,z,1,0.7681,,,,,,,,0.88870891,-0.292125096,0,0,0,,0,30,30,104,1,GITTY,LB,old,z,./images/GITTYLB.png,,,,,,,,,,,,,,,,,,,,,
,,,,,,,,,,,,,,,,,200584,19,2022-01-28_15h02.57.206,lexical_decision_task_DD_L2,2021.2.3,Win32,60.93473889,,,,,,,,,,,,0.6712,1,,,,,,,,,,,,,,z,1,0.6712,,,,,,,,0.88870891,-0.292125096,0,0,0,,0,31,31,165,1,TROWN,C,old,z,./images/TROWN.png,,,,,,,,,,,,,,,,,,,,,
,,,,,,,,,,,,,,,,,200584,19,2022-01-28_15h02.57.206,lexical_decision_task_DD_L2,2021.2.3,Win32,60.93473889,,,,,,,,,,,,0.8065,1,,,,,,,,,,,,,,z,1,0.8065,,,,,,,,0.88870891,-0.292125096,0,0,0,,0,32,32,137,1,JOOST,LB,old,z,./images/JOOSTLB.png,,,,,,,,,,,,,,,,,,,,,
,,,,,,,,,,,,,,,,,200584,19,2022-01-28_15h02.57.206,lexical_decision_task_DD_L2,2021.2.3,Win32,60.93473889,,,,,,,,,,,,1.0496,1,,,,,,,,,,,,,,z,1,1.0496,,,,,,,,0.88870891,-0.292125096,0,0,0,,0,33,33,91,1,SHENS,HB,old,z,./images/SHENSHB.png,,,,,,,,,,,,,,,,,,,,,
,,,,,,,,,,,,,,,,,200584,19,2022-01-28_15h02.57.206,lexical_decision_task_DD_L2,2021.2.3,Win32,60.93473889,,,,,,,,,,,,0.5979,1,,,,,,,,,,,,,,z,1,0.5979,,,,,,,,0.88870891,-0.292125096,0,0,0,,0,34,34,162,1,LEICH,C,old,z,./images/LEICH.png,,,,,,,,,,,,,,,,,,,,,
,,,,,,,,,,,,,,,,,200584,19,2022-01-28_15h02.57.206,lexical_decision_task_DD_L2,2021.2.3,Win32,60.93473889,,,,,,,,,,,,0.6017,1,,,,,,,,,,,,,,z,1,0.6017,,,,,,,,0.88870891,-0.292125096,0,0,0,,0,35,35,126,1,GUELS,C,old,z,./images/GUELS.png,,,,,,,,,,,,,,,,,,,,,
,,,,,,,,,,,,,,,,,200584,19,2022-01-28_15h02.57.206,lexical_decision_task_DD_L2,2021.2.3,Win32,60.93473889,,,,,,,,,,,,0.7341,1,,,,,,,,,,,,,,z,1,0.7341,,,,,,,,0.88870891,-0.292125096,0,0,0,,0,36,36,145,1,LAMEL,HB,old,z,./images/LAMELHB.png,,,,,,,,,,,,,,,,,,,,,
,,,,,,,,,,,,,,,,,200584,19,2022-01-28_15h02.57.206,lexical_decision_task_DD_L2,2021.2.3,Win32,60.93473889,,,,,,,,,,,,0.7067,1,,,,,,,,,,,,,,z,1,0.7067,,,,,,,,0.88870891,-0.292125096,0,0,0,,0,37,37,105,1,MOKER,C,old,z,./images/MOKER.png,,,,,,,,,,,,,,,,,,,,,
,,,,,,,,,,,,,,,,,200584,19,2022-01-28_15h02.57.206,lexical_decision_task_DD_L2,2021.2.3,Win32,60.93473889,,,,,,,,,,,,0.5662,1,,,,,,,,,,,,,,z,1,0.5662,,,,,,,,0.88870891,-0.292125096,0,0,0,,0,38,38,100,1,DRIBS,HB,old,z,./images/DRIBSHB.png,,,,,,,,,,,,,,,,,,,,,
,,,,,,,,,,,,,,,,,200584,19,2022-01-28_15h02.57.206,lexical_decision_task_DD_L2,2021.2.3,Win32,60.93473889,,,,,,,,,,,,0.4624,1,,,,,,,,,,,,,,m,1,0.4624,,,,,,,,0.88870891,-0.292125096,0,0,0,,0,39,39,14,1,PICKLE,C,old,m,./images/PICKLE.png,,,,,,,,,,,,,,,,,,,,,
,,,,,,,,,,,,,,,,,200584,19,2022-01-28_15h02.57.206,lexical_decision_task_DD_L2,2021.2.3,Win32,60.93473889,,,,,,,,,,,,0.4587,1,,,,,,,,,,,,,,m,1,0.4587,,,,,,,,0.88870891,-0.292125096,0,0,0,,0,40,40,5,1,PASTA,C,old,m,./images/PASTA.png,,,,,,,,,,,,,,,,,,,,,
,,,,,,,,,,,,,,,,,200584,19,2022-01-28_15h02.57.206,lexical_decision_task_DD_L2,2021.2.3,Win32,60.93473889,,,,,,,,,,,,0.65,1,,,,,,,,,,,,,,z,1,0.65,,,,,,,,0.88870891,-0.292125096,0,0,0,space,0,41,41,141,1,PLEET,C,old,z,./images/PLEET.png,11.7574,,,,,,,,,,,,,,,,,,,,
,,,,,,,,,,,,,,,,,200584,19,2022-01-28_15h02.57.206,lexical_decision_task_DD_L2,2021.2.3,Win32,60.93473889,,,,,,,,,,,,0.5861,1,,,,,,,,,,,,,,m,1,0.5861,,,,,,,,0.88870891,-0.292125096,0,0,0,,0,42,42,29,1,CRUMB,C,old,m,./images/CRUMB.png,,,,,,,,,,,,,,,,,,,,,
,,,,,,,,,,,,,,,,,200584,19,2022-01-28_15h02.57.206,lexical_decision_task_DD_L2,2021.2.3,Win32,60.93473889,,,,,,,,,,,,0.5686,1,,,,,,,,,,,,,,m,1,0.5686,,,,,,,,0.88870891,-0.292125096,0,0,0,,0,43,43,40,1,SWING,LB,old,m,./images/SWINGLB.png,,,,,,,,,,,,,,,,,,,,,
,,,,,,,,,,,,,,,,,200584,19,2022-01-28_15h02.57.206,lexical_decision_task_DD_L2,2021.2.3,Win32,60.93473889,,,,,,,,,,,,0.7918,1,,,,,,,,,,,,,,z,1,0.7918,,,,,,,,0.88870891,-0.292125096,0,0,0,,0,44,44,156,1,HIXES,C,old,z,./images/HIXES.png,,,,,,,,,,,,,,,,,,,,,
,,,,,,,,,,,,,,,,,200584,19,2022-01-28_15h02.57.206,lexical_decision_task_DD_L2,2021.2.3,Win32,60.93473889,,,,,,,,,,,,0.6089,1,,,,,,,,,,,,,,m,1,0.6089,,,,,,,,0.88870891,-0.292125096,0,0,0,,0,45,45,66,1,SWEAT,HB,old,m,./images/SWEATHB.png,,,,,,,,,,,,,,,,,,,,,
,,,,,,,,,,,,,,,,,200584,19,2022-01-28_15h02.57.206,lexical_decision_task_DD_L2,2021.2.3,Win32,60.93473889,,,,,,,,,,,,0.6507,1,,,,,,,,,,,,,,z,1,0.6507,,,,,,,,0.88870891,-0.292125096,0,0,0,,0,46,46,143,1,MONGS,LB,old,z,./images/MONGSLB.png,,,,,,,,,,,,,,,,,,,,,
,,,,,,,,,,,,,,,,,200584,19,2022-01-28_15h02.57.206,lexical_decision_task_DD_L2,2021.2.3,Win32,60.93473889,,,,,,,,,,,,0.6543,1,,,,,,,,,,,,,,z,1,0.6543,,,,,,,,0.88870891,-0.292125096,0,0,0,,0,47,47,157,1,INLER,HB,old,z,./images/INLERHB.png,,,,,,,,,,,,,,,,,,,,,
,,,,,,,,,,,,,,,,,200584,19,2022-01-28_15h02.57.206,lexical_decision_task_DD_L2,2021.2.3,Win32,60.93473889,,,,,,,,,,,,0.6932,1,,,,,,,,,,,,,,m,1,0.6932,,,,,,,,0.88870891,-0.292125096,0,0,0,,0,48,48,28,1,FALCON,LB,old,m,./images/FALCONLB.png,,,,,,,,,,,,,,,,,,,,,
,,,,,,,,,,,,,,,,,200584,19,2022-01-28_15h02.57.206,lexical_decision_task_DD_L2,2021.2.3,Win32,60.93473889,,,,,,,,,,,,0.6229,1,,,,,,,,,,,,,,z,1,0.6229,,,,,,,,0.88870891,-0.292125096,0,0,0,,0,49,49,94,1,BLANS,HB,old,z,./images/BLANSHB.png,,,,,,,,,,,,,,,,,,,,,
,,,,,,,,,,,,,,,,,200584,19,2022-01-28_15h02.57.206,lexical_decision_task_DD_L2,2021.2.3,Win32,60.93473889,,,,,,,,,,,,0.5242,1,,,,,,,,,,,,,,z,1,0.5242,,,,,,,,0.88870891,-0.292125096,0,0,0,,0,50,50,159,1,CUDDY,C,old,z,./images/CUDDY.png,,,,,,,,,,,,,,,,,,,,,
,,,,,,,,,,,,,,,,,200584,19,2022-01-28_15h02.57.206,lexical_decision_task_DD_L2,2021.2.3,Win32,60.93473889,,,,,,,,,,,,0.7135,1,,,,,,,,,,,,,,m,1,0.7135,,,,,,,,0.88870891,-0.292125096,0,0,0,,0,51,51,20,1,CRADLE,C,old,m,./images/CRADLE.png,,,,,,,,,,,,,,,,,,,,,
,,,,,,,,,,,,,,,,,200584,19,2022-01-28_15h02.57.206,lexical_decision_task_DD_L2,2021.2.3,Win32,60.93473889,,,,,,,,,,,,0.6095,1,,,,,,,,,,,,,,z,1,0.6095,,,,,,,,0.88870891,-0.292125096,0,0,0,,0,52,52,115,1,MAWNS,HB,old,z,./images/MAWNSHB.png,,,,,,,,,,,,,,,,,,,,,
,,,,,,,,,,,,,,,,,200584,19,2022-01-28_15h02.57.206,lexical_decision_task_DD_L2,2021.2.3,Win32,60.93473889,,,,,,,,,,,,0.4812,1,,,,,,,,,,,,,,m,1,0.4812,,,,,,,,0.88870891,-0.292125096,0,0,0,,0,53,53,2,1,BEARD,C,old,m,./images/BEARD.png,,,,,,,,,,,,,,,,,,,,,
,,,,,,,,,,,,,,,,,200584,19,2022-01-28_15h02.57.206,lexical_decision_task_DD_L2,2021.2.3,Win32,60.93473889,,,,,,,,,,,,0.6796,1,,,,,,,,,,,,,,z,1,0.6796,,,,,,,,0.88870891,-0.292125096,0,0,0,,0,54,54,140,1,DOVET,LB,old,z,./images/DOVETLB.png,,,,,,,,,,,,,,,,,,,,,
,,,,,,,,,,,,,,,,,200584,19,2022-01-28_15h02.57.206,lexical_decision_task_DD_L2,2021.2.3,Win32,60.93473889,,,,,,,,,,,,0.7516,1,,,,,,,,,,,,,,z,1,0.7516,,,,,,,,0.88870891,-0.292125096,0,0,0,,0,55,55,95,1,HANTY,LB,old,z,./images/HANTYLB.png,,,,,,,,,,,,,,,,,,,,,
,,,,,,,,,,,,,,,,,200584,19,2022-01-28_15h02.57.206,lexical_decision_task_DD_L2,2021.2.3,Win32,60.93473889,,,,,,,,,,,,0.8673,1,,,,,,,,,,,,,,z,1,0.8673,,,,,,,,0.88870891,-0.292125096,0,0,0,,0,56,56,151,1,TINKY,HB,old,z,./images/TINKYHB.png,,,,,,,,,,,,,,,,,,,,,
,,,,,,,,,,,,,,,,,200584,19,2022-01-28_15h02.57.206,lexical_decision_task_DD_L2,2021.2.3,Win32,60.93473889,,,,,,,,,,,,0.6655,1,,,,,,,,,,,,,,m,1,0.6655,,,,,,,,0.88870891,-0.292125096,0,0,0,,0,57,57,48,1,SPORT,HB,old,m,./images/SPORTHB.png,,,,,,,,,,,,,,,,,,,,,
,,,,,,,,,,,,,,,,,200584,19,2022-01-28_15h02.57.206,lexical_decision_task_DD_L2,2021.2.3,Win32,60.93473889,,,,,,,,,,,,0.4763,1,,,,,,,,,,,,,,m,1,0.4763,,,,,,,,0.88870891,-0.292125096,0,0,0,,0,58,58,73,1,SNACK,LB,old,m,./images/SNACKLB.png,,,,,,,,,,,,,,,,,,,,,
,,,,,,,,,,,,,,,,,200584,19,2022-01-28_15h02.57.206,lexical_decision_task_DD_L2,2021.2.3,Win32,60.93473889,,,,,,,,,,,,0.4938,1,,,,,,,,,,,,,,m,1,0.4938,,,,,,,,0.88870891,-0.292125096,0,0,0,,0,59,59,35,1,PEACH,C,old,m,./images/PEACH.png,,,,,,,,,,,,,,,,,,,,,
,,,,,,,,,,,,,,,,,200584,19,2022-01-28_15h02.57.206,lexical_decision_task_DD_L2,2021.2.3,Win32,60.93473889,,,,,,,,,,,,0.4221,1,,,,,,,,,,,,,,m,1,0.4221,,,,,,,,0.88870891,-0.292125096,0,0,0,,0,60,60,41,1,STRING,C,old,m,./images/STRING.png,,,,,,,,,,,,,,,,,,,,,
,,,,,,,,,,,,,,,,,200584,19,2022-01-28_15h02.57.206,lexical_decision_task_DD_L2,2021.2.3,Win32,60.93473889,,,,,,,,,,,,0.5982,1,,,,,,,,,,,,,,m,1,0.5982,,,,,,,,0.88870891,-0.292125096,0,0,0,,0,61,61,53,1,CARPET,C,old,m,./images/CARPET.png,,,,,,,,,,,,,,,,,,,,,
,,,,,,,,,,,,,,,,,200584,19,2022-01-28_15h02.57.206,lexical_decision_task_DD_L2,2021.2.3,Win32,60.93473889,,,,,,,,,,,,0.553,1,,,,,,,,,,,,,,m,1,0.553,,,,,,,,0.88870891,-0.292125096,0,0,0,,0,62,62,23,1,WALRUS,C,old,m,./images/WALRUS.png,,,,,,,,,,,,,,,,,,,,,
,,,,,,,,,,,,,,,,,200584,19,2022-01-28_15h02.57.206,lexical_decision_task_DD_L2,2021.2.3,Win32,60.93473889,,,,,,,,,,,,0.604,0,,,,,,,,,,,,,,z,0,0.604,,,,,,,,0.88870891,-0.292125096,0,0,0,,0,63,63,13,1,MOTOR,LB,old,m,./images/MOTORLB.png,,,,,,,,,,,,,,,,,,,,,
,,,,,,,,,,,,,,,,,200584,19,2022-01-28_15h02.57.206,lexical_decision_task_DD_L2,2021.2.3,Win32,60.93473889,,,,,,,,,,,,0.708,1,,,,,,,,,,,,,,m,1,0.708,,,,,,,,0.88870891,-0.292125096,0,0,0,,0,64,64,52,1,BANNER,LB,old,m,./images/BANNERLB.png,,,,,,,,,,,,,,,,,,,,,
,,,,,,,,,,,,,,,,,200584,19,2022-01-28_15h02.57.206,lexical_decision_task_DD_L2,2021.2.3,Win32,60.93473889,,,,,,,,,,,,0.8108,1,,,,,,,,,,,,,,z,1,0.8108,,,,,,,,0.88870891,-0.292125096,0,0,0,,0,65,65,114,1,RIKES,C,old,z,./images/RIKES.png,,,,,,,,,,,,,,,,,,,,,
,,,,,,,,,,,,,,,,,200584,19,2022-01-28_15h02.57.206,lexical_decision_task_DD_L2,2021.2.3,Win32,60.93473889,,,,,,,,,,,,0.6549,1,,,,,,,,,,,,,,m,1,0.6549,,,,,,,,0.88870891,-0.292125096,0,0,0,,0,66,66,83,1,JUNGLE,C,old,m,./images/JUNGLE.png,,,,,,,,,,,,,,,,,,,,,
,,,,,,,,,,,,,,,,,200584,19,2022-01-28_15h02.57.206,lexical_decision_task_DD_L2,2021.2.3,Win32,60.93473889,,,,,,,,,,,,0.8362,1,,,,,,,,,,,,,,m,1,0.8362,,,,,,,,0.88870891,-0.292125096,0,0,0,,0,67,67,18,1,JAGUAR,HB,old,m,./images/JAGUARHB.png,,,,,,,,,,,,,,,,,,,,,
,,,,,,,,,,,,,,,,,200584,19,2022-01-28_15h02.57.206,lexical_decision_task_DD_L2,2021.2.3,Win32,60.93473889,,,,,,,,,,,,0.5836,1,,,,,,,,,,,,,,m,1,0.5836,,,,,,,,0.88870891,-0.292125096,0,0,0,,0,68,68,67,1,SAILOR,LB,old,m,./images/SAILORLB.png,,,,,,,,,,,,,,,,,,,,,
,,,,,,,,,,,,,,,,,200584,19,2022-01-28_15h02.57.206,lexical_decision_task_DD_L2,2021.2.3,Win32,60.93473889,,,,,,,,,,,,0.5341,1,,,,,,,,,,,,,,m,1,0.5341,,,,,,,,0.88870891,-0.292125096,0,0,0,,0,69,69,1,1,PLANK,LB,old,m,./images/PLANKLB.png,,,,,,,,,,,,,,,,,,,,,
,,,,,,,,,,,,,,,,,200584,19,2022-01-28_15h02.57.206,lexical_decision_task_DD_L2,2021.2.3,Win32,60.93473889,,,,,,,,,,,,1.0356,1,,,,,,,,,,,,,,z,1,1.0356,,,,,,,,0.88870891,-0.292125096,0,0,0,,0,70,70,86,1,AIFED,LB,old,z,./images/AIFEDLB.png,,,,,,,,,,,,,,,,,,,,,
,,,,,,,,,,,,,,,,,200584,19,2022-01-28_15h02.57.206,lexical_decision_task_DD_L2,2021.2.3,Win32,60.93473889,,,,,,,,,,,,0.5374,1,,,,,,,,,,,,,,m,1,0.5374,,,,,,,,0.88870891,-0.292125096,0,0,0,,0,71,71,26,1,SMOKER,C,old,m,./images/SMOKER.png,,,,,,,,,,,,,,,,,,,,,
,,,,,,,,,,,,,,,,,200584,19,2022-01-28_15h02.57.206,lexical_decision_task_DD_L2,2021.2.3,Win32,60.93473889,,,,,,,,,,,,0.5212,1,,,,,,,,,,,,,,m,1,0.5212,,,,,,,,0.88870891,-0.292125096,0,0,0,,0,72,72,37,1,BIRTH,LB,old,m,./images/BIRTHLB.png,,,,,,,,,,,,,,,,,,,,,
,,,,,,,,,,,,,,,,,200584,19,2022-01-28_15h02.57.206,lexical_decision_task_DD_L2,2021.2.3,Win32,60.93473889,,,,,,,,,,,,0.5401,1,,,,,,,,,,,,,,m,1,0.5401,,,,,,,,0.88870891,-0.292125096,0,0,0,,0,73,73,78,1,LITTER,HB,old,m,./images/LITTERHB.png,,,,,,,,,,,,,,,,,,,,,
,,,,,,,,,,,,,,,,,200584,19,2022-01-28_15h02.57.206,lexical_decision_task_DD_L2,2021.2.3,Win32,60.93473889,,,,,,,,,,,,0.5083,1,,,,,,,,,,,,,,m,1,0.5083,,,,,,,,0.88870891,-0.292125096,0,0,0,,0,74,74,7,1,PAINT,LB,old,m,./images/PAINTLB.png,,,,,,,,,,,,,,,,,,,,,
,,,,,,,,,,,,,,,,,200584,19,2022-01-28_15h02.57.206,lexical_decision_task_DD_L2,2021.2.3,Win32,60.93473889,,,,,,,,,,,,0.5757,1,,,,,,,,,,,,,,m,1,0.5757,,,,,,,,0.88870891,-0.292125096,0,0,0,,0,75,75,30,1,STORM,HB,old,m,./images/STORMHB.png,,,,,,,,,,,,,,,,,,,,,
,,,,,,,,,,,,,,,,,200584,19,2022-01-28_15h02.57.206,lexical_decision_task_DD_L2,2021.2.3,Win32,60.93473889,,,,,,,,,,,,0.4279,0,,,,,,,,,,,,,,m,0,0.4279,,,,,,,,0.88870891,-0.292125096,0,0,0,,0,76,76,134,1,TROSS,LB,old,z,./images/TROSSLB.png,,,,,,,,,,,,,,,,,,,,,
,,,,,,,,,,,,,,,,,200584,19,2022-01-28_15h02.57.206,lexical_decision_task_DD_L2,2021.2.3,Win32,60.93473889,,,,,,,,,,,,1.1016,0,,,,,,,,,,,,,,m,0,1.1016,,,,,,,,0.88870891,-0.292125096,0,0,0,,0,77,77,166,1,SHORY,HB,old,z,./images/SHORYHB.png,,,,,,,,,,,,,,,,,,,,,
,,,,,,,,,,,,,,,,,200584,19,2022-01-28_15h02.57.206,lexical_decision_task_DD_L2,2021.2.3,Win32,60.93473889,,,,,,,,,,,,1.9328,1,,,,,,,,,,,,,,m,1,1.9328,,,,,,,,0.88870891,-0.292125096,0,0,0,,0,78,78,34,1,CANYON,LB,old,m,./images/CANYONLB.png,,,,,,,,,,,,,,,,,,,,,
,,,,,,,,,,,,,,,,,200584,19,2022-01-28_15h02.57.206,lexical_decision_task_DD_L2,2021.2.3,Win32,60.93473889,,,,,,,,,,,,0.7514,1,,,,,,,,,,,,,,m,1,0.7514,,,,,,,,0.88870891,-0.292125096,0,0,0,,0,79,79,60,1,TWINS,HB,old,m,./images/TWINSHB.png,,,,,,,,,,,,,,,,,,,,,
,,,,,,,,,,,,,,,,,200584,19,2022-01-28_15h02.57.206,lexical_decision_task_DD_L2,2021.2.3,Win32,60.93473889,,,,,,,,,,,,0.533,1,,,,,,,,,,,,,,m,1,0.533,,,,,,,,0.88870891,-0.292125096,0,0,0,,0,80,80,22,1,MELON,LB,old,m,./images/MELONLB.png,,,,,,,,,,,,,,,,,,,,,
,,,,,,,,,,,,,,,,,200584,19,2022-01-28_15h02.57.206,lexical_decision_task_DD_L2,2021.2.3,Win32,60.93473889,,,,,,,,,,,,0.8196,1,,,,,,,,,,,,,,m,1,0.8196,,,,,,,,0.88870891,-0.292125096,0,0,0,,0,81,81,68,1,TORCH,C,old,m,./images/TORCH.png,,,,,,,,,,,,,,,,,,,,,
,,,,,,,,,,,,,,,,,200584,19,2022-01-28_15h02.57.206,lexical_decision_task_DD_L2,2021.2.3,Win32,60.93473889,,,,,,,,,,,,0.7171,1,,,,,,,,,,,,,,z,1,0.7171,,,,,,,,0.88870891,-0.292125096,0,0,0,,0,82,82,89,1,DRIEK,LB,old,z,./images/DRIEKLB.png,,,,,,,,,,,,,,,,,,,,,
,,,,,,,,,,,,,,,,,200584,19,2022-01-28_15h02.57.206,lexical_decision_task_DD_L2,2021.2.3,Win32,60.93473889,,,,,,,,,,,,0.5658,1,,,,,,,,,,,,,,m,1,0.5658,,,,,,,,0.88870891,-0.292125096,0,0,0,space,0,83,83,0,1,TOMATO,HB,old,m,./images/TOMATOHB.png,18.3255,,,,,,,,,,,,,,,,,,,,
,,,,,,,,,,,,,,,,,200584,19,2022-01-28_15h02.57.206,lexical_decision_task_DD_L2,2021.2.3,Win32,60.93473889,,,,,,,,,,,,0.739,1,,,,,,,,,,,,,,z,1,0.739,,,,,,,,0.88870891,-0.292125096,0,0,0,,0,84,84,84,1,HAXES,C,old,z,./images/HAXES.png,,,,,,,,,,,,,,,,,,,,,
,,,,,,,,,,,,,,,,,200584,19,2022-01-28_15h02.57.206,lexical_decision_task_DD_L2,2021.2.3,Win32,60.93473889,,,,,,,,,,,,0.5749,1,,,,,,,,,,,,,,z,1,0.5749,,,,,,,,0.88870891,-0.292125096,0,0,0,,0,85,85,113,1,LINEW,LB,old,z,./images/LINEWLB.png,,,,,,,,,,,,,,,,,,,,,
,,,,,,,,,,,,,,,,,200584,19,2022-01-28_15h02.57.206,lexical_decision_task_DD_L2,2021.2.3,Win32,60.93473889,,,,,,,,,,,,0.62,0,,,,,,,,,,,,,,m,0,0.62,,,,,,,,0.88870891,-0.292125096,0,0,0,,0,86,86,150,1,NOOLS,C,old,z,./images/NOOLS.png,,,,,,,,,,,,,,,,,,,,,
,,,,,,,,,,,,,,,,,200584,19,2022-01-28_15h02.57.206,lexical_decision_task_DD_L2,2021.2.3,Win32,60.93473889,,,,,,,,,,,,0.6981,0,,,,,,,,,,,,,,z,0,0.6981,,,,,,,,0.88870891,-0.292125096,0,0,0,,0,87,87,50,1,MALLET,C,old,m,./images/MALLET.png,,,,,,,,,,,,,,,,,,,,,
,,,,,,,,,,,,,,,,,200584,19,2022-01-28_15h02.57.206,lexical_decision_task_DD_L2,2021.2.3,Win32,60.93473889,,,,,,,,,,,,1.3579,0,,,,,,,,,,,,,,z,0,1.3579,,,,,,,,0.88870891,-0.292125096,0,0,0,,0,88,88,33,1,MAGGOT,HB,old,m,./images/MAGGOTHB.png,,,,,,,,,,,,,,,,,,,,,
,,,,,,,,,,,,,,,,,200584,19,2022-01-28_15h02.57.206,lexical_decision_task_DD_L2,2021.2.3,Win32,60.93473889,,,,,,,,,,,,0.8792,1,,,,,,,,,,,,,,z,1,0.8792,,,,,,,,0.88870891,-0.292125096,0,0,0,,0,89,89,111,1,HOSSE,C,old,z,./images/HOSSE.png,,,,,,,,,,,,,,,,,,,,,
,,,,,,,,,,,,,,,,,200584,19,2022-01-28_15h02.57.206,lexical_decision_task_DD_L2,2021.2.3,Win32,60.93473889,,,,,,,,,,,,0.6512,1,,,,,,,,,,,,,,z,1,0.6512,,,,,,,,0.88870891,-0.292125096,0,0,0,,0,90,90,125,1,MOOKY,LB,old,z,./images/MOOKYLB.png,,,,,,,,,,,,,,,,,,,,,
,,,,,,,,,,,,,,,,,200584,19,2022-01-28_15h02.57.206,lexical_decision_task_DD_L2,2021.2.3,Win32,60.93473889,,,,,,,,,,,,0.5442,1,,,,,,,,,,,,,,m,1,0.5442,,,,,,,,0.88870891,-0.292125096,0,0,0,,0,91,91,77,1,COUCH,C,old,m,./images/COUCH.png,,,,,,,,,,,,,,,,,,,,,
,,,,,,,,,,,,,,,,,200584,19,2022-01-28_15h02.57.206,lexical_decision_task_DD_L2,2021.2.3,Win32,60.93473889,,,,,,,,,,,,0.8967,1,,,,,,,,,,,,,,z,1,0.8967,,,,,,,,0.88870891,-0.292125096,0,0,0,,0,92,92,121,1,CEERS,HB,old,z,./images/CEERSHB.png,,,,,,,,,,,,,,,,,,,,,
,,,,,,,,,,,,,,,,,200584,19,2022-01-28_15h02.57.206,lexical_decision_task_DD_L2,2021.2.3,Win32,60.93473889,,,,,,,,,,,,0.6933,1,,,,,,,,,,,,,,z,1,0.6933,,,,,,,,0.88870891,-0.292125096,0,0,0,,0,93,93,87,1,TRING,C,old,z,./images/TRING.png,,,,,,,,,,,,,,,,,,,,,
,,,,,,,,,,,,,,,,,200584,19,2022-01-28_15h02.57.206,lexical_decision_task_DD_L2,2021.2.3,Win32,60.93473889,,,,,,,,,,,,0.747,1,,,,,,,,,,,,,,z,1,0.747,,,,,,,,0.88870891,-0.292125096,0,0,0,,0,94,94,139,1,BLEAR,HB,old,z,./images/BLEARHB.png,,,,,,,,,,,,,,,,,,,,,
,,,,,,,,,,,,,,,,,200584,19,2022-01-28_15h02.57.206,lexical_decision_task_DD_L2,2021.2.3,Win32,60.93473889,,,,,,,,,,,,0.5756,1,,,,,,,,,,,,,,z,1,0.5756,,,,,,,,0.88870891,-0.292125096,0,0,0,,0,95,95,154,1,THINT,HB,old,z,./images/THINTHB.png,,,,,,,,,,,,,,,,,,,,,
,,,,,,,,,,,,,,,,,200584,19,2022-01-28_15h02.57.206,lexical_decision_task_DD_L2,2021.2.3,Win32,60.93473889,,,,,,,,,,,,0.7798,1,,,,,,,,,,,,,,m,1,0.7798,,,,,,,,0.88870891,-0.292125096,0,0,0,,0,96,96,61,1,CANDLE,LB,old,m,./images/CANDLELB.png,,,,,,,,,,,,,,,,,,,,,
,,,,,,,,,,,,,,,,,200584,19,2022-01-28_15h02.57.206,lexical_decision_task_DD_L2,2021.2.3,Win32,60.93473889,,,,,,,,,,,,0.7052,1,,,,,,,,,,,,,,z,1,0.7052,,,,,,,,0.88870891,-0.292125096,0,0,0,,0,97,97,120,1,RINED,C,old,z,./images/RINED.png,,,,,,,,,,,,,,,,,,,,,
,,,,,,,,,,,,,,,,,200584,19,2022-01-28_15h02.57.206,lexical_decision_task_DD_L2,2021.2.3,Win32,60.93473889,,,,,,,,,,,,0.7228,1,,,,,,,,,,,,,,z,1,0.7228,,,,,,,,0.88870891,-0.292125096,0,0,0,,0,98,98,118,1,BAVEL,HB,old,z,./images/BAVELHB.png,,,,,,,,,,,,,,,,,,,,,
,,,,,,,,,,,,,,,,,200584,19,2022-01-28_15h02.57.206,lexical_decision_task_DD_L2,2021.2.3,Win32,60.93473889,,,,,,,,,,,,0.6629,1,,,,,,,,,,,,,,m,1,0.6629,,,,,,,,0.88870891,-0.292125096,0,0,0,,0,99,99,51,1,ONION,HB,old,m,./images/ONIONHB.png,,,,,,,,,,,,,,,,,,,,,
,,,,,,,,,,,,,,,,,200584,19,2022-01-28_15h02.57.206,lexical_decision_task_DD_L2,2021.2.3,Win32,60.93473889,,,,,,,,,,,,1.2323,1,,,,,,,,,,,,,,m,1,1.2323,,,,,,,,0.88870891,-0.292125096,0,0,0,,0,100,100,63,1,MIRROR,HB,old,m,./images/MIRRORHB.png,,,,,,,,,,,,,,,,,,,,,
,,,,,,,,,,,,,,,,,200584,19,2022-01-28_15h02.57.206,lexical_decision_task_DD_L2,2021.2.3,Win32,60.93473889,,,,,,,,,,,,1.1662,1,,,,,,,,,,,,,,z,1,1.1662,,,,,,,,0.88870891,-0.292125096,0,0,0,,0,101,101,96,1,KEAMS,C,old,z,./images/KEAMS.png,,,,,,,,,,,,,,,,,,,,,
,,,,,,,,,,,,,,,,,200584,19,2022-01-28_15h02.57.206,lexical_decision_task_DD_L2,2021.2.3,Win32,60.93473889,,,,,,,,,,,,0.6093,1,,,,,,,,,,,,,,m,1,0.6093,,,,,,,,0.88870891,-0.292125096,0,0,0,,0,102,102,49,1,DRUMS,LB,old,m,./images/DRUMSLB.png,,,,,,,,,,,,,,,,,,,,,
,,,,,,,,,,,,,,,,,200584,19,2022-01-28_15h02.57.206,lexical_decision_task_DD_L2,2021.2.3,Win32,60.93473889,,,,,,,,,,,,0.6523,1,,,,,,,,,,,,,,z,1,0.6523,,,,,,,,0.88870891,-0.292125096,0,0,0,,0,103,103,155,1,CANGY,LB,old,z,./images/CANGYLB.png,,,,,,,,,,,,,,,,,,,,,
,,,,,,,,,,,,,,,,,200584,19,2022-01-28_15h02.57.206,lexical_decision_task_DD_L2,2021.2.3,Win32,60.93473889,,,,,,,,,,,,0.5509,1,,,,,,,,,,,,,,m,1,0.5509,,,,,,,,0.88870891,-0.292125096,0,0,0,,0,104,104,79,1,CRUST,LB,old,m,./images/CRUSTLB.png,,,,,,,,,,,,,,,,,,,,,
,,,,,,,,,,,,,,,,,200584,19,2022-01-28_15h02.57.206,lexical_decision_task_DD_L2,2021.2.3,Win32,60.93473889,,,,,,,,,,,,0.6353,1,,,,,,,,,,,,,,z,1,0.6353,,,,,,,,0.88870891,-0.292125096,0,0,0,,0,105,105,160,1,VEETS,HB,old,z,./images/VEETSHB.png,,,,,,,,,,,,,,,,,,,,,
,,,,,,,,,,,,,,,,,200584,19,2022-01-28_15h02.57.206,lexical_decision_task_DD_L2,2021.2.3,Win32,60.93473889,,,,,,,,,,,,0.4749,1,,,,,,,,,,,,,,m,1,0.4749,,,,,,,,0.88870891,-0.292125096,0,0,0,,0,106,106,55,1,MUFFIN,LB,old,m,./images/MUFFINLB.png,,,,,,,,,,,,,,,,,,,,,
,,,,,,,,,,,,,,,,,200584,19,2022-01-28_15h02.57.206,lexical_decision_task_DD_L2,2021.2.3,Win32,60.93473889,,,,,,,,,,,,0.6152,0,,,,,,,,,,,,,,z,0,0.6152,,,,,,,,0.88870891,-0.292125096,0,0,0,,0,107,107,19,1,DOUGH,LB,old,m,./images/DOUGHLB.png,,,,,,,,,,,,,,,,,,,,,
,,,,,,,,,,,,,,,,,200584,19,2022-01-28_15h02.57.206,lexical_decision_task_DD_L2,2021.2.3,Win32,60.93473889,,,,,,,,,,,,0.8139,1,,,,,,,,,,,,,,z,1,0.8139,,,,,,,,0.88870891,-0.292125096,0,0,0,,0,108,108,110,1,CRUNK,LB,old,z,./images/CRUNKLB.png,,,,,,,,,,,,,,,,,,,,,
,,,,,,,,,,,,,,,,,200584,19,2022-01-28_15h02.57.206,lexical_decision_task_DD_L2,2021.2.3,Win32,60.93473889,,,,,,,,,,,,0.5978,1,,,,,,,,,,,,,,m,1,0.5978,,,,,,,,0.88870891,-0.292125096,0,0,0,,0,109,109,64,1,JELLY,LB,old,m,./images/JELLYLB.png,,,,,,,,,,,,,,,,,,,,,
,,,,,,,,,,,,,,,,,200584,19,2022-01-28_15h02.57.206,lexical_decision_task_DD_L2,2021.2.3,Win32,60.93473889,,,,,,,,,,,,0.6132,1,,,,,,,,,,,,,,m,1,0.6132,,,,,,,,0.88870891,-0.292125096,0,0,0,,0,110,110,24,1,SCREW,HB,old,m,./images/SCREWHB.png,,,,,,,,,,,,,,,,,,,,,
,,,,,,,,,,,,,,,,,200584,19,2022-01-28_15h02.57.206,lexical_decision_task_DD_L2,2021.2.3,Win32,60.93473889,,,,,,,,,,,,0.8237,1,,,,,,,,,,,,,,z,1,0.8237,,,,,,,,0.88870891,-0.292125096,0,0,0,,0,111,111,130,1,CRILL,HB,old,z,./images/CRILLHB.png,,,,,,,,,,,,,,,,,,,,,
,,,,,,,,,,,,,,,,,200584,19,2022-01-28_15h02.57.206,lexical_decision_task_DD_L2,2021.2.3,Win32,60.93473889,,,,,,,,,,,,0.8104,1,,,,,,,,,,,,,,m,1,0.8104,,,,,,,,0.88870891,-0.292125096,0,0,0,,0,112,112,21,1,KIDNEY,HB,old,m,./images/KIDNEYHB.png,,,,,,,,,,,,,,,,,,,,,
,,,,,,,,,,,,,,,,,200584,19,2022-01-28_15h02.57.206,lexical_decision_task_DD_L2,2021.2.3,Win32,60.93473889,,,,,,,,,,,,0.6428,1,,,,,,,,,,,,,,m,1,0.6428,,,,,,,,0.88870891,-0.292125096,0,0,0,,0,113,113,11,1,BONNET,C,old,m,./images/BONNET.png,,,,,,,,,,,,,,,,,,,,,
,,,,,,,,,,,,,,,,,200584,19,2022-01-28_15h02.57.206,lexical_decision_task_DD_L2,2021.2.3,Win32,60.93473889,,,,,,,,,,,,0.7494,1,,,,,,,,,,,,,,m,1,0.7494,,,,,,,,0.88870891,-0.292125096,0,0,0,,0,114,114,74,1,CEMENT,C,old,m,./images/CEMENT.png,,,,,,,,,,,,,,,,,,,,,
,,,,,,,,,,,,,,,,,200584,19,2022-01-28_15h02.57.206,lexical_decision_task_DD_L2,2021.2.3,Win32,60.93473889,,,,,,,,,,,,0.7425,1,,,,,,,,,,,,,,z,1,0.7425,,,,,,,,0.88870891,-0.292125096,0,0,0,,0,115,115,135,1,JOODY,C,old,z,./images/JOODY.png,,,,,,,,,,,,,,,,,,,,,
,,,,,,,,,,,,,,,,,200584,19,2022-01-28_15h02.57.206,lexical_decision_task_DD_L2,2021.2.3,Win32,60.93473889,,,,,,,,,,,,0.5019,1,,,,,,,,,,,,,,m,1,0.5019,,,,,,,,0.88870891,-0.292125096,0,0,0,,0,116,116,71,1,PIMPLE,C,old,m,./images/PIMPLE.png,,,,,,,,,,,,,,,,,,,,,
,,,,,,,,,,,,,,,,,200584,19,2022-01-28_15h02.57.206,lexical_decision_task_DD_L2,2021.2.3,Win32,60.93473889,,,,,,,,,,,,0.9477,1,,,,,,,,,,,,,,m,1,0.9477,,,,,,,,0.88870891,-0.292125096,0,0,0,,0,117,117,58,1,BABOON,LB,old,m,./images/BABOONLB.png,,,,,,,,,,,,,,,,,,,,,
,,,,,,,,,,,,,,,,,200584,19,2022-01-28_15h02.57.206,lexical_decision_task_DD_L2,2021.2.3,Win32,60.93473889,,,,,,,,,,,,0.706,1,,,,,,,,,,,,,,z,1,0.706,,,,,,,,0.88870891,-0.292125096,0,0,0,,0,118,118,147,1,ZOLES,C,old,z,./images/ZOLES.png,,,,,,,,,,,,,,,,,,,,,
,,,,,,,,,,,,,,,,,200584,19,2022-01-28_15h02.57.206,lexical_decision_task_DD_L2,2021.2.3,Win32,60.93473889,,,,,,,,,,,,0.6015,1,,,,,,,,,,,,,,m,1,0.6015,,,,,,,,0.88870891,-0.292125096,0,0,0,,0,119,119,25,1,WRIST,LB,old,m,./images/WRISTLB.png,,,,,,,,,,,,,,,,,,,,,
,,,,,,,,,,,,,,,,,200584,19,2022-01-28_15h02.57.206,lexical_decision_task_DD_L2,2021.2.3,Win32,60.93473889,,,,,,,,,,,,0.6552,1,,,,,,,,,,,,,,z,1,0.6552,,,,,,,,0.88870891,-0.292125096,0,0,0,,0,120,120,123,1,SEDGE,C,old,z,./images/SEDGE.png,,,,,,,,,,,,,,,,,,,,,
,,,,,,,,,,,,,,,,,200584,19,2022-01-28_15h02.57.206,lexical_decision_task_DD_L2,2021.2.3,Win32,60.93473889,,,,,,,,,,,,0.6583,1,,,,,,,,,,,,,,z,1,0.6583,,,,,,,,0.88870891,-0.292125096,0,0,0,,0,121,121,152,1,FRAIN,LB,old,z,./images/FRAINLB.png,,,,,,,,,,,,,,,,,,,,,
,,,,,,,,,,,,,,,,,200584,19,2022-01-28_15h02.57.206,lexical_decision_task_DD_L2,2021.2.3,Win32,60.93473889,,,,,,,,,,,,0.8089,1,,,,,,,,,,,,,,z,1,0.8089,,,,,,,,0.88870891,-0.292125096,0,0,0,,0,122,122,163,1,GAMBA,HB,old,z,./images/GAMBAHB.png,,,,,,,,,,,,,,,,,,,,,
,,,,,,,,,,,,,,,,,200584,19,2022-01-28_15h02.57.206,lexical_decision_task_DD_L2,2021.2.3,Win32,60.93473889,,,,,,,,,,,,0.5586,1,,,,,,,,,,,,,,m,1,0.5586,,,,,,,,0.88870891,-0.292125096,0,0,0,,0,123,123,32,1,BARREL,C,old,m,./images/BARREL.png,,,,,,,,,,,,,,,,,,,,,
,,,,,,,,,,,,,,,,,200584,19,2022-01-28_15h02.57.206,lexical_decision_task_DD_L2,2021.2.3,Win32,60.93473889,,,,,,,,,,,,0.708,1,,,,,,,,,,,,,,z,1,0.708,,,,,,,,0.88870891,-0.292125096,0,0,0,,0,124,124,101,1,GLEET,LB,old,z,./images/GLEETLB.png,,,,,,,,,,,,,,,,,,,,,
,,,,,,,,,,,,,,,,,200584,19,2022-01-28_15h02.57.206,lexical_decision_task_DD_L2,2021.2.3,Win32,60.93473889,,,,,,,,,,,,0.7905,1,,,,,,,,,,,,,,m,1,0.7905,,,,,,,,0.88870891,-0.292125096,0,0,0,space,0,125,125,17,1,SKIING,C,old,m,./images/SKIING.png,2.6007,,,,,,,,,,,,,,,,,,,,
,,,,,,,,,,,,,,,,,200584,19,2022-01-28_15h02.57.206,lexical_decision_task_DD_L2,2021.2.3,Win32,60.93473889,,,,,,,,,,,,0.6385,1,,,,,,,,,,,,,,z,1,0.6385,,,,,,,,0.88870891,-0.292125096,0,0,0,,0,126,126,128,1,GRIFT,LB,old,z,./images/GRIFTLB.png,,,,,,,,,,,,,,,,,,,,,
,,,,,,,,,,,,,,,,,200584,19,2022-01-28_15h02.57.206,lexical_decision_task_DD_L2,2021.2.3,Win32,60.93473889,,,,,,,,,,,,0.7562,1,,,,,,,,,,,,,,m,1,0.7562,,,,,,,,0.88870891,-0.292125096,0,0,0,,0,127,127,54,1,TRIPOD,HB,old,m,./images/TRIPODHB.png,,,,,,,,,,,,,,,,,,,,,
,,,,,,,,,,,,,,,,,200584,19,2022-01-28_15h02.57.206,lexical_decision_task_DD_L2,2021.2.3,Win32,60.93473889,,,,,,,,,,,,0.7637,1,,,,,,,,,,,,,,m,1,0.7637,,,,,,,,0.88870891,-0.292125096,0,0,0,,0,128,128,31,1,QUILL,LB,old,m,./images/QUILLLB.png,,,,,,,,,,,,,,,,,,,,,
,,,,,,,,,,,,,,,,,200584,19,2022-01-28_15h02.57.206,lexical_decision_task_DD_L2,2021.2.3,Win32,60.93473889,,,,,,,,,,,,0.8677,1,,,,,,,,,,,,,,z,1,0.8677,,,,,,,,0.88870891,-0.292125096,0,0,0,,0,129,129,92,1,PAIMS,LB,old,z,./images/PAIMSLB.png,,,,,,,,,,,,,,,,,,,,,
,,,,,,,,,,,,,,,,,200584,19,2022-01-28_15h02.57.206,lexical_decision_task_DD_L2,2021.2.3,Win32,60.93473889,,,,,,,,,,,,1.0436,1,,,,,,,,,,,,,,z,1,1.0436,,,,,,,,0.88870891,-0.292125096,0,0,0,,0,130,130,127,1,NINDY,HB,old,z,./images/NINDYHB.png,,,,,,,,,,,,,,,,,,,,,
,,,,,,,,,,,,,,,,,200584,19,2022-01-28_15h02.57.206,lexical_decision_task_DD_L2,2021.2.3,Win32,60.93473889,,,,,,,,,,,,0.8741,1,,,,,,,,,,,,,,z,1,0.8741,,,,,,,,0.88870891,-0.292125096,0,0,0,,0,131,131,93,1,SMONE,C,old,z,./images/SMONE.png,,,,,,,,,,,,,,,,,,,,,
,,,,,,,,,,,,,,,,,200584,19,2022-01-28_15h02.57.206,lexical_decision_task_DD_L2,2021.2.3,Win32,60.93473889,,,,,,,,,,,,0.8653,1,,,,,,,,,,,,,,z,1,0.8653,,,,,,,,0.88870891,-0.292125096,0,0,0,,0,132,132,136,1,WERVE,HB,old,z,./images/WERVEHB.png,,,,,,,,,,,,,,,,,,,,,
,,,,,,,,,,,,,,,,,200584,19,2022-01-28_15h02.57.206,lexical_decision_task_DD_L2,2021.2.3,Win32,60.93473889,,,,,,,,,,,,0.7735,1,,,,,,,,,,,,,,z,1,0.7735,,,,,,,,0.88870891,-0.292125096,0,0,0,,0,133,133,131,1,NACES,LB,old,z,./images/NACESLB.png,,,,,,,,,,,,,,,,,,,,,
,,,,,,,,,,,,,,,,,200584,19,2022-01-28_15h02.57.206,lexical_decision_task_DD_L2,2021.2.3,Win32,60.93473889,,,,,,,,,,,,0.8901,0,,,,,,,,,,,,,,z,0,0.8901,,,,,,,,0.88870891,-0.292125096,0,0,0,,0,134,134,72,1,NOOSE,HB,old,m,./images/NOOSEHB.png,,,,,,,,,,,,,,,,,,,,,
,,,,,,,,,,,,,,,,,200584,19,2022-01-28_15h02.57.206,lexical_decision_task_DD_L2,2021.2.3,Win32,60.93473889,,,,,,,,,,,,0.8401,1,,,,,,,,,,,,,,m,1,0.8401,,,,,,,,0.88870891,-0.292125096,0,0,0,,0,135,135,70,1,URINE,LB,old,m,./images/URINELB.png,,,,,,,,,,,,,,,,,,,,,
,,,,,,,,,,,,,,,,,200584,19,2022-01-28_15h02.57.206,lexical_decision_task_DD_L2,2021.2.3,Win32,60.93473889,,,,,,,,,,,,0.6665,1,,,,,,,,,,,,,,z,1,0.6665,,,,,,,,0.88870891,-0.292125096,0,0,0,,0,136,136,119,1,PAFER,LB,old,z,./images/PAFERLB.png,,,,,,,,,,,,,,,,,,,,,
,,,,,,,,,,,,,,,,,200584,19,2022-01-28_15h02.57.206,lexical_decision_task_DD_L2,2021.2.3,Win32,60.93473889,,,,,,,,,,,,0.5619,1,,,,,,,,,,,,,,m,1,0.5619,,,,,,,,0.88870891,-0.292125096,0,0,0,,0,137,137,81,1,POODLE,HB,old,m,./images/POODLEHB.png,,,,,,,,,,,,,,,,,,,,,
,,,,,,,,,,,,,,,,,200584,19,2022-01-28_15h02.57.206,lexical_decision_task_DD_L2,2021.2.3,Win32,60.93473889,,,,,,,,,,,,0.8788,1,,,,,,,,,,,,,,m,1,0.8788,,,,,,,,0.88870891,-0.292125096,0,0,0,,0,138,138,69,1,COOKER,HB,old,m,./images/COOKERHB.png,,,,,,,,,,,,,,,,,,,,,
,,,,,,,,,,,,,,,,,200584,19,2022-01-28_15h02.57.206,lexical_decision_task_DD_L2,2021.2.3,Win32,60.93473889,,,,,,,,,,,,0.6907,1,,,,,,,,,,,,,,z,1,0.6907,,,,,,,,0.88870891,-0.292125096,0,0,0,,0,139,139,164,1,SGREW,LB,old,z,./images/SGREWLB.png,,,,,,,,,,,,,,,,,,,,,
,,,,,,,,,,,,,,,,,200584,19,2022-01-28_15h02.57.206,lexical_decision_task_DD_L2,2021.2.3,Win32,60.93473889,,,,,,,,,,,,0.7285,1,,,,,,,,,,,,,,z,1,0.7285,,,,,,,,0.88870891,-0.292125096,0,0,0,,0,140,140,149,1,VEASE,LB,old,z,./images/VEASELB.png,,,,,,,,,,,,,,,,,,,,,
,,,,,,,,,,,,,,,,,200584,19,2022-01-28_15h02.57.206,lexical_decision_task_DD_L2,2021.2.3,Win32,60.93473889,,,,,,,,,,,,0.9647,1,,,,,,,,,,,,,,z,1,0.9647,,,,,,,,0.88870891,-0.292125096,0,0,0,,0,141,141,158,1,EGECT,LB,old,z,./images/EGECTLB.png,,,,,,,,,,,,,,,,,,,,,
,,,,,,,,,,,,,,,,,200584,19,2022-01-28_15h02.57.206,lexical_decision_task_DD_L2,2021.2.3,Win32,60.93473889,,,,,,,,,,,,0.9198,1,,,,,,,,,,,,,,z,1,0.9198,,,,,,,,0.88870891,-0.292125096,0,0,0,,0,142,142,117,1,STEEG,C,old,z,./images/STEEG.png,,,,,,,,,,,,,,,,,,,,,
,,,,,,,,,,,,,,,,,200584,19,2022-01-28_15h02.57.206,lexical_decision_task_DD_L2,2021.2.3,Win32,60.93473889,,,,,,,,,,,,0.6006,1,,,,,,,,,,,,,,z,1,0.6006,,,,,,,,0.88870891,-0.292125096,0,0,0,,0,143,143,132,1,SCIFF,C,old,z,./images/SCIFF.png,,,,,,,,,,,,,,,,,,,,,
,,,,,,,,,,,,,,,,,200584,19,2022-01-28_15h02.57.206,lexical_decision_task_DD_L2,2021.2.3,Win32,60.93473889,,,,,,,,,,,,0.6021,1,,,,,,,,,,,,,,m,1,0.6021,,,,,,,,0.88870891,-0.292125096,0,0,0,,0,144,144,15,1,GREASE,HB,old,m,./images/GREASEHB.png,,,,,,,,,,,,,,,,,,,,,
,,,,,,,,,,,,,,,,,200584,19,2022-01-28_15h02.57.206,lexical_decision_task_DD_L2,2021.2.3,Win32,60.93473889,,,,,,,,,,,,0.7053,1,,,,,,,,,,,,,,z,1,0.7053,,,,,,,,0.88870891,-0.292125096,0,0,0,,0,145,145,109,1,BURGE,HB,old,z,./images/BURGEHB.png,,,,,,,,,,,,,,,,,,,,,
,,,,,,,,,,,,,,,,,200584,19,2022-01-28_15h02.57.206,lexical_decision_task_DD_L2,2021.2.3,Win32,60.93473889,,,,,,,,,,,,0.8008,1,,,,,,,,,,,,,,m,1,0.8008,,,,,,,,0.88870891,-0.292125096,0,0,0,,0,146,146,43,1,MOSQUE,LB,old,m,./images/MOSQUELB.png,,,,,,,,,,,,,,,,,,,,,
,,,,,,,,,,,,,,,,,200584,19,2022-01-28_15h02.57.206,lexical_decision_task_DD_L2,2021.2.3,Win32,60.93473889,,,,,,,,,,,,0.7709,1,,,,,,,,,,,,,,m,1,0.7709,,,,,,,,0.88870891,-0.292125096,0,0,0,,0,147,147,75,1,GRAIN,HB,old,m,./images/GRAINHB.png,,,,,,,,,,,,,,,,,,,,,
,,,,,,,,,,,,,,,,,200584,19,2022-01-28_15h02.57.206,lexical_decision_task_DD_L2,2021.2.3,Win32,60.93473889,,,,,,,,,,,,0.695,1,,,,,,,,,,,,,,m,1,0.695,,,,,,,,0.88870891,-0.292125096,0,0,0,,0,148,148,59,1,BURIAL,C,old,m,./images/BURIAL.png,,,,,,,,,,,,,,,,,,,,,
,,,,,,,,,,,,,,,,,200584,19,2022-01-28_15h02.57.206,lexical_decision_task_DD_L2,2021.2.3,Win32,60.93473889,,,,,,,,,,,,0.5615,1,,,,,,,,,,,,,,m,1,0.5615,,,,,,,,0.88870891,-0.292125096,0,0,0,,0,149,149,47,1,BERRY,C,old,m,./images/BERRY.png,,,,,,,,,,,,,,,,,,,,,
,,,,,,,,,,,,,,,,,200584,19,2022-01-28_15h02.57.206,lexical_decision_task_DD_L2,2021.2.3,Win32,60.93473889,,,,,,,,,,,,0.4207,1,,,,,,,,,,,,,,m,1,0.4207,,,,,,,,0.88870891,-0.292125096,0,0,0,,0,150,150,10,1,BELLY,LB,old,m,./images/BELLYLB.png,,,,,,,,,,,,,,,,,,,,,
,,,,,,,,,,,,,,,,,200584,19,2022-01-28_15h02.57.206,lexical_decision_task_DD_L2,2021.2.3,Win32,60.93473889,,,,,,,,,,,,0.5065,1,,,,,,,,,,,,,,m,1,0.5065,,,,,,,,0.88870891,-0.292125096,0,0,0,,0,151,151,65,1,FARMER,C,old,m,./images/FARMER.png,,,,,,,,,,,,,,,,,,,,,
,,,,,,,,,,,,,,,,,200584,19,2022-01-28_15h02.57.206,lexical_decision_task_DD_L2,2021.2.3,Win32,60.93473889,,,,,,,,,,,,0.5263,1,,,,,,,,,,,,,,m,1,0.5263,,,,,,,,0.88870891,-0.292125096,0,0,0,,0,152,152,36,1,THROAT,HB,old,m,./images/THROATHB.png,,,,,,,,,,,,,,,,,,,,,
,,,,,,,,,,,,,,,,,200584,19,2022-01-28_15h02.57.206,lexical_decision_task_DD_L2,2021.2.3,Win32,60.93473889,,,,,,,,,,,,0.5692,1,,,,,,,,,,,,,,z,1,0.5692,,,,,,,,0.88870891,-0.292125096,0,0,0,,0,153,153,108,1,GRUET,C,old,z,./images/GRUET.png,,,,,,,,,,,,,,,,,,,,,
,,,,,,,,,,,,,,,,,200584,19,2022-01-28_15h02.57.206,lexical_decision_task_DD_L2,2021.2.3,Win32,60.93473889,,,,,,,,,,,,0.7426,0,,,,,,,,,,,,,,z,0,0.7426,,,,,,,,0.88870891,-0.292125096,0,0,0,,0,154,154,80,1,WEASEL,C,old,m,./images/WEASEL.png,,,,,,,,,,,,,,,,,,,,,
,,,,,,,,,,,,,,,,,200584,19,2022-01-28_15h02.57.206,lexical_decision_task_DD_L2,2021.2.3,Win32,60.93473889,,,,,,,,,,,,0.6626,1,,,,,,,,,,,,,,m,1,0.6626,,,,,,,,0.88870891,-0.292125096,0,0,0,,0,155,155,62,1,PURSE,C,old,m,./images/PURSE.png,,,,,,,,,,,,,,,,,,,,,
,,,,,,,,,,,,,,,,,200584,19,2022-01-28_15h02.57.206,lexical_decision_task_DD_L2,2021.2.3,Win32,60.93473889,,,,,,,,,,,,0.5472,1,,,,,,,,,,,,,,m,1,0.5472,,,,,,,,0.88870891,-0.292125096,0,0,0,,0,156,156,45,1,KITTEN,HB,old,m,./images/KITTENHB.png,,,,,,,,,,,,,,,,,,,,,
,,,,,,,,,,,,,,,,,200584,19,2022-01-28_15h02.57.206,lexical_decision_task_DD_L2,2021.2.3,Win32,60.93473889,,,,,,,,,,,,0.731,1,,,,,,,,,,,,,,m,1,0.731,,,,,,,,0.88870891,-0.292125096,0,0,0,,0,157,157,16,1,PENCE,LB,old,m,./images/PENCELB.png,,,,,,,,,,,,,,,,,,,,,
,,,,,,,,,,,,,,,,,200584,19,2022-01-28_15h02.57.206,lexical_decision_task_DD_L2,2021.2.3,Win32,60.93473889,,,,,,,,,,,,1.0498,1,,,,,,,,,,,,,,z,1,1.0498,,,,,,,,0.88870891,-0.292125096,0,0,0,,0,158,158,161,1,BLAPS,LB,old,z,./images/BLAPSLB.png,,,,,,,,,,,,,,,,,,,,,
,,,,,,,,,,,,,,,,,200584,19,2022-01-28_15h02.57.206,lexical_decision_task_DD_L2,2021.2.3,Win32,60.93473889,,,,,,,,,,,,0.6501,1,,,,,,,,,,,,,,m,1,0.6501,,,,,,,,0.88870891,-0.292125096,0,0,0,,0,159,159,76,1,INFANT,LB,old,m,./images/INFANTLB.png,,,,,,,,,,,,,,,,,,,,,
,,,,,,,,,,,,,,,,,200584,19,2022-01-28_15h02.57.206,lexical_decision_task_DD_L2,2021.2.3,Win32,60.93473889,,,,,,,,,,,,0.4676,1,,,,,,,,,,,,,,m,1,0.4676,,,,,,,,0.88870891,-0.292125096,0,0,0,,0,160,160,46,1,PEARL,LB,old,m,./images/PEARLLB.png,,,,,,,,,,,,,,,,,,,,,
,,,,,,,,,,,,,,,,,200584,19,2022-01-28_15h02.57.206,lexical_decision_task_DD_L2,2021.2.3,Win32,60.93473889,,,,,,,,,,,,0.5163,1,,,,,,,,,,,,,,m,1,0.5163,,,,,,,,0.88870891,-0.292125096,0,0,0,,0,161,161,57,1,MOOSE,HB,old,m,./images/MOOSEHB.png,,,,,,,,,,,,,,,,,,,,,
,,,,,,,,,,,,,,,,,200584,19,2022-01-28_15h02.57.206,lexical_decision_task_DD_L2,2021.2.3,Win32,60.93473889,,,,,,,,,,,,0.7337,1,,,,,,,,,,,,,,z,1,0.7337,,,,,,,,0.88870891,-0.292125096,0,0,0,,0,162,162,112,1,MYING,HB,old,z,./images/MYINGHB.png,,,,,,,,,,,,,,,,,,,,,
,,,,,,,,,,,,,,,,,200584,19,2022-01-28_15h02.57.206,lexical_decision_task_DD_L2,2021.2.3,Win32,60.93473889,,,,,,,,,,,,0.6514,1,,,,,,,,,,,,,,z,1,0.6514,,,,,,,,0.88870891,-0.292125096,0,0,0,,0,163,163,102,1,DULLE,C,old,z,./images/DULLE.png,,,,,,,,,,,,,,,,,,,,,
,,,,,,,,,,,,,,,,,200584,19,2022-01-28_15h02.57.206,lexical_decision_task_DD_L2,2021.2.3,Win32,60.93473889,,,,,,,,,,,,0.6574,1,,,,,,,,,,,,,,m,1,0.6574,,,,,,,,0.88870891,-0.292125096,0,0,0,,0,164,164,27,1,ATTIC,HB,old,m,./images/ATTICHB.png,,,,,,,,,,,,,,,,,,,,,
,,,,,,,,,,,,,,,,,200584,19,2022-01-28_15h02.57.206,lexical_decision_task_DD_L2,2021.2.3,Win32,60.93473889,,,,,,,,,,,,0.5758,1,,,,,,,,,,,,,,m,1,0.5758,,,,,,,,0.88870891,-0.292125096,0,0,0,,0,165,165,8,1,TULIP,C,old,m,./images/TULIP.png,,,,,,,,,,,,,,,,,,,,,
,,,,,,,,,,,,,,,,,200584,19,2022-01-28_15h02.57.206,lexical_decision_task_DD_L2,2021.2.3,Win32,60.93473889,,,,,,,,,,,,0.5588,1,,,,,,,,,,,,,,m,1,0.5588,,,,,,,,0.88870891,-0.292125096,0,0,0,,0,166,166,4,1,MUSCLE,LB,old,m,./images/MUSCLELB.png,,,,,,,,,,,,,,,,,,,,,
,,,,,,,,,,,,,,,,,200584,19,2022-01-28_15h02.57.206,lexical_decision_task_DD_L2,2021.2.3,Win32,60.93473889,,,,,,,,,,,,1.2258,0,,,,,,,,,,,,,,m,0,1.2258,,,,,,,,0.88870891,-0.292125096,0,0,0,,0,167,167,107,1,FASKS,LB,old,z,./images/FASKSLB.png,,,,,,,,,,,,,,,,,,,,,
space,0.88870891,-0.292125096,0,0,0,,,,,,,1,test,"In the next phase you will be presented with the words from the the first phase. Your job is to decide whether you remember seeing the word or not. If you remember seeing the word press ""old"" or type ""m"". If you do not remember seeing the word press ""new"" or type ""z"". Please press the space bar or click on continue to begin. ",,,200584,19,2022-01-28_15h02.57.206,lexical_decision_task_DD_L2,2021.2.3,Win32,60.93473889,39.1201,,,,,,,,,,,,,,,,,,,,,,,,,,,,,,,,,,,,,,,,,,,,,,,,,,,,,0,0,0,0,1,,,,,,,,,,,,,,,
space,0.88870891,-0.292125096,0,0,0,,,,,,,1,test,"In the next phase you will be presented with the words from the the first phase. Your job is to decide whether you remember seeing the word or not. If you remember seeing the word press ""old"" or type ""m"". If you do not remember seeing the word press ""new"" or type ""z"". Please press the space bar or click on continue to begin. ",,,200584,19,2022-01-28_15h02.57.206,lexical_decision_task_DD_L2,2021.2.3,Win32,60.93473889,1.6755,,,,,,,,,,,,,,,,,,,,,,,,,,,,,,,,,,,,,,,,,,,,,,,,,,,,,1,0,1,0,1,,,,,,,,,,,,,,,
,0.008569801,-0.381992033,1,0,0,instr_done_button,,,,,,1,test,"In the next phase you will be presented with the words from the the first phase. Your job is to decide whether you remember seeing the word or not. If you remember seeing the word press ""old"" or type ""m"". If you do not remember seeing the word press ""new"" or type ""z"". Please press the space bar or click on continue to begin. ",,,200584,19,2022-01-28_15h02.57.206,lexical_decision_task_DD_L2,2021.2.3,Win32,60.93473889,,,,,,,,,,,,,,,,,,,,,,,,,,,,,,,,,,,,,,,,,,,,,,,,,,,,,,2,0,2,0,1,,,,,,,,,,,,,,,
space,0.431962981,-0.205037715,0,0,0,,,,,,,1,test,"In the next phase you will be presented with the words from the the first phase. Your job is to decide whether you remember seeing the word or not. If you remember seeing the word press ""old"" or type ""m"". If you do not remember seeing the word press ""new"" or type ""z"". Please press the space bar or click on continue to begin. ",,,200584,19,2022-01-28_15h02.57.206,lexical_decision_task_DD_L2,2021.2.3,Win32,60.93473889,7.1861,,,,,,,,,,,,,,,,,,,,,,,,,,,,,,,,,,,,,,,,,,,,,,,,,,,,,3,0,3,0,1,,,,,,,,,,,,,,,
,-0.060914857,-0.387550692,1,0,0,instr_done_button,,,,,,1,test,"In the next phase you will be presented with the words from the the first phase. Your job is to decide whether you remember seeing the word or not. If you remember seeing the word press ""old"" or type ""m"". If you do not remember seeing the word press ""new"" or type ""z"". Please press the space bar or click on continue to begin. ",,,200584,19,2022-01-28_15h02.57.206,lexical_decision_task_DD_L2,2021.2.3,Win32,60.93473889,,,,,,,,,,,,,,,,,,,,,,,,,,,,,,,,,,,,,,,,,,,,,,,,,,,,,,4,0,4,0,1,,,,,,,,,,,,,,,
,,,,,,,,,,,,,,,,,200584,19,2022-01-28_15h02.57.206,lexical_decision_task_DD_L2,2021.2.3,Win32,60.93473889,,,,,,,,,,,,1.9849,0,,,,,,,,,,,,,,,,,,,,,,,,-0.060914857,-0.387550692,0,0,0,,,,,,,SNACK,LB,m,y,./images/SNACKLB.png,,,,,,,z,0,1.9849,,,,,,,,0,0,0,73,1
,,,,,,,,,,,,,,,,,200584,19,2022-01-28_15h02.57.206,lexical_decision_task_DD_L2,2021.2.3,Win32,60.93473889,,,,,,,,,,,,0.7717,1,,,,,,,,,,,,,,,,,,,,,,,,-0.060914857,-0.387550692,0,0,0,,,,,,,BASKET,C,z,y,./images/BASKET.png,,,,,,,z,1,0.7717,,,,,,,,0,1,1,128,1
,,,,,,,,,,,,,,,,,200584,19,2022-01-28_15h02.57.206,lexical_decision_task_DD_L2,2021.2.3,Win32,60.93473889,,,,,,,,,,,,0.7002,1,,,,,,,,,,,,,,,,,,,,,,,,-0.060914857,-0.387550692,0,0,0,,,,,,,STOVE,C,z,y,./images/STOVE.png,,,,,,,z,1,0.7002,,,,,,,,0,2,2,86,1
,,,,,,,,,,,,,,,,,200584,19,2022-01-28_15h02.57.206,lexical_decision_task_DD_L2,2021.2.3,Win32,60.93473889,,,,,,,,,,,,0.9467,1,,,,,,,,,,,,,,,,,,,,,,,,-0.060914857,-0.387550692,0,0,0,,,,,,,MUMMY,LB,z,y,./images/MUMMYLB.png,,,,,,,z,1,0.9467,,,,,,,,0,3,3,130,1
,,,,,,,,,,,,,,,,,200584,19,2022-01-28_15h02.57.206,lexical_decision_task_DD_L2,2021.2.3,Win32,60.93473889,,,,,,,,,,,,0.7345,1,,,,,,,,,,,,,,,,,,,,,,,,-0.060914857,-0.387550692,0,0,0,,,,,,,SAUCE,HB,z,y,./images/SAUCEHB.png,,,,,,,z,1,0.7345,,,,,,,,0,4,4,135,1
,,,,,,,,,,,,,,,,,200584,19,2022-01-28_15h02.57.206,lexical_decision_task_DD_L2,2021.2.3,Win32,60.93473889,,,,,,,,,,,,1.0665,0,,,,,,,,,,,,,,,,,,,,,,,,-0.060914857,-0.387550692,0,0,0,,,,,,,STOOL,LB,z,y,./images/STOOLLB.png,,,,,,,m,0,1.0665,,,,,,,,0,5,5,127,1
,,,,,,,,,,,,,,,,,200584,19,2022-01-28_15h02.57.206,lexical_decision_task_DD_L2,2021.2.3,Win32,60.93473889,,,,,,,,,,,,0.7502,1,,,,,,,,,,,,,,,,,,,,,,,,-0.060914857,-0.387550692,0,0,0,,,,,,,BANNER,LB,m,y,./images/BANNERLB.png,,,,,,,m,1,0.7502,,,,,,,,0,6,6,52,1
,,,,,,,,,,,,,,,,,200584,19,2022-01-28_15h02.57.206,lexical_decision_task_DD_L2,2021.2.3,Win32,60.93473889,,,,,,,,,,,,0.6008,0,,,,,,,,,,,,,,,,,,,,,,,,-0.060914857,-0.387550692,0,0,0,,,,,,,CHAIN,HB,z,y,./images/CHAINHB.png,,,,,,,m,0,0.6008,,,,,,,,0,7,7,126,1
,,,,,,,,,,,,,,,,,200584,19,2022-01-28_15h02.57.206,lexical_decision_task_DD_L2,2021.2.3,Win32,60.93473889,,,,,,,,,,,,0.7347,1,,,,,,,,,,,,,,,,,,,,,,,,-0.060914857,-0.387550692,0,0,0,,,,,,,DOUGH,LB,m,y,./images/DOUGHLB.png,,,,,,,m,1,0.7347,,,,,,,,0,8,8,19,1
,,,,,,,,,,,,,,,,,200584,19,2022-01-28_15h02.57.206,lexical_decision_task_DD_L2,2021.2.3,Win32,60.93473889,,,,,,,,,,,,0.9181,1,,,,,,,,,,,,,,,,,,,,,,,,-0.060914857,-0.387550692,0,0,0,,,,,,,FLASK,HB,z,y,./images/FLASKHB.png,,,,,,,z,1,0.9181,,,,,,,,0,9,9,156,1
,,,,,,,,,,,,,,,,,200584,19,2022-01-28_15h02.57.206,lexical_decision_task_DD_L2,2021.2.3,Win32,60.93473889,,,,,,,,,,,,0.7677,1,,,,,,,,,,,,,,,,,,,,,,,,-0.060914857,-0.387550692,0,0,0,,,,,,,BROOM,HB,z,y,./images/BROOMHB.png,,,,,,,z,1,0.7677,,,,,,,,0,10,10,162,1
,,,,,,,,,,,,,,,,,200584,19,2022-01-28_15h02.57.206,lexical_decision_task_DD_L2,2021.2.3,Win32,60.93473889,,,,,,,,,,,,0.7175,1,,,,,,,,,,,,,,,,,,,,,,,,-0.060914857,-0.387550692,0,0,0,,,,,,,COOKER,HB,m,y,./images/COOKERHB.png,,,,,,,m,1,0.7175,,,,,,,,0,11,11,69,1
,,,,,,,,,,,,,,,,,200584,19,2022-01-28_15h02.57.206,lexical_decision_task_DD_L2,2021.2.3,Win32,60.93473889,,,,,,,,,,,,0.8342,1,,,,,,,,,,,,,,,,,,,,,,,,-0.060914857,-0.387550692,0,0,0,,,,,,,KIDNEY,HB,m,y,./images/KIDNEYHB.png,,,,,,,m,1,0.8342,,,,,,,,0,12,12,21,1
,,,,,,,,,,,,,,,,,200584,19,2022-01-28_15h02.57.206,lexical_decision_task_DD_L2,2021.2.3,Win32,60.93473889,,,,,,,,,,,,0.7007,1,,,,,,,,,,,,,,,,,,,,,,,,-0.060914857,-0.387550692,0,0,0,,,,,,,ALLEY,LB,z,y,./images/ALLEYLB.png,,,,,,,z,1,0.7007,,,,,,,,0,13,13,139,1
,,,,,,,,,,,,,,,,,200584,19,2022-01-28_15h02.57.206,lexical_decision_task_DD_L2,2021.2.3,Win32,60.93473889,,,,,,,,,,,,0.9008,1,,,,,,,,,,,,,,,,,,,,,,,,-0.060914857,-0.387550692,0,0,0,,,,,,,STORM,HB,m,y,./images/STORMHB.png,,,,,,,m,1,0.9008,,,,,,,,0,14,14,30,1
,,,,,,,,,,,,,,,,,200584,19,2022-01-28_15h02.57.206,lexical_decision_task_DD_L2,2021.2.3,Win32,60.93473889,,,,,,,,,,,,0.9507,0,,,,,,,,,,,,,,,,,,,,,,,,-0.060914857,-0.387550692,0,0,0,,,,,,,TOMATO,HB,m,y,./images/TOMATOHB.png,,,,,,,z,0,0.9507,,,,,,,,0,15,15,0,1
,,,,,,,,,,,,,,,,,200584,19,2022-01-28_15h02.57.206,lexical_decision_task_DD_L2,2021.2.3,Win32,60.93473889,,,,,,,,,,,,0.8336,0,,,,,,,,,,,,,,,,,,,,,,,,-0.060914857,-0.387550692,0,0,0,,,,,,,STAIN,HB,z,y,./images/STAINHB.png,,,,,,,m,0,0.8336,,,,,,,,0,16,16,90,1
,,,,,,,,,,,,,,,,,200584,19,2022-01-28_15h02.57.206,lexical_decision_task_DD_L2,2021.2.3,Win32,60.93473889,,,,,,,,,,,,1.4171,1,,,,,,,,,,,,,,,,,,,,,,,,-0.060914857,-0.387550692,0,0,0,,,,,,,WHISKY,C,z,y,./images/WHISKY.png,,,,,,,z,1,1.4171,,,,,,,,0,17,17,167,1
,,,,,,,,,,,,,,,,,200584,19,2022-01-28_15h02.57.206,lexical_decision_task_DD_L2,2021.2.3,Win32,60.93473889,,,,,,,,,,,,0.8166,0,,,,,,,,,,,,,,,,,,,,,,,,-0.060914857,-0.387550692,0,0,0,,,,,,,SAUNA,HB,z,y,./images/SAUNAHB.png,,,,,,,m,0,0.8166,,,,,,,,0,18,18,117,1
,,,,,,,,,,,,,,,,,200584,19,2022-01-28_15h02.57.206,lexical_decision_task_DD_L2,2021.2.3,Win32,60.93473889,,,,,,,,,,,,0.6843,1,,,,,,,,,,,,,,,,,,,,,,,,-0.060914857,-0.387550692,0,0,0,,,,,,,PEACH,C,m,y,./images/PEACH.png,,,,,,,m,1,0.6843,,,,,,,,0,19,19,35,1
,,,,,,,,,,,,,,,,,200584,19,2022-01-28_15h02.57.206,lexical_decision_task_DD_L2,2021.2.3,Win32,60.93473889,,,,,,,,,,,,0.7167,1,,,,,,,,,,,,,,,,,,,,,,,,-0.060914857,-0.387550692,0,0,0,,,,,,,POODLE,HB,m,y,./images/POODLEHB.png,,,,,,,m,1,0.7167,,,,,,,,0,20,20,81,1
,,,,,,,,,,,,,,,,,200584,19,2022-01-28_15h02.57.206,lexical_decision_task_DD_L2,2021.2.3,Win32,60.93473889,,,,,,,,,,,,0.7846,0,,,,,,,,,,,,,,,,,,,,,,,,-0.060914857,-0.387550692,0,0,0,,,,,,,SPORT,HB,m,y,./images/SPORTHB.png,,,,,,,z,0,0.7846,,,,,,,,0,21,21,48,1
,,,,,,,,,,,,,,,,,200584,19,2022-01-28_15h02.57.206,lexical_decision_task_DD_L2,2021.2.3,Win32,60.93473889,,,,,,,,,,,,0.9171,1,,,,,,,,,,,,,,,,,,,,,,,,-0.060914857,-0.387550692,0,0,0,,,,,,,TRIPOD,HB,m,y,./images/TRIPODHB.png,,,,,,,m,1,0.9171,,,,,,,,0,22,22,54,1
,,,,,,,,,,,,,,,,,200584,19,2022-01-28_15h02.57.206,lexical_decision_task_DD_L2,2021.2.3,Win32,60.93473889,,,,,,,,,,,,1.2505,0,,,,,,,,,,,,,,,,,,,,,,,,-0.060914857,-0.387550692,0,0,0,,,,,,,WHEEL,C,z,y,./images/WHEEL.png,,,,,,,m,0,1.2505,,,,,,,,0,23,23,161,1
,,,,,,,,,,,,,,,,,200584,19,2022-01-28_15h02.57.206,lexical_decision_task_DD_L2,2021.2.3,Win32,60.93473889,,,,,,,,,,,,0.7325,1,,,,,,,,,,,,,,,,,,,,,,,,-0.060914857,-0.387550692,0,0,0,,,,,,,PARCEL,HB,z,y,./images/PARCELHB.png,,,,,,,z,1,0.7325,,,,,,,,0,24,24,102,1
,,,,,,,,,,,,,,,,,200584,19,2022-01-28_15h02.57.206,lexical_decision_task_DD_L2,2021.2.3,Win32,60.93473889,,,,,,,,,,,,0.6172,1,,,,,,,,,,,,,,,,,,,,,,,,-0.060914857,-0.387550692,0,0,0,,,,,,,CRUST,LB,m,y,./images/CRUSTLB.png,,,,,,,m,1,0.6172,,,,,,,,0,25,25,79,1
,,,,,,,,,,,,,,,,,200584,19,2022-01-28_15h02.57.206,lexical_decision_task_DD_L2,2021.2.3,Win32,60.93473889,,,,,,,,,,,,0.6174,1,,,,,,,,,,,,,,,,,,,,,,,,-0.060914857,-0.387550692,0,0,0,,,,,,,SWING,LB,m,y,./images/SWINGLB.png,,,,,,,m,1,0.6174,,,,,,,,0,26,26,40,1
,,,,,,,,,,,,,,,,,200584,19,2022-01-28_15h02.57.206,lexical_decision_task_DD_L2,2021.2.3,Win32,60.93473889,,,,,,,,,,,,0.617,1,,,,,,,,,,,,,,,,,,,,,,,,-0.060914857,-0.387550692,0,0,0,,,,,,,SHELF,HB,m,y,./images/SHELFHB.png,,,,,,,m,1,0.617,,,,,,,,0,27,27,39,1
,,,,,,,,,,,,,,,,,200584,19,2022-01-28_15h02.57.206,lexical_decision_task_DD_L2,2021.2.3,Win32,60.93473889,,,,,,,,,,,,0.9006,1,,,,,,,,,,,,,,,,,,,,,,,,-0.060914857,-0.387550692,0,0,0,,,,,,,CANDY,HB,z,y,./images/CANDYHB.png,,,,,,,z,1,0.9006,,,,,,,,0,28,28,123,1
,,,,,,,,,,,,,,,,,200584,19,2022-01-28_15h02.57.206,lexical_decision_task_DD_L2,2021.2.3,Win32,60.93473889,,,,,,,,,,,,1.0181,1,,,,,,,,,,,,,,,,,,,,,,,,-0.060914857,-0.387550692,0,0,0,,,,,,,BONNET,C,m,y,./images/BONNET.png,,,,,,,m,1,1.0181,,,,,,,,0,29,29,11,1
,,,,,,,,,,,,,,,,,200584,19,2022-01-28_15h02.57.206,lexical_decision_task_DD_L2,2021.2.3,Win32,60.93473889,,,,,,,,,,,,0.7337,1,,,,,,,,,,,,,,,,,,,,,,,,-0.060914857,-0.387550692,0,0,0,,,,,,,CASINO,LB,z,y,./images/CASINOLB.png,,,,,,,z,1,0.7337,,,,,,,,0,30,30,112,1
,,,,,,,,,,,,,,,,,200584,19,2022-01-28_15h02.57.206,lexical_decision_task_DD_L2,2021.2.3,Win32,60.93473889,,,,,,,,,,,,0.8508,1,,,,,,,,,,,,,,,,,,,,,,,,-0.060914857,-0.387550692,0,0,0,,,,,,,CEMENT,C,m,y,./images/CEMENT.png,,,,,,,m,1,0.8508,,,,,,,,0,31,31,74,1
,,,,,,,,,,,,,,,,,200584,19,2022-01-28_15h02.57.206,lexical_decision_task_DD_L2,2021.2.3,Win32,60.93473889,,,,,,,,,,,,0.718,1,,,,,,,,,,,,,,,,,,,,,,,,-0.060914857,-0.387550692,0,0,0,,,,,,,STEAK,LB,z,y,./images/STEAKLB.png,,,,,,,z,1,0.718,,,,,,,,0,32,32,115,1
,,,,,,,,,,,,,,,,,200584,19,2022-01-28_15h02.57.206,lexical_decision_task_DD_L2,2021.2.3,Win32,60.93473889,,,,,,,,,,,,1.0011,0,,,,,,,,,,,,,,,,,,,,,,,,-0.060914857,-0.387550692,0,0,0,,,,,,,ARTIST,LB,z,y,./images/ARTISTLB.png,,,,,,,m,0,1.0011,,,,,,,,0,33,33,145,1
,,,,,,,,,,,,,,,,,200584,19,2022-01-28_15h02.57.206,lexical_decision_task_DD_L2,2021.2.3,Win32,60.93473889,,,,,,,,,,,,0.6337,1,,,,,,,,,,,,,,,,,,,,,,,,-0.154487529,-0.499652607,0,0,0,,,,,,,SCREW,HB,m,y,./images/SCREWHB.png,,,,,,,m,1,0.6337,,,,,,,,0,34,34,24,1
,,,,,,,,,,,,,,,,,200584,19,2022-01-28_15h02.57.206,lexical_decision_task_DD_L2,2021.2.3,Win32,60.93473889,,,,,,,,,,,,0.6495,0,,,,,,,,,,,,,,,,,,,,,,,,-0.154487529,-0.499652607,0,0,0,,,,,,,FENCE,C,z,y,./images/FENCE.png,,,,,,,m,0,0.6495,,,,,,,,0,35,35,98,1
,,,,,,,,,,,,,,,,,200584,19,2022-01-28_15h02.57.206,lexical_decision_task_DD_L2,2021.2.3,Win32,60.93473889,,,,,,,,,,,,0.6676,1,,,,,,,,,,,,,,,,,,,,,,,,-0.154487529,-0.499652607,0,0,0,,,,,,,PENCE,LB,m,y,./images/PENCELB.png,,,,,,,m,1,0.6676,,,,,,,,0,36,36,16,1
,,,,,,,,,,,,,,,,,200584,19,2022-01-28_15h02.57.206,lexical_decision_task_DD_L2,2021.2.3,Win32,60.93473889,,,,,,,,,,,,0.7843,0,,,,,,,,,,,,,,,,,,,,,,,,-0.154487529,-0.499652607,0,0,0,,,,,,,BAMBOO,C,z,y,./images/BAMBOO.png,,,,,,,m,0,0.7843,,,,,,,,0,37,37,89,1
,,,,,,,,,,,,,,,,,200584,19,2022-01-28_15h02.57.206,lexical_decision_task_DD_L2,2021.2.3,Win32,60.93473889,,,,,,,,,,,,0.6165,1,,,,,,,,,,,,,,,,,,,,,,,,-0.154487529,-0.499652607,0,0,0,,,,,,,SAILOR,LB,m,y,./images/SAILORLB.png,,,,,,,m,1,0.6165,,,,,,,,0,38,38,67,1
,,,,,,,,,,,,,,,,,200584,19,2022-01-28_15h02.57.206,lexical_decision_task_DD_L2,2021.2.3,Win32,60.93473889,,,,,,,,,,,,0.6342,1,,,,,,,,,,,,,,,,,,,,,,,,-0.154487529,-0.499652607,0,0,0,,,,,,,SHORE,HB,m,y,./images/SHOREHB.png,,,,,,,m,1,0.6342,,,,,,,,0,39,39,12,1
,,,,,,,,,,,,,,,,,200584,19,2022-01-28_15h02.57.206,lexical_decision_task_DD_L2,2021.2.3,Win32,60.93473889,,,,,,,,,,,,0.6008,1,,,,,,,,,,,,,,,,,,,,,,,,-0.154487529,-0.499652607,0,0,0,,,,,,,WRIST,LB,m,y,./images/WRISTLB.png,,,,,,,m,1,0.6008,,,,,,,,0,40,40,25,1
,,,,,,,,,,,,,,,,,200584,19,2022-01-28_15h02.57.206,lexical_decision_task_DD_L2,2021.2.3,Win32,60.93473889,,,,,,,,,,,,0.6002,1,,,,,,,,,,,,,,,,,,,,,,,,-0.154487529,-0.499652607,0,0,0,space,,,,,,MUSCLE,LB,m,y,./images/MUSCLELB.png,22.2659,,,,,,m,1,0.6002,,,,,,,,0,41,41,4,1
,,,,,,,,,,,,,,,,,200584,19,2022-01-28_15h02.57.206,lexical_decision_task_DD_L2,2021.2.3,Win32,60.93473889,,,,,,,,,,,,0.6512,1,,,,,,,,,,,,,,,,,,,,,,,,-0.154487529,-0.499652607,0,0,0,,,,,,,BERRY,C,m,y,./images/BERRY.png,,,,,,,m,1,0.6512,,,,,,,,0,42,42,47,1
,,,,,,,,,,,,,,,,,200584,19,2022-01-28_15h02.57.206,lexical_decision_task_DD_L2,2021.2.3,Win32,60.93473889,,,,,,,,,,,,0.9354,0,,,,,,,,,,,,,,,,,,,,,,,,-0.154487529,-0.499652607,0,0,0,,,,,,,JAGUAR,HB,m,y,./images/JAGUARHB.png,,,,,,,z,0,0.9354,,,,,,,,0,43,43,18,1
,,,,,,,,,,,,,,,,,200584,19,2022-01-28_15h02.57.206,lexical_decision_task_DD_L2,2021.2.3,Win32,60.93473889,,,,,,,,,,,,0.7355,1,,,,,,,,,,,,,,,,,,,,,,,,-0.154487529,-0.499652607,0,0,0,,,,,,,MUFFIN,LB,m,y,./images/MUFFINLB.png,,,,,,,m,1,0.7355,,,,,,,,0,44,44,55,1
,,,,,,,,,,,,,,,,,200584,19,2022-01-28_15h02.57.206,lexical_decision_task_DD_L2,2021.2.3,Win32,60.93473889,,,,,,,,,,,,1.0887,1,,,,,,,,,,,,,,,,,,,,,,,,-0.154487529,-0.499652607,0,0,0,,,,,,,FERRY,HB,z,y,./images/FERRYHB.png,,,,,,,z,1,1.0887,,,,,,,,0,45,45,141,1
,,,,,,,,,,,,,,,,,200584,19,2022-01-28_15h02.57.206,lexical_decision_task_DD_L2,2021.2.3,Win32,60.93473889,,,,,,,,,,,,0.6465,1,,,,,,,,,,,,,,,,,,,,,,,,-0.154487529,-0.499652607,0,0,0,,,,,,,CRUMB,C,m,y,./images/CRUMB.png,,,,,,,m,1,0.6465,,,,,,,,0,46,46,29,1
,,,,,,,,,,,,,,,,,200584,19,2022-01-28_15h02.57.206,lexical_decision_task_DD_L2,2021.2.3,Win32,60.93473889,,,,,,,,,,,,0.6511,1,,,,,,,,,,,,,,,,,,,,,,,,-0.154487529,-0.499652607,0,0,0,,,,,,,RHINO,HB,m,y,./images/RHINOHB.png,,,,,,,m,1,0.6511,,,,,,,,0,47,47,9,1
,,,,,,,,,,,,,,,,,200584,19,2022-01-28_15h02.57.206,lexical_decision_task_DD_L2,2021.2.3,Win32,60.93473889,,,,,,,,,,,,1.0062,1,,,,,,,,,,,,,,,,,,,,,,,,-0.154487529,-0.499652607,0,0,0,,,,,,,LITTER,HB,m,y,./images/LITTERHB.png,,,,,,,m,1,1.0062,,,,,,,,0,48,48,78,1
,,,,,,,,,,,,,,,,,200584,19,2022-01-28_15h02.57.206,lexical_decision_task_DD_L2,2021.2.3,Win32,60.93473889,,,,,,,,,,,,1.5696,0,,,,,,,,,,,,,,,,,,,,,,,,-0.154487529,-0.499652607,0,0,0,,,,,,,NOOSE,HB,m,y,./images/NOOSEHB.png,,,,,,,z,0,1.5696,,,,,,,,0,49,49,72,1
,,,,,,,,,,,,,,,,,200584,19,2022-01-28_15h02.57.206,lexical_decision_task_DD_L2,2021.2.3,Win32,60.93473889,,,,,,,,,,,,0.9849,1,,,,,,,,,,,,,,,,,,,,,,,,-0.154487529,-0.499652607,0,0,0,,,,,,,BLOKE,HB,z,y,./images/BLOKEHB.png,,,,,,,z,1,0.9849,,,,,,,,0,50,50,96,1
,,,,,,,,,,,,,,,,,200584,19,2022-01-28_15h02.57.206,lexical_decision_task_DD_L2,2021.2.3,Win32,60.93473889,,,,,,,,,,,,0.7848,1,,,,,,,,,,,,,,,,,,,,,,,,-0.154487529,-0.499652607,0,0,0,,,,,,,CARPET,C,m,y,./images/CARPET.png,,,,,,,m,1,0.7848,,,,,,,,0,51,51,53,1
,,,,,,,,,,,,,,,,,200584,19,2022-01-28_15h02.57.206,lexical_decision_task_DD_L2,2021.2.3,Win32,60.93473889,,,,,,,,,,,,0.984,1,,,,,,,,,,,,,,,,,,,,,,,,-0.154487529,-0.499652607,0,0,0,,,,,,,RAZOR,LB,z,y,./images/RAZORLB.png,,,,,,,z,1,0.984,,,,,,,,0,52,52,118,1
,,,,,,,,,,,,,,,,,200584,19,2022-01-28_15h02.57.206,lexical_decision_task_DD_L2,2021.2.3,Win32,60.93473889,,,,,,,,,,,,1.3351,1,,,,,,,,,,,,,,,,,,,,,,,,-0.154487529,-0.499652607,0,0,0,,,,,,,BABOON,LB,m,y,./images/BABOONLB.png,,,,,,,m,1,1.3351,,,,,,,,0,53,53,58,1
,,,,,,,,,,,,,,,,,200584,19,2022-01-28_15h02.57.206,lexical_decision_task_DD_L2,2021.2.3,Win32,60.93473889,,,,,,,,,,,,0.7376,1,,,,,,,,,,,,,,,,,,,,,,,,-0.154487529,-0.499652607,0,0,0,,,,,,,VALLEY,C,z,y,./images/VALLEY.png,,,,,,,z,1,0.7376,,,,,,,,0,54,54,152,1
,,,,,,,,,,,,,,,,,200584,19,2022-01-28_15h02.57.206,lexical_decision_task_DD_L2,2021.2.3,Win32,60.93473889,,,,,,,,,,,,0.9033,1,,,,,,,,,,,,,,,,,,,,,,,,-0.154487529,-0.499652607,0,0,0,,,,,,,ARROW,HB,z,y,./images/ARROWHB.png,,,,,,,z,1,0.9033,,,,,,,,0,55,55,153,1
,,,,,,,,,,,,,,,,,200584,19,2022-01-28_15h02.57.206,lexical_decision_task_DD_L2,2021.2.3,Win32,60.93473889,,,,,,,,,,,,0.6772,1,,,,,,,,,,,,,,,,,,,,,,,,-0.154487529,-0.499652607,0,0,0,,,,,,,JELLY,LB,m,y,./images/JELLYLB.png,,,,,,,m,1,0.6772,,,,,,,,0,56,56,64,1
,,,,,,,,,,,,,,,,,200584,19,2022-01-28_15h02.57.206,lexical_decision_task_DD_L2,2021.2.3,Win32,60.93473889,,,,,,,,,,,,1.3187,0,,,,,,,,,,,,,,,,,,,,,,,,-0.154487529,-0.499652607,0,0,0,,,,,,,WALRUS,C,m,y,./images/WALRUS.png,,,,,,,z,0,1.3187,,,,,,,,0,57,57,23,1
,,,,,,,,,,,,,,,,,200584,19,2022-01-28_15h02.57.206,lexical_decision_task_DD_L2,2021.2.3,Win32,60.93473889,,,,,,,,,,,,0.8022,1,,,,,,,,,,,,,,,,,,,,,,,,-0.154487529,-0.499652607,0,0,0,,,,,,,GRANNY,C,z,y,./images/GRANNY.png,,,,,,,z,1,0.8022,,,,,,,,0,58,58,104,1
,,,,,,,,,,,,,,,,,200584,19,2022-01-28_15h02.57.206,lexical_decision_task_DD_L2,2021.2.3,Win32,60.93473889,,,,,,,,,,,,1.0538,1,,,,,,,,,,,,,,,,,,,,,,,,-0.154487529,-0.499652607,0,0,0,,,,,,,LADDER,C,m,y,./images/LADDER.png,,,,,,,m,1,1.0538,,,,,,,,0,59,59,38,1
,,,,,,,,,,,,,,,,,200584,19,2022-01-28_15h02.57.206,lexical_decision_task_DD_L2,2021.2.3,Win32,60.93473889,,,,,,,,,,,,0.7533,1,,,,,,,,,,,,,,,,,,,,,,,,-0.154487529,-0.499652607,0,0,0,,,,,,,PACKET,C,m,y,./images/PACKET.png,,,,,,,m,1,0.7533,,,,,,,,0,60,60,56,1
,,,,,,,,,,,,,,,,,200584,19,2022-01-28_15h02.57.206,lexical_decision_task_DD_L2,2021.2.3,Win32,60.93473889,,,,,,,,,,,,0.8416,1,,,,,,,,,,,,,,,,,,,,,,,,-0.154487529,-0.499652607,0,0,0,,,,,,,DRILL,HB,z,y,./images/DRILLHB.png,,,,,,,z,1,0.8416,,,,,,,,0,61,61,165,1
,,,,,,,,,,,,,,,,,200584,19,2022-01-28_15h02.57.206,lexical_decision_task_DD_L2,2021.2.3,Win32,60.93473889,,,,,,,,,,,,1.0358,1,,,,,,,,,,,,,,,,,,,,,,,,-0.154487529,-0.499652607,0,0,0,,,,,,,TORCH,C,m,y,./images/TORCH.png,,,,,,,m,1,1.0358,,,,,,,,0,62,62,68,1
,,,,,,,,,,,,,,,,,200584,19,2022-01-28_15h02.57.206,lexical_decision_task_DD_L2,2021.2.3,Win32,60.93473889,,,,,,,,,,,,0.9036,1,,,,,,,,,,,,,,,,,,,,,,,,-0.154487529,-0.499652607,0,0,0,,,,,,,PICKLE,C,m,y,./images/PICKLE.png,,,,,,,m,1,0.9036,,,,,,,,0,63,63,14,1
,,,,,,,,,,,,,,,,,200584,19,2022-01-28_15h02.57.206,lexical_decision_task_DD_L2,2021.2.3,Win32,60.93473889,,,,,,,,,,,,0.918,1,,,,,,,,,,,,,,,,,,,,,,,,-0.154487529,-0.499652607,0,0,0,,,,,,,CURRY,HB,z,y,./images/CURRYHB.png,,,,,,,z,1,0.918,,,,,,,,0,64,64,144,1
,,,,,,,,,,,,,,,,,200584,19,2022-01-28_15h02.57.206,lexical_decision_task_DD_L2,2021.2.3,Win32,60.93473889,,,,,,,,,,,,0.7422,1,,,,,,,,,,,,,,,,,,,,,,,,-0.154487529,-0.499652607,0,0,0,,,,,,,PEARL,LB,m,y,./images/PEARLLB.png,,,,,,,m,1,0.7422,,,,,,,,0,65,65,46,1
,,,,,,,,,,,,,,,,,200584,19,2022-01-28_15h02.57.206,lexical_decision_task_DD_L2,2021.2.3,Win32,60.93473889,,,,,,,,,,,,0.8511,1,,,,,,,,,,,,,,,,,,,,,,,,-0.154487529,-0.499652607,0,0,0,,,,,,,HEATER,C,z,y,./images/HEATER.png,,,,,,,z,1,0.8511,,,,,,,,0,66,66,140,1
,,,,,,,,,,,,,,,,,200584,19,2022-01-28_15h02.57.206,lexical_decision_task_DD_L2,2021.2.3,Win32,60.93473889,,,,,,,,,,,,1.2752,1,,,,,,,,,,,,,,,,,,,,,,,,-0.154487529,-0.499652607,0,0,0,,,,,,,LIZARD,C,m,y,./images/LIZARD.png,,,,,,,m,1,1.2752,,,,,,,,0,67,67,44,1
,,,,,,,,,,,,,,,,,200584,19,2022-01-28_15h02.57.206,lexical_decision_task_DD_L2,2021.2.3,Win32,60.93473889,,,,,,,,,,,,0.8101,1,,,,,,,,,,,,,,,,,,,,,,,,-0.154487529,-0.499652607,0,0,0,,,,,,,CLOUD,C,z,y,./images/CLOUD.png,,,,,,,z,1,0.8101,,,,,,,,0,68,68,110,1
,,,,,,,,,,,,,,,,,200584,19,2022-01-28_15h02.57.206,lexical_decision_task_DD_L2,2021.2.3,Win32,60.93473889,,,,,,,,,,,,0.6929,0,,,,,,,,,,,,,,,,,,,,,,,,-0.154487529,-0.499652607,0,0,0,,,,,,,MALLET,C,m,y,./images/MALLET.png,,,,,,,z,0,0.6929,,,,,,,,0,69,69,50,1
,,,,,,,,,,,,,,,,,200584,19,2022-01-28_15h02.57.206,lexical_decision_task_DD_L2,2021.2.3,Win32,60.93473889,,,,,,,,,,,,0.9875,0,,,,,,,,,,,,,,,,,,,,,,,,-0.154487529,-0.499652607,0,0,0,,,,,,,WALNUT,HB,z,y,./images/WALNUTHB.png,,,,,,,m,0,0.9875,,,,,,,,0,70,70,84,1
,,,,,,,,,,,,,,,,,200584,19,2022-01-28_15h02.57.206,lexical_decision_task_DD_L2,2021.2.3,Win32,60.93473889,,,,,,,,,,,,0.7877,1,,,,,,,,,,,,,,,,,,,,,,,,-0.154487529,-0.499652607,0,0,0,,,,,,,ENGINE,C,z,y,./images/ENGINE.png,,,,,,,z,1,0.7877,,,,,,,,0,71,71,122,1
,,,,,,,,,,,,,,,,,200584,19,2022-01-28_15h02.57.206,lexical_decision_task_DD_L2,2021.2.3,Win32,60.93473889,,,,,,,,,,,,0.6179,1,,,,,,,,,,,,,,,,,,,,,,,,-0.154487529,-0.499652607,0,0,0,,,,,,,SUNSET,LB,m,y,./images/SUNSETLB.png,,,,,,,m,1,0.6179,,,,,,,,0,72,72,82,1
,,,,,,,,,,,,,,,,,200584,19,2022-01-28_15h02.57.206,lexical_decision_task_DD_L2,2021.2.3,Win32,60.93473889,,,,,,,,,,,,0.8284,1,,,,,,,,,,,,,,,,,,,,,,,,-0.154487529,-0.499652607,0,0,0,,,,,,,BUNNY,LB,z,y,./images/BUNNYLB.png,,,,,,,z,1,0.8284,,,,,,,,0,73,73,97,1
,,,,,,,,,,,,,,,,,200584,19,2022-01-28_15h02.57.206,lexical_decision_task_DD_L2,2021.2.3,Win32,60.93473889,,,,,,,,,,,,0.7054,1,,,,,,,,,,,,,,,,,,,,,,,,-0.154487529,-0.499652607,0,0,0,,,,,,,WAGON,LB,z,y,./images/WAGONLB.png,,,,,,,z,1,0.7054,,,,,,,,0,74,74,91,1
,,,,,,,,,,,,,,,,,200584,19,2022-01-28_15h02.57.206,lexical_decision_task_DD_L2,2021.2.3,Win32,60.93473889,,,,,,,,,,,,0.787,0,,,,,,,,,,,,,,,,,,,,,,,,-0.154487529,-0.499652607,0,0,0,,,,,,,CRADLE,C,m,y,./images/CRADLE.png,,,,,,,z,0,0.787,,,,,,,,0,75,75,20,1
,,,,,,,,,,,,,,,,,200584,19,2022-01-28_15h02.57.206,lexical_decision_task_DD_L2,2021.2.3,Win32,60.93473889,,,,,,,,,,,,1.0187,1,,,,,,,,,,,,,,,,,,,,,,,,-0.154487529,-0.499652607,0,0,0,,,,,,,CANOE,LB,z,y,./images/CANOELB.png,,,,,,,z,1,1.0187,,,,,,,,0,76,76,142,1
,,,,,,,,,,,,,,,,,200584,19,2022-01-28_15h02.57.206,lexical_decision_task_DD_L2,2021.2.3,Win32,60.93473889,,,,,,,,,,,,1.0847,0,,,,,,,,,,,,,,,,,,,,,,,,-0.154487529,-0.499652607,0,0,0,,,,,,,MOOSE,HB,m,y,./images/MOOSEHB.png,,,,,,,z,0,1.0847,,,,,,,,0,77,77,57,1
,,,,,,,,,,,,,,,,,200584,19,2022-01-28_15h02.57.206,lexical_decision_task_DD_L2,2021.2.3,Win32,60.93473889,,,,,,,,,,,,0.7692,1,,,,,,,,,,,,,,,,,,,,,,,,-0.154487529,-0.499652607,0,0,0,,,,,,,COLLAR,HB,z,y,./images/COLLARHB.png,,,,,,,z,1,0.7692,,,,,,,,0,78,78,99,1
,,,,,,,,,,,,,,,,,200584,19,2022-01-28_15h02.57.206,lexical_decision_task_DD_L2,2021.2.3,Win32,60.93473889,,,,,,,,,,,,0.6856,1,,,,,,,,,,,,,,,,,,,,,,,,-0.154487529,-0.499652607,0,0,0,,,,,,,SMOKER,C,m,y,./images/SMOKER.png,,,,,,,m,1,0.6856,,,,,,,,0,79,79,26,1
,,,,,,,,,,,,,,,,,200584,19,2022-01-28_15h02.57.206,lexical_decision_task_DD_L2,2021.2.3,Win32,60.93473889,,,,,,,,,,,,0.6437,1,,,,,,,,,,,,,,,,,,,,,,,,-0.154487529,-0.499652607,0,0,0,,,,,,,LLAMA,C,z,y,./images/LLAMA.png,,,,,,,z,1,0.6437,,,,,,,,0,80,80,119,1
,,,,,,,,,,,,,,,,,200584,19,2022-01-28_15h02.57.206,lexical_decision_task_DD_L2,2021.2.3,Win32,60.93473889,,,,,,,,,,,,1.0725,1,,,,,,,,,,,,,,,,,,,,,,,,-0.154487529,-0.499652607,0,0,0,,,,,,,TOWEL,LB,z,y,./images/TOWELLB.png,,,,,,,z,1,1.0725,,,,,,,,0,81,81,85,1
,,,,,,,,,,,,,,,,,200584,19,2022-01-28_15h02.57.206,lexical_decision_task_DD_L2,2021.2.3,Win32,60.93473889,,,,,,,,,,,,0.9707,1,,,,,,,,,,,,,,,,,,,,,,,,-0.154487529,-0.499652607,0,0,0,,,,,,,BUTTER,HB,z,y,./images/BUTTERHB.png,,,,,,,z,1,0.9707,,,,,,,,0,82,82,111,1
,,,,,,,,,,,,,,,,,200584,19,2022-01-28_15h02.57.206,lexical_decision_task_DD_L2,2021.2.3,Win32,60.93473889,,,,,,,,,,,,1.273,1,,,,,,,,,,,,,,,,,,,,,,,,-0.154487529,-0.499652607,0,0,0,space,,,,,,BOXER,LB,z,y,./images/BOXERLB.png,7.1868,,,,,,z,1,1.273,,,,,,,,0,83,83,88,1
,,,,,,,,,,,,,,,,,200584,19,2022-01-28_15h02.57.206,lexical_decision_task_DD_L2,2021.2.3,Win32,60.93473889,,,,,,,,,,,,0.9261,1,,,,,,,,,,,,,,,,,,,,,,,,-0.154487529,-0.499652607,0,0,0,,,,,,,QUILL,LB,m,y,./images/QUILLLB.png,,,,,,,m,1,0.9261,,,,,,,,0,84,84,31,1
,,,,,,,,,,,,,,,,,200584,19,2022-01-28_15h02.57.206,lexical_decision_task_DD_L2,2021.2.3,Win32,60.93473889,,,,,,,,,,,,0.7852,1,,,,,,,,,,,,,,,,,,,,,,,,-0.154487529,-0.499652607,0,0,0,,,,,,,JUMPER,C,z,y,./images/JUMPER.png,,,,,,,z,1,0.7852,,,,,,,,0,85,85,158,1
,,,,,,,,,,,,,,,,,200584,19,2022-01-28_15h02.57.206,lexical_decision_task_DD_L2,2021.2.3,Win32,60.93473889,,,,,,,,,,,,0.7017,1,,,,,,,,,,,,,,,,,,,,,,,,-0.154487529,-0.499652607,0,0,0,,,,,,,SLOPE,HB,z,y,./images/SLOPEHB.png,,,,,,,z,1,0.7017,,,,,,,,0,86,86,114,1
,,,,,,,,,,,,,,,,,200584,19,2022-01-28_15h02.57.206,lexical_decision_task_DD_L2,2021.2.3,Win32,60.93473889,,,,,,,,,,,,0.6677,1,,,,,,,,,,,,,,,,,,,,,,,,-0.154487529,-0.499652607,0,0,0,,,,,,,POSTER,C,z,y,./images/POSTER.png,,,,,,,z,1,0.6677,,,,,,,,0,87,87,137,1
,,,,,,,,,,,,,,,,,200584,19,2022-01-28_15h02.57.206,lexical_decision_task_DD_L2,2021.2.3,Win32,60.93473889,,,,,,,,,,,,0.735,1,,,,,,,,,,,,,,,,,,,,,,,,-0.154487529,-0.499652607,0,0,0,,,,,,,MIRROR,HB,m,y,./images/MIRRORHB.png,,,,,,,m,1,0.735,,,,,,,,0,88,88,63,1
,,,,,,,,,,,,,,,,,200584,19,2022-01-28_15h02.57.206,lexical_decision_task_DD_L2,2021.2.3,Win32,60.93473889,,,,,,,,,,,,0.6343,0,,,,,,,,,,,,,,,,,,,,,,,,-0.154487529,-0.499652607,0,0,0,,,,,,,BURIAL,C,m,y,./images/BURIAL.png,,,,,,,z,0,0.6343,,,,,,,,0,89,89,59,1
,,,,,,,,,,,,,,,,,200584,19,2022-01-28_15h02.57.206,lexical_decision_task_DD_L2,2021.2.3,Win32,60.93473889,,,,,,,,,,,,0.7512,1,,,,,,,,,,,,,,,,,,,,,,,,-0.154487529,-0.499652607,0,0,0,,,,,,,DIVER,HB,z,y,./images/DIVERHB.png,,,,,,,z,1,0.7512,,,,,,,,0,90,90,93,1
,,,,,,,,,,,,,,,,,200584,19,2022-01-28_15h02.57.206,lexical_decision_task_DD_L2,2021.2.3,Win32,60.93473889,,,,,,,,,,,,0.8698,1,,,,,,,,,,,,,,,,,,,,,,,,-0.154487529,-0.499652607,0,0,0,,,,,,,MAMMAL,C,z,y,./images/MAMMAL.png,,,,,,,z,1,0.8698,,,,,,,,0,91,91,146,1
,,,,,,,,,,,,,,,,,200584,19,2022-01-28_15h02.57.206,lexical_decision_task_DD_L2,2021.2.3,Win32,60.93473889,,,,,,,,,,,,1.0534,0,,,,,,,,,,,,,,,,,,,,,,,,-0.154487529,-0.499652607,0,0,0,,,,,,,WEASEL,C,m,y,./images/WEASEL.png,,,,,,,z,0,1.0534,,,,,,,,0,92,92,80,1
,,,,,,,,,,,,,,,,,200584,19,2022-01-28_15h02.57.206,lexical_decision_task_DD_L2,2021.2.3,Win32,60.93473889,,,,,,,,,,,,0.9093,0,,,,,,,,,,,,,,,,,,,,,,,,-0.154487529,-0.499652607,0,0,0,,,,,,,STRING,C,m,y,./images/STRING.png,,,,,,,z,0,0.9093,,,,,,,,0,93,93,41,1
,,,,,,,,,,,,,,,,,200584,19,2022-01-28_15h02.57.206,lexical_decision_task_DD_L2,2021.2.3,Win32,60.93473889,,,,,,,,,,,,0.6846,1,,,,,,,,,,,,,,,,,,,,,,,,-0.154487529,-0.499652607,0,0,0,,,,,,,POKER,LB,z,y,./images/POKERLB.png,,,,,,,z,1,0.6846,,,,,,,,0,94,94,151,1
,,,,,,,,,,,,,,,,,200584,19,2022-01-28_15h02.57.206,lexical_decision_task_DD_L2,2021.2.3,Win32,60.93473889,,,,,,,,,,,,1.0065,0,,,,,,,,,,,,,,,,,,,,,,,,-0.154487529,-0.499652607,0,0,0,,,,,,,BRUSH,C,z,y,./images/BRUSH.png,,,,,,,m,0,1.0065,,,,,,,,0,95,95,143,1
,,,,,,,,,,,,,,,,,200584,19,2022-01-28_15h02.57.206,lexical_decision_task_DD_L2,2021.2.3,Win32,60.93473889,,,,,,,,,,,,0.9853,0,,,,,,,,,,,,,,,,,,,,,,,,-0.154487529,-0.499652607,0,0,0,,,,,,,BARREL,C,m,y,./images/BARREL.png,,,,,,,z,0,0.9853,,,,,,,,0,96,96,32,1
,,,,,,,,,,,,,,,,,200584,19,2022-01-28_15h02.57.206,lexical_decision_task_DD_L2,2021.2.3,Win32,60.93473889,,,,,,,,,,,,1.1263,0,,,,,,,,,,,,,,,,,,,,,,,,-0.154487529,-0.499652607,0,0,0,,,,,,,FINGER,HB,m,y,./images/FINGERHB.png,,,,,,,z,0,1.1263,,,,,,,,0,97,97,3,1
,,,,,,,,,,,,,,,,,200584,19,2022-01-28_15h02.57.206,lexical_decision_task_DD_L2,2021.2.3,Win32,60.93473889,,,,,,,,,,,,0.5531,1,,,,,,,,,,,,,,,,,,,,,,,,-0.154487529,-0.499652607,0,0,0,,,,,,,KITTEN,HB,m,y,./images/KITTENHB.png,,,,,,,m,1,0.5531,,,,,,,,0,98,98,45,1
,,,,,,,,,,,,,,,,,200584,19,2022-01-28_15h02.57.206,lexical_decision_task_DD_L2,2021.2.3,Win32,60.93473889,,,,,,,,,,,,0.9266,0,,,,,,,,,,,,,,,,,,,,,,,,-0.154487529,-0.499652607,0,0,0,,,,,,,CHALK,LB,z,y,./images/CHALKLB.png,,,,,,,m,0,0.9266,,,,,,,,0,99,99,109,1
,,,,,,,,,,,,,,,,,200584,19,2022-01-28_15h02.57.206,lexical_decision_task_DD_L2,2021.2.3,Win32,60.93473889,,,,,,,,,,,,0.7383,1,,,,,,,,,,,,,,,,,,,,,,,,-0.154487529,-0.499652607,0,0,0,,,,,,,MONKEY,HB,z,y,./images/MONKEYHB.png,,,,,,,z,1,0.7383,,,,,,,,0,100,100,129,1
,,,,,,,,,,,,,,,,,200584,19,2022-01-28_15h02.57.206,lexical_decision_task_DD_L2,2021.2.3,Win32,60.93473889,,,,,,,,,,,,0.9017,1,,,,,,,,,,,,,,,,,,,,,,,,-0.154487529,-0.499652607,0,0,0,,,,,,,BEARD,C,m,y,./images/BEARD.png,,,,,,,m,1,0.9017,,,,,,,,0,101,101,2,1
,,,,,,,,,,,,,,,,,200584,19,2022-01-28_15h02.57.206,lexical_decision_task_DD_L2,2021.2.3,Win32,60.93473889,,,,,,,,,,,,0.785,1,,,,,,,,,,,,,,,,,,,,,,,,-0.154487529,-0.499652607,0,0,0,,,,,,,BRIDE,LB,z,y,./images/BRIDELB.png,,,,,,,z,1,0.785,,,,,,,,0,102,102,148,1
,,,,,,,,,,,,,,,,,200584,19,2022-01-28_15h02.57.206,lexical_decision_task_DD_L2,2021.2.3,Win32,60.93473889,,,,,,,,,,,,0.7426,1,,,,,,,,,,,,,,,,,,,,,,,,-0.154487529,-0.499652607,0,0,0,,,,,,,FLESH,HB,z,y,./images/FLESHHB.png,,,,,,,z,1,0.7426,,,,,,,,0,103,103,108,1
,,,,,,,,,,,,,,,,,200584,19,2022-01-28_15h02.57.206,lexical_decision_task_DD_L2,2021.2.3,Win32,60.93473889,,,,,,,,,,,,1.1374,1,,,,,,,,,,,,,,,,,,,,,,,,-0.154487529,-0.499652607,0,0,0,,,,,,,STREAM,C,z,y,./images/STREAM.png,,,,,,,z,1,1.1374,,,,,,,,0,104,104,125,1
,,,,,,,,,,,,,,,,,200584,19,2022-01-28_15h02.57.206,lexical_decision_task_DD_L2,2021.2.3,Win32,60.93473889,,,,,,,,,,,,1.1181,1,,,,,,,,,,,,,,,,,,,,,,,,-0.154487529,-0.499652607,0,0,0,,,,,,,BAKER,HB,z,y,./images/BAKERHB.png,,,,,,,z,1,1.1181,,,,,,,,0,105,105,147,1
,,,,,,,,,,,,,,,,,200584,19,2022-01-28_15h02.57.206,lexical_decision_task_DD_L2,2021.2.3,Win32,60.93473889,,,,,,,,,,,,0.6181,1,,,,,,,,,,,,,,,,,,,,,,,,-0.154487529,-0.499652607,0,0,0,,,,,,,ATTIC,HB,m,y,./images/ATTICHB.png,,,,,,,m,1,0.6181,,,,,,,,0,106,106,27,1
,,,,,,,,,,,,,,,,,200584,19,2022-01-28_15h02.57.206,lexical_decision_task_DD_L2,2021.2.3,Win32,60.93473889,,,,,,,,,,,,0.6438,1,,,,,,,,,,,,,,,,,,,,,,,,-0.154487529,-0.499652607,0,0,0,,,,,,,PISTOL,C,z,y,./images/PISTOL.png,,,,,,,z,1,0.6438,,,,,,,,0,107,107,113,1
,,,,,,,,,,,,,,,,,200584,19,2022-01-28_15h02.57.206,lexical_decision_task_DD_L2,2021.2.3,Win32,60.93473889,,,,,,,,,,,,0.8106,1,,,,,,,,,,,,,,,,,,,,,,,,-0.154487529,-0.499652607,0,0,0,,,,,,,PLANK,LB,m,y,./images/PLANKLB.png,,,,,,,m,1,0.8106,,,,,,,,0,108,108,1,1
,,,,,,,,,,,,,,,,,200584,19,2022-01-28_15h02.57.206,lexical_decision_task_DD_L2,2021.2.3,Win32,60.93473889,,,,,,,,,,,,0.6182,1,,,,,,,,,,,,,,,,,,,,,,,,-0.154487529,-0.499652607,0,0,0,,,,,,,GRAPE,LB,z,y,./images/GRAPELB.png,,,,,,,z,1,0.6182,,,,,,,,0,109,109,100,1
,,,,,,,,,,,,,,,,,200584,19,2022-01-28_15h02.57.206,lexical_decision_task_DD_L2,2021.2.3,Win32,60.93473889,,,,,,,,,,,,0.6204,1,,,,,,,,,,,,,,,,,,,,,,,,-0.154487529,-0.499652607,0,0,0,,,,,,,MIDGET,LB,z,y,./images/MIDGETLB.png,,,,,,,z,1,0.6204,,,,,,,,0,110,110,160,1
,,,,,,,,,,,,,,,,,200584,19,2022-01-28_15h02.57.206,lexical_decision_task_DD_L2,2021.2.3,Win32,60.93473889,,,,,,,,,,,,0.8196,1,,,,,,,,,,,,,,,,,,,,,,,,-0.154487529,-0.499652607,0,0,0,,,,,,,CHERRY,HB,z,y,./images/CHERRYHB.png,,,,,,,z,1,0.8196,,,,,,,,0,111,111,138,1
,,,,,,,,,,,,,,,,,200584,19,2022-01-28_15h02.57.206,lexical_decision_task_DD_L2,2021.2.3,Win32,60.93473889,,,,,,,,,,,,0.6186,1,,,,,,,,,,,,,,,,,,,,,,,,-0.154487529,-0.499652607,0,0,0,,,,,,,STATUE,HB,z,y,./images/STATUEHB.png,,,,,,,z,1,0.6186,,,,,,,,0,112,112,150,1
,,,,,,,,,,,,,,,,,200584,19,2022-01-28_15h02.57.206,lexical_decision_task_DD_L2,2021.2.3,Win32,60.93473889,,,,,,,,,,,,0.7902,0,,,,,,,,,,,,,,,,,,,,,,,,-0.154487529,-0.499652607,0,0,0,,,,,,,JUNGLE,C,m,y,./images/JUNGLE.png,,,,,,,z,0,0.7902,,,,,,,,0,113,113,83,1
,,,,,,,,,,,,,,,,,200584,19,2022-01-28_15h02.57.206,lexical_decision_task_DD_L2,2021.2.3,Win32,60.93473889,,,,,,,,,,,,0.6526,0,,,,,,,,,,,,,,,,,,,,,,,,-0.154487529,-0.499652607,0,0,0,,,,,,,MAGGOT,HB,m,y,./images/MAGGOTHB.png,,,,,,,z,0,0.6526,,,,,,,,0,114,114,33,1
,,,,,,,,,,,,,,,,,200584,19,2022-01-28_15h02.57.206,lexical_decision_task_DD_L2,2021.2.3,Win32,60.93473889,,,,,,,,,,,,0.7267,1,,,,,,,,,,,,,,,,,,,,,,,,-0.154487529,-0.499652607,0,0,0,,,,,,,GARDEN,LB,z,y,./images/GARDENLB.png,,,,,,,z,1,0.7267,,,,,,,,0,115,115,94,1
,,,,,,,,,,,,,,,,,200584,19,2022-01-28_15h02.57.206,lexical_decision_task_DD_L2,2021.2.3,Win32,60.93473889,,,,,,,,,,,,0.6575,1,,,,,,,,,,,,,,,,,,,,,,,,-0.154487529,-0.499652607,0,0,0,,,,,,,PURSE,C,m,y,./images/PURSE.png,,,,,,,m,1,0.6575,,,,,,,,0,116,116,62,1
,,,,,,,,,,,,,,,,,200584,19,2022-01-28_15h02.57.206,lexical_decision_task_DD_L2,2021.2.3,Win32,60.93473889,,,,,,,,,,,,1.0416,0,,,,,,,,,,,,,,,,,,,,,,,,-0.154487529,-0.499652607,0,0,0,,,,,,,CANDLE,LB,m,y,./images/CANDLELB.png,,,,,,,z,0,1.0416,,,,,,,,0,117,117,61,1
,,,,,,,,,,,,,,,,,200584,19,2022-01-28_15h02.57.206,lexical_decision_task_DD_L2,2021.2.3,Win32,60.93473889,,,,,,,,,,,,0.5696,0,,,,,,,,,,,,,,,,,,,,,,,,-0.154487529,-0.499652607,0,0,0,,,,,,,BIRTH,LB,m,y,./images/BIRTHLB.png,,,,,,,z,0,0.5696,,,,,,,,0,118,118,37,1
,,,,,,,,,,,,,,,,,200584,19,2022-01-28_15h02.57.206,lexical_decision_task_DD_L2,2021.2.3,Win32,60.93473889,,,,,,,,,,,,0.594,1,,,,,,,,,,,,,,,,,,,,,,,,-0.154487529,-0.499652607,0,0,0,,,,,,,SHIELD,HB,z,y,./images/SHIELDHB.png,,,,,,,z,1,0.594,,,,,,,,0,119,119,132,1
,,,,,,,,,,,,,,,,,200584,19,2022-01-28_15h02.57.206,lexical_decision_task_DD_L2,2021.2.3,Win32,60.93473889,,,,,,,,,,,,1.2783,1,,,,,,,,,,,,,,,,,,,,,,,,-0.154487529,-0.499652607,0,0,0,,,,,,,CLOWN,LB,z,y,./images/CLOWNLB.png,,,,,,,z,1,1.2783,,,,,,,,0,120,120,106,1
,,,,,,,,,,,,,,,,,200584,19,2022-01-28_15h02.57.206,lexical_decision_task_DD_L2,2021.2.3,Win32,60.93473889,,,,,,,,,,,,0.7856,1,,,,,,,,,,,,,,,,,,,,,,,,-0.154487529,-0.499652607,0,0,0,,,,,,,MOSQUE,LB,m,y,./images/MOSQUELB.png,,,,,,,m,1,0.7856,,,,,,,,0,121,121,43,1
,,,,,,,,,,,,,,,,,200584,19,2022-01-28_15h02.57.206,lexical_decision_task_DD_L2,2021.2.3,Win32,60.93473889,,,,,,,,,,,,0.7011,1,,,,,,,,,,,,,,,,,,,,,,,,-0.154487529,-0.499652607,0,0,0,,,,,,,COUCH,C,m,y,./images/COUCH.png,,,,,,,m,1,0.7011,,,,,,,,0,122,122,77,1
,,,,,,,,,,,,,,,,,200584,19,2022-01-28_15h02.57.206,lexical_decision_task_DD_L2,2021.2.3,Win32,60.93473889,,,,,,,,,,,,0.7358,1,,,,,,,,,,,,,,,,,,,,,,,,-0.154487529,-0.499652607,0,0,0,,,,,,,CANYON,LB,m,y,./images/CANYONLB.png,,,,,,,m,1,0.7358,,,,,,,,0,123,123,34,1
,,,,,,,,,,,,,,,,,200584,19,2022-01-28_15h02.57.206,lexical_decision_task_DD_L2,2021.2.3,Win32,60.93473889,,,,,,,,,,,,0.9844,1,,,,,,,,,,,,,,,,,,,,,,,,-0.154487529,-0.499652607,0,0,0,,,,,,,PAINT,LB,m,y,./images/PAINTLB.png,,,,,,,m,1,0.9844,,,,,,,,0,124,124,7,1
,,,,,,,,,,,,,,,,,200584,19,2022-01-28_15h02.57.206,lexical_decision_task_DD_L2,2021.2.3,Win32,60.93473889,,,,,,,,,,,,0.702,0,,,,,,,,,,,,,,,,,,,,,,,,-0.154487529,-0.499652607,0,0,0,space,,,,,,ONION,HB,m,y,./images/ONIONHB.png,9.6502,,,,,,z,0,0.702,,,,,,,,0,125,125,51,1
,,,,,,,,,,,,,,,,,200584,19,2022-01-28_15h02.57.206,lexical_decision_task_DD_L2,2021.2.3,Win32,60.93473889,,,,,,,,,,,,1.4358,1,,,,,,,,,,,,,,,,,,,,,,,,-0.154487529,-0.499652607,0,0,0,,,,,,,BUBBLE,C,z,y,./images/BUBBLE.png,,,,,,,z,1,1.4358,,,,,,,,0,126,126,155,1
,,,,,,,,,,,,,,,,,200584,19,2022-01-28_15h02.57.206,lexical_decision_task_DD_L2,2021.2.3,Win32,60.93473889,,,,,,,,,,,,0.6647,1,,,,,,,,,,,,,,,,,,,,,,,,-0.154487529,-0.499652607,0,0,0,,,,,,,LAGOON,C,z,y,./images/LAGOON.png,,,,,,,z,1,0.6647,,,,,,,,0,127,127,131,1
,,,,,,,,,,,,,,,,,200584,19,2022-01-28_15h02.57.206,lexical_decision_task_DD_L2,2021.2.3,Win32,60.93473889,,,,,,,,,,,,0.7436,1,,,,,,,,,,,,,,,,,,,,,,,,-0.154487529,-0.499652607,0,0,0,,,,,,,PIMPLE,C,m,y,./images/PIMPLE.png,,,,,,,m,1,0.7436,,,,,,,,0,128,128,71,1
,,,,,,,,,,,,,,,,,200584,19,2022-01-28_15h02.57.206,lexical_decision_task_DD_L2,2021.2.3,Win32,60.93473889,,,,,,,,,,,,0.6647,1,,,,,,,,,,,,,,,,,,,,,,,,-0.154487529,-0.499652607,0,0,0,,,,,,,URINE,LB,m,y,./images/URINELB.png,,,,,,,m,1,0.6647,,,,,,,,0,129,129,70,1
,,,,,,,,,,,,,,,,,200584,19,2022-01-28_15h02.57.206,lexical_decision_task_DD_L2,2021.2.3,Win32,60.93473889,,,,,,,,,,,,0.7508,1,,,,,,,,,,,,,,,,,,,,,,,,-0.154487529,-0.499652607,0,0,0,,,,,,,FARMER,C,m,y,./images/FARMER.png,,,,,,,m,1,0.7508,,,,,,,,0,130,130,65,1
,,,,,,,,,,,,,,,,,200584,19,2022-01-28_15h02.57.206,lexical_decision_task_DD_L2,2021.2.3,Win32,60.93473889,,,,,,,,,,,,0.851,1,,,,,,,,,,,,,,,,,,,,,,,,-0.154487529,-0.499652607,0,0,0,,,,,,,HAMMER,HB,z,y,./images/HAMMERHB.png,,,,,,,z,1,0.851,,,,,,,,0,131,131,159,1
,,,,,,,,,,,,,,,,,200584,19,2022-01-28_15h02.57.206,lexical_decision_task_DD_L2,2021.2.3,Win32,60.93473889,,,,,,,,,,,,0.6939,0,,,,,,,,,,,,,,,,,,,,,,,,-0.154487529,-0.499652607,0,0,0,,,,,,,DESERT,LB,z,y,./images/DESERTLB.png,,,,,,,m,0,0.6939,,,,,,,,0,132,132,136,1
,,,,,,,,,,,,,,,,,200584,19,2022-01-28_15h02.57.206,lexical_decision_task_DD_L2,2021.2.3,Win32,60.93473889,,,,,,,,,,,,0.6022,1,,,,,,,,,,,,,,,,,,,,,,,,-0.154487529,-0.499652607,0,0,0,,,,,,,MEDAL,C,z,y,./images/MEDAL.png,,,,,,,z,1,0.6022,,,,,,,,0,133,133,95,1
,,,,,,,,,,,,,,,,,200584,19,2022-01-28_15h02.57.206,lexical_decision_task_DD_L2,2021.2.3,Win32,60.93473889,,,,,,,,,,,,0.8178,0,,,,,,,,,,,,,,,,,,,,,,,,-0.154487529,-0.499652607,0,0,0,,,,,,,SQUARE,HB,m,y,./images/SQUAREHB.png,,,,,,,z,0,0.8178,,,,,,,,0,134,134,6,1
,,,,,,,,,,,,,,,,,200584,19,2022-01-28_15h02.57.206,lexical_decision_task_DD_L2,2021.2.3,Win32,60.93473889,,,,,,,,,,,,0.6843,0,,,,,,,,,,,,,,,,,,,,,,,,-0.154487529,-0.499652607,0,0,0,,,,,,,DRUMS,LB,m,y,./images/DRUMSLB.png,,,,,,,z,0,0.6843,,,,,,,,0,135,135,49,1
,,,,,,,,,,,,,,,,,200584,19,2022-01-28_15h02.57.206,lexical_decision_task_DD_L2,2021.2.3,Win32,60.93473889,,,,,,,,,,,,0.7843,1,,,,,,,,,,,,,,,,,,,,,,,,-0.154487529,-0.499652607,0,0,0,,,,,,,GRAIN,HB,m,y,./images/GRAINHB.png,,,,,,,m,1,0.7843,,,,,,,,0,136,136,75,1
,,,,,,,,,,,,,,,,,200584,19,2022-01-28_15h02.57.206,lexical_decision_task_DD_L2,2021.2.3,Win32,60.93473889,,,,,,,,,,,,0.6525,1,,,,,,,,,,,,,,,,,,,,,,,,-0.154487529,-0.499652607,0,0,0,,,,,,,RULER,LB,z,y,./images/RULERLB.png,,,,,,,z,1,0.6525,,,,,,,,0,137,137,163,1
,,,,,,,,,,,,,,,,,200584,19,2022-01-28_15h02.57.206,lexical_decision_task_DD_L2,2021.2.3,Win32,60.93473889,,,,,,,,,,,,0.8857,1,,,,,,,,,,,,,,,,,,,,,,,,-0.154487529,-0.499652607,0,0,0,,,,,,,DONKEY,LB,z,y,./images/DONKEYLB.png,,,,,,,z,1,0.8857,,,,,,,,0,138,138,103,1
,,,,,,,,,,,,,,,,,200584,19,2022-01-28_15h02.57.206,lexical_decision_task_DD_L2,2021.2.3,Win32,60.93473889,,,,,,,,,,,,0.9202,1,,,,,,,,,,,,,,,,,,,,,,,,-0.154487529,-0.499652607,0,0,0,,,,,,,DANCER,HB,z,y,./images/DANCERHB.png,,,,,,,z,1,0.9202,,,,,,,,0,139,139,105,1
,,,,,,,,,,,,,,,,,200584,19,2022-01-28_15h02.57.206,lexical_decision_task_DD_L2,2021.2.3,Win32,60.93473889,,,,,,,,,,,,0.7514,1,,,,,,,,,,,,,,,,,,,,,,,,-0.154487529,-0.499652607,0,0,0,,,,,,,BISHOP,LB,z,y,./images/BISHOPLB.png,,,,,,,z,1,0.7514,,,,,,,,0,140,140,133,1
,,,,,,,,,,,,,,,,,200584,19,2022-01-28_15h02.57.206,lexical_decision_task_DD_L2,2021.2.3,Win32,60.93473889,,,,,,,,,,,,1.1672,1,,,,,,,,,,,,,,,,,,,,,,,,-0.154487529,-0.499652607,0,0,0,,,,,,,TIGER,LB,z,y,./images/TIGERLB.png,,,,,,,z,1,1.1672,,,,,,,,0,141,141,121,1
,,,,,,,,,,,,,,,,,200584,19,2022-01-28_15h02.57.206,lexical_decision_task_DD_L2,2021.2.3,Win32,60.93473889,,,,,,,,,,,,0.7378,1,,,,,,,,,,,,,,,,,,,,,,,,-0.154487529,-0.499652607,0,0,0,,,,,,,CLOTH,C,z,y,./images/CLOTH.png,,,,,,,z,1,0.7378,,,,,,,,0,142,142,107,1
,,,,,,,,,,,,,,,,,200584,19,2022-01-28_15h02.57.206,lexical_decision_task_DD_L2,2021.2.3,Win32,60.93473889,,,,,,,,,,,,0.5768,0,,,,,,,,,,,,,,,,,,,,,,,,-0.154487529,-0.499652607,0,0,0,,,,,,,FALCON,LB,m,y,./images/FALCONLB.png,,,,,,,z,0,0.5768,,,,,,,,0,143,143,28,1
,,,,,,,,,,,,,,,,,200584,19,2022-01-28_15h02.57.206,lexical_decision_task_DD_L2,2021.2.3,Win32,60.93473889,,,,,,,,,,,,1.0115,0,,,,,,,,,,,,,,,,,,,,,,,,-0.154487529,-0.499652607,0,0,0,,,,,,,INFANT,LB,m,y,./images/INFANTLB.png,,,,,,,z,0,1.0115,,,,,,,,0,144,144,76,1
,,,,,,,,,,,,,,,,,200584,19,2022-01-28_15h02.57.206,lexical_decision_task_DD_L2,2021.2.3,Win32,60.93473889,,,,,,,,,,,,0.6352,0,,,,,,,,,,,,,,,,,,,,,,,,-0.154487529,-0.499652607,0,0,0,,,,,,,THROAT,HB,m,y,./images/THROATHB.png,,,,,,,z,0,0.6352,,,,,,,,0,145,145,36,1
,,,,,,,,,,,,,,,,,200584,19,2022-01-28_15h02.57.206,lexical_decision_task_DD_L2,2021.2.3,Win32,60.93473889,,,,,,,,,,,,0.7847,1,,,,,,,,,,,,,,,,,,,,,,,,-0.154487529,-0.499652607,0,0,0,,,,,,,GLOVE,LB,z,y,./images/GLOVELB.png,,,,,,,z,1,0.7847,,,,,,,,0,146,146,157,1
,,,,,,,,,,,,,,,,,200584,19,2022-01-28_15h02.57.206,lexical_decision_task_DD_L2,2021.2.3,Win32,60.93473889,,,,,,,,,,,,0.5874,1,,,,,,,,,,,,,,,,,,,,,,,,-0.154487529,-0.499652607,0,0,0,,,,,,,CRATER,HB,z,y,./images/CRATERHB.png,,,,,,,z,1,0.5874,,,,,,,,0,147,147,87,1
,,,,,,,,,,,,,,,,,200584,19,2022-01-28_15h02.57.206,lexical_decision_task_DD_L2,2021.2.3,Win32,60.93473889,,,,,,,,,,,,1.2283,0,,,,,,,,,,,,,,,,,,,,,,,,-0.154487529,-0.499652607,0,0,0,,,,,,,FOLDER,HB,m,y,./images/FOLDERHB.png,,,,,,,z,0,1.2283,,,,,,,,0,148,148,42,1
,,,,,,,,,,,,,,,,,200584,19,2022-01-28_15h02.57.206,lexical_decision_task_DD_L2,2021.2.3,Win32,60.93473889,,,,,,,,,,,,0.5435,1,,,,,,,,,,,,,,,,,,,,,,,,-0.154487529,-0.499652607,0,0,0,,,,,,,SNAKE,LB,z,y,./images/SNAKELB.png,,,,,,,z,1,0.5435,,,,,,,,0,149,149,124,1
,,,,,,,,,,,,,,,,,200584,19,2022-01-28_15h02.57.206,lexical_decision_task_DD_L2,2021.2.3,Win32,60.93473889,,,,,,,,,,,,0.7856,0,,,,,,,,,,,,,,,,,,,,,,,,-0.154487529,-0.499652607,0,0,0,,,,,,,GREASE,HB,m,y,./images/GREASEHB.png,,,,,,,z,0,0.7856,,,,,,,,0,150,150,15,1
,,,,,,,,,,,,,,,,,200584,19,2022-01-28_15h02.57.206,lexical_decision_task_DD_L2,2021.2.3,Win32,60.93473889,,,,,,,,,,,,0.8195,1,,,,,,,,,,,,,,,,,,,,,,,,-0.154487529,-0.499652607,0,0,0,,,,,,,SPINE,C,z,y,./images/SPINE.png,,,,,,,z,1,0.8195,,,,,,,,0,151,151,149,1
,,,,,,,,,,,,,,,,,200584,19,2022-01-28_15h02.57.206,lexical_decision_task_DD_L2,2021.2.3,Win32,60.93473889,,,,,,,,,,,,0.6401,1,,,,,,,,,,,,,,,,,,,,,,,,-0.154487529,-0.499652607,0,0,0,,,,,,,BANANA,LB,z,y,./images/BANANALB.png,,,,,,,z,1,0.6401,,,,,,,,0,152,152,154,1
,,,,,,,,,,,,,,,,,200584,19,2022-01-28_15h02.57.206,lexical_decision_task_DD_L2,2021.2.3,Win32,60.93473889,,,,,,,,,,,,0.5684,0,,,,,,,,,,,,,,,,,,,,,,,,-0.154487529,-0.499652607,0,0,0,,,,,,,MELON,LB,m,y,./images/MELONLB.png,,,,,,,z,0,0.5684,,,,,,,,0,153,153,22,1
,,,,,,,,,,,,,,,,,200584,19,2022-01-28_15h02.57.206,lexical_decision_task_DD_L2,2021.2.3,Win32,60.93473889,,,,,,,,,,,,0.5679,1,,,,,,,,,,,,,,,,,,,,,,,,-0.154487529,-0.499652607,0,0,0,,,,,,,HOCKEY,C,z,y,./images/HOCKEY.png,,,,,,,z,1,0.5679,,,,,,,,0,154,154,116,1
,,,,,,,,,,,,,,,,,200584,19,2022-01-28_15h02.57.206,lexical_decision_task_DD_L2,2021.2.3,Win32,60.93473889,,,,,,,,,,,,0.4936,1,,,,,,,,,,,,,,,,,,,,,,,,-0.154487529,-0.499652607,0,0,0,,,,,,,PARADE,C,z,y,./images/PARADE.png,,,,,,,z,1,0.4936,,,,,,,,0,155,155,101,1
,,,,,,,,,,,,,,,,,200584,19,2022-01-28_15h02.57.206,lexical_decision_task_DD_L2,2021.2.3,Win32,60.93473889,,,,,,,,,,,,0.6074,1,,,,,,,,,,,,,,,,,,,,,,,,-0.154487529,-0.499652607,0,0,0,,,,,,,PASTA,C,m,y,./images/PASTA.png,,,,,,,m,1,0.6074,,,,,,,,0,156,156,5,1
,,,,,,,,,,,,,,,,,200584,19,2022-01-28_15h02.57.206,lexical_decision_task_DD_L2,2021.2.3,Win32,60.93473889,,,,,,,,,,,,0.7054,1,,,,,,,,,,,,,,,,,,,,,,,,-0.154487529,-0.499652607,0,0,0,,,,,,,SKIING,C,m,y,./images/SKIING.png,,,,,,,m,1,0.7054,,,,,,,,0,157,157,17,1
,,,,,,,,,,,,,,,,,200584,19,2022-01-28_15h02.57.206,lexical_decision_task_DD_L2,2021.2.3,Win32,60.93473889,,,,,,,,,,,,0.7275,1,,,,,,,,,,,,,,,,,,,,,,,,-0.154487529,-0.499652607,0,0,0,,,,,,,PLANET,C,z,y,./images/PLANET.png,,,,,,,z,1,0.7275,,,,,,,,0,158,158,164,1
,,,,,,,,,,,,,,,,,200584,19,2022-01-28_15h02.57.206,lexical_decision_task_DD_L2,2021.2.3,Win32,60.93473889,,,,,,,,,,,,0.7057,1,,,,,,,,,,,,,,,,,,,,,,,,-0.154487529,-0.499652607,0,0,0,,,,,,,TULIP,C,m,y,./images/TULIP.png,,,,,,,m,1,0.7057,,,,,,,,0,159,159,8,1
,,,,,,,,,,,,,,,,,200584,19,2022-01-28_15h02.57.206,lexical_decision_task_DD_L2,2021.2.3,Win32,60.93473889,,,,,,,,,,,,0.7066,1,,,,,,,,,,,,,,,,,,,,,,,,-0.154487529,-0.499652607,0,0,0,,,,,,,CLIFF,C,z,y,./images/CLIFF.png,,,,,,,z,1,0.7066,,,,,,,,0,160,160,92,1
,,,,,,,,,,,,,,,,,200584,19,2022-01-28_15h02.57.206,lexical_decision_task_DD_L2,2021.2.3,Win32,60.93473889,,,,,,,,,,,,0.651,0,,,,,,,,,,,,,,,,,,,,,,,,-0.154487529,-0.499652607,0,0,0,,,,,,,MOTOR,LB,m,y,./images/MOTORLB.png,,,,,,,z,0,0.651,,,,,,,,0,161,161,13,1
,,,,,,,,,,,,,,,,,200584,19,2022-01-28_15h02.57.206,lexical_decision_task_DD_L2,2021.2.3,Win32,60.93473889,,,,,,,,,,,,0.651,1,,,,,,,,,,,,,,,,,,,,,,,,-0.154487529,-0.499652607,0,0,0,,,,,,,TWINS,HB,m,y,./images/TWINSHB.png,,,,,,,m,1,0.651,,,,,,,,0,162,162,60,1
,,,,,,,,,,,,,,,,,200584,19,2022-01-28_15h02.57.206,lexical_decision_task_DD_L2,2021.2.3,Win32,60.93473889,,,,,,,,,,,,0.5845,0,,,,,,,,,,,,,,,,,,,,,,,,-0.154487529,-0.499652607,0,0,0,,,,,,,BELLY,LB,m,y,./images/BELLYLB.png,,,,,,,z,0,0.5845,,,,,,,,0,163,163,10,1
,,,,,,,,,,,,,,,,,200584,19,2022-01-28_15h02.57.206,lexical_decision_task_DD_L2,2021.2.3,Win32,60.93473889,,,,,,,,,,,,0.7747,1,,,,,,,,,,,,,,,,,,,,,,,,-0.154487529,-0.499652607,0,0,0,,,,,,,PILOT,C,z,y,./images/PILOT.png,,,,,,,z,1,0.7747,,,,,,,,0,164,164,134,1
,,,,,,,,,,,,,,,,,200584,19,2022-01-28_15h02.57.206,lexical_decision_task_DD_L2,2021.2.3,Win32,60.93473889,,,,,,,,,,,,0.7208,1,,,,,,,,,,,,,,,,,,,,,,,,-0.154487529,-0.499652607,0,0,0,,,,,,,BOILER,HB,z,y,./images/BOILERHB.png,,,,,,,z,1,0.7208,,,,,,,,0,165,165,120,1
,,,,,,,,,,,,,,,,,200584,19,2022-01-28_15h02.57.206,lexical_decision_task_DD_L2,2021.2.3,Win32,60.93473889,,,,,,,,,,,,1.1011,0,,,,,,,,,,,,,,,,,,,,,,,,-0.154487529,-0.499652607,0,0,0,,,,,,,SWEAT,HB,m,y,./images/SWEATHB.png,,,,,,,z,0,1.1011,,,,,,,,0,166,166,66,1
,,,,,,,,,,,,,,,,,200584,19,2022-01-28_15h02.57.206,lexical_decision_task_DD_L2,2021.2.3,Win32,60.93473889,,,,,,,,,,,,0.7348,1,,,,,,,,,,,,,,,,,,,,,,,,-0.154487529,-0.499652607,0,0,0,,,,,,,PEBBLE,LB,z,y,./images/PEBBLELB.png,,,,,,,z,1,0.7348,,,,,,,,0,167,167,166,1
