key_resp.keys,instr_done_touch.x,instr_done_touch.y,instr_done_touch.leftButton,instr_done_touch.midButton,instr_done_touch.rightButton,instr_done_touch.clicked_name,instruction_pages.thisRepN,instruction_pages.thisTrialN,instruction_pages.thisN,instruction_pages.thisIndex,instruction_pages.ran,pageN,phase,instruct_text,has_image,instruct_image,participant,age,date,expName,psychopyVersion,OS,frameRate,key_resp.rt,response.keys,response.corr,response.rt,touch_resp.x,touch_resp.y,touch_resp.leftButton,touch_resp.midButton,touch_resp.rightButton,touch_resp.time,touch_resp.clicked_name,rt,corr,practrials.thisRepN,practrials.thisTrialN,practrials.thisN,practrials.thisIndex,practrials.ran,TrialID,Target,corrAns,end_of_practice_trials_pages.thisRepN,end_of_practice_trials_pages.thisTrialN,end_of_practice_trials_pages.thisN,end_of_practice_trials_pages.thisIndex,end_of_practice_trials_pages.ran,key_resp_2.keys,key_resp_2.corr,key_resp_2.rt,targ_click.x,targ_click.y,targ_click.leftButton,targ_click.midButton,targ_click.rightButton,targ_click.time,targ_click.clicked_name,break_done_touch.x,break_done_touch.y,break_done_touch.leftButton,break_done_touch.midButton,break_done_touch.rightButton,break_done_keyboard.keys,maintrials.thisRepN,maintrials.thisTrialN,maintrials.thisN,maintrials.thisIndex,maintrials.ran,string,blur,study,lex,stim_path,break_done_keyboard.rt,test_instructions.thisRepN,test_instructions.thisTrialN,test_instructions.thisN,test_instructions.thisIndex,test_instructions.ran,key_resp_3.keys,key_resp_3.corr,key_resp_3.rt,test_click.x,test_click.y,test_click.leftButton,test_click.midButton,test_click.rightButton,test_click.time,test_click.clicked_name,test_phase.thisRepN,test_phase.thisTrialN,test_phase.thisN,test_phase.thisIndex,test_phase.ran
,0.106814236,-0.423003472,1,0,0,instr_done_button,0,0,0,0,1,1,instructions,"INSTRUCTIONS
At the start of each trial, look at the plus sign  (+) in the center of the screen.  This tells you that a trial is about to begin and where to look. Second, the plus sign will disappear and a string of letters will appear. Your task is to determine if the string of letters is a word or not. If the item is a word press the M key (on keyboard)  or touch the word button (phone/tablet).  If the item is not a word,  press the  Z key (on keyboard)  or touch the nonword button (on phone/tablet). 
Press the space bar or touch  continue.",0,,200524,22,2022-01-29_11h07.40.261,lexical_decision_task_DD,2021.2.3,MacIntel,59.85873339,,,,,,,,,,,,,,,,,,,,,,,,,,,,,,,,,,,,,,,,,,,,,,,,,,,,,,,,,,,,,,,,,,,,,,,,,
space,0.766974826,-0.098680556,0,0,0,,0,1,1,1,1,2,instructions,"If your device has a keyboard, press the 'Z' key for nonwords and the 'M' key for words.





Press the space bar or touch the button below to continue.",0,keyboard-example.gif,200524,22,2022-01-29_11h07.40.261,lexical_decision_task_DD,2021.2.3,MacIntel,59.85873339,8.3813,,,,,,,,,,,,,,,,,,,,,,,,,,,,,,,,,,,,,,,,,,,,,,,,,,,,,,,,,,,,,,,,,,,,,,,,
space,0.766974826,-0.098680556,0,0,0,,0,2,2,2,1,3,instructions,"If you are using a touchscreen only device, use the buttons on the screen. Do not use the mouse.





Press the space bar or touch the button below to continue.",0,touchscreen-example.gif,200524,22,2022-01-29_11h07.40.261,lexical_decision_task_DD,2021.2.3,MacIntel,59.85873339,5.9312,,,,,,,,,,,,,,,,,,,,,,,,,,,,,,,,,,,,,,,,,,,,,,,,,,,,,,,,,,,,,,,,,,,,,,,,
space,0.766974826,-0.098680556,0,0,0,,0,3,3,3,1,4,instructions,"It is very important that you respond as quickly and accurately as possible, as each letter string will only be on the screen for two seconds. If you do not respond within this time, the message 'Too slow!' will be displayed and the experiment will progress to the next letter string. The first 20 trials will be practice trials and you will receive feedback on your answers. 

Press the space bar or touch the button below to start the practice trials.",0,,200524,22,2022-01-29_11h07.40.261,lexical_decision_task_DD,2021.2.3,MacIntel,59.85873339,25.1303,,,,,,,,,,,,,,,,,,,,,,,,,,,,,,,,,,,,,,,,,,,,,,,,,,,,,,,,,,,,,,,,,,,,,,,,
,,,,,,,,,,,,,,,,,200524,22,2022-01-29_11h07.40.261,lexical_decision_task_DD,2021.2.3,MacIntel,59.85873339,,z,1,5.1513,,,,,,,,5.1513,1,0,0,0,9,1,1001,FARINY,z,,,,,,,,,,,,,,,,,,,,,,,,,,,,,,,,,,,,,,,,,,,,,,,,,,,,
,,,,,,,,,,,,,,,,,200524,22,2022-01-29_11h07.40.261,lexical_decision_task_DD,2021.2.3,MacIntel,59.85873339,,z,1,3.3427,,,,,,,,3.3427,1,0,1,1,8,1,1001,ASLERT,z,,,,,,,,,,,,,,,,,,,,,,,,,,,,,,,,,,,,,,,,,,,,,,,,,,,,
,,,,,,,,,,,,,,,,,200524,22,2022-01-29_11h07.40.261,lexical_decision_task_DD,2021.2.3,MacIntel,59.85873339,,z,1,2.8273,,,,,,,,2.8273,1,0,2,2,10,1,1001,INLADE,z,,,,,,,,,,,,,,,,,,,,,,,,,,,,,,,,,,,,,,,,,,,,,,,,,,,,
,,,,,,,,,,,,,,,,,200524,22,2022-01-29_11h07.40.261,lexical_decision_task_DD,2021.2.3,MacIntel,59.85873339,,m,1,2.1604,,,,,,,,2.1604,1,0,3,3,1,1,1001,ADJUST,m,,,,,,,,,,,,,,,,,,,,,,,,,,,,,,,,,,,,,,,,,,,,,,,,,,,,
,,,,,,,,,,,,,,,,,200524,22,2022-01-29_11h07.40.261,lexical_decision_task_DD,2021.2.3,MacIntel,59.85873339,,m,0,3.3257,,,,,,,,3.3257,0,0,4,4,12,1,1001,SPRINY,z,,,,,,,,,,,,,,,,,,,,,,,,,,,,,,,,,,,,,,,,,,,,,,,,,,,,
,,,,,,,,,,,,,,,,,200524,22,2022-01-29_11h07.40.261,lexical_decision_task_DD,2021.2.3,MacIntel,59.85873339,,m,1,1.8115,,,,,,,,1.8115,1,0,5,5,2,1,1001,ALMOND,m,,,,,,,,,,,,,,,,,,,,,,,,,,,,,,,,,,,,,,,,,,,,,,,,,,,,
,,,,,,,,,,,,,,,,,200524,22,2022-01-29_11h07.40.261,lexical_decision_task_DD,2021.2.3,MacIntel,59.85873339,,z,1,2.3907,,,,,,,,2.3907,1,0,6,6,14,1,1001,THRALE,z,,,,,,,,,,,,,,,,,,,,,,,,,,,,,,,,,,,,,,,,,,,,,,,,,,,,
,,,,,,,,,,,,,,,,,200524,22,2022-01-29_11h07.40.261,lexical_decision_task_DD,2021.2.3,MacIntel,59.85873339,,z,1,2.3249,,,,,,,,2.3249,1,0,7,7,11,1,1001,RASHET,z,,,,,,,,,,,,,,,,,,,,,,,,,,,,,,,,,,,,,,,,,,,,,,,,,,,,
,,,,,,,,,,,,,,,,,200524,22,2022-01-29_11h07.40.261,lexical_decision_task_DD,2021.2.3,MacIntel,59.85873339,,z,1,2.34,,,,,,,,2.34,1,0,8,8,15,1,1001,WHAISE,z,,,,,,,,,,,,,,,,,,,,,,,,,,,,,,,,,,,,,,,,,,,,,,,,,,,,
,,,,,,,,,,,,,,,,,200524,22,2022-01-29_11h07.40.261,lexical_decision_task_DD,2021.2.3,MacIntel,59.85873339,,m,1,1.3926,,,,,,,,1.3926,1,0,9,9,7,1,1001,VOLUME,m,,,,,,,,,,,,,,,,,,,,,,,,,,,,,,,,,,,,,,,,,,,,,,,,,,,,
,,,,,,,,,,,,,,,,,200524,22,2022-01-29_11h07.40.261,lexical_decision_task_DD,2021.2.3,MacIntel,59.85873339,,m,1,1.3541,,,,,,,,1.3541,1,0,10,10,5,1,1001,OBTAIN,m,,,,,,,,,,,,,,,,,,,,,,,,,,,,,,,,,,,,,,,,,,,,,,,,,,,,
,,,,,,,,,,,,,,,,,200524,22,2022-01-29_11h07.40.261,lexical_decision_task_DD,2021.2.3,MacIntel,59.85873339,,m,1,1.1565,,,,,,,,1.1565,1,0,11,11,6,1,1001,ZOMBIE,m,,,,,,,,,,,,,,,,,,,,,,,,,,,,,,,,,,,,,,,,,,,,,,,,,,,,
,,,,,,,,,,,,,,,,,200524,22,2022-01-29_11h07.40.261,lexical_decision_task_DD,2021.2.3,MacIntel,59.85873339,,m,1,1.1192,,,,,,,,1.1192,1,0,12,12,4,1,1001,SQUEAK,m,,,,,,,,,,,,,,,,,,,,,,,,,,,,,,,,,,,,,,,,,,,,,,,,,,,,
,,,,,,,,,,,,,,,,,200524,22,2022-01-29_11h07.40.261,lexical_decision_task_DD,2021.2.3,MacIntel,59.85873339,,z,1,1.6749,,,,,,,,1.6749,1,0,13,13,13,1,1001,ROUPET,z,,,,,,,,,,,,,,,,,,,,,,,,,,,,,,,,,,,,,,,,,,,,,,,,,,,,
,,,,,,,,,,,,,,,,,200524,22,2022-01-29_11h07.40.261,lexical_decision_task_DD,2021.2.3,MacIntel,59.85873339,,m,1,1.1882,,,,,,,,1.1882,1,0,14,14,3,1,1001,MATRIX,m,,,,,,,,,,,,,,,,,,,,,,,,,,,,,,,,,,,,,,,,,,,,,,,,,,,,
,,,,,,,,,,,,,,,,,200524,22,2022-01-29_11h07.40.261,lexical_decision_task_DD,2021.2.3,MacIntel,59.85873339,,m,1,1.7541,,,,,,,,1.7541,1,0,15,15,0,1,1001,UTOPIA,m,,,,,,,,,,,,,,,,,,,,,,,,,,,,,,,,,,,,,,,,,,,,,,,,,,,,
space,0.766974826,-0.098680556,0,0,0,,,,,,,1,end_of_practice,"You have completed the practice trials. During the experimental trials, you will not receive feedback. 
Before you begin, please ensure that you are in a comfortable and quiet location and will not be disturbed for about 15 minutes, as we cannot use your data if you do not complete all the trials. 
 When you are ready to start the experimental trials, please press space or touch the button below.",,,200524,22,2022-01-29_11h07.40.261,lexical_decision_task_DD,2021.2.3,MacIntel,59.85873339,21.6862,,,,,,,,,,,,,,,,,,,,,0,0,0,0,1,,,,,,,,,,,,,,,,,,,,,,,,,,,,,,,,,,,,,,,,,,,,,,,
,,,,,,,,,,,,,,,,,200524,22,2022-01-29_11h07.40.261,lexical_decision_task_DD,2021.2.3,MacIntel,59.85873339,,,,,,,,,,,,5.3429,1,,,,,,,,,,,,,,z,1,5.3429,,,,,,,,0.766974826,-0.098680556,0,0,0,,0,0,0,118,1,BAVEL,HB,old,z,./images/BAVELHB.png,,,,,,,,,,,,,,,,,,,,,
,,,,,,,,,,,,,,,,,200524,22,2022-01-29_11h07.40.261,lexical_decision_task_DD,2021.2.3,MacIntel,59.85873339,,,,,,,,,,,,1.2345,1,,,,,,,,,,,,,,m,1,1.2345,,,,,,,,0.766974826,-0.098680556,0,0,0,,0,1,1,35,1,PEACH,LB,old,m,./images/PEACHLB.png,,,,,,,,,,,,,,,,,,,,,
,,,,,,,,,,,,,,,,,200524,22,2022-01-29_11h07.40.261,lexical_decision_task_DD,2021.2.3,MacIntel,59.85873339,,,,,,,,,,,,2.9841,1,,,,,,,,,,,,,,m,1,2.9841,,,,,,,,0.766974826,-0.098680556,0,0,0,,0,2,2,76,1,INFANT,HB,old,m,./images/INFANTHB.png,,,,,,,,,,,,,,,,,,,,,
,,,,,,,,,,,,,,,,,200524,22,2022-01-29_11h07.40.261,lexical_decision_task_DD,2021.2.3,MacIntel,59.85873339,,,,,,,,,,,,1.5541,1,,,,,,,,,,,,,,m,1,1.5541,,,,,,,,0.766974826,-0.098680556,0,0,0,,0,3,3,20,1,CRADLE,LB,old,m,./images/CRADLELB.png,,,,,,,,,,,,,,,,,,,,,
,,,,,,,,,,,,,,,,,200524,22,2022-01-29_11h07.40.261,lexical_decision_task_DD,2021.2.3,MacIntel,59.85873339,,,,,,,,,,,,3.263,1,,,,,,,,,,,,,,z,1,3.263,,,,,,,,0.766974826,-0.098680556,0,0,0,,0,4,4,97,1,CHIDS,HB,old,z,./images/CHIDSHB.png,,,,,,,,,,,,,,,,,,,,,
,,,,,,,,,,,,,,,,,200524,22,2022-01-29_11h07.40.261,lexical_decision_task_DD,2021.2.3,MacIntel,59.85873339,,,,,,,,,,,,2.0396,1,,,,,,,,,,,,,,m,1,2.0396,,,,,,,,0.766974826,-0.098680556,0,0,0,,0,5,5,40,1,SWING,HB,old,m,./images/SWINGHB.png,,,,,,,,,,,,,,,,,,,,,
,,,,,,,,,,,,,,,,,200524,22,2022-01-29_11h07.40.261,lexical_decision_task_DD,2021.2.3,MacIntel,59.85873339,,,,,,,,,,,,3.7006,1,,,,,,,,,,,,,,z,1,3.7006,,,,,,,,0.766974826,-0.098680556,0,0,0,,0,6,6,115,1,MAWNS,HB,old,z,./images/MAWNSHB.png,,,,,,,,,,,,,,,,,,,,,
,,,,,,,,,,,,,,,,,200524,22,2022-01-29_11h07.40.261,lexical_decision_task_DD,2021.2.3,MacIntel,59.85873339,,,,,,,,,,,,2.2845,1,,,,,,,,,,,,,,z,1,2.2845,,,,,,,,0.766974826,-0.098680556,0,0,0,,0,7,7,148,1,JOMS,HB,old,z,./images/JOMSHB.png,,,,,,,,,,,,,,,,,,,,,
,,,,,,,,,,,,,,,,,200524,22,2022-01-29_11h07.40.261,lexical_decision_task_DD,2021.2.3,MacIntel,59.85873339,,,,,,,,,,,,1.7083,1,,,,,,,,,,,,,,m,1,1.7083,,,,,,,,0.766974826,-0.098680556,0,0,0,,0,8,8,46,1,PEARL,HB,old,m,./images/PEARLHB.png,,,,,,,,,,,,,,,,,,,,,
,,,,,,,,,,,,,,,,,200524,22,2022-01-29_11h07.40.261,lexical_decision_task_DD,2021.2.3,MacIntel,59.85873339,,,,,,,,,,,,1.9511,1,,,,,,,,,,,,,,m,1,1.9511,,,,,,,,0.766974826,-0.098680556,0,0,0,,0,9,9,10,1,BELLY,HB,old,m,./images/BELLYHB.png,,,,,,,,,,,,,,,,,,,,,
,,,,,,,,,,,,,,,,,200524,22,2022-01-29_11h07.40.261,lexical_decision_task_DD,2021.2.3,MacIntel,59.85873339,,,,,,,,,,,,2.5863,1,,,,,,,,,,,,,,z,1,2.5863,,,,,,,,0.766974826,-0.098680556,0,0,0,,0,10,10,134,1,TROSS,LB,old,z,./images/TROSSLB.png,,,,,,,,,,,,,,,,,,,,,
,,,,,,,,,,,,,,,,,200524,22,2022-01-29_11h07.40.261,lexical_decision_task_DD,2021.2.3,MacIntel,59.85873339,,,,,,,,,,,,2.4226,1,,,,,,,,,,,,,,z,1,2.4226,,,,,,,,0.766974826,-0.098680556,0,0,0,,0,11,11,130,1,CRILL,HB,old,z,./images/CRILLHB.png,,,,,,,,,,,,,,,,,,,,,
,,,,,,,,,,,,,,,,,200524,22,2022-01-29_11h07.40.261,lexical_decision_task_DD,2021.2.3,MacIntel,59.85873339,,,,,,,,,,,,1.6011,1,,,,,,,,,,,,,,z,1,1.6011,,,,,,,,0.766974826,-0.098680556,0,0,0,,0,12,12,113,1,LINEW,LB,old,z,./images/LINEWLB.png,,,,,,,,,,,,,,,,,,,,,
,,,,,,,,,,,,,,,,,200524,22,2022-01-29_11h07.40.261,lexical_decision_task_DD,2021.2.3,MacIntel,59.85873339,,,,,,,,,,,,1.2238,1,,,,,,,,,,,,,,z,1,1.2238,,,,,,,,0.766974826,-0.098680556,0,0,0,,0,13,13,114,1,RIKES,C,old,z,./images/RIKES.png,,,,,,,,,,,,,,,,,,,,,
,,,,,,,,,,,,,,,,,200524,22,2022-01-29_11h07.40.261,lexical_decision_task_DD,2021.2.3,MacIntel,59.85873339,,,,,,,,,,,,1.7518,1,,,,,,,,,,,,,,m,1,1.7518,,,,,,,,0.766974826,-0.098680556,0,0,0,,0,14,14,79,1,CRUST,HB,old,m,./images/CRUSTHB.png,,,,,,,,,,,,,,,,,,,,,
,,,,,,,,,,,,,,,,,200524,22,2022-01-29_11h07.40.261,lexical_decision_task_DD,2021.2.3,MacIntel,59.85873339,,,,,,,,,,,,1.6041,1,,,,,,,,,,,,,,z,1,1.6041,,,,,,,,0.766974826,-0.098680556,0,0,0,,0,15,15,155,1,CANGY,LB,old,z,./images/CANGYLB.png,,,,,,,,,,,,,,,,,,,,,
,,,,,,,,,,,,,,,,,200524,22,2022-01-29_11h07.40.261,lexical_decision_task_DD,2021.2.3,MacIntel,59.85873339,,,,,,,,,,,,1.2843,1,,,,,,,,,,,,,,m,1,1.2843,,,,,,,,0.766974826,-0.098680556,0,0,0,,0,16,16,56,1,PACKET,LB,old,m,./images/PACKETLB.png,,,,,,,,,,,,,,,,,,,,,
,,,,,,,,,,,,,,,,,200524,22,2022-01-29_11h07.40.261,lexical_decision_task_DD,2021.2.3,MacIntel,59.85873339,,,,,,,,,,,,2.4888,1,,,,,,,,,,,,,,z,1,2.4888,,,,,,,,0.766974826,-0.098680556,0,0,0,,0,17,17,163,1,GAMBA,HB,old,z,./images/GAMBAHB.png,,,,,,,,,,,,,,,,,,,,,
,,,,,,,,,,,,,,,,,200524,22,2022-01-29_11h07.40.261,lexical_decision_task_DD,2021.2.3,MacIntel,59.85873339,,,,,,,,,,,,1.3628,1,,,,,,,,,,,,,,m,1,1.3628,,,,,,,,0.766974826,-0.098680556,0,0,0,,0,18,18,39,1,SHELF,C,old,m,./images/SHELF.png,,,,,,,,,,,,,,,,,,,,,
,,,,,,,,,,,,,,,,,200524,22,2022-01-29_11h07.40.261,lexical_decision_task_DD,2021.2.3,MacIntel,59.85873339,,,,,,,,,,,,1.1842,1,,,,,,,,,,,,,,z,1,1.1842,,,,,,,,0.766974826,-0.098680556,0,0,0,,0,19,19,140,1,DOVET,LB,old,z,./images/DOVETLB.png,,,,,,,,,,,,,,,,,,,,,
,,,,,,,,,,,,,,,,,200524,22,2022-01-29_11h07.40.261,lexical_decision_task_DD,2021.2.3,MacIntel,59.85873339,,,,,,,,,,,,1.0373,1,,,,,,,,,,,,,,m,1,1.0373,,,,,,,,0.766974826,-0.098680556,0,0,0,,0,20,20,0,1,TOMATO,C,old,m,./images/TOMATO.png,,,,,,,,,,,,,,,,,,,,,
,,,,,,,,,,,,,,,,,200524,22,2022-01-29_11h07.40.261,lexical_decision_task_DD,2021.2.3,MacIntel,59.85873339,,,,,,,,,,,,1.0123,1,,,,,,,,,,,,,,m,1,1.0123,,,,,,,,0.766974826,-0.098680556,0,0,0,,0,21,21,45,1,KITTEN,C,old,m,./images/KITTEN.png,,,,,,,,,,,,,,,,,,,,,
,,,,,,,,,,,,,,,,,200524,22,2022-01-29_11h07.40.261,lexical_decision_task_DD,2021.2.3,MacIntel,59.85873339,,,,,,,,,,,,1.3505,1,,,,,,,,,,,,,,m,1,1.3505,,,,,,,,0.766974826,-0.098680556,0,0,0,,0,22,22,50,1,MALLET,LB,old,m,./images/MALLETLB.png,,,,,,,,,,,,,,,,,,,,,
,,,,,,,,,,,,,,,,,200524,22,2022-01-29_11h07.40.261,lexical_decision_task_DD,2021.2.3,MacIntel,59.85873339,,,,,,,,,,,,1.1863,1,,,,,,,,,,,,,,m,1,1.1863,,,,,,,,0.766974826,-0.098680556,0,0,0,,0,23,23,6,1,SQUARE,C,old,m,./images/SQUARE.png,,,,,,,,,,,,,,,,,,,,,
,,,,,,,,,,,,,,,,,200524,22,2022-01-29_11h07.40.261,lexical_decision_task_DD,2021.2.3,MacIntel,59.85873339,,,,,,,,,,,,2.3582,1,,,,,,,,,,,,,,z,1,2.3582,,,,,,,,0.766974826,-0.098680556,0,0,0,,0,24,24,100,1,DRIBS,HB,old,z,./images/DRIBSHB.png,,,,,,,,,,,,,,,,,,,,,
,,,,,,,,,,,,,,,,,200524,22,2022-01-29_11h07.40.261,lexical_decision_task_DD,2021.2.3,MacIntel,59.85873339,,,,,,,,,,,,1.9017,1,,,,,,,,,,,,,,m,1,1.9017,,,,,,,,0.766974826,-0.098680556,0,0,0,,0,25,25,17,1,SKIING,LB,old,m,./images/SKIINGLB.png,,,,,,,,,,,,,,,,,,,,,
,,,,,,,,,,,,,,,,,200524,22,2022-01-29_11h07.40.261,lexical_decision_task_DD,2021.2.3,MacIntel,59.85873339,,,,,,,,,,,,3.2935,1,,,,,,,,,,,,,,z,1,3.2935,,,,,,,,0.766974826,-0.098680556,0,0,0,,0,26,26,121,1,CEERS,HB,old,z,./images/CEERSHB.png,,,,,,,,,,,,,,,,,,,,,
,,,,,,,,,,,,,,,,,200524,22,2022-01-29_11h07.40.261,lexical_decision_task_DD,2021.2.3,MacIntel,59.85873339,,,,,,,,,,,,1.4277,1,,,,,,,,,,,,,,z,1,1.4277,,,,,,,,0.766974826,-0.098680556,0,0,0,,0,27,27,108,1,GRUET,C,old,z,./images/GRUET.png,,,,,,,,,,,,,,,,,,,,,
,,,,,,,,,,,,,,,,,200524,22,2022-01-29_11h07.40.261,lexical_decision_task_DD,2021.2.3,MacIntel,59.85873339,,,,,,,,,,,,3.7249,1,,,,,,,,,,,,,,m,1,3.7249,,,,,,,,0.766974826,-0.098680556,0,0,0,,0,28,28,67,1,SAILOR,HB,old,m,./images/SAILORHB.png,,,,,,,,,,,,,,,,,,,,,
,,,,,,,,,,,,,,,,,200524,22,2022-01-29_11h07.40.261,lexical_decision_task_DD,2021.2.3,MacIntel,59.85873339,,,,,,,,,,,,1.2599,1,,,,,,,,,,,,,,z,1,1.2599,,,,,,,,0.766974826,-0.098680556,0,0,0,,0,29,29,105,1,MOKER,C,old,z,./images/MOKER.png,,,,,,,,,,,,,,,,,,,,,
,,,,,,,,,,,,,,,,,200524,22,2022-01-29_11h07.40.261,lexical_decision_task_DD,2021.2.3,MacIntel,59.85873339,,,,,,,,,,,,1.2283,1,,,,,,,,,,,,,,m,1,1.2283,,,,,,,,0.766974826,-0.098680556,0,0,0,,0,30,30,77,1,COUCH,LB,old,m,./images/COUCHLB.png,,,,,,,,,,,,,,,,,,,,,
,,,,,,,,,,,,,,,,,200524,22,2022-01-29_11h07.40.261,lexical_decision_task_DD,2021.2.3,MacIntel,59.85873339,,,,,,,,,,,,1.5864,1,,,,,,,,,,,,,,z,1,1.5864,,,,,,,,0.766974826,-0.098680556,0,0,0,,0,31,31,110,1,CRUNK,LB,old,z,./images/CRUNKLB.png,,,,,,,,,,,,,,,,,,,,,
,,,,,,,,,,,,,,,,,200524,22,2022-01-29_11h07.40.261,lexical_decision_task_DD,2021.2.3,MacIntel,59.85873339,,,,,,,,,,,,1.2411,1,,,,,,,,,,,,,,z,1,1.2411,,,,,,,,0.766974826,-0.098680556,0,0,0,,0,32,32,117,1,STEEG,C,old,z,./images/STEEG.png,,,,,,,,,,,,,,,,,,,,,
,,,,,,,,,,,,,,,,,200524,22,2022-01-29_11h07.40.261,lexical_decision_task_DD,2021.2.3,MacIntel,59.85873339,,,,,,,,,,,,2.1728,1,,,,,,,,,,,,,,m,1,2.1728,,,,,,,,0.766974826,-0.098680556,0,0,0,,0,33,33,54,1,TRIPOD,C,old,m,./images/TRIPOD.png,,,,,,,,,,,,,,,,,,,,,
,,,,,,,,,,,,,,,,,200524,22,2022-01-29_11h07.40.261,lexical_decision_task_DD,2021.2.3,MacIntel,59.85873339,,,,,,,,,,,,1.9687,1,,,,,,,,,,,,,,m,1,1.9687,,,,,,,,0.766974826,-0.098680556,0,0,0,,0,34,34,25,1,WRIST,HB,old,m,./images/WRISTHB.png,,,,,,,,,,,,,,,,,,,,,
,,,,,,,,,,,,,,,,,200524,22,2022-01-29_11h07.40.261,lexical_decision_task_DD,2021.2.3,MacIntel,59.85873339,,,,,,,,,,,,1.3747,1,,,,,,,,,,,,,,z,1,1.3747,,,,,,,,0.766974826,-0.098680556,0,0,0,,0,35,35,99,1,BACKY,C,old,z,./images/BACKY.png,,,,,,,,,,,,,,,,,,,,,
,,,,,,,,,,,,,,,,,200524,22,2022-01-29_11h07.40.261,lexical_decision_task_DD,2021.2.3,MacIntel,59.85873339,,,,,,,,,,,,3.6893,1,,,,,,,,,,,,,,m,1,3.6893,,,,,,,,0.766974826,-0.098680556,0,0,0,,0,36,36,73,1,SNACK,HB,old,m,./images/SNACKHB.png,,,,,,,,,,,,,,,,,,,,,
,,,,,,,,,,,,,,,,,200524,22,2022-01-29_11h07.40.261,lexical_decision_task_DD,2021.2.3,MacIntel,59.85873339,,,,,,,,,,,,1.7181,1,,,,,,,,,,,,,,m,1,1.7181,,,,,,,,0.766974826,-0.098680556,0,0,0,,0,37,37,80,1,WEASEL,LB,old,m,./images/WEASELLB.png,,,,,,,,,,,,,,,,,,,,,
,,,,,,,,,,,,,,,,,200524,22,2022-01-29_11h07.40.261,lexical_decision_task_DD,2021.2.3,MacIntel,59.85873339,,,,,,,,,,,,2.1514,1,,,,,,,,,,,,,,z,1,2.1514,,,,,,,,0.766974826,-0.098680556,0,0,0,,0,38,38,91,1,SHENS,HB,old,z,./images/SHENSHB.png,,,,,,,,,,,,,,,,,,,,,
,,,,,,,,,,,,,,,,,200524,22,2022-01-29_11h07.40.261,lexical_decision_task_DD,2021.2.3,MacIntel,59.85873339,,,,,,,,,,,,1.3883,1,,,,,,,,,,,,,,z,1,1.3883,,,,,,,,0.766974826,-0.098680556,0,0,0,,0,39,39,146,1,MOOST,LB,old,z,./images/MOOSTLB.png,,,,,,,,,,,,,,,,,,,,,
,,,,,,,,,,,,,,,,,200524,22,2022-01-29_11h07.40.261,lexical_decision_task_DD,2021.2.3,MacIntel,59.85873339,,,,,,,,,,,,1.9305,1,,,,,,,,,,,,,,z,1,1.9305,,,,,,,,0.766974826,-0.098680556,0,0,0,,0,40,40,135,1,JOODY,C,old,z,./images/JOODY.png,,,,,,,,,,,,,,,,,,,,,
,,,,,,,,,,,,,,,,,200524,22,2022-01-29_11h07.40.261,lexical_decision_task_DD,2021.2.3,MacIntel,59.85873339,,,,,,,,,,,,2.0076,1,,,,,,,,,,,,,,z,1,2.0076,,,,,,,,0.766974826,-0.098680556,0,0,0,space,0,41,41,137,1,JOOST,LB,old,z,./images/JOOSTLB.png,21.2009,,,,,,,,,,,,,,,,,,,,
,,,,,,,,,,,,,,,,,200524,22,2022-01-29_11h07.40.261,lexical_decision_task_DD,2021.2.3,MacIntel,59.85873339,,,,,,,,,,,,1.5455,1,,,,,,,,,,,,,,z,1,1.5455,,,,,,,,0.766974826,-0.098680556,0,0,0,,0,42,42,141,1,PLEET,C,old,z,./images/PLEET.png,,,,,,,,,,,,,,,,,,,,,
,,,,,,,,,,,,,,,,,200524,22,2022-01-29_11h07.40.261,lexical_decision_task_DD,2021.2.3,MacIntel,59.85873339,,,,,,,,,,,,1.6534,1,,,,,,,,,,,,,,z,1,1.6534,,,,,,,,0.766974826,-0.098680556,0,0,0,,0,43,43,98,1,BAMPS,LB,old,z,./images/BAMPSLB.png,,,,,,,,,,,,,,,,,,,,,
,,,,,,,,,,,,,,,,,200524,22,2022-01-29_11h07.40.261,lexical_decision_task_DD,2021.2.3,MacIntel,59.85873339,,,,,,,,,,,,1.4383,1,,,,,,,,,,,,,,z,1,1.4383,,,,,,,,0.766974826,-0.098680556,0,0,0,,0,44,44,167,1,ZONET,LB,old,z,./images/ZONETLB.png,,,,,,,,,,,,,,,,,,,,,
,,,,,,,,,,,,,,,,,200524,22,2022-01-29_11h07.40.261,lexical_decision_task_DD,2021.2.3,MacIntel,59.85873339,,,,,,,,,,,,2.9735,1,,,,,,,,,,,,,,z,1,2.9735,,,,,,,,0.766974826,-0.098680556,0,0,0,,0,45,45,106,1,CLUMS,HB,old,z,./images/CLUMSHB.png,,,,,,,,,,,,,,,,,,,,,
,,,,,,,,,,,,,,,,,200524,22,2022-01-29_11h07.40.261,lexical_decision_task_DD,2021.2.3,MacIntel,59.85873339,,,,,,,,,,,,2.0297,1,,,,,,,,,,,,,,m,1,2.0297,,,,,,,,0.766974826,-0.098680556,0,0,0,,0,46,46,59,1,BURIAL,LB,old,m,./images/BURIALLB.png,,,,,,,,,,,,,,,,,,,,,
,,,,,,,,,,,,,,,,,200524,22,2022-01-29_11h07.40.261,lexical_decision_task_DD,2021.2.3,MacIntel,59.85873339,,,,,,,,,,,,1.8886,1,,,,,,,,,,,,,,z,1,1.8886,,,,,,,,0.766974826,-0.098680556,0,0,0,,0,47,47,131,1,NACES,LB,old,z,./images/NACESLB.png,,,,,,,,,,,,,,,,,,,,,
,,,,,,,,,,,,,,,,,200524,22,2022-01-29_11h07.40.261,lexical_decision_task_DD,2021.2.3,MacIntel,59.85873339,,,,,,,,,,,,1.8025,1,,,,,,,,,,,,,,m,1,1.8025,,,,,,,,0.766974826,-0.098680556,0,0,0,,0,48,48,49,1,DRUMS,HB,old,m,./images/DRUMSHB.png,,,,,,,,,,,,,,,,,,,,,
,,,,,,,,,,,,,,,,,200524,22,2022-01-29_11h07.40.261,lexical_decision_task_DD,2021.2.3,MacIntel,59.85873339,,,,,,,,,,,,1.4726,1,,,,,,,,,,,,,,z,1,1.4726,,,,,,,,0.766974826,-0.098680556,0,0,0,,0,49,49,165,1,TROWN,C,old,z,./images/TROWN.png,,,,,,,,,,,,,,,,,,,,,
,,,,,,,,,,,,,,,,,200524,22,2022-01-29_11h07.40.261,lexical_decision_task_DD,2021.2.3,MacIntel,59.85873339,,,,,,,,,,,,1.0686,1,,,,,,,,,,,,,,m,1,1.0686,,,,,,,,0.766974826,-0.098680556,0,0,0,,0,50,50,32,1,BARREL,LB,old,m,./images/BARRELLB.png,,,,,,,,,,,,,,,,,,,,,
,,,,,,,,,,,,,,,,,200524,22,2022-01-29_11h07.40.261,lexical_decision_task_DD,2021.2.3,MacIntel,59.85873339,,,,,,,,,,,,1.4676,1,,,,,,,,,,,,,,m,1,1.4676,,,,,,,,0.766974826,-0.098680556,0,0,0,,0,51,51,11,1,BONNET,LB,old,m,./images/BONNETLB.png,,,,,,,,,,,,,,,,,,,,,
,,,,,,,,,,,,,,,,,200524,22,2022-01-29_11h07.40.261,lexical_decision_task_DD,2021.2.3,MacIntel,59.85873339,,,,,,,,,,,,5.2482,1,,,,,,,,,,,,,,m,1,5.2482,,,,,,,,0.766974826,-0.098680556,0,0,0,,0,52,52,70,1,URINE,HB,old,m,./images/URINEHB.png,,,,,,,,,,,,,,,,,,,,,
,,,,,,,,,,,,,,,,,200524,22,2022-01-29_11h07.40.261,lexical_decision_task_DD,2021.2.3,MacIntel,59.85873339,,,,,,,,,,,,1.1596,1,,,,,,,,,,,,,,z,1,1.1596,,,,,,,,0.766974826,-0.098680556,0,0,0,,0,53,53,93,1,SMONE,C,old,z,./images/SMONE.png,,,,,,,,,,,,,,,,,,,,,
,,,,,,,,,,,,,,,,,200524,22,2022-01-29_11h07.40.261,lexical_decision_task_DD,2021.2.3,MacIntel,59.85873339,,,,,,,,,,,,1.7942,1,,,,,,,,,,,,,,z,1,1.7942,,,,,,,,0.766974826,-0.098680556,0,0,0,,0,54,54,129,1,PRANS,C,old,z,./images/PRANS.png,,,,,,,,,,,,,,,,,,,,,
,,,,,,,,,,,,,,,,,200524,22,2022-01-29_11h07.40.261,lexical_decision_task_DD,2021.2.3,MacIntel,59.85873339,,,,,,,,,,,,1.4689,1,,,,,,,,,,,,,,z,1,1.4689,,,,,,,,0.766974826,-0.098680556,0,0,0,,0,55,55,122,1,BLOOT,LB,old,z,./images/BLOOTLB.png,,,,,,,,,,,,,,,,,,,,,
,,,,,,,,,,,,,,,,,200524,22,2022-01-29_11h07.40.261,lexical_decision_task_DD,2021.2.3,MacIntel,59.85873339,,,,,,,,,,,,1.4705,1,,,,,,,,,,,,,,m,1,1.4705,,,,,,,,0.766974826,-0.098680556,0,0,0,,0,56,56,64,1,JELLY,HB,old,m,./images/JELLYHB.png,,,,,,,,,,,,,,,,,,,,,
,,,,,,,,,,,,,,,,,200524,22,2022-01-29_11h07.40.261,lexical_decision_task_DD,2021.2.3,MacIntel,59.85873339,,,,,,,,,,,,1.0113,1,,,,,,,,,,,,,,m,1,1.0113,,,,,,,,0.766974826,-0.098680556,0,0,0,,0,57,57,75,1,GRAIN,C,old,m,./images/GRAIN.png,,,,,,,,,,,,,,,,,,,,,
,,,,,,,,,,,,,,,,,200524,22,2022-01-29_11h07.40.261,lexical_decision_task_DD,2021.2.3,MacIntel,59.85873339,,,,,,,,,,,,1.1158,1,,,,,,,,,,,,,,m,1,1.1158,,,,,,,,0.766974826,-0.098680556,0,0,0,,0,58,58,38,1,LADDER,LB,old,m,./images/LADDERLB.png,,,,,,,,,,,,,,,,,,,,,
,,,,,,,,,,,,,,,,,200524,22,2022-01-29_11h07.40.261,lexical_decision_task_DD,2021.2.3,MacIntel,59.85873339,,,,,,,,,,,,1.2694,1,,,,,,,,,,,,,,m,1,1.2694,,,,,,,,0.766974826,-0.098680556,0,0,0,,0,59,59,69,1,COOKER,C,old,m,./images/COOKER.png,,,,,,,,,,,,,,,,,,,,,
,,,,,,,,,,,,,,,,,200524,22,2022-01-29_11h07.40.261,lexical_decision_task_DD,2021.2.3,MacIntel,59.85873339,,,,,,,,,,,,6.1873,0,,,,,,,,,,,,,,m,0,6.1873,,,,,,,,0.766974826,-0.098680556,0,0,0,,0,60,60,126,1,GUELS,C,old,z,./images/GUELS.png,,,,,,,,,,,,,,,,,,,,,
,,,,,,,,,,,,,,,,,200524,22,2022-01-29_11h07.40.261,lexical_decision_task_DD,2021.2.3,MacIntel,59.85873339,,,,,,,,,,,,1.2038,1,,,,,,,,,,,,,,m,1,1.2038,,,,,,,,0.766974826,-0.098680556,0,0,0,,0,61,61,3,1,FINGER,C,old,m,./images/FINGER.png,,,,,,,,,,,,,,,,,,,,,
,,,,,,,,,,,,,,,,,200524,22,2022-01-29_11h07.40.261,lexical_decision_task_DD,2021.2.3,MacIntel,59.85873339,,,,,,,,,,,,1.3273,1,,,,,,,,,,,,,,m,1,1.3273,,,,,,,,0.766974826,-0.098680556,0,0,0,,0,62,62,57,1,MOOSE,C,old,m,./images/MOOSE.png,,,,,,,,,,,,,,,,,,,,,
,,,,,,,,,,,,,,,,,200524,22,2022-01-29_11h07.40.261,lexical_decision_task_DD,2021.2.3,MacIntel,59.85873339,,,,,,,,,,,,3.0033,1,,,,,,,,,,,,,,m,1,3.0033,,,,,,,,0.766974826,-0.098680556,0,0,0,,0,63,63,55,1,MUFFIN,HB,old,m,./images/MUFFINHB.png,,,,,,,,,,,,,,,,,,,,,
,,,,,,,,,,,,,,,,,200524,22,2022-01-29_11h07.40.261,lexical_decision_task_DD,2021.2.3,MacIntel,59.85873339,,,,,,,,,,,,1.8719,1,,,,,,,,,,,,,,z,1,1.8719,,,,,,,,0.766974826,-0.098680556,0,0,0,,0,64,64,95,1,HANTY,LB,old,z,./images/HANTYLB.png,,,,,,,,,,,,,,,,,,,,,
,,,,,,,,,,,,,,,,,200524,22,2022-01-29_11h07.40.261,lexical_decision_task_DD,2021.2.3,MacIntel,59.85873339,,,,,,,,,,,,1.2515,1,,,,,,,,,,,,,,m,1,1.2515,,,,,,,,0.766974826,-0.098680556,0,0,0,,0,65,65,8,1,TULIP,LB,old,m,./images/TULIPLB.png,,,,,,,,,,,,,,,,,,,,,
,,,,,,,,,,,,,,,,,200524,22,2022-01-29_11h07.40.261,lexical_decision_task_DD,2021.2.3,MacIntel,59.85873339,,,,,,,,,,,,1.4702,1,,,,,,,,,,,,,,m,1,1.4702,,,,,,,,0.766974826,-0.098680556,0,0,0,,0,66,66,7,1,PAINT,HB,old,m,./images/PAINTHB.png,,,,,,,,,,,,,,,,,,,,,
,,,,,,,,,,,,,,,,,200524,22,2022-01-29_11h07.40.261,lexical_decision_task_DD,2021.2.3,MacIntel,59.85873339,,,,,,,,,,,,2.4731,1,,,,,,,,,,,,,,z,1,2.4731,,,,,,,,0.766974826,-0.098680556,0,0,0,,0,67,67,153,1,CLUPS,C,old,z,./images/CLUPS.png,,,,,,,,,,,,,,,,,,,,,
,,,,,,,,,,,,,,,,,200524,22,2022-01-29_11h07.40.261,lexical_decision_task_DD,2021.2.3,MacIntel,59.85873339,,,,,,,,,,,,1.293,1,,,,,,,,,,,,,,m,1,1.293,,,,,,,,0.766974826,-0.098680556,0,0,0,,0,68,68,71,1,PIMPLE,LB,old,m,./images/PIMPLELB.png,,,,,,,,,,,,,,,,,,,,,
,,,,,,,,,,,,,,,,,200524,22,2022-01-29_11h07.40.261,lexical_decision_task_DD,2021.2.3,MacIntel,59.85873339,,,,,,,,,,,,3.8711,1,,,,,,,,,,,,,,m,1,3.8711,,,,,,,,0.766974826,-0.098680556,0,0,0,,0,69,69,72,1,NOOSE,C,old,m,./images/NOOSE.png,,,,,,,,,,,,,,,,,,,,,
,,,,,,,,,,,,,,,,,200524,22,2022-01-29_11h07.40.261,lexical_decision_task_DD,2021.2.3,MacIntel,59.85873339,,,,,,,,,,,,3.5047,0,,,,,,,,,,,,,,z,0,3.5047,,,,,,,,0.766974826,-0.098680556,0,0,0,,0,70,70,31,1,QUILL,HB,old,m,./images/QUILLHB.png,,,,,,,,,,,,,,,,,,,,,
,,,,,,,,,,,,,,,,,200524,22,2022-01-29_11h07.40.261,lexical_decision_task_DD,2021.2.3,MacIntel,59.85873339,,,,,,,,,,,,1.5508,1,,,,,,,,,,,,,,m,1,1.5508,,,,,,,,0.766974826,-0.098680556,0,0,0,,0,71,71,74,1,CEMENT,LB,old,m,./images/CEMENTLB.png,,,,,,,,,,,,,,,,,,,,,
,,,,,,,,,,,,,,,,,200524,22,2022-01-29_11h07.40.261,lexical_decision_task_DD,2021.2.3,MacIntel,59.85873339,,,,,,,,,,,,1.434,1,,,,,,,,,,,,,,z,1,1.434,,,,,,,,0.766974826,-0.098680556,0,0,0,,0,72,72,125,1,MOOKY,LB,old,z,./images/MOOKYLB.png,,,,,,,,,,,,,,,,,,,,,
,,,,,,,,,,,,,,,,,200524,22,2022-01-29_11h07.40.261,lexical_decision_task_DD,2021.2.3,MacIntel,59.85873339,,,,,,,,,,,,2.3719,1,,,,,,,,,,,,,,z,1,2.3719,,,,,,,,0.766974826,-0.098680556,0,0,0,,0,73,73,85,1,CHULK,HB,old,z,./images/CHULKHB.png,,,,,,,,,,,,,,,,,,,,,
,,,,,,,,,,,,,,,,,200524,22,2022-01-29_11h07.40.261,lexical_decision_task_DD,2021.2.3,MacIntel,59.85873339,,,,,,,,,,,,3.704,1,,,,,,,,,,,,,,z,1,3.704,,,,,,,,0.766974826,-0.098680556,0,0,0,,0,74,74,94,1,BLANS,HB,old,z,./images/BLANSHB.png,,,,,,,,,,,,,,,,,,,,,
,,,,,,,,,,,,,,,,,200524,22,2022-01-29_11h07.40.261,lexical_decision_task_DD,2021.2.3,MacIntel,59.85873339,,,,,,,,,,,,1.2572,1,,,,,,,,,,,,,,m,1,1.2572,,,,,,,,0.766974826,-0.098680556,0,0,0,,0,75,75,63,1,MIRROR,C,old,m,./images/MIRROR.png,,,,,,,,,,,,,,,,,,,,,
,,,,,,,,,,,,,,,,,200524,22,2022-01-29_11h07.40.261,lexical_decision_task_DD,2021.2.3,MacIntel,59.85873339,,,,,,,,,,,,4.0052,1,,,,,,,,,,,,,,z,1,4.0052,,,,,,,,0.766974826,-0.098680556,0,0,0,,0,76,76,139,1,BLEAR,HB,old,z,./images/BLEARHB.png,,,,,,,,,,,,,,,,,,,,,
,,,,,,,,,,,,,,,,,200524,22,2022-01-29_11h07.40.261,lexical_decision_task_DD,2021.2.3,MacIntel,59.85873339,,,,,,,,,,,,1.9537,1,,,,,,,,,,,,,,z,1,1.9537,,,,,,,,0.766974826,-0.098680556,0,0,0,,0,77,77,86,1,AIFED,LB,old,z,./images/AIFEDLB.png,,,,,,,,,,,,,,,,,,,,,
,,,,,,,,,,,,,,,,,200524,22,2022-01-29_11h07.40.261,lexical_decision_task_DD,2021.2.3,MacIntel,59.85873339,,,,,,,,,,,,0.8869,1,,,,,,,,,,,,,,z,1,0.8869,,,,,,,,0.766974826,-0.098680556,0,0,0,,0,78,78,132,1,SCIFF,C,old,z,./images/SCIFF.png,,,,,,,,,,,,,,,,,,,,,
,,,,,,,,,,,,,,,,,200524,22,2022-01-29_11h07.40.261,lexical_decision_task_DD,2021.2.3,MacIntel,59.85873339,,,,,,,,,,,,1.9422,1,,,,,,,,,,,,,,z,1,1.9422,,,,,,,,0.766974826,-0.098680556,0,0,0,,0,79,79,120,1,RINED,C,old,z,./images/RINED.png,,,,,,,,,,,,,,,,,,,,,
,,,,,,,,,,,,,,,,,200524,22,2022-01-29_11h07.40.261,lexical_decision_task_DD,2021.2.3,MacIntel,59.85873339,,,,,,,,,,,,1.8672,1,,,,,,,,,,,,,,z,1,1.8672,,,,,,,,0.766974826,-0.098680556,0,0,0,,0,80,80,124,1,TUNCH,HB,old,z,./images/TUNCHHB.png,,,,,,,,,,,,,,,,,,,,,
,,,,,,,,,,,,,,,,,200524,22,2022-01-29_11h07.40.261,lexical_decision_task_DD,2021.2.3,MacIntel,59.85873339,,,,,,,,,,,,1.2589,1,,,,,,,,,,,,,,m,1,1.2589,,,,,,,,0.766974826,-0.098680556,0,0,0,,0,81,81,27,1,ATTIC,C,old,m,./images/ATTIC.png,,,,,,,,,,,,,,,,,,,,,
,,,,,,,,,,,,,,,,,200524,22,2022-01-29_11h07.40.261,lexical_decision_task_DD,2021.2.3,MacIntel,59.85873339,,,,,,,,,,,,4.2219,1,,,,,,,,,,,,,,z,1,4.2219,,,,,,,,0.766974826,-0.098680556,0,0,0,,0,82,82,151,1,TINKY,HB,old,z,./images/TINKYHB.png,,,,,,,,,,,,,,,,,,,,,
,,,,,,,,,,,,,,,,,200524,22,2022-01-29_11h07.40.261,lexical_decision_task_DD,2021.2.3,MacIntel,59.85873339,,,,,,,,,,,,0.9715,1,,,,,,,,,,,,,,m,1,0.9715,,,,,,,,0.766974826,-0.098680556,0,0,0,space,0,83,83,24,1,SCREW,C,old,m,./images/SCREW.png,41.3201,,,,,,,,,,,,,,,,,,,,
,,,,,,,,,,,,,,,,,200524,22,2022-01-29_11h07.40.261,lexical_decision_task_DD,2021.2.3,MacIntel,59.85873339,,,,,,,,,,,,1.5192,1,,,,,,,,,,,,,,z,1,1.5192,,,,,,,,0.766974826,-0.098680556,0,0,0,,0,84,84,160,1,VEETS,HB,old,z,./images/VEETSHB.png,,,,,,,,,,,,,,,,,,,,,
,,,,,,,,,,,,,,,,,200524,22,2022-01-29_11h07.40.261,lexical_decision_task_DD,2021.2.3,MacIntel,59.85873339,,,,,,,,,,,,0.9812,1,,,,,,,,,,,,,,m,1,0.9812,,,,,,,,0.766974826,-0.098680556,0,0,0,,0,85,85,47,1,BERRY,LB,old,m,./images/BERRYLB.png,,,,,,,,,,,,,,,,,,,,,
,,,,,,,,,,,,,,,,,200524,22,2022-01-29_11h07.40.261,lexical_decision_task_DD,2021.2.3,MacIntel,59.85873339,,,,,,,,,,,,0.8774,1,,,,,,,,,,,,,,m,1,0.8774,,,,,,,,0.766974826,-0.098680556,0,0,0,,0,86,86,48,1,SPORT,C,old,m,./images/SPORT.png,,,,,,,,,,,,,,,,,,,,,
,,,,,,,,,,,,,,,,,200524,22,2022-01-29_11h07.40.261,lexical_decision_task_DD,2021.2.3,MacIntel,59.85873339,,,,,,,,,,,,2.1377,1,,,,,,,,,,,,,,m,1,2.1377,,,,,,,,0.766974826,-0.098680556,0,0,0,,0,87,87,52,1,BANNER,HB,old,m,./images/BANNERHB.png,,,,,,,,,,,,,,,,,,,,,
,,,,,,,,,,,,,,,,,200524,22,2022-01-29_11h07.40.261,lexical_decision_task_DD,2021.2.3,MacIntel,59.85873339,,,,,,,,,,,,1.8664,1,,,,,,,,,,,,,,m,1,1.8664,,,,,,,,0.766974826,-0.098680556,0,0,0,,0,88,88,4,1,MUSCLE,HB,old,m,./images/MUSCLEHB.png,,,,,,,,,,,,,,,,,,,,,
,,,,,,,,,,,,,,,,,200524,22,2022-01-29_11h07.40.261,lexical_decision_task_DD,2021.2.3,MacIntel,59.85873339,,,,,,,,,,,,2.9225,1,,,,,,,,,,,,,,m,1,2.9225,,,,,,,,0.766974826,-0.098680556,0,0,0,,0,89,89,19,1,DOUGH,HB,old,m,./images/DOUGHHB.png,,,,,,,,,,,,,,,,,,,,,
,,,,,,,,,,,,,,,,,200524,22,2022-01-29_11h07.40.261,lexical_decision_task_DD,2021.2.3,MacIntel,59.85873339,,,,,,,,,,,,1.3224,1,,,,,,,,,,,,,,m,1,1.3224,,,,,,,,0.766974826,-0.098680556,0,0,0,,0,90,90,33,1,MAGGOT,C,old,m,./images/MAGGOT.png,,,,,,,,,,,,,,,,,,,,,
,,,,,,,,,,,,,,,,,200524,22,2022-01-29_11h07.40.261,lexical_decision_task_DD,2021.2.3,MacIntel,59.85873339,,,,,,,,,,,,1.3682,1,,,,,,,,,,,,,,z,1,1.3682,,,,,,,,0.766974826,-0.098680556,0,0,0,,0,91,91,161,1,BLAPS,LB,old,z,./images/BLAPSLB.png,,,,,,,,,,,,,,,,,,,,,
,,,,,,,,,,,,,,,,,200524,22,2022-01-29_11h07.40.261,lexical_decision_task_DD,2021.2.3,MacIntel,59.85873339,,,,,,,,,,,,1.5708,1,,,,,,,,,,,,,,m,1,1.5708,,,,,,,,0.766974826,-0.098680556,0,0,0,,0,92,92,41,1,STRING,LB,old,m,./images/STRINGLB.png,,,,,,,,,,,,,,,,,,,,,
,,,,,,,,,,,,,,,,,200524,22,2022-01-29_11h07.40.261,lexical_decision_task_DD,2021.2.3,MacIntel,59.85873339,,,,,,,,,,,,1.027,1,,,,,,,,,,,,,,m,1,1.027,,,,,,,,0.766974826,-0.098680556,0,0,0,,0,93,93,78,1,LITTER,C,old,m,./images/LITTER.png,,,,,,,,,,,,,,,,,,,,,
,,,,,,,,,,,,,,,,,200524,22,2022-01-29_11h07.40.261,lexical_decision_task_DD,2021.2.3,MacIntel,59.85873339,,,,,,,,,,,,1.3376,1,,,,,,,,,,,,,,m,1,1.3376,,,,,,,,0.766974826,-0.098680556,0,0,0,,0,94,94,28,1,FALCON,HB,old,m,./images/FALCONHB.png,,,,,,,,,,,,,,,,,,,,,
,,,,,,,,,,,,,,,,,200524,22,2022-01-29_11h07.40.261,lexical_decision_task_DD,2021.2.3,MacIntel,59.85873339,,,,,,,,,,,,1.4846,1,,,,,,,,,,,,,,m,1,1.4846,,,,,,,,0.766974826,-0.098680556,0,0,0,,0,95,95,82,1,SUNSET,HB,old,m,./images/SUNSETHB.png,,,,,,,,,,,,,,,,,,,,,
,,,,,,,,,,,,,,,,,200524,22,2022-01-29_11h07.40.261,lexical_decision_task_DD,2021.2.3,MacIntel,59.85873339,,,,,,,,,,,,1.1353,1,,,,,,,,,,,,,,z,1,1.1353,,,,,,,,0.766974826,-0.098680556,0,0,0,,0,96,96,119,1,PAFER,LB,old,z,./images/PAFERLB.png,,,,,,,,,,,,,,,,,,,,,
,,,,,,,,,,,,,,,,,200524,22,2022-01-29_11h07.40.261,lexical_decision_task_DD,2021.2.3,MacIntel,59.85873339,,,,,,,,,,,,1.1996,1,,,,,,,,,,,,,,m,1,1.1996,,,,,,,,0.766974826,-0.098680556,0,0,0,,0,97,97,13,1,MOTOR,HB,old,m,./images/MOTORHB.png,,,,,,,,,,,,,,,,,,,,,
,,,,,,,,,,,,,,,,,200524,22,2022-01-29_11h07.40.261,lexical_decision_task_DD,2021.2.3,MacIntel,59.85873339,,,,,,,,,,,,0.9078,1,,,,,,,,,,,,,,z,1,0.9078,,,,,,,,0.766974826,-0.098680556,0,0,0,,0,98,98,101,1,GLEET,LB,old,z,./images/GLEETLB.png,,,,,,,,,,,,,,,,,,,,,
,,,,,,,,,,,,,,,,,200524,22,2022-01-29_11h07.40.261,lexical_decision_task_DD,2021.2.3,MacIntel,59.85873339,,,,,,,,,,,,4.3791,1,,,,,,,,,,,,,,z,1,4.3791,,,,,,,,0.766974826,-0.098680556,0,0,0,,0,99,99,109,1,BURGE,HB,old,z,./images/BURGEHB.png,,,,,,,,,,,,,,,,,,,,,
,,,,,,,,,,,,,,,,,200524,22,2022-01-29_11h07.40.261,lexical_decision_task_DD,2021.2.3,MacIntel,59.85873339,,,,,,,,,,,,1.2457,1,,,,,,,,,,,,,,z,1,1.2457,,,,,,,,0.766974826,-0.098680556,0,0,0,,0,100,100,144,1,NAIRY,C,old,z,./images/NAIRY.png,,,,,,,,,,,,,,,,,,,,,
,,,,,,,,,,,,,,,,,200524,22,2022-01-29_11h07.40.261,lexical_decision_task_DD,2021.2.3,MacIntel,59.85873339,,,,,,,,,,,,2.5395,0,,,,,,,,,,,,,,m,0,2.5395,,,,,,,,0.766974826,-0.098680556,0,0,0,,0,101,101,104,1,GITTY,LB,old,z,./images/GITTYLB.png,,,,,,,,,,,,,,,,,,,,,
,,,,,,,,,,,,,,,,,200524,22,2022-01-29_11h07.40.261,lexical_decision_task_DD,2021.2.3,MacIntel,59.85873339,,,,,,,,,,,,1.8284,1,,,,,,,,,,,,,,z,1,1.8284,,,,,,,,0.766974826,-0.098680556,0,0,0,,0,102,102,143,1,MONGS,LB,old,z,./images/MONGSLB.png,,,,,,,,,,,,,,,,,,,,,
,,,,,,,,,,,,,,,,,200524,22,2022-01-29_11h07.40.261,lexical_decision_task_DD,2021.2.3,MacIntel,59.85873339,,,,,,,,,,,,1.3181,1,,,,,,,,,,,,,,z,1,1.3181,,,,,,,,0.766974826,-0.098680556,0,0,0,,0,103,103,128,1,GRIFT,LB,old,z,./images/GRIFTLB.png,,,,,,,,,,,,,,,,,,,,,
,,,,,,,,,,,,,,,,,200524,22,2022-01-29_11h07.40.261,lexical_decision_task_DD,2021.2.3,MacIntel,59.85873339,,,,,,,,,,,,0.8659,1,,,,,,,,,,,,,,m,1,0.8659,,,,,,,,0.766974826,-0.098680556,0,0,0,,0,104,104,62,1,PURSE,LB,old,m,./images/PURSELB.png,,,,,,,,,,,,,,,,,,,,,
,,,,,,,,,,,,,,,,,200524,22,2022-01-29_11h07.40.261,lexical_decision_task_DD,2021.2.3,MacIntel,59.85873339,,,,,,,,,,,,0.9051,1,,,,,,,,,,,,,,z,1,0.9051,,,,,,,,0.766974826,-0.098680556,0,0,0,,0,105,105,156,1,HIXES,C,old,z,./images/HIXES.png,,,,,,,,,,,,,,,,,,,,,
,,,,,,,,,,,,,,,,,200524,22,2022-01-29_11h07.40.261,lexical_decision_task_DD,2021.2.3,MacIntel,59.85873339,,,,,,,,,,,,1.4003,1,,,,,,,,,,,,,,m,1,1.4003,,,,,,,,0.766974826,-0.098680556,0,0,0,,0,106,106,1,1,PLANK,HB,old,m,./images/PLANKHB.png,,,,,,,,,,,,,,,,,,,,,
,,,,,,,,,,,,,,,,,200524,22,2022-01-29_11h07.40.261,lexical_decision_task_DD,2021.2.3,MacIntel,59.85873339,,,,,,,,,,,,3.7776,1,,,,,,,,,,,,,,z,1,3.7776,,,,,,,,0.766974826,-0.098680556,0,0,0,,0,107,107,154,1,THINT,HB,old,z,./images/THINTHB.png,,,,,,,,,,,,,,,,,,,,,
,,,,,,,,,,,,,,,,,200524,22,2022-01-29_11h07.40.261,lexical_decision_task_DD,2021.2.3,MacIntel,59.85873339,,,,,,,,,,,,2.2096,1,,,,,,,,,,,,,,z,1,2.2096,,,,,,,,0.766974826,-0.098680556,0,0,0,,0,108,108,103,1,FLORT,HB,old,z,./images/FLORTHB.png,,,,,,,,,,,,,,,,,,,,,
,,,,,,,,,,,,,,,,,200524,22,2022-01-29_11h07.40.261,lexical_decision_task_DD,2021.2.3,MacIntel,59.85873339,,,,,,,,,,,,2.3589,1,,,,,,,,,,,,,,m,1,2.3589,,,,,,,,0.766974826,-0.098680556,0,0,0,,0,109,109,58,1,BABOON,HB,old,m,./images/BABOONHB.png,,,,,,,,,,,,,,,,,,,,,
,,,,,,,,,,,,,,,,,200524,22,2022-01-29_11h07.40.261,lexical_decision_task_DD,2021.2.3,MacIntel,59.85873339,,,,,,,,,,,,1.2632,1,,,,,,,,,,,,,,z,1,1.2632,,,,,,,,0.766974826,-0.098680556,0,0,0,,0,110,110,159,1,CUDDY,C,old,z,./images/CUDDY.png,,,,,,,,,,,,,,,,,,,,,
,,,,,,,,,,,,,,,,,200524,22,2022-01-29_11h07.40.261,lexical_decision_task_DD,2021.2.3,MacIntel,59.85873339,,,,,,,,,,,,1.8335,1,,,,,,,,,,,,,,m,1,1.8335,,,,,,,,0.766974826,-0.098680556,0,0,0,,0,111,111,23,1,WALRUS,LB,old,m,./images/WALRUSLB.png,,,,,,,,,,,,,,,,,,,,,
,,,,,,,,,,,,,,,,,200524,22,2022-01-29_11h07.40.261,lexical_decision_task_DD,2021.2.3,MacIntel,59.85873339,,,,,,,,,,,,1.1167,1,,,,,,,,,,,,,,m,1,1.1167,,,,,,,,0.766974826,-0.098680556,0,0,0,,0,112,112,68,1,TORCH,LB,old,m,./images/TORCHLB.png,,,,,,,,,,,,,,,,,,,,,
,,,,,,,,,,,,,,,,,200524,22,2022-01-29_11h07.40.261,lexical_decision_task_DD,2021.2.3,MacIntel,59.85873339,,,,,,,,,,,,1.6687,1,,,,,,,,,,,,,,z,1,1.6687,,,,,,,,0.766974826,-0.098680556,0,0,0,,0,113,113,127,1,NINDY,HB,old,z,./images/NINDYHB.png,,,,,,,,,,,,,,,,,,,,,
,,,,,,,,,,,,,,,,,200524,22,2022-01-29_11h07.40.261,lexical_decision_task_DD,2021.2.3,MacIntel,59.85873339,,,,,,,,,,,,1.7045,1,,,,,,,,,,,,,,z,1,1.7045,,,,,,,,0.766974826,-0.098680556,0,0,0,,0,114,114,116,1,BALGY,LB,old,z,./images/BALGYLB.png,,,,,,,,,,,,,,,,,,,,,
,,,,,,,,,,,,,,,,,200524,22,2022-01-29_11h07.40.261,lexical_decision_task_DD,2021.2.3,MacIntel,59.85873339,,,,,,,,,,,,0.8863,1,,,,,,,,,,,,,,z,1,0.8863,,,,,,,,0.766974826,-0.098680556,0,0,0,,0,115,115,96,1,KEAMS,C,old,z,./images/KEAMS.png,,,,,,,,,,,,,,,,,,,,,
,,,,,,,,,,,,,,,,,200524,22,2022-01-29_11h07.40.261,lexical_decision_task_DD,2021.2.3,MacIntel,59.85873339,,,,,,,,,,,,1.4349,1,,,,,,,,,,,,,,m,1,1.4349,,,,,,,,0.766974826,-0.098680556,0,0,0,,0,116,116,12,1,SHORE,C,old,m,./images/SHORE.png,,,,,,,,,,,,,,,,,,,,,
,,,,,,,,,,,,,,,,,200524,22,2022-01-29_11h07.40.261,lexical_decision_task_DD,2021.2.3,MacIntel,59.85873339,,,,,,,,,,,,1.1758,1,,,,,,,,,,,,,,z,1,1.1758,,,,,,,,0.766974826,-0.098680556,0,0,0,,0,117,117,138,1,PLICE,C,old,z,./images/PLICE.png,,,,,,,,,,,,,,,,,,,,,
,,,,,,,,,,,,,,,,,200524,22,2022-01-29_11h07.40.261,lexical_decision_task_DD,2021.2.3,MacIntel,59.85873339,,,,,,,,,,,,1.1436,1,,,,,,,,,,,,,,z,1,1.1436,,,,,,,,0.766974826,-0.098680556,0,0,0,,0,118,118,150,1,NOOLS,C,old,z,./images/NOOLS.png,,,,,,,,,,,,,,,,,,,,,
,,,,,,,,,,,,,,,,,200524,22,2022-01-29_11h07.40.261,lexical_decision_task_DD,2021.2.3,MacIntel,59.85873339,,,,,,,,,,,,2.0061,1,,,,,,,,,,,,,,z,1,2.0061,,,,,,,,0.766974826,-0.098680556,0,0,0,,0,119,119,136,1,WERVE,HB,old,z,./images/WERVEHB.png,,,,,,,,,,,,,,,,,,,,,
,,,,,,,,,,,,,,,,,200524,22,2022-01-29_11h07.40.261,lexical_decision_task_DD,2021.2.3,MacIntel,59.85873339,,,,,,,,,,,,2.5726,1,,,,,,,,,,,,,,z,1,2.5726,,,,,,,,0.766974826,-0.098680556,0,0,0,,0,120,120,142,1,PLASK,HB,old,z,./images/PLASKHB.png,,,,,,,,,,,,,,,,,,,,,
,,,,,,,,,,,,,,,,,200524,22,2022-01-29_11h07.40.261,lexical_decision_task_DD,2021.2.3,MacIntel,59.85873339,,,,,,,,,,,,3.0824,1,,,,,,,,,,,,,,z,1,3.0824,,,,,,,,0.766974826,-0.098680556,0,0,0,,0,121,121,162,1,LEICH,C,old,z,./images/LEICH.png,,,,,,,,,,,,,,,,,,,,,
,,,,,,,,,,,,,,,,,200524,22,2022-01-29_11h07.40.261,lexical_decision_task_DD,2021.2.3,MacIntel,59.85873339,,,,,,,,,,,,1.3216,1,,,,,,,,,,,,,,z,1,1.3216,,,,,,,,0.766974826,-0.098680556,0,0,0,,0,122,122,84,1,HAXES,C,old,z,./images/HAXES.png,,,,,,,,,,,,,,,,,,,,,
,,,,,,,,,,,,,,,,,200524,22,2022-01-29_11h07.40.261,lexical_decision_task_DD,2021.2.3,MacIntel,59.85873339,,,,,,,,,,,,1.161,1,,,,,,,,,,,,,,m,1,1.161,,,,,,,,0.766974826,-0.098680556,0,0,0,,0,123,123,21,1,KIDNEY,C,old,m,./images/KIDNEY.png,,,,,,,,,,,,,,,,,,,,,
,,,,,,,,,,,,,,,,,200524,22,2022-01-29_11h07.40.261,lexical_decision_task_DD,2021.2.3,MacIntel,59.85873339,,,,,,,,,,,,1.1792,1,,,,,,,,,,,,,,z,1,1.1792,,,,,,,,0.766974826,-0.098680556,0,0,0,,0,124,124,111,1,HOSSE,C,old,z,./images/HOSSE.png,,,,,,,,,,,,,,,,,,,,,
,,,,,,,,,,,,,,,,,200524,22,2022-01-29_11h07.40.261,lexical_decision_task_DD,2021.2.3,MacIntel,59.85873339,,,,,,,,,,,,3.0892,1,,,,,,,,,,,,,,z,1,3.0892,,,,,,,,0.766974826,-0.098680556,0,0,0,space,0,125,125,112,1,MYING,HB,old,z,./images/MYINGHB.png,25.2781,,,,,,,,,,,,,,,,,,,,
,,,,,,,,,,,,,,,,,200524,22,2022-01-29_11h07.40.261,lexical_decision_task_DD,2021.2.3,MacIntel,59.85873339,,,,,,,,,,,,1.332,1,,,,,,,,,,,,,,m,1,1.332,,,,,,,,0.766974826,-0.098680556,0,0,0,,0,126,126,14,1,PICKLE,LB,old,m,./images/PICKLELB.png,,,,,,,,,,,,,,,,,,,,,
,,,,,,,,,,,,,,,,,200524,22,2022-01-29_11h07.40.261,lexical_decision_task_DD,2021.2.3,MacIntel,59.85873339,,,,,,,,,,,,1.4937,1,,,,,,,,,,,,,,m,1,1.4937,,,,,,,,0.766974826,-0.098680556,0,0,0,,0,127,127,18,1,JAGUAR,C,old,m,./images/JAGUAR.png,,,,,,,,,,,,,,,,,,,,,
,,,,,,,,,,,,,,,,,200524,22,2022-01-29_11h07.40.261,lexical_decision_task_DD,2021.2.3,MacIntel,59.85873339,,,,,,,,,,,,2.0369,1,,,,,,,,,,,,,,m,1,2.0369,,,,,,,,0.766974826,-0.098680556,0,0,0,,0,128,128,61,1,CANDLE,HB,old,m,./images/CANDLEHB.png,,,,,,,,,,,,,,,,,,,,,
,,,,,,,,,,,,,,,,,200524,22,2022-01-29_11h07.40.261,lexical_decision_task_DD,2021.2.3,MacIntel,59.85873339,,,,,,,,,,,,1.6586,1,,,,,,,,,,,,,,m,1,1.6586,,,,,,,,0.766974826,-0.098680556,0,0,0,,0,129,129,37,1,BIRTH,HB,old,m,./images/BIRTHHB.png,,,,,,,,,,,,,,,,,,,,,
,,,,,,,,,,,,,,,,,200524,22,2022-01-29_11h07.40.261,lexical_decision_task_DD,2021.2.3,MacIntel,59.85873339,,,,,,,,,,,,2.3567,1,,,,,,,,,,,,,,z,1,2.3567,,,,,,,,0.766974826,-0.098680556,0,0,0,,0,130,130,88,1,GLUSH,HB,old,z,./images/GLUSHHB.png,,,,,,,,,,,,,,,,,,,,,
,,,,,,,,,,,,,,,,,200524,22,2022-01-29_11h07.40.261,lexical_decision_task_DD,2021.2.3,MacIntel,59.85873339,,,,,,,,,,,,2.1399,1,,,,,,,,,,,,,,m,1,2.1399,,,,,,,,0.766974826,-0.098680556,0,0,0,,0,131,131,22,1,MELON,HB,old,m,./images/MELONHB.png,,,,,,,,,,,,,,,,,,,,,
,,,,,,,,,,,,,,,,,200524,22,2022-01-29_11h07.40.261,lexical_decision_task_DD,2021.2.3,MacIntel,59.85873339,,,,,,,,,,,,1.523,1,,,,,,,,,,,,,,m,1,1.523,,,,,,,,0.766974826,-0.098680556,0,0,0,,0,132,132,34,1,CANYON,HB,old,m,./images/CANYONHB.png,,,,,,,,,,,,,,,,,,,,,
,,,,,,,,,,,,,,,,,200524,22,2022-01-29_11h07.40.261,lexical_decision_task_DD,2021.2.3,MacIntel,59.85873339,,,,,,,,,,,,0.8604,1,,,,,,,,,,,,,,m,1,0.8604,,,,,,,,0.766974826,-0.098680556,0,0,0,,0,133,133,42,1,FOLDER,C,old,m,./images/FOLDER.png,,,,,,,,,,,,,,,,,,,,,
,,,,,,,,,,,,,,,,,200524,22,2022-01-29_11h07.40.261,lexical_decision_task_DD,2021.2.3,MacIntel,59.85873339,,,,,,,,,,,,0.9555,1,,,,,,,,,,,,,,z,1,0.9555,,,,,,,,0.766974826,-0.098680556,0,0,0,,0,134,134,147,1,ZOLES,C,old,z,./images/ZOLES.png,,,,,,,,,,,,,,,,,,,,,
,,,,,,,,,,,,,,,,,200524,22,2022-01-29_11h07.40.261,lexical_decision_task_DD,2021.2.3,MacIntel,59.85873339,,,,,,,,,,,,1.2773,1,,,,,,,,,,,,,,m,1,1.2773,,,,,,,,0.766974826,-0.098680556,0,0,0,,0,135,135,29,1,CRUMB,LB,old,m,./images/CRUMBLB.png,,,,,,,,,,,,,,,,,,,,,
,,,,,,,,,,,,,,,,,200524,22,2022-01-29_11h07.40.261,lexical_decision_task_DD,2021.2.3,MacIntel,59.85873339,,,,,,,,,,,,2.7824,1,,,,,,,,,,,,,,z,1,2.7824,,,,,,,,0.766974826,-0.098680556,0,0,0,,0,136,136,157,1,INLER,HB,old,z,./images/INLERHB.png,,,,,,,,,,,,,,,,,,,,,
,,,,,,,,,,,,,,,,,200524,22,2022-01-29_11h07.40.261,lexical_decision_task_DD,2021.2.3,MacIntel,59.85873339,,,,,,,,,,,,2.9382,1,,,,,,,,,,,,,,z,1,2.9382,,,,,,,,0.766974826,-0.098680556,0,0,0,,0,137,137,152,1,FRAIN,LB,old,z,./images/FRAINLB.png,,,,,,,,,,,,,,,,,,,,,
,,,,,,,,,,,,,,,,,200524,22,2022-01-29_11h07.40.261,lexical_decision_task_DD,2021.2.3,MacIntel,59.85873339,,,,,,,,,,,,1.1273,1,,,,,,,,,,,,,,m,1,1.1273,,,,,,,,0.766974826,-0.098680556,0,0,0,,0,138,138,15,1,GREASE,C,old,m,./images/GREASE.png,,,,,,,,,,,,,,,,,,,,,
,,,,,,,,,,,,,,,,,200524,22,2022-01-29_11h07.40.261,lexical_decision_task_DD,2021.2.3,MacIntel,59.85873339,,,,,,,,,,,,0.9443,1,,,,,,,,,,,,,,m,1,0.9443,,,,,,,,0.766974826,-0.098680556,0,0,0,,0,139,139,60,1,TWINS,C,old,m,./images/TWINS.png,,,,,,,,,,,,,,,,,,,,,
,,,,,,,,,,,,,,,,,200524,22,2022-01-29_11h07.40.261,lexical_decision_task_DD,2021.2.3,MacIntel,59.85873339,,,,,,,,,,,,3.9568,0,,,,,,,,,,,,,,z,0,3.9568,,,,,,,,0.766974826,-0.098680556,0,0,0,,0,140,140,16,1,PENCE,HB,old,m,./images/PENCEHB.png,,,,,,,,,,,,,,,,,,,,,
,,,,,,,,,,,,,,,,,200524,22,2022-01-29_11h07.40.261,lexical_decision_task_DD,2021.2.3,MacIntel,59.85873339,,,,,,,,,,,,2.3248,1,,,,,,,,,,,,,,z,1,2.3248,,,,,,,,0.766974826,-0.098680556,0,0,0,,0,141,141,107,1,FASKS,LB,old,z,./images/FASKSLB.png,,,,,,,,,,,,,,,,,,,,,
,,,,,,,,,,,,,,,,,200524,22,2022-01-29_11h07.40.261,lexical_decision_task_DD,2021.2.3,MacIntel,59.85873339,,,,,,,,,,,,0.9494,1,,,,,,,,,,,,,,m,1,0.9494,,,,,,,,0.766974826,-0.098680556,0,0,0,,0,142,142,26,1,SMOKER,LB,old,m,./images/SMOKERLB.png,,,,,,,,,,,,,,,,,,,,,
,,,,,,,,,,,,,,,,,200524,22,2022-01-29_11h07.40.261,lexical_decision_task_DD,2021.2.3,MacIntel,59.85873339,,,,,,,,,,,,0.9692,1,,,,,,,,,,,,,,m,1,0.9692,,,,,,,,0.766974826,-0.098680556,0,0,0,,0,143,143,9,1,RHINO,C,old,m,./images/RHINO.png,,,,,,,,,,,,,,,,,,,,,
,,,,,,,,,,,,,,,,,200524,22,2022-01-29_11h07.40.261,lexical_decision_task_DD,2021.2.3,MacIntel,59.85873339,,,,,,,,,,,,0.861,1,,,,,,,,,,,,,,m,1,0.861,,,,,,,,0.766974826,-0.098680556,0,0,0,,0,144,144,36,1,THROAT,C,old,m,./images/THROAT.png,,,,,,,,,,,,,,,,,,,,,
,,,,,,,,,,,,,,,,,200524,22,2022-01-29_11h07.40.261,lexical_decision_task_DD,2021.2.3,MacIntel,59.85873339,,,,,,,,,,,,1.0719,1,,,,,,,,,,,,,,m,1,1.0719,,,,,,,,0.766974826,-0.098680556,0,0,0,,0,145,145,51,1,ONION,C,old,m,./images/ONION.png,,,,,,,,,,,,,,,,,,,,,
,,,,,,,,,,,,,,,,,200524,22,2022-01-29_11h07.40.261,lexical_decision_task_DD,2021.2.3,MacIntel,59.85873339,,,,,,,,,,,,0.9541,1,,,,,,,,,,,,,,m,1,0.9541,,,,,,,,0.766974826,-0.098680556,0,0,0,,0,146,146,44,1,LIZARD,LB,old,m,./images/LIZARDLB.png,,,,,,,,,,,,,,,,,,,,,
,,,,,,,,,,,,,,,,,200524,22,2022-01-29_11h07.40.261,lexical_decision_task_DD,2021.2.3,MacIntel,59.85873339,,,,,,,,,,,,1.485,1,,,,,,,,,,,,,,z,1,1.485,,,,,,,,0.766974826,-0.098680556,0,0,0,,0,147,147,164,1,SGREW,LB,old,z,./images/SGREWLB.png,,,,,,,,,,,,,,,,,,,,,
,,,,,,,,,,,,,,,,,200524,22,2022-01-29_11h07.40.261,lexical_decision_task_DD,2021.2.3,MacIntel,59.85873339,,,,,,,,,,,,1.1986,1,,,,,,,,,,,,,,z,1,1.1986,,,,,,,,0.766974826,-0.098680556,0,0,0,,0,148,148,92,1,PAIMS,LB,old,z,./images/PAIMSLB.png,,,,,,,,,,,,,,,,,,,,,
,,,,,,,,,,,,,,,,,200524,22,2022-01-29_11h07.40.261,lexical_decision_task_DD,2021.2.3,MacIntel,59.85873339,,,,,,,,,,,,1.1796,1,,,,,,,,,,,,,,z,1,1.1796,,,,,,,,0.766974826,-0.098680556,0,0,0,,0,149,149,149,1,VEASE,LB,old,z,./images/VEASELB.png,,,,,,,,,,,,,,,,,,,,,
,,,,,,,,,,,,,,,,,200524,22,2022-01-29_11h07.40.261,lexical_decision_task_DD,2021.2.3,MacIntel,59.85873339,,,,,,,,,,,,0.8547,1,,,,,,,,,,,,,,m,1,0.8547,,,,,,,,0.766974826,-0.098680556,0,0,0,,0,150,150,66,1,SWEAT,C,old,m,./images/SWEAT.png,,,,,,,,,,,,,,,,,,,,,
,,,,,,,,,,,,,,,,,200524,22,2022-01-29_11h07.40.261,lexical_decision_task_DD,2021.2.3,MacIntel,59.85873339,,,,,,,,,,,,0.8096,1,,,,,,,,,,,,,,z,1,0.8096,,,,,,,,0.766974826,-0.098680556,0,0,0,,0,151,151,102,1,DULLE,C,old,z,./images/DULLE.png,,,,,,,,,,,,,,,,,,,,,
,,,,,,,,,,,,,,,,,200524,22,2022-01-29_11h07.40.261,lexical_decision_task_DD,2021.2.3,MacIntel,59.85873339,,,,,,,,,,,,1.7068,1,,,,,,,,,,,,,,z,1,1.7068,,,,,,,,0.766974826,-0.098680556,0,0,0,,0,152,152,90,1,NEAST,C,old,z,./images/NEAST.png,,,,,,,,,,,,,,,,,,,,,
,,,,,,,,,,,,,,,,,200524,22,2022-01-29_11h07.40.261,lexical_decision_task_DD,2021.2.3,MacIntel,59.85873339,,,,,,,,,,,,4.3156,0,,,,,,,,,,,,,,z,0,4.3156,,,,,,,,0.766974826,-0.098680556,0,0,0,,0,153,153,43,1,MOSQUE,HB,old,m,./images/MOSQUEHB.png,,,,,,,,,,,,,,,,,,,,,
,,,,,,,,,,,,,,,,,200524,22,2022-01-29_11h07.40.261,lexical_decision_task_DD,2021.2.3,MacIntel,59.85873339,,,,,,,,,,,,0.9534,1,,,,,,,,,,,,,,m,1,0.9534,,,,,,,,0.766974826,-0.098680556,0,0,0,,0,154,154,65,1,FARMER,LB,old,m,./images/FARMERLB.png,,,,,,,,,,,,,,,,,,,,,
,,,,,,,,,,,,,,,,,200524,22,2022-01-29_11h07.40.261,lexical_decision_task_DD,2021.2.3,MacIntel,59.85873339,,,,,,,,,,,,0.9919,1,,,,,,,,,,,,,,m,1,0.9919,,,,,,,,0.766974826,-0.098680556,0,0,0,,0,155,155,30,1,STORM,C,old,m,./images/STORM.png,,,,,,,,,,,,,,,,,,,,,
,,,,,,,,,,,,,,,,,200524,22,2022-01-29_11h07.40.261,lexical_decision_task_DD,2021.2.3,MacIntel,59.85873339,,,,,,,,,,,,5.6136,0,,,,,,,,,,,,,,m,0,5.6136,,,,,,,,0.766974826,-0.098680556,0,0,0,,0,156,156,133,1,POWDY,HB,old,z,./images/POWDYHB.png,,,,,,,,,,,,,,,,,,,,,
,,,,,,,,,,,,,,,,,200524,22,2022-01-29_11h07.40.261,lexical_decision_task_DD,2021.2.3,MacIntel,59.85873339,,,,,,,,,,,,2.1357,1,,,,,,,,,,,,,,m,1,2.1357,,,,,,,,0.766974826,-0.098680556,0,0,0,,0,157,157,83,1,JUNGLE,LB,old,m,./images/JUNGLELB.png,,,,,,,,,,,,,,,,,,,,,
,,,,,,,,,,,,,,,,,200524,22,2022-01-29_11h07.40.261,lexical_decision_task_DD,2021.2.3,MacIntel,59.85873339,,,,,,,,,,,,0.9666,1,,,,,,,,,,,,,,m,1,0.9666,,,,,,,,0.766974826,-0.098680556,0,0,0,,0,158,158,5,1,PASTA,LB,old,m,./images/PASTALB.png,,,,,,,,,,,,,,,,,,,,,
,,,,,,,,,,,,,,,,,200524,22,2022-01-29_11h07.40.261,lexical_decision_task_DD,2021.2.3,MacIntel,59.85873339,,,,,,,,,,,,2.7373,1,,,,,,,,,,,,,,z,1,2.7373,,,,,,,,0.766974826,-0.098680556,0,0,0,,0,159,159,166,1,SHORY,HB,old,z,./images/SHORYHB.png,,,,,,,,,,,,,,,,,,,,,
,,,,,,,,,,,,,,,,,200524,22,2022-01-29_11h07.40.261,lexical_decision_task_DD,2021.2.3,MacIntel,59.85873339,,,,,,,,,,,,1.1412,1,,,,,,,,,,,,,,z,1,1.1412,,,,,,,,0.766974826,-0.098680556,0,0,0,,0,160,160,123,1,SEDGE,C,old,z,./images/SEDGE.png,,,,,,,,,,,,,,,,,,,,,
,,,,,,,,,,,,,,,,,200524,22,2022-01-29_11h07.40.261,lexical_decision_task_DD,2021.2.3,MacIntel,59.85873339,,,,,,,,,,,,1.3331,1,,,,,,,,,,,,,,z,1,1.3331,,,,,,,,0.766974826,-0.098680556,0,0,0,,0,161,161,89,1,DRIEK,LB,old,z,./images/DRIEKLB.png,,,,,,,,,,,,,,,,,,,,,
,,,,,,,,,,,,,,,,,200524,22,2022-01-29_11h07.40.261,lexical_decision_task_DD,2021.2.3,MacIntel,59.85873339,,,,,,,,,,,,1.7032,1,,,,,,,,,,,,,,m,1,1.7032,,,,,,,,0.766974826,-0.098680556,0,0,0,,0,162,162,53,1,CARPET,LB,old,m,./images/CARPETLB.png,,,,,,,,,,,,,,,,,,,,,
,,,,,,,,,,,,,,,,,200524,22,2022-01-29_11h07.40.261,lexical_decision_task_DD,2021.2.3,MacIntel,59.85873339,,,,,,,,,,,,1.3328,1,,,,,,,,,,,,,,m,1,1.3328,,,,,,,,0.766974826,-0.098680556,0,0,0,,0,163,163,2,1,BEARD,LB,old,m,./images/BEARDLB.png,,,,,,,,,,,,,,,,,,,,,
,,,,,,,,,,,,,,,,,200524,22,2022-01-29_11h07.40.261,lexical_decision_task_DD,2021.2.3,MacIntel,59.85873339,,,,,,,,,,,,2.6866,1,,,,,,,,,,,,,,z,1,2.6866,,,,,,,,0.766974826,-0.098680556,0,0,0,,0,164,164,145,1,LAMEL,HB,old,z,./images/LAMELHB.png,,,,,,,,,,,,,,,,,,,,,
,,,,,,,,,,,,,,,,,200524,22,2022-01-29_11h07.40.261,lexical_decision_task_DD,2021.2.3,MacIntel,59.85873339,,,,,,,,,,,,1.2548,1,,,,,,,,,,,,,,m,1,1.2548,,,,,,,,0.766974826,-0.098680556,0,0,0,,0,165,165,81,1,POODLE,C,old,m,./images/POODLE.png,,,,,,,,,,,,,,,,,,,,,
,,,,,,,,,,,,,,,,,200524,22,2022-01-29_11h07.40.261,lexical_decision_task_DD,2021.2.3,MacIntel,59.85873339,,,,,,,,,,,,2.5398,1,,,,,,,,,,,,,,z,1,2.5398,,,,,,,,0.766974826,-0.098680556,0,0,0,,0,166,166,158,1,EGECT,LB,old,z,./images/EGECTLB.png,,,,,,,,,,,,,,,,,,,,,
,,,,,,,,,,,,,,,,,200524,22,2022-01-29_11h07.40.261,lexical_decision_task_DD,2021.2.3,MacIntel,59.85873339,,,,,,,,,,,,1.7491,1,,,,,,,,,,,,,,z,1,1.7491,,,,,,,,0.766974826,-0.098680556,0,0,0,,0,167,167,87,1,TRING,C,old,z,./images/TRING.png,,,,,,,,,,,,,,,,,,,,,
space,0.766974826,-0.098680556,0,0,0,,,,,,,1,test,"In the next phase you will be presented with the words from the the first phase. Your job is to decide whether you remember seeing the word or not. If you remember seeing the word press ""old"" or type ""m"". If you do not remember seeing the word press ""new"" or type ""z"". Please press the space bar or click on continue to begin. ",,,200524,22,2022-01-29_11h07.40.261,lexical_decision_task_DD,2021.2.3,MacIntel,59.85873339,40.8636,,,,,,,,,,,,,,,,,,,,,,,,,,,,,,,,,,,,,,,,,,,,,,,,,,,,,0,0,0,0,1,,,,,,,,,,,,,,,
space,0.766974826,-0.098680556,0,0,0,,,,,,,1,test,"In the next phase you will be presented with the words from the the first phase. Your job is to decide whether you remember seeing the word or not. If you remember seeing the word press ""old"" or type ""m"". If you do not remember seeing the word press ""new"" or type ""z"". Please press the space bar or click on continue to begin. ",,,200524,22,2022-01-29_11h07.40.261,lexical_decision_task_DD,2021.2.3,MacIntel,59.85873339,15.5309,,,,,,,,,,,,,,,,,,,,,,,,,,,,,,,,,,,,,,,,,,,,,,,,,,,,,1,0,1,0,1,,,,,,,,,,,,,,,
,-0.012196181,-0.396966146,1,0,0,instr_done_button,,,,,,1,test,"In the next phase you will be presented with the words from the the first phase. Your job is to decide whether you remember seeing the word or not. If you remember seeing the word press ""old"" or type ""m"". If you do not remember seeing the word press ""new"" or type ""z"". Please press the space bar or click on continue to begin. ",,,200524,22,2022-01-29_11h07.40.261,lexical_decision_task_DD,2021.2.3,MacIntel,59.85873339,,,,,,,,,,,,,,,,,,,,,,,,,,,,,,,,,,,,,,,,,,,,,,,,,,,,,,2,0,2,0,1,,,,,,,,,,,,,,,
space,0.549947917,-0.063485243,0,0,0,,,,,,,1,test,"In the next phase you will be presented with the words from the the first phase. Your job is to decide whether you remember seeing the word or not. If you remember seeing the word press ""old"" or type ""m"". If you do not remember seeing the word press ""new"" or type ""z"". Please press the space bar or click on continue to begin. ",,,200524,22,2022-01-29_11h07.40.261,lexical_decision_task_DD,2021.2.3,MacIntel,59.85873339,15.7129,,,,,,,,,,,,,,,,,,,,,,,,,,,,,,,,,,,,,,,,,,,,,,,,,,,,,3,0,3,0,1,,,,,,,,,,,,,,,
,-0.050134549,-0.398997396,1,0,0,instr_done_button,,,,,,1,test,"In the next phase you will be presented with the words from the the first phase. Your job is to decide whether you remember seeing the word or not. If you remember seeing the word press ""old"" or type ""m"". If you do not remember seeing the word press ""new"" or type ""z"". Please press the space bar or click on continue to begin. ",,,200524,22,2022-01-29_11h07.40.261,lexical_decision_task_DD,2021.2.3,MacIntel,59.85873339,,,,,,,,,,,,,,,,,,,,,,,,,,,,,,,,,,,,,,,,,,,,,,,,,,,,,,4,0,4,0,1,,,,,,,,,,,,,,,
,,,,,,,,,,,,,,,,,200524,22,2022-01-29_11h07.40.261,lexical_decision_task_DD,2021.2.3,MacIntel,59.85873339,,,,,,,,,,,,2.7537,1,,,,,,,,,,,,,,,,,,,,,,,,-0.050134549,-0.398997396,0,0,0,,,,,,,DRILL,C,z,m,./images/DRILL.png,,,,,,,z,1,2.7537,,,,,,,,0,0,0,165,1
,,,,,,,,,,,,,,,,,200524,22,2022-01-29_11h07.40.261,lexical_decision_task_DD,2021.2.3,MacIntel,59.85873339,,,,,,,,,,,,2.3337,1,,,,,,,,,,,,,,,,,,,,,,,,-0.050134549,-0.398997396,0,0,0,,,,,,,KITTEN,C,m,m,./images/KITTEN.png,,,,,,,m,1,2.3337,,,,,,,,0,1,1,45,1
,,,,,,,,,,,,,,,,,200524,22,2022-01-29_11h07.40.261,lexical_decision_task_DD,2021.2.3,MacIntel,59.85873339,,,,,,,,,,,,3.1783,1,,,,,,,,,,,,,,,,,,,,,,,,-0.050134549,-0.398997396,0,0,0,,,,,,,BANNER,HB,m,m,./images/BANNERHB.png,,,,,,,m,1,3.1783,,,,,,,,0,2,2,52,1
,,,,,,,,,,,,,,,,,200524,22,2022-01-29_11h07.40.261,lexical_decision_task_DD,2021.2.3,MacIntel,59.85873339,,,,,,,,,,,,2.0046,1,,,,,,,,,,,,,,,,,,,,,,,,-0.050134549,-0.398997396,0,0,0,,,,,,,MUMMY,HB,z,m,./images/MUMMYHB.png,,,,,,,z,1,2.0046,,,,,,,,0,3,3,130,1
,,,,,,,,,,,,,,,,,200524,22,2022-01-29_11h07.40.261,lexical_decision_task_DD,2021.2.3,MacIntel,59.85873339,,,,,,,,,,,,2.4558,1,,,,,,,,,,,,,,,,,,,,,,,,-0.050134549,-0.398997396,0,0,0,,,,,,,GRANNY,LB,z,m,./images/GRANNYLB.png,,,,,,,z,1,2.4558,,,,,,,,0,4,4,104,1
,,,,,,,,,,,,,,,,,200524,22,2022-01-29_11h07.40.261,lexical_decision_task_DD,2021.2.3,MacIntel,59.85873339,,,,,,,,,,,,3.1971,1,,,,,,,,,,,,,,,,,,,,,,,,-0.050134549,-0.398997396,0,0,0,,,,,,,PEBBLE,HB,z,m,./images/PEBBLEHB.png,,,,,,,z,1,3.1971,,,,,,,,0,5,5,166,1
,,,,,,,,,,,,,,,,,200524,22,2022-01-29_11h07.40.261,lexical_decision_task_DD,2021.2.3,MacIntel,59.85873339,,,,,,,,,,,,3.2778,0,,,,,,,,,,,,,,,,,,,,,,,,-0.050134549,-0.398997396,0,0,0,,,,,,,BURIAL,LB,m,m,./images/BURIALLB.png,,,,,,,z,0,3.2778,,,,,,,,0,6,6,59,1
,,,,,,,,,,,,,,,,,200524,22,2022-01-29_11h07.40.261,lexical_decision_task_DD,2021.2.3,MacIntel,59.85873339,,,,,,,,,,,,4.6112,1,,,,,,,,,,,,,,,,,,,,,,,,-0.050134549,-0.398997396,0,0,0,,,,,,,FLESH,C,z,m,./images/FLESH.png,,,,,,,z,1,4.6112,,,,,,,,0,7,7,108,1
,,,,,,,,,,,,,,,,,200524,22,2022-01-29_11h07.40.261,lexical_decision_task_DD,2021.2.3,MacIntel,59.85873339,,,,,,,,,,,,4.7978,0,,,,,,,,,,,,,,,,,,,,,,,,-0.050134549,-0.398997396,0,0,0,,,,,,,PACKET,LB,m,m,./images/PACKETLB.png,,,,,,,z,0,4.7978,,,,,,,,0,8,8,56,1
,,,,,,,,,,,,,,,,,200524,22,2022-01-29_11h07.40.261,lexical_decision_task_DD,2021.2.3,MacIntel,59.85873339,,,,,,,,,,,,1.3545,0,,,,,,,,,,,,,,,,,,,,,,,,-0.050134549,-0.398997396,0,0,0,,,,,,,LAGOON,LB,z,m,./images/LAGOONLB.png,,,,,,,m,0,1.3545,,,,,,,,0,9,9,131,1
,,,,,,,,,,,,,,,,,200524,22,2022-01-29_11h07.40.261,lexical_decision_task_DD,2021.2.3,MacIntel,59.85873339,,,,,,,,,,,,1.4705,0,,,,,,,,,,,,,,,,,,,,,,,,-0.050134549,-0.398997396,0,0,0,,,,,,,BAMBOO,LB,z,m,./images/BAMBOOLB.png,,,,,,,m,0,1.4705,,,,,,,,0,10,10,89,1
,,,,,,,,,,,,,,,,,200524,22,2022-01-29_11h07.40.261,lexical_decision_task_DD,2021.2.3,MacIntel,59.85873339,,,,,,,,,,,,4.3804,1,,,,,,,,,,,,,,,,,,,,,,,,-0.050134549,-0.398997396,0,0,0,,,,,,,ONION,C,m,m,./images/ONION.png,,,,,,,m,1,4.3804,,,,,,,,0,11,11,51,1
,,,,,,,,,,,,,,,,,200524,22,2022-01-29_11h07.40.261,lexical_decision_task_DD,2021.2.3,MacIntel,59.85873339,,,,,,,,,,,,0.8888,1,,,,,,,,,,,,,,,,,,,,,,,,-0.050134549,-0.398997396,0,0,0,,,,,,,WEASEL,LB,m,m,./images/WEASELLB.png,,,,,,,m,1,0.8888,,,,,,,,0,12,12,80,1
,,,,,,,,,,,,,,,,,200524,22,2022-01-29_11h07.40.261,lexical_decision_task_DD,2021.2.3,MacIntel,59.85873339,,,,,,,,,,,,1.2862,1,,,,,,,,,,,,,,,,,,,,,,,,-0.050134549,-0.398997396,0,0,0,,,,,,,PISTOL,LB,z,m,./images/PISTOLLB.png,,,,,,,z,1,1.2862,,,,,,,,0,13,13,113,1
,,,,,,,,,,,,,,,,,200524,22,2022-01-29_11h07.40.261,lexical_decision_task_DD,2021.2.3,MacIntel,59.85873339,,,,,,,,,,,,1.7575,1,,,,,,,,,,,,,,,,,,,,,,,,-0.050134549,-0.398997396,0,0,0,,,,,,,POSTER,LB,z,m,./images/POSTERLB.png,,,,,,,z,1,1.7575,,,,,,,,0,14,14,137,1
,,,,,,,,,,,,,,,,,200524,22,2022-01-29_11h07.40.261,lexical_decision_task_DD,2021.2.3,MacIntel,59.85873339,,,,,,,,,,,,6.0721,1,,,,,,,,,,,,,,,,,,,,,,,,-0.050134549,-0.398997396,0,0,0,,,,,,,ENGINE,LB,z,m,./images/ENGINELB.png,,,,,,,z,1,6.0721,,,,,,,,0,15,15,122,1
,,,,,,,,,,,,,,,,,200524,22,2022-01-29_11h07.40.261,lexical_decision_task_DD,2021.2.3,MacIntel,59.85873339,,,,,,,,,,,,2.562,1,,,,,,,,,,,,,,,,,,,,,,,,-0.050134549,-0.398997396,0,0,0,,,,,,,MAGGOT,C,m,m,./images/MAGGOT.png,,,,,,,m,1,2.562,,,,,,,,0,16,16,33,1
,,,,,,,,,,,,,,,,,200524,22,2022-01-29_11h07.40.261,lexical_decision_task_DD,2021.2.3,MacIntel,59.85873339,,,,,,,,,,,,1.4029,1,,,,,,,,,,,,,,,,,,,,,,,,-0.050134549,-0.398997396,0,0,0,,,,,,,MUFFIN,HB,m,m,./images/MUFFINHB.png,,,,,,,m,1,1.4029,,,,,,,,0,17,17,55,1
,,,,,,,,,,,,,,,,,200524,22,2022-01-29_11h07.40.261,lexical_decision_task_DD,2021.2.3,MacIntel,59.85873339,,,,,,,,,,,,1.9076,1,,,,,,,,,,,,,,,,,,,,,,,,-0.050134549,-0.398997396,0,0,0,,,,,,,WHISKY,LB,z,m,./images/WHISKYLB.png,,,,,,,z,1,1.9076,,,,,,,,0,18,18,167,1
,,,,,,,,,,,,,,,,,200524,22,2022-01-29_11h07.40.261,lexical_decision_task_DD,2021.2.3,MacIntel,59.85873339,,,,,,,,,,,,1.6379,1,,,,,,,,,,,,,,,,,,,,,,,,-0.050134549,-0.398997396,0,0,0,,,,,,,CURRY,C,z,m,./images/CURRY.png,,,,,,,z,1,1.6379,,,,,,,,0,19,19,144,1
,,,,,,,,,,,,,,,,,200524,22,2022-01-29_11h07.40.261,lexical_decision_task_DD,2021.2.3,MacIntel,59.85873339,,,,,,,,,,,,3.9254,1,,,,,,,,,,,,,,,,,,,,,,,,-0.050134549,-0.398997396,0,0,0,,,,,,,DESERT,HB,z,m,./images/DESERTHB.png,,,,,,,z,1,3.9254,,,,,,,,0,20,20,136,1
,,,,,,,,,,,,,,,,,200524,22,2022-01-29_11h07.40.261,lexical_decision_task_DD,2021.2.3,MacIntel,59.85873339,,,,,,,,,,,,1.353,1,,,,,,,,,,,,,,,,,,,,,,,,-0.050134549,-0.398997396,0,0,0,,,,,,,STORM,C,m,m,./images/STORM.png,,,,,,,m,1,1.353,,,,,,,,0,21,21,30,1
,,,,,,,,,,,,,,,,,200524,22,2022-01-29_11h07.40.261,lexical_decision_task_DD,2021.2.3,MacIntel,59.85873339,,,,,,,,,,,,2.657,0,,,,,,,,,,,,,,,,,,,,,,,,-0.050134549,-0.398997396,0,0,0,,,,,,,FERRY,C,z,m,./images/FERRY.png,,,,,,,m,0,2.657,,,,,,,,0,22,22,141,1
,,,,,,,,,,,,,,,,,200524,22,2022-01-29_11h07.40.261,lexical_decision_task_DD,2021.2.3,MacIntel,59.85873339,,,,,,,,,,,,3.092,1,,,,,,,,,,,,,,,,,,,,,,,,-0.050134549,-0.398997396,0,0,0,,,,,,,VALLEY,LB,z,m,./images/VALLEYLB.png,,,,,,,z,1,3.092,,,,,,,,0,23,23,152,1
,,,,,,,,,,,,,,,,,200524,22,2022-01-29_11h07.40.261,lexical_decision_task_DD,2021.2.3,MacIntel,59.85873339,,,,,,,,,,,,1.4698,1,,,,,,,,,,,,,,,,,,,,,,,,-0.050134549,-0.398997396,0,0,0,,,,,,,MUSCLE,HB,m,m,./images/MUSCLEHB.png,,,,,,,m,1,1.4698,,,,,,,,0,24,24,4,1
,,,,,,,,,,,,,,,,,200524,22,2022-01-29_11h07.40.261,lexical_decision_task_DD,2021.2.3,MacIntel,59.85873339,,,,,,,,,,,,2.1394,0,,,,,,,,,,,,,,,,,,,,,,,,-0.050134549,-0.398997396,0,0,0,,,,,,,FENCE,LB,z,m,./images/FENCELB.png,,,,,,,m,0,2.1394,,,,,,,,0,25,25,98,1
,,,,,,,,,,,,,,,,,200524,22,2022-01-29_11h07.40.261,lexical_decision_task_DD,2021.2.3,MacIntel,59.85873339,,,,,,,,,,,,0.9694,0,,,,,,,,,,,,,,,,,,,,,,,,-0.050134549,-0.398997396,0,0,0,,,,,,,TOWEL,HB,z,m,./images/TOWELHB.png,,,,,,,m,0,0.9694,,,,,,,,0,26,26,85,1
,,,,,,,,,,,,,,,,,200524,22,2022-01-29_11h07.40.261,lexical_decision_task_DD,2021.2.3,MacIntel,59.85873339,,,,,,,,,,,,1.9397,1,,,,,,,,,,,,,,,,,,,,,,,,-0.050134549,-0.398997396,0,0,0,,,,,,,RULER,HB,z,m,./images/RULERHB.png,,,,,,,z,1,1.9397,,,,,,,,0,27,27,163,1
,,,,,,,,,,,,,,,,,200524,22,2022-01-29_11h07.40.261,lexical_decision_task_DD,2021.2.3,MacIntel,59.85873339,,,,,,,,,,,,1.5043,1,,,,,,,,,,,,,,,,,,,,,,,,-0.050134549,-0.398997396,0,0,0,,,,,,,SAUCE,C,z,m,./images/SAUCE.png,,,,,,,z,1,1.5043,,,,,,,,0,28,28,135,1
,,,,,,,,,,,,,,,,,200524,22,2022-01-29_11h07.40.261,lexical_decision_task_DD,2021.2.3,MacIntel,59.85873339,,,,,,,,,,,,1.7542,0,,,,,,,,,,,,,,,,,,,,,,,,-0.050134549,-0.398997396,0,0,0,,,,,,,BERRY,LB,m,m,./images/BERRYLB.png,,,,,,,z,0,1.7542,,,,,,,,0,29,29,47,1
,,,,,,,,,,,,,,,,,200524,22,2022-01-29_11h07.40.261,lexical_decision_task_DD,2021.2.3,MacIntel,59.85873339,,,,,,,,,,,,4.0314,1,,,,,,,,,,,,,,,,,,,,,,,,-0.050134549,-0.398997396,0,0,0,,,,,,,KIDNEY,C,m,m,./images/KIDNEY.png,,,,,,,m,1,4.0314,,,,,,,,0,30,30,21,1
,,,,,,,,,,,,,,,,,200524,22,2022-01-29_11h07.40.261,lexical_decision_task_DD,2021.2.3,MacIntel,59.85873339,,,,,,,,,,,,2.0632,1,,,,,,,,,,,,,,,,,,,,,,,,-0.050134549,-0.398997396,0,0,0,,,,,,,BOXER,HB,z,m,./images/BOXERHB.png,,,,,,,z,1,2.0632,,,,,,,,0,31,31,88,1
,,,,,,,,,,,,,,,,,200524,22,2022-01-29_11h07.40.261,lexical_decision_task_DD,2021.2.3,MacIntel,59.85873339,,,,,,,,,,,,1.1874,1,,,,,,,,,,,,,,,,,,,,,,,,-0.050134549,-0.398997396,0,0,0,,,,,,,LLAMA,LB,z,m,./images/LLAMALB.png,,,,,,,z,1,1.1874,,,,,,,,0,32,32,119,1
,,,,,,,,,,,,,,,,,200524,22,2022-01-29_11h07.40.261,lexical_decision_task_DD,2021.2.3,MacIntel,59.85873339,,,,,,,,,,,,1.1216,1,,,,,,,,,,,,,,,,,,,,,,,,-0.050134549,-0.398997396,0,0,0,,,,,,,TORCH,LB,m,m,./images/TORCHLB.png,,,,,,,m,1,1.1216,,,,,,,,0,33,33,68,1
,,,,,,,,,,,,,,,,,200524,22,2022-01-29_11h07.40.261,lexical_decision_task_DD,2021.2.3,MacIntel,59.85873339,,,,,,,,,,,,2.1048,1,,,,,,,,,,,,,,,,,,,,,,,,-0.050134549,-0.398997396,0,0,0,,,,,,,MEDAL,LB,z,m,./images/MEDALLB.png,,,,,,,z,1,2.1048,,,,,,,,0,34,34,95,1
,,,,,,,,,,,,,,,,,200524,22,2022-01-29_11h07.40.261,lexical_decision_task_DD,2021.2.3,MacIntel,59.85873339,,,,,,,,,,,,2.5242,1,,,,,,,,,,,,,,,,,,,,,,,,-0.050134549,-0.398997396,0,0,0,,,,,,,SNACK,HB,m,m,./images/SNACKHB.png,,,,,,,m,1,2.5242,,,,,,,,0,35,35,73,1
,,,,,,,,,,,,,,,,,200524,22,2022-01-29_11h07.40.261,lexical_decision_task_DD,2021.2.3,MacIntel,59.85873339,,,,,,,,,,,,1.5048,1,,,,,,,,,,,,,,,,,,,,,,,,-0.050134549,-0.398997396,0,0,0,,,,,,,STREAM,LB,z,m,./images/STREAMLB.png,,,,,,,z,1,1.5048,,,,,,,,0,36,36,125,1
,,,,,,,,,,,,,,,,,200524,22,2022-01-29_11h07.40.261,lexical_decision_task_DD,2021.2.3,MacIntel,59.85873339,,,,,,,,,,,,3.8105,1,,,,,,,,,,,,,,,,,,,,,,,,-0.050134549,-0.398997396,0,0,0,,,,,,,CLOTH,LB,z,m,./images/CLOTHLB.png,,,,,,,z,1,3.8105,,,,,,,,0,37,37,107,1
,,,,,,,,,,,,,,,,,200524,22,2022-01-29_11h07.40.261,lexical_decision_task_DD,2021.2.3,MacIntel,59.85873339,,,,,,,,,,,,5.7995,0,,,,,,,,,,,,,,,,,,,,,,,,-0.050134549,-0.398997396,0,0,0,,,,,,,BUBBLE,LB,z,m,./images/BUBBLELB.png,,,,,,,m,0,5.7995,,,,,,,,0,38,38,155,1
,,,,,,,,,,,,,,,,,200524,22,2022-01-29_11h07.40.261,lexical_decision_task_DD,2021.2.3,MacIntel,59.85873339,,,,,,,,,,,,1.2477,1,,,,,,,,,,,,,,,,,,,,,,,,-0.050134549,-0.398997396,0,0,0,,,,,,,CANYON,HB,m,m,./images/CANYONHB.png,,,,,,,m,1,1.2477,,,,,,,,0,39,39,34,1
,,,,,,,,,,,,,,,,,200524,22,2022-01-29_11h07.40.261,lexical_decision_task_DD,2021.2.3,MacIntel,59.85873339,,,,,,,,,,,,2.5064,1,,,,,,,,,,,,,,,,,,,,,,,,-0.050134549,-0.398997396,0,0,0,,,,,,,CLIFF,LB,z,m,./images/CLIFFLB.png,,,,,,,z,1,2.5064,,,,,,,,0,40,40,92,1
,,,,,,,,,,,,,,,,,200524,22,2022-01-29_11h07.40.261,lexical_decision_task_DD,2021.2.3,MacIntel,59.85873339,,,,,,,,,,,,1.2203,1,,,,,,,,,,,,,,,,,,,,,,,,-0.050134549,-0.398997396,0,0,0,space,,,,,,FALCON,HB,m,m,./images/FALCONHB.png,28.8591,,,,,,m,1,1.2203,,,,,,,,0,41,41,28,1
,,,,,,,,,,,,,,,,,200524,22,2022-01-29_11h07.40.261,lexical_decision_task_DD,2021.2.3,MacIntel,59.85873339,,,,,,,,,,,,3.9044,1,,,,,,,,,,,,,,,,,,,,,,,,-0.050134549,-0.398997396,0,0,0,,,,,,,THROAT,C,m,m,./images/THROAT.png,,,,,,,m,1,3.9044,,,,,,,,0,42,42,36,1
,,,,,,,,,,,,,,,,,200524,22,2022-01-29_11h07.40.261,lexical_decision_task_DD,2021.2.3,MacIntel,59.85873339,,,,,,,,,,,,2.6062,1,,,,,,,,,,,,,,,,,,,,,,,,-0.050134549,-0.398997396,0,0,0,,,,,,,PARADE,LB,z,m,./images/PARADELB.png,,,,,,,z,1,2.6062,,,,,,,,0,43,43,101,1
,,,,,,,,,,,,,,,,,200524,22,2022-01-29_11h07.40.261,lexical_decision_task_DD,2021.2.3,MacIntel,59.85873339,,,,,,,,,,,,2.3726,1,,,,,,,,,,,,,,,,,,,,,,,,-0.050134549,-0.398997396,0,0,0,,,,,,,MELON,HB,m,m,./images/MELONHB.png,,,,,,,m,1,2.3726,,,,,,,,0,44,44,22,1
,,,,,,,,,,,,,,,,,200524,22,2022-01-29_11h07.40.261,lexical_decision_task_DD,2021.2.3,MacIntel,59.85873339,,,,,,,,,,,,3.6079,0,,,,,,,,,,,,,,,,,,,,,,,,-0.050134549,-0.398997396,0,0,0,,,,,,,WALNUT,C,z,m,./images/WALNUT.png,,,,,,,m,0,3.6079,,,,,,,,0,45,45,84,1
,,,,,,,,,,,,,,,,,200524,22,2022-01-29_11h07.40.261,lexical_decision_task_DD,2021.2.3,MacIntel,59.85873339,,,,,,,,,,,,1.3909,1,,,,,,,,,,,,,,,,,,,,,,,,-0.050134549,-0.398997396,0,0,0,,,,,,,HOCKEY,LB,z,m,./images/HOCKEYLB.png,,,,,,,z,1,1.3909,,,,,,,,0,46,46,116,1
,,,,,,,,,,,,,,,,,200524,22,2022-01-29_11h07.40.261,lexical_decision_task_DD,2021.2.3,MacIntel,59.85873339,,,,,,,,,,,,1.17,1,,,,,,,,,,,,,,,,,,,,,,,,-0.050134549,-0.398997396,0,0,0,,,,,,,PEARL,HB,m,m,./images/PEARLHB.png,,,,,,,m,1,1.17,,,,,,,,0,47,47,46,1
,,,,,,,,,,,,,,,,,200524,22,2022-01-29_11h07.40.261,lexical_decision_task_DD,2021.2.3,MacIntel,59.85873339,,,,,,,,,,,,4.6148,1,,,,,,,,,,,,,,,,,,,,,,,,-0.050134549,-0.398997396,0,0,0,,,,,,,URINE,HB,m,m,./images/URINEHB.png,,,,,,,m,1,4.6148,,,,,,,,0,48,48,70,1
,,,,,,,,,,,,,,,,,200524,22,2022-01-29_11h07.40.261,lexical_decision_task_DD,2021.2.3,MacIntel,59.85873339,,,,,,,,,,,,5.3472,0,,,,,,,,,,,,,,,,,,,,,,,,-0.050134549,-0.398997396,0,0,0,,,,,,,BLOKE,C,z,m,./images/BLOKE.png,,,,,,,m,0,5.3472,,,,,,,,0,49,49,96,1
,,,,,,,,,,,,,,,,,200524,22,2022-01-29_11h07.40.261,lexical_decision_task_DD,2021.2.3,MacIntel,59.85873339,,,,,,,,,,,,1.3573,1,,,,,,,,,,,,,,,,,,,,,,,,-0.050134549,-0.398997396,0,0,0,,,,,,,STOVE,LB,z,m,./images/STOVELB.png,,,,,,,z,1,1.3573,,,,,,,,0,50,50,86,1
,,,,,,,,,,,,,,,,,200524,22,2022-01-29_11h07.40.261,lexical_decision_task_DD,2021.2.3,MacIntel,59.85873339,,,,,,,,,,,,1.0886,1,,,,,,,,,,,,,,,,,,,,,,,,-0.050134549,-0.398997396,0,0,0,,,,,,,SKIING,LB,m,m,./images/SKIINGLB.png,,,,,,,m,1,1.0886,,,,,,,,0,51,51,17,1
,,,,,,,,,,,,,,,,,200524,22,2022-01-29_11h07.40.261,lexical_decision_task_DD,2021.2.3,MacIntel,59.85873339,,,,,,,,,,,,1.2732,0,,,,,,,,,,,,,,,,,,,,,,,,-0.050134549,-0.398997396,0,0,0,,,,,,,CANDY,C,z,m,./images/CANDY.png,,,,,,,m,0,1.2732,,,,,,,,0,52,52,123,1
,,,,,,,,,,,,,,,,,200524,22,2022-01-29_11h07.40.261,lexical_decision_task_DD,2021.2.3,MacIntel,59.85873339,,,,,,,,,,,,3.4597,1,,,,,,,,,,,,,,,,,,,,,,,,-0.050134549,-0.398997396,0,0,0,,,,,,,SAILOR,HB,m,m,./images/SAILORHB.png,,,,,,,m,1,3.4597,,,,,,,,0,53,53,67,1
,,,,,,,,,,,,,,,,,200524,22,2022-01-29_11h07.40.261,lexical_decision_task_DD,2021.2.3,MacIntel,59.85873339,,,,,,,,,,,,6.2981,1,,,,,,,,,,,,,,,,,,,,,,,,-0.050134549,-0.398997396,0,0,0,,,,,,,BAKER,C,z,m,./images/BAKER.png,,,,,,,z,1,6.2981,,,,,,,,0,54,54,147,1
,,,,,,,,,,,,,,,,,200524,22,2022-01-29_11h07.40.261,lexical_decision_task_DD,2021.2.3,MacIntel,59.85873339,,,,,,,,,,,,2.8242,1,,,,,,,,,,,,,,,,,,,,,,,,-0.050134549,-0.398997396,0,0,0,,,,,,,SWING,HB,m,m,./images/SWINGHB.png,,,,,,,m,1,2.8242,,,,,,,,0,55,55,40,1
,,,,,,,,,,,,,,,,,200524,22,2022-01-29_11h07.40.261,lexical_decision_task_DD,2021.2.3,MacIntel,59.85873339,,,,,,,,,,,,1.2718,1,,,,,,,,,,,,,,,,,,,,,,,,-0.050134549,-0.398997396,0,0,0,,,,,,,WALRUS,LB,m,m,./images/WALRUSLB.png,,,,,,,m,1,1.2718,,,,,,,,0,56,56,23,1
,,,,,,,,,,,,,,,,,200524,22,2022-01-29_11h07.40.261,lexical_decision_task_DD,2021.2.3,MacIntel,59.85873339,,,,,,,,,,,,1.3386,1,,,,,,,,,,,,,,,,,,,,,,,,-0.050134549,-0.398997396,0,0,0,,,,,,,PAINT,HB,m,m,./images/PAINTHB.png,,,,,,,m,1,1.3386,,,,,,,,0,57,57,7,1
,,,,,,,,,,,,,,,,,200524,22,2022-01-29_11h07.40.261,lexical_decision_task_DD,2021.2.3,MacIntel,59.85873339,,,,,,,,,,,,2.3001,0,,,,,,,,,,,,,,,,,,,,,,,,-0.050134549,-0.398997396,0,0,0,,,,,,,BASKET,LB,z,m,./images/BASKETLB.png,,,,,,,m,0,2.3001,,,,,,,,0,58,58,128,1
,,,,,,,,,,,,,,,,,200524,22,2022-01-29_11h07.40.261,lexical_decision_task_DD,2021.2.3,MacIntel,59.85873339,,,,,,,,,,,,2.8571,1,,,,,,,,,,,,,,,,,,,,,,,,-0.050134549,-0.398997396,0,0,0,,,,,,,FINGER,C,m,m,./images/FINGER.png,,,,,,,m,1,2.8571,,,,,,,,0,59,59,3,1
,,,,,,,,,,,,,,,,,200524,22,2022-01-29_11h07.40.261,lexical_decision_task_DD,2021.2.3,MacIntel,59.85873339,,,,,,,,,,,,1.3404,0,,,,,,,,,,,,,,,,,,,,,,,,-0.050134549,-0.398997396,0,0,0,,,,,,,FOLDER,C,m,m,./images/FOLDER.png,,,,,,,z,0,1.3404,,,,,,,,0,60,60,42,1
,,,,,,,,,,,,,,,,,200524,22,2022-01-29_11h07.40.261,lexical_decision_task_DD,2021.2.3,MacIntel,59.85873339,,,,,,,,,,,,6.086,1,,,,,,,,,,,,,,,,,,,,,,,,-0.050134549,-0.398997396,0,0,0,,,,,,,GLOVE,HB,z,m,./images/GLOVEHB.png,,,,,,,z,1,6.086,,,,,,,,0,61,61,157,1
,,,,,,,,,,,,,,,,,200524,22,2022-01-29_11h07.40.261,lexical_decision_task_DD,2021.2.3,MacIntel,59.85873339,,,,,,,,,,,,2.0381,0,,,,,,,,,,,,,,,,,,,,,,,,-0.050134549,-0.398997396,0,0,0,,,,,,,JUNGLE,LB,m,m,./images/JUNGLELB.png,,,,,,,z,0,2.0381,,,,,,,,0,62,62,83,1
,,,,,,,,,,,,,,,,,200524,22,2022-01-29_11h07.40.261,lexical_decision_task_DD,2021.2.3,MacIntel,59.85873339,,,,,,,,,,,,1.9722,1,,,,,,,,,,,,,,,,,,,,,,,,-0.050134549,-0.398997396,0,0,0,,,,,,,MOOSE,C,m,m,./images/MOOSE.png,,,,,,,m,1,1.9722,,,,,,,,0,63,63,57,1
,,,,,,,,,,,,,,,,,200524,22,2022-01-29_11h07.40.261,lexical_decision_task_DD,2021.2.3,MacIntel,59.85873339,,,,,,,,,,,,3.2259,0,,,,,,,,,,,,,,,,,,,,,,,,-0.050134549,-0.398997396,0,0,0,,,,,,,SNAKE,HB,z,m,./images/SNAKEHB.png,,,,,,,m,0,3.2259,,,,,,,,0,64,64,124,1
,,,,,,,,,,,,,,,,,200524,22,2022-01-29_11h07.40.261,lexical_decision_task_DD,2021.2.3,MacIntel,59.85873339,,,,,,,,,,,,2.1037,1,,,,,,,,,,,,,,,,,,,,,,,,-0.050134549,-0.398997396,0,0,0,,,,,,,RHINO,C,m,m,./images/RHINO.png,,,,,,,m,1,2.1037,,,,,,,,0,65,65,9,1
,,,,,,,,,,,,,,,,,200524,22,2022-01-29_11h07.40.261,lexical_decision_task_DD,2021.2.3,MacIntel,59.85873339,,,,,,,,,,,,1.0795,1,,,,,,,,,,,,,,,,,,,,,,,,-0.050134549,-0.398997396,0,0,0,,,,,,,JAGUAR,C,m,m,./images/JAGUAR.png,,,,,,,m,1,1.0795,,,,,,,,0,66,66,18,1
,,,,,,,,,,,,,,,,,200524,22,2022-01-29_11h07.40.261,lexical_decision_task_DD,2021.2.3,MacIntel,59.85873339,,,,,,,,,,,,3.6806,1,,,,,,,,,,,,,,,,,,,,,,,,-0.050134549,-0.398997396,0,0,0,,,,,,,LADDER,LB,m,m,./images/LADDERLB.png,,,,,,,m,1,3.6806,,,,,,,,0,67,67,38,1
,,,,,,,,,,,,,,,,,200524,22,2022-01-29_11h07.40.261,lexical_decision_task_DD,2021.2.3,MacIntel,59.85873339,,,,,,,,,,,,5.3372,1,,,,,,,,,,,,,,,,,,,,,,,,-0.050134549,-0.398997396,0,0,0,,,,,,,CANDLE,HB,m,m,./images/CANDLEHB.png,,,,,,,m,1,5.3372,,,,,,,,0,68,68,61,1
,,,,,,,,,,,,,,,,,200524,22,2022-01-29_11h07.40.261,lexical_decision_task_DD,2021.2.3,MacIntel,59.85873339,,,,,,,,,,,,1.2043,0,,,,,,,,,,,,,,,,,,,,,,,,-0.050134549,-0.398997396,0,0,0,,,,,,,MALLET,LB,m,m,./images/MALLETLB.png,,,,,,,z,0,1.2043,,,,,,,,0,69,69,50,1
,,,,,,,,,,,,,,,,,200524,22,2022-01-29_11h07.40.261,lexical_decision_task_DD,2021.2.3,MacIntel,59.85873339,,,,,,,,,,,,1.7707,1,,,,,,,,,,,,,,,,,,,,,,,,-0.050134549,-0.398997396,0,0,0,,,,,,,GRAPE,HB,z,m,./images/GRAPEHB.png,,,,,,,z,1,1.7707,,,,,,,,0,70,70,100,1
,,,,,,,,,,,,,,,,,200524,22,2022-01-29_11h07.40.261,lexical_decision_task_DD,2021.2.3,MacIntel,59.85873339,,,,,,,,,,,,4.4951,1,,,,,,,,,,,,,,,,,,,,,,,,-0.050134549,-0.398997396,0,0,0,,,,,,,BANANA,HB,z,m,./images/BANANAHB.png,,,,,,,z,1,4.4951,,,,,,,,0,71,71,154,1
,,,,,,,,,,,,,,,,,200524,22,2022-01-29_11h07.40.261,lexical_decision_task_DD,2021.2.3,MacIntel,59.85873339,,,,,,,,,,,,1.9246,1,,,,,,,,,,,,,,,,,,,,,,,,-0.050134549,-0.398997396,0,0,0,,,,,,,WAGON,HB,z,m,./images/WAGONHB.png,,,,,,,z,1,1.9246,,,,,,,,0,72,72,91,1
,,,,,,,,,,,,,,,,,200524,22,2022-01-29_11h07.40.261,lexical_decision_task_DD,2021.2.3,MacIntel,59.85873339,,,,,,,,,,,,2.8047,1,,,,,,,,,,,,,,,,,,,,,,,,-0.050134549,-0.398997396,0,0,0,,,,,,,SAUNA,C,z,m,./images/SAUNA.png,,,,,,,z,1,2.8047,,,,,,,,0,73,73,117,1
,,,,,,,,,,,,,,,,,200524,22,2022-01-29_11h07.40.261,lexical_decision_task_DD,2021.2.3,MacIntel,59.85873339,,,,,,,,,,,,1.0862,1,,,,,,,,,,,,,,,,,,,,,,,,-0.050134549,-0.398997396,0,0,0,,,,,,,ARROW,C,z,m,./images/ARROW.png,,,,,,,z,1,1.0862,,,,,,,,0,74,74,153,1
,,,,,,,,,,,,,,,,,200524,22,2022-01-29_11h07.40.261,lexical_decision_task_DD,2021.2.3,MacIntel,59.85873339,,,,,,,,,,,,4.0446,1,,,,,,,,,,,,,,,,,,,,,,,,-0.050134549,-0.398997396,0,0,0,,,,,,,SHIELD,C,z,m,./images/SHIELD.png,,,,,,,z,1,4.0446,,,,,,,,0,75,75,132,1
,,,,,,,,,,,,,,,,,200524,22,2022-01-29_11h07.40.261,lexical_decision_task_DD,2021.2.3,MacIntel,59.85873339,,,,,,,,,,,,3.5302,0,,,,,,,,,,,,,,,,,,,,,,,,-0.050134549,-0.398997396,0,0,0,,,,,,,DRUMS,HB,m,m,./images/DRUMSHB.png,,,,,,,z,0,3.5302,,,,,,,,0,76,76,49,1
,,,,,,,,,,,,,,,,,200524,22,2022-01-29_11h07.40.261,lexical_decision_task_DD,2021.2.3,MacIntel,59.85873339,,,,,,,,,,,,1.1506,0,,,,,,,,,,,,,,,,,,,,,,,,-0.050134549,-0.398997396,0,0,0,,,,,,,LIZARD,LB,m,m,./images/LIZARDLB.png,,,,,,,z,0,1.1506,,,,,,,,0,77,77,44,1
,,,,,,,,,,,,,,,,,200524,22,2022-01-29_11h07.40.261,lexical_decision_task_DD,2021.2.3,MacIntel,59.85873339,,,,,,,,,,,,1.3706,1,,,,,,,,,,,,,,,,,,,,,,,,-0.050134549,-0.398997396,0,0,0,,,,,,,MIRROR,C,m,m,./images/MIRROR.png,,,,,,,m,1,1.3706,,,,,,,,0,78,78,63,1
,,,,,,,,,,,,,,,,,200524,22,2022-01-29_11h07.40.261,lexical_decision_task_DD,2021.2.3,MacIntel,59.85873339,,,,,,,,,,,,2.106,1,,,,,,,,,,,,,,,,,,,,,,,,-0.050134549,-0.398997396,0,0,0,,,,,,,MAMMAL,LB,z,m,./images/MAMMALLB.png,,,,,,,z,1,2.106,,,,,,,,0,79,79,146,1
,,,,,,,,,,,,,,,,,200524,22,2022-01-29_11h07.40.261,lexical_decision_task_DD,2021.2.3,MacIntel,59.85873339,,,,,,,,,,,,2.2905,0,,,,,,,,,,,,,,,,,,,,,,,,-0.050134549,-0.398997396,0,0,0,,,,,,,SHELF,C,m,m,./images/SHELF.png,,,,,,,z,0,2.2905,,,,,,,,0,80,80,39,1
,,,,,,,,,,,,,,,,,200524,22,2022-01-29_11h07.40.261,lexical_decision_task_DD,2021.2.3,MacIntel,59.85873339,,,,,,,,,,,,1.8905,1,,,,,,,,,,,,,,,,,,,,,,,,-0.050134549,-0.398997396,0,0,0,,,,,,,STRING,LB,m,m,./images/STRINGLB.png,,,,,,,m,1,1.8905,,,,,,,,0,81,81,41,1
,,,,,,,,,,,,,,,,,200524,22,2022-01-29_11h07.40.261,lexical_decision_task_DD,2021.2.3,MacIntel,59.85873339,,,,,,,,,,,,1.0498,1,,,,,,,,,,,,,,,,,,,,,,,,-0.050134549,-0.398997396,0,0,0,,,,,,,SHORE,C,m,m,./images/SHORE.png,,,,,,,m,1,1.0498,,,,,,,,0,82,82,12,1
,,,,,,,,,,,,,,,,,200524,22,2022-01-29_11h07.40.261,lexical_decision_task_DD,2021.2.3,MacIntel,59.85873339,,,,,,,,,,,,4.2108,1,,,,,,,,,,,,,,,,,,,,,,,,-0.050134549,-0.398997396,0,0,0,space,,,,,,CHAIN,C,z,m,./images/CHAIN.png,9.4793,,,,,,z,1,4.2108,,,,,,,,0,83,83,126,1
,,,,,,,,,,,,,,,,,200524,22,2022-01-29_11h07.40.261,lexical_decision_task_DD,2021.2.3,MacIntel,59.85873339,,,,,,,,,,,,2.3068,1,,,,,,,,,,,,,,,,,,,,,,,,-0.050134549,-0.398997396,0,0,0,,,,,,,MOSQUE,HB,m,m,./images/MOSQUEHB.png,,,,,,,m,1,2.3068,,,,,,,,0,84,84,43,1
,,,,,,,,,,,,,,,,,200524,22,2022-01-29_11h07.40.261,lexical_decision_task_DD,2021.2.3,MacIntel,59.85873339,,,,,,,,,,,,1.1364,1,,,,,,,,,,,,,,,,,,,,,,,,-0.050134549,-0.398997396,0,0,0,,,,,,,SPINE,LB,z,m,./images/SPINELB.png,,,,,,,z,1,1.1364,,,,,,,,0,85,85,149,1
,,,,,,,,,,,,,,,,,200524,22,2022-01-29_11h07.40.261,lexical_decision_task_DD,2021.2.3,MacIntel,59.85873339,,,,,,,,,,,,1.5865,1,,,,,,,,,,,,,,,,,,,,,,,,-0.050134549,-0.398997396,0,0,0,,,,,,,STAIN,C,z,m,./images/STAIN.png,,,,,,,z,1,1.5865,,,,,,,,0,86,86,90,1
,,,,,,,,,,,,,,,,,200524,22,2022-01-29_11h07.40.261,lexical_decision_task_DD,2021.2.3,MacIntel,59.85873339,,,,,,,,,,,,1.1212,1,,,,,,,,,,,,,,,,,,,,,,,,-0.050134549,-0.398997396,0,0,0,,,,,,,SUNSET,HB,m,m,./images/SUNSETHB.png,,,,,,,m,1,1.1212,,,,,,,,0,87,87,82,1
,,,,,,,,,,,,,,,,,200524,22,2022-01-29_11h07.40.261,lexical_decision_task_DD,2021.2.3,MacIntel,59.85873339,,,,,,,,,,,,1.1364,1,,,,,,,,,,,,,,,,,,,,,,,,-0.050134549,-0.398997396,0,0,0,,,,,,,PLANK,HB,m,m,./images/PLANKHB.png,,,,,,,m,1,1.1364,,,,,,,,0,88,88,1,1
,,,,,,,,,,,,,,,,,200524,22,2022-01-29_11h07.40.261,lexical_decision_task_DD,2021.2.3,MacIntel,59.85873339,,,,,,,,,,,,1.404,1,,,,,,,,,,,,,,,,,,,,,,,,-0.050134549,-0.398997396,0,0,0,,,,,,,COOKER,C,m,m,./images/COOKER.png,,,,,,,m,1,1.404,,,,,,,,0,89,89,69,1
,,,,,,,,,,,,,,,,,200524,22,2022-01-29_11h07.40.261,lexical_decision_task_DD,2021.2.3,MacIntel,59.85873339,,,,,,,,,,,,4.8681,1,,,,,,,,,,,,,,,,,,,,,,,,-0.050134549,-0.398997396,0,0,0,,,,,,,STATUE,C,z,m,./images/STATUE.png,,,,,,,z,1,4.8681,,,,,,,,0,90,90,150,1
,,,,,,,,,,,,,,,,,200524,22,2022-01-29_11h07.40.261,lexical_decision_task_DD,2021.2.3,MacIntel,59.85873339,,,,,,,,,,,,6.404,1,,,,,,,,,,,,,,,,,,,,,,,,-0.050134549,-0.398997396,0,0,0,,,,,,,PLANET,LB,z,m,./images/PLANETLB.png,,,,,,,z,1,6.404,,,,,,,,0,91,91,164,1
,,,,,,,,,,,,,,,,,200524,22,2022-01-29_11h07.40.261,lexical_decision_task_DD,2021.2.3,MacIntel,59.85873339,,,,,,,,,,,,1.4534,1,,,,,,,,,,,,,,,,,,,,,,,,-0.050134549,-0.398997396,0,0,0,,,,,,,TIGER,HB,z,m,./images/TIGERHB.png,,,,,,,z,1,1.4534,,,,,,,,0,92,92,121,1
,,,,,,,,,,,,,,,,,200524,22,2022-01-29_11h07.40.261,lexical_decision_task_DD,2021.2.3,MacIntel,59.85873339,,,,,,,,,,,,1.2226,1,,,,,,,,,,,,,,,,,,,,,,,,-0.050134549,-0.398997396,0,0,0,,,,,,,STEAK,HB,z,m,./images/STEAKHB.png,,,,,,,z,1,1.2226,,,,,,,,0,93,93,115,1
,,,,,,,,,,,,,,,,,200524,22,2022-01-29_11h07.40.261,lexical_decision_task_DD,2021.2.3,MacIntel,59.85873339,,,,,,,,,,,,4.5331,0,,,,,,,,,,,,,,,,,,,,,,,,-0.050134549,-0.398997396,0,0,0,,,,,,,DANCER,C,z,m,./images/DANCER.png,,,,,,,m,0,4.5331,,,,,,,,0,94,94,105,1
,,,,,,,,,,,,,,,,,200524,22,2022-01-29_11h07.40.261,lexical_decision_task_DD,2021.2.3,MacIntel,59.85873339,,,,,,,,,,,,5.7819,0,,,,,,,,,,,,,,,,,,,,,,,,-0.050134549,-0.398997396,0,0,0,,,,,,,GARDEN,HB,z,m,./images/GARDENHB.png,,,,,,,m,0,5.7819,,,,,,,,0,95,95,94,1
,,,,,,,,,,,,,,,,,200524,22,2022-01-29_11h07.40.261,lexical_decision_task_DD,2021.2.3,MacIntel,59.85873339,,,,,,,,,,,,2.8743,1,,,,,,,,,,,,,,,,,,,,,,,,-0.050134549,-0.398997396,0,0,0,,,,,,,WHEEL,LB,z,m,./images/WHEELLB.png,,,,,,,z,1,2.8743,,,,,,,,0,96,96,161,1
,,,,,,,,,,,,,,,,,200524,22,2022-01-29_11h07.40.261,lexical_decision_task_DD,2021.2.3,MacIntel,59.85873339,,,,,,,,,,,,2.3423,0,,,,,,,,,,,,,,,,,,,,,,,,-0.050134549,-0.398997396,0,0,0,,,,,,,JUMPER,LB,z,m,./images/JUMPERLB.png,,,,,,,m,0,2.3423,,,,,,,,0,97,97,158,1
,,,,,,,,,,,,,,,,,200524,22,2022-01-29_11h07.40.261,lexical_decision_task_DD,2021.2.3,MacIntel,59.85873339,,,,,,,,,,,,5.064,1,,,,,,,,,,,,,,,,,,,,,,,,-0.050134549,-0.398997396,0,0,0,,,,,,,STOOL,HB,z,m,./images/STOOLHB.png,,,,,,,z,1,5.064,,,,,,,,0,98,98,127,1
,,,,,,,,,,,,,,,,,200524,22,2022-01-29_11h07.40.261,lexical_decision_task_DD,2021.2.3,MacIntel,59.85873339,,,,,,,,,,,,3.0391,1,,,,,,,,,,,,,,,,,,,,,,,,-0.050134549,-0.398997396,0,0,0,,,,,,,CARPET,LB,m,m,./images/CARPETLB.png,,,,,,,m,1,3.0391,,,,,,,,0,99,99,53,1
,,,,,,,,,,,,,,,,,200524,22,2022-01-29_11h07.40.261,lexical_decision_task_DD,2021.2.3,MacIntel,59.85873339,,,,,,,,,,,,1.4076,1,,,,,,,,,,,,,,,,,,,,,,,,-0.050134549,-0.398997396,0,0,0,,,,,,,DOUGH,HB,m,m,./images/DOUGHHB.png,,,,,,,m,1,1.4076,,,,,,,,0,100,100,19,1
,,,,,,,,,,,,,,,,,200524,22,2022-01-29_11h07.40.261,lexical_decision_task_DD,2021.2.3,MacIntel,59.85873339,,,,,,,,,,,,1.7587,1,,,,,,,,,,,,,,,,,,,,,,,,-0.050134549,-0.398997396,0,0,0,,,,,,,CLOWN,HB,z,m,./images/CLOWNHB.png,,,,,,,z,1,1.7587,,,,,,,,0,101,101,106,1
,,,,,,,,,,,,,,,,,200524,22,2022-01-29_11h07.40.261,lexical_decision_task_DD,2021.2.3,MacIntel,59.85873339,,,,,,,,,,,,1.5375,1,,,,,,,,,,,,,,,,,,,,,,,,-0.050134549,-0.398997396,0,0,0,,,,,,,PENCE,HB,m,m,./images/PENCEHB.png,,,,,,,m,1,1.5375,,,,,,,,0,102,102,16,1
,,,,,,,,,,,,,,,,,200524,22,2022-01-29_11h07.40.261,lexical_decision_task_DD,2021.2.3,MacIntel,59.85873339,,,,,,,,,,,,3.5046,1,,,,,,,,,,,,,,,,,,,,,,,,-0.050134549,-0.398997396,0,0,0,,,,,,,INFANT,HB,m,m,./images/INFANTHB.png,,,,,,,m,1,3.5046,,,,,,,,0,103,103,76,1
,,,,,,,,,,,,,,,,,200524,22,2022-01-29_11h07.40.261,lexical_decision_task_DD,2021.2.3,MacIntel,59.85873339,,,,,,,,,,,,1.4078,1,,,,,,,,,,,,,,,,,,,,,,,,-0.050134549,-0.398997396,0,0,0,,,,,,,COLLAR,C,z,m,./images/COLLAR.png,,,,,,,z,1,1.4078,,,,,,,,0,104,104,99,1
,,,,,,,,,,,,,,,,,200524,22,2022-01-29_11h07.40.261,lexical_decision_task_DD,2021.2.3,MacIntel,59.85873339,,,,,,,,,,,,1.899,1,,,,,,,,,,,,,,,,,,,,,,,,-0.050134549,-0.398997396,0,0,0,,,,,,,TWINS,C,m,m,./images/TWINS.png,,,,,,,m,1,1.899,,,,,,,,0,105,105,60,1
,,,,,,,,,,,,,,,,,200524,22,2022-01-29_11h07.40.261,lexical_decision_task_DD,2021.2.3,MacIntel,59.85873339,,,,,,,,,,,,1.22,1,,,,,,,,,,,,,,,,,,,,,,,,-0.050134549,-0.398997396,0,0,0,,,,,,,BRIDE,HB,z,m,./images/BRIDEHB.png,,,,,,,z,1,1.22,,,,,,,,0,106,106,148,1
,,,,,,,,,,,,,,,,,200524,22,2022-01-29_11h07.40.261,lexical_decision_task_DD,2021.2.3,MacIntel,59.85873339,,,,,,,,,,,,1.3372,1,,,,,,,,,,,,,,,,,,,,,,,,-0.050134549,-0.398997396,0,0,0,,,,,,,POODLE,C,m,m,./images/POODLE.png,,,,,,,m,1,1.3372,,,,,,,,0,107,107,81,1
,,,,,,,,,,,,,,,,,200524,22,2022-01-29_11h07.40.261,lexical_decision_task_DD,2021.2.3,MacIntel,59.85873339,,,,,,,,,,,,1.5367,1,,,,,,,,,,,,,,,,,,,,,,,,-0.050134549,-0.398997396,0,0,0,,,,,,,MIDGET,HB,z,m,./images/MIDGETHB.png,,,,,,,z,1,1.5367,,,,,,,,0,108,108,160,1
,,,,,,,,,,,,,,,,,200524,22,2022-01-29_11h07.40.261,lexical_decision_task_DD,2021.2.3,MacIntel,59.85873339,,,,,,,,,,,,1.7722,1,,,,,,,,,,,,,,,,,,,,,,,,-0.050134549,-0.398997396,0,0,0,,,,,,,DIVER,C,z,m,./images/DIVER.png,,,,,,,z,1,1.7722,,,,,,,,0,109,109,93,1
,,,,,,,,,,,,,,,,,200524,22,2022-01-29_11h07.40.261,lexical_decision_task_DD,2021.2.3,MacIntel,59.85873339,,,,,,,,,,,,1.2534,1,,,,,,,,,,,,,,,,,,,,,,,,-0.050134549,-0.398997396,0,0,0,,,,,,,TOMATO,C,m,m,./images/TOMATO.png,,,,,,,m,1,1.2534,,,,,,,,0,110,110,0,1
,,,,,,,,,,,,,,,,,200524,22,2022-01-29_11h07.40.261,lexical_decision_task_DD,2021.2.3,MacIntel,59.85873339,,,,,,,,,,,,3.7808,1,,,,,,,,,,,,,,,,,,,,,,,,-0.050134549,-0.398997396,0,0,0,,,,,,,BOILER,C,z,m,./images/BOILER.png,,,,,,,z,1,3.7808,,,,,,,,0,111,111,120,1
,,,,,,,,,,,,,,,,,200524,22,2022-01-29_11h07.40.261,lexical_decision_task_DD,2021.2.3,MacIntel,59.85873339,,,,,,,,,,,,2.5227,1,,,,,,,,,,,,,,,,,,,,,,,,-0.050134549,-0.398997396,0,0,0,,,,,,,PARCEL,C,z,m,./images/PARCEL.png,,,,,,,z,1,2.5227,,,,,,,,0,112,112,102,1
,,,,,,,,,,,,,,,,,200524,22,2022-01-29_11h07.40.261,lexical_decision_task_DD,2021.2.3,MacIntel,59.85873339,,,,,,,,,,,,4.34,1,,,,,,,,,,,,,,,,,,,,,,,,-0.050134549,-0.398997396,0,0,0,,,,,,,BISHOP,HB,z,m,./images/BISHOPHB.png,,,,,,,z,1,4.34,,,,,,,,0,113,113,133,1
,,,,,,,,,,,,,,,,,200524,22,2022-01-29_11h07.40.261,lexical_decision_task_DD,2021.2.3,MacIntel,59.85873339,,,,,,,,,,,,4.0161,0,,,,,,,,,,,,,,,,,,,,,,,,-0.050134549,-0.398997396,0,0,0,,,,,,,MONKEY,C,z,m,./images/MONKEY.png,,,,,,,m,0,4.0161,,,,,,,,0,114,114,129,1
,,,,,,,,,,,,,,,,,200524,22,2022-01-29_11h07.40.261,lexical_decision_task_DD,2021.2.3,MacIntel,59.85873339,,,,,,,,,,,,1.4762,1,,,,,,,,,,,,,,,,,,,,,,,,-0.050134549,-0.398997396,0,0,0,,,,,,,ATTIC,C,m,m,./images/ATTIC.png,,,,,,,m,1,1.4762,,,,,,,,0,115,115,27,1
,,,,,,,,,,,,,,,,,200524,22,2022-01-29_11h07.40.261,lexical_decision_task_DD,2021.2.3,MacIntel,59.85873339,,,,,,,,,,,,2.8574,0,,,,,,,,,,,,,,,,,,,,,,,,-0.050134549,-0.398997396,0,0,0,,,,,,,CRADLE,LB,m,m,./images/CRADLELB.png,,,,,,,z,0,2.8574,,,,,,,,0,116,116,20,1
,,,,,,,,,,,,,,,,,200524,22,2022-01-29_11h07.40.261,lexical_decision_task_DD,2021.2.3,MacIntel,59.85873339,,,,,,,,,,,,1.5901,1,,,,,,,,,,,,,,,,,,,,,,,,-0.050134549,-0.398997396,0,0,0,,,,,,,CHERRY,C,z,m,./images/CHERRY.png,,,,,,,z,1,1.5901,,,,,,,,0,117,117,138,1
,,,,,,,,,,,,,,,,,200524,22,2022-01-29_11h07.40.261,lexical_decision_task_DD,2021.2.3,MacIntel,59.85873339,,,,,,,,,,,,3.3638,1,,,,,,,,,,,,,,,,,,,,,,,,-0.050134549,-0.398997396,0,0,0,,,,,,,HEATER,LB,z,m,./images/HEATERLB.png,,,,,,,z,1,3.3638,,,,,,,,0,118,118,140,1
,,,,,,,,,,,,,,,,,200524,22,2022-01-29_11h07.40.261,lexical_decision_task_DD,2021.2.3,MacIntel,59.85873339,,,,,,,,,,,,2.0058,0,,,,,,,,,,,,,,,,,,,,,,,,-0.050134549,-0.398997396,0,0,0,,,,,,,CRUST,HB,m,m,./images/CRUSTHB.png,,,,,,,z,0,2.0058,,,,,,,,0,119,119,79,1
,,,,,,,,,,,,,,,,,200524,22,2022-01-29_11h07.40.261,lexical_decision_task_DD,2021.2.3,MacIntel,59.85873339,,,,,,,,,,,,1.2982,1,,,,,,,,,,,,,,,,,,,,,,,,-0.050134549,-0.398997396,0,0,0,,,,,,,CANOE,HB,z,m,./images/CANOEHB.png,,,,,,,z,1,1.2982,,,,,,,,0,120,120,142,1
,,,,,,,,,,,,,,,,,200524,22,2022-01-29_11h07.40.261,lexical_decision_task_DD,2021.2.3,MacIntel,59.85873339,,,,,,,,,,,,3.1913,1,,,,,,,,,,,,,,,,,,,,,,,,-0.050134549,-0.398997396,0,0,0,,,,,,,CRUMB,LB,m,m,./images/CRUMBLB.png,,,,,,,m,1,3.1913,,,,,,,,0,121,121,29,1
,,,,,,,,,,,,,,,,,200524,22,2022-01-29_11h07.40.261,lexical_decision_task_DD,2021.2.3,MacIntel,59.85873339,,,,,,,,,,,,1.6254,1,,,,,,,,,,,,,,,,,,,,,,,,-0.050134549,-0.398997396,0,0,0,,,,,,,SMOKER,LB,m,m,./images/SMOKERLB.png,,,,,,,m,1,1.6254,,,,,,,,0,122,122,26,1
,,,,,,,,,,,,,,,,,200524,22,2022-01-29_11h07.40.261,lexical_decision_task_DD,2021.2.3,MacIntel,59.85873339,,,,,,,,,,,,2.2721,1,,,,,,,,,,,,,,,,,,,,,,,,-0.050134549,-0.398997396,0,0,0,,,,,,,BONNET,LB,m,m,./images/BONNETLB.png,,,,,,,m,1,2.2721,,,,,,,,0,123,123,11,1
,,,,,,,,,,,,,,,,,200524,22,2022-01-29_11h07.40.261,lexical_decision_task_DD,2021.2.3,MacIntel,59.85873339,,,,,,,,,,,,7.9248,0,,,,,,,,,,,,,,,,,,,,,,,,-0.050134549,-0.398997396,0,0,0,,,,,,,MOTOR,HB,m,m,./images/MOTORHB.png,,,,,,,z,0,7.9248,,,,,,,,0,124,124,13,1
,,,,,,,,,,,,,,,,,200524,22,2022-01-29_11h07.40.261,lexical_decision_task_DD,2021.2.3,MacIntel,59.85873339,,,,,,,,,,,,1.2536,1,,,,,,,,,,,,,,,,,,,,,,,,-0.050134549,-0.398997396,0,0,0,space,,,,,,NOOSE,C,m,m,./images/NOOSE.png,4.9961,,,,,,m,1,1.2536,,,,,,,,0,125,125,72,1
,,,,,,,,,,,,,,,,,200524,22,2022-01-29_11h07.40.261,lexical_decision_task_DD,2021.2.3,MacIntel,59.85873339,,,,,,,,,,,,3.6949,1,,,,,,,,,,,,,,,,,,,,,,,,-0.050134549,-0.398997396,0,0,0,,,,,,,SWEAT,C,m,m,./images/SWEAT.png,,,,,,,m,1,3.6949,,,,,,,,0,126,126,66,1
,,,,,,,,,,,,,,,,,200524,22,2022-01-29_11h07.40.261,lexical_decision_task_DD,2021.2.3,MacIntel,59.85873339,,,,,,,,,,,,1.6038,0,,,,,,,,,,,,,,,,,,,,,,,,-0.050134549,-0.398997396,0,0,0,,,,,,,JELLY,HB,m,m,./images/JELLYHB.png,,,,,,,z,0,1.6038,,,,,,,,0,127,127,64,1
,,,,,,,,,,,,,,,,,200524,22,2022-01-29_11h07.40.261,lexical_decision_task_DD,2021.2.3,MacIntel,59.85873339,,,,,,,,,,,,2.7921,1,,,,,,,,,,,,,,,,,,,,,,,,-0.050134549,-0.398997396,0,0,0,,,,,,,BARREL,LB,m,m,./images/BARRELLB.png,,,,,,,m,1,2.7921,,,,,,,,0,128,128,32,1
,,,,,,,,,,,,,,,,,200524,22,2022-01-29_11h07.40.261,lexical_decision_task_DD,2021.2.3,MacIntel,59.85873339,,,,,,,,,,,,3.0232,1,,,,,,,,,,,,,,,,,,,,,,,,-0.050134549,-0.398997396,0,0,0,,,,,,,SPORT,C,m,m,./images/SPORT.png,,,,,,,m,1,3.0232,,,,,,,,0,129,129,48,1
,,,,,,,,,,,,,,,,,200524,22,2022-01-29_11h07.40.261,lexical_decision_task_DD,2021.2.3,MacIntel,59.85873339,,,,,,,,,,,,2.9433,1,,,,,,,,,,,,,,,,,,,,,,,,-0.050134549,-0.398997396,0,0,0,,,,,,,PURSE,LB,m,m,./images/PURSELB.png,,,,,,,m,1,2.9433,,,,,,,,0,130,130,62,1
,,,,,,,,,,,,,,,,,200524,22,2022-01-29_11h07.40.261,lexical_decision_task_DD,2021.2.3,MacIntel,59.85873339,,,,,,,,,,,,1.8884,1,,,,,,,,,,,,,,,,,,,,,,,,-0.050134549,-0.398997396,0,0,0,,,,,,,ARTIST,HB,z,m,./images/ARTISTHB.png,,,,,,,z,1,1.8884,,,,,,,,0,131,131,145,1
,,,,,,,,,,,,,,,,,200524,22,2022-01-29_11h07.40.261,lexical_decision_task_DD,2021.2.3,MacIntel,59.85873339,,,,,,,,,,,,1.8889,1,,,,,,,,,,,,,,,,,,,,,,,,-0.050134549,-0.398997396,0,0,0,,,,,,,POKER,HB,z,m,./images/POKERHB.png,,,,,,,z,1,1.8889,,,,,,,,0,132,132,151,1
,,,,,,,,,,,,,,,,,200524,22,2022-01-29_11h07.40.261,lexical_decision_task_DD,2021.2.3,MacIntel,59.85873339,,,,,,,,,,,,1.4708,0,,,,,,,,,,,,,,,,,,,,,,,,-0.050134549,-0.398997396,0,0,0,,,,,,,PICKLE,LB,m,m,./images/PICKLELB.png,,,,,,,z,0,1.4708,,,,,,,,0,133,133,14,1
,,,,,,,,,,,,,,,,,200524,22,2022-01-29_11h07.40.261,lexical_decision_task_DD,2021.2.3,MacIntel,59.85873339,,,,,,,,,,,,2.0889,0,,,,,,,,,,,,,,,,,,,,,,,,-0.050134549,-0.398997396,0,0,0,,,,,,,GRAIN,C,m,m,./images/GRAIN.png,,,,,,,z,0,2.0889,,,,,,,,0,134,134,75,1
,,,,,,,,,,,,,,,,,200524,22,2022-01-29_11h07.40.261,lexical_decision_task_DD,2021.2.3,MacIntel,59.85873339,,,,,,,,,,,,3.5128,1,,,,,,,,,,,,,,,,,,,,,,,,-0.050134549,-0.398997396,0,0,0,,,,,,,BABOON,HB,m,m,./images/BABOONHB.png,,,,,,,m,1,3.5128,,,,,,,,0,135,135,58,1
,,,,,,,,,,,,,,,,,200524,22,2022-01-29_11h07.40.261,lexical_decision_task_DD,2021.2.3,MacIntel,59.85873339,,,,,,,,,,,,1.7165,1,,,,,,,,,,,,,,,,,,,,,,,,-0.050134549,-0.398997396,0,0,0,,,,,,,ALLEY,HB,z,m,./images/ALLEYHB.png,,,,,,,z,1,1.7165,,,,,,,,0,136,136,139,1
,,,,,,,,,,,,,,,,,200524,22,2022-01-29_11h07.40.261,lexical_decision_task_DD,2021.2.3,MacIntel,59.85873339,,,,,,,,,,,,1.4706,0,,,,,,,,,,,,,,,,,,,,,,,,-0.050134549,-0.398997396,0,0,0,,,,,,,QUILL,HB,m,m,./images/QUILLHB.png,,,,,,,z,0,1.4706,,,,,,,,0,137,137,31,1
,,,,,,,,,,,,,,,,,200524,22,2022-01-29_11h07.40.261,lexical_decision_task_DD,2021.2.3,MacIntel,59.85873339,,,,,,,,,,,,5.3301,1,,,,,,,,,,,,,,,,,,,,,,,,-0.050134549,-0.398997396,0,0,0,,,,,,,COUCH,LB,m,m,./images/COUCHLB.png,,,,,,,m,1,5.3301,,,,,,,,0,138,138,77,1
,,,,,,,,,,,,,,,,,200524,22,2022-01-29_11h07.40.261,lexical_decision_task_DD,2021.2.3,MacIntel,59.85873339,,,,,,,,,,,,2.3997,1,,,,,,,,,,,,,,,,,,,,,,,,-0.050134549,-0.398997396,0,0,0,,,,,,,WRIST,HB,m,m,./images/WRISTHB.png,,,,,,,m,1,2.3997,,,,,,,,0,139,139,25,1
,,,,,,,,,,,,,,,,,200524,22,2022-01-29_11h07.40.261,lexical_decision_task_DD,2021.2.3,MacIntel,59.85873339,,,,,,,,,,,,3.4752,0,,,,,,,,,,,,,,,,,,,,,,,,-0.050134549,-0.398997396,0,0,0,,,,,,,CEMENT,LB,m,m,./images/CEMENTLB.png,,,,,,,z,0,3.4752,,,,,,,,0,140,140,74,1
,,,,,,,,,,,,,,,,,200524,22,2022-01-29_11h07.40.261,lexical_decision_task_DD,2021.2.3,MacIntel,59.85873339,,,,,,,,,,,,2.1891,1,,,,,,,,,,,,,,,,,,,,,,,,-0.050134549,-0.398997396,0,0,0,,,,,,,BUNNY,HB,z,m,./images/BUNNYHB.png,,,,,,,z,1,2.1891,,,,,,,,0,141,141,97,1
,,,,,,,,,,,,,,,,,200524,22,2022-01-29_11h07.40.261,lexical_decision_task_DD,2021.2.3,MacIntel,59.85873339,,,,,,,,,,,,5.3826,1,,,,,,,,,,,,,,,,,,,,,,,,-0.050134549,-0.398997396,0,0,0,,,,,,,BUTTER,C,z,m,./images/BUTTER.png,,,,,,,z,1,5.3826,,,,,,,,0,142,142,111,1
,,,,,,,,,,,,,,,,,200524,22,2022-01-29_11h07.40.261,lexical_decision_task_DD,2021.2.3,MacIntel,59.85873339,,,,,,,,,,,,5.5042,0,,,,,,,,,,,,,,,,,,,,,,,,-0.050134549,-0.398997396,0,0,0,,,,,,,FLASK,C,z,m,./images/FLASK.png,,,,,,,m,0,5.5042,,,,,,,,0,143,143,156,1
,,,,,,,,,,,,,,,,,200524,22,2022-01-29_11h07.40.261,lexical_decision_task_DD,2021.2.3,MacIntel,59.85873339,,,,,,,,,,,,3.748,0,,,,,,,,,,,,,,,,,,,,,,,,-0.050134549,-0.398997396,0,0,0,,,,,,,DONKEY,HB,z,m,./images/DONKEYHB.png,,,,,,,m,0,3.748,,,,,,,,0,144,144,103,1
,,,,,,,,,,,,,,,,,200524,22,2022-01-29_11h07.40.261,lexical_decision_task_DD,2021.2.3,MacIntel,59.85873339,,,,,,,,,,,,4.1272,0,,,,,,,,,,,,,,,,,,,,,,,,-0.050134549,-0.398997396,0,0,0,,,,,,,SQUARE,C,m,m,./images/SQUARE.png,,,,,,,z,0,4.1272,,,,,,,,0,145,145,6,1
,,,,,,,,,,,,,,,,,200524,22,2022-01-29_11h07.40.261,lexical_decision_task_DD,2021.2.3,MacIntel,59.85873339,,,,,,,,,,,,2.7054,1,,,,,,,,,,,,,,,,,,,,,,,,-0.050134549,-0.398997396,0,0,0,,,,,,,BRUSH,LB,z,m,./images/BRUSHLB.png,,,,,,,z,1,2.7054,,,,,,,,0,146,146,143,1
,,,,,,,,,,,,,,,,,200524,22,2022-01-29_11h07.40.261,lexical_decision_task_DD,2021.2.3,MacIntel,59.85873339,,,,,,,,,,,,1.809,1,,,,,,,,,,,,,,,,,,,,,,,,-0.050134549,-0.398997396,0,0,0,,,,,,,BEARD,LB,m,m,./images/BEARDLB.png,,,,,,,m,1,1.809,,,,,,,,0,147,147,2,1
,,,,,,,,,,,,,,,,,200524,22,2022-01-29_11h07.40.261,lexical_decision_task_DD,2021.2.3,MacIntel,59.85873339,,,,,,,,,,,,2.6292,1,,,,,,,,,,,,,,,,,,,,,,,,-0.050134549,-0.398997396,0,0,0,,,,,,,CRATER,C,z,m,./images/CRATER.png,,,,,,,z,1,2.6292,,,,,,,,0,148,148,87,1
,,,,,,,,,,,,,,,,,200524,22,2022-01-29_11h07.40.261,lexical_decision_task_DD,2021.2.3,MacIntel,59.85873339,,,,,,,,,,,,1.2764,0,,,,,,,,,,,,,,,,,,,,,,,,-0.050134549,-0.398997396,0,0,0,,,,,,,PASTA,LB,m,m,./images/PASTALB.png,,,,,,,z,0,1.2764,,,,,,,,0,149,149,5,1
,,,,,,,,,,,,,,,,,200524,22,2022-01-29_11h07.40.261,lexical_decision_task_DD,2021.2.3,MacIntel,59.85873339,,,,,,,,,,,,2.2727,1,,,,,,,,,,,,,,,,,,,,,,,,-0.050134549,-0.398997396,0,0,0,,,,,,,GREASE,C,m,m,./images/GREASE.png,,,,,,,m,1,2.2727,,,,,,,,0,150,150,15,1
,,,,,,,,,,,,,,,,,200524,22,2022-01-29_11h07.40.261,lexical_decision_task_DD,2021.2.3,MacIntel,59.85873339,,,,,,,,,,,,1.537,0,,,,,,,,,,,,,,,,,,,,,,,,-0.050134549,-0.398997396,0,0,0,,,,,,,HAMMER,C,z,m,./images/HAMMER.png,,,,,,,m,0,1.537,,,,,,,,0,151,151,159,1
,,,,,,,,,,,,,,,,,200524,22,2022-01-29_11h07.40.261,lexical_decision_task_DD,2021.2.3,MacIntel,59.85873339,,,,,,,,,,,,1.086,1,,,,,,,,,,,,,,,,,,,,,,,,-0.050134549,-0.398997396,0,0,0,,,,,,,PIMPLE,LB,m,m,./images/PIMPLELB.png,,,,,,,m,1,1.086,,,,,,,,0,152,152,71,1
,,,,,,,,,,,,,,,,,200524,22,2022-01-29_11h07.40.261,lexical_decision_task_DD,2021.2.3,MacIntel,59.85873339,,,,,,,,,,,,4.4773,1,,,,,,,,,,,,,,,,,,,,,,,,-0.050134549,-0.398997396,0,0,0,,,,,,,CASINO,HB,z,m,./images/CASINOHB.png,,,,,,,z,1,4.4773,,,,,,,,0,153,153,112,1
,,,,,,,,,,,,,,,,,200524,22,2022-01-29_11h07.40.261,lexical_decision_task_DD,2021.2.3,MacIntel,59.85873339,,,,,,,,,,,,1.7916,1,,,,,,,,,,,,,,,,,,,,,,,,-0.050134549,-0.398997396,0,0,0,,,,,,,PILOT,LB,z,m,./images/PILOTLB.png,,,,,,,z,1,1.7916,,,,,,,,0,154,154,134,1
,,,,,,,,,,,,,,,,,200524,22,2022-01-29_11h07.40.261,lexical_decision_task_DD,2021.2.3,MacIntel,59.85873339,,,,,,,,,,,,2.277,1,,,,,,,,,,,,,,,,,,,,,,,,-0.050134549,-0.398997396,0,0,0,,,,,,,BROOM,C,z,m,./images/BROOM.png,,,,,,,z,1,2.277,,,,,,,,0,155,155,162,1
,,,,,,,,,,,,,,,,,200524,22,2022-01-29_11h07.40.261,lexical_decision_task_DD,2021.2.3,MacIntel,59.85873339,,,,,,,,,,,,6.0168,1,,,,,,,,,,,,,,,,,,,,,,,,-0.050134549,-0.398997396,0,0,0,,,,,,,LITTER,C,m,m,./images/LITTER.png,,,,,,,m,1,6.0168,,,,,,,,0,156,156,78,1
,,,,,,,,,,,,,,,,,200524,22,2022-01-29_11h07.40.261,lexical_decision_task_DD,2021.2.3,MacIntel,59.85873339,,,,,,,,,,,,1.6395,1,,,,,,,,,,,,,,,,,,,,,,,,-0.050134549,-0.398997396,0,0,0,,,,,,,CHALK,HB,z,m,./images/CHALKHB.png,,,,,,,z,1,1.6395,,,,,,,,0,157,157,109,1
,,,,,,,,,,,,,,,,,200524,22,2022-01-29_11h07.40.261,lexical_decision_task_DD,2021.2.3,MacIntel,59.85873339,,,,,,,,,,,,2.4602,1,,,,,,,,,,,,,,,,,,,,,,,,-0.050134549,-0.398997396,0,0,0,,,,,,,BIRTH,HB,m,m,./images/BIRTHHB.png,,,,,,,m,1,2.4602,,,,,,,,0,158,158,37,1
,,,,,,,,,,,,,,,,,200524,22,2022-01-29_11h07.40.261,lexical_decision_task_DD,2021.2.3,MacIntel,59.85873339,,,,,,,,,,,,2.0736,0,,,,,,,,,,,,,,,,,,,,,,,,-0.050134549,-0.398997396,0,0,0,,,,,,,TULIP,LB,m,m,./images/TULIPLB.png,,,,,,,z,0,2.0736,,,,,,,,0,159,159,8,1
,,,,,,,,,,,,,,,,,200524,22,2022-01-29_11h07.40.261,lexical_decision_task_DD,2021.2.3,MacIntel,59.85873339,,,,,,,,,,,,5.5812,0,,,,,,,,,,,,,,,,,,,,,,,,-0.050134549,-0.398997396,0,0,0,,,,,,,CLOUD,LB,z,m,./images/CLOUDLB.png,,,,,,,m,0,5.5812,,,,,,,,0,160,160,110,1
,,,,,,,,,,,,,,,,,200524,22,2022-01-29_11h07.40.261,lexical_decision_task_DD,2021.2.3,MacIntel,59.85873339,,,,,,,,,,,,3.5616,1,,,,,,,,,,,,,,,,,,,,,,,,-0.050134549,-0.398997396,0,0,0,,,,,,,SCREW,C,m,m,./images/SCREW.png,,,,,,,m,1,3.5616,,,,,,,,0,161,161,24,1
,,,,,,,,,,,,,,,,,200524,22,2022-01-29_11h07.40.261,lexical_decision_task_DD,2021.2.3,MacIntel,59.85873339,,,,,,,,,,,,2.5069,0,,,,,,,,,,,,,,,,,,,,,,,,-0.050134549,-0.398997396,0,0,0,,,,,,,PEACH,LB,m,m,./images/PEACHLB.png,,,,,,,z,0,2.5069,,,,,,,,0,162,162,35,1
,,,,,,,,,,,,,,,,,200524,22,2022-01-29_11h07.40.261,lexical_decision_task_DD,2021.2.3,MacIntel,59.85873339,,,,,,,,,,,,1.1689,1,,,,,,,,,,,,,,,,,,,,,,,,-0.050134549,-0.398997396,0,0,0,,,,,,,RAZOR,HB,z,m,./images/RAZORHB.png,,,,,,,z,1,1.1689,,,,,,,,0,163,163,118,1
,,,,,,,,,,,,,,,,,200524,22,2022-01-29_11h07.40.261,lexical_decision_task_DD,2021.2.3,MacIntel,59.85873339,,,,,,,,,,,,1.5157,1,,,,,,,,,,,,,,,,,,,,,,,,-0.050134549,-0.398997396,0,0,0,,,,,,,TRIPOD,C,m,m,./images/TRIPOD.png,,,,,,,m,1,1.5157,,,,,,,,0,164,164,54,1
,,,,,,,,,,,,,,,,,200524,22,2022-01-29_11h07.40.261,lexical_decision_task_DD,2021.2.3,MacIntel,59.85873339,,,,,,,,,,,,1.8598,1,,,,,,,,,,,,,,,,,,,,,,,,-0.050134549,-0.398997396,0,0,0,,,,,,,SLOPE,C,z,m,./images/SLOPE.png,,,,,,,z,1,1.8598,,,,,,,,0,165,165,114,1
,,,,,,,,,,,,,,,,,200524,22,2022-01-29_11h07.40.261,lexical_decision_task_DD,2021.2.3,MacIntel,59.85873339,,,,,,,,,,,,3.0746,0,,,,,,,,,,,,,,,,,,,,,,,,-0.050134549,-0.398997396,0,0,0,,,,,,,BELLY,HB,m,m,./images/BELLYHB.png,,,,,,,z,0,3.0746,,,,,,,,0,166,166,10,1
,,,,,,,,,,,,,,,,,200524,22,2022-01-29_11h07.40.261,lexical_decision_task_DD,2021.2.3,MacIntel,59.85873339,,,,,,,,,,,,2.8704,1,,,,,,,,,,,,,,,,,,,,,,,,-0.050134549,-0.398997396,0,0,0,,,,,,,FARMER,LB,m,m,./images/FARMERLB.png,,,,,,,m,1,2.8704,,,,,,,,0,167,167,65,1
