key_resp.keys,instr_done_touch.x,instr_done_touch.y,instr_done_touch.leftButton,instr_done_touch.midButton,instr_done_touch.rightButton,instr_done_touch.clicked_name,instruction_pages.thisRepN,instruction_pages.thisTrialN,instruction_pages.thisN,instruction_pages.thisIndex,instruction_pages.ran,pageN,phase,instruct_text,has_image,instruct_image,participant,age,date,expName,psychopyVersion,OS,frameRate,key_resp.rt,response.keys,response.corr,response.rt,touch_resp.x,touch_resp.y,touch_resp.leftButton,touch_resp.midButton,touch_resp.rightButton,touch_resp.time,touch_resp.clicked_name,rt,corr,practrials.thisRepN,practrials.thisTrialN,practrials.thisN,practrials.thisIndex,practrials.ran,TrialID,Target,corrAns,end_of_practice_trials_pages.thisRepN,end_of_practice_trials_pages.thisTrialN,end_of_practice_trials_pages.thisN,end_of_practice_trials_pages.thisIndex,end_of_practice_trials_pages.ran,key_resp_2.keys,key_resp_2.corr,key_resp_2.rt,targ_click.x,targ_click.y,targ_click.leftButton,targ_click.midButton,targ_click.rightButton,targ_click.time,targ_click.clicked_name,break_done_touch.x,break_done_touch.y,break_done_touch.leftButton,break_done_touch.midButton,break_done_touch.rightButton,break_done_keyboard.keys,maintrials.thisRepN,maintrials.thisTrialN,maintrials.thisN,maintrials.thisIndex,maintrials.ran,string,blur,study,lex,stim_path,break_done_keyboard.rt,test_instructions.thisRepN,test_instructions.thisTrialN,test_instructions.thisN,test_instructions.thisIndex,test_instructions.ran,key_resp_3.keys,key_resp_3.corr,key_resp_3.rt,test_click.x,test_click.y,test_click.leftButton,test_click.midButton,test_click.rightButton,test_click.time,test_click.clicked_name,test_phase.thisRepN,test_phase.thisTrialN,test_phase.thisN,test_phase.thisIndex,test_phase.ran
,0.004127967,-0.383384933,1,0,0,instr_done_button,0,0,0,0,1,1,instructions,"INSTRUCTIONS
At the start of each trial, look at the plus sign  (+) in the center of the screen.  This tells you that a trial is about to begin and where to look. Second, the plus sign will disappear and a string of letters will appear. Your task is to determine if the string of letters is a word or not. If the item is a word press the M key (on keyboard)  or touch the word button (phone/tablet).  If the item is not a word,  press the  Z key (on keyboard)  or touch the nonword button (on phone/tablet). 
Press the space bar or touch  continue.",0,,200653,20,2022-01-29_10h15.26.022,lexical_decision_task_DD_L3,2021.2.3,Win32,20.00080003,,,,,,,,,,,,,,,,,,,,,,,,,,,,,,,,,,,,,,,,,,,,,,,,,,,,,,,,,,,,,,,,,,,,,,,,,
space,-0.189886481,0.491744066,0,0,0,,0,1,1,1,1,2,instructions,"If your device has a keyboard, press the 'Z' key for nonwords and the 'M' key for words.





Press the space bar or touch the button below to continue.",0,keyboard-example.gif,200653,20,2022-01-29_10h15.26.022,lexical_decision_task_DD_L3,2021.2.3,Win32,20.00080003,5.653,,,,,,,,,,,,,,,,,,,,,,,,,,,,,,,,,,,,,,,,,,,,,,,,,,,,,,,,,,,,,,,,,,,,,,,,
space,-0.189886481,0.489680083,0,0,0,,0,2,2,2,1,3,instructions,"If you are using a touchscreen only device, use the buttons on the screen. Do not use the mouse.





Press the space bar or touch the button below to continue.",0,touchscreen-example.gif,200653,20,2022-01-29_10h15.26.022,lexical_decision_task_DD_L3,2021.2.3,Win32,20.00080003,1.28,,,,,,,,,,,,,,,,,,,,,,,,,,,,,,,,,,,,,,,,,,,,,,,,,,,,,,,,,,,,,,,,,,,,,,,,
space,-0.254901961,0.5,0,0,0,,0,3,3,3,1,4,instructions,"It is very important that you respond as quickly and accurately as possible, as each letter string will only be on the screen for two seconds. If you do not respond within this time, the message 'Too slow!' will be displayed and the experiment will progress to the next letter string. The first 20 trials will be practice trials and you will receive feedback on your answers. 

Press the space bar or touch the button below to start the practice trials.",0,,200653,20,2022-01-29_10h15.26.022,lexical_decision_task_DD_L3,2021.2.3,Win32,20.00080003,3.063,,,,,,,,,,,,,,,,,,,,,,,,,,,,,,,,,,,,,,,,,,,,,,,,,,,,,,,,,,,,,,,,,,,,,,,,
,,,,,,,,,,,,,,,,,200653,20,2022-01-29_10h15.26.022,lexical_decision_task_DD_L3,2021.2.3,Win32,20.00080003,,z,1,1.942,,,,,,,,1.942,1,0,0,0,14,1,1001,THRALE,z,,,,,,,,,,,,,,,,,,,,,,,,,,,,,,,,,,,,,,,,,,,,,,,,,,,,
,,,,,,,,,,,,,,,,,200653,20,2022-01-29_10h15.26.022,lexical_decision_task_DD_L3,2021.2.3,Win32,20.00080003,,z,1,0.713,,,,,,,,0.713,1,0,1,1,13,1,1001,ROUPET,z,,,,,,,,,,,,,,,,,,,,,,,,,,,,,,,,,,,,,,,,,,,,,,,,,,,,
,,,,,,,,,,,,,,,,,200653,20,2022-01-29_10h15.26.022,lexical_decision_task_DD_L3,2021.2.3,Win32,20.00080003,,m,1,0.481,,,,,,,,0.481,1,0,2,2,4,1,1001,SQUEAK,m,,,,,,,,,,,,,,,,,,,,,,,,,,,,,,,,,,,,,,,,,,,,,,,,,,,,
,,,,,,,,,,,,,,,,,200653,20,2022-01-29_10h15.26.022,lexical_decision_task_DD_L3,2021.2.3,Win32,20.00080003,,z,1,0.907,,,,,,,,0.907,1,0,3,3,12,1,1001,SPRINY,z,,,,,,,,,,,,,,,,,,,,,,,,,,,,,,,,,,,,,,,,,,,,,,,,,,,,
,,,,,,,,,,,,,,,,,200653,20,2022-01-29_10h15.26.022,lexical_decision_task_DD_L3,2021.2.3,Win32,20.00080003,,z,1,0.701,,,,,,,,0.701,1,0,4,4,15,1,1001,WHAISE,z,,,,,,,,,,,,,,,,,,,,,,,,,,,,,,,,,,,,,,,,,,,,,,,,,,,,
,,,,,,,,,,,,,,,,,200653,20,2022-01-29_10h15.26.022,lexical_decision_task_DD_L3,2021.2.3,Win32,20.00080003,,m,1,0.623,,,,,,,,0.623,1,0,5,5,6,1,1001,ZOMBIE,m,,,,,,,,,,,,,,,,,,,,,,,,,,,,,,,,,,,,,,,,,,,,,,,,,,,,
,,,,,,,,,,,,,,,,,200653,20,2022-01-29_10h15.26.022,lexical_decision_task_DD_L3,2021.2.3,Win32,20.00080003,,m,1,0.514,,,,,,,,0.514,1,0,6,6,2,1,1001,ALMOND,m,,,,,,,,,,,,,,,,,,,,,,,,,,,,,,,,,,,,,,,,,,,,,,,,,,,,
,,,,,,,,,,,,,,,,,200653,20,2022-01-29_10h15.26.022,lexical_decision_task_DD_L3,2021.2.3,Win32,20.00080003,,z,1,0.822,,,,,,,,0.822,1,0,7,7,9,1,1001,FARINY,z,,,,,,,,,,,,,,,,,,,,,,,,,,,,,,,,,,,,,,,,,,,,,,,,,,,,
,,,,,,,,,,,,,,,,,200653,20,2022-01-29_10h15.26.022,lexical_decision_task_DD_L3,2021.2.3,Win32,20.00080003,,m,1,0.664,,,,,,,,0.664,1,0,8,8,1,1,1001,ADJUST,m,,,,,,,,,,,,,,,,,,,,,,,,,,,,,,,,,,,,,,,,,,,,,,,,,,,,
,,,,,,,,,,,,,,,,,200653,20,2022-01-29_10h15.26.022,lexical_decision_task_DD_L3,2021.2.3,Win32,20.00080003,,z,1,0.711,,,,,,,,0.711,1,0,9,9,10,1,1001,INLADE,z,,,,,,,,,,,,,,,,,,,,,,,,,,,,,,,,,,,,,,,,,,,,,,,,,,,,
,,,,,,,,,,,,,,,,,200653,20,2022-01-29_10h15.26.022,lexical_decision_task_DD_L3,2021.2.3,Win32,20.00080003,,z,1,0.678,,,,,,,,0.678,1,0,10,10,11,1,1001,RASHET,z,,,,,,,,,,,,,,,,,,,,,,,,,,,,,,,,,,,,,,,,,,,,,,,,,,,,
,,,,,,,,,,,,,,,,,200653,20,2022-01-29_10h15.26.022,lexical_decision_task_DD_L3,2021.2.3,Win32,20.00080003,,m,1,0.508,,,,,,,,0.508,1,0,11,11,7,1,1001,VOLUME,m,,,,,,,,,,,,,,,,,,,,,,,,,,,,,,,,,,,,,,,,,,,,,,,,,,,,
,,,,,,,,,,,,,,,,,200653,20,2022-01-29_10h15.26.022,lexical_decision_task_DD_L3,2021.2.3,Win32,20.00080003,,z,1,0.705,,,,,,,,0.705,1,0,12,12,8,1,1001,ASLERT,z,,,,,,,,,,,,,,,,,,,,,,,,,,,,,,,,,,,,,,,,,,,,,,,,,,,,
,,,,,,,,,,,,,,,,,200653,20,2022-01-29_10h15.26.022,lexical_decision_task_DD_L3,2021.2.3,Win32,20.00080003,,m,1,0.822,,,,,,,,0.822,1,0,13,13,0,1,1001,UTOPIA,m,,,,,,,,,,,,,,,,,,,,,,,,,,,,,,,,,,,,,,,,,,,,,,,,,,,,
,,,,,,,,,,,,,,,,,200653,20,2022-01-29_10h15.26.022,lexical_decision_task_DD_L3,2021.2.3,Win32,20.00080003,,m,1,0.593,,,,,,,,0.593,1,0,14,14,5,1,1001,OBTAIN,m,,,,,,,,,,,,,,,,,,,,,,,,,,,,,,,,,,,,,,,,,,,,,,,,,,,,
,,,,,,,,,,,,,,,,,200653,20,2022-01-29_10h15.26.022,lexical_decision_task_DD_L3,2021.2.3,Win32,20.00080003,,m,1,0.667,,,,,,,,0.667,1,0,15,15,3,1,1001,MATRIX,m,,,,,,,,,,,,,,,,,,,,,,,,,,,,,,,,,,,,,,,,,,,,,,,,,,,,
,-0.033023736,-0.40505676,1,0,0,instr_done_button,,,,,,1,end_of_practice,"You have completed the practice trials. During the experimental trials, you will not receive feedback. 
Before you begin, please ensure that you are in a comfortable and quiet location and will not be disturbed for about 15 minutes, as we cannot use your data if you do not complete all the trials. 
 When you are ready to start the experimental trials, please press space or touch the button below.",,,200653,20,2022-01-29_10h15.26.022,lexical_decision_task_DD_L3,2021.2.3,Win32,20.00080003,,,,,,,,,,,,,,,,,,,,,,0,0,0,0,1,,,,,,,,,,,,,,,,,,,,,,,,,,,,,,,,,,,,,,,,,,,,,,,
,,,,,,,,,,,,,,,,,200653,20,2022-01-29_10h15.26.022,lexical_decision_task_DD_L3,2021.2.3,Win32,20.00080003,,,,,,,,,,,,1.294,1,,,,,,,,,,,,,,z,1,1.294,,,,,,,,0.053663571,0.185242518,0,0,0,,0,0,0,114,1,RIKES,C,old,z,./images/RIKES.png,,,,,,,,,,,,,,,,,,,,,
,,,,,,,,,,,,,,,,,200653,20,2022-01-29_10h15.26.022,lexical_decision_task_DD_L3,2021.2.3,Win32,20.00080003,,,,,,,,,,,,1.153,1,,,,,,,,,,,,,,z,1,1.153,,,,,,,,0.053663571,0.185242518,0,0,0,,0,1,1,140,1,DOVET,LB,old,z,./images/DOVETLB.png,,,,,,,,,,,,,,,,,,,,,
,,,,,,,,,,,,,,,,,200653,20,2022-01-29_10h15.26.022,lexical_decision_task_DD_L3,2021.2.3,Win32,20.00080003,,,,,,,,,,,,0.639,1,,,,,,,,,,,,,,z,1,0.639,,,,,,,,0.053663571,0.185242518,0,0,0,,0,2,2,98,1,BAMPS,LB,old,z,./images/BAMPSLB.png,,,,,,,,,,,,,,,,,,,,,
,,,,,,,,,,,,,,,,,200653,20,2022-01-29_10h15.26.022,lexical_decision_task_DD_L3,2021.2.3,Win32,20.00080003,,,,,,,,,,,,0.861,1,,,,,,,,,,,,,,z,1,0.861,,,,,,,,0.053663571,0.185242518,0,0,0,,0,3,3,165,1,TROWN,C,old,z,./images/TROWN.png,,,,,,,,,,,,,,,,,,,,,
,,,,,,,,,,,,,,,,,200653,20,2022-01-29_10h15.26.022,lexical_decision_task_DD_L3,2021.2.3,Win32,20.00080003,,,,,,,,,,,,0.684,1,,,,,,,,,,,,,,m,1,0.684,,,,,,,,0.038183695,0.175954592,0,0,0,,0,4,4,4,1,MUSCLE,C,old,m,./images/MUSCLE.png,,,,,,,,,,,,,,,,,,,,,
,,,,,,,,,,,,,,,,,200653,20,2022-01-29_10h15.26.022,lexical_decision_task_DD_L3,2021.2.3,Win32,20.00080003,,,,,,,,,,,,1.044,1,,,,,,,,,,,,,,m,1,1.044,,,,,,,,-0.085655315,0.471104231,0,0,0,,0,5,5,0,1,TOMATO,LB,old,m,./images/TOMATOLB.png,,,,,,,,,,,,,,,,,,,,,
,,,,,,,,,,,,,,,,,200653,20,2022-01-29_10h15.26.022,lexical_decision_task_DD_L3,2021.2.3,Win32,20.00080003,,,,,,,,,,,,0.589,1,,,,,,,,,,,,,,m,1,0.589,,,,,,,,-0.302373581,0.5,0,0,0,,0,6,6,57,1,MOOSE,LB,old,m,./images/MOOSELB.png,,,,,,,,,,,,,,,,,,,,,
,,,,,,,,,,,,,,,,,200653,20,2022-01-29_10h15.26.022,lexical_decision_task_DD_L3,2021.2.3,Win32,20.00080003,,,,,,,,,,,,0.57,1,,,,,,,,,,,,,,m,1,0.57,,,,,,,,-0.302373581,0.5,0,0,0,,0,7,7,56,1,PACKET,HB,old,m,./images/PACKETHB.png,,,,,,,,,,,,,,,,,,,,,
,,,,,,,,,,,,,,,,,200653,20,2022-01-29_10h15.26.022,lexical_decision_task_DD_L3,2021.2.3,Win32,20.00080003,,,,,,,,,,,,0.881,1,,,,,,,,,,,,,,z,1,0.881,,,,,,,,-0.302373581,0.5,0,0,0,,0,8,8,153,1,CLUPS,C,old,z,./images/CLUPS.png,,,,,,,,,,,,,,,,,,,,,
,,,,,,,,,,,,,,,,,200653,20,2022-01-29_10h15.26.022,lexical_decision_task_DD_L3,2021.2.3,Win32,20.00080003,,,,,,,,,,,,0.648,1,,,,,,,,,,,,,,m,1,0.648,,,,,,,,-0.302373581,0.5,0,0,0,,0,9,9,51,1,ONION,LB,old,m,./images/ONIONLB.png,,,,,,,,,,,,,,,,,,,,,
,,,,,,,,,,,,,,,,,200653,20,2022-01-29_10h15.26.022,lexical_decision_task_DD_L3,2021.2.3,Win32,20.00080003,,,,,,,,,,,,1.027,1,,,,,,,,,,,,,,z,1,1.027,,,,,,,,-0.302373581,0.5,0,0,0,,0,10,10,128,1,GRIFT,LB,old,z,./images/GRIFTLB.png,,,,,,,,,,,,,,,,,,,,,
,,,,,,,,,,,,,,,,,200653,20,2022-01-29_10h15.26.022,lexical_decision_task_DD_L3,2021.2.3,Win32,20.00080003,,,,,,,,,,,,1.065,1,,,,,,,,,,,,,,m,1,1.065,,,,,,,,-0.302373581,0.5,0,0,0,,0,11,11,8,1,TULIP,HB,old,m,./images/TULIPHB.png,,,,,,,,,,,,,,,,,,,,,
,,,,,,,,,,,,,,,,,200653,20,2022-01-29_10h15.26.022,lexical_decision_task_DD_L3,2021.2.3,Win32,20.00080003,,,,,,,,,,,,1.477,1,,,,,,,,,,,,,,z,1,1.477,,,,,,,,-0.083591331,0.498968008,0,0,0,,0,12,12,154,1,THINT,HB,old,z,./images/THINTHB.png,,,,,,,,,,,,,,,,,,,,,
,,,,,,,,,,,,,,,,,200653,20,2022-01-29_10h15.26.022,lexical_decision_task_DD_L3,2021.2.3,Win32,20.00080003,,,,,,,,,,,,0.635,1,,,,,,,,,,,,,,m,1,0.635,,,,,,,,-0.083591331,0.498968008,0,0,0,,0,13,13,5,1,PASTA,HB,old,m,./images/PASTAHB.png,,,,,,,,,,,,,,,,,,,,,
,,,,,,,,,,,,,,,,,200653,20,2022-01-29_10h15.26.022,lexical_decision_task_DD_L3,2021.2.3,Win32,20.00080003,,,,,,,,,,,,0.912,1,,,,,,,,,,,,,,z,1,0.912,,,,,,,,-0.009287926,0.473168215,0,0,0,,0,14,14,92,1,PAIMS,LB,old,z,./images/PAIMSLB.png,,,,,,,,,,,,,,,,,,,,,
,,,,,,,,,,,,,,,,,200653,20,2022-01-29_10h15.26.022,lexical_decision_task_DD_L3,2021.2.3,Win32,20.00080003,,,,,,,,,,,,0.745,1,,,,,,,,,,,,,,z,1,0.745,,,,,,,,0.154798762,0.29876161,0,0,0,,0,15,15,90,1,NEAST,C,old,z,./images/NEAST.png,,,,,,,,,,,,,,,,,,,,,
,,,,,,,,,,,,,,,,,200653,20,2022-01-29_10h15.26.022,lexical_decision_task_DD_L3,2021.2.3,Win32,20.00080003,,,,,,,,,,,,0.843,1,,,,,,,,,,,,,,z,1,0.843,,,,,,,,0.157894737,0.302889577,0,0,0,,0,16,16,103,1,FLORT,HB,old,z,./images/FLORTHB.png,,,,,,,,,,,,,,,,,,,,,
,,,,,,,,,,,,,,,,,200653,20,2022-01-29_10h15.26.022,lexical_decision_task_DD_L3,2021.2.3,Win32,20.00080003,,,,,,,,,,,,0.832,1,,,,,,,,,,,,,,z,1,0.832,,,,,,,,0.157894737,0.302889577,0,0,0,,0,17,17,167,1,ZONET,LB,old,z,./images/ZONETLB.png,,,,,,,,,,,,,,,,,,,,,
,,,,,,,,,,,,,,,,,200653,20,2022-01-29_10h15.26.022,lexical_decision_task_DD_L3,2021.2.3,Win32,20.00080003,,,,,,,,,,,,0.634,1,,,,,,,,,,,,,,m,1,0.634,,,,,,,,0.157894737,0.302889577,0,0,0,,0,18,18,25,1,WRIST,C,old,m,./images/WRIST.png,,,,,,,,,,,,,,,,,,,,,
,,,,,,,,,,,,,,,,,200653,20,2022-01-29_10h15.26.022,lexical_decision_task_DD_L3,2021.2.3,Win32,20.00080003,,,,,,,,,,,,0.692,1,,,,,,,,,,,,,,z,1,0.692,,,,,,,,0.166150671,0.253353973,0,0,0,,0,19,19,139,1,BLEAR,HB,old,z,./images/BLEARHB.png,,,,,,,,,,,,,,,,,,,,,
,,,,,,,,,,,,,,,,,200653,20,2022-01-29_10h15.26.022,lexical_decision_task_DD_L3,2021.2.3,Win32,20.00080003,,,,,,,,,,,,0.796,1,,,,,,,,,,,,,,m,1,0.796,,,,,,,,0.246646027,0.178018576,0,0,0,,0,20,20,80,1,WEASEL,HB,old,m,./images/WEASELHB.png,,,,,,,,,,,,,,,,,,,,,
,,,,,,,,,,,,,,,,,200653,20,2022-01-29_10h15.26.022,lexical_decision_task_DD_L3,2021.2.3,Win32,20.00080003,,,,,,,,,,,,0.921,1,,,,,,,,,,,,,,m,1,0.921,,,,,,,,0.246646027,0.178018576,0,0,0,,0,21,21,22,1,MELON,C,old,m,./images/MELON.png,,,,,,,,,,,,,,,,,,,,,
,,,,,,,,,,,,,,,,,200653,20,2022-01-29_10h15.26.022,lexical_decision_task_DD_L3,2021.2.3,Win32,20.00080003,,,,,,,,,,,,0.577,1,,,,,,,,,,,,,,z,1,0.577,,,,,,,,0.246646027,0.178018576,0,0,0,,0,22,22,96,1,KEAMS,C,old,z,./images/KEAMS.png,,,,,,,,,,,,,,,,,,,,,
,,,,,,,,,,,,,,,,,200653,20,2022-01-29_10h15.26.022,lexical_decision_task_DD_L3,2021.2.3,Win32,20.00080003,,,,,,,,,,,,1.066,1,,,,,,,,,,,,,,z,1,1.066,,,,,,,,0.246646027,0.178018576,0,0,0,,0,23,23,127,1,NINDY,HB,old,z,./images/NINDYHB.png,,,,,,,,,,,,,,,,,,,,,
,,,,,,,,,,,,,,,,,200653,20,2022-01-29_10h15.26.022,lexical_decision_task_DD_L3,2021.2.3,Win32,20.00080003,,,,,,,,,,,,0.718,1,,,,,,,,,,,,,,z,1,0.718,,,,,,,,0.246646027,0.178018576,0,0,0,,0,24,24,144,1,NAIRY,C,old,z,./images/NAIRY.png,,,,,,,,,,,,,,,,,,,,,
,,,,,,,,,,,,,,,,,200653,20,2022-01-29_10h15.26.022,lexical_decision_task_DD_L3,2021.2.3,Win32,20.00080003,,,,,,,,,,,,0.996,1,,,,,,,,,,,,,,z,1,0.996,,,,,,,,0.246646027,0.178018576,0,0,0,,0,25,25,157,1,INLER,HB,old,z,./images/INLERHB.png,,,,,,,,,,,,,,,,,,,,,
,,,,,,,,,,,,,,,,,200653,20,2022-01-29_10h15.26.022,lexical_decision_task_DD_L3,2021.2.3,Win32,20.00080003,,,,,,,,,,,,0.724,1,,,,,,,,,,,,,,z,1,0.724,,,,,,,,0.246646027,0.178018576,0,0,0,,0,26,26,131,1,NACES,LB,old,z,./images/NACESLB.png,,,,,,,,,,,,,,,,,,,,,
,,,,,,,,,,,,,,,,,200653,20,2022-01-29_10h15.26.022,lexical_decision_task_DD_L3,2021.2.3,Win32,20.00080003,,,,,,,,,,,,0.605,1,,,,,,,,,,,,,,z,1,0.605,,,,,,,,0.44375645,0.214138287,0,0,0,,0,27,27,105,1,MOKER,C,old,z,./images/MOKER.png,,,,,,,,,,,,,,,,,,,,,
,,,,,,,,,,,,,,,,,200653,20,2022-01-29_10h15.26.022,lexical_decision_task_DD_L3,2021.2.3,Win32,20.00080003,,,,,,,,,,,,1.584,1,,,,,,,,,,,,,,z,1,1.584,,,,,,,,0.44375645,0.214138287,0,0,0,,0,28,28,166,1,SHORY,HB,old,z,./images/SHORYHB.png,,,,,,,,,,,,,,,,,,,,,
,,,,,,,,,,,,,,,,,200653,20,2022-01-29_10h15.26.022,lexical_decision_task_DD_L3,2021.2.3,Win32,20.00080003,,,,,,,,,,,,0.803,1,,,,,,,,,,,,,,z,1,0.803,,,,,,,,0.44375645,0.214138287,0,0,0,,0,29,29,124,1,TUNCH,HB,old,z,./images/TUNCHHB.png,,,,,,,,,,,,,,,,,,,,,
,,,,,,,,,,,,,,,,,200653,20,2022-01-29_10h15.26.022,lexical_decision_task_DD_L3,2021.2.3,Win32,20.00080003,,,,,,,,,,,,0.673,1,,,,,,,,,,,,,,m,1,0.673,,,,,,,,0.44375645,0.214138287,0,0,0,,0,30,30,13,1,MOTOR,C,old,m,./images/MOTOR.png,,,,,,,,,,,,,,,,,,,,,
,,,,,,,,,,,,,,,,,200653,20,2022-01-29_10h15.26.022,lexical_decision_task_DD_L3,2021.2.3,Win32,20.00080003,,,,,,,,,,,,1.339,1,,,,,,,,,,,,,,m,1,1.339,,,,,,,,0.44375645,0.214138287,0,0,0,,0,31,31,47,1,BERRY,HB,old,m,./images/BERRYHB.png,,,,,,,,,,,,,,,,,,,,,
,,,,,,,,,,,,,,,,,200653,20,2022-01-29_10h15.26.022,lexical_decision_task_DD_L3,2021.2.3,Win32,20.00080003,,,,,,,,,,,,0.707,1,,,,,,,,,,,,,,z,1,0.707,,,,,,,,0.44375645,0.214138287,0,0,0,,0,32,32,113,1,LINEW,LB,old,z,./images/LINEWLB.png,,,,,,,,,,,,,,,,,,,,,
,,,,,,,,,,,,,,,,,200653,20,2022-01-29_10h15.26.022,lexical_decision_task_DD_L3,2021.2.3,Win32,20.00080003,,,,,,,,,,,,0.922,1,,,,,,,,,,,,,,m,1,0.922,,,,,,,,0.44375645,0.214138287,0,0,0,,0,33,33,45,1,KITTEN,LB,old,m,./images/KITTENLB.png,,,,,,,,,,,,,,,,,,,,,
,,,,,,,,,,,,,,,,,200653,20,2022-01-29_10h15.26.022,lexical_decision_task_DD_L3,2021.2.3,Win32,20.00080003,,,,,,,,,,,,2.877,0,,,,,,,,,,,,,,m,0,2.877,,,,,,,,0.44375645,0.214138287,0,0,0,,0,34,34,143,1,MONGS,LB,old,z,./images/MONGSLB.png,,,,,,,,,,,,,,,,,,,,,
,,,,,,,,,,,,,,,,,200653,20,2022-01-29_10h15.26.022,lexical_decision_task_DD_L3,2021.2.3,Win32,20.00080003,,,,,,,,,,,,0.83,1,,,,,,,,,,,,,,z,1,0.83,,,,,,,,0.44375645,0.214138287,0,0,0,,0,35,35,148,1,JOMS,HB,old,z,./images/JOMSHB.png,,,,,,,,,,,,,,,,,,,,,
,,,,,,,,,,,,,,,,,200653,20,2022-01-29_10h15.26.022,lexical_decision_task_DD_L3,2021.2.3,Win32,20.00080003,,,,,,,,,,,,6.069,1,,,,,,,,,,,,,,z,1,6.069,,,,,,,,0.44375645,0.214138287,0,0,0,,0,36,36,136,1,WERVE,HB,old,z,./images/WERVEHB.png,,,,,,,,,,,,,,,,,,,,,
,,,,,,,,,,,,,,,,,200653,20,2022-01-29_10h15.26.022,lexical_decision_task_DD_L3,2021.2.3,Win32,20.00080003,,,,,,,,,,,,0.709,1,,,,,,,,,,,,,,m,1,0.709,,,,,,,,0.44375645,0.214138287,0,0,0,,0,37,37,43,1,MOSQUE,C,old,m,./images/MOSQUE.png,,,,,,,,,,,,,,,,,,,,,
,,,,,,,,,,,,,,,,,200653,20,2022-01-29_10h15.26.022,lexical_decision_task_DD_L3,2021.2.3,Win32,20.00080003,,,,,,,,,,,,0.608,1,,,,,,,,,,,,,,z,1,0.608,,,,,,,,0.44375645,0.214138287,0,0,0,,0,38,38,104,1,GITTY,LB,old,z,./images/GITTYLB.png,,,,,,,,,,,,,,,,,,,,,
,,,,,,,,,,,,,,,,,200653,20,2022-01-29_10h15.26.022,lexical_decision_task_DD_L3,2021.2.3,Win32,20.00080003,,,,,,,,,,,,0.672,1,,,,,,,,,,,,,,z,1,0.672,,,,,,,,0.44375645,0.214138287,0,0,0,,0,39,39,149,1,VEASE,LB,old,z,./images/VEASELB.png,,,,,,,,,,,,,,,,,,,,,
,,,,,,,,,,,,,,,,,200653,20,2022-01-29_10h15.26.022,lexical_decision_task_DD_L3,2021.2.3,Win32,20.00080003,,,,,,,,,,,,0.704,1,,,,,,,,,,,,,,m,1,0.704,,,,,,,,0.44375645,0.214138287,0,0,0,,0,40,40,52,1,BANNER,C,old,m,./images/BANNER.png,,,,,,,,,,,,,,,,,,,,,
,,,,,,,,,,,,,,,,,200653,20,2022-01-29_10h15.26.022,lexical_decision_task_DD_L3,2021.2.3,Win32,20.00080003,,,,,,,,,,,,1.022,1,,,,,,,,,,,,,,z,1,1.022,,,,,,,,0.028895769,-0.384416925,0,0,0,space,0,41,41,121,1,CEERS,HB,old,z,./images/CEERSHB.png,369.034,,,,,,,,,,,,,,,,,,,,
,,,,,,,,,,,,,,,,,200653,20,2022-01-29_10h15.26.022,lexical_decision_task_DD_L3,2021.2.3,Win32,20.00080003,,,,,,,,,,,,1.435,1,,,,,,,,,,,,,,m,1,1.435,,,,,,,,0.147574819,0.485552116,0,0,0,,0,42,42,23,1,WALRUS,HB,old,m,./images/WALRUSHB.png,,,,,,,,,,,,,,,,,,,,,
,,,,,,,,,,,,,,,,,200653,20,2022-01-29_10h15.26.022,lexical_decision_task_DD_L3,2021.2.3,Win32,20.00080003,,,,,,,,,,,,0.512,1,,,,,,,,,,,,,,m,1,0.512,,,,,,,,0.147574819,0.485552116,0,0,0,,0,43,43,21,1,KIDNEY,LB,old,m,./images/KIDNEYLB.png,,,,,,,,,,,,,,,,,,,,,
,,,,,,,,,,,,,,,,,200653,20,2022-01-29_10h15.26.022,lexical_decision_task_DD_L3,2021.2.3,Win32,20.00080003,,,,,,,,,,,,0.864,1,,,,,,,,,,,,,,z,1,0.864,,,,,,,,0.147574819,0.485552116,0,0,0,,0,44,44,147,1,ZOLES,C,old,z,./images/ZOLES.png,,,,,,,,,,,,,,,,,,,,,
,,,,,,,,,,,,,,,,,200653,20,2022-01-29_10h15.26.022,lexical_decision_task_DD_L3,2021.2.3,Win32,20.00080003,,,,,,,,,,,,0.866,1,,,,,,,,,,,,,,z,1,0.866,,,,,,,,0.147574819,0.485552116,0,0,0,,0,45,45,116,1,BALGY,LB,old,z,./images/BALGYLB.png,,,,,,,,,,,,,,,,,,,,,
,,,,,,,,,,,,,,,,,200653,20,2022-01-29_10h15.26.022,lexical_decision_task_DD_L3,2021.2.3,Win32,20.00080003,,,,,,,,,,,,0.915,1,,,,,,,,,,,,,,z,1,0.915,,,,,,,,0.147574819,0.485552116,0,0,0,,0,46,46,85,1,CHULK,HB,old,z,./images/CHULKHB.png,,,,,,,,,,,,,,,,,,,,,
,,,,,,,,,,,,,,,,,200653,20,2022-01-29_10h15.26.022,lexical_decision_task_DD_L3,2021.2.3,Win32,20.00080003,,,,,,,,,,,,0.596,1,,,,,,,,,,,,,,z,1,0.596,,,,,,,,0.147574819,0.485552116,0,0,0,,0,47,47,111,1,HOSSE,C,old,z,./images/HOSSE.png,,,,,,,,,,,,,,,,,,,,,
,,,,,,,,,,,,,,,,,200653,20,2022-01-29_10h15.26.022,lexical_decision_task_DD_L3,2021.2.3,Win32,20.00080003,,,,,,,,,,,,0.63,1,,,,,,,,,,,,,,m,1,0.63,,,,,,,,0.147574819,0.485552116,0,0,0,,0,48,48,82,1,SUNSET,C,old,m,./images/SUNSET.png,,,,,,,,,,,,,,,,,,,,,
,,,,,,,,,,,,,,,,,200653,20,2022-01-29_10h15.26.022,lexical_decision_task_DD_L3,2021.2.3,Win32,20.00080003,,,,,,,,,,,,0.589,1,,,,,,,,,,,,,,m,1,0.589,,,,,,,,0.147574819,0.485552116,0,0,0,,0,49,49,53,1,CARPET,HB,old,m,./images/CARPETHB.png,,,,,,,,,,,,,,,,,,,,,
,,,,,,,,,,,,,,,,,200653,20,2022-01-29_10h15.26.022,lexical_decision_task_DD_L3,2021.2.3,Win32,20.00080003,,,,,,,,,,,,1.069,1,,,,,,,,,,,,,,m,1,1.069,,,,,,,,0.147574819,0.485552116,0,0,0,,0,50,50,50,1,MALLET,HB,old,m,./images/MALLETHB.png,,,,,,,,,,,,,,,,,,,,,
,,,,,,,,,,,,,,,,,200653,20,2022-01-29_10h15.26.022,lexical_decision_task_DD_L3,2021.2.3,Win32,20.00080003,,,,,,,,,,,,0.985,1,,,,,,,,,,,,,,z,1,0.985,,,,,,,,0.147574819,0.485552116,0,0,0,,0,51,51,94,1,BLANS,HB,old,z,./images/BLANSHB.png,,,,,,,,,,,,,,,,,,,,,
,,,,,,,,,,,,,,,,,200653,20,2022-01-29_10h15.26.022,lexical_decision_task_DD_L3,2021.2.3,Win32,20.00080003,,,,,,,,,,,,0.642,1,,,,,,,,,,,,,,m,1,0.642,,,,,,,,0.147574819,0.485552116,0,0,0,,0,52,52,76,1,INFANT,C,old,m,./images/INFANT.png,,,,,,,,,,,,,,,,,,,,,
,,,,,,,,,,,,,,,,,200653,20,2022-01-29_10h15.26.022,lexical_decision_task_DD_L3,2021.2.3,Win32,20.00080003,,,,,,,,,,,,0.673,1,,,,,,,,,,,,,,m,1,0.673,,,,,,,,0.147574819,0.485552116,0,0,0,,0,53,53,54,1,TRIPOD,LB,old,m,./images/TRIPODLB.png,,,,,,,,,,,,,,,,,,,,,
,,,,,,,,,,,,,,,,,200653,20,2022-01-29_10h15.26.022,lexical_decision_task_DD_L3,2021.2.3,Win32,20.00080003,,,,,,,,,,,,0.636,1,,,,,,,,,,,,,,m,1,0.636,,,,,,,,0.147574819,0.485552116,0,0,0,,0,54,54,55,1,MUFFIN,C,old,m,./images/MUFFIN.png,,,,,,,,,,,,,,,,,,,,,
,,,,,,,,,,,,,,,,,200653,20,2022-01-29_10h15.26.022,lexical_decision_task_DD_L3,2021.2.3,Win32,20.00080003,,,,,,,,,,,,0.63,1,,,,,,,,,,,,,,z,1,0.63,,,,,,,,0.147574819,0.485552116,0,0,0,,0,55,55,123,1,SEDGE,C,old,z,./images/SEDGE.png,,,,,,,,,,,,,,,,,,,,,
,,,,,,,,,,,,,,,,,200653,20,2022-01-29_10h15.26.022,lexical_decision_task_DD_L3,2021.2.3,Win32,20.00080003,,,,,,,,,,,,0.699,1,,,,,,,,,,,,,,m,1,0.699,,,,,,,,0.147574819,0.485552116,0,0,0,,0,56,56,40,1,SWING,C,old,m,./images/SWING.png,,,,,,,,,,,,,,,,,,,,,
,,,,,,,,,,,,,,,,,200653,20,2022-01-29_10h15.26.022,lexical_decision_task_DD_L3,2021.2.3,Win32,20.00080003,,,,,,,,,,,,0.781,1,,,,,,,,,,,,,,m,1,0.781,,,,,,,,0.147574819,0.485552116,0,0,0,,0,57,57,73,1,SNACK,C,old,m,./images/SNACK.png,,,,,,,,,,,,,,,,,,,,,
,,,,,,,,,,,,,,,,,200653,20,2022-01-29_10h15.26.022,lexical_decision_task_DD_L3,2021.2.3,Win32,20.00080003,,,,,,,,,,,,0.628,1,,,,,,,,,,,,,,m,1,0.628,,,,,,,,0.147574819,0.485552116,0,0,0,,0,58,58,48,1,SPORT,LB,old,m,./images/SPORTLB.png,,,,,,,,,,,,,,,,,,,,,
,,,,,,,,,,,,,,,,,200653,20,2022-01-29_10h15.26.022,lexical_decision_task_DD_L3,2021.2.3,Win32,20.00080003,,,,,,,,,,,,0.751,1,,,,,,,,,,,,,,m,1,0.751,,,,,,,,0.147574819,0.485552116,0,0,0,,0,59,59,35,1,PEACH,HB,old,m,./images/PEACHHB.png,,,,,,,,,,,,,,,,,,,,,
,,,,,,,,,,,,,,,,,200653,20,2022-01-29_10h15.26.022,lexical_decision_task_DD_L3,2021.2.3,Win32,20.00080003,,,,,,,,,,,,0.516,1,,,,,,,,,,,,,,z,1,0.516,,,,,,,,0.147574819,0.485552116,0,0,0,,0,60,60,117,1,STEEG,C,old,z,./images/STEEG.png,,,,,,,,,,,,,,,,,,,,,
,,,,,,,,,,,,,,,,,200653,20,2022-01-29_10h15.26.022,lexical_decision_task_DD_L3,2021.2.3,Win32,20.00080003,,,,,,,,,,,,1.039,1,,,,,,,,,,,,,,z,1,1.039,,,,,,,,0.147574819,0.485552116,0,0,0,,0,61,61,159,1,CUDDY,C,old,z,./images/CUDDY.png,,,,,,,,,,,,,,,,,,,,,
,,,,,,,,,,,,,,,,,200653,20,2022-01-29_10h15.26.022,lexical_decision_task_DD_L3,2021.2.3,Win32,20.00080003,,,,,,,,,,,,0.67,1,,,,,,,,,,,,,,m,1,0.67,,,,,,,,0.147574819,0.485552116,0,0,0,,0,62,62,77,1,COUCH,HB,old,m,./images/COUCHHB.png,,,,,,,,,,,,,,,,,,,,,
,,,,,,,,,,,,,,,,,200653,20,2022-01-29_10h15.26.022,lexical_decision_task_DD_L3,2021.2.3,Win32,20.00080003,,,,,,,,,,,,1.103,1,,,,,,,,,,,,,,z,1,1.103,,,,,,,,0.147574819,0.485552116,0,0,0,,0,63,63,88,1,GLUSH,HB,old,z,./images/GLUSHHB.png,,,,,,,,,,,,,,,,,,,,,
,,,,,,,,,,,,,,,,,200653,20,2022-01-29_10h15.26.022,lexical_decision_task_DD_L3,2021.2.3,Win32,20.00080003,,,,,,,,,,,,0.592,1,,,,,,,,,,,,,,m,1,0.592,,,,,,,,0.147574819,0.485552116,0,0,0,,0,64,64,34,1,CANYON,C,old,m,./images/CANYON.png,,,,,,,,,,,,,,,,,,,,,
,,,,,,,,,,,,,,,,,200653,20,2022-01-29_10h15.26.022,lexical_decision_task_DD_L3,2021.2.3,Win32,20.00080003,,,,,,,,,,,,0.834,1,,,,,,,,,,,,,,z,1,0.834,,,,,,,,0.147574819,0.485552116,0,0,0,,0,65,65,130,1,CRILL,HB,old,z,./images/CRILLHB.png,,,,,,,,,,,,,,,,,,,,,
,,,,,,,,,,,,,,,,,200653,20,2022-01-29_10h15.26.022,lexical_decision_task_DD_L3,2021.2.3,Win32,20.00080003,,,,,,,,,,,,0.723,1,,,,,,,,,,,,,,m,1,0.723,,,,,,,,0.147574819,0.485552116,0,0,0,,0,66,66,65,1,FARMER,HB,old,m,./images/FARMERHB.png,,,,,,,,,,,,,,,,,,,,,
,,,,,,,,,,,,,,,,,200653,20,2022-01-29_10h15.26.022,lexical_decision_task_DD_L3,2021.2.3,Win32,20.00080003,,,,,,,,,,,,0.671,1,,,,,,,,,,,,,,m,1,0.671,,,,,,,,0.147574819,0.485552116,0,0,0,,0,67,67,83,1,JUNGLE,HB,old,m,./images/JUNGLEHB.png,,,,,,,,,,,,,,,,,,,,,
,,,,,,,,,,,,,,,,,200653,20,2022-01-29_10h15.26.022,lexical_decision_task_DD_L3,2021.2.3,Win32,20.00080003,,,,,,,,,,,,0.71,1,,,,,,,,,,,,,,m,1,0.71,,,,,,,,0.147574819,0.485552116,0,0,0,,0,68,68,49,1,DRUMS,C,old,m,./images/DRUMS.png,,,,,,,,,,,,,,,,,,,,,
,,,,,,,,,,,,,,,,,200653,20,2022-01-29_10h15.26.022,lexical_decision_task_DD_L3,2021.2.3,Win32,20.00080003,,,,,,,,,,,,0.669,1,,,,,,,,,,,,,,z,1,0.669,,,,,,,,0.147574819,0.485552116,0,0,0,,0,69,69,120,1,RINED,C,old,z,./images/RINED.png,,,,,,,,,,,,,,,,,,,,,
,,,,,,,,,,,,,,,,,200653,20,2022-01-29_10h15.26.022,lexical_decision_task_DD_L3,2021.2.3,Win32,20.00080003,,,,,,,,,,,,0.951,1,,,,,,,,,,,,,,m,1,0.951,,,,,,,,0.147574819,0.485552116,0,0,0,,0,70,70,60,1,TWINS,LB,old,m,./images/TWINSLB.png,,,,,,,,,,,,,,,,,,,,,
,,,,,,,,,,,,,,,,,200653,20,2022-01-29_10h15.26.022,lexical_decision_task_DD_L3,2021.2.3,Win32,20.00080003,,,,,,,,,,,,3.77,1,,,,,,,,,,,,,,m,1,3.77,,,,,,,,0.147574819,0.485552116,0,0,0,,0,71,71,17,1,SKIING,HB,old,m,./images/SKIINGHB.png,,,,,,,,,,,,,,,,,,,,,
,,,,,,,,,,,,,,,,,200653,20,2022-01-29_10h15.26.022,lexical_decision_task_DD_L3,2021.2.3,Win32,20.00080003,,,,,,,,,,,,2.21,0,,,,,,,,,,,,,,z,0,2.21,,,,,,,,0.147574819,0.484520124,0,0,0,,0,72,72,58,1,BABOON,C,old,m,./images/BABOON.png,,,,,,,,,,,,,,,,,,,,,
,,,,,,,,,,,,,,,,,200653,20,2022-01-29_10h15.26.022,lexical_decision_task_DD_L3,2021.2.3,Win32,20.00080003,,,,,,,,,,,,1.025,1,,,,,,,,,,,,,,z,1,1.025,,,,,,,,0.147574819,0.484520124,0,0,0,,0,73,73,109,1,BURGE,HB,old,z,./images/BURGEHB.png,,,,,,,,,,,,,,,,,,,,,
,,,,,,,,,,,,,,,,,200653,20,2022-01-29_10h15.26.022,lexical_decision_task_DD_L3,2021.2.3,Win32,20.00080003,,,,,,,,,,,,7.713,1,,,,,,,,,,,,,,z,1,7.713,,,,,,,,0.147574819,0.484520124,0,0,0,,0,74,74,138,1,PLICE,C,old,z,./images/PLICE.png,,,,,,,,,,,,,,,,,,,,,
,,,,,,,,,,,,,,,,,200653,20,2022-01-29_10h15.26.022,lexical_decision_task_DD_L3,2021.2.3,Win32,20.00080003,,,,,,,,,,,,1.029,1,,,,,,,,,,,,,,m,1,1.029,,,,,,,,0.147574819,0.484520124,0,0,0,,0,75,75,39,1,SHELF,LB,old,m,./images/SHELFLB.png,,,,,,,,,,,,,,,,,,,,,
,,,,,,,,,,,,,,,,,200653,20,2022-01-29_10h15.26.022,lexical_decision_task_DD_L3,2021.2.3,Win32,20.00080003,,,,,,,,,,,,0.787,1,,,,,,,,,,,,,,z,1,0.787,,,,,,,,0.147574819,0.484520124,0,0,0,,0,76,76,161,1,BLAPS,LB,old,z,./images/BLAPSLB.png,,,,,,,,,,,,,,,,,,,,,
,,,,,,,,,,,,,,,,,200653,20,2022-01-29_10h15.26.022,lexical_decision_task_DD_L3,2021.2.3,Win32,20.00080003,,,,,,,,,,,,0.713,1,,,,,,,,,,,,,,m,1,0.713,,,,,,,,0.147574819,0.484520124,0,0,0,,0,77,77,11,1,BONNET,HB,old,m,./images/BONNETHB.png,,,,,,,,,,,,,,,,,,,,,
,,,,,,,,,,,,,,,,,200653,20,2022-01-29_10h15.26.022,lexical_decision_task_DD_L3,2021.2.3,Win32,20.00080003,,,,,,,,,,,,0.984,1,,,,,,,,,,,,,,z,1,0.984,,,,,,,,0.147574819,0.484520124,0,0,0,,0,78,78,112,1,MYING,HB,old,z,./images/MYINGHB.png,,,,,,,,,,,,,,,,,,,,,
,,,,,,,,,,,,,,,,,200653,20,2022-01-29_10h15.26.022,lexical_decision_task_DD_L3,2021.2.3,Win32,20.00080003,,,,,,,,,,,,0.515,1,,,,,,,,,,,,,,m,1,0.515,,,,,,,,0.147574819,0.484520124,0,0,0,,0,79,79,27,1,ATTIC,LB,old,m,./images/ATTICLB.png,,,,,,,,,,,,,,,,,,,,,
,,,,,,,,,,,,,,,,,200653,20,2022-01-29_10h15.26.022,lexical_decision_task_DD_L3,2021.2.3,Win32,20.00080003,,,,,,,,,,,,0.671,1,,,,,,,,,,,,,,z,1,0.671,,,,,,,,0.147574819,0.484520124,0,0,0,,0,80,80,158,1,EGECT,LB,old,z,./images/EGECTLB.png,,,,,,,,,,,,,,,,,,,,,
,,,,,,,,,,,,,,,,,200653,20,2022-01-29_10h15.26.022,lexical_decision_task_DD_L3,2021.2.3,Win32,20.00080003,,,,,,,,,,,,0.825,1,,,,,,,,,,,,,,m,1,0.825,,,,,,,,0.147574819,0.484520124,0,0,0,,0,81,81,67,1,SAILOR,C,old,m,./images/SAILOR.png,,,,,,,,,,,,,,,,,,,,,
,,,,,,,,,,,,,,,,,200653,20,2022-01-29_10h15.26.022,lexical_decision_task_DD_L3,2021.2.3,Win32,20.00080003,,,,,,,,,,,,0.57,1,,,,,,,,,,,,,,m,1,0.57,,,,,,,,0.147574819,0.484520124,0,0,0,,0,82,82,37,1,BIRTH,C,old,m,./images/BIRTH.png,,,,,,,,,,,,,,,,,,,,,
,,,,,,,,,,,,,,,,,200653,20,2022-01-29_10h15.26.022,lexical_decision_task_DD_L3,2021.2.3,Win32,20.00080003,,,,,,,,,,,,0.671,1,,,,,,,,,,,,,,z,1,0.671,,,,,,,,0.120743034,0.498968008,0,0,0,space,0,83,83,86,1,AIFED,LB,old,z,./images/AIFEDLB.png,115.081,,,,,,,,,,,,,,,,,,,,
,,,,,,,,,,,,,,,,,200653,20,2022-01-29_10h15.26.022,lexical_decision_task_DD_L3,2021.2.3,Win32,20.00080003,,,,,,,,,,,,1.546,1,,,,,,,,,,,,,,z,1,1.546,,,,,,,,-0.362229102,0.498968008,0,0,0,,0,84,84,84,1,HAXES,C,old,z,./images/HAXES.png,,,,,,,,,,,,,,,,,,,,,
,,,,,,,,,,,,,,,,,200653,20,2022-01-29_10h15.26.022,lexical_decision_task_DD_L3,2021.2.3,Win32,20.00080003,,,,,,,,,,,,0.508,1,,,,,,,,,,,,,,m,1,0.508,,,,,,,,-0.362229102,0.498968008,0,0,0,,0,85,85,66,1,SWEAT,LB,old,m,./images/SWEATLB.png,,,,,,,,,,,,,,,,,,,,,
,,,,,,,,,,,,,,,,,200653,20,2022-01-29_10h15.26.022,lexical_decision_task_DD_L3,2021.2.3,Win32,20.00080003,,,,,,,,,,,,0.749,1,,,,,,,,,,,,,,z,1,0.749,,,,,,,,-0.362229102,0.498968008,0,0,0,,0,86,86,119,1,PAFER,LB,old,z,./images/PAFERLB.png,,,,,,,,,,,,,,,,,,,,,
,,,,,,,,,,,,,,,,,200653,20,2022-01-29_10h15.26.022,lexical_decision_task_DD_L3,2021.2.3,Win32,20.00080003,,,,,,,,,,,,0.671,1,,,,,,,,,,,,,,m,1,0.671,,,,,,,,-0.362229102,0.498968008,0,0,0,,0,87,87,28,1,FALCON,C,old,m,./images/FALCON.png,,,,,,,,,,,,,,,,,,,,,
,,,,,,,,,,,,,,,,,200653,20,2022-01-29_10h15.26.022,lexical_decision_task_DD_L3,2021.2.3,Win32,20.00080003,,,,,,,,,,,,0.828,1,,,,,,,,,,,,,,z,1,0.828,,,,,,,,-0.362229102,0.498968008,0,0,0,,0,88,88,93,1,SMONE,C,old,z,./images/SMONE.png,,,,,,,,,,,,,,,,,,,,,
,,,,,,,,,,,,,,,,,200653,20,2022-01-29_10h15.26.022,lexical_decision_task_DD_L3,2021.2.3,Win32,20.00080003,,,,,,,,,,,,0.56,1,,,,,,,,,,,,,,m,1,0.56,,,,,,,,-0.362229102,0.498968008,0,0,0,,0,89,89,42,1,FOLDER,LB,old,m,./images/FOLDERLB.png,,,,,,,,,,,,,,,,,,,,,
,,,,,,,,,,,,,,,,,200653,20,2022-01-29_10h15.26.022,lexical_decision_task_DD_L3,2021.2.3,Win32,20.00080003,,,,,,,,,,,,0.627,1,,,,,,,,,,,,,,m,1,0.627,,,,,,,,-0.362229102,0.498968008,0,0,0,,0,90,90,10,1,BELLY,C,old,m,./images/BELLY.png,,,,,,,,,,,,,,,,,,,,,
,,,,,,,,,,,,,,,,,200653,20,2022-01-29_10h15.26.022,lexical_decision_task_DD_L3,2021.2.3,Win32,20.00080003,,,,,,,,,,,,0.526,1,,,,,,,,,,,,,,m,1,0.526,,,,,,,,-0.362229102,0.498968008,0,0,0,,0,91,91,46,1,PEARL,C,old,m,./images/PEARL.png,,,,,,,,,,,,,,,,,,,,,
,,,,,,,,,,,,,,,,,200653,20,2022-01-29_10h15.26.022,lexical_decision_task_DD_L3,2021.2.3,Win32,20.00080003,,,,,,,,,,,,1.268,1,,,,,,,,,,,,,,m,1,1.268,,,,,,,,-0.362229102,0.498968008,0,0,0,,0,92,92,26,1,SMOKER,HB,old,m,./images/SMOKERHB.png,,,,,,,,,,,,,,,,,,,,,
,,,,,,,,,,,,,,,,,200653,20,2022-01-29_10h15.26.022,lexical_decision_task_DD_L3,2021.2.3,Win32,20.00080003,,,,,,,,,,,,0.637,1,,,,,,,,,,,,,,m,1,0.637,,,,,,,,-0.362229102,0.498968008,0,0,0,,0,93,93,19,1,DOUGH,C,old,m,./images/DOUGH.png,,,,,,,,,,,,,,,,,,,,,
,,,,,,,,,,,,,,,,,200653,20,2022-01-29_10h15.26.022,lexical_decision_task_DD_L3,2021.2.3,Win32,20.00080003,,,,,,,,,,,,1.355,1,,,,,,,,,,,,,,z,1,1.355,,,,,,,,-0.362229102,0.498968008,0,0,0,,0,94,94,134,1,TROSS,LB,old,z,./images/TROSSLB.png,,,,,,,,,,,,,,,,,,,,,
,,,,,,,,,,,,,,,,,200653,20,2022-01-29_10h15.26.022,lexical_decision_task_DD_L3,2021.2.3,Win32,20.00080003,,,,,,,,,,,,1.667,1,,,,,,,,,,,,,,z,1,1.667,,,,,,,,-0.362229102,0.498968008,0,0,0,,0,95,95,132,1,SCIFF,C,old,z,./images/SCIFF.png,,,,,,,,,,,,,,,,,,,,,
,,,,,,,,,,,,,,,,,200653,20,2022-01-29_10h15.26.022,lexical_decision_task_DD_L3,2021.2.3,Win32,20.00080003,,,,,,,,,,,,0.612,1,,,,,,,,,,,,,,m,1,0.612,,,,,,,,-0.362229102,0.498968008,0,0,0,,0,96,96,3,1,FINGER,LB,old,m,./images/FINGERLB.png,,,,,,,,,,,,,,,,,,,,,
,,,,,,,,,,,,,,,,,200653,20,2022-01-29_10h15.26.022,lexical_decision_task_DD_L3,2021.2.3,Win32,20.00080003,,,,,,,,,,,,0.791,1,,,,,,,,,,,,,,m,1,0.791,,,,,,,,-0.362229102,0.498968008,0,0,0,,0,97,97,38,1,LADDER,HB,old,m,./images/LADDERHB.png,,,,,,,,,,,,,,,,,,,,,
,,,,,,,,,,,,,,,,,200653,20,2022-01-29_10h15.26.022,lexical_decision_task_DD_L3,2021.2.3,Win32,20.00080003,,,,,,,,,,,,0.824,1,,,,,,,,,,,,,,z,1,0.824,,,,,,,,-0.362229102,0.498968008,0,0,0,,0,98,98,106,1,CLUMS,HB,old,z,./images/CLUMSHB.png,,,,,,,,,,,,,,,,,,,,,
,,,,,,,,,,,,,,,,,200653,20,2022-01-29_10h15.26.022,lexical_decision_task_DD_L3,2021.2.3,Win32,20.00080003,,,,,,,,,,,,0.669,1,,,,,,,,,,,,,,m,1,0.669,,,,,,,,-0.362229102,0.498968008,0,0,0,,0,99,99,9,1,RHINO,LB,old,m,./images/RHINOLB.png,,,,,,,,,,,,,,,,,,,,,
,,,,,,,,,,,,,,,,,200653,20,2022-01-29_10h15.26.022,lexical_decision_task_DD_L3,2021.2.3,Win32,20.00080003,,,,,,,,,,,,0.964,0,,,,,,,,,,,,,,m,0,0.964,,,,,,,,-0.362229102,0.498968008,0,0,0,,0,100,100,110,1,CRUNK,LB,old,z,./images/CRUNKLB.png,,,,,,,,,,,,,,,,,,,,,
,,,,,,,,,,,,,,,,,200653,20,2022-01-29_10h15.26.022,lexical_decision_task_DD_L3,2021.2.3,Win32,20.00080003,,,,,,,,,,,,0.606,0,,,,,,,,,,,,,,z,0,0.606,,,,,,,,-0.362229102,0.498968008,0,0,0,,0,101,101,14,1,PICKLE,HB,old,m,./images/PICKLEHB.png,,,,,,,,,,,,,,,,,,,,,
,,,,,,,,,,,,,,,,,200653,20,2022-01-29_10h15.26.022,lexical_decision_task_DD_L3,2021.2.3,Win32,20.00080003,,,,,,,,,,,,0.933,1,,,,,,,,,,,,,,z,1,0.933,,,,,,,,-0.362229102,0.498968008,0,0,0,,0,102,102,97,1,CHIDS,HB,old,z,./images/CHIDSHB.png,,,,,,,,,,,,,,,,,,,,,
,,,,,,,,,,,,,,,,,200653,20,2022-01-29_10h15.26.022,lexical_decision_task_DD_L3,2021.2.3,Win32,20.00080003,,,,,,,,,,,,0.675,1,,,,,,,,,,,,,,m,1,0.675,,,,,,,,-0.362229102,0.498968008,0,0,0,,0,103,103,70,1,URINE,C,old,m,./images/URINE.png,,,,,,,,,,,,,,,,,,,,,
,,,,,,,,,,,,,,,,,200653,20,2022-01-29_10h15.26.022,lexical_decision_task_DD_L3,2021.2.3,Win32,20.00080003,,,,,,,,,,,,1.415,1,,,,,,,,,,,,,,z,1,1.415,,,,,,,,-0.362229102,0.498968008,0,0,0,,0,104,104,145,1,LAMEL,HB,old,z,./images/LAMELHB.png,,,,,,,,,,,,,,,,,,,,,
,,,,,,,,,,,,,,,,,200653,20,2022-01-29_10h15.26.022,lexical_decision_task_DD_L3,2021.2.3,Win32,20.00080003,,,,,,,,,,,,1.086,1,,,,,,,,,,,,,,m,1,1.086,,,,,,,,-0.362229102,0.498968008,0,0,0,,0,105,105,16,1,PENCE,C,old,m,./images/PENCE.png,,,,,,,,,,,,,,,,,,,,,
,,,,,,,,,,,,,,,,,200653,20,2022-01-29_10h15.26.022,lexical_decision_task_DD_L3,2021.2.3,Win32,20.00080003,,,,,,,,,,,,0.591,1,,,,,,,,,,,,,,z,1,0.591,,,,,,,,-0.362229102,0.498968008,0,0,0,,0,106,106,87,1,TRING,C,old,z,./images/TRING.png,,,,,,,,,,,,,,,,,,,,,
,,,,,,,,,,,,,,,,,200653,20,2022-01-29_10h15.26.022,lexical_decision_task_DD_L3,2021.2.3,Win32,20.00080003,,,,,,,,,,,,0.668,1,,,,,,,,,,,,,,m,1,0.668,,,,,,,,-0.362229102,0.498968008,0,0,0,,0,107,107,12,1,SHORE,LB,old,m,./images/SHORELB.png,,,,,,,,,,,,,,,,,,,,,
,,,,,,,,,,,,,,,,,200653,20,2022-01-29_10h15.26.022,lexical_decision_task_DD_L3,2021.2.3,Win32,20.00080003,,,,,,,,,,,,0.731,1,,,,,,,,,,,,,,m,1,0.731,,,,,,,,-0.362229102,0.498968008,0,0,0,,0,108,108,32,1,BARREL,HB,old,m,./images/BARRELHB.png,,,,,,,,,,,,,,,,,,,,,
,,,,,,,,,,,,,,,,,200653,20,2022-01-29_10h15.26.022,lexical_decision_task_DD_L3,2021.2.3,Win32,20.00080003,,,,,,,,,,,,1.318,1,,,,,,,,,,,,,,z,1,1.318,,,,,,,,-0.362229102,0.498968008,0,0,0,,0,109,109,115,1,MAWNS,HB,old,z,./images/MAWNSHB.png,,,,,,,,,,,,,,,,,,,,,
,,,,,,,,,,,,,,,,,200653,20,2022-01-29_10h15.26.022,lexical_decision_task_DD_L3,2021.2.3,Win32,20.00080003,,,,,,,,,,,,0.714,1,,,,,,,,,,,,,,m,1,0.714,,,,,,,,-0.362229102,0.498968008,0,0,0,,0,110,110,20,1,CRADLE,HB,old,m,./images/CRADLEHB.png,,,,,,,,,,,,,,,,,,,,,
,,,,,,,,,,,,,,,,,200653,20,2022-01-29_10h15.26.022,lexical_decision_task_DD_L3,2021.2.3,Win32,20.00080003,,,,,,,,,,,,0.63,1,,,,,,,,,,,,,,z,1,0.63,,,,,,,,-0.362229102,0.498968008,0,0,0,,0,111,111,108,1,GRUET,C,old,z,./images/GRUET.png,,,,,,,,,,,,,,,,,,,,,
,,,,,,,,,,,,,,,,,200653,20,2022-01-29_10h15.26.022,lexical_decision_task_DD_L3,2021.2.3,Win32,20.00080003,,,,,,,,,,,,0.673,1,,,,,,,,,,,,,,z,1,0.673,,,,,,,,-0.362229102,0.498968008,0,0,0,,0,112,112,162,1,LEICH,C,old,z,./images/LEICH.png,,,,,,,,,,,,,,,,,,,,,
,,,,,,,,,,,,,,,,,200653,20,2022-01-29_10h15.26.022,lexical_decision_task_DD_L3,2021.2.3,Win32,20.00080003,,,,,,,,,,,,0.88,1,,,,,,,,,,,,,,m,1,0.88,,,,,,,,-0.362229102,0.498968008,0,0,0,,0,113,113,29,1,CRUMB,HB,old,m,./images/CRUMBHB.png,,,,,,,,,,,,,,,,,,,,,
,,,,,,,,,,,,,,,,,200653,20,2022-01-29_10h15.26.022,lexical_decision_task_DD_L3,2021.2.3,Win32,20.00080003,,,,,,,,,,,,1.058,1,,,,,,,,,,,,,,z,1,1.058,,,,,,,,-0.362229102,0.498968008,0,0,0,,0,114,114,95,1,HANTY,LB,old,z,./images/HANTYLB.png,,,,,,,,,,,,,,,,,,,,,
,,,,,,,,,,,,,,,,,200653,20,2022-01-29_10h15.26.022,lexical_decision_task_DD_L3,2021.2.3,Win32,20.00080003,,,,,,,,,,,,0.76,1,,,,,,,,,,,,,,z,1,0.76,,,,,,,,-0.362229102,0.498968008,0,0,0,,0,115,115,155,1,CANGY,LB,old,z,./images/CANGYLB.png,,,,,,,,,,,,,,,,,,,,,
,,,,,,,,,,,,,,,,,200653,20,2022-01-29_10h15.26.022,lexical_decision_task_DD_L3,2021.2.3,Win32,20.00080003,,,,,,,,,,,,0.553,1,,,,,,,,,,,,,,z,1,0.553,,,,,,,,-0.362229102,0.498968008,0,0,0,,0,116,116,129,1,PRANS,C,old,z,./images/PRANS.png,,,,,,,,,,,,,,,,,,,,,
,,,,,,,,,,,,,,,,,200653,20,2022-01-29_10h15.26.022,lexical_decision_task_DD_L3,2021.2.3,Win32,20.00080003,,,,,,,,,,,,1.026,1,,,,,,,,,,,,,,m,1,1.026,,,,,,,,-0.362229102,0.498968008,0,0,0,,0,117,117,74,1,CEMENT,HB,old,m,./images/CEMENTHB.png,,,,,,,,,,,,,,,,,,,,,
,,,,,,,,,,,,,,,,,200653,20,2022-01-29_10h15.26.022,lexical_decision_task_DD_L3,2021.2.3,Win32,20.00080003,,,,,,,,,,,,0.708,1,,,,,,,,,,,,,,m,1,0.708,,,,,,,,-0.362229102,0.498968008,0,0,0,,0,118,118,24,1,SCREW,LB,old,m,./images/SCREWLB.png,,,,,,,,,,,,,,,,,,,,,
,,,,,,,,,,,,,,,,,200653,20,2022-01-29_10h15.26.022,lexical_decision_task_DD_L3,2021.2.3,Win32,20.00080003,,,,,,,,,,,,0.644,1,,,,,,,,,,,,,,m,1,0.644,,,,,,,,-0.362229102,0.498968008,0,0,0,,0,119,119,63,1,MIRROR,LB,old,m,./images/MIRRORLB.png,,,,,,,,,,,,,,,,,,,,,
,,,,,,,,,,,,,,,,,200653,20,2022-01-29_10h15.26.022,lexical_decision_task_DD_L3,2021.2.3,Win32,20.00080003,,,,,,,,,,,,0.891,1,,,,,,,,,,,,,,z,1,0.891,,,,,,,,-0.362229102,0.498968008,0,0,0,,0,120,120,164,1,SGREW,LB,old,z,./images/SGREWLB.png,,,,,,,,,,,,,,,,,,,,,
,,,,,,,,,,,,,,,,,200653,20,2022-01-29_10h15.26.022,lexical_decision_task_DD_L3,2021.2.3,Win32,20.00080003,,,,,,,,,,,,0.863,1,,,,,,,,,,,,,,z,1,0.863,,,,,,,,-0.362229102,0.498968008,0,0,0,,0,121,121,156,1,HIXES,C,old,z,./images/HIXES.png,,,,,,,,,,,,,,,,,,,,,
,,,,,,,,,,,,,,,,,200653,20,2022-01-29_10h15.26.022,lexical_decision_task_DD_L3,2021.2.3,Win32,20.00080003,,,,,,,,,,,,0.784,1,,,,,,,,,,,,,,m,1,0.784,,,,,,,,-0.362229102,0.498968008,0,0,0,,0,122,122,18,1,JAGUAR,LB,old,m,./images/JAGUARLB.png,,,,,,,,,,,,,,,,,,,,,
,,,,,,,,,,,,,,,,,200653,20,2022-01-29_10h15.26.022,lexical_decision_task_DD_L3,2021.2.3,Win32,20.00080003,,,,,,,,,,,,0.582,1,,,,,,,,,,,,,,z,1,0.582,,,,,,,,-0.362229102,0.498968008,0,0,0,,0,123,123,135,1,JOODY,C,old,z,./images/JOODY.png,,,,,,,,,,,,,,,,,,,,,
,,,,,,,,,,,,,,,,,200653,20,2022-01-29_10h15.26.022,lexical_decision_task_DD_L3,2021.2.3,Win32,20.00080003,,,,,,,,,,,,0.917,1,,,,,,,,,,,,,,z,1,0.917,,,,,,,,-0.362229102,0.498968008,0,0,0,,0,124,124,133,1,POWDY,HB,old,z,./images/POWDYHB.png,,,,,,,,,,,,,,,,,,,,,
,,,,,,,,,,,,,,,,,200653,20,2022-01-29_10h15.26.022,lexical_decision_task_DD_L3,2021.2.3,Win32,20.00080003,,,,,,,,,,,,0.716,1,,,,,,,,,,,,,,z,1,0.716,,,,,,,,-0.362229102,0.498968008,0,0,0,space,0,125,125,122,1,BLOOT,LB,old,z,./images/BLOOTLB.png,19.324,,,,,,,,,,,,,,,,,,,,
,,,,,,,,,,,,,,,,,200653,20,2022-01-29_10h15.26.022,lexical_decision_task_DD_L3,2021.2.3,Win32,20.00080003,,,,,,,,,,,,1.122,1,,,,,,,,,,,,,,z,1,1.122,,,,,,,,-0.362229102,0.498968008,0,0,0,,0,126,126,102,1,DULLE,C,old,z,./images/DULLE.png,,,,,,,,,,,,,,,,,,,,,
,,,,,,,,,,,,,,,,,200653,20,2022-01-29_10h15.26.022,lexical_decision_task_DD_L3,2021.2.3,Win32,20.00080003,,,,,,,,,,,,0.827,1,,,,,,,,,,,,,,m,1,0.827,,,,,,,,-0.362229102,0.498968008,0,0,0,,0,127,127,2,1,BEARD,HB,old,m,./images/BEARDHB.png,,,,,,,,,,,,,,,,,,,,,
,,,,,,,,,,,,,,,,,200653,20,2022-01-29_10h15.26.022,lexical_decision_task_DD_L3,2021.2.3,Win32,20.00080003,,,,,,,,,,,,0.723,1,,,,,,,,,,,,,,m,1,0.723,,,,,,,,-0.362229102,0.498968008,0,0,0,,0,128,128,36,1,THROAT,LB,old,m,./images/THROATLB.png,,,,,,,,,,,,,,,,,,,,,
,,,,,,,,,,,,,,,,,200653,20,2022-01-29_10h15.26.022,lexical_decision_task_DD_L3,2021.2.3,Win32,20.00080003,,,,,,,,,,,,0.64,1,,,,,,,,,,,,,,z,1,0.64,,,,,,,,-0.362229102,0.498968008,0,0,0,,0,129,129,152,1,FRAIN,LB,old,z,./images/FRAINLB.png,,,,,,,,,,,,,,,,,,,,,
,,,,,,,,,,,,,,,,,200653,20,2022-01-29_10h15.26.022,lexical_decision_task_DD_L3,2021.2.3,Win32,20.00080003,,,,,,,,,,,,0.563,1,,,,,,,,,,,,,,z,1,0.563,,,,,,,,-0.362229102,0.498968008,0,0,0,,0,130,130,101,1,GLEET,LB,old,z,./images/GLEETLB.png,,,,,,,,,,,,,,,,,,,,,
,,,,,,,,,,,,,,,,,200653,20,2022-01-29_10h15.26.022,lexical_decision_task_DD_L3,2021.2.3,Win32,20.00080003,,,,,,,,,,,,0.588,1,,,,,,,,,,,,,,z,1,0.588,,,,,,,,-0.362229102,0.498968008,0,0,0,,0,131,131,89,1,DRIEK,LB,old,z,./images/DRIEKLB.png,,,,,,,,,,,,,,,,,,,,,
,,,,,,,,,,,,,,,,,200653,20,2022-01-29_10h15.26.022,lexical_decision_task_DD_L3,2021.2.3,Win32,20.00080003,,,,,,,,,,,,0.652,1,,,,,,,,,,,,,,m,1,0.652,,,,,,,,-0.362229102,0.498968008,0,0,0,,0,132,132,64,1,JELLY,C,old,m,./images/JELLY.png,,,,,,,,,,,,,,,,,,,,,
,,,,,,,,,,,,,,,,,200653,20,2022-01-29_10h15.26.022,lexical_decision_task_DD_L3,2021.2.3,Win32,20.00080003,,,,,,,,,,,,0.708,1,,,,,,,,,,,,,,z,1,0.708,,,,,,,,-0.362229102,0.498968008,0,0,0,,0,133,133,107,1,FASKS,LB,old,z,./images/FASKSLB.png,,,,,,,,,,,,,,,,,,,,,
,,,,,,,,,,,,,,,,,200653,20,2022-01-29_10h15.26.022,lexical_decision_task_DD_L3,2021.2.3,Win32,20.00080003,,,,,,,,,,,,0.742,1,,,,,,,,,,,,,,z,1,0.742,,,,,,,,-0.362229102,0.498968008,0,0,0,,0,134,134,146,1,MOOST,LB,old,z,./images/MOOSTLB.png,,,,,,,,,,,,,,,,,,,,,
,,,,,,,,,,,,,,,,,200653,20,2022-01-29_10h15.26.022,lexical_decision_task_DD_L3,2021.2.3,Win32,20.00080003,,,,,,,,,,,,0.889,1,,,,,,,,,,,,,,z,1,0.889,,,,,,,,-0.362229102,0.498968008,0,0,0,,0,135,135,99,1,BACKY,C,old,z,./images/BACKY.png,,,,,,,,,,,,,,,,,,,,,
,,,,,,,,,,,,,,,,,200653,20,2022-01-29_10h15.26.022,lexical_decision_task_DD_L3,2021.2.3,Win32,20.00080003,,,,,,,,,,,,0.817,1,,,,,,,,,,,,,,m,1,0.817,,,,,,,,-0.362229102,0.498968008,0,0,0,,0,136,136,72,1,NOOSE,LB,old,m,./images/NOOSELB.png,,,,,,,,,,,,,,,,,,,,,
,,,,,,,,,,,,,,,,,200653,20,2022-01-29_10h15.26.022,lexical_decision_task_DD_L3,2021.2.3,Win32,20.00080003,,,,,,,,,,,,0.946,1,,,,,,,,,,,,,,m,1,0.946,,,,,,,,-0.362229102,0.498968008,0,0,0,,0,137,137,44,1,LIZARD,HB,old,m,./images/LIZARDHB.png,,,,,,,,,,,,,,,,,,,,,
,,,,,,,,,,,,,,,,,200653,20,2022-01-29_10h15.26.022,lexical_decision_task_DD_L3,2021.2.3,Win32,20.00080003,,,,,,,,,,,,0.633,1,,,,,,,,,,,,,,m,1,0.633,,,,,,,,-0.362229102,0.498968008,0,0,0,,0,138,138,30,1,STORM,LB,old,m,./images/STORMLB.png,,,,,,,,,,,,,,,,,,,,,
,,,,,,,,,,,,,,,,,200653,20,2022-01-29_10h15.26.022,lexical_decision_task_DD_L3,2021.2.3,Win32,20.00080003,,,,,,,,,,,,0.916,1,,,,,,,,,,,,,,z,1,0.916,,,,,,,,-0.362229102,0.498968008,0,0,0,,0,139,139,118,1,BAVEL,HB,old,z,./images/BAVELHB.png,,,,,,,,,,,,,,,,,,,,,
,,,,,,,,,,,,,,,,,200653,20,2022-01-29_10h15.26.022,lexical_decision_task_DD_L3,2021.2.3,Win32,20.00080003,,,,,,,,,,,,0.893,1,,,,,,,,,,,,,,z,1,0.893,,,,,,,,-0.362229102,0.498968008,0,0,0,,0,140,140,151,1,TINKY,HB,old,z,./images/TINKYHB.png,,,,,,,,,,,,,,,,,,,,,
,,,,,,,,,,,,,,,,,200653,20,2022-01-29_10h15.26.022,lexical_decision_task_DD_L3,2021.2.3,Win32,20.00080003,,,,,,,,,,,,0.851,1,,,,,,,,,,,,,,m,1,0.851,,,,,,,,-0.362229102,0.498968008,0,0,0,,0,141,141,1,1,PLANK,C,old,m,./images/PLANK.png,,,,,,,,,,,,,,,,,,,,,
,,,,,,,,,,,,,,,,,200653,20,2022-01-29_10h15.26.022,lexical_decision_task_DD_L3,2021.2.3,Win32,20.00080003,,,,,,,,,,,,0.65,1,,,,,,,,,,,,,,m,1,0.65,,,,,,,,-0.362229102,0.498968008,0,0,0,,0,142,142,7,1,PAINT,C,old,m,./images/PAINT.png,,,,,,,,,,,,,,,,,,,,,
,,,,,,,,,,,,,,,,,200653,20,2022-01-29_10h15.26.022,lexical_decision_task_DD_L3,2021.2.3,Win32,20.00080003,,,,,,,,,,,,1.188,0,,,,,,,,,,,,,,m,0,1.188,,,,,,,,-0.362229102,0.498968008,0,0,0,,0,143,143,142,1,PLASK,HB,old,z,./images/PLASKHB.png,,,,,,,,,,,,,,,,,,,,,
,,,,,,,,,,,,,,,,,200653,20,2022-01-29_10h15.26.022,lexical_decision_task_DD_L3,2021.2.3,Win32,20.00080003,,,,,,,,,,,,1.166,1,,,,,,,,,,,,,,z,1,1.166,,,,,,,,-0.362229102,0.498968008,0,0,0,,0,144,144,91,1,SHENS,HB,old,z,./images/SHENSHB.png,,,,,,,,,,,,,,,,,,,,,
,,,,,,,,,,,,,,,,,200653,20,2022-01-29_10h15.26.022,lexical_decision_task_DD_L3,2021.2.3,Win32,20.00080003,,,,,,,,,,,,0.643,1,,,,,,,,,,,,,,m,1,0.643,,,,,,,,-0.362229102,0.498968008,0,0,0,,0,145,145,81,1,POODLE,LB,old,m,./images/POODLELB.png,,,,,,,,,,,,,,,,,,,,,
,,,,,,,,,,,,,,,,,200653,20,2022-01-29_10h15.26.022,lexical_decision_task_DD_L3,2021.2.3,Win32,20.00080003,,,,,,,,,,,,0.508,0,,,,,,,,,,,,,,z,0,0.508,,,,,,,,-0.362229102,0.498968008,0,0,0,,0,146,146,75,1,GRAIN,LB,old,m,./images/GRAINLB.png,,,,,,,,,,,,,,,,,,,,,
,,,,,,,,,,,,,,,,,200653,20,2022-01-29_10h15.26.022,lexical_decision_task_DD_L3,2021.2.3,Win32,20.00080003,,,,,,,,,,,,1.257,1,,,,,,,,,,,,,,m,1,1.257,,,,,,,,-0.362229102,0.498968008,0,0,0,,0,147,147,59,1,BURIAL,HB,old,m,./images/BURIALHB.png,,,,,,,,,,,,,,,,,,,,,
,,,,,,,,,,,,,,,,,200653,20,2022-01-29_10h15.26.022,lexical_decision_task_DD_L3,2021.2.3,Win32,20.00080003,,,,,,,,,,,,0.863,1,,,,,,,,,,,,,,z,1,0.863,,,,,,,,-0.362229102,0.498968008,0,0,0,,0,148,148,160,1,VEETS,HB,old,z,./images/VEETSHB.png,,,,,,,,,,,,,,,,,,,,,
,,,,,,,,,,,,,,,,,200653,20,2022-01-29_10h15.26.022,lexical_decision_task_DD_L3,2021.2.3,Win32,20.00080003,,,,,,,,,,,,0.629,1,,,,,,,,,,,,,,m,1,0.629,,,,,,,,-0.362229102,0.498968008,0,0,0,,0,149,149,6,1,SQUARE,LB,old,m,./images/SQUARELB.png,,,,,,,,,,,,,,,,,,,,,
,,,,,,,,,,,,,,,,,200653,20,2022-01-29_10h15.26.022,lexical_decision_task_DD_L3,2021.2.3,Win32,20.00080003,,,,,,,,,,,,0.695,1,,,,,,,,,,,,,,z,1,0.695,,,,,,,,-0.362229102,0.498968008,0,0,0,,0,150,150,137,1,JOOST,LB,old,z,./images/JOOSTLB.png,,,,,,,,,,,,,,,,,,,,,
,,,,,,,,,,,,,,,,,200653,20,2022-01-29_10h15.26.022,lexical_decision_task_DD_L3,2021.2.3,Win32,20.00080003,,,,,,,,,,,,2.032,1,,,,,,,,,,,,,,m,1,2.032,,,,,,,,-0.362229102,0.498968008,0,0,0,,0,151,151,78,1,LITTER,LB,old,m,./images/LITTERLB.png,,,,,,,,,,,,,,,,,,,,,
,,,,,,,,,,,,,,,,,200653,20,2022-01-29_10h15.26.022,lexical_decision_task_DD_L3,2021.2.3,Win32,20.00080003,,,,,,,,,,,,5.981,1,,,,,,,,,,,,,,m,1,5.981,,,,,,,,-0.362229102,0.498968008,0,0,0,,0,152,152,69,1,COOKER,LB,old,m,./images/COOKERLB.png,,,,,,,,,,,,,,,,,,,,,
,,,,,,,,,,,,,,,,,200653,20,2022-01-29_10h15.26.022,lexical_decision_task_DD_L3,2021.2.3,Win32,20.00080003,,,,,,,,,,,,0.706,1,,,,,,,,,,,,,,m,1,0.706,,,,,,,,-0.362229102,0.498968008,0,0,0,,0,153,153,79,1,CRUST,C,old,m,./images/CRUST.png,,,,,,,,,,,,,,,,,,,,,
,,,,,,,,,,,,,,,,,200653,20,2022-01-29_10h15.26.022,lexical_decision_task_DD_L3,2021.2.3,Win32,20.00080003,,,,,,,,,,,,1.067,1,,,,,,,,,,,,,,z,1,1.067,,,,,,,,-0.362229102,0.498968008,0,0,0,,0,154,154,141,1,PLEET,C,old,z,./images/PLEET.png,,,,,,,,,,,,,,,,,,,,,
,,,,,,,,,,,,,,,,,200653,20,2022-01-29_10h15.26.022,lexical_decision_task_DD_L3,2021.2.3,Win32,20.00080003,,,,,,,,,,,,0.546,1,,,,,,,,,,,,,,m,1,0.546,,,,,,,,-0.362229102,0.498968008,0,0,0,,0,155,155,15,1,GREASE,LB,old,m,./images/GREASELB.png,,,,,,,,,,,,,,,,,,,,,
,,,,,,,,,,,,,,,,,200653,20,2022-01-29_10h15.26.022,lexical_decision_task_DD_L3,2021.2.3,Win32,20.00080003,,,,,,,,,,,,0.925,1,,,,,,,,,,,,,,z,1,0.925,,,,,,,,-0.362229102,0.498968008,0,0,0,,0,156,156,100,1,DRIBS,HB,old,z,./images/DRIBSHB.png,,,,,,,,,,,,,,,,,,,,,
,,,,,,,,,,,,,,,,,200653,20,2022-01-29_10h15.26.022,lexical_decision_task_DD_L3,2021.2.3,Win32,20.00080003,,,,,,,,,,,,1.381,1,,,,,,,,,,,,,,m,1,1.381,,,,,,,,-0.362229102,0.498968008,0,0,0,,0,157,157,31,1,QUILL,C,old,m,./images/QUILL.png,,,,,,,,,,,,,,,,,,,,,
,,,,,,,,,,,,,,,,,200653,20,2022-01-29_10h15.26.022,lexical_decision_task_DD_L3,2021.2.3,Win32,20.00080003,,,,,,,,,,,,1.295,1,,,,,,,,,,,,,,z,1,1.295,,,,,,,,-0.362229102,0.498968008,0,0,0,,0,158,158,163,1,GAMBA,HB,old,z,./images/GAMBAHB.png,,,,,,,,,,,,,,,,,,,,,
,,,,,,,,,,,,,,,,,200653,20,2022-01-29_10h15.26.022,lexical_decision_task_DD_L3,2021.2.3,Win32,20.00080003,,,,,,,,,,,,0.912,1,,,,,,,,,,,,,,z,1,0.912,,,,,,,,-0.362229102,0.498968008,0,0,0,,0,159,159,150,1,NOOLS,C,old,z,./images/NOOLS.png,,,,,,,,,,,,,,,,,,,,,
,,,,,,,,,,,,,,,,,200653,20,2022-01-29_10h15.26.022,lexical_decision_task_DD_L3,2021.2.3,Win32,20.00080003,,,,,,,,,,,,1.116,1,,,,,,,,,,,,,,m,1,1.116,,,,,,,,-0.362229102,0.498968008,0,0,0,,0,160,160,61,1,CANDLE,C,old,m,./images/CANDLE.png,,,,,,,,,,,,,,,,,,,,,
,,,,,,,,,,,,,,,,,200653,20,2022-01-29_10h15.26.022,lexical_decision_task_DD_L3,2021.2.3,Win32,20.00080003,,,,,,,,,,,,0.935,1,,,,,,,,,,,,,,z,1,0.935,,,,,,,,-0.362229102,0.498968008,0,0,0,,0,161,161,125,1,MOOKY,LB,old,z,./images/MOOKYLB.png,,,,,,,,,,,,,,,,,,,,,
,,,,,,,,,,,,,,,,,200653,20,2022-01-29_10h15.26.022,lexical_decision_task_DD_L3,2021.2.3,Win32,20.00080003,,,,,,,,,,,,0.798,1,,,,,,,,,,,,,,m,1,0.798,,,,,,,,-0.362229102,0.498968008,0,0,0,,0,162,162,68,1,TORCH,HB,old,m,./images/TORCHHB.png,,,,,,,,,,,,,,,,,,,,,
,,,,,,,,,,,,,,,,,200653,20,2022-01-29_10h15.26.022,lexical_decision_task_DD_L3,2021.2.3,Win32,20.00080003,,,,,,,,,,,,0.774,1,,,,,,,,,,,,,,m,1,0.774,,,,,,,,-0.362229102,0.498968008,0,0,0,,0,163,163,33,1,MAGGOT,LB,old,m,./images/MAGGOTLB.png,,,,,,,,,,,,,,,,,,,,,
,,,,,,,,,,,,,,,,,200653,20,2022-01-29_10h15.26.022,lexical_decision_task_DD_L3,2021.2.3,Win32,20.00080003,,,,,,,,,,,,0.627,1,,,,,,,,,,,,,,m,1,0.627,,,,,,,,-0.362229102,0.498968008,0,0,0,,0,164,164,41,1,STRING,HB,old,m,./images/STRINGHB.png,,,,,,,,,,,,,,,,,,,,,
,,,,,,,,,,,,,,,,,200653,20,2022-01-29_10h15.26.022,lexical_decision_task_DD_L3,2021.2.3,Win32,20.00080003,,,,,,,,,,,,0.829,1,,,,,,,,,,,,,,m,1,0.829,,,,,,,,-0.362229102,0.498968008,0,0,0,,0,165,165,62,1,PURSE,HB,old,m,./images/PURSEHB.png,,,,,,,,,,,,,,,,,,,,,
,,,,,,,,,,,,,,,,,200653,20,2022-01-29_10h15.26.022,lexical_decision_task_DD_L3,2021.2.3,Win32,20.00080003,,,,,,,,,,,,1.188,1,,,,,,,,,,,,,,z,1,1.188,,,,,,,,-0.246646027,0.443240454,0,0,0,,0,166,166,126,1,GUELS,C,old,z,./images/GUELS.png,,,,,,,,,,,,,,,,,,,,,
,,,,,,,,,,,,,,,,,200653,20,2022-01-29_10h15.26.022,lexical_decision_task_DD_L3,2021.2.3,Win32,20.00080003,,,,,,,,,,,,1.144,1,,,,,,,,,,,,,,m,1,1.144,,,,,,,,-0.243550052,0.447368421,0,0,0,,0,167,167,71,1,PIMPLE,HB,old,m,./images/PIMPLEHB.png,,,,,,,,,,,,,,,,,,,,,
space,-0.074303406,-0.286377709,0,0,0,,,,,,,1,test,"In the next phase you will be presented with the words from the the first phase. Your job is to decide whether you remember seeing the word or not. If you remember seeing the word press ""old"" or type ""m"". If you do not remember seeing the word press ""new"" or type ""z"". Please press the space bar or click on continue to begin. ",,,200653,20,2022-01-29_10h15.26.022,lexical_decision_task_DD_L3,2021.2.3,Win32,20.00080003,73.251,,,,,,,,,,,,,,,,,,,,,,,,,,,,,,,,,,,,,,,,,,,,,,,,,,,,,0,0,0,0,1,,,,,,,,,,,,,,,
,-0.02373581,-0.423632611,1,0,0,instr_done_button,,,,,,1,test,"In the next phase you will be presented with the words from the the first phase. Your job is to decide whether you remember seeing the word or not. If you remember seeing the word press ""old"" or type ""m"". If you do not remember seeing the word press ""new"" or type ""z"". Please press the space bar or click on continue to begin. ",,,200653,20,2022-01-29_10h15.26.022,lexical_decision_task_DD_L3,2021.2.3,Win32,20.00080003,,,,,,,,,,,,,,,,,,,,,,,,,,,,,,,,,,,,,,,,,,,,,,,,,,,,,,1,0,1,0,1,,,,,,,,,,,,,,,
space,-0.434468524,0.029411765,0,0,0,,,,,,,1,test,"In the next phase you will be presented with the words from the the first phase. Your job is to decide whether you remember seeing the word or not. If you remember seeing the word press ""old"" or type ""m"". If you do not remember seeing the word press ""new"" or type ""z"". Please press the space bar or click on continue to begin. ",,,200653,20,2022-01-29_10h15.26.022,lexical_decision_task_DD_L3,2021.2.3,Win32,20.00080003,0.708,,,,,,,,,,,,,,,,,,,,,,,,,,,,,,,,,,,,,,,,,,,,,,,,,,,,,2,0,2,0,1,,,,,,,,,,,,,,,
space,-0.086687307,-0.351393189,0,0,0,,,,,,,1,test,"In the next phase you will be presented with the words from the the first phase. Your job is to decide whether you remember seeing the word or not. If you remember seeing the word press ""old"" or type ""m"". If you do not remember seeing the word press ""new"" or type ""z"". Please press the space bar or click on continue to begin. ",,,200653,20,2022-01-29_10h15.26.022,lexical_decision_task_DD_L3,2021.2.3,Win32,20.00080003,7.648,,,,,,,,,,,,,,,,,,,,,,,,,,,,,,,,,,,,,,,,,,,,,,,,,,,,,3,0,3,0,1,,,,,,,,,,,,,,,
,-0.040247678,-0.378224974,1,0,0,instr_done_button,,,,,,1,test,"In the next phase you will be presented with the words from the the first phase. Your job is to decide whether you remember seeing the word or not. If you remember seeing the word press ""old"" or type ""m"". If you do not remember seeing the word press ""new"" or type ""z"". Please press the space bar or click on continue to begin. ",,,200653,20,2022-01-29_10h15.26.022,lexical_decision_task_DD_L3,2021.2.3,Win32,20.00080003,,,,,,,,,,,,,,,,,,,,,,,,,,,,,,,,,,,,,,,,,,,,,,,,,,,,,,4,0,4,0,1,,,,,,,,,,,,,,,
,,,,,,,,,,,,,,,,,200653,20,2022-01-29_10h15.26.022,lexical_decision_task_DD_L3,2021.2.3,Win32,20.00080003,,,,,,,,,,,,2.838,1,,,,,,,,,,,,,,,,,,,,,,,,-0.237358101,0.457688338,0,0,0,,,,,,,WHEEL,HB,z,m,./images/WHEELHB.png,,,,,,,z,1,2.838,,,,,,,,0,0,0,161,1
,,,,,,,,,,,,,,,,,200653,20,2022-01-29_10h15.26.022,lexical_decision_task_DD_L3,2021.2.3,Win32,20.00080003,,,,,,,,,,,,0.889,1,,,,,,,,,,,,,,,,,,,,,,,,-0.237358101,0.457688338,0,0,0,,,,,,,STOVE,HB,z,m,./images/STOVEHB.png,,,,,,,z,1,0.889,,,,,,,,0,1,1,86,1
,,,,,,,,,,,,,,,,,200653,20,2022-01-29_10h15.26.022,lexical_decision_task_DD_L3,2021.2.3,Win32,20.00080003,,,,,,,,,,,,1.089,0,,,,,,,,,,,,,,,,,,,,,,,,-0.408668731,0.489680083,0,0,0,,,,,,,SHELF,LB,m,m,./images/SHELFLB.png,,,,,,,z,0,1.089,,,,,,,,0,2,2,39,1
,,,,,,,,,,,,,,,,,200653,20,2022-01-29_10h15.26.022,lexical_decision_task_DD_L3,2021.2.3,Win32,20.00080003,,,,,,,,,,,,0.811,1,,,,,,,,,,,,,,,,,,,,,,,,-0.408668731,0.489680083,0,0,0,,,,,,,PILOT,HB,z,m,./images/PILOTHB.png,,,,,,,z,1,0.811,,,,,,,,0,3,3,134,1
,,,,,,,,,,,,,,,,,200653,20,2022-01-29_10h15.26.022,lexical_decision_task_DD_L3,2021.2.3,Win32,20.00080003,,,,,,,,,,,,0.747,1,,,,,,,,,,,,,,,,,,,,,,,,-0.408668731,0.489680083,0,0,0,,,,,,,BELLY,C,m,m,./images/BELLY.png,,,,,,,m,1,0.747,,,,,,,,0,4,4,10,1
,,,,,,,,,,,,,,,,,200653,20,2022-01-29_10h15.26.022,lexical_decision_task_DD_L3,2021.2.3,Win32,20.00080003,,,,,,,,,,,,1.129,1,,,,,,,,,,,,,,,,,,,,,,,,-0.408668731,0.489680083,0,0,0,,,,,,,ARTIST,C,z,m,./images/ARTIST.png,,,,,,,z,1,1.129,,,,,,,,0,5,5,145,1
,,,,,,,,,,,,,,,,,200653,20,2022-01-29_10h15.26.022,lexical_decision_task_DD_L3,2021.2.3,Win32,20.00080003,,,,,,,,,,,,0.918,1,,,,,,,,,,,,,,,,,,,,,,,,-0.408668731,0.489680083,0,0,0,,,,,,,WAGON,C,z,m,./images/WAGON.png,,,,,,,z,1,0.918,,,,,,,,0,6,6,91,1
,,,,,,,,,,,,,,,,,200653,20,2022-01-29_10h15.26.022,lexical_decision_task_DD_L3,2021.2.3,Win32,20.00080003,,,,,,,,,,,,1.024,1,,,,,,,,,,,,,,,,,,,,,,,,-0.408668731,0.489680083,0,0,0,,,,,,,FOLDER,LB,m,m,./images/FOLDERLB.png,,,,,,,m,1,1.024,,,,,,,,0,7,7,42,1
,,,,,,,,,,,,,,,,,200653,20,2022-01-29_10h15.26.022,lexical_decision_task_DD_L3,2021.2.3,Win32,20.00080003,,,,,,,,,,,,0.903,1,,,,,,,,,,,,,,,,,,,,,,,,-0.408668731,0.489680083,0,0,0,,,,,,,FALCON,C,m,m,./images/FALCON.png,,,,,,,m,1,0.903,,,,,,,,0,8,8,28,1
,,,,,,,,,,,,,,,,,200653,20,2022-01-29_10h15.26.022,lexical_decision_task_DD_L3,2021.2.3,Win32,20.00080003,,,,,,,,,,,,0.824,1,,,,,,,,,,,,,,,,,,,,,,,,-0.408668731,0.489680083,0,0,0,,,,,,,TRIPOD,LB,m,m,./images/TRIPODLB.png,,,,,,,m,1,0.824,,,,,,,,0,9,9,54,1
,,,,,,,,,,,,,,,,,200653,20,2022-01-29_10h15.26.022,lexical_decision_task_DD_L3,2021.2.3,Win32,20.00080003,,,,,,,,,,,,0.649,1,,,,,,,,,,,,,,,,,,,,,,,,-0.408668731,0.489680083,0,0,0,,,,,,,BARREL,HB,m,m,./images/BARRELHB.png,,,,,,,m,1,0.649,,,,,,,,0,10,10,32,1
,,,,,,,,,,,,,,,,,200653,20,2022-01-29_10h15.26.022,lexical_decision_task_DD_L3,2021.2.3,Win32,20.00080003,,,,,,,,,,,,0.59,1,,,,,,,,,,,,,,,,,,,,,,,,-0.408668731,0.489680083,0,0,0,,,,,,,MOTOR,C,m,m,./images/MOTOR.png,,,,,,,m,1,0.59,,,,,,,,0,11,11,13,1
,,,,,,,,,,,,,,,,,200653,20,2022-01-29_10h15.26.022,lexical_decision_task_DD_L3,2021.2.3,Win32,20.00080003,,,,,,,,,,,,0.556,1,,,,,,,,,,,,,,,,,,,,,,,,-0.408668731,0.489680083,0,0,0,,,,,,,PEACH,HB,m,m,./images/PEACHHB.png,,,,,,,m,1,0.556,,,,,,,,0,12,12,35,1
,,,,,,,,,,,,,,,,,200653,20,2022-01-29_10h15.26.022,lexical_decision_task_DD_L3,2021.2.3,Win32,20.00080003,,,,,,,,,,,,1.337,0,,,,,,,,,,,,,,,,,,,,,,,,-0.408668731,0.489680083,0,0,0,,,,,,,INFANT,C,m,m,./images/INFANT.png,,,,,,,z,0,1.337,,,,,,,,0,13,13,76,1
,,,,,,,,,,,,,,,,,200653,20,2022-01-29_10h15.26.022,lexical_decision_task_DD_L3,2021.2.3,Win32,20.00080003,,,,,,,,,,,,0.626,1,,,,,,,,,,,,,,,,,,,,,,,,-0.408668731,0.489680083,0,0,0,,,,,,,SPORT,LB,m,m,./images/SPORTLB.png,,,,,,,m,1,0.626,,,,,,,,0,14,14,48,1
,,,,,,,,,,,,,,,,,200653,20,2022-01-29_10h15.26.022,lexical_decision_task_DD_L3,2021.2.3,Win32,20.00080003,,,,,,,,,,,,0.797,1,,,,,,,,,,,,,,,,,,,,,,,,-0.408668731,0.489680083,0,0,0,,,,,,,DIVER,LB,z,m,./images/DIVERLB.png,,,,,,,z,1,0.797,,,,,,,,0,15,15,93,1
,,,,,,,,,,,,,,,,,200653,20,2022-01-29_10h15.26.022,lexical_decision_task_DD_L3,2021.2.3,Win32,20.00080003,,,,,,,,,,,,0.681,1,,,,,,,,,,,,,,,,,,,,,,,,-0.408668731,0.489680083,0,0,0,,,,,,,GRANNY,HB,z,m,./images/GRANNYHB.png,,,,,,,z,1,0.681,,,,,,,,0,16,16,104,1
,,,,,,,,,,,,,,,,,200653,20,2022-01-29_10h15.26.022,lexical_decision_task_DD_L3,2021.2.3,Win32,20.00080003,,,,,,,,,,,,0.729,0,,,,,,,,,,,,,,,,,,,,,,,,-0.408668731,0.489680083,0,0,0,,,,,,,COLLAR,LB,z,m,./images/COLLARLB.png,,,,,,,m,0,0.729,,,,,,,,0,17,17,99,1
,,,,,,,,,,,,,,,,,200653,20,2022-01-29_10h15.26.022,lexical_decision_task_DD_L3,2021.2.3,Win32,20.00080003,,,,,,,,,,,,0.641,1,,,,,,,,,,,,,,,,,,,,,,,,-0.408668731,0.489680083,0,0,0,,,,,,,BISHOP,C,z,m,./images/BISHOP.png,,,,,,,z,1,0.641,,,,,,,,0,18,18,133,1
,,,,,,,,,,,,,,,,,200653,20,2022-01-29_10h15.26.022,lexical_decision_task_DD_L3,2021.2.3,Win32,20.00080003,,,,,,,,,,,,0.692,1,,,,,,,,,,,,,,,,,,,,,,,,-0.408668731,0.489680083,0,0,0,,,,,,,CRUMB,HB,m,m,./images/CRUMBHB.png,,,,,,,m,1,0.692,,,,,,,,0,19,19,29,1
,,,,,,,,,,,,,,,,,200653,20,2022-01-29_10h15.26.022,lexical_decision_task_DD_L3,2021.2.3,Win32,20.00080003,,,,,,,,,,,,0.6,1,,,,,,,,,,,,,,,,,,,,,,,,-0.408668731,0.489680083,0,0,0,,,,,,,MELON,C,m,m,./images/MELON.png,,,,,,,m,1,0.6,,,,,,,,0,20,20,22,1
,,,,,,,,,,,,,,,,,200653,20,2022-01-29_10h15.26.022,lexical_decision_task_DD_L3,2021.2.3,Win32,20.00080003,,,,,,,,,,,,0.74,1,,,,,,,,,,,,,,,,,,,,,,,,-0.408668731,0.489680083,0,0,0,,,,,,,PISTOL,HB,z,m,./images/PISTOLHB.png,,,,,,,z,1,0.74,,,,,,,,0,21,21,113,1
,,,,,,,,,,,,,,,,,200653,20,2022-01-29_10h15.26.022,lexical_decision_task_DD_L3,2021.2.3,Win32,20.00080003,,,,,,,,,,,,0.815,1,,,,,,,,,,,,,,,,,,,,,,,,-0.408668731,0.489680083,0,0,0,,,,,,,LITTER,LB,m,m,./images/LITTERLB.png,,,,,,,m,1,0.815,,,,,,,,0,22,22,78,1
,,,,,,,,,,,,,,,,,200653,20,2022-01-29_10h15.26.022,lexical_decision_task_DD_L3,2021.2.3,Win32,20.00080003,,,,,,,,,,,,0.635,1,,,,,,,,,,,,,,,,,,,,,,,,-0.408668731,0.489680083,0,0,0,,,,,,,DOUGH,C,m,m,./images/DOUGH.png,,,,,,,m,1,0.635,,,,,,,,0,23,23,19,1
,,,,,,,,,,,,,,,,,200653,20,2022-01-29_10h15.26.022,lexical_decision_task_DD_L3,2021.2.3,Win32,20.00080003,,,,,,,,,,,,0.899,1,,,,,,,,,,,,,,,,,,,,,,,,-0.408668731,0.489680083,0,0,0,,,,,,,MIRROR,LB,m,m,./images/MIRRORLB.png,,,,,,,m,1,0.899,,,,,,,,0,24,24,63,1
,,,,,,,,,,,,,,,,,200653,20,2022-01-29_10h15.26.022,lexical_decision_task_DD_L3,2021.2.3,Win32,20.00080003,,,,,,,,,,,,0.681,1,,,,,,,,,,,,,,,,,,,,,,,,-0.408668731,0.489680083,0,0,0,,,,,,,MUSCLE,C,m,m,./images/MUSCLE.png,,,,,,,m,1,0.681,,,,,,,,0,25,25,4,1
,,,,,,,,,,,,,,,,,200653,20,2022-01-29_10h15.26.022,lexical_decision_task_DD_L3,2021.2.3,Win32,20.00080003,,,,,,,,,,,,0.629,1,,,,,,,,,,,,,,,,,,,,,,,,-0.408668731,0.489680083,0,0,0,,,,,,,WALRUS,HB,m,m,./images/WALRUSHB.png,,,,,,,m,1,0.629,,,,,,,,0,26,26,23,1
,,,,,,,,,,,,,,,,,200653,20,2022-01-29_10h15.26.022,lexical_decision_task_DD_L3,2021.2.3,Win32,20.00080003,,,,,,,,,,,,0.908,1,,,,,,,,,,,,,,,,,,,,,,,,-0.408668731,0.489680083,0,0,0,,,,,,,HOCKEY,HB,z,m,./images/HOCKEYHB.png,,,,,,,z,1,0.908,,,,,,,,0,27,27,116,1
,,,,,,,,,,,,,,,,,200653,20,2022-01-29_10h15.26.022,lexical_decision_task_DD_L3,2021.2.3,Win32,20.00080003,,,,,,,,,,,,3.822,1,,,,,,,,,,,,,,,,,,,,,,,,0.405572755,0.157378741,0,0,0,,,,,,,PEBBLE,C,z,m,./images/PEBBLE.png,,,,,,,z,1,3.822,0.408668731,0.157378741,1,0,0,3.502,,0,28,28,166,1
,,,,,,,,,,,,,,,,,200653,20,2022-01-29_10h15.26.022,lexical_decision_task_DD_L3,2021.2.3,Win32,20.00080003,,,,,,,,,,,,3.278,1,,,,,,,,,,,,,,,,,,,,,,,,-0.02373581,0.245098039,0,0,0,,,,,,,DRUMS,C,m,m,./images/DRUMS.png,,,,,,,m,1,3.278,-0.00619195,0.252321981,1,0,0,2.595,,0,29,29,49,1
,,,,,,,,,,,,,,,,,200653,20,2022-01-29_10h15.26.022,lexical_decision_task_DD_L3,2021.2.3,Win32,20.00080003,,,,,,,,,,,,0.667,1,,,,,,,,,,,,,,,,,,,,,,,,-0.02373581,0.245098039,0,0,0,,,,,,,QUILL,C,m,m,./images/QUILL.png,,,,,,,m,1,0.667,,,,,,,,0,30,30,31,1
,,,,,,,,,,,,,,,,,200653,20,2022-01-29_10h15.26.022,lexical_decision_task_DD_L3,2021.2.3,Win32,20.00080003,,,,,,,,,,,,0.54,0,,,,,,,,,,,,,,,,,,,,,,,,-0.02373581,0.245098039,0,0,0,,,,,,,BUBBLE,HB,z,m,./images/BUBBLEHB.png,,,,,,,m,0,0.54,,,,,,,,0,31,31,155,1
,,,,,,,,,,,,,,,,,200653,20,2022-01-29_10h15.26.022,lexical_decision_task_DD_L3,2021.2.3,Win32,20.00080003,,,,,,,,,,,,0.842,0,,,,,,,,,,,,,,,,,,,,,,,,-0.02373581,0.245098039,0,0,0,,,,,,,DESERT,C,z,m,./images/DESERT.png,,,,,,,m,0,0.842,,,,,,,,0,32,32,136,1
,,,,,,,,,,,,,,,,,200653,20,2022-01-29_10h15.26.022,lexical_decision_task_DD_L3,2021.2.3,Win32,20.00080003,,,,,,,,,,,,0.64,1,,,,,,,,,,,,,,,,,,,,,,,,-0.02373581,0.245098039,0,0,0,,,,,,,PAINT,C,m,m,./images/PAINT.png,,,,,,,m,1,0.64,,,,,,,,0,33,33,7,1
,,,,,,,,,,,,,,,,,200653,20,2022-01-29_10h15.26.022,lexical_decision_task_DD_L3,2021.2.3,Win32,20.00080003,,,,,,,,,,,,1.319,1,,,,,,,,,,,,,,,,,,,,,,,,-0.02373581,0.245098039,0,0,0,,,,,,,MUFFIN,C,m,m,./images/MUFFIN.png,,,,,,,m,1,1.319,,,,,,,,0,34,34,55,1
,,,,,,,,,,,,,,,,,200653,20,2022-01-29_10h15.26.022,lexical_decision_task_DD_L3,2021.2.3,Win32,20.00080003,,,,,,,,,,,,0.702,1,,,,,,,,,,,,,,,,,,,,,,,,-0.02373581,0.245098039,0,0,0,,,,,,,BLOKE,LB,z,m,./images/BLOKELB.png,,,,,,,z,1,0.702,,,,,,,,0,35,35,96,1
,,,,,,,,,,,,,,,,,200653,20,2022-01-29_10h15.26.022,lexical_decision_task_DD_L3,2021.2.3,Win32,20.00080003,,,,,,,,,,,,0.828,1,,,,,,,,,,,,,,,,,,,,,,,,-0.02373581,0.245098039,0,0,0,,,,,,,GRAPE,C,z,m,./images/GRAPE.png,,,,,,,z,1,0.828,,,,,,,,0,36,36,100,1
,,,,,,,,,,,,,,,,,200653,20,2022-01-29_10h15.26.022,lexical_decision_task_DD_L3,2021.2.3,Win32,20.00080003,,,,,,,,,,,,0.758,0,,,,,,,,,,,,,,,,,,,,,,,,-0.02373581,0.245098039,0,0,0,,,,,,,MUMMY,C,z,m,./images/MUMMY.png,,,,,,,m,0,0.758,,,,,,,,0,37,37,130,1
,,,,,,,,,,,,,,,,,200653,20,2022-01-29_10h15.26.022,lexical_decision_task_DD_L3,2021.2.3,Win32,20.00080003,,,,,,,,,,,,1.043,1,,,,,,,,,,,,,,,,,,,,,,,,-0.02373581,0.245098039,0,0,0,,,,,,,PARADE,HB,z,m,./images/PARADEHB.png,,,,,,,z,1,1.043,,,,,,,,0,38,38,101,1
,,,,,,,,,,,,,,,,,200653,20,2022-01-29_10h15.26.022,lexical_decision_task_DD_L3,2021.2.3,Win32,20.00080003,,,,,,,,,,,,0.757,1,,,,,,,,,,,,,,,,,,,,,,,,-0.02373581,0.245098039,0,0,0,,,,,,,TIGER,C,z,m,./images/TIGER.png,,,,,,,z,1,0.757,,,,,,,,0,39,39,121,1
,,,,,,,,,,,,,,,,,200653,20,2022-01-29_10h15.26.022,lexical_decision_task_DD_L3,2021.2.3,Win32,20.00080003,,,,,,,,,,,,0.86,1,,,,,,,,,,,,,,,,,,,,,,,,-0.02373581,0.245098039,0,0,0,,,,,,,TORCH,HB,m,m,./images/TORCHHB.png,,,,,,,m,1,0.86,,,,,,,,0,40,40,68,1
,,,,,,,,,,,,,,,,,200653,20,2022-01-29_10h15.26.022,lexical_decision_task_DD_L3,2021.2.3,Win32,20.00080003,,,,,,,,,,,,0.77,1,,,,,,,,,,,,,,,,,,,,,,,,-0.066047472,0.486584107,0,0,0,space,,,,,,JELLY,C,m,m,./images/JELLY.png,10.1,,,,,,m,1,0.77,,,,,,,,0,41,41,64,1
,,,,,,,,,,,,,,,,,200653,20,2022-01-29_10h15.26.022,lexical_decision_task_DD_L3,2021.2.3,Win32,20.00080003,,,,,,,,,,,,1.333,0,,,,,,,,,,,,,,,,,,,,,,,,-0.31372549,0.492776058,0,0,0,,,,,,,BANANA,C,z,m,./images/BANANA.png,,,,,,,m,0,1.333,,,,,,,,0,42,42,154,1
,,,,,,,,,,,,,,,,,200653,20,2022-01-29_10h15.26.022,lexical_decision_task_DD_L3,2021.2.3,Win32,20.00080003,,,,,,,,,,,,0.834,1,,,,,,,,,,,,,,,,,,,,,,,,-0.31372549,0.492776058,0,0,0,,,,,,,GREASE,LB,m,m,./images/GREASELB.png,,,,,,,m,1,0.834,,,,,,,,0,43,43,15,1
,,,,,,,,,,,,,,,,,200653,20,2022-01-29_10h15.26.022,lexical_decision_task_DD_L3,2021.2.3,Win32,20.00080003,,,,,,,,,,,,1.2,0,,,,,,,,,,,,,,,,,,,,,,,,-0.31372549,0.492776058,0,0,0,,,,,,,BUTTER,LB,z,m,./images/BUTTERLB.png,,,,,,,m,0,1.2,,,,,,,,0,44,44,111,1
,,,,,,,,,,,,,,,,,200653,20,2022-01-29_10h15.26.022,lexical_decision_task_DD_L3,2021.2.3,Win32,20.00080003,,,,,,,,,,,,0.63,1,,,,,,,,,,,,,,,,,,,,,,,,-0.31372549,0.492776058,0,0,0,,,,,,,CLOWN,C,z,m,./images/CLOWN.png,,,,,,,z,1,0.63,,,,,,,,0,45,45,106,1
,,,,,,,,,,,,,,,,,200653,20,2022-01-29_10h15.26.022,lexical_decision_task_DD_L3,2021.2.3,Win32,20.00080003,,,,,,,,,,,,0.726,1,,,,,,,,,,,,,,,,,,,,,,,,-0.31372549,0.492776058,0,0,0,,,,,,,STEAK,C,z,m,./images/STEAK.png,,,,,,,z,1,0.726,,,,,,,,0,46,46,115,1
,,,,,,,,,,,,,,,,,200653,20,2022-01-29_10h15.26.022,lexical_decision_task_DD_L3,2021.2.3,Win32,20.00080003,,,,,,,,,,,,0.728,1,,,,,,,,,,,,,,,,,,,,,,,,-0.31372549,0.492776058,0,0,0,,,,,,,TWINS,LB,m,m,./images/TWINSLB.png,,,,,,,m,1,0.728,,,,,,,,0,47,47,60,1
,,,,,,,,,,,,,,,,,200653,20,2022-01-29_10h15.26.022,lexical_decision_task_DD_L3,2021.2.3,Win32,20.00080003,,,,,,,,,,,,0.677,0,,,,,,,,,,,,,,,,,,,,,,,,-0.31372549,0.492776058,0,0,0,,,,,,,BROOM,LB,z,m,./images/BROOMLB.png,,,,,,,m,0,0.677,,,,,,,,0,48,48,162,1
,,,,,,,,,,,,,,,,,200653,20,2022-01-29_10h15.26.022,lexical_decision_task_DD_L3,2021.2.3,Win32,20.00080003,,,,,,,,,,,,0.747,1,,,,,,,,,,,,,,,,,,,,,,,,-0.31372549,0.492776058,0,0,0,,,,,,,PICKLE,HB,m,m,./images/PICKLEHB.png,,,,,,,m,1,0.747,,,,,,,,0,49,49,14,1
,,,,,,,,,,,,,,,,,200653,20,2022-01-29_10h15.26.022,lexical_decision_task_DD_L3,2021.2.3,Win32,20.00080003,,,,,,,,,,,,0.633,1,,,,,,,,,,,,,,,,,,,,,,,,-0.31372549,0.492776058,0,0,0,,,,,,,PARCEL,LB,z,m,./images/PARCELLB.png,,,,,,,z,1,0.633,,,,,,,,0,50,50,102,1
,,,,,,,,,,,,,,,,,200653,20,2022-01-29_10h15.26.022,lexical_decision_task_DD_L3,2021.2.3,Win32,20.00080003,,,,,,,,,,,,1.047,1,,,,,,,,,,,,,,,,,,,,,,,,-0.31372549,0.492776058,0,0,0,,,,,,,POKER,C,z,m,./images/POKER.png,,,,,,,z,1,1.047,,,,,,,,0,51,51,151,1
,,,,,,,,,,,,,,,,,200653,20,2022-01-29_10h15.26.022,lexical_decision_task_DD_L3,2021.2.3,Win32,20.00080003,,,,,,,,,,,,0.616,1,,,,,,,,,,,,,,,,,,,,,,,,-0.31372549,0.492776058,0,0,0,,,,,,,WHISKY,HB,z,m,./images/WHISKYHB.png,,,,,,,z,1,0.616,,,,,,,,0,52,52,167,1
,,,,,,,,,,,,,,,,,200653,20,2022-01-29_10h15.26.022,lexical_decision_task_DD_L3,2021.2.3,Win32,20.00080003,,,,,,,,,,,,0.755,1,,,,,,,,,,,,,,,,,,,,,,,,-0.31372549,0.492776058,0,0,0,,,,,,,SAUCE,LB,z,m,./images/SAUCELB.png,,,,,,,z,1,0.755,,,,,,,,0,53,53,135,1
,,,,,,,,,,,,,,,,,200653,20,2022-01-29_10h15.26.022,lexical_decision_task_DD_L3,2021.2.3,Win32,20.00080003,,,,,,,,,,,,0.806,0,,,,,,,,,,,,,,,,,,,,,,,,-0.31372549,0.492776058,0,0,0,,,,,,,URINE,C,m,m,./images/URINE.png,,,,,,,z,0,0.806,,,,,,,,0,54,54,70,1
,,,,,,,,,,,,,,,,,200653,20,2022-01-29_10h15.26.022,lexical_decision_task_DD_L3,2021.2.3,Win32,20.00080003,,,,,,,,,,,,0.956,1,,,,,,,,,,,,,,,,,,,,,,,,-0.31372549,0.492776058,0,0,0,,,,,,,BEARD,HB,m,m,./images/BEARDHB.png,,,,,,,m,1,0.956,,,,,,,,0,55,55,2,1
,,,,,,,,,,,,,,,,,200653,20,2022-01-29_10h15.26.022,lexical_decision_task_DD_L3,2021.2.3,Win32,20.00080003,,,,,,,,,,,,0.643,0,,,,,,,,,,,,,,,,,,,,,,,,-0.31372549,0.492776058,0,0,0,,,,,,,MOOSE,LB,m,m,./images/MOOSELB.png,,,,,,,z,0,0.643,,,,,,,,0,56,56,57,1
,,,,,,,,,,,,,,,,,200653,20,2022-01-29_10h15.26.022,lexical_decision_task_DD_L3,2021.2.3,Win32,20.00080003,,,,,,,,,,,,0.757,0,,,,,,,,,,,,,,,,,,,,,,,,-0.31372549,0.492776058,0,0,0,,,,,,,TOMATO,LB,m,m,./images/TOMATOLB.png,,,,,,,z,0,0.757,,,,,,,,0,57,57,0,1
,,,,,,,,,,,,,,,,,200653,20,2022-01-29_10h15.26.022,lexical_decision_task_DD_L3,2021.2.3,Win32,20.00080003,,,,,,,,,,,,0.65,1,,,,,,,,,,,,,,,,,,,,,,,,-0.31372549,0.492776058,0,0,0,,,,,,,BERRY,HB,m,m,./images/BERRYHB.png,,,,,,,m,1,0.65,,,,,,,,0,58,58,47,1
,,,,,,,,,,,,,,,,,200653,20,2022-01-29_10h15.26.022,lexical_decision_task_DD_L3,2021.2.3,Win32,20.00080003,,,,,,,,,,,,0.561,1,,,,,,,,,,,,,,,,,,,,,,,,-0.31372549,0.492776058,0,0,0,,,,,,,HAMMER,LB,z,m,./images/HAMMERLB.png,,,,,,,z,1,0.561,,,,,,,,0,59,59,159,1
,,,,,,,,,,,,,,,,,200653,20,2022-01-29_10h15.26.022,lexical_decision_task_DD_L3,2021.2.3,Win32,20.00080003,,,,,,,,,,,,0.656,0,,,,,,,,,,,,,,,,,,,,,,,,-0.31372549,0.492776058,0,0,0,,,,,,,CLOUD,HB,z,m,./images/CLOUDHB.png,,,,,,,m,0,0.656,,,,,,,,0,60,60,110,1
,,,,,,,,,,,,,,,,,200653,20,2022-01-29_10h15.26.022,lexical_decision_task_DD_L3,2021.2.3,Win32,20.00080003,,,,,,,,,,,,0.773,1,,,,,,,,,,,,,,,,,,,,,,,,-0.31372549,0.492776058,0,0,0,,,,,,,STREAM,HB,z,m,./images/STREAMHB.png,,,,,,,z,1,0.773,,,,,,,,0,61,61,125,1
,,,,,,,,,,,,,,,,,200653,20,2022-01-29_10h15.26.022,lexical_decision_task_DD_L3,2021.2.3,Win32,20.00080003,,,,,,,,,,,,0.743,1,,,,,,,,,,,,,,,,,,,,,,,,-0.31372549,0.492776058,0,0,0,,,,,,,PACKET,HB,m,m,./images/PACKETHB.png,,,,,,,m,1,0.743,,,,,,,,0,62,62,56,1
,,,,,,,,,,,,,,,,,200653,20,2022-01-29_10h15.26.022,lexical_decision_task_DD_L3,2021.2.3,Win32,20.00080003,,,,,,,,,,,,0.753,0,,,,,,,,,,,,,,,,,,,,,,,,-0.31372549,0.492776058,0,0,0,,,,,,,FINGER,LB,m,m,./images/FINGERLB.png,,,,,,,z,0,0.753,,,,,,,,0,63,63,3,1
,,,,,,,,,,,,,,,,,200653,20,2022-01-29_10h15.26.022,lexical_decision_task_DD_L3,2021.2.3,Win32,20.00080003,,,,,,,,,,,,0.625,0,,,,,,,,,,,,,,,,,,,,,,,,-0.31372549,0.492776058,0,0,0,,,,,,,CHERRY,LB,z,m,./images/CHERRYLB.png,,,,,,,m,0,0.625,,,,,,,,0,64,64,138,1
,,,,,,,,,,,,,,,,,200653,20,2022-01-29_10h15.26.022,lexical_decision_task_DD_L3,2021.2.3,Win32,20.00080003,,,,,,,,,,,,0.819,1,,,,,,,,,,,,,,,,,,,,,,,,-0.31372549,0.492776058,0,0,0,,,,,,,ARROW,LB,z,m,./images/ARROWLB.png,,,,,,,z,1,0.819,,,,,,,,0,65,65,153,1
,,,,,,,,,,,,,,,,,200653,20,2022-01-29_10h15.26.022,lexical_decision_task_DD_L3,2021.2.3,Win32,20.00080003,,,,,,,,,,,,0.67,0,,,,,,,,,,,,,,,,,,,,,,,,-0.31372549,0.492776058,0,0,0,,,,,,,FLASK,LB,z,m,./images/FLASKLB.png,,,,,,,m,0,0.67,,,,,,,,0,66,66,156,1
,,,,,,,,,,,,,,,,,200653,20,2022-01-29_10h15.26.022,lexical_decision_task_DD_L3,2021.2.3,Win32,20.00080003,,,,,,,,,,,,0.866,1,,,,,,,,,,,,,,,,,,,,,,,,-0.31372549,0.492776058,0,0,0,,,,,,,PURSE,HB,m,m,./images/PURSEHB.png,,,,,,,m,1,0.866,,,,,,,,0,67,67,62,1
,,,,,,,,,,,,,,,,,200653,20,2022-01-29_10h15.26.022,lexical_decision_task_DD_L3,2021.2.3,Win32,20.00080003,,,,,,,,,,,,0.751,1,,,,,,,,,,,,,,,,,,,,,,,,-0.31372549,0.492776058,0,0,0,,,,,,,CARPET,HB,m,m,./images/CARPETHB.png,,,,,,,m,1,0.751,,,,,,,,0,68,68,53,1
,,,,,,,,,,,,,,,,,200653,20,2022-01-29_10h15.26.022,lexical_decision_task_DD_L3,2021.2.3,Win32,20.00080003,,,,,,,,,,,,0.777,1,,,,,,,,,,,,,,,,,,,,,,,,-0.31372549,0.492776058,0,0,0,,,,,,,GARDEN,C,z,m,./images/GARDEN.png,,,,,,,z,1,0.777,,,,,,,,0,69,69,94,1
,,,,,,,,,,,,,,,,,200653,20,2022-01-29_10h15.26.022,lexical_decision_task_DD_L3,2021.2.3,Win32,20.00080003,,,,,,,,,,,,0.691,1,,,,,,,,,,,,,,,,,,,,,,,,-0.31372549,0.492776058,0,0,0,,,,,,,RULER,C,z,m,./images/RULER.png,,,,,,,z,1,0.691,,,,,,,,0,70,70,163,1
,,,,,,,,,,,,,,,,,200653,20,2022-01-29_10h15.26.022,lexical_decision_task_DD_L3,2021.2.3,Win32,20.00080003,,,,,,,,,,,,1.982,0,,,,,,,,,,,,,,,,,,,,,,,,-0.31372549,0.492776058,0,0,0,,,,,,,MAMMAL,HB,z,m,./images/MAMMALHB.png,,,,,,,m,0,1.982,,,,,,,,0,71,71,146,1
,,,,,,,,,,,,,,,,,200653,20,2022-01-29_10h15.26.022,lexical_decision_task_DD_L3,2021.2.3,Win32,20.00080003,,,,,,,,,,,,0.631,0,,,,,,,,,,,,,,,,,,,,,,,,-0.31372549,0.492776058,0,0,0,,,,,,,BOILER,LB,z,m,./images/BOILERLB.png,,,,,,,m,0,0.631,,,,,,,,0,72,72,120,1
,,,,,,,,,,,,,,,,,200653,20,2022-01-29_10h15.26.022,lexical_decision_task_DD_L3,2021.2.3,Win32,20.00080003,,,,,,,,,,,,0.626,1,,,,,,,,,,,,,,,,,,,,,,,,-0.31372549,0.492776058,0,0,0,,,,,,,CASINO,C,z,m,./images/CASINO.png,,,,,,,z,1,0.626,,,,,,,,0,73,73,112,1
,,,,,,,,,,,,,,,,,200653,20,2022-01-29_10h15.26.022,lexical_decision_task_DD_L3,2021.2.3,Win32,20.00080003,,,,,,,,,,,,0.756,1,,,,,,,,,,,,,,,,,,,,,,,,-0.31372549,0.492776058,0,0,0,,,,,,,TULIP,HB,m,m,./images/TULIPHB.png,,,,,,,m,1,0.756,,,,,,,,0,74,74,8,1
,,,,,,,,,,,,,,,,,200653,20,2022-01-29_10h15.26.022,lexical_decision_task_DD_L3,2021.2.3,Win32,20.00080003,,,,,,,,,,,,0.681,1,,,,,,,,,,,,,,,,,,,,,,,,-0.31372549,0.492776058,0,0,0,,,,,,,MALLET,HB,m,m,./images/MALLETHB.png,,,,,,,m,1,0.681,,,,,,,,0,75,75,50,1
,,,,,,,,,,,,,,,,,200653,20,2022-01-29_10h15.26.022,lexical_decision_task_DD_L3,2021.2.3,Win32,20.00080003,,,,,,,,,,,,1.791,1,,,,,,,,,,,,,,,,,,,,,,,,-0.31372549,0.492776058,0,0,0,,,,,,,FERRY,LB,z,m,./images/FERRYLB.png,,,,,,,z,1,1.791,,,,,,,,0,76,76,141,1
,,,,,,,,,,,,,,,,,200653,20,2022-01-29_10h15.26.022,lexical_decision_task_DD_L3,2021.2.3,Win32,20.00080003,,,,,,,,,,,,1.358,1,,,,,,,,,,,,,,,,,,,,,,,,-0.31372549,0.492776058,0,0,0,,,,,,,STATUE,LB,z,m,./images/STATUELB.png,,,,,,,z,1,1.358,,,,,,,,0,77,77,150,1
,,,,,,,,,,,,,,,,,200653,20,2022-01-29_10h15.26.022,lexical_decision_task_DD_L3,2021.2.3,Win32,20.00080003,,,,,,,,,,,,0.995,1,,,,,,,,,,,,,,,,,,,,,,,,-0.31372549,0.492776058,0,0,0,,,,,,,MAGGOT,LB,m,m,./images/MAGGOTLB.png,,,,,,,m,1,0.995,,,,,,,,0,78,78,33,1
,,,,,,,,,,,,,,,,,200653,20,2022-01-29_10h15.26.022,lexical_decision_task_DD_L3,2021.2.3,Win32,20.00080003,,,,,,,,,,,,0.844,0,,,,,,,,,,,,,,,,,,,,,,,,-0.31372549,0.492776058,0,0,0,,,,,,,BAKER,LB,z,m,./images/BAKERLB.png,,,,,,,m,0,0.844,,,,,,,,0,79,79,147,1
,,,,,,,,,,,,,,,,,200653,20,2022-01-29_10h15.26.022,lexical_decision_task_DD_L3,2021.2.3,Win32,20.00080003,,,,,,,,,,,,0.628,1,,,,,,,,,,,,,,,,,,,,,,,,-0.31372549,0.492776058,0,0,0,,,,,,,STORM,LB,m,m,./images/STORMLB.png,,,,,,,m,1,0.628,,,,,,,,0,80,80,30,1
,,,,,,,,,,,,,,,,,200653,20,2022-01-29_10h15.26.022,lexical_decision_task_DD_L3,2021.2.3,Win32,20.00080003,,,,,,,,,,,,1.433,1,,,,,,,,,,,,,,,,,,,,,,,,-0.31372549,0.492776058,0,0,0,,,,,,,PENCE,C,m,m,./images/PENCE.png,,,,,,,m,1,1.433,,,,,,,,0,81,81,16,1
,,,,,,,,,,,,,,,,,200653,20,2022-01-29_10h15.26.022,lexical_decision_task_DD_L3,2021.2.3,Win32,20.00080003,,,,,,,,,,,,1.547,1,,,,,,,,,,,,,,,,,,,,,,,,-0.31372549,0.492776058,0,0,0,,,,,,,GRAIN,LB,m,m,./images/GRAINLB.png,,,,,,,m,1,1.547,,,,,,,,0,82,82,75,1
,,,,,,,,,,,,,,,,,200653,20,2022-01-29_10h15.26.022,lexical_decision_task_DD_L3,2021.2.3,Win32,20.00080003,,,,,,,,,,,,0.629,0,,,,,,,,,,,,,,,,,,,,,,,,-0.31372549,0.492776058,0,0,0,space,,,,,,MONKEY,LB,z,m,./images/MONKEYLB.png,211.207,,,,,,m,0,0.629,,,,,,,,0,83,83,129,1
,,,,,,,,,,,,,,,,,200653,20,2022-01-29_10h15.26.022,lexical_decision_task_DD_L3,2021.2.3,Win32,20.00080003,,,,,,,,,,,,1.655,1,,,,,,,,,,,,,,,,,,,,,,,,-0.31372549,0.492776058,0,0,0,,,,,,,BURIAL,HB,m,m,./images/BURIALHB.png,,,,,,,m,1,1.655,,,,,,,,0,84,84,59,1
,,,,,,,,,,,,,,,,,200653,20,2022-01-29_10h15.26.022,lexical_decision_task_DD_L3,2021.2.3,Win32,20.00080003,,,,,,,,,,,,0.569,1,,,,,,,,,,,,,,,,,,,,,,,,-0.31372549,0.492776058,0,0,0,,,,,,,CRUST,C,m,m,./images/CRUST.png,,,,,,,m,1,0.569,,,,,,,,0,85,85,79,1
,,,,,,,,,,,,,,,,,200653,20,2022-01-29_10h15.26.022,lexical_decision_task_DD_L3,2021.2.3,Win32,20.00080003,,,,,,,,,,,,0.588,0,,,,,,,,,,,,,,,,,,,,,,,,-0.31372549,0.492776058,0,0,0,,,,,,,CANOE,C,z,m,./images/CANOE.png,,,,,,,m,0,0.588,,,,,,,,0,86,86,142,1
,,,,,,,,,,,,,,,,,200653,20,2022-01-29_10h15.26.022,lexical_decision_task_DD_L3,2021.2.3,Win32,20.00080003,,,,,,,,,,,,0.529,0,,,,,,,,,,,,,,,,,,,,,,,,-0.31372549,0.492776058,0,0,0,,,,,,,SPINE,HB,z,m,./images/SPINEHB.png,,,,,,,m,0,0.529,,,,,,,,0,87,87,149,1
,,,,,,,,,,,,,,,,,200653,20,2022-01-29_10h15.26.022,lexical_decision_task_DD_L3,2021.2.3,Win32,20.00080003,,,,,,,,,,,,0.627,1,,,,,,,,,,,,,,,,,,,,,,,,-0.31372549,0.492776058,0,0,0,,,,,,,SQUARE,LB,m,m,./images/SQUARELB.png,,,,,,,m,1,0.627,,,,,,,,0,88,88,6,1
,,,,,,,,,,,,,,,,,200653,20,2022-01-29_10h15.26.022,lexical_decision_task_DD_L3,2021.2.3,Win32,20.00080003,,,,,,,,,,,,0.585,1,,,,,,,,,,,,,,,,,,,,,,,,-0.31372549,0.492776058,0,0,0,,,,,,,POODLE,LB,m,m,./images/POODLELB.png,,,,,,,m,1,0.585,,,,,,,,0,89,89,81,1
,,,,,,,,,,,,,,,,,200653,20,2022-01-29_10h15.26.022,lexical_decision_task_DD_L3,2021.2.3,Win32,20.00080003,,,,,,,,,,,,0.63,0,,,,,,,,,,,,,,,,,,,,,,,,-0.31372549,0.492776058,0,0,0,,,,,,,RAZOR,C,z,m,./images/RAZOR.png,,,,,,,m,0,0.63,,,,,,,,0,90,90,118,1
,,,,,,,,,,,,,,,,,200653,20,2022-01-29_10h15.26.022,lexical_decision_task_DD_L3,2021.2.3,Win32,20.00080003,,,,,,,,,,,,0.638,1,,,,,,,,,,,,,,,,,,,,,,,,-0.31372549,0.492776058,0,0,0,,,,,,,SUNSET,C,m,m,./images/SUNSET.png,,,,,,,m,1,0.638,,,,,,,,0,91,91,82,1
,,,,,,,,,,,,,,,,,200653,20,2022-01-29_10h15.26.022,lexical_decision_task_DD_L3,2021.2.3,Win32,20.00080003,,,,,,,,,,,,0.643,1,,,,,,,,,,,,,,,,,,,,,,,,-0.31372549,0.492776058,0,0,0,,,,,,,CANDLE,C,m,m,./images/CANDLE.png,,,,,,,m,1,0.643,,,,,,,,0,92,92,61,1
,,,,,,,,,,,,,,,,,200653,20,2022-01-29_10h15.26.022,lexical_decision_task_DD_L3,2021.2.3,Win32,20.00080003,,,,,,,,,,,,0.792,1,,,,,,,,,,,,,,,,,,,,,,,,-0.31372549,0.492776058,0,0,0,,,,,,,SWING,C,m,m,./images/SWING.png,,,,,,,m,1,0.792,,,,,,,,0,93,93,40,1
,,,,,,,,,,,,,,,,,200653,20,2022-01-29_10h15.26.022,lexical_decision_task_DD_L3,2021.2.3,Win32,20.00080003,,,,,,,,,,,,1.011,1,,,,,,,,,,,,,,,,,,,,,,,,-0.31372549,0.492776058,0,0,0,,,,,,,COUCH,HB,m,m,./images/COUCHHB.png,,,,,,,m,1,1.011,,,,,,,,0,94,94,77,1
,,,,,,,,,,,,,,,,,200653,20,2022-01-29_10h15.26.022,lexical_decision_task_DD_L3,2021.2.3,Win32,20.00080003,,,,,,,,,,,,1.3,0,,,,,,,,,,,,,,,,,,,,,,,,-0.31372549,0.492776058,0,0,0,,,,,,,STAIN,LB,z,m,./images/STAINLB.png,,,,,,,m,0,1.3,,,,,,,,0,95,95,90,1
,,,,,,,,,,,,,,,,,200653,20,2022-01-29_10h15.26.022,lexical_decision_task_DD_L3,2021.2.3,Win32,20.00080003,,,,,,,,,,,,0.66,1,,,,,,,,,,,,,,,,,,,,,,,,-0.31372549,0.492776058,0,0,0,,,,,,,THROAT,LB,m,m,./images/THROATLB.png,,,,,,,m,1,0.66,,,,,,,,0,96,96,36,1
,,,,,,,,,,,,,,,,,200653,20,2022-01-29_10h15.26.022,lexical_decision_task_DD_L3,2021.2.3,Win32,20.00080003,,,,,,,,,,,,0.567,1,,,,,,,,,,,,,,,,,,,,,,,,-0.31372549,0.492776058,0,0,0,,,,,,,JUNGLE,HB,m,m,./images/JUNGLEHB.png,,,,,,,m,1,0.567,,,,,,,,0,97,97,83,1
,,,,,,,,,,,,,,,,,200653,20,2022-01-29_10h15.26.022,lexical_decision_task_DD_L3,2021.2.3,Win32,20.00080003,,,,,,,,,,,,0.773,1,,,,,,,,,,,,,,,,,,,,,,,,-0.31372549,0.492776058,0,0,0,,,,,,,KITTEN,LB,m,m,./images/KITTENLB.png,,,,,,,m,1,0.773,,,,,,,,0,98,98,45,1
,,,,,,,,,,,,,,,,,200653,20,2022-01-29_10h15.26.022,lexical_decision_task_DD_L3,2021.2.3,Win32,20.00080003,,,,,,,,,,,,0.739,0,,,,,,,,,,,,,,,,,,,,,,,,-0.31372549,0.492776058,0,0,0,,,,,,,PASTA,HB,m,m,./images/PASTAHB.png,,,,,,,z,0,0.739,,,,,,,,0,99,99,5,1
,,,,,,,,,,,,,,,,,200653,20,2022-01-29_10h15.26.022,lexical_decision_task_DD_L3,2021.2.3,Win32,20.00080003,,,,,,,,,,,,0.737,1,,,,,,,,,,,,,,,,,,,,,,,,-0.31372549,0.492776058,0,0,0,,,,,,,CEMENT,HB,m,m,./images/CEMENTHB.png,,,,,,,m,1,0.737,,,,,,,,0,100,100,74,1
,,,,,,,,,,,,,,,,,200653,20,2022-01-29_10h15.26.022,lexical_decision_task_DD_L3,2021.2.3,Win32,20.00080003,,,,,,,,,,,,0.691,1,,,,,,,,,,,,,,,,,,,,,,,,-0.31372549,0.492776058,0,0,0,,,,,,,BANNER,C,m,m,./images/BANNER.png,,,,,,,m,1,0.691,,,,,,,,0,101,101,52,1
,,,,,,,,,,,,,,,,,200653,20,2022-01-29_10h15.26.022,lexical_decision_task_DD_L3,2021.2.3,Win32,20.00080003,,,,,,,,,,,,0.83,0,,,,,,,,,,,,,,,,,,,,,,,,-0.31372549,0.492776058,0,0,0,,,,,,,WALNUT,LB,z,m,./images/WALNUTLB.png,,,,,,,m,0,0.83,,,,,,,,0,102,102,84,1
,,,,,,,,,,,,,,,,,200653,20,2022-01-29_10h15.26.022,lexical_decision_task_DD_L3,2021.2.3,Win32,20.00080003,,,,,,,,,,,,0.786,1,,,,,,,,,,,,,,,,,,,,,,,,-0.31372549,0.492776058,0,0,0,,,,,,,MOSQUE,C,m,m,./images/MOSQUE.png,,,,,,,m,1,0.786,,,,,,,,0,103,103,43,1
,,,,,,,,,,,,,,,,,200653,20,2022-01-29_10h15.26.022,lexical_decision_task_DD_L3,2021.2.3,Win32,20.00080003,,,,,,,,,,,,0.739,1,,,,,,,,,,,,,,,,,,,,,,,,-0.31372549,0.492776058,0,0,0,,,,,,,ONION,LB,m,m,./images/ONIONLB.png,,,,,,,m,1,0.739,,,,,,,,0,104,104,51,1
,,,,,,,,,,,,,,,,,200653,20,2022-01-29_10h15.26.022,lexical_decision_task_DD_L3,2021.2.3,Win32,20.00080003,,,,,,,,,,,,0.697,0,,,,,,,,,,,,,,,,,,,,,,,,-0.31372549,0.492776058,0,0,0,,,,,,,COOKER,LB,m,m,./images/COOKERLB.png,,,,,,,z,0,0.697,,,,,,,,0,105,105,69,1
,,,,,,,,,,,,,,,,,200653,20,2022-01-29_10h15.26.022,lexical_decision_task_DD_L3,2021.2.3,Win32,20.00080003,,,,,,,,,,,,0.653,1,,,,,,,,,,,,,,,,,,,,,,,,-0.31372549,0.492776058,0,0,0,,,,,,,CANDY,LB,z,m,./images/CANDYLB.png,,,,,,,z,1,0.653,,,,,,,,0,106,106,123,1
,,,,,,,,,,,,,,,,,200653,20,2022-01-29_10h15.26.022,lexical_decision_task_DD_L3,2021.2.3,Win32,20.00080003,,,,,,,,,,,,0.662,0,,,,,,,,,,,,,,,,,,,,,,,,-0.31372549,0.492776058,0,0,0,,,,,,,SLOPE,LB,z,m,./images/SLOPELB.png,,,,,,,m,0,0.662,,,,,,,,0,107,107,114,1
,,,,,,,,,,,,,,,,,200653,20,2022-01-29_10h15.26.022,lexical_decision_task_DD_L3,2021.2.3,Win32,20.00080003,,,,,,,,,,,,0.698,1,,,,,,,,,,,,,,,,,,,,,,,,-0.31372549,0.492776058,0,0,0,,,,,,,ALLEY,C,z,m,./images/ALLEY.png,,,,,,,z,1,0.698,,,,,,,,0,108,108,139,1
,,,,,,,,,,,,,,,,,200653,20,2022-01-29_10h15.26.022,lexical_decision_task_DD_L3,2021.2.3,Win32,20.00080003,,,,,,,,,,,,0.74,1,,,,,,,,,,,,,,,,,,,,,,,,-0.31372549,0.492776058,0,0,0,,,,,,,LLAMA,HB,z,m,./images/LLAMAHB.png,,,,,,,z,1,0.74,,,,,,,,0,109,109,119,1
,,,,,,,,,,,,,,,,,200653,20,2022-01-29_10h15.26.022,lexical_decision_task_DD_L3,2021.2.3,Win32,20.00080003,,,,,,,,,,,,0.766,1,,,,,,,,,,,,,,,,,,,,,,,,-0.31372549,0.492776058,0,0,0,,,,,,,HEATER,HB,z,m,./images/HEATERHB.png,,,,,,,z,1,0.766,,,,,,,,0,110,110,140,1
,,,,,,,,,,,,,,,,,200653,20,2022-01-29_10h15.26.022,lexical_decision_task_DD_L3,2021.2.3,Win32,20.00080003,,,,,,,,,,,,0.708,1,,,,,,,,,,,,,,,,,,,,,,,,-0.31372549,0.492776058,0,0,0,,,,,,,RHINO,LB,m,m,./images/RHINOLB.png,,,,,,,m,1,0.708,,,,,,,,0,111,111,9,1
,,,,,,,,,,,,,,,,,200653,20,2022-01-29_10h15.26.022,lexical_decision_task_DD_L3,2021.2.3,Win32,20.00080003,,,,,,,,,,,,0.838,0,,,,,,,,,,,,,,,,,,,,,,,,-0.31372549,0.492776058,0,0,0,,,,,,,FLESH,LB,z,m,./images/FLESHLB.png,,,,,,,m,0,0.838,,,,,,,,0,112,112,108,1
,,,,,,,,,,,,,,,,,200653,20,2022-01-29_10h15.26.022,lexical_decision_task_DD_L3,2021.2.3,Win32,20.00080003,,,,,,,,,,,,0.618,1,,,,,,,,,,,,,,,,,,,,,,,,-0.31372549,0.492776058,0,0,0,,,,,,,SCREW,LB,m,m,./images/SCREWLB.png,,,,,,,m,1,0.618,,,,,,,,0,113,113,24,1
,,,,,,,,,,,,,,,,,200653,20,2022-01-29_10h15.26.022,lexical_decision_task_DD_L3,2021.2.3,Win32,20.00080003,,,,,,,,,,,,0.644,1,,,,,,,,,,,,,,,,,,,,,,,,-0.31372549,0.492776058,0,0,0,,,,,,,LIZARD,HB,m,m,./images/LIZARDHB.png,,,,,,,m,1,0.644,,,,,,,,0,114,114,44,1
,,,,,,,,,,,,,,,,,200653,20,2022-01-29_10h15.26.022,lexical_decision_task_DD_L3,2021.2.3,Win32,20.00080003,,,,,,,,,,,,0.636,0,,,,,,,,,,,,,,,,,,,,,,,,-0.31372549,0.492776058,0,0,0,,,,,,,SNAKE,C,z,m,./images/SNAKE.png,,,,,,,m,0,0.636,,,,,,,,0,115,115,124,1
,,,,,,,,,,,,,,,,,200653,20,2022-01-29_10h15.26.022,lexical_decision_task_DD_L3,2021.2.3,Win32,20.00080003,,,,,,,,,,,,0.741,1,,,,,,,,,,,,,,,,,,,,,,,,-0.31372549,0.492776058,0,0,0,,,,,,,DANCER,LB,z,m,./images/DANCERLB.png,,,,,,,z,1,0.741,,,,,,,,0,116,116,105,1
,,,,,,,,,,,,,,,,,200653,20,2022-01-29_10h15.26.022,lexical_decision_task_DD_L3,2021.2.3,Win32,20.00080003,,,,,,,,,,,,0.684,1,,,,,,,,,,,,,,,,,,,,,,,,-0.31372549,0.492776058,0,0,0,,,,,,,WRIST,C,m,m,./images/WRIST.png,,,,,,,m,1,0.684,,,,,,,,0,117,117,25,1
,,,,,,,,,,,,,,,,,200653,20,2022-01-29_10h15.26.022,lexical_decision_task_DD_L3,2021.2.3,Win32,20.00080003,,,,,,,,,,,,1.048,1,,,,,,,,,,,,,,,,,,,,,,,,-0.31372549,0.492776058,0,0,0,,,,,,,ENGINE,HB,z,m,./images/ENGINEHB.png,,,,,,,z,1,1.048,,,,,,,,0,118,118,122,1
,,,,,,,,,,,,,,,,,200653,20,2022-01-29_10h15.26.022,lexical_decision_task_DD_L3,2021.2.3,Win32,20.00080003,,,,,,,,,,,,0.655,1,,,,,,,,,,,,,,,,,,,,,,,,-0.31372549,0.492776058,0,0,0,,,,,,,SMOKER,HB,m,m,./images/SMOKERHB.png,,,,,,,m,1,0.655,,,,,,,,0,119,119,26,1
,,,,,,,,,,,,,,,,,200653,20,2022-01-29_10h15.26.022,lexical_decision_task_DD_L3,2021.2.3,Win32,20.00080003,,,,,,,,,,,,0.829,1,,,,,,,,,,,,,,,,,,,,,,,,-0.31372549,0.492776058,0,0,0,,,,,,,LADDER,HB,m,m,./images/LADDERHB.png,,,,,,,m,1,0.829,,,,,,,,0,120,120,38,1
,,,,,,,,,,,,,,,,,200653,20,2022-01-29_10h15.26.022,lexical_decision_task_DD_L3,2021.2.3,Win32,20.00080003,,,,,,,,,,,,1.217,0,,,,,,,,,,,,,,,,,,,,,,,,-0.31372549,0.492776058,0,0,0,,,,,,,GLOVE,C,z,m,./images/GLOVE.png,,,,,,,m,0,1.217,,,,,,,,0,121,121,157,1
,,,,,,,,,,,,,,,,,200653,20,2022-01-29_10h15.26.022,lexical_decision_task_DD_L3,2021.2.3,Win32,20.00080003,,,,,,,,,,,,0.736,0,,,,,,,,,,,,,,,,,,,,,,,,-0.31372549,0.492776058,0,0,0,,,,,,,CHAIN,LB,z,m,./images/CHAINLB.png,,,,,,,m,0,0.736,,,,,,,,0,122,122,126,1
,,,,,,,,,,,,,,,,,200653,20,2022-01-29_10h15.26.022,lexical_decision_task_DD_L3,2021.2.3,Win32,20.00080003,,,,,,,,,,,,1.385,1,,,,,,,,,,,,,,,,,,,,,,,,-0.31372549,0.492776058,0,0,0,,,,,,,FARMER,HB,m,m,./images/FARMERHB.png,,,,,,,m,1,1.385,,,,,,,,0,123,123,65,1
,,,,,,,,,,,,,,,,,200653,20,2022-01-29_10h15.26.022,lexical_decision_task_DD_L3,2021.2.3,Win32,20.00080003,,,,,,,,,,,,0.936,1,,,,,,,,,,,,,,,,,,,,,,,,-0.31372549,0.492776058,0,0,0,,,,,,,BABOON,C,m,m,./images/BABOON.png,,,,,,,m,1,0.936,,,,,,,,0,124,124,58,1
,,,,,,,,,,,,,,,,,200653,20,2022-01-29_10h15.26.022,lexical_decision_task_DD_L3,2021.2.3,Win32,20.00080003,,,,,,,,,,,,0.628,0,,,,,,,,,,,,,,,,,,,,,,,,-0.31372549,0.492776058,0,0,0,space,,,,,,TOWEL,C,z,m,./images/TOWEL.png,69.882,,,,,,m,0,0.628,,,,,,,,0,125,125,85,1
,,,,,,,,,,,,,,,,,200653,20,2022-01-29_10h15.26.022,lexical_decision_task_DD_L3,2021.2.3,Win32,20.00080003,,,,,,,,,,,,0.999,0,,,,,,,,,,,,,,,,,,,,,,,,-0.31372549,0.492776058,0,0,0,,,,,,,FENCE,HB,z,m,./images/FENCEHB.png,,,,,,,m,0,0.999,,,,,,,,0,126,126,98,1
,,,,,,,,,,,,,,,,,200653,20,2022-01-29_10h15.26.022,lexical_decision_task_DD_L3,2021.2.3,Win32,20.00080003,,,,,,,,,,,,0.645,1,,,,,,,,,,,,,,,,,,,,,,,,-0.31372549,0.492776058,0,0,0,,,,,,,SNACK,C,m,m,./images/SNACK.png,,,,,,,m,1,0.645,,,,,,,,0,127,127,73,1
,,,,,,,,,,,,,,,,,200653,20,2022-01-29_10h15.26.022,lexical_decision_task_DD_L3,2021.2.3,Win32,20.00080003,,,,,,,,,,,,0.76,1,,,,,,,,,,,,,,,,,,,,,,,,-0.31372549,0.492776058,0,0,0,,,,,,,PLANET,HB,z,m,./images/PLANETHB.png,,,,,,,z,1,0.76,,,,,,,,0,128,128,164,1
,,,,,,,,,,,,,,,,,200653,20,2022-01-29_10h15.26.022,lexical_decision_task_DD_L3,2021.2.3,Win32,20.00080003,,,,,,,,,,,,0.628,0,,,,,,,,,,,,,,,,,,,,,,,,-0.31372549,0.492776058,0,0,0,,,,,,,STOOL,C,z,m,./images/STOOL.png,,,,,,,m,0,0.628,,,,,,,,0,129,129,127,1
,,,,,,,,,,,,,,,,,200653,20,2022-01-29_10h15.26.022,lexical_decision_task_DD_L3,2021.2.3,Win32,20.00080003,,,,,,,,,,,,0.704,1,,,,,,,,,,,,,,,,,,,,,,,,-0.31372549,0.492776058,0,0,0,,,,,,,BOXER,C,z,m,./images/BOXER.png,,,,,,,z,1,0.704,,,,,,,,0,130,130,88,1
,,,,,,,,,,,,,,,,,200653,20,2022-01-29_10h15.26.022,lexical_decision_task_DD_L3,2021.2.3,Win32,20.00080003,,,,,,,,,,,,0.757,1,,,,,,,,,,,,,,,,,,,,,,,,-0.31372549,0.492776058,0,0,0,,,,,,,STRING,HB,m,m,./images/STRINGHB.png,,,,,,,m,1,0.757,,,,,,,,0,131,131,41,1
,,,,,,,,,,,,,,,,,200653,20,2022-01-29_10h15.26.022,lexical_decision_task_DD_L3,2021.2.3,Win32,20.00080003,,,,,,,,,,,,0.665,1,,,,,,,,,,,,,,,,,,,,,,,,-0.31372549,0.492776058,0,0,0,,,,,,,CRADLE,HB,m,m,./images/CRADLEHB.png,,,,,,,m,1,0.665,,,,,,,,0,132,132,20,1
,,,,,,,,,,,,,,,,,200653,20,2022-01-29_10h15.26.022,lexical_decision_task_DD_L3,2021.2.3,Win32,20.00080003,,,,,,,,,,,,0.825,1,,,,,,,,,,,,,,,,,,,,,,,,-0.31372549,0.492776058,0,0,0,,,,,,,SKIING,HB,m,m,./images/SKIINGHB.png,,,,,,,m,1,0.825,,,,,,,,0,133,133,17,1
,,,,,,,,,,,,,,,,,200653,20,2022-01-29_10h15.26.022,lexical_decision_task_DD_L3,2021.2.3,Win32,20.00080003,,,,,,,,,,,,0.583,1,,,,,,,,,,,,,,,,,,,,,,,,-0.31372549,0.492776058,0,0,0,,,,,,,DONKEY,C,z,m,./images/DONKEY.png,,,,,,,z,1,0.583,,,,,,,,0,134,134,103,1
,,,,,,,,,,,,,,,,,200653,20,2022-01-29_10h15.26.022,lexical_decision_task_DD_L3,2021.2.3,Win32,20.00080003,,,,,,,,,,,,0.748,1,,,,,,,,,,,,,,,,,,,,,,,,-0.31372549,0.492776058,0,0,0,,,,,,,POSTER,HB,z,m,./images/POSTERHB.png,,,,,,,z,1,0.748,,,,,,,,0,135,135,137,1
,,,,,,,,,,,,,,,,,200653,20,2022-01-29_10h15.26.022,lexical_decision_task_DD_L3,2021.2.3,Win32,20.00080003,,,,,,,,,,,,0.655,0,,,,,,,,,,,,,,,,,,,,,,,,-0.31372549,0.492776058,0,0,0,,,,,,,CLIFF,HB,z,m,./images/CLIFFHB.png,,,,,,,m,0,0.655,,,,,,,,0,136,136,92,1
,,,,,,,,,,,,,,,,,200653,20,2022-01-29_10h15.26.022,lexical_decision_task_DD_L3,2021.2.3,Win32,20.00080003,,,,,,,,,,,,0.946,1,,,,,,,,,,,,,,,,,,,,,,,,-0.31372549,0.492776058,0,0,0,,,,,,,DRILL,LB,z,m,./images/DRILLLB.png,,,,,,,z,1,0.946,,,,,,,,0,137,137,165,1
,,,,,,,,,,,,,,,,,200653,20,2022-01-29_10h15.26.022,lexical_decision_task_DD_L3,2021.2.3,Win32,20.00080003,,,,,,,,,,,,0.622,0,,,,,,,,,,,,,,,,,,,,,,,,-0.31372549,0.492776058,0,0,0,,,,,,,BUNNY,C,z,m,./images/BUNNY.png,,,,,,,m,0,0.622,,,,,,,,0,138,138,97,1
,,,,,,,,,,,,,,,,,200653,20,2022-01-29_10h15.26.022,lexical_decision_task_DD_L3,2021.2.3,Win32,20.00080003,,,,,,,,,,,,0.881,1,,,,,,,,,,,,,,,,,,,,,,,,-0.31372549,0.492776058,0,0,0,,,,,,,CLOTH,HB,z,m,./images/CLOTHHB.png,,,,,,,z,1,0.881,,,,,,,,0,139,139,107,1
,,,,,,,,,,,,,,,,,200653,20,2022-01-29_10h15.26.022,lexical_decision_task_DD_L3,2021.2.3,Win32,20.00080003,,,,,,,,,,,,0.593,1,,,,,,,,,,,,,,,,,,,,,,,,-0.31372549,0.492776058,0,0,0,,,,,,,SWEAT,LB,m,m,./images/SWEATLB.png,,,,,,,m,1,0.593,,,,,,,,0,140,140,66,1
,,,,,,,,,,,,,,,,,200653,20,2022-01-29_10h15.26.022,lexical_decision_task_DD_L3,2021.2.3,Win32,20.00080003,,,,,,,,,,,,0.585,0,,,,,,,,,,,,,,,,,,,,,,,,-0.31372549,0.492776058,0,0,0,,,,,,,BASKET,HB,z,m,./images/BASKETHB.png,,,,,,,m,0,0.585,,,,,,,,0,141,141,128,1
,,,,,,,,,,,,,,,,,200653,20,2022-01-29_10h15.26.022,lexical_decision_task_DD_L3,2021.2.3,Win32,20.00080003,,,,,,,,,,,,0.683,1,,,,,,,,,,,,,,,,,,,,,,,,-0.31372549,0.492776058,0,0,0,,,,,,,CHALK,C,z,m,./images/CHALK.png,,,,,,,z,1,0.683,,,,,,,,0,142,142,109,1
,,,,,,,,,,,,,,,,,200653,20,2022-01-29_10h15.26.022,lexical_decision_task_DD_L3,2021.2.3,Win32,20.00080003,,,,,,,,,,,,1.014,1,,,,,,,,,,,,,,,,,,,,,,,,-0.31372549,0.492776058,0,0,0,,,,,,,WEASEL,HB,m,m,./images/WEASELHB.png,,,,,,,m,1,1.014,,,,,,,,0,143,143,80,1
,,,,,,,,,,,,,,,,,200653,20,2022-01-29_10h15.26.022,lexical_decision_task_DD_L3,2021.2.3,Win32,20.00080003,,,,,,,,,,,,0.742,0,,,,,,,,,,,,,,,,,,,,,,,,-0.31372549,0.492776058,0,0,0,,,,,,,SHIELD,LB,z,m,./images/SHIELDLB.png,,,,,,,m,0,0.742,,,,,,,,0,144,144,132,1
,,,,,,,,,,,,,,,,,200653,20,2022-01-29_10h15.26.022,lexical_decision_task_DD_L3,2021.2.3,Win32,20.00080003,,,,,,,,,,,,0.8,1,,,,,,,,,,,,,,,,,,,,,,,,-0.31372549,0.492776058,0,0,0,,,,,,,CRATER,LB,z,m,./images/CRATERLB.png,,,,,,,z,1,0.8,,,,,,,,0,145,145,87,1
,,,,,,,,,,,,,,,,,200653,20,2022-01-29_10h15.26.022,lexical_decision_task_DD_L3,2021.2.3,Win32,20.00080003,,,,,,,,,,,,0.664,1,,,,,,,,,,,,,,,,,,,,,,,,-0.31372549,0.492776058,0,0,0,,,,,,,ATTIC,LB,m,m,./images/ATTICLB.png,,,,,,,m,1,0.664,,,,,,,,0,146,146,27,1
,,,,,,,,,,,,,,,,,200653,20,2022-01-29_10h15.26.022,lexical_decision_task_DD_L3,2021.2.3,Win32,20.00080003,,,,,,,,,,,,0.953,0,,,,,,,,,,,,,,,,,,,,,,,,-0.31372549,0.492776058,0,0,0,,,,,,,BRIDE,C,z,m,./images/BRIDE.png,,,,,,,m,0,0.953,,,,,,,,0,147,147,148,1
,,,,,,,,,,,,,,,,,200653,20,2022-01-29_10h15.26.022,lexical_decision_task_DD_L3,2021.2.3,Win32,20.00080003,,,,,,,,,,,,1.618,0,,,,,,,,,,,,,,,,,,,,,,,,-0.31372549,0.492776058,0,0,0,,,,,,,KIDNEY,LB,m,m,./images/KIDNEYLB.png,,,,,,,z,0,1.618,,,,,,,,0,148,148,21,1
,,,,,,,,,,,,,,,,,200653,20,2022-01-29_10h15.26.022,lexical_decision_task_DD_L3,2021.2.3,Win32,20.00080003,,,,,,,,,,,,0.786,0,,,,,,,,,,,,,,,,,,,,,,,,-0.31372549,0.492776058,0,0,0,,,,,,,BRUSH,HB,z,m,./images/BRUSHHB.png,,,,,,,m,0,0.786,,,,,,,,0,149,149,143,1
,,,,,,,,,,,,,,,,,200653,20,2022-01-29_10h15.26.022,lexical_decision_task_DD_L3,2021.2.3,Win32,20.00080003,,,,,,,,,,,,1.012,1,,,,,,,,,,,,,,,,,,,,,,,,-0.31372549,0.492776058,0,0,0,,,,,,,JUMPER,HB,z,m,./images/JUMPERHB.png,,,,,,,z,1,1.012,,,,,,,,0,150,150,158,1
,,,,,,,,,,,,,,,,,200653,20,2022-01-29_10h15.26.022,lexical_decision_task_DD_L3,2021.2.3,Win32,20.00080003,,,,,,,,,,,,5.057,0,,,,,,,,,,,,,,,,,,,,,,,,-0.31372549,0.492776058,0,0,0,,,,,,,CANYON,C,m,m,./images/CANYON.png,,,,,,,z,0,5.057,,,,,,,,0,151,151,34,1
,,,,,,,,,,,,,,,,,200653,20,2022-01-29_10h15.26.022,lexical_decision_task_DD_L3,2021.2.3,Win32,20.00080003,,,,,,,,,,,,1.158,1,,,,,,,,,,,,,,,,,,,,,,,,-0.31372549,0.492776058,0,0,0,,,,,,,JAGUAR,LB,m,m,./images/JAGUARLB.png,,,,,,,m,1,1.158,,,,,,,,0,152,152,18,1
,,,,,,,,,,,,,,,,,200653,20,2022-01-29_10h15.26.022,lexical_decision_task_DD_L3,2021.2.3,Win32,20.00080003,,,,,,,,,,,,2.561,0,,,,,,,,,,,,,,,,,,,,,,,,-0.31372549,0.492776058,0,0,0,,,,,,,VALLEY,HB,z,m,./images/VALLEYHB.png,,,,,,,m,0,2.561,,,,,,,,0,153,153,152,1
,,,,,,,,,,,,,,,,,200653,20,2022-01-29_10h15.26.022,lexical_decision_task_DD_L3,2021.2.3,Win32,20.00080003,,,,,,,,,,,,0.666,0,,,,,,,,,,,,,,,,,,,,,,,,-0.31372549,0.492776058,0,0,0,,,,,,,SAILOR,C,m,m,./images/SAILOR.png,,,,,,,z,0,0.666,,,,,,,,0,154,154,67,1
,,,,,,,,,,,,,,,,,200653,20,2022-01-29_10h15.26.022,lexical_decision_task_DD_L3,2021.2.3,Win32,20.00080003,,,,,,,,,,,,0.867,1,,,,,,,,,,,,,,,,,,,,,,,,-0.31372549,0.492776058,0,0,0,,,,,,,SAUNA,LB,z,m,./images/SAUNALB.png,,,,,,,z,1,0.867,,,,,,,,0,155,155,117,1
,,,,,,,,,,,,,,,,,200653,20,2022-01-29_10h15.26.022,lexical_decision_task_DD_L3,2021.2.3,Win32,20.00080003,,,,,,,,,,,,1.14,0,,,,,,,,,,,,,,,,,,,,,,,,-0.31372549,0.492776058,0,0,0,,,,,,,PIMPLE,HB,m,m,./images/PIMPLEHB.png,,,,,,,z,0,1.14,,,,,,,,0,156,156,71,1
,,,,,,,,,,,,,,,,,200653,20,2022-01-29_10h15.26.022,lexical_decision_task_DD_L3,2021.2.3,Win32,20.00080003,,,,,,,,,,,,0.621,1,,,,,,,,,,,,,,,,,,,,,,,,-0.31372549,0.492776058,0,0,0,,,,,,,PEARL,C,m,m,./images/PEARL.png,,,,,,,m,1,0.621,,,,,,,,0,157,157,46,1
,,,,,,,,,,,,,,,,,200653,20,2022-01-29_10h15.26.022,lexical_decision_task_DD_L3,2021.2.3,Win32,20.00080003,,,,,,,,,,,,1.584,1,,,,,,,,,,,,,,,,,,,,,,,,-0.31372549,0.492776058,0,0,0,,,,,,,BIRTH,C,m,m,./images/BIRTH.png,,,,,,,m,1,1.584,,,,,,,,0,158,158,37,1
,,,,,,,,,,,,,,,,,200653,20,2022-01-29_10h15.26.022,lexical_decision_task_DD_L3,2021.2.3,Win32,20.00080003,,,,,,,,,,,,0.815,1,,,,,,,,,,,,,,,,,,,,,,,,-0.31372549,0.492776058,0,0,0,,,,,,,NOOSE,LB,m,m,./images/NOOSELB.png,,,,,,,m,1,0.815,,,,,,,,0,159,159,72,1
,,,,,,,,,,,,,,,,,200653,20,2022-01-29_10h15.26.022,lexical_decision_task_DD_L3,2021.2.3,Win32,20.00080003,,,,,,,,,,,,1.247,1,,,,,,,,,,,,,,,,,,,,,,,,-0.31372549,0.492776058,0,0,0,,,,,,,MEDAL,HB,z,m,./images/MEDALHB.png,,,,,,,z,1,1.247,,,,,,,,0,160,160,95,1
,,,,,,,,,,,,,,,,,200653,20,2022-01-29_10h15.26.022,lexical_decision_task_DD_L3,2021.2.3,Win32,20.00080003,,,,,,,,,,,,0.637,0,,,,,,,,,,,,,,,,,,,,,,,,-0.31372549,0.492776058,0,0,0,,,,,,,LAGOON,HB,z,m,./images/LAGOONHB.png,,,,,,,m,0,0.637,,,,,,,,0,161,161,131,1
,,,,,,,,,,,,,,,,,200653,20,2022-01-29_10h15.26.022,lexical_decision_task_DD_L3,2021.2.3,Win32,20.00080003,,,,,,,,,,,,1.041,1,,,,,,,,,,,,,,,,,,,,,,,,-0.31372549,0.492776058,0,0,0,,,,,,,BONNET,HB,m,m,./images/BONNETHB.png,,,,,,,m,1,1.041,,,,,,,,0,162,162,11,1
,,,,,,,,,,,,,,,,,200653,20,2022-01-29_10h15.26.022,lexical_decision_task_DD_L3,2021.2.3,Win32,20.00080003,,,,,,,,,,,,3.781,1,,,,,,,,,,,,,,,,,,,,,,,,-0.31372549,0.492776058,0,0,0,,,,,,,MIDGET,C,z,m,./images/MIDGET.png,,,,,,,z,1,3.781,,,,,,,,0,163,163,160,1
,,,,,,,,,,,,,,,,,200653,20,2022-01-29_10h15.26.022,lexical_decision_task_DD_L3,2021.2.3,Win32,20.00080003,,,,,,,,,,,,0.598,1,,,,,,,,,,,,,,,,,,,,,,,,-0.31372549,0.492776058,0,0,0,,,,,,,PLANK,C,m,m,./images/PLANK.png,,,,,,,m,1,0.598,,,,,,,,0,164,164,1,1
,,,,,,,,,,,,,,,,,200653,20,2022-01-29_10h15.26.022,lexical_decision_task_DD_L3,2021.2.3,Win32,20.00080003,,,,,,,,,,,,0.61,0,,,,,,,,,,,,,,,,,,,,,,,,-0.31372549,0.492776058,0,0,0,,,,,,,BAMBOO,HB,z,m,./images/BAMBOOHB.png,,,,,,,m,0,0.61,,,,,,,,0,165,165,89,1
,,,,,,,,,,,,,,,,,200653,20,2022-01-29_10h15.26.022,lexical_decision_task_DD_L3,2021.2.3,Win32,20.00080003,,,,,,,,,,,,0.899,1,,,,,,,,,,,,,,,,,,,,,,,,-0.31372549,0.492776058,0,0,0,,,,,,,CURRY,LB,z,m,./images/CURRYLB.png,,,,,,,z,1,0.899,,,,,,,,0,166,166,144,1
,,,,,,,,,,,,,,,,,200653,20,2022-01-29_10h15.26.022,lexical_decision_task_DD_L3,2021.2.3,Win32,20.00080003,,,,,,,,,,,,1.322,1,,,,,,,,,,,,,,,,,,,,,,,,-0.31372549,0.492776058,0,0,0,,,,,,,SHORE,LB,m,m,./images/SHORELB.png,,,,,,,m,1,1.322,,,,,,,,0,167,167,12,1
