key_resp.keys,instr_done_touch.x,instr_done_touch.y,instr_done_touch.leftButton,instr_done_touch.midButton,instr_done_touch.rightButton,instr_done_touch.clicked_name,instruction_pages.thisRepN,instruction_pages.thisTrialN,instruction_pages.thisN,instruction_pages.thisIndex,instruction_pages.ran,pageN,phase,instruct_text,has_image,instruct_image,participant,age,date,expName,psychopyVersion,OS,frameRate,key_resp.rt,response.keys,response.corr,response.rt,touch_resp.x,touch_resp.y,touch_resp.leftButton,touch_resp.midButton,touch_resp.rightButton,touch_resp.time,touch_resp.clicked_name,rt,corr,practrials.thisRepN,practrials.thisTrialN,practrials.thisN,practrials.thisIndex,practrials.ran,TrialID,Target,corrAns,end_of_practice_trials_pages.thisRepN,end_of_practice_trials_pages.thisTrialN,end_of_practice_trials_pages.thisN,end_of_practice_trials_pages.thisIndex,end_of_practice_trials_pages.ran,key_resp_2.keys,key_resp_2.corr,key_resp_2.rt,targ_click.x,targ_click.y,targ_click.leftButton,targ_click.midButton,targ_click.rightButton,targ_click.time,targ_click.clicked_name,break_done_touch.x,break_done_touch.y,break_done_touch.leftButton,break_done_touch.midButton,break_done_touch.rightButton,break_done_keyboard.keys,maintrials.thisRepN,maintrials.thisTrialN,maintrials.thisN,maintrials.thisIndex,maintrials.ran,string,blur,study,lex,stim_path,break_done_touch.clicked_name,break_done_keyboard.rt,test_instructions.thisRepN,test_instructions.thisTrialN,test_instructions.thisN,test_instructions.thisIndex,test_instructions.ran,key_resp_3.keys,key_resp_3.corr,key_resp_3.rt,test_click.x,test_click.y,test_click.leftButton,test_click.midButton,test_click.rightButton,test_click.time,test_click.clicked_name,test_phase.thisRepN,test_phase.thisTrialN,test_phase.thisN,test_phase.thisIndex,test_phase.ran
,0.069444459,-0.397222236,1,0,0,instr_done_button,0,0,0,0,1,1,instructions,"INSTRUCTIONS
At the start of each trial, look at the plus sign  (+) in the center of the screen.  This tells you that a trial is about to begin and where to look. Second, the plus sign will disappear and a string of letters will appear. Your task is to determine if the string of letters is a word or not. If the item is a word press the M key (on keyboard)  or touch the word button (phone/tablet).  If the item is not a word,  press the  Z key (on keyboard)  or touch the nonword button (on phone/tablet). 
Press the space bar or touch  continue.",0,,200641,21,2022-01-28_21h21.32.431,lexical_decision_task_DD_L2,2021.2.3,Win32,59.74072525,,,,,,,,,,,,,,,,,,,,,,,,,,,,,,,,,,,,,,,,,,,,,,,,,,,,,,,,,,,,,,,,,,,,,,,,,,
,0.082407422,-0.39629631,1,0,0,instr_done_button,0,1,1,1,1,2,instructions,"If your device has a keyboard, press the 'Z' key for nonwords and the 'M' key for words.





Press the space bar or touch the button below to continue.",0,keyboard-example.gif,200641,21,2022-01-28_21h21.32.431,lexical_decision_task_DD_L2,2021.2.3,Win32,59.74072525,,,,,,,,,,,,,,,,,,,,,,,,,,,,,,,,,,,,,,,,,,,,,,,,,,,,,,,,,,,,,,,,,,,,,,,,,,
space,0.082407422,-0.39629631,0,0,0,,0,2,2,2,1,3,instructions,"If you are using a touchscreen only device, use the buttons on the screen. Do not use the mouse.





Press the space bar or touch the button below to continue.",0,touchscreen-example.gif,200641,21,2022-01-28_21h21.32.431,lexical_decision_task_DD_L2,2021.2.3,Win32,59.74072525,3.7237,,,,,,,,,,,,,,,,,,,,,,,,,,,,,,,,,,,,,,,,,,,,,,,,,,,,,,,,,,,,,,,,,,,,,,,,,
space,0.082407422,-0.39629631,0,0,0,,0,3,3,3,1,4,instructions,"It is very important that you respond as quickly and accurately as possible, as each letter string will only be on the screen for two seconds. If you do not respond within this time, the message 'Too slow!' will be displayed and the experiment will progress to the next letter string. The first 20 trials will be practice trials and you will receive feedback on your answers. 

Press the space bar or touch the button below to start the practice trials.",0,,200641,21,2022-01-28_21h21.32.431,lexical_decision_task_DD_L2,2021.2.3,Win32,59.74072525,13.3836,,,,,,,,,,,,,,,,,,,,,,,,,,,,,,,,,,,,,,,,,,,,,,,,,,,,,,,,,,,,,,,,,,,,,,,,,
,,,,,,,,,,,,,,,,,200641,21,2022-01-28_21h21.32.431,lexical_decision_task_DD_L2,2021.2.3,Win32,59.74072525,,z,1,0.8932,,,,,,,,0.8932,1,0,0,0,14,1,1001,THRALE,z,,,,,,,,,,,,,,,,,,,,,,,,,,,,,,,,,,,,,,,,,,,,,,,,,,,,,
,,,,,,,,,,,,,,,,,200641,21,2022-01-28_21h21.32.431,lexical_decision_task_DD_L2,2021.2.3,Win32,59.74072525,,m,1,0.7594,,,,,,,,0.7594,1,0,1,1,6,1,1001,ZOMBIE,m,,,,,,,,,,,,,,,,,,,,,,,,,,,,,,,,,,,,,,,,,,,,,,,,,,,,,
,,,,,,,,,,,,,,,,,200641,21,2022-01-28_21h21.32.431,lexical_decision_task_DD_L2,2021.2.3,Win32,59.74072525,,m,1,0.6072,,,,,,,,0.6072,1,0,2,2,5,1,1001,OBTAIN,m,,,,,,,,,,,,,,,,,,,,,,,,,,,,,,,,,,,,,,,,,,,,,,,,,,,,,
,,,,,,,,,,,,,,,,,200641,21,2022-01-28_21h21.32.431,lexical_decision_task_DD_L2,2021.2.3,Win32,59.74072525,,m,1,0.6676,,,,,,,,0.6676,1,0,3,3,7,1,1001,VOLUME,m,,,,,,,,,,,,,,,,,,,,,,,,,,,,,,,,,,,,,,,,,,,,,,,,,,,,,
,,,,,,,,,,,,,,,,,200641,21,2022-01-28_21h21.32.431,lexical_decision_task_DD_L2,2021.2.3,Win32,59.74072525,,m,1,0.7096,,,,,,,,0.7096,1,0,4,4,2,1,1001,ALMOND,m,,,,,,,,,,,,,,,,,,,,,,,,,,,,,,,,,,,,,,,,,,,,,,,,,,,,,
,,,,,,,,,,,,,,,,,200641,21,2022-01-28_21h21.32.431,lexical_decision_task_DD_L2,2021.2.3,Win32,59.74072525,,z,1,0.6011,,,,,,,,0.6011,1,0,5,5,13,1,1001,ROUPET,z,,,,,,,,,,,,,,,,,,,,,,,,,,,,,,,,,,,,,,,,,,,,,,,,,,,,,
,,,,,,,,,,,,,,,,,200641,21,2022-01-28_21h21.32.431,lexical_decision_task_DD_L2,2021.2.3,Win32,59.74072525,,z,1,0.7725,,,,,,,,0.7725,1,0,6,6,15,1,1001,WHAISE,z,,,,,,,,,,,,,,,,,,,,,,,,,,,,,,,,,,,,,,,,,,,,,,,,,,,,,
,,,,,,,,,,,,,,,,,200641,21,2022-01-28_21h21.32.431,lexical_decision_task_DD_L2,2021.2.3,Win32,59.74072525,,m,1,0.8842,,,,,,,,0.8842,1,0,7,7,4,1,1001,SQUEAK,m,,,,,,,,,,,,,,,,,,,,,,,,,,,,,,,,,,,,,,,,,,,,,,,,,,,,,
,,,,,,,,,,,,,,,,,200641,21,2022-01-28_21h21.32.431,lexical_decision_task_DD_L2,2021.2.3,Win32,59.74072525,,z,1,1.3557,,,,,,,,1.3557,1,0,8,8,10,1,1001,INLADE,z,,,,,,,,,,,,,,,,,,,,,,,,,,,,,,,,,,,,,,,,,,,,,,,,,,,,,
,,,,,,,,,,,,,,,,,200641,21,2022-01-28_21h21.32.431,lexical_decision_task_DD_L2,2021.2.3,Win32,59.74072525,,z,1,0.7543,,,,,,,,0.7543,1,0,9,9,11,1,1001,RASHET,z,,,,,,,,,,,,,,,,,,,,,,,,,,,,,,,,,,,,,,,,,,,,,,,,,,,,,
,,,,,,,,,,,,,,,,,200641,21,2022-01-28_21h21.32.431,lexical_decision_task_DD_L2,2021.2.3,Win32,59.74072525,,z,1,1.0217,,,,,,,,1.0217,1,0,10,10,12,1,1001,SPRINY,z,,,,,,,,,,,,,,,,,,,,,,,,,,,,,,,,,,,,,,,,,,,,,,,,,,,,,
,,,,,,,,,,,,,,,,,200641,21,2022-01-28_21h21.32.431,lexical_decision_task_DD_L2,2021.2.3,Win32,59.74072525,,z,1,0.6292,,,,,,,,0.6292,1,0,11,11,8,1,1001,ASLERT,z,,,,,,,,,,,,,,,,,,,,,,,,,,,,,,,,,,,,,,,,,,,,,,,,,,,,,
,,,,,,,,,,,,,,,,,200641,21,2022-01-28_21h21.32.431,lexical_decision_task_DD_L2,2021.2.3,Win32,59.74072525,,m,1,0.8775,,,,,,,,0.8775,1,0,12,12,1,1,1001,ADJUST,m,,,,,,,,,,,,,,,,,,,,,,,,,,,,,,,,,,,,,,,,,,,,,,,,,,,,,
,,,,,,,,,,,,,,,,,200641,21,2022-01-28_21h21.32.431,lexical_decision_task_DD_L2,2021.2.3,Win32,59.74072525,,z,1,0.7869,,,,,,,,0.7869,1,0,13,13,9,1,1001,FARINY,z,,,,,,,,,,,,,,,,,,,,,,,,,,,,,,,,,,,,,,,,,,,,,,,,,,,,,
,,,,,,,,,,,,,,,,,200641,21,2022-01-28_21h21.32.431,lexical_decision_task_DD_L2,2021.2.3,Win32,59.74072525,,m,1,0.6507,,,,,,,,0.6507,1,0,14,14,0,1,1001,UTOPIA,m,,,,,,,,,,,,,,,,,,,,,,,,,,,,,,,,,,,,,,,,,,,,,,,,,,,,,
,,,,,,,,,,,,,,,,,200641,21,2022-01-28_21h21.32.431,lexical_decision_task_DD_L2,2021.2.3,Win32,59.74072525,,m,1,0.7006,,,,,,,,0.7006,1,0,15,15,3,1,1001,MATRIX,m,,,,,,,,,,,,,,,,,,,,,,,,,,,,,,,,,,,,,,,,,,,,,,,,,,,,,
,0.054629644,-0.426851866,1,0,0,instr_done_button,,,,,,1,end_of_practice,"You have completed the practice trials. During the experimental trials, you will not receive feedback. 
Before you begin, please ensure that you are in a comfortable and quiet location and will not be disturbed for about 15 minutes, as we cannot use your data if you do not complete all the trials. 
 When you are ready to start the experimental trials, please press space or touch the button below.",,,200641,21,2022-01-28_21h21.32.431,lexical_decision_task_DD_L2,2021.2.3,Win32,59.74072525,,,,,,,,,,,,,,,,,,,,,,0,0,0,0,1,,,,,,,,,,,,,,,,,,,,,,,,,,,,,,,,,,,,,,,,,,,,,,,,
,,,,,,,,,,,,,,,,,200641,21,2022-01-28_21h21.32.431,lexical_decision_task_DD_L2,2021.2.3,Win32,59.74072525,,,,,,,,,,,,0.9823,1,,,,,,,,,,,,,,z,1,0.9823,,,,,,,,0.030555569,-0.437037108,0,0,0,,0,0,0,98,1,BAMPS,LB,old,z,./images/BAMPSLB.png,,,,,,,,,,,,,,,,,,,,,,
,,,,,,,,,,,,,,,,,200641,21,2022-01-28_21h21.32.431,lexical_decision_task_DD_L2,2021.2.3,Win32,59.74072525,,,,,,,,,,,,0.8536,1,,,,,,,,,,,,,,z,1,0.8536,,,,,,,,0.030555569,-0.437037108,0,0,0,,0,1,1,113,1,LINEW,LB,old,z,./images/LINEWLB.png,,,,,,,,,,,,,,,,,,,,,,
,,,,,,,,,,,,,,,,,200641,21,2022-01-28_21h21.32.431,lexical_decision_task_DD_L2,2021.2.3,Win32,59.74072525,,,,,,,,,,,,1.2333,1,,,,,,,,,,,,,,m,1,1.2333,,,,,,,,0.030555569,-0.437037108,0,0,0,,0,2,2,65,1,FARMER,C,old,m,./images/FARMER.png,,,,,,,,,,,,,,,,,,,,,,
,,,,,,,,,,,,,,,,,200641,21,2022-01-28_21h21.32.431,lexical_decision_task_DD_L2,2021.2.3,Win32,59.74072525,,,,,,,,,,,,1.3539,1,,,,,,,,,,,,,,z,1,1.3539,,,,,,,,0.030555569,-0.437037108,0,0,0,,0,3,3,130,1,CRILL,HB,old,z,./images/CRILLHB.png,,,,,,,,,,,,,,,,,,,,,,
,,,,,,,,,,,,,,,,,200641,21,2022-01-28_21h21.32.431,lexical_decision_task_DD_L2,2021.2.3,Win32,59.74072525,,,,,,,,,,,,0.998,1,,,,,,,,,,,,,,m,1,0.998,,,,,,,,0.030555569,-0.437037108,0,0,0,,0,4,4,49,1,DRUMS,LB,old,m,./images/DRUMSLB.png,,,,,,,,,,,,,,,,,,,,,,
,,,,,,,,,,,,,,,,,200641,21,2022-01-28_21h21.32.431,lexical_decision_task_DD_L2,2021.2.3,Win32,59.74072525,,,,,,,,,,,,1.4246,0,,,,,,,,,,,,,,z,0,1.4246,,,,,,,,0.030555569,-0.437037108,0,0,0,,0,5,5,16,1,PENCE,LB,old,m,./images/PENCELB.png,,,,,,,,,,,,,,,,,,,,,,
,,,,,,,,,,,,,,,,,200641,21,2022-01-28_21h21.32.431,lexical_decision_task_DD_L2,2021.2.3,Win32,59.74072525,,,,,,,,,,,,0.7023,1,,,,,,,,,,,,,,m,1,0.7023,,,,,,,,0.030555569,-0.437037108,0,0,0,,0,6,6,40,1,SWING,LB,old,m,./images/SWINGLB.png,,,,,,,,,,,,,,,,,,,,,,
,,,,,,,,,,,,,,,,,200641,21,2022-01-28_21h21.32.431,lexical_decision_task_DD_L2,2021.2.3,Win32,59.74072525,,,,,,,,,,,,0.726,1,,,,,,,,,,,,,,z,1,0.726,,,,,,,,0.030555569,-0.437037108,0,0,0,,0,7,7,126,1,GUELS,C,old,z,./images/GUELS.png,,,,,,,,,,,,,,,,,,,,,,
,,,,,,,,,,,,,,,,,200641,21,2022-01-28_21h21.32.431,lexical_decision_task_DD_L2,2021.2.3,Win32,59.74072525,,,,,,,,,,,,0.8797,1,,,,,,,,,,,,,,m,1,0.8797,,,,,,,,0.030555569,-0.437037108,0,0,0,,0,8,8,71,1,PIMPLE,C,old,m,./images/PIMPLE.png,,,,,,,,,,,,,,,,,,,,,,
,,,,,,,,,,,,,,,,,200641,21,2022-01-28_21h21.32.431,lexical_decision_task_DD_L2,2021.2.3,Win32,59.74072525,,,,,,,,,,,,1.7724,1,,,,,,,,,,,,,,z,1,1.7724,,,,,,,,0.030555569,-0.437037108,0,0,0,,0,9,9,127,1,NINDY,HB,old,z,./images/NINDYHB.png,,,,,,,,,,,,,,,,,,,,,,
,,,,,,,,,,,,,,,,,200641,21,2022-01-28_21h21.32.431,lexical_decision_task_DD_L2,2021.2.3,Win32,59.74072525,,,,,,,,,,,,1.1226,1,,,,,,,,,,,,,,z,1,1.1226,,,,,,,,0.030555569,-0.437037108,0,0,0,,0,10,10,125,1,MOOKY,LB,old,z,./images/MOOKYLB.png,,,,,,,,,,,,,,,,,,,,,,
,,,,,,,,,,,,,,,,,200641,21,2022-01-28_21h21.32.431,lexical_decision_task_DD_L2,2021.2.3,Win32,59.74072525,,,,,,,,,,,,1.1468,1,,,,,,,,,,,,,,m,1,1.1468,,,,,,,,0.030555569,-0.437037108,0,0,0,,0,11,11,61,1,CANDLE,LB,old,m,./images/CANDLELB.png,,,,,,,,,,,,,,,,,,,,,,
,,,,,,,,,,,,,,,,,200641,21,2022-01-28_21h21.32.431,lexical_decision_task_DD_L2,2021.2.3,Win32,59.74072525,,,,,,,,,,,,1.146,1,,,,,,,,,,,,,,m,1,1.146,,,,,,,,0.030555569,-0.437037108,0,0,0,,0,12,12,63,1,MIRROR,HB,old,m,./images/MIRRORHB.png,,,,,,,,,,,,,,,,,,,,,,
,,,,,,,,,,,,,,,,,200641,21,2022-01-28_21h21.32.431,lexical_decision_task_DD_L2,2021.2.3,Win32,59.74072525,,,,,,,,,,,,1.9941,1,,,,,,,,,,,,,,z,1,1.9941,,,,,,,,0.030555569,-0.437037108,0,0,0,,0,13,13,136,1,WERVE,HB,old,z,./images/WERVEHB.png,,,,,,,,,,,,,,,,,,,,,,
,,,,,,,,,,,,,,,,,200641,21,2022-01-28_21h21.32.431,lexical_decision_task_DD_L2,2021.2.3,Win32,59.74072525,,,,,,,,,,,,0.7273,1,,,,,,,,,,,,,,z,1,0.7273,,,,,,,,0.030555569,-0.437037108,0,0,0,,0,14,14,143,1,MONGS,LB,old,z,./images/MONGSLB.png,,,,,,,,,,,,,,,,,,,,,,
,,,,,,,,,,,,,,,,,200641,21,2022-01-28_21h21.32.431,lexical_decision_task_DD_L2,2021.2.3,Win32,59.74072525,,,,,,,,,,,,0.8454,1,,,,,,,,,,,,,,m,1,0.8454,,,,,,,,0.030555569,-0.437037108,0,0,0,,0,15,15,23,1,WALRUS,C,old,m,./images/WALRUS.png,,,,,,,,,,,,,,,,,,,,,,
,,,,,,,,,,,,,,,,,200641,21,2022-01-28_21h21.32.431,lexical_decision_task_DD_L2,2021.2.3,Win32,59.74072525,,,,,,,,,,,,0.9504,1,,,,,,,,,,,,,,z,1,0.9504,,,,,,,,0.030555569,-0.437037108,0,0,0,,0,16,16,165,1,TROWN,C,old,z,./images/TROWN.png,,,,,,,,,,,,,,,,,,,,,,
,,,,,,,,,,,,,,,,,200641,21,2022-01-28_21h21.32.431,lexical_decision_task_DD_L2,2021.2.3,Win32,59.74072525,,,,,,,,,,,,1.6426,1,,,,,,,,,,,,,,z,1,1.6426,,,,,,,,0.030555569,-0.437037108,0,0,0,,0,17,17,112,1,MYING,HB,old,z,./images/MYINGHB.png,,,,,,,,,,,,,,,,,,,,,,
,,,,,,,,,,,,,,,,,200641,21,2022-01-28_21h21.32.431,lexical_decision_task_DD_L2,2021.2.3,Win32,59.74072525,,,,,,,,,,,,1.2821,1,,,,,,,,,,,,,,m,1,1.2821,,,,,,,,0.030555569,-0.437037108,0,0,0,,0,18,18,7,1,PAINT,LB,old,m,./images/PAINTLB.png,,,,,,,,,,,,,,,,,,,,,,
,,,,,,,,,,,,,,,,,200641,21,2022-01-28_21h21.32.431,lexical_decision_task_DD_L2,2021.2.3,Win32,59.74072525,,,,,,,,,,,,0.6417,1,,,,,,,,,,,,,,m,1,0.6417,,,,,,,,0.030555569,-0.437037108,0,0,0,,0,19,19,53,1,CARPET,C,old,m,./images/CARPET.png,,,,,,,,,,,,,,,,,,,,,,
,,,,,,,,,,,,,,,,,200641,21,2022-01-28_21h21.32.431,lexical_decision_task_DD_L2,2021.2.3,Win32,59.74072525,,,,,,,,,,,,0.6983,1,,,,,,,,,,,,,,z,1,0.6983,,,,,,,,0.030555569,-0.437037108,0,0,0,,0,20,20,147,1,ZOLES,C,old,z,./images/ZOLES.png,,,,,,,,,,,,,,,,,,,,,,
,,,,,,,,,,,,,,,,,200641,21,2022-01-28_21h21.32.431,lexical_decision_task_DD_L2,2021.2.3,Win32,59.74072525,,,,,,,,,,,,0.7812,1,,,,,,,,,,,,,,z,1,0.7812,,,,,,,,0.030555569,-0.437037108,0,0,0,,0,21,21,124,1,TUNCH,HB,old,z,./images/TUNCHHB.png,,,,,,,,,,,,,,,,,,,,,,
,,,,,,,,,,,,,,,,,200641,21,2022-01-28_21h21.32.431,lexical_decision_task_DD_L2,2021.2.3,Win32,59.74072525,,,,,,,,,,,,0.9005,1,,,,,,,,,,,,,,z,1,0.9005,,,,,,,,0.030555569,-0.437037108,0,0,0,,0,22,22,92,1,PAIMS,LB,old,z,./images/PAIMSLB.png,,,,,,,,,,,,,,,,,,,,,,
,,,,,,,,,,,,,,,,,200641,21,2022-01-28_21h21.32.431,lexical_decision_task_DD_L2,2021.2.3,Win32,59.74072525,,,,,,,,,,,,1.2185,1,,,,,,,,,,,,,,m,1,1.2185,,,,,,,,0.030555569,-0.437037108,0,0,0,,0,23,23,38,1,LADDER,C,old,m,./images/LADDER.png,,,,,,,,,,,,,,,,,,,,,,
,,,,,,,,,,,,,,,,,200641,21,2022-01-28_21h21.32.431,lexical_decision_task_DD_L2,2021.2.3,Win32,59.74072525,,,,,,,,,,,,1.0988,1,,,,,,,,,,,,,,z,1,1.0988,,,,,,,,0.030555569,-0.437037108,0,0,0,,0,24,24,149,1,VEASE,LB,old,z,./images/VEASELB.png,,,,,,,,,,,,,,,,,,,,,,
,,,,,,,,,,,,,,,,,200641,21,2022-01-28_21h21.32.431,lexical_decision_task_DD_L2,2021.2.3,Win32,59.74072525,,,,,,,,,,,,1.8989,1,,,,,,,,,,,,,,m,1,1.8989,,,,,,,,0.030555569,-0.437037108,0,0,0,,0,25,25,75,1,GRAIN,HB,old,m,./images/GRAINHB.png,,,,,,,,,,,,,,,,,,,,,,
,,,,,,,,,,,,,,,,,200641,21,2022-01-28_21h21.32.431,lexical_decision_task_DD_L2,2021.2.3,Win32,59.74072525,,,,,,,,,,,,0.6956,1,,,,,,,,,,,,,,m,1,0.6956,,,,,,,,0.030555569,-0.437037108,0,0,0,,0,26,26,34,1,CANYON,LB,old,m,./images/CANYONLB.png,,,,,,,,,,,,,,,,,,,,,,
,,,,,,,,,,,,,,,,,200641,21,2022-01-28_21h21.32.431,lexical_decision_task_DD_L2,2021.2.3,Win32,59.74072525,,,,,,,,,,,,0.8138,1,,,,,,,,,,,,,,z,1,0.8138,,,,,,,,0.030555569,-0.437037108,0,0,0,,0,27,27,115,1,MAWNS,HB,old,z,./images/MAWNSHB.png,,,,,,,,,,,,,,,,,,,,,,
,,,,,,,,,,,,,,,,,200641,21,2022-01-28_21h21.32.431,lexical_decision_task_DD_L2,2021.2.3,Win32,59.74072525,,,,,,,,,,,,0.7616,1,,,,,,,,,,,,,,z,1,0.7616,,,,,,,,0.030555569,-0.437037108,0,0,0,,0,28,28,155,1,CANGY,LB,old,z,./images/CANGYLB.png,,,,,,,,,,,,,,,,,,,,,,
,,,,,,,,,,,,,,,,,200641,21,2022-01-28_21h21.32.431,lexical_decision_task_DD_L2,2021.2.3,Win32,59.74072525,,,,,,,,,,,,0.7091,1,,,,,,,,,,,,,,z,1,0.7091,,,,,,,,0.030555569,-0.437037108,0,0,0,,0,29,29,141,1,PLEET,C,old,z,./images/PLEET.png,,,,,,,,,,,,,,,,,,,,,,
,,,,,,,,,,,,,,,,,200641,21,2022-01-28_21h21.32.431,lexical_decision_task_DD_L2,2021.2.3,Win32,59.74072525,,,,,,,,,,,,0.767,1,,,,,,,,,,,,,,z,1,0.767,,,,,,,,0.030555569,-0.437037108,0,0,0,,0,30,30,157,1,INLER,HB,old,z,./images/INLERHB.png,,,,,,,,,,,,,,,,,,,,,,
,,,,,,,,,,,,,,,,,200641,21,2022-01-28_21h21.32.431,lexical_decision_task_DD_L2,2021.2.3,Win32,59.74072525,,,,,,,,,,,,0.9651,1,,,,,,,,,,,,,,z,1,0.9651,,,,,,,,0.030555569,-0.437037108,0,0,0,,0,31,31,94,1,BLANS,HB,old,z,./images/BLANSHB.png,,,,,,,,,,,,,,,,,,,,,,
,,,,,,,,,,,,,,,,,200641,21,2022-01-28_21h21.32.431,lexical_decision_task_DD_L2,2021.2.3,Win32,59.74072525,,,,,,,,,,,,0.5848,1,,,,,,,,,,,,,,m,1,0.5848,,,,,,,,0.030555569,-0.437037108,0,0,0,,0,32,32,35,1,PEACH,C,old,m,./images/PEACH.png,,,,,,,,,,,,,,,,,,,,,,
,,,,,,,,,,,,,,,,,200641,21,2022-01-28_21h21.32.431,lexical_decision_task_DD_L2,2021.2.3,Win32,59.74072525,,,,,,,,,,,,0.6749,1,,,,,,,,,,,,,,z,1,0.6749,,,,,,,,0.030555569,-0.437037108,0,0,0,,0,33,33,144,1,NAIRY,C,old,z,./images/NAIRY.png,,,,,,,,,,,,,,,,,,,,,,
,,,,,,,,,,,,,,,,,200641,21,2022-01-28_21h21.32.431,lexical_decision_task_DD_L2,2021.2.3,Win32,59.74072525,,,,,,,,,,,,0.6016,1,,,,,,,,,,,,,,z,1,0.6016,,,,,,,,0.030555569,-0.437037108,0,0,0,,0,34,34,96,1,KEAMS,C,old,z,./images/KEAMS.png,,,,,,,,,,,,,,,,,,,,,,
,,,,,,,,,,,,,,,,,200641,21,2022-01-28_21h21.32.431,lexical_decision_task_DD_L2,2021.2.3,Win32,59.74072525,,,,,,,,,,,,0.5582,1,,,,,,,,,,,,,,z,1,0.5582,,,,,,,,0.030555569,-0.437037108,0,0,0,,0,35,35,101,1,GLEET,LB,old,z,./images/GLEETLB.png,,,,,,,,,,,,,,,,,,,,,,
,,,,,,,,,,,,,,,,,200641,21,2022-01-28_21h21.32.431,lexical_decision_task_DD_L2,2021.2.3,Win32,59.74072525,,,,,,,,,,,,0.5798,1,,,,,,,,,,,,,,z,1,0.5798,,,,,,,,0.030555569,-0.437037108,0,0,0,,0,36,36,122,1,BLOOT,LB,old,z,./images/BLOOTLB.png,,,,,,,,,,,,,,,,,,,,,,
,,,,,,,,,,,,,,,,,200641,21,2022-01-28_21h21.32.431,lexical_decision_task_DD_L2,2021.2.3,Win32,59.74072525,,,,,,,,,,,,0.4895,1,,,,,,,,,,,,,,z,1,0.4895,,,,,,,,0.030555569,-0.437037108,0,0,0,,0,37,37,84,1,HAXES,C,old,z,./images/HAXES.png,,,,,,,,,,,,,,,,,,,,,,
,,,,,,,,,,,,,,,,,200641,21,2022-01-28_21h21.32.431,lexical_decision_task_DD_L2,2021.2.3,Win32,59.74072525,,,,,,,,,,,,0.6839,1,,,,,,,,,,,,,,m,1,0.6839,,,,,,,,0.030555569,-0.437037108,0,0,0,,0,38,38,18,1,JAGUAR,HB,old,m,./images/JAGUARHB.png,,,,,,,,,,,,,,,,,,,,,,
,,,,,,,,,,,,,,,,,200641,21,2022-01-28_21h21.32.431,lexical_decision_task_DD_L2,2021.2.3,Win32,59.74072525,,,,,,,,,,,,0.5396,1,,,,,,,,,,,,,,m,1,0.5396,,,,,,,,0.030555569,-0.437037108,0,0,0,,0,39,39,67,1,SAILOR,LB,old,m,./images/SAILORLB.png,,,,,,,,,,,,,,,,,,,,,,
,,,,,,,,,,,,,,,,,200641,21,2022-01-28_21h21.32.431,lexical_decision_task_DD_L2,2021.2.3,Win32,59.74072525,,,,,,,,,,,,0.85,1,,,,,,,,,,,,,,z,1,0.85,,,,,,,,0.030555569,-0.437037108,0,0,0,,0,40,40,159,1,CUDDY,C,old,z,./images/CUDDY.png,,,,,,,,,,,,,,,,,,,,,,
,,,,,,,,,,,,,,,,,200641,21,2022-01-28_21h21.32.431,lexical_decision_task_DD_L2,2021.2.3,Win32,59.74072525,,,,,,,,,,,,1.047,1,,,,,,,,,,,,,,m,1,1.047,,,,,,,,0.030555569,-0.437037108,1,0,0,,0,41,41,70,1,URINE,LB,old,m,./images/URINELB.png,break_done_button,,,,,,,,,,,,,,,,,,,,,
,,,,,,,,,,,,,,,,,200641,21,2022-01-28_21h21.32.431,lexical_decision_task_DD_L2,2021.2.3,Win32,59.74072525,,,,,,,,,,,,0.8182,1,,,,,,,,,,,,,,m,1,0.8182,,,,,,,,0.030555569,-0.437037108,0,0,0,,0,42,42,25,1,WRIST,LB,old,m,./images/WRISTLB.png,,,,,,,,,,,,,,,,,,,,,,
,,,,,,,,,,,,,,,,,200641,21,2022-01-28_21h21.32.431,lexical_decision_task_DD_L2,2021.2.3,Win32,59.74072525,,,,,,,,,,,,0.6921,1,,,,,,,,,,,,,,z,1,0.6921,,,,,,,,0.030555569,-0.437037108,0,0,0,,0,43,43,132,1,SCIFF,C,old,z,./images/SCIFF.png,,,,,,,,,,,,,,,,,,,,,,
,,,,,,,,,,,,,,,,,200641,21,2022-01-28_21h21.32.431,lexical_decision_task_DD_L2,2021.2.3,Win32,59.74072525,,,,,,,,,,,,0.5824,1,,,,,,,,,,,,,,m,1,0.5824,,,,,,,,0.030555569,-0.437037108,0,0,0,,0,44,44,68,1,TORCH,C,old,m,./images/TORCH.png,,,,,,,,,,,,,,,,,,,,,,
,,,,,,,,,,,,,,,,,200641,21,2022-01-28_21h21.32.431,lexical_decision_task_DD_L2,2021.2.3,Win32,59.74072525,,,,,,,,,,,,0.7457,1,,,,,,,,,,,,,,m,1,0.7457,,,,,,,,0.030555569,-0.437037108,0,0,0,,0,45,45,42,1,FOLDER,HB,old,m,./images/FOLDERHB.png,,,,,,,,,,,,,,,,,,,,,,
,,,,,,,,,,,,,,,,,200641,21,2022-01-28_21h21.32.431,lexical_decision_task_DD_L2,2021.2.3,Win32,59.74072525,,,,,,,,,,,,0.5947,1,,,,,,,,,,,,,,m,1,0.5947,,,,,,,,0.030555569,-0.437037108,0,0,0,,0,46,46,74,1,CEMENT,C,old,m,./images/CEMENT.png,,,,,,,,,,,,,,,,,,,,,,
,,,,,,,,,,,,,,,,,200641,21,2022-01-28_21h21.32.431,lexical_decision_task_DD_L2,2021.2.3,Win32,59.74072525,,,,,,,,,,,,0.6867,1,,,,,,,,,,,,,,z,1,0.6867,,,,,,,,0.030555569,-0.437037108,0,0,0,,0,47,47,110,1,CRUNK,LB,old,z,./images/CRUNKLB.png,,,,,,,,,,,,,,,,,,,,,,
,,,,,,,,,,,,,,,,,200641,21,2022-01-28_21h21.32.431,lexical_decision_task_DD_L2,2021.2.3,Win32,59.74072525,,,,,,,,,,,,0.6286,1,,,,,,,,,,,,,,m,1,0.6286,,,,,,,,0.030555569,-0.437037108,0,0,0,,0,48,48,73,1,SNACK,LB,old,m,./images/SNACKLB.png,,,,,,,,,,,,,,,,,,,,,,
,,,,,,,,,,,,,,,,,200641,21,2022-01-28_21h21.32.431,lexical_decision_task_DD_L2,2021.2.3,Win32,59.74072525,,,,,,,,,,,,0.8358,1,,,,,,,,,,,,,,z,1,0.8358,,,,,,,,0.030555569,-0.437037108,0,0,0,,0,49,49,116,1,BALGY,LB,old,z,./images/BALGYLB.png,,,,,,,,,,,,,,,,,,,,,,
,,,,,,,,,,,,,,,,,200641,21,2022-01-28_21h21.32.431,lexical_decision_task_DD_L2,2021.2.3,Win32,59.74072525,,,,,,,,,,,,0.7384,1,,,,,,,,,,,,,,z,1,0.7384,,,,,,,,0.030555569,-0.437037108,0,0,0,,0,50,50,160,1,VEETS,HB,old,z,./images/VEETSHB.png,,,,,,,,,,,,,,,,,,,,,,
,,,,,,,,,,,,,,,,,200641,21,2022-01-28_21h21.32.431,lexical_decision_task_DD_L2,2021.2.3,Win32,59.74072525,,,,,,,,,,,,0.8297,1,,,,,,,,,,,,,,z,1,0.8297,,,,,,,,0.030555569,-0.437037108,0,0,0,,0,51,51,167,1,ZONET,LB,old,z,./images/ZONETLB.png,,,,,,,,,,,,,,,,,,,,,,
,,,,,,,,,,,,,,,,,200641,21,2022-01-28_21h21.32.431,lexical_decision_task_DD_L2,2021.2.3,Win32,59.74072525,,,,,,,,,,,,1.0166,1,,,,,,,,,,,,,,m,1,1.0166,,,,,,,,0.030555569,-0.437037108,0,0,0,,0,52,52,46,1,PEARL,LB,old,m,./images/PEARLLB.png,,,,,,,,,,,,,,,,,,,,,,
,,,,,,,,,,,,,,,,,200641,21,2022-01-28_21h21.32.431,lexical_decision_task_DD_L2,2021.2.3,Win32,59.74072525,,,,,,,,,,,,1.0476,1,,,,,,,,,,,,,,m,1,1.0476,,,,,,,,0.030555569,-0.437037108,0,0,0,,0,53,53,15,1,GREASE,HB,old,m,./images/GREASEHB.png,,,,,,,,,,,,,,,,,,,,,,
,,,,,,,,,,,,,,,,,200641,21,2022-01-28_21h21.32.431,lexical_decision_task_DD_L2,2021.2.3,Win32,59.74072525,,,,,,,,,,,,0.6039,1,,,,,,,,,,,,,,z,1,0.6039,,,,,,,,0.030555569,-0.437037108,0,0,0,,0,54,54,140,1,DOVET,LB,old,z,./images/DOVETLB.png,,,,,,,,,,,,,,,,,,,,,,
,,,,,,,,,,,,,,,,,200641,21,2022-01-28_21h21.32.431,lexical_decision_task_DD_L2,2021.2.3,Win32,59.74072525,,,,,,,,,,,,0.8853,1,,,,,,,,,,,,,,z,1,0.8853,,,,,,,,0.030555569,-0.437037108,0,0,0,,0,55,55,133,1,POWDY,HB,old,z,./images/POWDYHB.png,,,,,,,,,,,,,,,,,,,,,,
,,,,,,,,,,,,,,,,,200641,21,2022-01-28_21h21.32.431,lexical_decision_task_DD_L2,2021.2.3,Win32,59.74072525,,,,,,,,,,,,0.6646,1,,,,,,,,,,,,,,m,1,0.6646,,,,,,,,0.030555569,-0.437037108,0,0,0,,0,56,56,81,1,POODLE,HB,old,m,./images/POODLEHB.png,,,,,,,,,,,,,,,,,,,,,,
,,,,,,,,,,,,,,,,,200641,21,2022-01-28_21h21.32.431,lexical_decision_task_DD_L2,2021.2.3,Win32,59.74072525,,,,,,,,,,,,0.6808,1,,,,,,,,,,,,,,m,1,0.6808,,,,,,,,0.030555569,-0.437037108,0,0,0,,0,57,57,6,1,SQUARE,HB,old,m,./images/SQUAREHB.png,,,,,,,,,,,,,,,,,,,,,,
,,,,,,,,,,,,,,,,,200641,21,2022-01-28_21h21.32.431,lexical_decision_task_DD_L2,2021.2.3,Win32,59.74072525,,,,,,,,,,,,0.7034,1,,,,,,,,,,,,,,m,1,0.7034,,,,,,,,0.030555569,-0.437037108,0,0,0,,0,58,58,21,1,KIDNEY,HB,old,m,./images/KIDNEYHB.png,,,,,,,,,,,,,,,,,,,,,,
,,,,,,,,,,,,,,,,,200641,21,2022-01-28_21h21.32.431,lexical_decision_task_DD_L2,2021.2.3,Win32,59.74072525,,,,,,,,,,,,0.6703,1,,,,,,,,,,,,,,m,1,0.6703,,,,,,,,0.030555569,-0.437037108,0,0,0,,0,59,59,24,1,SCREW,HB,old,m,./images/SCREWHB.png,,,,,,,,,,,,,,,,,,,,,,
,,,,,,,,,,,,,,,,,200641,21,2022-01-28_21h21.32.431,lexical_decision_task_DD_L2,2021.2.3,Win32,59.74072525,,,,,,,,,,,,1.86,1,,,,,,,,,,,,,,m,1,1.86,,,,,,,,0.030555569,-0.437037108,0,0,0,,0,60,60,33,1,MAGGOT,HB,old,m,./images/MAGGOTHB.png,,,,,,,,,,,,,,,,,,,,,,
,,,,,,,,,,,,,,,,,200641,21,2022-01-28_21h21.32.431,lexical_decision_task_DD_L2,2021.2.3,Win32,59.74072525,,,,,,,,,,,,1.2696,1,,,,,,,,,,,,,,m,1,1.2696,,,,,,,,0.030555569,-0.437037108,0,0,0,,0,61,61,20,1,CRADLE,C,old,m,./images/CRADLE.png,,,,,,,,,,,,,,,,,,,,,,
,,,,,,,,,,,,,,,,,200641,21,2022-01-28_21h21.32.431,lexical_decision_task_DD_L2,2021.2.3,Win32,59.74072525,,,,,,,,,,,,0.9387,1,,,,,,,,,,,,,,z,1,0.9387,,,,,,,,0.030555569,-0.437037108,0,0,0,,0,62,62,99,1,BACKY,C,old,z,./images/BACKY.png,,,,,,,,,,,,,,,,,,,,,,
,,,,,,,,,,,,,,,,,200641,21,2022-01-28_21h21.32.431,lexical_decision_task_DD_L2,2021.2.3,Win32,59.74072525,,,,,,,,,,,,0.7594,1,,,,,,,,,,,,,,z,1,0.7594,,,,,,,,0.030555569,-0.437037108,0,0,0,,0,63,63,150,1,NOOLS,C,old,z,./images/NOOLS.png,,,,,,,,,,,,,,,,,,,,,,
,,,,,,,,,,,,,,,,,200641,21,2022-01-28_21h21.32.431,lexical_decision_task_DD_L2,2021.2.3,Win32,59.74072525,,,,,,,,,,,,0.7297,1,,,,,,,,,,,,,,m,1,0.7297,,,,,,,,0.030555569,-0.437037108,0,0,0,,0,64,64,51,1,ONION,HB,old,m,./images/ONIONHB.png,,,,,,,,,,,,,,,,,,,,,,
,,,,,,,,,,,,,,,,,200641,21,2022-01-28_21h21.32.431,lexical_decision_task_DD_L2,2021.2.3,Win32,59.74072525,,,,,,,,,,,,1.7105,1,,,,,,,,,,,,,,z,1,1.7105,,,,,,,,0.030555569,-0.437037108,0,0,0,,0,65,65,107,1,FASKS,LB,old,z,./images/FASKSLB.png,,,,,,,,,,,,,,,,,,,,,,
,,,,,,,,,,,,,,,,,200641,21,2022-01-28_21h21.32.431,lexical_decision_task_DD_L2,2021.2.3,Win32,59.74072525,,,,,,,,,,,,1.0105,1,,,,,,,,,,,,,,m,1,1.0105,,,,,,,,0.030555569,-0.437037108,0,0,0,,0,66,66,43,1,MOSQUE,LB,old,m,./images/MOSQUELB.png,,,,,,,,,,,,,,,,,,,,,,
,,,,,,,,,,,,,,,,,200641,21,2022-01-28_21h21.32.431,lexical_decision_task_DD_L2,2021.2.3,Win32,59.74072525,,,,,,,,,,,,1.6453,1,,,,,,,,,,,,,,z,1,1.6453,,,,,,,,0.030555569,-0.437037108,0,0,0,,0,67,67,166,1,SHORY,HB,old,z,./images/SHORYHB.png,,,,,,,,,,,,,,,,,,,,,,
,,,,,,,,,,,,,,,,,200641,21,2022-01-28_21h21.32.431,lexical_decision_task_DD_L2,2021.2.3,Win32,59.74072525,,,,,,,,,,,,2.7383,1,,,,,,,,,,,,,,z,1,2.7383,,,,,,,,0.030555569,-0.437037108,0,0,0,,0,68,68,88,1,GLUSH,HB,old,z,./images/GLUSHHB.png,,,,,,,,,,,,,,,,,,,,,,
,,,,,,,,,,,,,,,,,200641,21,2022-01-28_21h21.32.431,lexical_decision_task_DD_L2,2021.2.3,Win32,59.74072525,,,,,,,,,,,,1.2071,1,,,,,,,,,,,,,,z,1,1.2071,,,,,,,,0.030555569,-0.437037108,0,0,0,,0,69,69,142,1,PLASK,HB,old,z,./images/PLASKHB.png,,,,,,,,,,,,,,,,,,,,,,
,,,,,,,,,,,,,,,,,200641,21,2022-01-28_21h21.32.431,lexical_decision_task_DD_L2,2021.2.3,Win32,59.74072525,,,,,,,,,,,,1.1594,1,,,,,,,,,,,,,,m,1,1.1594,,,,,,,,0.030555569,-0.437037108,0,0,0,,0,70,70,5,1,PASTA,C,old,m,./images/PASTA.png,,,,,,,,,,,,,,,,,,,,,,
,,,,,,,,,,,,,,,,,200641,21,2022-01-28_21h21.32.431,lexical_decision_task_DD_L2,2021.2.3,Win32,59.74072525,,,,,,,,,,,,0.7371,1,,,,,,,,,,,,,,z,1,0.7371,,,,,,,,0.030555569,-0.437037108,0,0,0,,0,71,71,86,1,AIFED,LB,old,z,./images/AIFEDLB.png,,,,,,,,,,,,,,,,,,,,,,
,,,,,,,,,,,,,,,,,200641,21,2022-01-28_21h21.32.431,lexical_decision_task_DD_L2,2021.2.3,Win32,59.74072525,,,,,,,,,,,,0.9909,1,,,,,,,,,,,,,,z,1,0.9909,,,,,,,,0.030555569,-0.437037108,0,0,0,,0,72,72,139,1,BLEAR,HB,old,z,./images/BLEARHB.png,,,,,,,,,,,,,,,,,,,,,,
,,,,,,,,,,,,,,,,,200641,21,2022-01-28_21h21.32.431,lexical_decision_task_DD_L2,2021.2.3,Win32,59.74072525,,,,,,,,,,,,0.6097,1,,,,,,,,,,,,,,z,1,0.6097,,,,,,,,0.030555569,-0.437037108,0,0,0,,0,73,73,90,1,NEAST,C,old,z,./images/NEAST.png,,,,,,,,,,,,,,,,,,,,,,
,,,,,,,,,,,,,,,,,200641,21,2022-01-28_21h21.32.431,lexical_decision_task_DD_L2,2021.2.3,Win32,59.74072525,,,,,,,,,,,,0.9374,1,,,,,,,,,,,,,,m,1,0.9374,,,,,,,,0.030555569,-0.437037108,0,0,0,,0,74,74,31,1,QUILL,LB,old,m,./images/QUILLLB.png,,,,,,,,,,,,,,,,,,,,,,
,,,,,,,,,,,,,,,,,200641,21,2022-01-28_21h21.32.431,lexical_decision_task_DD_L2,2021.2.3,Win32,59.74072525,,,,,,,,,,,,1.0601,1,,,,,,,,,,,,,,z,1,1.0601,,,,,,,,0.030555569,-0.437037108,0,0,0,,0,75,75,103,1,FLORT,HB,old,z,./images/FLORTHB.png,,,,,,,,,,,,,,,,,,,,,,
,,,,,,,,,,,,,,,,,200641,21,2022-01-28_21h21.32.431,lexical_decision_task_DD_L2,2021.2.3,Win32,59.74072525,,,,,,,,,,,,0.695,1,,,,,,,,,,,,,,m,1,0.695,,,,,,,,0.030555569,-0.437037108,0,0,0,,0,76,76,13,1,MOTOR,LB,old,m,./images/MOTORLB.png,,,,,,,,,,,,,,,,,,,,,,
,,,,,,,,,,,,,,,,,200641,21,2022-01-28_21h21.32.431,lexical_decision_task_DD_L2,2021.2.3,Win32,59.74072525,,,,,,,,,,,,0.8969,1,,,,,,,,,,,,,,m,1,0.8969,,,,,,,,0.030555569,-0.437037108,0,0,0,,0,77,77,41,1,STRING,C,old,m,./images/STRING.png,,,,,,,,,,,,,,,,,,,,,,
,,,,,,,,,,,,,,,,,200641,21,2022-01-28_21h21.32.431,lexical_decision_task_DD_L2,2021.2.3,Win32,59.74072525,,,,,,,,,,,,0.9417,1,,,,,,,,,,,,,,z,1,0.9417,,,,,,,,0.030555569,-0.437037108,0,0,0,,0,78,78,163,1,GAMBA,HB,old,z,./images/GAMBAHB.png,,,,,,,,,,,,,,,,,,,,,,
,,,,,,,,,,,,,,,,,200641,21,2022-01-28_21h21.32.431,lexical_decision_task_DD_L2,2021.2.3,Win32,59.74072525,,,,,,,,,,,,1.2222,1,,,,,,,,,,,,,,m,1,1.2222,,,,,,,,0.030555569,-0.437037108,0,0,0,,0,79,79,69,1,COOKER,HB,old,m,./images/COOKERHB.png,,,,,,,,,,,,,,,,,,,,,,
,,,,,,,,,,,,,,,,,200641,21,2022-01-28_21h21.32.431,lexical_decision_task_DD_L2,2021.2.3,Win32,59.74072525,,,,,,,,,,,,1.0817,1,,,,,,,,,,,,,,z,1,1.0817,,,,,,,,0.030555569,-0.437037108,0,0,0,,0,80,80,131,1,NACES,LB,old,z,./images/NACESLB.png,,,,,,,,,,,,,,,,,,,,,,
,,,,,,,,,,,,,,,,,200641,21,2022-01-28_21h21.32.431,lexical_decision_task_DD_L2,2021.2.3,Win32,59.74072525,,,,,,,,,,,,1.0466,1,,,,,,,,,,,,,,z,1,1.0466,,,,,,,,0.030555569,-0.437037108,0,0,0,,0,81,81,146,1,MOOST,LB,old,z,./images/MOOSTLB.png,,,,,,,,,,,,,,,,,,,,,,
,,,,,,,,,,,,,,,,,200641,21,2022-01-28_21h21.32.431,lexical_decision_task_DD_L2,2021.2.3,Win32,59.74072525,,,,,,,,,,,,1.1136,1,,,,,,,,,,,,,,m,1,1.1136,,,,,,,,0.030555569,-0.437037108,0,0,0,,0,82,82,28,1,FALCON,LB,old,m,./images/FALCONLB.png,,,,,,,,,,,,,,,,,,,,,,
,,,,,,,,,,,,,,,,,200641,21,2022-01-28_21h21.32.431,lexical_decision_task_DD_L2,2021.2.3,Win32,59.74072525,,,,,,,,,,,,0.7679,1,,,,,,,,,,,,,,z,1,0.7679,,,,,,,,0.030555569,-0.437037108,1,0,0,,0,83,83,89,1,DRIEK,LB,old,z,./images/DRIEKLB.png,break_done_button,,,,,,,,,,,,,,,,,,,,,
,,,,,,,,,,,,,,,,,200641,21,2022-01-28_21h21.32.431,lexical_decision_task_DD_L2,2021.2.3,Win32,59.74072525,,,,,,,,,,,,0.8206,1,,,,,,,,,,,,,,m,1,0.8206,,,,,,,,0.030555569,-0.437037108,0,0,0,,0,84,84,79,1,CRUST,LB,old,m,./images/CRUSTLB.png,,,,,,,,,,,,,,,,,,,,,,
,,,,,,,,,,,,,,,,,200641,21,2022-01-28_21h21.32.431,lexical_decision_task_DD_L2,2021.2.3,Win32,59.74072525,,,,,,,,,,,,0.6769,1,,,,,,,,,,,,,,z,1,0.6769,,,,,,,,0.030555569,-0.437037108,0,0,0,,0,85,85,123,1,SEDGE,C,old,z,./images/SEDGE.png,,,,,,,,,,,,,,,,,,,,,,
,,,,,,,,,,,,,,,,,200641,21,2022-01-28_21h21.32.431,lexical_decision_task_DD_L2,2021.2.3,Win32,59.74072525,,,,,,,,,,,,0.6472,1,,,,,,,,,,,,,,z,1,0.6472,,,,,,,,0.030555569,-0.437037108,0,0,0,,0,86,86,137,1,JOOST,LB,old,z,./images/JOOSTLB.png,,,,,,,,,,,,,,,,,,,,,,
,,,,,,,,,,,,,,,,,200641,21,2022-01-28_21h21.32.431,lexical_decision_task_DD_L2,2021.2.3,Win32,59.74072525,,,,,,,,,,,,1.2765,1,,,,,,,,,,,,,,m,1,1.2765,,,,,,,,0.030555569,-0.437037108,0,0,0,,0,87,87,9,1,RHINO,HB,old,m,./images/RHINOHB.png,,,,,,,,,,,,,,,,,,,,,,
,,,,,,,,,,,,,,,,,200641,21,2022-01-28_21h21.32.431,lexical_decision_task_DD_L2,2021.2.3,Win32,59.74072525,,,,,,,,,,,,0.7641,1,,,,,,,,,,,,,,m,1,0.7641,,,,,,,,0.030555569,-0.437037108,0,0,0,,0,88,88,58,1,BABOON,LB,old,m,./images/BABOONLB.png,,,,,,,,,,,,,,,,,,,,,,
,,,,,,,,,,,,,,,,,200641,21,2022-01-28_21h21.32.431,lexical_decision_task_DD_L2,2021.2.3,Win32,59.74072525,,,,,,,,,,,,0.7235,1,,,,,,,,,,,,,,m,1,0.7235,,,,,,,,0.030555569,-0.437037108,0,0,0,,0,89,89,52,1,BANNER,LB,old,m,./images/BANNERLB.png,,,,,,,,,,,,,,,,,,,,,,
,,,,,,,,,,,,,,,,,200641,21,2022-01-28_21h21.32.431,lexical_decision_task_DD_L2,2021.2.3,Win32,59.74072525,,,,,,,,,,,,0.5324,1,,,,,,,,,,,,,,m,1,0.5324,,,,,,,,0.030555569,-0.437037108,0,0,0,,0,90,90,14,1,PICKLE,C,old,m,./images/PICKLE.png,,,,,,,,,,,,,,,,,,,,,,
,,,,,,,,,,,,,,,,,200641,21,2022-01-28_21h21.32.431,lexical_decision_task_DD_L2,2021.2.3,Win32,59.74072525,,,,,,,,,,,,0.7693,1,,,,,,,,,,,,,,z,1,0.7693,,,,,,,,0.030555569,-0.437037108,0,0,0,,0,91,91,162,1,LEICH,C,old,z,./images/LEICH.png,,,,,,,,,,,,,,,,,,,,,,
,,,,,,,,,,,,,,,,,200641,21,2022-01-28_21h21.32.431,lexical_decision_task_DD_L2,2021.2.3,Win32,59.74072525,,,,,,,,,,,,0.8295,1,,,,,,,,,,,,,,z,1,0.8295,,,,,,,,0.030555569,-0.437037108,0,0,0,,0,92,92,91,1,SHENS,HB,old,z,./images/SHENSHB.png,,,,,,,,,,,,,,,,,,,,,,
,,,,,,,,,,,,,,,,,200641,21,2022-01-28_21h21.32.431,lexical_decision_task_DD_L2,2021.2.3,Win32,59.74072525,,,,,,,,,,,,1.0793,1,,,,,,,,,,,,,,z,1,1.0793,,,,,,,,0.030555569,-0.437037108,0,0,0,,0,93,93,104,1,GITTY,LB,old,z,./images/GITTYLB.png,,,,,,,,,,,,,,,,,,,,,,
,,,,,,,,,,,,,,,,,200641,21,2022-01-28_21h21.32.431,lexical_decision_task_DD_L2,2021.2.3,Win32,59.74072525,,,,,,,,,,,,0.8671,1,,,,,,,,,,,,,,m,1,0.8671,,,,,,,,0.030555569,-0.437037108,0,0,0,,0,94,94,10,1,BELLY,LB,old,m,./images/BELLYLB.png,,,,,,,,,,,,,,,,,,,,,,
,,,,,,,,,,,,,,,,,200641,21,2022-01-28_21h21.32.431,lexical_decision_task_DD_L2,2021.2.3,Win32,59.74072525,,,,,,,,,,,,2.788,1,,,,,,,,,,,,,,z,1,2.788,,,,,,,,0.030555569,-0.437037108,0,0,0,,0,95,95,151,1,TINKY,HB,old,z,./images/TINKYHB.png,,,,,,,,,,,,,,,,,,,,,,
,,,,,,,,,,,,,,,,,200641,21,2022-01-28_21h21.32.431,lexical_decision_task_DD_L2,2021.2.3,Win32,59.74072525,,,,,,,,,,,,0.7588,1,,,,,,,,,,,,,,m,1,0.7588,,,,,,,,0.030555569,-0.437037108,0,0,0,,0,96,96,47,1,BERRY,C,old,m,./images/BERRY.png,,,,,,,,,,,,,,,,,,,,,,
,,,,,,,,,,,,,,,,,200641,21,2022-01-28_21h21.32.431,lexical_decision_task_DD_L2,2021.2.3,Win32,59.74072525,,,,,,,,,,,,1.5049,1,,,,,,,,,,,,,,m,1,1.5049,,,,,,,,0.030555569,-0.437037108,0,0,0,,0,97,97,55,1,MUFFIN,LB,old,m,./images/MUFFINLB.png,,,,,,,,,,,,,,,,,,,,,,
,,,,,,,,,,,,,,,,,200641,21,2022-01-28_21h21.32.431,lexical_decision_task_DD_L2,2021.2.3,Win32,59.74072525,,,,,,,,,,,,0.6968,1,,,,,,,,,,,,,,z,1,0.6968,,,,,,,,0.030555569,-0.437037108,0,0,0,,0,98,98,153,1,CLUPS,C,old,z,./images/CLUPS.png,,,,,,,,,,,,,,,,,,,,,,
,,,,,,,,,,,,,,,,,200641,21,2022-01-28_21h21.32.431,lexical_decision_task_DD_L2,2021.2.3,Win32,59.74072525,,,,,,,,,,,,0.927,1,,,,,,,,,,,,,,m,1,0.927,,,,,,,,0.030555569,-0.437037108,0,0,0,,0,99,99,78,1,LITTER,HB,old,m,./images/LITTERHB.png,,,,,,,,,,,,,,,,,,,,,,
,,,,,,,,,,,,,,,,,200641,21,2022-01-28_21h21.32.431,lexical_decision_task_DD_L2,2021.2.3,Win32,59.74072525,,,,,,,,,,,,1.2044,1,,,,,,,,,,,,,,m,1,1.2044,,,,,,,,0.030555569,-0.437037108,0,0,0,,0,100,100,19,1,DOUGH,LB,old,m,./images/DOUGHLB.png,,,,,,,,,,,,,,,,,,,,,,
,,,,,,,,,,,,,,,,,200641,21,2022-01-28_21h21.32.431,lexical_decision_task_DD_L2,2021.2.3,Win32,59.74072525,,,,,,,,,,,,0.9613,1,,,,,,,,,,,,,,z,1,0.9613,,,,,,,,0.030555569,-0.437037108,0,0,0,,0,101,101,85,1,CHULK,HB,old,z,./images/CHULKHB.png,,,,,,,,,,,,,,,,,,,,,,
,,,,,,,,,,,,,,,,,200641,21,2022-01-28_21h21.32.431,lexical_decision_task_DD_L2,2021.2.3,Win32,59.74072525,,,,,,,,,,,,0.5976,1,,,,,,,,,,,,,,z,1,0.5976,,,,,,,,0.030555569,-0.437037108,0,0,0,,0,102,102,156,1,HIXES,C,old,z,./images/HIXES.png,,,,,,,,,,,,,,,,,,,,,,
,,,,,,,,,,,,,,,,,200641,21,2022-01-28_21h21.32.431,lexical_decision_task_DD_L2,2021.2.3,Win32,59.74072525,,,,,,,,,,,,0.7307,1,,,,,,,,,,,,,,z,1,0.7307,,,,,,,,0.030555569,-0.437037108,0,0,0,,0,103,103,111,1,HOSSE,C,old,z,./images/HOSSE.png,,,,,,,,,,,,,,,,,,,,,,
,,,,,,,,,,,,,,,,,200641,21,2022-01-28_21h21.32.431,lexical_decision_task_DD_L2,2021.2.3,Win32,59.74072525,,,,,,,,,,,,0.6368,1,,,,,,,,,,,,,,z,1,0.6368,,,,,,,,0.030555569,-0.437037108,0,0,0,,0,104,104,95,1,HANTY,LB,old,z,./images/HANTYLB.png,,,,,,,,,,,,,,,,,,,,,,
,,,,,,,,,,,,,,,,,200641,21,2022-01-28_21h21.32.431,lexical_decision_task_DD_L2,2021.2.3,Win32,59.74072525,,,,,,,,,,,,0.6062,1,,,,,,,,,,,,,,m,1,0.6062,,,,,,,,0.030555569,-0.437037108,0,0,0,,0,105,105,36,1,THROAT,HB,old,m,./images/THROATHB.png,,,,,,,,,,,,,,,,,,,,,,
,,,,,,,,,,,,,,,,,200641,21,2022-01-28_21h21.32.431,lexical_decision_task_DD_L2,2021.2.3,Win32,59.74072525,,,,,,,,,,,,0.5618,1,,,,,,,,,,,,,,z,1,0.5618,,,,,,,,0.030555569,-0.437037108,0,0,0,,0,106,106,138,1,PLICE,C,old,z,./images/PLICE.png,,,,,,,,,,,,,,,,,,,,,,
,,,,,,,,,,,,,,,,,200641,21,2022-01-28_21h21.32.431,lexical_decision_task_DD_L2,2021.2.3,Win32,59.74072525,,,,,,,,,,,,1.3106,1,,,,,,,,,,,,,,m,1,1.3106,,,,,,,,0.030555569,-0.437037108,0,0,0,,0,107,107,22,1,MELON,LB,old,m,./images/MELONLB.png,,,,,,,,,,,,,,,,,,,,,,
,,,,,,,,,,,,,,,,,200641,21,2022-01-28_21h21.32.431,lexical_decision_task_DD_L2,2021.2.3,Win32,59.74072525,,,,,,,,,,,,0.6766,1,,,,,,,,,,,,,,z,1,0.6766,,,,,,,,0.030555569,-0.437037108,0,0,0,,0,108,108,114,1,RIKES,C,old,z,./images/RIKES.png,,,,,,,,,,,,,,,,,,,,,,
,,,,,,,,,,,,,,,,,200641,21,2022-01-28_21h21.32.431,lexical_decision_task_DD_L2,2021.2.3,Win32,59.74072525,,,,,,,,,,,,0.7649,1,,,,,,,,,,,,,,z,1,0.7649,,,,,,,,0.030555569,-0.437037108,0,0,0,,0,109,109,154,1,THINT,HB,old,z,./images/THINTHB.png,,,,,,,,,,,,,,,,,,,,,,
,,,,,,,,,,,,,,,,,200641,21,2022-01-28_21h21.32.431,lexical_decision_task_DD_L2,2021.2.3,Win32,59.74072525,,,,,,,,,,,,0.9118,1,,,,,,,,,,,,,,m,1,0.9118,,,,,,,,0.030555569,-0.437037108,0,0,0,,0,110,110,59,1,BURIAL,C,old,m,./images/BURIAL.png,,,,,,,,,,,,,,,,,,,,,,
,,,,,,,,,,,,,,,,,200641,21,2022-01-28_21h21.32.431,lexical_decision_task_DD_L2,2021.2.3,Win32,59.74072525,,,,,,,,,,,,0.6243,1,,,,,,,,,,,,,,z,1,0.6243,,,,,,,,0.030555569,-0.437037108,0,0,0,,0,111,111,134,1,TROSS,LB,old,z,./images/TROSSLB.png,,,,,,,,,,,,,,,,,,,,,,
,,,,,,,,,,,,,,,,,200641,21,2022-01-28_21h21.32.431,lexical_decision_task_DD_L2,2021.2.3,Win32,59.74072525,,,,,,,,,,,,0.9838,1,,,,,,,,,,,,,,z,1,0.9838,,,,,,,,0.030555569,-0.437037108,0,0,0,,0,112,112,93,1,SMONE,C,old,z,./images/SMONE.png,,,,,,,,,,,,,,,,,,,,,,
,,,,,,,,,,,,,,,,,200641,21,2022-01-28_21h21.32.431,lexical_decision_task_DD_L2,2021.2.3,Win32,59.74072525,,,,,,,,,,,,0.596,1,,,,,,,,,,,,,,z,1,0.596,,,,,,,,0.030555569,-0.437037108,0,0,0,,0,113,113,117,1,STEEG,C,old,z,./images/STEEG.png,,,,,,,,,,,,,,,,,,,,,,
,,,,,,,,,,,,,,,,,200641,21,2022-01-28_21h21.32.431,lexical_decision_task_DD_L2,2021.2.3,Win32,59.74072525,,,,,,,,,,,,0.5394,1,,,,,,,,,,,,,,z,1,0.5394,,,,,,,,0.030555569,-0.437037108,0,0,0,,0,114,114,158,1,EGECT,LB,old,z,./images/EGECTLB.png,,,,,,,,,,,,,,,,,,,,,,
,,,,,,,,,,,,,,,,,200641,21,2022-01-28_21h21.32.431,lexical_decision_task_DD_L2,2021.2.3,Win32,59.74072525,,,,,,,,,,,,1.2003,1,,,,,,,,,,,,,,m,1,1.2003,,,,,,,,0.030555569,-0.437037108,0,0,0,,0,115,115,26,1,SMOKER,C,old,m,./images/SMOKER.png,,,,,,,,,,,,,,,,,,,,,,
,,,,,,,,,,,,,,,,,200641,21,2022-01-28_21h21.32.431,lexical_decision_task_DD_L2,2021.2.3,Win32,59.74072525,,,,,,,,,,,,0.8997,1,,,,,,,,,,,,,,m,1,0.8997,,,,,,,,0.030555569,-0.437037108,0,0,0,,0,116,116,48,1,SPORT,HB,old,m,./images/SPORTHB.png,,,,,,,,,,,,,,,,,,,,,,
,,,,,,,,,,,,,,,,,200641,21,2022-01-28_21h21.32.431,lexical_decision_task_DD_L2,2021.2.3,Win32,59.74072525,,,,,,,,,,,,0.5113,0,,,,,,,,,,,,,,z,0,0.5113,,,,,,,,0.030555569,-0.437037108,0,0,0,,0,117,117,4,1,MUSCLE,LB,old,m,./images/MUSCLELB.png,,,,,,,,,,,,,,,,,,,,,,
,,,,,,,,,,,,,,,,,200641,21,2022-01-28_21h21.32.431,lexical_decision_task_DD_L2,2021.2.3,Win32,59.74072525,,,,,,,,,,,,0.755,1,,,,,,,,,,,,,,z,1,0.755,,,,,,,,0.030555569,-0.437037108,0,0,0,,0,118,118,121,1,CEERS,HB,old,z,./images/CEERSHB.png,,,,,,,,,,,,,,,,,,,,,,
,,,,,,,,,,,,,,,,,200641,21,2022-01-28_21h21.32.431,lexical_decision_task_DD_L2,2021.2.3,Win32,59.74072525,,,,,,,,,,,,0.6699,1,,,,,,,,,,,,,,m,1,0.6699,,,,,,,,0.030555569,-0.437037108,0,0,0,,0,119,119,60,1,TWINS,HB,old,m,./images/TWINSHB.png,,,,,,,,,,,,,,,,,,,,,,
,,,,,,,,,,,,,,,,,200641,21,2022-01-28_21h21.32.431,lexical_decision_task_DD_L2,2021.2.3,Win32,59.74072525,,,,,,,,,,,,0.677,1,,,,,,,,,,,,,,m,1,0.677,,,,,,,,0.030555569,-0.437037108,0,0,0,,0,120,120,64,1,JELLY,LB,old,m,./images/JELLYLB.png,,,,,,,,,,,,,,,,,,,,,,
,,,,,,,,,,,,,,,,,200641,21,2022-01-28_21h21.32.431,lexical_decision_task_DD_L2,2021.2.3,Win32,59.74072525,,,,,,,,,,,,0.5381,1,,,,,,,,,,,,,,m,1,0.5381,,,,,,,,0.030555569,-0.437037108,0,0,0,,0,121,121,32,1,BARREL,C,old,m,./images/BARREL.png,,,,,,,,,,,,,,,,,,,,,,
,,,,,,,,,,,,,,,,,200641,21,2022-01-28_21h21.32.431,lexical_decision_task_DD_L2,2021.2.3,Win32,59.74072525,,,,,,,,,,,,0.7366,1,,,,,,,,,,,,,,z,1,0.7366,,,,,,,,0.030555569,-0.437037108,0,0,0,,0,122,122,145,1,LAMEL,HB,old,z,./images/LAMELHB.png,,,,,,,,,,,,,,,,,,,,,,
,,,,,,,,,,,,,,,,,200641,21,2022-01-28_21h21.32.431,lexical_decision_task_DD_L2,2021.2.3,Win32,59.74072525,,,,,,,,,,,,1.1099,1,,,,,,,,,,,,,,m,1,1.1099,,,,,,,,0.030555569,-0.437037108,0,0,0,,0,123,123,12,1,SHORE,HB,old,m,./images/SHOREHB.png,,,,,,,,,,,,,,,,,,,,,,
,,,,,,,,,,,,,,,,,200641,21,2022-01-28_21h21.32.431,lexical_decision_task_DD_L2,2021.2.3,Win32,59.74072525,,,,,,,,,,,,1.0234,0,,,,,,,,,,,,,,m,0,1.0234,,,,,,,,0.030555569,-0.437037108,0,0,0,,0,124,124,128,1,GRIFT,LB,old,z,./images/GRIFTLB.png,,,,,,,,,,,,,,,,,,,,,,
,,,,,,,,,,,,,,,,,200641,21,2022-01-28_21h21.32.431,lexical_decision_task_DD_L2,2021.2.3,Win32,59.74072525,,,,,,,,,,,,1.0228,1,,,,,,,,,,,,,,m,1,1.0228,,,,,,,,0.030555569,-0.437037108,0,0,0,space,0,125,125,39,1,SHELF,HB,old,m,./images/SHELFHB.png,,2.5804,,,,,,,,,,,,,,,,,,,,
,,,,,,,,,,,,,,,,,200641,21,2022-01-28_21h21.32.431,lexical_decision_task_DD_L2,2021.2.3,Win32,59.74072525,,,,,,,,,,,,1.0979,1,,,,,,,,,,,,,,z,1,1.0979,,,,,,,,0.030555569,-0.437037108,0,0,0,,0,126,126,105,1,MOKER,C,old,z,./images/MOKER.png,,,,,,,,,,,,,,,,,,,,,,
,,,,,,,,,,,,,,,,,200641,21,2022-01-28_21h21.32.431,lexical_decision_task_DD_L2,2021.2.3,Win32,59.74072525,,,,,,,,,,,,0.5922,1,,,,,,,,,,,,,,z,1,0.5922,,,,,,,,0.030555569,-0.437037108,0,0,0,,0,127,127,102,1,DULLE,C,old,z,./images/DULLE.png,,,,,,,,,,,,,,,,,,,,,,
,,,,,,,,,,,,,,,,,200641,21,2022-01-28_21h21.32.431,lexical_decision_task_DD_L2,2021.2.3,Win32,59.74072525,,,,,,,,,,,,0.6924,1,,,,,,,,,,,,,,m,1,0.6924,,,,,,,,0.030555569,-0.437037108,0,0,0,,0,128,128,80,1,WEASEL,C,old,m,./images/WEASEL.png,,,,,,,,,,,,,,,,,,,,,,
,,,,,,,,,,,,,,,,,200641,21,2022-01-28_21h21.32.431,lexical_decision_task_DD_L2,2021.2.3,Win32,59.74072525,,,,,,,,,,,,0.666,1,,,,,,,,,,,,,,m,1,0.666,,,,,,,,0.030555569,-0.437037108,0,0,0,,0,129,129,1,1,PLANK,LB,old,m,./images/PLANKLB.png,,,,,,,,,,,,,,,,,,,,,,
,,,,,,,,,,,,,,,,,200641,21,2022-01-28_21h21.32.431,lexical_decision_task_DD_L2,2021.2.3,Win32,59.74072525,,,,,,,,,,,,0.6296,1,,,,,,,,,,,,,,m,1,0.6296,,,,,,,,0.030555569,-0.437037108,0,0,0,,0,130,130,83,1,JUNGLE,C,old,m,./images/JUNGLE.png,,,,,,,,,,,,,,,,,,,,,,
,,,,,,,,,,,,,,,,,200641,21,2022-01-28_21h21.32.431,lexical_decision_task_DD_L2,2021.2.3,Win32,59.74072525,,,,,,,,,,,,0.6794,1,,,,,,,,,,,,,,z,1,0.6794,,,,,,,,0.030555569,-0.437037108,0,0,0,,0,131,131,108,1,GRUET,C,old,z,./images/GRUET.png,,,,,,,,,,,,,,,,,,,,,,
,,,,,,,,,,,,,,,,,200641,21,2022-01-28_21h21.32.431,lexical_decision_task_DD_L2,2021.2.3,Win32,59.74072525,,,,,,,,,,,,0.8104,0,,,,,,,,,,,,,,z,0,0.8104,,,,,,,,0.030555569,-0.437037108,0,0,0,,0,132,132,54,1,TRIPOD,HB,old,m,./images/TRIPODHB.png,,,,,,,,,,,,,,,,,,,,,,
,,,,,,,,,,,,,,,,,200641,21,2022-01-28_21h21.32.431,lexical_decision_task_DD_L2,2021.2.3,Win32,59.74072525,,,,,,,,,,,,0.8542,1,,,,,,,,,,,,,,m,1,0.8542,,,,,,,,0.030555569,-0.437037108,0,0,0,,0,133,133,62,1,PURSE,C,old,m,./images/PURSE.png,,,,,,,,,,,,,,,,,,,,,,
,,,,,,,,,,,,,,,,,200641,21,2022-01-28_21h21.32.431,lexical_decision_task_DD_L2,2021.2.3,Win32,59.74072525,,,,,,,,,,,,1.5057,1,,,,,,,,,,,,,,z,1,1.5057,,,,,,,,0.030555569,-0.437037108,0,0,0,,0,134,134,100,1,DRIBS,HB,old,z,./images/DRIBSHB.png,,,,,,,,,,,,,,,,,,,,,,
,,,,,,,,,,,,,,,,,200641,21,2022-01-28_21h21.32.431,lexical_decision_task_DD_L2,2021.2.3,Win32,59.74072525,,,,,,,,,,,,0.5424,1,,,,,,,,,,,,,,m,1,0.5424,,,,,,,,0.030555569,-0.437037108,0,0,0,,0,135,135,44,1,LIZARD,C,old,m,./images/LIZARD.png,,,,,,,,,,,,,,,,,,,,,,
,,,,,,,,,,,,,,,,,200641,21,2022-01-28_21h21.32.431,lexical_decision_task_DD_L2,2021.2.3,Win32,59.74072525,,,,,,,,,,,,1.5059,1,,,,,,,,,,,,,,z,1,1.5059,,,,,,,,0.030555569,-0.437037108,0,0,0,,0,136,136,109,1,BURGE,HB,old,z,./images/BURGEHB.png,,,,,,,,,,,,,,,,,,,,,,
,,,,,,,,,,,,,,,,,200641,21,2022-01-28_21h21.32.431,lexical_decision_task_DD_L2,2021.2.3,Win32,59.74072525,,,,,,,,,,,,1.0573,1,,,,,,,,,,,,,,m,1,1.0573,,,,,,,,0.030555569,-0.437037108,0,0,0,,0,137,137,77,1,COUCH,C,old,m,./images/COUCH.png,,,,,,,,,,,,,,,,,,,,,,
,,,,,,,,,,,,,,,,,200641,21,2022-01-28_21h21.32.431,lexical_decision_task_DD_L2,2021.2.3,Win32,59.74072525,,,,,,,,,,,,1.032,1,,,,,,,,,,,,,,m,1,1.032,,,,,,,,0.030555569,-0.437037108,0,0,0,,0,138,138,0,1,TOMATO,HB,old,m,./images/TOMATOHB.png,,,,,,,,,,,,,,,,,,,,,,
,,,,,,,,,,,,,,,,,200641,21,2022-01-28_21h21.32.431,lexical_decision_task_DD_L2,2021.2.3,Win32,59.74072525,,,,,,,,,,,,1.5707,1,,,,,,,,,,,,,,z,1,1.5707,,,,,,,,0.030555569,-0.437037108,0,0,0,,0,139,139,106,1,CLUMS,HB,old,z,./images/CLUMSHB.png,,,,,,,,,,,,,,,,,,,,,,
,,,,,,,,,,,,,,,,,200641,21,2022-01-28_21h21.32.431,lexical_decision_task_DD_L2,2021.2.3,Win32,59.74072525,,,,,,,,,,,,0.6013,1,,,,,,,,,,,,,,m,1,0.6013,,,,,,,,0.030555569,-0.437037108,0,0,0,,0,140,140,27,1,ATTIC,HB,old,m,./images/ATTICHB.png,,,,,,,,,,,,,,,,,,,,,,
,,,,,,,,,,,,,,,,,200641,21,2022-01-28_21h21.32.431,lexical_decision_task_DD_L2,2021.2.3,Win32,59.74072525,,,,,,,,,,,,1.0608,1,,,,,,,,,,,,,,z,1,1.0608,,,,,,,,0.030555569,-0.437037108,0,0,0,,0,141,141,97,1,CHIDS,HB,old,z,./images/CHIDSHB.png,,,,,,,,,,,,,,,,,,,,,,
,,,,,,,,,,,,,,,,,200641,21,2022-01-28_21h21.32.431,lexical_decision_task_DD_L2,2021.2.3,Win32,59.74072525,,,,,,,,,,,,0.7275,1,,,,,,,,,,,,,,m,1,0.7275,,,,,,,,0.030555569,-0.437037108,0,0,0,,0,142,142,3,1,FINGER,HB,old,m,./images/FINGERHB.png,,,,,,,,,,,,,,,,,,,,,,
,,,,,,,,,,,,,,,,,200641,21,2022-01-28_21h21.32.431,lexical_decision_task_DD_L2,2021.2.3,Win32,59.74072525,,,,,,,,,,,,0.9751,0,,,,,,,,,,,,,,z,0,0.9751,,,,,,,,0.030555569,-0.437037108,0,0,0,,0,143,143,11,1,BONNET,C,old,m,./images/BONNET.png,,,,,,,,,,,,,,,,,,,,,,
,,,,,,,,,,,,,,,,,200641,21,2022-01-28_21h21.32.431,lexical_decision_task_DD_L2,2021.2.3,Win32,59.74072525,,,,,,,,,,,,1.0544,1,,,,,,,,,,,,,,m,1,1.0544,,,,,,,,0.030555569,-0.437037108,0,0,0,,0,144,144,17,1,SKIING,C,old,m,./images/SKIING.png,,,,,,,,,,,,,,,,,,,,,,
,,,,,,,,,,,,,,,,,200641,21,2022-01-28_21h21.32.431,lexical_decision_task_DD_L2,2021.2.3,Win32,59.74072525,,,,,,,,,,,,0.5979,1,,,,,,,,,,,,,,m,1,0.5979,,,,,,,,0.030555569,-0.437037108,0,0,0,,0,145,145,8,1,TULIP,C,old,m,./images/TULIP.png,,,,,,,,,,,,,,,,,,,,,,
,,,,,,,,,,,,,,,,,200641,21,2022-01-28_21h21.32.431,lexical_decision_task_DD_L2,2021.2.3,Win32,59.74072525,,,,,,,,,,,,1.0826,1,,,,,,,,,,,,,,z,1,1.0826,,,,,,,,0.030555569,-0.437037108,0,0,0,,0,146,146,118,1,BAVEL,HB,old,z,./images/BAVELHB.png,,,,,,,,,,,,,,,,,,,,,,
,,,,,,,,,,,,,,,,,200641,21,2022-01-28_21h21.32.431,lexical_decision_task_DD_L2,2021.2.3,Win32,59.74072525,,,,,,,,,,,,0.6534,1,,,,,,,,,,,,,,z,1,0.6534,,,,,,,,0.030555569,-0.437037108,0,0,0,,0,147,147,87,1,TRING,C,old,z,./images/TRING.png,,,,,,,,,,,,,,,,,,,,,,
,,,,,,,,,,,,,,,,,200641,21,2022-01-28_21h21.32.431,lexical_decision_task_DD_L2,2021.2.3,Win32,59.74072525,,,,,,,,,,,,0.6106,1,,,,,,,,,,,,,,m,1,0.6106,,,,,,,,0.030555569,-0.437037108,0,0,0,,0,148,148,37,1,BIRTH,LB,old,m,./images/BIRTHLB.png,,,,,,,,,,,,,,,,,,,,,,
,,,,,,,,,,,,,,,,,200641,21,2022-01-28_21h21.32.431,lexical_decision_task_DD_L2,2021.2.3,Win32,59.74072525,,,,,,,,,,,,0.6091,1,,,,,,,,,,,,,,m,1,0.6091,,,,,,,,0.030555569,-0.437037108,0,0,0,,0,149,149,29,1,CRUMB,C,old,m,./images/CRUMB.png,,,,,,,,,,,,,,,,,,,,,,
,,,,,,,,,,,,,,,,,200641,21,2022-01-28_21h21.32.431,lexical_decision_task_DD_L2,2021.2.3,Win32,59.74072525,,,,,,,,,,,,0.6721,1,,,,,,,,,,,,,,m,1,0.6721,,,,,,,,0.030555569,-0.437037108,0,0,0,,0,150,150,82,1,SUNSET,LB,old,m,./images/SUNSETLB.png,,,,,,,,,,,,,,,,,,,,,,
,,,,,,,,,,,,,,,,,200641,21,2022-01-28_21h21.32.431,lexical_decision_task_DD_L2,2021.2.3,Win32,59.74072525,,,,,,,,,,,,0.5648,1,,,,,,,,,,,,,,z,1,0.5648,,,,,,,,0.030555569,-0.437037108,0,0,0,,0,151,151,164,1,SGREW,LB,old,z,./images/SGREWLB.png,,,,,,,,,,,,,,,,,,,,,,
,,,,,,,,,,,,,,,,,200641,21,2022-01-28_21h21.32.431,lexical_decision_task_DD_L2,2021.2.3,Win32,59.74072525,,,,,,,,,,,,0.7545,1,,,,,,,,,,,,,,z,1,0.7545,,,,,,,,0.030555569,-0.437037108,0,0,0,,0,152,152,161,1,BLAPS,LB,old,z,./images/BLAPSLB.png,,,,,,,,,,,,,,,,,,,,,,
,,,,,,,,,,,,,,,,,200641,21,2022-01-28_21h21.32.431,lexical_decision_task_DD_L2,2021.2.3,Win32,59.74072525,,,,,,,,,,,,0.5046,1,,,,,,,,,,,,,,z,1,0.5046,,,,,,,,0.030555569,-0.437037108,0,0,0,,0,153,153,119,1,PAFER,LB,old,z,./images/PAFERLB.png,,,,,,,,,,,,,,,,,,,,,,
,,,,,,,,,,,,,,,,,200641,21,2022-01-28_21h21.32.431,lexical_decision_task_DD_L2,2021.2.3,Win32,59.74072525,,,,,,,,,,,,0.5154,1,,,,,,,,,,,,,,z,1,0.5154,,,,,,,,0.030555569,-0.437037108,0,0,0,,0,154,154,135,1,JOODY,C,old,z,./images/JOODY.png,,,,,,,,,,,,,,,,,,,,,,
,,,,,,,,,,,,,,,,,200641,21,2022-01-28_21h21.32.431,lexical_decision_task_DD_L2,2021.2.3,Win32,59.74072525,,,,,,,,,,,,0.6961,1,,,,,,,,,,,,,,z,1,0.6961,,,,,,,,0.030555569,-0.437037108,0,0,0,,0,155,155,148,1,JOMS,HB,old,z,./images/JOMSHB.png,,,,,,,,,,,,,,,,,,,,,,
,,,,,,,,,,,,,,,,,200641,21,2022-01-28_21h21.32.431,lexical_decision_task_DD_L2,2021.2.3,Win32,59.74072525,,,,,,,,,,,,0.7117,1,,,,,,,,,,,,,,m,1,0.7117,,,,,,,,0.030555569,-0.437037108,0,0,0,,0,156,156,66,1,SWEAT,HB,old,m,./images/SWEATHB.png,,,,,,,,,,,,,,,,,,,,,,
,,,,,,,,,,,,,,,,,200641,21,2022-01-28_21h21.32.431,lexical_decision_task_DD_L2,2021.2.3,Win32,59.74072525,,,,,,,,,,,,0.6521,1,,,,,,,,,,,,,,m,1,0.6521,,,,,,,,0.030555569,-0.437037108,0,0,0,,0,157,157,76,1,INFANT,LB,old,m,./images/INFANTLB.png,,,,,,,,,,,,,,,,,,,,,,
,,,,,,,,,,,,,,,,,200641,21,2022-01-28_21h21.32.431,lexical_decision_task_DD_L2,2021.2.3,Win32,59.74072525,,,,,,,,,,,,0.7232,1,,,,,,,,,,,,,,z,1,0.7232,,,,,,,,0.030555569,-0.437037108,0,0,0,,0,158,158,152,1,FRAIN,LB,old,z,./images/FRAINLB.png,,,,,,,,,,,,,,,,,,,,,,
,,,,,,,,,,,,,,,,,200641,21,2022-01-28_21h21.32.431,lexical_decision_task_DD_L2,2021.2.3,Win32,59.74072525,,,,,,,,,,,,0.8759,1,,,,,,,,,,,,,,m,1,0.8759,,,,,,,,0.030555569,-0.437037108,0,0,0,,0,159,159,45,1,KITTEN,HB,old,m,./images/KITTENHB.png,,,,,,,,,,,,,,,,,,,,,,
,,,,,,,,,,,,,,,,,200641,21,2022-01-28_21h21.32.431,lexical_decision_task_DD_L2,2021.2.3,Win32,59.74072525,,,,,,,,,,,,1.1299,1,,,,,,,,,,,,,,m,1,1.1299,,,,,,,,0.030555569,-0.437037108,0,0,0,,0,160,160,72,1,NOOSE,HB,old,m,./images/NOOSEHB.png,,,,,,,,,,,,,,,,,,,,,,
,,,,,,,,,,,,,,,,,200641,21,2022-01-28_21h21.32.431,lexical_decision_task_DD_L2,2021.2.3,Win32,59.74072525,,,,,,,,,,,,0.4983,1,,,,,,,,,,,,,,m,1,0.4983,,,,,,,,0.030555569,-0.437037108,0,0,0,,0,161,161,2,1,BEARD,C,old,m,./images/BEARD.png,,,,,,,,,,,,,,,,,,,,,,
,,,,,,,,,,,,,,,,,200641,21,2022-01-28_21h21.32.431,lexical_decision_task_DD_L2,2021.2.3,Win32,59.74072525,,,,,,,,,,,,0.5052,1,,,,,,,,,,,,,,m,1,0.5052,,,,,,,,0.030555569,-0.437037108,0,0,0,,0,162,162,30,1,STORM,HB,old,m,./images/STORMHB.png,,,,,,,,,,,,,,,,,,,,,,
,,,,,,,,,,,,,,,,,200641,21,2022-01-28_21h21.32.431,lexical_decision_task_DD_L2,2021.2.3,Win32,59.74072525,,,,,,,,,,,,0.4854,1,,,,,,,,,,,,,,z,1,0.4854,,,,,,,,0.030555569,-0.437037108,0,0,0,,0,163,163,129,1,PRANS,C,old,z,./images/PRANS.png,,,,,,,,,,,,,,,,,,,,,,
,,,,,,,,,,,,,,,,,200641,21,2022-01-28_21h21.32.431,lexical_decision_task_DD_L2,2021.2.3,Win32,59.74072525,,,,,,,,,,,,0.5208,1,,,,,,,,,,,,,,m,1,0.5208,,,,,,,,0.030555569,-0.437037108,0,0,0,,0,164,164,57,1,MOOSE,HB,old,m,./images/MOOSEHB.png,,,,,,,,,,,,,,,,,,,,,,
,,,,,,,,,,,,,,,,,200641,21,2022-01-28_21h21.32.431,lexical_decision_task_DD_L2,2021.2.3,Win32,59.74072525,,,,,,,,,,,,0.6667,1,,,,,,,,,,,,,,m,1,0.6667,,,,,,,,0.030555569,-0.437037108,0,0,0,,0,165,165,50,1,MALLET,C,old,m,./images/MALLET.png,,,,,,,,,,,,,,,,,,,,,,
,,,,,,,,,,,,,,,,,200641,21,2022-01-28_21h21.32.431,lexical_decision_task_DD_L2,2021.2.3,Win32,59.74072525,,,,,,,,,,,,0.5133,1,,,,,,,,,,,,,,m,1,0.5133,,,,,,,,0.030555569,-0.437037108,0,0,0,,0,166,166,56,1,PACKET,C,old,m,./images/PACKET.png,,,,,,,,,,,,,,,,,,,,,,
,,,,,,,,,,,,,,,,,200641,21,2022-01-28_21h21.32.431,lexical_decision_task_DD_L2,2021.2.3,Win32,59.74072525,,,,,,,,,,,,0.6525,1,,,,,,,,,,,,,,z,1,0.6525,,,,,,,,0.030555569,-0.437037108,0,0,0,,0,167,167,120,1,RINED,C,old,z,./images/RINED.png,,,,,,,,,,,,,,,,,,,,,,
,0.030555569,-0.437037108,1,0,0,instr_done_button,,,,,,1,test,"In the next phase you will be presented with the words from the the first phase. Your job is to decide whether you remember seeing the word or not. If you remember seeing the word press ""old"" or type ""m"". If you do not remember seeing the word press ""new"" or type ""z"". Please press the space bar or click on continue to begin. ",,,200641,21,2022-01-28_21h21.32.431,lexical_decision_task_DD_L2,2021.2.3,Win32,59.74072525,,,,,,,,,,,,,,,,,,,,,,,,,,,,,,,,,,,,,,,,,,,,,,,,,,,,,,,0,0,0,0,1,,,,,,,,,,,,,,,
,-0.050925913,-0.419444458,1,0,0,instr_done_button,,,,,,1,test,"In the next phase you will be presented with the words from the the first phase. Your job is to decide whether you remember seeing the word or not. If you remember seeing the word press ""old"" or type ""m"". If you do not remember seeing the word press ""new"" or type ""z"". Please press the space bar or click on continue to begin. ",,,200641,21,2022-01-28_21h21.32.431,lexical_decision_task_DD_L2,2021.2.3,Win32,59.74072525,,,,,,,,,,,,,,,,,,,,,,,,,,,,,,,,,,,,,,,,,,,,,,,,,,,,,,,1,0,1,0,1,,,,,,,,,,,,,,,
space,-0.001851839,-0.381481551,0,0,0,,,,,,,1,test,"In the next phase you will be presented with the words from the the first phase. Your job is to decide whether you remember seeing the word or not. If you remember seeing the word press ""old"" or type ""m"". If you do not remember seeing the word press ""new"" or type ""z"". Please press the space bar or click on continue to begin. ",,,200641,21,2022-01-28_21h21.32.431,lexical_decision_task_DD_L2,2021.2.3,Win32,59.74072525,1.014,,,,,,,,,,,,,,,,,,,,,,,,,,,,,,,,,,,,,,,,,,,,,,,,,,,,,,2,0,2,0,1,,,,,,,,,,,,,,,
,-0.001851839,-0.381481551,1,0,0,instr_done_button,,,,,,1,test,"In the next phase you will be presented with the words from the the first phase. Your job is to decide whether you remember seeing the word or not. If you remember seeing the word press ""old"" or type ""m"". If you do not remember seeing the word press ""new"" or type ""z"". Please press the space bar or click on continue to begin. ",,,200641,21,2022-01-28_21h21.32.431,lexical_decision_task_DD_L2,2021.2.3,Win32,59.74072525,,,,,,,,,,,,,,,,,,,,,,,,,,,,,,,,,,,,,,,,,,,,,,,,,,,,,,,3,0,3,0,1,,,,,,,,,,,,,,,
,-0.001851839,-0.381481551,1,0,0,instr_done_button,,,,,,1,test,"In the next phase you will be presented with the words from the the first phase. Your job is to decide whether you remember seeing the word or not. If you remember seeing the word press ""old"" or type ""m"". If you do not remember seeing the word press ""new"" or type ""z"". Please press the space bar or click on continue to begin. ",,,200641,21,2022-01-28_21h21.32.431,lexical_decision_task_DD_L2,2021.2.3,Win32,59.74072525,,,,,,,,,,,,,,,,,,,,,,,,,,,,,,,,,,,,,,,,,,,,,,,,,,,,,,,4,0,4,0,1,,,,,,,,,,,,,,,
,,,,,,,,,,,,,,,,,200641,21,2022-01-28_21h21.32.431,lexical_decision_task_DD_L2,2021.2.3,Win32,59.74072525,,,,,,,,,,,,1.5636,1,,,,,,,,,,,,,,,,,,,,,,,,-0.001851839,-0.381481551,0,0,0,,,,,,,MUSCLE,LB,m,y,./images/MUSCLELB.png,,,,,,,,m,1,1.5636,,,,,,,,0,0,0,4,1
,,,,,,,,,,,,,,,,,200641,21,2022-01-28_21h21.32.431,lexical_decision_task_DD_L2,2021.2.3,Win32,59.74072525,,,,,,,,,,,,1.7962,1,,,,,,,,,,,,,,,,,,,,,,,,-0.001851839,-0.381481551,0,0,0,,,,,,,ALLEY,LB,z,y,./images/ALLEYLB.png,,,,,,,,z,1,1.7962,,,,,,,,0,1,1,139,1
,,,,,,,,,,,,,,,,,200641,21,2022-01-28_21h21.32.431,lexical_decision_task_DD_L2,2021.2.3,Win32,59.74072525,,,,,,,,,,,,0.6539,1,,,,,,,,,,,,,,,,,,,,,,,,-0.001851839,-0.381481551,0,0,0,,,,,,,TWINS,HB,m,y,./images/TWINSHB.png,,,,,,,,m,1,0.6539,,,,,,,,0,2,2,60,1
,,,,,,,,,,,,,,,,,200641,21,2022-01-28_21h21.32.431,lexical_decision_task_DD_L2,2021.2.3,Win32,59.74072525,,,,,,,,,,,,0.9132,1,,,,,,,,,,,,,,,,,,,,,,,,-0.001851839,-0.381481551,0,0,0,,,,,,,BANANA,LB,z,y,./images/BANANALB.png,,,,,,,,z,1,0.9132,,,,,,,,0,3,3,154,1
,,,,,,,,,,,,,,,,,200641,21,2022-01-28_21h21.32.431,lexical_decision_task_DD_L2,2021.2.3,Win32,59.74072525,,,,,,,,,,,,0.9564,0,,,,,,,,,,,,,,,,,,,,,,,,-0.001851839,-0.381481551,0,0,0,,,,,,,JUMPER,C,z,y,./images/JUMPER.png,,,,,,,,m,0,0.9564,,,,,,,,0,4,4,158,1
,,,,,,,,,,,,,,,,,200641,21,2022-01-28_21h21.32.431,lexical_decision_task_DD_L2,2021.2.3,Win32,59.74072525,,,,,,,,,,,,0.7359,1,,,,,,,,,,,,,,,,,,,,,,,,-0.001851839,-0.381481551,0,0,0,,,,,,,CRATER,HB,z,y,./images/CRATERHB.png,,,,,,,,z,1,0.7359,,,,,,,,0,5,5,87,1
,,,,,,,,,,,,,,,,,200641,21,2022-01-28_21h21.32.431,lexical_decision_task_DD_L2,2021.2.3,Win32,59.74072525,,,,,,,,,,,,1.9376,1,,,,,,,,,,,,,,,,,,,,,,,,-0.001851839,-0.381481551,0,0,0,,,,,,,SPINE,C,z,y,./images/SPINE.png,,,,,,,,z,1,1.9376,,,,,,,,0,6,6,149,1
,,,,,,,,,,,,,,,,,200641,21,2022-01-28_21h21.32.431,lexical_decision_task_DD_L2,2021.2.3,Win32,59.74072525,,,,,,,,,,,,0.5757,1,,,,,,,,,,,,,,,,,,,,,,,,-0.001851839,-0.381481551,0,0,0,,,,,,,PEACH,C,m,y,./images/PEACH.png,,,,,,,,m,1,0.5757,,,,,,,,0,7,7,35,1
,,,,,,,,,,,,,,,,,200641,21,2022-01-28_21h21.32.431,lexical_decision_task_DD_L2,2021.2.3,Win32,59.74072525,,,,,,,,,,,,0.6574,1,,,,,,,,,,,,,,,,,,,,,,,,-0.001851839,-0.381481551,0,0,0,,,,,,,PLANK,LB,m,y,./images/PLANKLB.png,,,,,,,,m,1,0.6574,,,,,,,,0,8,8,1,1
,,,,,,,,,,,,,,,,,200641,21,2022-01-28_21h21.32.431,lexical_decision_task_DD_L2,2021.2.3,Win32,59.74072525,,,,,,,,,,,,3.9218,1,,,,,,,,,,,,,,,,,,,,,,,,-0.001851839,-0.381481551,0,0,0,,,,,,,PAINT,LB,m,y,./images/PAINTLB.png,,,,,,,,m,1,3.9218,,,,,,,,0,9,9,7,1
,,,,,,,,,,,,,,,,,200641,21,2022-01-28_21h21.32.431,lexical_decision_task_DD_L2,2021.2.3,Win32,59.74072525,,,,,,,,,,,,0.8684,1,,,,,,,,,,,,,,,,,,,,,,,,-0.001851839,-0.381481551,0,0,0,,,,,,,TORCH,C,m,y,./images/TORCH.png,,,,,,,,m,1,0.8684,,,,,,,,0,10,10,68,1
,,,,,,,,,,,,,,,,,200641,21,2022-01-28_21h21.32.431,lexical_decision_task_DD_L2,2021.2.3,Win32,59.74072525,,,,,,,,,,,,0.7041,1,,,,,,,,,,,,,,,,,,,,,,,,-0.001851839,-0.381481551,0,0,0,,,,,,,RHINO,HB,m,y,./images/RHINOHB.png,,,,,,,,m,1,0.7041,,,,,,,,0,11,11,9,1
,,,,,,,,,,,,,,,,,200641,21,2022-01-28_21h21.32.431,lexical_decision_task_DD_L2,2021.2.3,Win32,59.74072525,,,,,,,,,,,,0.907,1,,,,,,,,,,,,,,,,,,,,,,,,-0.001851839,-0.381481551,0,0,0,,,,,,,KITTEN,HB,m,y,./images/KITTENHB.png,,,,,,,,m,1,0.907,,,,,,,,0,12,12,45,1
,,,,,,,,,,,,,,,,,200641,21,2022-01-28_21h21.32.431,lexical_decision_task_DD_L2,2021.2.3,Win32,59.74072525,,,,,,,,,,,,1.3499,0,,,,,,,,,,,,,,,,,,,,,,,,-0.001851839,-0.381481551,0,0,0,,,,,,,ARROW,HB,z,y,./images/ARROWHB.png,,,,,,,,m,0,1.3499,,,,,,,,0,13,13,153,1
,,,,,,,,,,,,,,,,,200641,21,2022-01-28_21h21.32.431,lexical_decision_task_DD_L2,2021.2.3,Win32,59.74072525,,,,,,,,,,,,1.0245,1,,,,,,,,,,,,,,,,,,,,,,,,-0.001851839,-0.381481551,0,0,0,,,,,,,BURIAL,C,m,y,./images/BURIAL.png,,,,,,,,m,1,1.0245,,,,,,,,0,14,14,59,1
,,,,,,,,,,,,,,,,,200641,21,2022-01-28_21h21.32.431,lexical_decision_task_DD_L2,2021.2.3,Win32,59.74072525,,,,,,,,,,,,0.6842,1,,,,,,,,,,,,,,,,,,,,,,,,-0.001851839,-0.381481551,0,0,0,,,,,,,FENCE,C,z,y,./images/FENCE.png,,,,,,,,z,1,0.6842,,,,,,,,0,15,15,98,1
,,,,,,,,,,,,,,,,,200641,21,2022-01-28_21h21.32.431,lexical_decision_task_DD_L2,2021.2.3,Win32,59.74072525,,,,,,,,,,,,0.7068,1,,,,,,,,,,,,,,,,,,,,,,,,-0.001851839,-0.381481551,0,0,0,,,,,,,FLASK,HB,z,y,./images/FLASKHB.png,,,,,,,,z,1,0.7068,,,,,,,,0,16,16,156,1
,,,,,,,,,,,,,,,,,200641,21,2022-01-28_21h21.32.431,lexical_decision_task_DD_L2,2021.2.3,Win32,59.74072525,,,,,,,,,,,,0.8225,1,,,,,,,,,,,,,,,,,,,,,,,,-0.001851839,-0.381481551,0,0,0,,,,,,,BISHOP,LB,z,y,./images/BISHOPLB.png,,,,,,,,z,1,0.8225,,,,,,,,0,17,17,133,1
,,,,,,,,,,,,,,,,,200641,21,2022-01-28_21h21.32.431,lexical_decision_task_DD_L2,2021.2.3,Win32,59.74072525,,,,,,,,,,,,1.0977,1,,,,,,,,,,,,,,,,,,,,,,,,-0.001851839,-0.381481551,0,0,0,,,,,,,COLLAR,HB,z,y,./images/COLLARHB.png,,,,,,,,z,1,1.0977,,,,,,,,0,18,18,99,1
,,,,,,,,,,,,,,,,,200641,21,2022-01-28_21h21.32.431,lexical_decision_task_DD_L2,2021.2.3,Win32,59.74072525,,,,,,,,,,,,0.9288,1,,,,,,,,,,,,,,,,,,,,,,,,-0.001851839,-0.381481551,0,0,0,,,,,,,WAGON,LB,z,y,./images/WAGONLB.png,,,,,,,,z,1,0.9288,,,,,,,,0,19,19,91,1
,,,,,,,,,,,,,,,,,200641,21,2022-01-28_21h21.32.431,lexical_decision_task_DD_L2,2021.2.3,Win32,59.74072525,,,,,,,,,,,,0.898,0,,,,,,,,,,,,,,,,,,,,,,,,-0.001851839,-0.381481551,0,0,0,,,,,,,BERRY,C,m,y,./images/BERRY.png,,,,,,,,z,0,0.898,,,,,,,,0,20,20,47,1
,,,,,,,,,,,,,,,,,200641,21,2022-01-28_21h21.32.431,lexical_decision_task_DD_L2,2021.2.3,Win32,59.74072525,,,,,,,,,,,,0.8673,1,,,,,,,,,,,,,,,,,,,,,,,,-0.001851839,-0.381481551,0,0,0,,,,,,,QUILL,LB,m,y,./images/QUILLLB.png,,,,,,,,m,1,0.8673,,,,,,,,0,21,21,31,1
,,,,,,,,,,,,,,,,,200641,21,2022-01-28_21h21.32.431,lexical_decision_task_DD_L2,2021.2.3,Win32,59.74072525,,,,,,,,,,,,0.587,0,,,,,,,,,,,,,,,,,,,,,,,,-0.001851839,-0.381481551,0,0,0,,,,,,,TOWEL,LB,z,y,./images/TOWELLB.png,,,,,,,,m,0,0.587,,,,,,,,0,22,22,85,1
,,,,,,,,,,,,,,,,,200641,21,2022-01-28_21h21.32.431,lexical_decision_task_DD_L2,2021.2.3,Win32,59.74072525,,,,,,,,,,,,1.085,0,,,,,,,,,,,,,,,,,,,,,,,,-0.001851839,-0.381481551,0,0,0,,,,,,,WRIST,LB,m,y,./images/WRISTLB.png,,,,,,,,z,0,1.085,,,,,,,,0,23,23,25,1
,,,,,,,,,,,,,,,,,200641,21,2022-01-28_21h21.32.431,lexical_decision_task_DD_L2,2021.2.3,Win32,59.74072525,,,,,,,,,,,,0.9073,1,,,,,,,,,,,,,,,,,,,,,,,,-0.001851839,-0.381481551,0,0,0,,,,,,,PEBBLE,LB,z,y,./images/PEBBLELB.png,,,,,,,,z,1,0.9073,,,,,,,,0,24,24,166,1
,,,,,,,,,,,,,,,,,200641,21,2022-01-28_21h21.32.431,lexical_decision_task_DD_L2,2021.2.3,Win32,59.74072525,,,,,,,,,,,,0.7176,1,,,,,,,,,,,,,,,,,,,,,,,,-0.001851839,-0.381481551,0,0,0,,,,,,,BRIDE,LB,z,y,./images/BRIDELB.png,,,,,,,,z,1,0.7176,,,,,,,,0,25,25,148,1
,,,,,,,,,,,,,,,,,200641,21,2022-01-28_21h21.32.431,lexical_decision_task_DD_L2,2021.2.3,Win32,59.74072525,,,,,,,,,,,,0.6378,0,,,,,,,,,,,,,,,,,,,,,,,,-0.001851839,-0.381481551,0,0,0,,,,,,,BRUSH,C,z,y,./images/BRUSH.png,,,,,,,,m,0,0.6378,,,,,,,,0,26,26,143,1
,,,,,,,,,,,,,,,,,200641,21,2022-01-28_21h21.32.431,lexical_decision_task_DD_L2,2021.2.3,Win32,59.74072525,,,,,,,,,,,,0.7465,1,,,,,,,,,,,,,,,,,,,,,,,,-0.001851839,-0.381481551,0,0,0,,,,,,,JAGUAR,HB,m,y,./images/JAGUARHB.png,,,,,,,,m,1,0.7465,,,,,,,,0,27,27,18,1
,,,,,,,,,,,,,,,,,200641,21,2022-01-28_21h21.32.431,lexical_decision_task_DD_L2,2021.2.3,Win32,59.74072525,,,,,,,,,,,,1.9423,1,,,,,,,,,,,,,,,,,,,,,,,,-0.001851839,-0.381481551,0,0,0,,,,,,,POSTER,C,z,y,./images/POSTER.png,,,,,,,,z,1,1.9423,,,,,,,,0,28,28,137,1
,,,,,,,,,,,,,,,,,200641,21,2022-01-28_21h21.32.431,lexical_decision_task_DD_L2,2021.2.3,Win32,59.74072525,,,,,,,,,,,,1.1073,1,,,,,,,,,,,,,,,,,,,,,,,,-0.001851839,-0.381481551,0,0,0,,,,,,,SWING,LB,m,y,./images/SWINGLB.png,,,,,,,,m,1,1.1073,,,,,,,,0,29,29,40,1
,,,,,,,,,,,,,,,,,200641,21,2022-01-28_21h21.32.431,lexical_decision_task_DD_L2,2021.2.3,Win32,59.74072525,,,,,,,,,,,,0.8375,1,,,,,,,,,,,,,,,,,,,,,,,,-0.001851839,-0.381481551,0,0,0,,,,,,,SHELF,HB,m,y,./images/SHELFHB.png,,,,,,,,m,1,0.8375,,,,,,,,0,30,30,39,1
,,,,,,,,,,,,,,,,,200641,21,2022-01-28_21h21.32.431,lexical_decision_task_DD_L2,2021.2.3,Win32,59.74072525,,,,,,,,,,,,0.6344,1,,,,,,,,,,,,,,,,,,,,,,,,-0.001851839,-0.381481551,0,0,0,,,,,,,LLAMA,C,z,y,./images/LLAMA.png,,,,,,,,z,1,0.6344,,,,,,,,0,31,31,119,1
,,,,,,,,,,,,,,,,,200641,21,2022-01-28_21h21.32.431,lexical_decision_task_DD_L2,2021.2.3,Win32,59.74072525,,,,,,,,,,,,1.01,1,,,,,,,,,,,,,,,,,,,,,,,,-0.001851839,-0.381481551,0,0,0,,,,,,,HOCKEY,C,z,y,./images/HOCKEY.png,,,,,,,,z,1,1.01,,,,,,,,0,32,32,116,1
,,,,,,,,,,,,,,,,,200641,21,2022-01-28_21h21.32.431,lexical_decision_task_DD_L2,2021.2.3,Win32,59.74072525,,,,,,,,,,,,0.6634,1,,,,,,,,,,,,,,,,,,,,,,,,-0.001851839,-0.381481551,0,0,0,,,,,,,CEMENT,C,m,y,./images/CEMENT.png,,,,,,,,m,1,0.6634,,,,,,,,0,33,33,74,1
,,,,,,,,,,,,,,,,,200641,21,2022-01-28_21h21.32.431,lexical_decision_task_DD_L2,2021.2.3,Win32,59.74072525,,,,,,,,,,,,1.2234,1,,,,,,,,,,,,,,,,,,,,,,,,-0.001851839,-0.381481551,0,0,0,,,,,,,GRAIN,HB,m,y,./images/GRAINHB.png,,,,,,,,m,1,1.2234,,,,,,,,0,34,34,75,1
,,,,,,,,,,,,,,,,,200641,21,2022-01-28_21h21.32.431,lexical_decision_task_DD_L2,2021.2.3,Win32,59.74072525,,,,,,,,,,,,0.7418,1,,,,,,,,,,,,,,,,,,,,,,,,-0.001851839,-0.381481551,0,0,0,,,,,,,GRANNY,C,z,y,./images/GRANNY.png,,,,,,,,z,1,0.7418,,,,,,,,0,35,35,104,1
,,,,,,,,,,,,,,,,,200641,21,2022-01-28_21h21.32.431,lexical_decision_task_DD_L2,2021.2.3,Win32,59.74072525,,,,,,,,,,,,0.697,1,,,,,,,,,,,,,,,,,,,,,,,,-0.001851839,-0.381481551,0,0,0,,,,,,,LAGOON,C,z,y,./images/LAGOON.png,,,,,,,,z,1,0.697,,,,,,,,0,36,36,131,1
,,,,,,,,,,,,,,,,,200641,21,2022-01-28_21h21.32.431,lexical_decision_task_DD_L2,2021.2.3,Win32,59.74072525,,,,,,,,,,,,0.8533,1,,,,,,,,,,,,,,,,,,,,,,,,-0.001851839,-0.381481551,0,0,0,,,,,,,CURRY,HB,z,y,./images/CURRYHB.png,,,,,,,,z,1,0.8533,,,,,,,,0,37,37,144,1
,,,,,,,,,,,,,,,,,200641,21,2022-01-28_21h21.32.431,lexical_decision_task_DD_L2,2021.2.3,Win32,59.74072525,,,,,,,,,,,,0.9297,0,,,,,,,,,,,,,,,,,,,,,,,,-0.001851839,-0.381481551,0,0,0,,,,,,,PLANET,C,z,y,./images/PLANET.png,,,,,,,,m,0,0.9297,,,,,,,,0,38,38,164,1
,,,,,,,,,,,,,,,,,200641,21,2022-01-28_21h21.32.431,lexical_decision_task_DD_L2,2021.2.3,Win32,59.74072525,,,,,,,,,,,,0.6967,0,,,,,,,,,,,,,,,,,,,,,,,,-0.001851839,-0.381481551,0,0,0,,,,,,,BAKER,HB,z,y,./images/BAKERHB.png,,,,,,,,m,0,0.6967,,,,,,,,0,39,39,147,1
,,,,,,,,,,,,,,,,,200641,21,2022-01-28_21h21.32.431,lexical_decision_task_DD_L2,2021.2.3,Win32,59.74072525,,,,,,,,,,,,1.4149,1,,,,,,,,,,,,,,,,,,,,,,,,-0.001851839,-0.381481551,0,0,0,,,,,,,TIGER,LB,z,y,./images/TIGERLB.png,,,,,,,,z,1,1.4149,,,,,,,,0,40,40,121,1
,,,,,,,,,,,,,,,,,200641,21,2022-01-28_21h21.32.431,lexical_decision_task_DD_L2,2021.2.3,Win32,59.74072525,,,,,,,,,,,,0.6717,1,,,,,,,,,,,,,,,,,,,,,,,,-0.001851839,-0.381481551,0,0,0,space,,,,,,FLESH,HB,z,y,./images/FLESHHB.png,,2.3574,,,,,,z,1,0.6717,,,,,,,,0,41,41,108,1
,,,,,,,,,,,,,,,,,200641,21,2022-01-28_21h21.32.431,lexical_decision_task_DD_L2,2021.2.3,Win32,59.74072525,,,,,,,,,,,,1.1001,1,,,,,,,,,,,,,,,,,,,,,,,,-0.001851839,-0.381481551,0,0,0,,,,,,,SLOPE,HB,z,y,./images/SLOPEHB.png,,,,,,,,z,1,1.1001,,,,,,,,0,42,42,114,1
,,,,,,,,,,,,,,,,,200641,21,2022-01-28_21h21.32.431,lexical_decision_task_DD_L2,2021.2.3,Win32,59.74072525,,,,,,,,,,,,0.6245,1,,,,,,,,,,,,,,,,,,,,,,,,-0.001851839,-0.381481551,0,0,0,,,,,,,BARREL,C,m,y,./images/BARREL.png,,,,,,,,m,1,0.6245,,,,,,,,0,43,43,32,1
,,,,,,,,,,,,,,,,,200641,21,2022-01-28_21h21.32.431,lexical_decision_task_DD_L2,2021.2.3,Win32,59.74072525,,,,,,,,,,,,0.6384,1,,,,,,,,,,,,,,,,,,,,,,,,-0.001851839,-0.381481551,0,0,0,,,,,,,INFANT,LB,m,y,./images/INFANTLB.png,,,,,,,,m,1,0.6384,,,,,,,,0,44,44,76,1
,,,,,,,,,,,,,,,,,200641,21,2022-01-28_21h21.32.431,lexical_decision_task_DD_L2,2021.2.3,Win32,59.74072525,,,,,,,,,,,,1.1844,0,,,,,,,,,,,,,,,,,,,,,,,,-0.001851839,-0.381481551,0,0,0,,,,,,,MAMMAL,C,z,y,./images/MAMMAL.png,,,,,,,,m,0,1.1844,,,,,,,,0,45,45,146,1
,,,,,,,,,,,,,,,,,200641,21,2022-01-28_21h21.32.431,lexical_decision_task_DD_L2,2021.2.3,Win32,59.74072525,,,,,,,,,,,,1.2021,1,,,,,,,,,,,,,,,,,,,,,,,,-0.001851839,-0.381481551,0,0,0,,,,,,,FERRY,HB,z,y,./images/FERRYHB.png,,,,,,,,z,1,1.2021,,,,,,,,0,46,46,141,1
,,,,,,,,,,,,,,,,,200641,21,2022-01-28_21h21.32.431,lexical_decision_task_DD_L2,2021.2.3,Win32,59.74072525,,,,,,,,,,,,0.7006,1,,,,,,,,,,,,,,,,,,,,,,,,-0.001851839,-0.381481551,0,0,0,,,,,,,BUNNY,LB,z,y,./images/BUNNYLB.png,,,,,,,,z,1,0.7006,,,,,,,,0,47,47,97,1
,,,,,,,,,,,,,,,,,200641,21,2022-01-28_21h21.32.431,lexical_decision_task_DD_L2,2021.2.3,Win32,59.74072525,,,,,,,,,,,,0.8061,1,,,,,,,,,,,,,,,,,,,,,,,,-0.001851839,-0.381481551,0,0,0,,,,,,,WHISKY,C,z,y,./images/WHISKY.png,,,,,,,,z,1,0.8061,,,,,,,,0,48,48,167,1
,,,,,,,,,,,,,,,,,200641,21,2022-01-28_21h21.32.431,lexical_decision_task_DD_L2,2021.2.3,Win32,59.74072525,,,,,,,,,,,,3.7798,1,,,,,,,,,,,,,,,,,,,,,,,,-0.001851839,-0.381481551,0,0,0,,,,,,,FALCON,LB,m,y,./images/FALCONLB.png,,,,,,,,m,1,3.7798,,,,,,,,0,49,49,28,1
,,,,,,,,,,,,,,,,,200641,21,2022-01-28_21h21.32.431,lexical_decision_task_DD_L2,2021.2.3,Win32,59.74072525,,,,,,,,,,,,0.7914,1,,,,,,,,,,,,,,,,,,,,,,,,-0.001851839,-0.381481551,0,0,0,,,,,,,BOILER,HB,z,y,./images/BOILERHB.png,,,,,,,,z,1,0.7914,,,,,,,,0,50,50,120,1
,,,,,,,,,,,,,,,,,200641,21,2022-01-28_21h21.32.431,lexical_decision_task_DD_L2,2021.2.3,Win32,59.74072525,,,,,,,,,,,,0.7683,1,,,,,,,,,,,,,,,,,,,,,,,,-0.001851839,-0.381481551,0,0,0,,,,,,,KIDNEY,HB,m,y,./images/KIDNEYHB.png,,,,,,,,m,1,0.7683,,,,,,,,0,51,51,21,1
,,,,,,,,,,,,,,,,,200641,21,2022-01-28_21h21.32.431,lexical_decision_task_DD_L2,2021.2.3,Win32,59.74072525,,,,,,,,,,,,0.9002,0,,,,,,,,,,,,,,,,,,,,,,,,-0.001851839,-0.381481551,0,0,0,,,,,,,WHEEL,C,z,y,./images/WHEEL.png,,,,,,,,m,0,0.9002,,,,,,,,0,52,52,161,1
,,,,,,,,,,,,,,,,,200641,21,2022-01-28_21h21.32.431,lexical_decision_task_DD_L2,2021.2.3,Win32,59.74072525,,,,,,,,,,,,0.8166,1,,,,,,,,,,,,,,,,,,,,,,,,-0.001851839,-0.381481551,0,0,0,,,,,,,PARCEL,HB,z,y,./images/PARCELHB.png,,,,,,,,z,1,0.8166,,,,,,,,0,53,53,102,1
,,,,,,,,,,,,,,,,,200641,21,2022-01-28_21h21.32.431,lexical_decision_task_DD_L2,2021.2.3,Win32,59.74072525,,,,,,,,,,,,0.8146,1,,,,,,,,,,,,,,,,,,,,,,,,-0.001851839,-0.381481551,0,0,0,,,,,,,SMOKER,C,m,y,./images/SMOKER.png,,,,,,,,m,1,0.8146,,,,,,,,0,54,54,26,1
,,,,,,,,,,,,,,,,,200641,21,2022-01-28_21h21.32.431,lexical_decision_task_DD_L2,2021.2.3,Win32,59.74072525,,,,,,,,,,,,4.063,1,,,,,,,,,,,,,,,,,,,,,,,,-0.001851839,-0.381481551,0,0,0,,,,,,,FARMER,C,m,y,./images/FARMER.png,,,,,,,,m,1,4.063,,,,,,,,0,55,55,65,1
,,,,,,,,,,,,,,,,,200641,21,2022-01-28_21h21.32.431,lexical_decision_task_DD_L2,2021.2.3,Win32,59.74072525,,,,,,,,,,,,0.6704,0,,,,,,,,,,,,,,,,,,,,,,,,-0.001851839,-0.381481551,0,0,0,,,,,,,STRING,C,m,y,./images/STRING.png,,,,,,,,z,0,0.6704,,,,,,,,0,56,56,41,1
,,,,,,,,,,,,,,,,,200641,21,2022-01-28_21h21.32.431,lexical_decision_task_DD_L2,2021.2.3,Win32,59.74072525,,,,,,,,,,,,0.7751,1,,,,,,,,,,,,,,,,,,,,,,,,-0.001851839,-0.381481551,0,0,0,,,,,,,JUNGLE,C,m,y,./images/JUNGLE.png,,,,,,,,m,1,0.7751,,,,,,,,0,57,57,83,1
,,,,,,,,,,,,,,,,,200641,21,2022-01-28_21h21.32.431,lexical_decision_task_DD_L2,2021.2.3,Win32,59.74072525,,,,,,,,,,,,1.1141,1,,,,,,,,,,,,,,,,,,,,,,,,-0.001851839,-0.381481551,0,0,0,,,,,,,FOLDER,HB,m,y,./images/FOLDERHB.png,,,,,,,,m,1,1.1141,,,,,,,,0,58,58,42,1
,,,,,,,,,,,,,,,,,200641,21,2022-01-28_21h21.32.431,lexical_decision_task_DD_L2,2021.2.3,Win32,59.74072525,,,,,,,,,,,,0.6632,1,,,,,,,,,,,,,,,,,,,,,,,,-0.001851839,-0.381481551,0,0,0,,,,,,,DIVER,HB,z,y,./images/DIVERHB.png,,,,,,,,z,1,0.6632,,,,,,,,0,59,59,93,1
,,,,,,,,,,,,,,,,,200641,21,2022-01-28_21h21.32.431,lexical_decision_task_DD_L2,2021.2.3,Win32,59.74072525,,,,,,,,,,,,0.9305,1,,,,,,,,,,,,,,,,,,,,,,,,-0.001851839,-0.381481551,0,0,0,,,,,,,STORM,HB,m,y,./images/STORMHB.png,,,,,,,,m,1,0.9305,,,,,,,,0,60,60,30,1
,,,,,,,,,,,,,,,,,200641,21,2022-01-28_21h21.32.431,lexical_decision_task_DD_L2,2021.2.3,Win32,59.74072525,,,,,,,,,,,,0.6861,1,,,,,,,,,,,,,,,,,,,,,,,,-0.001851839,-0.381481551,0,0,0,,,,,,,MAGGOT,HB,m,y,./images/MAGGOTHB.png,,,,,,,,m,1,0.6861,,,,,,,,0,61,61,33,1
,,,,,,,,,,,,,,,,,200641,21,2022-01-28_21h21.32.431,lexical_decision_task_DD_L2,2021.2.3,Win32,59.74072525,,,,,,,,,,,,0.7308,1,,,,,,,,,,,,,,,,,,,,,,,,-0.001851839,-0.381481551,0,0,0,,,,,,,HEATER,C,z,y,./images/HEATER.png,,,,,,,,z,1,0.7308,,,,,,,,0,62,62,140,1
,,,,,,,,,,,,,,,,,200641,21,2022-01-28_21h21.32.431,lexical_decision_task_DD_L2,2021.2.3,Win32,59.74072525,,,,,,,,,,,,0.6819,1,,,,,,,,,,,,,,,,,,,,,,,,-0.001851839,-0.381481551,0,0,0,,,,,,,THROAT,HB,m,y,./images/THROATHB.png,,,,,,,,m,1,0.6819,,,,,,,,0,63,63,36,1
,,,,,,,,,,,,,,,,,200641,21,2022-01-28_21h21.32.431,lexical_decision_task_DD_L2,2021.2.3,Win32,59.74072525,,,,,,,,,,,,1.6149,1,,,,,,,,,,,,,,,,,,,,,,,,-0.001851839,-0.381481551,0,0,0,,,,,,,MUFFIN,LB,m,y,./images/MUFFINLB.png,,,,,,,,m,1,1.6149,,,,,,,,0,64,64,55,1
,,,,,,,,,,,,,,,,,200641,21,2022-01-28_21h21.32.431,lexical_decision_task_DD_L2,2021.2.3,Win32,59.74072525,,,,,,,,,,,,0.5906,1,,,,,,,,,,,,,,,,,,,,,,,,-0.001851839,-0.381481551,0,0,0,,,,,,,SAUNA,HB,z,y,./images/SAUNAHB.png,,,,,,,,z,1,0.5906,,,,,,,,0,65,65,117,1
,,,,,,,,,,,,,,,,,200641,21,2022-01-28_21h21.32.431,lexical_decision_task_DD_L2,2021.2.3,Win32,59.74072525,,,,,,,,,,,,0.8654,1,,,,,,,,,,,,,,,,,,,,,,,,-0.001851839,-0.381481551,0,0,0,,,,,,,SAUCE,HB,z,y,./images/SAUCEHB.png,,,,,,,,z,1,0.8654,,,,,,,,0,66,66,135,1
,,,,,,,,,,,,,,,,,200641,21,2022-01-28_21h21.32.431,lexical_decision_task_DD_L2,2021.2.3,Win32,59.74072525,,,,,,,,,,,,0.5997,1,,,,,,,,,,,,,,,,,,,,,,,,-0.001851839,-0.381481551,0,0,0,,,,,,,MIRROR,HB,m,y,./images/MIRRORHB.png,,,,,,,,m,1,0.5997,,,,,,,,0,67,67,63,1
,,,,,,,,,,,,,,,,,200641,21,2022-01-28_21h21.32.431,lexical_decision_task_DD_L2,2021.2.3,Win32,59.74072525,,,,,,,,,,,,1.0256,1,,,,,,,,,,,,,,,,,,,,,,,,-0.001851839,-0.381481551,0,0,0,,,,,,,CRUMB,C,m,y,./images/CRUMB.png,,,,,,,,m,1,1.0256,,,,,,,,0,68,68,29,1
,,,,,,,,,,,,,,,,,200641,21,2022-01-28_21h21.32.431,lexical_decision_task_DD_L2,2021.2.3,Win32,59.74072525,,,,,,,,,,,,0.8765,1,,,,,,,,,,,,,,,,,,,,,,,,-0.001851839,-0.381481551,0,0,0,,,,,,,CRUST,LB,m,y,./images/CRUSTLB.png,,,,,,,,m,1,0.8765,,,,,,,,0,69,69,79,1
,,,,,,,,,,,,,,,,,200641,21,2022-01-28_21h21.32.431,lexical_decision_task_DD_L2,2021.2.3,Win32,59.74072525,,,,,,,,,,,,0.8016,1,,,,,,,,,,,,,,,,,,,,,,,,-0.001851839,-0.381481551,0,0,0,,,,,,,CANOE,LB,z,y,./images/CANOELB.png,,,,,,,,z,1,0.8016,,,,,,,,0,70,70,142,1
,,,,,,,,,,,,,,,,,200641,21,2022-01-28_21h21.32.431,lexical_decision_task_DD_L2,2021.2.3,Win32,59.74072525,,,,,,,,,,,,1.4532,1,,,,,,,,,,,,,,,,,,,,,,,,-0.001851839,-0.381481551,0,0,0,,,,,,,SNAKE,LB,z,y,./images/SNAKELB.png,,,,,,,,z,1,1.4532,,,,,,,,0,71,71,124,1
,,,,,,,,,,,,,,,,,200641,21,2022-01-28_21h21.32.431,lexical_decision_task_DD_L2,2021.2.3,Win32,59.74072525,,,,,,,,,,,,1.9267,1,,,,,,,,,,,,,,,,,,,,,,,,-0.001851839,-0.381481551,0,0,0,,,,,,,PASTA,C,m,y,./images/PASTA.png,,,,,,,,m,1,1.9267,,,,,,,,0,72,72,5,1
,,,,,,,,,,,,,,,,,200641,21,2022-01-28_21h21.32.431,lexical_decision_task_DD_L2,2021.2.3,Win32,59.74072525,,,,,,,,,,,,1.0301,0,,,,,,,,,,,,,,,,,,,,,,,,-0.001851839,-0.381481551,0,0,0,,,,,,,BAMBOO,C,z,y,./images/BAMBOO.png,,,,,,,,m,0,1.0301,,,,,,,,0,73,73,89,1
,,,,,,,,,,,,,,,,,200641,21,2022-01-28_21h21.32.431,lexical_decision_task_DD_L2,2021.2.3,Win32,59.74072525,,,,,,,,,,,,0.8166,0,,,,,,,,,,,,,,,,,,,,,,,,-0.001851839,-0.381481551,0,0,0,,,,,,,BASKET,C,z,y,./images/BASKET.png,,,,,,,,m,0,0.8166,,,,,,,,0,74,74,128,1
,,,,,,,,,,,,,,,,,200641,21,2022-01-28_21h21.32.431,lexical_decision_task_DD_L2,2021.2.3,Win32,59.74072525,,,,,,,,,,,,0.8263,1,,,,,,,,,,,,,,,,,,,,,,,,-0.001851839,-0.381481551,0,0,0,,,,,,,DESERT,LB,z,y,./images/DESERTLB.png,,,,,,,,z,1,0.8263,,,,,,,,0,75,75,136,1
,,,,,,,,,,,,,,,,,200641,21,2022-01-28_21h21.32.431,lexical_decision_task_DD_L2,2021.2.3,Win32,59.74072525,,,,,,,,,,,,0.7324,1,,,,,,,,,,,,,,,,,,,,,,,,-0.001851839,-0.381481551,0,0,0,,,,,,,MELON,LB,m,y,./images/MELONLB.png,,,,,,,,m,1,0.7324,,,,,,,,0,76,76,22,1
,,,,,,,,,,,,,,,,,200641,21,2022-01-28_21h21.32.431,lexical_decision_task_DD_L2,2021.2.3,Win32,59.74072525,,,,,,,,,,,,0.6732,1,,,,,,,,,,,,,,,,,,,,,,,,-0.001851839,-0.381481551,0,0,0,,,,,,,STATUE,HB,z,y,./images/STATUEHB.png,,,,,,,,z,1,0.6732,,,,,,,,0,77,77,150,1
,,,,,,,,,,,,,,,,,200641,21,2022-01-28_21h21.32.431,lexical_decision_task_DD_L2,2021.2.3,Win32,59.74072525,,,,,,,,,,,,0.9584,1,,,,,,,,,,,,,,,,,,,,,,,,-0.001851839,-0.381481551,0,0,0,,,,,,,SKIING,C,m,y,./images/SKIING.png,,,,,,,,m,1,0.9584,,,,,,,,0,78,78,17,1
,,,,,,,,,,,,,,,,,200641,21,2022-01-28_21h21.32.431,lexical_decision_task_DD_L2,2021.2.3,Win32,59.74072525,,,,,,,,,,,,1.0138,1,,,,,,,,,,,,,,,,,,,,,,,,-0.001851839,-0.381481551,0,0,0,,,,,,,ONION,HB,m,y,./images/ONIONHB.png,,,,,,,,m,1,1.0138,,,,,,,,0,79,79,51,1
,,,,,,,,,,,,,,,,,200641,21,2022-01-28_21h21.32.431,lexical_decision_task_DD_L2,2021.2.3,Win32,59.74072525,,,,,,,,,,,,1.0243,1,,,,,,,,,,,,,,,,,,,,,,,,-0.001851839,-0.381481551,0,0,0,,,,,,,WEASEL,C,m,y,./images/WEASEL.png,,,,,,,,m,1,1.0243,,,,,,,,0,80,80,80,1
,,,,,,,,,,,,,,,,,200641,21,2022-01-28_21h21.32.431,lexical_decision_task_DD_L2,2021.2.3,Win32,59.74072525,,,,,,,,,,,,0.7599,1,,,,,,,,,,,,,,,,,,,,,,,,-0.001851839,-0.381481551,0,0,0,,,,,,,MALLET,C,m,y,./images/MALLET.png,,,,,,,,m,1,0.7599,,,,,,,,0,81,81,50,1
,,,,,,,,,,,,,,,,,200641,21,2022-01-28_21h21.32.431,lexical_decision_task_DD_L2,2021.2.3,Win32,59.74072525,,,,,,,,,,,,0.6503,1,,,,,,,,,,,,,,,,,,,,,,,,-0.001851839,-0.381481551,0,0,0,,,,,,,GREASE,HB,m,y,./images/GREASEHB.png,,,,,,,,m,1,0.6503,,,,,,,,0,82,82,15,1
,,,,,,,,,,,,,,,,,200641,21,2022-01-28_21h21.32.431,lexical_decision_task_DD_L2,2021.2.3,Win32,59.74072525,,,,,,,,,,,,0.5979,1,,,,,,,,,,,,,,,,,,,,,,,,-0.001851839,-0.381481551,0,0,0,space,,,,,,BANNER,LB,m,y,./images/BANNERLB.png,,1.4487,,,,,,m,1,0.5979,,,,,,,,0,83,83,52,1
,,,,,,,,,,,,,,,,,200641,21,2022-01-28_21h21.32.431,lexical_decision_task_DD_L2,2021.2.3,Win32,59.74072525,,,,,,,,,,,,0.8922,1,,,,,,,,,,,,,,,,,,,,,,,,-0.001851839,-0.381481551,0,0,0,,,,,,,POODLE,HB,m,y,./images/POODLEHB.png,,,,,,,,m,1,0.8922,,,,,,,,0,84,84,81,1
,,,,,,,,,,,,,,,,,200641,21,2022-01-28_21h21.32.431,lexical_decision_task_DD_L2,2021.2.3,Win32,59.74072525,,,,,,,,,,,,0.714,0,,,,,,,,,,,,,,,,,,,,,,,,-0.001851839,-0.381481551,0,0,0,,,,,,,BELLY,LB,m,y,./images/BELLYLB.png,,,,,,,,z,0,0.714,,,,,,,,0,85,85,10,1
,,,,,,,,,,,,,,,,,200641,21,2022-01-28_21h21.32.431,lexical_decision_task_DD_L2,2021.2.3,Win32,59.74072525,,,,,,,,,,,,0.7097,1,,,,,,,,,,,,,,,,,,,,,,,,-0.001851839,-0.381481551,0,0,0,,,,,,,PIMPLE,C,m,y,./images/PIMPLE.png,,,,,,,,m,1,0.7097,,,,,,,,0,86,86,71,1
,,,,,,,,,,,,,,,,,200641,21,2022-01-28_21h21.32.431,lexical_decision_task_DD_L2,2021.2.3,Win32,59.74072525,,,,,,,,,,,,2.2982,1,,,,,,,,,,,,,,,,,,,,,,,,-0.001851839,-0.381481551,0,0,0,,,,,,,RULER,LB,z,y,./images/RULERLB.png,,,,,,,,z,1,2.2982,,,,,,,,0,87,87,163,1
,,,,,,,,,,,,,,,,,200641,21,2022-01-28_21h21.32.431,lexical_decision_task_DD_L2,2021.2.3,Win32,59.74072525,,,,,,,,,,,,0.6992,1,,,,,,,,,,,,,,,,,,,,,,,,-0.001851839,-0.381481551,0,0,0,,,,,,,TRIPOD,HB,m,y,./images/TRIPODHB.png,,,,,,,,m,1,0.6992,,,,,,,,0,88,88,54,1
,,,,,,,,,,,,,,,,,200641,21,2022-01-28_21h21.32.431,lexical_decision_task_DD_L2,2021.2.3,Win32,59.74072525,,,,,,,,,,,,1.0094,0,,,,,,,,,,,,,,,,,,,,,,,,-0.001851839,-0.381481551,0,0,0,,,,,,,STREAM,C,z,y,./images/STREAM.png,,,,,,,,m,0,1.0094,,,,,,,,0,89,89,125,1
,,,,,,,,,,,,,,,,,200641,21,2022-01-28_21h21.32.431,lexical_decision_task_DD_L2,2021.2.3,Win32,59.74072525,,,,,,,,,,,,1.0587,1,,,,,,,,,,,,,,,,,,,,,,,,-0.001851839,-0.381481551,0,0,0,,,,,,,GARDEN,LB,z,y,./images/GARDENLB.png,,,,,,,,z,1,1.0587,,,,,,,,0,90,90,94,1
,,,,,,,,,,,,,,,,,200641,21,2022-01-28_21h21.32.431,lexical_decision_task_DD_L2,2021.2.3,Win32,59.74072525,,,,,,,,,,,,0.704,0,,,,,,,,,,,,,,,,,,,,,,,,-0.001851839,-0.381481551,0,0,0,,,,,,,SCREW,HB,m,y,./images/SCREWHB.png,,,,,,,,z,0,0.704,,,,,,,,0,91,91,24,1
,,,,,,,,,,,,,,,,,200641,21,2022-01-28_21h21.32.431,lexical_decision_task_DD_L2,2021.2.3,Win32,59.74072525,,,,,,,,,,,,1.2713,0,,,,,,,,,,,,,,,,,,,,,,,,-0.001851839,-0.381481551,0,0,0,,,,,,,HAMMER,HB,z,y,./images/HAMMERHB.png,,,,,,,,m,0,1.2713,,,,,,,,0,92,92,159,1
,,,,,,,,,,,,,,,,,200641,21,2022-01-28_21h21.32.431,lexical_decision_task_DD_L2,2021.2.3,Win32,59.74072525,,,,,,,,,,,,0.7687,1,,,,,,,,,,,,,,,,,,,,,,,,-0.001851839,-0.381481551,0,0,0,,,,,,,BABOON,LB,m,y,./images/BABOONLB.png,,,,,,,,m,1,0.7687,,,,,,,,0,93,93,58,1
,,,,,,,,,,,,,,,,,200641,21,2022-01-28_21h21.32.431,lexical_decision_task_DD_L2,2021.2.3,Win32,59.74072525,,,,,,,,,,,,0.9377,1,,,,,,,,,,,,,,,,,,,,,,,,-0.001851839,-0.381481551,0,0,0,,,,,,,DOUGH,LB,m,y,./images/DOUGHLB.png,,,,,,,,m,1,0.9377,,,,,,,,0,94,94,19,1
,,,,,,,,,,,,,,,,,200641,21,2022-01-28_21h21.32.431,lexical_decision_task_DD_L2,2021.2.3,Win32,59.74072525,,,,,,,,,,,,0.6798,1,,,,,,,,,,,,,,,,,,,,,,,,-0.001851839,-0.381481551,0,0,0,,,,,,,ENGINE,C,z,y,./images/ENGINE.png,,,,,,,,z,1,0.6798,,,,,,,,0,95,95,122,1
,,,,,,,,,,,,,,,,,200641,21,2022-01-28_21h21.32.431,lexical_decision_task_DD_L2,2021.2.3,Win32,59.74072525,,,,,,,,,,,,1.1895,0,,,,,,,,,,,,,,,,,,,,,,,,-0.001851839,-0.381481551,0,0,0,,,,,,,DRUMS,LB,m,y,./images/DRUMSLB.png,,,,,,,,z,0,1.1895,,,,,,,,0,96,96,49,1
,,,,,,,,,,,,,,,,,200641,21,2022-01-28_21h21.32.431,lexical_decision_task_DD_L2,2021.2.3,Win32,59.74072525,,,,,,,,,,,,0.7842,1,,,,,,,,,,,,,,,,,,,,,,,,-0.001851839,-0.381481551,0,0,0,,,,,,,COUCH,C,m,y,./images/COUCH.png,,,,,,,,m,1,0.7842,,,,,,,,0,97,97,77,1
,,,,,,,,,,,,,,,,,200641,21,2022-01-28_21h21.32.431,lexical_decision_task_DD_L2,2021.2.3,Win32,59.74072525,,,,,,,,,,,,0.7133,1,,,,,,,,,,,,,,,,,,,,,,,,-0.001851839,-0.381481551,0,0,0,,,,,,,PURSE,C,m,y,./images/PURSE.png,,,,,,,,m,1,0.7133,,,,,,,,0,98,98,62,1
,,,,,,,,,,,,,,,,,200641,21,2022-01-28_21h21.32.431,lexical_decision_task_DD_L2,2021.2.3,Win32,59.74072525,,,,,,,,,,,,1.0349,1,,,,,,,,,,,,,,,,,,,,,,,,-0.001851839,-0.381481551,0,0,0,,,,,,,BLOKE,HB,z,y,./images/BLOKEHB.png,,,,,,,,z,1,1.0349,,,,,,,,0,99,99,96,1
,,,,,,,,,,,,,,,,,200641,21,2022-01-28_21h21.32.431,lexical_decision_task_DD_L2,2021.2.3,Win32,59.74072525,,,,,,,,,,,,1.0251,1,,,,,,,,,,,,,,,,,,,,,,,,-0.001851839,-0.381481551,0,0,0,,,,,,,NOOSE,HB,m,y,./images/NOOSEHB.png,,,,,,,,m,1,1.0251,,,,,,,,0,100,100,72,1
,,,,,,,,,,,,,,,,,200641,21,2022-01-28_21h21.32.431,lexical_decision_task_DD_L2,2021.2.3,Win32,59.74072525,,,,,,,,,,,,1.2593,1,,,,,,,,,,,,,,,,,,,,,,,,-0.001851839,-0.381481551,0,0,0,,,,,,,URINE,LB,m,y,./images/URINELB.png,,,,,,,,m,1,1.2593,,,,,,,,0,101,101,70,1
,,,,,,,,,,,,,,,,,200641,21,2022-01-28_21h21.32.431,lexical_decision_task_DD_L2,2021.2.3,Win32,59.74072525,,,,,,,,,,,,0.7603,0,,,,,,,,,,,,,,,,,,,,,,,,-0.001851839,-0.381481551,0,0,0,,,,,,,SHORE,HB,m,y,./images/SHOREHB.png,,,,,,,,z,0,0.7603,,,,,,,,0,102,102,12,1
,,,,,,,,,,,,,,,,,200641,21,2022-01-28_21h21.32.431,lexical_decision_task_DD_L2,2021.2.3,Win32,59.74072525,,,,,,,,,,,,0.9767,1,,,,,,,,,,,,,,,,,,,,,,,,-0.001851839,-0.381481551,0,0,0,,,,,,,COOKER,HB,m,y,./images/COOKERHB.png,,,,,,,,m,1,0.9767,,,,,,,,0,103,103,69,1
,,,,,,,,,,,,,,,,,200641,21,2022-01-28_21h21.32.431,lexical_decision_task_DD_L2,2021.2.3,Win32,59.74072525,,,,,,,,,,,,1.5131,0,,,,,,,,,,,,,,,,,,,,,,,,-0.001851839,-0.381481551,0,0,0,,,,,,,CRADLE,C,m,y,./images/CRADLE.png,,,,,,,,z,0,1.5131,,,,,,,,0,104,104,20,1
,,,,,,,,,,,,,,,,,200641,21,2022-01-28_21h21.32.431,lexical_decision_task_DD_L2,2021.2.3,Win32,59.74072525,,,,,,,,,,,,3.1972,1,,,,,,,,,,,,,,,,,,,,,,,,-0.001851839,-0.381481551,0,0,0,,,,,,,CHAIN,HB,z,y,./images/CHAINHB.png,,,,,,,,z,1,3.1972,,,,,,,,0,105,105,126,1
,,,,,,,,,,,,,,,,,200641,21,2022-01-28_21h21.32.431,lexical_decision_task_DD_L2,2021.2.3,Win32,59.74072525,,,,,,,,,,,,0.7222,0,,,,,,,,,,,,,,,,,,,,,,,,-0.001851839,-0.381481551,0,0,0,,,,,,,POKER,LB,z,y,./images/POKERLB.png,,,,,,,,m,0,0.7222,,,,,,,,0,106,106,151,1
,,,,,,,,,,,,,,,,,200641,21,2022-01-28_21h21.32.431,lexical_decision_task_DD_L2,2021.2.3,Win32,59.74072525,,,,,,,,,,,,1.8829,0,,,,,,,,,,,,,,,,,,,,,,,,-0.001851839,-0.381481551,0,0,0,,,,,,,CASINO,LB,z,y,./images/CASINOLB.png,,,,,,,,m,0,1.8829,,,,,,,,0,107,107,112,1
,,,,,,,,,,,,,,,,,200641,21,2022-01-28_21h21.32.431,lexical_decision_task_DD_L2,2021.2.3,Win32,59.74072525,,,,,,,,,,,,1.8746,0,,,,,,,,,,,,,,,,,,,,,,,,-0.001851839,-0.381481551,0,0,0,,,,,,,PACKET,C,m,y,./images/PACKET.png,,,,,,,,z,0,1.8746,,,,,,,,0,108,108,56,1
,,,,,,,,,,,,,,,,,200641,21,2022-01-28_21h21.32.431,lexical_decision_task_DD_L2,2021.2.3,Win32,59.74072525,,,,,,,,,,,,0.914,0,,,,,,,,,,,,,,,,,,,,,,,,-0.001851839,-0.381481551,0,0,0,,,,,,,DONKEY,LB,z,y,./images/DONKEYLB.png,,,,,,,,m,0,0.914,,,,,,,,0,109,109,103,1
,,,,,,,,,,,,,,,,,200641,21,2022-01-28_21h21.32.431,lexical_decision_task_DD_L2,2021.2.3,Win32,59.74072525,,,,,,,,,,,,2.0364,0,,,,,,,,,,,,,,,,,,,,,,,,-0.001851839,-0.381481551,0,0,0,,,,,,,SUNSET,LB,m,y,./images/SUNSETLB.png,,,,,,,,z,0,2.0364,,,,,,,,0,110,110,82,1
,,,,,,,,,,,,,,,,,200641,21,2022-01-28_21h21.32.431,lexical_decision_task_DD_L2,2021.2.3,Win32,59.74072525,,,,,,,,,,,,0.7758,0,,,,,,,,,,,,,,,,,,,,,,,,-0.001851839,-0.381481551,0,0,0,,,,,,,LITTER,HB,m,y,./images/LITTERHB.png,,,,,,,,z,0,0.7758,,,,,,,,0,111,111,78,1
,,,,,,,,,,,,,,,,,200641,21,2022-01-28_21h21.32.431,lexical_decision_task_DD_L2,2021.2.3,Win32,59.74072525,,,,,,,,,,,,0.7185,1,,,,,,,,,,,,,,,,,,,,,,,,-0.001851839,-0.381481551,0,0,0,,,,,,,GLOVE,LB,z,y,./images/GLOVELB.png,,,,,,,,z,1,0.7185,,,,,,,,0,112,112,157,1
,,,,,,,,,,,,,,,,,200641,21,2022-01-28_21h21.32.431,lexical_decision_task_DD_L2,2021.2.3,Win32,59.74072525,,,,,,,,,,,,0.6891,1,,,,,,,,,,,,,,,,,,,,,,,,-0.001851839,-0.381481551,0,0,0,,,,,,,PARADE,C,z,y,./images/PARADE.png,,,,,,,,z,1,0.6891,,,,,,,,0,113,113,101,1
,,,,,,,,,,,,,,,,,200641,21,2022-01-28_21h21.32.431,lexical_decision_task_DD_L2,2021.2.3,Win32,59.74072525,,,,,,,,,,,,0.6854,1,,,,,,,,,,,,,,,,,,,,,,,,-0.001851839,-0.381481551,0,0,0,,,,,,,CLOUD,C,z,y,./images/CLOUD.png,,,,,,,,z,1,0.6854,,,,,,,,0,114,114,110,1
,,,,,,,,,,,,,,,,,200641,21,2022-01-28_21h21.32.431,lexical_decision_task_DD_L2,2021.2.3,Win32,59.74072525,,,,,,,,,,,,0.5506,0,,,,,,,,,,,,,,,,,,,,,,,,-0.001851839,-0.381481551,0,0,0,,,,,,,FINGER,HB,m,y,./images/FINGERHB.png,,,,,,,,z,0,0.5506,,,,,,,,0,115,115,3,1
,,,,,,,,,,,,,,,,,200641,21,2022-01-28_21h21.32.431,lexical_decision_task_DD_L2,2021.2.3,Win32,59.74072525,,,,,,,,,,,,0.537,1,,,,,,,,,,,,,,,,,,,,,,,,-0.001851839,-0.381481551,0,0,0,,,,,,,SHIELD,HB,z,y,./images/SHIELDHB.png,,,,,,,,z,1,0.537,,,,,,,,0,116,116,132,1
,,,,,,,,,,,,,,,,,200641,21,2022-01-28_21h21.32.431,lexical_decision_task_DD_L2,2021.2.3,Win32,59.74072525,,,,,,,,,,,,0.6645,1,,,,,,,,,,,,,,,,,,,,,,,,-0.001851839,-0.381481551,0,0,0,,,,,,,DANCER,HB,z,y,./images/DANCERHB.png,,,,,,,,z,1,0.6645,,,,,,,,0,117,117,105,1
,,,,,,,,,,,,,,,,,200641,21,2022-01-28_21h21.32.431,lexical_decision_task_DD_L2,2021.2.3,Win32,59.74072525,,,,,,,,,,,,0.7085,1,,,,,,,,,,,,,,,,,,,,,,,,-0.001851839,-0.381481551,0,0,0,,,,,,,RAZOR,LB,z,y,./images/RAZORLB.png,,,,,,,,z,1,0.7085,,,,,,,,0,118,118,118,1
,,,,,,,,,,,,,,,,,200641,21,2022-01-28_21h21.32.431,lexical_decision_task_DD_L2,2021.2.3,Win32,59.74072525,,,,,,,,,,,,1.0466,1,,,,,,,,,,,,,,,,,,,,,,,,-0.001851839,-0.381481551,0,0,0,,,,,,,MUMMY,LB,z,y,./images/MUMMYLB.png,,,,,,,,z,1,1.0466,,,,,,,,0,119,119,130,1
,,,,,,,,,,,,,,,,,200641,21,2022-01-28_21h21.32.431,lexical_decision_task_DD_L2,2021.2.3,Win32,59.74072525,,,,,,,,,,,,0.8066,1,,,,,,,,,,,,,,,,,,,,,,,,-0.001851839,-0.381481551,0,0,0,,,,,,,SAILOR,LB,m,y,./images/SAILORLB.png,,,,,,,,m,1,0.8066,,,,,,,,0,120,120,67,1
,,,,,,,,,,,,,,,,,200641,21,2022-01-28_21h21.32.431,lexical_decision_task_DD_L2,2021.2.3,Win32,59.74072525,,,,,,,,,,,,0.6537,1,,,,,,,,,,,,,,,,,,,,,,,,-0.001851839,-0.381481551,0,0,0,,,,,,,TOMATO,HB,m,y,./images/TOMATOHB.png,,,,,,,,m,1,0.6537,,,,,,,,0,121,121,0,1
,,,,,,,,,,,,,,,,,200641,21,2022-01-28_21h21.32.431,lexical_decision_task_DD_L2,2021.2.3,Win32,59.74072525,,,,,,,,,,,,0.6294,1,,,,,,,,,,,,,,,,,,,,,,,,-0.001851839,-0.381481551,0,0,0,,,,,,,CHERRY,HB,z,y,./images/CHERRYHB.png,,,,,,,,z,1,0.6294,,,,,,,,0,122,122,138,1
,,,,,,,,,,,,,,,,,200641,21,2022-01-28_21h21.32.431,lexical_decision_task_DD_L2,2021.2.3,Win32,59.74072525,,,,,,,,,,,,1.8063,1,,,,,,,,,,,,,,,,,,,,,,,,-0.001851839,-0.381481551,0,0,0,,,,,,,BUBBLE,C,z,y,./images/BUBBLE.png,,,,,,,,z,1,1.8063,,,,,,,,0,123,123,155,1
,,,,,,,,,,,,,,,,,200641,21,2022-01-28_21h21.32.431,lexical_decision_task_DD_L2,2021.2.3,Win32,59.74072525,,,,,,,,,,,,0.7059,1,,,,,,,,,,,,,,,,,,,,,,,,-0.001851839,-0.381481551,0,0,0,,,,,,,MOOSE,HB,m,y,./images/MOOSEHB.png,,,,,,,,m,1,0.7059,,,,,,,,0,124,124,57,1
,,,,,,,,,,,,,,,,,200641,21,2022-01-28_21h21.32.431,lexical_decision_task_DD_L2,2021.2.3,Win32,59.74072525,,,,,,,,,,,,0.6055,1,,,,,,,,,,,,,,,,,,,,,,,,-0.001851839,-0.381481551,1,0,0,,,,,,,CLOWN,LB,z,y,./images/CLOWNLB.png,break_done_button,,,,,,,z,1,0.6055,,,,,,,,0,125,125,106,1
,,,,,,,,,,,,,,,,,200641,21,2022-01-28_21h21.32.431,lexical_decision_task_DD_L2,2021.2.3,Win32,59.74072525,,,,,,,,,,,,0.9961,1,,,,,,,,,,,,,,,,,,,,,,,,-0.001851839,-0.381481551,0,0,0,,,,,,,WALRUS,C,m,y,./images/WALRUS.png,,,,,,,,m,1,0.9961,,,,,,,,0,126,126,23,1
,,,,,,,,,,,,,,,,,200641,21,2022-01-28_21h21.32.431,lexical_decision_task_DD_L2,2021.2.3,Win32,59.74072525,,,,,,,,,,,,0.7038,0,,,,,,,,,,,,,,,,,,,,,,,,-0.001851839,-0.381481551,0,0,0,,,,,,,PISTOL,C,z,y,./images/PISTOL.png,,,,,,,,m,0,0.7038,,,,,,,,0,127,127,113,1
,,,,,,,,,,,,,,,,,200641,21,2022-01-28_21h21.32.431,lexical_decision_task_DD_L2,2021.2.3,Win32,59.74072525,,,,,,,,,,,,0.6135,1,,,,,,,,,,,,,,,,,,,,,,,,-0.001851839,-0.381481551,0,0,0,,,,,,,CLOTH,C,z,y,./images/CLOTH.png,,,,,,,,z,1,0.6135,,,,,,,,0,128,128,107,1
,,,,,,,,,,,,,,,,,200641,21,2022-01-28_21h21.32.431,lexical_decision_task_DD_L2,2021.2.3,Win32,59.74072525,,,,,,,,,,,,0.633,1,,,,,,,,,,,,,,,,,,,,,,,,-0.001851839,-0.381481551,0,0,0,,,,,,,LIZARD,C,m,y,./images/LIZARD.png,,,,,,,,m,1,0.633,,,,,,,,0,129,129,44,1
,,,,,,,,,,,,,,,,,200641,21,2022-01-28_21h21.32.431,lexical_decision_task_DD_L2,2021.2.3,Win32,59.74072525,,,,,,,,,,,,0.9998,1,,,,,,,,,,,,,,,,,,,,,,,,-0.001851839,-0.381481551,0,0,0,,,,,,,VALLEY,C,z,y,./images/VALLEY.png,,,,,,,,z,1,0.9998,,,,,,,,0,130,130,152,1
,,,,,,,,,,,,,,,,,200641,21,2022-01-28_21h21.32.431,lexical_decision_task_DD_L2,2021.2.3,Win32,59.74072525,,,,,,,,,,,,1.2095,1,,,,,,,,,,,,,,,,,,,,,,,,-0.001851839,-0.381481551,0,0,0,,,,,,,GRAPE,LB,z,y,./images/GRAPELB.png,,,,,,,,z,1,1.2095,,,,,,,,0,131,131,100,1
,,,,,,,,,,,,,,,,,200641,21,2022-01-28_21h21.32.431,lexical_decision_task_DD_L2,2021.2.3,Win32,59.74072525,,,,,,,,,,,,1.0574,0,,,,,,,,,,,,,,,,,,,,,,,,-0.001851839,-0.381481551,0,0,0,,,,,,,BIRTH,LB,m,y,./images/BIRTHLB.png,,,,,,,,z,0,1.0574,,,,,,,,0,132,132,37,1
,,,,,,,,,,,,,,,,,200641,21,2022-01-28_21h21.32.431,lexical_decision_task_DD_L2,2021.2.3,Win32,59.74072525,,,,,,,,,,,,2.5552,1,,,,,,,,,,,,,,,,,,,,,,,,-0.001851839,-0.381481551,0,0,0,,,,,,,DRILL,HB,z,y,./images/DRILLHB.png,,,,,,,,z,1,2.5552,,,,,,,,0,133,133,165,1
,,,,,,,,,,,,,,,,,200641,21,2022-01-28_21h21.32.431,lexical_decision_task_DD_L2,2021.2.3,Win32,59.74072525,,,,,,,,,,,,2.1515,1,,,,,,,,,,,,,,,,,,,,,,,,-0.001851839,-0.381481551,0,0,0,,,,,,,CHALK,LB,z,y,./images/CHALKLB.png,,,,,,,,z,1,2.1515,,,,,,,,0,134,134,109,1
,,,,,,,,,,,,,,,,,200641,21,2022-01-28_21h21.32.431,lexical_decision_task_DD_L2,2021.2.3,Win32,59.74072525,,,,,,,,,,,,2.1484,0,,,,,,,,,,,,,,,,,,,,,,,,-0.001851839,-0.381481551,0,0,0,,,,,,,JELLY,LB,m,y,./images/JELLYLB.png,,,,,,,,z,0,2.1484,,,,,,,,0,135,135,64,1
,,,,,,,,,,,,,,,,,200641,21,2022-01-28_21h21.32.431,lexical_decision_task_DD_L2,2021.2.3,Win32,59.74072525,,,,,,,,,,,,0.8733,1,,,,,,,,,,,,,,,,,,,,,,,,-0.001851839,-0.381481551,0,0,0,,,,,,,MEDAL,C,z,y,./images/MEDAL.png,,,,,,,,z,1,0.8733,,,,,,,,0,136,136,95,1
,,,,,,,,,,,,,,,,,200641,21,2022-01-28_21h21.32.431,lexical_decision_task_DD_L2,2021.2.3,Win32,59.74072525,,,,,,,,,,,,0.5866,0,,,,,,,,,,,,,,,,,,,,,,,,-0.001851839,-0.381481551,0,0,0,,,,,,,PILOT,C,z,y,./images/PILOT.png,,,,,,,,m,0,0.5866,,,,,,,,0,137,137,134,1
,,,,,,,,,,,,,,,,,200641,21,2022-01-28_21h21.32.431,lexical_decision_task_DD_L2,2021.2.3,Win32,59.74072525,,,,,,,,,,,,0.8549,1,,,,,,,,,,,,,,,,,,,,,,,,-0.001851839,-0.381481551,0,0,0,,,,,,,STAIN,HB,z,y,./images/STAINHB.png,,,,,,,,z,1,0.8549,,,,,,,,0,138,138,90,1
,,,,,,,,,,,,,,,,,200641,21,2022-01-28_21h21.32.431,lexical_decision_task_DD_L2,2021.2.3,Win32,59.74072525,,,,,,,,,,,,0.7396,1,,,,,,,,,,,,,,,,,,,,,,,,-0.001851839,-0.381481551,0,0,0,,,,,,,STEAK,LB,z,y,./images/STEAKLB.png,,,,,,,,z,1,0.7396,,,,,,,,0,139,139,115,1
,,,,,,,,,,,,,,,,,200641,21,2022-01-28_21h21.32.431,lexical_decision_task_DD_L2,2021.2.3,Win32,59.74072525,,,,,,,,,,,,0.9132,1,,,,,,,,,,,,,,,,,,,,,,,,-0.001851839,-0.381481551,0,0,0,,,,,,,SQUARE,HB,m,y,./images/SQUAREHB.png,,,,,,,,m,1,0.9132,,,,,,,,0,140,140,6,1
,,,,,,,,,,,,,,,,,200641,21,2022-01-28_21h21.32.431,lexical_decision_task_DD_L2,2021.2.3,Win32,59.74072525,,,,,,,,,,,,0.6391,1,,,,,,,,,,,,,,,,,,,,,,,,-0.001851839,-0.381481551,0,0,0,,,,,,,PICKLE,C,m,y,./images/PICKLE.png,,,,,,,,m,1,0.6391,,,,,,,,0,141,141,14,1
,,,,,,,,,,,,,,,,,200641,21,2022-01-28_21h21.32.431,lexical_decision_task_DD_L2,2021.2.3,Win32,59.74072525,,,,,,,,,,,,1.1031,1,,,,,,,,,,,,,,,,,,,,,,,,-0.001851839,-0.381481551,0,0,0,,,,,,,SPORT,HB,m,y,./images/SPORTHB.png,,,,,,,,m,1,1.1031,,,,,,,,0,142,142,48,1
,,,,,,,,,,,,,,,,,200641,21,2022-01-28_21h21.32.431,lexical_decision_task_DD_L2,2021.2.3,Win32,59.74072525,,,,,,,,,,,,0.8639,1,,,,,,,,,,,,,,,,,,,,,,,,-0.001851839,-0.381481551,0,0,0,,,,,,,CLIFF,C,z,y,./images/CLIFF.png,,,,,,,,z,1,0.8639,,,,,,,,0,143,143,92,1
,,,,,,,,,,,,,,,,,200641,21,2022-01-28_21h21.32.431,lexical_decision_task_DD_L2,2021.2.3,Win32,59.74072525,,,,,,,,,,,,1.8152,0,,,,,,,,,,,,,,,,,,,,,,,,-0.001851839,-0.381481551,0,0,0,,,,,,,MONKEY,HB,z,y,./images/MONKEYHB.png,,,,,,,,m,0,1.8152,,,,,,,,0,144,144,129,1
,,,,,,,,,,,,,,,,,200641,21,2022-01-28_21h21.32.431,lexical_decision_task_DD_L2,2021.2.3,Win32,59.74072525,,,,,,,,,,,,1.034,1,,,,,,,,,,,,,,,,,,,,,,,,-0.001851839,-0.381481551,0,0,0,,,,,,,BONNET,C,m,y,./images/BONNET.png,,,,,,,,m,1,1.034,,,,,,,,0,145,145,11,1
,,,,,,,,,,,,,,,,,200641,21,2022-01-28_21h21.32.431,lexical_decision_task_DD_L2,2021.2.3,Win32,59.74072525,,,,,,,,,,,,1.2043,1,,,,,,,,,,,,,,,,,,,,,,,,-0.001851839,-0.381481551,0,0,0,,,,,,,STOVE,C,z,y,./images/STOVE.png,,,,,,,,z,1,1.2043,,,,,,,,0,146,146,86,1
,,,,,,,,,,,,,,,,,200641,21,2022-01-28_21h21.32.431,lexical_decision_task_DD_L2,2021.2.3,Win32,59.74072525,,,,,,,,,,,,0.866,1,,,,,,,,,,,,,,,,,,,,,,,,-0.001851839,-0.381481551,0,0,0,,,,,,,MOSQUE,LB,m,y,./images/MOSQUELB.png,,,,,,,,m,1,0.866,,,,,,,,0,147,147,43,1
,,,,,,,,,,,,,,,,,200641,21,2022-01-28_21h21.32.431,lexical_decision_task_DD_L2,2021.2.3,Win32,59.74072525,,,,,,,,,,,,0.7973,0,,,,,,,,,,,,,,,,,,,,,,,,-0.001851839,-0.381481551,0,0,0,,,,,,,WALNUT,HB,z,y,./images/WALNUTHB.png,,,,,,,,m,0,0.7973,,,,,,,,0,148,148,84,1
,,,,,,,,,,,,,,,,,200641,21,2022-01-28_21h21.32.431,lexical_decision_task_DD_L2,2021.2.3,Win32,59.74072525,,,,,,,,,,,,1.6093,1,,,,,,,,,,,,,,,,,,,,,,,,-0.001851839,-0.381481551,0,0,0,,,,,,,PENCE,LB,m,y,./images/PENCELB.png,,,,,,,,m,1,1.6093,,,,,,,,0,149,149,16,1
,,,,,,,,,,,,,,,,,200641,21,2022-01-28_21h21.32.431,lexical_decision_task_DD_L2,2021.2.3,Win32,59.74072525,,,,,,,,,,,,2.9969,1,,,,,,,,,,,,,,,,,,,,,,,,-0.001851839,-0.381481551,0,0,0,,,,,,,MOTOR,LB,m,y,./images/MOTORLB.png,,,,,,,,m,1,2.9969,,,,,,,,0,150,150,13,1
,,,,,,,,,,,,,,,,,200641,21,2022-01-28_21h21.32.431,lexical_decision_task_DD_L2,2021.2.3,Win32,59.74072525,,,,,,,,,,,,0.9881,1,,,,,,,,,,,,,,,,,,,,,,,,-0.001851839,-0.381481551,0,0,0,,,,,,,SNACK,LB,m,y,./images/SNACKLB.png,,,,,,,,m,1,0.9881,,,,,,,,0,151,151,73,1
,,,,,,,,,,,,,,,,,200641,21,2022-01-28_21h21.32.431,lexical_decision_task_DD_L2,2021.2.3,Win32,59.74072525,,,,,,,,,,,,0.7735,1,,,,,,,,,,,,,,,,,,,,,,,,-0.001851839,-0.381481551,0,0,0,,,,,,,SWEAT,HB,m,y,./images/SWEATHB.png,,,,,,,,m,1,0.7735,,,,,,,,0,152,152,66,1
,,,,,,,,,,,,,,,,,200641,21,2022-01-28_21h21.32.431,lexical_decision_task_DD_L2,2021.2.3,Win32,59.74072525,,,,,,,,,,,,0.7003,1,,,,,,,,,,,,,,,,,,,,,,,,-0.001851839,-0.381481551,0,0,0,,,,,,,BOXER,LB,z,y,./images/BOXERLB.png,,,,,,,,z,1,0.7003,,,,,,,,0,153,153,88,1
,,,,,,,,,,,,,,,,,200641,21,2022-01-28_21h21.32.431,lexical_decision_task_DD_L2,2021.2.3,Win32,59.74072525,,,,,,,,,,,,0.8981,1,,,,,,,,,,,,,,,,,,,,,,,,-0.001851839,-0.381481551,0,0,0,,,,,,,CANYON,LB,m,y,./images/CANYONLB.png,,,,,,,,m,1,0.8981,,,,,,,,0,154,154,34,1
,,,,,,,,,,,,,,,,,200641,21,2022-01-28_21h21.32.431,lexical_decision_task_DD_L2,2021.2.3,Win32,59.74072525,,,,,,,,,,,,0.6559,1,,,,,,,,,,,,,,,,,,,,,,,,-0.001851839,-0.381481551,0,0,0,,,,,,,CANDY,HB,z,y,./images/CANDYHB.png,,,,,,,,z,1,0.6559,,,,,,,,0,155,155,123,1
,,,,,,,,,,,,,,,,,200641,21,2022-01-28_21h21.32.431,lexical_decision_task_DD_L2,2021.2.3,Win32,59.74072525,,,,,,,,,,,,0.869,1,,,,,,,,,,,,,,,,,,,,,,,,-0.001851839,-0.381481551,0,0,0,,,,,,,CANDLE,LB,m,y,./images/CANDLELB.png,,,,,,,,m,1,0.869,,,,,,,,0,156,156,61,1
,,,,,,,,,,,,,,,,,200641,21,2022-01-28_21h21.32.431,lexical_decision_task_DD_L2,2021.2.3,Win32,59.74072525,,,,,,,,,,,,0.7875,1,,,,,,,,,,,,,,,,,,,,,,,,-0.001851839,-0.381481551,0,0,0,,,,,,,MIDGET,LB,z,y,./images/MIDGETLB.png,,,,,,,,z,1,0.7875,,,,,,,,0,157,157,160,1
,,,,,,,,,,,,,,,,,200641,21,2022-01-28_21h21.32.431,lexical_decision_task_DD_L2,2021.2.3,Win32,59.74072525,,,,,,,,,,,,0.5995,0,,,,,,,,,,,,,,,,,,,,,,,,-0.001851839,-0.381481551,0,0,0,,,,,,,TULIP,C,m,y,./images/TULIP.png,,,,,,,,z,0,0.5995,,,,,,,,0,158,158,8,1
,,,,,,,,,,,,,,,,,200641,21,2022-01-28_21h21.32.431,lexical_decision_task_DD_L2,2021.2.3,Win32,59.74072525,,,,,,,,,,,,1.2962,1,,,,,,,,,,,,,,,,,,,,,,,,-0.001851839,-0.381481551,0,0,0,,,,,,,LADDER,C,m,y,./images/LADDER.png,,,,,,,,m,1,1.2962,,,,,,,,0,159,159,38,1
,,,,,,,,,,,,,,,,,200641,21,2022-01-28_21h21.32.431,lexical_decision_task_DD_L2,2021.2.3,Win32,59.74072525,,,,,,,,,,,,0.8997,1,,,,,,,,,,,,,,,,,,,,,,,,-0.001851839,-0.381481551,0,0,0,,,,,,,CARPET,C,m,y,./images/CARPET.png,,,,,,,,m,1,0.8997,,,,,,,,0,160,160,53,1
,,,,,,,,,,,,,,,,,200641,21,2022-01-28_21h21.32.431,lexical_decision_task_DD_L2,2021.2.3,Win32,59.74072525,,,,,,,,,,,,1.5829,1,,,,,,,,,,,,,,,,,,,,,,,,-0.001851839,-0.381481551,0,0,0,,,,,,,STOOL,LB,z,y,./images/STOOLLB.png,,,,,,,,z,1,1.5829,,,,,,,,0,161,161,127,1
,,,,,,,,,,,,,,,,,200641,21,2022-01-28_21h21.32.431,lexical_decision_task_DD_L2,2021.2.3,Win32,59.74072525,,,,,,,,,,,,0.4882,0,,,,,,,,,,,,,,,,,,,,,,,,-0.001851839,-0.381481551,0,0,0,,,,,,,ATTIC,HB,m,y,./images/ATTICHB.png,,,,,,,,z,0,0.4882,,,,,,,,0,162,162,27,1
,,,,,,,,,,,,,,,,,200641,21,2022-01-28_21h21.32.431,lexical_decision_task_DD_L2,2021.2.3,Win32,59.74072525,,,,,,,,,,,,0.7525,1,,,,,,,,,,,,,,,,,,,,,,,,-0.001851839,-0.381481551,0,0,0,,,,,,,BROOM,HB,z,y,./images/BROOMHB.png,,,,,,,,z,1,0.7525,,,,,,,,0,163,163,162,1
,,,,,,,,,,,,,,,,,200641,21,2022-01-28_21h21.32.431,lexical_decision_task_DD_L2,2021.2.3,Win32,59.74072525,,,,,,,,,,,,0.5524,0,,,,,,,,,,,,,,,,,,,,,,,,-0.001851839,-0.381481551,0,0,0,,,,,,,PEARL,LB,m,y,./images/PEARLLB.png,,,,,,,,z,0,0.5524,,,,,,,,0,164,164,46,1
,,,,,,,,,,,,,,,,,200641,21,2022-01-28_21h21.32.431,lexical_decision_task_DD_L2,2021.2.3,Win32,59.74072525,,,,,,,,,,,,0.8632,0,,,,,,,,,,,,,,,,,,,,,,,,-0.001851839,-0.381481551,0,0,0,,,,,,,BEARD,C,m,y,./images/BEARD.png,,,,,,,,z,0,0.8632,,,,,,,,0,165,165,2,1
,,,,,,,,,,,,,,,,,200641,21,2022-01-28_21h21.32.431,lexical_decision_task_DD_L2,2021.2.3,Win32,59.74072525,,,,,,,,,,,,0.6264,1,,,,,,,,,,,,,,,,,,,,,,,,-0.001851839,-0.381481551,0,0,0,,,,,,,ARTIST,LB,z,y,./images/ARTISTLB.png,,,,,,,,z,1,0.6264,,,,,,,,0,166,166,145,1
,,,,,,,,,,,,,,,,,200641,21,2022-01-28_21h21.32.431,lexical_decision_task_DD_L2,2021.2.3,Win32,59.74072525,,,,,,,,,,,,0.7498,1,,,,,,,,,,,,,,,,,,,,,,,,-0.001851839,-0.381481551,0,0,0,,,,,,,BUTTER,HB,z,y,./images/BUTTERHB.png,,,,,,,,z,1,0.7498,,,,,,,,0,167,167,111,1
