key_resp.keys,instr_done_touch.x,instr_done_touch.y,instr_done_touch.leftButton,instr_done_touch.midButton,instr_done_touch.rightButton,instr_done_touch.clicked_name,instruction_pages.thisRepN,instruction_pages.thisTrialN,instruction_pages.thisN,instruction_pages.thisIndex,instruction_pages.ran,pageN,phase,instruct_text,has_image,instruct_image,participant,age,date,expName,psychopyVersion,OS,frameRate,key_resp.rt,response.keys,response.corr,response.rt,touch_resp.x,touch_resp.y,touch_resp.leftButton,touch_resp.midButton,touch_resp.rightButton,touch_resp.time,touch_resp.clicked_name,rt,corr,practrials.thisRepN,practrials.thisTrialN,practrials.thisN,practrials.thisIndex,practrials.ran,TrialID,Target,corrAns,end_of_practice_trials_pages.thisRepN,end_of_practice_trials_pages.thisTrialN,end_of_practice_trials_pages.thisN,end_of_practice_trials_pages.thisIndex,end_of_practice_trials_pages.ran,key_resp_2.keys,key_resp_2.corr,key_resp_2.rt,targ_click.x,targ_click.y,targ_click.leftButton,targ_click.midButton,targ_click.rightButton,targ_click.time,targ_click.clicked_name,break_done_touch.x,break_done_touch.y,break_done_touch.leftButton,break_done_touch.midButton,break_done_touch.rightButton,break_done_keyboard.keys,maintrials.thisRepN,maintrials.thisTrialN,maintrials.thisN,maintrials.thisIndex,maintrials.ran,string,blur,study,lex,stim_path,break_done_keyboard.rt,test_instructions.thisRepN,test_instructions.thisTrialN,test_instructions.thisN,test_instructions.thisIndex,test_instructions.ran,key_resp_3.keys,key_resp_3.corr,key_resp_3.rt,test_click.x,test_click.y,test_click.leftButton,test_click.midButton,test_click.rightButton,test_click.time,test_click.clicked_name,test_phase.thisRepN,test_phase.thisTrialN,test_phase.thisN,test_phase.thisIndex,test_phase.ran
,0.056666667,-0.387777778,1,0,0,instr_done_button,0,0,0,0,1,1,instructions,"INSTRUCTIONS
At the start of each trial, look at the plus sign  (+) in the center of the screen.  This tells you that a trial is about to begin and where to look. Second, the plus sign will disappear and a string of letters will appear. Your task is to determine if the string of letters is a word or not. If the item is a word press the M key (on keyboard)  or touch the word button (phone/tablet).  If the item is not a word,  press the  Z key (on keyboard)  or touch the nonword button (on phone/tablet). 
Press the space bar or touch  continue.",0,,200623,21,2022-01-28_14h32.42.355,lexical_decision_task_DD_L5,2021.2.3,MacIntel,58.82352941,,,,,,,,,,,,,,,,,,,,,,,,,,,,,,,,,,,,,,,,,,,,,,,,,,,,,,,,,,,,,,,,,,,,,,,,,
,0.056666667,-0.387777778,1,0,0,instr_done_button,0,1,1,1,1,2,instructions,"If your device has a keyboard, press the 'Z' key for nonwords and the 'M' key for words.





Press the space bar or touch the button below to continue.",0,keyboard-example.gif,200623,21,2022-01-28_14h32.42.355,lexical_decision_task_DD_L5,2021.2.3,MacIntel,58.82352941,,,,,,,,,,,,,,,,,,,,,,,,,,,,,,,,,,,,,,,,,,,,,,,,,,,,,,,,,,,,,,,,,,,,,,,,,
space,0.023333333,-0.396666667,0,0,0,,0,2,2,2,1,3,instructions,"If you are using a touchscreen only device, use the buttons on the screen. Do not use the mouse.





Press the space bar or touch the button below to continue.",0,touchscreen-example.gif,200623,21,2022-01-28_14h32.42.355,lexical_decision_task_DD_L5,2021.2.3,MacIntel,58.82352941,2.658,,,,,,,,,,,,,,,,,,,,,,,,,,,,,,,,,,,,,,,,,,,,,,,,,,,,,,,,,,,,,,,,,,,,,,,,
space,0.023333333,-0.396666667,0,0,0,,0,3,3,3,1,4,instructions,"It is very important that you respond as quickly and accurately as possible, as each letter string will only be on the screen for two seconds. If you do not respond within this time, the message 'Too slow!' will be displayed and the experiment will progress to the next letter string. The first 20 trials will be practice trials and you will receive feedback on your answers. 

Press the space bar or touch the button below to start the practice trials.",0,,200623,21,2022-01-28_14h32.42.355,lexical_decision_task_DD_L5,2021.2.3,MacIntel,58.82352941,3.978,,,,,,,,,,,,,,,,,,,,,,,,,,,,,,,,,,,,,,,,,,,,,,,,,,,,,,,,,,,,,,,,,,,,,,,,
,,,,,,,,,,,,,,,,,200623,21,2022-01-28_14h32.42.355,lexical_decision_task_DD_L5,2021.2.3,MacIntel,58.82352941,,m,1,2.656,,,,,,,,2.656,1,0,0,0,0,1,1001,UTOPIA,m,,,,,,,,,,,,,,,,,,,,,,,,,,,,,,,,,,,,,,,,,,,,,,,,,,,,
,,,,,,,,,,,,,,,,,200623,21,2022-01-28_14h32.42.355,lexical_decision_task_DD_L5,2021.2.3,MacIntel,58.82352941,,z,1,1.314,,,,,,,,1.314,1,0,1,1,9,1,1001,FARINY,z,,,,,,,,,,,,,,,,,,,,,,,,,,,,,,,,,,,,,,,,,,,,,,,,,,,,
,,,,,,,,,,,,,,,,,200623,21,2022-01-28_14h32.42.355,lexical_decision_task_DD_L5,2021.2.3,MacIntel,58.82352941,,z,1,1.371,,,,,,,,1.371,1,0,2,2,12,1,1001,SPRINY,z,,,,,,,,,,,,,,,,,,,,,,,,,,,,,,,,,,,,,,,,,,,,,,,,,,,,
,,,,,,,,,,,,,,,,,200623,21,2022-01-28_14h32.42.355,lexical_decision_task_DD_L5,2021.2.3,MacIntel,58.82352941,,m,1,0.749,,,,,,,,0.749,1,0,3,3,1,1,1001,ADJUST,m,,,,,,,,,,,,,,,,,,,,,,,,,,,,,,,,,,,,,,,,,,,,,,,,,,,,
,,,,,,,,,,,,,,,,,200623,21,2022-01-28_14h32.42.355,lexical_decision_task_DD_L5,2021.2.3,MacIntel,58.82352941,,m,1,0.632,,,,,,,,0.632,1,0,4,4,5,1,1001,OBTAIN,m,,,,,,,,,,,,,,,,,,,,,,,,,,,,,,,,,,,,,,,,,,,,,,,,,,,,
,,,,,,,,,,,,,,,,,200623,21,2022-01-28_14h32.42.355,lexical_decision_task_DD_L5,2021.2.3,MacIntel,58.82352941,,m,1,0.678,,,,,,,,0.678,1,0,5,5,6,1,1001,ZOMBIE,m,,,,,,,,,,,,,,,,,,,,,,,,,,,,,,,,,,,,,,,,,,,,,,,,,,,,
,,,,,,,,,,,,,,,,,200623,21,2022-01-28_14h32.42.355,lexical_decision_task_DD_L5,2021.2.3,MacIntel,58.82352941,,m,1,0.56,,,,,,,,0.56,1,0,6,6,3,1,1001,MATRIX,m,,,,,,,,,,,,,,,,,,,,,,,,,,,,,,,,,,,,,,,,,,,,,,,,,,,,
,,,,,,,,,,,,,,,,,200623,21,2022-01-28_14h32.42.355,lexical_decision_task_DD_L5,2021.2.3,MacIntel,58.82352941,,z,1,1.299,,,,,,,,1.299,1,0,7,7,15,1,1001,WHAISE,z,,,,,,,,,,,,,,,,,,,,,,,,,,,,,,,,,,,,,,,,,,,,,,,,,,,,
,,,,,,,,,,,,,,,,,200623,21,2022-01-28_14h32.42.355,lexical_decision_task_DD_L5,2021.2.3,MacIntel,58.82352941,,m,0,1.237,,,,,,,,1.237,0,0,8,8,11,1,1001,RASHET,z,,,,,,,,,,,,,,,,,,,,,,,,,,,,,,,,,,,,,,,,,,,,,,,,,,,,
,,,,,,,,,,,,,,,,,200623,21,2022-01-28_14h32.42.355,lexical_decision_task_DD_L5,2021.2.3,MacIntel,58.82352941,,m,1,0.711,,,,,,,,0.711,1,0,9,9,2,1,1001,ALMOND,m,,,,,,,,,,,,,,,,,,,,,,,,,,,,,,,,,,,,,,,,,,,,,,,,,,,,
,,,,,,,,,,,,,,,,,200623,21,2022-01-28_14h32.42.355,lexical_decision_task_DD_L5,2021.2.3,MacIntel,58.82352941,,z,1,0.799,,,,,,,,0.799,1,0,10,10,13,1,1001,ROUPET,z,,,,,,,,,,,,,,,,,,,,,,,,,,,,,,,,,,,,,,,,,,,,,,,,,,,,
,,,,,,,,,,,,,,,,,200623,21,2022-01-28_14h32.42.355,lexical_decision_task_DD_L5,2021.2.3,MacIntel,58.82352941,,m,1,0.589,,,,,,,,0.589,1,0,11,11,7,1,1001,VOLUME,m,,,,,,,,,,,,,,,,,,,,,,,,,,,,,,,,,,,,,,,,,,,,,,,,,,,,
,,,,,,,,,,,,,,,,,200623,21,2022-01-28_14h32.42.355,lexical_decision_task_DD_L5,2021.2.3,MacIntel,58.82352941,,z,1,0.745,,,,,,,,0.745,1,0,12,12,14,1,1001,THRALE,z,,,,,,,,,,,,,,,,,,,,,,,,,,,,,,,,,,,,,,,,,,,,,,,,,,,,
,,,,,,,,,,,,,,,,,200623,21,2022-01-28_14h32.42.355,lexical_decision_task_DD_L5,2021.2.3,MacIntel,58.82352941,,z,1,0.856,,,,,,,,0.856,1,0,13,13,10,1,1001,INLADE,z,,,,,,,,,,,,,,,,,,,,,,,,,,,,,,,,,,,,,,,,,,,,,,,,,,,,
,,,,,,,,,,,,,,,,,200623,21,2022-01-28_14h32.42.355,lexical_decision_task_DD_L5,2021.2.3,MacIntel,58.82352941,,m,1,0.66,,,,,,,,0.66,1,0,14,14,4,1,1001,SQUEAK,m,,,,,,,,,,,,,,,,,,,,,,,,,,,,,,,,,,,,,,,,,,,,,,,,,,,,
,,,,,,,,,,,,,,,,,200623,21,2022-01-28_14h32.42.355,lexical_decision_task_DD_L5,2021.2.3,MacIntel,58.82352941,,m,0,0.544,,,,,,,,0.544,0,0,15,15,8,1,1001,ASLERT,z,,,,,,,,,,,,,,,,,,,,,,,,,,,,,,,,,,,,,,,,,,,,,,,,,,,,
space,0.023333333,-0.396666667,0,0,0,,,,,,,1,end_of_practice,"You have completed the practice trials. During the experimental trials, you will not receive feedback. 
Before you begin, please ensure that you are in a comfortable and quiet location and will not be disturbed for about 15 minutes, as we cannot use your data if you do not complete all the trials. 
 When you are ready to start the experimental trials, please press space or touch the button below.",,,200623,21,2022-01-28_14h32.42.355,lexical_decision_task_DD_L5,2021.2.3,MacIntel,58.82352941,1.376,,,,,,,,,,,,,,,,,,,,,0,0,0,0,1,,,,,,,,,,,,,,,,,,,,,,,,,,,,,,,,,,,,,,,,,,,,,,,
,,,,,,,,,,,,,,,,,200623,21,2022-01-28_14h32.42.355,lexical_decision_task_DD_L5,2021.2.3,MacIntel,58.82352941,,,,,,,,,,,,2.336,1,,,,,,,,,,,,,,z,1,2.336,,,,,,,,0.023333333,-0.396666667,0,0,0,,0,0,0,110,1,CRUNK,LB,old,z,./images/CRUNKLB.png,,,,,,,,,,,,,,,,,,,,,
,,,,,,,,,,,,,,,,,200623,21,2022-01-28_14h32.42.355,lexical_decision_task_DD_L5,2021.2.3,MacIntel,58.82352941,,,,,,,,,,,,0.694,1,,,,,,,,,,,,,,m,1,0.694,,,,,,,,0.023333333,-0.396666667,0,0,0,,0,1,1,79,1,RULER,LB,old,m,./images/RULERLB.png,,,,,,,,,,,,,,,,,,,,,
,,,,,,,,,,,,,,,,,200623,21,2022-01-28_14h32.42.355,lexical_decision_task_DD_L5,2021.2.3,MacIntel,58.82352941,,,,,,,,,,,,0.562,1,,,,,,,,,,,,,,m,1,0.562,,,,,,,,0.023333333,-0.396666667,0,0,0,,0,2,2,38,1,ENGINE,C,old,m,./images/ENGINE.png,,,,,,,,,,,,,,,,,,,,,
,,,,,,,,,,,,,,,,,200623,21,2022-01-28_14h32.42.355,lexical_decision_task_DD_L5,2021.2.3,MacIntel,58.82352941,,,,,,,,,,,,0.449,1,,,,,,,,,,,,,,m,1,0.449,,,,,,,,0.023333333,-0.396666667,0,0,0,,0,3,3,13,1,BUNNY,LB,old,m,./images/BUNNYLB.png,,,,,,,,,,,,,,,,,,,,,
,,,,,,,,,,,,,,,,,200623,21,2022-01-28_14h32.42.355,lexical_decision_task_DD_L5,2021.2.3,MacIntel,58.82352941,,,,,,,,,,,,0.762,1,,,,,,,,,,,,,,m,1,0.762,,,,,,,,0.023333333,-0.396666667,0,0,0,,0,4,4,15,1,COLLAR,HB,old,m,./images/COLLARHB.png,,,,,,,,,,,,,,,,,,,,,
,,,,,,,,,,,,,,,,,200623,21,2022-01-28_14h32.42.355,lexical_decision_task_DD_L5,2021.2.3,MacIntel,58.82352941,,,,,,,,,,,,0.58,1,,,,,,,,,,,,,,m,1,0.58,,,,,,,,0.023333333,-0.396666667,0,0,0,,0,5,5,46,1,MUMMY,LB,old,m,./images/MUMMYLB.png,,,,,,,,,,,,,,,,,,,,,
,,,,,,,,,,,,,,,,,200623,21,2022-01-28_14h32.42.355,lexical_decision_task_DD_L5,2021.2.3,MacIntel,58.82352941,,,,,,,,,,,,1.147,0,,,,,,,,,,,,,,m,0,1.147,,,,,,,,0.023333333,-0.396666667,0,0,0,,0,6,6,143,1,MONGS,LB,old,z,./images/MONGSLB.png,,,,,,,,,,,,,,,,,,,,,
,,,,,,,,,,,,,,,,,200623,21,2022-01-28_14h32.42.355,lexical_decision_task_DD_L5,2021.2.3,MacIntel,58.82352941,,,,,,,,,,,,0.995,1,,,,,,,,,,,,,,m,1,0.995,,,,,,,,0.023333333,-0.396666667,0,0,0,,0,7,7,60,1,CURRY,HB,old,m,./images/CURRYHB.png,,,,,,,,,,,,,,,,,,,,,
,,,,,,,,,,,,,,,,,200623,21,2022-01-28_14h32.42.355,lexical_decision_task_DD_L5,2021.2.3,MacIntel,58.82352941,,,,,,,,,,,,1.033,1,,,,,,,,,,,,,,m,1,1.033,,,,,,,,0.023333333,-0.396666667,0,0,0,,0,8,8,42,1,CHAIN,HB,old,m,./images/CHAINHB.png,,,,,,,,,,,,,,,,,,,,,
,,,,,,,,,,,,,,,,,200623,21,2022-01-28_14h32.42.355,lexical_decision_task_DD_L5,2021.2.3,MacIntel,58.82352941,,,,,,,,,,,,0.662,1,,,,,,,,,,,,,,m,1,0.662,,,,,,,,0.023333333,-0.396666667,0,0,0,,0,9,9,56,1,HEATER,C,old,m,./images/HEATER.png,,,,,,,,,,,,,,,,,,,,,
,,,,,,,,,,,,,,,,,200623,21,2022-01-28_14h32.42.355,lexical_decision_task_DD_L5,2021.2.3,MacIntel,58.82352941,,,,,,,,,,,,1.26,1,,,,,,,,,,,,,,m,1,1.26,,,,,,,,0.023333333,-0.396666667,0,0,0,,0,10,10,30,1,SLOPE,HB,old,m,./images/SLOPEHB.png,,,,,,,,,,,,,,,,,,,,,
,,,,,,,,,,,,,,,,,200623,21,2022-01-28_14h32.42.355,lexical_decision_task_DD_L5,2021.2.3,MacIntel,58.82352941,,,,,,,,,,,,0.546,1,,,,,,,,,,,,,,m,1,0.546,,,,,,,,0.023333333,-0.396666667,0,0,0,,0,11,11,32,1,HOCKEY,C,old,m,./images/HOCKEY.png,,,,,,,,,,,,,,,,,,,,,
,,,,,,,,,,,,,,,,,200623,21,2022-01-28_14h32.42.355,lexical_decision_task_DD_L5,2021.2.3,MacIntel,58.82352941,,,,,,,,,,,,0.847,1,,,,,,,,,,,,,,z,1,0.847,,,,,,,,0.023333333,-0.396666667,0,0,0,,0,12,12,101,1,GLEET,LB,old,z,./images/GLEETLB.png,,,,,,,,,,,,,,,,,,,,,
,,,,,,,,,,,,,,,,,200623,21,2022-01-28_14h32.42.355,lexical_decision_task_DD_L5,2021.2.3,MacIntel,58.82352941,,,,,,,,,,,,0.646,1,,,,,,,,,,,,,,m,1,0.646,,,,,,,,0.023333333,-0.396666667,0,0,0,,0,13,13,61,1,ARTIST,LB,old,m,./images/ARTISTLB.png,,,,,,,,,,,,,,,,,,,,,
,,,,,,,,,,,,,,,,,200623,21,2022-01-28_14h32.42.355,lexical_decision_task_DD_L5,2021.2.3,MacIntel,58.82352941,,,,,,,,,,,,0.82,1,,,,,,,,,,,,,,z,1,0.82,,,,,,,,0.023333333,-0.396666667,0,0,0,,0,14,14,155,1,CANGY,LB,old,z,./images/CANGYLB.png,,,,,,,,,,,,,,,,,,,,,
,,,,,,,,,,,,,,,,,200623,21,2022-01-28_14h32.42.355,lexical_decision_task_DD_L5,2021.2.3,MacIntel,58.82352941,,,,,,,,,,,,0.849,1,,,,,,,,,,,,,,m,1,0.849,,,,,,,,0.023333333,-0.396666667,0,0,0,,0,15,15,76,1,MIDGET,LB,old,m,./images/MIDGETLB.png,,,,,,,,,,,,,,,,,,,,,
,,,,,,,,,,,,,,,,,200623,21,2022-01-28_14h32.42.355,lexical_decision_task_DD_L5,2021.2.3,MacIntel,58.82352941,,,,,,,,,,,,1.896,1,,,,,,,,,,,,,,z,1,1.896,,,,,,,,0.023333333,-0.396666667,0,0,0,,0,16,16,136,1,WERVE,HB,old,z,./images/WERVEHB.png,,,,,,,,,,,,,,,,,,,,,
,,,,,,,,,,,,,,,,,200623,21,2022-01-28_14h32.42.355,lexical_decision_task_DD_L5,2021.2.3,MacIntel,58.82352941,,,,,,,,,,,,0.702,1,,,,,,,,,,,,,,z,1,0.702,,,,,,,,0.023333333,-0.396666667,0,0,0,,0,17,17,162,1,LEICH,C,old,z,./images/LEICH.png,,,,,,,,,,,,,,,,,,,,,
,,,,,,,,,,,,,,,,,200623,21,2022-01-28_14h32.42.355,lexical_decision_task_DD_L5,2021.2.3,MacIntel,58.82352941,,,,,,,,,,,,1.551,1,,,,,,,,,,,,,,z,1,1.551,,,,,,,,0.023333333,-0.396666667,0,0,0,,0,18,18,145,1,LAMEL,HB,old,z,./images/LAMELHB.png,,,,,,,,,,,,,,,,,,,,,
,,,,,,,,,,,,,,,,,200623,21,2022-01-28_14h32.42.355,lexical_decision_task_DD_L5,2021.2.3,MacIntel,58.82352941,,,,,,,,,,,,0.63,1,,,,,,,,,,,,,,m,1,0.63,,,,,,,,0.023333333,-0.396666667,0,0,0,,0,19,19,16,1,GRAPE,LB,old,m,./images/GRAPELB.png,,,,,,,,,,,,,,,,,,,,,
,,,,,,,,,,,,,,,,,200623,21,2022-01-28_14h32.42.355,lexical_decision_task_DD_L5,2021.2.3,MacIntel,58.82352941,,,,,,,,,,,,0.631,1,,,,,,,,,,,,,,z,1,0.631,,,,,,,,0.023333333,-0.396666667,0,0,0,,0,20,20,120,1,RINED,C,old,z,./images/RINED.png,,,,,,,,,,,,,,,,,,,,,
,,,,,,,,,,,,,,,,,200623,21,2022-01-28_14h32.42.355,lexical_decision_task_DD_L5,2021.2.3,MacIntel,58.82352941,,,,,,,,,,,,0.783,1,,,,,,,,,,,,,,m,1,0.783,,,,,,,,0.023333333,-0.396666667,0,0,0,,0,21,21,0,1,WALNUT,HB,old,m,./images/WALNUTHB.png,,,,,,,,,,,,,,,,,,,,,
,,,,,,,,,,,,,,,,,200623,21,2022-01-28_14h32.42.355,lexical_decision_task_DD_L5,2021.2.3,MacIntel,58.82352941,,,,,,,,,,,,0.544,1,,,,,,,,,,,,,,m,1,0.544,,,,,,,,0.023333333,-0.396666667,0,0,0,,0,22,22,23,1,CLOTH,C,old,m,./images/CLOTH.png,,,,,,,,,,,,,,,,,,,,,
,,,,,,,,,,,,,,,,,200623,21,2022-01-28_14h32.42.355,lexical_decision_task_DD_L5,2021.2.3,MacIntel,58.82352941,,,,,,,,,,,,2.701,1,,,,,,,,,,,,,,z,1,2.701,,,,,,,,0.023333333,-0.396666667,0,0,0,,0,23,23,154,1,THINT,HB,old,z,./images/THINTHB.png,,,,,,,,,,,,,,,,,,,,,
,,,,,,,,,,,,,,,,,200623,21,2022-01-28_14h32.42.355,lexical_decision_task_DD_L5,2021.2.3,MacIntel,58.82352941,,,,,,,,,,,,0.746,1,,,,,,,,,,,,,,m,1,0.746,,,,,,,,0.023333333,-0.396666667,0,0,0,,0,24,24,82,1,PEBBLE,LB,old,m,./images/PEBBLELB.png,,,,,,,,,,,,,,,,,,,,,
,,,,,,,,,,,,,,,,,200623,21,2022-01-28_14h32.42.355,lexical_decision_task_DD_L5,2021.2.3,MacIntel,58.82352941,,,,,,,,,,,,0.486,1,,,,,,,,,,,,,,m,1,0.486,,,,,,,,0.023333333,-0.396666667,0,0,0,,0,25,25,59,1,BRUSH,C,old,m,./images/BRUSH.png,,,,,,,,,,,,,,,,,,,,,
,,,,,,,,,,,,,,,,,200623,21,2022-01-28_14h32.42.355,lexical_decision_task_DD_L5,2021.2.3,MacIntel,58.82352941,,,,,,,,,,,,0.652,1,,,,,,,,,,,,,,z,1,0.652,,,,,,,,0.023333333,-0.396666667,0,0,0,,0,26,26,165,1,TROWN,C,old,z,./images/TROWN.png,,,,,,,,,,,,,,,,,,,,,
,,,,,,,,,,,,,,,,,200623,21,2022-01-28_14h32.42.355,lexical_decision_task_DD_L5,2021.2.3,MacIntel,58.82352941,,,,,,,,,,,,1.049,1,,,,,,,,,,,,,,z,1,1.049,,,,,,,,0.023333333,-0.396666667,0,0,0,,0,27,27,134,1,TROSS,LB,old,z,./images/TROSSLB.png,,,,,,,,,,,,,,,,,,,,,
,,,,,,,,,,,,,,,,,200623,21,2022-01-28_14h32.42.355,lexical_decision_task_DD_L5,2021.2.3,MacIntel,58.82352941,,,,,,,,,,,,0.612,0,,,,,,,,,,,,,,m,0,0.612,,,,,,,,0.023333333,-0.396666667,0,0,0,,0,28,28,86,1,AIFED,LB,old,z,./images/AIFEDLB.png,,,,,,,,,,,,,,,,,,,,,
,,,,,,,,,,,,,,,,,200623,21,2022-01-28_14h32.42.355,lexical_decision_task_DD_L5,2021.2.3,MacIntel,58.82352941,,,,,,,,,,,,0.663,1,,,,,,,,,,,,,,z,1,0.663,,,,,,,,0.023333333,-0.396666667,0,0,0,,0,29,29,135,1,JOODY,C,old,z,./images/JOODY.png,,,,,,,,,,,,,,,,,,,,,
,,,,,,,,,,,,,,,,,200623,21,2022-01-28_14h32.42.355,lexical_decision_task_DD_L5,2021.2.3,MacIntel,58.82352941,,,,,,,,,,,,0.995,1,,,,,,,,,,,,,,m,1,0.995,,,,,,,,0.023333333,-0.396666667,0,0,0,,0,30,30,68,1,VALLEY,C,old,m,./images/VALLEY.png,,,,,,,,,,,,,,,,,,,,,
,,,,,,,,,,,,,,,,,200623,21,2022-01-28_14h32.42.355,lexical_decision_task_DD_L5,2021.2.3,MacIntel,58.82352941,,,,,,,,,,,,0.998,1,,,,,,,,,,,,,,m,1,0.998,,,,,,,,0.023333333,-0.396666667,0,0,0,,0,31,31,21,1,DANCER,HB,old,m,./images/DANCERHB.png,,,,,,,,,,,,,,,,,,,,,
,,,,,,,,,,,,,,,,,200623,21,2022-01-28_14h32.42.355,lexical_decision_task_DD_L5,2021.2.3,MacIntel,58.82352941,,,,,,,,,,,,1.73,1,,,,,,,,,,,,,,z,1,1.73,,,,,,,,0.023333333,-0.396666667,0,0,0,,0,32,32,157,1,INLER,HB,old,z,./images/INLERHB.png,,,,,,,,,,,,,,,,,,,,,
,,,,,,,,,,,,,,,,,200623,21,2022-01-28_14h32.42.355,lexical_decision_task_DD_L5,2021.2.3,MacIntel,58.82352941,,,,,,,,,,,,0.478,1,,,,,,,,,,,,,,m,1,0.478,,,,,,,,0.023333333,-0.396666667,0,0,0,,0,33,33,26,1,CLOUD,C,old,m,./images/CLOUD.png,,,,,,,,,,,,,,,,,,,,,
,,,,,,,,,,,,,,,,,200623,21,2022-01-28_14h32.42.355,lexical_decision_task_DD_L5,2021.2.3,MacIntel,58.82352941,,,,,,,,,,,,0.629,1,,,,,,,,,,,,,,m,1,0.629,,,,,,,,0.023333333,-0.396666667,0,0,0,,0,34,34,14,1,FENCE,C,old,m,./images/FENCE.png,,,,,,,,,,,,,,,,,,,,,
,,,,,,,,,,,,,,,,,200623,21,2022-01-28_14h32.42.355,lexical_decision_task_DD_L5,2021.2.3,MacIntel,58.82352941,,,,,,,,,,,,0.894,1,,,,,,,,,,,,,,m,1,0.894,,,,,,,,0.023333333,-0.396666667,0,0,0,,0,35,35,6,1,STAIN,HB,old,m,./images/STAINHB.png,,,,,,,,,,,,,,,,,,,,,
,,,,,,,,,,,,,,,,,200623,21,2022-01-28_14h32.42.355,lexical_decision_task_DD_L5,2021.2.3,MacIntel,58.82352941,,,,,,,,,,,,1.079,1,,,,,,,,,,,,,,z,1,1.079,,,,,,,,0.023333333,-0.396666667,0,0,0,,0,36,36,89,1,DRIEK,LB,old,z,./images/DRIEKLB.png,,,,,,,,,,,,,,,,,,,,,
,,,,,,,,,,,,,,,,,200623,21,2022-01-28_14h32.42.355,lexical_decision_task_DD_L5,2021.2.3,MacIntel,58.82352941,,,,,,,,,,,,1.379,1,,,,,,,,,,,,,,z,1,1.379,,,,,,,,0.023333333,-0.396666667,0,0,0,,0,37,37,87,1,TRING,C,old,z,./images/TRING.png,,,,,,,,,,,,,,,,,,,,,
,,,,,,,,,,,,,,,,,200623,21,2022-01-28_14h32.42.355,lexical_decision_task_DD_L5,2021.2.3,MacIntel,58.82352941,,,,,,,,,,,,1.062,1,,,,,,,,,,,,,,m,1,1.062,,,,,,,,0.023333333,-0.396666667,0,0,0,,0,38,38,73,1,GLOVE,LB,old,m,./images/GLOVELB.png,,,,,,,,,,,,,,,,,,,,,
,,,,,,,,,,,,,,,,,200623,21,2022-01-28_14h32.42.355,lexical_decision_task_DD_L5,2021.2.3,MacIntel,58.82352941,,,,,,,,,,,,0.764,1,,,,,,,,,,,,,,z,1,0.764,,,,,,,,0.023333333,-0.396666667,0,0,0,,0,39,39,161,1,BLAPS,LB,old,z,./images/BLAPSLB.png,,,,,,,,,,,,,,,,,,,,,
,,,,,,,,,,,,,,,,,200623,21,2022-01-28_14h32.42.355,lexical_decision_task_DD_L5,2021.2.3,MacIntel,58.82352941,,,,,,,,,,,,0.662,1,,,,,,,,,,,,,,m,1,0.662,,,,,,,,0.023333333,-0.396666667,0,0,0,,0,40,40,10,1,GARDEN,LB,old,m,./images/GARDENLB.png,,,,,,,,,,,,,,,,,,,,,
,,,,,,,,,,,,,,,,,200623,21,2022-01-28_14h32.42.355,lexical_decision_task_DD_L5,2021.2.3,MacIntel,58.82352941,,,,,,,,,,,,0.95,1,,,,,,,,,,,,,,z,1,0.95,,,,,,,,0.023333333,-0.396666667,0,0,0,space,0,41,41,146,1,MOOST,LB,old,z,./images/MOOSTLB.png,13.658,,,,,,,,,,,,,,,,,,,,
,,,,,,,,,,,,,,,,,200623,21,2022-01-28_14h32.42.355,lexical_decision_task_DD_L5,2021.2.3,MacIntel,58.82352941,,,,,,,,,,,,1.12,1,,,,,,,,,,,,,,z,1,1.12,,,,,,,,0.023333333,-0.396666667,0,0,0,,0,42,42,106,1,CLUMS,HB,old,z,./images/CLUMSHB.png,,,,,,,,,,,,,,,,,,,,,
,,,,,,,,,,,,,,,,,200623,21,2022-01-28_14h32.42.355,lexical_decision_task_DD_L5,2021.2.3,MacIntel,58.82352941,,,,,,,,,,,,0.933,0,,,,,,,,,,,,,,z,0,0.933,,,,,,,,0.023333333,-0.396666667,0,0,0,,0,43,43,51,1,SAUCE,HB,old,m,./images/SAUCEHB.png,,,,,,,,,,,,,,,,,,,,,
,,,,,,,,,,,,,,,,,200623,21,2022-01-28_14h32.42.355,lexical_decision_task_DD_L5,2021.2.3,MacIntel,58.82352941,,,,,,,,,,,,1.711,1,,,,,,,,,,,,,,m,1,1.711,,,,,,,,0.023333333,-0.396666667,0,0,0,,0,44,44,9,1,DIVER,HB,old,m,./images/DIVERHB.png,,,,,,,,,,,,,,,,,,,,,
,,,,,,,,,,,,,,,,,200623,21,2022-01-28_14h32.42.355,lexical_decision_task_DD_L5,2021.2.3,MacIntel,58.82352941,,,,,,,,,,,,0.734,0,,,,,,,,,,,,,,m,0,0.734,,,,,,,,0.023333333,-0.396666667,0,0,0,,0,45,45,84,1,HAXES,C,old,z,./images/HAXES.png,,,,,,,,,,,,,,,,,,,,,
,,,,,,,,,,,,,,,,,200623,21,2022-01-28_14h32.42.355,lexical_decision_task_DD_L5,2021.2.3,MacIntel,58.82352941,,,,,,,,,,,,0.582,1,,,,,,,,,,,,,,m,1,0.582,,,,,,,,0.023333333,-0.396666667,0,0,0,,0,46,46,40,1,SNAKE,LB,old,m,./images/SNAKELB.png,,,,,,,,,,,,,,,,,,,,,
,,,,,,,,,,,,,,,,,200623,21,2022-01-28_14h32.42.355,lexical_decision_task_DD_L5,2021.2.3,MacIntel,58.82352941,,,,,,,,,,,,2.352,1,,,,,,,,,,,,,,z,1,2.352,,,,,,,,0.023333333,-0.396666667,0,0,0,,0,47,47,115,1,MAWNS,HB,old,z,./images/MAWNSHB.png,,,,,,,,,,,,,,,,,,,,,
,,,,,,,,,,,,,,,,,200623,21,2022-01-28_14h32.42.355,lexical_decision_task_DD_L5,2021.2.3,MacIntel,58.82352941,,,,,,,,,,,,0.729,1,,,,,,,,,,,,,,z,1,0.729,,,,,,,,0.023333333,-0.396666667,0,0,0,,0,48,48,117,1,STEEG,C,old,z,./images/STEEG.png,,,,,,,,,,,,,,,,,,,,,
,,,,,,,,,,,,,,,,,200623,21,2022-01-28_14h32.42.355,lexical_decision_task_DD_L5,2021.2.3,MacIntel,58.82352941,,,,,,,,,,,,0.612,1,,,,,,,,,,,,,,m,1,0.612,,,,,,,,0.023333333,-0.396666667,0,0,0,,0,49,49,71,1,BUBBLE,C,old,m,./images/BUBBLE.png,,,,,,,,,,,,,,,,,,,,,
,,,,,,,,,,,,,,,,,200623,21,2022-01-28_14h32.42.355,lexical_decision_task_DD_L5,2021.2.3,MacIntel,58.82352941,,,,,,,,,,,,1.015,1,,,,,,,,,,,,,,z,1,1.015,,,,,,,,0.023333333,-0.396666667,0,0,0,,0,50,50,107,1,FASKS,LB,old,z,./images/FASKSLB.png,,,,,,,,,,,,,,,,,,,,,
,,,,,,,,,,,,,,,,,200623,21,2022-01-28_14h32.42.355,lexical_decision_task_DD_L5,2021.2.3,MacIntel,58.82352941,,,,,,,,,,,,0.769,1,,,,,,,,,,,,,,m,1,0.769,,,,,,,,0.023333333,-0.396666667,0,0,0,,0,51,51,22,1,CLOWN,LB,old,m,./images/CLOWNLB.png,,,,,,,,,,,,,,,,,,,,,
,,,,,,,,,,,,,,,,,200623,21,2022-01-28_14h32.42.355,lexical_decision_task_DD_L5,2021.2.3,MacIntel,58.82352941,,,,,,,,,,,,1.945,0,,,,,,,,,,,,,,m,0,1.945,,,,,,,,0.023333333,-0.396666667,0,0,0,,0,52,52,142,1,PLASK,HB,old,z,./images/PLASKHB.png,,,,,,,,,,,,,,,,,,,,,
,,,,,,,,,,,,,,,,,200623,21,2022-01-28_14h32.42.355,lexical_decision_task_DD_L5,2021.2.3,MacIntel,58.82352941,,,,,,,,,,,,0.819,1,,,,,,,,,,,,,,z,1,0.819,,,,,,,,0.023333333,-0.396666667,0,0,0,,0,53,53,140,1,DOVET,LB,old,z,./images/DOVETLB.png,,,,,,,,,,,,,,,,,,,,,
,,,,,,,,,,,,,,,,,200623,21,2022-01-28_14h32.42.355,lexical_decision_task_DD_L5,2021.2.3,MacIntel,58.82352941,,,,,,,,,,,,1.446,1,,,,,,,,,,,,,,z,1,1.446,,,,,,,,0.023333333,-0.396666667,0,0,0,,0,54,54,124,1,TUNCH,HB,old,z,./images/TUNCHHB.png,,,,,,,,,,,,,,,,,,,,,
,,,,,,,,,,,,,,,,,200623,21,2022-01-28_14h32.42.355,lexical_decision_task_DD_L5,2021.2.3,MacIntel,58.82352941,,,,,,,,,,,,0.871,1,,,,,,,,,,,,,,z,1,0.871,,,,,,,,0.023333333,-0.396666667,0,0,0,,0,55,55,98,1,BAMPS,LB,old,z,./images/BAMPSLB.png,,,,,,,,,,,,,,,,,,,,,
,,,,,,,,,,,,,,,,,200623,21,2022-01-28_14h32.42.355,lexical_decision_task_DD_L5,2021.2.3,MacIntel,58.82352941,,,,,,,,,,,,0.548,1,,,,,,,,,,,,,,m,1,0.548,,,,,,,,0.023333333,-0.396666667,0,0,0,,0,56,56,55,1,ALLEY,LB,old,m,./images/ALLEYLB.png,,,,,,,,,,,,,,,,,,,,,
,,,,,,,,,,,,,,,,,200623,21,2022-01-28_14h32.42.355,lexical_decision_task_DD_L5,2021.2.3,MacIntel,58.82352941,,,,,,,,,,,,0.563,1,,,,,,,,,,,,,,m,1,0.563,,,,,,,,0.023333333,-0.396666667,0,0,0,,0,57,57,5,1,BAMBOO,C,old,m,./images/BAMBOO.png,,,,,,,,,,,,,,,,,,,,,
,,,,,,,,,,,,,,,,,200623,21,2022-01-28_14h32.42.355,lexical_decision_task_DD_L5,2021.2.3,MacIntel,58.82352941,,,,,,,,,,,,0.829,0,,,,,,,,,,,,,,m,0,0.829,,,,,,,,0.023333333,-0.396666667,0,0,0,,0,58,58,104,1,GITTY,LB,old,z,./images/GITTYLB.png,,,,,,,,,,,,,,,,,,,,,
,,,,,,,,,,,,,,,,,200623,21,2022-01-28_14h32.42.355,lexical_decision_task_DD_L5,2021.2.3,MacIntel,58.82352941,,,,,,,,,,,,1.617,1,,,,,,,,,,,,,,z,1,1.617,,,,,,,,0.023333333,-0.396666667,0,0,0,,0,59,59,121,1,CEERS,HB,old,z,./images/CEERSHB.png,,,,,,,,,,,,,,,,,,,,,
,,,,,,,,,,,,,,,,,200623,21,2022-01-28_14h32.42.355,lexical_decision_task_DD_L5,2021.2.3,MacIntel,58.82352941,,,,,,,,,,,,1.152,1,,,,,,,,,,,,,,m,1,1.152,,,,,,,,0.023333333,-0.396666667,0,0,0,,0,60,60,67,1,POKER,LB,old,m,./images/POKERLB.png,,,,,,,,,,,,,,,,,,,,,
,,,,,,,,,,,,,,,,,200623,21,2022-01-28_14h32.42.355,lexical_decision_task_DD_L5,2021.2.3,MacIntel,58.82352941,,,,,,,,,,,,0.729,1,,,,,,,,,,,,,,z,1,0.729,,,,,,,,0.023333333,-0.396666667,0,0,0,,0,61,61,119,1,PAFER,LB,old,z,./images/PAFERLB.png,,,,,,,,,,,,,,,,,,,,,
,,,,,,,,,,,,,,,,,200623,21,2022-01-28_14h32.42.355,lexical_decision_task_DD_L5,2021.2.3,MacIntel,58.82352941,,,,,,,,,,,,1.029,1,,,,,,,,,,,,,,m,1,1.029,,,,,,,,0.023333333,-0.396666667,0,0,0,,0,62,62,69,1,ARROW,HB,old,m,./images/ARROWHB.png,,,,,,,,,,,,,,,,,,,,,
,,,,,,,,,,,,,,,,,200623,21,2022-01-28_14h32.42.355,lexical_decision_task_DD_L5,2021.2.3,MacIntel,58.82352941,,,,,,,,,,,,0.73,1,,,,,,,,,,,,,,z,1,0.73,,,,,,,,0.023333333,-0.396666667,0,0,0,,0,63,63,132,1,SCIFF,C,old,z,./images/SCIFF.png,,,,,,,,,,,,,,,,,,,,,
,,,,,,,,,,,,,,,,,200623,21,2022-01-28_14h32.42.355,lexical_decision_task_DD_L5,2021.2.3,MacIntel,58.82352941,,,,,,,,,,,,0.704,1,,,,,,,,,,,,,,z,1,0.704,,,,,,,,0.023333333,-0.396666667,0,0,0,,0,64,64,96,1,KEAMS,C,old,z,./images/KEAMS.png,,,,,,,,,,,,,,,,,,,,,
,,,,,,,,,,,,,,,,,200623,21,2022-01-28_14h32.42.355,lexical_decision_task_DD_L5,2021.2.3,MacIntel,58.82352941,,,,,,,,,,,,1.073,1,,,,,,,,,,,,,,z,1,1.073,,,,,,,,0.023333333,-0.396666667,0,0,0,,0,65,65,130,1,CRILL,HB,old,z,./images/CRILLHB.png,,,,,,,,,,,,,,,,,,,,,
,,,,,,,,,,,,,,,,,200623,21,2022-01-28_14h32.42.355,lexical_decision_task_DD_L5,2021.2.3,MacIntel,58.82352941,,,,,,,,,,,,0.628,1,,,,,,,,,,,,,,m,1,0.628,,,,,,,,0.023333333,-0.396666667,0,0,0,,0,66,66,4,1,BOXER,LB,old,m,./images/BOXERLB.png,,,,,,,,,,,,,,,,,,,,,
,,,,,,,,,,,,,,,,,200623,21,2022-01-28_14h32.42.355,lexical_decision_task_DD_L5,2021.2.3,MacIntel,58.82352941,,,,,,,,,,,,0.554,0,,,,,,,,,,,,,,z,0,0.554,,,,,,,,0.023333333,-0.396666667,0,0,0,,0,67,67,17,1,PARADE,C,old,m,./images/PARADE.png,,,,,,,,,,,,,,,,,,,,,
,,,,,,,,,,,,,,,,,200623,21,2022-01-28_14h32.42.355,lexical_decision_task_DD_L5,2021.2.3,MacIntel,58.82352941,,,,,,,,,,,,0.562,1,,,,,,,,,,,,,,m,1,0.562,,,,,,,,0.023333333,-0.396666667,0,0,0,,0,68,68,53,1,POSTER,C,old,m,./images/POSTER.png,,,,,,,,,,,,,,,,,,,,,
,,,,,,,,,,,,,,,,,200623,21,2022-01-28_14h32.42.355,lexical_decision_task_DD_L5,2021.2.3,MacIntel,58.82352941,,,,,,,,,,,,0.498,1,,,,,,,,,,,,,,m,1,0.498,,,,,,,,0.023333333,-0.396666667,0,0,0,,0,69,69,19,1,DONKEY,LB,old,m,./images/DONKEYLB.png,,,,,,,,,,,,,,,,,,,,,
,,,,,,,,,,,,,,,,,200623,21,2022-01-28_14h32.42.355,lexical_decision_task_DD_L5,2021.2.3,MacIntel,58.82352941,,,,,,,,,,,,0.561,1,,,,,,,,,,,,,,z,1,0.561,,,,,,,,0.023333333,-0.396666667,0,0,0,,0,70,70,137,1,JOOST,LB,old,z,./images/JOOSTLB.png,,,,,,,,,,,,,,,,,,,,,
,,,,,,,,,,,,,,,,,200623,21,2022-01-28_14h32.42.355,lexical_decision_task_DD_L5,2021.2.3,MacIntel,58.82352941,,,,,,,,,,,,2.212,0,,,,,,,,,,,,,,m,0,2.212,,,,,,,,0.023333333,-0.396666667,0,0,0,,0,71,71,100,1,DRIBS,HB,old,z,./images/DRIBSHB.png,,,,,,,,,,,,,,,,,,,,,
,,,,,,,,,,,,,,,,,200623,21,2022-01-28_14h32.42.355,lexical_decision_task_DD_L5,2021.2.3,MacIntel,58.82352941,,,,,,,,,,,,1.878,0,,,,,,,,,,,,,,m,0,1.878,,,,,,,,0.023333333,-0.396666667,0,0,0,,0,72,72,109,1,BURGE,HB,old,z,./images/BURGEHB.png,,,,,,,,,,,,,,,,,,,,,
,,,,,,,,,,,,,,,,,200623,21,2022-01-28_14h32.42.355,lexical_decision_task_DD_L5,2021.2.3,MacIntel,58.82352941,,,,,,,,,,,,0.938,0,,,,,,,,,,,,,,m,0,0.938,,,,,,,,0.023333333,-0.396666667,0,0,0,,0,73,73,126,1,GUELS,C,old,z,./images/GUELS.png,,,,,,,,,,,,,,,,,,,,,
,,,,,,,,,,,,,,,,,200623,21,2022-01-28_14h32.42.355,lexical_decision_task_DD_L5,2021.2.3,MacIntel,58.82352941,,,,,,,,,,,,0.93,1,,,,,,,,,,,,,,m,1,0.93,,,,,,,,0.023333333,-0.396666667,0,0,0,,0,74,74,45,1,MONKEY,HB,old,m,./images/MONKEYHB.png,,,,,,,,,,,,,,,,,,,,,
,,,,,,,,,,,,,,,,,200623,21,2022-01-28_14h32.42.355,lexical_decision_task_DD_L5,2021.2.3,MacIntel,58.82352941,,,,,,,,,,,,1.866,1,,,,,,,,,,,,,,m,1,1.866,,,,,,,,0.023333333,-0.396666667,0,0,0,,0,75,75,54,1,CHERRY,HB,old,m,./images/CHERRYHB.png,,,,,,,,,,,,,,,,,,,,,
,,,,,,,,,,,,,,,,,200623,21,2022-01-28_14h32.42.355,lexical_decision_task_DD_L5,2021.2.3,MacIntel,58.82352941,,,,,,,,,,,,0.796,1,,,,,,,,,,,,,,m,1,0.796,,,,,,,,0.023333333,-0.396666667,0,0,0,,0,76,76,12,1,BLOKE,HB,old,m,./images/BLOKEHB.png,,,,,,,,,,,,,,,,,,,,,
,,,,,,,,,,,,,,,,,200623,21,2022-01-28_14h32.42.355,lexical_decision_task_DD_L5,2021.2.3,MacIntel,58.82352941,,,,,,,,,,,,0.78,1,,,,,,,,,,,,,,z,1,0.78,,,,,,,,0.023333333,-0.396666667,0,0,0,,0,77,77,131,1,NACES,LB,old,z,./images/NACESLB.png,,,,,,,,,,,,,,,,,,,,,
,,,,,,,,,,,,,,,,,200623,21,2022-01-28_14h32.42.355,lexical_decision_task_DD_L5,2021.2.3,MacIntel,58.82352941,,,,,,,,,,,,0.517,1,,,,,,,,,,,,,,m,1,0.517,,,,,,,,0.023333333,-0.396666667,0,0,0,,0,78,78,62,1,MAMMAL,C,old,m,./images/MAMMAL.png,,,,,,,,,,,,,,,,,,,,,
,,,,,,,,,,,,,,,,,200623,21,2022-01-28_14h32.42.355,lexical_decision_task_DD_L5,2021.2.3,MacIntel,58.82352941,,,,,,,,,,,,0.362,1,,,,,,,,,,,,,,m,1,0.362,,,,,,,,0.023333333,-0.396666667,0,0,0,,0,79,79,74,1,JUMPER,C,old,m,./images/JUMPER.png,,,,,,,,,,,,,,,,,,,,,
,,,,,,,,,,,,,,,,,200623,21,2022-01-28_14h32.42.355,lexical_decision_task_DD_L5,2021.2.3,MacIntel,58.82352941,,,,,,,,,,,,0.688,1,,,,,,,,,,,,,,z,1,0.688,,,,,,,,0.023333333,-0.396666667,0,0,0,,0,80,80,149,1,VEASE,LB,old,z,./images/VEASELB.png,,,,,,,,,,,,,,,,,,,,,
,,,,,,,,,,,,,,,,,200623,21,2022-01-28_14h32.42.355,lexical_decision_task_DD_L5,2021.2.3,MacIntel,58.82352941,,,,,,,,,,,,0.663,1,,,,,,,,,,,,,,z,1,0.663,,,,,,,,0.023333333,-0.396666667,0,0,0,,0,81,81,153,1,CLUPS,C,old,z,./images/CLUPS.png,,,,,,,,,,,,,,,,,,,,,
,,,,,,,,,,,,,,,,,200623,21,2022-01-28_14h32.42.355,lexical_decision_task_DD_L5,2021.2.3,MacIntel,58.82352941,,,,,,,,,,,,0.546,1,,,,,,,,,,,,,,m,1,0.546,,,,,,,,0.023333333,-0.396666667,0,0,0,,0,82,82,11,1,MEDAL,C,old,m,./images/MEDAL.png,,,,,,,,,,,,,,,,,,,,,
,,,,,,,,,,,,,,,,,200623,21,2022-01-28_14h32.42.355,lexical_decision_task_DD_L5,2021.2.3,MacIntel,58.82352941,,,,,,,,,,,,1.753,1,,,,,,,,,,,,,,z,1,1.753,,,,,,,,0.023333333,-0.396666667,0,0,0,space,0,83,83,127,1,NINDY,HB,old,z,./images/NINDYHB.png,16.513,,,,,,,,,,,,,,,,,,,,
,,,,,,,,,,,,,,,,,200623,21,2022-01-28_14h32.42.355,lexical_decision_task_DD_L5,2021.2.3,MacIntel,58.82352941,,,,,,,,,,,,1.912,1,,,,,,,,,,,,,,z,1,1.912,,,,,,,,0.023333333,-0.396666667,0,0,0,,0,84,84,151,1,TINKY,HB,old,z,./images/TINKYHB.png,,,,,,,,,,,,,,,,,,,,,
,,,,,,,,,,,,,,,,,200623,21,2022-01-28_14h32.42.355,lexical_decision_task_DD_L5,2021.2.3,MacIntel,58.82352941,,,,,,,,,,,,1.162,0,,,,,,,,,,,,,,m,0,1.162,,,,,,,,0.023333333,-0.396666667,0,0,0,,0,85,85,166,1,SHORY,HB,old,z,./images/SHORYHB.png,,,,,,,,,,,,,,,,,,,,,
,,,,,,,,,,,,,,,,,200623,21,2022-01-28_14h32.42.355,lexical_decision_task_DD_L5,2021.2.3,MacIntel,58.82352941,,,,,,,,,,,,1.001,0,,,,,,,,,,,,,,m,0,1.001,,,,,,,,0.023333333,-0.396666667,0,0,0,,0,86,86,160,1,VEETS,HB,old,z,./images/VEETSHB.png,,,,,,,,,,,,,,,,,,,,,
,,,,,,,,,,,,,,,,,200623,21,2022-01-28_14h32.42.355,lexical_decision_task_DD_L5,2021.2.3,MacIntel,58.82352941,,,,,,,,,,,,2.62,1,,,,,,,,,,,,,,m,1,2.62,,,,,,,,0.023333333,-0.396666667,0,0,0,,0,87,87,75,1,HAMMER,HB,old,m,./images/HAMMERHB.png,,,,,,,,,,,,,,,,,,,,,
,,,,,,,,,,,,,,,,,200623,21,2022-01-28_14h32.42.355,lexical_decision_task_DD_L5,2021.2.3,MacIntel,58.82352941,,,,,,,,,,,,0.763,1,,,,,,,,,,,,,,z,1,0.763,,,,,,,,0.023333333,-0.396666667,0,0,0,,0,88,88,105,1,MOKER,C,old,z,./images/MOKER.png,,,,,,,,,,,,,,,,,,,,,
,,,,,,,,,,,,,,,,,200623,21,2022-01-28_14h32.42.355,lexical_decision_task_DD_L5,2021.2.3,MacIntel,58.82352941,,,,,,,,,,,,0.579,1,,,,,,,,,,,,,,z,1,0.579,,,,,,,,0.023333333,-0.396666667,0,0,0,,0,89,89,102,1,DULLE,C,old,z,./images/DULLE.png,,,,,,,,,,,,,,,,,,,,,
,,,,,,,,,,,,,,,,,200623,21,2022-01-28_14h32.42.355,lexical_decision_task_DD_L5,2021.2.3,MacIntel,58.82352941,,,,,,,,,,,,0.632,1,,,,,,,,,,,,,,m,1,0.632,,,,,,,,0.023333333,-0.396666667,0,0,0,,0,90,90,50,1,PILOT,C,old,m,./images/PILOT.png,,,,,,,,,,,,,,,,,,,,,
,,,,,,,,,,,,,,,,,200623,21,2022-01-28_14h32.42.355,lexical_decision_task_DD_L5,2021.2.3,MacIntel,58.82352941,,,,,,,,,,,,0.613,1,,,,,,,,,,,,,,z,1,0.613,,,,,,,,0.023333333,-0.396666667,0,0,0,,0,91,91,147,1,ZOLES,C,old,z,./images/ZOLES.png,,,,,,,,,,,,,,,,,,,,,
,,,,,,,,,,,,,,,,,200623,21,2022-01-28_14h32.42.355,lexical_decision_task_DD_L5,2021.2.3,MacIntel,58.82352941,,,,,,,,,,,,0.752,1,,,,,,,,,,,,,,z,1,0.752,,,,,,,,0.023333333,-0.396666667,0,0,0,,0,92,92,113,1,LINEW,LB,old,z,./images/LINEWLB.png,,,,,,,,,,,,,,,,,,,,,
,,,,,,,,,,,,,,,,,200623,21,2022-01-28_14h32.42.355,lexical_decision_task_DD_L5,2021.2.3,MacIntel,58.82352941,,,,,,,,,,,,1.013,1,,,,,,,,,,,,,,z,1,1.013,,,,,,,,0.023333333,-0.396666667,0,0,0,,0,93,93,159,1,CUDDY,C,old,z,./images/CUDDY.png,,,,,,,,,,,,,,,,,,,,,
,,,,,,,,,,,,,,,,,200623,21,2022-01-28_14h32.42.355,lexical_decision_task_DD_L5,2021.2.3,MacIntel,58.82352941,,,,,,,,,,,,0.73,1,,,,,,,,,,,,,,z,1,0.73,,,,,,,,0.023333333,-0.396666667,0,0,0,,0,94,94,152,1,FRAIN,LB,old,z,./images/FRAINLB.png,,,,,,,,,,,,,,,,,,,,,
,,,,,,,,,,,,,,,,,200623,21,2022-01-28_14h32.42.355,lexical_decision_task_DD_L5,2021.2.3,MacIntel,58.82352941,,,,,,,,,,,,0.87,1,,,,,,,,,,,,,,m,1,0.87,,,,,,,,0.023333333,-0.396666667,0,0,0,,0,95,95,8,1,CLIFF,C,old,m,./images/CLIFF.png,,,,,,,,,,,,,,,,,,,,,
,,,,,,,,,,,,,,,,,200623,21,2022-01-28_14h32.42.355,lexical_decision_task_DD_L5,2021.2.3,MacIntel,58.82352941,,,,,,,,,,,,0.58,1,,,,,,,,,,,,,,m,1,0.58,,,,,,,,0.023333333,-0.396666667,0,0,0,,0,96,96,44,1,BASKET,C,old,m,./images/BASKET.png,,,,,,,,,,,,,,,,,,,,,
,,,,,,,,,,,,,,,,,200623,21,2022-01-28_14h32.42.355,lexical_decision_task_DD_L5,2021.2.3,MacIntel,58.82352941,,,,,,,,,,,,0.779,1,,,,,,,,,,,,,,z,1,0.779,,,,,,,,0.023333333,-0.396666667,0,0,0,,0,97,97,125,1,MOOKY,LB,old,z,./images/MOOKYLB.png,,,,,,,,,,,,,,,,,,,,,
,,,,,,,,,,,,,,,,,200623,21,2022-01-28_14h32.42.355,lexical_decision_task_DD_L5,2021.2.3,MacIntel,58.82352941,,,,,,,,,,,,2.163,0,,,,,,,,,,,,,,m,0,2.163,,,,,,,,0.023333333,-0.396666667,0,0,0,,0,98,98,88,1,GLUSH,HB,old,z,./images/GLUSHHB.png,,,,,,,,,,,,,,,,,,,,,
,,,,,,,,,,,,,,,,,200623,21,2022-01-28_14h32.42.355,lexical_decision_task_DD_L5,2021.2.3,MacIntel,58.82352941,,,,,,,,,,,,0.84,0,,,,,,,,,,,,,,m,0,0.84,,,,,,,,0.023333333,-0.396666667,0,0,0,,0,99,99,114,1,RIKES,C,old,z,./images/RIKES.png,,,,,,,,,,,,,,,,,,,,,
,,,,,,,,,,,,,,,,,200623,21,2022-01-28_14h32.42.355,lexical_decision_task_DD_L5,2021.2.3,MacIntel,58.82352941,,,,,,,,,,,,0.579,1,,,,,,,,,,,,,,m,1,0.579,,,,,,,,0.023333333,-0.396666667,0,0,0,,0,100,100,41,1,STREAM,C,old,m,./images/STREAM.png,,,,,,,,,,,,,,,,,,,,,
,,,,,,,,,,,,,,,,,200623,21,2022-01-28_14h32.42.355,lexical_decision_task_DD_L5,2021.2.3,MacIntel,58.82352941,,,,,,,,,,,,0.929,1,,,,,,,,,,,,,,m,1,0.929,,,,,,,,0.023333333,-0.396666667,0,0,0,,0,101,101,7,1,WAGON,LB,old,m,./images/WAGONLB.png,,,,,,,,,,,,,,,,,,,,,
,,,,,,,,,,,,,,,,,200623,21,2022-01-28_14h32.42.355,lexical_decision_task_DD_L5,2021.2.3,MacIntel,58.82352941,,,,,,,,,,,,0.93,1,,,,,,,,,,,,,,z,1,0.93,,,,,,,,0.023333333,-0.396666667,0,0,0,,0,102,102,111,1,HOSSE,C,old,z,./images/HOSSE.png,,,,,,,,,,,,,,,,,,,,,
,,,,,,,,,,,,,,,,,200623,21,2022-01-28_14h32.42.355,lexical_decision_task_DD_L5,2021.2.3,MacIntel,58.82352941,,,,,,,,,,,,0.521,1,,,,,,,,,,,,,,m,1,0.521,,,,,,,,0.023333333,-0.396666667,0,0,0,,0,103,103,47,1,LAGOON,C,old,m,./images/LAGOON.png,,,,,,,,,,,,,,,,,,,,,
,,,,,,,,,,,,,,,,,200623,21,2022-01-28_14h32.42.355,lexical_decision_task_DD_L5,2021.2.3,MacIntel,58.82352941,,,,,,,,,,,,0.897,1,,,,,,,,,,,,,,m,1,0.897,,,,,,,,0.023333333,-0.396666667,0,0,0,,0,104,104,35,1,LLAMA,C,old,m,./images/LLAMA.png,,,,,,,,,,,,,,,,,,,,,
,,,,,,,,,,,,,,,,,200623,21,2022-01-28_14h32.42.355,lexical_decision_task_DD_L5,2021.2.3,MacIntel,58.82352941,,,,,,,,,,,,2.012,1,,,,,,,,,,,,,,z,1,2.012,,,,,,,,0.023333333,-0.396666667,0,0,0,,0,105,105,139,1,BLEAR,HB,old,z,./images/BLEARHB.png,,,,,,,,,,,,,,,,,,,,,
,,,,,,,,,,,,,,,,,200623,21,2022-01-28_14h32.42.355,lexical_decision_task_DD_L5,2021.2.3,MacIntel,58.82352941,,,,,,,,,,,,1.095,1,,,,,,,,,,,,,,m,1,1.095,,,,,,,,0.023333333,-0.396666667,0,0,0,,0,106,106,18,1,PARCEL,HB,old,m,./images/PARCELHB.png,,,,,,,,,,,,,,,,,,,,,
,,,,,,,,,,,,,,,,,200623,21,2022-01-28_14h32.42.355,lexical_decision_task_DD_L5,2021.2.3,MacIntel,58.82352941,,,,,,,,,,,,0.538,1,,,,,,,,,,,,,,m,1,0.538,,,,,,,,0.023333333,-0.396666667,0,0,0,,0,107,107,20,1,GRANNY,C,old,m,./images/GRANNY.png,,,,,,,,,,,,,,,,,,,,,
,,,,,,,,,,,,,,,,,200623,21,2022-01-28_14h32.42.355,lexical_decision_task_DD_L5,2021.2.3,MacIntel,58.82352941,,,,,,,,,,,,1.336,1,,,,,,,,,,,,,,z,1,1.336,,,,,,,,0.023333333,-0.396666667,0,0,0,,0,108,108,148,1,JOMS,HB,old,z,./images/JOMSHB.png,,,,,,,,,,,,,,,,,,,,,
,,,,,,,,,,,,,,,,,200623,21,2022-01-28_14h32.42.355,lexical_decision_task_DD_L5,2021.2.3,MacIntel,58.82352941,,,,,,,,,,,,0.797,1,,,,,,,,,,,,,,m,1,0.797,,,,,,,,0.023333333,-0.396666667,0,0,0,,0,109,109,48,1,SHIELD,HB,old,m,./images/SHIELDHB.png,,,,,,,,,,,,,,,,,,,,,
,,,,,,,,,,,,,,,,,200623,21,2022-01-28_14h32.42.355,lexical_decision_task_DD_L5,2021.2.3,MacIntel,58.82352941,,,,,,,,,,,,1.264,1,,,,,,,,,,,,,,z,1,1.264,,,,,,,,0.023333333,-0.396666667,0,0,0,,0,110,110,123,1,SEDGE,C,old,z,./images/SEDGE.png,,,,,,,,,,,,,,,,,,,,,
,,,,,,,,,,,,,,,,,200623,21,2022-01-28_14h32.42.355,lexical_decision_task_DD_L5,2021.2.3,MacIntel,58.82352941,,,,,,,,,,,,0.563,1,,,,,,,,,,,,,,m,1,0.563,,,,,,,,0.023333333,-0.396666667,0,0,0,,0,111,111,29,1,PISTOL,C,old,m,./images/PISTOL.png,,,,,,,,,,,,,,,,,,,,,
,,,,,,,,,,,,,,,,,200623,21,2022-01-28_14h32.42.355,lexical_decision_task_DD_L5,2021.2.3,MacIntel,58.82352941,,,,,,,,,,,,0.446,1,,,,,,,,,,,,,,m,1,0.446,,,,,,,,0.023333333,-0.396666667,0,0,0,,0,112,112,70,1,BANANA,LB,old,m,./images/BANANALB.png,,,,,,,,,,,,,,,,,,,,,
,,,,,,,,,,,,,,,,,200623,21,2022-01-28_14h32.42.355,lexical_decision_task_DD_L5,2021.2.3,MacIntel,58.82352941,,,,,,,,,,,,0.561,1,,,,,,,,,,,,,,m,1,0.561,,,,,,,,0.023333333,-0.396666667,0,0,0,,0,113,113,52,1,DESERT,LB,old,m,./images/DESERTLB.png,,,,,,,,,,,,,,,,,,,,,
,,,,,,,,,,,,,,,,,200623,21,2022-01-28_14h32.42.355,lexical_decision_task_DD_L5,2021.2.3,MacIntel,58.82352941,,,,,,,,,,,,0.649,1,,,,,,,,,,,,,,z,1,0.649,,,,,,,,0.023333333,-0.396666667,0,0,0,,0,114,114,116,1,BALGY,LB,old,z,./images/BALGYLB.png,,,,,,,,,,,,,,,,,,,,,
,,,,,,,,,,,,,,,,,200623,21,2022-01-28_14h32.42.355,lexical_decision_task_DD_L5,2021.2.3,MacIntel,58.82352941,,,,,,,,,,,,0.614,1,,,,,,,,,,,,,,m,1,0.614,,,,,,,,0.023333333,-0.396666667,0,0,0,,0,115,115,27,1,BUTTER,HB,old,m,./images/BUTTERHB.png,,,,,,,,,,,,,,,,,,,,,
,,,,,,,,,,,,,,,,,200623,21,2022-01-28_14h32.42.355,lexical_decision_task_DD_L5,2021.2.3,MacIntel,58.82352941,,,,,,,,,,,,0.562,0,,,,,,,,,,,,,,m,0,0.562,,,,,,,,0.023333333,-0.396666667,0,0,0,,0,116,116,99,1,BACKY,C,old,z,./images/BACKY.png,,,,,,,,,,,,,,,,,,,,,
,,,,,,,,,,,,,,,,,200623,21,2022-01-28_14h32.42.355,lexical_decision_task_DD_L5,2021.2.3,MacIntel,58.82352941,,,,,,,,,,,,0.813,1,,,,,,,,,,,,,,z,1,0.813,,,,,,,,0.023333333,-0.396666667,0,0,0,,0,117,117,164,1,SGREW,LB,old,z,./images/SGREWLB.png,,,,,,,,,,,,,,,,,,,,,
,,,,,,,,,,,,,,,,,200623,21,2022-01-28_14h32.42.355,lexical_decision_task_DD_L5,2021.2.3,MacIntel,58.82352941,,,,,,,,,,,,1.498,0,,,,,,,,,,,,,,m,0,1.498,,,,,,,,0.023333333,-0.396666667,0,0,0,,0,118,118,85,1,CHULK,HB,old,z,./images/CHULKHB.png,,,,,,,,,,,,,,,,,,,,,
,,,,,,,,,,,,,,,,,200623,21,2022-01-28_14h32.42.355,lexical_decision_task_DD_L5,2021.2.3,MacIntel,58.82352941,,,,,,,,,,,,1.129,1,,,,,,,,,,,,,,z,1,1.129,,,,,,,,0.023333333,-0.396666667,0,0,0,,0,119,119,93,1,SMONE,C,old,z,./images/SMONE.png,,,,,,,,,,,,,,,,,,,,,
,,,,,,,,,,,,,,,,,200623,21,2022-01-28_14h32.42.355,lexical_decision_task_DD_L5,2021.2.3,MacIntel,58.82352941,,,,,,,,,,,,0.663,1,,,,,,,,,,,,,,z,1,0.663,,,,,,,,0.023333333,-0.396666667,0,0,0,,0,120,120,122,1,BLOOT,LB,old,z,./images/BLOOTLB.png,,,,,,,,,,,,,,,,,,,,,
,,,,,,,,,,,,,,,,,200623,21,2022-01-28_14h32.42.355,lexical_decision_task_DD_L5,2021.2.3,MacIntel,58.82352941,,,,,,,,,,,,1.284,1,,,,,,,,,,,,,,z,1,1.284,,,,,,,,0.023333333,-0.396666667,0,0,0,,0,121,121,91,1,SHENS,HB,old,z,./images/SHENSHB.png,,,,,,,,,,,,,,,,,,,,,
,,,,,,,,,,,,,,,,,200623,21,2022-01-28_14h32.42.355,lexical_decision_task_DD_L5,2021.2.3,MacIntel,58.82352941,,,,,,,,,,,,0.596,0,,,,,,,,,,,,,,m,0,0.596,,,,,,,,0.023333333,-0.396666667,0,0,0,,0,122,122,128,1,GRIFT,LB,old,z,./images/GRIFTLB.png,,,,,,,,,,,,,,,,,,,,,
,,,,,,,,,,,,,,,,,200623,21,2022-01-28_14h32.42.355,lexical_decision_task_DD_L5,2021.2.3,MacIntel,58.82352941,,,,,,,,,,,,1.839,1,,,,,,,,,,,,,,m,1,1.839,,,,,,,,0.023333333,-0.396666667,0,0,0,,0,123,123,72,1,FLASK,HB,old,m,./images/FLASKHB.png,,,,,,,,,,,,,,,,,,,,,
,,,,,,,,,,,,,,,,,200623,21,2022-01-28_14h32.42.355,lexical_decision_task_DD_L5,2021.2.3,MacIntel,58.82352941,,,,,,,,,,,,1.145,1,,,,,,,,,,,,,,m,1,1.145,,,,,,,,0.023333333,-0.396666667,0,0,0,,0,124,124,78,1,BROOM,HB,old,m,./images/BROOMHB.png,,,,,,,,,,,,,,,,,,,,,
,,,,,,,,,,,,,,,,,200623,21,2022-01-28_14h32.42.355,lexical_decision_task_DD_L5,2021.2.3,MacIntel,58.82352941,,,,,,,,,,,,0.53,1,,,,,,,,,,,,,,m,1,0.53,,,,,,,,0.023333333,-0.396666667,0,0,0,space,0,125,125,1,1,TOWEL,LB,old,m,./images/TOWELLB.png,74.949,,,,,,,,,,,,,,,,,,,,
,,,,,,,,,,,,,,,,,200623,21,2022-01-28_14h32.42.355,lexical_decision_task_DD_L5,2021.2.3,MacIntel,58.82352941,,,,,,,,,,,,1.121,1,,,,,,,,,,,,,,z,1,1.121,,,,,,,,0.023333333,-0.396666667,0,0,0,,0,126,126,92,1,PAIMS,LB,old,z,./images/PAIMSLB.png,,,,,,,,,,,,,,,,,,,,,
,,,,,,,,,,,,,,,,,200623,21,2022-01-28_14h32.42.355,lexical_decision_task_DD_L5,2021.2.3,MacIntel,58.82352941,,,,,,,,,,,,0.627,1,,,,,,,,,,,,,,m,1,0.627,,,,,,,,0.023333333,-0.396666667,0,0,0,,0,127,127,66,1,STATUE,HB,old,m,./images/STATUEHB.png,,,,,,,,,,,,,,,,,,,,,
,,,,,,,,,,,,,,,,,200623,21,2022-01-28_14h32.42.355,lexical_decision_task_DD_L5,2021.2.3,MacIntel,58.82352941,,,,,,,,,,,,1.588,0,,,,,,,,,,,,,,z,0,1.588,,,,,,,,0.023333333,-0.396666667,0,0,0,,0,128,128,63,1,BAKER,HB,old,m,./images/BAKERHB.png,,,,,,,,,,,,,,,,,,,,,
,,,,,,,,,,,,,,,,,200623,21,2022-01-28_14h32.42.355,lexical_decision_task_DD_L5,2021.2.3,MacIntel,58.82352941,,,,,,,,,,,,0.497,1,,,,,,,,,,,,,,m,1,0.497,,,,,,,,0.023333333,-0.396666667,0,0,0,,0,129,129,80,1,PLANET,C,old,m,./images/PLANET.png,,,,,,,,,,,,,,,,,,,,,
,,,,,,,,,,,,,,,,,200623,21,2022-01-28_14h32.42.355,lexical_decision_task_DD_L5,2021.2.3,MacIntel,58.82352941,,,,,,,,,,,,1.47,1,,,,,,,,,,,,,,z,1,1.47,,,,,,,,0.023333333,-0.396666667,0,0,0,,0,130,130,94,1,BLANS,HB,old,z,./images/BLANSHB.png,,,,,,,,,,,,,,,,,,,,,
,,,,,,,,,,,,,,,,,200623,21,2022-01-28_14h32.42.355,lexical_decision_task_DD_L5,2021.2.3,MacIntel,58.82352941,,,,,,,,,,,,0.845,1,,,,,,,,,,,,,,m,1,0.845,,,,,,,,0.023333333,-0.396666667,0,0,0,,0,131,131,49,1,BISHOP,LB,old,m,./images/BISHOPLB.png,,,,,,,,,,,,,,,,,,,,,
,,,,,,,,,,,,,,,,,200623,21,2022-01-28_14h32.42.355,lexical_decision_task_DD_L5,2021.2.3,MacIntel,58.82352941,,,,,,,,,,,,0.814,1,,,,,,,,,,,,,,z,1,0.814,,,,,,,,0.023333333,-0.396666667,0,0,0,,0,132,132,90,1,NEAST,C,old,z,./images/NEAST.png,,,,,,,,,,,,,,,,,,,,,
,,,,,,,,,,,,,,,,,200623,21,2022-01-28_14h32.42.355,lexical_decision_task_DD_L5,2021.2.3,MacIntel,58.82352941,,,,,,,,,,,,0.516,1,,,,,,,,,,,,,,m,1,0.516,,,,,,,,0.023333333,-0.396666667,0,0,0,,0,133,133,83,1,WHISKY,C,old,m,./images/WHISKY.png,,,,,,,,,,,,,,,,,,,,,
,,,,,,,,,,,,,,,,,200623,21,2022-01-28_14h32.42.355,lexical_decision_task_DD_L5,2021.2.3,MacIntel,58.82352941,,,,,,,,,,,,1.096,1,,,,,,,,,,,,,,z,1,1.096,,,,,,,,0.023333333,-0.396666667,0,0,0,,0,134,134,163,1,GAMBA,HB,old,z,./images/GAMBAHB.png,,,,,,,,,,,,,,,,,,,,,
,,,,,,,,,,,,,,,,,200623,21,2022-01-28_14h32.42.355,lexical_decision_task_DD_L5,2021.2.3,MacIntel,58.82352941,,,,,,,,,,,,0.595,1,,,,,,,,,,,,,,z,1,0.595,,,,,,,,0.023333333,-0.396666667,0,0,0,,0,135,135,150,1,NOOLS,C,old,z,./images/NOOLS.png,,,,,,,,,,,,,,,,,,,,,
,,,,,,,,,,,,,,,,,200623,21,2022-01-28_14h32.42.355,lexical_decision_task_DD_L5,2021.2.3,MacIntel,58.82352941,,,,,,,,,,,,0.93,1,,,,,,,,,,,,,,m,1,0.93,,,,,,,,0.023333333,-0.396666667,0,0,0,,0,136,136,64,1,BRIDE,LB,old,m,./images/BRIDELB.png,,,,,,,,,,,,,,,,,,,,,
,,,,,,,,,,,,,,,,,200623,21,2022-01-28_14h32.42.355,lexical_decision_task_DD_L5,2021.2.3,MacIntel,58.82352941,,,,,,,,,,,,0.603,1,,,,,,,,,,,,,,z,1,0.603,,,,,,,,0.023333333,-0.396666667,0,0,0,,0,137,137,167,1,ZONET,LB,old,z,./images/ZONETLB.png,,,,,,,,,,,,,,,,,,,,,
,,,,,,,,,,,,,,,,,200623,21,2022-01-28_14h32.42.355,lexical_decision_task_DD_L5,2021.2.3,MacIntel,58.82352941,,,,,,,,,,,,1.245,1,,,,,,,,,,,,,,z,1,1.245,,,,,,,,0.023333333,-0.396666667,0,0,0,,0,138,138,112,1,MYING,HB,old,z,./images/MYINGHB.png,,,,,,,,,,,,,,,,,,,,,
,,,,,,,,,,,,,,,,,200623,21,2022-01-28_14h32.42.355,lexical_decision_task_DD_L5,2021.2.3,MacIntel,58.82352941,,,,,,,,,,,,0.545,1,,,,,,,,,,,,,,m,1,0.545,,,,,,,,0.023333333,-0.396666667,0,0,0,,0,139,139,65,1,SPINE,C,old,m,./images/SPINE.png,,,,,,,,,,,,,,,,,,,,,
,,,,,,,,,,,,,,,,,200623,21,2022-01-28_14h32.42.355,lexical_decision_task_DD_L5,2021.2.3,MacIntel,58.82352941,,,,,,,,,,,,1.039,1,,,,,,,,,,,,,,z,1,1.039,,,,,,,,0.023333333,-0.396666667,0,0,0,,0,140,140,118,1,BAVEL,HB,old,z,./images/BAVELHB.png,,,,,,,,,,,,,,,,,,,,,
,,,,,,,,,,,,,,,,,200623,21,2022-01-28_14h32.42.355,lexical_decision_task_DD_L5,2021.2.3,MacIntel,58.82352941,,,,,,,,,,,,1.447,1,,,,,,,,,,,,,,z,1,1.447,,,,,,,,0.023333333,-0.396666667,0,0,0,,0,141,141,97,1,CHIDS,HB,old,z,./images/CHIDSHB.png,,,,,,,,,,,,,,,,,,,,,
,,,,,,,,,,,,,,,,,200623,21,2022-01-28_14h32.42.355,lexical_decision_task_DD_L5,2021.2.3,MacIntel,58.82352941,,,,,,,,,,,,0.78,1,,,,,,,,,,,,,,z,1,0.78,,,,,,,,0.023333333,-0.396666667,0,0,0,,0,142,142,144,1,NAIRY,C,old,z,./images/NAIRY.png,,,,,,,,,,,,,,,,,,,,,
,,,,,,,,,,,,,,,,,200623,21,2022-01-28_14h32.42.355,lexical_decision_task_DD_L5,2021.2.3,MacIntel,58.82352941,,,,,,,,,,,,0.716,1,,,,,,,,,,,,,,z,1,0.716,,,,,,,,0.023333333,-0.396666667,0,0,0,,0,143,143,95,1,HANTY,LB,old,z,./images/HANTYLB.png,,,,,,,,,,,,,,,,,,,,,
,,,,,,,,,,,,,,,,,200623,21,2022-01-28_14h32.42.355,lexical_decision_task_DD_L5,2021.2.3,MacIntel,58.82352941,,,,,,,,,,,,0.763,1,,,,,,,,,,,,,,m,1,0.763,,,,,,,,0.023333333,-0.396666667,0,0,0,,0,144,144,39,1,CANDY,HB,old,m,./images/CANDYHB.png,,,,,,,,,,,,,,,,,,,,,
,,,,,,,,,,,,,,,,,200623,21,2022-01-28_14h32.42.355,lexical_decision_task_DD_L5,2021.2.3,MacIntel,58.82352941,,,,,,,,,,,,0.588,0,,,,,,,,,,,,,,m,0,0.588,,,,,,,,0.023333333,-0.396666667,0,0,0,,0,145,145,108,1,GRUET,C,old,z,./images/GRUET.png,,,,,,,,,,,,,,,,,,,,,
,,,,,,,,,,,,,,,,,200623,21,2022-01-28_14h32.42.355,lexical_decision_task_DD_L5,2021.2.3,MacIntel,58.82352941,,,,,,,,,,,,1.036,1,,,,,,,,,,,,,,m,1,1.036,,,,,,,,0.023333333,-0.396666667,0,0,0,,0,146,146,81,1,DRILL,HB,old,m,./images/DRILLHB.png,,,,,,,,,,,,,,,,,,,,,
,,,,,,,,,,,,,,,,,200623,21,2022-01-28_14h32.42.355,lexical_decision_task_DD_L5,2021.2.3,MacIntel,58.82352941,,,,,,,,,,,,1.054,1,,,,,,,,,,,,,,m,1,1.054,,,,,,,,0.023333333,-0.396666667,0,0,0,,0,147,147,33,1,SAUNA,HB,old,m,./images/SAUNAHB.png,,,,,,,,,,,,,,,,,,,,,
,,,,,,,,,,,,,,,,,200623,21,2022-01-28_14h32.42.355,lexical_decision_task_DD_L5,2021.2.3,MacIntel,58.82352941,,,,,,,,,,,,0.737,1,,,,,,,,,,,,,,z,1,0.737,,,,,,,,0.023333333,-0.396666667,0,0,0,,0,148,148,141,1,PLEET,C,old,z,./images/PLEET.png,,,,,,,,,,,,,,,,,,,,,
,,,,,,,,,,,,,,,,,200623,21,2022-01-28_14h32.42.355,lexical_decision_task_DD_L5,2021.2.3,MacIntel,58.82352941,,,,,,,,,,,,1.712,1,,,,,,,,,,,,,,z,1,1.712,,,,,,,,0.023333333,-0.396666667,0,0,0,,0,149,149,133,1,POWDY,HB,old,z,./images/POWDYHB.png,,,,,,,,,,,,,,,,,,,,,
,,,,,,,,,,,,,,,,,200623,21,2022-01-28_14h32.42.355,lexical_decision_task_DD_L5,2021.2.3,MacIntel,58.82352941,,,,,,,,,,,,0.612,1,,,,,,,,,,,,,,m,1,0.612,,,,,,,,0.023333333,-0.396666667,0,0,0,,0,150,150,25,1,CHALK,LB,old,m,./images/CHALKLB.png,,,,,,,,,,,,,,,,,,,,,
,,,,,,,,,,,,,,,,,200623,21,2022-01-28_14h32.42.355,lexical_decision_task_DD_L5,2021.2.3,MacIntel,58.82352941,,,,,,,,,,,,0.637,1,,,,,,,,,,,,,,m,1,0.637,,,,,,,,0.023333333,-0.396666667,0,0,0,,0,151,151,43,1,STOOL,LB,old,m,./images/STOOLLB.png,,,,,,,,,,,,,,,,,,,,,
,,,,,,,,,,,,,,,,,200623,21,2022-01-28_14h32.42.355,lexical_decision_task_DD_L5,2021.2.3,MacIntel,58.82352941,,,,,,,,,,,,0.763,1,,,,,,,,,,,,,,m,1,0.763,,,,,,,,0.023333333,-0.396666667,0,0,0,,0,152,152,3,1,CRATER,HB,old,m,./images/CRATERHB.png,,,,,,,,,,,,,,,,,,,,,
,,,,,,,,,,,,,,,,,200623,21,2022-01-28_14h32.42.355,lexical_decision_task_DD_L5,2021.2.3,MacIntel,58.82352941,,,,,,,,,,,,0.447,1,,,,,,,,,,,,,,m,1,0.447,,,,,,,,0.023333333,-0.396666667,0,0,0,,0,153,153,31,1,STEAK,LB,old,m,./images/STEAKLB.png,,,,,,,,,,,,,,,,,,,,,
,,,,,,,,,,,,,,,,,200623,21,2022-01-28_14h32.42.355,lexical_decision_task_DD_L5,2021.2.3,MacIntel,58.82352941,,,,,,,,,,,,0.614,1,,,,,,,,,,,,,,m,1,0.614,,,,,,,,0.023333333,-0.396666667,0,0,0,,0,154,154,2,1,STOVE,C,old,m,./images/STOVE.png,,,,,,,,,,,,,,,,,,,,,
,,,,,,,,,,,,,,,,,200623,21,2022-01-28_14h32.42.355,lexical_decision_task_DD_L5,2021.2.3,MacIntel,58.82352941,,,,,,,,,,,,0.628,1,,,,,,,,,,,,,,m,1,0.628,,,,,,,,0.023333333,-0.396666667,0,0,0,,0,155,155,28,1,CASINO,LB,old,m,./images/CASINOLB.png,,,,,,,,,,,,,,,,,,,,,
,,,,,,,,,,,,,,,,,200623,21,2022-01-28_14h32.42.355,lexical_decision_task_DD_L5,2021.2.3,MacIntel,58.82352941,,,,,,,,,,,,0.663,1,,,,,,,,,,,,,,z,1,0.663,,,,,,,,0.023333333,-0.396666667,0,0,0,,0,156,156,129,1,PRANS,C,old,z,./images/PRANS.png,,,,,,,,,,,,,,,,,,,,,
,,,,,,,,,,,,,,,,,200623,21,2022-01-28_14h32.42.355,lexical_decision_task_DD_L5,2021.2.3,MacIntel,58.82352941,,,,,,,,,,,,0.822,1,,,,,,,,,,,,,,z,1,0.822,,,,,,,,0.023333333,-0.396666667,0,0,0,,0,157,157,156,1,HIXES,C,old,z,./images/HIXES.png,,,,,,,,,,,,,,,,,,,,,
,,,,,,,,,,,,,,,,,200623,21,2022-01-28_14h32.42.355,lexical_decision_task_DD_L5,2021.2.3,MacIntel,58.82352941,,,,,,,,,,,,1.003,1,,,,,,,,,,,,,,z,1,1.003,,,,,,,,0.023333333,-0.396666667,0,0,0,,0,158,158,158,1,EGECT,LB,old,z,./images/EGECTLB.png,,,,,,,,,,,,,,,,,,,,,
,,,,,,,,,,,,,,,,,200623,21,2022-01-28_14h32.42.355,lexical_decision_task_DD_L5,2021.2.3,MacIntel,58.82352941,,,,,,,,,,,,2.229,0,,,,,,,,,,,,,,z,0,2.229,,,,,,,,0.023333333,-0.396666667,0,0,0,,0,159,159,36,1,BOILER,HB,old,m,./images/BOILERHB.png,,,,,,,,,,,,,,,,,,,,,
,,,,,,,,,,,,,,,,,200623,21,2022-01-28_14h32.42.355,lexical_decision_task_DD_L5,2021.2.3,MacIntel,58.82352941,,,,,,,,,,,,0.513,1,,,,,,,,,,,,,,m,1,0.513,,,,,,,,0.023333333,-0.396666667,0,0,0,,0,160,160,37,1,TIGER,LB,old,m,./images/TIGERLB.png,,,,,,,,,,,,,,,,,,,,,
,,,,,,,,,,,,,,,,,200623,21,2022-01-28_14h32.42.355,lexical_decision_task_DD_L5,2021.2.3,MacIntel,58.82352941,,,,,,,,,,,,2.212,1,,,,,,,,,,,,,,m,1,2.212,,,,,,,,0.023333333,-0.396666667,0,0,0,,0,161,161,24,1,FLESH,HB,old,m,./images/FLESHHB.png,,,,,,,,,,,,,,,,,,,,,
,,,,,,,,,,,,,,,,,200623,21,2022-01-28_14h32.42.355,lexical_decision_task_DD_L5,2021.2.3,MacIntel,58.82352941,,,,,,,,,,,,0.822,1,,,,,,,,,,,,,,m,1,0.822,,,,,,,,0.023333333,-0.396666667,0,0,0,,0,162,162,58,1,CANOE,LB,old,m,./images/CANOELB.png,,,,,,,,,,,,,,,,,,,,,
,,,,,,,,,,,,,,,,,200623,21,2022-01-28_14h32.42.355,lexical_decision_task_DD_L5,2021.2.3,MacIntel,58.82352941,,,,,,,,,,,,0.853,1,,,,,,,,,,,,,,z,1,0.853,,,,,,,,0.023333333,-0.396666667,0,0,0,,0,163,163,138,1,PLICE,C,old,z,./images/PLICE.png,,,,,,,,,,,,,,,,,,,,,
,,,,,,,,,,,,,,,,,200623,21,2022-01-28_14h32.42.355,lexical_decision_task_DD_L5,2021.2.3,MacIntel,58.82352941,,,,,,,,,,,,2.48,1,,,,,,,,,,,,,,z,1,2.48,,,,,,,,0.023333333,-0.396666667,0,0,0,,0,164,164,103,1,FLORT,HB,old,z,./images/FLORTHB.png,,,,,,,,,,,,,,,,,,,,,
,,,,,,,,,,,,,,,,,200623,21,2022-01-28_14h32.42.355,lexical_decision_task_DD_L5,2021.2.3,MacIntel,58.82352941,,,,,,,,,,,,0.633,1,,,,,,,,,,,,,,m,1,0.633,,,,,,,,0.023333333,-0.396666667,0,0,0,,0,165,165,34,1,RAZOR,LB,old,m,./images/RAZORLB.png,,,,,,,,,,,,,,,,,,,,,
,,,,,,,,,,,,,,,,,200623,21,2022-01-28_14h32.42.355,lexical_decision_task_DD_L5,2021.2.3,MacIntel,58.82352941,,,,,,,,,,,,0.466,1,,,,,,,,,,,,,,m,1,0.466,,,,,,,,0.023333333,-0.396666667,0,0,0,,0,166,166,77,1,WHEEL,C,old,m,./images/WHEEL.png,,,,,,,,,,,,,,,,,,,,,
,,,,,,,,,,,,,,,,,200623,21,2022-01-28_14h32.42.355,lexical_decision_task_DD_L5,2021.2.3,MacIntel,58.82352941,,,,,,,,,,,,1.928,1,,,,,,,,,,,,,,m,1,1.928,,,,,,,,0.023333333,-0.396666667,0,0,0,,0,167,167,57,1,FERRY,HB,old,m,./images/FERRYHB.png,,,,,,,,,,,,,,,,,,,,,
space,0.023333333,-0.396666667,0,0,0,,,,,,,1,test,"In the next phase you will be presented with the words from the the first phase. Your job is to decide whether you remember seeing the word or not. If you remember seeing the word press ""old"" or type ""m"". If you do not remember seeing the word press ""new"" or type ""z"". Please press the space bar or click on continue to begin. ",,,200623,21,2022-01-28_14h32.42.355,lexical_decision_task_DD_L5,2021.2.3,MacIntel,58.82352941,7.647,,,,,,,,,,,,,,,,,,,,,,,,,,,,,,,,,,,,,,,,,,,,,,,,,,,,,0,0,0,0,1,,,,,,,,,,,,,,,
,-0.005555556,-0.408888889,1,0,0,instr_done_button,,,,,,1,test,"In the next phase you will be presented with the words from the the first phase. Your job is to decide whether you remember seeing the word or not. If you remember seeing the word press ""old"" or type ""m"". If you do not remember seeing the word press ""new"" or type ""z"". Please press the space bar or click on continue to begin. ",,,200623,21,2022-01-28_14h32.42.355,lexical_decision_task_DD_L5,2021.2.3,MacIntel,58.82352941,,,,,,,,,,,,,,,,,,,,,,,,,,,,,,,,,,,,,,,,,,,,,,,,,,,,,,1,0,1,0,1,,,,,,,,,,,,,,,
space,-0.004444444,-0.408888889,0,0,0,,,,,,,1,test,"In the next phase you will be presented with the words from the the first phase. Your job is to decide whether you remember seeing the word or not. If you remember seeing the word press ""old"" or type ""m"". If you do not remember seeing the word press ""new"" or type ""z"". Please press the space bar or click on continue to begin. ",,,200623,21,2022-01-28_14h32.42.355,lexical_decision_task_DD_L5,2021.2.3,MacIntel,58.82352941,1.152,,,,,,,,,,,,,,,,,,,,,,,,,,,,,,,,,,,,,,,,,,,,,,,,,,,,,2,0,2,0,1,,,,,,,,,,,,,,,
space,-0.004444444,-0.408888889,0,0,0,,,,,,,1,test,"In the next phase you will be presented with the words from the the first phase. Your job is to decide whether you remember seeing the word or not. If you remember seeing the word press ""old"" or type ""m"". If you do not remember seeing the word press ""new"" or type ""z"". Please press the space bar or click on continue to begin. ",,,200623,21,2022-01-28_14h32.42.355,lexical_decision_task_DD_L5,2021.2.3,MacIntel,58.82352941,0.322,,,,,,,,,,,,,,,,,,,,,,,,,,,,,,,,,,,,,,,,,,,,,,,,,,,,,3,0,3,0,1,,,,,,,,,,,,,,,
space,-0.004444444,-0.408888889,0,0,0,,,,,,,1,test,"In the next phase you will be presented with the words from the the first phase. Your job is to decide whether you remember seeing the word or not. If you remember seeing the word press ""old"" or type ""m"". If you do not remember seeing the word press ""new"" or type ""z"". Please press the space bar or click on continue to begin. ",,,200623,21,2022-01-28_14h32.42.355,lexical_decision_task_DD_L5,2021.2.3,MacIntel,58.82352941,0.201,,,,,,,,,,,,,,,,,,,,,,,,,,,,,,,,,,,,,,,,,,,,,,,,,,,,,4,0,4,0,1,,,,,,,,,,,,,,,
,,,,,,,,,,,,,,,,,200623,21,2022-01-28_14h32.42.355,lexical_decision_task_DD_L5,2021.2.3,MacIntel,58.82352941,,,,,,,,,,,,1.108,1,,,,,,,,,,,,,,,,,,,,,,,,-0.004444444,-0.408888889,0,0,0,,,,,,,PISTOL,C,m,y,./images/PISTOL.png,,,,,,,m,1,1.108,,,,,,,,0,0,0,29,1
,,,,,,,,,,,,,,,,,200623,21,2022-01-28_14h32.42.355,lexical_decision_task_DD_L5,2021.2.3,MacIntel,58.82352941,,,,,,,,,,,,0.938,0,,,,,,,,,,,,,,,,,,,,,,,,-0.004444444,-0.408888889,0,0,0,,,,,,,SKIING,C,z,y,./images/SKIING.png,,,,,,,m,0,0.938,,,,,,,,0,1,1,101,1
,,,,,,,,,,,,,,,,,200623,21,2022-01-28_14h32.42.355,lexical_decision_task_DD_L5,2021.2.3,MacIntel,58.82352941,,,,,,,,,,,,1.286,1,,,,,,,,,,,,,,,,,,,,,,,,-0.004444444,-0.408888889,0,0,0,,,,,,,QUILL,LB,z,y,./images/QUILLLB.png,,,,,,,z,1,1.286,,,,,,,,0,2,2,115,1
,,,,,,,,,,,,,,,,,200623,21,2022-01-28_14h32.42.355,lexical_decision_task_DD_L5,2021.2.3,MacIntel,58.82352941,,,,,,,,,,,,0.75,1,,,,,,,,,,,,,,,,,,,,,,,,-0.004444444,-0.408888889,0,0,0,,,,,,,GRAPE,LB,m,y,./images/GRAPELB.png,,,,,,,m,1,0.75,,,,,,,,0,3,3,16,1
,,,,,,,,,,,,,,,,,200623,21,2022-01-28_14h32.42.355,lexical_decision_task_DD_L5,2021.2.3,MacIntel,58.82352941,,,,,,,,,,,,1.312,1,,,,,,,,,,,,,,,,,,,,,,,,-0.004444444,-0.408888889,0,0,0,,,,,,,BUBBLE,C,m,y,./images/BUBBLE.png,,,,,,,m,1,1.312,,,,,,,,0,4,4,71,1
,,,,,,,,,,,,,,,,,200623,21,2022-01-28_14h32.42.355,lexical_decision_task_DD_L5,2021.2.3,MacIntel,58.82352941,,,,,,,,,,,,1.035,1,,,,,,,,,,,,,,,,,,,,,,,,-0.004444444,-0.408888889,0,0,0,,,,,,,CANDY,HB,m,y,./images/CANDYHB.png,,,,,,,m,1,1.035,,,,,,,,0,5,5,39,1
,,,,,,,,,,,,,,,,,200623,21,2022-01-28_14h32.42.355,lexical_decision_task_DD_L5,2021.2.3,MacIntel,58.82352941,,,,,,,,,,,,2.662,0,,,,,,,,,,,,,,,,,,,,,,,,-0.004444444,-0.408888889,0,0,0,,,,,,,MELON,LB,z,y,./images/MELONLB.png,,,,,,,m,0,2.662,,,,,,,,0,6,6,106,1
,,,,,,,,,,,,,,,,,200623,21,2022-01-28_14h32.42.355,lexical_decision_task_DD_L5,2021.2.3,MacIntel,58.82352941,,,,,,,,,,,,1.432,1,,,,,,,,,,,,,,,,,,,,,,,,-0.004444444,-0.408888889,0,0,0,,,,,,,SHORE,HB,z,y,./images/SHOREHB.png,,,,,,,z,1,1.432,,,,,,,,0,7,7,96,1
,,,,,,,,,,,,,,,,,200623,21,2022-01-28_14h32.42.355,lexical_decision_task_DD_L5,2021.2.3,MacIntel,58.82352941,,,,,,,,,,,,1.303,1,,,,,,,,,,,,,,,,,,,,,,,,-0.004444444,-0.408888889,0,0,0,,,,,,,CANDLE,LB,z,y,./images/CANDLELB.png,,,,,,,z,1,1.303,,,,,,,,0,8,8,145,1
,,,,,,,,,,,,,,,,,200623,21,2022-01-28_14h32.42.355,lexical_decision_task_DD_L5,2021.2.3,MacIntel,58.82352941,,,,,,,,,,,,1.062,0,,,,,,,,,,,,,,,,,,,,,,,,-0.004444444,-0.408888889,0,0,0,,,,,,,ENGINE,C,m,y,./images/ENGINE.png,,,,,,,z,0,1.062,,,,,,,,0,9,9,38,1
,,,,,,,,,,,,,,,,,200623,21,2022-01-28_14h32.42.355,lexical_decision_task_DD_L5,2021.2.3,MacIntel,58.82352941,,,,,,,,,,,,0.778,1,,,,,,,,,,,,,,,,,,,,,,,,-0.004444444,-0.408888889,0,0,0,,,,,,,POODLE,HB,z,y,./images/POODLEHB.png,,,,,,,z,1,0.778,,,,,,,,0,10,10,165,1
,,,,,,,,,,,,,,,,,200623,21,2022-01-28_14h32.42.355,lexical_decision_task_DD_L5,2021.2.3,MacIntel,58.82352941,,,,,,,,,,,,0.912,1,,,,,,,,,,,,,,,,,,,,,,,,-0.004444444,-0.408888889,0,0,0,,,,,,,ATTIC,HB,z,y,./images/ATTICHB.png,,,,,,,z,1,0.912,,,,,,,,0,11,11,111,1
,,,,,,,,,,,,,,,,,200623,21,2022-01-28_14h32.42.355,lexical_decision_task_DD_L5,2021.2.3,MacIntel,58.82352941,,,,,,,,,,,,1.114,1,,,,,,,,,,,,,,,,,,,,,,,,-0.004444444,-0.408888889,0,0,0,,,,,,,STAIN,HB,m,y,./images/STAINHB.png,,,,,,,m,1,1.114,,,,,,,,0,12,12,6,1
,,,,,,,,,,,,,,,,,200623,21,2022-01-28_14h32.42.355,lexical_decision_task_DD_L5,2021.2.3,MacIntel,58.82352941,,,,,,,,,,,,0.77,1,,,,,,,,,,,,,,,,,,,,,,,,-0.004444444,-0.408888889,0,0,0,,,,,,,TRIPOD,HB,z,y,./images/TRIPODHB.png,,,,,,,z,1,0.77,,,,,,,,0,13,13,138,1
,,,,,,,,,,,,,,,,,200623,21,2022-01-28_14h32.42.355,lexical_decision_task_DD_L5,2021.2.3,MacIntel,58.82352941,,,,,,,,,,,,0.646,1,,,,,,,,,,,,,,,,,,,,,,,,-0.004444444,-0.408888889,0,0,0,,,,,,,CASINO,LB,m,y,./images/CASINOLB.png,,,,,,,m,1,0.646,,,,,,,,0,14,14,28,1
,,,,,,,,,,,,,,,,,200623,21,2022-01-28_14h32.42.355,lexical_decision_task_DD_L5,2021.2.3,MacIntel,58.82352941,,,,,,,,,,,,1.247,1,,,,,,,,,,,,,,,,,,,,,,,,-0.004444444,-0.408888889,0,0,0,,,,,,,SPINE,C,m,y,./images/SPINE.png,,,,,,,m,1,1.247,,,,,,,,0,15,15,65,1
,,,,,,,,,,,,,,,,,200623,21,2022-01-28_14h32.42.355,lexical_decision_task_DD_L5,2021.2.3,MacIntel,58.82352941,,,,,,,,,,,,0.745,1,,,,,,,,,,,,,,,,,,,,,,,,-0.004444444,-0.408888889,0,0,0,,,,,,,CARPET,C,z,y,./images/CARPET.png,,,,,,,z,1,0.745,,,,,,,,0,16,16,137,1
,,,,,,,,,,,,,,,,,200623,21,2022-01-28_14h32.42.355,lexical_decision_task_DD_L5,2021.2.3,MacIntel,58.82352941,,,,,,,,,,,,1.561,1,,,,,,,,,,,,,,,,,,,,,,,,-0.004444444,-0.408888889,0,0,0,,,,,,,SCREW,HB,z,y,./images/SCREWHB.png,,,,,,,z,1,1.561,,,,,,,,0,17,17,108,1
,,,,,,,,,,,,,,,,,200623,21,2022-01-28_14h32.42.355,lexical_decision_task_DD_L5,2021.2.3,MacIntel,58.82352941,,,,,,,,,,,,0.595,1,,,,,,,,,,,,,,,,,,,,,,,,-0.004444444,-0.408888889,0,0,0,,,,,,,CRATER,HB,m,y,./images/CRATERHB.png,,,,,,,m,1,0.595,,,,,,,,0,18,18,3,1
,,,,,,,,,,,,,,,,,200623,21,2022-01-28_14h32.42.355,lexical_decision_task_DD_L5,2021.2.3,MacIntel,58.82352941,,,,,,,,,,,,0.629,1,,,,,,,,,,,,,,,,,,,,,,,,-0.004444444,-0.408888889,0,0,0,,,,,,,CLIFF,C,m,y,./images/CLIFF.png,,,,,,,m,1,0.629,,,,,,,,0,19,19,8,1
,,,,,,,,,,,,,,,,,200623,21,2022-01-28_14h32.42.355,lexical_decision_task_DD_L5,2021.2.3,MacIntel,58.82352941,,,,,,,,,,,,0.646,0,,,,,,,,,,,,,,,,,,,,,,,,-0.004444444,-0.408888889,0,0,0,,,,,,,GRAIN,HB,z,y,./images/GRAINHB.png,,,,,,,m,0,0.646,,,,,,,,0,20,20,159,1
,,,,,,,,,,,,,,,,,200623,21,2022-01-28_14h32.42.355,lexical_decision_task_DD_L5,2021.2.3,MacIntel,58.82352941,,,,,,,,,,,,0.965,1,,,,,,,,,,,,,,,,,,,,,,,,-0.004444444,-0.408888889,0,0,0,,,,,,,WEASEL,C,z,y,./images/WEASEL.png,,,,,,,z,1,0.965,,,,,,,,0,21,21,164,1
,,,,,,,,,,,,,,,,,200623,21,2022-01-28_14h32.42.355,lexical_decision_task_DD_L5,2021.2.3,MacIntel,58.82352941,,,,,,,,,,,,0.499,0,,,,,,,,,,,,,,,,,,,,,,,,-0.004444444,-0.408888889,0,0,0,,,,,,,PASTA,C,z,y,./images/PASTA.png,,,,,,,m,0,0.499,,,,,,,,0,22,22,89,1
,,,,,,,,,,,,,,,,,200623,21,2022-01-28_14h32.42.355,lexical_decision_task_DD_L5,2021.2.3,MacIntel,58.82352941,,,,,,,,,,,,0.863,0,,,,,,,,,,,,,,,,,,,,,,,,-0.004444444,-0.408888889,0,0,0,,,,,,,BANNER,LB,z,y,./images/BANNERLB.png,,,,,,,m,0,0.863,,,,,,,,0,23,23,136,1
,,,,,,,,,,,,,,,,,200623,21,2022-01-28_14h32.42.355,lexical_decision_task_DD_L5,2021.2.3,MacIntel,58.82352941,,,,,,,,,,,,0.512,1,,,,,,,,,,,,,,,,,,,,,,,,-0.004444444,-0.408888889,0,0,0,,,,,,,SAUCE,HB,m,y,./images/SAUCEHB.png,,,,,,,m,1,0.512,,,,,,,,0,24,24,51,1
,,,,,,,,,,,,,,,,,200623,21,2022-01-28_14h32.42.355,lexical_decision_task_DD_L5,2021.2.3,MacIntel,58.82352941,,,,,,,,,,,,1.198,1,,,,,,,,,,,,,,,,,,,,,,,,-0.004444444,-0.408888889,0,0,0,,,,,,,BUNNY,LB,m,y,./images/BUNNYLB.png,,,,,,,m,1,1.198,,,,,,,,0,25,25,13,1
,,,,,,,,,,,,,,,,,200623,21,2022-01-28_14h32.42.355,lexical_decision_task_DD_L5,2021.2.3,MacIntel,58.82352941,,,,,,,,,,,,0.947,1,,,,,,,,,,,,,,,,,,,,,,,,-0.004444444,-0.408888889,0,0,0,,,,,,,SWEAT,HB,z,y,./images/SWEATHB.png,,,,,,,z,1,0.947,,,,,,,,0,26,26,150,1
,,,,,,,,,,,,,,,,,200623,21,2022-01-28_14h32.42.355,lexical_decision_task_DD_L5,2021.2.3,MacIntel,58.82352941,,,,,,,,,,,,0.531,0,,,,,,,,,,,,,,,,,,,,,,,,-0.004444444,-0.408888889,0,0,0,,,,,,,MUFFIN,LB,z,y,./images/MUFFINLB.png,,,,,,,m,0,0.531,,,,,,,,0,27,27,139,1
,,,,,,,,,,,,,,,,,200623,21,2022-01-28_14h32.42.355,lexical_decision_task_DD_L5,2021.2.3,MacIntel,58.82352941,,,,,,,,,,,,0.901,0,,,,,,,,,,,,,,,,,,,,,,,,-0.004444444,-0.408888889,0,0,0,,,,,,,SLOPE,HB,m,y,./images/SLOPEHB.png,,,,,,,z,0,0.901,,,,,,,,0,28,28,30,1
,,,,,,,,,,,,,,,,,200623,21,2022-01-28_14h32.42.355,lexical_decision_task_DD_L5,2021.2.3,MacIntel,58.82352941,,,,,,,,,,,,0.602,1,,,,,,,,,,,,,,,,,,,,,,,,-0.004444444,-0.408888889,0,0,0,,,,,,,CHALK,LB,m,y,./images/CHALKLB.png,,,,,,,m,1,0.602,,,,,,,,0,29,29,25,1
,,,,,,,,,,,,,,,,,200623,21,2022-01-28_14h32.42.355,lexical_decision_task_DD_L5,2021.2.3,MacIntel,58.82352941,,,,,,,,,,,,0.928,0,,,,,,,,,,,,,,,,,,,,,,,,-0.004444444,-0.408888889,0,0,0,,,,,,,BOXER,LB,m,y,./images/BOXERLB.png,,,,,,,z,0,0.928,,,,,,,,0,30,30,4,1
,,,,,,,,,,,,,,,,,200623,21,2022-01-28_14h32.42.355,lexical_decision_task_DD_L5,2021.2.3,MacIntel,58.82352941,,,,,,,,,,,,0.762,1,,,,,,,,,,,,,,,,,,,,,,,,-0.004444444,-0.408888889,0,0,0,,,,,,,BUTTER,HB,m,y,./images/BUTTERHB.png,,,,,,,m,1,0.762,,,,,,,,0,31,31,27,1
,,,,,,,,,,,,,,,,,200623,21,2022-01-28_14h32.42.355,lexical_decision_task_DD_L5,2021.2.3,MacIntel,58.82352941,,,,,,,,,,,,0.688,1,,,,,,,,,,,,,,,,,,,,,,,,-0.004444444,-0.408888889,0,0,0,,,,,,,STOVE,C,m,y,./images/STOVE.png,,,,,,,m,1,0.688,,,,,,,,0,32,32,2,1
,,,,,,,,,,,,,,,,,200623,21,2022-01-28_14h32.42.355,lexical_decision_task_DD_L5,2021.2.3,MacIntel,58.82352941,,,,,,,,,,,,0.738,1,,,,,,,,,,,,,,,,,,,,,,,,-0.004444444,-0.408888889,0,0,0,,,,,,,MAMMAL,C,m,y,./images/MAMMAL.png,,,,,,,m,1,0.738,,,,,,,,0,33,33,62,1
,,,,,,,,,,,,,,,,,200623,21,2022-01-28_14h32.42.355,lexical_decision_task_DD_L5,2021.2.3,MacIntel,58.82352941,,,,,,,,,,,,0.686,1,,,,,,,,,,,,,,,,,,,,,,,,-0.004444444,-0.408888889,0,0,0,,,,,,,LADDER,C,z,y,./images/LADDER.png,,,,,,,z,1,0.686,,,,,,,,0,34,34,122,1
,,,,,,,,,,,,,,,,,200623,21,2022-01-28_14h32.42.355,lexical_decision_task_DD_L5,2021.2.3,MacIntel,58.82352941,,,,,,,,,,,,0.929,1,,,,,,,,,,,,,,,,,,,,,,,,-0.004444444,-0.408888889,0,0,0,,,,,,,CLOUD,C,m,y,./images/CLOUD.png,,,,,,,m,1,0.929,,,,,,,,0,35,35,26,1
,,,,,,,,,,,,,,,,,200623,21,2022-01-28_14h32.42.355,lexical_decision_task_DD_L5,2021.2.3,MacIntel,58.82352941,,,,,,,,,,,,0.696,1,,,,,,,,,,,,,,,,,,,,,,,,-0.004444444,-0.408888889,0,0,0,,,,,,,WALRUS,C,z,y,./images/WALRUS.png,,,,,,,z,1,0.696,,,,,,,,0,36,36,107,1
,,,,,,,,,,,,,,,,,200623,21,2022-01-28_14h32.42.355,lexical_decision_task_DD_L5,2021.2.3,MacIntel,58.82352941,,,,,,,,,,,,0.772,1,,,,,,,,,,,,,,,,,,,,,,,,-0.004444444,-0.408888889,0,0,0,,,,,,,HAMMER,HB,m,y,./images/HAMMERHB.png,,,,,,,m,1,0.772,,,,,,,,0,37,37,75,1
,,,,,,,,,,,,,,,,,200623,21,2022-01-28_14h32.42.355,lexical_decision_task_DD_L5,2021.2.3,MacIntel,58.82352941,,,,,,,,,,,,0.498,1,,,,,,,,,,,,,,,,,,,,,,,,-0.004444444,-0.408888889,0,0,0,,,,,,,DONKEY,LB,m,y,./images/DONKEYLB.png,,,,,,,m,1,0.498,,,,,,,,0,38,38,19,1
,,,,,,,,,,,,,,,,,200623,21,2022-01-28_14h32.42.355,lexical_decision_task_DD_L5,2021.2.3,MacIntel,58.82352941,,,,,,,,,,,,0.487,1,,,,,,,,,,,,,,,,,,,,,,,,-0.004444444,-0.408888889,0,0,0,,,,,,,LIZARD,C,z,y,./images/LIZARD.png,,,,,,,z,1,0.487,,,,,,,,0,39,39,128,1
,,,,,,,,,,,,,,,,,200623,21,2022-01-28_14h32.42.355,lexical_decision_task_DD_L5,2021.2.3,MacIntel,58.82352941,,,,,,,,,,,,0.629,1,,,,,,,,,,,,,,,,,,,,,,,,-0.004444444,-0.408888889,0,0,0,,,,,,,CANOE,LB,m,y,./images/CANOELB.png,,,,,,,m,1,0.629,,,,,,,,0,40,40,58,1
,,,,,,,,,,,,,,,,,200623,21,2022-01-28_14h32.42.355,lexical_decision_task_DD_L5,2021.2.3,MacIntel,58.82352941,,,,,,,,,,,,0.536,1,,,,,,,,,,,,,,,,,,,,,,,,-0.001111111,-0.412222222,0,0,0,space,,,,,,WAGON,LB,m,y,./images/WAGONLB.png,1.498,,,,,,m,1,0.536,,,,,,,,0,41,41,7,1
,,,,,,,,,,,,,,,,,200623,21,2022-01-28_14h32.42.355,lexical_decision_task_DD_L5,2021.2.3,MacIntel,58.82352941,,,,,,,,,,,,0.711,1,,,,,,,,,,,,,,,,,,,,,,,,-0.001111111,-0.412222222,0,0,0,,,,,,,JELLY,LB,z,y,./images/JELLYLB.png,,,,,,,z,1,0.711,,,,,,,,0,42,42,148,1
,,,,,,,,,,,,,,,,,200623,21,2022-01-28_14h32.42.355,lexical_decision_task_DD_L5,2021.2.3,MacIntel,58.82352941,,,,,,,,,,,,0.748,1,,,,,,,,,,,,,,,,,,,,,,,,-0.001111111,-0.412222222,0,0,0,,,,,,,CEMENT,C,z,y,./images/CEMENT.png,,,,,,,z,1,0.748,,,,,,,,0,43,43,158,1
,,,,,,,,,,,,,,,,,200623,21,2022-01-28_14h32.42.355,lexical_decision_task_DD_L5,2021.2.3,MacIntel,58.82352941,,,,,,,,,,,,0.782,1,,,,,,,,,,,,,,,,,,,,,,,,-0.001111111,-0.412222222,0,0,0,,,,,,,SQUARE,HB,z,y,./images/SQUAREHB.png,,,,,,,z,1,0.782,,,,,,,,0,44,44,90,1
,,,,,,,,,,,,,,,,,200623,21,2022-01-28_14h32.42.355,lexical_decision_task_DD_L5,2021.2.3,MacIntel,58.82352941,,,,,,,,,,,,0.545,0,,,,,,,,,,,,,,,,,,,,,,,,-0.001111111,-0.412222222,0,0,0,,,,,,,ALLEY,LB,m,y,./images/ALLEYLB.png,,,,,,,z,0,0.545,,,,,,,,0,45,45,55,1
,,,,,,,,,,,,,,,,,200623,21,2022-01-28_14h32.42.355,lexical_decision_task_DD_L5,2021.2.3,MacIntel,58.82352941,,,,,,,,,,,,0.73,1,,,,,,,,,,,,,,,,,,,,,,,,-0.001111111,-0.412222222,0,0,0,,,,,,,PACKET,C,z,y,./images/PACKET.png,,,,,,,z,1,0.73,,,,,,,,0,46,46,140,1
,,,,,,,,,,,,,,,,,200623,21,2022-01-28_14h32.42.355,lexical_decision_task_DD_L5,2021.2.3,MacIntel,58.82352941,,,,,,,,,,,,1.097,1,,,,,,,,,,,,,,,,,,,,,,,,-0.001111111,-0.412222222,0,0,0,,,,,,,PIMPLE,C,z,y,./images/PIMPLE.png,,,,,,,z,1,1.097,,,,,,,,0,47,47,155,1
,,,,,,,,,,,,,,,,,200623,21,2022-01-28_14h32.42.355,lexical_decision_task_DD_L5,2021.2.3,MacIntel,58.82352941,,,,,,,,,,,,0.588,1,,,,,,,,,,,,,,,,,,,,,,,,-0.001111111,-0.412222222,0,0,0,,,,,,,SAUNA,HB,m,y,./images/SAUNAHB.png,,,,,,,m,1,0.588,,,,,,,,0,48,48,33,1
,,,,,,,,,,,,,,,,,200623,21,2022-01-28_14h32.42.355,lexical_decision_task_DD_L5,2021.2.3,MacIntel,58.82352941,,,,,,,,,,,,1.08,1,,,,,,,,,,,,,,,,,,,,,,,,-0.001111111,-0.412222222,0,0,0,,,,,,,PICKLE,C,z,y,./images/PICKLE.png,,,,,,,z,1,1.08,,,,,,,,0,49,49,98,1
,,,,,,,,,,,,,,,,,200623,21,2022-01-28_14h32.42.355,lexical_decision_task_DD_L5,2021.2.3,MacIntel,58.82352941,,,,,,,,,,,,0.645,1,,,,,,,,,,,,,,,,,,,,,,,,-0.001111111,-0.412222222,0,0,0,,,,,,,CRUST,LB,z,y,./images/CRUSTLB.png,,,,,,,z,1,0.645,,,,,,,,0,50,50,163,1
,,,,,,,,,,,,,,,,,200623,21,2022-01-28_14h32.42.355,lexical_decision_task_DD_L5,2021.2.3,MacIntel,58.82352941,,,,,,,,,,,,0.564,0,,,,,,,,,,,,,,,,,,,,,,,,-0.001111111,-0.412222222,0,0,0,,,,,,,KIDNEY,HB,z,y,./images/KIDNEYHB.png,,,,,,,m,0,0.564,,,,,,,,0,51,51,105,1
,,,,,,,,,,,,,,,,,200623,21,2022-01-28_14h32.42.355,lexical_decision_task_DD_L5,2021.2.3,MacIntel,58.82352941,,,,,,,,,,,,0.488,0,,,,,,,,,,,,,,,,,,,,,,,,-0.001111111,-0.412222222,0,0,0,,,,,,,LITTER,HB,z,y,./images/LITTERHB.png,,,,,,,m,0,0.488,,,,,,,,0,52,52,162,1
,,,,,,,,,,,,,,,,,200623,21,2022-01-28_14h32.42.355,lexical_decision_task_DD_L5,2021.2.3,MacIntel,58.82352941,,,,,,,,,,,,0.785,0,,,,,,,,,,,,,,,,,,,,,,,,-0.001111111,-0.412222222,0,0,0,,,,,,,DOUGH,LB,z,y,./images/DOUGHLB.png,,,,,,,m,0,0.785,,,,,,,,0,53,53,103,1
,,,,,,,,,,,,,,,,,200623,21,2022-01-28_14h32.42.355,lexical_decision_task_DD_L5,2021.2.3,MacIntel,58.82352941,,,,,,,,,,,,0.88,0,,,,,,,,,,,,,,,,,,,,,,,,-0.001111111,-0.412222222,0,0,0,,,,,,,STREAM,C,m,y,./images/STREAM.png,,,,,,,z,0,0.88,,,,,,,,0,54,54,41,1
,,,,,,,,,,,,,,,,,200623,21,2022-01-28_14h32.42.355,lexical_decision_task_DD_L5,2021.2.3,MacIntel,58.82352941,,,,,,,,,,,,1.346,0,,,,,,,,,,,,,,,,,,,,,,,,-0.001111111,-0.412222222,0,0,0,,,,,,,WRIST,LB,z,y,./images/WRISTLB.png,,,,,,,m,0,1.346,,,,,,,,0,55,55,109,1
,,,,,,,,,,,,,,,,,200623,21,2022-01-28_14h32.42.355,lexical_decision_task_DD_L5,2021.2.3,MacIntel,58.82352941,,,,,,,,,,,,0.794,0,,,,,,,,,,,,,,,,,,,,,,,,-0.001111111,-0.412222222,0,0,0,,,,,,,GARDEN,LB,m,y,./images/GARDENLB.png,,,,,,,z,0,0.794,,,,,,,,0,56,56,10,1
,,,,,,,,,,,,,,,,,200623,21,2022-01-28_14h32.42.355,lexical_decision_task_DD_L5,2021.2.3,MacIntel,58.82352941,,,,,,,,,,,,0.786,0,,,,,,,,,,,,,,,,,,,,,,,,-0.001111111,-0.412222222,0,0,0,,,,,,,MEDAL,C,m,y,./images/MEDAL.png,,,,,,,z,0,0.786,,,,,,,,0,57,57,11,1
,,,,,,,,,,,,,,,,,200623,21,2022-01-28_14h32.42.355,lexical_decision_task_DD_L5,2021.2.3,MacIntel,58.82352941,,,,,,,,,,,,2.045,1,,,,,,,,,,,,,,,,,,,,,,,,-0.001111111,-0.412222222,0,0,0,,,,,,,BLOKE,HB,m,y,./images/BLOKEHB.png,,,,,,,m,1,2.045,,,,,,,,0,58,58,12,1
,,,,,,,,,,,,,,,,,200623,21,2022-01-28_14h32.42.355,lexical_decision_task_DD_L5,2021.2.3,MacIntel,58.82352941,,,,,,,,,,,,0.932,0,,,,,,,,,,,,,,,,,,,,,,,,-0.001111111,-0.412222222,0,0,0,,,,,,,STRING,C,z,y,./images/STRING.png,,,,,,,m,0,0.932,,,,,,,,0,59,59,125,1
,,,,,,,,,,,,,,,,,200623,21,2022-01-28_14h32.42.355,lexical_decision_task_DD_L5,2021.2.3,MacIntel,58.82352941,,,,,,,,,,,,0.712,1,,,,,,,,,,,,,,,,,,,,,,,,-0.001111111,-0.412222222,0,0,0,,,,,,,FENCE,C,m,y,./images/FENCE.png,,,,,,,m,1,0.712,,,,,,,,0,60,60,14,1
,,,,,,,,,,,,,,,,,200623,21,2022-01-28_14h32.42.355,lexical_decision_task_DD_L5,2021.2.3,MacIntel,58.82352941,,,,,,,,,,,,0.696,1,,,,,,,,,,,,,,,,,,,,,,,,-0.001111111,-0.412222222,0,0,0,,,,,,,LLAMA,C,m,y,./images/LLAMA.png,,,,,,,m,1,0.696,,,,,,,,0,61,61,35,1
,,,,,,,,,,,,,,,,,200623,21,2022-01-28_14h32.42.355,lexical_decision_task_DD_L5,2021.2.3,MacIntel,58.82352941,,,,,,,,,,,,1.379,1,,,,,,,,,,,,,,,,,,,,,,,,-0.001111111,-0.412222222,0,0,0,,,,,,,BEARD,C,z,y,./images/BEARD.png,,,,,,,z,1,1.379,,,,,,,,0,62,62,86,1
,,,,,,,,,,,,,,,,,200623,21,2022-01-28_14h32.42.355,lexical_decision_task_DD_L5,2021.2.3,MacIntel,58.82352941,,,,,,,,,,,,0.765,1,,,,,,,,,,,,,,,,,,,,,,,,-0.001111111,-0.412222222,0,0,0,,,,,,,BIRTH,LB,z,y,./images/BIRTHLB.png,,,,,,,z,1,0.765,,,,,,,,0,63,63,121,1
,,,,,,,,,,,,,,,,,200623,21,2022-01-28_14h32.42.355,lexical_decision_task_DD_L5,2021.2.3,MacIntel,58.82352941,,,,,,,,,,,,0.712,1,,,,,,,,,,,,,,,,,,,,,,,,-0.001111111,-0.412222222,0,0,0,,,,,,,FERRY,HB,m,y,./images/FERRYHB.png,,,,,,,m,1,0.712,,,,,,,,0,64,64,57,1
,,,,,,,,,,,,,,,,,200623,21,2022-01-28_14h32.42.355,lexical_decision_task_DD_L5,2021.2.3,MacIntel,58.82352941,,,,,,,,,,,,0.588,1,,,,,,,,,,,,,,,,,,,,,,,,-0.001111111,-0.412222222,0,0,0,,,,,,,RULER,LB,m,y,./images/RULERLB.png,,,,,,,m,1,0.588,,,,,,,,0,65,65,79,1
,,,,,,,,,,,,,,,,,200623,21,2022-01-28_14h32.42.355,lexical_decision_task_DD_L5,2021.2.3,MacIntel,58.82352941,,,,,,,,,,,,0.679,1,,,,,,,,,,,,,,,,,,,,,,,,-0.001111111,-0.412222222,0,0,0,,,,,,,TOWEL,LB,m,y,./images/TOWELLB.png,,,,,,,m,1,0.679,,,,,,,,0,66,66,1,1
,,,,,,,,,,,,,,,,,200623,21,2022-01-28_14h32.42.355,lexical_decision_task_DD_L5,2021.2.3,MacIntel,58.82352941,,,,,,,,,,,,1.531,1,,,,,,,,,,,,,,,,,,,,,,,,-0.001111111,-0.412222222,0,0,0,,,,,,,PEARL,LB,z,y,./images/PEARLLB.png,,,,,,,z,1,1.531,,,,,,,,0,67,67,130,1
,,,,,,,,,,,,,,,,,200623,21,2022-01-28_14h32.42.355,lexical_decision_task_DD_L5,2021.2.3,MacIntel,58.82352941,,,,,,,,,,,,0.917,1,,,,,,,,,,,,,,,,,,,,,,,,-0.001111111,-0.412222222,0,0,0,,,,,,,CHERRY,HB,m,y,./images/CHERRYHB.png,,,,,,,m,1,0.917,,,,,,,,0,68,68,54,1
,,,,,,,,,,,,,,,,,200623,21,2022-01-28_14h32.42.355,lexical_decision_task_DD_L5,2021.2.3,MacIntel,58.82352941,,,,,,,,,,,,0.906,0,,,,,,,,,,,,,,,,,,,,,,,,-0.001111111,-0.412222222,0,0,0,,,,,,,COLLAR,HB,m,y,./images/COLLARHB.png,,,,,,,z,0,0.906,,,,,,,,0,69,69,15,1
,,,,,,,,,,,,,,,,,200623,21,2022-01-28_14h32.42.355,lexical_decision_task_DD_L5,2021.2.3,MacIntel,58.82352941,,,,,,,,,,,,0.879,1,,,,,,,,,,,,,,,,,,,,,,,,-0.001111111,-0.412222222,0,0,0,,,,,,,GRANNY,C,m,y,./images/GRANNY.png,,,,,,,m,1,0.879,,,,,,,,0,70,70,20,1
,,,,,,,,,,,,,,,,,200623,21,2022-01-28_14h32.42.355,lexical_decision_task_DD_L5,2021.2.3,MacIntel,58.82352941,,,,,,,,,,,,1.397,1,,,,,,,,,,,,,,,,,,,,,,,,-0.001111111,-0.412222222,0,0,0,,,,,,,CURRY,HB,m,y,./images/CURRYHB.png,,,,,,,m,1,1.397,,,,,,,,0,71,71,60,1
,,,,,,,,,,,,,,,,,200623,21,2022-01-28_14h32.42.355,lexical_decision_task_DD_L5,2021.2.3,MacIntel,58.82352941,,,,,,,,,,,,1.387,1,,,,,,,,,,,,,,,,,,,,,,,,-0.001111111,-0.412222222,0,0,0,,,,,,,MAGGOT,HB,z,y,./images/MAGGOTHB.png,,,,,,,z,1,1.387,,,,,,,,0,72,72,117,1
,,,,,,,,,,,,,,,,,200623,21,2022-01-28_14h32.42.355,lexical_decision_task_DD_L5,2021.2.3,MacIntel,58.82352941,,,,,,,,,,,,0.813,0,,,,,,,,,,,,,,,,,,,,,,,,-0.001111111,-0.412222222,0,0,0,,,,,,,BAKER,HB,m,y,./images/BAKERHB.png,,,,,,,z,0,0.813,,,,,,,,0,73,73,63,1
,,,,,,,,,,,,,,,,,200623,21,2022-01-28_14h32.42.355,lexical_decision_task_DD_L5,2021.2.3,MacIntel,58.82352941,,,,,,,,,,,,0.83,1,,,,,,,,,,,,,,,,,,,,,,,,-0.001111111,-0.412222222,0,0,0,,,,,,,TWINS,HB,z,y,./images/TWINSHB.png,,,,,,,z,1,0.83,,,,,,,,0,74,74,144,1
,,,,,,,,,,,,,,,,,200623,21,2022-01-28_14h32.42.355,lexical_decision_task_DD_L5,2021.2.3,MacIntel,58.82352941,,,,,,,,,,,,0.804,1,,,,,,,,,,,,,,,,,,,,,,,,-0.001111111,-0.412222222,0,0,0,,,,,,,BOILER,HB,m,y,./images/BOILERHB.png,,,,,,,m,1,0.804,,,,,,,,0,75,75,36,1
,,,,,,,,,,,,,,,,,200623,21,2022-01-28_14h32.42.355,lexical_decision_task_DD_L5,2021.2.3,MacIntel,58.82352941,,,,,,,,,,,,0.58,0,,,,,,,,,,,,,,,,,,,,,,,,-0.001111111,-0.412222222,0,0,0,,,,,,,SMOKER,C,z,y,./images/SMOKER.png,,,,,,,m,0,0.58,,,,,,,,0,76,76,110,1
,,,,,,,,,,,,,,,,,200623,21,2022-01-28_14h32.42.355,lexical_decision_task_DD_L5,2021.2.3,MacIntel,58.82352941,,,,,,,,,,,,0.721,0,,,,,,,,,,,,,,,,,,,,,,,,-0.001111111,-0.412222222,0,0,0,,,,,,,CHAIN,HB,m,y,./images/CHAINHB.png,,,,,,,z,0,0.721,,,,,,,,0,77,77,42,1
,,,,,,,,,,,,,,,,,200623,21,2022-01-28_14h32.42.355,lexical_decision_task_DD_L5,2021.2.3,MacIntel,58.82352941,,,,,,,,,,,,1.1,0,,,,,,,,,,,,,,,,,,,,,,,,-0.001111111,-0.412222222,0,0,0,,,,,,,SNACK,LB,z,y,./images/SNACKLB.png,,,,,,,m,0,1.1,,,,,,,,0,78,78,157,1
,,,,,,,,,,,,,,,,,200623,21,2022-01-28_14h32.42.355,lexical_decision_task_DD_L5,2021.2.3,MacIntel,58.82352941,,,,,,,,,,,,1.148,1,,,,,,,,,,,,,,,,,,,,,,,,-0.001111111,-0.412222222,0,0,0,,,,,,,MONKEY,HB,m,y,./images/MONKEYHB.png,,,,,,,m,1,1.148,,,,,,,,0,79,79,45,1
,,,,,,,,,,,,,,,,,200623,21,2022-01-28_14h32.42.355,lexical_decision_task_DD_L5,2021.2.3,MacIntel,58.82352941,,,,,,,,,,,,0.765,1,,,,,,,,,,,,,,,,,,,,,,,,-0.001111111,-0.412222222,0,0,0,,,,,,,MOSQUE,LB,z,y,./images/MOSQUELB.png,,,,,,,z,1,0.765,,,,,,,,0,80,80,127,1
,,,,,,,,,,,,,,,,,200623,21,2022-01-28_14h32.42.355,lexical_decision_task_DD_L5,2021.2.3,MacIntel,58.82352941,,,,,,,,,,,,0.562,0,,,,,,,,,,,,,,,,,,,,,,,,-0.001111111,-0.412222222,0,0,0,,,,,,,STORM,HB,z,y,./images/STORMHB.png,,,,,,,m,0,0.562,,,,,,,,0,81,81,114,1
,,,,,,,,,,,,,,,,,200623,21,2022-01-28_14h32.42.355,lexical_decision_task_DD_L5,2021.2.3,MacIntel,58.82352941,,,,,,,,,,,,0.618,1,,,,,,,,,,,,,,,,,,,,,,,,-0.001111111,-0.412222222,0,0,0,,,,,,,RAZOR,LB,m,y,./images/RAZORLB.png,,,,,,,m,1,0.618,,,,,,,,0,82,82,34,1
,,,,,,,,,,,,,,,,,200623,21,2022-01-28_14h32.42.355,lexical_decision_task_DD_L5,2021.2.3,MacIntel,58.82352941,,,,,,,,,,,,0.879,1,,,,,,,,,,,,,,,,,,,,,,,,-0.001111111,-0.412222222,0,0,0,space,,,,,,RHINO,HB,z,y,./images/RHINOHB.png,36.066,,,,,,z,1,0.879,,,,,,,,0,83,83,93,1
,,,,,,,,,,,,,,,,,200623,21,2022-01-28_14h32.42.355,lexical_decision_task_DD_L5,2021.2.3,MacIntel,58.82352941,,,,,,,,,,,,1.101,1,,,,,,,,,,,,,,,,,,,,,,,,-0.001111111,-0.412222222,0,0,0,,,,,,,JUNGLE,C,z,y,./images/JUNGLE.png,,,,,,,z,1,1.101,,,,,,,,0,84,84,167,1
,,,,,,,,,,,,,,,,,200623,21,2022-01-28_14h32.42.355,lexical_decision_task_DD_L5,2021.2.3,MacIntel,58.82352941,,,,,,,,,,,,0.538,1,,,,,,,,,,,,,,,,,,,,,,,,-0.001111111,-0.412222222,0,0,0,,,,,,,BAMBOO,C,m,y,./images/BAMBOO.png,,,,,,,m,1,0.538,,,,,,,,0,85,85,5,1
,,,,,,,,,,,,,,,,,200623,21,2022-01-28_14h32.42.355,lexical_decision_task_DD_L5,2021.2.3,MacIntel,58.82352941,,,,,,,,,,,,1.112,1,,,,,,,,,,,,,,,,,,,,,,,,-0.001111111,-0.412222222,0,0,0,,,,,,,PURSE,C,z,y,./images/PURSE.png,,,,,,,z,1,1.112,,,,,,,,0,86,86,146,1
,,,,,,,,,,,,,,,,,200623,21,2022-01-28_14h32.42.355,lexical_decision_task_DD_L5,2021.2.3,MacIntel,58.82352941,,,,,,,,,,,,0.619,1,,,,,,,,,,,,,,,,,,,,,,,,-0.001111111,-0.412222222,0,0,0,,,,,,,VALLEY,C,m,y,./images/VALLEY.png,,,,,,,m,1,0.619,,,,,,,,0,87,87,68,1
,,,,,,,,,,,,,,,,,200623,21,2022-01-28_14h32.42.355,lexical_decision_task_DD_L5,2021.2.3,MacIntel,58.82352941,,,,,,,,,,,,0.735,0,,,,,,,,,,,,,,,,,,,,,,,,-0.001111111,-0.412222222,0,0,0,,,,,,,GLOVE,LB,m,y,./images/GLOVELB.png,,,,,,,z,0,0.735,,,,,,,,0,88,88,73,1
,,,,,,,,,,,,,,,,,200623,21,2022-01-28_14h32.42.355,lexical_decision_task_DD_L5,2021.2.3,MacIntel,58.82352941,,,,,,,,,,,,0.829,1,,,,,,,,,,,,,,,,,,,,,,,,-0.001111111,-0.412222222,0,0,0,,,,,,,TORCH,C,z,y,./images/TORCH.png,,,,,,,z,1,0.829,,,,,,,,0,89,89,152,1
,,,,,,,,,,,,,,,,,200623,21,2022-01-28_14h32.42.355,lexical_decision_task_DD_L5,2021.2.3,MacIntel,58.82352941,,,,,,,,,,,,1.367,0,,,,,,,,,,,,,,,,,,,,,,,,-0.001111111,-0.412222222,0,0,0,,,,,,,POKER,LB,m,y,./images/POKERLB.png,,,,,,,z,0,1.367,,,,,,,,0,90,90,67,1
,,,,,,,,,,,,,,,,,200623,21,2022-01-28_14h32.42.355,lexical_decision_task_DD_L5,2021.2.3,MacIntel,58.82352941,,,,,,,,,,,,0.662,1,,,,,,,,,,,,,,,,,,,,,,,,-0.001111111,-0.412222222,0,0,0,,,,,,,BROOM,HB,m,y,./images/BROOMHB.png,,,,,,,m,1,0.662,,,,,,,,0,91,91,78,1
,,,,,,,,,,,,,,,,,200623,21,2022-01-28_14h32.42.355,lexical_decision_task_DD_L5,2021.2.3,MacIntel,58.82352941,,,,,,,,,,,,0.782,1,,,,,,,,,,,,,,,,,,,,,,,,-0.001111111,-0.412222222,0,0,0,,,,,,,FALCON,LB,z,y,./images/FALCONLB.png,,,,,,,z,1,0.782,,,,,,,,0,92,92,112,1
,,,,,,,,,,,,,,,,,200623,21,2022-01-28_14h32.42.355,lexical_decision_task_DD_L5,2021.2.3,MacIntel,58.82352941,,,,,,,,,,,,0.912,1,,,,,,,,,,,,,,,,,,,,,,,,-0.001111111,-0.412222222,0,0,0,,,,,,,SAILOR,LB,z,y,./images/SAILORLB.png,,,,,,,z,1,0.912,,,,,,,,0,93,93,151,1
,,,,,,,,,,,,,,,,,200623,21,2022-01-28_14h32.42.355,lexical_decision_task_DD_L5,2021.2.3,MacIntel,58.82352941,,,,,,,,,,,,0.615,1,,,,,,,,,,,,,,,,,,,,,,,,-0.001111111,-0.412222222,0,0,0,,,,,,,BANANA,LB,m,y,./images/BANANALB.png,,,,,,,m,1,0.615,,,,,,,,0,94,94,70,1
,,,,,,,,,,,,,,,,,200623,21,2022-01-28_14h32.42.355,lexical_decision_task_DD_L5,2021.2.3,MacIntel,58.82352941,,,,,,,,,,,,0.412,0,,,,,,,,,,,,,,,,,,,,,,,,-0.001111111,-0.412222222,0,0,0,,,,,,,SUNSET,LB,z,y,./images/SUNSETLB.png,,,,,,,m,0,0.412,,,,,,,,0,95,95,166,1
,,,,,,,,,,,,,,,,,200623,21,2022-01-28_14h32.42.355,lexical_decision_task_DD_L5,2021.2.3,MacIntel,58.82352941,,,,,,,,,,,,0.711,1,,,,,,,,,,,,,,,,,,,,,,,,-0.001111111,-0.412222222,0,0,0,,,,,,,PARADE,C,m,y,./images/PARADE.png,,,,,,,m,1,0.711,,,,,,,,0,96,96,17,1
,,,,,,,,,,,,,,,,,200623,21,2022-01-28_14h32.42.355,lexical_decision_task_DD_L5,2021.2.3,MacIntel,58.82352941,,,,,,,,,,,,0.679,1,,,,,,,,,,,,,,,,,,,,,,,,-0.001111111,-0.412222222,0,0,0,,,,,,,FLESH,HB,m,y,./images/FLESHHB.png,,,,,,,m,1,0.679,,,,,,,,0,97,97,24,1
,,,,,,,,,,,,,,,,,200623,21,2022-01-28_14h32.42.355,lexical_decision_task_DD_L5,2021.2.3,MacIntel,58.82352941,,,,,,,,,,,,0.398,0,,,,,,,,,,,,,,,,,,,,,,,,-0.001111111,-0.412222222,0,0,0,,,,,,,CRADLE,C,z,y,./images/CRADLE.png,,,,,,,m,0,0.398,,,,,,,,0,98,98,104,1
,,,,,,,,,,,,,,,,,200623,21,2022-01-28_14h32.42.355,lexical_decision_task_DD_L5,2021.2.3,MacIntel,58.82352941,,,,,,,,,,,,0.572,0,,,,,,,,,,,,,,,,,,,,,,,,-0.001111111,-0.412222222,0,0,0,,,,,,,THROAT,HB,z,y,./images/THROATHB.png,,,,,,,m,0,0.572,,,,,,,,0,99,99,120,1
,,,,,,,,,,,,,,,,,200623,21,2022-01-28_14h32.42.355,lexical_decision_task_DD_L5,2021.2.3,MacIntel,58.82352941,,,,,,,,,,,,1.273,1,,,,,,,,,,,,,,,,,,,,,,,,-0.001111111,-0.412222222,0,0,0,,,,,,,BERRY,C,z,y,./images/BERRY.png,,,,,,,z,1,1.273,,,,,,,,0,100,100,131,1
,,,,,,,,,,,,,,,,,200623,21,2022-01-28_14h32.42.355,lexical_decision_task_DD_L5,2021.2.3,MacIntel,58.82352941,,,,,,,,,,,,1.061,1,,,,,,,,,,,,,,,,,,,,,,,,-0.001111111,-0.412222222,0,0,0,,,,,,,WHISKY,C,m,y,./images/WHISKY.png,,,,,,,m,1,1.061,,,,,,,,0,101,101,83,1
,,,,,,,,,,,,,,,,,200623,21,2022-01-28_14h32.42.355,lexical_decision_task_DD_L5,2021.2.3,MacIntel,58.82352941,,,,,,,,,,,,1.178,1,,,,,,,,,,,,,,,,,,,,,,,,-0.001111111,-0.412222222,0,0,0,,,,,,,DIVER,HB,m,y,./images/DIVERHB.png,,,,,,,m,1,1.178,,,,,,,,0,102,102,9,1
,,,,,,,,,,,,,,,,,200623,21,2022-01-28_14h32.42.355,lexical_decision_task_DD_L5,2021.2.3,MacIntel,58.82352941,,,,,,,,,,,,0.995,1,,,,,,,,,,,,,,,,,,,,,,,,-0.001111111,-0.412222222,0,0,0,,,,,,,SPORT,HB,z,y,./images/SPORTHB.png,,,,,,,z,1,0.995,,,,,,,,0,103,103,132,1
,,,,,,,,,,,,,,,,,200623,21,2022-01-28_14h32.42.355,lexical_decision_task_DD_L5,2021.2.3,MacIntel,58.82352941,,,,,,,,,,,,0.764,0,,,,,,,,,,,,,,,,,,,,,,,,-0.001111111,-0.412222222,0,0,0,,,,,,,PLANK,LB,z,y,./images/PLANKLB.png,,,,,,,m,0,0.764,,,,,,,,0,104,104,85,1
,,,,,,,,,,,,,,,,,200623,21,2022-01-28_14h32.42.355,lexical_decision_task_DD_L5,2021.2.3,MacIntel,58.82352941,,,,,,,,,,,,0.864,1,,,,,,,,,,,,,,,,,,,,,,,,-0.001111111,-0.412222222,0,0,0,,,,,,,PILOT,C,m,y,./images/PILOT.png,,,,,,,m,1,0.864,,,,,,,,0,105,105,50,1
,,,,,,,,,,,,,,,,,200623,21,2022-01-28_14h32.42.355,lexical_decision_task_DD_L5,2021.2.3,MacIntel,58.82352941,,,,,,,,,,,,0.679,1,,,,,,,,,,,,,,,,,,,,,,,,-0.001111111,-0.412222222,0,0,0,,,,,,,BURIAL,C,z,y,./images/BURIAL.png,,,,,,,z,1,0.679,,,,,,,,0,106,106,143,1
,,,,,,,,,,,,,,,,,200623,21,2022-01-28_14h32.42.355,lexical_decision_task_DD_L5,2021.2.3,MacIntel,58.82352941,,,,,,,,,,,,1.28,0,,,,,,,,,,,,,,,,,,,,,,,,-0.001111111,-0.412222222,0,0,0,,,,,,,PAINT,LB,z,y,./images/PAINTLB.png,,,,,,,m,0,1.28,,,,,,,,0,107,107,91,1
,,,,,,,,,,,,,,,,,200623,21,2022-01-28_14h32.42.355,lexical_decision_task_DD_L5,2021.2.3,MacIntel,58.82352941,,,,,,,,,,,,1.03,0,,,,,,,,,,,,,,,,,,,,,,,,-0.001111111,-0.412222222,0,0,0,,,,,,,MUSCLE,LB,z,y,./images/MUSCLELB.png,,,,,,,m,0,1.03,,,,,,,,0,108,108,88,1
,,,,,,,,,,,,,,,,,200623,21,2022-01-28_14h32.42.355,lexical_decision_task_DD_L5,2021.2.3,MacIntel,58.82352941,,,,,,,,,,,,0.696,0,,,,,,,,,,,,,,,,,,,,,,,,-0.001111111,-0.412222222,0,0,0,,,,,,,BRIDE,LB,m,y,./images/BRIDELB.png,,,,,,,z,0,0.696,,,,,,,,0,109,109,64,1
,,,,,,,,,,,,,,,,,200623,21,2022-01-28_14h32.42.355,lexical_decision_task_DD_L5,2021.2.3,MacIntel,58.82352941,,,,,,,,,,,,0.928,0,,,,,,,,,,,,,,,,,,,,,,,,-0.001111111,-0.412222222,0,0,0,,,,,,,DRUMS,LB,z,y,./images/DRUMSLB.png,,,,,,,m,0,0.928,,,,,,,,0,110,110,133,1
,,,,,,,,,,,,,,,,,200623,21,2022-01-28_14h32.42.355,lexical_decision_task_DD_L5,2021.2.3,MacIntel,58.82352941,,,,,,,,,,,,0.762,0,,,,,,,,,,,,,,,,,,,,,,,,-0.001111111,-0.412222222,0,0,0,,,,,,,CRUMB,C,z,y,./images/CRUMB.png,,,,,,,m,0,0.762,,,,,,,,0,111,111,113,1
,,,,,,,,,,,,,,,,,200623,21,2022-01-28_14h32.42.355,lexical_decision_task_DD_L5,2021.2.3,MacIntel,58.82352941,,,,,,,,,,,,0.736,1,,,,,,,,,,,,,,,,,,,,,,,,-0.001111111,-0.412222222,0,0,0,,,,,,,JUMPER,C,m,y,./images/JUMPER.png,,,,,,,m,1,0.736,,,,,,,,0,112,112,74,1
,,,,,,,,,,,,,,,,,200623,21,2022-01-28_14h32.42.355,lexical_decision_task_DD_L5,2021.2.3,MacIntel,58.82352941,,,,,,,,,,,,0.752,0,,,,,,,,,,,,,,,,,,,,,,,,-0.001111111,-0.412222222,0,0,0,,,,,,,ARROW,HB,m,y,./images/ARROWHB.png,,,,,,,z,0,0.752,,,,,,,,0,113,113,69,1
,,,,,,,,,,,,,,,,,200623,21,2022-01-28_14h32.42.355,lexical_decision_task_DD_L5,2021.2.3,MacIntel,58.82352941,,,,,,,,,,,,0.687,0,,,,,,,,,,,,,,,,,,,,,,,,-0.001111111,-0.412222222,0,0,0,,,,,,,MOOSE,HB,z,y,./images/MOOSEHB.png,,,,,,,m,0,0.687,,,,,,,,0,114,114,141,1
,,,,,,,,,,,,,,,,,200623,21,2022-01-28_14h32.42.355,lexical_decision_task_DD_L5,2021.2.3,MacIntel,58.82352941,,,,,,,,,,,,0.53,0,,,,,,,,,,,,,,,,,,,,,,,,-0.001111111,-0.412222222,0,0,0,,,,,,,MIRROR,HB,z,y,./images/MIRRORHB.png,,,,,,,m,0,0.53,,,,,,,,0,115,115,147,1
,,,,,,,,,,,,,,,,,200623,21,2022-01-28_14h32.42.355,lexical_decision_task_DD_L5,2021.2.3,MacIntel,58.82352941,,,,,,,,,,,,0.48,1,,,,,,,,,,,,,,,,,,,,,,,,-0.001111111,-0.412222222,0,0,0,,,,,,,SHELF,HB,z,y,./images/SHELFHB.png,,,,,,,z,1,0.48,,,,,,,,0,116,116,123,1
,,,,,,,,,,,,,,,,,200623,21,2022-01-28_14h32.42.355,lexical_decision_task_DD_L5,2021.2.3,MacIntel,58.82352941,,,,,,,,,,,,0.745,0,,,,,,,,,,,,,,,,,,,,,,,,-0.001111111,-0.412222222,0,0,0,,,,,,,STATUE,HB,m,y,./images/STATUEHB.png,,,,,,,z,0,0.745,,,,,,,,0,117,117,66,1
,,,,,,,,,,,,,,,,,200623,21,2022-01-28_14h32.42.355,lexical_decision_task_DD_L5,2021.2.3,MacIntel,58.82352941,,,,,,,,,,,,0.846,1,,,,,,,,,,,,,,,,,,,,,,,,-0.001111111,-0.412222222,0,0,0,,,,,,,STOOL,LB,m,y,./images/STOOLLB.png,,,,,,,m,1,0.846,,,,,,,,0,118,118,43,1
,,,,,,,,,,,,,,,,,200623,21,2022-01-28_14h32.42.355,lexical_decision_task_DD_L5,2021.2.3,MacIntel,58.82352941,,,,,,,,,,,,0.538,0,,,,,,,,,,,,,,,,,,,,,,,,-0.001111111,-0.412222222,0,0,0,,,,,,,CANYON,LB,z,y,./images/CANYONLB.png,,,,,,,m,0,0.538,,,,,,,,0,119,119,118,1
,,,,,,,,,,,,,,,,,200623,21,2022-01-28_14h32.42.355,lexical_decision_task_DD_L5,2021.2.3,MacIntel,58.82352941,,,,,,,,,,,,1.465,0,,,,,,,,,,,,,,,,,,,,,,,,-0.001111111,-0.412222222,0,0,0,,,,,,,STEAK,LB,m,y,./images/STEAKLB.png,,,,,,,z,0,1.465,,,,,,,,0,120,120,31,1
,,,,,,,,,,,,,,,,,200623,21,2022-01-28_14h32.42.355,lexical_decision_task_DD_L5,2021.2.3,MacIntel,58.82352941,,,,,,,,,,,,0.861,1,,,,,,,,,,,,,,,,,,,,,,,,-0.001111111,-0.412222222,0,0,0,,,,,,,MIDGET,LB,m,y,./images/MIDGETLB.png,,,,,,,m,1,0.861,,,,,,,,0,121,121,76,1
,,,,,,,,,,,,,,,,,200623,21,2022-01-28_14h32.42.355,lexical_decision_task_DD_L5,2021.2.3,MacIntel,58.82352941,,,,,,,,,,,,0.882,1,,,,,,,,,,,,,,,,,,,,,,,,-0.001111111,-0.412222222,0,0,0,,,,,,,FINGER,HB,z,y,./images/FINGERHB.png,,,,,,,z,1,0.882,,,,,,,,0,122,122,87,1
,,,,,,,,,,,,,,,,,200623,21,2022-01-28_14h32.42.355,lexical_decision_task_DD_L5,2021.2.3,MacIntel,58.82352941,,,,,,,,,,,,0.953,1,,,,,,,,,,,,,,,,,,,,,,,,-0.001111111,-0.412222222,0,0,0,,,,,,,MALLET,C,z,y,./images/MALLET.png,,,,,,,z,1,0.953,,,,,,,,0,123,123,134,1
,,,,,,,,,,,,,,,,,200623,21,2022-01-28_14h32.42.355,lexical_decision_task_DD_L5,2021.2.3,MacIntel,58.82352941,,,,,,,,,,,,0.565,1,,,,,,,,,,,,,,,,,,,,,,,,-0.001111111,-0.412222222,0,0,0,,,,,,,CLOWN,LB,m,y,./images/CLOWNLB.png,,,,,,,m,1,0.565,,,,,,,,0,124,124,22,1
,,,,,,,,,,,,,,,,,200623,21,2022-01-28_14h32.42.355,lexical_decision_task_DD_L5,2021.2.3,MacIntel,58.82352941,,,,,,,,,,,,0.546,1,,,,,,,,,,,,,,,,,,,,,,,,-0.001111111,-0.412222222,0,0,0,space,,,,,,FLASK,HB,m,y,./images/FLASKHB.png,1.331,,,,,,m,1,0.546,,,,,,,,0,125,125,72,1
,,,,,,,,,,,,,,,,,200623,21,2022-01-28_14h32.42.355,lexical_decision_task_DD_L5,2021.2.3,MacIntel,58.82352941,,,,,,,,,,,,0.994,0,,,,,,,,,,,,,,,,,,,,,,,,-0.001111111,-0.412222222,0,0,0,,,,,,,BASKET,C,m,y,./images/BASKET.png,,,,,,,z,0,0.994,,,,,,,,0,126,126,44,1
,,,,,,,,,,,,,,,,,200623,21,2022-01-28_14h32.42.355,lexical_decision_task_DD_L5,2021.2.3,MacIntel,58.82352941,,,,,,,,,,,,1.229,1,,,,,,,,,,,,,,,,,,,,,,,,-0.001111111,-0.412222222,0,0,0,,,,,,,JAGUAR,HB,z,y,./images/JAGUARHB.png,,,,,,,z,1,1.229,,,,,,,,0,127,127,102,1
,,,,,,,,,,,,,,,,,200623,21,2022-01-28_14h32.42.355,lexical_decision_task_DD_L5,2021.2.3,MacIntel,58.82352941,,,,,,,,,,,,0.655,0,,,,,,,,,,,,,,,,,,,,,,,,-0.001111111,-0.412222222,0,0,0,,,,,,,COOKER,HB,z,y,./images/COOKERHB.png,,,,,,,m,0,0.655,,,,,,,,0,128,128,153,1
,,,,,,,,,,,,,,,,,200623,21,2022-01-28_14h32.42.355,lexical_decision_task_DD_L5,2021.2.3,MacIntel,58.82352941,,,,,,,,,,,,0.778,1,,,,,,,,,,,,,,,,,,,,,,,,-0.001111111,-0.412222222,0,0,0,,,,,,,FOLDER,HB,z,y,./images/FOLDERHB.png,,,,,,,z,1,0.778,,,,,,,,0,129,129,126,1
,,,,,,,,,,,,,,,,,200623,21,2022-01-28_14h32.42.355,lexical_decision_task_DD_L5,2021.2.3,MacIntel,58.82352941,,,,,,,,,,,,0.654,1,,,,,,,,,,,,,,,,,,,,,,,,-0.001111111,-0.412222222,0,0,0,,,,,,,INFANT,LB,z,y,./images/INFANTLB.png,,,,,,,z,1,0.654,,,,,,,,0,130,130,160,1
,,,,,,,,,,,,,,,,,200623,21,2022-01-28_14h32.42.355,lexical_decision_task_DD_L5,2021.2.3,MacIntel,58.82352941,,,,,,,,,,,,0.656,1,,,,,,,,,,,,,,,,,,,,,,,,-0.001111111,-0.412222222,0,0,0,,,,,,,URINE,LB,z,y,./images/URINELB.png,,,,,,,z,1,0.656,,,,,,,,0,131,131,154,1
,,,,,,,,,,,,,,,,,200623,21,2022-01-28_14h32.42.355,lexical_decision_task_DD_L5,2021.2.3,MacIntel,58.82352941,,,,,,,,,,,,1.153,0,,,,,,,,,,,,,,,,,,,,,,,,-0.001111111,-0.412222222,0,0,0,,,,,,,HOCKEY,C,m,y,./images/HOCKEY.png,,,,,,,z,0,1.153,,,,,,,,0,132,132,32,1
,,,,,,,,,,,,,,,,,200623,21,2022-01-28_14h32.42.355,lexical_decision_task_DD_L5,2021.2.3,MacIntel,58.82352941,,,,,,,,,,,,0.763,0,,,,,,,,,,,,,,,,,,,,,,,,-0.001111111,-0.412222222,0,0,0,,,,,,,SNAKE,LB,m,y,./images/SNAKELB.png,,,,,,,z,0,0.763,,,,,,,,0,133,133,40,1
,,,,,,,,,,,,,,,,,200623,21,2022-01-28_14h32.42.355,lexical_decision_task_DD_L5,2021.2.3,MacIntel,58.82352941,,,,,,,,,,,,0.744,0,,,,,,,,,,,,,,,,,,,,,,,,-0.001111111,-0.412222222,0,0,0,,,,,,,PARCEL,HB,m,y,./images/PARCELHB.png,,,,,,,z,0,0.744,,,,,,,,0,134,134,18,1
,,,,,,,,,,,,,,,,,200623,21,2022-01-28_14h32.42.355,lexical_decision_task_DD_L5,2021.2.3,MacIntel,58.82352941,,,,,,,,,,,,1.499,0,,,,,,,,,,,,,,,,,,,,,,,,-0.001111111,-0.412222222,0,0,0,,,,,,,BABOON,LB,z,y,./images/BABOONLB.png,,,,,,,m,0,1.499,,,,,,,,0,135,135,142,1
,,,,,,,,,,,,,,,,,200623,21,2022-01-28_14h32.42.355,lexical_decision_task_DD_L5,2021.2.3,MacIntel,58.82352941,,,,,,,,,,,,1.148,1,,,,,,,,,,,,,,,,,,,,,,,,-0.001111111,-0.412222222,0,0,0,,,,,,,KITTEN,HB,z,y,./images/KITTENHB.png,,,,,,,z,1,1.148,,,,,,,,0,136,136,129,1
,,,,,,,,,,,,,,,,,200623,21,2022-01-28_14h32.42.355,lexical_decision_task_DD_L5,2021.2.3,MacIntel,58.82352941,,,,,,,,,,,,1.029,0,,,,,,,,,,,,,,,,,,,,,,,,-0.001111111,-0.412222222,0,0,0,,,,,,,TIGER,LB,m,y,./images/TIGERLB.png,,,,,,,z,0,1.029,,,,,,,,0,137,137,37,1
,,,,,,,,,,,,,,,,,200623,21,2022-01-28_14h32.42.355,lexical_decision_task_DD_L5,2021.2.3,MacIntel,58.82352941,,,,,,,,,,,,0.835,1,,,,,,,,,,,,,,,,,,,,,,,,-0.001111111,-0.412222222,0,0,0,,,,,,,DRILL,HB,m,y,./images/DRILLHB.png,,,,,,,m,1,0.835,,,,,,,,0,138,138,81,1
,,,,,,,,,,,,,,,,,200623,21,2022-01-28_14h32.42.355,lexical_decision_task_DD_L5,2021.2.3,MacIntel,58.82352941,,,,,,,,,,,,0.953,1,,,,,,,,,,,,,,,,,,,,,,,,-0.001111111,-0.412222222,0,0,0,,,,,,,SWING,LB,z,y,./images/SWINGLB.png,,,,,,,z,1,0.953,,,,,,,,0,139,139,124,1
,,,,,,,,,,,,,,,,,200623,21,2022-01-28_14h32.42.355,lexical_decision_task_DD_L5,2021.2.3,MacIntel,58.82352941,,,,,,,,,,,,1.595,0,,,,,,,,,,,,,,,,,,,,,,,,-0.001111111,-0.412222222,0,0,0,,,,,,,HEATER,C,m,y,./images/HEATER.png,,,,,,,z,0,1.595,,,,,,,,0,140,140,56,1
,,,,,,,,,,,,,,,,,200623,21,2022-01-28_14h32.42.355,lexical_decision_task_DD_L5,2021.2.3,MacIntel,58.82352941,,,,,,,,,,,,0.664,1,,,,,,,,,,,,,,,,,,,,,,,,-0.001111111,-0.412222222,0,0,0,,,,,,,PEBBLE,LB,m,y,./images/PEBBLELB.png,,,,,,,m,1,0.664,,,,,,,,0,141,141,82,1
,,,,,,,,,,,,,,,,,200623,21,2022-01-28_14h32.42.355,lexical_decision_task_DD_L5,2021.2.3,MacIntel,58.82352941,,,,,,,,,,,,1.139,1,,,,,,,,,,,,,,,,,,,,,,,,-0.001111111,-0.412222222,0,0,0,,,,,,,COUCH,C,z,y,./images/COUCH.png,,,,,,,z,1,1.139,,,,,,,,0,142,142,161,1
,,,,,,,,,,,,,,,,,200623,21,2022-01-28_14h32.42.355,lexical_decision_task_DD_L5,2021.2.3,MacIntel,58.82352941,,,,,,,,,,,,0.803,1,,,,,,,,,,,,,,,,,,,,,,,,-0.001111111,-0.412222222,0,0,0,,,,,,,BISHOP,LB,m,y,./images/BISHOPLB.png,,,,,,,m,1,0.803,,,,,,,,0,143,143,49,1
,,,,,,,,,,,,,,,,,200623,21,2022-01-28_14h32.42.355,lexical_decision_task_DD_L5,2021.2.3,MacIntel,58.82352941,,,,,,,,,,,,0.68,1,,,,,,,,,,,,,,,,,,,,,,,,-0.001111111,-0.412222222,0,0,0,,,,,,,TOMATO,HB,z,y,./images/TOMATOHB.png,,,,,,,z,1,0.68,,,,,,,,0,144,144,84,1
,,,,,,,,,,,,,,,,,200623,21,2022-01-28_14h32.42.355,lexical_decision_task_DD_L5,2021.2.3,MacIntel,58.82352941,,,,,,,,,,,,0.613,0,,,,,,,,,,,,,,,,,,,,,,,,-0.001111111,-0.412222222,0,0,0,,,,,,,PENCE,LB,z,y,./images/PENCELB.png,,,,,,,m,0,0.613,,,,,,,,0,145,145,100,1
,,,,,,,,,,,,,,,,,200623,21,2022-01-28_14h32.42.355,lexical_decision_task_DD_L5,2021.2.3,MacIntel,58.82352941,,,,,,,,,,,,0.612,1,,,,,,,,,,,,,,,,,,,,,,,,-0.001111111,-0.412222222,0,0,0,,,,,,,TULIP,C,z,y,./images/TULIP.png,,,,,,,z,1,0.612,,,,,,,,0,146,146,92,1
,,,,,,,,,,,,,,,,,200623,21,2022-01-28_14h32.42.355,lexical_decision_task_DD_L5,2021.2.3,MacIntel,58.82352941,,,,,,,,,,,,0.53,1,,,,,,,,,,,,,,,,,,,,,,,,-0.001111111,-0.412222222,0,0,0,,,,,,,WHEEL,C,m,y,./images/WHEEL.png,,,,,,,m,1,0.53,,,,,,,,0,147,147,77,1
,,,,,,,,,,,,,,,,,200623,21,2022-01-28_14h32.42.355,lexical_decision_task_DD_L5,2021.2.3,MacIntel,58.82352941,,,,,,,,,,,,0.914,1,,,,,,,,,,,,,,,,,,,,,,,,-0.001111111,-0.412222222,0,0,0,,,,,,,MOTOR,LB,z,y,./images/MOTORLB.png,,,,,,,z,1,0.914,,,,,,,,0,148,148,97,1
,,,,,,,,,,,,,,,,,200623,21,2022-01-28_14h32.42.355,lexical_decision_task_DD_L5,2021.2.3,MacIntel,58.82352941,,,,,,,,,,,,0.812,0,,,,,,,,,,,,,,,,,,,,,,,,-0.001111111,-0.412222222,0,0,0,,,,,,,POSTER,C,m,y,./images/POSTER.png,,,,,,,z,0,0.812,,,,,,,,0,149,149,53,1
,,,,,,,,,,,,,,,,,200623,21,2022-01-28_14h32.42.355,lexical_decision_task_DD_L5,2021.2.3,MacIntel,58.82352941,,,,,,,,,,,,0.978,1,,,,,,,,,,,,,,,,,,,,,,,,-0.001111111,-0.412222222,0,0,0,,,,,,,BONNET,C,z,y,./images/BONNET.png,,,,,,,z,1,0.978,,,,,,,,0,150,150,95,1
,,,,,,,,,,,,,,,,,200623,21,2022-01-28_14h32.42.355,lexical_decision_task_DD_L5,2021.2.3,MacIntel,58.82352941,,,,,,,,,,,,0.617,1,,,,,,,,,,,,,,,,,,,,,,,,-0.001111111,-0.412222222,0,0,0,,,,,,,LAGOON,C,m,y,./images/LAGOON.png,,,,,,,m,1,0.617,,,,,,,,0,151,151,47,1
,,,,,,,,,,,,,,,,,200623,21,2022-01-28_14h32.42.355,lexical_decision_task_DD_L5,2021.2.3,MacIntel,58.82352941,,,,,,,,,,,,0.678,0,,,,,,,,,,,,,,,,,,,,,,,,-0.001111111,-0.412222222,0,0,0,,,,,,,DESERT,LB,m,y,./images/DESERTLB.png,,,,,,,z,0,0.678,,,,,,,,0,152,152,52,1
,,,,,,,,,,,,,,,,,200623,21,2022-01-28_14h32.42.355,lexical_decision_task_DD_L5,2021.2.3,MacIntel,58.82352941,,,,,,,,,,,,0.545,0,,,,,,,,,,,,,,,,,,,,,,,,-0.001111111,-0.412222222,0,0,0,,,,,,,SHIELD,HB,m,y,./images/SHIELDHB.png,,,,,,,z,0,0.545,,,,,,,,0,153,153,48,1
,,,,,,,,,,,,,,,,,200623,21,2022-01-28_14h32.42.355,lexical_decision_task_DD_L5,2021.2.3,MacIntel,58.82352941,,,,,,,,,,,,0.863,1,,,,,,,,,,,,,,,,,,,,,,,,-0.001111111,-0.412222222,0,0,0,,,,,,,NOOSE,HB,z,y,./images/NOOSEHB.png,,,,,,,z,1,0.863,,,,,,,,0,154,154,156,1
,,,,,,,,,,,,,,,,,200623,21,2022-01-28_14h32.42.355,lexical_decision_task_DD_L5,2021.2.3,MacIntel,58.82352941,,,,,,,,,,,,1.027,1,,,,,,,,,,,,,,,,,,,,,,,,-0.001111111,-0.412222222,0,0,0,,,,,,,BARREL,C,z,y,./images/BARREL.png,,,,,,,z,1,1.027,,,,,,,,0,155,155,116,1
,,,,,,,,,,,,,,,,,200623,21,2022-01-28_14h32.42.355,lexical_decision_task_DD_L5,2021.2.3,MacIntel,58.82352941,,,,,,,,,,,,0.598,1,,,,,,,,,,,,,,,,,,,,,,,,-0.001111111,-0.412222222,0,0,0,,,,,,,GREASE,HB,z,y,./images/GREASEHB.png,,,,,,,z,1,0.598,,,,,,,,0,156,156,99,1
,,,,,,,,,,,,,,,,,200623,21,2022-01-28_14h32.42.355,lexical_decision_task_DD_L5,2021.2.3,MacIntel,58.82352941,,,,,,,,,,,,0.6,1,,,,,,,,,,,,,,,,,,,,,,,,-0.001111111,-0.412222222,0,0,0,,,,,,,BRUSH,C,m,y,./images/BRUSH.png,,,,,,,m,1,0.6,,,,,,,,0,157,157,59,1
,,,,,,,,,,,,,,,,,200623,21,2022-01-28_14h32.42.355,lexical_decision_task_DD_L5,2021.2.3,MacIntel,58.82352941,,,,,,,,,,,,0.63,1,,,,,,,,,,,,,,,,,,,,,,,,-0.001111111,-0.412222222,0,0,0,,,,,,,ARTIST,LB,m,y,./images/ARTISTLB.png,,,,,,,m,1,0.63,,,,,,,,0,158,158,61,1
,,,,,,,,,,,,,,,,,200623,21,2022-01-28_14h32.42.355,lexical_decision_task_DD_L5,2021.2.3,MacIntel,58.82352941,,,,,,,,,,,,1.238,1,,,,,,,,,,,,,,,,,,,,,,,,-0.001111111,-0.412222222,0,0,0,,,,,,,BELLY,LB,z,y,./images/BELLYLB.png,,,,,,,z,1,1.238,,,,,,,,0,159,159,94,1
,,,,,,,,,,,,,,,,,200623,21,2022-01-28_14h32.42.355,lexical_decision_task_DD_L5,2021.2.3,MacIntel,58.82352941,,,,,,,,,,,,0.749,1,,,,,,,,,,,,,,,,,,,,,,,,-0.001111111,-0.412222222,0,0,0,,,,,,,MUMMY,LB,m,y,./images/MUMMYLB.png,,,,,,,m,1,0.749,,,,,,,,0,160,160,46,1
,,,,,,,,,,,,,,,,,200623,21,2022-01-28_14h32.42.355,lexical_decision_task_DD_L5,2021.2.3,MacIntel,58.82352941,,,,,,,,,,,,1.279,1,,,,,,,,,,,,,,,,,,,,,,,,-0.001111111,-0.412222222,0,0,0,,,,,,,FARMER,C,z,y,./images/FARMER.png,,,,,,,z,1,1.279,,,,,,,,0,161,161,149,1
,,,,,,,,,,,,,,,,,200623,21,2022-01-28_14h32.42.355,lexical_decision_task_DD_L5,2021.2.3,MacIntel,58.82352941,,,,,,,,,,,,0.711,1,,,,,,,,,,,,,,,,,,,,,,,,-0.001111111,-0.412222222,0,0,0,,,,,,,CLOTH,C,m,y,./images/CLOTH.png,,,,,,,m,1,0.711,,,,,,,,0,162,162,23,1
,,,,,,,,,,,,,,,,,200623,21,2022-01-28_14h32.42.355,lexical_decision_task_DD_L5,2021.2.3,MacIntel,58.82352941,,,,,,,,,,,,0.637,1,,,,,,,,,,,,,,,,,,,,,,,,-0.001111111,-0.412222222,0,0,0,,,,,,,ONION,HB,z,y,./images/ONIONHB.png,,,,,,,z,1,0.637,,,,,,,,0,163,163,135,1
,,,,,,,,,,,,,,,,,200623,21,2022-01-28_14h32.42.355,lexical_decision_task_DD_L5,2021.2.3,MacIntel,58.82352941,,,,,,,,,,,,0.762,1,,,,,,,,,,,,,,,,,,,,,,,,-0.001111111,-0.412222222,0,0,0,,,,,,,DANCER,HB,m,y,./images/DANCERHB.png,,,,,,,m,1,0.762,,,,,,,,0,164,164,21,1
,,,,,,,,,,,,,,,,,200623,21,2022-01-28_14h32.42.355,lexical_decision_task_DD_L5,2021.2.3,MacIntel,58.82352941,,,,,,,,,,,,0.847,0,,,,,,,,,,,,,,,,,,,,,,,,-0.001111111,-0.412222222,0,0,0,,,,,,,WALNUT,HB,m,y,./images/WALNUTHB.png,,,,,,,z,0,0.847,,,,,,,,0,165,165,0,1
,,,,,,,,,,,,,,,,,200623,21,2022-01-28_14h32.42.355,lexical_decision_task_DD_L5,2021.2.3,MacIntel,58.82352941,,,,,,,,,,,,1.583,1,,,,,,,,,,,,,,,,,,,,,,,,-0.001111111,-0.412222222,0,0,0,,,,,,,PEACH,C,z,y,./images/PEACH.png,,,,,,,z,1,1.583,,,,,,,,0,166,166,119,1
,,,,,,,,,,,,,,,,,200623,21,2022-01-28_14h32.42.355,lexical_decision_task_DD_L5,2021.2.3,MacIntel,58.82352941,,,,,,,,,,,,2.836,0,,,,,,,,,,,,,,,,,,,,,,,,-0.001111111,-0.412222222,0,0,0,,,,,,,PLANET,C,m,y,./images/PLANET.png,,,,,,,z,0,2.836,,,,,,,,0,167,167,80,1
