key_resp.keys,instr_done_touch.x,instr_done_touch.y,instr_done_touch.leftButton,instr_done_touch.midButton,instr_done_touch.rightButton,instr_done_touch.clicked_name,instruction_pages.thisRepN,instruction_pages.thisTrialN,instruction_pages.thisN,instruction_pages.thisIndex,instruction_pages.ran,pageN,phase,instruct_text,has_image,instruct_image,participant,age,date,expName,psychopyVersion,OS,frameRate,response.keys,response.corr,response.rt,touch_resp.x,touch_resp.y,touch_resp.leftButton,touch_resp.midButton,touch_resp.rightButton,touch_resp.time,touch_resp.clicked_name,rt,corr,practrials.thisRepN,practrials.thisTrialN,practrials.thisN,practrials.thisIndex,practrials.ran,TrialID,Target,corrAns,end_of_practice_trials_pages.thisRepN,end_of_practice_trials_pages.thisTrialN,end_of_practice_trials_pages.thisN,end_of_practice_trials_pages.thisIndex,end_of_practice_trials_pages.ran,key_resp_2.keys,key_resp_2.corr,key_resp_2.rt,targ_click.x,targ_click.y,targ_click.leftButton,targ_click.midButton,targ_click.rightButton,targ_click.time,targ_click.clicked_name,break_done_touch.x,break_done_touch.y,break_done_touch.leftButton,break_done_touch.midButton,break_done_touch.rightButton,break_done_keyboard.keys,maintrials.thisRepN,maintrials.thisTrialN,maintrials.thisN,maintrials.thisIndex,maintrials.ran,string,blur,study,lex,stim_path,break_done_touch.clicked_name,test_instructions.thisRepN,test_instructions.thisTrialN,test_instructions.thisN,test_instructions.thisIndex,test_instructions.ran,key_resp.rt,key_resp_3.keys,key_resp_3.corr,key_resp_3.rt,test_click.x,test_click.y,test_click.leftButton,test_click.midButton,test_click.rightButton,test_click.time,test_click.clicked_name,test_phase.thisRepN,test_phase.thisTrialN,test_phase.thisN,test_phase.thisIndex,test_phase.ran,break_done_keyboard.rt
,-0.034444444,-0.396666667,1,0,0,instr_done_button,0,0,0,0,1,1,instructions,"INSTRUCTIONS
At the start of each trial, look at the plus sign  (+) in the center of the screen.  This tells you that a trial is about to begin and where to look. Second, the plus sign will disappear and a string of letters will appear. Your task is to determine if the string of letters is a word or not. If the item is a word press the M key (on keyboard)  or touch the word button (phone/tablet).  If the item is not a word,  press the  Z key (on keyboard)  or touch the nonword button (on phone/tablet). 
Press the space bar or touch  continue.",0,,200671,19,2022-01-29_16h13.43.478,lexical_decision_task_DD_L3,2021.2.3,MacIntel,66.66666667,,,,,,,,,,,,,,,,,,,,,,,,,,,,,,,,,,,,,,,,,,,,,,,,,,,,,,,,,,,,,,,,,,,,,,,,,,
,0.142222222,-0.396666667,1,0,0,instr_done_button,0,1,1,1,1,2,instructions,"If your device has a keyboard, press the 'Z' key for nonwords and the 'M' key for words.





Press the space bar or touch the button below to continue.",0,keyboard-example.gif,200671,19,2022-01-29_16h13.43.478,lexical_decision_task_DD_L3,2021.2.3,MacIntel,66.66666667,,,,,,,,,,,,,,,,,,,,,,,,,,,,,,,,,,,,,,,,,,,,,,,,,,,,,,,,,,,,,,,,,,,,,,,,,,
,0.142222222,-0.396666667,1,0,0,instr_done_button,0,2,2,2,1,3,instructions,"If you are using a touchscreen only device, use the buttons on the screen. Do not use the mouse.





Press the space bar or touch the button below to continue.",0,touchscreen-example.gif,200671,19,2022-01-29_16h13.43.478,lexical_decision_task_DD_L3,2021.2.3,MacIntel,66.66666667,,,,,,,,,,,,,,,,,,,,,,,,,,,,,,,,,,,,,,,,,,,,,,,,,,,,,,,,,,,,,,,,,,,,,,,,,,
,0.041111111,-0.416666667,1,0,0,instr_done_button,0,3,3,3,1,4,instructions,"It is very important that you respond as quickly and accurately as possible, as each letter string will only be on the screen for two seconds. If you do not respond within this time, the message 'Too slow!' will be displayed and the experiment will progress to the next letter string. The first 20 trials will be practice trials and you will receive feedback on your answers. 

Press the space bar or touch the button below to start the practice trials.",0,,200671,19,2022-01-29_16h13.43.478,lexical_decision_task_DD_L3,2021.2.3,MacIntel,66.66666667,,,,,,,,,,,,,,,,,,,,,,,,,,,,,,,,,,,,,,,,,,,,,,,,,,,,,,,,,,,,,,,,,,,,,,,,,,
,,,,,,,,,,,,,,,,,200671,19,2022-01-29_16h13.43.478,lexical_decision_task_DD_L3,2021.2.3,MacIntel,66.66666667,m,0,2.853,,,,,,,,2.853,0,0,0,0,13,1,1001,ROUPET,z,,,,,,,,,,,,,,,,,,,,,,,,,,,,,,,,,,,,,,,,,,,,,,,,,,,,,,
,,,,,,,,,,,,,,,,,200671,19,2022-01-29_16h13.43.478,lexical_decision_task_DD_L3,2021.2.3,MacIntel,66.66666667,m,1,1.413,,,,,,,,1.413,1,0,1,1,1,1,1001,ADJUST,m,,,,,,,,,,,,,,,,,,,,,,,,,,,,,,,,,,,,,,,,,,,,,,,,,,,,,,
,,,,,,,,,,,,,,,,,200671,19,2022-01-29_16h13.43.478,lexical_decision_task_DD_L3,2021.2.3,MacIntel,66.66666667,z,1,1.43,,,,,,,,1.43,1,0,2,2,9,1,1001,FARINY,z,,,,,,,,,,,,,,,,,,,,,,,,,,,,,,,,,,,,,,,,,,,,,,,,,,,,,,
,,,,,,,,,,,,,,,,,200671,19,2022-01-29_16h13.43.478,lexical_decision_task_DD_L3,2021.2.3,MacIntel,66.66666667,z,1,1.063,,,,,,,,1.063,1,0,3,3,15,1,1001,WHAISE,z,,,,,,,,,,,,,,,,,,,,,,,,,,,,,,,,,,,,,,,,,,,,,,,,,,,,,,
,,,,,,,,,,,,,,,,,200671,19,2022-01-29_16h13.43.478,lexical_decision_task_DD_L3,2021.2.3,MacIntel,66.66666667,z,1,1.181,,,,,,,,1.181,1,0,4,4,8,1,1001,ASLERT,z,,,,,,,,,,,,,,,,,,,,,,,,,,,,,,,,,,,,,,,,,,,,,,,,,,,,,,
,,,,,,,,,,,,,,,,,200671,19,2022-01-29_16h13.43.478,lexical_decision_task_DD_L3,2021.2.3,MacIntel,66.66666667,m,1,0.615,,,,,,,,0.615,1,0,5,5,6,1,1001,ZOMBIE,m,,,,,,,,,,,,,,,,,,,,,,,,,,,,,,,,,,,,,,,,,,,,,,,,,,,,,,
,,,,,,,,,,,,,,,,,200671,19,2022-01-29_16h13.43.478,lexical_decision_task_DD_L3,2021.2.3,MacIntel,66.66666667,m,1,0.631,,,,,,,,0.631,1,0,6,6,5,1,1001,OBTAIN,m,,,,,,,,,,,,,,,,,,,,,,,,,,,,,,,,,,,,,,,,,,,,,,,,,,,,,,
,,,,,,,,,,,,,,,,,200671,19,2022-01-29_16h13.43.478,lexical_decision_task_DD_L3,2021.2.3,MacIntel,66.66666667,m,1,0.647,,,,,,,,0.647,1,0,7,7,7,1,1001,VOLUME,m,,,,,,,,,,,,,,,,,,,,,,,,,,,,,,,,,,,,,,,,,,,,,,,,,,,,,,
,,,,,,,,,,,,,,,,,200671,19,2022-01-29_16h13.43.478,lexical_decision_task_DD_L3,2021.2.3,MacIntel,66.66666667,m,1,0.566,,,,,,,,0.566,1,0,8,8,4,1,1001,SQUEAK,m,,,,,,,,,,,,,,,,,,,,,,,,,,,,,,,,,,,,,,,,,,,,,,,,,,,,,,
,,,,,,,,,,,,,,,,,200671,19,2022-01-29_16h13.43.478,lexical_decision_task_DD_L3,2021.2.3,MacIntel,66.66666667,z,1,0.781,,,,,,,,0.781,1,0,9,9,10,1,1001,INLADE,z,,,,,,,,,,,,,,,,,,,,,,,,,,,,,,,,,,,,,,,,,,,,,,,,,,,,,,
,,,,,,,,,,,,,,,,,200671,19,2022-01-29_16h13.43.478,lexical_decision_task_DD_L3,2021.2.3,MacIntel,66.66666667,z,1,0.682,,,,,,,,0.682,1,0,10,10,14,1,1001,THRALE,z,,,,,,,,,,,,,,,,,,,,,,,,,,,,,,,,,,,,,,,,,,,,,,,,,,,,,,
,,,,,,,,,,,,,,,,,200671,19,2022-01-29_16h13.43.478,lexical_decision_task_DD_L3,2021.2.3,MacIntel,66.66666667,m,1,0.863,,,,,,,,0.863,1,0,11,11,2,1,1001,ALMOND,m,,,,,,,,,,,,,,,,,,,,,,,,,,,,,,,,,,,,,,,,,,,,,,,,,,,,,,
,,,,,,,,,,,,,,,,,200671,19,2022-01-29_16h13.43.478,lexical_decision_task_DD_L3,2021.2.3,MacIntel,66.66666667,m,1,1.316,,,,,,,,1.316,1,0,12,12,0,1,1001,UTOPIA,m,,,,,,,,,,,,,,,,,,,,,,,,,,,,,,,,,,,,,,,,,,,,,,,,,,,,,,
,,,,,,,,,,,,,,,,,200671,19,2022-01-29_16h13.43.478,lexical_decision_task_DD_L3,2021.2.3,MacIntel,66.66666667,z,1,0.83,,,,,,,,0.83,1,0,13,13,11,1,1001,RASHET,z,,,,,,,,,,,,,,,,,,,,,,,,,,,,,,,,,,,,,,,,,,,,,,,,,,,,,,
,,,,,,,,,,,,,,,,,200671,19,2022-01-29_16h13.43.478,lexical_decision_task_DD_L3,2021.2.3,MacIntel,66.66666667,m,0,1.348,,,,,,,,1.348,0,0,14,14,12,1,1001,SPRINY,z,,,,,,,,,,,,,,,,,,,,,,,,,,,,,,,,,,,,,,,,,,,,,,,,,,,,,,
,,,,,,,,,,,,,,,,,200671,19,2022-01-29_16h13.43.478,lexical_decision_task_DD_L3,2021.2.3,MacIntel,66.66666667,m,1,0.687,,,,,,,,0.687,1,0,15,15,3,1,1001,MATRIX,m,,,,,,,,,,,,,,,,,,,,,,,,,,,,,,,,,,,,,,,,,,,,,,,,,,,,,,
,0.013333333,-0.408888889,1,0,0,instr_done_button,,,,,,1,end_of_practice,"You have completed the practice trials. During the experimental trials, you will not receive feedback. 
Before you begin, please ensure that you are in a comfortable and quiet location and will not be disturbed for about 15 minutes, as we cannot use your data if you do not complete all the trials. 
 When you are ready to start the experimental trials, please press space or touch the button below.",,,200671,19,2022-01-29_16h13.43.478,lexical_decision_task_DD_L3,2021.2.3,MacIntel,66.66666667,,,,,,,,,,,,,,,,,,,,,0,0,0,0,1,,,,,,,,,,,,,,,,,,,,,,,,,,,,,,,,,,,,,,,,,,,,,,,,,
,,,,,,,,,,,,,,,,,200671,19,2022-01-29_16h13.43.478,lexical_decision_task_DD_L3,2021.2.3,MacIntel,66.66666667,,,,,,,,,,,1.932,0,,,,,,,,,,,,,,m,0,1.932,,,,,,,,0.42,0.078888889,0,0,0,,0,0,0,130,1,CRILL,HB,old,z,./images/CRILLHB.png,,,,,,,,,,,,,,,,,,,,,,,
,,,,,,,,,,,,,,,,,200671,19,2022-01-29_16h13.43.478,lexical_decision_task_DD_L3,2021.2.3,MacIntel,66.66666667,,,,,,,,,,,1.806,1,,,,,,,,,,,,,,z,1,1.806,,,,,,,,0.42,0.078888889,0,0,0,,0,1,1,103,1,FLORT,HB,old,z,./images/FLORTHB.png,,,,,,,,,,,,,,,,,,,,,,,
,,,,,,,,,,,,,,,,,200671,19,2022-01-29_16h13.43.478,lexical_decision_task_DD_L3,2021.2.3,MacIntel,66.66666667,,,,,,,,,,,1.2,1,,,,,,,,,,,,,,m,1,1.2,,,,,,,,0.42,0.078888889,0,0,0,,0,2,2,55,1,MUFFIN,C,old,m,./images/MUFFIN.png,,,,,,,,,,,,,,,,,,,,,,,
,,,,,,,,,,,,,,,,,200671,19,2022-01-29_16h13.43.478,lexical_decision_task_DD_L3,2021.2.3,MacIntel,66.66666667,,,,,,,,,,,1.017,1,,,,,,,,,,,,,,z,1,1.017,,,,,,,,0.42,0.078888889,0,0,0,,0,3,3,95,1,HANTY,LB,old,z,./images/HANTYLB.png,,,,,,,,,,,,,,,,,,,,,,,
,,,,,,,,,,,,,,,,,200671,19,2022-01-29_16h13.43.478,lexical_decision_task_DD_L3,2021.2.3,MacIntel,66.66666667,,,,,,,,,,,0.7,1,,,,,,,,,,,,,,m,1,0.7,,,,,,,,0.42,0.078888889,0,0,0,,0,4,4,39,1,SHELF,LB,old,m,./images/SHELFLB.png,,,,,,,,,,,,,,,,,,,,,,,
,,,,,,,,,,,,,,,,,200671,19,2022-01-29_16h13.43.478,lexical_decision_task_DD_L3,2021.2.3,MacIntel,66.66666667,,,,,,,,,,,1.084,1,,,,,,,,,,,,,,m,1,1.084,,,,,,,,0.42,0.078888889,0,0,0,,0,5,5,34,1,CANYON,C,old,m,./images/CANYON.png,,,,,,,,,,,,,,,,,,,,,,,
,,,,,,,,,,,,,,,,,200671,19,2022-01-29_16h13.43.478,lexical_decision_task_DD_L3,2021.2.3,MacIntel,66.66666667,,,,,,,,,,,1.317,1,,,,,,,,,,,,,,z,1,1.317,,,,,,,,0.42,0.078888889,0,0,0,,0,6,6,101,1,GLEET,LB,old,z,./images/GLEETLB.png,,,,,,,,,,,,,,,,,,,,,,,
,,,,,,,,,,,,,,,,,200671,19,2022-01-29_16h13.43.478,lexical_decision_task_DD_L3,2021.2.3,MacIntel,66.66666667,,,,,,,,,,,0.634,1,,,,,,,,,,,,,,m,1,0.634,,,,,,,,0.42,0.078888889,0,0,0,,0,7,7,52,1,BANNER,C,old,m,./images/BANNER.png,,,,,,,,,,,,,,,,,,,,,,,
,,,,,,,,,,,,,,,,,200671,19,2022-01-29_16h13.43.478,lexical_decision_task_DD_L3,2021.2.3,MacIntel,66.66666667,,,,,,,,,,,1.985,1,,,,,,,,,,,,,,z,1,1.985,,,,,,,,0.42,0.078888889,0,0,0,,0,8,8,154,1,THINT,HB,old,z,./images/THINTHB.png,,,,,,,,,,,,,,,,,,,,,,,
,,,,,,,,,,,,,,,,,200671,19,2022-01-29_16h13.43.478,lexical_decision_task_DD_L3,2021.2.3,MacIntel,66.66666667,,,,,,,,,,,0.817,1,,,,,,,,,,,,,,z,1,0.817,,,,,,,,0.42,0.078888889,0,0,0,,0,9,9,161,1,BLAPS,LB,old,z,./images/BLAPSLB.png,,,,,,,,,,,,,,,,,,,,,,,
,,,,,,,,,,,,,,,,,200671,19,2022-01-29_16h13.43.478,lexical_decision_task_DD_L3,2021.2.3,MacIntel,66.66666667,,,,,,,,,,,3.75,0,,,,,,,,,,,,,,z,0,3.75,,,,,,,,0.42,0.078888889,0,0,0,,0,10,10,17,1,SKIING,HB,old,m,./images/SKIINGHB.png,,,,,,,,,,,,,,,,,,,,,,,
,,,,,,,,,,,,,,,,,200671,19,2022-01-29_16h13.43.478,lexical_decision_task_DD_L3,2021.2.3,MacIntel,66.66666667,,,,,,,,,,,0.834,1,,,,,,,,,,,,,,m,1,0.834,,,,,,,,0.42,0.078888889,0,0,0,,0,11,11,68,1,TORCH,HB,old,m,./images/TORCHHB.png,,,,,,,,,,,,,,,,,,,,,,,
,,,,,,,,,,,,,,,,,200671,19,2022-01-29_16h13.43.478,lexical_decision_task_DD_L3,2021.2.3,MacIntel,66.66666667,,,,,,,,,,,0.836,1,,,,,,,,,,,,,,m,1,0.836,,,,,,,,0.42,0.078888889,0,0,0,,0,12,12,29,1,CRUMB,HB,old,m,./images/CRUMBHB.png,,,,,,,,,,,,,,,,,,,,,,,
,,,,,,,,,,,,,,,,,200671,19,2022-01-29_16h13.43.478,lexical_decision_task_DD_L3,2021.2.3,MacIntel,66.66666667,,,,,,,,,,,0.834,1,,,,,,,,,,,,,,z,1,0.834,,,,,,,,0.42,0.078888889,0,0,0,,0,13,13,147,1,ZOLES,C,old,z,./images/ZOLES.png,,,,,,,,,,,,,,,,,,,,,,,
,,,,,,,,,,,,,,,,,200671,19,2022-01-29_16h13.43.478,lexical_decision_task_DD_L3,2021.2.3,MacIntel,66.66666667,,,,,,,,,,,0.585,1,,,,,,,,,,,,,,m,1,0.585,,,,,,,,0.42,0.078888889,0,0,0,,0,14,14,76,1,INFANT,C,old,m,./images/INFANT.png,,,,,,,,,,,,,,,,,,,,,,,
,,,,,,,,,,,,,,,,,200671,19,2022-01-29_16h13.43.478,lexical_decision_task_DD_L3,2021.2.3,MacIntel,66.66666667,,,,,,,,,,,0.718,1,,,,,,,,,,,,,,m,1,0.718,,,,,,,,0.42,0.078888889,0,0,0,,0,15,15,32,1,BARREL,HB,old,m,./images/BARRELHB.png,,,,,,,,,,,,,,,,,,,,,,,
,,,,,,,,,,,,,,,,,200671,19,2022-01-29_16h13.43.478,lexical_decision_task_DD_L3,2021.2.3,MacIntel,66.66666667,,,,,,,,,,,0.918,1,,,,,,,,,,,,,,z,1,0.918,,,,,,,,0.42,0.078888889,0,0,0,,0,16,16,107,1,FASKS,LB,old,z,./images/FASKSLB.png,,,,,,,,,,,,,,,,,,,,,,,
,,,,,,,,,,,,,,,,,200671,19,2022-01-29_16h13.43.478,lexical_decision_task_DD_L3,2021.2.3,MacIntel,66.66666667,,,,,,,,,,,0.84,1,,,,,,,,,,,,,,z,1,0.84,,,,,,,,0.42,0.078888889,0,0,0,,0,17,17,152,1,FRAIN,LB,old,z,./images/FRAINLB.png,,,,,,,,,,,,,,,,,,,,,,,
,,,,,,,,,,,,,,,,,200671,19,2022-01-29_16h13.43.478,lexical_decision_task_DD_L3,2021.2.3,MacIntel,66.66666667,,,,,,,,,,,0.618,1,,,,,,,,,,,,,,m,1,0.618,,,,,,,,0.42,0.078888889,0,0,0,,0,18,18,28,1,FALCON,C,old,m,./images/FALCON.png,,,,,,,,,,,,,,,,,,,,,,,
,,,,,,,,,,,,,,,,,200671,19,2022-01-29_16h13.43.478,lexical_decision_task_DD_L3,2021.2.3,MacIntel,66.66666667,,,,,,,,,,,0.901,1,,,,,,,,,,,,,,z,1,0.901,,,,,,,,0.42,0.078888889,0,0,0,,0,19,19,93,1,SMONE,C,old,z,./images/SMONE.png,,,,,,,,,,,,,,,,,,,,,,,
,,,,,,,,,,,,,,,,,200671,19,2022-01-29_16h13.43.478,lexical_decision_task_DD_L3,2021.2.3,MacIntel,66.66666667,,,,,,,,,,,0.969,1,,,,,,,,,,,,,,z,1,0.969,,,,,,,,0.42,0.078888889,0,0,0,,0,20,20,159,1,CUDDY,C,old,z,./images/CUDDY.png,,,,,,,,,,,,,,,,,,,,,,,
,,,,,,,,,,,,,,,,,200671,19,2022-01-29_16h13.43.478,lexical_decision_task_DD_L3,2021.2.3,MacIntel,66.66666667,,,,,,,,,,,1.617,1,,,,,,,,,,,,,,m,1,1.617,,,,,,,,0.42,0.078888889,0,0,0,,0,21,21,69,1,COOKER,LB,old,m,./images/COOKERLB.png,,,,,,,,,,,,,,,,,,,,,,,
,,,,,,,,,,,,,,,,,200671,19,2022-01-29_16h13.43.478,lexical_decision_task_DD_L3,2021.2.3,MacIntel,66.66666667,,,,,,,,,,,0.532,1,,,,,,,,,,,,,,m,1,0.532,,,,,,,,0.42,0.078888889,0,0,0,,0,22,22,36,1,THROAT,LB,old,m,./images/THROATLB.png,,,,,,,,,,,,,,,,,,,,,,,
,,,,,,,,,,,,,,,,,200671,19,2022-01-29_16h13.43.478,lexical_decision_task_DD_L3,2021.2.3,MacIntel,66.66666667,,,,,,,,,,,2.099,1,,,,,,,,,,,,,,z,1,2.099,,,,,,,,0.42,0.078888889,0,0,0,,0,23,23,115,1,MAWNS,HB,old,z,./images/MAWNSHB.png,,,,,,,,,,,,,,,,,,,,,,,
,,,,,,,,,,,,,,,,,200671,19,2022-01-29_16h13.43.478,lexical_decision_task_DD_L3,2021.2.3,MacIntel,66.66666667,,,,,,,,,,,0.651,1,,,,,,,,,,,,,,z,1,0.651,,,,,,,,0.42,0.078888889,0,0,0,,0,24,24,123,1,SEDGE,C,old,z,./images/SEDGE.png,,,,,,,,,,,,,,,,,,,,,,,
,,,,,,,,,,,,,,,,,200671,19,2022-01-29_16h13.43.478,lexical_decision_task_DD_L3,2021.2.3,MacIntel,66.66666667,,,,,,,,,,,1.101,1,,,,,,,,,,,,,,m,1,1.101,,,,,,,,0.42,0.078888889,0,0,0,,0,25,25,65,1,FARMER,HB,old,m,./images/FARMERHB.png,,,,,,,,,,,,,,,,,,,,,,,
,,,,,,,,,,,,,,,,,200671,19,2022-01-29_16h13.43.478,lexical_decision_task_DD_L3,2021.2.3,MacIntel,66.66666667,,,,,,,,,,,0.668,1,,,,,,,,,,,,,,z,1,0.668,,,,,,,,0.42,0.078888889,0,0,0,,0,26,26,144,1,NAIRY,C,old,z,./images/NAIRY.png,,,,,,,,,,,,,,,,,,,,,,,
,,,,,,,,,,,,,,,,,200671,19,2022-01-29_16h13.43.478,lexical_decision_task_DD_L3,2021.2.3,MacIntel,66.66666667,,,,,,,,,,,0.634,1,,,,,,,,,,,,,,m,1,0.634,,,,,,,,0.42,0.078888889,0,0,0,,0,27,27,40,1,SWING,C,old,m,./images/SWING.png,,,,,,,,,,,,,,,,,,,,,,,
,,,,,,,,,,,,,,,,,200671,19,2022-01-29_16h13.43.478,lexical_decision_task_DD_L3,2021.2.3,MacIntel,66.66666667,,,,,,,,,,,0.567,1,,,,,,,,,,,,,,m,1,0.567,,,,,,,,0.42,0.078888889,0,0,0,,0,28,28,30,1,STORM,LB,old,m,./images/STORMLB.png,,,,,,,,,,,,,,,,,,,,,,,
,,,,,,,,,,,,,,,,,200671,19,2022-01-29_16h13.43.478,lexical_decision_task_DD_L3,2021.2.3,MacIntel,66.66666667,,,,,,,,,,,0.784,1,,,,,,,,,,,,,,z,1,0.784,,,,,,,,0.42,0.078888889,0,0,0,,0,29,29,92,1,PAIMS,LB,old,z,./images/PAIMSLB.png,,,,,,,,,,,,,,,,,,,,,,,
,,,,,,,,,,,,,,,,,200671,19,2022-01-29_16h13.43.478,lexical_decision_task_DD_L3,2021.2.3,MacIntel,66.66666667,,,,,,,,,,,0.667,1,,,,,,,,,,,,,,z,1,0.667,,,,,,,,0.42,0.078888889,0,0,0,,0,30,30,133,1,POWDY,HB,old,z,./images/POWDYHB.png,,,,,,,,,,,,,,,,,,,,,,,
,,,,,,,,,,,,,,,,,200671,19,2022-01-29_16h13.43.478,lexical_decision_task_DD_L3,2021.2.3,MacIntel,66.66666667,,,,,,,,,,,0.501,1,,,,,,,,,,,,,,m,1,0.501,,,,,,,,0.42,0.078888889,0,0,0,,0,31,31,22,1,MELON,C,old,m,./images/MELON.png,,,,,,,,,,,,,,,,,,,,,,,
,,,,,,,,,,,,,,,,,200671,19,2022-01-29_16h13.43.478,lexical_decision_task_DD_L3,2021.2.3,MacIntel,66.66666667,,,,,,,,,,,1.151,1,,,,,,,,,,,,,,z,1,1.151,,,,,,,,0.42,0.078888889,0,0,0,,0,32,32,163,1,GAMBA,HB,old,z,./images/GAMBAHB.png,,,,,,,,,,,,,,,,,,,,,,,
,,,,,,,,,,,,,,,,,200671,19,2022-01-29_16h13.43.478,lexical_decision_task_DD_L3,2021.2.3,MacIntel,66.66666667,,,,,,,,,,,0.9,1,,,,,,,,,,,,,,m,1,0.9,,,,,,,,0.42,0.078888889,0,0,0,,0,33,33,8,1,TULIP,HB,old,m,./images/TULIPHB.png,,,,,,,,,,,,,,,,,,,,,,,
,,,,,,,,,,,,,,,,,200671,19,2022-01-29_16h13.43.478,lexical_decision_task_DD_L3,2021.2.3,MacIntel,66.66666667,,,,,,,,,,,1.384,1,,,,,,,,,,,,,,z,1,1.384,,,,,,,,0.42,0.078888889,0,0,0,,0,34,34,124,1,TUNCH,HB,old,z,./images/TUNCHHB.png,,,,,,,,,,,,,,,,,,,,,,,
,,,,,,,,,,,,,,,,,200671,19,2022-01-29_16h13.43.478,lexical_decision_task_DD_L3,2021.2.3,MacIntel,66.66666667,,,,,,,,,,,1.068,1,,,,,,,,,,,,,,m,1,1.068,,,,,,,,0.42,0.078888889,0,0,0,,0,35,35,20,1,CRADLE,HB,old,m,./images/CRADLEHB.png,,,,,,,,,,,,,,,,,,,,,,,
,,,,,,,,,,,,,,,,,200671,19,2022-01-29_16h13.43.478,lexical_decision_task_DD_L3,2021.2.3,MacIntel,66.66666667,,,,,,,,,,,0.899,1,,,,,,,,,,,,,,z,1,0.899,,,,,,,,0.42,0.078888889,0,0,0,,0,36,36,146,1,MOOST,LB,old,z,./images/MOOSTLB.png,,,,,,,,,,,,,,,,,,,,,,,
,,,,,,,,,,,,,,,,,200671,19,2022-01-29_16h13.43.478,lexical_decision_task_DD_L3,2021.2.3,MacIntel,66.66666667,,,,,,,,,,,0.584,1,,,,,,,,,,,,,,m,1,0.584,,,,,,,,0.42,0.078888889,0,0,0,,0,37,37,51,1,ONION,LB,old,m,./images/ONIONLB.png,,,,,,,,,,,,,,,,,,,,,,,
,,,,,,,,,,,,,,,,,200671,19,2022-01-29_16h13.43.478,lexical_decision_task_DD_L3,2021.2.3,MacIntel,66.66666667,,,,,,,,,,,0.584,1,,,,,,,,,,,,,,m,1,0.584,,,,,,,,0.42,0.078888889,0,0,0,,0,38,38,24,1,SCREW,LB,old,m,./images/SCREWLB.png,,,,,,,,,,,,,,,,,,,,,,,
,,,,,,,,,,,,,,,,,200671,19,2022-01-29_16h13.43.478,lexical_decision_task_DD_L3,2021.2.3,MacIntel,66.66666667,,,,,,,,,,,0.501,1,,,,,,,,,,,,,,z,1,0.501,,,,,,,,0.42,0.078888889,0,0,0,,0,39,39,150,1,NOOLS,C,old,z,./images/NOOLS.png,,,,,,,,,,,,,,,,,,,,,,,
,,,,,,,,,,,,,,,,,200671,19,2022-01-29_16h13.43.478,lexical_decision_task_DD_L3,2021.2.3,MacIntel,66.66666667,,,,,,,,,,,0.733,1,,,,,,,,,,,,,,z,1,0.733,,,,,,,,0.42,0.078888889,0,0,0,,0,40,40,118,1,BAVEL,HB,old,z,./images/BAVELHB.png,,,,,,,,,,,,,,,,,,,,,,,
,,,,,,,,,,,,,,,,,200671,19,2022-01-29_16h13.43.478,lexical_decision_task_DD_L3,2021.2.3,MacIntel,66.66666667,,,,,,,,,,,0.7,1,,,,,,,,,,,,,,m,1,0.7,,,,,,,,0.136666667,-0.411111111,1,0,0,,0,41,41,59,1,BURIAL,HB,old,m,./images/BURIALHB.png,break_done_button,,,,,,,,,,,,,,,,,,,,,,
,,,,,,,,,,,,,,,,,200671,19,2022-01-29_16h13.43.478,lexical_decision_task_DD_L3,2021.2.3,MacIntel,66.66666667,,,,,,,,,,,0.734,1,,,,,,,,,,,,,,z,1,0.734,,,,,,,,0.492222222,0.131111111,0,0,0,,0,42,42,142,1,PLASK,HB,old,z,./images/PLASKHB.png,,,,,,,,,,,,,,,,,,,,,,,
,,,,,,,,,,,,,,,,,200671,19,2022-01-29_16h13.43.478,lexical_decision_task_DD_L3,2021.2.3,MacIntel,66.66666667,,,,,,,,,,,0.702,1,,,,,,,,,,,,,,z,1,0.702,,,,,,,,0.492222222,0.131111111,0,0,0,,0,43,43,126,1,GUELS,C,old,z,./images/GUELS.png,,,,,,,,,,,,,,,,,,,,,,,
,,,,,,,,,,,,,,,,,200671,19,2022-01-29_16h13.43.478,lexical_decision_task_DD_L3,2021.2.3,MacIntel,66.66666667,,,,,,,,,,,0.717,1,,,,,,,,,,,,,,z,1,0.717,,,,,,,,0.492222222,0.131111111,0,0,0,,0,44,44,109,1,BURGE,HB,old,z,./images/BURGEHB.png,,,,,,,,,,,,,,,,,,,,,,,
,,,,,,,,,,,,,,,,,200671,19,2022-01-29_16h13.43.478,lexical_decision_task_DD_L3,2021.2.3,MacIntel,66.66666667,,,,,,,,,,,0.517,1,,,,,,,,,,,,,,m,1,0.517,,,,,,,,0.492222222,0.131111111,0,0,0,,0,45,45,64,1,JELLY,C,old,m,./images/JELLY.png,,,,,,,,,,,,,,,,,,,,,,,
,,,,,,,,,,,,,,,,,200671,19,2022-01-29_16h13.43.478,lexical_decision_task_DD_L3,2021.2.3,MacIntel,66.66666667,,,,,,,,,,,0.584,1,,,,,,,,,,,,,,z,1,0.584,,,,,,,,0.492222222,0.131111111,0,0,0,,0,46,46,141,1,PLEET,C,old,z,./images/PLEET.png,,,,,,,,,,,,,,,,,,,,,,,
,,,,,,,,,,,,,,,,,200671,19,2022-01-29_16h13.43.478,lexical_decision_task_DD_L3,2021.2.3,MacIntel,66.66666667,,,,,,,,,,,0.624,1,,,,,,,,,,,,,,m,1,0.624,,,,,,,,0.492222222,0.131111111,0,0,0,,0,47,47,19,1,DOUGH,C,old,m,./images/DOUGH.png,,,,,,,,,,,,,,,,,,,,,,,
,,,,,,,,,,,,,,,,,200671,19,2022-01-29_16h13.43.478,lexical_decision_task_DD_L3,2021.2.3,MacIntel,66.66666667,,,,,,,,,,,0.617,0,,,,,,,,,,,,,,z,0,0.617,,,,,,,,0.492222222,0.131111111,0,0,0,,0,48,48,58,1,BABOON,C,old,m,./images/BABOON.png,,,,,,,,,,,,,,,,,,,,,,,
,,,,,,,,,,,,,,,,,200671,19,2022-01-29_16h13.43.478,lexical_decision_task_DD_L3,2021.2.3,MacIntel,66.66666667,,,,,,,,,,,0.868,1,,,,,,,,,,,,,,m,1,0.868,,,,,,,,0.492222222,0.131111111,0,0,0,,0,49,49,42,1,FOLDER,LB,old,m,./images/FOLDERLB.png,,,,,,,,,,,,,,,,,,,,,,,
,,,,,,,,,,,,,,,,,200671,19,2022-01-29_16h13.43.478,lexical_decision_task_DD_L3,2021.2.3,MacIntel,66.66666667,,,,,,,,,,,0.552,1,,,,,,,,,,,,,,m,1,0.552,,,,,,,,0.492222222,0.131111111,0,0,0,,0,50,50,0,1,TOMATO,LB,old,m,./images/TOMATOLB.png,,,,,,,,,,,,,,,,,,,,,,,
,,,,,,,,,,,,,,,,,200671,19,2022-01-29_16h13.43.478,lexical_decision_task_DD_L3,2021.2.3,MacIntel,66.66666667,,,,,,,,,,,0.986,1,,,,,,,,,,,,,,m,1,0.986,,,,,,,,0.492222222,0.131111111,0,0,0,,0,51,51,11,1,BONNET,HB,old,m,./images/BONNETHB.png,,,,,,,,,,,,,,,,,,,,,,,
,,,,,,,,,,,,,,,,,200671,19,2022-01-29_16h13.43.478,lexical_decision_task_DD_L3,2021.2.3,MacIntel,66.66666667,,,,,,,,,,,0.601,1,,,,,,,,,,,,,,z,1,0.601,,,,,,,,0.492222222,0.131111111,0,0,0,,0,52,52,86,1,AIFED,LB,old,z,./images/AIFEDLB.png,,,,,,,,,,,,,,,,,,,,,,,
,,,,,,,,,,,,,,,,,200671,19,2022-01-29_16h13.43.478,lexical_decision_task_DD_L3,2021.2.3,MacIntel,66.66666667,,,,,,,,,,,0.55,1,,,,,,,,,,,,,,m,1,0.55,,,,,,,,0.492222222,0.131111111,0,0,0,,0,53,53,10,1,BELLY,C,old,m,./images/BELLY.png,,,,,,,,,,,,,,,,,,,,,,,
,,,,,,,,,,,,,,,,,200671,19,2022-01-29_16h13.43.478,lexical_decision_task_DD_L3,2021.2.3,MacIntel,66.66666667,,,,,,,,,,,0.85,1,,,,,,,,,,,,,,z,1,0.85,,,,,,,,0.492222222,0.131111111,0,0,0,,0,54,54,160,1,VEETS,HB,old,z,./images/VEETSHB.png,,,,,,,,,,,,,,,,,,,,,,,
,,,,,,,,,,,,,,,,,200671,19,2022-01-29_16h13.43.478,lexical_decision_task_DD_L3,2021.2.3,MacIntel,66.66666667,,,,,,,,,,,1.151,1,,,,,,,,,,,,,,m,1,1.151,,,,,,,,0.492222222,0.131111111,0,0,0,,0,55,55,50,1,MALLET,HB,old,m,./images/MALLETHB.png,,,,,,,,,,,,,,,,,,,,,,,
,,,,,,,,,,,,,,,,,200671,19,2022-01-29_16h13.43.478,lexical_decision_task_DD_L3,2021.2.3,MacIntel,66.66666667,,,,,,,,,,,0.533,1,,,,,,,,,,,,,,z,1,0.533,,,,,,,,0.492222222,0.131111111,0,0,0,,0,56,56,156,1,HIXES,C,old,z,./images/HIXES.png,,,,,,,,,,,,,,,,,,,,,,,
,,,,,,,,,,,,,,,,,200671,19,2022-01-29_16h13.43.478,lexical_decision_task_DD_L3,2021.2.3,MacIntel,66.66666667,,,,,,,,,,,0.875,1,,,,,,,,,,,,,,m,1,0.875,,,,,,,,0.492222222,0.131111111,0,0,0,,0,57,57,14,1,PICKLE,HB,old,m,./images/PICKLEHB.png,,,,,,,,,,,,,,,,,,,,,,,
,,,,,,,,,,,,,,,,,200671,19,2022-01-29_16h13.43.478,lexical_decision_task_DD_L3,2021.2.3,MacIntel,66.66666667,,,,,,,,,,,0.971,1,,,,,,,,,,,,,,m,1,0.971,,,,,,,,0.492222222,0.131111111,0,0,0,,0,58,58,71,1,PIMPLE,HB,old,m,./images/PIMPLEHB.png,,,,,,,,,,,,,,,,,,,,,,,
,,,,,,,,,,,,,,,,,200671,19,2022-01-29_16h13.43.478,lexical_decision_task_DD_L3,2021.2.3,MacIntel,66.66666667,,,,,,,,,,,0.951,1,,,,,,,,,,,,,,z,1,0.951,,,,,,,,0.492222222,0.131111111,0,0,0,,0,59,59,87,1,TRING,C,old,z,./images/TRING.png,,,,,,,,,,,,,,,,,,,,,,,
,,,,,,,,,,,,,,,,,200671,19,2022-01-29_16h13.43.478,lexical_decision_task_DD_L3,2021.2.3,MacIntel,66.66666667,,,,,,,,,,,0.55,1,,,,,,,,,,,,,,m,1,0.55,,,,,,,,0.492222222,0.131111111,0,0,0,,0,60,60,4,1,MUSCLE,C,old,m,./images/MUSCLE.png,,,,,,,,,,,,,,,,,,,,,,,
,,,,,,,,,,,,,,,,,200671,19,2022-01-29_16h13.43.478,lexical_decision_task_DD_L3,2021.2.3,MacIntel,66.66666667,,,,,,,,,,,0.833,1,,,,,,,,,,,,,,m,1,0.833,,,,,,,,0.492222222,0.131111111,0,0,0,,0,61,61,81,1,POODLE,LB,old,m,./images/POODLELB.png,,,,,,,,,,,,,,,,,,,,,,,
,,,,,,,,,,,,,,,,,200671,19,2022-01-29_16h13.43.478,lexical_decision_task_DD_L3,2021.2.3,MacIntel,66.66666667,,,,,,,,,,,1.117,1,,,,,,,,,,,,,,z,1,1.117,,,,,,,,0.492222222,0.131111111,0,0,0,,0,62,62,121,1,CEERS,HB,old,z,./images/CEERSHB.png,,,,,,,,,,,,,,,,,,,,,,,
,,,,,,,,,,,,,,,,,200671,19,2022-01-29_16h13.43.478,lexical_decision_task_DD_L3,2021.2.3,MacIntel,66.66666667,,,,,,,,,,,0.867,1,,,,,,,,,,,,,,z,1,0.867,,,,,,,,0.492222222,0.131111111,0,0,0,,0,63,63,164,1,SGREW,LB,old,z,./images/SGREWLB.png,,,,,,,,,,,,,,,,,,,,,,,
,,,,,,,,,,,,,,,,,200671,19,2022-01-29_16h13.43.478,lexical_decision_task_DD_L3,2021.2.3,MacIntel,66.66666667,,,,,,,,,,,0.634,1,,,,,,,,,,,,,,m,1,0.634,,,,,,,,0.492222222,0.131111111,0,0,0,,0,64,64,54,1,TRIPOD,LB,old,m,./images/TRIPODLB.png,,,,,,,,,,,,,,,,,,,,,,,
,,,,,,,,,,,,,,,,,200671,19,2022-01-29_16h13.43.478,lexical_decision_task_DD_L3,2021.2.3,MacIntel,66.66666667,,,,,,,,,,,0.735,1,,,,,,,,,,,,,,z,1,0.735,,,,,,,,0.492222222,0.131111111,0,0,0,,0,65,65,125,1,MOOKY,LB,old,z,./images/MOOKYLB.png,,,,,,,,,,,,,,,,,,,,,,,
,,,,,,,,,,,,,,,,,200671,19,2022-01-29_16h13.43.478,lexical_decision_task_DD_L3,2021.2.3,MacIntel,66.66666667,,,,,,,,,,,0.901,0,,,,,,,,,,,,,,z,0,0.901,,,,,,,,0.492222222,0.131111111,0,0,0,,0,66,66,16,1,PENCE,C,old,m,./images/PENCE.png,,,,,,,,,,,,,,,,,,,,,,,
,,,,,,,,,,,,,,,,,200671,19,2022-01-29_16h13.43.478,lexical_decision_task_DD_L3,2021.2.3,MacIntel,66.66666667,,,,,,,,,,,1.235,1,,,,,,,,,,,,,,m,1,1.235,,,,,,,,0.492222222,0.131111111,0,0,0,,0,67,67,56,1,PACKET,HB,old,m,./images/PACKETHB.png,,,,,,,,,,,,,,,,,,,,,,,
,,,,,,,,,,,,,,,,,200671,19,2022-01-29_16h13.43.478,lexical_decision_task_DD_L3,2021.2.3,MacIntel,66.66666667,,,,,,,,,,,0.517,1,,,,,,,,,,,,,,m,1,0.517,,,,,,,,0.492222222,0.131111111,0,0,0,,0,68,68,82,1,SUNSET,C,old,m,./images/SUNSET.png,,,,,,,,,,,,,,,,,,,,,,,
,,,,,,,,,,,,,,,,,200671,19,2022-01-29_16h13.43.478,lexical_decision_task_DD_L3,2021.2.3,MacIntel,66.66666667,,,,,,,,,,,0.684,1,,,,,,,,,,,,,,z,1,0.684,,,,,,,,0.492222222,0.131111111,0,0,0,,0,69,69,148,1,JOMS,HB,old,z,./images/JOMSHB.png,,,,,,,,,,,,,,,,,,,,,,,
,,,,,,,,,,,,,,,,,200671,19,2022-01-29_16h13.43.478,lexical_decision_task_DD_L3,2021.2.3,MacIntel,66.66666667,,,,,,,,,,,0.967,1,,,,,,,,,,,,,,z,1,0.967,,,,,,,,0.492222222,0.131111111,0,0,0,,0,70,70,151,1,TINKY,HB,old,z,./images/TINKYHB.png,,,,,,,,,,,,,,,,,,,,,,,
,,,,,,,,,,,,,,,,,200671,19,2022-01-29_16h13.43.478,lexical_decision_task_DD_L3,2021.2.3,MacIntel,66.66666667,,,,,,,,,,,0.633,1,,,,,,,,,,,,,,m,1,0.633,,,,,,,,0.492222222,0.131111111,0,0,0,,0,71,71,53,1,CARPET,HB,old,m,./images/CARPETHB.png,,,,,,,,,,,,,,,,,,,,,,,
,,,,,,,,,,,,,,,,,200671,19,2022-01-29_16h13.43.478,lexical_decision_task_DD_L3,2021.2.3,MacIntel,66.66666667,,,,,,,,,,,0.667,1,,,,,,,,,,,,,,m,1,0.667,,,,,,,,0.492222222,0.131111111,0,0,0,,0,72,72,78,1,LITTER,LB,old,m,./images/LITTERLB.png,,,,,,,,,,,,,,,,,,,,,,,
,,,,,,,,,,,,,,,,,200671,19,2022-01-29_16h13.43.478,lexical_decision_task_DD_L3,2021.2.3,MacIntel,66.66666667,,,,,,,,,,,0.566,1,,,,,,,,,,,,,,m,1,0.566,,,,,,,,0.492222222,0.131111111,0,0,0,,0,73,73,70,1,URINE,C,old,m,./images/URINE.png,,,,,,,,,,,,,,,,,,,,,,,
,,,,,,,,,,,,,,,,,200671,19,2022-01-29_16h13.43.478,lexical_decision_task_DD_L3,2021.2.3,MacIntel,66.66666667,,,,,,,,,,,0.834,1,,,,,,,,,,,,,,m,1,0.834,,,,,,,,0.492222222,0.131111111,0,0,0,,0,74,74,47,1,BERRY,HB,old,m,./images/BERRYHB.png,,,,,,,,,,,,,,,,,,,,,,,
,,,,,,,,,,,,,,,,,200671,19,2022-01-29_16h13.43.478,lexical_decision_task_DD_L3,2021.2.3,MacIntel,66.66666667,,,,,,,,,,,1.819,1,,,,,,,,,,,,,,z,1,1.819,,,,,,,,0.492222222,0.131111111,0,0,0,,0,75,75,166,1,SHORY,HB,old,z,./images/SHORYHB.png,,,,,,,,,,,,,,,,,,,,,,,
,,,,,,,,,,,,,,,,,200671,19,2022-01-29_16h13.43.478,lexical_decision_task_DD_L3,2021.2.3,MacIntel,66.66666667,,,,,,,,,,,0.591,1,,,,,,,,,,,,,,m,1,0.591,,,,,,,,0.492222222,0.131111111,0,0,0,,0,76,76,25,1,WRIST,C,old,m,./images/WRIST.png,,,,,,,,,,,,,,,,,,,,,,,
,,,,,,,,,,,,,,,,,200671,19,2022-01-29_16h13.43.478,lexical_decision_task_DD_L3,2021.2.3,MacIntel,66.66666667,,,,,,,,,,,0.784,1,,,,,,,,,,,,,,m,1,0.784,,,,,,,,0.492222222,0.131111111,0,0,0,,0,77,77,31,1,QUILL,C,old,m,./images/QUILL.png,,,,,,,,,,,,,,,,,,,,,,,
,,,,,,,,,,,,,,,,,200671,19,2022-01-29_16h13.43.478,lexical_decision_task_DD_L3,2021.2.3,MacIntel,66.66666667,,,,,,,,,,,0.554,1,,,,,,,,,,,,,,m,1,0.554,,,,,,,,0.492222222,0.131111111,0,0,0,,0,78,78,66,1,SWEAT,LB,old,m,./images/SWEATLB.png,,,,,,,,,,,,,,,,,,,,,,,
,,,,,,,,,,,,,,,,,200671,19,2022-01-29_16h13.43.478,lexical_decision_task_DD_L3,2021.2.3,MacIntel,66.66666667,,,,,,,,,,,1.25,1,,,,,,,,,,,,,,z,1,1.25,,,,,,,,0.492222222,0.131111111,0,0,0,,0,79,79,100,1,DRIBS,HB,old,z,./images/DRIBSHB.png,,,,,,,,,,,,,,,,,,,,,,,
,,,,,,,,,,,,,,,,,200671,19,2022-01-29_16h13.43.478,lexical_decision_task_DD_L3,2021.2.3,MacIntel,66.66666667,,,,,,,,,,,1.401,1,,,,,,,,,,,,,,z,1,1.401,,,,,,,,0.492222222,0.131111111,0,0,0,,0,80,80,97,1,CHIDS,HB,old,z,./images/CHIDSHB.png,,,,,,,,,,,,,,,,,,,,,,,
,,,,,,,,,,,,,,,,,200671,19,2022-01-29_16h13.43.478,lexical_decision_task_DD_L3,2021.2.3,MacIntel,66.66666667,,,,,,,,,,,0.635,1,,,,,,,,,,,,,,z,1,0.635,,,,,,,,0.492222222,0.131111111,0,0,0,,0,81,81,135,1,JOODY,C,old,z,./images/JOODY.png,,,,,,,,,,,,,,,,,,,,,,,
,,,,,,,,,,,,,,,,,200671,19,2022-01-29_16h13.43.478,lexical_decision_task_DD_L3,2021.2.3,MacIntel,66.66666667,,,,,,,,,,,1.167,1,,,,,,,,,,,,,,z,1,1.167,,,,,,,,0.492222222,0.131111111,0,0,0,,0,82,82,88,1,GLUSH,HB,old,z,./images/GLUSHHB.png,,,,,,,,,,,,,,,,,,,,,,,
,,,,,,,,,,,,,,,,,200671,19,2022-01-29_16h13.43.478,lexical_decision_task_DD_L3,2021.2.3,MacIntel,66.66666667,,,,,,,,,,,0.584,1,,,,,,,,,,,,,,z,1,0.584,,,,,,,,0.137777778,-0.375555556,1,0,0,,0,83,83,155,1,CANGY,LB,old,z,./images/CANGYLB.png,break_done_button,,,,,,,,,,,,,,,,,,,,,,
,,,,,,,,,,,,,,,,,200671,19,2022-01-29_16h13.43.478,lexical_decision_task_DD_L3,2021.2.3,MacIntel,66.66666667,,,,,,,,,,,1.101,1,,,,,,,,,,,,,,m,1,1.101,,,,,,,,0.485555556,0.05,0,0,0,,0,84,84,67,1,SAILOR,C,old,m,./images/SAILOR.png,,,,,,,,,,,,,,,,,,,,,,,
,,,,,,,,,,,,,,,,,200671,19,2022-01-29_16h13.43.478,lexical_decision_task_DD_L3,2021.2.3,MacIntel,66.66666667,,,,,,,,,,,0.684,1,,,,,,,,,,,,,,z,1,0.684,,,,,,,,0.485555556,0.05,0,0,0,,0,85,85,105,1,MOKER,C,old,z,./images/MOKER.png,,,,,,,,,,,,,,,,,,,,,,,
,,,,,,,,,,,,,,,,,200671,19,2022-01-29_16h13.43.478,lexical_decision_task_DD_L3,2021.2.3,MacIntel,66.66666667,,,,,,,,,,,0.65,1,,,,,,,,,,,,,,z,1,0.65,,,,,,,,0.485555556,0.05,0,0,0,,0,86,86,131,1,NACES,LB,old,z,./images/NACESLB.png,,,,,,,,,,,,,,,,,,,,,,,
,,,,,,,,,,,,,,,,,200671,19,2022-01-29_16h13.43.478,lexical_decision_task_DD_L3,2021.2.3,MacIntel,66.66666667,,,,,,,,,,,0.816,1,,,,,,,,,,,,,,z,1,0.816,,,,,,,,0.485555556,0.05,0,0,0,,0,87,87,158,1,EGECT,LB,old,z,./images/EGECTLB.png,,,,,,,,,,,,,,,,,,,,,,,
,,,,,,,,,,,,,,,,,200671,19,2022-01-29_16h13.43.478,lexical_decision_task_DD_L3,2021.2.3,MacIntel,66.66666667,,,,,,,,,,,0.584,1,,,,,,,,,,,,,,z,1,0.584,,,,,,,,0.485555556,0.05,0,0,0,,0,88,88,96,1,KEAMS,C,old,z,./images/KEAMS.png,,,,,,,,,,,,,,,,,,,,,,,
,,,,,,,,,,,,,,,,,200671,19,2022-01-29_16h13.43.478,lexical_decision_task_DD_L3,2021.2.3,MacIntel,66.66666667,,,,,,,,,,,0.6,1,,,,,,,,,,,,,,z,1,0.6,,,,,,,,0.485555556,0.05,0,0,0,,0,89,89,116,1,BALGY,LB,old,z,./images/BALGYLB.png,,,,,,,,,,,,,,,,,,,,,,,
,,,,,,,,,,,,,,,,,200671,19,2022-01-29_16h13.43.478,lexical_decision_task_DD_L3,2021.2.3,MacIntel,66.66666667,,,,,,,,,,,0.701,1,,,,,,,,,,,,,,m,1,0.701,,,,,,,,0.485555556,0.05,0,0,0,,0,90,90,18,1,JAGUAR,LB,old,m,./images/JAGUARLB.png,,,,,,,,,,,,,,,,,,,,,,,
,,,,,,,,,,,,,,,,,200671,19,2022-01-29_16h13.43.478,lexical_decision_task_DD_L3,2021.2.3,MacIntel,66.66666667,,,,,,,,,,,0.784,1,,,,,,,,,,,,,,z,1,0.784,,,,,,,,0.485555556,0.05,0,0,0,,0,91,91,106,1,CLUMS,HB,old,z,./images/CLUMSHB.png,,,,,,,,,,,,,,,,,,,,,,,
,,,,,,,,,,,,,,,,,200671,19,2022-01-29_16h13.43.478,lexical_decision_task_DD_L3,2021.2.3,MacIntel,66.66666667,,,,,,,,,,,0.62,1,,,,,,,,,,,,,,m,1,0.62,,,,,,,,0.485555556,0.05,0,0,0,,0,92,92,6,1,SQUARE,LB,old,m,./images/SQUARELB.png,,,,,,,,,,,,,,,,,,,,,,,
,,,,,,,,,,,,,,,,,200671,19,2022-01-29_16h13.43.478,lexical_decision_task_DD_L3,2021.2.3,MacIntel,66.66666667,,,,,,,,,,,0.599,1,,,,,,,,,,,,,,z,1,0.599,,,,,,,,0.485555556,0.05,0,0,0,,0,93,93,90,1,NEAST,C,old,z,./images/NEAST.png,,,,,,,,,,,,,,,,,,,,,,,
,,,,,,,,,,,,,,,,,200671,19,2022-01-29_16h13.43.478,lexical_decision_task_DD_L3,2021.2.3,MacIntel,66.66666667,,,,,,,,,,,1.85,1,,,,,,,,,,,,,,m,1,1.85,,,,,,,,0.485555556,0.05,0,0,0,,0,94,94,35,1,PEACH,HB,old,m,./images/PEACHHB.png,,,,,,,,,,,,,,,,,,,,,,,
,,,,,,,,,,,,,,,,,200671,19,2022-01-29_16h13.43.478,lexical_decision_task_DD_L3,2021.2.3,MacIntel,66.66666667,,,,,,,,,,,1.051,1,,,,,,,,,,,,,,z,1,1.051,,,,,,,,0.485555556,0.05,0,0,0,,0,95,95,110,1,CRUNK,LB,old,z,./images/CRUNKLB.png,,,,,,,,,,,,,,,,,,,,,,,
,,,,,,,,,,,,,,,,,200671,19,2022-01-29_16h13.43.478,lexical_decision_task_DD_L3,2021.2.3,MacIntel,66.66666667,,,,,,,,,,,0.703,1,,,,,,,,,,,,,,m,1,0.703,,,,,,,,0.485555556,0.05,0,0,0,,0,96,96,63,1,MIRROR,LB,old,m,./images/MIRRORLB.png,,,,,,,,,,,,,,,,,,,,,,,
,,,,,,,,,,,,,,,,,200671,19,2022-01-29_16h13.43.478,lexical_decision_task_DD_L3,2021.2.3,MacIntel,66.66666667,,,,,,,,,,,0.701,1,,,,,,,,,,,,,,z,1,0.701,,,,,,,,0.485555556,0.05,0,0,0,,0,97,97,153,1,CLUPS,C,old,z,./images/CLUPS.png,,,,,,,,,,,,,,,,,,,,,,,
,,,,,,,,,,,,,,,,,200671,19,2022-01-29_16h13.43.478,lexical_decision_task_DD_L3,2021.2.3,MacIntel,66.66666667,,,,,,,,,,,0.554,1,,,,,,,,,,,,,,m,1,0.554,,,,,,,,0.485555556,0.05,0,0,0,,0,98,98,79,1,CRUST,C,old,m,./images/CRUST.png,,,,,,,,,,,,,,,,,,,,,,,
,,,,,,,,,,,,,,,,,200671,19,2022-01-29_16h13.43.478,lexical_decision_task_DD_L3,2021.2.3,MacIntel,66.66666667,,,,,,,,,,,0.917,1,,,,,,,,,,,,,,m,1,0.917,,,,,,,,0.485555556,0.05,0,0,0,,0,99,99,62,1,PURSE,HB,old,m,./images/PURSEHB.png,,,,,,,,,,,,,,,,,,,,,,,
,,,,,,,,,,,,,,,,,200671,19,2022-01-29_16h13.43.478,lexical_decision_task_DD_L3,2021.2.3,MacIntel,66.66666667,,,,,,,,,,,0.783,1,,,,,,,,,,,,,,m,1,0.783,,,,,,,,0.485555556,0.05,0,0,0,,0,100,100,23,1,WALRUS,HB,old,m,./images/WALRUSHB.png,,,,,,,,,,,,,,,,,,,,,,,
,,,,,,,,,,,,,,,,,200671,19,2022-01-29_16h13.43.478,lexical_decision_task_DD_L3,2021.2.3,MacIntel,66.66666667,,,,,,,,,,,0.551,1,,,,,,,,,,,,,,m,1,0.551,,,,,,,,0.485555556,0.05,0,0,0,,0,101,101,61,1,CANDLE,C,old,m,./images/CANDLE.png,,,,,,,,,,,,,,,,,,,,,,,
,,,,,,,,,,,,,,,,,200671,19,2022-01-29_16h13.43.478,lexical_decision_task_DD_L3,2021.2.3,MacIntel,66.66666667,,,,,,,,,,,0.733,1,,,,,,,,,,,,,,z,1,0.733,,,,,,,,0.485555556,0.05,0,0,0,,0,102,102,137,1,JOOST,LB,old,z,./images/JOOSTLB.png,,,,,,,,,,,,,,,,,,,,,,,
,,,,,,,,,,,,,,,,,200671,19,2022-01-29_16h13.43.478,lexical_decision_task_DD_L3,2021.2.3,MacIntel,66.66666667,,,,,,,,,,,0.717,1,,,,,,,,,,,,,,z,1,0.717,,,,,,,,0.485555556,0.05,0,0,0,,0,103,103,98,1,BAMPS,LB,old,z,./images/BAMPSLB.png,,,,,,,,,,,,,,,,,,,,,,,
,,,,,,,,,,,,,,,,,200671,19,2022-01-29_16h13.43.478,lexical_decision_task_DD_L3,2021.2.3,MacIntel,66.66666667,,,,,,,,,,,0.586,1,,,,,,,,,,,,,,m,1,0.586,,,,,,,,0.485555556,0.05,0,0,0,,0,104,104,41,1,STRING,HB,old,m,./images/STRINGHB.png,,,,,,,,,,,,,,,,,,,,,,,
,,,,,,,,,,,,,,,,,200671,19,2022-01-29_16h13.43.478,lexical_decision_task_DD_L3,2021.2.3,MacIntel,66.66666667,,,,,,,,,,,0.703,1,,,,,,,,,,,,,,z,1,0.703,,,,,,,,0.485555556,0.05,0,0,0,,0,105,105,167,1,ZONET,LB,old,z,./images/ZONETLB.png,,,,,,,,,,,,,,,,,,,,,,,
,,,,,,,,,,,,,,,,,200671,19,2022-01-29_16h13.43.478,lexical_decision_task_DD_L3,2021.2.3,MacIntel,66.66666667,,,,,,,,,,,0.601,1,,,,,,,,,,,,,,m,1,0.601,,,,,,,,0.485555556,0.05,0,0,0,,0,106,106,77,1,COUCH,HB,old,m,./images/COUCHHB.png,,,,,,,,,,,,,,,,,,,,,,,
,,,,,,,,,,,,,,,,,200671,19,2022-01-29_16h13.43.478,lexical_decision_task_DD_L3,2021.2.3,MacIntel,66.66666667,,,,,,,,,,,0.636,0,,,,,,,,,,,,,,z,0,0.636,,,,,,,,0.485555556,0.05,0,0,0,,0,107,107,33,1,MAGGOT,LB,old,m,./images/MAGGOTLB.png,,,,,,,,,,,,,,,,,,,,,,,
,,,,,,,,,,,,,,,,,200671,19,2022-01-29_16h13.43.478,lexical_decision_task_DD_L3,2021.2.3,MacIntel,66.66666667,,,,,,,,,,,1.05,1,,,,,,,,,,,,,,z,1,1.05,,,,,,,,0.485555556,0.05,0,0,0,,0,108,108,139,1,BLEAR,HB,old,z,./images/BLEARHB.png,,,,,,,,,,,,,,,,,,,,,,,
,,,,,,,,,,,,,,,,,200671,19,2022-01-29_16h13.43.478,lexical_decision_task_DD_L3,2021.2.3,MacIntel,66.66666667,,,,,,,,,,,1.351,1,,,,,,,,,,,,,,z,1,1.351,,,,,,,,0.485555556,0.05,0,0,0,,0,109,109,94,1,BLANS,HB,old,z,./images/BLANSHB.png,,,,,,,,,,,,,,,,,,,,,,,
,,,,,,,,,,,,,,,,,200671,19,2022-01-29_16h13.43.478,lexical_decision_task_DD_L3,2021.2.3,MacIntel,66.66666667,,,,,,,,,,,0.62,1,,,,,,,,,,,,,,z,1,0.62,,,,,,,,0.485555556,0.05,0,0,0,,0,110,110,119,1,PAFER,LB,old,z,./images/PAFERLB.png,,,,,,,,,,,,,,,,,,,,,,,
,,,,,,,,,,,,,,,,,200671,19,2022-01-29_16h13.43.478,lexical_decision_task_DD_L3,2021.2.3,MacIntel,66.66666667,,,,,,,,,,,0.617,1,,,,,,,,,,,,,,m,1,0.617,,,,,,,,0.485555556,0.05,0,0,0,,0,111,111,73,1,SNACK,C,old,m,./images/SNACK.png,,,,,,,,,,,,,,,,,,,,,,,
,,,,,,,,,,,,,,,,,200671,19,2022-01-29_16h13.43.478,lexical_decision_task_DD_L3,2021.2.3,MacIntel,66.66666667,,,,,,,,,,,2.083,1,,,,,,,,,,,,,,m,1,2.083,,,,,,,,0.485555556,0.05,0,0,0,,0,112,112,15,1,GREASE,LB,old,m,./images/GREASELB.png,,,,,,,,,,,,,,,,,,,,,,,
,,,,,,,,,,,,,,,,,200671,19,2022-01-29_16h13.43.478,lexical_decision_task_DD_L3,2021.2.3,MacIntel,66.66666667,,,,,,,,,,,0.717,1,,,,,,,,,,,,,,m,1,0.717,,,,,,,,0.485555556,0.05,0,0,0,,0,113,113,37,1,BIRTH,C,old,m,./images/BIRTH.png,,,,,,,,,,,,,,,,,,,,,,,
,,,,,,,,,,,,,,,,,200671,19,2022-01-29_16h13.43.478,lexical_decision_task_DD_L3,2021.2.3,MacIntel,66.66666667,,,,,,,,,,,0.952,1,,,,,,,,,,,,,,z,1,0.952,,,,,,,,0.485555556,0.05,0,0,0,,0,114,114,136,1,WERVE,HB,old,z,./images/WERVEHB.png,,,,,,,,,,,,,,,,,,,,,,,
,,,,,,,,,,,,,,,,,200671,19,2022-01-29_16h13.43.478,lexical_decision_task_DD_L3,2021.2.3,MacIntel,66.66666667,,,,,,,,,,,0.667,1,,,,,,,,,,,,,,z,1,0.667,,,,,,,,0.485555556,0.05,0,0,0,,0,115,115,85,1,CHULK,HB,old,z,./images/CHULKHB.png,,,,,,,,,,,,,,,,,,,,,,,
,,,,,,,,,,,,,,,,,200671,19,2022-01-29_16h13.43.478,lexical_decision_task_DD_L3,2021.2.3,MacIntel,66.66666667,,,,,,,,,,,0.535,1,,,,,,,,,,,,,,m,1,0.535,,,,,,,,0.485555556,0.05,0,0,0,,0,116,116,12,1,SHORE,LB,old,m,./images/SHORELB.png,,,,,,,,,,,,,,,,,,,,,,,
,,,,,,,,,,,,,,,,,200671,19,2022-01-29_16h13.43.478,lexical_decision_task_DD_L3,2021.2.3,MacIntel,66.66666667,,,,,,,,,,,0.832,1,,,,,,,,,,,,,,m,1,0.832,,,,,,,,0.485555556,0.05,0,0,0,,0,117,117,83,1,JUNGLE,HB,old,m,./images/JUNGLEHB.png,,,,,,,,,,,,,,,,,,,,,,,
,,,,,,,,,,,,,,,,,200671,19,2022-01-29_16h13.43.478,lexical_decision_task_DD_L3,2021.2.3,MacIntel,66.66666667,,,,,,,,,,,0.618,1,,,,,,,,,,,,,,z,1,0.618,,,,,,,,0.485555556,0.05,0,0,0,,0,118,118,104,1,GITTY,LB,old,z,./images/GITTYLB.png,,,,,,,,,,,,,,,,,,,,,,,
,,,,,,,,,,,,,,,,,200671,19,2022-01-29_16h13.43.478,lexical_decision_task_DD_L3,2021.2.3,MacIntel,66.66666667,,,,,,,,,,,0.553,1,,,,,,,,,,,,,,m,1,0.553,,,,,,,,0.485555556,0.05,0,0,0,,0,119,119,46,1,PEARL,C,old,m,./images/PEARL.png,,,,,,,,,,,,,,,,,,,,,,,
,,,,,,,,,,,,,,,,,200671,19,2022-01-29_16h13.43.478,lexical_decision_task_DD_L3,2021.2.3,MacIntel,66.66666667,,,,,,,,,,,0.82,1,,,,,,,,,,,,,,z,1,0.82,,,,,,,,0.485555556,0.05,0,0,0,,0,120,120,99,1,BACKY,C,old,z,./images/BACKY.png,,,,,,,,,,,,,,,,,,,,,,,
,,,,,,,,,,,,,,,,,200671,19,2022-01-29_16h13.43.478,lexical_decision_task_DD_L3,2021.2.3,MacIntel,66.66666667,,,,,,,,,,,0.617,1,,,,,,,,,,,,,,m,1,0.617,,,,,,,,0.485555556,0.05,0,0,0,,0,121,121,9,1,RHINO,LB,old,m,./images/RHINOLB.png,,,,,,,,,,,,,,,,,,,,,,,
,,,,,,,,,,,,,,,,,200671,19,2022-01-29_16h13.43.478,lexical_decision_task_DD_L3,2021.2.3,MacIntel,66.66666667,,,,,,,,,,,0.584,1,,,,,,,,,,,,,,m,1,0.584,,,,,,,,0.485555556,0.05,0,0,0,,0,122,122,7,1,PAINT,C,old,m,./images/PAINT.png,,,,,,,,,,,,,,,,,,,,,,,
,,,,,,,,,,,,,,,,,200671,19,2022-01-29_16h13.43.478,lexical_decision_task_DD_L3,2021.2.3,MacIntel,66.66666667,,,,,,,,,,,0.634,1,,,,,,,,,,,,,,z,1,0.634,,,,,,,,0.485555556,0.05,0,0,0,,0,123,123,114,1,RIKES,C,old,z,./images/RIKES.png,,,,,,,,,,,,,,,,,,,,,,,
,,,,,,,,,,,,,,,,,200671,19,2022-01-29_16h13.43.478,lexical_decision_task_DD_L3,2021.2.3,MacIntel,66.66666667,,,,,,,,,,,0.766,1,,,,,,,,,,,,,,m,1,0.766,,,,,,,,0.485555556,0.05,0,0,0,,0,124,124,1,1,PLANK,C,old,m,./images/PLANK.png,,,,,,,,,,,,,,,,,,,,,,,
,,,,,,,,,,,,,,,,,200671,19,2022-01-29_16h13.43.478,lexical_decision_task_DD_L3,2021.2.3,MacIntel,66.66666667,,,,,,,,,,,0.707,0,,,,,,,,,,,,,,z,0,0.707,,,,,,,,0.145555556,-0.39,1,0,0,,0,125,125,43,1,MOSQUE,C,old,m,./images/MOSQUE.png,break_done_button,,,,,,,,,,,,,,,,,,,,,,
,,,,,,,,,,,,,,,,,200671,19,2022-01-29_16h13.43.478,lexical_decision_task_DD_L3,2021.2.3,MacIntel,66.66666667,,,,,,,,,,,0.651,1,,,,,,,,,,,,,,z,1,0.651,,,,,,,,0.52,0.03,0,0,0,,0,126,126,120,1,RINED,C,old,z,./images/RINED.png,,,,,,,,,,,,,,,,,,,,,,,
,,,,,,,,,,,,,,,,,200671,19,2022-01-29_16h13.43.478,lexical_decision_task_DD_L3,2021.2.3,MacIntel,66.66666667,,,,,,,,,,,0.634,1,,,,,,,,,,,,,,z,1,0.634,,,,,,,,0.52,0.03,0,0,0,,0,127,127,128,1,GRIFT,LB,old,z,./images/GRIFTLB.png,,,,,,,,,,,,,,,,,,,,,,,
,,,,,,,,,,,,,,,,,200671,19,2022-01-29_16h13.43.478,lexical_decision_task_DD_L3,2021.2.3,MacIntel,66.66666667,,,,,,,,,,,1.15,1,,,,,,,,,,,,,,z,1,1.15,,,,,,,,0.52,0.03,0,0,0,,0,128,128,157,1,INLER,HB,old,z,./images/INLERHB.png,,,,,,,,,,,,,,,,,,,,,,,
,,,,,,,,,,,,,,,,,200671,19,2022-01-29_16h13.43.478,lexical_decision_task_DD_L3,2021.2.3,MacIntel,66.66666667,,,,,,,,,,,0.624,1,,,,,,,,,,,,,,m,1,0.624,,,,,,,,0.52,0.03,0,0,0,,0,129,129,49,1,DRUMS,C,old,m,./images/DRUMS.png,,,,,,,,,,,,,,,,,,,,,,,
,,,,,,,,,,,,,,,,,200671,19,2022-01-29_16h13.43.478,lexical_decision_task_DD_L3,2021.2.3,MacIntel,66.66666667,,,,,,,,,,,0.568,1,,,,,,,,,,,,,,m,1,0.568,,,,,,,,0.52,0.03,0,0,0,,0,130,130,13,1,MOTOR,C,old,m,./images/MOTOR.png,,,,,,,,,,,,,,,,,,,,,,,
,,,,,,,,,,,,,,,,,200671,19,2022-01-29_16h13.43.478,lexical_decision_task_DD_L3,2021.2.3,MacIntel,66.66666667,,,,,,,,,,,0.702,1,,,,,,,,,,,,,,m,1,0.702,,,,,,,,0.52,0.03,0,0,0,,0,131,131,26,1,SMOKER,HB,old,m,./images/SMOKERHB.png,,,,,,,,,,,,,,,,,,,,,,,
,,,,,,,,,,,,,,,,,200671,19,2022-01-29_16h13.43.478,lexical_decision_task_DD_L3,2021.2.3,MacIntel,66.66666667,,,,,,,,,,,1.335,1,,,,,,,,,,,,,,z,1,1.335,,,,,,,,0.52,0.03,0,0,0,,0,132,132,145,1,LAMEL,HB,old,z,./images/LAMELHB.png,,,,,,,,,,,,,,,,,,,,,,,
,,,,,,,,,,,,,,,,,200671,19,2022-01-29_16h13.43.478,lexical_decision_task_DD_L3,2021.2.3,MacIntel,66.66666667,,,,,,,,,,,1.084,1,,,,,,,,,,,,,,m,1,1.084,,,,,,,,0.52,0.03,0,0,0,,0,133,133,80,1,WEASEL,HB,old,m,./images/WEASELHB.png,,,,,,,,,,,,,,,,,,,,,,,
,,,,,,,,,,,,,,,,,200671,19,2022-01-29_16h13.43.478,lexical_decision_task_DD_L3,2021.2.3,MacIntel,66.66666667,,,,,,,,,,,0.537,1,,,,,,,,,,,,,,m,1,0.537,,,,,,,,0.52,0.03,0,0,0,,0,134,134,75,1,GRAIN,LB,old,m,./images/GRAINLB.png,,,,,,,,,,,,,,,,,,,,,,,
,,,,,,,,,,,,,,,,,200671,19,2022-01-29_16h13.43.478,lexical_decision_task_DD_L3,2021.2.3,MacIntel,66.66666667,,,,,,,,,,,0.618,1,,,,,,,,,,,,,,z,1,0.618,,,,,,,,0.52,0.03,0,0,0,,0,135,135,89,1,DRIEK,LB,old,z,./images/DRIEKLB.png,,,,,,,,,,,,,,,,,,,,,,,
,,,,,,,,,,,,,,,,,200671,19,2022-01-29_16h13.43.478,lexical_decision_task_DD_L3,2021.2.3,MacIntel,66.66666667,,,,,,,,,,,0.969,1,,,,,,,,,,,,,,z,1,0.969,,,,,,,,0.52,0.03,0,0,0,,0,136,136,91,1,SHENS,HB,old,z,./images/SHENSHB.png,,,,,,,,,,,,,,,,,,,,,,,
,,,,,,,,,,,,,,,,,200671,19,2022-01-29_16h13.43.478,lexical_decision_task_DD_L3,2021.2.3,MacIntel,66.66666667,,,,,,,,,,,0.651,1,,,,,,,,,,,,,,z,1,0.651,,,,,,,,0.52,0.03,0,0,0,,0,137,137,140,1,DOVET,LB,old,z,./images/DOVETLB.png,,,,,,,,,,,,,,,,,,,,,,,
,,,,,,,,,,,,,,,,,200671,19,2022-01-29_16h13.43.478,lexical_decision_task_DD_L3,2021.2.3,MacIntel,66.66666667,,,,,,,,,,,0.6,1,,,,,,,,,,,,,,z,1,0.6,,,,,,,,0.52,0.03,0,0,0,,0,138,138,117,1,STEEG,C,old,z,./images/STEEG.png,,,,,,,,,,,,,,,,,,,,,,,
,,,,,,,,,,,,,,,,,200671,19,2022-01-29_16h13.43.478,lexical_decision_task_DD_L3,2021.2.3,MacIntel,66.66666667,,,,,,,,,,,0.588,1,,,,,,,,,,,,,,z,1,0.588,,,,,,,,0.52,0.03,0,0,0,,0,139,139,84,1,HAXES,C,old,z,./images/HAXES.png,,,,,,,,,,,,,,,,,,,,,,,
,,,,,,,,,,,,,,,,,200671,19,2022-01-29_16h13.43.478,lexical_decision_task_DD_L3,2021.2.3,MacIntel,66.66666667,,,,,,,,,,,0.751,1,,,,,,,,,,,,,,z,1,0.751,,,,,,,,0.52,0.03,0,0,0,,0,140,140,122,1,BLOOT,LB,old,z,./images/BLOOTLB.png,,,,,,,,,,,,,,,,,,,,,,,
,,,,,,,,,,,,,,,,,200671,19,2022-01-29_16h13.43.478,lexical_decision_task_DD_L3,2021.2.3,MacIntel,66.66666667,,,,,,,,,,,0.904,1,,,,,,,,,,,,,,m,1,0.904,,,,,,,,0.52,0.03,0,0,0,,0,141,141,2,1,BEARD,HB,old,m,./images/BEARDHB.png,,,,,,,,,,,,,,,,,,,,,,,
,,,,,,,,,,,,,,,,,200671,19,2022-01-29_16h13.43.478,lexical_decision_task_DD_L3,2021.2.3,MacIntel,66.66666667,,,,,,,,,,,0.467,1,,,,,,,,,,,,,,m,1,0.467,,,,,,,,0.52,0.03,0,0,0,,0,142,142,60,1,TWINS,LB,old,m,./images/TWINSLB.png,,,,,,,,,,,,,,,,,,,,,,,
,,,,,,,,,,,,,,,,,200671,19,2022-01-29_16h13.43.478,lexical_decision_task_DD_L3,2021.2.3,MacIntel,66.66666667,,,,,,,,,,,1.033,1,,,,,,,,,,,,,,z,1,1.033,,,,,,,,0.52,0.03,0,0,0,,0,143,143,113,1,LINEW,LB,old,z,./images/LINEWLB.png,,,,,,,,,,,,,,,,,,,,,,,
,,,,,,,,,,,,,,,,,200671,19,2022-01-29_16h13.43.478,lexical_decision_task_DD_L3,2021.2.3,MacIntel,66.66666667,,,,,,,,,,,0.867,1,,,,,,,,,,,,,,m,1,0.867,,,,,,,,0.52,0.03,0,0,0,,0,144,144,74,1,CEMENT,HB,old,m,./images/CEMENTHB.png,,,,,,,,,,,,,,,,,,,,,,,
,,,,,,,,,,,,,,,,,200671,19,2022-01-29_16h13.43.478,lexical_decision_task_DD_L3,2021.2.3,MacIntel,66.66666667,,,,,,,,,,,1.334,1,,,,,,,,,,,,,,z,1,1.334,,,,,,,,0.52,0.03,0,0,0,,0,145,145,127,1,NINDY,HB,old,z,./images/NINDYHB.png,,,,,,,,,,,,,,,,,,,,,,,
,,,,,,,,,,,,,,,,,200671,19,2022-01-29_16h13.43.478,lexical_decision_task_DD_L3,2021.2.3,MacIntel,66.66666667,,,,,,,,,,,0.584,1,,,,,,,,,,,,,,z,1,0.584,,,,,,,,0.52,0.03,0,0,0,,0,146,146,132,1,SCIFF,C,old,z,./images/SCIFF.png,,,,,,,,,,,,,,,,,,,,,,,
,,,,,,,,,,,,,,,,,200671,19,2022-01-29_16h13.43.478,lexical_decision_task_DD_L3,2021.2.3,MacIntel,66.66666667,,,,,,,,,,,0.801,0,,,,,,,,,,,,,,z,0,0.801,,,,,,,,0.52,0.03,0,0,0,,0,147,147,38,1,LADDER,HB,old,m,./images/LADDERHB.png,,,,,,,,,,,,,,,,,,,,,,,
,,,,,,,,,,,,,,,,,200671,19,2022-01-29_16h13.43.478,lexical_decision_task_DD_L3,2021.2.3,MacIntel,66.66666667,,,,,,,,,,,0.684,1,,,,,,,,,,,,,,z,1,0.684,,,,,,,,0.52,0.03,0,0,0,,0,148,148,108,1,GRUET,C,old,z,./images/GRUET.png,,,,,,,,,,,,,,,,,,,,,,,
,,,,,,,,,,,,,,,,,200671,19,2022-01-29_16h13.43.478,lexical_decision_task_DD_L3,2021.2.3,MacIntel,66.66666667,,,,,,,,,,,0.617,1,,,,,,,,,,,,,,z,1,0.617,,,,,,,,0.52,0.03,0,0,0,,0,149,149,134,1,TROSS,LB,old,z,./images/TROSSLB.png,,,,,,,,,,,,,,,,,,,,,,,
,,,,,,,,,,,,,,,,,200671,19,2022-01-29_16h13.43.478,lexical_decision_task_DD_L3,2021.2.3,MacIntel,66.66666667,,,,,,,,,,,0.601,0,,,,,,,,,,,,,,z,0,0.601,,,,,,,,0.52,0.03,0,0,0,,0,150,150,72,1,NOOSE,LB,old,m,./images/NOOSELB.png,,,,,,,,,,,,,,,,,,,,,,,
,,,,,,,,,,,,,,,,,200671,19,2022-01-29_16h13.43.478,lexical_decision_task_DD_L3,2021.2.3,MacIntel,66.66666667,,,,,,,,,,,0.685,1,,,,,,,,,,,,,,m,1,0.685,,,,,,,,0.52,0.03,0,0,0,,0,151,151,27,1,ATTIC,LB,old,m,./images/ATTICLB.png,,,,,,,,,,,,,,,,,,,,,,,
,,,,,,,,,,,,,,,,,200671,19,2022-01-29_16h13.43.478,lexical_decision_task_DD_L3,2021.2.3,MacIntel,66.66666667,,,,,,,,,,,0.699,1,,,,,,,,,,,,,,z,1,0.699,,,,,,,,0.52,0.03,0,0,0,,0,152,152,149,1,VEASE,LB,old,z,./images/VEASELB.png,,,,,,,,,,,,,,,,,,,,,,,
,,,,,,,,,,,,,,,,,200671,19,2022-01-29_16h13.43.478,lexical_decision_task_DD_L3,2021.2.3,MacIntel,66.66666667,,,,,,,,,,,0.558,1,,,,,,,,,,,,,,z,1,0.558,,,,,,,,0.52,0.03,0,0,0,,0,153,153,102,1,DULLE,C,old,z,./images/DULLE.png,,,,,,,,,,,,,,,,,,,,,,,
,,,,,,,,,,,,,,,,,200671,19,2022-01-29_16h13.43.478,lexical_decision_task_DD_L3,2021.2.3,MacIntel,66.66666667,,,,,,,,,,,0.725,1,,,,,,,,,,,,,,m,1,0.725,,,,,,,,0.52,0.03,0,0,0,,0,154,154,5,1,PASTA,HB,old,m,./images/PASTAHB.png,,,,,,,,,,,,,,,,,,,,,,,
,,,,,,,,,,,,,,,,,200671,19,2022-01-29_16h13.43.478,lexical_decision_task_DD_L3,2021.2.3,MacIntel,66.66666667,,,,,,,,,,,0.651,1,,,,,,,,,,,,,,z,1,0.651,,,,,,,,0.52,0.03,0,0,0,,0,155,155,138,1,PLICE,C,old,z,./images/PLICE.png,,,,,,,,,,,,,,,,,,,,,,,
,,,,,,,,,,,,,,,,,200671,19,2022-01-29_16h13.43.478,lexical_decision_task_DD_L3,2021.2.3,MacIntel,66.66666667,,,,,,,,,,,0.636,1,,,,,,,,,,,,,,m,1,0.636,,,,,,,,0.52,0.03,0,0,0,,0,156,156,57,1,MOOSE,LB,old,m,./images/MOOSELB.png,,,,,,,,,,,,,,,,,,,,,,,
,,,,,,,,,,,,,,,,,200671,19,2022-01-29_16h13.43.478,lexical_decision_task_DD_L3,2021.2.3,MacIntel,66.66666667,,,,,,,,,,,0.617,1,,,,,,,,,,,,,,z,1,0.617,,,,,,,,0.52,0.03,0,0,0,,0,157,157,111,1,HOSSE,C,old,z,./images/HOSSE.png,,,,,,,,,,,,,,,,,,,,,,,
,,,,,,,,,,,,,,,,,200671,19,2022-01-29_16h13.43.478,lexical_decision_task_DD_L3,2021.2.3,MacIntel,66.66666667,,,,,,,,,,,0.718,1,,,,,,,,,,,,,,z,1,0.718,,,,,,,,0.52,0.03,0,0,0,,0,158,158,112,1,MYING,HB,old,z,./images/MYINGHB.png,,,,,,,,,,,,,,,,,,,,,,,
,,,,,,,,,,,,,,,,,200671,19,2022-01-29_16h13.43.478,lexical_decision_task_DD_L3,2021.2.3,MacIntel,66.66666667,,,,,,,,,,,0.885,1,,,,,,,,,,,,,,z,1,0.885,,,,,,,,0.52,0.03,0,0,0,,0,159,159,129,1,PRANS,C,old,z,./images/PRANS.png,,,,,,,,,,,,,,,,,,,,,,,
,,,,,,,,,,,,,,,,,200671,19,2022-01-29_16h13.43.478,lexical_decision_task_DD_L3,2021.2.3,MacIntel,66.66666667,,,,,,,,,,,0.584,1,,,,,,,,,,,,,,m,1,0.584,,,,,,,,0.52,0.03,0,0,0,,0,160,160,48,1,SPORT,LB,old,m,./images/SPORTLB.png,,,,,,,,,,,,,,,,,,,,,,,
,,,,,,,,,,,,,,,,,200671,19,2022-01-29_16h13.43.478,lexical_decision_task_DD_L3,2021.2.3,MacIntel,66.66666667,,,,,,,,,,,0.584,0,,,,,,,,,,,,,,z,0,0.584,,,,,,,,0.52,0.03,0,0,0,,0,161,161,45,1,KITTEN,LB,old,m,./images/KITTENLB.png,,,,,,,,,,,,,,,,,,,,,,,
,,,,,,,,,,,,,,,,,200671,19,2022-01-29_16h13.43.478,lexical_decision_task_DD_L3,2021.2.3,MacIntel,66.66666667,,,,,,,,,,,0.701,1,,,,,,,,,,,,,,z,1,0.701,,,,,,,,0.52,0.03,0,0,0,,0,162,162,143,1,MONGS,LB,old,z,./images/MONGSLB.png,,,,,,,,,,,,,,,,,,,,,,,
,,,,,,,,,,,,,,,,,200671,19,2022-01-29_16h13.43.478,lexical_decision_task_DD_L3,2021.2.3,MacIntel,66.66666667,,,,,,,,,,,0.75,1,,,,,,,,,,,,,,m,1,0.75,,,,,,,,0.52,0.03,0,0,0,,0,163,163,21,1,KIDNEY,LB,old,m,./images/KIDNEYLB.png,,,,,,,,,,,,,,,,,,,,,,,
,,,,,,,,,,,,,,,,,200671,19,2022-01-29_16h13.43.478,lexical_decision_task_DD_L3,2021.2.3,MacIntel,66.66666667,,,,,,,,,,,0.466,1,,,,,,,,,,,,,,m,1,0.466,,,,,,,,0.52,0.03,0,0,0,,0,164,164,3,1,FINGER,LB,old,m,./images/FINGERLB.png,,,,,,,,,,,,,,,,,,,,,,,
,,,,,,,,,,,,,,,,,200671,19,2022-01-29_16h13.43.478,lexical_decision_task_DD_L3,2021.2.3,MacIntel,66.66666667,,,,,,,,,,,0.617,0,,,,,,,,,,,,,,z,0,0.617,,,,,,,,0.52,0.03,0,0,0,,0,165,165,44,1,LIZARD,HB,old,m,./images/LIZARDHB.png,,,,,,,,,,,,,,,,,,,,,,,
,,,,,,,,,,,,,,,,,200671,19,2022-01-29_16h13.43.478,lexical_decision_task_DD_L3,2021.2.3,MacIntel,66.66666667,,,,,,,,,,,0.867,0,,,,,,,,,,,,,,m,0,0.867,,,,,,,,0.52,0.03,0,0,0,,0,166,166,165,1,TROWN,C,old,z,./images/TROWN.png,,,,,,,,,,,,,,,,,,,,,,,
,,,,,,,,,,,,,,,,,200671,19,2022-01-29_16h13.43.478,lexical_decision_task_DD_L3,2021.2.3,MacIntel,66.66666667,,,,,,,,,,,1.053,1,,,,,,,,,,,,,,z,1,1.053,,,,,,,,0.52,0.03,0,0,0,,0,167,167,162,1,LEICH,C,old,z,./images/LEICH.png,,,,,,,,,,,,,,,,,,,,,,,
,-0.004444444,-0.408888889,1,0,0,instr_done_button,,,,,,1,test,"In the next phase you will be presented with the words from the the first phase. Your job is to decide whether you remember seeing the word or not. If you remember seeing the word press ""old"" or type ""m"". If you do not remember seeing the word press ""new"" or type ""z"". Please press the space bar or click on continue to begin. ",,,200671,19,2022-01-29_16h13.43.478,lexical_decision_task_DD_L3,2021.2.3,MacIntel,66.66666667,,,,,,,,,,,,,,,,,,,,,,,,,,,,,,,,,,,,,,,,,,,,,,,,,,,,,0,0,0,0,1,,,,,,,,,,,,,,,,,
,0.094444444,-0.388888889,1,0,0,instr_done_button,,,,,,1,test,"In the next phase you will be presented with the words from the the first phase. Your job is to decide whether you remember seeing the word or not. If you remember seeing the word press ""old"" or type ""m"". If you do not remember seeing the word press ""new"" or type ""z"". Please press the space bar or click on continue to begin. ",,,200671,19,2022-01-29_16h13.43.478,lexical_decision_task_DD_L3,2021.2.3,MacIntel,66.66666667,,,,,,,,,,,,,,,,,,,,,,,,,,,,,,,,,,,,,,,,,,,,,,,,,,,,,1,0,1,0,1,,,,,,,,,,,,,,,,,
,0.018888889,-0.374444444,1,0,0,instr_done_button,,,,,,1,test,"In the next phase you will be presented with the words from the the first phase. Your job is to decide whether you remember seeing the word or not. If you remember seeing the word press ""old"" or type ""m"". If you do not remember seeing the word press ""new"" or type ""z"". Please press the space bar or click on continue to begin. ",,,200671,19,2022-01-29_16h13.43.478,lexical_decision_task_DD_L3,2021.2.3,MacIntel,66.66666667,,,,,,,,,,,,,,,,,,,,,,,,,,,,,,,,,,,,,,,,,,,,,,,,,,,,,2,0,2,0,1,,,,,,,,,,,,,,,,,
space,0.016666667,-0.374444444,0,0,0,,,,,,,1,test,"In the next phase you will be presented with the words from the the first phase. Your job is to decide whether you remember seeing the word or not. If you remember seeing the word press ""old"" or type ""m"". If you do not remember seeing the word press ""new"" or type ""z"". Please press the space bar or click on continue to begin. ",,,200671,19,2022-01-29_16h13.43.478,lexical_decision_task_DD_L3,2021.2.3,MacIntel,66.66666667,,,,,,,,,,,,,,,,,,,,,,,,,,,,,,,,,,,,,,,,,,,,,,,,,,,,,3,0,3,0,1,0.983,,,,,,,,,,,,,,,,
,0.036666667,-0.391111111,1,0,0,instr_done_button,,,,,,1,test,"In the next phase you will be presented with the words from the the first phase. Your job is to decide whether you remember seeing the word or not. If you remember seeing the word press ""old"" or type ""m"". If you do not remember seeing the word press ""new"" or type ""z"". Please press the space bar or click on continue to begin. ",,,200671,19,2022-01-29_16h13.43.478,lexical_decision_task_DD_L3,2021.2.3,MacIntel,66.66666667,,,,,,,,,,,,,,,,,,,,,,,,,,,,,,,,,,,,,,,,,,,,,,,,,,,,,4,0,4,0,1,,,,,,,,,,,,,,,,,
,,,,,,,,,,,,,,,,,200671,19,2022-01-29_16h13.43.478,lexical_decision_task_DD_L3,2021.2.3,MacIntel,66.66666667,,,,,,,,,,,2.857,0,,,,,,,,,,,,,,,,,,,,,,,,0.798888889,0.252222222,0,0,0,,,,,,,MELON,C,m,m,./images/MELON.png,,,,,,,,z,0,2.857,,,,,,,,0,0,0,22,1,
,,,,,,,,,,,,,,,,,200671,19,2022-01-29_16h13.43.478,lexical_decision_task_DD_L3,2021.2.3,MacIntel,66.66666667,,,,,,,,,,,1.43,1,,,,,,,,,,,,,,,,,,,,,,,,0.798888889,0.252222222,0,0,0,,,,,,,BAMBOO,HB,z,m,./images/BAMBOOHB.png,,,,,,,,z,1,1.43,,,,,,,,0,1,1,89,1,
,,,,,,,,,,,,,,,,,200671,19,2022-01-29_16h13.43.478,lexical_decision_task_DD_L3,2021.2.3,MacIntel,66.66666667,,,,,,,,,,,2.515,0,,,,,,,,,,,,,,,,,,,,,,,,0.798888889,0.252222222,0,0,0,,,,,,,FENCE,HB,z,m,./images/FENCEHB.png,,,,,,,,m,0,2.515,,,,,,,,0,2,2,98,1,
,,,,,,,,,,,,,,,,,200671,19,2022-01-29_16h13.43.478,lexical_decision_task_DD_L3,2021.2.3,MacIntel,66.66666667,,,,,,,,,,,0.672,1,,,,,,,,,,,,,,,,,,,,,,,,0.798888889,0.252222222,0,0,0,,,,,,,KITTEN,LB,m,m,./images/KITTENLB.png,,,,,,,,m,1,0.672,,,,,,,,0,3,3,45,1,
,,,,,,,,,,,,,,,,,200671,19,2022-01-29_16h13.43.478,lexical_decision_task_DD_L3,2021.2.3,MacIntel,66.66666667,,,,,,,,,,,1.35,1,,,,,,,,,,,,,,,,,,,,,,,,0.798888889,0.235555556,0,0,0,,,,,,,SAUNA,LB,z,m,./images/SAUNALB.png,,,,,,,,z,1,1.35,,,,,,,,0,4,4,117,1,
,,,,,,,,,,,,,,,,,200671,19,2022-01-29_16h13.43.478,lexical_decision_task_DD_L3,2021.2.3,MacIntel,66.66666667,,,,,,,,,,,0.665,1,,,,,,,,,,,,,,,,,,,,,,,,0.798888889,0.235555556,0,0,0,,,,,,,FLESH,LB,z,m,./images/FLESHLB.png,,,,,,,,z,1,0.665,,,,,,,,0,5,5,108,1,
,,,,,,,,,,,,,,,,,200671,19,2022-01-29_16h13.43.478,lexical_decision_task_DD_L3,2021.2.3,MacIntel,66.66666667,,,,,,,,,,,2.097,1,,,,,,,,,,,,,,,,,,,,,,,,0.798888889,0.235555556,0,0,0,,,,,,,HEATER,HB,z,m,./images/HEATERHB.png,,,,,,,,z,1,2.097,,,,,,,,0,6,6,140,1,
,,,,,,,,,,,,,,,,,200671,19,2022-01-29_16h13.43.478,lexical_decision_task_DD_L3,2021.2.3,MacIntel,66.66666667,,,,,,,,,,,1.165,1,,,,,,,,,,,,,,,,,,,,,,,,0.798888889,0.235555556,0,0,0,,,,,,,BAKER,LB,z,m,./images/BAKERLB.png,,,,,,,,z,1,1.165,,,,,,,,0,7,7,147,1,
,,,,,,,,,,,,,,,,,200671,19,2022-01-29_16h13.43.478,lexical_decision_task_DD_L3,2021.2.3,MacIntel,66.66666667,,,,,,,,,,,0.781,1,,,,,,,,,,,,,,,,,,,,,,,,0.798888889,0.235555556,0,0,0,,,,,,,CLOWN,C,z,m,./images/CLOWN.png,,,,,,,,z,1,0.781,,,,,,,,0,8,8,106,1,
,,,,,,,,,,,,,,,,,200671,19,2022-01-29_16h13.43.478,lexical_decision_task_DD_L3,2021.2.3,MacIntel,66.66666667,,,,,,,,,,,1.131,1,,,,,,,,,,,,,,,,,,,,,,,,0.798888889,0.235555556,0,0,0,,,,,,,PARCEL,LB,z,m,./images/PARCELLB.png,,,,,,,,z,1,1.131,,,,,,,,0,9,9,102,1,
,,,,,,,,,,,,,,,,,200671,19,2022-01-29_16h13.43.478,lexical_decision_task_DD_L3,2021.2.3,MacIntel,66.66666667,,,,,,,,,,,0.765,1,,,,,,,,,,,,,,,,,,,,,,,,0.798888889,0.235555556,0,0,0,,,,,,,BUNNY,C,z,m,./images/BUNNY.png,,,,,,,,z,1,0.765,,,,,,,,0,10,10,97,1,
,,,,,,,,,,,,,,,,,200671,19,2022-01-29_16h13.43.478,lexical_decision_task_DD_L3,2021.2.3,MacIntel,66.66666667,,,,,,,,,,,1.58,1,,,,,,,,,,,,,,,,,,,,,,,,0.798888889,0.235555556,0,0,0,,,,,,,CASINO,C,z,m,./images/CASINO.png,,,,,,,,z,1,1.58,,,,,,,,0,11,11,112,1,
,,,,,,,,,,,,,,,,,200671,19,2022-01-29_16h13.43.478,lexical_decision_task_DD_L3,2021.2.3,MacIntel,66.66666667,,,,,,,,,,,1.097,1,,,,,,,,,,,,,,,,,,,,,,,,0.798888889,0.235555556,0,0,0,,,,,,,BURIAL,HB,m,m,./images/BURIALHB.png,,,,,,,,m,1,1.097,,,,,,,,0,12,12,59,1,
,,,,,,,,,,,,,,,,,200671,19,2022-01-29_16h13.43.478,lexical_decision_task_DD_L3,2021.2.3,MacIntel,66.66666667,,,,,,,,,,,0.647,1,,,,,,,,,,,,,,,,,,,,,,,,0.798888889,0.235555556,0,0,0,,,,,,,SWEAT,LB,m,m,./images/SWEATLB.png,,,,,,,,m,1,0.647,,,,,,,,0,13,13,66,1,
,,,,,,,,,,,,,,,,,200671,19,2022-01-29_16h13.43.478,lexical_decision_task_DD_L3,2021.2.3,MacIntel,66.66666667,,,,,,,,,,,0.818,1,,,,,,,,,,,,,,,,,,,,,,,,0.798888889,0.235555556,0,0,0,,,,,,,MALLET,HB,m,m,./images/MALLETHB.png,,,,,,,,m,1,0.818,,,,,,,,0,14,14,50,1,
,,,,,,,,,,,,,,,,,200671,19,2022-01-29_16h13.43.478,lexical_decision_task_DD_L3,2021.2.3,MacIntel,66.66666667,,,,,,,,,,,0.531,0,,,,,,,,,,,,,,,,,,,,,,,,0.798888889,0.235555556,0,0,0,,,,,,,SAUCE,LB,z,m,./images/SAUCELB.png,,,,,,,,m,0,0.531,,,,,,,,0,15,15,135,1,
,,,,,,,,,,,,,,,,,200671,19,2022-01-29_16h13.43.478,lexical_decision_task_DD_L3,2021.2.3,MacIntel,66.66666667,,,,,,,,,,,0.748,1,,,,,,,,,,,,,,,,,,,,,,,,0.798888889,0.235555556,0,0,0,,,,,,,DESERT,C,z,m,./images/DESERT.png,,,,,,,,z,1,0.748,,,,,,,,0,16,16,136,1,
,,,,,,,,,,,,,,,,,200671,19,2022-01-29_16h13.43.478,lexical_decision_task_DD_L3,2021.2.3,MacIntel,66.66666667,,,,,,,,,,,0.849,1,,,,,,,,,,,,,,,,,,,,,,,,0.798888889,0.235555556,0,0,0,,,,,,,GREASE,LB,m,m,./images/GREASELB.png,,,,,,,,m,1,0.849,,,,,,,,0,17,17,15,1,
,,,,,,,,,,,,,,,,,200671,19,2022-01-29_16h13.43.478,lexical_decision_task_DD_L3,2021.2.3,MacIntel,66.66666667,,,,,,,,,,,0.88,1,,,,,,,,,,,,,,,,,,,,,,,,0.798888889,0.235555556,0,0,0,,,,,,,STAIN,LB,z,m,./images/STAINLB.png,,,,,,,,z,1,0.88,,,,,,,,0,18,18,90,1,
,,,,,,,,,,,,,,,,,200671,19,2022-01-29_16h13.43.478,lexical_decision_task_DD_L3,2021.2.3,MacIntel,66.66666667,,,,,,,,,,,0.582,1,,,,,,,,,,,,,,,,,,,,,,,,0.798888889,0.235555556,0,0,0,,,,,,,PIMPLE,HB,m,m,./images/PIMPLEHB.png,,,,,,,,m,1,0.582,,,,,,,,0,19,19,71,1,
,,,,,,,,,,,,,,,,,200671,19,2022-01-29_16h13.43.478,lexical_decision_task_DD_L3,2021.2.3,MacIntel,66.66666667,,,,,,,,,,,1.5,1,,,,,,,,,,,,,,,,,,,,,,,,0.798888889,0.235555556,0,0,0,,,,,,,ALLEY,C,z,m,./images/ALLEY.png,,,,,,,,z,1,1.5,,,,,,,,0,20,20,139,1,
,,,,,,,,,,,,,,,,,200671,19,2022-01-29_16h13.43.478,lexical_decision_task_DD_L3,2021.2.3,MacIntel,66.66666667,,,,,,,,,,,0.747,1,,,,,,,,,,,,,,,,,,,,,,,,0.798888889,0.235555556,0,0,0,,,,,,,BABOON,C,m,m,./images/BABOON.png,,,,,,,,m,1,0.747,,,,,,,,0,21,21,58,1,
,,,,,,,,,,,,,,,,,200671,19,2022-01-29_16h13.43.478,lexical_decision_task_DD_L3,2021.2.3,MacIntel,66.66666667,,,,,,,,,,,0.916,1,,,,,,,,,,,,,,,,,,,,,,,,0.798888889,0.235555556,0,0,0,,,,,,,GRAPE,C,z,m,./images/GRAPE.png,,,,,,,,z,1,0.916,,,,,,,,0,22,22,100,1,
,,,,,,,,,,,,,,,,,200671,19,2022-01-29_16h13.43.478,lexical_decision_task_DD_L3,2021.2.3,MacIntel,66.66666667,,,,,,,,,,,2.163,0,,,,,,,,,,,,,,,,,,,,,,,,0.798888889,0.235555556,0,0,0,,,,,,,GRANNY,HB,z,m,./images/GRANNYHB.png,,,,,,,,m,0,2.163,,,,,,,,0,23,23,104,1,
,,,,,,,,,,,,,,,,,200671,19,2022-01-29_16h13.43.478,lexical_decision_task_DD_L3,2021.2.3,MacIntel,66.66666667,,,,,,,,,,,0.9,1,,,,,,,,,,,,,,,,,,,,,,,,0.798888889,0.235555556,0,0,0,,,,,,,JUMPER,HB,z,m,./images/JUMPERHB.png,,,,,,,,z,1,0.9,,,,,,,,0,24,24,158,1,
,,,,,,,,,,,,,,,,,200671,19,2022-01-29_16h13.43.478,lexical_decision_task_DD_L3,2021.2.3,MacIntel,66.66666667,,,,,,,,,,,1.298,1,,,,,,,,,,,,,,,,,,,,,,,,0.798888889,0.235555556,0,0,0,,,,,,,JUNGLE,HB,m,m,./images/JUNGLEHB.png,,,,,,,,m,1,1.298,,,,,,,,0,25,25,83,1,
,,,,,,,,,,,,,,,,,200671,19,2022-01-29_16h13.43.478,lexical_decision_task_DD_L3,2021.2.3,MacIntel,66.66666667,,,,,,,,,,,0.699,1,,,,,,,,,,,,,,,,,,,,,,,,0.798888889,0.235555556,0,0,0,,,,,,,PAINT,C,m,m,./images/PAINT.png,,,,,,,,m,1,0.699,,,,,,,,0,26,26,7,1,
,,,,,,,,,,,,,,,,,200671,19,2022-01-29_16h13.43.478,lexical_decision_task_DD_L3,2021.2.3,MacIntel,66.66666667,,,,,,,,,,,0.8,1,,,,,,,,,,,,,,,,,,,,,,,,0.798888889,0.235555556,0,0,0,,,,,,,TIGER,C,z,m,./images/TIGER.png,,,,,,,,z,1,0.8,,,,,,,,0,27,27,121,1,
,,,,,,,,,,,,,,,,,200671,19,2022-01-29_16h13.43.478,lexical_decision_task_DD_L3,2021.2.3,MacIntel,66.66666667,,,,,,,,,,,1.131,1,,,,,,,,,,,,,,,,,,,,,,,,0.798888889,0.235555556,0,0,0,,,,,,,BIRTH,C,m,m,./images/BIRTH.png,,,,,,,,m,1,1.131,,,,,,,,0,28,28,37,1,
,,,,,,,,,,,,,,,,,200671,19,2022-01-29_16h13.43.478,lexical_decision_task_DD_L3,2021.2.3,MacIntel,66.66666667,,,,,,,,,,,0.748,1,,,,,,,,,,,,,,,,,,,,,,,,0.798888889,0.235555556,0,0,0,,,,,,,MOOSE,LB,m,m,./images/MOOSELB.png,,,,,,,,m,1,0.748,,,,,,,,0,29,29,57,1,
,,,,,,,,,,,,,,,,,200671,19,2022-01-29_16h13.43.478,lexical_decision_task_DD_L3,2021.2.3,MacIntel,66.66666667,,,,,,,,,,,1.165,1,,,,,,,,,,,,,,,,,,,,,,,,0.798888889,0.235555556,0,0,0,,,,,,,COLLAR,LB,z,m,./images/COLLARLB.png,,,,,,,,z,1,1.165,,,,,,,,0,30,30,99,1,
,,,,,,,,,,,,,,,,,200671,19,2022-01-29_16h13.43.478,lexical_decision_task_DD_L3,2021.2.3,MacIntel,66.66666667,,,,,,,,,,,0.599,1,,,,,,,,,,,,,,,,,,,,,,,,0.798888889,0.235555556,0,0,0,,,,,,,ONION,LB,m,m,./images/ONIONLB.png,,,,,,,,m,1,0.599,,,,,,,,0,31,31,51,1,
,,,,,,,,,,,,,,,,,200671,19,2022-01-29_16h13.43.478,lexical_decision_task_DD_L3,2021.2.3,MacIntel,66.66666667,,,,,,,,,,,0.732,1,,,,,,,,,,,,,,,,,,,,,,,,0.798888889,0.235555556,0,0,0,,,,,,,CURRY,LB,z,m,./images/CURRYLB.png,,,,,,,,z,1,0.732,,,,,,,,0,32,32,144,1,
,,,,,,,,,,,,,,,,,200671,19,2022-01-29_16h13.43.478,lexical_decision_task_DD_L3,2021.2.3,MacIntel,66.66666667,,,,,,,,,,,1.065,1,,,,,,,,,,,,,,,,,,,,,,,,0.798888889,0.235555556,0,0,0,,,,,,,PICKLE,HB,m,m,./images/PICKLEHB.png,,,,,,,,m,1,1.065,,,,,,,,0,33,33,14,1,
,,,,,,,,,,,,,,,,,200671,19,2022-01-29_16h13.43.478,lexical_decision_task_DD_L3,2021.2.3,MacIntel,66.66666667,,,,,,,,,,,0.764,1,,,,,,,,,,,,,,,,,,,,,,,,0.798888889,0.235555556,0,0,0,,,,,,,MUMMY,C,z,m,./images/MUMMY.png,,,,,,,,z,1,0.764,,,,,,,,0,34,34,130,1,
,,,,,,,,,,,,,,,,,200671,19,2022-01-29_16h13.43.478,lexical_decision_task_DD_L3,2021.2.3,MacIntel,66.66666667,,,,,,,,,,,0.865,1,,,,,,,,,,,,,,,,,,,,,,,,0.798888889,0.235555556,0,0,0,,,,,,,BROOM,LB,z,m,./images/BROOMLB.png,,,,,,,,z,1,0.865,,,,,,,,0,35,35,162,1,
,,,,,,,,,,,,,,,,,200671,19,2022-01-29_16h13.43.478,lexical_decision_task_DD_L3,2021.2.3,MacIntel,66.66666667,,,,,,,,,,,0.566,0,,,,,,,,,,,,,,,,,,,,,,,,0.798888889,0.235555556,0,0,0,,,,,,,NOOSE,LB,m,m,./images/NOOSELB.png,,,,,,,,z,0,0.566,,,,,,,,0,36,36,72,1,
,,,,,,,,,,,,,,,,,200671,19,2022-01-29_16h13.43.478,lexical_decision_task_DD_L3,2021.2.3,MacIntel,66.66666667,,,,,,,,,,,0.784,1,,,,,,,,,,,,,,,,,,,,,,,,0.798888889,0.235555556,0,0,0,,,,,,,PEBBLE,C,z,m,./images/PEBBLE.png,,,,,,,,z,1,0.784,,,,,,,,0,37,37,166,1,
,,,,,,,,,,,,,,,,,200671,19,2022-01-29_16h13.43.478,lexical_decision_task_DD_L3,2021.2.3,MacIntel,66.66666667,,,,,,,,,,,0.58,1,,,,,,,,,,,,,,,,,,,,,,,,0.798888889,0.235555556,0,0,0,,,,,,,SWING,C,m,m,./images/SWING.png,,,,,,,,m,1,0.58,,,,,,,,0,38,38,40,1,
,,,,,,,,,,,,,,,,,200671,19,2022-01-29_16h13.43.478,lexical_decision_task_DD_L3,2021.2.3,MacIntel,66.66666667,,,,,,,,,,,0.682,1,,,,,,,,,,,,,,,,,,,,,,,,0.798888889,0.235555556,0,0,0,,,,,,,TWINS,LB,m,m,./images/TWINSLB.png,,,,,,,,m,1,0.682,,,,,,,,0,39,39,60,1,
,,,,,,,,,,,,,,,,,200671,19,2022-01-29_16h13.43.478,lexical_decision_task_DD_L3,2021.2.3,MacIntel,66.66666667,,,,,,,,,,,0.581,1,,,,,,,,,,,,,,,,,,,,,,,,0.798888889,0.235555556,0,0,0,,,,,,,CANDY,LB,z,m,./images/CANDYLB.png,,,,,,,,z,1,0.581,,,,,,,,0,40,40,123,1,
,,,,,,,,,,,,,,,,,200671,19,2022-01-29_16h13.43.478,lexical_decision_task_DD_L3,2021.2.3,MacIntel,66.66666667,,,,,,,,,,,0.732,1,,,,,,,,,,,,,,,,,,,,,,,,0.798888889,0.235555556,0,0,0,space,,,,,,LAGOON,HB,z,m,./images/LAGOONHB.png,,,,,,,,z,1,0.732,,,,,,,,0,41,41,131,1,1.734
,,,,,,,,,,,,,,,,,200671,19,2022-01-29_16h13.43.478,lexical_decision_task_DD_L3,2021.2.3,MacIntel,66.66666667,,,,,,,,,,,0.998,0,,,,,,,,,,,,,,,,,,,,,,,,0.798888889,0.235555556,0,0,0,,,,,,,SKIING,HB,m,m,./images/SKIINGHB.png,,,,,,,,z,0,0.998,,,,,,,,0,42,42,17,1,
,,,,,,,,,,,,,,,,,200671,19,2022-01-29_16h13.43.478,lexical_decision_task_DD_L3,2021.2.3,MacIntel,66.66666667,,,,,,,,,,,0.671,0,,,,,,,,,,,,,,,,,,,,,,,,0.798888889,0.235555556,0,0,0,,,,,,,BANANA,C,z,m,./images/BANANA.png,,,,,,,,m,0,0.671,,,,,,,,0,43,43,154,1,
,,,,,,,,,,,,,,,,,200671,19,2022-01-29_16h13.43.478,lexical_decision_task_DD_L3,2021.2.3,MacIntel,66.66666667,,,,,,,,,,,0.798,1,,,,,,,,,,,,,,,,,,,,,,,,0.798888889,0.235555556,0,0,0,,,,,,,SCREW,LB,m,m,./images/SCREWLB.png,,,,,,,,m,1,0.798,,,,,,,,0,44,44,24,1,
,,,,,,,,,,,,,,,,,200671,19,2022-01-29_16h13.43.478,lexical_decision_task_DD_L3,2021.2.3,MacIntel,66.66666667,,,,,,,,,,,0.683,1,,,,,,,,,,,,,,,,,,,,,,,,0.798888889,0.235555556,0,0,0,,,,,,,SHELF,LB,m,m,./images/SHELFLB.png,,,,,,,,m,1,0.683,,,,,,,,0,45,45,39,1,
,,,,,,,,,,,,,,,,,200671,19,2022-01-29_16h13.43.478,lexical_decision_task_DD_L3,2021.2.3,MacIntel,66.66666667,,,,,,,,,,,0.701,1,,,,,,,,,,,,,,,,,,,,,,,,0.798888889,0.235555556,0,0,0,,,,,,,PEACH,HB,m,m,./images/PEACHHB.png,,,,,,,,m,1,0.701,,,,,,,,0,46,46,35,1,
,,,,,,,,,,,,,,,,,200671,19,2022-01-29_16h13.43.478,lexical_decision_task_DD_L3,2021.2.3,MacIntel,66.66666667,,,,,,,,,,,1.049,1,,,,,,,,,,,,,,,,,,,,,,,,0.798888889,0.235555556,0,0,0,,,,,,,CLIFF,HB,z,m,./images/CLIFFHB.png,,,,,,,,z,1,1.049,,,,,,,,0,47,47,92,1,
,,,,,,,,,,,,,,,,,200671,19,2022-01-29_16h13.43.478,lexical_decision_task_DD_L3,2021.2.3,MacIntel,66.66666667,,,,,,,,,,,0.849,0,,,,,,,,,,,,,,,,,,,,,,,,0.798888889,0.235555556,0,0,0,,,,,,,COUCH,HB,m,m,./images/COUCHHB.png,,,,,,,,z,0,0.849,,,,,,,,0,48,48,77,1,
,,,,,,,,,,,,,,,,,200671,19,2022-01-29_16h13.43.478,lexical_decision_task_DD_L3,2021.2.3,MacIntel,66.66666667,,,,,,,,,,,0.699,1,,,,,,,,,,,,,,,,,,,,,,,,0.798888889,0.235555556,0,0,0,,,,,,,JELLY,C,m,m,./images/JELLY.png,,,,,,,,m,1,0.699,,,,,,,,0,49,49,64,1,
,,,,,,,,,,,,,,,,,200671,19,2022-01-29_16h13.43.478,lexical_decision_task_DD_L3,2021.2.3,MacIntel,66.66666667,,,,,,,,,,,0.564,1,,,,,,,,,,,,,,,,,,,,,,,,0.798888889,0.235555556,0,0,0,,,,,,,MOTOR,C,m,m,./images/MOTOR.png,,,,,,,,m,1,0.564,,,,,,,,0,50,50,13,1,
,,,,,,,,,,,,,,,,,200671,19,2022-01-29_16h13.43.478,lexical_decision_task_DD_L3,2021.2.3,MacIntel,66.66666667,,,,,,,,,,,0.514,1,,,,,,,,,,,,,,,,,,,,,,,,0.798888889,0.235555556,0,0,0,,,,,,,CANDLE,C,m,m,./images/CANDLE.png,,,,,,,,m,1,0.514,,,,,,,,0,51,51,61,1,
,,,,,,,,,,,,,,,,,200671,19,2022-01-29_16h13.43.478,lexical_decision_task_DD_L3,2021.2.3,MacIntel,66.66666667,,,,,,,,,,,0.601,1,,,,,,,,,,,,,,,,,,,,,,,,0.798888889,0.235555556,0,0,0,,,,,,,CRATER,LB,z,m,./images/CRATERLB.png,,,,,,,,z,1,0.601,,,,,,,,0,52,52,87,1,
,,,,,,,,,,,,,,,,,200671,19,2022-01-29_16h13.43.478,lexical_decision_task_DD_L3,2021.2.3,MacIntel,66.66666667,,,,,,,,,,,0.615,0,,,,,,,,,,,,,,,,,,,,,,,,0.798888889,0.235555556,0,0,0,,,,,,,WALNUT,LB,z,m,./images/WALNUTLB.png,,,,,,,,m,0,0.615,,,,,,,,0,53,53,84,1,
,,,,,,,,,,,,,,,,,200671,19,2022-01-29_16h13.43.478,lexical_decision_task_DD_L3,2021.2.3,MacIntel,66.66666667,,,,,,,,,,,0.798,1,,,,,,,,,,,,,,,,,,,,,,,,0.798888889,0.235555556,0,0,0,,,,,,,PARADE,HB,z,m,./images/PARADEHB.png,,,,,,,,z,1,0.798,,,,,,,,0,54,54,101,1,
,,,,,,,,,,,,,,,,,200671,19,2022-01-29_16h13.43.478,lexical_decision_task_DD_L3,2021.2.3,MacIntel,66.66666667,,,,,,,,,,,0.698,1,,,,,,,,,,,,,,,,,,,,,,,,0.798888889,0.235555556,0,0,0,,,,,,,MUSCLE,C,m,m,./images/MUSCLE.png,,,,,,,,m,1,0.698,,,,,,,,0,55,55,4,1,
,,,,,,,,,,,,,,,,,200671,19,2022-01-29_16h13.43.478,lexical_decision_task_DD_L3,2021.2.3,MacIntel,66.66666667,,,,,,,,,,,0.948,0,,,,,,,,,,,,,,,,,,,,,,,,0.798888889,0.235555556,0,0,0,,,,,,,ARROW,LB,z,m,./images/ARROWLB.png,,,,,,,,m,0,0.948,,,,,,,,0,56,56,153,1,
,,,,,,,,,,,,,,,,,200671,19,2022-01-29_16h13.43.478,lexical_decision_task_DD_L3,2021.2.3,MacIntel,66.66666667,,,,,,,,,,,0.648,1,,,,,,,,,,,,,,,,,,,,,,,,0.798888889,0.235555556,0,0,0,,,,,,,BARREL,HB,m,m,./images/BARRELHB.png,,,,,,,,m,1,0.648,,,,,,,,0,57,57,32,1,
,,,,,,,,,,,,,,,,,200671,19,2022-01-29_16h13.43.478,lexical_decision_task_DD_L3,2021.2.3,MacIntel,66.66666667,,,,,,,,,,,0.586,0,,,,,,,,,,,,,,,,,,,,,,,,0.798888889,0.235555556,0,0,0,,,,,,,CHAIN,LB,z,m,./images/CHAINLB.png,,,,,,,,m,0,0.586,,,,,,,,0,58,58,126,1,
,,,,,,,,,,,,,,,,,200671,19,2022-01-29_16h13.43.478,lexical_decision_task_DD_L3,2021.2.3,MacIntel,66.66666667,,,,,,,,,,,0.631,1,,,,,,,,,,,,,,,,,,,,,,,,0.798888889,0.235555556,0,0,0,,,,,,,STRING,HB,m,m,./images/STRINGHB.png,,,,,,,,m,1,0.631,,,,,,,,0,59,59,41,1,
,,,,,,,,,,,,,,,,,200671,19,2022-01-29_16h13.43.478,lexical_decision_task_DD_L3,2021.2.3,MacIntel,66.66666667,,,,,,,,,,,0.914,1,,,,,,,,,,,,,,,,,,,,,,,,0.798888889,0.235555556,0,0,0,,,,,,,CANYON,C,m,m,./images/CANYON.png,,,,,,,,m,1,0.914,,,,,,,,0,60,60,34,1,
,,,,,,,,,,,,,,,,,200671,19,2022-01-29_16h13.43.478,lexical_decision_task_DD_L3,2021.2.3,MacIntel,66.66666667,,,,,,,,,,,0.713,0,,,,,,,,,,,,,,,,,,,,,,,,0.798888889,0.235555556,0,0,0,,,,,,,MAMMAL,HB,z,m,./images/MAMMALHB.png,,,,,,,,m,0,0.713,,,,,,,,0,61,61,146,1,
,,,,,,,,,,,,,,,,,200671,19,2022-01-29_16h13.43.478,lexical_decision_task_DD_L3,2021.2.3,MacIntel,66.66666667,,,,,,,,,,,0.631,1,,,,,,,,,,,,,,,,,,,,,,,,0.798888889,0.235555556,0,0,0,,,,,,,SPINE,HB,z,m,./images/SPINEHB.png,,,,,,,,z,1,0.631,,,,,,,,0,62,62,149,1,
,,,,,,,,,,,,,,,,,200671,19,2022-01-29_16h13.43.478,lexical_decision_task_DD_L3,2021.2.3,MacIntel,66.66666667,,,,,,,,,,,0.547,1,,,,,,,,,,,,,,,,,,,,,,,,0.798888889,0.235555556,0,0,0,,,,,,,BOXER,C,z,m,./images/BOXER.png,,,,,,,,z,1,0.547,,,,,,,,0,63,63,88,1,
,,,,,,,,,,,,,,,,,200671,19,2022-01-29_16h13.43.478,lexical_decision_task_DD_L3,2021.2.3,MacIntel,66.66666667,,,,,,,,,,,0.715,0,,,,,,,,,,,,,,,,,,,,,,,,0.798888889,0.235555556,0,0,0,,,,,,,FOLDER,LB,m,m,./images/FOLDERLB.png,,,,,,,,z,0,0.715,,,,,,,,0,64,64,42,1,
,,,,,,,,,,,,,,,,,200671,19,2022-01-29_16h13.43.478,lexical_decision_task_DD_L3,2021.2.3,MacIntel,66.66666667,,,,,,,,,,,1.134,1,,,,,,,,,,,,,,,,,,,,,,,,0.798888889,0.235555556,0,0,0,,,,,,,CHALK,C,z,m,./images/CHALK.png,,,,,,,,z,1,1.134,,,,,,,,0,65,65,109,1,
,,,,,,,,,,,,,,,,,200671,19,2022-01-29_16h13.43.478,lexical_decision_task_DD_L3,2021.2.3,MacIntel,66.66666667,,,,,,,,,,,0.95,1,,,,,,,,,,,,,,,,,,,,,,,,0.798888889,0.235555556,0,0,0,,,,,,,POSTER,HB,z,m,./images/POSTERHB.png,,,,,,,,z,1,0.95,,,,,,,,0,66,66,137,1,
,,,,,,,,,,,,,,,,,200671,19,2022-01-29_16h13.43.478,lexical_decision_task_DD_L3,2021.2.3,MacIntel,66.66666667,,,,,,,,,,,0.532,1,,,,,,,,,,,,,,,,,,,,,,,,0.798888889,0.235555556,0,0,0,,,,,,,BELLY,C,m,m,./images/BELLY.png,,,,,,,,m,1,0.532,,,,,,,,0,67,67,10,1,
,,,,,,,,,,,,,,,,,200671,19,2022-01-29_16h13.43.478,lexical_decision_task_DD_L3,2021.2.3,MacIntel,66.66666667,,,,,,,,,,,0.548,1,,,,,,,,,,,,,,,,,,,,,,,,0.798888889,0.235555556,0,0,0,,,,,,,CEMENT,HB,m,m,./images/CEMENTHB.png,,,,,,,,m,1,0.548,,,,,,,,0,68,68,74,1,
,,,,,,,,,,,,,,,,,200671,19,2022-01-29_16h13.43.478,lexical_decision_task_DD_L3,2021.2.3,MacIntel,66.66666667,,,,,,,,,,,1.031,0,,,,,,,,,,,,,,,,,,,,,,,,0.798888889,0.235555556,0,0,0,,,,,,,STEAK,C,z,m,./images/STEAK.png,,,,,,,,m,0,1.031,,,,,,,,0,69,69,115,1,
,,,,,,,,,,,,,,,,,200671,19,2022-01-29_16h13.43.478,lexical_decision_task_DD_L3,2021.2.3,MacIntel,66.66666667,,,,,,,,,,,0.648,1,,,,,,,,,,,,,,,,,,,,,,,,0.798888889,0.235555556,0,0,0,,,,,,,CRUST,C,m,m,./images/CRUST.png,,,,,,,,m,1,0.648,,,,,,,,0,70,70,79,1,
,,,,,,,,,,,,,,,,,200671,19,2022-01-29_16h13.43.478,lexical_decision_task_DD_L3,2021.2.3,MacIntel,66.66666667,,,,,,,,,,,0.655,1,,,,,,,,,,,,,,,,,,,,,,,,0.798888889,0.235555556,0,0,0,,,,,,,TORCH,HB,m,m,./images/TORCHHB.png,,,,,,,,m,1,0.655,,,,,,,,0,71,71,68,1,
,,,,,,,,,,,,,,,,,200671,19,2022-01-29_16h13.43.478,lexical_decision_task_DD_L3,2021.2.3,MacIntel,66.66666667,,,,,,,,,,,0.932,0,,,,,,,,,,,,,,,,,,,,,,,,0.798888889,0.235555556,0,0,0,,,,,,,BOILER,LB,z,m,./images/BOILERLB.png,,,,,,,,m,0,0.932,,,,,,,,0,72,72,120,1,
,,,,,,,,,,,,,,,,,200671,19,2022-01-29_16h13.43.478,lexical_decision_task_DD_L3,2021.2.3,MacIntel,66.66666667,,,,,,,,,,,0.831,1,,,,,,,,,,,,,,,,,,,,,,,,0.798888889,0.235555556,0,0,0,,,,,,,MONKEY,LB,z,m,./images/MONKEYLB.png,,,,,,,,z,1,0.831,,,,,,,,0,73,73,129,1,
,,,,,,,,,,,,,,,,,200671,19,2022-01-29_16h13.43.478,lexical_decision_task_DD_L3,2021.2.3,MacIntel,66.66666667,,,,,,,,,,,0.549,1,,,,,,,,,,,,,,,,,,,,,,,,0.798888889,0.235555556,0,0,0,,,,,,,PASTA,HB,m,m,./images/PASTAHB.png,,,,,,,,m,1,0.549,,,,,,,,0,74,74,5,1,
,,,,,,,,,,,,,,,,,200671,19,2022-01-29_16h13.43.478,lexical_decision_task_DD_L3,2021.2.3,MacIntel,66.66666667,,,,,,,,,,,0.834,0,,,,,,,,,,,,,,,,,,,,,,,,0.798888889,0.235555556,0,0,0,,,,,,,SHORE,LB,m,m,./images/SHORELB.png,,,,,,,,z,0,0.834,,,,,,,,0,75,75,12,1,
,,,,,,,,,,,,,,,,,200671,19,2022-01-29_16h13.43.478,lexical_decision_task_DD_L3,2021.2.3,MacIntel,66.66666667,,,,,,,,,,,0.955,1,,,,,,,,,,,,,,,,,,,,,,,,0.798888889,0.235555556,0,0,0,,,,,,,WAGON,C,z,m,./images/WAGON.png,,,,,,,,z,1,0.955,,,,,,,,0,76,76,91,1,
,,,,,,,,,,,,,,,,,200671,19,2022-01-29_16h13.43.478,lexical_decision_task_DD_L3,2021.2.3,MacIntel,66.66666667,,,,,,,,,,,0.949,1,,,,,,,,,,,,,,,,,,,,,,,,0.798888889,0.235555556,0,0,0,,,,,,,ENGINE,HB,z,m,./images/ENGINEHB.png,,,,,,,,z,1,0.949,,,,,,,,0,77,77,122,1,
,,,,,,,,,,,,,,,,,200671,19,2022-01-29_16h13.43.478,lexical_decision_task_DD_L3,2021.2.3,MacIntel,66.66666667,,,,,,,,,,,0.699,1,,,,,,,,,,,,,,,,,,,,,,,,0.798888889,0.235555556,0,0,0,,,,,,,BUBBLE,HB,z,m,./images/BUBBLEHB.png,,,,,,,,z,1,0.699,,,,,,,,0,78,78,155,1,
,,,,,,,,,,,,,,,,,200671,19,2022-01-29_16h13.43.478,lexical_decision_task_DD_L3,2021.2.3,MacIntel,66.66666667,,,,,,,,,,,0.781,1,,,,,,,,,,,,,,,,,,,,,,,,0.798888889,0.235555556,0,0,0,,,,,,,LLAMA,HB,z,m,./images/LLAMAHB.png,,,,,,,,z,1,0.781,,,,,,,,0,79,79,119,1,
,,,,,,,,,,,,,,,,,200671,19,2022-01-29_16h13.43.478,lexical_decision_task_DD_L3,2021.2.3,MacIntel,66.66666667,,,,,,,,,,,0.799,0,,,,,,,,,,,,,,,,,,,,,,,,0.798888889,0.235555556,0,0,0,,,,,,,VALLEY,HB,z,m,./images/VALLEYHB.png,,,,,,,,m,0,0.799,,,,,,,,0,80,80,152,1,
,,,,,,,,,,,,,,,,,200671,19,2022-01-29_16h13.43.478,lexical_decision_task_DD_L3,2021.2.3,MacIntel,66.66666667,,,,,,,,,,,0.715,1,,,,,,,,,,,,,,,,,,,,,,,,0.798888889,0.235555556,0,0,0,,,,,,,BUTTER,LB,z,m,./images/BUTTERLB.png,,,,,,,,z,1,0.715,,,,,,,,0,81,81,111,1,
,,,,,,,,,,,,,,,,,200671,19,2022-01-29_16h13.43.478,lexical_decision_task_DD_L3,2021.2.3,MacIntel,66.66666667,,,,,,,,,,,0.499,1,,,,,,,,,,,,,,,,,,,,,,,,0.798888889,0.235555556,0,0,0,,,,,,,HOCKEY,HB,z,m,./images/HOCKEYHB.png,,,,,,,,z,1,0.499,,,,,,,,0,82,82,116,1,
,,,,,,,,,,,,,,,,,200671,19,2022-01-29_16h13.43.478,lexical_decision_task_DD_L3,2021.2.3,MacIntel,66.66666667,,,,,,,,,,,0.564,1,,,,,,,,,,,,,,,,,,,,,,,,0.798888889,0.235555556,0,0,0,space,,,,,,RULER,C,z,m,./images/RULER.png,,,,,,,,z,1,0.564,,,,,,,,0,83,83,163,1,1.084
,,,,,,,,,,,,,,,,,200671,19,2022-01-29_16h13.43.478,lexical_decision_task_DD_L3,2021.2.3,MacIntel,66.66666667,,,,,,,,,,,1.015,1,,,,,,,,,,,,,,,,,,,,,,,,0.798888889,0.235555556,0,0,0,,,,,,,THROAT,LB,m,m,./images/THROATLB.png,,,,,,,,m,1,1.015,,,,,,,,0,84,84,36,1,
,,,,,,,,,,,,,,,,,200671,19,2022-01-29_16h13.43.478,lexical_decision_task_DD_L3,2021.2.3,MacIntel,66.66666667,,,,,,,,,,,0.915,1,,,,,,,,,,,,,,,,,,,,,,,,0.798888889,0.235555556,0,0,0,,,,,,,MOSQUE,C,m,m,./images/MOSQUE.png,,,,,,,,m,1,0.915,,,,,,,,0,85,85,43,1,
,,,,,,,,,,,,,,,,,200671,19,2022-01-29_16h13.43.478,lexical_decision_task_DD_L3,2021.2.3,MacIntel,66.66666667,,,,,,,,,,,0.615,1,,,,,,,,,,,,,,,,,,,,,,,,0.798888889,0.235555556,0,0,0,,,,,,,CRADLE,HB,m,m,./images/CRADLEHB.png,,,,,,,,m,1,0.615,,,,,,,,0,86,86,20,1,
,,,,,,,,,,,,,,,,,200671,19,2022-01-29_16h13.43.478,lexical_decision_task_DD_L3,2021.2.3,MacIntel,66.66666667,,,,,,,,,,,0.737,1,,,,,,,,,,,,,,,,,,,,,,,,0.798888889,0.235555556,0,0,0,,,,,,,MIDGET,C,z,m,./images/MIDGET.png,,,,,,,,z,1,0.737,,,,,,,,0,87,87,160,1,
,,,,,,,,,,,,,,,,,200671,19,2022-01-29_16h13.43.478,lexical_decision_task_DD_L3,2021.2.3,MacIntel,66.66666667,,,,,,,,,,,0.564,1,,,,,,,,,,,,,,,,,,,,,,,,0.798888889,0.235555556,0,0,0,,,,,,,LADDER,HB,m,m,./images/LADDERHB.png,,,,,,,,m,1,0.564,,,,,,,,0,88,88,38,1,
,,,,,,,,,,,,,,,,,200671,19,2022-01-29_16h13.43.478,lexical_decision_task_DD_L3,2021.2.3,MacIntel,66.66666667,,,,,,,,,,,0.648,1,,,,,,,,,,,,,,,,,,,,,,,,0.798888889,0.235555556,0,0,0,,,,,,,GARDEN,C,z,m,./images/GARDEN.png,,,,,,,,z,1,0.648,,,,,,,,0,89,89,94,1,
,,,,,,,,,,,,,,,,,200671,19,2022-01-29_16h13.43.478,lexical_decision_task_DD_L3,2021.2.3,MacIntel,66.66666667,,,,,,,,,,,0.598,1,,,,,,,,,,,,,,,,,,,,,,,,0.798888889,0.235555556,0,0,0,,,,,,,BLOKE,LB,z,m,./images/BLOKELB.png,,,,,,,,z,1,0.598,,,,,,,,0,90,90,96,1,
,,,,,,,,,,,,,,,,,200671,19,2022-01-29_16h13.43.478,lexical_decision_task_DD_L3,2021.2.3,MacIntel,66.66666667,,,,,,,,,,,0.765,1,,,,,,,,,,,,,,,,,,,,,,,,0.798888889,0.235555556,0,0,0,,,,,,,STORM,LB,m,m,./images/STORMLB.png,,,,,,,,m,1,0.765,,,,,,,,0,91,91,30,1,
,,,,,,,,,,,,,,,,,200671,19,2022-01-29_16h13.43.478,lexical_decision_task_DD_L3,2021.2.3,MacIntel,66.66666667,,,,,,,,,,,0.58,1,,,,,,,,,,,,,,,,,,,,,,,,0.798888889,0.235555556,0,0,0,,,,,,,DRUMS,C,m,m,./images/DRUMS.png,,,,,,,,m,1,0.58,,,,,,,,0,92,92,49,1,
,,,,,,,,,,,,,,,,,200671,19,2022-01-29_16h13.43.478,lexical_decision_task_DD_L3,2021.2.3,MacIntel,66.66666667,,,,,,,,,,,0.798,1,,,,,,,,,,,,,,,,,,,,,,,,0.798888889,0.235555556,0,0,0,,,,,,,CHERRY,LB,z,m,./images/CHERRYLB.png,,,,,,,,z,1,0.798,,,,,,,,0,93,93,138,1,
,,,,,,,,,,,,,,,,,200671,19,2022-01-29_16h13.43.478,lexical_decision_task_DD_L3,2021.2.3,MacIntel,66.66666667,,,,,,,,,,,0.751,1,,,,,,,,,,,,,,,,,,,,,,,,0.798888889,0.235555556,0,0,0,,,,,,,ARTIST,C,z,m,./images/ARTIST.png,,,,,,,,z,1,0.751,,,,,,,,0,94,94,145,1,
,,,,,,,,,,,,,,,,,200671,19,2022-01-29_16h13.43.478,lexical_decision_task_DD_L3,2021.2.3,MacIntel,66.66666667,,,,,,,,,,,0.681,1,,,,,,,,,,,,,,,,,,,,,,,,0.798888889,0.235555556,0,0,0,,,,,,,STOOL,C,z,m,./images/STOOL.png,,,,,,,,z,1,0.681,,,,,,,,0,95,95,127,1,
,,,,,,,,,,,,,,,,,200671,19,2022-01-29_16h13.43.478,lexical_decision_task_DD_L3,2021.2.3,MacIntel,66.66666667,,,,,,,,,,,0.848,0,,,,,,,,,,,,,,,,,,,,,,,,0.798888889,0.235555556,0,0,0,,,,,,,SNACK,C,m,m,./images/SNACK.png,,,,,,,,z,0,0.848,,,,,,,,0,96,96,73,1,
,,,,,,,,,,,,,,,,,200671,19,2022-01-29_16h13.43.478,lexical_decision_task_DD_L3,2021.2.3,MacIntel,66.66666667,,,,,,,,,,,0.981,1,,,,,,,,,,,,,,,,,,,,,,,,0.798888889,0.235555556,0,0,0,,,,,,,PLANET,HB,z,m,./images/PLANETHB.png,,,,,,,,z,1,0.981,,,,,,,,0,97,97,164,1,
,,,,,,,,,,,,,,,,,200671,19,2022-01-29_16h13.43.478,lexical_decision_task_DD_L3,2021.2.3,MacIntel,66.66666667,,,,,,,,,,,0.564,0,,,,,,,,,,,,,,,,,,,,,,,,0.798888889,0.235555556,0,0,0,,,,,,,SUNSET,C,m,m,./images/SUNSET.png,,,,,,,,z,0,0.564,,,,,,,,0,98,98,82,1,
,,,,,,,,,,,,,,,,,200671,19,2022-01-29_16h13.43.478,lexical_decision_task_DD_L3,2021.2.3,MacIntel,66.66666667,,,,,,,,,,,0.865,1,,,,,,,,,,,,,,,,,,,,,,,,0.798888889,0.235555556,0,0,0,,,,,,,URINE,C,m,m,./images/URINE.png,,,,,,,,m,1,0.865,,,,,,,,0,99,99,70,1,
,,,,,,,,,,,,,,,,,200671,19,2022-01-29_16h13.43.478,lexical_decision_task_DD_L3,2021.2.3,MacIntel,66.66666667,,,,,,,,,,,0.681,1,,,,,,,,,,,,,,,,,,,,,,,,0.798888889,0.235555556,0,0,0,,,,,,,SPORT,LB,m,m,./images/SPORTLB.png,,,,,,,,m,1,0.681,,,,,,,,0,100,100,48,1,
,,,,,,,,,,,,,,,,,200671,19,2022-01-29_16h13.43.478,lexical_decision_task_DD_L3,2021.2.3,MacIntel,66.66666667,,,,,,,,,,,0.832,0,,,,,,,,,,,,,,,,,,,,,,,,0.798888889,0.235555556,0,0,0,,,,,,,RHINO,LB,m,m,./images/RHINOLB.png,,,,,,,,z,0,0.832,,,,,,,,0,101,101,9,1,
,,,,,,,,,,,,,,,,,200671,19,2022-01-29_16h13.43.478,lexical_decision_task_DD_L3,2021.2.3,MacIntel,66.66666667,,,,,,,,,,,1.114,1,,,,,,,,,,,,,,,,,,,,,,,,0.798888889,0.235555556,0,0,0,,,,,,,FARMER,HB,m,m,./images/FARMERHB.png,,,,,,,,m,1,1.114,,,,,,,,0,102,102,65,1,
,,,,,,,,,,,,,,,,,200671,19,2022-01-29_16h13.43.478,lexical_decision_task_DD_L3,2021.2.3,MacIntel,66.66666667,,,,,,,,,,,0.664,1,,,,,,,,,,,,,,,,,,,,,,,,0.798888889,0.235555556,0,0,0,,,,,,,PISTOL,HB,z,m,./images/PISTOLHB.png,,,,,,,,z,1,0.664,,,,,,,,0,103,103,113,1,
,,,,,,,,,,,,,,,,,200671,19,2022-01-29_16h13.43.478,lexical_decision_task_DD_L3,2021.2.3,MacIntel,66.66666667,,,,,,,,,,,1.001,1,,,,,,,,,,,,,,,,,,,,,,,,0.798888889,0.235555556,0,0,0,,,,,,,DOUGH,C,m,m,./images/DOUGH.png,,,,,,,,m,1,1.001,,,,,,,,0,104,104,19,1,
,,,,,,,,,,,,,,,,,200671,19,2022-01-29_16h13.43.478,lexical_decision_task_DD_L3,2021.2.3,MacIntel,66.66666667,,,,,,,,,,,0.598,1,,,,,,,,,,,,,,,,,,,,,,,,0.798888889,0.235555556,0,0,0,,,,,,,PURSE,HB,m,m,./images/PURSEHB.png,,,,,,,,m,1,0.598,,,,,,,,0,105,105,62,1,
,,,,,,,,,,,,,,,,,200671,19,2022-01-29_16h13.43.478,lexical_decision_task_DD_L3,2021.2.3,MacIntel,66.66666667,,,,,,,,,,,0.847,0,,,,,,,,,,,,,,,,,,,,,,,,0.798888889,0.235555556,0,0,0,,,,,,,BERRY,HB,m,m,./images/BERRYHB.png,,,,,,,,z,0,0.847,,,,,,,,0,106,106,47,1,
,,,,,,,,,,,,,,,,,200671,19,2022-01-29_16h13.43.478,lexical_decision_task_DD_L3,2021.2.3,MacIntel,66.66666667,,,,,,,,,,,0.981,1,,,,,,,,,,,,,,,,,,,,,,,,0.798888889,0.235555556,0,0,0,,,,,,,GLOVE,C,z,m,./images/GLOVE.png,,,,,,,,z,1,0.981,,,,,,,,0,107,107,157,1,
,,,,,,,,,,,,,,,,,200671,19,2022-01-29_16h13.43.478,lexical_decision_task_DD_L3,2021.2.3,MacIntel,66.66666667,,,,,,,,,,,0.681,1,,,,,,,,,,,,,,,,,,,,,,,,0.798888889,0.235555556,0,0,0,,,,,,,BANNER,C,m,m,./images/BANNER.png,,,,,,,,m,1,0.681,,,,,,,,0,108,108,52,1,
,,,,,,,,,,,,,,,,,200671,19,2022-01-29_16h13.43.478,lexical_decision_task_DD_L3,2021.2.3,MacIntel,66.66666667,,,,,,,,,,,0.848,1,,,,,,,,,,,,,,,,,,,,,,,,0.798888889,0.235555556,0,0,0,,,,,,,CARPET,HB,m,m,./images/CARPETHB.png,,,,,,,,m,1,0.848,,,,,,,,0,109,109,53,1,
,,,,,,,,,,,,,,,,,200671,19,2022-01-29_16h13.43.478,lexical_decision_task_DD_L3,2021.2.3,MacIntel,66.66666667,,,,,,,,,,,0.855,1,,,,,,,,,,,,,,,,,,,,,,,,0.798888889,0.235555556,0,0,0,,,,,,,BASKET,HB,z,m,./images/BASKETHB.png,,,,,,,,z,1,0.855,,,,,,,,0,110,110,128,1,
,,,,,,,,,,,,,,,,,200671,19,2022-01-29_16h13.43.478,lexical_decision_task_DD_L3,2021.2.3,MacIntel,66.66666667,,,,,,,,,,,0.988,0,,,,,,,,,,,,,,,,,,,,,,,,0.798888889,0.235555556,0,0,0,,,,,,,PILOT,HB,z,m,./images/PILOTHB.png,,,,,,,,m,0,0.988,,,,,,,,0,111,111,134,1,
,,,,,,,,,,,,,,,,,200671,19,2022-01-29_16h13.43.478,lexical_decision_task_DD_L3,2021.2.3,MacIntel,66.66666667,,,,,,,,,,,0.714,1,,,,,,,,,,,,,,,,,,,,,,,,0.798888889,0.235555556,0,0,0,,,,,,,GRAIN,LB,m,m,./images/GRAINLB.png,,,,,,,,m,1,0.714,,,,,,,,0,112,112,75,1,
,,,,,,,,,,,,,,,,,200671,19,2022-01-29_16h13.43.478,lexical_decision_task_DD_L3,2021.2.3,MacIntel,66.66666667,,,,,,,,,,,0.631,1,,,,,,,,,,,,,,,,,,,,,,,,0.798888889,0.235555556,0,0,0,,,,,,,KIDNEY,LB,m,m,./images/KIDNEYLB.png,,,,,,,,m,1,0.631,,,,,,,,0,113,113,21,1,
,,,,,,,,,,,,,,,,,200671,19,2022-01-29_16h13.43.478,lexical_decision_task_DD_L3,2021.2.3,MacIntel,66.66666667,,,,,,,,,,,0.448,0,,,,,,,,,,,,,,,,,,,,,,,,0.798888889,0.235555556,0,0,0,,,,,,,ATTIC,LB,m,m,./images/ATTICLB.png,,,,,,,,z,0,0.448,,,,,,,,0,114,114,27,1,
,,,,,,,,,,,,,,,,,200671,19,2022-01-29_16h13.43.478,lexical_decision_task_DD_L3,2021.2.3,MacIntel,66.66666667,,,,,,,,,,,0.631,0,,,,,,,,,,,,,,,,,,,,,,,,0.798888889,0.235555556,0,0,0,,,,,,,DRILL,LB,z,m,./images/DRILLLB.png,,,,,,,,m,0,0.631,,,,,,,,0,115,115,165,1,
,,,,,,,,,,,,,,,,,200671,19,2022-01-29_16h13.43.478,lexical_decision_task_DD_L3,2021.2.3,MacIntel,66.66666667,,,,,,,,,,,0.551,1,,,,,,,,,,,,,,,,,,,,,,,,0.798888889,0.235555556,0,0,0,,,,,,,CRUMB,HB,m,m,./images/CRUMBHB.png,,,,,,,,m,1,0.551,,,,,,,,0,116,116,29,1,
,,,,,,,,,,,,,,,,,200671,19,2022-01-29_16h13.43.478,lexical_decision_task_DD_L3,2021.2.3,MacIntel,66.66666667,,,,,,,,,,,0.548,0,,,,,,,,,,,,,,,,,,,,,,,,0.798888889,0.235555556,0,0,0,,,,,,,SNAKE,C,z,m,./images/SNAKE.png,,,,,,,,m,0,0.548,,,,,,,,0,117,117,124,1,
,,,,,,,,,,,,,,,,,200671,19,2022-01-29_16h13.43.478,lexical_decision_task_DD_L3,2021.2.3,MacIntel,66.66666667,,,,,,,,,,,0.935,1,,,,,,,,,,,,,,,,,,,,,,,,0.798888889,0.235555556,0,0,0,,,,,,,DIVER,LB,z,m,./images/DIVERLB.png,,,,,,,,z,1,0.935,,,,,,,,0,118,118,93,1,
,,,,,,,,,,,,,,,,,200671,19,2022-01-29_16h13.43.478,lexical_decision_task_DD_L3,2021.2.3,MacIntel,66.66666667,,,,,,,,,,,0.665,1,,,,,,,,,,,,,,,,,,,,,,,,0.798888889,0.235555556,0,0,0,,,,,,,FINGER,LB,m,m,./images/FINGERLB.png,,,,,,,,m,1,0.665,,,,,,,,0,119,119,3,1,
,,,,,,,,,,,,,,,,,200671,19,2022-01-29_16h13.43.478,lexical_decision_task_DD_L3,2021.2.3,MacIntel,66.66666667,,,,,,,,,,,0.548,1,,,,,,,,,,,,,,,,,,,,,,,,0.798888889,0.235555556,0,0,0,,,,,,,PEARL,C,m,m,./images/PEARL.png,,,,,,,,m,1,0.548,,,,,,,,0,120,120,46,1,
,,,,,,,,,,,,,,,,,200671,19,2022-01-29_16h13.43.478,lexical_decision_task_DD_L3,2021.2.3,MacIntel,66.66666667,,,,,,,,,,,1.082,1,,,,,,,,,,,,,,,,,,,,,,,,0.798888889,0.235555556,0,0,0,,,,,,,STOVE,HB,z,m,./images/STOVEHB.png,,,,,,,,z,1,1.082,,,,,,,,0,121,121,86,1,
,,,,,,,,,,,,,,,,,200671,19,2022-01-29_16h13.43.478,lexical_decision_task_DD_L3,2021.2.3,MacIntel,66.66666667,,,,,,,,,,,0.798,0,,,,,,,,,,,,,,,,,,,,,,,,0.798888889,0.235555556,0,0,0,,,,,,,HAMMER,LB,z,m,./images/HAMMERLB.png,,,,,,,,m,0,0.798,,,,,,,,0,122,122,159,1,
,,,,,,,,,,,,,,,,,200671,19,2022-01-29_16h13.43.478,lexical_decision_task_DD_L3,2021.2.3,MacIntel,66.66666667,,,,,,,,,,,0.581,1,,,,,,,,,,,,,,,,,,,,,,,,0.798888889,0.235555556,0,0,0,,,,,,,DANCER,LB,z,m,./images/DANCERLB.png,,,,,,,,z,1,0.581,,,,,,,,0,123,123,105,1,
,,,,,,,,,,,,,,,,,200671,19,2022-01-29_16h13.43.478,lexical_decision_task_DD_L3,2021.2.3,MacIntel,66.66666667,,,,,,,,,,,0.735,0,,,,,,,,,,,,,,,,,,,,,,,,0.798888889,0.235555556,0,0,0,,,,,,,PLANK,C,m,m,./images/PLANK.png,,,,,,,,z,0,0.735,,,,,,,,0,124,124,1,1,
,,,,,,,,,,,,,,,,,200671,19,2022-01-29_16h13.43.478,lexical_decision_task_DD_L3,2021.2.3,MacIntel,66.66666667,,,,,,,,,,,0.731,1,,,,,,,,,,,,,,,,,,,,,,,,0.798888889,0.235555556,0,0,0,space,,,,,,WALRUS,HB,m,m,./images/WALRUSHB.png,,,,,,,,m,1,0.731,,,,,,,,0,125,125,23,1,0.818
,,,,,,,,,,,,,,,,,200671,19,2022-01-29_16h13.43.478,lexical_decision_task_DD_L3,2021.2.3,MacIntel,66.66666667,,,,,,,,,,,0.916,1,,,,,,,,,,,,,,,,,,,,,,,,0.798888889,0.235555556,0,0,0,,,,,,,BRUSH,HB,z,m,./images/BRUSHHB.png,,,,,,,,z,1,0.916,,,,,,,,0,126,126,143,1,
,,,,,,,,,,,,,,,,,200671,19,2022-01-29_16h13.43.478,lexical_decision_task_DD_L3,2021.2.3,MacIntel,66.66666667,,,,,,,,,,,0.847,1,,,,,,,,,,,,,,,,,,,,,,,,0.798888889,0.235555556,0,0,0,,,,,,,SQUARE,LB,m,m,./images/SQUARELB.png,,,,,,,,m,1,0.847,,,,,,,,0,127,127,6,1,
,,,,,,,,,,,,,,,,,200671,19,2022-01-29_16h13.43.478,lexical_decision_task_DD_L3,2021.2.3,MacIntel,66.66666667,,,,,,,,,,,0.664,1,,,,,,,,,,,,,,,,,,,,,,,,0.798888889,0.235555556,0,0,0,,,,,,,BONNET,HB,m,m,./images/BONNETHB.png,,,,,,,,m,1,0.664,,,,,,,,0,128,128,11,1,
,,,,,,,,,,,,,,,,,200671,19,2022-01-29_16h13.43.478,lexical_decision_task_DD_L3,2021.2.3,MacIntel,66.66666667,,,,,,,,,,,0.848,1,,,,,,,,,,,,,,,,,,,,,,,,0.798888889,0.235555556,0,0,0,,,,,,,PACKET,HB,m,m,./images/PACKETHB.png,,,,,,,,m,1,0.848,,,,,,,,0,129,129,56,1,
,,,,,,,,,,,,,,,,,200671,19,2022-01-29_16h13.43.478,lexical_decision_task_DD_L3,2021.2.3,MacIntel,66.66666667,,,,,,,,,,,0.881,1,,,,,,,,,,,,,,,,,,,,,,,,0.798888889,0.235555556,0,0,0,,,,,,,TOWEL,C,z,m,./images/TOWEL.png,,,,,,,,z,1,0.881,,,,,,,,0,130,130,85,1,
,,,,,,,,,,,,,,,,,200671,19,2022-01-29_16h13.43.478,lexical_decision_task_DD_L3,2021.2.3,MacIntel,66.66666667,,,,,,,,,,,0.918,1,,,,,,,,,,,,,,,,,,,,,,,,0.798888889,0.235555556,0,0,0,,,,,,,WHISKY,HB,z,m,./images/WHISKYHB.png,,,,,,,,z,1,0.918,,,,,,,,0,131,131,167,1,
,,,,,,,,,,,,,,,,,200671,19,2022-01-29_16h13.43.478,lexical_decision_task_DD_L3,2021.2.3,MacIntel,66.66666667,,,,,,,,,,,0.631,1,,,,,,,,,,,,,,,,,,,,,,,,0.798888889,0.235555556,0,0,0,,,,,,,BISHOP,C,z,m,./images/BISHOP.png,,,,,,,,z,1,0.631,,,,,,,,0,132,132,133,1,
,,,,,,,,,,,,,,,,,200671,19,2022-01-29_16h13.43.478,lexical_decision_task_DD_L3,2021.2.3,MacIntel,66.66666667,,,,,,,,,,,1.065,0,,,,,,,,,,,,,,,,,,,,,,,,0.798888889,0.235555556,0,0,0,,,,,,,SLOPE,LB,z,m,./images/SLOPELB.png,,,,,,,,m,0,1.065,,,,,,,,0,133,133,114,1,
,,,,,,,,,,,,,,,,,200671,19,2022-01-29_16h13.43.478,lexical_decision_task_DD_L3,2021.2.3,MacIntel,66.66666667,,,,,,,,,,,0.748,1,,,,,,,,,,,,,,,,,,,,,,,,0.798888889,0.235555556,0,0,0,,,,,,,QUILL,C,m,m,./images/QUILL.png,,,,,,,,m,1,0.748,,,,,,,,0,134,134,31,1,
,,,,,,,,,,,,,,,,,200671,19,2022-01-29_16h13.43.478,lexical_decision_task_DD_L3,2021.2.3,MacIntel,66.66666667,,,,,,,,,,,1.314,1,,,,,,,,,,,,,,,,,,,,,,,,0.798888889,0.235555556,0,0,0,,,,,,,LITTER,LB,m,m,./images/LITTERLB.png,,,,,,,,m,1,1.314,,,,,,,,0,135,135,78,1,
,,,,,,,,,,,,,,,,,200671,19,2022-01-29_16h13.43.478,lexical_decision_task_DD_L3,2021.2.3,MacIntel,66.66666667,,,,,,,,,,,0.682,1,,,,,,,,,,,,,,,,,,,,,,,,0.798888889,0.235555556,0,0,0,,,,,,,MEDAL,HB,z,m,./images/MEDALHB.png,,,,,,,,z,1,0.682,,,,,,,,0,136,136,95,1,
,,,,,,,,,,,,,,,,,200671,19,2022-01-29_16h13.43.478,lexical_decision_task_DD_L3,2021.2.3,MacIntel,66.66666667,,,,,,,,,,,0.682,1,,,,,,,,,,,,,,,,,,,,,,,,0.798888889,0.235555556,0,0,0,,,,,,,COOKER,LB,m,m,./images/COOKERLB.png,,,,,,,,m,1,0.682,,,,,,,,0,137,137,69,1,
,,,,,,,,,,,,,,,,,200671,19,2022-01-29_16h13.43.478,lexical_decision_task_DD_L3,2021.2.3,MacIntel,66.66666667,,,,,,,,,,,0.748,0,,,,,,,,,,,,,,,,,,,,,,,,0.798888889,0.235555556,0,0,0,,,,,,,POODLE,LB,m,m,./images/POODLELB.png,,,,,,,,z,0,0.748,,,,,,,,0,138,138,81,1,
,,,,,,,,,,,,,,,,,200671,19,2022-01-29_16h13.43.478,lexical_decision_task_DD_L3,2021.2.3,MacIntel,66.66666667,,,,,,,,,,,1.331,1,,,,,,,,,,,,,,,,,,,,,,,,0.798888889,0.235555556,0,0,0,,,,,,,CLOTH,HB,z,m,./images/CLOTHHB.png,,,,,,,,z,1,1.331,,,,,,,,0,139,139,107,1,
,,,,,,,,,,,,,,,,,200671,19,2022-01-29_16h13.43.478,lexical_decision_task_DD_L3,2021.2.3,MacIntel,66.66666667,,,,,,,,,,,0.682,1,,,,,,,,,,,,,,,,,,,,,,,,0.798888889,0.235555556,0,0,0,,,,,,,BRIDE,C,z,m,./images/BRIDE.png,,,,,,,,z,1,0.682,,,,,,,,0,140,140,148,1,
,,,,,,,,,,,,,,,,,200671,19,2022-01-29_16h13.43.478,lexical_decision_task_DD_L3,2021.2.3,MacIntel,66.66666667,,,,,,,,,,,0.651,1,,,,,,,,,,,,,,,,,,,,,,,,0.798888889,0.235555556,0,0,0,,,,,,,TRIPOD,LB,m,m,./images/TRIPODLB.png,,,,,,,,m,1,0.651,,,,,,,,0,141,141,54,1,
,,,,,,,,,,,,,,,,,200671,19,2022-01-29_16h13.43.478,lexical_decision_task_DD_L3,2021.2.3,MacIntel,66.66666667,,,,,,,,,,,0.549,1,,,,,,,,,,,,,,,,,,,,,,,,0.798888889,0.235555556,0,0,0,,,,,,,MUFFIN,C,m,m,./images/MUFFIN.png,,,,,,,,m,1,0.549,,,,,,,,0,142,142,55,1,
,,,,,,,,,,,,,,,,,200671,19,2022-01-29_16h13.43.478,lexical_decision_task_DD_L3,2021.2.3,MacIntel,66.66666667,,,,,,,,,,,0.914,0,,,,,,,,,,,,,,,,,,,,,,,,0.798888889,0.235555556,0,0,0,,,,,,,MAGGOT,LB,m,m,./images/MAGGOTLB.png,,,,,,,,z,0,0.914,,,,,,,,0,143,143,33,1,
,,,,,,,,,,,,,,,,,200671,19,2022-01-29_16h13.43.478,lexical_decision_task_DD_L3,2021.2.3,MacIntel,66.66666667,,,,,,,,,,,0.698,1,,,,,,,,,,,,,,,,,,,,,,,,0.798888889,0.235555556,0,0,0,,,,,,,STATUE,LB,z,m,./images/STATUELB.png,,,,,,,,z,1,0.698,,,,,,,,0,144,144,150,1,
,,,,,,,,,,,,,,,,,200671,19,2022-01-29_16h13.43.478,lexical_decision_task_DD_L3,2021.2.3,MacIntel,66.66666667,,,,,,,,,,,0.831,0,,,,,,,,,,,,,,,,,,,,,,,,0.798888889,0.235555556,0,0,0,,,,,,,WEASEL,HB,m,m,./images/WEASELHB.png,,,,,,,,z,0,0.831,,,,,,,,0,145,145,80,1,
,,,,,,,,,,,,,,,,,200671,19,2022-01-29_16h13.43.478,lexical_decision_task_DD_L3,2021.2.3,MacIntel,66.66666667,,,,,,,,,,,0.501,1,,,,,,,,,,,,,,,,,,,,,,,,0.798888889,0.235555556,0,0,0,,,,,,,TULIP,HB,m,m,./images/TULIPHB.png,,,,,,,,m,1,0.501,,,,,,,,0,146,146,8,1,
,,,,,,,,,,,,,,,,,200671,19,2022-01-29_16h13.43.478,lexical_decision_task_DD_L3,2021.2.3,MacIntel,66.66666667,,,,,,,,,,,0.655,1,,,,,,,,,,,,,,,,,,,,,,,,0.798888889,0.235555556,0,0,0,,,,,,,SMOKER,HB,m,m,./images/SMOKERHB.png,,,,,,,,m,1,0.655,,,,,,,,0,147,147,26,1,
,,,,,,,,,,,,,,,,,200671,19,2022-01-29_16h13.43.478,lexical_decision_task_DD_L3,2021.2.3,MacIntel,66.66666667,,,,,,,,,,,0.552,1,,,,,,,,,,,,,,,,,,,,,,,,0.798888889,0.235555556,0,0,0,,,,,,,RAZOR,C,z,m,./images/RAZOR.png,,,,,,,,z,1,0.552,,,,,,,,0,148,148,118,1,
,,,,,,,,,,,,,,,,,200671,19,2022-01-29_16h13.43.478,lexical_decision_task_DD_L3,2021.2.3,MacIntel,66.66666667,,,,,,,,,,,0.582,1,,,,,,,,,,,,,,,,,,,,,,,,0.798888889,0.235555556,0,0,0,,,,,,,DONKEY,C,z,m,./images/DONKEY.png,,,,,,,,z,1,0.582,,,,,,,,0,149,149,103,1,
,,,,,,,,,,,,,,,,,200671,19,2022-01-29_16h13.43.478,lexical_decision_task_DD_L3,2021.2.3,MacIntel,66.66666667,,,,,,,,,,,0.948,1,,,,,,,,,,,,,,,,,,,,,,,,0.798888889,0.235555556,0,0,0,,,,,,,LIZARD,HB,m,m,./images/LIZARDHB.png,,,,,,,,m,1,0.948,,,,,,,,0,150,150,44,1,
,,,,,,,,,,,,,,,,,200671,19,2022-01-29_16h13.43.478,lexical_decision_task_DD_L3,2021.2.3,MacIntel,66.66666667,,,,,,,,,,,0.648,1,,,,,,,,,,,,,,,,,,,,,,,,0.798888889,0.235555556,0,0,0,,,,,,,POKER,C,z,m,./images/POKER.png,,,,,,,,z,1,0.648,,,,,,,,0,151,151,151,1,
,,,,,,,,,,,,,,,,,200671,19,2022-01-29_16h13.43.478,lexical_decision_task_DD_L3,2021.2.3,MacIntel,66.66666667,,,,,,,,,,,0.748,1,,,,,,,,,,,,,,,,,,,,,,,,0.798888889,0.235555556,0,0,0,,,,,,,BEARD,HB,m,m,./images/BEARDHB.png,,,,,,,,m,1,0.748,,,,,,,,0,152,152,2,1,
,,,,,,,,,,,,,,,,,200671,19,2022-01-29_16h13.43.478,lexical_decision_task_DD_L3,2021.2.3,MacIntel,66.66666667,,,,,,,,,,,0.605,1,,,,,,,,,,,,,,,,,,,,,,,,0.798888889,0.235555556,0,0,0,,,,,,,MIRROR,LB,m,m,./images/MIRRORLB.png,,,,,,,,m,1,0.605,,,,,,,,0,153,153,63,1,
,,,,,,,,,,,,,,,,,200671,19,2022-01-29_16h13.43.478,lexical_decision_task_DD_L3,2021.2.3,MacIntel,66.66666667,,,,,,,,,,,0.749,1,,,,,,,,,,,,,,,,,,,,,,,,0.798888889,0.235555556,0,0,0,,,,,,,FALCON,C,m,m,./images/FALCON.png,,,,,,,,m,1,0.749,,,,,,,,0,154,154,28,1,
,,,,,,,,,,,,,,,,,200671,19,2022-01-29_16h13.43.478,lexical_decision_task_DD_L3,2021.2.3,MacIntel,66.66666667,,,,,,,,,,,0.781,1,,,,,,,,,,,,,,,,,,,,,,,,0.798888889,0.235555556,0,0,0,,,,,,,SHIELD,LB,z,m,./images/SHIELDLB.png,,,,,,,,z,1,0.781,,,,,,,,0,155,155,132,1,
,,,,,,,,,,,,,,,,,200671,19,2022-01-29_16h13.43.478,lexical_decision_task_DD_L3,2021.2.3,MacIntel,66.66666667,,,,,,,,,,,0.698,1,,,,,,,,,,,,,,,,,,,,,,,,0.798888889,0.235555556,0,0,0,,,,,,,WRIST,C,m,m,./images/WRIST.png,,,,,,,,m,1,0.698,,,,,,,,0,156,156,25,1,
,,,,,,,,,,,,,,,,,200671,19,2022-01-29_16h13.43.478,lexical_decision_task_DD_L3,2021.2.3,MacIntel,66.66666667,,,,,,,,,,,0.648,1,,,,,,,,,,,,,,,,,,,,,,,,0.798888889,0.235555556,0,0,0,,,,,,,CLOUD,HB,z,m,./images/CLOUDHB.png,,,,,,,,z,1,0.648,,,,,,,,0,157,157,110,1,
,,,,,,,,,,,,,,,,,200671,19,2022-01-29_16h13.43.478,lexical_decision_task_DD_L3,2021.2.3,MacIntel,66.66666667,,,,,,,,,,,0.632,1,,,,,,,,,,,,,,,,,,,,,,,,0.798888889,0.235555556,0,0,0,,,,,,,TOMATO,LB,m,m,./images/TOMATOLB.png,,,,,,,,m,1,0.632,,,,,,,,0,158,158,0,1,
,,,,,,,,,,,,,,,,,200671,19,2022-01-29_16h13.43.478,lexical_decision_task_DD_L3,2021.2.3,MacIntel,66.66666667,,,,,,,,,,,1.082,1,,,,,,,,,,,,,,,,,,,,,,,,0.798888889,0.235555556,0,0,0,,,,,,,WHEEL,HB,z,m,./images/WHEELHB.png,,,,,,,,z,1,1.082,,,,,,,,0,159,159,161,1,
,,,,,,,,,,,,,,,,,200671,19,2022-01-29_16h13.43.478,lexical_decision_task_DD_L3,2021.2.3,MacIntel,66.66666667,,,,,,,,,,,0.765,1,,,,,,,,,,,,,,,,,,,,,,,,0.798888889,0.235555556,0,0,0,,,,,,,INFANT,C,m,m,./images/INFANT.png,,,,,,,,m,1,0.765,,,,,,,,0,160,160,76,1,
,,,,,,,,,,,,,,,,,200671,19,2022-01-29_16h13.43.478,lexical_decision_task_DD_L3,2021.2.3,MacIntel,66.66666667,,,,,,,,,,,0.631,0,,,,,,,,,,,,,,,,,,,,,,,,0.798888889,0.235555556,0,0,0,,,,,,,PENCE,C,m,m,./images/PENCE.png,,,,,,,,z,0,0.631,,,,,,,,0,161,161,16,1,
,,,,,,,,,,,,,,,,,200671,19,2022-01-29_16h13.43.478,lexical_decision_task_DD_L3,2021.2.3,MacIntel,66.66666667,,,,,,,,,,,0.648,1,,,,,,,,,,,,,,,,,,,,,,,,0.798888889,0.235555556,0,0,0,,,,,,,SAILOR,C,m,m,./images/SAILOR.png,,,,,,,,m,1,0.648,,,,,,,,0,162,162,67,1,
,,,,,,,,,,,,,,,,,200671,19,2022-01-29_16h13.43.478,lexical_decision_task_DD_L3,2021.2.3,MacIntel,66.66666667,,,,,,,,,,,0.68,1,,,,,,,,,,,,,,,,,,,,,,,,0.798888889,0.235555556,0,0,0,,,,,,,JAGUAR,LB,m,m,./images/JAGUARLB.png,,,,,,,,m,1,0.68,,,,,,,,0,163,163,18,1,
,,,,,,,,,,,,,,,,,200671,19,2022-01-29_16h13.43.478,lexical_decision_task_DD_L3,2021.2.3,MacIntel,66.66666667,,,,,,,,,,,0.732,1,,,,,,,,,,,,,,,,,,,,,,,,0.798888889,0.235555556,0,0,0,,,,,,,CANOE,C,z,m,./images/CANOE.png,,,,,,,,z,1,0.732,,,,,,,,0,164,164,142,1,
,,,,,,,,,,,,,,,,,200671,19,2022-01-29_16h13.43.478,lexical_decision_task_DD_L3,2021.2.3,MacIntel,66.66666667,,,,,,,,,,,0.948,0,,,,,,,,,,,,,,,,,,,,,,,,0.798888889,0.235555556,0,0,0,,,,,,,FLASK,LB,z,m,./images/FLASKLB.png,,,,,,,,m,0,0.948,,,,,,,,0,165,165,156,1,
,,,,,,,,,,,,,,,,,200671,19,2022-01-29_16h13.43.478,lexical_decision_task_DD_L3,2021.2.3,MacIntel,66.66666667,,,,,,,,,,,0.798,1,,,,,,,,,,,,,,,,,,,,,,,,0.798888889,0.235555556,0,0,0,,,,,,,FERRY,LB,z,m,./images/FERRYLB.png,,,,,,,,z,1,0.798,,,,,,,,0,166,166,141,1,
,,,,,,,,,,,,,,,,,200671,19,2022-01-29_16h13.43.478,lexical_decision_task_DD_L3,2021.2.3,MacIntel,66.66666667,,,,,,,,,,,1.914,0,,,,,,,,,,,,,,,,,,,,,,,,0.798888889,0.235555556,0,0,0,,,,,,,STREAM,HB,z,m,./images/STREAMHB.png,,,,,,,,m,0,1.914,,,,,,,,0,167,167,125,1,
