key_resp.keys,instr_done_touch.x,instr_done_touch.y,instr_done_touch.leftButton,instr_done_touch.midButton,instr_done_touch.rightButton,instr_done_touch.clicked_name,instruction_pages.thisRepN,instruction_pages.thisTrialN,instruction_pages.thisN,instruction_pages.thisIndex,instruction_pages.ran,pageN,phase,instruct_text,has_image,instruct_image,participant,age,date,expName,psychopyVersion,OS,frameRate,key_resp.rt,response.keys,response.corr,response.rt,touch_resp.x,touch_resp.y,touch_resp.leftButton,touch_resp.midButton,touch_resp.rightButton,touch_resp.time,touch_resp.clicked_name,rt,corr,practrials.thisRepN,practrials.thisTrialN,practrials.thisN,practrials.thisIndex,practrials.ran,TrialID,Target,corrAns,end_of_practice_trials_pages.thisRepN,end_of_practice_trials_pages.thisTrialN,end_of_practice_trials_pages.thisN,end_of_practice_trials_pages.thisIndex,end_of_practice_trials_pages.ran,key_resp_2.keys,key_resp_2.corr,key_resp_2.rt,targ_click.x,targ_click.y,targ_click.leftButton,targ_click.midButton,targ_click.rightButton,targ_click.time,targ_click.clicked_name,break_done_touch.x,break_done_touch.y,break_done_touch.leftButton,break_done_touch.midButton,break_done_touch.rightButton,break_done_keyboard.keys,maintrials.thisRepN,maintrials.thisTrialN,maintrials.thisN,maintrials.thisIndex,maintrials.ran,string,blur,study,lex,stim_path,break_done_keyboard.rt,mouse_2.x,mouse_2.y,mouse_2.leftButton,mouse_2.midButton,mouse_2.rightButton,mouse_2.clicked_name,slider.response,slider.rt,trials.thisRepN,trials.thisTrialN,trials.thisN,trials.thisIndex,trials.ran,test_instructions.thisRepN,test_instructions.thisTrialN,test_instructions.thisN,test_instructions.thisIndex,test_instructions.ran,key_resp_3.keys,key_resp_3.corr,key_resp_3.rt,test_click.x,test_click.y,test_click.leftButton,test_click.midButton,test_click.rightButton,test_click.time,test_click.clicked_name,test_phase.thisRepN,test_phase.thisTrialN,test_phase.thisN,test_phase.thisIndex,test_phase.ran
,-0.055555543,-0.392592606,1,0,0,instr_done_button,0,0,0,0,1,1,instructions,"INSTRUCTIONS
At the start of each trial, look at the plus sign  (+) in the center of the screen.  This tells you that a trial is about to begin and where to look. Second, the plus sign will disappear and a string of letters will appear. Your task is to determine if the string of letters is a word or not. If the item is a word press the M key (on keyboard)  or touch the word button (phone/tablet).  If the item is not a word,  press the  Z key (on keyboard)  or touch the nonword button (on phone/tablet). 
Press the space bar or touch  continue.",0,,56bfcce79f7a1e0005fdca9e,75,2022-02-12_16h41.44.550,lexical_decision_task_DD_L2,2021.2.3,Win32,59.000531,,,,,,,,,,,,,,,,,,,,,,,,,,,,,,,,,,,,,,,,,,,,,,,,,,,,,,,,,,,,,,,,,,,,,,,,,,,,,,,,,,,,,,
,-0.030555486,-0.40000007,1,0,0,instr_done_button,0,1,1,1,1,2,instructions,"If your device has a keyboard, press the 'Z' key for nonwords and the 'M' key for words.





Press the space bar or touch the button below to continue.",0,keyboard-example.gif,56bfcce79f7a1e0005fdca9e,75,2022-02-12_16h41.44.550,lexical_decision_task_DD_L2,2021.2.3,Win32,59.000531,,,,,,,,,,,,,,,,,,,,,,,,,,,,,,,,,,,,,,,,,,,,,,,,,,,,,,,,,,,,,,,,,,,,,,,,,,,,,,,,,,,,,,
space,0.011111181,-0.373148161,0,0,0,,0,2,2,2,1,3,instructions,"If you are using a touchscreen only device, use the buttons on the screen. Do not use the mouse.





Press the space bar or touch the button below to continue.",0,touchscreen-example.gif,56bfcce79f7a1e0005fdca9e,75,2022-02-12_16h41.44.550,lexical_decision_task_DD_L2,2021.2.3,Win32,59.000531,9.735,,,,,,,,,,,,,,,,,,,,,,,,,,,,,,,,,,,,,,,,,,,,,,,,,,,,,,,,,,,,,,,,,,,,,,,,,,,,,,,,,,,,,
space,-0.214814805,-0.085185194,0,0,0,,0,3,3,3,1,4,instructions,"It is very important that you respond as quickly and accurately as possible, as each letter string will only be on the screen for two seconds. If you do not respond within this time, the message 'Too slow!' will be displayed and the experiment will progress to the next letter string. The first 20 trials will be practice trials and you will receive feedback on your answers. 

Press the space bar or touch the button below to start the practice trials.",0,,56bfcce79f7a1e0005fdca9e,75,2022-02-12_16h41.44.550,lexical_decision_task_DD_L2,2021.2.3,Win32,59.000531,22.1167,,,,,,,,,,,,,,,,,,,,,,,,,,,,,,,,,,,,,,,,,,,,,,,,,,,,,,,,,,,,,,,,,,,,,,,,,,,,,,,,,,,,,
,,,,,,,,,,,,,,,,,56bfcce79f7a1e0005fdca9e,75,2022-02-12_16h41.44.550,lexical_decision_task_DD_L2,2021.2.3,Win32,59.000531,,z,1,3.5233,,,,,,,,3.5233,1,0,0,0,10,1,1001,INLADE,z,,,,,,,,,,,,,,,,,,,,,,,,,,,,,,,,,,,,,,,,,,,,,,,,,,,,,,,,,,,,,,,,,
,,,,,,,,,,,,,,,,,56bfcce79f7a1e0005fdca9e,75,2022-02-12_16h41.44.550,lexical_decision_task_DD_L2,2021.2.3,Win32,59.000531,,m,1,1.1969,,,,,,,,1.1969,1,0,1,1,2,1,1001,ALMOND,m,,,,,,,,,,,,,,,,,,,,,,,,,,,,,,,,,,,,,,,,,,,,,,,,,,,,,,,,,,,,,,,,,
,,,,,,,,,,,,,,,,,56bfcce79f7a1e0005fdca9e,75,2022-02-12_16h41.44.550,lexical_decision_task_DD_L2,2021.2.3,Win32,59.000531,,z,1,1.2425,,,,,,,,1.2425,1,0,2,2,15,1,1001,WHAISE,z,,,,,,,,,,,,,,,,,,,,,,,,,,,,,,,,,,,,,,,,,,,,,,,,,,,,,,,,,,,,,,,,,
,,,,,,,,,,,,,,,,,56bfcce79f7a1e0005fdca9e,75,2022-02-12_16h41.44.550,lexical_decision_task_DD_L2,2021.2.3,Win32,59.000531,,m,1,1.477,,,,,,,,1.477,1,0,3,3,6,1,1001,ZOMBIE,m,,,,,,,,,,,,,,,,,,,,,,,,,,,,,,,,,,,,,,,,,,,,,,,,,,,,,,,,,,,,,,,,,
,,,,,,,,,,,,,,,,,56bfcce79f7a1e0005fdca9e,75,2022-02-12_16h41.44.550,lexical_decision_task_DD_L2,2021.2.3,Win32,59.000531,,m,1,1.0565,,,,,,,,1.0565,1,0,4,4,7,1,1001,VOLUME,m,,,,,,,,,,,,,,,,,,,,,,,,,,,,,,,,,,,,,,,,,,,,,,,,,,,,,,,,,,,,,,,,,
,,,,,,,,,,,,,,,,,56bfcce79f7a1e0005fdca9e,75,2022-02-12_16h41.44.550,lexical_decision_task_DD_L2,2021.2.3,Win32,59.000531,,m,1,1.2613,,,,,,,,1.2613,1,0,5,5,1,1,1001,ADJUST,m,,,,,,,,,,,,,,,,,,,,,,,,,,,,,,,,,,,,,,,,,,,,,,,,,,,,,,,,,,,,,,,,,
,,,,,,,,,,,,,,,,,56bfcce79f7a1e0005fdca9e,75,2022-02-12_16h41.44.550,lexical_decision_task_DD_L2,2021.2.3,Win32,59.000531,,z,1,1.2593,,,,,,,,1.2593,1,0,6,6,8,1,1001,ASLERT,z,,,,,,,,,,,,,,,,,,,,,,,,,,,,,,,,,,,,,,,,,,,,,,,,,,,,,,,,,,,,,,,,,
,,,,,,,,,,,,,,,,,56bfcce79f7a1e0005fdca9e,75,2022-02-12_16h41.44.550,lexical_decision_task_DD_L2,2021.2.3,Win32,59.000531,,z,1,1.6381,,,,,,,,1.6381,1,0,7,7,12,1,1001,SPRINY,z,,,,,,,,,,,,,,,,,,,,,,,,,,,,,,,,,,,,,,,,,,,,,,,,,,,,,,,,,,,,,,,,,
,,,,,,,,,,,,,,,,,56bfcce79f7a1e0005fdca9e,75,2022-02-12_16h41.44.550,lexical_decision_task_DD_L2,2021.2.3,Win32,59.000531,,m,1,1.4218,,,,,,,,1.4218,1,0,8,8,0,1,1001,UTOPIA,m,,,,,,,,,,,,,,,,,,,,,,,,,,,,,,,,,,,,,,,,,,,,,,,,,,,,,,,,,,,,,,,,,
,,,,,,,,,,,,,,,,,56bfcce79f7a1e0005fdca9e,75,2022-02-12_16h41.44.550,lexical_decision_task_DD_L2,2021.2.3,Win32,59.000531,,m,1,1.0732,,,,,,,,1.0732,1,0,9,9,4,1,1001,SQUEAK,m,,,,,,,,,,,,,,,,,,,,,,,,,,,,,,,,,,,,,,,,,,,,,,,,,,,,,,,,,,,,,,,,,
,,,,,,,,,,,,,,,,,56bfcce79f7a1e0005fdca9e,75,2022-02-12_16h41.44.550,lexical_decision_task_DD_L2,2021.2.3,Win32,59.000531,,z,1,1.0996,,,,,,,,1.0996,1,0,10,10,11,1,1001,RASHET,z,,,,,,,,,,,,,,,,,,,,,,,,,,,,,,,,,,,,,,,,,,,,,,,,,,,,,,,,,,,,,,,,,
,,,,,,,,,,,,,,,,,56bfcce79f7a1e0005fdca9e,75,2022-02-12_16h41.44.550,lexical_decision_task_DD_L2,2021.2.3,Win32,59.000531,,z,1,1.1405,,,,,,,,1.1405,1,0,11,11,14,1,1001,THRALE,z,,,,,,,,,,,,,,,,,,,,,,,,,,,,,,,,,,,,,,,,,,,,,,,,,,,,,,,,,,,,,,,,,
,,,,,,,,,,,,,,,,,56bfcce79f7a1e0005fdca9e,75,2022-02-12_16h41.44.550,lexical_decision_task_DD_L2,2021.2.3,Win32,59.000531,,m,1,1.2761,,,,,,,,1.2761,1,0,12,12,5,1,1001,OBTAIN,m,,,,,,,,,,,,,,,,,,,,,,,,,,,,,,,,,,,,,,,,,,,,,,,,,,,,,,,,,,,,,,,,,
,,,,,,,,,,,,,,,,,56bfcce79f7a1e0005fdca9e,75,2022-02-12_16h41.44.550,lexical_decision_task_DD_L2,2021.2.3,Win32,59.000531,,z,1,1.5974,,,,,,,,1.5974,1,0,13,13,9,1,1001,FARINY,z,,,,,,,,,,,,,,,,,,,,,,,,,,,,,,,,,,,,,,,,,,,,,,,,,,,,,,,,,,,,,,,,,
,,,,,,,,,,,,,,,,,56bfcce79f7a1e0005fdca9e,75,2022-02-12_16h41.44.550,lexical_decision_task_DD_L2,2021.2.3,Win32,59.000531,,m,1,1.3577,,,,,,,,1.3577,1,0,14,14,3,1,1001,MATRIX,m,,,,,,,,,,,,,,,,,,,,,,,,,,,,,,,,,,,,,,,,,,,,,,,,,,,,,,,,,,,,,,,,,
,,,,,,,,,,,,,,,,,56bfcce79f7a1e0005fdca9e,75,2022-02-12_16h41.44.550,lexical_decision_task_DD_L2,2021.2.3,Win32,59.000531,,z,1,1.2639,,,,,,,,1.2639,1,0,15,15,13,1,1001,ROUPET,z,,,,,,,,,,,,,,,,,,,,,,,,,,,,,,,,,,,,,,,,,,,,,,,,,,,,,,,,,,,,,,,,,
space,-0.214814805,-0.085185194,0,0,0,,,,,,,1,end_of_practice,"You have completed the practice trials. During the experimental trials, you will not receive feedback. 
Before you begin, please ensure that you are in a comfortable and quiet location and will not be disturbed for about 15 minutes, as we cannot use your data if you do not complete all the trials. 
 When you are ready to start the experimental trials, please press space or touch the button below.",,,56bfcce79f7a1e0005fdca9e,75,2022-02-12_16h41.44.550,lexical_decision_task_DD_L2,2021.2.3,Win32,59.000531,25.4537,,,,,,,,,,,,,,,,,,,,,0,0,0,0,1,,,,,,,,,,,,,,,,,,,,,,,,,,,,,,,,,,,,,,,,,,,,,,,,,,,,,,,,,,,,
,,,,,,,,,,,,,,,,,56bfcce79f7a1e0005fdca9e,75,2022-02-12_16h41.44.550,lexical_decision_task_DD_L2,2021.2.3,Win32,59.000531,,,,,,,,,,,,15.7293,0,,,,,,,,,,,,,,m,0,15.7293,,,,,,,,-0.214814805,-0.085185194,0,0,0,,0,0,0,115,1,MAWNS,HB,old,z,./images/MAWNSHB.png,,,,,,,,,,,,,,,,,,,,,,,,,,,,,,,,,,
,,,,,,,,,,,,,,,,,56bfcce79f7a1e0005fdca9e,75,2022-02-12_16h41.44.550,lexical_decision_task_DD_L2,2021.2.3,Win32,59.000531,,,,,,,,,,,,1.1895,1,,,,,,,,,,,,,,z,1,1.1895,,,,,,,,-0.214814805,-0.085185194,0,0,0,,0,1,1,126,1,GUELS,C,old,z,./images/GUELS.png,,,,,,,,,,,,,,,,,,,,,,,,,,,,,,,,,,
,,,,,,,,,,,,,,,,,56bfcce79f7a1e0005fdca9e,75,2022-02-12_16h41.44.550,lexical_decision_task_DD_L2,2021.2.3,Win32,59.000531,,,,,,,,,,,,1.0135,1,,,,,,,,,,,,,,m,1,1.0135,,,,,,,,-0.214814805,-0.085185194,0,0,0,,0,2,2,20,1,CRADLE,C,old,m,./images/CRADLE.png,,,,,,,,,,,,,,,,,,,,,,,,,,,,,,,,,,
,,,,,,,,,,,,,,,,,56bfcce79f7a1e0005fdca9e,75,2022-02-12_16h41.44.550,lexical_decision_task_DD_L2,2021.2.3,Win32,59.000531,,,,,,,,,,,,2.7881,1,,,,,,,,,,,,,,z,1,2.7881,,,,,,,,-0.214814805,-0.085185194,0,0,0,,0,3,3,145,1,LAMEL,HB,old,z,./images/LAMELHB.png,,,,,,,,,,,,,,,,,,,,,,,,,,,,,,,,,,
,,,,,,,,,,,,,,,,,56bfcce79f7a1e0005fdca9e,75,2022-02-12_16h41.44.550,lexical_decision_task_DD_L2,2021.2.3,Win32,59.000531,,,,,,,,,,,,3.8304,1,,,,,,,,,,,,,,z,1,3.8304,,,,,,,,-0.214814805,-0.085185194,0,0,0,,0,4,4,130,1,CRILL,HB,old,z,./images/CRILLHB.png,,,,,,,,,,,,,,,,,,,,,,,,,,,,,,,,,,
,,,,,,,,,,,,,,,,,56bfcce79f7a1e0005fdca9e,75,2022-02-12_16h41.44.550,lexical_decision_task_DD_L2,2021.2.3,Win32,59.000531,,,,,,,,,,,,1.2793,1,,,,,,,,,,,,,,z,1,1.2793,,,,,,,,-0.214814805,-0.085185194,0,0,0,,0,5,5,111,1,HOSSE,C,old,z,./images/HOSSE.png,,,,,,,,,,,,,,,,,,,,,,,,,,,,,,,,,,
,,,,,,,,,,,,,,,,,56bfcce79f7a1e0005fdca9e,75,2022-02-12_16h41.44.550,lexical_decision_task_DD_L2,2021.2.3,Win32,59.000531,,,,,,,,,,,,1.1623,1,,,,,,,,,,,,,,m,1,1.1623,,,,,,,,-0.214814805,-0.085185194,0,0,0,,0,6,6,18,1,JAGUAR,HB,old,m,./images/JAGUARHB.png,,,,,,,,,,,,,,,,,,,,,,,,,,,,,,,,,,
,,,,,,,,,,,,,,,,,56bfcce79f7a1e0005fdca9e,75,2022-02-12_16h41.44.550,lexical_decision_task_DD_L2,2021.2.3,Win32,59.000531,,,,,,,,,,,,1.4614,1,,,,,,,,,,,,,,z,1,1.4614,,,,,,,,-0.214814805,-0.085185194,0,0,0,,0,7,7,113,1,LINEW,LB,old,z,./images/LINEWLB.png,,,,,,,,,,,,,,,,,,,,,,,,,,,,,,,,,,
,,,,,,,,,,,,,,,,,56bfcce79f7a1e0005fdca9e,75,2022-02-12_16h41.44.550,lexical_decision_task_DD_L2,2021.2.3,Win32,59.000531,,,,,,,,,,,,1.3362,1,,,,,,,,,,,,,,m,1,1.3362,,,,,,,,-0.214814805,-0.085185194,0,0,0,,0,8,8,76,1,INFANT,LB,old,m,./images/INFANTLB.png,,,,,,,,,,,,,,,,,,,,,,,,,,,,,,,,,,
,,,,,,,,,,,,,,,,,56bfcce79f7a1e0005fdca9e,75,2022-02-12_16h41.44.550,lexical_decision_task_DD_L2,2021.2.3,Win32,59.000531,,,,,,,,,,,,1.1216,1,,,,,,,,,,,,,,m,1,1.1216,,,,,,,,-0.214814805,-0.085185194,0,0,0,,0,9,9,4,1,MUSCLE,LB,old,m,./images/MUSCLELB.png,,,,,,,,,,,,,,,,,,,,,,,,,,,,,,,,,,
,,,,,,,,,,,,,,,,,56bfcce79f7a1e0005fdca9e,75,2022-02-12_16h41.44.550,lexical_decision_task_DD_L2,2021.2.3,Win32,59.000531,,,,,,,,,,,,4.5733,1,,,,,,,,,,,,,,z,1,4.5733,,,,,,,,-0.214814805,-0.085185194,0,0,0,,0,10,10,109,1,BURGE,HB,old,z,./images/BURGEHB.png,,,,,,,,,,,,,,,,,,,,,,,,,,,,,,,,,,
,,,,,,,,,,,,,,,,,56bfcce79f7a1e0005fdca9e,75,2022-02-12_16h41.44.550,lexical_decision_task_DD_L2,2021.2.3,Win32,59.000531,,,,,,,,,,,,1.322,1,,,,,,,,,,,,,,m,1,1.322,,,,,,,,-0.214814805,-0.085185194,0,0,0,,0,11,11,28,1,FALCON,LB,old,m,./images/FALCONLB.png,,,,,,,,,,,,,,,,,,,,,,,,,,,,,,,,,,
,,,,,,,,,,,,,,,,,56bfcce79f7a1e0005fdca9e,75,2022-02-12_16h41.44.550,lexical_decision_task_DD_L2,2021.2.3,Win32,59.000531,,,,,,,,,,,,1.0572,1,,,,,,,,,,,,,,m,1,1.0572,,,,,,,,-0.214814805,-0.085185194,0,0,0,,0,12,12,64,1,JELLY,LB,old,m,./images/JELLYLB.png,,,,,,,,,,,,,,,,,,,,,,,,,,,,,,,,,,
,,,,,,,,,,,,,,,,,56bfcce79f7a1e0005fdca9e,75,2022-02-12_16h41.44.550,lexical_decision_task_DD_L2,2021.2.3,Win32,59.000531,,,,,,,,,,,,1.2808,1,,,,,,,,,,,,,,z,1,1.2808,,,,,,,,-0.214814805,-0.085185194,0,0,0,,0,13,13,152,1,FRAIN,LB,old,z,./images/FRAINLB.png,,,,,,,,,,,,,,,,,,,,,,,,,,,,,,,,,,
,,,,,,,,,,,,,,,,,56bfcce79f7a1e0005fdca9e,75,2022-02-12_16h41.44.550,lexical_decision_task_DD_L2,2021.2.3,Win32,59.000531,,,,,,,,,,,,1.1417,1,,,,,,,,,,,,,,z,1,1.1417,,,,,,,,-0.214814805,-0.085185194,0,0,0,,0,14,14,125,1,MOOKY,LB,old,z,./images/MOOKYLB.png,,,,,,,,,,,,,,,,,,,,,,,,,,,,,,,,,,
,,,,,,,,,,,,,,,,,56bfcce79f7a1e0005fdca9e,75,2022-02-12_16h41.44.550,lexical_decision_task_DD_L2,2021.2.3,Win32,59.000531,,,,,,,,,,,,0.8789,1,,,,,,,,,,,,,,m,1,0.8789,,,,,,,,-0.214814805,-0.085185194,0,0,0,,0,15,15,35,1,PEACH,C,old,m,./images/PEACH.png,,,,,,,,,,,,,,,,,,,,,,,,,,,,,,,,,,
,,,,,,,,,,,,,,,,,56bfcce79f7a1e0005fdca9e,75,2022-02-12_16h41.44.550,lexical_decision_task_DD_L2,2021.2.3,Win32,59.000531,,,,,,,,,,,,1.1878,1,,,,,,,,,,,,,,m,1,1.1878,,,,,,,,-0.214814805,-0.085185194,0,0,0,,0,16,16,45,1,KITTEN,HB,old,m,./images/KITTENHB.png,,,,,,,,,,,,,,,,,,,,,,,,,,,,,,,,,,
,,,,,,,,,,,,,,,,,56bfcce79f7a1e0005fdca9e,75,2022-02-12_16h41.44.550,lexical_decision_task_DD_L2,2021.2.3,Win32,59.000531,,,,,,,,,,,,1.2271,1,,,,,,,,,,,,,,z,1,1.2271,,,,,,,,-0.214814805,-0.085185194,0,0,0,,0,17,17,131,1,NACES,LB,old,z,./images/NACESLB.png,,,,,,,,,,,,,,,,,,,,,,,,,,,,,,,,,,
,,,,,,,,,,,,,,,,,56bfcce79f7a1e0005fdca9e,75,2022-02-12_16h41.44.550,lexical_decision_task_DD_L2,2021.2.3,Win32,59.000531,,,,,,,,,,,,1.3889,1,,,,,,,,,,,,,,m,1,1.3889,,,,,,,,-0.214814805,-0.085185194,0,0,0,,0,18,18,19,1,DOUGH,LB,old,m,./images/DOUGHLB.png,,,,,,,,,,,,,,,,,,,,,,,,,,,,,,,,,,
,,,,,,,,,,,,,,,,,56bfcce79f7a1e0005fdca9e,75,2022-02-12_16h41.44.550,lexical_decision_task_DD_L2,2021.2.3,Win32,59.000531,,,,,,,,,,,,1.0043,1,,,,,,,,,,,,,,m,1,1.0043,,,,,,,,-0.214814805,-0.085185194,0,0,0,,0,19,19,56,1,PACKET,C,old,m,./images/PACKET.png,,,,,,,,,,,,,,,,,,,,,,,,,,,,,,,,,,
,,,,,,,,,,,,,,,,,56bfcce79f7a1e0005fdca9e,75,2022-02-12_16h41.44.550,lexical_decision_task_DD_L2,2021.2.3,Win32,59.000531,,,,,,,,,,,,3.2571,1,,,,,,,,,,,,,,z,1,3.2571,,,,,,,,-0.214814805,-0.085185194,0,0,0,,0,20,20,154,1,THINT,HB,old,z,./images/THINTHB.png,,,,,,,,,,,,,,,,,,,,,,,,,,,,,,,,,,
,,,,,,,,,,,,,,,,,56bfcce79f7a1e0005fdca9e,75,2022-02-12_16h41.44.550,lexical_decision_task_DD_L2,2021.2.3,Win32,59.000531,,,,,,,,,,,,1.1155,1,,,,,,,,,,,,,,m,1,1.1155,,,,,,,,-0.214814805,-0.085185194,0,0,0,,0,21,21,24,1,SCREW,HB,old,m,./images/SCREWHB.png,,,,,,,,,,,,,,,,,,,,,,,,,,,,,,,,,,
,,,,,,,,,,,,,,,,,56bfcce79f7a1e0005fdca9e,75,2022-02-12_16h41.44.550,lexical_decision_task_DD_L2,2021.2.3,Win32,59.000531,,,,,,,,,,,,1.0444,1,,,,,,,,,,,,,,m,1,1.0444,,,,,,,,-0.214814805,-0.085185194,0,0,0,,0,22,22,79,1,CRUST,LB,old,m,./images/CRUSTLB.png,,,,,,,,,,,,,,,,,,,,,,,,,,,,,,,,,,
,,,,,,,,,,,,,,,,,56bfcce79f7a1e0005fdca9e,75,2022-02-12_16h41.44.550,lexical_decision_task_DD_L2,2021.2.3,Win32,59.000531,,,,,,,,,,,,1.0911,1,,,,,,,,,,,,,,m,1,1.0911,,,,,,,,-0.214814805,-0.085185194,0,0,0,,0,23,23,57,1,MOOSE,HB,old,m,./images/MOOSEHB.png,,,,,,,,,,,,,,,,,,,,,,,,,,,,,,,,,,
,,,,,,,,,,,,,,,,,56bfcce79f7a1e0005fdca9e,75,2022-02-12_16h41.44.550,lexical_decision_task_DD_L2,2021.2.3,Win32,59.000531,,,,,,,,,,,,1.1969,1,,,,,,,,,,,,,,z,1,1.1969,,,,,,,,-0.214814805,-0.085185194,0,0,0,,0,24,24,161,1,BLAPS,LB,old,z,./images/BLAPSLB.png,,,,,,,,,,,,,,,,,,,,,,,,,,,,,,,,,,
,,,,,,,,,,,,,,,,,56bfcce79f7a1e0005fdca9e,75,2022-02-12_16h41.44.550,lexical_decision_task_DD_L2,2021.2.3,Win32,59.000531,,,,,,,,,,,,1.1983,1,,,,,,,,,,,,,,m,1,1.1983,,,,,,,,-0.214814805,-0.085185194,0,0,0,,0,25,25,63,1,MIRROR,HB,old,m,./images/MIRRORHB.png,,,,,,,,,,,,,,,,,,,,,,,,,,,,,,,,,,
,,,,,,,,,,,,,,,,,56bfcce79f7a1e0005fdca9e,75,2022-02-12_16h41.44.550,lexical_decision_task_DD_L2,2021.2.3,Win32,59.000531,,,,,,,,,,,,1.0591,1,,,,,,,,,,,,,,z,1,1.0591,,,,,,,,-0.214814805,-0.085185194,0,0,0,,0,26,26,164,1,SGREW,LB,old,z,./images/SGREWLB.png,,,,,,,,,,,,,,,,,,,,,,,,,,,,,,,,,,
,,,,,,,,,,,,,,,,,56bfcce79f7a1e0005fdca9e,75,2022-02-12_16h41.44.550,lexical_decision_task_DD_L2,2021.2.3,Win32,59.000531,,,,,,,,,,,,1.1759,1,,,,,,,,,,,,,,m,1,1.1759,,,,,,,,-0.214814805,-0.085185194,0,0,0,,0,27,27,9,1,RHINO,HB,old,m,./images/RHINOHB.png,,,,,,,,,,,,,,,,,,,,,,,,,,,,,,,,,,
,,,,,,,,,,,,,,,,,56bfcce79f7a1e0005fdca9e,75,2022-02-12_16h41.44.550,lexical_decision_task_DD_L2,2021.2.3,Win32,59.000531,,,,,,,,,,,,1.0913,1,,,,,,,,,,,,,,m,1,1.0913,,,,,,,,-0.214814805,-0.085185194,0,0,0,,0,28,28,80,1,WEASEL,C,old,m,./images/WEASEL.png,,,,,,,,,,,,,,,,,,,,,,,,,,,,,,,,,,
,,,,,,,,,,,,,,,,,56bfcce79f7a1e0005fdca9e,75,2022-02-12_16h41.44.550,lexical_decision_task_DD_L2,2021.2.3,Win32,59.000531,,,,,,,,,,,,1.0969,1,,,,,,,,,,,,,,z,1,1.0969,,,,,,,,-0.214814805,-0.085185194,0,0,0,,0,29,29,108,1,GRUET,C,old,z,./images/GRUET.png,,,,,,,,,,,,,,,,,,,,,,,,,,,,,,,,,,
,,,,,,,,,,,,,,,,,56bfcce79f7a1e0005fdca9e,75,2022-02-12_16h41.44.550,lexical_decision_task_DD_L2,2021.2.3,Win32,59.000531,,,,,,,,,,,,1.1454,1,,,,,,,,,,,,,,m,1,1.1454,,,,,,,,-0.214814805,-0.085185194,0,0,0,,0,30,30,61,1,CANDLE,LB,old,m,./images/CANDLELB.png,,,,,,,,,,,,,,,,,,,,,,,,,,,,,,,,,,
,,,,,,,,,,,,,,,,,56bfcce79f7a1e0005fdca9e,75,2022-02-12_16h41.44.550,lexical_decision_task_DD_L2,2021.2.3,Win32,59.000531,,,,,,,,,,,,2.06,1,,,,,,,,,,,,,,m,1,2.06,,,,,,,,-0.214814805,-0.085185194,0,0,0,,0,31,31,36,1,THROAT,HB,old,m,./images/THROATHB.png,,,,,,,,,,,,,,,,,,,,,,,,,,,,,,,,,,
,,,,,,,,,,,,,,,,,56bfcce79f7a1e0005fdca9e,75,2022-02-12_16h41.44.550,lexical_decision_task_DD_L2,2021.2.3,Win32,59.000531,,,,,,,,,,,,2.0365,1,,,,,,,,,,,,,,m,1,2.0365,,,,,,,,-0.214814805,-0.085185194,0,0,0,,0,32,32,69,1,COOKER,HB,old,m,./images/COOKERHB.png,,,,,,,,,,,,,,,,,,,,,,,,,,,,,,,,,,
,,,,,,,,,,,,,,,,,56bfcce79f7a1e0005fdca9e,75,2022-02-12_16h41.44.550,lexical_decision_task_DD_L2,2021.2.3,Win32,59.000531,,,,,,,,,,,,0.9977,1,,,,,,,,,,,,,,m,1,0.9977,,,,,,,,-0.214814805,-0.085185194,0,0,0,,0,33,33,6,1,SQUARE,HB,old,m,./images/SQUAREHB.png,,,,,,,,,,,,,,,,,,,,,,,,,,,,,,,,,,
,,,,,,,,,,,,,,,,,56bfcce79f7a1e0005fdca9e,75,2022-02-12_16h41.44.550,lexical_decision_task_DD_L2,2021.2.3,Win32,59.000531,,,,,,,,,,,,0.8232,1,,,,,,,,,,,,,,m,1,0.8232,,,,,,,,-0.214814805,-0.085185194,0,0,0,,0,34,34,38,1,LADDER,C,old,m,./images/LADDER.png,,,,,,,,,,,,,,,,,,,,,,,,,,,,,,,,,,
,,,,,,,,,,,,,,,,,56bfcce79f7a1e0005fdca9e,75,2022-02-12_16h41.44.550,lexical_decision_task_DD_L2,2021.2.3,Win32,59.000531,,,,,,,,,,,,4.7371,1,,,,,,,,,,,,,,z,1,4.7371,,,,,,,,-0.214814805,-0.085185194,0,0,0,,0,35,35,157,1,INLER,HB,old,z,./images/INLERHB.png,,,,,,,,,,,,,,,,,,,,,,,,,,,,,,,,,,
,,,,,,,,,,,,,,,,,56bfcce79f7a1e0005fdca9e,75,2022-02-12_16h41.44.550,lexical_decision_task_DD_L2,2021.2.3,Win32,59.000531,,,,,,,,,,,,1.4587,1,,,,,,,,,,,,,,z,1,1.4587,,,,,,,,-0.214814805,-0.085185194,0,0,0,,0,36,36,92,1,PAIMS,LB,old,z,./images/PAIMSLB.png,,,,,,,,,,,,,,,,,,,,,,,,,,,,,,,,,,
,,,,,,,,,,,,,,,,,56bfcce79f7a1e0005fdca9e,75,2022-02-12_16h41.44.550,lexical_decision_task_DD_L2,2021.2.3,Win32,59.000531,,,,,,,,,,,,1.0021,1,,,,,,,,,,,,,,m,1,1.0021,,,,,,,,-0.214814805,-0.085185194,0,0,0,,0,37,37,39,1,SHELF,HB,old,m,./images/SHELFHB.png,,,,,,,,,,,,,,,,,,,,,,,,,,,,,,,,,,
,,,,,,,,,,,,,,,,,56bfcce79f7a1e0005fdca9e,75,2022-02-12_16h41.44.550,lexical_decision_task_DD_L2,2021.2.3,Win32,59.000531,,,,,,,,,,,,1.1977,1,,,,,,,,,,,,,,z,1,1.1977,,,,,,,,-0.214814805,-0.085185194,0,0,0,,0,38,38,146,1,MOOST,LB,old,z,./images/MOOSTLB.png,,,,,,,,,,,,,,,,,,,,,,,,,,,,,,,,,,
,,,,,,,,,,,,,,,,,56bfcce79f7a1e0005fdca9e,75,2022-02-12_16h41.44.550,lexical_decision_task_DD_L2,2021.2.3,Win32,59.000531,,,,,,,,,,,,0.9158,1,,,,,,,,,,,,,,z,1,0.9158,,,,,,,,-0.214814805,-0.085185194,0,0,0,,0,39,39,96,1,KEAMS,C,old,z,./images/KEAMS.png,,,,,,,,,,,,,,,,,,,,,,,,,,,,,,,,,,
,,,,,,,,,,,,,,,,,56bfcce79f7a1e0005fdca9e,75,2022-02-12_16h41.44.550,lexical_decision_task_DD_L2,2021.2.3,Win32,59.000531,,,,,,,,,,,,0.9925,1,,,,,,,,,,,,,,m,1,0.9925,,,,,,,,-0.214814805,-0.085185194,0,0,0,,0,40,40,83,1,JUNGLE,C,old,m,./images/JUNGLE.png,,,,,,,,,,,,,,,,,,,,,,,,,,,,,,,,,,
,,,,,,,,,,,,,,,,,56bfcce79f7a1e0005fdca9e,75,2022-02-12_16h41.44.550,lexical_decision_task_DD_L2,2021.2.3,Win32,59.000531,,,,,,,,,,,,1.0384,1,,,,,,,,,,,,,,z,1,1.0384,,,,,,,,-0.214814805,-0.085185194,0,0,0,space,0,41,41,84,1,HAXES,C,old,z,./images/HAXES.png,10.4844,,,,,,,,,,,,,,,,,,,,,,,,,,,,,,,,,
,,,,,,,,,,,,,,,,,56bfcce79f7a1e0005fdca9e,75,2022-02-12_16h41.44.550,lexical_decision_task_DD_L2,2021.2.3,Win32,59.000531,,,,,,,,,,,,1.1395,1,,,,,,,,,,,,,,m,1,1.1395,,,,,,,,-0.214814805,-0.085185194,0,0,0,,0,42,42,21,1,KIDNEY,HB,old,m,./images/KIDNEYHB.png,,,,,,,,,,,,,,,,,,,,,,,,,,,,,,,,,,
,,,,,,,,,,,,,,,,,56bfcce79f7a1e0005fdca9e,75,2022-02-12_16h41.44.550,lexical_decision_task_DD_L2,2021.2.3,Win32,59.000531,,,,,,,,,,,,0.8749,1,,,,,,,,,,,,,,m,1,0.8749,,,,,,,,-0.214814805,-0.085185194,0,0,0,,0,43,43,32,1,BARREL,C,old,m,./images/BARREL.png,,,,,,,,,,,,,,,,,,,,,,,,,,,,,,,,,,
,,,,,,,,,,,,,,,,,56bfcce79f7a1e0005fdca9e,75,2022-02-12_16h41.44.550,lexical_decision_task_DD_L2,2021.2.3,Win32,59.000531,,,,,,,,,,,,0.8648,1,,,,,,,,,,,,,,m,1,0.8648,,,,,,,,-0.214814805,-0.085185194,0,0,0,,0,44,44,40,1,SWING,LB,old,m,./images/SWINGLB.png,,,,,,,,,,,,,,,,,,,,,,,,,,,,,,,,,,
,,,,,,,,,,,,,,,,,56bfcce79f7a1e0005fdca9e,75,2022-02-12_16h41.44.550,lexical_decision_task_DD_L2,2021.2.3,Win32,59.000531,,,,,,,,,,,,4.2772,1,,,,,,,,,,,,,,z,1,4.2772,,,,,,,,-0.214814805,-0.085185194,0,0,0,,0,45,45,97,1,CHIDS,HB,old,z,./images/CHIDSHB.png,,,,,,,,,,,,,,,,,,,,,,,,,,,,,,,,,,
,,,,,,,,,,,,,,,,,56bfcce79f7a1e0005fdca9e,75,2022-02-12_16h41.44.550,lexical_decision_task_DD_L2,2021.2.3,Win32,59.000531,,,,,,,,,,,,1.1965,1,,,,,,,,,,,,,,z,1,1.1965,,,,,,,,-0.214814805,-0.085185194,0,0,0,,0,46,46,90,1,NEAST,C,old,z,./images/NEAST.png,,,,,,,,,,,,,,,,,,,,,,,,,,,,,,,,,,
,,,,,,,,,,,,,,,,,56bfcce79f7a1e0005fdca9e,75,2022-02-12_16h41.44.550,lexical_decision_task_DD_L2,2021.2.3,Win32,59.000531,,,,,,,,,,,,1.3489,1,,,,,,,,,,,,,,z,1,1.3489,,,,,,,,-0.214814805,-0.085185194,0,0,0,,0,47,47,165,1,TROWN,C,old,z,./images/TROWN.png,,,,,,,,,,,,,,,,,,,,,,,,,,,,,,,,,,
,,,,,,,,,,,,,,,,,56bfcce79f7a1e0005fdca9e,75,2022-02-12_16h41.44.550,lexical_decision_task_DD_L2,2021.2.3,Win32,59.000531,,,,,,,,,,,,1.1224,1,,,,,,,,,,,,,,m,1,1.1224,,,,,,,,-0.214814805,-0.085185194,0,0,0,,0,48,48,52,1,BANNER,LB,old,m,./images/BANNERLB.png,,,,,,,,,,,,,,,,,,,,,,,,,,,,,,,,,,
,,,,,,,,,,,,,,,,,56bfcce79f7a1e0005fdca9e,75,2022-02-12_16h41.44.550,lexical_decision_task_DD_L2,2021.2.3,Win32,59.000531,,,,,,,,,,,,2.8302,1,,,,,,,,,,,,,,z,1,2.8302,,,,,,,,-0.214814805,-0.085185194,0,0,0,,0,49,49,127,1,NINDY,HB,old,z,./images/NINDYHB.png,,,,,,,,,,,,,,,,,,,,,,,,,,,,,,,,,,
,,,,,,,,,,,,,,,,,56bfcce79f7a1e0005fdca9e,75,2022-02-12_16h41.44.550,lexical_decision_task_DD_L2,2021.2.3,Win32,59.000531,,,,,,,,,,,,1.1404,1,,,,,,,,,,,,,,z,1,1.1404,,,,,,,,-0.214814805,-0.085185194,0,0,0,,0,50,50,98,1,BAMPS,LB,old,z,./images/BAMPSLB.png,,,,,,,,,,,,,,,,,,,,,,,,,,,,,,,,,,
,,,,,,,,,,,,,,,,,56bfcce79f7a1e0005fdca9e,75,2022-02-12_16h41.44.550,lexical_decision_task_DD_L2,2021.2.3,Win32,59.000531,,,,,,,,,,,,1.306,1,,,,,,,,,,,,,,m,1,1.306,,,,,,,,-0.214814805,-0.085185194,0,0,0,,0,51,51,78,1,LITTER,HB,old,m,./images/LITTERHB.png,,,,,,,,,,,,,,,,,,,,,,,,,,,,,,,,,,
,,,,,,,,,,,,,,,,,56bfcce79f7a1e0005fdca9e,75,2022-02-12_16h41.44.550,lexical_decision_task_DD_L2,2021.2.3,Win32,59.000531,,,,,,,,,,,,3.6358,1,,,,,,,,,,,,,,z,1,3.6358,,,,,,,,-0.214814805,-0.085185194,0,0,0,,0,52,52,85,1,CHULK,HB,old,z,./images/CHULKHB.png,,,,,,,,,,,,,,,,,,,,,,,,,,,,,,,,,,
,,,,,,,,,,,,,,,,,56bfcce79f7a1e0005fdca9e,75,2022-02-12_16h41.44.550,lexical_decision_task_DD_L2,2021.2.3,Win32,59.000531,,,,,,,,,,,,0.874,1,,,,,,,,,,,,,,m,1,0.874,,,,,,,,-0.214814805,-0.085185194,0,0,0,,0,53,53,71,1,PIMPLE,C,old,m,./images/PIMPLE.png,,,,,,,,,,,,,,,,,,,,,,,,,,,,,,,,,,
,,,,,,,,,,,,,,,,,56bfcce79f7a1e0005fdca9e,75,2022-02-12_16h41.44.550,lexical_decision_task_DD_L2,2021.2.3,Win32,59.000531,,,,,,,,,,,,1.7558,1,,,,,,,,,,,,,,z,1,1.7558,,,,,,,,-0.214814805,-0.085185194,0,0,0,,0,54,54,93,1,SMONE,C,old,z,./images/SMONE.png,,,,,,,,,,,,,,,,,,,,,,,,,,,,,,,,,,
,,,,,,,,,,,,,,,,,56bfcce79f7a1e0005fdca9e,75,2022-02-12_16h41.44.550,lexical_decision_task_DD_L2,2021.2.3,Win32,59.000531,,,,,,,,,,,,2.5281,1,,,,,,,,,,,,,,z,1,2.5281,,,,,,,,-0.214814805,-0.085185194,0,0,0,,0,55,55,106,1,CLUMS,HB,old,z,./images/CLUMSHB.png,,,,,,,,,,,,,,,,,,,,,,,,,,,,,,,,,,
,,,,,,,,,,,,,,,,,56bfcce79f7a1e0005fdca9e,75,2022-02-12_16h41.44.550,lexical_decision_task_DD_L2,2021.2.3,Win32,59.000531,,,,,,,,,,,,2.687,1,,,,,,,,,,,,,,z,1,2.687,,,,,,,,-0.214814805,-0.085185194,0,0,0,,0,56,56,91,1,SHENS,HB,old,z,./images/SHENSHB.png,,,,,,,,,,,,,,,,,,,,,,,,,,,,,,,,,,
,,,,,,,,,,,,,,,,,56bfcce79f7a1e0005fdca9e,75,2022-02-12_16h41.44.550,lexical_decision_task_DD_L2,2021.2.3,Win32,59.000531,,,,,,,,,,,,0.7931,1,,,,,,,,,,,,,,m,1,0.7931,,,,,,,,-0.214814805,-0.085185194,0,0,0,,0,57,57,7,1,PAINT,LB,old,m,./images/PAINTLB.png,,,,,,,,,,,,,,,,,,,,,,,,,,,,,,,,,,
,,,,,,,,,,,,,,,,,56bfcce79f7a1e0005fdca9e,75,2022-02-12_16h41.44.550,lexical_decision_task_DD_L2,2021.2.3,Win32,59.000531,,,,,,,,,,,,0.8092,1,,,,,,,,,,,,,,m,1,0.8092,,,,,,,,-0.214814805,-0.085185194,0,0,0,,0,58,58,10,1,BELLY,LB,old,m,./images/BELLYLB.png,,,,,,,,,,,,,,,,,,,,,,,,,,,,,,,,,,
,,,,,,,,,,,,,,,,,56bfcce79f7a1e0005fdca9e,75,2022-02-12_16h41.44.550,lexical_decision_task_DD_L2,2021.2.3,Win32,59.000531,,,,,,,,,,,,1.203,1,,,,,,,,,,,,,,m,1,1.203,,,,,,,,-0.214814805,-0.085185194,0,0,0,,0,59,59,16,1,PENCE,LB,old,m,./images/PENCELB.png,,,,,,,,,,,,,,,,,,,,,,,,,,,,,,,,,,
,,,,,,,,,,,,,,,,,56bfcce79f7a1e0005fdca9e,75,2022-02-12_16h41.44.550,lexical_decision_task_DD_L2,2021.2.3,Win32,59.000531,,,,,,,,,,,,1.5347,1,,,,,,,,,,,,,,z,1,1.5347,,,,,,,,-0.214814805,-0.085185194,0,0,0,,0,60,60,104,1,GITTY,LB,old,z,./images/GITTYLB.png,,,,,,,,,,,,,,,,,,,,,,,,,,,,,,,,,,
,,,,,,,,,,,,,,,,,56bfcce79f7a1e0005fdca9e,75,2022-02-12_16h41.44.550,lexical_decision_task_DD_L2,2021.2.3,Win32,59.000531,,,,,,,,,,,,0.908,1,,,,,,,,,,,,,,m,1,0.908,,,,,,,,-0.214814805,-0.085185194,0,0,0,,0,61,61,62,1,PURSE,C,old,m,./images/PURSE.png,,,,,,,,,,,,,,,,,,,,,,,,,,,,,,,,,,
,,,,,,,,,,,,,,,,,56bfcce79f7a1e0005fdca9e,75,2022-02-12_16h41.44.550,lexical_decision_task_DD_L2,2021.2.3,Win32,59.000531,,,,,,,,,,,,0.9559,1,,,,,,,,,,,,,,m,1,0.9559,,,,,,,,-0.214814805,-0.085185194,0,0,0,,0,62,62,2,1,BEARD,C,old,m,./images/BEARD.png,,,,,,,,,,,,,,,,,,,,,,,,,,,,,,,,,,
,,,,,,,,,,,,,,,,,56bfcce79f7a1e0005fdca9e,75,2022-02-12_16h41.44.550,lexical_decision_task_DD_L2,2021.2.3,Win32,59.000531,,,,,,,,,,,,0.9502,1,,,,,,,,,,,,,,m,1,0.9502,,,,,,,,-0.214814805,-0.085185194,0,0,0,,0,63,63,46,1,PEARL,LB,old,m,./images/PEARLLB.png,,,,,,,,,,,,,,,,,,,,,,,,,,,,,,,,,,
,,,,,,,,,,,,,,,,,56bfcce79f7a1e0005fdca9e,75,2022-02-12_16h41.44.550,lexical_decision_task_DD_L2,2021.2.3,Win32,59.000531,,,,,,,,,,,,1.0604,1,,,,,,,,,,,,,,z,1,1.0604,,,,,,,,-0.214814805,-0.085185194,0,0,0,,0,64,64,134,1,TROSS,LB,old,z,./images/TROSSLB.png,,,,,,,,,,,,,,,,,,,,,,,,,,,,,,,,,,
,,,,,,,,,,,,,,,,,56bfcce79f7a1e0005fdca9e,75,2022-02-12_16h41.44.550,lexical_decision_task_DD_L2,2021.2.3,Win32,59.000531,,,,,,,,,,,,1.1316,1,,,,,,,,,,,,,,z,1,1.1316,,,,,,,,-0.214814805,-0.085185194,0,0,0,,0,65,65,143,1,MONGS,LB,old,z,./images/MONGSLB.png,,,,,,,,,,,,,,,,,,,,,,,,,,,,,,,,,,
,,,,,,,,,,,,,,,,,56bfcce79f7a1e0005fdca9e,75,2022-02-12_16h41.44.550,lexical_decision_task_DD_L2,2021.2.3,Win32,59.000531,,,,,,,,,,,,1.0057,1,,,,,,,,,,,,,,m,1,1.0057,,,,,,,,-0.214814805,-0.085185194,0,0,0,,0,66,66,23,1,WALRUS,C,old,m,./images/WALRUS.png,,,,,,,,,,,,,,,,,,,,,,,,,,,,,,,,,,
,,,,,,,,,,,,,,,,,56bfcce79f7a1e0005fdca9e,75,2022-02-12_16h41.44.550,lexical_decision_task_DD_L2,2021.2.3,Win32,59.000531,,,,,,,,,,,,0.8627,1,,,,,,,,,,,,,,m,1,0.8627,,,,,,,,-0.214814805,-0.085185194,0,0,0,,0,67,67,68,1,TORCH,C,old,m,./images/TORCH.png,,,,,,,,,,,,,,,,,,,,,,,,,,,,,,,,,,
,,,,,,,,,,,,,,,,,56bfcce79f7a1e0005fdca9e,75,2022-02-12_16h41.44.550,lexical_decision_task_DD_L2,2021.2.3,Win32,59.000531,,,,,,,,,,,,1.7141,1,,,,,,,,,,,,,,m,1,1.7141,,,,,,,,-0.214814805,-0.085185194,0,0,0,,0,68,68,31,1,QUILL,LB,old,m,./images/QUILLLB.png,,,,,,,,,,,,,,,,,,,,,,,,,,,,,,,,,,
,,,,,,,,,,,,,,,,,56bfcce79f7a1e0005fdca9e,75,2022-02-12_16h41.44.550,lexical_decision_task_DD_L2,2021.2.3,Win32,59.000531,,,,,,,,,,,,0.8405,1,,,,,,,,,,,,,,m,1,0.8405,,,,,,,,-0.214814805,-0.085185194,0,0,0,,0,69,69,55,1,MUFFIN,LB,old,m,./images/MUFFINLB.png,,,,,,,,,,,,,,,,,,,,,,,,,,,,,,,,,,
,,,,,,,,,,,,,,,,,56bfcce79f7a1e0005fdca9e,75,2022-02-12_16h41.44.550,lexical_decision_task_DD_L2,2021.2.3,Win32,59.000531,,,,,,,,,,,,1.1235,1,,,,,,,,,,,,,,z,1,1.1235,,,,,,,,-0.214814805,-0.085185194,0,0,0,,0,70,70,117,1,STEEG,C,old,z,./images/STEEG.png,,,,,,,,,,,,,,,,,,,,,,,,,,,,,,,,,,
,,,,,,,,,,,,,,,,,56bfcce79f7a1e0005fdca9e,75,2022-02-12_16h41.44.550,lexical_decision_task_DD_L2,2021.2.3,Win32,59.000531,,,,,,,,,,,,1.752,0,,,,,,,,,,,,,,m,0,1.752,,,,,,,,-0.214814805,-0.085185194,0,0,0,,0,71,71,110,1,CRUNK,LB,old,z,./images/CRUNKLB.png,,,,,,,,,,,,,,,,,,,,,,,,,,,,,,,,,,
,,,,,,,,,,,,,,,,,56bfcce79f7a1e0005fdca9e,75,2022-02-12_16h41.44.550,lexical_decision_task_DD_L2,2021.2.3,Win32,59.000531,,,,,,,,,,,,1.7329,1,,,,,,,,,,,,,,z,1,1.7329,,,,,,,,-0.214814805,-0.085185194,0,0,0,,0,72,72,123,1,SEDGE,C,old,z,./images/SEDGE.png,,,,,,,,,,,,,,,,,,,,,,,,,,,,,,,,,,
,,,,,,,,,,,,,,,,,56bfcce79f7a1e0005fdca9e,75,2022-02-12_16h41.44.550,lexical_decision_task_DD_L2,2021.2.3,Win32,59.000531,,,,,,,,,,,,0.9851,1,,,,,,,,,,,,,,m,1,0.9851,,,,,,,,-0.214814805,-0.085185194,0,0,0,,0,73,73,70,1,URINE,LB,old,m,./images/URINELB.png,,,,,,,,,,,,,,,,,,,,,,,,,,,,,,,,,,
,,,,,,,,,,,,,,,,,56bfcce79f7a1e0005fdca9e,75,2022-02-12_16h41.44.550,lexical_decision_task_DD_L2,2021.2.3,Win32,59.000531,,,,,,,,,,,,2.4167,1,,,,,,,,,,,,,,z,1,2.4167,,,,,,,,-0.214814805,-0.085185194,0,0,0,,0,74,74,160,1,VEETS,HB,old,z,./images/VEETSHB.png,,,,,,,,,,,,,,,,,,,,,,,,,,,,,,,,,,
,,,,,,,,,,,,,,,,,56bfcce79f7a1e0005fdca9e,75,2022-02-12_16h41.44.550,lexical_decision_task_DD_L2,2021.2.3,Win32,59.000531,,,,,,,,,,,,0.8766,1,,,,,,,,,,,,,,m,1,0.8766,,,,,,,,-0.214814805,-0.085185194,0,0,0,,0,75,75,25,1,WRIST,LB,old,m,./images/WRISTLB.png,,,,,,,,,,,,,,,,,,,,,,,,,,,,,,,,,,
,,,,,,,,,,,,,,,,,56bfcce79f7a1e0005fdca9e,75,2022-02-12_16h41.44.550,lexical_decision_task_DD_L2,2021.2.3,Win32,59.000531,,,,,,,,,,,,0.9866,1,,,,,,,,,,,,,,m,1,0.9866,,,,,,,,-0.214814805,-0.085185194,0,0,0,,0,76,76,81,1,POODLE,HB,old,m,./images/POODLEHB.png,,,,,,,,,,,,,,,,,,,,,,,,,,,,,,,,,,
,,,,,,,,,,,,,,,,,56bfcce79f7a1e0005fdca9e,75,2022-02-12_16h41.44.550,lexical_decision_task_DD_L2,2021.2.3,Win32,59.000531,,,,,,,,,,,,1.0921,1,,,,,,,,,,,,,,m,1,1.0921,,,,,,,,-0.214814805,-0.085185194,0,0,0,,0,77,77,66,1,SWEAT,HB,old,m,./images/SWEATHB.png,,,,,,,,,,,,,,,,,,,,,,,,,,,,,,,,,,
,,,,,,,,,,,,,,,,,56bfcce79f7a1e0005fdca9e,75,2022-02-12_16h41.44.550,lexical_decision_task_DD_L2,2021.2.3,Win32,59.000531,,,,,,,,,,,,0.9567,1,,,,,,,,,,,,,,m,1,0.9567,,,,,,,,-0.214814805,-0.085185194,0,0,0,,0,78,78,44,1,LIZARD,C,old,m,./images/LIZARD.png,,,,,,,,,,,,,,,,,,,,,,,,,,,,,,,,,,
,,,,,,,,,,,,,,,,,56bfcce79f7a1e0005fdca9e,75,2022-02-12_16h41.44.550,lexical_decision_task_DD_L2,2021.2.3,Win32,59.000531,,,,,,,,,,,,2.0244,1,,,,,,,,,,,,,,z,1,2.0244,,,,,,,,-0.214814805,-0.085185194,0,0,0,,0,79,79,116,1,BALGY,LB,old,z,./images/BALGYLB.png,,,,,,,,,,,,,,,,,,,,,,,,,,,,,,,,,,
,,,,,,,,,,,,,,,,,56bfcce79f7a1e0005fdca9e,75,2022-02-12_16h41.44.550,lexical_decision_task_DD_L2,2021.2.3,Win32,59.000531,,,,,,,,,,,,1.4265,1,,,,,,,,,,,,,,m,1,1.4265,,,,,,,,-0.214814805,-0.085185194,0,0,0,,0,80,80,34,1,CANYON,LB,old,m,./images/CANYONLB.png,,,,,,,,,,,,,,,,,,,,,,,,,,,,,,,,,,
,,,,,,,,,,,,,,,,,56bfcce79f7a1e0005fdca9e,75,2022-02-12_16h41.44.550,lexical_decision_task_DD_L2,2021.2.3,Win32,59.000531,,,,,,,,,,,,1.8035,1,,,,,,,,,,,,,,m,1,1.8035,,,,,,,,-0.214814805,-0.085185194,0,0,0,,0,81,81,75,1,GRAIN,HB,old,m,./images/GRAINHB.png,,,,,,,,,,,,,,,,,,,,,,,,,,,,,,,,,,
,,,,,,,,,,,,,,,,,56bfcce79f7a1e0005fdca9e,75,2022-02-12_16h41.44.550,lexical_decision_task_DD_L2,2021.2.3,Win32,59.000531,,,,,,,,,,,,1.1505,1,,,,,,,,,,,,,,m,1,1.1505,,,,,,,,-0.214814805,-0.085185194,0,0,0,,0,82,82,58,1,BABOON,LB,old,m,./images/BABOONLB.png,,,,,,,,,,,,,,,,,,,,,,,,,,,,,,,,,,
,,,,,,,,,,,,,,,,,56bfcce79f7a1e0005fdca9e,75,2022-02-12_16h41.44.550,lexical_decision_task_DD_L2,2021.2.3,Win32,59.000531,,,,,,,,,,,,2.0583,1,,,,,,,,,,,,,,z,1,2.0583,,,,,,,,-0.214814805,-0.085185194,0,0,0,space,0,83,83,141,1,PLEET,C,old,z,./images/PLEET.png,8.9013,,,,,,,,,,,,,,,,,,,,,,,,,,,,,,,,,
,,,,,,,,,,,,,,,,,56bfcce79f7a1e0005fdca9e,75,2022-02-12_16h41.44.550,lexical_decision_task_DD_L2,2021.2.3,Win32,59.000531,,,,,,,,,,,,3.3353,1,,,,,,,,,,,,,,z,1,3.3353,,,,,,,,-0.214814805,-0.085185194,0,0,0,,0,84,84,136,1,WERVE,HB,old,z,./images/WERVEHB.png,,,,,,,,,,,,,,,,,,,,,,,,,,,,,,,,,,
,,,,,,,,,,,,,,,,,56bfcce79f7a1e0005fdca9e,75,2022-02-12_16h41.44.550,lexical_decision_task_DD_L2,2021.2.3,Win32,59.000531,,,,,,,,,,,,0.7981,1,,,,,,,,,,,,,,m,1,0.7981,,,,,,,,-0.214814805,-0.085185194,0,0,0,,0,85,85,53,1,CARPET,C,old,m,./images/CARPET.png,,,,,,,,,,,,,,,,,,,,,,,,,,,,,,,,,,
,,,,,,,,,,,,,,,,,56bfcce79f7a1e0005fdca9e,75,2022-02-12_16h41.44.550,lexical_decision_task_DD_L2,2021.2.3,Win32,59.000531,,,,,,,,,,,,1.0903,1,,,,,,,,,,,,,,z,1,1.0903,,,,,,,,-0.214814805,-0.085185194,0,0,0,,0,86,86,107,1,FASKS,LB,old,z,./images/FASKSLB.png,,,,,,,,,,,,,,,,,,,,,,,,,,,,,,,,,,
,,,,,,,,,,,,,,,,,56bfcce79f7a1e0005fdca9e,75,2022-02-12_16h41.44.550,lexical_decision_task_DD_L2,2021.2.3,Win32,59.000531,,,,,,,,,,,,0.9286,1,,,,,,,,,,,,,,m,1,0.9286,,,,,,,,-0.214814805,-0.085185194,0,0,0,,0,87,87,22,1,MELON,LB,old,m,./images/MELONLB.png,,,,,,,,,,,,,,,,,,,,,,,,,,,,,,,,,,
,,,,,,,,,,,,,,,,,56bfcce79f7a1e0005fdca9e,75,2022-02-12_16h41.44.550,lexical_decision_task_DD_L2,2021.2.3,Win32,59.000531,,,,,,,,,,,,0.9034,1,,,,,,,,,,,,,,m,1,0.9034,,,,,,,,-0.214814805,-0.085185194,0,0,0,,0,88,88,12,1,SHORE,HB,old,m,./images/SHOREHB.png,,,,,,,,,,,,,,,,,,,,,,,,,,,,,,,,,,
,,,,,,,,,,,,,,,,,56bfcce79f7a1e0005fdca9e,75,2022-02-12_16h41.44.550,lexical_decision_task_DD_L2,2021.2.3,Win32,59.000531,,,,,,,,,,,,1.2315,1,,,,,,,,,,,,,,z,1,1.2315,,,,,,,,-0.214814805,-0.085185194,0,0,0,,0,89,89,147,1,ZOLES,C,old,z,./images/ZOLES.png,,,,,,,,,,,,,,,,,,,,,,,,,,,,,,,,,,
,,,,,,,,,,,,,,,,,56bfcce79f7a1e0005fdca9e,75,2022-02-12_16h41.44.550,lexical_decision_task_DD_L2,2021.2.3,Win32,59.000531,,,,,,,,,,,,0.9323,1,,,,,,,,,,,,,,m,1,0.9323,,,,,,,,-0.214814805,-0.085185194,0,0,0,,0,90,90,5,1,PASTA,C,old,m,./images/PASTA.png,,,,,,,,,,,,,,,,,,,,,,,,,,,,,,,,,,
,,,,,,,,,,,,,,,,,56bfcce79f7a1e0005fdca9e,75,2022-02-12_16h41.44.550,lexical_decision_task_DD_L2,2021.2.3,Win32,59.000531,,,,,,,,,,,,2.4625,1,,,,,,,,,,,,,,z,1,2.4625,,,,,,,,-0.214814805,-0.085185194,0,0,0,,0,91,91,155,1,CANGY,LB,old,z,./images/CANGYLB.png,,,,,,,,,,,,,,,,,,,,,,,,,,,,,,,,,,
,,,,,,,,,,,,,,,,,56bfcce79f7a1e0005fdca9e,75,2022-02-12_16h41.44.550,lexical_decision_task_DD_L2,2021.2.3,Win32,59.000531,,,,,,,,,,,,2.1838,1,,,,,,,,,,,,,,m,1,2.1838,,,,,,,,-0.214814805,-0.085185194,0,0,0,,0,92,92,74,1,CEMENT,C,old,m,./images/CEMENT.png,,,,,,,,,,,,,,,,,,,,,,,,,,,,,,,,,,
,,,,,,,,,,,,,,,,,56bfcce79f7a1e0005fdca9e,75,2022-02-12_16h41.44.550,lexical_decision_task_DD_L2,2021.2.3,Win32,59.000531,,,,,,,,,,,,1.0488,1,,,,,,,,,,,,,,z,1,1.0488,,,,,,,,-0.214814805,-0.085185194,0,0,0,,0,93,93,114,1,RIKES,C,old,z,./images/RIKES.png,,,,,,,,,,,,,,,,,,,,,,,,,,,,,,,,,,
,,,,,,,,,,,,,,,,,56bfcce79f7a1e0005fdca9e,75,2022-02-12_16h41.44.550,lexical_decision_task_DD_L2,2021.2.3,Win32,59.000531,,,,,,,,,,,,1.0713,1,,,,,,,,,,,,,,z,1,1.0713,,,,,,,,-0.214814805,-0.085185194,0,0,0,,0,94,94,167,1,ZONET,LB,old,z,./images/ZONETLB.png,,,,,,,,,,,,,,,,,,,,,,,,,,,,,,,,,,
,,,,,,,,,,,,,,,,,56bfcce79f7a1e0005fdca9e,75,2022-02-12_16h41.44.550,lexical_decision_task_DD_L2,2021.2.3,Win32,59.000531,,,,,,,,,,,,1.0412,1,,,,,,,,,,,,,,m,1,1.0412,,,,,,,,-0.214814805,-0.085185194,0,0,0,,0,95,95,43,1,MOSQUE,LB,old,m,./images/MOSQUELB.png,,,,,,,,,,,,,,,,,,,,,,,,,,,,,,,,,,
,,,,,,,,,,,,,,,,,56bfcce79f7a1e0005fdca9e,75,2022-02-12_16h41.44.550,lexical_decision_task_DD_L2,2021.2.3,Win32,59.000531,,,,,,,,,,,,1.0168,1,,,,,,,,,,,,,,m,1,1.0168,,,,,,,,-0.214814805,-0.085185194,0,0,0,,0,96,96,41,1,STRING,C,old,m,./images/STRING.png,,,,,,,,,,,,,,,,,,,,,,,,,,,,,,,,,,
,,,,,,,,,,,,,,,,,56bfcce79f7a1e0005fdca9e,75,2022-02-12_16h41.44.550,lexical_decision_task_DD_L2,2021.2.3,Win32,59.000531,,,,,,,,,,,,1.5644,1,,,,,,,,,,,,,,m,1,1.5644,,,,,,,,-0.214814805,-0.085185194,0,0,0,,0,97,97,0,1,TOMATO,HB,old,m,./images/TOMATOHB.png,,,,,,,,,,,,,,,,,,,,,,,,,,,,,,,,,,
,,,,,,,,,,,,,,,,,56bfcce79f7a1e0005fdca9e,75,2022-02-12_16h41.44.550,lexical_decision_task_DD_L2,2021.2.3,Win32,59.000531,,,,,,,,,,,,3.1056,0,,,,,,,,,,,,,,m,0,3.1056,,,,,,,,-0.214814805,-0.085185194,0,0,0,,0,98,98,100,1,DRIBS,HB,old,z,./images/DRIBSHB.png,,,,,,,,,,,,,,,,,,,,,,,,,,,,,,,,,,
,,,,,,,,,,,,,,,,,56bfcce79f7a1e0005fdca9e,75,2022-02-12_16h41.44.550,lexical_decision_task_DD_L2,2021.2.3,Win32,59.000531,,,,,,,,,,,,1.8339,1,,,,,,,,,,,,,,z,1,1.8339,,,,,,,,-0.214814805,-0.085185194,0,0,0,,0,99,99,112,1,MYING,HB,old,z,./images/MYINGHB.png,,,,,,,,,,,,,,,,,,,,,,,,,,,,,,,,,,
,,,,,,,,,,,,,,,,,56bfcce79f7a1e0005fdca9e,75,2022-02-12_16h41.44.550,lexical_decision_task_DD_L2,2021.2.3,Win32,59.000531,,,,,,,,,,,,0.8595,1,,,,,,,,,,,,,,m,1,0.8595,,,,,,,,-0.214814805,-0.085185194,0,0,0,,0,100,100,59,1,BURIAL,C,old,m,./images/BURIAL.png,,,,,,,,,,,,,,,,,,,,,,,,,,,,,,,,,,
,,,,,,,,,,,,,,,,,56bfcce79f7a1e0005fdca9e,75,2022-02-12_16h41.44.550,lexical_decision_task_DD_L2,2021.2.3,Win32,59.000531,,,,,,,,,,,,1.0814,1,,,,,,,,,,,,,,m,1,1.0814,,,,,,,,-0.214814805,-0.085185194,0,0,0,,0,101,101,3,1,FINGER,HB,old,m,./images/FINGERHB.png,,,,,,,,,,,,,,,,,,,,,,,,,,,,,,,,,,
,,,,,,,,,,,,,,,,,56bfcce79f7a1e0005fdca9e,75,2022-02-12_16h41.44.550,lexical_decision_task_DD_L2,2021.2.3,Win32,59.000531,,,,,,,,,,,,0.8815,1,,,,,,,,,,,,,,m,1,0.8815,,,,,,,,-0.214814805,-0.085185194,0,0,0,,0,102,102,26,1,SMOKER,C,old,m,./images/SMOKER.png,,,,,,,,,,,,,,,,,,,,,,,,,,,,,,,,,,
,,,,,,,,,,,,,,,,,56bfcce79f7a1e0005fdca9e,75,2022-02-12_16h41.44.550,lexical_decision_task_DD_L2,2021.2.3,Win32,59.000531,,,,,,,,,,,,1.4363,1,,,,,,,,,,,,,,m,1,1.4363,,,,,,,,-0.214814805,-0.085185194,0,0,0,,0,103,103,48,1,SPORT,HB,old,m,./images/SPORTHB.png,,,,,,,,,,,,,,,,,,,,,,,,,,,,,,,,,,
,,,,,,,,,,,,,,,,,56bfcce79f7a1e0005fdca9e,75,2022-02-12_16h41.44.550,lexical_decision_task_DD_L2,2021.2.3,Win32,59.000531,,,,,,,,,,,,1.2932,1,,,,,,,,,,,,,,z,1,1.2932,,,,,,,,-0.214814805,-0.085185194,0,0,0,,0,104,104,122,1,BLOOT,LB,old,z,./images/BLOOTLB.png,,,,,,,,,,,,,,,,,,,,,,,,,,,,,,,,,,
,,,,,,,,,,,,,,,,,56bfcce79f7a1e0005fdca9e,75,2022-02-12_16h41.44.550,lexical_decision_task_DD_L2,2021.2.3,Win32,59.000531,,,,,,,,,,,,2.9648,1,,,,,,,,,,,,,,z,1,2.9648,,,,,,,,-0.214814805,-0.085185194,0,0,0,,0,105,105,139,1,BLEAR,HB,old,z,./images/BLEARHB.png,,,,,,,,,,,,,,,,,,,,,,,,,,,,,,,,,,
,,,,,,,,,,,,,,,,,56bfcce79f7a1e0005fdca9e,75,2022-02-12_16h41.44.550,lexical_decision_task_DD_L2,2021.2.3,Win32,59.000531,,,,,,,,,,,,0.93,1,,,,,,,,,,,,,,m,1,0.93,,,,,,,,-0.214814805,-0.085185194,0,0,0,,0,106,106,47,1,BERRY,C,old,m,./images/BERRY.png,,,,,,,,,,,,,,,,,,,,,,,,,,,,,,,,,,
,,,,,,,,,,,,,,,,,56bfcce79f7a1e0005fdca9e,75,2022-02-12_16h41.44.550,lexical_decision_task_DD_L2,2021.2.3,Win32,59.000531,,,,,,,,,,,,1.2263,1,,,,,,,,,,,,,,z,1,1.2263,,,,,,,,-0.214814805,-0.085185194,0,0,0,,0,107,107,87,1,TRING,C,old,z,./images/TRING.png,,,,,,,,,,,,,,,,,,,,,,,,,,,,,,,,,,
,,,,,,,,,,,,,,,,,56bfcce79f7a1e0005fdca9e,75,2022-02-12_16h41.44.550,lexical_decision_task_DD_L2,2021.2.3,Win32,59.000531,,,,,,,,,,,,1.2701,1,,,,,,,,,,,,,,z,1,1.2701,,,,,,,,-0.214814805,-0.085185194,0,0,0,,0,108,108,150,1,NOOLS,C,old,z,./images/NOOLS.png,,,,,,,,,,,,,,,,,,,,,,,,,,,,,,,,,,
,,,,,,,,,,,,,,,,,56bfcce79f7a1e0005fdca9e,75,2022-02-12_16h41.44.550,lexical_decision_task_DD_L2,2021.2.3,Win32,59.000531,,,,,,,,,,,,1.1003,1,,,,,,,,,,,,,,z,1,1.1003,,,,,,,,-0.214814805,-0.085185194,0,0,0,,0,109,109,140,1,DOVET,LB,old,z,./images/DOVETLB.png,,,,,,,,,,,,,,,,,,,,,,,,,,,,,,,,,,
,,,,,,,,,,,,,,,,,56bfcce79f7a1e0005fdca9e,75,2022-02-12_16h41.44.550,lexical_decision_task_DD_L2,2021.2.3,Win32,59.000531,,,,,,,,,,,,0.8526,1,,,,,,,,,,,,,,m,1,0.8526,,,,,,,,-0.214814805,-0.085185194,0,0,0,,0,110,110,77,1,COUCH,C,old,m,./images/COUCH.png,,,,,,,,,,,,,,,,,,,,,,,,,,,,,,,,,,
,,,,,,,,,,,,,,,,,56bfcce79f7a1e0005fdca9e,75,2022-02-12_16h41.44.550,lexical_decision_task_DD_L2,2021.2.3,Win32,59.000531,,,,,,,,,,,,4.2254,1,,,,,,,,,,,,,,z,1,4.2254,,,,,,,,-0.214814805,-0.085185194,0,0,0,,0,111,111,166,1,SHORY,HB,old,z,./images/SHORYHB.png,,,,,,,,,,,,,,,,,,,,,,,,,,,,,,,,,,
,,,,,,,,,,,,,,,,,56bfcce79f7a1e0005fdca9e,75,2022-02-12_16h41.44.550,lexical_decision_task_DD_L2,2021.2.3,Win32,59.000531,,,,,,,,,,,,1.2344,1,,,,,,,,,,,,,,z,1,1.2344,,,,,,,,-0.214814805,-0.085185194,0,0,0,,0,112,112,156,1,HIXES,C,old,z,./images/HIXES.png,,,,,,,,,,,,,,,,,,,,,,,,,,,,,,,,,,
,,,,,,,,,,,,,,,,,56bfcce79f7a1e0005fdca9e,75,2022-02-12_16h41.44.550,lexical_decision_task_DD_L2,2021.2.3,Win32,59.000531,,,,,,,,,,,,2.3918,0,,,,,,,,,,,,,,m,0,2.3918,,,,,,,,-0.214814805,-0.085185194,0,0,0,,0,113,113,142,1,PLASK,HB,old,z,./images/PLASKHB.png,,,,,,,,,,,,,,,,,,,,,,,,,,,,,,,,,,
,,,,,,,,,,,,,,,,,56bfcce79f7a1e0005fdca9e,75,2022-02-12_16h41.44.550,lexical_decision_task_DD_L2,2021.2.3,Win32,59.000531,,,,,,,,,,,,1.2917,1,,,,,,,,,,,,,,m,1,1.2917,,,,,,,,-0.214814805,-0.085185194,0,0,0,,0,114,114,8,1,TULIP,C,old,m,./images/TULIP.png,,,,,,,,,,,,,,,,,,,,,,,,,,,,,,,,,,
,,,,,,,,,,,,,,,,,56bfcce79f7a1e0005fdca9e,75,2022-02-12_16h41.44.550,lexical_decision_task_DD_L2,2021.2.3,Win32,59.000531,,,,,,,,,,,,1.071,1,,,,,,,,,,,,,,z,1,1.071,,,,,,,,-0.214814805,-0.085185194,0,0,0,,0,115,115,162,1,LEICH,C,old,z,./images/LEICH.png,,,,,,,,,,,,,,,,,,,,,,,,,,,,,,,,,,
,,,,,,,,,,,,,,,,,56bfcce79f7a1e0005fdca9e,75,2022-02-12_16h41.44.550,lexical_decision_task_DD_L2,2021.2.3,Win32,59.000531,,,,,,,,,,,,1.2439,1,,,,,,,,,,,,,,z,1,1.2439,,,,,,,,-0.214814805,-0.085185194,0,0,0,,0,116,116,149,1,VEASE,LB,old,z,./images/VEASELB.png,,,,,,,,,,,,,,,,,,,,,,,,,,,,,,,,,,
,,,,,,,,,,,,,,,,,56bfcce79f7a1e0005fdca9e,75,2022-02-12_16h41.44.550,lexical_decision_task_DD_L2,2021.2.3,Win32,59.000531,,,,,,,,,,,,1.8093,1,,,,,,,,,,,,,,m,1,1.8093,,,,,,,,-0.214814805,-0.085185194,0,0,0,,0,117,117,60,1,TWINS,HB,old,m,./images/TWINSHB.png,,,,,,,,,,,,,,,,,,,,,,,,,,,,,,,,,,
,,,,,,,,,,,,,,,,,56bfcce79f7a1e0005fdca9e,75,2022-02-12_16h41.44.550,lexical_decision_task_DD_L2,2021.2.3,Win32,59.000531,,,,,,,,,,,,0.9214,1,,,,,,,,,,,,,,m,1,0.9214,,,,,,,,-0.214814805,-0.085185194,0,0,0,,0,118,118,37,1,BIRTH,LB,old,m,./images/BIRTHLB.png,,,,,,,,,,,,,,,,,,,,,,,,,,,,,,,,,,
,,,,,,,,,,,,,,,,,56bfcce79f7a1e0005fdca9e,75,2022-02-12_16h41.44.550,lexical_decision_task_DD_L2,2021.2.3,Win32,59.000531,,,,,,,,,,,,4.0016,1,,,,,,,,,,,,,,z,1,4.0016,,,,,,,,-0.214814805,-0.085185194,0,0,0,,0,119,119,163,1,GAMBA,HB,old,z,./images/GAMBAHB.png,,,,,,,,,,,,,,,,,,,,,,,,,,,,,,,,,,
,,,,,,,,,,,,,,,,,56bfcce79f7a1e0005fdca9e,75,2022-02-12_16h41.44.550,lexical_decision_task_DD_L2,2021.2.3,Win32,59.000531,,,,,,,,,,,,1.438,1,,,,,,,,,,,,,,m,1,1.438,,,,,,,,-0.214814805,-0.085185194,0,0,0,,0,120,120,30,1,STORM,HB,old,m,./images/STORMHB.png,,,,,,,,,,,,,,,,,,,,,,,,,,,,,,,,,,
,,,,,,,,,,,,,,,,,56bfcce79f7a1e0005fdca9e,75,2022-02-12_16h41.44.550,lexical_decision_task_DD_L2,2021.2.3,Win32,59.000531,,,,,,,,,,,,2.9155,1,,,,,,,,,,,,,,z,1,2.9155,,,,,,,,-0.214814805,-0.085185194,0,0,0,,0,121,121,151,1,TINKY,HB,old,z,./images/TINKYHB.png,,,,,,,,,,,,,,,,,,,,,,,,,,,,,,,,,,
,,,,,,,,,,,,,,,,,56bfcce79f7a1e0005fdca9e,75,2022-02-12_16h41.44.550,lexical_decision_task_DD_L2,2021.2.3,Win32,59.000531,,,,,,,,,,,,2.7126,1,,,,,,,,,,,,,,z,1,2.7126,,,,,,,,-0.214814805,-0.085185194,0,0,0,,0,122,122,88,1,GLUSH,HB,old,z,./images/GLUSHHB.png,,,,,,,,,,,,,,,,,,,,,,,,,,,,,,,,,,
,,,,,,,,,,,,,,,,,56bfcce79f7a1e0005fdca9e,75,2022-02-12_16h41.44.550,lexical_decision_task_DD_L2,2021.2.3,Win32,59.000531,,,,,,,,,,,,1.0492,1,,,,,,,,,,,,,,z,1,1.0492,,,,,,,,-0.214814805,-0.085185194,0,0,0,,0,123,123,101,1,GLEET,LB,old,z,./images/GLEETLB.png,,,,,,,,,,,,,,,,,,,,,,,,,,,,,,,,,,
,,,,,,,,,,,,,,,,,56bfcce79f7a1e0005fdca9e,75,2022-02-12_16h41.44.550,lexical_decision_task_DD_L2,2021.2.3,Win32,59.000531,,,,,,,,,,,,1.3038,1,,,,,,,,,,,,,,z,1,1.3038,,,,,,,,-0.214814805,-0.085185194,0,0,0,,0,124,124,153,1,CLUPS,C,old,z,./images/CLUPS.png,,,,,,,,,,,,,,,,,,,,,,,,,,,,,,,,,,
,,,,,,,,,,,,,,,,,56bfcce79f7a1e0005fdca9e,75,2022-02-12_16h41.44.550,lexical_decision_task_DD_L2,2021.2.3,Win32,59.000531,,,,,,,,,,,,1.1956,1,,,,,,,,,,,,,,m,1,1.1956,,,,,,,,-0.214814805,-0.085185194,0,0,0,space,0,125,125,42,1,FOLDER,HB,old,m,./images/FOLDERHB.png,10.401,,,,,,,,,,,,,,,,,,,,,,,,,,,,,,,,,
,,,,,,,,,,,,,,,,,56bfcce79f7a1e0005fdca9e,75,2022-02-12_16h41.44.550,lexical_decision_task_DD_L2,2021.2.3,Win32,59.000531,,,,,,,,,,,,2.2725,1,,,,,,,,,,,,,,z,1,2.2725,,,,,,,,-0.214814805,-0.085185194,0,0,0,,0,126,126,133,1,POWDY,HB,old,z,./images/POWDYHB.png,,,,,,,,,,,,,,,,,,,,,,,,,,,,,,,,,,
,,,,,,,,,,,,,,,,,56bfcce79f7a1e0005fdca9e,75,2022-02-12_16h41.44.550,lexical_decision_task_DD_L2,2021.2.3,Win32,59.000531,,,,,,,,,,,,1.8455,1,,,,,,,,,,,,,,z,1,1.8455,,,,,,,,-0.214814805,-0.085185194,0,0,0,,0,127,127,86,1,AIFED,LB,old,z,./images/AIFEDLB.png,,,,,,,,,,,,,,,,,,,,,,,,,,,,,,,,,,
,,,,,,,,,,,,,,,,,56bfcce79f7a1e0005fdca9e,75,2022-02-12_16h41.44.550,lexical_decision_task_DD_L2,2021.2.3,Win32,59.000531,,,,,,,,,,,,1.1855,1,,,,,,,,,,,,,,m,1,1.1855,,,,,,,,-0.214814805,-0.085185194,0,0,0,,0,128,128,82,1,SUNSET,LB,old,m,./images/SUNSETLB.png,,,,,,,,,,,,,,,,,,,,,,,,,,,,,,,,,,
,,,,,,,,,,,,,,,,,56bfcce79f7a1e0005fdca9e,75,2022-02-12_16h41.44.550,lexical_decision_task_DD_L2,2021.2.3,Win32,59.000531,,,,,,,,,,,,1.2729,1,,,,,,,,,,,,,,m,1,1.2729,,,,,,,,-0.214814805,-0.085185194,0,0,0,,0,129,129,51,1,ONION,HB,old,m,./images/ONIONHB.png,,,,,,,,,,,,,,,,,,,,,,,,,,,,,,,,,,
,,,,,,,,,,,,,,,,,56bfcce79f7a1e0005fdca9e,75,2022-02-12_16h41.44.550,lexical_decision_task_DD_L2,2021.2.3,Win32,59.000531,,,,,,,,,,,,1.6836,1,,,,,,,,,,,,,,z,1,1.6836,,,,,,,,-0.214814805,-0.085185194,0,0,0,,0,130,130,99,1,BACKY,C,old,z,./images/BACKY.png,,,,,,,,,,,,,,,,,,,,,,,,,,,,,,,,,,
,,,,,,,,,,,,,,,,,56bfcce79f7a1e0005fdca9e,75,2022-02-12_16h41.44.550,lexical_decision_task_DD_L2,2021.2.3,Win32,59.000531,,,,,,,,,,,,1.1091,1,,,,,,,,,,,,,,m,1,1.1091,,,,,,,,-0.214814805,-0.085185194,0,0,0,,0,131,131,29,1,CRUMB,C,old,m,./images/CRUMB.png,,,,,,,,,,,,,,,,,,,,,,,,,,,,,,,,,,
,,,,,,,,,,,,,,,,,56bfcce79f7a1e0005fdca9e,75,2022-02-12_16h41.44.550,lexical_decision_task_DD_L2,2021.2.3,Win32,59.000531,,,,,,,,,,,,1.3059,1,,,,,,,,,,,,,,z,1,1.3059,,,,,,,,-0.214814805,-0.085185194,0,0,0,,0,132,132,105,1,MOKER,C,old,z,./images/MOKER.png,,,,,,,,,,,,,,,,,,,,,,,,,,,,,,,,,,
,,,,,,,,,,,,,,,,,56bfcce79f7a1e0005fdca9e,75,2022-02-12_16h41.44.550,lexical_decision_task_DD_L2,2021.2.3,Win32,59.000531,,,,,,,,,,,,2.2401,1,,,,,,,,,,,,,,z,1,2.2401,,,,,,,,-0.214814805,-0.085185194,0,0,0,,0,133,133,138,1,PLICE,C,old,z,./images/PLICE.png,,,,,,,,,,,,,,,,,,,,,,,,,,,,,,,,,,
,,,,,,,,,,,,,,,,,56bfcce79f7a1e0005fdca9e,75,2022-02-12_16h41.44.550,lexical_decision_task_DD_L2,2021.2.3,Win32,59.000531,,,,,,,,,,,,1.4172,1,,,,,,,,,,,,,,z,1,1.4172,,,,,,,,-0.214814805,-0.085185194,0,0,0,,0,134,134,158,1,EGECT,LB,old,z,./images/EGECTLB.png,,,,,,,,,,,,,,,,,,,,,,,,,,,,,,,,,,
,,,,,,,,,,,,,,,,,56bfcce79f7a1e0005fdca9e,75,2022-02-12_16h41.44.550,lexical_decision_task_DD_L2,2021.2.3,Win32,59.000531,,,,,,,,,,,,1.994,1,,,,,,,,,,,,,,z,1,1.994,,,,,,,,-0.214814805,-0.085185194,0,0,0,,0,135,135,128,1,GRIFT,LB,old,z,./images/GRIFTLB.png,,,,,,,,,,,,,,,,,,,,,,,,,,,,,,,,,,
,,,,,,,,,,,,,,,,,56bfcce79f7a1e0005fdca9e,75,2022-02-12_16h41.44.550,lexical_decision_task_DD_L2,2021.2.3,Win32,59.000531,,,,,,,,,,,,1.6857,1,,,,,,,,,,,,,,z,1,1.6857,,,,,,,,-0.214814805,-0.085185194,0,0,0,,0,136,136,148,1,JOMS,HB,old,z,./images/JOMSHB.png,,,,,,,,,,,,,,,,,,,,,,,,,,,,,,,,,,
,,,,,,,,,,,,,,,,,56bfcce79f7a1e0005fdca9e,75,2022-02-12_16h41.44.550,lexical_decision_task_DD_L2,2021.2.3,Win32,59.000531,,,,,,,,,,,,1.0498,1,,,,,,,,,,,,,,m,1,1.0498,,,,,,,,-0.214814805,-0.085185194,0,0,0,,0,137,137,15,1,GREASE,HB,old,m,./images/GREASEHB.png,,,,,,,,,,,,,,,,,,,,,,,,,,,,,,,,,,
,,,,,,,,,,,,,,,,,56bfcce79f7a1e0005fdca9e,75,2022-02-12_16h41.44.550,lexical_decision_task_DD_L2,2021.2.3,Win32,59.000531,,,,,,,,,,,,2.6215,1,,,,,,,,,,,,,,z,1,2.6215,,,,,,,,-0.214814805,-0.085185194,0,0,0,,0,138,138,124,1,TUNCH,HB,old,z,./images/TUNCHHB.png,,,,,,,,,,,,,,,,,,,,,,,,,,,,,,,,,,
,,,,,,,,,,,,,,,,,56bfcce79f7a1e0005fdca9e,75,2022-02-12_16h41.44.550,lexical_decision_task_DD_L2,2021.2.3,Win32,59.000531,,,,,,,,,,,,3.0994,0,,,,,,,,,,,,,,m,0,3.0994,,,,,,,,-0.214814805,-0.085185194,0,0,0,,0,139,139,103,1,FLORT,HB,old,z,./images/FLORTHB.png,,,,,,,,,,,,,,,,,,,,,,,,,,,,,,,,,,
,,,,,,,,,,,,,,,,,56bfcce79f7a1e0005fdca9e,75,2022-02-12_16h41.44.550,lexical_decision_task_DD_L2,2021.2.3,Win32,59.000531,,,,,,,,,,,,1.0796,1,,,,,,,,,,,,,,z,1,1.0796,,,,,,,,-0.214814805,-0.085185194,0,0,0,,0,140,140,135,1,JOODY,C,old,z,./images/JOODY.png,,,,,,,,,,,,,,,,,,,,,,,,,,,,,,,,,,
,,,,,,,,,,,,,,,,,56bfcce79f7a1e0005fdca9e,75,2022-02-12_16h41.44.550,lexical_decision_task_DD_L2,2021.2.3,Win32,59.000531,,,,,,,,,,,,2.1793,0,,,,,,,,,,,,,,m,0,2.1793,,,,,,,,-0.214814805,-0.085185194,0,0,0,,0,141,141,144,1,NAIRY,C,old,z,./images/NAIRY.png,,,,,,,,,,,,,,,,,,,,,,,,,,,,,,,,,,
,,,,,,,,,,,,,,,,,56bfcce79f7a1e0005fdca9e,75,2022-02-12_16h41.44.550,lexical_decision_task_DD_L2,2021.2.3,Win32,59.000531,,,,,,,,,,,,1.0388,1,,,,,,,,,,,,,,z,1,1.0388,,,,,,,,-0.214814805,-0.085185194,0,0,0,,0,142,142,129,1,PRANS,C,old,z,./images/PRANS.png,,,,,,,,,,,,,,,,,,,,,,,,,,,,,,,,,,
,,,,,,,,,,,,,,,,,56bfcce79f7a1e0005fdca9e,75,2022-02-12_16h41.44.550,lexical_decision_task_DD_L2,2021.2.3,Win32,59.000531,,,,,,,,,,,,1.099,1,,,,,,,,,,,,,,z,1,1.099,,,,,,,,-0.214814805,-0.085185194,0,0,0,,0,143,143,132,1,SCIFF,C,old,z,./images/SCIFF.png,,,,,,,,,,,,,,,,,,,,,,,,,,,,,,,,,,
,,,,,,,,,,,,,,,,,56bfcce79f7a1e0005fdca9e,75,2022-02-12_16h41.44.550,lexical_decision_task_DD_L2,2021.2.3,Win32,59.000531,,,,,,,,,,,,1.097,1,,,,,,,,,,,,,,z,1,1.097,,,,,,,,-0.214814805,-0.085185194,0,0,0,,0,144,144,137,1,JOOST,LB,old,z,./images/JOOSTLB.png,,,,,,,,,,,,,,,,,,,,,,,,,,,,,,,,,,
,,,,,,,,,,,,,,,,,56bfcce79f7a1e0005fdca9e,75,2022-02-12_16h41.44.550,lexical_decision_task_DD_L2,2021.2.3,Win32,59.000531,,,,,,,,,,,,0.877,1,,,,,,,,,,,,,,m,1,0.877,,,,,,,,-0.214814805,-0.085185194,0,0,0,,0,145,145,14,1,PICKLE,C,old,m,./images/PICKLE.png,,,,,,,,,,,,,,,,,,,,,,,,,,,,,,,,,,
,,,,,,,,,,,,,,,,,56bfcce79f7a1e0005fdca9e,75,2022-02-12_16h41.44.550,lexical_decision_task_DD_L2,2021.2.3,Win32,59.000531,,,,,,,,,,,,1.0163,1,,,,,,,,,,,,,,m,1,1.0163,,,,,,,,-0.214814805,-0.085185194,0,0,0,,0,146,146,50,1,MALLET,C,old,m,./images/MALLET.png,,,,,,,,,,,,,,,,,,,,,,,,,,,,,,,,,,
,,,,,,,,,,,,,,,,,56bfcce79f7a1e0005fdca9e,75,2022-02-12_16h41.44.550,lexical_decision_task_DD_L2,2021.2.3,Win32,59.000531,,,,,,,,,,,,1.5041,1,,,,,,,,,,,,,,m,1,1.5041,,,,,,,,-0.214814805,-0.085185194,0,0,0,,0,147,147,54,1,TRIPOD,HB,old,m,./images/TRIPODHB.png,,,,,,,,,,,,,,,,,,,,,,,,,,,,,,,,,,
,,,,,,,,,,,,,,,,,56bfcce79f7a1e0005fdca9e,75,2022-02-12_16h41.44.550,lexical_decision_task_DD_L2,2021.2.3,Win32,59.000531,,,,,,,,,,,,3.8648,0,,,,,,,,,,,,,,z,0,3.8648,,,,,,,,-0.214814805,-0.085185194,0,0,0,,0,148,148,33,1,MAGGOT,HB,old,m,./images/MAGGOTHB.png,,,,,,,,,,,,,,,,,,,,,,,,,,,,,,,,,,
,,,,,,,,,,,,,,,,,56bfcce79f7a1e0005fdca9e,75,2022-02-12_16h41.44.550,lexical_decision_task_DD_L2,2021.2.3,Win32,59.000531,,,,,,,,,,,,1.2812,1,,,,,,,,,,,,,,m,1,1.2812,,,,,,,,-0.214814805,-0.085185194,0,0,0,,0,149,149,13,1,MOTOR,LB,old,m,./images/MOTORLB.png,,,,,,,,,,,,,,,,,,,,,,,,,,,,,,,,,,
,,,,,,,,,,,,,,,,,56bfcce79f7a1e0005fdca9e,75,2022-02-12_16h41.44.550,lexical_decision_task_DD_L2,2021.2.3,Win32,59.000531,,,,,,,,,,,,3.0529,1,,,,,,,,,,,,,,z,1,3.0529,,,,,,,,-0.214814805,-0.085185194,0,0,0,,0,150,150,94,1,BLANS,HB,old,z,./images/BLANSHB.png,,,,,,,,,,,,,,,,,,,,,,,,,,,,,,,,,,
,,,,,,,,,,,,,,,,,56bfcce79f7a1e0005fdca9e,75,2022-02-12_16h41.44.550,lexical_decision_task_DD_L2,2021.2.3,Win32,59.000531,,,,,,,,,,,,1.1855,1,,,,,,,,,,,,,,z,1,1.1855,,,,,,,,-0.214814805,-0.085185194,0,0,0,,0,151,151,89,1,DRIEK,LB,old,z,./images/DRIEKLB.png,,,,,,,,,,,,,,,,,,,,,,,,,,,,,,,,,,
,,,,,,,,,,,,,,,,,56bfcce79f7a1e0005fdca9e,75,2022-02-12_16h41.44.550,lexical_decision_task_DD_L2,2021.2.3,Win32,59.000531,,,,,,,,,,,,2.9828,1,,,,,,,,,,,,,,z,1,2.9828,,,,,,,,-0.214814805,-0.085185194,0,0,0,,0,152,152,121,1,CEERS,HB,old,z,./images/CEERSHB.png,,,,,,,,,,,,,,,,,,,,,,,,,,,,,,,,,,
,,,,,,,,,,,,,,,,,56bfcce79f7a1e0005fdca9e,75,2022-02-12_16h41.44.550,lexical_decision_task_DD_L2,2021.2.3,Win32,59.000531,,,,,,,,,,,,1.2693,1,,,,,,,,,,,,,,z,1,1.2693,,,,,,,,-0.214814805,-0.085185194,0,0,0,,0,153,153,159,1,CUDDY,C,old,z,./images/CUDDY.png,,,,,,,,,,,,,,,,,,,,,,,,,,,,,,,,,,
,,,,,,,,,,,,,,,,,56bfcce79f7a1e0005fdca9e,75,2022-02-12_16h41.44.550,lexical_decision_task_DD_L2,2021.2.3,Win32,59.000531,,,,,,,,,,,,1.216,1,,,,,,,,,,,,,,z,1,1.216,,,,,,,,-0.214814805,-0.085185194,0,0,0,,0,154,154,119,1,PAFER,LB,old,z,./images/PAFERLB.png,,,,,,,,,,,,,,,,,,,,,,,,,,,,,,,,,,
,,,,,,,,,,,,,,,,,56bfcce79f7a1e0005fdca9e,75,2022-02-12_16h41.44.550,lexical_decision_task_DD_L2,2021.2.3,Win32,59.000531,,,,,,,,,,,,2.2029,1,,,,,,,,,,,,,,z,1,2.2029,,,,,,,,-0.214814805,-0.085185194,0,0,0,,0,155,155,120,1,RINED,C,old,z,./images/RINED.png,,,,,,,,,,,,,,,,,,,,,,,,,,,,,,,,,,
,,,,,,,,,,,,,,,,,56bfcce79f7a1e0005fdca9e,75,2022-02-12_16h41.44.550,lexical_decision_task_DD_L2,2021.2.3,Win32,59.000531,,,,,,,,,,,,1.436,1,,,,,,,,,,,,,,m,1,1.436,,,,,,,,-0.214814805,-0.085185194,0,0,0,,0,156,156,72,1,NOOSE,HB,old,m,./images/NOOSEHB.png,,,,,,,,,,,,,,,,,,,,,,,,,,,,,,,,,,
,,,,,,,,,,,,,,,,,56bfcce79f7a1e0005fdca9e,75,2022-02-12_16h41.44.550,lexical_decision_task_DD_L2,2021.2.3,Win32,59.000531,,,,,,,,,,,,1.1305,1,,,,,,,,,,,,,,m,1,1.1305,,,,,,,,-0.214814805,-0.085185194,0,0,0,,0,157,157,1,1,PLANK,LB,old,m,./images/PLANKLB.png,,,,,,,,,,,,,,,,,,,,,,,,,,,,,,,,,,
,,,,,,,,,,,,,,,,,56bfcce79f7a1e0005fdca9e,75,2022-02-12_16h41.44.550,lexical_decision_task_DD_L2,2021.2.3,Win32,59.000531,,,,,,,,,,,,0.9727,1,,,,,,,,,,,,,,m,1,0.9727,,,,,,,,-0.214814805,-0.085185194,0,0,0,,0,158,158,67,1,SAILOR,LB,old,m,./images/SAILORLB.png,,,,,,,,,,,,,,,,,,,,,,,,,,,,,,,,,,
,,,,,,,,,,,,,,,,,56bfcce79f7a1e0005fdca9e,75,2022-02-12_16h41.44.550,lexical_decision_task_DD_L2,2021.2.3,Win32,59.000531,,,,,,,,,,,,1.4937,1,,,,,,,,,,,,,,z,1,1.4937,,,,,,,,-0.214814805,-0.085185194,0,0,0,,0,159,159,95,1,HANTY,LB,old,z,./images/HANTYLB.png,,,,,,,,,,,,,,,,,,,,,,,,,,,,,,,,,,
,,,,,,,,,,,,,,,,,56bfcce79f7a1e0005fdca9e,75,2022-02-12_16h41.44.550,lexical_decision_task_DD_L2,2021.2.3,Win32,59.000531,,,,,,,,,,,,0.9105,1,,,,,,,,,,,,,,m,1,0.9105,,,,,,,,-0.214814805,-0.085185194,0,0,0,,0,160,160,49,1,DRUMS,LB,old,m,./images/DRUMSLB.png,,,,,,,,,,,,,,,,,,,,,,,,,,,,,,,,,,
,,,,,,,,,,,,,,,,,56bfcce79f7a1e0005fdca9e,75,2022-02-12_16h41.44.550,lexical_decision_task_DD_L2,2021.2.3,Win32,59.000531,,,,,,,,,,,,0.9072,1,,,,,,,,,,,,,,m,1,0.9072,,,,,,,,-0.214814805,-0.085185194,0,0,0,,0,161,161,11,1,BONNET,C,old,m,./images/BONNET.png,,,,,,,,,,,,,,,,,,,,,,,,,,,,,,,,,,
,,,,,,,,,,,,,,,,,56bfcce79f7a1e0005fdca9e,75,2022-02-12_16h41.44.550,lexical_decision_task_DD_L2,2021.2.3,Win32,59.000531,,,,,,,,,,,,1.2974,1,,,,,,,,,,,,,,m,1,1.2974,,,,,,,,-0.214814805,-0.085185194,0,0,0,,0,162,162,27,1,ATTIC,HB,old,m,./images/ATTICHB.png,,,,,,,,,,,,,,,,,,,,,,,,,,,,,,,,,,
,,,,,,,,,,,,,,,,,56bfcce79f7a1e0005fdca9e,75,2022-02-12_16h41.44.550,lexical_decision_task_DD_L2,2021.2.3,Win32,59.000531,,,,,,,,,,,,0.8819,1,,,,,,,,,,,,,,m,1,0.8819,,,,,,,,-0.214814805,-0.085185194,0,0,0,,0,163,163,73,1,SNACK,LB,old,m,./images/SNACKLB.png,,,,,,,,,,,,,,,,,,,,,,,,,,,,,,,,,,
,,,,,,,,,,,,,,,,,56bfcce79f7a1e0005fdca9e,75,2022-02-12_16h41.44.550,lexical_decision_task_DD_L2,2021.2.3,Win32,59.000531,,,,,,,,,,,,1.6827,1,,,,,,,,,,,,,,m,1,1.6827,,,,,,,,-0.214814805,-0.085185194,0,0,0,,0,164,164,17,1,SKIING,C,old,m,./images/SKIING.png,,,,,,,,,,,,,,,,,,,,,,,,,,,,,,,,,,
,,,,,,,,,,,,,,,,,56bfcce79f7a1e0005fdca9e,75,2022-02-12_16h41.44.550,lexical_decision_task_DD_L2,2021.2.3,Win32,59.000531,,,,,,,,,,,,0.9083,1,,,,,,,,,,,,,,m,1,0.9083,,,,,,,,-0.214814805,-0.085185194,0,0,0,,0,165,165,65,1,FARMER,C,old,m,./images/FARMER.png,,,,,,,,,,,,,,,,,,,,,,,,,,,,,,,,,,
,,,,,,,,,,,,,,,,,56bfcce79f7a1e0005fdca9e,75,2022-02-12_16h41.44.550,lexical_decision_task_DD_L2,2021.2.3,Win32,59.000531,,,,,,,,,,,,4.1946,1,,,,,,,,,,,,,,z,1,4.1946,,,,,,,,-0.214814805,-0.085185194,0,0,0,,0,166,166,118,1,BAVEL,HB,old,z,./images/BAVELHB.png,,,,,,,,,,,,,,,,,,,,,,,,,,,,,,,,,,
,,,,,,,,,,,,,,,,,56bfcce79f7a1e0005fdca9e,75,2022-02-12_16h41.44.550,lexical_decision_task_DD_L2,2021.2.3,Win32,59.000531,,,,,,,,,,,,2.1748,1,,,,,,,,,,,,,,z,1,2.1748,,,,,,,,-0.214814805,-0.085185194,0,0,0,,0,167,167,102,1,DULLE,C,old,z,./images/DULLE.png,,,,,,,,,,,,,,,,,,,,,,,,,,,,,,,,,,
,,,,,,,,,,,,,,,,,56bfcce79f7a1e0005fdca9e,75,2022-02-12_16h41.44.550,lexical_decision_task_DD_L2,2021.2.3,Win32,59.000531,,,,,,,,,,,,,,,,,,,,,,,,,,,,,,,,,,,,,,,,,,,,,,,,,How likely will it be that you will recognize the words presented clearly on a scale of 0 (not likely) to 100 (most likely)?,,,,,-0.018518506,-0.39629631,1,0,0,jol_adv,5,32.4232,0,0,0,0,1,,,,,,,,,,,,,,,,,,,,
,,,,,,,,,,,,,,,,,56bfcce79f7a1e0005fdca9e,75,2022-02-12_16h41.44.550,lexical_decision_task_DD_L2,2021.2.3,Win32,59.000531,,,,,,,,,,,,,,,,,,,,,,,,,,,,,,,,,,,,,,,,,,,,,,,,,How likely will it be that you will recognize the words presented very blurred on a scale of 0 (not likely) to 100 (most likely)?,,,,,,,,,,,2,8.5969,0,1,1,2,1,,,,,,,,,,,,,,,,,,,,
,,,,,,,,,,,,,,,,,56bfcce79f7a1e0005fdca9e,75,2022-02-12_16h41.44.550,lexical_decision_task_DD_L2,2021.2.3,Win32,59.000531,,,,,,,,,,,,,,,,,,,,,,,,,,,,,,,,,,,,,,,,,,,,,,,,,How likely will it be that you will recognize the words presented slighly blurred on a scale of 0 (not likely) to 100 (most likely)?,,,,,,,,,,,4,9.0305,0,2,2,1,1,,,,,,,,,,,,,,,,,,,,
space,-0.521296291,-0.015740748,0,0,0,,,,,,,1,test,"In the next phase you will be presented with the words from the the first phase. Your job is to decide whether you remember seeing the word or not. If you remember seeing the word press ""old"" or type ""m"". If you do not remember seeing the word press ""new"" or type ""z"". Please press the space bar or click on continue to begin. ",,,56bfcce79f7a1e0005fdca9e,75,2022-02-12_16h41.44.550,lexical_decision_task_DD_L2,2021.2.3,Win32,59.000531,30.9953,,,,,,,,,,,,,,,,,,,,,,,,,,,,,,,,,,,,,,,,,,,,,,,,,,,,,,,,,,,,,,,,,,0,0,0,0,1,,,,,,,,,,,,,,,
space,-0.521296291,-0.015740748,0,0,0,,,,,,,1,test,"In the next phase you will be presented with the words from the the first phase. Your job is to decide whether you remember seeing the word or not. If you remember seeing the word press ""old"" or type ""m"". If you do not remember seeing the word press ""new"" or type ""z"". Please press the space bar or click on continue to begin. ",,,56bfcce79f7a1e0005fdca9e,75,2022-02-12_16h41.44.550,lexical_decision_task_DD_L2,2021.2.3,Win32,59.000531,2.6699,,,,,,,,,,,,,,,,,,,,,,,,,,,,,,,,,,,,,,,,,,,,,,,,,,,,,,,,,,,,,,,,,,1,0,1,0,1,,,,,,,,,,,,,,,
,-0.115740729,-0.375925939,1,0,0,instr_done_button,,,,,,1,test,"In the next phase you will be presented with the words from the the first phase. Your job is to decide whether you remember seeing the word or not. If you remember seeing the word press ""old"" or type ""m"". If you do not remember seeing the word press ""new"" or type ""z"". Please press the space bar or click on continue to begin. ",,,56bfcce79f7a1e0005fdca9e,75,2022-02-12_16h41.44.550,lexical_decision_task_DD_L2,2021.2.3,Win32,59.000531,,,,,,,,,,,,,,,,,,,,,,,,,,,,,,,,,,,,,,,,,,,,,,,,,,,,,,,,,,,,,,,,,,,2,0,2,0,1,,,,,,,,,,,,,,,
,-0.020370357,-0.38703705,1,0,0,instr_done_button,,,,,,1,test,"In the next phase you will be presented with the words from the the first phase. Your job is to decide whether you remember seeing the word or not. If you remember seeing the word press ""old"" or type ""m"". If you do not remember seeing the word press ""new"" or type ""z"". Please press the space bar or click on continue to begin. ",,,56bfcce79f7a1e0005fdca9e,75,2022-02-12_16h41.44.550,lexical_decision_task_DD_L2,2021.2.3,Win32,59.000531,,,,,,,,,,,,,,,,,,,,,,,,,,,,,,,,,,,,,,,,,,,,,,,,,,,,,,,,,,,,,,,,,,,3,0,3,0,1,,,,,,,,,,,,,,,
,-0.028703691,-0.40000007,1,0,0,instr_done_button,,,,,,1,test,"In the next phase you will be presented with the words from the the first phase. Your job is to decide whether you remember seeing the word or not. If you remember seeing the word press ""old"" or type ""m"". If you do not remember seeing the word press ""new"" or type ""z"". Please press the space bar or click on continue to begin. ",,,56bfcce79f7a1e0005fdca9e,75,2022-02-12_16h41.44.550,lexical_decision_task_DD_L2,2021.2.3,Win32,59.000531,,,,,,,,,,,,,,,,,,,,,,,,,,,,,,,,,,,,,,,,,,,,,,,,,,,,,,,,,,,,,,,,,,,4,0,4,0,1,,,,,,,,,,,,,,,
,,,,,,,,,,,,,,,,,56bfcce79f7a1e0005fdca9e,75,2022-02-12_16h41.44.550,lexical_decision_task_DD_L2,2021.2.3,Win32,59.000531,,,,,,,,,,,,4.1179,1,,,,,,,,,,,,,,,,,,,,,,,,-0.408333326,-0.443518533,0,0,0,,,,,,,DONKEY,LB,z,y,./images/DONKEYLB.png,,,,,,,,,,,,,,,,,,,,z,1,4.1179,,,,,,,,0,0,0,103,1
,,,,,,,,,,,,,,,,,56bfcce79f7a1e0005fdca9e,75,2022-02-12_16h41.44.550,lexical_decision_task_DD_L2,2021.2.3,Win32,59.000531,,,,,,,,,,,,1.4174,1,,,,,,,,,,,,,,,,,,,,,,,,-0.408333326,-0.443518533,0,0,0,,,,,,,MOOSE,HB,m,y,./images/MOOSEHB.png,,,,,,,,,,,,,,,,,,,,m,1,1.4174,,,,,,,,0,1,1,57,1
,,,,,,,,,,,,,,,,,56bfcce79f7a1e0005fdca9e,75,2022-02-12_16h41.44.550,lexical_decision_task_DD_L2,2021.2.3,Win32,59.000531,,,,,,,,,,,,3.4952,1,,,,,,,,,,,,,,,,,,,,,,,,-0.408333326,-0.443518533,0,0,0,,,,,,,SHIELD,HB,z,y,./images/SHIELDHB.png,,,,,,,,,,,,,,,,,,,,z,1,3.4952,,,,,,,,0,2,2,132,1
,,,,,,,,,,,,,,,,,56bfcce79f7a1e0005fdca9e,75,2022-02-12_16h41.44.550,lexical_decision_task_DD_L2,2021.2.3,Win32,59.000531,,,,,,,,,,,,1.4942,1,,,,,,,,,,,,,,,,,,,,,,,,-0.408333326,-0.443518533,0,0,0,,,,,,,ARTIST,LB,z,y,./images/ARTISTLB.png,,,,,,,,,,,,,,,,,,,,z,1,1.4942,,,,,,,,0,3,3,145,1
,,,,,,,,,,,,,,,,,56bfcce79f7a1e0005fdca9e,75,2022-02-12_16h41.44.550,lexical_decision_task_DD_L2,2021.2.3,Win32,59.000531,,,,,,,,,,,,1.3006,1,,,,,,,,,,,,,,,,,,,,,,,,-0.408333326,-0.443518533,0,0,0,,,,,,,TIGER,LB,z,y,./images/TIGERLB.png,,,,,,,,,,,,,,,,,,,,z,1,1.3006,,,,,,,,0,4,4,121,1
,,,,,,,,,,,,,,,,,56bfcce79f7a1e0005fdca9e,75,2022-02-12_16h41.44.550,lexical_decision_task_DD_L2,2021.2.3,Win32,59.000531,,,,,,,,,,,,1.0377,1,,,,,,,,,,,,,,,,,,,,,,,,-0.408333326,-0.443518533,0,0,0,,,,,,,PACKET,C,m,y,./images/PACKET.png,,,,,,,,,,,,,,,,,,,,m,1,1.0377,,,,,,,,0,5,5,56,1
,,,,,,,,,,,,,,,,,56bfcce79f7a1e0005fdca9e,75,2022-02-12_16h41.44.550,lexical_decision_task_DD_L2,2021.2.3,Win32,59.000531,,,,,,,,,,,,1.3588,1,,,,,,,,,,,,,,,,,,,,,,,,-0.408333326,-0.443518533,0,0,0,,,,,,,BURIAL,C,m,y,./images/BURIAL.png,,,,,,,,,,,,,,,,,,,,m,1,1.3588,,,,,,,,0,6,6,59,1
,,,,,,,,,,,,,,,,,56bfcce79f7a1e0005fdca9e,75,2022-02-12_16h41.44.550,lexical_decision_task_DD_L2,2021.2.3,Win32,59.000531,,,,,,,,,,,,1.1073,1,,,,,,,,,,,,,,,,,,,,,,,,-0.408333326,-0.443518533,0,0,0,,,,,,,FALCON,LB,m,y,./images/FALCONLB.png,,,,,,,,,,,,,,,,,,,,m,1,1.1073,,,,,,,,0,7,7,28,1
,,,,,,,,,,,,,,,,,56bfcce79f7a1e0005fdca9e,75,2022-02-12_16h41.44.550,lexical_decision_task_DD_L2,2021.2.3,Win32,59.000531,,,,,,,,,,,,1.1838,1,,,,,,,,,,,,,,,,,,,,,,,,-0.408333326,-0.443518533,0,0,0,,,,,,,MUSCLE,LB,m,y,./images/MUSCLELB.png,,,,,,,,,,,,,,,,,,,,m,1,1.1838,,,,,,,,0,8,8,4,1
,,,,,,,,,,,,,,,,,56bfcce79f7a1e0005fdca9e,75,2022-02-12_16h41.44.550,lexical_decision_task_DD_L2,2021.2.3,Win32,59.000531,,,,,,,,,,,,3.9159,0,,,,,,,,,,,,,,,,,,,,,,,,-0.408333326,-0.443518533,0,0,0,,,,,,,SLOPE,HB,z,y,./images/SLOPEHB.png,,,,,,,,,,,,,,,,,,,,m,0,3.9159,,,,,,,,0,9,9,114,1
,,,,,,,,,,,,,,,,,56bfcce79f7a1e0005fdca9e,75,2022-02-12_16h41.44.550,lexical_decision_task_DD_L2,2021.2.3,Win32,59.000531,,,,,,,,,,,,1.1507,1,,,,,,,,,,,,,,,,,,,,,,,,-0.408333326,-0.443518533,0,0,0,,,,,,,SKIING,C,m,y,./images/SKIING.png,,,,,,,,,,,,,,,,,,,,m,1,1.1507,,,,,,,,0,10,10,17,1
,,,,,,,,,,,,,,,,,56bfcce79f7a1e0005fdca9e,75,2022-02-12_16h41.44.550,lexical_decision_task_DD_L2,2021.2.3,Win32,59.000531,,,,,,,,,,,,1.079,1,,,,,,,,,,,,,,,,,,,,,,,,-0.408333326,-0.443518533,0,0,0,,,,,,,KIDNEY,HB,m,y,./images/KIDNEYHB.png,,,,,,,,,,,,,,,,,,,,m,1,1.079,,,,,,,,0,11,11,21,1
,,,,,,,,,,,,,,,,,56bfcce79f7a1e0005fdca9e,75,2022-02-12_16h41.44.550,lexical_decision_task_DD_L2,2021.2.3,Win32,59.000531,,,,,,,,,,,,1.7625,1,,,,,,,,,,,,,,,,,,,,,,,,-0.408333326,-0.443518533,0,0,0,,,,,,,CHAIN,HB,z,y,./images/CHAINHB.png,,,,,,,,,,,,,,,,,,,,z,1,1.7625,,,,,,,,0,12,12,126,1
,,,,,,,,,,,,,,,,,56bfcce79f7a1e0005fdca9e,75,2022-02-12_16h41.44.550,lexical_decision_task_DD_L2,2021.2.3,Win32,59.000531,,,,,,,,,,,,3.1233,1,,,,,,,,,,,,,,,,,,,,,,,,-0.408333326,-0.443518533,0,0,0,,,,,,,BRUSH,C,z,y,./images/BRUSH.png,,,,,,,,,,,,,,,,,,,,z,1,3.1233,,,,,,,,0,13,13,143,1
,,,,,,,,,,,,,,,,,56bfcce79f7a1e0005fdca9e,75,2022-02-12_16h41.44.550,lexical_decision_task_DD_L2,2021.2.3,Win32,59.000531,,,,,,,,,,,,2.4447,1,,,,,,,,,,,,,,,,,,,,,,,,-0.408333326,-0.443518533,0,0,0,,,,,,,PLANK,LB,m,y,./images/PLANKLB.png,,,,,,,,,,,,,,,,,,,,m,1,2.4447,,,,,,,,0,14,14,1,1
,,,,,,,,,,,,,,,,,56bfcce79f7a1e0005fdca9e,75,2022-02-12_16h41.44.550,lexical_decision_task_DD_L2,2021.2.3,Win32,59.000531,,,,,,,,,,,,2.8704,1,,,,,,,,,,,,,,,,,,,,,,,,-0.408333326,-0.443518533,0,0,0,,,,,,,CRUMB,C,m,y,./images/CRUMB.png,,,,,,,,,,,,,,,,,,,,m,1,2.8704,,,,,,,,0,15,15,29,1
,,,,,,,,,,,,,,,,,56bfcce79f7a1e0005fdca9e,75,2022-02-12_16h41.44.550,lexical_decision_task_DD_L2,2021.2.3,Win32,59.000531,,,,,,,,,,,,1.7965,1,,,,,,,,,,,,,,,,,,,,,,,,-0.408333326,-0.443518533,0,0,0,,,,,,,DIVER,HB,z,y,./images/DIVERHB.png,,,,,,,,,,,,,,,,,,,,z,1,1.7965,,,,,,,,0,16,16,93,1
,,,,,,,,,,,,,,,,,56bfcce79f7a1e0005fdca9e,75,2022-02-12_16h41.44.550,lexical_decision_task_DD_L2,2021.2.3,Win32,59.000531,,,,,,,,,,,,1.9001,1,,,,,,,,,,,,,,,,,,,,,,,,-0.408333326,-0.443518533,0,0,0,,,,,,,THROAT,HB,m,y,./images/THROATHB.png,,,,,,,,,,,,,,,,,,,,m,1,1.9001,,,,,,,,0,17,17,36,1
,,,,,,,,,,,,,,,,,56bfcce79f7a1e0005fdca9e,75,2022-02-12_16h41.44.550,lexical_decision_task_DD_L2,2021.2.3,Win32,59.000531,,,,,,,,,,,,1.0326,0,,,,,,,,,,,,,,,,,,,,,,,,-0.408333326,-0.443518533,0,0,0,,,,,,,WAGON,LB,z,y,./images/WAGONLB.png,,,,,,,,,,,,,,,,,,,,m,0,1.0326,,,,,,,,0,18,18,91,1
,,,,,,,,,,,,,,,,,56bfcce79f7a1e0005fdca9e,75,2022-02-12_16h41.44.550,lexical_decision_task_DD_L2,2021.2.3,Win32,59.000531,,,,,,,,,,,,1.1948,1,,,,,,,,,,,,,,,,,,,,,,,,-0.408333326,-0.443518533,0,0,0,,,,,,,DOUGH,LB,m,y,./images/DOUGHLB.png,,,,,,,,,,,,,,,,,,,,m,1,1.1948,,,,,,,,0,19,19,19,1
,,,,,,,,,,,,,,,,,56bfcce79f7a1e0005fdca9e,75,2022-02-12_16h41.44.550,lexical_decision_task_DD_L2,2021.2.3,Win32,59.000531,,,,,,,,,,,,1.1404,0,,,,,,,,,,,,,,,,,,,,,,,,-0.408333326,-0.443518533,0,0,0,,,,,,,PARCEL,HB,z,y,./images/PARCELHB.png,,,,,,,,,,,,,,,,,,,,m,0,1.1404,,,,,,,,0,20,20,102,1
,,,,,,,,,,,,,,,,,56bfcce79f7a1e0005fdca9e,75,2022-02-12_16h41.44.550,lexical_decision_task_DD_L2,2021.2.3,Win32,59.000531,,,,,,,,,,,,3.0059,1,,,,,,,,,,,,,,,,,,,,,,,,-0.408333326,-0.443518533,0,0,0,,,,,,,BRIDE,LB,z,y,./images/BRIDELB.png,,,,,,,,,,,,,,,,,,,,z,1,3.0059,,,,,,,,0,21,21,148,1
,,,,,,,,,,,,,,,,,56bfcce79f7a1e0005fdca9e,75,2022-02-12_16h41.44.550,lexical_decision_task_DD_L2,2021.2.3,Win32,59.000531,,,,,,,,,,,,1.2642,0,,,,,,,,,,,,,,,,,,,,,,,,-0.408333326,-0.443518533,0,0,0,,,,,,,DRUMS,LB,m,y,./images/DRUMSLB.png,,,,,,,,,,,,,,,,,,,,z,0,1.2642,,,,,,,,0,22,22,49,1
,,,,,,,,,,,,,,,,,56bfcce79f7a1e0005fdca9e,75,2022-02-12_16h41.44.550,lexical_decision_task_DD_L2,2021.2.3,Win32,59.000531,,,,,,,,,,,,1.0007,1,,,,,,,,,,,,,,,,,,,,,,,,-0.408333326,-0.443518533,0,0,0,,,,,,,ATTIC,HB,m,y,./images/ATTICHB.png,,,,,,,,,,,,,,,,,,,,m,1,1.0007,,,,,,,,0,23,23,27,1
,,,,,,,,,,,,,,,,,56bfcce79f7a1e0005fdca9e,75,2022-02-12_16h41.44.550,lexical_decision_task_DD_L2,2021.2.3,Win32,59.000531,,,,,,,,,,,,2.1812,0,,,,,,,,,,,,,,,,,,,,,,,,-0.408333326,-0.443518533,0,0,0,,,,,,,STREAM,C,z,y,./images/STREAM.png,,,,,,,,,,,,,,,,,,,,m,0,2.1812,,,,,,,,0,24,24,125,1
,,,,,,,,,,,,,,,,,56bfcce79f7a1e0005fdca9e,75,2022-02-12_16h41.44.550,lexical_decision_task_DD_L2,2021.2.3,Win32,59.000531,,,,,,,,,,,,0.9296,1,,,,,,,,,,,,,,,,,,,,,,,,-0.408333326,-0.443518533,0,0,0,,,,,,,FARMER,C,m,y,./images/FARMER.png,,,,,,,,,,,,,,,,,,,,m,1,0.9296,,,,,,,,0,25,25,65,1
,,,,,,,,,,,,,,,,,56bfcce79f7a1e0005fdca9e,75,2022-02-12_16h41.44.550,lexical_decision_task_DD_L2,2021.2.3,Win32,59.000531,,,,,,,,,,,,2.6446,0,,,,,,,,,,,,,,,,,,,,,,,,-0.408333326,-0.443518533,0,0,0,,,,,,,FLASK,HB,z,y,./images/FLASKHB.png,,,,,,,,,,,,,,,,,,,,m,0,2.6446,,,,,,,,0,26,26,156,1
,,,,,,,,,,,,,,,,,56bfcce79f7a1e0005fdca9e,75,2022-02-12_16h41.44.550,lexical_decision_task_DD_L2,2021.2.3,Win32,59.000531,,,,,,,,,,,,1.8044,1,,,,,,,,,,,,,,,,,,,,,,,,-0.408333326,-0.443518533,0,0,0,,,,,,,CLIFF,C,z,y,./images/CLIFF.png,,,,,,,,,,,,,,,,,,,,z,1,1.8044,,,,,,,,0,27,27,92,1
,,,,,,,,,,,,,,,,,56bfcce79f7a1e0005fdca9e,75,2022-02-12_16h41.44.550,lexical_decision_task_DD_L2,2021.2.3,Win32,59.000531,,,,,,,,,,,,1.5957,1,,,,,,,,,,,,,,,,,,,,,,,,-0.408333326,-0.443518533,0,0,0,,,,,,,BLOKE,HB,z,y,./images/BLOKEHB.png,,,,,,,,,,,,,,,,,,,,z,1,1.5957,,,,,,,,0,28,28,96,1
,,,,,,,,,,,,,,,,,56bfcce79f7a1e0005fdca9e,75,2022-02-12_16h41.44.550,lexical_decision_task_DD_L2,2021.2.3,Win32,59.000531,,,,,,,,,,,,1.1754,0,,,,,,,,,,,,,,,,,,,,,,,,-0.408333326,-0.443518533,0,0,0,,,,,,,CASINO,LB,z,y,./images/CASINOLB.png,,,,,,,,,,,,,,,,,,,,m,0,1.1754,,,,,,,,0,29,29,112,1
,,,,,,,,,,,,,,,,,56bfcce79f7a1e0005fdca9e,75,2022-02-12_16h41.44.550,lexical_decision_task_DD_L2,2021.2.3,Win32,59.000531,,,,,,,,,,,,1.3457,1,,,,,,,,,,,,,,,,,,,,,,,,-0.408333326,-0.443518533,0,0,0,,,,,,,BISHOP,LB,z,y,./images/BISHOPLB.png,,,,,,,,,,,,,,,,,,,,z,1,1.3457,,,,,,,,0,30,30,133,1
,,,,,,,,,,,,,,,,,56bfcce79f7a1e0005fdca9e,75,2022-02-12_16h41.44.550,lexical_decision_task_DD_L2,2021.2.3,Win32,59.000531,,,,,,,,,,,,1.185,1,,,,,,,,,,,,,,,,,,,,,,,,-0.408333326,-0.443518533,0,0,0,,,,,,,BANANA,LB,z,y,./images/BANANALB.png,,,,,,,,,,,,,,,,,,,,z,1,1.185,,,,,,,,0,31,31,154,1
,,,,,,,,,,,,,,,,,56bfcce79f7a1e0005fdca9e,75,2022-02-12_16h41.44.550,lexical_decision_task_DD_L2,2021.2.3,Win32,59.000531,,,,,,,,,,,,2.6678,1,,,,,,,,,,,,,,,,,,,,,,,,-0.408333326,-0.443518533,0,0,0,,,,,,,MUMMY,LB,z,y,./images/MUMMYLB.png,,,,,,,,,,,,,,,,,,,,z,1,2.6678,,,,,,,,0,32,32,130,1
,,,,,,,,,,,,,,,,,56bfcce79f7a1e0005fdca9e,75,2022-02-12_16h41.44.550,lexical_decision_task_DD_L2,2021.2.3,Win32,59.000531,,,,,,,,,,,,1.2303,1,,,,,,,,,,,,,,,,,,,,,,,,-0.408333326,-0.443518533,0,0,0,,,,,,,ENGINE,C,z,y,./images/ENGINE.png,,,,,,,,,,,,,,,,,,,,z,1,1.2303,,,,,,,,0,33,33,122,1
,,,,,,,,,,,,,,,,,56bfcce79f7a1e0005fdca9e,75,2022-02-12_16h41.44.550,lexical_decision_task_DD_L2,2021.2.3,Win32,59.000531,,,,,,,,,,,,3.2467,1,,,,,,,,,,,,,,,,,,,,,,,,-0.408333326,-0.443518533,0,0,0,,,,,,,RAZOR,LB,z,y,./images/RAZORLB.png,,,,,,,,,,,,,,,,,,,,z,1,3.2467,,,,,,,,0,34,34,118,1
,,,,,,,,,,,,,,,,,56bfcce79f7a1e0005fdca9e,75,2022-02-12_16h41.44.550,lexical_decision_task_DD_L2,2021.2.3,Win32,59.000531,,,,,,,,,,,,1.3239,1,,,,,,,,,,,,,,,,,,,,,,,,-0.408333326,-0.443518533,0,0,0,,,,,,,FLESH,HB,z,y,./images/FLESHHB.png,,,,,,,,,,,,,,,,,,,,z,1,1.3239,,,,,,,,0,35,35,108,1
,,,,,,,,,,,,,,,,,56bfcce79f7a1e0005fdca9e,75,2022-02-12_16h41.44.550,lexical_decision_task_DD_L2,2021.2.3,Win32,59.000531,,,,,,,,,,,,1.2584,1,,,,,,,,,,,,,,,,,,,,,,,,-0.408333326,-0.443518533,0,0,0,,,,,,,MOTOR,LB,m,y,./images/MOTORLB.png,,,,,,,,,,,,,,,,,,,,m,1,1.2584,,,,,,,,0,36,36,13,1
,,,,,,,,,,,,,,,,,56bfcce79f7a1e0005fdca9e,75,2022-02-12_16h41.44.550,lexical_decision_task_DD_L2,2021.2.3,Win32,59.000531,,,,,,,,,,,,3.0061,1,,,,,,,,,,,,,,,,,,,,,,,,-0.408333326,-0.443518533,0,0,0,,,,,,,BUBBLE,C,z,y,./images/BUBBLE.png,,,,,,,,,,,,,,,,,,,,z,1,3.0061,,,,,,,,0,37,37,155,1
,,,,,,,,,,,,,,,,,56bfcce79f7a1e0005fdca9e,75,2022-02-12_16h41.44.550,lexical_decision_task_DD_L2,2021.2.3,Win32,59.000531,,,,,,,,,,,,1.2299,1,,,,,,,,,,,,,,,,,,,,,,,,-0.408333326,-0.443518533,0,0,0,,,,,,,RULER,LB,z,y,./images/RULERLB.png,,,,,,,,,,,,,,,,,,,,z,1,1.2299,,,,,,,,0,38,38,163,1
,,,,,,,,,,,,,,,,,56bfcce79f7a1e0005fdca9e,75,2022-02-12_16h41.44.550,lexical_decision_task_DD_L2,2021.2.3,Win32,59.000531,,,,,,,,,,,,1.501,1,,,,,,,,,,,,,,,,,,,,,,,,-0.408333326,-0.443518533,0,0,0,,,,,,,CANYON,LB,m,y,./images/CANYONLB.png,,,,,,,,,,,,,,,,,,,,m,1,1.501,,,,,,,,0,39,39,34,1
,,,,,,,,,,,,,,,,,56bfcce79f7a1e0005fdca9e,75,2022-02-12_16h41.44.550,lexical_decision_task_DD_L2,2021.2.3,Win32,59.000531,,,,,,,,,,,,0.9409,1,,,,,,,,,,,,,,,,,,,,,,,,-0.408333326,-0.443518533,0,0,0,,,,,,,MOSQUE,LB,m,y,./images/MOSQUELB.png,,,,,,,,,,,,,,,,,,,,m,1,0.9409,,,,,,,,0,40,40,43,1
,,,,,,,,,,,,,,,,,56bfcce79f7a1e0005fdca9e,75,2022-02-12_16h41.44.550,lexical_decision_task_DD_L2,2021.2.3,Win32,59.000531,,,,,,,,,,,,0.9594,1,,,,,,,,,,,,,,,,,,,,,,,,-0.408333326,-0.443518533,0,0,0,space,,,,,,STRING,C,m,y,./images/STRING.png,4.0142,,,,,,,,,,,,,,,,,,,m,1,0.9594,,,,,,,,0,41,41,41,1
,,,,,,,,,,,,,,,,,56bfcce79f7a1e0005fdca9e,75,2022-02-12_16h41.44.550,lexical_decision_task_DD_L2,2021.2.3,Win32,59.000531,,,,,,,,,,,,1.6625,1,,,,,,,,,,,,,,,,,,,,,,,,-0.408333326,-0.443518533,0,0,0,,,,,,,MEDAL,C,z,y,./images/MEDAL.png,,,,,,,,,,,,,,,,,,,,z,1,1.6625,,,,,,,,0,42,42,95,1
,,,,,,,,,,,,,,,,,56bfcce79f7a1e0005fdca9e,75,2022-02-12_16h41.44.550,lexical_decision_task_DD_L2,2021.2.3,Win32,59.000531,,,,,,,,,,,,1.1841,1,,,,,,,,,,,,,,,,,,,,,,,,-0.408333326,-0.443518533,0,0,0,,,,,,,PILOT,C,z,y,./images/PILOT.png,,,,,,,,,,,,,,,,,,,,z,1,1.1841,,,,,,,,0,43,43,134,1
,,,,,,,,,,,,,,,,,56bfcce79f7a1e0005fdca9e,75,2022-02-12_16h41.44.550,lexical_decision_task_DD_L2,2021.2.3,Win32,59.000531,,,,,,,,,,,,0.9797,1,,,,,,,,,,,,,,,,,,,,,,,,-0.408333326,-0.443518533,0,0,0,,,,,,,TULIP,C,m,y,./images/TULIP.png,,,,,,,,,,,,,,,,,,,,m,1,0.9797,,,,,,,,0,44,44,8,1
,,,,,,,,,,,,,,,,,56bfcce79f7a1e0005fdca9e,75,2022-02-12_16h41.44.550,lexical_decision_task_DD_L2,2021.2.3,Win32,59.000531,,,,,,,,,,,,2.0749,1,,,,,,,,,,,,,,,,,,,,,,,,-0.408333326,-0.443518533,0,0,0,,,,,,,GLOVE,LB,z,y,./images/GLOVELB.png,,,,,,,,,,,,,,,,,,,,z,1,2.0749,,,,,,,,0,45,45,157,1
,,,,,,,,,,,,,,,,,56bfcce79f7a1e0005fdca9e,75,2022-02-12_16h41.44.550,lexical_decision_task_DD_L2,2021.2.3,Win32,59.000531,,,,,,,,,,,,2.5022,0,,,,,,,,,,,,,,,,,,,,,,,,-0.408333326,-0.443518533,0,0,0,,,,,,,STEAK,LB,z,y,./images/STEAKLB.png,,,,,,,,,,,,,,,,,,,,m,0,2.5022,,,,,,,,0,46,46,115,1
,,,,,,,,,,,,,,,,,56bfcce79f7a1e0005fdca9e,75,2022-02-12_16h41.44.550,lexical_decision_task_DD_L2,2021.2.3,Win32,59.000531,,,,,,,,,,,,0.9973,1,,,,,,,,,,,,,,,,,,,,,,,,-0.408333326,-0.443518533,0,0,0,,,,,,,BANNER,LB,m,y,./images/BANNERLB.png,,,,,,,,,,,,,,,,,,,,m,1,0.9973,,,,,,,,0,47,47,52,1
,,,,,,,,,,,,,,,,,56bfcce79f7a1e0005fdca9e,75,2022-02-12_16h41.44.550,lexical_decision_task_DD_L2,2021.2.3,Win32,59.000531,,,,,,,,,,,,1.1253,1,,,,,,,,,,,,,,,,,,,,,,,,-0.408333326,-0.443518533,0,0,0,,,,,,,STORM,HB,m,y,./images/STORMHB.png,,,,,,,,,,,,,,,,,,,,m,1,1.1253,,,,,,,,0,48,48,30,1
,,,,,,,,,,,,,,,,,56bfcce79f7a1e0005fdca9e,75,2022-02-12_16h41.44.550,lexical_decision_task_DD_L2,2021.2.3,Win32,59.000531,,,,,,,,,,,,1.4019,1,,,,,,,,,,,,,,,,,,,,,,,,-0.408333326,-0.443518533,0,0,0,,,,,,,TOWEL,LB,z,y,./images/TOWELLB.png,,,,,,,,,,,,,,,,,,,,z,1,1.4019,,,,,,,,0,49,49,85,1
,,,,,,,,,,,,,,,,,56bfcce79f7a1e0005fdca9e,75,2022-02-12_16h41.44.550,lexical_decision_task_DD_L2,2021.2.3,Win32,59.000531,,,,,,,,,,,,1.1497,0,,,,,,,,,,,,,,,,,,,,,,,,-0.408333326,-0.443518533,0,0,0,,,,,,,INFANT,LB,m,y,./images/INFANTLB.png,,,,,,,,,,,,,,,,,,,,z,0,1.1497,,,,,,,,0,50,50,76,1
,,,,,,,,,,,,,,,,,56bfcce79f7a1e0005fdca9e,75,2022-02-12_16h41.44.550,lexical_decision_task_DD_L2,2021.2.3,Win32,59.000531,,,,,,,,,,,,1.0986,1,,,,,,,,,,,,,,,,,,,,,,,,-0.408333326,-0.443518533,0,0,0,,,,,,,PASTA,C,m,y,./images/PASTA.png,,,,,,,,,,,,,,,,,,,,m,1,1.0986,,,,,,,,0,51,51,5,1
,,,,,,,,,,,,,,,,,56bfcce79f7a1e0005fdca9e,75,2022-02-12_16h41.44.550,lexical_decision_task_DD_L2,2021.2.3,Win32,59.000531,,,,,,,,,,,,4.1656,1,,,,,,,,,,,,,,,,,,,,,,,,-0.408333326,-0.443518533,0,0,0,,,,,,,DRILL,HB,z,y,./images/DRILLHB.png,,,,,,,,,,,,,,,,,,,,z,1,4.1656,,,,,,,,0,52,52,165,1
,,,,,,,,,,,,,,,,,56bfcce79f7a1e0005fdca9e,75,2022-02-12_16h41.44.550,lexical_decision_task_DD_L2,2021.2.3,Win32,59.000531,,,,,,,,,,,,1.1872,1,,,,,,,,,,,,,,,,,,,,,,,,-0.408333326,-0.443518533,0,0,0,,,,,,,MAGGOT,HB,m,y,./images/MAGGOTHB.png,,,,,,,,,,,,,,,,,,,,m,1,1.1872,,,,,,,,0,53,53,33,1
,,,,,,,,,,,,,,,,,56bfcce79f7a1e0005fdca9e,75,2022-02-12_16h41.44.550,lexical_decision_task_DD_L2,2021.2.3,Win32,59.000531,,,,,,,,,,,,0.9108,1,,,,,,,,,,,,,,,,,,,,,,,,-0.408333326,-0.443518533,0,0,0,,,,,,,JAGUAR,HB,m,y,./images/JAGUARHB.png,,,,,,,,,,,,,,,,,,,,m,1,0.9108,,,,,,,,0,54,54,18,1
,,,,,,,,,,,,,,,,,56bfcce79f7a1e0005fdca9e,75,2022-02-12_16h41.44.550,lexical_decision_task_DD_L2,2021.2.3,Win32,59.000531,,,,,,,,,,,,0.9854,1,,,,,,,,,,,,,,,,,,,,,,,,-0.408333326,-0.443518533,0,0,0,,,,,,,BARREL,C,m,y,./images/BARREL.png,,,,,,,,,,,,,,,,,,,,m,1,0.9854,,,,,,,,0,55,55,32,1
,,,,,,,,,,,,,,,,,56bfcce79f7a1e0005fdca9e,75,2022-02-12_16h41.44.550,lexical_decision_task_DD_L2,2021.2.3,Win32,59.000531,,,,,,,,,,,,1.1887,0,,,,,,,,,,,,,,,,,,,,,,,,-0.408333326,-0.443518533,0,0,0,,,,,,,CLOUD,C,z,y,./images/CLOUD.png,,,,,,,,,,,,,,,,,,,,m,0,1.1887,,,,,,,,0,56,56,110,1
,,,,,,,,,,,,,,,,,56bfcce79f7a1e0005fdca9e,75,2022-02-12_16h41.44.550,lexical_decision_task_DD_L2,2021.2.3,Win32,59.000531,,,,,,,,,,,,1.0208,1,,,,,,,,,,,,,,,,,,,,,,,,-0.408333326,-0.443518533,0,0,0,,,,,,,WEASEL,C,m,y,./images/WEASEL.png,,,,,,,,,,,,,,,,,,,,m,1,1.0208,,,,,,,,0,57,57,80,1
,,,,,,,,,,,,,,,,,56bfcce79f7a1e0005fdca9e,75,2022-02-12_16h41.44.550,lexical_decision_task_DD_L2,2021.2.3,Win32,59.000531,,,,,,,,,,,,1.3856,1,,,,,,,,,,,,,,,,,,,,,,,,-0.408333326,-0.443518533,0,0,0,,,,,,,CEMENT,C,m,y,./images/CEMENT.png,,,,,,,,,,,,,,,,,,,,m,1,1.3856,,,,,,,,0,58,58,74,1
,,,,,,,,,,,,,,,,,56bfcce79f7a1e0005fdca9e,75,2022-02-12_16h41.44.550,lexical_decision_task_DD_L2,2021.2.3,Win32,59.000531,,,,,,,,,,,,1.0526,1,,,,,,,,,,,,,,,,,,,,,,,,-0.408333326,-0.443518533,0,0,0,,,,,,,TWINS,HB,m,y,./images/TWINSHB.png,,,,,,,,,,,,,,,,,,,,m,1,1.0526,,,,,,,,0,59,59,60,1
,,,,,,,,,,,,,,,,,56bfcce79f7a1e0005fdca9e,75,2022-02-12_16h41.44.550,lexical_decision_task_DD_L2,2021.2.3,Win32,59.000531,,,,,,,,,,,,2.5318,1,,,,,,,,,,,,,,,,,,,,,,,,-0.408333326,-0.443518533,0,0,0,,,,,,,TORCH,C,m,y,./images/TORCH.png,,,,,,,,,,,,,,,,,,,,m,1,2.5318,,,,,,,,0,60,60,68,1
,,,,,,,,,,,,,,,,,56bfcce79f7a1e0005fdca9e,75,2022-02-12_16h41.44.550,lexical_decision_task_DD_L2,2021.2.3,Win32,59.000531,,,,,,,,,,,,0.9108,1,,,,,,,,,,,,,,,,,,,,,,,,-0.408333326,-0.443518533,0,0,0,,,,,,,ONION,HB,m,y,./images/ONIONHB.png,,,,,,,,,,,,,,,,,,,,m,1,0.9108,,,,,,,,0,61,61,51,1
,,,,,,,,,,,,,,,,,56bfcce79f7a1e0005fdca9e,75,2022-02-12_16h41.44.550,lexical_decision_task_DD_L2,2021.2.3,Win32,59.000531,,,,,,,,,,,,1.1699,0,,,,,,,,,,,,,,,,,,,,,,,,-0.408333326,-0.443518533,0,0,0,,,,,,,SNACK,LB,m,y,./images/SNACKLB.png,,,,,,,,,,,,,,,,,,,,z,0,1.1699,,,,,,,,0,62,62,73,1
,,,,,,,,,,,,,,,,,56bfcce79f7a1e0005fdca9e,75,2022-02-12_16h41.44.550,lexical_decision_task_DD_L2,2021.2.3,Win32,59.000531,,,,,,,,,,,,1.1818,1,,,,,,,,,,,,,,,,,,,,,,,,-0.408333326,-0.443518533,0,0,0,,,,,,,STAIN,HB,z,y,./images/STAINHB.png,,,,,,,,,,,,,,,,,,,,z,1,1.1818,,,,,,,,0,63,63,90,1
,,,,,,,,,,,,,,,,,56bfcce79f7a1e0005fdca9e,75,2022-02-12_16h41.44.550,lexical_decision_task_DD_L2,2021.2.3,Win32,59.000531,,,,,,,,,,,,1.3338,0,,,,,,,,,,,,,,,,,,,,,,,,-0.408333326,-0.443518533,0,0,0,,,,,,,MIRROR,HB,m,y,./images/MIRRORHB.png,,,,,,,,,,,,,,,,,,,,z,0,1.3338,,,,,,,,0,64,64,63,1
,,,,,,,,,,,,,,,,,56bfcce79f7a1e0005fdca9e,75,2022-02-12_16h41.44.550,lexical_decision_task_DD_L2,2021.2.3,Win32,59.000531,,,,,,,,,,,,1.3466,1,,,,,,,,,,,,,,,,,,,,,,,,-0.408333326,-0.443518533,0,0,0,,,,,,,GREASE,HB,m,y,./images/GREASEHB.png,,,,,,,,,,,,,,,,,,,,m,1,1.3466,,,,,,,,0,65,65,15,1
,,,,,,,,,,,,,,,,,56bfcce79f7a1e0005fdca9e,75,2022-02-12_16h41.44.550,lexical_decision_task_DD_L2,2021.2.3,Win32,59.000531,,,,,,,,,,,,2.981,1,,,,,,,,,,,,,,,,,,,,,,,,-0.408333326,-0.443518533,0,0,0,,,,,,,CARPET,C,m,y,./images/CARPET.png,,,,,,,,,,,,,,,,,,,,m,1,2.981,,,,,,,,0,66,66,53,1
,,,,,,,,,,,,,,,,,56bfcce79f7a1e0005fdca9e,75,2022-02-12_16h41.44.550,lexical_decision_task_DD_L2,2021.2.3,Win32,59.000531,,,,,,,,,,,,0.9496,1,,,,,,,,,,,,,,,,,,,,,,,,-0.408333326,-0.443518533,0,0,0,,,,,,,NOOSE,HB,m,y,./images/NOOSEHB.png,,,,,,,,,,,,,,,,,,,,m,1,0.9496,,,,,,,,0,67,67,72,1
,,,,,,,,,,,,,,,,,56bfcce79f7a1e0005fdca9e,75,2022-02-12_16h41.44.550,lexical_decision_task_DD_L2,2021.2.3,Win32,59.000531,,,,,,,,,,,,1.4242,0,,,,,,,,,,,,,,,,,,,,,,,,-0.408333326,-0.443518533,0,0,0,,,,,,,STOVE,C,z,y,./images/STOVE.png,,,,,,,,,,,,,,,,,,,,m,0,1.4242,,,,,,,,0,68,68,86,1
,,,,,,,,,,,,,,,,,56bfcce79f7a1e0005fdca9e,75,2022-02-12_16h41.44.550,lexical_decision_task_DD_L2,2021.2.3,Win32,59.000531,,,,,,,,,,,,1.3603,1,,,,,,,,,,,,,,,,,,,,,,,,-0.408333326,-0.443518533,0,0,0,,,,,,,PAINT,LB,m,y,./images/PAINTLB.png,,,,,,,,,,,,,,,,,,,,m,1,1.3603,,,,,,,,0,69,69,7,1
,,,,,,,,,,,,,,,,,56bfcce79f7a1e0005fdca9e,75,2022-02-12_16h41.44.550,lexical_decision_task_DD_L2,2021.2.3,Win32,59.000531,,,,,,,,,,,,1.035,1,,,,,,,,,,,,,,,,,,,,,,,,-0.408333326,-0.443518533,0,0,0,,,,,,,PIMPLE,C,m,y,./images/PIMPLE.png,,,,,,,,,,,,,,,,,,,,m,1,1.035,,,,,,,,0,70,70,71,1
,,,,,,,,,,,,,,,,,56bfcce79f7a1e0005fdca9e,75,2022-02-12_16h41.44.550,lexical_decision_task_DD_L2,2021.2.3,Win32,59.000531,,,,,,,,,,,,1.7823,1,,,,,,,,,,,,,,,,,,,,,,,,-0.408333326,-0.443518533,0,0,0,,,,,,,SAUCE,HB,z,y,./images/SAUCEHB.png,,,,,,,,,,,,,,,,,,,,z,1,1.7823,,,,,,,,0,71,71,135,1
,,,,,,,,,,,,,,,,,56bfcce79f7a1e0005fdca9e,75,2022-02-12_16h41.44.550,lexical_decision_task_DD_L2,2021.2.3,Win32,59.000531,,,,,,,,,,,,2.3606,1,,,,,,,,,,,,,,,,,,,,,,,,-0.408333326,-0.443518533,0,0,0,,,,,,,COUCH,C,m,y,./images/COUCH.png,,,,,,,,,,,,,,,,,,,,m,1,2.3606,,,,,,,,0,72,72,77,1
,,,,,,,,,,,,,,,,,56bfcce79f7a1e0005fdca9e,75,2022-02-12_16h41.44.550,lexical_decision_task_DD_L2,2021.2.3,Win32,59.000531,,,,,,,,,,,,1.264,1,,,,,,,,,,,,,,,,,,,,,,,,-0.408333326,-0.443518533,0,0,0,,,,,,,POSTER,C,z,y,./images/POSTER.png,,,,,,,,,,,,,,,,,,,,z,1,1.264,,,,,,,,0,73,73,137,1
,,,,,,,,,,,,,,,,,56bfcce79f7a1e0005fdca9e,75,2022-02-12_16h41.44.550,lexical_decision_task_DD_L2,2021.2.3,Win32,59.000531,,,,,,,,,,,,0.9778,1,,,,,,,,,,,,,,,,,,,,,,,,-0.408333326,-0.443518533,0,0,0,,,,,,,MALLET,C,m,y,./images/MALLET.png,,,,,,,,,,,,,,,,,,,,m,1,0.9778,,,,,,,,0,74,74,50,1
,,,,,,,,,,,,,,,,,56bfcce79f7a1e0005fdca9e,75,2022-02-12_16h41.44.550,lexical_decision_task_DD_L2,2021.2.3,Win32,59.000531,,,,,,,,,,,,1.1673,1,,,,,,,,,,,,,,,,,,,,,,,,-0.408333326,-0.443518533,0,0,0,,,,,,,CLOTH,C,z,y,./images/CLOTH.png,,,,,,,,,,,,,,,,,,,,z,1,1.1673,,,,,,,,0,75,75,107,1
,,,,,,,,,,,,,,,,,56bfcce79f7a1e0005fdca9e,75,2022-02-12_16h41.44.550,lexical_decision_task_DD_L2,2021.2.3,Win32,59.000531,,,,,,,,,,,,2.5921,1,,,,,,,,,,,,,,,,,,,,,,,,-0.408333326,-0.443518533,0,0,0,,,,,,,DESERT,LB,z,y,./images/DESERTLB.png,,,,,,,,,,,,,,,,,,,,z,1,2.5921,,,,,,,,0,76,76,136,1
,,,,,,,,,,,,,,,,,56bfcce79f7a1e0005fdca9e,75,2022-02-12_16h41.44.550,lexical_decision_task_DD_L2,2021.2.3,Win32,59.000531,,,,,,,,,,,,2.2513,0,,,,,,,,,,,,,,,,,,,,,,,,-0.408333326,-0.443518533,0,0,0,,,,,,,SNAKE,LB,z,y,./images/SNAKELB.png,,,,,,,,,,,,,,,,,,,,m,0,2.2513,,,,,,,,0,77,77,124,1
,,,,,,,,,,,,,,,,,56bfcce79f7a1e0005fdca9e,75,2022-02-12_16h41.44.550,lexical_decision_task_DD_L2,2021.2.3,Win32,59.000531,,,,,,,,,,,,1.4367,0,,,,,,,,,,,,,,,,,,,,,,,,-0.408333326,-0.443518533,0,0,0,,,,,,,PEARL,LB,m,y,./images/PEARLLB.png,,,,,,,,,,,,,,,,,,,,z,0,1.4367,,,,,,,,0,78,78,46,1
,,,,,,,,,,,,,,,,,56bfcce79f7a1e0005fdca9e,75,2022-02-12_16h41.44.550,lexical_decision_task_DD_L2,2021.2.3,Win32,59.000531,,,,,,,,,,,,1.3498,1,,,,,,,,,,,,,,,,,,,,,,,,-0.408333326,-0.443518533,0,0,0,,,,,,,LLAMA,C,z,y,./images/LLAMA.png,,,,,,,,,,,,,,,,,,,,z,1,1.3498,,,,,,,,0,79,79,119,1
,,,,,,,,,,,,,,,,,56bfcce79f7a1e0005fdca9e,75,2022-02-12_16h41.44.550,lexical_decision_task_DD_L2,2021.2.3,Win32,59.000531,,,,,,,,,,,,1.3498,0,,,,,,,,,,,,,,,,,,,,,,,,-0.408333326,-0.443518533,0,0,0,,,,,,,SPORT,HB,m,y,./images/SPORTHB.png,,,,,,,,,,,,,,,,,,,,z,0,1.3498,,,,,,,,0,80,80,48,1
,,,,,,,,,,,,,,,,,56bfcce79f7a1e0005fdca9e,75,2022-02-12_16h41.44.550,lexical_decision_task_DD_L2,2021.2.3,Win32,59.000531,,,,,,,,,,,,2.459,0,,,,,,,,,,,,,,,,,,,,,,,,-0.408333326,-0.443518533,0,0,0,,,,,,,SUNSET,LB,m,y,./images/SUNSETLB.png,,,,,,,,,,,,,,,,,,,,z,0,2.459,,,,,,,,0,81,81,82,1
,,,,,,,,,,,,,,,,,56bfcce79f7a1e0005fdca9e,75,2022-02-12_16h41.44.550,lexical_decision_task_DD_L2,2021.2.3,Win32,59.000531,,,,,,,,,,,,1.9278,1,,,,,,,,,,,,,,,,,,,,,,,,-0.408333326,-0.443518533,0,0,0,,,,,,,SAILOR,LB,m,y,./images/SAILORLB.png,,,,,,,,,,,,,,,,,,,,m,1,1.9278,,,,,,,,0,82,82,67,1
,,,,,,,,,,,,,,,,,56bfcce79f7a1e0005fdca9e,75,2022-02-12_16h41.44.550,lexical_decision_task_DD_L2,2021.2.3,Win32,59.000531,,,,,,,,,,,,0.8856,1,,,,,,,,,,,,,,,,,,,,,,,,-0.408333326,-0.443518533,0,0,0,space,,,,,,SMOKER,C,m,y,./images/SMOKER.png,8.0354,,,,,,,,,,,,,,,,,,,m,1,0.8856,,,,,,,,0,83,83,26,1
,,,,,,,,,,,,,,,,,56bfcce79f7a1e0005fdca9e,75,2022-02-12_16h41.44.550,lexical_decision_task_DD_L2,2021.2.3,Win32,59.000531,,,,,,,,,,,,1.5146,1,,,,,,,,,,,,,,,,,,,,,,,,-0.408333326,-0.443518533,0,0,0,,,,,,,BUTTER,HB,z,y,./images/BUTTERHB.png,,,,,,,,,,,,,,,,,,,,z,1,1.5146,,,,,,,,0,84,84,111,1
,,,,,,,,,,,,,,,,,56bfcce79f7a1e0005fdca9e,75,2022-02-12_16h41.44.550,lexical_decision_task_DD_L2,2021.2.3,Win32,59.000531,,,,,,,,,,,,1.4905,1,,,,,,,,,,,,,,,,,,,,,,,,-0.408333326,-0.443518533,0,0,0,,,,,,,PEBBLE,LB,z,y,./images/PEBBLELB.png,,,,,,,,,,,,,,,,,,,,z,1,1.4905,,,,,,,,0,85,85,166,1
,,,,,,,,,,,,,,,,,56bfcce79f7a1e0005fdca9e,75,2022-02-12_16h41.44.550,lexical_decision_task_DD_L2,2021.2.3,Win32,59.000531,,,,,,,,,,,,1.1892,1,,,,,,,,,,,,,,,,,,,,,,,,-0.408333326,-0.443518533,0,0,0,,,,,,,JELLY,LB,m,y,./images/JELLYLB.png,,,,,,,,,,,,,,,,,,,,m,1,1.1892,,,,,,,,0,86,86,64,1
,,,,,,,,,,,,,,,,,56bfcce79f7a1e0005fdca9e,75,2022-02-12_16h41.44.550,lexical_decision_task_DD_L2,2021.2.3,Win32,59.000531,,,,,,,,,,,,1.2116,1,,,,,,,,,,,,,,,,,,,,,,,,-0.408333326,-0.443518533,0,0,0,,,,,,,FOLDER,HB,m,y,./images/FOLDERHB.png,,,,,,,,,,,,,,,,,,,,m,1,1.2116,,,,,,,,0,87,87,42,1
,,,,,,,,,,,,,,,,,56bfcce79f7a1e0005fdca9e,75,2022-02-12_16h41.44.550,lexical_decision_task_DD_L2,2021.2.3,Win32,59.000531,,,,,,,,,,,,1.5589,1,,,,,,,,,,,,,,,,,,,,,,,,-0.408333326,-0.443518533,0,0,0,,,,,,,PENCE,LB,m,y,./images/PENCELB.png,,,,,,,,,,,,,,,,,,,,m,1,1.5589,,,,,,,,0,88,88,16,1
,,,,,,,,,,,,,,,,,56bfcce79f7a1e0005fdca9e,75,2022-02-12_16h41.44.550,lexical_decision_task_DD_L2,2021.2.3,Win32,59.000531,,,,,,,,,,,,1.48,0,,,,,,,,,,,,,,,,,,,,,,,,-0.408333326,-0.443518533,0,0,0,,,,,,,GARDEN,LB,z,y,./images/GARDENLB.png,,,,,,,,,,,,,,,,,,,,m,0,1.48,,,,,,,,0,89,89,94,1
,,,,,,,,,,,,,,,,,56bfcce79f7a1e0005fdca9e,75,2022-02-12_16h41.44.550,lexical_decision_task_DD_L2,2021.2.3,Win32,59.000531,,,,,,,,,,,,1.1223,1,,,,,,,,,,,,,,,,,,,,,,,,-0.408333326,-0.443518533,0,0,0,,,,,,,STOOL,LB,z,y,./images/STOOLLB.png,,,,,,,,,,,,,,,,,,,,z,1,1.1223,,,,,,,,0,90,90,127,1
,,,,,,,,,,,,,,,,,56bfcce79f7a1e0005fdca9e,75,2022-02-12_16h41.44.550,lexical_decision_task_DD_L2,2021.2.3,Win32,59.000531,,,,,,,,,,,,1.2055,1,,,,,,,,,,,,,,,,,,,,,,,,-0.408333326,-0.443518533,0,0,0,,,,,,,CHERRY,HB,z,y,./images/CHERRYHB.png,,,,,,,,,,,,,,,,,,,,z,1,1.2055,,,,,,,,0,91,91,138,1
,,,,,,,,,,,,,,,,,56bfcce79f7a1e0005fdca9e,75,2022-02-12_16h41.44.550,lexical_decision_task_DD_L2,2021.2.3,Win32,59.000531,,,,,,,,,,,,2.0446,0,,,,,,,,,,,,,,,,,,,,,,,,-0.408333326,-0.443518533,0,0,0,,,,,,,POKER,LB,z,y,./images/POKERLB.png,,,,,,,,,,,,,,,,,,,,m,0,2.0446,,,,,,,,0,92,92,151,1
,,,,,,,,,,,,,,,,,56bfcce79f7a1e0005fdca9e,75,2022-02-12_16h41.44.550,lexical_decision_task_DD_L2,2021.2.3,Win32,59.000531,,,,,,,,,,,,1.0356,1,,,,,,,,,,,,,,,,,,,,,,,,-0.408333326,-0.443518533,0,0,0,,,,,,,SCREW,HB,m,y,./images/SCREWHB.png,,,,,,,,,,,,,,,,,,,,m,1,1.0356,,,,,,,,0,93,93,24,1
,,,,,,,,,,,,,,,,,56bfcce79f7a1e0005fdca9e,75,2022-02-12_16h41.44.550,lexical_decision_task_DD_L2,2021.2.3,Win32,59.000531,,,,,,,,,,,,0.9007,1,,,,,,,,,,,,,,,,,,,,,,,,-0.408333326,-0.443518533,0,0,0,,,,,,,BONNET,C,m,y,./images/BONNET.png,,,,,,,,,,,,,,,,,,,,m,1,0.9007,,,,,,,,0,94,94,11,1
,,,,,,,,,,,,,,,,,56bfcce79f7a1e0005fdca9e,75,2022-02-12_16h41.44.550,lexical_decision_task_DD_L2,2021.2.3,Win32,59.000531,,,,,,,,,,,,1.5987,0,,,,,,,,,,,,,,,,,,,,,,,,-0.408333326,-0.443518533,0,0,0,,,,,,,BIRTH,LB,m,y,./images/BIRTHLB.png,,,,,,,,,,,,,,,,,,,,z,0,1.5987,,,,,,,,0,95,95,37,1
,,,,,,,,,,,,,,,,,56bfcce79f7a1e0005fdca9e,75,2022-02-12_16h41.44.550,lexical_decision_task_DD_L2,2021.2.3,Win32,59.000531,,,,,,,,,,,,2.0671,0,,,,,,,,,,,,,,,,,,,,,,,,-0.408333326,-0.443518533,0,0,0,,,,,,,KITTEN,HB,m,y,./images/KITTENHB.png,,,,,,,,,,,,,,,,,,,,z,0,2.0671,,,,,,,,0,96,96,45,1
,,,,,,,,,,,,,,,,,56bfcce79f7a1e0005fdca9e,75,2022-02-12_16h41.44.550,lexical_decision_task_DD_L2,2021.2.3,Win32,59.000531,,,,,,,,,,,,3.8296,1,,,,,,,,,,,,,,,,,,,,,,,,-0.408333326,-0.443518533,0,0,0,,,,,,,FERRY,HB,z,y,./images/FERRYHB.png,,,,,,,,,,,,,,,,,,,,z,1,3.8296,,,,,,,,0,97,97,141,1
,,,,,,,,,,,,,,,,,56bfcce79f7a1e0005fdca9e,75,2022-02-12_16h41.44.550,lexical_decision_task_DD_L2,2021.2.3,Win32,59.000531,,,,,,,,,,,,2.769,1,,,,,,,,,,,,,,,,,,,,,,,,-0.408333326,-0.443518533,0,0,0,,,,,,,COLLAR,HB,z,y,./images/COLLARHB.png,,,,,,,,,,,,,,,,,,,,z,1,2.769,,,,,,,,0,98,98,99,1
,,,,,,,,,,,,,,,,,56bfcce79f7a1e0005fdca9e,75,2022-02-12_16h41.44.550,lexical_decision_task_DD_L2,2021.2.3,Win32,59.000531,,,,,,,,,,,,1.2451,1,,,,,,,,,,,,,,,,,,,,,,,,-0.408333326,-0.443518533,0,0,0,,,,,,,GRANNY,C,z,y,./images/GRANNY.png,,,,,,,,,,,,,,,,,,,,z,1,1.2451,,,,,,,,0,99,99,104,1
,,,,,,,,,,,,,,,,,56bfcce79f7a1e0005fdca9e,75,2022-02-12_16h41.44.550,lexical_decision_task_DD_L2,2021.2.3,Win32,59.000531,,,,,,,,,,,,2.9663,0,,,,,,,,,,,,,,,,,,,,,,,,-0.408333326,-0.443518533,0,0,0,,,,,,,COOKER,HB,m,y,./images/COOKERHB.png,,,,,,,,,,,,,,,,,,,,z,0,2.9663,,,,,,,,0,100,100,69,1
,,,,,,,,,,,,,,,,,56bfcce79f7a1e0005fdca9e,75,2022-02-12_16h41.44.550,lexical_decision_task_DD_L2,2021.2.3,Win32,59.000531,,,,,,,,,,,,1.6233,0,,,,,,,,,,,,,,,,,,,,,,,,-0.408333326,-0.443518533,0,0,0,,,,,,,BOILER,HB,z,y,./images/BOILERHB.png,,,,,,,,,,,,,,,,,,,,m,0,1.6233,,,,,,,,0,101,101,120,1
,,,,,,,,,,,,,,,,,56bfcce79f7a1e0005fdca9e,75,2022-02-12_16h41.44.550,lexical_decision_task_DD_L2,2021.2.3,Win32,59.000531,,,,,,,,,,,,2.071,1,,,,,,,,,,,,,,,,,,,,,,,,-0.408333326,-0.443518533,0,0,0,,,,,,,WALNUT,HB,z,y,./images/WALNUTHB.png,,,,,,,,,,,,,,,,,,,,z,1,2.071,,,,,,,,0,102,102,84,1
,,,,,,,,,,,,,,,,,56bfcce79f7a1e0005fdca9e,75,2022-02-12_16h41.44.550,lexical_decision_task_DD_L2,2021.2.3,Win32,59.000531,,,,,,,,,,,,1.1502,1,,,,,,,,,,,,,,,,,,,,,,,,-0.408333326,-0.443518533,0,0,0,,,,,,,PLANET,C,z,y,./images/PLANET.png,,,,,,,,,,,,,,,,,,,,z,1,1.1502,,,,,,,,0,103,103,164,1
,,,,,,,,,,,,,,,,,56bfcce79f7a1e0005fdca9e,75,2022-02-12_16h41.44.550,lexical_decision_task_DD_L2,2021.2.3,Win32,59.000531,,,,,,,,,,,,1.0291,1,,,,,,,,,,,,,,,,,,,,,,,,-0.408333326,-0.443518533,0,0,0,,,,,,,MAMMAL,C,z,y,./images/MAMMAL.png,,,,,,,,,,,,,,,,,,,,z,1,1.0291,,,,,,,,0,104,104,146,1
,,,,,,,,,,,,,,,,,56bfcce79f7a1e0005fdca9e,75,2022-02-12_16h41.44.550,lexical_decision_task_DD_L2,2021.2.3,Win32,59.000531,,,,,,,,,,,,1.2856,1,,,,,,,,,,,,,,,,,,,,,,,,-0.408333326,-0.443518533,0,0,0,,,,,,,BERRY,C,m,y,./images/BERRY.png,,,,,,,,,,,,,,,,,,,,m,1,1.2856,,,,,,,,0,105,105,47,1
,,,,,,,,,,,,,,,,,56bfcce79f7a1e0005fdca9e,75,2022-02-12_16h41.44.550,lexical_decision_task_DD_L2,2021.2.3,Win32,59.000531,,,,,,,,,,,,2.3521,0,,,,,,,,,,,,,,,,,,,,,,,,-0.408333326,-0.443518533,0,0,0,,,,,,,WHISKY,C,z,y,./images/WHISKY.png,,,,,,,,,,,,,,,,,,,,m,0,2.3521,,,,,,,,0,106,106,167,1
,,,,,,,,,,,,,,,,,56bfcce79f7a1e0005fdca9e,75,2022-02-12_16h41.44.550,lexical_decision_task_DD_L2,2021.2.3,Win32,59.000531,,,,,,,,,,,,1.8234,1,,,,,,,,,,,,,,,,,,,,,,,,-0.408333326,-0.443518533,0,0,0,,,,,,,MUFFIN,LB,m,y,./images/MUFFINLB.png,,,,,,,,,,,,,,,,,,,,m,1,1.8234,,,,,,,,0,107,107,55,1
,,,,,,,,,,,,,,,,,56bfcce79f7a1e0005fdca9e,75,2022-02-12_16h41.44.550,lexical_decision_task_DD_L2,2021.2.3,Win32,59.000531,,,,,,,,,,,,2.2265,1,,,,,,,,,,,,,,,,,,,,,,,,-0.408333326,-0.443518533,0,0,0,,,,,,,WALRUS,C,m,y,./images/WALRUS.png,,,,,,,,,,,,,,,,,,,,m,1,2.2265,,,,,,,,0,108,108,23,1
,,,,,,,,,,,,,,,,,56bfcce79f7a1e0005fdca9e,75,2022-02-12_16h41.44.550,lexical_decision_task_DD_L2,2021.2.3,Win32,59.000531,,,,,,,,,,,,1.0372,0,,,,,,,,,,,,,,,,,,,,,,,,-0.408333326,-0.443518533,0,0,0,,,,,,,PARADE,C,z,y,./images/PARADE.png,,,,,,,,,,,,,,,,,,,,m,0,1.0372,,,,,,,,0,109,109,101,1
,,,,,,,,,,,,,,,,,56bfcce79f7a1e0005fdca9e,75,2022-02-12_16h41.44.550,lexical_decision_task_DD_L2,2021.2.3,Win32,59.000531,,,,,,,,,,,,1.3928,1,,,,,,,,,,,,,,,,,,,,,,,,-0.408333326,-0.443518533,0,0,0,,,,,,,SAUNA,HB,z,y,./images/SAUNAHB.png,,,,,,,,,,,,,,,,,,,,z,1,1.3928,,,,,,,,0,110,110,117,1
,,,,,,,,,,,,,,,,,56bfcce79f7a1e0005fdca9e,75,2022-02-12_16h41.44.550,lexical_decision_task_DD_L2,2021.2.3,Win32,59.000531,,,,,,,,,,,,3.7468,0,,,,,,,,,,,,,,,,,,,,,,,,-0.408333326,-0.443518533,0,0,0,,,,,,,GRAIN,HB,m,y,./images/GRAINHB.png,,,,,,,,,,,,,,,,,,,,z,0,3.7468,,,,,,,,0,111,111,75,1
,,,,,,,,,,,,,,,,,56bfcce79f7a1e0005fdca9e,75,2022-02-12_16h41.44.550,lexical_decision_task_DD_L2,2021.2.3,Win32,59.000531,,,,,,,,,,,,1.359,1,,,,,,,,,,,,,,,,,,,,,,,,-0.408333326,-0.443518533,0,0,0,,,,,,,CRUST,LB,m,y,./images/CRUSTLB.png,,,,,,,,,,,,,,,,,,,,m,1,1.359,,,,,,,,0,112,112,79,1
,,,,,,,,,,,,,,,,,56bfcce79f7a1e0005fdca9e,75,2022-02-12_16h41.44.550,lexical_decision_task_DD_L2,2021.2.3,Win32,59.000531,,,,,,,,,,,,1.0286,1,,,,,,,,,,,,,,,,,,,,,,,,-0.408333326,-0.443518533,0,0,0,,,,,,,URINE,LB,m,y,./images/URINELB.png,,,,,,,,,,,,,,,,,,,,m,1,1.0286,,,,,,,,0,113,113,70,1
,,,,,,,,,,,,,,,,,56bfcce79f7a1e0005fdca9e,75,2022-02-12_16h41.44.550,lexical_decision_task_DD_L2,2021.2.3,Win32,59.000531,,,,,,,,,,,,1.4247,1,,,,,,,,,,,,,,,,,,,,,,,,-0.408333326,-0.443518533,0,0,0,,,,,,,PICKLE,C,m,y,./images/PICKLE.png,,,,,,,,,,,,,,,,,,,,m,1,1.4247,,,,,,,,0,114,114,14,1
,,,,,,,,,,,,,,,,,56bfcce79f7a1e0005fdca9e,75,2022-02-12_16h41.44.550,lexical_decision_task_DD_L2,2021.2.3,Win32,59.000531,,,,,,,,,,,,3.1747,0,,,,,,,,,,,,,,,,,,,,,,,,-0.408333326,-0.443518533,0,0,0,,,,,,,LADDER,C,m,y,./images/LADDER.png,,,,,,,,,,,,,,,,,,,,z,0,3.1747,,,,,,,,0,115,115,38,1
,,,,,,,,,,,,,,,,,56bfcce79f7a1e0005fdca9e,75,2022-02-12_16h41.44.550,lexical_decision_task_DD_L2,2021.2.3,Win32,59.000531,,,,,,,,,,,,1.1835,1,,,,,,,,,,,,,,,,,,,,,,,,-0.408333326,-0.443518533,0,0,0,,,,,,,POODLE,HB,m,y,./images/POODLEHB.png,,,,,,,,,,,,,,,,,,,,m,1,1.1835,,,,,,,,0,116,116,81,1
,,,,,,,,,,,,,,,,,56bfcce79f7a1e0005fdca9e,75,2022-02-12_16h41.44.550,lexical_decision_task_DD_L2,2021.2.3,Win32,59.000531,,,,,,,,,,,,1.0885,1,,,,,,,,,,,,,,,,,,,,,,,,-0.408333326,-0.443518533,0,0,0,,,,,,,RHINO,HB,m,y,./images/RHINOHB.png,,,,,,,,,,,,,,,,,,,,m,1,1.0885,,,,,,,,0,117,117,9,1
,,,,,,,,,,,,,,,,,56bfcce79f7a1e0005fdca9e,75,2022-02-12_16h41.44.550,lexical_decision_task_DD_L2,2021.2.3,Win32,59.000531,,,,,,,,,,,,1.1913,1,,,,,,,,,,,,,,,,,,,,,,,,-0.408333326,-0.443518533,0,0,0,,,,,,,CLOWN,LB,z,y,./images/CLOWNLB.png,,,,,,,,,,,,,,,,,,,,z,1,1.1913,,,,,,,,0,118,118,106,1
,,,,,,,,,,,,,,,,,56bfcce79f7a1e0005fdca9e,75,2022-02-12_16h41.44.550,lexical_decision_task_DD_L2,2021.2.3,Win32,59.000531,,,,,,,,,,,,1.624,1,,,,,,,,,,,,,,,,,,,,,,,,-0.408333326,-0.443518533,0,0,0,,,,,,,BROOM,HB,z,y,./images/BROOMHB.png,,,,,,,,,,,,,,,,,,,,z,1,1.624,,,,,,,,0,119,119,162,1
,,,,,,,,,,,,,,,,,56bfcce79f7a1e0005fdca9e,75,2022-02-12_16h41.44.550,lexical_decision_task_DD_L2,2021.2.3,Win32,59.000531,,,,,,,,,,,,1.74,1,,,,,,,,,,,,,,,,,,,,,,,,-0.408333326,-0.443518533,0,0,0,,,,,,,PURSE,C,m,y,./images/PURSE.png,,,,,,,,,,,,,,,,,,,,m,1,1.74,,,,,,,,0,120,120,62,1
,,,,,,,,,,,,,,,,,56bfcce79f7a1e0005fdca9e,75,2022-02-12_16h41.44.550,lexical_decision_task_DD_L2,2021.2.3,Win32,59.000531,,,,,,,,,,,,1.4879,0,,,,,,,,,,,,,,,,,,,,,,,,-0.408333326,-0.443518533,0,0,0,,,,,,,BEARD,C,m,y,./images/BEARD.png,,,,,,,,,,,,,,,,,,,,z,0,1.4879,,,,,,,,0,121,121,2,1
,,,,,,,,,,,,,,,,,56bfcce79f7a1e0005fdca9e,75,2022-02-12_16h41.44.550,lexical_decision_task_DD_L2,2021.2.3,Win32,59.000531,,,,,,,,,,,,1.2143,1,,,,,,,,,,,,,,,,,,,,,,,,-0.408333326,-0.443518533,0,0,0,,,,,,,PEACH,C,m,y,./images/PEACH.png,,,,,,,,,,,,,,,,,,,,m,1,1.2143,,,,,,,,0,122,122,35,1
,,,,,,,,,,,,,,,,,56bfcce79f7a1e0005fdca9e,75,2022-02-12_16h41.44.550,lexical_decision_task_DD_L2,2021.2.3,Win32,59.000531,,,,,,,,,,,,3.0897,0,,,,,,,,,,,,,,,,,,,,,,,,-0.408333326,-0.443518533,0,0,0,,,,,,,ALLEY,LB,z,y,./images/ALLEYLB.png,,,,,,,,,,,,,,,,,,,,m,0,3.0897,,,,,,,,0,123,123,139,1
,,,,,,,,,,,,,,,,,56bfcce79f7a1e0005fdca9e,75,2022-02-12_16h41.44.550,lexical_decision_task_DD_L2,2021.2.3,Win32,59.000531,,,,,,,,,,,,1.5978,0,,,,,,,,,,,,,,,,,,,,,,,,-0.408333326,-0.443518533,0,0,0,,,,,,,SWING,LB,m,y,./images/SWINGLB.png,,,,,,,,,,,,,,,,,,,,z,0,1.5978,,,,,,,,0,124,124,40,1
,,,,,,,,,,,,,,,,,56bfcce79f7a1e0005fdca9e,75,2022-02-12_16h41.44.550,lexical_decision_task_DD_L2,2021.2.3,Win32,59.000531,,,,,,,,,,,,1.4324,1,,,,,,,,,,,,,,,,,,,,,,,,-0.408333326,-0.443518533,0,0,0,space,,,,,,BELLY,LB,m,y,./images/BELLYLB.png,7.1747,,,,,,,,,,,,,,,,,,,m,1,1.4324,,,,,,,,0,125,125,10,1
,,,,,,,,,,,,,,,,,56bfcce79f7a1e0005fdca9e,75,2022-02-12_16h41.44.550,lexical_decision_task_DD_L2,2021.2.3,Win32,59.000531,,,,,,,,,,,,1.9591,0,,,,,,,,,,,,,,,,,,,,,,,,-0.408333326,-0.443518533,0,0,0,,,,,,,CANDLE,LB,m,y,./images/CANDLELB.png,,,,,,,,,,,,,,,,,,,,z,0,1.9591,,,,,,,,0,126,126,61,1
,,,,,,,,,,,,,,,,,56bfcce79f7a1e0005fdca9e,75,2022-02-12_16h41.44.550,lexical_decision_task_DD_L2,2021.2.3,Win32,59.000531,,,,,,,,,,,,1.5318,0,,,,,,,,,,,,,,,,,,,,,,,,-0.408333326,-0.443518533,0,0,0,,,,,,,GRAPE,LB,z,y,./images/GRAPELB.png,,,,,,,,,,,,,,,,,,,,m,0,1.5318,,,,,,,,0,127,127,100,1
,,,,,,,,,,,,,,,,,56bfcce79f7a1e0005fdca9e,75,2022-02-12_16h41.44.550,lexical_decision_task_DD_L2,2021.2.3,Win32,59.000531,,,,,,,,,,,,1.2623,1,,,,,,,,,,,,,,,,,,,,,,,,-0.408333326,-0.443518533,0,0,0,,,,,,,BASKET,C,z,y,./images/BASKET.png,,,,,,,,,,,,,,,,,,,,z,1,1.2623,,,,,,,,0,128,128,128,1
,,,,,,,,,,,,,,,,,56bfcce79f7a1e0005fdca9e,75,2022-02-12_16h41.44.550,lexical_decision_task_DD_L2,2021.2.3,Win32,59.000531,,,,,,,,,,,,1.0752,0,,,,,,,,,,,,,,,,,,,,,,,,-0.408333326,-0.443518533,0,0,0,,,,,,,SHELF,HB,m,y,./images/SHELFHB.png,,,,,,,,,,,,,,,,,,,,z,0,1.0752,,,,,,,,0,129,129,39,1
,,,,,,,,,,,,,,,,,56bfcce79f7a1e0005fdca9e,75,2022-02-12_16h41.44.550,lexical_decision_task_DD_L2,2021.2.3,Win32,59.000531,,,,,,,,,,,,1.3497,1,,,,,,,,,,,,,,,,,,,,,,,,-0.408333326,-0.443518533,0,0,0,,,,,,,CANOE,LB,z,y,./images/CANOELB.png,,,,,,,,,,,,,,,,,,,,z,1,1.3497,,,,,,,,0,130,130,142,1
,,,,,,,,,,,,,,,,,56bfcce79f7a1e0005fdca9e,75,2022-02-12_16h41.44.550,lexical_decision_task_DD_L2,2021.2.3,Win32,59.000531,,,,,,,,,,,,0.9652,1,,,,,,,,,,,,,,,,,,,,,,,,-0.408333326,-0.443518533,0,0,0,,,,,,,BABOON,LB,m,y,./images/BABOONLB.png,,,,,,,,,,,,,,,,,,,,m,1,0.9652,,,,,,,,0,131,131,58,1
,,,,,,,,,,,,,,,,,56bfcce79f7a1e0005fdca9e,75,2022-02-12_16h41.44.550,lexical_decision_task_DD_L2,2021.2.3,Win32,59.000531,,,,,,,,,,,,2.4234,1,,,,,,,,,,,,,,,,,,,,,,,,-0.408333326,-0.443518533,0,0,0,,,,,,,LIZARD,C,m,y,./images/LIZARD.png,,,,,,,,,,,,,,,,,,,,m,1,2.4234,,,,,,,,0,132,132,44,1
