key_resp.keys,instr_done_touch.x,instr_done_touch.y,instr_done_touch.leftButton,instr_done_touch.midButton,instr_done_touch.rightButton,instr_done_touch.clicked_name,instruction_pages.thisRepN,instruction_pages.thisTrialN,instruction_pages.thisN,instruction_pages.thisIndex,instruction_pages.ran,pageN,phase,instruct_text,has_image,instruct_image,participant,age,date,expName,psychopyVersion,OS,frameRate,response.keys,response.corr,touch_resp.x,touch_resp.y,touch_resp.leftButton,touch_resp.midButton,touch_resp.rightButton,touch_resp.time,touch_resp.clicked_name,rt,corr,practrials.thisRepN,practrials.thisTrialN,practrials.thisN,practrials.thisIndex,practrials.ran,TrialID,Target,corrAns,end_of_practice_trials_pages.thisRepN,end_of_practice_trials_pages.thisTrialN,end_of_practice_trials_pages.thisN,end_of_practice_trials_pages.thisIndex,end_of_practice_trials_pages.ran,key_resp_2.keys,key_resp_2.corr,targ_click.x,targ_click.y,targ_click.leftButton,targ_click.midButton,targ_click.rightButton,targ_click.time,targ_click.clicked_name,break_done_touch.x,break_done_touch.y,break_done_touch.leftButton,break_done_touch.midButton,break_done_touch.rightButton,break_done_keyboard.keys,maintrials.thisRepN,maintrials.thisTrialN,maintrials.thisN,maintrials.thisIndex,maintrials.ran,string,blur,study,lex,stim_path,break_done_touch.clicked_name,mouse_2.x,mouse_2.y,mouse_2.leftButton,mouse_2.midButton,mouse_2.rightButton,mouse_2.clicked_name,slider.response,slider.rt,trials.thisRepN,trials.thisTrialN,trials.thisN,trials.thisIndex,trials.ran,test_instructions.thisRepN,test_instructions.thisTrialN,test_instructions.thisN,test_instructions.thisIndex,test_instructions.ran,key_resp_3.keys,key_resp_3.corr,test_click.x,test_click.y,test_click.leftButton,test_click.midButton,test_click.rightButton,test_click.time,test_click.clicked_name,test_phase.thisRepN,test_phase.thisTrialN,test_phase.thisN,test_phase.thisIndex,test_phase.ran
,0.110757519,-0.412902305,1,0,0,instr_done_button,0,0,0,0,1,1,instructions,"INSTRUCTIONS
At the start of each trial, look at the plus sign  (+) in the center of the screen.  This tells you that a trial is about to begin and where to look. Second, the plus sign will disappear and a string of letters will appear. Your task is to determine if the string of letters is a word or not. If the item is a word press the M key (on keyboard)  or touch the word button (phone/tablet).  If the item is not a word,  press the  Z key (on keyboard)  or touch the nonword button (on phone/tablet). 
Press the space bar or touch  continue.",0,,5b7fa64787d85f0001baf4fa,21,2022-02-12_08h27.14.715,lexical_decision_task_DD_L2,2021.2.3,Linux armv8l,60.12144532,,,,,,,,,,,,,,,,,,,,,,,,,,,,,,,,,,,,,,,,,,,,,,,,,,,,,,,,,,,,,,,,,,,,,,,,,,,,,,,,,,
,0.162501028,-0.416598293,1,0,0,instr_done_button,0,1,1,1,1,2,instructions,"If your device has a keyboard, press the 'Z' key for nonwords and the 'M' key for words.





Press the space bar or touch the button below to continue.",0,keyboard-example.gif,5b7fa64787d85f0001baf4fa,21,2022-02-12_08h27.14.715,lexical_decision_task_DD_L2,2021.2.3,Linux armv8l,60.12144532,,,,,,,,,,,,,,,,,,,,,,,,,,,,,,,,,,,,,,,,,,,,,,,,,,,,,,,,,,,,,,,,,,,,,,,,,,,,,,,,,,
,0.106137566,-0.405510591,1,0,0,instr_done_button,0,2,2,2,1,3,instructions,"If you are using a touchscreen only device, use the buttons on the screen. Do not use the mouse.





Press the space bar or touch the button below to continue.",0,touchscreen-example.gif,5b7fa64787d85f0001baf4fa,21,2022-02-12_08h27.14.715,lexical_decision_task_DD_L2,2021.2.3,Linux armv8l,60.12144532,,,,,,,,,,,,,,,,,,,,,,,,,,,,,,,,,,,,,,,,,,,,,,,,,,,,,,,,,,,,,,,,,,,,,,,,,,,,,,,,,,
,0.151413129,-0.416598293,1,0,0,instr_done_button,0,3,3,3,1,4,instructions,"It is very important that you respond as quickly and accurately as possible, as each letter string will only be on the screen for two seconds. If you do not respond within this time, the message 'Too slow!' will be displayed and the experiment will progress to the next letter string. The first 20 trials will be practice trials and you will receive feedback on your answers. 

Press the space bar or touch the button below to start the practice trials.",0,,5b7fa64787d85f0001baf4fa,21,2022-02-12_08h27.14.715,lexical_decision_task_DD_L2,2021.2.3,Linux armv8l,60.12144532,,,,,,,,,,,,,,,,,,,,,,,,,,,,,,,,,,,,,,,,,,,,,,,,,,,,,,,,,,,,,,,,,,,,,,,,,,,,,,,,,,
,,,,,,,,,,,,,,,,,5b7fa64787d85f0001baf4fa,21,2022-02-12_08h27.14.715,lexical_decision_task_DD_L2,2021.2.3,Linux armv8l,60.12144532,,0,0.343603081,-0.309415418,1,0,0,1.5429,button_right,1.5429,1,0,0,0,4,1,1001,SQUEAK,m,,,,,,,,,,,,,,,,,,,,,,,,,,,,,,,,,,,,,,,,,,,,,,,,,,,,,,,,,,,,,,,
,,,,,,,,,,,,,,,,,5b7fa64787d85f0001baf4fa,21,2022-02-12_08h27.14.715,lexical_decision_task_DD_L2,2021.2.3,Linux armv8l,60.12144532,,0,-0.24220673,-0.376866779,1,0,0,1.1612,button_left,1.1612,1,0,1,1,12,1,1001,SPRINY,z,,,,,,,,,,,,,,,,,,,,,,,,,,,,,,,,,,,,,,,,,,,,,,,,,,,,,,,,,,,,,,,
,,,,,,,,,,,,,,,,,5b7fa64787d85f0001baf4fa,21,2022-02-12_08h27.14.715,lexical_decision_task_DD_L2,2021.2.3,Linux armv8l,60.12144532,,0,-0.240358736,-0.356538909,1,0,0,0.91,button_left,0.91,1,0,2,2,13,1,1001,ROUPET,z,,,,,,,,,,,,,,,,,,,,,,,,,,,,,,,,,,,,,,,,,,,,,,,,,,,,,,,,,,,,,,,
,,,,,,,,,,,,,,,,,5b7fa64787d85f0001baf4fa,21,2022-02-12_08h27.14.715,lexical_decision_task_DD_L2,2021.2.3,Linux armv8l,60.12144532,,0,-0.277318357,-0.33621117,1,0,0,0.7647,button_left,0.7647,1,0,3,3,8,1,1001,ASLERT,z,,,,,,,,,,,,,,,,,,,,,,,,,,,,,,,,,,,,,,,,,,,,,,,,,,,,,,,,,,,,,,,
,,,,,,,,,,,,,,,,,5b7fa64787d85f0001baf4fa,21,2022-02-12_08h27.14.715,lexical_decision_task_DD_L2,2021.2.3,Linux armv8l,60.12144532,,0,-0.241282733,-0.338983194,1,0,0,0.6103,button_left,0.6103,1,0,4,4,14,1,1001,THRALE,z,,,,,,,,,,,,,,,,,,,,,,,,,,,,,,,,,,,,,,,,,,,,,,,,,,,,,,,,,,,,,,,
,,,,,,,,,,,,,,,,,5b7fa64787d85f0001baf4fa,21,2022-02-12_08h27.14.715,lexical_decision_task_DD_L2,2021.2.3,Linux armv8l,60.12144532,,0,0.317731359,-0.230876222,1,0,0,0.547,button_right,0.547,1,0,5,5,1,1,1001,ADJUST,m,,,,,,,,,,,,,,,,,,,,,,,,,,,,,,,,,,,,,,,,,,,,,,,,,,,,,,,,,,,,,,,
,,,,,,,,,,,,,,,,,5b7fa64787d85f0001baf4fa,21,2022-02-12_08h27.14.715,lexical_decision_task_DD_L2,2021.2.3,Linux armv8l,60.12144532,,0,0.288163649,-0.338983194,1,0,0,0.5122,button_right,0.5122,1,0,6,6,6,1,1001,ZOMBIE,m,,,,,,,,,,,,,,,,,,,,,,,,,,,,,,,,,,,,,,,,,,,,,,,,,,,,,,,,,,,,,,,
,,,,,,,,,,,,,,,,,5b7fa64787d85f0001baf4fa,21,2022-02-12_08h27.14.715,lexical_decision_task_DD_L2,2021.2.3,Linux armv8l,60.12144532,,0,-0.317973901,-0.366702778,1,0,0,0.7798,button_left,0.7798,1,0,7,7,9,1,1001,FARINY,z,,,,,,,,,,,,,,,,,,,,,,,,,,,,,,,,,,,,,,,,,,,,,,,,,,,,,,,,,,,,,,,
,,,,,,,,,,,,,,,,,5b7fa64787d85f0001baf4fa,21,2022-02-12_08h27.14.715,lexical_decision_task_DD_L2,2021.2.3,Linux armv8l,60.12144532,,0,0.321427347,-0.304795465,1,0,0,0.5478,button_right,0.5478,1,0,8,8,2,1,1001,ALMOND,m,,,,,,,,,,,,,,,,,,,,,,,,,,,,,,,,,,,,,,,,,,,,,,,,,,,,,,,,,,,,,,,
,,,,,,,,,,,,,,,,,5b7fa64787d85f0001baf4fa,21,2022-02-12_08h27.14.715,lexical_decision_task_DD_L2,2021.2.3,Linux armv8l,60.12144532,,0,0.327895228,-0.335287337,1,0,0,0.5611,button_right,0.5611,1,0,9,9,7,1,1001,VOLUME,m,,,,,,,,,,,,,,,,,,,,,,,,,,,,,,,,,,,,,,,,,,,,,,,,,,,,,,,,,,,,,,,
,,,,,,,,,,,,,,,,,5b7fa64787d85f0001baf4fa,21,2022-02-12_08h27.14.715,lexical_decision_task_DD_L2,2021.2.3,Linux armv8l,60.12144532,,0,0.332515181,-0.330667384,1,0,0,0.5797,button_right,0.5797,1,0,10,10,0,1,1001,UTOPIA,m,,,,,,,,,,,,,,,,,,,,,,,,,,,,,,,,,,,,,,,,,,,,,,,,,,,,,,,,,,,,,,,
,,,,,,,,,,,,,,,,,5b7fa64787d85f0001baf4fa,21,2022-02-12_08h27.14.715,lexical_decision_task_DD_L2,2021.2.3,Linux armv8l,60.12144532,,0,-0.314277962,-0.302947668,1,0,0,0.7964,button_left,0.7964,1,0,11,11,11,1,1001,RASHET,z,,,,,,,,,,,,,,,,,,,,,,,,,,,,,,,,,,,,,,,,,,,,,,,,,,,,,,,,,,,,,,,
,,,,,,,,,,,,,,,,,5b7fa64787d85f0001baf4fa,21,2022-02-12_08h27.14.715,lexical_decision_task_DD_L2,2021.2.3,Linux armv8l,60.12144532,,0,-0.281014313,-0.353767148,1,0,0,0.7963,button_left,0.7963,1,0,12,12,10,1,1001,INLADE,z,,,,,,,,,,,,,,,,,,,,,,,,,,,,,,,,,,,,,,,,,,,,,,,,,,,,,,,,,,,,,,,
,,,,,,,,,,,,,,,,,5b7fa64787d85f0001baf4fa,21,2022-02-12_08h27.14.715,lexical_decision_task_DD_L2,2021.2.3,Linux armv8l,60.12144532,,0,0.330667253,-0.320503383,1,0,0,0.5847,button_right,0.5847,1,0,13,13,5,1,1001,OBTAIN,m,,,,,,,,,,,,,,,,,,,,,,,,,,,,,,,,,,,,,,,,,,,,,,,,,,,,,,,,,,,,,,,
,,,,,,,,,,,,,,,,,5b7fa64787d85f0001baf4fa,21,2022-02-12_08h27.14.715,lexical_decision_task_DD_L2,2021.2.3,Linux armv8l,60.12144532,,0,0.254900016,-0.298327716,1,0,0,0.5951,button_right,0.5951,1,0,14,14,3,1,1001,MATRIX,m,,,,,,,,,,,,,,,,,,,,,,,,,,,,,,,,,,,,,,,,,,,,,,,,,,,,,,,,,,,,,,,
,,,,,,,,,,,,,,,,,5b7fa64787d85f0001baf4fa,21,2022-02-12_08h27.14.715,lexical_decision_task_DD_L2,2021.2.3,Linux armv8l,60.12144532,,0,-0.348465608,-0.38333466,1,0,0,0.7613,button_left,0.7613,1,0,15,15,15,1,1001,WHAISE,z,,,,,,,,,,,,,,,,,,,,,,,,,,,,,,,,,,,,,,,,,,,,,,,,,,,,,,,,,,,,,,,
,0.102441644,-0.402738435,1,0,0,instr_done_button,,,,,,1,end_of_practice,"You have completed the practice trials. During the experimental trials, you will not receive feedback. 
Before you begin, please ensure that you are in a comfortable and quiet location and will not be disturbed for about 15 minutes, as we cannot use your data if you do not complete all the trials. 
 When you are ready to start the experimental trials, please press space or touch the button below.",,,5b7fa64787d85f0001baf4fa,21,2022-02-12_08h27.14.715,lexical_decision_task_DD_L2,2021.2.3,Linux armv8l,60.12144532,,,,,,,,,,,,,,,,,,,,0,0,0,0,1,,,,,,,,,,,,,,,,,,,,,,,,,,,,,,,,,,,,,,,,,,,,,,,,,,,,,,,,,,
,,,,,,,,,,,,,,,,,5b7fa64787d85f0001baf4fa,21,2022-02-12_08h27.14.715,lexical_decision_task_DD_L2,2021.2.3,Linux armv8l,60.12144532,,,,,,,,,,1.2154,1,,,,,,,,,,,,,,,0,0.334363175,-0.269684036,1,0,0,1.2154,button_right_main,0.334363175,-0.269684036,1,0,0,,0,0,0,48,1,SPORT,HB,old,m,./images/SPORTHB.png,,,,,,,,,,,,,,,,,,,,,,,,,,,,,,,,,
,,,,,,,,,,,,,,,,,5b7fa64787d85f0001baf4fa,21,2022-02-12_08h27.14.715,lexical_decision_task_DD_L2,2021.2.3,Linux armv8l,60.12144532,,,,,,,,,,0.5317,1,,,,,,,,,,,,,,,0,0.350994992,-0.306643525,1,0,0,0.5317,button_right_main,0.350994992,-0.306643525,1,0,0,,0,1,1,24,1,SCREW,HB,old,m,./images/SCREWHB.png,,,,,,,,,,,,,,,,,,,,,,,,,,,,,,,,,
,,,,,,,,,,,,,,,,,5b7fa64787d85f0001baf4fa,21,2022-02-12_08h27.14.715,lexical_decision_task_DD_L2,2021.2.3,Linux armv8l,60.12144532,,,,,,,,,,0.7626,1,,,,,,,,,,,,,,,0,-0.191387267,-0.325123336,1,0,0,0.7626,button_left_main,-0.254218594,-0.327895228,1,0,0,,0,2,2,104,1,GITTY,LB,old,z,./images/GITTYLB.png,,,,,,,,,,,,,,,,,,,,,,,,,,,,,,,,,
,,,,,,,,,,,,,,,,,5b7fa64787d85f0001baf4fa,21,2022-02-12_08h27.14.715,lexical_decision_task_DD_L2,2021.2.3,Linux armv8l,60.12144532,,,,,,,,,,0.6314,1,,,,,,,,,,,,,,,0,-0.262534502,-0.365778814,1,0,0,0.6314,button_left_main,-0.262534502,-0.365778814,1,0,0,,0,3,3,117,1,STEEG,C,old,z,./images/STEEG.png,,,,,,,,,,,,,,,,,,,,,,,,,,,,,,,,,
,,,,,,,,,,,,,,,,,5b7fa64787d85f0001baf4fa,21,2022-02-12_08h27.14.715,lexical_decision_task_DD_L2,2021.2.3,Linux armv8l,60.12144532,,,,,,,,,,1.0305,1,,,,,,,,,,,,,,,0,-0.224650916,-0.38333466,1,0,0,1.0305,button_left_main,-0.224650916,-0.38333466,1,0,0,,0,4,4,91,1,SHENS,HB,old,z,./images/SHENSHB.png,,,,,,,,,,,,,,,,,,,,,,,,,,,,,,,,,
,,,,,,,,,,,,,,,,,5b7fa64787d85f0001baf4fa,21,2022-02-12_08h27.14.715,lexical_decision_task_DD_L2,2021.2.3,Linux armv8l,60.12144532,,,,,,,,,,0.4989,1,,,,,,,,,,,,,,,0,0.25674801,-0.333439145,1,0,0,0.4989,button_right_main,0.25674801,-0.333439145,1,0,0,,0,5,5,5,1,PASTA,C,old,m,./images/PASTA.png,,,,,,,,,,,,,,,,,,,,,,,,,,,,,,,,,
,,,,,,,,,,,,,,,,,5b7fa64787d85f0001baf4fa,21,2022-02-12_08h27.14.715,lexical_decision_task_DD_L2,2021.2.3,Linux armv8l,60.12144532,,,,,,,,,,0.9795,1,,,,,,,,,,,,,,,0,-0.213563033,-0.371322731,1,0,0,0.9795,button_left_main,-0.213563033,-0.371322731,1,0,0,,0,6,6,106,1,CLUMS,HB,old,z,./images/CLUMSHB.png,,,,,,,,,,,,,,,,,,,,,,,,,,,,,,,,,
,,,,,,,,,,,,,,,,,5b7fa64787d85f0001baf4fa,21,2022-02-12_08h27.14.715,lexical_decision_task_DD_L2,2021.2.3,Linux armv8l,60.12144532,,,,,,,,,,0.7136,1,,,,,,,,,,,,,,,0,-0.232042828,-0.363006921,1,0,0,0.7136,button_left_main,-0.232042828,-0.363006921,1,0,0,,0,7,7,84,1,HAXES,C,old,z,./images/HAXES.png,,,,,,,,,,,,,,,,,,,,,,,,,,,,,,,,,
,,,,,,,,,,,,,,,,,5b7fa64787d85f0001baf4fa,21,2022-02-12_08h27.14.715,lexical_decision_task_DD_L2,2021.2.3,Linux armv8l,60.12144532,,,,,,,,,,0.5342,1,,,,,,,,,,,,,,,0,-0.183995323,-0.416598293,1,0,0,0.5342,button_left_main,-0.281014313,-0.373170923,1,0,0,,0,8,8,86,1,AIFED,LB,old,z,./images/AIFEDLB.png,,,,,,,,,,,,,,,,,,,,,,,,,,,,,,,,,
,,,,,,,,,,,,,,,,,5b7fa64787d85f0001baf4fa,21,2022-02-12_08h27.14.715,lexical_decision_task_DD_L2,2021.2.3,Linux armv8l,60.12144532,,,,,,,,,,0.7982,1,,,,,,,,,,,,,,,0,0.28539169,-0.283543762,1,0,0,0.7982,button_right_main,0.28539169,-0.283543762,1,0,0,,0,9,9,25,1,WRIST,LB,old,m,./images/WRISTLB.png,,,,,,,,,,,,,,,,,,,,,,,,,,,,,,,,,
,,,,,,,,,,,,,,,,,5b7fa64787d85f0001baf4fa,21,2022-02-12_08h27.14.715,lexical_decision_task_DD_L2,2021.2.3,Linux armv8l,60.12144532,,,,,,,,,,0.5337,1,,,,,,,,,,,,,,,0,0.277075815,-0.353767148,1,0,0,0.5337,button_right_main,0.277075815,-0.353767148,1,0,0,,0,10,10,63,1,MIRROR,HB,old,m,./images/MIRRORHB.png,,,,,,,,,,,,,,,,,,,,,,,,,,,,,,,,,
,,,,,,,,,,,,,,,,,5b7fa64787d85f0001baf4fa,21,2022-02-12_08h27.14.715,lexical_decision_task_DD_L2,2021.2.3,Linux armv8l,60.12144532,,,,,,,,,,0.5979,1,,,,,,,,,,,,,,,0,0.36577888,-0.282619666,1,0,0,0.5979,button_right_main,0.36577888,-0.282619666,1,0,0,,0,11,11,42,1,FOLDER,HB,old,m,./images/FOLDERHB.png,,,,,,,,,,,,,,,,,,,,,,,,,,,,,,,,,
,,,,,,,,,,,,,,,,,5b7fa64787d85f0001baf4fa,21,2022-02-12_08h27.14.715,lexical_decision_task_DD_L2,2021.2.3,Linux armv8l,60.12144532,,,,,,,,,,0.5976,1,,,,,,,,,,,,,,,0,0.35376695,-0.292783667,1,0,0,0.5976,button_right_main,0.35376695,-0.292783667,1,0,0,,0,12,12,10,1,BELLY,LB,old,m,./images/BELLYLB.png,,,,,,,,,,,,,,,,,,,,,,,,,,,,,,,,,
,,,,,,,,,,,,,,,,,5b7fa64787d85f0001baf4fa,21,2022-02-12_08h27.14.715,lexical_decision_task_DD_L2,2021.2.3,Linux armv8l,60.12144532,,,,,,,,,,0.7473,1,,,,,,,,,,,,,,,0,-0.297646146,-0.341755086,1,0,0,0.7473,button_left_main,-0.297646146,-0.341755086,1,0,0,,0,13,13,87,1,TRING,C,old,z,./images/TRING.png,,,,,,,,,,,,,,,,,,,,,,,,,,,,,,,,,
,,,,,,,,,,,,,,,,,5b7fa64787d85f0001baf4fa,21,2022-02-12_08h27.14.715,lexical_decision_task_DD_L2,2021.2.3,Linux armv8l,60.12144532,,,,,,,,,,0.5658,1,,,,,,,,,,,,,,,0,0.36577888,-0.361158861,1,0,0,0.5658,button_right_main,0.36577888,-0.361158861,1,0,0,,0,14,14,40,1,SWING,LB,old,m,./images/SWINGLB.png,,,,,,,,,,,,,,,,,,,,,,,,,,,,,,,,,
,,,,,,,,,,,,,,,,,5b7fa64787d85f0001baf4fa,21,2022-02-12_08h27.14.715,lexical_decision_task_DD_L2,2021.2.3,Linux armv8l,60.12144532,,,,,,,,,,0.764,1,,,,,,,,,,,,,,,0,0.318655323,-0.318655323,1,0,0,0.764,button_right_main,0.318655323,-0.318655323,1,0,0,,0,15,15,66,1,SWEAT,HB,old,m,./images/SWEATHB.png,,,,,,,,,,,,,,,,,,,,,,,,,,,,,,,,,
,,,,,,,,,,,,,,,,,5b7fa64787d85f0001baf4fa,21,2022-02-12_08h27.14.715,lexical_decision_task_DD_L2,2021.2.3,Linux armv8l,60.12144532,,,,,,,,,,0.7277,1,,,,,,,,,,,,,,,0,-0.286558262,-0.361158861,1,0,0,0.7277,button_left_main,-0.286558262,-0.361158861,1,0,0,,0,16,16,140,1,DOVET,LB,old,z,./images/DOVETLB.png,,,,,,,,,,,,,,,,,,,,,,,,,,,,,,,,,
,,,,,,,,,,,,,,,,,5b7fa64787d85f0001baf4fa,21,2022-02-12_08h27.14.715,lexical_decision_task_DD_L2,2021.2.3,Linux armv8l,60.12144532,,,,,,,,,,0.7282,1,,,,,,,,,,,,,,,0,-0.303190079,-0.387030781,1,0,0,0.7282,button_left_main,-0.303190079,-0.387030781,1,0,0,,0,17,17,92,1,PAIMS,LB,old,z,./images/PAIMSLB.png,,,,,,,,,,,,,,,,,,,,,,,,,,,,,,,,,
,,,,,,,,,,,,,,,,,5b7fa64787d85f0001baf4fa,21,2022-02-12_08h27.14.715,lexical_decision_task_DD_L2,2021.2.3,Linux armv8l,60.12144532,,,,,,,,,,0.8648,1,,,,,,,,,,,,,,,0,-0.254218594,-0.350994992,1,0,0,0.8648,button_left_main,-0.254218594,-0.350994992,1,0,0,,0,18,18,111,1,HOSSE,C,old,z,./images/HOSSE.png,,,,,,,,,,,,,,,,,,,,,,,,,,,,,,,,,
,,,,,,,,,,,,,,,,,5b7fa64787d85f0001baf4fa,21,2022-02-12_08h27.14.715,lexical_decision_task_DD_L2,2021.2.3,Linux armv8l,60.12144532,,,,,,,,,,0.8162,1,,,,,,,,,,,,,,,0,0.332515181,-0.296479524,1,0,0,0.8162,button_right_main,0.332515181,-0.296479524,1,0,0,,0,19,19,82,1,SUNSET,LB,old,m,./images/SUNSETLB.png,,,,,,,,,,,,,,,,,,,,,,,,,,,,,,,,,
,,,,,,,,,,,,,,,,,5b7fa64787d85f0001baf4fa,21,2022-02-12_08h27.14.715,lexical_decision_task_DD_L2,2021.2.3,Linux armv8l,60.12144532,,,,,,,,,,0.6467,0,,,,,,,,,,,,,,,0,-0.275470379,-0.388878577,1,0,0,0.6467,button_left_main,-0.275470379,-0.388878577,1,0,0,,0,20,20,16,1,PENCE,LB,old,m,./images/PENCELB.png,,,,,,,,,,,,,,,,,,,,,,,,,,,,,,,,,
,,,,,,,,,,,,,,,,,5b7fa64787d85f0001baf4fa,21,2022-02-12_08h27.14.715,lexical_decision_task_DD_L2,2021.2.3,Linux armv8l,60.12144532,,,,,,,,,,0.8518,1,,,,,,,,,,,,,,,0,0.178208815,-0.42214221,1,0,0,0.8518,button_right_main,0.248432069,-0.363006921,1,0,0,,0,21,21,79,1,CRUST,LB,old,m,./images/CRUSTLB.png,,,,,,,,,,,,,,,,,,,,,,,,,,,,,,,,,
,,,,,,,,,,,,,,,,,5b7fa64787d85f0001baf4fa,21,2022-02-12_08h27.14.715,lexical_decision_task_DD_L2,2021.2.3,Linux armv8l,60.12144532,,,,,,,,,,0.793,1,,,,,,,,,,,,,,,0,0.446166003,-0.28908781,1,0,0,0.793,button_right_main,0.446166003,-0.28908781,1,0,0,,0,22,22,59,1,BURIAL,C,old,m,./images/BURIAL.png,,,,,,,,,,,,,,,,,,,,,,,,,,,,,,,,,
,,,,,,,,,,,,,,,,,5b7fa64787d85f0001baf4fa,21,2022-02-12_08h27.14.715,lexical_decision_task_DD_L2,2021.2.3,Linux armv8l,60.12144532,,,,,,,,,,1.9081,1,,,,,,,,,,,,,,,0,-0.318897915,-0.38333466,1,0,0,1.9081,button_left_main,-0.318897915,-0.38333466,1,0,0,,0,23,23,157,1,INLER,HB,old,z,./images/INLERHB.png,,,,,,,,,,,,,,,,,,,,,,,,,,,,,,,,,
,,,,,,,,,,,,,,,,,5b7fa64787d85f0001baf4fa,21,2022-02-12_08h27.14.715,lexical_decision_task_DD_L2,2021.2.3,Linux armv8l,60.12144532,,,,,,,,,,0.9132,1,,,,,,,,,,,,,,,0,0.332515181,-0.314959335,1,0,0,0.9132,button_right_main,0.332515181,-0.314959335,1,0,0,,0,24,24,76,1,INFANT,LB,old,m,./images/INFANTLB.png,,,,,,,,,,,,,,,,,,,,,,,,,,,,,,,,,
,,,,,,,,,,,,,,,,,5b7fa64787d85f0001baf4fa,21,2022-02-12_08h27.14.715,lexical_decision_task_DD_L2,2021.2.3,Linux armv8l,60.12144532,,,,,,,,,,1.7098,1,,,,,,,,,,,,,,,0,0.382410762,-0.316807526,1,0,0,1.7098,button_right_main,0.382410762,-0.316807526,1,0,0,,0,25,25,57,1,MOOSE,HB,old,m,./images/MOOSEHB.png,,,,,,,,,,,,,,,,,,,,,,,,,,,,,,,,,
,,,,,,,,,,,,,,,,,5b7fa64787d85f0001baf4fa,21,2022-02-12_08h27.14.715,lexical_decision_task_DD_L2,2021.2.3,Linux armv8l,60.12144532,,,,,,,,,,0.564,1,,,,,,,,,,,,,,,0,0.374094755,-0.264139855,1,0,0,0.564,button_right_main,0.374094755,-0.264139855,1,0,0,,0,26,26,26,1,SMOKER,C,old,m,./images/SMOKER.png,,,,,,,,,,,,,,,,,,,,,,,,,,,,,,,,,
,,,,,,,,,,,,,,,,,5b7fa64787d85f0001baf4fa,21,2022-02-12_08h27.14.715,lexical_decision_task_DD_L2,2021.2.3,Linux armv8l,60.12144532,,,,,,,,,,0.597,1,,,,,,,,,,,,,,,0,0.3260473,-0.345451075,1,0,0,0.597,button_right_main,0.3260473,-0.345451075,1,0,0,,0,27,27,47,1,BERRY,C,old,m,./images/BERRY.png,,,,,,,,,,,,,,,,,,,,,,,,,,,,,,,,,
,,,,,,,,,,,,,,,,,5b7fa64787d85f0001baf4fa,21,2022-02-12_08h27.14.715,lexical_decision_task_DD_L2,2021.2.3,Linux armv8l,60.12144532,,,,,,,,,,1.6131,1,,,,,,,,,,,,,,,0,-0.252370616,-0.348222967,1,0,0,1.6131,button_left_main,-0.252370616,-0.348222967,1,0,0,,0,28,28,97,1,CHIDS,HB,old,z,./images/CHIDSHB.png,,,,,,,,,,,,,,,,,,,,,,,,,,,,,,,,,
,,,,,,,,,,,,,,,,,5b7fa64787d85f0001baf4fa,21,2022-02-12_08h27.14.715,lexical_decision_task_DD_L2,2021.2.3,Linux armv8l,60.12144532,,,,,,,,,,2.0518,1,,,,,,,,,,,,,,,0,-0.406676982,-0.327895228,1,0,0,2.0518,button_left_main,-0.406676982,-0.327895228,1,0,0,,0,29,29,151,1,TINKY,HB,old,z,./images/TINKYHB.png,,,,,,,,,,,,,,,,,,,,,,,,,,,,,,,,,
,,,,,,,,,,,,,,,,,5b7fa64787d85f0001baf4fa,21,2022-02-12_08h27.14.715,lexical_decision_task_DD_L2,2021.2.3,Linux armv8l,60.12144532,,,,,,,,,,0.879,1,,,,,,,,,,,,,,,0,0.375942749,-0.27337976,1,0,0,0.879,button_right_main,0.375942749,-0.27337976,1,0,0,,0,30,30,81,1,POODLE,HB,old,m,./images/POODLEHB.png,,,,,,,,,,,,,,,,,,,,,,,,,,,,,,,,,
,,,,,,,,,,,,,,,,,5b7fa64787d85f0001baf4fa,21,2022-02-12_08h27.14.715,lexical_decision_task_DD_L2,2021.2.3,Linux armv8l,60.12144532,,,,,,,,,,0.8674,1,,,,,,,,,,,,,,,0,-0.289330204,-0.296479524,1,0,0,0.8674,button_left_main,-0.289330204,-0.296479524,1,0,0,,0,31,31,119,1,PAFER,LB,old,z,./images/PAFERLB.png,,,,,,,,,,,,,,,,,,,,,,,,,,,,,,,,,
,,,,,,,,,,,,,,,,,5b7fa64787d85f0001baf4fa,21,2022-02-12_08h27.14.715,lexical_decision_task_DD_L2,2021.2.3,Linux armv8l,60.12144532,,,,,,,,,,1.3652,1,,,,,,,,,,,,,,,0,-0.305962054,-0.357462873,1,0,0,1.3652,button_left_main,-0.305962054,-0.357462873,1,0,0,,0,32,32,148,1,JOMS,HB,old,z,./images/JOMSHB.png,,,,,,,,,,,,,,,,,,,,,,,,,,,,,,,,,
,,,,,,,,,,,,,,,,,5b7fa64787d85f0001baf4fa,21,2022-02-12_08h27.14.715,lexical_decision_task_DD_L2,2021.2.3,Linux armv8l,60.12144532,,,,,,,,,,1.0146,1,,,,,,,,,,,,,,,0,-0.285634265,-0.327895228,1,0,0,1.0146,button_left_main,-0.285634265,-0.327895228,1,0,0,,0,33,33,141,1,PLEET,C,old,z,./images/PLEET.png,,,,,,,,,,,,,,,,,,,,,,,,,,,,,,,,,
,,,,,,,,,,,,,,,,,5b7fa64787d85f0001baf4fa,21,2022-02-12_08h27.14.715,lexical_decision_task_DD_L2,2021.2.3,Linux armv8l,60.12144532,,,,,,,,,,1.1148,1,,,,,,,,,,,,,,,0,0.320503317,-0.254900082,1,0,0,1.1148,button_right_main,0.320503317,-0.254900082,1,0,0,,0,34,34,17,1,SKIING,C,old,m,./images/SKIING.png,,,,,,,,,,,,,,,,,,,,,,,,,,,,,,,,,
,,,,,,,,,,,,,,,,,5b7fa64787d85f0001baf4fa,21,2022-02-12_08h27.14.715,lexical_decision_task_DD_L2,2021.2.3,Linux armv8l,60.12144532,,,,,,,,,,0.7797,1,,,,,,,,,,,,,,,0,-0.306886018,-0.304795465,1,0,0,0.7797,button_left_main,-0.306886018,-0.304795465,1,0,0,,0,35,35,89,1,DRIEK,LB,old,z,./images/DRIEKLB.png,,,,,,,,,,,,,,,,,,,,,,,,,,,,,,,,,
,,,,,,,,,,,,,,,,,5b7fa64787d85f0001baf4fa,21,2022-02-12_08h27.14.715,lexical_decision_task_DD_L2,2021.2.3,Linux armv8l,60.12144532,,,,,,,,,,1.8938,0,,,,,,,,,,,,,,,0,-0.333681737,-0.38333466,1,0,0,1.8938,button_left_main,-0.333681737,-0.38333466,1,0,0,,0,36,36,72,1,NOOSE,HB,old,m,./images/NOOSEHB.png,,,,,,,,,,,,,,,,,,,,,,,,,,,,,,,,,
,,,,,,,,,,,,,,,,,5b7fa64787d85f0001baf4fa,21,2022-02-12_08h27.14.715,lexical_decision_task_DD_L2,2021.2.3,Linux armv8l,60.12144532,,,,,,,,,,0.547,1,,,,,,,,,,,,,,,0,0.299251548,-0.277075749,1,0,0,0.547,button_right_main,0.299251548,-0.277075749,1,0,0,,0,37,37,7,1,PAINT,LB,old,m,./images/PAINTLB.png,,,,,,,,,,,,,,,,,,,,,,,,,,,,,,,,,
,,,,,,,,,,,,,,,,,5b7fa64787d85f0001baf4fa,21,2022-02-12_08h27.14.715,lexical_decision_task_DD_L2,2021.2.3,Linux armv8l,60.12144532,,,,,,,,,,0.6991,1,,,,,,,,,,,,,,,0,0.28631572,-0.276151785,1,0,0,0.6991,button_right_main,0.28631572,-0.276151785,1,0,0,,0,38,38,70,1,URINE,LB,old,m,./images/URINELB.png,,,,,,,,,,,,,,,,,,,,,,,,,,,,,,,,,
,,,,,,,,,,,,,,,,,5b7fa64787d85f0001baf4fa,21,2022-02-12_08h27.14.715,lexical_decision_task_DD_L2,2021.2.3,Linux armv8l,60.12144532,,,,,,,,,,0.8171,1,,,,,,,,,,,,,,,0,-0.299494123,-0.341755086,1,0,0,0.8171,button_left_main,-0.299494123,-0.341755086,1,0,0,,0,39,39,127,1,NINDY,HB,old,z,./images/NINDYHB.png,,,,,,,,,,,,,,,,,,,,,,,,,,,,,,,,,
,,,,,,,,,,,,,,,,,5b7fa64787d85f0001baf4fa,21,2022-02-12_08h27.14.715,lexical_decision_task_DD_L2,2021.2.3,Linux armv8l,60.12144532,,,,,,,,,,0.8515,1,,,,,,,,,,,,,,,0,-0.319821912,-0.332515181,1,0,0,0.8515,button_left_main,-0.319821912,-0.332515181,1,0,0,,0,40,40,142,1,PLASK,HB,old,z,./images/PLASKHB.png,,,,,,,,,,,,,,,,,,,,,,,,,,,,,,,,,
,,,,,,,,,,,,,,,,,5b7fa64787d85f0001baf4fa,21,2022-02-12_08h27.14.715,lexical_decision_task_DD_L2,2021.2.3,Linux armv8l,60.12144532,,,,,,,,,,0.8139,1,,,,,,,,,,,,,,,0,-0.210791042,-0.265064083,1,0,0,0.8139,button_left_main,-0.002893238,-0.415674329,1,0,0,,0,41,41,122,1,BLOOT,LB,old,z,./images/BLOOTLB.png,break_done_button,,,,,,,,,,,,,,,,,,,,,,,,,,,,,,,,
,,,,,,,,,,,,,,,,,5b7fa64787d85f0001baf4fa,21,2022-02-12_08h27.14.715,lexical_decision_task_DD_L2,2021.2.3,Linux armv8l,60.12144532,,,,,,,,,,1.3136,1,,,,,,,,,,,,,,,0,-0.297646146,-0.328819193,1,0,0,1.3136,button_left_main,-0.297646146,-0.328819193,1,0,0,,0,42,42,154,1,THINT,HB,old,z,./images/THINTHB.png,,,,,,,,,,,,,,,,,,,,,,,,,,,,,,,,,
,,,,,,,,,,,,,,,,,5b7fa64787d85f0001baf4fa,21,2022-02-12_08h27.14.715,lexical_decision_task_DD_L2,2021.2.3,Linux armv8l,60.12144532,,,,,,,,,,0.6806,1,,,,,,,,,,,,,,,0,0.295555626,-0.270607868,1,0,0,0.6806,button_right_main,0.295555626,-0.270607868,1,0,0,,0,43,43,8,1,TULIP,C,old,m,./images/TULIP.png,,,,,,,,,,,,,,,,,,,,,,,,,,,,,,,,,
,,,,,,,,,,,,,,,,,5b7fa64787d85f0001baf4fa,21,2022-02-12_08h27.14.715,lexical_decision_task_DD_L2,2021.2.3,Linux armv8l,60.12144532,,,,,,,,,,0.8329,1,,,,,,,,,,,,,,,0,-0.272698404,-0.283543762,1,0,0,0.8329,button_left_main,-0.272698404,-0.283543762,1,0,0,,0,44,44,99,1,BACKY,C,old,z,./images/BACKY.png,,,,,,,,,,,,,,,,,,,,,,,,,,,,,,,,,
,,,,,,,,,,,,,,,,,5b7fa64787d85f0001baf4fa,21,2022-02-12_08h27.14.715,lexical_decision_task_DD_L2,2021.2.3,Linux armv8l,60.12144532,,,,,,,,,,0.8989,1,,,,,,,,,,,,,,,0,-0.270850427,-0.320503383,1,0,0,0.8989,button_left_main,-0.270850427,-0.320503383,1,0,0,,0,45,45,160,1,VEETS,HB,old,z,./images/VEETSHB.png,,,,,,,,,,,,,,,,,,,,,,,,,,,,,,,,,
,,,,,,,,,,,,,,,,,5b7fa64787d85f0001baf4fa,21,2022-02-12_08h27.14.715,lexical_decision_task_DD_L2,2021.2.3,Linux armv8l,60.12144532,,,,,,,,,,0.6788,1,,,,,,,,,,,,,,,0,-0.23666278,-0.306643525,1,0,0,0.6788,button_left_main,-0.23666278,-0.306643525,1,0,0,,0,46,46,152,1,FRAIN,LB,old,z,./images/FRAINLB.png,,,,,,,,,,,,,,,,,,,,,,,,,,,,,,,,,
,,,,,,,,,,,,,,,,,5b7fa64787d85f0001baf4fa,21,2022-02-12_08h27.14.715,lexical_decision_task_DD_L2,2021.2.3,Linux armv8l,60.12144532,,,,,,,,,,0.6122,1,,,,,,,,,,,,,,,0,0.385182721,-0.268759808,1,0,0,0.6122,button_right_main,0.385182721,-0.268759808,1,0,0,,0,47,47,14,1,PICKLE,C,old,m,./images/PICKLE.png,,,,,,,,,,,,,,,,,,,,,,,,,,,,,,,,,
,,,,,,,,,,,,,,,,,5b7fa64787d85f0001baf4fa,21,2022-02-12_08h27.14.715,lexical_decision_task_DD_L2,2021.2.3,Linux armv8l,60.12144532,,,,,,,,,,0.6465,1,,,,,,,,,,,,,,,0,0.287239684,-0.220712353,1,0,0,0.6465,button_right_main,0.287239684,-0.220712353,1,0,0,,0,48,48,18,1,JAGUAR,HB,old,m,./images/JAGUARHB.png,,,,,,,,,,,,,,,,,,,,,,,,,,,,,,,,,
,,,,,,,,,,,,,,,,,5b7fa64787d85f0001baf4fa,21,2022-02-12_08h27.14.715,lexical_decision_task_DD_L2,2021.2.3,Linux armv8l,60.12144532,,,,,,,,,,0.7156,1,,,,,,,,,,,,,,,0,-0.305962054,-0.332515181,1,0,0,0.7156,button_left_main,-0.305962054,-0.332515181,1,0,0,,0,49,49,153,1,CLUPS,C,old,z,./images/CLUPS.png,,,,,,,,,,,,,,,,,,,,,,,,,,,,,,,,,
,,,,,,,,,,,,,,,,,5b7fa64787d85f0001baf4fa,21,2022-02-12_08h27.14.715,lexical_decision_task_DD_L2,2021.2.3,Linux armv8l,60.12144532,,,,,,,,,,0.7174,1,,,,,,,,,,,,,,,0,-0.277318357,-0.309415418,1,0,0,0.7174,button_left_main,-0.277318357,-0.309415418,1,0,0,,0,50,50,156,1,HIXES,C,old,z,./images/HIXES.png,,,,,,,,,,,,,,,,,,,,,,,,,,,,,,,,,
,,,,,,,,,,,,,,,,,5b7fa64787d85f0001baf4fa,21,2022-02-12_08h27.14.715,lexical_decision_task_DD_L2,2021.2.3,Linux armv8l,60.12144532,,,,,,,,,,0.5994,1,,,,,,,,,,,,,,,0,-0.247750663,-0.306643525,1,0,0,0.5994,button_left_main,-0.247750663,-0.306643525,1,0,0,,0,51,51,96,1,KEAMS,C,old,z,./images/KEAMS.png,,,,,,,,,,,,,,,,,,,,,,,,,,,,,,,,,
,,,,,,,,,,,,,,,,,5b7fa64787d85f0001baf4fa,21,2022-02-12_08h27.14.715,lexical_decision_task_DD_L2,2021.2.3,Linux armv8l,60.12144532,,,,,,,,,,0.7631,1,,,,,,,,,,,,,,,0,-0.245902686,-0.302023572,1,0,0,0.7631,button_left_main,-0.245902686,-0.302023572,1,0,0,,0,52,52,125,1,MOOKY,LB,old,z,./images/MOOKYLB.png,,,,,,,,,,,,,,,,,,,,,,,,,,,,,,,,,
,,,,,,,,,,,,,,,,,5b7fa64787d85f0001baf4fa,21,2022-02-12_08h27.14.715,lexical_decision_task_DD_L2,2021.2.3,Linux armv8l,60.12144532,,,,,,,,,,0.6479,1,,,,,,,,,,,,,,,0,-0.269926413,-0.317731359,1,0,0,0.6479,button_left_main,-0.269926413,-0.317731359,1,0,0,,0,53,53,129,1,PRANS,C,old,z,./images/PRANS.png,,,,,,,,,,,,,,,,,,,,,,,,,,,,,,,,,
,,,,,,,,,,,,,,,,,5b7fa64787d85f0001baf4fa,21,2022-02-12_08h27.14.715,lexical_decision_task_DD_L2,2021.2.3,Linux armv8l,60.12144532,,,,,,,,,,0.7002,1,,,,,,,,,,,,,,,0,-0.279166335,-0.31588343,1,0,0,0.7002,button_left_main,-0.279166335,-0.31588343,1,0,0,,0,54,54,146,1,MOOST,LB,old,z,./images/MOOSTLB.png,,,,,,,,,,,,,,,,,,,,,,,,,,,,,,,,,
,,,,,,,,,,,,,,,,,5b7fa64787d85f0001baf4fa,21,2022-02-12_08h27.14.715,lexical_decision_task_DD_L2,2021.2.3,Linux armv8l,60.12144532,,,,,,,,,,1.4963,1,,,,,,,,,,,,,,,0,0.39349853,-0.249356033,1,0,0,1.4963,button_right_main,0.39349853,-0.249356033,1,0,0,,0,55,55,69,1,COOKER,HB,old,m,./images/COOKERHB.png,,,,,,,,,,,,,,,,,,,,,,,,,,,,,,,,,
,,,,,,,,,,,,,,,,,5b7fa64787d85f0001baf4fa,21,2022-02-12_08h27.14.715,lexical_decision_task_DD_L2,2021.2.3,Linux armv8l,60.12144532,,,,,,,,,,0.6792,1,,,,,,,,,,,,,,,0,0.314959466,-0.255824178,1,0,0,0.6792,button_right_main,0.314959466,-0.255824178,1,0,0,,0,56,56,29,1,CRUMB,C,old,m,./images/CRUMB.png,,,,,,,,,,,,,,,,,,,,,,,,,,,,,,,,,
,,,,,,,,,,,,,,,,,5b7fa64787d85f0001baf4fa,21,2022-02-12_08h27.14.715,lexical_decision_task_DD_L2,2021.2.3,Linux armv8l,60.12144532,,,,,,,,,,0.5992,1,,,,,,,,,,,,,,,0,-0.289330204,-0.326971264,1,0,0,0.5992,button_left_main,-0.289330204,-0.326971264,1,0,0,,0,57,57,114,1,RIKES,C,old,z,./images/RIKES.png,,,,,,,,,,,,,,,,,,,,,,,,,,,,,,,,,
,,,,,,,,,,,,,,,,,5b7fa64787d85f0001baf4fa,21,2022-02-12_08h27.14.715,lexical_decision_task_DD_L2,2021.2.3,Linux armv8l,60.12144532,,,,,,,,,,0.6125,1,,,,,,,,,,,,,,,0,-0.249598641,-0.314959335,1,0,0,0.6125,button_left_main,-0.249598641,-0.314959335,1,0,0,,0,58,58,132,1,SCIFF,C,old,z,./images/SCIFF.png,,,,,,,,,,,,,,,,,,,,,,,,,,,,,,,,,
,,,,,,,,,,,,,,,,,5b7fa64787d85f0001baf4fa,21,2022-02-12_08h27.14.715,lexical_decision_task_DD_L2,2021.2.3,Linux armv8l,60.12144532,,,,,,,,,,0.7969,1,,,,,,,,,,,,,,,0,-0.269926413,-0.320503383,1,0,0,0.7969,button_left_main,-0.269926413,-0.320503383,1,0,0,,0,59,59,145,1,LAMEL,HB,old,z,./images/LAMELHB.png,,,,,,,,,,,,,,,,,,,,,,,,,,,,,,,,,
,,,,,,,,,,,,,,,,,5b7fa64787d85f0001baf4fa,21,2022-02-12_08h27.14.715,lexical_decision_task_DD_L2,2021.2.3,Linux armv8l,60.12144532,,,,,,,,,,0.5801,1,,,,,,,,,,,,,,,0,0.324199372,-0.27337976,1,0,0,0.5801,button_right_main,0.324199372,-0.27337976,1,0,0,,0,60,60,28,1,FALCON,LB,old,m,./images/FALCONLB.png,,,,,,,,,,,,,,,,,,,,,,,,,,,,,,,,,
,,,,,,,,,,,,,,,,,5b7fa64787d85f0001baf4fa,21,2022-02-12_08h27.14.715,lexical_decision_task_DD_L2,2021.2.3,Linux armv8l,60.12144532,,,,,,,,,,0.6308,1,,,,,,,,,,,,,,,0,-0.246826683,-0.310339382,1,0,0,0.6308,button_left_main,-0.246826683,-0.310339382,1,0,0,,0,61,61,158,1,EGECT,LB,old,z,./images/EGECTLB.png,,,,,,,,,,,,,,,,,,,,,,,,,,,,,,,,,
,,,,,,,,,,,,,,,,,5b7fa64787d85f0001baf4fa,21,2022-02-12_08h27.14.715,lexical_decision_task_DD_L2,2021.2.3,Linux armv8l,60.12144532,,,,,,,,,,0.6959,1,,,,,,,,,,,,,,,0,-0.252370616,-0.31588343,1,0,0,0.6959,button_left_main,-0.252370616,-0.31588343,1,0,0,,0,62,62,161,1,BLAPS,LB,old,z,./images/BLAPSLB.png,,,,,,,,,,,,,,,,,,,,,,,,,,,,,,,,,
,,,,,,,,,,,,,,,,,5b7fa64787d85f0001baf4fa,21,2022-02-12_08h27.14.715,lexical_decision_task_DD_L2,2021.2.3,Linux armv8l,60.12144532,,,,,,,,,,0.631,1,,,,,,,,,,,,,,,0,-0.253294613,-0.31403537,1,0,0,0.631,button_left_main,-0.253294613,-0.31403537,1,0,0,,0,63,63,108,1,GRUET,C,old,z,./images/GRUET.png,,,,,,,,,,,,,,,,,,,,,,,,,,,,,,,,,
,,,,,,,,,,,,,,,,,5b7fa64787d85f0001baf4fa,21,2022-02-12_08h27.14.715,lexical_decision_task_DD_L2,2021.2.3,Linux armv8l,60.12144532,,,,,,,,,,0.8946,1,,,,,,,,,,,,,,,0,0.265987915,-0.240116128,1,0,0,0.8946,button_right_main,0.265987915,-0.240116128,1,0,0,,0,64,64,61,1,CANDLE,LB,old,m,./images/CANDLELB.png,,,,,,,,,,,,,,,,,,,,,,,,,,,,,,,,,
,,,,,,,,,,,,,,,,,5b7fa64787d85f0001baf4fa,21,2022-02-12_08h27.14.715,lexical_decision_task_DD_L2,2021.2.3,Linux armv8l,60.12144532,,,,,,,,,,0.5945,1,,,,,,,,,,,,,,,0,0.363006855,-0.251204225,1,0,0,0.5945,button_right_main,0.363006855,-0.251204225,1,0,0,,0,65,65,80,1,WEASEL,C,old,m,./images/WEASEL.png,,,,,,,,,,,,,,,,,,,,,,,,,,,,,,,,,
,,,,,,,,,,,,,,,,,5b7fa64787d85f0001baf4fa,21,2022-02-12_08h27.14.715,lexical_decision_task_DD_L2,2021.2.3,Linux armv8l,60.12144532,,,,,,,,,,0.6949,1,,,,,,,,,,,,,,,0,-0.273622385,-0.332515181,1,0,0,0.6949,button_left_main,-0.273622385,-0.332515181,1,0,0,,0,66,66,90,1,NEAST,C,old,z,./images/NEAST.png,,,,,,,,,,,,,,,,,,,,,,,,,,,,,,,,,
,,,,,,,,,,,,,,,,,5b7fa64787d85f0001baf4fa,21,2022-02-12_08h27.14.715,lexical_decision_task_DD_L2,2021.2.3,Linux armv8l,60.12144532,,,,,,,,,,0.7134,1,,,,,,,,,,,,,,,0,0.344527045,-0.277999713,1,0,0,0.7134,button_right_main,0.344527045,-0.277999713,1,0,0,,0,67,67,15,1,GREASE,HB,old,m,./images/GREASEHB.png,,,,,,,,,,,,,,,,,,,,,,,,,,,,,,,,,
,,,,,,,,,,,,,,,,,5b7fa64787d85f0001baf4fa,21,2022-02-12_08h27.14.715,lexical_decision_task_DD_L2,2021.2.3,Linux armv8l,60.12144532,,,,,,,,,,1.3941,1,,,,,,,,,,,,,,,0,-0.290254218,-0.350071028,1,0,0,1.3941,button_left_main,-0.290254218,-0.350071028,1,0,0,,0,68,68,136,1,WERVE,HB,old,z,./images/WERVEHB.png,,,,,,,,,,,,,,,,,,,,,,,,,,,,,,,,,
,,,,,,,,,,,,,,,,,5b7fa64787d85f0001baf4fa,21,2022-02-12_08h27.14.715,lexical_decision_task_DD_L2,2021.2.3,Linux armv8l,60.12144532,,,,,,,,,,0.7023,1,,,,,,,,,,,,,,,0,-0.276394344,-0.331591217,1,0,0,0.7023,button_left_main,-0.276394344,-0.331591217,1,0,0,,0,69,69,155,1,CANGY,LB,old,z,./images/CANGYLB.png,,,,,,,,,,,,,,,,,,,,,,,,,,,,,,,,,
,,,,,,,,,,,,,,,,,5b7fa64787d85f0001baf4fa,21,2022-02-12_08h27.14.715,lexical_decision_task_DD_L2,2021.2.3,Linux armv8l,60.12144532,,,,,,,,,,0.5986,1,,,,,,,,,,,,,,,0,0.357462939,-0.288163714,1,0,0,0.5986,button_right_main,0.357462939,-0.288163714,1,0,0,,0,70,70,67,1,SAILOR,LB,old,m,./images/SAILORLB.png,,,,,,,,,,,,,,,,,,,,,,,,,,,,,,,,,
,,,,,,,,,,,,,,,,,5b7fa64787d85f0001baf4fa,21,2022-02-12_08h27.14.715,lexical_decision_task_DD_L2,2021.2.3,Linux armv8l,60.12144532,,,,,,,,,,1.1611,1,,,,,,,,,,,,,,,0,-0.256066572,-0.332515181,1,0,0,1.1611,button_left_main,-0.256066572,-0.332515181,1,0,0,,0,71,71,144,1,NAIRY,C,old,z,./images/NAIRY.png,,,,,,,,,,,,,,,,,,,,,,,,,,,,,,,,,
,,,,,,,,,,,,,,,,,5b7fa64787d85f0001baf4fa,21,2022-02-12_08h27.14.715,lexical_decision_task_DD_L2,2021.2.3,Linux armv8l,60.12144532,,,,,,,,,,3.4064,1,,,,,,,,,,,,,,,0,-0.277318357,-0.344527243,1,0,0,3.4064,button_left_main,-0.277318357,-0.344527243,1,0,0,,0,72,72,134,1,TROSS,LB,old,z,./images/TROSSLB.png,,,,,,,,,,,,,,,,,,,,,,,,,,,,,,,,,
,,,,,,,,,,,,,,,,,5b7fa64787d85f0001baf4fa,21,2022-02-12_08h27.14.715,lexical_decision_task_DD_L2,2021.2.3,Linux armv8l,60.12144532,,,,,,,,,,0.9474,1,,,,,,,,,,,,,,,0,0.375018785,-0.277075749,1,0,0,0.9474,button_right_main,0.375018785,-0.277075749,1,0,0,,0,73,73,60,1,TWINS,HB,old,m,./images/TWINSHB.png,,,,,,,,,,,,,,,,,,,,,,,,,,,,,,,,,
,,,,,,,,,,,,,,,,,5b7fa64787d85f0001baf4fa,21,2022-02-12_08h27.14.715,lexical_decision_task_DD_L2,2021.2.3,Linux armv8l,60.12144532,,,,,,,,,,0.7111,1,,,,,,,,,,,,,,,0,-0.320745892,-0.36485485,1,0,0,0.7111,button_left_main,-0.320745892,-0.36485485,1,0,0,,0,74,74,138,1,PLICE,C,old,z,./images/PLICE.png,,,,,,,,,,,,,,,,,,,,,,,,,,,,,,,,,
,,,,,,,,,,,,,,,,,5b7fa64787d85f0001baf4fa,21,2022-02-12_08h27.14.715,lexical_decision_task_DD_L2,2021.2.3,Linux armv8l,60.12144532,,,,,,,,,,0.6478,1,,,,,,,,,,,,,,,0,0.388878577,-0.276151785,1,0,0,0.6478,button_right_main,0.388878577,-0.276151785,1,0,0,,0,75,75,23,1,WALRUS,C,old,m,./images/WALRUS.png,,,,,,,,,,,,,,,,,,,,,,,,,,,,,,,,,
,,,,,,,,,,,,,,,,,5b7fa64787d85f0001baf4fa,21,2022-02-12_08h27.14.715,lexical_decision_task_DD_L2,2021.2.3,Linux armv8l,60.12144532,,,,,,,,,,0.745,1,,,,,,,,,,,,,,,0,-0.297646146,-0.338059098,1,0,0,0.745,button_left_main,-0.297646146,-0.338059098,1,0,0,,0,76,76,95,1,HANTY,LB,old,z,./images/HANTYLB.png,,,,,,,,,,,,,,,,,,,,,,,,,,,,,,,,,
,,,,,,,,,,,,,,,,,5b7fa64787d85f0001baf4fa,21,2022-02-12_08h27.14.715,lexical_decision_task_DD_L2,2021.2.3,Linux armv8l,60.12144532,,,,,,,,,,1.1942,1,,,,,,,,,,,,,,,0,-0.256990569,-0.304795465,1,0,0,1.1942,button_left_main,-0.256990569,-0.304795465,1,0,0,,0,77,77,103,1,FLORT,HB,old,z,./images/FLORTHB.png,,,,,,,,,,,,,,,,,,,,,,,,,,,,,,,,,
,,,,,,,,,,,,,,,,,5b7fa64787d85f0001baf4fa,21,2022-02-12_08h27.14.715,lexical_decision_task_DD_L2,2021.2.3,Linux armv8l,60.12144532,,,,,,,,,,0.627,1,,,,,,,,,,,,,,,0,-0.283786288,-0.332515181,1,0,0,0.627,button_left_main,-0.283786288,-0.332515181,1,0,0,,0,78,78,120,1,RINED,C,old,z,./images/RINED.png,,,,,,,,,,,,,,,,,,,,,,,,,,,,,,,,,
,,,,,,,,,,,,,,,,,5b7fa64787d85f0001baf4fa,21,2022-02-12_08h27.14.715,lexical_decision_task_DD_L2,2021.2.3,Linux armv8l,60.12144532,,,,,,,,,,0.6776,1,,,,,,,,,,,,,,,0,0.363930951,-0.25674801,1,0,0,0.6776,button_right_main,0.363930951,-0.25674801,1,0,0,,0,79,79,6,1,SQUARE,HB,old,m,./images/SQUAREHB.png,,,,,,,,,,,,,,,,,,,,,,,,,,,,,,,,,
,,,,,,,,,,,,,,,,,5b7fa64787d85f0001baf4fa,21,2022-02-12_08h27.14.715,lexical_decision_task_DD_L2,2021.2.3,Linux armv8l,60.12144532,,,,,,,,,,1.7815,1,,,,,,,,,,,,,,,0,-0.284710268,-0.350071028,1,0,0,1.7815,button_left_main,-0.284710268,-0.350071028,1,0,0,,0,80,80,101,1,GLEET,LB,old,z,./images/GLEETLB.png,,,,,,,,,,,,,,,,,,,,,,,,,,,,,,,,,
,,,,,,,,,,,,,,,,,5b7fa64787d85f0001baf4fa,21,2022-02-12_08h27.14.715,lexical_decision_task_DD_L2,2021.2.3,Linux armv8l,60.12144532,,,,,,,,,,1.413,1,,,,,,,,,,,,,,,0,-0.261610521,-0.358387101,1,0,0,1.413,button_left_main,-0.261610521,-0.358387101,1,0,0,,0,81,81,139,1,BLEAR,HB,old,z,./images/BLEARHB.png,,,,,,,,,,,,,,,,,,,,,,,,,,,,,,,,,
,,,,,,,,,,,,,,,,,5b7fa64787d85f0001baf4fa,21,2022-02-12_08h27.14.715,lexical_decision_task_DD_L2,2021.2.3,Linux armv8l,60.12144532,,,,,,,,,,1.1135,1,,,,,,,,,,,,,,,0,-0.273622385,-0.321427479,1,0,0,1.1135,button_left_main,-0.273622385,-0.321427479,1,0,0,,0,82,82,133,1,POWDY,HB,old,z,./images/POWDYHB.png,,,,,,,,,,,,,,,,,,,,,,,,,,,,,,,,,
,,,,,,,,,,,,,,,,,5b7fa64787d85f0001baf4fa,21,2022-02-12_08h27.14.715,lexical_decision_task_DD_L2,2021.2.3,Linux armv8l,60.12144532,,,,,,,,,,0.766,1,,,,,,,,,,,,,,,0,-0.273622385,-0.35284292,1,0,0,0.766,button_left_main,0.022054487,-0.35284292,1,0,0,,0,83,83,100,1,DRIBS,HB,old,z,./images/DRIBSHB.png,break_done_button,,,,,,,,,,,,,,,,,,,,,,,,,,,,,,,,
,,,,,,,,,,,,,,,,,5b7fa64787d85f0001baf4fa,21,2022-02-12_08h27.14.715,lexical_decision_task_DD_L2,2021.2.3,Linux armv8l,60.12144532,,,,,,,,,,0.7139,1,,,,,,,,,,,,,,,0,0.457253903,-0.24473608,1,0,0,0.7139,button_right_main,0.457253903,-0.24473608,1,0,0,,0,84,84,27,1,ATTIC,HB,old,m,./images/ATTICHB.png,,,,,,,,,,,,,,,,,,,,,,,,,,,,,,,,,
,,,,,,,,,,,,,,,,,5b7fa64787d85f0001baf4fa,21,2022-02-12_08h27.14.715,lexical_decision_task_DD_L2,2021.2.3,Linux armv8l,60.12144532,,,,,,,,,,0.5786,1,,,,,,,,,,,,,,,0,-0.206171089,-0.319579287,1,0,0,0.5786,button_left_main,-0.206171089,-0.319579287,1,0,0,,0,85,85,126,1,GUELS,C,old,z,./images/GUELS.png,,,,,,,,,,,,,,,,,,,,,,,,,,,,,,,,,
,,,,,,,,,,,,,,,,,5b7fa64787d85f0001baf4fa,21,2022-02-12_08h27.14.715,lexical_decision_task_DD_L2,2021.2.3,Linux armv8l,60.12144532,,,,,,,,,,0.6162,1,,,,,,,,,,,,,,,0,0.329743223,-0.208700555,1,0,0,0.6162,button_right_main,0.329743223,-0.208700555,1,0,0,,0,86,86,46,1,PEARL,LB,old,m,./images/PEARLLB.png,,,,,,,,,,,,,,,,,,,,,,,,,,,,,,,,,
,,,,,,,,,,,,,,,,,5b7fa64787d85f0001baf4fa,21,2022-02-12_08h27.14.715,lexical_decision_task_DD_L2,2021.2.3,Linux armv8l,60.12144532,,,,,,,,,,0.5974,1,,,,,,,,,,,,,,,0,0.450785956,-0.227180366,1,0,0,0.5974,button_right_main,0.450785956,-0.227180366,1,0,0,,0,87,87,36,1,THROAT,HB,old,m,./images/THROATHB.png,,,,,,,,,,,,,,,,,,,,,,,,,,,,,,,,,
,,,,,,,,,,,,,,,,,5b7fa64787d85f0001baf4fa,21,2022-02-12_08h27.14.715,lexical_decision_task_DD_L2,2021.2.3,Linux armv8l,60.12144532,,,,,,,,,,0.8672,1,,,,,,,,,,,,,,,0,0.4249143,-0.284467726,1,0,0,0.8672,button_right_main,0.4249143,-0.284467726,1,0,0,,0,88,88,2,1,BEARD,C,old,m,./images/BEARD.png,,,,,,,,,,,,,,,,,,,,,,,,,,,,,,,,,
,,,,,,,,,,,,,,,,,5b7fa64787d85f0001baf4fa,21,2022-02-12_08h27.14.715,lexical_decision_task_DD_L2,2021.2.3,Linux armv8l,60.12144532,,,,,,,,,,1.6568,1,,,,,,,,,,,,,,,0,-0.243130711,-0.332515181,1,0,0,1.6568,button_left_main,-0.243130711,-0.332515181,1,0,0,,0,89,89,115,1,MAWNS,HB,old,z,./images/MAWNSHB.png,,,,,,,,,,,,,,,,,,,,,,,,,,,,,,,,,
,,,,,,,,,,,,,,,,,5b7fa64787d85f0001baf4fa,21,2022-02-12_08h27.14.715,lexical_decision_task_DD_L2,2021.2.3,Linux armv8l,60.12144532,,,,,,,,,,0.5497,1,,,,,,,,,,,,,,,0,0.391650667,-0.243812116,1,0,0,0.5497,button_right_main,0.391650667,-0.243812116,1,0,0,,0,90,90,39,1,SHELF,HB,old,m,./images/SHELFHB.png,,,,,,,,,,,,,,,,,,,,,,,,,,,,,,,,,
,,,,,,,,,,,,,,,,,5b7fa64787d85f0001baf4fa,21,2022-02-12_08h27.14.715,lexical_decision_task_DD_L2,2021.2.3,Linux armv8l,60.12144532,,,,,,,,,,1.0284,1,,,,,,,,,,,,,,,0,-0.305962054,-0.345451075,1,0,0,1.0284,button_left_main,-0.305962054,-0.345451075,1,0,0,,0,91,91,112,1,MYING,HB,old,z,./images/MYINGHB.png,,,,,,,,,,,,,,,,,,,,,,,,,,,,,,,,,
,,,,,,,,,,,,,,,,,5b7fa64787d85f0001baf4fa,21,2022-02-12_08h27.14.715,lexical_decision_task_DD_L2,2021.2.3,Linux armv8l,60.12144532,,,,,,,,,,1.145,1,,,,,,,,,,,,,,,0,0.411978341,-0.243812116,1,0,0,1.145,button_right_main,0.411978341,-0.243812116,1,0,0,,0,92,92,58,1,BABOON,LB,old,m,./images/BABOONLB.png,,,,,,,,,,,,,,,,,,,,,,,,,,,,,,,,,
,,,,,,,,,,,,,,,,,5b7fa64787d85f0001baf4fa,21,2022-02-12_08h27.14.715,lexical_decision_task_DD_L2,2021.2.3,Linux armv8l,60.12144532,,,,,,,,,,0.5626,1,,,,,,,,,,,,,,,0,0.389802673,-0.258595938,1,0,0,0.5626,button_right_main,0.389802673,-0.258595938,1,0,0,,0,93,93,49,1,DRUMS,LB,old,m,./images/DRUMSLB.png,,,,,,,,,,,,,,,,,,,,,,,,,,,,,,,,,
,,,,,,,,,,,,,,,,,5b7fa64787d85f0001baf4fa,21,2022-02-12_08h27.14.715,lexical_decision_task_DD_L2,2021.2.3,Linux armv8l,60.12144532,,,,,,,,,,0.7838,1,,,,,,,,,,,,,,,0,-0.268078452,-0.31588343,1,0,0,0.7838,button_left_main,-0.268078452,-0.31588343,1,0,0,,0,94,94,107,1,FASKS,LB,old,z,./images/FASKSLB.png,,,,,,,,,,,,,,,,,,,,,,,,,,,,,,,,,
,,,,,,,,,,,,,,,,,5b7fa64787d85f0001baf4fa,21,2022-02-12_08h27.14.715,lexical_decision_task_DD_L2,2021.2.3,Linux armv8l,60.12144532,,,,,,,,,,0.6122,1,,,,,,,,,,,,,,,0,0.404586429,-0.27337976,1,0,0,0.6122,button_right_main,0.404586429,-0.27337976,1,0,0,,0,95,95,52,1,BANNER,LB,old,m,./images/BANNERLB.png,,,,,,,,,,,,,,,,,,,,,,,,,,,,,,,,,
,,,,,,,,,,,,,,,,,5b7fa64787d85f0001baf4fa,21,2022-02-12_08h27.14.715,lexical_decision_task_DD_L2,2021.2.3,Linux armv8l,60.12144532,,,,,,,,,,0.6125,1,,,,,,,,,,,,,,,0,-0.263458499,-0.334363241,1,0,0,0.6125,button_left_main,-0.263458499,-0.334363241,1,0,0,,0,96,96,102,1,DULLE,C,old,z,./images/DULLE.png,,,,,,,,,,,,,,,,,,,,,,,,,,,,,,,,,
,,,,,,,,,,,,,,,,,5b7fa64787d85f0001baf4fa,21,2022-02-12_08h27.14.715,lexical_decision_task_DD_L2,2021.2.3,Linux armv8l,60.12144532,,,,,,,,,,0.7652,1,,,,,,,,,,,,,,,0,-0.278242321,-0.350071028,1,0,0,0.7652,button_left_main,-0.278242321,-0.350071028,1,0,0,,0,97,97,113,1,LINEW,LB,old,z,./images/LINEWLB.png,,,,,,,,,,,,,,,,,,,,,,,,,,,,,,,,,
,,,,,,,,,,,,,,,,,5b7fa64787d85f0001baf4fa,21,2022-02-12_08h27.14.715,lexical_decision_task_DD_L2,2021.2.3,Linux armv8l,60.12144532,,,,,,,,,,0.6141,0,,,,,,,,,,,,,,,0,0.385182721,-0.249356033,1,0,0,0.6141,button_right_main,0.385182721,-0.249356033,1,0,0,,0,98,98,159,1,CUDDY,C,old,z,./images/CUDDY.png,,,,,,,,,,,,,,,,,,,,,,,,,,,,,,,,,
,,,,,,,,,,,,,,,,,5b7fa64787d85f0001baf4fa,21,2022-02-12_08h27.14.715,lexical_decision_task_DD_L2,2021.2.3,Linux armv8l,60.12144532,,,,,,,,,,0.6844,1,,,,,,,,,,,,,,,0,0.310339514,-0.219788389,1,0,0,0.6844,button_right_main,0.310339514,-0.219788389,1,0,0,,0,99,99,11,1,BONNET,C,old,m,./images/BONNET.png,,,,,,,,,,,,,,,,,,,,,,,,,,,,,,,,,
,,,,,,,,,,,,,,,,,5b7fa64787d85f0001baf4fa,21,2022-02-12_08h27.14.715,lexical_decision_task_DD_L2,2021.2.3,Linux armv8l,60.12144532,,,,,,,,,,0.6516,1,,,,,,,,,,,,,,,0,-0.256066572,-0.325123336,1,0,0,0.6516,button_left_main,-0.256066572,-0.325123336,1,0,0,,0,100,100,167,1,ZONET,LB,old,z,./images/ZONETLB.png,,,,,,,,,,,,,,,,,,,,,,,,,,,,,,,,,
,,,,,,,,,,,,,,,,,5b7fa64787d85f0001baf4fa,21,2022-02-12_08h27.14.715,lexical_decision_task_DD_L2,2021.2.3,Linux armv8l,60.12144532,,,,,,,,,,0.6119,1,,,,,,,,,,,,,,,0,0.351919088,-0.219788389,1,0,0,0.6119,button_right_main,0.351919088,-0.219788389,1,0,0,,0,101,101,53,1,CARPET,C,old,m,./images/CARPET.png,,,,,,,,,,,,,,,,,,,,,,,,,,,,,,,,,
,,,,,,,,,,,,,,,,,5b7fa64787d85f0001baf4fa,21,2022-02-12_08h27.14.715,lexical_decision_task_DD_L2,2021.2.3,Linux armv8l,60.12144532,,,,,,,,,,0.9003,1,,,,,,,,,,,,,,,0,0.38425869,-0.239192163,1,0,0,0.9003,button_right_main,0.38425869,-0.239192163,1,0,0,,0,102,102,73,1,SNACK,LB,old,m,./images/SNACKLB.png,,,,,,,,,,,,,,,,,,,,,,,,,,,,,,,,,
,,,,,,,,,,,,,,,,,5b7fa64787d85f0001baf4fa,21,2022-02-12_08h27.14.715,lexical_decision_task_DD_L2,2021.2.3,Linux armv8l,60.12144532,,,,,,,,,,1.3626,1,,,,,,,,,,,,,,,0,-0.23666278,-0.350994992,1,0,0,1.3626,button_left_main,-0.23666278,-0.350994992,1,0,0,,0,103,103,118,1,BAVEL,HB,old,z,./images/BAVELHB.png,,,,,,,,,,,,,,,,,,,,,,,,,,,,,,,,,
,,,,,,,,,,,,,,,,,5b7fa64787d85f0001baf4fa,21,2022-02-12_08h27.14.715,lexical_decision_task_DD_L2,2021.2.3,Linux armv8l,60.12144532,,,,,,,,,,0.7286,1,,,,,,,,,,,,,,,0,-0.219106983,-0.298327716,1,0,0,0.7286,button_left_main,-0.219106983,-0.298327716,1,0,0,,0,104,104,143,1,MONGS,LB,old,z,./images/MONGSLB.png,,,,,,,,,,,,,,,,,,,,,,,,,,,,,,,,,
,,,,,,,,,,,,,,,,,5b7fa64787d85f0001baf4fa,21,2022-02-12_08h27.14.715,lexical_decision_task_DD_L2,2021.2.3,Linux armv8l,60.12144532,,,,,,,,,,0.5634,1,,,,,,,,,,,,,,,0,0.345451141,-0.247508105,1,0,0,0.5634,button_right_main,0.345451141,-0.247508105,1,0,0,,0,105,105,1,1,PLANK,LB,old,m,./images/PLANKLB.png,,,,,,,,,,,,,,,,,,,,,,,,,,,,,,,,,
,,,,,,,,,,,,,,,,,5b7fa64787d85f0001baf4fa,21,2022-02-12_08h27.14.715,lexical_decision_task_DD_L2,2021.2.3,Linux armv8l,60.12144532,,,,,,,,,,0.6654,1,,,,,,,,,,,,,,,0,-0.232042828,-0.317731359,1,0,0,0.6654,button_left_main,-0.232042828,-0.317731359,1,0,0,,0,106,106,149,1,VEASE,LB,old,z,./images/VEASELB.png,,,,,,,,,,,,,,,,,,,,,,,,,,,,,,,,,
,,,,,,,,,,,,,,,,,5b7fa64787d85f0001baf4fa,21,2022-02-12_08h27.14.715,lexical_decision_task_DD_L2,2021.2.3,Linux armv8l,60.12144532,,,,,,,,,,0.5296,1,,,,,,,,,,,,,,,0,0.341755086,-0.257671974,1,0,0,0.5296,button_right_main,0.341755086,-0.257671974,1,0,0,,0,107,107,19,1,DOUGH,LB,old,m,./images/DOUGHLB.png,,,,,,,,,,,,,,,,,,,,,,,,,,,,,,,,,
,,,,,,,,,,,,,,,,,5b7fa64787d85f0001baf4fa,21,2022-02-12_08h27.14.715,lexical_decision_task_DD_L2,2021.2.3,Linux armv8l,60.12144532,,,,,,,,,,0.7649,1,,,,,,,,,,,,,,,0,0.278923743,-0.245660176,1,0,0,0.7649,button_right_main,0.278923743,-0.245660176,1,0,0,,0,108,108,54,1,TRIPOD,HB,old,m,./images/TRIPODHB.png,,,,,,,,,,,,,,,,,,,,,,,,,,,,,,,,,
,,,,,,,,,,,,,,,,,5b7fa64787d85f0001baf4fa,21,2022-02-12_08h27.14.715,lexical_decision_task_DD_L2,2021.2.3,Linux armv8l,60.12144532,,,,,,,,,,0.5482,1,,,,,,,,,,,,,,,0,0.430458151,-0.249356033,1,0,0,0.5482,button_right_main,0.430458151,-0.249356033,1,0,0,,0,109,109,38,1,LADDER,C,old,m,./images/LADDER.png,,,,,,,,,,,,,,,,,,,,,,,,,,,,,,,,,
,,,,,,,,,,,,,,,,,5b7fa64787d85f0001baf4fa,21,2022-02-12_08h27.14.715,lexical_decision_task_DD_L2,2021.2.3,Linux armv8l,60.12144532,,,,,,,,,,0.6646,1,,,,,,,,,,,,,,,0,-0.276394344,-0.36855097,1,0,0,0.6646,button_left_main,-0.276394344,-0.36855097,1,0,0,,0,110,110,150,1,NOOLS,C,old,z,./images/NOOLS.png,,,,,,,,,,,,,,,,,,,,,,,,,,,,,,,,,
,,,,,,,,,,,,,,,,,5b7fa64787d85f0001baf4fa,21,2022-02-12_08h27.14.715,lexical_decision_task_DD_L2,2021.2.3,Linux armv8l,60.12144532,,,,,,,,,,0.7146,1,,,,,,,,,,,,,,,0,-0.271774391,-0.33990729,1,0,0,0.7146,button_left_main,-0.271774391,-0.33990729,1,0,0,,0,111,111,105,1,MOKER,C,old,z,./images/MOKER.png,,,,,,,,,,,,,,,,,,,,,,,,,,,,,,,,,
,,,,,,,,,,,,,,,,,5b7fa64787d85f0001baf4fa,21,2022-02-12_08h27.14.715,lexical_decision_task_DD_L2,2021.2.3,Linux armv8l,60.12144532,,,,,,,,,,0.7805,1,,,,,,,,,,,,,,,0,-0.233890805,-0.359310933,1,0,0,0.7805,button_left_main,-0.233890805,-0.359310933,1,0,0,,0,112,112,124,1,TUNCH,HB,old,z,./images/TUNCHHB.png,,,,,,,,,,,,,,,,,,,,,,,,,,,,,,,,,
,,,,,,,,,,,,,,,,,5b7fa64787d85f0001baf4fa,21,2022-02-12_08h27.14.715,lexical_decision_task_DD_L2,2021.2.3,Linux armv8l,60.12144532,,,,,,,,,,0.7122,1,,,,,,,,,,,,,,,0,-0.231118847,-0.337135134,1,0,0,0.7122,button_left_main,-0.231118847,-0.337135134,1,0,0,,0,113,113,98,1,BAMPS,LB,old,z,./images/BAMPSLB.png,,,,,,,,,,,,,,,,,,,,,,,,,,,,,,,,,
,,,,,,,,,,,,,,,,,5b7fa64787d85f0001baf4fa,21,2022-02-12_08h27.14.715,lexical_decision_task_DD_L2,2021.2.3,Linux armv8l,60.12144532,,,,,,,,,,0.6502,1,,,,,,,,,,,,,,,0,0.356538974,-0.259519902,1,0,0,0.6502,button_right_main,0.356538974,-0.259519902,1,0,0,,0,114,114,71,1,PIMPLE,C,old,m,./images/PIMPLE.png,,,,,,,,,,,,,,,,,,,,,,,,,,,,,,,,,
,,,,,,,,,,,,,,,,,5b7fa64787d85f0001baf4fa,21,2022-02-12_08h27.14.715,lexical_decision_task_DD_L2,2021.2.3,Linux armv8l,60.12144532,,,,,,,,,,0.6787,1,,,,,,,,,,,,,,,0,0.375018785,-0.270607868,1,0,0,0.6787,button_right_main,0.375018785,-0.270607868,1,0,0,,0,115,115,43,1,MOSQUE,LB,old,m,./images/MOSQUELB.png,,,,,,,,,,,,,,,,,,,,,,,,,,,,,,,,,
,,,,,,,,,,,,,,,,,5b7fa64787d85f0001baf4fa,21,2022-02-12_08h27.14.715,lexical_decision_task_DD_L2,2021.2.3,Linux armv8l,60.12144532,,,,,,,,,,1.0966,1,,,,,,,,,,,,,,,0,-0.229270836,-0.380562636,1,0,0,1.0966,button_left_main,-0.229270836,-0.380562636,1,0,0,,0,116,116,163,1,GAMBA,HB,old,z,./images/GAMBAHB.png,,,,,,,,,,,,,,,,,,,,,,,,,,,,,,,,,
,,,,,,,,,,,,,,,,,5b7fa64787d85f0001baf4fa,21,2022-02-12_08h27.14.715,lexical_decision_task_DD_L2,2021.2.3,Linux armv8l,60.12144532,,,,,,,,,,1.5779,1,,,,,,,,,,,,,,,0,-0.237586777,-0.361158861,1,0,0,1.5779,button_left_main,-0.237586777,-0.361158861,1,0,0,,0,117,117,109,1,BURGE,HB,old,z,./images/BURGEHB.png,,,,,,,,,,,,,,,,,,,,,,,,,,,,,,,,,
,,,,,,,,,,,,,,,,,5b7fa64787d85f0001baf4fa,21,2022-02-12_08h27.14.715,lexical_decision_task_DD_L2,2021.2.3,Linux armv8l,60.12144532,,,,,,,,,,0.8472,1,,,,,,,,,,,,,,,0,-0.256066572,-0.333439145,1,0,0,0.8472,button_left_main,-0.256066572,-0.333439145,1,0,0,,0,118,118,137,1,JOOST,LB,old,z,./images/JOOSTLB.png,,,,,,,,,,,,,,,,,,,,,,,,,,,,,,,,,
,,,,,,,,,,,,,,,,,5b7fa64787d85f0001baf4fa,21,2022-02-12_08h27.14.715,lexical_decision_task_DD_L2,2021.2.3,Linux armv8l,60.12144532,,,,,,,,,,0.7968,1,,,,,,,,,,,,,,,0,0.303871501,-0.237344367,1,0,0,0.7968,button_right_main,0.303871501,-0.237344367,1,0,0,,0,119,119,9,1,RHINO,HB,old,m,./images/RHINOHB.png,,,,,,,,,,,,,,,,,,,,,,,,,,,,,,,,,
,,,,,,,,,,,,,,,,,5b7fa64787d85f0001baf4fa,21,2022-02-12_08h27.14.715,lexical_decision_task_DD_L2,2021.2.3,Linux armv8l,60.12144532,,,,,,,,,,0.5459,1,,,,,,,,,,,,,,,0,0.284467792,-0.251204225,1,0,0,0.5459,button_right_main,0.284467792,-0.251204225,1,0,0,,0,120,120,75,1,GRAIN,HB,old,m,./images/GRAINHB.png,,,,,,,,,,,,,,,,,,,,,,,,,,,,,,,,,
,,,,,,,,,,,,,,,,,5b7fa64787d85f0001baf4fa,21,2022-02-12_08h27.14.715,lexical_decision_task_DD_L2,2021.2.3,Linux armv8l,60.12144532,,,,,,,,,,0.7468,1,,,,,,,,,,,,,,,0,-0.213563033,-0.334363241,1,0,0,0.7468,button_left_main,-0.213563033,-0.334363241,1,0,0,,0,121,121,128,1,GRIFT,LB,old,z,./images/GRIFTLB.png,,,,,,,,,,,,,,,,,,,,,,,,,,,,,,,,,
,,,,,,,,,,,,,,,,,5b7fa64787d85f0001baf4fa,21,2022-02-12_08h27.14.715,lexical_decision_task_DD_L2,2021.2.3,Linux armv8l,60.12144532,,,,,,,,,,0.5794,1,,,,,,,,,,,,,,,0,0.316807395,-0.267835844,1,0,0,0.5794,button_right_main,0.316807395,-0.267835844,1,0,0,,0,122,122,3,1,FINGER,HB,old,m,./images/FINGERHB.png,,,,,,,,,,,,,,,,,,,,,,,,,,,,,,,,,
,,,,,,,,,,,,,,,,,5b7fa64787d85f0001baf4fa,21,2022-02-12_08h27.14.715,lexical_decision_task_DD_L2,2021.2.3,Linux armv8l,60.12144532,,,,,,,,,,0.5999,1,,,,,,,,,,,,,,,0,-0.20155117,-0.334363241,1,0,0,0.5999,button_left_main,-0.20155117,-0.334363241,1,0,0,,0,123,123,116,1,BALGY,LB,old,z,./images/BALGYLB.png,,,,,,,,,,,,,,,,,,,,,,,,,,,,,,,,,
,,,,,,,,,,,,,,,,,5b7fa64787d85f0001baf4fa,21,2022-02-12_08h27.14.715,lexical_decision_task_DD_L2,2021.2.3,Linux armv8l,60.12144532,,,,,,,,,,0.6951,1,,,,,,,,,,,,,,,0,-0.202475101,-0.329743289,1,0,0,0.6951,button_left_main,-0.202475101,-0.329743289,1,0,0,,0,124,124,147,1,ZOLES,C,old,z,./images/ZOLES.png,,,,,,,,,,,,,,,,,,,,,,,,,,,,,,,,,
,,,,,,,,,,,,,,,,,5b7fa64787d85f0001baf4fa,21,2022-02-12_08h27.14.715,lexical_decision_task_DD_L2,2021.2.3,Linux armv8l,60.12144532,,,,,,,,,,0.9113,1,,,,,,,,,,,,,,,0,0.290935673,-0.249356033,1,0,0,0.9113,button_right_main,-0.022297046,-0.382410828,1,0,0,,0,125,125,56,1,PACKET,C,old,m,./images/PACKET.png,break_done_button,,,,,,,,,,,,,,,,,,,,,,,,,,,,,,,,
,,,,,,,,,,,,,,,,,5b7fa64787d85f0001baf4fa,21,2022-02-12_08h27.14.715,lexical_decision_task_DD_L2,2021.2.3,Linux armv8l,60.12144532,,,,,,,,,,0.6812,1,,,,,,,,,,,,,,,0,0.280771737,-0.276151785,1,0,0,0.6812,button_right_main,0.280771737,-0.276151785,1,0,0,,0,126,126,34,1,CANYON,LB,old,m,./images/CANYONLB.png,,,,,,,,,,,,,,,,,,,,,,,,,,,,,,,,,
,,,,,,,,,,,,,,,,,5b7fa64787d85f0001baf4fa,21,2022-02-12_08h27.14.715,lexical_decision_task_DD_L2,2021.2.3,Linux armv8l,60.12144532,,,,,,,,,,0.8102,1,,,,,,,,,,,,,,,0,0.326971264,-0.263215891,1,0,0,0.8102,button_right_main,0.326971264,-0.263215891,1,0,0,,0,127,127,77,1,COUCH,C,old,m,./images/COUCH.png,,,,,,,,,,,,,,,,,,,,,,,,,,,,,,,,,
,,,,,,,,,,,,,,,,,5b7fa64787d85f0001baf4fa,21,2022-02-12_08h27.14.715,lexical_decision_task_DD_L2,2021.2.3,Linux armv8l,60.12144532,,,,,,,,,,0.9989,1,,,,,,,,,,,,,,,0,-0.229270836,-0.35284292,1,0,0,0.9989,button_left_main,-0.229270836,-0.35284292,1,0,0,,0,128,128,85,1,CHULK,HB,old,z,./images/CHULKHB.png,,,,,,,,,,,,,,,,,,,,,,,,,,,,,,,,,
,,,,,,,,,,,,,,,,,5b7fa64787d85f0001baf4fa,21,2022-02-12_08h27.14.715,lexical_decision_task_DD_L2,2021.2.3,Linux armv8l,60.12144532,,,,,,,,,,0.7459,1,,,,,,,,,,,,,,,0,0.270607934,-0.238268199,1,0,0,0.7459,button_right_main,0.270607934,-0.238268199,1,0,0,,0,129,129,21,1,KIDNEY,HB,old,m,./images/KIDNEYHB.png,,,,,,,,,,,,,,,,,,,,,,,,,,,,,,,,,
,,,,,,,,,,,,,,,,,5b7fa64787d85f0001baf4fa,21,2022-02-12_08h27.14.715,lexical_decision_task_DD_L2,2021.2.3,Linux armv8l,60.12144532,,,,,,,,,,0.5634,1,,,,,,,,,,,,,,,0,0.339907158,-0.261367963,1,0,0,0.5634,button_right_main,0.339907158,-0.261367963,1,0,0,,0,130,130,37,1,BIRTH,LB,old,m,./images/BIRTHLB.png,,,,,,,,,,,,,,,,,,,,,,,,,,,,,,,,,
,,,,,,,,,,,,,,,,,5b7fa64787d85f0001baf4fa,21,2022-02-12_08h27.14.715,lexical_decision_task_DD_L2,2021.2.3,Linux armv8l,60.12144532,,,,,,,,,,0.5138,1,,,,,,,,,,,,,,,0,0.297403554,-0.278923941,1,0,0,0.5138,button_right_main,0.297403554,-0.278923941,1,0,0,,0,131,131,33,1,MAGGOT,HB,old,m,./images/MAGGOTHB.png,,,,,,,,,,,,,,,,,,,,,,,,,,,,,,,,,
,,,,,,,,,,,,,,,,,5b7fa64787d85f0001baf4fa,21,2022-02-12_08h27.14.715,lexical_decision_task_DD_L2,2021.2.3,Linux armv8l,60.12144532,,,,,,,,,,0.948,0,,,,,,,,,,,,,,,0,0.203156572,-0.270607868,1,0,0,0.948,button_right_main,0.203156572,-0.270607868,1,0,0,,0,132,132,166,1,SHORY,HB,old,z,./images/SHORYHB.png,,,,,,,,,,,,,,,,,,,,,,,,,,,,,,,,,
,,,,,,,,,,,,,,,,,5b7fa64787d85f0001baf4fa,21,2022-02-12_08h27.14.715,lexical_decision_task_DD_L2,2021.2.3,Linux armv8l,60.12144532,,,,,,,,,,0.5126,0,,,,,,,,,,,,,,,0,0.247508105,-0.28539169,1,0,0,0.5126,button_right_main,0.247508105,-0.28539169,1,0,0,,0,133,133,110,1,CRUNK,LB,old,z,./images/CRUNKLB.png,,,,,,,,,,,,,,,,,,,,,,,,,,,,,,,,,
,,,,,,,,,,,,,,,,,5b7fa64787d85f0001baf4fa,21,2022-02-12_08h27.14.715,lexical_decision_task_DD_L2,2021.2.3,Linux armv8l,60.12144532,,,,,,,,,,0.6644,1,,,,,,,,,,,,,,,0,0.265063885,-0.278923941,1,0,0,0.6644,button_right_main,0.265063885,-0.278923941,1,0,0,,0,134,134,12,1,SHORE,HB,old,m,./images/SHOREHB.png,,,,,,,,,,,,,,,,,,,,,,,,,,,,,,,,,
,,,,,,,,,,,,,,,,,5b7fa64787d85f0001baf4fa,21,2022-02-12_08h27.14.715,lexical_decision_task_DD_L2,2021.2.3,Linux armv8l,60.12144532,,,,,,,,,,0.9642,1,,,,,,,,,,,,,,,0,0.294631595,-0.283543762,1,0,0,0.9642,button_right_main,0.294631595,-0.283543762,1,0,0,,0,135,135,30,1,STORM,HB,old,m,./images/STORMHB.png,,,,,,,,,,,,,,,,,,,,,,,,,,,,,,,,,
,,,,,,,,,,,,,,,,,5b7fa64787d85f0001baf4fa,21,2022-02-12_08h27.14.715,lexical_decision_task_DD_L2,2021.2.3,Linux armv8l,60.12144532,,,,,,,,,,0.497,1,,,,,,,,,,,,,,,0,0.250280063,-0.300175512,1,0,0,0.497,button_right_main,0.250280063,-0.300175512,1,0,0,,0,136,136,62,1,PURSE,C,old,m,./images/PURSE.png,,,,,,,,,,,,,,,,,,,,,,,,,,,,,,,,,
,,,,,,,,,,,,,,,,,5b7fa64787d85f0001baf4fa,21,2022-02-12_08h27.14.715,lexical_decision_task_DD_L2,2021.2.3,Linux armv8l,60.12144532,,,,,,,,,,0.6679,1,,,,,,,,,,,,,,,0,-0.246826683,-0.365778814,1,0,0,0.6679,button_left_main,-0.246826683,-0.365778814,1,0,0,,0,137,137,131,1,NACES,LB,old,z,./images/NACESLB.png,,,,,,,,,,,,,,,,,,,,,,,,,,,,,,,,,
,,,,,,,,,,,,,,,,,5b7fa64787d85f0001baf4fa,21,2022-02-12_08h27.14.715,lexical_decision_task_DD_L2,2021.2.3,Linux armv8l,60.12144532,,,,,,,,,,0.5977,1,,,,,,,,,,,,,,,0,-0.231118847,-0.340831122,1,0,0,0.5977,button_left_main,-0.231118847,-0.340831122,1,0,0,,0,138,138,135,1,JOODY,C,old,z,./images/JOODY.png,,,,,,,,,,,,,,,,,,,,,,,,,,,,,,,,,
,,,,,,,,,,,,,,,,,5b7fa64787d85f0001baf4fa,21,2022-02-12_08h27.14.715,lexical_decision_task_DD_L2,2021.2.3,Linux armv8l,60.12144532,,,,,,,,,,1.3634,0,,,,,,,,,,,,,,,0,0.279847839,-0.247508105,1,0,0,1.3634,button_right_main,0.279847839,-0.247508105,1,0,0,,0,139,139,130,1,CRILL,HB,old,z,./images/CRILLHB.png,,,,,,,,,,,,,,,,,,,,,,,,,,,,,,,,,
,,,,,,,,,,,,,,,,,5b7fa64787d85f0001baf4fa,21,2022-02-12_08h27.14.715,lexical_decision_task_DD_L2,2021.2.3,Linux armv8l,60.12144532,,,,,,,,,,1.5296,1,,,,,,,,,,,,,,,0,-0.221878942,-0.333439145,1,0,0,1.5296,button_left_main,-0.221878942,-0.333439145,1,0,0,,0,140,140,121,1,CEERS,HB,old,z,./images/CEERSHB.png,,,,,,,,,,,,,,,,,,,,,,,,,,,,,,,,,
,,,,,,,,,,,,,,,,,5b7fa64787d85f0001baf4fa,21,2022-02-12_08h27.14.715,lexical_decision_task_DD_L2,2021.2.3,Linux armv8l,60.12144532,,,,,,,,,,0.6004,1,,,,,,,,,,,,,,,0,0.226256336,-0.265064083,1,0,0,0.6004,button_right_main,0.226256336,-0.265064083,1,0,0,,0,141,141,22,1,MELON,LB,old,m,./images/MELONLB.png,,,,,,,,,,,,,,,,,,,,,,,,,,,,,,,,,
,,,,,,,,,,,,,,,,,5b7fa64787d85f0001baf4fa,21,2022-02-12_08h27.14.715,lexical_decision_task_DD_L2,2021.2.3,Linux armv8l,60.12144532,,,,,,,,,,0.5301,1,,,,,,,,,,,,,,,0,0.253052021,-0.266911879,1,0,0,0.5301,button_right_main,0.253052021,-0.266911879,1,0,0,,0,142,142,64,1,JELLY,LB,old,m,./images/JELLYLB.png,,,,,,,,,,,,,,,,,,,,,,,,,,,,,,,,,
,,,,,,,,,,,,,,,,,5b7fa64787d85f0001baf4fa,21,2022-02-12_08h27.14.715,lexical_decision_task_DD_L2,2021.2.3,Linux armv8l,60.12144532,,,,,,,,,,0.8466,1,,,,,,,,,,,,,,,0,0.222560347,-0.230876222,1,0,0,0.8466,button_right_main,0.222560347,-0.230876222,1,0,0,,0,143,143,50,1,MALLET,C,old,m,./images/MALLET.png,,,,,,,,,,,,,,,,,,,,,,,,,,,,,,,,,
,,,,,,,,,,,,,,,,,5b7fa64787d85f0001baf4fa,21,2022-02-12_08h27.14.715,lexical_decision_task_DD_L2,2021.2.3,Linux armv8l,60.12144532,,,,,,,,,,0.5307,1,,,,,,,,,,,,,,,0,0.263216023,-0.251204225,1,0,0,0.5307,button_right_main,0.263216023,-0.251204225,1,0,0,,0,144,144,68,1,TORCH,C,old,m,./images/TORCH.png,,,,,,,,,,,,,,,,,,,,,,,,,,,,,,,,,
,,,,,,,,,,,,,,,,,5b7fa64787d85f0001baf4fa,21,2022-02-12_08h27.14.715,lexical_decision_task_DD_L2,2021.2.3,Linux armv8l,60.12144532,,,,,,,,,,0.5111,1,,,,,,,,,,,,,,,0,0.259519968,-0.268759808,1,0,0,0.5111,button_right_main,0.259519968,-0.268759808,1,0,0,,0,145,145,74,1,CEMENT,C,old,m,./images/CEMENT.png,,,,,,,,,,,,,,,,,,,,,,,,,,,,,,,,,
,,,,,,,,,,,,,,,,,5b7fa64787d85f0001baf4fa,21,2022-02-12_08h27.14.715,lexical_decision_task_DD_L2,2021.2.3,Linux armv8l,60.12144532,,,,,,,,,,0.5308,1,,,,,,,,,,,,,,,0,0.257671974,-0.275227821,1,0,0,0.5308,button_right_main,0.257671974,-0.275227821,1,0,0,,0,146,146,0,1,TOMATO,HB,old,m,./images/TOMATOHB.png,,,,,,,,,,,,,,,,,,,,,,,,,,,,,,,,,
,,,,,,,,,,,,,,,,,5b7fa64787d85f0001baf4fa,21,2022-02-12_08h27.14.715,lexical_decision_task_DD_L2,2021.2.3,Linux armv8l,60.12144532,,,,,,,,,,0.6627,1,,,,,,,,,,,,,,,0,0.279847839,-0.268759808,1,0,0,0.6627,button_right_main,0.279847839,-0.268759808,1,0,0,,0,147,147,32,1,BARREL,C,old,m,./images/BARREL.png,,,,,,,,,,,,,,,,,,,,,,,,,,,,,,,,,
,,,,,,,,,,,,,,,,,5b7fa64787d85f0001baf4fa,21,2022-02-12_08h27.14.715,lexical_decision_task_DD_L2,2021.2.3,Linux armv8l,60.12144532,,,,,,,,,,0.6303,1,,,,,,,,,,,,,,,0,0.290935673,-0.266911879,1,0,0,0.6303,button_right_main,0.290935673,-0.266911879,1,0,0,,0,148,148,78,1,LITTER,HB,old,m,./images/LITTERHB.png,,,,,,,,,,,,,,,,,,,,,,,,,,,,,,,,,
,,,,,,,,,,,,,,,,,5b7fa64787d85f0001baf4fa,21,2022-02-12_08h27.14.715,lexical_decision_task_DD_L2,2021.2.3,Linux armv8l,60.12144532,,,,,,,,,,0.5451,1,,,,,,,,,,,,,,,0,0.284467792,-0.270607868,1,0,0,0.5451,button_right_main,0.284467792,-0.270607868,1,0,0,,0,149,149,20,1,CRADLE,C,old,m,./images/CRADLE.png,,,,,,,,,,,,,,,,,,,,,,,,,,,,,,,,,
,,,,,,,,,,,,,,,,,5b7fa64787d85f0001baf4fa,21,2022-02-12_08h27.14.715,lexical_decision_task_DD_L2,2021.2.3,Linux armv8l,60.12144532,,,,,,,,,,0.5655,1,,,,,,,,,,,,,,,0,0.280771737,-0.265987915,1,0,0,0.5655,button_right_main,0.280771737,-0.265987915,1,0,0,,0,150,150,35,1,PEACH,C,old,m,./images/PEACH.png,,,,,,,,,,,,,,,,,,,,,,,,,,,,,,,,,
,,,,,,,,,,,,,,,,,5b7fa64787d85f0001baf4fa,21,2022-02-12_08h27.14.715,lexical_decision_task_DD_L2,2021.2.3,Linux armv8l,60.12144532,,,,,,,,,,1.5153,1,,,,,,,,,,,,,,,0,-0.225574897,-0.356538909,1,0,0,1.5153,button_left_main,-0.225574897,-0.356538909,1,0,0,,0,151,151,165,1,TROWN,C,old,z,./images/TROWN.png,,,,,,,,,,,,,,,,,,,,,,,,,,,,,,,,,
,,,,,,,,,,,,,,,,,5b7fa64787d85f0001baf4fa,21,2022-02-12_08h27.14.715,lexical_decision_task_DD_L2,2021.2.3,Linux armv8l,60.12144532,,,,,,,,,,0.7596,1,,,,,,,,,,,,,,,0,-0.216334992,-0.33990729,1,0,0,0.7596,button_left_main,-0.216334992,-0.33990729,1,0,0,,0,152,152,93,1,SMONE,C,old,z,./images/SMONE.png,,,,,,,,,,,,,,,,,,,,,,,,,,,,,,,,,
,,,,,,,,,,,,,,,,,5b7fa64787d85f0001baf4fa,21,2022-02-12_08h27.14.715,lexical_decision_task_DD_L2,2021.2.3,Linux armv8l,60.12144532,,,,,,,,,,0.8438,1,,,,,,,,,,,,,,,0,-0.211715039,-0.335287337,1,0,0,0.8438,button_left_main,-0.211715039,-0.335287337,1,0,0,,0,153,153,123,1,SEDGE,C,old,z,./images/SEDGE.png,,,,,,,,,,,,,,,,,,,,,,,,,,,,,,,,,
,,,,,,,,,,,,,,,,,5b7fa64787d85f0001baf4fa,21,2022-02-12_08h27.14.715,lexical_decision_task_DD_L2,2021.2.3,Linux armv8l,60.12144532,,,,,,,,,,0.7458,1,,,,,,,,,,,,,,,0,-0.206171089,-0.340831122,1,0,0,0.7458,button_left_main,-0.206171089,-0.340831122,1,0,0,,0,154,154,94,1,BLANS,HB,old,z,./images/BLANSHB.png,,,,,,,,,,,,,,,,,,,,,,,,,,,,,,,,,
,,,,,,,,,,,,,,,,,5b7fa64787d85f0001baf4fa,21,2022-02-12_08h27.14.715,lexical_decision_task_DD_L2,2021.2.3,Linux armv8l,60.12144532,,,,,,,,,,1.346,1,,,,,,,,,,,,,,,0,-0.21448703,-0.328819193,1,0,0,1.346,button_left_main,-0.21448703,-0.328819193,1,0,0,,0,155,155,88,1,GLUSH,HB,old,z,./images/GLUSHHB.png,,,,,,,,,,,,,,,,,,,,,,,,,,,,,,,,,
,,,,,,,,,,,,,,,,,5b7fa64787d85f0001baf4fa,21,2022-02-12_08h27.14.715,lexical_decision_task_DD_L2,2021.2.3,Linux armv8l,60.12144532,,,,,,,,,,0.6006,1,,,,,,,,,,,,,,,0,0.275227887,-0.255824178,1,0,0,0.6006,button_right_main,0.275227887,-0.255824178,1,0,0,,0,156,156,4,1,MUSCLE,LB,old,m,./images/MUSCLELB.png,,,,,,,,,,,,,,,,,,,,,,,,,,,,,,,,,
,,,,,,,,,,,,,,,,,5b7fa64787d85f0001baf4fa,21,2022-02-12_08h27.14.715,lexical_decision_task_DD_L2,2021.2.3,Linux armv8l,60.12144532,,,,,,,,,,0.5479,1,,,,,,,,,,,,,,,0,0.25674801,-0.275227821,1,0,0,0.5479,button_right_main,0.25674801,-0.275227821,1,0,0,,0,157,157,55,1,MUFFIN,LB,old,m,./images/MUFFINLB.png,,,,,,,,,,,,,,,,,,,,,,,,,,,,,,,,,
,,,,,,,,,,,,,,,,,5b7fa64787d85f0001baf4fa,21,2022-02-12_08h27.14.715,lexical_decision_task_DD_L2,2021.2.3,Linux armv8l,60.12144532,,,,,,,,,,0.5484,1,,,,,,,,,,,,,,,0,0.265987915,-0.278923941,1,0,0,0.5484,button_right_main,0.265987915,-0.278923941,1,0,0,,0,158,158,41,1,STRING,C,old,m,./images/STRING.png,,,,,,,,,,,,,,,,,,,,,,,,,,,,,,,,,
,,,,,,,,,,,,,,,,,5b7fa64787d85f0001baf4fa,21,2022-02-12_08h27.14.715,lexical_decision_task_DD_L2,2021.2.3,Linux armv8l,60.12144532,,,,,,,,,,1.4269,1,,,,,,,,,,,,,,,0,0.251204093,-0.279847773,1,0,0,1.4269,button_right_main,0.251204093,-0.279847773,1,0,0,,0,159,159,65,1,FARMER,C,old,m,./images/FARMER.png,,,,,,,,,,,,,,,,,,,,,,,,,,,,,,,,,
,,,,,,,,,,,,,,,,,5b7fa64787d85f0001baf4fa,21,2022-02-12_08h27.14.715,lexical_decision_task_DD_L2,2021.2.3,Linux armv8l,60.12144532,,,,,,,,,,1.4812,1,,,,,,,,,,,,,,,0,0.301099542,-0.29555556,1,0,0,1.4812,button_right_main,0.301099542,-0.29555556,1,0,0,,0,160,160,44,1,LIZARD,C,old,m,./images/LIZARD.png,,,,,,,,,,,,,,,,,,,,,,,,,,,,,,,,,
,,,,,,,,,,,,,,,,,5b7fa64787d85f0001baf4fa,21,2022-02-12_08h27.14.715,lexical_decision_task_DD_L2,2021.2.3,Linux armv8l,60.12144532,,,,,,,,,,0.5809,1,,,,,,,,,,,,,,,0,0.330667253,-0.272455796,1,0,0,0.5809,button_right_main,0.330667253,-0.272455796,1,0,0,,0,161,161,45,1,KITTEN,HB,old,m,./images/KITTENHB.png,,,,,,,,,,,,,,,,,,,,,,,,,,,,,,,,,
,,,,,,,,,,,,,,,,,5b7fa64787d85f0001baf4fa,21,2022-02-12_08h27.14.715,lexical_decision_task_DD_L2,2021.2.3,Linux armv8l,60.12144532,,,,,,,,,,1.2123,1,,,,,,,,,,,,,,,0,0.249356165,-0.252128057,1,0,0,1.2123,button_right_main,0.249356165,-0.252128057,1,0,0,,0,162,162,31,1,QUILL,LB,old,m,./images/QUILLLB.png,,,,,,,,,,,,,,,,,,,,,,,,,,,,,,,,,
,,,,,,,,,,,,,,,,,5b7fa64787d85f0001baf4fa,21,2022-02-12_08h27.14.715,lexical_decision_task_DD_L2,2021.2.3,Linux armv8l,60.12144532,,,,,,,,,,0.5031,1,,,,,,,,,,,,,,,0,0.259519968,-0.28908781,1,0,0,0.5031,button_right_main,0.259519968,-0.28908781,1,0,0,,0,163,163,13,1,MOTOR,LB,old,m,./images/MOTORLB.png,,,,,,,,,,,,,,,,,,,,,,,,,,,,,,,,,
,,,,,,,,,,,,,,,,,5b7fa64787d85f0001baf4fa,21,2022-02-12_08h27.14.715,lexical_decision_task_DD_L2,2021.2.3,Linux armv8l,60.12144532,,,,,,,,,,0.6154,1,,,,,,,,,,,,,,,0,0.273379826,-0.279847773,1,0,0,0.6154,button_right_main,0.273379826,-0.279847773,1,0,0,,0,164,164,51,1,ONION,HB,old,m,./images/ONIONHB.png,,,,,,,,,,,,,,,,,,,,,,,,,,,,,,,,,
,,,,,,,,,,,,,,,,,5b7fa64787d85f0001baf4fa,21,2022-02-12_08h27.14.715,lexical_decision_task_DD_L2,2021.2.3,Linux armv8l,60.12144532,,,,,,,,,,0.9634,1,,,,,,,,,,,,,,,0,-0.222802939,-0.342679051,1,0,0,0.9634,button_left_main,-0.222802939,-0.342679051,1,0,0,,0,165,165,164,1,SGREW,LB,old,z,./images/SGREWLB.png,,,,,,,,,,,,,,,,,,,,,,,,,,,,,,,,,
,,,,,,,,,,,,,,,,,5b7fa64787d85f0001baf4fa,21,2022-02-12_08h27.14.715,lexical_decision_task_DD_L2,2021.2.3,Linux armv8l,60.12144532,,,,,,,,,,0.4643,1,,,,,,,,,,,,,,,0,0.228104396,-0.280771737,1,0,0,0.4643,button_right_main,0.228104396,-0.280771737,1,0,0,,0,166,166,83,1,JUNGLE,C,old,m,./images/JUNGLE.png,,,,,,,,,,,,,,,,,,,,,,,,,,,,,,,,,
,,,,,,,,,,,,,,,,,5b7fa64787d85f0001baf4fa,21,2022-02-12_08h27.14.715,lexical_decision_task_DD_L2,2021.2.3,Linux armv8l,60.12144532,,,,,,,,,,0.8154,1,,,,,,,,,,,,,,,0,-0.234814802,-0.343603015,1,0,0,0.8154,button_left_main,-0.234814802,-0.343603015,1,0,0,,0,167,167,162,1,LEICH,C,old,z,./images/LEICH.png,,,,,,,,,,,,,,,,,,,,,,,,,,,,,,,,,
,,,,,,,,,,,,,,,,,5b7fa64787d85f0001baf4fa,21,2022-02-12_08h27.14.715,lexical_decision_task_DD_L2,2021.2.3,Linux armv8l,60.12144532,,,,,,,,,,,,,,,,,,,,,,,,,,,,,,,,,,,,,,,,,,,,,,How likely will it be that you will recognize the words presented very blurred on a scale of 0 (not likely) to 100 (most likely)?,,,,,0.004498673,-0.392574566,1,0,0,jol_adv,3,5.0554,0,0,0,2,1,,,,,,,,,,,,,,,,,,,
,,,,,,,,,,,,,,,,,5b7fa64787d85f0001baf4fa,21,2022-02-12_08h27.14.715,lexical_decision_task_DD_L2,2021.2.3,Linux armv8l,60.12144532,,,,,,,,,,,,,,,,,,,,,,,,,,,,,,,,,,,,,,,,,,,,,,How likely will it be that you will recognize the words presented clearly on a scale of 0 (not likely) to 100 (most likely)?,,,,,,,,,,,1,4.5742,0,1,1,0,1,,,,,,,,,,,,,,,,,,,
,,,,,,,,,,,,,,,,,5b7fa64787d85f0001baf4fa,21,2022-02-12_08h27.14.715,lexical_decision_task_DD_L2,2021.2.3,Linux armv8l,60.12144532,,,,,,,,,,,,,,,,,,,,,,,,,,,,,,,,,,,,,,,,,,,,,,How likely will it be that you will recognize the words presented slighly blurred on a scale of 0 (not likely) to 100 (most likely)?,,,,,,,,,,,2,3.1735,0,2,2,1,1,,,,,,,,,,,,,,,,,,,
,0.064558124,-0.413826401,1,0,0,instr_done_button,,,,,,1,test,"In the next phase you will be presented with the words from the the first phase. Your job is to decide whether you remember seeing the word or not. If you remember seeing the word press ""old"" or type ""m"". If you do not remember seeing the word press ""new"" or type ""z"". Please press the space bar or click on continue to begin. ",,,5b7fa64787d85f0001baf4fa,21,2022-02-12_08h27.14.715,lexical_decision_task_DD_L2,2021.2.3,Linux armv8l,60.12144532,,,,,,,,,,,,,,,,,,,,,,,,,,,,,,,,,,,,,,,,,,,,,,,,,,,,,,,,,,,,,,,,0,0,0,0,1,,,,,,,,,,,,,,
,-0.010285182,-0.399966543,1,0,0,instr_done_button,,,,,,1,test,"In the next phase you will be presented with the words from the the first phase. Your job is to decide whether you remember seeing the word or not. If you remember seeing the word press ""old"" or type ""m"". If you do not remember seeing the word press ""new"" or type ""z"". Please press the space bar or click on continue to begin. ",,,5b7fa64787d85f0001baf4fa,21,2022-02-12_08h27.14.715,lexical_decision_task_DD_L2,2021.2.3,Linux armv8l,60.12144532,,,,,,,,,,,,,,,,,,,,,,,,,,,,,,,,,,,,,,,,,,,,,,,,,,,,,,,,,,,,,,,,1,0,1,0,1,,,,,,,,,,,,,,
,-0.096216222,-0.388878577,1,0,0,instr_done_button,,,,,,1,test,"In the next phase you will be presented with the words from the the first phase. Your job is to decide whether you remember seeing the word or not. If you remember seeing the word press ""old"" or type ""m"". If you do not remember seeing the word press ""new"" or type ""z"". Please press the space bar or click on continue to begin. ",,,5b7fa64787d85f0001baf4fa,21,2022-02-12_08h27.14.715,lexical_decision_task_DD_L2,2021.2.3,Linux armv8l,60.12144532,,,,,,,,,,,,,,,,,,,,,,,,,,,,,,,,,,,,,,,,,,,,,,,,,,,,,,,,,,,,,,,,2,0,2,0,1,,,,,,,,,,,,,,
,0.035914345,-0.417522257,1,0,0,instr_done_button,,,,,,1,test,"In the next phase you will be presented with the words from the the first phase. Your job is to decide whether you remember seeing the word or not. If you remember seeing the word press ""old"" or type ""m"". If you do not remember seeing the word press ""new"" or type ""z"". Please press the space bar or click on continue to begin. ",,,5b7fa64787d85f0001baf4fa,21,2022-02-12_08h27.14.715,lexical_decision_task_DD_L2,2021.2.3,Linux armv8l,60.12144532,,,,,,,,,,,,,,,,,,,,,,,,,,,,,,,,,,,,,,,,,,,,,,,,,,,,,,,,,,,,,,,,3,0,3,0,1,,,,,,,,,,,,,,
,-0.081432433,-0.404586495,1,0,0,instr_done_button,,,,,,1,test,"In the next phase you will be presented with the words from the the first phase. Your job is to decide whether you remember seeing the word or not. If you remember seeing the word press ""old"" or type ""m"". If you do not remember seeing the word press ""new"" or type ""z"". Please press the space bar or click on continue to begin. ",,,5b7fa64787d85f0001baf4fa,21,2022-02-12_08h27.14.715,lexical_decision_task_DD_L2,2021.2.3,Linux armv8l,60.12144532,,,,,,,,,,,,,,,,,,,,,,,,,,,,,,,,,,,,,,,,,,,,,,,,,,,,,,,,,,,,,,,,4,0,4,0,1,,,,,,,,,,,,,,
,,,,,,,,,,,,,,,,,5b7fa64787d85f0001baf4fa,21,2022-02-12_08h27.14.715,lexical_decision_task_DD_L2,2021.2.3,Linux armv8l,60.12144532,,,,,,,,,,1.8736,1,,,,,,,,,,,,,,,,,,,,,,,-0.332757773,-0.356538909,1,0,0,,,,,,,CLIFF,C,z,y,./images/CLIFF.png,,,,,,,,,,,,,,,,,,,,,0,-0.332757773,-0.356538909,1,0,0,1.8736,button_left_test,0,0,0,92,1
,,,,,,,,,,,,,,,,,5b7fa64787d85f0001baf4fa,21,2022-02-12_08h27.14.715,lexical_decision_task_DD_L2,2021.2.3,Linux armv8l,60.12144532,,,,,,,,,,1.661,1,,,,,,,,,,,,,,,,,,,,,,,-0.365097425,-0.36485485,1,0,0,,,,,,,MEDAL,C,z,y,./images/MEDAL.png,,,,,,,,,,,,,,,,,,,,,0,-0.365097425,-0.36485485,1,0,0,1.661,button_left_test,0,1,1,95,1
,,,,,,,,,,,,,,,,,5b7fa64787d85f0001baf4fa,21,2022-02-12_08h27.14.715,lexical_decision_task_DD_L2,2021.2.3,Linux armv8l,60.12144532,,,,,,,,,,0.7115,1,,,,,,,,,,,,,,,,,,,,,,,0.382410762,-0.233648247,1,0,0,,,,,,,SWING,LB,m,y,./images/SWINGLB.png,,,,,,,,,,,,,,,,,,,,,0,0.382410762,-0.233648247,1,0,0,0.7115,button_right_test,0,2,2,40,1
,,,,,,,,,,,,,,,,,5b7fa64787d85f0001baf4fa,21,2022-02-12_08h27.14.715,lexical_decision_task_DD_L2,2021.2.3,Linux armv8l,60.12144532,,,,,,,,,,0.9974,1,,,,,,,,,,,,,,,,,,,,,,,-0.286558262,-0.370398767,1,0,0,,,,,,,BUTTER,HB,z,y,./images/BUTTERHB.png,,,,,,,,,,,,,,,,,,,,,0,-0.286558262,-0.370398767,1,0,0,0.9974,button_left_test,0,3,3,111,1
,,,,,,,,,,,,,,,,,5b7fa64787d85f0001baf4fa,21,2022-02-12_08h27.14.715,lexical_decision_task_DD_L2,2021.2.3,Linux armv8l,60.12144532,,,,,,,,,,1.1274,1,,,,,,,,,,,,,,,,,,,,,,,0.39349853,-0.210548483,1,0,0,,,,,,,MOTOR,LB,m,y,./images/MOTORLB.png,,,,,,,,,,,,,,,,,,,,,0,0.39349853,-0.210548483,1,0,0,1.1274,button_right_test,0,4,4,13,1
,,,,,,,,,,,,,,,,,5b7fa64787d85f0001baf4fa,21,2022-02-12_08h27.14.715,lexical_decision_task_DD_L2,2021.2.3,Linux armv8l,60.12144532,,,,,,,,,,0.7286,1,,,,,,,,,,,,,,,,,,,,,,,-0.245902686,-0.375018719,1,0,0,,,,,,,SNAKE,LB,z,y,./images/SNAKELB.png,,,,,,,,,,,,,,,,,,,,,0,-0.245902686,-0.375018719,1,0,0,0.7286,button_left_test,0,5,5,124,1
,,,,,,,,,,,,,,,,,5b7fa64787d85f0001baf4fa,21,2022-02-12_08h27.14.715,lexical_decision_task_DD_L2,2021.2.3,Linux armv8l,60.12144532,,,,,,,,,,0.9944,1,,,,,,,,,,,,,,,,,,,,,,,0.399042579,-0.221636317,1,0,0,,,,,,,LIZARD,C,m,y,./images/LIZARD.png,,,,,,,,,,,,,,,,,,,,,0,0.399042579,-0.221636317,1,0,0,0.9944,button_right_test,0,6,6,44,1
,,,,,,,,,,,,,,,,,5b7fa64787d85f0001baf4fa,21,2022-02-12_08h27.14.715,lexical_decision_task_DD_L2,2021.2.3,Linux armv8l,60.12144532,,,,,,,,,,0.6456,1,,,,,,,,,,,,,,,,,,,,,,,-0.251446619,-0.386106685,1,0,0,,,,,,,BISHOP,LB,z,y,./images/BISHOPLB.png,,,,,,,,,,,,,,,,,,,,,0,-0.251446619,-0.386106685,1,0,0,0.6456,button_left_test,0,7,7,133,1
,,,,,,,,,,,,,,,,,5b7fa64787d85f0001baf4fa,21,2022-02-12_08h27.14.715,lexical_decision_task_DD_L2,2021.2.3,Linux armv8l,60.12144532,,,,,,,,,,0.8616,0,,,,,,,,,,,,,,,,,,,,,,,0.418446287,-0.212396412,1,0,0,,,,,,,COLLAR,HB,z,y,./images/COLLARHB.png,,,,,,,,,,,,,,,,,,,,,0,0.418446287,-0.212396412,1,0,0,0.8616,button_right_test,0,8,8,99,1
,,,,,,,,,,,,,,,,,5b7fa64787d85f0001baf4fa,21,2022-02-12_08h27.14.715,lexical_decision_task_DD_L2,2021.2.3,Linux armv8l,60.12144532,,,,,,,,,,0.5677,1,,,,,,,,,,,,,,,,,,,,,,,0.397194518,-0.210548483,1,0,0,,,,,,,SNACK,LB,m,y,./images/SNACKLB.png,,,,,,,,,,,,,,,,,,,,,0,0.397194518,-0.210548483,1,0,0,0.5677,button_right_test,0,9,9,73,1
,,,,,,,,,,,,,,,,,5b7fa64787d85f0001baf4fa,21,2022-02-12_08h27.14.715,lexical_decision_task_DD_L2,2021.2.3,Linux armv8l,60.12144532,,,,,,,,,,0.9128,1,,,,,,,,,,,,,,,,,,,,,,,-0.293950157,-0.377790875,1,0,0,,,,,,,FERRY,HB,z,y,./images/FERRYHB.png,,,,,,,,,,,,,,,,,,,,,0,-0.293950157,-0.377790875,1,0,0,0.9128,button_left_test,0,10,10,141,1
,,,,,,,,,,,,,,,,,5b7fa64787d85f0001baf4fa,21,2022-02-12_08h27.14.715,lexical_decision_task_DD_L2,2021.2.3,Linux armv8l,60.12144532,,,,,,,,,,0.9285,1,,,,,,,,,,,,,,,,,,,,,,,0.395346524,-0.238268199,1,0,0,,,,,,,SKIING,C,m,y,./images/SKIING.png,,,,,,,,,,,,,,,,,,,,,0,0.395346524,-0.238268199,1,0,0,0.9285,button_right_test,0,11,11,17,1
,,,,,,,,,,,,,,,,,5b7fa64787d85f0001baf4fa,21,2022-02-12_08h27.14.715,lexical_decision_task_DD_L2,2021.2.3,Linux armv8l,60.12144532,,,,,,,,,,0.8083,1,,,,,,,,,,,,,,,,,,,,,,,0.397194518,-0.212396412,1,0,0,,,,,,,FALCON,LB,m,y,./images/FALCONLB.png,,,,,,,,,,,,,,,,,,,,,0,0.397194518,-0.212396412,1,0,0,0.8083,button_right_test,0,12,12,28,1
,,,,,,,,,,,,,,,,,5b7fa64787d85f0001baf4fa,21,2022-02-12_08h27.14.715,lexical_decision_task_DD_L2,2021.2.3,Linux armv8l,60.12144532,,,,,,,,,,0.6287,1,,,,,,,,,,,,,,,,,,,,,,,0.389802673,-0.213320508,1,0,0,,,,,,,RHINO,HB,m,y,./images/RHINOHB.png,,,,,,,,,,,,,,,,,,,,,0,0.389802673,-0.213320508,1,0,0,0.6287,button_right_test,0,13,13,9,1
,,,,,,,,,,,,,,,,,5b7fa64787d85f0001baf4fa,21,2022-02-12_08h27.14.715,lexical_decision_task_DD_L2,2021.2.3,Linux armv8l,60.12144532,,,,,,,,,,0.5987,1,,,,,,,,,,,,,,,,,,,,,,,0.359310999,-0.24196432,1,0,0,,,,,,,CARPET,C,m,y,./images/CARPET.png,,,,,,,,,,,,,,,,,,,,,0,0.359310999,-0.24196432,1,0,0,0.5987,button_right_test,0,14,14,53,1
,,,,,,,,,,,,,,,,,5b7fa64787d85f0001baf4fa,21,2022-02-12_08h27.14.715,lexical_decision_task_DD_L2,2021.2.3,Linux armv8l,60.12144532,,,,,,,,,,1.3947,1,,,,,,,,,,,,,,,,,,,,,,,-0.408524968,-0.303871501,1,0,0,,,,,,,BAMBOO,C,z,y,./images/BAMBOO.png,,,,,,,,,,,,,,,,,,,,,0,-0.408524968,-0.303871501,1,0,0,1.3947,button_left_test,0,15,15,89,1
,,,,,,,,,,,,,,,,,5b7fa64787d85f0001baf4fa,21,2022-02-12_08h27.14.715,lexical_decision_task_DD_L2,2021.2.3,Linux armv8l,60.12144532,,,,,,,,,,0.9786,1,,,,,,,,,,,,,,,,,,,,,,,-0.373413341,-0.316807526,1,0,0,,,,,,,STAIN,HB,z,y,./images/STAINHB.png,,,,,,,,,,,,,,,,,,,,,0,-0.373413341,-0.316807526,1,0,0,0.9786,button_left_test,0,16,16,90,1
,,,,,,,,,,,,,,,,,5b7fa64787d85f0001baf4fa,21,2022-02-12_08h27.14.715,lexical_decision_task_DD_L2,2021.2.3,Linux armv8l,60.12144532,,,,,,,,,,0.5301,1,,,,,,,,,,,,,,,,,,,,,,,0.374094755,-0.220712353,1,0,0,,,,,,,DOUGH,LB,m,y,./images/DOUGHLB.png,,,,,,,,,,,,,,,,,,,,,0,0.374094755,-0.220712353,1,0,0,0.5301,button_right_test,0,17,17,19,1
,,,,,,,,,,,,,,,,,5b7fa64787d85f0001baf4fa,21,2022-02-12_08h27.14.715,lexical_decision_task_DD_L2,2021.2.3,Linux armv8l,60.12144532,,,,,,,,,,0.9296,1,,,,,,,,,,,,,,,,,,,,,,,-0.428852749,-0.290935607,1,0,0,,,,,,,POKER,LB,z,y,./images/POKERLB.png,,,,,,,,,,,,,,,,,,,,,0,-0.428852749,-0.290935607,1,0,0,0.9296,button_left_test,0,18,18,151,1
,,,,,,,,,,,,,,,,,5b7fa64787d85f0001baf4fa,21,2022-02-12_08h27.14.715,lexical_decision_task_DD_L2,2021.2.3,Linux armv8l,60.12144532,,,,,,,,,,0.5942,1,,,,,,,,,,,,,,,,,,,,,,,0.386106619,-0.224408341,1,0,0,,,,,,,NOOSE,HB,m,y,./images/NOOSEHB.png,,,,,,,,,,,,,,,,,,,,,0,0.386106619,-0.224408341,1,0,0,0.5942,button_right_test,0,19,19,72,1
,,,,,,,,,,,,,,,,,5b7fa64787d85f0001baf4fa,21,2022-02-12_08h27.14.715,lexical_decision_task_DD_L2,2021.2.3,Linux armv8l,60.12144532,,,,,,,,,,0.5924,1,,,,,,,,,,,,,,,,,,,,,,,0.381486666,-0.238268199,1,0,0,,,,,,,WEASEL,C,m,y,./images/WEASEL.png,,,,,,,,,,,,,,,,,,,,,0,0.381486666,-0.238268199,1,0,0,0.5924,button_right_test,0,20,20,80,1
,,,,,,,,,,,,,,,,,5b7fa64787d85f0001baf4fa,21,2022-02-12_08h27.14.715,lexical_decision_task_DD_L2,2021.2.3,Linux armv8l,60.12144532,,,,,,,,,,0.5865,1,,,,,,,,,,,,,,,,,,,,,,,0.38333466,-0.229952258,1,0,0,,,,,,,CRUMB,C,m,y,./images/CRUMB.png,,,,,,,,,,,,,,,,,,,,,0,0.38333466,-0.229952258,1,0,0,0.5865,button_right_test,0,21,21,29,1
,,,,,,,,,,,,,,,,,5b7fa64787d85f0001baf4fa,21,2022-02-12_08h27.14.715,lexical_decision_task_DD_L2,2021.2.3,Linux armv8l,60.12144532,,,,,,,,,,1.133,1,,,,,,,,,,,,,,,,,,,,,,,-0.34476962,-0.318655323,1,0,0,,,,,,,CHALK,LB,z,y,./images/CHALKLB.png,,,,,,,,,,,,,,,,,,,,,0,-0.34476962,-0.318655323,1,0,0,1.133,button_left_test,0,22,22,109,1
,,,,,,,,,,,,,,,,,5b7fa64787d85f0001baf4fa,21,2022-02-12_08h27.14.715,lexical_decision_task_DD_L2,2021.2.3,Linux armv8l,60.12144532,,,,,,,,,,0.5117,1,,,,,,,,,,,,,,,,,,,,,,,0.385182721,-0.236420271,1,0,0,,,,,,,SHELF,HB,m,y,./images/SHELFHB.png,,,,,,,,,,,,,,,,,,,,,0,0.385182721,-0.236420271,1,0,0,0.5117,button_right_test,0,23,23,39,1
,,,,,,,,,,,,,,,,,5b7fa64787d85f0001baf4fa,21,2022-02-12_08h27.14.715,lexical_decision_task_DD_L2,2021.2.3,Linux armv8l,60.12144532,,,,,,,,,,0.7422,1,,,,,,,,,,,,,,,,,,,,,,,-0.388197172,-0.303871501,1,0,0,,,,,,,SPINE,C,z,y,./images/SPINE.png,,,,,,,,,,,,,,,,,,,,,0,-0.388197172,-0.303871501,1,0,0,0.7422,button_left_test,0,24,24,149,1
,,,,,,,,,,,,,,,,,5b7fa64787d85f0001baf4fa,21,2022-02-12_08h27.14.715,lexical_decision_task_DD_L2,2021.2.3,Linux armv8l,60.12144532,,,,,,,,,,0.8296,1,,,,,,,,,,,,,,,,,,,,,,,-0.41406891,-0.300175512,1,0,0,,,,,,,ARROW,HB,z,y,./images/ARROWHB.png,,,,,,,,,,,,,,,,,,,,,0,-0.41406891,-0.300175512,1,0,0,0.8296,button_left_test,0,25,25,153,1
,,,,,,,,,,,,,,,,,5b7fa64787d85f0001baf4fa,21,2022-02-12_08h27.14.715,lexical_decision_task_DD_L2,2021.2.3,Linux armv8l,60.12144532,,,,,,,,,,0.6123,1,,,,,,,,,,,,,,,,,,,,,,,0.391650667,-0.231800318,1,0,0,,,,,,,MUSCLE,LB,m,y,./images/MUSCLELB.png,,,,,,,,,,,,,,,,,,,,,0,0.391650667,-0.231800318,1,0,0,0.6123,button_right_test,0,26,26,4,1
,,,,,,,,,,,,,,,,,5b7fa64787d85f0001baf4fa,21,2022-02-12_08h27.14.715,lexical_decision_task_DD_L2,2021.2.3,Linux armv8l,60.12144532,,,,,,,,,,0.8458,1,,,,,,,,,,,,,,,,,,,,,,,0.399966477,-0.219788389,1,0,0,,,,,,,ONION,HB,m,y,./images/ONIONHB.png,,,,,,,,,,,,,,,,,,,,,0,0.399966477,-0.219788389,1,0,0,0.8458,button_right_test,0,27,27,51,1
,,,,,,,,,,,,,,,,,5b7fa64787d85f0001baf4fa,21,2022-02-12_08h27.14.715,lexical_decision_task_DD_L2,2021.2.3,Linux armv8l,60.12144532,,,,,,,,,,0.813,1,,,,,,,,,,,,,,,,,,,,,,,-0.466736351,-0.28908781,1,0,0,,,,,,,HEATER,C,z,y,./images/HEATER.png,,,,,,,,,,,,,,,,,,,,,0,-0.466736351,-0.28908781,1,0,0,0.813,button_left_test,0,28,28,140,1
,,,,,,,,,,,,,,,,,5b7fa64787d85f0001baf4fa,21,2022-02-12_08h27.14.715,lexical_decision_task_DD_L2,2021.2.3,Linux armv8l,60.12144532,,,,,,,,,,0.5775,1,,,,,,,,,,,,,,,,,,,,,,,0.38333466,-0.219788389,1,0,0,,,,,,,LADDER,C,m,y,./images/LADDER.png,,,,,,,,,,,,,,,,,,,,,0,0.38333466,-0.219788389,1,0,0,0.5775,button_right_test,0,29,29,38,1
,,,,,,,,,,,,,,,,,5b7fa64787d85f0001baf4fa,21,2022-02-12_08h27.14.715,lexical_decision_task_DD_L2,2021.2.3,Linux armv8l,60.12144532,,,,,,,,,,0.6276,1,,,,,,,,,,,,,,,,,,,,,,,0.404586429,-0.21794046,1,0,0,,,,,,,PURSE,C,m,y,./images/PURSE.png,,,,,,,,,,,,,,,,,,,,,0,0.404586429,-0.21794046,1,0,0,0.6276,button_right_test,0,30,30,62,1
,,,,,,,,,,,,,,,,,5b7fa64787d85f0001baf4fa,21,2022-02-12_08h27.14.715,lexical_decision_task_DD_L2,2021.2.3,Linux armv8l,60.12144532,,,,,,,,,,0.6938,1,,,,,,,,,,,,,,,,,,,,,,,-0.435320683,-0.310339382,1,0,0,,,,,,,ARTIST,LB,z,y,./images/ARTISTLB.png,,,,,,,,,,,,,,,,,,,,,0,-0.435320683,-0.310339382,1,0,0,0.6938,button_left_test,0,31,31,145,1
,,,,,,,,,,,,,,,,,5b7fa64787d85f0001baf4fa,21,2022-02-12_08h27.14.715,lexical_decision_task_DD_L2,2021.2.3,Linux armv8l,60.12144532,,,,,,,,,,0.6465,1,,,,,,,,,,,,,,,,,,,,,,,0.377790809,-0.247508105,1,0,0,,,,,,,BURIAL,C,m,y,./images/BURIAL.png,,,,,,,,,,,,,,,,,,,,,0,0.377790809,-0.247508105,1,0,0,0.6465,button_right_test,0,32,32,59,1
,,,,,,,,,,,,,,,,,5b7fa64787d85f0001baf4fa,21,2022-02-12_08h27.14.715,lexical_decision_task_DD_L2,2021.2.3,Linux armv8l,60.12144532,,,,,,,,,,0.827,1,,,,,,,,,,,,,,,,,,,,,,,0.407358388,-0.220712353,1,0,0,,,,,,,WRIST,LB,m,y,./images/WRISTLB.png,,,,,,,,,,,,,,,,,,,,,0,0.407358388,-0.220712353,1,0,0,0.827,button_right_test,0,33,33,25,1
,,,,,,,,,,,,,,,,,5b7fa64787d85f0001baf4fa,21,2022-02-12_08h27.14.715,lexical_decision_task_DD_L2,2021.2.3,Linux armv8l,60.12144532,,,,,,,,,,0.5634,1,,,,,,,,,,,,,,,,,,,,,,,0.385182721,-0.231800318,1,0,0,,,,,,,SHORE,HB,m,y,./images/SHOREHB.png,,,,,,,,,,,,,,,,,,,,,0,0.385182721,-0.231800318,1,0,0,0.5634,button_right_test,0,34,34,12,1
,,,,,,,,,,,,,,,,,5b7fa64787d85f0001baf4fa,21,2022-02-12_08h27.14.715,lexical_decision_task_DD_L2,2021.2.3,Linux armv8l,60.12144532,,,,,,,,,,0.5429,0,,,,,,,,,,,,,,,,,,,,,,,0.378714708,-0.238268199,1,0,0,,,,,,,DESERT,LB,z,y,./images/DESERTLB.png,,,,,,,,,,,,,,,,,,,,,0,0.378714708,-0.238268199,1,0,0,0.5429,button_right_test,0,35,35,136,1
,,,,,,,,,,,,,,,,,5b7fa64787d85f0001baf4fa,21,2022-02-12_08h27.14.715,lexical_decision_task_DD_L2,2021.2.3,Linux armv8l,60.12144532,,,,,,,,,,0.5785,0,,,,,,,,,,,,,,,,,,,,,,,0.375018785,-0.239192163,1,0,0,,,,,,,STREAM,C,z,y,./images/STREAM.png,,,,,,,,,,,,,,,,,,,,,0,0.375018785,-0.239192163,1,0,0,0.5785,button_right_test,0,36,36,125,1
,,,,,,,,,,,,,,,,,5b7fa64787d85f0001baf4fa,21,2022-02-12_08h27.14.715,lexical_decision_task_DD_L2,2021.2.3,Linux armv8l,60.12144532,,,,,,,,,,0.6102,1,,,,,,,,,,,,,,,,,,,,,,,0.388878577,-0.229952258,1,0,0,,,,,,,BELLY,LB,m,y,./images/BELLYLB.png,,,,,,,,,,,,,,,,,,,,,0,0.388878577,-0.229952258,1,0,0,0.6102,button_right_test,0,37,37,10,1
,,,,,,,,,,,,,,,,,5b7fa64787d85f0001baf4fa,21,2022-02-12_08h27.14.715,lexical_decision_task_DD_L2,2021.2.3,Linux armv8l,60.12144532,,,,,,,,,,0.7462,1,,,,,,,,,,,,,,,,,,,,,,,-0.405752985,-0.306643525,1,0,0,,,,,,,SHIELD,HB,z,y,./images/SHIELDHB.png,,,,,,,,,,,,,,,,,,,,,0,-0.405752985,-0.306643525,1,0,0,0.7462,button_left_test,0,38,38,132,1
,,,,,,,,,,,,,,,,,5b7fa64787d85f0001baf4fa,21,2022-02-12_08h27.14.715,lexical_decision_task_DD_L2,2021.2.3,Linux armv8l,60.12144532,,,,,,,,,,0.728,1,,,,,,,,,,,,,,,,,,,,,,,0.388878577,-0.237344367,1,0,0,,,,,,,MOSQUE,LB,m,y,./images/MOSQUELB.png,,,,,,,,,,,,,,,,,,,,,0,0.388878577,-0.237344367,1,0,0,0.728,button_right_test,0,39,39,43,1
,,,,,,,,,,,,,,,,,5b7fa64787d85f0001baf4fa,21,2022-02-12_08h27.14.715,lexical_decision_task_DD_L2,2021.2.3,Linux armv8l,60.12144532,,,,,,,,,,1.0796,1,,,,,,,,,,,,,,,,,,,,,,,-0.369717378,-0.318655323,1,0,0,,,,,,,BLOKE,HB,z,y,./images/BLOKEHB.png,,,,,,,,,,,,,,,,,,,,,0,-0.369717378,-0.318655323,1,0,0,1.0796,button_left_test,0,40,40,96,1
,,,,,,,,,,,,,,,,,5b7fa64787d85f0001baf4fa,21,2022-02-12_08h27.14.715,lexical_decision_task_DD_L2,2021.2.3,Linux armv8l,60.12144532,,,,,,,,,,0.7446,1,,,,,,,,,,,,,,,,,,,,,,,0.092277774,-0.398118483,1,0,0,,,,,,,BONNET,C,m,y,./images/BONNET.png,break_done_button,,,,,,,,,,,,,,,,,,,,0,0.421218246,-0.311263478,1,0,0,0.7446,button_right_test,0,41,41,11,1
,,,,,,,,,,,,,,,,,5b7fa64787d85f0001baf4fa,21,2022-02-12_08h27.14.715,lexical_decision_task_DD_L2,2021.2.3,Linux armv8l,60.12144532,,,,,,,,,,0.9124,1,,,,,,,,,,,,,,,,,,,,,,,-0.362325458,-0.311263478,1,0,0,,,,,,,PLANET,C,z,y,./images/PLANET.png,,,,,,,,,,,,,,,,,,,,,0,-0.362325458,-0.311263478,1,0,0,0.9124,button_left_test,0,42,42,164,1
,,,,,,,,,,,,,,,,,5b7fa64787d85f0001baf4fa,21,2022-02-12_08h27.14.715,lexical_decision_task_DD_L2,2021.2.3,Linux armv8l,60.12144532,,,,,,,,,,0.6612,1,,,,,,,,,,,,,,,,,,,,,,,0.464645814,-0.303871501,1,0,0,,,,,,,PEACH,C,m,y,./images/PEACH.png,,,,,,,,,,,,,,,,,,,,,0,0.464645814,-0.303871501,1,0,0,0.6612,button_right_test,0,43,43,35,1
,,,,,,,,,,,,,,,,,5b7fa64787d85f0001baf4fa,21,2022-02-12_08h27.14.715,lexical_decision_task_DD_L2,2021.2.3,Linux armv8l,60.12144532,,,,,,,,,,0.9138,1,,,,,,,,,,,,,,,,,,,,,,,-0.371565355,-0.329743289,1,0,0,,,,,,,PEBBLE,LB,z,y,./images/PEBBLELB.png,,,,,,,,,,,,,,,,,,,,,0,-0.371565355,-0.329743289,1,0,0,0.9138,button_left_test,0,44,44,166,1
,,,,,,,,,,,,,,,,,5b7fa64787d85f0001baf4fa,21,2022-02-12_08h27.14.715,lexical_decision_task_DD_L2,2021.2.3,Linux armv8l,60.12144532,,,,,,,,,,0.8459,1,,,,,,,,,,,,,,,,,,,,,,,-0.357705497,-0.309415418,1,0,0,,,,,,,SAUCE,HB,z,y,./images/SAUCEHB.png,,,,,,,,,,,,,,,,,,,,,0,-0.357705497,-0.309415418,1,0,0,0.8459,button_left_test,0,45,45,135,1
,,,,,,,,,,,,,,,,,5b7fa64787d85f0001baf4fa,21,2022-02-12_08h27.14.715,lexical_decision_task_DD_L2,2021.2.3,Linux armv8l,60.12144532,,,,,,,,,,0.8953,1,,,,,,,,,,,,,,,,,,,,,,,-0.38265323,-0.314959335,1,0,0,,,,,,,ENGINE,C,z,y,./images/ENGINE.png,,,,,,,,,,,,,,,,,,,,,0,-0.38265323,-0.314959335,1,0,0,0.8953,button_left_test,0,46,46,122,1
,,,,,,,,,,,,,,,,,5b7fa64787d85f0001baf4fa,21,2022-02-12_08h27.14.715,lexical_decision_task_DD_L2,2021.2.3,Linux armv8l,60.12144532,,,,,,,,,,0.6093,1,,,,,,,,,,,,,,,,,,,,,,,0.427686193,-0.287239618,1,0,0,,,,,,,JELLY,LB,m,y,./images/JELLYLB.png,,,,,,,,,,,,,,,,,,,,,0,0.427686193,-0.287239618,1,0,0,0.6093,button_right_test,0,47,47,64,1
,,,,,,,,,,,,,,,,,5b7fa64787d85f0001baf4fa,21,2022-02-12_08h27.14.715,lexical_decision_task_DD_L2,2021.2.3,Linux armv8l,60.12144532,,,,,,,,,,0.879,0,,,,,,,,,,,,,,,,,,,,,,,0.404586429,-0.293707763,1,0,0,,,,,,,FLASK,HB,z,y,./images/FLASKHB.png,,,,,,,,,,,,,,,,,,,,,0,0.404586429,-0.293707763,1,0,0,0.879,button_right_test,0,48,48,156,1
,,,,,,,,,,,,,,,,,5b7fa64787d85f0001baf4fa,21,2022-02-12_08h27.14.715,lexical_decision_task_DD_L2,2021.2.3,Linux armv8l,60.12144532,,,,,,,,,,0.5623,1,,,,,,,,,,,,,,,,,,,,,,,0.413826335,-0.292783667,1,0,0,,,,,,,MIRROR,HB,m,y,./images/MIRRORHB.png,,,,,,,,,,,,,,,,,,,,,0,0.413826335,-0.292783667,1,0,0,0.5623,button_right_test,0,49,49,63,1
,,,,,,,,,,,,,,,,,5b7fa64787d85f0001baf4fa,21,2022-02-12_08h27.14.715,lexical_decision_task_DD_L2,2021.2.3,Linux armv8l,60.12144532,,,,,,,,,,1.026,1,,,,,,,,,,,,,,,,,,,,,,,-0.32166989,-0.311263478,1,0,0,,,,,,,MONKEY,HB,z,y,./images/MONKEYHB.png,,,,,,,,,,,,,,,,,,,,,0,-0.32166989,-0.311263478,1,0,0,1.026,button_left_test,0,50,50,129,1
,,,,,,,,,,,,,,,,,5b7fa64787d85f0001baf4fa,21,2022-02-12_08h27.14.715,lexical_decision_task_DD_L2,2021.2.3,Linux armv8l,60.12144532,,,,,,,,,,0.7989,1,,,,,,,,,,,,,,,,,,,,,,,-0.376185308,-0.318655323,1,0,0,,,,,,,BRIDE,LB,z,y,./images/BRIDELB.png,,,,,,,,,,,,,,,,,,,,,0,-0.376185308,-0.318655323,1,0,0,0.7989,button_left_test,0,51,51,148,1
,,,,,,,,,,,,,,,,,5b7fa64787d85f0001baf4fa,21,2022-02-12_08h27.14.715,lexical_decision_task_DD_L2,2021.2.3,Linux armv8l,60.12144532,,,,,,,,,,0.7468,1,,,,,,,,,,,,,,,,,,,,,,,-0.3678694,-0.321427479,1,0,0,,,,,,,GRAPE,LB,z,y,./images/GRAPELB.png,,,,,,,,,,,,,,,,,,,,,0,-0.3678694,-0.321427479,1,0,0,0.7468,button_left_test,0,52,52,100,1
,,,,,,,,,,,,,,,,,5b7fa64787d85f0001baf4fa,21,2022-02-12_08h27.14.715,lexical_decision_task_DD_L2,2021.2.3,Linux armv8l,60.12144532,,,,,,,,,,0.812,0,,,,,,,,,,,,,,,,,,,,,,,0.4360022,-0.298327716,1,0,0,,,,,,,TOWEL,LB,z,y,./images/TOWELLB.png,,,,,,,,,,,,,,,,,,,,,0,0.4360022,-0.298327716,1,0,0,0.812,button_right_test,0,53,53,85,1
,,,,,,,,,,,,,,,,,5b7fa64787d85f0001baf4fa,21,2022-02-12_08h27.14.715,lexical_decision_task_DD_L2,2021.2.3,Linux armv8l,60.12144532,,,,,,,,,,0.7432,1,,,,,,,,,,,,,,,,,,,,,,,0.421218246,-0.290011643,1,0,0,,,,,,,PENCE,LB,m,y,./images/PENCELB.png,,,,,,,,,,,,,,,,,,,,,0,0.421218246,-0.290011643,1,0,0,0.7432,button_right_test,0,54,54,16,1
,,,,,,,,,,,,,,,,,5b7fa64787d85f0001baf4fa,21,2022-02-12_08h27.14.715,lexical_decision_task_DD_L2,2021.2.3,Linux armv8l,60.12144532,,,,,,,,,,1.1799,0,,,,,,,,,,,,,,,,,,,,,,,0.438774158,-0.28908781,1,0,0,,,,,,,WHISKY,C,z,y,./images/WHISKY.png,,,,,,,,,,,,,,,,,,,,,0,0.438774158,-0.28908781,1,0,0,1.1799,button_right_test,0,55,55,167,1
,,,,,,,,,,,,,,,,,5b7fa64787d85f0001baf4fa,21,2022-02-12_08h27.14.715,lexical_decision_task_DD_L2,2021.2.3,Linux armv8l,60.12144532,,,,,,,,,,1.0312,1,,,,,,,,,,,,,,,,,,,,,,,0.410130412,-0.282619666,1,0,0,,,,,,,SPORT,HB,m,y,./images/SPORTHB.png,,,,,,,,,,,,,,,,,,,,,0,0.410130412,-0.282619666,1,0,0,1.0312,button_right_test,0,56,56,48,1
,,,,,,,,,,,,,,,,,5b7fa64787d85f0001baf4fa,21,2022-02-12_08h27.14.715,lexical_decision_task_DD_L2,2021.2.3,Linux armv8l,60.12144532,,,,,,,,,,0.7456,0,,,,,,,,,,,,,,,,,,,,,,,0.410130412,-0.283543762,1,0,0,,,,,,,RAZOR,LB,z,y,./images/RAZORLB.png,,,,,,,,,,,,,,,,,,,,,0,0.410130412,-0.283543762,1,0,0,0.7456,button_right_test,0,57,57,118,1
,,,,,,,,,,,,,,,,,5b7fa64787d85f0001baf4fa,21,2022-02-12_08h27.14.715,lexical_decision_task_DD_L2,2021.2.3,Linux armv8l,60.12144532,,,,,,,,,,0.9287,1,,,,,,,,,,,,,,,,,,,,,,,0.38425869,-0.28539169,1,0,0,,,,,,,KITTEN,HB,m,y,./images/KITTENHB.png,,,,,,,,,,,,,,,,,,,,,0,0.38425869,-0.28539169,1,0,0,0.9287,button_right_test,0,58,58,45,1
,,,,,,,,,,,,,,,,,5b7fa64787d85f0001baf4fa,21,2022-02-12_08h27.14.715,lexical_decision_task_DD_L2,2021.2.3,Linux armv8l,60.12144532,,,,,,,,,,0.995,1,,,,,,,,,,,,,,,,,,,,,,,-0.390969155,-0.338059098,1,0,0,,,,,,,VALLEY,C,z,y,./images/VALLEY.png,,,,,,,,,,,,,,,,,,,,,0,-0.390969155,-0.338059098,1,0,0,0.995,button_left_test,0,59,59,152,1
,,,,,,,,,,,,,,,,,5b7fa64787d85f0001baf4fa,21,2022-02-12_08h27.14.715,lexical_decision_task_DD_L2,2021.2.3,Linux armv8l,60.12144532,,,,,,,,,,0.9033,1,,,,,,,,,,,,,,,,,,,,,,,-0.435320683,-0.311263478,1,0,0,,,,,,,CANOE,LB,z,y,./images/CANOELB.png,,,,,,,,,,,,,,,,,,,,,0,-0.435320683,-0.311263478,1,0,0,0.9033,button_left_test,0,60,60,142,1
,,,,,,,,,,,,,,,,,5b7fa64787d85f0001baf4fa,21,2022-02-12_08h27.14.715,lexical_decision_task_DD_L2,2021.2.3,Linux armv8l,60.12144532,,,,,,,,,,0.5634,1,,,,,,,,,,,,,,,,,,,,,,,0.422142342,-0.282619666,1,0,0,,,,,,,PACKET,C,m,y,./images/PACKET.png,,,,,,,,,,,,,,,,,,,,,0,0.422142342,-0.282619666,1,0,0,0.5634,button_right_test,0,61,61,56,1
,,,,,,,,,,,,,,,,,5b7fa64787d85f0001baf4fa,21,2022-02-12_08h27.14.715,lexical_decision_task_DD_L2,2021.2.3,Linux armv8l,60.12144532,,,,,,,,,,0.7986,0,,,,,,,,,,,,,,,,,,,,,,,-0.410372946,-0.307567621,1,0,0,,,,,,,SUNSET,LB,m,y,./images/SUNSETLB.png,,,,,,,,,,,,,,,,,,,,,0,-0.410372946,-0.307567621,1,0,0,0.7986,button_left_test,0,62,62,82,1
,,,,,,,,,,,,,,,,,5b7fa64787d85f0001baf4fa,21,2022-02-12_08h27.14.715,lexical_decision_task_DD_L2,2021.2.3,Linux armv8l,60.12144532,,,,,,,,,,0.6643,0,,,,,,,,,,,,,,,,,,,,,,,0.412902437,-0.283543762,1,0,0,,,,,,,MUMMY,LB,z,y,./images/MUMMYLB.png,,,,,,,,,,,,,,,,,,,,,0,0.412902437,-0.283543762,1,0,0,0.6643,button_right_test,0,63,63,130,1
,,,,,,,,,,,,,,,,,5b7fa64787d85f0001baf4fa,21,2022-02-12_08h27.14.715,lexical_decision_task_DD_L2,2021.2.3,Linux armv8l,60.12144532,,,,,,,,,,0.8761,0,,,,,,,,,,,,,,,,,,,,,,,-0.406676982,-0.32419924,1,0,0,,,,,,,BEARD,C,m,y,./images/BEARD.png,,,,,,,,,,,,,,,,,,,,,0,-0.406676982,-0.32419924,1,0,0,0.8761,button_left_test,0,64,64,2,1
,,,,,,,,,,,,,,,,,5b7fa64787d85f0001baf4fa,21,2022-02-12_08h27.14.715,lexical_decision_task_DD_L2,2021.2.3,Linux armv8l,60.12144532,,,,,,,,,,0.584,1,,,,,,,,,,,,,,,,,,,,,,,0.414750365,-0.276151785,1,0,0,,,,,,,QUILL,LB,m,y,./images/QUILLLB.png,,,,,,,,,,,,,,,,,,,,,0,0.414750365,-0.276151785,1,0,0,0.584,button_right_test,0,65,65,31,1
,,,,,,,,,,,,,,,,,5b7fa64787d85f0001baf4fa,21,2022-02-12_08h27.14.715,lexical_decision_task_DD_L2,2021.2.3,Linux armv8l,60.12144532,,,,,,,,,,0.6105,1,,,,,,,,,,,,,,,,,,,,,,,0.402738435,-0.277999713,1,0,0,,,,,,,PLANK,LB,m,y,./images/PLANKLB.png,,,,,,,,,,,,,,,,,,,,,0,0.402738435,-0.277999713,1,0,0,0.6105,button_right_test,0,66,66,1,1
,,,,,,,,,,,,,,,,,5b7fa64787d85f0001baf4fa,21,2022-02-12_08h27.14.715,lexical_decision_task_DD_L2,2021.2.3,Linux armv8l,60.12144532,,,,,,,,,,0.714,1,,,,,,,,,,,,,,,,,,,,,,,0.42306624,-0.267835844,1,0,0,,,,,,,TORCH,C,m,y,./images/TORCH.png,,,,,,,,,,,,,,,,,,,,,0,0.42306624,-0.267835844,1,0,0,0.714,button_right_test,0,67,67,68,1
,,,,,,,,,,,,,,,,,5b7fa64787d85f0001baf4fa,21,2022-02-12_08h27.14.715,lexical_decision_task_DD_L2,2021.2.3,Linux armv8l,60.12144532,,,,,,,,,,0.5641,1,,,,,,,,,,,,,,,,,,,,,,,0.426762295,-0.270607868,1,0,0,,,,,,,PAINT,LB,m,y,./images/PAINTLB.png,,,,,,,,,,,,,,,,,,,,,0,0.426762295,-0.270607868,1,0,0,0.5641,button_right_test,0,68,68,7,1
,,,,,,,,,,,,,,,,,5b7fa64787d85f0001baf4fa,21,2022-02-12_08h27.14.715,lexical_decision_task_DD_L2,2021.2.3,Linux armv8l,60.12144532,,,,,,,,,,0.842,1,,,,,,,,,,,,,,,,,,,,,,,-0.42053684,-0.303871501,1,0,0,,,,,,,BASKET,C,z,y,./images/BASKET.png,,,,,,,,,,,,,,,,,,,,,0,-0.42053684,-0.303871501,1,0,0,0.842,button_left_test,0,69,69,128,1
,,,,,,,,,,,,,,,,,5b7fa64787d85f0001baf4fa,21,2022-02-12_08h27.14.715,lexical_decision_task_DD_L2,2021.2.3,Linux armv8l,60.12144532,,,,,,,,,,0.7976,1,,,,,,,,,,,,,,,,,,,,,,,-0.391893144,-0.325123336,1,0,0,,,,,,,STATUE,HB,z,y,./images/STATUEHB.png,,,,,,,,,,,,,,,,,,,,,0,-0.391893144,-0.325123336,1,0,0,0.7976,button_left_test,0,70,70,150,1
,,,,,,,,,,,,,,,,,5b7fa64787d85f0001baf4fa,21,2022-02-12_08h27.14.715,lexical_decision_task_DD_L2,2021.2.3,Linux armv8l,60.12144532,,,,,,,,,,1.1791,1,,,,,,,,,,,,,,,,,,,,,,,-0.376185308,-0.308491453,1,0,0,,,,,,,BUNNY,LB,z,y,./images/BUNNYLB.png,,,,,,,,,,,,,,,,,,,,,0,-0.376185308,-0.308491453,1,0,0,1.1791,button_left_test,0,71,71,97,1
,,,,,,,,,,,,,,,,,5b7fa64787d85f0001baf4fa,21,2022-02-12_08h27.14.715,lexical_decision_task_DD_L2,2021.2.3,Linux armv8l,60.12144532,,,,,,,,,,1.4268,1,,,,,,,,,,,,,,,,,,,,,,,-0.432548712,-0.309415418,1,0,0,,,,,,,BOXER,LB,z,y,./images/BOXERLB.png,,,,,,,,,,,,,,,,,,,,,0,-0.432548712,-0.309415418,1,0,0,1.4268,button_left_test,0,72,72,88,1
,,,,,,,,,,,,,,,,,5b7fa64787d85f0001baf4fa,21,2022-02-12_08h27.14.715,lexical_decision_task_DD_L2,2021.2.3,Linux armv8l,60.12144532,,,,,,,,,,0.613,0,,,,,,,,,,,,,,,,,,,,,,,0.422142342,-0.259519902,1,0,0,,,,,,,HOCKEY,C,z,y,./images/HOCKEY.png,,,,,,,,,,,,,,,,,,,,,0,0.422142342,-0.259519902,1,0,0,0.613,button_right_test,0,73,73,116,1
,,,,,,,,,,,,,,,,,5b7fa64787d85f0001baf4fa,21,2022-02-12_08h27.14.715,lexical_decision_task_DD_L2,2021.2.3,Linux armv8l,60.12144532,,,,,,,,,,0.6931,1,,,,,,,,,,,,,,,,,,,,,,,-0.425156793,-0.305719429,1,0,0,,,,,,,PILOT,C,z,y,./images/PILOT.png,,,,,,,,,,,,,,,,,,,,,0,-0.425156793,-0.305719429,1,0,0,0.6931,button_left_test,0,74,74,134,1
,,,,,,,,,,,,,,,,,5b7fa64787d85f0001baf4fa,21,2022-02-12_08h27.14.715,lexical_decision_task_DD_L2,2021.2.3,Linux armv8l,60.12144532,,,,,,,,,,0.8254,1,,,,,,,,,,,,,,,,,,,,,,,0.40551046,-0.286315654,1,0,0,,,,,,,KIDNEY,HB,m,y,./images/KIDNEYHB.png,,,,,,,,,,,,,,,,,,,,,0,0.40551046,-0.286315654,1,0,0,0.8254,button_right_test,0,75,75,21,1
,,,,,,,,,,,,,,,,,5b7fa64787d85f0001baf4fa,21,2022-02-12_08h27.14.715,lexical_decision_task_DD_L2,2021.2.3,Linux armv8l,60.12144532,,,,,,,,,,0.646,1,,,,,,,,,,,,,,,,,,,,,,,0.411054376,-0.272455796,1,0,0,,,,,,,GREASE,HB,m,y,./images/GREASEHB.png,,,,,,,,,,,,,,,,,,,,,0,0.411054376,-0.272455796,1,0,0,0.646,button_right_test,0,76,76,15,1
,,,,,,,,,,,,,,,,,5b7fa64787d85f0001baf4fa,21,2022-02-12_08h27.14.715,lexical_decision_task_DD_L2,2021.2.3,Linux armv8l,60.12144532,,,,,,,,,,0.78,0,,,,,,,,,,,,,,,,,,,,,,,0.440622087,-0.26044413,1,0,0,,,,,,,RULER,LB,z,y,./images/RULERLB.png,,,,,,,,,,,,,,,,,,,,,0,0.440622087,-0.26044413,1,0,0,0.78,button_right_test,0,77,77,163,1
,,,,,,,,,,,,,,,,,5b7fa64787d85f0001baf4fa,21,2022-02-12_08h27.14.715,lexical_decision_task_DD_L2,2021.2.3,Linux armv8l,60.12144532,,,,,,,,,,1.0412,0,,,,,,,,,,,,,,,,,,,,,,,0.429534253,-0.266911879,1,0,0,,,,,,,GRANNY,C,z,y,./images/GRANNY.png,,,,,,,,,,,,,,,,,,,,,0,0.429534253,-0.266911879,1,0,0,1.0412,button_right_test,0,78,78,104,1
,,,,,,,,,,,,,,,,,5b7fa64787d85f0001baf4fa,21,2022-02-12_08h27.14.715,lexical_decision_task_DD_L2,2021.2.3,Linux armv8l,60.12144532,,,,,,,,,,0.6117,1,,,,,,,,,,,,,,,,,,,,,,,0.419370318,-0.261367963,1,0,0,,,,,,,LITTER,HB,m,y,./images/LITTERHB.png,,,,,,,,,,,,,,,,,,,,,0,0.419370318,-0.261367963,1,0,0,0.6117,button_right_test,0,79,79,78,1
,,,,,,,,,,,,,,,,,5b7fa64787d85f0001baf4fa,21,2022-02-12_08h27.14.715,lexical_decision_task_DD_L2,2021.2.3,Linux armv8l,60.12144532,,,,,,,,,,0.5806,1,,,,,,,,,,,,,,,,,,,,,,,0.421218246,-0.264139855,1,0,0,,,,,,,BARREL,C,m,y,./images/BARREL.png,,,,,,,,,,,,,,,,,,,,,0,0.421218246,-0.264139855,1,0,0,0.5806,button_right_test,0,80,80,32,1
,,,,,,,,,,,,,,,,,5b7fa64787d85f0001baf4fa,21,2022-02-12_08h27.14.715,lexical_decision_task_DD_L2,2021.2.3,Linux armv8l,60.12144532,,,,,,,,,,0.5626,1,,,,,,,,,,,,,,,,,,,,,,,0.432306145,-0.266911879,1,0,0,,,,,,,MALLET,C,m,y,./images/MALLET.png,,,,,,,,,,,,,,,,,,,,,0,0.432306145,-0.266911879,1,0,0,0.5626,button_right_test,0,81,81,50,1
,,,,,,,,,,,,,,,,,5b7fa64787d85f0001baf4fa,21,2022-02-12_08h27.14.715,lexical_decision_task_DD_L2,2021.2.3,Linux armv8l,60.12144532,,,,,,,,,,0.561,1,,,,,,,,,,,,,,,,,,,,,,,0.434154206,-0.261367963,1,0,0,,,,,,,FARMER,C,m,y,./images/FARMER.png,,,,,,,,,,,,,,,,,,,,,0,0.434154206,-0.261367963,1,0,0,0.561,button_right_test,0,82,82,65,1
,,,,,,,,,,,,,,,,,5b7fa64787d85f0001baf4fa,21,2022-02-12_08h27.14.715,lexical_decision_task_DD_L2,2021.2.3,Linux armv8l,60.12144532,,,,,,,,,,0.5825,1,,,,,,,,,,,,,,,,,,,,,,,0.104289704,-0.402738435,1,0,0,,,,,,,TULIP,C,m,y,./images/TULIP.png,break_done_button,,,,,,,,,,,,,,,,,,,,0,0.437850062,-0.258595938,1,0,0,0.5825,button_right_test,0,83,83,8,1
,,,,,,,,,,,,,,,,,5b7fa64787d85f0001baf4fa,21,2022-02-12_08h27.14.715,lexical_decision_task_DD_L2,2021.2.3,Linux armv8l,60.12144532,,,,,,,,,,0.7974,1,,,,,,,,,,,,,,,,,,,,,,,-0.357705497,-0.375018719,1,0,0,,,,,,,PARADE,C,z,y,./images/PARADE.png,,,,,,,,,,,,,,,,,,,,,0,-0.357705497,-0.375018719,1,0,0,0.7974,button_left_test,0,84,84,101,1
,,,,,,,,,,,,,,,,,5b7fa64787d85f0001baf4fa,21,2022-02-12_08h27.14.715,lexical_decision_task_DD_L2,2021.2.3,Linux armv8l,60.12144532,,,,,,,,,,0.7989,1,,,,,,,,,,,,,,,,,,,,,,,-0.402057038,-0.334363241,1,0,0,,,,,,,POSTER,C,z,y,./images/POSTER.png,,,,,,,,,,,,,,,,,,,,,0,-0.402057038,-0.334363241,1,0,0,0.7989,button_left_test,0,85,85,137,1
,,,,,,,,,,,,,,,,,5b7fa64787d85f0001baf4fa,21,2022-02-12_08h27.14.715,lexical_decision_task_DD_L2,2021.2.3,Linux armv8l,60.12144532,,,,,,,,,,0.9281,1,,,,,,,,,,,,,,,,,,,,,,,0.435078104,-0.27337976,1,0,0,,,,,,,CANDLE,LB,m,y,./images/CANDLELB.png,,,,,,,,,,,,,,,,,,,,,0,0.435078104,-0.27337976,1,0,0,0.9281,button_right_test,0,86,86,61,1
,,,,,,,,,,,,,,,,,5b7fa64787d85f0001baf4fa,21,2022-02-12_08h27.14.715,lexical_decision_task_DD_L2,2021.2.3,Linux armv8l,60.12144532,,,,,,,,,,0.7156,1,,,,,,,,,,,,,,,,,,,,,,,0.406434424,-0.277075749,1,0,0,,,,,,,PEARL,LB,m,y,./images/PEARLLB.png,,,,,,,,,,,,,,,,,,,,,0,0.406434424,-0.277075749,1,0,0,0.7156,button_right_test,0,87,87,46,1
,,,,,,,,,,,,,,,,,5b7fa64787d85f0001baf4fa,21,2022-02-12_08h27.14.715,lexical_decision_task_DD_L2,2021.2.3,Linux armv8l,60.12144532,,,,,,,,,,0.7766,1,,,,,,,,,,,,,,,,,,,,,,,-0.391893144,-0.335287337,1,0,0,,,,,,,CLOWN,LB,z,y,./images/CLOWNLB.png,,,,,,,,,,,,,,,,,,,,,0,-0.391893144,-0.335287337,1,0,0,0.7766,button_left_test,0,88,88,106,1
