key_resp.keys,key_resp.rt,instr_done_touch.x,instr_done_touch.y,instr_done_touch.leftButton,instr_done_touch.midButton,instr_done_touch.rightButton,instruction_pages.thisRepN,instruction_pages.thisTrialN,instruction_pages.thisN,instruction_pages.thisIndex,instruction_pages.ran,pageN,phase,instruct_text,has_image,instruct_image,participant,age,date,expName,psychopyVersion,OS,frameRate,response.keys,response.corr,response.rt,touch_resp.x,touch_resp.y,touch_resp.leftButton,touch_resp.midButton,touch_resp.rightButton,touch_resp.time,touch_resp.clicked_name,rt,corr,practrials.thisRepN,practrials.thisTrialN,practrials.thisN,practrials.thisIndex,practrials.ran,TrialID,Target,corrAns,end_of_practice_trials_pages.thisRepN,end_of_practice_trials_pages.thisTrialN,end_of_practice_trials_pages.thisN,end_of_practice_trials_pages.thisIndex,end_of_practice_trials_pages.ran,key_resp_2.keys,key_resp_2.corr,key_resp_2.rt,targ_click.x,targ_click.y,targ_click.leftButton,targ_click.midButton,targ_click.rightButton,targ_click.time,targ_click.clicked_name,break_done_touch.x,break_done_touch.y,break_done_touch.leftButton,break_done_touch.midButton,break_done_touch.rightButton,break_done_keyboard.keys,maintrials.thisRepN,maintrials.thisTrialN,maintrials.thisN,maintrials.thisIndex,maintrials.ran,string,blur,study,lex,stim_path,break_done_keyboard.rt,mouse_2.x,mouse_2.y,mouse_2.leftButton,mouse_2.midButton,mouse_2.rightButton,mouse_2.clicked_name,slider.response,slider.rt,trials.thisRepN,trials.thisTrialN,trials.thisN,trials.thisIndex,trials.ran,test_instructions.thisRepN,test_instructions.thisTrialN,test_instructions.thisN,test_instructions.thisIndex,test_instructions.ran,instr_done_touch.clicked_name,key_resp_3.keys,key_resp_3.corr,key_resp_3.rt,test_click.x,test_click.y,test_click.leftButton,test_click.midButton,test_click.rightButton,test_click.time,test_click.clicked_name,test_phase.thisRepN,test_phase.thisTrialN,test_phase.thisN,test_phase.thisIndex,test_phase.ran
space,197.0924,-0.701851852,-0.087962963,0,0,0,0,0,0,0,1,1,instructions,"INSTRUCTIONS
At the start of each trial, look at the plus sign  (+) in the center of the screen.  This tells you that a trial is about to begin and where to look. Second, the plus sign will disappear and a string of letters will appear. Your task is to determine if the string of letters is a word or not. If the item is a word press the M key (on keyboard)  or touch the word button (phone/tablet).  If the item is not a word,  press the  Z key (on keyboard)  or touch the nonword button (on phone/tablet). 
Press the space bar or touch  continue.",0,,5ba849b3a2a1ae0001f08d2d,20,2022-02-12_17h07.02.892,lexical_decision_task_DD_L2,2021.2.3,Win32,143.081986,,,,,,,,,,,,,,,,,,,,,,,,,,,,,,,,,,,,,,,,,,,,,,,,,,,,,,,,,,,,,,,,,,,,,,,,,,,,,,,,,,,,,,
space,3.1664,-0.701851852,-0.087962963,0,0,0,0,1,1,1,1,2,instructions,"If your device has a keyboard, press the 'Z' key for nonwords and the 'M' key for words.





Press the space bar or touch the button below to continue.",0,keyboard-example.gif,5ba849b3a2a1ae0001f08d2d,20,2022-02-12_17h07.02.892,lexical_decision_task_DD_L2,2021.2.3,Win32,143.081986,,,,,,,,,,,,,,,,,,,,,,,,,,,,,,,,,,,,,,,,,,,,,,,,,,,,,,,,,,,,,,,,,,,,,,,,,,,,,,,,,,,,,,
space,1.4083,-0.701851852,-0.087962963,0,0,0,0,2,2,2,1,3,instructions,"If you are using a touchscreen only device, use the buttons on the screen. Do not use the mouse.





Press the space bar or touch the button below to continue.",0,touchscreen-example.gif,5ba849b3a2a1ae0001f08d2d,20,2022-02-12_17h07.02.892,lexical_decision_task_DD_L2,2021.2.3,Win32,143.081986,,,,,,,,,,,,,,,,,,,,,,,,,,,,,,,,,,,,,,,,,,,,,,,,,,,,,,,,,,,,,,,,,,,,,,,,,,,,,,,,,,,,,,
space,3.4558,-0.701851852,-0.087962963,0,0,0,0,3,3,3,1,4,instructions,"It is very important that you respond as quickly and accurately as possible, as each letter string will only be on the screen for two seconds. If you do not respond within this time, the message 'Too slow!' will be displayed and the experiment will progress to the next letter string. The first 20 trials will be practice trials and you will receive feedback on your answers. 

Press the space bar or touch the button below to start the practice trials.",0,,5ba849b3a2a1ae0001f08d2d,20,2022-02-12_17h07.02.892,lexical_decision_task_DD_L2,2021.2.3,Win32,143.081986,,,,,,,,,,,,,,,,,,,,,,,,,,,,,,,,,,,,,,,,,,,,,,,,,,,,,,,,,,,,,,,,,,,,,,,,,,,,,,,,,,,,,,
,,,,,,,,,,,,,,,,,5ba849b3a2a1ae0001f08d2d,20,2022-02-12_17h07.02.892,lexical_decision_task_DD_L2,2021.2.3,Win32,143.081986,m,1,0.7228,,,,,,,,0.7228,1,0,0,0,2,1,1001,ALMOND,m,,,,,,,,,,,,,,,,,,,,,,,,,,,,,,,,,,,,,,,,,,,,,,,,,,,,,,,,,,,,,,,,,,
,,,,,,,,,,,,,,,,,5ba849b3a2a1ae0001f08d2d,20,2022-02-12_17h07.02.892,lexical_decision_task_DD_L2,2021.2.3,Win32,143.081986,m,1,0.5662,,,,,,,,0.5662,1,0,1,1,4,1,1001,SQUEAK,m,,,,,,,,,,,,,,,,,,,,,,,,,,,,,,,,,,,,,,,,,,,,,,,,,,,,,,,,,,,,,,,,,,
,,,,,,,,,,,,,,,,,5ba849b3a2a1ae0001f08d2d,20,2022-02-12_17h07.02.892,lexical_decision_task_DD_L2,2021.2.3,Win32,143.081986,z,1,0.6789,,,,,,,,0.6789,1,0,2,2,15,1,1001,WHAISE,z,,,,,,,,,,,,,,,,,,,,,,,,,,,,,,,,,,,,,,,,,,,,,,,,,,,,,,,,,,,,,,,,,,
,,,,,,,,,,,,,,,,,5ba849b3a2a1ae0001f08d2d,20,2022-02-12_17h07.02.892,lexical_decision_task_DD_L2,2021.2.3,Win32,143.081986,m,1,0.526,,,,,,,,0.526,1,0,3,3,6,1,1001,ZOMBIE,m,,,,,,,,,,,,,,,,,,,,,,,,,,,,,,,,,,,,,,,,,,,,,,,,,,,,,,,,,,,,,,,,,,
,,,,,,,,,,,,,,,,,5ba849b3a2a1ae0001f08d2d,20,2022-02-12_17h07.02.892,lexical_decision_task_DD_L2,2021.2.3,Win32,143.081986,z,1,0.7306,,,,,,,,0.7306,1,0,4,4,14,1,1001,THRALE,z,,,,,,,,,,,,,,,,,,,,,,,,,,,,,,,,,,,,,,,,,,,,,,,,,,,,,,,,,,,,,,,,,,
,,,,,,,,,,,,,,,,,5ba849b3a2a1ae0001f08d2d,20,2022-02-12_17h07.02.892,lexical_decision_task_DD_L2,2021.2.3,Win32,143.081986,z,1,0.7564,,,,,,,,0.7564,1,0,5,5,11,1,1001,RASHET,z,,,,,,,,,,,,,,,,,,,,,,,,,,,,,,,,,,,,,,,,,,,,,,,,,,,,,,,,,,,,,,,,,,
,,,,,,,,,,,,,,,,,5ba849b3a2a1ae0001f08d2d,20,2022-02-12_17h07.02.892,lexical_decision_task_DD_L2,2021.2.3,Win32,143.081986,z,1,0.6949,,,,,,,,0.6949,1,0,6,6,12,1,1001,SPRINY,z,,,,,,,,,,,,,,,,,,,,,,,,,,,,,,,,,,,,,,,,,,,,,,,,,,,,,,,,,,,,,,,,,,
,,,,,,,,,,,,,,,,,5ba849b3a2a1ae0001f08d2d,20,2022-02-12_17h07.02.892,lexical_decision_task_DD_L2,2021.2.3,Win32,143.081986,z,1,0.7075,,,,,,,,0.7075,1,0,7,7,10,1,1001,INLADE,z,,,,,,,,,,,,,,,,,,,,,,,,,,,,,,,,,,,,,,,,,,,,,,,,,,,,,,,,,,,,,,,,,,
,,,,,,,,,,,,,,,,,5ba849b3a2a1ae0001f08d2d,20,2022-02-12_17h07.02.892,lexical_decision_task_DD_L2,2021.2.3,Win32,143.081986,m,1,0.5614,,,,,,,,0.5614,1,0,8,8,1,1,1001,ADJUST,m,,,,,,,,,,,,,,,,,,,,,,,,,,,,,,,,,,,,,,,,,,,,,,,,,,,,,,,,,,,,,,,,,,
,,,,,,,,,,,,,,,,,5ba849b3a2a1ae0001f08d2d,20,2022-02-12_17h07.02.892,lexical_decision_task_DD_L2,2021.2.3,Win32,143.081986,m,1,0.5361,,,,,,,,0.5361,1,0,9,9,3,1,1001,MATRIX,m,,,,,,,,,,,,,,,,,,,,,,,,,,,,,,,,,,,,,,,,,,,,,,,,,,,,,,,,,,,,,,,,,,
,,,,,,,,,,,,,,,,,5ba849b3a2a1ae0001f08d2d,20,2022-02-12_17h07.02.892,lexical_decision_task_DD_L2,2021.2.3,Win32,143.081986,m,1,0.5693,,,,,,,,0.5693,1,0,10,10,0,1,1001,UTOPIA,m,,,,,,,,,,,,,,,,,,,,,,,,,,,,,,,,,,,,,,,,,,,,,,,,,,,,,,,,,,,,,,,,,,
,,,,,,,,,,,,,,,,,5ba849b3a2a1ae0001f08d2d,20,2022-02-12_17h07.02.892,lexical_decision_task_DD_L2,2021.2.3,Win32,143.081986,m,1,0.4773,,,,,,,,0.4773,1,0,11,11,5,1,1001,OBTAIN,m,,,,,,,,,,,,,,,,,,,,,,,,,,,,,,,,,,,,,,,,,,,,,,,,,,,,,,,,,,,,,,,,,,
,,,,,,,,,,,,,,,,,5ba849b3a2a1ae0001f08d2d,20,2022-02-12_17h07.02.892,lexical_decision_task_DD_L2,2021.2.3,Win32,143.081986,m,1,0.4318,,,,,,,,0.4318,1,0,12,12,7,1,1001,VOLUME,m,,,,,,,,,,,,,,,,,,,,,,,,,,,,,,,,,,,,,,,,,,,,,,,,,,,,,,,,,,,,,,,,,,
,,,,,,,,,,,,,,,,,5ba849b3a2a1ae0001f08d2d,20,2022-02-12_17h07.02.892,lexical_decision_task_DD_L2,2021.2.3,Win32,143.081986,z,1,0.4798,,,,,,,,0.4798,1,0,13,13,9,1,1001,FARINY,z,,,,,,,,,,,,,,,,,,,,,,,,,,,,,,,,,,,,,,,,,,,,,,,,,,,,,,,,,,,,,,,,,,
,,,,,,,,,,,,,,,,,5ba849b3a2a1ae0001f08d2d,20,2022-02-12_17h07.02.892,lexical_decision_task_DD_L2,2021.2.3,Win32,143.081986,z,1,0.4796,,,,,,,,0.4796,1,0,14,14,8,1,1001,ASLERT,z,,,,,,,,,,,,,,,,,,,,,,,,,,,,,,,,,,,,,,,,,,,,,,,,,,,,,,,,,,,,,,,,,,
,,,,,,,,,,,,,,,,,5ba849b3a2a1ae0001f08d2d,20,2022-02-12_17h07.02.892,lexical_decision_task_DD_L2,2021.2.3,Win32,143.081986,z,1,0.4959,,,,,,,,0.4959,1,0,15,15,13,1,1001,ROUPET,z,,,,,,,,,,,,,,,,,,,,,,,,,,,,,,,,,,,,,,,,,,,,,,,,,,,,,,,,,,,,,,,,,,
space,4.1401,-0.701851852,-0.087962963,0,0,0,,,,,,1,end_of_practice,"You have completed the practice trials. During the experimental trials, you will not receive feedback. 
Before you begin, please ensure that you are in a comfortable and quiet location and will not be disturbed for about 15 minutes, as we cannot use your data if you do not complete all the trials. 
 When you are ready to start the experimental trials, please press space or touch the button below.",,,5ba849b3a2a1ae0001f08d2d,20,2022-02-12_17h07.02.892,lexical_decision_task_DD_L2,2021.2.3,Win32,143.081986,,,,,,,,,,,,,,,,,,,,,0,0,0,0,1,,,,,,,,,,,,,,,,,,,,,,,,,,,,,,,,,,,,,,,,,,,,,,,,,,,,,,,,,,,,,
,,,,,,,,,,,,,,,,,5ba849b3a2a1ae0001f08d2d,20,2022-02-12_17h07.02.892,lexical_decision_task_DD_L2,2021.2.3,Win32,143.081986,,,,,,,,,,,1.0143,1,,,,,,,,,,,,,,m,1,1.0143,,,,,,,,-0.701851852,-0.087962963,0,0,0,,0,0,0,46,1,PEARL,LB,old,m,./images/PEARLLB.png,,,,,,,,,,,,,,,,,,,,,,,,,,,,,,,,,,,
,,,,,,,,,,,,,,,,,5ba849b3a2a1ae0001f08d2d,20,2022-02-12_17h07.02.892,lexical_decision_task_DD_L2,2021.2.3,Win32,143.081986,,,,,,,,,,,0.5722,1,,,,,,,,,,,,,,z,1,0.5722,,,,,,,,-0.701851852,-0.087962963,0,0,0,,0,1,1,114,1,RIKES,C,old,z,./images/RIKES.png,,,,,,,,,,,,,,,,,,,,,,,,,,,,,,,,,,,
,,,,,,,,,,,,,,,,,5ba849b3a2a1ae0001f08d2d,20,2022-02-12_17h07.02.892,lexical_decision_task_DD_L2,2021.2.3,Win32,143.081986,,,,,,,,,,,0.6007,1,,,,,,,,,,,,,,z,1,0.6007,,,,,,,,-0.701851852,-0.087962963,0,0,0,,0,2,2,167,1,ZONET,LB,old,z,./images/ZONETLB.png,,,,,,,,,,,,,,,,,,,,,,,,,,,,,,,,,,,
,,,,,,,,,,,,,,,,,5ba849b3a2a1ae0001f08d2d,20,2022-02-12_17h07.02.892,lexical_decision_task_DD_L2,2021.2.3,Win32,143.081986,,,,,,,,,,,0.5328,1,,,,,,,,,,,,,,m,1,0.5328,,,,,,,,-0.701851852,-0.087962963,0,0,0,,0,3,3,19,1,DOUGH,LB,old,m,./images/DOUGHLB.png,,,,,,,,,,,,,,,,,,,,,,,,,,,,,,,,,,,
,,,,,,,,,,,,,,,,,5ba849b3a2a1ae0001f08d2d,20,2022-02-12_17h07.02.892,lexical_decision_task_DD_L2,2021.2.3,Win32,143.081986,,,,,,,,,,,0.5213,1,,,,,,,,,,,,,,m,1,0.5213,,,,,,,,-0.701851852,-0.087962963,0,0,0,,0,4,4,45,1,KITTEN,HB,old,m,./images/KITTENHB.png,,,,,,,,,,,,,,,,,,,,,,,,,,,,,,,,,,,
,,,,,,,,,,,,,,,,,5ba849b3a2a1ae0001f08d2d,20,2022-02-12_17h07.02.892,lexical_decision_task_DD_L2,2021.2.3,Win32,143.081986,,,,,,,,,,,1.1359,1,,,,,,,,,,,,,,z,1,1.1359,,,,,,,,-0.701851852,-0.087962963,0,0,0,,0,5,5,160,1,VEETS,HB,old,z,./images/VEETSHB.png,,,,,,,,,,,,,,,,,,,,,,,,,,,,,,,,,,,
,,,,,,,,,,,,,,,,,5ba849b3a2a1ae0001f08d2d,20,2022-02-12_17h07.02.892,lexical_decision_task_DD_L2,2021.2.3,Win32,143.081986,,,,,,,,,,,0.5202,1,,,,,,,,,,,,,,m,1,0.5202,,,,,,,,-0.701851852,-0.087962963,0,0,0,,0,6,6,10,1,BELLY,LB,old,m,./images/BELLYLB.png,,,,,,,,,,,,,,,,,,,,,,,,,,,,,,,,,,,
,,,,,,,,,,,,,,,,,5ba849b3a2a1ae0001f08d2d,20,2022-02-12_17h07.02.892,lexical_decision_task_DD_L2,2021.2.3,Win32,143.081986,,,,,,,,,,,0.5664,1,,,,,,,,,,,,,,z,1,0.5664,,,,,,,,-0.701851852,-0.087962963,0,0,0,,0,7,7,153,1,CLUPS,C,old,z,./images/CLUPS.png,,,,,,,,,,,,,,,,,,,,,,,,,,,,,,,,,,,
,,,,,,,,,,,,,,,,,5ba849b3a2a1ae0001f08d2d,20,2022-02-12_17h07.02.892,lexical_decision_task_DD_L2,2021.2.3,Win32,143.081986,,,,,,,,,,,0.4981,1,,,,,,,,,,,,,,m,1,0.4981,,,,,,,,-0.701851852,-0.087962963,0,0,0,,0,8,8,48,1,SPORT,HB,old,m,./images/SPORTHB.png,,,,,,,,,,,,,,,,,,,,,,,,,,,,,,,,,,,
,,,,,,,,,,,,,,,,,5ba849b3a2a1ae0001f08d2d,20,2022-02-12_17h07.02.892,lexical_decision_task_DD_L2,2021.2.3,Win32,143.081986,,,,,,,,,,,0.5685,1,,,,,,,,,,,,,,z,1,0.5685,,,,,,,,-0.701851852,-0.087962963,0,0,0,,0,9,9,84,1,HAXES,C,old,z,./images/HAXES.png,,,,,,,,,,,,,,,,,,,,,,,,,,,,,,,,,,,
,,,,,,,,,,,,,,,,,5ba849b3a2a1ae0001f08d2d,20,2022-02-12_17h07.02.892,lexical_decision_task_DD_L2,2021.2.3,Win32,143.081986,,,,,,,,,,,0.5614,1,,,,,,,,,,,,,,z,1,0.5614,,,,,,,,-0.701851852,-0.087962963,0,0,0,,0,10,10,90,1,NEAST,C,old,z,./images/NEAST.png,,,,,,,,,,,,,,,,,,,,,,,,,,,,,,,,,,,
,,,,,,,,,,,,,,,,,5ba849b3a2a1ae0001f08d2d,20,2022-02-12_17h07.02.892,lexical_decision_task_DD_L2,2021.2.3,Win32,143.081986,,,,,,,,,,,0.9436,0,,,,,,,,,,,,,,m,0,0.9436,,,,,,,,-0.701851852,-0.087962963,0,0,0,,0,11,11,145,1,LAMEL,HB,old,z,./images/LAMELHB.png,,,,,,,,,,,,,,,,,,,,,,,,,,,,,,,,,,,
,,,,,,,,,,,,,,,,,5ba849b3a2a1ae0001f08d2d,20,2022-02-12_17h07.02.892,lexical_decision_task_DD_L2,2021.2.3,Win32,143.081986,,,,,,,,,,,0.5565,1,,,,,,,,,,,,,,m,1,0.5565,,,,,,,,-0.701851852,-0.087962963,0,0,0,,0,12,12,80,1,WEASEL,C,old,m,./images/WEASEL.png,,,,,,,,,,,,,,,,,,,,,,,,,,,,,,,,,,,
,,,,,,,,,,,,,,,,,5ba849b3a2a1ae0001f08d2d,20,2022-02-12_17h07.02.892,lexical_decision_task_DD_L2,2021.2.3,Win32,143.081986,,,,,,,,,,,0.6401,1,,,,,,,,,,,,,,z,1,0.6401,,,,,,,,-0.701851852,-0.087962963,0,0,0,,0,13,13,92,1,PAIMS,LB,old,z,./images/PAIMSLB.png,,,,,,,,,,,,,,,,,,,,,,,,,,,,,,,,,,,
,,,,,,,,,,,,,,,,,5ba849b3a2a1ae0001f08d2d,20,2022-02-12_17h07.02.892,lexical_decision_task_DD_L2,2021.2.3,Win32,143.081986,,,,,,,,,,,0.472,0,,,,,,,,,,,,,,z,0,0.472,,,,,,,,-0.701851852,-0.087962963,0,0,0,,0,14,14,67,1,SAILOR,LB,old,m,./images/SAILORLB.png,,,,,,,,,,,,,,,,,,,,,,,,,,,,,,,,,,,
,,,,,,,,,,,,,,,,,5ba849b3a2a1ae0001f08d2d,20,2022-02-12_17h07.02.892,lexical_decision_task_DD_L2,2021.2.3,Win32,143.081986,,,,,,,,,,,0.6276,1,,,,,,,,,,,,,,m,1,0.6276,,,,,,,,-0.701851852,-0.087962963,0,0,0,,0,15,15,56,1,PACKET,C,old,m,./images/PACKET.png,,,,,,,,,,,,,,,,,,,,,,,,,,,,,,,,,,,
,,,,,,,,,,,,,,,,,5ba849b3a2a1ae0001f08d2d,20,2022-02-12_17h07.02.892,lexical_decision_task_DD_L2,2021.2.3,Win32,143.081986,,,,,,,,,,,0.602,1,,,,,,,,,,,,,,m,1,0.602,,,,,,,,-0.701851852,-0.087962963,0,0,0,,0,16,16,43,1,MOSQUE,LB,old,m,./images/MOSQUELB.png,,,,,,,,,,,,,,,,,,,,,,,,,,,,,,,,,,,
,,,,,,,,,,,,,,,,,5ba849b3a2a1ae0001f08d2d,20,2022-02-12_17h07.02.892,lexical_decision_task_DD_L2,2021.2.3,Win32,143.081986,,,,,,,,,,,0.5472,1,,,,,,,,,,,,,,m,1,0.5472,,,,,,,,-0.701851852,-0.087962963,0,0,0,,0,17,17,17,1,SKIING,C,old,m,./images/SKIING.png,,,,,,,,,,,,,,,,,,,,,,,,,,,,,,,,,,,
,,,,,,,,,,,,,,,,,5ba849b3a2a1ae0001f08d2d,20,2022-02-12_17h07.02.892,lexical_decision_task_DD_L2,2021.2.3,Win32,143.081986,,,,,,,,,,,0.59,1,,,,,,,,,,,,,,m,1,0.59,,,,,,,,-0.701851852,-0.087962963,0,0,0,,0,18,18,59,1,BURIAL,C,old,m,./images/BURIAL.png,,,,,,,,,,,,,,,,,,,,,,,,,,,,,,,,,,,
,,,,,,,,,,,,,,,,,5ba849b3a2a1ae0001f08d2d,20,2022-02-12_17h07.02.892,lexical_decision_task_DD_L2,2021.2.3,Win32,143.081986,,,,,,,,,,,1.0291,1,,,,,,,,,,,,,,z,1,1.0291,,,,,,,,-0.701851852,-0.087962963,0,0,0,,0,19,19,103,1,FLORT,HB,old,z,./images/FLORTHB.png,,,,,,,,,,,,,,,,,,,,,,,,,,,,,,,,,,,
,,,,,,,,,,,,,,,,,5ba849b3a2a1ae0001f08d2d,20,2022-02-12_17h07.02.892,lexical_decision_task_DD_L2,2021.2.3,Win32,143.081986,,,,,,,,,,,0.6006,1,,,,,,,,,,,,,,z,1,0.6006,,,,,,,,-0.701851852,-0.087962963,0,0,0,,0,20,20,129,1,PRANS,C,old,z,./images/PRANS.png,,,,,,,,,,,,,,,,,,,,,,,,,,,,,,,,,,,
,,,,,,,,,,,,,,,,,5ba849b3a2a1ae0001f08d2d,20,2022-02-12_17h07.02.892,lexical_decision_task_DD_L2,2021.2.3,Win32,143.081986,,,,,,,,,,,0.6583,1,,,,,,,,,,,,,,z,1,0.6583,,,,,,,,-0.701851852,-0.087962963,0,0,0,,0,21,21,128,1,GRIFT,LB,old,z,./images/GRIFTLB.png,,,,,,,,,,,,,,,,,,,,,,,,,,,,,,,,,,,
,,,,,,,,,,,,,,,,,5ba849b3a2a1ae0001f08d2d,20,2022-02-12_17h07.02.892,lexical_decision_task_DD_L2,2021.2.3,Win32,143.081986,,,,,,,,,,,0.5031,1,,,,,,,,,,,,,,m,1,0.5031,,,,,,,,-0.701851852,-0.087962963,0,0,0,,0,22,22,36,1,THROAT,HB,old,m,./images/THROATHB.png,,,,,,,,,,,,,,,,,,,,,,,,,,,,,,,,,,,
,,,,,,,,,,,,,,,,,5ba849b3a2a1ae0001f08d2d,20,2022-02-12_17h07.02.892,lexical_decision_task_DD_L2,2021.2.3,Win32,143.081986,,,,,,,,,,,0.5784,1,,,,,,,,,,,,,,m,1,0.5784,,,,,,,,-0.701851852,-0.087962963,0,0,0,,0,23,23,15,1,GREASE,HB,old,m,./images/GREASEHB.png,,,,,,,,,,,,,,,,,,,,,,,,,,,,,,,,,,,
,,,,,,,,,,,,,,,,,5ba849b3a2a1ae0001f08d2d,20,2022-02-12_17h07.02.892,lexical_decision_task_DD_L2,2021.2.3,Win32,143.081986,,,,,,,,,,,0.9716,1,,,,,,,,,,,,,,z,1,0.9716,,,,,,,,-0.701851852,-0.087962963,0,0,0,,0,24,24,140,1,DOVET,LB,old,z,./images/DOVETLB.png,,,,,,,,,,,,,,,,,,,,,,,,,,,,,,,,,,,
,,,,,,,,,,,,,,,,,5ba849b3a2a1ae0001f08d2d,20,2022-02-12_17h07.02.892,lexical_decision_task_DD_L2,2021.2.3,Win32,143.081986,,,,,,,,,,,0.6074,1,,,,,,,,,,,,,,z,1,0.6074,,,,,,,,-0.701851852,-0.087962963,0,0,0,,0,25,25,137,1,JOOST,LB,old,z,./images/JOOSTLB.png,,,,,,,,,,,,,,,,,,,,,,,,,,,,,,,,,,,
,,,,,,,,,,,,,,,,,5ba849b3a2a1ae0001f08d2d,20,2022-02-12_17h07.02.892,lexical_decision_task_DD_L2,2021.2.3,Win32,143.081986,,,,,,,,,,,0.5505,1,,,,,,,,,,,,,,z,1,0.5505,,,,,,,,-0.701851852,-0.087962963,0,0,0,,0,26,26,126,1,GUELS,C,old,z,./images/GUELS.png,,,,,,,,,,,,,,,,,,,,,,,,,,,,,,,,,,,
,,,,,,,,,,,,,,,,,5ba849b3a2a1ae0001f08d2d,20,2022-02-12_17h07.02.892,lexical_decision_task_DD_L2,2021.2.3,Win32,143.081986,,,,,,,,,,,0.9827,1,,,,,,,,,,,,,,z,1,0.9827,,,,,,,,-0.701851852,-0.087962963,0,0,0,,0,27,27,166,1,SHORY,HB,old,z,./images/SHORYHB.png,,,,,,,,,,,,,,,,,,,,,,,,,,,,,,,,,,,
,,,,,,,,,,,,,,,,,5ba849b3a2a1ae0001f08d2d,20,2022-02-12_17h07.02.892,lexical_decision_task_DD_L2,2021.2.3,Win32,143.081986,,,,,,,,,,,0.4722,1,,,,,,,,,,,,,,m,1,0.4722,,,,,,,,-0.701851852,-0.087962963,0,0,0,,0,28,28,38,1,LADDER,C,old,m,./images/LADDER.png,,,,,,,,,,,,,,,,,,,,,,,,,,,,,,,,,,,
,,,,,,,,,,,,,,,,,5ba849b3a2a1ae0001f08d2d,20,2022-02-12_17h07.02.892,lexical_decision_task_DD_L2,2021.2.3,Win32,143.081986,,,,,,,,,,,0.7537,1,,,,,,,,,,,,,,m,1,0.7537,,,,,,,,-0.701851852,-0.087962963,0,0,0,,0,29,29,12,1,SHORE,HB,old,m,./images/SHOREHB.png,,,,,,,,,,,,,,,,,,,,,,,,,,,,,,,,,,,
,,,,,,,,,,,,,,,,,5ba849b3a2a1ae0001f08d2d,20,2022-02-12_17h07.02.892,lexical_decision_task_DD_L2,2021.2.3,Win32,143.081986,,,,,,,,,,,0.4427,1,,,,,,,,,,,,,,m,1,0.4427,,,,,,,,-0.701851852,-0.087962963,0,0,0,,0,30,30,32,1,BARREL,C,old,m,./images/BARREL.png,,,,,,,,,,,,,,,,,,,,,,,,,,,,,,,,,,,
,,,,,,,,,,,,,,,,,5ba849b3a2a1ae0001f08d2d,20,2022-02-12_17h07.02.892,lexical_decision_task_DD_L2,2021.2.3,Win32,143.081986,,,,,,,,,,,0.4431,1,,,,,,,,,,,,,,m,1,0.4431,,,,,,,,-0.701851852,-0.087962963,0,0,0,,0,31,31,62,1,PURSE,C,old,m,./images/PURSE.png,,,,,,,,,,,,,,,,,,,,,,,,,,,,,,,,,,,
,,,,,,,,,,,,,,,,,5ba849b3a2a1ae0001f08d2d,20,2022-02-12_17h07.02.892,lexical_decision_task_DD_L2,2021.2.3,Win32,143.081986,,,,,,,,,,,0.5387,1,,,,,,,,,,,,,,z,1,0.5387,,,,,,,,-0.701851852,-0.087962963,0,0,0,,0,32,32,155,1,CANGY,LB,old,z,./images/CANGYLB.png,,,,,,,,,,,,,,,,,,,,,,,,,,,,,,,,,,,
,,,,,,,,,,,,,,,,,5ba849b3a2a1ae0001f08d2d,20,2022-02-12_17h07.02.892,lexical_decision_task_DD_L2,2021.2.3,Win32,143.081986,,,,,,,,,,,0.7042,1,,,,,,,,,,,,,,m,1,0.7042,,,,,,,,-0.701851852,-0.087962963,0,0,0,,0,33,33,78,1,LITTER,HB,old,m,./images/LITTERHB.png,,,,,,,,,,,,,,,,,,,,,,,,,,,,,,,,,,,
,,,,,,,,,,,,,,,,,5ba849b3a2a1ae0001f08d2d,20,2022-02-12_17h07.02.892,lexical_decision_task_DD_L2,2021.2.3,Win32,143.081986,,,,,,,,,,,1.1878,1,,,,,,,,,,,,,,z,1,1.1878,,,,,,,,-0.701851852,-0.087962963,0,0,0,,0,34,34,148,1,JOMS,HB,old,z,./images/JOMSHB.png,,,,,,,,,,,,,,,,,,,,,,,,,,,,,,,,,,,
,,,,,,,,,,,,,,,,,5ba849b3a2a1ae0001f08d2d,20,2022-02-12_17h07.02.892,lexical_decision_task_DD_L2,2021.2.3,Win32,143.081986,,,,,,,,,,,0.4687,1,,,,,,,,,,,,,,m,1,0.4687,,,,,,,,-0.701851852,-0.087962963,0,0,0,,0,35,35,64,1,JELLY,LB,old,m,./images/JELLYLB.png,,,,,,,,,,,,,,,,,,,,,,,,,,,,,,,,,,,
,,,,,,,,,,,,,,,,,5ba849b3a2a1ae0001f08d2d,20,2022-02-12_17h07.02.892,lexical_decision_task_DD_L2,2021.2.3,Win32,143.081986,,,,,,,,,,,0.4855,1,,,,,,,,,,,,,,z,1,0.4855,,,,,,,,-0.701851852,-0.087962963,0,0,0,,0,36,36,120,1,RINED,C,old,z,./images/RINED.png,,,,,,,,,,,,,,,,,,,,,,,,,,,,,,,,,,,
,,,,,,,,,,,,,,,,,5ba849b3a2a1ae0001f08d2d,20,2022-02-12_17h07.02.892,lexical_decision_task_DD_L2,2021.2.3,Win32,143.081986,,,,,,,,,,,0.5315,1,,,,,,,,,,,,,,z,1,0.5315,,,,,,,,-0.701851852,-0.087962963,0,0,0,,0,37,37,131,1,NACES,LB,old,z,./images/NACESLB.png,,,,,,,,,,,,,,,,,,,,,,,,,,,,,,,,,,,
,,,,,,,,,,,,,,,,,5ba849b3a2a1ae0001f08d2d,20,2022-02-12_17h07.02.892,lexical_decision_task_DD_L2,2021.2.3,Win32,143.081986,,,,,,,,,,,0.5848,1,,,,,,,,,,,,,,z,1,0.5848,,,,,,,,-0.701851852,-0.087962963,0,0,0,,0,38,38,165,1,TROWN,C,old,z,./images/TROWN.png,,,,,,,,,,,,,,,,,,,,,,,,,,,,,,,,,,,
,,,,,,,,,,,,,,,,,5ba849b3a2a1ae0001f08d2d,20,2022-02-12_17h07.02.892,lexical_decision_task_DD_L2,2021.2.3,Win32,143.081986,,,,,,,,,,,0.5763,1,,,,,,,,,,,,,,m,1,0.5763,,,,,,,,-0.701851852,-0.087962963,0,0,0,,0,39,39,58,1,BABOON,LB,old,m,./images/BABOONLB.png,,,,,,,,,,,,,,,,,,,,,,,,,,,,,,,,,,,
,,,,,,,,,,,,,,,,,5ba849b3a2a1ae0001f08d2d,20,2022-02-12_17h07.02.892,lexical_decision_task_DD_L2,2021.2.3,Win32,143.081986,,,,,,,,,,,0.5977,1,,,,,,,,,,,,,,m,1,0.5977,,,,,,,,-0.701851852,-0.087962963,0,0,0,,0,40,40,9,1,RHINO,HB,old,m,./images/RHINOHB.png,,,,,,,,,,,,,,,,,,,,,,,,,,,,,,,,,,,
,,,,,,,,,,,,,,,,,5ba849b3a2a1ae0001f08d2d,20,2022-02-12_17h07.02.892,lexical_decision_task_DD_L2,2021.2.3,Win32,143.081986,,,,,,,,,,,0.4531,1,,,,,,,,,,,,,,z,1,0.4531,,,,,,,,-0.701851852,-0.087962963,0,0,0,space,0,41,41,104,1,GITTY,LB,old,z,./images/GITTYLB.png,1.635,,,,,,,,,,,,,,,,,,,,,,,,,,,,,,,,,,
,,,,,,,,,,,,,,,,,5ba849b3a2a1ae0001f08d2d,20,2022-02-12_17h07.02.892,lexical_decision_task_DD_L2,2021.2.3,Win32,143.081986,,,,,,,,,,,0.5297,1,,,,,,,,,,,,,,z,1,0.5297,,,,,,,,-0.701851852,-0.087962963,0,0,0,,0,42,42,147,1,ZOLES,C,old,z,./images/ZOLES.png,,,,,,,,,,,,,,,,,,,,,,,,,,,,,,,,,,,
,,,,,,,,,,,,,,,,,5ba849b3a2a1ae0001f08d2d,20,2022-02-12_17h07.02.892,lexical_decision_task_DD_L2,2021.2.3,Win32,143.081986,,,,,,,,,,,0.7361,1,,,,,,,,,,,,,,z,1,0.7361,,,,,,,,-0.701851852,-0.087962963,0,0,0,,0,43,43,118,1,BAVEL,HB,old,z,./images/BAVELHB.png,,,,,,,,,,,,,,,,,,,,,,,,,,,,,,,,,,,
,,,,,,,,,,,,,,,,,5ba849b3a2a1ae0001f08d2d,20,2022-02-12_17h07.02.892,lexical_decision_task_DD_L2,2021.2.3,Win32,143.081986,,,,,,,,,,,1.0474,1,,,,,,,,,,,,,,z,1,1.0474,,,,,,,,-0.701851852,-0.087962963,0,0,0,,0,44,44,100,1,DRIBS,HB,old,z,./images/DRIBSHB.png,,,,,,,,,,,,,,,,,,,,,,,,,,,,,,,,,,,
,,,,,,,,,,,,,,,,,5ba849b3a2a1ae0001f08d2d,20,2022-02-12_17h07.02.892,lexical_decision_task_DD_L2,2021.2.3,Win32,143.081986,,,,,,,,,,,0.554,1,,,,,,,,,,,,,,m,1,0.554,,,,,,,,-0.701851852,-0.087962963,0,0,0,,0,45,45,51,1,ONION,HB,old,m,./images/ONIONHB.png,,,,,,,,,,,,,,,,,,,,,,,,,,,,,,,,,,,
,,,,,,,,,,,,,,,,,5ba849b3a2a1ae0001f08d2d,20,2022-02-12_17h07.02.892,lexical_decision_task_DD_L2,2021.2.3,Win32,143.081986,,,,,,,,,,,0.5572,1,,,,,,,,,,,,,,m,1,0.5572,,,,,,,,-0.701851852,-0.087962963,0,0,0,,0,46,46,71,1,PIMPLE,C,old,m,./images/PIMPLE.png,,,,,,,,,,,,,,,,,,,,,,,,,,,,,,,,,,,
,,,,,,,,,,,,,,,,,5ba849b3a2a1ae0001f08d2d,20,2022-02-12_17h07.02.892,lexical_decision_task_DD_L2,2021.2.3,Win32,143.081986,,,,,,,,,,,0.6008,1,,,,,,,,,,,,,,z,1,0.6008,,,,,,,,-0.701851852,-0.087962963,0,0,0,,0,47,47,159,1,CUDDY,C,old,z,./images/CUDDY.png,,,,,,,,,,,,,,,,,,,,,,,,,,,,,,,,,,,
,,,,,,,,,,,,,,,,,5ba849b3a2a1ae0001f08d2d,20,2022-02-12_17h07.02.892,lexical_decision_task_DD_L2,2021.2.3,Win32,143.081986,,,,,,,,,,,0.6735,1,,,,,,,,,,,,,,z,1,0.6735,,,,,,,,-0.701851852,-0.087962963,0,0,0,,0,48,48,125,1,MOOKY,LB,old,z,./images/MOOKYLB.png,,,,,,,,,,,,,,,,,,,,,,,,,,,,,,,,,,,
,,,,,,,,,,,,,,,,,5ba849b3a2a1ae0001f08d2d,20,2022-02-12_17h07.02.892,lexical_decision_task_DD_L2,2021.2.3,Win32,143.081986,,,,,,,,,,,0.4557,1,,,,,,,,,,,,,,z,1,0.4557,,,,,,,,-0.701851852,-0.087962963,0,0,0,,0,49,49,108,1,GRUET,C,old,z,./images/GRUET.png,,,,,,,,,,,,,,,,,,,,,,,,,,,,,,,,,,,
,,,,,,,,,,,,,,,,,5ba849b3a2a1ae0001f08d2d,20,2022-02-12_17h07.02.892,lexical_decision_task_DD_L2,2021.2.3,Win32,143.081986,,,,,,,,,,,0.5728,1,,,,,,,,,,,,,,z,1,0.5728,,,,,,,,-0.701851852,-0.087962963,0,0,0,,0,50,50,91,1,SHENS,HB,old,z,./images/SHENSHB.png,,,,,,,,,,,,,,,,,,,,,,,,,,,,,,,,,,,
,,,,,,,,,,,,,,,,,5ba849b3a2a1ae0001f08d2d,20,2022-02-12_17h07.02.892,lexical_decision_task_DD_L2,2021.2.3,Win32,143.081986,,,,,,,,,,,0.5273,1,,,,,,,,,,,,,,z,1,0.5273,,,,,,,,-0.701851852,-0.087962963,0,0,0,,0,51,51,154,1,THINT,HB,old,z,./images/THINTHB.png,,,,,,,,,,,,,,,,,,,,,,,,,,,,,,,,,,,
,,,,,,,,,,,,,,,,,5ba849b3a2a1ae0001f08d2d,20,2022-02-12_17h07.02.892,lexical_decision_task_DD_L2,2021.2.3,Win32,143.081986,,,,,,,,,,,0.4832,1,,,,,,,,,,,,,,m,1,0.4832,,,,,,,,-0.701851852,-0.087962963,0,0,0,,0,52,52,40,1,SWING,LB,old,m,./images/SWINGLB.png,,,,,,,,,,,,,,,,,,,,,,,,,,,,,,,,,,,
,,,,,,,,,,,,,,,,,5ba849b3a2a1ae0001f08d2d,20,2022-02-12_17h07.02.892,lexical_decision_task_DD_L2,2021.2.3,Win32,143.081986,,,,,,,,,,,0.4004,1,,,,,,,,,,,,,,m,1,0.4004,,,,,,,,-0.701851852,-0.087962963,0,0,0,,0,53,53,77,1,COUCH,C,old,m,./images/COUCH.png,,,,,,,,,,,,,,,,,,,,,,,,,,,,,,,,,,,
,,,,,,,,,,,,,,,,,5ba849b3a2a1ae0001f08d2d,20,2022-02-12_17h07.02.892,lexical_decision_task_DD_L2,2021.2.3,Win32,143.081986,,,,,,,,,,,0.4598,1,,,,,,,,,,,,,,m,1,0.4598,,,,,,,,-0.701851852,-0.087962963,0,0,0,,0,54,54,53,1,CARPET,C,old,m,./images/CARPET.png,,,,,,,,,,,,,,,,,,,,,,,,,,,,,,,,,,,
,,,,,,,,,,,,,,,,,5ba849b3a2a1ae0001f08d2d,20,2022-02-12_17h07.02.892,lexical_decision_task_DD_L2,2021.2.3,Win32,143.081986,,,,,,,,,,,0.4228,1,,,,,,,,,,,,,,m,1,0.4228,,,,,,,,-0.701851852,-0.087962963,0,0,0,,0,55,55,34,1,CANYON,LB,old,m,./images/CANYONLB.png,,,,,,,,,,,,,,,,,,,,,,,,,,,,,,,,,,,
,,,,,,,,,,,,,,,,,5ba849b3a2a1ae0001f08d2d,20,2022-02-12_17h07.02.892,lexical_decision_task_DD_L2,2021.2.3,Win32,143.081986,,,,,,,,,,,0.8324,0,,,,,,,,,,,,,,m,0,0.8324,,,,,,,,-0.701851852,-0.087962963,0,0,0,,0,56,56,109,1,BURGE,HB,old,z,./images/BURGEHB.png,,,,,,,,,,,,,,,,,,,,,,,,,,,,,,,,,,,
,,,,,,,,,,,,,,,,,5ba849b3a2a1ae0001f08d2d,20,2022-02-12_17h07.02.892,lexical_decision_task_DD_L2,2021.2.3,Win32,143.081986,,,,,,,,,,,0.436,1,,,,,,,,,,,,,,m,1,0.436,,,,,,,,-0.701851852,-0.087962963,0,0,0,,0,57,57,13,1,MOTOR,LB,old,m,./images/MOTORLB.png,,,,,,,,,,,,,,,,,,,,,,,,,,,,,,,,,,,
,,,,,,,,,,,,,,,,,5ba849b3a2a1ae0001f08d2d,20,2022-02-12_17h07.02.892,lexical_decision_task_DD_L2,2021.2.3,Win32,143.081986,,,,,,,,,,,0.5921,1,,,,,,,,,,,,,,z,1,0.5921,,,,,,,,-0.701851852,-0.087962963,0,0,0,,0,58,58,135,1,JOODY,C,old,z,./images/JOODY.png,,,,,,,,,,,,,,,,,,,,,,,,,,,,,,,,,,,
,,,,,,,,,,,,,,,,,5ba849b3a2a1ae0001f08d2d,20,2022-02-12_17h07.02.892,lexical_decision_task_DD_L2,2021.2.3,Win32,143.081986,,,,,,,,,,,0.551,1,,,,,,,,,,,,,,z,1,0.551,,,,,,,,-0.701851852,-0.087962963,0,0,0,,0,59,59,143,1,MONGS,LB,old,z,./images/MONGSLB.png,,,,,,,,,,,,,,,,,,,,,,,,,,,,,,,,,,,
,,,,,,,,,,,,,,,,,5ba849b3a2a1ae0001f08d2d,20,2022-02-12_17h07.02.892,lexical_decision_task_DD_L2,2021.2.3,Win32,143.081986,,,,,,,,,,,0.4084,1,,,,,,,,,,,,,,m,1,0.4084,,,,,,,,-0.701851852,-0.087962963,0,0,0,,0,60,60,52,1,BANNER,LB,old,m,./images/BANNERLB.png,,,,,,,,,,,,,,,,,,,,,,,,,,,,,,,,,,,
,,,,,,,,,,,,,,,,,5ba849b3a2a1ae0001f08d2d,20,2022-02-12_17h07.02.892,lexical_decision_task_DD_L2,2021.2.3,Win32,143.081986,,,,,,,,,,,0.8367,1,,,,,,,,,,,,,,z,1,0.8367,,,,,,,,-0.701851852,-0.087962963,0,0,0,,0,61,61,158,1,EGECT,LB,old,z,./images/EGECTLB.png,,,,,,,,,,,,,,,,,,,,,,,,,,,,,,,,,,,
,,,,,,,,,,,,,,,,,5ba849b3a2a1ae0001f08d2d,20,2022-02-12_17h07.02.892,lexical_decision_task_DD_L2,2021.2.3,Win32,143.081986,,,,,,,,,,,0.5817,1,,,,,,,,,,,,,,z,1,0.5817,,,,,,,,-0.701851852,-0.087962963,0,0,0,,0,62,62,117,1,STEEG,C,old,z,./images/STEEG.png,,,,,,,,,,,,,,,,,,,,,,,,,,,,,,,,,,,
,,,,,,,,,,,,,,,,,5ba849b3a2a1ae0001f08d2d,20,2022-02-12_17h07.02.892,lexical_decision_task_DD_L2,2021.2.3,Win32,143.081986,,,,,,,,,,,0.51,1,,,,,,,,,,,,,,z,1,0.51,,,,,,,,-0.701851852,-0.087962963,0,0,0,,0,63,63,111,1,HOSSE,C,old,z,./images/HOSSE.png,,,,,,,,,,,,,,,,,,,,,,,,,,,,,,,,,,,
,,,,,,,,,,,,,,,,,5ba849b3a2a1ae0001f08d2d,20,2022-02-12_17h07.02.892,lexical_decision_task_DD_L2,2021.2.3,Win32,143.081986,,,,,,,,,,,0.5172,1,,,,,,,,,,,,,,z,1,0.5172,,,,,,,,-0.701851852,-0.087962963,0,0,0,,0,64,64,107,1,FASKS,LB,old,z,./images/FASKSLB.png,,,,,,,,,,,,,,,,,,,,,,,,,,,,,,,,,,,
,,,,,,,,,,,,,,,,,5ba849b3a2a1ae0001f08d2d,20,2022-02-12_17h07.02.892,lexical_decision_task_DD_L2,2021.2.3,Win32,143.081986,,,,,,,,,,,0.6262,1,,,,,,,,,,,,,,m,1,0.6262,,,,,,,,-0.701851852,-0.087962963,0,0,0,,0,65,65,31,1,QUILL,LB,old,m,./images/QUILLLB.png,,,,,,,,,,,,,,,,,,,,,,,,,,,,,,,,,,,
,,,,,,,,,,,,,,,,,5ba849b3a2a1ae0001f08d2d,20,2022-02-12_17h07.02.892,lexical_decision_task_DD_L2,2021.2.3,Win32,143.081986,,,,,,,,,,,0.4744,1,,,,,,,,,,,,,,z,1,0.4744,,,,,,,,-0.701851852,-0.087962963,0,0,0,,0,66,66,150,1,NOOLS,C,old,z,./images/NOOLS.png,,,,,,,,,,,,,,,,,,,,,,,,,,,,,,,,,,,
,,,,,,,,,,,,,,,,,5ba849b3a2a1ae0001f08d2d,20,2022-02-12_17h07.02.892,lexical_decision_task_DD_L2,2021.2.3,Win32,143.081986,,,,,,,,,,,0.6664,1,,,,,,,,,,,,,,z,1,0.6664,,,,,,,,-0.701851852,-0.087962963,0,0,0,,0,67,67,124,1,TUNCH,HB,old,z,./images/TUNCHHB.png,,,,,,,,,,,,,,,,,,,,,,,,,,,,,,,,,,,
,,,,,,,,,,,,,,,,,5ba849b3a2a1ae0001f08d2d,20,2022-02-12_17h07.02.892,lexical_decision_task_DD_L2,2021.2.3,Win32,143.081986,,,,,,,,,,,0.5276,1,,,,,,,,,,,,,,m,1,0.5276,,,,,,,,-0.701851852,-0.087962963,0,0,0,,0,68,68,35,1,PEACH,C,old,m,./images/PEACH.png,,,,,,,,,,,,,,,,,,,,,,,,,,,,,,,,,,,
,,,,,,,,,,,,,,,,,5ba849b3a2a1ae0001f08d2d,20,2022-02-12_17h07.02.892,lexical_decision_task_DD_L2,2021.2.3,Win32,143.081986,,,,,,,,,,,0.5113,1,,,,,,,,,,,,,,z,1,0.5113,,,,,,,,-0.701851852,-0.087962963,0,0,0,,0,69,69,157,1,INLER,HB,old,z,./images/INLERHB.png,,,,,,,,,,,,,,,,,,,,,,,,,,,,,,,,,,,
,,,,,,,,,,,,,,,,,5ba849b3a2a1ae0001f08d2d,20,2022-02-12_17h07.02.892,lexical_decision_task_DD_L2,2021.2.3,Win32,143.081986,,,,,,,,,,,0.7802,1,,,,,,,,,,,,,,m,1,0.7802,,,,,,,,-0.701851852,-0.087962963,0,0,0,,0,70,70,54,1,TRIPOD,HB,old,m,./images/TRIPODHB.png,,,,,,,,,,,,,,,,,,,,,,,,,,,,,,,,,,,
,,,,,,,,,,,,,,,,,5ba849b3a2a1ae0001f08d2d,20,2022-02-12_17h07.02.892,lexical_decision_task_DD_L2,2021.2.3,Win32,143.081986,,,,,,,,,,,0.7469,1,,,,,,,,,,,,,,m,1,0.7469,,,,,,,,-0.701851852,-0.087962963,0,0,0,,0,71,71,16,1,PENCE,LB,old,m,./images/PENCELB.png,,,,,,,,,,,,,,,,,,,,,,,,,,,,,,,,,,,
,,,,,,,,,,,,,,,,,5ba849b3a2a1ae0001f08d2d,20,2022-02-12_17h07.02.892,lexical_decision_task_DD_L2,2021.2.3,Win32,143.081986,,,,,,,,,,,0.5191,1,,,,,,,,,,,,,,m,1,0.5191,,,,,,,,-0.701851852,-0.087962963,0,0,0,,0,72,72,65,1,FARMER,C,old,m,./images/FARMER.png,,,,,,,,,,,,,,,,,,,,,,,,,,,,,,,,,,,
,,,,,,,,,,,,,,,,,5ba849b3a2a1ae0001f08d2d,20,2022-02-12_17h07.02.892,lexical_decision_task_DD_L2,2021.2.3,Win32,143.081986,,,,,,,,,,,0.4947,1,,,,,,,,,,,,,,m,1,0.4947,,,,,,,,-0.701851852,-0.087962963,0,0,0,,0,73,73,47,1,BERRY,C,old,m,./images/BERRY.png,,,,,,,,,,,,,,,,,,,,,,,,,,,,,,,,,,,
,,,,,,,,,,,,,,,,,5ba849b3a2a1ae0001f08d2d,20,2022-02-12_17h07.02.892,lexical_decision_task_DD_L2,2021.2.3,Win32,143.081986,,,,,,,,,,,0.4925,1,,,,,,,,,,,,,,z,1,0.4925,,,,,,,,-0.701851852,-0.087962963,0,0,0,,0,74,74,161,1,BLAPS,LB,old,z,./images/BLAPSLB.png,,,,,,,,,,,,,,,,,,,,,,,,,,,,,,,,,,,
,,,,,,,,,,,,,,,,,5ba849b3a2a1ae0001f08d2d,20,2022-02-12_17h07.02.892,lexical_decision_task_DD_L2,2021.2.3,Win32,143.081986,,,,,,,,,,,0.604,1,,,,,,,,,,,,,,m,1,0.604,,,,,,,,-0.701851852,-0.087962963,0,0,0,,0,75,75,75,1,GRAIN,HB,old,m,./images/GRAINHB.png,,,,,,,,,,,,,,,,,,,,,,,,,,,,,,,,,,,
,,,,,,,,,,,,,,,,,5ba849b3a2a1ae0001f08d2d,20,2022-02-12_17h07.02.892,lexical_decision_task_DD_L2,2021.2.3,Win32,143.081986,,,,,,,,,,,0.6375,1,,,,,,,,,,,,,,z,1,0.6375,,,,,,,,-0.701851852,-0.087962963,0,0,0,,0,76,76,93,1,SMONE,C,old,z,./images/SMONE.png,,,,,,,,,,,,,,,,,,,,,,,,,,,,,,,,,,,
,,,,,,,,,,,,,,,,,5ba849b3a2a1ae0001f08d2d,20,2022-02-12_17h07.02.892,lexical_decision_task_DD_L2,2021.2.3,Win32,143.081986,,,,,,,,,,,0.5567,1,,,,,,,,,,,,,,m,1,0.5567,,,,,,,,-0.701851852,-0.087962963,0,0,0,,0,77,77,11,1,BONNET,C,old,m,./images/BONNET.png,,,,,,,,,,,,,,,,,,,,,,,,,,,,,,,,,,,
,,,,,,,,,,,,,,,,,5ba849b3a2a1ae0001f08d2d,20,2022-02-12_17h07.02.892,lexical_decision_task_DD_L2,2021.2.3,Win32,143.081986,,,,,,,,,,,0.552,1,,,,,,,,,,,,,,z,1,0.552,,,,,,,,-0.701851852,-0.087962963,0,0,0,,0,78,78,163,1,GAMBA,HB,old,z,./images/GAMBAHB.png,,,,,,,,,,,,,,,,,,,,,,,,,,,,,,,,,,,
,,,,,,,,,,,,,,,,,5ba849b3a2a1ae0001f08d2d,20,2022-02-12_17h07.02.892,lexical_decision_task_DD_L2,2021.2.3,Win32,143.081986,,,,,,,,,,,0.4911,1,,,,,,,,,,,,,,m,1,0.4911,,,,,,,,-0.701851852,-0.087962963,0,0,0,,0,79,79,49,1,DRUMS,LB,old,m,./images/DRUMSLB.png,,,,,,,,,,,,,,,,,,,,,,,,,,,,,,,,,,,
,,,,,,,,,,,,,,,,,5ba849b3a2a1ae0001f08d2d,20,2022-02-12_17h07.02.892,lexical_decision_task_DD_L2,2021.2.3,Win32,143.081986,,,,,,,,,,,0.4863,0,,,,,,,,,,,,,,z,0,0.4863,,,,,,,,-0.701851852,-0.087962963,0,0,0,,0,80,80,1,1,PLANK,LB,old,m,./images/PLANKLB.png,,,,,,,,,,,,,,,,,,,,,,,,,,,,,,,,,,,
,,,,,,,,,,,,,,,,,5ba849b3a2a1ae0001f08d2d,20,2022-02-12_17h07.02.892,lexical_decision_task_DD_L2,2021.2.3,Win32,143.081986,,,,,,,,,,,0.4271,1,,,,,,,,,,,,,,m,1,0.4271,,,,,,,,-0.701851852,-0.087962963,0,0,0,,0,81,81,68,1,TORCH,C,old,m,./images/TORCH.png,,,,,,,,,,,,,,,,,,,,,,,,,,,,,,,,,,,
,,,,,,,,,,,,,,,,,5ba849b3a2a1ae0001f08d2d,20,2022-02-12_17h07.02.892,lexical_decision_task_DD_L2,2021.2.3,Win32,143.081986,,,,,,,,,,,0.5945,1,,,,,,,,,,,,,,z,1,0.5945,,,,,,,,-0.701851852,-0.087962963,0,0,0,,0,82,82,134,1,TROSS,LB,old,z,./images/TROSSLB.png,,,,,,,,,,,,,,,,,,,,,,,,,,,,,,,,,,,
,,,,,,,,,,,,,,,,,5ba849b3a2a1ae0001f08d2d,20,2022-02-12_17h07.02.892,lexical_decision_task_DD_L2,2021.2.3,Win32,143.081986,,,,,,,,,,,0.7839,1,,,,,,,,,,,,,,z,1,0.7839,,,,,,,,-0.701851852,-0.087962963,0,0,0,space,0,83,83,119,1,PAFER,LB,old,z,./images/PAFERLB.png,0.9439,,,,,,,,,,,,,,,,,,,,,,,,,,,,,,,,,,
,,,,,,,,,,,,,,,,,5ba849b3a2a1ae0001f08d2d,20,2022-02-12_17h07.02.892,lexical_decision_task_DD_L2,2021.2.3,Win32,143.081986,,,,,,,,,,,0.5272,1,,,,,,,,,,,,,,m,1,0.5272,,,,,,,,-0.701851852,-0.087962963,0,0,0,,0,84,84,74,1,CEMENT,C,old,m,./images/CEMENT.png,,,,,,,,,,,,,,,,,,,,,,,,,,,,,,,,,,,
,,,,,,,,,,,,,,,,,5ba849b3a2a1ae0001f08d2d,20,2022-02-12_17h07.02.892,lexical_decision_task_DD_L2,2021.2.3,Win32,143.081986,,,,,,,,,,,0.8065,1,,,,,,,,,,,,,,z,1,0.8065,,,,,,,,-0.701851852,-0.087962963,0,0,0,,0,85,85,164,1,SGREW,LB,old,z,./images/SGREWLB.png,,,,,,,,,,,,,,,,,,,,,,,,,,,,,,,,,,,
,,,,,,,,,,,,,,,,,5ba849b3a2a1ae0001f08d2d,20,2022-02-12_17h07.02.892,lexical_decision_task_DD_L2,2021.2.3,Win32,143.081986,,,,,,,,,,,0.661,1,,,,,,,,,,,,,,z,1,0.661,,,,,,,,-0.701851852,-0.087962963,0,0,0,,0,86,86,96,1,KEAMS,C,old,z,./images/KEAMS.png,,,,,,,,,,,,,,,,,,,,,,,,,,,,,,,,,,,
,,,,,,,,,,,,,,,,,5ba849b3a2a1ae0001f08d2d,20,2022-02-12_17h07.02.892,lexical_decision_task_DD_L2,2021.2.3,Win32,143.081986,,,,,,,,,,,0.5462,1,,,,,,,,,,,,,,m,1,0.5462,,,,,,,,-0.701851852,-0.087962963,0,0,0,,0,87,87,2,1,BEARD,C,old,m,./images/BEARD.png,,,,,,,,,,,,,,,,,,,,,,,,,,,,,,,,,,,
,,,,,,,,,,,,,,,,,5ba849b3a2a1ae0001f08d2d,20,2022-02-12_17h07.02.892,lexical_decision_task_DD_L2,2021.2.3,Win32,143.081986,,,,,,,,,,,0.5447,1,,,,,,,,,,,,,,m,1,0.5447,,,,,,,,-0.701851852,-0.087962963,0,0,0,,0,88,88,60,1,TWINS,HB,old,m,./images/TWINSHB.png,,,,,,,,,,,,,,,,,,,,,,,,,,,,,,,,,,,
,,,,,,,,,,,,,,,,,5ba849b3a2a1ae0001f08d2d,20,2022-02-12_17h07.02.892,lexical_decision_task_DD_L2,2021.2.3,Win32,143.081986,,,,,,,,,,,0.587,1,,,,,,,,,,,,,,z,1,0.587,,,,,,,,-0.701851852,-0.087962963,0,0,0,,0,89,89,112,1,MYING,HB,old,z,./images/MYINGHB.png,,,,,,,,,,,,,,,,,,,,,,,,,,,,,,,,,,,
,,,,,,,,,,,,,,,,,5ba849b3a2a1ae0001f08d2d,20,2022-02-12_17h07.02.892,lexical_decision_task_DD_L2,2021.2.3,Win32,143.081986,,,,,,,,,,,0.6257,1,,,,,,,,,,,,,,z,1,0.6257,,,,,,,,-0.701851852,-0.087962963,0,0,0,,0,90,90,113,1,LINEW,LB,old,z,./images/LINEWLB.png,,,,,,,,,,,,,,,,,,,,,,,,,,,,,,,,,,,
,,,,,,,,,,,,,,,,,5ba849b3a2a1ae0001f08d2d,20,2022-02-12_17h07.02.892,lexical_decision_task_DD_L2,2021.2.3,Win32,143.081986,,,,,,,,,,,0.5294,1,,,,,,,,,,,,,,m,1,0.5294,,,,,,,,-0.701851852,-0.087962963,0,0,0,,0,91,91,73,1,SNACK,LB,old,m,./images/SNACKLB.png,,,,,,,,,,,,,,,,,,,,,,,,,,,,,,,,,,,
,,,,,,,,,,,,,,,,,5ba849b3a2a1ae0001f08d2d,20,2022-02-12_17h07.02.892,lexical_decision_task_DD_L2,2021.2.3,Win32,143.081986,,,,,,,,,,,0.5557,1,,,,,,,,,,,,,,m,1,0.5557,,,,,,,,-0.701851852,-0.087962963,0,0,0,,0,92,92,8,1,TULIP,C,old,m,./images/TULIP.png,,,,,,,,,,,,,,,,,,,,,,,,,,,,,,,,,,,
,,,,,,,,,,,,,,,,,5ba849b3a2a1ae0001f08d2d,20,2022-02-12_17h07.02.892,lexical_decision_task_DD_L2,2021.2.3,Win32,143.081986,,,,,,,,,,,0.6183,1,,,,,,,,,,,,,,m,1,0.6183,,,,,,,,-0.701851852,-0.087962963,0,0,0,,0,93,93,57,1,MOOSE,HB,old,m,./images/MOOSEHB.png,,,,,,,,,,,,,,,,,,,,,,,,,,,,,,,,,,,
,,,,,,,,,,,,,,,,,5ba849b3a2a1ae0001f08d2d,20,2022-02-12_17h07.02.892,lexical_decision_task_DD_L2,2021.2.3,Win32,143.081986,,,,,,,,,,,0.4277,1,,,,,,,,,,,,,,m,1,0.4277,,,,,,,,-0.701851852,-0.087962963,0,0,0,,0,94,94,7,1,PAINT,LB,old,m,./images/PAINTLB.png,,,,,,,,,,,,,,,,,,,,,,,,,,,,,,,,,,,
,,,,,,,,,,,,,,,,,5ba849b3a2a1ae0001f08d2d,20,2022-02-12_17h07.02.892,lexical_decision_task_DD_L2,2021.2.3,Win32,143.081986,,,,,,,,,,,0.5621,1,,,,,,,,,,,,,,m,1,0.5621,,,,,,,,-0.701851852,-0.087962963,0,0,0,,0,95,95,0,1,TOMATO,HB,old,m,./images/TOMATOHB.png,,,,,,,,,,,,,,,,,,,,,,,,,,,,,,,,,,,
,,,,,,,,,,,,,,,,,5ba849b3a2a1ae0001f08d2d,20,2022-02-12_17h07.02.892,lexical_decision_task_DD_L2,2021.2.3,Win32,143.081986,,,,,,,,,,,0.5249,1,,,,,,,,,,,,,,m,1,0.5249,,,,,,,,-0.701851852,-0.087962963,0,0,0,,0,96,96,50,1,MALLET,C,old,m,./images/MALLET.png,,,,,,,,,,,,,,,,,,,,,,,,,,,,,,,,,,,
,,,,,,,,,,,,,,,,,5ba849b3a2a1ae0001f08d2d,20,2022-02-12_17h07.02.892,lexical_decision_task_DD_L2,2021.2.3,Win32,143.081986,,,,,,,,,,,0.4134,1,,,,,,,,,,,,,,m,1,0.4134,,,,,,,,-0.701851852,-0.087962963,0,0,0,,0,97,97,5,1,PASTA,C,old,m,./images/PASTA.png,,,,,,,,,,,,,,,,,,,,,,,,,,,,,,,,,,,
,,,,,,,,,,,,,,,,,5ba849b3a2a1ae0001f08d2d,20,2022-02-12_17h07.02.892,lexical_decision_task_DD_L2,2021.2.3,Win32,143.081986,,,,,,,,,,,0.5588,1,,,,,,,,,,,,,,m,1,0.5588,,,,,,,,-0.701851852,-0.087962963,0,0,0,,0,98,98,22,1,MELON,LB,old,m,./images/MELONLB.png,,,,,,,,,,,,,,,,,,,,,,,,,,,,,,,,,,,
,,,,,,,,,,,,,,,,,5ba849b3a2a1ae0001f08d2d,20,2022-02-12_17h07.02.892,lexical_decision_task_DD_L2,2021.2.3,Win32,143.081986,,,,,,,,,,,0.6634,1,,,,,,,,,,,,,,z,1,0.6634,,,,,,,,-0.701851852,-0.087962963,0,0,0,,0,99,99,97,1,CHIDS,HB,old,z,./images/CHIDSHB.png,,,,,,,,,,,,,,,,,,,,,,,,,,,,,,,,,,,
,,,,,,,,,,,,,,,,,5ba849b3a2a1ae0001f08d2d,20,2022-02-12_17h07.02.892,lexical_decision_task_DD_L2,2021.2.3,Win32,143.081986,,,,,,,,,,,0.5412,1,,,,,,,,,,,,,,z,1,0.5412,,,,,,,,-0.701851852,-0.087962963,0,0,0,,0,100,100,89,1,DRIEK,LB,old,z,./images/DRIEKLB.png,,,,,,,,,,,,,,,,,,,,,,,,,,,,,,,,,,,
,,,,,,,,,,,,,,,,,5ba849b3a2a1ae0001f08d2d,20,2022-02-12_17h07.02.892,lexical_decision_task_DD_L2,2021.2.3,Win32,143.081986,,,,,,,,,,,0.5071,1,,,,,,,,,,,,,,m,1,0.5071,,,,,,,,-0.701851852,-0.087962963,0,0,0,,0,101,101,28,1,FALCON,LB,old,m,./images/FALCONLB.png,,,,,,,,,,,,,,,,,,,,,,,,,,,,,,,,,,,
,,,,,,,,,,,,,,,,,5ba849b3a2a1ae0001f08d2d,20,2022-02-12_17h07.02.892,lexical_decision_task_DD_L2,2021.2.3,Win32,143.081986,,,,,,,,,,,0.5418,1,,,,,,,,,,,,,,z,1,0.5418,,,,,,,,-0.701851852,-0.087962963,0,0,0,,0,102,102,144,1,NAIRY,C,old,z,./images/NAIRY.png,,,,,,,,,,,,,,,,,,,,,,,,,,,,,,,,,,,
,,,,,,,,,,,,,,,,,5ba849b3a2a1ae0001f08d2d,20,2022-02-12_17h07.02.892,lexical_decision_task_DD_L2,2021.2.3,Win32,143.081986,,,,,,,,,,,0.6027,1,,,,,,,,,,,,,,z,1,0.6027,,,,,,,,-0.701851852,-0.087962963,0,0,0,,0,103,103,85,1,CHULK,HB,old,z,./images/CHULKHB.png,,,,,,,,,,,,,,,,,,,,,,,,,,,,,,,,,,,
,,,,,,,,,,,,,,,,,5ba849b3a2a1ae0001f08d2d,20,2022-02-12_17h07.02.892,lexical_decision_task_DD_L2,2021.2.3,Win32,143.081986,,,,,,,,,,,0.4376,1,,,,,,,,,,,,,,m,1,0.4376,,,,,,,,-0.701851852,-0.087962963,0,0,0,,0,104,104,41,1,STRING,C,old,m,./images/STRING.png,,,,,,,,,,,,,,,,,,,,,,,,,,,,,,,,,,,
,,,,,,,,,,,,,,,,,5ba849b3a2a1ae0001f08d2d,20,2022-02-12_17h07.02.892,lexical_decision_task_DD_L2,2021.2.3,Win32,143.081986,,,,,,,,,,,0.493,1,,,,,,,,,,,,,,z,1,0.493,,,,,,,,-0.701851852,-0.087962963,0,0,0,,0,105,105,116,1,BALGY,LB,old,z,./images/BALGYLB.png,,,,,,,,,,,,,,,,,,,,,,,,,,,,,,,,,,,
,,,,,,,,,,,,,,,,,5ba849b3a2a1ae0001f08d2d,20,2022-02-12_17h07.02.892,lexical_decision_task_DD_L2,2021.2.3,Win32,143.081986,,,,,,,,,,,0.6518,1,,,,,,,,,,,,,,z,1,0.6518,,,,,,,,-0.701851852,-0.087962963,0,0,0,,0,106,106,156,1,HIXES,C,old,z,./images/HIXES.png,,,,,,,,,,,,,,,,,,,,,,,,,,,,,,,,,,,
,,,,,,,,,,,,,,,,,5ba849b3a2a1ae0001f08d2d,20,2022-02-12_17h07.02.892,lexical_decision_task_DD_L2,2021.2.3,Win32,143.081986,,,,,,,,,,,0.6334,1,,,,,,,,,,,,,,z,1,0.6334,,,,,,,,-0.701851852,-0.087962963,0,0,0,,0,107,107,94,1,BLANS,HB,old,z,./images/BLANSHB.png,,,,,,,,,,,,,,,,,,,,,,,,,,,,,,,,,,,
,,,,,,,,,,,,,,,,,5ba849b3a2a1ae0001f08d2d,20,2022-02-12_17h07.02.892,lexical_decision_task_DD_L2,2021.2.3,Win32,143.081986,,,,,,,,,,,1.2149,1,,,,,,,,,,,,,,m,1,1.2149,,,,,,,,-0.701851852,-0.087962963,0,0,0,,0,108,108,20,1,CRADLE,C,old,m,./images/CRADLE.png,,,,,,,,,,,,,,,,,,,,,,,,,,,,,,,,,,,
,,,,,,,,,,,,,,,,,5ba849b3a2a1ae0001f08d2d,20,2022-02-12_17h07.02.892,lexical_decision_task_DD_L2,2021.2.3,Win32,143.081986,,,,,,,,,,,0.9524,1,,,,,,,,,,,,,,z,1,0.9524,,,,,,,,-0.701851852,-0.087962963,0,0,0,,0,109,109,142,1,PLASK,HB,old,z,./images/PLASKHB.png,,,,,,,,,,,,,,,,,,,,,,,,,,,,,,,,,,,
,,,,,,,,,,,,,,,,,5ba849b3a2a1ae0001f08d2d,20,2022-02-12_17h07.02.892,lexical_decision_task_DD_L2,2021.2.3,Win32,143.081986,,,,,,,,,,,1.1771,1,,,,,,,,,,,,,,m,1,1.1771,,,,,,,,-0.701851852,-0.087962963,0,0,0,,0,110,110,69,1,COOKER,HB,old,m,./images/COOKERHB.png,,,,,,,,,,,,,,,,,,,,,,,,,,,,,,,,,,,
,,,,,,,,,,,,,,,,,5ba849b3a2a1ae0001f08d2d,20,2022-02-12_17h07.02.892,lexical_decision_task_DD_L2,2021.2.3,Win32,143.081986,,,,,,,,,,,0.4666,1,,,,,,,,,,,,,,m,1,0.4666,,,,,,,,-0.701851852,-0.087962963,0,0,0,,0,111,111,42,1,FOLDER,HB,old,m,./images/FOLDERHB.png,,,,,,,,,,,,,,,,,,,,,,,,,,,,,,,,,,,
,,,,,,,,,,,,,,,,,5ba849b3a2a1ae0001f08d2d,20,2022-02-12_17h07.02.892,lexical_decision_task_DD_L2,2021.2.3,Win32,143.081986,,,,,,,,,,,0.4387,1,,,,,,,,,,,,,,m,1,0.4387,,,,,,,,-0.701851852,-0.087962963,0,0,0,,0,112,112,14,1,PICKLE,C,old,m,./images/PICKLE.png,,,,,,,,,,,,,,,,,,,,,,,,,,,,,,,,,,,
,,,,,,,,,,,,,,,,,5ba849b3a2a1ae0001f08d2d,20,2022-02-12_17h07.02.892,lexical_decision_task_DD_L2,2021.2.3,Win32,143.081986,,,,,,,,,,,0.6196,1,,,,,,,,,,,,,,z,1,0.6196,,,,,,,,-0.701851852,-0.087962963,0,0,0,,0,113,113,132,1,SCIFF,C,old,z,./images/SCIFF.png,,,,,,,,,,,,,,,,,,,,,,,,,,,,,,,,,,,
,,,,,,,,,,,,,,,,,5ba849b3a2a1ae0001f08d2d,20,2022-02-12_17h07.02.892,lexical_decision_task_DD_L2,2021.2.3,Win32,143.081986,,,,,,,,,,,0.4926,1,,,,,,,,,,,,,,m,1,0.4926,,,,,,,,-0.701851852,-0.087962963,0,0,0,,0,114,114,37,1,BIRTH,LB,old,m,./images/BIRTHLB.png,,,,,,,,,,,,,,,,,,,,,,,,,,,,,,,,,,,
,,,,,,,,,,,,,,,,,5ba849b3a2a1ae0001f08d2d,20,2022-02-12_17h07.02.892,lexical_decision_task_DD_L2,2021.2.3,Win32,143.081986,,,,,,,,,,,1.1739,0,,,,,,,,,,,,,,z,0,1.1739,,,,,,,,-0.701851852,-0.087962963,0,0,0,,0,115,115,33,1,MAGGOT,HB,old,m,./images/MAGGOTHB.png,,,,,,,,,,,,,,,,,,,,,,,,,,,,,,,,,,,
,,,,,,,,,,,,,,,,,5ba849b3a2a1ae0001f08d2d,20,2022-02-12_17h07.02.892,lexical_decision_task_DD_L2,2021.2.3,Win32,143.081986,,,,,,,,,,,0.6638,1,,,,,,,,,,,,,,z,1,0.6638,,,,,,,,-0.701851852,-0.087962963,0,0,0,,0,116,116,87,1,TRING,C,old,z,./images/TRING.png,,,,,,,,,,,,,,,,,,,,,,,,,,,,,,,,,,,
,,,,,,,,,,,,,,,,,5ba849b3a2a1ae0001f08d2d,20,2022-02-12_17h07.02.892,lexical_decision_task_DD_L2,2021.2.3,Win32,143.081986,,,,,,,,,,,0.4324,1,,,,,,,,,,,,,,m,1,0.4324,,,,,,,,-0.701851852,-0.087962963,0,0,0,,0,117,117,29,1,CRUMB,C,old,m,./images/CRUMB.png,,,,,,,,,,,,,,,,,,,,,,,,,,,,,,,,,,,
,,,,,,,,,,,,,,,,,5ba849b3a2a1ae0001f08d2d,20,2022-02-12_17h07.02.892,lexical_decision_task_DD_L2,2021.2.3,Win32,143.081986,,,,,,,,,,,0.4706,1,,,,,,,,,,,,,,m,1,0.4706,,,,,,,,-0.701851852,-0.087962963,0,0,0,,0,118,118,82,1,SUNSET,LB,old,m,./images/SUNSETLB.png,,,,,,,,,,,,,,,,,,,,,,,,,,,,,,,,,,,
,,,,,,,,,,,,,,,,,5ba849b3a2a1ae0001f08d2d,20,2022-02-12_17h07.02.892,lexical_decision_task_DD_L2,2021.2.3,Win32,143.081986,,,,,,,,,,,0.6144,1,,,,,,,,,,,,,,m,1,0.6144,,,,,,,,-0.701851852,-0.087962963,0,0,0,,0,119,119,81,1,POODLE,HB,old,m,./images/POODLEHB.png,,,,,,,,,,,,,,,,,,,,,,,,,,,,,,,,,,,
,,,,,,,,,,,,,,,,,5ba849b3a2a1ae0001f08d2d,20,2022-02-12_17h07.02.892,lexical_decision_task_DD_L2,2021.2.3,Win32,143.081986,,,,,,,,,,,0.5281,1,,,,,,,,,,,,,,z,1,0.5281,,,,,,,,-0.701851852,-0.087962963,0,0,0,,0,120,120,101,1,GLEET,LB,old,z,./images/GLEETLB.png,,,,,,,,,,,,,,,,,,,,,,,,,,,,,,,,,,,
,,,,,,,,,,,,,,,,,5ba849b3a2a1ae0001f08d2d,20,2022-02-12_17h07.02.892,lexical_decision_task_DD_L2,2021.2.3,Win32,143.081986,,,,,,,,,,,0.5799,1,,,,,,,,,,,,,,m,1,0.5799,,,,,,,,-0.701851852,-0.087962963,0,0,0,,0,121,121,25,1,WRIST,LB,old,m,./images/WRISTLB.png,,,,,,,,,,,,,,,,,,,,,,,,,,,,,,,,,,,
,,,,,,,,,,,,,,,,,5ba849b3a2a1ae0001f08d2d,20,2022-02-12_17h07.02.892,lexical_decision_task_DD_L2,2021.2.3,Win32,143.081986,,,,,,,,,,,0.5751,1,,,,,,,,,,,,,,z,1,0.5751,,,,,,,,-0.701851852,-0.087962963,0,0,0,,0,122,122,152,1,FRAIN,LB,old,z,./images/FRAINLB.png,,,,,,,,,,,,,,,,,,,,,,,,,,,,,,,,,,,
,,,,,,,,,,,,,,,,,5ba849b3a2a1ae0001f08d2d,20,2022-02-12_17h07.02.892,lexical_decision_task_DD_L2,2021.2.3,Win32,143.081986,,,,,,,,,,,0.4514,1,,,,,,,,,,,,,,z,1,0.4514,,,,,,,,-0.701851852,-0.087962963,0,0,0,,0,123,123,86,1,AIFED,LB,old,z,./images/AIFEDLB.png,,,,,,,,,,,,,,,,,,,,,,,,,,,,,,,,,,,
,,,,,,,,,,,,,,,,,5ba849b3a2a1ae0001f08d2d,20,2022-02-12_17h07.02.892,lexical_decision_task_DD_L2,2021.2.3,Win32,143.081986,,,,,,,,,,,0.5634,1,,,,,,,,,,,,,,m,1,0.5634,,,,,,,,-0.701851852,-0.087962963,0,0,0,,0,124,124,27,1,ATTIC,HB,old,m,./images/ATTICHB.png,,,,,,,,,,,,,,,,,,,,,,,,,,,,,,,,,,,
,,,,,,,,,,,,,,,,,5ba849b3a2a1ae0001f08d2d,20,2022-02-12_17h07.02.892,lexical_decision_task_DD_L2,2021.2.3,Win32,143.081986,,,,,,,,,,,0.7681,1,,,,,,,,,,,,,,z,1,0.7681,,,,,,,,-0.701851852,-0.087962963,0,0,0,space,0,125,125,139,1,BLEAR,HB,old,z,./images/BLEARHB.png,0.9003,,,,,,,,,,,,,,,,,,,,,,,,,,,,,,,,,,
,,,,,,,,,,,,,,,,,5ba849b3a2a1ae0001f08d2d,20,2022-02-12_17h07.02.892,lexical_decision_task_DD_L2,2021.2.3,Win32,143.081986,,,,,,,,,,,0.4485,1,,,,,,,,,,,,,,m,1,0.4485,,,,,,,,-0.701851852,-0.087962963,0,0,0,,0,126,126,23,1,WALRUS,C,old,m,./images/WALRUS.png,,,,,,,,,,,,,,,,,,,,,,,,,,,,,,,,,,,
,,,,,,,,,,,,,,,,,5ba849b3a2a1ae0001f08d2d,20,2022-02-12_17h07.02.892,lexical_decision_task_DD_L2,2021.2.3,Win32,143.081986,,,,,,,,,,,0.5033,1,,,,,,,,,,,,,,m,1,0.5033,,,,,,,,-0.701851852,-0.087962963,0,0,0,,0,127,127,63,1,MIRROR,HB,old,m,./images/MIRRORHB.png,,,,,,,,,,,,,,,,,,,,,,,,,,,,,,,,,,,
,,,,,,,,,,,,,,,,,5ba849b3a2a1ae0001f08d2d,20,2022-02-12_17h07.02.892,lexical_decision_task_DD_L2,2021.2.3,Win32,143.081986,,,,,,,,,,,0.4197,0,,,,,,,,,,,,,,m,0,0.4197,,,,,,,,-0.701851852,-0.087962963,0,0,0,,0,128,128,146,1,MOOST,LB,old,z,./images/MOOSTLB.png,,,,,,,,,,,,,,,,,,,,,,,,,,,,,,,,,,,
,,,,,,,,,,,,,,,,,5ba849b3a2a1ae0001f08d2d,20,2022-02-12_17h07.02.892,lexical_decision_task_DD_L2,2021.2.3,Win32,143.081986,,,,,,,,,,,0.5673,1,,,,,,,,,,,,,,z,1,0.5673,,,,,,,,-0.701851852,-0.087962963,0,0,0,,0,129,129,110,1,CRUNK,LB,old,z,./images/CRUNKLB.png,,,,,,,,,,,,,,,,,,,,,,,,,,,,,,,,,,,
,,,,,,,,,,,,,,,,,5ba849b3a2a1ae0001f08d2d,20,2022-02-12_17h07.02.892,lexical_decision_task_DD_L2,2021.2.3,Win32,143.081986,,,,,,,,,,,0.6416,1,,,,,,,,,,,,,,z,1,0.6416,,,,,,,,-0.701851852,-0.087962963,0,0,0,,0,130,130,130,1,CRILL,HB,old,z,./images/CRILLHB.png,,,,,,,,,,,,,,,,,,,,,,,,,,,,,,,,,,,
,,,,,,,,,,,,,,,,,5ba849b3a2a1ae0001f08d2d,20,2022-02-12_17h07.02.892,lexical_decision_task_DD_L2,2021.2.3,Win32,143.081986,,,,,,,,,,,0.5086,1,,,,,,,,,,,,,,m,1,0.5086,,,,,,,,-0.701851852,-0.087962963,0,0,0,,0,131,131,26,1,SMOKER,C,old,m,./images/SMOKER.png,,,,,,,,,,,,,,,,,,,,,,,,,,,,,,,,,,,
,,,,,,,,,,,,,,,,,5ba849b3a2a1ae0001f08d2d,20,2022-02-12_17h07.02.892,lexical_decision_task_DD_L2,2021.2.3,Win32,143.081986,,,,,,,,,,,0.5858,1,,,,,,,,,,,,,,m,1,0.5858,,,,,,,,-0.701851852,-0.087962963,0,0,0,,0,132,132,6,1,SQUARE,HB,old,m,./images/SQUAREHB.png,,,,,,,,,,,,,,,,,,,,,,,,,,,,,,,,,,,
,,,,,,,,,,,,,,,,,5ba849b3a2a1ae0001f08d2d,20,2022-02-12_17h07.02.892,lexical_decision_task_DD_L2,2021.2.3,Win32,143.081986,,,,,,,,,,,0.4465,1,,,,,,,,,,,,,,z,1,0.4465,,,,,,,,-0.701851852,-0.087962963,0,0,0,,0,133,133,99,1,BACKY,C,old,z,./images/BACKY.png,,,,,,,,,,,,,,,,,,,,,,,,,,,,,,,,,,,
,,,,,,,,,,,,,,,,,5ba849b3a2a1ae0001f08d2d,20,2022-02-12_17h07.02.892,lexical_decision_task_DD_L2,2021.2.3,Win32,143.081986,,,,,,,,,,,0.6302,1,,,,,,,,,,,,,,m,1,0.6302,,,,,,,,-0.701851852,-0.087962963,0,0,0,,0,134,134,39,1,SHELF,HB,old,m,./images/SHELFHB.png,,,,,,,,,,,,,,,,,,,,,,,,,,,,,,,,,,,
,,,,,,,,,,,,,,,,,5ba849b3a2a1ae0001f08d2d,20,2022-02-12_17h07.02.892,lexical_decision_task_DD_L2,2021.2.3,Win32,143.081986,,,,,,,,,,,0.5929,1,,,,,,,,,,,,,,m,1,0.5929,,,,,,,,-0.701851852,-0.087962963,0,0,0,,0,135,135,61,1,CANDLE,LB,old,m,./images/CANDLELB.png,,,,,,,,,,,,,,,,,,,,,,,,,,,,,,,,,,,
,,,,,,,,,,,,,,,,,5ba849b3a2a1ae0001f08d2d,20,2022-02-12_17h07.02.892,lexical_decision_task_DD_L2,2021.2.3,Win32,143.081986,,,,,,,,,,,0.4242,1,,,,,,,,,,,,,,z,1,0.4242,,,,,,,,-0.701851852,-0.087962963,0,0,0,,0,136,136,149,1,VEASE,LB,old,z,./images/VEASELB.png,,,,,,,,,,,,,,,,,,,,,,,,,,,,,,,,,,,
,,,,,,,,,,,,,,,,,5ba849b3a2a1ae0001f08d2d,20,2022-02-12_17h07.02.892,lexical_decision_task_DD_L2,2021.2.3,Win32,143.081986,,,,,,,,,,,0.6974,1,,,,,,,,,,,,,,m,1,0.6974,,,,,,,,-0.701851852,-0.087962963,0,0,0,,0,137,137,18,1,JAGUAR,HB,old,m,./images/JAGUARHB.png,,,,,,,,,,,,,,,,,,,,,,,,,,,,,,,,,,,
,,,,,,,,,,,,,,,,,5ba849b3a2a1ae0001f08d2d,20,2022-02-12_17h07.02.892,lexical_decision_task_DD_L2,2021.2.3,Win32,143.081986,,,,,,,,,,,0.4278,1,,,,,,,,,,,,,,z,1,0.4278,,,,,,,,-0.701851852,-0.087962963,0,0,0,,0,138,138,162,1,LEICH,C,old,z,./images/LEICH.png,,,,,,,,,,,,,,,,,,,,,,,,,,,,,,,,,,,
,,,,,,,,,,,,,,,,,5ba849b3a2a1ae0001f08d2d,20,2022-02-12_17h07.02.892,lexical_decision_task_DD_L2,2021.2.3,Win32,143.081986,,,,,,,,,,,0.4608,1,,,,,,,,,,,,,,z,1,0.4608,,,,,,,,-0.701851852,-0.087962963,0,0,0,,0,139,139,123,1,SEDGE,C,old,z,./images/SEDGE.png,,,,,,,,,,,,,,,,,,,,,,,,,,,,,,,,,,,
,,,,,,,,,,,,,,,,,5ba849b3a2a1ae0001f08d2d,20,2022-02-12_17h07.02.892,lexical_decision_task_DD_L2,2021.2.3,Win32,143.081986,,,,,,,,,,,0.5951,1,,,,,,,,,,,,,,m,1,0.5951,,,,,,,,-0.701851852,-0.087962963,0,0,0,,0,140,140,21,1,KIDNEY,HB,old,m,./images/KIDNEYHB.png,,,,,,,,,,,,,,,,,,,,,,,,,,,,,,,,,,,
,,,,,,,,,,,,,,,,,5ba849b3a2a1ae0001f08d2d,20,2022-02-12_17h07.02.892,lexical_decision_task_DD_L2,2021.2.3,Win32,143.081986,,,,,,,,,,,0.5878,0,,,,,,,,,,,,,,z,0,0.5878,,,,,,,,-0.701851852,-0.087962963,0,0,0,,0,141,141,30,1,STORM,HB,old,m,./images/STORMHB.png,,,,,,,,,,,,,,,,,,,,,,,,,,,,,,,,,,,
,,,,,,,,,,,,,,,,,5ba849b3a2a1ae0001f08d2d,20,2022-02-12_17h07.02.892,lexical_decision_task_DD_L2,2021.2.3,Win32,143.081986,,,,,,,,,,,1.3581,1,,,,,,,,,,,,,,m,1,1.3581,,,,,,,,-0.701851852,-0.087962963,0,0,0,,0,142,142,72,1,NOOSE,HB,old,m,./images/NOOSEHB.png,,,,,,,,,,,,,,,,,,,,,,,,,,,,,,,,,,,
,,,,,,,,,,,,,,,,,5ba849b3a2a1ae0001f08d2d,20,2022-02-12_17h07.02.892,lexical_decision_task_DD_L2,2021.2.3,Win32,143.081986,,,,,,,,,,,0.7655,1,,,,,,,,,,,,,,z,1,0.7655,,,,,,,,-0.701851852,-0.087962963,0,0,0,,0,143,143,151,1,TINKY,HB,old,z,./images/TINKYHB.png,,,,,,,,,,,,,,,,,,,,,,,,,,,,,,,,,,,
,,,,,,,,,,,,,,,,,5ba849b3a2a1ae0001f08d2d,20,2022-02-12_17h07.02.892,lexical_decision_task_DD_L2,2021.2.3,Win32,143.081986,,,,,,,,,,,0.4161,1,,,,,,,,,,,,,,m,1,0.4161,,,,,,,,-0.701851852,-0.087962963,0,0,0,,0,144,144,83,1,JUNGLE,C,old,m,./images/JUNGLE.png,,,,,,,,,,,,,,,,,,,,,,,,,,,,,,,,,,,
,,,,,,,,,,,,,,,,,5ba849b3a2a1ae0001f08d2d,20,2022-02-12_17h07.02.892,lexical_decision_task_DD_L2,2021.2.3,Win32,143.081986,,,,,,,,,,,0.479,1,,,,,,,,,,,,,,z,1,0.479,,,,,,,,-0.701851852,-0.087962963,0,0,0,,0,145,145,141,1,PLEET,C,old,z,./images/PLEET.png,,,,,,,,,,,,,,,,,,,,,,,,,,,,,,,,,,,
,,,,,,,,,,,,,,,,,5ba849b3a2a1ae0001f08d2d,20,2022-02-12_17h07.02.892,lexical_decision_task_DD_L2,2021.2.3,Win32,143.081986,,,,,,,,,,,0.5619,1,,,,,,,,,,,,,,z,1,0.5619,,,,,,,,-0.701851852,-0.087962963,0,0,0,,0,146,146,133,1,POWDY,HB,old,z,./images/POWDYHB.png,,,,,,,,,,,,,,,,,,,,,,,,,,,,,,,,,,,
,,,,,,,,,,,,,,,,,5ba849b3a2a1ae0001f08d2d,20,2022-02-12_17h07.02.892,lexical_decision_task_DD_L2,2021.2.3,Win32,143.081986,,,,,,,,,,,0.5905,1,,,,,,,,,,,,,,z,1,0.5905,,,,,,,,-0.701851852,-0.087962963,0,0,0,,0,147,147,98,1,BAMPS,LB,old,z,./images/BAMPSLB.png,,,,,,,,,,,,,,,,,,,,,,,,,,,,,,,,,,,
,,,,,,,,,,,,,,,,,5ba849b3a2a1ae0001f08d2d,20,2022-02-12_17h07.02.892,lexical_decision_task_DD_L2,2021.2.3,Win32,143.081986,,,,,,,,,,,0.6422,1,,,,,,,,,,,,,,z,1,0.6422,,,,,,,,-0.701851852,-0.087962963,0,0,0,,0,148,148,115,1,MAWNS,HB,old,z,./images/MAWNSHB.png,,,,,,,,,,,,,,,,,,,,,,,,,,,,,,,,,,,
,,,,,,,,,,,,,,,,,5ba849b3a2a1ae0001f08d2d,20,2022-02-12_17h07.02.892,lexical_decision_task_DD_L2,2021.2.3,Win32,143.081986,,,,,,,,,,,0.464,1,,,,,,,,,,,,,,m,1,0.464,,,,,,,,-0.701851852,-0.087962963,0,0,0,,0,149,149,3,1,FINGER,HB,old,m,./images/FINGERHB.png,,,,,,,,,,,,,,,,,,,,,,,,,,,,,,,,,,,
,,,,,,,,,,,,,,,,,5ba849b3a2a1ae0001f08d2d,20,2022-02-12_17h07.02.892,lexical_decision_task_DD_L2,2021.2.3,Win32,143.081986,,,,,,,,,,,0.478,1,,,,,,,,,,,,,,m,1,0.478,,,,,,,,-0.701851852,-0.087962963,0,0,0,,0,150,150,76,1,INFANT,LB,old,m,./images/INFANTLB.png,,,,,,,,,,,,,,,,,,,,,,,,,,,,,,,,,,,
,,,,,,,,,,,,,,,,,5ba849b3a2a1ae0001f08d2d,20,2022-02-12_17h07.02.892,lexical_decision_task_DD_L2,2021.2.3,Win32,143.081986,,,,,,,,,,,0.4788,1,,,,,,,,,,,,,,z,1,0.4788,,,,,,,,-0.701851852,-0.087962963,0,0,0,,0,151,151,95,1,HANTY,LB,old,z,./images/HANTYLB.png,,,,,,,,,,,,,,,,,,,,,,,,,,,,,,,,,,,
,,,,,,,,,,,,,,,,,5ba849b3a2a1ae0001f08d2d,20,2022-02-12_17h07.02.892,lexical_decision_task_DD_L2,2021.2.3,Win32,143.081986,,,,,,,,,,,0.4966,1,,,,,,,,,,,,,,m,1,0.4966,,,,,,,,-0.701851852,-0.087962963,0,0,0,,0,152,152,55,1,MUFFIN,LB,old,m,./images/MUFFINLB.png,,,,,,,,,,,,,,,,,,,,,,,,,,,,,,,,,,,
,,,,,,,,,,,,,,,,,5ba849b3a2a1ae0001f08d2d,20,2022-02-12_17h07.02.892,lexical_decision_task_DD_L2,2021.2.3,Win32,143.081986,,,,,,,,,,,0.5276,1,,,,,,,,,,,,,,z,1,0.5276,,,,,,,,-0.701851852,-0.087962963,0,0,0,,0,153,153,127,1,NINDY,HB,old,z,./images/NINDYHB.png,,,,,,,,,,,,,,,,,,,,,,,,,,,,,,,,,,,
,,,,,,,,,,,,,,,,,5ba849b3a2a1ae0001f08d2d,20,2022-02-12_17h07.02.892,lexical_decision_task_DD_L2,2021.2.3,Win32,143.081986,,,,,,,,,,,0.5256,1,,,,,,,,,,,,,,m,1,0.5256,,,,,,,,-0.701851852,-0.087962963,0,0,0,,0,154,154,79,1,CRUST,LB,old,m,./images/CRUSTLB.png,,,,,,,,,,,,,,,,,,,,,,,,,,,,,,,,,,,
,,,,,,,,,,,,,,,,,5ba849b3a2a1ae0001f08d2d,20,2022-02-12_17h07.02.892,lexical_decision_task_DD_L2,2021.2.3,Win32,143.081986,,,,,,,,,,,0.5012,1,,,,,,,,,,,,,,z,1,0.5012,,,,,,,,-0.701851852,-0.087962963,0,0,0,,0,155,155,106,1,CLUMS,HB,old,z,./images/CLUMSHB.png,,,,,,,,,,,,,,,,,,,,,,,,,,,,,,,,,,,
,,,,,,,,,,,,,,,,,5ba849b3a2a1ae0001f08d2d,20,2022-02-12_17h07.02.892,lexical_decision_task_DD_L2,2021.2.3,Win32,143.081986,,,,,,,,,,,0.5718,1,,,,,,,,,,,,,,z,1,0.5718,,,,,,,,-0.701851852,-0.087962963,0,0,0,,0,156,156,105,1,MOKER,C,old,z,./images/MOKER.png,,,,,,,,,,,,,,,,,,,,,,,,,,,,,,,,,,,
,,,,,,,,,,,,,,,,,5ba849b3a2a1ae0001f08d2d,20,2022-02-12_17h07.02.892,lexical_decision_task_DD_L2,2021.2.3,Win32,143.081986,,,,,,,,,,,0.4645,1,,,,,,,,,,,,,,m,1,0.4645,,,,,,,,-0.701851852,-0.087962963,0,0,0,,0,157,157,66,1,SWEAT,HB,old,m,./images/SWEATHB.png,,,,,,,,,,,,,,,,,,,,,,,,,,,,,,,,,,,
,,,,,,,,,,,,,,,,,5ba849b3a2a1ae0001f08d2d,20,2022-02-12_17h07.02.892,lexical_decision_task_DD_L2,2021.2.3,Win32,143.081986,,,,,,,,,,,0.594,1,,,,,,,,,,,,,,z,1,0.594,,,,,,,,-0.701851852,-0.087962963,0,0,0,,0,158,158,136,1,WERVE,HB,old,z,./images/WERVEHB.png,,,,,,,,,,,,,,,,,,,,,,,,,,,,,,,,,,,
,,,,,,,,,,,,,,,,,5ba849b3a2a1ae0001f08d2d,20,2022-02-12_17h07.02.892,lexical_decision_task_DD_L2,2021.2.3,Win32,143.081986,,,,,,,,,,,0.4748,1,,,,,,,,,,,,,,z,1,0.4748,,,,,,,,-0.701851852,-0.087962963,0,0,0,,0,159,159,102,1,DULLE,C,old,z,./images/DULLE.png,,,,,,,,,,,,,,,,,,,,,,,,,,,,,,,,,,,
,,,,,,,,,,,,,,,,,5ba849b3a2a1ae0001f08d2d,20,2022-02-12_17h07.02.892,lexical_decision_task_DD_L2,2021.2.3,Win32,143.081986,,,,,,,,,,,0.4856,1,,,,,,,,,,,,,,m,1,0.4856,,,,,,,,-0.701851852,-0.087962963,0,0,0,,0,160,160,24,1,SCREW,HB,old,m,./images/SCREWHB.png,,,,,,,,,,,,,,,,,,,,,,,,,,,,,,,,,,,
,,,,,,,,,,,,,,,,,5ba849b3a2a1ae0001f08d2d,20,2022-02-12_17h07.02.892,lexical_decision_task_DD_L2,2021.2.3,Win32,143.081986,,,,,,,,,,,0.5054,1,,,,,,,,,,,,,,z,1,0.5054,,,,,,,,-0.701851852,-0.087962963,0,0,0,,0,161,161,138,1,PLICE,C,old,z,./images/PLICE.png,,,,,,,,,,,,,,,,,,,,,,,,,,,,,,,,,,,
,,,,,,,,,,,,,,,,,5ba849b3a2a1ae0001f08d2d,20,2022-02-12_17h07.02.892,lexical_decision_task_DD_L2,2021.2.3,Win32,143.081986,,,,,,,,,,,0.5624,1,,,,,,,,,,,,,,z,1,0.5624,,,,,,,,-0.701851852,-0.087962963,0,0,0,,0,162,162,121,1,CEERS,HB,old,z,./images/CEERSHB.png,,,,,,,,,,,,,,,,,,,,,,,,,,,,,,,,,,,
,,,,,,,,,,,,,,,,,5ba849b3a2a1ae0001f08d2d,20,2022-02-12_17h07.02.892,lexical_decision_task_DD_L2,2021.2.3,Win32,143.081986,,,,,,,,,,,0.6877,1,,,,,,,,,,,,,,z,1,0.6877,,,,,,,,-0.701851852,-0.087962963,0,0,0,,0,163,163,88,1,GLUSH,HB,old,z,./images/GLUSHHB.png,,,,,,,,,,,,,,,,,,,,,,,,,,,,,,,,,,,
,,,,,,,,,,,,,,,,,5ba849b3a2a1ae0001f08d2d,20,2022-02-12_17h07.02.892,lexical_decision_task_DD_L2,2021.2.3,Win32,143.081986,,,,,,,,,,,0.564,1,,,,,,,,,,,,,,z,1,0.564,,,,,,,,-0.701851852,-0.087962963,0,0,0,,0,164,164,122,1,BLOOT,LB,old,z,./images/BLOOTLB.png,,,,,,,,,,,,,,,,,,,,,,,,,,,,,,,,,,,
,,,,,,,,,,,,,,,,,5ba849b3a2a1ae0001f08d2d,20,2022-02-12_17h07.02.892,lexical_decision_task_DD_L2,2021.2.3,Win32,143.081986,,,,,,,,,,,0.5469,1,,,,,,,,,,,,,,m,1,0.5469,,,,,,,,-0.701851852,-0.087962963,0,0,0,,0,165,165,70,1,URINE,LB,old,m,./images/URINELB.png,,,,,,,,,,,,,,,,,,,,,,,,,,,,,,,,,,,
,,,,,,,,,,,,,,,,,5ba849b3a2a1ae0001f08d2d,20,2022-02-12_17h07.02.892,lexical_decision_task_DD_L2,2021.2.3,Win32,143.081986,,,,,,,,,,,0.4352,1,,,,,,,,,,,,,,m,1,0.4352,,,,,,,,-0.701851852,-0.087962963,0,0,0,,0,166,166,44,1,LIZARD,C,old,m,./images/LIZARD.png,,,,,,,,,,,,,,,,,,,,,,,,,,,,,,,,,,,
,,,,,,,,,,,,,,,,,5ba849b3a2a1ae0001f08d2d,20,2022-02-12_17h07.02.892,lexical_decision_task_DD_L2,2021.2.3,Win32,143.081986,,,,,,,,,,,0.7914,1,,,,,,,,,,,,,,m,1,0.7914,,,,,,,,-0.701851852,-0.087962963,0,0,0,,0,167,167,4,1,MUSCLE,LB,old,m,./images/MUSCLELB.png,,,,,,,,,,,,,,,,,,,,,,,,,,,,,,,,,,,
,,,,,,,,,,,,,,,,,5ba849b3a2a1ae0001f08d2d,20,2022-02-12_17h07.02.892,lexical_decision_task_DD_L2,2021.2.3,Win32,143.081986,,,,,,,,,,,,,,,,,,,,,,,,,,,,,,,,,,,,,,,,,,,,,,,,How likely will it be that you will recognize the words presented slighly blurred on a scale of 0 (not likely) to 100 (most likely)?,,,,,-0.000925926,-0.421296296,1,0,0,jol_adv,5,6.3621,0,0,0,1,1,,,,,,,,,,,,,,,,,,,,,
,,,,,,,,,,,,,,,,,5ba849b3a2a1ae0001f08d2d,20,2022-02-12_17h07.02.892,lexical_decision_task_DD_L2,2021.2.3,Win32,143.081986,,,,,,,,,,,,,,,,,,,,,,,,,,,,,,,,,,,,,,,,,,,,,,,,How likely will it be that you will recognize the words presented very blurred on a scale of 0 (not likely) to 100 (most likely)?,,,,,,,,,,,3,4.7481,0,1,1,2,1,,,,,,,,,,,,,,,,,,,,,
,,,,,,,,,,,,,,,,,5ba849b3a2a1ae0001f08d2d,20,2022-02-12_17h07.02.892,lexical_decision_task_DD_L2,2021.2.3,Win32,143.081986,,,,,,,,,,,,,,,,,,,,,,,,,,,,,,,,,,,,,,,,,,,,,,,,How likely will it be that you will recognize the words presented clearly on a scale of 0 (not likely) to 100 (most likely)?,,,,,,,,,,,6,2.1385,0,2,2,0,1,,,,,,,,,,,,,,,,,,,,,
space,8.9273,0.311111111,-0.287962963,0,0,0,,,,,,1,test,"In the next phase you will be presented with the words from the the first phase. Your job is to decide whether you remember seeing the word or not. If you remember seeing the word press ""old"" or type ""m"". If you do not remember seeing the word press ""new"" or type ""z"". Please press the space bar or click on continue to begin. ",,,5ba849b3a2a1ae0001f08d2d,20,2022-02-12_17h07.02.892,lexical_decision_task_DD_L2,2021.2.3,Win32,143.081986,,,,,,,,,,,,,,,,,,,,,,,,,,,,,,,,,,,,,,,,,,,,,,,,,,,,,,,,,,,,,,,,,,0,0,0,0,1,,,,,,,,,,,,,,,,
,,0.090740741,-0.385185185,1,0,0,,,,,,1,test,"In the next phase you will be presented with the words from the the first phase. Your job is to decide whether you remember seeing the word or not. If you remember seeing the word press ""old"" or type ""m"". If you do not remember seeing the word press ""new"" or type ""z"". Please press the space bar or click on continue to begin. ",,,5ba849b3a2a1ae0001f08d2d,20,2022-02-12_17h07.02.892,lexical_decision_task_DD_L2,2021.2.3,Win32,143.081986,,,,,,,,,,,,,,,,,,,,,,,,,,,,,,,,,,,,,,,,,,,,,,,,,,,,,,,,,,,,,,,,,,1,0,1,0,1,instr_done_button,,,,,,,,,,,,,,,
,,0.073148148,-0.383333333,1,0,0,,,,,,1,test,"In the next phase you will be presented with the words from the the first phase. Your job is to decide whether you remember seeing the word or not. If you remember seeing the word press ""old"" or type ""m"". If you do not remember seeing the word press ""new"" or type ""z"". Please press the space bar or click on continue to begin. ",,,5ba849b3a2a1ae0001f08d2d,20,2022-02-12_17h07.02.892,lexical_decision_task_DD_L2,2021.2.3,Win32,143.081986,,,,,,,,,,,,,,,,,,,,,,,,,,,,,,,,,,,,,,,,,,,,,,,,,,,,,,,,,,,,,,,,,,2,0,2,0,1,instr_done_button,,,,,,,,,,,,,,,
space,0.7983,0.32037037,-0.067592593,0,0,0,,,,,,1,test,"In the next phase you will be presented with the words from the the first phase. Your job is to decide whether you remember seeing the word or not. If you remember seeing the word press ""old"" or type ""m"". If you do not remember seeing the word press ""new"" or type ""z"". Please press the space bar or click on continue to begin. ",,,5ba849b3a2a1ae0001f08d2d,20,2022-02-12_17h07.02.892,lexical_decision_task_DD_L2,2021.2.3,Win32,143.081986,,,,,,,,,,,,,,,,,,,,,,,,,,,,,,,,,,,,,,,,,,,,,,,,,,,,,,,,,,,,,,,,,,3,0,3,0,1,,,,,,,,,,,,,,,,
,,0.02962963,-0.406481481,1,0,0,,,,,,1,test,"In the next phase you will be presented with the words from the the first phase. Your job is to decide whether you remember seeing the word or not. If you remember seeing the word press ""old"" or type ""m"". If you do not remember seeing the word press ""new"" or type ""z"". Please press the space bar or click on continue to begin. ",,,5ba849b3a2a1ae0001f08d2d,20,2022-02-12_17h07.02.892,lexical_decision_task_DD_L2,2021.2.3,Win32,143.081986,,,,,,,,,,,,,,,,,,,,,,,,,,,,,,,,,,,,,,,,,,,,,,,,,,,,,,,,,,,,,,,,,,4,0,4,0,1,instr_done_button,,,,,,,,,,,,,,,
,,,,,,,,,,,,,,,,,5ba849b3a2a1ae0001f08d2d,20,2022-02-12_17h07.02.892,lexical_decision_task_DD_L2,2021.2.3,Win32,143.081986,,,,,,,,,,,1.3336,1,,,,,,,,,,,,,,,,,,,,,,,,0.061111111,-0.340740741,0,0,0,,,,,,,BONNET,C,m,y,./images/BONNET.png,,,,,,,,,,,,,,,,,,,,,m,1,1.3336,,,,,,,,0,0,0,11,1
,,,,,,,,,,,,,,,,,5ba849b3a2a1ae0001f08d2d,20,2022-02-12_17h07.02.892,lexical_decision_task_DD_L2,2021.2.3,Win32,143.081986,,,,,,,,,,,0.6807,1,,,,,,,,,,,,,,,,,,,,,,,,0.061111111,-0.340740741,0,0,0,,,,,,,TULIP,C,m,y,./images/TULIP.png,,,,,,,,,,,,,,,,,,,,,m,1,0.6807,,,,,,,,0,1,1,8,1
,,,,,,,,,,,,,,,,,5ba849b3a2a1ae0001f08d2d,20,2022-02-12_17h07.02.892,lexical_decision_task_DD_L2,2021.2.3,Win32,143.081986,,,,,,,,,,,0.4596,0,,,,,,,,,,,,,,,,,,,,,,,,0.061111111,-0.340740741,0,0,0,,,,,,,BASKET,C,z,y,./images/BASKET.png,,,,,,,,,,,,,,,,,,,,,m,0,0.4596,,,,,,,,0,2,2,128,1
,,,,,,,,,,,,,,,,,5ba849b3a2a1ae0001f08d2d,20,2022-02-12_17h07.02.892,lexical_decision_task_DD_L2,2021.2.3,Win32,143.081986,,,,,,,,,,,0.5002,1,,,,,,,,,,,,,,,,,,,,,,,,0.061111111,-0.340740741,0,0,0,,,,,,,JUNGLE,C,m,y,./images/JUNGLE.png,,,,,,,,,,,,,,,,,,,,,m,1,0.5002,,,,,,,,0,3,3,83,1
,,,,,,,,,,,,,,,,,5ba849b3a2a1ae0001f08d2d,20,2022-02-12_17h07.02.892,lexical_decision_task_DD_L2,2021.2.3,Win32,143.081986,,,,,,,,,,,0.7339,1,,,,,,,,,,,,,,,,,,,,,,,,0.061111111,-0.340740741,0,0,0,,,,,,,SHELF,HB,m,y,./images/SHELFHB.png,,,,,,,,,,,,,,,,,,,,,m,1,0.7339,,,,,,,,0,4,4,39,1
,,,,,,,,,,,,,,,,,5ba849b3a2a1ae0001f08d2d,20,2022-02-12_17h07.02.892,lexical_decision_task_DD_L2,2021.2.3,Win32,143.081986,,,,,,,,,,,0.7096,0,,,,,,,,,,,,,,,,,,,,,,,,0.061111111,-0.340740741,0,0,0,,,,,,,SPORT,HB,m,y,./images/SPORTHB.png,,,,,,,,,,,,,,,,,,,,,z,0,0.7096,,,,,,,,0,5,5,48,1
,,,,,,,,,,,,,,,,,5ba849b3a2a1ae0001f08d2d,20,2022-02-12_17h07.02.892,lexical_decision_task_DD_L2,2021.2.3,Win32,143.081986,,,,,,,,,,,1.11,1,,,,,,,,,,,,,,,,,,,,,,,,0.061111111,-0.340740741,0,0,0,,,,,,,BISHOP,LB,z,y,./images/BISHOPLB.png,,,,,,,,,,,,,,,,,,,,,z,1,1.11,,,,,,,,0,6,6,133,1
,,,,,,,,,,,,,,,,,5ba849b3a2a1ae0001f08d2d,20,2022-02-12_17h07.02.892,lexical_decision_task_DD_L2,2021.2.3,Win32,143.081986,,,,,,,,,,,0.6523,1,,,,,,,,,,,,,,,,,,,,,,,,0.061111111,-0.340740741,0,0,0,,,,,,,BERRY,C,m,y,./images/BERRY.png,,,,,,,,,,,,,,,,,,,,,m,1,0.6523,,,,,,,,0,7,7,47,1
,,,,,,,,,,,,,,,,,5ba849b3a2a1ae0001f08d2d,20,2022-02-12_17h07.02.892,lexical_decision_task_DD_L2,2021.2.3,Win32,143.081986,,,,,,,,,,,0.6721,1,,,,,,,,,,,,,,,,,,,,,,,,0.061111111,-0.340740741,0,0,0,,,,,,,PURSE,C,m,y,./images/PURSE.png,,,,,,,,,,,,,,,,,,,,,m,1,0.6721,,,,,,,,0,8,8,62,1
,,,,,,,,,,,,,,,,,5ba849b3a2a1ae0001f08d2d,20,2022-02-12_17h07.02.892,lexical_decision_task_DD_L2,2021.2.3,Win32,143.081986,,,,,,,,,,,0.4611,0,,,,,,,,,,,,,,,,,,,,,,,,0.061111111,-0.340740741,0,0,0,,,,,,,CLOUD,C,z,y,./images/CLOUD.png,,,,,,,,,,,,,,,,,,,,,m,0,0.4611,,,,,,,,0,9,9,110,1
,,,,,,,,,,,,,,,,,5ba849b3a2a1ae0001f08d2d,20,2022-02-12_17h07.02.892,lexical_decision_task_DD_L2,2021.2.3,Win32,143.081986,,,,,,,,,,,0.7426,1,,,,,,,,,,,,,,,,,,,,,,,,0.061111111,-0.340740741,0,0,0,,,,,,,MAMMAL,C,z,y,./images/MAMMAL.png,,,,,,,,,,,,,,,,,,,,,z,1,0.7426,,,,,,,,0,10,10,146,1
,,,,,,,,,,,,,,,,,5ba849b3a2a1ae0001f08d2d,20,2022-02-12_17h07.02.892,lexical_decision_task_DD_L2,2021.2.3,Win32,143.081986,,,,,,,,,,,0.6161,1,,,,,,,,,,,,,,,,,,,,,,,,0.061111111,-0.340740741,0,0,0,,,,,,,PENCE,LB,m,y,./images/PENCELB.png,,,,,,,,,,,,,,,,,,,,,m,1,0.6161,,,,,,,,0,11,11,16,1
,,,,,,,,,,,,,,,,,5ba849b3a2a1ae0001f08d2d,20,2022-02-12_17h07.02.892,lexical_decision_task_DD_L2,2021.2.3,Win32,143.081986,,,,,,,,,,,0.6773,1,,,,,,,,,,,,,,,,,,,,,,,,0.061111111,-0.340740741,0,0,0,,,,,,,MEDAL,C,z,y,./images/MEDAL.png,,,,,,,,,,,,,,,,,,,,,z,1,0.6773,,,,,,,,0,12,12,95,1
,,,,,,,,,,,,,,,,,5ba849b3a2a1ae0001f08d2d,20,2022-02-12_17h07.02.892,lexical_decision_task_DD_L2,2021.2.3,Win32,143.081986,,,,,,,,,,,0.679,0,,,,,,,,,,,,,,,,,,,,,,,,0.061111111,-0.340740741,0,0,0,,,,,,,SUNSET,LB,m,y,./images/SUNSETLB.png,,,,,,,,,,,,,,,,,,,,,z,0,0.679,,,,,,,,0,13,13,82,1
,,,,,,,,,,,,,,,,,5ba849b3a2a1ae0001f08d2d,20,2022-02-12_17h07.02.892,lexical_decision_task_DD_L2,2021.2.3,Win32,143.081986,,,,,,,,,,,0.6851,0,,,,,,,,,,,,,,,,,,,,,,,,0.061111111,-0.340740741,0,0,0,,,,,,,SWEAT,HB,m,y,./images/SWEATHB.png,,,,,,,,,,,,,,,,,,,,,z,0,0.6851,,,,,,,,0,14,14,66,1
,,,,,,,,,,,,,,,,,5ba849b3a2a1ae0001f08d2d,20,2022-02-12_17h07.02.892,lexical_decision_task_DD_L2,2021.2.3,Win32,143.081986,,,,,,,,,,,0.82,1,,,,,,,,,,,,,,,,,,,,,,,,0.061111111,-0.340740741,0,0,0,,,,,,,PACKET,C,m,y,./images/PACKET.png,,,,,,,,,,,,,,,,,,,,,m,1,0.82,,,,,,,,0,15,15,56,1
,,,,,,,,,,,,,,,,,5ba849b3a2a1ae0001f08d2d,20,2022-02-12_17h07.02.892,lexical_decision_task_DD_L2,2021.2.3,Win32,143.081986,,,,,,,,,,,0.7779,0,,,,,,,,,,,,,,,,,,,,,,,,0.061111111,-0.340740741,0,0,0,,,,,,,CHERRY,HB,z,y,./images/CHERRYHB.png,,,,,,,,,,,,,,,,,,,,,m,0,0.7779,,,,,,,,0,16,16,138,1
,,,,,,,,,,,,,,,,,5ba849b3a2a1ae0001f08d2d,20,2022-02-12_17h07.02.892,lexical_decision_task_DD_L2,2021.2.3,Win32,143.081986,,,,,,,,,,,0.6138,1,,,,,,,,,,,,,,,,,,,,,,,,0.061111111,-0.340740741,0,0,0,,,,,,,GRAPE,LB,z,y,./images/GRAPELB.png,,,,,,,,,,,,,,,,,,,,,z,1,0.6138,,,,,,,,0,17,17,100,1
,,,,,,,,,,,,,,,,,5ba849b3a2a1ae0001f08d2d,20,2022-02-12_17h07.02.892,lexical_decision_task_DD_L2,2021.2.3,Win32,143.081986,,,,,,,,,,,0.5777,1,,,,,,,,,,,,,,,,,,,,,,,,0.061111111,-0.340740741,0,0,0,,,,,,,SLOPE,HB,z,y,./images/SLOPEHB.png,,,,,,,,,,,,,,,,,,,,,z,1,0.5777,,,,,,,,0,18,18,114,1
,,,,,,,,,,,,,,,,,5ba849b3a2a1ae0001f08d2d,20,2022-02-12_17h07.02.892,lexical_decision_task_DD_L2,2021.2.3,Win32,143.081986,,,,,,,,,,,0.6052,1,,,,,,,,,,,,,,,,,,,,,,,,0.061111111,-0.340740741,0,0,0,,,,,,,SNACK,LB,m,y,./images/SNACKLB.png,,,,,,,,,,,,,,,,,,,,,m,1,0.6052,,,,,,,,0,19,19,73,1
,,,,,,,,,,,,,,,,,5ba849b3a2a1ae0001f08d2d,20,2022-02-12_17h07.02.892,lexical_decision_task_DD_L2,2021.2.3,Win32,143.081986,,,,,,,,,,,0.8124,0,,,,,,,,,,,,,,,,,,,,,,,,0.061111111,-0.340740741,0,0,0,,,,,,,FLESH,HB,z,y,./images/FLESHHB.png,,,,,,,,,,,,,,,,,,,,,m,0,0.8124,,,,,,,,0,20,20,108,1
,,,,,,,,,,,,,,,,,5ba849b3a2a1ae0001f08d2d,20,2022-02-12_17h07.02.892,lexical_decision_task_DD_L2,2021.2.3,Win32,143.081986,,,,,,,,,,,0.7101,1,,,,,,,,,,,,,,,,,,,,,,,,0.061111111,-0.340740741,0,0,0,,,,,,,BAMBOO,C,z,y,./images/BAMBOO.png,,,,,,,,,,,,,,,,,,,,,z,1,0.7101,,,,,,,,0,21,21,89,1
,,,,,,,,,,,,,,,,,5ba849b3a2a1ae0001f08d2d,20,2022-02-12_17h07.02.892,lexical_decision_task_DD_L2,2021.2.3,Win32,143.081986,,,,,,,,,,,1.7099,1,,,,,,,,,,,,,,,,,,,,,,,,0.061111111,-0.340740741,0,0,0,,,,,,,GRAIN,HB,m,y,./images/GRAINHB.png,,,,,,,,,,,,,,,,,,,,,m,1,1.7099,,,,,,,,0,22,22,75,1
,,,,,,,,,,,,,,,,,5ba849b3a2a1ae0001f08d2d,20,2022-02-12_17h07.02.892,lexical_decision_task_DD_L2,2021.2.3,Win32,143.081986,,,,,,,,,,,0.86,1,,,,,,,,,,,,,,,,,,,,,,,,0.061111111,-0.340740741,0,0,0,,,,,,,BURIAL,C,m,y,./images/BURIAL.png,,,,,,,,,,,,,,,,,,,,,m,1,0.86,,,,,,,,0,23,23,59,1
,,,,,,,,,,,,,,,,,5ba849b3a2a1ae0001f08d2d,20,2022-02-12_17h07.02.892,lexical_decision_task_DD_L2,2021.2.3,Win32,143.081986,,,,,,,,,,,0.7117,0,,,,,,,,,,,,,,,,,,,,,,,,0.061111111,-0.340740741,0,0,0,,,,,,,TWINS,HB,m,y,./images/TWINSHB.png,,,,,,,,,,,,,,,,,,,,,z,0,0.7117,,,,,,,,0,24,24,60,1
,,,,,,,,,,,,,,,,,5ba849b3a2a1ae0001f08d2d,20,2022-02-12_17h07.02.892,lexical_decision_task_DD_L2,2021.2.3,Win32,143.081986,,,,,,,,,,,0.598,1,,,,,,,,,,,,,,,,,,,,,,,,0.061111111,-0.340740741,0,0,0,,,,,,,BANANA,LB,z,y,./images/BANANALB.png,,,,,,,,,,,,,,,,,,,,,z,1,0.598,,,,,,,,0,25,25,154,1
,,,,,,,,,,,,,,,,,5ba849b3a2a1ae0001f08d2d,20,2022-02-12_17h07.02.892,lexical_decision_task_DD_L2,2021.2.3,Win32,143.081986,,,,,,,,,,,0.6403,0,,,,,,,,,,,,,,,,,,,,,,,,0.061111111,-0.340740741,0,0,0,,,,,,,SAILOR,LB,m,y,./images/SAILORLB.png,,,,,,,,,,,,,,,,,,,,,z,0,0.6403,,,,,,,,0,26,26,67,1
,,,,,,,,,,,,,,,,,5ba849b3a2a1ae0001f08d2d,20,2022-02-12_17h07.02.892,lexical_decision_task_DD_L2,2021.2.3,Win32,143.081986,,,,,,,,,,,0.6796,1,,,,,,,,,,,,,,,,,,,,,,,,0.061111111,-0.340740741,0,0,0,,,,,,,INFANT,LB,m,y,./images/INFANTLB.png,,,,,,,,,,,,,,,,,,,,,m,1,0.6796,,,,,,,,0,27,27,76,1
,,,,,,,,,,,,,,,,,5ba849b3a2a1ae0001f08d2d,20,2022-02-12_17h07.02.892,lexical_decision_task_DD_L2,2021.2.3,Win32,143.081986,,,,,,,,,,,0.5691,1,,,,,,,,,,,,,,,,,,,,,,,,0.061111111,-0.340740741,0,0,0,,,,,,,POKER,LB,z,y,./images/POKERLB.png,,,,,,,,,,,,,,,,,,,,,z,1,0.5691,,,,,,,,0,28,28,151,1
,,,,,,,,,,,,,,,,,5ba849b3a2a1ae0001f08d2d,20,2022-02-12_17h07.02.892,lexical_decision_task_DD_L2,2021.2.3,Win32,143.081986,,,,,,,,,,,1.0348,1,,,,,,,,,,,,,,,,,,,,,,,,0.061111111,-0.340740741,0,0,0,,,,,,,HAMMER,HB,z,y,./images/HAMMERHB.png,,,,,,,,,,,,,,,,,,,,,z,1,1.0348,,,,,,,,0,29,29,159,1
,,,,,,,,,,,,,,,,,5ba849b3a2a1ae0001f08d2d,20,2022-02-12_17h07.02.892,lexical_decision_task_DD_L2,2021.2.3,Win32,143.081986,,,,,,,,,,,0.7785,1,,,,,,,,,,,,,,,,,,,,,,,,0.061111111,-0.340740741,0,0,0,,,,,,,RAZOR,LB,z,y,./images/RAZORLB.png,,,,,,,,,,,,,,,,,,,,,z,1,0.7785,,,,,,,,0,30,30,118,1
,,,,,,,,,,,,,,,,,5ba849b3a2a1ae0001f08d2d,20,2022-02-12_17h07.02.892,lexical_decision_task_DD_L2,2021.2.3,Win32,143.081986,,,,,,,,,,,0.6169,1,,,,,,,,,,,,,,,,,,,,,,,,0.061111111,-0.340740741,0,0,0,,,,,,,MELON,LB,m,y,./images/MELONLB.png,,,,,,,,,,,,,,,,,,,,,m,1,0.6169,,,,,,,,0,31,31,22,1
,,,,,,,,,,,,,,,,,5ba849b3a2a1ae0001f08d2d,20,2022-02-12_17h07.02.892,lexical_decision_task_DD_L2,2021.2.3,Win32,143.081986,,,,,,,,,,,1.0324,0,,,,,,,,,,,,,,,,,,,,,,,,0.061111111,-0.340740741,0,0,0,,,,,,,PEARL,LB,m,y,./images/PEARLLB.png,,,,,,,,,,,,,,,,,,,,,z,0,1.0324,,,,,,,,0,32,32,46,1
,,,,,,,,,,,,,,,,,5ba849b3a2a1ae0001f08d2d,20,2022-02-12_17h07.02.892,lexical_decision_task_DD_L2,2021.2.3,Win32,143.081986,,,,,,,,,,,0.7134,1,,,,,,,,,,,,,,,,,,,,,,,,0.061111111,-0.340740741,0,0,0,,,,,,,BLOKE,HB,z,y,./images/BLOKEHB.png,,,,,,,,,,,,,,,,,,,,,z,1,0.7134,,,,,,,,0,33,33,96,1
,,,,,,,,,,,,,,,,,5ba849b3a2a1ae0001f08d2d,20,2022-02-12_17h07.02.892,lexical_decision_task_DD_L2,2021.2.3,Win32,143.081986,,,,,,,,,,,1.2472,1,,,,,,,,,,,,,,,,,,,,,,,,0.061111111,-0.340740741,0,0,0,,,,,,,STATUE,HB,z,y,./images/STATUEHB.png,,,,,,,,,,,,,,,,,,,,,z,1,1.2472,,,,,,,,0,34,34,150,1
,,,,,,,,,,,,,,,,,5ba849b3a2a1ae0001f08d2d,20,2022-02-12_17h07.02.892,lexical_decision_task_DD_L2,2021.2.3,Win32,143.081986,,,,,,,,,,,0.5439,1,,,,,,,,,,,,,,,,,,,,,,,,0.061111111,-0.340740741,0,0,0,,,,,,,STRING,C,m,y,./images/STRING.png,,,,,,,,,,,,,,,,,,,,,m,1,0.5439,,,,,,,,0,35,35,41,1
,,,,,,,,,,,,,,,,,5ba849b3a2a1ae0001f08d2d,20,2022-02-12_17h07.02.892,lexical_decision_task_DD_L2,2021.2.3,Win32,143.081986,,,,,,,,,,,0.6274,1,,,,,,,,,,,,,,,,,,,,,,,,0.061111111,-0.340740741,0,0,0,,,,,,,BOILER,HB,z,y,./images/BOILERHB.png,,,,,,,,,,,,,,,,,,,,,z,1,0.6274,,,,,,,,0,36,36,120,1
,,,,,,,,,,,,,,,,,5ba849b3a2a1ae0001f08d2d,20,2022-02-12_17h07.02.892,lexical_decision_task_DD_L2,2021.2.3,Win32,143.081986,,,,,,,,,,,0.7497,0,,,,,,,,,,,,,,,,,,,,,,,,0.061111111,-0.340740741,0,0,0,,,,,,,KITTEN,HB,m,y,./images/KITTENHB.png,,,,,,,,,,,,,,,,,,,,,z,0,0.7497,,,,,,,,0,37,37,45,1
,,,,,,,,,,,,,,,,,5ba849b3a2a1ae0001f08d2d,20,2022-02-12_17h07.02.892,lexical_decision_task_DD_L2,2021.2.3,Win32,143.081986,,,,,,,,,,,0.7103,0,,,,,,,,,,,,,,,,,,,,,,,,0.061111111,-0.340740741,0,0,0,,,,,,,DOUGH,LB,m,y,./images/DOUGHLB.png,,,,,,,,,,,,,,,,,,,,,z,0,0.7103,,,,,,,,0,38,38,19,1
,,,,,,,,,,,,,,,,,5ba849b3a2a1ae0001f08d2d,20,2022-02-12_17h07.02.892,lexical_decision_task_DD_L2,2021.2.3,Win32,143.081986,,,,,,,,,,,0.5767,1,,,,,,,,,,,,,,,,,,,,,,,,0.061111111,-0.340740741,0,0,0,,,,,,,DONKEY,LB,z,y,./images/DONKEYLB.png,,,,,,,,,,,,,,,,,,,,,z,1,0.5767,,,,,,,,0,39,39,103,1
,,,,,,,,,,,,,,,,,5ba849b3a2a1ae0001f08d2d,20,2022-02-12_17h07.02.892,lexical_decision_task_DD_L2,2021.2.3,Win32,143.081986,,,,,,,,,,,0.6272,1,,,,,,,,,,,,,,,,,,,,,,,,0.061111111,-0.340740741,0,0,0,,,,,,,MUMMY,LB,z,y,./images/MUMMYLB.png,,,,,,,,,,,,,,,,,,,,,z,1,0.6272,,,,,,,,0,40,40,130,1
,,,,,,,,,,,,,,,,,5ba849b3a2a1ae0001f08d2d,20,2022-02-12_17h07.02.892,lexical_decision_task_DD_L2,2021.2.3,Win32,143.081986,,,,,,,,,,,0.5196,1,,,,,,,,,,,,,,,,,,,,,,,,0.061111111,-0.340740741,0,0,0,space,,,,,,CASINO,LB,z,y,./images/CASINOLB.png,0.6194,,,,,,,,,,,,,,,,,,,,z,1,0.5196,,,,,,,,0,41,41,112,1
,,,,,,,,,,,,,,,,,5ba849b3a2a1ae0001f08d2d,20,2022-02-12_17h07.02.892,lexical_decision_task_DD_L2,2021.2.3,Win32,143.081986,,,,,,,,,,,1.7846,1,,,,,,,,,,,,,,,,,,,,,,,,0.061111111,-0.340740741,0,0,0,,,,,,,MALLET,C,m,y,./images/MALLET.png,,,,,,,,,,,,,,,,,,,,,m,1,1.7846,,,,,,,,0,42,42,50,1
,,,,,,,,,,,,,,,,,5ba849b3a2a1ae0001f08d2d,20,2022-02-12_17h07.02.892,lexical_decision_task_DD_L2,2021.2.3,Win32,143.081986,,,,,,,,,,,0.5917,0,,,,,,,,,,,,,,,,,,,,,,,,0.061111111,-0.340740741,0,0,0,,,,,,,WEASEL,C,m,y,./images/WEASEL.png,,,,,,,,,,,,,,,,,,,,,z,0,0.5917,,,,,,,,0,43,43,80,1
,,,,,,,,,,,,,,,,,5ba849b3a2a1ae0001f08d2d,20,2022-02-12_17h07.02.892,lexical_decision_task_DD_L2,2021.2.3,Win32,143.081986,,,,,,,,,,,0.5612,1,,,,,,,,,,,,,,,,,,,,,,,,0.061111111,-0.340740741,0,0,0,,,,,,,DRUMS,LB,m,y,./images/DRUMSLB.png,,,,,,,,,,,,,,,,,,,,,m,1,0.5612,,,,,,,,0,44,44,49,1
,,,,,,,,,,,,,,,,,5ba849b3a2a1ae0001f08d2d,20,2022-02-12_17h07.02.892,lexical_decision_task_DD_L2,2021.2.3,Win32,143.081986,,,,,,,,,,,0.6069,0,,,,,,,,,,,,,,,,,,,,,,,,0.061111111,-0.340740741,0,0,0,,,,,,,COUCH,C,m,y,./images/COUCH.png,,,,,,,,,,,,,,,,,,,,,z,0,0.6069,,,,,,,,0,45,45,77,1
,,,,,,,,,,,,,,,,,5ba849b3a2a1ae0001f08d2d,20,2022-02-12_17h07.02.892,lexical_decision_task_DD_L2,2021.2.3,Win32,143.081986,,,,,,,,,,,0.9529,0,,,,,,,,,,,,,,,,,,,,,,,,0.061111111,-0.340740741,0,0,0,,,,,,,LADDER,C,m,y,./images/LADDER.png,,,,,,,,,,,,,,,,,,,,,z,0,0.9529,,,,,,,,0,46,46,38,1
,,,,,,,,,,,,,,,,,5ba849b3a2a1ae0001f08d2d,20,2022-02-12_17h07.02.892,lexical_decision_task_DD_L2,2021.2.3,Win32,143.081986,,,,,,,,,,,0.6942,0,,,,,,,,,,,,,,,,,,,,,,,,0.061111111,-0.340740741,0,0,0,,,,,,,PASTA,C,m,y,./images/PASTA.png,,,,,,,,,,,,,,,,,,,,,z,0,0.6942,,,,,,,,0,47,47,5,1
,,,,,,,,,,,,,,,,,5ba849b3a2a1ae0001f08d2d,20,2022-02-12_17h07.02.892,lexical_decision_task_DD_L2,2021.2.3,Win32,143.081986,,,,,,,,,,,0.6254,1,,,,,,,,,,,,,,,,,,,,,,,,0.061111111,-0.340740741,0,0,0,,,,,,,BRIDE,LB,z,y,./images/BRIDELB.png,,,,,,,,,,,,,,,,,,,,,z,1,0.6254,,,,,,,,0,48,48,148,1
,,,,,,,,,,,,,,,,,5ba849b3a2a1ae0001f08d2d,20,2022-02-12_17h07.02.892,lexical_decision_task_DD_L2,2021.2.3,Win32,143.081986,,,,,,,,,,,0.5779,1,,,,,,,,,,,,,,,,,,,,,,,,0.061111111,-0.340740741,0,0,0,,,,,,,CANDLE,LB,m,y,./images/CANDLELB.png,,,,,,,,,,,,,,,,,,,,,m,1,0.5779,,,,,,,,0,49,49,61,1
,,,,,,,,,,,,,,,,,5ba849b3a2a1ae0001f08d2d,20,2022-02-12_17h07.02.892,lexical_decision_task_DD_L2,2021.2.3,Win32,143.081986,,,,,,,,,,,0.6835,1,,,,,,,,,,,,,,,,,,,,,,,,0.061111111,-0.340740741,0,0,0,,,,,,,PARADE,C,z,y,./images/PARADE.png,,,,,,,,,,,,,,,,,,,,,z,1,0.6835,,,,,,,,0,50,50,101,1
,,,,,,,,,,,,,,,,,5ba849b3a2a1ae0001f08d2d,20,2022-02-12_17h07.02.892,lexical_decision_task_DD_L2,2021.2.3,Win32,143.081986,,,,,,,,,,,0.6471,1,,,,,,,,,,,,,,,,,,,,,,,,0.061111111,-0.340740741,0,0,0,,,,,,,CLOTH,C,z,y,./images/CLOTH.png,,,,,,,,,,,,,,,,,,,,,z,1,0.6471,,,,,,,,0,51,51,107,1
,,,,,,,,,,,,,,,,,5ba849b3a2a1ae0001f08d2d,20,2022-02-12_17h07.02.892,lexical_decision_task_DD_L2,2021.2.3,Win32,143.081986,,,,,,,,,,,0.6407,1,,,,,,,,,,,,,,,,,,,,,,,,0.061111111,-0.340740741,0,0,0,,,,,,,BRUSH,C,z,y,./images/BRUSH.png,,,,,,,,,,,,,,,,,,,,,z,1,0.6407,,,,,,,,0,52,52,143,1
,,,,,,,,,,,,,,,,,5ba849b3a2a1ae0001f08d2d,20,2022-02-12_17h07.02.892,lexical_decision_task_DD_L2,2021.2.3,Win32,143.081986,,,,,,,,,,,0.6726,1,,,,,,,,,,,,,,,,,,,,,,,,0.061111111,-0.340740741,0,0,0,,,,,,,PISTOL,C,z,y,./images/PISTOL.png,,,,,,,,,,,,,,,,,,,,,z,1,0.6726,,,,,,,,0,53,53,113,1
,,,,,,,,,,,,,,,,,5ba849b3a2a1ae0001f08d2d,20,2022-02-12_17h07.02.892,lexical_decision_task_DD_L2,2021.2.3,Win32,143.081986,,,,,,,,,,,0.7137,1,,,,,,,,,,,,,,,,,,,,,,,,0.061111111,-0.340740741,0,0,0,,,,,,,GLOVE,LB,z,y,./images/GLOVELB.png,,,,,,,,,,,,,,,,,,,,,z,1,0.7137,,,,,,,,0,54,54,157,1
,,,,,,,,,,,,,,,,,5ba849b3a2a1ae0001f08d2d,20,2022-02-12_17h07.02.892,lexical_decision_task_DD_L2,2021.2.3,Win32,143.081986,,,,,,,,,,,1.0463,1,,,,,,,,,,,,,,,,,,,,,,,,0.061111111,-0.340740741,0,0,0,,,,,,,WHEEL,C,z,y,./images/WHEEL.png,,,,,,,,,,,,,,,,,,,,,z,1,1.0463,,,,,,,,0,55,55,161,1
,,,,,,,,,,,,,,,,,5ba849b3a2a1ae0001f08d2d,20,2022-02-12_17h07.02.892,lexical_decision_task_DD_L2,2021.2.3,Win32,143.081986,,,,,,,,,,,0.6465,0,,,,,,,,,,,,,,,,,,,,,,,,0.061111111,-0.340740741,0,0,0,,,,,,,CRUMB,C,m,y,./images/CRUMB.png,,,,,,,,,,,,,,,,,,,,,z,0,0.6465,,,,,,,,0,56,56,29,1
,,,,,,,,,,,,,,,,,5ba849b3a2a1ae0001f08d2d,20,2022-02-12_17h07.02.892,lexical_decision_task_DD_L2,2021.2.3,Win32,143.081986,,,,,,,,,,,0.558,1,,,,,,,,,,,,,,,,,,,,,,,,0.061111111,-0.340740741,0,0,0,,,,,,,SHORE,HB,m,y,./images/SHOREHB.png,,,,,,,,,,,,,,,,,,,,,m,1,0.558,,,,,,,,0,57,57,12,1
,,,,,,,,,,,,,,,,,5ba849b3a2a1ae0001f08d2d,20,2022-02-12_17h07.02.892,lexical_decision_task_DD_L2,2021.2.3,Win32,143.081986,,,,,,,,,,,0.5978,1,,,,,,,,,,,,,,,,,,,,,,,,0.061111111,-0.340740741,0,0,0,,,,,,,VALLEY,C,z,y,./images/VALLEY.png,,,,,,,,,,,,,,,,,,,,,z,1,0.5978,,,,,,,,0,58,58,152,1
,,,,,,,,,,,,,,,,,5ba849b3a2a1ae0001f08d2d,20,2022-02-12_17h07.02.892,lexical_decision_task_DD_L2,2021.2.3,Win32,143.081986,,,,,,,,,,,0.8778,0,,,,,,,,,,,,,,,,,,,,,,,,0.061111111,-0.340740741,0,0,0,,,,,,,BABOON,LB,m,y,./images/BABOONLB.png,,,,,,,,,,,,,,,,,,,,,z,0,0.8778,,,,,,,,0,59,59,58,1
,,,,,,,,,,,,,,,,,5ba849b3a2a1ae0001f08d2d,20,2022-02-12_17h07.02.892,lexical_decision_task_DD_L2,2021.2.3,Win32,143.081986,,,,,,,,,,,0.8765,1,,,,,,,,,,,,,,,,,,,,,,,,0.061111111,-0.340740741,0,0,0,,,,,,,STORM,HB,m,y,./images/STORMHB.png,,,,,,,,,,,,,,,,,,,,,m,1,0.8765,,,,,,,,0,60,60,30,1
,,,,,,,,,,,,,,,,,5ba849b3a2a1ae0001f08d2d,20,2022-02-12_17h07.02.892,lexical_decision_task_DD_L2,2021.2.3,Win32,143.081986,,,,,,,,,,,0.9394,1,,,,,,,,,,,,,,,,,,,,,,,,0.061111111,-0.340740741,0,0,0,,,,,,,LITTER,HB,m,y,./images/LITTERHB.png,,,,,,,,,,,,,,,,,,,,,m,1,0.9394,,,,,,,,0,61,61,78,1
,,,,,,,,,,,,,,,,,5ba849b3a2a1ae0001f08d2d,20,2022-02-12_17h07.02.892,lexical_decision_task_DD_L2,2021.2.3,Win32,143.081986,,,,,,,,,,,0.6022,1,,,,,,,,,,,,,,,,,,,,,,,,0.061111111,-0.340740741,0,0,0,,,,,,,SHIELD,HB,z,y,./images/SHIELDHB.png,,,,,,,,,,,,,,,,,,,,,z,1,0.6022,,,,,,,,0,62,62,132,1
,,,,,,,,,,,,,,,,,5ba849b3a2a1ae0001f08d2d,20,2022-02-12_17h07.02.892,lexical_decision_task_DD_L2,2021.2.3,Win32,143.081986,,,,,,,,,,,0.65,1,,,,,,,,,,,,,,,,,,,,,,,,0.061111111,-0.340740741,0,0,0,,,,,,,NOOSE,HB,m,y,./images/NOOSEHB.png,,,,,,,,,,,,,,,,,,,,,m,1,0.65,,,,,,,,0,63,63,72,1
,,,,,,,,,,,,,,,,,5ba849b3a2a1ae0001f08d2d,20,2022-02-12_17h07.02.892,lexical_decision_task_DD_L2,2021.2.3,Win32,143.081986,,,,,,,,,,,0.5976,1,,,,,,,,,,,,,,,,,,,,,,,,0.061111111,-0.340740741,0,0,0,,,,,,,DIVER,HB,z,y,./images/DIVERHB.png,,,,,,,,,,,,,,,,,,,,,z,1,0.5976,,,,,,,,0,64,64,93,1
,,,,,,,,,,,,,,,,,5ba849b3a2a1ae0001f08d2d,20,2022-02-12_17h07.02.892,lexical_decision_task_DD_L2,2021.2.3,Win32,143.081986,,,,,,,,,,,0.5428,1,,,,,,,,,,,,,,,,,,,,,,,,0.061111111,-0.340740741,0,0,0,,,,,,,TIGER,LB,z,y,./images/TIGERLB.png,,,,,,,,,,,,,,,,,,,,,z,1,0.5428,,,,,,,,0,65,65,121,1
,,,,,,,,,,,,,,,,,5ba849b3a2a1ae0001f08d2d,20,2022-02-12_17h07.02.892,lexical_decision_task_DD_L2,2021.2.3,Win32,143.081986,,,,,,,,,,,0.4962,1,,,,,,,,,,,,,,,,,,,,,,,,0.061111111,-0.340740741,0,0,0,,,,,,,BROOM,HB,z,y,./images/BROOMHB.png,,,,,,,,,,,,,,,,,,,,,z,1,0.4962,,,,,,,,0,66,66,162,1
,,,,,,,,,,,,,,,,,5ba849b3a2a1ae0001f08d2d,20,2022-02-12_17h07.02.892,lexical_decision_task_DD_L2,2021.2.3,Win32,143.081986,,,,,,,,,,,0.5828,1,,,,,,,,,,,,,,,,,,,,,,,,0.061111111,-0.340740741,0,0,0,,,,,,,BARREL,C,m,y,./images/BARREL.png,,,,,,,,,,,,,,,,,,,,,m,1,0.5828,,,,,,,,0,67,67,32,1
,,,,,,,,,,,,,,,,,5ba849b3a2a1ae0001f08d2d,20,2022-02-12_17h07.02.892,lexical_decision_task_DD_L2,2021.2.3,Win32,143.081986,,,,,,,,,,,0.5728,1,,,,,,,,,,,,,,,,,,,,,,,,0.061111111,-0.340740741,0,0,0,,,,,,,HEATER,C,z,y,./images/HEATER.png,,,,,,,,,,,,,,,,,,,,,z,1,0.5728,,,,,,,,0,68,68,140,1
,,,,,,,,,,,,,,,,,5ba849b3a2a1ae0001f08d2d,20,2022-02-12_17h07.02.892,lexical_decision_task_DD_L2,2021.2.3,Win32,143.081986,,,,,,,,,,,0.543,0,,,,,,,,,,,,,,,,,,,,,,,,0.061111111,-0.340740741,0,0,0,,,,,,,ONION,HB,m,y,./images/ONIONHB.png,,,,,,,,,,,,,,,,,,,,,z,0,0.543,,,,,,,,0,69,69,51,1
,,,,,,,,,,,,,,,,,5ba849b3a2a1ae0001f08d2d,20,2022-02-12_17h07.02.892,lexical_decision_task_DD_L2,2021.2.3,Win32,143.081986,,,,,,,,,,,1.1901,0,,,,,,,,,,,,,,,,,,,,,,,,0.061111111,-0.340740741,0,0,0,,,,,,,BUNNY,LB,z,y,./images/BUNNYLB.png,,,,,,,,,,,,,,,,,,,,,m,0,1.1901,,,,,,,,0,70,70,97,1
,,,,,,,,,,,,,,,,,5ba849b3a2a1ae0001f08d2d,20,2022-02-12_17h07.02.892,lexical_decision_task_DD_L2,2021.2.3,Win32,143.081986,,,,,,,,,,,0.6204,1,,,,,,,,,,,,,,,,,,,,,,,,0.061111111,-0.340740741,0,0,0,,,,,,,CHALK,LB,z,y,./images/CHALKLB.png,,,,,,,,,,,,,,,,,,,,,z,1,0.6204,,,,,,,,0,71,71,109,1
,,,,,,,,,,,,,,,,,5ba849b3a2a1ae0001f08d2d,20,2022-02-12_17h07.02.892,lexical_decision_task_DD_L2,2021.2.3,Win32,143.081986,,,,,,,,,,,0.6201,1,,,,,,,,,,,,,,,,,,,,,,,,0.061111111,-0.340740741,0,0,0,,,,,,,SMOKER,C,m,y,./images/SMOKER.png,,,,,,,,,,,,,,,,,,,,,m,1,0.6201,,,,,,,,0,72,72,26,1
,,,,,,,,,,,,,,,,,5ba849b3a2a1ae0001f08d2d,20,2022-02-12_17h07.02.892,lexical_decision_task_DD_L2,2021.2.3,Win32,143.081986,,,,,,,,,,,0.7564,0,,,,,,,,,,,,,,,,,,,,,,,,0.061111111,-0.340740741,0,0,0,,,,,,,THROAT,HB,m,y,./images/THROATHB.png,,,,,,,,,,,,,,,,,,,,,z,0,0.7564,,,,,,,,0,73,73,36,1
,,,,,,,,,,,,,,,,,5ba849b3a2a1ae0001f08d2d,20,2022-02-12_17h07.02.892,lexical_decision_task_DD_L2,2021.2.3,Win32,143.081986,,,,,,,,,,,0.7384,0,,,,,,,,,,,,,,,,,,,,,,,,0.061111111,-0.340740741,0,0,0,,,,,,,WALRUS,C,m,y,./images/WALRUS.png,,,,,,,,,,,,,,,,,,,,,z,0,0.7384,,,,,,,,0,74,74,23,1
,,,,,,,,,,,,,,,,,5ba849b3a2a1ae0001f08d2d,20,2022-02-12_17h07.02.892,lexical_decision_task_DD_L2,2021.2.3,Win32,143.081986,,,,,,,,,,,0.4895,0,,,,,,,,,,,,,,,,,,,,,,,,0.061111111,-0.340740741,0,0,0,,,,,,,RHINO,HB,m,y,./images/RHINOHB.png,,,,,,,,,,,,,,,,,,,,,z,0,0.4895,,,,,,,,0,75,75,9,1
,,,,,,,,,,,,,,,,,5ba849b3a2a1ae0001f08d2d,20,2022-02-12_17h07.02.892,lexical_decision_task_DD_L2,2021.2.3,Win32,143.081986,,,,,,,,,,,0.6885,1,,,,,,,,,,,,,,,,,,,,,,,,0.061111111,-0.340740741,0,0,0,,,,,,,PAINT,LB,m,y,./images/PAINTLB.png,,,,,,,,,,,,,,,,,,,,,m,1,0.6885,,,,,,,,0,76,76,7,1
,,,,,,,,,,,,,,,,,5ba849b3a2a1ae0001f08d2d,20,2022-02-12_17h07.02.892,lexical_decision_task_DD_L2,2021.2.3,Win32,143.081986,,,,,,,,,,,0.6466,1,,,,,,,,,,,,,,,,,,,,,,,,0.061111111,-0.340740741,0,0,0,,,,,,,STEAK,LB,z,y,./images/STEAKLB.png,,,,,,,,,,,,,,,,,,,,,z,1,0.6466,,,,,,,,0,77,77,115,1
,,,,,,,,,,,,,,,,,5ba849b3a2a1ae0001f08d2d,20,2022-02-12_17h07.02.892,lexical_decision_task_DD_L2,2021.2.3,Win32,143.081986,,,,,,,,,,,2.9263,1,,,,,,,,,,,,,,,,,,,,,,,,0.061111111,-0.340740741,0,0,0,,,,,,,DESERT,LB,z,y,./images/DESERTLB.png,,,,,,,,,,,,,,,,,,,,,z,1,2.9263,,,,,,,,0,78,78,136,1
,,,,,,,,,,,,,,,,,5ba849b3a2a1ae0001f08d2d,20,2022-02-12_17h07.02.892,lexical_decision_task_DD_L2,2021.2.3,Win32,143.081986,,,,,,,,,,,0.7709,1,,,,,,,,,,,,,,,,,,,,,,,,0.061111111,-0.340740741,0,0,0,,,,,,,TOMATO,HB,m,y,./images/TOMATOHB.png,,,,,,,,,,,,,,,,,,,,,m,1,0.7709,,,,,,,,0,79,79,0,1
,,,,,,,,,,,,,,,,,5ba849b3a2a1ae0001f08d2d,20,2022-02-12_17h07.02.892,lexical_decision_task_DD_L2,2021.2.3,Win32,143.081986,,,,,,,,,,,0.6466,0,,,,,,,,,,,,,,,,,,,,,,,,0.061111111,-0.340740741,0,0,0,,,,,,,FENCE,C,z,y,./images/FENCE.png,,,,,,,,,,,,,,,,,,,,,m,0,0.6466,,,,,,,,0,80,80,98,1
,,,,,,,,,,,,,,,,,5ba849b3a2a1ae0001f08d2d,20,2022-02-12_17h07.02.892,lexical_decision_task_DD_L2,2021.2.3,Win32,143.081986,,,,,,,,,,,0.5269,0,,,,,,,,,,,,,,,,,,,,,,,,0.061111111,-0.340740741,0,0,0,,,,,,,JELLY,LB,m,y,./images/JELLYLB.png,,,,,,,,,,,,,,,,,,,,,z,0,0.5269,,,,,,,,0,81,81,64,1
,,,,,,,,,,,,,,,,,5ba849b3a2a1ae0001f08d2d,20,2022-02-12_17h07.02.892,lexical_decision_task_DD_L2,2021.2.3,Win32,143.081986,,,,,,,,,,,0.9398,1,,,,,,,,,,,,,,,,,,,,,,,,0.061111111,-0.340740741,0,0,0,,,,,,,PEACH,C,m,y,./images/PEACH.png,,,,,,,,,,,,,,,,,,,,,m,1,0.9398,,,,,,,,0,82,82,35,1
,,,,,,,,,,,,,,,,,5ba849b3a2a1ae0001f08d2d,20,2022-02-12_17h07.02.892,lexical_decision_task_DD_L2,2021.2.3,Win32,143.081986,,,,,,,,,,,0.5386,1,,,,,,,,,,,,,,,,,,,,,,,,0.061111111,-0.340740741,0,0,0,space,,,,,,PEBBLE,LB,z,y,./images/PEBBLELB.png,0.7529,,,,,,,,,,,,,,,,,,,,z,1,0.5386,,,,,,,,0,83,83,166,1
,,,,,,,,,,,,,,,,,5ba849b3a2a1ae0001f08d2d,20,2022-02-12_17h07.02.892,lexical_decision_task_DD_L2,2021.2.3,Win32,143.081986,,,,,,,,,,,2.2463,1,,,,,,,,,,,,,,,,,,,,,,,,0.061111111,-0.340740741,0,0,0,,,,,,,POSTER,C,z,y,./images/POSTER.png,,,,,,,,,,,,,,,,,,,,,z,1,2.2463,,,,,,,,0,84,84,137,1
,,,,,,,,,,,,,,,,,5ba849b3a2a1ae0001f08d2d,20,2022-02-12_17h07.02.892,lexical_decision_task_DD_L2,2021.2.3,Win32,143.081986,,,,,,,,,,,0.6355,1,,,,,,,,,,,,,,,,,,,,,,,,0.061111111,-0.340740741,0,0,0,,,,,,,COLLAR,HB,z,y,./images/COLLARHB.png,,,,,,,,,,,,,,,,,,,,,z,1,0.6355,,,,,,,,0,85,85,99,1
,,,,,,,,,,,,,,,,,5ba849b3a2a1ae0001f08d2d,20,2022-02-12_17h07.02.892,lexical_decision_task_DD_L2,2021.2.3,Win32,143.081986,,,,,,,,,,,0.5566,1,,,,,,,,,,,,,,,,,,,,,,,,0.061111111,-0.340740741,0,0,0,,,,,,,SAUNA,HB,z,y,./images/SAUNAHB.png,,,,,,,,,,,,,,,,,,,,,z,1,0.5566,,,,,,,,0,86,86,117,1
,,,,,,,,,,,,,,,,,5ba849b3a2a1ae0001f08d2d,20,2022-02-12_17h07.02.892,lexical_decision_task_DD_L2,2021.2.3,Win32,143.081986,,,,,,,,,,,0.8541,1,,,,,,,,,,,,,,,,,,,,,,,,0.061111111,-0.340740741,0,0,0,,,,,,,QUILL,LB,m,y,./images/QUILLLB.png,,,,,,,,,,,,,,,,,,,,,m,1,0.8541,,,,,,,,0,87,87,31,1
,,,,,,,,,,,,,,,,,5ba849b3a2a1ae0001f08d2d,20,2022-02-12_17h07.02.892,lexical_decision_task_DD_L2,2021.2.3,Win32,143.081986,,,,,,,,,,,0.621,1,,,,,,,,,,,,,,,,,,,,,,,,0.061111111,-0.340740741,0,0,0,,,,,,,BEARD,C,m,y,./images/BEARD.png,,,,,,,,,,,,,,,,,,,,,m,1,0.621,,,,,,,,0,88,88,2,1
,,,,,,,,,,,,,,,,,5ba849b3a2a1ae0001f08d2d,20,2022-02-12_17h07.02.892,lexical_decision_task_DD_L2,2021.2.3,Win32,143.081986,,,,,,,,,,,0.6305,0,,,,,,,,,,,,,,,,,,,,,,,,0.061111111,-0.340740741,0,0,0,,,,,,,SWING,LB,m,y,./images/SWINGLB.png,,,,,,,,,,,,,,,,,,,,,z,0,0.6305,,,,,,,,0,89,89,40,1
,,,,,,,,,,,,,,,,,5ba849b3a2a1ae0001f08d2d,20,2022-02-12_17h07.02.892,lexical_decision_task_DD_L2,2021.2.3,Win32,143.081986,,,,,,,,,,,1.0034,0,,,,,,,,,,,,,,,,,,,,,,,,0.061111111,-0.340740741,0,0,0,,,,,,,CANYON,LB,m,y,./images/CANYONLB.png,,,,,,,,,,,,,,,,,,,,,z,0,1.0034,,,,,,,,0,90,90,34,1
,,,,,,,,,,,,,,,,,5ba849b3a2a1ae0001f08d2d,20,2022-02-12_17h07.02.892,lexical_decision_task_DD_L2,2021.2.3,Win32,143.081986,,,,,,,,,,,0.7288,1,,,,,,,,,,,,,,,,,,,,,,,,0.061111111,-0.340740741,0,0,0,,,,,,,JUMPER,C,z,y,./images/JUMPER.png,,,,,,,,,,,,,,,,,,,,,z,1,0.7288,,,,,,,,0,91,91,158,1
,,,,,,,,,,,,,,,,,5ba849b3a2a1ae0001f08d2d,20,2022-02-12_17h07.02.892,lexical_decision_task_DD_L2,2021.2.3,Win32,143.081986,,,,,,,,,,,0.5775,1,,,,,,,,,,,,,,,,,,,,,,,,0.061111111,-0.340740741,0,0,0,,,,,,,PARCEL,HB,z,y,./images/PARCELHB.png,,,,,,,,,,,,,,,,,,,,,z,1,0.5775,,,,,,,,0,92,92,102,1
,,,,,,,,,,,,,,,,,5ba849b3a2a1ae0001f08d2d,20,2022-02-12_17h07.02.892,lexical_decision_task_DD_L2,2021.2.3,Win32,143.081986,,,,,,,,,,,0.7422,1,,,,,,,,,,,,,,,,,,,,,,,,0.061111111,-0.340740741,0,0,0,,,,,,,MOOSE,HB,m,y,./images/MOOSEHB.png,,,,,,,,,,,,,,,,,,,,,m,1,0.7422,,,,,,,,0,93,93,57,1
,,,,,,,,,,,,,,,,,5ba849b3a2a1ae0001f08d2d,20,2022-02-12_17h07.02.892,lexical_decision_task_DD_L2,2021.2.3,Win32,143.081986,,,,,,,,,,,0.7369,0,,,,,,,,,,,,,,,,,,,,,,,,0.061111111,-0.340740741,0,0,0,,,,,,,SAUCE,HB,z,y,./images/SAUCEHB.png,,,,,,,,,,,,,,,,,,,,,m,0,0.7369,,,,,,,,0,94,94,135,1
,,,,,,,,,,,,,,,,,5ba849b3a2a1ae0001f08d2d,20,2022-02-12_17h07.02.892,lexical_decision_task_DD_L2,2021.2.3,Win32,143.081986,,,,,,,,,,,0.6697,1,,,,,,,,,,,,,,,,,,,,,,,,0.061111111,-0.340740741,0,0,0,,,,,,,CARPET,C,m,y,./images/CARPET.png,,,,,,,,,,,,,,,,,,,,,m,1,0.6697,,,,,,,,0,95,95,53,1
,,,,,,,,,,,,,,,,,5ba849b3a2a1ae0001f08d2d,20,2022-02-12_17h07.02.892,lexical_decision_task_DD_L2,2021.2.3,Win32,143.081986,,,,,,,,,,,0.64,1,,,,,,,,,,,,,,,,,,,,,,,,0.061111111,-0.340740741,0,0,0,,,,,,,CURRY,HB,z,y,./images/CURRYHB.png,,,,,,,,,,,,,,,,,,,,,z,1,0.64,,,,,,,,0,96,96,144,1
,,,,,,,,,,,,,,,,,5ba849b3a2a1ae0001f08d2d,20,2022-02-12_17h07.02.892,lexical_decision_task_DD_L2,2021.2.3,Win32,143.081986,,,,,,,,,,,0.5169,1,,,,,,,,,,,,,,,,,,,,,,,,0.061111111,-0.340740741,0,0,0,,,,,,,GRANNY,C,z,y,./images/GRANNY.png,,,,,,,,,,,,,,,,,,,,,z,1,0.5169,,,,,,,,0,97,97,104,1
,,,,,,,,,,,,,,,,,5ba849b3a2a1ae0001f08d2d,20,2022-02-12_17h07.02.892,lexical_decision_task_DD_L2,2021.2.3,Win32,143.081986,,,,,,,,,,,0.5667,1,,,,,,,,,,,,,,,,,,,,,,,,0.061111111,-0.340740741,0,0,0,,,,,,,PLANK,LB,m,y,./images/PLANKLB.png,,,,,,,,,,,,,,,,,,,,,m,1,0.5667,,,,,,,,0,98,98,1,1
,,,,,,,,,,,,,,,,,5ba849b3a2a1ae0001f08d2d,20,2022-02-12_17h07.02.892,lexical_decision_task_DD_L2,2021.2.3,Win32,143.081986,,,,,,,,,,,0.5706,1,,,,,,,,,,,,,,,,,,,,,,,,0.061111111,-0.340740741,0,0,0,,,,,,,LLAMA,C,z,y,./images/LLAMA.png,,,,,,,,,,,,,,,,,,,,,z,1,0.5706,,,,,,,,0,99,99,119,1
,,,,,,,,,,,,,,,,,5ba849b3a2a1ae0001f08d2d,20,2022-02-12_17h07.02.892,lexical_decision_task_DD_L2,2021.2.3,Win32,143.081986,,,,,,,,,,,0.776,1,,,,,,,,,,,,,,,,,,,,,,,,0.061111111,-0.340740741,0,0,0,,,,,,,CLOWN,LB,z,y,./images/CLOWNLB.png,,,,,,,,,,,,,,,,,,,,,z,1,0.776,,,,,,,,0,100,100,106,1
,,,,,,,,,,,,,,,,,5ba849b3a2a1ae0001f08d2d,20,2022-02-12_17h07.02.892,lexical_decision_task_DD_L2,2021.2.3,Win32,143.081986,,,,,,,,,,,0.5399,1,,,,,,,,,,,,,,,,,,,,,,,,0.061111111,-0.340740741,0,0,0,,,,,,,ATTIC,HB,m,y,./images/ATTICHB.png,,,,,,,,,,,,,,,,,,,,,m,1,0.5399,,,,,,,,0,101,101,27,1
,,,,,,,,,,,,,,,,,5ba849b3a2a1ae0001f08d2d,20,2022-02-12_17h07.02.892,lexical_decision_task_DD_L2,2021.2.3,Win32,143.081986,,,,,,,,,,,0.6515,1,,,,,,,,,,,,,,,,,,,,,,,,0.061111111,-0.340740741,0,0,0,,,,,,,CLIFF,C,z,y,./images/CLIFF.png,,,,,,,,,,,,,,,,,,,,,z,1,0.6515,,,,,,,,0,102,102,92,1
,,,,,,,,,,,,,,,,,5ba849b3a2a1ae0001f08d2d,20,2022-02-12_17h07.02.892,lexical_decision_task_DD_L2,2021.2.3,Win32,143.081986,,,,,,,,,,,0.6901,1,,,,,,,,,,,,,,,,,,,,,,,,0.061111111,-0.340740741,0,0,0,,,,,,,SCREW,HB,m,y,./images/SCREWHB.png,,,,,,,,,,,,,,,,,,,,,m,1,0.6901,,,,,,,,0,103,103,24,1
,,,,,,,,,,,,,,,,,5ba849b3a2a1ae0001f08d2d,20,2022-02-12_17h07.02.892,lexical_decision_task_DD_L2,2021.2.3,Win32,143.081986,,,,,,,,,,,0.5922,1,,,,,,,,,,,,,,,,,,,,,,,,0.061111111,-0.340740741,0,0,0,,,,,,,FARMER,C,m,y,./images/FARMER.png,,,,,,,,,,,,,,,,,,,,,m,1,0.5922,,,,,,,,0,104,104,65,1
,,,,,,,,,,,,,,,,,5ba849b3a2a1ae0001f08d2d,20,2022-02-12_17h07.02.892,lexical_decision_task_DD_L2,2021.2.3,Win32,143.081986,,,,,,,,,,,0.9107,0,,,,,,,,,,,,,,,,,,,,,,,,0.061111111,-0.340740741,0,0,0,,,,,,,JAGUAR,HB,m,y,./images/JAGUARHB.png,,,,,,,,,,,,,,,,,,,,,z,0,0.9107,,,,,,,,0,105,105,18,1
,,,,,,,,,,,,,,,,,5ba849b3a2a1ae0001f08d2d,20,2022-02-12_17h07.02.892,lexical_decision_task_DD_L2,2021.2.3,Win32,143.081986,,,,,,,,,,,0.6322,1,,,,,,,,,,,,,,,,,,,,,,,,0.061111111,-0.340740741,0,0,0,,,,,,,FOLDER,HB,m,y,./images/FOLDERHB.png,,,,,,,,,,,,,,,,,,,,,m,1,0.6322,,,,,,,,0,106,106,42,1
,,,,,,,,,,,,,,,,,5ba849b3a2a1ae0001f08d2d,20,2022-02-12_17h07.02.892,lexical_decision_task_DD_L2,2021.2.3,Win32,143.081986,,,,,,,,,,,1.0171,0,,,,,,,,,,,,,,,,,,,,,,,,0.061111111,-0.340740741,0,0,0,,,,,,,MUSCLE,LB,m,y,./images/MUSCLELB.png,,,,,,,,,,,,,,,,,,,,,z,0,1.0171,,,,,,,,0,107,107,4,1
,,,,,,,,,,,,,,,,,5ba849b3a2a1ae0001f08d2d,20,2022-02-12_17h07.02.892,lexical_decision_task_DD_L2,2021.2.3,Win32,143.081986,,,,,,,,,,,0.6136,0,,,,,,,,,,,,,,,,,,,,,,,,0.061111111,-0.340740741,0,0,0,,,,,,,TRIPOD,HB,m,y,./images/TRIPODHB.png,,,,,,,,,,,,,,,,,,,,,z,0,0.6136,,,,,,,,0,108,108,54,1
,,,,,,,,,,,,,,,,,5ba849b3a2a1ae0001f08d2d,20,2022-02-12_17h07.02.892,lexical_decision_task_DD_L2,2021.2.3,Win32,143.081986,,,,,,,,,,,0.6398,1,,,,,,,,,,,,,,,,,,,,,,,,0.061111111,-0.340740741,0,0,0,,,,,,,BANNER,LB,m,y,./images/BANNERLB.png,,,,,,,,,,,,,,,,,,,,,m,1,0.6398,,,,,,,,0,109,109,52,1
,,,,,,,,,,,,,,,,,5ba849b3a2a1ae0001f08d2d,20,2022-02-12_17h07.02.892,lexical_decision_task_DD_L2,2021.2.3,Win32,143.081986,,,,,,,,,,,0.9315,0,,,,,,,,,,,,,,,,,,,,,,,,0.061111111,-0.340740741,0,0,0,,,,,,,CRUST,LB,m,y,./images/CRUSTLB.png,,,,,,,,,,,,,,,,,,,,,z,0,0.9315,,,,,,,,0,110,110,79,1
,,,,,,,,,,,,,,,,,5ba849b3a2a1ae0001f08d2d,20,2022-02-12_17h07.02.892,lexical_decision_task_DD_L2,2021.2.3,Win32,143.081986,,,,,,,,,,,0.7661,1,,,,,,,,,,,,,,,,,,,,,,,,0.061111111,-0.340740741,0,0,0,,,,,,,BUTTER,HB,z,y,./images/BUTTERHB.png,,,,,,,,,,,,,,,,,,,,,z,1,0.7661,,,,,,,,0,111,111,111,1
,,,,,,,,,,,,,,,,,5ba849b3a2a1ae0001f08d2d,20,2022-02-12_17h07.02.892,lexical_decision_task_DD_L2,2021.2.3,Win32,143.081986,,,,,,,,,,,0.7651,0,,,,,,,,,,,,,,,,,,,,,,,,0.061111111,-0.340740741,0,0,0,,,,,,,PICKLE,C,m,y,./images/PICKLE.png,,,,,,,,,,,,,,,,,,,,,z,0,0.7651,,,,,,,,0,112,112,14,1
,,,,,,,,,,,,,,,,,5ba849b3a2a1ae0001f08d2d,20,2022-02-12_17h07.02.892,lexical_decision_task_DD_L2,2021.2.3,Win32,143.081986,,,,,,,,,,,0.6238,1,,,,,,,,,,,,,,,,,,,,,,,,0.061111111,-0.340740741,0,0,0,,,,,,,COOKER,HB,m,y,./images/COOKERHB.png,,,,,,,,,,,,,,,,,,,,,m,1,0.6238,,,,,,,,0,113,113,69,1
,,,,,,,,,,,,,,,,,5ba849b3a2a1ae0001f08d2d,20,2022-02-12_17h07.02.892,lexical_decision_task_DD_L2,2021.2.3,Win32,143.081986,,,,,,,,,,,0.4869,1,,,,,,,,,,,,,,,,,,,,,,,,0.061111111,-0.340740741,0,0,0,,,,,,,LAGOON,C,z,y,./images/LAGOON.png,,,,,,,,,,,,,,,,,,,,,z,1,0.4869,,,,,,,,0,114,114,131,1
,,,,,,,,,,,,,,,,,5ba849b3a2a1ae0001f08d2d,20,2022-02-12_17h07.02.892,lexical_decision_task_DD_L2,2021.2.3,Win32,143.081986,,,,,,,,,,,0.7733,1,,,,,,,,,,,,,,,,,,,,,,,,0.061111111,-0.340740741,0,0,0,,,,,,,CANOE,LB,z,y,./images/CANOELB.png,,,,,,,,,,,,,,,,,,,,,z,1,0.7733,,,,,,,,0,115,115,142,1
,,,,,,,,,,,,,,,,,5ba849b3a2a1ae0001f08d2d,20,2022-02-12_17h07.02.892,lexical_decision_task_DD_L2,2021.2.3,Win32,143.081986,,,,,,,,,,,0.5542,1,,,,,,,,,,,,,,,,,,,,,,,,0.061111111,-0.340740741,0,0,0,,,,,,,PILOT,C,z,y,./images/PILOT.png,,,,,,,,,,,,,,,,,,,,,z,1,0.5542,,,,,,,,0,116,116,134,1
,,,,,,,,,,,,,,,,,5ba849b3a2a1ae0001f08d2d,20,2022-02-12_17h07.02.892,lexical_decision_task_DD_L2,2021.2.3,Win32,143.081986,,,,,,,,,,,0.6376,1,,,,,,,,,,,,,,,,,,,,,,,,0.061111111,-0.340740741,0,0,0,,,,,,,FERRY,HB,z,y,./images/FERRYHB.png,,,,,,,,,,,,,,,,,,,,,z,1,0.6376,,,,,,,,0,117,117,141,1
,,,,,,,,,,,,,,,,,5ba849b3a2a1ae0001f08d2d,20,2022-02-12_17h07.02.892,lexical_decision_task_DD_L2,2021.2.3,Win32,143.081986,,,,,,,,,,,0.5196,0,,,,,,,,,,,,,,,,,,,,,,,,0.061111111,-0.340740741,0,0,0,,,,,,,BIRTH,LB,m,y,./images/BIRTHLB.png,,,,,,,,,,,,,,,,,,,,,z,0,0.5196,,,,,,,,0,118,118,37,1
,,,,,,,,,,,,,,,,,5ba849b3a2a1ae0001f08d2d,20,2022-02-12_17h07.02.892,lexical_decision_task_DD_L2,2021.2.3,Win32,143.081986,,,,,,,,,,,0.5473,1,,,,,,,,,,,,,,,,,,,,,,,,0.061111111,-0.340740741,0,0,0,,,,,,,DANCER,HB,z,y,./images/DANCERHB.png,,,,,,,,,,,,,,,,,,,,,z,1,0.5473,,,,,,,,0,119,119,105,1
,,,,,,,,,,,,,,,,,5ba849b3a2a1ae0001f08d2d,20,2022-02-12_17h07.02.892,lexical_decision_task_DD_L2,2021.2.3,Win32,143.081986,,,,,,,,,,,0.5898,1,,,,,,,,,,,,,,,,,,,,,,,,0.061111111,-0.340740741,0,0,0,,,,,,,MIDGET,LB,z,y,./images/MIDGETLB.png,,,,,,,,,,,,,,,,,,,,,z,1,0.5898,,,,,,,,0,120,120,160,1
,,,,,,,,,,,,,,,,,5ba849b3a2a1ae0001f08d2d,20,2022-02-12_17h07.02.892,lexical_decision_task_DD_L2,2021.2.3,Win32,143.081986,,,,,,,,,,,0.5942,1,,,,,,,,,,,,,,,,,,,,,,,,0.061111111,-0.340740741,0,0,0,,,,,,,STAIN,HB,z,y,./images/STAINHB.png,,,,,,,,,,,,,,,,,,,,,z,1,0.5942,,,,,,,,0,121,121,90,1
,,,,,,,,,,,,,,,,,5ba849b3a2a1ae0001f08d2d,20,2022-02-12_17h07.02.892,lexical_decision_task_DD_L2,2021.2.3,Win32,143.081986,,,,,,,,,,,0.6161,0,,,,,,,,,,,,,,,,,,,,,,,,0.061111111,-0.340740741,0,0,0,,,,,,,POODLE,HB,m,y,./images/POODLEHB.png,,,,,,,,,,,,,,,,,,,,,z,0,0.6161,,,,,,,,0,122,122,81,1
,,,,,,,,,,,,,,,,,5ba849b3a2a1ae0001f08d2d,20,2022-02-12_17h07.02.892,lexical_decision_task_DD_L2,2021.2.3,Win32,143.081986,,,,,,,,,,,0.7727,1,,,,,,,,,,,,,,,,,,,,,,,,0.061111111,-0.340740741,0,0,0,,,,,,,SQUARE,HB,m,y,./images/SQUAREHB.png,,,,,,,,,,,,,,,,,,,,,m,1,0.7727,,,,,,,,0,123,123,6,1
,,,,,,,,,,,,,,,,,5ba849b3a2a1ae0001f08d2d,20,2022-02-12_17h07.02.892,lexical_decision_task_DD_L2,2021.2.3,Win32,143.081986,,,,,,,,,,,0.5783,1,,,,,,,,,,,,,,,,,,,,,,,,0.061111111,-0.340740741,0,0,0,,,,,,,STOVE,C,z,y,./images/STOVE.png,,,,,,,,,,,,,,,,,,,,,z,1,0.5783,,,,,,,,0,124,124,86,1
,,,,,,,,,,,,,,,,,5ba849b3a2a1ae0001f08d2d,20,2022-02-12_17h07.02.892,lexical_decision_task_DD_L2,2021.2.3,Win32,143.081986,,,,,,,,,,,2.7016,0,,,,,,,,,,,,,,,,,,,,,,,,0.061111111,-0.340740741,0,0,0,space,,,,,,SKIING,C,m,y,./images/SKIING.png,14.1284,,,,,,,,,,,,,,,,,,,,z,0,2.7016,,,,,,,,0,125,125,17,1
,,,,,,,,,,,,,,,,,5ba849b3a2a1ae0001f08d2d,20,2022-02-12_17h07.02.892,lexical_decision_task_DD_L2,2021.2.3,Win32,143.081986,,,,,,,,,,,1.125,1,,,,,,,,,,,,,,,,,,,,,,,,0.061111111,-0.340740741,0,0,0,,,,,,,ENGINE,C,z,y,./images/ENGINE.png,,,,,,,,,,,,,,,,,,,,,z,1,1.125,,,,,,,,0,126,126,122,1
,,,,,,,,,,,,,,,,,5ba849b3a2a1ae0001f08d2d,20,2022-02-12_17h07.02.892,lexical_decision_task_DD_L2,2021.2.3,Win32,143.081986,,,,,,,,,,,0.6613,1,,,,,,,,,,,,,,,,,,,,,,,,0.061111111,-0.340740741,0,0,0,,,,,,,MOTOR,LB,m,y,./images/MOTORLB.png,,,,,,,,,,,,,,,,,,,,,m,1,0.6613,,,,,,,,0,127,127,13,1
,,,,,,,,,,,,,,,,,5ba849b3a2a1ae0001f08d2d,20,2022-02-12_17h07.02.892,lexical_decision_task_DD_L2,2021.2.3,Win32,143.081986,,,,,,,,,,,0.6107,0,,,,,,,,,,,,,,,,,,,,,,,,0.061111111,-0.340740741,0,0,0,,,,,,,CEMENT,C,m,y,./images/CEMENT.png,,,,,,,,,,,,,,,,,,,,,z,0,0.6107,,,,,,,,0,128,128,74,1
,,,,,,,,,,,,,,,,,5ba849b3a2a1ae0001f08d2d,20,2022-02-12_17h07.02.892,lexical_decision_task_DD_L2,2021.2.3,Win32,143.081986,,,,,,,,,,,0.7415,1,,,,,,,,,,,,,,,,,,,,,,,,0.061111111,-0.340740741,0,0,0,,,,,,,BUBBLE,C,z,y,./images/BUBBLE.png,,,,,,,,,,,,,,,,,,,,,z,1,0.7415,,,,,,,,0,129,129,155,1
,,,,,,,,,,,,,,,,,5ba849b3a2a1ae0001f08d2d,20,2022-02-12_17h07.02.892,lexical_decision_task_DD_L2,2021.2.3,Win32,143.081986,,,,,,,,,,,0.932,0,,,,,,,,,,,,,,,,,,,,,,,,0.061111111,-0.340740741,0,0,0,,,,,,,MONKEY,HB,z,y,./images/MONKEYHB.png,,,,,,,,,,,,,,,,,,,,,m,0,0.932,,,,,,,,0,130,130,129,1
,,,,,,,,,,,,,,,,,5ba849b3a2a1ae0001f08d2d,20,2022-02-12_17h07.02.892,lexical_decision_task_DD_L2,2021.2.3,Win32,143.081986,,,,,,,,,,,0.6072,1,,,,,,,,,,,,,,,,,,,,,,,,0.061111111,-0.340740741,0,0,0,,,,,,,FLASK,HB,z,y,./images/FLASKHB.png,,,,,,,,,,,,,,,,,,,,,z,1,0.6072,,,,,,,,0,131,131,156,1
