key_resp.keys,instr_done_touch.x,instr_done_touch.y,instr_done_touch.leftButton,instr_done_touch.midButton,instr_done_touch.rightButton,instr_done_touch.clicked_name,instruction_pages.thisRepN,instruction_pages.thisTrialN,instruction_pages.thisN,instruction_pages.thisIndex,instruction_pages.ran,pageN,phase,instruct_text,has_image,instruct_image,participant,age,date,expName,psychopyVersion,OS,frameRate,response.keys,response.corr,touch_resp.x,touch_resp.y,touch_resp.leftButton,touch_resp.midButton,touch_resp.rightButton,touch_resp.time,touch_resp.clicked_name,rt,corr,practrials.thisRepN,practrials.thisTrialN,practrials.thisN,practrials.thisIndex,practrials.ran,TrialID,Target,corrAns,end_of_practice_trials_pages.thisRepN,end_of_practice_trials_pages.thisTrialN,end_of_practice_trials_pages.thisN,end_of_practice_trials_pages.thisIndex,end_of_practice_trials_pages.ran,key_resp_2.keys,key_resp_2.corr,targ_click.x,targ_click.y,targ_click.leftButton,targ_click.midButton,targ_click.rightButton,targ_click.time,targ_click.clicked_name,break_done_touch.x,break_done_touch.y,break_done_touch.leftButton,break_done_touch.midButton,break_done_touch.rightButton,break_done_keyboard.keys,maintrials.thisRepN,maintrials.thisTrialN,maintrials.thisN,maintrials.thisIndex,maintrials.ran,string,blur,study,lex,stim_path,break_done_touch.clicked_name,mouse_2.x,mouse_2.y,mouse_2.leftButton,mouse_2.midButton,mouse_2.rightButton,mouse_2.clicked_name,slider.response,slider.rt,trials.thisRepN,trials.thisTrialN,trials.thisN,trials.thisIndex,trials.ran,test_instructions.thisRepN,test_instructions.thisTrialN,test_instructions.thisN,test_instructions.thisIndex,test_instructions.ran,key_resp_3.keys,key_resp_3.corr,test_click.x,test_click.y,test_click.leftButton,test_click.midButton,test_click.rightButton,test_click.time,test_click.clicked_name,test_phase.thisRepN,test_phase.thisTrialN,test_phase.thisN,test_phase.thisIndex,test_phase.ran
,0.083673469,-0.396428571,1,0,0,instr_done_button,0,0,0,0,1,1,instructions,"INSTRUCTIONS
At the start of each trial, look at the plus sign  (+) in the center of the screen.  This tells you that a trial is about to begin and where to look. Second, the plus sign will disappear and a string of letters will appear. Your task is to determine if the string of letters is a word or not. If the item is a word press the M key (on keyboard)  or touch the word button (phone/tablet).  If the item is not a word,  press the  Z key (on keyboard)  or touch the nonword button (on phone/tablet). 
Press the space bar or touch  continue.",0,,5c09016cb65da90001a946a7,29,2022-02-12_13h37.10.939,lexical_decision_task_DD_L2,2021.2.3,iPhone,62.5,,,,,,,,,,,,,,,,,,,,,,,,,,,,,,,,,,,,,,,,,,,,,,,,,,,,,,,,,,,,,,,,,,,,,,,,,,,,,,,,,,
,0.125510204,-0.389285714,1,0,0,instr_done_button,0,1,1,1,1,2,instructions,"If your device has a keyboard, press the 'Z' key for nonwords and the 'M' key for words.





Press the space bar or touch the button below to continue.",0,keyboard-example.gif,5c09016cb65da90001a946a7,29,2022-02-12_13h37.10.939,lexical_decision_task_DD_L2,2021.2.3,iPhone,62.5,,,,,,,,,,,,,,,,,,,,,,,,,,,,,,,,,,,,,,,,,,,,,,,,,,,,,,,,,,,,,,,,,,,,,,,,,,,,,,,,,,
,0.128571429,-0.40255102,1,0,0,instr_done_button,0,2,2,2,1,3,instructions,"If you are using a touchscreen only device, use the buttons on the screen. Do not use the mouse.





Press the space bar or touch the button below to continue.",0,touchscreen-example.gif,5c09016cb65da90001a946a7,29,2022-02-12_13h37.10.939,lexical_decision_task_DD_L2,2021.2.3,iPhone,62.5,,,,,,,,,,,,,,,,,,,,,,,,,,,,,,,,,,,,,,,,,,,,,,,,,,,,,,,,,,,,,,,,,,,,,,,,,,,,,,,,,,
,0.083673469,-0.40255102,1,0,0,instr_done_button,0,3,3,3,1,4,instructions,"It is very important that you respond as quickly and accurately as possible, as each letter string will only be on the screen for two seconds. If you do not respond within this time, the message 'Too slow!' will be displayed and the experiment will progress to the next letter string. The first 20 trials will be practice trials and you will receive feedback on your answers. 

Press the space bar or touch the button below to start the practice trials.",0,,5c09016cb65da90001a946a7,29,2022-02-12_13h37.10.939,lexical_decision_task_DD_L2,2021.2.3,iPhone,62.5,,,,,,,,,,,,,,,,,,,,,,,,,,,,,,,,,,,,,,,,,,,,,,,,,,,,,,,,,,,,,,,,,,,,,,,,,,,,,,,,,,
,,,,,,,,,,,,,,,,,5c09016cb65da90001a946a7,29,2022-02-12_13h37.10.939,lexical_decision_task_DD_L2,2021.2.3,iPhone,62.5,,0,-0.368367347,-0.33622449,1,0,0,1.397,button_left,1.397,1,0,0,0,12,1,1001,SPRINY,z,,,,,,,,,,,,,,,,,,,,,,,,,,,,,,,,,,,,,,,,,,,,,,,,,,,,,,,,,,,,,,,
,,,,,,,,,,,,,,,,,5c09016cb65da90001a946a7,29,2022-02-12_13h37.10.939,lexical_decision_task_DD_L2,2021.2.3,iPhone,62.5,,0,-0.333673469,-0.328061224,1,0,0,1.033,button_left,1.033,1,0,1,1,10,1,1001,INLADE,z,,,,,,,,,,,,,,,,,,,,,,,,,,,,,,,,,,,,,,,,,,,,,,,,,,,,,,,,,,,,,,,
,,,,,,,,,,,,,,,,,5c09016cb65da90001a946a7,29,2022-02-12_13h37.10.939,lexical_decision_task_DD_L2,2021.2.3,iPhone,62.5,,0,0.381632653,-0.312755102,1,0,0,0.748,button_right,0.748,1,0,2,2,2,1,1001,ALMOND,m,,,,,,,,,,,,,,,,,,,,,,,,,,,,,,,,,,,,,,,,,,,,,,,,,,,,,,,,,,,,,,,
,,,,,,,,,,,,,,,,,5c09016cb65da90001a946a7,29,2022-02-12_13h37.10.939,lexical_decision_task_DD_L2,2021.2.3,iPhone,62.5,,0,-0.302040816,-0.281122449,1,0,0,0.832,button_left,0.832,1,0,3,3,13,1,1001,ROUPET,z,,,,,,,,,,,,,,,,,,,,,,,,,,,,,,,,,,,,,,,,,,,,,,,,,,,,,,,,,,,,,,,
,,,,,,,,,,,,,,,,,5c09016cb65da90001a946a7,29,2022-02-12_13h37.10.939,lexical_decision_task_DD_L2,2021.2.3,iPhone,62.5,,0,0.382653061,-0.28622449,1,0,0,0.748,button_right,0.748,1,0,4,4,5,1,1001,OBTAIN,m,,,,,,,,,,,,,,,,,,,,,,,,,,,,,,,,,,,,,,,,,,,,,,,,,,,,,,,,,,,,,,,
,,,,,,,,,,,,,,,,,5c09016cb65da90001a946a7,29,2022-02-12_13h37.10.939,lexical_decision_task_DD_L2,2021.2.3,iPhone,62.5,,0,0.354081633,-0.283163265,1,0,0,0.599,button_right,0.599,1,0,5,5,6,1,1001,ZOMBIE,m,,,,,,,,,,,,,,,,,,,,,,,,,,,,,,,,,,,,,,,,,,,,,,,,,,,,,,,,,,,,,,,
,,,,,,,,,,,,,,,,,5c09016cb65da90001a946a7,29,2022-02-12_13h37.10.939,lexical_decision_task_DD_L2,2021.2.3,iPhone,62.5,,0,-0.359183673,-0.288265306,1,0,0,0.849,button_left,0.849,1,0,6,6,11,1,1001,RASHET,z,,,,,,,,,,,,,,,,,,,,,,,,,,,,,,,,,,,,,,,,,,,,,,,,,,,,,,,,,,,,,,,
,,,,,,,,,,,,,,,,,5c09016cb65da90001a946a7,29,2022-02-12_13h37.10.939,lexical_decision_task_DD_L2,2021.2.3,iPhone,62.5,,0,0.340816327,-0.340306122,1,0,0,0.732,button_right,0.732,1,0,7,7,4,1,1001,SQUEAK,m,,,,,,,,,,,,,,,,,,,,,,,,,,,,,,,,,,,,,,,,,,,,,,,,,,,,,,,,,,,,,,,
,,,,,,,,,,,,,,,,,5c09016cb65da90001a946a7,29,2022-02-12_13h37.10.939,lexical_decision_task_DD_L2,2021.2.3,iPhone,62.5,,0,-0.271428571,-0.340306122,1,0,0,0.698,button_left,0.698,1,0,8,8,14,1,1001,THRALE,z,,,,,,,,,,,,,,,,,,,,,,,,,,,,,,,,,,,,,,,,,,,,,,,,,,,,,,,,,,,,,,,
,,,,,,,,,,,,,,,,,5c09016cb65da90001a946a7,29,2022-02-12_13h37.10.939,lexical_decision_task_DD_L2,2021.2.3,iPhone,62.5,,0,0.416326531,-0.298469388,1,0,0,0.633,button_right,0.633,1,0,9,9,3,1,1001,MATRIX,m,,,,,,,,,,,,,,,,,,,,,,,,,,,,,,,,,,,,,,,,,,,,,,,,,,,,,,,,,,,,,,,
,,,,,,,,,,,,,,,,,5c09016cb65da90001a946a7,29,2022-02-12_13h37.10.939,lexical_decision_task_DD_L2,2021.2.3,iPhone,62.5,,0,0.37244898,-0.275,1,0,0,0.581,button_right,0.581,1,0,10,10,7,1,1001,VOLUME,m,,,,,,,,,,,,,,,,,,,,,,,,,,,,,,,,,,,,,,,,,,,,,,,,,,,,,,,,,,,,,,,
,,,,,,,,,,,,,,,,,5c09016cb65da90001a946a7,29,2022-02-12_13h37.10.939,lexical_decision_task_DD_L2,2021.2.3,iPhone,62.5,,0,-0.345918367,-0.277040816,1,0,0,0.65,button_left,0.65,1,0,11,11,15,1,1001,WHAISE,z,,,,,,,,,,,,,,,,,,,,,,,,,,,,,,,,,,,,,,,,,,,,,,,,,,,,,,,,,,,,,,,
,,,,,,,,,,,,,,,,,5c09016cb65da90001a946a7,29,2022-02-12_13h37.10.939,lexical_decision_task_DD_L2,2021.2.3,iPhone,62.5,,0,-0.267346939,-0.296428571,1,0,0,0.664,button_left,0.664,1,0,12,12,8,1,1001,ASLERT,z,,,,,,,,,,,,,,,,,,,,,,,,,,,,,,,,,,,,,,,,,,,,,,,,,,,,,,,,,,,,,,,
,,,,,,,,,,,,,,,,,5c09016cb65da90001a946a7,29,2022-02-12_13h37.10.939,lexical_decision_task_DD_L2,2021.2.3,iPhone,62.5,,0,0.371428571,-0.312755102,1,0,0,0.665,button_right,0.665,1,0,13,13,1,1,1001,ADJUST,m,,,,,,,,,,,,,,,,,,,,,,,,,,,,,,,,,,,,,,,,,,,,,,,,,,,,,,,,,,,,,,,
,,,,,,,,,,,,,,,,,5c09016cb65da90001a946a7,29,2022-02-12_13h37.10.939,lexical_decision_task_DD_L2,2021.2.3,iPhone,62.5,,0,0.428571429,-0.304591837,1,0,0,0.548,button_right,0.548,1,0,14,14,0,1,1001,UTOPIA,m,,,,,,,,,,,,,,,,,,,,,,,,,,,,,,,,,,,,,,,,,,,,,,,,,,,,,,,,,,,,,,,
,,,,,,,,,,,,,,,,,5c09016cb65da90001a946a7,29,2022-02-12_13h37.10.939,lexical_decision_task_DD_L2,2021.2.3,iPhone,62.5,,0,-0.281632653,-0.268877551,1,0,0,0.614,button_left,0.614,1,0,15,15,9,1,1001,FARINY,z,,,,,,,,,,,,,,,,,,,,,,,,,,,,,,,,,,,,,,,,,,,,,,,,,,,,,,,,,,,,,,,
,0.112244898,-0.384183673,1,0,0,instr_done_button,,,,,,1,end_of_practice,"You have completed the practice trials. During the experimental trials, you will not receive feedback. 
Before you begin, please ensure that you are in a comfortable and quiet location and will not be disturbed for about 15 minutes, as we cannot use your data if you do not complete all the trials. 
 When you are ready to start the experimental trials, please press space or touch the button below.",,,5c09016cb65da90001a946a7,29,2022-02-12_13h37.10.939,lexical_decision_task_DD_L2,2021.2.3,iPhone,62.5,,,,,,,,,,,,,,,,,,,,0,0,0,0,1,,,,,,,,,,,,,,,,,,,,,,,,,,,,,,,,,,,,,,,,,,,,,,,,,,,,,,,,,,
,,,,,,,,,,,,,,,,,5c09016cb65da90001a946a7,29,2022-02-12_13h37.10.939,lexical_decision_task_DD_L2,2021.2.3,iPhone,62.5,,,,,,,,,,0.779,1,,,,,,,,,,,,,,,0,0.394897959,-0.246428571,1,0,0,0.779,button_right_main,0.394897959,-0.246428571,1,0,0,,0,0,0,36,1,THROAT,HB,old,m,./images/THROATHB.png,,,,,,,,,,,,,,,,,,,,,,,,,,,,,,,,,
,,,,,,,,,,,,,,,,,5c09016cb65da90001a946a7,29,2022-02-12_13h37.10.939,lexical_decision_task_DD_L2,2021.2.3,iPhone,62.5,,,,,,,,,,0.65,1,,,,,,,,,,,,,,,0,-0.323469388,-0.272959184,1,0,0,0.65,button_left_main,-0.323469388,-0.272959184,1,0,0,,0,1,1,90,1,NEAST,C,old,z,./images/NEAST.png,,,,,,,,,,,,,,,,,,,,,,,,,,,,,,,,,
,,,,,,,,,,,,,,,,,5c09016cb65da90001a946a7,29,2022-02-12_13h37.10.939,lexical_decision_task_DD_L2,2021.2.3,iPhone,62.5,,,,,,,,,,0.748,1,,,,,,,,,,,,,,,0,0.353061224,-0.355612245,1,0,0,0.748,button_right_main,0.353061224,-0.355612245,1,0,0,,0,2,2,68,1,TORCH,C,old,m,./images/TORCH.png,,,,,,,,,,,,,,,,,,,,,,,,,,,,,,,,,
,,,,,,,,,,,,,,,,,5c09016cb65da90001a946a7,29,2022-02-12_13h37.10.939,lexical_decision_task_DD_L2,2021.2.3,iPhone,62.5,,,,,,,,,,0.816,1,,,,,,,,,,,,,,,0,-0.313265306,-0.317857143,1,0,0,0.816,button_left_main,-0.313265306,-0.317857143,1,0,0,,0,3,3,104,1,GITTY,LB,old,z,./images/GITTYLB.png,,,,,,,,,,,,,,,,,,,,,,,,,,,,,,,,,
,,,,,,,,,,,,,,,,,5c09016cb65da90001a946a7,29,2022-02-12_13h37.10.939,lexical_decision_task_DD_L2,2021.2.3,iPhone,62.5,,,,,,,,,,0.698,1,,,,,,,,,,,,,,,0,-0.278571429,-0.288265306,1,0,0,0.698,button_left_main,-0.278571429,-0.288265306,1,0,0,,0,4,4,126,1,GUELS,C,old,z,./images/GUELS.png,,,,,,,,,,,,,,,,,,,,,,,,,,,,,,,,,
,,,,,,,,,,,,,,,,,5c09016cb65da90001a946a7,29,2022-02-12_13h37.10.939,lexical_decision_task_DD_L2,2021.2.3,iPhone,62.5,,,,,,,,,,1.216,1,,,,,,,,,,,,,,,0,-0.330612245,-0.281122449,1,0,0,1.216,button_left_main,-0.330612245,-0.281122449,1,0,0,,0,5,5,94,1,BLANS,HB,old,z,./images/BLANSHB.png,,,,,,,,,,,,,,,,,,,,,,,,,,,,,,,,,
,,,,,,,,,,,,,,,,,5c09016cb65da90001a946a7,29,2022-02-12_13h37.10.939,lexical_decision_task_DD_L2,2021.2.3,iPhone,62.5,,,,,,,,,,0.716,1,,,,,,,,,,,,,,,0,-0.293877551,-0.267857143,1,0,0,0.716,button_left_main,-0.293877551,-0.267857143,1,0,0,,0,6,6,122,1,BLOOT,LB,old,z,./images/BLOOTLB.png,,,,,,,,,,,,,,,,,,,,,,,,,,,,,,,,,
,,,,,,,,,,,,,,,,,5c09016cb65da90001a946a7,29,2022-02-12_13h37.10.939,lexical_decision_task_DD_L2,2021.2.3,iPhone,62.5,,,,,,,,,,0.55,1,,,,,,,,,,,,,,,0,-0.336734694,-0.238265306,1,0,0,0.55,button_left_main,-0.336734694,-0.238265306,1,0,0,,0,7,7,162,1,LEICH,C,old,z,./images/LEICH.png,,,,,,,,,,,,,,,,,,,,,,,,,,,,,,,,,
,,,,,,,,,,,,,,,,,5c09016cb65da90001a946a7,29,2022-02-12_13h37.10.939,lexical_decision_task_DD_L2,2021.2.3,iPhone,62.5,,,,,,,,,,0.616,1,,,,,,,,,,,,,,,0,-0.294897959,-0.283163265,1,0,0,0.616,button_left_main,-0.294897959,-0.283163265,1,0,0,,0,8,8,123,1,SEDGE,C,old,z,./images/SEDGE.png,,,,,,,,,,,,,,,,,,,,,,,,,,,,,,,,,
,,,,,,,,,,,,,,,,,5c09016cb65da90001a946a7,29,2022-02-12_13h37.10.939,lexical_decision_task_DD_L2,2021.2.3,iPhone,62.5,,,,,,,,,,0.533,1,,,,,,,,,,,,,,,0,0.385714286,-0.335204082,1,0,0,0.533,button_right_main,0.385714286,-0.335204082,1,0,0,,0,9,9,29,1,CRUMB,C,old,m,./images/CRUMB.png,,,,,,,,,,,,,,,,,,,,,,,,,,,,,,,,,
,,,,,,,,,,,,,,,,,5c09016cb65da90001a946a7,29,2022-02-12_13h37.10.939,lexical_decision_task_DD_L2,2021.2.3,iPhone,62.5,,,,,,,,,,0.649,1,,,,,,,,,,,,,,,0,-0.37755102,-0.312755102,1,0,0,0.649,button_left_main,-0.37755102,-0.312755102,1,0,0,,0,10,10,155,1,CANGY,LB,old,z,./images/CANGYLB.png,,,,,,,,,,,,,,,,,,,,,,,,,,,,,,,,,
,,,,,,,,,,,,,,,,,5c09016cb65da90001a946a7,29,2022-02-12_13h37.10.939,lexical_decision_task_DD_L2,2021.2.3,iPhone,62.5,,,,,,,,,,0.682,1,,,,,,,,,,,,,,,0,-0.383673469,-0.296428571,1,0,0,0.682,button_left_main,-0.383673469,-0.296428571,1,0,0,,0,11,11,86,1,AIFED,LB,old,z,./images/AIFEDLB.png,,,,,,,,,,,,,,,,,,,,,,,,,,,,,,,,,
,,,,,,,,,,,,,,,,,5c09016cb65da90001a946a7,29,2022-02-12_13h37.10.939,lexical_decision_task_DD_L2,2021.2.3,iPhone,62.5,,,,,,,,,,0.684,1,,,,,,,,,,,,,,,0,-0.37755102,-0.288265306,1,0,0,0.684,button_left_main,-0.37755102,-0.288265306,1,0,0,,0,12,12,102,1,DULLE,C,old,z,./images/DULLE.png,,,,,,,,,,,,,,,,,,,,,,,,,,,,,,,,,
,,,,,,,,,,,,,,,,,5c09016cb65da90001a946a7,29,2022-02-12_13h37.10.939,lexical_decision_task_DD_L2,2021.2.3,iPhone,62.5,,,,,,,,,,0.865,1,,,,,,,,,,,,,,,0,-0.307142857,-0.298469388,1,0,0,0.865,button_left_main,-0.307142857,-0.298469388,1,0,0,,0,13,13,85,1,CHULK,HB,old,z,./images/CHULKHB.png,,,,,,,,,,,,,,,,,,,,,,,,,,,,,,,,,
,,,,,,,,,,,,,,,,,5c09016cb65da90001a946a7,29,2022-02-12_13h37.10.939,lexical_decision_task_DD_L2,2021.2.3,iPhone,62.5,,,,,,,,,,0.699,1,,,,,,,,,,,,,,,0,0.313265306,-0.311734694,1,0,0,0.699,button_right_main,0.313265306,-0.311734694,1,0,0,,0,14,14,59,1,BURIAL,C,old,m,./images/BURIAL.png,,,,,,,,,,,,,,,,,,,,,,,,,,,,,,,,,
,,,,,,,,,,,,,,,,,5c09016cb65da90001a946a7,29,2022-02-12_13h37.10.939,lexical_decision_task_DD_L2,2021.2.3,iPhone,62.5,,,,,,,,,,0.599,1,,,,,,,,,,,,,,,0,0.335714286,-0.312755102,1,0,0,0.599,button_right_main,0.335714286,-0.312755102,1,0,0,,0,15,15,62,1,PURSE,C,old,m,./images/PURSE.png,,,,,,,,,,,,,,,,,,,,,,,,,,,,,,,,,
,,,,,,,,,,,,,,,,,5c09016cb65da90001a946a7,29,2022-02-12_13h37.10.939,lexical_decision_task_DD_L2,2021.2.3,iPhone,62.5,,,,,,,,,,0.616,1,,,,,,,,,,,,,,,0,-0.345918367,-0.29744898,1,0,0,0.616,button_left_main,-0.345918367,-0.29744898,1,0,0,,0,16,16,98,1,BAMPS,LB,old,z,./images/BAMPSLB.png,,,,,,,,,,,,,,,,,,,,,,,,,,,,,,,,,
,,,,,,,,,,,,,,,,,5c09016cb65da90001a946a7,29,2022-02-12_13h37.10.939,lexical_decision_task_DD_L2,2021.2.3,iPhone,62.5,,,,,,,,,,0.916,1,,,,,,,,,,,,,,,0,-0.298979592,-0.316836735,1,0,0,0.916,button_left_main,-0.298979592,-0.316836735,1,0,0,,0,17,17,118,1,BAVEL,HB,old,z,./images/BAVELHB.png,,,,,,,,,,,,,,,,,,,,,,,,,,,,,,,,,
,,,,,,,,,,,,,,,,,5c09016cb65da90001a946a7,29,2022-02-12_13h37.10.939,lexical_decision_task_DD_L2,2021.2.3,iPhone,62.5,,,,,,,,,,0.599,1,,,,,,,,,,,,,,,0,0.369387755,-0.353571429,1,0,0,0.599,button_right_main,0.369387755,-0.353571429,1,0,0,,0,18,18,34,1,CANYON,LB,old,m,./images/CANYONLB.png,,,,,,,,,,,,,,,,,,,,,,,,,,,,,,,,,
,,,,,,,,,,,,,,,,,5c09016cb65da90001a946a7,29,2022-02-12_13h37.10.939,lexical_decision_task_DD_L2,2021.2.3,iPhone,62.5,,,,,,,,,,0.715,1,,,,,,,,,,,,,,,0,0.373469388,-0.316836735,1,0,0,0.715,button_right_main,0.373469388,-0.316836735,1,0,0,,0,19,19,60,1,TWINS,HB,old,m,./images/TWINSHB.png,,,,,,,,,,,,,,,,,,,,,,,,,,,,,,,,,
,,,,,,,,,,,,,,,,,5c09016cb65da90001a946a7,29,2022-02-12_13h37.10.939,lexical_decision_task_DD_L2,2021.2.3,iPhone,62.5,,,,,,,,,,0.666,1,,,,,,,,,,,,,,,0,0.340816327,-0.356632653,1,0,0,0.666,button_right_main,0.340816327,-0.356632653,1,0,0,,0,20,20,23,1,WALRUS,C,old,m,./images/WALRUS.png,,,,,,,,,,,,,,,,,,,,,,,,,,,,,,,,,
,,,,,,,,,,,,,,,,,5c09016cb65da90001a946a7,29,2022-02-12_13h37.10.939,lexical_decision_task_DD_L2,2021.2.3,iPhone,62.5,,,,,,,,,,0.482,1,,,,,,,,,,,,,,,0,0.383673469,-0.284183673,1,0,0,0.482,button_right_main,0.383673469,-0.284183673,1,0,0,,0,21,21,71,1,PIMPLE,C,old,m,./images/PIMPLE.png,,,,,,,,,,,,,,,,,,,,,,,,,,,,,,,,,
,,,,,,,,,,,,,,,,,5c09016cb65da90001a946a7,29,2022-02-12_13h37.10.939,lexical_decision_task_DD_L2,2021.2.3,iPhone,62.5,,,,,,,,,,0.782,1,,,,,,,,,,,,,,,0,0.454081633,-0.360714286,1,0,0,0.782,button_right_main,0.454081633,-0.360714286,1,0,0,,0,22,22,83,1,JUNGLE,C,old,m,./images/JUNGLE.png,,,,,,,,,,,,,,,,,,,,,,,,,,,,,,,,,
,,,,,,,,,,,,,,,,,5c09016cb65da90001a946a7,29,2022-02-12_13h37.10.939,lexical_decision_task_DD_L2,2021.2.3,iPhone,62.5,,,,,,,,,,0.565,1,,,,,,,,,,,,,,,0,0.381632653,-0.325,1,0,0,0.565,button_right_main,0.381632653,-0.325,1,0,0,,0,23,23,67,1,SAILOR,LB,old,m,./images/SAILORLB.png,,,,,,,,,,,,,,,,,,,,,,,,,,,,,,,,,
,,,,,,,,,,,,,,,,,5c09016cb65da90001a946a7,29,2022-02-12_13h37.10.939,lexical_decision_task_DD_L2,2021.2.3,iPhone,62.5,,,,,,,,,,0.615,1,,,,,,,,,,,,,,,0,-0.319387755,-0.233163265,1,0,0,0.615,button_left_main,-0.319387755,-0.233163265,1,0,0,,0,24,24,125,1,MOOKY,LB,old,z,./images/MOOKYLB.png,,,,,,,,,,,,,,,,,,,,,,,,,,,,,,,,,
,,,,,,,,,,,,,,,,,5c09016cb65da90001a946a7,29,2022-02-12_13h37.10.939,lexical_decision_task_DD_L2,2021.2.3,iPhone,62.5,,,,,,,,,,0.548,1,,,,,,,,,,,,,,,0,0.37755102,-0.340306122,1,0,0,0.548,button_right_main,0.37755102,-0.340306122,1,0,0,,0,25,25,52,1,BANNER,LB,old,m,./images/BANNERLB.png,,,,,,,,,,,,,,,,,,,,,,,,,,,,,,,,,
,,,,,,,,,,,,,,,,,5c09016cb65da90001a946a7,29,2022-02-12_13h37.10.939,lexical_decision_task_DD_L2,2021.2.3,iPhone,62.5,,,,,,,,,,0.466,1,,,,,,,,,,,,,,,0,0.358163265,-0.285204082,1,0,0,0.466,button_right_main,0.358163265,-0.285204082,1,0,0,,0,26,26,46,1,PEARL,LB,old,m,./images/PEARLLB.png,,,,,,,,,,,,,,,,,,,,,,,,,,,,,,,,,
,,,,,,,,,,,,,,,,,5c09016cb65da90001a946a7,29,2022-02-12_13h37.10.939,lexical_decision_task_DD_L2,2021.2.3,iPhone,62.5,,,,,,,,,,0.6,1,,,,,,,,,,,,,,,0,-0.262244898,-0.270918367,1,0,0,0.6,button_left_main,-0.262244898,-0.270918367,1,0,0,,0,27,27,149,1,VEASE,LB,old,z,./images/VEASELB.png,,,,,,,,,,,,,,,,,,,,,,,,,,,,,,,,,
,,,,,,,,,,,,,,,,,5c09016cb65da90001a946a7,29,2022-02-12_13h37.10.939,lexical_decision_task_DD_L2,2021.2.3,iPhone,62.5,,,,,,,,,,0.517,1,,,,,,,,,,,,,,,0,0.325510204,-0.277040816,1,0,0,0.517,button_right_main,0.325510204,-0.277040816,1,0,0,,0,28,28,37,1,BIRTH,LB,old,m,./images/BIRTHLB.png,,,,,,,,,,,,,,,,,,,,,,,,,,,,,,,,,
,,,,,,,,,,,,,,,,,5c09016cb65da90001a946a7,29,2022-02-12_13h37.10.939,lexical_decision_task_DD_L2,2021.2.3,iPhone,62.5,,,,,,,,,,1.466,0,,,,,,,,,,,,,,,0,-0.352040816,-0.275,1,0,0,1.466,button_left_main,-0.352040816,-0.275,1,0,0,,0,29,29,72,1,NOOSE,HB,old,m,./images/NOOSEHB.png,,,,,,,,,,,,,,,,,,,,,,,,,,,,,,,,,
,,,,,,,,,,,,,,,,,5c09016cb65da90001a946a7,29,2022-02-12_13h37.10.939,lexical_decision_task_DD_L2,2021.2.3,iPhone,62.5,,,,,,,,,,0.682,1,,,,,,,,,,,,,,,0,0.343877551,-0.268877551,1,0,0,0.682,button_right_main,0.343877551,-0.268877551,1,0,0,,0,30,30,25,1,WRIST,LB,old,m,./images/WRISTLB.png,,,,,,,,,,,,,,,,,,,,,,,,,,,,,,,,,
,,,,,,,,,,,,,,,,,5c09016cb65da90001a946a7,29,2022-02-12_13h37.10.939,lexical_decision_task_DD_L2,2021.2.3,iPhone,62.5,,,,,,,,,,0.964,1,,,,,,,,,,,,,,,0,-0.347959184,-0.318877551,1,0,0,0.964,button_left_main,-0.347959184,-0.318877551,1,0,0,,0,31,31,109,1,BURGE,HB,old,z,./images/BURGEHB.png,,,,,,,,,,,,,,,,,,,,,,,,,,,,,,,,,
,,,,,,,,,,,,,,,,,5c09016cb65da90001a946a7,29,2022-02-12_13h37.10.939,lexical_decision_task_DD_L2,2021.2.3,iPhone,62.5,,,,,,,,,,0.649,1,,,,,,,,,,,,,,,0,-0.312244898,-0.265816327,1,0,0,0.649,button_left_main,-0.312244898,-0.265816327,1,0,0,,0,32,32,164,1,SGREW,LB,old,z,./images/SGREWLB.png,,,,,,,,,,,,,,,,,,,,,,,,,,,,,,,,,
,,,,,,,,,,,,,,,,,5c09016cb65da90001a946a7,29,2022-02-12_13h37.10.939,lexical_decision_task_DD_L2,2021.2.3,iPhone,62.5,,,,,,,,,,0.765,1,,,,,,,,,,,,,,,0,-0.354081633,-0.272959184,1,0,0,0.765,button_left_main,-0.354081633,-0.272959184,1,0,0,,0,33,33,167,1,ZONET,LB,old,z,./images/ZONETLB.png,,,,,,,,,,,,,,,,,,,,,,,,,,,,,,,,,
,,,,,,,,,,,,,,,,,5c09016cb65da90001a946a7,29,2022-02-12_13h37.10.939,lexical_decision_task_DD_L2,2021.2.3,iPhone,62.5,,,,,,,,,,0.616,1,,,,,,,,,,,,,,,0,0.392857143,-0.341326531,1,0,0,0.616,button_right_main,0.392857143,-0.341326531,1,0,0,,0,34,34,2,1,BEARD,C,old,m,./images/BEARD.png,,,,,,,,,,,,,,,,,,,,,,,,,,,,,,,,,
,,,,,,,,,,,,,,,,,5c09016cb65da90001a946a7,29,2022-02-12_13h37.10.939,lexical_decision_task_DD_L2,2021.2.3,iPhone,62.5,,,,,,,,,,0.616,1,,,,,,,,,,,,,,,0,-0.280612245,-0.290306122,1,0,0,0.616,button_left_main,-0.280612245,-0.290306122,1,0,0,,0,35,35,141,1,PLEET,C,old,z,./images/PLEET.png,,,,,,,,,,,,,,,,,,,,,,,,,,,,,,,,,
,,,,,,,,,,,,,,,,,5c09016cb65da90001a946a7,29,2022-02-12_13h37.10.939,lexical_decision_task_DD_L2,2021.2.3,iPhone,62.5,,,,,,,,,,0.566,1,,,,,,,,,,,,,,,0,0.37244898,-0.28622449,1,0,0,0.566,button_right_main,0.37244898,-0.28622449,1,0,0,,0,36,36,0,1,TOMATO,HB,old,m,./images/TOMATOHB.png,,,,,,,,,,,,,,,,,,,,,,,,,,,,,,,,,
,,,,,,,,,,,,,,,,,5c09016cb65da90001a946a7,29,2022-02-12_13h37.10.939,lexical_decision_task_DD_L2,2021.2.3,iPhone,62.5,,,,,,,,,,0.583,1,,,,,,,,,,,,,,,0,0.335714286,-0.315816327,1,0,0,0.583,button_right_main,0.335714286,-0.315816327,1,0,0,,0,37,37,27,1,ATTIC,HB,old,m,./images/ATTICHB.png,,,,,,,,,,,,,,,,,,,,,,,,,,,,,,,,,
,,,,,,,,,,,,,,,,,5c09016cb65da90001a946a7,29,2022-02-12_13h37.10.939,lexical_decision_task_DD_L2,2021.2.3,iPhone,62.5,,,,,,,,,,0.498,1,,,,,,,,,,,,,,,0,0.337755102,-0.296428571,1,0,0,0.498,button_right_main,0.337755102,-0.296428571,1,0,0,,0,38,38,24,1,SCREW,HB,old,m,./images/SCREWHB.png,,,,,,,,,,,,,,,,,,,,,,,,,,,,,,,,,
,,,,,,,,,,,,,,,,,5c09016cb65da90001a946a7,29,2022-02-12_13h37.10.939,lexical_decision_task_DD_L2,2021.2.3,iPhone,62.5,,,,,,,,,,0.682,1,,,,,,,,,,,,,,,0,-0.389795918,-0.283163265,1,0,0,0.682,button_left_main,-0.389795918,-0.283163265,1,0,0,,0,39,39,160,1,VEETS,HB,old,z,./images/VEETSHB.png,,,,,,,,,,,,,,,,,,,,,,,,,,,,,,,,,
,,,,,,,,,,,,,,,,,5c09016cb65da90001a946a7,29,2022-02-12_13h37.10.939,lexical_decision_task_DD_L2,2021.2.3,iPhone,62.5,,,,,,,,,,0.631,1,,,,,,,,,,,,,,,0,0.37755102,-0.303571429,1,0,0,0.631,button_right_main,0.37755102,-0.303571429,1,0,0,,0,40,40,30,1,STORM,HB,old,m,./images/STORMHB.png,,,,,,,,,,,,,,,,,,,,,,,,,,,,,,,,,
,,,,,,,,,,,,,,,,,5c09016cb65da90001a946a7,29,2022-02-12_13h37.10.939,lexical_decision_task_DD_L2,2021.2.3,iPhone,62.5,,,,,,,,,,0.701,1,,,,,,,,,,,,,,,0,-0.334693878,-0.278061224,1,0,0,0.701,button_left_main,0.080612245,-0.406632653,1,0,0,,0,41,41,111,1,HOSSE,C,old,z,./images/HOSSE.png,break_done_button,,,,,,,,,,,,,,,,,,,,,,,,,,,,,,,,
,,,,,,,,,,,,,,,,,5c09016cb65da90001a946a7,29,2022-02-12_13h37.10.939,lexical_decision_task_DD_L2,2021.2.3,iPhone,62.5,,,,,,,,,,0.799,1,,,,,,,,,,,,,,,0,-0.340816327,-0.272959184,1,0,0,0.799,button_left_main,-0.340816327,-0.272959184,1,0,0,,0,42,42,165,1,TROWN,C,old,z,./images/TROWN.png,,,,,,,,,,,,,,,,,,,,,,,,,,,,,,,,,
,,,,,,,,,,,,,,,,,5c09016cb65da90001a946a7,29,2022-02-12_13h37.10.939,lexical_decision_task_DD_L2,2021.2.3,iPhone,62.5,,,,,,,,,,0.749,1,,,,,,,,,,,,,,,0,-0.37755102,-0.268877551,1,0,0,0.749,button_left_main,-0.37755102,-0.268877551,1,0,0,,0,43,43,127,1,NINDY,HB,old,z,./images/NINDYHB.png,,,,,,,,,,,,,,,,,,,,,,,,,,,,,,,,,
,,,,,,,,,,,,,,,,,5c09016cb65da90001a946a7,29,2022-02-12_13h37.10.939,lexical_decision_task_DD_L2,2021.2.3,iPhone,62.5,,,,,,,,,,0.482,1,,,,,,,,,,,,,,,0,0.344897959,-0.303571429,1,0,0,0.482,button_right_main,0.344897959,-0.303571429,1,0,0,,0,44,44,8,1,TULIP,C,old,m,./images/TULIP.png,,,,,,,,,,,,,,,,,,,,,,,,,,,,,,,,,
,,,,,,,,,,,,,,,,,5c09016cb65da90001a946a7,29,2022-02-12_13h37.10.939,lexical_decision_task_DD_L2,2021.2.3,iPhone,62.5,,,,,,,,,,0.732,1,,,,,,,,,,,,,,,0,-0.333673469,-0.301530612,1,0,0,0.732,button_left_main,-0.333673469,-0.301530612,1,0,0,,0,45,45,112,1,MYING,HB,old,z,./images/MYINGHB.png,,,,,,,,,,,,,,,,,,,,,,,,,,,,,,,,,
,,,,,,,,,,,,,,,,,5c09016cb65da90001a946a7,29,2022-02-12_13h37.10.939,lexical_decision_task_DD_L2,2021.2.3,iPhone,62.5,,,,,,,,,,0.716,1,,,,,,,,,,,,,,,0,-0.298979592,-0.258673469,1,0,0,0.716,button_left_main,-0.298979592,-0.258673469,1,0,0,,0,46,46,101,1,GLEET,LB,old,z,./images/GLEETLB.png,,,,,,,,,,,,,,,,,,,,,,,,,,,,,,,,,
,,,,,,,,,,,,,,,,,5c09016cb65da90001a946a7,29,2022-02-12_13h37.10.939,lexical_decision_task_DD_L2,2021.2.3,iPhone,62.5,,,,,,,,,,0.532,1,,,,,,,,,,,,,,,0,-0.305102041,-0.268877551,1,0,0,0.532,button_left_main,-0.305102041,-0.268877551,1,0,0,,0,47,47,131,1,NACES,LB,old,z,./images/NACESLB.png,,,,,,,,,,,,,,,,,,,,,,,,,,,,,,,,,
,,,,,,,,,,,,,,,,,5c09016cb65da90001a946a7,29,2022-02-12_13h37.10.939,lexical_decision_task_DD_L2,2021.2.3,iPhone,62.5,,,,,,,,,,0.484,1,,,,,,,,,,,,,,,0,0.369387755,-0.331122449,1,0,0,0.484,button_right_main,0.369387755,-0.331122449,1,0,0,,0,48,48,32,1,BARREL,C,old,m,./images/BARREL.png,,,,,,,,,,,,,,,,,,,,,,,,,,,,,,,,,
,,,,,,,,,,,,,,,,,5c09016cb65da90001a946a7,29,2022-02-12_13h37.10.939,lexical_decision_task_DD_L2,2021.2.3,iPhone,62.5,,,,,,,,,,0.582,1,,,,,,,,,,,,,,,0,0.365306122,-0.296428571,1,0,0,0.582,button_right_main,0.365306122,-0.296428571,1,0,0,,0,49,49,53,1,CARPET,C,old,m,./images/CARPET.png,,,,,,,,,,,,,,,,,,,,,,,,,,,,,,,,,
,,,,,,,,,,,,,,,,,5c09016cb65da90001a946a7,29,2022-02-12_13h37.10.939,lexical_decision_task_DD_L2,2021.2.3,iPhone,62.5,,,,,,,,,,0.65,1,,,,,,,,,,,,,,,0,0.313265306,-0.307653061,1,0,0,0.65,button_right_main,0.313265306,-0.307653061,1,0,0,,0,50,50,7,1,PAINT,LB,old,m,./images/PAINTLB.png,,,,,,,,,,,,,,,,,,,,,,,,,,,,,,,,,
,,,,,,,,,,,,,,,,,5c09016cb65da90001a946a7,29,2022-02-12_13h37.10.939,lexical_decision_task_DD_L2,2021.2.3,iPhone,62.5,,,,,,,,,,0.7,1,,,,,,,,,,,,,,,0,-0.346938776,-0.307653061,1,0,0,0.7,button_left_main,-0.346938776,-0.307653061,1,0,0,,0,51,51,119,1,PAFER,LB,old,z,./images/PAFERLB.png,,,,,,,,,,,,,,,,,,,,,,,,,,,,,,,,,
,,,,,,,,,,,,,,,,,5c09016cb65da90001a946a7,29,2022-02-12_13h37.10.939,lexical_decision_task_DD_L2,2021.2.3,iPhone,62.5,,,,,,,,,,0.617,1,,,,,,,,,,,,,,,0,-0.312244898,-0.239285714,1,0,0,0.617,button_left_main,-0.312244898,-0.239285714,1,0,0,,0,52,52,143,1,MONGS,LB,old,z,./images/MONGSLB.png,,,,,,,,,,,,,,,,,,,,,,,,,,,,,,,,,
,,,,,,,,,,,,,,,,,5c09016cb65da90001a946a7,29,2022-02-12_13h37.10.939,lexical_decision_task_DD_L2,2021.2.3,iPhone,62.5,,,,,,,,,,0.6,1,,,,,,,,,,,,,,,0,0.37755102,-0.332142857,1,0,0,0.6,button_right_main,0.37755102,-0.332142857,1,0,0,,0,53,53,57,1,MOOSE,HB,old,m,./images/MOOSEHB.png,,,,,,,,,,,,,,,,,,,,,,,,,,,,,,,,,
,,,,,,,,,,,,,,,,,5c09016cb65da90001a946a7,29,2022-02-12_13h37.10.939,lexical_decision_task_DD_L2,2021.2.3,iPhone,62.5,,,,,,,,,,0.849,1,,,,,,,,,,,,,,,0,0.33877551,-0.30255102,1,0,0,0.849,button_right_main,0.33877551,-0.30255102,1,0,0,,0,54,54,66,1,SWEAT,HB,old,m,./images/SWEATHB.png,,,,,,,,,,,,,,,,,,,,,,,,,,,,,,,,,
,,,,,,,,,,,,,,,,,5c09016cb65da90001a946a7,29,2022-02-12_13h37.10.939,lexical_decision_task_DD_L2,2021.2.3,iPhone,62.5,,,,,,,,,,0.965,0,,,,,,,,,,,,,,,0,-0.336734694,-0.312755102,1,0,0,0.965,button_left_main,-0.336734694,-0.312755102,1,0,0,,0,55,55,16,1,PENCE,LB,old,m,./images/PENCELB.png,,,,,,,,,,,,,,,,,,,,,,,,,,,,,,,,,
,,,,,,,,,,,,,,,,,5c09016cb65da90001a946a7,29,2022-02-12_13h37.10.939,lexical_decision_task_DD_L2,2021.2.3,iPhone,62.5,,,,,,,,,,0.632,1,,,,,,,,,,,,,,,0,-0.314285714,-0.299489796,1,0,0,0.632,button_left_main,-0.314285714,-0.299489796,1,0,0,,0,56,56,116,1,BALGY,LB,old,z,./images/BALGYLB.png,,,,,,,,,,,,,,,,,,,,,,,,,,,,,,,,,
,,,,,,,,,,,,,,,,,5c09016cb65da90001a946a7,29,2022-02-12_13h37.10.939,lexical_decision_task_DD_L2,2021.2.3,iPhone,62.5,,,,,,,,,,0.765,1,,,,,,,,,,,,,,,0,0.373469388,-0.312755102,1,0,0,0.765,button_right_main,0.373469388,-0.312755102,1,0,0,,0,57,57,43,1,MOSQUE,LB,old,m,./images/MOSQUELB.png,,,,,,,,,,,,,,,,,,,,,,,,,,,,,,,,,
,,,,,,,,,,,,,,,,,5c09016cb65da90001a946a7,29,2022-02-12_13h37.10.939,lexical_decision_task_DD_L2,2021.2.3,iPhone,62.5,,,,,,,,,,0.533,1,,,,,,,,,,,,,,,0,0.384693878,-0.304591837,1,0,0,0.533,button_right_main,0.384693878,-0.304591837,1,0,0,,0,58,58,11,1,BONNET,C,old,m,./images/BONNET.png,,,,,,,,,,,,,,,,,,,,,,,,,,,,,,,,,
,,,,,,,,,,,,,,,,,5c09016cb65da90001a946a7,29,2022-02-12_13h37.10.939,lexical_decision_task_DD_L2,2021.2.3,iPhone,62.5,,,,,,,,,,0.532,1,,,,,,,,,,,,,,,0,0.354081633,-0.271938776,1,0,0,0.532,button_right_main,0.354081633,-0.271938776,1,0,0,,0,59,59,3,1,FINGER,HB,old,m,./images/FINGERHB.png,,,,,,,,,,,,,,,,,,,,,,,,,,,,,,,,,
,,,,,,,,,,,,,,,,,5c09016cb65da90001a946a7,29,2022-02-12_13h37.10.939,lexical_decision_task_DD_L2,2021.2.3,iPhone,62.5,,,,,,,,,,0.598,1,,,,,,,,,,,,,,,0,-0.304081633,-0.269897959,1,0,0,0.598,button_left_main,-0.304081633,-0.269897959,1,0,0,,0,60,60,132,1,SCIFF,C,old,z,./images/SCIFF.png,,,,,,,,,,,,,,,,,,,,,,,,,,,,,,,,,
,,,,,,,,,,,,,,,,,5c09016cb65da90001a946a7,29,2022-02-12_13h37.10.939,lexical_decision_task_DD_L2,2021.2.3,iPhone,62.5,,,,,,,,,,0.799,1,,,,,,,,,,,,,,,0,-0.275510204,-0.310714286,1,0,0,0.799,button_left_main,-0.275510204,-0.310714286,1,0,0,,0,61,61,84,1,HAXES,C,old,z,./images/HAXES.png,,,,,,,,,,,,,,,,,,,,,,,,,,,,,,,,,
,,,,,,,,,,,,,,,,,5c09016cb65da90001a946a7,29,2022-02-12_13h37.10.939,lexical_decision_task_DD_L2,2021.2.3,iPhone,62.5,,,,,,,,,,0.734,1,,,,,,,,,,,,,,,0,0.305102041,-0.240306122,1,0,0,0.734,button_right_main,0.305102041,-0.240306122,1,0,0,,0,62,62,19,1,DOUGH,LB,old,m,./images/DOUGHLB.png,,,,,,,,,,,,,,,,,,,,,,,,,,,,,,,,,
,,,,,,,,,,,,,,,,,5c09016cb65da90001a946a7,29,2022-02-12_13h37.10.939,lexical_decision_task_DD_L2,2021.2.3,iPhone,62.5,,,,,,,,,,0.564,1,,,,,,,,,,,,,,,0,0.343877551,-0.281122449,1,0,0,0.564,button_right_main,0.343877551,-0.281122449,1,0,0,,0,63,63,26,1,SMOKER,C,old,m,./images/SMOKER.png,,,,,,,,,,,,,,,,,,,,,,,,,,,,,,,,,
,,,,,,,,,,,,,,,,,5c09016cb65da90001a946a7,29,2022-02-12_13h37.10.939,lexical_decision_task_DD_L2,2021.2.3,iPhone,62.5,,,,,,,,,,0.816,1,,,,,,,,,,,,,,,0,-0.325510204,-0.377040816,1,0,0,0.816,button_left_main,-0.325510204,-0.377040816,1,0,0,,0,64,64,147,1,ZOLES,C,old,z,./images/ZOLES.png,,,,,,,,,,,,,,,,,,,,,,,,,,,,,,,,,
,,,,,,,,,,,,,,,,,5c09016cb65da90001a946a7,29,2022-02-12_13h37.10.939,lexical_decision_task_DD_L2,2021.2.3,iPhone,62.5,,,,,,,,,,0.583,1,,,,,,,,,,,,,,,0,0.357142857,-0.310714286,1,0,0,0.583,button_right_main,0.357142857,-0.310714286,1,0,0,,0,65,65,20,1,CRADLE,C,old,m,./images/CRADLE.png,,,,,,,,,,,,,,,,,,,,,,,,,,,,,,,,,
,,,,,,,,,,,,,,,,,5c09016cb65da90001a946a7,29,2022-02-12_13h37.10.939,lexical_decision_task_DD_L2,2021.2.3,iPhone,62.5,,,,,,,,,,0.617,1,,,,,,,,,,,,,,,0,0.373469388,-0.343367347,1,0,0,0.617,button_right_main,0.373469388,-0.343367347,1,0,0,,0,66,66,6,1,SQUARE,HB,old,m,./images/SQUAREHB.png,,,,,,,,,,,,,,,,,,,,,,,,,,,,,,,,,
,,,,,,,,,,,,,,,,,5c09016cb65da90001a946a7,29,2022-02-12_13h37.10.939,lexical_decision_task_DD_L2,2021.2.3,iPhone,62.5,,,,,,,,,,0.616,1,,,,,,,,,,,,,,,0,-0.291836735,-0.303571429,1,0,0,0.616,button_left_main,-0.291836735,-0.303571429,1,0,0,,0,67,67,124,1,TUNCH,HB,old,z,./images/TUNCHHB.png,,,,,,,,,,,,,,,,,,,,,,,,,,,,,,,,,
,,,,,,,,,,,,,,,,,5c09016cb65da90001a946a7,29,2022-02-12_13h37.10.939,lexical_decision_task_DD_L2,2021.2.3,iPhone,62.5,,,,,,,,,,0.666,1,,,,,,,,,,,,,,,0,0.357142857,-0.299489796,1,0,0,0.666,button_right_main,0.357142857,-0.299489796,1,0,0,,0,68,68,54,1,TRIPOD,HB,old,m,./images/TRIPODHB.png,,,,,,,,,,,,,,,,,,,,,,,,,,,,,,,,,
,,,,,,,,,,,,,,,,,5c09016cb65da90001a946a7,29,2022-02-12_13h37.10.939,lexical_decision_task_DD_L2,2021.2.3,iPhone,62.5,,,,,,,,,,0.482,1,,,,,,,,,,,,,,,0,0.326530612,-0.315816327,1,0,0,0.482,button_right_main,0.326530612,-0.315816327,1,0,0,,0,69,69,47,1,BERRY,C,old,m,./images/BERRY.png,,,,,,,,,,,,,,,,,,,,,,,,,,,,,,,,,
,,,,,,,,,,,,,,,,,5c09016cb65da90001a946a7,29,2022-02-12_13h37.10.939,lexical_decision_task_DD_L2,2021.2.3,iPhone,62.5,,,,,,,,,,0.532,1,,,,,,,,,,,,,,,0,0.392857143,-0.370918367,1,0,0,0.532,button_right_main,0.392857143,-0.370918367,1,0,0,,0,70,70,44,1,LIZARD,C,old,m,./images/LIZARD.png,,,,,,,,,,,,,,,,,,,,,,,,,,,,,,,,,
,,,,,,,,,,,,,,,,,5c09016cb65da90001a946a7,29,2022-02-12_13h37.10.939,lexical_decision_task_DD_L2,2021.2.3,iPhone,62.5,,,,,,,,,,0.583,1,,,,,,,,,,,,,,,0,0.362244898,-0.314795918,1,0,0,0.583,button_right_main,0.362244898,-0.314795918,1,0,0,,0,71,71,49,1,DRUMS,LB,old,m,./images/DRUMSLB.png,,,,,,,,,,,,,,,,,,,,,,,,,,,,,,,,,
,,,,,,,,,,,,,,,,,5c09016cb65da90001a946a7,29,2022-02-12_13h37.10.939,lexical_decision_task_DD_L2,2021.2.3,iPhone,62.5,,,,,,,,,,1.033,1,,,,,,,,,,,,,,,0,-0.35,-0.314795918,1,0,0,1.033,button_left_main,-0.35,-0.314795918,1,0,0,,0,72,72,139,1,BLEAR,HB,old,z,./images/BLEARHB.png,,,,,,,,,,,,,,,,,,,,,,,,,,,,,,,,,
,,,,,,,,,,,,,,,,,5c09016cb65da90001a946a7,29,2022-02-12_13h37.10.939,lexical_decision_task_DD_L2,2021.2.3,iPhone,62.5,,,,,,,,,,0.649,1,,,,,,,,,,,,,,,0,-0.306122449,-0.277040816,1,0,0,0.649,button_left_main,-0.306122449,-0.277040816,1,0,0,,0,73,73,114,1,RIKES,C,old,z,./images/RIKES.png,,,,,,,,,,,,,,,,,,,,,,,,,,,,,,,,,
,,,,,,,,,,,,,,,,,5c09016cb65da90001a946a7,29,2022-02-12_13h37.10.939,lexical_decision_task_DD_L2,2021.2.3,iPhone,62.5,,,,,,,,,,0.565,1,,,,,,,,,,,,,,,0,0.330612245,-0.34744898,1,0,0,0.565,button_right_main,0.330612245,-0.34744898,1,0,0,,0,74,74,10,1,BELLY,LB,old,m,./images/BELLYLB.png,,,,,,,,,,,,,,,,,,,,,,,,,,,,,,,,,
,,,,,,,,,,,,,,,,,5c09016cb65da90001a946a7,29,2022-02-12_13h37.10.939,lexical_decision_task_DD_L2,2021.2.3,iPhone,62.5,,,,,,,,,,0.649,1,,,,,,,,,,,,,,,0,0.343877551,-0.242346939,1,0,0,0.649,button_right_main,0.343877551,-0.242346939,1,0,0,,0,75,75,42,1,FOLDER,HB,old,m,./images/FOLDERHB.png,,,,,,,,,,,,,,,,,,,,,,,,,,,,,,,,,
,,,,,,,,,,,,,,,,,5c09016cb65da90001a946a7,29,2022-02-12_13h37.10.939,lexical_decision_task_DD_L2,2021.2.3,iPhone,62.5,,,,,,,,,,0.899,1,,,,,,,,,,,,,,,0,-0.340816327,-0.309693878,1,0,0,0.899,button_left_main,-0.340816327,-0.309693878,1,0,0,,0,76,76,157,1,INLER,HB,old,z,./images/INLERHB.png,,,,,,,,,,,,,,,,,,,,,,,,,,,,,,,,,
,,,,,,,,,,,,,,,,,5c09016cb65da90001a946a7,29,2022-02-12_13h37.10.939,lexical_decision_task_DD_L2,2021.2.3,iPhone,62.5,,,,,,,,,,0.783,1,,,,,,,,,,,,,,,0,-0.274489796,-0.26377551,1,0,0,0.783,button_left_main,-0.274489796,-0.26377551,1,0,0,,0,77,77,120,1,RINED,C,old,z,./images/RINED.png,,,,,,,,,,,,,,,,,,,,,,,,,,,,,,,,,
,,,,,,,,,,,,,,,,,5c09016cb65da90001a946a7,29,2022-02-12_13h37.10.939,lexical_decision_task_DD_L2,2021.2.3,iPhone,62.5,,,,,,,,,,0.565,1,,,,,,,,,,,,,,,0,0.35,-0.275,1,0,0,0.565,button_right_main,0.35,-0.275,1,0,0,,0,78,78,45,1,KITTEN,HB,old,m,./images/KITTENHB.png,,,,,,,,,,,,,,,,,,,,,,,,,,,,,,,,,
,,,,,,,,,,,,,,,,,5c09016cb65da90001a946a7,29,2022-02-12_13h37.10.939,lexical_decision_task_DD_L2,2021.2.3,iPhone,62.5,,,,,,,,,,0.482,1,,,,,,,,,,,,,,,0,0.31122449,-0.276020408,1,0,0,0.482,button_right_main,0.31122449,-0.276020408,1,0,0,,0,79,79,5,1,PASTA,C,old,m,./images/PASTA.png,,,,,,,,,,,,,,,,,,,,,,,,,,,,,,,,,
,,,,,,,,,,,,,,,,,5c09016cb65da90001a946a7,29,2022-02-12_13h37.10.939,lexical_decision_task_DD_L2,2021.2.3,iPhone,62.5,,,,,,,,,,0.699,1,,,,,,,,,,,,,,,0,-0.340816327,-0.314795918,1,0,0,0.699,button_left_main,-0.340816327,-0.314795918,1,0,0,,0,80,80,93,1,SMONE,C,old,z,./images/SMONE.png,,,,,,,,,,,,,,,,,,,,,,,,,,,,,,,,,
,,,,,,,,,,,,,,,,,5c09016cb65da90001a946a7,29,2022-02-12_13h37.10.939,lexical_decision_task_DD_L2,2021.2.3,iPhone,62.5,,,,,,,,,,0.666,1,,,,,,,,,,,,,,,0,0.394897959,-0.329081633,1,0,0,0.666,button_right_main,0.394897959,-0.329081633,1,0,0,,0,81,81,48,1,SPORT,HB,old,m,./images/SPORTHB.png,,,,,,,,,,,,,,,,,,,,,,,,,,,,,,,,,
,,,,,,,,,,,,,,,,,5c09016cb65da90001a946a7,29,2022-02-12_13h37.10.939,lexical_decision_task_DD_L2,2021.2.3,iPhone,62.5,,,,,,,,,,0.483,1,,,,,,,,,,,,,,,0,0.326530612,-0.29744898,1,0,0,0.483,button_right_main,0.326530612,-0.29744898,1,0,0,,0,82,82,82,1,SUNSET,LB,old,m,./images/SUNSETLB.png,,,,,,,,,,,,,,,,,,,,,,,,,,,,,,,,,
,,,,,,,,,,,,,,,,,5c09016cb65da90001a946a7,29,2022-02-12_13h37.10.939,lexical_decision_task_DD_L2,2021.2.3,iPhone,62.5,,,,,,,,,,0.7,1,,,,,,,,,,,,,,,0,0.366326531,-0.309693878,1,0,0,0.7,button_right_main,0.135714286,-0.416836735,1,0,0,,0,83,83,76,1,INFANT,LB,old,m,./images/INFANTLB.png,break_done_button,,,,,,,,,,,,,,,,,,,,,,,,,,,,,,,,
,,,,,,,,,,,,,,,,,5c09016cb65da90001a946a7,29,2022-02-12_13h37.10.939,lexical_decision_task_DD_L2,2021.2.3,iPhone,62.5,,,,,,,,,,0.483,1,,,,,,,,,,,,,,,0,0.324489796,-0.314795918,1,0,0,0.483,button_right_main,0.324489796,-0.314795918,1,0,0,,0,84,84,51,1,ONION,HB,old,m,./images/ONIONHB.png,,,,,,,,,,,,,,,,,,,,,,,,,,,,,,,,,
,,,,,,,,,,,,,,,,,5c09016cb65da90001a946a7,29,2022-02-12_13h37.10.939,lexical_decision_task_DD_L2,2021.2.3,iPhone,62.5,,,,,,,,,,0.749,1,,,,,,,,,,,,,,,0,-0.334693878,-0.305612245,1,0,0,0.749,button_left_main,-0.334693878,-0.305612245,1,0,0,,0,85,85,110,1,CRUNK,LB,old,z,./images/CRUNKLB.png,,,,,,,,,,,,,,,,,,,,,,,,,,,,,,,,,
,,,,,,,,,,,,,,,,,5c09016cb65da90001a946a7,29,2022-02-12_13h37.10.939,lexical_decision_task_DD_L2,2021.2.3,iPhone,62.5,,,,,,,,,,0.783,1,,,,,,,,,,,,,,,0,-0.334693878,-0.262755102,1,0,0,0.783,button_left_main,-0.334693878,-0.262755102,1,0,0,,0,86,86,100,1,DRIBS,HB,old,z,./images/DRIBSHB.png,,,,,,,,,,,,,,,,,,,,,,,,,,,,,,,,,
,,,,,,,,,,,,,,,,,5c09016cb65da90001a946a7,29,2022-02-12_13h37.10.939,lexical_decision_task_DD_L2,2021.2.3,iPhone,62.5,,,,,,,,,,0.582,1,,,,,,,,,,,,,,,0,-0.351020408,-0.294387755,1,0,0,0.582,button_left_main,-0.351020408,-0.294387755,1,0,0,,0,87,87,150,1,NOOLS,C,old,z,./images/NOOLS.png,,,,,,,,,,,,,,,,,,,,,,,,,,,,,,,,,
,,,,,,,,,,,,,,,,,5c09016cb65da90001a946a7,29,2022-02-12_13h37.10.939,lexical_decision_task_DD_L2,2021.2.3,iPhone,62.5,,,,,,,,,,0.766,1,,,,,,,,,,,,,,,0,-0.360204082,-0.267857143,1,0,0,0.766,button_left_main,-0.360204082,-0.267857143,1,0,0,,0,88,88,88,1,GLUSH,HB,old,z,./images/GLUSHHB.png,,,,,,,,,,,,,,,,,,,,,,,,,,,,,,,,,
,,,,,,,,,,,,,,,,,5c09016cb65da90001a946a7,29,2022-02-12_13h37.10.939,lexical_decision_task_DD_L2,2021.2.3,iPhone,62.5,,,,,,,,,,0.683,1,,,,,,,,,,,,,,,0,-0.357142857,-0.330102041,1,0,0,0.683,button_left_main,-0.357142857,-0.330102041,1,0,0,,0,89,89,121,1,CEERS,HB,old,z,./images/CEERSHB.png,,,,,,,,,,,,,,,,,,,,,,,,,,,,,,,,,
,,,,,,,,,,,,,,,,,5c09016cb65da90001a946a7,29,2022-02-12_13h37.10.939,lexical_decision_task_DD_L2,2021.2.3,iPhone,62.5,,,,,,,,,,0.716,1,,,,,,,,,,,,,,,0,0.396938776,-0.305612245,1,0,0,0.716,button_right_main,0.396938776,-0.305612245,1,0,0,,0,90,90,70,1,URINE,LB,old,m,./images/URINELB.png,,,,,,,,,,,,,,,,,,,,,,,,,,,,,,,,,
,,,,,,,,,,,,,,,,,5c09016cb65da90001a946a7,29,2022-02-12_13h37.10.939,lexical_decision_task_DD_L2,2021.2.3,iPhone,62.5,,,,,,,,,,0.616,1,,,,,,,,,,,,,,,0,-0.373469388,-0.305612245,1,0,0,0.616,button_left_main,-0.373469388,-0.305612245,1,0,0,,0,91,91,144,1,NAIRY,C,old,z,./images/NAIRY.png,,,,,,,,,,,,,,,,,,,,,,,,,,,,,,,,,
,,,,,,,,,,,,,,,,,5c09016cb65da90001a946a7,29,2022-02-12_13h37.10.939,lexical_decision_task_DD_L2,2021.2.3,iPhone,62.5,,,,,,,,,,0.749,1,,,,,,,,,,,,,,,0,0.357142857,-0.327040816,1,0,0,0.749,button_right_main,0.357142857,-0.327040816,1,0,0,,0,92,92,73,1,SNACK,LB,old,m,./images/SNACKLB.png,,,,,,,,,,,,,,,,,,,,,,,,,,,,,,,,,
,,,,,,,,,,,,,,,,,5c09016cb65da90001a946a7,29,2022-02-12_13h37.10.939,lexical_decision_task_DD_L2,2021.2.3,iPhone,62.5,,,,,,,,,,0.55,1,,,,,,,,,,,,,,,0,0.392857143,-0.362755102,1,0,0,0.55,button_right_main,0.392857143,-0.362755102,1,0,0,,0,93,93,22,1,MELON,LB,old,m,./images/MELONLB.png,,,,,,,,,,,,,,,,,,,,,,,,,,,,,,,,,
,,,,,,,,,,,,,,,,,5c09016cb65da90001a946a7,29,2022-02-12_13h37.10.939,lexical_decision_task_DD_L2,2021.2.3,iPhone,62.5,,,,,,,,,,0.899,1,,,,,,,,,,,,,,,0,-0.363265306,-0.28622449,1,0,0,0.899,button_left_main,-0.363265306,-0.28622449,1,0,0,,0,94,94,106,1,CLUMS,HB,old,z,./images/CLUMSHB.png,,,,,,,,,,,,,,,,,,,,,,,,,,,,,,,,,
,,,,,,,,,,,,,,,,,5c09016cb65da90001a946a7,29,2022-02-12_13h37.10.939,lexical_decision_task_DD_L2,2021.2.3,iPhone,62.5,,,,,,,,,,0.599,1,,,,,,,,,,,,,,,0,0.364285714,-0.276020408,1,0,0,0.599,button_right_main,0.364285714,-0.276020408,1,0,0,,0,95,95,50,1,MALLET,C,old,m,./images/MALLET.png,,,,,,,,,,,,,,,,,,,,,,,,,,,,,,,,,
,,,,,,,,,,,,,,,,,5c09016cb65da90001a946a7,29,2022-02-12_13h37.10.939,lexical_decision_task_DD_L2,2021.2.3,iPhone,62.5,,,,,,,,,,0.549,1,,,,,,,,,,,,,,,0,0.421428571,-0.298469388,1,0,0,0.549,button_right_main,0.421428571,-0.298469388,1,0,0,,0,96,96,55,1,MUFFIN,LB,old,m,./images/MUFFINLB.png,,,,,,,,,,,,,,,,,,,,,,,,,,,,,,,,,
,,,,,,,,,,,,,,,,,5c09016cb65da90001a946a7,29,2022-02-12_13h37.10.939,lexical_decision_task_DD_L2,2021.2.3,iPhone,62.5,,,,,,,,,,0.616,1,,,,,,,,,,,,,,,0,-0.341836735,-0.278061224,1,0,0,0.616,button_left_main,-0.341836735,-0.278061224,1,0,0,,0,97,97,152,1,FRAIN,LB,old,z,./images/FRAINLB.png,,,,,,,,,,,,,,,,,,,,,,,,,,,,,,,,,
,,,,,,,,,,,,,,,,,5c09016cb65da90001a946a7,29,2022-02-12_13h37.10.939,lexical_decision_task_DD_L2,2021.2.3,iPhone,62.5,,,,,,,,,,0.699,1,,,,,,,,,,,,,,,0,-0.355102041,-0.307653061,1,0,0,0.699,button_left_main,-0.355102041,-0.307653061,1,0,0,,0,98,98,148,1,JOMS,HB,old,z,./images/JOMSHB.png,,,,,,,,,,,,,,,,,,,,,,,,,,,,,,,,,
,,,,,,,,,,,,,,,,,5c09016cb65da90001a946a7,29,2022-02-12_13h37.10.939,lexical_decision_task_DD_L2,2021.2.3,iPhone,62.5,,,,,,,,,,0.583,1,,,,,,,,,,,,,,,0,0.45,-0.332142857,1,0,0,0.583,button_right_main,0.45,-0.332142857,1,0,0,,0,99,99,65,1,FARMER,C,old,m,./images/FARMER.png,,,,,,,,,,,,,,,,,,,,,,,,,,,,,,,,,
,,,,,,,,,,,,,,,,,5c09016cb65da90001a946a7,29,2022-02-12_13h37.10.939,lexical_decision_task_DD_L2,2021.2.3,iPhone,62.5,,,,,,,,,,0.582,1,,,,,,,,,,,,,,,0,0.395918367,-0.292346939,1,0,0,0.582,button_right_main,0.395918367,-0.292346939,1,0,0,,0,100,100,31,1,QUILL,LB,old,m,./images/QUILLLB.png,,,,,,,,,,,,,,,,,,,,,,,,,,,,,,,,,
,,,,,,,,,,,,,,,,,5c09016cb65da90001a946a7,29,2022-02-12_13h37.10.939,lexical_decision_task_DD_L2,2021.2.3,iPhone,62.5,,,,,,,,,,0.616,1,,,,,,,,,,,,,,,0,-0.325510204,-0.256632653,1,0,0,0.616,button_left_main,-0.325510204,-0.256632653,1,0,0,,0,101,101,129,1,PRANS,C,old,z,./images/PRANS.png,,,,,,,,,,,,,,,,,,,,,,,,,,,,,,,,,
,,,,,,,,,,,,,,,,,5c09016cb65da90001a946a7,29,2022-02-12_13h37.10.939,lexical_decision_task_DD_L2,2021.2.3,iPhone,62.5,,,,,,,,,,0.516,1,,,,,,,,,,,,,,,0,0.324489796,-0.23622449,1,0,0,0.516,button_right_main,0.324489796,-0.23622449,1,0,0,,0,102,102,17,1,SKIING,C,old,m,./images/SKIING.png,,,,,,,,,,,,,,,,,,,,,,,,,,,,,,,,,
,,,,,,,,,,,,,,,,,5c09016cb65da90001a946a7,29,2022-02-12_13h37.10.939,lexical_decision_task_DD_L2,2021.2.3,iPhone,62.5,,,,,,,,,,0.633,1,,,,,,,,,,,,,,,0,-0.360204082,-0.332142857,1,0,0,0.633,button_left_main,-0.360204082,-0.332142857,1,0,0,,0,103,103,151,1,TINKY,HB,old,z,./images/TINKYHB.png,,,,,,,,,,,,,,,,,,,,,,,,,,,,,,,,,
,,,,,,,,,,,,,,,,,5c09016cb65da90001a946a7,29,2022-02-12_13h37.10.939,lexical_decision_task_DD_L2,2021.2.3,iPhone,62.5,,,,,,,,,,0.501,1,,,,,,,,,,,,,,,0,0.382653061,-0.329081633,1,0,0,0.501,button_right_main,0.382653061,-0.329081633,1,0,0,,0,104,104,38,1,LADDER,C,old,m,./images/LADDER.png,,,,,,,,,,,,,,,,,,,,,,,,,,,,,,,,,
,,,,,,,,,,,,,,,,,5c09016cb65da90001a946a7,29,2022-02-12_13h37.10.939,lexical_decision_task_DD_L2,2021.2.3,iPhone,62.5,,,,,,,,,,0.699,1,,,,,,,,,,,,,,,0,0.335714286,-0.245408163,1,0,0,0.699,button_right_main,0.335714286,-0.245408163,1,0,0,,0,105,105,79,1,CRUST,LB,old,m,./images/CRUSTLB.png,,,,,,,,,,,,,,,,,,,,,,,,,,,,,,,,,
,,,,,,,,,,,,,,,,,5c09016cb65da90001a946a7,29,2022-02-12_13h37.10.939,lexical_decision_task_DD_L2,2021.2.3,iPhone,62.5,,,,,,,,,,0.932,1,,,,,,,,,,,,,,,0,-0.360204082,-0.317857143,1,0,0,0.932,button_left_main,-0.360204082,-0.317857143,1,0,0,,0,106,106,91,1,SHENS,HB,old,z,./images/SHENSHB.png,,,,,,,,,,,,,,,,,,,,,,,,,,,,,,,,,
,,,,,,,,,,,,,,,,,5c09016cb65da90001a946a7,29,2022-02-12_13h37.10.939,lexical_decision_task_DD_L2,2021.2.3,iPhone,62.5,,,,,,,,,,0.666,1,,,,,,,,,,,,,,,0,-0.304081633,-0.317857143,1,0,0,0.666,button_left_main,-0.304081633,-0.317857143,1,0,0,,0,107,107,135,1,JOODY,C,old,z,./images/JOODY.png,,,,,,,,,,,,,,,,,,,,,,,,,,,,,,,,,
,,,,,,,,,,,,,,,,,5c09016cb65da90001a946a7,29,2022-02-12_13h37.10.939,lexical_decision_task_DD_L2,2021.2.3,iPhone,62.5,,,,,,,,,,0.865,1,,,,,,,,,,,,,,,0,0.342857143,-0.270918367,1,0,0,0.865,button_right_main,0.342857143,-0.270918367,1,0,0,,0,108,108,13,1,MOTOR,LB,old,m,./images/MOTORLB.png,,,,,,,,,,,,,,,,,,,,,,,,,,,,,,,,,
,,,,,,,,,,,,,,,,,5c09016cb65da90001a946a7,29,2022-02-12_13h37.10.939,lexical_decision_task_DD_L2,2021.2.3,iPhone,62.5,,,,,,,,,,0.603,1,,,,,,,,,,,,,,,0,-0.326530612,-0.294387755,1,0,0,0.603,button_left_main,-0.326530612,-0.294387755,1,0,0,,0,109,109,134,1,TROSS,LB,old,z,./images/TROSSLB.png,,,,,,,,,,,,,,,,,,,,,,,,,,,,,,,,,
,,,,,,,,,,,,,,,,,5c09016cb65da90001a946a7,29,2022-02-12_13h37.10.939,lexical_decision_task_DD_L2,2021.2.3,iPhone,62.5,,,,,,,,,,0.55,1,,,,,,,,,,,,,,,0,-0.244897959,-0.303571429,1,0,0,0.55,button_left_main,-0.244897959,-0.303571429,1,0,0,,0,110,110,95,1,HANTY,LB,old,z,./images/HANTYLB.png,,,,,,,,,,,,,,,,,,,,,,,,,,,,,,,,,
,,,,,,,,,,,,,,,,,5c09016cb65da90001a946a7,29,2022-02-12_13h37.10.939,lexical_decision_task_DD_L2,2021.2.3,iPhone,62.5,,,,,,,,,,0.616,1,,,,,,,,,,,,,,,0,-0.301020408,-0.290306122,1,0,0,0.616,button_left_main,-0.301020408,-0.290306122,1,0,0,,0,111,111,107,1,FASKS,LB,old,z,./images/FASKSLB.png,,,,,,,,,,,,,,,,,,,,,,,,,,,,,,,,,
,,,,,,,,,,,,,,,,,5c09016cb65da90001a946a7,29,2022-02-12_13h37.10.939,lexical_decision_task_DD_L2,2021.2.3,iPhone,62.5,,,,,,,,,,0.548,1,,,,,,,,,,,,,,,0,0.360204082,-0.281122449,1,0,0,0.548,button_right_main,0.360204082,-0.281122449,1,0,0,,0,112,112,18,1,JAGUAR,HB,old,m,./images/JAGUARHB.png,,,,,,,,,,,,,,,,,,,,,,,,,,,,,,,,,
,,,,,,,,,,,,,,,,,5c09016cb65da90001a946a7,29,2022-02-12_13h37.10.939,lexical_decision_task_DD_L2,2021.2.3,iPhone,62.5,,,,,,,,,,0.582,1,,,,,,,,,,,,,,,0,-0.35,-0.271938776,1,0,0,0.582,button_left_main,-0.35,-0.271938776,1,0,0,,0,113,113,103,1,FLORT,HB,old,z,./images/FLORTHB.png,,,,,,,,,,,,,,,,,,,,,,,,,,,,,,,,,
,,,,,,,,,,,,,,,,,5c09016cb65da90001a946a7,29,2022-02-12_13h37.10.939,lexical_decision_task_DD_L2,2021.2.3,iPhone,62.5,,,,,,,,,,0.632,1,,,,,,,,,,,,,,,0,-0.345918367,-0.301530612,1,0,0,0.632,button_left_main,-0.345918367,-0.301530612,1,0,0,,0,114,114,142,1,PLASK,HB,old,z,./images/PLASKHB.png,,,,,,,,,,,,,,,,,,,,,,,,,,,,,,,,,
,,,,,,,,,,,,,,,,,5c09016cb65da90001a946a7,29,2022-02-12_13h37.10.939,lexical_decision_task_DD_L2,2021.2.3,iPhone,62.5,,,,,,,,,,0.649,1,,,,,,,,,,,,,,,0,0.363265306,-0.307653061,1,0,0,0.649,button_right_main,0.363265306,-0.307653061,1,0,0,,0,115,115,81,1,POODLE,HB,old,m,./images/POODLEHB.png,,,,,,,,,,,,,,,,,,,,,,,,,,,,,,,,,
,,,,,,,,,,,,,,,,,5c09016cb65da90001a946a7,29,2022-02-12_13h37.10.939,lexical_decision_task_DD_L2,2021.2.3,iPhone,62.5,,,,,,,,,,0.532,1,,,,,,,,,,,,,,,0,0.360204082,-0.264795918,1,0,0,0.532,button_right_main,0.360204082,-0.264795918,1,0,0,,0,116,116,28,1,FALCON,LB,old,m,./images/FALCONLB.png,,,,,,,,,,,,,,,,,,,,,,,,,,,,,,,,,
,,,,,,,,,,,,,,,,,5c09016cb65da90001a946a7,29,2022-02-12_13h37.10.939,lexical_decision_task_DD_L2,2021.2.3,iPhone,62.5,,,,,,,,,,0.666,0,,,,,,,,,,,,,,,0,-0.333673469,-0.275,1,0,0,0.666,button_left_main,-0.333673469,-0.275,1,0,0,,0,117,117,33,1,MAGGOT,HB,old,m,./images/MAGGOTHB.png,,,,,,,,,,,,,,,,,,,,,,,,,,,,,,,,,
,,,,,,,,,,,,,,,,,5c09016cb65da90001a946a7,29,2022-02-12_13h37.10.939,lexical_decision_task_DD_L2,2021.2.3,iPhone,62.5,,,,,,,,,,0.566,1,,,,,,,,,,,,,,,0,0.370408163,-0.299489796,1,0,0,0.566,button_right_main,0.370408163,-0.299489796,1,0,0,,0,118,118,14,1,PICKLE,C,old,m,./images/PICKLE.png,,,,,,,,,,,,,,,,,,,,,,,,,,,,,,,,,
,,,,,,,,,,,,,,,,,5c09016cb65da90001a946a7,29,2022-02-12_13h37.10.939,lexical_decision_task_DD_L2,2021.2.3,iPhone,62.5,,,,,,,,,,0.632,1,,,,,,,,,,,,,,,0,-0.284693878,-0.288265306,1,0,0,0.632,button_left_main,-0.284693878,-0.288265306,1,0,0,,0,119,119,113,1,LINEW,LB,old,z,./images/LINEWLB.png,,,,,,,,,,,,,,,,,,,,,,,,,,,,,,,,,
,,,,,,,,,,,,,,,,,5c09016cb65da90001a946a7,29,2022-02-12_13h37.10.939,lexical_decision_task_DD_L2,2021.2.3,iPhone,62.5,,,,,,,,,,0.75,1,,,,,,,,,,,,,,,0,-0.287755102,-0.246428571,1,0,0,0.75,button_left_main,-0.287755102,-0.246428571,1,0,0,,0,120,120,89,1,DRIEK,LB,old,z,./images/DRIEKLB.png,,,,,,,,,,,,,,,,,,,,,,,,,,,,,,,,,
,,,,,,,,,,,,,,,,,5c09016cb65da90001a946a7,29,2022-02-12_13h37.10.939,lexical_decision_task_DD_L2,2021.2.3,iPhone,62.5,,,,,,,,,,0.733,1,,,,,,,,,,,,,,,0,-0.378571429,-0.298469388,1,0,0,0.733,button_left_main,-0.378571429,-0.298469388,1,0,0,,0,121,121,146,1,MOOST,LB,old,z,./images/MOOSTLB.png,,,,,,,,,,,,,,,,,,,,,,,,,,,,,,,,,
,,,,,,,,,,,,,,,,,5c09016cb65da90001a946a7,29,2022-02-12_13h37.10.939,lexical_decision_task_DD_L2,2021.2.3,iPhone,62.5,,,,,,,,,,0.531,1,,,,,,,,,,,,,,,0,0.316326531,-0.30255102,1,0,0,0.531,button_right_main,0.316326531,-0.30255102,1,0,0,,0,122,122,61,1,CANDLE,LB,old,m,./images/CANDLELB.png,,,,,,,,,,,,,,,,,,,,,,,,,,,,,,,,,
,,,,,,,,,,,,,,,,,5c09016cb65da90001a946a7,29,2022-02-12_13h37.10.939,lexical_decision_task_DD_L2,2021.2.3,iPhone,62.5,,,,,,,,,,0.532,1,,,,,,,,,,,,,,,0,-0.337755102,-0.292346939,1,0,0,0.532,button_left_main,-0.337755102,-0.292346939,1,0,0,,0,123,123,153,1,CLUPS,C,old,z,./images/CLUPS.png,,,,,,,,,,,,,,,,,,,,,,,,,,,,,,,,,
,,,,,,,,,,,,,,,,,5c09016cb65da90001a946a7,29,2022-02-12_13h37.10.939,lexical_decision_task_DD_L2,2021.2.3,iPhone,62.5,,,,,,,,,,0.682,1,,,,,,,,,,,,,,,0,-0.313265306,-0.30255102,1,0,0,0.682,button_left_main,-0.313265306,-0.30255102,1,0,0,,0,124,124,92,1,PAIMS,LB,old,z,./images/PAIMSLB.png,,,,,,,,,,,,,,,,,,,,,,,,,,,,,,,,,
,,,,,,,,,,,,,,,,,5c09016cb65da90001a946a7,29,2022-02-12_13h37.10.939,lexical_decision_task_DD_L2,2021.2.3,iPhone,62.5,,,,,,,,,,0.85,1,,,,,,,,,,,,,,,0,0.354081633,-0.26377551,1,0,0,0.85,button_right_main,0.076530612,-0.355612245,1,0,0,,0,125,125,35,1,PEACH,C,old,m,./images/PEACH.png,break_done_button,,,,,,,,,,,,,,,,,,,,,,,,,,,,,,,,
,,,,,,,,,,,,,,,,,5c09016cb65da90001a946a7,29,2022-02-12_13h37.10.939,lexical_decision_task_DD_L2,2021.2.3,iPhone,62.5,,,,,,,,,,0.532,1,,,,,,,,,,,,,,,0,0.323469388,-0.322959184,1,0,0,0.532,button_right_main,0.323469388,-0.322959184,1,0,0,,0,126,126,40,1,SWING,LB,old,m,./images/SWINGLB.png,,,,,,,,,,,,,,,,,,,,,,,,,,,,,,,,,
,,,,,,,,,,,,,,,,,5c09016cb65da90001a946a7,29,2022-02-12_13h37.10.939,lexical_decision_task_DD_L2,2021.2.3,iPhone,62.5,,,,,,,,,,0.565,1,,,,,,,,,,,,,,,0,0.364285714,-0.265816327,1,0,0,0.565,button_right_main,0.364285714,-0.265816327,1,0,0,,0,127,127,4,1,MUSCLE,LB,old,m,./images/MUSCLELB.png,,,,,,,,,,,,,,,,,,,,,,,,,,,,,,,,,
,,,,,,,,,,,,,,,,,5c09016cb65da90001a946a7,29,2022-02-12_13h37.10.939,lexical_decision_task_DD_L2,2021.2.3,iPhone,62.5,,,,,,,,,,0.648,1,,,,,,,,,,,,,,,0,0.345918367,-0.327040816,1,0,0,0.648,button_right_main,0.345918367,-0.327040816,1,0,0,,0,128,128,74,1,CEMENT,C,old,m,./images/CEMENT.png,,,,,,,,,,,,,,,,,,,,,,,,,,,,,,,,,
,,,,,,,,,,,,,,,,,5c09016cb65da90001a946a7,29,2022-02-12_13h37.10.939,lexical_decision_task_DD_L2,2021.2.3,iPhone,62.5,,,,,,,,,,0.581,1,,,,,,,,,,,,,,,0,-0.305102041,-0.270918367,1,0,0,0.581,button_left_main,-0.305102041,-0.270918367,1,0,0,,0,129,129,117,1,STEEG,C,old,z,./images/STEEG.png,,,,,,,,,,,,,,,,,,,,,,,,,,,,,,,,,
,,,,,,,,,,,,,,,,,5c09016cb65da90001a946a7,29,2022-02-12_13h37.10.939,lexical_decision_task_DD_L2,2021.2.3,iPhone,62.5,,,,,,,,,,0.6,1,,,,,,,,,,,,,,,0,0.376530612,-0.310714286,1,0,0,0.6,button_right_main,0.376530612,-0.310714286,1,0,0,,0,130,130,39,1,SHELF,HB,old,m,./images/SHELFHB.png,,,,,,,,,,,,,,,,,,,,,,,,,,,,,,,,,
,,,,,,,,,,,,,,,,,5c09016cb65da90001a946a7,29,2022-02-12_13h37.10.939,lexical_decision_task_DD_L2,2021.2.3,iPhone,62.5,,,,,,,,,,0.634,1,,,,,,,,,,,,,,,0,0.357142857,-0.261734694,1,0,0,0.634,button_right_main,0.357142857,-0.261734694,1,0,0,,0,131,131,15,1,GREASE,HB,old,m,./images/GREASEHB.png,,,,,,,,,,,,,,,,,,,,,,,,,,,,,,,,,
,,,,,,,,,,,,,,,,,5c09016cb65da90001a946a7,29,2022-02-12_13h37.10.939,lexical_decision_task_DD_L2,2021.2.3,iPhone,62.5,,,,,,,,,,0.965,1,,,,,,,,,,,,,,,0,0.366326531,-0.328061224,1,0,0,0.965,button_right_main,0.366326531,-0.328061224,1,0,0,,0,132,132,69,1,COOKER,HB,old,m,./images/COOKERHB.png,,,,,,,,,,,,,,,,,,,,,,,,,,,,,,,,,
,,,,,,,,,,,,,,,,,5c09016cb65da90001a946a7,29,2022-02-12_13h37.10.939,lexical_decision_task_DD_L2,2021.2.3,iPhone,62.5,,,,,,,,,,0.582,1,,,,,,,,,,,,,,,0,0.369387755,-0.276020408,1,0,0,0.582,button_right_main,0.369387755,-0.276020408,1,0,0,,0,133,133,9,1,RHINO,HB,old,m,./images/RHINOHB.png,,,,,,,,,,,,,,,,,,,,,,,,,,,,,,,,,
,,,,,,,,,,,,,,,,,5c09016cb65da90001a946a7,29,2022-02-12_13h37.10.939,lexical_decision_task_DD_L2,2021.2.3,iPhone,62.5,,,,,,,,,,0.566,1,,,,,,,,,,,,,,,0,0.376530612,-0.292346939,1,0,0,0.566,button_right_main,0.376530612,-0.292346939,1,0,0,,0,134,134,41,1,STRING,C,old,m,./images/STRING.png,,,,,,,,,,,,,,,,,,,,,,,,,,,,,,,,,
,,,,,,,,,,,,,,,,,5c09016cb65da90001a946a7,29,2022-02-12_13h37.10.939,lexical_decision_task_DD_L2,2021.2.3,iPhone,62.5,,,,,,,,,,0.582,1,,,,,,,,,,,,,,,0,0.343877551,-0.283163265,1,0,0,0.582,button_right_main,0.343877551,-0.283163265,1,0,0,,0,135,135,12,1,SHORE,HB,old,m,./images/SHOREHB.png,,,,,,,,,,,,,,,,,,,,,,,,,,,,,,,,,
,,,,,,,,,,,,,,,,,5c09016cb65da90001a946a7,29,2022-02-12_13h37.10.939,lexical_decision_task_DD_L2,2021.2.3,iPhone,62.5,,,,,,,,,,0.799,1,,,,,,,,,,,,,,,0,-0.36122449,-0.312755102,1,0,0,0.799,button_left_main,-0.36122449,-0.312755102,1,0,0,,0,136,136,136,1,WERVE,HB,old,z,./images/WERVEHB.png,,,,,,,,,,,,,,,,,,,,,,,,,,,,,,,,,
,,,,,,,,,,,,,,,,,5c09016cb65da90001a946a7,29,2022-02-12_13h37.10.939,lexical_decision_task_DD_L2,2021.2.3,iPhone,62.5,,,,,,,,,,0.632,1,,,,,,,,,,,,,,,0,-0.324489796,-0.227040816,1,0,0,0.632,button_left_main,-0.324489796,-0.227040816,1,0,0,,0,137,137,163,1,GAMBA,HB,old,z,./images/GAMBAHB.png,,,,,,,,,,,,,,,,,,,,,,,,,,,,,,,,,
,,,,,,,,,,,,,,,,,5c09016cb65da90001a946a7,29,2022-02-12_13h37.10.939,lexical_decision_task_DD_L2,2021.2.3,iPhone,62.5,,,,,,,,,,0.582,1,,,,,,,,,,,,,,,0,0.332653061,-0.255612245,1,0,0,0.582,button_right_main,0.332653061,-0.255612245,1,0,0,,0,138,138,1,1,PLANK,LB,old,m,./images/PLANKLB.png,,,,,,,,,,,,,,,,,,,,,,,,,,,,,,,,,
,,,,,,,,,,,,,,,,,5c09016cb65da90001a946a7,29,2022-02-12_13h37.10.939,lexical_decision_task_DD_L2,2021.2.3,iPhone,62.5,,,,,,,,,,0.583,1,,,,,,,,,,,,,,,0,0.335714286,-0.307653061,1,0,0,0.583,button_right_main,0.335714286,-0.307653061,1,0,0,,0,139,139,64,1,JELLY,LB,old,m,./images/JELLYLB.png,,,,,,,,,,,,,,,,,,,,,,,,,,,,,,,,,
,,,,,,,,,,,,,,,,,5c09016cb65da90001a946a7,29,2022-02-12_13h37.10.939,lexical_decision_task_DD_L2,2021.2.3,iPhone,62.5,,,,,,,,,,0.6,1,,,,,,,,,,,,,,,0,-0.319387755,-0.271938776,1,0,0,0.6,button_left_main,-0.319387755,-0.271938776,1,0,0,,0,140,140,159,1,CUDDY,C,old,z,./images/CUDDY.png,,,,,,,,,,,,,,,,,,,,,,,,,,,,,,,,,
,,,,,,,,,,,,,,,,,5c09016cb65da90001a946a7,29,2022-02-12_13h37.10.939,lexical_decision_task_DD_L2,2021.2.3,iPhone,62.5,,,,,,,,,,0.665,1,,,,,,,,,,,,,,,0,-0.298979592,-0.30255102,1,0,0,0.665,button_left_main,-0.298979592,-0.30255102,1,0,0,,0,141,141,158,1,EGECT,LB,old,z,./images/EGECTLB.png,,,,,,,,,,,,,,,,,,,,,,,,,,,,,,,,,
,,,,,,,,,,,,,,,,,5c09016cb65da90001a946a7,29,2022-02-12_13h37.10.939,lexical_decision_task_DD_L2,2021.2.3,iPhone,62.5,,,,,,,,,,0.633,1,,,,,,,,,,,,,,,0,0.424489796,-0.343367347,1,0,0,0.633,button_right_main,0.424489796,-0.343367347,1,0,0,,0,142,142,80,1,WEASEL,C,old,m,./images/WEASEL.png,,,,,,,,,,,,,,,,,,,,,,,,,,,,,,,,,
,,,,,,,,,,,,,,,,,5c09016cb65da90001a946a7,29,2022-02-12_13h37.10.939,lexical_decision_task_DD_L2,2021.2.3,iPhone,62.5,,,,,,,,,,0.616,1,,,,,,,,,,,,,,,0,-0.337755102,-0.272959184,1,0,0,0.616,button_left_main,-0.337755102,-0.272959184,1,0,0,,0,143,143,138,1,PLICE,C,old,z,./images/PLICE.png,,,,,,,,,,,,,,,,,,,,,,,,,,,,,,,,,
,,,,,,,,,,,,,,,,,5c09016cb65da90001a946a7,29,2022-02-12_13h37.10.939,lexical_decision_task_DD_L2,2021.2.3,iPhone,62.5,,,,,,,,,,0.632,1,,,,,,,,,,,,,,,0,-0.317346939,-0.30255102,1,0,0,0.632,button_left_main,-0.317346939,-0.30255102,1,0,0,,0,144,144,140,1,DOVET,LB,old,z,./images/DOVETLB.png,,,,,,,,,,,,,,,,,,,,,,,,,,,,,,,,,
,,,,,,,,,,,,,,,,,5c09016cb65da90001a946a7,29,2022-02-12_13h37.10.939,lexical_decision_task_DD_L2,2021.2.3,iPhone,62.5,,,,,,,,,,0.548,1,,,,,,,,,,,,,,,0,-0.357142857,-0.294387755,1,0,0,0.548,button_left_main,-0.357142857,-0.294387755,1,0,0,,0,145,145,156,1,HIXES,C,old,z,./images/HIXES.png,,,,,,,,,,,,,,,,,,,,,,,,,,,,,,,,,
,,,,,,,,,,,,,,,,,5c09016cb65da90001a946a7,29,2022-02-12_13h37.10.939,lexical_decision_task_DD_L2,2021.2.3,iPhone,62.5,,,,,,,,,,0.649,1,,,,,,,,,,,,,,,0,0.351020408,-0.249489796,1,0,0,0.649,button_right_main,0.351020408,-0.249489796,1,0,0,,0,146,146,63,1,MIRROR,HB,old,m,./images/MIRRORHB.png,,,,,,,,,,,,,,,,,,,,,,,,,,,,,,,,,
,,,,,,,,,,,,,,,,,5c09016cb65da90001a946a7,29,2022-02-12_13h37.10.939,lexical_decision_task_DD_L2,2021.2.3,iPhone,62.5,,,,,,,,,,0.599,1,,,,,,,,,,,,,,,0,-0.326530612,-0.303571429,1,0,0,0.599,button_left_main,-0.326530612,-0.303571429,1,0,0,,0,147,147,99,1,BACKY,C,old,z,./images/BACKY.png,,,,,,,,,,,,,,,,,,,,,,,,,,,,,,,,,
,,,,,,,,,,,,,,,,,5c09016cb65da90001a946a7,29,2022-02-12_13h37.10.939,lexical_decision_task_DD_L2,2021.2.3,iPhone,62.5,,,,,,,,,,0.765,1,,,,,,,,,,,,,,,0,-0.309183673,-0.314795918,1,0,0,0.765,button_left_main,-0.309183673,-0.314795918,1,0,0,,0,148,148,130,1,CRILL,HB,old,z,./images/CRILLHB.png,,,,,,,,,,,,,,,,,,,,,,,,,,,,,,,,,
,,,,,,,,,,,,,,,,,5c09016cb65da90001a946a7,29,2022-02-12_13h37.10.939,lexical_decision_task_DD_L2,2021.2.3,iPhone,62.5,,,,,,,,,,0.682,1,,,,,,,,,,,,,,,0,0.354081633,-0.323979592,1,0,0,0.682,button_right_main,0.354081633,-0.323979592,1,0,0,,0,149,149,58,1,BABOON,LB,old,m,./images/BABOONLB.png,,,,,,,,,,,,,,,,,,,,,,,,,,,,,,,,,
,,,,,,,,,,,,,,,,,5c09016cb65da90001a946a7,29,2022-02-12_13h37.10.939,lexical_decision_task_DD_L2,2021.2.3,iPhone,62.5,,,,,,,,,,0.698,1,,,,,,,,,,,,,,,0,0.359183673,-0.281122449,1,0,0,0.698,button_right_main,0.359183673,-0.281122449,1,0,0,,0,150,150,21,1,KIDNEY,HB,old,m,./images/KIDNEYHB.png,,,,,,,,,,,,,,,,,,,,,,,,,,,,,,,,,
,,,,,,,,,,,,,,,,,5c09016cb65da90001a946a7,29,2022-02-12_13h37.10.939,lexical_decision_task_DD_L2,2021.2.3,iPhone,62.5,,,,,,,,,,0.798,1,,,,,,,,,,,,,,,0,-0.406122449,-0.267857143,1,0,0,0.798,button_left_main,-0.406122449,-0.267857143,1,0,0,,0,151,151,97,1,CHIDS,HB,old,z,./images/CHIDSHB.png,,,,,,,,,,,,,,,,,,,,,,,,,,,,,,,,,
,,,,,,,,,,,,,,,,,5c09016cb65da90001a946a7,29,2022-02-12_13h37.10.939,lexical_decision_task_DD_L2,2021.2.3,iPhone,62.5,,,,,,,,,,0.631,1,,,,,,,,,,,,,,,0,-0.332653061,-0.292346939,1,0,0,0.631,button_left_main,-0.332653061,-0.292346939,1,0,0,,0,152,152,108,1,GRUET,C,old,z,./images/GRUET.png,,,,,,,,,,,,,,,,,,,,,,,,,,,,,,,,,
,,,,,,,,,,,,,,,,,5c09016cb65da90001a946a7,29,2022-02-12_13h37.10.939,lexical_decision_task_DD_L2,2021.2.3,iPhone,62.5,,,,,,,,,,0.583,1,,,,,,,,,,,,,,,0,-0.301020408,-0.289285714,1,0,0,0.583,button_left_main,-0.301020408,-0.289285714,1,0,0,,0,153,153,96,1,KEAMS,C,old,z,./images/KEAMS.png,,,,,,,,,,,,,,,,,,,,,,,,,,,,,,,,,
,,,,,,,,,,,,,,,,,5c09016cb65da90001a946a7,29,2022-02-12_13h37.10.939,lexical_decision_task_DD_L2,2021.2.3,iPhone,62.5,,,,,,,,,,0.615,1,,,,,,,,,,,,,,,0,-0.343877551,-0.304591837,1,0,0,0.615,button_left_main,-0.343877551,-0.304591837,1,0,0,,0,154,154,137,1,JOOST,LB,old,z,./images/JOOSTLB.png,,,,,,,,,,,,,,,,,,,,,,,,,,,,,,,,,
,,,,,,,,,,,,,,,,,5c09016cb65da90001a946a7,29,2022-02-12_13h37.10.939,lexical_decision_task_DD_L2,2021.2.3,iPhone,62.5,,,,,,,,,,0.65,1,,,,,,,,,,,,,,,0,0.384693878,-0.310714286,1,0,0,0.65,button_right_main,0.384693878,-0.310714286,1,0,0,,0,155,155,78,1,LITTER,HB,old,m,./images/LITTERHB.png,,,,,,,,,,,,,,,,,,,,,,,,,,,,,,,,,
,,,,,,,,,,,,,,,,,5c09016cb65da90001a946a7,29,2022-02-12_13h37.10.939,lexical_decision_task_DD_L2,2021.2.3,iPhone,62.5,,,,,,,,,,0.481,1,,,,,,,,,,,,,,,0,0.364285714,-0.325,1,0,0,0.481,button_right_main,0.364285714,-0.325,1,0,0,,0,156,156,56,1,PACKET,C,old,m,./images/PACKET.png,,,,,,,,,,,,,,,,,,,,,,,,,,,,,,,,,
,,,,,,,,,,,,,,,,,5c09016cb65da90001a946a7,29,2022-02-12_13h37.10.939,lexical_decision_task_DD_L2,2021.2.3,iPhone,62.5,,,,,,,,,,0.498,1,,,,,,,,,,,,,,,0,0.366326531,-0.281122449,1,0,0,0.498,button_right_main,0.366326531,-0.281122449,1,0,0,,0,157,157,77,1,COUCH,C,old,m,./images/COUCH.png,,,,,,,,,,,,,,,,,,,,,,,,,,,,,,,,,
,,,,,,,,,,,,,,,,,5c09016cb65da90001a946a7,29,2022-02-12_13h37.10.939,lexical_decision_task_DD_L2,2021.2.3,iPhone,62.5,,,,,,,,,,0.815,1,,,,,,,,,,,,,,,0,-0.262244898,-0.385204082,1,0,0,0.815,button_left_main,-0.262244898,-0.385204082,1,0,0,,0,158,158,128,1,GRIFT,LB,old,z,./images/GRIFTLB.png,,,,,,,,,,,,,,,,,,,,,,,,,,,,,,,,,
,,,,,,,,,,,,,,,,,5c09016cb65da90001a946a7,29,2022-02-12_13h37.10.939,lexical_decision_task_DD_L2,2021.2.3,iPhone,62.5,,,,,,,,,,0.515,1,,,,,,,,,,,,,,,0,-0.371428571,-0.288265306,1,0,0,0.515,button_left_main,-0.371428571,-0.288265306,1,0,0,,0,159,159,161,1,BLAPS,LB,old,z,./images/BLAPSLB.png,,,,,,,,,,,,,,,,,,,,,,,,,,,,,,,,,
,,,,,,,,,,,,,,,,,5c09016cb65da90001a946a7,29,2022-02-12_13h37.10.939,lexical_decision_task_DD_L2,2021.2.3,iPhone,62.5,,,,,,,,,,1.065,1,,,,,,,,,,,,,,,0,-0.326530612,-0.310714286,1,0,0,1.065,button_left_main,-0.326530612,-0.310714286,1,0,0,,0,160,160,115,1,MAWNS,HB,old,z,./images/MAWNSHB.png,,,,,,,,,,,,,,,,,,,,,,,,,,,,,,,,,
,,,,,,,,,,,,,,,,,5c09016cb65da90001a946a7,29,2022-02-12_13h37.10.939,lexical_decision_task_DD_L2,2021.2.3,iPhone,62.5,,,,,,,,,,0.6,1,,,,,,,,,,,,,,,0,-0.301020408,-0.305612245,1,0,0,0.6,button_left_main,-0.301020408,-0.305612245,1,0,0,,0,161,161,133,1,POWDY,HB,old,z,./images/POWDYHB.png,,,,,,,,,,,,,,,,,,,,,,,,,,,,,,,,,
,,,,,,,,,,,,,,,,,5c09016cb65da90001a946a7,29,2022-02-12_13h37.10.939,lexical_decision_task_DD_L2,2021.2.3,iPhone,62.5,,,,,,,,,,0.5,0,,,,,,,,,,,,,,,0,0.359183673,-0.281122449,1,0,0,0.5,button_right_main,0.359183673,-0.281122449,1,0,0,,0,162,162,87,1,TRING,C,old,z,./images/TRING.png,,,,,,,,,,,,,,,,,,,,,,,,,,,,,,,,,
,,,,,,,,,,,,,,,,,5c09016cb65da90001a946a7,29,2022-02-12_13h37.10.939,lexical_decision_task_DD_L2,2021.2.3,iPhone,62.5,,,,,,,,,,1.15,1,,,,,,,,,,,,,,,0,-0.384693878,-0.330102041,1,0,0,1.15,button_left_main,-0.384693878,-0.330102041,1,0,0,,0,163,163,154,1,THINT,HB,old,z,./images/THINTHB.png,,,,,,,,,,,,,,,,,,,,,,,,,,,,,,,,,
,,,,,,,,,,,,,,,,,5c09016cb65da90001a946a7,29,2022-02-12_13h37.10.939,lexical_decision_task_DD_L2,2021.2.3,iPhone,62.5,,,,,,,,,,0.649,1,,,,,,,,,,,,,,,0,0.32244898,-0.285204082,1,0,0,0.649,button_right_main,0.32244898,-0.285204082,1,0,0,,0,164,164,75,1,GRAIN,HB,old,m,./images/GRAINHB.png,,,,,,,,,,,,,,,,,,,,,,,,,,,,,,,,,
,,,,,,,,,,,,,,,,,5c09016cb65da90001a946a7,29,2022-02-12_13h37.10.939,lexical_decision_task_DD_L2,2021.2.3,iPhone,62.5,,,,,,,,,,0.733,1,,,,,,,,,,,,,,,0,-0.346938776,-0.317857143,1,0,0,0.733,button_left_main,-0.346938776,-0.317857143,1,0,0,,0,165,165,145,1,LAMEL,HB,old,z,./images/LAMELHB.png,,,,,,,,,,,,,,,,,,,,,,,,,,,,,,,,,
,,,,,,,,,,,,,,,,,5c09016cb65da90001a946a7,29,2022-02-12_13h37.10.939,lexical_decision_task_DD_L2,2021.2.3,iPhone,62.5,,,,,,,,,,1.185,1,,,,,,,,,,,,,,,0,-0.352040816,-0.278061224,1,0,0,1.185,button_left_main,-0.352040816,-0.278061224,1,0,0,,0,166,166,166,1,SHORY,HB,old,z,./images/SHORYHB.png,,,,,,,,,,,,,,,,,,,,,,,,,,,,,,,,,
,,,,,,,,,,,,,,,,,5c09016cb65da90001a946a7,29,2022-02-12_13h37.10.939,lexical_decision_task_DD_L2,2021.2.3,iPhone,62.5,,,,,,,,,,0.715,1,,,,,,,,,,,,,,,0,-0.344897959,-0.305612245,1,0,0,0.715,button_left_main,-0.344897959,-0.305612245,1,0,0,,0,167,167,105,1,MOKER,C,old,z,./images/MOKER.png,,,,,,,,,,,,,,,,,,,,,,,,,,,,,,,,,
,,,,,,,,,,,,,,,,,5c09016cb65da90001a946a7,29,2022-02-12_13h37.10.939,lexical_decision_task_DD_L2,2021.2.3,iPhone,62.5,,,,,,,,,,,,,,,,,,,,,,,,,,,,,,,,,,,,,,,,,,,,,,How likely will it be that you will recognize the words presented slighly blurred on a scale of 0 (not likely) to 100 (most likely)?,,,,,-0.021428571,-0.40255102,1,0,0,jol_adv,6,4.966,0,0,0,1,1,,,,,,,,,,,,,,,,,,,
,,,,,,,,,,,,,,,,,5c09016cb65da90001a946a7,29,2022-02-12_13h37.10.939,lexical_decision_task_DD_L2,2021.2.3,iPhone,62.5,,,,,,,,,,,,,,,,,,,,,,,,,,,,,,,,,,,,,,,,,,,,,,How likely will it be that you will recognize the words presented very blurred on a scale of 0 (not likely) to 100 (most likely)?,,,,,,,,,,,5,7.543,0,1,1,2,1,,,,,,,,,,,,,,,,,,,
,,,,,,,,,,,,,,,,,5c09016cb65da90001a946a7,29,2022-02-12_13h37.10.939,lexical_decision_task_DD_L2,2021.2.3,iPhone,62.5,,,,,,,,,,,,,,,,,,,,,,,,,,,,,,,,,,,,,,,,,,,,,,How likely will it be that you will recognize the words presented clearly on a scale of 0 (not likely) to 100 (most likely)?,,,,,,,,,,,6,3.661,0,2,2,0,1,,,,,,,,,,,,,,,,,,,
,0.093877551,-0.387244898,1,0,0,instr_done_button,,,,,,1,test,"In the next phase you will be presented with the words from the the first phase. Your job is to decide whether you remember seeing the word or not. If you remember seeing the word press ""old"" or type ""m"". If you do not remember seeing the word press ""new"" or type ""z"". Please press the space bar or click on continue to begin. ",,,5c09016cb65da90001a946a7,29,2022-02-12_13h37.10.939,lexical_decision_task_DD_L2,2021.2.3,iPhone,62.5,,,,,,,,,,,,,,,,,,,,,,,,,,,,,,,,,,,,,,,,,,,,,,,,,,,,,,,,,,,,,,,,0,0,0,0,1,,,,,,,,,,,,,,
,0.107142857,-0.394387755,1,0,0,instr_done_button,,,,,,1,test,"In the next phase you will be presented with the words from the the first phase. Your job is to decide whether you remember seeing the word or not. If you remember seeing the word press ""old"" or type ""m"". If you do not remember seeing the word press ""new"" or type ""z"". Please press the space bar or click on continue to begin. ",,,5c09016cb65da90001a946a7,29,2022-02-12_13h37.10.939,lexical_decision_task_DD_L2,2021.2.3,iPhone,62.5,,,,,,,,,,,,,,,,,,,,,,,,,,,,,,,,,,,,,,,,,,,,,,,,,,,,,,,,,,,,,,,,1,0,1,0,1,,,,,,,,,,,,,,
,0.017346939,-0.388265306,1,0,0,instr_done_button,,,,,,1,test,"In the next phase you will be presented with the words from the the first phase. Your job is to decide whether you remember seeing the word or not. If you remember seeing the word press ""old"" or type ""m"". If you do not remember seeing the word press ""new"" or type ""z"". Please press the space bar or click on continue to begin. ",,,5c09016cb65da90001a946a7,29,2022-02-12_13h37.10.939,lexical_decision_task_DD_L2,2021.2.3,iPhone,62.5,,,,,,,,,,,,,,,,,,,,,,,,,,,,,,,,,,,,,,,,,,,,,,,,,,,,,,,,,,,,,,,,2,0,2,0,1,,,,,,,,,,,,,,
,0.107142857,-0.384183673,1,0,0,instr_done_button,,,,,,1,test,"In the next phase you will be presented with the words from the the first phase. Your job is to decide whether you remember seeing the word or not. If you remember seeing the word press ""old"" or type ""m"". If you do not remember seeing the word press ""new"" or type ""z"". Please press the space bar or click on continue to begin. ",,,5c09016cb65da90001a946a7,29,2022-02-12_13h37.10.939,lexical_decision_task_DD_L2,2021.2.3,iPhone,62.5,,,,,,,,,,,,,,,,,,,,,,,,,,,,,,,,,,,,,,,,,,,,,,,,,,,,,,,,,,,,,,,,3,0,3,0,1,,,,,,,,,,,,,,
,-0.063265306,-0.364795918,1,0,0,instr_done_button,,,,,,1,test,"In the next phase you will be presented with the words from the the first phase. Your job is to decide whether you remember seeing the word or not. If you remember seeing the word press ""old"" or type ""m"". If you do not remember seeing the word press ""new"" or type ""z"". Please press the space bar or click on continue to begin. ",,,5c09016cb65da90001a946a7,29,2022-02-12_13h37.10.939,lexical_decision_task_DD_L2,2021.2.3,iPhone,62.5,,,,,,,,,,,,,,,,,,,,,,,,,,,,,,,,,,,,,,,,,,,,,,,,,,,,,,,,,,,,,,,,4,0,4,0,1,,,,,,,,,,,,,,
,,,,,,,,,,,,,,,,,5c09016cb65da90001a946a7,29,2022-02-12_13h37.10.939,lexical_decision_task_DD_L2,2021.2.3,iPhone,62.5,,,,,,,,,,5.013,1,,,,,,,,,,,,,,,,,,,,,,,0.367346939,-0.308673469,1,0,0,,,,,,,GRAIN,HB,m,y,./images/GRAINHB.png,,,,,,,,,,,,,,,,,,,,,0,0.367346939,-0.308673469,1,0,0,5.013,button_right_test,0,0,0,75,1
,,,,,,,,,,,,,,,,,5c09016cb65da90001a946a7,29,2022-02-12_13h37.10.939,lexical_decision_task_DD_L2,2021.2.3,iPhone,62.5,,,,,,,,,,0.898,1,,,,,,,,,,,,,,,,,,,,,,,0.405102041,-0.334183673,1,0,0,,,,,,,BABOON,LB,m,y,./images/BABOONLB.png,,,,,,,,,,,,,,,,,,,,,0,0.405102041,-0.334183673,1,0,0,0.898,button_right_test,0,1,1,58,1
,,,,,,,,,,,,,,,,,5c09016cb65da90001a946a7,29,2022-02-12_13h37.10.939,lexical_decision_task_DD_L2,2021.2.3,iPhone,62.5,,,,,,,,,,1.248,0,,,,,,,,,,,,,,,,,,,,,,,0.359183673,-0.292346939,1,0,0,,,,,,,CLIFF,C,z,y,./images/CLIFF.png,,,,,,,,,,,,,,,,,,,,,0,0.359183673,-0.292346939,1,0,0,1.248,button_right_test,0,2,2,92,1
,,,,,,,,,,,,,,,,,5c09016cb65da90001a946a7,29,2022-02-12_13h37.10.939,lexical_decision_task_DD_L2,2021.2.3,iPhone,62.5,,,,,,,,,,1.432,0,,,,,,,,,,,,,,,,,,,,,,,-0.351020408,-0.328061224,1,0,0,,,,,,,WRIST,LB,m,y,./images/WRISTLB.png,,,,,,,,,,,,,,,,,,,,,0,-0.351020408,-0.328061224,1,0,0,1.432,button_left_test,0,3,3,25,1
,,,,,,,,,,,,,,,,,5c09016cb65da90001a946a7,29,2022-02-12_13h37.10.939,lexical_decision_task_DD_L2,2021.2.3,iPhone,62.5,,,,,,,,,,0.932,1,,,,,,,,,,,,,,,,,,,,,,,0.394897959,-0.323979592,1,0,0,,,,,,,CRADLE,C,m,y,./images/CRADLE.png,,,,,,,,,,,,,,,,,,,,,0,0.394897959,-0.323979592,1,0,0,0.932,button_right_test,0,4,4,20,1
,,,,,,,,,,,,,,,,,5c09016cb65da90001a946a7,29,2022-02-12_13h37.10.939,lexical_decision_task_DD_L2,2021.2.3,iPhone,62.5,,,,,,,,,,1.298,1,,,,,,,,,,,,,,,,,,,,,,,-0.318367347,-0.337244898,1,0,0,,,,,,,FLASK,HB,z,y,./images/FLASKHB.png,,,,,,,,,,,,,,,,,,,,,0,-0.318367347,-0.337244898,1,0,0,1.298,button_left_test,0,5,5,156,1
,,,,,,,,,,,,,,,,,5c09016cb65da90001a946a7,29,2022-02-12_13h37.10.939,lexical_decision_task_DD_L2,2021.2.3,iPhone,62.5,,,,,,,,,,0.932,1,,,,,,,,,,,,,,,,,,,,,,,-0.305102041,-0.310714286,1,0,0,,,,,,,MUMMY,LB,z,y,./images/MUMMYLB.png,,,,,,,,,,,,,,,,,,,,,0,-0.305102041,-0.310714286,1,0,0,0.932,button_left_test,0,6,6,130,1
,,,,,,,,,,,,,,,,,5c09016cb65da90001a946a7,29,2022-02-12_13h37.10.939,lexical_decision_task_DD_L2,2021.2.3,iPhone,62.5,,,,,,,,,,0.932,1,,,,,,,,,,,,,,,,,,,,,,,0.403061224,-0.327040816,1,0,0,,,,,,,JAGUAR,HB,m,y,./images/JAGUARHB.png,,,,,,,,,,,,,,,,,,,,,0,0.403061224,-0.327040816,1,0,0,0.932,button_right_test,0,7,7,18,1
,,,,,,,,,,,,,,,,,5c09016cb65da90001a946a7,29,2022-02-12_13h37.10.939,lexical_decision_task_DD_L2,2021.2.3,iPhone,62.5,,,,,,,,,,2.832,0,,,,,,,,,,,,,,,,,,,,,,,0.356122449,-0.291326531,1,0,0,,,,,,,COLLAR,HB,z,y,./images/COLLARHB.png,,,,,,,,,,,,,,,,,,,,,0,0.356122449,-0.291326531,1,0,0,2.832,button_right_test,0,8,8,99,1
,,,,,,,,,,,,,,,,,5c09016cb65da90001a946a7,29,2022-02-12_13h37.10.939,lexical_decision_task_DD_L2,2021.2.3,iPhone,62.5,,,,,,,,,,0.75,1,,,,,,,,,,,,,,,,,,,,,,,0.362244898,-0.271938776,1,0,0,,,,,,,ONION,HB,m,y,./images/ONIONHB.png,,,,,,,,,,,,,,,,,,,,,0,0.362244898,-0.271938776,1,0,0,0.75,button_right_test,0,9,9,51,1
,,,,,,,,,,,,,,,,,5c09016cb65da90001a946a7,29,2022-02-12_13h37.10.939,lexical_decision_task_DD_L2,2021.2.3,iPhone,62.5,,,,,,,,,,0.848,1,,,,,,,,,,,,,,,,,,,,,,,0.353061224,-0.261734694,1,0,0,,,,,,,MOTOR,LB,m,y,./images/MOTORLB.png,,,,,,,,,,,,,,,,,,,,,0,0.353061224,-0.261734694,1,0,0,0.848,button_right_test,0,10,10,13,1
,,,,,,,,,,,,,,,,,5c09016cb65da90001a946a7,29,2022-02-12_13h37.10.939,lexical_decision_task_DD_L2,2021.2.3,iPhone,62.5,,,,,,,,,,0.749,1,,,,,,,,,,,,,,,,,,,,,,,0.354081633,-0.321938776,1,0,0,,,,,,,WEASEL,C,m,y,./images/WEASEL.png,,,,,,,,,,,,,,,,,,,,,0,0.354081633,-0.321938776,1,0,0,0.749,button_right_test,0,11,11,80,1
,,,,,,,,,,,,,,,,,5c09016cb65da90001a946a7,29,2022-02-12_13h37.10.939,lexical_decision_task_DD_L2,2021.2.3,iPhone,62.5,,,,,,,,,,1.199,1,,,,,,,,,,,,,,,,,,,,,,,-0.354081633,-0.307653061,1,0,0,,,,,,,DESERT,LB,z,y,./images/DESERTLB.png,,,,,,,,,,,,,,,,,,,,,0,-0.354081633,-0.307653061,1,0,0,1.199,button_left_test,0,12,12,136,1
,,,,,,,,,,,,,,,,,5c09016cb65da90001a946a7,29,2022-02-12_13h37.10.939,lexical_decision_task_DD_L2,2021.2.3,iPhone,62.5,,,,,,,,,,0.766,1,,,,,,,,,,,,,,,,,,,,,,,-0.28877551,-0.282142857,1,0,0,,,,,,,SAUCE,HB,z,y,./images/SAUCEHB.png,,,,,,,,,,,,,,,,,,,,,0,-0.28877551,-0.282142857,1,0,0,0.766,button_left_test,0,13,13,135,1
,,,,,,,,,,,,,,,,,5c09016cb65da90001a946a7,29,2022-02-12_13h37.10.939,lexical_decision_task_DD_L2,2021.2.3,iPhone,62.5,,,,,,,,,,0.882,1,,,,,,,,,,,,,,,,,,,,,,,0.357142857,-0.29744898,1,0,0,,,,,,,COOKER,HB,m,y,./images/COOKERHB.png,,,,,,,,,,,,,,,,,,,,,0,0.357142857,-0.29744898,1,0,0,0.882,button_right_test,0,14,14,69,1
,,,,,,,,,,,,,,,,,5c09016cb65da90001a946a7,29,2022-02-12_13h37.10.939,lexical_decision_task_DD_L2,2021.2.3,iPhone,62.5,,,,,,,,,,0.998,0,,,,,,,,,,,,,,,,,,,,,,,0.363265306,-0.276020408,1,0,0,,,,,,,DIVER,HB,z,y,./images/DIVERHB.png,,,,,,,,,,,,,,,,,,,,,0,0.363265306,-0.276020408,1,0,0,0.998,button_right_test,0,15,15,93,1
,,,,,,,,,,,,,,,,,5c09016cb65da90001a946a7,29,2022-02-12_13h37.10.939,lexical_decision_task_DD_L2,2021.2.3,iPhone,62.5,,,,,,,,,,0.832,1,,,,,,,,,,,,,,,,,,,,,,,0.385714286,-0.309693878,1,0,0,,,,,,,TORCH,C,m,y,./images/TORCH.png,,,,,,,,,,,,,,,,,,,,,0,0.385714286,-0.309693878,1,0,0,0.832,button_right_test,0,16,16,68,1
,,,,,,,,,,,,,,,,,5c09016cb65da90001a946a7,29,2022-02-12_13h37.10.939,lexical_decision_task_DD_L2,2021.2.3,iPhone,62.5,,,,,,,,,,1.232,1,,,,,,,,,,,,,,,,,,,,,,,-0.328571429,-0.299489796,1,0,0,,,,,,,CANDY,HB,z,y,./images/CANDYHB.png,,,,,,,,,,,,,,,,,,,,,0,-0.328571429,-0.299489796,1,0,0,1.232,button_left_test,0,17,17,123,1
,,,,,,,,,,,,,,,,,5c09016cb65da90001a946a7,29,2022-02-12_13h37.10.939,lexical_decision_task_DD_L2,2021.2.3,iPhone,62.5,,,,,,,,,,0.832,1,,,,,,,,,,,,,,,,,,,,,,,-0.3,-0.310714286,1,0,0,,,,,,,BLOKE,HB,z,y,./images/BLOKEHB.png,,,,,,,,,,,,,,,,,,,,,0,-0.3,-0.310714286,1,0,0,0.832,button_left_test,0,18,18,96,1
,,,,,,,,,,,,,,,,,5c09016cb65da90001a946a7,29,2022-02-12_13h37.10.939,lexical_decision_task_DD_L2,2021.2.3,iPhone,62.5,,,,,,,,,,0.915,0,,,,,,,,,,,,,,,,,,,,,,,0.412244898,-0.278061224,1,0,0,,,,,,,PEBBLE,LB,z,y,./images/PEBBLELB.png,,,,,,,,,,,,,,,,,,,,,0,0.412244898,-0.278061224,1,0,0,0.915,button_right_test,0,19,19,166,1
,,,,,,,,,,,,,,,,,5c09016cb65da90001a946a7,29,2022-02-12_13h37.10.939,lexical_decision_task_DD_L2,2021.2.3,iPhone,62.5,,,,,,,,,,0.95,1,,,,,,,,,,,,,,,,,,,,,,,0.430612245,-0.390306122,1,0,0,,,,,,,SKIING,C,m,y,./images/SKIING.png,,,,,,,,,,,,,,,,,,,,,0,0.430612245,-0.390306122,1,0,0,0.95,button_right_test,0,20,20,17,1
,,,,,,,,,,,,,,,,,5c09016cb65da90001a946a7,29,2022-02-12_13h37.10.939,lexical_decision_task_DD_L2,2021.2.3,iPhone,62.5,,,,,,,,,,0.865,1,,,,,,,,,,,,,,,,,,,,,,,0.390816327,-0.275,1,0,0,,,,,,,TULIP,C,m,y,./images/TULIP.png,,,,,,,,,,,,,,,,,,,,,0,0.390816327,-0.275,1,0,0,0.865,button_right_test,0,21,21,8,1
,,,,,,,,,,,,,,,,,5c09016cb65da90001a946a7,29,2022-02-12_13h37.10.939,lexical_decision_task_DD_L2,2021.2.3,iPhone,62.5,,,,,,,,,,0.948,1,,,,,,,,,,,,,,,,,,,,,,,-0.240816327,-0.317857143,1,0,0,,,,,,,SAUNA,HB,z,y,./images/SAUNAHB.png,,,,,,,,,,,,,,,,,,,,,0,-0.240816327,-0.317857143,1,0,0,0.948,button_left_test,0,22,22,117,1
,,,,,,,,,,,,,,,,,5c09016cb65da90001a946a7,29,2022-02-12_13h37.10.939,lexical_decision_task_DD_L2,2021.2.3,iPhone,62.5,,,,,,,,,,0.684,1,,,,,,,,,,,,,,,,,,,,,,,0.346938776,-0.268877551,1,0,0,,,,,,,MOOSE,HB,m,y,./images/MOOSEHB.png,,,,,,,,,,,,,,,,,,,,,0,0.346938776,-0.268877551,1,0,0,0.684,button_right_test,0,23,23,57,1
,,,,,,,,,,,,,,,,,5c09016cb65da90001a946a7,29,2022-02-12_13h37.10.939,lexical_decision_task_DD_L2,2021.2.3,iPhone,62.5,,,,,,,,,,0.681,1,,,,,,,,,,,,,,,,,,,,,,,-0.345918367,-0.281122449,1,0,0,,,,,,,BRIDE,LB,z,y,./images/BRIDELB.png,,,,,,,,,,,,,,,,,,,,,0,-0.345918367,-0.281122449,1,0,0,0.681,button_left_test,0,24,24,148,1
,,,,,,,,,,,,,,,,,5c09016cb65da90001a946a7,29,2022-02-12_13h37.10.939,lexical_decision_task_DD_L2,2021.2.3,iPhone,62.5,,,,,,,,,,0.715,1,,,,,,,,,,,,,,,,,,,,,,,-0.326530612,-0.265816327,1,0,0,,,,,,,FLESH,HB,z,y,./images/FLESHHB.png,,,,,,,,,,,,,,,,,,,,,0,-0.326530612,-0.265816327,1,0,0,0.715,button_left_test,0,25,25,108,1
,,,,,,,,,,,,,,,,,5c09016cb65da90001a946a7,29,2022-02-12_13h37.10.939,lexical_decision_task_DD_L2,2021.2.3,iPhone,62.5,,,,,,,,,,0.781,1,,,,,,,,,,,,,,,,,,,,,,,0.38877551,-0.312755102,1,0,0,,,,,,,SHELF,HB,m,y,./images/SHELFHB.png,,,,,,,,,,,,,,,,,,,,,0,0.38877551,-0.312755102,1,0,0,0.781,button_right_test,0,26,26,39,1
,,,,,,,,,,,,,,,,,5c09016cb65da90001a946a7,29,2022-02-12_13h37.10.939,lexical_decision_task_DD_L2,2021.2.3,iPhone,62.5,,,,,,,,,,0.949,1,,,,,,,,,,,,,,,,,,,,,,,0.366326531,-0.303571429,1,0,0,,,,,,,BARREL,C,m,y,./images/BARREL.png,,,,,,,,,,,,,,,,,,,,,0,0.366326531,-0.303571429,1,0,0,0.949,button_right_test,0,27,27,32,1
,,,,,,,,,,,,,,,,,5c09016cb65da90001a946a7,29,2022-02-12_13h37.10.939,lexical_decision_task_DD_L2,2021.2.3,iPhone,62.5,,,,,,,,,,0.698,1,,,,,,,,,,,,,,,,,,,,,,,-0.26122449,-0.285204082,1,0,0,,,,,,,MIDGET,LB,z,y,./images/MIDGETLB.png,,,,,,,,,,,,,,,,,,,,,0,-0.26122449,-0.285204082,1,0,0,0.698,button_left_test,0,28,28,160,1
,,,,,,,,,,,,,,,,,5c09016cb65da90001a946a7,29,2022-02-12_13h37.10.939,lexical_decision_task_DD_L2,2021.2.3,iPhone,62.5,,,,,,,,,,0.815,1,,,,,,,,,,,,,,,,,,,,,,,0.392857143,-0.292346939,1,0,0,,,,,,,BERRY,C,m,y,./images/BERRY.png,,,,,,,,,,,,,,,,,,,,,0,0.392857143,-0.292346939,1,0,0,0.815,button_right_test,0,29,29,47,1
,,,,,,,,,,,,,,,,,5c09016cb65da90001a946a7,29,2022-02-12_13h37.10.939,lexical_decision_task_DD_L2,2021.2.3,iPhone,62.5,,,,,,,,,,0.616,1,,,,,,,,,,,,,,,,,,,,,,,0.428571429,-0.327040816,1,0,0,,,,,,,PEACH,C,m,y,./images/PEACH.png,,,,,,,,,,,,,,,,,,,,,0,0.428571429,-0.327040816,1,0,0,0.616,button_right_test,0,30,30,35,1
,,,,,,,,,,,,,,,,,5c09016cb65da90001a946a7,29,2022-02-12_13h37.10.939,lexical_decision_task_DD_L2,2021.2.3,iPhone,62.5,,,,,,,,,,0.814,1,,,,,,,,,,,,,,,,,,,,,,,-0.337755102,-0.330102041,1,0,0,,,,,,,SHIELD,HB,z,y,./images/SHIELDHB.png,,,,,,,,,,,,,,,,,,,,,0,-0.337755102,-0.330102041,1,0,0,0.814,button_left_test,0,31,31,132,1
,,,,,,,,,,,,,,,,,5c09016cb65da90001a946a7,29,2022-02-12_13h37.10.939,lexical_decision_task_DD_L2,2021.2.3,iPhone,62.5,,,,,,,,,,0.78,1,,,,,,,,,,,,,,,,,,,,,,,0.386734694,-0.279081633,1,0,0,,,,,,,FOLDER,HB,m,y,./images/FOLDERHB.png,,,,,,,,,,,,,,,,,,,,,0,0.386734694,-0.279081633,1,0,0,0.78,button_right_test,0,32,32,42,1
,,,,,,,,,,,,,,,,,5c09016cb65da90001a946a7,29,2022-02-12_13h37.10.939,lexical_decision_task_DD_L2,2021.2.3,iPhone,62.5,,,,,,,,,,1.115,0,,,,,,,,,,,,,,,,,,,,,,,-0.318367347,-0.248469388,1,0,0,,,,,,,DRUMS,LB,m,y,./images/DRUMSLB.png,,,,,,,,,,,,,,,,,,,,,0,-0.318367347,-0.248469388,1,0,0,1.115,button_left_test,0,33,33,49,1
,,,,,,,,,,,,,,,,,5c09016cb65da90001a946a7,29,2022-02-12_13h37.10.939,lexical_decision_task_DD_L2,2021.2.3,iPhone,62.5,,,,,,,,,,0.732,1,,,,,,,,,,,,,,,,,,,,,,,0.335714286,-0.311734694,1,0,0,,,,,,,CRUST,LB,m,y,./images/CRUSTLB.png,,,,,,,,,,,,,,,,,,,,,0,0.335714286,-0.311734694,1,0,0,0.732,button_right_test,0,34,34,79,1
,,,,,,,,,,,,,,,,,5c09016cb65da90001a946a7,29,2022-02-12_13h37.10.939,lexical_decision_task_DD_L2,2021.2.3,iPhone,62.5,,,,,,,,,,0.782,1,,,,,,,,,,,,,,,,,,,,,,,-0.382653061,-0.294387755,1,0,0,,,,,,,CASINO,LB,z,y,./images/CASINOLB.png,,,,,,,,,,,,,,,,,,,,,0,-0.382653061,-0.294387755,1,0,0,0.782,button_left_test,0,35,35,112,1
,,,,,,,,,,,,,,,,,5c09016cb65da90001a946a7,29,2022-02-12_13h37.10.939,lexical_decision_task_DD_L2,2021.2.3,iPhone,62.5,,,,,,,,,,0.648,1,,,,,,,,,,,,,,,,,,,,,,,0.340816327,-0.279081633,1,0,0,,,,,,,RHINO,HB,m,y,./images/RHINOHB.png,,,,,,,,,,,,,,,,,,,,,0,0.340816327,-0.279081633,1,0,0,0.648,button_right_test,0,36,36,9,1
,,,,,,,,,,,,,,,,,5c09016cb65da90001a946a7,29,2022-02-12_13h37.10.939,lexical_decision_task_DD_L2,2021.2.3,iPhone,62.5,,,,,,,,,,0.816,1,,,,,,,,,,,,,,,,,,,,,,,0.342857143,-0.279081633,1,0,0,,,,,,,TRIPOD,HB,m,y,./images/TRIPODHB.png,,,,,,,,,,,,,,,,,,,,,0,0.342857143,-0.279081633,1,0,0,0.816,button_right_test,0,37,37,54,1
,,,,,,,,,,,,,,,,,5c09016cb65da90001a946a7,29,2022-02-12_13h37.10.939,lexical_decision_task_DD_L2,2021.2.3,iPhone,62.5,,,,,,,,,,1.116,0,,,,,,,,,,,,,,,,,,,,,,,-0.323469388,-0.307653061,1,0,0,,,,,,,MUFFIN,LB,m,y,./images/MUFFINLB.png,,,,,,,,,,,,,,,,,,,,,0,-0.323469388,-0.307653061,1,0,0,1.116,button_left_test,0,38,38,55,1
,,,,,,,,,,,,,,,,,5c09016cb65da90001a946a7,29,2022-02-12_13h37.10.939,lexical_decision_task_DD_L2,2021.2.3,iPhone,62.5,,,,,,,,,,1.298,0,,,,,,,,,,,,,,,,,,,,,,,-0.328571429,-0.296428571,1,0,0,,,,,,,SCREW,HB,m,y,./images/SCREWHB.png,,,,,,,,,,,,,,,,,,,,,0,-0.328571429,-0.296428571,1,0,0,1.298,button_left_test,0,39,39,24,1
,,,,,,,,,,,,,,,,,5c09016cb65da90001a946a7,29,2022-02-12_13h37.10.939,lexical_decision_task_DD_L2,2021.2.3,iPhone,62.5,,,,,,,,,,1.231,1,,,,,,,,,,,,,,,,,,,,,,,0.366326531,-0.291326531,1,0,0,,,,,,,PENCE,LB,m,y,./images/PENCELB.png,,,,,,,,,,,,,,,,,,,,,0,0.366326531,-0.291326531,1,0,0,1.231,button_right_test,0,40,40,16,1
,,,,,,,,,,,,,,,,,5c09016cb65da90001a946a7,29,2022-02-12_13h37.10.939,lexical_decision_task_DD_L2,2021.2.3,iPhone,62.5,,,,,,,,,,0.715,1,,,,,,,,,,,,,,,,,,,,,,,0.101020408,-0.357653061,1,0,0,,,,,,,STRING,C,m,y,./images/STRING.png,break_done_button,,,,,,,,,,,,,,,,,,,,0,0.353061224,-0.262755102,1,0,0,0.715,button_right_test,0,41,41,41,1
,,,,,,,,,,,,,,,,,5c09016cb65da90001a946a7,29,2022-02-12_13h37.10.939,lexical_decision_task_DD_L2,2021.2.3,iPhone,62.5,,,,,,,,,,0.748,1,,,,,,,,,,,,,,,,,,,,,,,-0.371428571,-0.283163265,1,0,0,,,,,,,BUBBLE,C,z,y,./images/BUBBLE.png,,,,,,,,,,,,,,,,,,,,,0,-0.371428571,-0.283163265,1,0,0,0.748,button_left_test,0,42,42,155,1
,,,,,,,,,,,,,,,,,5c09016cb65da90001a946a7,29,2022-02-12_13h37.10.939,lexical_decision_task_DD_L2,2021.2.3,iPhone,62.5,,,,,,,,,,0.748,0,,,,,,,,,,,,,,,,,,,,,,,-0.304081633,-0.270918367,1,0,0,,,,,,,SQUARE,HB,m,y,./images/SQUAREHB.png,,,,,,,,,,,,,,,,,,,,,0,-0.304081633,-0.270918367,1,0,0,0.748,button_left_test,0,43,43,6,1
,,,,,,,,,,,,,,,,,5c09016cb65da90001a946a7,29,2022-02-12_13h37.10.939,lexical_decision_task_DD_L2,2021.2.3,iPhone,62.5,,,,,,,,,,0.781,0,,,,,,,,,,,,,,,,,,,,,,,0.362244898,-0.307653061,1,0,0,,,,,,,DRILL,HB,z,y,./images/DRILLHB.png,,,,,,,,,,,,,,,,,,,,,0,0.362244898,-0.307653061,1,0,0,0.781,button_right_test,0,44,44,165,1
,,,,,,,,,,,,,,,,,5c09016cb65da90001a946a7,29,2022-02-12_13h37.10.939,lexical_decision_task_DD_L2,2021.2.3,iPhone,62.5,,,,,,,,,,1.364,0,,,,,,,,,,,,,,,,,,,,,,,-0.36122449,-0.341326531,1,0,0,,,,,,,LIZARD,C,m,y,./images/LIZARD.png,,,,,,,,,,,,,,,,,,,,,0,-0.36122449,-0.341326531,1,0,0,1.364,button_left_test,0,45,45,44,1
,,,,,,,,,,,,,,,,,5c09016cb65da90001a946a7,29,2022-02-12_13h37.10.939,lexical_decision_task_DD_L2,2021.2.3,iPhone,62.5,,,,,,,,,,0.915,1,,,,,,,,,,,,,,,,,,,,,,,0.373469388,-0.291326531,1,0,0,,,,,,,PICKLE,C,m,y,./images/PICKLE.png,,,,,,,,,,,,,,,,,,,,,0,0.373469388,-0.291326531,1,0,0,0.915,button_right_test,0,46,46,14,1
,,,,,,,,,,,,,,,,,5c09016cb65da90001a946a7,29,2022-02-12_13h37.10.939,lexical_decision_task_DD_L2,2021.2.3,iPhone,62.5,,,,,,,,,,0.866,1,,,,,,,,,,,,,,,,,,,,,,,-0.340816327,-0.272959184,1,0,0,,,,,,,FENCE,C,z,y,./images/FENCE.png,,,,,,,,,,,,,,,,,,,,,0,-0.340816327,-0.272959184,1,0,0,0.866,button_left_test,0,47,47,98,1
,,,,,,,,,,,,,,,,,5c09016cb65da90001a946a7,29,2022-02-12_13h37.10.939,lexical_decision_task_DD_L2,2021.2.3,iPhone,62.5,,,,,,,,,,1.366,1,,,,,,,,,,,,,,,,,,,,,,,-0.301020408,-0.288265306,1,0,0,,,,,,,POKER,LB,z,y,./images/POKERLB.png,,,,,,,,,,,,,,,,,,,,,0,-0.301020408,-0.288265306,1,0,0,1.366,button_left_test,0,48,48,151,1
,,,,,,,,,,,,,,,,,5c09016cb65da90001a946a7,29,2022-02-12_13h37.10.939,lexical_decision_task_DD_L2,2021.2.3,iPhone,62.5,,,,,,,,,,0.715,1,,,,,,,,,,,,,,,,,,,,,,,0.417346939,-0.311734694,1,0,0,,,,,,,DOUGH,LB,m,y,./images/DOUGHLB.png,,,,,,,,,,,,,,,,,,,,,0,0.417346939,-0.311734694,1,0,0,0.715,button_right_test,0,49,49,19,1
,,,,,,,,,,,,,,,,,5c09016cb65da90001a946a7,29,2022-02-12_13h37.10.939,lexical_decision_task_DD_L2,2021.2.3,iPhone,62.5,,,,,,,,,,0.983,0,,,,,,,,,,,,,,,,,,,,,,,0.339795918,-0.305612245,1,0,0,,,,,,,CHAIN,HB,z,y,./images/CHAINHB.png,,,,,,,,,,,,,,,,,,,,,0,0.339795918,-0.305612245,1,0,0,0.983,button_right_test,0,50,50,126,1
,,,,,,,,,,,,,,,,,5c09016cb65da90001a946a7,29,2022-02-12_13h37.10.939,lexical_decision_task_DD_L2,2021.2.3,iPhone,62.5,,,,,,,,,,0.75,1,,,,,,,,,,,,,,,,,,,,,,,-0.347959184,-0.291326531,1,0,0,,,,,,,MAMMAL,C,z,y,./images/MAMMAL.png,,,,,,,,,,,,,,,,,,,,,0,-0.347959184,-0.291326531,1,0,0,0.75,button_left_test,0,51,51,146,1
,,,,,,,,,,,,,,,,,5c09016cb65da90001a946a7,29,2022-02-12_13h37.10.939,lexical_decision_task_DD_L2,2021.2.3,iPhone,62.5,,,,,,,,,,0.683,1,,,,,,,,,,,,,,,,,,,,,,,-0.334693878,-0.29744898,1,0,0,,,,,,,WHISKY,C,z,y,./images/WHISKY.png,,,,,,,,,,,,,,,,,,,,,0,-0.334693878,-0.29744898,1,0,0,0.683,button_left_test,0,52,52,167,1
,,,,,,,,,,,,,,,,,5c09016cb65da90001a946a7,29,2022-02-12_13h37.10.939,lexical_decision_task_DD_L2,2021.2.3,iPhone,62.5,,,,,,,,,,1.231,1,,,,,,,,,,,,,,,,,,,,,,,-0.355102041,-0.284183673,1,0,0,,,,,,,CLOTH,C,z,y,./images/CLOTH.png,,,,,,,,,,,,,,,,,,,,,0,-0.355102041,-0.284183673,1,0,0,1.231,button_left_test,0,53,53,107,1
,,,,,,,,,,,,,,,,,5c09016cb65da90001a946a7,29,2022-02-12_13h37.10.939,lexical_decision_task_DD_L2,2021.2.3,iPhone,62.5,,,,,,,,,,1.048,0,,,,,,,,,,,,,,,,,,,,,,,-0.345918367,-0.329081633,1,0,0,,,,,,,PURSE,C,m,y,./images/PURSE.png,,,,,,,,,,,,,,,,,,,,,0,-0.345918367,-0.329081633,1,0,0,1.048,button_left_test,0,54,54,62,1
,,,,,,,,,,,,,,,,,5c09016cb65da90001a946a7,29,2022-02-12_13h37.10.939,lexical_decision_task_DD_L2,2021.2.3,iPhone,62.5,,,,,,,,,,1.032,1,,,,,,,,,,,,,,,,,,,,,,,-0.31122449,-0.312755102,1,0,0,,,,,,,BOILER,HB,z,y,./images/BOILERHB.png,,,,,,,,,,,,,,,,,,,,,0,-0.31122449,-0.312755102,1,0,0,1.032,button_left_test,0,55,55,120,1
,,,,,,,,,,,,,,,,,5c09016cb65da90001a946a7,29,2022-02-12_13h37.10.939,lexical_decision_task_DD_L2,2021.2.3,iPhone,62.5,,,,,,,,,,0.733,0,,,,,,,,,,,,,,,,,,,,,,,-0.321428571,-0.321938776,1,0,0,,,,,,,SMOKER,C,m,y,./images/SMOKER.png,,,,,,,,,,,,,,,,,,,,,0,-0.321428571,-0.321938776,1,0,0,0.733,button_left_test,0,56,56,26,1
,,,,,,,,,,,,,,,,,5c09016cb65da90001a946a7,29,2022-02-12_13h37.10.939,lexical_decision_task_DD_L2,2021.2.3,iPhone,62.5,,,,,,,,,,0.898,1,,,,,,,,,,,,,,,,,,,,,,,-0.306122449,-0.304591837,1,0,0,,,,,,,ALLEY,LB,z,y,./images/ALLEYLB.png,,,,,,,,,,,,,,,,,,,,,0,-0.306122449,-0.304591837,1,0,0,0.898,button_left_test,0,57,57,139,1
,,,,,,,,,,,,,,,,,5c09016cb65da90001a946a7,29,2022-02-12_13h37.10.939,lexical_decision_task_DD_L2,2021.2.3,iPhone,62.5,,,,,,,,,,0.616,1,,,,,,,,,,,,,,,,,,,,,,,0.356122449,-0.291326531,1,0,0,,,,,,,LITTER,HB,m,y,./images/LITTERHB.png,,,,,,,,,,,,,,,,,,,,,0,0.356122449,-0.291326531,1,0,0,0.616,button_right_test,0,58,58,78,1
,,,,,,,,,,,,,,,,,5c09016cb65da90001a946a7,29,2022-02-12_13h37.10.939,lexical_decision_task_DD_L2,2021.2.3,iPhone,62.5,,,,,,,,,,0.732,1,,,,,,,,,,,,,,,,,,,,,,,-0.293877551,-0.308673469,1,0,0,,,,,,,BRUSH,C,z,y,./images/BRUSH.png,,,,,,,,,,,,,,,,,,,,,0,-0.293877551,-0.308673469,1,0,0,0.732,button_left_test,0,59,59,143,1
,,,,,,,,,,,,,,,,,5c09016cb65da90001a946a7,29,2022-02-12_13h37.10.939,lexical_decision_task_DD_L2,2021.2.3,iPhone,62.5,,,,,,,,,,0.616,1,,,,,,,,,,,,,,,,,,,,,,,0.402040816,-0.330102041,1,0,0,,,,,,,CARPET,C,m,y,./images/CARPET.png,,,,,,,,,,,,,,,,,,,,,0,0.402040816,-0.330102041,1,0,0,0.616,button_right_test,0,60,60,53,1
,,,,,,,,,,,,,,,,,5c09016cb65da90001a946a7,29,2022-02-12_13h37.10.939,lexical_decision_task_DD_L2,2021.2.3,iPhone,62.5,,,,,,,,,,0.599,1,,,,,,,,,,,,,,,,,,,,,,,0.344897959,-0.29744898,1,0,0,,,,,,,PEARL,LB,m,y,./images/PEARLLB.png,,,,,,,,,,,,,,,,,,,,,0,0.344897959,-0.29744898,1,0,0,0.599,button_right_test,0,61,61,46,1
,,,,,,,,,,,,,,,,,5c09016cb65da90001a946a7,29,2022-02-12_13h37.10.939,lexical_decision_task_DD_L2,2021.2.3,iPhone,62.5,,,,,,,,,,0.632,0,,,,,,,,,,,,,,,,,,,,,,,0.373469388,-0.29744898,1,0,0,,,,,,,CHERRY,HB,z,y,./images/CHERRYHB.png,,,,,,,,,,,,,,,,,,,,,0,0.373469388,-0.29744898,1,0,0,0.632,button_right_test,0,62,62,138,1
,,,,,,,,,,,,,,,,,5c09016cb65da90001a946a7,29,2022-02-12_13h37.10.939,lexical_decision_task_DD_L2,2021.2.3,iPhone,62.5,,,,,,,,,,0.781,1,,,,,,,,,,,,,,,,,,,,,,,0.340816327,-0.298469388,1,0,0,,,,,,,SHORE,HB,m,y,./images/SHOREHB.png,,,,,,,,,,,,,,,,,,,,,0,0.340816327,-0.298469388,1,0,0,0.781,button_right_test,0,63,63,12,1
,,,,,,,,,,,,,,,,,5c09016cb65da90001a946a7,29,2022-02-12_13h37.10.939,lexical_decision_task_DD_L2,2021.2.3,iPhone,62.5,,,,,,,,,,1.014,0,,,,,,,,,,,,,,,,,,,,,,,0.333673469,-0.294387755,1,0,0,,,,,,,SNAKE,LB,z,y,./images/SNAKELB.png,,,,,,,,,,,,,,,,,,,,,0,0.333673469,-0.294387755,1,0,0,1.014,button_right_test,0,64,64,124,1
,,,,,,,,,,,,,,,,,5c09016cb65da90001a946a7,29,2022-02-12_13h37.10.939,lexical_decision_task_DD_L2,2021.2.3,iPhone,62.5,,,,,,,,,,0.899,1,,,,,,,,,,,,,,,,,,,,,,,-0.354081633,-0.264795918,1,0,0,,,,,,,CLOUD,C,z,y,./images/CLOUD.png,,,,,,,,,,,,,,,,,,,,,0,-0.354081633,-0.264795918,1,0,0,0.899,button_left_test,0,65,65,110,1
,,,,,,,,,,,,,,,,,5c09016cb65da90001a946a7,29,2022-02-12_13h37.10.939,lexical_decision_task_DD_L2,2021.2.3,iPhone,62.5,,,,,,,,,,0.698,1,,,,,,,,,,,,,,,,,,,,,,,0.358163265,-0.296428571,1,0,0,,,,,,,COUCH,C,m,y,./images/COUCH.png,,,,,,,,,,,,,,,,,,,,,0,0.358163265,-0.296428571,1,0,0,0.698,button_right_test,0,66,66,77,1
,,,,,,,,,,,,,,,,,5c09016cb65da90001a946a7,29,2022-02-12_13h37.10.939,lexical_decision_task_DD_L2,2021.2.3,iPhone,62.5,,,,,,,,,,0.783,1,,,,,,,,,,,,,,,,,,,,,,,0.378571429,-0.296428571,1,0,0,,,,,,,ATTIC,HB,m,y,./images/ATTICHB.png,,,,,,,,,,,,,,,,,,,,,0,0.378571429,-0.296428571,1,0,0,0.783,button_right_test,0,67,67,27,1
,,,,,,,,,,,,,,,,,5c09016cb65da90001a946a7,29,2022-02-12_13h37.10.939,lexical_decision_task_DD_L2,2021.2.3,iPhone,62.5,,,,,,,,,,0.715,0,,,,,,,,,,,,,,,,,,,,,,,0.366326531,-0.312755102,1,0,0,,,,,,,RAZOR,LB,z,y,./images/RAZORLB.png,,,,,,,,,,,,,,,,,,,,,0,0.366326531,-0.312755102,1,0,0,0.715,button_right_test,0,68,68,118,1
,,,,,,,,,,,,,,,,,5c09016cb65da90001a946a7,29,2022-02-12_13h37.10.939,lexical_decision_task_DD_L2,2021.2.3,iPhone,62.5,,,,,,,,,,0.782,1,,,,,,,,,,,,,,,,,,,,,,,-0.367346939,-0.284183673,1,0,0,,,,,,,STREAM,C,z,y,./images/STREAM.png,,,,,,,,,,,,,,,,,,,,,0,-0.367346939,-0.284183673,1,0,0,0.782,button_left_test,0,69,69,125,1
,,,,,,,,,,,,,,,,,5c09016cb65da90001a946a7,29,2022-02-12_13h37.10.939,lexical_decision_task_DD_L2,2021.2.3,iPhone,62.5,,,,,,,,,,0.65,1,,,,,,,,,,,,,,,,,,,,,,,-0.367346939,-0.253571429,1,0,0,,,,,,,GRANNY,C,z,y,./images/GRANNY.png,,,,,,,,,,,,,,,,,,,,,0,-0.367346939,-0.253571429,1,0,0,0.65,button_left_test,0,70,70,104,1
,,,,,,,,,,,,,,,,,5c09016cb65da90001a946a7,29,2022-02-12_13h37.10.939,lexical_decision_task_DD_L2,2021.2.3,iPhone,62.5,,,,,,,,,,0.815,1,,,,,,,,,,,,,,,,,,,,,,,-0.320408163,-0.291326531,1,0,0,,,,,,,CRATER,HB,z,y,./images/CRATERHB.png,,,,,,,,,,,,,,,,,,,,,0,-0.320408163,-0.291326531,1,0,0,0.815,button_left_test,0,71,71,87,1
,,,,,,,,,,,,,,,,,5c09016cb65da90001a946a7,29,2022-02-12_13h37.10.939,lexical_decision_task_DD_L2,2021.2.3,iPhone,62.5,,,,,,,,,,1,0,,,,,,,,,,,,,,,,,,,,,,,0.406122449,-0.291326531,1,0,0,,,,,,,JUMPER,C,z,y,./images/JUMPER.png,,,,,,,,,,,,,,,,,,,,,0,0.406122449,-0.291326531,1,0,0,1,button_right_test,0,72,72,158,1
,,,,,,,,,,,,,,,,,5c09016cb65da90001a946a7,29,2022-02-12_13h37.10.939,lexical_decision_task_DD_L2,2021.2.3,iPhone,62.5,,,,,,,,,,1.332,1,,,,,,,,,,,,,,,,,,,,,,,-0.374489796,-0.305612245,1,0,0,,,,,,,STOOL,LB,z,y,./images/STOOLLB.png,,,,,,,,,,,,,,,,,,,,,0,-0.374489796,-0.305612245,1,0,0,1.332,button_left_test,0,73,73,127,1
,,,,,,,,,,,,,,,,,5c09016cb65da90001a946a7,29,2022-02-12_13h37.10.939,lexical_decision_task_DD_L2,2021.2.3,iPhone,62.5,,,,,,,,,,0.732,0,,,,,,,,,,,,,,,,,,,,,,,-0.28877551,-0.305612245,1,0,0,,,,,,,FINGER,HB,m,y,./images/FINGERHB.png,,,,,,,,,,,,,,,,,,,,,0,-0.28877551,-0.305612245,1,0,0,0.732,button_left_test,0,74,74,3,1
,,,,,,,,,,,,,,,,,5c09016cb65da90001a946a7,29,2022-02-12_13h37.10.939,lexical_decision_task_DD_L2,2021.2.3,iPhone,62.5,,,,,,,,,,0.684,1,,,,,,,,,,,,,,,,,,,,,,,0.375510204,-0.329081633,1,0,0,,,,,,,POODLE,HB,m,y,./images/POODLEHB.png,,,,,,,,,,,,,,,,,,,,,0,0.375510204,-0.329081633,1,0,0,0.684,button_right_test,0,75,75,81,1
,,,,,,,,,,,,,,,,,5c09016cb65da90001a946a7,29,2022-02-12_13h37.10.939,lexical_decision_task_DD_L2,2021.2.3,iPhone,62.5,,,,,,,,,,0.632,1,,,,,,,,,,,,,,,,,,,,,,,0.351020408,-0.282142857,1,0,0,,,,,,,MIRROR,HB,m,y,./images/MIRRORHB.png,,,,,,,,,,,,,,,,,,,,,0,0.351020408,-0.282142857,1,0,0,0.632,button_right_test,0,76,76,63,1
,,,,,,,,,,,,,,,,,5c09016cb65da90001a946a7,29,2022-02-12_13h37.10.939,lexical_decision_task_DD_L2,2021.2.3,iPhone,62.5,,,,,,,,,,0.798,0,,,,,,,,,,,,,,,,,,,,,,,0.289795918,-0.291326531,1,0,0,,,,,,,GLOVE,LB,z,y,./images/GLOVELB.png,,,,,,,,,,,,,,,,,,,,,0,0.289795918,-0.291326531,1,0,0,0.798,button_right_test,0,77,77,157,1
,,,,,,,,,,,,,,,,,5c09016cb65da90001a946a7,29,2022-02-12_13h37.10.939,lexical_decision_task_DD_L2,2021.2.3,iPhone,62.5,,,,,,,,,,1.017,1,,,,,,,,,,,,,,,,,,,,,,,-0.320408163,-0.278061224,1,0,0,,,,,,,RULER,LB,z,y,./images/RULERLB.png,,,,,,,,,,,,,,,,,,,,,0,-0.320408163,-0.278061224,1,0,0,1.017,button_left_test,0,78,78,163,1
,,,,,,,,,,,,,,,,,5c09016cb65da90001a946a7,29,2022-02-12_13h37.10.939,lexical_decision_task_DD_L2,2021.2.3,iPhone,62.5,,,,,,,,,,1.265,1,,,,,,,,,,,,,,,,,,,,,,,0.331632653,-0.276020408,1,0,0,,,,,,,BURIAL,C,m,y,./images/BURIAL.png,,,,,,,,,,,,,,,,,,,,,0,0.331632653,-0.276020408,1,0,0,1.265,button_right_test,0,79,79,59,1
,,,,,,,,,,,,,,,,,5c09016cb65da90001a946a7,29,2022-02-12_13h37.10.939,lexical_decision_task_DD_L2,2021.2.3,iPhone,62.5,,,,,,,,,,0.715,1,,,,,,,,,,,,,,,,,,,,,,,0.313265306,-0.289285714,1,0,0,,,,,,,MALLET,C,m,y,./images/MALLET.png,,,,,,,,,,,,,,,,,,,,,0,0.313265306,-0.289285714,1,0,0,0.715,button_right_test,0,80,80,50,1
,,,,,,,,,,,,,,,,,5c09016cb65da90001a946a7,29,2022-02-12_13h37.10.939,lexical_decision_task_DD_L2,2021.2.3,iPhone,62.5,,,,,,,,,,0.783,1,,,,,,,,,,,,,,,,,,,,,,,0.32244898,-0.277040816,1,0,0,,,,,,,JUNGLE,C,m,y,./images/JUNGLE.png,,,,,,,,,,,,,,,,,,,,,0,0.32244898,-0.277040816,1,0,0,0.783,button_right_test,0,81,81,83,1
,,,,,,,,,,,,,,,,,5c09016cb65da90001a946a7,29,2022-02-12_13h37.10.939,lexical_decision_task_DD_L2,2021.2.3,iPhone,62.5,,,,,,,,,,0.865,1,,,,,,,,,,,,,,,,,,,,,,,-0.344897959,-0.338265306,1,0,0,,,,,,,SPINE,C,z,y,./images/SPINE.png,,,,,,,,,,,,,,,,,,,,,0,-0.344897959,-0.338265306,1,0,0,0.865,button_left_test,0,82,82,149,1
,,,,,,,,,,,,,,,,,5c09016cb65da90001a946a7,29,2022-02-12_13h37.10.939,lexical_decision_task_DD_L2,2021.2.3,iPhone,62.5,,,,,,,,,,1.931,1,,,,,,,,,,,,,,,,,,,,,,,0.086734694,-0.393367347,1,0,0,,,,,,,DONKEY,LB,z,y,./images/DONKEYLB.png,break_done_button,,,,,,,,,,,,,,,,,,,,0,-0.337755102,-0.314795918,1,0,0,1.931,button_left_test,0,83,83,103,1
,,,,,,,,,,,,,,,,,5c09016cb65da90001a946a7,29,2022-02-12_13h37.10.939,lexical_decision_task_DD_L2,2021.2.3,iPhone,62.5,,,,,,,,,,0.715,1,,,,,,,,,,,,,,,,,,,,,,,0.323469388,-0.334183673,1,0,0,,,,,,,CANYON,LB,m,y,./images/CANYONLB.png,,,,,,,,,,,,,,,,,,,,,0,0.323469388,-0.334183673,1,0,0,0.715,button_right_test,0,84,84,34,1
,,,,,,,,,,,,,,,,,5c09016cb65da90001a946a7,29,2022-02-12_13h37.10.939,lexical_decision_task_DD_L2,2021.2.3,iPhone,62.5,,,,,,,,,,0.632,1,,,,,,,,,,,,,,,,,,,,,,,0.320408163,-0.315816327,1,0,0,,,,,,,KITTEN,HB,m,y,./images/KITTENHB.png,,,,,,,,,,,,,,,,,,,,,0,0.320408163,-0.315816327,1,0,0,0.632,button_right_test,0,85,85,45,1
,,,,,,,,,,,,,,,,,5c09016cb65da90001a946a7,29,2022-02-12_13h37.10.939,lexical_decision_task_DD_L2,2021.2.3,iPhone,62.5,,,,,,,,,,0.731,1,,,,,,,,,,,,,,,,,,,,,,,-0.319387755,-0.315816327,1,0,0,,,,,,,STAIN,HB,z,y,./images/STAINHB.png,,,,,,,,,,,,,,,,,,,,,0,-0.319387755,-0.315816327,1,0,0,0.731,button_left_test,0,86,86,90,1
,,,,,,,,,,,,,,,,,5c09016cb65da90001a946a7,29,2022-02-12_13h37.10.939,lexical_decision_task_DD_L2,2021.2.3,iPhone,62.5,,,,,,,,,,0.898,1,,,,,,,,,,,,,,,,,,,,,,,0.303061224,-0.314795918,1,0,0,,,,,,,PAINT,LB,m,y,./images/PAINTLB.png,,,,,,,,,,,,,,,,,,,,,0,0.303061224,-0.314795918,1,0,0,0.898,button_right_test,0,87,87,7,1
,,,,,,,,,,,,,,,,,5c09016cb65da90001a946a7,29,2022-02-12_13h37.10.939,lexical_decision_task_DD_L2,2021.2.3,iPhone,62.5,,,,,,,,,,0.683,0,,,,,,,,,,,,,,,,,,,,,,,-0.323469388,-0.315816327,1,0,0,,,,,,,SUNSET,LB,m,y,./images/SUNSETLB.png,,,,,,,,,,,,,,,,,,,,,0,-0.323469388,-0.315816327,1,0,0,0.683,button_left_test,0,88,88,82,1
,,,,,,,,,,,,,,,,,5c09016cb65da90001a946a7,29,2022-02-12_13h37.10.939,lexical_decision_task_DD_L2,2021.2.3,iPhone,62.5,,,,,,,,,,0.615,1,,,,,,,,,,,,,,,,,,,,,,,-0.357142857,-0.304591837,1,0,0,,,,,,,PARCEL,HB,z,y,./images/PARCELHB.png,,,,,,,,,,,,,,,,,,,,,0,-0.357142857,-0.304591837,1,0,0,0.615,button_left_test,0,89,89,102,1
,,,,,,,,,,,,,,,,,5c09016cb65da90001a946a7,29,2022-02-12_13h37.10.939,lexical_decision_task_DD_L2,2021.2.3,iPhone,62.5,,,,,,,,,,0.6,1,,,,,,,,,,,,,,,,,,,,,,,0.404081633,-0.296428571,1,0,0,,,,,,,LADDER,C,m,y,./images/LADDER.png,,,,,,,,,,,,,,,,,,,,,0,0.404081633,-0.296428571,1,0,0,0.6,button_right_test,0,90,90,38,1
,,,,,,,,,,,,,,,,,5c09016cb65da90001a946a7,29,2022-02-12_13h37.10.939,lexical_decision_task_DD_L2,2021.2.3,iPhone,62.5,,,,,,,,,,0.899,1,,,,,,,,,,,,,,,,,,,,,,,-0.32755102,-0.299489796,1,0,0,,,,,,,GRAPE,LB,z,y,./images/GRAPELB.png,,,,,,,,,,,,,,,,,,,,,0,-0.32755102,-0.299489796,1,0,0,0.899,button_left_test,0,91,91,100,1
,,,,,,,,,,,,,,,,,5c09016cb65da90001a946a7,29,2022-02-12_13h37.10.939,lexical_decision_task_DD_L2,2021.2.3,iPhone,62.5,,,,,,,,,,0.966,1,,,,,,,,,,,,,,,,,,,,,,,-0.354081633,-0.299489796,1,0,0,,,,,,,BAKER,HB,z,y,./images/BAKERHB.png,,,,,,,,,,,,,,,,,,,,,0,-0.354081633,-0.299489796,1,0,0,0.966,button_left_test,0,92,92,147,1
,,,,,,,,,,,,,,,,,5c09016cb65da90001a946a7,29,2022-02-12_13h37.10.939,lexical_decision_task_DD_L2,2021.2.3,iPhone,62.5,,,,,,,,,,0.815,1,,,,,,,,,,,,,,,,,,,,,,,0.257142857,-0.298469388,1,0,0,,,,,,,KIDNEY,HB,m,y,./images/KIDNEYHB.png,,,,,,,,,,,,,,,,,,,,,0,0.257142857,-0.298469388,1,0,0,0.815,button_right_test,0,93,93,21,1
,,,,,,,,,,,,,,,,,5c09016cb65da90001a946a7,29,2022-02-12_13h37.10.939,lexical_decision_task_DD_L2,2021.2.3,iPhone,62.5,,,,,,,,,,0.628,1,,,,,,,,,,,,,,,,,,,,,,,0.371428571,-0.270918367,1,0,0,,,,,,,PLANK,LB,m,y,./images/PLANKLB.png,,,,,,,,,,,,,,,,,,,,,0,0.371428571,-0.270918367,1,0,0,0.628,button_right_test,0,94,94,1,1
,,,,,,,,,,,,,,,,,5c09016cb65da90001a946a7,29,2022-02-12_13h37.10.939,lexical_decision_task_DD_L2,2021.2.3,iPhone,62.5,,,,,,,,,,0.881,1,,,,,,,,,,,,,,,,,,,,,,,0.424489796,-0.317857143,1,0,0,,,,,,,BIRTH,LB,m,y,./images/BIRTHLB.png,,,,,,,,,,,,,,,,,,,,,0,0.424489796,-0.317857143,1,0,0,0.881,button_right_test,0,95,95,37,1
,,,,,,,,,,,,,,,,,5c09016cb65da90001a946a7,29,2022-02-12_13h37.10.939,lexical_decision_task_DD_L2,2021.2.3,iPhone,62.5,,,,,,,,,,0.717,1,,,,,,,,,,,,,,,,,,,,,,,0.318367347,-0.278061224,1,0,0,,,,,,,URINE,LB,m,y,./images/URINELB.png,,,,,,,,,,,,,,,,,,,,,0,0.318367347,-0.278061224,1,0,0,0.717,button_right_test,0,96,96,70,1
,,,,,,,,,,,,,,,,,5c09016cb65da90001a946a7,29,2022-02-12_13h37.10.939,lexical_decision_task_DD_L2,2021.2.3,iPhone,62.5,,,,,,,,,,0.633,1,,,,,,,,,,,,,,,,,,,,,,,0.339795918,-0.277040816,1,0,0,,,,,,,GREASE,HB,m,y,./images/GREASEHB.png,,,,,,,,,,,,,,,,,,,,,0,0.339795918,-0.277040816,1,0,0,0.633,button_right_test,0,97,97,15,1
,,,,,,,,,,,,,,,,,5c09016cb65da90001a946a7,29,2022-02-12_13h37.10.939,lexical_decision_task_DD_L2,2021.2.3,iPhone,62.5,,,,,,,,,,0.798,1,,,,,,,,,,,,,,,,,,,,,,,0.398979592,-0.329081633,1,0,0,,,,,,,MOSQUE,LB,m,y,./images/MOSQUELB.png,,,,,,,,,,,,,,,,,,,,,0,0.398979592,-0.329081633,1,0,0,0.798,button_right_test,0,98,98,43,1
,,,,,,,,,,,,,,,,,5c09016cb65da90001a946a7,29,2022-02-12_13h37.10.939,lexical_decision_task_DD_L2,2021.2.3,iPhone,62.5,,,,,,,,,,0.649,1,,,,,,,,,,,,,,,,,,,,,,,-0.325510204,-0.282142857,1,0,0,,,,,,,POSTER,C,z,y,./images/POSTER.png,,,,,,,,,,,,,,,,,,,,,0,-0.325510204,-0.282142857,1,0,0,0.649,button_left_test,0,99,99,137,1
,,,,,,,,,,,,,,,,,5c09016cb65da90001a946a7,29,2022-02-12_13h37.10.939,lexical_decision_task_DD_L2,2021.2.3,iPhone,62.5,,,,,,,,,,0.717,1,,,,,,,,,,,,,,,,,,,,,,,-0.32755102,-0.317857143,1,0,0,,,,,,,PARADE,C,z,y,./images/PARADE.png,,,,,,,,,,,,,,,,,,,,,0,-0.32755102,-0.317857143,1,0,0,0.717,button_left_test,0,100,100,101,1
,,,,,,,,,,,,,,,,,5c09016cb65da90001a946a7,29,2022-02-12_13h37.10.939,lexical_decision_task_DD_L2,2021.2.3,iPhone,62.5,,,,,,,,,,0.683,1,,,,,,,,,,,,,,,,,,,,,,,0.436734694,-0.305612245,1,0,0,,,,,,,MUSCLE,LB,m,y,./images/MUSCLELB.png,,,,,,,,,,,,,,,,,,,,,0,0.436734694,-0.305612245,1,0,0,0.683,button_right_test,0,101,101,4,1
,,,,,,,,,,,,,,,,,5c09016cb65da90001a946a7,29,2022-02-12_13h37.10.939,lexical_decision_task_DD_L2,2021.2.3,iPhone,62.5,,,,,,,,,,0.688,1,,,,,,,,,,,,,,,,,,,,,,,-0.354081633,-0.317857143,1,0,0,,,,,,,CHALK,LB,z,y,./images/CHALKLB.png,,,,,,,,,,,,,,,,,,,,,0,-0.354081633,-0.317857143,1,0,0,0.688,button_left_test,0,102,102,109,1
