key_resp.keys,instr_done_touch.x,instr_done_touch.y,instr_done_touch.leftButton,instr_done_touch.midButton,instr_done_touch.rightButton,instr_done_touch.clicked_name,instruction_pages.thisRepN,instruction_pages.thisTrialN,instruction_pages.thisN,instruction_pages.thisIndex,instruction_pages.ran,pageN,phase,instruct_text,has_image,instruct_image,participant,age,date,expName,psychopyVersion,OS,frameRate,key_resp.rt,response.keys,response.corr,response.rt,touch_resp.x,touch_resp.y,touch_resp.leftButton,touch_resp.midButton,touch_resp.rightButton,touch_resp.time,touch_resp.clicked_name,rt,corr,practrials.thisRepN,practrials.thisTrialN,practrials.thisN,practrials.thisIndex,practrials.ran,TrialID,Target,corrAns,end_of_practice_trials_pages.thisRepN,end_of_practice_trials_pages.thisTrialN,end_of_practice_trials_pages.thisN,end_of_practice_trials_pages.thisIndex,end_of_practice_trials_pages.ran,key_resp_2.keys,key_resp_2.corr,key_resp_2.rt,targ_click.x,targ_click.y,targ_click.leftButton,targ_click.midButton,targ_click.rightButton,targ_click.time,targ_click.clicked_name,break_done_touch.x,break_done_touch.y,break_done_touch.leftButton,break_done_touch.midButton,break_done_touch.rightButton,break_done_keyboard.keys,maintrials.thisRepN,maintrials.thisTrialN,maintrials.thisN,maintrials.thisIndex,maintrials.ran,string,blur,study,lex,stim_path,break_done_keyboard.rt,mouse_2.x,mouse_2.y,mouse_2.leftButton,mouse_2.midButton,mouse_2.rightButton,mouse_2.clicked_name,slider.response,slider.rt,trials.thisRepN,trials.thisTrialN,trials.thisN,trials.thisIndex,trials.ran,test_instructions.thisRepN,test_instructions.thisTrialN,test_instructions.thisN,test_instructions.thisIndex,test_instructions.ran,key_resp_3.keys,key_resp_3.corr,key_resp_3.rt,test_click.x,test_click.y,test_click.leftButton,test_click.midButton,test_click.rightButton,test_click.time,test_click.clicked_name,test_phase.thisRepN,test_phase.thisTrialN,test_phase.thisN,test_phase.thisIndex,test_phase.ran
,0.087630683,-0.415026177,1,0,0,instr_done_button,0,0,0,0,1,1,instructions,"INSTRUCTIONS
At the start of each trial, look at the plus sign  (+) in the center of the screen.  This tells you that a trial is about to begin and where to look. Second, the plus sign will disappear and a string of letters will appear. Your task is to determine if the string of letters is a word or not. If the item is a word press the M key (on keyboard)  or touch the word button (phone/tablet).  If the item is not a word,  press the  Z key (on keyboard)  or touch the nonword button (on phone/tablet). 
Press the space bar or touch  continue.",0,,5c3b8c426949490001a56400,34,2022-02-12_17h12.20.825,lexical_decision_task_DD_L2,2021.2.3,MacIntel,59.99160118,,,,,,,,,,,,,,,,,,,,,,,,,,,,,,,,,,,,,,,,,,,,,,,,,,,,,,,,,,,,,,,,,,,,,,,,,,,,,,,,,,,,,,
space,0.087630683,-0.415026177,0,0,0,,0,1,1,1,1,2,instructions,"If your device has a keyboard, press the 'Z' key for nonwords and the 'M' key for words.





Press the space bar or touch the button below to continue.",0,keyboard-example.gif,5c3b8c426949490001a56400,34,2022-02-12_17h12.20.825,lexical_decision_task_DD_L2,2021.2.3,MacIntel,59.99160118,5.0506,,,,,,,,,,,,,,,,,,,,,,,,,,,,,,,,,,,,,,,,,,,,,,,,,,,,,,,,,,,,,,,,,,,,,,,,,,,,,,,,,,,,,
space,0.087630683,-0.415026177,0,0,0,,0,2,2,2,1,3,instructions,"If you are using a touchscreen only device, use the buttons on the screen. Do not use the mouse.





Press the space bar or touch the button below to continue.",0,touchscreen-example.gif,5c3b8c426949490001a56400,34,2022-02-12_17h12.20.825,lexical_decision_task_DD_L2,2021.2.3,MacIntel,59.99160118,3.5483,,,,,,,,,,,,,,,,,,,,,,,,,,,,,,,,,,,,,,,,,,,,,,,,,,,,,,,,,,,,,,,,,,,,,,,,,,,,,,,,,,,,,
space,0.087630683,-0.415026177,0,0,0,,0,3,3,3,1,4,instructions,"It is very important that you respond as quickly and accurately as possible, as each letter string will only be on the screen for two seconds. If you do not respond within this time, the message 'Too slow!' will be displayed and the experiment will progress to the next letter string. The first 20 trials will be practice trials and you will receive feedback on your answers. 

Press the space bar or touch the button below to start the practice trials.",0,,5c3b8c426949490001a56400,34,2022-02-12_17h12.20.825,lexical_decision_task_DD_L2,2021.2.3,MacIntel,59.99160118,9.7838,,,,,,,,,,,,,,,,,,,,,,,,,,,,,,,,,,,,,,,,,,,,,,,,,,,,,,,,,,,,,,,,,,,,,,,,,,,,,,,,,,,,,
,,,,,,,,,,,,,,,,,5c3b8c426949490001a56400,34,2022-02-12_17h12.20.825,lexical_decision_task_DD_L2,2021.2.3,MacIntel,59.99160118,,m,1,1.5103,,,,,,,,1.5103,1,0,0,0,0,1,1001,UTOPIA,m,,,,,,,,,,,,,,,,,,,,,,,,,,,,,,,,,,,,,,,,,,,,,,,,,,,,,,,,,,,,,,,,,
,,,,,,,,,,,,,,,,,5c3b8c426949490001a56400,34,2022-02-12_17h12.20.825,lexical_decision_task_DD_L2,2021.2.3,MacIntel,59.99160118,,z,1,1.2209,,,,,,,,1.2209,1,0,1,1,14,1,1001,THRALE,z,,,,,,,,,,,,,,,,,,,,,,,,,,,,,,,,,,,,,,,,,,,,,,,,,,,,,,,,,,,,,,,,,
,,,,,,,,,,,,,,,,,5c3b8c426949490001a56400,34,2022-02-12_17h12.20.825,lexical_decision_task_DD_L2,2021.2.3,MacIntel,59.99160118,,m,1,0.8041,,,,,,,,0.8041,1,0,2,2,6,1,1001,ZOMBIE,m,,,,,,,,,,,,,,,,,,,,,,,,,,,,,,,,,,,,,,,,,,,,,,,,,,,,,,,,,,,,,,,,,
,,,,,,,,,,,,,,,,,5c3b8c426949490001a56400,34,2022-02-12_17h12.20.825,lexical_decision_task_DD_L2,2021.2.3,MacIntel,59.99160118,,z,1,1.3327,,,,,,,,1.3327,1,0,3,3,10,1,1001,INLADE,z,,,,,,,,,,,,,,,,,,,,,,,,,,,,,,,,,,,,,,,,,,,,,,,,,,,,,,,,,,,,,,,,,
,,,,,,,,,,,,,,,,,5c3b8c426949490001a56400,34,2022-02-12_17h12.20.825,lexical_decision_task_DD_L2,2021.2.3,MacIntel,59.99160118,,m,1,0.9077,,,,,,,,0.9077,1,0,4,4,3,1,1001,MATRIX,m,,,,,,,,,,,,,,,,,,,,,,,,,,,,,,,,,,,,,,,,,,,,,,,,,,,,,,,,,,,,,,,,,
,,,,,,,,,,,,,,,,,5c3b8c426949490001a56400,34,2022-02-12_17h12.20.825,lexical_decision_task_DD_L2,2021.2.3,MacIntel,59.99160118,,z,1,0.9475,,,,,,,,0.9475,1,0,5,5,12,1,1001,SPRINY,z,,,,,,,,,,,,,,,,,,,,,,,,,,,,,,,,,,,,,,,,,,,,,,,,,,,,,,,,,,,,,,,,,
,,,,,,,,,,,,,,,,,5c3b8c426949490001a56400,34,2022-02-12_17h12.20.825,lexical_decision_task_DD_L2,2021.2.3,MacIntel,59.99160118,,m,1,0.8344,,,,,,,,0.8344,1,0,6,6,4,1,1001,SQUEAK,m,,,,,,,,,,,,,,,,,,,,,,,,,,,,,,,,,,,,,,,,,,,,,,,,,,,,,,,,,,,,,,,,,
,,,,,,,,,,,,,,,,,5c3b8c426949490001a56400,34,2022-02-12_17h12.20.825,lexical_decision_task_DD_L2,2021.2.3,MacIntel,59.99160118,,z,1,1.2214,,,,,,,,1.2214,1,0,7,7,8,1,1001,ASLERT,z,,,,,,,,,,,,,,,,,,,,,,,,,,,,,,,,,,,,,,,,,,,,,,,,,,,,,,,,,,,,,,,,,
,,,,,,,,,,,,,,,,,5c3b8c426949490001a56400,34,2022-02-12_17h12.20.825,lexical_decision_task_DD_L2,2021.2.3,MacIntel,59.99160118,,z,1,1.1215,,,,,,,,1.1215,1,0,8,8,9,1,1001,FARINY,z,,,,,,,,,,,,,,,,,,,,,,,,,,,,,,,,,,,,,,,,,,,,,,,,,,,,,,,,,,,,,,,,,
,,,,,,,,,,,,,,,,,5c3b8c426949490001a56400,34,2022-02-12_17h12.20.825,lexical_decision_task_DD_L2,2021.2.3,MacIntel,59.99160118,,z,1,0.812,,,,,,,,0.812,1,0,9,9,15,1,1001,WHAISE,z,,,,,,,,,,,,,,,,,,,,,,,,,,,,,,,,,,,,,,,,,,,,,,,,,,,,,,,,,,,,,,,,,
,,,,,,,,,,,,,,,,,5c3b8c426949490001a56400,34,2022-02-12_17h12.20.825,lexical_decision_task_DD_L2,2021.2.3,MacIntel,59.99160118,,m,1,0.9292,,,,,,,,0.9292,1,0,10,10,7,1,1001,VOLUME,m,,,,,,,,,,,,,,,,,,,,,,,,,,,,,,,,,,,,,,,,,,,,,,,,,,,,,,,,,,,,,,,,,
,,,,,,,,,,,,,,,,,5c3b8c426949490001a56400,34,2022-02-12_17h12.20.825,lexical_decision_task_DD_L2,2021.2.3,MacIntel,59.99160118,,z,1,1.0283,,,,,,,,1.0283,1,0,11,11,13,1,1001,ROUPET,z,,,,,,,,,,,,,,,,,,,,,,,,,,,,,,,,,,,,,,,,,,,,,,,,,,,,,,,,,,,,,,,,,
,,,,,,,,,,,,,,,,,5c3b8c426949490001a56400,34,2022-02-12_17h12.20.825,lexical_decision_task_DD_L2,2021.2.3,MacIntel,59.99160118,,z,1,1.7898,,,,,,,,1.7898,1,0,12,12,11,1,1001,RASHET,z,,,,,,,,,,,,,,,,,,,,,,,,,,,,,,,,,,,,,,,,,,,,,,,,,,,,,,,,,,,,,,,,,
,,,,,,,,,,,,,,,,,5c3b8c426949490001a56400,34,2022-02-12_17h12.20.825,lexical_decision_task_DD_L2,2021.2.3,MacIntel,59.99160118,,m,1,0.8553,,,,,,,,0.8553,1,0,13,13,1,1,1001,ADJUST,m,,,,,,,,,,,,,,,,,,,,,,,,,,,,,,,,,,,,,,,,,,,,,,,,,,,,,,,,,,,,,,,,,
,,,,,,,,,,,,,,,,,5c3b8c426949490001a56400,34,2022-02-12_17h12.20.825,lexical_decision_task_DD_L2,2021.2.3,MacIntel,59.99160118,,m,1,0.8521,,,,,,,,0.8521,1,0,14,14,2,1,1001,ALMOND,m,,,,,,,,,,,,,,,,,,,,,,,,,,,,,,,,,,,,,,,,,,,,,,,,,,,,,,,,,,,,,,,,,
,,,,,,,,,,,,,,,,,5c3b8c426949490001a56400,34,2022-02-12_17h12.20.825,lexical_decision_task_DD_L2,2021.2.3,MacIntel,59.99160118,,z,0,0.9244,,,,,,,,0.9244,0,0,15,15,5,1,1001,OBTAIN,m,,,,,,,,,,,,,,,,,,,,,,,,,,,,,,,,,,,,,,,,,,,,,,,,,,,,,,,,,,,,,,,,,
space,0.087917209,-0.415282728,0,0,0,,,,,,,1,end_of_practice,"You have completed the practice trials. During the experimental trials, you will not receive feedback. 
Before you begin, please ensure that you are in a comfortable and quiet location and will not be disturbed for about 15 minutes, as we cannot use your data if you do not complete all the trials. 
 When you are ready to start the experimental trials, please press space or touch the button below.",,,5c3b8c426949490001a56400,34,2022-02-12_17h12.20.825,lexical_decision_task_DD_L2,2021.2.3,MacIntel,59.99160118,7.3902,,,,,,,,,,,,,,,,,,,,,0,0,0,0,1,,,,,,,,,,,,,,,,,,,,,,,,,,,,,,,,,,,,,,,,,,,,,,,,,,,,,,,,,,,,
,,,,,,,,,,,,,,,,,5c3b8c426949490001a56400,34,2022-02-12_17h12.20.825,lexical_decision_task_DD_L2,2021.2.3,MacIntel,59.99160118,,,,,,,,,,,,2.8336,0,,,,,,,,,,,,,,m,0,2.8336,,,,,,,,0.087917209,-0.415282728,0,0,0,,0,0,0,142,1,PLASK,HB,old,z,./images/PLASKHB.png,,,,,,,,,,,,,,,,,,,,,,,,,,,,,,,,,,
,,,,,,,,,,,,,,,,,5c3b8c426949490001a56400,34,2022-02-12_17h12.20.825,lexical_decision_task_DD_L2,2021.2.3,MacIntel,59.99160118,,,,,,,,,,,,1.9506,1,,,,,,,,,,,,,,z,1,1.9506,,,,,,,,0.087917209,-0.415282728,0,0,0,,0,1,1,154,1,THINT,HB,old,z,./images/THINTHB.png,,,,,,,,,,,,,,,,,,,,,,,,,,,,,,,,,,
,,,,,,,,,,,,,,,,,5c3b8c426949490001a56400,34,2022-02-12_17h12.20.825,lexical_decision_task_DD_L2,2021.2.3,MacIntel,59.99160118,,,,,,,,,,,,1.3392,1,,,,,,,,,,,,,,z,1,1.3392,,,,,,,,0.087917209,-0.415282728,0,0,0,,0,2,2,92,1,PAIMS,LB,old,z,./images/PAIMSLB.png,,,,,,,,,,,,,,,,,,,,,,,,,,,,,,,,,,
,,,,,,,,,,,,,,,,,5c3b8c426949490001a56400,34,2022-02-12_17h12.20.825,lexical_decision_task_DD_L2,2021.2.3,MacIntel,59.99160118,,,,,,,,,,,,0.7028,1,,,,,,,,,,,,,,m,1,0.7028,,,,,,,,0.087917209,-0.415282728,0,0,0,,0,3,3,0,1,TOMATO,HB,old,m,./images/TOMATOHB.png,,,,,,,,,,,,,,,,,,,,,,,,,,,,,,,,,,
,,,,,,,,,,,,,,,,,5c3b8c426949490001a56400,34,2022-02-12_17h12.20.825,lexical_decision_task_DD_L2,2021.2.3,MacIntel,59.99160118,,,,,,,,,,,,1.0206,1,,,,,,,,,,,,,,z,1,1.0206,,,,,,,,0.087917209,-0.415282728,0,0,0,,0,4,4,143,1,MONGS,LB,old,z,./images/MONGSLB.png,,,,,,,,,,,,,,,,,,,,,,,,,,,,,,,,,,
,,,,,,,,,,,,,,,,,5c3b8c426949490001a56400,34,2022-02-12_17h12.20.825,lexical_decision_task_DD_L2,2021.2.3,MacIntel,59.99160118,,,,,,,,,,,,1.3763,1,,,,,,,,,,,,,,m,1,1.3763,,,,,,,,0.087917209,-0.415282728,0,0,0,,0,5,5,43,1,MOSQUE,LB,old,m,./images/MOSQUELB.png,,,,,,,,,,,,,,,,,,,,,,,,,,,,,,,,,,
,,,,,,,,,,,,,,,,,5c3b8c426949490001a56400,34,2022-02-12_17h12.20.825,lexical_decision_task_DD_L2,2021.2.3,MacIntel,59.99160118,,,,,,,,,,,,1.0004,1,,,,,,,,,,,,,,m,1,1.0004,,,,,,,,0.087917209,-0.415282728,0,0,0,,0,6,6,10,1,BELLY,LB,old,m,./images/BELLYLB.png,,,,,,,,,,,,,,,,,,,,,,,,,,,,,,,,,,
,,,,,,,,,,,,,,,,,5c3b8c426949490001a56400,34,2022-02-12_17h12.20.825,lexical_decision_task_DD_L2,2021.2.3,MacIntel,59.99160118,,,,,,,,,,,,0.8807,1,,,,,,,,,,,,,,z,1,0.8807,,,,,,,,0.087917209,-0.415282728,0,0,0,,0,7,7,158,1,EGECT,LB,old,z,./images/EGECTLB.png,,,,,,,,,,,,,,,,,,,,,,,,,,,,,,,,,,
,,,,,,,,,,,,,,,,,5c3b8c426949490001a56400,34,2022-02-12_17h12.20.825,lexical_decision_task_DD_L2,2021.2.3,MacIntel,59.99160118,,,,,,,,,,,,1.0795,1,,,,,,,,,,,,,,z,1,1.0795,,,,,,,,0.087917209,-0.415282728,0,0,0,,0,8,8,125,1,MOOKY,LB,old,z,./images/MOOKYLB.png,,,,,,,,,,,,,,,,,,,,,,,,,,,,,,,,,,
,,,,,,,,,,,,,,,,,5c3b8c426949490001a56400,34,2022-02-12_17h12.20.825,lexical_decision_task_DD_L2,2021.2.3,MacIntel,59.99160118,,,,,,,,,,,,0.9403,1,,,,,,,,,,,,,,m,1,0.9403,,,,,,,,0.087917209,-0.415282728,0,0,0,,0,9,9,70,1,URINE,LB,old,m,./images/URINELB.png,,,,,,,,,,,,,,,,,,,,,,,,,,,,,,,,,,
,,,,,,,,,,,,,,,,,5c3b8c426949490001a56400,34,2022-02-12_17h12.20.825,lexical_decision_task_DD_L2,2021.2.3,MacIntel,59.99160118,,,,,,,,,,,,1.0191,1,,,,,,,,,,,,,,m,1,1.0191,,,,,,,,0.087917209,-0.415282728,0,0,0,,0,10,10,75,1,GRAIN,HB,old,m,./images/GRAINHB.png,,,,,,,,,,,,,,,,,,,,,,,,,,,,,,,,,,
,,,,,,,,,,,,,,,,,5c3b8c426949490001a56400,34,2022-02-12_17h12.20.825,lexical_decision_task_DD_L2,2021.2.3,MacIntel,59.99160118,,,,,,,,,,,,1.808,0,,,,,,,,,,,,,,z,0,1.808,,,,,,,,0.087917209,-0.415282728,0,0,0,,0,11,11,11,1,BONNET,C,old,m,./images/BONNET.png,,,,,,,,,,,,,,,,,,,,,,,,,,,,,,,,,,
,,,,,,,,,,,,,,,,,5c3b8c426949490001a56400,34,2022-02-12_17h12.20.825,lexical_decision_task_DD_L2,2021.2.3,MacIntel,59.99160118,,,,,,,,,,,,0.9809,1,,,,,,,,,,,,,,z,1,0.9809,,,,,,,,0.087917209,-0.415282728,0,0,0,,0,12,12,164,1,SGREW,LB,old,z,./images/SGREWLB.png,,,,,,,,,,,,,,,,,,,,,,,,,,,,,,,,,,
,,,,,,,,,,,,,,,,,5c3b8c426949490001a56400,34,2022-02-12_17h12.20.825,lexical_decision_task_DD_L2,2021.2.3,MacIntel,59.99160118,,,,,,,,,,,,1.0788,1,,,,,,,,,,,,,,z,1,1.0788,,,,,,,,0.087917209,-0.415282728,0,0,0,,0,13,13,165,1,TROWN,C,old,z,./images/TROWN.png,,,,,,,,,,,,,,,,,,,,,,,,,,,,,,,,,,
,,,,,,,,,,,,,,,,,5c3b8c426949490001a56400,34,2022-02-12_17h12.20.825,lexical_decision_task_DD_L2,2021.2.3,MacIntel,59.99160118,,,,,,,,,,,,1.0789,1,,,,,,,,,,,,,,m,1,1.0789,,,,,,,,0.087917209,-0.415282728,0,0,0,,0,14,14,29,1,CRUMB,C,old,m,./images/CRUMB.png,,,,,,,,,,,,,,,,,,,,,,,,,,,,,,,,,,
,,,,,,,,,,,,,,,,,5c3b8c426949490001a56400,34,2022-02-12_17h12.20.825,lexical_decision_task_DD_L2,2021.2.3,MacIntel,59.99160118,,,,,,,,,,,,1.061,1,,,,,,,,,,,,,,m,1,1.061,,,,,,,,0.087917209,-0.415282728,0,0,0,,0,15,15,13,1,MOTOR,LB,old,m,./images/MOTORLB.png,,,,,,,,,,,,,,,,,,,,,,,,,,,,,,,,,,
,,,,,,,,,,,,,,,,,5c3b8c426949490001a56400,34,2022-02-12_17h12.20.825,lexical_decision_task_DD_L2,2021.2.3,MacIntel,59.99160118,,,,,,,,,,,,1.1192,1,,,,,,,,,,,,,,m,1,1.1192,,,,,,,,0.087917209,-0.415282728,0,0,0,,0,16,16,12,1,SHORE,HB,old,m,./images/SHOREHB.png,,,,,,,,,,,,,,,,,,,,,,,,,,,,,,,,,,
,,,,,,,,,,,,,,,,,5c3b8c426949490001a56400,34,2022-02-12_17h12.20.825,lexical_decision_task_DD_L2,2021.2.3,MacIntel,59.99160118,,,,,,,,,,,,1.2392,1,,,,,,,,,,,,,,z,1,1.2392,,,,,,,,0.087917209,-0.415282728,0,0,0,,0,17,17,130,1,CRILL,HB,old,z,./images/CRILLHB.png,,,,,,,,,,,,,,,,,,,,,,,,,,,,,,,,,,
,,,,,,,,,,,,,,,,,5c3b8c426949490001a56400,34,2022-02-12_17h12.20.825,lexical_decision_task_DD_L2,2021.2.3,MacIntel,59.99160118,,,,,,,,,,,,1.5518,1,,,,,,,,,,,,,,m,1,1.5518,,,,,,,,0.087917209,-0.415282728,0,0,0,,0,18,18,54,1,TRIPOD,HB,old,m,./images/TRIPODHB.png,,,,,,,,,,,,,,,,,,,,,,,,,,,,,,,,,,
,,,,,,,,,,,,,,,,,5c3b8c426949490001a56400,34,2022-02-12_17h12.20.825,lexical_decision_task_DD_L2,2021.2.3,MacIntel,59.99160118,,,,,,,,,,,,0.9198,1,,,,,,,,,,,,,,m,1,0.9198,,,,,,,,0.087917209,-0.415282728,0,0,0,,0,19,19,74,1,CEMENT,C,old,m,./images/CEMENT.png,,,,,,,,,,,,,,,,,,,,,,,,,,,,,,,,,,
,,,,,,,,,,,,,,,,,5c3b8c426949490001a56400,34,2022-02-12_17h12.20.825,lexical_decision_task_DD_L2,2021.2.3,MacIntel,59.99160118,,,,,,,,,,,,0.9203,1,,,,,,,,,,,,,,z,1,0.9203,,,,,,,,0.087917209,-0.415282728,0,0,0,,0,20,20,155,1,CANGY,LB,old,z,./images/CANGYLB.png,,,,,,,,,,,,,,,,,,,,,,,,,,,,,,,,,,
,,,,,,,,,,,,,,,,,5c3b8c426949490001a56400,34,2022-02-12_17h12.20.825,lexical_decision_task_DD_L2,2021.2.3,MacIntel,59.99160118,,,,,,,,,,,,1.0791,1,,,,,,,,,,,,,,m,1,1.0791,,,,,,,,0.087917209,-0.415282728,0,0,0,,0,21,21,59,1,BURIAL,C,old,m,./images/BURIAL.png,,,,,,,,,,,,,,,,,,,,,,,,,,,,,,,,,,
,,,,,,,,,,,,,,,,,5c3b8c426949490001a56400,34,2022-02-12_17h12.20.825,lexical_decision_task_DD_L2,2021.2.3,MacIntel,59.99160118,,,,,,,,,,,,0.9619,1,,,,,,,,,,,,,,z,1,0.9619,,,,,,,,0.087917209,-0.415282728,0,0,0,,0,22,22,103,1,FLORT,HB,old,z,./images/FLORTHB.png,,,,,,,,,,,,,,,,,,,,,,,,,,,,,,,,,,
,,,,,,,,,,,,,,,,,5c3b8c426949490001a56400,34,2022-02-12_17h12.20.825,lexical_decision_task_DD_L2,2021.2.3,MacIntel,59.99160118,,,,,,,,,,,,0.9599,1,,,,,,,,,,,,,,z,1,0.9599,,,,,,,,0.087917209,-0.415282728,0,0,0,,0,23,23,120,1,RINED,C,old,z,./images/RINED.png,,,,,,,,,,,,,,,,,,,,,,,,,,,,,,,,,,
,,,,,,,,,,,,,,,,,5c3b8c426949490001a56400,34,2022-02-12_17h12.20.825,lexical_decision_task_DD_L2,2021.2.3,MacIntel,59.99160118,,,,,,,,,,,,1.2982,1,,,,,,,,,,,,,,z,1,1.2982,,,,,,,,0.087917209,-0.415282728,0,0,0,,0,24,24,87,1,TRING,C,old,z,./images/TRING.png,,,,,,,,,,,,,,,,,,,,,,,,,,,,,,,,,,
,,,,,,,,,,,,,,,,,5c3b8c426949490001a56400,34,2022-02-12_17h12.20.825,lexical_decision_task_DD_L2,2021.2.3,MacIntel,59.99160118,,,,,,,,,,,,2.1263,1,,,,,,,,,,,,,,z,1,2.1263,,,,,,,,0.087917209,-0.415282728,0,0,0,,0,25,25,118,1,BAVEL,HB,old,z,./images/BAVELHB.png,,,,,,,,,,,,,,,,,,,,,,,,,,,,,,,,,,
,,,,,,,,,,,,,,,,,5c3b8c426949490001a56400,34,2022-02-12_17h12.20.825,lexical_decision_task_DD_L2,2021.2.3,MacIntel,59.99160118,,,,,,,,,,,,1.1614,1,,,,,,,,,,,,,,m,1,1.1614,,,,,,,,0.087917209,-0.415282728,0,0,0,,0,26,26,38,1,LADDER,C,old,m,./images/LADDER.png,,,,,,,,,,,,,,,,,,,,,,,,,,,,,,,,,,
,,,,,,,,,,,,,,,,,5c3b8c426949490001a56400,34,2022-02-12_17h12.20.825,lexical_decision_task_DD_L2,2021.2.3,MacIntel,59.99160118,,,,,,,,,,,,1.0014,1,,,,,,,,,,,,,,m,1,1.0014,,,,,,,,0.087917209,-0.415282728,0,0,0,,0,27,27,23,1,WALRUS,C,old,m,./images/WALRUS.png,,,,,,,,,,,,,,,,,,,,,,,,,,,,,,,,,,
,,,,,,,,,,,,,,,,,5c3b8c426949490001a56400,34,2022-02-12_17h12.20.825,lexical_decision_task_DD_L2,2021.2.3,MacIntel,59.99160118,,,,,,,,,,,,0.8215,1,,,,,,,,,,,,,,m,1,0.8215,,,,,,,,0.087917209,-0.415282728,0,0,0,,0,28,28,62,1,PURSE,C,old,m,./images/PURSE.png,,,,,,,,,,,,,,,,,,,,,,,,,,,,,,,,,,
,,,,,,,,,,,,,,,,,5c3b8c426949490001a56400,34,2022-02-12_17h12.20.825,lexical_decision_task_DD_L2,2021.2.3,MacIntel,59.99160118,,,,,,,,,,,,1.3768,1,,,,,,,,,,,,,,m,1,1.3768,,,,,,,,0.087917209,-0.415282728,0,0,0,,0,29,29,50,1,MALLET,C,old,m,./images/MALLET.png,,,,,,,,,,,,,,,,,,,,,,,,,,,,,,,,,,
,,,,,,,,,,,,,,,,,5c3b8c426949490001a56400,34,2022-02-12_17h12.20.825,lexical_decision_task_DD_L2,2021.2.3,MacIntel,59.99160118,,,,,,,,,,,,0.8617,1,,,,,,,,,,,,,,z,1,0.8617,,,,,,,,0.087917209,-0.415282728,0,0,0,,0,30,30,147,1,ZOLES,C,old,z,./images/ZOLES.png,,,,,,,,,,,,,,,,,,,,,,,,,,,,,,,,,,
,,,,,,,,,,,,,,,,,5c3b8c426949490001a56400,34,2022-02-12_17h12.20.825,lexical_decision_task_DD_L2,2021.2.3,MacIntel,59.99160118,,,,,,,,,,,,1.6741,1,,,,,,,,,,,,,,z,1,1.6741,,,,,,,,0.087917209,-0.415282728,0,0,0,,0,31,31,91,1,SHENS,HB,old,z,./images/SHENSHB.png,,,,,,,,,,,,,,,,,,,,,,,,,,,,,,,,,,
,,,,,,,,,,,,,,,,,5c3b8c426949490001a56400,34,2022-02-12_17h12.20.825,lexical_decision_task_DD_L2,2021.2.3,MacIntel,59.99160118,,,,,,,,,,,,0.9779,1,,,,,,,,,,,,,,z,1,0.9779,,,,,,,,0.087917209,-0.415282728,0,0,0,,0,32,32,107,1,FASKS,LB,old,z,./images/FASKSLB.png,,,,,,,,,,,,,,,,,,,,,,,,,,,,,,,,,,
,,,,,,,,,,,,,,,,,5c3b8c426949490001a56400,34,2022-02-12_17h12.20.825,lexical_decision_task_DD_L2,2021.2.3,MacIntel,59.99160118,,,,,,,,,,,,1.7911,1,,,,,,,,,,,,,,z,1,1.7911,,,,,,,,0.087917209,-0.415282728,0,0,0,,0,33,33,163,1,GAMBA,HB,old,z,./images/GAMBAHB.png,,,,,,,,,,,,,,,,,,,,,,,,,,,,,,,,,,
,,,,,,,,,,,,,,,,,5c3b8c426949490001a56400,34,2022-02-12_17h12.20.825,lexical_decision_task_DD_L2,2021.2.3,MacIntel,59.99160118,,,,,,,,,,,,1.1399,1,,,,,,,,,,,,,,m,1,1.1399,,,,,,,,0.087917209,-0.415282728,0,0,0,,0,34,34,35,1,PEACH,C,old,m,./images/PEACH.png,,,,,,,,,,,,,,,,,,,,,,,,,,,,,,,,,,
,,,,,,,,,,,,,,,,,5c3b8c426949490001a56400,34,2022-02-12_17h12.20.825,lexical_decision_task_DD_L2,2021.2.3,MacIntel,59.99160118,,,,,,,,,,,,1.0389,1,,,,,,,,,,,,,,m,1,1.0389,,,,,,,,0.087917209,-0.415282728,0,0,0,,0,35,35,46,1,PEARL,LB,old,m,./images/PEARLLB.png,,,,,,,,,,,,,,,,,,,,,,,,,,,,,,,,,,
,,,,,,,,,,,,,,,,,5c3b8c426949490001a56400,34,2022-02-12_17h12.20.825,lexical_decision_task_DD_L2,2021.2.3,MacIntel,59.99160118,,,,,,,,,,,,0.9798,1,,,,,,,,,,,,,,m,1,0.9798,,,,,,,,0.087917209,-0.415282728,0,0,0,,0,36,36,64,1,JELLY,LB,old,m,./images/JELLYLB.png,,,,,,,,,,,,,,,,,,,,,,,,,,,,,,,,,,
,,,,,,,,,,,,,,,,,5c3b8c426949490001a56400,34,2022-02-12_17h12.20.825,lexical_decision_task_DD_L2,2021.2.3,MacIntel,59.99160118,,,,,,,,,,,,1.8003,1,,,,,,,,,,,,,,z,1,1.8003,,,,,,,,0.087917209,-0.415282728,0,0,0,,0,37,37,166,1,SHORY,HB,old,z,./images/SHORYHB.png,,,,,,,,,,,,,,,,,,,,,,,,,,,,,,,,,,
,,,,,,,,,,,,,,,,,5c3b8c426949490001a56400,34,2022-02-12_17h12.20.825,lexical_decision_task_DD_L2,2021.2.3,MacIntel,59.99160118,,,,,,,,,,,,1.6341,1,,,,,,,,,,,,,,z,1,1.6341,,,,,,,,0.087917209,-0.415282728,0,0,0,,0,38,38,85,1,CHULK,HB,old,z,./images/CHULKHB.png,,,,,,,,,,,,,,,,,,,,,,,,,,,,,,,,,,
,,,,,,,,,,,,,,,,,5c3b8c426949490001a56400,34,2022-02-12_17h12.20.825,lexical_decision_task_DD_L2,2021.2.3,MacIntel,59.99160118,,,,,,,,,,,,0.9382,1,,,,,,,,,,,,,,z,1,0.9382,,,,,,,,0.087917209,-0.415282728,0,0,0,,0,39,39,93,1,SMONE,C,old,z,./images/SMONE.png,,,,,,,,,,,,,,,,,,,,,,,,,,,,,,,,,,
,,,,,,,,,,,,,,,,,5c3b8c426949490001a56400,34,2022-02-12_17h12.20.825,lexical_decision_task_DD_L2,2021.2.3,MacIntel,59.99160118,,,,,,,,,,,,0.8416,1,,,,,,,,,,,,,,m,1,0.8416,,,,,,,,0.087917209,-0.415282728,0,0,0,,0,40,40,73,1,SNACK,LB,old,m,./images/SNACKLB.png,,,,,,,,,,,,,,,,,,,,,,,,,,,,,,,,,,
,,,,,,,,,,,,,,,,,5c3b8c426949490001a56400,34,2022-02-12_17h12.20.825,lexical_decision_task_DD_L2,2021.2.3,MacIntel,59.99160118,,,,,,,,,,,,1.8715,1,,,,,,,,,,,,,,m,1,1.8715,,,,,,,,0.087917209,-0.415282728,0,0,0,space,0,41,41,37,1,BIRTH,LB,old,m,./images/BIRTHLB.png,25.106,,,,,,,,,,,,,,,,,,,,,,,,,,,,,,,,,
,,,,,,,,,,,,,,,,,5c3b8c426949490001a56400,34,2022-02-12_17h12.20.825,lexical_decision_task_DD_L2,2021.2.3,MacIntel,59.99160118,,,,,,,,,,,,1.8534,1,,,,,,,,,,,,,,z,1,1.8534,,,,,,,,0.087917209,-0.415282728,0,0,0,,0,42,42,105,1,MOKER,C,old,z,./images/MOKER.png,,,,,,,,,,,,,,,,,,,,,,,,,,,,,,,,,,
,,,,,,,,,,,,,,,,,5c3b8c426949490001a56400,34,2022-02-12_17h12.20.825,lexical_decision_task_DD_L2,2021.2.3,MacIntel,59.99160118,,,,,,,,,,,,0.8812,1,,,,,,,,,,,,,,m,1,0.8812,,,,,,,,0.087917209,-0.415282728,0,0,0,,0,43,43,51,1,ONION,HB,old,m,./images/ONIONHB.png,,,,,,,,,,,,,,,,,,,,,,,,,,,,,,,,,,
,,,,,,,,,,,,,,,,,5c3b8c426949490001a56400,34,2022-02-12_17h12.20.825,lexical_decision_task_DD_L2,2021.2.3,MacIntel,59.99160118,,,,,,,,,,,,0.8824,1,,,,,,,,,,,,,,z,1,0.8824,,,,,,,,0.087917209,-0.415282728,0,0,0,,0,44,44,114,1,RIKES,C,old,z,./images/RIKES.png,,,,,,,,,,,,,,,,,,,,,,,,,,,,,,,,,,
,,,,,,,,,,,,,,,,,5c3b8c426949490001a56400,34,2022-02-12_17h12.20.825,lexical_decision_task_DD_L2,2021.2.3,MacIntel,59.99160118,,,,,,,,,,,,0.8807,1,,,,,,,,,,,,,,m,1,0.8807,,,,,,,,0.087917209,-0.415282728,0,0,0,,0,45,45,24,1,SCREW,HB,old,m,./images/SCREWHB.png,,,,,,,,,,,,,,,,,,,,,,,,,,,,,,,,,,
,,,,,,,,,,,,,,,,,5c3b8c426949490001a56400,34,2022-02-12_17h12.20.825,lexical_decision_task_DD_L2,2021.2.3,MacIntel,59.99160118,,,,,,,,,,,,1.0218,1,,,,,,,,,,,,,,m,1,1.0218,,,,,,,,0.087917209,-0.415282728,0,0,0,,0,46,46,77,1,COUCH,C,old,m,./images/COUCH.png,,,,,,,,,,,,,,,,,,,,,,,,,,,,,,,,,,
,,,,,,,,,,,,,,,,,5c3b8c426949490001a56400,34,2022-02-12_17h12.20.825,lexical_decision_task_DD_L2,2021.2.3,MacIntel,59.99160118,,,,,,,,,,,,1.395,1,,,,,,,,,,,,,,m,1,1.395,,,,,,,,0.087917209,-0.415282728,0,0,0,,0,47,47,57,1,MOOSE,HB,old,m,./images/MOOSEHB.png,,,,,,,,,,,,,,,,,,,,,,,,,,,,,,,,,,
,,,,,,,,,,,,,,,,,5c3b8c426949490001a56400,34,2022-02-12_17h12.20.825,lexical_decision_task_DD_L2,2021.2.3,MacIntel,59.99160118,,,,,,,,,,,,1.2403,1,,,,,,,,,,,,,,z,1,1.2403,,,,,,,,0.087917209,-0.415282728,0,0,0,,0,48,48,119,1,PAFER,LB,old,z,./images/PAFERLB.png,,,,,,,,,,,,,,,,,,,,,,,,,,,,,,,,,,
,,,,,,,,,,,,,,,,,5c3b8c426949490001a56400,34,2022-02-12_17h12.20.825,lexical_decision_task_DD_L2,2021.2.3,MacIntel,59.99160118,,,,,,,,,,,,0.9197,1,,,,,,,,,,,,,,z,1,0.9197,,,,,,,,0.087917209,-0.415282728,0,0,0,,0,49,49,109,1,BURGE,HB,old,z,./images/BURGEHB.png,,,,,,,,,,,,,,,,,,,,,,,,,,,,,,,,,,
,,,,,,,,,,,,,,,,,5c3b8c426949490001a56400,34,2022-02-12_17h12.20.825,lexical_decision_task_DD_L2,2021.2.3,MacIntel,59.99160118,,,,,,,,,,,,0.8827,1,,,,,,,,,,,,,,z,1,0.8827,,,,,,,,0.087917209,-0.415282728,0,0,0,,0,50,50,123,1,SEDGE,C,old,z,./images/SEDGE.png,,,,,,,,,,,,,,,,,,,,,,,,,,,,,,,,,,
,,,,,,,,,,,,,,,,,5c3b8c426949490001a56400,34,2022-02-12_17h12.20.825,lexical_decision_task_DD_L2,2021.2.3,MacIntel,59.99160118,,,,,,,,,,,,1.0193,1,,,,,,,,,,,,,,m,1,1.0193,,,,,,,,0.087917209,-0.415282728,0,0,0,,0,51,51,65,1,FARMER,C,old,m,./images/FARMER.png,,,,,,,,,,,,,,,,,,,,,,,,,,,,,,,,,,
,,,,,,,,,,,,,,,,,5c3b8c426949490001a56400,34,2022-02-12_17h12.20.825,lexical_decision_task_DD_L2,2021.2.3,MacIntel,59.99160118,,,,,,,,,,,,1.1967,1,,,,,,,,,,,,,,m,1,1.1967,,,,,,,,0.087917209,-0.415282728,0,0,0,,0,52,52,49,1,DRUMS,LB,old,m,./images/DRUMSLB.png,,,,,,,,,,,,,,,,,,,,,,,,,,,,,,,,,,
,,,,,,,,,,,,,,,,,5c3b8c426949490001a56400,34,2022-02-12_17h12.20.825,lexical_decision_task_DD_L2,2021.2.3,MacIntel,59.99160118,,,,,,,,,,,,1.1207,1,,,,,,,,,,,,,,m,1,1.1207,,,,,,,,0.087917209,-0.415282728,0,0,0,,0,53,53,20,1,CRADLE,C,old,m,./images/CRADLE.png,,,,,,,,,,,,,,,,,,,,,,,,,,,,,,,,,,
,,,,,,,,,,,,,,,,,5c3b8c426949490001a56400,34,2022-02-12_17h12.20.825,lexical_decision_task_DD_L2,2021.2.3,MacIntel,59.99160118,,,,,,,,,,,,0.9817,1,,,,,,,,,,,,,,z,1,0.9817,,,,,,,,0.087917209,-0.415282728,0,0,0,,0,54,54,141,1,PLEET,C,old,z,./images/PLEET.png,,,,,,,,,,,,,,,,,,,,,,,,,,,,,,,,,,
,,,,,,,,,,,,,,,,,5c3b8c426949490001a56400,34,2022-02-12_17h12.20.825,lexical_decision_task_DD_L2,2021.2.3,MacIntel,59.99160118,,,,,,,,,,,,1.3358,1,,,,,,,,,,,,,,z,1,1.3358,,,,,,,,0.087917209,-0.415282728,0,0,0,,0,55,55,136,1,WERVE,HB,old,z,./images/WERVEHB.png,,,,,,,,,,,,,,,,,,,,,,,,,,,,,,,,,,
,,,,,,,,,,,,,,,,,5c3b8c426949490001a56400,34,2022-02-12_17h12.20.825,lexical_decision_task_DD_L2,2021.2.3,MacIntel,59.99160118,,,,,,,,,,,,0.9804,1,,,,,,,,,,,,,,z,1,0.9804,,,,,,,,0.087917209,-0.415282728,0,0,0,,0,56,56,116,1,BALGY,LB,old,z,./images/BALGYLB.png,,,,,,,,,,,,,,,,,,,,,,,,,,,,,,,,,,
,,,,,,,,,,,,,,,,,5c3b8c426949490001a56400,34,2022-02-12_17h12.20.825,lexical_decision_task_DD_L2,2021.2.3,MacIntel,59.99160118,,,,,,,,,,,,0.8745,1,,,,,,,,,,,,,,z,1,0.8745,,,,,,,,0.087917209,-0.415282728,0,0,0,,0,57,57,131,1,NACES,LB,old,z,./images/NACESLB.png,,,,,,,,,,,,,,,,,,,,,,,,,,,,,,,,,,
,,,,,,,,,,,,,,,,,5c3b8c426949490001a56400,34,2022-02-12_17h12.20.825,lexical_decision_task_DD_L2,2021.2.3,MacIntel,59.99160118,,,,,,,,,,,,1.097,1,,,,,,,,,,,,,,z,1,1.097,,,,,,,,0.087917209,-0.415282728,0,0,0,,0,58,58,106,1,CLUMS,HB,old,z,./images/CLUMSHB.png,,,,,,,,,,,,,,,,,,,,,,,,,,,,,,,,,,
,,,,,,,,,,,,,,,,,5c3b8c426949490001a56400,34,2022-02-12_17h12.20.825,lexical_decision_task_DD_L2,2021.2.3,MacIntel,59.99160118,,,,,,,,,,,,1.102,1,,,,,,,,,,,,,,z,1,1.102,,,,,,,,0.087917209,-0.415282728,0,0,0,,0,59,59,108,1,GRUET,C,old,z,./images/GRUET.png,,,,,,,,,,,,,,,,,,,,,,,,,,,,,,,,,,
,,,,,,,,,,,,,,,,,5c3b8c426949490001a56400,34,2022-02-12_17h12.20.825,lexical_decision_task_DD_L2,2021.2.3,MacIntel,59.99160118,,,,,,,,,,,,1.5431,1,,,,,,,,,,,,,,z,1,1.5431,,,,,,,,0.087917209,-0.415282728,0,0,0,,0,60,60,137,1,JOOST,LB,old,z,./images/JOOSTLB.png,,,,,,,,,,,,,,,,,,,,,,,,,,,,,,,,,,
,,,,,,,,,,,,,,,,,5c3b8c426949490001a56400,34,2022-02-12_17h12.20.825,lexical_decision_task_DD_L2,2021.2.3,MacIntel,59.99160118,,,,,,,,,,,,1.3774,1,,,,,,,,,,,,,,z,1,1.3774,,,,,,,,0.087917209,-0.415282728,0,0,0,,0,61,61,112,1,MYING,HB,old,z,./images/MYINGHB.png,,,,,,,,,,,,,,,,,,,,,,,,,,,,,,,,,,
,,,,,,,,,,,,,,,,,5c3b8c426949490001a56400,34,2022-02-12_17h12.20.825,lexical_decision_task_DD_L2,2021.2.3,MacIntel,59.99160118,,,,,,,,,,,,2.3498,1,,,,,,,,,,,,,,m,1,2.3498,,,,,,,,0.087917209,-0.415282728,0,0,0,,0,62,62,33,1,MAGGOT,HB,old,m,./images/MAGGOTHB.png,,,,,,,,,,,,,,,,,,,,,,,,,,,,,,,,,,
,,,,,,,,,,,,,,,,,5c3b8c426949490001a56400,34,2022-02-12_17h12.20.825,lexical_decision_task_DD_L2,2021.2.3,MacIntel,59.99160118,,,,,,,,,,,,0.9807,1,,,,,,,,,,,,,,m,1,0.9807,,,,,,,,0.087917209,-0.415282728,0,0,0,,0,63,63,8,1,TULIP,C,old,m,./images/TULIP.png,,,,,,,,,,,,,,,,,,,,,,,,,,,,,,,,,,
,,,,,,,,,,,,,,,,,5c3b8c426949490001a56400,34,2022-02-12_17h12.20.825,lexical_decision_task_DD_L2,2021.2.3,MacIntel,59.99160118,,,,,,,,,,,,1.5369,1,,,,,,,,,,,,,,z,1,1.5369,,,,,,,,0.087917209,-0.415282728,0,0,0,,0,64,64,127,1,NINDY,HB,old,z,./images/NINDYHB.png,,,,,,,,,,,,,,,,,,,,,,,,,,,,,,,,,,
,,,,,,,,,,,,,,,,,5c3b8c426949490001a56400,34,2022-02-12_17h12.20.825,lexical_decision_task_DD_L2,2021.2.3,MacIntel,59.99160118,,,,,,,,,,,,1.5757,1,,,,,,,,,,,,,,z,1,1.5757,,,,,,,,0.087917209,-0.415282728,0,0,0,,0,65,65,162,1,LEICH,C,old,z,./images/LEICH.png,,,,,,,,,,,,,,,,,,,,,,,,,,,,,,,,,,
,,,,,,,,,,,,,,,,,5c3b8c426949490001a56400,34,2022-02-12_17h12.20.825,lexical_decision_task_DD_L2,2021.2.3,MacIntel,59.99160118,,,,,,,,,,,,1.0416,1,,,,,,,,,,,,,,m,1,1.0416,,,,,,,,0.087917209,-0.415282728,0,0,0,,0,66,66,42,1,FOLDER,HB,old,m,./images/FOLDERHB.png,,,,,,,,,,,,,,,,,,,,,,,,,,,,,,,,,,
,,,,,,,,,,,,,,,,,5c3b8c426949490001a56400,34,2022-02-12_17h12.20.825,lexical_decision_task_DD_L2,2021.2.3,MacIntel,59.99160118,,,,,,,,,,,,2.346,0,,,,,,,,,,,,,,m,0,2.346,,,,,,,,0.087917209,-0.415282728,0,0,0,,0,67,67,157,1,INLER,HB,old,z,./images/INLERHB.png,,,,,,,,,,,,,,,,,,,,,,,,,,,,,,,,,,
,,,,,,,,,,,,,,,,,5c3b8c426949490001a56400,34,2022-02-12_17h12.20.825,lexical_decision_task_DD_L2,2021.2.3,MacIntel,59.99160118,,,,,,,,,,,,1.059,1,,,,,,,,,,,,,,z,1,1.059,,,,,,,,0.087917209,-0.415282728,0,0,0,,0,68,68,95,1,HANTY,LB,old,z,./images/HANTYLB.png,,,,,,,,,,,,,,,,,,,,,,,,,,,,,,,,,,
,,,,,,,,,,,,,,,,,5c3b8c426949490001a56400,34,2022-02-12_17h12.20.825,lexical_decision_task_DD_L2,2021.2.3,MacIntel,59.99160118,,,,,,,,,,,,0.9006,1,,,,,,,,,,,,,,z,1,0.9006,,,,,,,,0.087917209,-0.415282728,0,0,0,,0,69,69,140,1,DOVET,LB,old,z,./images/DOVETLB.png,,,,,,,,,,,,,,,,,,,,,,,,,,,,,,,,,,
,,,,,,,,,,,,,,,,,5c3b8c426949490001a56400,34,2022-02-12_17h12.20.825,lexical_decision_task_DD_L2,2021.2.3,MacIntel,59.99160118,,,,,,,,,,,,1.753,1,,,,,,,,,,,,,,z,1,1.753,,,,,,,,0.087917209,-0.415282728,0,0,0,,0,70,70,144,1,NAIRY,C,old,z,./images/NAIRY.png,,,,,,,,,,,,,,,,,,,,,,,,,,,,,,,,,,
,,,,,,,,,,,,,,,,,5c3b8c426949490001a56400,34,2022-02-12_17h12.20.825,lexical_decision_task_DD_L2,2021.2.3,MacIntel,59.99160118,,,,,,,,,,,,1.1797,1,,,,,,,,,,,,,,m,1,1.1797,,,,,,,,0.087917209,-0.415282728,0,0,0,,0,71,71,5,1,PASTA,C,old,m,./images/PASTA.png,,,,,,,,,,,,,,,,,,,,,,,,,,,,,,,,,,
,,,,,,,,,,,,,,,,,5c3b8c426949490001a56400,34,2022-02-12_17h12.20.825,lexical_decision_task_DD_L2,2021.2.3,MacIntel,59.99160118,,,,,,,,,,,,1.0785,1,,,,,,,,,,,,,,m,1,1.0785,,,,,,,,0.087917209,-0.415282728,0,0,0,,0,72,72,63,1,MIRROR,HB,old,m,./images/MIRRORHB.png,,,,,,,,,,,,,,,,,,,,,,,,,,,,,,,,,,
,,,,,,,,,,,,,,,,,5c3b8c426949490001a56400,34,2022-02-12_17h12.20.825,lexical_decision_task_DD_L2,2021.2.3,MacIntel,59.99160118,,,,,,,,,,,,0.861,1,,,,,,,,,,,,,,m,1,0.861,,,,,,,,0.087917209,-0.415282728,0,0,0,,0,73,73,78,1,LITTER,HB,old,m,./images/LITTERHB.png,,,,,,,,,,,,,,,,,,,,,,,,,,,,,,,,,,
,,,,,,,,,,,,,,,,,5c3b8c426949490001a56400,34,2022-02-12_17h12.20.825,lexical_decision_task_DD_L2,2021.2.3,MacIntel,59.99160118,,,,,,,,,,,,1.1178,1,,,,,,,,,,,,,,z,1,1.1178,,,,,,,,0.087917209,-0.415282728,0,0,0,,0,74,74,121,1,CEERS,HB,old,z,./images/CEERSHB.png,,,,,,,,,,,,,,,,,,,,,,,,,,,,,,,,,,
,,,,,,,,,,,,,,,,,5c3b8c426949490001a56400,34,2022-02-12_17h12.20.825,lexical_decision_task_DD_L2,2021.2.3,MacIntel,59.99160118,,,,,,,,,,,,1.3819,1,,,,,,,,,,,,,,z,1,1.3819,,,,,,,,0.087917209,-0.415282728,0,0,0,,0,75,75,102,1,DULLE,C,old,z,./images/DULLE.png,,,,,,,,,,,,,,,,,,,,,,,,,,,,,,,,,,
,,,,,,,,,,,,,,,,,5c3b8c426949490001a56400,34,2022-02-12_17h12.20.825,lexical_decision_task_DD_L2,2021.2.3,MacIntel,59.99160118,,,,,,,,,,,,0.7032,1,,,,,,,,,,,,,,z,1,0.7032,,,,,,,,0.087917209,-0.415282728,0,0,0,,0,76,76,97,1,CHIDS,HB,old,z,./images/CHIDSHB.png,,,,,,,,,,,,,,,,,,,,,,,,,,,,,,,,,,
,,,,,,,,,,,,,,,,,5c3b8c426949490001a56400,34,2022-02-12_17h12.20.825,lexical_decision_task_DD_L2,2021.2.3,MacIntel,59.99160118,,,,,,,,,,,,0.9225,1,,,,,,,,,,,,,,m,1,0.9225,,,,,,,,0.087917209,-0.415282728,0,0,0,,0,77,77,31,1,QUILL,LB,old,m,./images/QUILLLB.png,,,,,,,,,,,,,,,,,,,,,,,,,,,,,,,,,,
,,,,,,,,,,,,,,,,,5c3b8c426949490001a56400,34,2022-02-12_17h12.20.825,lexical_decision_task_DD_L2,2021.2.3,MacIntel,59.99160118,,,,,,,,,,,,0.8592,1,,,,,,,,,,,,,,z,1,0.8592,,,,,,,,0.087917209,-0.415282728,0,0,0,,0,78,78,113,1,LINEW,LB,old,z,./images/LINEWLB.png,,,,,,,,,,,,,,,,,,,,,,,,,,,,,,,,,,
,,,,,,,,,,,,,,,,,5c3b8c426949490001a56400,34,2022-02-12_17h12.20.825,lexical_decision_task_DD_L2,2021.2.3,MacIntel,59.99160118,,,,,,,,,,,,1.2195,1,,,,,,,,,,,,,,m,1,1.2195,,,,,,,,0.087917209,-0.415282728,0,0,0,,0,79,79,6,1,SQUARE,HB,old,m,./images/SQUAREHB.png,,,,,,,,,,,,,,,,,,,,,,,,,,,,,,,,,,
,,,,,,,,,,,,,,,,,5c3b8c426949490001a56400,34,2022-02-12_17h12.20.825,lexical_decision_task_DD_L2,2021.2.3,MacIntel,59.99160118,,,,,,,,,,,,0.9594,1,,,,,,,,,,,,,,z,1,0.9594,,,,,,,,0.087917209,-0.415282728,0,0,0,,0,80,80,133,1,POWDY,HB,old,z,./images/POWDYHB.png,,,,,,,,,,,,,,,,,,,,,,,,,,,,,,,,,,
,,,,,,,,,,,,,,,,,5c3b8c426949490001a56400,34,2022-02-12_17h12.20.825,lexical_decision_task_DD_L2,2021.2.3,MacIntel,59.99160118,,,,,,,,,,,,1.118,1,,,,,,,,,,,,,,m,1,1.118,,,,,,,,0.087917209,-0.415282728,0,0,0,,0,81,81,48,1,SPORT,HB,old,m,./images/SPORTHB.png,,,,,,,,,,,,,,,,,,,,,,,,,,,,,,,,,,
,,,,,,,,,,,,,,,,,5c3b8c426949490001a56400,34,2022-02-12_17h12.20.825,lexical_decision_task_DD_L2,2021.2.3,MacIntel,59.99160118,,,,,,,,,,,,1.0435,1,,,,,,,,,,,,,,z,1,1.0435,,,,,,,,0.087917209,-0.415282728,0,0,0,,0,82,82,115,1,MAWNS,HB,old,z,./images/MAWNSHB.png,,,,,,,,,,,,,,,,,,,,,,,,,,,,,,,,,,
,,,,,,,,,,,,,,,,,5c3b8c426949490001a56400,34,2022-02-12_17h12.20.825,lexical_decision_task_DD_L2,2021.2.3,MacIntel,59.99160118,,,,,,,,,,,,1.0229,1,,,,,,,,,,,,,,m,1,1.0229,,,,,,,,0.087917209,-0.415282728,0,0,0,space,0,83,83,47,1,BERRY,C,old,m,./images/BERRY.png,5.8668,,,,,,,,,,,,,,,,,,,,,,,,,,,,,,,,,
,,,,,,,,,,,,,,,,,5c3b8c426949490001a56400,34,2022-02-12_17h12.20.825,lexical_decision_task_DD_L2,2021.2.3,MacIntel,59.99160118,,,,,,,,,,,,1.0209,1,,,,,,,,,,,,,,z,1,1.0209,,,,,,,,0.087917209,-0.415282728,0,0,0,,0,84,84,96,1,KEAMS,C,old,z,./images/KEAMS.png,,,,,,,,,,,,,,,,,,,,,,,,,,,,,,,,,,
,,,,,,,,,,,,,,,,,5c3b8c426949490001a56400,34,2022-02-12_17h12.20.825,lexical_decision_task_DD_L2,2021.2.3,MacIntel,59.99160118,,,,,,,,,,,,0.7829,1,,,,,,,,,,,,,,z,1,0.7829,,,,,,,,0.087917209,-0.415282728,0,0,0,,0,85,85,126,1,GUELS,C,old,z,./images/GUELS.png,,,,,,,,,,,,,,,,,,,,,,,,,,,,,,,,,,
,,,,,,,,,,,,,,,,,5c3b8c426949490001a56400,34,2022-02-12_17h12.20.825,lexical_decision_task_DD_L2,2021.2.3,MacIntel,59.99160118,,,,,,,,,,,,0.8021,1,,,,,,,,,,,,,,m,1,0.8021,,,,,,,,0.087917209,-0.415282728,0,0,0,,0,86,86,25,1,WRIST,LB,old,m,./images/WRISTLB.png,,,,,,,,,,,,,,,,,,,,,,,,,,,,,,,,,,
,,,,,,,,,,,,,,,,,5c3b8c426949490001a56400,34,2022-02-12_17h12.20.825,lexical_decision_task_DD_L2,2021.2.3,MacIntel,59.99160118,,,,,,,,,,,,1.7715,1,,,,,,,,,,,,,,z,1,1.7715,,,,,,,,0.087917209,-0.415282728,0,0,0,,0,87,87,132,1,SCIFF,C,old,z,./images/SCIFF.png,,,,,,,,,,,,,,,,,,,,,,,,,,,,,,,,,,
,,,,,,,,,,,,,,,,,5c3b8c426949490001a56400,34,2022-02-12_17h12.20.825,lexical_decision_task_DD_L2,2021.2.3,MacIntel,59.99160118,,,,,,,,,,,,0.9558,1,,,,,,,,,,,,,,m,1,0.9558,,,,,,,,0.087917209,-0.415282728,0,0,0,,0,88,88,4,1,MUSCLE,LB,old,m,./images/MUSCLELB.png,,,,,,,,,,,,,,,,,,,,,,,,,,,,,,,,,,
,,,,,,,,,,,,,,,,,5c3b8c426949490001a56400,34,2022-02-12_17h12.20.825,lexical_decision_task_DD_L2,2021.2.3,MacIntel,59.99160118,,,,,,,,,,,,0.8167,1,,,,,,,,,,,,,,z,1,0.8167,,,,,,,,0.087917209,-0.415282728,0,0,0,,0,89,89,134,1,TROSS,LB,old,z,./images/TROSSLB.png,,,,,,,,,,,,,,,,,,,,,,,,,,,,,,,,,,
,,,,,,,,,,,,,,,,,5c3b8c426949490001a56400,34,2022-02-12_17h12.20.825,lexical_decision_task_DD_L2,2021.2.3,MacIntel,59.99160118,,,,,,,,,,,,0.9765,1,,,,,,,,,,,,,,m,1,0.9765,,,,,,,,0.087917209,-0.415282728,0,0,0,,0,90,90,56,1,PACKET,C,old,m,./images/PACKET.png,,,,,,,,,,,,,,,,,,,,,,,,,,,,,,,,,,
,,,,,,,,,,,,,,,,,5c3b8c426949490001a56400,34,2022-02-12_17h12.20.825,lexical_decision_task_DD_L2,2021.2.3,MacIntel,59.99160118,,,,,,,,,,,,1.0748,1,,,,,,,,,,,,,,m,1,1.0748,,,,,,,,0.087917209,-0.415282728,0,0,0,,0,91,91,82,1,SUNSET,LB,old,m,./images/SUNSETLB.png,,,,,,,,,,,,,,,,,,,,,,,,,,,,,,,,,,
,,,,,,,,,,,,,,,,,5c3b8c426949490001a56400,34,2022-02-12_17h12.20.825,lexical_decision_task_DD_L2,2021.2.3,MacIntel,59.99160118,,,,,,,,,,,,1.4104,1,,,,,,,,,,,,,,m,1,1.4104,,,,,,,,0.087917209,-0.415282728,0,0,0,,0,92,92,83,1,JUNGLE,C,old,m,./images/JUNGLE.png,,,,,,,,,,,,,,,,,,,,,,,,,,,,,,,,,,
,,,,,,,,,,,,,,,,,5c3b8c426949490001a56400,34,2022-02-12_17h12.20.825,lexical_decision_task_DD_L2,2021.2.3,MacIntel,59.99160118,,,,,,,,,,,,0.7612,1,,,,,,,,,,,,,,z,1,0.7612,,,,,,,,0.087917209,-0.415282728,0,0,0,,0,93,93,153,1,CLUPS,C,old,z,./images/CLUPS.png,,,,,,,,,,,,,,,,,,,,,,,,,,,,,,,,,,
,,,,,,,,,,,,,,,,,5c3b8c426949490001a56400,34,2022-02-12_17h12.20.825,lexical_decision_task_DD_L2,2021.2.3,MacIntel,59.99160118,,,,,,,,,,,,1.0592,1,,,,,,,,,,,,,,z,1,1.0592,,,,,,,,0.087917209,-0.415282728,0,0,0,,0,94,94,88,1,GLUSH,HB,old,z,./images/GLUSHHB.png,,,,,,,,,,,,,,,,,,,,,,,,,,,,,,,,,,
,,,,,,,,,,,,,,,,,5c3b8c426949490001a56400,34,2022-02-12_17h12.20.825,lexical_decision_task_DD_L2,2021.2.3,MacIntel,59.99160118,,,,,,,,,,,,1.5101,1,,,,,,,,,,,,,,z,1,1.5101,,,,,,,,0.087917209,-0.415282728,0,0,0,,0,95,95,160,1,VEETS,HB,old,z,./images/VEETSHB.png,,,,,,,,,,,,,,,,,,,,,,,,,,,,,,,,,,
,,,,,,,,,,,,,,,,,5c3b8c426949490001a56400,34,2022-02-12_17h12.20.825,lexical_decision_task_DD_L2,2021.2.3,MacIntel,59.99160118,,,,,,,,,,,,0.9567,1,,,,,,,,,,,,,,z,1,0.9567,,,,,,,,0.087917209,-0.415282728,0,0,0,,0,96,96,122,1,BLOOT,LB,old,z,./images/BLOOTLB.png,,,,,,,,,,,,,,,,,,,,,,,,,,,,,,,,,,
,,,,,,,,,,,,,,,,,5c3b8c426949490001a56400,34,2022-02-12_17h12.20.825,lexical_decision_task_DD_L2,2021.2.3,MacIntel,59.99160118,,,,,,,,,,,,0.8784,1,,,,,,,,,,,,,,z,1,0.8784,,,,,,,,0.087917209,-0.415282728,0,0,0,,0,97,97,98,1,BAMPS,LB,old,z,./images/BAMPSLB.png,,,,,,,,,,,,,,,,,,,,,,,,,,,,,,,,,,
,,,,,,,,,,,,,,,,,5c3b8c426949490001a56400,34,2022-02-12_17h12.20.825,lexical_decision_task_DD_L2,2021.2.3,MacIntel,59.99160118,,,,,,,,,,,,0.8608,1,,,,,,,,,,,,,,z,1,0.8608,,,,,,,,0.087917209,-0.415282728,0,0,0,,0,98,98,124,1,TUNCH,HB,old,z,./images/TUNCHHB.png,,,,,,,,,,,,,,,,,,,,,,,,,,,,,,,,,,
,,,,,,,,,,,,,,,,,5c3b8c426949490001a56400,34,2022-02-12_17h12.20.825,lexical_decision_task_DD_L2,2021.2.3,MacIntel,59.99160118,,,,,,,,,,,,0.8186,1,,,,,,,,,,,,,,z,1,0.8186,,,,,,,,0.087917209,-0.415282728,0,0,0,,0,99,99,129,1,PRANS,C,old,z,./images/PRANS.png,,,,,,,,,,,,,,,,,,,,,,,,,,,,,,,,,,
,,,,,,,,,,,,,,,,,5c3b8c426949490001a56400,34,2022-02-12_17h12.20.825,lexical_decision_task_DD_L2,2021.2.3,MacIntel,59.99160118,,,,,,,,,,,,0.7362,1,,,,,,,,,,,,,,z,1,0.7362,,,,,,,,0.087917209,-0.415282728,0,0,0,,0,100,100,150,1,NOOLS,C,old,z,./images/NOOLS.png,,,,,,,,,,,,,,,,,,,,,,,,,,,,,,,,,,
,,,,,,,,,,,,,,,,,5c3b8c426949490001a56400,34,2022-02-12_17h12.20.825,lexical_decision_task_DD_L2,2021.2.3,MacIntel,59.99160118,,,,,,,,,,,,1.0325,1,,,,,,,,,,,,,,m,1,1.0325,,,,,,,,0.087917209,-0.415282728,0,0,0,,0,101,101,22,1,MELON,LB,old,m,./images/MELONLB.png,,,,,,,,,,,,,,,,,,,,,,,,,,,,,,,,,,
,,,,,,,,,,,,,,,,,5c3b8c426949490001a56400,34,2022-02-12_17h12.20.825,lexical_decision_task_DD_L2,2021.2.3,MacIntel,59.99160118,,,,,,,,,,,,0.8222,1,,,,,,,,,,,,,,m,1,0.8222,,,,,,,,0.087917209,-0.415282728,0,0,0,,0,102,102,21,1,KIDNEY,HB,old,m,./images/KIDNEYHB.png,,,,,,,,,,,,,,,,,,,,,,,,,,,,,,,,,,
,,,,,,,,,,,,,,,,,5c3b8c426949490001a56400,34,2022-02-12_17h12.20.825,lexical_decision_task_DD_L2,2021.2.3,MacIntel,59.99160118,,,,,,,,,,,,0.8843,1,,,,,,,,,,,,,,m,1,0.8843,,,,,,,,0.087917209,-0.415282728,0,0,0,,0,103,103,34,1,CANYON,LB,old,m,./images/CANYONLB.png,,,,,,,,,,,,,,,,,,,,,,,,,,,,,,,,,,
,,,,,,,,,,,,,,,,,5c3b8c426949490001a56400,34,2022-02-12_17h12.20.825,lexical_decision_task_DD_L2,2021.2.3,MacIntel,59.99160118,,,,,,,,,,,,0.7632,1,,,,,,,,,,,,,,z,1,0.7632,,,,,,,,0.087917209,-0.415282728,0,0,0,,0,104,104,135,1,JOODY,C,old,z,./images/JOODY.png,,,,,,,,,,,,,,,,,,,,,,,,,,,,,,,,,,
,,,,,,,,,,,,,,,,,5c3b8c426949490001a56400,34,2022-02-12_17h12.20.825,lexical_decision_task_DD_L2,2021.2.3,MacIntel,59.99160118,,,,,,,,,,,,0.9806,1,,,,,,,,,,,,,,m,1,0.9806,,,,,,,,0.087917209,-0.415282728,0,0,0,,0,105,105,39,1,SHELF,HB,old,m,./images/SHELFHB.png,,,,,,,,,,,,,,,,,,,,,,,,,,,,,,,,,,
,,,,,,,,,,,,,,,,,5c3b8c426949490001a56400,34,2022-02-12_17h12.20.825,lexical_decision_task_DD_L2,2021.2.3,MacIntel,59.99160118,,,,,,,,,,,,0.8033,1,,,,,,,,,,,,,,z,1,0.8033,,,,,,,,0.087917209,-0.415282728,0,0,0,,0,106,106,84,1,HAXES,C,old,z,./images/HAXES.png,,,,,,,,,,,,,,,,,,,,,,,,,,,,,,,,,,
,,,,,,,,,,,,,,,,,5c3b8c426949490001a56400,34,2022-02-12_17h12.20.825,lexical_decision_task_DD_L2,2021.2.3,MacIntel,59.99160118,,,,,,,,,,,,1.7888,1,,,,,,,,,,,,,,m,1,1.7888,,,,,,,,0.087917209,-0.415282728,0,0,0,,0,107,107,69,1,COOKER,HB,old,m,./images/COOKERHB.png,,,,,,,,,,,,,,,,,,,,,,,,,,,,,,,,,,
,,,,,,,,,,,,,,,,,5c3b8c426949490001a56400,34,2022-02-12_17h12.20.825,lexical_decision_task_DD_L2,2021.2.3,MacIntel,59.99160118,,,,,,,,,,,,1.0002,1,,,,,,,,,,,,,,m,1,1.0002,,,,,,,,0.087917209,-0.415282728,0,0,0,,0,108,108,79,1,CRUST,LB,old,m,./images/CRUSTLB.png,,,,,,,,,,,,,,,,,,,,,,,,,,,,,,,,,,
,,,,,,,,,,,,,,,,,5c3b8c426949490001a56400,34,2022-02-12_17h12.20.825,lexical_decision_task_DD_L2,2021.2.3,MacIntel,59.99160118,,,,,,,,,,,,0.8593,1,,,,,,,,,,,,,,m,1,0.8593,,,,,,,,0.087917209,-0.415282728,0,0,0,,0,109,109,27,1,ATTIC,HB,old,m,./images/ATTICHB.png,,,,,,,,,,,,,,,,,,,,,,,,,,,,,,,,,,
,,,,,,,,,,,,,,,,,5c3b8c426949490001a56400,34,2022-02-12_17h12.20.825,lexical_decision_task_DD_L2,2021.2.3,MacIntel,59.99160118,,,,,,,,,,,,0.7014,1,,,,,,,,,,,,,,m,1,0.7014,,,,,,,,0.087917209,-0.415282728,0,0,0,,0,110,110,30,1,STORM,HB,old,m,./images/STORMHB.png,,,,,,,,,,,,,,,,,,,,,,,,,,,,,,,,,,
,,,,,,,,,,,,,,,,,5c3b8c426949490001a56400,34,2022-02-12_17h12.20.825,lexical_decision_task_DD_L2,2021.2.3,MacIntel,59.99160118,,,,,,,,,,,,0.845,1,,,,,,,,,,,,,,z,1,0.845,,,,,,,,0.087917209,-0.415282728,0,0,0,,0,111,111,145,1,LAMEL,HB,old,z,./images/LAMELHB.png,,,,,,,,,,,,,,,,,,,,,,,,,,,,,,,,,,
,,,,,,,,,,,,,,,,,5c3b8c426949490001a56400,34,2022-02-12_17h12.20.825,lexical_decision_task_DD_L2,2021.2.3,MacIntel,59.99160118,,,,,,,,,,,,1.0544,1,,,,,,,,,,,,,,m,1,1.0544,,,,,,,,0.087917209,-0.415282728,0,0,0,,0,112,112,32,1,BARREL,C,old,m,./images/BARREL.png,,,,,,,,,,,,,,,,,,,,,,,,,,,,,,,,,,
,,,,,,,,,,,,,,,,,5c3b8c426949490001a56400,34,2022-02-12_17h12.20.825,lexical_decision_task_DD_L2,2021.2.3,MacIntel,59.99160118,,,,,,,,,,,,1.693,1,,,,,,,,,,,,,,m,1,1.693,,,,,,,,0.087917209,-0.415282728,0,0,0,,0,113,113,17,1,SKIING,C,old,m,./images/SKIING.png,,,,,,,,,,,,,,,,,,,,,,,,,,,,,,,,,,
,,,,,,,,,,,,,,,,,5c3b8c426949490001a56400,34,2022-02-12_17h12.20.825,lexical_decision_task_DD_L2,2021.2.3,MacIntel,59.99160118,,,,,,,,,,,,0.7982,1,,,,,,,,,,,,,,z,1,0.7982,,,,,,,,0.087917209,-0.415282728,0,0,0,,0,114,114,101,1,GLEET,LB,old,z,./images/GLEETLB.png,,,,,,,,,,,,,,,,,,,,,,,,,,,,,,,,,,
,,,,,,,,,,,,,,,,,5c3b8c426949490001a56400,34,2022-02-12_17h12.20.825,lexical_decision_task_DD_L2,2021.2.3,MacIntel,59.99160118,,,,,,,,,,,,1.32,1,,,,,,,,,,,,,,m,1,1.32,,,,,,,,0.087917209,-0.415282728,0,0,0,,0,115,115,67,1,SAILOR,LB,old,m,./images/SAILORLB.png,,,,,,,,,,,,,,,,,,,,,,,,,,,,,,,,,,
,,,,,,,,,,,,,,,,,5c3b8c426949490001a56400,34,2022-02-12_17h12.20.825,lexical_decision_task_DD_L2,2021.2.3,MacIntel,59.99160118,,,,,,,,,,,,0.7836,1,,,,,,,,,,,,,,z,1,0.7836,,,,,,,,0.087917209,-0.415282728,0,0,0,,0,116,116,86,1,AIFED,LB,old,z,./images/AIFEDLB.png,,,,,,,,,,,,,,,,,,,,,,,,,,,,,,,,,,
,,,,,,,,,,,,,,,,,5c3b8c426949490001a56400,34,2022-02-12_17h12.20.825,lexical_decision_task_DD_L2,2021.2.3,MacIntel,59.99160118,,,,,,,,,,,,1.1783,1,,,,,,,,,,,,,,z,1,1.1783,,,,,,,,0.087917209,-0.415282728,0,0,0,,0,117,117,99,1,BACKY,C,old,z,./images/BACKY.png,,,,,,,,,,,,,,,,,,,,,,,,,,,,,,,,,,
,,,,,,,,,,,,,,,,,5c3b8c426949490001a56400,34,2022-02-12_17h12.20.825,lexical_decision_task_DD_L2,2021.2.3,MacIntel,59.99160118,,,,,,,,,,,,2.2923,0,,,,,,,,,,,,,,m,0,2.2923,,,,,,,,0.087917209,-0.415282728,0,0,0,,0,118,118,110,1,CRUNK,LB,old,z,./images/CRUNKLB.png,,,,,,,,,,,,,,,,,,,,,,,,,,,,,,,,,,
,,,,,,,,,,,,,,,,,5c3b8c426949490001a56400,34,2022-02-12_17h12.20.825,lexical_decision_task_DD_L2,2021.2.3,MacIntel,59.99160118,,,,,,,,,,,,0.8387,1,,,,,,,,,,,,,,z,1,0.8387,,,,,,,,0.087917209,-0.415282728,0,0,0,,0,119,119,161,1,BLAPS,LB,old,z,./images/BLAPSLB.png,,,,,,,,,,,,,,,,,,,,,,,,,,,,,,,,,,
,,,,,,,,,,,,,,,,,5c3b8c426949490001a56400,34,2022-02-12_17h12.20.825,lexical_decision_task_DD_L2,2021.2.3,MacIntel,59.99160118,,,,,,,,,,,,1.0214,1,,,,,,,,,,,,,,m,1,1.0214,,,,,,,,0.087917209,-0.415282728,0,0,0,,0,120,120,36,1,THROAT,HB,old,m,./images/THROATHB.png,,,,,,,,,,,,,,,,,,,,,,,,,,,,,,,,,,
,,,,,,,,,,,,,,,,,5c3b8c426949490001a56400,34,2022-02-12_17h12.20.825,lexical_decision_task_DD_L2,2021.2.3,MacIntel,59.99160118,,,,,,,,,,,,1.395,1,,,,,,,,,,,,,,m,1,1.395,,,,,,,,0.087917209,-0.415282728,0,0,0,,0,121,121,53,1,CARPET,C,old,m,./images/CARPET.png,,,,,,,,,,,,,,,,,,,,,,,,,,,,,,,,,,
,,,,,,,,,,,,,,,,,5c3b8c426949490001a56400,34,2022-02-12_17h12.20.825,lexical_decision_task_DD_L2,2021.2.3,MacIntel,59.99160118,,,,,,,,,,,,1.4168,1,,,,,,,,,,,,,,m,1,1.4168,,,,,,,,0.087917209,-0.415282728,0,0,0,,0,122,122,41,1,STRING,C,old,m,./images/STRING.png,,,,,,,,,,,,,,,,,,,,,,,,,,,,,,,,,,
,,,,,,,,,,,,,,,,,5c3b8c426949490001a56400,34,2022-02-12_17h12.20.825,lexical_decision_task_DD_L2,2021.2.3,MacIntel,59.99160118,,,,,,,,,,,,0.7614,1,,,,,,,,,,,,,,m,1,0.7614,,,,,,,,0.087917209,-0.415282728,0,0,0,,0,123,123,18,1,JAGUAR,HB,old,m,./images/JAGUARHB.png,,,,,,,,,,,,,,,,,,,,,,,,,,,,,,,,,,
,,,,,,,,,,,,,,,,,5c3b8c426949490001a56400,34,2022-02-12_17h12.20.825,lexical_decision_task_DD_L2,2021.2.3,MacIntel,59.99160118,,,,,,,,,,,,0.8024,1,,,,,,,,,,,,,,z,1,0.8024,,,,,,,,0.087917209,-0.415282728,0,0,0,,0,124,124,156,1,HIXES,C,old,z,./images/HIXES.png,,,,,,,,,,,,,,,,,,,,,,,,,,,,,,,,,,
,,,,,,,,,,,,,,,,,5c3b8c426949490001a56400,34,2022-02-12_17h12.20.825,lexical_decision_task_DD_L2,2021.2.3,MacIntel,59.99160118,,,,,,,,,,,,0.8419,1,,,,,,,,,,,,,,m,1,0.8419,,,,,,,,0.087917209,-0.415282728,0,0,0,space,0,125,125,45,1,KITTEN,HB,old,m,./images/KITTENHB.png,9.6826,,,,,,,,,,,,,,,,,,,,,,,,,,,,,,,,,
,,,,,,,,,,,,,,,,,5c3b8c426949490001a56400,34,2022-02-12_17h12.20.825,lexical_decision_task_DD_L2,2021.2.3,MacIntel,59.99160118,,,,,,,,,,,,1.0791,1,,,,,,,,,,,,,,m,1,1.0791,,,,,,,,0.087917209,-0.415282728,0,0,0,,0,126,126,71,1,PIMPLE,C,old,m,./images/PIMPLE.png,,,,,,,,,,,,,,,,,,,,,,,,,,,,,,,,,,
,,,,,,,,,,,,,,,,,5c3b8c426949490001a56400,34,2022-02-12_17h12.20.825,lexical_decision_task_DD_L2,2021.2.3,MacIntel,59.99160118,,,,,,,,,,,,0.8419,1,,,,,,,,,,,,,,m,1,0.8419,,,,,,,,0.087917209,-0.415282728,0,0,0,,0,127,127,19,1,DOUGH,LB,old,m,./images/DOUGHLB.png,,,,,,,,,,,,,,,,,,,,,,,,,,,,,,,,,,
,,,,,,,,,,,,,,,,,5c3b8c426949490001a56400,34,2022-02-12_17h12.20.825,lexical_decision_task_DD_L2,2021.2.3,MacIntel,59.99160118,,,,,,,,,,,,0.727,1,,,,,,,,,,,,,,m,1,0.727,,,,,,,,0.087917209,-0.415282728,0,0,0,,0,128,128,26,1,SMOKER,C,old,m,./images/SMOKER.png,,,,,,,,,,,,,,,,,,,,,,,,,,,,,,,,,,
,,,,,,,,,,,,,,,,,5c3b8c426949490001a56400,34,2022-02-12_17h12.20.825,lexical_decision_task_DD_L2,2021.2.3,MacIntel,59.99160118,,,,,,,,,,,,0.8173,1,,,,,,,,,,,,,,z,1,0.8173,,,,,,,,0.087917209,-0.415282728,0,0,0,,0,129,129,167,1,ZONET,LB,old,z,./images/ZONETLB.png,,,,,,,,,,,,,,,,,,,,,,,,,,,,,,,,,,
,,,,,,,,,,,,,,,,,5c3b8c426949490001a56400,34,2022-02-12_17h12.20.825,lexical_decision_task_DD_L2,2021.2.3,MacIntel,59.99160118,,,,,,,,,,,,1.1575,1,,,,,,,,,,,,,,z,1,1.1575,,,,,,,,0.087917209,-0.415282728,0,0,0,,0,130,130,117,1,STEEG,C,old,z,./images/STEEG.png,,,,,,,,,,,,,,,,,,,,,,,,,,,,,,,,,,
,,,,,,,,,,,,,,,,,5c3b8c426949490001a56400,34,2022-02-12_17h12.20.825,lexical_decision_task_DD_L2,2021.2.3,MacIntel,59.99160118,,,,,,,,,,,,0.7415,1,,,,,,,,,,,,,,m,1,0.7415,,,,,,,,0.087917209,-0.415282728,0,0,0,,0,131,131,80,1,WEASEL,C,old,m,./images/WEASEL.png,,,,,,,,,,,,,,,,,,,,,,,,,,,,,,,,,,
,,,,,,,,,,,,,,,,,5c3b8c426949490001a56400,34,2022-02-12_17h12.20.825,lexical_decision_task_DD_L2,2021.2.3,MacIntel,59.99160118,,,,,,,,,,,,0.944,1,,,,,,,,,,,,,,z,1,0.944,,,,,,,,0.087917209,-0.415282728,0,0,0,,0,132,132,149,1,VEASE,LB,old,z,./images/VEASELB.png,,,,,,,,,,,,,,,,,,,,,,,,,,,,,,,,,,
,,,,,,,,,,,,,,,,,5c3b8c426949490001a56400,34,2022-02-12_17h12.20.825,lexical_decision_task_DD_L2,2021.2.3,MacIntel,59.99160118,,,,,,,,,,,,1.1607,0,,,,,,,,,,,,,,m,0,1.1607,,,,,,,,0.087917209,-0.415282728,0,0,0,,0,133,133,128,1,GRIFT,LB,old,z,./images/GRIFTLB.png,,,,,,,,,,,,,,,,,,,,,,,,,,,,,,,,,,
,,,,,,,,,,,,,,,,,5c3b8c426949490001a56400,34,2022-02-12_17h12.20.825,lexical_decision_task_DD_L2,2021.2.3,MacIntel,59.99160118,,,,,,,,,,,,1.4184,1,,,,,,,,,,,,,,m,1,1.4184,,,,,,,,0.087917209,-0.415282728,0,0,0,,0,134,134,7,1,PAINT,LB,old,m,./images/PAINTLB.png,,,,,,,,,,,,,,,,,,,,,,,,,,,,,,,,,,
,,,,,,,,,,,,,,,,,5c3b8c426949490001a56400,34,2022-02-12_17h12.20.825,lexical_decision_task_DD_L2,2021.2.3,MacIntel,59.99160118,,,,,,,,,,,,0.8416,1,,,,,,,,,,,,,,m,1,0.8416,,,,,,,,0.087917209,-0.415282728,0,0,0,,0,135,135,66,1,SWEAT,HB,old,m,./images/SWEATHB.png,,,,,,,,,,,,,,,,,,,,,,,,,,,,,,,,,,
,,,,,,,,,,,,,,,,,5c3b8c426949490001a56400,34,2022-02-12_17h12.20.825,lexical_decision_task_DD_L2,2021.2.3,MacIntel,59.99160118,,,,,,,,,,,,0.7638,1,,,,,,,,,,,,,,m,1,0.7638,,,,,,,,0.087917209,-0.415282728,0,0,0,,0,136,136,15,1,GREASE,HB,old,m,./images/GREASEHB.png,,,,,,,,,,,,,,,,,,,,,,,,,,,,,,,,,,
,,,,,,,,,,,,,,,,,5c3b8c426949490001a56400,34,2022-02-12_17h12.20.825,lexical_decision_task_DD_L2,2021.2.3,MacIntel,59.99160118,,,,,,,,,,,,1.1352,1,,,,,,,,,,,,,,z,1,1.1352,,,,,,,,0.087917209,-0.415282728,0,0,0,,0,137,137,139,1,BLEAR,HB,old,z,./images/BLEARHB.png,,,,,,,,,,,,,,,,,,,,,,,,,,,,,,,,,,
,,,,,,,,,,,,,,,,,5c3b8c426949490001a56400,34,2022-02-12_17h12.20.825,lexical_decision_task_DD_L2,2021.2.3,MacIntel,59.99160118,,,,,,,,,,,,1.2343,0,,,,,,,,,,,,,,z,0,1.2343,,,,,,,,0.087917209,-0.415282728,0,0,0,,0,138,138,1,1,PLANK,LB,old,m,./images/PLANKLB.png,,,,,,,,,,,,,,,,,,,,,,,,,,,,,,,,,,
,,,,,,,,,,,,,,,,,5c3b8c426949490001a56400,34,2022-02-12_17h12.20.825,lexical_decision_task_DD_L2,2021.2.3,MacIntel,59.99160118,,,,,,,,,,,,0.7181,1,,,,,,,,,,,,,,z,1,0.7181,,,,,,,,0.087917209,-0.415282728,0,0,0,,0,139,139,111,1,HOSSE,C,old,z,./images/HOSSE.png,,,,,,,,,,,,,,,,,,,,,,,,,,,,,,,,,,
,,,,,,,,,,,,,,,,,5c3b8c426949490001a56400,34,2022-02-12_17h12.20.825,lexical_decision_task_DD_L2,2021.2.3,MacIntel,59.99160118,,,,,,,,,,,,0.7827,1,,,,,,,,,,,,,,m,1,0.7827,,,,,,,,0.087917209,-0.415282728,0,0,0,,0,140,140,44,1,LIZARD,C,old,m,./images/LIZARD.png,,,,,,,,,,,,,,,,,,,,,,,,,,,,,,,,,,
,,,,,,,,,,,,,,,,,5c3b8c426949490001a56400,34,2022-02-12_17h12.20.825,lexical_decision_task_DD_L2,2021.2.3,MacIntel,59.99160118,,,,,,,,,,,,0.8818,1,,,,,,,,,,,,,,z,1,0.8818,,,,,,,,0.087917209,-0.415282728,0,0,0,,0,141,141,138,1,PLICE,C,old,z,./images/PLICE.png,,,,,,,,,,,,,,,,,,,,,,,,,,,,,,,,,,
,,,,,,,,,,,,,,,,,5c3b8c426949490001a56400,34,2022-02-12_17h12.20.825,lexical_decision_task_DD_L2,2021.2.3,MacIntel,59.99160118,,,,,,,,,,,,0.8592,1,,,,,,,,,,,,,,m,1,0.8592,,,,,,,,0.087917209,-0.415282728,0,0,0,,0,142,142,52,1,BANNER,LB,old,m,./images/BANNERLB.png,,,,,,,,,,,,,,,,,,,,,,,,,,,,,,,,,,
,,,,,,,,,,,,,,,,,5c3b8c426949490001a56400,34,2022-02-12_17h12.20.825,lexical_decision_task_DD_L2,2021.2.3,MacIntel,59.99160118,,,,,,,,,,,,1.1788,1,,,,,,,,,,,,,,z,1,1.1788,,,,,,,,0.087917209,-0.415282728,0,0,0,,0,143,143,151,1,TINKY,HB,old,z,./images/TINKYHB.png,,,,,,,,,,,,,,,,,,,,,,,,,,,,,,,,,,
,,,,,,,,,,,,,,,,,5c3b8c426949490001a56400,34,2022-02-12_17h12.20.825,lexical_decision_task_DD_L2,2021.2.3,MacIntel,59.99160118,,,,,,,,,,,,0.9035,1,,,,,,,,,,,,,,m,1,0.9035,,,,,,,,0.087917209,-0.415282728,0,0,0,,0,144,144,14,1,PICKLE,C,old,m,./images/PICKLE.png,,,,,,,,,,,,,,,,,,,,,,,,,,,,,,,,,,
,,,,,,,,,,,,,,,,,5c3b8c426949490001a56400,34,2022-02-12_17h12.20.825,lexical_decision_task_DD_L2,2021.2.3,MacIntel,59.99160118,,,,,,,,,,,,0.9598,1,,,,,,,,,,,,,,z,1,0.9598,,,,,,,,0.087917209,-0.415282728,0,0,0,,0,145,145,152,1,FRAIN,LB,old,z,./images/FRAINLB.png,,,,,,,,,,,,,,,,,,,,,,,,,,,,,,,,,,
,,,,,,,,,,,,,,,,,5c3b8c426949490001a56400,34,2022-02-12_17h12.20.825,lexical_decision_task_DD_L2,2021.2.3,MacIntel,59.99160118,,,,,,,,,,,,1.0011,1,,,,,,,,,,,,,,m,1,1.0011,,,,,,,,0.087917209,-0.415282728,0,0,0,,0,146,146,81,1,POODLE,HB,old,m,./images/POODLEHB.png,,,,,,,,,,,,,,,,,,,,,,,,,,,,,,,,,,
,,,,,,,,,,,,,,,,,5c3b8c426949490001a56400,34,2022-02-12_17h12.20.825,lexical_decision_task_DD_L2,2021.2.3,MacIntel,59.99160118,,,,,,,,,,,,1.022,1,,,,,,,,,,,,,,m,1,1.022,,,,,,,,0.087917209,-0.415282728,0,0,0,,0,147,147,72,1,NOOSE,HB,old,m,./images/NOOSEHB.png,,,,,,,,,,,,,,,,,,,,,,,,,,,,,,,,,,
,,,,,,,,,,,,,,,,,5c3b8c426949490001a56400,34,2022-02-12_17h12.20.825,lexical_decision_task_DD_L2,2021.2.3,MacIntel,59.99160118,,,,,,,,,,,,1.6255,0,,,,,,,,,,,,,,z,0,1.6255,,,,,,,,0.087917209,-0.415282728,0,0,0,,0,148,148,16,1,PENCE,LB,old,m,./images/PENCELB.png,,,,,,,,,,,,,,,,,,,,,,,,,,,,,,,,,,
,,,,,,,,,,,,,,,,,5c3b8c426949490001a56400,34,2022-02-12_17h12.20.825,lexical_decision_task_DD_L2,2021.2.3,MacIntel,59.99160118,,,,,,,,,,,,1.5738,1,,,,,,,,,,,,,,m,1,1.5738,,,,,,,,0.087917209,-0.415282728,0,0,0,,0,149,149,3,1,FINGER,HB,old,m,./images/FINGERHB.png,,,,,,,,,,,,,,,,,,,,,,,,,,,,,,,,,,
,,,,,,,,,,,,,,,,,5c3b8c426949490001a56400,34,2022-02-12_17h12.20.825,lexical_decision_task_DD_L2,2021.2.3,MacIntel,59.99160118,,,,,,,,,,,,1.5962,1,,,,,,,,,,,,,,z,1,1.5962,,,,,,,,0.087917209,-0.415282728,0,0,0,,0,150,150,104,1,GITTY,LB,old,z,./images/GITTYLB.png,,,,,,,,,,,,,,,,,,,,,,,,,,,,,,,,,,
,,,,,,,,,,,,,,,,,5c3b8c426949490001a56400,34,2022-02-12_17h12.20.825,lexical_decision_task_DD_L2,2021.2.3,MacIntel,59.99160118,,,,,,,,,,,,1.5905,1,,,,,,,,,,,,,,z,1,1.5905,,,,,,,,0.087917209,-0.415282728,0,0,0,,0,151,151,100,1,DRIBS,HB,old,z,./images/DRIBSHB.png,,,,,,,,,,,,,,,,,,,,,,,,,,,,,,,,,,
,,,,,,,,,,,,,,,,,5c3b8c426949490001a56400,34,2022-02-12_17h12.20.825,lexical_decision_task_DD_L2,2021.2.3,MacIntel,59.99160118,,,,,,,,,,,,1.3168,1,,,,,,,,,,,,,,z,1,1.3168,,,,,,,,0.087917209,-0.415282728,0,0,0,,0,152,152,146,1,MOOST,LB,old,z,./images/MOOSTLB.png,,,,,,,,,,,,,,,,,,,,,,,,,,,,,,,,,,
,,,,,,,,,,,,,,,,,5c3b8c426949490001a56400,34,2022-02-12_17h12.20.825,lexical_decision_task_DD_L2,2021.2.3,MacIntel,59.99160118,,,,,,,,,,,,2.5485,1,,,,,,,,,,,,,,z,1,2.5485,,,,,,,,0.087917209,-0.415282728,0,0,0,,0,153,153,94,1,BLANS,HB,old,z,./images/BLANSHB.png,,,,,,,,,,,,,,,,,,,,,,,,,,,,,,,,,,
,,,,,,,,,,,,,,,,,5c3b8c426949490001a56400,34,2022-02-12_17h12.20.825,lexical_decision_task_DD_L2,2021.2.3,MacIntel,59.99160118,,,,,,,,,,,,0.8216,1,,,,,,,,,,,,,,m,1,0.8216,,,,,,,,0.087917209,-0.415282728,0,0,0,,0,154,154,60,1,TWINS,HB,old,m,./images/TWINSHB.png,,,,,,,,,,,,,,,,,,,,,,,,,,,,,,,,,,
,,,,,,,,,,,,,,,,,5c3b8c426949490001a56400,34,2022-02-12_17h12.20.825,lexical_decision_task_DD_L2,2021.2.3,MacIntel,59.99160118,,,,,,,,,,,,0.9818,1,,,,,,,,,,,,,,m,1,0.9818,,,,,,,,0.087917209,-0.415282728,0,0,0,,0,155,155,61,1,CANDLE,LB,old,m,./images/CANDLELB.png,,,,,,,,,,,,,,,,,,,,,,,,,,,,,,,,,,
,,,,,,,,,,,,,,,,,5c3b8c426949490001a56400,34,2022-02-12_17h12.20.825,lexical_decision_task_DD_L2,2021.2.3,MacIntel,59.99160118,,,,,,,,,,,,1.4168,1,,,,,,,,,,,,,,z,1,1.4168,,,,,,,,0.087917209,-0.415282728,0,0,0,,0,156,156,148,1,JOMS,HB,old,z,./images/JOMSHB.png,,,,,,,,,,,,,,,,,,,,,,,,,,,,,,,,,,
,,,,,,,,,,,,,,,,,5c3b8c426949490001a56400,34,2022-02-12_17h12.20.825,lexical_decision_task_DD_L2,2021.2.3,MacIntel,59.99160118,,,,,,,,,,,,0.9401,1,,,,,,,,,,,,,,m,1,0.9401,,,,,,,,0.087917209,-0.415282728,0,0,0,,0,157,157,9,1,RHINO,HB,old,m,./images/RHINOHB.png,,,,,,,,,,,,,,,,,,,,,,,,,,,,,,,,,,
,,,,,,,,,,,,,,,,,5c3b8c426949490001a56400,34,2022-02-12_17h12.20.825,lexical_decision_task_DD_L2,2021.2.3,MacIntel,59.99160118,,,,,,,,,,,,0.6849,1,,,,,,,,,,,,,,m,1,0.6849,,,,,,,,0.087917209,-0.415282728,0,0,0,,0,158,158,28,1,FALCON,LB,old,m,./images/FALCONLB.png,,,,,,,,,,,,,,,,,,,,,,,,,,,,,,,,,,
,,,,,,,,,,,,,,,,,5c3b8c426949490001a56400,34,2022-02-12_17h12.20.825,lexical_decision_task_DD_L2,2021.2.3,MacIntel,59.99160118,,,,,,,,,,,,0.6641,1,,,,,,,,,,,,,,z,1,0.6641,,,,,,,,0.087917209,-0.415282728,0,0,0,,0,159,159,89,1,DRIEK,LB,old,z,./images/DRIEKLB.png,,,,,,,,,,,,,,,,,,,,,,,,,,,,,,,,,,
,,,,,,,,,,,,,,,,,5c3b8c426949490001a56400,34,2022-02-12_17h12.20.825,lexical_decision_task_DD_L2,2021.2.3,MacIntel,59.99160118,,,,,,,,,,,,0.9432,1,,,,,,,,,,,,,,m,1,0.9432,,,,,,,,0.087917209,-0.415282728,0,0,0,,0,160,160,40,1,SWING,LB,old,m,./images/SWINGLB.png,,,,,,,,,,,,,,,,,,,,,,,,,,,,,,,,,,
,,,,,,,,,,,,,,,,,5c3b8c426949490001a56400,34,2022-02-12_17h12.20.825,lexical_decision_task_DD_L2,2021.2.3,MacIntel,59.99160118,,,,,,,,,,,,0.8225,1,,,,,,,,,,,,,,m,1,0.8225,,,,,,,,0.087917209,-0.415282728,0,0,0,,0,161,161,68,1,TORCH,C,old,m,./images/TORCH.png,,,,,,,,,,,,,,,,,,,,,,,,,,,,,,,,,,
,,,,,,,,,,,,,,,,,5c3b8c426949490001a56400,34,2022-02-12_17h12.20.825,lexical_decision_task_DD_L2,2021.2.3,MacIntel,59.99160118,,,,,,,,,,,,1.5743,1,,,,,,,,,,,,,,m,1,1.5743,,,,,,,,0.087917209,-0.415282728,0,0,0,,0,162,162,55,1,MUFFIN,LB,old,m,./images/MUFFINLB.png,,,,,,,,,,,,,,,,,,,,,,,,,,,,,,,,,,
,,,,,,,,,,,,,,,,,5c3b8c426949490001a56400,34,2022-02-12_17h12.20.825,lexical_decision_task_DD_L2,2021.2.3,MacIntel,59.99160118,,,,,,,,,,,,0.8021,1,,,,,,,,,,,,,,m,1,0.8021,,,,,,,,0.087917209,-0.415282728,0,0,0,,0,163,163,58,1,BABOON,LB,old,m,./images/BABOONLB.png,,,,,,,,,,,,,,,,,,,,,,,,,,,,,,,,,,
,,,,,,,,,,,,,,,,,5c3b8c426949490001a56400,34,2022-02-12_17h12.20.825,lexical_decision_task_DD_L2,2021.2.3,MacIntel,59.99160118,,,,,,,,,,,,0.9605,0,,,,,,,,,,,,,,z,0,0.9605,,,,,,,,0.087917209,-0.415282728,0,0,0,,0,164,164,76,1,INFANT,LB,old,m,./images/INFANTLB.png,,,,,,,,,,,,,,,,,,,,,,,,,,,,,,,,,,
,,,,,,,,,,,,,,,,,5c3b8c426949490001a56400,34,2022-02-12_17h12.20.825,lexical_decision_task_DD_L2,2021.2.3,MacIntel,59.99160118,,,,,,,,,,,,0.8028,1,,,,,,,,,,,,,,z,1,0.8028,,,,,,,,0.087917209,-0.415282728,0,0,0,,0,165,165,159,1,CUDDY,C,old,z,./images/CUDDY.png,,,,,,,,,,,,,,,,,,,,,,,,,,,,,,,,,,
,,,,,,,,,,,,,,,,,5c3b8c426949490001a56400,34,2022-02-12_17h12.20.825,lexical_decision_task_DD_L2,2021.2.3,MacIntel,59.99160118,,,,,,,,,,,,1.18,1,,,,,,,,,,,,,,m,1,1.18,,,,,,,,0.087917209,-0.415282728,0,0,0,,0,166,166,2,1,BEARD,C,old,m,./images/BEARD.png,,,,,,,,,,,,,,,,,,,,,,,,,,,,,,,,,,
,,,,,,,,,,,,,,,,,5c3b8c426949490001a56400,34,2022-02-12_17h12.20.825,lexical_decision_task_DD_L2,2021.2.3,MacIntel,59.99160118,,,,,,,,,,,,0.9045,1,,,,,,,,,,,,,,z,1,0.9045,,,,,,,,0.087917209,-0.415282728,0,0,0,,0,167,167,90,1,NEAST,C,old,z,./images/NEAST.png,,,,,,,,,,,,,,,,,,,,,,,,,,,,,,,,,,
,,,,,,,,,,,,,,,,,5c3b8c426949490001a56400,34,2022-02-12_17h12.20.825,lexical_decision_task_DD_L2,2021.2.3,MacIntel,59.99160118,,,,,,,,,,,,,,,,,,,,,,,,,,,,,,,,,,,,,,,,,,,,,,,,,How likely will it be that you will recognize the words presented very blurred on a scale of 0 (not likely) to 100 (most likely)?,,,,,-0.01171441,-0.411568739,1,0,0,jol_adv,5,5.7201,0,0,0,2,1,,,,,,,,,,,,,,,,,,,,
,,,,,,,,,,,,,,,,,5c3b8c426949490001a56400,34,2022-02-12_17h12.20.825,lexical_decision_task_DD_L2,2021.2.3,MacIntel,59.99160118,,,,,,,,,,,,,,,,,,,,,,,,,,,,,,,,,,,,,,,,,,,,,,,,,How likely will it be that you will recognize the words presented slighly blurred on a scale of 0 (not likely) to 100 (most likely)?,,,,,,,,,,,5,4.3078,0,1,1,1,1,,,,,,,,,,,,,,,,,,,,
,,,,,,,,,,,,,,,,,5c3b8c426949490001a56400,34,2022-02-12_17h12.20.825,lexical_decision_task_DD_L2,2021.2.3,MacIntel,59.99160118,,,,,,,,,,,,,,,,,,,,,,,,,,,,,,,,,,,,,,,,,,,,,,,,,How likely will it be that you will recognize the words presented clearly on a scale of 0 (not likely) to 100 (most likely)?,,,,,,,,,,,6,5.6768,0,2,2,0,1,,,,,,,,,,,,,,,,,,,,
,-0.010391032,-0.393513116,1,0,0,instr_done_button,,,,,,1,test,"In the next phase you will be presented with the words from the the first phase. Your job is to decide whether you remember seeing the word or not. If you remember seeing the word press ""old"" or type ""m"". If you do not remember seeing the word press ""new"" or type ""z"". Please press the space bar or click on continue to begin. ",,,5c3b8c426949490001a56400,34,2022-02-12_17h12.20.825,lexical_decision_task_DD_L2,2021.2.3,MacIntel,59.99160118,,,,,,,,,,,,,,,,,,,,,,,,,,,,,,,,,,,,,,,,,,,,,,,,,,,,,,,,,,,,,,,,,,,0,0,0,0,1,,,,,,,,,,,,,,,
,0.026421712,-0.397045763,1,0,0,instr_done_button,,,,,,1,test,"In the next phase you will be presented with the words from the the first phase. Your job is to decide whether you remember seeing the word or not. If you remember seeing the word press ""old"" or type ""m"". If you do not remember seeing the word press ""new"" or type ""z"". Please press the space bar or click on continue to begin. ",,,5c3b8c426949490001a56400,34,2022-02-12_17h12.20.825,lexical_decision_task_DD_L2,2021.2.3,MacIntel,59.99160118,,,,,,,,,,,,,,,,,,,,,,,,,,,,,,,,,,,,,,,,,,,,,,,,,,,,,,,,,,,,,,,,,,,1,0,1,0,1,,,,,,,,,,,,,,,
space,-0.025790541,-0.40551005,0,0,0,,,,,,,1,test,"In the next phase you will be presented with the words from the the first phase. Your job is to decide whether you remember seeing the word or not. If you remember seeing the word press ""old"" or type ""m"". If you do not remember seeing the word press ""new"" or type ""z"". Please press the space bar or click on continue to begin. ",,,5c3b8c426949490001a56400,34,2022-02-12_17h12.20.825,lexical_decision_task_DD_L2,2021.2.3,MacIntel,59.99160118,1.4684,,,,,,,,,,,,,,,,,,,,,,,,,,,,,,,,,,,,,,,,,,,,,,,,,,,,,,,,,,,,,,,,,,2,0,2,0,1,,,,,,,,,,,,,,,
,-0.02101359,-0.386590034,1,0,0,instr_done_button,,,,,,1,test,"In the next phase you will be presented with the words from the the first phase. Your job is to decide whether you remember seeing the word or not. If you remember seeing the word press ""old"" or type ""m"". If you do not remember seeing the word press ""new"" or type ""z"". Please press the space bar or click on continue to begin. ",,,5c3b8c426949490001a56400,34,2022-02-12_17h12.20.825,lexical_decision_task_DD_L2,2021.2.3,MacIntel,59.99160118,,,,,,,,,,,,,,,,,,,,,,,,,,,,,,,,,,,,,,,,,,,,,,,,,,,,,,,,,,,,,,,,,,,3,0,3,0,1,,,,,,,,,,,,,,,
,-0.02101359,-0.386590034,1,0,0,instr_done_button,,,,,,1,test,"In the next phase you will be presented with the words from the the first phase. Your job is to decide whether you remember seeing the word or not. If you remember seeing the word press ""old"" or type ""m"". If you do not remember seeing the word press ""new"" or type ""z"". Please press the space bar or click on continue to begin. ",,,5c3b8c426949490001a56400,34,2022-02-12_17h12.20.825,lexical_decision_task_DD_L2,2021.2.3,MacIntel,59.99160118,,,,,,,,,,,,,,,,,,,,,,,,,,,,,,,,,,,,,,,,,,,,,,,,,,,,,,,,,,,,,,,,,,,4,0,4,0,1,,,,,,,,,,,,,,,
,,,,,,,,,,,,,,,,,5c3b8c426949490001a56400,34,2022-02-12_17h12.20.825,lexical_decision_task_DD_L2,2021.2.3,MacIntel,59.99160118,,,,,,,,,,,,4.153,0,,,,,,,,,,,,,,,,,,,,,,,,0.799982639,-0.123431871,0,0,0,,,,,,,JAGUAR,HB,m,y,./images/JAGUARHB.png,,,,,,,,,,,,,,,,,,,,z,0,4.153,,,,,,,,0,0,0,18,1
,,,,,,,,,,,,,,,,,5c3b8c426949490001a56400,34,2022-02-12_17h12.20.825,lexical_decision_task_DD_L2,2021.2.3,MacIntel,59.99160118,,,,,,,,,,,,1.3037,1,,,,,,,,,,,,,,,,,,,,,,,,0.799982639,-0.123431871,0,0,0,,,,,,,MIDGET,LB,z,y,./images/MIDGETLB.png,,,,,,,,,,,,,,,,,,,,z,1,1.3037,,,,,,,,0,1,1,160,1
,,,,,,,,,,,,,,,,,5c3b8c426949490001a56400,34,2022-02-12_17h12.20.825,lexical_decision_task_DD_L2,2021.2.3,MacIntel,59.99160118,,,,,,,,,,,,1.3995,0,,,,,,,,,,,,,,,,,,,,,,,,0.799982639,-0.123431871,0,0,0,,,,,,,BURIAL,C,m,y,./images/BURIAL.png,,,,,,,,,,,,,,,,,,,,z,0,1.3995,,,,,,,,0,2,2,59,1
,,,,,,,,,,,,,,,,,5c3b8c426949490001a56400,34,2022-02-12_17h12.20.825,lexical_decision_task_DD_L2,2021.2.3,MacIntel,59.99160118,,,,,,,,,,,,0.9502,1,,,,,,,,,,,,,,,,,,,,,,,,0.799982639,-0.123431871,0,0,0,,,,,,,BERRY,C,m,y,./images/BERRY.png,,,,,,,,,,,,,,,,,,,,m,1,0.9502,,,,,,,,0,3,3,47,1
,,,,,,,,,,,,,,,,,5c3b8c426949490001a56400,34,2022-02-12_17h12.20.825,lexical_decision_task_DD_L2,2021.2.3,MacIntel,59.99160118,,,,,,,,,,,,0.8496,1,,,,,,,,,,,,,,,,,,,,,,,,0.799982639,-0.123431871,0,0,0,,,,,,,GRAPE,LB,z,y,./images/GRAPELB.png,,,,,,,,,,,,,,,,,,,,z,1,0.8496,,,,,,,,0,4,4,100,1
,,,,,,,,,,,,,,,,,5c3b8c426949490001a56400,34,2022-02-12_17h12.20.825,lexical_decision_task_DD_L2,2021.2.3,MacIntel,59.99160118,,,,,,,,,,,,1.6729,1,,,,,,,,,,,,,,,,,,,,,,,,0.799982639,-0.123431871,0,0,0,,,,,,,CANYON,LB,m,y,./images/CANYONLB.png,,,,,,,,,,,,,,,,,,,,m,1,1.6729,,,,,,,,0,5,5,34,1
,,,,,,,,,,,,,,,,,5c3b8c426949490001a56400,34,2022-02-12_17h12.20.825,lexical_decision_task_DD_L2,2021.2.3,MacIntel,59.99160118,,,,,,,,,,,,0.9858,1,,,,,,,,,,,,,,,,,,,,,,,,0.799982639,-0.123431871,0,0,0,,,,,,,CLOWN,LB,z,y,./images/CLOWNLB.png,,,,,,,,,,,,,,,,,,,,z,1,0.9858,,,,,,,,0,6,6,106,1
,,,,,,,,,,,,,,,,,5c3b8c426949490001a56400,34,2022-02-12_17h12.20.825,lexical_decision_task_DD_L2,2021.2.3,MacIntel,59.99160118,,,,,,,,,,,,0.8683,1,,,,,,,,,,,,,,,,,,,,,,,,0.799982639,-0.123431871,0,0,0,,,,,,,HOCKEY,C,z,y,./images/HOCKEY.png,,,,,,,,,,,,,,,,,,,,z,1,0.8683,,,,,,,,0,7,7,116,1
,,,,,,,,,,,,,,,,,5c3b8c426949490001a56400,34,2022-02-12_17h12.20.825,lexical_decision_task_DD_L2,2021.2.3,MacIntel,59.99160118,,,,,,,,,,,,0.8098,1,,,,,,,,,,,,,,,,,,,,,,,,0.799982639,-0.123431871,0,0,0,,,,,,,CRUMB,C,m,y,./images/CRUMB.png,,,,,,,,,,,,,,,,,,,,m,1,0.8098,,,,,,,,0,8,8,29,1
,,,,,,,,,,,,,,,,,5c3b8c426949490001a56400,34,2022-02-12_17h12.20.825,lexical_decision_task_DD_L2,2021.2.3,MacIntel,59.99160118,,,,,,,,,,,,1.046,1,,,,,,,,,,,,,,,,,,,,,,,,0.799982639,-0.123431871,0,0,0,,,,,,,BOXER,LB,z,y,./images/BOXERLB.png,,,,,,,,,,,,,,,,,,,,z,1,1.046,,,,,,,,0,9,9,88,1
,,,,,,,,,,,,,,,,,5c3b8c426949490001a56400,34,2022-02-12_17h12.20.825,lexical_decision_task_DD_L2,2021.2.3,MacIntel,59.99160118,,,,,,,,,,,,0.8321,1,,,,,,,,,,,,,,,,,,,,,,,,0.799982639,-0.123431871,0,0,0,,,,,,,POODLE,HB,m,y,./images/POODLEHB.png,,,,,,,,,,,,,,,,,,,,m,1,0.8321,,,,,,,,0,10,10,81,1
,,,,,,,,,,,,,,,,,5c3b8c426949490001a56400,34,2022-02-12_17h12.20.825,lexical_decision_task_DD_L2,2021.2.3,MacIntel,59.99160118,,,,,,,,,,,,0.7887,1,,,,,,,,,,,,,,,,,,,,,,,,0.799982639,-0.123431871,0,0,0,,,,,,,GRAIN,HB,m,y,./images/GRAINHB.png,,,,,,,,,,,,,,,,,,,,m,1,0.7887,,,,,,,,0,11,11,75,1
,,,,,,,,,,,,,,,,,5c3b8c426949490001a56400,34,2022-02-12_17h12.20.825,lexical_decision_task_DD_L2,2021.2.3,MacIntel,59.99160118,,,,,,,,,,,,1.2208,1,,,,,,,,,,,,,,,,,,,,,,,,0.799982639,-0.123431871,0,0,0,,,,,,,CRATER,HB,z,y,./images/CRATERHB.png,,,,,,,,,,,,,,,,,,,,z,1,1.2208,,,,,,,,0,12,12,87,1
,,,,,,,,,,,,,,,,,5c3b8c426949490001a56400,34,2022-02-12_17h12.20.825,lexical_decision_task_DD_L2,2021.2.3,MacIntel,59.99160118,,,,,,,,,,,,1.2196,1,,,,,,,,,,,,,,,,,,,,,,,,0.799982639,-0.123431871,0,0,0,,,,,,,LITTER,HB,m,y,./images/LITTERHB.png,,,,,,,,,,,,,,,,,,,,m,1,1.2196,,,,,,,,0,13,13,78,1
,,,,,,,,,,,,,,,,,5c3b8c426949490001a56400,34,2022-02-12_17h12.20.825,lexical_decision_task_DD_L2,2021.2.3,MacIntel,59.99160118,,,,,,,,,,,,0.7709,1,,,,,,,,,,,,,,,,,,,,,,,,0.799982639,-0.123431871,0,0,0,,,,,,,DONKEY,LB,z,y,./images/DONKEYLB.png,,,,,,,,,,,,,,,,,,,,z,1,0.7709,,,,,,,,0,14,14,103,1
,,,,,,,,,,,,,,,,,5c3b8c426949490001a56400,34,2022-02-12_17h12.20.825,lexical_decision_task_DD_L2,2021.2.3,MacIntel,59.99160118,,,,,,,,,,,,0.929,1,,,,,,,,,,,,,,,,,,,,,,,,0.799982639,-0.123431871,0,0,0,,,,,,,WALRUS,C,m,y,./images/WALRUS.png,,,,,,,,,,,,,,,,,,,,m,1,0.929,,,,,,,,0,15,15,23,1
,,,,,,,,,,,,,,,,,5c3b8c426949490001a56400,34,2022-02-12_17h12.20.825,lexical_decision_task_DD_L2,2021.2.3,MacIntel,59.99160118,,,,,,,,,,,,1.5311,1,,,,,,,,,,,,,,,,,,,,,,,,0.799982639,-0.123431871,0,0,0,,,,,,,SWING,LB,m,y,./images/SWINGLB.png,,,,,,,,,,,,,,,,,,,,m,1,1.5311,,,,,,,,0,16,16,40,1
,,,,,,,,,,,,,,,,,5c3b8c426949490001a56400,34,2022-02-12_17h12.20.825,lexical_decision_task_DD_L2,2021.2.3,MacIntel,59.99160118,,,,,,,,,,,,1.0472,1,,,,,,,,,,,,,,,,,,,,,,,,0.799982639,-0.123431871,0,0,0,,,,,,,MELON,LB,m,y,./images/MELONLB.png,,,,,,,,,,,,,,,,,,,,m,1,1.0472,,,,,,,,0,17,17,22,1
,,,,,,,,,,,,,,,,,5c3b8c426949490001a56400,34,2022-02-12_17h12.20.825,lexical_decision_task_DD_L2,2021.2.3,MacIntel,59.99160118,,,,,,,,,,,,0.7728,1,,,,,,,,,,,,,,,,,,,,,,,,0.799982639,-0.123431871,0,0,0,,,,,,,JUNGLE,C,m,y,./images/JUNGLE.png,,,,,,,,,,,,,,,,,,,,m,1,0.7728,,,,,,,,0,18,18,83,1
,,,,,,,,,,,,,,,,,5c3b8c426949490001a56400,34,2022-02-12_17h12.20.825,lexical_decision_task_DD_L2,2021.2.3,MacIntel,59.99160118,,,,,,,,,,,,2.1974,1,,,,,,,,,,,,,,,,,,,,,,,,0.799982639,-0.123431871,0,0,0,,,,,,,BROOM,HB,z,y,./images/BROOMHB.png,,,,,,,,,,,,,,,,,,,,z,1,2.1974,,,,,,,,0,19,19,162,1
,,,,,,,,,,,,,,,,,5c3b8c426949490001a56400,34,2022-02-12_17h12.20.825,lexical_decision_task_DD_L2,2021.2.3,MacIntel,59.99160118,,,,,,,,,,,,0.8309,1,,,,,,,,,,,,,,,,,,,,,,,,0.799982639,-0.123431871,0,0,0,,,,,,,COOKER,HB,m,y,./images/COOKERHB.png,,,,,,,,,,,,,,,,,,,,m,1,0.8309,,,,,,,,0,20,20,69,1
,,,,,,,,,,,,,,,,,5c3b8c426949490001a56400,34,2022-02-12_17h12.20.825,lexical_decision_task_DD_L2,2021.2.3,MacIntel,59.99160118,,,,,,,,,,,,1.3992,1,,,,,,,,,,,,,,,,,,,,,,,,0.799982639,-0.123431871,0,0,0,,,,,,,DESERT,LB,z,y,./images/DESERTLB.png,,,,,,,,,,,,,,,,,,,,z,1,1.3992,,,,,,,,0,21,21,136,1
,,,,,,,,,,,,,,,,,5c3b8c426949490001a56400,34,2022-02-12_17h12.20.825,lexical_decision_task_DD_L2,2021.2.3,MacIntel,59.99160118,,,,,,,,,,,,0.7531,1,,,,,,,,,,,,,,,,,,,,,,,,0.799982639,-0.123431871,0,0,0,,,,,,,TWINS,HB,m,y,./images/TWINSHB.png,,,,,,,,,,,,,,,,,,,,m,1,0.7531,,,,,,,,0,22,22,60,1
,,,,,,,,,,,,,,,,,5c3b8c426949490001a56400,34,2022-02-12_17h12.20.825,lexical_decision_task_DD_L2,2021.2.3,MacIntel,59.99160118,,,,,,,,,,,,1.5973,1,,,,,,,,,,,,,,,,,,,,,,,,0.799982639,-0.123431871,0,0,0,,,,,,,DANCER,HB,z,y,./images/DANCERHB.png,,,,,,,,,,,,,,,,,,,,z,1,1.5973,,,,,,,,0,23,23,105,1
,,,,,,,,,,,,,,,,,5c3b8c426949490001a56400,34,2022-02-12_17h12.20.825,lexical_decision_task_DD_L2,2021.2.3,MacIntel,59.99160118,,,,,,,,,,,,0.8098,0,,,,,,,,,,,,,,,,,,,,,,,,0.799982639,-0.123431871,0,0,0,,,,,,,BAKER,HB,z,y,./images/BAKERHB.png,,,,,,,,,,,,,,,,,,,,m,0,0.8098,,,,,,,,0,24,24,147,1
,,,,,,,,,,,,,,,,,5c3b8c426949490001a56400,34,2022-02-12_17h12.20.825,lexical_decision_task_DD_L2,2021.2.3,MacIntel,59.99160118,,,,,,,,,,,,1.339,1,,,,,,,,,,,,,,,,,,,,,,,,0.799982639,-0.123431871,0,0,0,,,,,,,DRILL,HB,z,y,./images/DRILLHB.png,,,,,,,,,,,,,,,,,,,,z,1,1.339,,,,,,,,0,25,25,165,1
,,,,,,,,,,,,,,,,,5c3b8c426949490001a56400,34,2022-02-12_17h12.20.825,lexical_decision_task_DD_L2,2021.2.3,MacIntel,59.99160118,,,,,,,,,,,,1.2376,1,,,,,,,,,,,,,,,,,,,,,,,,0.799982639,-0.123431871,0,0,0,,,,,,,CRADLE,C,m,y,./images/CRADLE.png,,,,,,,,,,,,,,,,,,,,m,1,1.2376,,,,,,,,0,26,26,20,1
,,,,,,,,,,,,,,,,,5c3b8c426949490001a56400,34,2022-02-12_17h12.20.825,lexical_decision_task_DD_L2,2021.2.3,MacIntel,59.99160118,,,,,,,,,,,,0.8307,1,,,,,,,,,,,,,,,,,,,,,,,,0.799982639,-0.123431871,0,0,0,,,,,,,SPORT,HB,m,y,./images/SPORTHB.png,,,,,,,,,,,,,,,,,,,,m,1,0.8307,,,,,,,,0,27,27,48,1
,,,,,,,,,,,,,,,,,5c3b8c426949490001a56400,34,2022-02-12_17h12.20.825,lexical_decision_task_DD_L2,2021.2.3,MacIntel,59.99160118,,,,,,,,,,,,0.9284,0,,,,,,,,,,,,,,,,,,,,,,,,0.799982639,-0.123431871,0,0,0,,,,,,,RULER,LB,z,y,./images/RULERLB.png,,,,,,,,,,,,,,,,,,,,m,0,0.9284,,,,,,,,0,28,28,163,1
,,,,,,,,,,,,,,,,,5c3b8c426949490001a56400,34,2022-02-12_17h12.20.825,lexical_decision_task_DD_L2,2021.2.3,MacIntel,59.99160118,,,,,,,,,,,,1.4154,1,,,,,,,,,,,,,,,,,,,,,,,,0.799982639,-0.123431871,0,0,0,,,,,,,SAUCE,HB,z,y,./images/SAUCEHB.png,,,,,,,,,,,,,,,,,,,,z,1,1.4154,,,,,,,,0,29,29,135,1
,,,,,,,,,,,,,,,,,5c3b8c426949490001a56400,34,2022-02-12_17h12.20.825,lexical_decision_task_DD_L2,2021.2.3,MacIntel,59.99160118,,,,,,,,,,,,2.2787,0,,,,,,,,,,,,,,,,,,,,,,,,0.799982639,-0.123431871,0,0,0,,,,,,,SNAKE,LB,z,y,./images/SNAKELB.png,,,,,,,,,,,,,,,,,,,,m,0,2.2787,,,,,,,,0,30,30,124,1
,,,,,,,,,,,,,,,,,5c3b8c426949490001a56400,34,2022-02-12_17h12.20.825,lexical_decision_task_DD_L2,2021.2.3,MacIntel,59.99160118,,,,,,,,,,,,2.2742,0,,,,,,,,,,,,,,,,,,,,,,,,0.799982639,-0.123431871,0,0,0,,,,,,,CANDY,HB,z,y,./images/CANDYHB.png,,,,,,,,,,,,,,,,,,,,m,0,2.2742,,,,,,,,0,31,31,123,1
,,,,,,,,,,,,,,,,,5c3b8c426949490001a56400,34,2022-02-12_17h12.20.825,lexical_decision_task_DD_L2,2021.2.3,MacIntel,59.99160118,,,,,,,,,,,,1.2408,1,,,,,,,,,,,,,,,,,,,,,,,,0.799982639,-0.123431871,0,0,0,,,,,,,SKIING,C,m,y,./images/SKIING.png,,,,,,,,,,,,,,,,,,,,m,1,1.2408,,,,,,,,0,32,32,17,1
,,,,,,,,,,,,,,,,,5c3b8c426949490001a56400,34,2022-02-12_17h12.20.825,lexical_decision_task_DD_L2,2021.2.3,MacIntel,59.99160118,,,,,,,,,,,,0.7335,1,,,,,,,,,,,,,,,,,,,,,,,,0.799982639,-0.123431871,0,0,0,,,,,,,JELLY,LB,m,y,./images/JELLYLB.png,,,,,,,,,,,,,,,,,,,,m,1,0.7335,,,,,,,,0,33,33,64,1
,,,,,,,,,,,,,,,,,5c3b8c426949490001a56400,34,2022-02-12_17h12.20.825,lexical_decision_task_DD_L2,2021.2.3,MacIntel,59.99160118,,,,,,,,,,,,2.1565,1,,,,,,,,,,,,,,,,,,,,,,,,0.799982639,-0.123431871,0,0,0,,,,,,,PASTA,C,m,y,./images/PASTA.png,,,,,,,,,,,,,,,,,,,,m,1,2.1565,,,,,,,,0,34,34,5,1
,,,,,,,,,,,,,,,,,5c3b8c426949490001a56400,34,2022-02-12_17h12.20.825,lexical_decision_task_DD_L2,2021.2.3,MacIntel,59.99160118,,,,,,,,,,,,1.4563,1,,,,,,,,,,,,,,,,,,,,,,,,0.799982639,-0.123431871,0,0,0,,,,,,,GRANNY,C,z,y,./images/GRANNY.png,,,,,,,,,,,,,,,,,,,,z,1,1.4563,,,,,,,,0,35,35,104,1
,,,,,,,,,,,,,,,,,5c3b8c426949490001a56400,34,2022-02-12_17h12.20.825,lexical_decision_task_DD_L2,2021.2.3,MacIntel,59.99160118,,,,,,,,,,,,1.6349,0,,,,,,,,,,,,,,,,,,,,,,,,0.799982639,-0.123431871,0,0,0,,,,,,,PARADE,C,z,y,./images/PARADE.png,,,,,,,,,,,,,,,,,,,,m,0,1.6349,,,,,,,,0,36,36,101,1
,,,,,,,,,,,,,,,,,5c3b8c426949490001a56400,34,2022-02-12_17h12.20.825,lexical_decision_task_DD_L2,2021.2.3,MacIntel,59.99160118,,,,,,,,,,,,1.4182,1,,,,,,,,,,,,,,,,,,,,,,,,0.799982639,-0.12368788,0,0,0,,,,,,,MONKEY,HB,z,y,./images/MONKEYHB.png,,,,,,,,,,,,,,,,,,,,z,1,1.4182,,,,,,,,0,37,37,129,1
,,,,,,,,,,,,,,,,,5c3b8c426949490001a56400,34,2022-02-12_17h12.20.825,lexical_decision_task_DD_L2,2021.2.3,MacIntel,59.99160118,,,,,,,,,,,,0.8279,1,,,,,,,,,,,,,,,,,,,,,,,,0.799982639,-0.12368788,0,0,0,,,,,,,WEASEL,C,m,y,./images/WEASEL.png,,,,,,,,,,,,,,,,,,,,m,1,0.8279,,,,,,,,0,38,38,80,1
,,,,,,,,,,,,,,,,,5c3b8c426949490001a56400,34,2022-02-12_17h12.20.825,lexical_decision_task_DD_L2,2021.2.3,MacIntel,59.99160118,,,,,,,,,,,,1.069,1,,,,,,,,,,,,,,,,,,,,,,,,0.799982639,-0.12368788,0,0,0,,,,,,,PEBBLE,LB,z,y,./images/PEBBLELB.png,,,,,,,,,,,,,,,,,,,,z,1,1.069,,,,,,,,0,39,39,166,1
,,,,,,,,,,,,,,,,,5c3b8c426949490001a56400,34,2022-02-12_17h12.20.825,lexical_decision_task_DD_L2,2021.2.3,MacIntel,59.99160118,,,,,,,,,,,,1.3811,0,,,,,,,,,,,,,,,,,,,,,,,,0.799982639,-0.12368788,0,0,0,,,,,,,BONNET,C,m,y,./images/BONNET.png,,,,,,,,,,,,,,,,,,,,z,0,1.3811,,,,,,,,0,40,40,11,1
,,,,,,,,,,,,,,,,,5c3b8c426949490001a56400,34,2022-02-12_17h12.20.825,lexical_decision_task_DD_L2,2021.2.3,MacIntel,59.99160118,,,,,,,,,,,,1.3336,0,,,,,,,,,,,,,,,,,,,,,,,,0.798378499,-0.119779392,0,0,0,space,,,,,,CASINO,LB,z,y,./images/CASINOLB.png,4.1757,,,,,,,,,,,,,,,,,,,m,0,1.3336,,,,,,,,0,41,41,112,1
,,,,,,,,,,,,,,,,,5c3b8c426949490001a56400,34,2022-02-12_17h12.20.825,lexical_decision_task_DD_L2,2021.2.3,MacIntel,59.99160118,,,,,,,,,,,,1.0267,1,,,,,,,,,,,,,,,,,,,,,,,,0.798378499,-0.119779392,0,0,0,,,,,,,BABOON,LB,m,y,./images/BABOONLB.png,,,,,,,,,,,,,,,,,,,,m,1,1.0267,,,,,,,,0,42,42,58,1
,,,,,,,,,,,,,,,,,5c3b8c426949490001a56400,34,2022-02-12_17h12.20.825,lexical_decision_task_DD_L2,2021.2.3,MacIntel,59.99160118,,,,,,,,,,,,0.6909,1,,,,,,,,,,,,,,,,,,,,,,,,0.798378499,-0.120035468,0,0,0,,,,,,,STRING,C,m,y,./images/STRING.png,,,,,,,,,,,,,,,,,,,,m,1,0.6909,,,,,,,,0,43,43,41,1
,,,,,,,,,,,,,,,,,5c3b8c426949490001a56400,34,2022-02-12_17h12.20.825,lexical_decision_task_DD_L2,2021.2.3,MacIntel,59.99160118,,,,,,,,,,,,0.6336,0,,,,,,,,,,,,,,,,,,,,,,,,0.799467638,-0.121346503,0,0,0,,,,,,,BAMBOO,C,z,y,./images/BAMBOO.png,,,,,,,,,,,,,,,,,,,,m,0,0.6336,,,,,,,,0,44,44,89,1
,,,,,,,,,,,,,,,,,5c3b8c426949490001a56400,34,2022-02-12_17h12.20.825,lexical_decision_task_DD_L2,2021.2.3,MacIntel,59.99160118,,,,,,,,,,,,1.1259,1,,,,,,,,,,,,,,,,,,,,,,,,0.79972819,-0.120458917,0,0,0,,,,,,,MUFFIN,LB,m,y,./images/MUFFINLB.png,,,,,,,,,,,,,,,,,,,,m,1,1.1259,,,,,,,,0,45,45,55,1
,,,,,,,,,,,,,,,,,5c3b8c426949490001a56400,34,2022-02-12_17h12.20.825,lexical_decision_task_DD_L2,2021.2.3,MacIntel,59.99160118,,,,,,,,,,,,0.7895,1,,,,,,,,,,,,,,,,,,,,,,,,0.79972819,-0.119948256,0,0,0,,,,,,,MOSQUE,LB,m,y,./images/MOSQUELB.png,,,,,,,,,,,,,,,,,,,,m,1,0.7895,,,,,,,,0,46,46,43,1
,,,,,,,,,,,,,,,,,5c3b8c426949490001a56400,34,2022-02-12_17h12.20.825,lexical_decision_task_DD_L2,2021.2.3,MacIntel,59.99160118,,,,,,,,,,,,0.7538,1,,,,,,,,,,,,,,,,,,,,,,,,0.799982639,-0.120442844,0,0,0,,,,,,,TOMATO,HB,m,y,./images/TOMATOHB.png,,,,,,,,,,,,,,,,,,,,m,1,0.7538,,,,,,,,0,47,47,0,1
,,,,,,,,,,,,,,,,,5c3b8c426949490001a56400,34,2022-02-12_17h12.20.825,lexical_decision_task_DD_L2,2021.2.3,MacIntel,59.99160118,,,,,,,,,,,,1.0654,1,,,,,,,,,,,,,,,,,,,,,,,,0.799982639,-0.120964288,0,0,0,,,,,,,LAGOON,C,z,y,./images/LAGOON.png,,,,,,,,,,,,,,,,,,,,z,1,1.0654,,,,,,,,0,48,48,131,1
,,,,,,,,,,,,,,,,,5c3b8c426949490001a56400,34,2022-02-12_17h12.20.825,lexical_decision_task_DD_L2,2021.2.3,MacIntel,59.99160118,,,,,,,,,,,,1.0652,0,,,,,,,,,,,,,,,,,,,,,,,,0.799982639,-0.120964288,0,0,0,,,,,,,STAIN,HB,z,y,./images/STAINHB.png,,,,,,,,,,,,,,,,,,,,m,0,1.0652,,,,,,,,0,49,49,90,1
,,,,,,,,,,,,,,,,,5c3b8c426949490001a56400,34,2022-02-12_17h12.20.825,lexical_decision_task_DD_L2,2021.2.3,MacIntel,59.99160118,,,,,,,,,,,,1.1655,1,,,,,,,,,,,,,,,,,,,,,,,,0.799982639,-0.121224637,0,0,0,,,,,,,STREAM,C,z,y,./images/STREAM.png,,,,,,,,,,,,,,,,,,,,z,1,1.1655,,,,,,,,0,50,50,125,1
,,,,,,,,,,,,,,,,,5c3b8c426949490001a56400,34,2022-02-12_17h12.20.825,lexical_decision_task_DD_L2,2021.2.3,MacIntel,59.99160118,,,,,,,,,,,,1.3765,1,,,,,,,,,,,,,,,,,,,,,,,,0.799982639,-0.121224637,0,0,0,,,,,,,ENGINE,C,z,y,./images/ENGINE.png,,,,,,,,,,,,,,,,,,,,z,1,1.3765,,,,,,,,0,51,51,122,1
,,,,,,,,,,,,,,,,,5c3b8c426949490001a56400,34,2022-02-12_17h12.20.825,lexical_decision_task_DD_L2,2021.2.3,MacIntel,59.99160118,,,,,,,,,,,,1.0805,1,,,,,,,,,,,,,,,,,,,,,,,,0.799982639,-0.121224637,0,0,0,,,,,,,TOWEL,LB,z,y,./images/TOWELLB.png,,,,,,,,,,,,,,,,,,,,z,1,1.0805,,,,,,,,0,52,52,85,1
,,,,,,,,,,,,,,,,,5c3b8c426949490001a56400,34,2022-02-12_17h12.20.825,lexical_decision_task_DD_L2,2021.2.3,MacIntel,59.99160118,,,,,,,,,,,,1.0835,1,,,,,,,,,,,,,,,,,,,,,,,,0.799982639,-0.121224637,0,0,0,,,,,,,POKER,LB,z,y,./images/POKERLB.png,,,,,,,,,,,,,,,,,,,,z,1,1.0835,,,,,,,,0,53,53,151,1
,,,,,,,,,,,,,,,,,5c3b8c426949490001a56400,34,2022-02-12_17h12.20.825,lexical_decision_task_DD_L2,2021.2.3,MacIntel,59.99160118,,,,,,,,,,,,0.9866,1,,,,,,,,,,,,,,,,,,,,,,,,0.799982639,-0.121224637,0,0,0,,,,,,,CHAIN,HB,z,y,./images/CHAINHB.png,,,,,,,,,,,,,,,,,,,,z,1,0.9866,,,,,,,,0,54,54,126,1
,,,,,,,,,,,,,,,,,5c3b8c426949490001a56400,34,2022-02-12_17h12.20.825,lexical_decision_task_DD_L2,2021.2.3,MacIntel,59.99160118,,,,,,,,,,,,0.9481,1,,,,,,,,,,,,,,,,,,,,,,,,0.799982639,-0.121224637,0,0,0,,,,,,,DRUMS,LB,m,y,./images/DRUMSLB.png,,,,,,,,,,,,,,,,,,,,m,1,0.9481,,,,,,,,0,55,55,49,1
,,,,,,,,,,,,,,,,,5c3b8c426949490001a56400,34,2022-02-12_17h12.20.825,lexical_decision_task_DD_L2,2021.2.3,MacIntel,59.99160118,,,,,,,,,,,,0.8562,1,,,,,,,,,,,,,,,,,,,,,,,,0.798631185,-0.116726006,0,0,0,,,,,,,FALCON,LB,m,y,./images/FALCONLB.png,,,,,,,,,,,,,,,,,,,,m,1,0.8562,,,,,,,,0,56,56,28,1
,,,,,,,,,,,,,,,,,5c3b8c426949490001a56400,34,2022-02-12_17h12.20.825,lexical_decision_task_DD_L2,2021.2.3,MacIntel,59.99160118,,,,,,,,,,,,1.3007,1,,,,,,,,,,,,,,,,,,,,,,,,0.798631185,-0.116726006,0,0,0,,,,,,,TRIPOD,HB,m,y,./images/TRIPODHB.png,,,,,,,,,,,,,,,,,,,,m,1,1.3007,,,,,,,,0,57,57,54,1
,,,,,,,,,,,,,,,,,5c3b8c426949490001a56400,34,2022-02-12_17h12.20.825,lexical_decision_task_DD_L2,2021.2.3,MacIntel,59.99160118,,,,,,,,,,,,1.1258,0,,,,,,,,,,,,,,,,,,,,,,,,0.798631185,-0.115954997,0,0,0,,,,,,,BASKET,C,z,y,./images/BASKET.png,,,,,,,,,,,,,,,,,,,,m,0,1.1258,,,,,,,,0,58,58,128,1
,,,,,,,,,,,,,,,,,5c3b8c426949490001a56400,34,2022-02-12_17h12.20.825,lexical_decision_task_DD_L2,2021.2.3,MacIntel,59.99160118,,,,,,,,,,,,1.0464,1,,,,,,,,,,,,,,,,,,,,,,,,0.798359104,-0.114369914,0,0,0,,,,,,,BANANA,LB,z,y,./images/BANANALB.png,,,,,,,,,,,,,,,,,,,,z,1,1.0464,,,,,,,,0,59,59,154,1
,,,,,,,,,,,,,,,,,5c3b8c426949490001a56400,34,2022-02-12_17h12.20.825,lexical_decision_task_DD_L2,2021.2.3,MacIntel,59.99160118,,,,,,,,,,,,1.2779,1,,,,,,,,,,,,,,,,,,,,,,,,0.798359104,-0.114369914,0,0,0,,,,,,,MUMMY,LB,z,y,./images/MUMMYLB.png,,,,,,,,,,,,,,,,,,,,z,1,1.2779,,,,,,,,0,60,60,130,1
,,,,,,,,,,,,,,,,,5c3b8c426949490001a56400,34,2022-02-12_17h12.20.825,lexical_decision_task_DD_L2,2021.2.3,MacIntel,59.99160118,,,,,,,,,,,,0.7904,0,,,,,,,,,,,,,,,,,,,,,,,,0.798359104,-0.114369914,0,0,0,,,,,,,STOOL,LB,z,y,./images/STOOLLB.png,,,,,,,,,,,,,,,,,,,,m,0,0.7904,,,,,,,,0,61,61,127,1
,,,,,,,,,,,,,,,,,5c3b8c426949490001a56400,34,2022-02-12_17h12.20.825,lexical_decision_task_DD_L2,2021.2.3,MacIntel,59.99160118,,,,,,,,,,,,1.0052,0,,,,,,,,,,,,,,,,,,,,,,,,0.798359104,-0.114370863,0,0,0,,,,,,,QUILL,LB,m,y,./images/QUILLLB.png,,,,,,,,,,,,,,,,,,,,z,0,1.0052,,,,,,,,0,62,62,31,1
,,,,,,,,,,,,,,,,,5c3b8c426949490001a56400,34,2022-02-12_17h12.20.825,lexical_decision_task_DD_L2,2021.2.3,MacIntel,59.99160118,,,,,,,,,,,,1.2334,1,,,,,,,,,,,,,,,,,,,,,,,,0.798359104,-0.114370863,0,0,0,,,,,,,PARCEL,HB,z,y,./images/PARCELHB.png,,,,,,,,,,,,,,,,,,,,z,1,1.2334,,,,,,,,0,63,63,102,1
,,,,,,,,,,,,,,,,,5c3b8c426949490001a56400,34,2022-02-12_17h12.20.825,lexical_decision_task_DD_L2,2021.2.3,MacIntel,59.99160118,,,,,,,,,,,,0.906,1,,,,,,,,,,,,,,,,,,,,,,,,0.798359104,-0.114370863,0,0,0,,,,,,,LADDER,C,m,y,./images/LADDER.png,,,,,,,,,,,,,,,,,,,,m,1,0.906,,,,,,,,0,64,64,38,1
,,,,,,,,,,,,,,,,,5c3b8c426949490001a56400,34,2022-02-12_17h12.20.825,lexical_decision_task_DD_L2,2021.2.3,MacIntel,59.99160118,,,,,,,,,,,,1.2789,1,,,,,,,,,,,,,,,,,,,,,,,,0.798359104,-0.114371541,0,0,0,,,,,,,FERRY,HB,z,y,./images/FERRYHB.png,,,,,,,,,,,,,,,,,,,,z,1,1.2789,,,,,,,,0,65,65,141,1
,,,,,,,,,,,,,,,,,5c3b8c426949490001a56400,34,2022-02-12_17h12.20.825,lexical_decision_task_DD_L2,2021.2.3,MacIntel,59.99160118,,,,,,,,,,,,1.1639,1,,,,,,,,,,,,,,,,,,,,,,,,0.798359104,-0.114371541,0,0,0,,,,,,,ARROW,HB,z,y,./images/ARROWHB.png,,,,,,,,,,,,,,,,,,,,z,1,1.1639,,,,,,,,0,66,66,153,1
,,,,,,,,,,,,,,,,,5c3b8c426949490001a56400,34,2022-02-12_17h12.20.825,lexical_decision_task_DD_L2,2021.2.3,MacIntel,59.99160118,,,,,,,,,,,,1.4374,1,,,,,,,,,,,,,,,,,,,,,,,,0.798359104,-0.114371541,0,0,0,,,,,,,PACKET,C,m,y,./images/PACKET.png,,,,,,,,,,,,,,,,,,,,m,1,1.4374,,,,,,,,0,67,67,56,1
,,,,,,,,,,,,,,,,,5c3b8c426949490001a56400,34,2022-02-12_17h12.20.825,lexical_decision_task_DD_L2,2021.2.3,MacIntel,59.99160118,,,,,,,,,,,,1.0672,0,,,,,,,,,,,,,,,,,,,,,,,,0.799763726,-0.101484375,0,0,0,,,,,,,CHERRY,HB,z,y,./images/CHERRYHB.png,,,,,,,,,,,,,,,,,,,,m,0,1.0672,,,,,,,,0,68,68,138,1
,,,,,,,,,,,,,,,,,5c3b8c426949490001a56400,34,2022-02-12_17h12.20.825,lexical_decision_task_DD_L2,2021.2.3,MacIntel,59.99160118,,,,,,,,,,,,0.9904,0,,,,,,,,,,,,,,,,,,,,,,,,0.799763726,-0.102027249,0,0,0,,,,,,,STEAK,LB,z,y,./images/STEAKLB.png,,,,,,,,,,,,,,,,,,,,m,0,0.9904,,,,,,,,0,69,69,115,1
,,,,,,,,,,,,,,,,,5c3b8c426949490001a56400,34,2022-02-12_17h12.20.825,lexical_decision_task_DD_L2,2021.2.3,MacIntel,59.99160118,,,,,,,,,,,,1.22,0,,,,,,,,,,,,,,,,,,,,,,,,0.799763726,-0.103876004,0,0,0,,,,,,,SAILOR,LB,m,y,./images/SAILORLB.png,,,,,,,,,,,,,,,,,,,,z,0,1.22,,,,,,,,0,70,70,67,1
,,,,,,,,,,,,,,,,,5c3b8c426949490001a56400,34,2022-02-12_17h12.20.825,lexical_decision_task_DD_L2,2021.2.3,MacIntel,59.99160118,,,,,,,,,,,,1.0828,1,,,,,,,,,,,,,,,,,,,,,,,,0.799763726,-0.104702759,0,0,0,,,,,,,ALLEY,LB,z,y,./images/ALLEYLB.png,,,,,,,,,,,,,,,,,,,,z,1,1.0828,,,,,,,,0,71,71,139,1
,,,,,,,,,,,,,,,,,5c3b8c426949490001a56400,34,2022-02-12_17h12.20.825,lexical_decision_task_DD_L2,2021.2.3,MacIntel,59.99160118,,,,,,,,,,,,1.0494,1,,,,,,,,,,,,,,,,,,,,,,,,0.799763726,-0.104958903,0,0,0,,,,,,,GREASE,HB,m,y,./images/GREASEHB.png,,,,,,,,,,,,,,,,,,,,m,1,1.0494,,,,,,,,0,72,72,15,1
,,,,,,,,,,,,,,,,,5c3b8c426949490001a56400,34,2022-02-12_17h12.20.825,lexical_decision_task_DD_L2,2021.2.3,MacIntel,59.99160118,,,,,,,,,,,,1.0843,0,,,,,,,,,,,,,,,,,,,,,,,,0.799763726,-0.105215047,0,0,0,,,,,,,RAZOR,LB,z,y,./images/RAZORLB.png,,,,,,,,,,,,,,,,,,,,m,0,1.0843,,,,,,,,0,73,73,118,1
,,,,,,,,,,,,,,,,,5c3b8c426949490001a56400,34,2022-02-12_17h12.20.825,lexical_decision_task_DD_L2,2021.2.3,MacIntel,59.99160118,,,,,,,,,,,,2.453,1,,,,,,,,,,,,,,,,,,,,,,,,0.799763726,-0.104434679,0,0,0,,,,,,,BRUSH,C,z,y,./images/BRUSH.png,,,,,,,,,,,,,,,,,,,,z,1,2.453,,,,,,,,0,74,74,143,1
,,,,,,,,,,,,,,,,,5c3b8c426949490001a56400,34,2022-02-12_17h12.20.825,lexical_decision_task_DD_L2,2021.2.3,MacIntel,59.99160118,,,,,,,,,,,,0.7726,1,,,,,,,,,,,,,,,,,,,,,,,,0.799763726,-0.104434679,0,0,0,,,,,,,BELLY,LB,m,y,./images/BELLYLB.png,,,,,,,,,,,,,,,,,,,,m,1,0.7726,,,,,,,,0,75,75,10,1
,,,,,,,,,,,,,,,,,5c3b8c426949490001a56400,34,2022-02-12_17h12.20.825,lexical_decision_task_DD_L2,2021.2.3,MacIntel,59.99160118,,,,,,,,,,,,1.062,0,,,,,,,,,,,,,,,,,,,,,,,,0.799763726,-0.104434679,0,0,0,,,,,,,CLOTH,C,z,y,./images/CLOTH.png,,,,,,,,,,,,,,,,,,,,m,0,1.062,,,,,,,,0,76,76,107,1
,,,,,,,,,,,,,,,,,5c3b8c426949490001a56400,34,2022-02-12_17h12.20.825,lexical_decision_task_DD_L2,2021.2.3,MacIntel,59.99160118,,,,,,,,,,,,0.8897,1,,,,,,,,,,,,,,,,,,,,,,,,0.799763726,-0.104178602,0,0,0,,,,,,,CANDLE,LB,m,y,./images/CANDLELB.png,,,,,,,,,,,,,,,,,,,,m,1,0.8897,,,,,,,,0,77,77,61,1
,,,,,,,,,,,,,,,,,5c3b8c426949490001a56400,34,2022-02-12_17h12.20.825,lexical_decision_task_DD_L2,2021.2.3,MacIntel,59.99160118,,,,,,,,,,,,1.5179,1,,,,,,,,,,,,,,,,,,,,,,,,0.799763726,-0.104434882,0,0,0,,,,,,,CEMENT,C,m,y,./images/CEMENT.png,,,,,,,,,,,,,,,,,,,,m,1,1.5179,,,,,,,,0,78,78,74,1
,,,,,,,,,,,,,,,,,5c3b8c426949490001a56400,34,2022-02-12_17h12.20.825,lexical_decision_task_DD_L2,2021.2.3,MacIntel,59.99160118,,,,,,,,,,,,1.085,1,,,,,,,,,,,,,,,,,,,,,,,,0.799763726,-0.10443495,0,0,0,,,,,,,LLAMA,C,z,y,./images/LLAMA.png,,,,,,,,,,,,,,,,,,,,z,1,1.085,,,,,,,,0,79,79,119,1
,,,,,,,,,,,,,,,,,5c3b8c426949490001a56400,34,2022-02-12_17h12.20.825,lexical_decision_task_DD_L2,2021.2.3,MacIntel,59.99160118,,,,,,,,,,,,1.2781,1,,,,,,,,,,,,,,,,,,,,,,,,0.799763726,-0.10443495,0,0,0,,,,,,,CHALK,LB,z,y,./images/CHALKLB.png,,,,,,,,,,,,,,,,,,,,z,1,1.2781,,,,,,,,0,80,80,109,1
,,,,,,,,,,,,,,,,,5c3b8c426949490001a56400,34,2022-02-12_17h12.20.825,lexical_decision_task_DD_L2,2021.2.3,MacIntel,59.99160118,,,,,,,,,,,,1.516,1,,,,,,,,,,,,,,,,,,,,,,,,0.799763726,-0.104691026,0,0,0,,,,,,,PENCE,LB,m,y,./images/PENCELB.png,,,,,,,,,,,,,,,,,,,,m,1,1.516,,,,,,,,0,81,81,16,1
,,,,,,,,,,,,,,,,,5c3b8c426949490001a56400,34,2022-02-12_17h12.20.825,lexical_decision_task_DD_L2,2021.2.3,MacIntel,59.99160118,,,,,,,,,,,,1.1615,1,,,,,,,,,,,,,,,,,,,,,,,,0.799763726,-0.104691026,0,0,0,,,,,,,URINE,LB,m,y,./images/URINELB.png,,,,,,,,,,,,,,,,,,,,m,1,1.1615,,,,,,,,0,82,82,70,1
,,,,,,,,,,,,,,,,,5c3b8c426949490001a56400,34,2022-02-12_17h12.20.825,lexical_decision_task_DD_L2,2021.2.3,MacIntel,59.99160118,,,,,,,,,,,,0.8292,1,,,,,,,,,,,,,,,,,,,,,,,,0.799763726,-0.103149685,0,0,0,space,,,,,,TULIP,C,m,y,./images/TULIP.png,2.5355,,,,,,,,,,,,,,,,,,,m,1,0.8292,,,,,,,,0,83,83,8,1
,,,,,,,,,,,,,,,,,5c3b8c426949490001a56400,34,2022-02-12_17h12.20.825,lexical_decision_task_DD_L2,2021.2.3,MacIntel,59.99160118,,,,,,,,,,,,1.2596,1,,,,,,,,,,,,,,,,,,,,,,,,0.799763726,-0.103145481,0,0,0,,,,,,,BISHOP,LB,z,y,./images/BISHOPLB.png,,,,,,,,,,,,,,,,,,,,z,1,1.2596,,,,,,,,0,84,84,133,1
,,,,,,,,,,,,,,,,,5c3b8c426949490001a56400,34,2022-02-12_17h12.20.825,lexical_decision_task_DD_L2,2021.2.3,MacIntel,59.99160118,,,,,,,,,,,,1.3191,0,,,,,,,,,,,,,,,,,,,,,,,,0.799763726,-0.102889404,0,0,0,,,,,,,SPINE,C,z,y,./images/SPINE.png,,,,,,,,,,,,,,,,,,,,m,0,1.3191,,,,,,,,0,85,85,149,1
,,,,,,,,,,,,,,,,,5c3b8c426949490001a56400,34,2022-02-12_17h12.20.825,lexical_decision_task_DD_L2,2021.2.3,MacIntel,59.99160118,,,,,,,,,,,,1.1018,0,,,,,,,,,,,,,,,,,,,,,,,,0.799763726,-0.102930027,0,0,0,,,,,,,STOVE,C,z,y,./images/STOVE.png,,,,,,,,,,,,,,,,,,,,m,0,1.1018,,,,,,,,0,86,86,86,1
,,,,,,,,,,,,,,,,,5c3b8c426949490001a56400,34,2022-02-12_17h12.20.825,lexical_decision_task_DD_L2,2021.2.3,MacIntel,59.99160118,,,,,,,,,,,,1.047,1,,,,,,,,,,,,,,,,,,,,,,,,0.799763726,-0.102930027,0,0,0,,,,,,,MOTOR,LB,m,y,./images/MOTORLB.png,,,,,,,,,,,,,,,,,,,,m,1,1.047,,,,,,,,0,87,87,13,1
,,,,,,,,,,,,,,,,,5c3b8c426949490001a56400,34,2022-02-12_17h12.20.825,lexical_decision_task_DD_L2,2021.2.3,MacIntel,59.99160118,,,,,,,,,,,,1.0286,0,,,,,,,,,,,,,,,,,,,,,,,,0.799763726,-0.102930027,0,0,0,,,,,,,PILOT,C,z,y,./images/PILOT.png,,,,,,,,,,,,,,,,,,,,m,0,1.0286,,,,,,,,0,88,88,134,1
,,,,,,,,,,,,,,,,,5c3b8c426949490001a56400,34,2022-02-12_17h12.20.825,lexical_decision_task_DD_L2,2021.2.3,MacIntel,59.99160118,,,,,,,,,,,,1.0651,1,,,,,,,,,,,,,,,,,,,,,,,,0.799763726,-0.102674018,0,0,0,,,,,,,SMOKER,C,m,y,./images/SMOKER.png,,,,,,,,,,,,,,,,,,,,m,1,1.0651,,,,,,,,0,89,89,26,1
,,,,,,,,,,,,,,,,,5c3b8c426949490001a56400,34,2022-02-12_17h12.20.825,lexical_decision_task_DD_L2,2021.2.3,MacIntel,59.99160118,,,,,,,,,,,,1.3601,1,,,,,,,,,,,,,,,,,,,,,,,,0.799763726,-0.102674018,0,0,0,,,,,,,BRIDE,LB,z,y,./images/BRIDELB.png,,,,,,,,,,,,,,,,,,,,z,1,1.3601,,,,,,,,0,90,90,148,1
,,,,,,,,,,,,,,,,,5c3b8c426949490001a56400,34,2022-02-12_17h12.20.825,lexical_decision_task_DD_L2,2021.2.3,MacIntel,59.99160118,,,,,,,,,,,,1.0827,0,,,,,,,,,,,,,,,,,,,,,,,,0.799763726,-0.102674018,0,0,0,,,,,,,POSTER,C,z,y,./images/POSTER.png,,,,,,,,,,,,,,,,,,,,m,0,1.0827,,,,,,,,0,91,91,137,1
,,,,,,,,,,,,,,,,,5c3b8c426949490001a56400,34,2022-02-12_17h12.20.825,lexical_decision_task_DD_L2,2021.2.3,MacIntel,59.99160118,,,,,,,,,,,,1.2191,0,,,,,,,,,,,,,,,,,,,,,,,,0.799763726,-0.102674018,0,0,0,,,,,,,WAGON,LB,z,y,./images/WAGONLB.png,,,,,,,,,,,,,,,,,,,,m,0,1.2191,,,,,,,,0,92,92,91,1
,,,,,,,,,,,,,,,,,5c3b8c426949490001a56400,34,2022-02-12_17h12.20.825,lexical_decision_task_DD_L2,2021.2.3,MacIntel,59.99160118,,,,,,,,,,,,3.8293,1,,,,,,,,,,,,,,,,,,,,,,,,0.799763726,-0.10319241,0,0,0,,,,,,,SWEAT,HB,m,y,./images/SWEATHB.png,,,,,,,,,,,,,,,,,,,,m,1,3.8293,,,,,,,,0,93,93,66,1
,,,,,,,,,,,,,,,,,5c3b8c426949490001a56400,34,2022-02-12_17h12.20.825,lexical_decision_task_DD_L2,2021.2.3,MacIntel,59.99160118,,,,,,,,,,,,1.5726,1,,,,,,,,,,,,,,,,,,,,,,,,0.799763726,-0.10319241,0,0,0,,,,,,,MAGGOT,HB,m,y,./images/MAGGOTHB.png,,,,,,,,,,,,,,,,,,,,m,1,1.5726,,,,,,,,0,94,94,33,1
,,,,,,,,,,,,,,,,,5c3b8c426949490001a56400,34,2022-02-12_17h12.20.825,lexical_decision_task_DD_L2,2021.2.3,MacIntel,59.99160118,,,,,,,,,,,,1.5934,1,,,,,,,,,,,,,,,,,,,,,,,,0.799763726,-0.102936401,0,0,0,,,,,,,JUMPER,C,z,y,./images/JUMPER.png,,,,,,,,,,,,,,,,,,,,z,1,1.5934,,,,,,,,0,95,95,158,1
,,,,,,,,,,,,,,,,,5c3b8c426949490001a56400,34,2022-02-12_17h12.20.825,lexical_decision_task_DD_L2,2021.2.3,MacIntel,59.99160118,,,,,,,,,,,,1.8657,0,,,,,,,,,,,,,,,,,,,,,,,,0.799763726,-0.102936401,0,0,0,,,,,,,SHELF,HB,m,y,./images/SHELFHB.png,,,,,,,,,,,,,,,,,,,,z,0,1.8657,,,,,,,,0,96,96,39,1
,,,,,,,,,,,,,,,,,5c3b8c426949490001a56400,34,2022-02-12_17h12.20.825,lexical_decision_task_DD_L2,2021.2.3,MacIntel,59.99160118,,,,,,,,,,,,0.8602,0,,,,,,,,,,,,,,,,,,,,,,,,0.799763726,-0.102680393,0,0,0,,,,,,,SLOPE,HB,z,y,./images/SLOPEHB.png,,,,,,,,,,,,,,,,,,,,m,0,0.8602,,,,,,,,0,97,97,114,1
,,,,,,,,,,,,,,,,,5c3b8c426949490001a56400,34,2022-02-12_17h12.20.825,lexical_decision_task_DD_L2,2021.2.3,MacIntel,59.99160118,,,,,,,,,,,,0.8064,1,,,,,,,,,,,,,,,,,,,,,,,,0.799763726,-0.101908298,0,0,0,,,,,,,BEARD,C,m,y,./images/BEARD.png,,,,,,,,,,,,,,,,,,,,m,1,0.8064,,,,,,,,0,98,98,2,1
,,,,,,,,,,,,,,,,,5c3b8c426949490001a56400,34,2022-02-12_17h12.20.825,lexical_decision_task_DD_L2,2021.2.3,MacIntel,59.99160118,,,,,,,,,,,,1.4398,1,,,,,,,,,,,,,,,,,,,,,,,,0.799763726,-0.101900431,0,0,0,,,,,,,MAMMAL,C,z,y,./images/MAMMAL.png,,,,,,,,,,,,,,,,,,,,z,1,1.4398,,,,,,,,0,99,99,146,1
,,,,,,,,,,,,,,,,,5c3b8c426949490001a56400,34,2022-02-12_17h12.20.825,lexical_decision_task_DD_L2,2021.2.3,MacIntel,59.99160118,,,,,,,,,,,,2.7069,1,,,,,,,,,,,,,,,,,,,,,,,,0.799763726,-0.099885932,0,0,0,,,,,,,SUNSET,LB,m,y,./images/SUNSETLB.png,,,,,,,,,,,,,,,,,,,,m,1,2.7069,,,,,,,,0,100,100,82,1
,,,,,,,,,,,,,,,,,5c3b8c426949490001a56400,34,2022-02-12_17h12.20.825,lexical_decision_task_DD_L2,2021.2.3,MacIntel,59.99160118,,,,,,,,,,,,1.0648,1,,,,,,,,,,,,,,,,,,,,,,,,0.799763726,-0.099885932,0,0,0,,,,,,,TORCH,C,m,y,./images/TORCH.png,,,,,,,,,,,,,,,,,,,,m,1,1.0648,,,,,,,,0,101,101,68,1
,,,,,,,,,,,,,,,,,5c3b8c426949490001a56400,34,2022-02-12_17h12.20.825,lexical_decision_task_DD_L2,2021.2.3,MacIntel,59.99160118,,,,,,,,,,,,1.0854,1,,,,,,,,,,,,,,,,,,,,,,,,0.799763726,-0.099885932,0,0,0,,,,,,,VALLEY,C,z,y,./images/VALLEY.png,,,,,,,,,,,,,,,,,,,,z,1,1.0854,,,,,,,,0,102,102,152,1
,,,,,,,,,,,,,,,,,5c3b8c426949490001a56400,34,2022-02-12_17h12.20.825,lexical_decision_task_DD_L2,2021.2.3,MacIntel,59.99160118,,,,,,,,,,,,1.2417,0,,,,,,,,,,,,,,,,,,,,,,,,0.799763726,-0.099885932,0,0,0,,,,,,,MOOSE,HB,m,y,./images/MOOSEHB.png,,,,,,,,,,,,,,,,,,,,z,0,1.2417,,,,,,,,0,103,103,57,1
,,,,,,,,,,,,,,,,,5c3b8c426949490001a56400,34,2022-02-12_17h12.20.825,lexical_decision_task_DD_L2,2021.2.3,MacIntel,59.99160118,,,,,,,,,,,,0.9699,1,,,,,,,,,,,,,,,,,,,,,,,,0.799763726,-0.099885932,0,0,0,,,,,,,BARREL,C,m,y,./images/BARREL.png,,,,,,,,,,,,,,,,,,,,m,1,0.9699,,,,,,,,0,104,104,32,1
,,,,,,,,,,,,,,,,,5c3b8c426949490001a56400,34,2022-02-12_17h12.20.825,lexical_decision_task_DD_L2,2021.2.3,MacIntel,59.99160118,,,,,,,,,,,,1.0037,0,,,,,,,,,,,,,,,,,,,,,,,,0.799763726,-0.099885932,0,0,0,,,,,,,KIDNEY,HB,m,y,./images/KIDNEYHB.png,,,,,,,,,,,,,,,,,,,,z,0,1.0037,,,,,,,,0,105,105,21,1
,,,,,,,,,,,,,,,,,5c3b8c426949490001a56400,34,2022-02-12_17h12.20.825,lexical_decision_task_DD_L2,2021.2.3,MacIntel,59.99160118,,,,,,,,,,,,1.0418,1,,,,,,,,,,,,,,,,,,,,,,,,0.799763726,-0.099885932,0,0,0,,,,,,,RHINO,HB,m,y,./images/RHINOHB.png,,,,,,,,,,,,,,,,,,,,m,1,1.0418,,,,,,,,0,106,106,9,1
,,,,,,,,,,,,,,,,,5c3b8c426949490001a56400,34,2022-02-12_17h12.20.825,lexical_decision_task_DD_L2,2021.2.3,MacIntel,59.99160118,,,,,,,,,,,,0.9276,0,,,,,,,,,,,,,,,,,,,,,,,,0.799763726,-0.099885932,0,0,0,,,,,,,BOILER,HB,z,y,./images/BOILERHB.png,,,,,,,,,,,,,,,,,,,,m,0,0.9276,,,,,,,,0,107,107,120,1
,,,,,,,,,,,,,,,,,5c3b8c426949490001a56400,34,2022-02-12_17h12.20.825,lexical_decision_task_DD_L2,2021.2.3,MacIntel,59.99160118,,,,,,,,,,,,1.0227,1,,,,,,,,,,,,,,,,,,,,,,,,0.799763726,-0.099885932,0,0,0,,,,,,,CLOUD,C,z,y,./images/CLOUD.png,,,,,,,,,,,,,,,,,,,,z,1,1.0227,,,,,,,,0,108,108,110,1
,,,,,,,,,,,,,,,,,5c3b8c426949490001a56400,34,2022-02-12_17h12.20.825,lexical_decision_task_DD_L2,2021.2.3,MacIntel,59.99160118,,,,,,,,,,,,4.4301,1,,,,,,,,,,,,,,,,,,,,,,,,0.799763726,-0.099885932,0,0,0,,,,,,,PISTOL,C,z,y,./images/PISTOL.png,,,,,,,,,,,,,,,,,,,,z,1,4.4301,,,,,,,,0,109,109,113,1
,,,,,,,,,,,,,,,,,5c3b8c426949490001a56400,34,2022-02-12_17h12.20.825,lexical_decision_task_DD_L2,2021.2.3,MacIntel,59.99160118,,,,,,,,,,,,1.1655,0,,,,,,,,,,,,,,,,,,,,,,,,0.799763726,-0.099885932,0,0,0,,,,,,,SQUARE,HB,m,y,./images/SQUAREHB.png,,,,,,,,,,,,,,,,,,,,z,0,1.1655,,,,,,,,0,110,110,6,1
,,,,,,,,,,,,,,,,,5c3b8c426949490001a56400,34,2022-02-12_17h12.20.825,lexical_decision_task_DD_L2,2021.2.3,MacIntel,59.99160118,,,,,,,,,,,,1.2419,1,,,,,,,,,,,,,,,,,,,,,,,,0.799763726,-0.099885932,0,0,0,,,,,,,WHISKY,C,z,y,./images/WHISKY.png,,,,,,,,,,,,,,,,,,,,z,1,1.2419,,,,,,,,0,111,111,167,1
,,,,,,,,,,,,,,,,,5c3b8c426949490001a56400,34,2022-02-12_17h12.20.825,lexical_decision_task_DD_L2,2021.2.3,MacIntel,59.99160118,,,,,,,,,,,,1.7706,0,,,,,,,,,,,,,,,,,,,,,,,,0.799763726,-0.099885932,0,0,0,,,,,,,FLASK,HB,z,y,./images/FLASKHB.png,,,,,,,,,,,,,,,,,,,,m,0,1.7706,,,,,,,,0,112,112,156,1
,,,,,,,,,,,,,,,,,5c3b8c426949490001a56400,34,2022-02-12_17h12.20.825,lexical_decision_task_DD_L2,2021.2.3,MacIntel,59.99160118,,,,,,,,,,,,3.4014,1,,,,,,,,,,,,,,,,,,,,,,,,0.799763726,-0.099885932,0,0,0,,,,,,,PLANK,LB,m,y,./images/PLANKLB.png,,,,,,,,,,,,,,,,,,,,m,1,3.4014,,,,,,,,0,113,113,1,1
,,,,,,,,,,,,,,,,,5c3b8c426949490001a56400,34,2022-02-12_17h12.20.825,lexical_decision_task_DD_L2,2021.2.3,MacIntel,59.99160118,,,,,,,,,,,,1.1203,1,,,,,,,,,,,,,,,,,,,,,,,,0.799763726,-0.099885932,0,0,0,,,,,,,GARDEN,LB,z,y,./images/GARDENLB.png,,,,,,,,,,,,,,,,,,,,z,1,1.1203,,,,,,,,0,114,114,94,1
,,,,,,,,,,,,,,,,,5c3b8c426949490001a56400,34,2022-02-12_17h12.20.825,lexical_decision_task_DD_L2,2021.2.3,MacIntel,59.99160118,,,,,,,,,,,,3.0584,1,,,,,,,,,,,,,,,,,,,,,,,,0.799763726,-0.099885932,0,0,0,,,,,,,KITTEN,HB,m,y,./images/KITTENHB.png,,,,,,,,,,,,,,,,,,,,m,1,3.0584,,,,,,,,0,115,115,45,1
,,,,,,,,,,,,,,,,,5c3b8c426949490001a56400,34,2022-02-12_17h12.20.825,lexical_decision_task_DD_L2,2021.2.3,MacIntel,59.99160118,,,,,,,,,,,,0.9856,0,,,,,,,,,,,,,,,,,,,,,,,,0.799763726,-0.099885932,0,0,0,,,,,,,MALLET,C,m,y,./images/MALLET.png,,,,,,,,,,,,,,,,,,,,z,0,0.9856,,,,,,,,0,116,116,50,1
,,,,,,,,,,,,,,,,,5c3b8c426949490001a56400,34,2022-02-12_17h12.20.825,lexical_decision_task_DD_L2,2021.2.3,MacIntel,59.99160118,,,,,,,,,,,,2.0655,1,,,,,,,,,,,,,,,,,,,,,,,,0.799763726,-0.099885932,0,0,0,,,,,,,CLIFF,C,z,y,./images/CLIFF.png,,,,,,,,,,,,,,,,,,,,z,1,2.0655,,,,,,,,0,117,117,92,1
,,,,,,,,,,,,,,,,,5c3b8c426949490001a56400,34,2022-02-12_17h12.20.825,lexical_decision_task_DD_L2,2021.2.3,MacIntel,59.99160118,,,,,,,,,,,,1.2231,1,,,,,,,,,,,,,,,,,,,,,,,,0.799763726,-0.099885932,0,0,0,,,,,,,CANOE,LB,z,y,./images/CANOELB.png,,,,,,,,,,,,,,,,,,,,z,1,1.2231,,,,,,,,0,118,118,142,1
,,,,,,,,,,,,,,,,,5c3b8c426949490001a56400,34,2022-02-12_17h12.20.825,lexical_decision_task_DD_L2,2021.2.3,MacIntel,59.99160118,,,,,,,,,,,,1.1765,1,,,,,,,,,,,,,,,,,,,,,,,,0.799763726,-0.099885932,0,0,0,,,,,,,CRUST,LB,m,y,./images/CRUSTLB.png,,,,,,,,,,,,,,,,,,,,m,1,1.1765,,,,,,,,0,119,119,79,1
,,,,,,,,,,,,,,,,,5c3b8c426949490001a56400,34,2022-02-12_17h12.20.825,lexical_decision_task_DD_L2,2021.2.3,MacIntel,59.99160118,,,,,,,,,,,,1.166,1,,,,,,,,,,,,,,,,,,,,,,,,0.799763726,-0.099885932,0,0,0,,,,,,,BANNER,LB,m,y,./images/BANNERLB.png,,,,,,,,,,,,,,,,,,,,m,1,1.166,,,,,,,,0,120,120,52,1
,,,,,,,,,,,,,,,,,5c3b8c426949490001a56400,34,2022-02-12_17h12.20.825,lexical_decision_task_DD_L2,2021.2.3,MacIntel,59.99160118,,,,,,,,,,,,1.208,1,,,,,,,,,,,,,,,,,,,,,,,,0.799763726,-0.099885932,0,0,0,,,,,,,COLLAR,HB,z,y,./images/COLLARHB.png,,,,,,,,,,,,,,,,,,,,z,1,1.208,,,,,,,,0,121,121,99,1
,,,,,,,,,,,,,,,,,5c3b8c426949490001a56400,34,2022-02-12_17h12.20.825,lexical_decision_task_DD_L2,2021.2.3,MacIntel,59.99160118,,,,,,,,,,,,0.9874,0,,,,,,,,,,,,,,,,,,,,,,,,0.799763726,-0.099885932,0,0,0,,,,,,,DIVER,HB,z,y,./images/DIVERHB.png,,,,,,,,,,,,,,,,,,,,m,0,0.9874,,,,,,,,0,122,122,93,1
,,,,,,,,,,,,,,,,,5c3b8c426949490001a56400,34,2022-02-12_17h12.20.825,lexical_decision_task_DD_L2,2021.2.3,MacIntel,59.99160118,,,,,,,,,,,,1.3218,0,,,,,,,,,,,,,,,,,,,,,,,,0.799763726,-0.099885932,0,0,0,,,,,,,BUBBLE,C,z,y,./images/BUBBLE.png,,,,,,,,,,,,,,,,,,,,m,0,1.3218,,,,,,,,0,123,123,155,1
,,,,,,,,,,,,,,,,,5c3b8c426949490001a56400,34,2022-02-12_17h12.20.825,lexical_decision_task_DD_L2,2021.2.3,MacIntel,59.99160118,,,,,,,,,,,,1.1447,0,,,,,,,,,,,,,,,,,,,,,,,,0.799763726,-0.099885932,0,0,0,,,,,,,MIRROR,HB,m,y,./images/MIRRORHB.png,,,,,,,,,,,,,,,,,,,,z,0,1.1447,,,,,,,,0,124,124,63,1
,,,,,,,,,,,,,,,,,5c3b8c426949490001a56400,34,2022-02-12_17h12.20.825,lexical_decision_task_DD_L2,2021.2.3,MacIntel,59.99160118,,,,,,,,,,,,1.3357,1,,,,,,,,,,,,,,,,,,,,,,,,0.799763726,-0.099885932,0,0,0,space,,,,,,BUNNY,LB,z,y,./images/BUNNYLB.png,2.4153,,,,,,,,,,,,,,,,,,,z,1,1.3357,,,,,,,,0,125,125,97,1
,,,,,,,,,,,,,,,,,5c3b8c426949490001a56400,34,2022-02-12_17h12.20.825,lexical_decision_task_DD_L2,2021.2.3,MacIntel,59.99160118,,,,,,,,,,,,1.3289,1,,,,,,,,,,,,,,,,,,,,,,,,0.799763726,-0.099885932,0,0,0,,,,,,,PAINT,LB,m,y,./images/PAINTLB.png,,,,,,,,,,,,,,,,,,,,m,1,1.3289,,,,,,,,0,126,126,7,1
,,,,,,,,,,,,,,,,,5c3b8c426949490001a56400,34,2022-02-12_17h12.20.825,lexical_decision_task_DD_L2,2021.2.3,MacIntel,59.99160118,,,,,,,,,,,,1.5356,1,,,,,,,,,,,,,,,,,,,,,,,,0.799763726,-0.099885932,0,0,0,,,,,,,BUTTER,HB,z,y,./images/BUTTERHB.png,,,,,,,,,,,,,,,,,,,,z,1,1.5356,,,,,,,,0,127,127,111,1
