key_resp.keys,key_resp.rt,instr_done_touch.x,instr_done_touch.y,instr_done_touch.leftButton,instr_done_touch.midButton,instr_done_touch.rightButton,instruction_pages.thisRepN,instruction_pages.thisTrialN,instruction_pages.thisN,instruction_pages.thisIndex,instruction_pages.ran,pageN,phase,instruct_text,has_image,instruct_image,participant,age,date,expName,psychopyVersion,OS,frameRate,instr_done_touch.clicked_name,response.keys,response.corr,response.rt,touch_resp.x,touch_resp.y,touch_resp.leftButton,touch_resp.midButton,touch_resp.rightButton,touch_resp.time,touch_resp.clicked_name,rt,corr,practrials.thisRepN,practrials.thisTrialN,practrials.thisN,practrials.thisIndex,practrials.ran,TrialID,Target,corrAns,end_of_practice_trials_pages.thisRepN,end_of_practice_trials_pages.thisTrialN,end_of_practice_trials_pages.thisN,end_of_practice_trials_pages.thisIndex,end_of_practice_trials_pages.ran,key_resp_2.keys,key_resp_2.corr,key_resp_2.rt,targ_click.x,targ_click.y,targ_click.leftButton,targ_click.midButton,targ_click.rightButton,targ_click.time,targ_click.clicked_name,break_done_touch.x,break_done_touch.y,break_done_touch.leftButton,break_done_touch.midButton,break_done_touch.rightButton,break_done_keyboard.keys,maintrials.thisRepN,maintrials.thisTrialN,maintrials.thisN,maintrials.thisIndex,maintrials.ran,string,blur,study,lex,stim_path,break_done_keyboard.rt,mouse_2.x,mouse_2.y,mouse_2.leftButton,mouse_2.midButton,mouse_2.rightButton,mouse_2.clicked_name,slider.response,slider.rt,trials.thisRepN,trials.thisTrialN,trials.thisN,trials.thisIndex,trials.ran,test_instructions.thisRepN,test_instructions.thisTrialN,test_instructions.thisN,test_instructions.thisIndex,test_instructions.ran,key_resp_3.keys,key_resp_3.corr,key_resp_3.rt,test_click.x,test_click.y,test_click.leftButton,test_click.midButton,test_click.rightButton,test_click.time,test_click.clicked_name,test_phase.thisRepN,test_phase.thisTrialN,test_phase.thisN,test_phase.thisIndex,test_phase.ran
space,20.439,-0.108333322,-0.206481492,0,0,0,0,0,0,0,1,1,instructions,"INSTRUCTIONS
At the start of each trial, look at the plus sign  (+) in the center of the screen.  This tells you that a trial is about to begin and where to look. Second, the plus sign will disappear and a string of letters will appear. Your task is to determine if the string of letters is a word or not. If the item is a word press the M key (on keyboard)  or touch the word button (phone/tablet).  If the item is not a word,  press the  Z key (on keyboard)  or touch the nonword button (on phone/tablet). 
Press the space bar or touch  continue.",0,,5d3f6bd087ee2600012908b1,21,2022-02-12_17h19.01.902,lexical_decision_task_DD_L2,2021.2.3,Win32,59.75500448,,,,,,,,,,,,,,,,,,,,,,,,,,,,,,,,,,,,,,,,,,,,,,,,,,,,,,,,,,,,,,,,,,,,,,,,,,,,,,,,,,,,,,
space,7.8503,-0.108333322,-0.206481492,0,0,0,0,1,1,1,1,2,instructions,"If your device has a keyboard, press the 'Z' key for nonwords and the 'M' key for words.





Press the space bar or touch the button below to continue.",0,keyboard-example.gif,5d3f6bd087ee2600012908b1,21,2022-02-12_17h19.01.902,lexical_decision_task_DD_L2,2021.2.3,Win32,59.75500448,,,,,,,,,,,,,,,,,,,,,,,,,,,,,,,,,,,,,,,,,,,,,,,,,,,,,,,,,,,,,,,,,,,,,,,,,,,,,,,,,,,,,,
,,0.069444459,-0.38703705,1,0,0,0,2,2,2,1,3,instructions,"If you are using a touchscreen only device, use the buttons on the screen. Do not use the mouse.





Press the space bar or touch the button below to continue.",0,touchscreen-example.gif,5d3f6bd087ee2600012908b1,21,2022-02-12_17h19.01.902,lexical_decision_task_DD_L2,2021.2.3,Win32,59.75500448,instr_done_button,,,,,,,,,,,,,,,,,,,,,,,,,,,,,,,,,,,,,,,,,,,,,,,,,,,,,,,,,,,,,,,,,,,,,,,,,,,,,,,,,,,,,
space,3.4879,0.069444459,-0.38703705,0,0,0,0,3,3,3,1,4,instructions,"It is very important that you respond as quickly and accurately as possible, as each letter string will only be on the screen for two seconds. If you do not respond within this time, the message 'Too slow!' will be displayed and the experiment will progress to the next letter string. The first 20 trials will be practice trials and you will receive feedback on your answers. 

Press the space bar or touch the button below to start the practice trials.",0,,5d3f6bd087ee2600012908b1,21,2022-02-12_17h19.01.902,lexical_decision_task_DD_L2,2021.2.3,Win32,59.75500448,,,,,,,,,,,,,,,,,,,,,,,,,,,,,,,,,,,,,,,,,,,,,,,,,,,,,,,,,,,,,,,,,,,,,,,,,,,,,,,,,,,,,,
,,,,,,,,,,,,,,,,,5d3f6bd087ee2600012908b1,21,2022-02-12_17h19.01.902,lexical_decision_task_DD_L2,2021.2.3,Win32,59.75500448,,m,1,1.0197,,,,,,,,1.0197,1,0,0,0,0,1,1001,UTOPIA,m,,,,,,,,,,,,,,,,,,,,,,,,,,,,,,,,,,,,,,,,,,,,,,,,,,,,,,,,,,,,,,,,,
,,,,,,,,,,,,,,,,,5d3f6bd087ee2600012908b1,21,2022-02-12_17h19.01.902,lexical_decision_task_DD_L2,2021.2.3,Win32,59.75500448,,m,1,0.6148,,,,,,,,0.6148,1,0,1,1,2,1,1001,ALMOND,m,,,,,,,,,,,,,,,,,,,,,,,,,,,,,,,,,,,,,,,,,,,,,,,,,,,,,,,,,,,,,,,,,
,,,,,,,,,,,,,,,,,5d3f6bd087ee2600012908b1,21,2022-02-12_17h19.01.902,lexical_decision_task_DD_L2,2021.2.3,Win32,59.75500448,,z,1,0.6009,,,,,,,,0.6009,1,0,2,2,15,1,1001,WHAISE,z,,,,,,,,,,,,,,,,,,,,,,,,,,,,,,,,,,,,,,,,,,,,,,,,,,,,,,,,,,,,,,,,,
,,,,,,,,,,,,,,,,,5d3f6bd087ee2600012908b1,21,2022-02-12_17h19.01.902,lexical_decision_task_DD_L2,2021.2.3,Win32,59.75500448,,z,1,0.7026,,,,,,,,0.7026,1,0,3,3,10,1,1001,INLADE,z,,,,,,,,,,,,,,,,,,,,,,,,,,,,,,,,,,,,,,,,,,,,,,,,,,,,,,,,,,,,,,,,,
,,,,,,,,,,,,,,,,,5d3f6bd087ee2600012908b1,21,2022-02-12_17h19.01.902,lexical_decision_task_DD_L2,2021.2.3,Win32,59.75500448,,z,1,0.6535,,,,,,,,0.6535,1,0,4,4,14,1,1001,THRALE,z,,,,,,,,,,,,,,,,,,,,,,,,,,,,,,,,,,,,,,,,,,,,,,,,,,,,,,,,,,,,,,,,,
,,,,,,,,,,,,,,,,,5d3f6bd087ee2600012908b1,21,2022-02-12_17h19.01.902,lexical_decision_task_DD_L2,2021.2.3,Win32,59.75500448,,z,1,0.7293,,,,,,,,0.7293,1,0,5,5,13,1,1001,ROUPET,z,,,,,,,,,,,,,,,,,,,,,,,,,,,,,,,,,,,,,,,,,,,,,,,,,,,,,,,,,,,,,,,,,
,,,,,,,,,,,,,,,,,5d3f6bd087ee2600012908b1,21,2022-02-12_17h19.01.902,lexical_decision_task_DD_L2,2021.2.3,Win32,59.75500448,,z,1,0.6676,,,,,,,,0.6676,1,0,6,6,9,1,1001,FARINY,z,,,,,,,,,,,,,,,,,,,,,,,,,,,,,,,,,,,,,,,,,,,,,,,,,,,,,,,,,,,,,,,,,
,,,,,,,,,,,,,,,,,5d3f6bd087ee2600012908b1,21,2022-02-12_17h19.01.902,lexical_decision_task_DD_L2,2021.2.3,Win32,59.75500448,,z,1,0.6066,,,,,,,,0.6066,1,0,7,7,12,1,1001,SPRINY,z,,,,,,,,,,,,,,,,,,,,,,,,,,,,,,,,,,,,,,,,,,,,,,,,,,,,,,,,,,,,,,,,,
,,,,,,,,,,,,,,,,,5d3f6bd087ee2600012908b1,21,2022-02-12_17h19.01.902,lexical_decision_task_DD_L2,2021.2.3,Win32,59.75500448,,z,1,0.6784,,,,,,,,0.6784,1,0,8,8,11,1,1001,RASHET,z,,,,,,,,,,,,,,,,,,,,,,,,,,,,,,,,,,,,,,,,,,,,,,,,,,,,,,,,,,,,,,,,,
,,,,,,,,,,,,,,,,,5d3f6bd087ee2600012908b1,21,2022-02-12_17h19.01.902,lexical_decision_task_DD_L2,2021.2.3,Win32,59.75500448,,m,1,0.5129,,,,,,,,0.5129,1,0,9,9,3,1,1001,MATRIX,m,,,,,,,,,,,,,,,,,,,,,,,,,,,,,,,,,,,,,,,,,,,,,,,,,,,,,,,,,,,,,,,,,
,,,,,,,,,,,,,,,,,5d3f6bd087ee2600012908b1,21,2022-02-12_17h19.01.902,lexical_decision_task_DD_L2,2021.2.3,Win32,59.75500448,,m,1,0.503,,,,,,,,0.503,1,0,10,10,5,1,1001,OBTAIN,m,,,,,,,,,,,,,,,,,,,,,,,,,,,,,,,,,,,,,,,,,,,,,,,,,,,,,,,,,,,,,,,,,
,,,,,,,,,,,,,,,,,5d3f6bd087ee2600012908b1,21,2022-02-12_17h19.01.902,lexical_decision_task_DD_L2,2021.2.3,Win32,59.75500448,,m,1,0.4054,,,,,,,,0.4054,1,0,11,11,1,1,1001,ADJUST,m,,,,,,,,,,,,,,,,,,,,,,,,,,,,,,,,,,,,,,,,,,,,,,,,,,,,,,,,,,,,,,,,,
,,,,,,,,,,,,,,,,,5d3f6bd087ee2600012908b1,21,2022-02-12_17h19.01.902,lexical_decision_task_DD_L2,2021.2.3,Win32,59.75500448,,z,1,0.5837,,,,,,,,0.5837,1,0,12,12,8,1,1001,ASLERT,z,,,,,,,,,,,,,,,,,,,,,,,,,,,,,,,,,,,,,,,,,,,,,,,,,,,,,,,,,,,,,,,,,
,,,,,,,,,,,,,,,,,5d3f6bd087ee2600012908b1,21,2022-02-12_17h19.01.902,lexical_decision_task_DD_L2,2021.2.3,Win32,59.75500448,,m,1,0.4883,,,,,,,,0.4883,1,0,13,13,4,1,1001,SQUEAK,m,,,,,,,,,,,,,,,,,,,,,,,,,,,,,,,,,,,,,,,,,,,,,,,,,,,,,,,,,,,,,,,,,
,,,,,,,,,,,,,,,,,5d3f6bd087ee2600012908b1,21,2022-02-12_17h19.01.902,lexical_decision_task_DD_L2,2021.2.3,Win32,59.75500448,,m,1,0.5762,,,,,,,,0.5762,1,0,14,14,6,1,1001,ZOMBIE,m,,,,,,,,,,,,,,,,,,,,,,,,,,,,,,,,,,,,,,,,,,,,,,,,,,,,,,,,,,,,,,,,,
,,,,,,,,,,,,,,,,,5d3f6bd087ee2600012908b1,21,2022-02-12_17h19.01.902,lexical_decision_task_DD_L2,2021.2.3,Win32,59.75500448,,m,1,0.4555,,,,,,,,0.4555,1,0,15,15,7,1,1001,VOLUME,m,,,,,,,,,,,,,,,,,,,,,,,,,,,,,,,,,,,,,,,,,,,,,,,,,,,,,,,,,,,,,,,,,
space,27.3686,0.063888903,-0.393518532,0,0,0,,,,,,1,end_of_practice,"You have completed the practice trials. During the experimental trials, you will not receive feedback. 
Before you begin, please ensure that you are in a comfortable and quiet location and will not be disturbed for about 15 minutes, as we cannot use your data if you do not complete all the trials. 
 When you are ready to start the experimental trials, please press space or touch the button below.",,,5d3f6bd087ee2600012908b1,21,2022-02-12_17h19.01.902,lexical_decision_task_DD_L2,2021.2.3,Win32,59.75500448,,,,,,,,,,,,,,,,,,,,,,0,0,0,0,1,,,,,,,,,,,,,,,,,,,,,,,,,,,,,,,,,,,,,,,,,,,,,,,,,,,,,,,,,,,,
,,,,,,,,,,,,,,,,,5d3f6bd087ee2600012908b1,21,2022-02-12_17h19.01.902,lexical_decision_task_DD_L2,2021.2.3,Win32,59.75500448,,,,,,,,,,,,1.8694,0,,,,,,,,,,,,,,m,0,1.8694,,,,,,,,0.064814829,-0.39629631,0,0,0,,0,0,0,154,1,THINT,HB,old,z,./images/THINTHB.png,,,,,,,,,,,,,,,,,,,,,,,,,,,,,,,,,,
,,,,,,,,,,,,,,,,,5d3f6bd087ee2600012908b1,21,2022-02-12_17h19.01.902,lexical_decision_task_DD_L2,2021.2.3,Win32,59.75500448,,,,,,,,,,,,0.9167,1,,,,,,,,,,,,,,z,1,0.9167,,,,,,,,0.064814829,-0.39629631,0,0,0,,0,1,1,142,1,PLASK,HB,old,z,./images/PLASKHB.png,,,,,,,,,,,,,,,,,,,,,,,,,,,,,,,,,,
,,,,,,,,,,,,,,,,,5d3f6bd087ee2600012908b1,21,2022-02-12_17h19.01.902,lexical_decision_task_DD_L2,2021.2.3,Win32,59.75500448,,,,,,,,,,,,0.6314,1,,,,,,,,,,,,,,m,1,0.6314,,,,,,,,0.064814829,-0.39629631,0,0,0,,0,2,2,54,1,TRIPOD,HB,old,m,./images/TRIPODHB.png,,,,,,,,,,,,,,,,,,,,,,,,,,,,,,,,,,
,,,,,,,,,,,,,,,,,5d3f6bd087ee2600012908b1,21,2022-02-12_17h19.01.902,lexical_decision_task_DD_L2,2021.2.3,Win32,59.75500448,,,,,,,,,,,,0.5129,1,,,,,,,,,,,,,,m,1,0.5129,,,,,,,,0.064814829,-0.39629631,0,0,0,,0,3,3,47,1,BERRY,C,old,m,./images/BERRY.png,,,,,,,,,,,,,,,,,,,,,,,,,,,,,,,,,,
,,,,,,,,,,,,,,,,,5d3f6bd087ee2600012908b1,21,2022-02-12_17h19.01.902,lexical_decision_task_DD_L2,2021.2.3,Win32,59.75500448,,,,,,,,,,,,0.6484,1,,,,,,,,,,,,,,z,1,0.6484,,,,,,,,0.065740755,-0.39537044,0,0,0,,0,4,4,165,1,TROWN,C,old,z,./images/TROWN.png,,,,,,,,,,,,,,,,,,,,,,,,,,,,,,,,,,
,,,,,,,,,,,,,,,,,5d3f6bd087ee2600012908b1,21,2022-02-12_17h19.01.902,lexical_decision_task_DD_L2,2021.2.3,Win32,59.75500448,,,,,,,,,,,,0.6338,1,,,,,,,,,,,,,,z,1,0.6338,,,,,,,,0.065740755,-0.39537044,0,0,0,,0,5,5,153,1,CLUPS,C,old,z,./images/CLUPS.png,,,,,,,,,,,,,,,,,,,,,,,,,,,,,,,,,,
,,,,,,,,,,,,,,,,,5d3f6bd087ee2600012908b1,21,2022-02-12_17h19.01.902,lexical_decision_task_DD_L2,2021.2.3,Win32,59.75500448,,,,,,,,,,,,0.5115,1,,,,,,,,,,,,,,m,1,0.5115,,,,,,,,0.065740755,-0.39537044,0,0,0,,0,6,6,2,1,BEARD,C,old,m,./images/BEARD.png,,,,,,,,,,,,,,,,,,,,,,,,,,,,,,,,,,
,,,,,,,,,,,,,,,,,5d3f6bd087ee2600012908b1,21,2022-02-12_17h19.01.902,lexical_decision_task_DD_L2,2021.2.3,Win32,59.75500448,,,,,,,,,,,,1.0346,0,,,,,,,,,,,,,,z,0,1.0346,,,,,,,,0.065740755,-0.394444458,0,0,0,,0,7,7,69,1,COOKER,HB,old,m,./images/COOKERHB.png,,,,,,,,,,,,,,,,,,,,,,,,,,,,,,,,,,
,,,,,,,,,,,,,,,,,5d3f6bd087ee2600012908b1,21,2022-02-12_17h19.01.902,lexical_decision_task_DD_L2,2021.2.3,Win32,59.75500448,,,,,,,,,,,,0.7387,1,,,,,,,,,,,,,,z,1,0.7387,,,,,,,,0.065740755,-0.394444458,0,0,0,,0,8,8,125,1,MOOKY,LB,old,z,./images/MOOKYLB.png,,,,,,,,,,,,,,,,,,,,,,,,,,,,,,,,,,
,,,,,,,,,,,,,,,,,5d3f6bd087ee2600012908b1,21,2022-02-12_17h19.01.902,lexical_decision_task_DD_L2,2021.2.3,Win32,59.75500448,,,,,,,,,,,,0.5632,1,,,,,,,,,,,,,,m,1,0.5632,,,,,,,,0.065740755,-0.392592606,0,0,0,,0,9,9,0,1,TOMATO,HB,old,m,./images/TOMATOHB.png,,,,,,,,,,,,,,,,,,,,,,,,,,,,,,,,,,
,,,,,,,,,,,,,,,,,5d3f6bd087ee2600012908b1,21,2022-02-12_17h19.01.902,lexical_decision_task_DD_L2,2021.2.3,Win32,59.75500448,,,,,,,,,,,,0.5815,1,,,,,,,,,,,,,,z,1,0.5815,,,,,,,,0.065740755,-0.392592606,0,0,0,,0,10,10,108,1,GRUET,C,old,z,./images/GRUET.png,,,,,,,,,,,,,,,,,,,,,,,,,,,,,,,,,,
,,,,,,,,,,,,,,,,,5d3f6bd087ee2600012908b1,21,2022-02-12_17h19.01.902,lexical_decision_task_DD_L2,2021.2.3,Win32,59.75500448,,,,,,,,,,,,0.5286,1,,,,,,,,,,,,,,m,1,0.5286,,,,,,,,0.065740755,-0.392592606,0,0,0,,0,11,11,4,1,MUSCLE,LB,old,m,./images/MUSCLELB.png,,,,,,,,,,,,,,,,,,,,,,,,,,,,,,,,,,
,,,,,,,,,,,,,,,,,5d3f6bd087ee2600012908b1,21,2022-02-12_17h19.01.902,lexical_decision_task_DD_L2,2021.2.3,Win32,59.75500448,,,,,,,,,,,,0.5425,1,,,,,,,,,,,,,,m,1,0.5425,,,,,,,,0.065740755,-0.392592606,0,0,0,,0,12,12,22,1,MELON,LB,old,m,./images/MELONLB.png,,,,,,,,,,,,,,,,,,,,,,,,,,,,,,,,,,
,,,,,,,,,,,,,,,,,5d3f6bd087ee2600012908b1,21,2022-02-12_17h19.01.902,lexical_decision_task_DD_L2,2021.2.3,Win32,59.75500448,,,,,,,,,,,,0.5937,1,,,,,,,,,,,,,,z,1,0.5937,,,,,,,,0.065740755,-0.392592606,0,0,0,,0,13,13,164,1,SGREW,LB,old,z,./images/SGREWLB.png,,,,,,,,,,,,,,,,,,,,,,,,,,,,,,,,,,
,,,,,,,,,,,,,,,,,5d3f6bd087ee2600012908b1,21,2022-02-12_17h19.01.902,lexical_decision_task_DD_L2,2021.2.3,Win32,59.75500448,,,,,,,,,,,,0.6324,1,,,,,,,,,,,,,,z,1,0.6324,,,,,,,,0.065740755,-0.392592606,0,0,0,,0,14,14,119,1,PAFER,LB,old,z,./images/PAFERLB.png,,,,,,,,,,,,,,,,,,,,,,,,,,,,,,,,,,
,,,,,,,,,,,,,,,,,5d3f6bd087ee2600012908b1,21,2022-02-12_17h19.01.902,lexical_decision_task_DD_L2,2021.2.3,Win32,59.75500448,,,,,,,,,,,,0.5637,1,,,,,,,,,,,,,,m,1,0.5637,,,,,,,,0.065740755,-0.392592606,0,0,0,,0,15,15,40,1,SWING,LB,old,m,./images/SWINGLB.png,,,,,,,,,,,,,,,,,,,,,,,,,,,,,,,,,,
,,,,,,,,,,,,,,,,,5d3f6bd087ee2600012908b1,21,2022-02-12_17h19.01.902,lexical_decision_task_DD_L2,2021.2.3,Win32,59.75500448,,,,,,,,,,,,0.484,1,,,,,,,,,,,,,,m,1,0.484,,,,,,,,0.065740755,-0.392592606,0,0,0,,0,16,16,28,1,FALCON,LB,old,m,./images/FALCONLB.png,,,,,,,,,,,,,,,,,,,,,,,,,,,,,,,,,,
,,,,,,,,,,,,,,,,,5d3f6bd087ee2600012908b1,21,2022-02-12_17h19.01.902,lexical_decision_task_DD_L2,2021.2.3,Win32,59.75500448,,,,,,,,,,,,0.4949,1,,,,,,,,,,,,,,m,1,0.4949,,,,,,,,0.065740755,-0.392592606,0,0,0,,0,17,17,77,1,COUCH,C,old,m,./images/COUCH.png,,,,,,,,,,,,,,,,,,,,,,,,,,,,,,,,,,
,,,,,,,,,,,,,,,,,5d3f6bd087ee2600012908b1,21,2022-02-12_17h19.01.902,lexical_decision_task_DD_L2,2021.2.3,Win32,59.75500448,,,,,,,,,,,,0.6316,1,,,,,,,,,,,,,,m,1,0.6316,,,,,,,,0.065740755,-0.394444458,0,0,0,,0,18,18,30,1,STORM,HB,old,m,./images/STORMHB.png,,,,,,,,,,,,,,,,,,,,,,,,,,,,,,,,,,
,,,,,,,,,,,,,,,,,5d3f6bd087ee2600012908b1,21,2022-02-12_17h19.01.902,lexical_decision_task_DD_L2,2021.2.3,Win32,59.75500448,,,,,,,,,,,,0.6502,1,,,,,,,,,,,,,,z,1,0.6502,,,,,,,,0.065740755,-0.389814828,0,0,0,,0,19,19,128,1,GRIFT,LB,old,z,./images/GRIFTLB.png,,,,,,,,,,,,,,,,,,,,,,,,,,,,,,,,,,
,,,,,,,,,,,,,,,,,5d3f6bd087ee2600012908b1,21,2022-02-12_17h19.01.902,lexical_decision_task_DD_L2,2021.2.3,Win32,59.75500448,,,,,,,,,,,,0.7372,1,,,,,,,,,,,,,,z,1,0.7372,,,,,,,,0.065740755,-0.39629631,0,0,0,,0,20,20,88,1,GLUSH,HB,old,z,./images/GLUSHHB.png,,,,,,,,,,,,,,,,,,,,,,,,,,,,,,,,,,
,,,,,,,,,,,,,,,,,5d3f6bd087ee2600012908b1,21,2022-02-12_17h19.01.902,lexical_decision_task_DD_L2,2021.2.3,Win32,59.75500448,,,,,,,,,,,,0.6665,1,,,,,,,,,,,,,,z,1,0.6665,,,,,,,,0.065740755,-0.39629631,0,0,0,,0,21,21,134,1,TROSS,LB,old,z,./images/TROSSLB.png,,,,,,,,,,,,,,,,,,,,,,,,,,,,,,,,,,
,,,,,,,,,,,,,,,,,5d3f6bd087ee2600012908b1,21,2022-02-12_17h19.01.902,lexical_decision_task_DD_L2,2021.2.3,Win32,59.75500448,,,,,,,,,,,,0.6888,0,,,,,,,,,,,,,,z,0,0.6888,,,,,,,,0.064814829,-0.39629631,0,0,0,,0,22,22,39,1,SHELF,HB,old,m,./images/SHELFHB.png,,,,,,,,,,,,,,,,,,,,,,,,,,,,,,,,,,
,,,,,,,,,,,,,,,,,5d3f6bd087ee2600012908b1,21,2022-02-12_17h19.01.902,lexical_decision_task_DD_L2,2021.2.3,Win32,59.75500448,,,,,,,,,,,,1.3607,1,,,,,,,,,,,,,,m,1,1.3607,,,,,,,,0.061111125,-0.401851865,0,0,0,,0,23,23,17,1,SKIING,C,old,m,./images/SKIING.png,,,,,,,,,,,,,,,,,,,,,,,,,,,,,,,,,,
,,,,,,,,,,,,,,,,,5d3f6bd087ee2600012908b1,21,2022-02-12_17h19.01.902,lexical_decision_task_DD_L2,2021.2.3,Win32,59.75500448,,,,,,,,,,,,0.5563,1,,,,,,,,,,,,,,m,1,0.5563,,,,,,,,0.063888903,-0.400925939,0,0,0,,0,24,24,52,1,BANNER,LB,old,m,./images/BANNERLB.png,,,,,,,,,,,,,,,,,,,,,,,,,,,,,,,,,,
,,,,,,,,,,,,,,,,,5d3f6bd087ee2600012908b1,21,2022-02-12_17h19.01.902,lexical_decision_task_DD_L2,2021.2.3,Win32,59.75500448,,,,,,,,,,,,0.7975,1,,,,,,,,,,,,,,m,1,0.7975,,,,,,,,0.063888903,-0.402777791,0,0,0,,0,25,25,21,1,KIDNEY,HB,old,m,./images/KIDNEYHB.png,,,,,,,,,,,,,,,,,,,,,,,,,,,,,,,,,,
,,,,,,,,,,,,,,,,,5d3f6bd087ee2600012908b1,21,2022-02-12_17h19.01.902,lexical_decision_task_DD_L2,2021.2.3,Win32,59.75500448,,,,,,,,,,,,1.0734,1,,,,,,,,,,,,,,z,1,1.0734,,,,,,,,0.063888903,-0.401851865,0,0,0,,0,26,26,139,1,BLEAR,HB,old,z,./images/BLEARHB.png,,,,,,,,,,,,,,,,,,,,,,,,,,,,,,,,,,
,,,,,,,,,,,,,,,,,5d3f6bd087ee2600012908b1,21,2022-02-12_17h19.01.902,lexical_decision_task_DD_L2,2021.2.3,Win32,59.75500448,,,,,,,,,,,,0.8581,1,,,,,,,,,,,,,,m,1,0.8581,,,,,,,,0.064814829,-0.400925939,0,0,0,,0,27,27,81,1,POODLE,HB,old,m,./images/POODLEHB.png,,,,,,,,,,,,,,,,,,,,,,,,,,,,,,,,,,
,,,,,,,,,,,,,,,,,5d3f6bd087ee2600012908b1,21,2022-02-12_17h19.01.902,lexical_decision_task_DD_L2,2021.2.3,Win32,59.75500448,,,,,,,,,,,,0.7459,1,,,,,,,,,,,,,,z,1,0.7459,,,,,,,,0.064814829,-0.400925939,0,0,0,,0,28,28,118,1,BAVEL,HB,old,z,./images/BAVELHB.png,,,,,,,,,,,,,,,,,,,,,,,,,,,,,,,,,,
,,,,,,,,,,,,,,,,,5d3f6bd087ee2600012908b1,21,2022-02-12_17h19.01.902,lexical_decision_task_DD_L2,2021.2.3,Win32,59.75500448,,,,,,,,,,,,0.8961,1,,,,,,,,,,,,,,z,1,0.8961,,,,,,,,0.063888903,-0.399074087,0,0,0,,0,29,29,157,1,INLER,HB,old,z,./images/INLERHB.png,,,,,,,,,,,,,,,,,,,,,,,,,,,,,,,,,,
,,,,,,,,,,,,,,,,,5d3f6bd087ee2600012908b1,21,2022-02-12_17h19.01.902,lexical_decision_task_DD_L2,2021.2.3,Win32,59.75500448,,,,,,,,,,,,0.6402,1,,,,,,,,,,,,,,z,1,0.6402,,,,,,,,0.063888903,-0.400925939,0,0,0,,0,30,30,113,1,LINEW,LB,old,z,./images/LINEWLB.png,,,,,,,,,,,,,,,,,,,,,,,,,,,,,,,,,,
,,,,,,,,,,,,,,,,,5d3f6bd087ee2600012908b1,21,2022-02-12_17h19.01.902,lexical_decision_task_DD_L2,2021.2.3,Win32,59.75500448,,,,,,,,,,,,0.5796,1,,,,,,,,,,,,,,z,1,0.5796,,,,,,,,0.064814829,-0.400925939,0,0,0,,0,31,31,131,1,NACES,LB,old,z,./images/NACESLB.png,,,,,,,,,,,,,,,,,,,,,,,,,,,,,,,,,,
,,,,,,,,,,,,,,,,,5d3f6bd087ee2600012908b1,21,2022-02-12_17h19.01.902,lexical_decision_task_DD_L2,2021.2.3,Win32,59.75500448,,,,,,,,,,,,1.3288,1,,,,,,,,,,,,,,z,1,1.3288,,,,,,,,0.064814829,-0.402777791,0,0,0,,0,32,32,94,1,BLANS,HB,old,z,./images/BLANSHB.png,,,,,,,,,,,,,,,,,,,,,,,,,,,,,,,,,,
,,,,,,,,,,,,,,,,,5d3f6bd087ee2600012908b1,21,2022-02-12_17h19.01.902,lexical_decision_task_DD_L2,2021.2.3,Win32,59.75500448,,,,,,,,,,,,0.7148,1,,,,,,,,,,,,,,m,1,0.7148,,,,,,,,0.064814829,-0.402777791,0,0,0,,0,33,33,56,1,PACKET,C,old,m,./images/PACKET.png,,,,,,,,,,,,,,,,,,,,,,,,,,,,,,,,,,
,,,,,,,,,,,,,,,,,5d3f6bd087ee2600012908b1,21,2022-02-12_17h19.01.902,lexical_decision_task_DD_L2,2021.2.3,Win32,59.75500448,,,,,,,,,,,,0.5673,1,,,,,,,,,,,,,,m,1,0.5673,,,,,,,,0.064814829,-0.402777791,0,0,0,,0,34,34,49,1,DRUMS,LB,old,m,./images/DRUMSLB.png,,,,,,,,,,,,,,,,,,,,,,,,,,,,,,,,,,
,,,,,,,,,,,,,,,,,5d3f6bd087ee2600012908b1,21,2022-02-12_17h19.01.902,lexical_decision_task_DD_L2,2021.2.3,Win32,59.75500448,,,,,,,,,,,,0.562,1,,,,,,,,,,,,,,m,1,0.562,,,,,,,,0.063888903,-0.405555569,0,0,0,,0,35,35,61,1,CANDLE,LB,old,m,./images/CANDLELB.png,,,,,,,,,,,,,,,,,,,,,,,,,,,,,,,,,,
,,,,,,,,,,,,,,,,,5d3f6bd087ee2600012908b1,21,2022-02-12_17h19.01.902,lexical_decision_task_DD_L2,2021.2.3,Win32,59.75500448,,,,,,,,,,,,0.5849,1,,,,,,,,,,,,,,z,1,0.5849,,,,,,,,0.062037051,-0.409259329,0,0,0,,0,36,36,101,1,GLEET,LB,old,z,./images/GLEETLB.png,,,,,,,,,,,,,,,,,,,,,,,,,,,,,,,,,,
,,,,,,,,,,,,,,,,,5d3f6bd087ee2600012908b1,21,2022-02-12_17h19.01.902,lexical_decision_task_DD_L2,2021.2.3,Win32,59.75500448,,,,,,,,,,,,0.4776,1,,,,,,,,,,,,,,m,1,0.4776,,,,,,,,0.064814829,-0.403703717,0,0,0,,0,37,37,53,1,CARPET,C,old,m,./images/CARPET.png,,,,,,,,,,,,,,,,,,,,,,,,,,,,,,,,,,
,,,,,,,,,,,,,,,,,5d3f6bd087ee2600012908b1,21,2022-02-12_17h19.01.902,lexical_decision_task_DD_L2,2021.2.3,Win32,59.75500448,,,,,,,,,,,,0.732,1,,,,,,,,,,,,,,z,1,0.732,,,,,,,,0.060185199,-0.413888959,0,0,0,,0,38,38,100,1,DRIBS,HB,old,z,./images/DRIBSHB.png,,,,,,,,,,,,,,,,,,,,,,,,,,,,,,,,,,
,,,,,,,,,,,,,,,,,5d3f6bd087ee2600012908b1,21,2022-02-12_17h19.01.902,lexical_decision_task_DD_L2,2021.2.3,Win32,59.75500448,,,,,,,,,,,,0.7798,1,,,,,,,,,,,,,,z,1,0.7798,,,,,,,,0.059259273,-0.412037051,0,0,0,,0,39,39,91,1,SHENS,HB,old,z,./images/SHENSHB.png,,,,,,,,,,,,,,,,,,,,,,,,,,,,,,,,,,
,,,,,,,,,,,,,,,,,5d3f6bd087ee2600012908b1,21,2022-02-12_17h19.01.902,lexical_decision_task_DD_L2,2021.2.3,Win32,59.75500448,,,,,,,,,,,,0.5872,1,,,,,,,,,,,,,,m,1,0.5872,,,,,,,,0.060185199,-0.412962977,0,0,0,,0,40,40,51,1,ONION,HB,old,m,./images/ONIONHB.png,,,,,,,,,,,,,,,,,,,,,,,,,,,,,,,,,,
,,,,,,,,,,,,,,,,,5d3f6bd087ee2600012908b1,21,2022-02-12_17h19.01.902,lexical_decision_task_DD_L2,2021.2.3,Win32,59.75500448,,,,,,,,,,,,0.5543,1,,,,,,,,,,,,,,z,1,0.5543,,,,,,,,0.053703718,-0.436111125,0,0,0,space,0,41,41,114,1,RIKES,C,old,z,./images/RIKES.png,11.5737,,,,,,,,,,,,,,,,,,,,,,,,,,,,,,,,,
,,,,,,,,,,,,,,,,,5d3f6bd087ee2600012908b1,21,2022-02-12_17h19.01.902,lexical_decision_task_DD_L2,2021.2.3,Win32,59.75500448,,,,,,,,,,,,0.5955,1,,,,,,,,,,,,,,m,1,0.5955,,,,,,,,0.05555557,-0.436111125,0,0,0,,0,42,42,31,1,QUILL,LB,old,m,./images/QUILLLB.png,,,,,,,,,,,,,,,,,,,,,,,,,,,,,,,,,,
,,,,,,,,,,,,,,,,,5d3f6bd087ee2600012908b1,21,2022-02-12_17h19.01.902,lexical_decision_task_DD_L2,2021.2.3,Win32,59.75500448,,,,,,,,,,,,0.4386,1,,,,,,,,,,,,,,m,1,0.4386,,,,,,,,0.058333347,-0.429629643,0,0,0,,0,43,43,64,1,JELLY,LB,old,m,./images/JELLYLB.png,,,,,,,,,,,,,,,,,,,,,,,,,,,,,,,,,,
,,,,,,,,,,,,,,,,,5d3f6bd087ee2600012908b1,21,2022-02-12_17h19.01.902,lexical_decision_task_DD_L2,2021.2.3,Win32,59.75500448,,,,,,,,,,,,0.6029,1,,,,,,,,,,,,,,z,1,0.6029,,,,,,,,0.058333347,-0.430555569,0,0,0,,0,44,44,96,1,KEAMS,C,old,z,./images/KEAMS.png,,,,,,,,,,,,,,,,,,,,,,,,,,,,,,,,,,
,,,,,,,,,,,,,,,,,5d3f6bd087ee2600012908b1,21,2022-02-12_17h19.01.902,lexical_decision_task_DD_L2,2021.2.3,Win32,59.75500448,,,,,,,,,,,,0.5314,1,,,,,,,,,,,,,,z,1,0.5314,,,,,,,,0.058333347,-0.430555569,0,0,0,,0,45,45,126,1,GUELS,C,old,z,./images/GUELS.png,,,,,,,,,,,,,,,,,,,,,,,,,,,,,,,,,,
,,,,,,,,,,,,,,,,,5d3f6bd087ee2600012908b1,21,2022-02-12_17h19.01.902,lexical_decision_task_DD_L2,2021.2.3,Win32,59.75500448,,,,,,,,,,,,0.4976,1,,,,,,,,,,,,,,m,1,0.4976,,,,,,,,0.058333347,-0.430555569,0,0,0,,0,46,46,60,1,TWINS,HB,old,m,./images/TWINSHB.png,,,,,,,,,,,,,,,,,,,,,,,,,,,,,,,,,,
,,,,,,,,,,,,,,,,,5d3f6bd087ee2600012908b1,21,2022-02-12_17h19.01.902,lexical_decision_task_DD_L2,2021.2.3,Win32,59.75500448,,,,,,,,,,,,0.6021,1,,,,,,,,,,,,,,m,1,0.6021,,,,,,,,0.058333347,-0.430555569,0,0,0,,0,47,47,18,1,JAGUAR,HB,old,m,./images/JAGUARHB.png,,,,,,,,,,,,,,,,,,,,,,,,,,,,,,,,,,
,,,,,,,,,,,,,,,,,5d3f6bd087ee2600012908b1,21,2022-02-12_17h19.01.902,lexical_decision_task_DD_L2,2021.2.3,Win32,59.75500448,,,,,,,,,,,,0.6389,1,,,,,,,,,,,,,,z,1,0.6389,,,,,,,,0.058333347,-0.430555569,0,0,0,,0,48,48,107,1,FASKS,LB,old,z,./images/FASKSLB.png,,,,,,,,,,,,,,,,,,,,,,,,,,,,,,,,,,
,,,,,,,,,,,,,,,,,5d3f6bd087ee2600012908b1,21,2022-02-12_17h19.01.902,lexical_decision_task_DD_L2,2021.2.3,Win32,59.75500448,,,,,,,,,,,,0.5037,1,,,,,,,,,,,,,,m,1,0.5037,,,,,,,,0.05555557,-0.442592607,0,0,0,,0,49,49,65,1,FARMER,C,old,m,./images/FARMER.png,,,,,,,,,,,,,,,,,,,,,,,,,,,,,,,,,,
,,,,,,,,,,,,,,,,,5d3f6bd087ee2600012908b1,21,2022-02-12_17h19.01.902,lexical_decision_task_DD_L2,2021.2.3,Win32,59.75500448,,,,,,,,,,,,0.518,1,,,,,,,,,,,,,,m,1,0.518,,,,,,,,0.054629644,-0.443518533,0,0,0,,0,50,50,10,1,BELLY,LB,old,m,./images/BELLYLB.png,,,,,,,,,,,,,,,,,,,,,,,,,,,,,,,,,,
,,,,,,,,,,,,,,,,,5d3f6bd087ee2600012908b1,21,2022-02-12_17h19.01.902,lexical_decision_task_DD_L2,2021.2.3,Win32,59.75500448,,,,,,,,,,,,2.4206,0,,,,,,,,,,,,,,z,0,2.4206,,,,,,,,0.057407478,-0.444444459,0,0,0,,0,51,51,33,1,MAGGOT,HB,old,m,./images/MAGGOTHB.png,,,,,,,,,,,,,,,,,,,,,,,,,,,,,,,,,,
,,,,,,,,,,,,,,,,,5d3f6bd087ee2600012908b1,21,2022-02-12_17h19.01.902,lexical_decision_task_DD_L2,2021.2.3,Win32,59.75500448,,,,,,,,,,,,0.5622,1,,,,,,,,,,,,,,m,1,0.5622,,,,,,,,0.056481496,-0.447222236,0,0,0,,0,52,52,75,1,GRAIN,HB,old,m,./images/GRAINHB.png,,,,,,,,,,,,,,,,,,,,,,,,,,,,,,,,,,
,,,,,,,,,,,,,,,,,5d3f6bd087ee2600012908b1,21,2022-02-12_17h19.01.902,lexical_decision_task_DD_L2,2021.2.3,Win32,59.75500448,,,,,,,,,,,,0.7788,1,,,,,,,,,,,,,,m,1,0.7788,,,,,,,,0.058333347,-0.447222236,0,0,0,,0,53,53,12,1,SHORE,HB,old,m,./images/SHOREHB.png,,,,,,,,,,,,,,,,,,,,,,,,,,,,,,,,,,
,,,,,,,,,,,,,,,,,5d3f6bd087ee2600012908b1,21,2022-02-12_17h19.01.902,lexical_decision_task_DD_L2,2021.2.3,Win32,59.75500448,,,,,,,,,,,,0.686,1,,,,,,,,,,,,,,z,1,0.686,,,,,,,,0.058333347,-0.447222236,0,0,0,,0,54,54,104,1,GITTY,LB,old,z,./images/GITTYLB.png,,,,,,,,,,,,,,,,,,,,,,,,,,,,,,,,,,
,,,,,,,,,,,,,,,,,5d3f6bd087ee2600012908b1,21,2022-02-12_17h19.01.902,lexical_decision_task_DD_L2,2021.2.3,Win32,59.75500448,,,,,,,,,,,,1.236,1,,,,,,,,,,,,,,z,1,1.236,,,,,,,,0.059259273,-0.445370384,0,0,0,,0,55,55,163,1,GAMBA,HB,old,z,./images/GAMBAHB.png,,,,,,,,,,,,,,,,,,,,,,,,,,,,,,,,,,
,,,,,,,,,,,,,,,,,5d3f6bd087ee2600012908b1,21,2022-02-12_17h19.01.902,lexical_decision_task_DD_L2,2021.2.3,Win32,59.75500448,,,,,,,,,,,,0.6623,1,,,,,,,,,,,,,,z,1,0.6623,,,,,,,,0.057407478,-0.447222236,0,0,0,,0,56,56,152,1,FRAIN,LB,old,z,./images/FRAINLB.png,,,,,,,,,,,,,,,,,,,,,,,,,,,,,,,,,,
,,,,,,,,,,,,,,,,,5d3f6bd087ee2600012908b1,21,2022-02-12_17h19.01.902,lexical_decision_task_DD_L2,2021.2.3,Win32,59.75500448,,,,,,,,,,,,1.654,0,,,,,,,,,,,,,,m,0,1.654,,,,,,,,0.05555557,-0.45555557,0,0,0,,0,57,57,97,1,CHIDS,HB,old,z,./images/CHIDSHB.png,,,,,,,,,,,,,,,,,,,,,,,,,,,,,,,,,,
,,,,,,,,,,,,,,,,,5d3f6bd087ee2600012908b1,21,2022-02-12_17h19.01.902,lexical_decision_task_DD_L2,2021.2.3,Win32,59.75500448,,,,,,,,,,,,0.4872,1,,,,,,,,,,,,,,m,1,0.4872,,,,,,,,0.05555557,-0.456481496,0,0,0,,0,58,58,37,1,BIRTH,LB,old,m,./images/BIRTHLB.png,,,,,,,,,,,,,,,,,,,,,,,,,,,,,,,,,,
,,,,,,,,,,,,,,,,,5d3f6bd087ee2600012908b1,21,2022-02-12_17h19.01.902,lexical_decision_task_DD_L2,2021.2.3,Win32,59.75500448,,,,,,,,,,,,0.748,1,,,,,,,,,,,,,,m,1,0.748,,,,,,,,0.053703718,-0.461111125,0,0,0,,0,59,59,25,1,WRIST,LB,old,m,./images/WRISTLB.png,,,,,,,,,,,,,,,,,,,,,,,,,,,,,,,,,,
,,,,,,,,,,,,,,,,,5d3f6bd087ee2600012908b1,21,2022-02-12_17h19.01.902,lexical_decision_task_DD_L2,2021.2.3,Win32,59.75500448,,,,,,,,,,,,0.5599,1,,,,,,,,,,,,,,m,1,0.5599,,,,,,,,0.054629644,-0.462962977,0,0,0,,0,60,60,26,1,SMOKER,C,old,m,./images/SMOKER.png,,,,,,,,,,,,,,,,,,,,,,,,,,,,,,,,,,
,,,,,,,,,,,,,,,,,5d3f6bd087ee2600012908b1,21,2022-02-12_17h19.01.902,lexical_decision_task_DD_L2,2021.2.3,Win32,59.75500448,,,,,,,,,,,,0.4614,1,,,,,,,,,,,,,,m,1,0.4614,,,,,,,,0.05555557,-0.461111125,0,0,0,,0,61,61,35,1,PEACH,C,old,m,./images/PEACH.png,,,,,,,,,,,,,,,,,,,,,,,,,,,,,,,,,,
,,,,,,,,,,,,,,,,,5d3f6bd087ee2600012908b1,21,2022-02-12_17h19.01.902,lexical_decision_task_DD_L2,2021.2.3,Win32,59.75500448,,,,,,,,,,,,0.6301,1,,,,,,,,,,,,,,z,1,0.6301,,,,,,,,0.05555557,-0.466666681,0,0,0,,0,62,62,155,1,CANGY,LB,old,z,./images/CANGYLB.png,,,,,,,,,,,,,,,,,,,,,,,,,,,,,,,,,,
,,,,,,,,,,,,,,,,,5d3f6bd087ee2600012908b1,21,2022-02-12_17h19.01.902,lexical_decision_task_DD_L2,2021.2.3,Win32,59.75500448,,,,,,,,,,,,0.5559,1,,,,,,,,,,,,,,z,1,0.5559,,,,,,,,0.058333347,-0.464814829,0,0,0,,0,63,63,98,1,BAMPS,LB,old,z,./images/BAMPSLB.png,,,,,,,,,,,,,,,,,,,,,,,,,,,,,,,,,,
,,,,,,,,,,,,,,,,,5d3f6bd087ee2600012908b1,21,2022-02-12_17h19.01.902,lexical_decision_task_DD_L2,2021.2.3,Win32,59.75500448,,,,,,,,,,,,0.8005,1,,,,,,,,,,,,,,z,1,0.8005,,,,,,,,0.05555557,-0.467592607,0,0,0,,0,64,64,160,1,VEETS,HB,old,z,./images/VEETSHB.png,,,,,,,,,,,,,,,,,,,,,,,,,,,,,,,,,,
,,,,,,,,,,,,,,,,,5d3f6bd087ee2600012908b1,21,2022-02-12_17h19.01.902,lexical_decision_task_DD_L2,2021.2.3,Win32,59.75500448,,,,,,,,,,,,0.58,1,,,,,,,,,,,,,,z,1,0.58,,,,,,,,0.054629644,-0.467592607,0,0,0,,0,65,65,161,1,BLAPS,LB,old,z,./images/BLAPSLB.png,,,,,,,,,,,,,,,,,,,,,,,,,,,,,,,,,,
,,,,,,,,,,,,,,,,,5d3f6bd087ee2600012908b1,21,2022-02-12_17h19.01.902,lexical_decision_task_DD_L2,2021.2.3,Win32,59.75500448,,,,,,,,,,,,0.4891,1,,,,,,,,,,,,,,m,1,0.4891,,,,,,,,0.057407478,-0.471296311,0,0,0,,0,66,66,38,1,LADDER,C,old,m,./images/LADDER.png,,,,,,,,,,,,,,,,,,,,,,,,,,,,,,,,,,
,,,,,,,,,,,,,,,,,5d3f6bd087ee2600012908b1,21,2022-02-12_17h19.01.902,lexical_decision_task_DD_L2,2021.2.3,Win32,59.75500448,,,,,,,,,,,,0.5992,1,,,,,,,,,,,,,,z,1,0.5992,,,,,,,,0.056481496,-0.473148163,0,0,0,,0,67,67,167,1,ZONET,LB,old,z,./images/ZONETLB.png,,,,,,,,,,,,,,,,,,,,,,,,,,,,,,,,,,
,,,,,,,,,,,,,,,,,5d3f6bd087ee2600012908b1,21,2022-02-12_17h19.01.902,lexical_decision_task_DD_L2,2021.2.3,Win32,59.75500448,,,,,,,,,,,,0.5693,1,,,,,,,,,,,,,,m,1,0.5693,,,,,,,,0.058333347,-0.474074089,0,0,0,,0,68,68,32,1,BARREL,C,old,m,./images/BARREL.png,,,,,,,,,,,,,,,,,,,,,,,,,,,,,,,,,,
,,,,,,,,,,,,,,,,,5d3f6bd087ee2600012908b1,21,2022-02-12_17h19.01.902,lexical_decision_task_DD_L2,2021.2.3,Win32,59.75500448,,,,,,,,,,,,0.6447,1,,,,,,,,,,,,,,z,1,0.6447,,,,,,,,0.057407478,-0.47592594,0,0,0,,0,69,69,90,1,NEAST,C,old,z,./images/NEAST.png,,,,,,,,,,,,,,,,,,,,,,,,,,,,,,,,,,
,,,,,,,,,,,,,,,,,5d3f6bd087ee2600012908b1,21,2022-02-12_17h19.01.902,lexical_decision_task_DD_L2,2021.2.3,Win32,59.75500448,,,,,,,,,,,,0.515,1,,,,,,,,,,,,,,z,1,0.515,,,,,,,,0.053703718,-0.481481496,0,0,0,,0,70,70,150,1,NOOLS,C,old,z,./images/NOOLS.png,,,,,,,,,,,,,,,,,,,,,,,,,,,,,,,,,,
,,,,,,,,,,,,,,,,,5d3f6bd087ee2600012908b1,21,2022-02-12_17h19.01.902,lexical_decision_task_DD_L2,2021.2.3,Win32,59.75500448,,,,,,,,,,,,0.5225,1,,,,,,,,,,,,,,z,1,0.5225,,,,,,,,0.05555557,-0.483333348,0,0,0,,0,71,71,143,1,MONGS,LB,old,z,./images/MONGSLB.png,,,,,,,,,,,,,,,,,,,,,,,,,,,,,,,,,,
,,,,,,,,,,,,,,,,,5d3f6bd087ee2600012908b1,21,2022-02-12_17h19.01.902,lexical_decision_task_DD_L2,2021.2.3,Win32,59.75500448,,,,,,,,,,,,1.0845,1,,,,,,,,,,,,,,z,1,1.0845,,,,,,,,0.05555557,-0.483333348,0,0,0,,0,72,72,85,1,CHULK,HB,old,z,./images/CHULKHB.png,,,,,,,,,,,,,,,,,,,,,,,,,,,,,,,,,,
,,,,,,,,,,,,,,,,,5d3f6bd087ee2600012908b1,21,2022-02-12_17h19.01.902,lexical_decision_task_DD_L2,2021.2.3,Win32,59.75500448,,,,,,,,,,,,0.5568,1,,,,,,,,,,,,,,m,1,0.5568,,,,,,,,0.05555557,-0.482407422,0,0,0,,0,73,73,34,1,CANYON,LB,old,m,./images/CANYONLB.png,,,,,,,,,,,,,,,,,,,,,,,,,,,,,,,,,,
,,,,,,,,,,,,,,,,,5d3f6bd087ee2600012908b1,21,2022-02-12_17h19.01.902,lexical_decision_task_DD_L2,2021.2.3,Win32,59.75500448,,,,,,,,,,,,0.4986,1,,,,,,,,,,,,,,m,1,0.4986,,,,,,,,0.05555557,-0.482407422,0,0,0,,0,74,74,11,1,BONNET,C,old,m,./images/BONNET.png,,,,,,,,,,,,,,,,,,,,,,,,,,,,,,,,,,
,,,,,,,,,,,,,,,,,5d3f6bd087ee2600012908b1,21,2022-02-12_17h19.01.902,lexical_decision_task_DD_L2,2021.2.3,Win32,59.75500448,,,,,,,,,,,,0.6352,1,,,,,,,,,,,,,,m,1,0.6352,,,,,,,,0.057407478,-0.481481496,0,0,0,,0,75,75,50,1,MALLET,C,old,m,./images/MALLET.png,,,,,,,,,,,,,,,,,,,,,,,,,,,,,,,,,,
,,,,,,,,,,,,,,,,,5d3f6bd087ee2600012908b1,21,2022-02-12_17h19.01.902,lexical_decision_task_DD_L2,2021.2.3,Win32,59.75500448,,,,,,,,,,,,0.7165,1,,,,,,,,,,,,,,z,1,0.7165,,,,,,,,0.057407478,-0.481481496,0,0,0,,0,76,76,106,1,CLUMS,HB,old,z,./images/CLUMSHB.png,,,,,,,,,,,,,,,,,,,,,,,,,,,,,,,,,,
,,,,,,,,,,,,,,,,,5d3f6bd087ee2600012908b1,21,2022-02-12_17h19.01.902,lexical_decision_task_DD_L2,2021.2.3,Win32,59.75500448,,,,,,,,,,,,0.6946,1,,,,,,,,,,,,,,m,1,0.6946,,,,,,,,0.057407478,-0.481481496,0,0,0,,0,77,77,9,1,RHINO,HB,old,m,./images/RHINOHB.png,,,,,,,,,,,,,,,,,,,,,,,,,,,,,,,,,,
,,,,,,,,,,,,,,,,,5d3f6bd087ee2600012908b1,21,2022-02-12_17h19.01.902,lexical_decision_task_DD_L2,2021.2.3,Win32,59.75500448,,,,,,,,,,,,0.4668,1,,,,,,,,,,,,,,m,1,0.4668,,,,,,,,0.057407478,-0.481481496,0,0,0,,0,78,78,68,1,TORCH,C,old,m,./images/TORCH.png,,,,,,,,,,,,,,,,,,,,,,,,,,,,,,,,,,
,,,,,,,,,,,,,,,,,5d3f6bd087ee2600012908b1,21,2022-02-12_17h19.01.902,lexical_decision_task_DD_L2,2021.2.3,Win32,59.75500448,,,,,,,,,,,,0.6136,1,,,,,,,,,,,,,,m,1,0.6136,,,,,,,,0.057407478,-0.483333348,0,0,0,,0,79,79,70,1,URINE,LB,old,m,./images/URINELB.png,,,,,,,,,,,,,,,,,,,,,,,,,,,,,,,,,,
,,,,,,,,,,,,,,,,,5d3f6bd087ee2600012908b1,21,2022-02-12_17h19.01.902,lexical_decision_task_DD_L2,2021.2.3,Win32,59.75500448,,,,,,,,,,,,0.7381,1,,,,,,,,,,,,,,z,1,0.7381,,,,,,,,0.057407478,-0.483333348,0,0,0,,0,80,80,127,1,NINDY,HB,old,z,./images/NINDYHB.png,,,,,,,,,,,,,,,,,,,,,,,,,,,,,,,,,,
,,,,,,,,,,,,,,,,,5d3f6bd087ee2600012908b1,21,2022-02-12_17h19.01.902,lexical_decision_task_DD_L2,2021.2.3,Win32,59.75500448,,,,,,,,,,,,0.9623,1,,,,,,,,,,,,,,z,1,0.9623,,,,,,,,0.057407478,-0.482407422,0,0,0,,0,81,81,120,1,RINED,C,old,z,./images/RINED.png,,,,,,,,,,,,,,,,,,,,,,,,,,,,,,,,,,
,,,,,,,,,,,,,,,,,5d3f6bd087ee2600012908b1,21,2022-02-12_17h19.01.902,lexical_decision_task_DD_L2,2021.2.3,Win32,59.75500448,,,,,,,,,,,,0.5547,1,,,,,,,,,,,,,,m,1,0.5547,,,,,,,,0.057407478,-0.482407422,0,0,0,,0,82,82,42,1,FOLDER,HB,old,m,./images/FOLDERHB.png,,,,,,,,,,,,,,,,,,,,,,,,,,,,,,,,,,
,,,,,,,,,,,,,,,,,5d3f6bd087ee2600012908b1,21,2022-02-12_17h19.01.902,lexical_decision_task_DD_L2,2021.2.3,Win32,59.75500448,,,,,,,,,,,,1.0672,0,,,,,,,,,,,,,,m,0,1.0672,,,,,,,,0.487037058,-0.32777779,0,0,0,space,0,83,83,141,1,PLEET,C,old,z,./images/PLEET.png,97.1264,,,,,,,,,,,,,,,,,,,,,,,,,,,,,,,,,
,,,,,,,,,,,,,,,,,5d3f6bd087ee2600012908b1,21,2022-02-12_17h19.01.902,lexical_decision_task_DD_L2,2021.2.3,Win32,59.75500448,,,,,,,,,,,,0.8658,1,,,,,,,,,,,,,,z,1,0.8658,,,,,,,,0.492592613,-0.321296365,0,0,0,,0,84,84,116,1,BALGY,LB,old,z,./images/BALGYLB.png,,,,,,,,,,,,,,,,,,,,,,,,,,,,,,,,,,
,,,,,,,,,,,,,,,,,5d3f6bd087ee2600012908b1,21,2022-02-12_17h19.01.902,lexical_decision_task_DD_L2,2021.2.3,Win32,59.75500448,,,,,,,,,,,,0.5545,1,,,,,,,,,,,,,,m,1,0.5545,,,,,,,,0.491666687,-0.32314816,0,0,0,,0,85,85,8,1,TULIP,C,old,m,./images/TULIP.png,,,,,,,,,,,,,,,,,,,,,,,,,,,,,,,,,,
,,,,,,,,,,,,,,,,,5d3f6bd087ee2600012908b1,21,2022-02-12_17h19.01.902,lexical_decision_task_DD_L2,2021.2.3,Win32,59.75500448,,,,,,,,,,,,0.5846,1,,,,,,,,,,,,,,m,1,0.5846,,,,,,,,0.491666687,-0.32314816,0,0,0,,0,86,86,79,1,CRUST,LB,old,m,./images/CRUSTLB.png,,,,,,,,,,,,,,,,,,,,,,,,,,,,,,,,,,
,,,,,,,,,,,,,,,,,5d3f6bd087ee2600012908b1,21,2022-02-12_17h19.01.902,lexical_decision_task_DD_L2,2021.2.3,Win32,59.75500448,,,,,,,,,,,,0.7954,1,,,,,,,,,,,,,,z,1,0.7954,,,,,,,,0.491666687,-0.32314816,0,0,0,,0,87,87,145,1,LAMEL,HB,old,z,./images/LAMELHB.png,,,,,,,,,,,,,,,,,,,,,,,,,,,,,,,,,,
,,,,,,,,,,,,,,,,,5d3f6bd087ee2600012908b1,21,2022-02-12_17h19.01.902,lexical_decision_task_DD_L2,2021.2.3,Win32,59.75500448,,,,,,,,,,,,0.5615,1,,,,,,,,,,,,,,m,1,0.5615,,,,,,,,0.491666687,-0.325925995,0,0,0,,0,88,88,73,1,SNACK,LB,old,m,./images/SNACKLB.png,,,,,,,,,,,,,,,,,,,,,,,,,,,,,,,,,,
,,,,,,,,,,,,,,,,,5d3f6bd087ee2600012908b1,21,2022-02-12_17h19.01.902,lexical_decision_task_DD_L2,2021.2.3,Win32,59.75500448,,,,,,,,,,,,0.6489,1,,,,,,,,,,,,,,z,1,0.6489,,,,,,,,0.491666687,-0.325925995,0,0,0,,0,89,89,137,1,JOOST,LB,old,z,./images/JOOSTLB.png,,,,,,,,,,,,,,,,,,,,,,,,,,,,,,,,,,
,,,,,,,,,,,,,,,,,5d3f6bd087ee2600012908b1,21,2022-02-12_17h19.01.902,lexical_decision_task_DD_L2,2021.2.3,Win32,59.75500448,,,,,,,,,,,,0.6463,1,,,,,,,,,,,,,,z,1,0.6463,,,,,,,,0.491666687,-0.325000012,0,0,0,,0,90,90,138,1,PLICE,C,old,z,./images/PLICE.png,,,,,,,,,,,,,,,,,,,,,,,,,,,,,,,,,,
,,,,,,,,,,,,,,,,,5d3f6bd087ee2600012908b1,21,2022-02-12_17h19.01.902,lexical_decision_task_DD_L2,2021.2.3,Win32,59.75500448,,,,,,,,,,,,0.6294,1,,,,,,,,,,,,,,m,1,0.6294,,,,,,,,0.491666687,-0.325000012,0,0,0,,0,91,91,13,1,MOTOR,LB,old,m,./images/MOTORLB.png,,,,,,,,,,,,,,,,,,,,,,,,,,,,,,,,,,
,,,,,,,,,,,,,,,,,5d3f6bd087ee2600012908b1,21,2022-02-12_17h19.01.902,lexical_decision_task_DD_L2,2021.2.3,Win32,59.75500448,,,,,,,,,,,,0.4825,1,,,,,,,,,,,,,,m,1,0.4825,,,,,,,,0.491666687,-0.325000012,0,0,0,,0,92,92,55,1,MUFFIN,LB,old,m,./images/MUFFINLB.png,,,,,,,,,,,,,,,,,,,,,,,,,,,,,,,,,,
,,,,,,,,,,,,,,,,,5d3f6bd087ee2600012908b1,21,2022-02-12_17h19.01.902,lexical_decision_task_DD_L2,2021.2.3,Win32,59.75500448,,,,,,,,,,,,0.7109,1,,,,,,,,,,,,,,m,1,0.7109,,,,,,,,0.491666687,-0.325000012,0,0,0,,0,93,93,62,1,PURSE,C,old,m,./images/PURSE.png,,,,,,,,,,,,,,,,,,,,,,,,,,,,,,,,,,
,,,,,,,,,,,,,,,,,5d3f6bd087ee2600012908b1,21,2022-02-12_17h19.01.902,lexical_decision_task_DD_L2,2021.2.3,Win32,59.75500448,,,,,,,,,,,,1.4179,1,,,,,,,,,,,,,,z,1,1.4179,,,,,,,,0.492592613,-0.330555624,0,0,0,,0,94,94,151,1,TINKY,HB,old,z,./images/TINKYHB.png,,,,,,,,,,,,,,,,,,,,,,,,,,,,,,,,,,
,,,,,,,,,,,,,,,,,5d3f6bd087ee2600012908b1,21,2022-02-12_17h19.01.902,lexical_decision_task_DD_L2,2021.2.3,Win32,59.75500448,,,,,,,,,,,,0.7154,1,,,,,,,,,,,,,,z,1,0.7154,,,,,,,,0.494444578,-0.328703716,0,0,0,,0,95,95,105,1,MOKER,C,old,z,./images/MOKER.png,,,,,,,,,,,,,,,,,,,,,,,,,,,,,,,,,,
,,,,,,,,,,,,,,,,,5d3f6bd087ee2600012908b1,21,2022-02-12_17h19.01.902,lexical_decision_task_DD_L2,2021.2.3,Win32,59.75500448,,,,,,,,,,,,0.6731,1,,,,,,,,,,,,,,z,1,0.6731,,,,,,,,0.494444578,-0.328703716,0,0,0,,0,96,96,158,1,EGECT,LB,old,z,./images/EGECTLB.png,,,,,,,,,,,,,,,,,,,,,,,,,,,,,,,,,,
,,,,,,,,,,,,,,,,,5d3f6bd087ee2600012908b1,21,2022-02-12_17h19.01.902,lexical_decision_task_DD_L2,2021.2.3,Win32,59.75500448,,,,,,,,,,,,1.0162,1,,,,,,,,,,,,,,z,1,1.0162,,,,,,,,0.494444578,-0.328703716,0,0,0,,0,97,97,109,1,BURGE,HB,old,z,./images/BURGEHB.png,,,,,,,,,,,,,,,,,,,,,,,,,,,,,,,,,,
,,,,,,,,,,,,,,,,,5d3f6bd087ee2600012908b1,21,2022-02-12_17h19.01.902,lexical_decision_task_DD_L2,2021.2.3,Win32,59.75500448,,,,,,,,,,,,0.5152,1,,,,,,,,,,,,,,m,1,0.5152,,,,,,,,0.494444578,-0.328703716,0,0,0,,0,98,98,57,1,MOOSE,HB,old,m,./images/MOOSEHB.png,,,,,,,,,,,,,,,,,,,,,,,,,,,,,,,,,,
,,,,,,,,,,,,,,,,,5d3f6bd087ee2600012908b1,21,2022-02-12_17h19.01.902,lexical_decision_task_DD_L2,2021.2.3,Win32,59.75500448,,,,,,,,,,,,0.6005,1,,,,,,,,,,,,,,z,1,0.6005,,,,,,,,0.494444578,-0.320370383,0,0,0,,0,99,99,156,1,HIXES,C,old,z,./images/HIXES.png,,,,,,,,,,,,,,,,,,,,,,,,,,,,,,,,,,
,,,,,,,,,,,,,,,,,5d3f6bd087ee2600012908b1,21,2022-02-12_17h19.01.902,lexical_decision_task_DD_L2,2021.2.3,Win32,59.75500448,,,,,,,,,,,,0.6269,1,,,,,,,,,,,,,,m,1,0.6269,,,,,,,,0.494444578,-0.322222234,0,0,0,,0,100,100,27,1,ATTIC,HB,old,m,./images/ATTICHB.png,,,,,,,,,,,,,,,,,,,,,,,,,,,,,,,,,,
,,,,,,,,,,,,,,,,,5d3f6bd087ee2600012908b1,21,2022-02-12_17h19.01.902,lexical_decision_task_DD_L2,2021.2.3,Win32,59.75500448,,,,,,,,,,,,0.6275,1,,,,,,,,,,,,,,z,1,0.6275,,,,,,,,0.494444578,-0.32314816,0,0,0,,0,101,101,103,1,FLORT,HB,old,z,./images/FLORTHB.png,,,,,,,,,,,,,,,,,,,,,,,,,,,,,,,,,,
,,,,,,,,,,,,,,,,,5d3f6bd087ee2600012908b1,21,2022-02-12_17h19.01.902,lexical_decision_task_DD_L2,2021.2.3,Win32,59.75500448,,,,,,,,,,,,0.5463,1,,,,,,,,,,,,,,z,1,0.5463,,,,,,,,0.494444578,-0.32314816,0,0,0,,0,102,102,102,1,DULLE,C,old,z,./images/DULLE.png,,,,,,,,,,,,,,,,,,,,,,,,,,,,,,,,,,
,,,,,,,,,,,,,,,,,5d3f6bd087ee2600012908b1,21,2022-02-12_17h19.01.902,lexical_decision_task_DD_L2,2021.2.3,Win32,59.75500448,,,,,,,,,,,,0.7055,0,,,,,,,,,,,,,,m,0,0.7055,,,,,,,,0.494444578,-0.32314816,0,0,0,,0,103,103,166,1,SHORY,HB,old,z,./images/SHORYHB.png,,,,,,,,,,,,,,,,,,,,,,,,,,,,,,,,,,
,,,,,,,,,,,,,,,,,5d3f6bd087ee2600012908b1,21,2022-02-12_17h19.01.902,lexical_decision_task_DD_L2,2021.2.3,Win32,59.75500448,,,,,,,,,,,,0.5028,1,,,,,,,,,,,,,,m,1,0.5028,,,,,,,,0.494444578,-0.324074086,0,0,0,,0,104,104,46,1,PEARL,LB,old,m,./images/PEARLLB.png,,,,,,,,,,,,,,,,,,,,,,,,,,,,,,,,,,
,,,,,,,,,,,,,,,,,5d3f6bd087ee2600012908b1,21,2022-02-12_17h19.01.902,lexical_decision_task_DD_L2,2021.2.3,Win32,59.75500448,,,,,,,,,,,,0.8406,1,,,,,,,,,,,,,,z,1,0.8406,,,,,,,,0.494444578,-0.325925995,0,0,0,,0,105,105,86,1,AIFED,LB,old,z,./images/AIFEDLB.png,,,,,,,,,,,,,,,,,,,,,,,,,,,,,,,,,,
,,,,,,,,,,,,,,,,,5d3f6bd087ee2600012908b1,21,2022-02-12_17h19.01.902,lexical_decision_task_DD_L2,2021.2.3,Win32,59.75500448,,,,,,,,,,,,0.5625,1,,,,,,,,,,,,,,z,1,0.5625,,,,,,,,0.495370391,-0.326851864,0,0,0,,0,106,106,147,1,ZOLES,C,old,z,./images/ZOLES.png,,,,,,,,,,,,,,,,,,,,,,,,,,,,,,,,,,
,,,,,,,,,,,,,,,,,5d3f6bd087ee2600012908b1,21,2022-02-12_17h19.01.902,lexical_decision_task_DD_L2,2021.2.3,Win32,59.75500448,,,,,,,,,,,,0.5112,1,,,,,,,,,,,,,,m,1,0.5112,,,,,,,,0.498148169,-0.326851864,0,0,0,,0,107,107,15,1,GREASE,HB,old,m,./images/GREASEHB.png,,,,,,,,,,,,,,,,,,,,,,,,,,,,,,,,,,
,,,,,,,,,,,,,,,,,5d3f6bd087ee2600012908b1,21,2022-02-12_17h19.01.902,lexical_decision_task_DD_L2,2021.2.3,Win32,59.75500448,,,,,,,,,,,,0.6557,1,,,,,,,,,,,,,,z,1,0.6557,,,,,,,,0.498148169,-0.326851864,0,0,0,,0,108,108,146,1,MOOST,LB,old,z,./images/MOOSTLB.png,,,,,,,,,,,,,,,,,,,,,,,,,,,,,,,,,,
,,,,,,,,,,,,,,,,,5d3f6bd087ee2600012908b1,21,2022-02-12_17h19.01.902,lexical_decision_task_DD_L2,2021.2.3,Win32,59.75500448,,,,,,,,,,,,0.8812,1,,,,,,,,,,,,,,m,1,0.8812,,,,,,,,0.498148169,-0.326851864,0,0,0,,0,109,109,82,1,SUNSET,LB,old,m,./images/SUNSETLB.png,,,,,,,,,,,,,,,,,,,,,,,,,,,,,,,,,,
,,,,,,,,,,,,,,,,,5d3f6bd087ee2600012908b1,21,2022-02-12_17h19.01.902,lexical_decision_task_DD_L2,2021.2.3,Win32,59.75500448,,,,,,,,,,,,0.5017,1,,,,,,,,,,,,,,z,1,0.5017,,,,,,,,0.498148169,-0.326851864,0,0,0,,0,110,110,129,1,PRANS,C,old,z,./images/PRANS.png,,,,,,,,,,,,,,,,,,,,,,,,,,,,,,,,,,
,,,,,,,,,,,,,,,,,5d3f6bd087ee2600012908b1,21,2022-02-12_17h19.01.902,lexical_decision_task_DD_L2,2021.2.3,Win32,59.75500448,,,,,,,,,,,,0.4955,0,,,,,,,,,,,,,,z,0,0.4955,,,,,,,,0.498148169,-0.326851864,0,0,0,,0,111,111,14,1,PICKLE,C,old,m,./images/PICKLE.png,,,,,,,,,,,,,,,,,,,,,,,,,,,,,,,,,,
,,,,,,,,,,,,,,,,,5d3f6bd087ee2600012908b1,21,2022-02-12_17h19.01.902,lexical_decision_task_DD_L2,2021.2.3,Win32,59.75500448,,,,,,,,,,,,0.6627,1,,,,,,,,,,,,,,z,1,0.6627,,,,,,,,0.498148169,-0.325925995,0,0,0,,0,112,112,89,1,DRIEK,LB,old,z,./images/DRIEKLB.png,,,,,,,,,,,,,,,,,,,,,,,,,,,,,,,,,,
,,,,,,,,,,,,,,,,,5d3f6bd087ee2600012908b1,21,2022-02-12_17h19.01.902,lexical_decision_task_DD_L2,2021.2.3,Win32,59.75500448,,,,,,,,,,,,0.6842,0,,,,,,,,,,,,,,z,0,0.6842,,,,,,,,0.498148169,-0.326851864,0,0,0,,0,113,113,16,1,PENCE,LB,old,m,./images/PENCELB.png,,,,,,,,,,,,,,,,,,,,,,,,,,,,,,,,,,
,,,,,,,,,,,,,,,,,5d3f6bd087ee2600012908b1,21,2022-02-12_17h19.01.902,lexical_decision_task_DD_L2,2021.2.3,Win32,59.75500448,,,,,,,,,,,,0.5476,1,,,,,,,,,,,,,,m,1,0.5476,,,,,,,,0.498148169,-0.326851864,0,0,0,,0,114,114,44,1,LIZARD,C,old,m,./images/LIZARD.png,,,,,,,,,,,,,,,,,,,,,,,,,,,,,,,,,,
,,,,,,,,,,,,,,,,,5d3f6bd087ee2600012908b1,21,2022-02-12_17h19.01.902,lexical_decision_task_DD_L2,2021.2.3,Win32,59.75500448,,,,,,,,,,,,0.9547,1,,,,,,,,,,,,,,z,1,0.9547,,,,,,,,0.498148169,-0.326851864,0,0,0,,0,115,115,133,1,POWDY,HB,old,z,./images/POWDYHB.png,,,,,,,,,,,,,,,,,,,,,,,,,,,,,,,,,,
,,,,,,,,,,,,,,,,,5d3f6bd087ee2600012908b1,21,2022-02-12_17h19.01.902,lexical_decision_task_DD_L2,2021.2.3,Win32,59.75500448,,,,,,,,,,,,0.5793,1,,,,,,,,,,,,,,m,1,0.5793,,,,,,,,0.498148169,-0.326851864,0,0,0,,0,116,116,24,1,SCREW,HB,old,m,./images/SCREWHB.png,,,,,,,,,,,,,,,,,,,,,,,,,,,,,,,,,,
,,,,,,,,,,,,,,,,,5d3f6bd087ee2600012908b1,21,2022-02-12_17h19.01.902,lexical_decision_task_DD_L2,2021.2.3,Win32,59.75500448,,,,,,,,,,,,0.6806,0,,,,,,,,,,,,,,m,0,0.6806,,,,,,,,0.498148169,-0.32777779,0,0,0,,0,117,117,99,1,BACKY,C,old,z,./images/BACKY.png,,,,,,,,,,,,,,,,,,,,,,,,,,,,,,,,,,
,,,,,,,,,,,,,,,,,5d3f6bd087ee2600012908b1,21,2022-02-12_17h19.01.902,lexical_decision_task_DD_L2,2021.2.3,Win32,59.75500448,,,,,,,,,,,,0.5394,1,,,,,,,,,,,,,,m,1,0.5394,,,,,,,,0.496296317,-0.326851864,0,0,0,,0,118,118,67,1,SAILOR,LB,old,m,./images/SAILORLB.png,,,,,,,,,,,,,,,,,,,,,,,,,,,,,,,,,,
,,,,,,,,,,,,,,,,,5d3f6bd087ee2600012908b1,21,2022-02-12_17h19.01.902,lexical_decision_task_DD_L2,2021.2.3,Win32,59.75500448,,,,,,,,,,,,0.9172,1,,,,,,,,,,,,,,m,1,0.9172,,,,,,,,0.499074208,-0.325925995,0,0,0,,0,119,119,58,1,BABOON,LB,old,m,./images/BABOONLB.png,,,,,,,,,,,,,,,,,,,,,,,,,,,,,,,,,,
,,,,,,,,,,,,,,,,,5d3f6bd087ee2600012908b1,21,2022-02-12_17h19.01.902,lexical_decision_task_DD_L2,2021.2.3,Win32,59.75500448,,,,,,,,,,,,1.1978,1,,,,,,,,,,,,,,z,1,1.1978,,,,,,,,0.499074208,-0.330555624,0,0,0,,0,120,120,115,1,MAWNS,HB,old,z,./images/MAWNSHB.png,,,,,,,,,,,,,,,,,,,,,,,,,,,,,,,,,,
,,,,,,,,,,,,,,,,,5d3f6bd087ee2600012908b1,21,2022-02-12_17h19.01.902,lexical_decision_task_DD_L2,2021.2.3,Win32,59.75500448,,,,,,,,,,,,0.4739,1,,,,,,,,,,,,,,m,1,0.4739,,,,,,,,0.499074208,-0.330555624,0,0,0,,0,121,121,7,1,PAINT,LB,old,m,./images/PAINTLB.png,,,,,,,,,,,,,,,,,,,,,,,,,,,,,,,,,,
,,,,,,,,,,,,,,,,,5d3f6bd087ee2600012908b1,21,2022-02-12_17h19.01.902,lexical_decision_task_DD_L2,2021.2.3,Win32,59.75500448,,,,,,,,,,,,0.5752,1,,,,,,,,,,,,,,m,1,0.5752,,,,,,,,0.499074208,-0.330555624,0,0,0,,0,122,122,41,1,STRING,C,old,m,./images/STRING.png,,,,,,,,,,,,,,,,,,,,,,,,,,,,,,,,,,
,,,,,,,,,,,,,,,,,5d3f6bd087ee2600012908b1,21,2022-02-12_17h19.01.902,lexical_decision_task_DD_L2,2021.2.3,Win32,59.75500448,,,,,,,,,,,,0.7313,1,,,,,,,,,,,,,,z,1,0.7313,,,,,,,,0.499074208,-0.330555624,0,0,0,,0,123,123,130,1,CRILL,HB,old,z,./images/CRILLHB.png,,,,,,,,,,,,,,,,,,,,,,,,,,,,,,,,,,
,,,,,,,,,,,,,,,,,5d3f6bd087ee2600012908b1,21,2022-02-12_17h19.01.902,lexical_decision_task_DD_L2,2021.2.3,Win32,59.75500448,,,,,,,,,,,,0.5882,1,,,,,,,,,,,,,,z,1,0.5882,,,,,,,,0.499074208,-0.330555624,0,0,0,,0,124,124,87,1,TRING,C,old,z,./images/TRING.png,,,,,,,,,,,,,,,,,,,,,,,,,,,,,,,,,,
,,,,,,,,,,,,,,,,,5d3f6bd087ee2600012908b1,21,2022-02-12_17h19.01.902,lexical_decision_task_DD_L2,2021.2.3,Win32,59.75500448,,,,,,,,,,,,0.5355,1,,,,,,,,,,,,,,z,1,0.5355,,,,,,,,0.51388891,-0.377777791,0,0,0,space,0,125,125,162,1,LEICH,C,old,z,./images/LEICH.png,19.849,,,,,,,,,,,,,,,,,,,,,,,,,,,,,,,,,
,,,,,,,,,,,,,,,,,5d3f6bd087ee2600012908b1,21,2022-02-12_17h19.01.902,lexical_decision_task_DD_L2,2021.2.3,Win32,59.75500448,,,,,,,,,,,,0.495,1,,,,,,,,,,,,,,m,1,0.495,,,,,,,,0.515740762,-0.375925939,0,0,0,,0,126,126,36,1,THROAT,HB,old,m,./images/THROATHB.png,,,,,,,,,,,,,,,,,,,,,,,,,,,,,,,,,,
,,,,,,,,,,,,,,,,,5d3f6bd087ee2600012908b1,21,2022-02-12_17h19.01.902,lexical_decision_task_DD_L2,2021.2.3,Win32,59.75500448,,,,,,,,,,,,0.6231,1,,,,,,,,,,,,,,z,1,0.6231,,,,,,,,0.488888909,-0.407407421,0,0,0,,0,127,127,112,1,MYING,HB,old,z,./images/MYINGHB.png,,,,,,,,,,,,,,,,,,,,,,,,,,,,,,,,,,
,,,,,,,,,,,,,,,,,5d3f6bd087ee2600012908b1,21,2022-02-12_17h19.01.902,lexical_decision_task_DD_L2,2021.2.3,Win32,59.75500448,,,,,,,,,,,,0.5282,1,,,,,,,,,,,,,,m,1,0.5282,,,,,,,,0.488888909,-0.406481495,0,0,0,,0,128,128,76,1,INFANT,LB,old,m,./images/INFANTLB.png,,,,,,,,,,,,,,,,,,,,,,,,,,,,,,,,,,
,,,,,,,,,,,,,,,,,5d3f6bd087ee2600012908b1,21,2022-02-12_17h19.01.902,lexical_decision_task_DD_L2,2021.2.3,Win32,59.75500448,,,,,,,,,,,,0.6021,1,,,,,,,,,,,,,,z,1,0.6021,,,,,,,,0.487962983,-0.407407421,0,0,0,,0,129,129,144,1,NAIRY,C,old,z,./images/NAIRY.png,,,,,,,,,,,,,,,,,,,,,,,,,,,,,,,,,,
,,,,,,,,,,,,,,,,,5d3f6bd087ee2600012908b1,21,2022-02-12_17h19.01.902,lexical_decision_task_DD_L2,2021.2.3,Win32,59.75500448,,,,,,,,,,,,0.5294,1,,,,,,,,,,,,,,m,1,0.5294,,,,,,,,0.487962983,-0.408333347,0,0,0,,0,130,130,19,1,DOUGH,LB,old,m,./images/DOUGHLB.png,,,,,,,,,,,,,,,,,,,,,,,,,,,,,,,,,,
,,,,,,,,,,,,,,,,,5d3f6bd087ee2600012908b1,21,2022-02-12_17h19.01.902,lexical_decision_task_DD_L2,2021.2.3,Win32,59.75500448,,,,,,,,,,,,0.6798,1,,,,,,,,,,,,,,m,1,0.6798,,,,,,,,0.487962983,-0.411111125,0,0,0,,0,131,131,6,1,SQUARE,HB,old,m,./images/SQUAREHB.png,,,,,,,,,,,,,,,,,,,,,,,,,,,,,,,,,,
,,,,,,,,,,,,,,,,,5d3f6bd087ee2600012908b1,21,2022-02-12_17h19.01.902,lexical_decision_task_DD_L2,2021.2.3,Win32,59.75500448,,,,,,,,,,,,0.7463,1,,,,,,,,,,,,,,z,1,0.7463,,,,,,,,0.487962983,-0.410185199,0,0,0,,0,132,132,92,1,PAIMS,LB,old,z,./images/PAIMSLB.png,,,,,,,,,,,,,,,,,,,,,,,,,,,,,,,,,,
,,,,,,,,,,,,,,,,,5d3f6bd087ee2600012908b1,21,2022-02-12_17h19.01.902,lexical_decision_task_DD_L2,2021.2.3,Win32,59.75500448,,,,,,,,,,,,0.5543,1,,,,,,,,,,,,,,m,1,0.5543,,,,,,,,0.487962983,-0.410185199,0,0,0,,0,133,133,80,1,WEASEL,C,old,m,./images/WEASEL.png,,,,,,,,,,,,,,,,,,,,,,,,,,,,,,,,,,
,,,,,,,,,,,,,,,,,5d3f6bd087ee2600012908b1,21,2022-02-12_17h19.01.902,lexical_decision_task_DD_L2,2021.2.3,Win32,59.75500448,,,,,,,,,,,,0.7803,1,,,,,,,,,,,,,,z,1,0.7803,,,,,,,,0.487962983,-0.410185199,0,0,0,,0,134,134,93,1,SMONE,C,old,z,./images/SMONE.png,,,,,,,,,,,,,,,,,,,,,,,,,,,,,,,,,,
,,,,,,,,,,,,,,,,,5d3f6bd087ee2600012908b1,21,2022-02-12_17h19.01.902,lexical_decision_task_DD_L2,2021.2.3,Win32,59.75500448,,,,,,,,,,,,0.6316,1,,,,,,,,,,,,,,m,1,0.6316,,,,,,,,0.487962983,-0.410185199,0,0,0,,0,135,135,29,1,CRUMB,C,old,m,./images/CRUMB.png,,,,,,,,,,,,,,,,,,,,,,,,,,,,,,,,,,
,,,,,,,,,,,,,,,,,5d3f6bd087ee2600012908b1,21,2022-02-12_17h19.01.902,lexical_decision_task_DD_L2,2021.2.3,Win32,59.75500448,,,,,,,,,,,,0.6305,1,,,,,,,,,,,,,,m,1,0.6305,,,,,,,,0.487962983,-0.410185199,0,0,0,,0,136,136,3,1,FINGER,HB,old,m,./images/FINGERHB.png,,,,,,,,,,,,,,,,,,,,,,,,,,,,,,,,,,
,,,,,,,,,,,,,,,,,5d3f6bd087ee2600012908b1,21,2022-02-12_17h19.01.902,lexical_decision_task_DD_L2,2021.2.3,Win32,59.75500448,,,,,,,,,,,,0.6966,1,,,,,,,,,,,,,,z,1,0.6966,,,,,,,,0.487962983,-0.410185199,0,0,0,,0,137,137,111,1,HOSSE,C,old,z,./images/HOSSE.png,,,,,,,,,,,,,,,,,,,,,,,,,,,,,,,,,,
,,,,,,,,,,,,,,,,,5d3f6bd087ee2600012908b1,21,2022-02-12_17h19.01.902,lexical_decision_task_DD_L2,2021.2.3,Win32,59.75500448,,,,,,,,,,,,0.6709,1,,,,,,,,,,,,,,z,1,0.6709,,,,,,,,0.487962983,-0.410185199,0,0,0,,0,138,138,84,1,HAXES,C,old,z,./images/HAXES.png,,,,,,,,,,,,,,,,,,,,,,,,,,,,,,,,,,
,,,,,,,,,,,,,,,,,5d3f6bd087ee2600012908b1,21,2022-02-12_17h19.01.902,lexical_decision_task_DD_L2,2021.2.3,Win32,59.75500448,,,,,,,,,,,,0.5832,1,,,,,,,,,,,,,,z,1,0.5832,,,,,,,,0.487962983,-0.408333347,0,0,0,,0,139,139,140,1,DOVET,LB,old,z,./images/DOVETLB.png,,,,,,,,,,,,,,,,,,,,,,,,,,,,,,,,,,
,,,,,,,,,,,,,,,,,5d3f6bd087ee2600012908b1,21,2022-02-12_17h19.01.902,lexical_decision_task_DD_L2,2021.2.3,Win32,59.75500448,,,,,,,,,,,,0.7673,1,,,,,,,,,,,,,,m,1,0.7673,,,,,,,,0.487962983,-0.408333347,0,0,0,,0,140,140,72,1,NOOSE,HB,old,m,./images/NOOSEHB.png,,,,,,,,,,,,,,,,,,,,,,,,,,,,,,,,,,
,,,,,,,,,,,,,,,,,5d3f6bd087ee2600012908b1,21,2022-02-12_17h19.01.902,lexical_decision_task_DD_L2,2021.2.3,Win32,59.75500448,,,,,,,,,,,,0.5987,1,,,,,,,,,,,,,,m,1,0.5987,,,,,,,,0.487962983,-0.409259329,0,0,0,,0,141,141,66,1,SWEAT,HB,old,m,./images/SWEATHB.png,,,,,,,,,,,,,,,,,,,,,,,,,,,,,,,,,,
,,,,,,,,,,,,,,,,,5d3f6bd087ee2600012908b1,21,2022-02-12_17h19.01.902,lexical_decision_task_DD_L2,2021.2.3,Win32,59.75500448,,,,,,,,,,,,1.6957,1,,,,,,,,,,,,,,m,1,1.6957,,,,,,,,0.487962983,-0.409259329,0,0,0,,0,142,142,43,1,MOSQUE,LB,old,m,./images/MOSQUELB.png,,,,,,,,,,,,,,,,,,,,,,,,,,,,,,,,,,
,,,,,,,,,,,,,,,,,5d3f6bd087ee2600012908b1,21,2022-02-12_17h19.01.902,lexical_decision_task_DD_L2,2021.2.3,Win32,59.75500448,,,,,,,,,,,,0.8344,1,,,,,,,,,,,,,,z,1,0.8344,,,,,,,,0.488888909,-0.409259329,0,0,0,,0,143,143,159,1,CUDDY,C,old,z,./images/CUDDY.png,,,,,,,,,,,,,,,,,,,,,,,,,,,,,,,,,,
,,,,,,,,,,,,,,,,,5d3f6bd087ee2600012908b1,21,2022-02-12_17h19.01.902,lexical_decision_task_DD_L2,2021.2.3,Win32,59.75500448,,,,,,,,,,,,0.5968,1,,,,,,,,,,,,,,m,1,0.5968,,,,,,,,0.488888909,-0.409259329,0,0,0,,0,144,144,59,1,BURIAL,C,old,m,./images/BURIAL.png,,,,,,,,,,,,,,,,,,,,,,,,,,,,,,,,,,
,,,,,,,,,,,,,,,,,5d3f6bd087ee2600012908b1,21,2022-02-12_17h19.01.902,lexical_decision_task_DD_L2,2021.2.3,Win32,59.75500448,,,,,,,,,,,,1.0005,1,,,,,,,,,,,,,,z,1,1.0005,,,,,,,,0.488888909,-0.409259329,0,0,0,,0,145,145,136,1,WERVE,HB,old,z,./images/WERVEHB.png,,,,,,,,,,,,,,,,,,,,,,,,,,,,,,,,,,
,,,,,,,,,,,,,,,,,5d3f6bd087ee2600012908b1,21,2022-02-12_17h19.01.902,lexical_decision_task_DD_L2,2021.2.3,Win32,59.75500448,,,,,,,,,,,,0.473,1,,,,,,,,,,,,,,m,1,0.473,,,,,,,,0.488888909,-0.409259329,0,0,0,,0,146,146,83,1,JUNGLE,C,old,m,./images/JUNGLE.png,,,,,,,,,,,,,,,,,,,,,,,,,,,,,,,,,,
,,,,,,,,,,,,,,,,,5d3f6bd087ee2600012908b1,21,2022-02-12_17h19.01.902,lexical_decision_task_DD_L2,2021.2.3,Win32,59.75500448,,,,,,,,,,,,0.6563,1,,,,,,,,,,,,,,z,1,0.6563,,,,,,,,0.489814948,-0.409259329,0,0,0,,0,147,147,148,1,JOMS,HB,old,z,./images/JOMSHB.png,,,,,,,,,,,,,,,,,,,,,,,,,,,,,,,,,,
,,,,,,,,,,,,,,,,,5d3f6bd087ee2600012908b1,21,2022-02-12_17h19.01.902,lexical_decision_task_DD_L2,2021.2.3,Win32,59.75500448,,,,,,,,,,,,0.7839,1,,,,,,,,,,,,,,z,1,0.7839,,,,,,,,0.489814948,-0.408333347,0,0,0,,0,148,148,124,1,TUNCH,HB,old,z,./images/TUNCHHB.png,,,,,,,,,,,,,,,,,,,,,,,,,,,,,,,,,,
,,,,,,,,,,,,,,,,,5d3f6bd087ee2600012908b1,21,2022-02-12_17h19.01.902,lexical_decision_task_DD_L2,2021.2.3,Win32,59.75500448,,,,,,,,,,,,0.5376,1,,,,,,,,,,,,,,m,1,0.5376,,,,,,,,0.489814948,-0.408333347,0,0,0,,0,149,149,74,1,CEMENT,C,old,m,./images/CEMENT.png,,,,,,,,,,,,,,,,,,,,,,,,,,,,,,,,,,
,,,,,,,,,,,,,,,,,5d3f6bd087ee2600012908b1,21,2022-02-12_17h19.01.902,lexical_decision_task_DD_L2,2021.2.3,Win32,59.75500448,,,,,,,,,,,,0.475,1,,,,,,,,,,,,,,m,1,0.475,,,,,,,,0.489814948,-0.408333347,0,0,0,,0,150,150,20,1,CRADLE,C,old,m,./images/CRADLE.png,,,,,,,,,,,,,,,,,,,,,,,,,,,,,,,,,,
,,,,,,,,,,,,,,,,,5d3f6bd087ee2600012908b1,21,2022-02-12_17h19.01.902,lexical_decision_task_DD_L2,2021.2.3,Win32,59.75500448,,,,,,,,,,,,0.9658,1,,,,,,,,,,,,,,z,1,0.9658,,,,,,,,0.489814948,-0.408333347,0,0,0,,0,151,151,123,1,SEDGE,C,old,z,./images/SEDGE.png,,,,,,,,,,,,,,,,,,,,,,,,,,,,,,,,,,
,,,,,,,,,,,,,,,,,5d3f6bd087ee2600012908b1,21,2022-02-12_17h19.01.902,lexical_decision_task_DD_L2,2021.2.3,Win32,59.75500448,,,,,,,,,,,,0.6644,1,,,,,,,,,,,,,,z,1,0.6644,,,,,,,,0.489814948,-0.408333347,0,0,0,,0,152,152,121,1,CEERS,HB,old,z,./images/CEERSHB.png,,,,,,,,,,,,,,,,,,,,,,,,,,,,,,,,,,
,,,,,,,,,,,,,,,,,5d3f6bd087ee2600012908b1,21,2022-02-12_17h19.01.902,lexical_decision_task_DD_L2,2021.2.3,Win32,59.75500448,,,,,,,,,,,,0.5171,1,,,,,,,,,,,,,,m,1,0.5171,,,,,,,,0.489814948,-0.408333347,0,0,0,,0,153,153,63,1,MIRROR,HB,old,m,./images/MIRRORHB.png,,,,,,,,,,,,,,,,,,,,,,,,,,,,,,,,,,
,,,,,,,,,,,,,,,,,5d3f6bd087ee2600012908b1,21,2022-02-12_17h19.01.902,lexical_decision_task_DD_L2,2021.2.3,Win32,59.75500448,,,,,,,,,,,,0.5395,1,,,,,,,,,,,,,,m,1,0.5395,,,,,,,,0.489814948,-0.408333347,0,0,0,,0,154,154,78,1,LITTER,HB,old,m,./images/LITTERHB.png,,,,,,,,,,,,,,,,,,,,,,,,,,,,,,,,,,
,,,,,,,,,,,,,,,,,5d3f6bd087ee2600012908b1,21,2022-02-12_17h19.01.902,lexical_decision_task_DD_L2,2021.2.3,Win32,59.75500448,,,,,,,,,,,,0.4477,1,,,,,,,,,,,,,,m,1,0.4477,,,,,,,,0.488888909,-0.406481495,0,0,0,,0,155,155,45,1,KITTEN,HB,old,m,./images/KITTENHB.png,,,,,,,,,,,,,,,,,,,,,,,,,,,,,,,,,,
,,,,,,,,,,,,,,,,,5d3f6bd087ee2600012908b1,21,2022-02-12_17h19.01.902,lexical_decision_task_DD_L2,2021.2.3,Win32,59.75500448,,,,,,,,,,,,0.5678,0,,,,,,,,,,,,,,m,0,0.5678,,,,,,,,0.488888909,-0.406481495,0,0,0,,0,156,156,110,1,CRUNK,LB,old,z,./images/CRUNKLB.png,,,,,,,,,,,,,,,,,,,,,,,,,,,,,,,,,,
,,,,,,,,,,,,,,,,,5d3f6bd087ee2600012908b1,21,2022-02-12_17h19.01.902,lexical_decision_task_DD_L2,2021.2.3,Win32,59.75500448,,,,,,,,,,,,0.5659,1,,,,,,,,,,,,,,m,1,0.5659,,,,,,,,0.489814948,-0.407407421,0,0,0,,0,157,157,5,1,PASTA,C,old,m,./images/PASTA.png,,,,,,,,,,,,,,,,,,,,,,,,,,,,,,,,,,
,,,,,,,,,,,,,,,,,5d3f6bd087ee2600012908b1,21,2022-02-12_17h19.01.902,lexical_decision_task_DD_L2,2021.2.3,Win32,59.75500448,,,,,,,,,,,,0.4787,1,,,,,,,,,,,,,,m,1,0.4787,,,,,,,,0.490740761,-0.406481495,0,0,0,,0,158,158,71,1,PIMPLE,C,old,m,./images/PIMPLE.png,,,,,,,,,,,,,,,,,,,,,,,,,,,,,,,,,,
,,,,,,,,,,,,,,,,,5d3f6bd087ee2600012908b1,21,2022-02-12_17h19.01.902,lexical_decision_task_DD_L2,2021.2.3,Win32,59.75500448,,,,,,,,,,,,0.6622,1,,,,,,,,,,,,,,z,1,0.6622,,,,,,,,0.490740761,-0.406481495,0,0,0,,0,159,159,132,1,SCIFF,C,old,z,./images/SCIFF.png,,,,,,,,,,,,,,,,,,,,,,,,,,,,,,,,,,
,,,,,,,,,,,,,,,,,5d3f6bd087ee2600012908b1,21,2022-02-12_17h19.01.902,lexical_decision_task_DD_L2,2021.2.3,Win32,59.75500448,,,,,,,,,,,,0.6612,1,,,,,,,,,,,,,,z,1,0.6612,,,,,,,,0.490740761,-0.406481495,0,0,0,,0,160,160,122,1,BLOOT,LB,old,z,./images/BLOOTLB.png,,,,,,,,,,,,,,,,,,,,,,,,,,,,,,,,,,
,,,,,,,,,,,,,,,,,5d3f6bd087ee2600012908b1,21,2022-02-12_17h19.01.902,lexical_decision_task_DD_L2,2021.2.3,Win32,59.75500448,,,,,,,,,,,,0.5186,1,,,,,,,,,,,,,,m,1,0.5186,,,,,,,,0.490740761,-0.406481495,0,0,0,,0,161,161,23,1,WALRUS,C,old,m,./images/WALRUS.png,,,,,,,,,,,,,,,,,,,,,,,,,,,,,,,,,,
,,,,,,,,,,,,,,,,,5d3f6bd087ee2600012908b1,21,2022-02-12_17h19.01.902,lexical_decision_task_DD_L2,2021.2.3,Win32,59.75500448,,,,,,,,,,,,0.5403,1,,,,,,,,,,,,,,z,1,0.5403,,,,,,,,0.491666687,-0.405555569,0,0,0,,0,162,162,95,1,HANTY,LB,old,z,./images/HANTYLB.png,,,,,,,,,,,,,,,,,,,,,,,,,,,,,,,,,,
,,,,,,,,,,,,,,,,,5d3f6bd087ee2600012908b1,21,2022-02-12_17h19.01.902,lexical_decision_task_DD_L2,2021.2.3,Win32,59.75500448,,,,,,,,,,,,0.6293,1,,,,,,,,,,,,,,m,1,0.6293,,,,,,,,0.491666687,-0.405555569,0,0,0,,0,163,163,1,1,PLANK,LB,old,m,./images/PLANKLB.png,,,,,,,,,,,,,,,,,,,,,,,,,,,,,,,,,,
,,,,,,,,,,,,,,,,,5d3f6bd087ee2600012908b1,21,2022-02-12_17h19.01.902,lexical_decision_task_DD_L2,2021.2.3,Win32,59.75500448,,,,,,,,,,,,0.4944,1,,,,,,,,,,,,,,z,1,0.4944,,,,,,,,0.491666687,-0.406481495,0,0,0,,0,164,164,135,1,JOODY,C,old,z,./images/JOODY.png,,,,,,,,,,,,,,,,,,,,,,,,,,,,,,,,,,
,,,,,,,,,,,,,,,,,5d3f6bd087ee2600012908b1,21,2022-02-12_17h19.01.902,lexical_decision_task_DD_L2,2021.2.3,Win32,59.75500448,,,,,,,,,,,,0.5824,1,,,,,,,,,,,,,,z,1,0.5824,,,,,,,,0.489814948,-0.407407421,0,0,0,,0,165,165,117,1,STEEG,C,old,z,./images/STEEG.png,,,,,,,,,,,,,,,,,,,,,,,,,,,,,,,,,,
,,,,,,,,,,,,,,,,,5d3f6bd087ee2600012908b1,21,2022-02-12_17h19.01.902,lexical_decision_task_DD_L2,2021.2.3,Win32,59.75500448,,,,,,,,,,,,0.5598,1,,,,,,,,,,,,,,m,1,0.5598,,,,,,,,0.489814948,-0.407407421,0,0,0,,0,166,166,48,1,SPORT,HB,old,m,./images/SPORTHB.png,,,,,,,,,,,,,,,,,,,,,,,,,,,,,,,,,,
,,,,,,,,,,,,,,,,,5d3f6bd087ee2600012908b1,21,2022-02-12_17h19.01.902,lexical_decision_task_DD_L2,2021.2.3,Win32,59.75500448,,,,,,,,,,,,0.6395,1,,,,,,,,,,,,,,z,1,0.6395,,,,,,,,0.489814948,-0.405555569,0,0,0,,0,167,167,149,1,VEASE,LB,old,z,./images/VEASELB.png,,,,,,,,,,,,,,,,,,,,,,,,,,,,,,,,,,
,,,,,,,,,,,,,,,,,5d3f6bd087ee2600012908b1,21,2022-02-12_17h19.01.902,lexical_decision_task_DD_L2,2021.2.3,Win32,59.75500448,,,,,,,,,,,,,,,,,,,,,,,,,,,,,,,,,,,,,,,,,,,,,,,,,How likely will it be that you will recognize the words presented slighly blurred on a scale of 0 (not likely) to 100 (most likely)?,,,,,-0.001851839,-0.414814828,1,0,0,jol_adv,6,5.864,0,0,0,1,1,,,,,,,,,,,,,,,,,,,,
,,,,,,,,,,,,,,,,,5d3f6bd087ee2600012908b1,21,2022-02-12_17h19.01.902,lexical_decision_task_DD_L2,2021.2.3,Win32,59.75500448,,,,,,,,,,,,,,,,,,,,,,,,,,,,,,,,,,,,,,,,,,,,,,,,,How likely will it be that you will recognize the words presented very blurred on a scale of 0 (not likely) to 100 (most likely)?,,,,,,,,,,,5,5.3428,0,1,1,2,1,,,,,,,,,,,,,,,,,,,,
,,,,,,,,,,,,,,,,,5d3f6bd087ee2600012908b1,21,2022-02-12_17h19.01.902,lexical_decision_task_DD_L2,2021.2.3,Win32,59.75500448,,,,,,,,,,,,,,,,,,,,,,,,,,,,,,,,,,,,,,,,,,,,,,,,,How likely will it be that you will recognize the words presented clearly on a scale of 0 (not likely) to 100 (most likely)?,,,,,,,,,,,6,3.9577,0,2,2,0,1,,,,,,,,,,,,,,,,,,,,
space,11.1293,-0.206481415,-0.218518529,0,0,0,,,,,,1,test,"In the next phase you will be presented with the words from the the first phase. Your job is to decide whether you remember seeing the word or not. If you remember seeing the word press ""old"" or type ""m"". If you do not remember seeing the word press ""new"" or type ""z"". Please press the space bar or click on continue to begin. ",,,5d3f6bd087ee2600012908b1,21,2022-02-12_17h19.01.902,lexical_decision_task_DD_L2,2021.2.3,Win32,59.75500448,,,,,,,,,,,,,,,,,,,,,,,,,,,,,,,,,,,,,,,,,,,,,,,,,,,,,,,,,,,,,,,,,,,0,0,0,0,1,,,,,,,,,,,,,,,
,,-0.005555542,-0.42592594,1,0,0,,,,,,1,test,"In the next phase you will be presented with the words from the the first phase. Your job is to decide whether you remember seeing the word or not. If you remember seeing the word press ""old"" or type ""m"". If you do not remember seeing the word press ""new"" or type ""z"". Please press the space bar or click on continue to begin. ",,,5d3f6bd087ee2600012908b1,21,2022-02-12_17h19.01.902,lexical_decision_task_DD_L2,2021.2.3,Win32,59.75500448,instr_done_button,,,,,,,,,,,,,,,,,,,,,,,,,,,,,,,,,,,,,,,,,,,,,,,,,,,,,,,,,,,,,,,,,,1,0,1,0,1,,,,,,,,,,,,,,,
,,-0.005555542,-0.423148218,1,0,0,,,,,,1,test,"In the next phase you will be presented with the words from the the first phase. Your job is to decide whether you remember seeing the word or not. If you remember seeing the word press ""old"" or type ""m"". If you do not remember seeing the word press ""new"" or type ""z"". Please press the space bar or click on continue to begin. ",,,5d3f6bd087ee2600012908b1,21,2022-02-12_17h19.01.902,lexical_decision_task_DD_L2,2021.2.3,Win32,59.75500448,instr_done_button,,,,,,,,,,,,,,,,,,,,,,,,,,,,,,,,,,,,,,,,,,,,,,,,,,,,,,,,,,,,,,,,,,2,0,2,0,1,,,,,,,,,,,,,,,
,,-0.004629616,-0.399074087,1,0,0,,,,,,1,test,"In the next phase you will be presented with the words from the the first phase. Your job is to decide whether you remember seeing the word or not. If you remember seeing the word press ""old"" or type ""m"". If you do not remember seeing the word press ""new"" or type ""z"". Please press the space bar or click on continue to begin. ",,,5d3f6bd087ee2600012908b1,21,2022-02-12_17h19.01.902,lexical_decision_task_DD_L2,2021.2.3,Win32,59.75500448,instr_done_button,,,,,,,,,,,,,,,,,,,,,,,,,,,,,,,,,,,,,,,,,,,,,,,,,,,,,,,,,,,,,,,,,,3,0,3,0,1,,,,,,,,,,,,,,,
space,0.7431,-0.001851839,-0.406481495,0,0,0,,,,,,1,test,"In the next phase you will be presented with the words from the the first phase. Your job is to decide whether you remember seeing the word or not. If you remember seeing the word press ""old"" or type ""m"". If you do not remember seeing the word press ""new"" or type ""z"". Please press the space bar or click on continue to begin. ",,,5d3f6bd087ee2600012908b1,21,2022-02-12_17h19.01.902,lexical_decision_task_DD_L2,2021.2.3,Win32,59.75500448,,,,,,,,,,,,,,,,,,,,,,,,,,,,,,,,,,,,,,,,,,,,,,,,,,,,,,,,,,,,,,,,,,,4,0,4,0,1,,,,,,,,,,,,,,,
,,,,,,,,,,,,,,,,,5d3f6bd087ee2600012908b1,21,2022-02-12_17h19.01.902,lexical_decision_task_DD_L2,2021.2.3,Win32,59.75500448,,,,,,,,,,,,2.313,0,,,,,,,,,,,,,,,,,,,,,,,,-0.000925913,-0.402777791,0,0,0,,,,,,,DOUGH,LB,m,y,./images/DOUGHLB.png,,,,,,,,,,,,,,,,,,,,z,0,2.313,,,,,,,,0,0,0,19,1
,,,,,,,,,,,,,,,,,5d3f6bd087ee2600012908b1,21,2022-02-12_17h19.01.902,lexical_decision_task_DD_L2,2021.2.3,Win32,59.75500448,,,,,,,,,,,,0.8824,0,,,,,,,,,,,,,,,,,,,,,,,,-0.000925913,-0.402777791,0,0,0,,,,,,,PACKET,C,m,y,./images/PACKET.png,,,,,,,,,,,,,,,,,,,,z,0,0.8824,,,,,,,,0,1,1,56,1
,,,,,,,,,,,,,,,,,5d3f6bd087ee2600012908b1,21,2022-02-12_17h19.01.902,lexical_decision_task_DD_L2,2021.2.3,Win32,59.75500448,,,,,,,,,,,,0.9062,1,,,,,,,,,,,,,,,,,,,,,,,,-0.000925913,-0.402777791,0,0,0,,,,,,,DESERT,LB,z,y,./images/DESERTLB.png,,,,,,,,,,,,,,,,,,,,z,1,0.9062,,,,,,,,0,2,2,136,1
,,,,,,,,,,,,,,,,,5d3f6bd087ee2600012908b1,21,2022-02-12_17h19.01.902,lexical_decision_task_DD_L2,2021.2.3,Win32,59.75500448,,,,,,,,,,,,0.6836,1,,,,,,,,,,,,,,,,,,,,,,,,-0.000925913,-0.402777791,0,0,0,,,,,,,MUMMY,LB,z,y,./images/MUMMYLB.png,,,,,,,,,,,,,,,,,,,,z,1,0.6836,,,,,,,,0,3,3,130,1
,,,,,,,,,,,,,,,,,5d3f6bd087ee2600012908b1,21,2022-02-12_17h19.01.902,lexical_decision_task_DD_L2,2021.2.3,Win32,59.75500448,,,,,,,,,,,,0.7385,1,,,,,,,,,,,,,,,,,,,,,,,,-0.000925913,-0.402777791,0,0,0,,,,,,,MAGGOT,HB,m,y,./images/MAGGOTHB.png,,,,,,,,,,,,,,,,,,,,m,1,0.7385,,,,,,,,0,4,4,33,1
,,,,,,,,,,,,,,,,,5d3f6bd087ee2600012908b1,21,2022-02-12_17h19.01.902,lexical_decision_task_DD_L2,2021.2.3,Win32,59.75500448,,,,,,,,,,,,1.7717,1,,,,,,,,,,,,,,,,,,,,,,,,-0.000925913,-0.405555569,0,0,0,,,,,,,PENCE,LB,m,y,./images/PENCELB.png,,,,,,,,,,,,,,,,,,,,m,1,1.7717,,,,,,,,0,5,5,16,1
,,,,,,,,,,,,,,,,,5d3f6bd087ee2600012908b1,21,2022-02-12_17h19.01.902,lexical_decision_task_DD_L2,2021.2.3,Win32,59.75500448,,,,,,,,,,,,0.9363,0,,,,,,,,,,,,,,,,,,,,,,,,-0.000925913,-0.4046297,0,0,0,,,,,,,BOILER,HB,z,y,./images/BOILERHB.png,,,,,,,,,,,,,,,,,,,,m,0,0.9363,,,,,,,,0,6,6,120,1
,,,,,,,,,,,,,,,,,5d3f6bd087ee2600012908b1,21,2022-02-12_17h19.01.902,lexical_decision_task_DD_L2,2021.2.3,Win32,59.75500448,,,,,,,,,,,,0.8385,1,,,,,,,,,,,,,,,,,,,,,,,,-0.000925913,-0.4046297,0,0,0,,,,,,,FLESH,HB,z,y,./images/FLESHHB.png,,,,,,,,,,,,,,,,,,,,z,1,0.8385,,,,,,,,0,7,7,108,1
,,,,,,,,,,,,,,,,,5d3f6bd087ee2600012908b1,21,2022-02-12_17h19.01.902,lexical_decision_task_DD_L2,2021.2.3,Win32,59.75500448,,,,,,,,,,,,1.0086,0,,,,,,,,,,,,,,,,,,,,,,,,-0.000925913,-0.4046297,0,0,0,,,,,,,CASINO,LB,z,y,./images/CASINOLB.png,,,,,,,,,,,,,,,,,,,,m,0,1.0086,,,,,,,,0,8,8,112,1
,,,,,,,,,,,,,,,,,5d3f6bd087ee2600012908b1,21,2022-02-12_17h19.01.902,lexical_decision_task_DD_L2,2021.2.3,Win32,59.75500448,,,,,,,,,,,,1.3662,1,,,,,,,,,,,,,,,,,,,,,,,,-0.000925913,-0.403703717,0,0,0,,,,,,,BUNNY,LB,z,y,./images/BUNNYLB.png,,,,,,,,,,,,,,,,,,,,z,1,1.3662,,,,,,,,0,9,9,97,1
,,,,,,,,,,,,,,,,,5d3f6bd087ee2600012908b1,21,2022-02-12_17h19.01.902,lexical_decision_task_DD_L2,2021.2.3,Win32,59.75500448,,,,,,,,,,,,0.7647,1,,,,,,,,,,,,,,,,,,,,,,,,-0.000925913,-0.4046297,0,0,0,,,,,,,MUSCLE,LB,m,y,./images/MUSCLELB.png,,,,,,,,,,,,,,,,,,,,m,1,0.7647,,,,,,,,0,10,10,4,1
,,,,,,,,,,,,,,,,,5d3f6bd087ee2600012908b1,21,2022-02-12_17h19.01.902,lexical_decision_task_DD_L2,2021.2.3,Win32,59.75500448,,,,,,,,,,,,0.94,1,,,,,,,,,,,,,,,,,,,,,,,,-0.000925913,-0.4046297,0,0,0,,,,,,,WALRUS,C,m,y,./images/WALRUS.png,,,,,,,,,,,,,,,,,,,,m,1,0.94,,,,,,,,0,11,11,23,1
,,,,,,,,,,,,,,,,,5d3f6bd087ee2600012908b1,21,2022-02-12_17h19.01.902,lexical_decision_task_DD_L2,2021.2.3,Win32,59.75500448,,,,,,,,,,,,1.0484,1,,,,,,,,,,,,,,,,,,,,,,,,-0.000925913,-0.4046297,0,0,0,,,,,,,GRAPE,LB,z,y,./images/GRAPELB.png,,,,,,,,,,,,,,,,,,,,z,1,1.0484,,,,,,,,0,12,12,100,1
,,,,,,,,,,,,,,,,,5d3f6bd087ee2600012908b1,21,2022-02-12_17h19.01.902,lexical_decision_task_DD_L2,2021.2.3,Win32,59.75500448,,,,,,,,,,,,0.6434,0,,,,,,,,,,,,,,,,,,,,,,,,-0.000925913,-0.4046297,0,0,0,,,,,,,SQUARE,HB,m,y,./images/SQUAREHB.png,,,,,,,,,,,,,,,,,,,,z,0,0.6434,,,,,,,,0,13,13,6,1
,,,,,,,,,,,,,,,,,5d3f6bd087ee2600012908b1,21,2022-02-12_17h19.01.902,lexical_decision_task_DD_L2,2021.2.3,Win32,59.75500448,,,,,,,,,,,,0.7327,1,,,,,,,,,,,,,,,,,,,,,,,,-0.000925913,-0.4046297,0,0,0,,,,,,,TIGER,LB,z,y,./images/TIGERLB.png,,,,,,,,,,,,,,,,,,,,z,1,0.7327,,,,,,,,0,14,14,121,1
,,,,,,,,,,,,,,,,,5d3f6bd087ee2600012908b1,21,2022-02-12_17h19.01.902,lexical_decision_task_DD_L2,2021.2.3,Win32,59.75500448,,,,,,,,,,,,1.2488,1,,,,,,,,,,,,,,,,,,,,,,,,-0.000925913,-0.4046297,0,0,0,,,,,,,COOKER,HB,m,y,./images/COOKERHB.png,,,,,,,,,,,,,,,,,,,,m,1,1.2488,,,,,,,,0,15,15,69,1
,,,,,,,,,,,,,,,,,5d3f6bd087ee2600012908b1,21,2022-02-12_17h19.01.902,lexical_decision_task_DD_L2,2021.2.3,Win32,59.75500448,,,,,,,,,,,,1.007,1,,,,,,,,,,,,,,,,,,,,,,,,-0.000925913,-0.403703717,0,0,0,,,,,,,WRIST,LB,m,y,./images/WRISTLB.png,,,,,,,,,,,,,,,,,,,,m,1,1.007,,,,,,,,0,16,16,25,1
,,,,,,,,,,,,,,,,,5d3f6bd087ee2600012908b1,21,2022-02-12_17h19.01.902,lexical_decision_task_DD_L2,2021.2.3,Win32,59.75500448,,,,,,,,,,,,0.6475,1,,,,,,,,,,,,,,,,,,,,,,,,-0.006481468,-0.411111125,0,0,0,,,,,,,MOOSE,HB,m,y,./images/MOOSEHB.png,,,,,,,,,,,,,,,,,,,,m,1,0.6475,,,,,,,,0,17,17,57,1
,,,,,,,,,,,,,,,,,5d3f6bd087ee2600012908b1,21,2022-02-12_17h19.01.902,lexical_decision_task_DD_L2,2021.2.3,Win32,59.75500448,,,,,,,,,,,,0.8188,1,,,,,,,,,,,,,,,,,,,,,,,,-0.009259246,-0.412037051,0,0,0,,,,,,,POKER,LB,z,y,./images/POKERLB.png,,,,,,,,,,,,,,,,,,,,z,1,0.8188,,,,,,,,0,18,18,151,1
,,,,,,,,,,,,,,,,,5d3f6bd087ee2600012908b1,21,2022-02-12_17h19.01.902,lexical_decision_task_DD_L2,2021.2.3,Win32,59.75500448,,,,,,,,,,,,0.8534,0,,,,,,,,,,,,,,,,,,,,,,,,-0.009259246,-0.419444458,0,0,0,,,,,,,HAMMER,HB,z,y,./images/HAMMERHB.png,,,,,,,,,,,,,,,,,,,,m,0,0.8534,,,,,,,,0,19,19,159,1
,,,,,,,,,,,,,,,,,5d3f6bd087ee2600012908b1,21,2022-02-12_17h19.01.902,lexical_decision_task_DD_L2,2021.2.3,Win32,59.75500448,,,,,,,,,,,,0.677,1,,,,,,,,,,,,,,,,,,,,,,,,-0.006481468,-0.41666668,0,0,0,,,,,,,LLAMA,C,z,y,./images/LLAMA.png,,,,,,,,,,,,,,,,,,,,z,1,0.677,,,,,,,,0,20,20,119,1
,,,,,,,,,,,,,,,,,5d3f6bd087ee2600012908b1,21,2022-02-12_17h19.01.902,lexical_decision_task_DD_L2,2021.2.3,Win32,59.75500448,,,,,,,,,,,,0.574,1,,,,,,,,,,,,,,,,,,,,,,,,-0.006481468,-0.41666668,0,0,0,,,,,,,RHINO,HB,m,y,./images/RHINOHB.png,,,,,,,,,,,,,,,,,,,,m,1,0.574,,,,,,,,0,21,21,9,1
,,,,,,,,,,,,,,,,,5d3f6bd087ee2600012908b1,21,2022-02-12_17h19.01.902,lexical_decision_task_DD_L2,2021.2.3,Win32,59.75500448,,,,,,,,,,,,0.6726,1,,,,,,,,,,,,,,,,,,,,,,,,-0.006481468,-0.41666668,0,0,0,,,,,,,MOSQUE,LB,m,y,./images/MOSQUELB.png,,,,,,,,,,,,,,,,,,,,m,1,0.6726,,,,,,,,0,22,22,43,1
,,,,,,,,,,,,,,,,,5d3f6bd087ee2600012908b1,21,2022-02-12_17h19.01.902,lexical_decision_task_DD_L2,2021.2.3,Win32,59.75500448,,,,,,,,,,,,0.6463,1,,,,,,,,,,,,,,,,,,,,,,,,-0.006481468,-0.413888959,0,0,0,,,,,,,LAGOON,C,z,y,./images/LAGOON.png,,,,,,,,,,,,,,,,,,,,z,1,0.6463,,,,,,,,0,23,23,131,1
,,,,,,,,,,,,,,,,,5d3f6bd087ee2600012908b1,21,2022-02-12_17h19.01.902,lexical_decision_task_DD_L2,2021.2.3,Win32,59.75500448,,,,,,,,,,,,0.5236,0,,,,,,,,,,,,,,,,,,,,,,,,-0.006481468,-0.409259329,0,0,0,,,,,,,CLIFF,C,z,y,./images/CLIFF.png,,,,,,,,,,,,,,,,,,,,m,0,0.5236,,,,,,,,0,24,24,92,1
,,,,,,,,,,,,,,,,,5d3f6bd087ee2600012908b1,21,2022-02-12_17h19.01.902,lexical_decision_task_DD_L2,2021.2.3,Win32,59.75500448,,,,,,,,,,,,0.7018,1,,,,,,,,,,,,,,,,,,,,,,,,-0.013888876,-0.418518589,0,0,0,,,,,,,DRUMS,LB,m,y,./images/DRUMSLB.png,,,,,,,,,,,,,,,,,,,,m,1,0.7018,,,,,,,,0,25,25,49,1
,,,,,,,,,,,,,,,,,5d3f6bd087ee2600012908b1,21,2022-02-12_17h19.01.902,lexical_decision_task_DD_L2,2021.2.3,Win32,59.75500448,,,,,,,,,,,,0.8506,1,,,,,,,,,,,,,,,,,,,,,,,,-0.01296295,-0.423148218,0,0,0,,,,,,,CANOE,LB,z,y,./images/CANOELB.png,,,,,,,,,,,,,,,,,,,,z,1,0.8506,,,,,,,,0,26,26,142,1
,,,,,,,,,,,,,,,,,5d3f6bd087ee2600012908b1,21,2022-02-12_17h19.01.902,lexical_decision_task_DD_L2,2021.2.3,Win32,59.75500448,,,,,,,,,,,,0.6317,1,,,,,,,,,,,,,,,,,,,,,,,,-0.012036967,-0.42129631,0,0,0,,,,,,,COUCH,C,m,y,./images/COUCH.png,,,,,,,,,,,,,,,,,,,,m,1,0.6317,,,,,,,,0,27,27,77,1
,,,,,,,,,,,,,,,,,5d3f6bd087ee2600012908b1,21,2022-02-12_17h19.01.902,lexical_decision_task_DD_L2,2021.2.3,Win32,59.75500448,,,,,,,,,,,,0.6607,1,,,,,,,,,,,,,,,,,,,,,,,,-0.014814802,-0.425000014,0,0,0,,,,,,,ONION,HB,m,y,./images/ONIONHB.png,,,,,,,,,,,,,,,,,,,,m,1,0.6607,,,,,,,,0,28,28,51,1
,,,,,,,,,,,,,,,,,5d3f6bd087ee2600012908b1,21,2022-02-12_17h19.01.902,lexical_decision_task_DD_L2,2021.2.3,Win32,59.75500448,,,,,,,,,,,,0.8536,1,,,,,,,,,,,,,,,,,,,,,,,,-0.018518506,-0.424074088,0,0,0,,,,,,,WHISKY,C,z,y,./images/WHISKY.png,,,,,,,,,,,,,,,,,,,,z,1,0.8536,,,,,,,,0,29,29,167,1
,,,,,,,,,,,,,,,,,5d3f6bd087ee2600012908b1,21,2022-02-12_17h19.01.902,lexical_decision_task_DD_L2,2021.2.3,Win32,59.75500448,,,,,,,,,,,,0.7905,1,,,,,,,,,,,,,,,,,,,,,,,,-0.022222209,-0.424074088,0,0,0,,,,,,,SAILOR,LB,m,y,./images/SAILORLB.png,,,,,,,,,,,,,,,,,,,,m,1,0.7905,,,,,,,,0,30,30,67,1
,,,,,,,,,,,,,,,,,5d3f6bd087ee2600012908b1,21,2022-02-12_17h19.01.902,lexical_decision_task_DD_L2,2021.2.3,Win32,59.75500448,,,,,,,,,,,,0.8062,1,,,,,,,,,,,,,,,,,,,,,,,,-0.020370357,-0.422222236,0,0,0,,,,,,,PLANET,C,z,y,./images/PLANET.png,,,,,,,,,,,,,,,,,,,,z,1,0.8062,,,,,,,,0,31,31,164,1
,,,,,,,,,,,,,,,,,5d3f6bd087ee2600012908b1,21,2022-02-12_17h19.01.902,lexical_decision_task_DD_L2,2021.2.3,Win32,59.75500448,,,,,,,,,,,,0.7552,0,,,,,,,,,,,,,,,,,,,,,,,,-0.024074061,-0.431481495,0,0,0,,,,,,,STORM,HB,m,y,./images/STORMHB.png,,,,,,,,,,,,,,,,,,,,z,0,0.7552,,,,,,,,0,32,32,30,1
,,,,,,,,,,,,,,,,,5d3f6bd087ee2600012908b1,21,2022-02-12_17h19.01.902,lexical_decision_task_DD_L2,2021.2.3,Win32,59.75500448,,,,,,,,,,,,1.5245,1,,,,,,,,,,,,,,,,,,,,,,,,-0.026851839,-0.434259273,0,0,0,,,,,,,FARMER,C,m,y,./images/FARMER.png,,,,,,,,,,,,,,,,,,,,m,1,1.5245,,,,,,,,0,33,33,65,1
,,,,,,,,,,,,,,,,,5d3f6bd087ee2600012908b1,21,2022-02-12_17h19.01.902,lexical_decision_task_DD_L2,2021.2.3,Win32,59.75500448,,,,,,,,,,,,0.6018,1,,,,,,,,,,,,,,,,,,,,,,,,-0.026851839,-0.435185199,0,0,0,,,,,,,MIRROR,HB,m,y,./images/MIRRORHB.png,,,,,,,,,,,,,,,,,,,,m,1,0.6018,,,,,,,,0,34,34,63,1
,,,,,,,,,,,,,,,,,5d3f6bd087ee2600012908b1,21,2022-02-12_17h19.01.902,lexical_decision_task_DD_L2,2021.2.3,Win32,59.75500448,,,,,,,,,,,,0.7149,1,,,,,,,,,,,,,,,,,,,,,,,,-0.026851839,-0.436111125,0,0,0,,,,,,,PARADE,C,z,y,./images/PARADE.png,,,,,,,,,,,,,,,,,,,,z,1,0.7149,,,,,,,,0,35,35,101,1
,,,,,,,,,,,,,,,,,5d3f6bd087ee2600012908b1,21,2022-02-12_17h19.01.902,lexical_decision_task_DD_L2,2021.2.3,Win32,59.75500448,,,,,,,,,,,,0.6677,1,,,,,,,,,,,,,,,,,,,,,,,,-0.027777765,-0.437962977,0,0,0,,,,,,,URINE,LB,m,y,./images/URINELB.png,,,,,,,,,,,,,,,,,,,,m,1,0.6677,,,,,,,,0,36,36,70,1
,,,,,,,,,,,,,,,,,5d3f6bd087ee2600012908b1,21,2022-02-12_17h19.01.902,lexical_decision_task_DD_L2,2021.2.3,Win32,59.75500448,,,,,,,,,,,,0.5838,1,,,,,,,,,,,,,,,,,,,,,,,,-0.029629617,-0.441666737,0,0,0,,,,,,,MELON,LB,m,y,./images/MELONLB.png,,,,,,,,,,,,,,,,,,,,m,1,0.5838,,,,,,,,0,37,37,22,1
,,,,,,,,,,,,,,,,,5d3f6bd087ee2600012908b1,21,2022-02-12_17h19.01.902,lexical_decision_task_DD_L2,2021.2.3,Win32,59.75500448,,,,,,,,,,,,0.726,0,,,,,,,,,,,,,,,,,,,,,,,,-0.030555486,-0.439814829,0,0,0,,,,,,,SAUCE,HB,z,y,./images/SAUCEHB.png,,,,,,,,,,,,,,,,,,,,m,0,0.726,,,,,,,,0,38,38,135,1
,,,,,,,,,,,,,,,,,5d3f6bd087ee2600012908b1,21,2022-02-12_17h19.01.902,lexical_decision_task_DD_L2,2021.2.3,Win32,59.75500448,,,,,,,,,,,,0.6827,0,,,,,,,,,,,,,,,,,,,,,,,,-0.030555486,-0.445370384,0,0,0,,,,,,,STOOL,LB,z,y,./images/STOOLLB.png,,,,,,,,,,,,,,,,,,,,m,0,0.6827,,,,,,,,0,39,39,127,1
,,,,,,,,,,,,,,,,,5d3f6bd087ee2600012908b1,21,2022-02-12_17h19.01.902,lexical_decision_task_DD_L2,2021.2.3,Win32,59.75500448,,,,,,,,,,,,1.2493,1,,,,,,,,,,,,,,,,,,,,,,,,-0.035185116,-0.445370384,0,0,0,,,,,,,STOVE,C,z,y,./images/STOVE.png,,,,,,,,,,,,,,,,,,,,z,1,1.2493,,,,,,,,0,40,40,86,1
,,,,,,,,,,,,,,,,,5d3f6bd087ee2600012908b1,21,2022-02-12_17h19.01.902,lexical_decision_task_DD_L2,2021.2.3,Win32,59.75500448,,,,,,,,,,,,0.7717,1,,,,,,,,,,,,,,,,,,,,,,,,-0.036111098,-0.444444459,0,0,0,space,,,,,,WEASEL,C,m,y,./images/WEASEL.png,2.2671,,,,,,,,,,,,,,,,,,,m,1,0.7717,,,,,,,,0,41,41,80,1
,,,,,,,,,,,,,,,,,5d3f6bd087ee2600012908b1,21,2022-02-12_17h19.01.902,lexical_decision_task_DD_L2,2021.2.3,Win32,59.75500448,,,,,,,,,,,,0.665,1,,,,,,,,,,,,,,,,,,,,,,,,-0.036111098,-0.446296367,0,0,0,,,,,,,VALLEY,C,z,y,./images/VALLEY.png,,,,,,,,,,,,,,,,,,,,z,1,0.665,,,,,,,,0,42,42,152,1
,,,,,,,,,,,,,,,,,5d3f6bd087ee2600012908b1,21,2022-02-12_17h19.01.902,lexical_decision_task_DD_L2,2021.2.3,Win32,59.75500448,,,,,,,,,,,,0.5193,1,,,,,,,,,,,,,,,,,,,,,,,,-0.03796295,-0.450000014,0,0,0,,,,,,,CANDLE,LB,m,y,./images/CANDLELB.png,,,,,,,,,,,,,,,,,,,,m,1,0.5193,,,,,,,,0,43,43,61,1
,,,,,,,,,,,,,,,,,5d3f6bd087ee2600012908b1,21,2022-02-12_17h19.01.902,lexical_decision_task_DD_L2,2021.2.3,Win32,59.75500448,,,,,,,,,,,,0.8486,1,,,,,,,,,,,,,,,,,,,,,,,,-0.037037024,-0.445370384,0,0,0,,,,,,,BISHOP,LB,z,y,./images/BISHOPLB.png,,,,,,,,,,,,,,,,,,,,z,1,0.8486,,,,,,,,0,44,44,133,1
,,,,,,,,,,,,,,,,,5d3f6bd087ee2600012908b1,21,2022-02-12_17h19.01.902,lexical_decision_task_DD_L2,2021.2.3,Win32,59.75500448,,,,,,,,,,,,0.6357,1,,,,,,,,,,,,,,,,,,,,,,,,-0.03796295,-0.45092594,0,0,0,,,,,,,MUFFIN,LB,m,y,./images/MUFFINLB.png,,,,,,,,,,,,,,,,,,,,m,1,0.6357,,,,,,,,0,45,45,55,1
,,,,,,,,,,,,,,,,,5d3f6bd087ee2600012908b1,21,2022-02-12_17h19.01.902,lexical_decision_task_DD_L2,2021.2.3,Win32,59.75500448,,,,,,,,,,,,0.8917,1,,,,,,,,,,,,,,,,,,,,,,,,-0.039814746,-0.450000014,0,0,0,,,,,,,FERRY,HB,z,y,./images/FERRYHB.png,,,,,,,,,,,,,,,,,,,,z,1,0.8917,,,,,,,,0,46,46,141,1
,,,,,,,,,,,,,,,,,5d3f6bd087ee2600012908b1,21,2022-02-12_17h19.01.902,lexical_decision_task_DD_L2,2021.2.3,Win32,59.75500448,,,,,,,,,,,,0.4679,0,,,,,,,,,,,,,,,,,,,,,,,,-0.040740728,-0.454629644,0,0,0,,,,,,,BASKET,C,z,y,./images/BASKET.png,,,,,,,,,,,,,,,,,,,,m,0,0.4679,,,,,,,,0,47,47,128,1
,,,,,,,,,,,,,,,,,5d3f6bd087ee2600012908b1,21,2022-02-12_17h19.01.902,lexical_decision_task_DD_L2,2021.2.3,Win32,59.75500448,,,,,,,,,,,,0.5169,1,,,,,,,,,,,,,,,,,,,,,,,,-0.043518506,-0.45555557,0,0,0,,,,,,,JUNGLE,C,m,y,./images/JUNGLE.png,,,,,,,,,,,,,,,,,,,,m,1,0.5169,,,,,,,,0,48,48,83,1
,,,,,,,,,,,,,,,,,5d3f6bd087ee2600012908b1,21,2022-02-12_17h19.01.902,lexical_decision_task_DD_L2,2021.2.3,Win32,59.75500448,,,,,,,,,,,,0.5982,1,,,,,,,,,,,,,,,,,,,,,,,,-0.04259258,-0.451851866,0,0,0,,,,,,,CRUST,LB,m,y,./images/CRUSTLB.png,,,,,,,,,,,,,,,,,,,,m,1,0.5982,,,,,,,,0,49,49,79,1
,,,,,,,,,,,,,,,,,5d3f6bd087ee2600012908b1,21,2022-02-12_17h19.01.902,lexical_decision_task_DD_L2,2021.2.3,Win32,59.75500448,,,,,,,,,,,,0.4831,1,,,,,,,,,,,,,,,,,,,,,,,,-0.048148136,-0.459259274,0,0,0,,,,,,,BARREL,C,m,y,./images/BARREL.png,,,,,,,,,,,,,,,,,,,,m,1,0.4831,,,,,,,,0,50,50,32,1
,,,,,,,,,,,,,,,,,5d3f6bd087ee2600012908b1,21,2022-02-12_17h19.01.902,lexical_decision_task_DD_L2,2021.2.3,Win32,59.75500448,,,,,,,,,,,,0.4664,0,,,,,,,,,,,,,,,,,,,,,,,,-0.04722221,-0.45555557,0,0,0,,,,,,,CHAIN,HB,z,y,./images/CHAINHB.png,,,,,,,,,,,,,,,,,,,,m,0,0.4664,,,,,,,,0,51,51,126,1
,,,,,,,,,,,,,,,,,5d3f6bd087ee2600012908b1,21,2022-02-12_17h19.01.902,lexical_decision_task_DD_L2,2021.2.3,Win32,59.75500448,,,,,,,,,,,,0.6006,1,,,,,,,,,,,,,,,,,,,,,,,,-0.049074005,-0.45555557,0,0,0,,,,,,,SNAKE,LB,z,y,./images/SNAKELB.png,,,,,,,,,,,,,,,,,,,,z,1,0.6006,,,,,,,,0,52,52,124,1
,,,,,,,,,,,,,,,,,5d3f6bd087ee2600012908b1,21,2022-02-12_17h19.01.902,lexical_decision_task_DD_L2,2021.2.3,Win32,59.75500448,,,,,,,,,,,,0.6699,1,,,,,,,,,,,,,,,,,,,,,,,,-0.054629617,-0.462037051,0,0,0,,,,,,,CLOWN,LB,z,y,./images/CLOWNLB.png,,,,,,,,,,,,,,,,,,,,z,1,0.6699,,,,,,,,0,53,53,106,1
,,,,,,,,,,,,,,,,,5d3f6bd087ee2600012908b1,21,2022-02-12_17h19.01.902,lexical_decision_task_DD_L2,2021.2.3,Win32,59.75500448,,,,,,,,,,,,0.6002,0,,,,,,,,,,,,,,,,,,,,,,,,-0.052777765,-0.460185199,0,0,0,,,,,,,WAGON,LB,z,y,./images/WAGONLB.png,,,,,,,,,,,,,,,,,,,,m,0,0.6002,,,,,,,,0,54,54,91,1
,,,,,,,,,,,,,,,,,5d3f6bd087ee2600012908b1,21,2022-02-12_17h19.01.902,lexical_decision_task_DD_L2,2021.2.3,Win32,59.75500448,,,,,,,,,,,,0.6584,0,,,,,,,,,,,,,,,,,,,,,,,,-0.055555543,-0.467592607,0,0,0,,,,,,,SCREW,HB,m,y,./images/SCREWHB.png,,,,,,,,,,,,,,,,,,,,z,0,0.6584,,,,,,,,0,55,55,24,1
,,,,,,,,,,,,,,,,,5d3f6bd087ee2600012908b1,21,2022-02-12_17h19.01.902,lexical_decision_task_DD_L2,2021.2.3,Win32,59.75500448,,,,,,,,,,,,1.1299,1,,,,,,,,,,,,,,,,,,,,,,,,-0.057407395,-0.462037051,0,0,0,,,,,,,DANCER,HB,z,y,./images/DANCERHB.png,,,,,,,,,,,,,,,,,,,,z,1,1.1299,,,,,,,,0,56,56,105,1
,,,,,,,,,,,,,,,,,5d3f6bd087ee2600012908b1,21,2022-02-12_17h19.01.902,lexical_decision_task_DD_L2,2021.2.3,Win32,59.75500448,,,,,,,,,,,,0.7986,1,,,,,,,,,,,,,,,,,,,,,,,,-0.063888877,-0.465740755,0,0,0,,,,,,,BEARD,C,m,y,./images/BEARD.png,,,,,,,,,,,,,,,,,,,,m,1,0.7986,,,,,,,,0,57,57,2,1
,,,,,,,,,,,,,,,,,5d3f6bd087ee2600012908b1,21,2022-02-12_17h19.01.902,lexical_decision_task_DD_L2,2021.2.3,Win32,59.75500448,,,,,,,,,,,,0.8895,1,,,,,,,,,,,,,,,,,,,,,,,,-0.067592524,-0.459259274,0,0,0,,,,,,,DONKEY,LB,z,y,./images/DONKEYLB.png,,,,,,,,,,,,,,,,,,,,z,1,0.8895,,,,,,,,0,58,58,103,1
,,,,,,,,,,,,,,,,,5d3f6bd087ee2600012908b1,21,2022-02-12_17h19.01.902,lexical_decision_task_DD_L2,2021.2.3,Win32,59.75500448,,,,,,,,,,,,0.6815,1,,,,,,,,,,,,,,,,,,,,,,,,-0.071296284,-0.464814829,0,0,0,,,,,,,FINGER,HB,m,y,./images/FINGERHB.png,,,,,,,,,,,,,,,,,,,,m,1,0.6815,,,,,,,,0,59,59,3,1
,,,,,,,,,,,,,,,,,5d3f6bd087ee2600012908b1,21,2022-02-12_17h19.01.902,lexical_decision_task_DD_L2,2021.2.3,Win32,59.75500448,,,,,,,,,,,,0.571,1,,,,,,,,,,,,,,,,,,,,,,,,-0.075925914,-0.467592607,0,0,0,,,,,,,PEACH,C,m,y,./images/PEACH.png,,,,,,,,,,,,,,,,,,,,m,1,0.571,,,,,,,,0,60,60,35,1
,,,,,,,,,,,,,,,,,5d3f6bd087ee2600012908b1,21,2022-02-12_17h19.01.902,lexical_decision_task_DD_L2,2021.2.3,Win32,59.75500448,,,,,,,,,,,,0.5206,0,,,,,,,,,,,,,,,,,,,,,,,,-0.077777766,-0.469444459,0,0,0,,,,,,,FLASK,HB,z,y,./images/FLASKHB.png,,,,,,,,,,,,,,,,,,,,m,0,0.5206,,,,,,,,0,61,61,156,1
,,,,,,,,,,,,,,,,,5d3f6bd087ee2600012908b1,21,2022-02-12_17h19.01.902,lexical_decision_task_DD_L2,2021.2.3,Win32,59.75500448,,,,,,,,,,,,0.7008,1,,,,,,,,,,,,,,,,,,,,,,,,-0.075925914,-0.472222237,0,0,0,,,,,,,BLOKE,HB,z,y,./images/BLOKEHB.png,,,,,,,,,,,,,,,,,,,,z,1,0.7008,,,,,,,,0,62,62,96,1
,,,,,,,,,,,,,,,,,5d3f6bd087ee2600012908b1,21,2022-02-12_17h19.01.902,lexical_decision_task_DD_L2,2021.2.3,Win32,59.75500448,,,,,,,,,,,,0.7981,1,,,,,,,,,,,,,,,,,,,,,,,,-0.074074062,-0.471296311,0,0,0,,,,,,,SUNSET,LB,m,y,./images/SUNSETLB.png,,,,,,,,,,,,,,,,,,,,m,1,0.7981,,,,,,,,0,63,63,82,1
,,,,,,,,,,,,,,,,,5d3f6bd087ee2600012908b1,21,2022-02-12_17h19.01.902,lexical_decision_task_DD_L2,2021.2.3,Win32,59.75500448,,,,,,,,,,,,0.6986,1,,,,,,,,,,,,,,,,,,,,,,,,-0.078703692,-0.474074089,0,0,0,,,,,,,PEBBLE,LB,z,y,./images/PEBBLELB.png,,,,,,,,,,,,,,,,,,,,z,1,0.6986,,,,,,,,0,64,64,166,1
,,,,,,,,,,,,,,,,,5d3f6bd087ee2600012908b1,21,2022-02-12_17h19.01.902,lexical_decision_task_DD_L2,2021.2.3,Win32,59.75500448,,,,,,,,,,,,0.4826,1,,,,,,,,,,,,,,,,,,,,,,,,-0.089814803,-0.486111126,0,0,0,,,,,,,ATTIC,HB,m,y,./images/ATTICHB.png,,,,,,,,,,,,,,,,,,,,m,1,0.4826,,,,,,,,0,65,65,27,1
,,,,,,,,,,,,,,,,,5d3f6bd087ee2600012908b1,21,2022-02-12_17h19.01.902,lexical_decision_task_DD_L2,2021.2.3,Win32,59.75500448,,,,,,,,,,,,0.4583,0,,,,,,,,,,,,,,,,,,,,,,,,-0.093518507,-0.486111126,0,0,0,,,,,,,CLOUD,C,z,y,./images/CLOUD.png,,,,,,,,,,,,,,,,,,,,m,0,0.4583,,,,,,,,0,66,66,110,1
,,,,,,,,,,,,,,,,,5d3f6bd087ee2600012908b1,21,2022-02-12_17h19.01.902,lexical_decision_task_DD_L2,2021.2.3,Win32,59.75500448,,,,,,,,,,,,0.5081,0,,,,,,,,,,,,,,,,,,,,,,,,-0.096296284,-0.486111126,0,0,0,,,,,,,PLANK,LB,m,y,./images/PLANKLB.png,,,,,,,,,,,,,,,,,,,,z,0,0.5081,,,,,,,,0,67,67,1,1
,,,,,,,,,,,,,,,,,5d3f6bd087ee2600012908b1,21,2022-02-12_17h19.01.902,lexical_decision_task_DD_L2,2021.2.3,Win32,59.75500448,,,,,,,,,,,,0.7165,1,,,,,,,,,,,,,,,,,,,,,,,,-0.096296284,-0.488888904,0,0,0,,,,,,,KIDNEY,HB,m,y,./images/KIDNEYHB.png,,,,,,,,,,,,,,,,,,,,m,1,0.7165,,,,,,,,0,68,68,21,1
,,,,,,,,,,,,,,,,,5d3f6bd087ee2600012908b1,21,2022-02-12_17h19.01.902,lexical_decision_task_DD_L2,2021.2.3,Win32,59.75500448,,,,,,,,,,,,0.5742,1,,,,,,,,,,,,,,,,,,,,,,,,-0.093518507,-0.487962978,0,0,0,,,,,,,LITTER,HB,m,y,./images/LITTERHB.png,,,,,,,,,,,,,,,,,,,,m,1,0.5742,,,,,,,,0,69,69,78,1
,,,,,,,,,,,,,,,,,5d3f6bd087ee2600012908b1,21,2022-02-12_17h19.01.902,lexical_decision_task_DD_L2,2021.2.3,Win32,59.75500448,,,,,,,,,,,,0.7321,1,,,,,,,,,,,,,,,,,,,,,,,,-0.09722221,-0.493518533,0,0,0,,,,,,,MIDGET,LB,z,y,./images/MIDGETLB.png,,,,,,,,,,,,,,,,,,,,z,1,0.7321,,,,,,,,0,70,70,160,1
,,,,,,,,,,,,,,,,,5d3f6bd087ee2600012908b1,21,2022-02-12_17h19.01.902,lexical_decision_task_DD_L2,2021.2.3,Win32,59.75500448,,,,,,,,,,,,0.6166,1,,,,,,,,,,,,,,,,,,,,,,,,-0.099999932,-0.493518533,0,0,0,,,,,,,PICKLE,C,m,y,./images/PICKLE.png,,,,,,,,,,,,,,,,,,,,m,1,0.6166,,,,,,,,0,71,71,14,1
,,,,,,,,,,,,,,,,,5d3f6bd087ee2600012908b1,21,2022-02-12_17h19.01.902,lexical_decision_task_DD_L2,2021.2.3,Win32,59.75500448,,,,,,,,,,,,1.3477,0,,,,,,,,,,,,,,,,,,,,,,,,-0.104629561,-0.498148163,0,0,0,,,,,,,SMOKER,C,m,y,./images/SMOKER.png,,,,,,,,,,,,,,,,,,,,z,0,1.3477,,,,,,,,0,72,72,26,1
,,,,,,,,,,,,,,,,,5d3f6bd087ee2600012908b1,21,2022-02-12_17h19.01.902,lexical_decision_task_DD_L2,2021.2.3,Win32,59.75500448,,,,,,,,,,,,0.6156,1,,,,,,,,,,,,,,,,,,,,,,,,-0.103703692,-0.496296311,0,0,0,,,,,,,BERRY,C,m,y,./images/BERRY.png,,,,,,,,,,,,,,,,,,,,m,1,0.6156,,,,,,,,0,73,73,47,1
,,,,,,,,,,,,,,,,,5d3f6bd087ee2600012908b1,21,2022-02-12_17h19.01.902,lexical_decision_task_DD_L2,2021.2.3,Win32,59.75500448,,,,,,,,,,,,0.6463,1,,,,,,,,,,,,,,,,,,,,,,,,-0.110185174,-0.499074089,0,0,0,,,,,,,THROAT,HB,m,y,./images/THROATHB.png,,,,,,,,,,,,,,,,,,,,m,1,0.6463,,,,,,,,0,74,74,36,1
,,,,,,,,,,,,,,,,,5d3f6bd087ee2600012908b1,21,2022-02-12_17h19.01.902,lexical_decision_task_DD_L2,2021.2.3,Win32,59.75500448,,,,,,,,,,,,0.6152,1,,,,,,,,,,,,,,,,,,,,,,,,-0.112962951,-0.499074089,0,0,0,,,,,,,BURIAL,C,m,y,./images/BURIAL.png,,,,,,,,,,,,,,,,,,,,m,1,0.6152,,,,,,,,0,75,75,59,1
,,,,,,,,,,,,,,,,,5d3f6bd087ee2600012908b1,21,2022-02-12_17h19.01.902,lexical_decision_task_DD_L2,2021.2.3,Win32,59.75500448,,,,,,,,,,,,0.4672,1,,,,,,,,,,,,,,,,,,,,,,,,-0.112962951,-0.48981483,0,0,0,,,,,,,LIZARD,C,m,y,./images/LIZARD.png,,,,,,,,,,,,,,,,,,,,m,1,0.4672,,,,,,,,0,76,76,44,1
,,,,,,,,,,,,,,,,,5d3f6bd087ee2600012908b1,21,2022-02-12_17h19.01.902,lexical_decision_task_DD_L2,2021.2.3,Win32,59.75500448,,,,,,,,,,,,0.8,1,,,,,,,,,,,,,,,,,,,,,,,,-0.1111111,-0.494444459,0,0,0,,,,,,,KITTEN,HB,m,y,./images/KITTENHB.png,,,,,,,,,,,,,,,,,,,,m,1,0.8,,,,,,,,0,77,77,45,1
,,,,,,,,,,,,,,,,,5d3f6bd087ee2600012908b1,21,2022-02-12_17h19.01.902,lexical_decision_task_DD_L2,2021.2.3,Win32,59.75500448,,,,,,,,,,,,0.5817,1,,,,,,,,,,,,,,,,,,,,,,,,-0.1111111,-0.494444459,0,0,0,,,,,,,STATUE,HB,z,y,./images/STATUEHB.png,,,,,,,,,,,,,,,,,,,,z,1,0.5817,,,,,,,,0,78,78,150,1
,,,,,,,,,,,,,,,,,5d3f6bd087ee2600012908b1,21,2022-02-12_17h19.01.902,lexical_decision_task_DD_L2,2021.2.3,Win32,59.75500448,,,,,,,,,,,,0.6174,1,,,,,,,,,,,,,,,,,,,,,,,,-0.1111111,-0.495370385,0,0,0,,,,,,,MALLET,C,m,y,./images/MALLET.png,,,,,,,,,,,,,,,,,,,,m,1,0.6174,,,,,,,,0,79,79,50,1
,,,,,,,,,,,,,,,,,5d3f6bd087ee2600012908b1,21,2022-02-12_17h19.01.902,lexical_decision_task_DD_L2,2021.2.3,Win32,59.75500448,,,,,,,,,,,,0.7401,1,,,,,,,,,,,,,,,,,,,,,,,,-0.1111111,-0.495370385,0,0,0,,,,,,,WALNUT,HB,z,y,./images/WALNUTHB.png,,,,,,,,,,,,,,,,,,,,z,1,0.7401,,,,,,,,0,80,80,84,1
,,,,,,,,,,,,,,,,,5d3f6bd087ee2600012908b1,21,2022-02-12_17h19.01.902,lexical_decision_task_DD_L2,2021.2.3,Win32,59.75500448,,,,,,,,,,,,0.6594,1,,,,,,,,,,,,,,,,,,,,,,,,-0.1111111,-0.495370385,0,0,0,,,,,,,SKIING,C,m,y,./images/SKIING.png,,,,,,,,,,,,,,,,,,,,m,1,0.6594,,,,,,,,0,81,81,17,1
,,,,,,,,,,,,,,,,,5d3f6bd087ee2600012908b1,21,2022-02-12_17h19.01.902,lexical_decision_task_DD_L2,2021.2.3,Win32,59.75500448,,,,,,,,,,,,2.0549,0,,,,,,,,,,,,,,,,,,,,,,,,-0.1111111,-0.495370385,0,0,0,,,,,,,BAKER,HB,z,y,./images/BAKERHB.png,,,,,,,,,,,,,,,,,,,,m,0,2.0549,,,,,,,,0,82,82,147,1
,,,,,,,,,,,,,,,,,5d3f6bd087ee2600012908b1,21,2022-02-12_17h19.01.902,lexical_decision_task_DD_L2,2021.2.3,Win32,59.75500448,,,,,,,,,,,,0.5567,1,,,,,,,,,,,,,,,,,,,,,,,,-0.1111111,-0.491666681,0,0,0,space,,,,,,STRING,C,m,y,./images/STRING.png,1.826,,,,,,,,,,,,,,,,,,,m,1,0.5567,,,,,,,,0,83,83,41,1
,,,,,,,,,,,,,,,,,5d3f6bd087ee2600012908b1,21,2022-02-12_17h19.01.902,lexical_decision_task_DD_L2,2021.2.3,Win32,59.75500448,,,,,,,,,,,,0.6831,1,,,,,,,,,,,,,,,,,,,,,,,,-0.119444433,-0.497222237,0,0,0,,,,,,,POSTER,C,z,y,./images/POSTER.png,,,,,,,,,,,,,,,,,,,,z,1,0.6831,,,,,,,,0,84,84,137,1
,,,,,,,,,,,,,,,,,5d3f6bd087ee2600012908b1,21,2022-02-12_17h19.01.902,lexical_decision_task_DD_L2,2021.2.3,Win32,59.75500448,,,,,,,,,,,,0.7733,1,,,,,,,,,,,,,,,,,,,,,,,,-0.121296285,-0.499074089,0,0,0,,,,,,,BANNER,LB,m,y,./images/BANNERLB.png,,,,,,,,,,,,,,,,,,,,m,1,0.7733,,,,,,,,0,85,85,52,1
,,,,,,,,,,,,,,,,,5d3f6bd087ee2600012908b1,21,2022-02-12_17h19.01.902,lexical_decision_task_DD_L2,2021.2.3,Win32,59.75500448,,,,,,,,,,,,0.5521,1,,,,,,,,,,,,,,,,,,,,,,,,-0.121296285,-0.494444459,0,0,0,,,,,,,PAINT,LB,m,y,./images/PAINTLB.png,,,,,,,,,,,,,,,,,,,,m,1,0.5521,,,,,,,,0,86,86,7,1
,,,,,,,,,,,,,,,,,5d3f6bd087ee2600012908b1,21,2022-02-12_17h19.01.902,lexical_decision_task_DD_L2,2021.2.3,Win32,59.75500448,,,,,,,,,,,,0.5546,1,,,,,,,,,,,,,,,,,,,,,,,,-0.12685184,-0.496296311,0,0,0,,,,,,,SNACK,LB,m,y,./images/SNACKLB.png,,,,,,,,,,,,,,,,,,,,m,1,0.5546,,,,,,,,0,87,87,73,1
,,,,,,,,,,,,,,,,,5d3f6bd087ee2600012908b1,21,2022-02-12_17h19.01.902,lexical_decision_task_DD_L2,2021.2.3,Win32,59.75500448,,,,,,,,,,,,1.3671,0,,,,,,,,,,,,,,,,,,,,,,,,-0.13240734,-0.497222237,0,0,0,,,,,,,ARTIST,LB,z,y,./images/ARTISTLB.png,,,,,,,,,,,,,,,,,,,,m,0,1.3671,,,,,,,,0,88,88,145,1
,,,,,,,,,,,,,,,,,5d3f6bd087ee2600012908b1,21,2022-02-12_17h19.01.902,lexical_decision_task_DD_L2,2021.2.3,Win32,59.75500448,,,,,,,,,,,,0.8004,1,,,,,,,,,,,,,,,,,,,,,,,,-0.1361111,-0.499074089,0,0,0,,,,,,,ARROW,HB,z,y,./images/ARROWHB.png,,,,,,,,,,,,,,,,,,,,z,1,0.8004,,,,,,,,0,89,89,153,1
,,,,,,,,,,,,,,,,,5d3f6bd087ee2600012908b1,21,2022-02-12_17h19.01.902,lexical_decision_task_DD_L2,2021.2.3,Win32,59.75500448,,,,,,,,,,,,0.655,1,,,,,,,,,,,,,,,,,,,,,,,,-0.133333322,-0.496296311,0,0,0,,,,,,,BONNET,C,m,y,./images/BONNET.png,,,,,,,,,,,,,,,,,,,,m,1,0.655,,,,,,,,0,90,90,11,1
,,,,,,,,,,,,,,,,,5d3f6bd087ee2600012908b1,21,2022-02-12_17h19.01.902,lexical_decision_task_DD_L2,2021.2.3,Win32,59.75500448,,,,,,,,,,,,0.9679,1,,,,,,,,,,,,,,,,,,,,,,,,-0.133333322,-0.493518533,0,0,0,,,,,,,BIRTH,LB,m,y,./images/BIRTHLB.png,,,,,,,,,,,,,,,,,,,,m,1,0.9679,,,,,,,,0,91,91,37,1
,,,,,,,,,,,,,,,,,5d3f6bd087ee2600012908b1,21,2022-02-12_17h19.01.902,lexical_decision_task_DD_L2,2021.2.3,Win32,59.75500448,,,,,,,,,,,,0.7646,1,,,,,,,,,,,,,,,,,,,,,,,,-0.137036969,-0.494444459,0,0,0,,,,,,,CANYON,LB,m,y,./images/CANYONLB.png,,,,,,,,,,,,,,,,,,,,m,1,0.7646,,,,,,,,0,92,92,34,1
,,,,,,,,,,,,,,,,,5d3f6bd087ee2600012908b1,21,2022-02-12_17h19.01.902,lexical_decision_task_DD_L2,2021.2.3,Win32,59.75500448,,,,,,,,,,,,0.606,0,,,,,,,,,,,,,,,,,,,,,,,,-0.137036969,-0.491666681,0,0,0,,,,,,,TORCH,C,m,y,./images/TORCH.png,,,,,,,,,,,,,,,,,,,,z,0,0.606,,,,,,,,0,93,93,68,1
,,,,,,,,,,,,,,,,,5d3f6bd087ee2600012908b1,21,2022-02-12_17h19.01.902,lexical_decision_task_DD_L2,2021.2.3,Win32,59.75500448,,,,,,,,,,,,0.567,0,,,,,,,,,,,,,,,,,,,,,,,,-0.1361111,-0.495370385,0,0,0,,,,,,,BROOM,HB,z,y,./images/BROOMHB.png,,,,,,,,,,,,,,,,,,,,m,0,0.567,,,,,,,,0,94,94,162,1
,,,,,,,,,,,,,,,,,5d3f6bd087ee2600012908b1,21,2022-02-12_17h19.01.902,lexical_decision_task_DD_L2,2021.2.3,Win32,59.75500448,,,,,,,,,,,,0.6327,0,,,,,,,,,,,,,,,,,,,,,,,,-0.1361111,-0.495370385,0,0,0,,,,,,,TOWEL,LB,z,y,./images/TOWELLB.png,,,,,,,,,,,,,,,,,,,,m,0,0.6327,,,,,,,,0,95,95,85,1
,,,,,,,,,,,,,,,,,5d3f6bd087ee2600012908b1,21,2022-02-12_17h19.01.902,lexical_decision_task_DD_L2,2021.2.3,Win32,59.75500448,,,,,,,,,,,,0.8091,1,,,,,,,,,,,,,,,,,,,,,,,,-0.137036969,-0.492592607,0,0,0,,,,,,,MAMMAL,C,z,y,./images/MAMMAL.png,,,,,,,,,,,,,,,,,,,,z,1,0.8091,,,,,,,,0,96,96,146,1
,,,,,,,,,,,,,,,,,5d3f6bd087ee2600012908b1,21,2022-02-12_17h19.01.902,lexical_decision_task_DD_L2,2021.2.3,Win32,59.75500448,,,,,,,,,,,,0.5007,1,,,,,,,,,,,,,,,,,,,,,,,,-0.144444433,-0.493518533,0,0,0,,,,,,,TULIP,C,m,y,./images/TULIP.png,,,,,,,,,,,,,,,,,,,,m,1,0.5007,,,,,,,,0,97,97,8,1
,,,,,,,,,,,,,,,,,5d3f6bd087ee2600012908b1,21,2022-02-12_17h19.01.902,lexical_decision_task_DD_L2,2021.2.3,Win32,59.75500448,,,,,,,,,,,,0.6028,1,,,,,,,,,,,,,,,,,,,,,,,,-0.147222211,-0.497222237,0,0,0,,,,,,,BABOON,LB,m,y,./images/BABOONLB.png,,,,,,,,,,,,,,,,,,,,m,1,0.6028,,,,,,,,0,98,98,58,1
,,,,,,,,,,,,,,,,,5d3f6bd087ee2600012908b1,21,2022-02-12_17h19.01.902,lexical_decision_task_DD_L2,2021.2.3,Win32,59.75500448,,,,,,,,,,,,0.8689,1,,,,,,,,,,,,,,,,,,,,,,,,-0.149999989,-0.494444459,0,0,0,,,,,,,BUBBLE,C,z,y,./images/BUBBLE.png,,,,,,,,,,,,,,,,,,,,z,1,0.8689,,,,,,,,0,99,99,155,1
,,,,,,,,,,,,,,,,,5d3f6bd087ee2600012908b1,21,2022-02-12_17h19.01.902,lexical_decision_task_DD_L2,2021.2.3,Win32,59.75500448,,,,,,,,,,,,0.6669,0,,,,,,,,,,,,,,,,,,,,,,,,-0.151851841,-0.4851852,0,0,0,,,,,,,CRADLE,C,m,y,./images/CRADLE.png,,,,,,,,,,,,,,,,,,,,z,0,0.6669,,,,,,,,0,100,100,20,1
,,,,,,,,,,,,,,,,,5d3f6bd087ee2600012908b1,21,2022-02-12_17h19.01.902,lexical_decision_task_DD_L2,2021.2.3,Win32,59.75500448,,,,,,,,,,,,0.7492,1,,,,,,,,,,,,,,,,,,,,,,,,-0.154629619,-0.490740756,0,0,0,,,,,,,RULER,LB,z,y,./images/RULERLB.png,,,,,,,,,,,,,,,,,,,,z,1,0.7492,,,,,,,,0,101,101,163,1
,,,,,,,,,,,,,,,,,5d3f6bd087ee2600012908b1,21,2022-02-12_17h19.01.902,lexical_decision_task_DD_L2,2021.2.3,Win32,59.75500448,,,,,,,,,,,,0.7331,1,,,,,,,,,,,,,,,,,,,,,,,,-0.156481471,-0.498148163,0,0,0,,,,,,,CHERRY,HB,z,y,./images/CHERRYHB.png,,,,,,,,,,,,,,,,,,,,z,1,0.7331,,,,,,,,0,102,102,138,1
,,,,,,,,,,,,,,,,,5d3f6bd087ee2600012908b1,21,2022-02-12_17h19.01.902,lexical_decision_task_DD_L2,2021.2.3,Win32,59.75500448,,,,,,,,,,,,1.1929,0,,,,,,,,,,,,,,,,,,,,,,,,-0.166666656,-0.494444459,0,0,0,,,,,,,SPORT,HB,m,y,./images/SPORTHB.png,,,,,,,,,,,,,,,,,,,,z,0,1.1929,,,,,,,,0,103,103,48,1
,,,,,,,,,,,,,,,,,5d3f6bd087ee2600012908b1,21,2022-02-12_17h19.01.902,lexical_decision_task_DD_L2,2021.2.3,Win32,59.75500448,,,,,,,,,,,,0.6166,0,,,,,,,,,,,,,,,,,,,,,,,,-0.166666656,-0.497222237,0,0,0,,,,,,,BOXER,LB,z,y,./images/BOXERLB.png,,,,,,,,,,,,,,,,,,,,m,0,0.6166,,,,,,,,0,104,104,88,1
,,,,,,,,,,,,,,,,,5d3f6bd087ee2600012908b1,21,2022-02-12_17h19.01.902,lexical_decision_task_DD_L2,2021.2.3,Win32,59.75500448,,,,,,,,,,,,0.567,1,,,,,,,,,,,,,,,,,,,,,,,,-0.17037036,-0.496296311,0,0,0,,,,,,,PURSE,C,m,y,./images/PURSE.png,,,,,,,,,,,,,,,,,,,,m,1,0.567,,,,,,,,0,105,105,62,1
,,,,,,,,,,,,,,,,,5d3f6bd087ee2600012908b1,21,2022-02-12_17h19.01.902,lexical_decision_task_DD_L2,2021.2.3,Win32,59.75500448,,,,,,,,,,,,0.7098,1,,,,,,,,,,,,,,,,,,,,,,,,-0.174074007,-0.499074089,0,0,0,,,,,,,STAIN,HB,z,y,./images/STAINHB.png,,,,,,,,,,,,,,,,,,,,z,1,0.7098,,,,,,,,0,106,106,90,1
,,,,,,,,,,,,,,,,,5d3f6bd087ee2600012908b1,21,2022-02-12_17h19.01.902,lexical_decision_task_DD_L2,2021.2.3,Win32,59.75500448,,,,,,,,,,,,1.355,1,,,,,,,,,,,,,,,,,,,,,,,,-0.176851841,-0.498148163,0,0,0,,,,,,,SHORE,HB,m,y,./images/SHOREHB.png,,,,,,,,,,,,,,,,,,,,m,1,1.355,,,,,,,,0,107,107,12,1
,,,,,,,,,,,,,,,,,5d3f6bd087ee2600012908b1,21,2022-02-12_17h19.01.902,lexical_decision_task_DD_L2,2021.2.3,Win32,59.75500448,,,,,,,,,,,,2.1818,1,,,,,,,,,,,,,,,,,,,,,,,,-0.181481471,-0.492592607,0,0,0,,,,,,,COLLAR,HB,z,y,./images/COLLARHB.png,,,,,,,,,,,,,,,,,,,,z,1,2.1818,,,,,,,,0,108,108,99,1
,,,,,,,,,,,,,,,,,5d3f6bd087ee2600012908b1,21,2022-02-12_17h19.01.902,lexical_decision_task_DD_L2,2021.2.3,Win32,59.75500448,,,,,,,,,,,,0.7322,1,,,,,,,,,,,,,,,,,,,,,,,,-0.184259249,-0.497222237,0,0,0,,,,,,,DIVER,HB,z,y,./images/DIVERHB.png,,,,,,,,,,,,,,,,,,,,z,1,0.7322,,,,,,,,0,109,109,93,1
,,,,,,,,,,,,,,,,,5d3f6bd087ee2600012908b1,21,2022-02-12_17h19.01.902,lexical_decision_task_DD_L2,2021.2.3,Win32,59.75500448,,,,,,,,,,,,1.0012,1,,,,,,,,,,,,,,,,,,,,,,,,-0.183333266,-0.494444459,0,0,0,,,,,,,MOTOR,LB,m,y,./images/MOTORLB.png,,,,,,,,,,,,,,,,,,,,m,1,1.0012,,,,,,,,0,110,110,13,1
,,,,,,,,,,,,,,,,,5d3f6bd087ee2600012908b1,21,2022-02-12_17h19.01.902,lexical_decision_task_DD_L2,2021.2.3,Win32,59.75500448,,,,,,,,,,,,0.6848,0,,,,,,,,,,,,,,,,,,,,,,,,-0.187962896,-0.498148163,0,0,0,,,,,,,TWINS,HB,m,y,./images/TWINSHB.png,,,,,,,,,,,,,,,,,,,,z,0,0.6848,,,,,,,,0,111,111,60,1
,,,,,,,,,,,,,,,,,5d3f6bd087ee2600012908b1,21,2022-02-12_17h19.01.902,lexical_decision_task_DD_L2,2021.2.3,Win32,59.75500448,,,,,,,,,,,,2.978,0,,,,,,,,,,,,,,,,,,,,,,,,-0.19074073,-0.497222237,0,0,0,,,,,,,SLOPE,HB,z,y,./images/SLOPEHB.png,,,,,,,,,,,,,,,,,,,,m,0,2.978,,,,,,,,0,112,112,114,1
,,,,,,,,,,,,,,,,,5d3f6bd087ee2600012908b1,21,2022-02-12_17h19.01.902,lexical_decision_task_DD_L2,2021.2.3,Win32,59.75500448,,,,,,,,,,,,0.6691,1,,,,,,,,,,,,,,,,,,,,,,,,-0.19537036,-0.496296311,0,0,0,,,,,,,PASTA,C,m,y,./images/PASTA.png,,,,,,,,,,,,,,,,,,,,m,1,0.6691,,,,,,,,0,113,113,5,1
,,,,,,,,,,,,,,,,,5d3f6bd087ee2600012908b1,21,2022-02-12_17h19.01.902,lexical_decision_task_DD_L2,2021.2.3,Win32,59.75500448,,,,,,,,,,,,0.8154,1,,,,,,,,,,,,,,,,,,,,,,,,-0.193518508,-0.494444459,0,0,0,,,,,,,TRIPOD,HB,m,y,./images/TRIPODHB.png,,,,,,,,,,,,,,,,,,,,m,1,0.8154,,,,,,,,0,114,114,54,1
,,,,,,,,,,,,,,,,,5d3f6bd087ee2600012908b1,21,2022-02-12_17h19.01.902,lexical_decision_task_DD_L2,2021.2.3,Win32,59.75500448,,,,,,,,,,,,3.5018,1,,,,,,,,,,,,,,,,,,,,,,,,-0.198148138,-0.497222237,0,0,0,,,,,,,CANDY,HB,z,y,./images/CANDYHB.png,,,,,,,,,,,,,,,,,,,,z,1,3.5018,,,,,,,,0,115,115,123,1
,,,,,,,,,,,,,,,,,5d3f6bd087ee2600012908b1,21,2022-02-12_17h19.01.902,lexical_decision_task_DD_L2,2021.2.3,Win32,59.75500448,,,,,,,,,,,,0.9512,0,,,,,,,,,,,,,,,,,,,,,,,,-0.199074064,-0.494444459,0,0,0,,,,,,,SHIELD,HB,z,y,./images/SHIELDHB.png,,,,,,,,,,,,,,,,,,,,m,0,0.9512,,,,,,,,0,116,116,132,1
,,,,,,,,,,,,,,,,,5d3f6bd087ee2600012908b1,21,2022-02-12_17h19.01.902,lexical_decision_task_DD_L2,2021.2.3,Win32,59.75500448,,,,,,,,,,,,1.2039,1,,,,,,,,,,,,,,,,,,,,,,,,-0.203703693,-0.495370385,0,0,0,,,,,,,JUMPER,C,z,y,./images/JUMPER.png,,,,,,,,,,,,,,,,,,,,z,1,1.2039,,,,,,,,0,117,117,158,1
,,,,,,,,,,,,,,,,,5d3f6bd087ee2600012908b1,21,2022-02-12_17h19.01.902,lexical_decision_task_DD_L2,2021.2.3,Win32,59.75500448,,,,,,,,,,,,0.8152,1,,,,,,,,,,,,,,,,,,,,,,,,-0.203703693,-0.487037052,0,0,0,,,,,,,NOOSE,HB,m,y,./images/NOOSEHB.png,,,,,,,,,,,,,,,,,,,,m,1,0.8152,,,,,,,,0,118,118,72,1
,,,,,,,,,,,,,,,,,5d3f6bd087ee2600012908b1,21,2022-02-12_17h19.01.902,lexical_decision_task_DD_L2,2021.2.3,Win32,59.75500448,,,,,,,,,,,,0.4504,0,,,,,,,,,,,,,,,,,,,,,,,,-0.208333323,-0.490740756,0,0,0,,,,,,,CLOTH,C,z,y,./images/CLOTH.png,,,,,,,,,,,,,,,,,,,,m,0,0.4504,,,,,,,,0,119,119,107,1
,,,,,,,,,,,,,,,,,5d3f6bd087ee2600012908b1,21,2022-02-12_17h19.01.902,lexical_decision_task_DD_L2,2021.2.3,Win32,59.75500448,,,,,,,,,,,,0.604,1,,,,,,,,,,,,,,,,,,,,,,,,-0.224999934,-0.487962978,0,0,0,,,,,,,GREASE,HB,m,y,./images/GREASEHB.png,,,,,,,,,,,,,,,,,,,,m,1,0.604,,,,,,,,0,120,120,15,1
,,,,,,,,,,,,,,,,,5d3f6bd087ee2600012908b1,21,2022-02-12_17h19.01.902,lexical_decision_task_DD_L2,2021.2.3,Win32,59.75500448,,,,,,,,,,,,1.5229,1,,,,,,,,,,,,,,,,,,,,,,,,-0.234259193,-0.493518533,0,0,0,,,,,,,TOMATO,HB,m,y,./images/TOMATOHB.png,,,,,,,,,,,,,,,,,,,,m,1,1.5229,,,,,,,,0,121,121,0,1
,,,,,,,,,,,,,,,,,5d3f6bd087ee2600012908b1,21,2022-02-12_17h19.01.902,lexical_decision_task_DD_L2,2021.2.3,Win32,59.75500448,,,,,,,,,,,,0.6994,1,,,,,,,,,,,,,,,,,,,,,,,,-0.236111101,-0.48981483,0,0,0,,,,,,,PIMPLE,C,m,y,./images/PIMPLE.png,,,,,,,,,,,,,,,,,,,,m,1,0.6994,,,,,,,,0,122,122,71,1
,,,,,,,,,,,,,,,,,5d3f6bd087ee2600012908b1,21,2022-02-12_17h19.01.902,lexical_decision_task_DD_L2,2021.2.3,Win32,59.75500448,,,,,,,,,,,,0.6532,0,,,,,,,,,,,,,,,,,,,,,,,,-0.238888823,-0.486111126,0,0,0,,,,,,,CEMENT,C,m,y,./images/CEMENT.png,,,,,,,,,,,,,,,,,,,,z,0,0.6532,,,,,,,,0,123,123,74,1
,,,,,,,,,,,,,,,,,5d3f6bd087ee2600012908b1,21,2022-02-12_17h19.01.902,lexical_decision_task_DD_L2,2021.2.3,Win32,59.75500448,,,,,,,,,,,,0.5576,0,,,,,,,,,,,,,,,,,,,,,,,,-0.244444435,-0.48981483,0,0,0,,,,,,,STREAM,C,z,y,./images/STREAM.png,,,,,,,,,,,,,,,,,,,,m,0,0.5576,,,,,,,,0,124,124,125,1
,,,,,,,,,,,,,,,,,5d3f6bd087ee2600012908b1,21,2022-02-12_17h19.01.902,lexical_decision_task_DD_L2,2021.2.3,Win32,59.75500448,,,,,,,,,,,,0.8371,1,,,,,,,,,,,,,,,,,,,,,,,,-0.249074065,-0.488888904,0,0,0,space,,,,,,CRATER,HB,z,y,./images/CRATERHB.png,1.7413,,,,,,,,,,,,,,,,,,,z,1,0.8371,,,,,,,,0,125,125,87,1
,,,,,,,,,,,,,,,,,5d3f6bd087ee2600012908b1,21,2022-02-12_17h19.01.902,lexical_decision_task_DD_L2,2021.2.3,Win32,59.75500448,,,,,,,,,,,,0.6833,0,,,,,,,,,,,,,,,,,,,,,,,,-0.250925916,-0.483333348,0,0,0,,,,,,,STEAK,LB,z,y,./images/STEAKLB.png,,,,,,,,,,,,,,,,,,,,m,0,0.6833,,,,,,,,0,126,126,115,1
,,,,,,,,,,,,,,,,,5d3f6bd087ee2600012908b1,21,2022-02-12_17h19.01.902,lexical_decision_task_DD_L2,2021.2.3,Win32,59.75500448,,,,,,,,,,,,0.7171,0,,,,,,,,,,,,,,,,,,,,,,,,-0.268518509,-0.479629644,0,0,0,,,,,,,MONKEY,HB,z,y,./images/MONKEYHB.png,,,,,,,,,,,,,,,,,,,,m,0,0.7171,,,,,,,,0,127,127,129,1
,,,,,,,,,,,,,,,,,5d3f6bd087ee2600012908b1,21,2022-02-12_17h19.01.902,lexical_decision_task_DD_L2,2021.2.3,Win32,59.75500448,,,,,,,,,,,,0.6167,1,,,,,,,,,,,,,,,,,,,,,,,,-0.27592586,-0.483333348,0,0,0,,,,,,,CARPET,C,m,y,./images/CARPET.png,,,,,,,,,,,,,,,,,,,,m,1,0.6167,,,,,,,,0,128,128,53,1
,,,,,,,,,,,,,,,,,5d3f6bd087ee2600012908b1,21,2022-02-12_17h19.01.902,lexical_decision_task_DD_L2,2021.2.3,Win32,59.75500448,,,,,,,,,,,,0.7,1,,,,,,,,,,,,,,,,,,,,,,,,-0.277777769,-0.495370385,0,0,0,,,,,,,POODLE,HB,m,y,./images/POODLEHB.png,,,,,,,,,,,,,,,,,,,,m,1,0.7,,,,,,,,0,129,129,81,1
,,,,,,,,,,,,,,,,,5d3f6bd087ee2600012908b1,21,2022-02-12_17h19.01.902,lexical_decision_task_DD_L2,2021.2.3,Win32,59.75500448,,,,,,,,,,,,0.5833,1,,,,,,,,,,,,,,,,,,,,,,,,-0.281481472,-0.499074089,0,0,0,,,,,,,SWING,LB,m,y,./images/SWINGLB.png,,,,,,,,,,,,,,,,,,,,m,1,0.5833,,,,,,,,0,130,130,40,1
