key_resp.keys,instr_done_touch.x,instr_done_touch.y,instr_done_touch.leftButton,instr_done_touch.midButton,instr_done_touch.rightButton,instr_done_touch.clicked_name,instruction_pages.thisRepN,instruction_pages.thisTrialN,instruction_pages.thisN,instruction_pages.thisIndex,instruction_pages.ran,pageN,phase,instruct_text,has_image,instruct_image,participant,age,date,expName,psychopyVersion,OS,frameRate,key_resp.rt,response.keys,response.corr,response.rt,touch_resp.x,touch_resp.y,touch_resp.leftButton,touch_resp.midButton,touch_resp.rightButton,touch_resp.time,touch_resp.clicked_name,rt,corr,practrials.thisRepN,practrials.thisTrialN,practrials.thisN,practrials.thisIndex,practrials.ran,TrialID,Target,corrAns,end_of_practice_trials_pages.thisRepN,end_of_practice_trials_pages.thisTrialN,end_of_practice_trials_pages.thisN,end_of_practice_trials_pages.thisIndex,end_of_practice_trials_pages.ran,key_resp_2.keys,key_resp_2.corr,key_resp_2.rt,targ_click.x,targ_click.y,targ_click.leftButton,targ_click.midButton,targ_click.rightButton,targ_click.time,targ_click.clicked_name,break_done_touch.x,break_done_touch.y,break_done_touch.leftButton,break_done_touch.midButton,break_done_touch.rightButton,break_done_keyboard.keys,maintrials.thisRepN,maintrials.thisTrialN,maintrials.thisN,maintrials.thisIndex,maintrials.ran,string,blur,study,lex,stim_path,break_done_keyboard.rt,mouse_2.x,mouse_2.y,mouse_2.leftButton,mouse_2.midButton,mouse_2.rightButton,mouse_2.clicked_name,slider.response,slider.rt,trials.thisRepN,trials.thisTrialN,trials.thisN,trials.thisIndex,trials.ran,test_instructions.thisRepN,test_instructions.thisTrialN,test_instructions.thisN,test_instructions.thisIndex,test_instructions.ran,key_resp_3.keys,key_resp_3.corr,key_resp_3.rt,test_click.x,test_click.y,test_click.leftButton,test_click.midButton,test_click.rightButton,test_click.time,test_click.clicked_name,test_phase.thisRepN,test_phase.thisTrialN,test_phase.thisN,test_phase.thisIndex,test_phase.ran
,-0.076851852,-0.387962963,1,0,0,instr_done_button,0,0,0,0,1,1,instructions,"INSTRUCTIONS
At the start of each trial, look at the plus sign  (+) in the center of the screen.  This tells you that a trial is about to begin and where to look. Second, the plus sign will disappear and a string of letters will appear. Your task is to determine if the string of letters is a word or not. If the item is a word press the M key (on keyboard)  or touch the word button (phone/tablet).  If the item is not a word,  press the  Z key (on keyboard)  or touch the nonword button (on phone/tablet). 
Press the space bar or touch  continue.",0,,5e5ab88a43f33029b119a48c,49,2022-02-12_17h43.46.048,lexical_decision_task_DD_L2,2021.2.3,Win32,59.95203837,,,,,,,,,,,,,,,,,,,,,,,,,,,,,,,,,,,,,,,,,,,,,,,,,,,,,,,,,,,,,,,,,,,,,,,,,,,,,,,,,,,,,,
space,-0.053703704,-0.39537037,0,0,0,,0,1,1,1,1,2,instructions,"If your device has a keyboard, press the 'Z' key for nonwords and the 'M' key for words.





Press the space bar or touch the button below to continue.",0,keyboard-example.gif,5e5ab88a43f33029b119a48c,49,2022-02-12_17h43.46.048,lexical_decision_task_DD_L2,2021.2.3,Win32,59.95203837,5.948,,,,,,,,,,,,,,,,,,,,,,,,,,,,,,,,,,,,,,,,,,,,,,,,,,,,,,,,,,,,,,,,,,,,,,,,,,,,,,,,,,,,,
space,-0.04537037,-0.347222222,0,0,0,,0,2,2,2,1,3,instructions,"If you are using a touchscreen only device, use the buttons on the screen. Do not use the mouse.





Press the space bar or touch the button below to continue.",0,touchscreen-example.gif,5e5ab88a43f33029b119a48c,49,2022-02-12_17h43.46.048,lexical_decision_task_DD_L2,2021.2.3,Win32,59.95203837,7.999,,,,,,,,,,,,,,,,,,,,,,,,,,,,,,,,,,,,,,,,,,,,,,,,,,,,,,,,,,,,,,,,,,,,,,,,,,,,,,,,,,,,,
,0.000925926,-0.399074074,1,0,0,instr_done_button,0,3,3,3,1,4,instructions,"It is very important that you respond as quickly and accurately as possible, as each letter string will only be on the screen for two seconds. If you do not respond within this time, the message 'Too slow!' will be displayed and the experiment will progress to the next letter string. The first 20 trials will be practice trials and you will receive feedback on your answers. 

Press the space bar or touch the button below to start the practice trials.",0,,5e5ab88a43f33029b119a48c,49,2022-02-12_17h43.46.048,lexical_decision_task_DD_L2,2021.2.3,Win32,59.95203837,,,,,,,,,,,,,,,,,,,,,,,,,,,,,,,,,,,,,,,,,,,,,,,,,,,,,,,,,,,,,,,,,,,,,,,,,,,,,,,,,,,,,,
,,,,,,,,,,,,,,,,,5e5ab88a43f33029b119a48c,49,2022-02-12_17h43.46.048,lexical_decision_task_DD_L2,2021.2.3,Win32,59.95203837,,m,1,1.179,,,,,,,,1.179,1,0,0,0,0,1,1001,UTOPIA,m,,,,,,,,,,,,,,,,,,,,,,,,,,,,,,,,,,,,,,,,,,,,,,,,,,,,,,,,,,,,,,,,,
,,,,,,,,,,,,,,,,,5e5ab88a43f33029b119a48c,49,2022-02-12_17h43.46.048,lexical_decision_task_DD_L2,2021.2.3,Win32,59.95203837,,m,1,0.598,,,,,,,,0.598,1,0,1,1,7,1,1001,VOLUME,m,,,,,,,,,,,,,,,,,,,,,,,,,,,,,,,,,,,,,,,,,,,,,,,,,,,,,,,,,,,,,,,,,
,,,,,,,,,,,,,,,,,5e5ab88a43f33029b119a48c,49,2022-02-12_17h43.46.048,lexical_decision_task_DD_L2,2021.2.3,Win32,59.95203837,,m,1,0.498,,,,,,,,0.498,1,0,2,2,3,1,1001,MATRIX,m,,,,,,,,,,,,,,,,,,,,,,,,,,,,,,,,,,,,,,,,,,,,,,,,,,,,,,,,,,,,,,,,,
,,,,,,,,,,,,,,,,,5e5ab88a43f33029b119a48c,49,2022-02-12_17h43.46.048,lexical_decision_task_DD_L2,2021.2.3,Win32,59.95203837,,z,1,0.681,,,,,,,,0.681,1,0,3,3,13,1,1001,ROUPET,z,,,,,,,,,,,,,,,,,,,,,,,,,,,,,,,,,,,,,,,,,,,,,,,,,,,,,,,,,,,,,,,,,
,,,,,,,,,,,,,,,,,5e5ab88a43f33029b119a48c,49,2022-02-12_17h43.46.048,lexical_decision_task_DD_L2,2021.2.3,Win32,59.95203837,,z,1,0.637,,,,,,,,0.637,1,0,4,4,10,1,1001,INLADE,z,,,,,,,,,,,,,,,,,,,,,,,,,,,,,,,,,,,,,,,,,,,,,,,,,,,,,,,,,,,,,,,,,
,,,,,,,,,,,,,,,,,5e5ab88a43f33029b119a48c,49,2022-02-12_17h43.46.048,lexical_decision_task_DD_L2,2021.2.3,Win32,59.95203837,,z,1,0.619,,,,,,,,0.619,1,0,5,5,11,1,1001,RASHET,z,,,,,,,,,,,,,,,,,,,,,,,,,,,,,,,,,,,,,,,,,,,,,,,,,,,,,,,,,,,,,,,,,
,,,,,,,,,,,,,,,,,5e5ab88a43f33029b119a48c,49,2022-02-12_17h43.46.048,lexical_decision_task_DD_L2,2021.2.3,Win32,59.95203837,,m,1,0.513,,,,,,,,0.513,1,0,6,6,2,1,1001,ALMOND,m,,,,,,,,,,,,,,,,,,,,,,,,,,,,,,,,,,,,,,,,,,,,,,,,,,,,,,,,,,,,,,,,,
,,,,,,,,,,,,,,,,,5e5ab88a43f33029b119a48c,49,2022-02-12_17h43.46.048,lexical_decision_task_DD_L2,2021.2.3,Win32,59.95203837,,m,1,0.519,,,,,,,,0.519,1,0,7,7,4,1,1001,SQUEAK,m,,,,,,,,,,,,,,,,,,,,,,,,,,,,,,,,,,,,,,,,,,,,,,,,,,,,,,,,,,,,,,,,,
,,,,,,,,,,,,,,,,,5e5ab88a43f33029b119a48c,49,2022-02-12_17h43.46.048,lexical_decision_task_DD_L2,2021.2.3,Win32,59.95203837,,z,1,0.632,,,,,,,,0.632,1,0,8,8,8,1,1001,ASLERT,z,,,,,,,,,,,,,,,,,,,,,,,,,,,,,,,,,,,,,,,,,,,,,,,,,,,,,,,,,,,,,,,,,
,,,,,,,,,,,,,,,,,5e5ab88a43f33029b119a48c,49,2022-02-12_17h43.46.048,lexical_decision_task_DD_L2,2021.2.3,Win32,59.95203837,,m,1,0.447,,,,,,,,0.447,1,0,9,9,5,1,1001,OBTAIN,m,,,,,,,,,,,,,,,,,,,,,,,,,,,,,,,,,,,,,,,,,,,,,,,,,,,,,,,,,,,,,,,,,
,,,,,,,,,,,,,,,,,5e5ab88a43f33029b119a48c,49,2022-02-12_17h43.46.048,lexical_decision_task_DD_L2,2021.2.3,Win32,59.95203837,,z,1,0.684,,,,,,,,0.684,1,0,10,10,14,1,1001,THRALE,z,,,,,,,,,,,,,,,,,,,,,,,,,,,,,,,,,,,,,,,,,,,,,,,,,,,,,,,,,,,,,,,,,
,,,,,,,,,,,,,,,,,5e5ab88a43f33029b119a48c,49,2022-02-12_17h43.46.048,lexical_decision_task_DD_L2,2021.2.3,Win32,59.95203837,,z,1,0.549,,,,,,,,0.549,1,0,11,11,9,1,1001,FARINY,z,,,,,,,,,,,,,,,,,,,,,,,,,,,,,,,,,,,,,,,,,,,,,,,,,,,,,,,,,,,,,,,,,
,,,,,,,,,,,,,,,,,5e5ab88a43f33029b119a48c,49,2022-02-12_17h43.46.048,lexical_decision_task_DD_L2,2021.2.3,Win32,59.95203837,,m,1,0.515,,,,,,,,0.515,1,0,12,12,1,1,1001,ADJUST,m,,,,,,,,,,,,,,,,,,,,,,,,,,,,,,,,,,,,,,,,,,,,,,,,,,,,,,,,,,,,,,,,,
,,,,,,,,,,,,,,,,,5e5ab88a43f33029b119a48c,49,2022-02-12_17h43.46.048,lexical_decision_task_DD_L2,2021.2.3,Win32,59.95203837,,z,1,0.599,,,,,,,,0.599,1,0,13,13,15,1,1001,WHAISE,z,,,,,,,,,,,,,,,,,,,,,,,,,,,,,,,,,,,,,,,,,,,,,,,,,,,,,,,,,,,,,,,,,
,,,,,,,,,,,,,,,,,5e5ab88a43f33029b119a48c,49,2022-02-12_17h43.46.048,lexical_decision_task_DD_L2,2021.2.3,Win32,59.95203837,,m,1,0.632,,,,,,,,0.632,1,0,14,14,6,1,1001,ZOMBIE,m,,,,,,,,,,,,,,,,,,,,,,,,,,,,,,,,,,,,,,,,,,,,,,,,,,,,,,,,,,,,,,,,,
,,,,,,,,,,,,,,,,,5e5ab88a43f33029b119a48c,49,2022-02-12_17h43.46.048,lexical_decision_task_DD_L2,2021.2.3,Win32,59.95203837,,z,1,0.466,,,,,,,,0.466,1,0,15,15,12,1,1001,SPRINY,z,,,,,,,,,,,,,,,,,,,,,,,,,,,,,,,,,,,,,,,,,,,,,,,,,,,,,,,,,,,,,,,,,
space,0.000925926,-0.399074074,0,0,0,,,,,,,1,end_of_practice,"You have completed the practice trials. During the experimental trials, you will not receive feedback. 
Before you begin, please ensure that you are in a comfortable and quiet location and will not be disturbed for about 15 minutes, as we cannot use your data if you do not complete all the trials. 
 When you are ready to start the experimental trials, please press space or touch the button below.",,,5e5ab88a43f33029b119a48c,49,2022-02-12_17h43.46.048,lexical_decision_task_DD_L2,2021.2.3,Win32,59.95203837,6.021,,,,,,,,,,,,,,,,,,,,,0,0,0,0,1,,,,,,,,,,,,,,,,,,,,,,,,,,,,,,,,,,,,,,,,,,,,,,,,,,,,,,,,,,,,
,,,,,,,,,,,,,,,,,5e5ab88a43f33029b119a48c,49,2022-02-12_17h43.46.048,lexical_decision_task_DD_L2,2021.2.3,Win32,59.95203837,,,,,,,,,,,,0.791,1,,,,,,,,,,,,,,z,1,0.791,,,,,,,,0.000925926,-0.399074074,0,0,0,,0,0,0,158,1,EGECT,LB,old,z,./images/EGECTLB.png,,,,,,,,,,,,,,,,,,,,,,,,,,,,,,,,,,
,,,,,,,,,,,,,,,,,5e5ab88a43f33029b119a48c,49,2022-02-12_17h43.46.048,lexical_decision_task_DD_L2,2021.2.3,Win32,59.95203837,,,,,,,,,,,,0.661,1,,,,,,,,,,,,,,z,1,0.661,,,,,,,,0.000925926,-0.399074074,0,0,0,,0,1,1,92,1,PAIMS,LB,old,z,./images/PAIMSLB.png,,,,,,,,,,,,,,,,,,,,,,,,,,,,,,,,,,
,,,,,,,,,,,,,,,,,5e5ab88a43f33029b119a48c,49,2022-02-12_17h43.46.048,lexical_decision_task_DD_L2,2021.2.3,Win32,59.95203837,,,,,,,,,,,,0.585,1,,,,,,,,,,,,,,z,1,0.585,,,,,,,,0.000925926,-0.399074074,0,0,0,,0,2,2,151,1,TINKY,HB,old,z,./images/TINKYHB.png,,,,,,,,,,,,,,,,,,,,,,,,,,,,,,,,,,
,,,,,,,,,,,,,,,,,5e5ab88a43f33029b119a48c,49,2022-02-12_17h43.46.048,lexical_decision_task_DD_L2,2021.2.3,Win32,59.95203837,,,,,,,,,,,,0.506,0,,,,,,,,,,,,,,m,0,0.506,,,,,,,,0.000925926,-0.399074074,0,0,0,,0,3,3,128,1,GRIFT,LB,old,z,./images/GRIFTLB.png,,,,,,,,,,,,,,,,,,,,,,,,,,,,,,,,,,
,,,,,,,,,,,,,,,,,5e5ab88a43f33029b119a48c,49,2022-02-12_17h43.46.048,lexical_decision_task_DD_L2,2021.2.3,Win32,59.95203837,,,,,,,,,,,,0.568,1,,,,,,,,,,,,,,m,1,0.568,,,,,,,,0.000925926,-0.399074074,0,0,0,,0,4,4,42,1,FOLDER,HB,old,m,./images/FOLDERHB.png,,,,,,,,,,,,,,,,,,,,,,,,,,,,,,,,,,
,,,,,,,,,,,,,,,,,5e5ab88a43f33029b119a48c,49,2022-02-12_17h43.46.048,lexical_decision_task_DD_L2,2021.2.3,Win32,59.95203837,,,,,,,,,,,,0.478,1,,,,,,,,,,,,,,m,1,0.478,,,,,,,,0.000925926,-0.399074074,0,0,0,,0,5,5,59,1,BURIAL,C,old,m,./images/BURIAL.png,,,,,,,,,,,,,,,,,,,,,,,,,,,,,,,,,,
,,,,,,,,,,,,,,,,,5e5ab88a43f33029b119a48c,49,2022-02-12_17h43.46.048,lexical_decision_task_DD_L2,2021.2.3,Win32,59.95203837,,,,,,,,,,,,0.423,1,,,,,,,,,,,,,,m,1,0.423,,,,,,,,0.000925926,-0.399074074,0,0,0,,0,6,6,14,1,PICKLE,C,old,m,./images/PICKLE.png,,,,,,,,,,,,,,,,,,,,,,,,,,,,,,,,,,
,,,,,,,,,,,,,,,,,5e5ab88a43f33029b119a48c,49,2022-02-12_17h43.46.048,lexical_decision_task_DD_L2,2021.2.3,Win32,59.95203837,,,,,,,,,,,,0.695,1,,,,,,,,,,,,,,z,1,0.695,,,,,,,,0.000925926,-0.399074074,0,0,0,,0,7,7,111,1,HOSSE,C,old,z,./images/HOSSE.png,,,,,,,,,,,,,,,,,,,,,,,,,,,,,,,,,,
,,,,,,,,,,,,,,,,,5e5ab88a43f33029b119a48c,49,2022-02-12_17h43.46.048,lexical_decision_task_DD_L2,2021.2.3,Win32,59.95203837,,,,,,,,,,,,0.538,1,,,,,,,,,,,,,,m,1,0.538,,,,,,,,0.000925926,-0.399074074,0,0,0,,0,8,8,13,1,MOTOR,LB,old,m,./images/MOTORLB.png,,,,,,,,,,,,,,,,,,,,,,,,,,,,,,,,,,
,,,,,,,,,,,,,,,,,5e5ab88a43f33029b119a48c,49,2022-02-12_17h43.46.048,lexical_decision_task_DD_L2,2021.2.3,Win32,59.95203837,,,,,,,,,,,,0.438,1,,,,,,,,,,,,,,m,1,0.438,,,,,,,,0.000925926,-0.399074074,0,0,0,,0,9,9,32,1,BARREL,C,old,m,./images/BARREL.png,,,,,,,,,,,,,,,,,,,,,,,,,,,,,,,,,,
,,,,,,,,,,,,,,,,,5e5ab88a43f33029b119a48c,49,2022-02-12_17h43.46.048,lexical_decision_task_DD_L2,2021.2.3,Win32,59.95203837,,,,,,,,,,,,0.577,1,,,,,,,,,,,,,,m,1,0.577,,,,,,,,0.000925926,-0.399074074,0,0,0,,0,10,10,19,1,DOUGH,LB,old,m,./images/DOUGHLB.png,,,,,,,,,,,,,,,,,,,,,,,,,,,,,,,,,,
,,,,,,,,,,,,,,,,,5e5ab88a43f33029b119a48c,49,2022-02-12_17h43.46.048,lexical_decision_task_DD_L2,2021.2.3,Win32,59.95203837,,,,,,,,,,,,0.611,1,,,,,,,,,,,,,,z,1,0.611,,,,,,,,0.000925926,-0.399074074,0,0,0,,0,11,11,148,1,JOMS,HB,old,z,./images/JOMSHB.png,,,,,,,,,,,,,,,,,,,,,,,,,,,,,,,,,,
,,,,,,,,,,,,,,,,,5e5ab88a43f33029b119a48c,49,2022-02-12_17h43.46.048,lexical_decision_task_DD_L2,2021.2.3,Win32,59.95203837,,,,,,,,,,,,0.545,1,,,,,,,,,,,,,,z,1,0.545,,,,,,,,0.000925926,-0.399074074,0,0,0,,0,12,12,119,1,PAFER,LB,old,z,./images/PAFERLB.png,,,,,,,,,,,,,,,,,,,,,,,,,,,,,,,,,,
,,,,,,,,,,,,,,,,,5e5ab88a43f33029b119a48c,49,2022-02-12_17h43.46.048,lexical_decision_task_DD_L2,2021.2.3,Win32,59.95203837,,,,,,,,,,,,0.61,1,,,,,,,,,,,,,,m,1,0.61,,,,,,,,0.000925926,-0.399074074,0,0,0,,0,13,13,3,1,FINGER,HB,old,m,./images/FINGERHB.png,,,,,,,,,,,,,,,,,,,,,,,,,,,,,,,,,,
,,,,,,,,,,,,,,,,,5e5ab88a43f33029b119a48c,49,2022-02-12_17h43.46.048,lexical_decision_task_DD_L2,2021.2.3,Win32,59.95203837,,,,,,,,,,,,0.493,1,,,,,,,,,,,,,,m,1,0.493,,,,,,,,0.000925926,-0.399074074,0,0,0,,0,14,14,67,1,SAILOR,LB,old,m,./images/SAILORLB.png,,,,,,,,,,,,,,,,,,,,,,,,,,,,,,,,,,
,,,,,,,,,,,,,,,,,5e5ab88a43f33029b119a48c,49,2022-02-12_17h43.46.048,lexical_decision_task_DD_L2,2021.2.3,Win32,59.95203837,,,,,,,,,,,,0.441,1,,,,,,,,,,,,,,m,1,0.441,,,,,,,,0.000925926,-0.399074074,0,0,0,,0,15,15,23,1,WALRUS,C,old,m,./images/WALRUS.png,,,,,,,,,,,,,,,,,,,,,,,,,,,,,,,,,,
,,,,,,,,,,,,,,,,,5e5ab88a43f33029b119a48c,49,2022-02-12_17h43.46.048,lexical_decision_task_DD_L2,2021.2.3,Win32,59.95203837,,,,,,,,,,,,0.661,1,,,,,,,,,,,,,,z,1,0.661,,,,,,,,0.000925926,-0.399074074,0,0,0,,0,16,16,140,1,DOVET,LB,old,z,./images/DOVETLB.png,,,,,,,,,,,,,,,,,,,,,,,,,,,,,,,,,,
,,,,,,,,,,,,,,,,,5e5ab88a43f33029b119a48c,49,2022-02-12_17h43.46.048,lexical_decision_task_DD_L2,2021.2.3,Win32,59.95203837,,,,,,,,,,,,0.628,1,,,,,,,,,,,,,,z,1,0.628,,,,,,,,0.000925926,-0.399074074,0,0,0,,0,17,17,133,1,POWDY,HB,old,z,./images/POWDYHB.png,,,,,,,,,,,,,,,,,,,,,,,,,,,,,,,,,,
,,,,,,,,,,,,,,,,,5e5ab88a43f33029b119a48c,49,2022-02-12_17h43.46.048,lexical_decision_task_DD_L2,2021.2.3,Win32,59.95203837,,,,,,,,,,,,0.638,1,,,,,,,,,,,,,,z,1,0.638,,,,,,,,0.000925926,-0.399074074,0,0,0,,0,18,18,146,1,MOOST,LB,old,z,./images/MOOSTLB.png,,,,,,,,,,,,,,,,,,,,,,,,,,,,,,,,,,
,,,,,,,,,,,,,,,,,5e5ab88a43f33029b119a48c,49,2022-02-12_17h43.46.048,lexical_decision_task_DD_L2,2021.2.3,Win32,59.95203837,,,,,,,,,,,,0.647,1,,,,,,,,,,,,,,z,1,0.647,,,,,,,,0.000925926,-0.399074074,0,0,0,,0,19,19,101,1,GLEET,LB,old,z,./images/GLEETLB.png,,,,,,,,,,,,,,,,,,,,,,,,,,,,,,,,,,
,,,,,,,,,,,,,,,,,5e5ab88a43f33029b119a48c,49,2022-02-12_17h43.46.048,lexical_decision_task_DD_L2,2021.2.3,Win32,59.95203837,,,,,,,,,,,,0.562,1,,,,,,,,,,,,,,z,1,0.562,,,,,,,,0.000925926,-0.399074074,0,0,0,,0,20,20,99,1,BACKY,C,old,z,./images/BACKY.png,,,,,,,,,,,,,,,,,,,,,,,,,,,,,,,,,,
,,,,,,,,,,,,,,,,,5e5ab88a43f33029b119a48c,49,2022-02-12_17h43.46.048,lexical_decision_task_DD_L2,2021.2.3,Win32,59.95203837,,,,,,,,,,,,0.429,1,,,,,,,,,,,,,,m,1,0.429,,,,,,,,0.000925926,-0.399074074,0,0,0,,0,21,21,47,1,BERRY,C,old,m,./images/BERRY.png,,,,,,,,,,,,,,,,,,,,,,,,,,,,,,,,,,
,,,,,,,,,,,,,,,,,5e5ab88a43f33029b119a48c,49,2022-02-12_17h43.46.048,lexical_decision_task_DD_L2,2021.2.3,Win32,59.95203837,,,,,,,,,,,,0.494,1,,,,,,,,,,,,,,z,1,0.494,,,,,,,,0.000925926,-0.399074074,0,0,0,,0,22,22,114,1,RIKES,C,old,z,./images/RIKES.png,,,,,,,,,,,,,,,,,,,,,,,,,,,,,,,,,,
,,,,,,,,,,,,,,,,,5e5ab88a43f33029b119a48c,49,2022-02-12_17h43.46.048,lexical_decision_task_DD_L2,2021.2.3,Win32,59.95203837,,,,,,,,,,,,0.59,0,,,,,,,,,,,,,,z,0,0.59,,,,,,,,0.000925926,-0.399074074,0,0,0,,0,23,23,66,1,SWEAT,HB,old,m,./images/SWEATHB.png,,,,,,,,,,,,,,,,,,,,,,,,,,,,,,,,,,
,,,,,,,,,,,,,,,,,5e5ab88a43f33029b119a48c,49,2022-02-12_17h43.46.048,lexical_decision_task_DD_L2,2021.2.3,Win32,59.95203837,,,,,,,,,,,,0.487,1,,,,,,,,,,,,,,m,1,0.487,,,,,,,,0.000925926,-0.399074074,0,0,0,,0,24,24,44,1,LIZARD,C,old,m,./images/LIZARD.png,,,,,,,,,,,,,,,,,,,,,,,,,,,,,,,,,,
,,,,,,,,,,,,,,,,,5e5ab88a43f33029b119a48c,49,2022-02-12_17h43.46.048,lexical_decision_task_DD_L2,2021.2.3,Win32,59.95203837,,,,,,,,,,,,0.547,1,,,,,,,,,,,,,,z,1,0.547,,,,,,,,0.000925926,-0.399074074,0,0,0,,0,25,25,87,1,TRING,C,old,z,./images/TRING.png,,,,,,,,,,,,,,,,,,,,,,,,,,,,,,,,,,
,,,,,,,,,,,,,,,,,5e5ab88a43f33029b119a48c,49,2022-02-12_17h43.46.048,lexical_decision_task_DD_L2,2021.2.3,Win32,59.95203837,,,,,,,,,,,,0.537,1,,,,,,,,,,,,,,m,1,0.537,,,,,,,,0.000925926,-0.399074074,0,0,0,,0,26,26,21,1,KIDNEY,HB,old,m,./images/KIDNEYHB.png,,,,,,,,,,,,,,,,,,,,,,,,,,,,,,,,,,
,,,,,,,,,,,,,,,,,5e5ab88a43f33029b119a48c,49,2022-02-12_17h43.46.048,lexical_decision_task_DD_L2,2021.2.3,Win32,59.95203837,,,,,,,,,,,,0.66,0,,,,,,,,,,,,,,m,0,0.66,,,,,,,,0.000925926,-0.399074074,0,0,0,,0,27,27,166,1,SHORY,HB,old,z,./images/SHORYHB.png,,,,,,,,,,,,,,,,,,,,,,,,,,,,,,,,,,
,,,,,,,,,,,,,,,,,5e5ab88a43f33029b119a48c,49,2022-02-12_17h43.46.048,lexical_decision_task_DD_L2,2021.2.3,Win32,59.95203837,,,,,,,,,,,,0.586,1,,,,,,,,,,,,,,m,1,0.586,,,,,,,,0.000925926,-0.399074074,0,0,0,,0,28,28,15,1,GREASE,HB,old,m,./images/GREASEHB.png,,,,,,,,,,,,,,,,,,,,,,,,,,,,,,,,,,
,,,,,,,,,,,,,,,,,5e5ab88a43f33029b119a48c,49,2022-02-12_17h43.46.048,lexical_decision_task_DD_L2,2021.2.3,Win32,59.95203837,,,,,,,,,,,,0.427,1,,,,,,,,,,,,,,m,1,0.427,,,,,,,,0.000925926,-0.399074074,0,0,0,,0,29,29,16,1,PENCE,LB,old,m,./images/PENCELB.png,,,,,,,,,,,,,,,,,,,,,,,,,,,,,,,,,,
,,,,,,,,,,,,,,,,,5e5ab88a43f33029b119a48c,49,2022-02-12_17h43.46.048,lexical_decision_task_DD_L2,2021.2.3,Win32,59.95203837,,,,,,,,,,,,0.579,1,,,,,,,,,,,,,,m,1,0.579,,,,,,,,0.000925926,-0.399074074,0,0,0,,0,30,30,60,1,TWINS,HB,old,m,./images/TWINSHB.png,,,,,,,,,,,,,,,,,,,,,,,,,,,,,,,,,,
,,,,,,,,,,,,,,,,,5e5ab88a43f33029b119a48c,49,2022-02-12_17h43.46.048,lexical_decision_task_DD_L2,2021.2.3,Win32,59.95203837,,,,,,,,,,,,0.494,1,,,,,,,,,,,,,,m,1,0.494,,,,,,,,0.000925926,-0.399074074,0,0,0,,0,31,31,7,1,PAINT,LB,old,m,./images/PAINTLB.png,,,,,,,,,,,,,,,,,,,,,,,,,,,,,,,,,,
,,,,,,,,,,,,,,,,,5e5ab88a43f33029b119a48c,49,2022-02-12_17h43.46.048,lexical_decision_task_DD_L2,2021.2.3,Win32,59.95203837,,,,,,,,,,,,0.41,1,,,,,,,,,,,,,,m,1,0.41,,,,,,,,0.000925926,-0.399074074,0,0,0,,0,32,32,11,1,BONNET,C,old,m,./images/BONNET.png,,,,,,,,,,,,,,,,,,,,,,,,,,,,,,,,,,
,,,,,,,,,,,,,,,,,5e5ab88a43f33029b119a48c,49,2022-02-12_17h43.46.048,lexical_decision_task_DD_L2,2021.2.3,Win32,59.95203837,,,,,,,,,,,,0.414,1,,,,,,,,,,,,,,m,1,0.414,,,,,,,,0.000925926,-0.399074074,0,0,0,,0,33,33,68,1,TORCH,C,old,m,./images/TORCH.png,,,,,,,,,,,,,,,,,,,,,,,,,,,,,,,,,,
,,,,,,,,,,,,,,,,,5e5ab88a43f33029b119a48c,49,2022-02-12_17h43.46.048,lexical_decision_task_DD_L2,2021.2.3,Win32,59.95203837,,,,,,,,,,,,0.978,1,,,,,,,,,,,,,,z,1,0.978,,,,,,,,0.000925926,-0.399074074,0,0,0,,0,34,34,154,1,THINT,HB,old,z,./images/THINTHB.png,,,,,,,,,,,,,,,,,,,,,,,,,,,,,,,,,,
,,,,,,,,,,,,,,,,,5e5ab88a43f33029b119a48c,49,2022-02-12_17h43.46.048,lexical_decision_task_DD_L2,2021.2.3,Win32,59.95203837,,,,,,,,,,,,0.576,1,,,,,,,,,,,,,,m,1,0.576,,,,,,,,0.000925926,-0.399074074,0,0,0,,0,35,35,76,1,INFANT,LB,old,m,./images/INFANTLB.png,,,,,,,,,,,,,,,,,,,,,,,,,,,,,,,,,,
,,,,,,,,,,,,,,,,,5e5ab88a43f33029b119a48c,49,2022-02-12_17h43.46.048,lexical_decision_task_DD_L2,2021.2.3,Win32,59.95203837,,,,,,,,,,,,0.483,1,,,,,,,,,,,,,,m,1,0.483,,,,,,,,0.000925926,-0.399074074,0,0,0,,0,36,36,73,1,SNACK,LB,old,m,./images/SNACKLB.png,,,,,,,,,,,,,,,,,,,,,,,,,,,,,,,,,,
,,,,,,,,,,,,,,,,,5e5ab88a43f33029b119a48c,49,2022-02-12_17h43.46.048,lexical_decision_task_DD_L2,2021.2.3,Win32,59.95203837,,,,,,,,,,,,0.733,1,,,,,,,,,,,,,,z,1,0.733,,,,,,,,0.000925926,-0.399074074,0,0,0,,0,37,37,163,1,GAMBA,HB,old,z,./images/GAMBAHB.png,,,,,,,,,,,,,,,,,,,,,,,,,,,,,,,,,,
,,,,,,,,,,,,,,,,,5e5ab88a43f33029b119a48c,49,2022-02-12_17h43.46.048,lexical_decision_task_DD_L2,2021.2.3,Win32,59.95203837,,,,,,,,,,,,0.814,1,,,,,,,,,,,,,,z,1,0.814,,,,,,,,0.000925926,-0.399074074,0,0,0,,0,38,38,118,1,BAVEL,HB,old,z,./images/BAVELHB.png,,,,,,,,,,,,,,,,,,,,,,,,,,,,,,,,,,
,,,,,,,,,,,,,,,,,5e5ab88a43f33029b119a48c,49,2022-02-12_17h43.46.048,lexical_decision_task_DD_L2,2021.2.3,Win32,59.95203837,,,,,,,,,,,,0.429,1,,,,,,,,,,,,,,m,1,0.429,,,,,,,,0.000925926,-0.399074074,0,0,0,,0,39,39,62,1,PURSE,C,old,m,./images/PURSE.png,,,,,,,,,,,,,,,,,,,,,,,,,,,,,,,,,,
,,,,,,,,,,,,,,,,,5e5ab88a43f33029b119a48c,49,2022-02-12_17h43.46.048,lexical_decision_task_DD_L2,2021.2.3,Win32,59.95203837,,,,,,,,,,,,0.708,1,,,,,,,,,,,,,,m,1,0.708,,,,,,,,0.000925926,-0.399074074,0,0,0,,0,40,40,9,1,RHINO,HB,old,m,./images/RHINOHB.png,,,,,,,,,,,,,,,,,,,,,,,,,,,,,,,,,,
,,,,,,,,,,,,,,,,,5e5ab88a43f33029b119a48c,49,2022-02-12_17h43.46.048,lexical_decision_task_DD_L2,2021.2.3,Win32,59.95203837,,,,,,,,,,,,0.539,1,,,,,,,,,,,,,,m,1,0.539,,,,,,,,0.013888889,-0.386111111,0,0,0,space,0,41,41,77,1,COUCH,C,old,m,./images/COUCH.png,2.928,,,,,,,,,,,,,,,,,,,,,,,,,,,,,,,,,
,,,,,,,,,,,,,,,,,5e5ab88a43f33029b119a48c,49,2022-02-12_17h43.46.048,lexical_decision_task_DD_L2,2021.2.3,Win32,59.95203837,,,,,,,,,,,,0.444,1,,,,,,,,,,,,,,m,1,0.444,,,,,,,,0.013888889,-0.386111111,0,0,0,,0,42,42,35,1,PEACH,C,old,m,./images/PEACH.png,,,,,,,,,,,,,,,,,,,,,,,,,,,,,,,,,,
,,,,,,,,,,,,,,,,,5e5ab88a43f33029b119a48c,49,2022-02-12_17h43.46.048,lexical_decision_task_DD_L2,2021.2.3,Win32,59.95203837,,,,,,,,,,,,0.377,1,,,,,,,,,,,,,,m,1,0.377,,,,,,,,0.013888889,-0.386111111,0,0,0,,0,43,43,2,1,BEARD,C,old,m,./images/BEARD.png,,,,,,,,,,,,,,,,,,,,,,,,,,,,,,,,,,
,,,,,,,,,,,,,,,,,5e5ab88a43f33029b119a48c,49,2022-02-12_17h43.46.048,lexical_decision_task_DD_L2,2021.2.3,Win32,59.95203837,,,,,,,,,,,,0.388,0,,,,,,,,,,,,,,m,0,0.388,,,,,,,,0.013888889,-0.386111111,0,0,0,,0,44,44,141,1,PLEET,C,old,z,./images/PLEET.png,,,,,,,,,,,,,,,,,,,,,,,,,,,,,,,,,,
,,,,,,,,,,,,,,,,,5e5ab88a43f33029b119a48c,49,2022-02-12_17h43.46.048,lexical_decision_task_DD_L2,2021.2.3,Win32,59.95203837,,,,,,,,,,,,0.628,1,,,,,,,,,,,,,,z,1,0.628,,,,,,,,0.013888889,-0.386111111,0,0,0,,0,45,45,134,1,TROSS,LB,old,z,./images/TROSSLB.png,,,,,,,,,,,,,,,,,,,,,,,,,,,,,,,,,,
,,,,,,,,,,,,,,,,,5e5ab88a43f33029b119a48c,49,2022-02-12_17h43.46.048,lexical_decision_task_DD_L2,2021.2.3,Win32,59.95203837,,,,,,,,,,,,0.863,1,,,,,,,,,,,,,,z,1,0.863,,,,,,,,0.013888889,-0.386111111,0,0,0,,0,46,46,159,1,CUDDY,C,old,z,./images/CUDDY.png,,,,,,,,,,,,,,,,,,,,,,,,,,,,,,,,,,
,,,,,,,,,,,,,,,,,5e5ab88a43f33029b119a48c,49,2022-02-12_17h43.46.048,lexical_decision_task_DD_L2,2021.2.3,Win32,59.95203837,,,,,,,,,,,,0.489,1,,,,,,,,,,,,,,m,1,0.489,,,,,,,,0.013888889,-0.386111111,0,0,0,,0,47,47,38,1,LADDER,C,old,m,./images/LADDER.png,,,,,,,,,,,,,,,,,,,,,,,,,,,,,,,,,,
,,,,,,,,,,,,,,,,,5e5ab88a43f33029b119a48c,49,2022-02-12_17h43.46.048,lexical_decision_task_DD_L2,2021.2.3,Win32,59.95203837,,,,,,,,,,,,0.512,1,,,,,,,,,,,,,,m,1,0.512,,,,,,,,0.013888889,-0.386111111,0,0,0,,0,48,48,29,1,CRUMB,C,old,m,./images/CRUMB.png,,,,,,,,,,,,,,,,,,,,,,,,,,,,,,,,,,
,,,,,,,,,,,,,,,,,5e5ab88a43f33029b119a48c,49,2022-02-12_17h43.46.048,lexical_decision_task_DD_L2,2021.2.3,Win32,59.95203837,,,,,,,,,,,,0.562,1,,,,,,,,,,,,,,m,1,0.562,,,,,,,,0.013888889,-0.386111111,0,0,0,,0,49,49,37,1,BIRTH,LB,old,m,./images/BIRTHLB.png,,,,,,,,,,,,,,,,,,,,,,,,,,,,,,,,,,
,,,,,,,,,,,,,,,,,5e5ab88a43f33029b119a48c,49,2022-02-12_17h43.46.048,lexical_decision_task_DD_L2,2021.2.3,Win32,59.95203837,,,,,,,,,,,,0.438,1,,,,,,,,,,,,,,m,1,0.438,,,,,,,,0.013888889,-0.386111111,0,0,0,,0,50,50,50,1,MALLET,C,old,m,./images/MALLET.png,,,,,,,,,,,,,,,,,,,,,,,,,,,,,,,,,,
,,,,,,,,,,,,,,,,,5e5ab88a43f33029b119a48c,49,2022-02-12_17h43.46.048,lexical_decision_task_DD_L2,2021.2.3,Win32,59.95203837,,,,,,,,,,,,0.576,1,,,,,,,,,,,,,,z,1,0.576,,,,,,,,0.013888889,-0.386111111,0,0,0,,0,51,51,86,1,AIFED,LB,old,z,./images/AIFEDLB.png,,,,,,,,,,,,,,,,,,,,,,,,,,,,,,,,,,
,,,,,,,,,,,,,,,,,5e5ab88a43f33029b119a48c,49,2022-02-12_17h43.46.048,lexical_decision_task_DD_L2,2021.2.3,Win32,59.95203837,,,,,,,,,,,,0.576,1,,,,,,,,,,,,,,z,1,0.576,,,,,,,,0.013888889,-0.386111111,0,0,0,,0,52,52,167,1,ZONET,LB,old,z,./images/ZONETLB.png,,,,,,,,,,,,,,,,,,,,,,,,,,,,,,,,,,
,,,,,,,,,,,,,,,,,5e5ab88a43f33029b119a48c,49,2022-02-12_17h43.46.048,lexical_decision_task_DD_L2,2021.2.3,Win32,59.95203837,,,,,,,,,,,,0.637,1,,,,,,,,,,,,,,m,1,0.637,,,,,,,,0.013888889,-0.386111111,0,0,0,,0,53,53,54,1,TRIPOD,HB,old,m,./images/TRIPODHB.png,,,,,,,,,,,,,,,,,,,,,,,,,,,,,,,,,,
,,,,,,,,,,,,,,,,,5e5ab88a43f33029b119a48c,49,2022-02-12_17h43.46.048,lexical_decision_task_DD_L2,2021.2.3,Win32,59.95203837,,,,,,,,,,,,0.494,1,,,,,,,,,,,,,,m,1,0.494,,,,,,,,0.013888889,-0.386111111,0,0,0,,0,54,54,49,1,DRUMS,LB,old,m,./images/DRUMSLB.png,,,,,,,,,,,,,,,,,,,,,,,,,,,,,,,,,,
,,,,,,,,,,,,,,,,,5e5ab88a43f33029b119a48c,49,2022-02-12_17h43.46.048,lexical_decision_task_DD_L2,2021.2.3,Win32,59.95203837,,,,,,,,,,,,0.814,1,,,,,,,,,,,,,,z,1,0.814,,,,,,,,0.013888889,-0.386111111,0,0,0,,0,55,55,157,1,INLER,HB,old,z,./images/INLERHB.png,,,,,,,,,,,,,,,,,,,,,,,,,,,,,,,,,,
,,,,,,,,,,,,,,,,,5e5ab88a43f33029b119a48c,49,2022-02-12_17h43.46.048,lexical_decision_task_DD_L2,2021.2.3,Win32,59.95203837,,,,,,,,,,,,0.746,1,,,,,,,,,,,,,,z,1,0.746,,,,,,,,0.013888889,-0.386111111,0,0,0,,0,56,56,122,1,BLOOT,LB,old,z,./images/BLOOTLB.png,,,,,,,,,,,,,,,,,,,,,,,,,,,,,,,,,,
,,,,,,,,,,,,,,,,,5e5ab88a43f33029b119a48c,49,2022-02-12_17h43.46.048,lexical_decision_task_DD_L2,2021.2.3,Win32,59.95203837,,,,,,,,,,,,0.58,1,,,,,,,,,,,,,,z,1,0.58,,,,,,,,0.013888889,-0.386111111,0,0,0,,0,57,57,156,1,HIXES,C,old,z,./images/HIXES.png,,,,,,,,,,,,,,,,,,,,,,,,,,,,,,,,,,
,,,,,,,,,,,,,,,,,5e5ab88a43f33029b119a48c,49,2022-02-12_17h43.46.048,lexical_decision_task_DD_L2,2021.2.3,Win32,59.95203837,,,,,,,,,,,,0.521,1,,,,,,,,,,,,,,m,1,0.521,,,,,,,,0.013888889,-0.386111111,0,0,0,,0,58,58,82,1,SUNSET,LB,old,m,./images/SUNSETLB.png,,,,,,,,,,,,,,,,,,,,,,,,,,,,,,,,,,
,,,,,,,,,,,,,,,,,5e5ab88a43f33029b119a48c,49,2022-02-12_17h43.46.048,lexical_decision_task_DD_L2,2021.2.3,Win32,59.95203837,,,,,,,,,,,,0.721,1,,,,,,,,,,,,,,z,1,0.721,,,,,,,,0.013888889,-0.386111111,0,0,0,,0,59,59,106,1,CLUMS,HB,old,z,./images/CLUMSHB.png,,,,,,,,,,,,,,,,,,,,,,,,,,,,,,,,,,
,,,,,,,,,,,,,,,,,5e5ab88a43f33029b119a48c,49,2022-02-12_17h43.46.048,lexical_decision_task_DD_L2,2021.2.3,Win32,59.95203837,,,,,,,,,,,,0.486,1,,,,,,,,,,,,,,m,1,0.486,,,,,,,,0.013888889,-0.386111111,0,0,0,,0,60,60,61,1,CANDLE,LB,old,m,./images/CANDLELB.png,,,,,,,,,,,,,,,,,,,,,,,,,,,,,,,,,,
,,,,,,,,,,,,,,,,,5e5ab88a43f33029b119a48c,49,2022-02-12_17h43.46.048,lexical_decision_task_DD_L2,2021.2.3,Win32,59.95203837,,,,,,,,,,,,0.476,1,,,,,,,,,,,,,,m,1,0.476,,,,,,,,0.013888889,-0.386111111,0,0,0,,0,61,61,17,1,SKIING,C,old,m,./images/SKIING.png,,,,,,,,,,,,,,,,,,,,,,,,,,,,,,,,,,
,,,,,,,,,,,,,,,,,5e5ab88a43f33029b119a48c,49,2022-02-12_17h43.46.048,lexical_decision_task_DD_L2,2021.2.3,Win32,59.95203837,,,,,,,,,,,,0.598,1,,,,,,,,,,,,,,m,1,0.598,,,,,,,,0.013888889,-0.386111111,0,0,0,,0,62,62,52,1,BANNER,LB,old,m,./images/BANNERLB.png,,,,,,,,,,,,,,,,,,,,,,,,,,,,,,,,,,
,,,,,,,,,,,,,,,,,5e5ab88a43f33029b119a48c,49,2022-02-12_17h43.46.048,lexical_decision_task_DD_L2,2021.2.3,Win32,59.95203837,,,,,,,,,,,,0.587,1,,,,,,,,,,,,,,z,1,0.587,,,,,,,,0.013888889,-0.386111111,0,0,0,,0,63,63,90,1,NEAST,C,old,z,./images/NEAST.png,,,,,,,,,,,,,,,,,,,,,,,,,,,,,,,,,,
,,,,,,,,,,,,,,,,,5e5ab88a43f33029b119a48c,49,2022-02-12_17h43.46.048,lexical_decision_task_DD_L2,2021.2.3,Win32,59.95203837,,,,,,,,,,,,0.611,1,,,,,,,,,,,,,,z,1,0.611,,,,,,,,0.013888889,-0.386111111,0,0,0,,0,64,64,107,1,FASKS,LB,old,z,./images/FASKSLB.png,,,,,,,,,,,,,,,,,,,,,,,,,,,,,,,,,,
,,,,,,,,,,,,,,,,,5e5ab88a43f33029b119a48c,49,2022-02-12_17h43.46.048,lexical_decision_task_DD_L2,2021.2.3,Win32,59.95203837,,,,,,,,,,,,0.54,1,,,,,,,,,,,,,,m,1,0.54,,,,,,,,0.013888889,-0.386111111,0,0,0,,0,65,65,12,1,SHORE,HB,old,m,./images/SHOREHB.png,,,,,,,,,,,,,,,,,,,,,,,,,,,,,,,,,,
,,,,,,,,,,,,,,,,,5e5ab88a43f33029b119a48c,49,2022-02-12_17h43.46.048,lexical_decision_task_DD_L2,2021.2.3,Win32,59.95203837,,,,,,,,,,,,0.626,1,,,,,,,,,,,,,,z,1,0.626,,,,,,,,0.013888889,-0.386111111,0,0,0,,0,66,66,161,1,BLAPS,LB,old,z,./images/BLAPSLB.png,,,,,,,,,,,,,,,,,,,,,,,,,,,,,,,,,,
,,,,,,,,,,,,,,,,,5e5ab88a43f33029b119a48c,49,2022-02-12_17h43.46.048,lexical_decision_task_DD_L2,2021.2.3,Win32,59.95203837,,,,,,,,,,,,0.587,1,,,,,,,,,,,,,,m,1,0.587,,,,,,,,0.013888889,-0.386111111,0,0,0,,0,67,67,46,1,PEARL,LB,old,m,./images/PEARLLB.png,,,,,,,,,,,,,,,,,,,,,,,,,,,,,,,,,,
,,,,,,,,,,,,,,,,,5e5ab88a43f33029b119a48c,49,2022-02-12_17h43.46.048,lexical_decision_task_DD_L2,2021.2.3,Win32,59.95203837,,,,,,,,,,,,0.53,1,,,,,,,,,,,,,,m,1,0.53,,,,,,,,0.013888889,-0.386111111,0,0,0,,0,68,68,24,1,SCREW,HB,old,m,./images/SCREWHB.png,,,,,,,,,,,,,,,,,,,,,,,,,,,,,,,,,,
,,,,,,,,,,,,,,,,,5e5ab88a43f33029b119a48c,49,2022-02-12_17h43.46.048,lexical_decision_task_DD_L2,2021.2.3,Win32,59.95203837,,,,,,,,,,,,0.893,1,,,,,,,,,,,,,,z,1,0.893,,,,,,,,0.013888889,-0.386111111,0,0,0,,0,69,69,91,1,SHENS,HB,old,z,./images/SHENSHB.png,,,,,,,,,,,,,,,,,,,,,,,,,,,,,,,,,,
,,,,,,,,,,,,,,,,,5e5ab88a43f33029b119a48c,49,2022-02-12_17h43.46.048,lexical_decision_task_DD_L2,2021.2.3,Win32,59.95203837,,,,,,,,,,,,0.566,1,,,,,,,,,,,,,,m,1,0.566,,,,,,,,0.013888889,-0.386111111,0,0,0,,0,70,70,27,1,ATTIC,HB,old,m,./images/ATTICHB.png,,,,,,,,,,,,,,,,,,,,,,,,,,,,,,,,,,
,,,,,,,,,,,,,,,,,5e5ab88a43f33029b119a48c,49,2022-02-12_17h43.46.048,lexical_decision_task_DD_L2,2021.2.3,Win32,59.95203837,,,,,,,,,,,,0.453,1,,,,,,,,,,,,,,m,1,0.453,,,,,,,,0.013888889,-0.386111111,0,0,0,,0,71,71,80,1,WEASEL,C,old,m,./images/WEASEL.png,,,,,,,,,,,,,,,,,,,,,,,,,,,,,,,,,,
,,,,,,,,,,,,,,,,,5e5ab88a43f33029b119a48c,49,2022-02-12_17h43.46.048,lexical_decision_task_DD_L2,2021.2.3,Win32,59.95203837,,,,,,,,,,,,0.579,1,,,,,,,,,,,,,,z,1,0.579,,,,,,,,0.013888889,-0.386111111,0,0,0,,0,72,72,162,1,LEICH,C,old,z,./images/LEICH.png,,,,,,,,,,,,,,,,,,,,,,,,,,,,,,,,,,
,,,,,,,,,,,,,,,,,5e5ab88a43f33029b119a48c,49,2022-02-12_17h43.46.048,lexical_decision_task_DD_L2,2021.2.3,Win32,59.95203837,,,,,,,,,,,,0.947,0,,,,,,,,,,,,,,m,0,0.947,,,,,,,,0.013888889,-0.386111111,0,0,0,,0,73,73,142,1,PLASK,HB,old,z,./images/PLASKHB.png,,,,,,,,,,,,,,,,,,,,,,,,,,,,,,,,,,
,,,,,,,,,,,,,,,,,5e5ab88a43f33029b119a48c,49,2022-02-12_17h43.46.048,lexical_decision_task_DD_L2,2021.2.3,Win32,59.95203837,,,,,,,,,,,,0.547,1,,,,,,,,,,,,,,z,1,0.547,,,,,,,,0.013888889,-0.386111111,0,0,0,,0,74,74,137,1,JOOST,LB,old,z,./images/JOOSTLB.png,,,,,,,,,,,,,,,,,,,,,,,,,,,,,,,,,,
,,,,,,,,,,,,,,,,,5e5ab88a43f33029b119a48c,49,2022-02-12_17h43.46.048,lexical_decision_task_DD_L2,2021.2.3,Win32,59.95203837,,,,,,,,,,,,0.428,1,,,,,,,,,,,,,,m,1,0.428,,,,,,,,0.013888889,-0.386111111,0,0,0,,0,75,75,22,1,MELON,LB,old,m,./images/MELONLB.png,,,,,,,,,,,,,,,,,,,,,,,,,,,,,,,,,,
,,,,,,,,,,,,,,,,,5e5ab88a43f33029b119a48c,49,2022-02-12_17h43.46.048,lexical_decision_task_DD_L2,2021.2.3,Win32,59.95203837,,,,,,,,,,,,0.696,1,,,,,,,,,,,,,,z,1,0.696,,,,,,,,0.013888889,-0.386111111,0,0,0,,0,76,76,113,1,LINEW,LB,old,z,./images/LINEWLB.png,,,,,,,,,,,,,,,,,,,,,,,,,,,,,,,,,,
,,,,,,,,,,,,,,,,,5e5ab88a43f33029b119a48c,49,2022-02-12_17h43.46.048,lexical_decision_task_DD_L2,2021.2.3,Win32,59.95203837,,,,,,,,,,,,0.658,1,,,,,,,,,,,,,,z,1,0.658,,,,,,,,0.013888889,-0.386111111,0,0,0,,0,77,77,165,1,TROWN,C,old,z,./images/TROWN.png,,,,,,,,,,,,,,,,,,,,,,,,,,,,,,,,,,
,,,,,,,,,,,,,,,,,5e5ab88a43f33029b119a48c,49,2022-02-12_17h43.46.048,lexical_decision_task_DD_L2,2021.2.3,Win32,59.95203837,,,,,,,,,,,,0.575,1,,,,,,,,,,,,,,m,1,0.575,,,,,,,,0.013888889,-0.386111111,0,0,0,,0,78,78,0,1,TOMATO,HB,old,m,./images/TOMATOHB.png,,,,,,,,,,,,,,,,,,,,,,,,,,,,,,,,,,
,,,,,,,,,,,,,,,,,5e5ab88a43f33029b119a48c,49,2022-02-12_17h43.46.048,lexical_decision_task_DD_L2,2021.2.3,Win32,59.95203837,,,,,,,,,,,,0.854,1,,,,,,,,,,,,,,m,1,0.854,,,,,,,,0.013888889,-0.386111111,0,0,0,,0,79,79,58,1,BABOON,LB,old,m,./images/BABOONLB.png,,,,,,,,,,,,,,,,,,,,,,,,,,,,,,,,,,
,,,,,,,,,,,,,,,,,5e5ab88a43f33029b119a48c,49,2022-02-12_17h43.46.048,lexical_decision_task_DD_L2,2021.2.3,Win32,59.95203837,,,,,,,,,,,,0.491,1,,,,,,,,,,,,,,m,1,0.491,,,,,,,,0.013888889,-0.386111111,0,0,0,,0,80,80,20,1,CRADLE,C,old,m,./images/CRADLE.png,,,,,,,,,,,,,,,,,,,,,,,,,,,,,,,,,,
,,,,,,,,,,,,,,,,,5e5ab88a43f33029b119a48c,49,2022-02-12_17h43.46.048,lexical_decision_task_DD_L2,2021.2.3,Win32,59.95203837,,,,,,,,,,,,0.655,1,,,,,,,,,,,,,,m,1,0.655,,,,,,,,0.013888889,-0.386111111,0,0,0,,0,81,81,1,1,PLANK,LB,old,m,./images/PLANKLB.png,,,,,,,,,,,,,,,,,,,,,,,,,,,,,,,,,,
,,,,,,,,,,,,,,,,,5e5ab88a43f33029b119a48c,49,2022-02-12_17h43.46.048,lexical_decision_task_DD_L2,2021.2.3,Win32,59.95203837,,,,,,,,,,,,0.935,1,,,,,,,,,,,,,,z,1,0.935,,,,,,,,0.013888889,-0.386111111,0,0,0,,0,82,82,109,1,BURGE,HB,old,z,./images/BURGEHB.png,,,,,,,,,,,,,,,,,,,,,,,,,,,,,,,,,,
,,,,,,,,,,,,,,,,,5e5ab88a43f33029b119a48c,49,2022-02-12_17h43.46.048,lexical_decision_task_DD_L2,2021.2.3,Win32,59.95203837,,,,,,,,,,,,0.611,1,,,,,,,,,,,,,,z,1,0.611,,,,,,,,0.013888889,-0.386111111,0,0,0,space,0,83,83,105,1,MOKER,C,old,z,./images/MOKER.png,2.03,,,,,,,,,,,,,,,,,,,,,,,,,,,,,,,,,
,,,,,,,,,,,,,,,,,5e5ab88a43f33029b119a48c,49,2022-02-12_17h43.46.048,lexical_decision_task_DD_L2,2021.2.3,Win32,59.95203837,,,,,,,,,,,,0.587,1,,,,,,,,,,,,,,z,1,0.587,,,,,,,,0.013888889,-0.386111111,0,0,0,,0,84,84,149,1,VEASE,LB,old,z,./images/VEASELB.png,,,,,,,,,,,,,,,,,,,,,,,,,,,,,,,,,,
,,,,,,,,,,,,,,,,,5e5ab88a43f33029b119a48c,49,2022-02-12_17h43.46.048,lexical_decision_task_DD_L2,2021.2.3,Win32,59.95203837,,,,,,,,,,,,0.995,1,,,,,,,,,,,,,,m,1,0.995,,,,,,,,0.013888889,-0.386111111,0,0,0,,0,85,85,69,1,COOKER,HB,old,m,./images/COOKERHB.png,,,,,,,,,,,,,,,,,,,,,,,,,,,,,,,,,,
,,,,,,,,,,,,,,,,,5e5ab88a43f33029b119a48c,49,2022-02-12_17h43.46.048,lexical_decision_task_DD_L2,2021.2.3,Win32,59.95203837,,,,,,,,,,,,0.563,1,,,,,,,,,,,,,,m,1,0.563,,,,,,,,0.013888889,-0.386111111,0,0,0,,0,86,86,55,1,MUFFIN,LB,old,m,./images/MUFFINLB.png,,,,,,,,,,,,,,,,,,,,,,,,,,,,,,,,,,
,,,,,,,,,,,,,,,,,5e5ab88a43f33029b119a48c,49,2022-02-12_17h43.46.048,lexical_decision_task_DD_L2,2021.2.3,Win32,59.95203837,,,,,,,,,,,,0.744,1,,,,,,,,,,,,,,z,1,0.744,,,,,,,,0.013888889,-0.386111111,0,0,0,,0,87,87,94,1,BLANS,HB,old,z,./images/BLANSHB.png,,,,,,,,,,,,,,,,,,,,,,,,,,,,,,,,,,
,,,,,,,,,,,,,,,,,5e5ab88a43f33029b119a48c,49,2022-02-12_17h43.46.048,lexical_decision_task_DD_L2,2021.2.3,Win32,59.95203837,,,,,,,,,,,,0.59,1,,,,,,,,,,,,,,m,1,0.59,,,,,,,,0.013888889,-0.386111111,0,0,0,,0,88,88,8,1,TULIP,C,old,m,./images/TULIP.png,,,,,,,,,,,,,,,,,,,,,,,,,,,,,,,,,,
,,,,,,,,,,,,,,,,,5e5ab88a43f33029b119a48c,49,2022-02-12_17h43.46.048,lexical_decision_task_DD_L2,2021.2.3,Win32,59.95203837,,,,,,,,,,,,0.755,1,,,,,,,,,,,,,,z,1,0.755,,,,,,,,0.013888889,-0.386111111,0,0,0,,0,89,89,85,1,CHULK,HB,old,z,./images/CHULKHB.png,,,,,,,,,,,,,,,,,,,,,,,,,,,,,,,,,,
,,,,,,,,,,,,,,,,,5e5ab88a43f33029b119a48c,49,2022-02-12_17h43.46.048,lexical_decision_task_DD_L2,2021.2.3,Win32,59.95203837,,,,,,,,,,,,0.56,1,,,,,,,,,,,,,,z,1,0.56,,,,,,,,0.013888889,-0.386111111,0,0,0,,0,90,90,132,1,SCIFF,C,old,z,./images/SCIFF.png,,,,,,,,,,,,,,,,,,,,,,,,,,,,,,,,,,
,,,,,,,,,,,,,,,,,5e5ab88a43f33029b119a48c,49,2022-02-12_17h43.46.048,lexical_decision_task_DD_L2,2021.2.3,Win32,59.95203837,,,,,,,,,,,,0.576,1,,,,,,,,,,,,,,m,1,0.576,,,,,,,,0.013888889,-0.386111111,0,0,0,,0,91,91,45,1,KITTEN,HB,old,m,./images/KITTENHB.png,,,,,,,,,,,,,,,,,,,,,,,,,,,,,,,,,,
,,,,,,,,,,,,,,,,,5e5ab88a43f33029b119a48c,49,2022-02-12_17h43.46.048,lexical_decision_task_DD_L2,2021.2.3,Win32,59.95203837,,,,,,,,,,,,0.526,1,,,,,,,,,,,,,,z,1,0.526,,,,,,,,0.013888889,-0.386111111,0,0,0,,0,92,92,89,1,DRIEK,LB,old,z,./images/DRIEKLB.png,,,,,,,,,,,,,,,,,,,,,,,,,,,,,,,,,,
,,,,,,,,,,,,,,,,,5e5ab88a43f33029b119a48c,49,2022-02-12_17h43.46.048,lexical_decision_task_DD_L2,2021.2.3,Win32,59.95203837,,,,,,,,,,,,0.471,1,,,,,,,,,,,,,,m,1,0.471,,,,,,,,0.013888889,-0.386111111,0,0,0,,0,93,93,28,1,FALCON,LB,old,m,./images/FALCONLB.png,,,,,,,,,,,,,,,,,,,,,,,,,,,,,,,,,,
,,,,,,,,,,,,,,,,,5e5ab88a43f33029b119a48c,49,2022-02-12_17h43.46.048,lexical_decision_task_DD_L2,2021.2.3,Win32,59.95203837,,,,,,,,,,,,0.477,1,,,,,,,,,,,,,,m,1,0.477,,,,,,,,0.013888889,-0.386111111,0,0,0,,0,94,94,10,1,BELLY,LB,old,m,./images/BELLYLB.png,,,,,,,,,,,,,,,,,,,,,,,,,,,,,,,,,,
,,,,,,,,,,,,,,,,,5e5ab88a43f33029b119a48c,49,2022-02-12_17h43.46.048,lexical_decision_task_DD_L2,2021.2.3,Win32,59.95203837,,,,,,,,,,,,0.598,1,,,,,,,,,,,,,,m,1,0.598,,,,,,,,0.013888889,-0.386111111,0,0,0,,0,95,95,34,1,CANYON,LB,old,m,./images/CANYONLB.png,,,,,,,,,,,,,,,,,,,,,,,,,,,,,,,,,,
,,,,,,,,,,,,,,,,,5e5ab88a43f33029b119a48c,49,2022-02-12_17h43.46.048,lexical_decision_task_DD_L2,2021.2.3,Win32,59.95203837,,,,,,,,,,,,0.687,1,,,,,,,,,,,,,,m,1,0.687,,,,,,,,0.013888889,-0.386111111,0,0,0,,0,96,96,51,1,ONION,HB,old,m,./images/ONIONHB.png,,,,,,,,,,,,,,,,,,,,,,,,,,,,,,,,,,
,,,,,,,,,,,,,,,,,5e5ab88a43f33029b119a48c,49,2022-02-12_17h43.46.048,lexical_decision_task_DD_L2,2021.2.3,Win32,59.95203837,,,,,,,,,,,,0.694,1,,,,,,,,,,,,,,m,1,0.694,,,,,,,,0.013888889,-0.386111111,0,0,0,,0,97,97,31,1,QUILL,LB,old,m,./images/QUILLLB.png,,,,,,,,,,,,,,,,,,,,,,,,,,,,,,,,,,
,,,,,,,,,,,,,,,,,5e5ab88a43f33029b119a48c,49,2022-02-12_17h43.46.048,lexical_decision_task_DD_L2,2021.2.3,Win32,59.95203837,,,,,,,,,,,,1.064,1,,,,,,,,,,,,,,z,1,1.064,,,,,,,,0.013888889,-0.386111111,0,0,0,,0,98,98,121,1,CEERS,HB,old,z,./images/CEERSHB.png,,,,,,,,,,,,,,,,,,,,,,,,,,,,,,,,,,
,,,,,,,,,,,,,,,,,5e5ab88a43f33029b119a48c,49,2022-02-12_17h43.46.048,lexical_decision_task_DD_L2,2021.2.3,Win32,59.95203837,,,,,,,,,,,,1.195,1,,,,,,,,,,,,,,z,1,1.195,,,,,,,,0.013888889,-0.386111111,0,0,0,,0,99,99,130,1,CRILL,HB,old,z,./images/CRILLHB.png,,,,,,,,,,,,,,,,,,,,,,,,,,,,,,,,,,
,,,,,,,,,,,,,,,,,5e5ab88a43f33029b119a48c,49,2022-02-12_17h43.46.048,lexical_decision_task_DD_L2,2021.2.3,Win32,59.95203837,,,,,,,,,,,,0.51,1,,,,,,,,,,,,,,m,1,0.51,,,,,,,,0.013888889,-0.386111111,0,0,0,,0,100,100,63,1,MIRROR,HB,old,m,./images/MIRRORHB.png,,,,,,,,,,,,,,,,,,,,,,,,,,,,,,,,,,
,,,,,,,,,,,,,,,,,5e5ab88a43f33029b119a48c,49,2022-02-12_17h43.46.048,lexical_decision_task_DD_L2,2021.2.3,Win32,59.95203837,,,,,,,,,,,,0.595,1,,,,,,,,,,,,,,z,1,0.595,,,,,,,,0.013888889,-0.386111111,0,0,0,,0,101,101,84,1,HAXES,C,old,z,./images/HAXES.png,,,,,,,,,,,,,,,,,,,,,,,,,,,,,,,,,,
,,,,,,,,,,,,,,,,,5e5ab88a43f33029b119a48c,49,2022-02-12_17h43.46.048,lexical_decision_task_DD_L2,2021.2.3,Win32,59.95203837,,,,,,,,,,,,0.745,0,,,,,,,,,,,,,,m,0,0.745,,,,,,,,0.013888889,-0.386111111,0,0,0,,0,102,102,123,1,SEDGE,C,old,z,./images/SEDGE.png,,,,,,,,,,,,,,,,,,,,,,,,,,,,,,,,,,
,,,,,,,,,,,,,,,,,5e5ab88a43f33029b119a48c,49,2022-02-12_17h43.46.048,lexical_decision_task_DD_L2,2021.2.3,Win32,59.95203837,,,,,,,,,,,,0.66,1,,,,,,,,,,,,,,z,1,0.66,,,,,,,,0.013888889,-0.386111111,0,0,0,,0,103,103,117,1,STEEG,C,old,z,./images/STEEG.png,,,,,,,,,,,,,,,,,,,,,,,,,,,,,,,,,,
,,,,,,,,,,,,,,,,,5e5ab88a43f33029b119a48c,49,2022-02-12_17h43.46.048,lexical_decision_task_DD_L2,2021.2.3,Win32,59.95203837,,,,,,,,,,,,0.556,1,,,,,,,,,,,,,,m,1,0.556,,,,,,,,0.013888889,-0.386111111,0,0,0,,0,104,104,26,1,SMOKER,C,old,m,./images/SMOKER.png,,,,,,,,,,,,,,,,,,,,,,,,,,,,,,,,,,
,,,,,,,,,,,,,,,,,5e5ab88a43f33029b119a48c,49,2022-02-12_17h43.46.048,lexical_decision_task_DD_L2,2021.2.3,Win32,59.95203837,,,,,,,,,,,,0.571,1,,,,,,,,,,,,,,z,1,0.571,,,,,,,,0.013888889,-0.386111111,0,0,0,,0,105,105,147,1,ZOLES,C,old,z,./images/ZOLES.png,,,,,,,,,,,,,,,,,,,,,,,,,,,,,,,,,,
,,,,,,,,,,,,,,,,,5e5ab88a43f33029b119a48c,49,2022-02-12_17h43.46.048,lexical_decision_task_DD_L2,2021.2.3,Win32,59.95203837,,,,,,,,,,,,0.528,1,,,,,,,,,,,,,,m,1,0.528,,,,,,,,0.013888889,-0.386111111,0,0,0,,0,106,106,4,1,MUSCLE,LB,old,m,./images/MUSCLELB.png,,,,,,,,,,,,,,,,,,,,,,,,,,,,,,,,,,
,,,,,,,,,,,,,,,,,5e5ab88a43f33029b119a48c,49,2022-02-12_17h43.46.048,lexical_decision_task_DD_L2,2021.2.3,Win32,59.95203837,,,,,,,,,,,,1.014,1,,,,,,,,,,,,,,z,1,1.014,,,,,,,,0.013888889,-0.386111111,0,0,0,,0,107,107,136,1,WERVE,HB,old,z,./images/WERVEHB.png,,,,,,,,,,,,,,,,,,,,,,,,,,,,,,,,,,
,,,,,,,,,,,,,,,,,5e5ab88a43f33029b119a48c,49,2022-02-12_17h43.46.048,lexical_decision_task_DD_L2,2021.2.3,Win32,59.95203837,,,,,,,,,,,,0.945,1,,,,,,,,,,,,,,z,1,0.945,,,,,,,,0.013888889,-0.386111111,0,0,0,,0,108,108,104,1,GITTY,LB,old,z,./images/GITTYLB.png,,,,,,,,,,,,,,,,,,,,,,,,,,,,,,,,,,
,,,,,,,,,,,,,,,,,5e5ab88a43f33029b119a48c,49,2022-02-12_17h43.46.048,lexical_decision_task_DD_L2,2021.2.3,Win32,59.95203837,,,,,,,,,,,,0.626,1,,,,,,,,,,,,,,m,1,0.626,,,,,,,,0.013888889,-0.386111111,0,0,0,,0,109,109,40,1,SWING,LB,old,m,./images/SWINGLB.png,,,,,,,,,,,,,,,,,,,,,,,,,,,,,,,,,,
,,,,,,,,,,,,,,,,,5e5ab88a43f33029b119a48c,49,2022-02-12_17h43.46.048,lexical_decision_task_DD_L2,2021.2.3,Win32,59.95203837,,,,,,,,,,,,0.551,1,,,,,,,,,,,,,,z,1,0.551,,,,,,,,0.013888889,-0.386111111,0,0,0,,0,110,110,135,1,JOODY,C,old,z,./images/JOODY.png,,,,,,,,,,,,,,,,,,,,,,,,,,,,,,,,,,
,,,,,,,,,,,,,,,,,5e5ab88a43f33029b119a48c,49,2022-02-12_17h43.46.048,lexical_decision_task_DD_L2,2021.2.3,Win32,59.95203837,,,,,,,,,,,,0.594,1,,,,,,,,,,,,,,z,1,0.594,,,,,,,,0.013888889,-0.386111111,0,0,0,,0,111,111,143,1,MONGS,LB,old,z,./images/MONGSLB.png,,,,,,,,,,,,,,,,,,,,,,,,,,,,,,,,,,
,,,,,,,,,,,,,,,,,5e5ab88a43f33029b119a48c,49,2022-02-12_17h43.46.048,lexical_decision_task_DD_L2,2021.2.3,Win32,59.95203837,,,,,,,,,,,,0.528,1,,,,,,,,,,,,,,z,1,0.528,,,,,,,,0.013888889,-0.386111111,0,0,0,,0,112,112,150,1,NOOLS,C,old,z,./images/NOOLS.png,,,,,,,,,,,,,,,,,,,,,,,,,,,,,,,,,,
,,,,,,,,,,,,,,,,,5e5ab88a43f33029b119a48c,49,2022-02-12_17h43.46.048,lexical_decision_task_DD_L2,2021.2.3,Win32,59.95203837,,,,,,,,,,,,0.68,1,,,,,,,,,,,,,,z,1,0.68,,,,,,,,0.013888889,-0.386111111,0,0,0,,0,113,113,120,1,RINED,C,old,z,./images/RINED.png,,,,,,,,,,,,,,,,,,,,,,,,,,,,,,,,,,
,,,,,,,,,,,,,,,,,5e5ab88a43f33029b119a48c,49,2022-02-12_17h43.46.048,lexical_decision_task_DD_L2,2021.2.3,Win32,59.95203837,,,,,,,,,,,,0.527,1,,,,,,,,,,,,,,m,1,0.527,,,,,,,,0.013888889,-0.386111111,0,0,0,,0,114,114,6,1,SQUARE,HB,old,m,./images/SQUAREHB.png,,,,,,,,,,,,,,,,,,,,,,,,,,,,,,,,,,
,,,,,,,,,,,,,,,,,5e5ab88a43f33029b119a48c,49,2022-02-12_17h43.46.048,lexical_decision_task_DD_L2,2021.2.3,Win32,59.95203837,,,,,,,,,,,,0.481,1,,,,,,,,,,,,,,m,1,0.481,,,,,,,,0.013888889,-0.386111111,0,0,0,,0,115,115,41,1,STRING,C,old,m,./images/STRING.png,,,,,,,,,,,,,,,,,,,,,,,,,,,,,,,,,,
,,,,,,,,,,,,,,,,,5e5ab88a43f33029b119a48c,49,2022-02-12_17h43.46.048,lexical_decision_task_DD_L2,2021.2.3,Win32,59.95203837,,,,,,,,,,,,0.695,1,,,,,,,,,,,,,,z,1,0.695,,,,,,,,0.013888889,-0.386111111,0,0,0,,0,116,116,129,1,PRANS,C,old,z,./images/PRANS.png,,,,,,,,,,,,,,,,,,,,,,,,,,,,,,,,,,
,,,,,,,,,,,,,,,,,5e5ab88a43f33029b119a48c,49,2022-02-12_17h43.46.048,lexical_decision_task_DD_L2,2021.2.3,Win32,59.95203837,,,,,,,,,,,,0.994,1,,,,,,,,,,,,,,z,1,0.994,,,,,,,,0.013888889,-0.386111111,0,0,0,,0,117,117,88,1,GLUSH,HB,old,z,./images/GLUSHHB.png,,,,,,,,,,,,,,,,,,,,,,,,,,,,,,,,,,
,,,,,,,,,,,,,,,,,5e5ab88a43f33029b119a48c,49,2022-02-12_17h43.46.048,lexical_decision_task_DD_L2,2021.2.3,Win32,59.95203837,,,,,,,,,,,,0.461,1,,,,,,,,,,,,,,m,1,0.461,,,,,,,,0.013888889,-0.386111111,0,0,0,,0,118,118,65,1,FARMER,C,old,m,./images/FARMER.png,,,,,,,,,,,,,,,,,,,,,,,,,,,,,,,,,,
,,,,,,,,,,,,,,,,,5e5ab88a43f33029b119a48c,49,2022-02-12_17h43.46.048,lexical_decision_task_DD_L2,2021.2.3,Win32,59.95203837,,,,,,,,,,,,0.68,1,,,,,,,,,,,,,,z,1,0.68,,,,,,,,0.013888889,-0.386111111,0,0,0,,0,119,119,155,1,CANGY,LB,old,z,./images/CANGYLB.png,,,,,,,,,,,,,,,,,,,,,,,,,,,,,,,,,,
,,,,,,,,,,,,,,,,,5e5ab88a43f33029b119a48c,49,2022-02-12_17h43.46.048,lexical_decision_task_DD_L2,2021.2.3,Win32,59.95203837,,,,,,,,,,,,1.077,1,,,,,,,,,,,,,,z,1,1.077,,,,,,,,0.013888889,-0.386111111,0,0,0,,0,120,120,124,1,TUNCH,HB,old,z,./images/TUNCHHB.png,,,,,,,,,,,,,,,,,,,,,,,,,,,,,,,,,,
,,,,,,,,,,,,,,,,,5e5ab88a43f33029b119a48c,49,2022-02-12_17h43.46.048,lexical_decision_task_DD_L2,2021.2.3,Win32,59.95203837,,,,,,,,,,,,0.41,0,,,,,,,,,,,,,,m,0,0.41,,,,,,,,0.013888889,-0.386111111,0,0,0,,0,121,121,93,1,SMONE,C,old,z,./images/SMONE.png,,,,,,,,,,,,,,,,,,,,,,,,,,,,,,,,,,
,,,,,,,,,,,,,,,,,5e5ab88a43f33029b119a48c,49,2022-02-12_17h43.46.048,lexical_decision_task_DD_L2,2021.2.3,Win32,59.95203837,,,,,,,,,,,,0.573,0,,,,,,,,,,,,,,m,0,0.573,,,,,,,,0.013888889,-0.386111111,0,0,0,,0,122,122,96,1,KEAMS,C,old,z,./images/KEAMS.png,,,,,,,,,,,,,,,,,,,,,,,,,,,,,,,,,,
,,,,,,,,,,,,,,,,,5e5ab88a43f33029b119a48c,49,2022-02-12_17h43.46.048,lexical_decision_task_DD_L2,2021.2.3,Win32,59.95203837,,,,,,,,,,,,0.636,1,,,,,,,,,,,,,,m,1,0.636,,,,,,,,0.013888889,-0.386111111,0,0,0,,0,123,123,75,1,GRAIN,HB,old,m,./images/GRAINHB.png,,,,,,,,,,,,,,,,,,,,,,,,,,,,,,,,,,
,,,,,,,,,,,,,,,,,5e5ab88a43f33029b119a48c,49,2022-02-12_17h43.46.048,lexical_decision_task_DD_L2,2021.2.3,Win32,59.95203837,,,,,,,,,,,,0.948,1,,,,,,,,,,,,,,z,1,0.948,,,,,,,,0.013888889,-0.386111111,0,0,0,,0,124,124,139,1,BLEAR,HB,old,z,./images/BLEARHB.png,,,,,,,,,,,,,,,,,,,,,,,,,,,,,,,,,,
,,,,,,,,,,,,,,,,,5e5ab88a43f33029b119a48c,49,2022-02-12_17h43.46.048,lexical_decision_task_DD_L2,2021.2.3,Win32,59.95203837,,,,,,,,,,,,0.611,1,,,,,,,,,,,,,,m,1,0.611,,,,,,,,0.013888889,-0.386111111,0,0,0,space,0,125,125,25,1,WRIST,LB,old,m,./images/WRISTLB.png,1.479,,,,,,,,,,,,,,,,,,,,,,,,,,,,,,,,,
,,,,,,,,,,,,,,,,,5e5ab88a43f33029b119a48c,49,2022-02-12_17h43.46.048,lexical_decision_task_DD_L2,2021.2.3,Win32,59.95203837,,,,,,,,,,,,0.617,1,,,,,,,,,,,,,,m,1,0.617,,,,,,,,0.013888889,-0.386111111,0,0,0,,0,126,126,81,1,POODLE,HB,old,m,./images/POODLEHB.png,,,,,,,,,,,,,,,,,,,,,,,,,,,,,,,,,,
,,,,,,,,,,,,,,,,,5e5ab88a43f33029b119a48c,49,2022-02-12_17h43.46.048,lexical_decision_task_DD_L2,2021.2.3,Win32,59.95203837,,,,,,,,,,,,0.627,1,,,,,,,,,,,,,,m,1,0.627,,,,,,,,0.013888889,-0.386111111,0,0,0,,0,127,127,56,1,PACKET,C,old,m,./images/PACKET.png,,,,,,,,,,,,,,,,,,,,,,,,,,,,,,,,,,
,,,,,,,,,,,,,,,,,5e5ab88a43f33029b119a48c,49,2022-02-12_17h43.46.048,lexical_decision_task_DD_L2,2021.2.3,Win32,59.95203837,,,,,,,,,,,,0.758,1,,,,,,,,,,,,,,z,1,0.758,,,,,,,,0.013888889,-0.386111111,0,0,0,,0,128,128,160,1,VEETS,HB,old,z,./images/VEETSHB.png,,,,,,,,,,,,,,,,,,,,,,,,,,,,,,,,,,
,,,,,,,,,,,,,,,,,5e5ab88a43f33029b119a48c,49,2022-02-12_17h43.46.048,lexical_decision_task_DD_L2,2021.2.3,Win32,59.95203837,,,,,,,,,,,,0.565,1,,,,,,,,,,,,,,z,1,0.565,,,,,,,,0.013888889,-0.386111111,0,0,0,,0,129,129,138,1,PLICE,C,old,z,./images/PLICE.png,,,,,,,,,,,,,,,,,,,,,,,,,,,,,,,,,,
,,,,,,,,,,,,,,,,,5e5ab88a43f33029b119a48c,49,2022-02-12_17h43.46.048,lexical_decision_task_DD_L2,2021.2.3,Win32,59.95203837,,,,,,,,,,,,0.54,1,,,,,,,,,,,,,,z,1,0.54,,,,,,,,0.013888889,-0.386111111,0,0,0,,0,130,130,102,1,DULLE,C,old,z,./images/DULLE.png,,,,,,,,,,,,,,,,,,,,,,,,,,,,,,,,,,
,,,,,,,,,,,,,,,,,5e5ab88a43f33029b119a48c,49,2022-02-12_17h43.46.048,lexical_decision_task_DD_L2,2021.2.3,Win32,59.95203837,,,,,,,,,,,,0.528,1,,,,,,,,,,,,,,m,1,0.528,,,,,,,,0.013888889,-0.386111111,0,0,0,,0,131,131,64,1,JELLY,LB,old,m,./images/JELLYLB.png,,,,,,,,,,,,,,,,,,,,,,,,,,,,,,,,,,
,,,,,,,,,,,,,,,,,5e5ab88a43f33029b119a48c,49,2022-02-12_17h43.46.048,lexical_decision_task_DD_L2,2021.2.3,Win32,59.95203837,,,,,,,,,,,,0.593,1,,,,,,,,,,,,,,z,1,0.593,,,,,,,,0.013888889,-0.386111111,0,0,0,,0,132,132,108,1,GRUET,C,old,z,./images/GRUET.png,,,,,,,,,,,,,,,,,,,,,,,,,,,,,,,,,,
,,,,,,,,,,,,,,,,,5e5ab88a43f33029b119a48c,49,2022-02-12_17h43.46.048,lexical_decision_task_DD_L2,2021.2.3,Win32,59.95203837,,,,,,,,,,,,0.682,1,,,,,,,,,,,,,,z,1,0.682,,,,,,,,0.013888889,-0.386111111,0,0,0,,0,133,133,131,1,NACES,LB,old,z,./images/NACESLB.png,,,,,,,,,,,,,,,,,,,,,,,,,,,,,,,,,,
,,,,,,,,,,,,,,,,,5e5ab88a43f33029b119a48c,49,2022-02-12_17h43.46.048,lexical_decision_task_DD_L2,2021.2.3,Win32,59.95203837,,,,,,,,,,,,0.93,1,,,,,,,,,,,,,,z,1,0.93,,,,,,,,0.013888889,-0.386111111,0,0,0,,0,134,134,100,1,DRIBS,HB,old,z,./images/DRIBSHB.png,,,,,,,,,,,,,,,,,,,,,,,,,,,,,,,,,,
,,,,,,,,,,,,,,,,,5e5ab88a43f33029b119a48c,49,2022-02-12_17h43.46.048,lexical_decision_task_DD_L2,2021.2.3,Win32,59.95203837,,,,,,,,,,,,1.433,0,,,,,,,,,,,,,,z,0,1.433,,,,,,,,0.013888889,-0.386111111,0,0,0,,0,135,135,33,1,MAGGOT,HB,old,m,./images/MAGGOTHB.png,,,,,,,,,,,,,,,,,,,,,,,,,,,,,,,,,,
,,,,,,,,,,,,,,,,,5e5ab88a43f33029b119a48c,49,2022-02-12_17h43.46.048,lexical_decision_task_DD_L2,2021.2.3,Win32,59.95203837,,,,,,,,,,,,0.846,1,,,,,,,,,,,,,,z,1,0.846,,,,,,,,0.013888889,-0.386111111,0,0,0,,0,136,136,164,1,SGREW,LB,old,z,./images/SGREWLB.png,,,,,,,,,,,,,,,,,,,,,,,,,,,,,,,,,,
,,,,,,,,,,,,,,,,,5e5ab88a43f33029b119a48c,49,2022-02-12_17h43.46.048,lexical_decision_task_DD_L2,2021.2.3,Win32,59.95203837,,,,,,,,,,,,1.01,1,,,,,,,,,,,,,,z,1,1.01,,,,,,,,0.013888889,-0.386111111,0,0,0,,0,137,137,112,1,MYING,HB,old,z,./images/MYINGHB.png,,,,,,,,,,,,,,,,,,,,,,,,,,,,,,,,,,
,,,,,,,,,,,,,,,,,5e5ab88a43f33029b119a48c,49,2022-02-12_17h43.46.048,lexical_decision_task_DD_L2,2021.2.3,Win32,59.95203837,,,,,,,,,,,,0.487,1,,,,,,,,,,,,,,m,1,0.487,,,,,,,,0.013888889,-0.386111111,0,0,0,,0,138,138,74,1,CEMENT,C,old,m,./images/CEMENT.png,,,,,,,,,,,,,,,,,,,,,,,,,,,,,,,,,,
,,,,,,,,,,,,,,,,,5e5ab88a43f33029b119a48c,49,2022-02-12_17h43.46.048,lexical_decision_task_DD_L2,2021.2.3,Win32,59.95203837,,,,,,,,,,,,0.778,0,,,,,,,,,,,,,,z,0,0.778,,,,,,,,0.013888889,-0.386111111,0,0,0,,0,139,139,72,1,NOOSE,HB,old,m,./images/NOOSEHB.png,,,,,,,,,,,,,,,,,,,,,,,,,,,,,,,,,,
,,,,,,,,,,,,,,,,,5e5ab88a43f33029b119a48c,49,2022-02-12_17h43.46.048,lexical_decision_task_DD_L2,2021.2.3,Win32,59.95203837,,,,,,,,,,,,1.096,1,,,,,,,,,,,,,,z,1,1.096,,,,,,,,0.013888889,-0.386111111,0,0,0,,0,140,140,115,1,MAWNS,HB,old,z,./images/MAWNSHB.png,,,,,,,,,,,,,,,,,,,,,,,,,,,,,,,,,,
,,,,,,,,,,,,,,,,,5e5ab88a43f33029b119a48c,49,2022-02-12_17h43.46.048,lexical_decision_task_DD_L2,2021.2.3,Win32,59.95203837,,,,,,,,,,,,0.595,1,,,,,,,,,,,,,,z,1,0.595,,,,,,,,0.013888889,-0.386111111,0,0,0,,0,141,141,95,1,HANTY,LB,old,z,./images/HANTYLB.png,,,,,,,,,,,,,,,,,,,,,,,,,,,,,,,,,,
,,,,,,,,,,,,,,,,,5e5ab88a43f33029b119a48c,49,2022-02-12_17h43.46.048,lexical_decision_task_DD_L2,2021.2.3,Win32,59.95203837,,,,,,,,,,,,0.494,1,,,,,,,,,,,,,,m,1,0.494,,,,,,,,0.013888889,-0.386111111,0,0,0,,0,142,142,83,1,JUNGLE,C,old,m,./images/JUNGLE.png,,,,,,,,,,,,,,,,,,,,,,,,,,,,,,,,,,
,,,,,,,,,,,,,,,,,5e5ab88a43f33029b119a48c,49,2022-02-12_17h43.46.048,lexical_decision_task_DD_L2,2021.2.3,Win32,59.95203837,,,,,,,,,,,,0.711,1,,,,,,,,,,,,,,z,1,0.711,,,,,,,,0.013888889,-0.386111111,0,0,0,,0,143,143,126,1,GUELS,C,old,z,./images/GUELS.png,,,,,,,,,,,,,,,,,,,,,,,,,,,,,,,,,,
,,,,,,,,,,,,,,,,,5e5ab88a43f33029b119a48c,49,2022-02-12_17h43.46.048,lexical_decision_task_DD_L2,2021.2.3,Win32,59.95203837,,,,,,,,,,,,0.659,1,,,,,,,,,,,,,,z,1,0.659,,,,,,,,0.013888889,-0.386111111,0,0,0,,0,144,144,152,1,FRAIN,LB,old,z,./images/FRAINLB.png,,,,,,,,,,,,,,,,,,,,,,,,,,,,,,,,,,
,,,,,,,,,,,,,,,,,5e5ab88a43f33029b119a48c,49,2022-02-12_17h43.46.048,lexical_decision_task_DD_L2,2021.2.3,Win32,59.95203837,,,,,,,,,,,,0.627,1,,,,,,,,,,,,,,m,1,0.627,,,,,,,,0.013888889,-0.386111111,0,0,0,,0,145,145,71,1,PIMPLE,C,old,m,./images/PIMPLE.png,,,,,,,,,,,,,,,,,,,,,,,,,,,,,,,,,,
,,,,,,,,,,,,,,,,,5e5ab88a43f33029b119a48c,49,2022-02-12_17h43.46.048,lexical_decision_task_DD_L2,2021.2.3,Win32,59.95203837,,,,,,,,,,,,0.609,1,,,,,,,,,,,,,,z,1,0.609,,,,,,,,0.013888889,-0.386111111,0,0,0,,0,146,146,125,1,MOOKY,LB,old,z,./images/MOOKYLB.png,,,,,,,,,,,,,,,,,,,,,,,,,,,,,,,,,,
,,,,,,,,,,,,,,,,,5e5ab88a43f33029b119a48c,49,2022-02-12_17h43.46.048,lexical_decision_task_DD_L2,2021.2.3,Win32,59.95203837,,,,,,,,,,,,0.635,1,,,,,,,,,,,,,,m,1,0.635,,,,,,,,0.013888889,-0.386111111,0,0,0,,0,147,147,78,1,LITTER,HB,old,m,./images/LITTERHB.png,,,,,,,,,,,,,,,,,,,,,,,,,,,,,,,,,,
,,,,,,,,,,,,,,,,,5e5ab88a43f33029b119a48c,49,2022-02-12_17h43.46.048,lexical_decision_task_DD_L2,2021.2.3,Win32,59.95203837,,,,,,,,,,,,0.68,1,,,,,,,,,,,,,,m,1,0.68,,,,,,,,0.013888889,-0.386111111,0,0,0,,0,148,148,70,1,URINE,LB,old,m,./images/URINELB.png,,,,,,,,,,,,,,,,,,,,,,,,,,,,,,,,,,
,,,,,,,,,,,,,,,,,5e5ab88a43f33029b119a48c,49,2022-02-12_17h43.46.048,lexical_decision_task_DD_L2,2021.2.3,Win32,59.95203837,,,,,,,,,,,,0.876,1,,,,,,,,,,,,,,m,1,0.876,,,,,,,,0.013888889,-0.386111111,0,0,0,,0,149,149,30,1,STORM,HB,old,m,./images/STORMHB.png,,,,,,,,,,,,,,,,,,,,,,,,,,,,,,,,,,
,,,,,,,,,,,,,,,,,5e5ab88a43f33029b119a48c,49,2022-02-12_17h43.46.048,lexical_decision_task_DD_L2,2021.2.3,Win32,59.95203837,,,,,,,,,,,,0.694,1,,,,,,,,,,,,,,m,1,0.694,,,,,,,,0.013888889,-0.386111111,0,0,0,,0,150,150,39,1,SHELF,HB,old,m,./images/SHELFHB.png,,,,,,,,,,,,,,,,,,,,,,,,,,,,,,,,,,
,,,,,,,,,,,,,,,,,5e5ab88a43f33029b119a48c,49,2022-02-12_17h43.46.048,lexical_decision_task_DD_L2,2021.2.3,Win32,59.95203837,,,,,,,,,,,,0.577,1,,,,,,,,,,,,,,m,1,0.577,,,,,,,,0.013888889,-0.386111111,0,0,0,,0,151,151,48,1,SPORT,HB,old,m,./images/SPORTHB.png,,,,,,,,,,,,,,,,,,,,,,,,,,,,,,,,,,
,,,,,,,,,,,,,,,,,5e5ab88a43f33029b119a48c,49,2022-02-12_17h43.46.048,lexical_decision_task_DD_L2,2021.2.3,Win32,59.95203837,,,,,,,,,,,,0.775,1,,,,,,,,,,,,,,z,1,0.775,,,,,,,,0.013888889,-0.386111111,0,0,0,,0,152,152,110,1,CRUNK,LB,old,z,./images/CRUNKLB.png,,,,,,,,,,,,,,,,,,,,,,,,,,,,,,,,,,
,,,,,,,,,,,,,,,,,5e5ab88a43f33029b119a48c,49,2022-02-12_17h43.46.048,lexical_decision_task_DD_L2,2021.2.3,Win32,59.95203837,,,,,,,,,,,,0.621,1,,,,,,,,,,,,,,z,1,0.621,,,,,,,,0.013888889,-0.386111111,0,0,0,,0,153,153,144,1,NAIRY,C,old,z,./images/NAIRY.png,,,,,,,,,,,,,,,,,,,,,,,,,,,,,,,,,,
,,,,,,,,,,,,,,,,,5e5ab88a43f33029b119a48c,49,2022-02-12_17h43.46.048,lexical_decision_task_DD_L2,2021.2.3,Win32,59.95203837,,,,,,,,,,,,1.063,1,,,,,,,,,,,,,,z,1,1.063,,,,,,,,0.013888889,-0.386111111,0,0,0,,0,154,154,145,1,LAMEL,HB,old,z,./images/LAMELHB.png,,,,,,,,,,,,,,,,,,,,,,,,,,,,,,,,,,
,,,,,,,,,,,,,,,,,5e5ab88a43f33029b119a48c,49,2022-02-12_17h43.46.048,lexical_decision_task_DD_L2,2021.2.3,Win32,59.95203837,,,,,,,,,,,,0.628,1,,,,,,,,,,,,,,m,1,0.628,,,,,,,,0.013888889,-0.386111111,0,0,0,,0,155,155,53,1,CARPET,C,old,m,./images/CARPET.png,,,,,,,,,,,,,,,,,,,,,,,,,,,,,,,,,,
,,,,,,,,,,,,,,,,,5e5ab88a43f33029b119a48c,49,2022-02-12_17h43.46.048,lexical_decision_task_DD_L2,2021.2.3,Win32,59.95203837,,,,,,,,,,,,1.311,1,,,,,,,,,,,,,,z,1,1.311,,,,,,,,0.013888889,-0.386111111,0,0,0,,0,156,156,97,1,CHIDS,HB,old,z,./images/CHIDSHB.png,,,,,,,,,,,,,,,,,,,,,,,,,,,,,,,,,,
,,,,,,,,,,,,,,,,,5e5ab88a43f33029b119a48c,49,2022-02-12_17h43.46.048,lexical_decision_task_DD_L2,2021.2.3,Win32,59.95203837,,,,,,,,,,,,1.154,1,,,,,,,,,,,,,,z,1,1.154,,,,,,,,0.013888889,-0.386111111,0,0,0,,0,157,157,103,1,FLORT,HB,old,z,./images/FLORTHB.png,,,,,,,,,,,,,,,,,,,,,,,,,,,,,,,,,,
,,,,,,,,,,,,,,,,,5e5ab88a43f33029b119a48c,49,2022-02-12_17h43.46.048,lexical_decision_task_DD_L2,2021.2.3,Win32,59.95203837,,,,,,,,,,,,0.579,1,,,,,,,,,,,,,,m,1,0.579,,,,,,,,0.013888889,-0.386111111,0,0,0,,0,158,158,36,1,THROAT,HB,old,m,./images/THROATHB.png,,,,,,,,,,,,,,,,,,,,,,,,,,,,,,,,,,
,,,,,,,,,,,,,,,,,5e5ab88a43f33029b119a48c,49,2022-02-12_17h43.46.048,lexical_decision_task_DD_L2,2021.2.3,Win32,59.95203837,,,,,,,,,,,,0.543,1,,,,,,,,,,,,,,m,1,0.543,,,,,,,,0.013888889,-0.386111111,0,0,0,,0,159,159,79,1,CRUST,LB,old,m,./images/CRUSTLB.png,,,,,,,,,,,,,,,,,,,,,,,,,,,,,,,,,,
,,,,,,,,,,,,,,,,,5e5ab88a43f33029b119a48c,49,2022-02-12_17h43.46.048,lexical_decision_task_DD_L2,2021.2.3,Win32,59.95203837,,,,,,,,,,,,0.662,1,,,,,,,,,,,,,,z,1,0.662,,,,,,,,0.013888889,-0.386111111,0,0,0,,0,160,160,116,1,BALGY,LB,old,z,./images/BALGYLB.png,,,,,,,,,,,,,,,,,,,,,,,,,,,,,,,,,,
,,,,,,,,,,,,,,,,,5e5ab88a43f33029b119a48c,49,2022-02-12_17h43.46.048,lexical_decision_task_DD_L2,2021.2.3,Win32,59.95203837,,,,,,,,,,,,0.682,1,,,,,,,,,,,,,,m,1,0.682,,,,,,,,0.013888889,-0.386111111,0,0,0,,0,161,161,43,1,MOSQUE,LB,old,m,./images/MOSQUELB.png,,,,,,,,,,,,,,,,,,,,,,,,,,,,,,,,,,
,,,,,,,,,,,,,,,,,5e5ab88a43f33029b119a48c,49,2022-02-12_17h43.46.048,lexical_decision_task_DD_L2,2021.2.3,Win32,59.95203837,,,,,,,,,,,,0.572,1,,,,,,,,,,,,,,m,1,0.572,,,,,,,,0.013888889,-0.386111111,0,0,0,,0,162,162,57,1,MOOSE,HB,old,m,./images/MOOSEHB.png,,,,,,,,,,,,,,,,,,,,,,,,,,,,,,,,,,
,,,,,,,,,,,,,,,,,5e5ab88a43f33029b119a48c,49,2022-02-12_17h43.46.048,lexical_decision_task_DD_L2,2021.2.3,Win32,59.95203837,,,,,,,,,,,,0.675,1,,,,,,,,,,,,,,z,1,0.675,,,,,,,,0.013888889,-0.386111111,0,0,0,,0,163,163,153,1,CLUPS,C,old,z,./images/CLUPS.png,,,,,,,,,,,,,,,,,,,,,,,,,,,,,,,,,,
,,,,,,,,,,,,,,,,,5e5ab88a43f33029b119a48c,49,2022-02-12_17h43.46.048,lexical_decision_task_DD_L2,2021.2.3,Win32,59.95203837,,,,,,,,,,,,0.522,1,,,,,,,,,,,,,,m,1,0.522,,,,,,,,0.013888889,-0.386111111,0,0,0,,0,164,164,5,1,PASTA,C,old,m,./images/PASTA.png,,,,,,,,,,,,,,,,,,,,,,,,,,,,,,,,,,
,,,,,,,,,,,,,,,,,5e5ab88a43f33029b119a48c,49,2022-02-12_17h43.46.048,lexical_decision_task_DD_L2,2021.2.3,Win32,59.95203837,,,,,,,,,,,,0.929,1,,,,,,,,,,,,,,z,1,0.929,,,,,,,,0.013888889,-0.386111111,0,0,0,,0,165,165,127,1,NINDY,HB,old,z,./images/NINDYHB.png,,,,,,,,,,,,,,,,,,,,,,,,,,,,,,,,,,
,,,,,,,,,,,,,,,,,5e5ab88a43f33029b119a48c,49,2022-02-12_17h43.46.048,lexical_decision_task_DD_L2,2021.2.3,Win32,59.95203837,,,,,,,,,,,,0.614,1,,,,,,,,,,,,,,z,1,0.614,,,,,,,,0.013888889,-0.386111111,0,0,0,,0,166,166,98,1,BAMPS,LB,old,z,./images/BAMPSLB.png,,,,,,,,,,,,,,,,,,,,,,,,,,,,,,,,,,
,,,,,,,,,,,,,,,,,5e5ab88a43f33029b119a48c,49,2022-02-12_17h43.46.048,lexical_decision_task_DD_L2,2021.2.3,Win32,59.95203837,,,,,,,,,,,,0.726,1,,,,,,,,,,,,,,m,1,0.726,,,,,,,,0.013888889,-0.386111111,0,0,0,,0,167,167,18,1,JAGUAR,HB,old,m,./images/JAGUARHB.png,,,,,,,,,,,,,,,,,,,,,,,,,,,,,,,,,,
,,,,,,,,,,,,,,,,,5e5ab88a43f33029b119a48c,49,2022-02-12_17h43.46.048,lexical_decision_task_DD_L2,2021.2.3,Win32,59.95203837,,,,,,,,,,,,,,,,,,,,,,,,,,,,,,,,,,,,,,,,,,,,,,,,,How likely will it be that you will recognize the words presented clearly on a scale of 0 (not likely) to 100 (most likely)?,,,,,0.013888889,-0.386111111,1,0,0,jol_adv,6,9.069,0,0,0,0,1,,,,,,,,,,,,,,,,,,,,
,,,,,,,,,,,,,,,,,5e5ab88a43f33029b119a48c,49,2022-02-12_17h43.46.048,lexical_decision_task_DD_L2,2021.2.3,Win32,59.95203837,,,,,,,,,,,,,,,,,,,,,,,,,,,,,,,,,,,,,,,,,,,,,,,,,How likely will it be that you will recognize the words presented slighly blurred on a scale of 0 (not likely) to 100 (most likely)?,,,,,,,,,,,5,3.324,0,1,1,1,1,,,,,,,,,,,,,,,,,,,,
,,,,,,,,,,,,,,,,,5e5ab88a43f33029b119a48c,49,2022-02-12_17h43.46.048,lexical_decision_task_DD_L2,2021.2.3,Win32,59.95203837,,,,,,,,,,,,,,,,,,,,,,,,,,,,,,,,,,,,,,,,,,,,,,,,,How likely will it be that you will recognize the words presented very blurred on a scale of 0 (not likely) to 100 (most likely)?,,,,,,,,,,,2,4.502,0,2,2,2,1,,,,,,,,,,,,,,,,,,,,
space,-0.166666667,-0.151851852,0,0,0,,,,,,,1,test,"In the next phase you will be presented with the words from the the first phase. Your job is to decide whether you remember seeing the word or not. If you remember seeing the word press ""old"" or type ""m"". If you do not remember seeing the word press ""new"" or type ""z"". Please press the space bar or click on continue to begin. ",,,5e5ab88a43f33029b119a48c,49,2022-02-12_17h43.46.048,lexical_decision_task_DD_L2,2021.2.3,Win32,59.95203837,13.384,,,,,,,,,,,,,,,,,,,,,,,,,,,,,,,,,,,,,,,,,,,,,,,,,,,,,,,,,,,,,,,,,,0,0,0,0,1,,,,,,,,,,,,,,,
,-0.019444444,-0.406481481,1,0,0,instr_done_button,,,,,,1,test,"In the next phase you will be presented with the words from the the first phase. Your job is to decide whether you remember seeing the word or not. If you remember seeing the word press ""old"" or type ""m"". If you do not remember seeing the word press ""new"" or type ""z"". Please press the space bar or click on continue to begin. ",,,5e5ab88a43f33029b119a48c,49,2022-02-12_17h43.46.048,lexical_decision_task_DD_L2,2021.2.3,Win32,59.95203837,,,,,,,,,,,,,,,,,,,,,,,,,,,,,,,,,,,,,,,,,,,,,,,,,,,,,,,,,,,,,,,,,,,1,0,1,0,1,,,,,,,,,,,,,,,
space,-0.019444444,-0.406481481,0,0,0,,,,,,,1,test,"In the next phase you will be presented with the words from the the first phase. Your job is to decide whether you remember seeing the word or not. If you remember seeing the word press ""old"" or type ""m"". If you do not remember seeing the word press ""new"" or type ""z"". Please press the space bar or click on continue to begin. ",,,5e5ab88a43f33029b119a48c,49,2022-02-12_17h43.46.048,lexical_decision_task_DD_L2,2021.2.3,Win32,59.95203837,4.616,,,,,,,,,,,,,,,,,,,,,,,,,,,,,,,,,,,,,,,,,,,,,,,,,,,,,,,,,,,,,,,,,,2,0,2,0,1,,,,,,,,,,,,,,,
space,-0.019444444,-0.406481481,0,0,0,,,,,,,1,test,"In the next phase you will be presented with the words from the the first phase. Your job is to decide whether you remember seeing the word or not. If you remember seeing the word press ""old"" or type ""m"". If you do not remember seeing the word press ""new"" or type ""z"". Please press the space bar or click on continue to begin. ",,,5e5ab88a43f33029b119a48c,49,2022-02-12_17h43.46.048,lexical_decision_task_DD_L2,2021.2.3,Win32,59.95203837,2.182,,,,,,,,,,,,,,,,,,,,,,,,,,,,,,,,,,,,,,,,,,,,,,,,,,,,,,,,,,,,,,,,,,3,0,3,0,1,,,,,,,,,,,,,,,
,-0.019444444,-0.406481481,1,0,0,instr_done_button,,,,,,1,test,"In the next phase you will be presented with the words from the the first phase. Your job is to decide whether you remember seeing the word or not. If you remember seeing the word press ""old"" or type ""m"". If you do not remember seeing the word press ""new"" or type ""z"". Please press the space bar or click on continue to begin. ",,,5e5ab88a43f33029b119a48c,49,2022-02-12_17h43.46.048,lexical_decision_task_DD_L2,2021.2.3,Win32,59.95203837,,,,,,,,,,,,,,,,,,,,,,,,,,,,,,,,,,,,,,,,,,,,,,,,,,,,,,,,,,,,,,,,,,,4,0,4,0,1,,,,,,,,,,,,,,,
,,,,,,,,,,,,,,,,,5e5ab88a43f33029b119a48c,49,2022-02-12_17h43.46.048,lexical_decision_task_DD_L2,2021.2.3,Win32,59.95203837,,,,,,,,,,,,1.015,1,,,,,,,,,,,,,,,,,,,,,,,,-0.019444444,-0.406481481,0,0,0,,,,,,,BLOKE,HB,z,y,./images/BLOKEHB.png,,,,,,,,,,,,,,,,,,,,z,1,1.015,,,,,,,,0,0,0,96,1
,,,,,,,,,,,,,,,,,5e5ab88a43f33029b119a48c,49,2022-02-12_17h43.46.048,lexical_decision_task_DD_L2,2021.2.3,Win32,59.95203837,,,,,,,,,,,,0.781,0,,,,,,,,,,,,,,,,,,,,,,,,-0.019444444,-0.406481481,0,0,0,,,,,,,BRUSH,C,z,y,./images/BRUSH.png,,,,,,,,,,,,,,,,,,,,m,0,0.781,,,,,,,,0,1,1,143,1
,,,,,,,,,,,,,,,,,5e5ab88a43f33029b119a48c,49,2022-02-12_17h43.46.048,lexical_decision_task_DD_L2,2021.2.3,Win32,59.95203837,,,,,,,,,,,,1.301,0,,,,,,,,,,,,,,,,,,,,,,,,-0.019444444,-0.406481481,0,0,0,,,,,,,WHEEL,C,z,y,./images/WHEEL.png,,,,,,,,,,,,,,,,,,,,m,0,1.301,,,,,,,,0,2,2,161,1
,,,,,,,,,,,,,,,,,5e5ab88a43f33029b119a48c,49,2022-02-12_17h43.46.048,lexical_decision_task_DD_L2,2021.2.3,Win32,59.95203837,,,,,,,,,,,,0.884,0,,,,,,,,,,,,,,,,,,,,,,,,-0.019444444,-0.406481481,0,0,0,,,,,,,CASINO,LB,z,y,./images/CASINOLB.png,,,,,,,,,,,,,,,,,,,,m,0,0.884,,,,,,,,0,3,3,112,1
,,,,,,,,,,,,,,,,,5e5ab88a43f33029b119a48c,49,2022-02-12_17h43.46.048,lexical_decision_task_DD_L2,2021.2.3,Win32,59.95203837,,,,,,,,,,,,0.663,1,,,,,,,,,,,,,,,,,,,,,,,,-0.019444444,-0.406481481,0,0,0,,,,,,,JUNGLE,C,m,y,./images/JUNGLE.png,,,,,,,,,,,,,,,,,,,,m,1,0.663,,,,,,,,0,4,4,83,1
,,,,,,,,,,,,,,,,,5e5ab88a43f33029b119a48c,49,2022-02-12_17h43.46.048,lexical_decision_task_DD_L2,2021.2.3,Win32,59.95203837,,,,,,,,,,,,0.684,1,,,,,,,,,,,,,,,,,,,,,,,,-0.019444444,-0.406481481,0,0,0,,,,,,,THROAT,HB,m,y,./images/THROATHB.png,,,,,,,,,,,,,,,,,,,,m,1,0.684,,,,,,,,0,5,5,36,1
,,,,,,,,,,,,,,,,,5e5ab88a43f33029b119a48c,49,2022-02-12_17h43.46.048,lexical_decision_task_DD_L2,2021.2.3,Win32,59.95203837,,,,,,,,,,,,1.449,1,,,,,,,,,,,,,,,,,,,,,,,,-0.019444444,-0.406481481,0,0,0,,,,,,,BRIDE,LB,z,y,./images/BRIDELB.png,,,,,,,,,,,,,,,,,,,,z,1,1.449,,,,,,,,0,6,6,148,1
,,,,,,,,,,,,,,,,,5e5ab88a43f33029b119a48c,49,2022-02-12_17h43.46.048,lexical_decision_task_DD_L2,2021.2.3,Win32,59.95203837,,,,,,,,,,,,0.694,1,,,,,,,,,,,,,,,,,,,,,,,,-0.019444444,-0.406481481,0,0,0,,,,,,,WALRUS,C,m,y,./images/WALRUS.png,,,,,,,,,,,,,,,,,,,,m,1,0.694,,,,,,,,0,7,7,23,1
,,,,,,,,,,,,,,,,,5e5ab88a43f33029b119a48c,49,2022-02-12_17h43.46.048,lexical_decision_task_DD_L2,2021.2.3,Win32,59.95203837,,,,,,,,,,,,1.463,1,,,,,,,,,,,,,,,,,,,,,,,,-0.019444444,-0.406481481,0,0,0,,,,,,,CURRY,HB,z,y,./images/CURRYHB.png,,,,,,,,,,,,,,,,,,,,z,1,1.463,,,,,,,,0,8,8,144,1
,,,,,,,,,,,,,,,,,5e5ab88a43f33029b119a48c,49,2022-02-12_17h43.46.048,lexical_decision_task_DD_L2,2021.2.3,Win32,59.95203837,,,,,,,,,,,,0.85,1,,,,,,,,,,,,,,,,,,,,,,,,-0.019444444,-0.406481481,0,0,0,,,,,,,GRANNY,C,z,y,./images/GRANNY.png,,,,,,,,,,,,,,,,,,,,z,1,0.85,,,,,,,,0,9,9,104,1
,,,,,,,,,,,,,,,,,5e5ab88a43f33029b119a48c,49,2022-02-12_17h43.46.048,lexical_decision_task_DD_L2,2021.2.3,Win32,59.95203837,,,,,,,,,,,,0.903,0,,,,,,,,,,,,,,,,,,,,,,,,-0.019444444,-0.406481481,0,0,0,,,,,,,STREAM,C,z,y,./images/STREAM.png,,,,,,,,,,,,,,,,,,,,m,0,0.903,,,,,,,,0,10,10,125,1
,,,,,,,,,,,,,,,,,5e5ab88a43f33029b119a48c,49,2022-02-12_17h43.46.048,lexical_decision_task_DD_L2,2021.2.3,Win32,59.95203837,,,,,,,,,,,,1.12,0,,,,,,,,,,,,,,,,,,,,,,,,-0.019444444,-0.406481481,0,0,0,,,,,,,LIZARD,C,m,y,./images/LIZARD.png,,,,,,,,,,,,,,,,,,,,z,0,1.12,,,,,,,,0,11,11,44,1
,,,,,,,,,,,,,,,,,5e5ab88a43f33029b119a48c,49,2022-02-12_17h43.46.048,lexical_decision_task_DD_L2,2021.2.3,Win32,59.95203837,,,,,,,,,,,,0.832,1,,,,,,,,,,,,,,,,,,,,,,,,-0.019444444,-0.406481481,0,0,0,,,,,,,FLESH,HB,z,y,./images/FLESHHB.png,,,,,,,,,,,,,,,,,,,,z,1,0.832,,,,,,,,0,12,12,108,1
,,,,,,,,,,,,,,,,,5e5ab88a43f33029b119a48c,49,2022-02-12_17h43.46.048,lexical_decision_task_DD_L2,2021.2.3,Win32,59.95203837,,,,,,,,,,,,0.982,0,,,,,,,,,,,,,,,,,,,,,,,,-0.019444444,-0.406481481,0,0,0,,,,,,,FERRY,HB,z,y,./images/FERRYHB.png,,,,,,,,,,,,,,,,,,,,m,0,0.982,,,,,,,,0,13,13,141,1
,,,,,,,,,,,,,,,,,5e5ab88a43f33029b119a48c,49,2022-02-12_17h43.46.048,lexical_decision_task_DD_L2,2021.2.3,Win32,59.95203837,,,,,,,,,,,,1.065,0,,,,,,,,,,,,,,,,,,,,,,,,-0.019444444,-0.406481481,0,0,0,,,,,,,PISTOL,C,z,y,./images/PISTOL.png,,,,,,,,,,,,,,,,,,,,m,0,1.065,,,,,,,,0,14,14,113,1
,,,,,,,,,,,,,,,,,5e5ab88a43f33029b119a48c,49,2022-02-12_17h43.46.048,lexical_decision_task_DD_L2,2021.2.3,Win32,59.95203837,,,,,,,,,,,,0.765,1,,,,,,,,,,,,,,,,,,,,,,,,-0.019444444,-0.406481481,0,0,0,,,,,,,SHORE,HB,m,y,./images/SHOREHB.png,,,,,,,,,,,,,,,,,,,,m,1,0.765,,,,,,,,0,15,15,12,1
,,,,,,,,,,,,,,,,,5e5ab88a43f33029b119a48c,49,2022-02-12_17h43.46.048,lexical_decision_task_DD_L2,2021.2.3,Win32,59.95203837,,,,,,,,,,,,0.948,0,,,,,,,,,,,,,,,,,,,,,,,,-0.019444444,-0.406481481,0,0,0,,,,,,,BUBBLE,C,z,y,./images/BUBBLE.png,,,,,,,,,,,,,,,,,,,,m,0,0.948,,,,,,,,0,16,16,155,1
,,,,,,,,,,,,,,,,,5e5ab88a43f33029b119a48c,49,2022-02-12_17h43.46.048,lexical_decision_task_DD_L2,2021.2.3,Win32,59.95203837,,,,,,,,,,,,1.131,0,,,,,,,,,,,,,,,,,,,,,,,,-0.019444444,-0.406481481,0,0,0,,,,,,,DESERT,LB,z,y,./images/DESERTLB.png,,,,,,,,,,,,,,,,,,,,m,0,1.131,,,,,,,,0,17,17,136,1
,,,,,,,,,,,,,,,,,5e5ab88a43f33029b119a48c,49,2022-02-12_17h43.46.048,lexical_decision_task_DD_L2,2021.2.3,Win32,59.95203837,,,,,,,,,,,,0.649,1,,,,,,,,,,,,,,,,,,,,,,,,-0.019444444,-0.406481481,0,0,0,,,,,,,SNACK,LB,m,y,./images/SNACKLB.png,,,,,,,,,,,,,,,,,,,,m,1,0.649,,,,,,,,0,18,18,73,1
,,,,,,,,,,,,,,,,,5e5ab88a43f33029b119a48c,49,2022-02-12_17h43.46.048,lexical_decision_task_DD_L2,2021.2.3,Win32,59.95203837,,,,,,,,,,,,0.815,1,,,,,,,,,,,,,,,,,,,,,,,,-0.019444444,-0.406481481,0,0,0,,,,,,,DIVER,HB,z,y,./images/DIVERHB.png,,,,,,,,,,,,,,,,,,,,z,1,0.815,,,,,,,,0,19,19,93,1
,,,,,,,,,,,,,,,,,5e5ab88a43f33029b119a48c,49,2022-02-12_17h43.46.048,lexical_decision_task_DD_L2,2021.2.3,Win32,59.95203837,,,,,,,,,,,,0.813,0,,,,,,,,,,,,,,,,,,,,,,,,-0.019444444,-0.406481481,0,0,0,,,,,,,DONKEY,LB,z,y,./images/DONKEYLB.png,,,,,,,,,,,,,,,,,,,,m,0,0.813,,,,,,,,0,20,20,103,1
,,,,,,,,,,,,,,,,,5e5ab88a43f33029b119a48c,49,2022-02-12_17h43.46.048,lexical_decision_task_DD_L2,2021.2.3,Win32,59.95203837,,,,,,,,,,,,0.915,1,,,,,,,,,,,,,,,,,,,,,,,,-0.019444444,-0.406481481,0,0,0,,,,,,,SAUNA,HB,z,y,./images/SAUNAHB.png,,,,,,,,,,,,,,,,,,,,z,1,0.915,,,,,,,,0,21,21,117,1
,,,,,,,,,,,,,,,,,5e5ab88a43f33029b119a48c,49,2022-02-12_17h43.46.048,lexical_decision_task_DD_L2,2021.2.3,Win32,59.95203837,,,,,,,,,,,,0.647,1,,,,,,,,,,,,,,,,,,,,,,,,-0.019444444,-0.406481481,0,0,0,,,,,,,FOLDER,HB,m,y,./images/FOLDERHB.png,,,,,,,,,,,,,,,,,,,,m,1,0.647,,,,,,,,0,22,22,42,1
,,,,,,,,,,,,,,,,,5e5ab88a43f33029b119a48c,49,2022-02-12_17h43.46.048,lexical_decision_task_DD_L2,2021.2.3,Win32,59.95203837,,,,,,,,,,,,0.664,1,,,,,,,,,,,,,,,,,,,,,,,,-0.019444444,-0.406481481,0,0,0,,,,,,,PIMPLE,C,m,y,./images/PIMPLE.png,,,,,,,,,,,,,,,,,,,,m,1,0.664,,,,,,,,0,23,23,71,1
,,,,,,,,,,,,,,,,,5e5ab88a43f33029b119a48c,49,2022-02-12_17h43.46.048,lexical_decision_task_DD_L2,2021.2.3,Win32,59.95203837,,,,,,,,,,,,0.781,1,,,,,,,,,,,,,,,,,,,,,,,,-0.019444444,-0.406481481,0,0,0,,,,,,,PENCE,LB,m,y,./images/PENCELB.png,,,,,,,,,,,,,,,,,,,,m,1,0.781,,,,,,,,0,24,24,16,1
,,,,,,,,,,,,,,,,,5e5ab88a43f33029b119a48c,49,2022-02-12_17h43.46.048,lexical_decision_task_DD_L2,2021.2.3,Win32,59.95203837,,,,,,,,,,,,0.632,1,,,,,,,,,,,,,,,,,,,,,,,,-0.019444444,-0.406481481,0,0,0,,,,,,,RHINO,HB,m,y,./images/RHINOHB.png,,,,,,,,,,,,,,,,,,,,m,1,0.632,,,,,,,,0,25,25,9,1
,,,,,,,,,,,,,,,,,5e5ab88a43f33029b119a48c,49,2022-02-12_17h43.46.048,lexical_decision_task_DD_L2,2021.2.3,Win32,59.95203837,,,,,,,,,,,,0.652,1,,,,,,,,,,,,,,,,,,,,,,,,-0.019444444,-0.406481481,0,0,0,,,,,,,BANNER,LB,m,y,./images/BANNERLB.png,,,,,,,,,,,,,,,,,,,,m,1,0.652,,,,,,,,0,26,26,52,1
,,,,,,,,,,,,,,,,,5e5ab88a43f33029b119a48c,49,2022-02-12_17h43.46.048,lexical_decision_task_DD_L2,2021.2.3,Win32,59.95203837,,,,,,,,,,,,0.58,1,,,,,,,,,,,,,,,,,,,,,,,,-0.019444444,-0.406481481,0,0,0,,,,,,,PEACH,C,m,y,./images/PEACH.png,,,,,,,,,,,,,,,,,,,,m,1,0.58,,,,,,,,0,27,27,35,1
,,,,,,,,,,,,,,,,,5e5ab88a43f33029b119a48c,49,2022-02-12_17h43.46.048,lexical_decision_task_DD_L2,2021.2.3,Win32,59.95203837,,,,,,,,,,,,0.699,1,,,,,,,,,,,,,,,,,,,,,,,,-0.019444444,-0.406481481,0,0,0,,,,,,,STOOL,LB,z,y,./images/STOOLLB.png,,,,,,,,,,,,,,,,,,,,z,1,0.699,,,,,,,,0,28,28,127,1
,,,,,,,,,,,,,,,,,5e5ab88a43f33029b119a48c,49,2022-02-12_17h43.46.048,lexical_decision_task_DD_L2,2021.2.3,Win32,59.95203837,,,,,,,,,,,,1.133,0,,,,,,,,,,,,,,,,,,,,,,,,-0.019444444,-0.406481481,0,0,0,,,,,,,STAIN,HB,z,y,./images/STAINHB.png,,,,,,,,,,,,,,,,,,,,m,0,1.133,,,,,,,,0,29,29,90,1
,,,,,,,,,,,,,,,,,5e5ab88a43f33029b119a48c,49,2022-02-12_17h43.46.048,lexical_decision_task_DD_L2,2021.2.3,Win32,59.95203837,,,,,,,,,,,,0.665,1,,,,,,,,,,,,,,,,,,,,,,,,-0.019444444,-0.406481481,0,0,0,,,,,,,LADDER,C,m,y,./images/LADDER.png,,,,,,,,,,,,,,,,,,,,m,1,0.665,,,,,,,,0,30,30,38,1
,,,,,,,,,,,,,,,,,5e5ab88a43f33029b119a48c,49,2022-02-12_17h43.46.048,lexical_decision_task_DD_L2,2021.2.3,Win32,59.95203837,,,,,,,,,,,,0.615,1,,,,,,,,,,,,,,,,,,,,,,,,-0.019444444,-0.406481481,0,0,0,,,,,,,MUSCLE,LB,m,y,./images/MUSCLELB.png,,,,,,,,,,,,,,,,,,,,m,1,0.615,,,,,,,,0,31,31,4,1
,,,,,,,,,,,,,,,,,5e5ab88a43f33029b119a48c,49,2022-02-12_17h43.46.048,lexical_decision_task_DD_L2,2021.2.3,Win32,59.95203837,,,,,,,,,,,,0.799,1,,,,,,,,,,,,,,,,,,,,,,,,-0.019444444,-0.406481481,0,0,0,,,,,,,STRING,C,m,y,./images/STRING.png,,,,,,,,,,,,,,,,,,,,m,1,0.799,,,,,,,,0,32,32,41,1
,,,,,,,,,,,,,,,,,5e5ab88a43f33029b119a48c,49,2022-02-12_17h43.46.048,lexical_decision_task_DD_L2,2021.2.3,Win32,59.95203837,,,,,,,,,,,,0.77,1,,,,,,,,,,,,,,,,,,,,,,,,-0.019444444,-0.406481481,0,0,0,,,,,,,GLOVE,LB,z,y,./images/GLOVELB.png,,,,,,,,,,,,,,,,,,,,z,1,0.77,,,,,,,,0,33,33,157,1
,,,,,,,,,,,,,,,,,5e5ab88a43f33029b119a48c,49,2022-02-12_17h43.46.048,lexical_decision_task_DD_L2,2021.2.3,Win32,59.95203837,,,,,,,,,,,,0.766,0,,,,,,,,,,,,,,,,,,,,,,,,-0.019444444,-0.406481481,0,0,0,,,,,,,SNAKE,LB,z,y,./images/SNAKELB.png,,,,,,,,,,,,,,,,,,,,m,0,0.766,,,,,,,,0,34,34,124,1
,,,,,,,,,,,,,,,,,5e5ab88a43f33029b119a48c,49,2022-02-12_17h43.46.048,lexical_decision_task_DD_L2,2021.2.3,Win32,59.95203837,,,,,,,,,,,,0.696,0,,,,,,,,,,,,,,,,,,,,,,,,-0.019444444,-0.406481481,0,0,0,,,,,,,JUMPER,C,z,y,./images/JUMPER.png,,,,,,,,,,,,,,,,,,,,m,0,0.696,,,,,,,,0,35,35,158,1
,,,,,,,,,,,,,,,,,5e5ab88a43f33029b119a48c,49,2022-02-12_17h43.46.048,lexical_decision_task_DD_L2,2021.2.3,Win32,59.95203837,,,,,,,,,,,,0.681,1,,,,,,,,,,,,,,,,,,,,,,,,-0.019444444,-0.406481481,0,0,0,,,,,,,LITTER,HB,m,y,./images/LITTERHB.png,,,,,,,,,,,,,,,,,,,,m,1,0.681,,,,,,,,0,36,36,78,1
,,,,,,,,,,,,,,,,,5e5ab88a43f33029b119a48c,49,2022-02-12_17h43.46.048,lexical_decision_task_DD_L2,2021.2.3,Win32,59.95203837,,,,,,,,,,,,1.167,1,,,,,,,,,,,,,,,,,,,,,,,,-0.019444444,-0.406481481,0,0,0,,,,,,,BISHOP,LB,z,y,./images/BISHOPLB.png,,,,,,,,,,,,,,,,,,,,z,1,1.167,,,,,,,,0,37,37,133,1
,,,,,,,,,,,,,,,,,5e5ab88a43f33029b119a48c,49,2022-02-12_17h43.46.048,lexical_decision_task_DD_L2,2021.2.3,Win32,59.95203837,,,,,,,,,,,,0.833,1,,,,,,,,,,,,,,,,,,,,,,,,-0.019444444,-0.406481481,0,0,0,,,,,,,CANOE,LB,z,y,./images/CANOELB.png,,,,,,,,,,,,,,,,,,,,z,1,0.833,,,,,,,,0,38,38,142,1
,,,,,,,,,,,,,,,,,5e5ab88a43f33029b119a48c,49,2022-02-12_17h43.46.048,lexical_decision_task_DD_L2,2021.2.3,Win32,59.95203837,,,,,,,,,,,,1.015,1,,,,,,,,,,,,,,,,,,,,,,,,-0.019444444,-0.406481481,0,0,0,,,,,,,ALLEY,LB,z,y,./images/ALLEYLB.png,,,,,,,,,,,,,,,,,,,,z,1,1.015,,,,,,,,0,39,39,139,1
,,,,,,,,,,,,,,,,,5e5ab88a43f33029b119a48c,49,2022-02-12_17h43.46.048,lexical_decision_task_DD_L2,2021.2.3,Win32,59.95203837,,,,,,,,,,,,0.868,0,,,,,,,,,,,,,,,,,,,,,,,,-0.019444444,-0.406481481,0,0,0,,,,,,,PILOT,C,z,y,./images/PILOT.png,,,,,,,,,,,,,,,,,,,,m,0,0.868,,,,,,,,0,40,40,134,1
,,,,,,,,,,,,,,,,,5e5ab88a43f33029b119a48c,49,2022-02-12_17h43.46.048,lexical_decision_task_DD_L2,2021.2.3,Win32,59.95203837,,,,,,,,,,,,0.553,1,,,,,,,,,,,,,,,,,,,,,,,,-0.019444444,-0.406481481,0,0,0,space,,,,,,JAGUAR,HB,m,y,./images/JAGUARHB.png,1.894,,,,,,,,,,,,,,,,,,,m,1,0.553,,,,,,,,0,41,41,18,1
,,,,,,,,,,,,,,,,,5e5ab88a43f33029b119a48c,49,2022-02-12_17h43.46.048,lexical_decision_task_DD_L2,2021.2.3,Win32,59.95203837,,,,,,,,,,,,0.616,1,,,,,,,,,,,,,,,,,,,,,,,,-0.019444444,-0.406481481,0,0,0,,,,,,,TULIP,C,m,y,./images/TULIP.png,,,,,,,,,,,,,,,,,,,,m,1,0.616,,,,,,,,0,42,42,8,1
,,,,,,,,,,,,,,,,,5e5ab88a43f33029b119a48c,49,2022-02-12_17h43.46.048,lexical_decision_task_DD_L2,2021.2.3,Win32,59.95203837,,,,,,,,,,,,0.6,0,,,,,,,,,,,,,,,,,,,,,,,,-0.019444444,-0.406481481,0,0,0,,,,,,,WALNUT,HB,z,y,./images/WALNUTHB.png,,,,,,,,,,,,,,,,,,,,m,0,0.6,,,,,,,,0,43,43,84,1
,,,,,,,,,,,,,,,,,5e5ab88a43f33029b119a48c,49,2022-02-12_17h43.46.048,lexical_decision_task_DD_L2,2021.2.3,Win32,59.95203837,,,,,,,,,,,,0.783,1,,,,,,,,,,,,,,,,,,,,,,,,-0.019444444,-0.406481481,0,0,0,,,,,,,MAGGOT,HB,m,y,./images/MAGGOTHB.png,,,,,,,,,,,,,,,,,,,,m,1,0.783,,,,,,,,0,44,44,33,1
,,,,,,,,,,,,,,,,,5e5ab88a43f33029b119a48c,49,2022-02-12_17h43.46.048,lexical_decision_task_DD_L2,2021.2.3,Win32,59.95203837,,,,,,,,,,,,0.585,1,,,,,,,,,,,,,,,,,,,,,,,,-0.019444444,-0.406481481,0,0,0,,,,,,,BARREL,C,m,y,./images/BARREL.png,,,,,,,,,,,,,,,,,,,,m,1,0.585,,,,,,,,0,45,45,32,1
,,,,,,,,,,,,,,,,,5e5ab88a43f33029b119a48c,49,2022-02-12_17h43.46.048,lexical_decision_task_DD_L2,2021.2.3,Win32,59.95203837,,,,,,,,,,,,0.702,1,,,,,,,,,,,,,,,,,,,,,,,,-0.019444444,-0.406481481,0,0,0,,,,,,,SWEAT,HB,m,y,./images/SWEATHB.png,,,,,,,,,,,,,,,,,,,,m,1,0.702,,,,,,,,0,46,46,66,1
,,,,,,,,,,,,,,,,,5e5ab88a43f33029b119a48c,49,2022-02-12_17h43.46.048,lexical_decision_task_DD_L2,2021.2.3,Win32,59.95203837,,,,,,,,,,,,0.669,1,,,,,,,,,,,,,,,,,,,,,,,,-0.019444444,-0.406481481,0,0,0,,,,,,,CRUMB,C,m,y,./images/CRUMB.png,,,,,,,,,,,,,,,,,,,,m,1,0.669,,,,,,,,0,47,47,29,1
,,,,,,,,,,,,,,,,,5e5ab88a43f33029b119a48c,49,2022-02-12_17h43.46.048,lexical_decision_task_DD_L2,2021.2.3,Win32,59.95203837,,,,,,,,,,,,0.632,1,,,,,,,,,,,,,,,,,,,,,,,,-0.019444444,-0.406481481,0,0,0,,,,,,,PARADE,C,z,y,./images/PARADE.png,,,,,,,,,,,,,,,,,,,,z,1,0.632,,,,,,,,0,48,48,101,1
,,,,,,,,,,,,,,,,,5e5ab88a43f33029b119a48c,49,2022-02-12_17h43.46.048,lexical_decision_task_DD_L2,2021.2.3,Win32,59.95203837,,,,,,,,,,,,0.768,0,,,,,,,,,,,,,,,,,,,,,,,,-0.019444444,-0.406481481,0,0,0,,,,,,,POSTER,C,z,y,./images/POSTER.png,,,,,,,,,,,,,,,,,,,,m,0,0.768,,,,,,,,0,49,49,137,1
,,,,,,,,,,,,,,,,,5e5ab88a43f33029b119a48c,49,2022-02-12_17h43.46.048,lexical_decision_task_DD_L2,2021.2.3,Win32,59.95203837,,,,,,,,,,,,0.633,1,,,,,,,,,,,,,,,,,,,,,,,,-0.019444444,-0.406481481,0,0,0,,,,,,,KITTEN,HB,m,y,./images/KITTENHB.png,,,,,,,,,,,,,,,,,,,,m,1,0.633,,,,,,,,0,50,50,45,1
,,,,,,,,,,,,,,,,,5e5ab88a43f33029b119a48c,49,2022-02-12_17h43.46.048,lexical_decision_task_DD_L2,2021.2.3,Win32,59.95203837,,,,,,,,,,,,0.918,1,,,,,,,,,,,,,,,,,,,,,,,,-0.019444444,-0.406481481,0,0,0,,,,,,,BUTTER,HB,z,y,./images/BUTTERHB.png,,,,,,,,,,,,,,,,,,,,z,1,0.918,,,,,,,,0,51,51,111,1
,,,,,,,,,,,,,,,,,5e5ab88a43f33029b119a48c,49,2022-02-12_17h43.46.048,lexical_decision_task_DD_L2,2021.2.3,Win32,59.95203837,,,,,,,,,,,,0.997,1,,,,,,,,,,,,,,,,,,,,,,,,-0.019444444,-0.406481481,0,0,0,,,,,,,NOOSE,HB,m,y,./images/NOOSEHB.png,,,,,,,,,,,,,,,,,,,,m,1,0.997,,,,,,,,0,52,52,72,1
,,,,,,,,,,,,,,,,,5e5ab88a43f33029b119a48c,49,2022-02-12_17h43.46.048,lexical_decision_task_DD_L2,2021.2.3,Win32,59.95203837,,,,,,,,,,,,0.814,0,,,,,,,,,,,,,,,,,,,,,,,,-0.019444444,-0.406481481,0,0,0,,,,,,,STATUE,HB,z,y,./images/STATUEHB.png,,,,,,,,,,,,,,,,,,,,m,0,0.814,,,,,,,,0,53,53,150,1
,,,,,,,,,,,,,,,,,5e5ab88a43f33029b119a48c,49,2022-02-12_17h43.46.048,lexical_decision_task_DD_L2,2021.2.3,Win32,59.95203837,,,,,,,,,,,,1.112,1,,,,,,,,,,,,,,,,,,,,,,,,-0.019444444,-0.406481481,0,0,0,,,,,,,LAGOON,C,z,y,./images/LAGOON.png,,,,,,,,,,,,,,,,,,,,z,1,1.112,,,,,,,,0,54,54,131,1
,,,,,,,,,,,,,,,,,5e5ab88a43f33029b119a48c,49,2022-02-12_17h43.46.048,lexical_decision_task_DD_L2,2021.2.3,Win32,59.95203837,,,,,,,,,,,,0.748,0,,,,,,,,,,,,,,,,,,,,,,,,-0.019444444,-0.406481481,0,0,0,,,,,,,BROOM,HB,z,y,./images/BROOMHB.png,,,,,,,,,,,,,,,,,,,,m,0,0.748,,,,,,,,0,55,55,162,1
,,,,,,,,,,,,,,,,,5e5ab88a43f33029b119a48c,49,2022-02-12_17h43.46.048,lexical_decision_task_DD_L2,2021.2.3,Win32,59.95203837,,,,,,,,,,,,0.931,0,,,,,,,,,,,,,,,,,,,,,,,,-0.019444444,-0.406481481,0,0,0,,,,,,,STOVE,C,z,y,./images/STOVE.png,,,,,,,,,,,,,,,,,,,,m,0,0.931,,,,,,,,0,56,56,86,1
,,,,,,,,,,,,,,,,,5e5ab88a43f33029b119a48c,49,2022-02-12_17h43.46.048,lexical_decision_task_DD_L2,2021.2.3,Win32,59.95203837,,,,,,,,,,,,0.732,1,,,,,,,,,,,,,,,,,,,,,,,,-0.019444444,-0.406481481,0,0,0,,,,,,,INFANT,LB,m,y,./images/INFANTLB.png,,,,,,,,,,,,,,,,,,,,m,1,0.732,,,,,,,,0,57,57,76,1
,,,,,,,,,,,,,,,,,5e5ab88a43f33029b119a48c,49,2022-02-12_17h43.46.048,lexical_decision_task_DD_L2,2021.2.3,Win32,59.95203837,,,,,,,,,,,,1.212,1,,,,,,,,,,,,,,,,,,,,,,,,-0.019444444,-0.406481481,0,0,0,,,,,,,LLAMA,C,z,y,./images/LLAMA.png,,,,,,,,,,,,,,,,,,,,z,1,1.212,,,,,,,,0,58,58,119,1
,,,,,,,,,,,,,,,,,5e5ab88a43f33029b119a48c,49,2022-02-12_17h43.46.048,lexical_decision_task_DD_L2,2021.2.3,Win32,59.95203837,,,,,,,,,,,,0.853,1,,,,,,,,,,,,,,,,,,,,,,,,-0.019444444,-0.406481481,0,0,0,,,,,,,WHISKY,C,z,y,./images/WHISKY.png,,,,,,,,,,,,,,,,,,,,z,1,0.853,,,,,,,,0,59,59,167,1
,,,,,,,,,,,,,,,,,5e5ab88a43f33029b119a48c,49,2022-02-12_17h43.46.048,lexical_decision_task_DD_L2,2021.2.3,Win32,59.95203837,,,,,,,,,,,,0.697,1,,,,,,,,,,,,,,,,,,,,,,,,-0.019444444,-0.406481481,0,0,0,,,,,,,PLANK,LB,m,y,./images/PLANKLB.png,,,,,,,,,,,,,,,,,,,,m,1,0.697,,,,,,,,0,60,60,1,1
,,,,,,,,,,,,,,,,,5e5ab88a43f33029b119a48c,49,2022-02-12_17h43.46.048,lexical_decision_task_DD_L2,2021.2.3,Win32,59.95203837,,,,,,,,,,,,0.799,1,,,,,,,,,,,,,,,,,,,,,,,,-0.019444444,-0.406481481,0,0,0,,,,,,,HOCKEY,C,z,y,./images/HOCKEY.png,,,,,,,,,,,,,,,,,,,,z,1,0.799,,,,,,,,0,61,61,116,1
,,,,,,,,,,,,,,,,,5e5ab88a43f33029b119a48c,49,2022-02-12_17h43.46.048,lexical_decision_task_DD_L2,2021.2.3,Win32,59.95203837,,,,,,,,,,,,0.731,0,,,,,,,,,,,,,,,,,,,,,,,,-0.019444444,-0.406481481,0,0,0,,,,,,,PEBBLE,LB,z,y,./images/PEBBLELB.png,,,,,,,,,,,,,,,,,,,,m,0,0.731,,,,,,,,0,62,62,166,1
,,,,,,,,,,,,,,,,,5e5ab88a43f33029b119a48c,49,2022-02-12_17h43.46.048,lexical_decision_task_DD_L2,2021.2.3,Win32,59.95203837,,,,,,,,,,,,0.848,1,,,,,,,,,,,,,,,,,,,,,,,,-0.019444444,-0.406481481,0,0,0,,,,,,,PEARL,LB,m,y,./images/PEARLLB.png,,,,,,,,,,,,,,,,,,,,m,1,0.848,,,,,,,,0,63,63,46,1
,,,,,,,,,,,,,,,,,5e5ab88a43f33029b119a48c,49,2022-02-12_17h43.46.048,lexical_decision_task_DD_L2,2021.2.3,Win32,59.95203837,,,,,,,,,,,,0.665,0,,,,,,,,,,,,,,,,,,,,,,,,-0.019444444,-0.406481481,0,0,0,,,,,,,DRILL,HB,z,y,./images/DRILLHB.png,,,,,,,,,,,,,,,,,,,,m,0,0.665,,,,,,,,0,64,64,165,1
,,,,,,,,,,,,,,,,,5e5ab88a43f33029b119a48c,49,2022-02-12_17h43.46.048,lexical_decision_task_DD_L2,2021.2.3,Win32,59.95203837,,,,,,,,,,,,0.735,0,,,,,,,,,,,,,,,,,,,,,,,,-0.019444444,-0.406481481,0,0,0,,,,,,,MUMMY,LB,z,y,./images/MUMMYLB.png,,,,,,,,,,,,,,,,,,,,m,0,0.735,,,,,,,,0,65,65,130,1
,,,,,,,,,,,,,,,,,5e5ab88a43f33029b119a48c,49,2022-02-12_17h43.46.048,lexical_decision_task_DD_L2,2021.2.3,Win32,59.95203837,,,,,,,,,,,,0.965,1,,,,,,,,,,,,,,,,,,,,,,,,-0.019444444,-0.406481481,0,0,0,,,,,,,SQUARE,HB,m,y,./images/SQUAREHB.png,,,,,,,,,,,,,,,,,,,,m,1,0.965,,,,,,,,0,66,66,6,1
,,,,,,,,,,,,,,,,,5e5ab88a43f33029b119a48c,49,2022-02-12_17h43.46.048,lexical_decision_task_DD_L2,2021.2.3,Win32,59.95203837,,,,,,,,,,,,0.864,1,,,,,,,,,,,,,,,,,,,,,,,,-0.019444444,-0.406481481,0,0,0,,,,,,,FENCE,C,z,y,./images/FENCE.png,,,,,,,,,,,,,,,,,,,,z,1,0.864,,,,,,,,0,67,67,98,1
,,,,,,,,,,,,,,,,,5e5ab88a43f33029b119a48c,49,2022-02-12_17h43.46.048,lexical_decision_task_DD_L2,2021.2.3,Win32,59.95203837,,,,,,,,,,,,0.632,1,,,,,,,,,,,,,,,,,,,,,,,,-0.019444444,-0.406481481,0,0,0,,,,,,,ONION,HB,m,y,./images/ONIONHB.png,,,,,,,,,,,,,,,,,,,,m,1,0.632,,,,,,,,0,68,68,51,1
,,,,,,,,,,,,,,,,,5e5ab88a43f33029b119a48c,49,2022-02-12_17h43.46.048,lexical_decision_task_DD_L2,2021.2.3,Win32,59.95203837,,,,,,,,,,,,0.966,0,,,,,,,,,,,,,,,,,,,,,,,,-0.019444444,-0.406481481,0,0,0,,,,,,,TORCH,C,m,y,./images/TORCH.png,,,,,,,,,,,,,,,,,,,,z,0,0.966,,,,,,,,0,69,69,68,1
,,,,,,,,,,,,,,,,,5e5ab88a43f33029b119a48c,49,2022-02-12_17h43.46.048,lexical_decision_task_DD_L2,2021.2.3,Win32,59.95203837,,,,,,,,,,,,0.632,1,,,,,,,,,,,,,,,,,,,,,,,,-0.019444444,-0.406481481,0,0,0,,,,,,,TOMATO,HB,m,y,./images/TOMATOHB.png,,,,,,,,,,,,,,,,,,,,m,1,0.632,,,,,,,,0,70,70,0,1
,,,,,,,,,,,,,,,,,5e5ab88a43f33029b119a48c,49,2022-02-12_17h43.46.048,lexical_decision_task_DD_L2,2021.2.3,Win32,59.95203837,,,,,,,,,,,,0.731,0,,,,,,,,,,,,,,,,,,,,,,,,-0.019444444,-0.406481481,0,0,0,,,,,,,CRATER,HB,z,y,./images/CRATERHB.png,,,,,,,,,,,,,,,,,,,,m,0,0.731,,,,,,,,0,71,71,87,1
,,,,,,,,,,,,,,,,,5e5ab88a43f33029b119a48c,49,2022-02-12_17h43.46.048,lexical_decision_task_DD_L2,2021.2.3,Win32,59.95203837,,,,,,,,,,,,0.699,0,,,,,,,,,,,,,,,,,,,,,,,,-0.019444444,-0.406481481,0,0,0,,,,,,,CHAIN,HB,z,y,./images/CHAINHB.png,,,,,,,,,,,,,,,,,,,,m,0,0.699,,,,,,,,0,72,72,126,1
,,,,,,,,,,,,,,,,,5e5ab88a43f33029b119a48c,49,2022-02-12_17h43.46.048,lexical_decision_task_DD_L2,2021.2.3,Win32,59.95203837,,,,,,,,,,,,0.716,0,,,,,,,,,,,,,,,,,,,,,,,,-0.019444444,-0.406481481,0,0,0,,,,,,,GRAPE,LB,z,y,./images/GRAPELB.png,,,,,,,,,,,,,,,,,,,,m,0,0.716,,,,,,,,0,73,73,100,1
,,,,,,,,,,,,,,,,,5e5ab88a43f33029b119a48c,49,2022-02-12_17h43.46.048,lexical_decision_task_DD_L2,2021.2.3,Win32,59.95203837,,,,,,,,,,,,1.913,1,,,,,,,,,,,,,,,,,,,,,,,,-0.019444444,-0.406481481,0,0,0,,,,,,,BASKET,C,z,y,./images/BASKET.png,,,,,,,,,,,,,,,,,,,,z,1,1.913,,,,,,,,0,74,74,128,1
,,,,,,,,,,,,,,,,,5e5ab88a43f33029b119a48c,49,2022-02-12_17h43.46.048,lexical_decision_task_DD_L2,2021.2.3,Win32,59.95203837,,,,,,,,,,,,0.785,1,,,,,,,,,,,,,,,,,,,,,,,,-0.019444444,-0.406481481,0,0,0,,,,,,,DRUMS,LB,m,y,./images/DRUMSLB.png,,,,,,,,,,,,,,,,,,,,m,1,0.785,,,,,,,,0,75,75,49,1
,,,,,,,,,,,,,,,,,5e5ab88a43f33029b119a48c,49,2022-02-12_17h43.46.048,lexical_decision_task_DD_L2,2021.2.3,Win32,59.95203837,,,,,,,,,,,,0.749,1,,,,,,,,,,,,,,,,,,,,,,,,-0.019444444,-0.406481481,0,0,0,,,,,,,COOKER,HB,m,y,./images/COOKERHB.png,,,,,,,,,,,,,,,,,,,,m,1,0.749,,,,,,,,0,76,76,69,1
,,,,,,,,,,,,,,,,,5e5ab88a43f33029b119a48c,49,2022-02-12_17h43.46.048,lexical_decision_task_DD_L2,2021.2.3,Win32,59.95203837,,,,,,,,,,,,1.748,1,,,,,,,,,,,,,,,,,,,,,,,,-0.019444444,-0.406481481,0,0,0,,,,,,,HAMMER,HB,z,y,./images/HAMMERHB.png,,,,,,,,,,,,,,,,,,,,z,1,1.748,,,,,,,,0,77,77,159,1
,,,,,,,,,,,,,,,,,5e5ab88a43f33029b119a48c,49,2022-02-12_17h43.46.048,lexical_decision_task_DD_L2,2021.2.3,Win32,59.95203837,,,,,,,,,,,,0.65,1,,,,,,,,,,,,,,,,,,,,,,,,-0.019444444,-0.406481481,0,0,0,,,,,,,ARROW,HB,z,y,./images/ARROWHB.png,,,,,,,,,,,,,,,,,,,,z,1,0.65,,,,,,,,0,78,78,153,1
,,,,,,,,,,,,,,,,,5e5ab88a43f33029b119a48c,49,2022-02-12_17h43.46.048,lexical_decision_task_DD_L2,2021.2.3,Win32,59.95203837,,,,,,,,,,,,0.599,1,,,,,,,,,,,,,,,,,,,,,,,,-0.019444444,-0.406481481,0,0,0,,,,,,,SCREW,HB,m,y,./images/SCREWHB.png,,,,,,,,,,,,,,,,,,,,m,1,0.599,,,,,,,,0,79,79,24,1
,,,,,,,,,,,,,,,,,5e5ab88a43f33029b119a48c,49,2022-02-12_17h43.46.048,lexical_decision_task_DD_L2,2021.2.3,Win32,59.95203837,,,,,,,,,,,,0.815,0,,,,,,,,,,,,,,,,,,,,,,,,-0.019444444,-0.406481481,0,0,0,,,,,,,BAMBOO,C,z,y,./images/BAMBOO.png,,,,,,,,,,,,,,,,,,,,m,0,0.815,,,,,,,,0,80,80,89,1
,,,,,,,,,,,,,,,,,5e5ab88a43f33029b119a48c,49,2022-02-12_17h43.46.048,lexical_decision_task_DD_L2,2021.2.3,Win32,59.95203837,,,,,,,,,,,,1.1,1,,,,,,,,,,,,,,,,,,,,,,,,-0.019444444,-0.406481481,0,0,0,,,,,,,MIDGET,LB,z,y,./images/MIDGETLB.png,,,,,,,,,,,,,,,,,,,,z,1,1.1,,,,,,,,0,81,81,160,1
,,,,,,,,,,,,,,,,,5e5ab88a43f33029b119a48c,49,2022-02-12_17h43.46.048,lexical_decision_task_DD_L2,2021.2.3,Win32,59.95203837,,,,,,,,,,,,0.636,1,,,,,,,,,,,,,,,,,,,,,,,,-0.019444444,-0.406481481,0,0,0,,,,,,,PACKET,C,m,y,./images/PACKET.png,,,,,,,,,,,,,,,,,,,,m,1,0.636,,,,,,,,0,82,82,56,1
,,,,,,,,,,,,,,,,,5e5ab88a43f33029b119a48c,49,2022-02-12_17h43.46.048,lexical_decision_task_DD_L2,2021.2.3,Win32,59.95203837,,,,,,,,,,,,0.566,1,,,,,,,,,,,,,,,,,,,,,,,,-0.019444444,-0.406481481,0,0,0,space,,,,,,MELON,LB,m,y,./images/MELONLB.png,2.581,,,,,,,,,,,,,,,,,,,m,1,0.566,,,,,,,,0,83,83,22,1
,,,,,,,,,,,,,,,,,5e5ab88a43f33029b119a48c,49,2022-02-12_17h43.46.048,lexical_decision_task_DD_L2,2021.2.3,Win32,59.95203837,,,,,,,,,,,,0.936,1,,,,,,,,,,,,,,,,,,,,,,,,-0.019444444,-0.406481481,0,0,0,,,,,,,BOXER,LB,z,y,./images/BOXERLB.png,,,,,,,,,,,,,,,,,,,,z,1,0.936,,,,,,,,0,84,84,88,1
,,,,,,,,,,,,,,,,,5e5ab88a43f33029b119a48c,49,2022-02-12_17h43.46.048,lexical_decision_task_DD_L2,2021.2.3,Win32,59.95203837,,,,,,,,,,,,0.548,1,,,,,,,,,,,,,,,,,,,,,,,,-0.019444444,-0.407407407,0,0,0,,,,,,,ATTIC,HB,m,y,./images/ATTICHB.png,,,,,,,,,,,,,,,,,,,,m,1,0.548,,,,,,,,0,85,85,27,1
,,,,,,,,,,,,,,,,,5e5ab88a43f33029b119a48c,49,2022-02-12_17h43.46.048,lexical_decision_task_DD_L2,2021.2.3,Win32,59.95203837,,,,,,,,,,,,0.698,0,,,,,,,,,,,,,,,,,,,,,,,,-0.019444444,-0.407407407,0,0,0,,,,,,,RAZOR,LB,z,y,./images/RAZORLB.png,,,,,,,,,,,,,,,,,,,,m,0,0.698,,,,,,,,0,86,86,118,1
,,,,,,,,,,,,,,,,,5e5ab88a43f33029b119a48c,49,2022-02-12_17h43.46.048,lexical_decision_task_DD_L2,2021.2.3,Win32,59.95203837,,,,,,,,,,,,0.684,1,,,,,,,,,,,,,,,,,,,,,,,,-0.019444444,-0.407407407,0,0,0,,,,,,,FALCON,LB,m,y,./images/FALCONLB.png,,,,,,,,,,,,,,,,,,,,m,1,0.684,,,,,,,,0,87,87,28,1
,,,,,,,,,,,,,,,,,5e5ab88a43f33029b119a48c,49,2022-02-12_17h43.46.048,lexical_decision_task_DD_L2,2021.2.3,Win32,59.95203837,,,,,,,,,,,,0.583,1,,,,,,,,,,,,,,,,,,,,,,,,-0.019444444,-0.407407407,0,0,0,,,,,,,QUILL,LB,m,y,./images/QUILLLB.png,,,,,,,,,,,,,,,,,,,,m,1,0.583,,,,,,,,0,88,88,31,1
,,,,,,,,,,,,,,,,,5e5ab88a43f33029b119a48c,49,2022-02-12_17h43.46.048,lexical_decision_task_DD_L2,2021.2.3,Win32,59.95203837,,,,,,,,,,,,0.615,0,,,,,,,,,,,,,,,,,,,,,,,,-0.019444444,-0.407407407,0,0,0,,,,,,,TIGER,LB,z,y,./images/TIGERLB.png,,,,,,,,,,,,,,,,,,,,m,0,0.615,,,,,,,,0,89,89,121,1
,,,,,,,,,,,,,,,,,5e5ab88a43f33029b119a48c,49,2022-02-12_17h43.46.048,lexical_decision_task_DD_L2,2021.2.3,Win32,59.95203837,,,,,,,,,,,,0.866,0,,,,,,,,,,,,,,,,,,,,,,,,-0.019444444,-0.407407407,0,0,0,,,,,,,HEATER,C,z,y,./images/HEATER.png,,,,,,,,,,,,,,,,,,,,m,0,0.866,,,,,,,,0,90,90,140,1
,,,,,,,,,,,,,,,,,5e5ab88a43f33029b119a48c,49,2022-02-12_17h43.46.048,lexical_decision_task_DD_L2,2021.2.3,Win32,59.95203837,,,,,,,,,,,,0.698,1,,,,,,,,,,,,,,,,,,,,,,,,-0.019444444,-0.407407407,0,0,0,,,,,,,MOOSE,HB,m,y,./images/MOOSEHB.png,,,,,,,,,,,,,,,,,,,,m,1,0.698,,,,,,,,0,91,91,57,1
,,,,,,,,,,,,,,,,,5e5ab88a43f33029b119a48c,49,2022-02-12_17h43.46.048,lexical_decision_task_DD_L2,2021.2.3,Win32,59.95203837,,,,,,,,,,,,0.633,0,,,,,,,,,,,,,,,,,,,,,,,,-0.019444444,-0.407407407,0,0,0,,,,,,,BURIAL,C,m,y,./images/BURIAL.png,,,,,,,,,,,,,,,,,,,,z,0,0.633,,,,,,,,0,92,92,59,1
,,,,,,,,,,,,,,,,,5e5ab88a43f33029b119a48c,49,2022-02-12_17h43.46.048,lexical_decision_task_DD_L2,2021.2.3,Win32,59.95203837,,,,,,,,,,,,0.582,0,,,,,,,,,,,,,,,,,,,,,,,,-0.019444444,-0.407407407,0,0,0,,,,,,,MONKEY,HB,z,y,./images/MONKEYHB.png,,,,,,,,,,,,,,,,,,,,m,0,0.582,,,,,,,,0,93,93,129,1
,,,,,,,,,,,,,,,,,5e5ab88a43f33029b119a48c,49,2022-02-12_17h43.46.048,lexical_decision_task_DD_L2,2021.2.3,Win32,59.95203837,,,,,,,,,,,,0.715,1,,,,,,,,,,,,,,,,,,,,,,,,-0.019444444,-0.407407407,0,0,0,,,,,,,SHIELD,HB,z,y,./images/SHIELDHB.png,,,,,,,,,,,,,,,,,,,,z,1,0.715,,,,,,,,0,94,94,132,1
,,,,,,,,,,,,,,,,,5e5ab88a43f33029b119a48c,49,2022-02-12_17h43.46.048,lexical_decision_task_DD_L2,2021.2.3,Win32,59.95203837,,,,,,,,,,,,0.616,1,,,,,,,,,,,,,,,,,,,,,,,,-0.019444444,-0.407407407,0,0,0,,,,,,,CANDLE,LB,m,y,./images/CANDLELB.png,,,,,,,,,,,,,,,,,,,,m,1,0.616,,,,,,,,0,95,95,61,1
,,,,,,,,,,,,,,,,,5e5ab88a43f33029b119a48c,49,2022-02-12_17h43.46.048,lexical_decision_task_DD_L2,2021.2.3,Win32,59.95203837,,,,,,,,,,,,0.7,1,,,,,,,,,,,,,,,,,,,,,,,,-0.019444444,-0.407407407,0,0,0,,,,,,,SKIING,C,m,y,./images/SKIING.png,,,,,,,,,,,,,,,,,,,,m,1,0.7,,,,,,,,0,96,96,17,1
,,,,,,,,,,,,,,,,,5e5ab88a43f33029b119a48c,49,2022-02-12_17h43.46.048,lexical_decision_task_DD_L2,2021.2.3,Win32,59.95203837,,,,,,,,,,,,0.766,0,,,,,,,,,,,,,,,,,,,,,,,,-0.019444444,-0.407407407,0,0,0,,,,,,,BOILER,HB,z,y,./images/BOILERHB.png,,,,,,,,,,,,,,,,,,,,m,0,0.766,,,,,,,,0,97,97,120,1
,,,,,,,,,,,,,,,,,5e5ab88a43f33029b119a48c,49,2022-02-12_17h43.46.048,lexical_decision_task_DD_L2,2021.2.3,Win32,59.95203837,,,,,,,,,,,,0.83,1,,,,,,,,,,,,,,,,,,,,,,,,-0.019444444,-0.407407407,0,0,0,,,,,,,TOWEL,LB,z,y,./images/TOWELLB.png,,,,,,,,,,,,,,,,,,,,z,1,0.83,,,,,,,,0,98,98,85,1
,,,,,,,,,,,,,,,,,5e5ab88a43f33029b119a48c,49,2022-02-12_17h43.46.048,lexical_decision_task_DD_L2,2021.2.3,Win32,59.95203837,,,,,,,,,,,,0.548,1,,,,,,,,,,,,,,,,,,,,,,,,-0.019444444,-0.407407407,0,0,0,,,,,,,KIDNEY,HB,m,y,./images/KIDNEYHB.png,,,,,,,,,,,,,,,,,,,,m,1,0.548,,,,,,,,0,99,99,21,1
,,,,,,,,,,,,,,,,,5e5ab88a43f33029b119a48c,49,2022-02-12_17h43.46.048,lexical_decision_task_DD_L2,2021.2.3,Win32,59.95203837,,,,,,,,,,,,0.667,1,,,,,,,,,,,,,,,,,,,,,,,,-0.019444444,-0.407407407,0,0,0,,,,,,,CANYON,LB,m,y,./images/CANYONLB.png,,,,,,,,,,,,,,,,,,,,m,1,0.667,,,,,,,,0,100,100,34,1
,,,,,,,,,,,,,,,,,5e5ab88a43f33029b119a48c,49,2022-02-12_17h43.46.048,lexical_decision_task_DD_L2,2021.2.3,Win32,59.95203837,,,,,,,,,,,,0.64,1,,,,,,,,,,,,,,,,,,,,,,,,-0.019444444,-0.407407407,0,0,0,,,,,,,URINE,LB,m,y,./images/URINELB.png,,,,,,,,,,,,,,,,,,,,m,1,0.64,,,,,,,,0,101,101,70,1
,,,,,,,,,,,,,,,,,5e5ab88a43f33029b119a48c,49,2022-02-12_17h43.46.048,lexical_decision_task_DD_L2,2021.2.3,Win32,59.95203837,,,,,,,,,,,,0.832,1,,,,,,,,,,,,,,,,,,,,,,,,-0.019444444,-0.407407407,0,0,0,,,,,,,SAUCE,HB,z,y,./images/SAUCEHB.png,,,,,,,,,,,,,,,,,,,,z,1,0.832,,,,,,,,0,102,102,135,1
,,,,,,,,,,,,,,,,,5e5ab88a43f33029b119a48c,49,2022-02-12_17h43.46.048,lexical_decision_task_DD_L2,2021.2.3,Win32,59.95203837,,,,,,,,,,,,0.601,1,,,,,,,,,,,,,,,,,,,,,,,,-0.019444444,-0.407407407,0,0,0,,,,,,,DOUGH,LB,m,y,./images/DOUGHLB.png,,,,,,,,,,,,,,,,,,,,m,1,0.601,,,,,,,,0,103,103,19,1
,,,,,,,,,,,,,,,,,5e5ab88a43f33029b119a48c,49,2022-02-12_17h43.46.048,lexical_decision_task_DD_L2,2021.2.3,Win32,59.95203837,,,,,,,,,,,,0.802,0,,,,,,,,,,,,,,,,,,,,,,,,-0.019444444,-0.407407407,0,0,0,,,,,,,CHERRY,HB,z,y,./images/CHERRYHB.png,,,,,,,,,,,,,,,,,,,,m,0,0.802,,,,,,,,0,104,104,138,1
,,,,,,,,,,,,,,,,,5e5ab88a43f33029b119a48c,49,2022-02-12_17h43.46.048,lexical_decision_task_DD_L2,2021.2.3,Win32,59.95203837,,,,,,,,,,,,0.652,0,,,,,,,,,,,,,,,,,,,,,,,,-0.019444444,-0.407407407,0,0,0,,,,,,,STEAK,LB,z,y,./images/STEAKLB.png,,,,,,,,,,,,,,,,,,,,m,0,0.652,,,,,,,,0,105,105,115,1
,,,,,,,,,,,,,,,,,5e5ab88a43f33029b119a48c,49,2022-02-12_17h43.46.048,lexical_decision_task_DD_L2,2021.2.3,Win32,59.95203837,,,,,,,,,,,,0.684,1,,,,,,,,,,,,,,,,,,,,,,,,-0.019444444,-0.407407407,0,0,0,,,,,,,TRIPOD,HB,m,y,./images/TRIPODHB.png,,,,,,,,,,,,,,,,,,,,m,1,0.684,,,,,,,,0,106,106,54,1
,,,,,,,,,,,,,,,,,5e5ab88a43f33029b119a48c,49,2022-02-12_17h43.46.048,lexical_decision_task_DD_L2,2021.2.3,Win32,59.95203837,,,,,,,,,,,,1.05,1,,,,,,,,,,,,,,,,,,,,,,,,-0.019444444,-0.407407407,0,0,0,,,,,,,GRAIN,HB,m,y,./images/GRAINHB.png,,,,,,,,,,,,,,,,,,,,m,1,1.05,,,,,,,,0,107,107,75,1
,,,,,,,,,,,,,,,,,5e5ab88a43f33029b119a48c,49,2022-02-12_17h43.46.048,lexical_decision_task_DD_L2,2021.2.3,Win32,59.95203837,,,,,,,,,,,,0.585,1,,,,,,,,,,,,,,,,,,,,,,,,-0.019444444,-0.407407407,0,0,0,,,,,,,PICKLE,C,m,y,./images/PICKLE.png,,,,,,,,,,,,,,,,,,,,m,1,0.585,,,,,,,,0,108,108,14,1
,,,,,,,,,,,,,,,,,5e5ab88a43f33029b119a48c,49,2022-02-12_17h43.46.048,lexical_decision_task_DD_L2,2021.2.3,Win32,59.95203837,,,,,,,,,,,,0.618,1,,,,,,,,,,,,,,,,,,,,,,,,-0.019444444,-0.407407407,0,0,0,,,,,,,POODLE,HB,m,y,./images/POODLEHB.png,,,,,,,,,,,,,,,,,,,,m,1,0.618,,,,,,,,0,109,109,81,1
,,,,,,,,,,,,,,,,,5e5ab88a43f33029b119a48c,49,2022-02-12_17h43.46.048,lexical_decision_task_DD_L2,2021.2.3,Win32,59.95203837,,,,,,,,,,,,0.714,1,,,,,,,,,,,,,,,,,,,,,,,,-0.019444444,-0.407407407,0,0,0,,,,,,,SPORT,HB,m,y,./images/SPORTHB.png,,,,,,,,,,,,,,,,,,,,m,1,0.714,,,,,,,,0,110,110,48,1
,,,,,,,,,,,,,,,,,5e5ab88a43f33029b119a48c,49,2022-02-12_17h43.46.048,lexical_decision_task_DD_L2,2021.2.3,Win32,59.95203837,,,,,,,,,,,,0.763,1,,,,,,,,,,,,,,,,,,,,,,,,-0.019444444,-0.407407407,0,0,0,,,,,,,COLLAR,HB,z,y,./images/COLLARHB.png,,,,,,,,,,,,,,,,,,,,z,1,0.763,,,,,,,,0,111,111,99,1
,,,,,,,,,,,,,,,,,5e5ab88a43f33029b119a48c,49,2022-02-12_17h43.46.048,lexical_decision_task_DD_L2,2021.2.3,Win32,59.95203837,,,,,,,,,,,,0.781,1,,,,,,,,,,,,,,,,,,,,,,,,-0.019444444,-0.407407407,0,0,0,,,,,,,MEDAL,C,z,y,./images/MEDAL.png,,,,,,,,,,,,,,,,,,,,z,1,0.781,,,,,,,,0,112,112,95,1
,,,,,,,,,,,,,,,,,5e5ab88a43f33029b119a48c,49,2022-02-12_17h43.46.048,lexical_decision_task_DD_L2,2021.2.3,Win32,59.95203837,,,,,,,,,,,,0.615,1,,,,,,,,,,,,,,,,,,,,,,,,-0.019444444,-0.407407407,0,0,0,,,,,,,MALLET,C,m,y,./images/MALLET.png,,,,,,,,,,,,,,,,,,,,m,1,0.615,,,,,,,,0,113,113,50,1
,,,,,,,,,,,,,,,,,5e5ab88a43f33029b119a48c,49,2022-02-12_17h43.46.048,lexical_decision_task_DD_L2,2021.2.3,Win32,59.95203837,,,,,,,,,,,,0.665,1,,,,,,,,,,,,,,,,,,,,,,,,-0.019444444,-0.407407407,0,0,0,,,,,,,BEARD,C,m,y,./images/BEARD.png,,,,,,,,,,,,,,,,,,,,m,1,0.665,,,,,,,,0,114,114,2,1
,,,,,,,,,,,,,,,,,5e5ab88a43f33029b119a48c,49,2022-02-12_17h43.46.048,lexical_decision_task_DD_L2,2021.2.3,Win32,59.95203837,,,,,,,,,,,,0.949,0,,,,,,,,,,,,,,,,,,,,,,,,-0.019444444,-0.407407407,0,0,0,,,,,,,CLOTH,C,z,y,./images/CLOTH.png,,,,,,,,,,,,,,,,,,,,m,0,0.949,,,,,,,,0,115,115,107,1
,,,,,,,,,,,,,,,,,5e5ab88a43f33029b119a48c,49,2022-02-12_17h43.46.048,lexical_decision_task_DD_L2,2021.2.3,Win32,59.95203837,,,,,,,,,,,,0.6,1,,,,,,,,,,,,,,,,,,,,,,,,-0.019444444,-0.407407407,0,0,0,,,,,,,FINGER,HB,m,y,./images/FINGERHB.png,,,,,,,,,,,,,,,,,,,,m,1,0.6,,,,,,,,0,116,116,3,1
,,,,,,,,,,,,,,,,,5e5ab88a43f33029b119a48c,49,2022-02-12_17h43.46.048,lexical_decision_task_DD_L2,2021.2.3,Win32,59.95203837,,,,,,,,,,,,1.082,0,,,,,,,,,,,,,,,,,,,,,,,,-0.019444444,-0.407407407,0,0,0,,,,,,,SAILOR,LB,m,y,./images/SAILORLB.png,,,,,,,,,,,,,,,,,,,,z,0,1.082,,,,,,,,0,117,117,67,1
,,,,,,,,,,,,,,,,,5e5ab88a43f33029b119a48c,49,2022-02-12_17h43.46.048,lexical_decision_task_DD_L2,2021.2.3,Win32,59.95203837,,,,,,,,,,,,0.598,1,,,,,,,,,,,,,,,,,,,,,,,,-0.019444444,-0.407407407,0,0,0,,,,,,,BELLY,LB,m,y,./images/BELLYLB.png,,,,,,,,,,,,,,,,,,,,m,1,0.598,,,,,,,,0,118,118,10,1
,,,,,,,,,,,,,,,,,5e5ab88a43f33029b119a48c,49,2022-02-12_17h43.46.048,lexical_decision_task_DD_L2,2021.2.3,Win32,59.95203837,,,,,,,,,,,,0.617,1,,,,,,,,,,,,,,,,,,,,,,,,-0.019444444,-0.407407407,0,0,0,,,,,,,FARMER,C,m,y,./images/FARMER.png,,,,,,,,,,,,,,,,,,,,m,1,0.617,,,,,,,,0,119,119,65,1
,,,,,,,,,,,,,,,,,5e5ab88a43f33029b119a48c,49,2022-02-12_17h43.46.048,lexical_decision_task_DD_L2,2021.2.3,Win32,59.95203837,,,,,,,,,,,,0.782,1,,,,,,,,,,,,,,,,,,,,,,,,-0.019444444,-0.407407407,0,0,0,,,,,,,ENGINE,C,z,y,./images/ENGINE.png,,,,,,,,,,,,,,,,,,,,z,1,0.782,,,,,,,,0,120,120,122,1
,,,,,,,,,,,,,,,,,5e5ab88a43f33029b119a48c,49,2022-02-12_17h43.46.048,lexical_decision_task_DD_L2,2021.2.3,Win32,59.95203837,,,,,,,,,,,,0.649,1,,,,,,,,,,,,,,,,,,,,,,,,-0.019444444,-0.407407407,0,0,0,,,,,,,MUFFIN,LB,m,y,./images/MUFFINLB.png,,,,,,,,,,,,,,,,,,,,m,1,0.649,,,,,,,,0,121,121,55,1
,,,,,,,,,,,,,,,,,5e5ab88a43f33029b119a48c,49,2022-02-12_17h43.46.048,lexical_decision_task_DD_L2,2021.2.3,Win32,59.95203837,,,,,,,,,,,,0.699,1,,,,,,,,,,,,,,,,,,,,,,,,-0.019444444,-0.407407407,0,0,0,,,,,,,SHELF,HB,m,y,./images/SHELFHB.png,,,,,,,,,,,,,,,,,,,,m,1,0.699,,,,,,,,0,122,122,39,1
,,,,,,,,,,,,,,,,,5e5ab88a43f33029b119a48c,49,2022-02-12_17h43.46.048,lexical_decision_task_DD_L2,2021.2.3,Win32,59.95203837,,,,,,,,,,,,0.631,0,,,,,,,,,,,,,,,,,,,,,,,,-0.019444444,-0.407407407,0,0,0,,,,,,,GARDEN,LB,z,y,./images/GARDENLB.png,,,,,,,,,,,,,,,,,,,,m,0,0.631,,,,,,,,0,123,123,94,1
,,,,,,,,,,,,,,,,,5e5ab88a43f33029b119a48c,49,2022-02-12_17h43.46.048,lexical_decision_task_DD_L2,2021.2.3,Win32,59.95203837,,,,,,,,,,,,0.599,0,,,,,,,,,,,,,,,,,,,,,,,,-0.019444444,-0.407407407,0,0,0,,,,,,,CANDY,HB,z,y,./images/CANDYHB.png,,,,,,,,,,,,,,,,,,,,m,0,0.599,,,,,,,,0,124,124,123,1
,,,,,,,,,,,,,,,,,5e5ab88a43f33029b119a48c,49,2022-02-12_17h43.46.048,lexical_decision_task_DD_L2,2021.2.3,Win32,59.95203837,,,,,,,,,,,,0.832,0,,,,,,,,,,,,,,,,,,,,,,,,-0.019444444,-0.407407407,0,0,0,space,,,,,,PARCEL,HB,z,y,./images/PARCELHB.png,2.281,,,,,,,,,,,,,,,,,,,m,0,0.832,,,,,,,,0,125,125,102,1
,,,,,,,,,,,,,,,,,5e5ab88a43f33029b119a48c,49,2022-02-12_17h43.46.048,lexical_decision_task_DD_L2,2021.2.3,Win32,59.95203837,,,,,,,,,,,,0.945,1,,,,,,,,,,,,,,,,,,,,,,,,-0.019444444,-0.407407407,0,0,0,,,,,,,WAGON,LB,z,y,./images/WAGONLB.png,,,,,,,,,,,,,,,,,,,,z,1,0.945,,,,,,,,0,126,126,91,1
,,,,,,,,,,,,,,,,,5e5ab88a43f33029b119a48c,49,2022-02-12_17h43.46.048,lexical_decision_task_DD_L2,2021.2.3,Win32,59.95203837,,,,,,,,,,,,0.667,1,,,,,,,,,,,,,,,,,,,,,,,,-0.019444444,-0.407407407,0,0,0,,,,,,,CARPET,C,m,y,./images/CARPET.png,,,,,,,,,,,,,,,,,,,,m,1,0.667,,,,,,,,0,127,127,53,1
,,,,,,,,,,,,,,,,,5e5ab88a43f33029b119a48c,49,2022-02-12_17h43.46.048,lexical_decision_task_DD_L2,2021.2.3,Win32,59.95203837,,,,,,,,,,,,0.581,0,,,,,,,,,,,,,,,,,,,,,,,,-0.019444444,-0.407407407,0,0,0,,,,,,,SLOPE,HB,z,y,./images/SLOPEHB.png,,,,,,,,,,,,,,,,,,,,m,0,0.581,,,,,,,,0,128,128,114,1
,,,,,,,,,,,,,,,,,5e5ab88a43f33029b119a48c,49,2022-02-12_17h43.46.048,lexical_decision_task_DD_L2,2021.2.3,Win32,59.95203837,,,,,,,,,,,,0.548,1,,,,,,,,,,,,,,,,,,,,,,,,-0.019444444,-0.407407407,0,0,0,,,,,,,CRUST,LB,m,y,./images/CRUSTLB.png,,,,,,,,,,,,,,,,,,,,m,1,0.548,,,,,,,,0,129,129,79,1
,,,,,,,,,,,,,,,,,5e5ab88a43f33029b119a48c,49,2022-02-12_17h43.46.048,lexical_decision_task_DD_L2,2021.2.3,Win32,59.95203837,,,,,,,,,,,,0.847,1,,,,,,,,,,,,,,,,,,,,,,,,-0.019444444,-0.407407407,0,0,0,,,,,,,BABOON,LB,m,y,./images/BABOONLB.png,,,,,,,,,,,,,,,,,,,,m,1,0.847,,,,,,,,0,130,130,58,1
,,,,,,,,,,,,,,,,,5e5ab88a43f33029b119a48c,49,2022-02-12_17h43.46.048,lexical_decision_task_DD_L2,2021.2.3,Win32,59.95203837,,,,,,,,,,,,0.646,1,,,,,,,,,,,,,,,,,,,,,,,,-0.019444444,-0.407407407,0,0,0,,,,,,,MOSQUE,LB,m,y,./images/MOSQUELB.png,,,,,,,,,,,,,,,,,,,,m,1,0.646,,,,,,,,0,131,131,43,1
,,,,,,,,,,,,,,,,,5e5ab88a43f33029b119a48c,49,2022-02-12_17h43.46.048,lexical_decision_task_DD_L2,2021.2.3,Win32,59.95203837,,,,,,,,,,,,0.599,1,,,,,,,,,,,,,,,,,,,,,,,,-0.019444444,-0.407407407,0,0,0,,,,,,,CEMENT,C,m,y,./images/CEMENT.png,,,,,,,,,,,,,,,,,,,,m,1,0.599,,,,,,,,0,132,132,74,1
