key_resp.keys,instr_done_touch.x,instr_done_touch.y,instr_done_touch.leftButton,instr_done_touch.midButton,instr_done_touch.rightButton,instr_done_touch.clicked_name,instruction_pages.thisRepN,instruction_pages.thisTrialN,instruction_pages.thisN,instruction_pages.thisIndex,instruction_pages.ran,pageN,phase,instruct_text,has_image,instruct_image,participant,age,date,expName,psychopyVersion,OS,frameRate,key_resp.rt,response.keys,response.corr,response.rt,touch_resp.x,touch_resp.y,touch_resp.leftButton,touch_resp.midButton,touch_resp.rightButton,touch_resp.time,touch_resp.clicked_name,rt,corr,practrials.thisRepN,practrials.thisTrialN,practrials.thisN,practrials.thisIndex,practrials.ran,TrialID,Target,corrAns,end_of_practice_trials_pages.thisRepN,end_of_practice_trials_pages.thisTrialN,end_of_practice_trials_pages.thisN,end_of_practice_trials_pages.thisIndex,end_of_practice_trials_pages.ran,key_resp_2.keys,key_resp_2.corr,key_resp_2.rt,targ_click.x,targ_click.y,targ_click.leftButton,targ_click.midButton,targ_click.rightButton,targ_click.time,targ_click.clicked_name,break_done_touch.x,break_done_touch.y,break_done_touch.leftButton,break_done_touch.midButton,break_done_touch.rightButton,break_done_keyboard.keys,maintrials.thisRepN,maintrials.thisTrialN,maintrials.thisN,maintrials.thisIndex,maintrials.ran,string,blur,study,lex,stim_path,break_done_keyboard.rt,break_done_touch.clicked_name,mouse_2.x,mouse_2.y,mouse_2.leftButton,mouse_2.midButton,mouse_2.rightButton,mouse_2.clicked_name,slider.response,slider.rt,trials.thisRepN,trials.thisTrialN,trials.thisN,trials.thisIndex,trials.ran,test_instructions.thisRepN,test_instructions.thisTrialN,test_instructions.thisN,test_instructions.thisIndex,test_instructions.ran,key_resp_3.keys,key_resp_3.corr,key_resp_3.rt,test_click.x,test_click.y,test_click.leftButton,test_click.midButton,test_click.rightButton,test_click.time,test_click.clicked_name,test_phase.thisRepN,test_phase.thisTrialN,test_phase.thisN,test_phase.thisIndex,test_phase.ran
,0.014166742,-0.391666693,1,0,0,instr_done_button,0,0,0,0,1,1,instructions,"INSTRUCTIONS
At the start of each trial, look at the plus sign  (+) in the center of the screen.  This tells you that a trial is about to begin and where to look. Second, the plus sign will disappear and a string of letters will appear. Your task is to determine if the string of letters is a word or not. If the item is a word press the M key (on keyboard)  or touch the word button (phone/tablet).  If the item is not a word,  press the  Z key (on keyboard)  or touch the nonword button (on phone/tablet). 
Press the space bar or touch  continue.",0,,5eeacbcbb570dc1ab706417a,24,2022-02-12_14h52.43.638,lexical_decision_task_DD_L2,2021.2.3,Win32,59.28736586,,,,,,,,,,,,,,,,,,,,,,,,,,,,,,,,,,,,,,,,,,,,,,,,,,,,,,,,,,,,,,,,,,,,,,,,,,,,,,,,,,,,,,,
,0.044166743,-0.40583336,1,0,0,instr_done_button,0,1,1,1,1,2,instructions,"If your device has a keyboard, press the 'Z' key for nonwords and the 'M' key for words.





Press the space bar or touch the button below to continue.",0,keyboard-example.gif,5eeacbcbb570dc1ab706417a,24,2022-02-12_14h52.43.638,lexical_decision_task_DD_L2,2021.2.3,Win32,59.28736586,,,,,,,,,,,,,,,,,,,,,,,,,,,,,,,,,,,,,,,,,,,,,,,,,,,,,,,,,,,,,,,,,,,,,,,,,,,,,,,,,,,,,,,
,0.011666742,-0.382500026,1,0,0,instr_done_button,0,2,2,2,1,3,instructions,"If you are using a touchscreen only device, use the buttons on the screen. Do not use the mouse.





Press the space bar or touch the button below to continue.",0,touchscreen-example.gif,5eeacbcbb570dc1ab706417a,24,2022-02-12_14h52.43.638,lexical_decision_task_DD_L2,2021.2.3,Win32,59.28736586,,,,,,,,,,,,,,,,,,,,,,,,,,,,,,,,,,,,,,,,,,,,,,,,,,,,,,,,,,,,,,,,,,,,,,,,,,,,,,,,,,,,,,,
space,0.110000027,-0.200833354,0,0,0,,0,3,3,3,1,4,instructions,"It is very important that you respond as quickly and accurately as possible, as each letter string will only be on the screen for two seconds. If you do not respond within this time, the message 'Too slow!' will be displayed and the experiment will progress to the next letter string. The first 20 trials will be practice trials and you will receive feedback on your answers. 

Press the space bar or touch the button below to start the practice trials.",0,,5eeacbcbb570dc1ab706417a,24,2022-02-12_14h52.43.638,lexical_decision_task_DD_L2,2021.2.3,Win32,59.28736586,13.7454,,,,,,,,,,,,,,,,,,,,,,,,,,,,,,,,,,,,,,,,,,,,,,,,,,,,,,,,,,,,,,,,,,,,,,,,,,,,,,,,,,,,,,
,,,,,,,,,,,,,,,,,5eeacbcbb570dc1ab706417a,24,2022-02-12_14h52.43.638,lexical_decision_task_DD_L2,2021.2.3,Win32,59.28736586,,m,1,1.9795,,,,,,,,1.9795,1,0,0,0,5,1,1001,OBTAIN,m,,,,,,,,,,,,,,,,,,,,,,,,,,,,,,,,,,,,,,,,,,,,,,,,,,,,,,,,,,,,,,,,,,
,,,,,,,,,,,,,,,,,5eeacbcbb570dc1ab706417a,24,2022-02-12_14h52.43.638,lexical_decision_task_DD_L2,2021.2.3,Win32,59.28736586,,z,1,0.857,,,,,,,,0.857,1,0,1,1,11,1,1001,RASHET,z,,,,,,,,,,,,,,,,,,,,,,,,,,,,,,,,,,,,,,,,,,,,,,,,,,,,,,,,,,,,,,,,,,
,,,,,,,,,,,,,,,,,5eeacbcbb570dc1ab706417a,24,2022-02-12_14h52.43.638,lexical_decision_task_DD_L2,2021.2.3,Win32,59.28736586,,m,1,0.5997,,,,,,,,0.5997,1,0,2,2,1,1,1001,ADJUST,m,,,,,,,,,,,,,,,,,,,,,,,,,,,,,,,,,,,,,,,,,,,,,,,,,,,,,,,,,,,,,,,,,,
,,,,,,,,,,,,,,,,,5eeacbcbb570dc1ab706417a,24,2022-02-12_14h52.43.638,lexical_decision_task_DD_L2,2021.2.3,Win32,59.28736586,,m,1,0.6161,,,,,,,,0.6161,1,0,3,3,7,1,1001,VOLUME,m,,,,,,,,,,,,,,,,,,,,,,,,,,,,,,,,,,,,,,,,,,,,,,,,,,,,,,,,,,,,,,,,,,
,,,,,,,,,,,,,,,,,5eeacbcbb570dc1ab706417a,24,2022-02-12_14h52.43.638,lexical_decision_task_DD_L2,2021.2.3,Win32,59.28736586,,z,1,0.8368,,,,,,,,0.8368,1,0,4,4,12,1,1001,SPRINY,z,,,,,,,,,,,,,,,,,,,,,,,,,,,,,,,,,,,,,,,,,,,,,,,,,,,,,,,,,,,,,,,,,,
,,,,,,,,,,,,,,,,,5eeacbcbb570dc1ab706417a,24,2022-02-12_14h52.43.638,lexical_decision_task_DD_L2,2021.2.3,Win32,59.28736586,,m,1,0.6253,,,,,,,,0.6253,1,0,5,5,6,1,1001,ZOMBIE,m,,,,,,,,,,,,,,,,,,,,,,,,,,,,,,,,,,,,,,,,,,,,,,,,,,,,,,,,,,,,,,,,,,
,,,,,,,,,,,,,,,,,5eeacbcbb570dc1ab706417a,24,2022-02-12_14h52.43.638,lexical_decision_task_DD_L2,2021.2.3,Win32,59.28736586,,z,1,0.8632,,,,,,,,0.8632,1,0,6,6,8,1,1001,ASLERT,z,,,,,,,,,,,,,,,,,,,,,,,,,,,,,,,,,,,,,,,,,,,,,,,,,,,,,,,,,,,,,,,,,,
,,,,,,,,,,,,,,,,,5eeacbcbb570dc1ab706417a,24,2022-02-12_14h52.43.638,lexical_decision_task_DD_L2,2021.2.3,Win32,59.28736586,,m,1,0.6249,,,,,,,,0.6249,1,0,7,7,4,1,1001,SQUEAK,m,,,,,,,,,,,,,,,,,,,,,,,,,,,,,,,,,,,,,,,,,,,,,,,,,,,,,,,,,,,,,,,,,,
,,,,,,,,,,,,,,,,,5eeacbcbb570dc1ab706417a,24,2022-02-12_14h52.43.638,lexical_decision_task_DD_L2,2021.2.3,Win32,59.28736586,,z,1,0.7282,,,,,,,,0.7282,1,0,8,8,9,1,1001,FARINY,z,,,,,,,,,,,,,,,,,,,,,,,,,,,,,,,,,,,,,,,,,,,,,,,,,,,,,,,,,,,,,,,,,,
,,,,,,,,,,,,,,,,,5eeacbcbb570dc1ab706417a,24,2022-02-12_14h52.43.638,lexical_decision_task_DD_L2,2021.2.3,Win32,59.28736586,,z,1,0.65,,,,,,,,0.65,1,0,9,9,14,1,1001,THRALE,z,,,,,,,,,,,,,,,,,,,,,,,,,,,,,,,,,,,,,,,,,,,,,,,,,,,,,,,,,,,,,,,,,,
,,,,,,,,,,,,,,,,,5eeacbcbb570dc1ab706417a,24,2022-02-12_14h52.43.638,lexical_decision_task_DD_L2,2021.2.3,Win32,59.28736586,,m,1,0.534,,,,,,,,0.534,1,0,10,10,2,1,1001,ALMOND,m,,,,,,,,,,,,,,,,,,,,,,,,,,,,,,,,,,,,,,,,,,,,,,,,,,,,,,,,,,,,,,,,,,
,,,,,,,,,,,,,,,,,5eeacbcbb570dc1ab706417a,24,2022-02-12_14h52.43.638,lexical_decision_task_DD_L2,2021.2.3,Win32,59.28736586,,m,1,0.698,,,,,,,,0.698,1,0,11,11,0,1,1001,UTOPIA,m,,,,,,,,,,,,,,,,,,,,,,,,,,,,,,,,,,,,,,,,,,,,,,,,,,,,,,,,,,,,,,,,,,
,,,,,,,,,,,,,,,,,5eeacbcbb570dc1ab706417a,24,2022-02-12_14h52.43.638,lexical_decision_task_DD_L2,2021.2.3,Win32,59.28736586,,z,1,0.5378,,,,,,,,0.5378,1,0,12,12,10,1,1001,INLADE,z,,,,,,,,,,,,,,,,,,,,,,,,,,,,,,,,,,,,,,,,,,,,,,,,,,,,,,,,,,,,,,,,,,
,,,,,,,,,,,,,,,,,5eeacbcbb570dc1ab706417a,24,2022-02-12_14h52.43.638,lexical_decision_task_DD_L2,2021.2.3,Win32,59.28736586,,m,1,0.6668,,,,,,,,0.6668,1,0,13,13,3,1,1001,MATRIX,m,,,,,,,,,,,,,,,,,,,,,,,,,,,,,,,,,,,,,,,,,,,,,,,,,,,,,,,,,,,,,,,,,,
,,,,,,,,,,,,,,,,,5eeacbcbb570dc1ab706417a,24,2022-02-12_14h52.43.638,lexical_decision_task_DD_L2,2021.2.3,Win32,59.28736586,,z,1,0.7622,,,,,,,,0.7622,1,0,14,14,15,1,1001,WHAISE,z,,,,,,,,,,,,,,,,,,,,,,,,,,,,,,,,,,,,,,,,,,,,,,,,,,,,,,,,,,,,,,,,,,
,,,,,,,,,,,,,,,,,5eeacbcbb570dc1ab706417a,24,2022-02-12_14h52.43.638,lexical_decision_task_DD_L2,2021.2.3,Win32,59.28736586,,z,1,0.895,,,,,,,,0.895,1,0,15,15,13,1,1001,ROUPET,z,,,,,,,,,,,,,,,,,,,,,,,,,,,,,,,,,,,,,,,,,,,,,,,,,,,,,,,,,,,,,,,,,,
,-0.003333259,-0.370833359,1,0,0,instr_done_button,,,,,,1,end_of_practice,"You have completed the practice trials. During the experimental trials, you will not receive feedback. 
Before you begin, please ensure that you are in a comfortable and quiet location and will not be disturbed for about 15 minutes, as we cannot use your data if you do not complete all the trials. 
 When you are ready to start the experimental trials, please press space or touch the button below.",,,5eeacbcbb570dc1ab706417a,24,2022-02-12_14h52.43.638,lexical_decision_task_DD_L2,2021.2.3,Win32,59.28736586,,,,,,,,,,,,,,,,,,,,,,0,0,0,0,1,,,,,,,,,,,,,,,,,,,,,,,,,,,,,,,,,,,,,,,,,,,,,,,,,,,,,,,,,,,,,
,,,,,,,,,,,,,,,,,5eeacbcbb570dc1ab706417a,24,2022-02-12_14h52.43.638,lexical_decision_task_DD_L2,2021.2.3,Win32,59.28736586,,,,,,,,,,,,1.5995,1,,,,,,,,,,,,,,m,1,1.5995,,,,,,,,-0.003333259,-0.370833359,0,0,0,,0,0,0,0,1,TOMATO,HB,old,m,./images/TOMATOHB.png,,,,,,,,,,,,,,,,,,,,,,,,,,,,,,,,,,,
,,,,,,,,,,,,,,,,,5eeacbcbb570dc1ab706417a,24,2022-02-12_14h52.43.638,lexical_decision_task_DD_L2,2021.2.3,Win32,59.28736586,,,,,,,,,,,,0.6891,1,,,,,,,,,,,,,,m,1,0.6891,,,,,,,,-0.003333259,-0.370833359,0,0,0,,0,1,1,8,1,TULIP,C,old,m,./images/TULIP.png,,,,,,,,,,,,,,,,,,,,,,,,,,,,,,,,,,,
,,,,,,,,,,,,,,,,,5eeacbcbb570dc1ab706417a,24,2022-02-12_14h52.43.638,lexical_decision_task_DD_L2,2021.2.3,Win32,59.28736586,,,,,,,,,,,,0.6711,1,,,,,,,,,,,,,,m,1,0.6711,,,,,,,,-0.003333259,-0.370833359,0,0,0,,0,2,2,42,1,FOLDER,HB,old,m,./images/FOLDERHB.png,,,,,,,,,,,,,,,,,,,,,,,,,,,,,,,,,,,
,,,,,,,,,,,,,,,,,5eeacbcbb570dc1ab706417a,24,2022-02-12_14h52.43.638,lexical_decision_task_DD_L2,2021.2.3,Win32,59.28736586,,,,,,,,,,,,0.5778,1,,,,,,,,,,,,,,m,1,0.5778,,,,,,,,-0.003333259,-0.370833359,0,0,0,,0,3,3,73,1,SNACK,LB,old,m,./images/SNACKLB.png,,,,,,,,,,,,,,,,,,,,,,,,,,,,,,,,,,,
,,,,,,,,,,,,,,,,,5eeacbcbb570dc1ab706417a,24,2022-02-12_14h52.43.638,lexical_decision_task_DD_L2,2021.2.3,Win32,59.28736586,,,,,,,,,,,,1.1036,0,,,,,,,,,,,,,,z,0,1.1036,,,,,,,,-0.003333259,-0.370833359,0,0,0,,0,4,4,80,1,WEASEL,C,old,m,./images/WEASEL.png,,,,,,,,,,,,,,,,,,,,,,,,,,,,,,,,,,,
,,,,,,,,,,,,,,,,,5eeacbcbb570dc1ab706417a,24,2022-02-12_14h52.43.638,lexical_decision_task_DD_L2,2021.2.3,Win32,59.28736586,,,,,,,,,,,,0.5361,1,,,,,,,,,,,,,,m,1,0.5361,,,,,,,,-0.003333259,-0.370833359,0,0,0,,0,5,5,64,1,JELLY,LB,old,m,./images/JELLYLB.png,,,,,,,,,,,,,,,,,,,,,,,,,,,,,,,,,,,
,,,,,,,,,,,,,,,,,5eeacbcbb570dc1ab706417a,24,2022-02-12_14h52.43.638,lexical_decision_task_DD_L2,2021.2.3,Win32,59.28736586,,,,,,,,,,,,1.665,1,,,,,,,,,,,,,,z,1,1.665,,,,,,,,-0.003333259,-0.370833359,0,0,0,,0,6,6,130,1,CRILL,HB,old,z,./images/CRILLHB.png,,,,,,,,,,,,,,,,,,,,,,,,,,,,,,,,,,,
,,,,,,,,,,,,,,,,,5eeacbcbb570dc1ab706417a,24,2022-02-12_14h52.43.638,lexical_decision_task_DD_L2,2021.2.3,Win32,59.28736586,,,,,,,,,,,,1.4697,1,,,,,,,,,,,,,,z,1,1.4697,,,,,,,,-0.003333259,-0.370833359,0,0,0,,0,7,7,136,1,WERVE,HB,old,z,./images/WERVEHB.png,,,,,,,,,,,,,,,,,,,,,,,,,,,,,,,,,,,
,,,,,,,,,,,,,,,,,5eeacbcbb570dc1ab706417a,24,2022-02-12_14h52.43.638,lexical_decision_task_DD_L2,2021.2.3,Win32,59.28736586,,,,,,,,,,,,0.659,1,,,,,,,,,,,,,,m,1,0.659,,,,,,,,-0.003333259,-0.370833359,0,0,0,,0,8,8,18,1,JAGUAR,HB,old,m,./images/JAGUARHB.png,,,,,,,,,,,,,,,,,,,,,,,,,,,,,,,,,,,
,,,,,,,,,,,,,,,,,5eeacbcbb570dc1ab706417a,24,2022-02-12_14h52.43.638,lexical_decision_task_DD_L2,2021.2.3,Win32,59.28736586,,,,,,,,,,,,1.1078,1,,,,,,,,,,,,,,z,1,1.1078,,,,,,,,-0.003333259,-0.370833359,0,0,0,,0,9,9,97,1,CHIDS,HB,old,z,./images/CHIDSHB.png,,,,,,,,,,,,,,,,,,,,,,,,,,,,,,,,,,,
,,,,,,,,,,,,,,,,,5eeacbcbb570dc1ab706417a,24,2022-02-12_14h52.43.638,lexical_decision_task_DD_L2,2021.2.3,Win32,59.28736586,,,,,,,,,,,,0.6619,1,,,,,,,,,,,,,,m,1,0.6619,,,,,,,,-0.003333259,-0.370833359,0,0,0,,0,10,10,25,1,WRIST,LB,old,m,./images/WRISTLB.png,,,,,,,,,,,,,,,,,,,,,,,,,,,,,,,,,,,
,,,,,,,,,,,,,,,,,5eeacbcbb570dc1ab706417a,24,2022-02-12_14h52.43.638,lexical_decision_task_DD_L2,2021.2.3,Win32,59.28736586,,,,,,,,,,,,1.1758,1,,,,,,,,,,,,,,z,1,1.1758,,,,,,,,-0.003333259,-0.370833359,0,0,0,,0,11,11,140,1,DOVET,LB,old,z,./images/DOVETLB.png,,,,,,,,,,,,,,,,,,,,,,,,,,,,,,,,,,,
,,,,,,,,,,,,,,,,,5eeacbcbb570dc1ab706417a,24,2022-02-12_14h52.43.638,lexical_decision_task_DD_L2,2021.2.3,Win32,59.28736586,,,,,,,,,,,,0.8794,1,,,,,,,,,,,,,,m,1,0.8794,,,,,,,,-0.003333259,-0.370833359,0,0,0,,0,12,12,58,1,BABOON,LB,old,m,./images/BABOONLB.png,,,,,,,,,,,,,,,,,,,,,,,,,,,,,,,,,,,
,,,,,,,,,,,,,,,,,5eeacbcbb570dc1ab706417a,24,2022-02-12_14h52.43.638,lexical_decision_task_DD_L2,2021.2.3,Win32,59.28736586,,,,,,,,,,,,1.3478,1,,,,,,,,,,,,,,z,1,1.3478,,,,,,,,-0.003333259,-0.370833359,0,0,0,,0,13,13,103,1,FLORT,HB,old,z,./images/FLORTHB.png,,,,,,,,,,,,,,,,,,,,,,,,,,,,,,,,,,,
,,,,,,,,,,,,,,,,,5eeacbcbb570dc1ab706417a,24,2022-02-12_14h52.43.638,lexical_decision_task_DD_L2,2021.2.3,Win32,59.28736586,,,,,,,,,,,,0.6732,1,,,,,,,,,,,,,,m,1,0.6732,,,,,,,,-0.003333259,-0.370833359,0,0,0,,0,14,14,29,1,CRUMB,C,old,m,./images/CRUMB.png,,,,,,,,,,,,,,,,,,,,,,,,,,,,,,,,,,,
,,,,,,,,,,,,,,,,,5eeacbcbb570dc1ab706417a,24,2022-02-12_14h52.43.638,lexical_decision_task_DD_L2,2021.2.3,Win32,59.28736586,,,,,,,,,,,,0.9709,1,,,,,,,,,,,,,,m,1,0.9709,,,,,,,,-0.003333259,-0.370833359,0,0,0,,0,15,15,62,1,PURSE,C,old,m,./images/PURSE.png,,,,,,,,,,,,,,,,,,,,,,,,,,,,,,,,,,,
,,,,,,,,,,,,,,,,,5eeacbcbb570dc1ab706417a,24,2022-02-12_14h52.43.638,lexical_decision_task_DD_L2,2021.2.3,Win32,59.28736586,,,,,,,,,,,,0.6986,1,,,,,,,,,,,,,,z,1,0.6986,,,,,,,,-0.003333259,-0.370833359,0,0,0,,0,16,16,151,1,TINKY,HB,old,z,./images/TINKYHB.png,,,,,,,,,,,,,,,,,,,,,,,,,,,,,,,,,,,
,,,,,,,,,,,,,,,,,5eeacbcbb570dc1ab706417a,24,2022-02-12_14h52.43.638,lexical_decision_task_DD_L2,2021.2.3,Win32,59.28736586,,,,,,,,,,,,0.7504,1,,,,,,,,,,,,,,z,1,0.7504,,,,,,,,-0.003333259,-0.370833359,0,0,0,,0,17,17,137,1,JOOST,LB,old,z,./images/JOOSTLB.png,,,,,,,,,,,,,,,,,,,,,,,,,,,,,,,,,,,
,,,,,,,,,,,,,,,,,5eeacbcbb570dc1ab706417a,24,2022-02-12_14h52.43.638,lexical_decision_task_DD_L2,2021.2.3,Win32,59.28736586,,,,,,,,,,,,0.6517,1,,,,,,,,,,,,,,m,1,0.6517,,,,,,,,-0.003333259,-0.370833359,0,0,0,,0,18,18,82,1,SUNSET,LB,old,m,./images/SUNSETLB.png,,,,,,,,,,,,,,,,,,,,,,,,,,,,,,,,,,,
,,,,,,,,,,,,,,,,,5eeacbcbb570dc1ab706417a,24,2022-02-12_14h52.43.638,lexical_decision_task_DD_L2,2021.2.3,Win32,59.28736586,,,,,,,,,,,,0.7042,1,,,,,,,,,,,,,,m,1,0.7042,,,,,,,,-0.003333259,-0.370833359,0,0,0,,0,19,19,56,1,PACKET,C,old,m,./images/PACKET.png,,,,,,,,,,,,,,,,,,,,,,,,,,,,,,,,,,,
,,,,,,,,,,,,,,,,,5eeacbcbb570dc1ab706417a,24,2022-02-12_14h52.43.638,lexical_decision_task_DD_L2,2021.2.3,Win32,59.28736586,,,,,,,,,,,,1.6161,1,,,,,,,,,,,,,,z,1,1.6161,,,,,,,,-0.003333259,-0.370833359,0,0,0,,0,20,20,100,1,DRIBS,HB,old,z,./images/DRIBSHB.png,,,,,,,,,,,,,,,,,,,,,,,,,,,,,,,,,,,
,,,,,,,,,,,,,,,,,5eeacbcbb570dc1ab706417a,24,2022-02-12_14h52.43.638,lexical_decision_task_DD_L2,2021.2.3,Win32,59.28736586,,,,,,,,,,,,0.7926,1,,,,,,,,,,,,,,z,1,0.7926,,,,,,,,-0.003333259,-0.370833359,0,0,0,,0,21,21,108,1,GRUET,C,old,z,./images/GRUET.png,,,,,,,,,,,,,,,,,,,,,,,,,,,,,,,,,,,
,,,,,,,,,,,,,,,,,5eeacbcbb570dc1ab706417a,24,2022-02-12_14h52.43.638,lexical_decision_task_DD_L2,2021.2.3,Win32,59.28736586,,,,,,,,,,,,0.798,1,,,,,,,,,,,,,,z,1,0.798,,,,,,,,-0.003333259,-0.370833359,0,0,0,,0,22,22,153,1,CLUPS,C,old,z,./images/CLUPS.png,,,,,,,,,,,,,,,,,,,,,,,,,,,,,,,,,,,
,,,,,,,,,,,,,,,,,5eeacbcbb570dc1ab706417a,24,2022-02-12_14h52.43.638,lexical_decision_task_DD_L2,2021.2.3,Win32,59.28736586,,,,,,,,,,,,1.0665,1,,,,,,,,,,,,,,z,1,1.0665,,,,,,,,-0.003333259,-0.370833359,0,0,0,,0,23,23,143,1,MONGS,LB,old,z,./images/MONGSLB.png,,,,,,,,,,,,,,,,,,,,,,,,,,,,,,,,,,,
,,,,,,,,,,,,,,,,,5eeacbcbb570dc1ab706417a,24,2022-02-12_14h52.43.638,lexical_decision_task_DD_L2,2021.2.3,Win32,59.28736586,,,,,,,,,,,,0.8548,1,,,,,,,,,,,,,,z,1,0.8548,,,,,,,,-0.003333259,-0.370833359,0,0,0,,0,24,24,150,1,NOOLS,C,old,z,./images/NOOLS.png,,,,,,,,,,,,,,,,,,,,,,,,,,,,,,,,,,,
,,,,,,,,,,,,,,,,,5eeacbcbb570dc1ab706417a,24,2022-02-12_14h52.43.638,lexical_decision_task_DD_L2,2021.2.3,Win32,59.28736586,,,,,,,,,,,,0.6939,1,,,,,,,,,,,,,,z,1,0.6939,,,,,,,,-0.003333259,-0.370833359,0,0,0,,0,25,25,138,1,PLICE,C,old,z,./images/PLICE.png,,,,,,,,,,,,,,,,,,,,,,,,,,,,,,,,,,,
,,,,,,,,,,,,,,,,,5eeacbcbb570dc1ab706417a,24,2022-02-12_14h52.43.638,lexical_decision_task_DD_L2,2021.2.3,Win32,59.28736586,,,,,,,,,,,,0.6472,0,,,,,,,,,,,,,,m,0,0.6472,,,,,,,,-0.003333259,-0.370833359,0,0,0,,0,26,26,85,1,CHULK,HB,old,z,./images/CHULKHB.png,,,,,,,,,,,,,,,,,,,,,,,,,,,,,,,,,,,
,,,,,,,,,,,,,,,,,5eeacbcbb570dc1ab706417a,24,2022-02-12_14h52.43.638,lexical_decision_task_DD_L2,2021.2.3,Win32,59.28736586,,,,,,,,,,,,0.8387,1,,,,,,,,,,,,,,m,1,0.8387,,,,,,,,-0.003333259,-0.370833359,0,0,0,,0,27,27,83,1,JUNGLE,C,old,m,./images/JUNGLE.png,,,,,,,,,,,,,,,,,,,,,,,,,,,,,,,,,,,
,,,,,,,,,,,,,,,,,5eeacbcbb570dc1ab706417a,24,2022-02-12_14h52.43.638,lexical_decision_task_DD_L2,2021.2.3,Win32,59.28736586,,,,,,,,,,,,0.6719,1,,,,,,,,,,,,,,m,1,0.6719,,,,,,,,-0.003333259,-0.370833359,0,0,0,,0,28,28,74,1,CEMENT,C,old,m,./images/CEMENT.png,,,,,,,,,,,,,,,,,,,,,,,,,,,,,,,,,,,
,,,,,,,,,,,,,,,,,5eeacbcbb570dc1ab706417a,24,2022-02-12_14h52.43.638,lexical_decision_task_DD_L2,2021.2.3,Win32,59.28736586,,,,,,,,,,,,0.7987,1,,,,,,,,,,,,,,z,1,0.7987,,,,,,,,-0.003333259,-0.370833359,0,0,0,,0,29,29,165,1,TROWN,C,old,z,./images/TROWN.png,,,,,,,,,,,,,,,,,,,,,,,,,,,,,,,,,,,
,,,,,,,,,,,,,,,,,5eeacbcbb570dc1ab706417a,24,2022-02-12_14h52.43.638,lexical_decision_task_DD_L2,2021.2.3,Win32,59.28736586,,,,,,,,,,,,0.9327,1,,,,,,,,,,,,,,m,1,0.9327,,,,,,,,-0.003333259,-0.370833359,0,0,0,,0,30,30,79,1,CRUST,LB,old,m,./images/CRUSTLB.png,,,,,,,,,,,,,,,,,,,,,,,,,,,,,,,,,,,
,,,,,,,,,,,,,,,,,5eeacbcbb570dc1ab706417a,24,2022-02-12_14h52.43.638,lexical_decision_task_DD_L2,2021.2.3,Win32,59.28736586,,,,,,,,,,,,0.7139,1,,,,,,,,,,,,,,z,1,0.7139,,,,,,,,-0.003333259,-0.370833359,0,0,0,,0,31,31,86,1,AIFED,LB,old,z,./images/AIFEDLB.png,,,,,,,,,,,,,,,,,,,,,,,,,,,,,,,,,,,
,,,,,,,,,,,,,,,,,5eeacbcbb570dc1ab706417a,24,2022-02-12_14h52.43.638,lexical_decision_task_DD_L2,2021.2.3,Win32,59.28736586,,,,,,,,,,,,0.7018,1,,,,,,,,,,,,,,z,1,0.7018,,,,,,,,-0.003333259,-0.370833359,0,0,0,,0,32,32,160,1,VEETS,HB,old,z,./images/VEETSHB.png,,,,,,,,,,,,,,,,,,,,,,,,,,,,,,,,,,,
,,,,,,,,,,,,,,,,,5eeacbcbb570dc1ab706417a,24,2022-02-12_14h52.43.638,lexical_decision_task_DD_L2,2021.2.3,Win32,59.28736586,,,,,,,,,,,,0.8665,1,,,,,,,,,,,,,,m,1,0.8665,,,,,,,,-0.003333259,-0.370833359,0,0,0,,0,33,33,45,1,KITTEN,HB,old,m,./images/KITTENHB.png,,,,,,,,,,,,,,,,,,,,,,,,,,,,,,,,,,,
,,,,,,,,,,,,,,,,,5eeacbcbb570dc1ab706417a,24,2022-02-12_14h52.43.638,lexical_decision_task_DD_L2,2021.2.3,Win32,59.28736586,,,,,,,,,,,,1.3515,1,,,,,,,,,,,,,,m,1,1.3515,,,,,,,,-0.003333259,-0.370833359,0,0,0,,0,34,34,72,1,NOOSE,HB,old,m,./images/NOOSEHB.png,,,,,,,,,,,,,,,,,,,,,,,,,,,,,,,,,,,
,,,,,,,,,,,,,,,,,5eeacbcbb570dc1ab706417a,24,2022-02-12_14h52.43.638,lexical_decision_task_DD_L2,2021.2.3,Win32,59.28736586,,,,,,,,,,,,0.7357,1,,,,,,,,,,,,,,z,1,0.7357,,,,,,,,-0.003333259,-0.370833359,0,0,0,,0,35,35,162,1,LEICH,C,old,z,./images/LEICH.png,,,,,,,,,,,,,,,,,,,,,,,,,,,,,,,,,,,
,,,,,,,,,,,,,,,,,5eeacbcbb570dc1ab706417a,24,2022-02-12_14h52.43.638,lexical_decision_task_DD_L2,2021.2.3,Win32,59.28736586,,,,,,,,,,,,0.5642,1,,,,,,,,,,,,,,m,1,0.5642,,,,,,,,-0.003333259,-0.370833359,0,0,0,,0,36,36,26,1,SMOKER,C,old,m,./images/SMOKER.png,,,,,,,,,,,,,,,,,,,,,,,,,,,,,,,,,,,
,,,,,,,,,,,,,,,,,5eeacbcbb570dc1ab706417a,24,2022-02-12_14h52.43.638,lexical_decision_task_DD_L2,2021.2.3,Win32,59.28736586,,,,,,,,,,,,0.7002,0,,,,,,,,,,,,,,m,0,0.7002,,,,,,,,-0.003333259,-0.370833359,0,0,0,,0,37,37,90,1,NEAST,C,old,z,./images/NEAST.png,,,,,,,,,,,,,,,,,,,,,,,,,,,,,,,,,,,
,,,,,,,,,,,,,,,,,5eeacbcbb570dc1ab706417a,24,2022-02-12_14h52.43.638,lexical_decision_task_DD_L2,2021.2.3,Win32,59.28736586,,,,,,,,,,,,1.2688,1,,,,,,,,,,,,,,m,1,1.2688,,,,,,,,-0.003333259,-0.370833359,0,0,0,,0,38,38,54,1,TRIPOD,HB,old,m,./images/TRIPODHB.png,,,,,,,,,,,,,,,,,,,,,,,,,,,,,,,,,,,
,,,,,,,,,,,,,,,,,5eeacbcbb570dc1ab706417a,24,2022-02-12_14h52.43.638,lexical_decision_task_DD_L2,2021.2.3,Win32,59.28736586,,,,,,,,,,,,0.8117,1,,,,,,,,,,,,,,m,1,0.8117,,,,,,,,-0.003333259,-0.370833359,0,0,0,,0,39,39,36,1,THROAT,HB,old,m,./images/THROATHB.png,,,,,,,,,,,,,,,,,,,,,,,,,,,,,,,,,,,
,,,,,,,,,,,,,,,,,5eeacbcbb570dc1ab706417a,24,2022-02-12_14h52.43.638,lexical_decision_task_DD_L2,2021.2.3,Win32,59.28736586,,,,,,,,,,,,0.6576,1,,,,,,,,,,,,,,m,1,0.6576,,,,,,,,-0.003333259,-0.370833359,0,0,0,,0,40,40,27,1,ATTIC,HB,old,m,./images/ATTICHB.png,,,,,,,,,,,,,,,,,,,,,,,,,,,,,,,,,,,
,,,,,,,,,,,,,,,,,5eeacbcbb570dc1ab706417a,24,2022-02-12_14h52.43.638,lexical_decision_task_DD_L2,2021.2.3,Win32,59.28736586,,,,,,,,,,,,0.8092,1,,,,,,,,,,,,,,m,1,0.8092,,,,,,,,-0.003333259,-0.370833359,0,0,0,space,0,41,41,40,1,SWING,LB,old,m,./images/SWINGLB.png,19.1544,,,,,,,,,,,,,,,,,,,,,,,,,,,,,,,,,,
,,,,,,,,,,,,,,,,,5eeacbcbb570dc1ab706417a,24,2022-02-12_14h52.43.638,lexical_decision_task_DD_L2,2021.2.3,Win32,59.28736586,,,,,,,,,,,,1.1855,1,,,,,,,,,,,,,,z,1,1.1855,,,,,,,,-0.003333259,-0.370833359,0,0,0,,0,42,42,122,1,BLOOT,LB,old,z,./images/BLOOTLB.png,,,,,,,,,,,,,,,,,,,,,,,,,,,,,,,,,,,
,,,,,,,,,,,,,,,,,5eeacbcbb570dc1ab706417a,24,2022-02-12_14h52.43.638,lexical_decision_task_DD_L2,2021.2.3,Win32,59.28736586,,,,,,,,,,,,0.6685,1,,,,,,,,,,,,,,m,1,0.6685,,,,,,,,-0.003333259,-0.370833359,0,0,0,,0,43,43,22,1,MELON,LB,old,m,./images/MELONLB.png,,,,,,,,,,,,,,,,,,,,,,,,,,,,,,,,,,,
,,,,,,,,,,,,,,,,,5eeacbcbb570dc1ab706417a,24,2022-02-12_14h52.43.638,lexical_decision_task_DD_L2,2021.2.3,Win32,59.28736586,,,,,,,,,,,,1.9877,0,,,,,,,,,,,,,,z,0,1.9877,,,,,,,,-0.003333259,-0.370833359,0,0,0,,0,44,44,50,1,MALLET,C,old,m,./images/MALLET.png,,,,,,,,,,,,,,,,,,,,,,,,,,,,,,,,,,,
,,,,,,,,,,,,,,,,,5eeacbcbb570dc1ab706417a,24,2022-02-12_14h52.43.638,lexical_decision_task_DD_L2,2021.2.3,Win32,59.28736586,,,,,,,,,,,,0.7198,1,,,,,,,,,,,,,,z,1,0.7198,,,,,,,,-0.003333259,-0.370833359,0,0,0,,0,45,45,149,1,VEASE,LB,old,z,./images/VEASELB.png,,,,,,,,,,,,,,,,,,,,,,,,,,,,,,,,,,,
,,,,,,,,,,,,,,,,,5eeacbcbb570dc1ab706417a,24,2022-02-12_14h52.43.638,lexical_decision_task_DD_L2,2021.2.3,Win32,59.28736586,,,,,,,,,,,,0.7457,1,,,,,,,,,,,,,,z,1,0.7457,,,,,,,,-0.003333259,-0.370833359,0,0,0,,0,46,46,152,1,FRAIN,LB,old,z,./images/FRAINLB.png,,,,,,,,,,,,,,,,,,,,,,,,,,,,,,,,,,,
,,,,,,,,,,,,,,,,,5eeacbcbb570dc1ab706417a,24,2022-02-12_14h52.43.638,lexical_decision_task_DD_L2,2021.2.3,Win32,59.28736586,,,,,,,,,,,,0.9395,1,,,,,,,,,,,,,,z,1,0.9395,,,,,,,,-0.003333259,-0.370833359,0,0,0,,0,47,47,88,1,GLUSH,HB,old,z,./images/GLUSHHB.png,,,,,,,,,,,,,,,,,,,,,,,,,,,,,,,,,,,
,,,,,,,,,,,,,,,,,5eeacbcbb570dc1ab706417a,24,2022-02-12_14h52.43.638,lexical_decision_task_DD_L2,2021.2.3,Win32,59.28736586,,,,,,,,,,,,0.6563,1,,,,,,,,,,,,,,z,1,0.6563,,,,,,,,-0.003333259,-0.370833359,0,0,0,,0,48,48,163,1,GAMBA,HB,old,z,./images/GAMBAHB.png,,,,,,,,,,,,,,,,,,,,,,,,,,,,,,,,,,,
,,,,,,,,,,,,,,,,,5eeacbcbb570dc1ab706417a,24,2022-02-12_14h52.43.638,lexical_decision_task_DD_L2,2021.2.3,Win32,59.28736586,,,,,,,,,,,,0.7852,1,,,,,,,,,,,,,,m,1,0.7852,,,,,,,,-0.003333259,-0.370833359,0,0,0,,0,49,49,66,1,SWEAT,HB,old,m,./images/SWEATHB.png,,,,,,,,,,,,,,,,,,,,,,,,,,,,,,,,,,,
,,,,,,,,,,,,,,,,,5eeacbcbb570dc1ab706417a,24,2022-02-12_14h52.43.638,lexical_decision_task_DD_L2,2021.2.3,Win32,59.28736586,,,,,,,,,,,,0.6186,1,,,,,,,,,,,,,,m,1,0.6186,,,,,,,,-0.003333259,-0.370833359,0,0,0,,0,50,50,49,1,DRUMS,LB,old,m,./images/DRUMSLB.png,,,,,,,,,,,,,,,,,,,,,,,,,,,,,,,,,,,
,,,,,,,,,,,,,,,,,5eeacbcbb570dc1ab706417a,24,2022-02-12_14h52.43.638,lexical_decision_task_DD_L2,2021.2.3,Win32,59.28736586,,,,,,,,,,,,0.6763,1,,,,,,,,,,,,,,z,1,0.6763,,,,,,,,-0.003333259,-0.370833359,0,0,0,,0,51,51,135,1,JOODY,C,old,z,./images/JOODY.png,,,,,,,,,,,,,,,,,,,,,,,,,,,,,,,,,,,
,,,,,,,,,,,,,,,,,5eeacbcbb570dc1ab706417a,24,2022-02-12_14h52.43.638,lexical_decision_task_DD_L2,2021.2.3,Win32,59.28736586,,,,,,,,,,,,0.8683,1,,,,,,,,,,,,,,z,1,0.8683,,,,,,,,-0.003333259,-0.370833359,0,0,0,,0,52,52,111,1,HOSSE,C,old,z,./images/HOSSE.png,,,,,,,,,,,,,,,,,,,,,,,,,,,,,,,,,,,
,,,,,,,,,,,,,,,,,5eeacbcbb570dc1ab706417a,24,2022-02-12_14h52.43.638,lexical_decision_task_DD_L2,2021.2.3,Win32,59.28736586,,,,,,,,,,,,0.6784,1,,,,,,,,,,,,,,z,1,0.6784,,,,,,,,-0.003333259,-0.370833359,0,0,0,,0,53,53,114,1,RIKES,C,old,z,./images/RIKES.png,,,,,,,,,,,,,,,,,,,,,,,,,,,,,,,,,,,
,,,,,,,,,,,,,,,,,5eeacbcbb570dc1ab706417a,24,2022-02-12_14h52.43.638,lexical_decision_task_DD_L2,2021.2.3,Win32,59.28736586,,,,,,,,,,,,0.595,1,,,,,,,,,,,,,,z,1,0.595,,,,,,,,-0.003333259,-0.370833359,0,0,0,,0,54,54,147,1,ZOLES,C,old,z,./images/ZOLES.png,,,,,,,,,,,,,,,,,,,,,,,,,,,,,,,,,,,
,,,,,,,,,,,,,,,,,5eeacbcbb570dc1ab706417a,24,2022-02-12_14h52.43.638,lexical_decision_task_DD_L2,2021.2.3,Win32,59.28736586,,,,,,,,,,,,0.7413,1,,,,,,,,,,,,,,m,1,0.7413,,,,,,,,-0.003333259,-0.370833359,0,0,0,,0,55,55,60,1,TWINS,HB,old,m,./images/TWINSHB.png,,,,,,,,,,,,,,,,,,,,,,,,,,,,,,,,,,,
,,,,,,,,,,,,,,,,,5eeacbcbb570dc1ab706417a,24,2022-02-12_14h52.43.638,lexical_decision_task_DD_L2,2021.2.3,Win32,59.28736586,,,,,,,,,,,,0.7419,1,,,,,,,,,,,,,,m,1,0.7419,,,,,,,,-0.003333259,-0.370833359,0,0,0,,0,56,56,38,1,LADDER,C,old,m,./images/LADDER.png,,,,,,,,,,,,,,,,,,,,,,,,,,,,,,,,,,,
,,,,,,,,,,,,,,,,,5eeacbcbb570dc1ab706417a,24,2022-02-12_14h52.43.638,lexical_decision_task_DD_L2,2021.2.3,Win32,59.28736586,,,,,,,,,,,,0.7041,1,,,,,,,,,,,,,,m,1,0.7041,,,,,,,,-0.003333259,-0.370833359,0,0,0,,0,57,57,77,1,COUCH,C,old,m,./images/COUCH.png,,,,,,,,,,,,,,,,,,,,,,,,,,,,,,,,,,,
,,,,,,,,,,,,,,,,,5eeacbcbb570dc1ab706417a,24,2022-02-12_14h52.43.638,lexical_decision_task_DD_L2,2021.2.3,Win32,59.28736586,,,,,,,,,,,,0.886,1,,,,,,,,,,,,,,z,1,0.886,,,,,,,,-0.003333259,-0.370833359,0,0,0,,0,58,58,127,1,NINDY,HB,old,z,./images/NINDYHB.png,,,,,,,,,,,,,,,,,,,,,,,,,,,,,,,,,,,
,,,,,,,,,,,,,,,,,5eeacbcbb570dc1ab706417a,24,2022-02-12_14h52.43.638,lexical_decision_task_DD_L2,2021.2.3,Win32,59.28736586,,,,,,,,,,,,0.6529,1,,,,,,,,,,,,,,m,1,0.6529,,,,,,,,-0.003333259,-0.370833359,0,0,0,,0,59,59,47,1,BERRY,C,old,m,./images/BERRY.png,,,,,,,,,,,,,,,,,,,,,,,,,,,,,,,,,,,
,,,,,,,,,,,,,,,,,5eeacbcbb570dc1ab706417a,24,2022-02-12_14h52.43.638,lexical_decision_task_DD_L2,2021.2.3,Win32,59.28736586,,,,,,,,,,,,0.7059,1,,,,,,,,,,,,,,z,1,0.7059,,,,,,,,-0.003333259,-0.370833359,0,0,0,,0,60,60,129,1,PRANS,C,old,z,./images/PRANS.png,,,,,,,,,,,,,,,,,,,,,,,,,,,,,,,,,,,
,,,,,,,,,,,,,,,,,5eeacbcbb570dc1ab706417a,24,2022-02-12_14h52.43.638,lexical_decision_task_DD_L2,2021.2.3,Win32,59.28736586,,,,,,,,,,,,0.7442,1,,,,,,,,,,,,,,m,1,0.7442,,,,,,,,-0.003333259,-0.370833359,0,0,0,,0,61,61,12,1,SHORE,HB,old,m,./images/SHOREHB.png,,,,,,,,,,,,,,,,,,,,,,,,,,,,,,,,,,,
,,,,,,,,,,,,,,,,,5eeacbcbb570dc1ab706417a,24,2022-02-12_14h52.43.638,lexical_decision_task_DD_L2,2021.2.3,Win32,59.28736586,,,,,,,,,,,,0.7765,1,,,,,,,,,,,,,,m,1,0.7765,,,,,,,,-0.003333259,-0.370833359,0,0,0,,0,62,62,31,1,QUILL,LB,old,m,./images/QUILLLB.png,,,,,,,,,,,,,,,,,,,,,,,,,,,,,,,,,,,
,,,,,,,,,,,,,,,,,5eeacbcbb570dc1ab706417a,24,2022-02-12_14h52.43.638,lexical_decision_task_DD_L2,2021.2.3,Win32,59.28736586,,,,,,,,,,,,0.6183,1,,,,,,,,,,,,,,m,1,0.6183,,,,,,,,-0.003333259,-0.370833359,0,0,0,,0,63,63,52,1,BANNER,LB,old,m,./images/BANNERLB.png,,,,,,,,,,,,,,,,,,,,,,,,,,,,,,,,,,,
,,,,,,,,,,,,,,,,,5eeacbcbb570dc1ab706417a,24,2022-02-12_14h52.43.638,lexical_decision_task_DD_L2,2021.2.3,Win32,59.28736586,,,,,,,,,,,,0.669,0,,,,,,,,,,,,,,m,0,0.669,,,,,,,,-0.003333259,-0.370833359,0,0,0,,0,64,64,98,1,BAMPS,LB,old,z,./images/BAMPSLB.png,,,,,,,,,,,,,,,,,,,,,,,,,,,,,,,,,,,
,,,,,,,,,,,,,,,,,5eeacbcbb570dc1ab706417a,24,2022-02-12_14h52.43.638,lexical_decision_task_DD_L2,2021.2.3,Win32,59.28736586,,,,,,,,,,,,0.7023,0,,,,,,,,,,,,,,m,0,0.7023,,,,,,,,-0.003333259,-0.370833359,0,0,0,,0,65,65,128,1,GRIFT,LB,old,z,./images/GRIFTLB.png,,,,,,,,,,,,,,,,,,,,,,,,,,,,,,,,,,,
,,,,,,,,,,,,,,,,,5eeacbcbb570dc1ab706417a,24,2022-02-12_14h52.43.638,lexical_decision_task_DD_L2,2021.2.3,Win32,59.28736586,,,,,,,,,,,,1.0353,1,,,,,,,,,,,,,,m,1,1.0353,,,,,,,,-0.003333259,-0.370833359,0,0,0,,0,66,66,16,1,PENCE,LB,old,m,./images/PENCELB.png,,,,,,,,,,,,,,,,,,,,,,,,,,,,,,,,,,,
,,,,,,,,,,,,,,,,,5eeacbcbb570dc1ab706417a,24,2022-02-12_14h52.43.638,lexical_decision_task_DD_L2,2021.2.3,Win32,59.28736586,,,,,,,,,,,,0.585,1,,,,,,,,,,,,,,m,1,0.585,,,,,,,,-0.003333259,-0.370833359,0,0,0,,0,67,67,41,1,STRING,C,old,m,./images/STRING.png,,,,,,,,,,,,,,,,,,,,,,,,,,,,,,,,,,,
,,,,,,,,,,,,,,,,,5eeacbcbb570dc1ab706417a,24,2022-02-12_14h52.43.638,lexical_decision_task_DD_L2,2021.2.3,Win32,59.28736586,,,,,,,,,,,,0.5887,1,,,,,,,,,,,,,,m,1,0.5887,,,,,,,,-0.003333259,-0.370833359,0,0,0,,0,68,68,71,1,PIMPLE,C,old,m,./images/PIMPLE.png,,,,,,,,,,,,,,,,,,,,,,,,,,,,,,,,,,,
,,,,,,,,,,,,,,,,,5eeacbcbb570dc1ab706417a,24,2022-02-12_14h52.43.638,lexical_decision_task_DD_L2,2021.2.3,Win32,59.28736586,,,,,,,,,,,,0.6854,1,,,,,,,,,,,,,,z,1,0.6854,,,,,,,,-0.003333259,-0.370833359,0,0,0,,0,69,69,112,1,MYING,HB,old,z,./images/MYINGHB.png,,,,,,,,,,,,,,,,,,,,,,,,,,,,,,,,,,,
,,,,,,,,,,,,,,,,,5eeacbcbb570dc1ab706417a,24,2022-02-12_14h52.43.638,lexical_decision_task_DD_L2,2021.2.3,Win32,59.28736586,,,,,,,,,,,,0.5724,1,,,,,,,,,,,,,,m,1,0.5724,,,,,,,,-0.003333259,-0.370833359,0,0,0,,0,70,70,65,1,FARMER,C,old,m,./images/FARMER.png,,,,,,,,,,,,,,,,,,,,,,,,,,,,,,,,,,,
,,,,,,,,,,,,,,,,,5eeacbcbb570dc1ab706417a,24,2022-02-12_14h52.43.638,lexical_decision_task_DD_L2,2021.2.3,Win32,59.28736586,,,,,,,,,,,,0.7731,1,,,,,,,,,,,,,,z,1,0.7731,,,,,,,,-0.003333259,-0.370833359,0,0,0,,0,71,71,94,1,BLANS,HB,old,z,./images/BLANSHB.png,,,,,,,,,,,,,,,,,,,,,,,,,,,,,,,,,,,
,,,,,,,,,,,,,,,,,5eeacbcbb570dc1ab706417a,24,2022-02-12_14h52.43.638,lexical_decision_task_DD_L2,2021.2.3,Win32,59.28736586,,,,,,,,,,,,0.8014,1,,,,,,,,,,,,,,z,1,0.8014,,,,,,,,-0.003333259,-0.370833359,0,0,0,,0,72,72,131,1,NACES,LB,old,z,./images/NACESLB.png,,,,,,,,,,,,,,,,,,,,,,,,,,,,,,,,,,,
,,,,,,,,,,,,,,,,,5eeacbcbb570dc1ab706417a,24,2022-02-12_14h52.43.638,lexical_decision_task_DD_L2,2021.2.3,Win32,59.28736586,,,,,,,,,,,,0.7018,1,,,,,,,,,,,,,,m,1,0.7018,,,,,,,,-0.003333259,-0.370833359,0,0,0,,0,73,73,61,1,CANDLE,LB,old,m,./images/CANDLELB.png,,,,,,,,,,,,,,,,,,,,,,,,,,,,,,,,,,,
,,,,,,,,,,,,,,,,,5eeacbcbb570dc1ab706417a,24,2022-02-12_14h52.43.638,lexical_decision_task_DD_L2,2021.2.3,Win32,59.28736586,,,,,,,,,,,,0.709,1,,,,,,,,,,,,,,z,1,0.709,,,,,,,,-0.003333259,-0.370833359,0,0,0,,0,74,74,118,1,BAVEL,HB,old,z,./images/BAVELHB.png,,,,,,,,,,,,,,,,,,,,,,,,,,,,,,,,,,,
,,,,,,,,,,,,,,,,,5eeacbcbb570dc1ab706417a,24,2022-02-12_14h52.43.638,lexical_decision_task_DD_L2,2021.2.3,Win32,59.28736586,,,,,,,,,,,,0.744,1,,,,,,,,,,,,,,z,1,0.744,,,,,,,,-0.003333259,-0.370833359,0,0,0,,0,75,75,116,1,BALGY,LB,old,z,./images/BALGYLB.png,,,,,,,,,,,,,,,,,,,,,,,,,,,,,,,,,,,
,,,,,,,,,,,,,,,,,5eeacbcbb570dc1ab706417a,24,2022-02-12_14h52.43.638,lexical_decision_task_DD_L2,2021.2.3,Win32,59.28736586,,,,,,,,,,,,1.4248,1,,,,,,,,,,,,,,z,1,1.4248,,,,,,,,-0.003333259,-0.370833359,0,0,0,,0,76,76,139,1,BLEAR,HB,old,z,./images/BLEARHB.png,,,,,,,,,,,,,,,,,,,,,,,,,,,,,,,,,,,
,,,,,,,,,,,,,,,,,5eeacbcbb570dc1ab706417a,24,2022-02-12_14h52.43.638,lexical_decision_task_DD_L2,2021.2.3,Win32,59.28736586,,,,,,,,,,,,0.7569,1,,,,,,,,,,,,,,z,1,0.7569,,,,,,,,-0.003333259,-0.370833359,0,0,0,,0,77,77,145,1,LAMEL,HB,old,z,./images/LAMELHB.png,,,,,,,,,,,,,,,,,,,,,,,,,,,,,,,,,,,
,,,,,,,,,,,,,,,,,5eeacbcbb570dc1ab706417a,24,2022-02-12_14h52.43.638,lexical_decision_task_DD_L2,2021.2.3,Win32,59.28736586,,,,,,,,,,,,0.6746,1,,,,,,,,,,,,,,m,1,0.6746,,,,,,,,-0.003333259,-0.370833359,0,0,0,,0,78,78,67,1,SAILOR,LB,old,m,./images/SAILORLB.png,,,,,,,,,,,,,,,,,,,,,,,,,,,,,,,,,,,
,,,,,,,,,,,,,,,,,5eeacbcbb570dc1ab706417a,24,2022-02-12_14h52.43.638,lexical_decision_task_DD_L2,2021.2.3,Win32,59.28736586,,,,,,,,,,,,0.8449,1,,,,,,,,,,,,,,m,1,0.8449,,,,,,,,-0.003333259,-0.370833359,0,0,0,,0,79,79,55,1,MUFFIN,LB,old,m,./images/MUFFINLB.png,,,,,,,,,,,,,,,,,,,,,,,,,,,,,,,,,,,
,,,,,,,,,,,,,,,,,5eeacbcbb570dc1ab706417a,24,2022-02-12_14h52.43.638,lexical_decision_task_DD_L2,2021.2.3,Win32,59.28736586,,,,,,,,,,,,0.7516,1,,,,,,,,,,,,,,z,1,0.7516,,,,,,,,-0.003333259,-0.370833359,0,0,0,,0,80,80,161,1,BLAPS,LB,old,z,./images/BLAPSLB.png,,,,,,,,,,,,,,,,,,,,,,,,,,,,,,,,,,,
,,,,,,,,,,,,,,,,,5eeacbcbb570dc1ab706417a,24,2022-02-12_14h52.43.638,lexical_decision_task_DD_L2,2021.2.3,Win32,59.28736586,,,,,,,,,,,,0.7187,1,,,,,,,,,,,,,,m,1,0.7187,,,,,,,,-0.003333259,-0.370833359,0,0,0,,0,81,81,59,1,BURIAL,C,old,m,./images/BURIAL.png,,,,,,,,,,,,,,,,,,,,,,,,,,,,,,,,,,,
,,,,,,,,,,,,,,,,,5eeacbcbb570dc1ab706417a,24,2022-02-12_14h52.43.638,lexical_decision_task_DD_L2,2021.2.3,Win32,59.28736586,,,,,,,,,,,,1.0519,1,,,,,,,,,,,,,,m,1,1.0519,,,,,,,,-0.003333259,-0.370833359,0,0,0,,0,82,82,9,1,RHINO,HB,old,m,./images/RHINOHB.png,,,,,,,,,,,,,,,,,,,,,,,,,,,,,,,,,,,
,,,,,,,,,,,,,,,,,5eeacbcbb570dc1ab706417a,24,2022-02-12_14h52.43.638,lexical_decision_task_DD_L2,2021.2.3,Win32,59.28736586,,,,,,,,,,,,0.6115,1,,,,,,,,,,,,,,z,1,0.6115,,,,,,,,-0.003333259,-0.370833359,1,0,0,,0,83,83,132,1,SCIFF,C,old,z,./images/SCIFF.png,,break_done_button,,,,,,,,,,,,,,,,,,,,,,,,,,,,,,,,,
,,,,,,,,,,,,,,,,,5eeacbcbb570dc1ab706417a,24,2022-02-12_14h52.43.638,lexical_decision_task_DD_L2,2021.2.3,Win32,59.28736586,,,,,,,,,,,,1.0158,1,,,,,,,,,,,,,,z,1,1.0158,,,,,,,,-0.003333259,-0.370833359,0,0,0,,0,84,84,159,1,CUDDY,C,old,z,./images/CUDDY.png,,,,,,,,,,,,,,,,,,,,,,,,,,,,,,,,,,,
,,,,,,,,,,,,,,,,,5eeacbcbb570dc1ab706417a,24,2022-02-12_14h52.43.638,lexical_decision_task_DD_L2,2021.2.3,Win32,59.28736586,,,,,,,,,,,,0.6303,1,,,,,,,,,,,,,,m,1,0.6303,,,,,,,,-0.003333259,-0.370833359,0,0,0,,0,85,85,37,1,BIRTH,LB,old,m,./images/BIRTHLB.png,,,,,,,,,,,,,,,,,,,,,,,,,,,,,,,,,,,
,,,,,,,,,,,,,,,,,5eeacbcbb570dc1ab706417a,24,2022-02-12_14h52.43.638,lexical_decision_task_DD_L2,2021.2.3,Win32,59.28736586,,,,,,,,,,,,0.6955,1,,,,,,,,,,,,,,z,1,0.6955,,,,,,,,-0.003333259,-0.370833359,0,0,0,,0,86,86,134,1,TROSS,LB,old,z,./images/TROSSLB.png,,,,,,,,,,,,,,,,,,,,,,,,,,,,,,,,,,,
,,,,,,,,,,,,,,,,,5eeacbcbb570dc1ab706417a,24,2022-02-12_14h52.43.638,lexical_decision_task_DD_L2,2021.2.3,Win32,59.28736586,,,,,,,,,,,,0.6301,1,,,,,,,,,,,,,,z,1,0.6301,,,,,,,,-0.003333259,-0.370833359,0,0,0,,0,87,87,106,1,CLUMS,HB,old,z,./images/CLUMSHB.png,,,,,,,,,,,,,,,,,,,,,,,,,,,,,,,,,,,
,,,,,,,,,,,,,,,,,5eeacbcbb570dc1ab706417a,24,2022-02-12_14h52.43.638,lexical_decision_task_DD_L2,2021.2.3,Win32,59.28736586,,,,,,,,,,,,0.6791,1,,,,,,,,,,,,,,z,1,0.6791,,,,,,,,-0.003333259,-0.370833359,0,0,0,,0,88,88,126,1,GUELS,C,old,z,./images/GUELS.png,,,,,,,,,,,,,,,,,,,,,,,,,,,,,,,,,,,
,,,,,,,,,,,,,,,,,5eeacbcbb570dc1ab706417a,24,2022-02-12_14h52.43.638,lexical_decision_task_DD_L2,2021.2.3,Win32,59.28736586,,,,,,,,,,,,0.9418,1,,,,,,,,,,,,,,z,1,0.9418,,,,,,,,-0.003333259,-0.370833359,0,0,0,,0,89,89,124,1,TUNCH,HB,old,z,./images/TUNCHHB.png,,,,,,,,,,,,,,,,,,,,,,,,,,,,,,,,,,,
,,,,,,,,,,,,,,,,,5eeacbcbb570dc1ab706417a,24,2022-02-12_14h52.43.638,lexical_decision_task_DD_L2,2021.2.3,Win32,59.28736586,,,,,,,,,,,,0.9377,1,,,,,,,,,,,,,,m,1,0.9377,,,,,,,,-0.003333259,-0.370833359,0,0,0,,0,90,90,2,1,BEARD,C,old,m,./images/BEARD.png,,,,,,,,,,,,,,,,,,,,,,,,,,,,,,,,,,,
,,,,,,,,,,,,,,,,,5eeacbcbb570dc1ab706417a,24,2022-02-12_14h52.43.638,lexical_decision_task_DD_L2,2021.2.3,Win32,59.28736586,,,,,,,,,,,,0.7782,1,,,,,,,,,,,,,,z,1,0.7782,,,,,,,,-0.003333259,-0.370833359,0,0,0,,0,91,91,113,1,LINEW,LB,old,z,./images/LINEWLB.png,,,,,,,,,,,,,,,,,,,,,,,,,,,,,,,,,,,
,,,,,,,,,,,,,,,,,5eeacbcbb570dc1ab706417a,24,2022-02-12_14h52.43.638,lexical_decision_task_DD_L2,2021.2.3,Win32,59.28736586,,,,,,,,,,,,0.925,1,,,,,,,,,,,,,,m,1,0.925,,,,,,,,-0.003333259,-0.370833359,0,0,0,,0,92,92,30,1,STORM,HB,old,m,./images/STORMHB.png,,,,,,,,,,,,,,,,,,,,,,,,,,,,,,,,,,,
,,,,,,,,,,,,,,,,,5eeacbcbb570dc1ab706417a,24,2022-02-12_14h52.43.638,lexical_decision_task_DD_L2,2021.2.3,Win32,59.28736586,,,,,,,,,,,,0.8257,1,,,,,,,,,,,,,,m,1,0.8257,,,,,,,,-0.003333259,-0.370833359,0,0,0,,0,93,93,57,1,MOOSE,HB,old,m,./images/MOOSEHB.png,,,,,,,,,,,,,,,,,,,,,,,,,,,,,,,,,,,
,,,,,,,,,,,,,,,,,5eeacbcbb570dc1ab706417a,24,2022-02-12_14h52.43.638,lexical_decision_task_DD_L2,2021.2.3,Win32,59.28736586,,,,,,,,,,,,0.7982,1,,,,,,,,,,,,,,m,1,0.7982,,,,,,,,-0.003333259,-0.370833359,0,0,0,,0,94,94,21,1,KIDNEY,HB,old,m,./images/KIDNEYHB.png,,,,,,,,,,,,,,,,,,,,,,,,,,,,,,,,,,,
,,,,,,,,,,,,,,,,,5eeacbcbb570dc1ab706417a,24,2022-02-12_14h52.43.638,lexical_decision_task_DD_L2,2021.2.3,Win32,59.28736586,,,,,,,,,,,,1.593,1,,,,,,,,,,,,,,m,1,1.593,,,,,,,,-0.003333259,-0.370833359,0,0,0,,0,95,95,69,1,COOKER,HB,old,m,./images/COOKERHB.png,,,,,,,,,,,,,,,,,,,,,,,,,,,,,,,,,,,
,,,,,,,,,,,,,,,,,5eeacbcbb570dc1ab706417a,24,2022-02-12_14h52.43.638,lexical_decision_task_DD_L2,2021.2.3,Win32,59.28736586,,,,,,,,,,,,0.6146,1,,,,,,,,,,,,,,m,1,0.6146,,,,,,,,-0.003333259,-0.370833359,0,0,0,,0,96,96,32,1,BARREL,C,old,m,./images/BARREL.png,,,,,,,,,,,,,,,,,,,,,,,,,,,,,,,,,,,
,,,,,,,,,,,,,,,,,5eeacbcbb570dc1ab706417a,24,2022-02-12_14h52.43.638,lexical_decision_task_DD_L2,2021.2.3,Win32,59.28736586,,,,,,,,,,,,0.9437,1,,,,,,,,,,,,,,z,1,0.9437,,,,,,,,-0.003333259,-0.370833359,0,0,0,,0,97,97,167,1,ZONET,LB,old,z,./images/ZONETLB.png,,,,,,,,,,,,,,,,,,,,,,,,,,,,,,,,,,,
,,,,,,,,,,,,,,,,,5eeacbcbb570dc1ab706417a,24,2022-02-12_14h52.43.638,lexical_decision_task_DD_L2,2021.2.3,Win32,59.28736586,,,,,,,,,,,,0.7889,1,,,,,,,,,,,,,,z,1,0.7889,,,,,,,,-0.003333259,-0.370833359,0,0,0,,0,98,98,99,1,BACKY,C,old,z,./images/BACKY.png,,,,,,,,,,,,,,,,,,,,,,,,,,,,,,,,,,,
,,,,,,,,,,,,,,,,,5eeacbcbb570dc1ab706417a,24,2022-02-12_14h52.43.638,lexical_decision_task_DD_L2,2021.2.3,Win32,59.28736586,,,,,,,,,,,,0.6362,1,,,,,,,,,,,,,,m,1,0.6362,,,,,,,,-0.003333259,-0.370833359,0,0,0,,0,99,99,4,1,MUSCLE,LB,old,m,./images/MUSCLELB.png,,,,,,,,,,,,,,,,,,,,,,,,,,,,,,,,,,,
,,,,,,,,,,,,,,,,,5eeacbcbb570dc1ab706417a,24,2022-02-12_14h52.43.638,lexical_decision_task_DD_L2,2021.2.3,Win32,59.28736586,,,,,,,,,,,,0.6802,1,,,,,,,,,,,,,,z,1,0.6802,,,,,,,,-0.003333259,-0.370833359,0,0,0,,0,100,100,155,1,CANGY,LB,old,z,./images/CANGYLB.png,,,,,,,,,,,,,,,,,,,,,,,,,,,,,,,,,,,
,,,,,,,,,,,,,,,,,5eeacbcbb570dc1ab706417a,24,2022-02-12_14h52.43.638,lexical_decision_task_DD_L2,2021.2.3,Win32,59.28736586,,,,,,,,,,,,1.1257,1,,,,,,,,,,,,,,z,1,1.1257,,,,,,,,-0.003333259,-0.370833359,0,0,0,,0,101,101,158,1,EGECT,LB,old,z,./images/EGECTLB.png,,,,,,,,,,,,,,,,,,,,,,,,,,,,,,,,,,,
,,,,,,,,,,,,,,,,,5eeacbcbb570dc1ab706417a,24,2022-02-12_14h52.43.638,lexical_decision_task_DD_L2,2021.2.3,Win32,59.28736586,,,,,,,,,,,,0.7475,1,,,,,,,,,,,,,,z,1,0.7475,,,,,,,,-0.003333259,-0.370833359,0,0,0,,0,102,102,156,1,HIXES,C,old,z,./images/HIXES.png,,,,,,,,,,,,,,,,,,,,,,,,,,,,,,,,,,,
,,,,,,,,,,,,,,,,,5eeacbcbb570dc1ab706417a,24,2022-02-12_14h52.43.638,lexical_decision_task_DD_L2,2021.2.3,Win32,59.28736586,,,,,,,,,,,,0.7556,1,,,,,,,,,,,,,,z,1,0.7556,,,,,,,,-0.003333259,-0.370833359,0,0,0,,0,103,103,93,1,SMONE,C,old,z,./images/SMONE.png,,,,,,,,,,,,,,,,,,,,,,,,,,,,,,,,,,,
,,,,,,,,,,,,,,,,,5eeacbcbb570dc1ab706417a,24,2022-02-12_14h52.43.638,lexical_decision_task_DD_L2,2021.2.3,Win32,59.28736586,,,,,,,,,,,,0.8873,1,,,,,,,,,,,,,,z,1,0.8873,,,,,,,,-0.003333259,-0.370833359,0,0,0,,0,104,104,146,1,MOOST,LB,old,z,./images/MOOSTLB.png,,,,,,,,,,,,,,,,,,,,,,,,,,,,,,,,,,,
,,,,,,,,,,,,,,,,,5eeacbcbb570dc1ab706417a,24,2022-02-12_14h52.43.638,lexical_decision_task_DD_L2,2021.2.3,Win32,59.28736586,,,,,,,,,,,,0.7063,1,,,,,,,,,,,,,,m,1,0.7063,,,,,,,,-0.003333259,-0.370833359,0,0,0,,0,105,105,20,1,CRADLE,C,old,m,./images/CRADLE.png,,,,,,,,,,,,,,,,,,,,,,,,,,,,,,,,,,,
,,,,,,,,,,,,,,,,,5eeacbcbb570dc1ab706417a,24,2022-02-12_14h52.43.638,lexical_decision_task_DD_L2,2021.2.3,Win32,59.28736586,,,,,,,,,,,,0.646,1,,,,,,,,,,,,,,m,1,0.646,,,,,,,,-0.003333259,-0.370833359,0,0,0,,0,106,106,81,1,POODLE,HB,old,m,./images/POODLEHB.png,,,,,,,,,,,,,,,,,,,,,,,,,,,,,,,,,,,
,,,,,,,,,,,,,,,,,5eeacbcbb570dc1ab706417a,24,2022-02-12_14h52.43.638,lexical_decision_task_DD_L2,2021.2.3,Win32,59.28736586,,,,,,,,,,,,0.6773,1,,,,,,,,,,,,,,m,1,0.6773,,,,,,,,-0.003333259,-0.370833359,0,0,0,,0,107,107,63,1,MIRROR,HB,old,m,./images/MIRRORHB.png,,,,,,,,,,,,,,,,,,,,,,,,,,,,,,,,,,,
,,,,,,,,,,,,,,,,,5eeacbcbb570dc1ab706417a,24,2022-02-12_14h52.43.638,lexical_decision_task_DD_L2,2021.2.3,Win32,59.28736586,,,,,,,,,,,,0.6365,1,,,,,,,,,,,,,,m,1,0.6365,,,,,,,,-0.003333259,-0.370833359,0,0,0,,0,108,108,44,1,LIZARD,C,old,m,./images/LIZARD.png,,,,,,,,,,,,,,,,,,,,,,,,,,,,,,,,,,,
,,,,,,,,,,,,,,,,,5eeacbcbb570dc1ab706417a,24,2022-02-12_14h52.43.638,lexical_decision_task_DD_L2,2021.2.3,Win32,59.28736586,,,,,,,,,,,,2.4036,1,,,,,,,,,,,,,,z,1,2.4036,,,,,,,,-0.003333259,-0.370833359,0,0,0,,0,109,109,166,1,SHORY,HB,old,z,./images/SHORYHB.png,,,,,,,,,,,,,,,,,,,,,,,,,,,,,,,,,,,
,,,,,,,,,,,,,,,,,5eeacbcbb570dc1ab706417a,24,2022-02-12_14h52.43.638,lexical_decision_task_DD_L2,2021.2.3,Win32,59.28736586,,,,,,,,,,,,0.5692,1,,,,,,,,,,,,,,m,1,0.5692,,,,,,,,-0.003333259,-0.370833359,0,0,0,,0,110,110,13,1,MOTOR,LB,old,m,./images/MOTORLB.png,,,,,,,,,,,,,,,,,,,,,,,,,,,,,,,,,,,
,,,,,,,,,,,,,,,,,5eeacbcbb570dc1ab706417a,24,2022-02-12_14h52.43.638,lexical_decision_task_DD_L2,2021.2.3,Win32,59.28736586,,,,,,,,,,,,0.7466,1,,,,,,,,,,,,,,m,1,0.7466,,,,,,,,-0.003333259,-0.370833359,0,0,0,,0,111,111,43,1,MOSQUE,LB,old,m,./images/MOSQUELB.png,,,,,,,,,,,,,,,,,,,,,,,,,,,,,,,,,,,
,,,,,,,,,,,,,,,,,5eeacbcbb570dc1ab706417a,24,2022-02-12_14h52.43.638,lexical_decision_task_DD_L2,2021.2.3,Win32,59.28736586,,,,,,,,,,,,0.7586,1,,,,,,,,,,,,,,m,1,0.7586,,,,,,,,-0.003333259,-0.370833359,0,0,0,,0,112,112,3,1,FINGER,HB,old,m,./images/FINGERHB.png,,,,,,,,,,,,,,,,,,,,,,,,,,,,,,,,,,,
,,,,,,,,,,,,,,,,,5eeacbcbb570dc1ab706417a,24,2022-02-12_14h52.43.638,lexical_decision_task_DD_L2,2021.2.3,Win32,59.28736586,,,,,,,,,,,,1.9503,1,,,,,,,,,,,,,,z,1,1.9503,,,,,,,,-0.003333259,-0.370833359,0,0,0,,0,113,113,133,1,POWDY,HB,old,z,./images/POWDYHB.png,,,,,,,,,,,,,,,,,,,,,,,,,,,,,,,,,,,
,,,,,,,,,,,,,,,,,5eeacbcbb570dc1ab706417a,24,2022-02-12_14h52.43.638,lexical_decision_task_DD_L2,2021.2.3,Win32,59.28736586,,,,,,,,,,,,0.7921,1,,,,,,,,,,,,,,m,1,0.7921,,,,,,,,-0.003333259,-0.370833359,0,0,0,,0,114,114,5,1,PASTA,C,old,m,./images/PASTA.png,,,,,,,,,,,,,,,,,,,,,,,,,,,,,,,,,,,
,,,,,,,,,,,,,,,,,5eeacbcbb570dc1ab706417a,24,2022-02-12_14h52.43.638,lexical_decision_task_DD_L2,2021.2.3,Win32,59.28736586,,,,,,,,,,,,2.1743,0,,,,,,,,,,,,,,z,0,2.1743,,,,,,,,-0.003333259,-0.370833359,0,0,0,,0,115,115,33,1,MAGGOT,HB,old,m,./images/MAGGOTHB.png,,,,,,,,,,,,,,,,,,,,,,,,,,,,,,,,,,,
,,,,,,,,,,,,,,,,,5eeacbcbb570dc1ab706417a,24,2022-02-12_14h52.43.638,lexical_decision_task_DD_L2,2021.2.3,Win32,59.28736586,,,,,,,,,,,,0.681,1,,,,,,,,,,,,,,z,1,0.681,,,,,,,,-0.003333259,-0.370833359,0,0,0,,0,116,116,84,1,HAXES,C,old,z,./images/HAXES.png,,,,,,,,,,,,,,,,,,,,,,,,,,,,,,,,,,,
,,,,,,,,,,,,,,,,,5eeacbcbb570dc1ab706417a,24,2022-02-12_14h52.43.638,lexical_decision_task_DD_L2,2021.2.3,Win32,59.28736586,,,,,,,,,,,,0.737,1,,,,,,,,,,,,,,z,1,0.737,,,,,,,,-0.003333259,-0.370833359,0,0,0,,0,117,117,101,1,GLEET,LB,old,z,./images/GLEETLB.png,,,,,,,,,,,,,,,,,,,,,,,,,,,,,,,,,,,
,,,,,,,,,,,,,,,,,5eeacbcbb570dc1ab706417a,24,2022-02-12_14h52.43.638,lexical_decision_task_DD_L2,2021.2.3,Win32,59.28736586,,,,,,,,,,,,0.7697,1,,,,,,,,,,,,,,m,1,0.7697,,,,,,,,-0.003333259,-0.370833359,0,0,0,,0,118,118,6,1,SQUARE,HB,old,m,./images/SQUAREHB.png,,,,,,,,,,,,,,,,,,,,,,,,,,,,,,,,,,,
,,,,,,,,,,,,,,,,,5eeacbcbb570dc1ab706417a,24,2022-02-12_14h52.43.638,lexical_decision_task_DD_L2,2021.2.3,Win32,59.28736586,,,,,,,,,,,,0.7747,1,,,,,,,,,,,,,,z,1,0.7747,,,,,,,,-0.003333259,-0.370833359,0,0,0,,0,119,119,125,1,MOOKY,LB,old,z,./images/MOOKYLB.png,,,,,,,,,,,,,,,,,,,,,,,,,,,,,,,,,,,
,,,,,,,,,,,,,,,,,5eeacbcbb570dc1ab706417a,24,2022-02-12_14h52.43.638,lexical_decision_task_DD_L2,2021.2.3,Win32,59.28736586,,,,,,,,,,,,1.6062,1,,,,,,,,,,,,,,z,1,1.6062,,,,,,,,-0.003333259,-0.370833359,0,0,0,,0,120,120,141,1,PLEET,C,old,z,./images/PLEET.png,,,,,,,,,,,,,,,,,,,,,,,,,,,,,,,,,,,
,,,,,,,,,,,,,,,,,5eeacbcbb570dc1ab706417a,24,2022-02-12_14h52.43.638,lexical_decision_task_DD_L2,2021.2.3,Win32,59.28736586,,,,,,,,,,,,0.6236,1,,,,,,,,,,,,,,z,1,0.6236,,,,,,,,-0.003333259,-0.370833359,0,0,0,,0,121,121,120,1,RINED,C,old,z,./images/RINED.png,,,,,,,,,,,,,,,,,,,,,,,,,,,,,,,,,,,
,,,,,,,,,,,,,,,,,5eeacbcbb570dc1ab706417a,24,2022-02-12_14h52.43.638,lexical_decision_task_DD_L2,2021.2.3,Win32,59.28736586,,,,,,,,,,,,0.6095,1,,,,,,,,,,,,,,m,1,0.6095,,,,,,,,-0.003333259,-0.370833359,0,0,0,,0,122,122,28,1,FALCON,LB,old,m,./images/FALCONLB.png,,,,,,,,,,,,,,,,,,,,,,,,,,,,,,,,,,,
,,,,,,,,,,,,,,,,,5eeacbcbb570dc1ab706417a,24,2022-02-12_14h52.43.638,lexical_decision_task_DD_L2,2021.2.3,Win32,59.28736586,,,,,,,,,,,,0.5606,1,,,,,,,,,,,,,,m,1,0.5606,,,,,,,,-0.003333259,-0.370833359,0,0,0,,0,123,123,76,1,INFANT,LB,old,m,./images/INFANTLB.png,,,,,,,,,,,,,,,,,,,,,,,,,,,,,,,,,,,
,,,,,,,,,,,,,,,,,5eeacbcbb570dc1ab706417a,24,2022-02-12_14h52.43.638,lexical_decision_task_DD_L2,2021.2.3,Win32,59.28736586,,,,,,,,,,,,0.6658,1,,,,,,,,,,,,,,m,1,0.6658,,,,,,,,-0.003333259,-0.370833359,0,0,0,,0,124,124,14,1,PICKLE,C,old,m,./images/PICKLE.png,,,,,,,,,,,,,,,,,,,,,,,,,,,,,,,,,,,
,,,,,,,,,,,,,,,,,5eeacbcbb570dc1ab706417a,24,2022-02-12_14h52.43.638,lexical_decision_task_DD_L2,2021.2.3,Win32,59.28736586,,,,,,,,,,,,0.629,1,,,,,,,,,,,,,,z,1,0.629,,,,,,,,-0.003333259,-0.370833359,0,0,0,space,0,125,125,117,1,STEEG,C,old,z,./images/STEEG.png,13.653,,,,,,,,,,,,,,,,,,,,,,,,,,,,,,,,,,
,,,,,,,,,,,,,,,,,5eeacbcbb570dc1ab706417a,24,2022-02-12_14h52.43.638,lexical_decision_task_DD_L2,2021.2.3,Win32,59.28736586,,,,,,,,,,,,1.0525,1,,,,,,,,,,,,,,z,1,1.0525,,,,,,,,-0.003333259,-0.370833359,0,0,0,,0,126,126,144,1,NAIRY,C,old,z,./images/NAIRY.png,,,,,,,,,,,,,,,,,,,,,,,,,,,,,,,,,,,
,,,,,,,,,,,,,,,,,5eeacbcbb570dc1ab706417a,24,2022-02-12_14h52.43.638,lexical_decision_task_DD_L2,2021.2.3,Win32,59.28736586,,,,,,,,,,,,0.8352,1,,,,,,,,,,,,,,m,1,0.8352,,,,,,,,-0.003333259,-0.370833359,0,0,0,,0,127,127,39,1,SHELF,HB,old,m,./images/SHELFHB.png,,,,,,,,,,,,,,,,,,,,,,,,,,,,,,,,,,,
,,,,,,,,,,,,,,,,,5eeacbcbb570dc1ab706417a,24,2022-02-12_14h52.43.638,lexical_decision_task_DD_L2,2021.2.3,Win32,59.28736586,,,,,,,,,,,,0.5529,1,,,,,,,,,,,,,,z,1,0.5529,,,,,,,,-0.003333259,-0.370833359,0,0,0,,0,128,128,119,1,PAFER,LB,old,z,./images/PAFERLB.png,,,,,,,,,,,,,,,,,,,,,,,,,,,,,,,,,,,
,,,,,,,,,,,,,,,,,5eeacbcbb570dc1ab706417a,24,2022-02-12_14h52.43.638,lexical_decision_task_DD_L2,2021.2.3,Win32,59.28736586,,,,,,,,,,,,0.5405,1,,,,,,,,,,,,,,m,1,0.5405,,,,,,,,-0.003333259,-0.370833359,0,0,0,,0,129,129,7,1,PAINT,LB,old,m,./images/PAINTLB.png,,,,,,,,,,,,,,,,,,,,,,,,,,,,,,,,,,,
,,,,,,,,,,,,,,,,,5eeacbcbb570dc1ab706417a,24,2022-02-12_14h52.43.638,lexical_decision_task_DD_L2,2021.2.3,Win32,59.28736586,,,,,,,,,,,,0.8961,1,,,,,,,,,,,,,,z,1,0.8961,,,,,,,,-0.003333259,-0.370833359,0,0,0,,0,130,130,102,1,DULLE,C,old,z,./images/DULLE.png,,,,,,,,,,,,,,,,,,,,,,,,,,,,,,,,,,,
,,,,,,,,,,,,,,,,,5eeacbcbb570dc1ab706417a,24,2022-02-12_14h52.43.638,lexical_decision_task_DD_L2,2021.2.3,Win32,59.28736586,,,,,,,,,,,,0.7914,0,,,,,,,,,,,,,,m,0,0.7914,,,,,,,,-0.003333259,-0.370833359,0,0,0,,0,131,131,123,1,SEDGE,C,old,z,./images/SEDGE.png,,,,,,,,,,,,,,,,,,,,,,,,,,,,,,,,,,,
,,,,,,,,,,,,,,,,,5eeacbcbb570dc1ab706417a,24,2022-02-12_14h52.43.638,lexical_decision_task_DD_L2,2021.2.3,Win32,59.28736586,,,,,,,,,,,,0.7694,1,,,,,,,,,,,,,,m,1,0.7694,,,,,,,,-0.003333259,-0.370833359,0,0,0,,0,132,132,17,1,SKIING,C,old,m,./images/SKIING.png,,,,,,,,,,,,,,,,,,,,,,,,,,,,,,,,,,,
,,,,,,,,,,,,,,,,,5eeacbcbb570dc1ab706417a,24,2022-02-12_14h52.43.638,lexical_decision_task_DD_L2,2021.2.3,Win32,59.28736586,,,,,,,,,,,,0.8157,1,,,,,,,,,,,,,,m,1,0.8157,,,,,,,,-0.003333259,-0.370833359,0,0,0,,0,133,133,34,1,CANYON,LB,old,m,./images/CANYONLB.png,,,,,,,,,,,,,,,,,,,,,,,,,,,,,,,,,,,
,,,,,,,,,,,,,,,,,5eeacbcbb570dc1ab706417a,24,2022-02-12_14h52.43.638,lexical_decision_task_DD_L2,2021.2.3,Win32,59.28736586,,,,,,,,,,,,0.8852,1,,,,,,,,,,,,,,z,1,0.8852,,,,,,,,-0.003333259,-0.370833359,0,0,0,,0,134,134,157,1,INLER,HB,old,z,./images/INLERHB.png,,,,,,,,,,,,,,,,,,,,,,,,,,,,,,,,,,,
,,,,,,,,,,,,,,,,,5eeacbcbb570dc1ab706417a,24,2022-02-12_14h52.43.638,lexical_decision_task_DD_L2,2021.2.3,Win32,59.28736586,,,,,,,,,,,,0.6536,1,,,,,,,,,,,,,,m,1,0.6536,,,,,,,,-0.003333259,-0.370833359,0,0,0,,0,135,135,23,1,WALRUS,C,old,m,./images/WALRUS.png,,,,,,,,,,,,,,,,,,,,,,,,,,,,,,,,,,,
,,,,,,,,,,,,,,,,,5eeacbcbb570dc1ab706417a,24,2022-02-12_14h52.43.638,lexical_decision_task_DD_L2,2021.2.3,Win32,59.28736586,,,,,,,,,,,,0.9276,1,,,,,,,,,,,,,,z,1,0.9276,,,,,,,,-0.003333259,-0.370833359,0,0,0,,0,136,136,164,1,SGREW,LB,old,z,./images/SGREWLB.png,,,,,,,,,,,,,,,,,,,,,,,,,,,,,,,,,,,
,,,,,,,,,,,,,,,,,5eeacbcbb570dc1ab706417a,24,2022-02-12_14h52.43.638,lexical_decision_task_DD_L2,2021.2.3,Win32,59.28736586,,,,,,,,,,,,0.6872,1,,,,,,,,,,,,,,z,1,0.6872,,,,,,,,-0.003333259,-0.370833359,0,0,0,,0,137,137,110,1,CRUNK,LB,old,z,./images/CRUNKLB.png,,,,,,,,,,,,,,,,,,,,,,,,,,,,,,,,,,,
,,,,,,,,,,,,,,,,,5eeacbcbb570dc1ab706417a,24,2022-02-12_14h52.43.638,lexical_decision_task_DD_L2,2021.2.3,Win32,59.28736586,,,,,,,,,,,,1.0433,1,,,,,,,,,,,,,,z,1,1.0433,,,,,,,,-0.003333259,-0.370833359,0,0,0,,0,138,138,154,1,THINT,HB,old,z,./images/THINTHB.png,,,,,,,,,,,,,,,,,,,,,,,,,,,,,,,,,,,
,,,,,,,,,,,,,,,,,5eeacbcbb570dc1ab706417a,24,2022-02-12_14h52.43.638,lexical_decision_task_DD_L2,2021.2.3,Win32,59.28736586,,,,,,,,,,,,0.703,1,,,,,,,,,,,,,,z,1,0.703,,,,,,,,-0.003333259,-0.370833359,0,0,0,,0,139,139,105,1,MOKER,C,old,z,./images/MOKER.png,,,,,,,,,,,,,,,,,,,,,,,,,,,,,,,,,,,
,,,,,,,,,,,,,,,,,5eeacbcbb570dc1ab706417a,24,2022-02-12_14h52.43.638,lexical_decision_task_DD_L2,2021.2.3,Win32,59.28736586,,,,,,,,,,,,0.5018,1,,,,,,,,,,,,,,z,1,0.5018,,,,,,,,-0.003333259,-0.370833359,0,0,0,,0,140,140,121,1,CEERS,HB,old,z,./images/CEERSHB.png,,,,,,,,,,,,,,,,,,,,,,,,,,,,,,,,,,,
,,,,,,,,,,,,,,,,,5eeacbcbb570dc1ab706417a,24,2022-02-12_14h52.43.638,lexical_decision_task_DD_L2,2021.2.3,Win32,59.28736586,,,,,,,,,,,,0.685,1,,,,,,,,,,,,,,m,1,0.685,,,,,,,,-0.003333259,-0.370833359,0,0,0,,0,141,141,24,1,SCREW,HB,old,m,./images/SCREWHB.png,,,,,,,,,,,,,,,,,,,,,,,,,,,,,,,,,,,
,,,,,,,,,,,,,,,,,5eeacbcbb570dc1ab706417a,24,2022-02-12_14h52.43.638,lexical_decision_task_DD_L2,2021.2.3,Win32,59.28736586,,,,,,,,,,,,0.8182,1,,,,,,,,,,,,,,z,1,0.8182,,,,,,,,-0.003333259,-0.370833359,0,0,0,,0,142,142,148,1,JOMS,HB,old,z,./images/JOMSHB.png,,,,,,,,,,,,,,,,,,,,,,,,,,,,,,,,,,,
,,,,,,,,,,,,,,,,,5eeacbcbb570dc1ab706417a,24,2022-02-12_14h52.43.638,lexical_decision_task_DD_L2,2021.2.3,Win32,59.28736586,,,,,,,,,,,,0.6258,1,,,,,,,,,,,,,,m,1,0.6258,,,,,,,,-0.003333259,-0.370833359,0,0,0,,0,143,143,10,1,BELLY,LB,old,m,./images/BELLYLB.png,,,,,,,,,,,,,,,,,,,,,,,,,,,,,,,,,,,
,,,,,,,,,,,,,,,,,5eeacbcbb570dc1ab706417a,24,2022-02-12_14h52.43.638,lexical_decision_task_DD_L2,2021.2.3,Win32,59.28736586,,,,,,,,,,,,0.4937,0,,,,,,,,,,,,,,z,0,0.4937,,,,,,,,-0.003333259,-0.370833359,0,0,0,,0,144,144,35,1,PEACH,C,old,m,./images/PEACH.png,,,,,,,,,,,,,,,,,,,,,,,,,,,,,,,,,,,
,,,,,,,,,,,,,,,,,5eeacbcbb570dc1ab706417a,24,2022-02-12_14h52.43.638,lexical_decision_task_DD_L2,2021.2.3,Win32,59.28736586,,,,,,,,,,,,0.9347,1,,,,,,,,,,,,,,m,1,0.9347,,,,,,,,-0.003333259,-0.370833359,0,0,0,,0,145,145,15,1,GREASE,HB,old,m,./images/GREASEHB.png,,,,,,,,,,,,,,,,,,,,,,,,,,,,,,,,,,,
,,,,,,,,,,,,,,,,,5eeacbcbb570dc1ab706417a,24,2022-02-12_14h52.43.638,lexical_decision_task_DD_L2,2021.2.3,Win32,59.28736586,,,,,,,,,,,,1.0689,1,,,,,,,,,,,,,,m,1,1.0689,,,,,,,,-0.003333259,-0.370833359,0,0,0,,0,146,146,46,1,PEARL,LB,old,m,./images/PEARLLB.png,,,,,,,,,,,,,,,,,,,,,,,,,,,,,,,,,,,
,,,,,,,,,,,,,,,,,5eeacbcbb570dc1ab706417a,24,2022-02-12_14h52.43.638,lexical_decision_task_DD_L2,2021.2.3,Win32,59.28736586,,,,,,,,,,,,0.7896,1,,,,,,,,,,,,,,z,1,0.7896,,,,,,,,-0.003333259,-0.370833359,0,0,0,,0,147,147,104,1,GITTY,LB,old,z,./images/GITTYLB.png,,,,,,,,,,,,,,,,,,,,,,,,,,,,,,,,,,,
,,,,,,,,,,,,,,,,,5eeacbcbb570dc1ab706417a,24,2022-02-12_14h52.43.638,lexical_decision_task_DD_L2,2021.2.3,Win32,59.28736586,,,,,,,,,,,,0.8458,1,,,,,,,,,,,,,,m,1,0.8458,,,,,,,,-0.003333259,-0.370833359,0,0,0,,0,148,148,1,1,PLANK,LB,old,m,./images/PLANKLB.png,,,,,,,,,,,,,,,,,,,,,,,,,,,,,,,,,,,
,,,,,,,,,,,,,,,,,5eeacbcbb570dc1ab706417a,24,2022-02-12_14h52.43.638,lexical_decision_task_DD_L2,2021.2.3,Win32,59.28736586,,,,,,,,,,,,1.17,1,,,,,,,,,,,,,,m,1,1.17,,,,,,,,-0.003333259,-0.370833359,0,0,0,,0,149,149,78,1,LITTER,HB,old,m,./images/LITTERHB.png,,,,,,,,,,,,,,,,,,,,,,,,,,,,,,,,,,,
,,,,,,,,,,,,,,,,,5eeacbcbb570dc1ab706417a,24,2022-02-12_14h52.43.638,lexical_decision_task_DD_L2,2021.2.3,Win32,59.28736586,,,,,,,,,,,,0.702,1,,,,,,,,,,,,,,z,1,0.702,,,,,,,,-0.003333259,-0.370833359,0,0,0,,0,150,150,89,1,DRIEK,LB,old,z,./images/DRIEKLB.png,,,,,,,,,,,,,,,,,,,,,,,,,,,,,,,,,,,
,,,,,,,,,,,,,,,,,5eeacbcbb570dc1ab706417a,24,2022-02-12_14h52.43.638,lexical_decision_task_DD_L2,2021.2.3,Win32,59.28736586,,,,,,,,,,,,0.6188,1,,,,,,,,,,,,,,m,1,0.6188,,,,,,,,-0.003333259,-0.370833359,0,0,0,,0,151,151,51,1,ONION,HB,old,m,./images/ONIONHB.png,,,,,,,,,,,,,,,,,,,,,,,,,,,,,,,,,,,
,,,,,,,,,,,,,,,,,5eeacbcbb570dc1ab706417a,24,2022-02-12_14h52.43.638,lexical_decision_task_DD_L2,2021.2.3,Win32,59.28736586,,,,,,,,,,,,0.8511,1,,,,,,,,,,,,,,m,1,0.8511,,,,,,,,-0.003333259,-0.370833359,0,0,0,,0,152,152,19,1,DOUGH,LB,old,m,./images/DOUGHLB.png,,,,,,,,,,,,,,,,,,,,,,,,,,,,,,,,,,,
,,,,,,,,,,,,,,,,,5eeacbcbb570dc1ab706417a,24,2022-02-12_14h52.43.638,lexical_decision_task_DD_L2,2021.2.3,Win32,59.28736586,,,,,,,,,,,,0.8688,1,,,,,,,,,,,,,,z,1,0.8688,,,,,,,,-0.003333259,-0.370833359,0,0,0,,0,153,153,115,1,MAWNS,HB,old,z,./images/MAWNSHB.png,,,,,,,,,,,,,,,,,,,,,,,,,,,,,,,,,,,
,,,,,,,,,,,,,,,,,5eeacbcbb570dc1ab706417a,24,2022-02-12_14h52.43.638,lexical_decision_task_DD_L2,2021.2.3,Win32,59.28736586,,,,,,,,,,,,0.5888,1,,,,,,,,,,,,,,m,1,0.5888,,,,,,,,-0.003333259,-0.370833359,0,0,0,,0,154,154,68,1,TORCH,C,old,m,./images/TORCH.png,,,,,,,,,,,,,,,,,,,,,,,,,,,,,,,,,,,
,,,,,,,,,,,,,,,,,5eeacbcbb570dc1ab706417a,24,2022-02-12_14h52.43.638,lexical_decision_task_DD_L2,2021.2.3,Win32,59.28736586,,,,,,,,,,,,0.7785,1,,,,,,,,,,,,,,m,1,0.7785,,,,,,,,-0.003333259,-0.370833359,0,0,0,,0,155,155,75,1,GRAIN,HB,old,m,./images/GRAINHB.png,,,,,,,,,,,,,,,,,,,,,,,,,,,,,,,,,,,
,,,,,,,,,,,,,,,,,5eeacbcbb570dc1ab706417a,24,2022-02-12_14h52.43.638,lexical_decision_task_DD_L2,2021.2.3,Win32,59.28736586,,,,,,,,,,,,0.8192,1,,,,,,,,,,,,,,z,1,0.8192,,,,,,,,-0.003333259,-0.370833359,0,0,0,,0,156,156,95,1,HANTY,LB,old,z,./images/HANTYLB.png,,,,,,,,,,,,,,,,,,,,,,,,,,,,,,,,,,,
,,,,,,,,,,,,,,,,,5eeacbcbb570dc1ab706417a,24,2022-02-12_14h52.43.638,lexical_decision_task_DD_L2,2021.2.3,Win32,59.28736586,,,,,,,,,,,,0.6849,1,,,,,,,,,,,,,,m,1,0.6849,,,,,,,,-0.003333259,-0.370833359,0,0,0,,0,157,157,53,1,CARPET,C,old,m,./images/CARPET.png,,,,,,,,,,,,,,,,,,,,,,,,,,,,,,,,,,,
,,,,,,,,,,,,,,,,,5eeacbcbb570dc1ab706417a,24,2022-02-12_14h52.43.638,lexical_decision_task_DD_L2,2021.2.3,Win32,59.28736586,,,,,,,,,,,,1.2425,1,,,,,,,,,,,,,,z,1,1.2425,,,,,,,,-0.003333259,-0.370833359,0,0,0,,0,158,158,109,1,BURGE,HB,old,z,./images/BURGEHB.png,,,,,,,,,,,,,,,,,,,,,,,,,,,,,,,,,,,
,,,,,,,,,,,,,,,,,5eeacbcbb570dc1ab706417a,24,2022-02-12_14h52.43.638,lexical_decision_task_DD_L2,2021.2.3,Win32,59.28736586,,,,,,,,,,,,0.7514,1,,,,,,,,,,,,,,z,1,0.7514,,,,,,,,-0.003333259,-0.370833359,0,0,0,,0,159,159,92,1,PAIMS,LB,old,z,./images/PAIMSLB.png,,,,,,,,,,,,,,,,,,,,,,,,,,,,,,,,,,,
,,,,,,,,,,,,,,,,,5eeacbcbb570dc1ab706417a,24,2022-02-12_14h52.43.638,lexical_decision_task_DD_L2,2021.2.3,Win32,59.28736586,,,,,,,,,,,,0.5851,1,,,,,,,,,,,,,,m,1,0.5851,,,,,,,,-0.003333259,-0.370833359,0,0,0,,0,160,160,70,1,URINE,LB,old,m,./images/URINELB.png,,,,,,,,,,,,,,,,,,,,,,,,,,,,,,,,,,,
,,,,,,,,,,,,,,,,,5eeacbcbb570dc1ab706417a,24,2022-02-12_14h52.43.638,lexical_decision_task_DD_L2,2021.2.3,Win32,59.28736586,,,,,,,,,,,,0.6739,1,,,,,,,,,,,,,,z,1,0.6739,,,,,,,,-0.003333259,-0.370833359,0,0,0,,0,161,161,107,1,FASKS,LB,old,z,./images/FASKSLB.png,,,,,,,,,,,,,,,,,,,,,,,,,,,,,,,,,,,
,,,,,,,,,,,,,,,,,5eeacbcbb570dc1ab706417a,24,2022-02-12_14h52.43.638,lexical_decision_task_DD_L2,2021.2.3,Win32,59.28736586,,,,,,,,,,,,0.7131,1,,,,,,,,,,,,,,m,1,0.7131,,,,,,,,-0.003333259,-0.370833359,0,0,0,,0,162,162,48,1,SPORT,HB,old,m,./images/SPORTHB.png,,,,,,,,,,,,,,,,,,,,,,,,,,,,,,,,,,,
,,,,,,,,,,,,,,,,,5eeacbcbb570dc1ab706417a,24,2022-02-12_14h52.43.638,lexical_decision_task_DD_L2,2021.2.3,Win32,59.28736586,,,,,,,,,,,,0.8395,1,,,,,,,,,,,,,,z,1,0.8395,,,,,,,,-0.003333259,-0.370833359,0,0,0,,0,163,163,87,1,TRING,C,old,z,./images/TRING.png,,,,,,,,,,,,,,,,,,,,,,,,,,,,,,,,,,,
,,,,,,,,,,,,,,,,,5eeacbcbb570dc1ab706417a,24,2022-02-12_14h52.43.638,lexical_decision_task_DD_L2,2021.2.3,Win32,59.28736586,,,,,,,,,,,,1.8528,0,,,,,,,,,,,,,,m,0,1.8528,,,,,,,,-0.003333259,-0.370833359,0,0,0,,0,164,164,142,1,PLASK,HB,old,z,./images/PLASKHB.png,,,,,,,,,,,,,,,,,,,,,,,,,,,,,,,,,,,
,,,,,,,,,,,,,,,,,5eeacbcbb570dc1ab706417a,24,2022-02-12_14h52.43.638,lexical_decision_task_DD_L2,2021.2.3,Win32,59.28736586,,,,,,,,,,,,0.6857,1,,,,,,,,,,,,,,m,1,0.6857,,,,,,,,-0.003333259,-0.370833359,0,0,0,,0,165,165,11,1,BONNET,C,old,m,./images/BONNET.png,,,,,,,,,,,,,,,,,,,,,,,,,,,,,,,,,,,
,,,,,,,,,,,,,,,,,5eeacbcbb570dc1ab706417a,24,2022-02-12_14h52.43.638,lexical_decision_task_DD_L2,2021.2.3,Win32,59.28736586,,,,,,,,,,,,0.645,1,,,,,,,,,,,,,,z,1,0.645,,,,,,,,-0.003333259,-0.370833359,0,0,0,,0,166,166,96,1,KEAMS,C,old,z,./images/KEAMS.png,,,,,,,,,,,,,,,,,,,,,,,,,,,,,,,,,,,
,,,,,,,,,,,,,,,,,5eeacbcbb570dc1ab706417a,24,2022-02-12_14h52.43.638,lexical_decision_task_DD_L2,2021.2.3,Win32,59.28736586,,,,,,,,,,,,1.1358,1,,,,,,,,,,,,,,z,1,1.1358,,,,,,,,-0.003333259,-0.370833359,0,0,0,,0,167,167,91,1,SHENS,HB,old,z,./images/SHENSHB.png,,,,,,,,,,,,,,,,,,,,,,,,,,,,,,,,,,,
,,,,,,,,,,,,,,,,,5eeacbcbb570dc1ab706417a,24,2022-02-12_14h52.43.638,lexical_decision_task_DD_L2,2021.2.3,Win32,59.28736586,,,,,,,,,,,,,,,,,,,,,,,,,,,,,,,,,,,,,,,,,,,,,,,,,How likely will it be that you will recognize the words presented very blurred on a scale of 0 (not likely) to 100 (most likely)?,,,,,,0.002500024,-0.375833359,1,0,0,jol_adv,1,6.2172,0,0,0,2,1,,,,,,,,,,,,,,,,,,,,
,,,,,,,,,,,,,,,,,5eeacbcbb570dc1ab706417a,24,2022-02-12_14h52.43.638,lexical_decision_task_DD_L2,2021.2.3,Win32,59.28736586,,,,,,,,,,,,,,,,,,,,,,,,,,,,,,,,,,,,,,,,,,,,,,,,,How likely will it be that you will recognize the words presented slighly blurred on a scale of 0 (not likely) to 100 (most likely)?,,,,,,,,,,,,2,7.5595,0,1,1,1,1,,,,,,,,,,,,,,,,,,,,
,,,,,,,,,,,,,,,,,5eeacbcbb570dc1ab706417a,24,2022-02-12_14h52.43.638,lexical_decision_task_DD_L2,2021.2.3,Win32,59.28736586,,,,,,,,,,,,,,,,,,,,,,,,,,,,,,,,,,,,,,,,,,,,,,,,,How likely will it be that you will recognize the words presented clearly on a scale of 0 (not likely) to 100 (most likely)?,,,,,,,,,,,,6,3.7535,0,2,2,0,1,,,,,,,,,,,,,,,,,,,,
space,0.385833369,-0.234166739,0,0,0,,,,,,,1,test,"In the next phase you will be presented with the words from the the first phase. Your job is to decide whether you remember seeing the word or not. If you remember seeing the word press ""old"" or type ""m"". If you do not remember seeing the word press ""new"" or type ""z"". Please press the space bar or click on continue to begin. ",,,5eeacbcbb570dc1ab706417a,24,2022-02-12_14h52.43.638,lexical_decision_task_DD_L2,2021.2.3,Win32,59.28736586,16.8341,,,,,,,,,,,,,,,,,,,,,,,,,,,,,,,,,,,,,,,,,,,,,,,,,,,,,,,,,,,,,,,,,,,0,0,0,0,1,,,,,,,,,,,,,,,
,0.124166694,-0.380000026,1,0,0,instr_done_button,,,,,,1,test,"In the next phase you will be presented with the words from the the first phase. Your job is to decide whether you remember seeing the word or not. If you remember seeing the word press ""old"" or type ""m"". If you do not remember seeing the word press ""new"" or type ""z"". Please press the space bar or click on continue to begin. ",,,5eeacbcbb570dc1ab706417a,24,2022-02-12_14h52.43.638,lexical_decision_task_DD_L2,2021.2.3,Win32,59.28736586,,,,,,,,,,,,,,,,,,,,,,,,,,,,,,,,,,,,,,,,,,,,,,,,,,,,,,,,,,,,,,,,,,,,1,0,1,0,1,,,,,,,,,,,,,,,
,0.007500024,-0.401666694,1,0,0,instr_done_button,,,,,,1,test,"In the next phase you will be presented with the words from the the first phase. Your job is to decide whether you remember seeing the word or not. If you remember seeing the word press ""old"" or type ""m"". If you do not remember seeing the word press ""new"" or type ""z"". Please press the space bar or click on continue to begin. ",,,5eeacbcbb570dc1ab706417a,24,2022-02-12_14h52.43.638,lexical_decision_task_DD_L2,2021.2.3,Win32,59.28736586,,,,,,,,,,,,,,,,,,,,,,,,,,,,,,,,,,,,,,,,,,,,,,,,,,,,,,,,,,,,,,,,,,,,2,0,2,0,1,,,,,,,,,,,,,,,
,-0.023333259,-0.399166693,1,0,0,instr_done_button,,,,,,1,test,"In the next phase you will be presented with the words from the the first phase. Your job is to decide whether you remember seeing the word or not. If you remember seeing the word press ""old"" or type ""m"". If you do not remember seeing the word press ""new"" or type ""z"". Please press the space bar or click on continue to begin. ",,,5eeacbcbb570dc1ab706417a,24,2022-02-12_14h52.43.638,lexical_decision_task_DD_L2,2021.2.3,Win32,59.28736586,,,,,,,,,,,,,,,,,,,,,,,,,,,,,,,,,,,,,,,,,,,,,,,,,,,,,,,,,,,,,,,,,,,,3,0,3,0,1,,,,,,,,,,,,,,,
space,-0.069166645,-0.310000024,0,0,0,,,,,,,1,test,"In the next phase you will be presented with the words from the the first phase. Your job is to decide whether you remember seeing the word or not. If you remember seeing the word press ""old"" or type ""m"". If you do not remember seeing the word press ""new"" or type ""z"". Please press the space bar or click on continue to begin. ",,,5eeacbcbb570dc1ab706417a,24,2022-02-12_14h52.43.638,lexical_decision_task_DD_L2,2021.2.3,Win32,59.28736586,1.6278,,,,,,,,,,,,,,,,,,,,,,,,,,,,,,,,,,,,,,,,,,,,,,,,,,,,,,,,,,,,,,,,,,,4,0,4,0,1,,,,,,,,,,,,,,,
,,,,,,,,,,,,,,,,,5eeacbcbb570dc1ab706417a,24,2022-02-12_14h52.43.638,lexical_decision_task_DD_L2,2021.2.3,Win32,59.28736586,,,,,,,,,,,,1.576,1,,,,,,,,,,,,,,,,,,,,,,,,-0.069166645,-0.310000024,0,0,0,,,,,,,CANDLE,LB,m,y,./images/CANDLELB.png,,,,,,,,,,,,,,,,,,,,,m,1,1.576,,,,,,,,0,0,0,61,1
,,,,,,,,,,,,,,,,,5eeacbcbb570dc1ab706417a,24,2022-02-12_14h52.43.638,lexical_decision_task_DD_L2,2021.2.3,Win32,59.28736586,,,,,,,,,,,,0.9698,0,,,,,,,,,,,,,,,,,,,,,,,,-0.069166645,-0.310000024,0,0,0,,,,,,,WAGON,LB,z,y,./images/WAGONLB.png,,,,,,,,,,,,,,,,,,,,,m,0,0.9698,,,,,,,,0,1,1,91,1
,,,,,,,,,,,,,,,,,5eeacbcbb570dc1ab706417a,24,2022-02-12_14h52.43.638,lexical_decision_task_DD_L2,2021.2.3,Win32,59.28736586,,,,,,,,,,,,1.9767,1,,,,,,,,,,,,,,,,,,,,,,,,-0.069166645,-0.310000024,0,0,0,,,,,,,WALNUT,HB,z,y,./images/WALNUTHB.png,,,,,,,,,,,,,,,,,,,,,z,1,1.9767,,,,,,,,0,2,2,84,1
,,,,,,,,,,,,,,,,,5eeacbcbb570dc1ab706417a,24,2022-02-12_14h52.43.638,lexical_decision_task_DD_L2,2021.2.3,Win32,59.28736586,,,,,,,,,,,,0.9564,0,,,,,,,,,,,,,,,,,,,,,,,,-0.069166645,-0.310000024,0,0,0,,,,,,,CLIFF,C,z,y,./images/CLIFF.png,,,,,,,,,,,,,,,,,,,,,m,0,0.9564,,,,,,,,0,3,3,92,1
,,,,,,,,,,,,,,,,,5eeacbcbb570dc1ab706417a,24,2022-02-12_14h52.43.638,lexical_decision_task_DD_L2,2021.2.3,Win32,59.28736586,,,,,,,,,,,,1.385,1,,,,,,,,,,,,,,,,,,,,,,,,-0.069166645,-0.310000024,0,0,0,,,,,,,MAGGOT,HB,m,y,./images/MAGGOTHB.png,,,,,,,,,,,,,,,,,,,,,m,1,1.385,,,,,,,,0,4,4,33,1
,,,,,,,,,,,,,,,,,5eeacbcbb570dc1ab706417a,24,2022-02-12_14h52.43.638,lexical_decision_task_DD_L2,2021.2.3,Win32,59.28736586,,,,,,,,,,,,1.4786,1,,,,,,,,,,,,,,,,,,,,,,,,-0.069166645,-0.310000024,0,0,0,,,,,,,CHALK,LB,z,y,./images/CHALKLB.png,,,,,,,,,,,,,,,,,,,,,z,1,1.4786,,,,,,,,0,5,5,109,1
,,,,,,,,,,,,,,,,,5eeacbcbb570dc1ab706417a,24,2022-02-12_14h52.43.638,lexical_decision_task_DD_L2,2021.2.3,Win32,59.28736586,,,,,,,,,,,,1.102,1,,,,,,,,,,,,,,,,,,,,,,,,-0.069166645,-0.310000024,0,0,0,,,,,,,JUNGLE,C,m,y,./images/JUNGLE.png,,,,,,,,,,,,,,,,,,,,,m,1,1.102,,,,,,,,0,6,6,83,1
,,,,,,,,,,,,,,,,,5eeacbcbb570dc1ab706417a,24,2022-02-12_14h52.43.638,lexical_decision_task_DD_L2,2021.2.3,Win32,59.28736586,,,,,,,,,,,,0.8294,0,,,,,,,,,,,,,,,,,,,,,,,,-0.069166645,-0.310000024,0,0,0,,,,,,,CANDY,HB,z,y,./images/CANDYHB.png,,,,,,,,,,,,,,,,,,,,,m,0,0.8294,,,,,,,,0,7,7,123,1
,,,,,,,,,,,,,,,,,5eeacbcbb570dc1ab706417a,24,2022-02-12_14h52.43.638,lexical_decision_task_DD_L2,2021.2.3,Win32,59.28736586,,,,,,,,,,,,0.7125,1,,,,,,,,,,,,,,,,,,,,,,,,-0.069166645,-0.310000024,0,0,0,,,,,,,ARTIST,LB,z,y,./images/ARTISTLB.png,,,,,,,,,,,,,,,,,,,,,z,1,0.7125,,,,,,,,0,8,8,145,1
,,,,,,,,,,,,,,,,,5eeacbcbb570dc1ab706417a,24,2022-02-12_14h52.43.638,lexical_decision_task_DD_L2,2021.2.3,Win32,59.28736586,,,,,,,,,,,,1.1607,1,,,,,,,,,,,,,,,,,,,,,,,,-0.069166645,-0.310000024,0,0,0,,,,,,,PISTOL,C,z,y,./images/PISTOL.png,,,,,,,,,,,,,,,,,,,,,z,1,1.1607,,,,,,,,0,9,9,113,1
,,,,,,,,,,,,,,,,,5eeacbcbb570dc1ab706417a,24,2022-02-12_14h52.43.638,lexical_decision_task_DD_L2,2021.2.3,Win32,59.28736586,,,,,,,,,,,,0.9451,0,,,,,,,,,,,,,,,,,,,,,,,,-0.069166645,-0.310000024,0,0,0,,,,,,,WHISKY,C,z,y,./images/WHISKY.png,,,,,,,,,,,,,,,,,,,,,m,0,0.9451,,,,,,,,0,10,10,167,1
,,,,,,,,,,,,,,,,,5eeacbcbb570dc1ab706417a,24,2022-02-12_14h52.43.638,lexical_decision_task_DD_L2,2021.2.3,Win32,59.28736586,,,,,,,,,,,,0.7685,1,,,,,,,,,,,,,,,,,,,,,,,,-0.069166645,-0.310000024,0,0,0,,,,,,,LIZARD,C,m,y,./images/LIZARD.png,,,,,,,,,,,,,,,,,,,,,m,1,0.7685,,,,,,,,0,11,11,44,1
,,,,,,,,,,,,,,,,,5eeacbcbb570dc1ab706417a,24,2022-02-12_14h52.43.638,lexical_decision_task_DD_L2,2021.2.3,Win32,59.28736586,,,,,,,,,,,,0.8903,1,,,,,,,,,,,,,,,,,,,,,,,,-0.069166645,-0.310000024,0,0,0,,,,,,,THROAT,HB,m,y,./images/THROATHB.png,,,,,,,,,,,,,,,,,,,,,m,1,0.8903,,,,,,,,0,12,12,36,1
,,,,,,,,,,,,,,,,,5eeacbcbb570dc1ab706417a,24,2022-02-12_14h52.43.638,lexical_decision_task_DD_L2,2021.2.3,Win32,59.28736586,,,,,,,,,,,,0.7855,1,,,,,,,,,,,,,,,,,,,,,,,,-0.069166645,-0.310000024,0,0,0,,,,,,,FENCE,C,z,y,./images/FENCE.png,,,,,,,,,,,,,,,,,,,,,z,1,0.7855,,,,,,,,0,13,13,98,1
,,,,,,,,,,,,,,,,,5eeacbcbb570dc1ab706417a,24,2022-02-12_14h52.43.638,lexical_decision_task_DD_L2,2021.2.3,Win32,59.28736586,,,,,,,,,,,,0.9249,0,,,,,,,,,,,,,,,,,,,,,,,,-0.069166645,-0.310000024,0,0,0,,,,,,,COLLAR,HB,z,y,./images/COLLARHB.png,,,,,,,,,,,,,,,,,,,,,m,0,0.9249,,,,,,,,0,14,14,99,1
,,,,,,,,,,,,,,,,,5eeacbcbb570dc1ab706417a,24,2022-02-12_14h52.43.638,lexical_decision_task_DD_L2,2021.2.3,Win32,59.28736586,,,,,,,,,,,,0.6045,1,,,,,,,,,,,,,,,,,,,,,,,,-0.069166645,-0.310000024,0,0,0,,,,,,,WEASEL,C,m,y,./images/WEASEL.png,,,,,,,,,,,,,,,,,,,,,m,1,0.6045,,,,,,,,0,15,15,80,1
,,,,,,,,,,,,,,,,,5eeacbcbb570dc1ab706417a,24,2022-02-12_14h52.43.638,lexical_decision_task_DD_L2,2021.2.3,Win32,59.28736586,,,,,,,,,,,,1.0404,1,,,,,,,,,,,,,,,,,,,,,,,,-0.069166645,-0.310000024,0,0,0,,,,,,,SAUNA,HB,z,y,./images/SAUNAHB.png,,,,,,,,,,,,,,,,,,,,,z,1,1.0404,,,,,,,,0,16,16,117,1
,,,,,,,,,,,,,,,,,5eeacbcbb570dc1ab706417a,24,2022-02-12_14h52.43.638,lexical_decision_task_DD_L2,2021.2.3,Win32,59.28736586,,,,,,,,,,,,0.8348,1,,,,,,,,,,,,,,,,,,,,,,,,-0.069166645,-0.310000024,0,0,0,,,,,,,BEARD,C,m,y,./images/BEARD.png,,,,,,,,,,,,,,,,,,,,,m,1,0.8348,,,,,,,,0,17,17,2,1
,,,,,,,,,,,,,,,,,5eeacbcbb570dc1ab706417a,24,2022-02-12_14h52.43.638,lexical_decision_task_DD_L2,2021.2.3,Win32,59.28736586,,,,,,,,,,,,0.9668,0,,,,,,,,,,,,,,,,,,,,,,,,-0.069166645,-0.310000024,0,0,0,,,,,,,SHIELD,HB,z,y,./images/SHIELDHB.png,,,,,,,,,,,,,,,,,,,,,m,0,0.9668,,,,,,,,0,18,18,132,1
,,,,,,,,,,,,,,,,,5eeacbcbb570dc1ab706417a,24,2022-02-12_14h52.43.638,lexical_decision_task_DD_L2,2021.2.3,Win32,59.28736586,,,,,,,,,,,,1.022,0,,,,,,,,,,,,,,,,,,,,,,,,-0.069166645,-0.310000024,0,0,0,,,,,,,CASINO,LB,z,y,./images/CASINOLB.png,,,,,,,,,,,,,,,,,,,,,m,0,1.022,,,,,,,,0,19,19,112,1
,,,,,,,,,,,,,,,,,5eeacbcbb570dc1ab706417a,24,2022-02-12_14h52.43.638,lexical_decision_task_DD_L2,2021.2.3,Win32,59.28736586,,,,,,,,,,,,1.4862,1,,,,,,,,,,,,,,,,,,,,,,,,-0.069166645,-0.310000024,0,0,0,,,,,,,DRILL,HB,z,y,./images/DRILLHB.png,,,,,,,,,,,,,,,,,,,,,z,1,1.4862,,,,,,,,0,20,20,165,1
,,,,,,,,,,,,,,,,,5eeacbcbb570dc1ab706417a,24,2022-02-12_14h52.43.638,lexical_decision_task_DD_L2,2021.2.3,Win32,59.28736586,,,,,,,,,,,,1.0702,1,,,,,,,,,,,,,,,,,,,,,,,,-0.069166645,-0.310000024,0,0,0,,,,,,,ARROW,HB,z,y,./images/ARROWHB.png,,,,,,,,,,,,,,,,,,,,,z,1,1.0702,,,,,,,,0,21,21,153,1
,,,,,,,,,,,,,,,,,5eeacbcbb570dc1ab706417a,24,2022-02-12_14h52.43.638,lexical_decision_task_DD_L2,2021.2.3,Win32,59.28736586,,,,,,,,,,,,0.9183,1,,,,,,,,,,,,,,,,,,,,,,,,-0.069166645,-0.310000024,0,0,0,,,,,,,BROOM,HB,z,y,./images/BROOMHB.png,,,,,,,,,,,,,,,,,,,,,z,1,0.9183,,,,,,,,0,22,22,162,1
,,,,,,,,,,,,,,,,,5eeacbcbb570dc1ab706417a,24,2022-02-12_14h52.43.638,lexical_decision_task_DD_L2,2021.2.3,Win32,59.28736586,,,,,,,,,,,,1.4354,1,,,,,,,,,,,,,,,,,,,,,,,,-0.069166645,-0.310000024,0,0,0,,,,,,,PLANET,C,z,y,./images/PLANET.png,,,,,,,,,,,,,,,,,,,,,z,1,1.4354,,,,,,,,0,23,23,164,1
,,,,,,,,,,,,,,,,,5eeacbcbb570dc1ab706417a,24,2022-02-12_14h52.43.638,lexical_decision_task_DD_L2,2021.2.3,Win32,59.28736586,,,,,,,,,,,,0.7533,1,,,,,,,,,,,,,,,,,,,,,,,,-0.069166645,-0.310000024,0,0,0,,,,,,,BLOKE,HB,z,y,./images/BLOKEHB.png,,,,,,,,,,,,,,,,,,,,,z,1,0.7533,,,,,,,,0,24,24,96,1
,,,,,,,,,,,,,,,,,5eeacbcbb570dc1ab706417a,24,2022-02-12_14h52.43.638,lexical_decision_task_DD_L2,2021.2.3,Win32,59.28736586,,,,,,,,,,,,0.6883,1,,,,,,,,,,,,,,,,,,,,,,,,-0.069166645,-0.310000024,0,0,0,,,,,,,KIDNEY,HB,m,y,./images/KIDNEYHB.png,,,,,,,,,,,,,,,,,,,,,m,1,0.6883,,,,,,,,0,25,25,21,1
,,,,,,,,,,,,,,,,,5eeacbcbb570dc1ab706417a,24,2022-02-12_14h52.43.638,lexical_decision_task_DD_L2,2021.2.3,Win32,59.28736586,,,,,,,,,,,,1.1736,1,,,,,,,,,,,,,,,,,,,,,,,,-0.069166645,-0.310000024,0,0,0,,,,,,,ENGINE,C,z,y,./images/ENGINE.png,,,,,,,,,,,,,,,,,,,,,z,1,1.1736,,,,,,,,0,26,26,122,1
,,,,,,,,,,,,,,,,,5eeacbcbb570dc1ab706417a,24,2022-02-12_14h52.43.638,lexical_decision_task_DD_L2,2021.2.3,Win32,59.28736586,,,,,,,,,,,,1.1592,1,,,,,,,,,,,,,,,,,,,,,,,,-0.069166645,-0.310000024,0,0,0,,,,,,,MAMMAL,C,z,y,./images/MAMMAL.png,,,,,,,,,,,,,,,,,,,,,z,1,1.1592,,,,,,,,0,27,27,146,1
,,,,,,,,,,,,,,,,,5eeacbcbb570dc1ab706417a,24,2022-02-12_14h52.43.638,lexical_decision_task_DD_L2,2021.2.3,Win32,59.28736586,,,,,,,,,,,,1.4761,1,,,,,,,,,,,,,,,,,,,,,,,,-0.069166645,-0.310000024,0,0,0,,,,,,,MOOSE,HB,m,y,./images/MOOSEHB.png,,,,,,,,,,,,,,,,,,,,,m,1,1.4761,,,,,,,,0,28,28,57,1
,,,,,,,,,,,,,,,,,5eeacbcbb570dc1ab706417a,24,2022-02-12_14h52.43.638,lexical_decision_task_DD_L2,2021.2.3,Win32,59.28736586,,,,,,,,,,,,0.9953,0,,,,,,,,,,,,,,,,,,,,,,,,-0.069166645,-0.310000024,0,0,0,,,,,,,CANOE,LB,z,y,./images/CANOELB.png,,,,,,,,,,,,,,,,,,,,,m,0,0.9953,,,,,,,,0,29,29,142,1
,,,,,,,,,,,,,,,,,5eeacbcbb570dc1ab706417a,24,2022-02-12_14h52.43.638,lexical_decision_task_DD_L2,2021.2.3,Win32,59.28736586,,,,,,,,,,,,0.6857,1,,,,,,,,,,,,,,,,,,,,,,,,-0.069166645,-0.310000024,0,0,0,,,,,,,PLANK,LB,m,y,./images/PLANKLB.png,,,,,,,,,,,,,,,,,,,,,m,1,0.6857,,,,,,,,0,30,30,1,1
,,,,,,,,,,,,,,,,,5eeacbcbb570dc1ab706417a,24,2022-02-12_14h52.43.638,lexical_decision_task_DD_L2,2021.2.3,Win32,59.28736586,,,,,,,,,,,,1.1023,0,,,,,,,,,,,,,,,,,,,,,,,,-0.069166645,-0.310000024,0,0,0,,,,,,,BAKER,HB,z,y,./images/BAKERHB.png,,,,,,,,,,,,,,,,,,,,,m,0,1.1023,,,,,,,,0,31,31,147,1
,,,,,,,,,,,,,,,,,5eeacbcbb570dc1ab706417a,24,2022-02-12_14h52.43.638,lexical_decision_task_DD_L2,2021.2.3,Win32,59.28736586,,,,,,,,,,,,0.6529,1,,,,,,,,,,,,,,,,,,,,,,,,-0.069166645,-0.310000024,0,0,0,,,,,,,TORCH,C,m,y,./images/TORCH.png,,,,,,,,,,,,,,,,,,,,,m,1,0.6529,,,,,,,,0,32,32,68,1
,,,,,,,,,,,,,,,,,5eeacbcbb570dc1ab706417a,24,2022-02-12_14h52.43.638,lexical_decision_task_DD_L2,2021.2.3,Win32,59.28736586,,,,,,,,,,,,0.6834,1,,,,,,,,,,,,,,,,,,,,,,,,-0.069166645,-0.310000024,0,0,0,,,,,,,GRAIN,HB,m,y,./images/GRAINHB.png,,,,,,,,,,,,,,,,,,,,,m,1,0.6834,,,,,,,,0,33,33,75,1
,,,,,,,,,,,,,,,,,5eeacbcbb570dc1ab706417a,24,2022-02-12_14h52.43.638,lexical_decision_task_DD_L2,2021.2.3,Win32,59.28736586,,,,,,,,,,,,0.7183,1,,,,,,,,,,,,,,,,,,,,,,,,-0.069166645,-0.310000024,0,0,0,,,,,,,PEARL,LB,m,y,./images/PEARLLB.png,,,,,,,,,,,,,,,,,,,,,m,1,0.7183,,,,,,,,0,34,34,46,1
,,,,,,,,,,,,,,,,,5eeacbcbb570dc1ab706417a,24,2022-02-12_14h52.43.638,lexical_decision_task_DD_L2,2021.2.3,Win32,59.28736586,,,,,,,,,,,,1.6924,1,,,,,,,,,,,,,,,,,,,,,,,,-0.069166645,-0.310000024,0,0,0,,,,,,,TULIP,C,m,y,./images/TULIP.png,,,,,,,,,,,,,,,,,,,,,m,1,1.6924,,,,,,,,0,35,35,8,1
,,,,,,,,,,,,,,,,,5eeacbcbb570dc1ab706417a,24,2022-02-12_14h52.43.638,lexical_decision_task_DD_L2,2021.2.3,Win32,59.28736586,,,,,,,,,,,,0.6352,1,,,,,,,,,,,,,,,,,,,,,,,,-0.069166645,-0.310000024,0,0,0,,,,,,,LLAMA,C,z,y,./images/LLAMA.png,,,,,,,,,,,,,,,,,,,,,z,1,0.6352,,,,,,,,0,36,36,119,1
,,,,,,,,,,,,,,,,,5eeacbcbb570dc1ab706417a,24,2022-02-12_14h52.43.638,lexical_decision_task_DD_L2,2021.2.3,Win32,59.28736586,,,,,,,,,,,,0.869,1,,,,,,,,,,,,,,,,,,,,,,,,-0.069166645,-0.310000024,0,0,0,,,,,,,STRING,C,m,y,./images/STRING.png,,,,,,,,,,,,,,,,,,,,,m,1,0.869,,,,,,,,0,37,37,41,1
,,,,,,,,,,,,,,,,,5eeacbcbb570dc1ab706417a,24,2022-02-12_14h52.43.638,lexical_decision_task_DD_L2,2021.2.3,Win32,59.28736586,,,,,,,,,,,,0.5688,1,,,,,,,,,,,,,,,,,,,,,,,,-0.069166645,-0.310000024,0,0,0,,,,,,,MOSQUE,LB,m,y,./images/MOSQUELB.png,,,,,,,,,,,,,,,,,,,,,m,1,0.5688,,,,,,,,0,38,38,43,1
,,,,,,,,,,,,,,,,,5eeacbcbb570dc1ab706417a,24,2022-02-12_14h52.43.638,lexical_decision_task_DD_L2,2021.2.3,Win32,59.28736586,,,,,,,,,,,,0.869,1,,,,,,,,,,,,,,,,,,,,,,,,-0.069166645,-0.310000024,0,0,0,,,,,,,SLOPE,HB,z,y,./images/SLOPEHB.png,,,,,,,,,,,,,,,,,,,,,z,1,0.869,,,,,,,,0,39,39,114,1
,,,,,,,,,,,,,,,,,5eeacbcbb570dc1ab706417a,24,2022-02-12_14h52.43.638,lexical_decision_task_DD_L2,2021.2.3,Win32,59.28736586,,,,,,,,,,,,1.9371,1,,,,,,,,,,,,,,,,,,,,,,,,-0.069166645,-0.310000024,0,0,0,,,,,,,DESERT,LB,z,y,./images/DESERTLB.png,,,,,,,,,,,,,,,,,,,,,z,1,1.9371,,,,,,,,0,40,40,136,1
,,,,,,,,,,,,,,,,,5eeacbcbb570dc1ab706417a,24,2022-02-12_14h52.43.638,lexical_decision_task_DD_L2,2021.2.3,Win32,59.28736586,,,,,,,,,,,,0.8183,0,,,,,,,,,,,,,,,,,,,,,,,,-0.031666644,-0.373333359,1,0,0,,,,,,,STOOL,LB,z,y,./images/STOOLLB.png,,break_done_button,,,,,,,,,,,,,,,,,,,m,0,0.8183,,,,,,,,0,41,41,127,1
,,,,,,,,,,,,,,,,,5eeacbcbb570dc1ab706417a,24,2022-02-12_14h52.43.638,lexical_decision_task_DD_L2,2021.2.3,Win32,59.28736586,,,,,,,,,,,,1.1724,1,,,,,,,,,,,,,,,,,,,,,,,,-0.031666644,-0.373333359,0,0,0,,,,,,,CRATER,HB,z,y,./images/CRATERHB.png,,,,,,,,,,,,,,,,,,,,,z,1,1.1724,,,,,,,,0,42,42,87,1
,,,,,,,,,,,,,,,,,5eeacbcbb570dc1ab706417a,24,2022-02-12_14h52.43.638,lexical_decision_task_DD_L2,2021.2.3,Win32,59.28736586,,,,,,,,,,,,0.8459,1,,,,,,,,,,,,,,,,,,,,,,,,-0.031666644,-0.373333359,0,0,0,,,,,,,BANANA,LB,z,y,./images/BANANALB.png,,,,,,,,,,,,,,,,,,,,,z,1,0.8459,,,,,,,,0,43,43,154,1
,,,,,,,,,,,,,,,,,5eeacbcbb570dc1ab706417a,24,2022-02-12_14h52.43.638,lexical_decision_task_DD_L2,2021.2.3,Win32,59.28736586,,,,,,,,,,,,0.7464,0,,,,,,,,,,,,,,,,,,,,,,,,-0.031666644,-0.373333359,0,0,0,,,,,,,CHAIN,HB,z,y,./images/CHAINHB.png,,,,,,,,,,,,,,,,,,,,,m,0,0.7464,,,,,,,,0,44,44,126,1
,,,,,,,,,,,,,,,,,5eeacbcbb570dc1ab706417a,24,2022-02-12_14h52.43.638,lexical_decision_task_DD_L2,2021.2.3,Win32,59.28736586,,,,,,,,,,,,0.8783,0,,,,,,,,,,,,,,,,,,,,,,,,-0.031666644,-0.373333359,0,0,0,,,,,,,VALLEY,C,z,y,./images/VALLEY.png,,,,,,,,,,,,,,,,,,,,,m,0,0.8783,,,,,,,,0,45,45,152,1
,,,,,,,,,,,,,,,,,5eeacbcbb570dc1ab706417a,24,2022-02-12_14h52.43.638,lexical_decision_task_DD_L2,2021.2.3,Win32,59.28736586,,,,,,,,,,,,1.825,1,,,,,,,,,,,,,,,,,,,,,,,,-0.031666644,-0.373333359,0,0,0,,,,,,,ONION,HB,m,y,./images/ONIONHB.png,,,,,,,,,,,,,,,,,,,,,m,1,1.825,,,,,,,,0,46,46,51,1
,,,,,,,,,,,,,,,,,5eeacbcbb570dc1ab706417a,24,2022-02-12_14h52.43.638,lexical_decision_task_DD_L2,2021.2.3,Win32,59.28736586,,,,,,,,,,,,0.6548,1,,,,,,,,,,,,,,,,,,,,,,,,-0.031666644,-0.373333359,0,0,0,,,,,,,MUSCLE,LB,m,y,./images/MUSCLELB.png,,,,,,,,,,,,,,,,,,,,,m,1,0.6548,,,,,,,,0,47,47,4,1
,,,,,,,,,,,,,,,,,5eeacbcbb570dc1ab706417a,24,2022-02-12_14h52.43.638,lexical_decision_task_DD_L2,2021.2.3,Win32,59.28736586,,,,,,,,,,,,0.6973,1,,,,,,,,,,,,,,,,,,,,,,,,-0.031666644,-0.373333359,0,0,0,,,,,,,BUBBLE,C,z,y,./images/BUBBLE.png,,,,,,,,,,,,,,,,,,,,,z,1,0.6973,,,,,,,,0,48,48,155,1
,,,,,,,,,,,,,,,,,5eeacbcbb570dc1ab706417a,24,2022-02-12_14h52.43.638,lexical_decision_task_DD_L2,2021.2.3,Win32,59.28736586,,,,,,,,,,,,0.8376,1,,,,,,,,,,,,,,,,,,,,,,,,-0.031666644,-0.373333359,0,0,0,,,,,,,PEBBLE,LB,z,y,./images/PEBBLELB.png,,,,,,,,,,,,,,,,,,,,,z,1,0.8376,,,,,,,,0,49,49,166,1
,,,,,,,,,,,,,,,,,5eeacbcbb570dc1ab706417a,24,2022-02-12_14h52.43.638,lexical_decision_task_DD_L2,2021.2.3,Win32,59.28736586,,,,,,,,,,,,0.6826,1,,,,,,,,,,,,,,,,,,,,,,,,-0.031666644,-0.373333359,0,0,0,,,,,,,KITTEN,HB,m,y,./images/KITTENHB.png,,,,,,,,,,,,,,,,,,,,,m,1,0.6826,,,,,,,,0,50,50,45,1
,,,,,,,,,,,,,,,,,5eeacbcbb570dc1ab706417a,24,2022-02-12_14h52.43.638,lexical_decision_task_DD_L2,2021.2.3,Win32,59.28736586,,,,,,,,,,,,0.8813,1,,,,,,,,,,,,,,,,,,,,,,,,-0.031666644,-0.373333359,0,0,0,,,,,,,STORM,HB,m,y,./images/STORMHB.png,,,,,,,,,,,,,,,,,,,,,m,1,0.8813,,,,,,,,0,51,51,30,1
,,,,,,,,,,,,,,,,,5eeacbcbb570dc1ab706417a,24,2022-02-12_14h52.43.638,lexical_decision_task_DD_L2,2021.2.3,Win32,59.28736586,,,,,,,,,,,,0.8351,0,,,,,,,,,,,,,,,,,,,,,,,,-0.031666644,-0.373333359,0,0,0,,,,,,,LAGOON,C,z,y,./images/LAGOON.png,,,,,,,,,,,,,,,,,,,,,m,0,0.8351,,,,,,,,0,52,52,131,1
,,,,,,,,,,,,,,,,,5eeacbcbb570dc1ab706417a,24,2022-02-12_14h52.43.638,lexical_decision_task_DD_L2,2021.2.3,Win32,59.28736586,,,,,,,,,,,,0.9164,1,,,,,,,,,,,,,,,,,,,,,,,,-0.031666644,-0.373333359,0,0,0,,,,,,,SHELF,HB,m,y,./images/SHELFHB.png,,,,,,,,,,,,,,,,,,,,,m,1,0.9164,,,,,,,,0,53,53,39,1
,,,,,,,,,,,,,,,,,5eeacbcbb570dc1ab706417a,24,2022-02-12_14h52.43.638,lexical_decision_task_DD_L2,2021.2.3,Win32,59.28736586,,,,,,,,,,,,0.6409,1,,,,,,,,,,,,,,,,,,,,,,,,-0.031666644,-0.373333359,0,0,0,,,,,,,PASTA,C,m,y,./images/PASTA.png,,,,,,,,,,,,,,,,,,,,,m,1,0.6409,,,,,,,,0,54,54,5,1
,,,,,,,,,,,,,,,,,5eeacbcbb570dc1ab706417a,24,2022-02-12_14h52.43.638,lexical_decision_task_DD_L2,2021.2.3,Win32,59.28736586,,,,,,,,,,,,1.2391,1,,,,,,,,,,,,,,,,,,,,,,,,-0.031666644,-0.373333359,0,0,0,,,,,,,DIVER,HB,z,y,./images/DIVERHB.png,,,,,,,,,,,,,,,,,,,,,z,1,1.2391,,,,,,,,0,55,55,93,1
,,,,,,,,,,,,,,,,,5eeacbcbb570dc1ab706417a,24,2022-02-12_14h52.43.638,lexical_decision_task_DD_L2,2021.2.3,Win32,59.28736586,,,,,,,,,,,,0.917,0,,,,,,,,,,,,,,,,,,,,,,,,-0.031666644,-0.373333359,0,0,0,,,,,,,CURRY,HB,z,y,./images/CURRYHB.png,,,,,,,,,,,,,,,,,,,,,m,0,0.917,,,,,,,,0,56,56,144,1
,,,,,,,,,,,,,,,,,5eeacbcbb570dc1ab706417a,24,2022-02-12_14h52.43.638,lexical_decision_task_DD_L2,2021.2.3,Win32,59.28736586,,,,,,,,,,,,2.429,1,,,,,,,,,,,,,,,,,,,,,,,,-0.031666644,-0.373333359,0,0,0,,,,,,,JAGUAR,HB,m,y,./images/JAGUARHB.png,,,,,,,,,,,,,,,,,,,,,m,1,2.429,,,,,,,,0,57,57,18,1
,,,,,,,,,,,,,,,,,5eeacbcbb570dc1ab706417a,24,2022-02-12_14h52.43.638,lexical_decision_task_DD_L2,2021.2.3,Win32,59.28736586,,,,,,,,,,,,0.6186,1,,,,,,,,,,,,,,,,,,,,,,,,-0.031666644,-0.373333359,0,0,0,,,,,,,BONNET,C,m,y,./images/BONNET.png,,,,,,,,,,,,,,,,,,,,,m,1,0.6186,,,,,,,,0,58,58,11,1
,,,,,,,,,,,,,,,,,5eeacbcbb570dc1ab706417a,24,2022-02-12_14h52.43.638,lexical_decision_task_DD_L2,2021.2.3,Win32,59.28736586,,,,,,,,,,,,0.8753,1,,,,,,,,,,,,,,,,,,,,,,,,-0.031666644,-0.373333359,0,0,0,,,,,,,POODLE,HB,m,y,./images/POODLEHB.png,,,,,,,,,,,,,,,,,,,,,m,1,0.8753,,,,,,,,0,59,59,81,1
,,,,,,,,,,,,,,,,,5eeacbcbb570dc1ab706417a,24,2022-02-12_14h52.43.638,lexical_decision_task_DD_L2,2021.2.3,Win32,59.28736586,,,,,,,,,,,,1.0419,1,,,,,,,,,,,,,,,,,,,,,,,,-0.031666644,-0.373333359,0,0,0,,,,,,,TRIPOD,HB,m,y,./images/TRIPODHB.png,,,,,,,,,,,,,,,,,,,,,m,1,1.0419,,,,,,,,0,60,60,54,1
,,,,,,,,,,,,,,,,,5eeacbcbb570dc1ab706417a,24,2022-02-12_14h52.43.638,lexical_decision_task_DD_L2,2021.2.3,Win32,59.28736586,,,,,,,,,,,,1.6123,0,,,,,,,,,,,,,,,,,,,,,,,,-0.031666644,-0.373333359,0,0,0,,,,,,,BUTTER,HB,z,y,./images/BUTTERHB.png,,,,,,,,,,,,,,,,,,,,,m,0,1.6123,,,,,,,,0,61,61,111,1
,,,,,,,,,,,,,,,,,5eeacbcbb570dc1ab706417a,24,2022-02-12_14h52.43.638,lexical_decision_task_DD_L2,2021.2.3,Win32,59.28736586,,,,,,,,,,,,1.3083,1,,,,,,,,,,,,,,,,,,,,,,,,-0.031666644,-0.373333359,0,0,0,,,,,,,CARPET,C,m,y,./images/CARPET.png,,,,,,,,,,,,,,,,,,,,,m,1,1.3083,,,,,,,,0,62,62,53,1
,,,,,,,,,,,,,,,,,5eeacbcbb570dc1ab706417a,24,2022-02-12_14h52.43.638,lexical_decision_task_DD_L2,2021.2.3,Win32,59.28736586,,,,,,,,,,,,1.0184,1,,,,,,,,,,,,,,,,,,,,,,,,-0.031666644,-0.373333359,0,0,0,,,,,,,MELON,LB,m,y,./images/MELONLB.png,,,,,,,,,,,,,,,,,,,,,m,1,1.0184,,,,,,,,0,63,63,22,1
,,,,,,,,,,,,,,,,,5eeacbcbb570dc1ab706417a,24,2022-02-12_14h52.43.638,lexical_decision_task_DD_L2,2021.2.3,Win32,59.28736586,,,,,,,,,,,,0.6897,1,,,,,,,,,,,,,,,,,,,,,,,,-0.031666644,-0.373333359,0,0,0,,,,,,,DRUMS,LB,m,y,./images/DRUMSLB.png,,,,,,,,,,,,,,,,,,,,,m,1,0.6897,,,,,,,,0,64,64,49,1
,,,,,,,,,,,,,,,,,5eeacbcbb570dc1ab706417a,24,2022-02-12_14h52.43.638,lexical_decision_task_DD_L2,2021.2.3,Win32,59.28736586,,,,,,,,,,,,0.7518,0,,,,,,,,,,,,,,,,,,,,,,,,-0.031666644,-0.373333359,0,0,0,,,,,,,ATTIC,HB,m,y,./images/ATTICHB.png,,,,,,,,,,,,,,,,,,,,,z,0,0.7518,,,,,,,,0,65,65,27,1
,,,,,,,,,,,,,,,,,5eeacbcbb570dc1ab706417a,24,2022-02-12_14h52.43.638,lexical_decision_task_DD_L2,2021.2.3,Win32,59.28736586,,,,,,,,,,,,0.7353,1,,,,,,,,,,,,,,,,,,,,,,,,-0.031666644,-0.373333359,0,0,0,,,,,,,BURIAL,C,m,y,./images/BURIAL.png,,,,,,,,,,,,,,,,,,,,,m,1,0.7353,,,,,,,,0,66,66,59,1
,,,,,,,,,,,,,,,,,5eeacbcbb570dc1ab706417a,24,2022-02-12_14h52.43.638,lexical_decision_task_DD_L2,2021.2.3,Win32,59.28736586,,,,,,,,,,,,0.7412,1,,,,,,,,,,,,,,,,,,,,,,,,-0.031666644,-0.373333359,0,0,0,,,,,,,BRIDE,LB,z,y,./images/BRIDELB.png,,,,,,,,,,,,,,,,,,,,,z,1,0.7412,,,,,,,,0,67,67,148,1
,,,,,,,,,,,,,,,,,5eeacbcbb570dc1ab706417a,24,2022-02-12_14h52.43.638,lexical_decision_task_DD_L2,2021.2.3,Win32,59.28736586,,,,,,,,,,,,1.7274,1,,,,,,,,,,,,,,,,,,,,,,,,-0.031666644,-0.373333359,0,0,0,,,,,,,PENCE,LB,m,y,./images/PENCELB.png,,,,,,,,,,,,,,,,,,,,,m,1,1.7274,,,,,,,,0,68,68,16,1
,,,,,,,,,,,,,,,,,5eeacbcbb570dc1ab706417a,24,2022-02-12_14h52.43.638,lexical_decision_task_DD_L2,2021.2.3,Win32,59.28736586,,,,,,,,,,,,1.1522,1,,,,,,,,,,,,,,,,,,,,,,,,-0.031666644,-0.373333359,0,0,0,,,,,,,CLOWN,LB,z,y,./images/CLOWNLB.png,,,,,,,,,,,,,,,,,,,,,z,1,1.1522,,,,,,,,0,69,69,106,1
,,,,,,,,,,,,,,,,,5eeacbcbb570dc1ab706417a,24,2022-02-12_14h52.43.638,lexical_decision_task_DD_L2,2021.2.3,Win32,59.28736586,,,,,,,,,,,,0.8853,1,,,,,,,,,,,,,,,,,,,,,,,,-0.031666644,-0.373333359,0,0,0,,,,,,,BIRTH,LB,m,y,./images/BIRTHLB.png,,,,,,,,,,,,,,,,,,,,,m,1,0.8853,,,,,,,,0,70,70,37,1
,,,,,,,,,,,,,,,,,5eeacbcbb570dc1ab706417a,24,2022-02-12_14h52.43.638,lexical_decision_task_DD_L2,2021.2.3,Win32,59.28736586,,,,,,,,,,,,1.1433,1,,,,,,,,,,,,,,,,,,,,,,,,-0.031666644,-0.373333359,0,0,0,,,,,,,MIDGET,LB,z,y,./images/MIDGETLB.png,,,,,,,,,,,,,,,,,,,,,z,1,1.1433,,,,,,,,0,71,71,160,1
,,,,,,,,,,,,,,,,,5eeacbcbb570dc1ab706417a,24,2022-02-12_14h52.43.638,lexical_decision_task_DD_L2,2021.2.3,Win32,59.28736586,,,,,,,,,,,,1.5432,1,,,,,,,,,,,,,,,,,,,,,,,,-0.031666644,-0.373333359,0,0,0,,,,,,,SPINE,C,z,y,./images/SPINE.png,,,,,,,,,,,,,,,,,,,,,z,1,1.5432,,,,,,,,0,72,72,149,1
,,,,,,,,,,,,,,,,,5eeacbcbb570dc1ab706417a,24,2022-02-12_14h52.43.638,lexical_decision_task_DD_L2,2021.2.3,Win32,59.28736586,,,,,,,,,,,,3.1209,1,,,,,,,,,,,,,,,,,,,,,,,,-0.031666644,-0.373333359,0,0,0,,,,,,,PAINT,LB,m,y,./images/PAINTLB.png,,,,,,,,,,,,,,,,,,,,,m,1,3.1209,,,,,,,,0,73,73,7,1
,,,,,,,,,,,,,,,,,5eeacbcbb570dc1ab706417a,24,2022-02-12_14h52.43.638,lexical_decision_task_DD_L2,2021.2.3,Win32,59.28736586,,,,,,,,,,,,0.7182,1,,,,,,,,,,,,,,,,,,,,,,,,-0.031666644,-0.373333359,0,0,0,,,,,,,SPORT,HB,m,y,./images/SPORTHB.png,,,,,,,,,,,,,,,,,,,,,m,1,0.7182,,,,,,,,0,74,74,48,1
,,,,,,,,,,,,,,,,,5eeacbcbb570dc1ab706417a,24,2022-02-12_14h52.43.638,lexical_decision_task_DD_L2,2021.2.3,Win32,59.28736586,,,,,,,,,,,,0.9355,0,,,,,,,,,,,,,,,,,,,,,,,,-0.031666644,-0.373333359,0,0,0,,,,,,,CLOTH,C,z,y,./images/CLOTH.png,,,,,,,,,,,,,,,,,,,,,m,0,0.9355,,,,,,,,0,75,75,107,1
,,,,,,,,,,,,,,,,,5eeacbcbb570dc1ab706417a,24,2022-02-12_14h52.43.638,lexical_decision_task_DD_L2,2021.2.3,Win32,59.28736586,,,,,,,,,,,,0.6559,1,,,,,,,,,,,,,,,,,,,,,,,,-0.031666644,-0.373333359,0,0,0,,,,,,,LITTER,HB,m,y,./images/LITTERHB.png,,,,,,,,,,,,,,,,,,,,,m,1,0.6559,,,,,,,,0,76,76,78,1
,,,,,,,,,,,,,,,,,5eeacbcbb570dc1ab706417a,24,2022-02-12_14h52.43.638,lexical_decision_task_DD_L2,2021.2.3,Win32,59.28736586,,,,,,,,,,,,1.2528,1,,,,,,,,,,,,,,,,,,,,,,,,-0.031666644,-0.373333359,0,0,0,,,,,,,WHEEL,C,z,y,./images/WHEEL.png,,,,,,,,,,,,,,,,,,,,,z,1,1.2528,,,,,,,,0,77,77,161,1
,,,,,,,,,,,,,,,,,5eeacbcbb570dc1ab706417a,24,2022-02-12_14h52.43.638,lexical_decision_task_DD_L2,2021.2.3,Win32,59.28736586,,,,,,,,,,,,1.2219,0,,,,,,,,,,,,,,,,,,,,,,,,-0.031666644,-0.373333359,0,0,0,,,,,,,MEDAL,C,z,y,./images/MEDAL.png,,,,,,,,,,,,,,,,,,,,,m,0,1.2219,,,,,,,,0,78,78,95,1
,,,,,,,,,,,,,,,,,5eeacbcbb570dc1ab706417a,24,2022-02-12_14h52.43.638,lexical_decision_task_DD_L2,2021.2.3,Win32,59.28736586,,,,,,,,,,,,0.8113,0,,,,,,,,,,,,,,,,,,,,,,,,-0.031666644,-0.373333359,0,0,0,,,,,,,MONKEY,HB,z,y,./images/MONKEYHB.png,,,,,,,,,,,,,,,,,,,,,m,0,0.8113,,,,,,,,0,79,79,129,1
,,,,,,,,,,,,,,,,,5eeacbcbb570dc1ab706417a,24,2022-02-12_14h52.43.638,lexical_decision_task_DD_L2,2021.2.3,Win32,59.28736586,,,,,,,,,,,,1.0361,1,,,,,,,,,,,,,,,,,,,,,,,,-0.031666644,-0.373333359,0,0,0,,,,,,,PILOT,C,z,y,./images/PILOT.png,,,,,,,,,,,,,,,,,,,,,z,1,1.0361,,,,,,,,0,80,80,134,1
,,,,,,,,,,,,,,,,,5eeacbcbb570dc1ab706417a,24,2022-02-12_14h52.43.638,lexical_decision_task_DD_L2,2021.2.3,Win32,59.28736586,,,,,,,,,,,,0.9016,1,,,,,,,,,,,,,,,,,,,,,,,,-0.031666644,-0.373333359,0,0,0,,,,,,,GREASE,HB,m,y,./images/GREASEHB.png,,,,,,,,,,,,,,,,,,,,,m,1,0.9016,,,,,,,,0,81,81,15,1
,,,,,,,,,,,,,,,,,5eeacbcbb570dc1ab706417a,24,2022-02-12_14h52.43.638,lexical_decision_task_DD_L2,2021.2.3,Win32,59.28736586,,,,,,,,,,,,2.8368,0,,,,,,,,,,,,,,,,,,,,,,,,-0.031666644,-0.373333359,0,0,0,,,,,,,SNAKE,LB,z,y,./images/SNAKELB.png,,,,,,,,,,,,,,,,,,,,,m,0,2.8368,,,,,,,,0,82,82,124,1
,,,,,,,,,,,,,,,,,5eeacbcbb570dc1ab706417a,24,2022-02-12_14h52.43.638,lexical_decision_task_DD_L2,2021.2.3,Win32,59.28736586,,,,,,,,,,,,1.8367,1,,,,,,,,,,,,,,,,,,,,,,,,-0.031666644,-0.373333359,0,0,0,space,,,,,,STATUE,HB,z,y,./images/STATUEHB.png,124.5713,,,,,,,,,,,,,,,,,,,,z,1,1.8367,,,,,,,,0,83,83,150,1
,,,,,,,,,,,,,,,,,5eeacbcbb570dc1ab706417a,24,2022-02-12_14h52.43.638,lexical_decision_task_DD_L2,2021.2.3,Win32,59.28736586,,,,,,,,,,,,0.6746,0,,,,,,,,,,,,,,,,,,,,,,,,-0.031666644,-0.373333359,0,0,0,,,,,,,BASKET,C,z,y,./images/BASKET.png,,,,,,,,,,,,,,,,,,,,,m,0,0.6746,,,,,,,,0,84,84,128,1
,,,,,,,,,,,,,,,,,5eeacbcbb570dc1ab706417a,24,2022-02-12_14h52.43.638,lexical_decision_task_DD_L2,2021.2.3,Win32,59.28736586,,,,,,,,,,,,1.5193,1,,,,,,,,,,,,,,,,,,,,,,,,-0.031666644,-0.373333359,0,0,0,,,,,,,BOXER,LB,z,y,./images/BOXERLB.png,,,,,,,,,,,,,,,,,,,,,z,1,1.5193,,,,,,,,0,85,85,88,1
,,,,,,,,,,,,,,,,,5eeacbcbb570dc1ab706417a,24,2022-02-12_14h52.43.638,lexical_decision_task_DD_L2,2021.2.3,Win32,59.28736586,,,,,,,,,,,,1.8775,0,,,,,,,,,,,,,,,,,,,,,,,,-0.031666644,-0.373333359,0,0,0,,,,,,,GARDEN,LB,z,y,./images/GARDENLB.png,,,,,,,,,,,,,,,,,,,,,m,0,1.8775,,,,,,,,0,86,86,94,1
,,,,,,,,,,,,,,,,,5eeacbcbb570dc1ab706417a,24,2022-02-12_14h52.43.638,lexical_decision_task_DD_L2,2021.2.3,Win32,59.28736586,,,,,,,,,,,,0.9011,1,,,,,,,,,,,,,,,,,,,,,,,,-0.031666644,-0.373333359,0,0,0,,,,,,,ALLEY,LB,z,y,./images/ALLEYLB.png,,,,,,,,,,,,,,,,,,,,,z,1,0.9011,,,,,,,,0,87,87,139,1
,,,,,,,,,,,,,,,,,5eeacbcbb570dc1ab706417a,24,2022-02-12_14h52.43.638,lexical_decision_task_DD_L2,2021.2.3,Win32,59.28736586,,,,,,,,,,,,1.5687,1,,,,,,,,,,,,,,,,,,,,,,,,-0.031666644,-0.373333359,0,0,0,,,,,,,COOKER,HB,m,y,./images/COOKERHB.png,,,,,,,,,,,,,,,,,,,,,m,1,1.5687,,,,,,,,0,88,88,69,1
,,,,,,,,,,,,,,,,,5eeacbcbb570dc1ab706417a,24,2022-02-12_14h52.43.638,lexical_decision_task_DD_L2,2021.2.3,Win32,59.28736586,,,,,,,,,,,,0.6587,1,,,,,,,,,,,,,,,,,,,,,,,,-0.031666644,-0.373333359,0,0,0,,,,,,,SWEAT,HB,m,y,./images/SWEATHB.png,,,,,,,,,,,,,,,,,,,,,m,1,0.6587,,,,,,,,0,89,89,66,1
,,,,,,,,,,,,,,,,,5eeacbcbb570dc1ab706417a,24,2022-02-12_14h52.43.638,lexical_decision_task_DD_L2,2021.2.3,Win32,59.28736586,,,,,,,,,,,,0.8021,1,,,,,,,,,,,,,,,,,,,,,,,,-0.031666644,-0.373333359,0,0,0,,,,,,,SAILOR,LB,m,y,./images/SAILORLB.png,,,,,,,,,,,,,,,,,,,,,m,1,0.8021,,,,,,,,0,90,90,67,1
,,,,,,,,,,,,,,,,,5eeacbcbb570dc1ab706417a,24,2022-02-12_14h52.43.638,lexical_decision_task_DD_L2,2021.2.3,Win32,59.28736586,,,,,,,,,,,,0.6716,1,,,,,,,,,,,,,,,,,,,,,,,,-0.031666644,-0.373333359,0,0,0,,,,,,,BERRY,C,m,y,./images/BERRY.png,,,,,,,,,,,,,,,,,,,,,m,1,0.6716,,,,,,,,0,91,91,47,1
,,,,,,,,,,,,,,,,,5eeacbcbb570dc1ab706417a,24,2022-02-12_14h52.43.638,lexical_decision_task_DD_L2,2021.2.3,Win32,59.28736586,,,,,,,,,,,,1.4899,1,,,,,,,,,,,,,,,,,,,,,,,,-0.031666644,-0.373333359,0,0,0,,,,,,,RHINO,HB,m,y,./images/RHINOHB.png,,,,,,,,,,,,,,,,,,,,,m,1,1.4899,,,,,,,,0,92,92,9,1
,,,,,,,,,,,,,,,,,5eeacbcbb570dc1ab706417a,24,2022-02-12_14h52.43.638,lexical_decision_task_DD_L2,2021.2.3,Win32,59.28736586,,,,,,,,,,,,0.8265,1,,,,,,,,,,,,,,,,,,,,,,,,-0.031666644,-0.373333359,0,0,0,,,,,,,MUFFIN,LB,m,y,./images/MUFFINLB.png,,,,,,,,,,,,,,,,,,,,,m,1,0.8265,,,,,,,,0,93,93,55,1
,,,,,,,,,,,,,,,,,5eeacbcbb570dc1ab706417a,24,2022-02-12_14h52.43.638,lexical_decision_task_DD_L2,2021.2.3,Win32,59.28736586,,,,,,,,,,,,1.0029,1,,,,,,,,,,,,,,,,,,,,,,,,-0.031666644,-0.373333359,0,0,0,,,,,,,GRANNY,C,z,y,./images/GRANNY.png,,,,,,,,,,,,,,,,,,,,,z,1,1.0029,,,,,,,,0,94,94,104,1
,,,,,,,,,,,,,,,,,5eeacbcbb570dc1ab706417a,24,2022-02-12_14h52.43.638,lexical_decision_task_DD_L2,2021.2.3,Win32,59.28736586,,,,,,,,,,,,0.6062,1,,,,,,,,,,,,,,,,,,,,,,,,-0.031666644,-0.373333359,0,0,0,,,,,,,BARREL,C,m,y,./images/BARREL.png,,,,,,,,,,,,,,,,,,,,,m,1,0.6062,,,,,,,,0,95,95,32,1
,,,,,,,,,,,,,,,,,5eeacbcbb570dc1ab706417a,24,2022-02-12_14h52.43.638,lexical_decision_task_DD_L2,2021.2.3,Win32,59.28736586,,,,,,,,,,,,0.802,1,,,,,,,,,,,,,,,,,,,,,,,,-0.031666644,-0.373333359,0,0,0,,,,,,,BELLY,LB,m,y,./images/BELLYLB.png,,,,,,,,,,,,,,,,,,,,,m,1,0.802,,,,,,,,0,96,96,10,1
,,,,,,,,,,,,,,,,,5eeacbcbb570dc1ab706417a,24,2022-02-12_14h52.43.638,lexical_decision_task_DD_L2,2021.2.3,Win32,59.28736586,,,,,,,,,,,,0.8596,0,,,,,,,,,,,,,,,,,,,,,,,,-0.031666644,-0.373333359,0,0,0,,,,,,,DONKEY,LB,z,y,./images/DONKEYLB.png,,,,,,,,,,,,,,,,,,,,,m,0,0.8596,,,,,,,,0,97,97,103,1
,,,,,,,,,,,,,,,,,5eeacbcbb570dc1ab706417a,24,2022-02-12_14h52.43.638,lexical_decision_task_DD_L2,2021.2.3,Win32,59.28736586,,,,,,,,,,,,0.8045,1,,,,,,,,,,,,,,,,,,,,,,,,-0.031666644,-0.373333359,0,0,0,,,,,,,SCREW,HB,m,y,./images/SCREWHB.png,,,,,,,,,,,,,,,,,,,,,m,1,0.8045,,,,,,,,0,98,98,24,1
,,,,,,,,,,,,,,,,,5eeacbcbb570dc1ab706417a,24,2022-02-12_14h52.43.638,lexical_decision_task_DD_L2,2021.2.3,Win32,59.28736586,,,,,,,,,,,,1.0192,1,,,,,,,,,,,,,,,,,,,,,,,,-0.031666644,-0.373333359,0,0,0,,,,,,,SHORE,HB,m,y,./images/SHOREHB.png,,,,,,,,,,,,,,,,,,,,,m,1,1.0192,,,,,,,,0,99,99,12,1
,,,,,,,,,,,,,,,,,5eeacbcbb570dc1ab706417a,24,2022-02-12_14h52.43.638,lexical_decision_task_DD_L2,2021.2.3,Win32,59.28736586,,,,,,,,,,,,0.6609,1,,,,,,,,,,,,,,,,,,,,,,,,-0.031666644,-0.373333359,0,0,0,,,,,,,CRUMB,C,m,y,./images/CRUMB.png,,,,,,,,,,,,,,,,,,,,,m,1,0.6609,,,,,,,,0,100,100,29,1
,,,,,,,,,,,,,,,,,5eeacbcbb570dc1ab706417a,24,2022-02-12_14h52.43.638,lexical_decision_task_DD_L2,2021.2.3,Win32,59.28736586,,,,,,,,,,,,2.0791,1,,,,,,,,,,,,,,,,,,,,,,,,-0.031666644,-0.373333359,0,0,0,,,,,,,INFANT,LB,m,y,./images/INFANTLB.png,,,,,,,,,,,,,,,,,,,,,m,1,2.0791,,,,,,,,0,101,101,76,1
,,,,,,,,,,,,,,,,,5eeacbcbb570dc1ab706417a,24,2022-02-12_14h52.43.638,lexical_decision_task_DD_L2,2021.2.3,Win32,59.28736586,,,,,,,,,,,,0.9066,1,,,,,,,,,,,,,,,,,,,,,,,,-0.031666644,-0.373333359,0,0,0,,,,,,,POKER,LB,z,y,./images/POKERLB.png,,,,,,,,,,,,,,,,,,,,,z,1,0.9066,,,,,,,,0,102,102,151,1
,,,,,,,,,,,,,,,,,5eeacbcbb570dc1ab706417a,24,2022-02-12_14h52.43.638,lexical_decision_task_DD_L2,2021.2.3,Win32,59.28736586,,,,,,,,,,,,0.8016,1,,,,,,,,,,,,,,,,,,,,,,,,-0.031666644,-0.373333359,0,0,0,,,,,,,FOLDER,HB,m,y,./images/FOLDERHB.png,,,,,,,,,,,,,,,,,,,,,m,1,0.8016,,,,,,,,0,103,103,42,1
,,,,,,,,,,,,,,,,,5eeacbcbb570dc1ab706417a,24,2022-02-12_14h52.43.638,lexical_decision_task_DD_L2,2021.2.3,Win32,59.28736586,,,,,,,,,,,,0.6095,1,,,,,,,,,,,,,,,,,,,,,,,,-0.031666644,-0.373333359,0,0,0,,,,,,,FALCON,LB,m,y,./images/FALCONLB.png,,,,,,,,,,,,,,,,,,,,,m,1,0.6095,,,,,,,,0,104,104,28,1
,,,,,,,,,,,,,,,,,5eeacbcbb570dc1ab706417a,24,2022-02-12_14h52.43.638,lexical_decision_task_DD_L2,2021.2.3,Win32,59.28736586,,,,,,,,,,,,0.7098,1,,,,,,,,,,,,,,,,,,,,,,,,-0.031666644,-0.373333359,0,0,0,,,,,,,SAUCE,HB,z,y,./images/SAUCEHB.png,,,,,,,,,,,,,,,,,,,,,z,1,0.7098,,,,,,,,0,105,105,135,1
,,,,,,,,,,,,,,,,,5eeacbcbb570dc1ab706417a,24,2022-02-12_14h52.43.638,lexical_decision_task_DD_L2,2021.2.3,Win32,59.28736586,,,,,,,,,,,,0.6932,1,,,,,,,,,,,,,,,,,,,,,,,,-0.031666644,-0.373333359,0,0,0,,,,,,,URINE,LB,m,y,./images/URINELB.png,,,,,,,,,,,,,,,,,,,,,m,1,0.6932,,,,,,,,0,106,106,70,1
,,,,,,,,,,,,,,,,,5eeacbcbb570dc1ab706417a,24,2022-02-12_14h52.43.638,lexical_decision_task_DD_L2,2021.2.3,Win32,59.28736586,,,,,,,,,,,,0.6948,1,,,,,,,,,,,,,,,,,,,,,,,,-0.031666644,-0.373333359,0,0,0,,,,,,,PURSE,C,m,y,./images/PURSE.png,,,,,,,,,,,,,,,,,,,,,m,1,0.6948,,,,,,,,0,107,107,62,1
,,,,,,,,,,,,,,,,,5eeacbcbb570dc1ab706417a,24,2022-02-12_14h52.43.638,lexical_decision_task_DD_L2,2021.2.3,Win32,59.28736586,,,,,,,,,,,,3.7188,0,,,,,,,,,,,,,,,,,,,,,,,,-0.031666644,-0.373333359,0,0,0,,,,,,,COUCH,C,m,y,./images/COUCH.png,,,,,,,,,,,,,,,,,,,,,z,0,3.7188,,,,,,,,0,108,108,77,1
,,,,,,,,,,,,,,,,,5eeacbcbb570dc1ab706417a,24,2022-02-12_14h52.43.638,lexical_decision_task_DD_L2,2021.2.3,Win32,59.28736586,,,,,,,,,,,,1.2187,1,,,,,,,,,,,,,,,,,,,,,,,,-0.031666644,-0.373333359,0,0,0,,,,,,,SNACK,LB,m,y,./images/SNACKLB.png,,,,,,,,,,,,,,,,,,,,,m,1,1.2187,,,,,,,,0,109,109,73,1
,,,,,,,,,,,,,,,,,5eeacbcbb570dc1ab706417a,24,2022-02-12_14h52.43.638,lexical_decision_task_DD_L2,2021.2.3,Win32,59.28736586,,,,,,,,,,,,1.821,1,,,,,,,,,,,,,,,,,,,,,,,,-0.031666644,-0.373333359,0,0,0,,,,,,,BOILER,HB,z,y,./images/BOILERHB.png,,,,,,,,,,,,,,,,,,,,,z,1,1.821,,,,,,,,0,110,110,120,1
,,,,,,,,,,,,,,,,,5eeacbcbb570dc1ab706417a,24,2022-02-12_14h52.43.638,lexical_decision_task_DD_L2,2021.2.3,Win32,59.28736586,,,,,,,,,,,,1.2024,1,,,,,,,,,,,,,,,,,,,,,,,,-0.031666644,-0.373333359,0,0,0,,,,,,,PARCEL,HB,z,y,./images/PARCELHB.png,,,,,,,,,,,,,,,,,,,,,z,1,1.2024,,,,,,,,0,111,111,102,1
,,,,,,,,,,,,,,,,,5eeacbcbb570dc1ab706417a,24,2022-02-12_14h52.43.638,lexical_decision_task_DD_L2,2021.2.3,Win32,59.28736586,,,,,,,,,,,,1.3588,1,,,,,,,,,,,,,,,,,,,,,,,,-0.031666644,-0.373333359,0,0,0,,,,,,,MOTOR,LB,m,y,./images/MOTORLB.png,,,,,,,,,,,,,,,,,,,,,m,1,1.3588,,,,,,,,0,112,112,13,1
,,,,,,,,,,,,,,,,,5eeacbcbb570dc1ab706417a,24,2022-02-12_14h52.43.638,lexical_decision_task_DD_L2,2021.2.3,Win32,59.28736586,,,,,,,,,,,,2.0865,1,,,,,,,,,,,,,,,,,,,,,,,,-0.031666644,-0.373333359,0,0,0,,,,,,,FINGER,HB,m,y,./images/FINGERHB.png,,,,,,,,,,,,,,,,,,,,,m,1,2.0865,,,,,,,,0,113,113,3,1
,,,,,,,,,,,,,,,,,5eeacbcbb570dc1ab706417a,24,2022-02-12_14h52.43.638,lexical_decision_task_DD_L2,2021.2.3,Win32,59.28736586,,,,,,,,,,,,1.4376,0,,,,,,,,,,,,,,,,,,,,,,,,-0.031666644,-0.373333359,0,0,0,,,,,,,STEAK,LB,z,y,./images/STEAKLB.png,,,,,,,,,,,,,,,,,,,,,m,0,1.4376,,,,,,,,0,114,114,115,1
,,,,,,,,,,,,,,,,,5eeacbcbb570dc1ab706417a,24,2022-02-12_14h52.43.638,lexical_decision_task_DD_L2,2021.2.3,Win32,59.28736586,,,,,,,,,,,,0.8019,1,,,,,,,,,,,,,,,,,,,,,,,,-0.031666644,-0.373333359,0,0,0,,,,,,,BAMBOO,C,z,y,./images/BAMBOO.png,,,,,,,,,,,,,,,,,,,,,z,1,0.8019,,,,,,,,0,115,115,89,1
,,,,,,,,,,,,,,,,,5eeacbcbb570dc1ab706417a,24,2022-02-12_14h52.43.638,lexical_decision_task_DD_L2,2021.2.3,Win32,59.28736586,,,,,,,,,,,,1.2021,1,,,,,,,,,,,,,,,,,,,,,,,,-0.031666644,-0.373333359,0,0,0,,,,,,,CLOUD,C,z,y,./images/CLOUD.png,,,,,,,,,,,,,,,,,,,,,z,1,1.2021,,,,,,,,0,116,116,110,1
,,,,,,,,,,,,,,,,,5eeacbcbb570dc1ab706417a,24,2022-02-12_14h52.43.638,lexical_decision_task_DD_L2,2021.2.3,Win32,59.28736586,,,,,,,,,,,,0.92,1,,,,,,,,,,,,,,,,,,,,,,,,-0.031666644,-0.373333359,0,0,0,,,,,,,RULER,LB,z,y,./images/RULERLB.png,,,,,,,,,,,,,,,,,,,,,z,1,0.92,,,,,,,,0,117,117,163,1
,,,,,,,,,,,,,,,,,5eeacbcbb570dc1ab706417a,24,2022-02-12_14h52.43.638,lexical_decision_task_DD_L2,2021.2.3,Win32,59.28736586,,,,,,,,,,,,0.7564,1,,,,,,,,,,,,,,,,,,,,,,,,-0.031666644,-0.373333359,0,0,0,,,,,,,WRIST,LB,m,y,./images/WRISTLB.png,,,,,,,,,,,,,,,,,,,,,m,1,0.7564,,,,,,,,0,118,118,25,1
,,,,,,,,,,,,,,,,,5eeacbcbb570dc1ab706417a,24,2022-02-12_14h52.43.638,lexical_decision_task_DD_L2,2021.2.3,Win32,59.28736586,,,,,,,,,,,,2.4038,0,,,,,,,,,,,,,,,,,,,,,,,,-0.031666644,-0.373333359,0,0,0,,,,,,,SUNSET,LB,m,y,./images/SUNSETLB.png,,,,,,,,,,,,,,,,,,,,,z,0,2.4038,,,,,,,,0,119,119,82,1
,,,,,,,,,,,,,,,,,5eeacbcbb570dc1ab706417a,24,2022-02-12_14h52.43.638,lexical_decision_task_DD_L2,2021.2.3,Win32,59.28736586,,,,,,,,,,,,1.0601,1,,,,,,,,,,,,,,,,,,,,,,,,-0.031666644,-0.373333359,0,0,0,,,,,,,WALRUS,C,m,y,./images/WALRUS.png,,,,,,,,,,,,,,,,,,,,,m,1,1.0601,,,,,,,,0,120,120,23,1
,,,,,,,,,,,,,,,,,5eeacbcbb570dc1ab706417a,24,2022-02-12_14h52.43.638,lexical_decision_task_DD_L2,2021.2.3,Win32,59.28736586,,,,,,,,,,,,3.7036,1,,,,,,,,,,,,,,,,,,,,,,,,-0.031666644,-0.373333359,0,0,0,,,,,,,TWINS,HB,m,y,./images/TWINSHB.png,,,,,,,,,,,,,,,,,,,,,m,1,3.7036,,,,,,,,0,121,121,60,1
,,,,,,,,,,,,,,,,,5eeacbcbb570dc1ab706417a,24,2022-02-12_14h52.43.638,lexical_decision_task_DD_L2,2021.2.3,Win32,59.28736586,,,,,,,,,,,,0.9128,1,,,,,,,,,,,,,,,,,,,,,,,,-0.031666644,-0.373333359,0,0,0,,,,,,,CRADLE,C,m,y,./images/CRADLE.png,,,,,,,,,,,,,,,,,,,,,m,1,0.9128,,,,,,,,0,122,122,20,1
,,,,,,,,,,,,,,,,,5eeacbcbb570dc1ab706417a,24,2022-02-12_14h52.43.638,lexical_decision_task_DD_L2,2021.2.3,Win32,59.28736586,,,,,,,,,,,,0.747,0,,,,,,,,,,,,,,,,,,,,,,,,-0.031666644,-0.373333359,0,0,0,,,,,,,TOMATO,HB,m,y,./images/TOMATOHB.png,,,,,,,,,,,,,,,,,,,,,z,0,0.747,,,,,,,,0,123,123,0,1
,,,,,,,,,,,,,,,,,5eeacbcbb570dc1ab706417a,24,2022-02-12_14h52.43.638,lexical_decision_task_DD_L2,2021.2.3,Win32,59.28736586,,,,,,,,,,,,0.851,0,,,,,,,,,,,,,,,,,,,,,,,,-0.031666644,-0.373333359,0,0,0,,,,,,,STREAM,C,z,y,./images/STREAM.png,,,,,,,,,,,,,,,,,,,,,m,0,0.851,,,,,,,,0,124,124,125,1
,,,,,,,,,,,,,,,,,5eeacbcbb570dc1ab706417a,24,2022-02-12_14h52.43.638,lexical_decision_task_DD_L2,2021.2.3,Win32,59.28736586,,,,,,,,,,,,0.6283,1,,,,,,,,,,,,,,,,,,,,,,,,-0.031666644,-0.373333359,0,0,0,space,,,,,,CEMENT,C,m,y,./images/CEMENT.png,20.5813,,,,,,,,,,,,,,,,,,,,m,1,0.6283,,,,,,,,0,125,125,74,1
,,,,,,,,,,,,,,,,,5eeacbcbb570dc1ab706417a,24,2022-02-12_14h52.43.638,lexical_decision_task_DD_L2,2021.2.3,Win32,59.28736586,,,,,,,,,,,,1.6853,0,,,,,,,,,,,,,,,,,,,,,,,,-0.031666644,-0.373333359,0,0,0,,,,,,,QUILL,LB,m,y,./images/QUILLLB.png,,,,,,,,,,,,,,,,,,,,,z,0,1.6853,,,,,,,,0,126,126,31,1
,,,,,,,,,,,,,,,,,5eeacbcbb570dc1ab706417a,24,2022-02-12_14h52.43.638,lexical_decision_task_DD_L2,2021.2.3,Win32,59.28736586,,,,,,,,,,,,0.8688,0,,,,,,,,,,,,,,,,,,,,,,,,-0.031666644,-0.373333359,0,0,0,,,,,,,RAZOR,LB,z,y,./images/RAZORLB.png,,,,,,,,,,,,,,,,,,,,,m,0,0.8688,,,,,,,,0,127,127,118,1
,,,,,,,,,,,,,,,,,5eeacbcbb570dc1ab706417a,24,2022-02-12_14h52.43.638,lexical_decision_task_DD_L2,2021.2.3,Win32,59.28736586,,,,,,,,,,,,0.8024,0,,,,,,,,,,,,,,,,,,,,,,,,-0.031666644,-0.373333359,0,0,0,,,,,,,FERRY,HB,z,y,./images/FERRYHB.png,,,,,,,,,,,,,,,,,,,,,m,0,0.8024,,,,,,,,0,128,128,141,1
