key_resp.keys,instr_done_touch.x,instr_done_touch.y,instr_done_touch.leftButton,instr_done_touch.midButton,instr_done_touch.rightButton,instr_done_touch.clicked_name,instruction_pages.thisRepN,instruction_pages.thisTrialN,instruction_pages.thisN,instruction_pages.thisIndex,instruction_pages.ran,pageN,phase,instruct_text,has_image,instruct_image,participant,age,date,expName,psychopyVersion,OS,frameRate,response.keys,response.corr,touch_resp.x,touch_resp.y,touch_resp.leftButton,touch_resp.midButton,touch_resp.rightButton,touch_resp.time,touch_resp.clicked_name,rt,corr,practrials.thisRepN,practrials.thisTrialN,practrials.thisN,practrials.thisIndex,practrials.ran,TrialID,Target,corrAns,end_of_practice_trials_pages.thisRepN,end_of_practice_trials_pages.thisTrialN,end_of_practice_trials_pages.thisN,end_of_practice_trials_pages.thisIndex,end_of_practice_trials_pages.ran,key_resp_2.keys,key_resp_2.corr,targ_click.x,targ_click.y,targ_click.leftButton,targ_click.midButton,targ_click.rightButton,targ_click.time,targ_click.clicked_name,break_done_touch.x,break_done_touch.y,break_done_touch.leftButton,break_done_touch.midButton,break_done_touch.rightButton,break_done_keyboard.keys,maintrials.thisRepN,maintrials.thisTrialN,maintrials.thisN,maintrials.thisIndex,maintrials.ran,string,blur,study,lex,stim_path,break_done_touch.clicked_name,mouse_2.x,mouse_2.y,mouse_2.leftButton,mouse_2.midButton,mouse_2.rightButton,mouse_2.clicked_name,slider.response,slider.rt,trials.thisRepN,trials.thisTrialN,trials.thisN,trials.thisIndex,trials.ran,test_instructions.thisRepN,test_instructions.thisTrialN,test_instructions.thisN,test_instructions.thisIndex,test_instructions.ran,key_resp_3.keys,key_resp_3.corr,test_click.x,test_click.y,test_click.leftButton,test_click.midButton,test_click.rightButton,test_click.time,test_click.clicked_name,test_phase.thisRepN,test_phase.thisTrialN,test_phase.thisN,test_phase.thisIndex,test_phase.ran
,0.107489616,-0.38765605,1,0,0,instr_done_button,0,0,0,0,1,1,instructions,"INSTRUCTIONS
At the start of each trial, look at the plus sign  (+) in the center of the screen.  This tells you that a trial is about to begin and where to look. Second, the plus sign will disappear and a string of letters will appear. Your task is to determine if the string of letters is a word or not. If the item is a word press the M key (on keyboard)  or touch the word button (phone/tablet).  If the item is not a word,  press the  Z key (on keyboard)  or touch the nonword button (on phone/tablet). 
Press the space bar or touch  continue.",0,,5eec80174c76f2017770df8d,24,2022-02-12_18h02.12.843,lexical_decision_task_DD_L2,2021.2.3,Win32,59.02142478,,,,,,,,,,,,,,,,,,,,,,,,,,,,,,,,,,,,,,,,,,,,,,,,,,,,,,,,,,,,,,,,,,,,,,,,,,,,,,,,,,
,0.111188183,-0.370087857,1,0,0,instr_done_button,0,1,1,1,1,2,instructions,"If your device has a keyboard, press the 'Z' key for nonwords and the 'M' key for words.





Press the space bar or touch the button below to continue.",0,keyboard-example.gif,5eec80174c76f2017770df8d,24,2022-02-12_18h02.12.843,lexical_decision_task_DD_L2,2021.2.3,Win32,59.02142478,,,,,,,,,,,,,,,,,,,,,,,,,,,,,,,,,,,,,,,,,,,,,,,,,,,,,,,,,,,,,,,,,,,,,,,,,,,,,,,,,,
,0.13615351,-0.408922809,1,0,0,instr_done_button,0,2,2,2,1,3,instructions,"If you are using a touchscreen only device, use the buttons on the screen. Do not use the mouse.





Press the space bar or touch the button below to continue.",0,touchscreen-example.gif,5eec80174c76f2017770df8d,24,2022-02-12_18h02.12.843,lexical_decision_task_DD_L2,2021.2.3,Win32,59.02142478,,,,,,,,,,,,,,,,,,,,,,,,,,,,,,,,,,,,,,,,,,,,,,,,,,,,,,,,,,,,,,,,,,,,,,,,,,,,,,,,,,
,0.01779937,-0.417244585,1,0,0,instr_done_button,0,3,3,3,1,4,instructions,"It is very important that you respond as quickly and accurately as possible, as each letter string will only be on the screen for two seconds. If you do not respond within this time, the message 'Too slow!' will be displayed and the experiment will progress to the next letter string. The first 20 trials will be practice trials and you will receive feedback on your answers. 

Press the space bar or touch the button below to start the practice trials.",0,,5eec80174c76f2017770df8d,24,2022-02-12_18h02.12.843,lexical_decision_task_DD_L2,2021.2.3,Win32,59.02142478,,,,,,,,,,,,,,,,,,,,,,,,,,,,,,,,,,,,,,,,,,,,,,,,,,,,,,,,,,,,,,,,,,,,,,,,,,,,,,,,,,
,,,,,,,,,,,,,,,,,5eec80174c76f2017770df8d,24,2022-02-12_18h02.12.843,lexical_decision_task_DD_L2,2021.2.3,Win32,59.02142478,,0,-0.362228377,-0.322006488,1,0,0,1.4202,button_left,1.4202,1,0,0,0,15,1,1001,WHAISE,z,,,,,,,,,,,,,,,,,,,,,,,,,,,,,,,,,,,,,,,,,,,,,,,,,,,,,,,,,,,,,,,
,,,,,,,,,,,,,,,,,5eec80174c76f2017770df8d,24,2022-02-12_18h02.12.843,lexical_decision_task_DD_L2,2021.2.3,Win32,59.02142478,,0,-0.296578815,-0.294267236,1,0,0,1.3583,button_left,1.3583,1,0,1,1,14,1,1001,THRALE,z,,,,,,,,,,,,,,,,,,,,,,,,,,,,,,,,,,,,,,,,,,,,,,,,,,,,,,,,,,,,,,,
,,,,,,,,,,,,,,,,,5eec80174c76f2017770df8d,24,2022-02-12_18h02.12.843,lexical_decision_task_DD_L2,2021.2.3,Win32,59.02142478,,0,0.380258923,-0.288719442,1,0,0,1.0388,button_right,1.0388,1,0,2,2,5,1,1001,OBTAIN,m,,,,,,,,,,,,,,,,,,,,,,,,,,,,,,,,,,,,,,,,,,,,,,,,,,,,,,,,,,,,,,,
,,,,,,,,,,,,,,,,,5eec80174c76f2017770df8d,24,2022-02-12_18h02.12.843,lexical_decision_task_DD_L2,2021.2.3,Win32,59.02142478,,0,-0.244798878,-0.275774402,1,0,0,1.5063,button_left,1.5063,1,0,3,3,10,1,1001,INLADE,z,,,,,,,,,,,,,,,,,,,,,,,,,,,,,,,,,,,,,,,,,,,,,,,,,,,,,,,,,,,,,,,
,,,,,,,,,,,,,,,,,5eec80174c76f2017770df8d,24,2022-02-12_18h02.12.843,lexical_decision_task_DD_L2,2021.2.3,Win32,59.02142478,,0,-0.303975948,-0.350670381,1,0,0,1.0874,button_left,1.0874,1,0,4,4,8,1,1001,ASLERT,z,,,,,,,,,,,,,,,,,,,,,,,,,,,,,,,,,,,,,,,,,,,,,,,,,,,,,,,,,,,,,,,
,,,,,,,,,,,,,,,,,5eec80174c76f2017770df8d,24,2022-02-12_18h02.12.843,lexical_decision_task_DD_L2,2021.2.3,Win32,59.02142478,,0,0.236014815,-0.257281568,1,0,0,0.989,button_right,0.989,1,0,5,5,1,1,1001,ADJUST,m,,,,,,,,,,,,,,,,,,,,,,,,,,,,,,,,,,,,,,,,,,,,,,,,,,,,,,,,,,,,,,,
,,,,,,,,,,,,,,,,,5eec80174c76f2017770df8d,24,2022-02-12_18h02.12.843,lexical_decision_task_DD_L2,2021.2.3,Win32,59.02142478,,0,0.258206216,-0.308136918,1,0,0,2.0146,button_right,2.0146,1,0,6,6,2,1,1001,ALMOND,m,,,,,,,,,,,,,,,,,,,,,,,,,,,,,,,,,,,,,,,,,,,,,,,,,,,,,,,,,,,,,,,
,,,,,,,,,,,,,,,,,5eec80174c76f2017770df8d,24,2022-02-12_18h02.12.843,lexical_decision_task_DD_L2,2021.2.3,Win32,59.02142478,,0,-0.303051307,-0.304438352,1,0,0,0.9228,button_left,0.9228,1,0,7,7,13,1,1001,ROUPET,z,,,,,,,,,,,,,,,,,,,,,,,,,,,,,,,,,,,,,,,,,,,,,,,,,,,,,,,,,,,,,,,
,,,,,,,,,,,,,,,,,5eec80174c76f2017770df8d,24,2022-02-12_18h02.12.843,lexical_decision_task_DD_L2,2021.2.3,Win32,59.02142478,,0,0.395977945,-0.319232563,1,0,0,0.9397,button_right,0.9397,1,0,8,8,3,1,1001,MATRIX,m,,,,,,,,,,,,,,,,,,,,,,,,,,,,,,,,,,,,,,,,,,,,,,,,,,,,,,,,,,,,,,,
,,,,,,,,,,,,,,,,,5eec80174c76f2017770df8d,24,2022-02-12_18h02.12.843,lexical_decision_task_DD_L2,2021.2.3,Win32,59.02142478,,0,0.288719393,-0.219371257,1,0,0,1.1904,button_right,1.1904,1,0,9,9,7,1,1001,VOLUME,m,,,,,,,,,,,,,,,,,,,,,,,,,,,,,,,,,,,,,,,,,,,,,,,,,,,,,,,,,,,,,,,
,,,,,,,,,,,,,,,,,5eec80174c76f2017770df8d,24,2022-02-12_18h02.12.843,lexical_decision_task_DD_L2,2021.2.3,Win32,59.02142478,,0,-0.317845574,-0.28039761,1,0,0,0.9061,button_left,0.9061,1,0,10,10,9,1,1001,FARINY,z,,,,,,,,,,,,,,,,,,,,,,,,,,,,,,,,,,,,,,,,,,,,,,,,,,,,,,,,,,,,,,,
,,,,,,,,,,,,,,,,,5eec80174c76f2017770df8d,24,2022-02-12_18h02.12.843,lexical_decision_task_DD_L2,2021.2.3,Win32,59.02142478,,0,0.285020826,-0.248959848,1,0,0,0.9253,button_right,0.9253,1,0,11,11,4,1,1001,SQUEAK,m,,,,,,,,,,,,,,,,,,,,,,,,,,,,,,,,,,,,,,,,,,,,,,,,,,,,,,,,,,,,,,,
,,,,,,,,,,,,,,,,,5eec80174c76f2017770df8d,24,2022-02-12_18h02.12.843,lexical_decision_task_DD_L2,2021.2.3,Win32,59.02142478,,0,-0.313222366,-0.323855828,1,0,0,0.7734,button_left,0.7734,1,0,12,12,11,1,1001,RASHET,z,,,,,,,,,,,,,,,,,,,,,,,,,,,,,,,,,,,,,,,,,,,,,,,,,,,,,,,,,,,,,,,
,,,,,,,,,,,,,,,,,5eec80174c76f2017770df8d,24,2022-02-12_18h02.12.843,lexical_decision_task_DD_L2,2021.2.3,Win32,59.02142478,,0,0.258206216,-0.277623685,1,0,0,0.7247,button_right,0.7247,1,0,13,13,0,1,1001,UTOPIA,m,,,,,,,,,,,,,,,,,,,,,,,,,,,,,,,,,,,,,,,,,,,,,,,,,,,,,,,,,,,,,,,
,,,,,,,,,,,,,,,,,5eec80174c76f2017770df8d,24,2022-02-12_18h02.12.843,lexical_decision_task_DD_L2,2021.2.3,Win32,59.02142478,,0,0.258206216,-0.277623685,1,0,0,0.6577,button_right,0.6577,1,0,14,14,6,1,1001,ZOMBIE,m,,,,,,,,,,,,,,,,,,,,,,,,,,,,,,,,,,,,,,,,,,,,,,,,,,,,,,,,,,,,,,,
,,,,,,,,,,,,,,,,,5eec80174c76f2017770df8d,24,2022-02-12_18h02.12.843,lexical_decision_task_DD_L2,2021.2.3,Win32,59.02142478,,0,-0.36407766,-0.308136918,1,0,0,1.0916,button_left,1.0916,1,0,15,15,12,1,1001,SPRINY,z,,,,,,,,,,,,,,,,,,,,,,,,,,,,,,,,,,,,,,,,,,,,,,,,,,,,,,,,,,,,,,,
,0.047387905,-0.381183614,1,0,0,instr_done_button,,,,,,1,end_of_practice,"You have completed the practice trials. During the experimental trials, you will not receive feedback. 
Before you begin, please ensure that you are in a comfortable and quiet location and will not be disturbed for about 15 minutes, as we cannot use your data if you do not complete all the trials. 
 When you are ready to start the experimental trials, please press space or touch the button below.",,,5eec80174c76f2017770df8d,24,2022-02-12_18h02.12.843,lexical_decision_task_DD_L2,2021.2.3,Win32,59.02142478,,,,,,,,,,,,,,,,,,,,0,0,0,0,1,,,,,,,,,,,,,,,,,,,,,,,,,,,,,,,,,,,,,,,,,,,,,,,,,,,,,,,,,,
,,,,,,,,,,,,,,,,,5eec80174c76f2017770df8d,24,2022-02-12_18h02.12.843,lexical_decision_task_DD_L2,2021.2.3,Win32,59.02142478,,,,,,,,,,0.8394,1,,,,,,,,,,,,,,,0,0.391354624,-0.261904776,1,0,0,0.8394,button_right_main,0.391354624,-0.261904776,1,0,0,,0,0,0,23,1,WALRUS,C,old,m,./images/WALRUS.png,,,,,,,,,,,,,,,,,,,,,,,,,,,,,,,,,
,,,,,,,,,,,,,,,,,5eec80174c76f2017770df8d,24,2022-02-12_18h02.12.843,lexical_decision_task_DD_L2,2021.2.3,Win32,59.02142478,,,,,,,,,,1.3476,1,,,,,,,,,,,,,,,0,-0.252196012,-0.279472969,1,0,0,1.3476,button_left_main,-0.252196012,-0.279472969,1,0,0,,0,1,1,107,1,FASKS,LB,old,z,./images/FASKSLB.png,,,,,,,,,,,,,,,,,,,,,,,,,,,,,,,,,
,,,,,,,,,,,,,,,,,5eec80174c76f2017770df8d,24,2022-02-12_18h02.12.843,lexical_decision_task_DD_L2,2021.2.3,Win32,59.02142478,,,,,,,,,,0.8892,1,,,,,,,,,,,,,,,0,0.524503144,-0.349745739,1,0,0,0.8892,button_right_main,0.524503144,-0.349745739,1,0,0,,0,2,2,36,1,THROAT,HB,old,m,./images/THROATHB.png,,,,,,,,,,,,,,,,,,,,,,,,,,,,,,,,,
,,,,,,,,,,,,,,,,,5eec80174c76f2017770df8d,24,2022-02-12_18h02.12.843,lexical_decision_task_DD_L2,2021.2.3,Win32,59.02142478,,,,,,,,,,0.8902,1,,,,,,,,,,,,,,,0,0.421867801,-0.281322252,1,0,0,0.8902,button_right_main,0.421867801,-0.281322252,1,0,0,,0,3,3,27,1,ATTIC,HB,old,m,./images/ATTICHB.png,,,,,,,,,,,,,,,,,,,,,,,,,,,,,,,,,
,,,,,,,,,,,,,,,,,5eec80174c76f2017770df8d,24,2022-02-12_18h02.12.843,lexical_decision_task_DD_L2,2021.2.3,Win32,59.02142478,,,,,,,,,,0.9241,1,,,,,,,,,,,,,,,0,-0.338187692,-0.294267236,1,0,0,0.9241,button_left_main,-0.338187692,-0.294267236,1,0,0,,0,4,4,137,1,JOOST,LB,old,z,./images/JOOSTLB.png,,,,,,,,,,,,,,,,,,,,,,,,,,,,,,,,,
,,,,,,,,,,,,,,,,,5eec80174c76f2017770df8d,24,2022-02-12_18h02.12.843,lexical_decision_task_DD_L2,2021.2.3,Win32,59.02142478,,,,,,,,,,0.8428,1,,,,,,,,,,,,,,,0,-0.296578815,-0.332177547,1,0,0,0.8428,button_left_main,-0.296578815,-0.332177547,1,0,0,,0,5,5,146,1,MOOST,LB,old,z,./images/MOOSTLB.png,,,,,,,,,,,,,,,,,,,,,,,,,,,,,,,,,
,,,,,,,,,,,,,,,,,5eec80174c76f2017770df8d,24,2022-02-12_18h02.12.843,lexical_decision_task_DD_L2,2021.2.3,Win32,59.02142478,,,,,,,,,,1.7927,1,,,,,,,,,,,,,,,0,-0.317845574,-0.283171592,1,0,0,1.7927,button_left_main,-0.317845574,-0.283171592,1,0,0,,0,6,6,97,1,CHIDS,HB,old,z,./images/CHIDSHB.png,,,,,,,,,,,,,,,,,,,,,,,,,,,,,,,,,
,,,,,,,,,,,,,,,,,5eec80174c76f2017770df8d,24,2022-02-12_18h02.12.843,lexical_decision_task_DD_L2,2021.2.3,Win32,59.02142478,,,,,,,,,,0.8232,1,,,,,,,,,,,,,,,0,0.345122538,-0.263754116,1,0,0,0.8232,button_right_main,0.345122538,-0.263754116,1,0,0,,0,7,7,57,1,MOOSE,HB,old,m,./images/MOOSEHB.png,,,,,,,,,,,,,,,,,,,,,,,,,,,,,,,,,
,,,,,,,,,,,,,,,,,5eec80174c76f2017770df8d,24,2022-02-12_18h02.12.843,lexical_decision_task_DD_L2,2021.2.3,Win32,59.02142478,,,,,,,,,,1.3079,1,,,,,,,,,,,,,,,0,-0.240175613,-0.294267236,1,0,0,1.3079,button_left_main,-0.240175613,-0.294267236,1,0,0,,0,8,8,130,1,CRILL,HB,old,z,./images/CRILLHB.png,,,,,,,,,,,,,,,,,,,,,,,,,,,,,,,,,
,,,,,,,,,,,,,,,,,5eec80174c76f2017770df8d,24,2022-02-12_18h02.12.843,lexical_decision_task_DD_L2,2021.2.3,Win32,59.02142478,,,,,,,,,,1.0384,1,,,,,,,,,,,,,,,0,-0.485205697,-0.336800755,1,0,0,1.0384,button_left_main,-0.485205697,-0.336800755,1,0,0,,0,9,9,116,1,BALGY,LB,old,z,./images/BALGYLB.png,,,,,,,,,,,,,,,,,,,,,,,,,,,,,,,,,
,,,,,,,,,,,,,,,,,5eec80174c76f2017770df8d,24,2022-02-12_18h02.12.843,lexical_decision_task_DD_L2,2021.2.3,Win32,59.02142478,,,,,,,,,,1.111,1,,,,,,,,,,,,,,,0,-0.38534442,-0.30351371,1,0,0,1.111,button_left_main,-0.38534442,-0.30351371,1,0,0,,0,10,10,121,1,CEERS,HB,old,z,./images/CEERSHB.png,,,,,,,,,,,,,,,,,,,,,,,,,,,,,,,,,
,,,,,,,,,,,,,,,,,5eec80174c76f2017770df8d,24,2022-02-12_18h02.12.843,lexical_decision_task_DD_L2,2021.2.3,Win32,59.02142478,,,,,,,,,,0.9577,1,,,,,,,,,,,,,,,0,-0.425104014,-0.276699044,1,0,0,0.9577,button_left_main,-0.425104014,-0.276699044,1,0,0,,0,11,11,134,1,TROSS,LB,old,z,./images/TROSSLB.png,,,,,,,,,,,,,,,,,,,,,,,,,,,,,,,,,
,,,,,,,,,,,,,,,,,5eec80174c76f2017770df8d,24,2022-02-12_18h02.12.843,lexical_decision_task_DD_L2,2021.2.3,Win32,59.02142478,,,,,,,,,,0.9114,1,,,,,,,,,,,,,,,0,0.258206216,-0.230466958,1,0,0,0.9114,button_right_main,0.258206216,-0.230466958,1,0,0,,0,12,12,22,1,MELON,LB,old,m,./images/MELONLB.png,,,,,,,,,,,,,,,,,,,,,,,,,,,,,,,,,
,,,,,,,,,,,,,,,,,5eec80174c76f2017770df8d,24,2022-02-12_18h02.12.843,lexical_decision_task_DD_L2,2021.2.3,Win32,59.02142478,,,,,,,,,,1.1934,1,,,,,,,,,,,,,,,0,-0.26699028,-0.216597332,1,0,0,1.1934,button_left_main,-0.26699028,-0.216597332,1,0,0,,0,13,13,143,1,MONGS,LB,old,z,./images/MONGSLB.png,,,,,,,,,,,,,,,,,,,,,,,,,,,,,,,,,
,,,,,,,,,,,,,,,,,5eec80174c76f2017770df8d,24,2022-02-12_18h02.12.843,lexical_decision_task_DD_L2,2021.2.3,Win32,59.02142478,,,,,,,,,,0.9283,1,,,,,,,,,,,,,,,0,0.259130858,-0.257281568,1,0,0,0.9283,button_right_main,0.259130858,-0.257281568,1,0,0,,0,14,14,49,1,DRUMS,LB,old,m,./images/DRUMSLB.png,,,,,,,,,,,,,,,,,,,,,,,,,,,,,,,,,
,,,,,,,,,,,,,,,,,5eec80174c76f2017770df8d,24,2022-02-12_18h02.12.843,lexical_decision_task_DD_L2,2021.2.3,Win32,59.02142478,,,,,,,,,,1.0281,1,,,,,,,,,,,,,,,0,0.248959799,-0.316458637,1,0,0,1.0281,button_right_main,0.248959799,-0.316458637,1,0,0,,0,15,15,37,1,BIRTH,LB,old,m,./images/BIRTHLB.png,,,,,,,,,,,,,,,,,,,,,,,,,,,,,,,,,
,,,,,,,,,,,,,,,,,5eec80174c76f2017770df8d,24,2022-02-12_18h02.12.843,lexical_decision_task_DD_L2,2021.2.3,Win32,59.02142478,,,,,,,,,,1.5716,1,,,,,,,,,,,,,,,0,0.185159521,-0.228617787,1,0,0,1.5716,button_right_main,0.267452634,-0.234165525,1,0,0,,0,16,16,11,1,BONNET,C,old,m,./images/BONNET.png,,,,,,,,,,,,,,,,,,,,,,,,,,,,,,,,,
,,,,,,,,,,,,,,,,,5eec80174c76f2017770df8d,24,2022-02-12_18h02.12.843,lexical_decision_task_DD_L2,2021.2.3,Win32,59.02142478,,,,,,,,,,1.9606,1,,,,,,,,,,,,,,,0,-0.30490059,-0.285020875,1,0,0,1.9606,button_left_main,-0.30490059,-0.285020875,1,0,0,,0,17,17,162,1,LEICH,C,old,z,./images/LEICH.png,,,,,,,,,,,,,,,,,,,,,,,,,,,,,,,,,
,,,,,,,,,,,,,,,,,5eec80174c76f2017770df8d,24,2022-02-12_18h02.12.843,lexical_decision_task_DD_L2,2021.2.3,Win32,59.02142478,,,,,,,,,,0.9077,1,,,,,,,,,,,,,,,0,0.242487307,-0.248035263,1,0,0,0.9077,button_right_main,0.242487307,-0.248035263,1,0,0,,0,18,18,51,1,ONION,HB,old,m,./images/ONIONHB.png,,,,,,,,,,,,,,,,,,,,,,,,,,,,,,,,,
,,,,,,,,,,,,,,,,,5eec80174c76f2017770df8d,24,2022-02-12_18h02.12.843,lexical_decision_task_DD_L2,2021.2.3,Win32,59.02142478,,,,,,,,,,0.8862,1,,,,,,,,,,,,,,,0,0.312760078,-0.34142402,1,0,0,0.8862,button_right_main,0.312760078,-0.34142402,1,0,0,,0,19,19,68,1,TORCH,C,old,m,./images/TORCH.png,,,,,,,,,,,,,,,,,,,,,,,,,,,,,,,,,
,,,,,,,,,,,,,,,,,5eec80174c76f2017770df8d,24,2022-02-12_18h02.12.843,lexical_decision_task_DD_L2,2021.2.3,Win32,59.02142478,,,,,,,,,,1.3549,1,,,,,,,,,,,,,,,0,-0.252196012,-0.261904776,1,0,0,1.3549,button_left_main,-0.252196012,-0.261904776,1,0,0,,0,20,20,136,1,WERVE,HB,old,z,./images/WERVEHB.png,,,,,,,,,,,,,,,,,,,,,,,,,,,,,,,,,
,,,,,,,,,,,,,,,,,5eec80174c76f2017770df8d,24,2022-02-12_18h02.12.843,lexical_decision_task_DD_L2,2021.2.3,Win32,59.02142478,,,,,,,,,,0.944,1,,,,,,,,,,,,,,,0,-0.31044844,-0.32847898,1,0,0,0.944,button_left_main,-0.31044844,-0.32847898,1,0,0,,0,21,21,125,1,MOOKY,LB,old,z,./images/MOOKYLB.png,,,,,,,,,,,,,,,,,,,,,,,,,,,,,,,,,
,,,,,,,,,,,,,,,,,5eec80174c76f2017770df8d,24,2022-02-12_18h02.12.843,lexical_decision_task_DD_L2,2021.2.3,Win32,59.02142478,,,,,,,,,,0.7676,1,,,,,,,,,,,,,,,0,-0.361303735,-0.327554338,1,0,0,0.7676,button_left_main,-0.361303735,-0.327554338,1,0,0,,0,22,22,86,1,AIFED,LB,old,z,./images/AIFEDLB.png,,,,,,,,,,,,,,,,,,,,,,,,,,,,,,,,,
,,,,,,,,,,,,,,,,,5eec80174c76f2017770df8d,24,2022-02-12_18h02.12.843,lexical_decision_task_DD_L2,2021.2.3,Win32,59.02142478,,,,,,,,,,0.948,1,,,,,,,,,,,,,,,0,0.390430095,-0.270226552,1,0,0,0.948,button_right_main,0.390430095,-0.270226552,1,0,0,,0,23,23,79,1,CRUST,LB,old,m,./images/CRUSTLB.png,,,,,,,,,,,,,,,,,,,,,,,,,,,,,,,,,
,,,,,,,,,,,,,,,,,5eec80174c76f2017770df8d,24,2022-02-12_18h02.12.843,lexical_decision_task_DD_L2,2021.2.3,Win32,59.02142478,,,,,,,,,,1.0249,1,,,,,,,,,,,,,,,0,0.379334282,-0.250809075,1,0,0,1.0249,button_right_main,0.379334282,-0.250809075,1,0,0,,0,24,24,71,1,PIMPLE,C,old,m,./images/PIMPLE.png,,,,,,,,,,,,,,,,,,,,,,,,,,,,,,,,,
,,,,,,,,,,,,,,,,,5eec80174c76f2017770df8d,24,2022-02-12_18h02.12.843,lexical_decision_task_DD_L2,2021.2.3,Win32,59.02142478,,,,,,,,,,1.0743,1,,,,,,,,,,,,,,,0,-0.321544141,-0.265603399,1,0,0,1.0743,button_left_main,-0.321544141,-0.265603399,1,0,0,,0,25,25,85,1,CHULK,HB,old,z,./images/CHULKHB.png,,,,,,,,,,,,,,,,,,,,,,,,,,,,,,,,,
,,,,,,,,,,,,,,,,,5eec80174c76f2017770df8d,24,2022-02-12_18h02.12.843,lexical_decision_task_DD_L2,2021.2.3,Win32,59.02142478,,,,,,,,,,1.4264,1,,,,,,,,,,,,,,,0,-0.284558472,-0.285020875,1,0,0,1.4264,button_left_main,-0.284558472,-0.285020875,1,0,0,,0,26,26,115,1,MAWNS,HB,old,z,./images/MAWNSHB.png,,,,,,,,,,,,,,,,,,,,,,,,,,,,,,,,,
,,,,,,,,,,,,,,,,,5eec80174c76f2017770df8d,24,2022-02-12_18h02.12.843,lexical_decision_task_DD_L2,2021.2.3,Win32,59.02142478,,,,,,,,,,0.9273,1,,,,,,,,,,,,,,,0,-0.476883922,-0.358067515,1,0,0,0.9273,button_left_main,-0.476883922,-0.358067515,1,0,0,,0,27,27,164,1,SGREW,LB,old,z,./images/SGREWLB.png,,,,,,,,,,,,,,,,,,,,,,,,,,,,,,,,,
,,,,,,,,,,,,,,,,,5eec80174c76f2017770df8d,24,2022-02-12_18h02.12.843,lexical_decision_task_DD_L2,2021.2.3,Win32,59.02142478,,,,,,,,,,1.4148,1,,,,,,,,,,,,,,,0,-0.242949595,-0.262829474,1,0,0,1.4148,button_left_main,-0.242949595,-0.262829474,1,0,0,,0,28,28,102,1,DULLE,C,old,z,./images/DULLE.png,,,,,,,,,,,,,,,,,,,,,,,,,,,,,,,,,
,,,,,,,,,,,,,,,,,5eec80174c76f2017770df8d,24,2022-02-12_18h02.12.843,lexical_decision_task_DD_L2,2021.2.3,Win32,59.02142478,,,,,,,,,,0.9061,1,,,,,,,,,,,,,,,0,0.312760078,-0.239713375,1,0,0,0.9061,button_right_main,0.312760078,-0.239713375,1,0,0,,0,29,29,4,1,MUSCLE,LB,old,m,./images/MUSCLELB.png,,,,,,,,,,,,,,,,,,,,,,,,,,,,,,,,,
,,,,,,,,,,,,,,,,,5eec80174c76f2017770df8d,24,2022-02-12_18h02.12.843,lexical_decision_task_DD_L2,2021.2.3,Win32,59.02142478,,,,,,,,,,0.8135,1,,,,,,,,,,,,,,,0,-0.406611179,-0.276699044,1,0,0,0.8135,button_left_main,-0.406611179,-0.276699044,1,0,0,,0,30,30,144,1,NAIRY,C,old,z,./images/NAIRY.png,,,,,,,,,,,,,,,,,,,,,,,,,,,,,,,,,
,,,,,,,,,,,,,,,,,5eec80174c76f2017770df8d,24,2022-02-12_18h02.12.843,lexical_decision_task_DD_L2,2021.2.3,Win32,59.02142478,,,,,,,,,,0.9989,1,,,,,,,,,,,,,,,0,-0.365002302,-0.288719386,1,0,0,0.9989,button_left_main,-0.365002302,-0.288719386,1,0,0,,0,31,31,154,1,THINT,HB,old,z,./images/THINTHB.png,,,,,,,,,,,,,,,,,,,,,,,,,,,,,,,,,
,,,,,,,,,,,,,,,,,5eec80174c76f2017770df8d,24,2022-02-12_18h02.12.843,lexical_decision_task_DD_L2,2021.2.3,Win32,59.02142478,,,,,,,,,,0.8267,1,,,,,,,,,,,,,,,0,0.232316248,-0.389505333,1,0,0,0.8267,button_right_main,0.232316248,-0.389505333,1,0,0,,0,32,32,70,1,URINE,LB,old,m,./images/URINELB.png,,,,,,,,,,,,,,,,,,,,,,,,,,,,,,,,,
,,,,,,,,,,,,,,,,,5eec80174c76f2017770df8d,24,2022-02-12_18h02.12.843,lexical_decision_task_DD_L2,2021.2.3,Win32,59.02142478,,,,,,,,,,1.0367,1,,,,,,,,,,,,,,,0,-0.35298196,-0.28039761,1,0,0,1.0367,button_left_main,-0.35298196,-0.28039761,1,0,0,,0,33,33,118,1,BAVEL,HB,old,z,./images/BAVELHB.png,,,,,,,,,,,,,,,,,,,,,,,,,,,,,,,,,
,,,,,,,,,,,,,,,,,5eec80174c76f2017770df8d,24,2022-02-12_18h02.12.843,lexical_decision_task_DD_L2,2021.2.3,Win32,59.02142478,,,,,,,,,,0.9382,1,,,,,,,,,,,,,,,0,0.300739736,-0.236014808,1,0,0,0.9382,button_right_main,0.300739736,-0.236014808,1,0,0,,0,34,34,12,1,SHORE,HB,old,m,./images/SHOREHB.png,,,,,,,,,,,,,,,,,,,,,,,,,,,,,,,,,
,,,,,,,,,,,,,,,,,5eec80174c76f2017770df8d,24,2022-02-12_18h02.12.843,lexical_decision_task_DD_L2,2021.2.3,Win32,59.02142478,,,,,,,,,,0.9746,1,,,,,,,,,,,,,,,0,-0.302126665,-0.310910787,1,0,0,0.9746,button_left_main,-0.302126665,-0.310910787,1,0,0,,0,35,35,88,1,GLUSH,HB,old,z,./images/GLUSHHB.png,,,,,,,,,,,,,,,,,,,,,,,,,,,,,,,,,
,,,,,,,,,,,,,,,,,5eec80174c76f2017770df8d,24,2022-02-12_18h02.12.843,lexical_decision_task_DD_L2,2021.2.3,Win32,59.02142478,,,,,,,,,,1.0408,1,,,,,,,,,,,,,,,0,-0.323393425,-0.273925118,1,0,0,1.0408,button_left_main,-0.323393425,-0.273925118,1,0,0,,0,36,36,138,1,PLICE,C,old,z,./images/PLICE.png,,,,,,,,,,,,,,,,,,,,,,,,,,,,,,,,,
,,,,,,,,,,,,,,,,,5eec80174c76f2017770df8d,24,2022-02-12_18h02.12.843,lexical_decision_task_DD_L2,2021.2.3,Win32,59.02142478,,,,,,,,,,0.894,1,,,,,,,,,,,,,,,0,-0.321544141,-0.27484976,1,0,0,0.894,button_left_main,-0.321544141,-0.27484976,1,0,0,,0,37,37,135,1,JOODY,C,old,z,./images/JOODY.png,,,,,,,,,,,,,,,,,,,,,,,,,,,,,,,,,
,,,,,,,,,,,,,,,,,5eec80174c76f2017770df8d,24,2022-02-12_18h02.12.843,lexical_decision_task_DD_L2,2021.2.3,Win32,59.02142478,,,,,,,,,,1.6843,1,,,,,,,,,,,,,,,0,0.325705062,-0.233240883,1,0,0,1.6843,button_right_main,0.325705062,-0.233240883,1,0,0,,0,38,38,20,1,CRADLE,C,old,m,./images/CRADLE.png,,,,,,,,,,,,,,,,,,,,,,,,,,,,,,,,,
,,,,,,,,,,,,,,,,,5eec80174c76f2017770df8d,24,2022-02-12_18h02.12.843,lexical_decision_task_DD_L2,2021.2.3,Win32,59.02142478,,,,,,,,,,1.1768,1,,,,,,,,,,,,,,,0,-0.264216355,-0.308136862,1,0,0,1.1768,button_left_main,-0.264216355,-0.308136862,1,0,0,,0,39,39,165,1,TROWN,C,old,z,./images/TROWN.png,,,,,,,,,,,,,,,,,,,,,,,,,,,,,,,,,
,,,,,,,,,,,,,,,,,5eec80174c76f2017770df8d,24,2022-02-12_18h02.12.843,lexical_decision_task_DD_L2,2021.2.3,Win32,59.02142478,,,,,,,,,,0.7567,1,,,,,,,,,,,,,,,0,-0.255894523,-0.310910787,1,0,0,0.7567,button_left_main,-0.255894523,-0.310910787,1,0,0,,0,40,40,131,1,NACES,LB,old,z,./images/NACESLB.png,,,,,,,,,,,,,,,,,,,,,,,,,,,,,,,,,
,,,,,,,,,,,,,,,,,5eec80174c76f2017770df8d,24,2022-02-12_18h02.12.843,lexical_decision_task_DD_L2,2021.2.3,Win32,59.02142478,,,,,,,,,,0.76,1,,,,,,,,,,,,,,,0,0.350670388,-0.224919164,1,0,0,0.76,button_right_main,-0.008090542,-0.418169283,1,0,0,,0,41,41,38,1,LADDER,C,old,m,./images/LADDER.png,break_done_button,,,,,,,,,,,,,,,,,,,,,,,,,,,,,,,,
,,,,,,,,,,,,,,,,,5eec80174c76f2017770df8d,24,2022-02-12_18h02.12.843,lexical_decision_task_DD_L2,2021.2.3,Win32,59.02142478,,,,,,,,,,0.9105,1,,,,,,,,,,,,,,,0,0.336800763,-0.255432284,1,0,0,0.9105,button_right_main,0.336800763,-0.255432284,1,0,0,,0,42,42,80,1,WEASEL,C,old,m,./images/WEASEL.png,,,,,,,,,,,,,,,,,,,,,,,,,,,,,,,,,
,,,,,,,,,,,,,,,,,5eec80174c76f2017770df8d,24,2022-02-12_18h02.12.843,lexical_decision_task_DD_L2,2021.2.3,Win32,59.02142478,,,,,,,,,,0.931,1,,,,,,,,,,,,,,,0,0.412621383,-0.283171592,1,0,0,0.931,button_right_main,0.412621383,-0.283171592,1,0,0,,0,43,43,13,1,MOTOR,LB,old,m,./images/MOTORLB.png,,,,,,,,,,,,,,,,,,,,,,,,,,,,,,,,,
,,,,,,,,,,,,,,,,,5eec80174c76f2017770df8d,24,2022-02-12_18h02.12.843,lexical_decision_task_DD_L2,2021.2.3,Win32,59.02142478,,,,,,,,,,1.4099,1,,,,,,,,,,,,,,,0,0.300739736,-0.326629753,1,0,0,1.4099,button_right_main,0.300739736,-0.326629753,1,0,0,,0,44,44,29,1,CRUMB,C,old,m,./images/CRUMB.png,,,,,,,,,,,,,,,,,,,,,,,,,,,,,,,,,
,,,,,,,,,,,,,,,,,5eec80174c76f2017770df8d,24,2022-02-12_18h02.12.843,lexical_decision_task_DD_L2,2021.2.3,Win32,59.02142478,,,,,,,,,,1.0971,1,,,,,,,,,,,,,,,0,0.234165532,-0.325705168,1,0,0,1.0971,button_right_main,0.234165532,-0.325705168,1,0,0,,0,45,45,66,1,SWEAT,HB,old,m,./images/SWEATHB.png,,,,,,,,,,,,,,,,,,,,,,,,,,,,,,,,,
,,,,,,,,,,,,,,,,,5eec80174c76f2017770df8d,24,2022-02-12_18h02.12.843,lexical_decision_task_DD_L2,2021.2.3,Win32,59.02142478,,,,,,,,,,0.8889,1,,,,,,,,,,,,,,,0,0.356218239,-0.227693089,1,0,0,0.8889,button_right_main,0.356218239,-0.227693089,1,0,0,,0,46,46,43,1,MOSQUE,LB,old,m,./images/MOSQUELB.png,,,,,,,,,,,,,,,,,,,,,,,,,,,,,,,,,
,,,,,,,,,,,,,,,,,5eec80174c76f2017770df8d,24,2022-02-12_18h02.12.843,lexical_decision_task_DD_L2,2021.2.3,Win32,59.02142478,,,,,,,,,,0.9128,1,,,,,,,,,,,,,,,0,-0.329865917,-0.32847898,1,0,0,0.9128,button_left_main,-0.329865917,-0.32847898,1,0,0,,0,47,47,127,1,NINDY,HB,old,z,./images/NINDYHB.png,,,,,,,,,,,,,,,,,,,,,,,,,,,,,,,,,
,,,,,,,,,,,,,,,,,5eec80174c76f2017770df8d,24,2022-02-12_18h02.12.843,lexical_decision_task_DD_L2,2021.2.3,Win32,59.02142478,,,,,,,,,,0.9765,1,,,,,,,,,,,,,,,0,-0.374248719,-0.350670381,1,0,0,0.9765,button_left_main,-0.374248719,-0.350670381,1,0,0,,0,48,48,160,1,VEETS,HB,old,z,./images/VEETSHB.png,,,,,,,,,,,,,,,,,,,,,,,,,,,,,,,,,
,,,,,,,,,,,,,,,,,5eec80174c76f2017770df8d,24,2022-02-12_18h02.12.843,lexical_decision_task_DD_L2,2021.2.3,Win32,59.02142478,,,,,,,,,,1.0111,1,,,,,,,,,,,,,,,0,0.289644035,-0.248035263,1,0,0,1.0111,button_right_main,0.289644035,-0.248035263,1,0,0,,0,49,49,76,1,INFANT,LB,old,m,./images/INFANTLB.png,,,,,,,,,,,,,,,,,,,,,,,,,,,,,,,,,
,,,,,,,,,,,,,,,,,5eec80174c76f2017770df8d,24,2022-02-12_18h02.12.843,lexical_decision_task_DD_L2,2021.2.3,Win32,59.02142478,,,,,,,,,,0.9787,1,,,,,,,,,,,,,,,0,-0.370550152,-0.272075835,1,0,0,0.9787,button_left_main,-0.370550152,-0.272075835,1,0,0,,0,50,50,93,1,SMONE,C,old,z,./images/SMONE.png,,,,,,,,,,,,,,,,,,,,,,,,,,,,,,,,,
,,,,,,,,,,,,,,,,,5eec80174c76f2017770df8d,24,2022-02-12_18h02.12.843,lexical_decision_task_DD_L2,2021.2.3,Win32,59.02142478,,,,,,,,,,0.9265,1,,,,,,,,,,,,,,,0,-0.339112334,-0.277623685,1,0,0,0.9265,button_left_main,-0.339112334,-0.277623685,1,0,0,,0,51,51,106,1,CLUMS,HB,old,z,./images/CLUMSHB.png,,,,,,,,,,,,,,,,,,,,,,,,,,,,,,,,,
,,,,,,,,,,,,,,,,,5eec80174c76f2017770df8d,24,2022-02-12_18h02.12.843,lexical_decision_task_DD_L2,2021.2.3,Win32,59.02142478,,,,,,,,,,0.9261,1,,,,,,,,,,,,,,,0,0.367313939,-0.265603399,1,0,0,0.9261,button_right_main,0.367313939,-0.265603399,1,0,0,,0,52,52,67,1,SAILOR,LB,old,m,./images/SAILORLB.png,,,,,,,,,,,,,,,,,,,,,,,,,,,,,,,,,
,,,,,,,,,,,,,,,,,5eec80174c76f2017770df8d,24,2022-02-12_18h02.12.843,lexical_decision_task_DD_L2,2021.2.3,Win32,59.02142478,,,,,,,,,,1.0752,1,,,,,,,,,,,,,,,0,-0.279010622,-0.306287691,1,0,0,1.0752,button_left_main,-0.279010622,-0.306287691,1,0,0,,0,53,53,120,1,RINED,C,old,z,./images/RINED.png,,,,,,,,,,,,,,,,,,,,,,,,,,,,,,,,,
,,,,,,,,,,,,,,,,,5eec80174c76f2017770df8d,24,2022-02-12_18h02.12.843,lexical_decision_task_DD_L2,2021.2.3,Win32,59.02142478,,,,,,,,,,1.0283,1,,,,,,,,,,,,,,,0,0.477346304,-0.262829474,1,0,0,1.0283,button_right_main,0.477346304,-0.262829474,1,0,0,,0,54,54,21,1,KIDNEY,HB,old,m,./images/KIDNEYHB.png,,,,,,,,,,,,,,,,,,,,,,,,,,,,,,,,,
,,,,,,,,,,,,,,,,,5eec80174c76f2017770df8d,24,2022-02-12_18h02.12.843,lexical_decision_task_DD_L2,2021.2.3,Win32,59.02142478,,,,,,,,,,1.1775,1,,,,,,,,,,,,,,,0,-0.29935274,-0.272075835,1,0,0,1.1775,button_left_main,-0.29935274,-0.272075835,1,0,0,,0,55,55,91,1,SHENS,HB,old,z,./images/SHENSHB.png,,,,,,,,,,,,,,,,,,,,,,,,,,,,,,,,,
,,,,,,,,,,,,,,,,,5eec80174c76f2017770df8d,24,2022-02-12_18h02.12.843,lexical_decision_task_DD_L2,2021.2.3,Win32,59.02142478,,,,,,,,,,0.8426,1,,,,,,,,,,,,,,,0,0.375635715,-0.202727706,1,0,0,0.8426,button_right_main,0.375635715,-0.202727706,1,0,0,,0,56,56,75,1,GRAIN,HB,old,m,./images/GRAINHB.png,,,,,,,,,,,,,,,,,,,,,,,,,,,,,,,,,
,,,,,,,,,,,,,,,,,5eec80174c76f2017770df8d,24,2022-02-12_18h02.12.843,lexical_decision_task_DD_L2,2021.2.3,Win32,59.02142478,,,,,,,,,,1.3091,1,,,,,,,,,,,,,,,0,-0.328941275,-0.343273304,1,0,0,1.3091,button_left_main,-0.328941275,-0.343273304,1,0,0,,0,57,57,157,1,INLER,HB,old,z,./images/INLERHB.png,,,,,,,,,,,,,,,,,,,,,,,,,,,,,,,,,
,,,,,,,,,,,,,,,,,5eec80174c76f2017770df8d,24,2022-02-12_18h02.12.843,lexical_decision_task_DD_L2,2021.2.3,Win32,59.02142478,,,,,,,,,,0.8081,1,,,,,,,,,,,,,,,0,-0.324318066,-0.305362993,1,0,0,0.8081,button_left_main,-0.324318066,-0.305362993,1,0,0,,0,58,58,90,1,NEAST,C,old,z,./images/NEAST.png,,,,,,,,,,,,,,,,,,,,,,,,,,,,,,,,,
,,,,,,,,,,,,,,,,,5eec80174c76f2017770df8d,24,2022-02-12_18h02.12.843,lexical_decision_task_DD_L2,2021.2.3,Win32,59.02142478,,,,,,,,,,1.0595,1,,,,,,,,,,,,,,,0,0.419093875,-0.26930191,1,0,0,1.0595,button_right_main,0.419093875,-0.26930191,1,0,0,,0,59,59,60,1,TWINS,HB,old,m,./images/TWINSHB.png,,,,,,,,,,,,,,,,,,,,,,,,,,,,,,,,,
,,,,,,,,,,,,,,,,,5eec80174c76f2017770df8d,24,2022-02-12_18h02.12.843,lexical_decision_task_DD_L2,2021.2.3,Win32,59.02142478,,,,,,,,,,0.8931,1,,,,,,,,,,,,,,,0,0.31368472,-0.302589068,1,0,0,0.8931,button_right_main,0.31368472,-0.302589068,1,0,0,,0,60,60,25,1,WRIST,LB,old,m,./images/WRISTLB.png,,,,,,,,,,,,,,,,,,,,,,,,,,,,,,,,,
,,,,,,,,,,,,,,,,,5eec80174c76f2017770df8d,24,2022-02-12_18h02.12.843,lexical_decision_task_DD_L2,2021.2.3,Win32,59.02142478,,,,,,,,,,0.7408,1,,,,,,,,,,,,,,,0,0.290568677,-0.289644028,1,0,0,0.7408,button_right_main,0.290568677,-0.289644028,1,0,0,,0,61,61,35,1,PEACH,C,old,m,./images/PEACH.png,,,,,,,,,,,,,,,,,,,,,,,,,,,,,,,,,
,,,,,,,,,,,,,,,,,5eec80174c76f2017770df8d,24,2022-02-12_18h02.12.843,lexical_decision_task_DD_L2,2021.2.3,Win32,59.02142478,,,,,,,,,,1.49,1,,,,,,,,,,,,,,,0,0.333102196,-0.299815087,1,0,0,1.49,button_right_main,0.333102196,-0.299815087,1,0,0,,0,62,62,6,1,SQUARE,HB,old,m,./images/SQUAREHB.png,,,,,,,,,,,,,,,,,,,,,,,,,,,,,,,,,
,,,,,,,,,,,,,,,,,5eec80174c76f2017770df8d,24,2022-02-12_18h02.12.843,lexical_decision_task_DD_L2,2021.2.3,Win32,59.02142478,,,,,,,,,,0.9984,0,,,,,,,,,,,,,,,0,-0.309523799,-0.300739728,1,0,0,0.9984,button_left_main,-0.309523799,-0.300739728,1,0,0,,0,63,63,33,1,MAGGOT,HB,old,m,./images/MAGGOTHB.png,,,,,,,,,,,,,,,,,,,,,,,,,,,,,,,,,
,,,,,,,,,,,,,,,,,5eec80174c76f2017770df8d,24,2022-02-12_18h02.12.843,lexical_decision_task_DD_L2,2021.2.3,Win32,59.02142478,,,,,,,,,,0.856,1,,,,,,,,,,,,,,,0,-0.247572804,-0.301664426,1,0,0,0.856,button_left_main,-0.247572804,-0.301664426,1,0,0,,0,64,64,122,1,BLOOT,LB,old,z,./images/BLOOTLB.png,,,,,,,,,,,,,,,,,,,,,,,,,,,,,,,,,
,,,,,,,,,,,,,,,,,5eec80174c76f2017770df8d,24,2022-02-12_18h02.12.843,lexical_decision_task_DD_L2,2021.2.3,Win32,59.02142478,,,,,,,,,,1.0904,1,,,,,,,,,,,,,,,0,-0.353906601,-0.294267236,1,0,0,1.0904,button_left_main,-0.353906601,-0.294267236,1,0,0,,0,65,65,141,1,PLEET,C,old,z,./images/PLEET.png,,,,,,,,,,,,,,,,,,,,,,,,,,,,,,,,,
,,,,,,,,,,,,,,,,,5eec80174c76f2017770df8d,24,2022-02-12_18h02.12.843,lexical_decision_task_DD_L2,2021.2.3,Win32,59.02142478,,,,,,,,,,0.9027,1,,,,,,,,,,,,,,,0,0.277623693,-0.336800755,1,0,0,0.9027,button_right_main,0.277623693,-0.336800755,1,0,0,,0,66,66,5,1,PASTA,C,old,m,./images/PASTA.png,,,,,,,,,,,,,,,,,,,,,,,,,,,,,,,,,
,,,,,,,,,,,,,,,,,5eec80174c76f2017770df8d,24,2022-02-12_18h02.12.843,lexical_decision_task_DD_L2,2021.2.3,Win32,59.02142478,,,,,,,,,,1.1563,1,,,,,,,,,,,,,,,0,0.358992164,-0.28039761,1,0,0,1.1563,button_right_main,0.358992164,-0.28039761,1,0,0,,0,67,67,52,1,BANNER,LB,old,m,./images/BANNERLB.png,,,,,,,,,,,,,,,,,,,,,,,,,,,,,,,,,
,,,,,,,,,,,,,,,,,5eec80174c76f2017770df8d,24,2022-02-12_18h02.12.843,lexical_decision_task_DD_L2,2021.2.3,Win32,59.02142478,,,,,,,,,,0.9421,1,,,,,,,,,,,,,,,0,-0.389967628,-0.240638017,1,0,0,0.9421,button_left_main,-0.389967628,-0.240638017,1,0,0,,0,68,68,123,1,SEDGE,C,old,z,./images/SEDGE.png,,,,,,,,,,,,,,,,,,,,,,,,,,,,,,,,,
,,,,,,,,,,,,,,,,,5eec80174c76f2017770df8d,24,2022-02-12_18h02.12.843,lexical_decision_task_DD_L2,2021.2.3,Win32,59.02142478,,,,,,,,,,0.8711,1,,,,,,,,,,,,,,,0,0.330328271,-0.229542372,1,0,0,0.8711,button_right_main,0.330328271,-0.229542372,1,0,0,,0,69,69,24,1,SCREW,HB,old,m,./images/SCREWHB.png,,,,,,,,,,,,,,,,,,,,,,,,,,,,,,,,,
,,,,,,,,,,,,,,,,,5eec80174c76f2017770df8d,24,2022-02-12_18h02.12.843,lexical_decision_task_DD_L2,2021.2.3,Win32,59.02142478,,,,,,,,,,0.7392,1,,,,,,,,,,,,,,,0,0.328478987,-0.273925118,1,0,0,0.7392,button_right_main,0.328478987,-0.273925118,1,0,0,,0,70,70,46,1,PEARL,LB,old,m,./images/PEARLLB.png,,,,,,,,,,,,,,,,,,,,,,,,,,,,,,,,,
,,,,,,,,,,,,,,,,,5eec80174c76f2017770df8d,24,2022-02-12_18h02.12.843,lexical_decision_task_DD_L2,2021.2.3,Win32,59.02142478,,,,,,,,,,1.2492,1,,,,,,,,,,,,,,,0,-0.288257039,-0.272075835,1,0,0,1.2492,button_left_main,-0.288257039,-0.272075835,1,0,0,,0,71,71,152,1,FRAIN,LB,old,z,./images/FRAINLB.png,,,,,,,,,,,,,,,,,,,,,,,,,,,,,,,,,
,,,,,,,,,,,,,,,,,5eec80174c76f2017770df8d,24,2022-02-12_18h02.12.843,lexical_decision_task_DD_L2,2021.2.3,Win32,59.02142478,,,,,,,,,,0.8109,1,,,,,,,,,,,,,,,0,0.237864099,-0.279472969,1,0,0,0.8109,button_right_main,0.237864099,-0.279472969,1,0,0,,0,72,72,41,1,STRING,C,old,m,./images/STRING.png,,,,,,,,,,,,,,,,,,,,,,,,,,,,,,,,,
,,,,,,,,,,,,,,,,,5eec80174c76f2017770df8d,24,2022-02-12_18h02.12.843,lexical_decision_task_DD_L2,2021.2.3,Win32,59.02142478,,,,,,,,,,0.8905,1,,,,,,,,,,,,,,,0,0.402450325,-0.285020875,1,0,0,0.8905,button_right_main,0.402450325,-0.285020875,1,0,0,,0,73,73,47,1,BERRY,C,old,m,./images/BERRY.png,,,,,,,,,,,,,,,,,,,,,,,,,,,,,,,,,
,,,,,,,,,,,,,,,,,5eec80174c76f2017770df8d,24,2022-02-12_18h02.12.843,lexical_decision_task_DD_L2,2021.2.3,Win32,59.02142478,,,,,,,,,,0.7583,1,,,,,,,,,,,,,,,0,0.295191885,-0.322931186,1,0,0,0.7583,button_right_main,0.295191885,-0.322931186,1,0,0,,0,74,74,55,1,MUFFIN,LB,old,m,./images/MUFFINLB.png,,,,,,,,,,,,,,,,,,,,,,,,,,,,,,,,,
,,,,,,,,,,,,,,,,,5eec80174c76f2017770df8d,24,2022-02-12_18h02.12.843,lexical_decision_task_DD_L2,2021.2.3,Win32,59.02142478,,,,,,,,,,0.9283,1,,,,,,,,,,,,,,,0,-0.287332397,-0.354368948,1,0,0,0.9283,button_left_main,-0.287332397,-0.354368948,1,0,0,,0,75,75,148,1,JOMS,HB,old,z,./images/JOMSHB.png,,,,,,,,,,,,,,,,,,,,,,,,,,,,,,,,,
,,,,,,,,,,,,,,,,,5eec80174c76f2017770df8d,24,2022-02-12_18h02.12.843,lexical_decision_task_DD_L2,2021.2.3,Win32,59.02142478,,,,,,,,,,1.055,1,,,,,,,,,,,,,,,0,-0.421405447,-0.316458637,1,0,0,1.055,button_left_main,-0.421405447,-0.316458637,1,0,0,,0,76,76,109,1,BURGE,HB,old,z,./images/BURGEHB.png,,,,,,,,,,,,,,,,,,,,,,,,,,,,,,,,,
,,,,,,,,,,,,,,,,,5eec80174c76f2017770df8d,24,2022-02-12_18h02.12.843,lexical_decision_task_DD_L2,2021.2.3,Win32,59.02142478,,,,,,,,,,1.6044,1,,,,,,,,,,,,,,,0,-0.416782182,-0.36269078,1,0,0,1.6044,button_left_main,-0.416782182,-0.36269078,1,0,0,,0,77,77,111,1,HOSSE,C,old,z,./images/HOSSE.png,,,,,,,,,,,,,,,,,,,,,,,,,,,,,,,,,
,,,,,,,,,,,,,,,,,5eec80174c76f2017770df8d,24,2022-02-12_18h02.12.843,lexical_decision_task_DD_L2,2021.2.3,Win32,59.02142478,,,,,,,,,,0.8285,1,,,,,,,,,,,,,,,0,-0.277161339,-0.292417953,1,0,0,0.8285,button_left_main,-0.277161339,-0.292417953,1,0,0,,0,78,78,119,1,PAFER,LB,old,z,./images/PAFERLB.png,,,,,,,,,,,,,,,,,,,,,,,,,,,,,,,,,
,,,,,,,,,,,,,,,,,5eec80174c76f2017770df8d,24,2022-02-12_18h02.12.843,lexical_decision_task_DD_L2,2021.2.3,Win32,59.02142478,,,,,,,,,,1.0058,1,,,,,,,,,,,,,,,0,0.468099999,-0.291493311,1,0,0,1.0058,button_right_main,0.468099999,-0.291493311,1,0,0,,0,79,79,8,1,TULIP,C,old,m,./images/TULIP.png,,,,,,,,,,,,,,,,,,,,,,,,,,,,,,,,,
,,,,,,,,,,,,,,,,,5eec80174c76f2017770df8d,24,2022-02-12_18h02.12.843,lexical_decision_task_DD_L2,2021.2.3,Win32,59.02142478,,,,,,,,,,0.9572,1,,,,,,,,,,,,,,,0,-0.366851585,-0.218446615,1,0,0,0.9572,button_left_main,-0.366851585,-0.218446615,1,0,0,,0,80,80,103,1,FLORT,HB,old,z,./images/FLORTHB.png,,,,,,,,,,,,,,,,,,,,,,,,,,,,,,,,,
,,,,,,,,,,,,,,,,,5eec80174c76f2017770df8d,24,2022-02-12_18h02.12.843,lexical_decision_task_DD_L2,2021.2.3,Win32,59.02142478,,,,,,,,,,0.9467,1,,,,,,,,,,,,,,,0,0.373786431,-0.223994522,1,0,0,0.9467,button_right_main,0.373786431,-0.223994522,1,0,0,,0,81,81,18,1,JAGUAR,HB,old,m,./images/JAGUARHB.png,,,,,,,,,,,,,,,,,,,,,,,,,,,,,,,,,
,,,,,,,,,,,,,,,,,5eec80174c76f2017770df8d,24,2022-02-12_18h02.12.843,lexical_decision_task_DD_L2,2021.2.3,Win32,59.02142478,,,,,,,,,,0.9609,1,,,,,,,,,,,,,,,0,0.421867801,-0.248035263,1,0,0,0.9609,button_right_main,0.421867801,-0.248035263,1,0,0,,0,82,82,9,1,RHINO,HB,old,m,./images/RHINOHB.png,,,,,,,,,,,,,,,,,,,,,,,,,,,,,,,,,
,,,,,,,,,,,,,,,,,5eec80174c76f2017770df8d,24,2022-02-12_18h02.12.843,lexical_decision_task_DD_L2,2021.2.3,Win32,59.02142478,,,,,,,,,,1.0756,0,,,,,,,,,,,,,,,0,0.321081853,-0.297965803,1,0,0,1.0756,button_right_main,0.05201117,-0.391354617,1,0,0,,0,83,83,110,1,CRUNK,LB,old,z,./images/CRUNKLB.png,break_done_button,,,,,,,,,,,,,,,,,,,,,,,,,,,,,,,,
,,,,,,,,,,,,,,,,,5eec80174c76f2017770df8d,24,2022-02-12_18h02.12.843,lexical_decision_task_DD_L2,2021.2.3,Win32,59.02142478,,,,,,,,,,0.7414,1,,,,,,,,,,,,,,,0,0.409847571,-0.287794801,1,0,0,0.7414,button_right_main,0.409847571,-0.287794801,1,0,0,,0,84,84,48,1,SPORT,HB,old,m,./images/SPORTHB.png,,,,,,,,,,,,,,,,,,,,,,,,,,,,,,,,,
,,,,,,,,,,,,,,,,,5eec80174c76f2017770df8d,24,2022-02-12_18h02.12.843,lexical_decision_task_DD_L2,2021.2.3,Win32,59.02142478,,,,,,,,,,0.7614,1,,,,,,,,,,,,,,,0,-0.36962551,-0.378409689,1,0,0,0.7614,button_left_main,-0.36962551,-0.378409689,1,0,0,,0,85,85,98,1,BAMPS,LB,old,z,./images/BAMPSLB.png,,,,,,,,,,,,,,,,,,,,,,,,,,,,,,,,,
,,,,,,,,,,,,,,,,,5eec80174c76f2017770df8d,24,2022-02-12_18h02.12.843,lexical_decision_task_DD_L2,2021.2.3,Win32,59.02142478,,,,,,,,,,0.957,1,,,,,,,,,,,,,,,0,-0.381645853,-0.301664426,1,0,0,0.957,button_left_main,-0.381645853,-0.301664426,1,0,0,,0,86,86,114,1,RIKES,C,old,z,./images/RIKES.png,,,,,,,,,,,,,,,,,,,,,,,,,,,,,,,,,
,,,,,,,,,,,,,,,,,5eec80174c76f2017770df8d,24,2022-02-12_18h02.12.843,lexical_decision_task_DD_L2,2021.2.3,Win32,59.02142478,,,,,,,,,,0.9148,1,,,,,,,,,,,,,,,0,0.537448015,-0.289644028,1,0,0,0.9148,button_right_main,0.537448015,-0.289644028,1,0,0,,0,87,87,39,1,SHELF,HB,old,m,./images/SHELFHB.png,,,,,,,,,,,,,,,,,,,,,,,,,,,,,,,,,
,,,,,,,,,,,,,,,,,5eec80174c76f2017770df8d,24,2022-02-12_18h02.12.843,lexical_decision_task_DD_L2,2021.2.3,Win32,59.02142478,,,,,,,,,,0.9413,1,,,,,,,,,,,,,,,0,-0.317845574,-0.279472969,1,0,0,0.9413,button_left_main,-0.317845574,-0.279472969,1,0,0,,0,88,88,133,1,POWDY,HB,old,z,./images/POWDYHB.png,,,,,,,,,,,,,,,,,,,,,,,,,,,,,,,,,
,,,,,,,,,,,,,,,,,5eec80174c76f2017770df8d,24,2022-02-12_18h02.12.843,lexical_decision_task_DD_L2,2021.2.3,Win32,59.02142478,,,,,,,,,,0.8218,1,,,,,,,,,,,,,,,0,0.345122538,-0.248035263,1,0,0,0.8218,button_right_main,0.345122538,-0.248035263,1,0,0,,0,89,89,44,1,LIZARD,C,old,m,./images/LIZARD.png,,,,,,,,,,,,,,,,,,,,,,,,,,,,,,,,,
,,,,,,,,,,,,,,,,,5eec80174c76f2017770df8d,24,2022-02-12_18h02.12.843,lexical_decision_task_DD_L2,2021.2.3,Win32,59.02142478,,,,,,,,,,1.0896,1,,,,,,,,,,,,,,,0,-0.332639842,-0.285945517,1,0,0,1.0896,button_left_main,-0.332639842,-0.285945517,1,0,0,,0,90,90,159,1,CUDDY,C,old,z,./images/CUDDY.png,,,,,,,,,,,,,,,,,,,,,,,,,,,,,,,,,
,,,,,,,,,,,,,,,,,5eec80174c76f2017770df8d,24,2022-02-12_18h02.12.843,lexical_decision_task_DD_L2,2021.2.3,Win32,59.02142478,,,,,,,,,,1.3235,1,,,,,,,,,,,,,,,0,-0.296578815,-0.27484976,1,0,0,1.3235,button_left_main,-0.296578815,-0.27484976,1,0,0,,0,91,91,142,1,PLASK,HB,old,z,./images/PLASKHB.png,,,,,,,,,,,,,,,,,,,,,,,,,,,,,,,,,
,,,,,,,,,,,,,,,,,5eec80174c76f2017770df8d,24,2022-02-12_18h02.12.843,lexical_decision_task_DD_L2,2021.2.3,Win32,59.02142478,,,,,,,,,,0.9271,1,,,,,,,,,,,,,,,0,-0.383495136,-0.348821098,1,0,0,0.9271,button_left_main,-0.383495136,-0.348821098,1,0,0,,0,92,92,112,1,MYING,HB,old,z,./images/MYINGHB.png,,,,,,,,,,,,,,,,,,,,,,,,,,,,,,,,,
,,,,,,,,,,,,,,,,,5eec80174c76f2017770df8d,24,2022-02-12_18h02.12.843,lexical_decision_task_DD_L2,2021.2.3,Win32,59.02142478,,,,,,,,,,0.8878,1,,,,,,,,,,,,,,,0,0.284096185,-0.241562658,1,0,0,0.8878,button_right_main,0.284096185,-0.241562658,1,0,0,,0,93,93,74,1,CEMENT,C,old,m,./images/CEMENT.png,,,,,,,,,,,,,,,,,,,,,,,,,,,,,,,,,
,,,,,,,,,,,,,,,,,5eec80174c76f2017770df8d,24,2022-02-12_18h02.12.843,lexical_decision_task_DD_L2,2021.2.3,Win32,59.02142478,,,,,,,,,,0.9758,1,,,,,,,,,,,,,,,0,-0.329865917,-0.300739728,1,0,0,0.9758,button_left_main,-0.329865917,-0.300739728,1,0,0,,0,94,94,105,1,MOKER,C,old,z,./images/MOKER.png,,,,,,,,,,,,,,,,,,,,,,,,,,,,,,,,,
,,,,,,,,,,,,,,,,,5eec80174c76f2017770df8d,24,2022-02-12_18h02.12.843,lexical_decision_task_DD_L2,2021.2.3,Win32,59.02142478,,,,,,,,,,0.9079,1,,,,,,,,,,,,,,,0,-0.339112334,-0.290568669,1,0,0,0.9079,button_left_main,-0.339112334,-0.290568669,1,0,0,,0,95,95,140,1,DOVET,LB,old,z,./images/DOVETLB.png,,,,,,,,,,,,,,,,,,,,,,,,,,,,,,,,,
,,,,,,,,,,,,,,,,,5eec80174c76f2017770df8d,24,2022-02-12_18h02.12.843,lexical_decision_task_DD_L2,2021.2.3,Win32,59.02142478,,,,,,,,,,1.0278,1,,,,,,,,,,,,,,,0,-0.417706852,-0.287794801,1,0,0,1.0278,button_left_main,-0.417706852,-0.287794801,1,0,0,,0,96,96,139,1,BLEAR,HB,old,z,./images/BLEARHB.png,,,,,,,,,,,,,,,,,,,,,,,,,,,,,,,,,
,,,,,,,,,,,,,,,,,5eec80174c76f2017770df8d,24,2022-02-12_18h02.12.843,lexical_decision_task_DD_L2,2021.2.3,Win32,59.02142478,,,,,,,,,,0.9743,1,,,,,,,,,,,,,,,0,-0.338187692,-0.285945517,1,0,0,0.9743,button_left_main,-0.338187692,-0.285945517,1,0,0,,0,97,97,94,1,BLANS,HB,old,z,./images/BLANSHB.png,,,,,,,,,,,,,,,,,,,,,,,,,,,,,,,,,
,,,,,,,,,,,,,,,,,5eec80174c76f2017770df8d,24,2022-02-12_18h02.12.843,lexical_decision_task_DD_L2,2021.2.3,Win32,59.02142478,,,,,,,,,,0.9885,1,,,,,,,,,,,,,,,0,0.364540014,-0.277623685,1,0,0,0.9885,button_right_main,0.364540014,-0.277623685,1,0,0,,0,98,98,31,1,QUILL,LB,old,m,./images/QUILLLB.png,,,,,,,,,,,,,,,,,,,,,,,,,,,,,,,,,
,,,,,,,,,,,,,,,,,5eec80174c76f2017770df8d,24,2022-02-12_18h02.12.843,lexical_decision_task_DD_L2,2021.2.3,Win32,59.02142478,,,,,,,,,,0.9338,1,,,,,,,,,,,,,,,0,0.311835436,-0.295191878,1,0,0,0.9338,button_right_main,0.311835436,-0.295191878,1,0,0,,0,99,99,1,1,PLANK,LB,old,m,./images/PLANKLB.png,,,,,,,,,,,,,,,,,,,,,,,,,,,,,,,,,
,,,,,,,,,,,,,,,,,5eec80174c76f2017770df8d,24,2022-02-12_18h02.12.843,lexical_decision_task_DD_L2,2021.2.3,Win32,59.02142478,,,,,,,,,,0.9111,1,,,,,,,,,,,,,,,0,0.407073533,-0.203652348,1,0,0,0.9111,button_right_main,0.407073533,-0.203652348,1,0,0,,0,100,100,73,1,SNACK,LB,old,m,./images/SNACKLB.png,,,,,,,,,,,,,,,,,,,,,,,,,,,,,,,,,
,,,,,,,,,,,,,,,,,5eec80174c76f2017770df8d,24,2022-02-12_18h02.12.843,lexical_decision_task_DD_L2,2021.2.3,Win32,59.02142478,,,,,,,,,,0.9114,1,,,,,,,,,,,,,,,0,-0.329865917,-0.277623685,1,0,0,0.9114,button_left_main,-0.329865917,-0.277623685,1,0,0,,0,101,101,149,1,VEASE,LB,old,z,./images/VEASELB.png,,,,,,,,,,,,,,,,,,,,,,,,,,,,,,,,,
,,,,,,,,,,,,,,,,,5eec80174c76f2017770df8d,24,2022-02-12_18h02.12.843,lexical_decision_task_DD_L2,2021.2.3,Win32,59.02142478,,,,,,,,,,0.8573,1,,,,,,,,,,,,,,,0,-0.27253813,-0.272075835,1,0,0,0.8573,button_left_main,-0.27253813,-0.272075835,1,0,0,,0,102,102,151,1,TINKY,HB,old,z,./images/TINKYHB.png,,,,,,,,,,,,,,,,,,,,,,,,,,,,,,,,,
,,,,,,,,,,,,,,,,,5eec80174c76f2017770df8d,24,2022-02-12_18h02.12.843,lexical_decision_task_DD_L2,2021.2.3,Win32,59.02142478,,,,,,,,,,0.8864,1,,,,,,,,,,,,,,,0,0.333102196,-0.258206209,1,0,0,0.8864,button_right_main,0.333102196,-0.258206209,1,0,0,,0,103,103,19,1,DOUGH,LB,old,m,./images/DOUGHLB.png,,,,,,,,,,,,,,,,,,,,,,,,,,,,,,,,,
,,,,,,,,,,,,,,,,,5eec80174c76f2017770df8d,24,2022-02-12_18h02.12.843,lexical_decision_task_DD_L2,2021.2.3,Win32,59.02142478,,,,,,,,,,0.8828,1,,,,,,,,,,,,,,,0,-0.263291713,-0.309061504,1,0,0,0.8828,button_left_main,-0.263291713,-0.309061504,1,0,0,,0,104,104,84,1,HAXES,C,old,z,./images/HAXES.png,,,,,,,,,,,,,,,,,,,,,,,,,,,,,,,,,
,,,,,,,,,,,,,,,,,5eec80174c76f2017770df8d,24,2022-02-12_18h02.12.843,lexical_decision_task_DD_L2,2021.2.3,Win32,59.02142478,,,,,,,,,,0.8572,1,,,,,,,,,,,,,,,0,0.285020826,-0.315533996,1,0,0,0.8572,button_right_main,0.285020826,-0.315533996,1,0,0,,0,105,105,82,1,SUNSET,LB,old,m,./images/SUNSETLB.png,,,,,,,,,,,,,,,,,,,,,,,,,,,,,,,,,
,,,,,,,,,,,,,,,,,5eec80174c76f2017770df8d,24,2022-02-12_18h02.12.843,lexical_decision_task_DD_L2,2021.2.3,Win32,59.02142478,,,,,,,,,,1.4076,1,,,,,,,,,,,,,,,0,0.229542323,-0.319232563,1,0,0,1.4076,button_right_main,0.229542323,-0.319232563,1,0,0,,0,106,106,50,1,MALLET,C,old,m,./images/MALLET.png,,,,,,,,,,,,,,,,,,,,,,,,,,,,,,,,,
,,,,,,,,,,,,,,,,,5eec80174c76f2017770df8d,24,2022-02-12_18h02.12.843,lexical_decision_task_DD_L2,2021.2.3,Win32,59.02142478,,,,,,,,,,0.9562,1,,,,,,,,,,,,,,,0,0.229542323,-0.304438352,1,0,0,0.9562,button_right_main,0.229542323,-0.304438352,1,0,0,,0,107,107,17,1,SKIING,C,old,m,./images/SKIING.png,,,,,,,,,,,,,,,,,,,,,,,,,,,,,,,,,
,,,,,,,,,,,,,,,,,5eec80174c76f2017770df8d,24,2022-02-12_18h02.12.843,lexical_decision_task_DD_L2,2021.2.3,Win32,59.02142478,,,,,,,,,,0.9591,1,,,,,,,,,,,,,,,0,-0.33726305,-0.342348662,1,0,0,0.9591,button_left_main,-0.33726305,-0.342348662,1,0,0,,0,108,108,158,1,EGECT,LB,old,z,./images/EGECTLB.png,,,,,,,,,,,,,,,,,,,,,,,,,,,,,,,,,
,,,,,,,,,,,,,,,,,5eec80174c76f2017770df8d,24,2022-02-12_18h02.12.843,lexical_decision_task_DD_L2,2021.2.3,Win32,59.02142478,,,,,,,,,,0.7738,1,,,,,,,,,,,,,,,0,0.13615351,-0.320157204,1,0,0,0.7738,button_right_main,0.32478042,-0.255432284,1,0,0,,0,109,109,83,1,JUNGLE,C,old,m,./images/JUNGLE.png,,,,,,,,,,,,,,,,,,,,,,,,,,,,,,,,,
,,,,,,,,,,,,,,,,,5eec80174c76f2017770df8d,24,2022-02-12_18h02.12.843,lexical_decision_task_DD_L2,2021.2.3,Win32,59.02142478,,,,,,,,,,0.9607,1,,,,,,,,,,,,,,,0,-0.44452149,-0.238788733,1,0,0,0.9607,button_left_main,-0.44452149,-0.238788733,1,0,0,,0,110,110,129,1,PRANS,C,old,z,./images/PRANS.png,,,,,,,,,,,,,,,,,,,,,,,,,,,,,,,,,
,,,,,,,,,,,,,,,,,5eec80174c76f2017770df8d,24,2022-02-12_18h02.12.843,lexical_decision_task_DD_L2,2021.2.3,Win32,59.02142478,,,,,,,,,,0.9066,1,,,,,,,,,,,,,,,0,0.465325961,-0.230466958,1,0,0,0.9066,button_right_main,0.465325961,-0.230466958,1,0,0,,0,111,111,63,1,MIRROR,HB,old,m,./images/MIRRORHB.png,,,,,,,,,,,,,,,,,,,,,,,,,,,,,,,,,
,,,,,,,,,,,,,,,,,5eec80174c76f2017770df8d,24,2022-02-12_18h02.12.843,lexical_decision_task_DD_L2,2021.2.3,Win32,59.02142478,,,,,,,,,,1.0591,1,,,,,,,,,,,,,,,0,-0.433425789,-0.255432284,1,0,0,1.0591,button_left_main,-0.433425789,-0.255432284,1,0,0,,0,112,112,163,1,GAMBA,HB,old,z,./images/GAMBAHB.png,,,,,,,,,,,,,,,,,,,,,,,,,,,,,,,,,
,,,,,,,,,,,,,,,,,5eec80174c76f2017770df8d,24,2022-02-12_18h02.12.843,lexical_decision_task_DD_L2,2021.2.3,Win32,59.02142478,,,,,,,,,,0.9118,1,,,,,,,,,,,,,,,0,0.330328271,-0.258206209,1,0,0,0.9118,button_right_main,0.330328271,-0.258206209,1,0,0,,0,113,113,81,1,POODLE,HB,old,m,./images/POODLEHB.png,,,,,,,,,,,,,,,,,,,,,,,,,,,,,,,,,
,,,,,,,,,,,,,,,,,5eec80174c76f2017770df8d,24,2022-02-12_18h02.12.843,lexical_decision_task_DD_L2,2021.2.3,Win32,59.02142478,,,,,,,,,,0.8118,1,,,,,,,,,,,,,,,0,-0.344660184,-0.33957468,1,0,0,0.8118,button_left_main,-0.344660184,-0.33957468,1,0,0,,0,114,114,95,1,HANTY,LB,old,z,./images/HANTYLB.png,,,,,,,,,,,,,,,,,,,,,,,,,,,,,,,,,
,,,,,,,,,,,,,,,,,5eec80174c76f2017770df8d,24,2022-02-12_18h02.12.843,lexical_decision_task_DD_L2,2021.2.3,Win32,59.02142478,,,,,,,,,,1.3232,1,,,,,,,,,,,,,,,0,-0.225381402,-0.254507642,1,0,0,1.3232,button_left_main,-0.225381402,-0.254507642,1,0,0,,0,115,115,87,1,TRING,C,old,z,./images/TRING.png,,,,,,,,,,,,,,,,,,,,,,,,,,,,,,,,,
,,,,,,,,,,,,,,,,,5eec80174c76f2017770df8d,24,2022-02-12_18h02.12.843,lexical_decision_task_DD_L2,2021.2.3,Win32,59.02142478,,,,,,,,,,0.8586,1,,,,,,,,,,,,,,,0,-0.394590837,-0.299815087,1,0,0,0.8586,button_left_main,-0.394590837,-0.299815087,1,0,0,,0,116,116,153,1,CLUPS,C,old,z,./images/CLUPS.png,,,,,,,,,,,,,,,,,,,,,,,,,,,,,,,,,
,,,,,,,,,,,,,,,,,5eec80174c76f2017770df8d,24,2022-02-12_18h02.12.843,lexical_decision_task_DD_L2,2021.2.3,Win32,59.02142478,,,,,,,,,,0.7589,1,,,,,,,,,,,,,,,0,-0.346509467,-0.284096234,1,0,0,0.7589,button_left_main,-0.346509467,-0.284096234,1,0,0,,0,117,117,89,1,DRIEK,LB,old,z,./images/DRIEKLB.png,,,,,,,,,,,,,,,,,,,,,,,,,,,,,,,,,
,,,,,,,,,,,,,,,,,5eec80174c76f2017770df8d,24,2022-02-12_18h02.12.843,lexical_decision_task_DD_L2,2021.2.3,Win32,59.02142478,,,,,,,,,,1.0271,1,,,,,,,,,,,,,,,0,0.424641726,-0.272075835,1,0,0,1.0271,button_right_main,0.424641726,-0.272075835,1,0,0,,0,118,118,34,1,CANYON,LB,old,m,./images/CANYONLB.png,,,,,,,,,,,,,,,,,,,,,,,,,,,,,,,,,
,,,,,,,,,,,,,,,,,5eec80174c76f2017770df8d,24,2022-02-12_18h02.12.843,lexical_decision_task_DD_L2,2021.2.3,Win32,59.02142478,,,,,,,,,,0.9038,1,,,,,,,,,,,,,,,0,-0.274387413,-0.28224695,1,0,0,0.9038,button_left_main,-0.274387413,-0.28224695,1,0,0,,0,119,119,150,1,NOOLS,C,old,z,./images/NOOLS.png,,,,,,,,,,,,,,,,,,,,,,,,,,,,,,,,,
,,,,,,,,,,,,,,,,,5eec80174c76f2017770df8d,24,2022-02-12_18h02.12.843,lexical_decision_task_DD_L2,2021.2.3,Win32,59.02142478,,,,,,,,,,0.6951,1,,,,,,,,,,,,,,,0,-0.288257039,-0.33957468,1,0,0,0.6951,button_left_main,-0.288257039,-0.33957468,1,0,0,,0,120,120,99,1,BACKY,C,old,z,./images/BACKY.png,,,,,,,,,,,,,,,,,,,,,,,,,,,,,,,,,
,,,,,,,,,,,,,,,,,5eec80174c76f2017770df8d,24,2022-02-12_18h02.12.843,lexical_decision_task_DD_L2,2021.2.3,Win32,59.02142478,,,,,,,,,,0.6839,1,,,,,,,,,,,,,,,0,0.275774409,-0.285945517,1,0,0,0.6839,button_right_main,0.275774409,-0.285945517,1,0,0,,0,121,121,2,1,BEARD,C,old,m,./images/BEARD.png,,,,,,,,,,,,,,,,,,,,,,,,,,,,,,,,,
,,,,,,,,,,,,,,,,,5eec80174c76f2017770df8d,24,2022-02-12_18h02.12.843,lexical_decision_task_DD_L2,2021.2.3,Win32,59.02142478,,,,,,,,,,0.7557,1,,,,,,,,,,,,,,,0,-0.360379093,-0.323855828,1,0,0,0.7557,button_left_main,-0.360379093,-0.323855828,1,0,0,,0,122,122,100,1,DRIBS,HB,old,z,./images/DRIBSHB.png,,,,,,,,,,,,,,,,,,,,,,,,,,,,,,,,,
,,,,,,,,,,,,,,,,,5eec80174c76f2017770df8d,24,2022-02-12_18h02.12.843,lexical_decision_task_DD_L2,2021.2.3,Win32,59.02142478,,,,,,,,,,0.7236,1,,,,,,,,,,,,,,,0,0.340499329,-0.360841496,1,0,0,0.7236,button_right_main,0.340499329,-0.360841496,1,0,0,,0,123,123,77,1,COUCH,C,old,m,./images/COUCH.png,,,,,,,,,,,,,,,,,,,,,,,,,,,,,,,,,
,,,,,,,,,,,,,,,,,5eec80174c76f2017770df8d,24,2022-02-12_18h02.12.843,lexical_decision_task_DD_L2,2021.2.3,Win32,59.02142478,,,,,,,,,,0.9107,1,,,,,,,,,,,,,,,0,0.366389298,-0.266528041,1,0,0,0.9107,button_right_main,0.366389298,-0.266528041,1,0,0,,0,124,124,45,1,KITTEN,HB,old,m,./images/KITTENHB.png,,,,,,,,,,,,,,,,,,,,,,,,,,,,,,,,,
,,,,,,,,,,,,,,,,,5eec80174c76f2017770df8d,24,2022-02-12_18h02.12.843,lexical_decision_task_DD_L2,2021.2.3,Win32,59.02142478,,,,,,,,,,1.1603,1,,,,,,,,,,,,,,,0,-0.366851585,-0.279472969,1,0,0,1.1603,button_left_main,0.015025557,-0.3932039,1,0,0,,0,125,125,104,1,GITTY,LB,old,z,./images/GITTYLB.png,break_done_button,,,,,,,,,,,,,,,,,,,,,,,,,,,,,,,,
,,,,,,,,,,,,,,,,,5eec80174c76f2017770df8d,24,2022-02-12_18h02.12.843,lexical_decision_task_DD_L2,2021.2.3,Win32,59.02142478,,,,,,,,,,1.2487,1,,,,,,,,,,,,,,,0,-0.378871928,-0.295191878,1,0,0,1.2487,button_left_main,-0.378871928,-0.295191878,1,0,0,,0,126,126,166,1,SHORY,HB,old,z,./images/SHORYHB.png,,,,,,,,,,,,,,,,,,,,,,,,,,,,,,,,,
,,,,,,,,,,,,,,,,,5eec80174c76f2017770df8d,24,2022-02-12_18h02.12.843,lexical_decision_task_DD_L2,2021.2.3,Win32,59.02142478,,,,,,,,,,0.8968,1,,,,,,,,,,,,,,,0,0.263754067,-0.279472969,1,0,0,0.8968,button_right_main,0.263754067,-0.279472969,1,0,0,,0,127,127,42,1,FOLDER,HB,old,m,./images/FOLDERHB.png,,,,,,,,,,,,,,,,,,,,,,,,,,,,,,,,,
,,,,,,,,,,,,,,,,,5eec80174c76f2017770df8d,24,2022-02-12_18h02.12.843,lexical_decision_task_DD_L2,2021.2.3,Win32,59.02142478,,,,,,,,,,0.9685,1,,,,,,,,,,,,,,,0,-0.323393425,-0.29611652,1,0,0,0.9685,button_left_main,-0.323393425,-0.29611652,1,0,0,,0,128,128,155,1,CANGY,LB,old,z,./images/CANGYLB.png,,,,,,,,,,,,,,,,,,,,,,,,,,,,,,,,,
,,,,,,,,,,,,,,,,,5eec80174c76f2017770df8d,24,2022-02-12_18h02.12.843,lexical_decision_task_DD_L2,2021.2.3,Win32,59.02142478,,,,,,,,,,0.8756,1,,,,,,,,,,,,,,,0,0.535598732,-0.18331023,1,0,0,0.8756,button_right_main,0.381183565,-0.302589068,1,0,0,,0,129,129,28,1,FALCON,LB,old,m,./images/FALCONLB.png,,,,,,,,,,,,,,,,,,,,,,,,,,,,,,,,,
,,,,,,,,,,,,,,,,,5eec80174c76f2017770df8d,24,2022-02-12_18h02.12.843,lexical_decision_task_DD_L2,2021.2.3,Win32,59.02142478,,,,,,,,,,0.9115,1,,,,,,,,,,,,,,,0,-0.502773918,-0.354368948,1,0,0,0.9115,button_left_main,-0.502773918,-0.354368948,1,0,0,,0,130,130,92,1,PAIMS,LB,old,z,./images/PAIMSLB.png,,,,,,,,,,,,,,,,,,,,,,,,,,,,,,,,,
,,,,,,,,,,,,,,,,,5eec80174c76f2017770df8d,24,2022-02-12_18h02.12.843,lexical_decision_task_DD_L2,2021.2.3,Win32,59.02142478,,,,,,,,,,1.31,1,,,,,,,,,,,,,,,0,0.350670388,-0.260055493,1,0,0,1.31,button_right_main,0.350670388,-0.260055493,1,0,0,,0,131,131,69,1,COOKER,HB,old,m,./images/COOKERHB.png,,,,,,,,,,,,,,,,,,,,,,,,,,,,,,,,,
,,,,,,,,,,,,,,,,,5eec80174c76f2017770df8d,24,2022-02-12_18h02.12.843,lexical_decision_task_DD_L2,2021.2.3,Win32,59.02142478,,,,,,,,,,0.775,1,,,,,,,,,,,,,,,0,-0.33726305,-0.379334331,1,0,0,0.775,button_left_main,-0.33726305,-0.379334331,1,0,0,,0,132,132,126,1,GUELS,C,old,z,./images/GUELS.png,,,,,,,,,,,,,,,,,,,,,,,,,,,,,,,,,
,,,,,,,,,,,,,,,,,5eec80174c76f2017770df8d,24,2022-02-12_18h02.12.843,lexical_decision_task_DD_L2,2021.2.3,Win32,59.02142478,,,,,,,,,,0.8601,1,,,,,,,,,,,,,,,0,0.400601041,-0.256356926,1,0,0,0.8601,button_right_main,0.400601041,-0.256356926,1,0,0,,0,133,133,53,1,CARPET,C,old,m,./images/CARPET.png,,,,,,,,,,,,,,,,,,,,,,,,,,,,,,,,,
,,,,,,,,,,,,,,,,,5eec80174c76f2017770df8d,24,2022-02-12_18h02.12.843,lexical_decision_task_DD_L2,2021.2.3,Win32,59.02142478,,,,,,,,,,0.6735,1,,,,,,,,,,,,,,,0,-0.36962551,-0.285945517,1,0,0,0.6735,button_left_main,-0.36962551,-0.285945517,1,0,0,,0,134,134,167,1,ZONET,LB,old,z,./images/ZONETLB.png,,,,,,,,,,,,,,,,,,,,,,,,,,,,,,,,,
,,,,,,,,,,,,,,,,,5eec80174c76f2017770df8d,24,2022-02-12_18h02.12.843,lexical_decision_task_DD_L2,2021.2.3,Win32,59.02142478,,,,,,,,,,0.9779,1,,,,,,,,,,,,,,,0,0.289644035,-0.368238574,1,0,0,0.9779,button_right_main,0.289644035,-0.368238574,1,0,0,,0,135,135,78,1,LITTER,HB,old,m,./images/LITTERHB.png,,,,,,,,,,,,,,,,,,,,,,,,,,,,,,,,,
,,,,,,,,,,,,,,,,,5eec80174c76f2017770df8d,24,2022-02-12_18h02.12.843,lexical_decision_task_DD_L2,2021.2.3,Win32,59.02142478,,,,,,,,,,0.9359,1,,,,,,,,,,,,,,,0,0.35529371,-0.320157204,1,0,0,0.9359,button_right_main,0.35529371,-0.320157204,1,0,0,,0,136,136,26,1,SMOKER,C,old,m,./images/SMOKER.png,,,,,,,,,,,,,,,,,,,,,,,,,,,,,,,,,
,,,,,,,,,,,,,,,,,5eec80174c76f2017770df8d,24,2022-02-12_18h02.12.843,lexical_decision_task_DD_L2,2021.2.3,Win32,59.02142478,,,,,,,,,,1.0059,1,,,,,,,,,,,,,,,0,0.309986153,-0.197179856,1,0,0,1.0059,button_right_main,0.309986153,-0.240638017,1,0,0,,0,137,137,0,1,TOMATO,HB,old,m,./images/TOMATOHB.png,,,,,,,,,,,,,,,,,,,,,,,,,,,,,,,,,
,,,,,,,,,,,,,,,,,5eec80174c76f2017770df8d,24,2022-02-12_18h02.12.843,lexical_decision_task_DD_L2,2021.2.3,Win32,59.02142478,,,,,,,,,,1.1566,1,,,,,,,,,,,,,,,0,0.396902474,-0.287794801,1,0,0,1.1566,button_right_main,0.396902474,-0.287794801,1,0,0,,0,138,138,72,1,NOOSE,HB,old,m,./images/NOOSEHB.png,,,,,,,,,,,,,,,,,,,,,,,,,,,,,,,,,
,,,,,,,,,,,,,,,,,5eec80174c76f2017770df8d,24,2022-02-12_18h02.12.843,lexical_decision_task_DD_L2,2021.2.3,Win32,59.02142478,,,,,,,,,,0.8416,1,,,,,,,,,,,,,,,0,0.300739736,-0.285945517,1,0,0,0.8416,button_right_main,0.300739736,-0.285945517,1,0,0,,0,139,139,40,1,SWING,LB,old,m,./images/SWINGLB.png,,,,,,,,,,,,,,,,,,,,,,,,,,,,,,,,,
,,,,,,,,,,,,,,,,,5eec80174c76f2017770df8d,24,2022-02-12_18h02.12.843,lexical_decision_task_DD_L2,2021.2.3,Win32,59.02142478,,,,,,,,,,0.9201,1,,,,,,,,,,,,,,,0,-0.242024953,-0.311835429,1,0,0,0.9201,button_left_main,-0.242024953,-0.311835429,1,0,0,,0,140,140,101,1,GLEET,LB,old,z,./images/GLEETLB.png,,,,,,,,,,,,,,,,,,,,,,,,,,,,,,,,,
,,,,,,,,,,,,,,,,,5eec80174c76f2017770df8d,24,2022-02-12_18h02.12.843,lexical_decision_task_DD_L2,2021.2.3,Win32,59.02142478,,,,,,,,,,0.9239,1,,,,,,,,,,,,,,,0,0.367313939,-0.316458637,1,0,0,0.9239,button_right_main,0.367313939,-0.316458637,1,0,0,,0,141,141,10,1,BELLY,LB,old,m,./images/BELLYLB.png,,,,,,,,,,,,,,,,,,,,,,,,,,,,,,,,,
,,,,,,,,,,,,,,,,,5eec80174c76f2017770df8d,24,2022-02-12_18h02.12.843,lexical_decision_task_DD_L2,2021.2.3,Win32,59.02142478,,,,,,,,,,0.8241,1,,,,,,,,,,,,,,,0,-0.244798878,-0.28039761,1,0,0,0.8241,button_left_main,-0.244798878,-0.28039761,1,0,0,,0,142,142,124,1,TUNCH,HB,old,z,./images/TUNCHHB.png,,,,,,,,,,,,,,,,,,,,,,,,,,,,,,,,,
,,,,,,,,,,,,,,,,,5eec80174c76f2017770df8d,24,2022-02-12_18h02.12.843,lexical_decision_task_DD_L2,2021.2.3,Win32,59.02142478,,,,,,,,,,0.8644,1,,,,,,,,,,,,,,,0,0.310910794,-0.327554338,1,0,0,0.8644,button_right_main,0.310910794,-0.327554338,1,0,0,,0,143,143,14,1,PICKLE,C,old,m,./images/PICKLE.png,,,,,,,,,,,,,,,,,,,,,,,,,,,,,,,,,
,,,,,,,,,,,,,,,,,5eec80174c76f2017770df8d,24,2022-02-12_18h02.12.843,lexical_decision_task_DD_L2,2021.2.3,Win32,59.02142478,,,,,,,,,,0.8222,1,,,,,,,,,,,,,,,0,-0.254969937,-0.312760071,1,0,0,0.8222,button_left_main,-0.254969937,-0.312760071,1,0,0,,0,144,144,156,1,HIXES,C,old,z,./images/HIXES.png,,,,,,,,,,,,,,,,,,,,,,,,,,,,,,,,,
,,,,,,,,,,,,,,,,,5eec80174c76f2017770df8d,24,2022-02-12_18h02.12.843,lexical_decision_task_DD_L2,2021.2.3,Win32,59.02142478,,,,,,,,,,0.8459,1,,,,,,,,,,,,,,,0,0.308136869,-0.294267236,1,0,0,0.8459,button_right_main,0.308136869,-0.294267236,1,0,0,,0,145,145,30,1,STORM,HB,old,m,./images/STORMHB.png,,,,,,,,,,,,,,,,,,,,,,,,,,,,,,,,,
,,,,,,,,,,,,,,,,,5eec80174c76f2017770df8d,24,2022-02-12_18h02.12.843,lexical_decision_task_DD_L2,2021.2.3,Win32,59.02142478,,,,,,,,,,0.7287,1,,,,,,,,,,,,,,,0,0.293342602,-0.259130851,1,0,0,0.7287,button_right_main,0.293342602,-0.259130851,1,0,0,,0,146,146,7,1,PAINT,LB,old,m,./images/PAINTLB.png,,,,,,,,,,,,,,,,,,,,,,,,,,,,,,,,,
,,,,,,,,,,,,,,,,,5eec80174c76f2017770df8d,24,2022-02-12_18h02.12.843,lexical_decision_task_DD_L2,2021.2.3,Win32,59.02142478,,,,,,,,,,1.1102,1,,,,,,,,,,,,,,,0,0.315534003,-0.276699044,1,0,0,1.1102,button_right_main,0.315534003,-0.276699044,1,0,0,,0,147,147,16,1,PENCE,LB,old,m,./images/PENCELB.png,,,,,,,,,,,,,,,,,,,,,,,,,,,,,,,,,
,,,,,,,,,,,,,,,,,5eec80174c76f2017770df8d,24,2022-02-12_18h02.12.843,lexical_decision_task_DD_L2,2021.2.3,Win32,59.02142478,,,,,,,,,,1.0578,1,,,,,,,,,,,,,,,0,0.35529371,-0.319232563,1,0,0,1.0578,button_right_main,0.35529371,-0.319232563,1,0,0,,0,148,148,3,1,FINGER,HB,old,m,./images/FINGERHB.png,,,,,,,,,,,,,,,,,,,,,,,,,,,,,,,,,
,,,,,,,,,,,,,,,,,5eec80174c76f2017770df8d,24,2022-02-12_18h02.12.843,lexical_decision_task_DD_L2,2021.2.3,Win32,59.02142478,,,,,,,,,,0.8894,1,,,,,,,,,,,,,,,0,-0.383495136,-0.278548327,1,0,0,0.8894,button_left_main,-0.383495136,-0.278548327,1,0,0,,0,149,149,108,1,GRUET,C,old,z,./images/GRUET.png,,,,,,,,,,,,,,,,,,,,,,,,,,,,,,,,,
,,,,,,,,,,,,,,,,,5eec80174c76f2017770df8d,24,2022-02-12_18h02.12.843,lexical_decision_task_DD_L2,2021.2.3,Win32,59.02142478,,,,,,,,,,0.8087,1,,,,,,,,,,,,,,,0,-0.291955606,-0.306287691,1,0,0,0.8087,button_left_main,-0.291955606,-0.306287691,1,0,0,,0,150,150,96,1,KEAMS,C,old,z,./images/KEAMS.png,,,,,,,,,,,,,,,,,,,,,,,,,,,,,,,,,
,,,,,,,,,,,,,,,,,5eec80174c76f2017770df8d,24,2022-02-12_18h02.12.843,lexical_decision_task_DD_L2,2021.2.3,Win32,59.02142478,,,,,,,,,,1.0653,1,,,,,,,,,,,,,,,0,-0.343735542,-0.294267236,1,0,0,1.0653,button_left_main,-0.343735542,-0.294267236,1,0,0,,0,151,151,128,1,GRIFT,LB,old,z,./images/GRIFTLB.png,,,,,,,,,,,,,,,,,,,,,,,,,,,,,,,,,
,,,,,,,,,,,,,,,,,5eec80174c76f2017770df8d,24,2022-02-12_18h02.12.843,lexical_decision_task_DD_L2,2021.2.3,Win32,59.02142478,,,,,,,,,,0.9131,1,,,,,,,,,,,,,,,0,0.337725404,-0.256356926,1,0,0,0.9131,button_right_main,0.337725404,-0.256356926,1,0,0,,0,152,152,59,1,BURIAL,C,old,m,./images/BURIAL.png,,,,,,,,,,,,,,,,,,,,,,,,,,,,,,,,,
,,,,,,,,,,,,,,,,,5eec80174c76f2017770df8d,24,2022-02-12_18h02.12.843,lexical_decision_task_DD_L2,2021.2.3,Win32,59.02142478,,,,,,,,,,1.3076,0,,,,,,,,,,,,,,,0,0.271151201,-0.284096234,1,0,0,1.3076,button_right_main,0.271151201,-0.284096234,1,0,0,,0,153,153,113,1,LINEW,LB,old,z,./images/LINEWLB.png,,,,,,,,,,,,,,,,,,,,,,,,,,,,,,,,,
,,,,,,,,,,,,,,,,,5eec80174c76f2017770df8d,24,2022-02-12_18h02.12.843,lexical_decision_task_DD_L2,2021.2.3,Win32,59.02142478,,,,,,,,,,0.8068,1,,,,,,,,,,,,,,,0,0.336800763,-0.30351371,1,0,0,0.8068,button_right_main,0.336800763,-0.30351371,1,0,0,,0,154,154,32,1,BARREL,C,old,m,./images/BARREL.png,,,,,,,,,,,,,,,,,,,,,,,,,,,,,,,,,
,,,,,,,,,,,,,,,,,5eec80174c76f2017770df8d,24,2022-02-12_18h02.12.843,lexical_decision_task_DD_L2,2021.2.3,Win32,59.02142478,,,,,,,,,,0.7614,1,,,,,,,,,,,,,,,0,0.279472976,-0.291493311,1,0,0,0.7614,button_right_main,0.279472976,-0.291493311,1,0,0,,0,155,155,65,1,FARMER,C,old,m,./images/FARMER.png,,,,,,,,,,,,,,,,,,,,,,,,,,,,,,,,,
,,,,,,,,,,,,,,,,,5eec80174c76f2017770df8d,24,2022-02-12_18h02.12.843,lexical_decision_task_DD_L2,2021.2.3,Win32,59.02142478,,,,,,,,,,1.4768,1,,,,,,,,,,,,,,,0,0.236939457,-0.319232563,1,0,0,1.4768,button_right_main,0.236939457,-0.319232563,1,0,0,,0,156,156,58,1,BABOON,LB,old,m,./images/BABOONLB.png,,,,,,,,,,,,,,,,,,,,,,,,,,,,,,,,,
,,,,,,,,,,,,,,,,,5eec80174c76f2017770df8d,24,2022-02-12_18h02.12.843,lexical_decision_task_DD_L2,2021.2.3,Win32,59.02142478,,,,,,,,,,0.909,1,,,,,,,,,,,,,,,0,0.279472976,-0.287794801,1,0,0,0.909,button_right_main,0.279472976,-0.287794801,1,0,0,,0,157,157,61,1,CANDLE,LB,old,m,./images/CANDLELB.png,,,,,,,,,,,,,,,,,,,,,,,,,,,,,,,,,
,,,,,,,,,,,,,,,,,5eec80174c76f2017770df8d,24,2022-02-12_18h02.12.843,lexical_decision_task_DD_L2,2021.2.3,Win32,59.02142478,,,,,,,,,,0.823,1,,,,,,,,,,,,,,,0,-0.31044844,-0.297965803,1,0,0,0.823,button_left_main,-0.31044844,-0.297965803,1,0,0,,0,158,158,117,1,STEEG,C,old,z,./images/STEEG.png,,,,,,,,,,,,,,,,,,,,,,,,,,,,,,,,,
,,,,,,,,,,,,,,,,,5eec80174c76f2017770df8d,24,2022-02-12_18h02.12.843,lexical_decision_task_DD_L2,2021.2.3,Win32,59.02142478,,,,,,,,,,0.7942,1,,,,,,,,,,,,,,,0,-0.26699028,-0.290568669,1,0,0,0.7942,button_left_main,-0.26699028,-0.290568669,1,0,0,,0,159,159,161,1,BLAPS,LB,old,z,./images/BLAPSLB.png,,,,,,,,,,,,,,,,,,,,,,,,,,,,,,,,,
,,,,,,,,,,,,,,,,,5eec80174c76f2017770df8d,24,2022-02-12_18h02.12.843,lexical_decision_task_DD_L2,2021.2.3,Win32,59.02142478,,,,,,,,,,0.8559,1,,,,,,,,,,,,,,,0,0.392279379,-0.246185923,1,0,0,0.8559,button_right_main,0.392279379,-0.246185923,1,0,0,,0,160,160,64,1,JELLY,LB,old,m,./images/JELLYLB.png,,,,,,,,,,,,,,,,,,,,,,,,,,,,,,,,,
,,,,,,,,,,,,,,,,,5eec80174c76f2017770df8d,24,2022-02-12_18h02.12.843,lexical_decision_task_DD_L2,2021.2.3,Win32,59.02142478,,,,,,,,,,1.4305,1,,,,,,,,,,,,,,,0,-0.27808598,-0.266528041,1,0,0,1.4305,button_left_main,-0.27808598,-0.266528041,1,0,0,,0,161,161,145,1,LAMEL,HB,old,z,./images/LAMELHB.png,,,,,,,,,,,,,,,,,,,,,,,,,,,,,,,,,
,,,,,,,,,,,,,,,,,5eec80174c76f2017770df8d,24,2022-02-12_18h02.12.843,lexical_decision_task_DD_L2,2021.2.3,Win32,59.02142478,,,,,,,,,,1.143,1,,,,,,,,,,,,,,,0,0.249884441,-0.285945517,1,0,0,1.143,button_right_main,0.249884441,-0.285945517,1,0,0,,0,162,162,54,1,TRIPOD,HB,old,m,./images/TRIPODHB.png,,,,,,,,,,,,,,,,,,,,,,,,,,,,,,,,,
,,,,,,,,,,,,,,,,,5eec80174c76f2017770df8d,24,2022-02-12_18h02.12.843,lexical_decision_task_DD_L2,2021.2.3,Win32,59.02142478,,,,,,,,,,0.7484,1,,,,,,,,,,,,,,,0,-0.330790558,-0.36269078,1,0,0,0.7484,button_left_main,-0.330790558,-0.36269078,1,0,0,,0,163,163,147,1,ZOLES,C,old,z,./images/ZOLES.png,,,,,,,,,,,,,,,,,,,,,,,,,,,,,,,,,
,,,,,,,,,,,,,,,,,5eec80174c76f2017770df8d,24,2022-02-12_18h02.12.843,lexical_decision_task_DD_L2,2021.2.3,Win32,59.02142478,,,,,,,,,,1.0386,1,,,,,,,,,,,,,,,0,0.317383286,-0.285020875,1,0,0,1.0386,button_right_main,0.317383286,-0.285020875,1,0,0,,0,164,164,56,1,PACKET,C,old,m,./images/PACKET.png,,,,,,,,,,,,,,,,,,,,,,,,,,,,,,,,,
,,,,,,,,,,,,,,,,,5eec80174c76f2017770df8d,24,2022-02-12_18h02.12.843,lexical_decision_task_DD_L2,2021.2.3,Win32,59.02142478,,,,,,,,,,0.8246,1,,,,,,,,,,,,,,,0,0.352519672,-0.292417953,1,0,0,0.8246,button_right_main,0.352519672,-0.292417953,1,0,0,,0,165,165,15,1,GREASE,HB,old,m,./images/GREASEHB.png,,,,,,,,,,,,,,,,,,,,,,,,,,,,,,,,,
,,,,,,,,,,,,,,,,,5eec80174c76f2017770df8d,24,2022-02-12_18h02.12.843,lexical_decision_task_DD_L2,2021.2.3,Win32,59.02142478,,,,,,,,,,0.8095,1,,,,,,,,,,,,,,,0,-0.280859905,-0.284096234,1,0,0,0.8095,button_left_main,-0.280859905,-0.284096234,1,0,0,,0,166,166,132,1,SCIFF,C,old,z,./images/SCIFF.png,,,,,,,,,,,,,,,,,,,,,,,,,,,,,,,,,
,,,,,,,,,,,,,,,,,5eec80174c76f2017770df8d,24,2022-02-12_18h02.12.843,lexical_decision_task_DD_L2,2021.2.3,Win32,59.02142478,,,,,,,,,,0.823,1,,,,,,,,,,,,,,,0,0.298890452,-0.275774402,1,0,0,0.823,button_right_main,0.298890452,-0.275774402,1,0,0,,0,167,167,62,1,PURSE,C,old,m,./images/PURSE.png,,,,,,,,,,,,,,,,,,,,,,,,,,,,,,,,,
,,,,,,,,,,,,,,,,,5eec80174c76f2017770df8d,24,2022-02-12_18h02.12.843,lexical_decision_task_DD_L2,2021.2.3,Win32,59.02142478,,,,,,,,,,,,,,,,,,,,,,,,,,,,,,,,,,,,,,,,,,,,,,How likely will it be that you will recognize the words presented slighly blurred on a scale of 0 (not likely) to 100 (most likely)?,,,,,-0.0071659,-0.39875175,1,0,0,jol_adv,5,5.0012,0,0,0,1,1,,,,,,,,,,,,,,,,,,,
,,,,,,,,,,,,,,,,,5eec80174c76f2017770df8d,24,2022-02-12_18h02.12.843,lexical_decision_task_DD_L2,2021.2.3,Win32,59.02142478,,,,,,,,,,,,,,,,,,,,,,,,,,,,,,,,,,,,,,,,,,,,,,How likely will it be that you will recognize the words presented very blurred on a scale of 0 (not likely) to 100 (most likely)?,,,,,,,,,,,5,1.7245,0,1,1,2,1,,,,,,,,,,,,,,,,,,,
,,,,,,,,,,,,,,,,,5eec80174c76f2017770df8d,24,2022-02-12_18h02.12.843,lexical_decision_task_DD_L2,2021.2.3,Win32,59.02142478,,,,,,,,,,,,,,,,,,,,,,,,,,,,,,,,,,,,,,,,,,,,,,How likely will it be that you will recognize the words presented clearly on a scale of 0 (not likely) to 100 (most likely)?,,,,,,,,,,,5,1.1136,0,2,2,0,1,,,,,,,,,,,,,,,,,,,
,0.088996782,-0.384882181,1,0,0,instr_done_button,,,,,,1,test,"In the next phase you will be presented with the words from the the first phase. Your job is to decide whether you remember seeing the word or not. If you remember seeing the word press ""old"" or type ""m"". If you do not remember seeing the word press ""new"" or type ""z"". Please press the space bar or click on continue to begin. ",,,5eec80174c76f2017770df8d,24,2022-02-12_18h02.12.843,lexical_decision_task_DD_L2,2021.2.3,Win32,59.02142478,,,,,,,,,,,,,,,,,,,,,,,,,,,,,,,,,,,,,,,,,,,,,,,,,,,,,,,,,,,,,,,,0,0,0,0,1,,,,,,,,,,,,,,
,-0.005316617,-0.386731521,1,0,0,instr_done_button,,,,,,1,test,"In the next phase you will be presented with the words from the the first phase. Your job is to decide whether you remember seeing the word or not. If you remember seeing the word press ""old"" or type ""m"". If you do not remember seeing the word press ""new"" or type ""z"". Please press the space bar or click on continue to begin. ",,,5eec80174c76f2017770df8d,24,2022-02-12_18h02.12.843,lexical_decision_task_DD_L2,2021.2.3,Win32,59.02142478,,,,,,,,,,,,,,,,,,,,,,,,,,,,,,,,,,,,,,,,,,,,,,,,,,,,,,,,,,,,,,,,1,0,1,0,1,,,,,,,,,,,,,,
,-0.0071659,-0.390429975,1,0,0,instr_done_button,,,,,,1,test,"In the next phase you will be presented with the words from the the first phase. Your job is to decide whether you remember seeing the word or not. If you remember seeing the word press ""old"" or type ""m"". If you do not remember seeing the word press ""new"" or type ""z"". Please press the space bar or click on continue to begin. ",,,5eec80174c76f2017770df8d,24,2022-02-12_18h02.12.843,lexical_decision_task_DD_L2,2021.2.3,Win32,59.02142478,,,,,,,,,,,,,,,,,,,,,,,,,,,,,,,,,,,,,,,,,,,,,,,,,,,,,,,,,,,,,,,,2,0,2,0,1,,,,,,,,,,,,,,
,-0.070041594,-0.390429975,1,0,0,instr_done_button,,,,,,1,test,"In the next phase you will be presented with the words from the the first phase. Your job is to decide whether you remember seeing the word or not. If you remember seeing the word press ""old"" or type ""m"". If you do not remember seeing the word press ""new"" or type ""z"". Please press the space bar or click on continue to begin. ",,,5eec80174c76f2017770df8d,24,2022-02-12_18h02.12.843,lexical_decision_task_DD_L2,2021.2.3,Win32,59.02142478,,,,,,,,,,,,,,,,,,,,,,,,,,,,,,,,,,,,,,,,,,,,,,,,,,,,,,,,,,,,,,,,3,0,3,0,1,,,,,,,,,,,,,,
,-0.167128974,-0.383032898,1,0,0,instr_done_button,,,,,,1,test,"In the next phase you will be presented with the words from the the first phase. Your job is to decide whether you remember seeing the word or not. If you remember seeing the word press ""old"" or type ""m"". If you do not remember seeing the word press ""new"" or type ""z"". Please press the space bar or click on continue to begin. ",,,5eec80174c76f2017770df8d,24,2022-02-12_18h02.12.843,lexical_decision_task_DD_L2,2021.2.3,Win32,59.02142478,,,,,,,,,,,,,,,,,,,,,,,,,,,,,,,,,,,,,,,,,,,,,,,,,,,,,,,,,,,,,,,,4,0,4,0,1,,,,,,,,,,,,,,
,,,,,,,,,,,,,,,,,5eec80174c76f2017770df8d,24,2022-02-12_18h02.12.843,lexical_decision_task_DD_L2,2021.2.3,Win32,59.02142478,,,,,,,,,,2.0006,0,,,,,,,,,,,,,,,,,,,,,,,0.460702753,-0.334951472,1,0,0,,,,,,,CLOTH,C,z,y,./images/CLOTH.png,,,,,,,,,,,,,,,,,,,,,0,0.460702753,-0.334951472,1,0,0,2.0006,button_right_test,0,0,0,107,1
,,,,,,,,,,,,,,,,,5eec80174c76f2017770df8d,24,2022-02-12_18h02.12.843,lexical_decision_task_DD_L2,2021.2.3,Win32,59.02142478,,,,,,,,,,2.9234,1,,,,,,,,,,,,,,,,,,,,,,,-0.440822923,-0.286870159,1,0,0,,,,,,,SLOPE,HB,z,y,./images/SLOPEHB.png,,,,,,,,,,,,,,,,,,,,,0,-0.440822923,-0.286870159,1,0,0,2.9234,button_left_test,0,1,1,114,1
,,,,,,,,,,,,,,,,,5eec80174c76f2017770df8d,24,2022-02-12_18h02.12.843,lexical_decision_task_DD_L2,2021.2.3,Win32,59.02142478,,,,,,,,,,1.9063,0,,,,,,,,,,,,,,,,,,,,,,,-0.354831243,-0.281322252,1,0,0,,,,,,,SWEAT,HB,m,y,./images/SWEATHB.png,,,,,,,,,,,,,,,,,,,,,0,-0.354831243,-0.281322252,1,0,0,1.9063,button_left_test,0,2,2,66,1
,,,,,,,,,,,,,,,,,5eec80174c76f2017770df8d,24,2022-02-12_18h02.12.843,lexical_decision_task_DD_L2,2021.2.3,Win32,59.02142478,,,,,,,,,,0.7696,1,,,,,,,,,,,,,,,,,,,,,,,-0.354831243,-0.281322252,1,0,0,,,,,,,BRUSH,C,z,y,./images/BRUSH.png,,,,,,,,,,,,,,,,,,,,,0,-0.354831243,-0.281322252,1,0,0,0.7696,button_left_test,0,3,3,143,1
,,,,,,,,,,,,,,,,,5eec80174c76f2017770df8d,24,2022-02-12_18h02.12.843,lexical_decision_task_DD_L2,2021.2.3,Win32,59.02142478,,,,,,,,,,0.5988,1,,,,,,,,,,,,,,,,,,,,,,,-0.354831243,-0.28039761,1,0,0,,,,,,,CHERRY,HB,z,y,./images/CHERRYHB.png,,,,,,,,,,,,,,,,,,,,,0,-0.354831243,-0.28039761,1,0,0,0.5988,button_left_test,0,4,4,138,1
,,,,,,,,,,,,,,,,,5eec80174c76f2017770df8d,24,2022-02-12_18h02.12.843,lexical_decision_task_DD_L2,2021.2.3,Win32,59.02142478,,,,,,,,,,0.9906,1,,,,,,,,,,,,,,,,,,,,,,,0.482894154,-0.371937141,1,0,0,,,,,,,TOMATO,HB,m,y,./images/TOMATOHB.png,,,,,,,,,,,,,,,,,,,,,0,0.482894154,-0.371937141,1,0,0,0.9906,button_right_test,0,5,5,0,1
,,,,,,,,,,,,,,,,,5eec80174c76f2017770df8d,24,2022-02-12_18h02.12.843,lexical_decision_task_DD_L2,2021.2.3,Win32,59.02142478,,,,,,,,,,1.4083,0,,,,,,,,,,,,,,,,,,,,,,,-0.27808598,-0.276699044,1,0,0,,,,,,,PIMPLE,C,m,y,./images/PIMPLE.png,,,,,,,,,,,,,,,,,,,,,0,-0.27808598,-0.276699044,1,0,0,1.4083,button_left_test,0,6,6,71,1
,,,,,,,,,,,,,,,,,5eec80174c76f2017770df8d,24,2022-02-12_18h02.12.843,lexical_decision_task_DD_L2,2021.2.3,Win32,59.02142478,,,,,,,,,,1.3047,0,,,,,,,,,,,,,,,,,,,,,,,0.417244592,-0.282246894,1,0,0,,,,,,,BANANA,LB,z,y,./images/BANANALB.png,,,,,,,,,,,,,,,,,,,,,0,0.417244592,-0.282246894,1,0,0,1.3047,button_right_test,0,7,7,154,1
,,,,,,,,,,,,,,,,,5eec80174c76f2017770df8d,24,2022-02-12_18h02.12.843,lexical_decision_task_DD_L2,2021.2.3,Win32,59.02142478,,,,,,,,,,1.0063,0,,,,,,,,,,,,,,,,,,,,,,,0.367313939,-0.260055493,1,0,0,,,,,,,BUBBLE,C,z,y,./images/BUBBLE.png,,,,,,,,,,,,,,,,,,,,,0,0.367313939,-0.260055493,1,0,0,1.0063,button_right_test,0,8,8,155,1
,,,,,,,,,,,,,,,,,5eec80174c76f2017770df8d,24,2022-02-12_18h02.12.843,lexical_decision_task_DD_L2,2021.2.3,Win32,59.02142478,,,,,,,,,,2.6407,1,,,,,,,,,,,,,,,,,,,,,,,-0.316920932,-0.277623685,1,0,0,,,,,,,HOCKEY,C,z,y,./images/HOCKEY.png,,,,,,,,,,,,,,,,,,,,,0,-0.316920932,-0.277623685,1,0,0,2.6407,button_left_test,0,9,9,116,1
,,,,,,,,,,,,,,,,,5eec80174c76f2017770df8d,24,2022-02-12_18h02.12.843,lexical_decision_task_DD_L2,2021.2.3,Win32,59.02142478,,,,,,,,,,2.7072,0,,,,,,,,,,,,,,,,,,,,,,,-0.300277382,-0.290568669,1,0,0,,,,,,,TORCH,C,m,y,./images/TORCH.png,,,,,,,,,,,,,,,,,,,,,0,-0.300277382,-0.290568669,1,0,0,2.7072,button_left_test,0,10,10,68,1
,,,,,,,,,,,,,,,,,5eec80174c76f2017770df8d,24,2022-02-12_18h02.12.843,lexical_decision_task_DD_L2,2021.2.3,Win32,59.02142478,,,,,,,,,,4.1901,0,,,,,,,,,,,,,,,,,,,,,,,0.306287586,-0.273000477,1,0,0,,,,,,,CANDY,HB,z,y,./images/CANDYHB.png,,,,,,,,,,,,,,,,,,,,,0,0.306287586,-0.273000477,1,0,0,4.1901,button_right_test,0,11,11,123,1
,,,,,,,,,,,,,,,,,5eec80174c76f2017770df8d,24,2022-02-12_18h02.12.843,lexical_decision_task_DD_L2,2021.2.3,Win32,59.02142478,,,,,,,,,,1.6874,1,,,,,,,,,,,,,,,,,,,,,,,-0.374248719,-0.23693945,1,0,0,,,,,,,RAZOR,LB,z,y,./images/RAZORLB.png,,,,,,,,,,,,,,,,,,,,,0,-0.374248719,-0.23693945,1,0,0,1.6874,button_left_test,0,12,12,118,1
,,,,,,,,,,,,,,,,,5eec80174c76f2017770df8d,24,2022-02-12_18h02.12.843,lexical_decision_task_DD_L2,2021.2.3,Win32,59.02142478,,,,,,,,,,1.1903,1,,,,,,,,,,,,,,,,,,,,,,,0.424641726,-0.319232563,1,0,0,,,,,,,DRUMS,LB,m,y,./images/DRUMSLB.png,,,,,,,,,,,,,,,,,,,,,0,0.424641726,-0.319232563,1,0,0,1.1903,button_right_test,0,13,13,49,1
,,,,,,,,,,,,,,,,,5eec80174c76f2017770df8d,24,2022-02-12_18h02.12.843,lexical_decision_task_DD_L2,2021.2.3,Win32,59.02142478,,,,,,,,,,0.9709,1,,,,,,,,,,,,,,,,,,,,,,,0.435737539,-0.257281568,1,0,0,,,,,,,GRAIN,HB,m,y,./images/GRAINHB.png,,,,,,,,,,,,,,,,,,,,,0,0.435737539,-0.257281568,1,0,0,0.9709,button_right_test,0,14,14,75,1
,,,,,,,,,,,,,,,,,5eec80174c76f2017770df8d,24,2022-02-12_18h02.12.843,lexical_decision_task_DD_L2,2021.2.3,Win32,59.02142478,,,,,,,,,,1.1548,1,,,,,,,,,,,,,,,,,,,,,,,0.44313456,-0.294267236,1,0,0,,,,,,,PICKLE,C,m,y,./images/PICKLE.png,,,,,,,,,,,,,,,,,,,,,0,0.44313456,-0.294267236,1,0,0,1.1548,button_right_test,0,15,15,14,1
,,,,,,,,,,,,,,,,,5eec80174c76f2017770df8d,24,2022-02-12_18h02.12.843,lexical_decision_task_DD_L2,2021.2.3,Win32,59.02142478,,,,,,,,,,1.7391,1,,,,,,,,,,,,,,,,,,,,,,,-0.31044844,-0.271151193,1,0,0,,,,,,,VALLEY,C,z,y,./images/VALLEY.png,,,,,,,,,,,,,,,,,,,,,0,-0.31044844,-0.271151193,1,0,0,1.7391,button_left_test,0,16,16,152,1
,,,,,,,,,,,,,,,,,5eec80174c76f2017770df8d,24,2022-02-12_18h02.12.843,lexical_decision_task_DD_L2,2021.2.3,Win32,59.02142478,,,,,,,,,,1.7689,1,,,,,,,,,,,,,,,,,,,,,,,-0.377947286,-0.273000477,1,0,0,,,,,,,ENGINE,C,z,y,./images/ENGINE.png,,,,,,,,,,,,,,,,,,,,,0,-0.377947286,-0.273000477,1,0,0,1.7689,button_left_test,0,17,17,122,1
,,,,,,,,,,,,,,,,,5eec80174c76f2017770df8d,24,2022-02-12_18h02.12.843,lexical_decision_task_DD_L2,2021.2.3,Win32,59.02142478,,,,,,,,,,2.1069,1,,,,,,,,,,,,,,,,,,,,,,,-0.377947286,-0.273000477,1,0,0,,,,,,,DRILL,HB,z,y,./images/DRILLHB.png,,,,,,,,,,,,,,,,,,,,,0,-0.377947286,-0.273000477,1,0,0,2.1069,button_left_test,0,18,18,165,1
,,,,,,,,,,,,,,,,,5eec80174c76f2017770df8d,24,2022-02-12_18h02.12.843,lexical_decision_task_DD_L2,2021.2.3,Win32,59.02142478,,,,,,,,,,1.6213,1,,,,,,,,,,,,,,,,,,,,,,,-0.388118345,-0.272075835,1,0,0,,,,,,,ARROW,HB,z,y,./images/ARROWHB.png,,,,,,,,,,,,,,,,,,,,,0,-0.388118345,-0.272075835,1,0,0,1.6213,button_left_test,0,19,19,153,1
,,,,,,,,,,,,,,,,,5eec80174c76f2017770df8d,24,2022-02-12_18h02.12.843,lexical_decision_task_DD_L2,2021.2.3,Win32,59.02142478,,,,,,,,,,0.9223,1,,,,,,,,,,,,,,,,,,,,,,,0.383032848,-0.270226664,1,0,0,,,,,,,GREASE,HB,m,y,./images/GREASEHB.png,,,,,,,,,,,,,,,,,,,,,0,0.383032848,-0.270226664,1,0,0,0.9223,button_right_test,0,20,20,15,1
,,,,,,,,,,,,,,,,,5eec80174c76f2017770df8d,24,2022-02-12_18h02.12.843,lexical_decision_task_DD_L2,2021.2.3,Win32,59.02142478,,,,,,,,,,1.322,0,,,,,,,,,,,,,,,,,,,,,,,0.327554345,-0.273000477,1,0,0,,,,,,,BAKER,HB,z,y,./images/BAKERHB.png,,,,,,,,,,,,,,,,,,,,,0,0.327554345,-0.273000477,1,0,0,1.322,button_right_test,0,21,21,147,1
,,,,,,,,,,,,,,,,,5eec80174c76f2017770df8d,24,2022-02-12_18h02.12.843,lexical_decision_task_DD_L2,2021.2.3,Win32,59.02142478,,,,,,,,,,1.1376,1,,,,,,,,,,,,,,,,,,,,,,,-0.340961617,-0.279472969,1,0,0,,,,,,,MIDGET,LB,z,y,./images/MIDGETLB.png,,,,,,,,,,,,,,,,,,,,,0,-0.340961617,-0.279472969,1,0,0,1.1376,button_left_test,0,22,22,160,1
,,,,,,,,,,,,,,,,,5eec80174c76f2017770df8d,24,2022-02-12_18h02.12.843,lexical_decision_task_DD_L2,2021.2.3,Win32,59.02142478,,,,,,,,,,1.8212,1,,,,,,,,,,,,,,,,,,,,,,,0.345122538,-0.27484976,1,0,0,,,,,,,ONION,HB,m,y,./images/ONIONHB.png,,,,,,,,,,,,,,,,,,,,,0,0.345122538,-0.27484976,1,0,0,1.8212,button_right_test,0,23,23,51,1
,,,,,,,,,,,,,,,,,5eec80174c76f2017770df8d,24,2022-02-12_18h02.12.843,lexical_decision_task_DD_L2,2021.2.3,Win32,59.02142478,,,,,,,,,,1.0074,1,,,,,,,,,,,,,,,,,,,,,,,0.362690731,-0.269301966,1,0,0,,,,,,,MALLET,C,m,y,./images/MALLET.png,,,,,,,,,,,,,,,,,,,,,0,0.362690731,-0.269301966,1,0,0,1.0074,button_right_test,0,24,24,50,1
,,,,,,,,,,,,,,,,,5eec80174c76f2017770df8d,24,2022-02-12_18h02.12.843,lexical_decision_task_DD_L2,2021.2.3,Win32,59.02142478,,,,,,,,,,3.6242,0,,,,,,,,,,,,,,,,,,,,,,,0.528201598,-0.29611652,1,0,0,,,,,,,STATUE,HB,z,y,./images/STATUEHB.png,,,,,,,,,,,,,,,,,,,,,0,0.528201598,-0.29611652,1,0,0,3.6242,button_right_test,0,25,25,150,1
,,,,,,,,,,,,,,,,,5eec80174c76f2017770df8d,24,2022-02-12_18h02.12.843,lexical_decision_task_DD_L2,2021.2.3,Win32,59.02142478,,,,,,,,,,0.8387,1,,,,,,,,,,,,,,,,,,,,,,,0.542995979,-0.308136918,1,0,0,,,,,,,BURIAL,C,m,y,./images/BURIAL.png,,,,,,,,,,,,,,,,,,,,,0,0.542995979,-0.308136918,1,0,0,0.8387,button_right_test,0,26,26,59,1
,,,,,,,,,,,,,,,,,5eec80174c76f2017770df8d,24,2022-02-12_18h02.12.843,lexical_decision_task_DD_L2,2021.2.3,Win32,59.02142478,,,,,,,,,,1.1309,0,,,,,,,,,,,,,,,,,,,,,,,-0.303051307,-0.309061617,1,0,0,,,,,,,WRIST,LB,m,y,./images/WRISTLB.png,,,,,,,,,,,,,,,,,,,,,0,-0.303051307,-0.309061617,1,0,0,1.1309,button_left_test,0,27,27,25,1
,,,,,,,,,,,,,,,,,5eec80174c76f2017770df8d,24,2022-02-12_18h02.12.843,lexical_decision_task_DD_L2,2021.2.3,Win32,59.02142478,,,,,,,,,,2.3076,1,,,,,,,,,,,,,,,,,,,,,,,-0.282709189,-0.294267236,1,0,0,,,,,,,ALLEY,LB,z,y,./images/ALLEYLB.png,,,,,,,,,,,,,,,,,,,,,0,-0.282709189,-0.294267236,1,0,0,2.3076,button_left_test,0,28,28,139,1
,,,,,,,,,,,,,,,,,5eec80174c76f2017770df8d,24,2022-02-12_18h02.12.843,lexical_decision_task_DD_L2,2021.2.3,Win32,59.02142478,,,,,,,,,,1.0554,1,,,,,,,,,,,,,,,,,,,,,,,-0.282709189,-0.294267236,1,0,0,,,,,,,GARDEN,LB,z,y,./images/GARDENLB.png,,,,,,,,,,,,,,,,,,,,,0,-0.282709189,-0.294267236,1,0,0,1.0554,button_left_test,0,29,29,94,1
,,,,,,,,,,,,,,,,,5eec80174c76f2017770df8d,24,2022-02-12_18h02.12.843,lexical_decision_task_DD_L2,2021.2.3,Win32,59.02142478,,,,,,,,,,1.3421,0,,,,,,,,,,,,,,,,,,,,,,,0.280397618,-0.288719442,1,0,0,,,,,,,CHAIN,HB,z,y,./images/CHAINHB.png,,,,,,,,,,,,,,,,,,,,,0,0.280397618,-0.288719442,1,0,0,1.3421,button_right_test,0,30,30,126,1
,,,,,,,,,,,,,,,,,5eec80174c76f2017770df8d,24,2022-02-12_18h02.12.843,lexical_decision_task_DD_L2,2021.2.3,Win32,59.02142478,,,,,,,,,,1.0052,1,,,,,,,,,,,,,,,,,,,,,,,-0.408460463,-0.297965803,1,0,0,,,,,,,POSTER,C,z,y,./images/POSTER.png,,,,,,,,,,,,,,,,,,,,,0,-0.408460463,-0.297965803,1,0,0,1.0052,button_left_test,0,31,31,137,1
,,,,,,,,,,,,,,,,,5eec80174c76f2017770df8d,24,2022-02-12_18h02.12.843,lexical_decision_task_DD_L2,2021.2.3,Win32,59.02142478,,,,,,,,,,1.8735,1,,,,,,,,,,,,,,,,,,,,,,,-0.408460463,-0.297965803,1,0,0,,,,,,,DONKEY,LB,z,y,./images/DONKEYLB.png,,,,,,,,,,,,,,,,,,,,,0,-0.408460463,-0.297965803,1,0,0,1.8735,button_left_test,0,32,32,103,1
,,,,,,,,,,,,,,,,,5eec80174c76f2017770df8d,24,2022-02-12_18h02.12.843,lexical_decision_task_DD_L2,2021.2.3,Win32,59.02142478,,,,,,,,,,1.7898,1,,,,,,,,,,,,,,,,,,,,,,,0.472723208,-0.310910787,1,0,0,,,,,,,STORM,HB,m,y,./images/STORMHB.png,,,,,,,,,,,,,,,,,,,,,0,0.472723208,-0.310910787,1,0,0,1.7898,button_right_test,0,33,33,30,1
,,,,,,,,,,,,,,,,,5eec80174c76f2017770df8d,24,2022-02-12_18h02.12.843,lexical_decision_task_DD_L2,2021.2.3,Win32,59.02142478,,,,,,,,,,5.5521,1,,,,,,,,,,,,,,,,,,,,,,,-0.334489125,-0.278548327,1,0,0,,,,,,,PARCEL,HB,z,y,./images/PARCELHB.png,,,,,,,,,,,,,,,,,,,,,0,-0.334489125,-0.278548327,1,0,0,5.5521,button_left_test,0,34,34,102,1
,,,,,,,,,,,,,,,,,5eec80174c76f2017770df8d,24,2022-02-12_18h02.12.843,lexical_decision_task_DD_L2,2021.2.3,Win32,59.02142478,,,,,,,,,,3.6385,0,,,,,,,,,,,,,,,,,,,,,,,-0.334489125,-0.277623685,1,0,0,,,,,,,SPORT,HB,m,y,./images/SPORTHB.png,,,,,,,,,,,,,,,,,,,,,0,-0.334489125,-0.277623685,1,0,0,3.6385,button_left_test,0,35,35,48,1
,,,,,,,,,,,,,,,,,5eec80174c76f2017770df8d,24,2022-02-12_18h02.12.843,lexical_decision_task_DD_L2,2021.2.3,Win32,59.02142478,,,,,,,,,,2.7556,1,,,,,,,,,,,,,,,,,,,,,,,-0.35298196,-0.308136918,1,0,0,,,,,,,MONKEY,HB,z,y,./images/MONKEYHB.png,,,,,,,,,,,,,,,,,,,,,0,-0.35298196,-0.308136918,1,0,0,2.7556,button_left_test,0,36,36,129,1
,,,,,,,,,,,,,,,,,5eec80174c76f2017770df8d,24,2022-02-12_18h02.12.843,lexical_decision_task_DD_L2,2021.2.3,Win32,59.02142478,,,,,,,,,,1.1219,1,,,,,,,,,,,,,,,,,,,,,,,-0.434350431,-0.312760071,1,0,0,,,,,,,HAMMER,HB,z,y,./images/HAMMERHB.png,,,,,,,,,,,,,,,,,,,,,0,-0.434350431,-0.312760071,1,0,0,1.1219,button_left_test,0,37,37,159,1
,,,,,,,,,,,,,,,,,5eec80174c76f2017770df8d,24,2022-02-12_18h02.12.843,lexical_decision_task_DD_L2,2021.2.3,Win32,59.02142478,,,,,,,,,,0.7736,1,,,,,,,,,,,,,,,,,,,,,,,-0.435275016,-0.312760071,1,0,0,,,,,,,PISTOL,C,z,y,./images/PISTOL.png,,,,,,,,,,,,,,,,,,,,,0,-0.435275016,-0.312760071,1,0,0,0.7736,button_left_test,0,38,38,113,1
,,,,,,,,,,,,,,,,,5eec80174c76f2017770df8d,24,2022-02-12_18h02.12.843,lexical_decision_task_DD_L2,2021.2.3,Win32,59.02142478,,,,,,,,,,1.3894,1,,,,,,,,,,,,,,,,,,,,,,,0.492140684,-0.308136918,1,0,0,,,,,,,MOTOR,LB,m,y,./images/MOTORLB.png,,,,,,,,,,,,,,,,,,,,,0,0.492140684,-0.308136918,1,0,0,1.3894,button_right_test,0,39,39,13,1
,,,,,,,,,,,,,,,,,5eec80174c76f2017770df8d,24,2022-02-12_18h02.12.843,lexical_decision_task_DD_L2,2021.2.3,Win32,59.02142478,,,,,,,,,,0.9218,0,,,,,,,,,,,,,,,,,,,,,,,-0.27253813,-0.303513653,1,0,0,,,,,,,PEARL,LB,m,y,./images/PEARLLB.png,,,,,,,,,,,,,,,,,,,,,0,-0.27253813,-0.303513653,1,0,0,0.9218,button_left_test,0,40,40,46,1
,,,,,,,,,,,,,,,,,5eec80174c76f2017770df8d,24,2022-02-12_18h02.12.843,lexical_decision_task_DD_L2,2021.2.3,Win32,59.02142478,,,,,,,,,,0.9878,1,,,,,,,,,,,,,,,,,,,,,,,-0.006241259,-0.394128542,1,0,0,,,,,,,FOLDER,HB,m,y,./images/FOLDERHB.png,break_done_button,,,,,,,,,,,,,,,,,,,,0,0.432963501,-0.30166437,1,0,0,0.9878,button_right_test,0,41,41,42,1
,,,,,,,,,,,,,,,,,5eec80174c76f2017770df8d,24,2022-02-12_18h02.12.843,lexical_decision_task_DD_L2,2021.2.3,Win32,59.02142478,,,,,,,,,,1.1827,1,,,,,,,,,,,,,,,,,,,,,,,0.296116527,-0.332177547,1,0,0,,,,,,,TRIPOD,HB,m,y,./images/TRIPODHB.png,,,,,,,,,,,,,,,,,,,,,0,0.296116527,-0.332177547,1,0,0,1.1827,button_right_test,0,42,42,54,1
,,,,,,,,,,,,,,,,,5eec80174c76f2017770df8d,24,2022-02-12_18h02.12.843,lexical_decision_task_DD_L2,2021.2.3,Win32,59.02142478,,,,,,,,,,2.039,1,,,,,,,,,,,,,,,,,,,,,,,-0.29935274,-0.329403622,1,0,0,,,,,,,ARTIST,LB,z,y,./images/ARTISTLB.png,,,,,,,,,,,,,,,,,,,,,0,-0.29935274,-0.329403622,1,0,0,2.039,button_left_test,0,43,43,145,1
,,,,,,,,,,,,,,,,,5eec80174c76f2017770df8d,24,2022-02-12_18h02.12.843,lexical_decision_task_DD_L2,2021.2.3,Win32,59.02142478,,,,,,,,,,1.6549,1,,,,,,,,,,,,,,,,,,,,,,,-0.378871928,-0.292417953,1,0,0,,,,,,,LLAMA,C,z,y,./images/LLAMA.png,,,,,,,,,,,,,,,,,,,,,0,-0.378871928,-0.292417953,1,0,0,1.6549,button_left_test,0,44,44,119,1
,,,,,,,,,,,,,,,,,5eec80174c76f2017770df8d,24,2022-02-12_18h02.12.843,lexical_decision_task_DD_L2,2021.2.3,Win32,59.02142478,,,,,,,,,,1.199,1,,,,,,,,,,,,,,,,,,,,,,,0.281322259,-0.290568669,1,0,0,,,,,,,PACKET,C,m,y,./images/PACKET.png,,,,,,,,,,,,,,,,,,,,,0,0.281322259,-0.290568669,1,0,0,1.199,button_right_test,0,45,45,56,1
,,,,,,,,,,,,,,,,,5eec80174c76f2017770df8d,24,2022-02-12_18h02.12.843,lexical_decision_task_DD_L2,2021.2.3,Win32,59.02142478,,,,,,,,,,1.2561,0,,,,,,,,,,,,,,,,,,,,,,,-0.289181681,-0.264678701,1,0,0,,,,,,,SCREW,HB,m,y,./images/SCREWHB.png,,,,,,,,,,,,,,,,,,,,,0,-0.289181681,-0.264678701,1,0,0,1.2561,button_left_test,0,46,46,24,1
,,,,,,,,,,,,,,,,,5eec80174c76f2017770df8d,24,2022-02-12_18h02.12.843,lexical_decision_task_DD_L2,2021.2.3,Win32,59.02142478,,,,,,,,,,1.7739,1,,,,,,,,,,,,,,,,,,,,,,,-0.289181681,-0.264678701,1,0,0,,,,,,,MAMMAL,C,z,y,./images/MAMMAL.png,,,,,,,,,,,,,,,,,,,,,0,-0.289181681,-0.264678701,1,0,0,1.7739,button_left_test,0,47,47,146,1
,,,,,,,,,,,,,,,,,5eec80174c76f2017770df8d,24,2022-02-12_18h02.12.843,lexical_decision_task_DD_L2,2021.2.3,Win32,59.02142478,,,,,,,,,,3.7388,0,,,,,,,,,,,,,,,,,,,,,,,0.436662068,-0.26375406,1,0,0,,,,,,,SHIELD,HB,z,y,./images/SHIELDHB.png,,,,,,,,,,,,,,,,,,,,,0,0.436662068,-0.26375406,1,0,0,3.7388,button_right_test,0,48,48,132,1
,,,,,,,,,,,,,,,,,5eec80174c76f2017770df8d,24,2022-02-12_18h02.12.843,lexical_decision_task_DD_L2,2021.2.3,Win32,59.02142478,,,,,,,,,,1.9549,1,,,,,,,,,,,,,,,,,,,,,,,-0.490753576,-0.262829418,1,0,0,,,,,,,CURRY,HB,z,y,./images/CURRYHB.png,,,,,,,,,,,,,,,,,,,,,0,-0.490753576,-0.262829418,1,0,0,1.9549,button_left_test,0,49,49,144,1
,,,,,,,,,,,,,,,,,5eec80174c76f2017770df8d,24,2022-02-12_18h02.12.843,lexical_decision_task_DD_L2,2021.2.3,Win32,59.02142478,,,,,,,,,,4.5047,1,,,,,,,,,,,,,,,,,,,,,,,0.437586823,-0.256356926,1,0,0,,,,,,,PLANK,LB,m,y,./images/PLANKLB.png,,,,,,,,,,,,,,,,,,,,,0,0.437586823,-0.256356926,1,0,0,4.5047,button_right_test,0,50,50,1,1
,,,,,,,,,,,,,,,,,5eec80174c76f2017770df8d,24,2022-02-12_18h02.12.843,lexical_decision_task_DD_L2,2021.2.3,Win32,59.02142478,,,,,,,,,,1.3315,1,,,,,,,,,,,,,,,,,,,,,,,0.44313456,-0.30166437,1,0,0,,,,,,,SHELF,HB,m,y,./images/SHELFHB.png,,,,,,,,,,,,,,,,,,,,,0,0.44313456,-0.30166437,1,0,0,1.3315,button_right_test,0,51,51,39,1
,,,,,,,,,,,,,,,,,5eec80174c76f2017770df8d,24,2022-02-12_18h02.12.843,lexical_decision_task_DD_L2,2021.2.3,Win32,59.02142478,,,,,,,,,,0.9547,1,,,,,,,,,,,,,,,,,,,,,,,0.35714288,-0.298890445,1,0,0,,,,,,,SAILOR,LB,m,y,./images/SAILORLB.png,,,,,,,,,,,,,,,,,,,,,0,0.35714288,-0.298890445,1,0,0,0.9547,button_right_test,0,52,52,67,1
,,,,,,,,,,,,,,,,,5eec80174c76f2017770df8d,24,2022-02-12_18h02.12.843,lexical_decision_task_DD_L2,2021.2.3,Win32,59.02142478,,,,,,,,,,1.0049,1,,,,,,,,,,,,,,,,,,,,,,,-0.371474794,-0.269301966,1,0,0,,,,,,,GRANNY,C,z,y,./images/GRANNY.png,,,,,,,,,,,,,,,,,,,,,0,-0.371474794,-0.269301966,1,0,0,1.0049,button_left_test,0,53,53,104,1
,,,,,,,,,,,,,,,,,5eec80174c76f2017770df8d,24,2022-02-12_18h02.12.843,lexical_decision_task_DD_L2,2021.2.3,Win32,59.02142478,,,,,,,,,,2.2667,0,,,,,,,,,,,,,,,,,,,,,,,0.344197896,-0.297041161,1,0,0,,,,,,,FERRY,HB,z,y,./images/FERRYHB.png,,,,,,,,,,,,,,,,,,,,,0,0.344197896,-0.297041161,1,0,0,2.2667,button_right_test,0,54,54,141,1
,,,,,,,,,,,,,,,,,5eec80174c76f2017770df8d,24,2022-02-12_18h02.12.843,lexical_decision_task_DD_L2,2021.2.3,Win32,59.02142478,,,,,,,,,,2.1855,0,,,,,,,,,,,,,,,,,,,,,,,-0.419556163,-0.316458637,1,0,0,,,,,,,STRING,C,m,y,./images/STRING.png,,,,,,,,,,,,,,,,,,,,,0,-0.419556163,-0.316458637,1,0,0,2.1855,button_left_test,0,55,55,41,1
,,,,,,,,,,,,,,,,,5eec80174c76f2017770df8d,24,2022-02-12_18h02.12.843,lexical_decision_task_DD_L2,2021.2.3,Win32,59.02142478,,,,,,,,,,2.8224,1,,,,,,,,,,,,,,,,,,,,,,,0.37840964,-0.309061617,1,0,0,,,,,,,LADDER,C,m,y,./images/LADDER.png,,,,,,,,,,,,,,,,,,,,,0,0.37840964,-0.309061617,1,0,0,2.8224,button_right_test,0,56,56,38,1
,,,,,,,,,,,,,,,,,5eec80174c76f2017770df8d,24,2022-02-12_18h02.12.843,lexical_decision_task_DD_L2,2021.2.3,Win32,59.02142478,,,,,,,,,,1.2568,1,,,,,,,,,,,,,,,,,,,,,,,-0.303975948,-0.305362993,1,0,0,,,,,,,BUNNY,LB,z,y,./images/BUNNYLB.png,,,,,,,,,,,,,,,,,,,,,0,-0.303975948,-0.305362993,1,0,0,1.2568,button_left_test,0,57,57,97,1
,,,,,,,,,,,,,,,,,5eec80174c76f2017770df8d,24,2022-02-12_18h02.12.843,lexical_decision_task_DD_L2,2021.2.3,Win32,59.02142478,,,,,,,,,,3.3234,1,,,,,,,,,,,,,,,,,,,,,,,-0.303975948,-0.305362993,1,0,0,,,,,,,WHEEL,C,z,y,./images/WHEEL.png,,,,,,,,,,,,,,,,,,,,,0,-0.303975948,-0.305362993,1,0,0,3.3234,button_left_test,0,58,58,161,1
,,,,,,,,,,,,,,,,,5eec80174c76f2017770df8d,24,2022-02-12_18h02.12.843,lexical_decision_task_DD_L2,2021.2.3,Win32,59.02142478,,,,,,,,,,1.157,1,,,,,,,,,,,,,,,,,,,,,,,0.397827116,-0.260055493,1,0,0,,,,,,,SUNSET,LB,m,y,./images/SUNSETLB.png,,,,,,,,,,,,,,,,,,,,,0,0.397827116,-0.260055493,1,0,0,1.157,button_right_test,0,59,59,82,1
,,,,,,,,,,,,,,,,,5eec80174c76f2017770df8d,24,2022-02-12_18h02.12.843,lexical_decision_task_DD_L2,2021.2.3,Win32,59.02142478,,,,,,,,,,0.9549,0,,,,,,,,,,,,,,,,,,,,,,,0.397827116,-0.260055493,1,0,0,,,,,,,FLASK,HB,z,y,./images/FLASKHB.png,,,,,,,,,,,,,,,,,,,,,0,0.397827116,-0.260055493,1,0,0,0.9549,button_right_test,0,60,60,156,1
,,,,,,,,,,,,,,,,,5eec80174c76f2017770df8d,24,2022-02-12_18h02.12.843,lexical_decision_task_DD_L2,2021.2.3,Win32,59.02142478,,,,,,,,,,2.2897,0,,,,,,,,,,,,,,,,,,,,,,,0.397827116,-0.260055493,1,0,0,,,,,,,BROOM,HB,z,y,./images/BROOMHB.png,,,,,,,,,,,,,,,,,,,,,0,0.397827116,-0.260055493,1,0,0,2.2897,button_right_test,0,61,61,162,1
,,,,,,,,,,,,,,,,,5eec80174c76f2017770df8d,24,2022-02-12_18h02.12.843,lexical_decision_task_DD_L2,2021.2.3,Win32,59.02142478,,,,,,,,,,1.1876,1,,,,,,,,,,,,,,,,,,,,,,,-0.41678221,-0.32293113,1,0,0,,,,,,,BASKET,C,z,y,./images/BASKET.png,,,,,,,,,,,,,,,,,,,,,0,-0.41678221,-0.32293113,1,0,0,1.1876,button_left_test,0,62,62,128,1
,,,,,,,,,,,,,,,,,5eec80174c76f2017770df8d,24,2022-02-12_18h02.12.843,lexical_decision_task_DD_L2,2021.2.3,Win32,59.02142478,,,,,,,,,,1.0559,0,,,,,,,,,,,,,,,,,,,,,,,0.468099887,-0.266528041,1,0,0,,,,,,,RULER,LB,z,y,./images/RULERLB.png,,,,,,,,,,,,,,,,,,,,,0,0.468099887,-0.266528041,1,0,0,1.0559,button_right_test,0,63,63,163,1
,,,,,,,,,,,,,,,,,5eec80174c76f2017770df8d,24,2022-02-12_18h02.12.843,lexical_decision_task_DD_L2,2021.2.3,Win32,59.02142478,,,,,,,,,,0.7735,1,,,,,,,,,,,,,,,,,,,,,,,0.468099887,-0.266528041,1,0,0,,,,,,,SMOKER,C,m,y,./images/SMOKER.png,,,,,,,,,,,,,,,,,,,,,0,0.468099887,-0.266528041,1,0,0,0.7735,button_right_test,0,64,64,26,1
,,,,,,,,,,,,,,,,,5eec80174c76f2017770df8d,24,2022-02-12_18h02.12.843,lexical_decision_task_DD_L2,2021.2.3,Win32,59.02142478,,,,,,,,,,3.6541,0,,,,,,,,,,,,,,,,,,,,,,,0.519879823,-0.24988449,1,0,0,,,,,,,WAGON,LB,z,y,./images/WAGONLB.png,,,,,,,,,,,,,,,,,,,,,0,0.519879823,-0.24988449,1,0,0,3.6541,button_right_test,0,65,65,91,1
,,,,,,,,,,,,,,,,,5eec80174c76f2017770df8d,24,2022-02-12_18h02.12.843,lexical_decision_task_DD_L2,2021.2.3,Win32,59.02142478,,,,,,,,,,0.7216,1,,,,,,,,,,,,,,,,,,,,,,,0.519879823,-0.24988449,1,0,0,,,,,,,MIRROR,HB,m,y,./images/MIRRORHB.png,,,,,,,,,,,,,,,,,,,,,0,0.519879823,-0.24988449,1,0,0,0.7216,button_right_test,0,66,66,63,1
,,,,,,,,,,,,,,,,,5eec80174c76f2017770df8d,24,2022-02-12_18h02.12.843,lexical_decision_task_DD_L2,2021.2.3,Win32,59.02142478,,,,,,,,,,0.6873,1,,,,,,,,,,,,,,,,,,,,,,,0.516181256,-0.248959848,1,0,0,,,,,,,NOOSE,HB,m,y,./images/NOOSEHB.png,,,,,,,,,,,,,,,,,,,,,0,0.516181256,-0.248959848,1,0,0,0.6873,button_right_test,0,67,67,72,1
,,,,,,,,,,,,,,,,,5eec80174c76f2017770df8d,24,2022-02-12_18h02.12.843,lexical_decision_task_DD_L2,2021.2.3,Win32,59.02142478,,,,,,,,,,2.3549,0,,,,,,,,,,,,,,,,,,,,,,,0.236939457,-0.262829418,1,0,0,,,,,,,FENCE,C,z,y,./images/FENCE.png,,,,,,,,,,,,,,,,,,,,,0,0.236939457,-0.262829418,1,0,0,2.3549,button_right_test,0,68,68,98,1
,,,,,,,,,,,,,,,,,5eec80174c76f2017770df8d,24,2022-02-12_18h02.12.843,lexical_decision_task_DD_L2,2021.2.3,Win32,59.02142478,,,,,,,,,,0.6708,1,,,,,,,,,,,,,,,,,,,,,,,0.236939457,-0.262829418,1,0,0,,,,,,,URINE,LB,m,y,./images/URINELB.png,,,,,,,,,,,,,,,,,,,,,0,0.236939457,-0.262829418,1,0,0,0.6708,button_right_test,0,69,69,70,1
,,,,,,,,,,,,,,,,,5eec80174c76f2017770df8d,24,2022-02-12_18h02.12.843,lexical_decision_task_DD_L2,2021.2.3,Win32,59.02142478,,,,,,,,,,0.7877,1,,,,,,,,,,,,,,,,,,,,,,,0.339574688,-0.24988449,1,0,0,,,,,,,ATTIC,HB,m,y,./images/ATTICHB.png,,,,,,,,,,,,,,,,,,,,,0,0.339574688,-0.24988449,1,0,0,0.7877,button_right_test,0,70,70,27,1
,,,,,,,,,,,,,,,,,5eec80174c76f2017770df8d,24,2022-02-12_18h02.12.843,lexical_decision_task_DD_L2,2021.2.3,Win32,59.02142478,,,,,,,,,,1.0493,1,,,,,,,,,,,,,,,,,,,,,,,-0.347434109,-0.290568669,1,0,0,,,,,,,DIVER,HB,z,y,./images/DIVERHB.png,,,,,,,,,,,,,,,,,,,,,0,-0.347434109,-0.290568669,1,0,0,1.0493,button_left_test,0,71,71,93,1
,,,,,,,,,,,,,,,,,5eec80174c76f2017770df8d,24,2022-02-12_18h02.12.843,lexical_decision_task_DD_L2,2021.2.3,Win32,59.02142478,,,,,,,,,,1.058,1,,,,,,,,,,,,,,,,,,,,,,,0.48474355,-0.285020875,1,0,0,,,,,,,FALCON,LB,m,y,./images/FALCONLB.png,,,,,,,,,,,,,,,,,,,,,0,0.48474355,-0.285020875,1,0,0,1.058,button_right_test,0,72,72,28,1
,,,,,,,,,,,,,,,,,5eec80174c76f2017770df8d,24,2022-02-12_18h02.12.843,lexical_decision_task_DD_L2,2021.2.3,Win32,59.02142478,,,,,,,,,,2.7644,1,,,,,,,,,,,,,,,,,,,,,,,-0.344660184,-0.303513653,1,0,0,,,,,,,CLIFF,C,z,y,./images/CLIFF.png,,,,,,,,,,,,,,,,,,,,,0,-0.344660184,-0.303513653,1,0,0,2.7644,button_left_test,0,73,73,92,1
,,,,,,,,,,,,,,,,,5eec80174c76f2017770df8d,24,2022-02-12_18h02.12.843,lexical_decision_task_DD_L2,2021.2.3,Win32,59.02142478,,,,,,,,,,1.0694,1,,,,,,,,,,,,,,,,,,,,,,,0.400601041,-0.299815087,1,0,0,,,,,,,TULIP,C,m,y,./images/TULIP.png,,,,,,,,,,,,,,,,,,,,,0,0.400601041,-0.299815087,1,0,0,1.0694,button_right_test,0,74,74,8,1
,,,,,,,,,,,,,,,,,5eec80174c76f2017770df8d,24,2022-02-12_18h02.12.843,lexical_decision_task_DD_L2,2021.2.3,Win32,59.02142478,,,,,,,,,,1.0055,1,,,,,,,,,,,,,,,,,,,,,,,0.400601041,-0.299815087,1,0,0,,,,,,,SNACK,LB,m,y,./images/SNACKLB.png,,,,,,,,,,,,,,,,,,,,,0,0.400601041,-0.299815087,1,0,0,1.0055,button_right_test,0,75,75,73,1
,,,,,,,,,,,,,,,,,5eec80174c76f2017770df8d,24,2022-02-12_18h02.12.843,lexical_decision_task_DD_L2,2021.2.3,Win32,59.02142478,,,,,,,,,,0.7161,1,,,,,,,,,,,,,,,,,,,,,,,0.400601041,-0.299815087,1,0,0,,,,,,,CEMENT,C,m,y,./images/CEMENT.png,,,,,,,,,,,,,,,,,,,,,0,0.400601041,-0.299815087,1,0,0,0.7161,button_right_test,0,76,76,74,1
,,,,,,,,,,,,,,,,,5eec80174c76f2017770df8d,24,2022-02-12_18h02.12.843,lexical_decision_task_DD_L2,2021.2.3,Win32,59.02142478,,,,,,,,,,1.0038,0,,,,,,,,,,,,,,,,,,,,,,,-0.335413767,-0.325705111,1,0,0,,,,,,,MUFFIN,LB,m,y,./images/MUFFINLB.png,,,,,,,,,,,,,,,,,,,,,0,-0.335413767,-0.325705111,1,0,0,1.0038,button_left_test,0,77,77,55,1
,,,,,,,,,,,,,,,,,5eec80174c76f2017770df8d,24,2022-02-12_18h02.12.843,lexical_decision_task_DD_L2,2021.2.3,Win32,59.02142478,,,,,,,,,,0.9571,1,,,,,,,,,,,,,,,,,,,,,,,-0.354831243,-0.306287635,1,0,0,,,,,,,CLOUD,C,z,y,./images/CLOUD.png,,,,,,,,,,,,,,,,,,,,,0,-0.354831243,-0.306287635,1,0,0,0.9571,button_left_test,0,78,78,110,1
,,,,,,,,,,,,,,,,,5eec80174c76f2017770df8d,24,2022-02-12_18h02.12.843,lexical_decision_task_DD_L2,2021.2.3,Win32,59.02142478,,,,,,,,,,0.751,0,,,,,,,,,,,,,,,,,,,,,,,-0.347434109,-0.234165525,1,0,0,,,,,,,CRUMB,C,m,y,./images/CRUMB.png,,,,,,,,,,,,,,,,,,,,,0,-0.347434109,-0.234165525,1,0,0,0.751,button_left_test,0,79,79,29,1
,,,,,,,,,,,,,,,,,5eec80174c76f2017770df8d,24,2022-02-12_18h02.12.843,lexical_decision_task_DD_L2,2021.2.3,Win32,59.02142478,,,,,,,,,,6.971,0,,,,,,,,,,,,,,,,,,,,,,,0.506934839,-0.273925118,1,0,0,,,,,,,BRIDE,LB,z,y,./images/BRIDELB.png,,,,,,,,,,,,,,,,,,,,,0,0.506934839,-0.273925118,1,0,0,6.971,button_right_test,0,80,80,148,1
,,,,,,,,,,,,,,,,,5eec80174c76f2017770df8d,24,2022-02-12_18h02.12.843,lexical_decision_task_DD_L2,2021.2.3,Win32,59.02142478,,,,,,,,,,2.2874,1,,,,,,,,,,,,,,,,,,,,,,,0.338650046,-0.285945517,1,0,0,,,,,,,WEASEL,C,m,y,./images/WEASEL.png,,,,,,,,,,,,,,,,,,,,,0,0.338650046,-0.285945517,1,0,0,2.2874,button_right_test,0,81,81,80,1
,,,,,,,,,,,,,,,,,5eec80174c76f2017770df8d,24,2022-02-12_18h02.12.843,lexical_decision_task_DD_L2,2021.2.3,Win32,59.02142478,,,,,,,,,,1.8409,0,,,,,,,,,,,,,,,,,,,,,,,0.353444313,-0.291493311,1,0,0,,,,,,,WALNUT,HB,z,y,./images/WALNUTHB.png,,,,,,,,,,,,,,,,,,,,,0,0.353444313,-0.291493311,1,0,0,1.8409,button_right_test,0,82,82,84,1
,,,,,,,,,,,,,,,,,5eec80174c76f2017770df8d,24,2022-02-12_18h02.12.843,lexical_decision_task_DD_L2,2021.2.3,Win32,59.02142478,,,,,,,,,,1.9541,1,,,,,,,,,,,,,,,,,,,,,,,-0.013638449,-0.379334274,1,0,0,,,,,,,STEAK,LB,z,y,./images/STEAKLB.png,break_done_button,,,,,,,,,,,,,,,,,,,,0,-0.273462715,-0.298890445,1,0,0,1.9541,button_left_test,0,83,83,115,1
,,,,,,,,,,,,,,,,,5eec80174c76f2017770df8d,24,2022-02-12_18h02.12.843,lexical_decision_task_DD_L2,2021.2.3,Win32,59.02142478,,,,,,,,,,1.6174,0,,,,,,,,,,,,,,,,,,,,,,,0.30166449,-0.285020875,1,0,0,,,,,,,TIGER,LB,z,y,./images/TIGERLB.png,,,,,,,,,,,,,,,,,,,,,0,0.30166449,-0.285020875,1,0,0,1.6174,button_right_test,0,84,84,121,1
,,,,,,,,,,,,,,,,,5eec80174c76f2017770df8d,24,2022-02-12_18h02.12.843,lexical_decision_task_DD_L2,2021.2.3,Win32,59.02142478,,,,,,,,,,0.8042,1,,,,,,,,,,,,,,,,,,,,,,,0.298890452,-0.273000477,1,0,0,,,,,,,PAINT,LB,m,y,./images/PAINTLB.png,,,,,,,,,,,,,,,,,,,,,0,0.298890452,-0.273000477,1,0,0,0.8042,button_right_test,0,85,85,7,1
,,,,,,,,,,,,,,,,,5eec80174c76f2017770df8d,24,2022-02-12_18h02.12.843,lexical_decision_task_DD_L2,2021.2.3,Win32,59.02142478,,,,,,,,,,0.6713,1,,,,,,,,,,,,,,,,,,,,,,,0.298890452,-0.273000477,1,0,0,,,,,,,JELLY,LB,m,y,./images/JELLYLB.png,,,,,,,,,,,,,,,,,,,,,0,0.298890452,-0.273000477,1,0,0,0.6713,button_right_test,0,86,86,64,1
,,,,,,,,,,,,,,,,,5eec80174c76f2017770df8d,24,2022-02-12_18h02.12.843,lexical_decision_task_DD_L2,2021.2.3,Win32,59.02142478,,,,,,,,,,1.5402,0,,,,,,,,,,,,,,,,,,,,,,,0.381183565,-0.272075835,1,0,0,,,,,,,HEATER,C,z,y,./images/HEATER.png,,,,,,,,,,,,,,,,,,,,,0,0.381183565,-0.272075835,1,0,0,1.5402,button_right_test,0,87,87,140,1
,,,,,,,,,,,,,,,,,5eec80174c76f2017770df8d,24,2022-02-12_18h02.12.843,lexical_decision_task_DD_L2,2021.2.3,Win32,59.02142478,,,,,,,,,,1.7386,1,,,,,,,,,,,,,,,,,,,,,,,0.355293597,-0.285020875,1,0,0,,,,,,,BERRY,C,m,y,./images/BERRY.png,,,,,,,,,,,,,,,,,,,,,0,0.355293597,-0.285020875,1,0,0,1.7386,button_right_test,0,88,88,47,1
,,,,,,,,,,,,,,,,,5eec80174c76f2017770df8d,24,2022-02-12_18h02.12.843,lexical_decision_task_DD_L2,2021.2.3,Win32,59.02142478,,,,,,,,,,1.022,1,,,,,,,,,,,,,,,,,,,,,,,0.334951479,-0.273925118,1,0,0,,,,,,,CRUST,LB,m,y,./images/CRUSTLB.png,,,,,,,,,,,,,,,,,,,,,0,0.334951479,-0.273925118,1,0,0,1.022,button_right_test,0,89,89,79,1
,,,,,,,,,,,,,,,,,5eec80174c76f2017770df8d,24,2022-02-12_18h02.12.843,lexical_decision_task_DD_L2,2021.2.3,Win32,59.02142478,,,,,,,,,,0.8251,1,,,,,,,,,,,,,,,,,,,,,,,0.333102196,-0.273925118,1,0,0,,,,,,,MELON,LB,m,y,./images/MELONLB.png,,,,,,,,,,,,,,,,,,,,,0,0.333102196,-0.273925118,1,0,0,0.8251,button_right_test,0,90,90,22,1
,,,,,,,,,,,,,,,,,5eec80174c76f2017770df8d,24,2022-02-12_18h02.12.843,lexical_decision_task_DD_L2,2021.2.3,Win32,59.02142478,,,,,,,,,,0.8875,1,,,,,,,,,,,,,,,,,,,,,,,0.337725404,-0.288719442,1,0,0,,,,,,,MOSQUE,LB,m,y,./images/MOSQUELB.png,,,,,,,,,,,,,,,,,,,,,0,0.337725404,-0.288719442,1,0,0,0.8875,button_right_test,0,91,91,43,1
,,,,,,,,,,,,,,,,,5eec80174c76f2017770df8d,24,2022-02-12_18h02.12.843,lexical_decision_task_DD_L2,2021.2.3,Win32,59.02142478,,,,,,,,,,0.6389,1,,,,,,,,,,,,,,,,,,,,,,,0.336800763,-0.286870159,1,0,0,,,,,,,MUSCLE,LB,m,y,./images/MUSCLELB.png,,,,,,,,,,,,,,,,,,,,,0,0.336800763,-0.286870159,1,0,0,0.6389,button_right_test,0,92,92,4,1
,,,,,,,,,,,,,,,,,5eec80174c76f2017770df8d,24,2022-02-12_18h02.12.843,lexical_decision_task_DD_L2,2021.2.3,Win32,59.02142478,,,,,,,,,,0.8046,1,,,,,,,,,,,,,,,,,,,,,,,0.336800763,-0.286870159,1,0,0,,,,,,,RHINO,HB,m,y,./images/RHINOHB.png,,,,,,,,,,,,,,,,,,,,,0,0.336800763,-0.286870159,1,0,0,0.8046,button_right_test,0,93,93,9,1
,,,,,,,,,,,,,,,,,5eec80174c76f2017770df8d,24,2022-02-12_18h02.12.843,lexical_decision_task_DD_L2,2021.2.3,Win32,59.02142478,,,,,,,,,,1.1893,1,,,,,,,,,,,,,,,,,,,,,,,-0.36962551,-0.288719442,1,0,0,,,,,,,JUMPER,C,z,y,./images/JUMPER.png,,,,,,,,,,,,,,,,,,,,,0,-0.36962551,-0.288719442,1,0,0,1.1893,button_left_test,0,94,94,158,1
