key_resp.keys,key_resp.rt,instr_done_touch.x,instr_done_touch.y,instr_done_touch.leftButton,instr_done_touch.midButton,instr_done_touch.rightButton,instruction_pages.thisRepN,instruction_pages.thisTrialN,instruction_pages.thisN,instruction_pages.thisIndex,instruction_pages.ran,pageN,phase,instruct_text,has_image,instruct_image,participant,age,date,expName,psychopyVersion,OS,frameRate,response.keys,response.corr,response.rt,touch_resp.x,touch_resp.y,touch_resp.leftButton,touch_resp.midButton,touch_resp.rightButton,touch_resp.time,touch_resp.clicked_name,rt,corr,practrials.thisRepN,practrials.thisTrialN,practrials.thisN,practrials.thisIndex,practrials.ran,TrialID,Target,corrAns,end_of_practice_trials_pages.thisRepN,end_of_practice_trials_pages.thisTrialN,end_of_practice_trials_pages.thisN,end_of_practice_trials_pages.thisIndex,end_of_practice_trials_pages.ran,key_resp_2.keys,key_resp_2.corr,key_resp_2.rt,targ_click.x,targ_click.y,targ_click.leftButton,targ_click.midButton,targ_click.rightButton,targ_click.time,targ_click.clicked_name,break_done_touch.x,break_done_touch.y,break_done_touch.leftButton,break_done_touch.midButton,break_done_touch.rightButton,break_done_keyboard.keys,maintrials.thisRepN,maintrials.thisTrialN,maintrials.thisN,maintrials.thisIndex,maintrials.ran,string,blur,study,lex,stim_path,break_done_keyboard.rt,mouse_2.x,mouse_2.y,mouse_2.leftButton,mouse_2.midButton,mouse_2.rightButton,mouse_2.clicked_name,slider.response,slider.rt,trials.thisRepN,trials.thisTrialN,trials.thisN,trials.thisIndex,trials.ran,test_instructions.thisRepN,test_instructions.thisTrialN,test_instructions.thisN,test_instructions.thisIndex,test_instructions.ran,instr_done_touch.clicked_name,key_resp_3.keys,key_resp_3.corr,key_resp_3.rt,test_click.x,test_click.y,test_click.leftButton,test_click.midButton,test_click.rightButton,test_click.time,test_click.clicked_name,test_phase.thisRepN,test_phase.thisTrialN,test_phase.thisN,test_phase.thisIndex,test_phase.ran
space,17.742,0.887962963,-0.20462963,0,0,0,0,0,0,0,1,1,instructions,"INSTRUCTIONS
At the start of each trial, look at the plus sign  (+) in the center of the screen.  This tells you that a trial is about to begin and where to look. Second, the plus sign will disappear and a string of letters will appear. Your task is to determine if the string of letters is a word or not. If the item is a word press the M key (on keyboard)  or touch the word button (phone/tablet).  If the item is not a word,  press the  Z key (on keyboard)  or touch the nonword button (on phone/tablet). 
Press the space bar or touch  continue.",0,,5f7f6143dc758b0fc54725f1,,2022-02-12_16h57.20.575,lexical_decision_task_DD_L2,2021.2.3,Win32,100,,,,,,,,,,,,,,,,,,,,,,,,,,,,,,,,,,,,,,,,,,,,,,,,,,,,,,,,,,,,,,,,,,,,,,,,,,,,,,,,,,,,,,
space,4.747,0.887962963,-0.20462963,0,0,0,0,1,1,1,1,2,instructions,"If your device has a keyboard, press the 'Z' key for nonwords and the 'M' key for words.





Press the space bar or touch the button below to continue.",0,keyboard-example.gif,5f7f6143dc758b0fc54725f1,,2022-02-12_16h57.20.575,lexical_decision_task_DD_L2,2021.2.3,Win32,100,,,,,,,,,,,,,,,,,,,,,,,,,,,,,,,,,,,,,,,,,,,,,,,,,,,,,,,,,,,,,,,,,,,,,,,,,,,,,,,,,,,,,,
space,7.649,0.887962963,-0.20462963,0,0,0,0,2,2,2,1,3,instructions,"If you are using a touchscreen only device, use the buttons on the screen. Do not use the mouse.





Press the space bar or touch the button below to continue.",0,touchscreen-example.gif,5f7f6143dc758b0fc54725f1,,2022-02-12_16h57.20.575,lexical_decision_task_DD_L2,2021.2.3,Win32,100,,,,,,,,,,,,,,,,,,,,,,,,,,,,,,,,,,,,,,,,,,,,,,,,,,,,,,,,,,,,,,,,,,,,,,,,,,,,,,,,,,,,,,
space,9.219,0.887962963,-0.20462963,0,0,0,0,3,3,3,1,4,instructions,"It is very important that you respond as quickly and accurately as possible, as each letter string will only be on the screen for two seconds. If you do not respond within this time, the message 'Too slow!' will be displayed and the experiment will progress to the next letter string. The first 20 trials will be practice trials and you will receive feedback on your answers. 

Press the space bar or touch the button below to start the practice trials.",0,,5f7f6143dc758b0fc54725f1,,2022-02-12_16h57.20.575,lexical_decision_task_DD_L2,2021.2.3,Win32,100,,,,,,,,,,,,,,,,,,,,,,,,,,,,,,,,,,,,,,,,,,,,,,,,,,,,,,,,,,,,,,,,,,,,,,,,,,,,,,,,,,,,,,
,,,,,,,,,,,,,,,,,5f7f6143dc758b0fc54725f1,,2022-02-12_16h57.20.575,lexical_decision_task_DD_L2,2021.2.3,Win32,100,m,0,1.333,,,,,,,,1.333,0,0,0,0,11,1,1001,RASHET,z,,,,,,,,,,,,,,,,,,,,,,,,,,,,,,,,,,,,,,,,,,,,,,,,,,,,,,,,,,,,,,,,,,
,,,,,,,,,,,,,,,,,5f7f6143dc758b0fc54725f1,,2022-02-12_16h57.20.575,lexical_decision_task_DD_L2,2021.2.3,Win32,100,m,1,0.689,,,,,,,,0.689,1,0,1,1,0,1,1001,UTOPIA,m,,,,,,,,,,,,,,,,,,,,,,,,,,,,,,,,,,,,,,,,,,,,,,,,,,,,,,,,,,,,,,,,,,
,,,,,,,,,,,,,,,,,5f7f6143dc758b0fc54725f1,,2022-02-12_16h57.20.575,lexical_decision_task_DD_L2,2021.2.3,Win32,100,m,0,0.712,,,,,,,,0.712,0,0,2,2,13,1,1001,ROUPET,z,,,,,,,,,,,,,,,,,,,,,,,,,,,,,,,,,,,,,,,,,,,,,,,,,,,,,,,,,,,,,,,,,,
,,,,,,,,,,,,,,,,,5f7f6143dc758b0fc54725f1,,2022-02-12_16h57.20.575,lexical_decision_task_DD_L2,2021.2.3,Win32,100,z,1,0.763,,,,,,,,0.763,1,0,3,3,10,1,1001,INLADE,z,,,,,,,,,,,,,,,,,,,,,,,,,,,,,,,,,,,,,,,,,,,,,,,,,,,,,,,,,,,,,,,,,,
,,,,,,,,,,,,,,,,,5f7f6143dc758b0fc54725f1,,2022-02-12_16h57.20.575,lexical_decision_task_DD_L2,2021.2.3,Win32,100,m,1,0.731,,,,,,,,0.731,1,0,4,4,5,1,1001,OBTAIN,m,,,,,,,,,,,,,,,,,,,,,,,,,,,,,,,,,,,,,,,,,,,,,,,,,,,,,,,,,,,,,,,,,,
,,,,,,,,,,,,,,,,,5f7f6143dc758b0fc54725f1,,2022-02-12_16h57.20.575,lexical_decision_task_DD_L2,2021.2.3,Win32,100,z,1,0.926,,,,,,,,0.926,1,0,5,5,14,1,1001,THRALE,z,,,,,,,,,,,,,,,,,,,,,,,,,,,,,,,,,,,,,,,,,,,,,,,,,,,,,,,,,,,,,,,,,,
,,,,,,,,,,,,,,,,,5f7f6143dc758b0fc54725f1,,2022-02-12_16h57.20.575,lexical_decision_task_DD_L2,2021.2.3,Win32,100,m,1,0.732,,,,,,,,0.732,1,0,6,6,1,1,1001,ADJUST,m,,,,,,,,,,,,,,,,,,,,,,,,,,,,,,,,,,,,,,,,,,,,,,,,,,,,,,,,,,,,,,,,,,
,,,,,,,,,,,,,,,,,5f7f6143dc758b0fc54725f1,,2022-02-12_16h57.20.575,lexical_decision_task_DD_L2,2021.2.3,Win32,100,m,1,0.615,,,,,,,,0.615,1,0,7,7,7,1,1001,VOLUME,m,,,,,,,,,,,,,,,,,,,,,,,,,,,,,,,,,,,,,,,,,,,,,,,,,,,,,,,,,,,,,,,,,,
,,,,,,,,,,,,,,,,,5f7f6143dc758b0fc54725f1,,2022-02-12_16h57.20.575,lexical_decision_task_DD_L2,2021.2.3,Win32,100,m,1,0.554,,,,,,,,0.554,1,0,8,8,2,1,1001,ALMOND,m,,,,,,,,,,,,,,,,,,,,,,,,,,,,,,,,,,,,,,,,,,,,,,,,,,,,,,,,,,,,,,,,,,
,,,,,,,,,,,,,,,,,5f7f6143dc758b0fc54725f1,,2022-02-12_16h57.20.575,lexical_decision_task_DD_L2,2021.2.3,Win32,100,z,1,0.858,,,,,,,,0.858,1,0,9,9,15,1,1001,WHAISE,z,,,,,,,,,,,,,,,,,,,,,,,,,,,,,,,,,,,,,,,,,,,,,,,,,,,,,,,,,,,,,,,,,,
,,,,,,,,,,,,,,,,,5f7f6143dc758b0fc54725f1,,2022-02-12_16h57.20.575,lexical_decision_task_DD_L2,2021.2.3,Win32,100,z,1,0.786,,,,,,,,0.786,1,0,10,10,8,1,1001,ASLERT,z,,,,,,,,,,,,,,,,,,,,,,,,,,,,,,,,,,,,,,,,,,,,,,,,,,,,,,,,,,,,,,,,,,
,,,,,,,,,,,,,,,,,5f7f6143dc758b0fc54725f1,,2022-02-12_16h57.20.575,lexical_decision_task_DD_L2,2021.2.3,Win32,100,m,1,0.694,,,,,,,,0.694,1,0,11,11,3,1,1001,MATRIX,m,,,,,,,,,,,,,,,,,,,,,,,,,,,,,,,,,,,,,,,,,,,,,,,,,,,,,,,,,,,,,,,,,,
,,,,,,,,,,,,,,,,,5f7f6143dc758b0fc54725f1,,2022-02-12_16h57.20.575,lexical_decision_task_DD_L2,2021.2.3,Win32,100,m,1,0.542,,,,,,,,0.542,1,0,12,12,6,1,1001,ZOMBIE,m,,,,,,,,,,,,,,,,,,,,,,,,,,,,,,,,,,,,,,,,,,,,,,,,,,,,,,,,,,,,,,,,,,
,,,,,,,,,,,,,,,,,5f7f6143dc758b0fc54725f1,,2022-02-12_16h57.20.575,lexical_decision_task_DD_L2,2021.2.3,Win32,100,z,1,0.74,,,,,,,,0.74,1,0,13,13,9,1,1001,FARINY,z,,,,,,,,,,,,,,,,,,,,,,,,,,,,,,,,,,,,,,,,,,,,,,,,,,,,,,,,,,,,,,,,,,
,,,,,,,,,,,,,,,,,5f7f6143dc758b0fc54725f1,,2022-02-12_16h57.20.575,lexical_decision_task_DD_L2,2021.2.3,Win32,100,m,1,0.666,,,,,,,,0.666,1,0,14,14,4,1,1001,SQUEAK,m,,,,,,,,,,,,,,,,,,,,,,,,,,,,,,,,,,,,,,,,,,,,,,,,,,,,,,,,,,,,,,,,,,
,,,,,,,,,,,,,,,,,5f7f6143dc758b0fc54725f1,,2022-02-12_16h57.20.575,lexical_decision_task_DD_L2,2021.2.3,Win32,100,z,1,0.781,,,,,,,,0.781,1,0,15,15,12,1,1001,SPRINY,z,,,,,,,,,,,,,,,,,,,,,,,,,,,,,,,,,,,,,,,,,,,,,,,,,,,,,,,,,,,,,,,,,,
space,9.789,0.887962963,-0.20462963,0,0,0,,,,,,1,end_of_practice,"You have completed the practice trials. During the experimental trials, you will not receive feedback. 
Before you begin, please ensure that you are in a comfortable and quiet location and will not be disturbed for about 15 minutes, as we cannot use your data if you do not complete all the trials. 
 When you are ready to start the experimental trials, please press space or touch the button below.",,,5f7f6143dc758b0fc54725f1,,2022-02-12_16h57.20.575,lexical_decision_task_DD_L2,2021.2.3,Win32,100,,,,,,,,,,,,,,,,,,,,,0,0,0,0,1,,,,,,,,,,,,,,,,,,,,,,,,,,,,,,,,,,,,,,,,,,,,,,,,,,,,,,,,,,,,,
,,,,,,,,,,,,,,,,,5f7f6143dc758b0fc54725f1,,2022-02-12_16h57.20.575,lexical_decision_task_DD_L2,2021.2.3,Win32,100,,,,,,,,,,,0.723,1,,,,,,,,,,,,,,m,1,0.723,,,,,,,,0.887962963,-0.20462963,0,0,0,,0,0,0,8,1,TULIP,C,old,m,./images/TULIP.png,,,,,,,,,,,,,,,,,,,,,,,,,,,,,,,,,,,
,,,,,,,,,,,,,,,,,5f7f6143dc758b0fc54725f1,,2022-02-12_16h57.20.575,lexical_decision_task_DD_L2,2021.2.3,Win32,100,,,,,,,,,,,0.699,0,,,,,,,,,,,,,,z,0,0.699,,,,,,,,0.887962963,-0.20462963,0,0,0,,0,1,1,82,1,SUNSET,LB,old,m,./images/SUNSETLB.png,,,,,,,,,,,,,,,,,,,,,,,,,,,,,,,,,,,
,,,,,,,,,,,,,,,,,5f7f6143dc758b0fc54725f1,,2022-02-12_16h57.20.575,lexical_decision_task_DD_L2,2021.2.3,Win32,100,,,,,,,,,,,0.625,1,,,,,,,,,,,,,,m,1,0.625,,,,,,,,0.887962963,-0.20462963,0,0,0,,0,2,2,14,1,PICKLE,C,old,m,./images/PICKLE.png,,,,,,,,,,,,,,,,,,,,,,,,,,,,,,,,,,,
,,,,,,,,,,,,,,,,,5f7f6143dc758b0fc54725f1,,2022-02-12_16h57.20.575,lexical_decision_task_DD_L2,2021.2.3,Win32,100,,,,,,,,,,,0.822,1,,,,,,,,,,,,,,z,1,0.822,,,,,,,,0.887962963,-0.20462963,0,0,0,,0,3,3,99,1,BACKY,C,old,z,./images/BACKY.png,,,,,,,,,,,,,,,,,,,,,,,,,,,,,,,,,,,
,,,,,,,,,,,,,,,,,5f7f6143dc758b0fc54725f1,,2022-02-12_16h57.20.575,lexical_decision_task_DD_L2,2021.2.3,Win32,100,,,,,,,,,,,0.842,1,,,,,,,,,,,,,,z,1,0.842,,,,,,,,0.887962963,-0.20462963,0,0,0,,0,4,4,121,1,CEERS,HB,old,z,./images/CEERSHB.png,,,,,,,,,,,,,,,,,,,,,,,,,,,,,,,,,,,
,,,,,,,,,,,,,,,,,5f7f6143dc758b0fc54725f1,,2022-02-12_16h57.20.575,lexical_decision_task_DD_L2,2021.2.3,Win32,100,,,,,,,,,,,0.991,1,,,,,,,,,,,,,,z,1,0.991,,,,,,,,0.887962963,-0.20462963,0,0,0,,0,5,5,150,1,NOOLS,C,old,z,./images/NOOLS.png,,,,,,,,,,,,,,,,,,,,,,,,,,,,,,,,,,,
,,,,,,,,,,,,,,,,,5f7f6143dc758b0fc54725f1,,2022-02-12_16h57.20.575,lexical_decision_task_DD_L2,2021.2.3,Win32,100,,,,,,,,,,,1.015,0,,,,,,,,,,,,,,m,0,1.015,,,,,,,,0.887962963,-0.20462963,0,0,0,,0,6,6,109,1,BURGE,HB,old,z,./images/BURGEHB.png,,,,,,,,,,,,,,,,,,,,,,,,,,,,,,,,,,,
,,,,,,,,,,,,,,,,,5f7f6143dc758b0fc54725f1,,2022-02-12_16h57.20.575,lexical_decision_task_DD_L2,2021.2.3,Win32,100,,,,,,,,,,,0.919,1,,,,,,,,,,,,,,z,1,0.919,,,,,,,,0.887962963,-0.20462963,0,0,0,,0,7,7,167,1,ZONET,LB,old,z,./images/ZONETLB.png,,,,,,,,,,,,,,,,,,,,,,,,,,,,,,,,,,,
,,,,,,,,,,,,,,,,,5f7f6143dc758b0fc54725f1,,2022-02-12_16h57.20.575,lexical_decision_task_DD_L2,2021.2.3,Win32,100,,,,,,,,,,,0.737,1,,,,,,,,,,,,,,m,1,0.737,,,,,,,,0.887962963,-0.20462963,0,0,0,,0,8,8,34,1,CANYON,LB,old,m,./images/CANYONLB.png,,,,,,,,,,,,,,,,,,,,,,,,,,,,,,,,,,,
,,,,,,,,,,,,,,,,,5f7f6143dc758b0fc54725f1,,2022-02-12_16h57.20.575,lexical_decision_task_DD_L2,2021.2.3,Win32,100,,,,,,,,,,,0.626,1,,,,,,,,,,,,,,m,1,0.626,,,,,,,,0.887962963,-0.20462963,0,0,0,,0,9,9,57,1,MOOSE,HB,old,m,./images/MOOSEHB.png,,,,,,,,,,,,,,,,,,,,,,,,,,,,,,,,,,,
,,,,,,,,,,,,,,,,,5f7f6143dc758b0fc54725f1,,2022-02-12_16h57.20.575,lexical_decision_task_DD_L2,2021.2.3,Win32,100,,,,,,,,,,,1.321,0,,,,,,,,,,,,,,z,0,1.321,,,,,,,,0.887962963,-0.20462963,0,0,0,,0,10,10,33,1,MAGGOT,HB,old,m,./images/MAGGOTHB.png,,,,,,,,,,,,,,,,,,,,,,,,,,,,,,,,,,,
,,,,,,,,,,,,,,,,,5f7f6143dc758b0fc54725f1,,2022-02-12_16h57.20.575,lexical_decision_task_DD_L2,2021.2.3,Win32,100,,,,,,,,,,,1.364,1,,,,,,,,,,,,,,m,1,1.364,,,,,,,,0.887962963,-0.20462963,0,0,0,,0,11,11,16,1,PENCE,LB,old,m,./images/PENCELB.png,,,,,,,,,,,,,,,,,,,,,,,,,,,,,,,,,,,
,,,,,,,,,,,,,,,,,5f7f6143dc758b0fc54725f1,,2022-02-12_16h57.20.575,lexical_decision_task_DD_L2,2021.2.3,Win32,100,,,,,,,,,,,0.805,1,,,,,,,,,,,,,,m,1,0.805,,,,,,,,0.887962963,-0.20462963,0,0,0,,0,12,12,21,1,KIDNEY,HB,old,m,./images/KIDNEYHB.png,,,,,,,,,,,,,,,,,,,,,,,,,,,,,,,,,,,
,,,,,,,,,,,,,,,,,5f7f6143dc758b0fc54725f1,,2022-02-12_16h57.20.575,lexical_decision_task_DD_L2,2021.2.3,Win32,100,,,,,,,,,,,0.695,1,,,,,,,,,,,,,,m,1,0.695,,,,,,,,0.887962963,-0.20462963,0,0,0,,0,13,13,39,1,SHELF,HB,old,m,./images/SHELFHB.png,,,,,,,,,,,,,,,,,,,,,,,,,,,,,,,,,,,
,,,,,,,,,,,,,,,,,5f7f6143dc758b0fc54725f1,,2022-02-12_16h57.20.575,lexical_decision_task_DD_L2,2021.2.3,Win32,100,,,,,,,,,,,0.71,1,,,,,,,,,,,,,,z,1,0.71,,,,,,,,0.887962963,-0.20462963,0,0,0,,0,14,14,101,1,GLEET,LB,old,z,./images/GLEETLB.png,,,,,,,,,,,,,,,,,,,,,,,,,,,,,,,,,,,
,,,,,,,,,,,,,,,,,5f7f6143dc758b0fc54725f1,,2022-02-12_16h57.20.575,lexical_decision_task_DD_L2,2021.2.3,Win32,100,,,,,,,,,,,0.675,1,,,,,,,,,,,,,,m,1,0.675,,,,,,,,0.887962963,-0.20462963,0,0,0,,0,15,15,36,1,THROAT,HB,old,m,./images/THROATHB.png,,,,,,,,,,,,,,,,,,,,,,,,,,,,,,,,,,,
,,,,,,,,,,,,,,,,,5f7f6143dc758b0fc54725f1,,2022-02-12_16h57.20.575,lexical_decision_task_DD_L2,2021.2.3,Win32,100,,,,,,,,,,,2.096,0,,,,,,,,,,,,,,m,0,2.096,,,,,,,,0.887962963,-0.20462963,0,0,0,,0,16,16,97,1,CHIDS,HB,old,z,./images/CHIDSHB.png,,,,,,,,,,,,,,,,,,,,,,,,,,,,,,,,,,,
,,,,,,,,,,,,,,,,,5f7f6143dc758b0fc54725f1,,2022-02-12_16h57.20.575,lexical_decision_task_DD_L2,2021.2.3,Win32,100,,,,,,,,,,,2.072,1,,,,,,,,,,,,,,z,1,2.072,,,,,,,,0.887962963,-0.20462963,0,0,0,,0,17,17,115,1,MAWNS,HB,old,z,./images/MAWNSHB.png,,,,,,,,,,,,,,,,,,,,,,,,,,,,,,,,,,,
,,,,,,,,,,,,,,,,,5f7f6143dc758b0fc54725f1,,2022-02-12_16h57.20.575,lexical_decision_task_DD_L2,2021.2.3,Win32,100,,,,,,,,,,,0.625,1,,,,,,,,,,,,,,m,1,0.625,,,,,,,,0.887962963,-0.20462963,0,0,0,,0,18,18,52,1,BANNER,LB,old,m,./images/BANNERLB.png,,,,,,,,,,,,,,,,,,,,,,,,,,,,,,,,,,,
,,,,,,,,,,,,,,,,,5f7f6143dc758b0fc54725f1,,2022-02-12_16h57.20.575,lexical_decision_task_DD_L2,2021.2.3,Win32,100,,,,,,,,,,,0.735,1,,,,,,,,,,,,,,z,1,0.735,,,,,,,,0.887962963,-0.20462963,0,0,0,,0,19,19,147,1,ZOLES,C,old,z,./images/ZOLES.png,,,,,,,,,,,,,,,,,,,,,,,,,,,,,,,,,,,
,,,,,,,,,,,,,,,,,5f7f6143dc758b0fc54725f1,,2022-02-12_16h57.20.575,lexical_decision_task_DD_L2,2021.2.3,Win32,100,,,,,,,,,,,0.684,1,,,,,,,,,,,,,,m,1,0.684,,,,,,,,0.887962963,-0.20462963,0,0,0,,0,20,20,41,1,STRING,C,old,m,./images/STRING.png,,,,,,,,,,,,,,,,,,,,,,,,,,,,,,,,,,,
,,,,,,,,,,,,,,,,,5f7f6143dc758b0fc54725f1,,2022-02-12_16h57.20.575,lexical_decision_task_DD_L2,2021.2.3,Win32,100,,,,,,,,,,,0.658,1,,,,,,,,,,,,,,m,1,0.658,,,,,,,,0.887962963,-0.20462963,0,0,0,,0,21,21,83,1,JUNGLE,C,old,m,./images/JUNGLE.png,,,,,,,,,,,,,,,,,,,,,,,,,,,,,,,,,,,
,,,,,,,,,,,,,,,,,5f7f6143dc758b0fc54725f1,,2022-02-12_16h57.20.575,lexical_decision_task_DD_L2,2021.2.3,Win32,100,,,,,,,,,,,0.962,1,,,,,,,,,,,,,,z,1,0.962,,,,,,,,0.887962963,-0.20462963,0,0,0,,0,22,22,84,1,HAXES,C,old,z,./images/HAXES.png,,,,,,,,,,,,,,,,,,,,,,,,,,,,,,,,,,,
,,,,,,,,,,,,,,,,,5f7f6143dc758b0fc54725f1,,2022-02-12_16h57.20.575,lexical_decision_task_DD_L2,2021.2.3,Win32,100,,,,,,,,,,,0.762,1,,,,,,,,,,,,,,z,1,0.762,,,,,,,,0.887962963,-0.20462963,0,0,0,,0,23,23,117,1,STEEG,C,old,z,./images/STEEG.png,,,,,,,,,,,,,,,,,,,,,,,,,,,,,,,,,,,
,,,,,,,,,,,,,,,,,5f7f6143dc758b0fc54725f1,,2022-02-12_16h57.20.575,lexical_decision_task_DD_L2,2021.2.3,Win32,100,,,,,,,,,,,0.898,1,,,,,,,,,,,,,,z,1,0.898,,,,,,,,0.887962963,-0.20462963,0,0,0,,0,24,24,110,1,CRUNK,LB,old,z,./images/CRUNKLB.png,,,,,,,,,,,,,,,,,,,,,,,,,,,,,,,,,,,
,,,,,,,,,,,,,,,,,5f7f6143dc758b0fc54725f1,,2022-02-12_16h57.20.575,lexical_decision_task_DD_L2,2021.2.3,Win32,100,,,,,,,,,,,1.036,1,,,,,,,,,,,,,,m,1,1.036,,,,,,,,0.887962963,-0.20462963,0,0,0,,0,25,25,30,1,STORM,HB,old,m,./images/STORMHB.png,,,,,,,,,,,,,,,,,,,,,,,,,,,,,,,,,,,
,,,,,,,,,,,,,,,,,5f7f6143dc758b0fc54725f1,,2022-02-12_16h57.20.575,lexical_decision_task_DD_L2,2021.2.3,Win32,100,,,,,,,,,,,0.659,1,,,,,,,,,,,,,,m,1,0.659,,,,,,,,0.887962963,-0.20462963,0,0,0,,0,26,26,19,1,DOUGH,LB,old,m,./images/DOUGHLB.png,,,,,,,,,,,,,,,,,,,,,,,,,,,,,,,,,,,
,,,,,,,,,,,,,,,,,5f7f6143dc758b0fc54725f1,,2022-02-12_16h57.20.575,lexical_decision_task_DD_L2,2021.2.3,Win32,100,,,,,,,,,,,0.651,1,,,,,,,,,,,,,,z,1,0.651,,,,,,,,0.887962963,-0.20462963,0,0,0,,0,27,27,90,1,NEAST,C,old,z,./images/NEAST.png,,,,,,,,,,,,,,,,,,,,,,,,,,,,,,,,,,,
,,,,,,,,,,,,,,,,,5f7f6143dc758b0fc54725f1,,2022-02-12_16h57.20.575,lexical_decision_task_DD_L2,2021.2.3,Win32,100,,,,,,,,,,,0.678,1,,,,,,,,,,,,,,z,1,0.678,,,,,,,,0.887962963,-0.20462963,0,0,0,,0,28,28,89,1,DRIEK,LB,old,z,./images/DRIEKLB.png,,,,,,,,,,,,,,,,,,,,,,,,,,,,,,,,,,,
,,,,,,,,,,,,,,,,,5f7f6143dc758b0fc54725f1,,2022-02-12_16h57.20.575,lexical_decision_task_DD_L2,2021.2.3,Win32,100,,,,,,,,,,,1.896,1,,,,,,,,,,,,,,z,1,1.896,,,,,,,,0.887962963,-0.20462963,0,0,0,,0,29,29,157,1,INLER,HB,old,z,./images/INLERHB.png,,,,,,,,,,,,,,,,,,,,,,,,,,,,,,,,,,,
,,,,,,,,,,,,,,,,,5f7f6143dc758b0fc54725f1,,2022-02-12_16h57.20.575,lexical_decision_task_DD_L2,2021.2.3,Win32,100,,,,,,,,,,,1.323,1,,,,,,,,,,,,,,z,1,1.323,,,,,,,,0.887962963,-0.20462963,0,0,0,,0,30,30,134,1,TROSS,LB,old,z,./images/TROSSLB.png,,,,,,,,,,,,,,,,,,,,,,,,,,,,,,,,,,,
,,,,,,,,,,,,,,,,,5f7f6143dc758b0fc54725f1,,2022-02-12_16h57.20.575,lexical_decision_task_DD_L2,2021.2.3,Win32,100,,,,,,,,,,,1.093,1,,,,,,,,,,,,,,z,1,1.093,,,,,,,,0.887962963,-0.20462963,0,0,0,,0,31,31,160,1,VEETS,HB,old,z,./images/VEETSHB.png,,,,,,,,,,,,,,,,,,,,,,,,,,,,,,,,,,,
,,,,,,,,,,,,,,,,,5f7f6143dc758b0fc54725f1,,2022-02-12_16h57.20.575,lexical_decision_task_DD_L2,2021.2.3,Win32,100,,,,,,,,,,,0.89,1,,,,,,,,,,,,,,z,1,0.89,,,,,,,,0.887962963,-0.20462963,0,0,0,,0,32,32,95,1,HANTY,LB,old,z,./images/HANTYLB.png,,,,,,,,,,,,,,,,,,,,,,,,,,,,,,,,,,,
,,,,,,,,,,,,,,,,,5f7f6143dc758b0fc54725f1,,2022-02-12_16h57.20.575,lexical_decision_task_DD_L2,2021.2.3,Win32,100,,,,,,,,,,,0.55,1,,,,,,,,,,,,,,m,1,0.55,,,,,,,,0.887962963,-0.20462963,0,0,0,,0,33,33,74,1,CEMENT,C,old,m,./images/CEMENT.png,,,,,,,,,,,,,,,,,,,,,,,,,,,,,,,,,,,
,,,,,,,,,,,,,,,,,5f7f6143dc758b0fc54725f1,,2022-02-12_16h57.20.575,lexical_decision_task_DD_L2,2021.2.3,Win32,100,,,,,,,,,,,0.752,1,,,,,,,,,,,,,,m,1,0.752,,,,,,,,0.887962963,-0.20462963,0,0,0,,0,34,34,28,1,FALCON,LB,old,m,./images/FALCONLB.png,,,,,,,,,,,,,,,,,,,,,,,,,,,,,,,,,,,
,,,,,,,,,,,,,,,,,5f7f6143dc758b0fc54725f1,,2022-02-12_16h57.20.575,lexical_decision_task_DD_L2,2021.2.3,Win32,100,,,,,,,,,,,0.705,1,,,,,,,,,,,,,,m,1,0.705,,,,,,,,0.887962963,-0.20462963,0,0,0,,0,35,35,78,1,LITTER,HB,old,m,./images/LITTERHB.png,,,,,,,,,,,,,,,,,,,,,,,,,,,,,,,,,,,
,,,,,,,,,,,,,,,,,5f7f6143dc758b0fc54725f1,,2022-02-12_16h57.20.575,lexical_decision_task_DD_L2,2021.2.3,Win32,100,,,,,,,,,,,0.771,1,,,,,,,,,,,,,,z,1,0.771,,,,,,,,0.887962963,-0.20462963,0,0,0,,0,36,36,144,1,NAIRY,C,old,z,./images/NAIRY.png,,,,,,,,,,,,,,,,,,,,,,,,,,,,,,,,,,,
,,,,,,,,,,,,,,,,,5f7f6143dc758b0fc54725f1,,2022-02-12_16h57.20.575,lexical_decision_task_DD_L2,2021.2.3,Win32,100,,,,,,,,,,,0.775,1,,,,,,,,,,,,,,z,1,0.775,,,,,,,,0.887962963,-0.20462963,0,0,0,,0,37,37,92,1,PAIMS,LB,old,z,./images/PAIMSLB.png,,,,,,,,,,,,,,,,,,,,,,,,,,,,,,,,,,,
,,,,,,,,,,,,,,,,,5f7f6143dc758b0fc54725f1,,2022-02-12_16h57.20.575,lexical_decision_task_DD_L2,2021.2.3,Win32,100,,,,,,,,,,,0.66,1,,,,,,,,,,,,,,z,1,0.66,,,,,,,,0.887962963,-0.20462963,0,0,0,,0,38,38,149,1,VEASE,LB,old,z,./images/VEASELB.png,,,,,,,,,,,,,,,,,,,,,,,,,,,,,,,,,,,
,,,,,,,,,,,,,,,,,5f7f6143dc758b0fc54725f1,,2022-02-12_16h57.20.575,lexical_decision_task_DD_L2,2021.2.3,Win32,100,,,,,,,,,,,0.826,1,,,,,,,,,,,,,,z,1,0.826,,,,,,,,0.887962963,-0.20462963,0,0,0,,0,39,39,122,1,BLOOT,LB,old,z,./images/BLOOTLB.png,,,,,,,,,,,,,,,,,,,,,,,,,,,,,,,,,,,
,,,,,,,,,,,,,,,,,5f7f6143dc758b0fc54725f1,,2022-02-12_16h57.20.575,lexical_decision_task_DD_L2,2021.2.3,Win32,100,,,,,,,,,,,0.659,1,,,,,,,,,,,,,,z,1,0.659,,,,,,,,0.887962963,-0.20462963,0,0,0,,0,40,40,102,1,DULLE,C,old,z,./images/DULLE.png,,,,,,,,,,,,,,,,,,,,,,,,,,,,,,,,,,,
,,,,,,,,,,,,,,,,,5f7f6143dc758b0fc54725f1,,2022-02-12_16h57.20.575,lexical_decision_task_DD_L2,2021.2.3,Win32,100,,,,,,,,,,,1.089,1,,,,,,,,,,,,,,m,1,1.089,,,,,,,,0.887962963,-0.20462963,0,0,0,space,0,41,41,75,1,GRAIN,HB,old,m,./images/GRAINHB.png,21.551,,,,,,,,,,,,,,,,,,,,,,,,,,,,,,,,,,
,,,,,,,,,,,,,,,,,5f7f6143dc758b0fc54725f1,,2022-02-12_16h57.20.575,lexical_decision_task_DD_L2,2021.2.3,Win32,100,,,,,,,,,,,0.859,1,,,,,,,,,,,,,,m,1,0.859,,,,,,,,0.887962963,-0.20462963,0,0,0,,0,42,42,60,1,TWINS,HB,old,m,./images/TWINSHB.png,,,,,,,,,,,,,,,,,,,,,,,,,,,,,,,,,,,
,,,,,,,,,,,,,,,,,5f7f6143dc758b0fc54725f1,,2022-02-12_16h57.20.575,lexical_decision_task_DD_L2,2021.2.3,Win32,100,,,,,,,,,,,0.739,1,,,,,,,,,,,,,,z,1,0.739,,,,,,,,0.887962963,-0.20462963,0,0,0,,0,43,43,143,1,MONGS,LB,old,z,./images/MONGSLB.png,,,,,,,,,,,,,,,,,,,,,,,,,,,,,,,,,,,
,,,,,,,,,,,,,,,,,5f7f6143dc758b0fc54725f1,,2022-02-12_16h57.20.575,lexical_decision_task_DD_L2,2021.2.3,Win32,100,,,,,,,,,,,0.686,1,,,,,,,,,,,,,,m,1,0.686,,,,,,,,0.887962963,-0.20462963,0,0,0,,0,44,44,54,1,TRIPOD,HB,old,m,./images/TRIPODHB.png,,,,,,,,,,,,,,,,,,,,,,,,,,,,,,,,,,,
,,,,,,,,,,,,,,,,,5f7f6143dc758b0fc54725f1,,2022-02-12_16h57.20.575,lexical_decision_task_DD_L2,2021.2.3,Win32,100,,,,,,,,,,,0.536,1,,,,,,,,,,,,,,m,1,0.536,,,,,,,,0.887962963,-0.20462963,0,0,0,,0,45,45,26,1,SMOKER,C,old,m,./images/SMOKER.png,,,,,,,,,,,,,,,,,,,,,,,,,,,,,,,,,,,
,,,,,,,,,,,,,,,,,5f7f6143dc758b0fc54725f1,,2022-02-12_16h57.20.575,lexical_decision_task_DD_L2,2021.2.3,Win32,100,,,,,,,,,,,0.586,1,,,,,,,,,,,,,,z,1,0.586,,,,,,,,0.887962963,-0.20462963,0,0,0,,0,46,46,120,1,RINED,C,old,z,./images/RINED.png,,,,,,,,,,,,,,,,,,,,,,,,,,,,,,,,,,,
,,,,,,,,,,,,,,,,,5f7f6143dc758b0fc54725f1,,2022-02-12_16h57.20.575,lexical_decision_task_DD_L2,2021.2.3,Win32,100,,,,,,,,,,,0.63,1,,,,,,,,,,,,,,m,1,0.63,,,,,,,,0.887962963,-0.20462963,0,0,0,,0,47,47,37,1,BIRTH,LB,old,m,./images/BIRTHLB.png,,,,,,,,,,,,,,,,,,,,,,,,,,,,,,,,,,,
,,,,,,,,,,,,,,,,,5f7f6143dc758b0fc54725f1,,2022-02-12_16h57.20.575,lexical_decision_task_DD_L2,2021.2.3,Win32,100,,,,,,,,,,,0.607,1,,,,,,,,,,,,,,m,1,0.607,,,,,,,,0.887962963,-0.20462963,0,0,0,,0,48,48,55,1,MUFFIN,LB,old,m,./images/MUFFINLB.png,,,,,,,,,,,,,,,,,,,,,,,,,,,,,,,,,,,
,,,,,,,,,,,,,,,,,5f7f6143dc758b0fc54725f1,,2022-02-12_16h57.20.575,lexical_decision_task_DD_L2,2021.2.3,Win32,100,,,,,,,,,,,0.609,1,,,,,,,,,,,,,,m,1,0.609,,,,,,,,0.887962963,-0.20462963,0,0,0,,0,49,49,62,1,PURSE,C,old,m,./images/PURSE.png,,,,,,,,,,,,,,,,,,,,,,,,,,,,,,,,,,,
,,,,,,,,,,,,,,,,,5f7f6143dc758b0fc54725f1,,2022-02-12_16h57.20.575,lexical_decision_task_DD_L2,2021.2.3,Win32,100,,,,,,,,,,,0.612,1,,,,,,,,,,,,,,z,1,0.612,,,,,,,,0.887962963,-0.20462963,0,0,0,,0,50,50,155,1,CANGY,LB,old,z,./images/CANGYLB.png,,,,,,,,,,,,,,,,,,,,,,,,,,,,,,,,,,,
,,,,,,,,,,,,,,,,,5f7f6143dc758b0fc54725f1,,2022-02-12_16h57.20.575,lexical_decision_task_DD_L2,2021.2.3,Win32,100,,,,,,,,,,,0.515,1,,,,,,,,,,,,,,m,1,0.515,,,,,,,,0.887962963,-0.20462963,0,0,0,,0,51,51,61,1,CANDLE,LB,old,m,./images/CANDLELB.png,,,,,,,,,,,,,,,,,,,,,,,,,,,,,,,,,,,
,,,,,,,,,,,,,,,,,5f7f6143dc758b0fc54725f1,,2022-02-12_16h57.20.575,lexical_decision_task_DD_L2,2021.2.3,Win32,100,,,,,,,,,,,1.02,1,,,,,,,,,,,,,,z,1,1.02,,,,,,,,0.887962963,-0.20462963,0,0,0,,0,52,52,145,1,LAMEL,HB,old,z,./images/LAMELHB.png,,,,,,,,,,,,,,,,,,,,,,,,,,,,,,,,,,,
,,,,,,,,,,,,,,,,,5f7f6143dc758b0fc54725f1,,2022-02-12_16h57.20.575,lexical_decision_task_DD_L2,2021.2.3,Win32,100,,,,,,,,,,,0.627,1,,,,,,,,,,,,,,z,1,0.627,,,,,,,,0.887962963,-0.20462963,0,0,0,,0,53,53,152,1,FRAIN,LB,old,z,./images/FRAINLB.png,,,,,,,,,,,,,,,,,,,,,,,,,,,,,,,,,,,
,,,,,,,,,,,,,,,,,5f7f6143dc758b0fc54725f1,,2022-02-12_16h57.20.575,lexical_decision_task_DD_L2,2021.2.3,Win32,100,,,,,,,,,,,0.835,1,,,,,,,,,,,,,,m,1,0.835,,,,,,,,0.887962963,-0.20462963,0,0,0,,0,54,54,3,1,FINGER,HB,old,m,./images/FINGERHB.png,,,,,,,,,,,,,,,,,,,,,,,,,,,,,,,,,,,
,,,,,,,,,,,,,,,,,5f7f6143dc758b0fc54725f1,,2022-02-12_16h57.20.575,lexical_decision_task_DD_L2,2021.2.3,Win32,100,,,,,,,,,,,0.647,1,,,,,,,,,,,,,,m,1,0.647,,,,,,,,0.887962963,-0.20462963,0,0,0,,0,55,55,9,1,RHINO,HB,old,m,./images/RHINOHB.png,,,,,,,,,,,,,,,,,,,,,,,,,,,,,,,,,,,
,,,,,,,,,,,,,,,,,5f7f6143dc758b0fc54725f1,,2022-02-12_16h57.20.575,lexical_decision_task_DD_L2,2021.2.3,Win32,100,,,,,,,,,,,0.635,1,,,,,,,,,,,,,,z,1,0.635,,,,,,,,0.887962963,-0.20462963,0,0,0,,0,56,56,105,1,MOKER,C,old,z,./images/MOKER.png,,,,,,,,,,,,,,,,,,,,,,,,,,,,,,,,,,,
,,,,,,,,,,,,,,,,,5f7f6143dc758b0fc54725f1,,2022-02-12_16h57.20.575,lexical_decision_task_DD_L2,2021.2.3,Win32,100,,,,,,,,,,,0.659,1,,,,,,,,,,,,,,z,1,0.659,,,,,,,,0.887962963,-0.20462963,0,0,0,,0,57,57,104,1,GITTY,LB,old,z,./images/GITTYLB.png,,,,,,,,,,,,,,,,,,,,,,,,,,,,,,,,,,,
,,,,,,,,,,,,,,,,,5f7f6143dc758b0fc54725f1,,2022-02-12_16h57.20.575,lexical_decision_task_DD_L2,2021.2.3,Win32,100,,,,,,,,,,,1.338,1,,,,,,,,,,,,,,z,1,1.338,,,,,,,,0.887962963,-0.20462963,0,0,0,,0,58,58,164,1,SGREW,LB,old,z,./images/SGREWLB.png,,,,,,,,,,,,,,,,,,,,,,,,,,,,,,,,,,,
,,,,,,,,,,,,,,,,,5f7f6143dc758b0fc54725f1,,2022-02-12_16h57.20.575,lexical_decision_task_DD_L2,2021.2.3,Win32,100,,,,,,,,,,,0.736,1,,,,,,,,,,,,,,z,1,0.736,,,,,,,,0.887962963,-0.20462963,0,0,0,,0,59,59,116,1,BALGY,LB,old,z,./images/BALGYLB.png,,,,,,,,,,,,,,,,,,,,,,,,,,,,,,,,,,,
,,,,,,,,,,,,,,,,,5f7f6143dc758b0fc54725f1,,2022-02-12_16h57.20.575,lexical_decision_task_DD_L2,2021.2.3,Win32,100,,,,,,,,,,,0.599,1,,,,,,,,,,,,,,m,1,0.599,,,,,,,,0.887962963,-0.20462963,0,0,0,,0,60,60,18,1,JAGUAR,HB,old,m,./images/JAGUARHB.png,,,,,,,,,,,,,,,,,,,,,,,,,,,,,,,,,,,
,,,,,,,,,,,,,,,,,5f7f6143dc758b0fc54725f1,,2022-02-12_16h57.20.575,lexical_decision_task_DD_L2,2021.2.3,Win32,100,,,,,,,,,,,0.785,1,,,,,,,,,,,,,,m,1,0.785,,,,,,,,0.887962963,-0.20462963,0,0,0,,0,61,61,31,1,QUILL,LB,old,m,./images/QUILLLB.png,,,,,,,,,,,,,,,,,,,,,,,,,,,,,,,,,,,
,,,,,,,,,,,,,,,,,5f7f6143dc758b0fc54725f1,,2022-02-12_16h57.20.575,lexical_decision_task_DD_L2,2021.2.3,Win32,100,,,,,,,,,,,1.998,1,,,,,,,,,,,,,,z,1,1.998,,,,,,,,0.887962963,-0.20462963,0,0,0,,0,62,62,94,1,BLANS,HB,old,z,./images/BLANSHB.png,,,,,,,,,,,,,,,,,,,,,,,,,,,,,,,,,,,
,,,,,,,,,,,,,,,,,5f7f6143dc758b0fc54725f1,,2022-02-12_16h57.20.575,lexical_decision_task_DD_L2,2021.2.3,Win32,100,,,,,,,,,,,0.676,1,,,,,,,,,,,,,,z,1,0.676,,,,,,,,0.887962963,-0.20462963,0,0,0,,0,63,63,114,1,RIKES,C,old,z,./images/RIKES.png,,,,,,,,,,,,,,,,,,,,,,,,,,,,,,,,,,,
,,,,,,,,,,,,,,,,,5f7f6143dc758b0fc54725f1,,2022-02-12_16h57.20.575,lexical_decision_task_DD_L2,2021.2.3,Win32,100,,,,,,,,,,,0.567,1,,,,,,,,,,,,,,z,1,0.567,,,,,,,,0.887962963,-0.20462963,0,0,0,,0,64,64,87,1,TRING,C,old,z,./images/TRING.png,,,,,,,,,,,,,,,,,,,,,,,,,,,,,,,,,,,
,,,,,,,,,,,,,,,,,5f7f6143dc758b0fc54725f1,,2022-02-12_16h57.20.575,lexical_decision_task_DD_L2,2021.2.3,Win32,100,,,,,,,,,,,0.566,1,,,,,,,,,,,,,,z,1,0.566,,,,,,,,0.887962963,-0.20462963,0,0,0,,0,65,65,156,1,HIXES,C,old,z,./images/HIXES.png,,,,,,,,,,,,,,,,,,,,,,,,,,,,,,,,,,,
,,,,,,,,,,,,,,,,,5f7f6143dc758b0fc54725f1,,2022-02-12_16h57.20.575,lexical_decision_task_DD_L2,2021.2.3,Win32,100,,,,,,,,,,,0.53,1,,,,,,,,,,,,,,m,1,0.53,,,,,,,,0.887962963,-0.20462963,0,0,0,,0,66,66,22,1,MELON,LB,old,m,./images/MELONLB.png,,,,,,,,,,,,,,,,,,,,,,,,,,,,,,,,,,,
,,,,,,,,,,,,,,,,,5f7f6143dc758b0fc54725f1,,2022-02-12_16h57.20.575,lexical_decision_task_DD_L2,2021.2.3,Win32,100,,,,,,,,,,,0.589,1,,,,,,,,,,,,,,z,1,0.589,,,,,,,,0.887962963,-0.20462963,0,0,0,,0,67,67,135,1,JOODY,C,old,z,./images/JOODY.png,,,,,,,,,,,,,,,,,,,,,,,,,,,,,,,,,,,
,,,,,,,,,,,,,,,,,5f7f6143dc758b0fc54725f1,,2022-02-12_16h57.20.575,lexical_decision_task_DD_L2,2021.2.3,Win32,100,,,,,,,,,,,0.553,1,,,,,,,,,,,,,,m,1,0.553,,,,,,,,0.887962963,-0.20462963,0,0,0,,0,68,68,20,1,CRADLE,C,old,m,./images/CRADLE.png,,,,,,,,,,,,,,,,,,,,,,,,,,,,,,,,,,,
,,,,,,,,,,,,,,,,,5f7f6143dc758b0fc54725f1,,2022-02-12_16h57.20.575,lexical_decision_task_DD_L2,2021.2.3,Win32,100,,,,,,,,,,,1.978,1,,,,,,,,,,,,,,z,1,1.978,,,,,,,,0.887962963,-0.20462963,0,0,0,,0,69,69,142,1,PLASK,HB,old,z,./images/PLASKHB.png,,,,,,,,,,,,,,,,,,,,,,,,,,,,,,,,,,,
,,,,,,,,,,,,,,,,,5f7f6143dc758b0fc54725f1,,2022-02-12_16h57.20.575,lexical_decision_task_DD_L2,2021.2.3,Win32,100,,,,,,,,,,,0.637,1,,,,,,,,,,,,,,m,1,0.637,,,,,,,,0.887962963,-0.20462963,0,0,0,,0,70,70,11,1,BONNET,C,old,m,./images/BONNET.png,,,,,,,,,,,,,,,,,,,,,,,,,,,,,,,,,,,
,,,,,,,,,,,,,,,,,5f7f6143dc758b0fc54725f1,,2022-02-12_16h57.20.575,lexical_decision_task_DD_L2,2021.2.3,Win32,100,,,,,,,,,,,0.576,1,,,,,,,,,,,,,,m,1,0.576,,,,,,,,0.887962963,-0.20462963,0,0,0,,0,71,71,6,1,SQUARE,HB,old,m,./images/SQUAREHB.png,,,,,,,,,,,,,,,,,,,,,,,,,,,,,,,,,,,
,,,,,,,,,,,,,,,,,5f7f6143dc758b0fc54725f1,,2022-02-12_16h57.20.575,lexical_decision_task_DD_L2,2021.2.3,Win32,100,,,,,,,,,,,1.53,1,,,,,,,,,,,,,,z,1,1.53,,,,,,,,0.887962963,-0.20462963,0,0,0,,0,72,72,166,1,SHORY,HB,old,z,./images/SHORYHB.png,,,,,,,,,,,,,,,,,,,,,,,,,,,,,,,,,,,
,,,,,,,,,,,,,,,,,5f7f6143dc758b0fc54725f1,,2022-02-12_16h57.20.575,lexical_decision_task_DD_L2,2021.2.3,Win32,100,,,,,,,,,,,0.578,1,,,,,,,,,,,,,,z,1,0.578,,,,,,,,0.887962963,-0.20462963,0,0,0,,0,73,73,162,1,LEICH,C,old,z,./images/LEICH.png,,,,,,,,,,,,,,,,,,,,,,,,,,,,,,,,,,,
,,,,,,,,,,,,,,,,,5f7f6143dc758b0fc54725f1,,2022-02-12_16h57.20.575,lexical_decision_task_DD_L2,2021.2.3,Win32,100,,,,,,,,,,,0.737,1,,,,,,,,,,,,,,m,1,0.737,,,,,,,,0.887962963,-0.20462963,0,0,0,,0,74,74,23,1,WALRUS,C,old,m,./images/WALRUS.png,,,,,,,,,,,,,,,,,,,,,,,,,,,,,,,,,,,
,,,,,,,,,,,,,,,,,5f7f6143dc758b0fc54725f1,,2022-02-12_16h57.20.575,lexical_decision_task_DD_L2,2021.2.3,Win32,100,,,,,,,,,,,1.748,1,,,,,,,,,,,,,,z,1,1.748,,,,,,,,0.887962963,-0.20462963,0,0,0,,0,75,75,136,1,WERVE,HB,old,z,./images/WERVEHB.png,,,,,,,,,,,,,,,,,,,,,,,,,,,,,,,,,,,
,,,,,,,,,,,,,,,,,5f7f6143dc758b0fc54725f1,,2022-02-12_16h57.20.575,lexical_decision_task_DD_L2,2021.2.3,Win32,100,,,,,,,,,,,0.686,1,,,,,,,,,,,,,,z,1,0.686,,,,,,,,0.887962963,-0.20462963,0,0,0,,0,76,76,93,1,SMONE,C,old,z,./images/SMONE.png,,,,,,,,,,,,,,,,,,,,,,,,,,,,,,,,,,,
,,,,,,,,,,,,,,,,,5f7f6143dc758b0fc54725f1,,2022-02-12_16h57.20.575,lexical_decision_task_DD_L2,2021.2.3,Win32,100,,,,,,,,,,,0.559,1,,,,,,,,,,,,,,m,1,0.559,,,,,,,,0.887962963,-0.20462963,0,0,0,,0,77,77,73,1,SNACK,LB,old,m,./images/SNACKLB.png,,,,,,,,,,,,,,,,,,,,,,,,,,,,,,,,,,,
,,,,,,,,,,,,,,,,,5f7f6143dc758b0fc54725f1,,2022-02-12_16h57.20.575,lexical_decision_task_DD_L2,2021.2.3,Win32,100,,,,,,,,,,,0.587,1,,,,,,,,,,,,,,m,1,0.587,,,,,,,,0.887962963,-0.20462963,0,0,0,,0,78,78,51,1,ONION,HB,old,m,./images/ONIONHB.png,,,,,,,,,,,,,,,,,,,,,,,,,,,,,,,,,,,
,,,,,,,,,,,,,,,,,5f7f6143dc758b0fc54725f1,,2022-02-12_16h57.20.575,lexical_decision_task_DD_L2,2021.2.3,Win32,100,,,,,,,,,,,1.237,1,,,,,,,,,,,,,,z,1,1.237,,,,,,,,0.887962963,-0.20462963,0,0,0,,0,79,79,88,1,GLUSH,HB,old,z,./images/GLUSHHB.png,,,,,,,,,,,,,,,,,,,,,,,,,,,,,,,,,,,
,,,,,,,,,,,,,,,,,5f7f6143dc758b0fc54725f1,,2022-02-12_16h57.20.575,lexical_decision_task_DD_L2,2021.2.3,Win32,100,,,,,,,,,,,0.483,1,,,,,,,,,,,,,,m,1,0.483,,,,,,,,0.887962963,-0.20462963,0,0,0,,0,80,80,13,1,MOTOR,LB,old,m,./images/MOTORLB.png,,,,,,,,,,,,,,,,,,,,,,,,,,,,,,,,,,,
,,,,,,,,,,,,,,,,,5f7f6143dc758b0fc54725f1,,2022-02-12_16h57.20.575,lexical_decision_task_DD_L2,2021.2.3,Win32,100,,,,,,,,,,,0.559,1,,,,,,,,,,,,,,z,1,0.559,,,,,,,,0.887962963,-0.20462963,0,0,0,,0,81,81,126,1,GUELS,C,old,z,./images/GUELS.png,,,,,,,,,,,,,,,,,,,,,,,,,,,,,,,,,,,
,,,,,,,,,,,,,,,,,5f7f6143dc758b0fc54725f1,,2022-02-12_16h57.20.575,lexical_decision_task_DD_L2,2021.2.3,Win32,100,,,,,,,,,,,0.576,1,,,,,,,,,,,,,,m,1,0.576,,,,,,,,0.887962963,-0.20462963,0,0,0,,0,82,82,32,1,BARREL,C,old,m,./images/BARREL.png,,,,,,,,,,,,,,,,,,,,,,,,,,,,,,,,,,,
,,,,,,,,,,,,,,,,,5f7f6143dc758b0fc54725f1,,2022-02-12_16h57.20.575,lexical_decision_task_DD_L2,2021.2.3,Win32,100,,,,,,,,,,,0.61,1,,,,,,,,,,,,,,m,1,0.61,,,,,,,,0.887962963,-0.20462963,0,0,0,space,0,83,83,7,1,PAINT,LB,old,m,./images/PAINTLB.png,9.516,,,,,,,,,,,,,,,,,,,,,,,,,,,,,,,,,,
,,,,,,,,,,,,,,,,,5f7f6143dc758b0fc54725f1,,2022-02-12_16h57.20.575,lexical_decision_task_DD_L2,2021.2.3,Win32,100,,,,,,,,,,,0.497,1,,,,,,,,,,,,,,m,1,0.497,,,,,,,,0.887962963,-0.20462963,0,0,0,,0,84,84,44,1,LIZARD,C,old,m,./images/LIZARD.png,,,,,,,,,,,,,,,,,,,,,,,,,,,,,,,,,,,
,,,,,,,,,,,,,,,,,5f7f6143dc758b0fc54725f1,,2022-02-12_16h57.20.575,lexical_decision_task_DD_L2,2021.2.3,Win32,100,,,,,,,,,,,0.439,1,,,,,,,,,,,,,,m,1,0.439,,,,,,,,0.887962963,-0.20462963,0,0,0,,0,85,85,38,1,LADDER,C,old,m,./images/LADDER.png,,,,,,,,,,,,,,,,,,,,,,,,,,,,,,,,,,,
,,,,,,,,,,,,,,,,,5f7f6143dc758b0fc54725f1,,2022-02-12_16h57.20.575,lexical_decision_task_DD_L2,2021.2.3,Win32,100,,,,,,,,,,,0.55,1,,,,,,,,,,,,,,m,1,0.55,,,,,,,,0.887962963,-0.20462963,0,0,0,,0,86,86,50,1,MALLET,C,old,m,./images/MALLET.png,,,,,,,,,,,,,,,,,,,,,,,,,,,,,,,,,,,
,,,,,,,,,,,,,,,,,5f7f6143dc758b0fc54725f1,,2022-02-12_16h57.20.575,lexical_decision_task_DD_L2,2021.2.3,Win32,100,,,,,,,,,,,0.601,1,,,,,,,,,,,,,,m,1,0.601,,,,,,,,0.887962963,-0.20462963,0,0,0,,0,87,87,63,1,MIRROR,HB,old,m,./images/MIRRORHB.png,,,,,,,,,,,,,,,,,,,,,,,,,,,,,,,,,,,
,,,,,,,,,,,,,,,,,5f7f6143dc758b0fc54725f1,,2022-02-12_16h57.20.575,lexical_decision_task_DD_L2,2021.2.3,Win32,100,,,,,,,,,,,1.288,1,,,,,,,,,,,,,,z,1,1.288,,,,,,,,0.887962963,-0.20462963,0,0,0,,0,88,88,103,1,FLORT,HB,old,z,./images/FLORTHB.png,,,,,,,,,,,,,,,,,,,,,,,,,,,,,,,,,,,
,,,,,,,,,,,,,,,,,5f7f6143dc758b0fc54725f1,,2022-02-12_16h57.20.575,lexical_decision_task_DD_L2,2021.2.3,Win32,100,,,,,,,,,,,0.737,1,,,,,,,,,,,,,,z,1,0.737,,,,,,,,0.887962963,-0.20462963,0,0,0,,0,89,89,158,1,EGECT,LB,old,z,./images/EGECTLB.png,,,,,,,,,,,,,,,,,,,,,,,,,,,,,,,,,,,
,,,,,,,,,,,,,,,,,5f7f6143dc758b0fc54725f1,,2022-02-12_16h57.20.575,lexical_decision_task_DD_L2,2021.2.3,Win32,100,,,,,,,,,,,0.724,1,,,,,,,,,,,,,,m,1,0.724,,,,,,,,0.887962963,-0.20462963,0,0,0,,0,90,90,2,1,BEARD,C,old,m,./images/BEARD.png,,,,,,,,,,,,,,,,,,,,,,,,,,,,,,,,,,,
,,,,,,,,,,,,,,,,,5f7f6143dc758b0fc54725f1,,2022-02-12_16h57.20.575,lexical_decision_task_DD_L2,2021.2.3,Win32,100,,,,,,,,,,,0.669,1,,,,,,,,,,,,,,m,1,0.669,,,,,,,,0.887962963,-0.20462963,0,0,0,,0,91,91,15,1,GREASE,HB,old,m,./images/GREASEHB.png,,,,,,,,,,,,,,,,,,,,,,,,,,,,,,,,,,,
,,,,,,,,,,,,,,,,,5f7f6143dc758b0fc54725f1,,2022-02-12_16h57.20.575,lexical_decision_task_DD_L2,2021.2.3,Win32,100,,,,,,,,,,,0.79,1,,,,,,,,,,,,,,z,1,0.79,,,,,,,,0.887962963,-0.20462963,0,0,0,,0,92,92,133,1,POWDY,HB,old,z,./images/POWDYHB.png,,,,,,,,,,,,,,,,,,,,,,,,,,,,,,,,,,,
,,,,,,,,,,,,,,,,,5f7f6143dc758b0fc54725f1,,2022-02-12_16h57.20.575,lexical_decision_task_DD_L2,2021.2.3,Win32,100,,,,,,,,,,,2.163,1,,,,,,,,,,,,,,z,1,2.163,,,,,,,,0.887962963,-0.20462963,0,0,0,,0,93,93,112,1,MYING,HB,old,z,./images/MYINGHB.png,,,,,,,,,,,,,,,,,,,,,,,,,,,,,,,,,,,
,,,,,,,,,,,,,,,,,5f7f6143dc758b0fc54725f1,,2022-02-12_16h57.20.575,lexical_decision_task_DD_L2,2021.2.3,Win32,100,,,,,,,,,,,0.552,1,,,,,,,,,,,,,,m,1,0.552,,,,,,,,0.887962963,-0.20462963,0,0,0,,0,94,94,4,1,MUSCLE,LB,old,m,./images/MUSCLELB.png,,,,,,,,,,,,,,,,,,,,,,,,,,,,,,,,,,,
,,,,,,,,,,,,,,,,,5f7f6143dc758b0fc54725f1,,2022-02-12_16h57.20.575,lexical_decision_task_DD_L2,2021.2.3,Win32,100,,,,,,,,,,,1.543,1,,,,,,,,,,,,,,z,1,1.543,,,,,,,,0.887962963,-0.20462963,0,0,0,,0,95,95,163,1,GAMBA,HB,old,z,./images/GAMBAHB.png,,,,,,,,,,,,,,,,,,,,,,,,,,,,,,,,,,,
,,,,,,,,,,,,,,,,,5f7f6143dc758b0fc54725f1,,2022-02-12_16h57.20.575,lexical_decision_task_DD_L2,2021.2.3,Win32,100,,,,,,,,,,,0.766,1,,,,,,,,,,,,,,z,1,0.766,,,,,,,,0.887962963,-0.20462963,0,0,0,,0,96,96,98,1,BAMPS,LB,old,z,./images/BAMPSLB.png,,,,,,,,,,,,,,,,,,,,,,,,,,,,,,,,,,,
,,,,,,,,,,,,,,,,,5f7f6143dc758b0fc54725f1,,2022-02-12_16h57.20.575,lexical_decision_task_DD_L2,2021.2.3,Win32,100,,,,,,,,,,,1.096,1,,,,,,,,,,,,,,z,1,1.096,,,,,,,,0.887962963,-0.20462963,0,0,0,,0,97,97,139,1,BLEAR,HB,old,z,./images/BLEARHB.png,,,,,,,,,,,,,,,,,,,,,,,,,,,,,,,,,,,
,,,,,,,,,,,,,,,,,5f7f6143dc758b0fc54725f1,,2022-02-12_16h57.20.575,lexical_decision_task_DD_L2,2021.2.3,Win32,100,,,,,,,,,,,0.686,1,,,,,,,,,,,,,,z,1,0.686,,,,,,,,0.887962963,-0.20462963,0,0,0,,0,98,98,161,1,BLAPS,LB,old,z,./images/BLAPSLB.png,,,,,,,,,,,,,,,,,,,,,,,,,,,,,,,,,,,
,,,,,,,,,,,,,,,,,5f7f6143dc758b0fc54725f1,,2022-02-12_16h57.20.575,lexical_decision_task_DD_L2,2021.2.3,Win32,100,,,,,,,,,,,0.596,1,,,,,,,,,,,,,,m,1,0.596,,,,,,,,0.887962963,-0.20462963,0,0,0,,0,99,99,79,1,CRUST,LB,old,m,./images/CRUSTLB.png,,,,,,,,,,,,,,,,,,,,,,,,,,,,,,,,,,,
,,,,,,,,,,,,,,,,,5f7f6143dc758b0fc54725f1,,2022-02-12_16h57.20.575,lexical_decision_task_DD_L2,2021.2.3,Win32,100,,,,,,,,,,,0.846,1,,,,,,,,,,,,,,z,1,0.846,,,,,,,,0.887962963,-0.20462963,0,0,0,,0,100,100,148,1,JOMS,HB,old,z,./images/JOMSHB.png,,,,,,,,,,,,,,,,,,,,,,,,,,,,,,,,,,,
,,,,,,,,,,,,,,,,,5f7f6143dc758b0fc54725f1,,2022-02-12_16h57.20.575,lexical_decision_task_DD_L2,2021.2.3,Win32,100,,,,,,,,,,,0.56,1,,,,,,,,,,,,,,m,1,0.56,,,,,,,,0.887962963,-0.20462963,0,0,0,,0,101,101,70,1,URINE,LB,old,m,./images/URINELB.png,,,,,,,,,,,,,,,,,,,,,,,,,,,,,,,,,,,
,,,,,,,,,,,,,,,,,5f7f6143dc758b0fc54725f1,,2022-02-12_16h57.20.575,lexical_decision_task_DD_L2,2021.2.3,Win32,100,,,,,,,,,,,0.602,1,,,,,,,,,,,,,,m,1,0.602,,,,,,,,0.887962963,-0.20462963,0,0,0,,0,102,102,27,1,ATTIC,HB,old,m,./images/ATTICHB.png,,,,,,,,,,,,,,,,,,,,,,,,,,,,,,,,,,,
,,,,,,,,,,,,,,,,,5f7f6143dc758b0fc54725f1,,2022-02-12_16h57.20.575,lexical_decision_task_DD_L2,2021.2.3,Win32,100,,,,,,,,,,,1.64,1,,,,,,,,,,,,,,z,1,1.64,,,,,,,,0.887962963,-0.20462963,0,0,0,,0,103,103,154,1,THINT,HB,old,z,./images/THINTHB.png,,,,,,,,,,,,,,,,,,,,,,,,,,,,,,,,,,,
,,,,,,,,,,,,,,,,,5f7f6143dc758b0fc54725f1,,2022-02-12_16h57.20.575,lexical_decision_task_DD_L2,2021.2.3,Win32,100,,,,,,,,,,,0.651,1,,,,,,,,,,,,,,z,1,0.651,,,,,,,,0.887962963,-0.20462963,0,0,0,,0,104,104,129,1,PRANS,C,old,z,./images/PRANS.png,,,,,,,,,,,,,,,,,,,,,,,,,,,,,,,,,,,
,,,,,,,,,,,,,,,,,5f7f6143dc758b0fc54725f1,,2022-02-12_16h57.20.575,lexical_decision_task_DD_L2,2021.2.3,Win32,100,,,,,,,,,,,0.627,1,,,,,,,,,,,,,,z,1,0.627,,,,,,,,0.887962963,-0.20462963,0,0,0,,0,105,105,125,1,MOOKY,LB,old,z,./images/MOOKYLB.png,,,,,,,,,,,,,,,,,,,,,,,,,,,,,,,,,,,
,,,,,,,,,,,,,,,,,5f7f6143dc758b0fc54725f1,,2022-02-12_16h57.20.575,lexical_decision_task_DD_L2,2021.2.3,Win32,100,,,,,,,,,,,0.948,1,,,,,,,,,,,,,,m,1,0.948,,,,,,,,0.887962963,-0.20462963,0,0,0,,0,106,106,72,1,NOOSE,HB,old,m,./images/NOOSEHB.png,,,,,,,,,,,,,,,,,,,,,,,,,,,,,,,,,,,
,,,,,,,,,,,,,,,,,5f7f6143dc758b0fc54725f1,,2022-02-12_16h57.20.575,lexical_decision_task_DD_L2,2021.2.3,Win32,100,,,,,,,,,,,0.712,1,,,,,,,,,,,,,,m,1,0.712,,,,,,,,0.887962963,-0.20462963,0,0,0,,0,107,107,42,1,FOLDER,HB,old,m,./images/FOLDERHB.png,,,,,,,,,,,,,,,,,,,,,,,,,,,,,,,,,,,
,,,,,,,,,,,,,,,,,5f7f6143dc758b0fc54725f1,,2022-02-12_16h57.20.575,lexical_decision_task_DD_L2,2021.2.3,Win32,100,,,,,,,,,,,1.791,1,,,,,,,,,,,,,,z,1,1.791,,,,,,,,0.887962963,-0.20462963,0,0,0,,0,108,108,85,1,CHULK,HB,old,z,./images/CHULKHB.png,,,,,,,,,,,,,,,,,,,,,,,,,,,,,,,,,,,
,,,,,,,,,,,,,,,,,5f7f6143dc758b0fc54725f1,,2022-02-12_16h57.20.575,lexical_decision_task_DD_L2,2021.2.3,Win32,100,,,,,,,,,,,0.526,1,,,,,,,,,,,,,,m,1,0.526,,,,,,,,0.887962963,-0.20462963,0,0,0,,0,109,109,65,1,FARMER,C,old,m,./images/FARMER.png,,,,,,,,,,,,,,,,,,,,,,,,,,,,,,,,,,,
,,,,,,,,,,,,,,,,,5f7f6143dc758b0fc54725f1,,2022-02-12_16h57.20.575,lexical_decision_task_DD_L2,2021.2.3,Win32,100,,,,,,,,,,,0.848,1,,,,,,,,,,,,,,m,1,0.848,,,,,,,,0.887962963,-0.20462963,0,0,0,,0,110,110,46,1,PEARL,LB,old,m,./images/PEARLLB.png,,,,,,,,,,,,,,,,,,,,,,,,,,,,,,,,,,,
,,,,,,,,,,,,,,,,,5f7f6143dc758b0fc54725f1,,2022-02-12_16h57.20.575,lexical_decision_task_DD_L2,2021.2.3,Win32,100,,,,,,,,,,,0.811,1,,,,,,,,,,,,,,m,1,0.811,,,,,,,,0.887962963,-0.20462963,0,0,0,,0,111,111,1,1,PLANK,LB,old,m,./images/PLANKLB.png,,,,,,,,,,,,,,,,,,,,,,,,,,,,,,,,,,,
,,,,,,,,,,,,,,,,,5f7f6143dc758b0fc54725f1,,2022-02-12_16h57.20.575,lexical_decision_task_DD_L2,2021.2.3,Win32,100,,,,,,,,,,,0.754,1,,,,,,,,,,,,,,z,1,0.754,,,,,,,,0.887962963,-0.20462963,0,0,0,,0,112,112,131,1,NACES,LB,old,z,./images/NACESLB.png,,,,,,,,,,,,,,,,,,,,,,,,,,,,,,,,,,,
,,,,,,,,,,,,,,,,,5f7f6143dc758b0fc54725f1,,2022-02-12_16h57.20.575,lexical_decision_task_DD_L2,2021.2.3,Win32,100,,,,,,,,,,,0.788,0,,,,,,,,,,,,,,z,0,0.788,,,,,,,,0.887962963,-0.20462963,0,0,0,,0,113,113,43,1,MOSQUE,LB,old,m,./images/MOSQUELB.png,,,,,,,,,,,,,,,,,,,,,,,,,,,,,,,,,,,
,,,,,,,,,,,,,,,,,5f7f6143dc758b0fc54725f1,,2022-02-12_16h57.20.575,lexical_decision_task_DD_L2,2021.2.3,Win32,100,,,,,,,,,,,0.701,1,,,,,,,,,,,,,,m,1,0.701,,,,,,,,0.887962963,-0.20462963,0,0,0,,0,114,114,0,1,TOMATO,HB,old,m,./images/TOMATOHB.png,,,,,,,,,,,,,,,,,,,,,,,,,,,,,,,,,,,
,,,,,,,,,,,,,,,,,5f7f6143dc758b0fc54725f1,,2022-02-12_16h57.20.575,lexical_decision_task_DD_L2,2021.2.3,Win32,100,,,,,,,,,,,0.655,1,,,,,,,,,,,,,,m,1,0.655,,,,,,,,0.887962963,-0.20462963,0,0,0,,0,115,115,49,1,DRUMS,LB,old,m,./images/DRUMSLB.png,,,,,,,,,,,,,,,,,,,,,,,,,,,,,,,,,,,
,,,,,,,,,,,,,,,,,5f7f6143dc758b0fc54725f1,,2022-02-12_16h57.20.575,lexical_decision_task_DD_L2,2021.2.3,Win32,100,,,,,,,,,,,0.653,1,,,,,,,,,,,,,,m,1,0.653,,,,,,,,0.887962963,-0.20462963,0,0,0,,0,116,116,81,1,POODLE,HB,old,m,./images/POODLEHB.png,,,,,,,,,,,,,,,,,,,,,,,,,,,,,,,,,,,
,,,,,,,,,,,,,,,,,5f7f6143dc758b0fc54725f1,,2022-02-12_16h57.20.575,lexical_decision_task_DD_L2,2021.2.3,Win32,100,,,,,,,,,,,0.596,1,,,,,,,,,,,,,,m,1,0.596,,,,,,,,0.887962963,-0.20462963,0,0,0,,0,117,117,35,1,PEACH,C,old,m,./images/PEACH.png,,,,,,,,,,,,,,,,,,,,,,,,,,,,,,,,,,,
,,,,,,,,,,,,,,,,,5f7f6143dc758b0fc54725f1,,2022-02-12_16h57.20.575,lexical_decision_task_DD_L2,2021.2.3,Win32,100,,,,,,,,,,,0.596,0,,,,,,,,,,,,,,m,0,0.596,,,,,,,,0.887962963,-0.20462963,0,0,0,,0,118,118,159,1,CUDDY,C,old,z,./images/CUDDY.png,,,,,,,,,,,,,,,,,,,,,,,,,,,,,,,,,,,
,,,,,,,,,,,,,,,,,5f7f6143dc758b0fc54725f1,,2022-02-12_16h57.20.575,lexical_decision_task_DD_L2,2021.2.3,Win32,100,,,,,,,,,,,0.625,1,,,,,,,,,,,,,,m,1,0.625,,,,,,,,0.887962963,-0.20462963,0,0,0,,0,119,119,48,1,SPORT,HB,old,m,./images/SPORTHB.png,,,,,,,,,,,,,,,,,,,,,,,,,,,,,,,,,,,
,,,,,,,,,,,,,,,,,5f7f6143dc758b0fc54725f1,,2022-02-12_16h57.20.575,lexical_decision_task_DD_L2,2021.2.3,Win32,100,,,,,,,,,,,0.673,1,,,,,,,,,,,,,,z,1,0.673,,,,,,,,0.887962963,-0.20462963,0,0,0,,0,120,120,108,1,GRUET,C,old,z,./images/GRUET.png,,,,,,,,,,,,,,,,,,,,,,,,,,,,,,,,,,,
,,,,,,,,,,,,,,,,,5f7f6143dc758b0fc54725f1,,2022-02-12_16h57.20.575,lexical_decision_task_DD_L2,2021.2.3,Win32,100,,,,,,,,,,,0.628,1,,,,,,,,,,,,,,m,1,0.628,,,,,,,,0.887962963,-0.20462963,0,0,0,,0,121,121,66,1,SWEAT,HB,old,m,./images/SWEATHB.png,,,,,,,,,,,,,,,,,,,,,,,,,,,,,,,,,,,
,,,,,,,,,,,,,,,,,5f7f6143dc758b0fc54725f1,,2022-02-12_16h57.20.575,lexical_decision_task_DD_L2,2021.2.3,Win32,100,,,,,,,,,,,0.638,1,,,,,,,,,,,,,,z,1,0.638,,,,,,,,0.887962963,-0.20462963,0,0,0,,0,122,122,153,1,CLUPS,C,old,z,./images/CLUPS.png,,,,,,,,,,,,,,,,,,,,,,,,,,,,,,,,,,,
,,,,,,,,,,,,,,,,,5f7f6143dc758b0fc54725f1,,2022-02-12_16h57.20.575,lexical_decision_task_DD_L2,2021.2.3,Win32,100,,,,,,,,,,,0.56,1,,,,,,,,,,,,,,m,1,0.56,,,,,,,,0.887962963,-0.20462963,0,0,0,,0,123,123,45,1,KITTEN,HB,old,m,./images/KITTENHB.png,,,,,,,,,,,,,,,,,,,,,,,,,,,,,,,,,,,
,,,,,,,,,,,,,,,,,5f7f6143dc758b0fc54725f1,,2022-02-12_16h57.20.575,lexical_decision_task_DD_L2,2021.2.3,Win32,100,,,,,,,,,,,0.639,1,,,,,,,,,,,,,,z,1,0.639,,,,,,,,0.887962963,-0.20462963,0,0,0,,0,124,124,96,1,KEAMS,C,old,z,./images/KEAMS.png,,,,,,,,,,,,,,,,,,,,,,,,,,,,,,,,,,,
,,,,,,,,,,,,,,,,,5f7f6143dc758b0fc54725f1,,2022-02-12_16h57.20.575,lexical_decision_task_DD_L2,2021.2.3,Win32,100,,,,,,,,,,,1.177,1,,,,,,,,,,,,,,z,1,1.177,,,,,,,,0.887962963,-0.20462963,0,0,0,space,0,125,125,118,1,BAVEL,HB,old,z,./images/BAVELHB.png,0.762,,,,,,,,,,,,,,,,,,,,,,,,,,,,,,,,,,
,,,,,,,,,,,,,,,,,5f7f6143dc758b0fc54725f1,,2022-02-12_16h57.20.575,lexical_decision_task_DD_L2,2021.2.3,Win32,100,,,,,,,,,,,1.19,1,,,,,,,,,,,,,,z,1,1.19,,,,,,,,0.887962963,-0.20462963,0,0,0,,0,126,126,124,1,TUNCH,HB,old,z,./images/TUNCHHB.png,,,,,,,,,,,,,,,,,,,,,,,,,,,,,,,,,,,
,,,,,,,,,,,,,,,,,5f7f6143dc758b0fc54725f1,,2022-02-12_16h57.20.575,lexical_decision_task_DD_L2,2021.2.3,Win32,100,,,,,,,,,,,0.676,1,,,,,,,,,,,,,,m,1,0.676,,,,,,,,0.887962963,-0.20462963,0,0,0,,0,127,127,12,1,SHORE,HB,old,m,./images/SHOREHB.png,,,,,,,,,,,,,,,,,,,,,,,,,,,,,,,,,,,
,,,,,,,,,,,,,,,,,5f7f6143dc758b0fc54725f1,,2022-02-12_16h57.20.575,lexical_decision_task_DD_L2,2021.2.3,Win32,100,,,,,,,,,,,0.573,1,,,,,,,,,,,,,,m,1,0.573,,,,,,,,0.887962963,-0.20462963,0,0,0,,0,128,128,80,1,WEASEL,C,old,m,./images/WEASEL.png,,,,,,,,,,,,,,,,,,,,,,,,,,,,,,,,,,,
,,,,,,,,,,,,,,,,,5f7f6143dc758b0fc54725f1,,2022-02-12_16h57.20.575,lexical_decision_task_DD_L2,2021.2.3,Win32,100,,,,,,,,,,,0.552,1,,,,,,,,,,,,,,m,1,0.552,,,,,,,,0.887962963,-0.20462963,0,0,0,,0,129,129,71,1,PIMPLE,C,old,m,./images/PIMPLE.png,,,,,,,,,,,,,,,,,,,,,,,,,,,,,,,,,,,
,,,,,,,,,,,,,,,,,5f7f6143dc758b0fc54725f1,,2022-02-12_16h57.20.575,lexical_decision_task_DD_L2,2021.2.3,Win32,100,,,,,,,,,,,0.565,1,,,,,,,,,,,,,,m,1,0.565,,,,,,,,0.887962963,-0.20462963,0,0,0,,0,130,130,76,1,INFANT,LB,old,m,./images/INFANTLB.png,,,,,,,,,,,,,,,,,,,,,,,,,,,,,,,,,,,
,,,,,,,,,,,,,,,,,5f7f6143dc758b0fc54725f1,,2022-02-12_16h57.20.575,lexical_decision_task_DD_L2,2021.2.3,Win32,100,,,,,,,,,,,1.047,1,,,,,,,,,,,,,,m,1,1.047,,,,,,,,0.887962963,-0.20462963,0,0,0,,0,131,131,69,1,COOKER,HB,old,m,./images/COOKERHB.png,,,,,,,,,,,,,,,,,,,,,,,,,,,,,,,,,,,
,,,,,,,,,,,,,,,,,5f7f6143dc758b0fc54725f1,,2022-02-12_16h57.20.575,lexical_decision_task_DD_L2,2021.2.3,Win32,100,,,,,,,,,,,0.499,1,,,,,,,,,,,,,,m,1,0.499,,,,,,,,0.887962963,-0.20462963,0,0,0,,0,132,132,56,1,PACKET,C,old,m,./images/PACKET.png,,,,,,,,,,,,,,,,,,,,,,,,,,,,,,,,,,,
,,,,,,,,,,,,,,,,,5f7f6143dc758b0fc54725f1,,2022-02-12_16h57.20.575,lexical_decision_task_DD_L2,2021.2.3,Win32,100,,,,,,,,,,,0.613,1,,,,,,,,,,,,,,z,1,0.613,,,,,,,,0.887962963,-0.20462963,0,0,0,,0,133,133,132,1,SCIFF,C,old,z,./images/SCIFF.png,,,,,,,,,,,,,,,,,,,,,,,,,,,,,,,,,,,
,,,,,,,,,,,,,,,,,5f7f6143dc758b0fc54725f1,,2022-02-12_16h57.20.575,lexical_decision_task_DD_L2,2021.2.3,Win32,100,,,,,,,,,,,2.007,1,,,,,,,,,,,,,,z,1,2.007,,,,,,,,0.887962963,-0.20462963,0,0,0,,0,134,134,100,1,DRIBS,HB,old,z,./images/DRIBSHB.png,,,,,,,,,,,,,,,,,,,,,,,,,,,,,,,,,,,
,,,,,,,,,,,,,,,,,5f7f6143dc758b0fc54725f1,,2022-02-12_16h57.20.575,lexical_decision_task_DD_L2,2021.2.3,Win32,100,,,,,,,,,,,0.591,1,,,,,,,,,,,,,,m,1,0.591,,,,,,,,0.887962963,-0.20462963,0,0,0,,0,135,135,5,1,PASTA,C,old,m,./images/PASTA.png,,,,,,,,,,,,,,,,,,,,,,,,,,,,,,,,,,,
,,,,,,,,,,,,,,,,,5f7f6143dc758b0fc54725f1,,2022-02-12_16h57.20.575,lexical_decision_task_DD_L2,2021.2.3,Win32,100,,,,,,,,,,,0.505,1,,,,,,,,,,,,,,m,1,0.505,,,,,,,,0.887962963,-0.20462963,0,0,0,,0,136,136,67,1,SAILOR,LB,old,m,./images/SAILORLB.png,,,,,,,,,,,,,,,,,,,,,,,,,,,,,,,,,,,
,,,,,,,,,,,,,,,,,5f7f6143dc758b0fc54725f1,,2022-02-12_16h57.20.575,lexical_decision_task_DD_L2,2021.2.3,Win32,100,,,,,,,,,,,0.646,1,,,,,,,,,,,,,,z,1,0.646,,,,,,,,0.887962963,-0.20462963,0,0,0,,0,137,137,137,1,JOOST,LB,old,z,./images/JOOSTLB.png,,,,,,,,,,,,,,,,,,,,,,,,,,,,,,,,,,,
,,,,,,,,,,,,,,,,,5f7f6143dc758b0fc54725f1,,2022-02-12_16h57.20.575,lexical_decision_task_DD_L2,2021.2.3,Win32,100,,,,,,,,,,,1.386,1,,,,,,,,,,,,,,z,1,1.386,,,,,,,,0.887962963,-0.20462963,0,0,0,,0,138,138,128,1,GRIFT,LB,old,z,./images/GRIFTLB.png,,,,,,,,,,,,,,,,,,,,,,,,,,,,,,,,,,,
,,,,,,,,,,,,,,,,,5f7f6143dc758b0fc54725f1,,2022-02-12_16h57.20.575,lexical_decision_task_DD_L2,2021.2.3,Win32,100,,,,,,,,,,,1.056,1,,,,,,,,,,,,,,z,1,1.056,,,,,,,,0.887962963,-0.20462963,0,0,0,,0,139,139,106,1,CLUMS,HB,old,z,./images/CLUMSHB.png,,,,,,,,,,,,,,,,,,,,,,,,,,,,,,,,,,,
,,,,,,,,,,,,,,,,,5f7f6143dc758b0fc54725f1,,2022-02-12_16h57.20.575,lexical_decision_task_DD_L2,2021.2.3,Win32,100,,,,,,,,,,,0.525,1,,,,,,,,,,,,,,m,1,0.525,,,,,,,,0.887962963,-0.20462963,0,0,0,,0,140,140,77,1,COUCH,C,old,m,./images/COUCH.png,,,,,,,,,,,,,,,,,,,,,,,,,,,,,,,,,,,
,,,,,,,,,,,,,,,,,5f7f6143dc758b0fc54725f1,,2022-02-12_16h57.20.575,lexical_decision_task_DD_L2,2021.2.3,Win32,100,,,,,,,,,,,0.535,1,,,,,,,,,,,,,,m,1,0.535,,,,,,,,0.887962963,-0.20462963,0,0,0,,0,141,141,25,1,WRIST,LB,old,m,./images/WRISTLB.png,,,,,,,,,,,,,,,,,,,,,,,,,,,,,,,,,,,
,,,,,,,,,,,,,,,,,5f7f6143dc758b0fc54725f1,,2022-02-12_16h57.20.575,lexical_decision_task_DD_L2,2021.2.3,Win32,100,,,,,,,,,,,0.666,1,,,,,,,,,,,,,,z,1,0.666,,,,,,,,0.887962963,-0.20462963,0,0,0,,0,142,142,123,1,SEDGE,C,old,z,./images/SEDGE.png,,,,,,,,,,,,,,,,,,,,,,,,,,,,,,,,,,,
,,,,,,,,,,,,,,,,,5f7f6143dc758b0fc54725f1,,2022-02-12_16h57.20.575,lexical_decision_task_DD_L2,2021.2.3,Win32,100,,,,,,,,,,,0.649,1,,,,,,,,,,,,,,m,1,0.649,,,,,,,,0.887962963,-0.20462963,0,0,0,,0,143,143,59,1,BURIAL,C,old,m,./images/BURIAL.png,,,,,,,,,,,,,,,,,,,,,,,,,,,,,,,,,,,
,,,,,,,,,,,,,,,,,5f7f6143dc758b0fc54725f1,,2022-02-12_16h57.20.575,lexical_decision_task_DD_L2,2021.2.3,Win32,100,,,,,,,,,,,2.068,1,,,,,,,,,,,,,,z,1,2.068,,,,,,,,0.887962963,-0.20462963,0,0,0,,0,144,144,127,1,NINDY,HB,old,z,./images/NINDYHB.png,,,,,,,,,,,,,,,,,,,,,,,,,,,,,,,,,,,
,,,,,,,,,,,,,,,,,5f7f6143dc758b0fc54725f1,,2022-02-12_16h57.20.575,lexical_decision_task_DD_L2,2021.2.3,Win32,100,,,,,,,,,,,0.808,1,,,,,,,,,,,,,,z,1,0.808,,,,,,,,0.887962963,-0.20462963,0,0,0,,0,145,145,138,1,PLICE,C,old,z,./images/PLICE.png,,,,,,,,,,,,,,,,,,,,,,,,,,,,,,,,,,,
,,,,,,,,,,,,,,,,,5f7f6143dc758b0fc54725f1,,2022-02-12_16h57.20.575,lexical_decision_task_DD_L2,2021.2.3,Win32,100,,,,,,,,,,,0.51,1,,,,,,,,,,,,,,m,1,0.51,,,,,,,,0.887962963,-0.20462963,0,0,0,,0,146,146,68,1,TORCH,C,old,m,./images/TORCH.png,,,,,,,,,,,,,,,,,,,,,,,,,,,,,,,,,,,
,,,,,,,,,,,,,,,,,5f7f6143dc758b0fc54725f1,,2022-02-12_16h57.20.575,lexical_decision_task_DD_L2,2021.2.3,Win32,100,,,,,,,,,,,0.477,1,,,,,,,,,,,,,,m,1,0.477,,,,,,,,0.887962963,-0.20462963,0,0,0,,0,147,147,47,1,BERRY,C,old,m,./images/BERRY.png,,,,,,,,,,,,,,,,,,,,,,,,,,,,,,,,,,,
,,,,,,,,,,,,,,,,,5f7f6143dc758b0fc54725f1,,2022-02-12_16h57.20.575,lexical_decision_task_DD_L2,2021.2.3,Win32,100,,,,,,,,,,,0.575,1,,,,,,,,,,,,,,z,1,0.575,,,,,,,,0.887962963,-0.20462963,0,0,0,,0,148,148,111,1,HOSSE,C,old,z,./images/HOSSE.png,,,,,,,,,,,,,,,,,,,,,,,,,,,,,,,,,,,
,,,,,,,,,,,,,,,,,5f7f6143dc758b0fc54725f1,,2022-02-12_16h57.20.575,lexical_decision_task_DD_L2,2021.2.3,Win32,100,,,,,,,,,,,0.719,1,,,,,,,,,,,,,,z,1,0.719,,,,,,,,0.887962963,-0.20462963,0,0,0,,0,149,149,113,1,LINEW,LB,old,z,./images/LINEWLB.png,,,,,,,,,,,,,,,,,,,,,,,,,,,,,,,,,,,
,,,,,,,,,,,,,,,,,5f7f6143dc758b0fc54725f1,,2022-02-12_16h57.20.575,lexical_decision_task_DD_L2,2021.2.3,Win32,100,,,,,,,,,,,4.09,0,,,,,,,,,,,,,,m,0,4.09,,,,,,,,0.887962963,-0.20462963,0,0,0,,0,150,150,151,1,TINKY,HB,old,z,./images/TINKYHB.png,,,,,,,,,,,,,,,,,,,,,,,,,,,,,,,,,,,
,,,,,,,,,,,,,,,,,5f7f6143dc758b0fc54725f1,,2022-02-12_16h57.20.575,lexical_decision_task_DD_L2,2021.2.3,Win32,100,,,,,,,,,,,0.573,1,,,,,,,,,,,,,,m,1,0.573,,,,,,,,0.887962963,-0.20462963,0,0,0,,0,151,151,29,1,CRUMB,C,old,m,./images/CRUMB.png,,,,,,,,,,,,,,,,,,,,,,,,,,,,,,,,,,,
,,,,,,,,,,,,,,,,,5f7f6143dc758b0fc54725f1,,2022-02-12_16h57.20.575,lexical_decision_task_DD_L2,2021.2.3,Win32,100,,,,,,,,,,,0.765,1,,,,,,,,,,,,,,z,1,0.765,,,,,,,,0.887962963,-0.20462963,0,0,0,,0,152,152,165,1,TROWN,C,old,z,./images/TROWN.png,,,,,,,,,,,,,,,,,,,,,,,,,,,,,,,,,,,
,,,,,,,,,,,,,,,,,5f7f6143dc758b0fc54725f1,,2022-02-12_16h57.20.575,lexical_decision_task_DD_L2,2021.2.3,Win32,100,,,,,,,,,,,0.547,1,,,,,,,,,,,,,,m,1,0.547,,,,,,,,0.887962963,-0.20462963,0,0,0,,0,153,153,24,1,SCREW,HB,old,m,./images/SCREWHB.png,,,,,,,,,,,,,,,,,,,,,,,,,,,,,,,,,,,
,,,,,,,,,,,,,,,,,5f7f6143dc758b0fc54725f1,,2022-02-12_16h57.20.575,lexical_decision_task_DD_L2,2021.2.3,Win32,100,,,,,,,,,,,0.635,1,,,,,,,,,,,,,,z,1,0.635,,,,,,,,0.887962963,-0.20462963,0,0,0,,0,154,154,107,1,FASKS,LB,old,z,./images/FASKSLB.png,,,,,,,,,,,,,,,,,,,,,,,,,,,,,,,,,,,
,,,,,,,,,,,,,,,,,5f7f6143dc758b0fc54725f1,,2022-02-12_16h57.20.575,lexical_decision_task_DD_L2,2021.2.3,Win32,100,,,,,,,,,,,0.586,1,,,,,,,,,,,,,,m,1,0.586,,,,,,,,0.887962963,-0.20462963,0,0,0,,0,155,155,64,1,JELLY,LB,old,m,./images/JELLYLB.png,,,,,,,,,,,,,,,,,,,,,,,,,,,,,,,,,,,
,,,,,,,,,,,,,,,,,5f7f6143dc758b0fc54725f1,,2022-02-12_16h57.20.575,lexical_decision_task_DD_L2,2021.2.3,Win32,100,,,,,,,,,,,2.421,1,,,,,,,,,,,,,,z,1,2.421,,,,,,,,0.887962963,-0.20462963,0,0,0,,0,156,156,130,1,CRILL,HB,old,z,./images/CRILLHB.png,,,,,,,,,,,,,,,,,,,,,,,,,,,,,,,,,,,
,,,,,,,,,,,,,,,,,5f7f6143dc758b0fc54725f1,,2022-02-12_16h57.20.575,lexical_decision_task_DD_L2,2021.2.3,Win32,100,,,,,,,,,,,0.776,1,,,,,,,,,,,,,,z,1,0.776,,,,,,,,0.887962963,-0.20462963,0,0,0,,0,157,157,86,1,AIFED,LB,old,z,./images/AIFEDLB.png,,,,,,,,,,,,,,,,,,,,,,,,,,,,,,,,,,,
,,,,,,,,,,,,,,,,,5f7f6143dc758b0fc54725f1,,2022-02-12_16h57.20.575,lexical_decision_task_DD_L2,2021.2.3,Win32,100,,,,,,,,,,,1.436,1,,,,,,,,,,,,,,z,1,1.436,,,,,,,,0.887962963,-0.20462963,0,0,0,,0,158,158,141,1,PLEET,C,old,z,./images/PLEET.png,,,,,,,,,,,,,,,,,,,,,,,,,,,,,,,,,,,
,,,,,,,,,,,,,,,,,5f7f6143dc758b0fc54725f1,,2022-02-12_16h57.20.575,lexical_decision_task_DD_L2,2021.2.3,Win32,100,,,,,,,,,,,0.595,1,,,,,,,,,,,,,,m,1,0.595,,,,,,,,0.887962963,-0.20462963,0,0,0,,0,159,159,53,1,CARPET,C,old,m,./images/CARPET.png,,,,,,,,,,,,,,,,,,,,,,,,,,,,,,,,,,,
,,,,,,,,,,,,,,,,,5f7f6143dc758b0fc54725f1,,2022-02-12_16h57.20.575,lexical_decision_task_DD_L2,2021.2.3,Win32,100,,,,,,,,,,,0.832,1,,,,,,,,,,,,,,m,1,0.832,,,,,,,,0.887962963,-0.20462963,0,0,0,,0,160,160,58,1,BABOON,LB,old,m,./images/BABOONLB.png,,,,,,,,,,,,,,,,,,,,,,,,,,,,,,,,,,,
,,,,,,,,,,,,,,,,,5f7f6143dc758b0fc54725f1,,2022-02-12_16h57.20.575,lexical_decision_task_DD_L2,2021.2.3,Win32,100,,,,,,,,,,,0.61,1,,,,,,,,,,,,,,m,1,0.61,,,,,,,,0.887962963,-0.20462963,0,0,0,,0,161,161,10,1,BELLY,LB,old,m,./images/BELLYLB.png,,,,,,,,,,,,,,,,,,,,,,,,,,,,,,,,,,,
,,,,,,,,,,,,,,,,,5f7f6143dc758b0fc54725f1,,2022-02-12_16h57.20.575,lexical_decision_task_DD_L2,2021.2.3,Win32,100,,,,,,,,,,,0.813,1,,,,,,,,,,,,,,z,1,0.813,,,,,,,,0.887962963,-0.20462963,0,0,0,,0,162,162,146,1,MOOST,LB,old,z,./images/MOOSTLB.png,,,,,,,,,,,,,,,,,,,,,,,,,,,,,,,,,,,
,,,,,,,,,,,,,,,,,5f7f6143dc758b0fc54725f1,,2022-02-12_16h57.20.575,lexical_decision_task_DD_L2,2021.2.3,Win32,100,,,,,,,,,,,2.131,1,,,,,,,,,,,,,,z,1,2.131,,,,,,,,0.887962963,-0.20462963,0,0,0,,0,163,163,91,1,SHENS,HB,old,z,./images/SHENSHB.png,,,,,,,,,,,,,,,,,,,,,,,,,,,,,,,,,,,
,,,,,,,,,,,,,,,,,5f7f6143dc758b0fc54725f1,,2022-02-12_16h57.20.575,lexical_decision_task_DD_L2,2021.2.3,Win32,100,,,,,,,,,,,1.149,1,,,,,,,,,,,,,,z,1,1.149,,,,,,,,0.887962963,-0.20462963,0,0,0,,0,164,164,119,1,PAFER,LB,old,z,./images/PAFERLB.png,,,,,,,,,,,,,,,,,,,,,,,,,,,,,,,,,,,
,,,,,,,,,,,,,,,,,5f7f6143dc758b0fc54725f1,,2022-02-12_16h57.20.575,lexical_decision_task_DD_L2,2021.2.3,Win32,100,,,,,,,,,,,0.648,1,,,,,,,,,,,,,,m,1,0.648,,,,,,,,0.887962963,-0.20462963,0,0,0,,0,165,165,17,1,SKIING,C,old,m,./images/SKIING.png,,,,,,,,,,,,,,,,,,,,,,,,,,,,,,,,,,,
,,,,,,,,,,,,,,,,,5f7f6143dc758b0fc54725f1,,2022-02-12_16h57.20.575,lexical_decision_task_DD_L2,2021.2.3,Win32,100,,,,,,,,,,,1.186,1,,,,,,,,,,,,,,z,1,1.186,,,,,,,,0.887962963,-0.20462963,0,0,0,,0,166,166,140,1,DOVET,LB,old,z,./images/DOVETLB.png,,,,,,,,,,,,,,,,,,,,,,,,,,,,,,,,,,,
,,,,,,,,,,,,,,,,,5f7f6143dc758b0fc54725f1,,2022-02-12_16h57.20.575,lexical_decision_task_DD_L2,2021.2.3,Win32,100,,,,,,,,,,,0.684,1,,,,,,,,,,,,,,m,1,0.684,,,,,,,,0.887962963,-0.20462963,0,0,0,,0,167,167,40,1,SWING,LB,old,m,./images/SWINGLB.png,,,,,,,,,,,,,,,,,,,,,,,,,,,,,,,,,,,
,,,,,,,,,,,,,,,,,5f7f6143dc758b0fc54725f1,,2022-02-12_16h57.20.575,lexical_decision_task_DD_L2,2021.2.3,Win32,100,,,,,,,,,,,,,,,,,,,,,,,,,,,,,,,,,,,,,,,,,,,,,,,,How likely will it be that you will recognize the words presented slighly blurred on a scale of 0 (not likely) to 100 (most likely)?,,,,,0.012962963,-0.402777778,1,0,0,jol_adv,6,7.721,0,0,0,1,1,,,,,,,,,,,,,,,,,,,,,
,,,,,,,,,,,,,,,,,5f7f6143dc758b0fc54725f1,,2022-02-12_16h57.20.575,lexical_decision_task_DD_L2,2021.2.3,Win32,100,,,,,,,,,,,,,,,,,,,,,,,,,,,,,,,,,,,,,,,,,,,,,,,,How likely will it be that you will recognize the words presented very blurred on a scale of 0 (not likely) to 100 (most likely)?,,,,,,,,,,,4,6.683,0,1,1,2,1,,,,,,,,,,,,,,,,,,,,,
,,,,,,,,,,,,,,,,,5f7f6143dc758b0fc54725f1,,2022-02-12_16h57.20.575,lexical_decision_task_DD_L2,2021.2.3,Win32,100,,,,,,,,,,,,,,,,,,,,,,,,,,,,,,,,,,,,,,,,,,,,,,,,How likely will it be that you will recognize the words presented clearly on a scale of 0 (not likely) to 100 (most likely)?,,,,,,,,,,,6,2.882,0,2,2,0,1,,,,,,,,,,,,,,,,,,,,,
space,13.196,0.887962963,-0.192592593,0,0,0,,,,,,1,test,"In the next phase you will be presented with the words from the the first phase. Your job is to decide whether you remember seeing the word or not. If you remember seeing the word press ""old"" or type ""m"". If you do not remember seeing the word press ""new"" or type ""z"". Please press the space bar or click on continue to begin. ",,,5f7f6143dc758b0fc54725f1,,2022-02-12_16h57.20.575,lexical_decision_task_DD_L2,2021.2.3,Win32,100,,,,,,,,,,,,,,,,,,,,,,,,,,,,,,,,,,,,,,,,,,,,,,,,,,,,,,,,,,,,,,,,,,0,0,0,0,1,,,,,,,,,,,,,,,,
space,3.043,0.887962963,-0.05462963,0,0,0,,,,,,1,test,"In the next phase you will be presented with the words from the the first phase. Your job is to decide whether you remember seeing the word or not. If you remember seeing the word press ""old"" or type ""m"". If you do not remember seeing the word press ""new"" or type ""z"". Please press the space bar or click on continue to begin. ",,,5f7f6143dc758b0fc54725f1,,2022-02-12_16h57.20.575,lexical_decision_task_DD_L2,2021.2.3,Win32,100,,,,,,,,,,,,,,,,,,,,,,,,,,,,,,,,,,,,,,,,,,,,,,,,,,,,,,,,,,,,,,,,,,1,0,1,0,1,,,,,,,,,,,,,,,,
space,1.875,0.491666667,-0.103703704,0,0,0,,,,,,1,test,"In the next phase you will be presented with the words from the the first phase. Your job is to decide whether you remember seeing the word or not. If you remember seeing the word press ""old"" or type ""m"". If you do not remember seeing the word press ""new"" or type ""z"". Please press the space bar or click on continue to begin. ",,,5f7f6143dc758b0fc54725f1,,2022-02-12_16h57.20.575,lexical_decision_task_DD_L2,2021.2.3,Win32,100,,,,,,,,,,,,,,,,,,,,,,,,,,,,,,,,,,,,,,,,,,,,,,,,,,,,,,,,,,,,,,,,,,2,0,2,0,1,,,,,,,,,,,,,,,,
,,0.052777778,-0.375,1,0,0,,,,,,1,test,"In the next phase you will be presented with the words from the the first phase. Your job is to decide whether you remember seeing the word or not. If you remember seeing the word press ""old"" or type ""m"". If you do not remember seeing the word press ""new"" or type ""z"". Please press the space bar or click on continue to begin. ",,,5f7f6143dc758b0fc54725f1,,2022-02-12_16h57.20.575,lexical_decision_task_DD_L2,2021.2.3,Win32,100,,,,,,,,,,,,,,,,,,,,,,,,,,,,,,,,,,,,,,,,,,,,,,,,,,,,,,,,,,,,,,,,,,3,0,3,0,1,instr_done_button,,,,,,,,,,,,,,,
,,-0.014814815,-0.384259259,1,0,0,,,,,,1,test,"In the next phase you will be presented with the words from the the first phase. Your job is to decide whether you remember seeing the word or not. If you remember seeing the word press ""old"" or type ""m"". If you do not remember seeing the word press ""new"" or type ""z"". Please press the space bar or click on continue to begin. ",,,5f7f6143dc758b0fc54725f1,,2022-02-12_16h57.20.575,lexical_decision_task_DD_L2,2021.2.3,Win32,100,,,,,,,,,,,,,,,,,,,,,,,,,,,,,,,,,,,,,,,,,,,,,,,,,,,,,,,,,,,,,,,,,,4,0,4,0,1,instr_done_button,,,,,,,,,,,,,,,
,,,,,,,,,,,,,,,,,5f7f6143dc758b0fc54725f1,,2022-02-12_16h57.20.575,lexical_decision_task_DD_L2,2021.2.3,Win32,100,,,,,,,,,,,1.665,0,,,,,,,,,,,,,,,,,,,,,,,,0.65462963,-0.07962963,0,0,0,,,,,,,PICKLE,C,m,y,./images/PICKLE.png,,,,,,,,,,,,,,,,,,,,,z,0,1.665,,,,,,,,0,0,0,14,1
,,,,,,,,,,,,,,,,,5f7f6143dc758b0fc54725f1,,2022-02-12_16h57.20.575,lexical_decision_task_DD_L2,2021.2.3,Win32,100,,,,,,,,,,,0.912,1,,,,,,,,,,,,,,,,,,,,,,,,0.806481481,-0.019444444,0,0,0,,,,,,,CANDLE,LB,m,y,./images/CANDLELB.png,,,,,,,,,,,,,,,,,,,,,m,1,0.912,,,,,,,,0,1,1,61,1
,,,,,,,,,,,,,,,,,5f7f6143dc758b0fc54725f1,,2022-02-12_16h57.20.575,lexical_decision_task_DD_L2,2021.2.3,Win32,100,,,,,,,,,,,0.829,1,,,,,,,,,,,,,,,,,,,,,,,,0.806481481,-0.019444444,0,0,0,,,,,,,LAGOON,C,z,y,./images/LAGOON.png,,,,,,,,,,,,,,,,,,,,,z,1,0.829,,,,,,,,0,2,2,131,1
,,,,,,,,,,,,,,,,,5f7f6143dc758b0fc54725f1,,2022-02-12_16h57.20.575,lexical_decision_task_DD_L2,2021.2.3,Win32,100,,,,,,,,,,,3.024,1,,,,,,,,,,,,,,,,,,,,,,,,0.806481481,-0.019444444,0,0,0,,,,,,,KITTEN,HB,m,y,./images/KITTENHB.png,,,,,,,,,,,,,,,,,,,,,m,1,3.024,,,,,,,,0,3,3,45,1
,,,,,,,,,,,,,,,,,5f7f6143dc758b0fc54725f1,,2022-02-12_16h57.20.575,lexical_decision_task_DD_L2,2021.2.3,Win32,100,,,,,,,,,,,1.393,1,,,,,,,,,,,,,,,,,,,,,,,,0.806481481,-0.019444444,0,0,0,,,,,,,RULER,LB,z,y,./images/RULERLB.png,,,,,,,,,,,,,,,,,,,,,z,1,1.393,,,,,,,,0,4,4,163,1
,,,,,,,,,,,,,,,,,5f7f6143dc758b0fc54725f1,,2022-02-12_16h57.20.575,lexical_decision_task_DD_L2,2021.2.3,Win32,100,,,,,,,,,,,1.121,1,,,,,,,,,,,,,,,,,,,,,,,,0.806481481,-0.019444444,0,0,0,,,,,,,MUMMY,LB,z,y,./images/MUMMYLB.png,,,,,,,,,,,,,,,,,,,,,z,1,1.121,,,,,,,,0,5,5,130,1
,,,,,,,,,,,,,,,,,5f7f6143dc758b0fc54725f1,,2022-02-12_16h57.20.575,lexical_decision_task_DD_L2,2021.2.3,Win32,100,,,,,,,,,,,0.699,1,,,,,,,,,,,,,,,,,,,,,,,,0.806481481,-0.019444444,0,0,0,,,,,,,CLOWN,LB,z,y,./images/CLOWNLB.png,,,,,,,,,,,,,,,,,,,,,z,1,0.699,,,,,,,,0,6,6,106,1
,,,,,,,,,,,,,,,,,5f7f6143dc758b0fc54725f1,,2022-02-12_16h57.20.575,lexical_decision_task_DD_L2,2021.2.3,Win32,100,,,,,,,,,,,0.975,1,,,,,,,,,,,,,,,,,,,,,,,,0.806481481,-0.019444444,0,0,0,,,,,,,LADDER,C,m,y,./images/LADDER.png,,,,,,,,,,,,,,,,,,,,,m,1,0.975,,,,,,,,0,7,7,38,1
,,,,,,,,,,,,,,,,,5f7f6143dc758b0fc54725f1,,2022-02-12_16h57.20.575,lexical_decision_task_DD_L2,2021.2.3,Win32,100,,,,,,,,,,,0.64,1,,,,,,,,,,,,,,,,,,,,,,,,0.806481481,-0.019444444,0,0,0,,,,,,,MUFFIN,LB,m,y,./images/MUFFINLB.png,,,,,,,,,,,,,,,,,,,,,m,1,0.64,,,,,,,,0,8,8,55,1
,,,,,,,,,,,,,,,,,5f7f6143dc758b0fc54725f1,,2022-02-12_16h57.20.575,lexical_decision_task_DD_L2,2021.2.3,Win32,100,,,,,,,,,,,0.702,1,,,,,,,,,,,,,,,,,,,,,,,,0.806481481,-0.019444444,0,0,0,,,,,,,LLAMA,C,z,y,./images/LLAMA.png,,,,,,,,,,,,,,,,,,,,,z,1,0.702,,,,,,,,0,9,9,119,1
,,,,,,,,,,,,,,,,,5f7f6143dc758b0fc54725f1,,2022-02-12_16h57.20.575,lexical_decision_task_DD_L2,2021.2.3,Win32,100,,,,,,,,,,,0.669,1,,,,,,,,,,,,,,,,,,,,,,,,0.806481481,-0.019444444,0,0,0,,,,,,,PISTOL,C,z,y,./images/PISTOL.png,,,,,,,,,,,,,,,,,,,,,z,1,0.669,,,,,,,,0,10,10,113,1
,,,,,,,,,,,,,,,,,5f7f6143dc758b0fc54725f1,,2022-02-12_16h57.20.575,lexical_decision_task_DD_L2,2021.2.3,Win32,100,,,,,,,,,,,1.137,1,,,,,,,,,,,,,,,,,,,,,,,,0.806481481,-0.019444444,0,0,0,,,,,,,PARCEL,HB,z,y,./images/PARCELHB.png,,,,,,,,,,,,,,,,,,,,,z,1,1.137,,,,,,,,0,11,11,102,1
,,,,,,,,,,,,,,,,,5f7f6143dc758b0fc54725f1,,2022-02-12_16h57.20.575,lexical_decision_task_DD_L2,2021.2.3,Win32,100,,,,,,,,,,,0.659,1,,,,,,,,,,,,,,,,,,,,,,,,0.806481481,-0.019444444,0,0,0,,,,,,,WRIST,LB,m,y,./images/WRISTLB.png,,,,,,,,,,,,,,,,,,,,,m,1,0.659,,,,,,,,0,12,12,25,1
,,,,,,,,,,,,,,,,,5f7f6143dc758b0fc54725f1,,2022-02-12_16h57.20.575,lexical_decision_task_DD_L2,2021.2.3,Win32,100,,,,,,,,,,,0.911,1,,,,,,,,,,,,,,,,,,,,,,,,0.806481481,-0.019444444,0,0,0,,,,,,,FLESH,HB,z,y,./images/FLESHHB.png,,,,,,,,,,,,,,,,,,,,,z,1,0.911,,,,,,,,0,13,13,108,1
,,,,,,,,,,,,,,,,,5f7f6143dc758b0fc54725f1,,2022-02-12_16h57.20.575,lexical_decision_task_DD_L2,2021.2.3,Win32,100,,,,,,,,,,,0.639,1,,,,,,,,,,,,,,,,,,,,,,,,0.806481481,-0.019444444,0,0,0,,,,,,,GREASE,HB,m,y,./images/GREASEHB.png,,,,,,,,,,,,,,,,,,,,,m,1,0.639,,,,,,,,0,14,14,15,1
,,,,,,,,,,,,,,,,,5f7f6143dc758b0fc54725f1,,2022-02-12_16h57.20.575,lexical_decision_task_DD_L2,2021.2.3,Win32,100,,,,,,,,,,,0.626,1,,,,,,,,,,,,,,,,,,,,,,,,0.806481481,-0.019444444,0,0,0,,,,,,,FALCON,LB,m,y,./images/FALCONLB.png,,,,,,,,,,,,,,,,,,,,,m,1,0.626,,,,,,,,0,15,15,28,1
,,,,,,,,,,,,,,,,,5f7f6143dc758b0fc54725f1,,2022-02-12_16h57.20.575,lexical_decision_task_DD_L2,2021.2.3,Win32,100,,,,,,,,,,,0.593,1,,,,,,,,,,,,,,,,,,,,,,,,0.806481481,-0.019444444,0,0,0,,,,,,,COOKER,HB,m,y,./images/COOKERHB.png,,,,,,,,,,,,,,,,,,,,,m,1,0.593,,,,,,,,0,16,16,69,1
,,,,,,,,,,,,,,,,,5f7f6143dc758b0fc54725f1,,2022-02-12_16h57.20.575,lexical_decision_task_DD_L2,2021.2.3,Win32,100,,,,,,,,,,,0.831,1,,,,,,,,,,,,,,,,,,,,,,,,0.806481481,-0.019444444,0,0,0,,,,,,,BOILER,HB,z,y,./images/BOILERHB.png,,,,,,,,,,,,,,,,,,,,,z,1,0.831,,,,,,,,0,17,17,120,1
,,,,,,,,,,,,,,,,,5f7f6143dc758b0fc54725f1,,2022-02-12_16h57.20.575,lexical_decision_task_DD_L2,2021.2.3,Win32,100,,,,,,,,,,,1.65,0,,,,,,,,,,,,,,,,,,,,,,,,0.806481481,-0.019444444,0,0,0,,,,,,,HOCKEY,C,z,y,./images/HOCKEY.png,,,,,,,,,,,,,,,,,,,,,m,0,1.65,,,,,,,,0,18,18,116,1
,,,,,,,,,,,,,,,,,5f7f6143dc758b0fc54725f1,,2022-02-12_16h57.20.575,lexical_decision_task_DD_L2,2021.2.3,Win32,100,,,,,,,,,,,0.799,1,,,,,,,,,,,,,,,,,,,,,,,,0.806481481,-0.019444444,0,0,0,,,,,,,BANANA,LB,z,y,./images/BANANALB.png,,,,,,,,,,,,,,,,,,,,,z,1,0.799,,,,,,,,0,19,19,154,1
,,,,,,,,,,,,,,,,,5f7f6143dc758b0fc54725f1,,2022-02-12_16h57.20.575,lexical_decision_task_DD_L2,2021.2.3,Win32,100,,,,,,,,,,,0.865,0,,,,,,,,,,,,,,,,,,,,,,,,0.806481481,-0.019444444,0,0,0,,,,,,,BANNER,LB,m,y,./images/BANNERLB.png,,,,,,,,,,,,,,,,,,,,,z,0,0.865,,,,,,,,0,20,20,52,1
,,,,,,,,,,,,,,,,,5f7f6143dc758b0fc54725f1,,2022-02-12_16h57.20.575,lexical_decision_task_DD_L2,2021.2.3,Win32,100,,,,,,,,,,,0.796,1,,,,,,,,,,,,,,,,,,,,,,,,0.806481481,-0.019444444,0,0,0,,,,,,,RAZOR,LB,z,y,./images/RAZORLB.png,,,,,,,,,,,,,,,,,,,,,z,1,0.796,,,,,,,,0,21,21,118,1
,,,,,,,,,,,,,,,,,5f7f6143dc758b0fc54725f1,,2022-02-12_16h57.20.575,lexical_decision_task_DD_L2,2021.2.3,Win32,100,,,,,,,,,,,0.969,1,,,,,,,,,,,,,,,,,,,,,,,,0.806481481,-0.019444444,0,0,0,,,,,,,SNAKE,LB,z,y,./images/SNAKELB.png,,,,,,,,,,,,,,,,,,,,,z,1,0.969,,,,,,,,0,22,22,124,1
,,,,,,,,,,,,,,,,,5f7f6143dc758b0fc54725f1,,2022-02-12_16h57.20.575,lexical_decision_task_DD_L2,2021.2.3,Win32,100,,,,,,,,,,,2.853,1,,,,,,,,,,,,,,,,,,,,,,,,0.806481481,-0.019444444,0,0,0,,,,,,,PILOT,C,z,y,./images/PILOT.png,,,,,,,,,,,,,,,,,,,,,z,1,2.853,,,,,,,,0,23,23,134,1
,,,,,,,,,,,,,,,,,5f7f6143dc758b0fc54725f1,,2022-02-12_16h57.20.575,lexical_decision_task_DD_L2,2021.2.3,Win32,100,,,,,,,,,,,1.108,1,,,,,,,,,,,,,,,,,,,,,,,,0.806481481,-0.019444444,0,0,0,,,,,,,CLIFF,C,z,y,./images/CLIFF.png,,,,,,,,,,,,,,,,,,,,,z,1,1.108,,,,,,,,0,24,24,92,1
,,,,,,,,,,,,,,,,,5f7f6143dc758b0fc54725f1,,2022-02-12_16h57.20.575,lexical_decision_task_DD_L2,2021.2.3,Win32,100,,,,,,,,,,,1.039,1,,,,,,,,,,,,,,,,,,,,,,,,0.806481481,-0.019444444,0,0,0,,,,,,,CANOE,LB,z,y,./images/CANOELB.png,,,,,,,,,,,,,,,,,,,,,z,1,1.039,,,,,,,,0,25,25,142,1
,,,,,,,,,,,,,,,,,5f7f6143dc758b0fc54725f1,,2022-02-12_16h57.20.575,lexical_decision_task_DD_L2,2021.2.3,Win32,100,,,,,,,,,,,0.801,0,,,,,,,,,,,,,,,,,,,,,,,,0.806481481,-0.019444444,0,0,0,,,,,,,SUNSET,LB,m,y,./images/SUNSETLB.png,,,,,,,,,,,,,,,,,,,,,z,0,0.801,,,,,,,,0,26,26,82,1
,,,,,,,,,,,,,,,,,5f7f6143dc758b0fc54725f1,,2022-02-12_16h57.20.575,lexical_decision_task_DD_L2,2021.2.3,Win32,100,,,,,,,,,,,1.036,1,,,,,,,,,,,,,,,,,,,,,,,,0.806481481,-0.019444444,0,0,0,,,,,,,POKER,LB,z,y,./images/POKERLB.png,,,,,,,,,,,,,,,,,,,,,z,1,1.036,,,,,,,,0,27,27,151,1
,,,,,,,,,,,,,,,,,5f7f6143dc758b0fc54725f1,,2022-02-12_16h57.20.575,lexical_decision_task_DD_L2,2021.2.3,Win32,100,,,,,,,,,,,0.639,1,,,,,,,,,,,,,,,,,,,,,,,,0.806481481,-0.019444444,0,0,0,,,,,,,SNACK,LB,m,y,./images/SNACKLB.png,,,,,,,,,,,,,,,,,,,,,m,1,0.639,,,,,,,,0,28,28,73,1
,,,,,,,,,,,,,,,,,5f7f6143dc758b0fc54725f1,,2022-02-12_16h57.20.575,lexical_decision_task_DD_L2,2021.2.3,Win32,100,,,,,,,,,,,1.412,1,,,,,,,,,,,,,,,,,,,,,,,,0.806481481,-0.019444444,0,0,0,,,,,,,JUMPER,C,z,y,./images/JUMPER.png,,,,,,,,,,,,,,,,,,,,,z,1,1.412,,,,,,,,0,29,29,158,1
,,,,,,,,,,,,,,,,,5f7f6143dc758b0fc54725f1,,2022-02-12_16h57.20.575,lexical_decision_task_DD_L2,2021.2.3,Win32,100,,,,,,,,,,,0.888,1,,,,,,,,,,,,,,,,,,,,,,,,0.806481481,-0.019444444,0,0,0,,,,,,,DANCER,HB,z,y,./images/DANCERHB.png,,,,,,,,,,,,,,,,,,,,,z,1,0.888,,,,,,,,0,30,30,105,1
,,,,,,,,,,,,,,,,,5f7f6143dc758b0fc54725f1,,2022-02-12_16h57.20.575,lexical_decision_task_DD_L2,2021.2.3,Win32,100,,,,,,,,,,,2.074,0,,,,,,,,,,,,,,,,,,,,,,,,0.806481481,-0.019444444,0,0,0,,,,,,,WALNUT,HB,z,y,./images/WALNUTHB.png,,,,,,,,,,,,,,,,,,,,,m,0,2.074,,,,,,,,0,31,31,84,1
,,,,,,,,,,,,,,,,,5f7f6143dc758b0fc54725f1,,2022-02-12_16h57.20.575,lexical_decision_task_DD_L2,2021.2.3,Win32,100,,,,,,,,,,,0.756,1,,,,,,,,,,,,,,,,,,,,,,,,0.806481481,-0.019444444,0,0,0,,,,,,,BONNET,C,m,y,./images/BONNET.png,,,,,,,,,,,,,,,,,,,,,m,1,0.756,,,,,,,,0,32,32,11,1
,,,,,,,,,,,,,,,,,5f7f6143dc758b0fc54725f1,,2022-02-12_16h57.20.575,lexical_decision_task_DD_L2,2021.2.3,Win32,100,,,,,,,,,,,0.754,1,,,,,,,,,,,,,,,,,,,,,,,,0.806481481,-0.019444444,0,0,0,,,,,,,BLOKE,HB,z,y,./images/BLOKEHB.png,,,,,,,,,,,,,,,,,,,,,z,1,0.754,,,,,,,,0,33,33,96,1
,,,,,,,,,,,,,,,,,5f7f6143dc758b0fc54725f1,,2022-02-12_16h57.20.575,lexical_decision_task_DD_L2,2021.2.3,Win32,100,,,,,,,,,,,0.734,1,,,,,,,,,,,,,,,,,,,,,,,,0.806481481,-0.019444444,0,0,0,,,,,,,BUNNY,LB,z,y,./images/BUNNYLB.png,,,,,,,,,,,,,,,,,,,,,z,1,0.734,,,,,,,,0,34,34,97,1
,,,,,,,,,,,,,,,,,5f7f6143dc758b0fc54725f1,,2022-02-12_16h57.20.575,lexical_decision_task_DD_L2,2021.2.3,Win32,100,,,,,,,,,,,0.694,1,,,,,,,,,,,,,,,,,,,,,,,,0.806481481,-0.019444444,0,0,0,,,,,,,TRIPOD,HB,m,y,./images/TRIPODHB.png,,,,,,,,,,,,,,,,,,,,,m,1,0.694,,,,,,,,0,35,35,54,1
,,,,,,,,,,,,,,,,,5f7f6143dc758b0fc54725f1,,2022-02-12_16h57.20.575,lexical_decision_task_DD_L2,2021.2.3,Win32,100,,,,,,,,,,,0.903,1,,,,,,,,,,,,,,,,,,,,,,,,0.806481481,-0.019444444,0,0,0,,,,,,,BOXER,LB,z,y,./images/BOXERLB.png,,,,,,,,,,,,,,,,,,,,,z,1,0.903,,,,,,,,0,36,36,88,1
,,,,,,,,,,,,,,,,,5f7f6143dc758b0fc54725f1,,2022-02-12_16h57.20.575,lexical_decision_task_DD_L2,2021.2.3,Win32,100,,,,,,,,,,,0.616,1,,,,,,,,,,,,,,,,,,,,,,,,0.806481481,-0.019444444,0,0,0,,,,,,,SWING,LB,m,y,./images/SWINGLB.png,,,,,,,,,,,,,,,,,,,,,m,1,0.616,,,,,,,,0,37,37,40,1
,,,,,,,,,,,,,,,,,5f7f6143dc758b0fc54725f1,,2022-02-12_16h57.20.575,lexical_decision_task_DD_L2,2021.2.3,Win32,100,,,,,,,,,,,0.921,1,,,,,,,,,,,,,,,,,,,,,,,,0.806481481,-0.019444444,0,0,0,,,,,,,SHELF,HB,m,y,./images/SHELFHB.png,,,,,,,,,,,,,,,,,,,,,m,1,0.921,,,,,,,,0,38,38,39,1
,,,,,,,,,,,,,,,,,5f7f6143dc758b0fc54725f1,,2022-02-12_16h57.20.575,lexical_decision_task_DD_L2,2021.2.3,Win32,100,,,,,,,,,,,0.618,1,,,,,,,,,,,,,,,,,,,,,,,,0.806481481,-0.019444444,0,0,0,,,,,,,KIDNEY,HB,m,y,./images/KIDNEYHB.png,,,,,,,,,,,,,,,,,,,,,m,1,0.618,,,,,,,,0,39,39,21,1
,,,,,,,,,,,,,,,,,5f7f6143dc758b0fc54725f1,,2022-02-12_16h57.20.575,lexical_decision_task_DD_L2,2021.2.3,Win32,100,,,,,,,,,,,0.574,1,,,,,,,,,,,,,,,,,,,,,,,,0.806481481,-0.019444444,0,0,0,,,,,,,PURSE,C,m,y,./images/PURSE.png,,,,,,,,,,,,,,,,,,,,,m,1,0.574,,,,,,,,0,40,40,62,1
,,,,,,,,,,,,,,,,,5f7f6143dc758b0fc54725f1,,2022-02-12_16h57.20.575,lexical_decision_task_DD_L2,2021.2.3,Win32,100,,,,,,,,,,,0.579,1,,,,,,,,,,,,,,,,,,,,,,,,0.806481481,-0.019444444,0,0,0,space,,,,,,PEARL,LB,m,y,./images/PEARLLB.png,11.872,,,,,,,,,,,,,,,,,,,,m,1,0.579,,,,,,,,0,41,41,46,1
,,,,,,,,,,,,,,,,,5f7f6143dc758b0fc54725f1,,2022-02-12_16h57.20.575,lexical_decision_task_DD_L2,2021.2.3,Win32,100,,,,,,,,,,,0.886,0,,,,,,,,,,,,,,,,,,,,,,,,0.806481481,-0.019444444,0,0,0,,,,,,,GRAPE,LB,z,y,./images/GRAPELB.png,,,,,,,,,,,,,,,,,,,,,m,0,0.886,,,,,,,,0,42,42,100,1
,,,,,,,,,,,,,,,,,5f7f6143dc758b0fc54725f1,,2022-02-12_16h57.20.575,lexical_decision_task_DD_L2,2021.2.3,Win32,100,,,,,,,,,,,0.949,0,,,,,,,,,,,,,,,,,,,,,,,,0.806481481,-0.019444444,0,0,0,,,,,,,GARDEN,LB,z,y,./images/GARDENLB.png,,,,,,,,,,,,,,,,,,,,,m,0,0.949,,,,,,,,0,43,43,94,1
,,,,,,,,,,,,,,,,,5f7f6143dc758b0fc54725f1,,2022-02-12_16h57.20.575,lexical_decision_task_DD_L2,2021.2.3,Win32,100,,,,,,,,,,,0.6,1,,,,,,,,,,,,,,,,,,,,,,,,0.806481481,-0.019444444,0,0,0,,,,,,,RHINO,HB,m,y,./images/RHINOHB.png,,,,,,,,,,,,,,,,,,,,,m,1,0.6,,,,,,,,0,44,44,9,1
,,,,,,,,,,,,,,,,,5f7f6143dc758b0fc54725f1,,2022-02-12_16h57.20.575,lexical_decision_task_DD_L2,2021.2.3,Win32,100,,,,,,,,,,,0.55,0,,,,,,,,,,,,,,,,,,,,,,,,0.806481481,-0.019444444,0,0,0,,,,,,,MEDAL,C,z,y,./images/MEDAL.png,,,,,,,,,,,,,,,,,,,,,m,0,0.55,,,,,,,,0,45,45,95,1
,,,,,,,,,,,,,,,,,5f7f6143dc758b0fc54725f1,,2022-02-12_16h57.20.575,lexical_decision_task_DD_L2,2021.2.3,Win32,100,,,,,,,,,,,0.879,1,,,,,,,,,,,,,,,,,,,,,,,,0.806481481,-0.019444444,0,0,0,,,,,,,CASINO,LB,z,y,./images/CASINOLB.png,,,,,,,,,,,,,,,,,,,,,z,1,0.879,,,,,,,,0,46,46,112,1
,,,,,,,,,,,,,,,,,5f7f6143dc758b0fc54725f1,,2022-02-12_16h57.20.575,lexical_decision_task_DD_L2,2021.2.3,Win32,100,,,,,,,,,,,0.909,1,,,,,,,,,,,,,,,,,,,,,,,,0.806481481,-0.019444444,0,0,0,,,,,,,ONION,HB,m,y,./images/ONIONHB.png,,,,,,,,,,,,,,,,,,,,,m,1,0.909,,,,,,,,0,47,47,51,1
,,,,,,,,,,,,,,,,,5f7f6143dc758b0fc54725f1,,2022-02-12_16h57.20.575,lexical_decision_task_DD_L2,2021.2.3,Win32,100,,,,,,,,,,,0.813,0,,,,,,,,,,,,,,,,,,,,,,,,0.806481481,-0.019444444,0,0,0,,,,,,,HAMMER,HB,z,y,./images/HAMMERHB.png,,,,,,,,,,,,,,,,,,,,,m,0,0.813,,,,,,,,0,48,48,159,1
,,,,,,,,,,,,,,,,,5f7f6143dc758b0fc54725f1,,2022-02-12_16h57.20.575,lexical_decision_task_DD_L2,2021.2.3,Win32,100,,,,,,,,,,,0.682,0,,,,,,,,,,,,,,,,,,,,,,,,0.806481481,-0.019444444,0,0,0,,,,,,,PARADE,C,z,y,./images/PARADE.png,,,,,,,,,,,,,,,,,,,,,m,0,0.682,,,,,,,,0,49,49,101,1
,,,,,,,,,,,,,,,,,5f7f6143dc758b0fc54725f1,,2022-02-12_16h57.20.575,lexical_decision_task_DD_L2,2021.2.3,Win32,100,,,,,,,,,,,1.252,0,,,,,,,,,,,,,,,,,,,,,,,,0.806481481,-0.019444444,0,0,0,,,,,,,BASKET,C,z,y,./images/BASKET.png,,,,,,,,,,,,,,,,,,,,,m,0,1.252,,,,,,,,0,50,50,128,1
,,,,,,,,,,,,,,,,,5f7f6143dc758b0fc54725f1,,2022-02-12_16h57.20.575,lexical_decision_task_DD_L2,2021.2.3,Win32,100,,,,,,,,,,,0.89,0,,,,,,,,,,,,,,,,,,,,,,,,0.806481481,-0.019444444,0,0,0,,,,,,,STREAM,C,z,y,./images/STREAM.png,,,,,,,,,,,,,,,,,,,,,m,0,0.89,,,,,,,,0,51,51,125,1
,,,,,,,,,,,,,,,,,5f7f6143dc758b0fc54725f1,,2022-02-12_16h57.20.575,lexical_decision_task_DD_L2,2021.2.3,Win32,100,,,,,,,,,,,0.862,0,,,,,,,,,,,,,,,,,,,,,,,,0.806481481,-0.019444444,0,0,0,,,,,,,FLASK,HB,z,y,./images/FLASKHB.png,,,,,,,,,,,,,,,,,,,,,m,0,0.862,,,,,,,,0,52,52,156,1
,,,,,,,,,,,,,,,,,5f7f6143dc758b0fc54725f1,,2022-02-12_16h57.20.575,lexical_decision_task_DD_L2,2021.2.3,Win32,100,,,,,,,,,,,1.054,1,,,,,,,,,,,,,,,,,,,,,,,,0.806481481,-0.019444444,0,0,0,,,,,,,DRILL,HB,z,y,./images/DRILLHB.png,,,,,,,,,,,,,,,,,,,,,z,1,1.054,,,,,,,,0,53,53,165,1
,,,,,,,,,,,,,,,,,5f7f6143dc758b0fc54725f1,,2022-02-12_16h57.20.575,lexical_decision_task_DD_L2,2021.2.3,Win32,100,,,,,,,,,,,1.168,1,,,,,,,,,,,,,,,,,,,,,,,,0.806481481,-0.019444444,0,0,0,,,,,,,WHISKY,C,z,y,./images/WHISKY.png,,,,,,,,,,,,,,,,,,,,,z,1,1.168,,,,,,,,0,54,54,167,1
,,,,,,,,,,,,,,,,,5f7f6143dc758b0fc54725f1,,2022-02-12_16h57.20.575,lexical_decision_task_DD_L2,2021.2.3,Win32,100,,,,,,,,,,,0.899,0,,,,,,,,,,,,,,,,,,,,,,,,0.806481481,-0.019444444,0,0,0,,,,,,,STATUE,HB,z,y,./images/STATUEHB.png,,,,,,,,,,,,,,,,,,,,,m,0,0.899,,,,,,,,0,55,55,150,1
,,,,,,,,,,,,,,,,,5f7f6143dc758b0fc54725f1,,2022-02-12_16h57.20.575,lexical_decision_task_DD_L2,2021.2.3,Win32,100,,,,,,,,,,,0.7,1,,,,,,,,,,,,,,,,,,,,,,,,0.806481481,-0.019444444,0,0,0,,,,,,,PENCE,LB,m,y,./images/PENCELB.png,,,,,,,,,,,,,,,,,,,,,m,1,0.7,,,,,,,,0,56,56,16,1
,,,,,,,,,,,,,,,,,5f7f6143dc758b0fc54725f1,,2022-02-12_16h57.20.575,lexical_decision_task_DD_L2,2021.2.3,Win32,100,,,,,,,,,,,1.749,1,,,,,,,,,,,,,,,,,,,,,,,,0.806481481,-0.019444444,0,0,0,,,,,,,SAUNA,HB,z,y,./images/SAUNAHB.png,,,,,,,,,,,,,,,,,,,,,z,1,1.749,,,,,,,,0,57,57,117,1
,,,,,,,,,,,,,,,,,5f7f6143dc758b0fc54725f1,,2022-02-12_16h57.20.575,lexical_decision_task_DD_L2,2021.2.3,Win32,100,,,,,,,,,,,0.853,1,,,,,,,,,,,,,,,,,,,,,,,,0.806481481,-0.019444444,0,0,0,,,,,,,BIRTH,LB,m,y,./images/BIRTHLB.png,,,,,,,,,,,,,,,,,,,,,m,1,0.853,,,,,,,,0,58,58,37,1
,,,,,,,,,,,,,,,,,5f7f6143dc758b0fc54725f1,,2022-02-12_16h57.20.575,lexical_decision_task_DD_L2,2021.2.3,Win32,100,,,,,,,,,,,3.328,0,,,,,,,,,,,,,,,,,,,,,,,,0.806481481,-0.019444444,0,0,0,,,,,,,HEATER,C,z,y,./images/HEATER.png,,,,,,,,,,,,,,,,,,,,,m,0,3.328,,,,,,,,0,59,59,140,1
,,,,,,,,,,,,,,,,,5f7f6143dc758b0fc54725f1,,2022-02-12_16h57.20.575,lexical_decision_task_DD_L2,2021.2.3,Win32,100,,,,,,,,,,,0.629,1,,,,,,,,,,,,,,,,,,,,,,,,0.806481481,-0.019444444,0,0,0,,,,,,,MELON,LB,m,y,./images/MELONLB.png,,,,,,,,,,,,,,,,,,,,,m,1,0.629,,,,,,,,0,60,60,22,1
,,,,,,,,,,,,,,,,,5f7f6143dc758b0fc54725f1,,2022-02-12_16h57.20.575,lexical_decision_task_DD_L2,2021.2.3,Win32,100,,,,,,,,,,,0.604,1,,,,,,,,,,,,,,,,,,,,,,,,0.806481481,-0.019444444,0,0,0,,,,,,,SMOKER,C,m,y,./images/SMOKER.png,,,,,,,,,,,,,,,,,,,,,m,1,0.604,,,,,,,,0,61,61,26,1
,,,,,,,,,,,,,,,,,5f7f6143dc758b0fc54725f1,,2022-02-12_16h57.20.575,lexical_decision_task_DD_L2,2021.2.3,Win32,100,,,,,,,,,,,1.768,1,,,,,,,,,,,,,,,,,,,,,,,,0.806481481,-0.019444444,0,0,0,,,,,,,BUTTER,HB,z,y,./images/BUTTERHB.png,,,,,,,,,,,,,,,,,,,,,z,1,1.768,,,,,,,,0,62,62,111,1
,,,,,,,,,,,,,,,,,5f7f6143dc758b0fc54725f1,,2022-02-12_16h57.20.575,lexical_decision_task_DD_L2,2021.2.3,Win32,100,,,,,,,,,,,0.994,1,,,,,,,,,,,,,,,,,,,,,,,,0.806481481,-0.019444444,0,0,0,,,,,,,PEBBLE,LB,z,y,./images/PEBBLELB.png,,,,,,,,,,,,,,,,,,,,,z,1,0.994,,,,,,,,0,63,63,166,1
,,,,,,,,,,,,,,,,,5f7f6143dc758b0fc54725f1,,2022-02-12_16h57.20.575,lexical_decision_task_DD_L2,2021.2.3,Win32,100,,,,,,,,,,,0.766,0,,,,,,,,,,,,,,,,,,,,,,,,0.806481481,-0.019444444,0,0,0,,,,,,,CRADLE,C,m,y,./images/CRADLE.png,,,,,,,,,,,,,,,,,,,,,z,0,0.766,,,,,,,,0,64,64,20,1
,,,,,,,,,,,,,,,,,5f7f6143dc758b0fc54725f1,,2022-02-12_16h57.20.575,lexical_decision_task_DD_L2,2021.2.3,Win32,100,,,,,,,,,,,0.751,1,,,,,,,,,,,,,,,,,,,,,,,,0.806481481,-0.019444444,0,0,0,,,,,,,BISHOP,LB,z,y,./images/BISHOPLB.png,,,,,,,,,,,,,,,,,,,,,z,1,0.751,,,,,,,,0,65,65,133,1
,,,,,,,,,,,,,,,,,5f7f6143dc758b0fc54725f1,,2022-02-12_16h57.20.575,lexical_decision_task_DD_L2,2021.2.3,Win32,100,,,,,,,,,,,0.652,1,,,,,,,,,,,,,,,,,,,,,,,,0.806481481,-0.019444444,0,0,0,,,,,,,MAMMAL,C,z,y,./images/MAMMAL.png,,,,,,,,,,,,,,,,,,,,,z,1,0.652,,,,,,,,0,66,66,146,1
,,,,,,,,,,,,,,,,,5f7f6143dc758b0fc54725f1,,2022-02-12_16h57.20.575,lexical_decision_task_DD_L2,2021.2.3,Win32,100,,,,,,,,,,,0.703,1,,,,,,,,,,,,,,,,,,,,,,,,0.806481481,-0.019444444,0,0,0,,,,,,,SAILOR,LB,m,y,./images/SAILORLB.png,,,,,,,,,,,,,,,,,,,,,m,1,0.703,,,,,,,,0,67,67,67,1
,,,,,,,,,,,,,,,,,5f7f6143dc758b0fc54725f1,,2022-02-12_16h57.20.575,lexical_decision_task_DD_L2,2021.2.3,Win32,100,,,,,,,,,,,0.839,1,,,,,,,,,,,,,,,,,,,,,,,,0.806481481,-0.019444444,0,0,0,,,,,,,TULIP,C,m,y,./images/TULIP.png,,,,,,,,,,,,,,,,,,,,,m,1,0.839,,,,,,,,0,68,68,8,1
,,,,,,,,,,,,,,,,,5f7f6143dc758b0fc54725f1,,2022-02-12_16h57.20.575,lexical_decision_task_DD_L2,2021.2.3,Win32,100,,,,,,,,,,,0.765,1,,,,,,,,,,,,,,,,,,,,,,,,0.806481481,-0.019444444,0,0,0,,,,,,,POSTER,C,z,y,./images/POSTER.png,,,,,,,,,,,,,,,,,,,,,z,1,0.765,,,,,,,,0,69,69,137,1
,,,,,,,,,,,,,,,,,5f7f6143dc758b0fc54725f1,,2022-02-12_16h57.20.575,lexical_decision_task_DD_L2,2021.2.3,Win32,100,,,,,,,,,,,0.82,1,,,,,,,,,,,,,,,,,,,,,,,,0.806481481,-0.019444444,0,0,0,,,,,,,BROOM,HB,z,y,./images/BROOMHB.png,,,,,,,,,,,,,,,,,,,,,z,1,0.82,,,,,,,,0,70,70,162,1
,,,,,,,,,,,,,,,,,5f7f6143dc758b0fc54725f1,,2022-02-12_16h57.20.575,lexical_decision_task_DD_L2,2021.2.3,Win32,100,,,,,,,,,,,0.945,0,,,,,,,,,,,,,,,,,,,,,,,,0.806481481,-0.019444444,0,0,0,,,,,,,MAGGOT,HB,m,y,./images/MAGGOTHB.png,,,,,,,,,,,,,,,,,,,,,z,0,0.945,,,,,,,,0,71,71,33,1
,,,,,,,,,,,,,,,,,5f7f6143dc758b0fc54725f1,,2022-02-12_16h57.20.575,lexical_decision_task_DD_L2,2021.2.3,Win32,100,,,,,,,,,,,2.59,1,,,,,,,,,,,,,,,,,,,,,,,,0.806481481,-0.019444444,0,0,0,,,,,,,CLOTH,C,z,y,./images/CLOTH.png,,,,,,,,,,,,,,,,,,,,,z,1,2.59,,,,,,,,0,72,72,107,1
,,,,,,,,,,,,,,,,,5f7f6143dc758b0fc54725f1,,2022-02-12_16h57.20.575,lexical_decision_task_DD_L2,2021.2.3,Win32,100,,,,,,,,,,,3.399,1,,,,,,,,,,,,,,,,,,,,,,,,0.806481481,-0.019444444,0,0,0,,,,,,,WEASEL,C,m,y,./images/WEASEL.png,,,,,,,,,,,,,,,,,,,,,m,1,3.399,,,,,,,,0,73,73,80,1
,,,,,,,,,,,,,,,,,5f7f6143dc758b0fc54725f1,,2022-02-12_16h57.20.575,lexical_decision_task_DD_L2,2021.2.3,Win32,100,,,,,,,,,,,0.848,1,,,,,,,,,,,,,,,,,,,,,,,,0.806481481,-0.019444444,0,0,0,,,,,,,MOTOR,LB,m,y,./images/MOTORLB.png,,,,,,,,,,,,,,,,,,,,,m,1,0.848,,,,,,,,0,74,74,13,1
,,,,,,,,,,,,,,,,,5f7f6143dc758b0fc54725f1,,2022-02-12_16h57.20.575,lexical_decision_task_DD_L2,2021.2.3,Win32,100,,,,,,,,,,,3.636,1,,,,,,,,,,,,,,,,,,,,,,,,0.806481481,-0.019444444,0,0,0,,,,,,,FOLDER,HB,m,y,./images/FOLDERHB.png,,,,,,,,,,,,,,,,,,,,,m,1,3.636,,,,,,,,0,75,75,42,1
,,,,,,,,,,,,,,,,,5f7f6143dc758b0fc54725f1,,2022-02-12_16h57.20.575,lexical_decision_task_DD_L2,2021.2.3,Win32,100,,,,,,,,,,,0.904,0,,,,,,,,,,,,,,,,,,,,,,,,0.806481481,-0.019444444,0,0,0,,,,,,,WAGON,LB,z,y,./images/WAGONLB.png,,,,,,,,,,,,,,,,,,,,,m,0,0.904,,,,,,,,0,76,76,91,1
,,,,,,,,,,,,,,,,,5f7f6143dc758b0fc54725f1,,2022-02-12_16h57.20.575,lexical_decision_task_DD_L2,2021.2.3,Win32,100,,,,,,,,,,,0.867,1,,,,,,,,,,,,,,,,,,,,,,,,0.806481481,-0.019444444,0,0,0,,,,,,,CEMENT,C,m,y,./images/CEMENT.png,,,,,,,,,,,,,,,,,,,,,m,1,0.867,,,,,,,,0,77,77,74,1
,,,,,,,,,,,,,,,,,5f7f6143dc758b0fc54725f1,,2022-02-12_16h57.20.575,lexical_decision_task_DD_L2,2021.2.3,Win32,100,,,,,,,,,,,5.91,0,,,,,,,,,,,,,,,,,,,,,,,,0.806481481,-0.019444444,0,0,0,,,,,,,SLOPE,HB,z,y,./images/SLOPEHB.png,,,,,,,,,,,,,,,,,,,,,m,0,5.91,,,,,,,,0,78,78,114,1
,,,,,,,,,,,,,,,,,5f7f6143dc758b0fc54725f1,,2022-02-12_16h57.20.575,lexical_decision_task_DD_L2,2021.2.3,Win32,100,,,,,,,,,,,0.85,1,,,,,,,,,,,,,,,,,,,,,,,,0.806481481,-0.019444444,0,0,0,,,,,,,MIDGET,LB,z,y,./images/MIDGETLB.png,,,,,,,,,,,,,,,,,,,,,z,1,0.85,,,,,,,,0,79,79,160,1
,,,,,,,,,,,,,,,,,5f7f6143dc758b0fc54725f1,,2022-02-12_16h57.20.575,lexical_decision_task_DD_L2,2021.2.3,Win32,100,,,,,,,,,,,2.578,0,,,,,,,,,,,,,,,,,,,,,,,,0.806481481,-0.019444444,0,0,0,,,,,,,GLOVE,LB,z,y,./images/GLOVELB.png,,,,,,,,,,,,,,,,,,,,,m,0,2.578,,,,,,,,0,80,80,157,1
,,,,,,,,,,,,,,,,,5f7f6143dc758b0fc54725f1,,2022-02-12_16h57.20.575,lexical_decision_task_DD_L2,2021.2.3,Win32,100,,,,,,,,,,,2.753,0,,,,,,,,,,,,,,,,,,,,,,,,0.806481481,-0.019444444,0,0,0,,,,,,,WHEEL,C,z,y,./images/WHEEL.png,,,,,,,,,,,,,,,,,,,,,m,0,2.753,,,,,,,,0,81,81,161,1
,,,,,,,,,,,,,,,,,5f7f6143dc758b0fc54725f1,,2022-02-12_16h57.20.575,lexical_decision_task_DD_L2,2021.2.3,Win32,100,,,,,,,,,,,0.705,1,,,,,,,,,,,,,,,,,,,,,,,,0.806481481,-0.019444444,0,0,0,,,,,,,BARREL,C,m,y,./images/BARREL.png,,,,,,,,,,,,,,,,,,,,,m,1,0.705,,,,,,,,0,82,82,32,1
,,,,,,,,,,,,,,,,,5f7f6143dc758b0fc54725f1,,2022-02-12_16h57.20.575,lexical_decision_task_DD_L2,2021.2.3,Win32,100,,,,,,,,,,,0.733,1,,,,,,,,,,,,,,,,,,,,,,,,0.806481481,-0.019444444,0,0,0,space,,,,,,DRUMS,LB,m,y,./images/DRUMSLB.png,14.777,,,,,,,,,,,,,,,,,,,,m,1,0.733,,,,,,,,0,83,83,49,1
,,,,,,,,,,,,,,,,,5f7f6143dc758b0fc54725f1,,2022-02-12_16h57.20.575,lexical_decision_task_DD_L2,2021.2.3,Win32,100,,,,,,,,,,,0.974,1,,,,,,,,,,,,,,,,,,,,,,,,0.806481481,-0.019444444,0,0,0,,,,,,,SHORE,HB,m,y,./images/SHOREHB.png,,,,,,,,,,,,,,,,,,,,,m,1,0.974,,,,,,,,0,84,84,12,1
,,,,,,,,,,,,,,,,,5f7f6143dc758b0fc54725f1,,2022-02-12_16h57.20.575,lexical_decision_task_DD_L2,2021.2.3,Win32,100,,,,,,,,,,,0.91,0,,,,,,,,,,,,,,,,,,,,,,,,0.806481481,-0.019444444,0,0,0,,,,,,,MONKEY,HB,z,y,./images/MONKEYHB.png,,,,,,,,,,,,,,,,,,,,,m,0,0.91,,,,,,,,0,85,85,129,1
,,,,,,,,,,,,,,,,,5f7f6143dc758b0fc54725f1,,2022-02-12_16h57.20.575,lexical_decision_task_DD_L2,2021.2.3,Win32,100,,,,,,,,,,,0.761,1,,,,,,,,,,,,,,,,,,,,,,,,0.806481481,-0.019444444,0,0,0,,,,,,,PLANK,LB,m,y,./images/PLANKLB.png,,,,,,,,,,,,,,,,,,,,,m,1,0.761,,,,,,,,0,86,86,1,1
,,,,,,,,,,,,,,,,,5f7f6143dc758b0fc54725f1,,2022-02-12_16h57.20.575,lexical_decision_task_DD_L2,2021.2.3,Win32,100,,,,,,,,,,,0.814,1,,,,,,,,,,,,,,,,,,,,,,,,0.806481481,-0.019444444,0,0,0,,,,,,,BRUSH,C,z,y,./images/BRUSH.png,,,,,,,,,,,,,,,,,,,,,z,1,0.814,,,,,,,,0,87,87,143,1
,,,,,,,,,,,,,,,,,5f7f6143dc758b0fc54725f1,,2022-02-12_16h57.20.575,lexical_decision_task_DD_L2,2021.2.3,Win32,100,,,,,,,,,,,0.704,1,,,,,,,,,,,,,,,,,,,,,,,,0.806481481,-0.019444444,0,0,0,,,,,,,QUILL,LB,m,y,./images/QUILLLB.png,,,,,,,,,,,,,,,,,,,,,m,1,0.704,,,,,,,,0,88,88,31,1
,,,,,,,,,,,,,,,,,5f7f6143dc758b0fc54725f1,,2022-02-12_16h57.20.575,lexical_decision_task_DD_L2,2021.2.3,Win32,100,,,,,,,,,,,0.783,1,,,,,,,,,,,,,,,,,,,,,,,,0.806481481,-0.019444444,0,0,0,,,,,,,BAKER,HB,z,y,./images/BAKERHB.png,,,,,,,,,,,,,,,,,,,,,z,1,0.783,,,,,,,,0,89,89,147,1
,,,,,,,,,,,,,,,,,5f7f6143dc758b0fc54725f1,,2022-02-12_16h57.20.575,lexical_decision_task_DD_L2,2021.2.3,Win32,100,,,,,,,,,,,0.615,1,,,,,,,,,,,,,,,,,,,,,,,,0.806481481,-0.019444444,0,0,0,,,,,,,BABOON,LB,m,y,./images/BABOONLB.png,,,,,,,,,,,,,,,,,,,,,m,1,0.615,,,,,,,,0,90,90,58,1
,,,,,,,,,,,,,,,,,5f7f6143dc758b0fc54725f1,,2022-02-12_16h57.20.575,lexical_decision_task_DD_L2,2021.2.3,Win32,100,,,,,,,,,,,0.132,0,,,,,,,,,,,,,,,,,,,,,,,,0.806481481,-0.019444444,0,0,0,,,,,,,BERRY,C,m,y,./images/BERRY.png,,,,,,,,,,,,,,,,,,,,,z,0,0.132,,,,,,,,0,91,91,47,1
,,,,,,,,,,,,,,,,,5f7f6143dc758b0fc54725f1,,2022-02-12_16h57.20.575,lexical_decision_task_DD_L2,2021.2.3,Win32,100,,,,,,,,,,,1.35,0,,,,,,,,,,,,,,,,,,,,,,,,0.806481481,-0.019444444,0,0,0,,,,,,,FERRY,HB,z,y,./images/FERRYHB.png,,,,,,,,,,,,,,,,,,,,,m,0,1.35,,,,,,,,0,92,92,141,1
,,,,,,,,,,,,,,,,,5f7f6143dc758b0fc54725f1,,2022-02-12_16h57.20.575,lexical_decision_task_DD_L2,2021.2.3,Win32,100,,,,,,,,,,,0.667,1,,,,,,,,,,,,,,,,,,,,,,,,0.806481481,-0.019444444,0,0,0,,,,,,,JAGUAR,HB,m,y,./images/JAGUARHB.png,,,,,,,,,,,,,,,,,,,,,m,1,0.667,,,,,,,,0,93,93,18,1
,,,,,,,,,,,,,,,,,5f7f6143dc758b0fc54725f1,,2022-02-12_16h57.20.575,lexical_decision_task_DD_L2,2021.2.3,Win32,100,,,,,,,,,,,1.031,1,,,,,,,,,,,,,,,,,,,,,,,,0.806481481,-0.019444444,0,0,0,,,,,,,GRANNY,C,z,y,./images/GRANNY.png,,,,,,,,,,,,,,,,,,,,,z,1,1.031,,,,,,,,0,94,94,104,1
,,,,,,,,,,,,,,,,,5f7f6143dc758b0fc54725f1,,2022-02-12_16h57.20.575,lexical_decision_task_DD_L2,2021.2.3,Win32,100,,,,,,,,,,,1.092,1,,,,,,,,,,,,,,,,,,,,,,,,0.806481481,-0.019444444,0,0,0,,,,,,,MUSCLE,LB,m,y,./images/MUSCLELB.png,,,,,,,,,,,,,,,,,,,,,m,1,1.092,,,,,,,,0,95,95,4,1
,,,,,,,,,,,,,,,,,5f7f6143dc758b0fc54725f1,,2022-02-12_16h57.20.575,lexical_decision_task_DD_L2,2021.2.3,Win32,100,,,,,,,,,,,0.68,1,,,,,,,,,,,,,,,,,,,,,,,,0.806481481,-0.019444444,0,0,0,,,,,,,STORM,HB,m,y,./images/STORMHB.png,,,,,,,,,,,,,,,,,,,,,m,1,0.68,,,,,,,,0,96,96,30,1
,,,,,,,,,,,,,,,,,5f7f6143dc758b0fc54725f1,,2022-02-12_16h57.20.575,lexical_decision_task_DD_L2,2021.2.3,Win32,100,,,,,,,,,,,0.825,1,,,,,,,,,,,,,,,,,,,,,,,,0.806481481,-0.019444444,0,0,0,,,,,,,DIVER,HB,z,y,./images/DIVERHB.png,,,,,,,,,,,,,,,,,,,,,z,1,0.825,,,,,,,,0,97,97,93,1
,,,,,,,,,,,,,,,,,5f7f6143dc758b0fc54725f1,,2022-02-12_16h57.20.575,lexical_decision_task_DD_L2,2021.2.3,Win32,100,,,,,,,,,,,0.619,1,,,,,,,,,,,,,,,,,,,,,,,,0.806481481,-0.019444444,0,0,0,,,,,,,PAINT,LB,m,y,./images/PAINTLB.png,,,,,,,,,,,,,,,,,,,,,m,1,0.619,,,,,,,,0,98,98,7,1
,,,,,,,,,,,,,,,,,5f7f6143dc758b0fc54725f1,,2022-02-12_16h57.20.575,lexical_decision_task_DD_L2,2021.2.3,Win32,100,,,,,,,,,,,0.787,0,,,,,,,,,,,,,,,,,,,,,,,,0.806481481,-0.019444444,0,0,0,,,,,,,TWINS,HB,m,y,./images/TWINSHB.png,,,,,,,,,,,,,,,,,,,,,z,0,0.787,,,,,,,,0,99,99,60,1
,,,,,,,,,,,,,,,,,5f7f6143dc758b0fc54725f1,,2022-02-12_16h57.20.575,lexical_decision_task_DD_L2,2021.2.3,Win32,100,,,,,,,,,,,0.845,1,,,,,,,,,,,,,,,,,,,,,,,,0.806481481,-0.019444444,0,0,0,,,,,,,BUBBLE,C,z,y,./images/BUBBLE.png,,,,,,,,,,,,,,,,,,,,,z,1,0.845,,,,,,,,0,100,100,155,1
,,,,,,,,,,,,,,,,,5f7f6143dc758b0fc54725f1,,2022-02-12_16h57.20.575,lexical_decision_task_DD_L2,2021.2.3,Win32,100,,,,,,,,,,,1.627,1,,,,,,,,,,,,,,,,,,,,,,,,0.806481481,-0.019444444,0,0,0,,,,,,,TIGER,LB,z,y,./images/TIGERLB.png,,,,,,,,,,,,,,,,,,,,,z,1,1.627,,,,,,,,0,101,101,121,1
,,,,,,,,,,,,,,,,,5f7f6143dc758b0fc54725f1,,2022-02-12_16h57.20.575,lexical_decision_task_DD_L2,2021.2.3,Win32,100,,,,,,,,,,,0.664,1,,,,,,,,,,,,,,,,,,,,,,,,0.806481481,-0.019444444,0,0,0,,,,,,,STRING,C,m,y,./images/STRING.png,,,,,,,,,,,,,,,,,,,,,m,1,0.664,,,,,,,,0,102,102,41,1
,,,,,,,,,,,,,,,,,5f7f6143dc758b0fc54725f1,,2022-02-12_16h57.20.575,lexical_decision_task_DD_L2,2021.2.3,Win32,100,,,,,,,,,,,0.816,1,,,,,,,,,,,,,,,,,,,,,,,,0.806481481,-0.019444444,0,0,0,,,,,,,MOSQUE,LB,m,y,./images/MOSQUELB.png,,,,,,,,,,,,,,,,,,,,,m,1,0.816,,,,,,,,0,103,103,43,1
,,,,,,,,,,,,,,,,,5f7f6143dc758b0fc54725f1,,2022-02-12_16h57.20.575,lexical_decision_task_DD_L2,2021.2.3,Win32,100,,,,,,,,,,,0.637,1,,,,,,,,,,,,,,,,,,,,,,,,0.806481481,-0.019444444,0,0,0,,,,,,,MIRROR,HB,m,y,./images/MIRRORHB.png,,,,,,,,,,,,,,,,,,,,,m,1,0.637,,,,,,,,0,104,104,63,1
,,,,,,,,,,,,,,,,,5f7f6143dc758b0fc54725f1,,2022-02-12_16h57.20.575,lexical_decision_task_DD_L2,2021.2.3,Win32,100,,,,,,,,,,,1.21,0,,,,,,,,,,,,,,,,,,,,,,,,0.806481481,-0.019444444,0,0,0,,,,,,,DONKEY,LB,z,y,./images/DONKEYLB.png,,,,,,,,,,,,,,,,,,,,,m,0,1.21,,,,,,,,0,105,105,103,1
,,,,,,,,,,,,,,,,,5f7f6143dc758b0fc54725f1,,2022-02-12_16h57.20.575,lexical_decision_task_DD_L2,2021.2.3,Win32,100,,,,,,,,,,,1.148,0,,,,,,,,,,,,,,,,,,,,,,,,0.806481481,-0.019444444,0,0,0,,,,,,,VALLEY,C,z,y,./images/VALLEY.png,,,,,,,,,,,,,,,,,,,,,m,0,1.148,,,,,,,,0,106,106,152,1
,,,,,,,,,,,,,,,,,5f7f6143dc758b0fc54725f1,,2022-02-12_16h57.20.575,lexical_decision_task_DD_L2,2021.2.3,Win32,100,,,,,,,,,,,1.762,1,,,,,,,,,,,,,,,,,,,,,,,,0.806481481,-0.019444444,0,0,0,,,,,,,ENGINE,C,z,y,./images/ENGINE.png,,,,,,,,,,,,,,,,,,,,,z,1,1.762,,,,,,,,0,107,107,122,1
,,,,,,,,,,,,,,,,,5f7f6143dc758b0fc54725f1,,2022-02-12_16h57.20.575,lexical_decision_task_DD_L2,2021.2.3,Win32,100,,,,,,,,,,,0.779,1,,,,,,,,,,,,,,,,,,,,,,,,0.806481481,-0.019444444,0,0,0,,,,,,,PLANET,C,z,y,./images/PLANET.png,,,,,,,,,,,,,,,,,,,,,z,1,0.779,,,,,,,,0,108,108,164,1
,,,,,,,,,,,,,,,,,5f7f6143dc758b0fc54725f1,,2022-02-12_16h57.20.575,lexical_decision_task_DD_L2,2021.2.3,Win32,100,,,,,,,,,,,0.799,1,,,,,,,,,,,,,,,,,,,,,,,,0.806481481,-0.019444444,0,0,0,,,,,,,CHERRY,HB,z,y,./images/CHERRYHB.png,,,,,,,,,,,,,,,,,,,,,z,1,0.799,,,,,,,,0,109,109,138,1
,,,,,,,,,,,,,,,,,5f7f6143dc758b0fc54725f1,,2022-02-12_16h57.20.575,lexical_decision_task_DD_L2,2021.2.3,Win32,100,,,,,,,,,,,0.675,1,,,,,,,,,,,,,,,,,,,,,,,,0.806481481,-0.019444444,0,0,0,,,,,,,ARTIST,LB,z,y,./images/ARTISTLB.png,,,,,,,,,,,,,,,,,,,,,z,1,0.675,,,,,,,,0,110,110,145,1
,,,,,,,,,,,,,,,,,5f7f6143dc758b0fc54725f1,,2022-02-12_16h57.20.575,lexical_decision_task_DD_L2,2021.2.3,Win32,100,,,,,,,,,,,0.819,1,,,,,,,,,,,,,,,,,,,,,,,,0.806481481,-0.019444444,0,0,0,,,,,,,ATTIC,HB,m,y,./images/ATTICHB.png,,,,,,,,,,,,,,,,,,,,,m,1,0.819,,,,,,,,0,111,111,27,1
,,,,,,,,,,,,,,,,,5f7f6143dc758b0fc54725f1,,2022-02-12_16h57.20.575,lexical_decision_task_DD_L2,2021.2.3,Win32,100,,,,,,,,,,,0.872,1,,,,,,,,,,,,,,,,,,,,,,,,0.806481481,-0.019444444,0,0,0,,,,,,,DOUGH,LB,m,y,./images/DOUGHLB.png,,,,,,,,,,,,,,,,,,,,,m,1,0.872,,,,,,,,0,112,112,19,1
,,,,,,,,,,,,,,,,,5f7f6143dc758b0fc54725f1,,2022-02-12_16h57.20.575,lexical_decision_task_DD_L2,2021.2.3,Win32,100,,,,,,,,,,,0.769,1,,,,,,,,,,,,,,,,,,,,,,,,0.806481481,-0.019444444,0,0,0,,,,,,,BURIAL,C,m,y,./images/BURIAL.png,,,,,,,,,,,,,,,,,,,,,m,1,0.769,,,,,,,,0,113,113,59,1
,,,,,,,,,,,,,,,,,5f7f6143dc758b0fc54725f1,,2022-02-12_16h57.20.575,lexical_decision_task_DD_L2,2021.2.3,Win32,100,,,,,,,,,,,1.988,0,,,,,,,,,,,,,,,,,,,,,,,,0.806481481,-0.019444444,0,0,0,,,,,,,SPINE,C,z,y,./images/SPINE.png,,,,,,,,,,,,,,,,,,,,,m,0,1.988,,,,,,,,0,114,114,149,1
,,,,,,,,,,,,,,,,,5f7f6143dc758b0fc54725f1,,2022-02-12_16h57.20.575,lexical_decision_task_DD_L2,2021.2.3,Win32,100,,,,,,,,,,,0.919,0,,,,,,,,,,,,,,,,,,,,,,,,0.806481481,-0.019444444,0,0,0,,,,,,,CHAIN,HB,z,y,./images/CHAINHB.png,,,,,,,,,,,,,,,,,,,,,m,0,0.919,,,,,,,,0,115,115,126,1
,,,,,,,,,,,,,,,,,5f7f6143dc758b0fc54725f1,,2022-02-12_16h57.20.575,lexical_decision_task_DD_L2,2021.2.3,Win32,100,,,,,,,,,,,0.813,1,,,,,,,,,,,,,,,,,,,,,,,,0.806481481,-0.019444444,0,0,0,,,,,,,SCREW,HB,m,y,./images/SCREWHB.png,,,,,,,,,,,,,,,,,,,,,m,1,0.813,,,,,,,,0,116,116,24,1
,,,,,,,,,,,,,,,,,5f7f6143dc758b0fc54725f1,,2022-02-12_16h57.20.575,lexical_decision_task_DD_L2,2021.2.3,Win32,100,,,,,,,,,,,0.802,1,,,,,,,,,,,,,,,,,,,,,,,,0.806481481,-0.019444444,0,0,0,,,,,,,SHIELD,HB,z,y,./images/SHIELDHB.png,,,,,,,,,,,,,,,,,,,,,z,1,0.802,,,,,,,,0,117,117,132,1
,,,,,,,,,,,,,,,,,5f7f6143dc758b0fc54725f1,,2022-02-12_16h57.20.575,lexical_decision_task_DD_L2,2021.2.3,Win32,100,,,,,,,,,,,1.231,1,,,,,,,,,,,,,,,,,,,,,,,,0.806481481,-0.019444444,0,0,0,,,,,,,MALLET,C,m,y,./images/MALLET.png,,,,,,,,,,,,,,,,,,,,,m,1,1.231,,,,,,,,0,118,118,50,1
,,,,,,,,,,,,,,,,,5f7f6143dc758b0fc54725f1,,2022-02-12_16h57.20.575,lexical_decision_task_DD_L2,2021.2.3,Win32,100,,,,,,,,,,,2.94,0,,,,,,,,,,,,,,,,,,,,,,,,0.806481481,-0.019444444,0,0,0,,,,,,,SPORT,HB,m,y,./images/SPORTHB.png,,,,,,,,,,,,,,,,,,,,,z,0,2.94,,,,,,,,0,119,119,48,1
,,,,,,,,,,,,,,,,,5f7f6143dc758b0fc54725f1,,2022-02-12_16h57.20.575,lexical_decision_task_DD_L2,2021.2.3,Win32,100,,,,,,,,,,,0.76,1,,,,,,,,,,,,,,,,,,,,,,,,0.806481481,-0.019444444,0,0,0,,,,,,,THROAT,HB,m,y,./images/THROATHB.png,,,,,,,,,,,,,,,,,,,,,m,1,0.76,,,,,,,,0,120,120,36,1
,,,,,,,,,,,,,,,,,5f7f6143dc758b0fc54725f1,,2022-02-12_16h57.20.575,lexical_decision_task_DD_L2,2021.2.3,Win32,100,,,,,,,,,,,0.59,1,,,,,,,,,,,,,,,,,,,,,,,,0.806481481,-0.019444444,0,0,0,,,,,,,MOOSE,HB,m,y,./images/MOOSEHB.png,,,,,,,,,,,,,,,,,,,,,m,1,0.59,,,,,,,,0,121,121,57,1
,,,,,,,,,,,,,,,,,5f7f6143dc758b0fc54725f1,,2022-02-12_16h57.20.575,lexical_decision_task_DD_L2,2021.2.3,Win32,100,,,,,,,,,,,0.55,0,,,,,,,,,,,,,,,,,,,,,,,,0.806481481,-0.019444444,0,0,0,,,,,,,CANDY,HB,z,y,./images/CANDYHB.png,,,,,,,,,,,,,,,,,,,,,m,0,0.55,,,,,,,,0,122,122,123,1
,,,,,,,,,,,,,,,,,5f7f6143dc758b0fc54725f1,,2022-02-12_16h57.20.575,lexical_decision_task_DD_L2,2021.2.3,Win32,100,,,,,,,,,,,0.592,0,,,,,,,,,,,,,,,,,,,,,,,,0.806481481,-0.019444444,0,0,0,,,,,,,CRATER,HB,z,y,./images/CRATERHB.png,,,,,,,,,,,,,,,,,,,,,m,0,0.592,,,,,,,,0,123,123,87,1
,,,,,,,,,,,,,,,,,5f7f6143dc758b0fc54725f1,,2022-02-12_16h57.20.575,lexical_decision_task_DD_L2,2021.2.3,Win32,100,,,,,,,,,,,0.802,0,,,,,,,,,,,,,,,,,,,,,,,,0.806481481,-0.019444444,0,0,0,,,,,,,ALLEY,LB,z,y,./images/ALLEYLB.png,,,,,,,,,,,,,,,,,,,,,m,0,0.802,,,,,,,,0,124,124,139,1
,,,,,,,,,,,,,,,,,5f7f6143dc758b0fc54725f1,,2022-02-12_16h57.20.575,lexical_decision_task_DD_L2,2021.2.3,Win32,100,,,,,,,,,,,0.84,1,,,,,,,,,,,,,,,,,,,,,,,,0.806481481,-0.019444444,0,0,0,space,,,,,,STEAK,LB,z,y,./images/STEAKLB.png,14.736,,,,,,,,,,,,,,,,,,,,z,1,0.84,,,,,,,,0,125,125,115,1
,,,,,,,,,,,,,,,,,5f7f6143dc758b0fc54725f1,,2022-02-12_16h57.20.575,lexical_decision_task_DD_L2,2021.2.3,Win32,100,,,,,,,,,,,0.862,1,,,,,,,,,,,,,,,,,,,,,,,,0.806481481,-0.019444444,0,0,0,,,,,,,CRUMB,C,m,y,./images/CRUMB.png,,,,,,,,,,,,,,,,,,,,,m,1,0.862,,,,,,,,0,126,126,29,1
,,,,,,,,,,,,,,,,,5f7f6143dc758b0fc54725f1,,2022-02-12_16h57.20.575,lexical_decision_task_DD_L2,2021.2.3,Win32,100,,,,,,,,,,,0.59,1,,,,,,,,,,,,,,,,,,,,,,,,0.806481481,-0.019444444,0,0,0,,,,,,,BELLY,LB,m,y,./images/BELLYLB.png,,,,,,,,,,,,,,,,,,,,,m,1,0.59,,,,,,,,0,127,127,10,1
,,,,,,,,,,,,,,,,,5f7f6143dc758b0fc54725f1,,2022-02-12_16h57.20.575,lexical_decision_task_DD_L2,2021.2.3,Win32,100,,,,,,,,,,,0.516,0,,,,,,,,,,,,,,,,,,,,,,,,0.806481481,-0.019444444,0,0,0,,,,,,,BAMBOO,C,z,y,./images/BAMBOO.png,,,,,,,,,,,,,,,,,,,,,m,0,0.516,,,,,,,,0,128,128,89,1
,,,,,,,,,,,,,,,,,5f7f6143dc758b0fc54725f1,,2022-02-12_16h57.20.575,lexical_decision_task_DD_L2,2021.2.3,Win32,100,,,,,,,,,,,0.633,1,,,,,,,,,,,,,,,,,,,,,,,,0.806481481,-0.019444444,0,0,0,,,,,,,FINGER,HB,m,y,./images/FINGERHB.png,,,,,,,,,,,,,,,,,,,,,m,1,0.633,,,,,,,,0,129,129,3,1
,,,,,,,,,,,,,,,,,5f7f6143dc758b0fc54725f1,,2022-02-12_16h57.20.575,lexical_decision_task_DD_L2,2021.2.3,Win32,100,,,,,,,,,,,1.114,1,,,,,,,,,,,,,,,,,,,,,,,,0.806481481,-0.019444444,0,0,0,,,,,,,TOWEL,LB,z,y,./images/TOWELLB.png,,,,,,,,,,,,,,,,,,,,,z,1,1.114,,,,,,,,0,130,130,85,1
,,,,,,,,,,,,,,,,,5f7f6143dc758b0fc54725f1,,2022-02-12_16h57.20.575,lexical_decision_task_DD_L2,2021.2.3,Win32,100,,,,,,,,,,,1.017,0,,,,,,,,,,,,,,,,,,,,,,,,0.806481481,-0.019444444,0,0,0,,,,,,,PEACH,C,m,y,./images/PEACH.png,,,,,,,,,,,,,,,,,,,,,z,0,1.017,,,,,,,,0,131,131,35,1
,,,,,,,,,,,,,,,,,5f7f6143dc758b0fc54725f1,,2022-02-12_16h57.20.575,lexical_decision_task_DD_L2,2021.2.3,Win32,100,,,,,,,,,,,1.597,0,,,,,,,,,,,,,,,,,,,,,,,,0.806481481,-0.019444444,0,0,0,,,,,,,CLOUD,C,z,y,./images/CLOUD.png,,,,,,,,,,,,,,,,,,,,,m,0,1.597,,,,,,,,0,132,132,110,1
,,,,,,,,,,,,,,,,,5f7f6143dc758b0fc54725f1,,2022-02-12_16h57.20.575,lexical_decision_task_DD_L2,2021.2.3,Win32,100,,,,,,,,,,,0.802,1,,,,,,,,,,,,,,,,,,,,,,,,0.806481481,-0.019444444,0,0,0,,,,,,,WALRUS,C,m,y,./images/WALRUS.png,,,,,,,,,,,,,,,,,,,,,m,1,0.802,,,,,,,,0,133,133,23,1
,,,,,,,,,,,,,,,,,5f7f6143dc758b0fc54725f1,,2022-02-12_16h57.20.575,lexical_decision_task_DD_L2,2021.2.3,Win32,100,,,,,,,,,,,0.83,0,,,,,,,,,,,,,,,,,,,,,,,,0.806481481,-0.019444444,0,0,0,,,,,,,STAIN,HB,z,y,./images/STAINHB.png,,,,,,,,,,,,,,,,,,,,,m,0,0.83,,,,,,,,0,134,134,90,1
,,,,,,,,,,,,,,,,,5f7f6143dc758b0fc54725f1,,2022-02-12_16h57.20.575,lexical_decision_task_DD_L2,2021.2.3,Win32,100,,,,,,,,,,,0.774,1,,,,,,,,,,,,,,,,,,,,,,,,0.806481481,-0.019444444,0,0,0,,,,,,,FARMER,C,m,y,./images/FARMER.png,,,,,,,,,,,,,,,,,,,,,m,1,0.774,,,,,,,,0,135,135,65,1
,,,,,,,,,,,,,,,,,5f7f6143dc758b0fc54725f1,,2022-02-12_16h57.20.575,lexical_decision_task_DD_L2,2021.2.3,Win32,100,,,,,,,,,,,1.37,1,,,,,,,,,,,,,,,,,,,,,,,,0.806481481,-0.019444444,0,0,0,,,,,,,STOVE,C,z,y,./images/STOVE.png,,,,,,,,,,,,,,,,,,,,,z,1,1.37,,,,,,,,0,136,136,86,1
,,,,,,,,,,,,,,,,,5f7f6143dc758b0fc54725f1,,2022-02-12_16h57.20.575,lexical_decision_task_DD_L2,2021.2.3,Win32,100,,,,,,,,,,,1.222,0,,,,,,,,,,,,,,,,,,,,,,,,0.806481481,-0.019444444,0,0,0,,,,,,,ARROW,HB,z,y,./images/ARROWHB.png,,,,,,,,,,,,,,,,,,,,,m,0,1.222,,,,,,,,0,137,137,153,1
,,,,,,,,,,,,,,,,,5f7f6143dc758b0fc54725f1,,2022-02-12_16h57.20.575,lexical_decision_task_DD_L2,2021.2.3,Win32,100,,,,,,,,,,,1.382,0,,,,,,,,,,,,,,,,,,,,,,,,0.806481481,-0.019444444,0,0,0,,,,,,,SAUCE,HB,z,y,./images/SAUCEHB.png,,,,,,,,,,,,,,,,,,,,,m,0,1.382,,,,,,,,0,138,138,135,1
,,,,,,,,,,,,,,,,,5f7f6143dc758b0fc54725f1,,2022-02-12_16h57.20.575,lexical_decision_task_DD_L2,2021.2.3,Win32,100,,,,,,,,,,,0.949,1,,,,,,,,,,,,,,,,,,,,,,,,0.806481481,-0.019444444,0,0,0,,,,,,,COUCH,C,m,y,./images/COUCH.png,,,,,,,,,,,,,,,,,,,,,m,1,0.949,,,,,,,,0,139,139,77,1
,,,,,,,,,,,,,,,,,5f7f6143dc758b0fc54725f1,,2022-02-12_16h57.20.575,lexical_decision_task_DD_L2,2021.2.3,Win32,100,,,,,,,,,,,2.612,1,,,,,,,,,,,,,,,,,,,,,,,,0.806481481,-0.019444444,0,0,0,,,,,,,CARPET,C,m,y,./images/CARPET.png,,,,,,,,,,,,,,,,,,,,,m,1,2.612,,,,,,,,0,140,140,53,1
,,,,,,,,,,,,,,,,,5f7f6143dc758b0fc54725f1,,2022-02-12_16h57.20.575,lexical_decision_task_DD_L2,2021.2.3,Win32,100,,,,,,,,,,,2.351,1,,,,,,,,,,,,,,,,,,,,,,,,0.806481481,-0.019444444,0,0,0,,,,,,,CURRY,HB,z,y,./images/CURRYHB.png,,,,,,,,,,,,,,,,,,,,,z,1,2.351,,,,,,,,0,141,141,144,1
,,,,,,,,,,,,,,,,,5f7f6143dc758b0fc54725f1,,2022-02-12_16h57.20.575,lexical_decision_task_DD_L2,2021.2.3,Win32,100,,,,,,,,,,,1.152,0,,,,,,,,,,,,,,,,,,,,,,,,0.806481481,-0.019444444,0,0,0,,,,,,,COLLAR,HB,z,y,./images/COLLARHB.png,,,,,,,,,,,,,,,,,,,,,m,0,1.152,,,,,,,,0,142,142,99,1
,,,,,,,,,,,,,,,,,5f7f6143dc758b0fc54725f1,,2022-02-12_16h57.20.575,lexical_decision_task_DD_L2,2021.2.3,Win32,100,,,,,,,,,,,1.59,0,,,,,,,,,,,,,,,,,,,,,,,,0.806481481,-0.019444444,0,0,0,,,,,,,CHALK,LB,z,y,./images/CHALKLB.png,,,,,,,,,,,,,,,,,,,,,m,0,1.59,,,,,,,,0,143,143,109,1
,,,,,,,,,,,,,,,,,5f7f6143dc758b0fc54725f1,,2022-02-12_16h57.20.575,lexical_decision_task_DD_L2,2021.2.3,Win32,100,,,,,,,,,,,0.889,1,,,,,,,,,,,,,,,,,,,,,,,,0.806481481,-0.019444444,0,0,0,,,,,,,PACKET,C,m,y,./images/PACKET.png,,,,,,,,,,,,,,,,,,,,,m,1,0.889,,,,,,,,0,144,144,56,1
,,,,,,,,,,,,,,,,,5f7f6143dc758b0fc54725f1,,2022-02-12_16h57.20.575,lexical_decision_task_DD_L2,2021.2.3,Win32,100,,,,,,,,,,,0.901,1,,,,,,,,,,,,,,,,,,,,,,,,0.806481481,-0.019444444,0,0,0,,,,,,,JELLY,LB,m,y,./images/JELLYLB.png,,,,,,,,,,,,,,,,,,,,,m,1,0.901,,,,,,,,0,145,145,64,1
,,,,,,,,,,,,,,,,,5f7f6143dc758b0fc54725f1,,2022-02-12_16h57.20.575,lexical_decision_task_DD_L2,2021.2.3,Win32,100,,,,,,,,,,,1.086,1,,,,,,,,,,,,,,,,,,,,,,,,0.806481481,-0.019444444,0,0,0,,,,,,,FENCE,C,z,y,./images/FENCE.png,,,,,,,,,,,,,,,,,,,,,z,1,1.086,,,,,,,,0,146,146,98,1
