key_resp.keys,instr_done_touch.x,instr_done_touch.y,instr_done_touch.leftButton,instr_done_touch.midButton,instr_done_touch.rightButton,instr_done_touch.clicked_name,instruction_pages.thisRepN,instruction_pages.thisTrialN,instruction_pages.thisN,instruction_pages.thisIndex,instruction_pages.ran,pageN,phase,instruct_text,has_image,instruct_image,participant,age,date,expName,psychopyVersion,OS,frameRate,key_resp.rt,response.keys,response.corr,response.rt,touch_resp.x,touch_resp.y,touch_resp.leftButton,touch_resp.midButton,touch_resp.rightButton,touch_resp.time,touch_resp.clicked_name,rt,corr,practrials.thisRepN,practrials.thisTrialN,practrials.thisN,practrials.thisIndex,practrials.ran,TrialID,Target,corrAns,end_of_practice_trials_pages.thisRepN,end_of_practice_trials_pages.thisTrialN,end_of_practice_trials_pages.thisN,end_of_practice_trials_pages.thisIndex,end_of_practice_trials_pages.ran,key_resp_2.keys,key_resp_2.corr,key_resp_2.rt,targ_click.x,targ_click.y,targ_click.leftButton,targ_click.midButton,targ_click.rightButton,targ_click.time,targ_click.clicked_name,break_done_touch.x,break_done_touch.y,break_done_touch.leftButton,break_done_touch.midButton,break_done_touch.rightButton,break_done_keyboard.keys,maintrials.thisRepN,maintrials.thisTrialN,maintrials.thisN,maintrials.thisIndex,maintrials.ran,string,blur,study,lex,stim_path,break_done_keyboard.rt,mouse_2.x,mouse_2.y,mouse_2.leftButton,mouse_2.midButton,mouse_2.rightButton,mouse_2.clicked_name,slider.response,slider.rt,trials.thisRepN,trials.thisTrialN,trials.thisN,trials.thisIndex,trials.ran,test_instructions.thisRepN,test_instructions.thisTrialN,test_instructions.thisN,test_instructions.thisIndex,test_instructions.ran,key_resp_3.keys,key_resp_3.corr,key_resp_3.rt,test_click.x,test_click.y,test_click.leftButton,test_click.midButton,test_click.rightButton,test_click.time,test_click.clicked_name,test_phase.thisRepN,test_phase.thisTrialN,test_phase.thisN,test_phase.thisIndex,test_phase.ran
,0.052777848,-0.406481495,1,0,0,instr_done_button,0,0,0,0,1,1,instructions,"INSTRUCTIONS
At the start of each trial, look at the plus sign  (+) in the center of the screen.  This tells you that a trial is about to begin and where to look. Second, the plus sign will disappear and a string of letters will appear. Your task is to determine if the string of letters is a word or not. If the item is a word press the M key (on keyboard)  or touch the word button (phone/tablet).  If the item is not a word,  press the  Z key (on keyboard)  or touch the nonword button (on phone/tablet). 
Press the space bar or touch  continue.",0,,6068a47f3cddf2e2c25a13c2,28,2022-02-12_13h17.19.220,lexical_decision_task_DD_L2,2021.2.3,Win32,60.03842459,,,,,,,,,,,,,,,,,,,,,,,,,,,,,,,,,,,,,,,,,,,,,,,,,,,,,,,,,,,,,,,,,,,,,,,,,,,,,,,,,,,,,,
space,0.052777848,-0.406481495,0,0,0,,0,1,1,1,1,2,instructions,"If your device has a keyboard, press the 'Z' key for nonwords and the 'M' key for words.





Press the space bar or touch the button below to continue.",0,keyboard-example.gif,6068a47f3cddf2e2c25a13c2,28,2022-02-12_13h17.19.220,lexical_decision_task_DD_L2,2021.2.3,Win32,60.03842459,5.0028,,,,,,,,,,,,,,,,,,,,,,,,,,,,,,,,,,,,,,,,,,,,,,,,,,,,,,,,,,,,,,,,,,,,,,,,,,,,,,,,,,,,,
space,0.052777848,-0.406481495,0,0,0,,0,2,2,2,1,3,instructions,"If you are using a touchscreen only device, use the buttons on the screen. Do not use the mouse.





Press the space bar or touch the button below to continue.",0,touchscreen-example.gif,6068a47f3cddf2e2c25a13c2,28,2022-02-12_13h17.19.220,lexical_decision_task_DD_L2,2021.2.3,Win32,60.03842459,2.9353,,,,,,,,,,,,,,,,,,,,,,,,,,,,,,,,,,,,,,,,,,,,,,,,,,,,,,,,,,,,,,,,,,,,,,,,,,,,,,,,,,,,,
space,0.052777848,-0.406481495,0,0,0,,0,3,3,3,1,4,instructions,"It is very important that you respond as quickly and accurately as possible, as each letter string will only be on the screen for two seconds. If you do not respond within this time, the message 'Too slow!' will be displayed and the experiment will progress to the next letter string. The first 20 trials will be practice trials and you will receive feedback on your answers. 

Press the space bar or touch the button below to start the practice trials.",0,,6068a47f3cddf2e2c25a13c2,28,2022-02-12_13h17.19.220,lexical_decision_task_DD_L2,2021.2.3,Win32,60.03842459,10.1903,,,,,,,,,,,,,,,,,,,,,,,,,,,,,,,,,,,,,,,,,,,,,,,,,,,,,,,,,,,,,,,,,,,,,,,,,,,,,,,,,,,,,
,,,,,,,,,,,,,,,,,6068a47f3cddf2e2c25a13c2,28,2022-02-12_13h17.19.220,lexical_decision_task_DD_L2,2021.2.3,Win32,60.03842459,,z,1,0.9372,,,,,,,,0.9372,1,0,0,0,10,1,1001,INLADE,z,,,,,,,,,,,,,,,,,,,,,,,,,,,,,,,,,,,,,,,,,,,,,,,,,,,,,,,,,,,,,,,,,
,,,,,,,,,,,,,,,,,6068a47f3cddf2e2c25a13c2,28,2022-02-12_13h17.19.220,lexical_decision_task_DD_L2,2021.2.3,Win32,60.03842459,,z,1,0.8384,,,,,,,,0.8384,1,0,1,1,8,1,1001,ASLERT,z,,,,,,,,,,,,,,,,,,,,,,,,,,,,,,,,,,,,,,,,,,,,,,,,,,,,,,,,,,,,,,,,,
,,,,,,,,,,,,,,,,,6068a47f3cddf2e2c25a13c2,28,2022-02-12_13h17.19.220,lexical_decision_task_DD_L2,2021.2.3,Win32,60.03842459,,m,1,0.5906,,,,,,,,0.5906,1,0,2,2,5,1,1001,OBTAIN,m,,,,,,,,,,,,,,,,,,,,,,,,,,,,,,,,,,,,,,,,,,,,,,,,,,,,,,,,,,,,,,,,,
,,,,,,,,,,,,,,,,,6068a47f3cddf2e2c25a13c2,28,2022-02-12_13h17.19.220,lexical_decision_task_DD_L2,2021.2.3,Win32,60.03842459,,m,1,0.6134,,,,,,,,0.6134,1,0,3,3,4,1,1001,SQUEAK,m,,,,,,,,,,,,,,,,,,,,,,,,,,,,,,,,,,,,,,,,,,,,,,,,,,,,,,,,,,,,,,,,,
,,,,,,,,,,,,,,,,,6068a47f3cddf2e2c25a13c2,28,2022-02-12_13h17.19.220,lexical_decision_task_DD_L2,2021.2.3,Win32,60.03842459,,m,1,0.6749,,,,,,,,0.6749,1,0,4,4,0,1,1001,UTOPIA,m,,,,,,,,,,,,,,,,,,,,,,,,,,,,,,,,,,,,,,,,,,,,,,,,,,,,,,,,,,,,,,,,,
,,,,,,,,,,,,,,,,,6068a47f3cddf2e2c25a13c2,28,2022-02-12_13h17.19.220,lexical_decision_task_DD_L2,2021.2.3,Win32,60.03842459,,m,1,0.5634,,,,,,,,0.5634,1,0,5,5,1,1,1001,ADJUST,m,,,,,,,,,,,,,,,,,,,,,,,,,,,,,,,,,,,,,,,,,,,,,,,,,,,,,,,,,,,,,,,,,
,,,,,,,,,,,,,,,,,6068a47f3cddf2e2c25a13c2,28,2022-02-12_13h17.19.220,lexical_decision_task_DD_L2,2021.2.3,Win32,60.03842459,,m,1,0.5574,,,,,,,,0.5574,1,0,6,6,6,1,1001,ZOMBIE,m,,,,,,,,,,,,,,,,,,,,,,,,,,,,,,,,,,,,,,,,,,,,,,,,,,,,,,,,,,,,,,,,,
,,,,,,,,,,,,,,,,,6068a47f3cddf2e2c25a13c2,28,2022-02-12_13h17.19.220,lexical_decision_task_DD_L2,2021.2.3,Win32,60.03842459,,m,1,0.573,,,,,,,,0.573,1,0,7,7,2,1,1001,ALMOND,m,,,,,,,,,,,,,,,,,,,,,,,,,,,,,,,,,,,,,,,,,,,,,,,,,,,,,,,,,,,,,,,,,
,,,,,,,,,,,,,,,,,6068a47f3cddf2e2c25a13c2,28,2022-02-12_13h17.19.220,lexical_decision_task_DD_L2,2021.2.3,Win32,60.03842459,,z,1,0.5521,,,,,,,,0.5521,1,0,8,8,14,1,1001,THRALE,z,,,,,,,,,,,,,,,,,,,,,,,,,,,,,,,,,,,,,,,,,,,,,,,,,,,,,,,,,,,,,,,,,
,,,,,,,,,,,,,,,,,6068a47f3cddf2e2c25a13c2,28,2022-02-12_13h17.19.220,lexical_decision_task_DD_L2,2021.2.3,Win32,60.03842459,,z,1,0.5665,,,,,,,,0.5665,1,0,9,9,15,1,1001,WHAISE,z,,,,,,,,,,,,,,,,,,,,,,,,,,,,,,,,,,,,,,,,,,,,,,,,,,,,,,,,,,,,,,,,,
,,,,,,,,,,,,,,,,,6068a47f3cddf2e2c25a13c2,28,2022-02-12_13h17.19.220,lexical_decision_task_DD_L2,2021.2.3,Win32,60.03842459,,z,1,0.5887,,,,,,,,0.5887,1,0,10,10,9,1,1001,FARINY,z,,,,,,,,,,,,,,,,,,,,,,,,,,,,,,,,,,,,,,,,,,,,,,,,,,,,,,,,,,,,,,,,,
,,,,,,,,,,,,,,,,,6068a47f3cddf2e2c25a13c2,28,2022-02-12_13h17.19.220,lexical_decision_task_DD_L2,2021.2.3,Win32,60.03842459,,m,1,0.6111,,,,,,,,0.6111,1,0,11,11,3,1,1001,MATRIX,m,,,,,,,,,,,,,,,,,,,,,,,,,,,,,,,,,,,,,,,,,,,,,,,,,,,,,,,,,,,,,,,,,
,,,,,,,,,,,,,,,,,6068a47f3cddf2e2c25a13c2,28,2022-02-12_13h17.19.220,lexical_decision_task_DD_L2,2021.2.3,Win32,60.03842459,,z,1,0.594,,,,,,,,0.594,1,0,12,12,13,1,1001,ROUPET,z,,,,,,,,,,,,,,,,,,,,,,,,,,,,,,,,,,,,,,,,,,,,,,,,,,,,,,,,,,,,,,,,,
,,,,,,,,,,,,,,,,,6068a47f3cddf2e2c25a13c2,28,2022-02-12_13h17.19.220,lexical_decision_task_DD_L2,2021.2.3,Win32,60.03842459,,z,1,0.5361,,,,,,,,0.5361,1,0,13,13,11,1,1001,RASHET,z,,,,,,,,,,,,,,,,,,,,,,,,,,,,,,,,,,,,,,,,,,,,,,,,,,,,,,,,,,,,,,,,,
,,,,,,,,,,,,,,,,,6068a47f3cddf2e2c25a13c2,28,2022-02-12_13h17.19.220,lexical_decision_task_DD_L2,2021.2.3,Win32,60.03842459,,m,1,0.4834,,,,,,,,0.4834,1,0,14,14,7,1,1001,VOLUME,m,,,,,,,,,,,,,,,,,,,,,,,,,,,,,,,,,,,,,,,,,,,,,,,,,,,,,,,,,,,,,,,,,
,,,,,,,,,,,,,,,,,6068a47f3cddf2e2c25a13c2,28,2022-02-12_13h17.19.220,lexical_decision_task_DD_L2,2021.2.3,Win32,60.03842459,,z,1,0.5946,,,,,,,,0.5946,1,0,15,15,12,1,1001,SPRINY,z,,,,,,,,,,,,,,,,,,,,,,,,,,,,,,,,,,,,,,,,,,,,,,,,,,,,,,,,,,,,,,,,,
space,-0.332407399,0.418518517,0,0,0,,,,,,,1,end_of_practice,"You have completed the practice trials. During the experimental trials, you will not receive feedback. 
Before you begin, please ensure that you are in a comfortable and quiet location and will not be disturbed for about 15 minutes, as we cannot use your data if you do not complete all the trials. 
 When you are ready to start the experimental trials, please press space or touch the button below.",,,6068a47f3cddf2e2c25a13c2,28,2022-02-12_13h17.19.220,lexical_decision_task_DD_L2,2021.2.3,Win32,60.03842459,473.5502,,,,,,,,,,,,,,,,,,,,,0,0,0,0,1,,,,,,,,,,,,,,,,,,,,,,,,,,,,,,,,,,,,,,,,,,,,,,,,,,,,,,,,,,,,
,,,,,,,,,,,,,,,,,6068a47f3cddf2e2c25a13c2,28,2022-02-12_13h17.19.220,lexical_decision_task_DD_L2,2021.2.3,Win32,60.03842459,,,,,,,,,,,,1.2063,1,,,,,,,,,,,,,,m,1,1.2063,,,,,,,,-0.332407399,0.418518517,0,0,0,,0,0,0,45,1,KITTEN,HB,old,m,./images/KITTENHB.png,,,,,,,,,,,,,,,,,,,,,,,,,,,,,,,,,,
,,,,,,,,,,,,,,,,,6068a47f3cddf2e2c25a13c2,28,2022-02-12_13h17.19.220,lexical_decision_task_DD_L2,2021.2.3,Win32,60.03842459,,,,,,,,,,,,0.6745,1,,,,,,,,,,,,,,z,1,0.6745,,,,,,,,-0.332407399,0.418518517,0,0,0,,0,1,1,96,1,KEAMS,C,old,z,./images/KEAMS.png,,,,,,,,,,,,,,,,,,,,,,,,,,,,,,,,,,
,,,,,,,,,,,,,,,,,6068a47f3cddf2e2c25a13c2,28,2022-02-12_13h17.19.220,lexical_decision_task_DD_L2,2021.2.3,Win32,60.03842459,,,,,,,,,,,,0.5839,1,,,,,,,,,,,,,,z,1,0.5839,,,,,,,,-0.332407399,0.418518517,0,0,0,,0,2,2,84,1,HAXES,C,old,z,./images/HAXES.png,,,,,,,,,,,,,,,,,,,,,,,,,,,,,,,,,,
,,,,,,,,,,,,,,,,,6068a47f3cddf2e2c25a13c2,28,2022-02-12_13h17.19.220,lexical_decision_task_DD_L2,2021.2.3,Win32,60.03842459,,,,,,,,,,,,0.5384,1,,,,,,,,,,,,,,m,1,0.5384,,,,,,,,-0.332407399,0.418518517,0,0,0,,0,3,3,63,1,MIRROR,HB,old,m,./images/MIRRORHB.png,,,,,,,,,,,,,,,,,,,,,,,,,,,,,,,,,,
,,,,,,,,,,,,,,,,,6068a47f3cddf2e2c25a13c2,28,2022-02-12_13h17.19.220,lexical_decision_task_DD_L2,2021.2.3,Win32,60.03842459,,,,,,,,,,,,0.5841,0,,,,,,,,,,,,,,m,0,0.5841,,,,,,,,-0.332407399,0.418518517,0,0,0,,0,4,4,110,1,CRUNK,LB,old,z,./images/CRUNKLB.png,,,,,,,,,,,,,,,,,,,,,,,,,,,,,,,,,,
,,,,,,,,,,,,,,,,,6068a47f3cddf2e2c25a13c2,28,2022-02-12_13h17.19.220,lexical_decision_task_DD_L2,2021.2.3,Win32,60.03842459,,,,,,,,,,,,0.6025,1,,,,,,,,,,,,,,m,1,0.6025,,,,,,,,-0.332407399,0.418518517,0,0,0,,0,5,5,29,1,CRUMB,C,old,m,./images/CRUMB.png,,,,,,,,,,,,,,,,,,,,,,,,,,,,,,,,,,
,,,,,,,,,,,,,,,,,6068a47f3cddf2e2c25a13c2,28,2022-02-12_13h17.19.220,lexical_decision_task_DD_L2,2021.2.3,Win32,60.03842459,,,,,,,,,,,,0.537,1,,,,,,,,,,,,,,m,1,0.537,,,,,,,,-0.332407399,0.418518517,0,0,0,,0,6,6,83,1,JUNGLE,C,old,m,./images/JUNGLE.png,,,,,,,,,,,,,,,,,,,,,,,,,,,,,,,,,,
,,,,,,,,,,,,,,,,,6068a47f3cddf2e2c25a13c2,28,2022-02-12_13h17.19.220,lexical_decision_task_DD_L2,2021.2.3,Win32,60.03842459,,,,,,,,,,,,0.5181,1,,,,,,,,,,,,,,m,1,0.5181,,,,,,,,-0.332407399,0.418518517,0,0,0,,0,7,7,0,1,TOMATO,HB,old,m,./images/TOMATOHB.png,,,,,,,,,,,,,,,,,,,,,,,,,,,,,,,,,,
,,,,,,,,,,,,,,,,,6068a47f3cddf2e2c25a13c2,28,2022-02-12_13h17.19.220,lexical_decision_task_DD_L2,2021.2.3,Win32,60.03842459,,,,,,,,,,,,0.6413,1,,,,,,,,,,,,,,z,1,0.6413,,,,,,,,-0.332407399,0.418518517,0,0,0,,0,8,8,134,1,TROSS,LB,old,z,./images/TROSSLB.png,,,,,,,,,,,,,,,,,,,,,,,,,,,,,,,,,,
,,,,,,,,,,,,,,,,,6068a47f3cddf2e2c25a13c2,28,2022-02-12_13h17.19.220,lexical_decision_task_DD_L2,2021.2.3,Win32,60.03842459,,,,,,,,,,,,0.5392,1,,,,,,,,,,,,,,m,1,0.5392,,,,,,,,-0.332407399,0.418518517,0,0,0,,0,9,9,8,1,TULIP,C,old,m,./images/TULIP.png,,,,,,,,,,,,,,,,,,,,,,,,,,,,,,,,,,
,,,,,,,,,,,,,,,,,6068a47f3cddf2e2c25a13c2,28,2022-02-12_13h17.19.220,lexical_decision_task_DD_L2,2021.2.3,Win32,60.03842459,,,,,,,,,,,,0.6132,1,,,,,,,,,,,,,,m,1,0.6132,,,,,,,,-0.332407399,0.418518517,0,0,0,,0,10,10,62,1,PURSE,C,old,m,./images/PURSE.png,,,,,,,,,,,,,,,,,,,,,,,,,,,,,,,,,,
,,,,,,,,,,,,,,,,,6068a47f3cddf2e2c25a13c2,28,2022-02-12_13h17.19.220,lexical_decision_task_DD_L2,2021.2.3,Win32,60.03842459,,,,,,,,,,,,0.5129,1,,,,,,,,,,,,,,m,1,0.5129,,,,,,,,-0.332407399,0.418518517,0,0,0,,0,11,11,38,1,LADDER,C,old,m,./images/LADDER.png,,,,,,,,,,,,,,,,,,,,,,,,,,,,,,,,,,
,,,,,,,,,,,,,,,,,6068a47f3cddf2e2c25a13c2,28,2022-02-12_13h17.19.220,lexical_decision_task_DD_L2,2021.2.3,Win32,60.03842459,,,,,,,,,,,,0.6349,1,,,,,,,,,,,,,,z,1,0.6349,,,,,,,,-0.332407399,0.418518517,0,0,0,,0,12,12,122,1,BLOOT,LB,old,z,./images/BLOOTLB.png,,,,,,,,,,,,,,,,,,,,,,,,,,,,,,,,,,
,,,,,,,,,,,,,,,,,6068a47f3cddf2e2c25a13c2,28,2022-02-12_13h17.19.220,lexical_decision_task_DD_L2,2021.2.3,Win32,60.03842459,,,,,,,,,,,,0.4336,1,,,,,,,,,,,,,,m,1,0.4336,,,,,,,,-0.332407399,0.418518517,0,0,0,,0,13,13,61,1,CANDLE,LB,old,m,./images/CANDLELB.png,,,,,,,,,,,,,,,,,,,,,,,,,,,,,,,,,,
,,,,,,,,,,,,,,,,,6068a47f3cddf2e2c25a13c2,28,2022-02-12_13h17.19.220,lexical_decision_task_DD_L2,2021.2.3,Win32,60.03842459,,,,,,,,,,,,0.5538,1,,,,,,,,,,,,,,m,1,0.5538,,,,,,,,-0.332407399,0.418518517,0,0,0,,0,14,14,6,1,SQUARE,HB,old,m,./images/SQUAREHB.png,,,,,,,,,,,,,,,,,,,,,,,,,,,,,,,,,,
,,,,,,,,,,,,,,,,,6068a47f3cddf2e2c25a13c2,28,2022-02-12_13h17.19.220,lexical_decision_task_DD_L2,2021.2.3,Win32,60.03842459,,,,,,,,,,,,0.5522,1,,,,,,,,,,,,,,m,1,0.5522,,,,,,,,-0.332407399,0.418518517,0,0,0,,0,15,15,1,1,PLANK,LB,old,m,./images/PLANKLB.png,,,,,,,,,,,,,,,,,,,,,,,,,,,,,,,,,,
,,,,,,,,,,,,,,,,,6068a47f3cddf2e2c25a13c2,28,2022-02-12_13h17.19.220,lexical_decision_task_DD_L2,2021.2.3,Win32,60.03842459,,,,,,,,,,,,0.6009,1,,,,,,,,,,,,,,z,1,0.6009,,,,,,,,-0.332407399,0.418518517,0,0,0,,0,16,16,107,1,FASKS,LB,old,z,./images/FASKSLB.png,,,,,,,,,,,,,,,,,,,,,,,,,,,,,,,,,,
,,,,,,,,,,,,,,,,,6068a47f3cddf2e2c25a13c2,28,2022-02-12_13h17.19.220,lexical_decision_task_DD_L2,2021.2.3,Win32,60.03842459,,,,,,,,,,,,0.5151,1,,,,,,,,,,,,,,z,1,0.5151,,,,,,,,-0.332407399,0.418518517,0,0,0,,0,17,17,114,1,RIKES,C,old,z,./images/RIKES.png,,,,,,,,,,,,,,,,,,,,,,,,,,,,,,,,,,
,,,,,,,,,,,,,,,,,6068a47f3cddf2e2c25a13c2,28,2022-02-12_13h17.19.220,lexical_decision_task_DD_L2,2021.2.3,Win32,60.03842459,,,,,,,,,,,,0.725,0,,,,,,,,,,,,,,z,0,0.725,,,,,,,,-0.332407399,0.418518517,0,0,0,,0,18,18,31,1,QUILL,LB,old,m,./images/QUILLLB.png,,,,,,,,,,,,,,,,,,,,,,,,,,,,,,,,,,
,,,,,,,,,,,,,,,,,6068a47f3cddf2e2c25a13c2,28,2022-02-12_13h17.19.220,lexical_decision_task_DD_L2,2021.2.3,Win32,60.03842459,,,,,,,,,,,,0.5932,1,,,,,,,,,,,,,,m,1,0.5932,,,,,,,,-0.332407399,0.418518517,0,0,0,,0,19,19,48,1,SPORT,HB,old,m,./images/SPORTHB.png,,,,,,,,,,,,,,,,,,,,,,,,,,,,,,,,,,
,,,,,,,,,,,,,,,,,6068a47f3cddf2e2c25a13c2,28,2022-02-12_13h17.19.220,lexical_decision_task_DD_L2,2021.2.3,Win32,60.03842459,,,,,,,,,,,,0.8888,1,,,,,,,,,,,,,,z,1,0.8888,,,,,,,,-0.332407399,0.418518517,0,0,0,,0,20,20,163,1,GAMBA,HB,old,z,./images/GAMBAHB.png,,,,,,,,,,,,,,,,,,,,,,,,,,,,,,,,,,
,,,,,,,,,,,,,,,,,6068a47f3cddf2e2c25a13c2,28,2022-02-12_13h17.19.220,lexical_decision_task_DD_L2,2021.2.3,Win32,60.03842459,,,,,,,,,,,,0.6358,1,,,,,,,,,,,,,,z,1,0.6358,,,,,,,,-0.332407399,0.418518517,0,0,0,,0,21,21,86,1,AIFED,LB,old,z,./images/AIFEDLB.png,,,,,,,,,,,,,,,,,,,,,,,,,,,,,,,,,,
,,,,,,,,,,,,,,,,,6068a47f3cddf2e2c25a13c2,28,2022-02-12_13h17.19.220,lexical_decision_task_DD_L2,2021.2.3,Win32,60.03842459,,,,,,,,,,,,0.665,1,,,,,,,,,,,,,,z,1,0.665,,,,,,,,-0.332407399,0.418518517,0,0,0,,0,22,22,129,1,PRANS,C,old,z,./images/PRANS.png,,,,,,,,,,,,,,,,,,,,,,,,,,,,,,,,,,
,,,,,,,,,,,,,,,,,6068a47f3cddf2e2c25a13c2,28,2022-02-12_13h17.19.220,lexical_decision_task_DD_L2,2021.2.3,Win32,60.03842459,,,,,,,,,,,,0.6318,1,,,,,,,,,,,,,,m,1,0.6318,,,,,,,,-0.332407399,0.418518517,0,0,0,,0,23,23,74,1,CEMENT,C,old,m,./images/CEMENT.png,,,,,,,,,,,,,,,,,,,,,,,,,,,,,,,,,,
,,,,,,,,,,,,,,,,,6068a47f3cddf2e2c25a13c2,28,2022-02-12_13h17.19.220,lexical_decision_task_DD_L2,2021.2.3,Win32,60.03842459,,,,,,,,,,,,0.5532,1,,,,,,,,,,,,,,z,1,0.5532,,,,,,,,-0.332407399,0.418518517,0,0,0,,0,24,24,149,1,VEASE,LB,old,z,./images/VEASELB.png,,,,,,,,,,,,,,,,,,,,,,,,,,,,,,,,,,
,,,,,,,,,,,,,,,,,6068a47f3cddf2e2c25a13c2,28,2022-02-12_13h17.19.220,lexical_decision_task_DD_L2,2021.2.3,Win32,60.03842459,,,,,,,,,,,,0.6987,1,,,,,,,,,,,,,,m,1,0.6987,,,,,,,,-0.332407399,0.418518517,0,0,0,,0,25,25,17,1,SKIING,C,old,m,./images/SKIING.png,,,,,,,,,,,,,,,,,,,,,,,,,,,,,,,,,,
,,,,,,,,,,,,,,,,,6068a47f3cddf2e2c25a13c2,28,2022-02-12_13h17.19.220,lexical_decision_task_DD_L2,2021.2.3,Win32,60.03842459,,,,,,,,,,,,0.675,1,,,,,,,,,,,,,,m,1,0.675,,,,,,,,-0.332407399,0.418518517,0,0,0,,0,26,26,72,1,NOOSE,HB,old,m,./images/NOOSEHB.png,,,,,,,,,,,,,,,,,,,,,,,,,,,,,,,,,,
,,,,,,,,,,,,,,,,,6068a47f3cddf2e2c25a13c2,28,2022-02-12_13h17.19.220,lexical_decision_task_DD_L2,2021.2.3,Win32,60.03842459,,,,,,,,,,,,0.636,1,,,,,,,,,,,,,,z,1,0.636,,,,,,,,-0.332407399,0.418518517,0,0,0,,0,27,27,158,1,EGECT,LB,old,z,./images/EGECTLB.png,,,,,,,,,,,,,,,,,,,,,,,,,,,,,,,,,,
,,,,,,,,,,,,,,,,,6068a47f3cddf2e2c25a13c2,28,2022-02-12_13h17.19.220,lexical_decision_task_DD_L2,2021.2.3,Win32,60.03842459,,,,,,,,,,,,0.5862,1,,,,,,,,,,,,,,m,1,0.5862,,,,,,,,-0.332407399,0.418518517,0,0,0,,0,28,28,51,1,ONION,HB,old,m,./images/ONIONHB.png,,,,,,,,,,,,,,,,,,,,,,,,,,,,,,,,,,
,,,,,,,,,,,,,,,,,6068a47f3cddf2e2c25a13c2,28,2022-02-12_13h17.19.220,lexical_decision_task_DD_L2,2021.2.3,Win32,60.03842459,,,,,,,,,,,,0.5317,1,,,,,,,,,,,,,,z,1,0.5317,,,,,,,,-0.332407399,0.418518517,0,0,0,,0,29,29,141,1,PLEET,C,old,z,./images/PLEET.png,,,,,,,,,,,,,,,,,,,,,,,,,,,,,,,,,,
,,,,,,,,,,,,,,,,,6068a47f3cddf2e2c25a13c2,28,2022-02-12_13h17.19.220,lexical_decision_task_DD_L2,2021.2.3,Win32,60.03842459,,,,,,,,,,,,0.6254,1,,,,,,,,,,,,,,m,1,0.6254,,,,,,,,-0.332407399,0.418518517,0,0,0,,0,30,30,39,1,SHELF,HB,old,m,./images/SHELFHB.png,,,,,,,,,,,,,,,,,,,,,,,,,,,,,,,,,,
,,,,,,,,,,,,,,,,,6068a47f3cddf2e2c25a13c2,28,2022-02-12_13h17.19.220,lexical_decision_task_DD_L2,2021.2.3,Win32,60.03842459,,,,,,,,,,,,0.5696,1,,,,,,,,,,,,,,m,1,0.5696,,,,,,,,-0.332407399,0.418518517,0,0,0,,0,31,31,13,1,MOTOR,LB,old,m,./images/MOTORLB.png,,,,,,,,,,,,,,,,,,,,,,,,,,,,,,,,,,
,,,,,,,,,,,,,,,,,6068a47f3cddf2e2c25a13c2,28,2022-02-12_13h17.19.220,lexical_decision_task_DD_L2,2021.2.3,Win32,60.03842459,,,,,,,,,,,,0.5405,1,,,,,,,,,,,,,,m,1,0.5405,,,,,,,,-0.332407399,0.418518517,0,0,0,,0,32,32,43,1,MOSQUE,LB,old,m,./images/MOSQUELB.png,,,,,,,,,,,,,,,,,,,,,,,,,,,,,,,,,,
,,,,,,,,,,,,,,,,,6068a47f3cddf2e2c25a13c2,28,2022-02-12_13h17.19.220,lexical_decision_task_DD_L2,2021.2.3,Win32,60.03842459,,,,,,,,,,,,0.6515,1,,,,,,,,,,,,,,z,1,0.6515,,,,,,,,-0.332407399,0.418518517,0,0,0,,0,33,33,103,1,FLORT,HB,old,z,./images/FLORTHB.png,,,,,,,,,,,,,,,,,,,,,,,,,,,,,,,,,,
,,,,,,,,,,,,,,,,,6068a47f3cddf2e2c25a13c2,28,2022-02-12_13h17.19.220,lexical_decision_task_DD_L2,2021.2.3,Win32,60.03842459,,,,,,,,,,,,0.6918,1,,,,,,,,,,,,,,m,1,0.6918,,,,,,,,-0.332407399,0.418518517,0,0,0,,0,34,34,70,1,URINE,LB,old,m,./images/URINELB.png,,,,,,,,,,,,,,,,,,,,,,,,,,,,,,,,,,
,,,,,,,,,,,,,,,,,6068a47f3cddf2e2c25a13c2,28,2022-02-12_13h17.19.220,lexical_decision_task_DD_L2,2021.2.3,Win32,60.03842459,,,,,,,,,,,,0.6294,1,,,,,,,,,,,,,,m,1,0.6294,,,,,,,,-0.332407399,0.418518517,0,0,0,,0,35,35,2,1,BEARD,C,old,m,./images/BEARD.png,,,,,,,,,,,,,,,,,,,,,,,,,,,,,,,,,,
,,,,,,,,,,,,,,,,,6068a47f3cddf2e2c25a13c2,28,2022-02-12_13h17.19.220,lexical_decision_task_DD_L2,2021.2.3,Win32,60.03842459,,,,,,,,,,,,0.5181,1,,,,,,,,,,,,,,m,1,0.5181,,,,,,,,-0.332407399,0.418518517,0,0,0,,0,36,36,36,1,THROAT,HB,old,m,./images/THROATHB.png,,,,,,,,,,,,,,,,,,,,,,,,,,,,,,,,,,
,,,,,,,,,,,,,,,,,6068a47f3cddf2e2c25a13c2,28,2022-02-12_13h17.19.220,lexical_decision_task_DD_L2,2021.2.3,Win32,60.03842459,,,,,,,,,,,,0.6006,1,,,,,,,,,,,,,,z,1,0.6006,,,,,,,,-0.332407399,0.418518517,0,0,0,,0,37,37,160,1,VEETS,HB,old,z,./images/VEETSHB.png,,,,,,,,,,,,,,,,,,,,,,,,,,,,,,,,,,
,,,,,,,,,,,,,,,,,6068a47f3cddf2e2c25a13c2,28,2022-02-12_13h17.19.220,lexical_decision_task_DD_L2,2021.2.3,Win32,60.03842459,,,,,,,,,,,,0.5718,1,,,,,,,,,,,,,,z,1,0.5718,,,,,,,,-0.332407399,0.418518517,0,0,0,,0,38,38,167,1,ZONET,LB,old,z,./images/ZONETLB.png,,,,,,,,,,,,,,,,,,,,,,,,,,,,,,,,,,
,,,,,,,,,,,,,,,,,6068a47f3cddf2e2c25a13c2,28,2022-02-12_13h17.19.220,lexical_decision_task_DD_L2,2021.2.3,Win32,60.03842459,,,,,,,,,,,,0.735,1,,,,,,,,,,,,,,m,1,0.735,,,,,,,,-0.332407399,0.418518517,0,0,0,,0,39,39,75,1,GRAIN,HB,old,m,./images/GRAINHB.png,,,,,,,,,,,,,,,,,,,,,,,,,,,,,,,,,,
,,,,,,,,,,,,,,,,,6068a47f3cddf2e2c25a13c2,28,2022-02-12_13h17.19.220,lexical_decision_task_DD_L2,2021.2.3,Win32,60.03842459,,,,,,,,,,,,0.6036,1,,,,,,,,,,,,,,z,1,0.6036,,,,,,,,-0.332407399,0.418518517,0,0,0,,0,40,40,132,1,SCIFF,C,old,z,./images/SCIFF.png,,,,,,,,,,,,,,,,,,,,,,,,,,,,,,,,,,
,,,,,,,,,,,,,,,,,6068a47f3cddf2e2c25a13c2,28,2022-02-12_13h17.19.220,lexical_decision_task_DD_L2,2021.2.3,Win32,60.03842459,,,,,,,,,,,,0.7096,1,,,,,,,,,,,,,,z,1,0.7096,,,,,,,,-0.332407399,0.418518517,0,0,0,space,0,41,41,133,1,POWDY,HB,old,z,./images/POWDYHB.png,11.3431,,,,,,,,,,,,,,,,,,,,,,,,,,,,,,,,,
,,,,,,,,,,,,,,,,,6068a47f3cddf2e2c25a13c2,28,2022-02-12_13h17.19.220,lexical_decision_task_DD_L2,2021.2.3,Win32,60.03842459,,,,,,,,,,,,0.5779,1,,,,,,,,,,,,,,z,1,0.5779,,,,,,,,-0.332407399,0.418518517,0,0,0,,0,42,42,113,1,LINEW,LB,old,z,./images/LINEWLB.png,,,,,,,,,,,,,,,,,,,,,,,,,,,,,,,,,,
,,,,,,,,,,,,,,,,,6068a47f3cddf2e2c25a13c2,28,2022-02-12_13h17.19.220,lexical_decision_task_DD_L2,2021.2.3,Win32,60.03842459,,,,,,,,,,,,0.5498,1,,,,,,,,,,,,,,m,1,0.5498,,,,,,,,-0.332407399,0.418518517,0,0,0,,0,43,43,25,1,WRIST,LB,old,m,./images/WRISTLB.png,,,,,,,,,,,,,,,,,,,,,,,,,,,,,,,,,,
,,,,,,,,,,,,,,,,,6068a47f3cddf2e2c25a13c2,28,2022-02-12_13h17.19.220,lexical_decision_task_DD_L2,2021.2.3,Win32,60.03842459,,,,,,,,,,,,0.9792,1,,,,,,,,,,,,,,z,1,0.9792,,,,,,,,-0.332407399,0.418518517,0,0,0,,0,44,44,85,1,CHULK,HB,old,z,./images/CHULKHB.png,,,,,,,,,,,,,,,,,,,,,,,,,,,,,,,,,,
,,,,,,,,,,,,,,,,,6068a47f3cddf2e2c25a13c2,28,2022-02-12_13h17.19.220,lexical_decision_task_DD_L2,2021.2.3,Win32,60.03842459,,,,,,,,,,,,0.6394,1,,,,,,,,,,,,,,z,1,0.6394,,,,,,,,-0.332407399,0.418518517,0,0,0,,0,45,45,161,1,BLAPS,LB,old,z,./images/BLAPSLB.png,,,,,,,,,,,,,,,,,,,,,,,,,,,,,,,,,,
,,,,,,,,,,,,,,,,,6068a47f3cddf2e2c25a13c2,28,2022-02-12_13h17.19.220,lexical_decision_task_DD_L2,2021.2.3,Win32,60.03842459,,,,,,,,,,,,0.5058,1,,,,,,,,,,,,,,m,1,0.5058,,,,,,,,-0.332407399,0.418518517,0,0,0,,0,46,46,73,1,SNACK,LB,old,m,./images/SNACKLB.png,,,,,,,,,,,,,,,,,,,,,,,,,,,,,,,,,,
,,,,,,,,,,,,,,,,,6068a47f3cddf2e2c25a13c2,28,2022-02-12_13h17.19.220,lexical_decision_task_DD_L2,2021.2.3,Win32,60.03842459,,,,,,,,,,,,0.5489,1,,,,,,,,,,,,,,z,1,0.5489,,,,,,,,-0.332407399,0.418518517,0,0,0,,0,47,47,99,1,BACKY,C,old,z,./images/BACKY.png,,,,,,,,,,,,,,,,,,,,,,,,,,,,,,,,,,
,,,,,,,,,,,,,,,,,6068a47f3cddf2e2c25a13c2,28,2022-02-12_13h17.19.220,lexical_decision_task_DD_L2,2021.2.3,Win32,60.03842459,,,,,,,,,,,,1.2315,1,,,,,,,,,,,,,,m,1,1.2315,,,,,,,,-0.332407399,0.418518517,0,0,0,,0,48,48,52,1,BANNER,LB,old,m,./images/BANNERLB.png,,,,,,,,,,,,,,,,,,,,,,,,,,,,,,,,,,
,,,,,,,,,,,,,,,,,6068a47f3cddf2e2c25a13c2,28,2022-02-12_13h17.19.220,lexical_decision_task_DD_L2,2021.2.3,Win32,60.03842459,,,,,,,,,,,,0.6458,1,,,,,,,,,,,,,,z,1,0.6458,,,,,,,,-0.332407399,0.418518517,0,0,0,,0,49,49,118,1,BAVEL,HB,old,z,./images/BAVELHB.png,,,,,,,,,,,,,,,,,,,,,,,,,,,,,,,,,,
,,,,,,,,,,,,,,,,,6068a47f3cddf2e2c25a13c2,28,2022-02-12_13h17.19.220,lexical_decision_task_DD_L2,2021.2.3,Win32,60.03842459,,,,,,,,,,,,0.8428,1,,,,,,,,,,,,,,z,1,0.8428,,,,,,,,-0.332407399,0.418518517,0,0,0,,0,50,50,109,1,BURGE,HB,old,z,./images/BURGEHB.png,,,,,,,,,,,,,,,,,,,,,,,,,,,,,,,,,,
,,,,,,,,,,,,,,,,,6068a47f3cddf2e2c25a13c2,28,2022-02-12_13h17.19.220,lexical_decision_task_DD_L2,2021.2.3,Win32,60.03842459,,,,,,,,,,,,0.5488,1,,,,,,,,,,,,,,m,1,0.5488,,,,,,,,-0.332407399,0.418518517,0,0,0,,0,51,51,59,1,BURIAL,C,old,m,./images/BURIAL.png,,,,,,,,,,,,,,,,,,,,,,,,,,,,,,,,,,
,,,,,,,,,,,,,,,,,6068a47f3cddf2e2c25a13c2,28,2022-02-12_13h17.19.220,lexical_decision_task_DD_L2,2021.2.3,Win32,60.03842459,,,,,,,,,,,,0.6099,1,,,,,,,,,,,,,,m,1,0.6099,,,,,,,,-0.332407399,0.418518517,0,0,0,,0,52,52,78,1,LITTER,HB,old,m,./images/LITTERHB.png,,,,,,,,,,,,,,,,,,,,,,,,,,,,,,,,,,
,,,,,,,,,,,,,,,,,6068a47f3cddf2e2c25a13c2,28,2022-02-12_13h17.19.220,lexical_decision_task_DD_L2,2021.2.3,Win32,60.03842459,,,,,,,,,,,,0.657,1,,,,,,,,,,,,,,z,1,0.657,,,,,,,,-0.332407399,0.418518517,0,0,0,,0,53,53,116,1,BALGY,LB,old,z,./images/BALGYLB.png,,,,,,,,,,,,,,,,,,,,,,,,,,,,,,,,,,
,,,,,,,,,,,,,,,,,6068a47f3cddf2e2c25a13c2,28,2022-02-12_13h17.19.220,lexical_decision_task_DD_L2,2021.2.3,Win32,60.03842459,,,,,,,,,,,,0.6311,1,,,,,,,,,,,,,,m,1,0.6311,,,,,,,,-0.332407399,0.418518517,0,0,0,,0,54,54,30,1,STORM,HB,old,m,./images/STORMHB.png,,,,,,,,,,,,,,,,,,,,,,,,,,,,,,,,,,
,,,,,,,,,,,,,,,,,6068a47f3cddf2e2c25a13c2,28,2022-02-12_13h17.19.220,lexical_decision_task_DD_L2,2021.2.3,Win32,60.03842459,,,,,,,,,,,,0.559,1,,,,,,,,,,,,,,m,1,0.559,,,,,,,,-0.332407399,0.418518517,0,0,0,,0,55,55,56,1,PACKET,C,old,m,./images/PACKET.png,,,,,,,,,,,,,,,,,,,,,,,,,,,,,,,,,,
,,,,,,,,,,,,,,,,,6068a47f3cddf2e2c25a13c2,28,2022-02-12_13h17.19.220,lexical_decision_task_DD_L2,2021.2.3,Win32,60.03842459,,,,,,,,,,,,0.6489,1,,,,,,,,,,,,,,m,1,0.6489,,,,,,,,-0.332407399,0.418518517,0,0,0,,0,56,56,14,1,PICKLE,C,old,m,./images/PICKLE.png,,,,,,,,,,,,,,,,,,,,,,,,,,,,,,,,,,
,,,,,,,,,,,,,,,,,6068a47f3cddf2e2c25a13c2,28,2022-02-12_13h17.19.220,lexical_decision_task_DD_L2,2021.2.3,Win32,60.03842459,,,,,,,,,,,,0.6562,1,,,,,,,,,,,,,,z,1,0.6562,,,,,,,,-0.332407399,0.418518517,0,0,0,,0,57,57,150,1,NOOLS,C,old,z,./images/NOOLS.png,,,,,,,,,,,,,,,,,,,,,,,,,,,,,,,,,,
,,,,,,,,,,,,,,,,,6068a47f3cddf2e2c25a13c2,28,2022-02-12_13h17.19.220,lexical_decision_task_DD_L2,2021.2.3,Win32,60.03842459,,,,,,,,,,,,1.1471,1,,,,,,,,,,,,,,z,1,1.1471,,,,,,,,-0.332407399,0.418518517,0,0,0,,0,58,58,91,1,SHENS,HB,old,z,./images/SHENSHB.png,,,,,,,,,,,,,,,,,,,,,,,,,,,,,,,,,,
,,,,,,,,,,,,,,,,,6068a47f3cddf2e2c25a13c2,28,2022-02-12_13h17.19.220,lexical_decision_task_DD_L2,2021.2.3,Win32,60.03842459,,,,,,,,,,,,1.1468,1,,,,,,,,,,,,,,m,1,1.1468,,,,,,,,-0.332407399,0.418518517,0,0,0,,0,59,59,57,1,MOOSE,HB,old,m,./images/MOOSEHB.png,,,,,,,,,,,,,,,,,,,,,,,,,,,,,,,,,,
,,,,,,,,,,,,,,,,,6068a47f3cddf2e2c25a13c2,28,2022-02-12_13h17.19.220,lexical_decision_task_DD_L2,2021.2.3,Win32,60.03842459,,,,,,,,,,,,0.7621,1,,,,,,,,,,,,,,z,1,0.7621,,,,,,,,-0.332407399,0.418518517,0,0,0,,0,60,60,137,1,JOOST,LB,old,z,./images/JOOSTLB.png,,,,,,,,,,,,,,,,,,,,,,,,,,,,,,,,,,
,,,,,,,,,,,,,,,,,6068a47f3cddf2e2c25a13c2,28,2022-02-12_13h17.19.220,lexical_decision_task_DD_L2,2021.2.3,Win32,60.03842459,,,,,,,,,,,,0.6939,1,,,,,,,,,,,,,,z,1,0.6939,,,,,,,,-0.332407399,0.418518517,0,0,0,,0,61,61,140,1,DOVET,LB,old,z,./images/DOVETLB.png,,,,,,,,,,,,,,,,,,,,,,,,,,,,,,,,,,
,,,,,,,,,,,,,,,,,6068a47f3cddf2e2c25a13c2,28,2022-02-12_13h17.19.220,lexical_decision_task_DD_L2,2021.2.3,Win32,60.03842459,,,,,,,,,,,,1.0824,1,,,,,,,,,,,,,,z,1,1.0824,,,,,,,,-0.332407399,0.418518517,0,0,0,,0,62,62,87,1,TRING,C,old,z,./images/TRING.png,,,,,,,,,,,,,,,,,,,,,,,,,,,,,,,,,,
,,,,,,,,,,,,,,,,,6068a47f3cddf2e2c25a13c2,28,2022-02-12_13h17.19.220,lexical_decision_task_DD_L2,2021.2.3,Win32,60.03842459,,,,,,,,,,,,0.5894,1,,,,,,,,,,,,,,m,1,0.5894,,,,,,,,-0.332407399,0.418518517,0,0,0,,0,63,63,28,1,FALCON,LB,old,m,./images/FALCONLB.png,,,,,,,,,,,,,,,,,,,,,,,,,,,,,,,,,,
,,,,,,,,,,,,,,,,,6068a47f3cddf2e2c25a13c2,28,2022-02-12_13h17.19.220,lexical_decision_task_DD_L2,2021.2.3,Win32,60.03842459,,,,,,,,,,,,0.4998,1,,,,,,,,,,,,,,m,1,0.4998,,,,,,,,-0.332407399,0.418518517,0,0,0,,0,64,64,65,1,FARMER,C,old,m,./images/FARMER.png,,,,,,,,,,,,,,,,,,,,,,,,,,,,,,,,,,
,,,,,,,,,,,,,,,,,6068a47f3cddf2e2c25a13c2,28,2022-02-12_13h17.19.220,lexical_decision_task_DD_L2,2021.2.3,Win32,60.03842459,,,,,,,,,,,,0.5637,1,,,,,,,,,,,,,,m,1,0.5637,,,,,,,,-0.332407399,0.418518517,0,0,0,,0,65,65,10,1,BELLY,LB,old,m,./images/BELLYLB.png,,,,,,,,,,,,,,,,,,,,,,,,,,,,,,,,,,
,,,,,,,,,,,,,,,,,6068a47f3cddf2e2c25a13c2,28,2022-02-12_13h17.19.220,lexical_decision_task_DD_L2,2021.2.3,Win32,60.03842459,,,,,,,,,,,,0.5074,1,,,,,,,,,,,,,,z,1,0.5074,,,,,,,,-0.332407399,0.418518517,0,0,0,,0,66,66,90,1,NEAST,C,old,z,./images/NEAST.png,,,,,,,,,,,,,,,,,,,,,,,,,,,,,,,,,,
,,,,,,,,,,,,,,,,,6068a47f3cddf2e2c25a13c2,28,2022-02-12_13h17.19.220,lexical_decision_task_DD_L2,2021.2.3,Win32,60.03842459,,,,,,,,,,,,0.642,1,,,,,,,,,,,,,,m,1,0.642,,,,,,,,-0.332407399,0.418518517,0,0,0,,0,67,67,9,1,RHINO,HB,old,m,./images/RHINOHB.png,,,,,,,,,,,,,,,,,,,,,,,,,,,,,,,,,,
,,,,,,,,,,,,,,,,,6068a47f3cddf2e2c25a13c2,28,2022-02-12_13h17.19.220,lexical_decision_task_DD_L2,2021.2.3,Win32,60.03842459,,,,,,,,,,,,0.5662,1,,,,,,,,,,,,,,z,1,0.5662,,,,,,,,-0.332407399,0.418518517,0,0,0,,0,68,68,123,1,SEDGE,C,old,z,./images/SEDGE.png,,,,,,,,,,,,,,,,,,,,,,,,,,,,,,,,,,
,,,,,,,,,,,,,,,,,6068a47f3cddf2e2c25a13c2,28,2022-02-12_13h17.19.220,lexical_decision_task_DD_L2,2021.2.3,Win32,60.03842459,,,,,,,,,,,,0.6897,1,,,,,,,,,,,,,,z,1,0.6897,,,,,,,,-0.332407399,0.418518517,0,0,0,,0,69,69,164,1,SGREW,LB,old,z,./images/SGREWLB.png,,,,,,,,,,,,,,,,,,,,,,,,,,,,,,,,,,
,,,,,,,,,,,,,,,,,6068a47f3cddf2e2c25a13c2,28,2022-02-12_13h17.19.220,lexical_decision_task_DD_L2,2021.2.3,Win32,60.03842459,,,,,,,,,,,,0.6731,1,,,,,,,,,,,,,,z,1,0.6731,,,,,,,,-0.332407399,0.418518517,0,0,0,,0,70,70,143,1,MONGS,LB,old,z,./images/MONGSLB.png,,,,,,,,,,,,,,,,,,,,,,,,,,,,,,,,,,
,,,,,,,,,,,,,,,,,6068a47f3cddf2e2c25a13c2,28,2022-02-12_13h17.19.220,lexical_decision_task_DD_L2,2021.2.3,Win32,60.03842459,,,,,,,,,,,,0.5368,1,,,,,,,,,,,,,,m,1,0.5368,,,,,,,,-0.332407399,0.418518517,0,0,0,,0,71,71,42,1,FOLDER,HB,old,m,./images/FOLDERHB.png,,,,,,,,,,,,,,,,,,,,,,,,,,,,,,,,,,
,,,,,,,,,,,,,,,,,6068a47f3cddf2e2c25a13c2,28,2022-02-12_13h17.19.220,lexical_decision_task_DD_L2,2021.2.3,Win32,60.03842459,,,,,,,,,,,,0.6573,1,,,,,,,,,,,,,,m,1,0.6573,,,,,,,,-0.332407399,0.418518517,0,0,0,,0,72,72,11,1,BONNET,C,old,m,./images/BONNET.png,,,,,,,,,,,,,,,,,,,,,,,,,,,,,,,,,,
,,,,,,,,,,,,,,,,,6068a47f3cddf2e2c25a13c2,28,2022-02-12_13h17.19.220,lexical_decision_task_DD_L2,2021.2.3,Win32,60.03842459,,,,,,,,,,,,0.806,1,,,,,,,,,,,,,,z,1,0.806,,,,,,,,-0.332407399,0.418518517,0,0,0,,0,73,73,145,1,LAMEL,HB,old,z,./images/LAMELHB.png,,,,,,,,,,,,,,,,,,,,,,,,,,,,,,,,,,
,,,,,,,,,,,,,,,,,6068a47f3cddf2e2c25a13c2,28,2022-02-12_13h17.19.220,lexical_decision_task_DD_L2,2021.2.3,Win32,60.03842459,,,,,,,,,,,,0.5393,1,,,,,,,,,,,,,,m,1,0.5393,,,,,,,,-0.332407399,0.418518517,0,0,0,,0,74,74,68,1,TORCH,C,old,m,./images/TORCH.png,,,,,,,,,,,,,,,,,,,,,,,,,,,,,,,,,,
,,,,,,,,,,,,,,,,,6068a47f3cddf2e2c25a13c2,28,2022-02-12_13h17.19.220,lexical_decision_task_DD_L2,2021.2.3,Win32,60.03842459,,,,,,,,,,,,0.4944,1,,,,,,,,,,,,,,m,1,0.4944,,,,,,,,-0.332407399,0.418518517,0,0,0,,0,75,75,67,1,SAILOR,LB,old,m,./images/SAILORLB.png,,,,,,,,,,,,,,,,,,,,,,,,,,,,,,,,,,
,,,,,,,,,,,,,,,,,6068a47f3cddf2e2c25a13c2,28,2022-02-12_13h17.19.220,lexical_decision_task_DD_L2,2021.2.3,Win32,60.03842459,,,,,,,,,,,,0.6073,1,,,,,,,,,,,,,,z,1,0.6073,,,,,,,,-0.332407399,0.418518517,0,0,0,,0,76,76,104,1,GITTY,LB,old,z,./images/GITTYLB.png,,,,,,,,,,,,,,,,,,,,,,,,,,,,,,,,,,
,,,,,,,,,,,,,,,,,6068a47f3cddf2e2c25a13c2,28,2022-02-12_13h17.19.220,lexical_decision_task_DD_L2,2021.2.3,Win32,60.03842459,,,,,,,,,,,,0.4479,1,,,,,,,,,,,,,,m,1,0.4479,,,,,,,,-0.332407399,0.418518517,0,0,0,,0,77,77,37,1,BIRTH,LB,old,m,./images/BIRTHLB.png,,,,,,,,,,,,,,,,,,,,,,,,,,,,,,,,,,
,,,,,,,,,,,,,,,,,6068a47f3cddf2e2c25a13c2,28,2022-02-12_13h17.19.220,lexical_decision_task_DD_L2,2021.2.3,Win32,60.03842459,,,,,,,,,,,,0.5249,1,,,,,,,,,,,,,,m,1,0.5249,,,,,,,,-0.332407399,0.418518517,0,0,0,,0,78,78,81,1,POODLE,HB,old,m,./images/POODLEHB.png,,,,,,,,,,,,,,,,,,,,,,,,,,,,,,,,,,
,,,,,,,,,,,,,,,,,6068a47f3cddf2e2c25a13c2,28,2022-02-12_13h17.19.220,lexical_decision_task_DD_L2,2021.2.3,Win32,60.03842459,,,,,,,,,,,,0.67,1,,,,,,,,,,,,,,z,1,0.67,,,,,,,,-0.332407399,0.418518517,0,0,0,,0,79,79,159,1,CUDDY,C,old,z,./images/CUDDY.png,,,,,,,,,,,,,,,,,,,,,,,,,,,,,,,,,,
,,,,,,,,,,,,,,,,,6068a47f3cddf2e2c25a13c2,28,2022-02-12_13h17.19.220,lexical_decision_task_DD_L2,2021.2.3,Win32,60.03842459,,,,,,,,,,,,0.4998,1,,,,,,,,,,,,,,z,1,0.4998,,,,,,,,-0.332407399,0.418518517,0,0,0,,0,80,80,126,1,GUELS,C,old,z,./images/GUELS.png,,,,,,,,,,,,,,,,,,,,,,,,,,,,,,,,,,
,,,,,,,,,,,,,,,,,6068a47f3cddf2e2c25a13c2,28,2022-02-12_13h17.19.220,lexical_decision_task_DD_L2,2021.2.3,Win32,60.03842459,,,,,,,,,,,,0.4585,1,,,,,,,,,,,,,,m,1,0.4585,,,,,,,,-0.332407399,0.418518517,0,0,0,,0,81,81,53,1,CARPET,C,old,m,./images/CARPET.png,,,,,,,,,,,,,,,,,,,,,,,,,,,,,,,,,,
,,,,,,,,,,,,,,,,,6068a47f3cddf2e2c25a13c2,28,2022-02-12_13h17.19.220,lexical_decision_task_DD_L2,2021.2.3,Win32,60.03842459,,,,,,,,,,,,0.9151,0,,,,,,,,,,,,,,m,0,0.9151,,,,,,,,-0.332407399,0.418518517,0,0,0,,0,82,82,166,1,SHORY,HB,old,z,./images/SHORYHB.png,,,,,,,,,,,,,,,,,,,,,,,,,,,,,,,,,,
,,,,,,,,,,,,,,,,,6068a47f3cddf2e2c25a13c2,28,2022-02-12_13h17.19.220,lexical_decision_task_DD_L2,2021.2.3,Win32,60.03842459,,,,,,,,,,,,0.892,1,,,,,,,,,,,,,,z,1,0.892,,,,,,,,-0.332407399,0.418518517,0,0,0,space,0,83,83,100,1,DRIBS,HB,old,z,./images/DRIBSHB.png,34.581,,,,,,,,,,,,,,,,,,,,,,,,,,,,,,,,,
,,,,,,,,,,,,,,,,,6068a47f3cddf2e2c25a13c2,28,2022-02-12_13h17.19.220,lexical_decision_task_DD_L2,2021.2.3,Win32,60.03842459,,,,,,,,,,,,1.7482,1,,,,,,,,,,,,,,z,1,1.7482,,,,,,,,-0.332407399,0.418518517,0,0,0,,0,84,84,157,1,INLER,HB,old,z,./images/INLERHB.png,,,,,,,,,,,,,,,,,,,,,,,,,,,,,,,,,,
,,,,,,,,,,,,,,,,,6068a47f3cddf2e2c25a13c2,28,2022-02-12_13h17.19.220,lexical_decision_task_DD_L2,2021.2.3,Win32,60.03842459,,,,,,,,,,,,0.6922,1,,,,,,,,,,,,,,z,1,0.6922,,,,,,,,-0.332407399,0.418518517,0,0,0,,0,85,85,138,1,PLICE,C,old,z,./images/PLICE.png,,,,,,,,,,,,,,,,,,,,,,,,,,,,,,,,,,
,,,,,,,,,,,,,,,,,6068a47f3cddf2e2c25a13c2,28,2022-02-12_13h17.19.220,lexical_decision_task_DD_L2,2021.2.3,Win32,60.03842459,,,,,,,,,,,,1.9397,1,,,,,,,,,,,,,,z,1,1.9397,,,,,,,,-0.332407399,0.418518517,0,0,0,,0,86,86,136,1,WERVE,HB,old,z,./images/WERVEHB.png,,,,,,,,,,,,,,,,,,,,,,,,,,,,,,,,,,
,,,,,,,,,,,,,,,,,6068a47f3cddf2e2c25a13c2,28,2022-02-12_13h17.19.220,lexical_decision_task_DD_L2,2021.2.3,Win32,60.03842459,,,,,,,,,,,,0.6568,1,,,,,,,,,,,,,,z,1,0.6568,,,,,,,,-0.332407399,0.418518517,0,0,0,,0,87,87,119,1,PAFER,LB,old,z,./images/PAFERLB.png,,,,,,,,,,,,,,,,,,,,,,,,,,,,,,,,,,
,,,,,,,,,,,,,,,,,6068a47f3cddf2e2c25a13c2,28,2022-02-12_13h17.19.220,lexical_decision_task_DD_L2,2021.2.3,Win32,60.03842459,,,,,,,,,,,,0.6175,1,,,,,,,,,,,,,,m,1,0.6175,,,,,,,,-0.332407399,0.418518517,0,0,0,,0,88,88,77,1,COUCH,C,old,m,./images/COUCH.png,,,,,,,,,,,,,,,,,,,,,,,,,,,,,,,,,,
,,,,,,,,,,,,,,,,,6068a47f3cddf2e2c25a13c2,28,2022-02-12_13h17.19.220,lexical_decision_task_DD_L2,2021.2.3,Win32,60.03842459,,,,,,,,,,,,0.5502,1,,,,,,,,,,,,,,z,1,0.5502,,,,,,,,-0.332407399,0.418518517,0,0,0,,0,89,89,93,1,SMONE,C,old,z,./images/SMONE.png,,,,,,,,,,,,,,,,,,,,,,,,,,,,,,,,,,
,,,,,,,,,,,,,,,,,6068a47f3cddf2e2c25a13c2,28,2022-02-12_13h17.19.220,lexical_decision_task_DD_L2,2021.2.3,Win32,60.03842459,,,,,,,,,,,,0.4826,1,,,,,,,,,,,,,,z,1,0.4826,,,,,,,,-0.332407399,0.418518517,0,0,0,,0,90,90,102,1,DULLE,C,old,z,./images/DULLE.png,,,,,,,,,,,,,,,,,,,,,,,,,,,,,,,,,,
,,,,,,,,,,,,,,,,,6068a47f3cddf2e2c25a13c2,28,2022-02-12_13h17.19.220,lexical_decision_task_DD_L2,2021.2.3,Win32,60.03842459,,,,,,,,,,,,0.5758,1,,,,,,,,,,,,,,z,1,0.5758,,,,,,,,-0.332407399,0.418518517,0,0,0,,0,91,91,120,1,RINED,C,old,z,./images/RINED.png,,,,,,,,,,,,,,,,,,,,,,,,,,,,,,,,,,
,,,,,,,,,,,,,,,,,6068a47f3cddf2e2c25a13c2,28,2022-02-12_13h17.19.220,lexical_decision_task_DD_L2,2021.2.3,Win32,60.03842459,,,,,,,,,,,,0.6582,1,,,,,,,,,,,,,,m,1,0.6582,,,,,,,,-0.332407399,0.418518517,0,0,0,,0,92,92,50,1,MALLET,C,old,m,./images/MALLET.png,,,,,,,,,,,,,,,,,,,,,,,,,,,,,,,,,,
,,,,,,,,,,,,,,,,,6068a47f3cddf2e2c25a13c2,28,2022-02-12_13h17.19.220,lexical_decision_task_DD_L2,2021.2.3,Win32,60.03842459,,,,,,,,,,,,0.7568,1,,,,,,,,,,,,,,m,1,0.7568,,,,,,,,-0.332407399,0.418518517,0,0,0,,0,93,93,79,1,CRUST,LB,old,m,./images/CRUSTLB.png,,,,,,,,,,,,,,,,,,,,,,,,,,,,,,,,,,
,,,,,,,,,,,,,,,,,6068a47f3cddf2e2c25a13c2,28,2022-02-12_13h17.19.220,lexical_decision_task_DD_L2,2021.2.3,Win32,60.03842459,,,,,,,,,,,,0.6386,1,,,,,,,,,,,,,,z,1,0.6386,,,,,,,,-0.332407399,0.418518517,0,0,0,,0,94,94,94,1,BLANS,HB,old,z,./images/BLANSHB.png,,,,,,,,,,,,,,,,,,,,,,,,,,,,,,,,,,
,,,,,,,,,,,,,,,,,6068a47f3cddf2e2c25a13c2,28,2022-02-12_13h17.19.220,lexical_decision_task_DD_L2,2021.2.3,Win32,60.03842459,,,,,,,,,,,,1.3424,1,,,,,,,,,,,,,,z,1,1.3424,,,,,,,,-0.332407399,0.418518517,0,0,0,,0,95,95,112,1,MYING,HB,old,z,./images/MYINGHB.png,,,,,,,,,,,,,,,,,,,,,,,,,,,,,,,,,,
,,,,,,,,,,,,,,,,,6068a47f3cddf2e2c25a13c2,28,2022-02-12_13h17.19.220,lexical_decision_task_DD_L2,2021.2.3,Win32,60.03842459,,,,,,,,,,,,0.6227,1,,,,,,,,,,,,,,z,1,0.6227,,,,,,,,-0.332407399,0.418518517,0,0,0,,0,96,96,125,1,MOOKY,LB,old,z,./images/MOOKYLB.png,,,,,,,,,,,,,,,,,,,,,,,,,,,,,,,,,,
,,,,,,,,,,,,,,,,,6068a47f3cddf2e2c25a13c2,28,2022-02-12_13h17.19.220,lexical_decision_task_DD_L2,2021.2.3,Win32,60.03842459,,,,,,,,,,,,1.1,1,,,,,,,,,,,,,,z,1,1.1,,,,,,,,-0.332407399,0.418518517,0,0,0,,0,97,97,127,1,NINDY,HB,old,z,./images/NINDYHB.png,,,,,,,,,,,,,,,,,,,,,,,,,,,,,,,,,,
,,,,,,,,,,,,,,,,,6068a47f3cddf2e2c25a13c2,28,2022-02-12_13h17.19.220,lexical_decision_task_DD_L2,2021.2.3,Win32,60.03842459,,,,,,,,,,,,0.6193,1,,,,,,,,,,,,,,z,1,0.6193,,,,,,,,-0.332407399,0.418518517,0,0,0,,0,98,98,135,1,JOODY,C,old,z,./images/JOODY.png,,,,,,,,,,,,,,,,,,,,,,,,,,,,,,,,,,
,,,,,,,,,,,,,,,,,6068a47f3cddf2e2c25a13c2,28,2022-02-12_13h17.19.220,lexical_decision_task_DD_L2,2021.2.3,Win32,60.03842459,,,,,,,,,,,,0.5171,1,,,,,,,,,,,,,,m,1,0.5171,,,,,,,,-0.332407399,0.418518517,0,0,0,,0,99,99,32,1,BARREL,C,old,m,./images/BARREL.png,,,,,,,,,,,,,,,,,,,,,,,,,,,,,,,,,,
,,,,,,,,,,,,,,,,,6068a47f3cddf2e2c25a13c2,28,2022-02-12_13h17.19.220,lexical_decision_task_DD_L2,2021.2.3,Win32,60.03842459,,,,,,,,,,,,0.6728,1,,,,,,,,,,,,,,z,1,0.6728,,,,,,,,-0.332407399,0.418518517,0,0,0,,0,100,100,152,1,FRAIN,LB,old,z,./images/FRAINLB.png,,,,,,,,,,,,,,,,,,,,,,,,,,,,,,,,,,
,,,,,,,,,,,,,,,,,6068a47f3cddf2e2c25a13c2,28,2022-02-12_13h17.19.220,lexical_decision_task_DD_L2,2021.2.3,Win32,60.03842459,,,,,,,,,,,,1.1113,1,,,,,,,,,,,,,,m,1,1.1113,,,,,,,,-0.332407399,0.418518517,0,0,0,,0,101,101,24,1,SCREW,HB,old,m,./images/SCREWHB.png,,,,,,,,,,,,,,,,,,,,,,,,,,,,,,,,,,
,,,,,,,,,,,,,,,,,6068a47f3cddf2e2c25a13c2,28,2022-02-12_13h17.19.220,lexical_decision_task_DD_L2,2021.2.3,Win32,60.03842459,,,,,,,,,,,,0.6783,1,,,,,,,,,,,,,,m,1,0.6783,,,,,,,,-0.332407399,0.418518517,0,0,0,,0,102,102,66,1,SWEAT,HB,old,m,./images/SWEATHB.png,,,,,,,,,,,,,,,,,,,,,,,,,,,,,,,,,,
,,,,,,,,,,,,,,,,,6068a47f3cddf2e2c25a13c2,28,2022-02-12_13h17.19.220,lexical_decision_task_DD_L2,2021.2.3,Win32,60.03842459,,,,,,,,,,,,2.125,0,,,,,,,,,,,,,,z,0,2.125,,,,,,,,-0.332407399,0.418518517,0,0,0,,0,103,103,33,1,MAGGOT,HB,old,m,./images/MAGGOTHB.png,,,,,,,,,,,,,,,,,,,,,,,,,,,,,,,,,,
,,,,,,,,,,,,,,,,,6068a47f3cddf2e2c25a13c2,28,2022-02-12_13h17.19.220,lexical_decision_task_DD_L2,2021.2.3,Win32,60.03842459,,,,,,,,,,,,0.9139,1,,,,,,,,,,,,,,m,1,0.9139,,,,,,,,-0.332407399,0.418518517,0,0,0,,0,104,104,54,1,TRIPOD,HB,old,m,./images/TRIPODHB.png,,,,,,,,,,,,,,,,,,,,,,,,,,,,,,,,,,
,,,,,,,,,,,,,,,,,6068a47f3cddf2e2c25a13c2,28,2022-02-12_13h17.19.220,lexical_decision_task_DD_L2,2021.2.3,Win32,60.03842459,,,,,,,,,,,,2.1447,1,,,,,,,,,,,,,,z,1,2.1447,,,,,,,,-0.332407399,0.418518517,0,0,0,,0,105,105,151,1,TINKY,HB,old,z,./images/TINKYHB.png,,,,,,,,,,,,,,,,,,,,,,,,,,,,,,,,,,
,,,,,,,,,,,,,,,,,6068a47f3cddf2e2c25a13c2,28,2022-02-12_13h17.19.220,lexical_decision_task_DD_L2,2021.2.3,Win32,60.03842459,,,,,,,,,,,,0.7955,1,,,,,,,,,,,,,,m,1,0.7955,,,,,,,,-0.332407399,0.418518517,0,0,0,,0,106,106,60,1,TWINS,HB,old,m,./images/TWINSHB.png,,,,,,,,,,,,,,,,,,,,,,,,,,,,,,,,,,
,,,,,,,,,,,,,,,,,6068a47f3cddf2e2c25a13c2,28,2022-02-12_13h17.19.220,lexical_decision_task_DD_L2,2021.2.3,Win32,60.03842459,,,,,,,,,,,,0.6466,1,,,,,,,,,,,,,,m,1,0.6466,,,,,,,,-0.332407399,0.418518517,0,0,0,,0,107,107,64,1,JELLY,LB,old,m,./images/JELLYLB.png,,,,,,,,,,,,,,,,,,,,,,,,,,,,,,,,,,
,,,,,,,,,,,,,,,,,6068a47f3cddf2e2c25a13c2,28,2022-02-12_13h17.19.220,lexical_decision_task_DD_L2,2021.2.3,Win32,60.03842459,,,,,,,,,,,,0.5837,1,,,,,,,,,,,,,,z,1,0.5837,,,,,,,,-0.332407399,0.418518517,0,0,0,,0,108,108,144,1,NAIRY,C,old,z,./images/NAIRY.png,,,,,,,,,,,,,,,,,,,,,,,,,,,,,,,,,,
,,,,,,,,,,,,,,,,,6068a47f3cddf2e2c25a13c2,28,2022-02-12_13h17.19.220,lexical_decision_task_DD_L2,2021.2.3,Win32,60.03842459,,,,,,,,,,,,0.7046,1,,,,,,,,,,,,,,m,1,0.7046,,,,,,,,-0.332407399,0.418518517,0,0,0,,0,109,109,19,1,DOUGH,LB,old,m,./images/DOUGHLB.png,,,,,,,,,,,,,,,,,,,,,,,,,,,,,,,,,,
,,,,,,,,,,,,,,,,,6068a47f3cddf2e2c25a13c2,28,2022-02-12_13h17.19.220,lexical_decision_task_DD_L2,2021.2.3,Win32,60.03842459,,,,,,,,,,,,0.5202,1,,,,,,,,,,,,,,m,1,0.5202,,,,,,,,-0.332407399,0.418518517,0,0,0,,0,110,110,5,1,PASTA,C,old,m,./images/PASTA.png,,,,,,,,,,,,,,,,,,,,,,,,,,,,,,,,,,
,,,,,,,,,,,,,,,,,6068a47f3cddf2e2c25a13c2,28,2022-02-12_13h17.19.220,lexical_decision_task_DD_L2,2021.2.3,Win32,60.03842459,,,,,,,,,,,,0.5721,1,,,,,,,,,,,,,,m,1,0.5721,,,,,,,,-0.332407399,0.418518517,0,0,0,,0,111,111,15,1,GREASE,HB,old,m,./images/GREASEHB.png,,,,,,,,,,,,,,,,,,,,,,,,,,,,,,,,,,
,,,,,,,,,,,,,,,,,6068a47f3cddf2e2c25a13c2,28,2022-02-12_13h17.19.220,lexical_decision_task_DD_L2,2021.2.3,Win32,60.03842459,,,,,,,,,,,,0.8333,1,,,,,,,,,,,,,,z,1,0.8333,,,,,,,,-0.332407399,0.418518517,0,0,0,,0,112,112,117,1,STEEG,C,old,z,./images/STEEG.png,,,,,,,,,,,,,,,,,,,,,,,,,,,,,,,,,,
,,,,,,,,,,,,,,,,,6068a47f3cddf2e2c25a13c2,28,2022-02-12_13h17.19.220,lexical_decision_task_DD_L2,2021.2.3,Win32,60.03842459,,,,,,,,,,,,0.6233,1,,,,,,,,,,,,,,m,1,0.6233,,,,,,,,-0.332407399,0.418518517,0,0,0,,0,113,113,12,1,SHORE,HB,old,m,./images/SHOREHB.png,,,,,,,,,,,,,,,,,,,,,,,,,,,,,,,,,,
,,,,,,,,,,,,,,,,,6068a47f3cddf2e2c25a13c2,28,2022-02-12_13h17.19.220,lexical_decision_task_DD_L2,2021.2.3,Win32,60.03842459,,,,,,,,,,,,0.6643,1,,,,,,,,,,,,,,m,1,0.6643,,,,,,,,-0.332407399,0.418518517,0,0,0,,0,114,114,55,1,MUFFIN,LB,old,m,./images/MUFFINLB.png,,,,,,,,,,,,,,,,,,,,,,,,,,,,,,,,,,
,,,,,,,,,,,,,,,,,6068a47f3cddf2e2c25a13c2,28,2022-02-12_13h17.19.220,lexical_decision_task_DD_L2,2021.2.3,Win32,60.03842459,,,,,,,,,,,,0.6339,1,,,,,,,,,,,,,,m,1,0.6339,,,,,,,,-0.332407399,0.418518517,0,0,0,,0,115,115,47,1,BERRY,C,old,m,./images/BERRY.png,,,,,,,,,,,,,,,,,,,,,,,,,,,,,,,,,,
,,,,,,,,,,,,,,,,,6068a47f3cddf2e2c25a13c2,28,2022-02-12_13h17.19.220,lexical_decision_task_DD_L2,2021.2.3,Win32,60.03842459,,,,,,,,,,,,0.5598,1,,,,,,,,,,,,,,m,1,0.5598,,,,,,,,-0.332407399,0.418518517,0,0,0,,0,116,116,20,1,CRADLE,C,old,m,./images/CRADLE.png,,,,,,,,,,,,,,,,,,,,,,,,,,,,,,,,,,
,,,,,,,,,,,,,,,,,6068a47f3cddf2e2c25a13c2,28,2022-02-12_13h17.19.220,lexical_decision_task_DD_L2,2021.2.3,Win32,60.03842459,,,,,,,,,,,,1.3062,1,,,,,,,,,,,,,,z,1,1.3062,,,,,,,,-0.332407399,0.418518517,0,0,0,,0,117,117,97,1,CHIDS,HB,old,z,./images/CHIDSHB.png,,,,,,,,,,,,,,,,,,,,,,,,,,,,,,,,,,
,,,,,,,,,,,,,,,,,6068a47f3cddf2e2c25a13c2,28,2022-02-12_13h17.19.220,lexical_decision_task_DD_L2,2021.2.3,Win32,60.03842459,,,,,,,,,,,,0.6592,1,,,,,,,,,,,,,,m,1,0.6592,,,,,,,,-0.332407399,0.418518517,0,0,0,,0,118,118,82,1,SUNSET,LB,old,m,./images/SUNSETLB.png,,,,,,,,,,,,,,,,,,,,,,,,,,,,,,,,,,
,,,,,,,,,,,,,,,,,6068a47f3cddf2e2c25a13c2,28,2022-02-12_13h17.19.220,lexical_decision_task_DD_L2,2021.2.3,Win32,60.03842459,,,,,,,,,,,,1.1078,1,,,,,,,,,,,,,,z,1,1.1078,,,,,,,,-0.332407399,0.418518517,0,0,0,,0,119,119,88,1,GLUSH,HB,old,z,./images/GLUSHHB.png,,,,,,,,,,,,,,,,,,,,,,,,,,,,,,,,,,
,,,,,,,,,,,,,,,,,6068a47f3cddf2e2c25a13c2,28,2022-02-12_13h17.19.220,lexical_decision_task_DD_L2,2021.2.3,Win32,60.03842459,,,,,,,,,,,,0.6724,1,,,,,,,,,,,,,,m,1,0.6724,,,,,,,,-0.332407399,0.418518517,0,0,0,,0,120,120,27,1,ATTIC,HB,old,m,./images/ATTICHB.png,,,,,,,,,,,,,,,,,,,,,,,,,,,,,,,,,,
,,,,,,,,,,,,,,,,,6068a47f3cddf2e2c25a13c2,28,2022-02-12_13h17.19.220,lexical_decision_task_DD_L2,2021.2.3,Win32,60.03842459,,,,,,,,,,,,1.4423,0,,,,,,,,,,,,,,z,0,1.4423,,,,,,,,-0.332407399,0.418518517,0,0,0,,0,121,121,16,1,PENCE,LB,old,m,./images/PENCELB.png,,,,,,,,,,,,,,,,,,,,,,,,,,,,,,,,,,
,,,,,,,,,,,,,,,,,6068a47f3cddf2e2c25a13c2,28,2022-02-12_13h17.19.220,lexical_decision_task_DD_L2,2021.2.3,Win32,60.03842459,,,,,,,,,,,,1.2052,1,,,,,,,,,,,,,,m,1,1.2052,,,,,,,,-0.332407399,0.418518517,0,0,0,,0,122,122,18,1,JAGUAR,HB,old,m,./images/JAGUARHB.png,,,,,,,,,,,,,,,,,,,,,,,,,,,,,,,,,,
,,,,,,,,,,,,,,,,,6068a47f3cddf2e2c25a13c2,28,2022-02-12_13h17.19.220,lexical_decision_task_DD_L2,2021.2.3,Win32,60.03842459,,,,,,,,,,,,0.6231,1,,,,,,,,,,,,,,m,1,0.6231,,,,,,,,-0.332407399,0.418518517,0,0,0,,0,123,123,26,1,SMOKER,C,old,m,./images/SMOKER.png,,,,,,,,,,,,,,,,,,,,,,,,,,,,,,,,,,
,,,,,,,,,,,,,,,,,6068a47f3cddf2e2c25a13c2,28,2022-02-12_13h17.19.220,lexical_decision_task_DD_L2,2021.2.3,Win32,60.03842459,,,,,,,,,,,,1.6916,1,,,,,,,,,,,,,,m,1,1.6916,,,,,,,,-0.332407399,0.418518517,0,0,0,,0,124,124,4,1,MUSCLE,LB,old,m,./images/MUSCLELB.png,,,,,,,,,,,,,,,,,,,,,,,,,,,,,,,,,,
,,,,,,,,,,,,,,,,,6068a47f3cddf2e2c25a13c2,28,2022-02-12_13h17.19.220,lexical_decision_task_DD_L2,2021.2.3,Win32,60.03842459,,,,,,,,,,,,0.741,1,,,,,,,,,,,,,,z,1,0.741,,,,,,,,-0.332407399,0.418518517,0,0,0,space,0,125,125,162,1,LEICH,C,old,z,./images/LEICH.png,10.1801,,,,,,,,,,,,,,,,,,,,,,,,,,,,,,,,,
,,,,,,,,,,,,,,,,,6068a47f3cddf2e2c25a13c2,28,2022-02-12_13h17.19.220,lexical_decision_task_DD_L2,2021.2.3,Win32,60.03842459,,,,,,,,,,,,0.5235,1,,,,,,,,,,,,,,m,1,0.5235,,,,,,,,-0.332407399,0.418518517,0,0,0,,0,126,126,22,1,MELON,LB,old,m,./images/MELONLB.png,,,,,,,,,,,,,,,,,,,,,,,,,,,,,,,,,,
,,,,,,,,,,,,,,,,,6068a47f3cddf2e2c25a13c2,28,2022-02-12_13h17.19.220,lexical_decision_task_DD_L2,2021.2.3,Win32,60.03842459,,,,,,,,,,,,0.4724,1,,,,,,,,,,,,,,m,1,0.4724,,,,,,,,-0.332407399,0.418518517,0,0,0,,0,127,127,35,1,PEACH,C,old,m,./images/PEACH.png,,,,,,,,,,,,,,,,,,,,,,,,,,,,,,,,,,
,,,,,,,,,,,,,,,,,6068a47f3cddf2e2c25a13c2,28,2022-02-12_13h17.19.220,lexical_decision_task_DD_L2,2021.2.3,Win32,60.03842459,,,,,,,,,,,,0.5986,1,,,,,,,,,,,,,,z,1,0.5986,,,,,,,,-0.332407399,0.418518517,0,0,0,,0,128,128,101,1,GLEET,LB,old,z,./images/GLEETLB.png,,,,,,,,,,,,,,,,,,,,,,,,,,,,,,,,,,
,,,,,,,,,,,,,,,,,6068a47f3cddf2e2c25a13c2,28,2022-02-12_13h17.19.220,lexical_decision_task_DD_L2,2021.2.3,Win32,60.03842459,,,,,,,,,,,,0.9284,1,,,,,,,,,,,,,,z,1,0.9284,,,,,,,,-0.332407399,0.418518517,0,0,0,,0,129,129,106,1,CLUMS,HB,old,z,./images/CLUMSHB.png,,,,,,,,,,,,,,,,,,,,,,,,,,,,,,,,,,
,,,,,,,,,,,,,,,,,6068a47f3cddf2e2c25a13c2,28,2022-02-12_13h17.19.220,lexical_decision_task_DD_L2,2021.2.3,Win32,60.03842459,,,,,,,,,,,,0.6902,1,,,,,,,,,,,,,,z,1,0.6902,,,,,,,,-0.332407399,0.418518517,0,0,0,,0,130,130,146,1,MOOST,LB,old,z,./images/MOOSTLB.png,,,,,,,,,,,,,,,,,,,,,,,,,,,,,,,,,,
,,,,,,,,,,,,,,,,,6068a47f3cddf2e2c25a13c2,28,2022-02-12_13h17.19.220,lexical_decision_task_DD_L2,2021.2.3,Win32,60.03842459,,,,,,,,,,,,0.7564,0,,,,,,,,,,,,,,m,0,0.7564,,,,,,,,-0.332407399,0.418518517,0,0,0,,0,131,131,128,1,GRIFT,LB,old,z,./images/GRIFTLB.png,,,,,,,,,,,,,,,,,,,,,,,,,,,,,,,,,,
,,,,,,,,,,,,,,,,,6068a47f3cddf2e2c25a13c2,28,2022-02-12_13h17.19.220,lexical_decision_task_DD_L2,2021.2.3,Win32,60.03842459,,,,,,,,,,,,0.5583,1,,,,,,,,,,,,,,z,1,0.5583,,,,,,,,-0.332407399,0.418518517,0,0,0,,0,132,132,156,1,HIXES,C,old,z,./images/HIXES.png,,,,,,,,,,,,,,,,,,,,,,,,,,,,,,,,,,
,,,,,,,,,,,,,,,,,6068a47f3cddf2e2c25a13c2,28,2022-02-12_13h17.19.220,lexical_decision_task_DD_L2,2021.2.3,Win32,60.03842459,,,,,,,,,,,,0.5944,1,,,,,,,,,,,,,,m,1,0.5944,,,,,,,,-0.332407399,0.418518517,0,0,0,,0,133,133,3,1,FINGER,HB,old,m,./images/FINGERHB.png,,,,,,,,,,,,,,,,,,,,,,,,,,,,,,,,,,
,,,,,,,,,,,,,,,,,6068a47f3cddf2e2c25a13c2,28,2022-02-12_13h17.19.220,lexical_decision_task_DD_L2,2021.2.3,Win32,60.03842459,,,,,,,,,,,,0.5939,1,,,,,,,,,,,,,,m,1,0.5939,,,,,,,,-0.332407399,0.418518517,0,0,0,,0,134,134,23,1,WALRUS,C,old,m,./images/WALRUS.png,,,,,,,,,,,,,,,,,,,,,,,,,,,,,,,,,,
,,,,,,,,,,,,,,,,,6068a47f3cddf2e2c25a13c2,28,2022-02-12_13h17.19.220,lexical_decision_task_DD_L2,2021.2.3,Win32,60.03842459,,,,,,,,,,,,0.5788,1,,,,,,,,,,,,,,z,1,0.5788,,,,,,,,-0.332407399,0.418518517,0,0,0,,0,135,135,131,1,NACES,LB,old,z,./images/NACESLB.png,,,,,,,,,,,,,,,,,,,,,,,,,,,,,,,,,,
,,,,,,,,,,,,,,,,,6068a47f3cddf2e2c25a13c2,28,2022-02-12_13h17.19.220,lexical_decision_task_DD_L2,2021.2.3,Win32,60.03842459,,,,,,,,,,,,0.5632,1,,,,,,,,,,,,,,m,1,0.5632,,,,,,,,-0.332407399,0.418518517,0,0,0,,0,136,136,76,1,INFANT,LB,old,m,./images/INFANTLB.png,,,,,,,,,,,,,,,,,,,,,,,,,,,,,,,,,,
,,,,,,,,,,,,,,,,,6068a47f3cddf2e2c25a13c2,28,2022-02-12_13h17.19.220,lexical_decision_task_DD_L2,2021.2.3,Win32,60.03842459,,,,,,,,,,,,0.5376,1,,,,,,,,,,,,,,m,1,0.5376,,,,,,,,-0.332407399,0.418518517,0,0,0,,0,137,137,71,1,PIMPLE,C,old,m,./images/PIMPLE.png,,,,,,,,,,,,,,,,,,,,,,,,,,,,,,,,,,
,,,,,,,,,,,,,,,,,6068a47f3cddf2e2c25a13c2,28,2022-02-12_13h17.19.220,lexical_decision_task_DD_L2,2021.2.3,Win32,60.03842459,,,,,,,,,,,,0.5841,1,,,,,,,,,,,,,,z,1,0.5841,,,,,,,,-0.332407399,0.418518517,0,0,0,,0,138,138,108,1,GRUET,C,old,z,./images/GRUET.png,,,,,,,,,,,,,,,,,,,,,,,,,,,,,,,,,,
,,,,,,,,,,,,,,,,,6068a47f3cddf2e2c25a13c2,28,2022-02-12_13h17.19.220,lexical_decision_task_DD_L2,2021.2.3,Win32,60.03842459,,,,,,,,,,,,0.6553,1,,,,,,,,,,,,,,m,1,0.6553,,,,,,,,-0.332407399,0.418518517,0,0,0,,0,139,139,80,1,WEASEL,C,old,m,./images/WEASEL.png,,,,,,,,,,,,,,,,,,,,,,,,,,,,,,,,,,
,,,,,,,,,,,,,,,,,6068a47f3cddf2e2c25a13c2,28,2022-02-12_13h17.19.220,lexical_decision_task_DD_L2,2021.2.3,Win32,60.03842459,,,,,,,,,,,,0.4868,1,,,,,,,,,,,,,,z,1,0.4868,,,,,,,,-0.332407399,0.418518517,0,0,0,,0,140,140,147,1,ZOLES,C,old,z,./images/ZOLES.png,,,,,,,,,,,,,,,,,,,,,,,,,,,,,,,,,,
,,,,,,,,,,,,,,,,,6068a47f3cddf2e2c25a13c2,28,2022-02-12_13h17.19.220,lexical_decision_task_DD_L2,2021.2.3,Win32,60.03842459,,,,,,,,,,,,1.1237,1,,,,,,,,,,,,,,z,1,1.1237,,,,,,,,-0.332407399,0.418518517,0,0,0,,0,141,141,124,1,TUNCH,HB,old,z,./images/TUNCHHB.png,,,,,,,,,,,,,,,,,,,,,,,,,,,,,,,,,,
,,,,,,,,,,,,,,,,,6068a47f3cddf2e2c25a13c2,28,2022-02-12_13h17.19.220,lexical_decision_task_DD_L2,2021.2.3,Win32,60.03842459,,,,,,,,,,,,0.6634,1,,,,,,,,,,,,,,m,1,0.6634,,,,,,,,-0.332407399,0.418518517,0,0,0,,0,142,142,46,1,PEARL,LB,old,m,./images/PEARLLB.png,,,,,,,,,,,,,,,,,,,,,,,,,,,,,,,,,,
,,,,,,,,,,,,,,,,,6068a47f3cddf2e2c25a13c2,28,2022-02-12_13h17.19.220,lexical_decision_task_DD_L2,2021.2.3,Win32,60.03842459,,,,,,,,,,,,0.5379,1,,,,,,,,,,,,,,z,1,0.5379,,,,,,,,-0.332407399,0.418518517,0,0,0,,0,143,143,89,1,DRIEK,LB,old,z,./images/DRIEKLB.png,,,,,,,,,,,,,,,,,,,,,,,,,,,,,,,,,,
,,,,,,,,,,,,,,,,,6068a47f3cddf2e2c25a13c2,28,2022-02-12_13h17.19.220,lexical_decision_task_DD_L2,2021.2.3,Win32,60.03842459,,,,,,,,,,,,0.5911,1,,,,,,,,,,,,,,z,1,0.5911,,,,,,,,-0.332407399,0.418518517,0,0,0,,0,144,144,165,1,TROWN,C,old,z,./images/TROWN.png,,,,,,,,,,,,,,,,,,,,,,,,,,,,,,,,,,
,,,,,,,,,,,,,,,,,6068a47f3cddf2e2c25a13c2,28,2022-02-12_13h17.19.220,lexical_decision_task_DD_L2,2021.2.3,Win32,60.03842459,,,,,,,,,,,,0.6224,1,,,,,,,,,,,,,,m,1,0.6224,,,,,,,,-0.332407399,0.418518517,0,0,0,,0,145,145,49,1,DRUMS,LB,old,m,./images/DRUMSLB.png,,,,,,,,,,,,,,,,,,,,,,,,,,,,,,,,,,
,,,,,,,,,,,,,,,,,6068a47f3cddf2e2c25a13c2,28,2022-02-12_13h17.19.220,lexical_decision_task_DD_L2,2021.2.3,Win32,60.03842459,,,,,,,,,,,,0.8895,1,,,,,,,,,,,,,,m,1,0.8895,,,,,,,,-0.332407399,0.418518517,0,0,0,,0,146,146,7,1,PAINT,LB,old,m,./images/PAINTLB.png,,,,,,,,,,,,,,,,,,,,,,,,,,,,,,,,,,
,,,,,,,,,,,,,,,,,6068a47f3cddf2e2c25a13c2,28,2022-02-12_13h17.19.220,lexical_decision_task_DD_L2,2021.2.3,Win32,60.03842459,,,,,,,,,,,,0.9144,1,,,,,,,,,,,,,,m,1,0.9144,,,,,,,,-0.332407399,0.418518517,0,0,0,,0,147,147,21,1,KIDNEY,HB,old,m,./images/KIDNEYHB.png,,,,,,,,,,,,,,,,,,,,,,,,,,,,,,,,,,
,,,,,,,,,,,,,,,,,6068a47f3cddf2e2c25a13c2,28,2022-02-12_13h17.19.220,lexical_decision_task_DD_L2,2021.2.3,Win32,60.03842459,,,,,,,,,,,,1.826,1,,,,,,,,,,,,,,m,1,1.826,,,,,,,,-0.332407399,0.418518517,0,0,0,,0,148,148,69,1,COOKER,HB,old,m,./images/COOKERHB.png,,,,,,,,,,,,,,,,,,,,,,,,,,,,,,,,,,
,,,,,,,,,,,,,,,,,6068a47f3cddf2e2c25a13c2,28,2022-02-12_13h17.19.220,lexical_decision_task_DD_L2,2021.2.3,Win32,60.03842459,,,,,,,,,,,,0.6226,1,,,,,,,,,,,,,,z,1,0.6226,,,,,,,,-0.332407399,0.418518517,0,0,0,,0,149,149,98,1,BAMPS,LB,old,z,./images/BAMPSLB.png,,,,,,,,,,,,,,,,,,,,,,,,,,,,,,,,,,
,,,,,,,,,,,,,,,,,6068a47f3cddf2e2c25a13c2,28,2022-02-12_13h17.19.220,lexical_decision_task_DD_L2,2021.2.3,Win32,60.03842459,,,,,,,,,,,,1.2303,1,,,,,,,,,,,,,,z,1,1.2303,,,,,,,,-0.332407399,0.418518517,0,0,0,,0,150,150,139,1,BLEAR,HB,old,z,./images/BLEARHB.png,,,,,,,,,,,,,,,,,,,,,,,,,,,,,,,,,,
,,,,,,,,,,,,,,,,,6068a47f3cddf2e2c25a13c2,28,2022-02-12_13h17.19.220,lexical_decision_task_DD_L2,2021.2.3,Win32,60.03842459,,,,,,,,,,,,0.6582,1,,,,,,,,,,,,,,m,1,0.6582,,,,,,,,-0.332407399,0.418518517,0,0,0,,0,151,151,58,1,BABOON,LB,old,m,./images/BABOONLB.png,,,,,,,,,,,,,,,,,,,,,,,,,,,,,,,,,,
,,,,,,,,,,,,,,,,,6068a47f3cddf2e2c25a13c2,28,2022-02-12_13h17.19.220,lexical_decision_task_DD_L2,2021.2.3,Win32,60.03842459,,,,,,,,,,,,0.5903,1,,,,,,,,,,,,,,m,1,0.5903,,,,,,,,-0.332407399,0.418518517,0,0,0,,0,152,152,41,1,STRING,C,old,m,./images/STRING.png,,,,,,,,,,,,,,,,,,,,,,,,,,,,,,,,,,
,,,,,,,,,,,,,,,,,6068a47f3cddf2e2c25a13c2,28,2022-02-12_13h17.19.220,lexical_decision_task_DD_L2,2021.2.3,Win32,60.03842459,,,,,,,,,,,,0.5547,1,,,,,,,,,,,,,,z,1,0.5547,,,,,,,,-0.332407399,0.418518517,0,0,0,,0,153,153,111,1,HOSSE,C,old,z,./images/HOSSE.png,,,,,,,,,,,,,,,,,,,,,,,,,,,,,,,,,,
,,,,,,,,,,,,,,,,,6068a47f3cddf2e2c25a13c2,28,2022-02-12_13h17.19.220,lexical_decision_task_DD_L2,2021.2.3,Win32,60.03842459,,,,,,,,,,,,0.6078,1,,,,,,,,,,,,,,m,1,0.6078,,,,,,,,-0.332407399,0.418518517,0,0,0,,0,154,154,44,1,LIZARD,C,old,m,./images/LIZARD.png,,,,,,,,,,,,,,,,,,,,,,,,,,,,,,,,,,
,,,,,,,,,,,,,,,,,6068a47f3cddf2e2c25a13c2,28,2022-02-12_13h17.19.220,lexical_decision_task_DD_L2,2021.2.3,Win32,60.03842459,,,,,,,,,,,,0.5206,1,,,,,,,,,,,,,,m,1,0.5206,,,,,,,,-0.332407399,0.418518517,0,0,0,,0,155,155,34,1,CANYON,LB,old,m,./images/CANYONLB.png,,,,,,,,,,,,,,,,,,,,,,,,,,,,,,,,,,
,,,,,,,,,,,,,,,,,6068a47f3cddf2e2c25a13c2,28,2022-02-12_13h17.19.220,lexical_decision_task_DD_L2,2021.2.3,Win32,60.03842459,,,,,,,,,,,,0.5961,1,,,,,,,,,,,,,,z,1,0.5961,,,,,,,,-0.332407399,0.418518517,0,0,0,,0,156,156,155,1,CANGY,LB,old,z,./images/CANGYLB.png,,,,,,,,,,,,,,,,,,,,,,,,,,,,,,,,,,
,,,,,,,,,,,,,,,,,6068a47f3cddf2e2c25a13c2,28,2022-02-12_13h17.19.220,lexical_decision_task_DD_L2,2021.2.3,Win32,60.03842459,,,,,,,,,,,,1.712,1,,,,,,,,,,,,,,z,1,1.712,,,,,,,,-0.332407399,0.418518517,0,0,0,,0,157,157,115,1,MAWNS,HB,old,z,./images/MAWNSHB.png,,,,,,,,,,,,,,,,,,,,,,,,,,,,,,,,,,
,,,,,,,,,,,,,,,,,6068a47f3cddf2e2c25a13c2,28,2022-02-12_13h17.19.220,lexical_decision_task_DD_L2,2021.2.3,Win32,60.03842459,,,,,,,,,,,,2.0162,1,,,,,,,,,,,,,,z,1,2.0162,,,,,,,,-0.332407399,0.418518517,0,0,0,,0,158,158,121,1,CEERS,HB,old,z,./images/CEERSHB.png,,,,,,,,,,,,,,,,,,,,,,,,,,,,,,,,,,
,,,,,,,,,,,,,,,,,6068a47f3cddf2e2c25a13c2,28,2022-02-12_13h17.19.220,lexical_decision_task_DD_L2,2021.2.3,Win32,60.03842459,,,,,,,,,,,,0.7168,1,,,,,,,,,,,,,,z,1,0.7168,,,,,,,,-0.332407399,0.418518517,0,0,0,,0,159,159,148,1,JOMS,HB,old,z,./images/JOMSHB.png,,,,,,,,,,,,,,,,,,,,,,,,,,,,,,,,,,
,,,,,,,,,,,,,,,,,6068a47f3cddf2e2c25a13c2,28,2022-02-12_13h17.19.220,lexical_decision_task_DD_L2,2021.2.3,Win32,60.03842459,,,,,,,,,,,,1.9557,1,,,,,,,,,,,,,,z,1,1.9557,,,,,,,,-0.332407399,0.418518517,0,0,0,,0,160,160,130,1,CRILL,HB,old,z,./images/CRILLHB.png,,,,,,,,,,,,,,,,,,,,,,,,,,,,,,,,,,
,,,,,,,,,,,,,,,,,6068a47f3cddf2e2c25a13c2,28,2022-02-12_13h17.19.220,lexical_decision_task_DD_L2,2021.2.3,Win32,60.03842459,,,,,,,,,,,,0.6397,1,,,,,,,,,,,,,,m,1,0.6397,,,,,,,,-0.332407399,0.418518517,0,0,0,,0,161,161,40,1,SWING,LB,old,m,./images/SWINGLB.png,,,,,,,,,,,,,,,,,,,,,,,,,,,,,,,,,,
,,,,,,,,,,,,,,,,,6068a47f3cddf2e2c25a13c2,28,2022-02-12_13h17.19.220,lexical_decision_task_DD_L2,2021.2.3,Win32,60.03842459,,,,,,,,,,,,1.2564,1,,,,,,,,,,,,,,z,1,1.2564,,,,,,,,-0.332407399,0.418518517,0,0,0,,0,162,162,153,1,CLUPS,C,old,z,./images/CLUPS.png,,,,,,,,,,,,,,,,,,,,,,,,,,,,,,,,,,
,,,,,,,,,,,,,,,,,6068a47f3cddf2e2c25a13c2,28,2022-02-12_13h17.19.220,lexical_decision_task_DD_L2,2021.2.3,Win32,60.03842459,,,,,,,,,,,,0.6993,1,,,,,,,,,,,,,,z,1,0.6993,,,,,,,,-0.332407399,0.418518517,0,0,0,,0,163,163,105,1,MOKER,C,old,z,./images/MOKER.png,,,,,,,,,,,,,,,,,,,,,,,,,,,,,,,,,,
,,,,,,,,,,,,,,,,,6068a47f3cddf2e2c25a13c2,28,2022-02-12_13h17.19.220,lexical_decision_task_DD_L2,2021.2.3,Win32,60.03842459,,,,,,,,,,,,1.023,1,,,,,,,,,,,,,,z,1,1.023,,,,,,,,-0.332407399,0.418518517,0,0,0,,0,164,164,95,1,HANTY,LB,old,z,./images/HANTYLB.png,,,,,,,,,,,,,,,,,,,,,,,,,,,,,,,,,,
,,,,,,,,,,,,,,,,,6068a47f3cddf2e2c25a13c2,28,2022-02-12_13h17.19.220,lexical_decision_task_DD_L2,2021.2.3,Win32,60.03842459,,,,,,,,,,,,0.9222,1,,,,,,,,,,,,,,z,1,0.9222,,,,,,,,-0.332407399,0.418518517,0,0,0,,0,165,165,92,1,PAIMS,LB,old,z,./images/PAIMSLB.png,,,,,,,,,,,,,,,,,,,,,,,,,,,,,,,,,,
,,,,,,,,,,,,,,,,,6068a47f3cddf2e2c25a13c2,28,2022-02-12_13h17.19.220,lexical_decision_task_DD_L2,2021.2.3,Win32,60.03842459,,,,,,,,,,,,1.0902,1,,,,,,,,,,,,,,z,1,1.0902,,,,,,,,-0.332407399,0.418518517,0,0,0,,0,166,166,142,1,PLASK,HB,old,z,./images/PLASKHB.png,,,,,,,,,,,,,,,,,,,,,,,,,,,,,,,,,,
,,,,,,,,,,,,,,,,,6068a47f3cddf2e2c25a13c2,28,2022-02-12_13h17.19.220,lexical_decision_task_DD_L2,2021.2.3,Win32,60.03842459,,,,,,,,,,,,1.481,1,,,,,,,,,,,,,,z,1,1.481,,,,,,,,-0.332407399,0.418518517,0,0,0,,0,167,167,154,1,THINT,HB,old,z,./images/THINTHB.png,,,,,,,,,,,,,,,,,,,,,,,,,,,,,,,,,,
,,,,,,,,,,,,,,,,,6068a47f3cddf2e2c25a13c2,28,2022-02-12_13h17.19.220,lexical_decision_task_DD_L2,2021.2.3,Win32,60.03842459,,,,,,,,,,,,,,,,,,,,,,,,,,,,,,,,,,,,,,,,,,,,,,,,,How likely will it be that you will recognize the words presented slighly blurred on a scale of 0 (not likely) to 100 (most likely)?,,,,,0.011111181,-0.438888903,1,0,0,jol_adv,6,13.9288,0,0,0,1,1,,,,,,,,,,,,,,,,,,,,
,,,,,,,,,,,,,,,,,6068a47f3cddf2e2c25a13c2,28,2022-02-12_13h17.19.220,lexical_decision_task_DD_L2,2021.2.3,Win32,60.03842459,,,,,,,,,,,,,,,,,,,,,,,,,,,,,,,,,,,,,,,,,,,,,,,,,How likely will it be that you will recognize the words presented very blurred on a scale of 0 (not likely) to 100 (most likely)?,,,,,,,,,,,4,15.7679,0,1,1,2,1,,,,,,,,,,,,,,,,,,,,
,,,,,,,,,,,,,,,,,6068a47f3cddf2e2c25a13c2,28,2022-02-12_13h17.19.220,lexical_decision_task_DD_L2,2021.2.3,Win32,60.03842459,,,,,,,,,,,,,,,,,,,,,,,,,,,,,,,,,,,,,,,,,,,,,,,,,How likely will it be that you will recognize the words presented clearly on a scale of 0 (not likely) to 100 (most likely)?,,,,,,,,,,,6,6.3899,0,2,2,0,1,,,,,,,,,,,,,,,,,,,,
space,0.497222243,-0.199074084,0,0,0,,,,,,,1,test,"In the next phase you will be presented with the words from the the first phase. Your job is to decide whether you remember seeing the word or not. If you remember seeing the word press ""old"" or type ""m"". If you do not remember seeing the word press ""new"" or type ""z"". Please press the space bar or click on continue to begin. ",,,6068a47f3cddf2e2c25a13c2,28,2022-02-12_13h17.19.220,lexical_decision_task_DD_L2,2021.2.3,Win32,60.03842459,12.3605,,,,,,,,,,,,,,,,,,,,,,,,,,,,,,,,,,,,,,,,,,,,,,,,,,,,,,,,,,,,,,,,,,0,0,0,0,1,,,,,,,,,,,,,,,
,-0.007407338,-0.411111125,1,0,0,instr_done_button,,,,,,1,test,"In the next phase you will be presented with the words from the the first phase. Your job is to decide whether you remember seeing the word or not. If you remember seeing the word press ""old"" or type ""m"". If you do not remember seeing the word press ""new"" or type ""z"". Please press the space bar or click on continue to begin. ",,,6068a47f3cddf2e2c25a13c2,28,2022-02-12_13h17.19.220,lexical_decision_task_DD_L2,2021.2.3,Win32,60.03842459,,,,,,,,,,,,,,,,,,,,,,,,,,,,,,,,,,,,,,,,,,,,,,,,,,,,,,,,,,,,,,,,,,,1,0,1,0,1,,,,,,,,,,,,,,,
,-0.007407338,-0.411111125,1,0,0,instr_done_button,,,,,,1,test,"In the next phase you will be presented with the words from the the first phase. Your job is to decide whether you remember seeing the word or not. If you remember seeing the word press ""old"" or type ""m"". If you do not remember seeing the word press ""new"" or type ""z"". Please press the space bar or click on continue to begin. ",,,6068a47f3cddf2e2c25a13c2,28,2022-02-12_13h17.19.220,lexical_decision_task_DD_L2,2021.2.3,Win32,60.03842459,,,,,,,,,,,,,,,,,,,,,,,,,,,,,,,,,,,,,,,,,,,,,,,,,,,,,,,,,,,,,,,,,,,2,0,2,0,1,,,,,,,,,,,,,,,
space,0.468518539,0.042592586,0,0,0,,,,,,,1,test,"In the next phase you will be presented with the words from the the first phase. Your job is to decide whether you remember seeing the word or not. If you remember seeing the word press ""old"" or type ""m"". If you do not remember seeing the word press ""new"" or type ""z"". Please press the space bar or click on continue to begin. ",,,6068a47f3cddf2e2c25a13c2,28,2022-02-12_13h17.19.220,lexical_decision_task_DD_L2,2021.2.3,Win32,60.03842459,7.0495,,,,,,,,,,,,,,,,,,,,,,,,,,,,,,,,,,,,,,,,,,,,,,,,,,,,,,,,,,,,,,,,,,3,0,3,0,1,,,,,,,,,,,,,,,
space,0.468518539,0.042592586,0,0,0,,,,,,,1,test,"In the next phase you will be presented with the words from the the first phase. Your job is to decide whether you remember seeing the word or not. If you remember seeing the word press ""old"" or type ""m"". If you do not remember seeing the word press ""new"" or type ""z"". Please press the space bar or click on continue to begin. ",,,6068a47f3cddf2e2c25a13c2,28,2022-02-12_13h17.19.220,lexical_decision_task_DD_L2,2021.2.3,Win32,60.03842459,15.1528,,,,,,,,,,,,,,,,,,,,,,,,,,,,,,,,,,,,,,,,,,,,,,,,,,,,,,,,,,,,,,,,,,4,0,4,0,1,,,,,,,,,,,,,,,
,,,,,,,,,,,,,,,,,6068a47f3cddf2e2c25a13c2,28,2022-02-12_13h17.19.220,lexical_decision_task_DD_L2,2021.2.3,Win32,60.03842459,,,,,,,,,,,,1.0413,1,,,,,,,,,,,,,,,,,,,,,,,,0.468518539,0.042592586,0,0,0,,,,,,,POODLE,HB,m,y,./images/POODLEHB.png,,,,,,,,,,,,,,,,,,,,m,1,1.0413,,,,,,,,0,0,0,81,1
,,,,,,,,,,,,,,,,,6068a47f3cddf2e2c25a13c2,28,2022-02-12_13h17.19.220,lexical_decision_task_DD_L2,2021.2.3,Win32,60.03842459,,,,,,,,,,,,1.5098,0,,,,,,,,,,,,,,,,,,,,,,,,0.468518539,0.042592586,0,0,0,,,,,,,DRUMS,LB,m,y,./images/DRUMSLB.png,,,,,,,,,,,,,,,,,,,,z,0,1.5098,,,,,,,,0,1,1,49,1
,,,,,,,,,,,,,,,,,6068a47f3cddf2e2c25a13c2,28,2022-02-12_13h17.19.220,lexical_decision_task_DD_L2,2021.2.3,Win32,60.03842459,,,,,,,,,,,,0.5841,1,,,,,,,,,,,,,,,,,,,,,,,,0.468518539,0.042592586,0,0,0,,,,,,,MIRROR,HB,m,y,./images/MIRRORHB.png,,,,,,,,,,,,,,,,,,,,m,1,0.5841,,,,,,,,0,2,2,63,1
,,,,,,,,,,,,,,,,,6068a47f3cddf2e2c25a13c2,28,2022-02-12_13h17.19.220,lexical_decision_task_DD_L2,2021.2.3,Win32,60.03842459,,,,,,,,,,,,0.6064,1,,,,,,,,,,,,,,,,,,,,,,,,0.468518539,0.042592586,0,0,0,,,,,,,DOUGH,LB,m,y,./images/DOUGHLB.png,,,,,,,,,,,,,,,,,,,,m,1,0.6064,,,,,,,,0,3,3,19,1
,,,,,,,,,,,,,,,,,6068a47f3cddf2e2c25a13c2,28,2022-02-12_13h17.19.220,lexical_decision_task_DD_L2,2021.2.3,Win32,60.03842459,,,,,,,,,,,,1.0504,1,,,,,,,,,,,,,,,,,,,,,,,,0.468518539,0.042592586,0,0,0,,,,,,,BLOKE,HB,z,y,./images/BLOKEHB.png,,,,,,,,,,,,,,,,,,,,z,1,1.0504,,,,,,,,0,4,4,96,1
,,,,,,,,,,,,,,,,,6068a47f3cddf2e2c25a13c2,28,2022-02-12_13h17.19.220,lexical_decision_task_DD_L2,2021.2.3,Win32,60.03842459,,,,,,,,,,,,0.8728,1,,,,,,,,,,,,,,,,,,,,,,,,0.468518539,0.042592586,0,0,0,,,,,,,SHIELD,HB,z,y,./images/SHIELDHB.png,,,,,,,,,,,,,,,,,,,,z,1,0.8728,,,,,,,,0,5,5,132,1
,,,,,,,,,,,,,,,,,6068a47f3cddf2e2c25a13c2,28,2022-02-12_13h17.19.220,lexical_decision_task_DD_L2,2021.2.3,Win32,60.03842459,,,,,,,,,,,,0.8114,1,,,,,,,,,,,,,,,,,,,,,,,,0.468518539,0.042592586,0,0,0,,,,,,,CEMENT,C,m,y,./images/CEMENT.png,,,,,,,,,,,,,,,,,,,,m,1,0.8114,,,,,,,,0,6,6,74,1
,,,,,,,,,,,,,,,,,6068a47f3cddf2e2c25a13c2,28,2022-02-12_13h17.19.220,lexical_decision_task_DD_L2,2021.2.3,Win32,60.03842459,,,,,,,,,,,,0.6719,1,,,,,,,,,,,,,,,,,,,,,,,,0.468518539,0.042592586,0,0,0,,,,,,,BUBBLE,C,z,y,./images/BUBBLE.png,,,,,,,,,,,,,,,,,,,,z,1,0.6719,,,,,,,,0,7,7,155,1
,,,,,,,,,,,,,,,,,6068a47f3cddf2e2c25a13c2,28,2022-02-12_13h17.19.220,lexical_decision_task_DD_L2,2021.2.3,Win32,60.03842459,,,,,,,,,,,,1.0404,1,,,,,,,,,,,,,,,,,,,,,,,,0.468518539,0.042592586,0,0,0,,,,,,,WHISKY,C,z,y,./images/WHISKY.png,,,,,,,,,,,,,,,,,,,,z,1,1.0404,,,,,,,,0,8,8,167,1
,,,,,,,,,,,,,,,,,6068a47f3cddf2e2c25a13c2,28,2022-02-12_13h17.19.220,lexical_decision_task_DD_L2,2021.2.3,Win32,60.03842459,,,,,,,,,,,,1.01,1,,,,,,,,,,,,,,,,,,,,,,,,0.468518539,0.042592586,0,0,0,,,,,,,HAMMER,HB,z,y,./images/HAMMERHB.png,,,,,,,,,,,,,,,,,,,,z,1,1.01,,,,,,,,0,9,9,159,1
,,,,,,,,,,,,,,,,,6068a47f3cddf2e2c25a13c2,28,2022-02-12_13h17.19.220,lexical_decision_task_DD_L2,2021.2.3,Win32,60.03842459,,,,,,,,,,,,0.8347,1,,,,,,,,,,,,,,,,,,,,,,,,0.468518539,0.042592586,0,0,0,,,,,,,SNAKE,LB,z,y,./images/SNAKELB.png,,,,,,,,,,,,,,,,,,,,z,1,0.8347,,,,,,,,0,10,10,124,1
,,,,,,,,,,,,,,,,,6068a47f3cddf2e2c25a13c2,28,2022-02-12_13h17.19.220,lexical_decision_task_DD_L2,2021.2.3,Win32,60.03842459,,,,,,,,,,,,0.6912,1,,,,,,,,,,,,,,,,,,,,,,,,0.468518539,0.042592586,0,0,0,,,,,,,WHEEL,C,z,y,./images/WHEEL.png,,,,,,,,,,,,,,,,,,,,z,1,0.6912,,,,,,,,0,11,11,161,1
,,,,,,,,,,,,,,,,,6068a47f3cddf2e2c25a13c2,28,2022-02-12_13h17.19.220,lexical_decision_task_DD_L2,2021.2.3,Win32,60.03842459,,,,,,,,,,,,1.3672,1,,,,,,,,,,,,,,,,,,,,,,,,0.468518539,0.042592586,0,0,0,,,,,,,SHORE,HB,m,y,./images/SHOREHB.png,,,,,,,,,,,,,,,,,,,,m,1,1.3672,,,,,,,,0,12,12,12,1
,,,,,,,,,,,,,,,,,6068a47f3cddf2e2c25a13c2,28,2022-02-12_13h17.19.220,lexical_decision_task_DD_L2,2021.2.3,Win32,60.03842459,,,,,,,,,,,,0.9517,1,,,,,,,,,,,,,,,,,,,,,,,,0.468518539,0.042592586,0,0,0,,,,,,,BOILER,HB,z,y,./images/BOILERHB.png,,,,,,,,,,,,,,,,,,,,z,1,0.9517,,,,,,,,0,13,13,120,1
,,,,,,,,,,,,,,,,,6068a47f3cddf2e2c25a13c2,28,2022-02-12_13h17.19.220,lexical_decision_task_DD_L2,2021.2.3,Win32,60.03842459,,,,,,,,,,,,0.6119,1,,,,,,,,,,,,,,,,,,,,,,,,0.468518539,0.042592586,0,0,0,,,,,,,SUNSET,LB,m,y,./images/SUNSETLB.png,,,,,,,,,,,,,,,,,,,,m,1,0.6119,,,,,,,,0,14,14,82,1
,,,,,,,,,,,,,,,,,6068a47f3cddf2e2c25a13c2,28,2022-02-12_13h17.19.220,lexical_decision_task_DD_L2,2021.2.3,Win32,60.03842459,,,,,,,,,,,,0.8065,0,,,,,,,,,,,,,,,,,,,,,,,,0.468518539,0.042592586,0,0,0,,,,,,,BASKET,C,z,y,./images/BASKET.png,,,,,,,,,,,,,,,,,,,,m,0,0.8065,,,,,,,,0,15,15,128,1
,,,,,,,,,,,,,,,,,6068a47f3cddf2e2c25a13c2,28,2022-02-12_13h17.19.220,lexical_decision_task_DD_L2,2021.2.3,Win32,60.03842459,,,,,,,,,,,,0.7337,1,,,,,,,,,,,,,,,,,,,,,,,,0.468518539,0.042592586,0,0,0,,,,,,,PLANET,C,z,y,./images/PLANET.png,,,,,,,,,,,,,,,,,,,,z,1,0.7337,,,,,,,,0,16,16,164,1
,,,,,,,,,,,,,,,,,6068a47f3cddf2e2c25a13c2,28,2022-02-12_13h17.19.220,lexical_decision_task_DD_L2,2021.2.3,Win32,60.03842459,,,,,,,,,,,,1.1855,1,,,,,,,,,,,,,,,,,,,,,,,,0.468518539,0.042592586,0,0,0,,,,,,,BAKER,HB,z,y,./images/BAKERHB.png,,,,,,,,,,,,,,,,,,,,z,1,1.1855,,,,,,,,0,17,17,147,1
,,,,,,,,,,,,,,,,,6068a47f3cddf2e2c25a13c2,28,2022-02-12_13h17.19.220,lexical_decision_task_DD_L2,2021.2.3,Win32,60.03842459,,,,,,,,,,,,0.9036,1,,,,,,,,,,,,,,,,,,,,,,,,0.468518539,0.042592586,0,0,0,,,,,,,BEARD,C,m,y,./images/BEARD.png,,,,,,,,,,,,,,,,,,,,m,1,0.9036,,,,,,,,0,18,18,2,1
,,,,,,,,,,,,,,,,,6068a47f3cddf2e2c25a13c2,28,2022-02-12_13h17.19.220,lexical_decision_task_DD_L2,2021.2.3,Win32,60.03842459,,,,,,,,,,,,1.0169,1,,,,,,,,,,,,,,,,,,,,,,,,0.468518539,0.042592586,0,0,0,,,,,,,BROOM,HB,z,y,./images/BROOMHB.png,,,,,,,,,,,,,,,,,,,,z,1,1.0169,,,,,,,,0,19,19,162,1
,,,,,,,,,,,,,,,,,6068a47f3cddf2e2c25a13c2,28,2022-02-12_13h17.19.220,lexical_decision_task_DD_L2,2021.2.3,Win32,60.03842459,,,,,,,,,,,,1.6349,1,,,,,,,,,,,,,,,,,,,,,,,,0.468518539,0.042592586,0,0,0,,,,,,,FOLDER,HB,m,y,./images/FOLDERHB.png,,,,,,,,,,,,,,,,,,,,m,1,1.6349,,,,,,,,0,20,20,42,1
,,,,,,,,,,,,,,,,,6068a47f3cddf2e2c25a13c2,28,2022-02-12_13h17.19.220,lexical_decision_task_DD_L2,2021.2.3,Win32,60.03842459,,,,,,,,,,,,0.651,1,,,,,,,,,,,,,,,,,,,,,,,,0.468518539,0.042592586,0,0,0,,,,,,,THROAT,HB,m,y,./images/THROATHB.png,,,,,,,,,,,,,,,,,,,,m,1,0.651,,,,,,,,0,21,21,36,1
,,,,,,,,,,,,,,,,,6068a47f3cddf2e2c25a13c2,28,2022-02-12_13h17.19.220,lexical_decision_task_DD_L2,2021.2.3,Win32,60.03842459,,,,,,,,,,,,0.7752,1,,,,,,,,,,,,,,,,,,,,,,,,0.468518539,0.042592586,0,0,0,,,,,,,SAUNA,HB,z,y,./images/SAUNAHB.png,,,,,,,,,,,,,,,,,,,,z,1,0.7752,,,,,,,,0,22,22,117,1
,,,,,,,,,,,,,,,,,6068a47f3cddf2e2c25a13c2,28,2022-02-12_13h17.19.220,lexical_decision_task_DD_L2,2021.2.3,Win32,60.03842459,,,,,,,,,,,,0.623,1,,,,,,,,,,,,,,,,,,,,,,,,0.468518539,0.042592586,0,0,0,,,,,,,ARROW,HB,z,y,./images/ARROWHB.png,,,,,,,,,,,,,,,,,,,,z,1,0.623,,,,,,,,0,23,23,153,1
,,,,,,,,,,,,,,,,,6068a47f3cddf2e2c25a13c2,28,2022-02-12_13h17.19.220,lexical_decision_task_DD_L2,2021.2.3,Win32,60.03842459,,,,,,,,,,,,0.9122,1,,,,,,,,,,,,,,,,,,,,,,,,0.468518539,0.042592586,0,0,0,,,,,,,CHAIN,HB,z,y,./images/CHAINHB.png,,,,,,,,,,,,,,,,,,,,z,1,0.9122,,,,,,,,0,24,24,126,1
,,,,,,,,,,,,,,,,,6068a47f3cddf2e2c25a13c2,28,2022-02-12_13h17.19.220,lexical_decision_task_DD_L2,2021.2.3,Win32,60.03842459,,,,,,,,,,,,0.5762,1,,,,,,,,,,,,,,,,,,,,,,,,0.468518539,0.042592586,0,0,0,,,,,,,CARPET,C,m,y,./images/CARPET.png,,,,,,,,,,,,,,,,,,,,m,1,0.5762,,,,,,,,0,25,25,53,1
,,,,,,,,,,,,,,,,,6068a47f3cddf2e2c25a13c2,28,2022-02-12_13h17.19.220,lexical_decision_task_DD_L2,2021.2.3,Win32,60.03842459,,,,,,,,,,,,0.7122,1,,,,,,,,,,,,,,,,,,,,,,,,0.468518539,0.042592586,0,0,0,,,,,,,LAGOON,C,z,y,./images/LAGOON.png,,,,,,,,,,,,,,,,,,,,z,1,0.7122,,,,,,,,0,26,26,131,1
,,,,,,,,,,,,,,,,,6068a47f3cddf2e2c25a13c2,28,2022-02-12_13h17.19.220,lexical_decision_task_DD_L2,2021.2.3,Win32,60.03842459,,,,,,,,,,,,1.9673,1,,,,,,,,,,,,,,,,,,,,,,,,0.468518539,0.042592586,0,0,0,,,,,,,CHALK,LB,z,y,./images/CHALKLB.png,,,,,,,,,,,,,,,,,,,,z,1,1.9673,,,,,,,,0,27,27,109,1
,,,,,,,,,,,,,,,,,6068a47f3cddf2e2c25a13c2,28,2022-02-12_13h17.19.220,lexical_decision_task_DD_L2,2021.2.3,Win32,60.03842459,,,,,,,,,,,,0.8341,1,,,,,,,,,,,,,,,,,,,,,,,,0.468518539,0.042592586,0,0,0,,,,,,,GLOVE,LB,z,y,./images/GLOVELB.png,,,,,,,,,,,,,,,,,,,,z,1,0.8341,,,,,,,,0,28,28,157,1
,,,,,,,,,,,,,,,,,6068a47f3cddf2e2c25a13c2,28,2022-02-12_13h17.19.220,lexical_decision_task_DD_L2,2021.2.3,Win32,60.03842459,,,,,,,,,,,,0.6397,1,,,,,,,,,,,,,,,,,,,,,,,,0.468518539,0.042592586,0,0,0,,,,,,,WALRUS,C,m,y,./images/WALRUS.png,,,,,,,,,,,,,,,,,,,,m,1,0.6397,,,,,,,,0,29,29,23,1
,,,,,,,,,,,,,,,,,6068a47f3cddf2e2c25a13c2,28,2022-02-12_13h17.19.220,lexical_decision_task_DD_L2,2021.2.3,Win32,60.03842459,,,,,,,,,,,,0.6174,1,,,,,,,,,,,,,,,,,,,,,,,,0.468518539,0.042592586,0,0,0,,,,,,,BARREL,C,m,y,./images/BARREL.png,,,,,,,,,,,,,,,,,,,,m,1,0.6174,,,,,,,,0,30,30,32,1
,,,,,,,,,,,,,,,,,6068a47f3cddf2e2c25a13c2,28,2022-02-12_13h17.19.220,lexical_decision_task_DD_L2,2021.2.3,Win32,60.03842459,,,,,,,,,,,,0.768,1,,,,,,,,,,,,,,,,,,,,,,,,0.468518539,0.042592586,0,0,0,,,,,,,PARADE,C,z,y,./images/PARADE.png,,,,,,,,,,,,,,,,,,,,z,1,0.768,,,,,,,,0,31,31,101,1
,,,,,,,,,,,,,,,,,6068a47f3cddf2e2c25a13c2,28,2022-02-12_13h17.19.220,lexical_decision_task_DD_L2,2021.2.3,Win32,60.03842459,,,,,,,,,,,,0.6628,1,,,,,,,,,,,,,,,,,,,,,,,,0.468518539,0.042592586,0,0,0,,,,,,,GRAIN,HB,m,y,./images/GRAINHB.png,,,,,,,,,,,,,,,,,,,,m,1,0.6628,,,,,,,,0,32,32,75,1
,,,,,,,,,,,,,,,,,6068a47f3cddf2e2c25a13c2,28,2022-02-12_13h17.19.220,lexical_decision_task_DD_L2,2021.2.3,Win32,60.03842459,,,,,,,,,,,,0.6697,1,,,,,,,,,,,,,,,,,,,,,,,,0.468518539,0.042592586,0,0,0,,,,,,,MUMMY,LB,z,y,./images/MUMMYLB.png,,,,,,,,,,,,,,,,,,,,z,1,0.6697,,,,,,,,0,33,33,130,1
,,,,,,,,,,,,,,,,,6068a47f3cddf2e2c25a13c2,28,2022-02-12_13h17.19.220,lexical_decision_task_DD_L2,2021.2.3,Win32,60.03842459,,,,,,,,,,,,0.6999,1,,,,,,,,,,,,,,,,,,,,,,,,0.468518539,0.042592586,0,0,0,,,,,,,PEBBLE,LB,z,y,./images/PEBBLELB.png,,,,,,,,,,,,,,,,,,,,z,1,0.6999,,,,,,,,0,34,34,166,1
,,,,,,,,,,,,,,,,,6068a47f3cddf2e2c25a13c2,28,2022-02-12_13h17.19.220,lexical_decision_task_DD_L2,2021.2.3,Win32,60.03842459,,,,,,,,,,,,0.7546,1,,,,,,,,,,,,,,,,,,,,,,,,0.468518539,0.042592586,0,0,0,,,,,,,MALLET,C,m,y,./images/MALLET.png,,,,,,,,,,,,,,,,,,,,m,1,0.7546,,,,,,,,0,35,35,50,1
,,,,,,,,,,,,,,,,,6068a47f3cddf2e2c25a13c2,28,2022-02-12_13h17.19.220,lexical_decision_task_DD_L2,2021.2.3,Win32,60.03842459,,,,,,,,,,,,0.5843,1,,,,,,,,,,,,,,,,,,,,,,,,0.468518539,0.042592586,0,0,0,,,,,,,DESERT,LB,z,y,./images/DESERTLB.png,,,,,,,,,,,,,,,,,,,,z,1,0.5843,,,,,,,,0,36,36,136,1
,,,,,,,,,,,,,,,,,6068a47f3cddf2e2c25a13c2,28,2022-02-12_13h17.19.220,lexical_decision_task_DD_L2,2021.2.3,Win32,60.03842459,,,,,,,,,,,,0.8846,0,,,,,,,,,,,,,,,,,,,,,,,,0.468518539,0.042592586,0,0,0,,,,,,,BOXER,LB,z,y,./images/BOXERLB.png,,,,,,,,,,,,,,,,,,,,m,0,0.8846,,,,,,,,0,37,37,88,1
,,,,,,,,,,,,,,,,,6068a47f3cddf2e2c25a13c2,28,2022-02-12_13h17.19.220,lexical_decision_task_DD_L2,2021.2.3,Win32,60.03842459,,,,,,,,,,,,0.6179,1,,,,,,,,,,,,,,,,,,,,,,,,0.468518539,0.042592586,0,0,0,,,,,,,MAMMAL,C,z,y,./images/MAMMAL.png,,,,,,,,,,,,,,,,,,,,z,1,0.6179,,,,,,,,0,38,38,146,1
,,,,,,,,,,,,,,,,,6068a47f3cddf2e2c25a13c2,28,2022-02-12_13h17.19.220,lexical_decision_task_DD_L2,2021.2.3,Win32,60.03842459,,,,,,,,,,,,0.5619,1,,,,,,,,,,,,,,,,,,,,,,,,0.468518539,0.042592586,0,0,0,,,,,,,CRATER,HB,z,y,./images/CRATERHB.png,,,,,,,,,,,,,,,,,,,,z,1,0.5619,,,,,,,,0,39,39,87,1
,,,,,,,,,,,,,,,,,6068a47f3cddf2e2c25a13c2,28,2022-02-12_13h17.19.220,lexical_decision_task_DD_L2,2021.2.3,Win32,60.03842459,,,,,,,,,,,,0.4843,1,,,,,,,,,,,,,,,,,,,,,,,,0.468518539,0.042592586,0,0,0,,,,,,,MEDAL,C,z,y,./images/MEDAL.png,,,,,,,,,,,,,,,,,,,,z,1,0.4843,,,,,,,,0,40,40,95,1
,,,,,,,,,,,,,,,,,6068a47f3cddf2e2c25a13c2,28,2022-02-12_13h17.19.220,lexical_decision_task_DD_L2,2021.2.3,Win32,60.03842459,,,,,,,,,,,,0.7583,1,,,,,,,,,,,,,,,,,,,,,,,,0.468518539,0.042592586,0,0,0,space,,,,,,SWING,LB,m,y,./images/SWINGLB.png,21.5459,,,,,,,,,,,,,,,,,,,m,1,0.7583,,,,,,,,0,41,41,40,1
,,,,,,,,,,,,,,,,,6068a47f3cddf2e2c25a13c2,28,2022-02-12_13h17.19.220,lexical_decision_task_DD_L2,2021.2.3,Win32,60.03842459,,,,,,,,,,,,0.7354,1,,,,,,,,,,,,,,,,,,,,,,,,0.468518539,0.042592586,0,0,0,,,,,,,SPINE,C,z,y,./images/SPINE.png,,,,,,,,,,,,,,,,,,,,z,1,0.7354,,,,,,,,0,42,42,149,1
,,,,,,,,,,,,,,,,,6068a47f3cddf2e2c25a13c2,28,2022-02-12_13h17.19.220,lexical_decision_task_DD_L2,2021.2.3,Win32,60.03842459,,,,,,,,,,,,1.1267,0,,,,,,,,,,,,,,,,,,,,,,,,0.468518539,0.042592586,0,0,0,,,,,,,POKER,LB,z,y,./images/POKERLB.png,,,,,,,,,,,,,,,,,,,,m,0,1.1267,,,,,,,,0,43,43,151,1
,,,,,,,,,,,,,,,,,6068a47f3cddf2e2c25a13c2,28,2022-02-12_13h17.19.220,lexical_decision_task_DD_L2,2021.2.3,Win32,60.03842459,,,,,,,,,,,,0.5453,1,,,,,,,,,,,,,,,,,,,,,,,,0.468518539,0.042592586,0,0,0,,,,,,,DANCER,HB,z,y,./images/DANCERHB.png,,,,,,,,,,,,,,,,,,,,z,1,0.5453,,,,,,,,0,44,44,105,1
,,,,,,,,,,,,,,,,,6068a47f3cddf2e2c25a13c2,28,2022-02-12_13h17.19.220,lexical_decision_task_DD_L2,2021.2.3,Win32,60.03842459,,,,,,,,,,,,0.6078,1,,,,,,,,,,,,,,,,,,,,,,,,0.468518539,0.042592586,0,0,0,,,,,,,DIVER,HB,z,y,./images/DIVERHB.png,,,,,,,,,,,,,,,,,,,,z,1,0.6078,,,,,,,,0,45,45,93,1
,,,,,,,,,,,,,,,,,6068a47f3cddf2e2c25a13c2,28,2022-02-12_13h17.19.220,lexical_decision_task_DD_L2,2021.2.3,Win32,60.03842459,,,,,,,,,,,,0.5209,1,,,,,,,,,,,,,,,,,,,,,,,,0.468518539,0.042592586,0,0,0,,,,,,,PISTOL,C,z,y,./images/PISTOL.png,,,,,,,,,,,,,,,,,,,,z,1,0.5209,,,,,,,,0,46,46,113,1
,,,,,,,,,,,,,,,,,6068a47f3cddf2e2c25a13c2,28,2022-02-12_13h17.19.220,lexical_decision_task_DD_L2,2021.2.3,Win32,60.03842459,,,,,,,,,,,,0.6576,1,,,,,,,,,,,,,,,,,,,,,,,,0.468518539,0.042592586,0,0,0,,,,,,,KIDNEY,HB,m,y,./images/KIDNEYHB.png,,,,,,,,,,,,,,,,,,,,m,1,0.6576,,,,,,,,0,47,47,21,1
,,,,,,,,,,,,,,,,,6068a47f3cddf2e2c25a13c2,28,2022-02-12_13h17.19.220,lexical_decision_task_DD_L2,2021.2.3,Win32,60.03842459,,,,,,,,,,,,0.5675,1,,,,,,,,,,,,,,,,,,,,,,,,0.468518539,0.042592586,0,0,0,,,,,,,STOVE,C,z,y,./images/STOVE.png,,,,,,,,,,,,,,,,,,,,z,1,0.5675,,,,,,,,0,48,48,86,1
,,,,,,,,,,,,,,,,,6068a47f3cddf2e2c25a13c2,28,2022-02-12_13h17.19.220,lexical_decision_task_DD_L2,2021.2.3,Win32,60.03842459,,,,,,,,,,,,0.6079,1,,,,,,,,,,,,,,,,,,,,,,,,0.468518539,0.042592586,0,0,0,,,,,,,FARMER,C,m,y,./images/FARMER.png,,,,,,,,,,,,,,,,,,,,m,1,0.6079,,,,,,,,0,49,49,65,1
,,,,,,,,,,,,,,,,,6068a47f3cddf2e2c25a13c2,28,2022-02-12_13h17.19.220,lexical_decision_task_DD_L2,2021.2.3,Win32,60.03842459,,,,,,,,,,,,0.6847,1,,,,,,,,,,,,,,,,,,,,,,,,0.468518539,0.042592586,0,0,0,,,,,,,CANYON,LB,m,y,./images/CANYONLB.png,,,,,,,,,,,,,,,,,,,,m,1,0.6847,,,,,,,,0,50,50,34,1
,,,,,,,,,,,,,,,,,6068a47f3cddf2e2c25a13c2,28,2022-02-12_13h17.19.220,lexical_decision_task_DD_L2,2021.2.3,Win32,60.03842459,,,,,,,,,,,,0.5676,1,,,,,,,,,,,,,,,,,,,,,,,,0.468518539,0.042592586,0,0,0,,,,,,,SWEAT,HB,m,y,./images/SWEATHB.png,,,,,,,,,,,,,,,,,,,,m,1,0.5676,,,,,,,,0,51,51,66,1
,,,,,,,,,,,,,,,,,6068a47f3cddf2e2c25a13c2,28,2022-02-12_13h17.19.220,lexical_decision_task_DD_L2,2021.2.3,Win32,60.03842459,,,,,,,,,,,,0.5119,1,,,,,,,,,,,,,,,,,,,,,,,,0.468518539,0.042592586,0,0,0,,,,,,,RULER,LB,z,y,./images/RULERLB.png,,,,,,,,,,,,,,,,,,,,z,1,0.5119,,,,,,,,0,52,52,163,1
,,,,,,,,,,,,,,,,,6068a47f3cddf2e2c25a13c2,28,2022-02-12_13h17.19.220,lexical_decision_task_DD_L2,2021.2.3,Win32,60.03842459,,,,,,,,,,,,0.5674,1,,,,,,,,,,,,,,,,,,,,,,,,0.468518539,0.042592586,0,0,0,,,,,,,LLAMA,C,z,y,./images/LLAMA.png,,,,,,,,,,,,,,,,,,,,z,1,0.5674,,,,,,,,0,53,53,119,1
,,,,,,,,,,,,,,,,,6068a47f3cddf2e2c25a13c2,28,2022-02-12_13h17.19.220,lexical_decision_task_DD_L2,2021.2.3,Win32,60.03842459,,,,,,,,,,,,0.6421,1,,,,,,,,,,,,,,,,,,,,,,,,0.468518539,0.042592586,0,0,0,,,,,,,BRIDE,LB,z,y,./images/BRIDELB.png,,,,,,,,,,,,,,,,,,,,z,1,0.6421,,,,,,,,0,54,54,148,1
,,,,,,,,,,,,,,,,,6068a47f3cddf2e2c25a13c2,28,2022-02-12_13h17.19.220,lexical_decision_task_DD_L2,2021.2.3,Win32,60.03842459,,,,,,,,,,,,0.6193,1,,,,,,,,,,,,,,,,,,,,,,,,0.468518539,0.042592586,0,0,0,,,,,,,JAGUAR,HB,m,y,./images/JAGUARHB.png,,,,,,,,,,,,,,,,,,,,m,1,0.6193,,,,,,,,0,55,55,18,1
,,,,,,,,,,,,,,,,,6068a47f3cddf2e2c25a13c2,28,2022-02-12_13h17.19.220,lexical_decision_task_DD_L2,2021.2.3,Win32,60.03842459,,,,,,,,,,,,0.6506,1,,,,,,,,,,,,,,,,,,,,,,,,0.468518539,0.042592586,0,0,0,,,,,,,JELLY,LB,m,y,./images/JELLYLB.png,,,,,,,,,,,,,,,,,,,,m,1,0.6506,,,,,,,,0,56,56,64,1
,,,,,,,,,,,,,,,,,6068a47f3cddf2e2c25a13c2,28,2022-02-12_13h17.19.220,lexical_decision_task_DD_L2,2021.2.3,Win32,60.03842459,,,,,,,,,,,,0.6009,1,,,,,,,,,,,,,,,,,,,,,,,,0.468518539,0.042592586,0,0,0,,,,,,,BISHOP,LB,z,y,./images/BISHOPLB.png,,,,,,,,,,,,,,,,,,,,z,1,0.6009,,,,,,,,0,57,57,133,1
,,,,,,,,,,,,,,,,,6068a47f3cddf2e2c25a13c2,28,2022-02-12_13h17.19.220,lexical_decision_task_DD_L2,2021.2.3,Win32,60.03842459,,,,,,,,,,,,0.6038,1,,,,,,,,,,,,,,,,,,,,,,,,0.468518539,0.042592586,0,0,0,,,,,,,VALLEY,C,z,y,./images/VALLEY.png,,,,,,,,,,,,,,,,,,,,z,1,0.6038,,,,,,,,0,58,58,152,1
,,,,,,,,,,,,,,,,,6068a47f3cddf2e2c25a13c2,28,2022-02-12_13h17.19.220,lexical_decision_task_DD_L2,2021.2.3,Win32,60.03842459,,,,,,,,,,,,0.6391,1,,,,,,,,,,,,,,,,,,,,,,,,0.468518539,0.042592586,0,0,0,,,,,,,RHINO,HB,m,y,./images/RHINOHB.png,,,,,,,,,,,,,,,,,,,,m,1,0.6391,,,,,,,,0,59,59,9,1
,,,,,,,,,,,,,,,,,6068a47f3cddf2e2c25a13c2,28,2022-02-12_13h17.19.220,lexical_decision_task_DD_L2,2021.2.3,Win32,60.03842459,,,,,,,,,,,,0.7602,1,,,,,,,,,,,,,,,,,,,,,,,,0.468518539,0.042592586,0,0,0,,,,,,,CLOTH,C,z,y,./images/CLOTH.png,,,,,,,,,,,,,,,,,,,,z,1,0.7602,,,,,,,,0,60,60,107,1
,,,,,,,,,,,,,,,,,6068a47f3cddf2e2c25a13c2,28,2022-02-12_13h17.19.220,lexical_decision_task_DD_L2,2021.2.3,Win32,60.03842459,,,,,,,,,,,,0.6688,1,,,,,,,,,,,,,,,,,,,,,,,,0.468518539,0.042592586,0,0,0,,,,,,,ATTIC,HB,m,y,./images/ATTICHB.png,,,,,,,,,,,,,,,,,,,,m,1,0.6688,,,,,,,,0,61,61,27,1
,,,,,,,,,,,,,,,,,6068a47f3cddf2e2c25a13c2,28,2022-02-12_13h17.19.220,lexical_decision_task_DD_L2,2021.2.3,Win32,60.03842459,,,,,,,,,,,,1.2511,0,,,,,,,,,,,,,,,,,,,,,,,,0.468518539,0.042592586,0,0,0,,,,,,,CRADLE,C,m,y,./images/CRADLE.png,,,,,,,,,,,,,,,,,,,,z,0,1.2511,,,,,,,,0,62,62,20,1
,,,,,,,,,,,,,,,,,6068a47f3cddf2e2c25a13c2,28,2022-02-12_13h17.19.220,lexical_decision_task_DD_L2,2021.2.3,Win32,60.03842459,,,,,,,,,,,,0.6162,1,,,,,,,,,,,,,,,,,,,,,,,,0.468518539,0.042592586,0,0,0,,,,,,,RAZOR,LB,z,y,./images/RAZORLB.png,,,,,,,,,,,,,,,,,,,,z,1,0.6162,,,,,,,,0,63,63,118,1
,,,,,,,,,,,,,,,,,6068a47f3cddf2e2c25a13c2,28,2022-02-12_13h17.19.220,lexical_decision_task_DD_L2,2021.2.3,Win32,60.03842459,,,,,,,,,,,,0.974,0,,,,,,,,,,,,,,,,,,,,,,,,0.468518539,0.042592586,0,0,0,,,,,,,SPORT,HB,m,y,./images/SPORTHB.png,,,,,,,,,,,,,,,,,,,,z,0,0.974,,,,,,,,0,64,64,48,1
,,,,,,,,,,,,,,,,,6068a47f3cddf2e2c25a13c2,28,2022-02-12_13h17.19.220,lexical_decision_task_DD_L2,2021.2.3,Win32,60.03842459,,,,,,,,,,,,1.1371,0,,,,,,,,,,,,,,,,,,,,,,,,0.468518539,0.042592586,0,0,0,,,,,,,BURIAL,C,m,y,./images/BURIAL.png,,,,,,,,,,,,,,,,,,,,z,0,1.1371,,,,,,,,0,65,65,59,1
,,,,,,,,,,,,,,,,,6068a47f3cddf2e2c25a13c2,28,2022-02-12_13h17.19.220,lexical_decision_task_DD_L2,2021.2.3,Win32,60.03842459,,,,,,,,,,,,0.9198,1,,,,,,,,,,,,,,,,,,,,,,,,0.468518539,0.042592586,0,0,0,,,,,,,SLOPE,HB,z,y,./images/SLOPEHB.png,,,,,,,,,,,,,,,,,,,,z,1,0.9198,,,,,,,,0,66,66,114,1
,,,,,,,,,,,,,,,,,6068a47f3cddf2e2c25a13c2,28,2022-02-12_13h17.19.220,lexical_decision_task_DD_L2,2021.2.3,Win32,60.03842459,,,,,,,,,,,,0.7005,1,,,,,,,,,,,,,,,,,,,,,,,,0.468518539,0.042592586,0,0,0,,,,,,,TULIP,C,m,y,./images/TULIP.png,,,,,,,,,,,,,,,,,,,,m,1,0.7005,,,,,,,,0,67,67,8,1
,,,,,,,,,,,,,,,,,6068a47f3cddf2e2c25a13c2,28,2022-02-12_13h17.19.220,lexical_decision_task_DD_L2,2021.2.3,Win32,60.03842459,,,,,,,,,,,,0.5952,1,,,,,,,,,,,,,,,,,,,,,,,,0.468518539,0.042592586,0,0,0,,,,,,,CHERRY,HB,z,y,./images/CHERRYHB.png,,,,,,,,,,,,,,,,,,,,z,1,0.5952,,,,,,,,0,68,68,138,1
,,,,,,,,,,,,,,,,,6068a47f3cddf2e2c25a13c2,28,2022-02-12_13h17.19.220,lexical_decision_task_DD_L2,2021.2.3,Win32,60.03842459,,,,,,,,,,,,0.5283,1,,,,,,,,,,,,,,,,,,,,,,,,0.468518539,0.042592586,0,0,0,,,,,,,POSTER,C,z,y,./images/POSTER.png,,,,,,,,,,,,,,,,,,,,z,1,0.5283,,,,,,,,0,69,69,137,1
,,,,,,,,,,,,,,,,,6068a47f3cddf2e2c25a13c2,28,2022-02-12_13h17.19.220,lexical_decision_task_DD_L2,2021.2.3,Win32,60.03842459,,,,,,,,,,,,0.5846,1,,,,,,,,,,,,,,,,,,,,,,,,0.468518539,0.042592586,0,0,0,,,,,,,BONNET,C,m,y,./images/BONNET.png,,,,,,,,,,,,,,,,,,,,m,1,0.5846,,,,,,,,0,70,70,11,1
,,,,,,,,,,,,,,,,,6068a47f3cddf2e2c25a13c2,28,2022-02-12_13h17.19.220,lexical_decision_task_DD_L2,2021.2.3,Win32,60.03842459,,,,,,,,,,,,0.694,1,,,,,,,,,,,,,,,,,,,,,,,,0.468518539,0.042592586,0,0,0,,,,,,,QUILL,LB,m,y,./images/QUILLLB.png,,,,,,,,,,,,,,,,,,,,m,1,0.694,,,,,,,,0,71,71,31,1
,,,,,,,,,,,,,,,,,6068a47f3cddf2e2c25a13c2,28,2022-02-12_13h17.19.220,lexical_decision_task_DD_L2,2021.2.3,Win32,60.03842459,,,,,,,,,,,,0.7172,1,,,,,,,,,,,,,,,,,,,,,,,,0.468518539,0.042592586,0,0,0,,,,,,,JUMPER,C,z,y,./images/JUMPER.png,,,,,,,,,,,,,,,,,,,,z,1,0.7172,,,,,,,,0,72,72,158,1
,,,,,,,,,,,,,,,,,6068a47f3cddf2e2c25a13c2,28,2022-02-12_13h17.19.220,lexical_decision_task_DD_L2,2021.2.3,Win32,60.03842459,,,,,,,,,,,,0.835,0,,,,,,,,,,,,,,,,,,,,,,,,0.468518539,0.042592586,0,0,0,,,,,,,ALLEY,LB,z,y,./images/ALLEYLB.png,,,,,,,,,,,,,,,,,,,,m,0,0.835,,,,,,,,0,73,73,139,1
,,,,,,,,,,,,,,,,,6068a47f3cddf2e2c25a13c2,28,2022-02-12_13h17.19.220,lexical_decision_task_DD_L2,2021.2.3,Win32,60.03842459,,,,,,,,,,,,0.7011,1,,,,,,,,,,,,,,,,,,,,,,,,0.468518539,0.042592586,0,0,0,,,,,,,STREAM,C,z,y,./images/STREAM.png,,,,,,,,,,,,,,,,,,,,z,1,0.7011,,,,,,,,0,74,74,125,1
,,,,,,,,,,,,,,,,,6068a47f3cddf2e2c25a13c2,28,2022-02-12_13h17.19.220,lexical_decision_task_DD_L2,2021.2.3,Win32,60.03842459,,,,,,,,,,,,0.6363,1,,,,,,,,,,,,,,,,,,,,,,,,0.468518539,0.042592586,0,0,0,,,,,,,BANANA,LB,z,y,./images/BANANALB.png,,,,,,,,,,,,,,,,,,,,z,1,0.6363,,,,,,,,0,75,75,154,1
,,,,,,,,,,,,,,,,,6068a47f3cddf2e2c25a13c2,28,2022-02-12_13h17.19.220,lexical_decision_task_DD_L2,2021.2.3,Win32,60.03842459,,,,,,,,,,,,0.8349,1,,,,,,,,,,,,,,,,,,,,,,,,0.468518539,0.042592586,0,0,0,,,,,,,BUTTER,HB,z,y,./images/BUTTERHB.png,,,,,,,,,,,,,,,,,,,,z,1,0.8349,,,,,,,,0,76,76,111,1
,,,,,,,,,,,,,,,,,6068a47f3cddf2e2c25a13c2,28,2022-02-12_13h17.19.220,lexical_decision_task_DD_L2,2021.2.3,Win32,60.03842459,,,,,,,,,,,,0.8544,1,,,,,,,,,,,,,,,,,,,,,,,,0.468518539,0.042592586,0,0,0,,,,,,,CRUST,LB,m,y,./images/CRUSTLB.png,,,,,,,,,,,,,,,,,,,,m,1,0.8544,,,,,,,,0,77,77,79,1
,,,,,,,,,,,,,,,,,6068a47f3cddf2e2c25a13c2,28,2022-02-12_13h17.19.220,lexical_decision_task_DD_L2,2021.2.3,Win32,60.03842459,,,,,,,,,,,,0.8169,1,,,,,,,,,,,,,,,,,,,,,,,,0.468518539,0.042592586,0,0,0,,,,,,,DONKEY,LB,z,y,./images/DONKEYLB.png,,,,,,,,,,,,,,,,,,,,z,1,0.8169,,,,,,,,0,78,78,103,1
,,,,,,,,,,,,,,,,,6068a47f3cddf2e2c25a13c2,28,2022-02-12_13h17.19.220,lexical_decision_task_DD_L2,2021.2.3,Win32,60.03842459,,,,,,,,,,,,0.9085,1,,,,,,,,,,,,,,,,,,,,,,,,0.468518539,0.042592586,0,0,0,,,,,,,GARDEN,LB,z,y,./images/GARDENLB.png,,,,,,,,,,,,,,,,,,,,z,1,0.9085,,,,,,,,0,79,79,94,1
,,,,,,,,,,,,,,,,,6068a47f3cddf2e2c25a13c2,28,2022-02-12_13h17.19.220,lexical_decision_task_DD_L2,2021.2.3,Win32,60.03842459,,,,,,,,,,,,0.9509,1,,,,,,,,,,,,,,,,,,,,,,,,0.468518539,0.042592586,0,0,0,,,,,,,SNACK,LB,m,y,./images/SNACKLB.png,,,,,,,,,,,,,,,,,,,,m,1,0.9509,,,,,,,,0,80,80,73,1
,,,,,,,,,,,,,,,,,6068a47f3cddf2e2c25a13c2,28,2022-02-12_13h17.19.220,lexical_decision_task_DD_L2,2021.2.3,Win32,60.03842459,,,,,,,,,,,,0.6672,1,,,,,,,,,,,,,,,,,,,,,,,,0.468518539,0.042592586,0,0,0,,,,,,,ENGINE,C,z,y,./images/ENGINE.png,,,,,,,,,,,,,,,,,,,,z,1,0.6672,,,,,,,,0,81,81,122,1
,,,,,,,,,,,,,,,,,6068a47f3cddf2e2c25a13c2,28,2022-02-12_13h17.19.220,lexical_decision_task_DD_L2,2021.2.3,Win32,60.03842459,,,,,,,,,,,,0.7702,1,,,,,,,,,,,,,,,,,,,,,,,,0.468518539,0.042592586,0,0,0,,,,,,,COOKER,HB,m,y,./images/COOKERHB.png,,,,,,,,,,,,,,,,,,,,m,1,0.7702,,,,,,,,0,82,82,69,1
,,,,,,,,,,,,,,,,,6068a47f3cddf2e2c25a13c2,28,2022-02-12_13h17.19.220,lexical_decision_task_DD_L2,2021.2.3,Win32,60.03842459,,,,,,,,,,,,0.8869,1,,,,,,,,,,,,,,,,,,,,,,,,0.468518539,0.042592586,0,0,0,space,,,,,,LIZARD,C,m,y,./images/LIZARD.png,11.2054,,,,,,,,,,,,,,,,,,,m,1,0.8869,,,,,,,,0,83,83,44,1
,,,,,,,,,,,,,,,,,6068a47f3cddf2e2c25a13c2,28,2022-02-12_13h17.19.220,lexical_decision_task_DD_L2,2021.2.3,Win32,60.03842459,,,,,,,,,,,,0.7511,1,,,,,,,,,,,,,,,,,,,,,,,,0.468518539,0.042592586,0,0,0,,,,,,,CLOWN,LB,z,y,./images/CLOWNLB.png,,,,,,,,,,,,,,,,,,,,z,1,0.7511,,,,,,,,0,84,84,106,1
,,,,,,,,,,,,,,,,,6068a47f3cddf2e2c25a13c2,28,2022-02-12_13h17.19.220,lexical_decision_task_DD_L2,2021.2.3,Win32,60.03842459,,,,,,,,,,,,0.8338,1,,,,,,,,,,,,,,,,,,,,,,,,0.468518539,0.042592586,0,0,0,,,,,,,PAINT,LB,m,y,./images/PAINTLB.png,,,,,,,,,,,,,,,,,,,,m,1,0.8338,,,,,,,,0,85,85,7,1
,,,,,,,,,,,,,,,,,6068a47f3cddf2e2c25a13c2,28,2022-02-12_13h17.19.220,lexical_decision_task_DD_L2,2021.2.3,Win32,60.03842459,,,,,,,,,,,,0.7845,1,,,,,,,,,,,,,,,,,,,,,,,,0.468518539,0.042592586,0,0,0,,,,,,,WRIST,LB,m,y,./images/WRISTLB.png,,,,,,,,,,,,,,,,,,,,m,1,0.7845,,,,,,,,0,86,86,25,1
,,,,,,,,,,,,,,,,,6068a47f3cddf2e2c25a13c2,28,2022-02-12_13h17.19.220,lexical_decision_task_DD_L2,2021.2.3,Win32,60.03842459,,,,,,,,,,,,0.5603,1,,,,,,,,,,,,,,,,,,,,,,,,0.468518539,0.042592586,0,0,0,,,,,,,FALCON,LB,m,y,./images/FALCONLB.png,,,,,,,,,,,,,,,,,,,,m,1,0.5603,,,,,,,,0,87,87,28,1
,,,,,,,,,,,,,,,,,6068a47f3cddf2e2c25a13c2,28,2022-02-12_13h17.19.220,lexical_decision_task_DD_L2,2021.2.3,Win32,60.03842459,,,,,,,,,,,,0.6509,1,,,,,,,,,,,,,,,,,,,,,,,,0.468518539,0.042592586,0,0,0,,,,,,,HEATER,C,z,y,./images/HEATER.png,,,,,,,,,,,,,,,,,,,,z,1,0.6509,,,,,,,,0,88,88,140,1
,,,,,,,,,,,,,,,,,6068a47f3cddf2e2c25a13c2,28,2022-02-12_13h17.19.220,lexical_decision_task_DD_L2,2021.2.3,Win32,60.03842459,,,,,,,,,,,,0.6085,1,,,,,,,,,,,,,,,,,,,,,,,,0.468518539,0.042592586,0,0,0,,,,,,,BAMBOO,C,z,y,./images/BAMBOO.png,,,,,,,,,,,,,,,,,,,,z,1,0.6085,,,,,,,,0,89,89,89,1
,,,,,,,,,,,,,,,,,6068a47f3cddf2e2c25a13c2,28,2022-02-12_13h17.19.220,lexical_decision_task_DD_L2,2021.2.3,Win32,60.03842459,,,,,,,,,,,,0.5723,1,,,,,,,,,,,,,,,,,,,,,,,,0.468518539,0.042592586,0,0,0,,,,,,,FLESH,HB,z,y,./images/FLESHHB.png,,,,,,,,,,,,,,,,,,,,z,1,0.5723,,,,,,,,0,90,90,108,1
,,,,,,,,,,,,,,,,,6068a47f3cddf2e2c25a13c2,28,2022-02-12_13h17.19.220,lexical_decision_task_DD_L2,2021.2.3,Win32,60.03842459,,,,,,,,,,,,0.636,1,,,,,,,,,,,,,,,,,,,,,,,,0.468518539,0.042592586,0,0,0,,,,,,,TOWEL,LB,z,y,./images/TOWELLB.png,,,,,,,,,,,,,,,,,,,,z,1,0.636,,,,,,,,0,91,91,85,1
,,,,,,,,,,,,,,,,,6068a47f3cddf2e2c25a13c2,28,2022-02-12_13h17.19.220,lexical_decision_task_DD_L2,2021.2.3,Win32,60.03842459,,,,,,,,,,,,0.7178,1,,,,,,,,,,,,,,,,,,,,,,,,0.468518539,0.042592586,0,0,0,,,,,,,PLANK,LB,m,y,./images/PLANKLB.png,,,,,,,,,,,,,,,,,,,,m,1,0.7178,,,,,,,,0,92,92,1,1
,,,,,,,,,,,,,,,,,6068a47f3cddf2e2c25a13c2,28,2022-02-12_13h17.19.220,lexical_decision_task_DD_L2,2021.2.3,Win32,60.03842459,,,,,,,,,,,,0.7574,1,,,,,,,,,,,,,,,,,,,,,,,,0.468518539,0.042592586,0,0,0,,,,,,,PICKLE,C,m,y,./images/PICKLE.png,,,,,,,,,,,,,,,,,,,,m,1,0.7574,,,,,,,,0,93,93,14,1
,,,,,,,,,,,,,,,,,6068a47f3cddf2e2c25a13c2,28,2022-02-12_13h17.19.220,lexical_decision_task_DD_L2,2021.2.3,Win32,60.03842459,,,,,,,,,,,,1.2841,1,,,,,,,,,,,,,,,,,,,,,,,,0.468518539,0.042592586,0,0,0,,,,,,,URINE,LB,m,y,./images/URINELB.png,,,,,,,,,,,,,,,,,,,,m,1,1.2841,,,,,,,,0,94,94,70,1
,,,,,,,,,,,,,,,,,6068a47f3cddf2e2c25a13c2,28,2022-02-12_13h17.19.220,lexical_decision_task_DD_L2,2021.2.3,Win32,60.03842459,,,,,,,,,,,,0.9903,1,,,,,,,,,,,,,,,,,,,,,,,,0.468518539,0.042592586,0,0,0,,,,,,,STRING,C,m,y,./images/STRING.png,,,,,,,,,,,,,,,,,,,,m,1,0.9903,,,,,,,,0,95,95,41,1
,,,,,,,,,,,,,,,,,6068a47f3cddf2e2c25a13c2,28,2022-02-12_13h17.19.220,lexical_decision_task_DD_L2,2021.2.3,Win32,60.03842459,,,,,,,,,,,,0.6673,1,,,,,,,,,,,,,,,,,,,,,,,,0.468518539,0.042592586,0,0,0,,,,,,,MELON,LB,m,y,./images/MELONLB.png,,,,,,,,,,,,,,,,,,,,m,1,0.6673,,,,,,,,0,96,96,22,1
,,,,,,,,,,,,,,,,,6068a47f3cddf2e2c25a13c2,28,2022-02-12_13h17.19.220,lexical_decision_task_DD_L2,2021.2.3,Win32,60.03842459,,,,,,,,,,,,0.7269,1,,,,,,,,,,,,,,,,,,,,,,,,0.468518539,0.042592586,0,0,0,,,,,,,PEACH,C,m,y,./images/PEACH.png,,,,,,,,,,,,,,,,,,,,m,1,0.7269,,,,,,,,0,97,97,35,1
,,,,,,,,,,,,,,,,,6068a47f3cddf2e2c25a13c2,28,2022-02-12_13h17.19.220,lexical_decision_task_DD_L2,2021.2.3,Win32,60.03842459,,,,,,,,,,,,0.5507,1,,,,,,,,,,,,,,,,,,,,,,,,0.468518539,0.042592586,0,0,0,,,,,,,BUNNY,LB,z,y,./images/BUNNYLB.png,,,,,,,,,,,,,,,,,,,,z,1,0.5507,,,,,,,,0,98,98,97,1
,,,,,,,,,,,,,,,,,6068a47f3cddf2e2c25a13c2,28,2022-02-12_13h17.19.220,lexical_decision_task_DD_L2,2021.2.3,Win32,60.03842459,,,,,,,,,,,,1.0196,0,,,,,,,,,,,,,,,,,,,,,,,,0.468518539,0.042592586,0,0,0,,,,,,,STEAK,LB,z,y,./images/STEAKLB.png,,,,,,,,,,,,,,,,,,,,m,0,1.0196,,,,,,,,0,99,99,115,1
,,,,,,,,,,,,,,,,,6068a47f3cddf2e2c25a13c2,28,2022-02-12_13h17.19.220,lexical_decision_task_DD_L2,2021.2.3,Win32,60.03842459,,,,,,,,,,,,0.7902,1,,,,,,,,,,,,,,,,,,,,,,,,0.468518539,0.042592586,0,0,0,,,,,,,CANDLE,LB,m,y,./images/CANDLELB.png,,,,,,,,,,,,,,,,,,,,m,1,0.7902,,,,,,,,0,100,100,61,1
,,,,,,,,,,,,,,,,,6068a47f3cddf2e2c25a13c2,28,2022-02-12_13h17.19.220,lexical_decision_task_DD_L2,2021.2.3,Win32,60.03842459,,,,,,,,,,,,1.5171,0,,,,,,,,,,,,,,,,,,,,,,,,0.468518539,0.042592586,0,0,0,,,,,,,TWINS,HB,m,y,./images/TWINSHB.png,,,,,,,,,,,,,,,,,,,,z,0,1.5171,,,,,,,,0,101,101,60,1
,,,,,,,,,,,,,,,,,6068a47f3cddf2e2c25a13c2,28,2022-02-12_13h17.19.220,lexical_decision_task_DD_L2,2021.2.3,Win32,60.03842459,,,,,,,,,,,,0.6513,1,,,,,,,,,,,,,,,,,,,,,,,,0.468518539,0.042592586,0,0,0,,,,,,,CASINO,LB,z,y,./images/CASINOLB.png,,,,,,,,,,,,,,,,,,,,z,1,0.6513,,,,,,,,0,102,102,112,1
,,,,,,,,,,,,,,,,,6068a47f3cddf2e2c25a13c2,28,2022-02-12_13h17.19.220,lexical_decision_task_DD_L2,2021.2.3,Win32,60.03842459,,,,,,,,,,,,0.5348,1,,,,,,,,,,,,,,,,,,,,,,,,0.468518539,0.042592586,0,0,0,,,,,,,DRILL,HB,z,y,./images/DRILLHB.png,,,,,,,,,,,,,,,,,,,,z,1,0.5348,,,,,,,,0,103,103,165,1
,,,,,,,,,,,,,,,,,6068a47f3cddf2e2c25a13c2,28,2022-02-12_13h17.19.220,lexical_decision_task_DD_L2,2021.2.3,Win32,60.03842459,,,,,,,,,,,,1.1222,0,,,,,,,,,,,,,,,,,,,,,,,,0.468518539,0.042592586,0,0,0,,,,,,,SMOKER,C,m,y,./images/SMOKER.png,,,,,,,,,,,,,,,,,,,,z,0,1.1222,,,,,,,,0,104,104,26,1
,,,,,,,,,,,,,,,,,6068a47f3cddf2e2c25a13c2,28,2022-02-12_13h17.19.220,lexical_decision_task_DD_L2,2021.2.3,Win32,60.03842459,,,,,,,,,,,,0.8428,1,,,,,,,,,,,,,,,,,,,,,,,,0.468518539,0.042592586,0,0,0,,,,,,,PURSE,C,m,y,./images/PURSE.png,,,,,,,,,,,,,,,,,,,,m,1,0.8428,,,,,,,,0,105,105,62,1
,,,,,,,,,,,,,,,,,6068a47f3cddf2e2c25a13c2,28,2022-02-12_13h17.19.220,lexical_decision_task_DD_L2,2021.2.3,Win32,60.03842459,,,,,,,,,,,,0.6238,1,,,,,,,,,,,,,,,,,,,,,,,,0.468518539,0.042592586,0,0,0,,,,,,,SAUCE,HB,z,y,./images/SAUCEHB.png,,,,,,,,,,,,,,,,,,,,z,1,0.6238,,,,,,,,0,106,106,135,1
,,,,,,,,,,,,,,,,,6068a47f3cddf2e2c25a13c2,28,2022-02-12_13h17.19.220,lexical_decision_task_DD_L2,2021.2.3,Win32,60.03842459,,,,,,,,,,,,0.5225,1,,,,,,,,,,,,,,,,,,,,,,,,0.468518539,0.042592586,0,0,0,,,,,,,GRAPE,LB,z,y,./images/GRAPELB.png,,,,,,,,,,,,,,,,,,,,z,1,0.5225,,,,,,,,0,107,107,100,1
,,,,,,,,,,,,,,,,,6068a47f3cddf2e2c25a13c2,28,2022-02-12_13h17.19.220,lexical_decision_task_DD_L2,2021.2.3,Win32,60.03842459,,,,,,,,,,,,1.0176,1,,,,,,,,,,,,,,,,,,,,,,,,0.468518539,0.042592586,0,0,0,,,,,,,BABOON,LB,m,y,./images/BABOONLB.png,,,,,,,,,,,,,,,,,,,,m,1,1.0176,,,,,,,,0,108,108,58,1
,,,,,,,,,,,,,,,,,6068a47f3cddf2e2c25a13c2,28,2022-02-12_13h17.19.220,lexical_decision_task_DD_L2,2021.2.3,Win32,60.03842459,,,,,,,,,,,,0.7509,1,,,,,,,,,,,,,,,,,,,,,,,,0.468518539,0.042592586,0,0,0,,,,,,,TOMATO,HB,m,y,./images/TOMATOHB.png,,,,,,,,,,,,,,,,,,,,m,1,0.7509,,,,,,,,0,109,109,0,1
,,,,,,,,,,,,,,,,,6068a47f3cddf2e2c25a13c2,28,2022-02-12_13h17.19.220,lexical_decision_task_DD_L2,2021.2.3,Win32,60.03842459,,,,,,,,,,,,0.8005,1,,,,,,,,,,,,,,,,,,,,,,,,0.468518539,0.042592586,0,0,0,,,,,,,FLASK,HB,z,y,./images/FLASKHB.png,,,,,,,,,,,,,,,,,,,,z,1,0.8005,,,,,,,,0,110,110,156,1
,,,,,,,,,,,,,,,,,6068a47f3cddf2e2c25a13c2,28,2022-02-12_13h17.19.220,lexical_decision_task_DD_L2,2021.2.3,Win32,60.03842459,,,,,,,,,,,,0.6517,1,,,,,,,,,,,,,,,,,,,,,,,,0.468518539,0.042592586,0,0,0,,,,,,,NOOSE,HB,m,y,./images/NOOSEHB.png,,,,,,,,,,,,,,,,,,,,m,1,0.6517,,,,,,,,0,111,111,72,1
,,,,,,,,,,,,,,,,,6068a47f3cddf2e2c25a13c2,28,2022-02-12_13h17.19.220,lexical_decision_task_DD_L2,2021.2.3,Win32,60.03842459,,,,,,,,,,,,0.6393,1,,,,,,,,,,,,,,,,,,,,,,,,0.468518539,0.042592586,0,0,0,,,,,,,PILOT,C,z,y,./images/PILOT.png,,,,,,,,,,,,,,,,,,,,z,1,0.6393,,,,,,,,0,112,112,134,1
,,,,,,,,,,,,,,,,,6068a47f3cddf2e2c25a13c2,28,2022-02-12_13h17.19.220,lexical_decision_task_DD_L2,2021.2.3,Win32,60.03842459,,,,,,,,,,,,0.6886,1,,,,,,,,,,,,,,,,,,,,,,,,0.468518539,0.042592586,0,0,0,,,,,,,GREASE,HB,m,y,./images/GREASEHB.png,,,,,,,,,,,,,,,,,,,,m,1,0.6886,,,,,,,,0,113,113,15,1
,,,,,,,,,,,,,,,,,6068a47f3cddf2e2c25a13c2,28,2022-02-12_13h17.19.220,lexical_decision_task_DD_L2,2021.2.3,Win32,60.03842459,,,,,,,,,,,,0.6182,1,,,,,,,,,,,,,,,,,,,,,,,,0.468518539,0.042592586,0,0,0,,,,,,,PASTA,C,m,y,./images/PASTA.png,,,,,,,,,,,,,,,,,,,,m,1,0.6182,,,,,,,,0,114,114,5,1
,,,,,,,,,,,,,,,,,6068a47f3cddf2e2c25a13c2,28,2022-02-12_13h17.19.220,lexical_decision_task_DD_L2,2021.2.3,Win32,60.03842459,,,,,,,,,,,,0.5788,1,,,,,,,,,,,,,,,,,,,,,,,,0.468518539,0.042592586,0,0,0,,,,,,,PEARL,LB,m,y,./images/PEARLLB.png,,,,,,,,,,,,,,,,,,,,m,1,0.5788,,,,,,,,0,115,115,46,1
,,,,,,,,,,,,,,,,,6068a47f3cddf2e2c25a13c2,28,2022-02-12_13h17.19.220,lexical_decision_task_DD_L2,2021.2.3,Win32,60.03842459,,,,,,,,,,,,0.633,1,,,,,,,,,,,,,,,,,,,,,,,,0.468518539,0.042592586,0,0,0,,,,,,,COLLAR,HB,z,y,./images/COLLARHB.png,,,,,,,,,,,,,,,,,,,,z,1,0.633,,,,,,,,0,116,116,99,1
,,,,,,,,,,,,,,,,,6068a47f3cddf2e2c25a13c2,28,2022-02-12_13h17.19.220,lexical_decision_task_DD_L2,2021.2.3,Win32,60.03842459,,,,,,,,,,,,0.7575,1,,,,,,,,,,,,,,,,,,,,,,,,0.468518539,0.042592586,0,0,0,,,,,,,MONKEY,HB,z,y,./images/MONKEYHB.png,,,,,,,,,,,,,,,,,,,,z,1,0.7575,,,,,,,,0,117,117,129,1
,,,,,,,,,,,,,,,,,6068a47f3cddf2e2c25a13c2,28,2022-02-12_13h17.19.220,lexical_decision_task_DD_L2,2021.2.3,Win32,60.03842459,,,,,,,,,,,,0.6007,1,,,,,,,,,,,,,,,,,,,,,,,,0.468518539,0.042592586,0,0,0,,,,,,,SAILOR,LB,m,y,./images/SAILORLB.png,,,,,,,,,,,,,,,,,,,,m,1,0.6007,,,,,,,,0,118,118,67,1
,,,,,,,,,,,,,,,,,6068a47f3cddf2e2c25a13c2,28,2022-02-12_13h17.19.220,lexical_decision_task_DD_L2,2021.2.3,Win32,60.03842459,,,,,,,,,,,,0.5532,1,,,,,,,,,,,,,,,,,,,,,,,,0.468518539,0.042592586,0,0,0,,,,,,,BELLY,LB,m,y,./images/BELLYLB.png,,,,,,,,,,,,,,,,,,,,m,1,0.5532,,,,,,,,0,119,119,10,1
,,,,,,,,,,,,,,,,,6068a47f3cddf2e2c25a13c2,28,2022-02-12_13h17.19.220,lexical_decision_task_DD_L2,2021.2.3,Win32,60.03842459,,,,,,,,,,,,1.5009,1,,,,,,,,,,,,,,,,,,,,,,,,0.468518539,0.042592586,0,0,0,,,,,,,STATUE,HB,z,y,./images/STATUEHB.png,,,,,,,,,,,,,,,,,,,,z,1,1.5009,,,,,,,,0,120,120,150,1
,,,,,,,,,,,,,,,,,6068a47f3cddf2e2c25a13c2,28,2022-02-12_13h17.19.220,lexical_decision_task_DD_L2,2021.2.3,Win32,60.03842459,,,,,,,,,,,,0.827,1,,,,,,,,,,,,,,,,,,,,,,,,0.468518539,0.042592586,0,0,0,,,,,,,CANDY,HB,z,y,./images/CANDYHB.png,,,,,,,,,,,,,,,,,,,,z,1,0.827,,,,,,,,0,121,121,123,1
,,,,,,,,,,,,,,,,,6068a47f3cddf2e2c25a13c2,28,2022-02-12_13h17.19.220,lexical_decision_task_DD_L2,2021.2.3,Win32,60.03842459,,,,,,,,,,,,0.635,0,,,,,,,,,,,,,,,,,,,,,,,,0.468518539,0.042592586,0,0,0,,,,,,,SQUARE,HB,m,y,./images/SQUAREHB.png,,,,,,,,,,,,,,,,,,,,z,0,0.635,,,,,,,,0,122,122,6,1
,,,,,,,,,,,,,,,,,6068a47f3cddf2e2c25a13c2,28,2022-02-12_13h17.19.220,lexical_decision_task_DD_L2,2021.2.3,Win32,60.03842459,,,,,,,,,,,,0.5754,1,,,,,,,,,,,,,,,,,,,,,,,,0.468518539,0.042592586,0,0,0,,,,,,,FENCE,C,z,y,./images/FENCE.png,,,,,,,,,,,,,,,,,,,,z,1,0.5754,,,,,,,,0,123,123,98,1
,,,,,,,,,,,,,,,,,6068a47f3cddf2e2c25a13c2,28,2022-02-12_13h17.19.220,lexical_decision_task_DD_L2,2021.2.3,Win32,60.03842459,,,,,,,,,,,,1.0676,1,,,,,,,,,,,,,,,,,,,,,,,,0.468518539,0.042592586,0,0,0,,,,,,,LITTER,HB,m,y,./images/LITTERHB.png,,,,,,,,,,,,,,,,,,,,m,1,1.0676,,,,,,,,0,124,124,78,1
,,,,,,,,,,,,,,,,,6068a47f3cddf2e2c25a13c2,28,2022-02-12_13h17.19.220,lexical_decision_task_DD_L2,2021.2.3,Win32,60.03842459,,,,,,,,,,,,0.6121,1,,,,,,,,,,,,,,,,,,,,,,,,0.468518539,0.042592586,0,0,0,space,,,,,,MIDGET,LB,z,y,./images/MIDGETLB.png,10.6557,,,,,,,,,,,,,,,,,,,z,1,0.6121,,,,,,,,0,125,125,160,1
,,,,,,,,,,,,,,,,,6068a47f3cddf2e2c25a13c2,28,2022-02-12_13h17.19.220,lexical_decision_task_DD_L2,2021.2.3,Win32,60.03842459,,,,,,,,,,,,0.6934,0,,,,,,,,,,,,,,,,,,,,,,,,0.468518539,0.042592586,0,0,0,,,,,,,MOTOR,LB,m,y,./images/MOTORLB.png,,,,,,,,,,,,,,,,,,,,z,0,0.6934,,,,,,,,0,126,126,13,1
,,,,,,,,,,,,,,,,,6068a47f3cddf2e2c25a13c2,28,2022-02-12_13h17.19.220,lexical_decision_task_DD_L2,2021.2.3,Win32,60.03842459,,,,,,,,,,,,0.7512,1,,,,,,,,,,,,,,,,,,,,,,,,0.468518539,0.042592586,0,0,0,,,,,,,TRIPOD,HB,m,y,./images/TRIPODHB.png,,,,,,,,,,,,,,,,,,,,m,1,0.7512,,,,,,,,0,127,127,54,1
,,,,,,,,,,,,,,,,,6068a47f3cddf2e2c25a13c2,28,2022-02-12_13h17.19.220,lexical_decision_task_DD_L2,2021.2.3,Win32,60.03842459,,,,,,,,,,,,0.6843,1,,,,,,,,,,,,,,,,,,,,,,,,0.468518539,0.042592586,0,0,0,,,,,,,STAIN,HB,z,y,./images/STAINHB.png,,,,,,,,,,,,,,,,,,,,z,1,0.6843,,,,,,,,0,128,128,90,1
,,,,,,,,,,,,,,,,,6068a47f3cddf2e2c25a13c2,28,2022-02-12_13h17.19.220,lexical_decision_task_DD_L2,2021.2.3,Win32,60.03842459,,,,,,,,,,,,1.1685,1,,,,,,,,,,,,,,,,,,,,,,,,0.468518539,0.042592586,0,0,0,,,,,,,TIGER,LB,z,y,./images/TIGERLB.png,,,,,,,,,,,,,,,,,,,,z,1,1.1685,,,,,,,,0,129,129,121,1
,,,,,,,,,,,,,,,,,6068a47f3cddf2e2c25a13c2,28,2022-02-12_13h17.19.220,lexical_decision_task_DD_L2,2021.2.3,Win32,60.03842459,,,,,,,,,,,,1.1087,1,,,,,,,,,,,,,,,,,,,,,,,,0.468518539,0.042592586,0,0,0,,,,,,,WAGON,LB,z,y,./images/WAGONLB.png,,,,,,,,,,,,,,,,,,,,z,1,1.1087,,,,,,,,0,130,130,91,1
,,,,,,,,,,,,,,,,,6068a47f3cddf2e2c25a13c2,28,2022-02-12_13h17.19.220,lexical_decision_task_DD_L2,2021.2.3,Win32,60.03842459,,,,,,,,,,,,0.684,1,,,,,,,,,,,,,,,,,,,,,,,,0.468518539,0.042592586,0,0,0,,,,,,,GRANNY,C,z,y,./images/GRANNY.png,,,,,,,,,,,,,,,,,,,,z,1,0.684,,,,,,,,0,131,131,104,1
