key_resp.keys,key_resp.rt,instr_done_touch.x,instr_done_touch.y,instr_done_touch.leftButton,instr_done_touch.midButton,instr_done_touch.rightButton,instruction_pages.thisRepN,instruction_pages.thisTrialN,instruction_pages.thisN,instruction_pages.thisIndex,instruction_pages.ran,pageN,phase,instruct_text,has_image,instruct_image,participant,age,date,expName,psychopyVersion,OS,frameRate,response.keys,response.corr,response.rt,touch_resp.x,touch_resp.y,touch_resp.leftButton,touch_resp.midButton,touch_resp.rightButton,touch_resp.time,touch_resp.clicked_name,rt,corr,practrials.thisRepN,practrials.thisTrialN,practrials.thisN,practrials.thisIndex,practrials.ran,TrialID,Target,corrAns,end_of_practice_trials_pages.thisRepN,end_of_practice_trials_pages.thisTrialN,end_of_practice_trials_pages.thisN,end_of_practice_trials_pages.thisIndex,end_of_practice_trials_pages.ran,key_resp_2.keys,key_resp_2.corr,key_resp_2.rt,targ_click.x,targ_click.y,targ_click.leftButton,targ_click.midButton,targ_click.rightButton,targ_click.time,targ_click.clicked_name,break_done_touch.x,break_done_touch.y,break_done_touch.leftButton,break_done_touch.midButton,break_done_touch.rightButton,break_done_keyboard.keys,maintrials.thisRepN,maintrials.thisTrialN,maintrials.thisN,maintrials.thisIndex,maintrials.ran,string,blur,study,lex,stim_path,break_done_keyboard.rt,mouse_2.x,mouse_2.y,mouse_2.leftButton,mouse_2.midButton,mouse_2.rightButton,mouse_2.clicked_name,slider.response,slider.rt,trials.thisRepN,trials.thisTrialN,trials.thisN,trials.thisIndex,trials.ran,test_instructions.thisRepN,test_instructions.thisTrialN,test_instructions.thisN,test_instructions.thisIndex,test_instructions.ran,instr_done_touch.clicked_name,key_resp_3.keys,key_resp_3.corr,key_resp_3.rt,test_click.x,test_click.y,test_click.leftButton,test_click.midButton,test_click.rightButton,test_click.time,test_click.clicked_name,test_phase.thisRepN,test_phase.thisTrialN,test_phase.thisN,test_phase.thisIndex,test_phase.ran
space,108.0029,0.344726563,0,0,0,0,0,0,0,0,1,1,instructions,"INSTRUCTIONS
At the start of each trial, look at the plus sign  (+) in the center of the screen.  This tells you that a trial is about to begin and where to look. Second, the plus sign will disappear and a string of letters will appear. Your task is to determine if the string of letters is a word or not. If the item is a word press the M key (on keyboard)  or touch the word button (phone/tablet).  If the item is not a word,  press the  Z key (on keyboard)  or touch the nonword button (on phone/tablet). 
Press the space bar or touch  continue.",0,,60bc011503db109b7d46851d,33,2022-02-12_13h45.28.310,lexical_decision_task_DD_L2,2021.2.3,Win32,60.01680471,,,,,,,,,,,,,,,,,,,,,,,,,,,,,,,,,,,,,,,,,,,,,,,,,,,,,,,,,,,,,,,,,,,,,,,,,,,,,,,,,,,,,,
space,6.9056,0.344726563,0,0,0,0,0,1,1,1,1,2,instructions,"If your device has a keyboard, press the 'Z' key for nonwords and the 'M' key for words.





Press the space bar or touch the button below to continue.",0,keyboard-example.gif,60bc011503db109b7d46851d,33,2022-02-12_13h45.28.310,lexical_decision_task_DD_L2,2021.2.3,Win32,60.01680471,,,,,,,,,,,,,,,,,,,,,,,,,,,,,,,,,,,,,,,,,,,,,,,,,,,,,,,,,,,,,,,,,,,,,,,,,,,,,,,,,,,,,,
space,17.5669,0.356445313,0,0,0,0,0,2,2,2,1,3,instructions,"If you are using a touchscreen only device, use the buttons on the screen. Do not use the mouse.





Press the space bar or touch the button below to continue.",0,touchscreen-example.gif,60bc011503db109b7d46851d,33,2022-02-12_13h45.28.310,lexical_decision_task_DD_L2,2021.2.3,Win32,60.01680471,,,,,,,,,,,,,,,,,,,,,,,,,,,,,,,,,,,,,,,,,,,,,,,,,,,,,,,,,,,,,,,,,,,,,,,,,,,,,,,,,,,,,,
space,89.8034,0.356445313,0,0,0,0,0,3,3,3,1,4,instructions,"It is very important that you respond as quickly and accurately as possible, as each letter string will only be on the screen for two seconds. If you do not respond within this time, the message 'Too slow!' will be displayed and the experiment will progress to the next letter string. The first 20 trials will be practice trials and you will receive feedback on your answers. 

Press the space bar or touch the button below to start the practice trials.",0,,60bc011503db109b7d46851d,33,2022-02-12_13h45.28.310,lexical_decision_task_DD_L2,2021.2.3,Win32,60.01680471,,,,,,,,,,,,,,,,,,,,,,,,,,,,,,,,,,,,,,,,,,,,,,,,,,,,,,,,,,,,,,,,,,,,,,,,,,,,,,,,,,,,,,
,,,,,,,,,,,,,,,,,60bc011503db109b7d46851d,33,2022-02-12_13h45.28.310,lexical_decision_task_DD_L2,2021.2.3,Win32,60.01680471,z,1,2.8859,,,,,,,,2.8859,1,0,0,0,12,1,1001,SPRINY,z,,,,,,,,,,,,,,,,,,,,,,,,,,,,,,,,,,,,,,,,,,,,,,,,,,,,,,,,,,,,,,,,,,
,,,,,,,,,,,,,,,,,60bc011503db109b7d46851d,33,2022-02-12_13h45.28.310,lexical_decision_task_DD_L2,2021.2.3,Win32,60.01680471,z,0,1.2357,,,,,,,,1.2357,0,0,1,1,7,1,1001,VOLUME,m,,,,,,,,,,,,,,,,,,,,,,,,,,,,,,,,,,,,,,,,,,,,,,,,,,,,,,,,,,,,,,,,,,
,,,,,,,,,,,,,,,,,60bc011503db109b7d46851d,33,2022-02-12_13h45.28.310,lexical_decision_task_DD_L2,2021.2.3,Win32,60.01680471,z,1,1.0721,,,,,,,,1.0721,1,0,2,2,14,1,1001,THRALE,z,,,,,,,,,,,,,,,,,,,,,,,,,,,,,,,,,,,,,,,,,,,,,,,,,,,,,,,,,,,,,,,,,,
,,,,,,,,,,,,,,,,,60bc011503db109b7d46851d,33,2022-02-12_13h45.28.310,lexical_decision_task_DD_L2,2021.2.3,Win32,60.01680471,m,1,1.2013,,,,,,,,1.2013,1,0,3,3,6,1,1001,ZOMBIE,m,,,,,,,,,,,,,,,,,,,,,,,,,,,,,,,,,,,,,,,,,,,,,,,,,,,,,,,,,,,,,,,,,,
,,,,,,,,,,,,,,,,,60bc011503db109b7d46851d,33,2022-02-12_13h45.28.310,lexical_decision_task_DD_L2,2021.2.3,Win32,60.01680471,m,1,0.7988,,,,,,,,0.7988,1,0,4,4,4,1,1001,SQUEAK,m,,,,,,,,,,,,,,,,,,,,,,,,,,,,,,,,,,,,,,,,,,,,,,,,,,,,,,,,,,,,,,,,,,
,,,,,,,,,,,,,,,,,60bc011503db109b7d46851d,33,2022-02-12_13h45.28.310,lexical_decision_task_DD_L2,2021.2.3,Win32,60.01680471,z,0,0.9149,,,,,,,,0.9149,0,0,5,5,0,1,1001,UTOPIA,m,,,,,,,,,,,,,,,,,,,,,,,,,,,,,,,,,,,,,,,,,,,,,,,,,,,,,,,,,,,,,,,,,,
,,,,,,,,,,,,,,,,,60bc011503db109b7d46851d,33,2022-02-12_13h45.28.310,lexical_decision_task_DD_L2,2021.2.3,Win32,60.01680471,z,1,0.8127,,,,,,,,0.8127,1,0,6,6,10,1,1001,INLADE,z,,,,,,,,,,,,,,,,,,,,,,,,,,,,,,,,,,,,,,,,,,,,,,,,,,,,,,,,,,,,,,,,,,
,,,,,,,,,,,,,,,,,60bc011503db109b7d46851d,33,2022-02-12_13h45.28.310,lexical_decision_task_DD_L2,2021.2.3,Win32,60.01680471,m,1,0.9105,,,,,,,,0.9105,1,0,7,7,5,1,1001,OBTAIN,m,,,,,,,,,,,,,,,,,,,,,,,,,,,,,,,,,,,,,,,,,,,,,,,,,,,,,,,,,,,,,,,,,,
,,,,,,,,,,,,,,,,,60bc011503db109b7d46851d,33,2022-02-12_13h45.28.310,lexical_decision_task_DD_L2,2021.2.3,Win32,60.01680471,z,1,0.8456,,,,,,,,0.8456,1,0,8,8,15,1,1001,WHAISE,z,,,,,,,,,,,,,,,,,,,,,,,,,,,,,,,,,,,,,,,,,,,,,,,,,,,,,,,,,,,,,,,,,,
,,,,,,,,,,,,,,,,,60bc011503db109b7d46851d,33,2022-02-12_13h45.28.310,lexical_decision_task_DD_L2,2021.2.3,Win32,60.01680471,m,1,1.0885,,,,,,,,1.0885,1,0,9,9,2,1,1001,ALMOND,m,,,,,,,,,,,,,,,,,,,,,,,,,,,,,,,,,,,,,,,,,,,,,,,,,,,,,,,,,,,,,,,,,,
,,,,,,,,,,,,,,,,,60bc011503db109b7d46851d,33,2022-02-12_13h45.28.310,lexical_decision_task_DD_L2,2021.2.3,Win32,60.01680471,z,1,0.85,,,,,,,,0.85,1,0,10,10,13,1,1001,ROUPET,z,,,,,,,,,,,,,,,,,,,,,,,,,,,,,,,,,,,,,,,,,,,,,,,,,,,,,,,,,,,,,,,,,,
,,,,,,,,,,,,,,,,,60bc011503db109b7d46851d,33,2022-02-12_13h45.28.310,lexical_decision_task_DD_L2,2021.2.3,Win32,60.01680471,z,0,0.8592,,,,,,,,0.8592,0,0,11,11,3,1,1001,MATRIX,m,,,,,,,,,,,,,,,,,,,,,,,,,,,,,,,,,,,,,,,,,,,,,,,,,,,,,,,,,,,,,,,,,,
,,,,,,,,,,,,,,,,,60bc011503db109b7d46851d,33,2022-02-12_13h45.28.310,lexical_decision_task_DD_L2,2021.2.3,Win32,60.01680471,z,1,0.8219,,,,,,,,0.8219,1,0,12,12,11,1,1001,RASHET,z,,,,,,,,,,,,,,,,,,,,,,,,,,,,,,,,,,,,,,,,,,,,,,,,,,,,,,,,,,,,,,,,,,
,,,,,,,,,,,,,,,,,60bc011503db109b7d46851d,33,2022-02-12_13h45.28.310,lexical_decision_task_DD_L2,2021.2.3,Win32,60.01680471,z,1,0.6578,,,,,,,,0.6578,1,0,13,13,8,1,1001,ASLERT,z,,,,,,,,,,,,,,,,,,,,,,,,,,,,,,,,,,,,,,,,,,,,,,,,,,,,,,,,,,,,,,,,,,
,,,,,,,,,,,,,,,,,60bc011503db109b7d46851d,33,2022-02-12_13h45.28.310,lexical_decision_task_DD_L2,2021.2.3,Win32,60.01680471,m,1,0.9161,,,,,,,,0.9161,1,0,14,14,1,1,1001,ADJUST,m,,,,,,,,,,,,,,,,,,,,,,,,,,,,,,,,,,,,,,,,,,,,,,,,,,,,,,,,,,,,,,,,,,
,,,,,,,,,,,,,,,,,60bc011503db109b7d46851d,33,2022-02-12_13h45.28.310,lexical_decision_task_DD_L2,2021.2.3,Win32,60.01680471,z,1,0.8266,,,,,,,,0.8266,1,0,15,15,9,1,1001,FARINY,z,,,,,,,,,,,,,,,,,,,,,,,,,,,,,,,,,,,,,,,,,,,,,,,,,,,,,,,,,,,,,,,,,,
space,114.9694,0.356445313,0,0,0,0,,,,,,1,end_of_practice,"You have completed the practice trials. During the experimental trials, you will not receive feedback. 
Before you begin, please ensure that you are in a comfortable and quiet location and will not be disturbed for about 15 minutes, as we cannot use your data if you do not complete all the trials. 
 When you are ready to start the experimental trials, please press space or touch the button below.",,,60bc011503db109b7d46851d,33,2022-02-12_13h45.28.310,lexical_decision_task_DD_L2,2021.2.3,Win32,60.01680471,,,,,,,,,,,,,,,,,,,,,0,0,0,0,1,,,,,,,,,,,,,,,,,,,,,,,,,,,,,,,,,,,,,,,,,,,,,,,,,,,,,,,,,,,,,
,,,,,,,,,,,,,,,,,60bc011503db109b7d46851d,33,2022-02-12_13h45.28.310,lexical_decision_task_DD_L2,2021.2.3,Win32,60.01680471,,,,,,,,,,,0.4702,1,,,,,,,,,,,,,,z,1,0.4702,,,,,,,,0.356445313,0,0,0,0,,0,0,0,88,1,GLUSH,HB,old,z,./images/GLUSHHB.png,,,,,,,,,,,,,,,,,,,,,,,,,,,,,,,,,,,
,,,,,,,,,,,,,,,,,60bc011503db109b7d46851d,33,2022-02-12_13h45.28.310,lexical_decision_task_DD_L2,2021.2.3,Win32,60.01680471,,,,,,,,,,,1.9138,1,,,,,,,,,,,,,,z,1,1.9138,,,,,,,,0.356445313,0,0,0,0,,0,1,1,100,1,DRIBS,HB,old,z,./images/DRIBSHB.png,,,,,,,,,,,,,,,,,,,,,,,,,,,,,,,,,,,
,,,,,,,,,,,,,,,,,60bc011503db109b7d46851d,33,2022-02-12_13h45.28.310,lexical_decision_task_DD_L2,2021.2.3,Win32,60.01680471,,,,,,,,,,,1.0465,1,,,,,,,,,,,,,,z,1,1.0465,,,,,,,,0.356445313,0,0,0,0,,0,2,2,122,1,BLOOT,LB,old,z,./images/BLOOTLB.png,,,,,,,,,,,,,,,,,,,,,,,,,,,,,,,,,,,
,,,,,,,,,,,,,,,,,60bc011503db109b7d46851d,33,2022-02-12_13h45.28.310,lexical_decision_task_DD_L2,2021.2.3,Win32,60.01680471,,,,,,,,,,,1.0611,1,,,,,,,,,,,,,,m,1,1.0611,,,,,,,,0.356445313,0,0,0,0,,0,3,3,3,1,FINGER,HB,old,m,./images/FINGERHB.png,,,,,,,,,,,,,,,,,,,,,,,,,,,,,,,,,,,
,,,,,,,,,,,,,,,,,60bc011503db109b7d46851d,33,2022-02-12_13h45.28.310,lexical_decision_task_DD_L2,2021.2.3,Win32,60.01680471,,,,,,,,,,,1.2671,0,,,,,,,,,,,,,,m,0,1.2671,,,,,,,,0.356445313,0,0,0,0,,0,4,4,142,1,PLASK,HB,old,z,./images/PLASKHB.png,,,,,,,,,,,,,,,,,,,,,,,,,,,,,,,,,,,
,,,,,,,,,,,,,,,,,60bc011503db109b7d46851d,33,2022-02-12_13h45.28.310,lexical_decision_task_DD_L2,2021.2.3,Win32,60.01680471,,,,,,,,,,,1.383,1,,,,,,,,,,,,,,z,1,1.383,,,,,,,,0.356445313,0,0,0,0,,0,5,5,166,1,SHORY,HB,old,z,./images/SHORYHB.png,,,,,,,,,,,,,,,,,,,,,,,,,,,,,,,,,,,
,,,,,,,,,,,,,,,,,60bc011503db109b7d46851d,33,2022-02-12_13h45.28.310,lexical_decision_task_DD_L2,2021.2.3,Win32,60.01680471,,,,,,,,,,,1.0976,1,,,,,,,,,,,,,,z,1,1.0976,,,,,,,,0.356445313,0,0,0,0,,0,6,6,130,1,CRILL,HB,old,z,./images/CRILLHB.png,,,,,,,,,,,,,,,,,,,,,,,,,,,,,,,,,,,
,,,,,,,,,,,,,,,,,60bc011503db109b7d46851d,33,2022-02-12_13h45.28.310,lexical_decision_task_DD_L2,2021.2.3,Win32,60.01680471,,,,,,,,,,,1.2788,1,,,,,,,,,,,,,,m,1,1.2788,,,,,,,,0.356445313,0,0,0,0,,0,7,7,11,1,BONNET,C,old,m,./images/BONNET.png,,,,,,,,,,,,,,,,,,,,,,,,,,,,,,,,,,,
,,,,,,,,,,,,,,,,,60bc011503db109b7d46851d,33,2022-02-12_13h45.28.310,lexical_decision_task_DD_L2,2021.2.3,Win32,60.01680471,,,,,,,,,,,0.6575,1,,,,,,,,,,,,,,z,1,0.6575,,,,,,,,0.356445313,0,0,0,0,,0,8,8,90,1,NEAST,C,old,z,./images/NEAST.png,,,,,,,,,,,,,,,,,,,,,,,,,,,,,,,,,,,
,,,,,,,,,,,,,,,,,60bc011503db109b7d46851d,33,2022-02-12_13h45.28.310,lexical_decision_task_DD_L2,2021.2.3,Win32,60.01680471,,,,,,,,,,,0.7205,1,,,,,,,,,,,,,,z,1,0.7205,,,,,,,,0.356445313,0,0,0,0,,0,9,9,105,1,MOKER,C,old,z,./images/MOKER.png,,,,,,,,,,,,,,,,,,,,,,,,,,,,,,,,,,,
,,,,,,,,,,,,,,,,,60bc011503db109b7d46851d,33,2022-02-12_13h45.28.310,lexical_decision_task_DD_L2,2021.2.3,Win32,60.01680471,,,,,,,,,,,1.0821,1,,,,,,,,,,,,,,m,1,1.0821,,,,,,,,0.356445313,0,0,0,0,,0,10,10,55,1,MUFFIN,LB,old,m,./images/MUFFINLB.png,,,,,,,,,,,,,,,,,,,,,,,,,,,,,,,,,,,
,,,,,,,,,,,,,,,,,60bc011503db109b7d46851d,33,2022-02-12_13h45.28.310,lexical_decision_task_DD_L2,2021.2.3,Win32,60.01680471,,,,,,,,,,,0.6616,1,,,,,,,,,,,,,,m,1,0.6616,,,,,,,,0.356445313,0,0,0,0,,0,11,11,40,1,SWING,LB,old,m,./images/SWINGLB.png,,,,,,,,,,,,,,,,,,,,,,,,,,,,,,,,,,,
,,,,,,,,,,,,,,,,,60bc011503db109b7d46851d,33,2022-02-12_13h45.28.310,lexical_decision_task_DD_L2,2021.2.3,Win32,60.01680471,,,,,,,,,,,0.8123,1,,,,,,,,,,,,,,m,1,0.8123,,,,,,,,0.356445313,0,0,0,0,,0,12,12,70,1,URINE,LB,old,m,./images/URINELB.png,,,,,,,,,,,,,,,,,,,,,,,,,,,,,,,,,,,
,,,,,,,,,,,,,,,,,60bc011503db109b7d46851d,33,2022-02-12_13h45.28.310,lexical_decision_task_DD_L2,2021.2.3,Win32,60.01680471,,,,,,,,,,,0.6204,1,,,,,,,,,,,,,,m,1,0.6204,,,,,,,,0.356445313,0,0,0,0,,0,13,13,5,1,PASTA,C,old,m,./images/PASTA.png,,,,,,,,,,,,,,,,,,,,,,,,,,,,,,,,,,,
,,,,,,,,,,,,,,,,,60bc011503db109b7d46851d,33,2022-02-12_13h45.28.310,lexical_decision_task_DD_L2,2021.2.3,Win32,60.01680471,,,,,,,,,,,0.6448,1,,,,,,,,,,,,,,m,1,0.6448,,,,,,,,0.356445313,0,0,0,0,,0,14,14,14,1,PICKLE,C,old,m,./images/PICKLE.png,,,,,,,,,,,,,,,,,,,,,,,,,,,,,,,,,,,
,,,,,,,,,,,,,,,,,60bc011503db109b7d46851d,33,2022-02-12_13h45.28.310,lexical_decision_task_DD_L2,2021.2.3,Win32,60.01680471,,,,,,,,,,,0.6807,1,,,,,,,,,,,,,,m,1,0.6807,,,,,,,,0.356445313,0,0,0,0,,0,15,15,6,1,SQUARE,HB,old,m,./images/SQUAREHB.png,,,,,,,,,,,,,,,,,,,,,,,,,,,,,,,,,,,
,,,,,,,,,,,,,,,,,60bc011503db109b7d46851d,33,2022-02-12_13h45.28.310,lexical_decision_task_DD_L2,2021.2.3,Win32,60.01680471,,,,,,,,,,,1.0915,1,,,,,,,,,,,,,,m,1,1.0915,,,,,,,,0.356445313,0,0,0,0,,0,16,16,83,1,JUNGLE,C,old,m,./images/JUNGLE.png,,,,,,,,,,,,,,,,,,,,,,,,,,,,,,,,,,,
,,,,,,,,,,,,,,,,,60bc011503db109b7d46851d,33,2022-02-12_13h45.28.310,lexical_decision_task_DD_L2,2021.2.3,Win32,60.01680471,,,,,,,,,,,0.8724,1,,,,,,,,,,,,,,z,1,0.8724,,,,,,,,0.356445313,0,0,0,0,,0,17,17,139,1,BLEAR,HB,old,z,./images/BLEARHB.png,,,,,,,,,,,,,,,,,,,,,,,,,,,,,,,,,,,
,,,,,,,,,,,,,,,,,60bc011503db109b7d46851d,33,2022-02-12_13h45.28.310,lexical_decision_task_DD_L2,2021.2.3,Win32,60.01680471,,,,,,,,,,,0.9093,1,,,,,,,,,,,,,,m,1,0.9093,,,,,,,,0.356445313,0,0,0,0,,0,18,18,80,1,WEASEL,C,old,m,./images/WEASEL.png,,,,,,,,,,,,,,,,,,,,,,,,,,,,,,,,,,,
,,,,,,,,,,,,,,,,,60bc011503db109b7d46851d,33,2022-02-12_13h45.28.310,lexical_decision_task_DD_L2,2021.2.3,Win32,60.01680471,,,,,,,,,,,0.7459,1,,,,,,,,,,,,,,z,1,0.7459,,,,,,,,0.356445313,0,0,0,0,,0,19,19,128,1,GRIFT,LB,old,z,./images/GRIFTLB.png,,,,,,,,,,,,,,,,,,,,,,,,,,,,,,,,,,,
,,,,,,,,,,,,,,,,,60bc011503db109b7d46851d,33,2022-02-12_13h45.28.310,lexical_decision_task_DD_L2,2021.2.3,Win32,60.01680471,,,,,,,,,,,0.693,1,,,,,,,,,,,,,,m,1,0.693,,,,,,,,0.356445313,0,0,0,0,,0,20,20,62,1,PURSE,C,old,m,./images/PURSE.png,,,,,,,,,,,,,,,,,,,,,,,,,,,,,,,,,,,
,,,,,,,,,,,,,,,,,60bc011503db109b7d46851d,33,2022-02-12_13h45.28.310,lexical_decision_task_DD_L2,2021.2.3,Win32,60.01680471,,,,,,,,,,,0.8247,1,,,,,,,,,,,,,,z,1,0.8247,,,,,,,,0.356445313,0,0,0,0,,0,21,21,165,1,TROWN,C,old,z,./images/TROWN.png,,,,,,,,,,,,,,,,,,,,,,,,,,,,,,,,,,,
,,,,,,,,,,,,,,,,,60bc011503db109b7d46851d,33,2022-02-12_13h45.28.310,lexical_decision_task_DD_L2,2021.2.3,Win32,60.01680471,,,,,,,,,,,0.6785,1,,,,,,,,,,,,,,z,1,0.6785,,,,,,,,0.356445313,0,0,0,0,,0,22,22,161,1,BLAPS,LB,old,z,./images/BLAPSLB.png,,,,,,,,,,,,,,,,,,,,,,,,,,,,,,,,,,,
,,,,,,,,,,,,,,,,,60bc011503db109b7d46851d,33,2022-02-12_13h45.28.310,lexical_decision_task_DD_L2,2021.2.3,Win32,60.01680471,,,,,,,,,,,0.7389,1,,,,,,,,,,,,,,z,1,0.7389,,,,,,,,0.356445313,0,0,0,0,,0,23,23,87,1,TRING,C,old,z,./images/TRING.png,,,,,,,,,,,,,,,,,,,,,,,,,,,,,,,,,,,
,,,,,,,,,,,,,,,,,60bc011503db109b7d46851d,33,2022-02-12_13h45.28.310,lexical_decision_task_DD_L2,2021.2.3,Win32,60.01680471,,,,,,,,,,,0.6603,1,,,,,,,,,,,,,,z,1,0.6603,,,,,,,,0.356445313,0,0,0,0,,0,24,24,102,1,DULLE,C,old,z,./images/DULLE.png,,,,,,,,,,,,,,,,,,,,,,,,,,,,,,,,,,,
,,,,,,,,,,,,,,,,,60bc011503db109b7d46851d,33,2022-02-12_13h45.28.310,lexical_decision_task_DD_L2,2021.2.3,Win32,60.01680471,,,,,,,,,,,0.7633,1,,,,,,,,,,,,,,m,1,0.7633,,,,,,,,0.356445313,0,0,0,0,,0,25,25,28,1,FALCON,LB,old,m,./images/FALCONLB.png,,,,,,,,,,,,,,,,,,,,,,,,,,,,,,,,,,,
,,,,,,,,,,,,,,,,,60bc011503db109b7d46851d,33,2022-02-12_13h45.28.310,lexical_decision_task_DD_L2,2021.2.3,Win32,60.01680471,,,,,,,,,,,0.7008,1,,,,,,,,,,,,,,z,1,0.7008,,,,,,,,0.356445313,0,0,0,0,,0,26,26,126,1,GUELS,C,old,z,./images/GUELS.png,,,,,,,,,,,,,,,,,,,,,,,,,,,,,,,,,,,
,,,,,,,,,,,,,,,,,60bc011503db109b7d46851d,33,2022-02-12_13h45.28.310,lexical_decision_task_DD_L2,2021.2.3,Win32,60.01680471,,,,,,,,,,,0.6966,1,,,,,,,,,,,,,,z,1,0.6966,,,,,,,,0.356445313,0,0,0,0,,0,27,27,113,1,LINEW,LB,old,z,./images/LINEWLB.png,,,,,,,,,,,,,,,,,,,,,,,,,,,,,,,,,,,
,,,,,,,,,,,,,,,,,60bc011503db109b7d46851d,33,2022-02-12_13h45.28.310,lexical_decision_task_DD_L2,2021.2.3,Win32,60.01680471,,,,,,,,,,,0.8017,1,,,,,,,,,,,,,,m,1,0.8017,,,,,,,,0.356445313,0,0,0,0,,0,28,28,74,1,CEMENT,C,old,m,./images/CEMENT.png,,,,,,,,,,,,,,,,,,,,,,,,,,,,,,,,,,,
,,,,,,,,,,,,,,,,,60bc011503db109b7d46851d,33,2022-02-12_13h45.28.310,lexical_decision_task_DD_L2,2021.2.3,Win32,60.01680471,,,,,,,,,,,0.6433,1,,,,,,,,,,,,,,m,1,0.6433,,,,,,,,0.356445313,0,0,0,0,,0,29,29,38,1,LADDER,C,old,m,./images/LADDER.png,,,,,,,,,,,,,,,,,,,,,,,,,,,,,,,,,,,
,,,,,,,,,,,,,,,,,60bc011503db109b7d46851d,33,2022-02-12_13h45.28.310,lexical_decision_task_DD_L2,2021.2.3,Win32,60.01680471,,,,,,,,,,,0.8566,1,,,,,,,,,,,,,,m,1,0.8566,,,,,,,,0.356445313,0,0,0,0,,0,30,30,52,1,BANNER,LB,old,m,./images/BANNERLB.png,,,,,,,,,,,,,,,,,,,,,,,,,,,,,,,,,,,
,,,,,,,,,,,,,,,,,60bc011503db109b7d46851d,33,2022-02-12_13h45.28.310,lexical_decision_task_DD_L2,2021.2.3,Win32,60.01680471,,,,,,,,,,,0.6797,0,,,,,,,,,,,,,,z,0,0.6797,,,,,,,,0.356445313,0,0,0,0,,0,31,31,21,1,KIDNEY,HB,old,m,./images/KIDNEYHB.png,,,,,,,,,,,,,,,,,,,,,,,,,,,,,,,,,,,
,,,,,,,,,,,,,,,,,60bc011503db109b7d46851d,33,2022-02-12_13h45.28.310,lexical_decision_task_DD_L2,2021.2.3,Win32,60.01680471,,,,,,,,,,,0.6807,1,,,,,,,,,,,,,,z,1,0.6807,,,,,,,,0.356445313,0,0,0,0,,0,32,32,148,1,JOMS,HB,old,z,./images/JOMSHB.png,,,,,,,,,,,,,,,,,,,,,,,,,,,,,,,,,,,
,,,,,,,,,,,,,,,,,60bc011503db109b7d46851d,33,2022-02-12_13h45.28.310,lexical_decision_task_DD_L2,2021.2.3,Win32,60.01680471,,,,,,,,,,,1.0326,1,,,,,,,,,,,,,,m,1,1.0326,,,,,,,,0.356445313,0,0,0,0,,0,33,33,31,1,QUILL,LB,old,m,./images/QUILLLB.png,,,,,,,,,,,,,,,,,,,,,,,,,,,,,,,,,,,
,,,,,,,,,,,,,,,,,60bc011503db109b7d46851d,33,2022-02-12_13h45.28.310,lexical_decision_task_DD_L2,2021.2.3,Win32,60.01680471,,,,,,,,,,,0.7828,1,,,,,,,,,,,,,,m,1,0.7828,,,,,,,,0.356445313,0,0,0,0,,0,34,34,30,1,STORM,HB,old,m,./images/STORMHB.png,,,,,,,,,,,,,,,,,,,,,,,,,,,,,,,,,,,
,,,,,,,,,,,,,,,,,60bc011503db109b7d46851d,33,2022-02-12_13h45.28.310,lexical_decision_task_DD_L2,2021.2.3,Win32,60.01680471,,,,,,,,,,,0.7595,1,,,,,,,,,,,,,,z,1,0.7595,,,,,,,,0.356445313,0,0,0,0,,0,35,35,135,1,JOODY,C,old,z,./images/JOODY.png,,,,,,,,,,,,,,,,,,,,,,,,,,,,,,,,,,,
,,,,,,,,,,,,,,,,,60bc011503db109b7d46851d,33,2022-02-12_13h45.28.310,lexical_decision_task_DD_L2,2021.2.3,Win32,60.01680471,,,,,,,,,,,0.6412,1,,,,,,,,,,,,,,m,1,0.6412,,,,,,,,0.356445313,0,0,0,0,,0,36,36,64,1,JELLY,LB,old,m,./images/JELLYLB.png,,,,,,,,,,,,,,,,,,,,,,,,,,,,,,,,,,,
,,,,,,,,,,,,,,,,,60bc011503db109b7d46851d,33,2022-02-12_13h45.28.310,lexical_decision_task_DD_L2,2021.2.3,Win32,60.01680471,,,,,,,,,,,0.823,1,,,,,,,,,,,,,,z,1,0.823,,,,,,,,0.356445313,0,0,0,0,,0,37,37,118,1,BAVEL,HB,old,z,./images/BAVELHB.png,,,,,,,,,,,,,,,,,,,,,,,,,,,,,,,,,,,
,,,,,,,,,,,,,,,,,60bc011503db109b7d46851d,33,2022-02-12_13h45.28.310,lexical_decision_task_DD_L2,2021.2.3,Win32,60.01680471,,,,,,,,,,,0.6631,1,,,,,,,,,,,,,,m,1,0.6631,,,,,,,,0.356445313,0,0,0,0,,0,38,38,73,1,SNACK,LB,old,m,./images/SNACKLB.png,,,,,,,,,,,,,,,,,,,,,,,,,,,,,,,,,,,
,,,,,,,,,,,,,,,,,60bc011503db109b7d46851d,33,2022-02-12_13h45.28.310,lexical_decision_task_DD_L2,2021.2.3,Win32,60.01680471,,,,,,,,,,,0.548,1,,,,,,,,,,,,,,m,1,0.548,,,,,,,,0.356445313,0,0,0,0,,0,39,39,46,1,PEARL,LB,old,m,./images/PEARLLB.png,,,,,,,,,,,,,,,,,,,,,,,,,,,,,,,,,,,
,,,,,,,,,,,,,,,,,60bc011503db109b7d46851d,33,2022-02-12_13h45.28.310,lexical_decision_task_DD_L2,2021.2.3,Win32,60.01680471,,,,,,,,,,,0.6626,1,,,,,,,,,,,,,,z,1,0.6626,,,,,,,,0.356445313,0,0,0,0,,0,40,40,141,1,PLEET,C,old,z,./images/PLEET.png,,,,,,,,,,,,,,,,,,,,,,,,,,,,,,,,,,,
,,,,,,,,,,,,,,,,,60bc011503db109b7d46851d,33,2022-02-12_13h45.28.310,lexical_decision_task_DD_L2,2021.2.3,Win32,60.01680471,,,,,,,,,,,0.6761,1,,,,,,,,,,,,,,m,1,0.6761,,,,,,,,0.356445313,0,0,0,0,space,0,41,41,34,1,CANYON,LB,old,m,./images/CANYONLB.png,12.0357,,,,,,,,,,,,,,,,,,,,,,,,,,,,,,,,,,
,,,,,,,,,,,,,,,,,60bc011503db109b7d46851d,33,2022-02-12_13h45.28.310,lexical_decision_task_DD_L2,2021.2.3,Win32,60.01680471,,,,,,,,,,,0.8809,1,,,,,,,,,,,,,,z,1,0.8809,,,,,,,,0.356445313,0,0,0,0,,0,42,42,125,1,MOOKY,LB,old,z,./images/MOOKYLB.png,,,,,,,,,,,,,,,,,,,,,,,,,,,,,,,,,,,
,,,,,,,,,,,,,,,,,60bc011503db109b7d46851d,33,2022-02-12_13h45.28.310,lexical_decision_task_DD_L2,2021.2.3,Win32,60.01680471,,,,,,,,,,,0.7981,1,,,,,,,,,,,,,,m,1,0.7981,,,,,,,,0.356445313,0,0,0,0,,0,43,43,12,1,SHORE,HB,old,m,./images/SHOREHB.png,,,,,,,,,,,,,,,,,,,,,,,,,,,,,,,,,,,
,,,,,,,,,,,,,,,,,60bc011503db109b7d46851d,33,2022-02-12_13h45.28.310,lexical_decision_task_DD_L2,2021.2.3,Win32,60.01680471,,,,,,,,,,,0.6647,1,,,,,,,,,,,,,,z,1,0.6647,,,,,,,,0.356445313,0,0,0,0,,0,44,44,119,1,PAFER,LB,old,z,./images/PAFERLB.png,,,,,,,,,,,,,,,,,,,,,,,,,,,,,,,,,,,
,,,,,,,,,,,,,,,,,60bc011503db109b7d46851d,33,2022-02-12_13h45.28.310,lexical_decision_task_DD_L2,2021.2.3,Win32,60.01680471,,,,,,,,,,,0.5803,1,,,,,,,,,,,,,,m,1,0.5803,,,,,,,,0.356445313,0,0,0,0,,0,45,45,77,1,COUCH,C,old,m,./images/COUCH.png,,,,,,,,,,,,,,,,,,,,,,,,,,,,,,,,,,,
,,,,,,,,,,,,,,,,,60bc011503db109b7d46851d,33,2022-02-12_13h45.28.310,lexical_decision_task_DD_L2,2021.2.3,Win32,60.01680471,,,,,,,,,,,0.7558,1,,,,,,,,,,,,,,z,1,0.7558,,,,,,,,0.356445313,0,0,0,0,,0,46,46,121,1,CEERS,HB,old,z,./images/CEERSHB.png,,,,,,,,,,,,,,,,,,,,,,,,,,,,,,,,,,,
,,,,,,,,,,,,,,,,,60bc011503db109b7d46851d,33,2022-02-12_13h45.28.310,lexical_decision_task_DD_L2,2021.2.3,Win32,60.01680471,,,,,,,,,,,1.0708,1,,,,,,,,,,,,,,z,1,1.0708,,,,,,,,0.356445313,0,0,0,0,,0,47,47,145,1,LAMEL,HB,old,z,./images/LAMELHB.png,,,,,,,,,,,,,,,,,,,,,,,,,,,,,,,,,,,
,,,,,,,,,,,,,,,,,60bc011503db109b7d46851d,33,2022-02-12_13h45.28.310,lexical_decision_task_DD_L2,2021.2.3,Win32,60.01680471,,,,,,,,,,,0.5966,1,,,,,,,,,,,,,,z,1,0.5966,,,,,,,,0.356445313,0,0,0,0,,0,48,48,89,1,DRIEK,LB,old,z,./images/DRIEKLB.png,,,,,,,,,,,,,,,,,,,,,,,,,,,,,,,,,,,
,,,,,,,,,,,,,,,,,60bc011503db109b7d46851d,33,2022-02-12_13h45.28.310,lexical_decision_task_DD_L2,2021.2.3,Win32,60.01680471,,,,,,,,,,,0.6507,1,,,,,,,,,,,,,,m,1,0.6507,,,,,,,,0.356445313,0,0,0,0,,0,49,49,63,1,MIRROR,HB,old,m,./images/MIRRORHB.png,,,,,,,,,,,,,,,,,,,,,,,,,,,,,,,,,,,
,,,,,,,,,,,,,,,,,60bc011503db109b7d46851d,33,2022-02-12_13h45.28.310,lexical_decision_task_DD_L2,2021.2.3,Win32,60.01680471,,,,,,,,,,,0.6311,1,,,,,,,,,,,,,,m,1,0.6311,,,,,,,,0.356445313,0,0,0,0,,0,50,50,45,1,KITTEN,HB,old,m,./images/KITTENHB.png,,,,,,,,,,,,,,,,,,,,,,,,,,,,,,,,,,,
,,,,,,,,,,,,,,,,,60bc011503db109b7d46851d,33,2022-02-12_13h45.28.310,lexical_decision_task_DD_L2,2021.2.3,Win32,60.01680471,,,,,,,,,,,0.5984,1,,,,,,,,,,,,,,m,1,0.5984,,,,,,,,0.356445313,0,0,0,0,,0,51,51,67,1,SAILOR,LB,old,m,./images/SAILORLB.png,,,,,,,,,,,,,,,,,,,,,,,,,,,,,,,,,,,
,,,,,,,,,,,,,,,,,60bc011503db109b7d46851d,33,2022-02-12_13h45.28.310,lexical_decision_task_DD_L2,2021.2.3,Win32,60.01680471,,,,,,,,,,,0.8164,1,,,,,,,,,,,,,,z,1,0.8164,,,,,,,,0.356445313,0,0,0,0,,0,52,52,144,1,NAIRY,C,old,z,./images/NAIRY.png,,,,,,,,,,,,,,,,,,,,,,,,,,,,,,,,,,,
,,,,,,,,,,,,,,,,,60bc011503db109b7d46851d,33,2022-02-12_13h45.28.310,lexical_decision_task_DD_L2,2021.2.3,Win32,60.01680471,,,,,,,,,,,0.7175,1,,,,,,,,,,,,,,z,1,0.7175,,,,,,,,0.356445313,0,0,0,0,,0,53,53,86,1,AIFED,LB,old,z,./images/AIFEDLB.png,,,,,,,,,,,,,,,,,,,,,,,,,,,,,,,,,,,
,,,,,,,,,,,,,,,,,60bc011503db109b7d46851d,33,2022-02-12_13h45.28.310,lexical_decision_task_DD_L2,2021.2.3,Win32,60.01680471,,,,,,,,,,,0.6554,1,,,,,,,,,,,,,,z,1,0.6554,,,,,,,,0.356445313,0,0,0,0,,0,54,54,117,1,STEEG,C,old,z,./images/STEEG.png,,,,,,,,,,,,,,,,,,,,,,,,,,,,,,,,,,,
,,,,,,,,,,,,,,,,,60bc011503db109b7d46851d,33,2022-02-12_13h45.28.310,lexical_decision_task_DD_L2,2021.2.3,Win32,60.01680471,,,,,,,,,,,0.6324,1,,,,,,,,,,,,,,z,1,0.6324,,,,,,,,0.356445313,0,0,0,0,,0,55,55,131,1,NACES,LB,old,z,./images/NACESLB.png,,,,,,,,,,,,,,,,,,,,,,,,,,,,,,,,,,,
,,,,,,,,,,,,,,,,,60bc011503db109b7d46851d,33,2022-02-12_13h45.28.310,lexical_decision_task_DD_L2,2021.2.3,Win32,60.01680471,,,,,,,,,,,0.9437,1,,,,,,,,,,,,,,m,1,0.9437,,,,,,,,0.356445313,0,0,0,0,,0,56,56,75,1,GRAIN,HB,old,m,./images/GRAINHB.png,,,,,,,,,,,,,,,,,,,,,,,,,,,,,,,,,,,
,,,,,,,,,,,,,,,,,60bc011503db109b7d46851d,33,2022-02-12_13h45.28.310,lexical_decision_task_DD_L2,2021.2.3,Win32,60.01680471,,,,,,,,,,,0.63,1,,,,,,,,,,,,,,m,1,0.63,,,,,,,,0.356445313,0,0,0,0,,0,57,57,36,1,THROAT,HB,old,m,./images/THROATHB.png,,,,,,,,,,,,,,,,,,,,,,,,,,,,,,,,,,,
,,,,,,,,,,,,,,,,,60bc011503db109b7d46851d,33,2022-02-12_13h45.28.310,lexical_decision_task_DD_L2,2021.2.3,Win32,60.01680471,,,,,,,,,,,0.635,1,,,,,,,,,,,,,,m,1,0.635,,,,,,,,0.356445313,0,0,0,0,,0,58,58,65,1,FARMER,C,old,m,./images/FARMER.png,,,,,,,,,,,,,,,,,,,,,,,,,,,,,,,,,,,
,,,,,,,,,,,,,,,,,60bc011503db109b7d46851d,33,2022-02-12_13h45.28.310,lexical_decision_task_DD_L2,2021.2.3,Win32,60.01680471,,,,,,,,,,,0.6724,1,,,,,,,,,,,,,,m,1,0.6724,,,,,,,,0.356445313,0,0,0,0,,0,59,59,1,1,PLANK,LB,old,m,./images/PLANKLB.png,,,,,,,,,,,,,,,,,,,,,,,,,,,,,,,,,,,
,,,,,,,,,,,,,,,,,60bc011503db109b7d46851d,33,2022-02-12_13h45.28.310,lexical_decision_task_DD_L2,2021.2.3,Win32,60.01680471,,,,,,,,,,,0.6979,1,,,,,,,,,,,,,,m,1,0.6979,,,,,,,,0.356445313,0,0,0,0,,0,60,60,51,1,ONION,HB,old,m,./images/ONIONHB.png,,,,,,,,,,,,,,,,,,,,,,,,,,,,,,,,,,,
,,,,,,,,,,,,,,,,,60bc011503db109b7d46851d,33,2022-02-12_13h45.28.310,lexical_decision_task_DD_L2,2021.2.3,Win32,60.01680471,,,,,,,,,,,0.9269,1,,,,,,,,,,,,,,z,1,0.9269,,,,,,,,0.356445313,0,0,0,0,,0,61,61,92,1,PAIMS,LB,old,z,./images/PAIMSLB.png,,,,,,,,,,,,,,,,,,,,,,,,,,,,,,,,,,,
,,,,,,,,,,,,,,,,,60bc011503db109b7d46851d,33,2022-02-12_13h45.28.310,lexical_decision_task_DD_L2,2021.2.3,Win32,60.01680471,,,,,,,,,,,0.8659,1,,,,,,,,,,,,,,z,1,0.8659,,,,,,,,0.356445313,0,0,0,0,,0,62,62,106,1,CLUMS,HB,old,z,./images/CLUMSHB.png,,,,,,,,,,,,,,,,,,,,,,,,,,,,,,,,,,,
,,,,,,,,,,,,,,,,,60bc011503db109b7d46851d,33,2022-02-12_13h45.28.310,lexical_decision_task_DD_L2,2021.2.3,Win32,60.01680471,,,,,,,,,,,0.7718,1,,,,,,,,,,,,,,z,1,0.7718,,,,,,,,0.356445313,0,0,0,0,,0,63,63,159,1,CUDDY,C,old,z,./images/CUDDY.png,,,,,,,,,,,,,,,,,,,,,,,,,,,,,,,,,,,
,,,,,,,,,,,,,,,,,60bc011503db109b7d46851d,33,2022-02-12_13h45.28.310,lexical_decision_task_DD_L2,2021.2.3,Win32,60.01680471,,,,,,,,,,,0.9365,1,,,,,,,,,,,,,,z,1,0.9365,,,,,,,,0.356445313,0,0,0,0,,0,64,64,103,1,FLORT,HB,old,z,./images/FLORTHB.png,,,,,,,,,,,,,,,,,,,,,,,,,,,,,,,,,,,
,,,,,,,,,,,,,,,,,60bc011503db109b7d46851d,33,2022-02-12_13h45.28.310,lexical_decision_task_DD_L2,2021.2.3,Win32,60.01680471,,,,,,,,,,,0.8744,1,,,,,,,,,,,,,,z,1,0.8744,,,,,,,,0.356445313,0,0,0,0,,0,65,65,143,1,MONGS,LB,old,z,./images/MONGSLB.png,,,,,,,,,,,,,,,,,,,,,,,,,,,,,,,,,,,
,,,,,,,,,,,,,,,,,60bc011503db109b7d46851d,33,2022-02-12_13h45.28.310,lexical_decision_task_DD_L2,2021.2.3,Win32,60.01680471,,,,,,,,,,,0.8243,0,,,,,,,,,,,,,,z,0,0.8243,,,,,,,,0.356445313,0,0,0,0,,0,66,66,16,1,PENCE,LB,old,m,./images/PENCELB.png,,,,,,,,,,,,,,,,,,,,,,,,,,,,,,,,,,,
,,,,,,,,,,,,,,,,,60bc011503db109b7d46851d,33,2022-02-12_13h45.28.310,lexical_decision_task_DD_L2,2021.2.3,Win32,60.01680471,,,,,,,,,,,0.7831,1,,,,,,,,,,,,,,z,1,0.7831,,,,,,,,0.356445313,0,0,0,0,,0,67,67,94,1,BLANS,HB,old,z,./images/BLANSHB.png,,,,,,,,,,,,,,,,,,,,,,,,,,,,,,,,,,,
,,,,,,,,,,,,,,,,,60bc011503db109b7d46851d,33,2022-02-12_13h45.28.310,lexical_decision_task_DD_L2,2021.2.3,Win32,60.01680471,,,,,,,,,,,0.8581,0,,,,,,,,,,,,,,z,0,0.8581,,,,,,,,0.356445313,0,0,0,0,,0,68,68,33,1,MAGGOT,HB,old,m,./images/MAGGOTHB.png,,,,,,,,,,,,,,,,,,,,,,,,,,,,,,,,,,,
,,,,,,,,,,,,,,,,,60bc011503db109b7d46851d,33,2022-02-12_13h45.28.310,lexical_decision_task_DD_L2,2021.2.3,Win32,60.01680471,,,,,,,,,,,0.6769,1,,,,,,,,,,,,,,z,1,0.6769,,,,,,,,0.356445313,0,0,0,0,,0,69,69,132,1,SCIFF,C,old,z,./images/SCIFF.png,,,,,,,,,,,,,,,,,,,,,,,,,,,,,,,,,,,
,,,,,,,,,,,,,,,,,60bc011503db109b7d46851d,33,2022-02-12_13h45.28.310,lexical_decision_task_DD_L2,2021.2.3,Win32,60.01680471,,,,,,,,,,,0.7231,1,,,,,,,,,,,,,,z,1,0.7231,,,,,,,,0.356445313,0,0,0,0,,0,70,70,147,1,ZOLES,C,old,z,./images/ZOLES.png,,,,,,,,,,,,,,,,,,,,,,,,,,,,,,,,,,,
,,,,,,,,,,,,,,,,,60bc011503db109b7d46851d,33,2022-02-12_13h45.28.310,lexical_decision_task_DD_L2,2021.2.3,Win32,60.01680471,,,,,,,,,,,0.6699,1,,,,,,,,,,,,,,z,1,0.6699,,,,,,,,0.356445313,0,0,0,0,,0,71,71,146,1,MOOST,LB,old,z,./images/MOOSTLB.png,,,,,,,,,,,,,,,,,,,,,,,,,,,,,,,,,,,
,,,,,,,,,,,,,,,,,60bc011503db109b7d46851d,33,2022-02-12_13h45.28.310,lexical_decision_task_DD_L2,2021.2.3,Win32,60.01680471,,,,,,,,,,,0.9799,1,,,,,,,,,,,,,,z,1,0.9799,,,,,,,,0.356445313,0,0,0,0,,0,72,72,154,1,THINT,HB,old,z,./images/THINTHB.png,,,,,,,,,,,,,,,,,,,,,,,,,,,,,,,,,,,
,,,,,,,,,,,,,,,,,60bc011503db109b7d46851d,33,2022-02-12_13h45.28.310,lexical_decision_task_DD_L2,2021.2.3,Win32,60.01680471,,,,,,,,,,,0.763,1,,,,,,,,,,,,,,z,1,0.763,,,,,,,,0.356445313,0,0,0,0,,0,73,73,129,1,PRANS,C,old,z,./images/PRANS.png,,,,,,,,,,,,,,,,,,,,,,,,,,,,,,,,,,,
,,,,,,,,,,,,,,,,,60bc011503db109b7d46851d,33,2022-02-12_13h45.28.310,lexical_decision_task_DD_L2,2021.2.3,Win32,60.01680471,,,,,,,,,,,0.6844,1,,,,,,,,,,,,,,m,1,0.6844,,,,,,,,0.356445313,0,0,0,0,,0,74,74,37,1,BIRTH,LB,old,m,./images/BIRTHLB.png,,,,,,,,,,,,,,,,,,,,,,,,,,,,,,,,,,,
,,,,,,,,,,,,,,,,,60bc011503db109b7d46851d,33,2022-02-12_13h45.28.310,lexical_decision_task_DD_L2,2021.2.3,Win32,60.01680471,,,,,,,,,,,0.6824,1,,,,,,,,,,,,,,m,1,0.6824,,,,,,,,0.356445313,0,0,0,0,,0,75,75,4,1,MUSCLE,LB,old,m,./images/MUSCLELB.png,,,,,,,,,,,,,,,,,,,,,,,,,,,,,,,,,,,
,,,,,,,,,,,,,,,,,60bc011503db109b7d46851d,33,2022-02-12_13h45.28.310,lexical_decision_task_DD_L2,2021.2.3,Win32,60.01680471,,,,,,,,,,,0.6972,1,,,,,,,,,,,,,,z,1,0.6972,,,,,,,,0.356445313,0,0,0,0,,0,76,76,96,1,KEAMS,C,old,z,./images/KEAMS.png,,,,,,,,,,,,,,,,,,,,,,,,,,,,,,,,,,,
,,,,,,,,,,,,,,,,,60bc011503db109b7d46851d,33,2022-02-12_13h45.28.310,lexical_decision_task_DD_L2,2021.2.3,Win32,60.01680471,,,,,,,,,,,0.7214,1,,,,,,,,,,,,,,z,1,0.7214,,,,,,,,0.356445313,0,0,0,0,,0,77,77,133,1,POWDY,HB,old,z,./images/POWDYHB.png,,,,,,,,,,,,,,,,,,,,,,,,,,,,,,,,,,,
,,,,,,,,,,,,,,,,,60bc011503db109b7d46851d,33,2022-02-12_13h45.28.310,lexical_decision_task_DD_L2,2021.2.3,Win32,60.01680471,,,,,,,,,,,0.8848,1,,,,,,,,,,,,,,m,1,0.8848,,,,,,,,0.356445313,0,0,0,0,,0,78,78,25,1,WRIST,LB,old,m,./images/WRISTLB.png,,,,,,,,,,,,,,,,,,,,,,,,,,,,,,,,,,,
,,,,,,,,,,,,,,,,,60bc011503db109b7d46851d,33,2022-02-12_13h45.28.310,lexical_decision_task_DD_L2,2021.2.3,Win32,60.01680471,,,,,,,,,,,0.7428,1,,,,,,,,,,,,,,z,1,0.7428,,,,,,,,0.356445313,0,0,0,0,,0,79,79,123,1,SEDGE,C,old,z,./images/SEDGE.png,,,,,,,,,,,,,,,,,,,,,,,,,,,,,,,,,,,
,,,,,,,,,,,,,,,,,60bc011503db109b7d46851d,33,2022-02-12_13h45.28.310,lexical_decision_task_DD_L2,2021.2.3,Win32,60.01680471,,,,,,,,,,,0.6992,1,,,,,,,,,,,,,,m,1,0.6992,,,,,,,,0.356445313,0,0,0,0,,0,80,80,10,1,BELLY,LB,old,m,./images/BELLYLB.png,,,,,,,,,,,,,,,,,,,,,,,,,,,,,,,,,,,
,,,,,,,,,,,,,,,,,60bc011503db109b7d46851d,33,2022-02-12_13h45.28.310,lexical_decision_task_DD_L2,2021.2.3,Win32,60.01680471,,,,,,,,,,,0.6485,1,,,,,,,,,,,,,,m,1,0.6485,,,,,,,,0.356445313,0,0,0,0,,0,81,81,76,1,INFANT,LB,old,m,./images/INFANTLB.png,,,,,,,,,,,,,,,,,,,,,,,,,,,,,,,,,,,
,,,,,,,,,,,,,,,,,60bc011503db109b7d46851d,33,2022-02-12_13h45.28.310,lexical_decision_task_DD_L2,2021.2.3,Win32,60.01680471,,,,,,,,,,,0.7417,1,,,,,,,,,,,,,,m,1,0.7417,,,,,,,,0.356445313,0,0,0,0,,0,82,82,0,1,TOMATO,HB,old,m,./images/TOMATOHB.png,,,,,,,,,,,,,,,,,,,,,,,,,,,,,,,,,,,
,,,,,,,,,,,,,,,,,60bc011503db109b7d46851d,33,2022-02-12_13h45.28.310,lexical_decision_task_DD_L2,2021.2.3,Win32,60.01680471,,,,,,,,,,,0.6811,1,,,,,,,,,,,,,,z,1,0.6811,,,,,,,,0.356445313,0,0,0,0,space,0,83,83,138,1,PLICE,C,old,z,./images/PLICE.png,1.9435,,,,,,,,,,,,,,,,,,,,,,,,,,,,,,,,,,
,,,,,,,,,,,,,,,,,60bc011503db109b7d46851d,33,2022-02-12_13h45.28.310,lexical_decision_task_DD_L2,2021.2.3,Win32,60.01680471,,,,,,,,,,,0.6463,1,,,,,,,,,,,,,,z,1,0.6463,,,,,,,,0.356445313,0,0,0,0,,0,84,84,104,1,GITTY,LB,old,z,./images/GITTYLB.png,,,,,,,,,,,,,,,,,,,,,,,,,,,,,,,,,,,
,,,,,,,,,,,,,,,,,60bc011503db109b7d46851d,33,2022-02-12_13h45.28.310,lexical_decision_task_DD_L2,2021.2.3,Win32,60.01680471,,,,,,,,,,,0.5256,1,,,,,,,,,,,,,,m,1,0.5256,,,,,,,,0.356445313,0,0,0,0,,0,85,85,35,1,PEACH,C,old,m,./images/PEACH.png,,,,,,,,,,,,,,,,,,,,,,,,,,,,,,,,,,,
,,,,,,,,,,,,,,,,,60bc011503db109b7d46851d,33,2022-02-12_13h45.28.310,lexical_decision_task_DD_L2,2021.2.3,Win32,60.01680471,,,,,,,,,,,0.6322,1,,,,,,,,,,,,,,z,1,0.6322,,,,,,,,0.356445313,0,0,0,0,,0,86,86,167,1,ZONET,LB,old,z,./images/ZONETLB.png,,,,,,,,,,,,,,,,,,,,,,,,,,,,,,,,,,,
,,,,,,,,,,,,,,,,,60bc011503db109b7d46851d,33,2022-02-12_13h45.28.310,lexical_decision_task_DD_L2,2021.2.3,Win32,60.01680471,,,,,,,,,,,0.9515,1,,,,,,,,,,,,,,z,1,0.9515,,,,,,,,0.356445313,0,0,0,0,,0,87,87,127,1,NINDY,HB,old,z,./images/NINDYHB.png,,,,,,,,,,,,,,,,,,,,,,,,,,,,,,,,,,,
,,,,,,,,,,,,,,,,,60bc011503db109b7d46851d,33,2022-02-12_13h45.28.310,lexical_decision_task_DD_L2,2021.2.3,Win32,60.01680471,,,,,,,,,,,0.7539,1,,,,,,,,,,,,,,m,1,0.7539,,,,,,,,0.356445313,0,0,0,0,,0,88,88,23,1,WALRUS,C,old,m,./images/WALRUS.png,,,,,,,,,,,,,,,,,,,,,,,,,,,,,,,,,,,
,,,,,,,,,,,,,,,,,60bc011503db109b7d46851d,33,2022-02-12_13h45.28.310,lexical_decision_task_DD_L2,2021.2.3,Win32,60.01680471,,,,,,,,,,,0.5843,1,,,,,,,,,,,,,,z,1,0.5843,,,,,,,,0.356445313,0,0,0,0,,0,89,89,84,1,HAXES,C,old,z,./images/HAXES.png,,,,,,,,,,,,,,,,,,,,,,,,,,,,,,,,,,,
,,,,,,,,,,,,,,,,,60bc011503db109b7d46851d,33,2022-02-12_13h45.28.310,lexical_decision_task_DD_L2,2021.2.3,Win32,60.01680471,,,,,,,,,,,0.6611,1,,,,,,,,,,,,,,z,1,0.6611,,,,,,,,0.356445313,0,0,0,0,,0,90,90,101,1,GLEET,LB,old,z,./images/GLEETLB.png,,,,,,,,,,,,,,,,,,,,,,,,,,,,,,,,,,,
,,,,,,,,,,,,,,,,,60bc011503db109b7d46851d,33,2022-02-12_13h45.28.310,lexical_decision_task_DD_L2,2021.2.3,Win32,60.01680471,,,,,,,,,,,0.6793,1,,,,,,,,,,,,,,z,1,0.6793,,,,,,,,0.356445313,0,0,0,0,,0,91,91,108,1,GRUET,C,old,z,./images/GRUET.png,,,,,,,,,,,,,,,,,,,,,,,,,,,,,,,,,,,
,,,,,,,,,,,,,,,,,60bc011503db109b7d46851d,33,2022-02-12_13h45.28.310,lexical_decision_task_DD_L2,2021.2.3,Win32,60.01680471,,,,,,,,,,,0.8439,1,,,,,,,,,,,,,,z,1,0.8439,,,,,,,,0.356445313,0,0,0,0,,0,92,92,111,1,HOSSE,C,old,z,./images/HOSSE.png,,,,,,,,,,,,,,,,,,,,,,,,,,,,,,,,,,,
,,,,,,,,,,,,,,,,,60bc011503db109b7d46851d,33,2022-02-12_13h45.28.310,lexical_decision_task_DD_L2,2021.2.3,Win32,60.01680471,,,,,,,,,,,1.2667,1,,,,,,,,,,,,,,z,1,1.2667,,,,,,,,0.356445313,0,0,0,0,,0,93,93,99,1,BACKY,C,old,z,./images/BACKY.png,,,,,,,,,,,,,,,,,,,,,,,,,,,,,,,,,,,
,,,,,,,,,,,,,,,,,60bc011503db109b7d46851d,33,2022-02-12_13h45.28.310,lexical_decision_task_DD_L2,2021.2.3,Win32,60.01680471,,,,,,,,,,,0.7358,1,,,,,,,,,,,,,,m,1,0.7358,,,,,,,,0.356445313,0,0,0,0,,0,94,94,24,1,SCREW,HB,old,m,./images/SCREWHB.png,,,,,,,,,,,,,,,,,,,,,,,,,,,,,,,,,,,
,,,,,,,,,,,,,,,,,60bc011503db109b7d46851d,33,2022-02-12_13h45.28.310,lexical_decision_task_DD_L2,2021.2.3,Win32,60.01680471,,,,,,,,,,,0.7307,1,,,,,,,,,,,,,,m,1,0.7307,,,,,,,,0.356445313,0,0,0,0,,0,95,95,56,1,PACKET,C,old,m,./images/PACKET.png,,,,,,,,,,,,,,,,,,,,,,,,,,,,,,,,,,,
,,,,,,,,,,,,,,,,,60bc011503db109b7d46851d,33,2022-02-12_13h45.28.310,lexical_decision_task_DD_L2,2021.2.3,Win32,60.01680471,,,,,,,,,,,0.6682,1,,,,,,,,,,,,,,z,1,0.6682,,,,,,,,0.356445313,0,0,0,0,,0,96,96,97,1,CHIDS,HB,old,z,./images/CHIDSHB.png,,,,,,,,,,,,,,,,,,,,,,,,,,,,,,,,,,,
,,,,,,,,,,,,,,,,,60bc011503db109b7d46851d,33,2022-02-12_13h45.28.310,lexical_decision_task_DD_L2,2021.2.3,Win32,60.01680471,,,,,,,,,,,0.7382,1,,,,,,,,,,,,,,m,1,0.7382,,,,,,,,0.356445313,0,0,0,0,,0,97,97,57,1,MOOSE,HB,old,m,./images/MOOSEHB.png,,,,,,,,,,,,,,,,,,,,,,,,,,,,,,,,,,,
,,,,,,,,,,,,,,,,,60bc011503db109b7d46851d,33,2022-02-12_13h45.28.310,lexical_decision_task_DD_L2,2021.2.3,Win32,60.01680471,,,,,,,,,,,1.012,1,,,,,,,,,,,,,,m,1,1.012,,,,,,,,0.356445313,0,0,0,0,,0,98,98,69,1,COOKER,HB,old,m,./images/COOKERHB.png,,,,,,,,,,,,,,,,,,,,,,,,,,,,,,,,,,,
,,,,,,,,,,,,,,,,,60bc011503db109b7d46851d,33,2022-02-12_13h45.28.310,lexical_decision_task_DD_L2,2021.2.3,Win32,60.01680471,,,,,,,,,,,0.6348,1,,,,,,,,,,,,,,m,1,0.6348,,,,,,,,0.356445313,0,0,0,0,,0,99,99,15,1,GREASE,HB,old,m,./images/GREASEHB.png,,,,,,,,,,,,,,,,,,,,,,,,,,,,,,,,,,,
,,,,,,,,,,,,,,,,,60bc011503db109b7d46851d,33,2022-02-12_13h45.28.310,lexical_decision_task_DD_L2,2021.2.3,Win32,60.01680471,,,,,,,,,,,0.7405,1,,,,,,,,,,,,,,z,1,0.7405,,,,,,,,0.356445313,0,0,0,0,,0,100,100,140,1,DOVET,LB,old,z,./images/DOVETLB.png,,,,,,,,,,,,,,,,,,,,,,,,,,,,,,,,,,,
,,,,,,,,,,,,,,,,,60bc011503db109b7d46851d,33,2022-02-12_13h45.28.310,lexical_decision_task_DD_L2,2021.2.3,Win32,60.01680471,,,,,,,,,,,0.9451,1,,,,,,,,,,,,,,m,1,0.9451,,,,,,,,0.356445313,0,0,0,0,,0,101,101,9,1,RHINO,HB,old,m,./images/RHINOHB.png,,,,,,,,,,,,,,,,,,,,,,,,,,,,,,,,,,,
,,,,,,,,,,,,,,,,,60bc011503db109b7d46851d,33,2022-02-12_13h45.28.310,lexical_decision_task_DD_L2,2021.2.3,Win32,60.01680471,,,,,,,,,,,0.585,1,,,,,,,,,,,,,,z,1,0.585,,,,,,,,0.356445313,0,0,0,0,,0,102,102,120,1,RINED,C,old,z,./images/RINED.png,,,,,,,,,,,,,,,,,,,,,,,,,,,,,,,,,,,
,,,,,,,,,,,,,,,,,60bc011503db109b7d46851d,33,2022-02-12_13h45.28.310,lexical_decision_task_DD_L2,2021.2.3,Win32,60.01680471,,,,,,,,,,,0.7457,1,,,,,,,,,,,,,,m,1,0.7457,,,,,,,,0.356445313,0,0,0,0,,0,103,103,66,1,SWEAT,HB,old,m,./images/SWEATHB.png,,,,,,,,,,,,,,,,,,,,,,,,,,,,,,,,,,,
,,,,,,,,,,,,,,,,,60bc011503db109b7d46851d,33,2022-02-12_13h45.28.310,lexical_decision_task_DD_L2,2021.2.3,Win32,60.01680471,,,,,,,,,,,0.5708,1,,,,,,,,,,,,,,z,1,0.5708,,,,,,,,0.356445313,0,0,0,0,,0,104,104,150,1,NOOLS,C,old,z,./images/NOOLS.png,,,,,,,,,,,,,,,,,,,,,,,,,,,,,,,,,,,
,,,,,,,,,,,,,,,,,60bc011503db109b7d46851d,33,2022-02-12_13h45.28.310,lexical_decision_task_DD_L2,2021.2.3,Win32,60.01680471,,,,,,,,,,,1.0028,1,,,,,,,,,,,,,,z,1,1.0028,,,,,,,,0.356445313,0,0,0,0,,0,105,105,115,1,MAWNS,HB,old,z,./images/MAWNSHB.png,,,,,,,,,,,,,,,,,,,,,,,,,,,,,,,,,,,
,,,,,,,,,,,,,,,,,60bc011503db109b7d46851d,33,2022-02-12_13h45.28.310,lexical_decision_task_DD_L2,2021.2.3,Win32,60.01680471,,,,,,,,,,,0.7636,1,,,,,,,,,,,,,,m,1,0.7636,,,,,,,,0.356445313,0,0,0,0,,0,106,106,18,1,JAGUAR,HB,old,m,./images/JAGUARHB.png,,,,,,,,,,,,,,,,,,,,,,,,,,,,,,,,,,,
,,,,,,,,,,,,,,,,,60bc011503db109b7d46851d,33,2022-02-12_13h45.28.310,lexical_decision_task_DD_L2,2021.2.3,Win32,60.01680471,,,,,,,,,,,0.6304,1,,,,,,,,,,,,,,m,1,0.6304,,,,,,,,0.356445313,0,0,0,0,,0,107,107,13,1,MOTOR,LB,old,m,./images/MOTORLB.png,,,,,,,,,,,,,,,,,,,,,,,,,,,,,,,,,,,
,,,,,,,,,,,,,,,,,60bc011503db109b7d46851d,33,2022-02-12_13h45.28.310,lexical_decision_task_DD_L2,2021.2.3,Win32,60.01680471,,,,,,,,,,,0.763,1,,,,,,,,,,,,,,z,1,0.763,,,,,,,,0.356445313,0,0,0,0,,0,108,108,109,1,BURGE,HB,old,z,./images/BURGEHB.png,,,,,,,,,,,,,,,,,,,,,,,,,,,,,,,,,,,
,,,,,,,,,,,,,,,,,60bc011503db109b7d46851d,33,2022-02-12_13h45.28.310,lexical_decision_task_DD_L2,2021.2.3,Win32,60.01680471,,,,,,,,,,,0.8137,1,,,,,,,,,,,,,,z,1,0.8137,,,,,,,,0.356445313,0,0,0,0,,0,109,109,134,1,TROSS,LB,old,z,./images/TROSSLB.png,,,,,,,,,,,,,,,,,,,,,,,,,,,,,,,,,,,
,,,,,,,,,,,,,,,,,60bc011503db109b7d46851d,33,2022-02-12_13h45.28.310,lexical_decision_task_DD_L2,2021.2.3,Win32,60.01680471,,,,,,,,,,,0.5616,1,,,,,,,,,,,,,,m,1,0.5616,,,,,,,,0.356445313,0,0,0,0,,0,110,110,53,1,CARPET,C,old,m,./images/CARPET.png,,,,,,,,,,,,,,,,,,,,,,,,,,,,,,,,,,,
,,,,,,,,,,,,,,,,,60bc011503db109b7d46851d,33,2022-02-12_13h45.28.310,lexical_decision_task_DD_L2,2021.2.3,Win32,60.01680471,,,,,,,,,,,1.5005,1,,,,,,,,,,,,,,z,1,1.5005,,,,,,,,0.356445313,0,0,0,0,,0,111,111,91,1,SHENS,HB,old,z,./images/SHENSHB.png,,,,,,,,,,,,,,,,,,,,,,,,,,,,,,,,,,,
,,,,,,,,,,,,,,,,,60bc011503db109b7d46851d,33,2022-02-12_13h45.28.310,lexical_decision_task_DD_L2,2021.2.3,Win32,60.01680471,,,,,,,,,,,0.6961,1,,,,,,,,,,,,,,m,1,0.6961,,,,,,,,0.356445313,0,0,0,0,,0,112,112,26,1,SMOKER,C,old,m,./images/SMOKER.png,,,,,,,,,,,,,,,,,,,,,,,,,,,,,,,,,,,
,,,,,,,,,,,,,,,,,60bc011503db109b7d46851d,33,2022-02-12_13h45.28.310,lexical_decision_task_DD_L2,2021.2.3,Win32,60.01680471,,,,,,,,,,,0.584,1,,,,,,,,,,,,,,m,1,0.584,,,,,,,,0.356445313,0,0,0,0,,0,113,113,2,1,BEARD,C,old,m,./images/BEARD.png,,,,,,,,,,,,,,,,,,,,,,,,,,,,,,,,,,,
,,,,,,,,,,,,,,,,,60bc011503db109b7d46851d,33,2022-02-12_13h45.28.310,lexical_decision_task_DD_L2,2021.2.3,Win32,60.01680471,,,,,,,,,,,0.6787,1,,,,,,,,,,,,,,m,1,0.6787,,,,,,,,0.356445313,0,0,0,0,,0,114,114,60,1,TWINS,HB,old,m,./images/TWINSHB.png,,,,,,,,,,,,,,,,,,,,,,,,,,,,,,,,,,,
,,,,,,,,,,,,,,,,,60bc011503db109b7d46851d,33,2022-02-12_13h45.28.310,lexical_decision_task_DD_L2,2021.2.3,Win32,60.01680471,,,,,,,,,,,0.6631,1,,,,,,,,,,,,,,m,1,0.6631,,,,,,,,0.356445313,0,0,0,0,,0,115,115,8,1,TULIP,C,old,m,./images/TULIP.png,,,,,,,,,,,,,,,,,,,,,,,,,,,,,,,,,,,
,,,,,,,,,,,,,,,,,60bc011503db109b7d46851d,33,2022-02-12_13h45.28.310,lexical_decision_task_DD_L2,2021.2.3,Win32,60.01680471,,,,,,,,,,,0.5497,0,,,,,,,,,,,,,,m,0,0.5497,,,,,,,,0.356445313,0,0,0,0,,0,116,116,110,1,CRUNK,LB,old,z,./images/CRUNKLB.png,,,,,,,,,,,,,,,,,,,,,,,,,,,,,,,,,,,
,,,,,,,,,,,,,,,,,60bc011503db109b7d46851d,33,2022-02-12_13h45.28.310,lexical_decision_task_DD_L2,2021.2.3,Win32,60.01680471,,,,,,,,,,,0.8578,1,,,,,,,,,,,,,,m,1,0.8578,,,,,,,,0.356445313,0,0,0,0,,0,117,117,79,1,CRUST,LB,old,m,./images/CRUSTLB.png,,,,,,,,,,,,,,,,,,,,,,,,,,,,,,,,,,,
,,,,,,,,,,,,,,,,,60bc011503db109b7d46851d,33,2022-02-12_13h45.28.310,lexical_decision_task_DD_L2,2021.2.3,Win32,60.01680471,,,,,,,,,,,0.5523,1,,,,,,,,,,,,,,m,1,0.5523,,,,,,,,0.356445313,0,0,0,0,,0,118,118,82,1,SUNSET,LB,old,m,./images/SUNSETLB.png,,,,,,,,,,,,,,,,,,,,,,,,,,,,,,,,,,,
,,,,,,,,,,,,,,,,,60bc011503db109b7d46851d,33,2022-02-12_13h45.28.310,lexical_decision_task_DD_L2,2021.2.3,Win32,60.01680471,,,,,,,,,,,0.8738,1,,,,,,,,,,,,,,m,1,0.8738,,,,,,,,0.356445313,0,0,0,0,,0,119,119,72,1,NOOSE,HB,old,m,./images/NOOSEHB.png,,,,,,,,,,,,,,,,,,,,,,,,,,,,,,,,,,,
,,,,,,,,,,,,,,,,,60bc011503db109b7d46851d,33,2022-02-12_13h45.28.310,lexical_decision_task_DD_L2,2021.2.3,Win32,60.01680471,,,,,,,,,,,0.5258,1,,,,,,,,,,,,,,m,1,0.5258,,,,,,,,0.356445313,0,0,0,0,,0,120,120,29,1,CRUMB,C,old,m,./images/CRUMB.png,,,,,,,,,,,,,,,,,,,,,,,,,,,,,,,,,,,
,,,,,,,,,,,,,,,,,60bc011503db109b7d46851d,33,2022-02-12_13h45.28.310,lexical_decision_task_DD_L2,2021.2.3,Win32,60.01680471,,,,,,,,,,,0.7676,1,,,,,,,,,,,,,,m,1,0.7676,,,,,,,,0.356445313,0,0,0,0,,0,121,121,27,1,ATTIC,HB,old,m,./images/ATTICHB.png,,,,,,,,,,,,,,,,,,,,,,,,,,,,,,,,,,,
,,,,,,,,,,,,,,,,,60bc011503db109b7d46851d,33,2022-02-12_13h45.28.310,lexical_decision_task_DD_L2,2021.2.3,Win32,60.01680471,,,,,,,,,,,0.8183,1,,,,,,,,,,,,,,z,1,0.8183,,,,,,,,0.356445313,0,0,0,0,,0,122,122,160,1,VEETS,HB,old,z,./images/VEETSHB.png,,,,,,,,,,,,,,,,,,,,,,,,,,,,,,,,,,,
,,,,,,,,,,,,,,,,,60bc011503db109b7d46851d,33,2022-02-12_13h45.28.310,lexical_decision_task_DD_L2,2021.2.3,Win32,60.01680471,,,,,,,,,,,0.8339,1,,,,,,,,,,,,,,m,1,0.8339,,,,,,,,0.356445313,0,0,0,0,,0,123,123,43,1,MOSQUE,LB,old,m,./images/MOSQUELB.png,,,,,,,,,,,,,,,,,,,,,,,,,,,,,,,,,,,
,,,,,,,,,,,,,,,,,60bc011503db109b7d46851d,33,2022-02-12_13h45.28.310,lexical_decision_task_DD_L2,2021.2.3,Win32,60.01680471,,,,,,,,,,,0.8964,1,,,,,,,,,,,,,,z,1,0.8964,,,,,,,,0.356445313,0,0,0,0,,0,124,124,157,1,INLER,HB,old,z,./images/INLERHB.png,,,,,,,,,,,,,,,,,,,,,,,,,,,,,,,,,,,
,,,,,,,,,,,,,,,,,60bc011503db109b7d46851d,33,2022-02-12_13h45.28.310,lexical_decision_task_DD_L2,2021.2.3,Win32,60.01680471,,,,,,,,,,,0.696,1,,,,,,,,,,,,,,m,1,0.696,,,,,,,,0.356445313,0,0,0,0,space,0,125,125,78,1,LITTER,HB,old,m,./images/LITTERHB.png,1.0353,,,,,,,,,,,,,,,,,,,,,,,,,,,,,,,,,,
,,,,,,,,,,,,,,,,,60bc011503db109b7d46851d,33,2022-02-12_13h45.28.310,lexical_decision_task_DD_L2,2021.2.3,Win32,60.01680471,,,,,,,,,,,0.704,1,,,,,,,,,,,,,,z,1,0.704,,,,,,,,0.356445313,0,0,0,0,,0,126,126,95,1,HANTY,LB,old,z,./images/HANTYLB.png,,,,,,,,,,,,,,,,,,,,,,,,,,,,,,,,,,,
,,,,,,,,,,,,,,,,,60bc011503db109b7d46851d,33,2022-02-12_13h45.28.310,lexical_decision_task_DD_L2,2021.2.3,Win32,60.01680471,,,,,,,,,,,0.7958,1,,,,,,,,,,,,,,m,1,0.7958,,,,,,,,0.356445313,0,0,0,0,,0,127,127,58,1,BABOON,LB,old,m,./images/BABOONLB.png,,,,,,,,,,,,,,,,,,,,,,,,,,,,,,,,,,,
,,,,,,,,,,,,,,,,,60bc011503db109b7d46851d,33,2022-02-12_13h45.28.310,lexical_decision_task_DD_L2,2021.2.3,Win32,60.01680471,,,,,,,,,,,0.7234,1,,,,,,,,,,,,,,z,1,0.7234,,,,,,,,0.356445313,0,0,0,0,,0,128,128,136,1,WERVE,HB,old,z,./images/WERVEHB.png,,,,,,,,,,,,,,,,,,,,,,,,,,,,,,,,,,,
,,,,,,,,,,,,,,,,,60bc011503db109b7d46851d,33,2022-02-12_13h45.28.310,lexical_decision_task_DD_L2,2021.2.3,Win32,60.01680471,,,,,,,,,,,0.654,1,,,,,,,,,,,,,,z,1,0.654,,,,,,,,0.356445313,0,0,0,0,,0,129,129,116,1,BALGY,LB,old,z,./images/BALGYLB.png,,,,,,,,,,,,,,,,,,,,,,,,,,,,,,,,,,,
,,,,,,,,,,,,,,,,,60bc011503db109b7d46851d,33,2022-02-12_13h45.28.310,lexical_decision_task_DD_L2,2021.2.3,Win32,60.01680471,,,,,,,,,,,0.8049,1,,,,,,,,,,,,,,m,1,0.8049,,,,,,,,0.356445313,0,0,0,0,,0,130,130,19,1,DOUGH,LB,old,m,./images/DOUGHLB.png,,,,,,,,,,,,,,,,,,,,,,,,,,,,,,,,,,,
,,,,,,,,,,,,,,,,,60bc011503db109b7d46851d,33,2022-02-12_13h45.28.310,lexical_decision_task_DD_L2,2021.2.3,Win32,60.01680471,,,,,,,,,,,0.9079,1,,,,,,,,,,,,,,z,1,0.9079,,,,,,,,0.356445313,0,0,0,0,,0,131,131,85,1,CHULK,HB,old,z,./images/CHULKHB.png,,,,,,,,,,,,,,,,,,,,,,,,,,,,,,,,,,,
,,,,,,,,,,,,,,,,,60bc011503db109b7d46851d,33,2022-02-12_13h45.28.310,lexical_decision_task_DD_L2,2021.2.3,Win32,60.01680471,,,,,,,,,,,0.595,1,,,,,,,,,,,,,,m,1,0.595,,,,,,,,0.356445313,0,0,0,0,,0,132,132,71,1,PIMPLE,C,old,m,./images/PIMPLE.png,,,,,,,,,,,,,,,,,,,,,,,,,,,,,,,,,,,
,,,,,,,,,,,,,,,,,60bc011503db109b7d46851d,33,2022-02-12_13h45.28.310,lexical_decision_task_DD_L2,2021.2.3,Win32,60.01680471,,,,,,,,,,,0.5604,1,,,,,,,,,,,,,,z,1,0.5604,,,,,,,,0.356445313,0,0,0,0,,0,133,133,107,1,FASKS,LB,old,z,./images/FASKSLB.png,,,,,,,,,,,,,,,,,,,,,,,,,,,,,,,,,,,
,,,,,,,,,,,,,,,,,60bc011503db109b7d46851d,33,2022-02-12_13h45.28.310,lexical_decision_task_DD_L2,2021.2.3,Win32,60.01680471,,,,,,,,,,,0.6577,0,,,,,,,,,,,,,,z,0,0.6577,,,,,,,,0.356445313,0,0,0,0,,0,134,134,54,1,TRIPOD,HB,old,m,./images/TRIPODHB.png,,,,,,,,,,,,,,,,,,,,,,,,,,,,,,,,,,,
,,,,,,,,,,,,,,,,,60bc011503db109b7d46851d,33,2022-02-12_13h45.28.310,lexical_decision_task_DD_L2,2021.2.3,Win32,60.01680471,,,,,,,,,,,0.7519,1,,,,,,,,,,,,,,z,1,0.7519,,,,,,,,0.356445313,0,0,0,0,,0,135,135,155,1,CANGY,LB,old,z,./images/CANGYLB.png,,,,,,,,,,,,,,,,,,,,,,,,,,,,,,,,,,,
,,,,,,,,,,,,,,,,,60bc011503db109b7d46851d,33,2022-02-12_13h45.28.310,lexical_decision_task_DD_L2,2021.2.3,Win32,60.01680471,,,,,,,,,,,0.5781,1,,,,,,,,,,,,,,z,1,0.5781,,,,,,,,0.356445313,0,0,0,0,,0,136,136,149,1,VEASE,LB,old,z,./images/VEASELB.png,,,,,,,,,,,,,,,,,,,,,,,,,,,,,,,,,,,
,,,,,,,,,,,,,,,,,60bc011503db109b7d46851d,33,2022-02-12_13h45.28.310,lexical_decision_task_DD_L2,2021.2.3,Win32,60.01680471,,,,,,,,,,,0.6502,1,,,,,,,,,,,,,,m,1,0.6502,,,,,,,,0.356445313,0,0,0,0,,0,137,137,20,1,CRADLE,C,old,m,./images/CRADLE.png,,,,,,,,,,,,,,,,,,,,,,,,,,,,,,,,,,,
,,,,,,,,,,,,,,,,,60bc011503db109b7d46851d,33,2022-02-12_13h45.28.310,lexical_decision_task_DD_L2,2021.2.3,Win32,60.01680471,,,,,,,,,,,0.6559,1,,,,,,,,,,,,,,z,1,0.6559,,,,,,,,0.356445313,0,0,0,0,,0,138,138,93,1,SMONE,C,old,z,./images/SMONE.png,,,,,,,,,,,,,,,,,,,,,,,,,,,,,,,,,,,
,,,,,,,,,,,,,,,,,60bc011503db109b7d46851d,33,2022-02-12_13h45.28.310,lexical_decision_task_DD_L2,2021.2.3,Win32,60.01680471,,,,,,,,,,,0.6375,1,,,,,,,,,,,,,,m,1,0.6375,,,,,,,,0.356445313,0,0,0,0,,0,139,139,48,1,SPORT,HB,old,m,./images/SPORTHB.png,,,,,,,,,,,,,,,,,,,,,,,,,,,,,,,,,,,
,,,,,,,,,,,,,,,,,60bc011503db109b7d46851d,33,2022-02-12_13h45.28.310,lexical_decision_task_DD_L2,2021.2.3,Win32,60.01680471,,,,,,,,,,,0.6498,1,,,,,,,,,,,,,,z,1,0.6498,,,,,,,,0.356445313,0,0,0,0,,0,140,140,156,1,HIXES,C,old,z,./images/HIXES.png,,,,,,,,,,,,,,,,,,,,,,,,,,,,,,,,,,,
,,,,,,,,,,,,,,,,,60bc011503db109b7d46851d,33,2022-02-12_13h45.28.310,lexical_decision_task_DD_L2,2021.2.3,Win32,60.01680471,,,,,,,,,,,0.7617,1,,,,,,,,,,,,,,z,1,0.7617,,,,,,,,0.356445313,0,0,0,0,,0,141,141,163,1,GAMBA,HB,old,z,./images/GAMBAHB.png,,,,,,,,,,,,,,,,,,,,,,,,,,,,,,,,,,,
,,,,,,,,,,,,,,,,,60bc011503db109b7d46851d,33,2022-02-12_13h45.28.310,lexical_decision_task_DD_L2,2021.2.3,Win32,60.01680471,,,,,,,,,,,0.5087,1,,,,,,,,,,,,,,m,1,0.5087,,,,,,,,0.356445313,0,0,0,0,,0,142,142,49,1,DRUMS,LB,old,m,./images/DRUMSLB.png,,,,,,,,,,,,,,,,,,,,,,,,,,,,,,,,,,,
,,,,,,,,,,,,,,,,,60bc011503db109b7d46851d,33,2022-02-12_13h45.28.310,lexical_decision_task_DD_L2,2021.2.3,Win32,60.01680471,,,,,,,,,,,0.6465,1,,,,,,,,,,,,,,m,1,0.6465,,,,,,,,0.356445313,0,0,0,0,,0,143,143,50,1,MALLET,C,old,m,./images/MALLET.png,,,,,,,,,,,,,,,,,,,,,,,,,,,,,,,,,,,
,,,,,,,,,,,,,,,,,60bc011503db109b7d46851d,33,2022-02-12_13h45.28.310,lexical_decision_task_DD_L2,2021.2.3,Win32,60.01680471,,,,,,,,,,,0.5389,1,,,,,,,,,,,,,,m,1,0.5389,,,,,,,,0.356445313,0,0,0,0,,0,144,144,41,1,STRING,C,old,m,./images/STRING.png,,,,,,,,,,,,,,,,,,,,,,,,,,,,,,,,,,,
,,,,,,,,,,,,,,,,,60bc011503db109b7d46851d,33,2022-02-12_13h45.28.310,lexical_decision_task_DD_L2,2021.2.3,Win32,60.01680471,,,,,,,,,,,0.5189,1,,,,,,,,,,,,,,m,1,0.5189,,,,,,,,0.356445313,0,0,0,0,,0,145,145,61,1,CANDLE,LB,old,m,./images/CANDLELB.png,,,,,,,,,,,,,,,,,,,,,,,,,,,,,,,,,,,
,,,,,,,,,,,,,,,,,60bc011503db109b7d46851d,33,2022-02-12_13h45.28.310,lexical_decision_task_DD_L2,2021.2.3,Win32,60.01680471,,,,,,,,,,,0.6389,1,,,,,,,,,,,,,,m,1,0.6389,,,,,,,,0.356445313,0,0,0,0,,0,146,146,47,1,BERRY,C,old,m,./images/BERRY.png,,,,,,,,,,,,,,,,,,,,,,,,,,,,,,,,,,,
,,,,,,,,,,,,,,,,,60bc011503db109b7d46851d,33,2022-02-12_13h45.28.310,lexical_decision_task_DD_L2,2021.2.3,Win32,60.01680471,,,,,,,,,,,0.7041,1,,,,,,,,,,,,,,m,1,0.7041,,,,,,,,0.356445313,0,0,0,0,,0,147,147,42,1,FOLDER,HB,old,m,./images/FOLDERHB.png,,,,,,,,,,,,,,,,,,,,,,,,,,,,,,,,,,,
,,,,,,,,,,,,,,,,,60bc011503db109b7d46851d,33,2022-02-12_13h45.28.310,lexical_decision_task_DD_L2,2021.2.3,Win32,60.01680471,,,,,,,,,,,0.734,1,,,,,,,,,,,,,,z,1,0.734,,,,,,,,0.356445313,0,0,0,0,,0,148,148,164,1,SGREW,LB,old,z,./images/SGREWLB.png,,,,,,,,,,,,,,,,,,,,,,,,,,,,,,,,,,,
,,,,,,,,,,,,,,,,,60bc011503db109b7d46851d,33,2022-02-12_13h45.28.310,lexical_decision_task_DD_L2,2021.2.3,Win32,60.01680471,,,,,,,,,,,0.7796,1,,,,,,,,,,,,,,z,1,0.7796,,,,,,,,0.356445313,0,0,0,0,,0,149,149,158,1,EGECT,LB,old,z,./images/EGECTLB.png,,,,,,,,,,,,,,,,,,,,,,,,,,,,,,,,,,,
,,,,,,,,,,,,,,,,,60bc011503db109b7d46851d,33,2022-02-12_13h45.28.310,lexical_decision_task_DD_L2,2021.2.3,Win32,60.01680471,,,,,,,,,,,0.721,1,,,,,,,,,,,,,,m,1,0.721,,,,,,,,0.356445313,0,0,0,0,,0,150,150,22,1,MELON,LB,old,m,./images/MELONLB.png,,,,,,,,,,,,,,,,,,,,,,,,,,,,,,,,,,,
,,,,,,,,,,,,,,,,,60bc011503db109b7d46851d,33,2022-02-12_13h45.28.310,lexical_decision_task_DD_L2,2021.2.3,Win32,60.01680471,,,,,,,,,,,0.857,1,,,,,,,,,,,,,,m,1,0.857,,,,,,,,0.356445313,0,0,0,0,,0,151,151,59,1,BURIAL,C,old,m,./images/BURIAL.png,,,,,,,,,,,,,,,,,,,,,,,,,,,,,,,,,,,
,,,,,,,,,,,,,,,,,60bc011503db109b7d46851d,33,2022-02-12_13h45.28.310,lexical_decision_task_DD_L2,2021.2.3,Win32,60.01680471,,,,,,,,,,,0.7603,1,,,,,,,,,,,,,,m,1,0.7603,,,,,,,,0.356445313,0,0,0,0,,0,152,152,39,1,SHELF,HB,old,m,./images/SHELFHB.png,,,,,,,,,,,,,,,,,,,,,,,,,,,,,,,,,,,
,,,,,,,,,,,,,,,,,60bc011503db109b7d46851d,33,2022-02-12_13h45.28.310,lexical_decision_task_DD_L2,2021.2.3,Win32,60.01680471,,,,,,,,,,,0.68,0,,,,,,,,,,,,,,z,0,0.68,,,,,,,,0.356445313,0,0,0,0,,0,153,153,17,1,SKIING,C,old,m,./images/SKIING.png,,,,,,,,,,,,,,,,,,,,,,,,,,,,,,,,,,,
,,,,,,,,,,,,,,,,,60bc011503db109b7d46851d,33,2022-02-12_13h45.28.310,lexical_decision_task_DD_L2,2021.2.3,Win32,60.01680471,,,,,,,,,,,0.8241,1,,,,,,,,,,,,,,z,1,0.8241,,,,,,,,0.356445313,0,0,0,0,,0,154,154,114,1,RIKES,C,old,z,./images/RIKES.png,,,,,,,,,,,,,,,,,,,,,,,,,,,,,,,,,,,
,,,,,,,,,,,,,,,,,60bc011503db109b7d46851d,33,2022-02-12_13h45.28.310,lexical_decision_task_DD_L2,2021.2.3,Win32,60.01680471,,,,,,,,,,,0.6464,1,,,,,,,,,,,,,,m,1,0.6464,,,,,,,,0.356445313,0,0,0,0,,0,155,155,32,1,BARREL,C,old,m,./images/BARREL.png,,,,,,,,,,,,,,,,,,,,,,,,,,,,,,,,,,,
,,,,,,,,,,,,,,,,,60bc011503db109b7d46851d,33,2022-02-12_13h45.28.310,lexical_decision_task_DD_L2,2021.2.3,Win32,60.01680471,,,,,,,,,,,0.6826,1,,,,,,,,,,,,,,z,1,0.6826,,,,,,,,0.356445313,0,0,0,0,,0,156,156,151,1,TINKY,HB,old,z,./images/TINKYHB.png,,,,,,,,,,,,,,,,,,,,,,,,,,,,,,,,,,,
,,,,,,,,,,,,,,,,,60bc011503db109b7d46851d,33,2022-02-12_13h45.28.310,lexical_decision_task_DD_L2,2021.2.3,Win32,60.01680471,,,,,,,,,,,0.6861,1,,,,,,,,,,,,,,z,1,0.6861,,,,,,,,0.356445313,0,0,0,0,,0,157,157,137,1,JOOST,LB,old,z,./images/JOOSTLB.png,,,,,,,,,,,,,,,,,,,,,,,,,,,,,,,,,,,
,,,,,,,,,,,,,,,,,60bc011503db109b7d46851d,33,2022-02-12_13h45.28.310,lexical_decision_task_DD_L2,2021.2.3,Win32,60.01680471,,,,,,,,,,,0.8915,0,,,,,,,,,,,,,,m,0,0.8915,,,,,,,,0.356445313,0,0,0,0,,0,158,158,162,1,LEICH,C,old,z,./images/LEICH.png,,,,,,,,,,,,,,,,,,,,,,,,,,,,,,,,,,,
,,,,,,,,,,,,,,,,,60bc011503db109b7d46851d,33,2022-02-12_13h45.28.310,lexical_decision_task_DD_L2,2021.2.3,Win32,60.01680471,,,,,,,,,,,0.7834,1,,,,,,,,,,,,,,z,1,0.7834,,,,,,,,0.356445313,0,0,0,0,,0,159,159,112,1,MYING,HB,old,z,./images/MYINGHB.png,,,,,,,,,,,,,,,,,,,,,,,,,,,,,,,,,,,
,,,,,,,,,,,,,,,,,60bc011503db109b7d46851d,33,2022-02-12_13h45.28.310,lexical_decision_task_DD_L2,2021.2.3,Win32,60.01680471,,,,,,,,,,,0.6196,1,,,,,,,,,,,,,,m,1,0.6196,,,,,,,,0.356445313,0,0,0,0,,0,160,160,68,1,TORCH,C,old,m,./images/TORCH.png,,,,,,,,,,,,,,,,,,,,,,,,,,,,,,,,,,,
,,,,,,,,,,,,,,,,,60bc011503db109b7d46851d,33,2022-02-12_13h45.28.310,lexical_decision_task_DD_L2,2021.2.3,Win32,60.01680471,,,,,,,,,,,0.539,1,,,,,,,,,,,,,,m,1,0.539,,,,,,,,0.356445313,0,0,0,0,,0,161,161,44,1,LIZARD,C,old,m,./images/LIZARD.png,,,,,,,,,,,,,,,,,,,,,,,,,,,,,,,,,,,
,,,,,,,,,,,,,,,,,60bc011503db109b7d46851d,33,2022-02-12_13h45.28.310,lexical_decision_task_DD_L2,2021.2.3,Win32,60.01680471,,,,,,,,,,,1.0812,1,,,,,,,,,,,,,,z,1,1.0812,,,,,,,,0.356445313,0,0,0,0,,0,162,162,152,1,FRAIN,LB,old,z,./images/FRAINLB.png,,,,,,,,,,,,,,,,,,,,,,,,,,,,,,,,,,,
,,,,,,,,,,,,,,,,,60bc011503db109b7d46851d,33,2022-02-12_13h45.28.310,lexical_decision_task_DD_L2,2021.2.3,Win32,60.01680471,,,,,,,,,,,0.694,1,,,,,,,,,,,,,,z,1,0.694,,,,,,,,0.356445313,0,0,0,0,,0,163,163,124,1,TUNCH,HB,old,z,./images/TUNCHHB.png,,,,,,,,,,,,,,,,,,,,,,,,,,,,,,,,,,,
,,,,,,,,,,,,,,,,,60bc011503db109b7d46851d,33,2022-02-12_13h45.28.310,lexical_decision_task_DD_L2,2021.2.3,Win32,60.01680471,,,,,,,,,,,0.6351,1,,,,,,,,,,,,,,m,1,0.6351,,,,,,,,0.356445313,0,0,0,0,,0,164,164,81,1,POODLE,HB,old,m,./images/POODLEHB.png,,,,,,,,,,,,,,,,,,,,,,,,,,,,,,,,,,,
,,,,,,,,,,,,,,,,,60bc011503db109b7d46851d,33,2022-02-12_13h45.28.310,lexical_decision_task_DD_L2,2021.2.3,Win32,60.01680471,,,,,,,,,,,0.7611,1,,,,,,,,,,,,,,z,1,0.7611,,,,,,,,0.356445313,0,0,0,0,,0,165,165,98,1,BAMPS,LB,old,z,./images/BAMPSLB.png,,,,,,,,,,,,,,,,,,,,,,,,,,,,,,,,,,,
,,,,,,,,,,,,,,,,,60bc011503db109b7d46851d,33,2022-02-12_13h45.28.310,lexical_decision_task_DD_L2,2021.2.3,Win32,60.01680471,,,,,,,,,,,0.7705,1,,,,,,,,,,,,,,z,1,0.7705,,,,,,,,0.356445313,0,0,0,0,,0,166,166,153,1,CLUPS,C,old,z,./images/CLUPS.png,,,,,,,,,,,,,,,,,,,,,,,,,,,,,,,,,,,
,,,,,,,,,,,,,,,,,60bc011503db109b7d46851d,33,2022-02-12_13h45.28.310,lexical_decision_task_DD_L2,2021.2.3,Win32,60.01680471,,,,,,,,,,,0.6654,1,,,,,,,,,,,,,,m,1,0.6654,,,,,,,,0.356445313,0,0,0,0,,0,167,167,7,1,PAINT,LB,old,m,./images/PAINTLB.png,,,,,,,,,,,,,,,,,,,,,,,,,,,,,,,,,,,
,,,,,,,,,,,,,,,,,60bc011503db109b7d46851d,33,2022-02-12_13h45.28.310,lexical_decision_task_DD_L2,2021.2.3,Win32,60.01680471,,,,,,,,,,,,,,,,,,,,,,,,,,,,,,,,,,,,,,,,,,,,,,,,How likely will it be that you will recognize the words presented slighly blurred on a scale of 0 (not likely) to 100 (most likely)?,,,,,-0.004882813,-0.428710938,1,0,0,jol_adv,5,9.8132,0,0,0,1,1,,,,,,,,,,,,,,,,,,,,,
,,,,,,,,,,,,,,,,,60bc011503db109b7d46851d,33,2022-02-12_13h45.28.310,lexical_decision_task_DD_L2,2021.2.3,Win32,60.01680471,,,,,,,,,,,,,,,,,,,,,,,,,,,,,,,,,,,,,,,,,,,,,,,,How likely will it be that you will recognize the words presented very blurred on a scale of 0 (not likely) to 100 (most likely)?,,,,,,,,,,,3,4.5639,0,1,1,2,1,,,,,,,,,,,,,,,,,,,,,
,,,,,,,,,,,,,,,,,60bc011503db109b7d46851d,33,2022-02-12_13h45.28.310,lexical_decision_task_DD_L2,2021.2.3,Win32,60.01680471,,,,,,,,,,,,,,,,,,,,,,,,,,,,,,,,,,,,,,,,,,,,,,,,How likely will it be that you will recognize the words presented clearly on a scale of 0 (not likely) to 100 (most likely)?,,,,,,,,,,,6,3.7791,0,2,2,0,1,,,,,,,,,,,,,,,,,,,,,
space,78.2161,0.4296875,-0.385742188,0,0,0,,,,,,1,test,"In the next phase you will be presented with the words from the the first phase. Your job is to decide whether you remember seeing the word or not. If you remember seeing the word press ""old"" or type ""m"". If you do not remember seeing the word press ""new"" or type ""z"". Please press the space bar or click on continue to begin. ",,,60bc011503db109b7d46851d,33,2022-02-12_13h45.28.310,lexical_decision_task_DD_L2,2021.2.3,Win32,60.01680471,,,,,,,,,,,,,,,,,,,,,,,,,,,,,,,,,,,,,,,,,,,,,,,,,,,,,,,,,,,,,,,,,,0,0,0,0,1,,,,,,,,,,,,,,,,
space,2.3178,0.4296875,-0.385742188,0,0,0,,,,,,1,test,"In the next phase you will be presented with the words from the the first phase. Your job is to decide whether you remember seeing the word or not. If you remember seeing the word press ""old"" or type ""m"". If you do not remember seeing the word press ""new"" or type ""z"". Please press the space bar or click on continue to begin. ",,,60bc011503db109b7d46851d,33,2022-02-12_13h45.28.310,lexical_decision_task_DD_L2,2021.2.3,Win32,60.01680471,,,,,,,,,,,,,,,,,,,,,,,,,,,,,,,,,,,,,,,,,,,,,,,,,,,,,,,,,,,,,,,,,,1,0,1,0,1,,,,,,,,,,,,,,,,
,,0.064453125,-0.408203125,1,0,0,,,,,,1,test,"In the next phase you will be presented with the words from the the first phase. Your job is to decide whether you remember seeing the word or not. If you remember seeing the word press ""old"" or type ""m"". If you do not remember seeing the word press ""new"" or type ""z"". Please press the space bar or click on continue to begin. ",,,60bc011503db109b7d46851d,33,2022-02-12_13h45.28.310,lexical_decision_task_DD_L2,2021.2.3,Win32,60.01680471,,,,,,,,,,,,,,,,,,,,,,,,,,,,,,,,,,,,,,,,,,,,,,,,,,,,,,,,,,,,,,,,,,2,0,2,0,1,instr_done_button,,,,,,,,,,,,,,,
,,-0.015625,-0.397460938,1,0,0,,,,,,1,test,"In the next phase you will be presented with the words from the the first phase. Your job is to decide whether you remember seeing the word or not. If you remember seeing the word press ""old"" or type ""m"". If you do not remember seeing the word press ""new"" or type ""z"". Please press the space bar or click on continue to begin. ",,,60bc011503db109b7d46851d,33,2022-02-12_13h45.28.310,lexical_decision_task_DD_L2,2021.2.3,Win32,60.01680471,,,,,,,,,,,,,,,,,,,,,,,,,,,,,,,,,,,,,,,,,,,,,,,,,,,,,,,,,,,,,,,,,,3,0,3,0,1,instr_done_button,,,,,,,,,,,,,,,
,,0.083007813,-0.422851563,1,0,0,,,,,,1,test,"In the next phase you will be presented with the words from the the first phase. Your job is to decide whether you remember seeing the word or not. If you remember seeing the word press ""old"" or type ""m"". If you do not remember seeing the word press ""new"" or type ""z"". Please press the space bar or click on continue to begin. ",,,60bc011503db109b7d46851d,33,2022-02-12_13h45.28.310,lexical_decision_task_DD_L2,2021.2.3,Win32,60.01680471,,,,,,,,,,,,,,,,,,,,,,,,,,,,,,,,,,,,,,,,,,,,,,,,,,,,,,,,,,,,,,,,,,4,0,4,0,1,instr_done_button,,,,,,,,,,,,,,,
,,,,,,,,,,,,,,,,,60bc011503db109b7d46851d,33,2022-02-12_13h45.28.310,lexical_decision_task_DD_L2,2021.2.3,Win32,60.01680471,,,,,,,,,,,2.378,1,,,,,,,,,,,,,,,,,,,,,,,,0.579101563,-0.069335938,0,0,0,,,,,,,PAINT,LB,m,y,./images/PAINTLB.png,,,,,,,,,,,,,,,,,,,,,m,1,2.378,,,,,,,,0,0,0,7,1
,,,,,,,,,,,,,,,,,60bc011503db109b7d46851d,33,2022-02-12_13h45.28.310,lexical_decision_task_DD_L2,2021.2.3,Win32,60.01680471,,,,,,,,,,,1.9058,1,,,,,,,,,,,,,,,,,,,,,,,,0.579101563,-0.069335938,0,0,0,,,,,,,CRUST,LB,m,y,./images/CRUSTLB.png,,,,,,,,,,,,,,,,,,,,,m,1,1.9058,,,,,,,,0,1,1,79,1
,,,,,,,,,,,,,,,,,60bc011503db109b7d46851d,33,2022-02-12_13h45.28.310,lexical_decision_task_DD_L2,2021.2.3,Win32,60.01680471,,,,,,,,,,,0.9343,1,,,,,,,,,,,,,,,,,,,,,,,,0.579101563,-0.069335938,0,0,0,,,,,,,SUNSET,LB,m,y,./images/SUNSETLB.png,,,,,,,,,,,,,,,,,,,,,m,1,0.9343,,,,,,,,0,2,2,82,1
,,,,,,,,,,,,,,,,,60bc011503db109b7d46851d,33,2022-02-12_13h45.28.310,lexical_decision_task_DD_L2,2021.2.3,Win32,60.01680471,,,,,,,,,,,0.8335,1,,,,,,,,,,,,,,,,,,,,,,,,0.579101563,-0.0703125,0,0,0,,,,,,,BURIAL,C,m,y,./images/BURIAL.png,,,,,,,,,,,,,,,,,,,,,m,1,0.8335,,,,,,,,0,3,3,59,1
,,,,,,,,,,,,,,,,,60bc011503db109b7d46851d,33,2022-02-12_13h45.28.310,lexical_decision_task_DD_L2,2021.2.3,Win32,60.01680471,,,,,,,,,,,1.0878,1,,,,,,,,,,,,,,,,,,,,,,,,0.579101563,-0.0703125,0,0,0,,,,,,,THROAT,HB,m,y,./images/THROATHB.png,,,,,,,,,,,,,,,,,,,,,m,1,1.0878,,,,,,,,0,4,4,36,1
,,,,,,,,,,,,,,,,,60bc011503db109b7d46851d,33,2022-02-12_13h45.28.310,lexical_decision_task_DD_L2,2021.2.3,Win32,60.01680471,,,,,,,,,,,1.1229,1,,,,,,,,,,,,,,,,,,,,,,,,0.579101563,-0.0703125,0,0,0,,,,,,,CHALK,LB,z,y,./images/CHALKLB.png,,,,,,,,,,,,,,,,,,,,,z,1,1.1229,,,,,,,,0,5,5,109,1
,,,,,,,,,,,,,,,,,60bc011503db109b7d46851d,33,2022-02-12_13h45.28.310,lexical_decision_task_DD_L2,2021.2.3,Win32,60.01680471,,,,,,,,,,,1.1281,1,,,,,,,,,,,,,,,,,,,,,,,,0.579101563,-0.0703125,0,0,0,,,,,,,TRIPOD,HB,m,y,./images/TRIPODHB.png,,,,,,,,,,,,,,,,,,,,,m,1,1.1281,,,,,,,,0,6,6,54,1
,,,,,,,,,,,,,,,,,60bc011503db109b7d46851d,33,2022-02-12_13h45.28.310,lexical_decision_task_DD_L2,2021.2.3,Win32,60.01680471,,,,,,,,,,,0.7806,1,,,,,,,,,,,,,,,,,,,,,,,,0.579101563,-0.0703125,0,0,0,,,,,,,PICKLE,C,m,y,./images/PICKLE.png,,,,,,,,,,,,,,,,,,,,,m,1,0.7806,,,,,,,,0,7,7,14,1
,,,,,,,,,,,,,,,,,60bc011503db109b7d46851d,33,2022-02-12_13h45.28.310,lexical_decision_task_DD_L2,2021.2.3,Win32,60.01680471,,,,,,,,,,,1.1887,1,,,,,,,,,,,,,,,,,,,,,,,,0.579101563,-0.0703125,0,0,0,,,,,,,SPINE,C,z,y,./images/SPINE.png,,,,,,,,,,,,,,,,,,,,,z,1,1.1887,,,,,,,,0,8,8,149,1
,,,,,,,,,,,,,,,,,60bc011503db109b7d46851d,33,2022-02-12_13h45.28.310,lexical_decision_task_DD_L2,2021.2.3,Win32,60.01680471,,,,,,,,,,,1.2374,1,,,,,,,,,,,,,,,,,,,,,,,,0.579101563,-0.0703125,0,0,0,,,,,,,VALLEY,C,z,y,./images/VALLEY.png,,,,,,,,,,,,,,,,,,,,,z,1,1.2374,,,,,,,,0,9,9,152,1
,,,,,,,,,,,,,,,,,60bc011503db109b7d46851d,33,2022-02-12_13h45.28.310,lexical_decision_task_DD_L2,2021.2.3,Win32,60.01680471,,,,,,,,,,,0.9558,1,,,,,,,,,,,,,,,,,,,,,,,,0.579101563,-0.0703125,0,0,0,,,,,,,PILOT,C,z,y,./images/PILOT.png,,,,,,,,,,,,,,,,,,,,,z,1,0.9558,,,,,,,,0,10,10,134,1
,,,,,,,,,,,,,,,,,60bc011503db109b7d46851d,33,2022-02-12_13h45.28.310,lexical_decision_task_DD_L2,2021.2.3,Win32,60.01680471,,,,,,,,,,,1.1419,0,,,,,,,,,,,,,,,,,,,,,,,,0.579101563,-0.0703125,0,0,0,,,,,,,PACKET,C,m,y,./images/PACKET.png,,,,,,,,,,,,,,,,,,,,,z,0,1.1419,,,,,,,,0,11,11,56,1
,,,,,,,,,,,,,,,,,60bc011503db109b7d46851d,33,2022-02-12_13h45.28.310,lexical_decision_task_DD_L2,2021.2.3,Win32,60.01680471,,,,,,,,,,,1.097,1,,,,,,,,,,,,,,,,,,,,,,,,0.579101563,-0.0703125,0,0,0,,,,,,,WEASEL,C,m,y,./images/WEASEL.png,,,,,,,,,,,,,,,,,,,,,m,1,1.097,,,,,,,,0,12,12,80,1
,,,,,,,,,,,,,,,,,60bc011503db109b7d46851d,33,2022-02-12_13h45.28.310,lexical_decision_task_DD_L2,2021.2.3,Win32,60.01680471,,,,,,,,,,,0.7663,1,,,,,,,,,,,,,,,,,,,,,,,,0.579101563,-0.0703125,0,0,0,,,,,,,LIZARD,C,m,y,./images/LIZARD.png,,,,,,,,,,,,,,,,,,,,,m,1,0.7663,,,,,,,,0,13,13,44,1
,,,,,,,,,,,,,,,,,60bc011503db109b7d46851d,33,2022-02-12_13h45.28.310,lexical_decision_task_DD_L2,2021.2.3,Win32,60.01680471,,,,,,,,,,,0.8048,0,,,,,,,,,,,,,,,,,,,,,,,,0.579101563,-0.0703125,0,0,0,,,,,,,SWEAT,HB,m,y,./images/SWEATHB.png,,,,,,,,,,,,,,,,,,,,,z,0,0.8048,,,,,,,,0,14,14,66,1
,,,,,,,,,,,,,,,,,60bc011503db109b7d46851d,33,2022-02-12_13h45.28.310,lexical_decision_task_DD_L2,2021.2.3,Win32,60.01680471,,,,,,,,,,,1.8535,1,,,,,,,,,,,,,,,,,,,,,,,,0.579101563,-0.0703125,0,0,0,,,,,,,MAMMAL,C,z,y,./images/MAMMAL.png,,,,,,,,,,,,,,,,,,,,,z,1,1.8535,,,,,,,,0,15,15,146,1
,,,,,,,,,,,,,,,,,60bc011503db109b7d46851d,33,2022-02-12_13h45.28.310,lexical_decision_task_DD_L2,2021.2.3,Win32,60.01680471,,,,,,,,,,,1.18,0,,,,,,,,,,,,,,,,,,,,,,,,0.579101563,-0.0703125,0,0,0,,,,,,,GLOVE,LB,z,y,./images/GLOVELB.png,,,,,,,,,,,,,,,,,,,,,m,0,1.18,,,,,,,,0,16,16,157,1
,,,,,,,,,,,,,,,,,60bc011503db109b7d46851d,33,2022-02-12_13h45.28.310,lexical_decision_task_DD_L2,2021.2.3,Win32,60.01680471,,,,,,,,,,,0.7565,1,,,,,,,,,,,,,,,,,,,,,,,,0.579101563,-0.0703125,0,0,0,,,,,,,MEDAL,C,z,y,./images/MEDAL.png,,,,,,,,,,,,,,,,,,,,,z,1,0.7565,,,,,,,,0,17,17,95,1
,,,,,,,,,,,,,,,,,60bc011503db109b7d46851d,33,2022-02-12_13h45.28.310,lexical_decision_task_DD_L2,2021.2.3,Win32,60.01680471,,,,,,,,,,,1.2712,0,,,,,,,,,,,,,,,,,,,,,,,,0.579101563,-0.0703125,0,0,0,,,,,,,TOWEL,LB,z,y,./images/TOWELLB.png,,,,,,,,,,,,,,,,,,,,,m,0,1.2712,,,,,,,,0,18,18,85,1
,,,,,,,,,,,,,,,,,60bc011503db109b7d46851d,33,2022-02-12_13h45.28.310,lexical_decision_task_DD_L2,2021.2.3,Win32,60.01680471,,,,,,,,,,,0.7164,1,,,,,,,,,,,,,,,,,,,,,,,,0.579101563,-0.0703125,0,0,0,,,,,,,GREASE,HB,m,y,./images/GREASEHB.png,,,,,,,,,,,,,,,,,,,,,m,1,0.7164,,,,,,,,0,19,19,15,1
,,,,,,,,,,,,,,,,,60bc011503db109b7d46851d,33,2022-02-12_13h45.28.310,lexical_decision_task_DD_L2,2021.2.3,Win32,60.01680471,,,,,,,,,,,1.2067,1,,,,,,,,,,,,,,,,,,,,,,,,0.579101563,-0.0703125,0,0,0,,,,,,,ONION,HB,m,y,./images/ONIONHB.png,,,,,,,,,,,,,,,,,,,,,m,1,1.2067,,,,,,,,0,20,20,51,1
,,,,,,,,,,,,,,,,,60bc011503db109b7d46851d,33,2022-02-12_13h45.28.310,lexical_decision_task_DD_L2,2021.2.3,Win32,60.01680471,,,,,,,,,,,1.3676,0,,,,,,,,,,,,,,,,,,,,,,,,0.579101563,-0.0703125,0,0,0,,,,,,,LITTER,HB,m,y,./images/LITTERHB.png,,,,,,,,,,,,,,,,,,,,,z,0,1.3676,,,,,,,,0,21,21,78,1
,,,,,,,,,,,,,,,,,60bc011503db109b7d46851d,33,2022-02-12_13h45.28.310,lexical_decision_task_DD_L2,2021.2.3,Win32,60.01680471,,,,,,,,,,,1.0569,1,,,,,,,,,,,,,,,,,,,,,,,,0.579101563,-0.0703125,0,0,0,,,,,,,URINE,LB,m,y,./images/URINELB.png,,,,,,,,,,,,,,,,,,,,,m,1,1.0569,,,,,,,,0,22,22,70,1
,,,,,,,,,,,,,,,,,60bc011503db109b7d46851d,33,2022-02-12_13h45.28.310,lexical_decision_task_DD_L2,2021.2.3,Win32,60.01680471,,,,,,,,,,,2.6225,0,,,,,,,,,,,,,,,,,,,,,,,,0.579101563,-0.0703125,0,0,0,,,,,,,MIDGET,LB,z,y,./images/MIDGETLB.png,,,,,,,,,,,,,,,,,,,,,m,0,2.6225,,,,,,,,0,23,23,160,1
,,,,,,,,,,,,,,,,,60bc011503db109b7d46851d,33,2022-02-12_13h45.28.310,lexical_decision_task_DD_L2,2021.2.3,Win32,60.01680471,,,,,,,,,,,1.6546,0,,,,,,,,,,,,,,,,,,,,,,,,0.579101563,-0.0703125,0,0,0,,,,,,,STOVE,C,z,y,./images/STOVE.png,,,,,,,,,,,,,,,,,,,,,m,0,1.6546,,,,,,,,0,24,24,86,1
,,,,,,,,,,,,,,,,,60bc011503db109b7d46851d,33,2022-02-12_13h45.28.310,lexical_decision_task_DD_L2,2021.2.3,Win32,60.01680471,,,,,,,,,,,1.7487,1,,,,,,,,,,,,,,,,,,,,,,,,0.579101563,-0.0703125,0,0,0,,,,,,,BANANA,LB,z,y,./images/BANANALB.png,,,,,,,,,,,,,,,,,,,,,z,1,1.7487,,,,,,,,0,25,25,154,1
,,,,,,,,,,,,,,,,,60bc011503db109b7d46851d,33,2022-02-12_13h45.28.310,lexical_decision_task_DD_L2,2021.2.3,Win32,60.01680471,,,,,,,,,,,0.5432,0,,,,,,,,,,,,,,,,,,,,,,,,0.579101563,-0.0703125,0,0,0,,,,,,,JUNGLE,C,m,y,./images/JUNGLE.png,,,,,,,,,,,,,,,,,,,,,z,0,0.5432,,,,,,,,0,26,26,83,1
,,,,,,,,,,,,,,,,,60bc011503db109b7d46851d,33,2022-02-12_13h45.28.310,lexical_decision_task_DD_L2,2021.2.3,Win32,60.01680471,,,,,,,,,,,2.3828,1,,,,,,,,,,,,,,,,,,,,,,,,0.579101563,-0.0703125,0,0,0,,,,,,,CASINO,LB,z,y,./images/CASINOLB.png,,,,,,,,,,,,,,,,,,,,,z,1,2.3828,,,,,,,,0,27,27,112,1
,,,,,,,,,,,,,,,,,60bc011503db109b7d46851d,33,2022-02-12_13h45.28.310,lexical_decision_task_DD_L2,2021.2.3,Win32,60.01680471,,,,,,,,,,,1.7642,1,,,,,,,,,,,,,,,,,,,,,,,,0.579101563,-0.0703125,0,0,0,,,,,,,BERRY,C,m,y,./images/BERRY.png,,,,,,,,,,,,,,,,,,,,,m,1,1.7642,,,,,,,,0,28,28,47,1
,,,,,,,,,,,,,,,,,60bc011503db109b7d46851d,33,2022-02-12_13h45.28.310,lexical_decision_task_DD_L2,2021.2.3,Win32,60.01680471,,,,,,,,,,,1.616,1,,,,,,,,,,,,,,,,,,,,,,,,0.579101563,-0.0703125,0,0,0,,,,,,,DRUMS,LB,m,y,./images/DRUMSLB.png,,,,,,,,,,,,,,,,,,,,,m,1,1.616,,,,,,,,0,29,29,49,1
,,,,,,,,,,,,,,,,,60bc011503db109b7d46851d,33,2022-02-12_13h45.28.310,lexical_decision_task_DD_L2,2021.2.3,Win32,60.01680471,,,,,,,,,,,1.3728,0,,,,,,,,,,,,,,,,,,,,,,,,0.579101563,-0.0703125,0,0,0,,,,,,,FLASK,HB,z,y,./images/FLASKHB.png,,,,,,,,,,,,,,,,,,,,,m,0,1.3728,,,,,,,,0,30,30,156,1
,,,,,,,,,,,,,,,,,60bc011503db109b7d46851d,33,2022-02-12_13h45.28.310,lexical_decision_task_DD_L2,2021.2.3,Win32,60.01680471,,,,,,,,,,,0.8702,1,,,,,,,,,,,,,,,,,,,,,,,,0.579101563,-0.0703125,0,0,0,,,,,,,POODLE,HB,m,y,./images/POODLEHB.png,,,,,,,,,,,,,,,,,,,,,m,1,0.8702,,,,,,,,0,31,31,81,1
,,,,,,,,,,,,,,,,,60bc011503db109b7d46851d,33,2022-02-12_13h45.28.310,lexical_decision_task_DD_L2,2021.2.3,Win32,60.01680471,,,,,,,,,,,0.7978,1,,,,,,,,,,,,,,,,,,,,,,,,0.579101563,-0.0703125,0,0,0,,,,,,,MUSCLE,LB,m,y,./images/MUSCLELB.png,,,,,,,,,,,,,,,,,,,,,m,1,0.7978,,,,,,,,0,32,32,4,1
,,,,,,,,,,,,,,,,,60bc011503db109b7d46851d,33,2022-02-12_13h45.28.310,lexical_decision_task_DD_L2,2021.2.3,Win32,60.01680471,,,,,,,,,,,0.9392,1,,,,,,,,,,,,,,,,,,,,,,,,0.579101563,-0.0703125,0,0,0,,,,,,,TORCH,C,m,y,./images/TORCH.png,,,,,,,,,,,,,,,,,,,,,m,1,0.9392,,,,,,,,0,33,33,68,1
,,,,,,,,,,,,,,,,,60bc011503db109b7d46851d,33,2022-02-12_13h45.28.310,lexical_decision_task_DD_L2,2021.2.3,Win32,60.01680471,,,,,,,,,,,0.8223,1,,,,,,,,,,,,,,,,,,,,,,,,0.579101563,-0.0703125,0,0,0,,,,,,,FOLDER,HB,m,y,./images/FOLDERHB.png,,,,,,,,,,,,,,,,,,,,,m,1,0.8223,,,,,,,,0,34,34,42,1
,,,,,,,,,,,,,,,,,60bc011503db109b7d46851d,33,2022-02-12_13h45.28.310,lexical_decision_task_DD_L2,2021.2.3,Win32,60.01680471,,,,,,,,,,,1.5491,1,,,,,,,,,,,,,,,,,,,,,,,,0.579101563,-0.0703125,0,0,0,,,,,,,KITTEN,HB,m,y,./images/KITTENHB.png,,,,,,,,,,,,,,,,,,,,,m,1,1.5491,,,,,,,,0,35,35,45,1
,,,,,,,,,,,,,,,,,60bc011503db109b7d46851d,33,2022-02-12_13h45.28.310,lexical_decision_task_DD_L2,2021.2.3,Win32,60.01680471,,,,,,,,,,,1.0559,1,,,,,,,,,,,,,,,,,,,,,,,,0.579101563,-0.0703125,0,0,0,,,,,,,JUMPER,C,z,y,./images/JUMPER.png,,,,,,,,,,,,,,,,,,,,,z,1,1.0559,,,,,,,,0,36,36,158,1
,,,,,,,,,,,,,,,,,60bc011503db109b7d46851d,33,2022-02-12_13h45.28.310,lexical_decision_task_DD_L2,2021.2.3,Win32,60.01680471,,,,,,,,,,,0.7901,1,,,,,,,,,,,,,,,,,,,,,,,,0.579101563,-0.0703125,0,0,0,,,,,,,SNAKE,LB,z,y,./images/SNAKELB.png,,,,,,,,,,,,,,,,,,,,,z,1,0.7901,,,,,,,,0,37,37,124,1
,,,,,,,,,,,,,,,,,60bc011503db109b7d46851d,33,2022-02-12_13h45.28.310,lexical_decision_task_DD_L2,2021.2.3,Win32,60.01680471,,,,,,,,,,,1.3742,0,,,,,,,,,,,,,,,,,,,,,,,,0.579101563,-0.0703125,0,0,0,,,,,,,BUTTER,HB,z,y,./images/BUTTERHB.png,,,,,,,,,,,,,,,,,,,,,m,0,1.3742,,,,,,,,0,38,38,111,1
,,,,,,,,,,,,,,,,,60bc011503db109b7d46851d,33,2022-02-12_13h45.28.310,lexical_decision_task_DD_L2,2021.2.3,Win32,60.01680471,,,,,,,,,,,1.3991,1,,,,,,,,,,,,,,,,,,,,,,,,0.579101563,-0.0703125,0,0,0,,,,,,,PISTOL,C,z,y,./images/PISTOL.png,,,,,,,,,,,,,,,,,,,,,z,1,1.3991,,,,,,,,0,39,39,113,1
,,,,,,,,,,,,,,,,,60bc011503db109b7d46851d,33,2022-02-12_13h45.28.310,lexical_decision_task_DD_L2,2021.2.3,Win32,60.01680471,,,,,,,,,,,0.7278,1,,,,,,,,,,,,,,,,,,,,,,,,0.579101563,-0.0703125,0,0,0,,,,,,,STATUE,HB,z,y,./images/STATUEHB.png,,,,,,,,,,,,,,,,,,,,,z,1,0.7278,,,,,,,,0,40,40,150,1
,,,,,,,,,,,,,,,,,60bc011503db109b7d46851d,33,2022-02-12_13h45.28.310,lexical_decision_task_DD_L2,2021.2.3,Win32,60.01680471,,,,,,,,,,,0.9713,0,,,,,,,,,,,,,,,,,,,,,,,,0.579101563,-0.0703125,0,0,0,space,,,,,,SQUARE,HB,m,y,./images/SQUAREHB.png,48.9727,,,,,,,,,,,,,,,,,,,,z,0,0.9713,,,,,,,,0,41,41,6,1
,,,,,,,,,,,,,,,,,60bc011503db109b7d46851d,33,2022-02-12_13h45.28.310,lexical_decision_task_DD_L2,2021.2.3,Win32,60.01680471,,,,,,,,,,,1.5071,1,,,,,,,,,,,,,,,,,,,,,,,,0.579101563,-0.0703125,0,0,0,,,,,,,ARROW,HB,z,y,./images/ARROWHB.png,,,,,,,,,,,,,,,,,,,,,z,1,1.5071,,,,,,,,0,42,42,153,1
,,,,,,,,,,,,,,,,,60bc011503db109b7d46851d,33,2022-02-12_13h45.28.310,lexical_decision_task_DD_L2,2021.2.3,Win32,60.01680471,,,,,,,,,,,0.7356,1,,,,,,,,,,,,,,,,,,,,,,,,0.579101563,-0.0703125,0,0,0,,,,,,,STREAM,C,z,y,./images/STREAM.png,,,,,,,,,,,,,,,,,,,,,z,1,0.7356,,,,,,,,0,43,43,125,1
,,,,,,,,,,,,,,,,,60bc011503db109b7d46851d,33,2022-02-12_13h45.28.310,lexical_decision_task_DD_L2,2021.2.3,Win32,60.01680471,,,,,,,,,,,1.0263,0,,,,,,,,,,,,,,,,,,,,,,,,0.579101563,-0.0703125,0,0,0,,,,,,,DESERT,LB,z,y,./images/DESERTLB.png,,,,,,,,,,,,,,,,,,,,,m,0,1.0263,,,,,,,,0,44,44,136,1
,,,,,,,,,,,,,,,,,60bc011503db109b7d46851d,33,2022-02-12_13h45.28.310,lexical_decision_task_DD_L2,2021.2.3,Win32,60.01680471,,,,,,,,,,,0.8419,0,,,,,,,,,,,,,,,,,,,,,,,,0.579101563,-0.0703125,0,0,0,,,,,,,LAGOON,C,z,y,./images/LAGOON.png,,,,,,,,,,,,,,,,,,,,,m,0,0.8419,,,,,,,,0,45,45,131,1
,,,,,,,,,,,,,,,,,60bc011503db109b7d46851d,33,2022-02-12_13h45.28.310,lexical_decision_task_DD_L2,2021.2.3,Win32,60.01680471,,,,,,,,,,,1.0835,1,,,,,,,,,,,,,,,,,,,,,,,,0.579101563,-0.0703125,0,0,0,,,,,,,PASTA,C,m,y,./images/PASTA.png,,,,,,,,,,,,,,,,,,,,,m,1,1.0835,,,,,,,,0,46,46,5,1
,,,,,,,,,,,,,,,,,60bc011503db109b7d46851d,33,2022-02-12_13h45.28.310,lexical_decision_task_DD_L2,2021.2.3,Win32,60.01680471,,,,,,,,,,,0.7653,1,,,,,,,,,,,,,,,,,,,,,,,,0.579101563,-0.0703125,0,0,0,,,,,,,HOCKEY,C,z,y,./images/HOCKEY.png,,,,,,,,,,,,,,,,,,,,,z,1,0.7653,,,,,,,,0,47,47,116,1
,,,,,,,,,,,,,,,,,60bc011503db109b7d46851d,33,2022-02-12_13h45.28.310,lexical_decision_task_DD_L2,2021.2.3,Win32,60.01680471,,,,,,,,,,,0.7343,1,,,,,,,,,,,,,,,,,,,,,,,,0.579101563,-0.0703125,0,0,0,,,,,,,SHIELD,HB,z,y,./images/SHIELDHB.png,,,,,,,,,,,,,,,,,,,,,z,1,0.7343,,,,,,,,0,48,48,132,1
,,,,,,,,,,,,,,,,,60bc011503db109b7d46851d,33,2022-02-12_13h45.28.310,lexical_decision_task_DD_L2,2021.2.3,Win32,60.01680471,,,,,,,,,,,0.714,1,,,,,,,,,,,,,,,,,,,,,,,,0.579101563,-0.0703125,0,0,0,,,,,,,STOOL,LB,z,y,./images/STOOLLB.png,,,,,,,,,,,,,,,,,,,,,z,1,0.714,,,,,,,,0,49,49,127,1
,,,,,,,,,,,,,,,,,60bc011503db109b7d46851d,33,2022-02-12_13h45.28.310,lexical_decision_task_DD_L2,2021.2.3,Win32,60.01680471,,,,,,,,,,,0.717,1,,,,,,,,,,,,,,,,,,,,,,,,0.579101563,-0.0703125,0,0,0,,,,,,,FINGER,HB,m,y,./images/FINGERHB.png,,,,,,,,,,,,,,,,,,,,,m,1,0.717,,,,,,,,0,50,50,3,1
,,,,,,,,,,,,,,,,,60bc011503db109b7d46851d,33,2022-02-12_13h45.28.310,lexical_decision_task_DD_L2,2021.2.3,Win32,60.01680471,,,,,,,,,,,1.1147,1,,,,,,,,,,,,,,,,,,,,,,,,0.579101563,-0.0703125,0,0,0,,,,,,,BOILER,HB,z,y,./images/BOILERHB.png,,,,,,,,,,,,,,,,,,,,,z,1,1.1147,,,,,,,,0,51,51,120,1
,,,,,,,,,,,,,,,,,60bc011503db109b7d46851d,33,2022-02-12_13h45.28.310,lexical_decision_task_DD_L2,2021.2.3,Win32,60.01680471,,,,,,,,,,,0.9716,1,,,,,,,,,,,,,,,,,,,,,,,,0.579101563,-0.0703125,0,0,0,,,,,,,TWINS,HB,m,y,./images/TWINSHB.png,,,,,,,,,,,,,,,,,,,,,m,1,0.9716,,,,,,,,0,52,52,60,1
,,,,,,,,,,,,,,,,,60bc011503db109b7d46851d,33,2022-02-12_13h45.28.310,lexical_decision_task_DD_L2,2021.2.3,Win32,60.01680471,,,,,,,,,,,0.8046,1,,,,,,,,,,,,,,,,,,,,,,,,0.579101563,-0.0703125,0,0,0,,,,,,,HEATER,C,z,y,./images/HEATER.png,,,,,,,,,,,,,,,,,,,,,z,1,0.8046,,,,,,,,0,53,53,140,1
,,,,,,,,,,,,,,,,,60bc011503db109b7d46851d,33,2022-02-12_13h45.28.310,lexical_decision_task_DD_L2,2021.2.3,Win32,60.01680471,,,,,,,,,,,0.9888,0,,,,,,,,,,,,,,,,,,,,,,,,0.579101563,-0.0703125,0,0,0,,,,,,,PEACH,C,m,y,./images/PEACH.png,,,,,,,,,,,,,,,,,,,,,z,0,0.9888,,,,,,,,0,54,54,35,1
,,,,,,,,,,,,,,,,,60bc011503db109b7d46851d,33,2022-02-12_13h45.28.310,lexical_decision_task_DD_L2,2021.2.3,Win32,60.01680471,,,,,,,,,,,0.7335,1,,,,,,,,,,,,,,,,,,,,,,,,0.579101563,-0.0703125,0,0,0,,,,,,,HAMMER,HB,z,y,./images/HAMMERHB.png,,,,,,,,,,,,,,,,,,,,,z,1,0.7335,,,,,,,,0,55,55,159,1
,,,,,,,,,,,,,,,,,60bc011503db109b7d46851d,33,2022-02-12_13h45.28.310,lexical_decision_task_DD_L2,2021.2.3,Win32,60.01680471,,,,,,,,,,,0.8805,0,,,,,,,,,,,,,,,,,,,,,,,,0.579101563,-0.0703125,0,0,0,,,,,,,BASKET,C,z,y,./images/BASKET.png,,,,,,,,,,,,,,,,,,,,,m,0,0.8805,,,,,,,,0,56,56,128,1
,,,,,,,,,,,,,,,,,60bc011503db109b7d46851d,33,2022-02-12_13h45.28.310,lexical_decision_task_DD_L2,2021.2.3,Win32,60.01680471,,,,,,,,,,,0.7966,1,,,,,,,,,,,,,,,,,,,,,,,,0.579101563,-0.0703125,0,0,0,,,,,,,CLOTH,C,z,y,./images/CLOTH.png,,,,,,,,,,,,,,,,,,,,,z,1,0.7966,,,,,,,,0,57,57,107,1
,,,,,,,,,,,,,,,,,60bc011503db109b7d46851d,33,2022-02-12_13h45.28.310,lexical_decision_task_DD_L2,2021.2.3,Win32,60.01680471,,,,,,,,,,,0.621,1,,,,,,,,,,,,,,,,,,,,,,,,0.579101563,-0.0703125,0,0,0,,,,,,,TOMATO,HB,m,y,./images/TOMATOHB.png,,,,,,,,,,,,,,,,,,,,,m,1,0.621,,,,,,,,0,58,58,0,1
,,,,,,,,,,,,,,,,,60bc011503db109b7d46851d,33,2022-02-12_13h45.28.310,lexical_decision_task_DD_L2,2021.2.3,Win32,60.01680471,,,,,,,,,,,0.7883,1,,,,,,,,,,,,,,,,,,,,,,,,0.579101563,-0.0703125,0,0,0,,,,,,,SHELF,HB,m,y,./images/SHELFHB.png,,,,,,,,,,,,,,,,,,,,,m,1,0.7883,,,,,,,,0,59,59,39,1
,,,,,,,,,,,,,,,,,60bc011503db109b7d46851d,33,2022-02-12_13h45.28.310,lexical_decision_task_DD_L2,2021.2.3,Win32,60.01680471,,,,,,,,,,,1.3807,0,,,,,,,,,,,,,,,,,,,,,,,,0.579101563,-0.0703125,0,0,0,,,,,,,PARADE,C,z,y,./images/PARADE.png,,,,,,,,,,,,,,,,,,,,,m,0,1.3807,,,,,,,,0,60,60,101,1
,,,,,,,,,,,,,,,,,60bc011503db109b7d46851d,33,2022-02-12_13h45.28.310,lexical_decision_task_DD_L2,2021.2.3,Win32,60.01680471,,,,,,,,,,,1.31,1,,,,,,,,,,,,,,,,,,,,,,,,0.579101563,-0.0703125,0,0,0,,,,,,,BOXER,LB,z,y,./images/BOXERLB.png,,,,,,,,,,,,,,,,,,,,,z,1,1.31,,,,,,,,0,61,61,88,1
,,,,,,,,,,,,,,,,,60bc011503db109b7d46851d,33,2022-02-12_13h45.28.310,lexical_decision_task_DD_L2,2021.2.3,Win32,60.01680471,,,,,,,,,,,0.6824,1,,,,,,,,,,,,,,,,,,,,,,,,0.579101563,-0.0703125,0,0,0,,,,,,,TIGER,LB,z,y,./images/TIGERLB.png,,,,,,,,,,,,,,,,,,,,,z,1,0.6824,,,,,,,,0,62,62,121,1
,,,,,,,,,,,,,,,,,60bc011503db109b7d46851d,33,2022-02-12_13h45.28.310,lexical_decision_task_DD_L2,2021.2.3,Win32,60.01680471,,,,,,,,,,,2.1424,1,,,,,,,,,,,,,,,,,,,,,,,,0.579101563,-0.0703125,0,0,0,,,,,,,ENGINE,C,z,y,./images/ENGINE.png,,,,,,,,,,,,,,,,,,,,,z,1,2.1424,,,,,,,,0,63,63,122,1
,,,,,,,,,,,,,,,,,60bc011503db109b7d46851d,33,2022-02-12_13h45.28.310,lexical_decision_task_DD_L2,2021.2.3,Win32,60.01680471,,,,,,,,,,,0.6898,0,,,,,,,,,,,,,,,,,,,,,,,,0.579101563,-0.0703125,0,0,0,,,,,,,DOUGH,LB,m,y,./images/DOUGHLB.png,,,,,,,,,,,,,,,,,,,,,z,0,0.6898,,,,,,,,0,64,64,19,1
,,,,,,,,,,,,,,,,,60bc011503db109b7d46851d,33,2022-02-12_13h45.28.310,lexical_decision_task_DD_L2,2021.2.3,Win32,60.01680471,,,,,,,,,,,0.9564,1,,,,,,,,,,,,,,,,,,,,,,,,0.579101563,-0.0703125,0,0,0,,,,,,,PEBBLE,LB,z,y,./images/PEBBLELB.png,,,,,,,,,,,,,,,,,,,,,z,1,0.9564,,,,,,,,0,65,65,166,1
,,,,,,,,,,,,,,,,,60bc011503db109b7d46851d,33,2022-02-12_13h45.28.310,lexical_decision_task_DD_L2,2021.2.3,Win32,60.01680471,,,,,,,,,,,0.8087,1,,,,,,,,,,,,,,,,,,,,,,,,0.579101563,-0.0703125,0,0,0,,,,,,,CLIFF,C,z,y,./images/CLIFF.png,,,,,,,,,,,,,,,,,,,,,z,1,0.8087,,,,,,,,0,66,66,92,1
,,,,,,,,,,,,,,,,,60bc011503db109b7d46851d,33,2022-02-12_13h45.28.310,lexical_decision_task_DD_L2,2021.2.3,Win32,60.01680471,,,,,,,,,,,0.7998,0,,,,,,,,,,,,,,,,,,,,,,,,0.579101563,-0.0703125,0,0,0,,,,,,,QUILL,LB,m,y,./images/QUILLLB.png,,,,,,,,,,,,,,,,,,,,,z,0,0.7998,,,,,,,,0,67,67,31,1
,,,,,,,,,,,,,,,,,60bc011503db109b7d46851d,33,2022-02-12_13h45.28.310,lexical_decision_task_DD_L2,2021.2.3,Win32,60.01680471,,,,,,,,,,,0.9676,1,,,,,,,,,,,,,,,,,,,,,,,,0.579101563,-0.0703125,0,0,0,,,,,,,MUFFIN,LB,m,y,./images/MUFFINLB.png,,,,,,,,,,,,,,,,,,,,,m,1,0.9676,,,,,,,,0,68,68,55,1
,,,,,,,,,,,,,,,,,60bc011503db109b7d46851d,33,2022-02-12_13h45.28.310,lexical_decision_task_DD_L2,2021.2.3,Win32,60.01680471,,,,,,,,,,,0.8009,0,,,,,,,,,,,,,,,,,,,,,,,,0.579101563,-0.0703125,0,0,0,,,,,,,FALCON,LB,m,y,./images/FALCONLB.png,,,,,,,,,,,,,,,,,,,,,z,0,0.8009,,,,,,,,0,69,69,28,1
,,,,,,,,,,,,,,,,,60bc011503db109b7d46851d,33,2022-02-12_13h45.28.310,lexical_decision_task_DD_L2,2021.2.3,Win32,60.01680471,,,,,,,,,,,1.2257,1,,,,,,,,,,,,,,,,,,,,,,,,0.579101563,-0.0703125,0,0,0,,,,,,,POKER,LB,z,y,./images/POKERLB.png,,,,,,,,,,,,,,,,,,,,,z,1,1.2257,,,,,,,,0,70,70,151,1
,,,,,,,,,,,,,,,,,60bc011503db109b7d46851d,33,2022-02-12_13h45.28.310,lexical_decision_task_DD_L2,2021.2.3,Win32,60.01680471,,,,,,,,,,,0.9374,0,,,,,,,,,,,,,,,,,,,,,,,,0.579101563,-0.0703125,0,0,0,,,,,,,FERRY,HB,z,y,./images/FERRYHB.png,,,,,,,,,,,,,,,,,,,,,m,0,0.9374,,,,,,,,0,71,71,141,1
,,,,,,,,,,,,,,,,,60bc011503db109b7d46851d,33,2022-02-12_13h45.28.310,lexical_decision_task_DD_L2,2021.2.3,Win32,60.01680471,,,,,,,,,,,1.0764,0,,,,,,,,,,,,,,,,,,,,,,,,0.579101563,-0.0703125,0,0,0,,,,,,,BIRTH,LB,m,y,./images/BIRTHLB.png,,,,,,,,,,,,,,,,,,,,,z,0,1.0764,,,,,,,,0,72,72,37,1
,,,,,,,,,,,,,,,,,60bc011503db109b7d46851d,33,2022-02-12_13h45.28.310,lexical_decision_task_DD_L2,2021.2.3,Win32,60.01680471,,,,,,,,,,,0.8248,0,,,,,,,,,,,,,,,,,,,,,,,,0.579101563,-0.0703125,0,0,0,,,,,,,SHORE,HB,m,y,./images/SHOREHB.png,,,,,,,,,,,,,,,,,,,,,z,0,0.8248,,,,,,,,0,73,73,12,1
,,,,,,,,,,,,,,,,,60bc011503db109b7d46851d,33,2022-02-12_13h45.28.310,lexical_decision_task_DD_L2,2021.2.3,Win32,60.01680471,,,,,,,,,,,0.9331,0,,,,,,,,,,,,,,,,,,,,,,,,0.579101563,-0.0703125,0,0,0,,,,,,,BAKER,HB,z,y,./images/BAKERHB.png,,,,,,,,,,,,,,,,,,,,,m,0,0.9331,,,,,,,,0,74,74,147,1
,,,,,,,,,,,,,,,,,60bc011503db109b7d46851d,33,2022-02-12_13h45.28.310,lexical_decision_task_DD_L2,2021.2.3,Win32,60.01680471,,,,,,,,,,,0.6747,0,,,,,,,,,,,,,,,,,,,,,,,,0.579101563,-0.0703125,0,0,0,,,,,,,CANYON,LB,m,y,./images/CANYONLB.png,,,,,,,,,,,,,,,,,,,,,z,0,0.6747,,,,,,,,0,75,75,34,1
,,,,,,,,,,,,,,,,,60bc011503db109b7d46851d,33,2022-02-12_13h45.28.310,lexical_decision_task_DD_L2,2021.2.3,Win32,60.01680471,,,,,,,,,,,0.7851,0,,,,,,,,,,,,,,,,,,,,,,,,0.579101563,-0.0703125,0,0,0,,,,,,,CANDLE,LB,m,y,./images/CANDLELB.png,,,,,,,,,,,,,,,,,,,,,z,0,0.7851,,,,,,,,0,76,76,61,1
,,,,,,,,,,,,,,,,,60bc011503db109b7d46851d,33,2022-02-12_13h45.28.310,lexical_decision_task_DD_L2,2021.2.3,Win32,60.01680471,,,,,,,,,,,1.3853,0,,,,,,,,,,,,,,,,,,,,,,,,0.579101563,-0.0703125,0,0,0,,,,,,,PLANET,C,z,y,./images/PLANET.png,,,,,,,,,,,,,,,,,,,,,m,0,1.3853,,,,,,,,0,77,77,164,1
,,,,,,,,,,,,,,,,,60bc011503db109b7d46851d,33,2022-02-12_13h45.28.310,lexical_decision_task_DD_L2,2021.2.3,Win32,60.01680471,,,,,,,,,,,0.9776,0,,,,,,,,,,,,,,,,,,,,,,,,0.579101563,-0.0703125,0,0,0,,,,,,,WALNUT,HB,z,y,./images/WALNUTHB.png,,,,,,,,,,,,,,,,,,,,,m,0,0.9776,,,,,,,,0,78,78,84,1
,,,,,,,,,,,,,,,,,60bc011503db109b7d46851d,33,2022-02-12_13h45.28.310,lexical_decision_task_DD_L2,2021.2.3,Win32,60.01680471,,,,,,,,,,,0.8193,1,,,,,,,,,,,,,,,,,,,,,,,,0.579101563,-0.0703125,0,0,0,,,,,,,NOOSE,HB,m,y,./images/NOOSEHB.png,,,,,,,,,,,,,,,,,,,,,m,1,0.8193,,,,,,,,0,79,79,72,1
,,,,,,,,,,,,,,,,,60bc011503db109b7d46851d,33,2022-02-12_13h45.28.310,lexical_decision_task_DD_L2,2021.2.3,Win32,60.01680471,,,,,,,,,,,0.7385,1,,,,,,,,,,,,,,,,,,,,,,,,0.579101563,-0.0703125,0,0,0,,,,,,,BANNER,LB,m,y,./images/BANNERLB.png,,,,,,,,,,,,,,,,,,,,,m,1,0.7385,,,,,,,,0,80,80,52,1
,,,,,,,,,,,,,,,,,60bc011503db109b7d46851d,33,2022-02-12_13h45.28.310,lexical_decision_task_DD_L2,2021.2.3,Win32,60.01680471,,,,,,,,,,,0.8933,1,,,,,,,,,,,,,,,,,,,,,,,,0.579101563,-0.0703125,0,0,0,,,,,,,ALLEY,LB,z,y,./images/ALLEYLB.png,,,,,,,,,,,,,,,,,,,,,z,1,0.8933,,,,,,,,0,81,81,139,1
,,,,,,,,,,,,,,,,,60bc011503db109b7d46851d,33,2022-02-12_13h45.28.310,lexical_decision_task_DD_L2,2021.2.3,Win32,60.01680471,,,,,,,,,,,1.5851,1,,,,,,,,,,,,,,,,,,,,,,,,0.579101563,-0.0703125,0,0,0,,,,,,,DRILL,HB,z,y,./images/DRILLHB.png,,,,,,,,,,,,,,,,,,,,,z,1,1.5851,,,,,,,,0,82,82,165,1
,,,,,,,,,,,,,,,,,60bc011503db109b7d46851d,33,2022-02-12_13h45.28.310,lexical_decision_task_DD_L2,2021.2.3,Win32,60.01680471,,,,,,,,,,,1.7065,1,,,,,,,,,,,,,,,,,,,,,,,,0.579101563,-0.0703125,0,0,0,space,,,,,,PARCEL,HB,z,y,./images/PARCELHB.png,76.2637,,,,,,,,,,,,,,,,,,,,z,1,1.7065,,,,,,,,0,83,83,102,1
,,,,,,,,,,,,,,,,,60bc011503db109b7d46851d,33,2022-02-12_13h45.28.310,lexical_decision_task_DD_L2,2021.2.3,Win32,60.01680471,,,,,,,,,,,1.2525,0,,,,,,,,,,,,,,,,,,,,,,,,0.579101563,-0.0703125,0,0,0,,,,,,,DONKEY,LB,z,y,./images/DONKEYLB.png,,,,,,,,,,,,,,,,,,,,,m,0,1.2525,,,,,,,,0,84,84,103,1
,,,,,,,,,,,,,,,,,60bc011503db109b7d46851d,33,2022-02-12_13h45.28.310,lexical_decision_task_DD_L2,2021.2.3,Win32,60.01680471,,,,,,,,,,,1.2658,0,,,,,,,,,,,,,,,,,,,,,,,,0.579101563,-0.0703125,0,0,0,,,,,,,BAMBOO,C,z,y,./images/BAMBOO.png,,,,,,,,,,,,,,,,,,,,,m,0,1.2658,,,,,,,,0,85,85,89,1
,,,,,,,,,,,,,,,,,60bc011503db109b7d46851d,33,2022-02-12_13h45.28.310,lexical_decision_task_DD_L2,2021.2.3,Win32,60.01680471,,,,,,,,,,,1.4992,0,,,,,,,,,,,,,,,,,,,,,,,,0.579101563,-0.0703125,0,0,0,,,,,,,MIRROR,HB,m,y,./images/MIRRORHB.png,,,,,,,,,,,,,,,,,,,,,z,0,1.4992,,,,,,,,0,86,86,63,1
,,,,,,,,,,,,,,,,,60bc011503db109b7d46851d,33,2022-02-12_13h45.28.310,lexical_decision_task_DD_L2,2021.2.3,Win32,60.01680471,,,,,,,,,,,1.2363,1,,,,,,,,,,,,,,,,,,,,,,,,0.579101563,-0.0703125,0,0,0,,,,,,,BEARD,C,m,y,./images/BEARD.png,,,,,,,,,,,,,,,,,,,,,m,1,1.2363,,,,,,,,0,87,87,2,1
,,,,,,,,,,,,,,,,,60bc011503db109b7d46851d,33,2022-02-12_13h45.28.310,lexical_decision_task_DD_L2,2021.2.3,Win32,60.01680471,,,,,,,,,,,1.306,1,,,,,,,,,,,,,,,,,,,,,,,,0.579101563,-0.0703125,0,0,0,,,,,,,MOSQUE,LB,m,y,./images/MOSQUELB.png,,,,,,,,,,,,,,,,,,,,,m,1,1.306,,,,,,,,0,88,88,43,1
,,,,,,,,,,,,,,,,,60bc011503db109b7d46851d,33,2022-02-12_13h45.28.310,lexical_decision_task_DD_L2,2021.2.3,Win32,60.01680471,,,,,,,,,,,0.9272,1,,,,,,,,,,,,,,,,,,,,,,,,0.579101563,-0.0703125,0,0,0,,,,,,,LLAMA,C,z,y,./images/LLAMA.png,,,,,,,,,,,,,,,,,,,,,z,1,0.9272,,,,,,,,0,89,89,119,1
,,,,,,,,,,,,,,,,,60bc011503db109b7d46851d,33,2022-02-12_13h45.28.310,lexical_decision_task_DD_L2,2021.2.3,Win32,60.01680471,,,,,,,,,,,0.89,1,,,,,,,,,,,,,,,,,,,,,,,,0.579101563,-0.0703125,0,0,0,,,,,,,GRANNY,C,z,y,./images/GRANNY.png,,,,,,,,,,,,,,,,,,,,,z,1,0.89,,,,,,,,0,90,90,104,1
,,,,,,,,,,,,,,,,,60bc011503db109b7d46851d,33,2022-02-12_13h45.28.310,lexical_decision_task_DD_L2,2021.2.3,Win32,60.01680471,,,,,,,,,,,0.9029,1,,,,,,,,,,,,,,,,,,,,,,,,0.579101563,-0.0703125,0,0,0,,,,,,,BISHOP,LB,z,y,./images/BISHOPLB.png,,,,,,,,,,,,,,,,,,,,,z,1,0.9029,,,,,,,,0,91,91,133,1
,,,,,,,,,,,,,,,,,60bc011503db109b7d46851d,33,2022-02-12_13h45.28.310,lexical_decision_task_DD_L2,2021.2.3,Win32,60.01680471,,,,,,,,,,,0.8189,1,,,,,,,,,,,,,,,,,,,,,,,,0.579101563,-0.0703125,0,0,0,,,,,,,RAZOR,LB,z,y,./images/RAZORLB.png,,,,,,,,,,,,,,,,,,,,,z,1,0.8189,,,,,,,,0,92,92,118,1
,,,,,,,,,,,,,,,,,60bc011503db109b7d46851d,33,2022-02-12_13h45.28.310,lexical_decision_task_DD_L2,2021.2.3,Win32,60.01680471,,,,,,,,,,,0.6833,1,,,,,,,,,,,,,,,,,,,,,,,,0.579101563,-0.0703125,0,0,0,,,,,,,SAUCE,HB,z,y,./images/SAUCEHB.png,,,,,,,,,,,,,,,,,,,,,z,1,0.6833,,,,,,,,0,93,93,135,1
,,,,,,,,,,,,,,,,,60bc011503db109b7d46851d,33,2022-02-12_13h45.28.310,lexical_decision_task_DD_L2,2021.2.3,Win32,60.01680471,,,,,,,,,,,0.991,1,,,,,,,,,,,,,,,,,,,,,,,,0.579101563,-0.0703125,0,0,0,,,,,,,PENCE,LB,m,y,./images/PENCELB.png,,,,,,,,,,,,,,,,,,,,,m,1,0.991,,,,,,,,0,94,94,16,1
,,,,,,,,,,,,,,,,,60bc011503db109b7d46851d,33,2022-02-12_13h45.28.310,lexical_decision_task_DD_L2,2021.2.3,Win32,60.01680471,,,,,,,,,,,1.0167,1,,,,,,,,,,,,,,,,,,,,,,,,0.579101563,-0.0703125,0,0,0,,,,,,,SWING,LB,m,y,./images/SWINGLB.png,,,,,,,,,,,,,,,,,,,,,m,1,1.0167,,,,,,,,0,95,95,40,1
,,,,,,,,,,,,,,,,,60bc011503db109b7d46851d,33,2022-02-12_13h45.28.310,lexical_decision_task_DD_L2,2021.2.3,Win32,60.01680471,,,,,,,,,,,0.679,0,,,,,,,,,,,,,,,,,,,,,,,,0.579101563,-0.0703125,0,0,0,,,,,,,KIDNEY,HB,m,y,./images/KIDNEYHB.png,,,,,,,,,,,,,,,,,,,,,z,0,0.679,,,,,,,,0,96,96,21,1
,,,,,,,,,,,,,,,,,60bc011503db109b7d46851d,33,2022-02-12_13h45.28.310,lexical_decision_task_DD_L2,2021.2.3,Win32,60.01680471,,,,,,,,,,,0.7974,1,,,,,,,,,,,,,,,,,,,,,,,,0.579101563,-0.0703125,0,0,0,,,,,,,CANOE,LB,z,y,./images/CANOELB.png,,,,,,,,,,,,,,,,,,,,,z,1,0.7974,,,,,,,,0,97,97,142,1
,,,,,,,,,,,,,,,,,60bc011503db109b7d46851d,33,2022-02-12_13h45.28.310,lexical_decision_task_DD_L2,2021.2.3,Win32,60.01680471,,,,,,,,,,,1.068,1,,,,,,,,,,,,,,,,,,,,,,,,0.579101563,-0.0703125,0,0,0,,,,,,,INFANT,LB,m,y,./images/INFANTLB.png,,,,,,,,,,,,,,,,,,,,,m,1,1.068,,,,,,,,0,98,98,76,1
,,,,,,,,,,,,,,,,,60bc011503db109b7d46851d,33,2022-02-12_13h45.28.310,lexical_decision_task_DD_L2,2021.2.3,Win32,60.01680471,,,,,,,,,,,0.8819,1,,,,,,,,,,,,,,,,,,,,,,,,0.579101563,-0.0703125,0,0,0,,,,,,,PIMPLE,C,m,y,./images/PIMPLE.png,,,,,,,,,,,,,,,,,,,,,m,1,0.8819,,,,,,,,0,99,99,71,1
,,,,,,,,,,,,,,,,,60bc011503db109b7d46851d,33,2022-02-12_13h45.28.310,lexical_decision_task_DD_L2,2021.2.3,Win32,60.01680471,,,,,,,,,,,0.654,0,,,,,,,,,,,,,,,,,,,,,,,,0.579101563,-0.0703125,0,0,0,,,,,,,FENCE,C,z,y,./images/FENCE.png,,,,,,,,,,,,,,,,,,,,,m,0,0.654,,,,,,,,0,100,100,98,1
,,,,,,,,,,,,,,,,,60bc011503db109b7d46851d,33,2022-02-12_13h45.28.310,lexical_decision_task_DD_L2,2021.2.3,Win32,60.01680471,,,,,,,,,,,0.7402,1,,,,,,,,,,,,,,,,,,,,,,,,0.579101563,-0.0703125,0,0,0,,,,,,,STRING,C,m,y,./images/STRING.png,,,,,,,,,,,,,,,,,,,,,m,1,0.7402,,,,,,,,0,101,101,41,1
,,,,,,,,,,,,,,,,,60bc011503db109b7d46851d,33,2022-02-12_13h45.28.310,lexical_decision_task_DD_L2,2021.2.3,Win32,60.01680471,,,,,,,,,,,1.0165,0,,,,,,,,,,,,,,,,,,,,,,,,0.579101563,-0.0703125,0,0,0,,,,,,,SAILOR,LB,m,y,./images/SAILORLB.png,,,,,,,,,,,,,,,,,,,,,z,0,1.0165,,,,,,,,0,102,102,67,1
,,,,,,,,,,,,,,,,,60bc011503db109b7d46851d,33,2022-02-12_13h45.28.310,lexical_decision_task_DD_L2,2021.2.3,Win32,60.01680471,,,,,,,,,,,0.8064,1,,,,,,,,,,,,,,,,,,,,,,,,0.579101563,-0.0703125,0,0,0,,,,,,,MALLET,C,m,y,./images/MALLET.png,,,,,,,,,,,,,,,,,,,,,m,1,0.8064,,,,,,,,0,103,103,50,1
,,,,,,,,,,,,,,,,,60bc011503db109b7d46851d,33,2022-02-12_13h45.28.310,lexical_decision_task_DD_L2,2021.2.3,Win32,60.01680471,,,,,,,,,,,0.7743,1,,,,,,,,,,,,,,,,,,,,,,,,0.579101563,-0.0703125,0,0,0,,,,,,,ATTIC,HB,m,y,./images/ATTICHB.png,,,,,,,,,,,,,,,,,,,,,m,1,0.7743,,,,,,,,0,104,104,27,1
,,,,,,,,,,,,,,,,,60bc011503db109b7d46851d,33,2022-02-12_13h45.28.310,lexical_decision_task_DD_L2,2021.2.3,Win32,60.01680471,,,,,,,,,,,0.9198,0,,,,,,,,,,,,,,,,,,,,,,,,0.579101563,-0.0703125,0,0,0,,,,,,,CARPET,C,m,y,./images/CARPET.png,,,,,,,,,,,,,,,,,,,,,z,0,0.9198,,,,,,,,0,105,105,53,1
,,,,,,,,,,,,,,,,,60bc011503db109b7d46851d,33,2022-02-12_13h45.28.310,lexical_decision_task_DD_L2,2021.2.3,Win32,60.01680471,,,,,,,,,,,1.2831,0,,,,,,,,,,,,,,,,,,,,,,,,0.579101563,-0.0703125,0,0,0,,,,,,,DIVER,HB,z,y,./images/DIVERHB.png,,,,,,,,,,,,,,,,,,,,,m,0,1.2831,,,,,,,,0,106,106,93,1
,,,,,,,,,,,,,,,,,60bc011503db109b7d46851d,33,2022-02-12_13h45.28.310,lexical_decision_task_DD_L2,2021.2.3,Win32,60.01680471,,,,,,,,,,,1.0159,1,,,,,,,,,,,,,,,,,,,,,,,,0.579101563,-0.0703125,0,0,0,,,,,,,MELON,LB,m,y,./images/MELONLB.png,,,,,,,,,,,,,,,,,,,,,m,1,1.0159,,,,,,,,0,107,107,22,1
,,,,,,,,,,,,,,,,,60bc011503db109b7d46851d,33,2022-02-12_13h45.28.310,lexical_decision_task_DD_L2,2021.2.3,Win32,60.01680471,,,,,,,,,,,0.8054,1,,,,,,,,,,,,,,,,,,,,,,,,0.579101563,-0.0703125,0,0,0,,,,,,,CHAIN,HB,z,y,./images/CHAINHB.png,,,,,,,,,,,,,,,,,,,,,z,1,0.8054,,,,,,,,0,108,108,126,1
,,,,,,,,,,,,,,,,,60bc011503db109b7d46851d,33,2022-02-12_13h45.28.310,lexical_decision_task_DD_L2,2021.2.3,Win32,60.01680471,,,,,,,,,,,0.967,1,,,,,,,,,,,,,,,,,,,,,,,,0.579101563,-0.0703125,0,0,0,,,,,,,SLOPE,HB,z,y,./images/SLOPEHB.png,,,,,,,,,,,,,,,,,,,,,z,1,0.967,,,,,,,,0,109,109,114,1
,,,,,,,,,,,,,,,,,60bc011503db109b7d46851d,33,2022-02-12_13h45.28.310,lexical_decision_task_DD_L2,2021.2.3,Win32,60.01680471,,,,,,,,,,,0.9683,0,,,,,,,,,,,,,,,,,,,,,,,,0.579101563,-0.0703125,0,0,0,,,,,,,MOOSE,HB,m,y,./images/MOOSEHB.png,,,,,,,,,,,,,,,,,,,,,z,0,0.9683,,,,,,,,0,110,110,57,1
,,,,,,,,,,,,,,,,,60bc011503db109b7d46851d,33,2022-02-12_13h45.28.310,lexical_decision_task_DD_L2,2021.2.3,Win32,60.01680471,,,,,,,,,,,0.9668,0,,,,,,,,,,,,,,,,,,,,,,,,0.579101563,-0.0703125,0,0,0,,,,,,,FLESH,HB,z,y,./images/FLESHHB.png,,,,,,,,,,,,,,,,,,,,,m,0,0.9668,,,,,,,,0,111,111,108,1
,,,,,,,,,,,,,,,,,60bc011503db109b7d46851d,33,2022-02-12_13h45.28.310,lexical_decision_task_DD_L2,2021.2.3,Win32,60.01680471,,,,,,,,,,,0.6997,0,,,,,,,,,,,,,,,,,,,,,,,,0.579101563,-0.0703125,0,0,0,,,,,,,SNACK,LB,m,y,./images/SNACKLB.png,,,,,,,,,,,,,,,,,,,,,z,0,0.6997,,,,,,,,0,112,112,73,1
,,,,,,,,,,,,,,,,,60bc011503db109b7d46851d,33,2022-02-12_13h45.28.310,lexical_decision_task_DD_L2,2021.2.3,Win32,60.01680471,,,,,,,,,,,1.7435,1,,,,,,,,,,,,,,,,,,,,,,,,0.579101563,-0.0703125,0,0,0,,,,,,,DANCER,HB,z,y,./images/DANCERHB.png,,,,,,,,,,,,,,,,,,,,,z,1,1.7435,,,,,,,,0,113,113,105,1
,,,,,,,,,,,,,,,,,60bc011503db109b7d46851d,33,2022-02-12_13h45.28.310,lexical_decision_task_DD_L2,2021.2.3,Win32,60.01680471,,,,,,,,,,,1.5826,1,,,,,,,,,,,,,,,,,,,,,,,,0.579101563,-0.0703125,0,0,0,,,,,,,SMOKER,C,m,y,./images/SMOKER.png,,,,,,,,,,,,,,,,,,,,,m,1,1.5826,,,,,,,,0,114,114,26,1
,,,,,,,,,,,,,,,,,60bc011503db109b7d46851d,33,2022-02-12_13h45.28.310,lexical_decision_task_DD_L2,2021.2.3,Win32,60.01680471,,,,,,,,,,,1.019,0,,,,,,,,,,,,,,,,,,,,,,,,0.579101563,-0.0703125,0,0,0,,,,,,,SPORT,HB,m,y,./images/SPORTHB.png,,,,,,,,,,,,,,,,,,,,,z,0,1.019,,,,,,,,0,115,115,48,1
,,,,,,,,,,,,,,,,,60bc011503db109b7d46851d,33,2022-02-12_13h45.28.310,lexical_decision_task_DD_L2,2021.2.3,Win32,60.01680471,,,,,,,,,,,1.2902,0,,,,,,,,,,,,,,,,,,,,,,,,0.579101563,-0.0703125,0,0,0,,,,,,,MUMMY,LB,z,y,./images/MUMMYLB.png,,,,,,,,,,,,,,,,,,,,,m,0,1.2902,,,,,,,,0,116,116,130,1
,,,,,,,,,,,,,,,,,60bc011503db109b7d46851d,33,2022-02-12_13h45.28.310,lexical_decision_task_DD_L2,2021.2.3,Win32,60.01680471,,,,,,,,,,,1.2801,0,,,,,,,,,,,,,,,,,,,,,,,,0.579101563,-0.0703125,0,0,0,,,,,,,BRIDE,LB,z,y,./images/BRIDELB.png,,,,,,,,,,,,,,,,,,,,,m,0,1.2801,,,,,,,,0,117,117,148,1
,,,,,,,,,,,,,,,,,60bc011503db109b7d46851d,33,2022-02-12_13h45.28.310,lexical_decision_task_DD_L2,2021.2.3,Win32,60.01680471,,,,,,,,,,,0.7881,1,,,,,,,,,,,,,,,,,,,,,,,,0.579101563,-0.0703125,0,0,0,,,,,,,TULIP,C,m,y,./images/TULIP.png,,,,,,,,,,,,,,,,,,,,,m,1,0.7881,,,,,,,,0,118,118,8,1
,,,,,,,,,,,,,,,,,60bc011503db109b7d46851d,33,2022-02-12_13h45.28.310,lexical_decision_task_DD_L2,2021.2.3,Win32,60.01680471,,,,,,,,,,,1.3572,1,,,,,,,,,,,,,,,,,,,,,,,,0.579101563,-0.0703125,0,0,0,,,,,,,CLOUD,C,z,y,./images/CLOUD.png,,,,,,,,,,,,,,,,,,,,,z,1,1.3572,,,,,,,,0,119,119,110,1
,,,,,,,,,,,,,,,,,60bc011503db109b7d46851d,33,2022-02-12_13h45.28.310,lexical_decision_task_DD_L2,2021.2.3,Win32,60.01680471,,,,,,,,,,,1.7997,0,,,,,,,,,,,,,,,,,,,,,,,,0.579101563,-0.0703125,0,0,0,,,,,,,STAIN,HB,z,y,./images/STAINHB.png,,,,,,,,,,,,,,,,,,,,,m,0,1.7997,,,,,,,,0,120,120,90,1
,,,,,,,,,,,,,,,,,60bc011503db109b7d46851d,33,2022-02-12_13h45.28.310,lexical_decision_task_DD_L2,2021.2.3,Win32,60.01680471,,,,,,,,,,,0.9914,0,,,,,,,,,,,,,,,,,,,,,,,,0.578125,-0.0703125,0,0,0,,,,,,,CLOWN,LB,z,y,./images/CLOWNLB.png,,,,,,,,,,,,,,,,,,,,,m,0,0.9914,,,,,,,,0,121,121,106,1
,,,,,,,,,,,,,,,,,60bc011503db109b7d46851d,33,2022-02-12_13h45.28.310,lexical_decision_task_DD_L2,2021.2.3,Win32,60.01680471,,,,,,,,,,,0.6883,1,,,,,,,,,,,,,,,,,,,,,,,,0.578125,-0.0703125,0,0,0,,,,,,,CRUMB,C,m,y,./images/CRUMB.png,,,,,,,,,,,,,,,,,,,,,m,1,0.6883,,,,,,,,0,122,122,29,1
,,,,,,,,,,,,,,,,,60bc011503db109b7d46851d,33,2022-02-12_13h45.28.310,lexical_decision_task_DD_L2,2021.2.3,Win32,60.01680471,,,,,,,,,,,0.8446,0,,,,,,,,,,,,,,,,,,,,,,,,0.578125,-0.0703125,0,0,0,,,,,,,STEAK,LB,z,y,./images/STEAKLB.png,,,,,,,,,,,,,,,,,,,,,m,0,0.8446,,,,,,,,0,123,123,115,1
,,,,,,,,,,,,,,,,,60bc011503db109b7d46851d,33,2022-02-12_13h45.28.310,lexical_decision_task_DD_L2,2021.2.3,Win32,60.01680471,,,,,,,,,,,0.8668,1,,,,,,,,,,,,,,,,,,,,,,,,0.578125,-0.0703125,0,0,0,,,,,,,GRAPE,LB,z,y,./images/GRAPELB.png,,,,,,,,,,,,,,,,,,,,,z,1,0.8668,,,,,,,,0,124,124,100,1
,,,,,,,,,,,,,,,,,60bc011503db109b7d46851d,33,2022-02-12_13h45.28.310,lexical_decision_task_DD_L2,2021.2.3,Win32,60.01680471,,,,,,,,,,,0.9687,0,,,,,,,,,,,,,,,,,,,,,,,,0.578125,-0.0703125,0,0,0,space,,,,,,CURRY,HB,z,y,./images/CURRYHB.png,4.2737,,,,,,,,,,,,,,,,,,,,m,0,0.9687,,,,,,,,0,125,125,144,1
,,,,,,,,,,,,,,,,,60bc011503db109b7d46851d,33,2022-02-12_13h45.28.310,lexical_decision_task_DD_L2,2021.2.3,Win32,60.01680471,,,,,,,,,,,0.8874,1,,,,,,,,,,,,,,,,,,,,,,,,0.578125,-0.0703125,0,0,0,,,,,,,SCREW,HB,m,y,./images/SCREWHB.png,,,,,,,,,,,,,,,,,,,,,m,1,0.8874,,,,,,,,0,126,126,24,1
,,,,,,,,,,,,,,,,,60bc011503db109b7d46851d,33,2022-02-12_13h45.28.310,lexical_decision_task_DD_L2,2021.2.3,Win32,60.01680471,,,,,,,,,,,1.4139,1,,,,,,,,,,,,,,,,,,,,,,,,0.578125,-0.0703125,0,0,0,,,,,,,SAUNA,HB,z,y,./images/SAUNAHB.png,,,,,,,,,,,,,,,,,,,,,z,1,1.4139,,,,,,,,0,127,127,117,1
,,,,,,,,,,,,,,,,,60bc011503db109b7d46851d,33,2022-02-12_13h45.28.310,lexical_decision_task_DD_L2,2021.2.3,Win32,60.01680471,,,,,,,,,,,0.7082,0,,,,,,,,,,,,,,,,,,,,,,,,0.578125,-0.0703125,0,0,0,,,,,,,CRADLE,C,m,y,./images/CRADLE.png,,,,,,,,,,,,,,,,,,,,,z,0,0.7082,,,,,,,,0,128,128,20,1
,,,,,,,,,,,,,,,,,60bc011503db109b7d46851d,33,2022-02-12_13h45.28.310,lexical_decision_task_DD_L2,2021.2.3,Win32,60.01680471,,,,,,,,,,,1.0561,0,,,,,,,,,,,,,,,,,,,,,,,,0.578125,-0.0703125,0,0,0,,,,,,,CANDY,HB,z,y,./images/CANDYHB.png,,,,,,,,,,,,,,,,,,,,,m,0,1.0561,,,,,,,,0,129,129,123,1
,,,,,,,,,,,,,,,,,60bc011503db109b7d46851d,33,2022-02-12_13h45.28.310,lexical_decision_task_DD_L2,2021.2.3,Win32,60.01680471,,,,,,,,,,,0.9333,1,,,,,,,,,,,,,,,,,,,,,,,,0.578125,-0.0703125,0,0,0,,,,,,,GARDEN,LB,z,y,./images/GARDENLB.png,,,,,,,,,,,,,,,,,,,,,z,1,0.9333,,,,,,,,0,130,130,94,1
,,,,,,,,,,,,,,,,,60bc011503db109b7d46851d,33,2022-02-12_13h45.28.310,lexical_decision_task_DD_L2,2021.2.3,Win32,60.01680471,,,,,,,,,,,1.2087,1,,,,,,,,,,,,,,,,,,,,,,,,0.578125,-0.0703125,0,0,0,,,,,,,COUCH,C,m,y,./images/COUCH.png,,,,,,,,,,,,,,,,,,,,,m,1,1.2087,,,,,,,,0,131,131,77,1
,,,,,,,,,,,,,,,,,60bc011503db109b7d46851d,33,2022-02-12_13h45.28.310,lexical_decision_task_DD_L2,2021.2.3,Win32,60.01680471,,,,,,,,,,,2.8418,0,,,,,,,,,,,,,,,,,,,,,,,,0.578125,-0.0703125,0,0,0,,,,,,,WRIST,LB,m,y,./images/WRISTLB.png,,,,,,,,,,,,,,,,,,,,,z,0,2.8418,,,,,,,,0,132,132,25,1
,,,,,,,,,,,,,,,,,60bc011503db109b7d46851d,33,2022-02-12_13h45.28.310,lexical_decision_task_DD_L2,2021.2.3,Win32,60.01680471,,,,,,,,,,,0.7686,0,,,,,,,,,,,,,,,,,,,,,,,,0.578125,-0.0703125,0,0,0,,,,,,,WHISKY,C,z,y,./images/WHISKY.png,,,,,,,,,,,,,,,,,,,,,m,0,0.7686,,,,,,,,0,133,133,167,1
,,,,,,,,,,,,,,,,,60bc011503db109b7d46851d,33,2022-02-12_13h45.28.310,lexical_decision_task_DD_L2,2021.2.3,Win32,60.01680471,,,,,,,,,,,0.7208,1,,,,,,,,,,,,,,,,,,,,,,,,0.578125,-0.0703125,0,0,0,,,,,,,MONKEY,HB,z,y,./images/MONKEYHB.png,,,,,,,,,,,,,,,,,,,,,z,1,0.7208,,,,,,,,0,134,134,129,1
,,,,,,,,,,,,,,,,,60bc011503db109b7d46851d,33,2022-02-12_13h45.28.310,lexical_decision_task_DD_L2,2021.2.3,Win32,60.01680471,,,,,,,,,,,0.8464,1,,,,,,,,,,,,,,,,,,,,,,,,0.578125,-0.0703125,0,0,0,,,,,,,STORM,HB,m,y,./images/STORMHB.png,,,,,,,,,,,,,,,,,,,,,m,1,0.8464,,,,,,,,0,135,135,30,1
,,,,,,,,,,,,,,,,,60bc011503db109b7d46851d,33,2022-02-12_13h45.28.310,lexical_decision_task_DD_L2,2021.2.3,Win32,60.01680471,,,,,,,,,,,0.8175,0,,,,,,,,,,,,,,,,,,,,,,,,0.578125,-0.0703125,0,0,0,,,,,,,PLANK,LB,m,y,./images/PLANKLB.png,,,,,,,,,,,,,,,,,,,,,z,0,0.8175,,,,,,,,0,136,136,1,1
,,,,,,,,,,,,,,,,,60bc011503db109b7d46851d,33,2022-02-12_13h45.28.310,lexical_decision_task_DD_L2,2021.2.3,Win32,60.01680471,,,,,,,,,,,0.8185,1,,,,,,,,,,,,,,,,,,,,,,,,0.578125,-0.0703125,0,0,0,,,,,,,COOKER,HB,m,y,./images/COOKERHB.png,,,,,,,,,,,,,,,,,,,,,m,1,0.8185,,,,,,,,0,137,137,69,1
,,,,,,,,,,,,,,,,,60bc011503db109b7d46851d,33,2022-02-12_13h45.28.310,lexical_decision_task_DD_L2,2021.2.3,Win32,60.01680471,,,,,,,,,,,0.9771,1,,,,,,,,,,,,,,,,,,,,,,,,0.578125,-0.0703125,0,0,0,,,,,,,LADDER,C,m,y,./images/LADDER.png,,,,,,,,,,,,,,,,,,,,,m,1,0.9771,,,,,,,,0,138,138,38,1
