key_resp.keys,key_resp.rt,instr_done_touch.x,instr_done_touch.y,instr_done_touch.leftButton,instr_done_touch.midButton,instr_done_touch.rightButton,instruction_pages.thisRepN,instruction_pages.thisTrialN,instruction_pages.thisN,instruction_pages.thisIndex,instruction_pages.ran,pageN,phase,instruct_text,has_image,instruct_image,participant,age,date,expName,psychopyVersion,OS,frameRate,response.keys,response.corr,response.rt,touch_resp.x,touch_resp.y,touch_resp.leftButton,touch_resp.midButton,touch_resp.rightButton,touch_resp.time,touch_resp.clicked_name,rt,corr,practrials.thisRepN,practrials.thisTrialN,practrials.thisN,practrials.thisIndex,practrials.ran,TrialID,Target,corrAns,end_of_practice_trials_pages.thisRepN,end_of_practice_trials_pages.thisTrialN,end_of_practice_trials_pages.thisN,end_of_practice_trials_pages.thisIndex,end_of_practice_trials_pages.ran,key_resp_2.keys,key_resp_2.corr,key_resp_2.rt,targ_click.x,targ_click.y,targ_click.leftButton,targ_click.midButton,targ_click.rightButton,targ_click.time,targ_click.clicked_name,break_done_touch.x,break_done_touch.y,break_done_touch.leftButton,break_done_touch.midButton,break_done_touch.rightButton,break_done_keyboard.keys,maintrials.thisRepN,maintrials.thisTrialN,maintrials.thisN,maintrials.thisIndex,maintrials.ran,string,blur,study,lex,stim_path,break_done_keyboard.rt,mouse_2.x,mouse_2.y,mouse_2.leftButton,mouse_2.midButton,mouse_2.rightButton,mouse_2.clicked_name,slider.response,slider.rt,trials.thisRepN,trials.thisTrialN,trials.thisN,trials.thisIndex,trials.ran,test_instructions.thisRepN,test_instructions.thisTrialN,test_instructions.thisN,test_instructions.thisIndex,test_instructions.ran,instr_done_touch.clicked_name,key_resp_3.keys,key_resp_3.corr,key_resp_3.rt,test_click.x,test_click.y,test_click.leftButton,test_click.midButton,test_click.rightButton,test_click.time,test_click.clicked_name,test_phase.thisRepN,test_phase.thisTrialN,test_phase.thisN,test_phase.thisIndex,test_phase.ran
space,15.2668,0.232407424,-0.191666733,0,0,0,0,0,0,0,1,1,instructions,"INSTRUCTIONS
At the start of each trial, look at the plus sign  (+) in the center of the screen.  This tells you that a trial is about to begin and where to look. Second, the plus sign will disappear and a string of letters will appear. Your task is to determine if the string of letters is a word or not. If the item is a word press the M key (on keyboard)  or touch the word button (phone/tablet).  If the item is not a word,  press the  Z key (on keyboard)  or touch the nonword button (on phone/tablet). 
Press the space bar or touch  continue.",0,,60fefa8d26f46e84a295b223,,2022-02-12_17h39.10.845,lexical_decision_task_DD_L2,2021.2.3,Win32,58.8373735,,,,,,,,,,,,,,,,,,,,,,,,,,,,,,,,,,,,,,,,,,,,,,,,,,,,,,,,,,,,,,,,,,,,,,,,,,,,,,,,,,,,,,
space,4.4063,0.232407424,-0.191666733,0,0,0,0,1,1,1,1,2,instructions,"If your device has a keyboard, press the 'Z' key for nonwords and the 'M' key for words.





Press the space bar or touch the button below to continue.",0,keyboard-example.gif,60fefa8d26f46e84a295b223,,2022-02-12_17h39.10.845,lexical_decision_task_DD_L2,2021.2.3,Win32,58.8373735,,,,,,,,,,,,,,,,,,,,,,,,,,,,,,,,,,,,,,,,,,,,,,,,,,,,,,,,,,,,,,,,,,,,,,,,,,,,,,,,,,,,,,
space,1.2588,0.232407424,-0.191666733,0,0,0,0,2,2,2,1,3,instructions,"If you are using a touchscreen only device, use the buttons on the screen. Do not use the mouse.





Press the space bar or touch the button below to continue.",0,touchscreen-example.gif,60fefa8d26f46e84a295b223,,2022-02-12_17h39.10.845,lexical_decision_task_DD_L2,2021.2.3,Win32,58.8373735,,,,,,,,,,,,,,,,,,,,,,,,,,,,,,,,,,,,,,,,,,,,,,,,,,,,,,,,,,,,,,,,,,,,,,,,,,,,,,,,,,,,,,
space,4.8818,0.232407424,-0.191666733,0,0,0,0,3,3,3,1,4,instructions,"It is very important that you respond as quickly and accurately as possible, as each letter string will only be on the screen for two seconds. If you do not respond within this time, the message 'Too slow!' will be displayed and the experiment will progress to the next letter string. The first 20 trials will be practice trials and you will receive feedback on your answers. 

Press the space bar or touch the button below to start the practice trials.",0,,60fefa8d26f46e84a295b223,,2022-02-12_17h39.10.845,lexical_decision_task_DD_L2,2021.2.3,Win32,58.8373735,,,,,,,,,,,,,,,,,,,,,,,,,,,,,,,,,,,,,,,,,,,,,,,,,,,,,,,,,,,,,,,,,,,,,,,,,,,,,,,,,,,,,,
,,,,,,,,,,,,,,,,,60fefa8d26f46e84a295b223,,2022-02-12_17h39.10.845,lexical_decision_task_DD_L2,2021.2.3,Win32,58.8373735,m,0,0.9671,,,,,,,,0.9671,0,0,0,0,11,1,1001,RASHET,z,,,,,,,,,,,,,,,,,,,,,,,,,,,,,,,,,,,,,,,,,,,,,,,,,,,,,,,,,,,,,,,,,,
,,,,,,,,,,,,,,,,,60fefa8d26f46e84a295b223,,2022-02-12_17h39.10.845,lexical_decision_task_DD_L2,2021.2.3,Win32,58.8373735,m,0,0.6018,,,,,,,,0.6018,0,0,1,1,14,1,1001,THRALE,z,,,,,,,,,,,,,,,,,,,,,,,,,,,,,,,,,,,,,,,,,,,,,,,,,,,,,,,,,,,,,,,,,,
,,,,,,,,,,,,,,,,,60fefa8d26f46e84a295b223,,2022-02-12_17h39.10.845,lexical_decision_task_DD_L2,2021.2.3,Win32,58.8373735,m,0,0.484,,,,,,,,0.484,0,0,2,2,15,1,1001,WHAISE,z,,,,,,,,,,,,,,,,,,,,,,,,,,,,,,,,,,,,,,,,,,,,,,,,,,,,,,,,,,,,,,,,,,
,,,,,,,,,,,,,,,,,60fefa8d26f46e84a295b223,,2022-02-12_17h39.10.845,lexical_decision_task_DD_L2,2021.2.3,Win32,58.8373735,m,1,0.5171,,,,,,,,0.5171,1,0,3,3,2,1,1001,ALMOND,m,,,,,,,,,,,,,,,,,,,,,,,,,,,,,,,,,,,,,,,,,,,,,,,,,,,,,,,,,,,,,,,,,,
,,,,,,,,,,,,,,,,,60fefa8d26f46e84a295b223,,2022-02-12_17h39.10.845,lexical_decision_task_DD_L2,2021.2.3,Win32,58.8373735,m,1,0.5023,,,,,,,,0.5023,1,0,4,4,6,1,1001,ZOMBIE,m,,,,,,,,,,,,,,,,,,,,,,,,,,,,,,,,,,,,,,,,,,,,,,,,,,,,,,,,,,,,,,,,,,
,,,,,,,,,,,,,,,,,60fefa8d26f46e84a295b223,,2022-02-12_17h39.10.845,lexical_decision_task_DD_L2,2021.2.3,Win32,58.8373735,z,1,0.5255,,,,,,,,0.5255,1,0,5,5,10,1,1001,INLADE,z,,,,,,,,,,,,,,,,,,,,,,,,,,,,,,,,,,,,,,,,,,,,,,,,,,,,,,,,,,,,,,,,,,
,,,,,,,,,,,,,,,,,60fefa8d26f46e84a295b223,,2022-02-12_17h39.10.845,lexical_decision_task_DD_L2,2021.2.3,Win32,58.8373735,z,1,0.7163,,,,,,,,0.7163,1,0,6,6,12,1,1001,SPRINY,z,,,,,,,,,,,,,,,,,,,,,,,,,,,,,,,,,,,,,,,,,,,,,,,,,,,,,,,,,,,,,,,,,,
,,,,,,,,,,,,,,,,,60fefa8d26f46e84a295b223,,2022-02-12_17h39.10.845,lexical_decision_task_DD_L2,2021.2.3,Win32,58.8373735,m,1,0.5838,,,,,,,,0.5838,1,0,7,7,1,1,1001,ADJUST,m,,,,,,,,,,,,,,,,,,,,,,,,,,,,,,,,,,,,,,,,,,,,,,,,,,,,,,,,,,,,,,,,,,
,,,,,,,,,,,,,,,,,60fefa8d26f46e84a295b223,,2022-02-12_17h39.10.845,lexical_decision_task_DD_L2,2021.2.3,Win32,58.8373735,m,1,0.4734,,,,,,,,0.4734,1,0,8,8,4,1,1001,SQUEAK,m,,,,,,,,,,,,,,,,,,,,,,,,,,,,,,,,,,,,,,,,,,,,,,,,,,,,,,,,,,,,,,,,,,
,,,,,,,,,,,,,,,,,60fefa8d26f46e84a295b223,,2022-02-12_17h39.10.845,lexical_decision_task_DD_L2,2021.2.3,Win32,58.8373735,m,0,0.5255,,,,,,,,0.5255,0,0,9,9,9,1,1001,FARINY,z,,,,,,,,,,,,,,,,,,,,,,,,,,,,,,,,,,,,,,,,,,,,,,,,,,,,,,,,,,,,,,,,,,
,,,,,,,,,,,,,,,,,60fefa8d26f46e84a295b223,,2022-02-12_17h39.10.845,lexical_decision_task_DD_L2,2021.2.3,Win32,58.8373735,z,1,0.6546,,,,,,,,0.6546,1,0,10,10,8,1,1001,ASLERT,z,,,,,,,,,,,,,,,,,,,,,,,,,,,,,,,,,,,,,,,,,,,,,,,,,,,,,,,,,,,,,,,,,,
,,,,,,,,,,,,,,,,,60fefa8d26f46e84a295b223,,2022-02-12_17h39.10.845,lexical_decision_task_DD_L2,2021.2.3,Win32,58.8373735,m,1,0.5728,,,,,,,,0.5728,1,0,11,11,5,1,1001,OBTAIN,m,,,,,,,,,,,,,,,,,,,,,,,,,,,,,,,,,,,,,,,,,,,,,,,,,,,,,,,,,,,,,,,,,,
,,,,,,,,,,,,,,,,,60fefa8d26f46e84a295b223,,2022-02-12_17h39.10.845,lexical_decision_task_DD_L2,2021.2.3,Win32,58.8373735,z,0,0.5352,,,,,,,,0.5352,0,0,12,12,3,1,1001,MATRIX,m,,,,,,,,,,,,,,,,,,,,,,,,,,,,,,,,,,,,,,,,,,,,,,,,,,,,,,,,,,,,,,,,,,
,,,,,,,,,,,,,,,,,60fefa8d26f46e84a295b223,,2022-02-12_17h39.10.845,lexical_decision_task_DD_L2,2021.2.3,Win32,58.8373735,z,1,0.6176,,,,,,,,0.6176,1,0,13,13,13,1,1001,ROUPET,z,,,,,,,,,,,,,,,,,,,,,,,,,,,,,,,,,,,,,,,,,,,,,,,,,,,,,,,,,,,,,,,,,,
,,,,,,,,,,,,,,,,,60fefa8d26f46e84a295b223,,2022-02-12_17h39.10.845,lexical_decision_task_DD_L2,2021.2.3,Win32,58.8373735,m,1,0.4184,,,,,,,,0.4184,1,0,14,14,7,1,1001,VOLUME,m,,,,,,,,,,,,,,,,,,,,,,,,,,,,,,,,,,,,,,,,,,,,,,,,,,,,,,,,,,,,,,,,,,
,,,,,,,,,,,,,,,,,60fefa8d26f46e84a295b223,,2022-02-12_17h39.10.845,lexical_decision_task_DD_L2,2021.2.3,Win32,58.8373735,m,1,0.5511,,,,,,,,0.5511,1,0,15,15,0,1,1001,UTOPIA,m,,,,,,,,,,,,,,,,,,,,,,,,,,,,,,,,,,,,,,,,,,,,,,,,,,,,,,,,,,,,,,,,,,
space,9.3907,0.232407424,-0.191666733,0,0,0,,,,,,1,end_of_practice,"You have completed the practice trials. During the experimental trials, you will not receive feedback. 
Before you begin, please ensure that you are in a comfortable and quiet location and will not be disturbed for about 15 minutes, as we cannot use your data if you do not complete all the trials. 
 When you are ready to start the experimental trials, please press space or touch the button below.",,,60fefa8d26f46e84a295b223,,2022-02-12_17h39.10.845,lexical_decision_task_DD_L2,2021.2.3,Win32,58.8373735,,,,,,,,,,,,,,,,,,,,,0,0,0,0,1,,,,,,,,,,,,,,,,,,,,,,,,,,,,,,,,,,,,,,,,,,,,,,,,,,,,,,,,,,,,,
,,,,,,,,,,,,,,,,,60fefa8d26f46e84a295b223,,2022-02-12_17h39.10.845,lexical_decision_task_DD_L2,2021.2.3,Win32,58.8373735,,,,,,,,,,,0.9162,1,,,,,,,,,,,,,,m,1,0.9162,,,,,,,,0.232407424,-0.191666733,0,0,0,,0,0,0,28,1,FALCON,LB,old,m,./images/FALCONLB.png,,,,,,,,,,,,,,,,,,,,,,,,,,,,,,,,,,,
,,,,,,,,,,,,,,,,,60fefa8d26f46e84a295b223,,2022-02-12_17h39.10.845,lexical_decision_task_DD_L2,2021.2.3,Win32,58.8373735,,,,,,,,,,,0.5521,1,,,,,,,,,,,,,,m,1,0.5521,,,,,,,,0.232407424,-0.191666733,0,0,0,,0,1,1,55,1,MUFFIN,LB,old,m,./images/MUFFINLB.png,,,,,,,,,,,,,,,,,,,,,,,,,,,,,,,,,,,
,,,,,,,,,,,,,,,,,60fefa8d26f46e84a295b223,,2022-02-12_17h39.10.845,lexical_decision_task_DD_L2,2021.2.3,Win32,58.8373735,,,,,,,,,,,0.8143,1,,,,,,,,,,,,,,z,1,0.8143,,,,,,,,0.232407424,-0.191666733,0,0,0,,0,2,2,157,1,INLER,HB,old,z,./images/INLERHB.png,,,,,,,,,,,,,,,,,,,,,,,,,,,,,,,,,,,
,,,,,,,,,,,,,,,,,60fefa8d26f46e84a295b223,,2022-02-12_17h39.10.845,lexical_decision_task_DD_L2,2021.2.3,Win32,58.8373735,,,,,,,,,,,0.5216,1,,,,,,,,,,,,,,m,1,0.5216,,,,,,,,0.232407424,-0.191666733,0,0,0,,0,3,3,47,1,BERRY,C,old,m,./images/BERRY.png,,,,,,,,,,,,,,,,,,,,,,,,,,,,,,,,,,,
,,,,,,,,,,,,,,,,,60fefa8d26f46e84a295b223,,2022-02-12_17h39.10.845,lexical_decision_task_DD_L2,2021.2.3,Win32,58.8373735,,,,,,,,,,,0.5645,1,,,,,,,,,,,,,,z,1,0.5645,,,,,,,,0.232407424,-0.191666733,0,0,0,,0,4,4,93,1,SMONE,C,old,z,./images/SMONE.png,,,,,,,,,,,,,,,,,,,,,,,,,,,,,,,,,,,
,,,,,,,,,,,,,,,,,60fefa8d26f46e84a295b223,,2022-02-12_17h39.10.845,lexical_decision_task_DD_L2,2021.2.3,Win32,58.8373735,,,,,,,,,,,0.711,1,,,,,,,,,,,,,,z,1,0.711,,,,,,,,0.232407424,-0.191666733,0,0,0,,0,5,5,158,1,EGECT,LB,old,z,./images/EGECTLB.png,,,,,,,,,,,,,,,,,,,,,,,,,,,,,,,,,,,
,,,,,,,,,,,,,,,,,60fefa8d26f46e84a295b223,,2022-02-12_17h39.10.845,lexical_decision_task_DD_L2,2021.2.3,Win32,58.8373735,,,,,,,,,,,0.5984,1,,,,,,,,,,,,,,z,1,0.5984,,,,,,,,0.232407424,-0.191666733,0,0,0,,0,6,6,107,1,FASKS,LB,old,z,./images/FASKSLB.png,,,,,,,,,,,,,,,,,,,,,,,,,,,,,,,,,,,
,,,,,,,,,,,,,,,,,60fefa8d26f46e84a295b223,,2022-02-12_17h39.10.845,lexical_decision_task_DD_L2,2021.2.3,Win32,58.8373735,,,,,,,,,,,0.5243,1,,,,,,,,,,,,,,m,1,0.5243,,,,,,,,0.232407424,-0.191666733,0,0,0,,0,7,7,49,1,DRUMS,LB,old,m,./images/DRUMSLB.png,,,,,,,,,,,,,,,,,,,,,,,,,,,,,,,,,,,
,,,,,,,,,,,,,,,,,60fefa8d26f46e84a295b223,,2022-02-12_17h39.10.845,lexical_decision_task_DD_L2,2021.2.3,Win32,58.8373735,,,,,,,,,,,0.6135,0,,,,,,,,,,,,,,m,0,0.6135,,,,,,,,0.232407424,-0.191666733,0,0,0,,0,8,8,136,1,WERVE,HB,old,z,./images/WERVEHB.png,,,,,,,,,,,,,,,,,,,,,,,,,,,,,,,,,,,
,,,,,,,,,,,,,,,,,60fefa8d26f46e84a295b223,,2022-02-12_17h39.10.845,lexical_decision_task_DD_L2,2021.2.3,Win32,58.8373735,,,,,,,,,,,0.485,1,,,,,,,,,,,,,,z,1,0.485,,,,,,,,0.232407424,-0.191666733,0,0,0,,0,9,9,133,1,POWDY,HB,old,z,./images/POWDYHB.png,,,,,,,,,,,,,,,,,,,,,,,,,,,,,,,,,,,
,,,,,,,,,,,,,,,,,60fefa8d26f46e84a295b223,,2022-02-12_17h39.10.845,lexical_decision_task_DD_L2,2021.2.3,Win32,58.8373735,,,,,,,,,,,0.5695,1,,,,,,,,,,,,,,z,1,0.5695,,,,,,,,0.232407424,-0.191666733,0,0,0,,0,10,10,88,1,GLUSH,HB,old,z,./images/GLUSHHB.png,,,,,,,,,,,,,,,,,,,,,,,,,,,,,,,,,,,
,,,,,,,,,,,,,,,,,60fefa8d26f46e84a295b223,,2022-02-12_17h39.10.845,lexical_decision_task_DD_L2,2021.2.3,Win32,58.8373735,,,,,,,,,,,0.595,1,,,,,,,,,,,,,,m,1,0.595,,,,,,,,0.232407424,-0.191666733,0,0,0,,0,11,11,50,1,MALLET,C,old,m,./images/MALLET.png,,,,,,,,,,,,,,,,,,,,,,,,,,,,,,,,,,,
,,,,,,,,,,,,,,,,,60fefa8d26f46e84a295b223,,2022-02-12_17h39.10.845,lexical_decision_task_DD_L2,2021.2.3,Win32,58.8373735,,,,,,,,,,,0.5617,0,,,,,,,,,,,,,,m,0,0.5617,,,,,,,,0.232407424,-0.191666733,0,0,0,,0,12,12,139,1,BLEAR,HB,old,z,./images/BLEARHB.png,,,,,,,,,,,,,,,,,,,,,,,,,,,,,,,,,,,
,,,,,,,,,,,,,,,,,60fefa8d26f46e84a295b223,,2022-02-12_17h39.10.845,lexical_decision_task_DD_L2,2021.2.3,Win32,58.8373735,,,,,,,,,,,0.5351,1,,,,,,,,,,,,,,z,1,0.5351,,,,,,,,0.232407424,-0.191666733,0,0,0,,0,13,13,84,1,HAXES,C,old,z,./images/HAXES.png,,,,,,,,,,,,,,,,,,,,,,,,,,,,,,,,,,,
,,,,,,,,,,,,,,,,,60fefa8d26f46e84a295b223,,2022-02-12_17h39.10.845,lexical_decision_task_DD_L2,2021.2.3,Win32,58.8373735,,,,,,,,,,,0.524,1,,,,,,,,,,,,,,m,1,0.524,,,,,,,,0.232407424,-0.191666733,0,0,0,,0,14,14,79,1,CRUST,LB,old,m,./images/CRUSTLB.png,,,,,,,,,,,,,,,,,,,,,,,,,,,,,,,,,,,
,,,,,,,,,,,,,,,,,60fefa8d26f46e84a295b223,,2022-02-12_17h39.10.845,lexical_decision_task_DD_L2,2021.2.3,Win32,58.8373735,,,,,,,,,,,0.6865,1,,,,,,,,,,,,,,m,1,0.6865,,,,,,,,0.232407424,-0.191666733,0,0,0,,0,15,15,53,1,CARPET,C,old,m,./images/CARPET.png,,,,,,,,,,,,,,,,,,,,,,,,,,,,,,,,,,,
,,,,,,,,,,,,,,,,,60fefa8d26f46e84a295b223,,2022-02-12_17h39.10.845,lexical_decision_task_DD_L2,2021.2.3,Win32,58.8373735,,,,,,,,,,,0.5075,1,,,,,,,,,,,,,,z,1,0.5075,,,,,,,,0.232407424,-0.191666733,0,0,0,,0,16,16,113,1,LINEW,LB,old,z,./images/LINEWLB.png,,,,,,,,,,,,,,,,,,,,,,,,,,,,,,,,,,,
,,,,,,,,,,,,,,,,,60fefa8d26f46e84a295b223,,2022-02-12_17h39.10.845,lexical_decision_task_DD_L2,2021.2.3,Win32,58.8373735,,,,,,,,,,,0.5648,1,,,,,,,,,,,,,,m,1,0.5648,,,,,,,,0.232407424,-0.191666733,0,0,0,,0,17,17,42,1,FOLDER,HB,old,m,./images/FOLDERHB.png,,,,,,,,,,,,,,,,,,,,,,,,,,,,,,,,,,,
,,,,,,,,,,,,,,,,,60fefa8d26f46e84a295b223,,2022-02-12_17h39.10.845,lexical_decision_task_DD_L2,2021.2.3,Win32,58.8373735,,,,,,,,,,,0.5279,1,,,,,,,,,,,,,,z,1,0.5279,,,,,,,,0.232407424,-0.191666733,0,0,0,,0,18,18,155,1,CANGY,LB,old,z,./images/CANGYLB.png,,,,,,,,,,,,,,,,,,,,,,,,,,,,,,,,,,,
,,,,,,,,,,,,,,,,,60fefa8d26f46e84a295b223,,2022-02-12_17h39.10.845,lexical_decision_task_DD_L2,2021.2.3,Win32,58.8373735,,,,,,,,,,,0.5842,1,,,,,,,,,,,,,,z,1,0.5842,,,,,,,,0.232407424,-0.191666733,0,0,0,,0,19,19,143,1,MONGS,LB,old,z,./images/MONGSLB.png,,,,,,,,,,,,,,,,,,,,,,,,,,,,,,,,,,,
,,,,,,,,,,,,,,,,,60fefa8d26f46e84a295b223,,2022-02-12_17h39.10.845,lexical_decision_task_DD_L2,2021.2.3,Win32,58.8373735,,,,,,,,,,,0.5177,1,,,,,,,,,,,,,,m,1,0.5177,,,,,,,,0.232407424,-0.191666733,0,0,0,,0,20,20,65,1,FARMER,C,old,m,./images/FARMER.png,,,,,,,,,,,,,,,,,,,,,,,,,,,,,,,,,,,
,,,,,,,,,,,,,,,,,60fefa8d26f46e84a295b223,,2022-02-12_17h39.10.845,lexical_decision_task_DD_L2,2021.2.3,Win32,58.8373735,,,,,,,,,,,0.8014,0,,,,,,,,,,,,,,z,0,0.8014,,,,,,,,0.232407424,-0.191666733,0,0,0,,0,21,21,72,1,NOOSE,HB,old,m,./images/NOOSEHB.png,,,,,,,,,,,,,,,,,,,,,,,,,,,,,,,,,,,
,,,,,,,,,,,,,,,,,60fefa8d26f46e84a295b223,,2022-02-12_17h39.10.845,lexical_decision_task_DD_L2,2021.2.3,Win32,58.8373735,,,,,,,,,,,0.4244,1,,,,,,,,,,,,,,m,1,0.4244,,,,,,,,0.232407424,-0.191666733,0,0,0,,0,22,22,5,1,PASTA,C,old,m,./images/PASTA.png,,,,,,,,,,,,,,,,,,,,,,,,,,,,,,,,,,,
,,,,,,,,,,,,,,,,,60fefa8d26f46e84a295b223,,2022-02-12_17h39.10.845,lexical_decision_task_DD_L2,2021.2.3,Win32,58.8373735,,,,,,,,,,,0.634,1,,,,,,,,,,,,,,z,1,0.634,,,,,,,,0.232407424,-0.191666733,0,0,0,,0,23,23,128,1,GRIFT,LB,old,z,./images/GRIFTLB.png,,,,,,,,,,,,,,,,,,,,,,,,,,,,,,,,,,,
,,,,,,,,,,,,,,,,,60fefa8d26f46e84a295b223,,2022-02-12_17h39.10.845,lexical_decision_task_DD_L2,2021.2.3,Win32,58.8373735,,,,,,,,,,,0.6684,1,,,,,,,,,,,,,,m,1,0.6684,,,,,,,,0.232407424,-0.191666733,0,0,0,,0,24,24,9,1,RHINO,HB,old,m,./images/RHINOHB.png,,,,,,,,,,,,,,,,,,,,,,,,,,,,,,,,,,,
,,,,,,,,,,,,,,,,,60fefa8d26f46e84a295b223,,2022-02-12_17h39.10.845,lexical_decision_task_DD_L2,2021.2.3,Win32,58.8373735,,,,,,,,,,,0.5371,1,,,,,,,,,,,,,,z,1,0.5371,,,,,,,,0.232407424,-0.191666733,0,0,0,,0,25,25,101,1,GLEET,LB,old,z,./images/GLEETLB.png,,,,,,,,,,,,,,,,,,,,,,,,,,,,,,,,,,,
,,,,,,,,,,,,,,,,,60fefa8d26f46e84a295b223,,2022-02-12_17h39.10.845,lexical_decision_task_DD_L2,2021.2.3,Win32,58.8373735,,,,,,,,,,,0.6521,0,,,,,,,,,,,,,,m,0,0.6521,,,,,,,,0.232407424,-0.191666733,0,0,0,,0,26,26,118,1,BAVEL,HB,old,z,./images/BAVELHB.png,,,,,,,,,,,,,,,,,,,,,,,,,,,,,,,,,,,
,,,,,,,,,,,,,,,,,60fefa8d26f46e84a295b223,,2022-02-12_17h39.10.845,lexical_decision_task_DD_L2,2021.2.3,Win32,58.8373735,,,,,,,,,,,0.7004,0,,,,,,,,,,,,,,m,0,0.7004,,,,,,,,0.232407424,-0.191666733,0,0,0,,0,27,27,104,1,GITTY,LB,old,z,./images/GITTYLB.png,,,,,,,,,,,,,,,,,,,,,,,,,,,,,,,,,,,
,,,,,,,,,,,,,,,,,60fefa8d26f46e84a295b223,,2022-02-12_17h39.10.845,lexical_decision_task_DD_L2,2021.2.3,Win32,58.8373735,,,,,,,,,,,0.5172,0,,,,,,,,,,,,,,m,0,0.5172,,,,,,,,0.232407424,-0.191666733,0,0,0,,0,28,28,153,1,CLUPS,C,old,z,./images/CLUPS.png,,,,,,,,,,,,,,,,,,,,,,,,,,,,,,,,,,,
,,,,,,,,,,,,,,,,,60fefa8d26f46e84a295b223,,2022-02-12_17h39.10.845,lexical_decision_task_DD_L2,2021.2.3,Win32,58.8373735,,,,,,,,,,,0.6341,1,,,,,,,,,,,,,,z,1,0.6341,,,,,,,,0.232407424,-0.191666733,0,0,0,,0,29,29,129,1,PRANS,C,old,z,./images/PRANS.png,,,,,,,,,,,,,,,,,,,,,,,,,,,,,,,,,,,
,,,,,,,,,,,,,,,,,60fefa8d26f46e84a295b223,,2022-02-12_17h39.10.845,lexical_decision_task_DD_L2,2021.2.3,Win32,58.8373735,,,,,,,,,,,0.5409,1,,,,,,,,,,,,,,m,1,0.5409,,,,,,,,0.232407424,-0.191666733,0,0,0,,0,30,30,10,1,BELLY,LB,old,m,./images/BELLYLB.png,,,,,,,,,,,,,,,,,,,,,,,,,,,,,,,,,,,
,,,,,,,,,,,,,,,,,60fefa8d26f46e84a295b223,,2022-02-12_17h39.10.845,lexical_decision_task_DD_L2,2021.2.3,Win32,58.8373735,,,,,,,,,,,0.4552,1,,,,,,,,,,,,,,m,1,0.4552,,,,,,,,0.232407424,-0.191666733,0,0,0,,0,31,31,64,1,JELLY,LB,old,m,./images/JELLYLB.png,,,,,,,,,,,,,,,,,,,,,,,,,,,,,,,,,,,
,,,,,,,,,,,,,,,,,60fefa8d26f46e84a295b223,,2022-02-12_17h39.10.845,lexical_decision_task_DD_L2,2021.2.3,Win32,58.8373735,,,,,,,,,,,0.7681,1,,,,,,,,,,,,,,m,1,0.7681,,,,,,,,0.232407424,-0.191666733,0,0,0,,0,32,32,16,1,PENCE,LB,old,m,./images/PENCELB.png,,,,,,,,,,,,,,,,,,,,,,,,,,,,,,,,,,,
,,,,,,,,,,,,,,,,,60fefa8d26f46e84a295b223,,2022-02-12_17h39.10.845,lexical_decision_task_DD_L2,2021.2.3,Win32,58.8373735,,,,,,,,,,,0.6731,1,,,,,,,,,,,,,,m,1,0.6731,,,,,,,,0.232407424,-0.191666733,0,0,0,,0,33,33,12,1,SHORE,HB,old,m,./images/SHOREHB.png,,,,,,,,,,,,,,,,,,,,,,,,,,,,,,,,,,,
,,,,,,,,,,,,,,,,,60fefa8d26f46e84a295b223,,2022-02-12_17h39.10.845,lexical_decision_task_DD_L2,2021.2.3,Win32,58.8373735,,,,,,,,,,,0.4752,1,,,,,,,,,,,,,,m,1,0.4752,,,,,,,,0.232407424,-0.191666733,0,0,0,,0,34,34,60,1,TWINS,HB,old,m,./images/TWINSHB.png,,,,,,,,,,,,,,,,,,,,,,,,,,,,,,,,,,,
,,,,,,,,,,,,,,,,,60fefa8d26f46e84a295b223,,2022-02-12_17h39.10.845,lexical_decision_task_DD_L2,2021.2.3,Win32,58.8373735,,,,,,,,,,,0.767,0,,,,,,,,,,,,,,m,0,0.767,,,,,,,,0.232407424,-0.191666733,0,0,0,,0,35,35,121,1,CEERS,HB,old,z,./images/CEERSHB.png,,,,,,,,,,,,,,,,,,,,,,,,,,,,,,,,,,,
,,,,,,,,,,,,,,,,,60fefa8d26f46e84a295b223,,2022-02-12_17h39.10.845,lexical_decision_task_DD_L2,2021.2.3,Win32,58.8373735,,,,,,,,,,,0.5511,1,,,,,,,,,,,,,,m,1,0.5511,,,,,,,,0.232407424,-0.191666733,0,0,0,,0,36,36,66,1,SWEAT,HB,old,m,./images/SWEATHB.png,,,,,,,,,,,,,,,,,,,,,,,,,,,,,,,,,,,
,,,,,,,,,,,,,,,,,60fefa8d26f46e84a295b223,,2022-02-12_17h39.10.845,lexical_decision_task_DD_L2,2021.2.3,Win32,58.8373735,,,,,,,,,,,0.6019,1,,,,,,,,,,,,,,z,1,0.6019,,,,,,,,0.232407424,-0.191666733,0,0,0,,0,37,37,152,1,FRAIN,LB,old,z,./images/FRAINLB.png,,,,,,,,,,,,,,,,,,,,,,,,,,,,,,,,,,,
,,,,,,,,,,,,,,,,,60fefa8d26f46e84a295b223,,2022-02-12_17h39.10.845,lexical_decision_task_DD_L2,2021.2.3,Win32,58.8373735,,,,,,,,,,,0.5566,1,,,,,,,,,,,,,,m,1,0.5566,,,,,,,,0.232407424,-0.191666733,0,0,0,,0,38,38,15,1,GREASE,HB,old,m,./images/GREASEHB.png,,,,,,,,,,,,,,,,,,,,,,,,,,,,,,,,,,,
,,,,,,,,,,,,,,,,,60fefa8d26f46e84a295b223,,2022-02-12_17h39.10.845,lexical_decision_task_DD_L2,2021.2.3,Win32,58.8373735,,,,,,,,,,,0.5679,1,,,,,,,,,,,,,,m,1,0.5679,,,,,,,,0.232407424,-0.191666733,0,0,0,,0,39,39,45,1,KITTEN,HB,old,m,./images/KITTENHB.png,,,,,,,,,,,,,,,,,,,,,,,,,,,,,,,,,,,
,,,,,,,,,,,,,,,,,60fefa8d26f46e84a295b223,,2022-02-12_17h39.10.845,lexical_decision_task_DD_L2,2021.2.3,Win32,58.8373735,,,,,,,,,,,0.5846,1,,,,,,,,,,,,,,m,1,0.5846,,,,,,,,0.232407424,-0.191666733,0,0,0,,0,40,40,68,1,TORCH,C,old,m,./images/TORCH.png,,,,,,,,,,,,,,,,,,,,,,,,,,,,,,,,,,,
,,,,,,,,,,,,,,,,,60fefa8d26f46e84a295b223,,2022-02-12_17h39.10.845,lexical_decision_task_DD_L2,2021.2.3,Win32,58.8373735,,,,,,,,,,,1.0772,1,,,,,,,,,,,,,,z,1,1.0772,,,,,,,,0.232407424,-0.191666733,0,0,0,space,0,41,41,151,1,TINKY,HB,old,z,./images/TINKYHB.png,39.474,,,,,,,,,,,,,,,,,,,,,,,,,,,,,,,,,,
,,,,,,,,,,,,,,,,,60fefa8d26f46e84a295b223,,2022-02-12_17h39.10.845,lexical_decision_task_DD_L2,2021.2.3,Win32,58.8373735,,,,,,,,,,,0.669,1,,,,,,,,,,,,,,z,1,0.669,,,,,,,,0.232407424,-0.191666733,0,0,0,,0,42,42,105,1,MOKER,C,old,z,./images/MOKER.png,,,,,,,,,,,,,,,,,,,,,,,,,,,,,,,,,,,
,,,,,,,,,,,,,,,,,60fefa8d26f46e84a295b223,,2022-02-12_17h39.10.845,lexical_decision_task_DD_L2,2021.2.3,Win32,58.8373735,,,,,,,,,,,0.5848,1,,,,,,,,,,,,,,z,1,0.5848,,,,,,,,0.232407424,-0.191666733,0,0,0,,0,43,43,94,1,BLANS,HB,old,z,./images/BLANSHB.png,,,,,,,,,,,,,,,,,,,,,,,,,,,,,,,,,,,
,,,,,,,,,,,,,,,,,60fefa8d26f46e84a295b223,,2022-02-12_17h39.10.845,lexical_decision_task_DD_L2,2021.2.3,Win32,58.8373735,,,,,,,,,,,0.52,1,,,,,,,,,,,,,,m,1,0.52,,,,,,,,0.232407424,-0.191666733,0,0,0,,0,44,44,51,1,ONION,HB,old,m,./images/ONIONHB.png,,,,,,,,,,,,,,,,,,,,,,,,,,,,,,,,,,,
,,,,,,,,,,,,,,,,,60fefa8d26f46e84a295b223,,2022-02-12_17h39.10.845,lexical_decision_task_DD_L2,2021.2.3,Win32,58.8373735,,,,,,,,,,,0.4714,1,,,,,,,,,,,,,,m,1,0.4714,,,,,,,,0.232407424,-0.191666733,0,0,0,,0,45,45,34,1,CANYON,LB,old,m,./images/CANYONLB.png,,,,,,,,,,,,,,,,,,,,,,,,,,,,,,,,,,,
,,,,,,,,,,,,,,,,,60fefa8d26f46e84a295b223,,2022-02-12_17h39.10.845,lexical_decision_task_DD_L2,2021.2.3,Win32,58.8373735,,,,,,,,,,,0.4676,1,,,,,,,,,,,,,,z,1,0.4676,,,,,,,,0.232407424,-0.191666733,0,0,0,,0,46,46,140,1,DOVET,LB,old,z,./images/DOVETLB.png,,,,,,,,,,,,,,,,,,,,,,,,,,,,,,,,,,,
,,,,,,,,,,,,,,,,,60fefa8d26f46e84a295b223,,2022-02-12_17h39.10.845,lexical_decision_task_DD_L2,2021.2.3,Win32,58.8373735,,,,,,,,,,,0.6011,1,,,,,,,,,,,,,,m,1,0.6011,,,,,,,,0.232407424,-0.191666733,0,0,0,,0,47,47,19,1,DOUGH,LB,old,m,./images/DOUGHLB.png,,,,,,,,,,,,,,,,,,,,,,,,,,,,,,,,,,,
,,,,,,,,,,,,,,,,,60fefa8d26f46e84a295b223,,2022-02-12_17h39.10.845,lexical_decision_task_DD_L2,2021.2.3,Win32,58.8373735,,,,,,,,,,,0.6533,1,,,,,,,,,,,,,,z,1,0.6533,,,,,,,,0.232407424,-0.191666733,0,0,0,,0,48,48,154,1,THINT,HB,old,z,./images/THINTHB.png,,,,,,,,,,,,,,,,,,,,,,,,,,,,,,,,,,,
,,,,,,,,,,,,,,,,,60fefa8d26f46e84a295b223,,2022-02-12_17h39.10.845,lexical_decision_task_DD_L2,2021.2.3,Win32,58.8373735,,,,,,,,,,,0.4691,1,,,,,,,,,,,,,,m,1,0.4691,,,,,,,,0.232407424,-0.191666733,0,0,0,,0,49,49,14,1,PICKLE,C,old,m,./images/PICKLE.png,,,,,,,,,,,,,,,,,,,,,,,,,,,,,,,,,,,
,,,,,,,,,,,,,,,,,60fefa8d26f46e84a295b223,,2022-02-12_17h39.10.845,lexical_decision_task_DD_L2,2021.2.3,Win32,58.8373735,,,,,,,,,,,0.4525,0,,,,,,,,,,,,,,z,0,0.4525,,,,,,,,0.232407424,-0.191666733,0,0,0,,0,50,50,31,1,QUILL,LB,old,m,./images/QUILLLB.png,,,,,,,,,,,,,,,,,,,,,,,,,,,,,,,,,,,
,,,,,,,,,,,,,,,,,60fefa8d26f46e84a295b223,,2022-02-12_17h39.10.845,lexical_decision_task_DD_L2,2021.2.3,Win32,58.8373735,,,,,,,,,,,0.5518,1,,,,,,,,,,,,,,z,1,0.5518,,,,,,,,0.232407424,-0.191666733,0,0,0,,0,51,51,111,1,HOSSE,C,old,z,./images/HOSSE.png,,,,,,,,,,,,,,,,,,,,,,,,,,,,,,,,,,,
,,,,,,,,,,,,,,,,,60fefa8d26f46e84a295b223,,2022-02-12_17h39.10.845,lexical_decision_task_DD_L2,2021.2.3,Win32,58.8373735,,,,,,,,,,,0.6077,1,,,,,,,,,,,,,,z,1,0.6077,,,,,,,,0.232407424,-0.191666733,0,0,0,,0,52,52,127,1,NINDY,HB,old,z,./images/NINDYHB.png,,,,,,,,,,,,,,,,,,,,,,,,,,,,,,,,,,,
,,,,,,,,,,,,,,,,,60fefa8d26f46e84a295b223,,2022-02-12_17h39.10.845,lexical_decision_task_DD_L2,2021.2.3,Win32,58.8373735,,,,,,,,,,,0.5194,0,,,,,,,,,,,,,,m,0,0.5194,,,,,,,,0.232407424,-0.191666733,0,0,0,,0,53,53,91,1,SHENS,HB,old,z,./images/SHENSHB.png,,,,,,,,,,,,,,,,,,,,,,,,,,,,,,,,,,,
,,,,,,,,,,,,,,,,,60fefa8d26f46e84a295b223,,2022-02-12_17h39.10.845,lexical_decision_task_DD_L2,2021.2.3,Win32,58.8373735,,,,,,,,,,,0.5008,0,,,,,,,,,,,,,,m,0,0.5008,,,,,,,,0.232407424,-0.191666733,0,0,0,,0,54,54,122,1,BLOOT,LB,old,z,./images/BLOOTLB.png,,,,,,,,,,,,,,,,,,,,,,,,,,,,,,,,,,,
,,,,,,,,,,,,,,,,,60fefa8d26f46e84a295b223,,2022-02-12_17h39.10.845,lexical_decision_task_DD_L2,2021.2.3,Win32,58.8373735,,,,,,,,,,,0.5848,1,,,,,,,,,,,,,,m,1,0.5848,,,,,,,,0.232407424,-0.191666733,0,0,0,,0,55,55,59,1,BURIAL,C,old,m,./images/BURIAL.png,,,,,,,,,,,,,,,,,,,,,,,,,,,,,,,,,,,
,,,,,,,,,,,,,,,,,60fefa8d26f46e84a295b223,,2022-02-12_17h39.10.845,lexical_decision_task_DD_L2,2021.2.3,Win32,58.8373735,,,,,,,,,,,0.5007,1,,,,,,,,,,,,,,m,1,0.5007,,,,,,,,0.232407424,-0.191666733,0,0,0,,0,56,56,39,1,SHELF,HB,old,m,./images/SHELFHB.png,,,,,,,,,,,,,,,,,,,,,,,,,,,,,,,,,,,
,,,,,,,,,,,,,,,,,60fefa8d26f46e84a295b223,,2022-02-12_17h39.10.845,lexical_decision_task_DD_L2,2021.2.3,Win32,58.8373735,,,,,,,,,,,0.47,1,,,,,,,,,,,,,,z,1,0.47,,,,,,,,0.232407424,-0.191666733,0,0,0,,0,57,57,102,1,DULLE,C,old,z,./images/DULLE.png,,,,,,,,,,,,,,,,,,,,,,,,,,,,,,,,,,,
,,,,,,,,,,,,,,,,,60fefa8d26f46e84a295b223,,2022-02-12_17h39.10.845,lexical_decision_task_DD_L2,2021.2.3,Win32,58.8373735,,,,,,,,,,,0.5023,1,,,,,,,,,,,,,,z,1,0.5023,,,,,,,,0.232407424,-0.191666733,0,0,0,,0,58,58,135,1,JOODY,C,old,z,./images/JOODY.png,,,,,,,,,,,,,,,,,,,,,,,,,,,,,,,,,,,
,,,,,,,,,,,,,,,,,60fefa8d26f46e84a295b223,,2022-02-12_17h39.10.845,lexical_decision_task_DD_L2,2021.2.3,Win32,58.8373735,,,,,,,,,,,0.5015,1,,,,,,,,,,,,,,m,1,0.5015,,,,,,,,0.232407424,-0.191666733,0,0,0,,0,59,59,75,1,GRAIN,HB,old,m,./images/GRAINHB.png,,,,,,,,,,,,,,,,,,,,,,,,,,,,,,,,,,,
,,,,,,,,,,,,,,,,,60fefa8d26f46e84a295b223,,2022-02-12_17h39.10.845,lexical_decision_task_DD_L2,2021.2.3,Win32,58.8373735,,,,,,,,,,,0.6174,1,,,,,,,,,,,,,,z,1,0.6174,,,,,,,,0.232407424,-0.191666733,0,0,0,,0,60,60,112,1,MYING,HB,old,z,./images/MYINGHB.png,,,,,,,,,,,,,,,,,,,,,,,,,,,,,,,,,,,
,,,,,,,,,,,,,,,,,60fefa8d26f46e84a295b223,,2022-02-12_17h39.10.845,lexical_decision_task_DD_L2,2021.2.3,Win32,58.8373735,,,,,,,,,,,0.453,1,,,,,,,,,,,,,,m,1,0.453,,,,,,,,0.232407424,-0.191666733,0,0,0,,0,61,61,41,1,STRING,C,old,m,./images/STRING.png,,,,,,,,,,,,,,,,,,,,,,,,,,,,,,,,,,,
,,,,,,,,,,,,,,,,,60fefa8d26f46e84a295b223,,2022-02-12_17h39.10.845,lexical_decision_task_DD_L2,2021.2.3,Win32,58.8373735,,,,,,,,,,,0.4507,1,,,,,,,,,,,,,,z,1,0.4507,,,,,,,,0.232407424,-0.191666733,0,0,0,,0,62,62,117,1,STEEG,C,old,z,./images/STEEG.png,,,,,,,,,,,,,,,,,,,,,,,,,,,,,,,,,,,
,,,,,,,,,,,,,,,,,60fefa8d26f46e84a295b223,,2022-02-12_17h39.10.845,lexical_decision_task_DD_L2,2021.2.3,Win32,58.8373735,,,,,,,,,,,0.7357,1,,,,,,,,,,,,,,m,1,0.7357,,,,,,,,0.232407424,-0.191666733,0,0,0,,0,63,63,43,1,MOSQUE,LB,old,m,./images/MOSQUELB.png,,,,,,,,,,,,,,,,,,,,,,,,,,,,,,,,,,,
,,,,,,,,,,,,,,,,,60fefa8d26f46e84a295b223,,2022-02-12_17h39.10.845,lexical_decision_task_DD_L2,2021.2.3,Win32,58.8373735,,,,,,,,,,,0.5005,1,,,,,,,,,,,,,,m,1,0.5005,,,,,,,,0.232407424,-0.191666733,0,0,0,,0,64,64,29,1,CRUMB,C,old,m,./images/CRUMB.png,,,,,,,,,,,,,,,,,,,,,,,,,,,,,,,,,,,
,,,,,,,,,,,,,,,,,60fefa8d26f46e84a295b223,,2022-02-12_17h39.10.845,lexical_decision_task_DD_L2,2021.2.3,Win32,58.8373735,,,,,,,,,,,0.5226,1,,,,,,,,,,,,,,m,1,0.5226,,,,,,,,0.232407424,-0.191666733,0,0,0,,0,65,65,78,1,LITTER,HB,old,m,./images/LITTERHB.png,,,,,,,,,,,,,,,,,,,,,,,,,,,,,,,,,,,
,,,,,,,,,,,,,,,,,60fefa8d26f46e84a295b223,,2022-02-12_17h39.10.845,lexical_decision_task_DD_L2,2021.2.3,Win32,58.8373735,,,,,,,,,,,0.5176,1,,,,,,,,,,,,,,z,1,0.5176,,,,,,,,0.232407424,-0.191666733,0,0,0,,0,66,66,137,1,JOOST,LB,old,z,./images/JOOSTLB.png,,,,,,,,,,,,,,,,,,,,,,,,,,,,,,,,,,,
,,,,,,,,,,,,,,,,,60fefa8d26f46e84a295b223,,2022-02-12_17h39.10.845,lexical_decision_task_DD_L2,2021.2.3,Win32,58.8373735,,,,,,,,,,,0.4676,0,,,,,,,,,,,,,,m,0,0.4676,,,,,,,,0.232407424,-0.191666733,0,0,0,,0,67,67,125,1,MOOKY,LB,old,z,./images/MOOKYLB.png,,,,,,,,,,,,,,,,,,,,,,,,,,,,,,,,,,,
,,,,,,,,,,,,,,,,,60fefa8d26f46e84a295b223,,2022-02-12_17h39.10.845,lexical_decision_task_DD_L2,2021.2.3,Win32,58.8373735,,,,,,,,,,,0.6207,1,,,,,,,,,,,,,,z,1,0.6207,,,,,,,,0.232407424,-0.191666733,0,0,0,,0,68,68,98,1,BAMPS,LB,old,z,./images/BAMPSLB.png,,,,,,,,,,,,,,,,,,,,,,,,,,,,,,,,,,,
,,,,,,,,,,,,,,,,,60fefa8d26f46e84a295b223,,2022-02-12_17h39.10.845,lexical_decision_task_DD_L2,2021.2.3,Win32,58.8373735,,,,,,,,,,,0.52,1,,,,,,,,,,,,,,m,1,0.52,,,,,,,,0.232407424,-0.191666733,0,0,0,,0,69,69,37,1,BIRTH,LB,old,m,./images/BIRTHLB.png,,,,,,,,,,,,,,,,,,,,,,,,,,,,,,,,,,,
,,,,,,,,,,,,,,,,,60fefa8d26f46e84a295b223,,2022-02-12_17h39.10.845,lexical_decision_task_DD_L2,2021.2.3,Win32,58.8373735,,,,,,,,,,,0.5096,1,,,,,,,,,,,,,,m,1,0.5096,,,,,,,,0.232407424,-0.191666733,0,0,0,,0,70,70,17,1,SKIING,C,old,m,./images/SKIING.png,,,,,,,,,,,,,,,,,,,,,,,,,,,,,,,,,,,
,,,,,,,,,,,,,,,,,60fefa8d26f46e84a295b223,,2022-02-12_17h39.10.845,lexical_decision_task_DD_L2,2021.2.3,Win32,58.8373735,,,,,,,,,,,0.5685,1,,,,,,,,,,,,,,m,1,0.5685,,,,,,,,0.232407424,-0.191666733,0,0,0,,0,71,71,20,1,CRADLE,C,old,m,./images/CRADLE.png,,,,,,,,,,,,,,,,,,,,,,,,,,,,,,,,,,,
,,,,,,,,,,,,,,,,,60fefa8d26f46e84a295b223,,2022-02-12_17h39.10.845,lexical_decision_task_DD_L2,2021.2.3,Win32,58.8373735,,,,,,,,,,,0.5679,1,,,,,,,,,,,,,,m,1,0.5679,,,,,,,,0.232407424,-0.191666733,0,0,0,,0,72,72,44,1,LIZARD,C,old,m,./images/LIZARD.png,,,,,,,,,,,,,,,,,,,,,,,,,,,,,,,,,,,
,,,,,,,,,,,,,,,,,60fefa8d26f46e84a295b223,,2022-02-12_17h39.10.845,lexical_decision_task_DD_L2,2021.2.3,Win32,58.8373735,,,,,,,,,,,0.4839,1,,,,,,,,,,,,,,z,1,0.4839,,,,,,,,0.232407424,-0.191666733,0,0,0,,0,73,73,116,1,BALGY,LB,old,z,./images/BALGYLB.png,,,,,,,,,,,,,,,,,,,,,,,,,,,,,,,,,,,
,,,,,,,,,,,,,,,,,60fefa8d26f46e84a295b223,,2022-02-12_17h39.10.845,lexical_decision_task_DD_L2,2021.2.3,Win32,58.8373735,,,,,,,,,,,0.5201,1,,,,,,,,,,,,,,m,1,0.5201,,,,,,,,0.232407424,-0.191666733,0,0,0,,0,74,74,3,1,FINGER,HB,old,m,./images/FINGERHB.png,,,,,,,,,,,,,,,,,,,,,,,,,,,,,,,,,,,
,,,,,,,,,,,,,,,,,60fefa8d26f46e84a295b223,,2022-02-12_17h39.10.845,lexical_decision_task_DD_L2,2021.2.3,Win32,58.8373735,,,,,,,,,,,0.4685,1,,,,,,,,,,,,,,z,1,0.4685,,,,,,,,0.232407424,-0.191666733,0,0,0,,0,75,75,150,1,NOOLS,C,old,z,./images/NOOLS.png,,,,,,,,,,,,,,,,,,,,,,,,,,,,,,,,,,,
,,,,,,,,,,,,,,,,,60fefa8d26f46e84a295b223,,2022-02-12_17h39.10.845,lexical_decision_task_DD_L2,2021.2.3,Win32,58.8373735,,,,,,,,,,,0.5074,1,,,,,,,,,,,,,,z,1,0.5074,,,,,,,,0.232407424,-0.191666733,0,0,0,,0,76,76,167,1,ZONET,LB,old,z,./images/ZONETLB.png,,,,,,,,,,,,,,,,,,,,,,,,,,,,,,,,,,,
,,,,,,,,,,,,,,,,,60fefa8d26f46e84a295b223,,2022-02-12_17h39.10.845,lexical_decision_task_DD_L2,2021.2.3,Win32,58.8373735,,,,,,,,,,,0.5178,0,,,,,,,,,,,,,,m,0,0.5178,,,,,,,,0.232407424,-0.191666733,0,0,0,,0,77,77,161,1,BLAPS,LB,old,z,./images/BLAPSLB.png,,,,,,,,,,,,,,,,,,,,,,,,,,,,,,,,,,,
,,,,,,,,,,,,,,,,,60fefa8d26f46e84a295b223,,2022-02-12_17h39.10.845,lexical_decision_task_DD_L2,2021.2.3,Win32,58.8373735,,,,,,,,,,,0.7065,1,,,,,,,,,,,,,,z,1,0.7065,,,,,,,,0.232407424,-0.191666733,0,0,0,,0,78,78,149,1,VEASE,LB,old,z,./images/VEASELB.png,,,,,,,,,,,,,,,,,,,,,,,,,,,,,,,,,,,
,,,,,,,,,,,,,,,,,60fefa8d26f46e84a295b223,,2022-02-12_17h39.10.845,lexical_decision_task_DD_L2,2021.2.3,Win32,58.8373735,,,,,,,,,,,0.4273,1,,,,,,,,,,,,,,m,1,0.4273,,,,,,,,0.232407424,-0.191666733,0,0,0,,0,79,79,38,1,LADDER,C,old,m,./images/LADDER.png,,,,,,,,,,,,,,,,,,,,,,,,,,,,,,,,,,,
,,,,,,,,,,,,,,,,,60fefa8d26f46e84a295b223,,2022-02-12_17h39.10.845,lexical_decision_task_DD_L2,2021.2.3,Win32,58.8373735,,,,,,,,,,,0.5174,1,,,,,,,,,,,,,,z,1,0.5174,,,,,,,,0.232407424,-0.191666733,0,0,0,,0,80,80,123,1,SEDGE,C,old,z,./images/SEDGE.png,,,,,,,,,,,,,,,,,,,,,,,,,,,,,,,,,,,
,,,,,,,,,,,,,,,,,60fefa8d26f46e84a295b223,,2022-02-12_17h39.10.845,lexical_decision_task_DD_L2,2021.2.3,Win32,58.8373735,,,,,,,,,,,0.5173,0,,,,,,,,,,,,,,z,0,0.5173,,,,,,,,0.232407424,-0.191666733,0,0,0,,0,81,81,30,1,STORM,HB,old,m,./images/STORMHB.png,,,,,,,,,,,,,,,,,,,,,,,,,,,,,,,,,,,
,,,,,,,,,,,,,,,,,60fefa8d26f46e84a295b223,,2022-02-12_17h39.10.845,lexical_decision_task_DD_L2,2021.2.3,Win32,58.8373735,,,,,,,,,,,0.4872,1,,,,,,,,,,,,,,m,1,0.4872,,,,,,,,0.232407424,-0.191666733,0,0,0,,0,82,82,22,1,MELON,LB,old,m,./images/MELONLB.png,,,,,,,,,,,,,,,,,,,,,,,,,,,,,,,,,,,
,,,,,,,,,,,,,,,,,60fefa8d26f46e84a295b223,,2022-02-12_17h39.10.845,lexical_decision_task_DD_L2,2021.2.3,Win32,58.8373735,,,,,,,,,,,0.4046,1,,,,,,,,,,,,,,m,1,0.4046,,,,,,,,0.232407424,-0.191666733,0,0,0,space,0,83,83,26,1,SMOKER,C,old,m,./images/SMOKER.png,1.1203,,,,,,,,,,,,,,,,,,,,,,,,,,,,,,,,,,
,,,,,,,,,,,,,,,,,60fefa8d26f46e84a295b223,,2022-02-12_17h39.10.845,lexical_decision_task_DD_L2,2021.2.3,Win32,58.8373735,,,,,,,,,,,0.5508,1,,,,,,,,,,,,,,m,1,0.5508,,,,,,,,0.232407424,-0.191666733,0,0,0,,0,84,84,18,1,JAGUAR,HB,old,m,./images/JAGUARHB.png,,,,,,,,,,,,,,,,,,,,,,,,,,,,,,,,,,,
,,,,,,,,,,,,,,,,,60fefa8d26f46e84a295b223,,2022-02-12_17h39.10.845,lexical_decision_task_DD_L2,2021.2.3,Win32,58.8373735,,,,,,,,,,,0.4675,1,,,,,,,,,,,,,,m,1,0.4675,,,,,,,,0.232407424,-0.191666733,0,0,0,,0,85,85,82,1,SUNSET,LB,old,m,./images/SUNSETLB.png,,,,,,,,,,,,,,,,,,,,,,,,,,,,,,,,,,,
,,,,,,,,,,,,,,,,,60fefa8d26f46e84a295b223,,2022-02-12_17h39.10.845,lexical_decision_task_DD_L2,2021.2.3,Win32,58.8373735,,,,,,,,,,,0.5414,1,,,,,,,,,,,,,,m,1,0.5414,,,,,,,,0.232407424,-0.191666733,0,0,0,,0,86,86,71,1,PIMPLE,C,old,m,./images/PIMPLE.png,,,,,,,,,,,,,,,,,,,,,,,,,,,,,,,,,,,
,,,,,,,,,,,,,,,,,60fefa8d26f46e84a295b223,,2022-02-12_17h39.10.845,lexical_decision_task_DD_L2,2021.2.3,Win32,58.8373735,,,,,,,,,,,0.5383,1,,,,,,,,,,,,,,z,1,0.5383,,,,,,,,0.232407424,-0.191666733,0,0,0,,0,87,87,160,1,VEETS,HB,old,z,./images/VEETSHB.png,,,,,,,,,,,,,,,,,,,,,,,,,,,,,,,,,,,
,,,,,,,,,,,,,,,,,60fefa8d26f46e84a295b223,,2022-02-12_17h39.10.845,lexical_decision_task_DD_L2,2021.2.3,Win32,58.8373735,,,,,,,,,,,0.4706,1,,,,,,,,,,,,,,m,1,0.4706,,,,,,,,0.232407424,-0.191666733,0,0,0,,0,88,88,32,1,BARREL,C,old,m,./images/BARREL.png,,,,,,,,,,,,,,,,,,,,,,,,,,,,,,,,,,,
,,,,,,,,,,,,,,,,,60fefa8d26f46e84a295b223,,2022-02-12_17h39.10.845,lexical_decision_task_DD_L2,2021.2.3,Win32,58.8373735,,,,,,,,,,,0.8435,1,,,,,,,,,,,,,,z,1,0.8435,,,,,,,,0.232407424,-0.191666733,0,0,0,,0,89,89,85,1,CHULK,HB,old,z,./images/CHULKHB.png,,,,,,,,,,,,,,,,,,,,,,,,,,,,,,,,,,,
,,,,,,,,,,,,,,,,,60fefa8d26f46e84a295b223,,2022-02-12_17h39.10.845,lexical_decision_task_DD_L2,2021.2.3,Win32,58.8373735,,,,,,,,,,,0.4713,0,,,,,,,,,,,,,,m,0,0.4713,,,,,,,,0.232407424,-0.191666733,0,0,0,,0,90,90,92,1,PAIMS,LB,old,z,./images/PAIMSLB.png,,,,,,,,,,,,,,,,,,,,,,,,,,,,,,,,,,,
,,,,,,,,,,,,,,,,,60fefa8d26f46e84a295b223,,2022-02-12_17h39.10.845,lexical_decision_task_DD_L2,2021.2.3,Win32,58.8373735,,,,,,,,,,,0.815,1,,,,,,,,,,,,,,z,1,0.815,,,,,,,,0.232407424,-0.191666733,0,0,0,,0,91,91,144,1,NAIRY,C,old,z,./images/NAIRY.png,,,,,,,,,,,,,,,,,,,,,,,,,,,,,,,,,,,
,,,,,,,,,,,,,,,,,60fefa8d26f46e84a295b223,,2022-02-12_17h39.10.845,lexical_decision_task_DD_L2,2021.2.3,Win32,58.8373735,,,,,,,,,,,0.59,1,,,,,,,,,,,,,,z,1,0.59,,,,,,,,0.232407424,-0.191666733,0,0,0,,0,92,92,126,1,GUELS,C,old,z,./images/GUELS.png,,,,,,,,,,,,,,,,,,,,,,,,,,,,,,,,,,,
,,,,,,,,,,,,,,,,,60fefa8d26f46e84a295b223,,2022-02-12_17h39.10.845,lexical_decision_task_DD_L2,2021.2.3,Win32,58.8373735,,,,,,,,,,,0.502,1,,,,,,,,,,,,,,m,1,0.502,,,,,,,,0.232407424,-0.191666733,0,0,0,,0,93,93,74,1,CEMENT,C,old,m,./images/CEMENT.png,,,,,,,,,,,,,,,,,,,,,,,,,,,,,,,,,,,
,,,,,,,,,,,,,,,,,60fefa8d26f46e84a295b223,,2022-02-12_17h39.10.845,lexical_decision_task_DD_L2,2021.2.3,Win32,58.8373735,,,,,,,,,,,0.5839,1,,,,,,,,,,,,,,m,1,0.5839,,,,,,,,0.232407424,-0.191666733,0,0,0,,0,94,94,36,1,THROAT,HB,old,m,./images/THROATHB.png,,,,,,,,,,,,,,,,,,,,,,,,,,,,,,,,,,,
,,,,,,,,,,,,,,,,,60fefa8d26f46e84a295b223,,2022-02-12_17h39.10.845,lexical_decision_task_DD_L2,2021.2.3,Win32,58.8373735,,,,,,,,,,,0.5673,1,,,,,,,,,,,,,,z,1,0.5673,,,,,,,,0.232407424,-0.191666733,0,0,0,,0,95,95,97,1,CHIDS,HB,old,z,./images/CHIDSHB.png,,,,,,,,,,,,,,,,,,,,,,,,,,,,,,,,,,,
,,,,,,,,,,,,,,,,,60fefa8d26f46e84a295b223,,2022-02-12_17h39.10.845,lexical_decision_task_DD_L2,2021.2.3,Win32,58.8373735,,,,,,,,,,,0.6227,1,,,,,,,,,,,,,,z,1,0.6227,,,,,,,,0.232407424,-0.191666733,0,0,0,,0,96,96,100,1,DRIBS,HB,old,z,./images/DRIBSHB.png,,,,,,,,,,,,,,,,,,,,,,,,,,,,,,,,,,,
,,,,,,,,,,,,,,,,,60fefa8d26f46e84a295b223,,2022-02-12_17h39.10.845,lexical_decision_task_DD_L2,2021.2.3,Win32,58.8373735,,,,,,,,,,,1.1363,1,,,,,,,,,,,,,,z,1,1.1363,,,,,,,,0.232407424,-0.191666733,0,0,0,,0,97,97,130,1,CRILL,HB,old,z,./images/CRILLHB.png,,,,,,,,,,,,,,,,,,,,,,,,,,,,,,,,,,,
,,,,,,,,,,,,,,,,,60fefa8d26f46e84a295b223,,2022-02-12_17h39.10.845,lexical_decision_task_DD_L2,2021.2.3,Win32,58.8373735,,,,,,,,,,,0.46,1,,,,,,,,,,,,,,m,1,0.46,,,,,,,,0.232407424,-0.191666733,0,0,0,,0,98,98,61,1,CANDLE,LB,old,m,./images/CANDLELB.png,,,,,,,,,,,,,,,,,,,,,,,,,,,,,,,,,,,
,,,,,,,,,,,,,,,,,60fefa8d26f46e84a295b223,,2022-02-12_17h39.10.845,lexical_decision_task_DD_L2,2021.2.3,Win32,58.8373735,,,,,,,,,,,0.5675,0,,,,,,,,,,,,,,z,0,0.5675,,,,,,,,0.232407424,-0.191666733,0,0,0,,0,99,99,58,1,BABOON,LB,old,m,./images/BABOONLB.png,,,,,,,,,,,,,,,,,,,,,,,,,,,,,,,,,,,
,,,,,,,,,,,,,,,,,60fefa8d26f46e84a295b223,,2022-02-12_17h39.10.845,lexical_decision_task_DD_L2,2021.2.3,Win32,58.8373735,,,,,,,,,,,0.4087,1,,,,,,,,,,,,,,m,1,0.4087,,,,,,,,0.232407424,-0.191666733,0,0,0,,0,100,100,7,1,PAINT,LB,old,m,./images/PAINTLB.png,,,,,,,,,,,,,,,,,,,,,,,,,,,,,,,,,,,
,,,,,,,,,,,,,,,,,60fefa8d26f46e84a295b223,,2022-02-12_17h39.10.845,lexical_decision_task_DD_L2,2021.2.3,Win32,58.8373735,,,,,,,,,,,0.5013,1,,,,,,,,,,,,,,m,1,0.5013,,,,,,,,0.232407424,-0.191666733,0,0,0,,0,101,101,83,1,JUNGLE,C,old,m,./images/JUNGLE.png,,,,,,,,,,,,,,,,,,,,,,,,,,,,,,,,,,,
,,,,,,,,,,,,,,,,,60fefa8d26f46e84a295b223,,2022-02-12_17h39.10.845,lexical_decision_task_DD_L2,2021.2.3,Win32,58.8373735,,,,,,,,,,,0.501,1,,,,,,,,,,,,,,z,1,0.501,,,,,,,,0.232407424,-0.191666733,0,0,0,,0,102,102,90,1,NEAST,C,old,z,./images/NEAST.png,,,,,,,,,,,,,,,,,,,,,,,,,,,,,,,,,,,
,,,,,,,,,,,,,,,,,60fefa8d26f46e84a295b223,,2022-02-12_17h39.10.845,lexical_decision_task_DD_L2,2021.2.3,Win32,58.8373735,,,,,,,,,,,0.7116,1,,,,,,,,,,,,,,z,1,0.7116,,,,,,,,0.232407424,-0.191666733,0,0,0,,0,103,103,163,1,GAMBA,HB,old,z,./images/GAMBAHB.png,,,,,,,,,,,,,,,,,,,,,,,,,,,,,,,,,,,
,,,,,,,,,,,,,,,,,60fefa8d26f46e84a295b223,,2022-02-12_17h39.10.845,lexical_decision_task_DD_L2,2021.2.3,Win32,58.8373735,,,,,,,,,,,0.4601,1,,,,,,,,,,,,,,m,1,0.4601,,,,,,,,0.232407424,-0.191666733,0,0,0,,0,104,104,4,1,MUSCLE,LB,old,m,./images/MUSCLELB.png,,,,,,,,,,,,,,,,,,,,,,,,,,,,,,,,,,,
,,,,,,,,,,,,,,,,,60fefa8d26f46e84a295b223,,2022-02-12_17h39.10.845,lexical_decision_task_DD_L2,2021.2.3,Win32,58.8373735,,,,,,,,,,,0.5179,1,,,,,,,,,,,,,,m,1,0.5179,,,,,,,,0.232407424,-0.191666733,0,0,0,,0,105,105,1,1,PLANK,LB,old,m,./images/PLANKLB.png,,,,,,,,,,,,,,,,,,,,,,,,,,,,,,,,,,,
,,,,,,,,,,,,,,,,,60fefa8d26f46e84a295b223,,2022-02-12_17h39.10.845,lexical_decision_task_DD_L2,2021.2.3,Win32,58.8373735,,,,,,,,,,,0.4172,1,,,,,,,,,,,,,,m,1,0.4172,,,,,,,,0.232407424,-0.191666733,0,0,0,,0,106,106,62,1,PURSE,C,old,m,./images/PURSE.png,,,,,,,,,,,,,,,,,,,,,,,,,,,,,,,,,,,
,,,,,,,,,,,,,,,,,60fefa8d26f46e84a295b223,,2022-02-12_17h39.10.845,lexical_decision_task_DD_L2,2021.2.3,Win32,58.8373735,,,,,,,,,,,0.5058,1,,,,,,,,,,,,,,z,1,0.5058,,,,,,,,0.232407424,-0.191666733,0,0,0,,0,107,107,114,1,RIKES,C,old,z,./images/RIKES.png,,,,,,,,,,,,,,,,,,,,,,,,,,,,,,,,,,,
,,,,,,,,,,,,,,,,,60fefa8d26f46e84a295b223,,2022-02-12_17h39.10.845,lexical_decision_task_DD_L2,2021.2.3,Win32,58.8373735,,,,,,,,,,,0.5686,1,,,,,,,,,,,,,,m,1,0.5686,,,,,,,,0.232407424,-0.191666733,0,0,0,,0,108,108,80,1,WEASEL,C,old,m,./images/WEASEL.png,,,,,,,,,,,,,,,,,,,,,,,,,,,,,,,,,,,
,,,,,,,,,,,,,,,,,60fefa8d26f46e84a295b223,,2022-02-12_17h39.10.845,lexical_decision_task_DD_L2,2021.2.3,Win32,58.8373735,,,,,,,,,,,0.451,1,,,,,,,,,,,,,,m,1,0.451,,,,,,,,0.232407424,-0.191666733,0,0,0,,0,109,109,33,1,MAGGOT,HB,old,m,./images/MAGGOTHB.png,,,,,,,,,,,,,,,,,,,,,,,,,,,,,,,,,,,
,,,,,,,,,,,,,,,,,60fefa8d26f46e84a295b223,,2022-02-12_17h39.10.845,lexical_decision_task_DD_L2,2021.2.3,Win32,58.8373735,,,,,,,,,,,0.5492,1,,,,,,,,,,,,,,z,1,0.5492,,,,,,,,0.232407424,-0.191666733,0,0,0,,0,110,110,147,1,ZOLES,C,old,z,./images/ZOLES.png,,,,,,,,,,,,,,,,,,,,,,,,,,,,,,,,,,,
,,,,,,,,,,,,,,,,,60fefa8d26f46e84a295b223,,2022-02-12_17h39.10.845,lexical_decision_task_DD_L2,2021.2.3,Win32,58.8373735,,,,,,,,,,,0.5339,1,,,,,,,,,,,,,,z,1,0.5339,,,,,,,,0.232407424,-0.191666733,0,0,0,,0,111,111,156,1,HIXES,C,old,z,./images/HIXES.png,,,,,,,,,,,,,,,,,,,,,,,,,,,,,,,,,,,
,,,,,,,,,,,,,,,,,60fefa8d26f46e84a295b223,,2022-02-12_17h39.10.845,lexical_decision_task_DD_L2,2021.2.3,Win32,58.8373735,,,,,,,,,,,0.5171,1,,,,,,,,,,,,,,z,1,0.5171,,,,,,,,0.232407424,-0.191666733,0,0,0,,0,112,112,141,1,PLEET,C,old,z,./images/PLEET.png,,,,,,,,,,,,,,,,,,,,,,,,,,,,,,,,,,,
,,,,,,,,,,,,,,,,,60fefa8d26f46e84a295b223,,2022-02-12_17h39.10.845,lexical_decision_task_DD_L2,2021.2.3,Win32,58.8373735,,,,,,,,,,,0.6358,1,,,,,,,,,,,,,,z,1,0.6358,,,,,,,,0.232407424,-0.191666733,0,0,0,,0,113,113,119,1,PAFER,LB,old,z,./images/PAFERLB.png,,,,,,,,,,,,,,,,,,,,,,,,,,,,,,,,,,,
,,,,,,,,,,,,,,,,,60fefa8d26f46e84a295b223,,2022-02-12_17h39.10.845,lexical_decision_task_DD_L2,2021.2.3,Win32,58.8373735,,,,,,,,,,,0.607,1,,,,,,,,,,,,,,z,1,0.607,,,,,,,,0.232407424,-0.191666733,0,0,0,,0,114,114,146,1,MOOST,LB,old,z,./images/MOOSTLB.png,,,,,,,,,,,,,,,,,,,,,,,,,,,,,,,,,,,
,,,,,,,,,,,,,,,,,60fefa8d26f46e84a295b223,,2022-02-12_17h39.10.845,lexical_decision_task_DD_L2,2021.2.3,Win32,58.8373735,,,,,,,,,,,0.518,1,,,,,,,,,,,,,,m,1,0.518,,,,,,,,0.232407424,-0.191666733,0,0,0,,0,115,115,2,1,BEARD,C,old,m,./images/BEARD.png,,,,,,,,,,,,,,,,,,,,,,,,,,,,,,,,,,,
,,,,,,,,,,,,,,,,,60fefa8d26f46e84a295b223,,2022-02-12_17h39.10.845,lexical_decision_task_DD_L2,2021.2.3,Win32,58.8373735,,,,,,,,,,,0.5071,1,,,,,,,,,,,,,,z,1,0.5071,,,,,,,,0.232407424,-0.191666733,0,0,0,,0,116,116,120,1,RINED,C,old,z,./images/RINED.png,,,,,,,,,,,,,,,,,,,,,,,,,,,,,,,,,,,
,,,,,,,,,,,,,,,,,60fefa8d26f46e84a295b223,,2022-02-12_17h39.10.845,lexical_decision_task_DD_L2,2021.2.3,Win32,58.8373735,,,,,,,,,,,0.5672,1,,,,,,,,,,,,,,z,1,0.5672,,,,,,,,0.232407424,-0.191666733,0,0,0,,0,117,117,89,1,DRIEK,LB,old,z,./images/DRIEKLB.png,,,,,,,,,,,,,,,,,,,,,,,,,,,,,,,,,,,
,,,,,,,,,,,,,,,,,60fefa8d26f46e84a295b223,,2022-02-12_17h39.10.845,lexical_decision_task_DD_L2,2021.2.3,Win32,58.8373735,,,,,,,,,,,0.5406,1,,,,,,,,,,,,,,m,1,0.5406,,,,,,,,0.232407424,-0.191666733,0,0,0,,0,118,118,46,1,PEARL,LB,old,m,./images/PEARLLB.png,,,,,,,,,,,,,,,,,,,,,,,,,,,,,,,,,,,
,,,,,,,,,,,,,,,,,60fefa8d26f46e84a295b223,,2022-02-12_17h39.10.845,lexical_decision_task_DD_L2,2021.2.3,Win32,58.8373735,,,,,,,,,,,0.5029,1,,,,,,,,,,,,,,m,1,0.5029,,,,,,,,0.232407424,-0.191666733,0,0,0,,0,119,119,70,1,URINE,LB,old,m,./images/URINELB.png,,,,,,,,,,,,,,,,,,,,,,,,,,,,,,,,,,,
,,,,,,,,,,,,,,,,,60fefa8d26f46e84a295b223,,2022-02-12_17h39.10.845,lexical_decision_task_DD_L2,2021.2.3,Win32,58.8373735,,,,,,,,,,,0.471,1,,,,,,,,,,,,,,m,1,0.471,,,,,,,,0.232407424,-0.191666733,0,0,0,,0,120,120,13,1,MOTOR,LB,old,m,./images/MOTORLB.png,,,,,,,,,,,,,,,,,,,,,,,,,,,,,,,,,,,
,,,,,,,,,,,,,,,,,60fefa8d26f46e84a295b223,,2022-02-12_17h39.10.845,lexical_decision_task_DD_L2,2021.2.3,Win32,58.8373735,,,,,,,,,,,0.4898,0,,,,,,,,,,,,,,m,0,0.4898,,,,,,,,0.232407424,-0.191666733,0,0,0,,0,121,121,110,1,CRUNK,LB,old,z,./images/CRUNKLB.png,,,,,,,,,,,,,,,,,,,,,,,,,,,,,,,,,,,
,,,,,,,,,,,,,,,,,60fefa8d26f46e84a295b223,,2022-02-12_17h39.10.845,lexical_decision_task_DD_L2,2021.2.3,Win32,58.8373735,,,,,,,,,,,0.6673,1,,,,,,,,,,,,,,z,1,0.6673,,,,,,,,0.232407424,-0.191666733,0,0,0,,0,122,122,109,1,BURGE,HB,old,z,./images/BURGEHB.png,,,,,,,,,,,,,,,,,,,,,,,,,,,,,,,,,,,
,,,,,,,,,,,,,,,,,60fefa8d26f46e84a295b223,,2022-02-12_17h39.10.845,lexical_decision_task_DD_L2,2021.2.3,Win32,58.8373735,,,,,,,,,,,0.5999,1,,,,,,,,,,,,,,m,1,0.5999,,,,,,,,0.232407424,-0.191666733,0,0,0,,0,123,123,11,1,BONNET,C,old,m,./images/BONNET.png,,,,,,,,,,,,,,,,,,,,,,,,,,,,,,,,,,,
,,,,,,,,,,,,,,,,,60fefa8d26f46e84a295b223,,2022-02-12_17h39.10.845,lexical_decision_task_DD_L2,2021.2.3,Win32,58.8373735,,,,,,,,,,,0.5018,1,,,,,,,,,,,,,,m,1,0.5018,,,,,,,,0.232407424,-0.191666733,0,0,0,,0,124,124,76,1,INFANT,LB,old,m,./images/INFANTLB.png,,,,,,,,,,,,,,,,,,,,,,,,,,,,,,,,,,,
,,,,,,,,,,,,,,,,,60fefa8d26f46e84a295b223,,2022-02-12_17h39.10.845,lexical_decision_task_DD_L2,2021.2.3,Win32,58.8373735,,,,,,,,,,,0.5169,1,,,,,,,,,,,,,,m,1,0.5169,,,,,,,,0.232407424,-0.191666733,0,0,0,space,0,125,125,25,1,WRIST,LB,old,m,./images/WRISTLB.png,0.8901,,,,,,,,,,,,,,,,,,,,,,,,,,,,,,,,,,
,,,,,,,,,,,,,,,,,60fefa8d26f46e84a295b223,,2022-02-12_17h39.10.845,lexical_decision_task_DD_L2,2021.2.3,Win32,58.8373735,,,,,,,,,,,1.2174,1,,,,,,,,,,,,,,m,1,1.2174,,,,,,,,0.232407424,-0.191666733,0,0,0,,0,126,126,21,1,KIDNEY,HB,old,m,./images/KIDNEYHB.png,,,,,,,,,,,,,,,,,,,,,,,,,,,,,,,,,,,
,,,,,,,,,,,,,,,,,60fefa8d26f46e84a295b223,,2022-02-12_17h39.10.845,lexical_decision_task_DD_L2,2021.2.3,Win32,58.8373735,,,,,,,,,,,0.5518,1,,,,,,,,,,,,,,z,1,0.5518,,,,,,,,0.232407424,-0.191666733,0,0,0,,0,127,127,87,1,TRING,C,old,z,./images/TRING.png,,,,,,,,,,,,,,,,,,,,,,,,,,,,,,,,,,,
,,,,,,,,,,,,,,,,,60fefa8d26f46e84a295b223,,2022-02-12_17h39.10.845,lexical_decision_task_DD_L2,2021.2.3,Win32,58.8373735,,,,,,,,,,,0.6177,1,,,,,,,,,,,,,,m,1,0.6177,,,,,,,,0.232407424,-0.191666733,0,0,0,,0,128,128,48,1,SPORT,HB,old,m,./images/SPORTHB.png,,,,,,,,,,,,,,,,,,,,,,,,,,,,,,,,,,,
,,,,,,,,,,,,,,,,,60fefa8d26f46e84a295b223,,2022-02-12_17h39.10.845,lexical_decision_task_DD_L2,2021.2.3,Win32,58.8373735,,,,,,,,,,,0.588,1,,,,,,,,,,,,,,z,1,0.588,,,,,,,,0.232407424,-0.191666733,0,0,0,,0,129,129,108,1,GRUET,C,old,z,./images/GRUET.png,,,,,,,,,,,,,,,,,,,,,,,,,,,,,,,,,,,
,,,,,,,,,,,,,,,,,60fefa8d26f46e84a295b223,,2022-02-12_17h39.10.845,lexical_decision_task_DD_L2,2021.2.3,Win32,58.8373735,,,,,,,,,,,0.8037,1,,,,,,,,,,,,,,z,1,0.8037,,,,,,,,0.232407424,-0.191666733,0,0,0,,0,130,130,115,1,MAWNS,HB,old,z,./images/MAWNSHB.png,,,,,,,,,,,,,,,,,,,,,,,,,,,,,,,,,,,
,,,,,,,,,,,,,,,,,60fefa8d26f46e84a295b223,,2022-02-12_17h39.10.845,lexical_decision_task_DD_L2,2021.2.3,Win32,58.8373735,,,,,,,,,,,0.5001,1,,,,,,,,,,,,,,m,1,0.5001,,,,,,,,0.232407424,-0.191666733,0,0,0,,0,131,131,81,1,POODLE,HB,old,m,./images/POODLEHB.png,,,,,,,,,,,,,,,,,,,,,,,,,,,,,,,,,,,
,,,,,,,,,,,,,,,,,60fefa8d26f46e84a295b223,,2022-02-12_17h39.10.845,lexical_decision_task_DD_L2,2021.2.3,Win32,58.8373735,,,,,,,,,,,0.5865,0,,,,,,,,,,,,,,z,0,0.5865,,,,,,,,0.232407424,-0.191666733,0,0,0,,0,132,132,0,1,TOMATO,HB,old,m,./images/TOMATOHB.png,,,,,,,,,,,,,,,,,,,,,,,,,,,,,,,,,,,
,,,,,,,,,,,,,,,,,60fefa8d26f46e84a295b223,,2022-02-12_17h39.10.845,lexical_decision_task_DD_L2,2021.2.3,Win32,58.8373735,,,,,,,,,,,0.5222,1,,,,,,,,,,,,,,z,1,0.5222,,,,,,,,0.232407424,-0.191666733,0,0,0,,0,133,133,148,1,JOMS,HB,old,z,./images/JOMSHB.png,,,,,,,,,,,,,,,,,,,,,,,,,,,,,,,,,,,
,,,,,,,,,,,,,,,,,60fefa8d26f46e84a295b223,,2022-02-12_17h39.10.845,lexical_decision_task_DD_L2,2021.2.3,Win32,58.8373735,,,,,,,,,,,0.7838,1,,,,,,,,,,,,,,z,1,0.7838,,,,,,,,0.232407424,-0.191666733,0,0,0,,0,134,134,103,1,FLORT,HB,old,z,./images/FLORTHB.png,,,,,,,,,,,,,,,,,,,,,,,,,,,,,,,,,,,
,,,,,,,,,,,,,,,,,60fefa8d26f46e84a295b223,,2022-02-12_17h39.10.845,lexical_decision_task_DD_L2,2021.2.3,Win32,58.8373735,,,,,,,,,,,0.8598,1,,,,,,,,,,,,,,z,1,0.8598,,,,,,,,0.232407424,-0.191666733,0,0,0,,0,135,135,134,1,TROSS,LB,old,z,./images/TROSSLB.png,,,,,,,,,,,,,,,,,,,,,,,,,,,,,,,,,,,
,,,,,,,,,,,,,,,,,60fefa8d26f46e84a295b223,,2022-02-12_17h39.10.845,lexical_decision_task_DD_L2,2021.2.3,Win32,58.8373735,,,,,,,,,,,0.5503,1,,,,,,,,,,,,,,z,1,0.5503,,,,,,,,0.232407424,-0.191666733,0,0,0,,0,136,136,86,1,AIFED,LB,old,z,./images/AIFEDLB.png,,,,,,,,,,,,,,,,,,,,,,,,,,,,,,,,,,,
,,,,,,,,,,,,,,,,,60fefa8d26f46e84a295b223,,2022-02-12_17h39.10.845,lexical_decision_task_DD_L2,2021.2.3,Win32,58.8373735,,,,,,,,,,,0.6683,1,,,,,,,,,,,,,,z,1,0.6683,,,,,,,,0.232407424,-0.191666733,0,0,0,,0,137,137,166,1,SHORY,HB,old,z,./images/SHORYHB.png,,,,,,,,,,,,,,,,,,,,,,,,,,,,,,,,,,,
,,,,,,,,,,,,,,,,,60fefa8d26f46e84a295b223,,2022-02-12_17h39.10.845,lexical_decision_task_DD_L2,2021.2.3,Win32,58.8373735,,,,,,,,,,,0.5419,1,,,,,,,,,,,,,,m,1,0.5419,,,,,,,,0.232407424,-0.191666733,0,0,0,,0,138,138,54,1,TRIPOD,HB,old,m,./images/TRIPODHB.png,,,,,,,,,,,,,,,,,,,,,,,,,,,,,,,,,,,
,,,,,,,,,,,,,,,,,60fefa8d26f46e84a295b223,,2022-02-12_17h39.10.845,lexical_decision_task_DD_L2,2021.2.3,Win32,58.8373735,,,,,,,,,,,0.5191,1,,,,,,,,,,,,,,z,1,0.5191,,,,,,,,0.232407424,-0.191666733,0,0,0,,0,139,139,132,1,SCIFF,C,old,z,./images/SCIFF.png,,,,,,,,,,,,,,,,,,,,,,,,,,,,,,,,,,,
,,,,,,,,,,,,,,,,,60fefa8d26f46e84a295b223,,2022-02-12_17h39.10.845,lexical_decision_task_DD_L2,2021.2.3,Win32,58.8373735,,,,,,,,,,,0.6423,1,,,,,,,,,,,,,,z,1,0.6423,,,,,,,,0.232407424,-0.191666733,0,0,0,,0,140,140,164,1,SGREW,LB,old,z,./images/SGREWLB.png,,,,,,,,,,,,,,,,,,,,,,,,,,,,,,,,,,,
,,,,,,,,,,,,,,,,,60fefa8d26f46e84a295b223,,2022-02-12_17h39.10.845,lexical_decision_task_DD_L2,2021.2.3,Win32,58.8373735,,,,,,,,,,,0.4931,1,,,,,,,,,,,,,,m,1,0.4931,,,,,,,,0.232407424,-0.191666733,0,0,0,,0,141,141,69,1,COOKER,HB,old,m,./images/COOKERHB.png,,,,,,,,,,,,,,,,,,,,,,,,,,,,,,,,,,,
,,,,,,,,,,,,,,,,,60fefa8d26f46e84a295b223,,2022-02-12_17h39.10.845,lexical_decision_task_DD_L2,2021.2.3,Win32,58.8373735,,,,,,,,,,,0.5931,1,,,,,,,,,,,,,,z,1,0.5931,,,,,,,,0.232407424,-0.191666733,0,0,0,,0,142,142,138,1,PLICE,C,old,z,./images/PLICE.png,,,,,,,,,,,,,,,,,,,,,,,,,,,,,,,,,,,
,,,,,,,,,,,,,,,,,60fefa8d26f46e84a295b223,,2022-02-12_17h39.10.845,lexical_decision_task_DD_L2,2021.2.3,Win32,58.8373735,,,,,,,,,,,0.6783,1,,,,,,,,,,,,,,m,1,0.6783,,,,,,,,0.232407424,-0.191666733,0,0,0,,0,143,143,77,1,COUCH,C,old,m,./images/COUCH.png,,,,,,,,,,,,,,,,,,,,,,,,,,,,,,,,,,,
,,,,,,,,,,,,,,,,,60fefa8d26f46e84a295b223,,2022-02-12_17h39.10.845,lexical_decision_task_DD_L2,2021.2.3,Win32,58.8373735,,,,,,,,,,,0.3935,1,,,,,,,,,,,,,,m,1,0.3935,,,,,,,,0.232407424,-0.191666733,0,0,0,,0,144,144,40,1,SWING,LB,old,m,./images/SWINGLB.png,,,,,,,,,,,,,,,,,,,,,,,,,,,,,,,,,,,
,,,,,,,,,,,,,,,,,60fefa8d26f46e84a295b223,,2022-02-12_17h39.10.845,lexical_decision_task_DD_L2,2021.2.3,Win32,58.8373735,,,,,,,,,,,0.4787,1,,,,,,,,,,,,,,m,1,0.4787,,,,,,,,0.232407424,-0.191666733,0,0,0,,0,145,145,67,1,SAILOR,LB,old,m,./images/SAILORLB.png,,,,,,,,,,,,,,,,,,,,,,,,,,,,,,,,,,,
,,,,,,,,,,,,,,,,,60fefa8d26f46e84a295b223,,2022-02-12_17h39.10.845,lexical_decision_task_DD_L2,2021.2.3,Win32,58.8373735,,,,,,,,,,,0.4528,1,,,,,,,,,,,,,,m,1,0.4528,,,,,,,,0.232407424,-0.191666733,0,0,0,,0,146,146,52,1,BANNER,LB,old,m,./images/BANNERLB.png,,,,,,,,,,,,,,,,,,,,,,,,,,,,,,,,,,,
,,,,,,,,,,,,,,,,,60fefa8d26f46e84a295b223,,2022-02-12_17h39.10.845,lexical_decision_task_DD_L2,2021.2.3,Win32,58.8373735,,,,,,,,,,,0.561,1,,,,,,,,,,,,,,z,1,0.561,,,,,,,,0.232407424,-0.191666733,0,0,0,,0,147,147,142,1,PLASK,HB,old,z,./images/PLASKHB.png,,,,,,,,,,,,,,,,,,,,,,,,,,,,,,,,,,,
,,,,,,,,,,,,,,,,,60fefa8d26f46e84a295b223,,2022-02-12_17h39.10.845,lexical_decision_task_DD_L2,2021.2.3,Win32,58.8373735,,,,,,,,,,,0.3952,0,,,,,,,,,,,,,,m,0,0.3952,,,,,,,,0.232407424,-0.191666733,0,0,0,,0,148,148,159,1,CUDDY,C,old,z,./images/CUDDY.png,,,,,,,,,,,,,,,,,,,,,,,,,,,,,,,,,,,
,,,,,,,,,,,,,,,,,60fefa8d26f46e84a295b223,,2022-02-12_17h39.10.845,lexical_decision_task_DD_L2,2021.2.3,Win32,58.8373735,,,,,,,,,,,0.3855,1,,,,,,,,,,,,,,z,1,0.3855,,,,,,,,0.232407424,-0.191666733,0,0,0,,0,149,149,162,1,LEICH,C,old,z,./images/LEICH.png,,,,,,,,,,,,,,,,,,,,,,,,,,,,,,,,,,,
,,,,,,,,,,,,,,,,,60fefa8d26f46e84a295b223,,2022-02-12_17h39.10.845,lexical_decision_task_DD_L2,2021.2.3,Win32,58.8373735,,,,,,,,,,,0.429,1,,,,,,,,,,,,,,m,1,0.429,,,,,,,,0.232407424,-0.191666733,0,0,0,,0,150,150,73,1,SNACK,LB,old,m,./images/SNACKLB.png,,,,,,,,,,,,,,,,,,,,,,,,,,,,,,,,,,,
,,,,,,,,,,,,,,,,,60fefa8d26f46e84a295b223,,2022-02-12_17h39.10.845,lexical_decision_task_DD_L2,2021.2.3,Win32,58.8373735,,,,,,,,,,,0.4421,1,,,,,,,,,,,,,,m,1,0.4421,,,,,,,,0.232407424,-0.191666733,0,0,0,,0,151,151,57,1,MOOSE,HB,old,m,./images/MOOSEHB.png,,,,,,,,,,,,,,,,,,,,,,,,,,,,,,,,,,,
,,,,,,,,,,,,,,,,,60fefa8d26f46e84a295b223,,2022-02-12_17h39.10.845,lexical_decision_task_DD_L2,2021.2.3,Win32,58.8373735,,,,,,,,,,,0.5967,0,,,,,,,,,,,,,,m,0,0.5967,,,,,,,,0.232407424,-0.191666733,0,0,0,,0,152,152,106,1,CLUMS,HB,old,z,./images/CLUMSHB.png,,,,,,,,,,,,,,,,,,,,,,,,,,,,,,,,,,,
,,,,,,,,,,,,,,,,,60fefa8d26f46e84a295b223,,2022-02-12_17h39.10.845,lexical_decision_task_DD_L2,2021.2.3,Win32,58.8373735,,,,,,,,,,,0.4061,1,,,,,,,,,,,,,,m,1,0.4061,,,,,,,,0.232407424,-0.191666733,0,0,0,,0,153,153,35,1,PEACH,C,old,m,./images/PEACH.png,,,,,,,,,,,,,,,,,,,,,,,,,,,,,,,,,,,
,,,,,,,,,,,,,,,,,60fefa8d26f46e84a295b223,,2022-02-12_17h39.10.845,lexical_decision_task_DD_L2,2021.2.3,Win32,58.8373735,,,,,,,,,,,0.5407,1,,,,,,,,,,,,,,z,1,0.5407,,,,,,,,0.232407424,-0.191666733,0,0,0,,0,154,154,99,1,BACKY,C,old,z,./images/BACKY.png,,,,,,,,,,,,,,,,,,,,,,,,,,,,,,,,,,,
,,,,,,,,,,,,,,,,,60fefa8d26f46e84a295b223,,2022-02-12_17h39.10.845,lexical_decision_task_DD_L2,2021.2.3,Win32,58.8373735,,,,,,,,,,,0.5904,1,,,,,,,,,,,,,,m,1,0.5904,,,,,,,,0.232407424,-0.191666733,0,0,0,,0,155,155,27,1,ATTIC,HB,old,m,./images/ATTICHB.png,,,,,,,,,,,,,,,,,,,,,,,,,,,,,,,,,,,
,,,,,,,,,,,,,,,,,60fefa8d26f46e84a295b223,,2022-02-12_17h39.10.845,lexical_decision_task_DD_L2,2021.2.3,Win32,58.8373735,,,,,,,,,,,0.5579,1,,,,,,,,,,,,,,z,1,0.5579,,,,,,,,0.232407424,-0.191666733,0,0,0,,0,156,156,165,1,TROWN,C,old,z,./images/TROWN.png,,,,,,,,,,,,,,,,,,,,,,,,,,,,,,,,,,,
,,,,,,,,,,,,,,,,,60fefa8d26f46e84a295b223,,2022-02-12_17h39.10.845,lexical_decision_task_DD_L2,2021.2.3,Win32,58.8373735,,,,,,,,,,,0.49,1,,,,,,,,,,,,,,m,1,0.49,,,,,,,,0.232407424,-0.191666733,0,0,0,,0,157,157,23,1,WALRUS,C,old,m,./images/WALRUS.png,,,,,,,,,,,,,,,,,,,,,,,,,,,,,,,,,,,
,,,,,,,,,,,,,,,,,60fefa8d26f46e84a295b223,,2022-02-12_17h39.10.845,lexical_decision_task_DD_L2,2021.2.3,Win32,58.8373735,,,,,,,,,,,0.4222,0,,,,,,,,,,,,,,z,0,0.4222,,,,,,,,0.232407424,-0.191666733,0,0,0,,0,158,158,8,1,TULIP,C,old,m,./images/TULIP.png,,,,,,,,,,,,,,,,,,,,,,,,,,,,,,,,,,,
,,,,,,,,,,,,,,,,,60fefa8d26f46e84a295b223,,2022-02-12_17h39.10.845,lexical_decision_task_DD_L2,2021.2.3,Win32,58.8373735,,,,,,,,,,,0.4785,1,,,,,,,,,,,,,,z,1,0.4785,,,,,,,,0.232407424,-0.191666733,0,0,0,,0,159,159,95,1,HANTY,LB,old,z,./images/HANTYLB.png,,,,,,,,,,,,,,,,,,,,,,,,,,,,,,,,,,,
,,,,,,,,,,,,,,,,,60fefa8d26f46e84a295b223,,2022-02-12_17h39.10.845,lexical_decision_task_DD_L2,2021.2.3,Win32,58.8373735,,,,,,,,,,,0.6983,1,,,,,,,,,,,,,,m,1,0.6983,,,,,,,,0.232407424,-0.191666733,0,0,0,,0,160,160,63,1,MIRROR,HB,old,m,./images/MIRRORHB.png,,,,,,,,,,,,,,,,,,,,,,,,,,,,,,,,,,,
,,,,,,,,,,,,,,,,,60fefa8d26f46e84a295b223,,2022-02-12_17h39.10.845,lexical_decision_task_DD_L2,2021.2.3,Win32,58.8373735,,,,,,,,,,,0.4814,1,,,,,,,,,,,,,,m,1,0.4814,,,,,,,,0.232407424,-0.191666733,0,0,0,,0,161,161,56,1,PACKET,C,old,m,./images/PACKET.png,,,,,,,,,,,,,,,,,,,,,,,,,,,,,,,,,,,
,,,,,,,,,,,,,,,,,60fefa8d26f46e84a295b223,,2022-02-12_17h39.10.845,lexical_decision_task_DD_L2,2021.2.3,Win32,58.8373735,,,,,,,,,,,0.489,1,,,,,,,,,,,,,,z,1,0.489,,,,,,,,0.232407424,-0.191666733,0,0,0,,0,162,162,96,1,KEAMS,C,old,z,./images/KEAMS.png,,,,,,,,,,,,,,,,,,,,,,,,,,,,,,,,,,,
,,,,,,,,,,,,,,,,,60fefa8d26f46e84a295b223,,2022-02-12_17h39.10.845,lexical_decision_task_DD_L2,2021.2.3,Win32,58.8373735,,,,,,,,,,,0.5455,1,,,,,,,,,,,,,,z,1,0.5455,,,,,,,,0.232407424,-0.191666733,0,0,0,,0,163,163,145,1,LAMEL,HB,old,z,./images/LAMELHB.png,,,,,,,,,,,,,,,,,,,,,,,,,,,,,,,,,,,
,,,,,,,,,,,,,,,,,60fefa8d26f46e84a295b223,,2022-02-12_17h39.10.845,lexical_decision_task_DD_L2,2021.2.3,Win32,58.8373735,,,,,,,,,,,0.7093,1,,,,,,,,,,,,,,z,1,0.7093,,,,,,,,0.232407424,-0.191666733,0,0,0,,0,164,164,124,1,TUNCH,HB,old,z,./images/TUNCHHB.png,,,,,,,,,,,,,,,,,,,,,,,,,,,,,,,,,,,
,,,,,,,,,,,,,,,,,60fefa8d26f46e84a295b223,,2022-02-12_17h39.10.845,lexical_decision_task_DD_L2,2021.2.3,Win32,58.8373735,,,,,,,,,,,0.4642,1,,,,,,,,,,,,,,m,1,0.4642,,,,,,,,0.232407424,-0.191666733,0,0,0,,0,165,165,24,1,SCREW,HB,old,m,./images/SCREWHB.png,,,,,,,,,,,,,,,,,,,,,,,,,,,,,,,,,,,
,,,,,,,,,,,,,,,,,60fefa8d26f46e84a295b223,,2022-02-12_17h39.10.845,lexical_decision_task_DD_L2,2021.2.3,Win32,58.8373735,,,,,,,,,,,0.4255,1,,,,,,,,,,,,,,m,1,0.4255,,,,,,,,0.232407424,-0.191666733,0,0,0,,0,166,166,6,1,SQUARE,HB,old,m,./images/SQUAREHB.png,,,,,,,,,,,,,,,,,,,,,,,,,,,,,,,,,,,
,,,,,,,,,,,,,,,,,60fefa8d26f46e84a295b223,,2022-02-12_17h39.10.845,lexical_decision_task_DD_L2,2021.2.3,Win32,58.8373735,,,,,,,,,,,0.5482,1,,,,,,,,,,,,,,z,1,0.5482,,,,,,,,0.232407424,-0.191666733,0,0,0,,0,167,167,131,1,NACES,LB,old,z,./images/NACESLB.png,,,,,,,,,,,,,,,,,,,,,,,,,,,,,,,,,,,
,,,,,,,,,,,,,,,,,60fefa8d26f46e84a295b223,,2022-02-12_17h39.10.845,lexical_decision_task_DD_L2,2021.2.3,Win32,58.8373735,,,,,,,,,,,,,,,,,,,,,,,,,,,,,,,,,,,,,,,,,,,,,,,,How likely will it be that you will recognize the words presented very blurred on a scale of 0 (not likely) to 100 (most likely)?,,,,,-0.009259246,-0.389814828,1,0,0,jol_adv,1,6.4791,0,0,0,2,1,,,,,,,,,,,,,,,,,,,,,
,,,,,,,,,,,,,,,,,60fefa8d26f46e84a295b223,,2022-02-12_17h39.10.845,lexical_decision_task_DD_L2,2021.2.3,Win32,58.8373735,,,,,,,,,,,,,,,,,,,,,,,,,,,,,,,,,,,,,,,,,,,,,,,,How likely will it be that you will recognize the words presented clearly on a scale of 0 (not likely) to 100 (most likely)?,,,,,,,,,,,5,3.902,0,1,1,0,1,,,,,,,,,,,,,,,,,,,,,
,,,,,,,,,,,,,,,,,60fefa8d26f46e84a295b223,,2022-02-12_17h39.10.845,lexical_decision_task_DD_L2,2021.2.3,Win32,58.8373735,,,,,,,,,,,,,,,,,,,,,,,,,,,,,,,,,,,,,,,,,,,,,,,,How likely will it be that you will recognize the words presented slighly blurred on a scale of 0 (not likely) to 100 (most likely)?,,,,,,,,,,,3,3.2004,0,2,2,1,1,,,,,,,,,,,,,,,,,,,,,
space,4.0482,0.118518534,-0.171296306,0,0,0,,,,,,1,test,"In the next phase you will be presented with the words from the the first phase. Your job is to decide whether you remember seeing the word or not. If you remember seeing the word press ""old"" or type ""m"". If you do not remember seeing the word press ""new"" or type ""z"". Please press the space bar or click on continue to begin. ",,,60fefa8d26f46e84a295b223,,2022-02-12_17h39.10.845,lexical_decision_task_DD_L2,2021.2.3,Win32,58.8373735,,,,,,,,,,,,,,,,,,,,,,,,,,,,,,,,,,,,,,,,,,,,,,,,,,,,,,,,,,,,,,,,,,0,0,0,0,1,,,,,,,,,,,,,,,,
,,0.003703717,-0.369444457,1,0,0,,,,,,1,test,"In the next phase you will be presented with the words from the the first phase. Your job is to decide whether you remember seeing the word or not. If you remember seeing the word press ""old"" or type ""m"". If you do not remember seeing the word press ""new"" or type ""z"". Please press the space bar or click on continue to begin. ",,,60fefa8d26f46e84a295b223,,2022-02-12_17h39.10.845,lexical_decision_task_DD_L2,2021.2.3,Win32,58.8373735,,,,,,,,,,,,,,,,,,,,,,,,,,,,,,,,,,,,,,,,,,,,,,,,,,,,,,,,,,,,,,,,,,1,0,1,0,1,instr_done_button,,,,,,,,,,,,,,,
,,0.040740755,-0.382407421,1,0,0,,,,,,1,test,"In the next phase you will be presented with the words from the the first phase. Your job is to decide whether you remember seeing the word or not. If you remember seeing the word press ""old"" or type ""m"". If you do not remember seeing the word press ""new"" or type ""z"". Please press the space bar or click on continue to begin. ",,,60fefa8d26f46e84a295b223,,2022-02-12_17h39.10.845,lexical_decision_task_DD_L2,2021.2.3,Win32,58.8373735,,,,,,,,,,,,,,,,,,,,,,,,,,,,,,,,,,,,,,,,,,,,,,,,,,,,,,,,,,,,,,,,,,2,0,2,0,1,instr_done_button,,,,,,,,,,,,,,,
,,0.065740755,-0.388888902,1,0,0,,,,,,1,test,"In the next phase you will be presented with the words from the the first phase. Your job is to decide whether you remember seeing the word or not. If you remember seeing the word press ""old"" or type ""m"". If you do not remember seeing the word press ""new"" or type ""z"". Please press the space bar or click on continue to begin. ",,,60fefa8d26f46e84a295b223,,2022-02-12_17h39.10.845,lexical_decision_task_DD_L2,2021.2.3,Win32,58.8373735,,,,,,,,,,,,,,,,,,,,,,,,,,,,,,,,,,,,,,,,,,,,,,,,,,,,,,,,,,,,,,,,,,3,0,3,0,1,instr_done_button,,,,,,,,,,,,,,,
space,0.2836,0.065740755,-0.388888902,0,0,0,,,,,,1,test,"In the next phase you will be presented with the words from the the first phase. Your job is to decide whether you remember seeing the word or not. If you remember seeing the word press ""old"" or type ""m"". If you do not remember seeing the word press ""new"" or type ""z"". Please press the space bar or click on continue to begin. ",,,60fefa8d26f46e84a295b223,,2022-02-12_17h39.10.845,lexical_decision_task_DD_L2,2021.2.3,Win32,58.8373735,,,,,,,,,,,,,,,,,,,,,,,,,,,,,,,,,,,,,,,,,,,,,,,,,,,,,,,,,,,,,,,,,,4,0,4,0,1,,,,,,,,,,,,,,,,
,,,,,,,,,,,,,,,,,60fefa8d26f46e84a295b223,,2022-02-12_17h39.10.845,lexical_decision_task_DD_L2,2021.2.3,Win32,58.8373735,,,,,,,,,,,0.7578,1,,,,,,,,,,,,,,,,,,,,,,,,0.065740755,-0.388888902,0,0,0,,,,,,,KITTEN,HB,m,y,./images/KITTENHB.png,,,,,,,,,,,,,,,,,,,,,m,1,0.7578,,,,,,,,0,0,0,45,1
,,,,,,,,,,,,,,,,,60fefa8d26f46e84a295b223,,2022-02-12_17h39.10.845,lexical_decision_task_DD_L2,2021.2.3,Win32,58.8373735,,,,,,,,,,,0.4287,1,,,,,,,,,,,,,,,,,,,,,,,,0.065740755,-0.388888902,0,0,0,,,,,,,MIRROR,HB,m,y,./images/MIRRORHB.png,,,,,,,,,,,,,,,,,,,,,m,1,0.4287,,,,,,,,0,1,1,63,1
,,,,,,,,,,,,,,,,,60fefa8d26f46e84a295b223,,2022-02-12_17h39.10.845,lexical_decision_task_DD_L2,2021.2.3,Win32,58.8373735,,,,,,,,,,,0.5396,1,,,,,,,,,,,,,,,,,,,,,,,,0.065740755,-0.388888902,0,0,0,,,,,,,VALLEY,C,z,y,./images/VALLEY.png,,,,,,,,,,,,,,,,,,,,,z,1,0.5396,,,,,,,,0,2,2,152,1
,,,,,,,,,,,,,,,,,60fefa8d26f46e84a295b223,,2022-02-12_17h39.10.845,lexical_decision_task_DD_L2,2021.2.3,Win32,58.8373735,,,,,,,,,,,0.4319,0,,,,,,,,,,,,,,,,,,,,,,,,0.065740755,-0.388888902,0,0,0,,,,,,,MEDAL,C,z,y,./images/MEDAL.png,,,,,,,,,,,,,,,,,,,,,m,0,0.4319,,,,,,,,0,3,3,95,1
,,,,,,,,,,,,,,,,,60fefa8d26f46e84a295b223,,2022-02-12_17h39.10.845,lexical_decision_task_DD_L2,2021.2.3,Win32,58.8373735,,,,,,,,,,,0.4446,1,,,,,,,,,,,,,,,,,,,,,,,,0.065740755,-0.388888902,0,0,0,,,,,,,TWINS,HB,m,y,./images/TWINSHB.png,,,,,,,,,,,,,,,,,,,,,m,1,0.4446,,,,,,,,0,4,4,60,1
,,,,,,,,,,,,,,,,,60fefa8d26f46e84a295b223,,2022-02-12_17h39.10.845,lexical_decision_task_DD_L2,2021.2.3,Win32,58.8373735,,,,,,,,,,,0.598,1,,,,,,,,,,,,,,,,,,,,,,,,0.065740755,-0.388888902,0,0,0,,,,,,,SAUCE,HB,z,y,./images/SAUCEHB.png,,,,,,,,,,,,,,,,,,,,,z,1,0.598,,,,,,,,0,5,5,135,1
,,,,,,,,,,,,,,,,,60fefa8d26f46e84a295b223,,2022-02-12_17h39.10.845,lexical_decision_task_DD_L2,2021.2.3,Win32,58.8373735,,,,,,,,,,,0.7893,1,,,,,,,,,,,,,,,,,,,,,,,,0.065740755,-0.388888902,0,0,0,,,,,,,CHERRY,HB,z,y,./images/CHERRYHB.png,,,,,,,,,,,,,,,,,,,,,z,1,0.7893,,,,,,,,0,6,6,138,1
,,,,,,,,,,,,,,,,,60fefa8d26f46e84a295b223,,2022-02-12_17h39.10.845,lexical_decision_task_DD_L2,2021.2.3,Win32,58.8373735,,,,,,,,,,,0.5803,1,,,,,,,,,,,,,,,,,,,,,,,,0.065740755,-0.388888902,0,0,0,,,,,,,RHINO,HB,m,y,./images/RHINOHB.png,,,,,,,,,,,,,,,,,,,,,m,1,0.5803,,,,,,,,0,7,7,9,1
,,,,,,,,,,,,,,,,,60fefa8d26f46e84a295b223,,2022-02-12_17h39.10.845,lexical_decision_task_DD_L2,2021.2.3,Win32,58.8373735,,,,,,,,,,,0.4323,1,,,,,,,,,,,,,,,,,,,,,,,,0.065740755,-0.388888902,0,0,0,,,,,,,JELLY,LB,m,y,./images/JELLYLB.png,,,,,,,,,,,,,,,,,,,,,m,1,0.4323,,,,,,,,0,8,8,64,1
,,,,,,,,,,,,,,,,,60fefa8d26f46e84a295b223,,2022-02-12_17h39.10.845,lexical_decision_task_DD_L2,2021.2.3,Win32,58.8373735,,,,,,,,,,,0.4462,1,,,,,,,,,,,,,,,,,,,,,,,,0.065740755,-0.388888902,0,0,0,,,,,,,PURSE,C,m,y,./images/PURSE.png,,,,,,,,,,,,,,,,,,,,,m,1,0.4462,,,,,,,,0,9,9,62,1
,,,,,,,,,,,,,,,,,60fefa8d26f46e84a295b223,,2022-02-12_17h39.10.845,lexical_decision_task_DD_L2,2021.2.3,Win32,58.8373735,,,,,,,,,,,0.5791,1,,,,,,,,,,,,,,,,,,,,,,,,0.065740755,-0.388888902,0,0,0,,,,,,,STATUE,HB,z,y,./images/STATUEHB.png,,,,,,,,,,,,,,,,,,,,,z,1,0.5791,,,,,,,,0,10,10,150,1
,,,,,,,,,,,,,,,,,60fefa8d26f46e84a295b223,,2022-02-12_17h39.10.845,lexical_decision_task_DD_L2,2021.2.3,Win32,58.8373735,,,,,,,,,,,0.6044,1,,,,,,,,,,,,,,,,,,,,,,,,0.065740755,-0.388888902,0,0,0,,,,,,,RAZOR,LB,z,y,./images/RAZORLB.png,,,,,,,,,,,,,,,,,,,,,z,1,0.6044,,,,,,,,0,11,11,118,1
,,,,,,,,,,,,,,,,,60fefa8d26f46e84a295b223,,2022-02-12_17h39.10.845,lexical_decision_task_DD_L2,2021.2.3,Win32,58.8373735,,,,,,,,,,,0.4078,0,,,,,,,,,,,,,,,,,,,,,,,,0.065740755,-0.388888902,0,0,0,,,,,,,PIMPLE,C,m,y,./images/PIMPLE.png,,,,,,,,,,,,,,,,,,,,,z,0,0.4078,,,,,,,,0,12,12,71,1
,,,,,,,,,,,,,,,,,60fefa8d26f46e84a295b223,,2022-02-12_17h39.10.845,lexical_decision_task_DD_L2,2021.2.3,Win32,58.8373735,,,,,,,,,,,0.448,1,,,,,,,,,,,,,,,,,,,,,,,,0.065740755,-0.388888902,0,0,0,,,,,,,PENCE,LB,m,y,./images/PENCELB.png,,,,,,,,,,,,,,,,,,,,,m,1,0.448,,,,,,,,0,13,13,16,1
,,,,,,,,,,,,,,,,,60fefa8d26f46e84a295b223,,2022-02-12_17h39.10.845,lexical_decision_task_DD_L2,2021.2.3,Win32,58.8373735,,,,,,,,,,,0.4175,0,,,,,,,,,,,,,,,,,,,,,,,,0.065740755,-0.388888902,0,0,0,,,,,,,STREAM,C,z,y,./images/STREAM.png,,,,,,,,,,,,,,,,,,,,,m,0,0.4175,,,,,,,,0,14,14,125,1
,,,,,,,,,,,,,,,,,60fefa8d26f46e84a295b223,,2022-02-12_17h39.10.845,lexical_decision_task_DD_L2,2021.2.3,Win32,58.8373735,,,,,,,,,,,0.4846,1,,,,,,,,,,,,,,,,,,,,,,,,0.065740755,-0.388888902,0,0,0,,,,,,,PAINT,LB,m,y,./images/PAINTLB.png,,,,,,,,,,,,,,,,,,,,,m,1,0.4846,,,,,,,,0,15,15,7,1
,,,,,,,,,,,,,,,,,60fefa8d26f46e84a295b223,,2022-02-12_17h39.10.845,lexical_decision_task_DD_L2,2021.2.3,Win32,58.8373735,,,,,,,,,,,0.4954,0,,,,,,,,,,,,,,,,,,,,,,,,0.065740755,-0.388888902,0,0,0,,,,,,,BLOKE,HB,z,y,./images/BLOKEHB.png,,,,,,,,,,,,,,,,,,,,,m,0,0.4954,,,,,,,,0,16,16,96,1
,,,,,,,,,,,,,,,,,60fefa8d26f46e84a295b223,,2022-02-12_17h39.10.845,lexical_decision_task_DD_L2,2021.2.3,Win32,58.8373735,,,,,,,,,,,0.5797,1,,,,,,,,,,,,,,,,,,,,,,,,0.065740755,-0.388888902,0,0,0,,,,,,,GLOVE,LB,z,y,./images/GLOVELB.png,,,,,,,,,,,,,,,,,,,,,z,1,0.5797,,,,,,,,0,17,17,157,1
,,,,,,,,,,,,,,,,,60fefa8d26f46e84a295b223,,2022-02-12_17h39.10.845,lexical_decision_task_DD_L2,2021.2.3,Win32,58.8373735,,,,,,,,,,,0.3983,1,,,,,,,,,,,,,,,,,,,,,,,,0.065740755,-0.388888902,0,0,0,,,,,,,WEASEL,C,m,y,./images/WEASEL.png,,,,,,,,,,,,,,,,,,,,,m,1,0.3983,,,,,,,,0,18,18,80,1
,,,,,,,,,,,,,,,,,60fefa8d26f46e84a295b223,,2022-02-12_17h39.10.845,lexical_decision_task_DD_L2,2021.2.3,Win32,58.8373735,,,,,,,,,,,0.4727,0,,,,,,,,,,,,,,,,,,,,,,,,0.065740755,-0.388888902,0,0,0,,,,,,,MUMMY,LB,z,y,./images/MUMMYLB.png,,,,,,,,,,,,,,,,,,,,,m,0,0.4727,,,,,,,,0,19,19,130,1
,,,,,,,,,,,,,,,,,60fefa8d26f46e84a295b223,,2022-02-12_17h39.10.845,lexical_decision_task_DD_L2,2021.2.3,Win32,58.8373735,,,,,,,,,,,0.4406,0,,,,,,,,,,,,,,,,,,,,,,,,0.065740755,-0.388888902,0,0,0,,,,,,,FENCE,C,z,y,./images/FENCE.png,,,,,,,,,,,,,,,,,,,,,m,0,0.4406,,,,,,,,0,20,20,98,1
,,,,,,,,,,,,,,,,,60fefa8d26f46e84a295b223,,2022-02-12_17h39.10.845,lexical_decision_task_DD_L2,2021.2.3,Win32,58.8373735,,,,,,,,,,,0.4614,1,,,,,,,,,,,,,,,,,,,,,,,,0.065740755,-0.388888902,0,0,0,,,,,,,CANDLE,LB,m,y,./images/CANDLELB.png,,,,,,,,,,,,,,,,,,,,,m,1,0.4614,,,,,,,,0,21,21,61,1
,,,,,,,,,,,,,,,,,60fefa8d26f46e84a295b223,,2022-02-12_17h39.10.845,lexical_decision_task_DD_L2,2021.2.3,Win32,58.8373735,,,,,,,,,,,0.4501,1,,,,,,,,,,,,,,,,,,,,,,,,0.065740755,-0.388888902,0,0,0,,,,,,,CEMENT,C,m,y,./images/CEMENT.png,,,,,,,,,,,,,,,,,,,,,m,1,0.4501,,,,,,,,0,22,22,74,1
,,,,,,,,,,,,,,,,,60fefa8d26f46e84a295b223,,2022-02-12_17h39.10.845,lexical_decision_task_DD_L2,2021.2.3,Win32,58.8373735,,,,,,,,,,,0.5281,1,,,,,,,,,,,,,,,,,,,,,,,,0.065740755,-0.388888902,0,0,0,,,,,,,MIDGET,LB,z,y,./images/MIDGETLB.png,,,,,,,,,,,,,,,,,,,,,z,1,0.5281,,,,,,,,0,23,23,160,1
,,,,,,,,,,,,,,,,,60fefa8d26f46e84a295b223,,2022-02-12_17h39.10.845,lexical_decision_task_DD_L2,2021.2.3,Win32,58.8373735,,,,,,,,,,,0.4665,1,,,,,,,,,,,,,,,,,,,,,,,,0.065740755,-0.388888902,0,0,0,,,,,,,BUBBLE,C,z,y,./images/BUBBLE.png,,,,,,,,,,,,,,,,,,,,,z,1,0.4665,,,,,,,,0,24,24,155,1
,,,,,,,,,,,,,,,,,60fefa8d26f46e84a295b223,,2022-02-12_17h39.10.845,lexical_decision_task_DD_L2,2021.2.3,Win32,58.8373735,,,,,,,,,,,0.4824,1,,,,,,,,,,,,,,,,,,,,,,,,0.065740755,-0.388888902,0,0,0,,,,,,,CANYON,LB,m,y,./images/CANYONLB.png,,,,,,,,,,,,,,,,,,,,,m,1,0.4824,,,,,,,,0,25,25,34,1
,,,,,,,,,,,,,,,,,60fefa8d26f46e84a295b223,,2022-02-12_17h39.10.845,lexical_decision_task_DD_L2,2021.2.3,Win32,58.8373735,,,,,,,,,,,0.4716,0,,,,,,,,,,,,,,,,,,,,,,,,0.065740755,-0.388888902,0,0,0,,,,,,,BAKER,HB,z,y,./images/BAKERHB.png,,,,,,,,,,,,,,,,,,,,,m,0,0.4716,,,,,,,,0,26,26,147,1
,,,,,,,,,,,,,,,,,60fefa8d26f46e84a295b223,,2022-02-12_17h39.10.845,lexical_decision_task_DD_L2,2021.2.3,Win32,58.8373735,,,,,,,,,,,0.583,1,,,,,,,,,,,,,,,,,,,,,,,,0.065740755,-0.388888902,0,0,0,,,,,,,FLESH,HB,z,y,./images/FLESHHB.png,,,,,,,,,,,,,,,,,,,,,z,1,0.583,,,,,,,,0,27,27,108,1
,,,,,,,,,,,,,,,,,60fefa8d26f46e84a295b223,,2022-02-12_17h39.10.845,lexical_decision_task_DD_L2,2021.2.3,Win32,58.8373735,,,,,,,,,,,0.4902,1,,,,,,,,,,,,,,,,,,,,,,,,0.065740755,-0.388888902,0,0,0,,,,,,,BANNER,LB,m,y,./images/BANNERLB.png,,,,,,,,,,,,,,,,,,,,,m,1,0.4902,,,,,,,,0,28,28,52,1
,,,,,,,,,,,,,,,,,60fefa8d26f46e84a295b223,,2022-02-12_17h39.10.845,lexical_decision_task_DD_L2,2021.2.3,Win32,58.8373735,,,,,,,,,,,0.5625,0,,,,,,,,,,,,,,,,,,,,,,,,0.065740755,-0.388888902,0,0,0,,,,,,,QUILL,LB,m,y,./images/QUILLLB.png,,,,,,,,,,,,,,,,,,,,,z,0,0.5625,,,,,,,,0,29,29,31,1
,,,,,,,,,,,,,,,,,60fefa8d26f46e84a295b223,,2022-02-12_17h39.10.845,lexical_decision_task_DD_L2,2021.2.3,Win32,58.8373735,,,,,,,,,,,0.4394,0,,,,,,,,,,,,,,,,,,,,,,,,0.065740755,-0.388888902,0,0,0,,,,,,,GRAPE,LB,z,y,./images/GRAPELB.png,,,,,,,,,,,,,,,,,,,,,m,0,0.4394,,,,,,,,0,30,30,100,1
,,,,,,,,,,,,,,,,,60fefa8d26f46e84a295b223,,2022-02-12_17h39.10.845,lexical_decision_task_DD_L2,2021.2.3,Win32,58.8373735,,,,,,,,,,,0.6636,1,,,,,,,,,,,,,,,,,,,,,,,,0.065740755,-0.388888902,0,0,0,,,,,,,HOCKEY,C,z,y,./images/HOCKEY.png,,,,,,,,,,,,,,,,,,,,,z,1,0.6636,,,,,,,,0,31,31,116,1
,,,,,,,,,,,,,,,,,60fefa8d26f46e84a295b223,,2022-02-12_17h39.10.845,lexical_decision_task_DD_L2,2021.2.3,Win32,58.8373735,,,,,,,,,,,0.4632,0,,,,,,,,,,,,,,,,,,,,,,,,0.065740755,-0.388888902,0,0,0,,,,,,,SNAKE,LB,z,y,./images/SNAKELB.png,,,,,,,,,,,,,,,,,,,,,m,0,0.4632,,,,,,,,0,32,32,124,1
,,,,,,,,,,,,,,,,,60fefa8d26f46e84a295b223,,2022-02-12_17h39.10.845,lexical_decision_task_DD_L2,2021.2.3,Win32,58.8373735,,,,,,,,,,,0.4154,1,,,,,,,,,,,,,,,,,,,,,,,,0.065740755,-0.388888902,0,0,0,,,,,,,PLANK,LB,m,y,./images/PLANKLB.png,,,,,,,,,,,,,,,,,,,,,m,1,0.4154,,,,,,,,0,33,33,1,1
,,,,,,,,,,,,,,,,,60fefa8d26f46e84a295b223,,2022-02-12_17h39.10.845,lexical_decision_task_DD_L2,2021.2.3,Win32,58.8373735,,,,,,,,,,,0.4363,0,,,,,,,,,,,,,,,,,,,,,,,,0.065740755,-0.388888902,0,0,0,,,,,,,PISTOL,C,z,y,./images/PISTOL.png,,,,,,,,,,,,,,,,,,,,,m,0,0.4363,,,,,,,,0,34,34,113,1
,,,,,,,,,,,,,,,,,60fefa8d26f46e84a295b223,,2022-02-12_17h39.10.845,lexical_decision_task_DD_L2,2021.2.3,Win32,58.8373735,,,,,,,,,,,0.4623,1,,,,,,,,,,,,,,,,,,,,,,,,0.065740755,-0.388888902,0,0,0,,,,,,,PICKLE,C,m,y,./images/PICKLE.png,,,,,,,,,,,,,,,,,,,,,m,1,0.4623,,,,,,,,0,35,35,14,1
,,,,,,,,,,,,,,,,,60fefa8d26f46e84a295b223,,2022-02-12_17h39.10.845,lexical_decision_task_DD_L2,2021.2.3,Win32,58.8373735,,,,,,,,,,,0.4135,1,,,,,,,,,,,,,,,,,,,,,,,,0.065740755,-0.388888902,0,0,0,,,,,,,MOTOR,LB,m,y,./images/MOTORLB.png,,,,,,,,,,,,,,,,,,,,,m,1,0.4135,,,,,,,,0,36,36,13,1
,,,,,,,,,,,,,,,,,60fefa8d26f46e84a295b223,,2022-02-12_17h39.10.845,lexical_decision_task_DD_L2,2021.2.3,Win32,58.8373735,,,,,,,,,,,0.4321,0,,,,,,,,,,,,,,,,,,,,,,,,0.065740755,-0.388888902,0,0,0,,,,,,,SKIING,C,m,y,./images/SKIING.png,,,,,,,,,,,,,,,,,,,,,z,0,0.4321,,,,,,,,0,37,37,17,1
,,,,,,,,,,,,,,,,,60fefa8d26f46e84a295b223,,2022-02-12_17h39.10.845,lexical_decision_task_DD_L2,2021.2.3,Win32,58.8373735,,,,,,,,,,,0.6504,1,,,,,,,,,,,,,,,,,,,,,,,,0.065740755,-0.388888902,0,0,0,,,,,,,CRADLE,C,m,y,./images/CRADLE.png,,,,,,,,,,,,,,,,,,,,,m,1,0.6504,,,,,,,,0,38,38,20,1
,,,,,,,,,,,,,,,,,60fefa8d26f46e84a295b223,,2022-02-12_17h39.10.845,lexical_decision_task_DD_L2,2021.2.3,Win32,58.8373735,,,,,,,,,,,1.1824,1,,,,,,,,,,,,,,,,,,,,,,,,0.065740755,-0.388888902,0,0,0,,,,,,,TRIPOD,HB,m,y,./images/TRIPODHB.png,,,,,,,,,,,,,,,,,,,,,m,1,1.1824,,,,,,,,0,39,39,54,1
,,,,,,,,,,,,,,,,,60fefa8d26f46e84a295b223,,2022-02-12_17h39.10.845,lexical_decision_task_DD_L2,2021.2.3,Win32,58.8373735,,,,,,,,,,,0.6551,0,,,,,,,,,,,,,,,,,,,,,,,,0.065740755,-0.388888902,0,0,0,,,,,,,CLOWN,LB,z,y,./images/CLOWNLB.png,,,,,,,,,,,,,,,,,,,,,m,0,0.6551,,,,,,,,0,40,40,106,1
,,,,,,,,,,,,,,,,,60fefa8d26f46e84a295b223,,2022-02-12_17h39.10.845,lexical_decision_task_DD_L2,2021.2.3,Win32,58.8373735,,,,,,,,,,,0.6556,1,,,,,,,,,,,,,,,,,,,,,,,,0.065740755,-0.388888902,0,0,0,space,,,,,,PASTA,C,m,y,./images/PASTA.png,3.6619,,,,,,,,,,,,,,,,,,,,m,1,0.6556,,,,,,,,0,41,41,5,1
,,,,,,,,,,,,,,,,,60fefa8d26f46e84a295b223,,2022-02-12_17h39.10.845,lexical_decision_task_DD_L2,2021.2.3,Win32,58.8373735,,,,,,,,,,,0.4963,0,,,,,,,,,,,,,,,,,,,,,,,,0.065740755,-0.388888902,0,0,0,,,,,,,HAMMER,HB,z,y,./images/HAMMERHB.png,,,,,,,,,,,,,,,,,,,,,m,0,0.4963,,,,,,,,0,42,42,159,1
,,,,,,,,,,,,,,,,,60fefa8d26f46e84a295b223,,2022-02-12_17h39.10.845,lexical_decision_task_DD_L2,2021.2.3,Win32,58.8373735,,,,,,,,,,,0.4505,0,,,,,,,,,,,,,,,,,,,,,,,,0.065740755,-0.388888902,0,0,0,,,,,,,PLANET,C,z,y,./images/PLANET.png,,,,,,,,,,,,,,,,,,,,,m,0,0.4505,,,,,,,,0,43,43,164,1
,,,,,,,,,,,,,,,,,60fefa8d26f46e84a295b223,,2022-02-12_17h39.10.845,lexical_decision_task_DD_L2,2021.2.3,Win32,58.8373735,,,,,,,,,,,0.3,0,,,,,,,,,,,,,,,,,,,,,,,,0.065740755,-0.388888902,0,0,0,,,,,,,ARROW,HB,z,y,./images/ARROWHB.png,,,,,,,,,,,,,,,,,,,,,m,0,0.3,,,,,,,,0,44,44,153,1
,,,,,,,,,,,,,,,,,60fefa8d26f46e84a295b223,,2022-02-12_17h39.10.845,lexical_decision_task_DD_L2,2021.2.3,Win32,58.8373735,,,,,,,,,,,0.4168,0,,,,,,,,,,,,,,,,,,,,,,,,0.065740755,-0.388888902,0,0,0,,,,,,,COOKER,HB,m,y,./images/COOKERHB.png,,,,,,,,,,,,,,,,,,,,,z,0,0.4168,,,,,,,,0,45,45,69,1
,,,,,,,,,,,,,,,,,60fefa8d26f46e84a295b223,,2022-02-12_17h39.10.845,lexical_decision_task_DD_L2,2021.2.3,Win32,58.8373735,,,,,,,,,,,0.2875,0,,,,,,,,,,,,,,,,,,,,,,,,0.065740755,-0.388888902,0,0,0,,,,,,,SPINE,C,z,y,./images/SPINE.png,,,,,,,,,,,,,,,,,,,,,m,0,0.2875,,,,,,,,0,46,46,149,1
,,,,,,,,,,,,,,,,,60fefa8d26f46e84a295b223,,2022-02-12_17h39.10.845,lexical_decision_task_DD_L2,2021.2.3,Win32,58.8373735,,,,,,,,,,,0.3676,0,,,,,,,,,,,,,,,,,,,,,,,,0.065740755,-0.388888902,0,0,0,,,,,,,CRATER,HB,z,y,./images/CRATERHB.png,,,,,,,,,,,,,,,,,,,,,m,0,0.3676,,,,,,,,0,47,47,87,1
,,,,,,,,,,,,,,,,,60fefa8d26f46e84a295b223,,2022-02-12_17h39.10.845,lexical_decision_task_DD_L2,2021.2.3,Win32,58.8373735,,,,,,,,,,,0.3193,1,,,,,,,,,,,,,,,,,,,,,,,,0.065740755,-0.388888902,0,0,0,,,,,,,BABOON,LB,m,y,./images/BABOONLB.png,,,,,,,,,,,,,,,,,,,,,m,1,0.3193,,,,,,,,0,48,48,58,1
,,,,,,,,,,,,,,,,,60fefa8d26f46e84a295b223,,2022-02-12_17h39.10.845,lexical_decision_task_DD_L2,2021.2.3,Win32,58.8373735,,,,,,,,,,,0.3528,0,,,,,,,,,,,,,,,,,,,,,,,,0.065740755,-0.388888902,0,0,0,,,,,,,BASKET,C,z,y,./images/BASKET.png,,,,,,,,,,,,,,,,,,,,,m,0,0.3528,,,,,,,,0,49,49,128,1
,,,,,,,,,,,,,,,,,60fefa8d26f46e84a295b223,,2022-02-12_17h39.10.845,lexical_decision_task_DD_L2,2021.2.3,Win32,58.8373735,,,,,,,,,,,0.3393,1,,,,,,,,,,,,,,,,,,,,,,,,0.065740755,-0.388888902,0,0,0,,,,,,,BONNET,C,m,y,./images/BONNET.png,,,,,,,,,,,,,,,,,,,,,m,1,0.3393,,,,,,,,0,50,50,11,1
,,,,,,,,,,,,,,,,,60fefa8d26f46e84a295b223,,2022-02-12_17h39.10.845,lexical_decision_task_DD_L2,2021.2.3,Win32,58.8373735,,,,,,,,,,,0.4118,1,,,,,,,,,,,,,,,,,,,,,,,,0.065740755,-0.388888902,0,0,0,,,,,,,JAGUAR,HB,m,y,./images/JAGUARHB.png,,,,,,,,,,,,,,,,,,,,,m,1,0.4118,,,,,,,,0,51,51,18,1
,,,,,,,,,,,,,,,,,60fefa8d26f46e84a295b223,,2022-02-12_17h39.10.845,lexical_decision_task_DD_L2,2021.2.3,Win32,58.8373735,,,,,,,,,,,0.6061,0,,,,,,,,,,,,,,,,,,,,,,,,0.065740755,-0.388888902,0,0,0,,,,,,,DIVER,HB,z,y,./images/DIVERHB.png,,,,,,,,,,,,,,,,,,,,,m,0,0.6061,,,,,,,,0,52,52,93,1
,,,,,,,,,,,,,,,,,60fefa8d26f46e84a295b223,,2022-02-12_17h39.10.845,lexical_decision_task_DD_L2,2021.2.3,Win32,58.8373735,,,,,,,,,,,0.5073,1,,,,,,,,,,,,,,,,,,,,,,,,0.065740755,-0.388888902,0,0,0,,,,,,,SCREW,HB,m,y,./images/SCREWHB.png,,,,,,,,,,,,,,,,,,,,,m,1,0.5073,,,,,,,,0,53,53,24,1
,,,,,,,,,,,,,,,,,60fefa8d26f46e84a295b223,,2022-02-12_17h39.10.845,lexical_decision_task_DD_L2,2021.2.3,Win32,58.8373735,,,,,,,,,,,0.5688,1,,,,,,,,,,,,,,,,,,,,,,,,0.065740755,-0.388888902,0,0,0,,,,,,,DANCER,HB,z,y,./images/DANCERHB.png,,,,,,,,,,,,,,,,,,,,,z,1,0.5688,,,,,,,,0,54,54,105,1
,,,,,,,,,,,,,,,,,60fefa8d26f46e84a295b223,,2022-02-12_17h39.10.845,lexical_decision_task_DD_L2,2021.2.3,Win32,58.8373735,,,,,,,,,,,0.5656,1,,,,,,,,,,,,,,,,,,,,,,,,0.065740755,-0.388888902,0,0,0,,,,,,,ARTIST,LB,z,y,./images/ARTISTLB.png,,,,,,,,,,,,,,,,,,,,,z,1,0.5656,,,,,,,,0,55,55,145,1
,,,,,,,,,,,,,,,,,60fefa8d26f46e84a295b223,,2022-02-12_17h39.10.845,lexical_decision_task_DD_L2,2021.2.3,Win32,58.8373735,,,,,,,,,,,0.5339,0,,,,,,,,,,,,,,,,,,,,,,,,0.065740755,-0.388888902,0,0,0,,,,,,,CRUST,LB,m,y,./images/CRUSTLB.png,,,,,,,,,,,,,,,,,,,,,z,0,0.5339,,,,,,,,0,56,56,79,1
,,,,,,,,,,,,,,,,,60fefa8d26f46e84a295b223,,2022-02-12_17h39.10.845,lexical_decision_task_DD_L2,2021.2.3,Win32,58.8373735,,,,,,,,,,,0.4178,0,,,,,,,,,,,,,,,,,,,,,,,,0.065740755,-0.388888902,0,0,0,,,,,,,DRILL,HB,z,y,./images/DRILLHB.png,,,,,,,,,,,,,,,,,,,,,m,0,0.4178,,,,,,,,0,57,57,165,1
,,,,,,,,,,,,,,,,,60fefa8d26f46e84a295b223,,2022-02-12_17h39.10.845,lexical_decision_task_DD_L2,2021.2.3,Win32,58.8373735,,,,,,,,,,,0.5176,0,,,,,,,,,,,,,,,,,,,,,,,,0.065740755,-0.388888902,0,0,0,,,,,,,NOOSE,HB,m,y,./images/NOOSEHB.png,,,,,,,,,,,,,,,,,,,,,z,0,0.5176,,,,,,,,0,58,58,72,1
,,,,,,,,,,,,,,,,,60fefa8d26f46e84a295b223,,2022-02-12_17h39.10.845,lexical_decision_task_DD_L2,2021.2.3,Win32,58.8373735,,,,,,,,,,,0.6381,1,,,,,,,,,,,,,,,,,,,,,,,,0.065740755,-0.388888902,0,0,0,,,,,,,BOILER,HB,z,y,./images/BOILERHB.png,,,,,,,,,,,,,,,,,,,,,z,1,0.6381,,,,,,,,0,59,59,120,1
,,,,,,,,,,,,,,,,,60fefa8d26f46e84a295b223,,2022-02-12_17h39.10.845,lexical_decision_task_DD_L2,2021.2.3,Win32,58.8373735,,,,,,,,,,,0.4822,0,,,,,,,,,,,,,,,,,,,,,,,,0.065740755,-0.388888902,0,0,0,,,,,,,CURRY,HB,z,y,./images/CURRYHB.png,,,,,,,,,,,,,,,,,,,,,m,0,0.4822,,,,,,,,0,60,60,144,1
,,,,,,,,,,,,,,,,,60fefa8d26f46e84a295b223,,2022-02-12_17h39.10.845,lexical_decision_task_DD_L2,2021.2.3,Win32,58.8373735,,,,,,,,,,,0.5303,0,,,,,,,,,,,,,,,,,,,,,,,,0.065740755,-0.388888902,0,0,0,,,,,,,BROOM,HB,z,y,./images/BROOMHB.png,,,,,,,,,,,,,,,,,,,,,m,0,0.5303,,,,,,,,0,61,61,162,1
,,,,,,,,,,,,,,,,,60fefa8d26f46e84a295b223,,2022-02-12_17h39.10.845,lexical_decision_task_DD_L2,2021.2.3,Win32,58.8373735,,,,,,,,,,,0.5157,0,,,,,,,,,,,,,,,,,,,,,,,,0.065740755,-0.388888902,0,0,0,,,,,,,CASINO,LB,z,y,./images/CASINOLB.png,,,,,,,,,,,,,,,,,,,,,m,0,0.5157,,,,,,,,0,62,62,112,1
,,,,,,,,,,,,,,,,,60fefa8d26f46e84a295b223,,2022-02-12_17h39.10.845,lexical_decision_task_DD_L2,2021.2.3,Win32,58.8373735,,,,,,,,,,,0.4659,0,,,,,,,,,,,,,,,,,,,,,,,,0.065740755,-0.388888902,0,0,0,,,,,,,PILOT,C,z,y,./images/PILOT.png,,,,,,,,,,,,,,,,,,,,,m,0,0.4659,,,,,,,,0,63,63,134,1
,,,,,,,,,,,,,,,,,60fefa8d26f46e84a295b223,,2022-02-12_17h39.10.845,lexical_decision_task_DD_L2,2021.2.3,Win32,58.8373735,,,,,,,,,,,0.5001,1,,,,,,,,,,,,,,,,,,,,,,,,0.065740755,-0.388888902,0,0,0,,,,,,,LADDER,C,m,y,./images/LADDER.png,,,,,,,,,,,,,,,,,,,,,m,1,0.5001,,,,,,,,0,64,64,38,1
,,,,,,,,,,,,,,,,,60fefa8d26f46e84a295b223,,2022-02-12_17h39.10.845,lexical_decision_task_DD_L2,2021.2.3,Win32,58.8373735,,,,,,,,,,,0.4394,0,,,,,,,,,,,,,,,,,,,,,,,,0.065740755,-0.388888902,0,0,0,,,,,,,STAIN,HB,z,y,./images/STAINHB.png,,,,,,,,,,,,,,,,,,,,,m,0,0.4394,,,,,,,,0,65,65,90,1
,,,,,,,,,,,,,,,,,60fefa8d26f46e84a295b223,,2022-02-12_17h39.10.845,lexical_decision_task_DD_L2,2021.2.3,Win32,58.8373735,,,,,,,,,,,0.4517,1,,,,,,,,,,,,,,,,,,,,,,,,0.065740755,-0.388888902,0,0,0,,,,,,,MAGGOT,HB,m,y,./images/MAGGOTHB.png,,,,,,,,,,,,,,,,,,,,,m,1,0.4517,,,,,,,,0,66,66,33,1
,,,,,,,,,,,,,,,,,60fefa8d26f46e84a295b223,,2022-02-12_17h39.10.845,lexical_decision_task_DD_L2,2021.2.3,Win32,58.8373735,,,,,,,,,,,0.4621,1,,,,,,,,,,,,,,,,,,,,,,,,0.065740755,-0.388888902,0,0,0,,,,,,,SMOKER,C,m,y,./images/SMOKER.png,,,,,,,,,,,,,,,,,,,,,m,1,0.4621,,,,,,,,0,67,67,26,1
,,,,,,,,,,,,,,,,,60fefa8d26f46e84a295b223,,2022-02-12_17h39.10.845,lexical_decision_task_DD_L2,2021.2.3,Win32,58.8373735,,,,,,,,,,,0.5408,0,,,,,,,,,,,,,,,,,,,,,,,,0.065740755,-0.388888902,0,0,0,,,,,,,GRANNY,C,z,y,./images/GRANNY.png,,,,,,,,,,,,,,,,,,,,,m,0,0.5408,,,,,,,,0,68,68,104,1
,,,,,,,,,,,,,,,,,60fefa8d26f46e84a295b223,,2022-02-12_17h39.10.845,lexical_decision_task_DD_L2,2021.2.3,Win32,58.8373735,,,,,,,,,,,0.6399,1,,,,,,,,,,,,,,,,,,,,,,,,0.065740755,-0.388888902,0,0,0,,,,,,,SLOPE,HB,z,y,./images/SLOPEHB.png,,,,,,,,,,,,,,,,,,,,,z,1,0.6399,,,,,,,,0,69,69,114,1
,,,,,,,,,,,,,,,,,60fefa8d26f46e84a295b223,,2022-02-12_17h39.10.845,lexical_decision_task_DD_L2,2021.2.3,Win32,58.8373735,,,,,,,,,,,0.4377,1,,,,,,,,,,,,,,,,,,,,,,,,0.065740755,-0.388888902,0,0,0,,,,,,,BELLY,LB,m,y,./images/BELLYLB.png,,,,,,,,,,,,,,,,,,,,,m,1,0.4377,,,,,,,,0,70,70,10,1
,,,,,,,,,,,,,,,,,60fefa8d26f46e84a295b223,,2022-02-12_17h39.10.845,lexical_decision_task_DD_L2,2021.2.3,Win32,58.8373735,,,,,,,,,,,0.4842,1,,,,,,,,,,,,,,,,,,,,,,,,0.065740755,-0.388888902,0,0,0,,,,,,,TULIP,C,m,y,./images/TULIP.png,,,,,,,,,,,,,,,,,,,,,m,1,0.4842,,,,,,,,0,71,71,8,1
,,,,,,,,,,,,,,,,,60fefa8d26f46e84a295b223,,2022-02-12_17h39.10.845,lexical_decision_task_DD_L2,2021.2.3,Win32,58.8373735,,,,,,,,,,,0.6783,1,,,,,,,,,,,,,,,,,,,,,,,,0.065740755,-0.388888902,0,0,0,,,,,,,CHAIN,HB,z,y,./images/CHAINHB.png,,,,,,,,,,,,,,,,,,,,,z,1,0.6783,,,,,,,,0,72,72,126,1
,,,,,,,,,,,,,,,,,60fefa8d26f46e84a295b223,,2022-02-12_17h39.10.845,lexical_decision_task_DD_L2,2021.2.3,Win32,58.8373735,,,,,,,,,,,0.4283,0,,,,,,,,,,,,,,,,,,,,,,,,0.065740755,-0.388888902,0,0,0,,,,,,,BUTTER,HB,z,y,./images/BUTTERHB.png,,,,,,,,,,,,,,,,,,,,,m,0,0.4283,,,,,,,,0,73,73,111,1
,,,,,,,,,,,,,,,,,60fefa8d26f46e84a295b223,,2022-02-12_17h39.10.845,lexical_decision_task_DD_L2,2021.2.3,Win32,58.8373735,,,,,,,,,,,0.4569,1,,,,,,,,,,,,,,,,,,,,,,,,0.065740755,-0.388888902,0,0,0,,,,,,,MOSQUE,LB,m,y,./images/MOSQUELB.png,,,,,,,,,,,,,,,,,,,,,m,1,0.4569,,,,,,,,0,74,74,43,1
,,,,,,,,,,,,,,,,,60fefa8d26f46e84a295b223,,2022-02-12_17h39.10.845,lexical_decision_task_DD_L2,2021.2.3,Win32,58.8373735,,,,,,,,,,,0.4811,0,,,,,,,,,,,,,,,,,,,,,,,,0.065740755,-0.388888902,0,0,0,,,,,,,STEAK,LB,z,y,./images/STEAKLB.png,,,,,,,,,,,,,,,,,,,,,m,0,0.4811,,,,,,,,0,75,75,115,1
,,,,,,,,,,,,,,,,,60fefa8d26f46e84a295b223,,2022-02-12_17h39.10.845,lexical_decision_task_DD_L2,2021.2.3,Win32,58.8373735,,,,,,,,,,,0.5145,1,,,,,,,,,,,,,,,,,,,,,,,,0.065740755,-0.388888902,0,0,0,,,,,,,TOMATO,HB,m,y,./images/TOMATOHB.png,,,,,,,,,,,,,,,,,,,,,m,1,0.5145,,,,,,,,0,76,76,0,1
,,,,,,,,,,,,,,,,,60fefa8d26f46e84a295b223,,2022-02-12_17h39.10.845,lexical_decision_task_DD_L2,2021.2.3,Win32,58.8373735,,,,,,,,,,,0.413,0,,,,,,,,,,,,,,,,,,,,,,,,0.065740755,-0.388888902,0,0,0,,,,,,,WAGON,LB,z,y,./images/WAGONLB.png,,,,,,,,,,,,,,,,,,,,,m,0,0.413,,,,,,,,0,77,77,91,1
,,,,,,,,,,,,,,,,,60fefa8d26f46e84a295b223,,2022-02-12_17h39.10.845,lexical_decision_task_DD_L2,2021.2.3,Win32,58.8373735,,,,,,,,,,,0.6168,1,,,,,,,,,,,,,,,,,,,,,,,,0.065740755,-0.388888902,0,0,0,,,,,,,CLOTH,C,z,y,./images/CLOTH.png,,,,,,,,,,,,,,,,,,,,,z,1,0.6168,,,,,,,,0,78,78,107,1
,,,,,,,,,,,,,,,,,60fefa8d26f46e84a295b223,,2022-02-12_17h39.10.845,lexical_decision_task_DD_L2,2021.2.3,Win32,58.8373735,,,,,,,,,,,0.8002,0,,,,,,,,,,,,,,,,,,,,,,,,0.065740755,-0.388888902,0,0,0,,,,,,,POSTER,C,z,y,./images/POSTER.png,,,,,,,,,,,,,,,,,,,,,m,0,0.8002,,,,,,,,0,79,79,137,1
,,,,,,,,,,,,,,,,,60fefa8d26f46e84a295b223,,2022-02-12_17h39.10.845,lexical_decision_task_DD_L2,2021.2.3,Win32,58.8373735,,,,,,,,,,,0.3642,1,,,,,,,,,,,,,,,,,,,,,,,,0.065740755,-0.388888902,0,0,0,,,,,,,PACKET,C,m,y,./images/PACKET.png,,,,,,,,,,,,,,,,,,,,,m,1,0.3642,,,,,,,,0,80,80,56,1
,,,,,,,,,,,,,,,,,60fefa8d26f46e84a295b223,,2022-02-12_17h39.10.845,lexical_decision_task_DD_L2,2021.2.3,Win32,58.8373735,,,,,,,,,,,0.5004,1,,,,,,,,,,,,,,,,,,,,,,,,0.065740755,-0.388888902,0,0,0,,,,,,,WALRUS,C,m,y,./images/WALRUS.png,,,,,,,,,,,,,,,,,,,,,m,1,0.5004,,,,,,,,0,81,81,23,1
,,,,,,,,,,,,,,,,,60fefa8d26f46e84a295b223,,2022-02-12_17h39.10.845,lexical_decision_task_DD_L2,2021.2.3,Win32,58.8373735,,,,,,,,,,,0.4849,1,,,,,,,,,,,,,,,,,,,,,,,,0.065740755,-0.388888902,0,0,0,,,,,,,SPORT,HB,m,y,./images/SPORTHB.png,,,,,,,,,,,,,,,,,,,,,m,1,0.4849,,,,,,,,0,82,82,48,1
,,,,,,,,,,,,,,,,,60fefa8d26f46e84a295b223,,2022-02-12_17h39.10.845,lexical_decision_task_DD_L2,2021.2.3,Win32,58.8373735,,,,,,,,,,,0.3683,0,,,,,,,,,,,,,,,,,,,,,,,,0.065740755,-0.388888902,0,0,0,space,,,,,,DOUGH,LB,m,y,./images/DOUGHLB.png,2.163,,,,,,,,,,,,,,,,,,,,z,0,0.3683,,,,,,,,0,83,83,19,1
,,,,,,,,,,,,,,,,,60fefa8d26f46e84a295b223,,2022-02-12_17h39.10.845,lexical_decision_task_DD_L2,2021.2.3,Win32,58.8373735,,,,,,,,,,,0.4897,1,,,,,,,,,,,,,,,,,,,,,,,,0.065740755,-0.388888902,0,0,0,,,,,,,MALLET,C,m,y,./images/MALLET.png,,,,,,,,,,,,,,,,,,,,,m,1,0.4897,,,,,,,,0,84,84,50,1
,,,,,,,,,,,,,,,,,60fefa8d26f46e84a295b223,,2022-02-12_17h39.10.845,lexical_decision_task_DD_L2,2021.2.3,Win32,58.8373735,,,,,,,,,,,0.3451,1,,,,,,,,,,,,,,,,,,,,,,,,0.065740755,-0.388888902,0,0,0,,,,,,,SWING,LB,m,y,./images/SWINGLB.png,,,,,,,,,,,,,,,,,,,,,m,1,0.3451,,,,,,,,0,85,85,40,1
,,,,,,,,,,,,,,,,,60fefa8d26f46e84a295b223,,2022-02-12_17h39.10.845,lexical_decision_task_DD_L2,2021.2.3,Win32,58.8373735,,,,,,,,,,,0.34,1,,,,,,,,,,,,,,,,,,,,,,,,0.065740755,-0.388888902,0,0,0,,,,,,,WRIST,LB,m,y,./images/WRISTLB.png,,,,,,,,,,,,,,,,,,,,,m,1,0.34,,,,,,,,0,86,86,25,1
,,,,,,,,,,,,,,,,,60fefa8d26f46e84a295b223,,2022-02-12_17h39.10.845,lexical_decision_task_DD_L2,2021.2.3,Win32,58.8373735,,,,,,,,,,,0.6124,1,,,,,,,,,,,,,,,,,,,,,,,,0.065740755,-0.388888902,0,0,0,,,,,,,THROAT,HB,m,y,./images/THROATHB.png,,,,,,,,,,,,,,,,,,,,,m,1,0.6124,,,,,,,,0,87,87,36,1
,,,,,,,,,,,,,,,,,60fefa8d26f46e84a295b223,,2022-02-12_17h39.10.845,lexical_decision_task_DD_L2,2021.2.3,Win32,58.8373735,,,,,,,,,,,0.1059,0,,,,,,,,,,,,,,,,,,,,,,,,0.065740755,-0.388888902,0,0,0,,,,,,,MOOSE,HB,m,y,./images/MOOSEHB.png,,,,,,,,,,,,,,,,,,,,,z,0,0.1059,,,,,,,,0,88,88,57,1
,,,,,,,,,,,,,,,,,60fefa8d26f46e84a295b223,,2022-02-12_17h39.10.845,lexical_decision_task_DD_L2,2021.2.3,Win32,58.8373735,,,,,,,,,,,0.3618,1,,,,,,,,,,,,,,,,,,,,,,,,0.065740755,-0.388888902,0,0,0,,,,,,,FARMER,C,m,y,./images/FARMER.png,,,,,,,,,,,,,,,,,,,,,m,1,0.3618,,,,,,,,0,89,89,65,1
,,,,,,,,,,,,,,,,,60fefa8d26f46e84a295b223,,2022-02-12_17h39.10.845,lexical_decision_task_DD_L2,2021.2.3,Win32,58.8373735,,,,,,,,,,,0.3165,0,,,,,,,,,,,,,,,,,,,,,,,,0.065740755,-0.388888902,0,0,0,,,,,,,ENGINE,C,z,y,./images/ENGINE.png,,,,,,,,,,,,,,,,,,,,,m,0,0.3165,,,,,,,,0,90,90,122,1
,,,,,,,,,,,,,,,,,60fefa8d26f46e84a295b223,,2022-02-12_17h39.10.845,lexical_decision_task_DD_L2,2021.2.3,Win32,58.8373735,,,,,,,,,,,0.4844,1,,,,,,,,,,,,,,,,,,,,,,,,0.065740755,-0.388888902,0,0,0,,,,,,,WHISKY,C,z,y,./images/WHISKY.png,,,,,,,,,,,,,,,,,,,,,z,1,0.4844,,,,,,,,0,91,91,167,1
,,,,,,,,,,,,,,,,,60fefa8d26f46e84a295b223,,2022-02-12_17h39.10.845,lexical_decision_task_DD_L2,2021.2.3,Win32,58.8373735,,,,,,,,,,,0.4704,1,,,,,,,,,,,,,,,,,,,,,,,,0.065740755,-0.388888902,0,0,0,,,,,,,CLIFF,C,z,y,./images/CLIFF.png,,,,,,,,,,,,,,,,,,,,,z,1,0.4704,,,,,,,,0,92,92,92,1
,,,,,,,,,,,,,,,,,60fefa8d26f46e84a295b223,,2022-02-12_17h39.10.845,lexical_decision_task_DD_L2,2021.2.3,Win32,58.8373735,,,,,,,,,,,0.4126,0,,,,,,,,,,,,,,,,,,,,,,,,0.065740755,-0.388888902,0,0,0,,,,,,,COLLAR,HB,z,y,./images/COLLARHB.png,,,,,,,,,,,,,,,,,,,,,m,0,0.4126,,,,,,,,0,93,93,99,1
,,,,,,,,,,,,,,,,,60fefa8d26f46e84a295b223,,2022-02-12_17h39.10.845,lexical_decision_task_DD_L2,2021.2.3,Win32,58.8373735,,,,,,,,,,,0.4113,1,,,,,,,,,,,,,,,,,,,,,,,,0.065740755,-0.388888902,0,0,0,,,,,,,SQUARE,HB,m,y,./images/SQUAREHB.png,,,,,,,,,,,,,,,,,,,,,m,1,0.4113,,,,,,,,0,94,94,6,1
,,,,,,,,,,,,,,,,,60fefa8d26f46e84a295b223,,2022-02-12_17h39.10.845,lexical_decision_task_DD_L2,2021.2.3,Win32,58.8373735,,,,,,,,,,,0.487,0,,,,,,,,,,,,,,,,,,,,,,,,0.065740755,-0.388888902,0,0,0,,,,,,,ALLEY,LB,z,y,./images/ALLEYLB.png,,,,,,,,,,,,,,,,,,,,,m,0,0.487,,,,,,,,0,95,95,139,1
,,,,,,,,,,,,,,,,,60fefa8d26f46e84a295b223,,2022-02-12_17h39.10.845,lexical_decision_task_DD_L2,2021.2.3,Win32,58.8373735,,,,,,,,,,,0.4233,0,,,,,,,,,,,,,,,,,,,,,,,,0.065740755,-0.388888902,0,0,0,,,,,,,BUNNY,LB,z,y,./images/BUNNYLB.png,,,,,,,,,,,,,,,,,,,,,m,0,0.4233,,,,,,,,0,96,96,97,1
,,,,,,,,,,,,,,,,,60fefa8d26f46e84a295b223,,2022-02-12_17h39.10.845,lexical_decision_task_DD_L2,2021.2.3,Win32,58.8373735,,,,,,,,,,,0.4644,1,,,,,,,,,,,,,,,,,,,,,,,,0.065740755,-0.388888902,0,0,0,,,,,,,CRUMB,C,m,y,./images/CRUMB.png,,,,,,,,,,,,,,,,,,,,,m,1,0.4644,,,,,,,,0,97,97,29,1
,,,,,,,,,,,,,,,,,60fefa8d26f46e84a295b223,,2022-02-12_17h39.10.845,lexical_decision_task_DD_L2,2021.2.3,Win32,58.8373735,,,,,,,,,,,0.63,1,,,,,,,,,,,,,,,,,,,,,,,,0.065740755,-0.388888902,0,0,0,,,,,,,BERRY,C,m,y,./images/BERRY.png,,,,,,,,,,,,,,,,,,,,,m,1,0.63,,,,,,,,0,98,98,47,1
,,,,,,,,,,,,,,,,,60fefa8d26f46e84a295b223,,2022-02-12_17h39.10.845,lexical_decision_task_DD_L2,2021.2.3,Win32,58.8373735,,,,,,,,,,,0.5224,1,,,,,,,,,,,,,,,,,,,,,,,,0.065740755,-0.388888902,0,0,0,,,,,,,COUCH,C,m,y,./images/COUCH.png,,,,,,,,,,,,,,,,,,,,,m,1,0.5224,,,,,,,,0,99,99,77,1
,,,,,,,,,,,,,,,,,60fefa8d26f46e84a295b223,,2022-02-12_17h39.10.845,lexical_decision_task_DD_L2,2021.2.3,Win32,58.8373735,,,,,,,,,,,0.5124,0,,,,,,,,,,,,,,,,,,,,,,,,0.065740755,-0.388888902,0,0,0,,,,,,,STOOL,LB,z,y,./images/STOOLLB.png,,,,,,,,,,,,,,,,,,,,,m,0,0.5124,,,,,,,,0,100,100,127,1
,,,,,,,,,,,,,,,,,60fefa8d26f46e84a295b223,,2022-02-12_17h39.10.845,lexical_decision_task_DD_L2,2021.2.3,Win32,58.8373735,,,,,,,,,,,0.7297,0,,,,,,,,,,,,,,,,,,,,,,,,0.065740755,-0.388888902,0,0,0,,,,,,,BAMBOO,C,z,y,./images/BAMBOO.png,,,,,,,,,,,,,,,,,,,,,m,0,0.7297,,,,,,,,0,101,101,89,1
,,,,,,,,,,,,,,,,,60fefa8d26f46e84a295b223,,2022-02-12_17h39.10.845,lexical_decision_task_DD_L2,2021.2.3,Win32,58.8373735,,,,,,,,,,,0.6358,1,,,,,,,,,,,,,,,,,,,,,,,,0.065740755,-0.388888902,0,0,0,,,,,,,DESERT,LB,z,y,./images/DESERTLB.png,,,,,,,,,,,,,,,,,,,,,z,1,0.6358,,,,,,,,0,102,102,136,1
,,,,,,,,,,,,,,,,,60fefa8d26f46e84a295b223,,2022-02-12_17h39.10.845,lexical_decision_task_DD_L2,2021.2.3,Win32,58.8373735,,,,,,,,,,,0.5498,1,,,,,,,,,,,,,,,,,,,,,,,,0.065740755,-0.388888902,0,0,0,,,,,,,SWEAT,HB,m,y,./images/SWEATHB.png,,,,,,,,,,,,,,,,,,,,,m,1,0.5498,,,,,,,,0,103,103,66,1
,,,,,,,,,,,,,,,,,60fefa8d26f46e84a295b223,,2022-02-12_17h39.10.845,lexical_decision_task_DD_L2,2021.2.3,Win32,58.8373735,,,,,,,,,,,0.5179,1,,,,,,,,,,,,,,,,,,,,,,,,0.065740755,-0.388888902,0,0,0,,,,,,,BIRTH,LB,m,y,./images/BIRTHLB.png,,,,,,,,,,,,,,,,,,,,,m,1,0.5179,,,,,,,,0,104,104,37,1
,,,,,,,,,,,,,,,,,60fefa8d26f46e84a295b223,,2022-02-12_17h39.10.845,lexical_decision_task_DD_L2,2021.2.3,Win32,58.8373735,,,,,,,,,,,0.6547,1,,,,,,,,,,,,,,,,,,,,,,,,0.065740755,-0.388888902,0,0,0,,,,,,,JUMPER,C,z,y,./images/JUMPER.png,,,,,,,,,,,,,,,,,,,,,z,1,0.6547,,,,,,,,0,105,105,158,1
,,,,,,,,,,,,,,,,,60fefa8d26f46e84a295b223,,2022-02-12_17h39.10.845,lexical_decision_task_DD_L2,2021.2.3,Win32,58.8373735,,,,,,,,,,,0.5227,1,,,,,,,,,,,,,,,,,,,,,,,,0.065740755,-0.388888902,0,0,0,,,,,,,LITTER,HB,m,y,./images/LITTERHB.png,,,,,,,,,,,,,,,,,,,,,m,1,0.5227,,,,,,,,0,106,106,78,1
,,,,,,,,,,,,,,,,,60fefa8d26f46e84a295b223,,2022-02-12_17h39.10.845,lexical_decision_task_DD_L2,2021.2.3,Win32,58.8373735,,,,,,,,,,,0.9005,1,,,,,,,,,,,,,,,,,,,,,,,,0.065740755,-0.388888902,0,0,0,,,,,,,FERRY,HB,z,y,./images/FERRYHB.png,,,,,,,,,,,,,,,,,,,,,z,1,0.9005,,,,,,,,0,107,107,141,1
,,,,,,,,,,,,,,,,,60fefa8d26f46e84a295b223,,2022-02-12_17h39.10.845,lexical_decision_task_DD_L2,2021.2.3,Win32,58.8373735,,,,,,,,,,,0.5624,1,,,,,,,,,,,,,,,,,,,,,,,,0.065740755,-0.388888902,0,0,0,,,,,,,MELON,LB,m,y,./images/MELONLB.png,,,,,,,,,,,,,,,,,,,,,m,1,0.5624,,,,,,,,0,108,108,22,1
,,,,,,,,,,,,,,,,,60fefa8d26f46e84a295b223,,2022-02-12_17h39.10.845,lexical_decision_task_DD_L2,2021.2.3,Win32,58.8373735,,,,,,,,,,,0.6908,0,,,,,,,,,,,,,,,,,,,,,,,,0.065740755,-0.388888902,0,0,0,,,,,,,PARCEL,HB,z,y,./images/PARCELHB.png,,,,,,,,,,,,,,,,,,,,,m,0,0.6908,,,,,,,,0,109,109,102,1
,,,,,,,,,,,,,,,,,60fefa8d26f46e84a295b223,,2022-02-12_17h39.10.845,lexical_decision_task_DD_L2,2021.2.3,Win32,58.8373735,,,,,,,,,,,0.4996,1,,,,,,,,,,,,,,,,,,,,,,,,0.065740755,-0.388888902,0,0,0,,,,,,,FALCON,LB,m,y,./images/FALCONLB.png,,,,,,,,,,,,,,,,,,,,,m,1,0.4996,,,,,,,,0,110,110,28,1
,,,,,,,,,,,,,,,,,60fefa8d26f46e84a295b223,,2022-02-12_17h39.10.845,lexical_decision_task_DD_L2,2021.2.3,Win32,58.8373735,,,,,,,,,,,0.5042,0,,,,,,,,,,,,,,,,,,,,,,,,0.065740755,-0.388888902,0,0,0,,,,,,,BANANA,LB,z,y,./images/BANANALB.png,,,,,,,,,,,,,,,,,,,,,m,0,0.5042,,,,,,,,0,111,111,154,1
,,,,,,,,,,,,,,,,,60fefa8d26f46e84a295b223,,2022-02-12_17h39.10.845,lexical_decision_task_DD_L2,2021.2.3,Win32,58.8373735,,,,,,,,,,,0.4961,1,,,,,,,,,,,,,,,,,,,,,,,,0.065740755,-0.388888902,0,0,0,,,,,,,STRING,C,m,y,./images/STRING.png,,,,,,,,,,,,,,,,,,,,,m,1,0.4961,,,,,,,,0,112,112,41,1
,,,,,,,,,,,,,,,,,60fefa8d26f46e84a295b223,,2022-02-12_17h39.10.845,lexical_decision_task_DD_L2,2021.2.3,Win32,58.8373735,,,,,,,,,,,0.5285,1,,,,,,,,,,,,,,,,,,,,,,,,0.065740755,-0.388888902,0,0,0,,,,,,,BOXER,LB,z,y,./images/BOXERLB.png,,,,,,,,,,,,,,,,,,,,,z,1,0.5285,,,,,,,,0,113,113,88,1
,,,,,,,,,,,,,,,,,60fefa8d26f46e84a295b223,,2022-02-12_17h39.10.845,lexical_decision_task_DD_L2,2021.2.3,Win32,58.8373735,,,,,,,,,,,0.6453,0,,,,,,,,,,,,,,,,,,,,,,,,0.065740755,-0.388888902,0,0,0,,,,,,,MUFFIN,LB,m,y,./images/MUFFINLB.png,,,,,,,,,,,,,,,,,,,,,z,0,0.6453,,,,,,,,0,114,114,55,1
,,,,,,,,,,,,,,,,,60fefa8d26f46e84a295b223,,2022-02-12_17h39.10.845,lexical_decision_task_DD_L2,2021.2.3,Win32,58.8373735,,,,,,,,,,,0.5174,1,,,,,,,,,,,,,,,,,,,,,,,,0.065740755,-0.388888902,0,0,0,,,,,,,URINE,LB,m,y,./images/URINELB.png,,,,,,,,,,,,,,,,,,,,,m,1,0.5174,,,,,,,,0,115,115,70,1
,,,,,,,,,,,,,,,,,60fefa8d26f46e84a295b223,,2022-02-12_17h39.10.845,lexical_decision_task_DD_L2,2021.2.3,Win32,58.8373735,,,,,,,,,,,0.4947,0,,,,,,,,,,,,,,,,,,,,,,,,0.065740755,-0.388888902,0,0,0,,,,,,,PARADE,C,z,y,./images/PARADE.png,,,,,,,,,,,,,,,,,,,,,m,0,0.4947,,,,,,,,0,116,116,101,1
,,,,,,,,,,,,,,,,,60fefa8d26f46e84a295b223,,2022-02-12_17h39.10.845,lexical_decision_task_DD_L2,2021.2.3,Win32,58.8373735,,,,,,,,,,,0.5859,1,,,,,,,,,,,,,,,,,,,,,,,,0.065740755,-0.388888902,0,0,0,,,,,,,JUNGLE,C,m,y,./images/JUNGLE.png,,,,,,,,,,,,,,,,,,,,,m,1,0.5859,,,,,,,,0,117,117,83,1
,,,,,,,,,,,,,,,,,60fefa8d26f46e84a295b223,,2022-02-12_17h39.10.845,lexical_decision_task_DD_L2,2021.2.3,Win32,58.8373735,,,,,,,,,,,0.4027,0,,,,,,,,,,,,,,,,,,,,,,,,0.065740755,-0.388888902,0,0,0,,,,,,,PEBBLE,LB,z,y,./images/PEBBLELB.png,,,,,,,,,,,,,,,,,,,,,m,0,0.4027,,,,,,,,0,118,118,166,1
,,,,,,,,,,,,,,,,,60fefa8d26f46e84a295b223,,2022-02-12_17h39.10.845,lexical_decision_task_DD_L2,2021.2.3,Win32,58.8373735,,,,,,,,,,,0.4975,1,,,,,,,,,,,,,,,,,,,,,,,,0.065740755,-0.388888902,0,0,0,,,,,,,SHIELD,HB,z,y,./images/SHIELDHB.png,,,,,,,,,,,,,,,,,,,,,z,1,0.4975,,,,,,,,0,119,119,132,1
,,,,,,,,,,,,,,,,,60fefa8d26f46e84a295b223,,2022-02-12_17h39.10.845,lexical_decision_task_DD_L2,2021.2.3,Win32,58.8373735,,,,,,,,,,,0.775,1,,,,,,,,,,,,,,,,,,,,,,,,0.065740755,-0.388888902,0,0,0,,,,,,,BRIDE,LB,z,y,./images/BRIDELB.png,,,,,,,,,,,,,,,,,,,,,z,1,0.775,,,,,,,,0,120,120,148,1
,,,,,,,,,,,,,,,,,60fefa8d26f46e84a295b223,,2022-02-12_17h39.10.845,lexical_decision_task_DD_L2,2021.2.3,Win32,58.8373735,,,,,,,,,,,0.5301,0,,,,,,,,,,,,,,,,,,,,,,,,0.065740755,-0.388888902,0,0,0,,,,,,,GREASE,HB,m,y,./images/GREASEHB.png,,,,,,,,,,,,,,,,,,,,,z,0,0.5301,,,,,,,,0,121,121,15,1
,,,,,,,,,,,,,,,,,60fefa8d26f46e84a295b223,,2022-02-12_17h39.10.845,lexical_decision_task_DD_L2,2021.2.3,Win32,58.8373735,,,,,,,,,,,0.5565,1,,,,,,,,,,,,,,,,,,,,,,,,0.065740755,-0.388888902,0,0,0,,,,,,,ATTIC,HB,m,y,./images/ATTICHB.png,,,,,,,,,,,,,,,,,,,,,m,1,0.5565,,,,,,,,0,122,122,27,1
,,,,,,,,,,,,,,,,,60fefa8d26f46e84a295b223,,2022-02-12_17h39.10.845,lexical_decision_task_DD_L2,2021.2.3,Win32,58.8373735,,,,,,,,,,,0.5283,1,,,,,,,,,,,,,,,,,,,,,,,,0.065740755,-0.388888902,0,0,0,,,,,,,BARREL,C,m,y,./images/BARREL.png,,,,,,,,,,,,,,,,,,,,,m,1,0.5283,,,,,,,,0,123,123,32,1
,,,,,,,,,,,,,,,,,60fefa8d26f46e84a295b223,,2022-02-12_17h39.10.845,lexical_decision_task_DD_L2,2021.2.3,Win32,58.8373735,,,,,,,,,,,0.6793,1,,,,,,,,,,,,,,,,,,,,,,,,0.065740755,-0.388888902,0,0,0,,,,,,,RULER,LB,z,y,./images/RULERLB.png,,,,,,,,,,,,,,,,,,,,,z,1,0.6793,,,,,,,,0,124,124,163,1
,,,,,,,,,,,,,,,,,60fefa8d26f46e84a295b223,,2022-02-12_17h39.10.845,lexical_decision_task_DD_L2,2021.2.3,Win32,58.8373735,,,,,,,,,,,0.4917,1,,,,,,,,,,,,,,,,,,,,,,,,0.065740755,-0.388888902,0,0,0,space,,,,,,LLAMA,C,z,y,./images/LLAMA.png,0.7305,,,,,,,,,,,,,,,,,,,,z,1,0.4917,,,,,,,,0,125,125,119,1
,,,,,,,,,,,,,,,,,60fefa8d26f46e84a295b223,,2022-02-12_17h39.10.845,lexical_decision_task_DD_L2,2021.2.3,Win32,58.8373735,,,,,,,,,,,0.905,1,,,,,,,,,,,,,,,,,,,,,,,,0.065740755,-0.388888902,0,0,0,,,,,,,CANDY,HB,z,y,./images/CANDYHB.png,,,,,,,,,,,,,,,,,,,,,z,1,0.905,,,,,,,,0,126,126,123,1
,,,,,,,,,,,,,,,,,60fefa8d26f46e84a295b223,,2022-02-12_17h39.10.845,lexical_decision_task_DD_L2,2021.2.3,Win32,58.8373735,,,,,,,,,,,0.6057,1,,,,,,,,,,,,,,,,,,,,,,,,0.065740755,-0.388888902,0,0,0,,,,,,,DONKEY,LB,z,y,./images/DONKEYLB.png,,,,,,,,,,,,,,,,,,,,,z,1,0.6057,,,,,,,,0,127,127,103,1
,,,,,,,,,,,,,,,,,60fefa8d26f46e84a295b223,,2022-02-12_17h39.10.845,lexical_decision_task_DD_L2,2021.2.3,Win32,58.8373735,,,,,,,,,,,0.7125,1,,,,,,,,,,,,,,,,,,,,,,,,0.065740755,-0.388888902,0,0,0,,,,,,,BISHOP,LB,z,y,./images/BISHOPLB.png,,,,,,,,,,,,,,,,,,,,,z,1,0.7125,,,,,,,,0,128,128,133,1
,,,,,,,,,,,,,,,,,60fefa8d26f46e84a295b223,,2022-02-12_17h39.10.845,lexical_decision_task_DD_L2,2021.2.3,Win32,58.8373735,,,,,,,,,,,0.6165,1,,,,,,,,,,,,,,,,,,,,,,,,0.065740755,-0.388888902,0,0,0,,,,,,,WHEEL,C,z,y,./images/WHEEL.png,,,,,,,,,,,,,,,,,,,,,z,1,0.6165,,,,,,,,0,129,129,161,1
,,,,,,,,,,,,,,,,,60fefa8d26f46e84a295b223,,2022-02-12_17h39.10.845,lexical_decision_task_DD_L2,2021.2.3,Win32,58.8373735,,,,,,,,,,,0.566,1,,,,,,,,,,,,,,,,,,,,,,,,0.065740755,-0.388888902,0,0,0,,,,,,,TORCH,C,m,y,./images/TORCH.png,,,,,,,,,,,,,,,,,,,,,m,1,0.566,,,,,,,,0,130,130,68,1
,,,,,,,,,,,,,,,,,60fefa8d26f46e84a295b223,,2022-02-12_17h39.10.845,lexical_decision_task_DD_L2,2021.2.3,Win32,58.8373735,,,,,,,,,,,0.7302,0,,,,,,,,,,,,,,,,,,,,,,,,0.065740755,-0.388888902,0,0,0,,,,,,,CLOUD,C,z,y,./images/CLOUD.png,,,,,,,,,,,,,,,,,,,,,m,0,0.7302,,,,,,,,0,131,131,110,1
,,,,,,,,,,,,,,,,,60fefa8d26f46e84a295b223,,2022-02-12_17h39.10.845,lexical_decision_task_DD_L2,2021.2.3,Win32,58.8373735,,,,,,,,,,,0.5128,1,,,,,,,,,,,,,,,,,,,,,,,,0.065740755,-0.388888902,0,0,0,,,,,,,FLASK,HB,z,y,./images/FLASKHB.png,,,,,,,,,,,,,,,,,,,,,z,1,0.5128,,,,,,,,0,132,132,156,1
,,,,,,,,,,,,,,,,,60fefa8d26f46e84a295b223,,2022-02-12_17h39.10.845,lexical_decision_task_DD_L2,2021.2.3,Win32,58.8373735,,,,,,,,,,,0.5355,1,,,,,,,,,,,,,,,,,,,,,,,,0.065740755,-0.388888902,0,0,0,,,,,,,HEATER,C,z,y,./images/HEATER.png,,,,,,,,,,,,,,,,,,,,,z,1,0.5355,,,,,,,,0,133,133,140,1
,,,,,,,,,,,,,,,,,60fefa8d26f46e84a295b223,,2022-02-12_17h39.10.845,lexical_decision_task_DD_L2,2021.2.3,Win32,58.8373735,,,,,,,,,,,0.5624,1,,,,,,,,,,,,,,,,,,,,,,,,0.065740755,-0.388888902,0,0,0,,,,,,,STORM,HB,m,y,./images/STORMHB.png,,,,,,,,,,,,,,,,,,,,,m,1,0.5624,,,,,,,,0,134,134,30,1
