key_resp.keys,instr_done_touch.x,instr_done_touch.y,instr_done_touch.leftButton,instr_done_touch.midButton,instr_done_touch.rightButton,instr_done_touch.clicked_name,instruction_pages.thisRepN,instruction_pages.thisTrialN,instruction_pages.thisN,instruction_pages.thisIndex,instruction_pages.ran,pageN,phase,instruct_text,has_image,instruct_image,participant,age,date,expName,psychopyVersion,OS,frameRate,response.keys,response.corr,touch_resp.x,touch_resp.y,touch_resp.leftButton,touch_resp.midButton,touch_resp.rightButton,touch_resp.time,touch_resp.clicked_name,rt,corr,practrials.thisRepN,practrials.thisTrialN,practrials.thisN,practrials.thisIndex,practrials.ran,TrialID,Target,corrAns,end_of_practice_trials_pages.thisRepN,end_of_practice_trials_pages.thisTrialN,end_of_practice_trials_pages.thisN,end_of_practice_trials_pages.thisIndex,end_of_practice_trials_pages.ran,key_resp_2.keys,key_resp_2.corr,targ_click.x,targ_click.y,targ_click.leftButton,targ_click.midButton,targ_click.rightButton,targ_click.time,targ_click.clicked_name,break_done_touch.x,break_done_touch.y,break_done_touch.leftButton,break_done_touch.midButton,break_done_touch.rightButton,break_done_keyboard.keys,maintrials.thisRepN,maintrials.thisTrialN,maintrials.thisN,maintrials.thisIndex,maintrials.ran,string,blur,study,lex,stim_path,break_done_touch.clicked_name,mouse_2.x,mouse_2.y,mouse_2.leftButton,mouse_2.midButton,mouse_2.rightButton,mouse_2.clicked_name,slider.response,slider.rt,trials.thisRepN,trials.thisTrialN,trials.thisN,trials.thisIndex,trials.ran,test_instructions.thisRepN,test_instructions.thisTrialN,test_instructions.thisN,test_instructions.thisIndex,test_instructions.ran,key_resp_3.keys,key_resp_3.corr,test_click.x,test_click.y,test_click.leftButton,test_click.midButton,test_click.rightButton,test_click.time,test_click.clicked_name,test_phase.thisRepN,test_phase.thisTrialN,test_phase.thisN,test_phase.thisIndex,test_phase.ran
,0.161581238,-0.423847198,1,0,0,instr_done_button,0,0,0,0,1,1,instructions,"INSTRUCTIONS
At the start of each trial, look at the plus sign  (+) in the center of the screen.  This tells you that a trial is about to begin and where to look. Second, the plus sign will disappear and a string of letters will appear. Your task is to determine if the string of letters is a word or not. If the item is a word press the M key (on keyboard)  or touch the word button (phone/tablet).  If the item is not a word,  press the  Z key (on keyboard)  or touch the nonword button (on phone/tablet). 
Press the space bar or touch  continue.",0,,61036c39549abd4fa911d139,40,2022-02-12_15h13.01.195,lexical_decision_task_DD_L2,2021.2.3,Linux armv8l,59.86231667,,,,,,,,,,,,,,,,,,,,,,,,,,,,,,,,,,,,,,,,,,,,,,,,,,,,,,,,,,,,,,,,,,,,,,,,,,,,,,,,,,
,0.171289921,-0.393310547,1,0,0,instr_done_button,0,1,1,1,1,2,instructions,"If your device has a keyboard, press the 'Z' key for nonwords and the 'M' key for words.





Press the space bar or touch the button below to continue.",0,keyboard-example.gif,61036c39549abd4fa911d139,40,2022-02-12_15h13.01.195,lexical_decision_task_DD_L2,2021.2.3,Linux armv8l,59.86231667,,,,,,,,,,,,,,,,,,,,,,,,,,,,,,,,,,,,,,,,,,,,,,,,,,,,,,,,,,,,,,,,,,,,,,,,,,,,,,,,,,
,0.161581238,-0.400250594,1,0,0,instr_done_button,0,2,2,2,1,3,instructions,"If you are using a touchscreen only device, use the buttons on the screen. Do not use the mouse.





Press the space bar or touch the button below to continue.",0,touchscreen-example.gif,61036c39549abd4fa911d139,40,2022-02-12_15h13.01.195,lexical_decision_task_DD_L2,2021.2.3,Linux armv8l,59.86231667,,,,,,,,,,,,,,,,,,,,,,,,,,,,,,,,,,,,,,,,,,,,,,,,,,,,,,,,,,,,,,,,,,,,,,,,,,,,,,,,,,
,0.161581238,-0.401638667,1,0,0,instr_done_button,0,3,3,3,1,4,instructions,"It is very important that you respond as quickly and accurately as possible, as each letter string will only be on the screen for two seconds. If you do not respond within this time, the message 'Too slow!' will be displayed and the experiment will progress to the next letter string. The first 20 trials will be practice trials and you will receive feedback on your answers. 

Press the space bar or touch the button below to start the practice trials.",0,,61036c39549abd4fa911d139,40,2022-02-12_15h13.01.195,lexical_decision_task_DD_L2,2021.2.3,Linux armv8l,59.86231667,,,,,,,,,,,,,,,,,,,,,,,,,,,,,,,,,,,,,,,,,,,,,,,,,,,,,,,,,,,,,,,,,,,,,,,,,,,,,,,,,,
,,,,,,,,,,,,,,,,,61036c39549abd4fa911d139,40,2022-02-12_15h13.01.195,lexical_decision_task_DD_L2,2021.2.3,Linux armv8l,59.86231667,,0,0.402912776,-0.287820975,1,0,0,1.2398,button_right,1.2398,1,0,0,0,3,1,1001,MATRIX,m,,,,,,,,,,,,,,,,,,,,,,,,,,,,,,,,,,,,,,,,,,,,,,,,,,,,,,,,,,,,,,,
,,,,,,,,,,,,,,,,,61036c39549abd4fa911d139,40,2022-02-12_15h13.01.195,lexical_decision_task_DD_L2,2021.2.3,Linux armv8l,59.86231667,,0,-0.37517335,-0.294761022,1,0,0,1.4421,button_left,1.4421,1,0,1,1,12,1,1001,SPRINY,z,,,,,,,,,,,,,,,,,,,,,,,,,,,,,,,,,,,,,,,,,,,,,,,,,,,,,,,,,,,,,,,
,,,,,,,,,,,,,,,,,61036c39549abd4fa911d139,40,2022-02-12_15h13.01.195,lexical_decision_task_DD_L2,2021.2.3,Linux armv8l,59.86231667,,0,0.390429974,-0.318357627,1,0,0,0.9934,button_right,0.9934,1,0,2,2,6,1,1001,ZOMBIE,m,,,,,,,,,,,,,,,,,,,,,,,,,,,,,,,,,,,,,,,,,,,,,,,,,,,,,,,,,,,,,,,
,,,,,,,,,,,,,,,,,61036c39549abd4fa911d139,40,2022-02-12_15h13.01.195,lexical_decision_task_DD_L2,2021.2.3,Linux armv8l,59.86231667,,0,0.390429974,-0.289209207,1,0,0,0.8171,button_right,0.8171,1,0,3,3,7,1,1001,VOLUME,m,,,,,,,,,,,,,,,,,,,,,,,,,,,,,,,,,,,,,,,,,,,,,,,,,,,,,,,,,,,,,,,
,,,,,,,,,,,,,,,,,61036c39549abd4fa911d139,40,2022-02-12_15h13.01.195,lexical_decision_task_DD_L2,2021.2.3,Linux armv8l,59.86231667,,0,0.387656212,-0.310029348,1,0,0,0.7383,button_right,0.7383,1,0,4,4,1,1,1001,ADJUST,m,,,,,,,,,,,,,,,,,,,,,,,,,,,,,,,,,,,,,,,,,,,,,,,,,,,,,,,,,,,,,,,
,,,,,,,,,,,,,,,,,61036c39549abd4fa911d139,40,2022-02-12_15h13.01.195,lexical_decision_task_DD_L2,2021.2.3,Linux armv8l,59.86231667,,0,-0.371012459,-0.279492696,1,0,0,0.825,button_left,0.825,1,0,5,5,9,1,1001,FARINY,z,,,,,,,,,,,,,,,,,,,,,,,,,,,,,,,,,,,,,,,,,,,,,,,,,,,,,,,,,,,,,,,
,,,,,,,,,,,,,,,,,61036c39549abd4fa911d139,40,2022-02-12_15h13.01.195,lexical_decision_task_DD_L2,2021.2.3,Linux armv8l,59.86231667,,0,-0.408460468,-0.340565681,1,0,0,0.8954,button_left,0.8954,1,0,6,6,15,1,1001,WHAISE,z,,,,,,,,,,,,,,,,,,,,,,,,,,,,,,,,,,,,,,,,,,,,,,,,,,,,,,,,,,,,,,,
,,,,,,,,,,,,,,,,,61036c39549abd4fa911d139,40,2022-02-12_15h13.01.195,lexical_decision_task_DD_L2,2021.2.3,Linux armv8l,59.86231667,,0,-0.37517335,-0.289209207,1,0,0,0.7408,button_left,0.7408,1,0,7,7,11,1,1001,RASHET,z,,,,,,,,,,,,,,,,,,,,,,,,,,,,,,,,,,,,,,,,,,,,,,,,,,,,,,,,,,,,,,,
,,,,,,,,,,,,,,,,,61036c39549abd4fa911d139,40,2022-02-12_15h13.01.195,lexical_decision_task_DD_L2,2021.2.3,Linux armv8l,59.86231667,,0,0.391817093,-0.325297832,1,0,0,0.7396,button_right,0.7396,1,0,8,8,5,1,1001,OBTAIN,m,,,,,,,,,,,,,,,,,,,,,,,,,,,,,,,,,,,,,,,,,,,,,,,,,,,,,,,,,,,,,,,
,,,,,,,,,,,,,,,,,61036c39549abd4fa911d139,40,2022-02-12_15h13.01.195,lexical_decision_task_DD_L2,2021.2.3,Linux armv8l,59.86231667,,0,-0.379334241,-0.297537168,1,0,0,0.7764,button_left,0.7764,1,0,9,9,14,1,1001,THRALE,z,,,,,,,,,,,,,,,,,,,,,,,,,,,,,,,,,,,,,,,,,,,,,,,,,,,,,,,,,,,,,,,
,,,,,,,,,,,,,,,,,61036c39549abd4fa911d139,40,2022-02-12_15h13.01.195,lexical_decision_task_DD_L2,2021.2.3,Linux armv8l,59.86231667,,0,-0.364077648,-0.312805653,1,0,0,0.7385,button_left,0.7385,1,0,10,10,13,1,1001,ROUPET,z,,,,,,,,,,,,,,,,,,,,,,,,,,,,,,,,,,,,,,,,,,,,,,,,,,,,,,,,,,,,,,,
,,,,,,,,,,,,,,,,,61036c39549abd4fa911d139,40,2022-02-12_15h13.01.195,lexical_decision_task_DD_L2,2021.2.3,Linux armv8l,59.86231667,,0,-0.362690687,-0.286432902,1,0,0,0.7373,button_left,0.7373,1,0,11,11,10,1,1001,INLADE,z,,,,,,,,,,,,,,,,,,,,,,,,,,,,,,,,,,,,,,,,,,,,,,,,,,,,,,,,,,,,,,,
,,,,,,,,,,,,,,,,,61036c39549abd4fa911d139,40,2022-02-12_15h13.01.195,lexical_decision_task_DD_L2,2021.2.3,Linux armv8l,59.86231667,,0,0.411234617,-0.279492696,1,0,0,0.7702,button_right,0.7702,1,0,12,12,0,1,1001,UTOPIA,m,,,,,,,,,,,,,,,,,,,,,,,,,,,,,,,,,,,,,,,,,,,,,,,,,,,,,,,,,,,,,,,
,,,,,,,,,,,,,,,,,61036c39549abd4fa911d139,40,2022-02-12_15h13.01.195,lexical_decision_task_DD_L2,2021.2.3,Linux armv8l,59.86231667,,0,0.37794733,-0.305865447,1,0,0,1.2255,button_right,1.2255,1,0,13,13,4,1,1001,SQUEAK,m,,,,,,,,,,,,,,,,,,,,,,,,,,,,,,,,,,,,,,,,,,,,,,,,,,,,,,,,,,,,,,,
,,,,,,,,,,,,,,,,,61036c39549abd4fa911d139,40,2022-02-12_15h13.01.195,lexical_decision_task_DD_L2,2021.2.3,Linux armv8l,59.86231667,,0,-0.358529806,-0.269776662,1,0,0,0.8651,button_left,0.8651,1,0,14,14,8,1,1001,ASLERT,z,,,,,,,,,,,,,,,,,,,,,,,,,,,,,,,,,,,,,,,,,,,,,,,,,,,,,,,,,,,,,,,
,,,,,,,,,,,,,,,,,61036c39549abd4fa911d139,40,2022-02-12_15h13.01.195,lexical_decision_task_DD_L2,2021.2.3,Linux armv8l,59.86231667,,0,0.401525736,-0.2989254,1,0,0,0.7074,button_right,0.7074,1,0,15,15,2,1,1001,ALMOND,m,,,,,,,,,,,,,,,,,,,,,,,,,,,,,,,,,,,,,,,,,,,,,,,,,,,,,,,,,,,,,,,
,0.168697933,-0.408323825,1,0,0,instr_done_button,,,,,,1,end_of_practice,"You have completed the practice trials. During the experimental trials, you will not receive feedback. 
Before you begin, please ensure that you are in a comfortable and quiet location and will not be disturbed for about 15 minutes, as we cannot use your data if you do not complete all the trials. 
 When you are ready to start the experimental trials, please press space or touch the button below.",,,61036c39549abd4fa911d139,40,2022-02-12_15h13.01.195,lexical_decision_task_DD_L2,2021.2.3,Linux armv8l,59.86231667,,,,,,,,,,,,,,,,,,,,0,0,0,0,1,,,,,,,,,,,,,,,,,,,,,,,,,,,,,,,,,,,,,,,,,,,,,,,,,,,,,,,,,,
,,,,,,,,,,,,,,,,,61036c39549abd4fa911d139,40,2022-02-12_15h13.01.195,lexical_decision_task_DD_L2,2021.2.3,Linux armv8l,59.86231667,,,,,,,,,,1.1569,1,,,,,,,,,,,,,,,0,0.460039349,-0.294475073,1,0,0,1.1569,button_right_main,0.460039349,-0.294475073,1,0,0,,0,0,0,25,1,WRIST,LB,old,m,./images/WRISTLB.png,,,,,,,,,,,,,,,,,,,,,,,,,,,,,,,,,
,,,,,,,,,,,,,,,,,61036c39549abd4fa911d139,40,2022-02-12_15h13.01.195,lexical_decision_task_DD_L2,2021.2.3,Linux armv8l,59.86231667,,,,,,,,,,0.9705,1,,,,,,,,,,,,,,,0,-0.373752041,-0.295863436,1,0,0,0.9705,button_left_main,-0.373752041,-0.295863436,1,0,0,,0,1,1,135,1,JOODY,C,old,z,./images/JOODY.png,,,,,,,,,,,,,,,,,,,,,,,,,,,,,,,,,
,,,,,,,,,,,,,,,,,61036c39549abd4fa911d139,40,2022-02-12_15h13.01.195,lexical_decision_task_DD_L2,2021.2.3,Linux armv8l,59.86231667,,,,,,,,,,1.088,1,,,,,,,,,,,,,,,0,-0.375139384,-0.252823063,1,0,0,1.088,button_left_main,-0.375139384,-0.252823063,1,0,0,,0,2,2,149,1,VEASE,LB,old,z,./images/VEASELB.png,,,,,,,,,,,,,,,,,,,,,,,,,,,,,,,,,
,,,,,,,,,,,,,,,,,61036c39549abd4fa911d139,40,2022-02-12_15h13.01.195,lexical_decision_task_DD_L2,2021.2.3,Linux armv8l,59.86231667,,,,,,,,,,0.8005,1,,,,,,,,,,,,,,,0,0.419806531,-0.313912528,1,0,0,0.8005,button_right_main,0.419806531,-0.313912528,1,0,0,,0,3,3,65,1,FARMER,C,old,m,./images/FARMER.png,,,,,,,,,,,,,,,,,,,,,,,,,,,,,,,,,
,,,,,,,,,,,,,,,,,61036c39549abd4fa911d139,40,2022-02-12_15h13.01.195,lexical_decision_task_DD_L2,2021.2.3,Linux armv8l,59.86231667,,,,,,,,,,1.1655,1,,,,,,,,,,,,,,,0,0.44061653,-0.301417137,1,0,0,1.1655,button_right_main,0.44061653,-0.301417137,1,0,0,,0,4,4,52,1,BANNER,LB,old,m,./images/BANNERLB.png,,,,,,,,,,,,,,,,,,,,,,,,,,,,,,,,,
,,,,,,,,,,,,,,,,,61036c39549abd4fa911d139,40,2022-02-12_15h13.01.195,lexical_decision_task_DD_L2,2021.2.3,Linux armv8l,59.86231667,,,,,,,,,,0.9773,1,,,,,,,,,,,,,,,0,0.41425719,-0.330573506,1,0,0,0.9773,button_right_main,0.41425719,-0.330573506,1,0,0,,0,5,5,12,1,SHORE,HB,old,m,./images/SHOREHB.png,,,,,,,,,,,,,,,,,,,,,,,,,,,,,,,,,
,,,,,,,,,,,,,,,,,61036c39549abd4fa911d139,40,2022-02-12_15h13.01.195,lexical_decision_task_DD_L2,2021.2.3,Linux armv8l,59.86231667,,,,,,,,,,1.08,1,,,,,,,,,,,,,,,0,-0.36265332,-0.288921496,1,0,0,1.08,button_left_main,-0.36265332,-0.288921496,1,0,0,,0,6,6,84,1,HAXES,C,old,z,./images/HAXES.png,,,,,,,,,,,,,,,,,,,,,,,,,,,,,,,,,
,,,,,,,,,,,,,,,,,61036c39549abd4fa911d139,40,2022-02-12_15h13.01.195,lexical_decision_task_DD_L2,2021.2.3,Linux armv8l,59.86231667,,,,,,,,,,0.8621,1,,,,,,,,,,,,,,,0,0.404545749,-0.343068897,1,0,0,0.8621,button_right_main,0.404545749,-0.343068897,1,0,0,,0,7,7,42,1,FOLDER,HB,old,m,./images/FOLDERHB.png,,,,,,,,,,,,,,,,,,,,,,,,,,,,,,,,,
,,,,,,,,,,,,,,,,,61036c39549abd4fa911d139,40,2022-02-12_15h13.01.195,lexical_decision_task_DD_L2,2021.2.3,Linux armv8l,59.86231667,,,,,,,,,,0.8893,1,,,,,,,,,,,,,,,0,0.429517785,-0.315301015,1,0,0,0.8893,button_right_main,0.429517785,-0.315301015,1,0,0,,0,8,8,51,1,ONION,HB,old,m,./images/ONIONHB.png,,,,,,,,,,,,,,,,,,,,,,,,,,,,,,,,,
,,,,,,,,,,,,,,,,,61036c39549abd4fa911d139,40,2022-02-12_15h13.01.195,lexical_decision_task_DD_L2,2021.2.3,Linux armv8l,59.86231667,,,,,,,,,,0.7443,1,,,,,,,,,,,,,,,0,0.41425719,-0.308359076,1,0,0,0.7443,button_right_main,0.41425719,-0.308359076,1,0,0,,0,9,9,70,1,URINE,LB,old,m,./images/URINELB.png,,,,,,,,,,,,,,,,,,,,,,,,,,,,,,,,,
,,,,,,,,,,,,,,,,,61036c39549abd4fa911d139,40,2022-02-12_15h13.01.195,lexical_decision_task_DD_L2,2021.2.3,Linux armv8l,59.86231667,,,,,,,,,,0.9697,0,,,,,,,,,,,,,,,0,-0.3473926,-0.283367795,1,0,0,0.9697,button_left_main,-0.3473926,-0.283367795,1,0,0,,0,10,10,33,1,MAGGOT,HB,old,m,./images/MAGGOTHB.png,,,,,,,,,,,,,,,,,,,,,,,,,,,,,,,,,
,,,,,,,,,,,,,,,,,61036c39549abd4fa911d139,40,2022-02-12_15h13.01.195,lexical_decision_task_DD_L2,2021.2.3,Linux armv8l,59.86231667,,,,,,,,,,0.6939,1,,,,,,,,,,,,,,,0,0.41009509,-0.347234235,1,0,0,0.6939,button_right_main,0.41009509,-0.347234235,1,0,0,,0,11,11,38,1,LADDER,C,old,m,./images/LADDER.png,,,,,,,,,,,,,,,,,,,,,,,,,,,,,,,,,
,,,,,,,,,,,,,,,,,61036c39549abd4fa911d139,40,2022-02-12_15h13.01.195,lexical_decision_task_DD_L2,2021.2.3,Linux armv8l,59.86231667,,,,,,,,,,1.2238,1,,,,,,,,,,,,,,,0,-0.39733682,-0.252823063,1,0,0,1.2238,button_left_main,-0.39733682,-0.252823063,1,0,0,,0,12,12,167,1,ZONET,LB,old,z,./images/ZONETLB.png,,,,,,,,,,,,,,,,,,,,,,,,,,,,,,,,,
,,,,,,,,,,,,,,,,,61036c39549abd4fa911d139,40,2022-02-12_15h13.01.195,lexical_decision_task_DD_L2,2021.2.3,Linux armv8l,59.86231667,,,,,,,,,,3.0905,1,,,,,,,,,,,,,,,0,-0.330744498,-0.276425856,1,0,0,3.0905,button_left_main,-0.330744498,-0.276425856,1,0,0,,0,13,13,139,1,BLEAR,HB,old,z,./images/BLEARHB.png,,,,,,,,,,,,,,,,,,,,,,,,,,,,,,,,,
,,,,,,,,,,,,,,,,,61036c39549abd4fa911d139,40,2022-02-12_15h13.01.195,lexical_decision_task_DD_L2,2021.2.3,Linux armv8l,59.86231667,,,,,,,,,,0.7864,1,,,,,,,,,,,,,,,0,0.429517785,-0.304193863,1,0,0,0.7864,button_right_main,0.429517785,-0.304193863,1,0,0,,0,14,14,72,1,NOOSE,HB,old,m,./images/NOOSEHB.png,,,,,,,,,,,,,,,,,,,,,,,,,,,,,,,,,
,,,,,,,,,,,,,,,,,61036c39549abd4fa911d139,40,2022-02-12_15h13.01.195,lexical_decision_task_DD_L2,2021.2.3,Linux armv8l,59.86231667,,,,,,,,,,0.8937,1,,,,,,,,,,,,,,,0,0.40732042,-0.334738595,1,0,0,0.8937,button_right_main,0.40732042,-0.334738595,1,0,0,,0,15,15,49,1,DRUMS,LB,old,m,./images/DRUMSLB.png,,,,,,,,,,,,,,,,,,,,,,,,,,,,,,,,,
,,,,,,,,,,,,,,,,,61036c39549abd4fa911d139,40,2022-02-12_15h13.01.195,lexical_decision_task_DD_L2,2021.2.3,Linux armv8l,59.86231667,,,,,,,,,,1.3252,1,,,,,,,,,,,,,,,0,-0.39733682,-0.27364913,1,0,0,1.3252,button_left_main,-0.39733682,-0.27364913,1,0,0,,0,16,16,143,1,MONGS,LB,old,z,./images/MONGSLB.png,,,,,,,,,,,,,,,,,,,,,,,,,,,,,,,,,
,,,,,,,,,,,,,,,,,61036c39549abd4fa911d139,40,2022-02-12_15h13.01.195,lexical_decision_task_DD_L2,2021.2.3,Linux armv8l,59.86231667,,,,,,,,,,1.0716,1,,,,,,,,,,,,,,,0,0.41009509,-0.331961869,1,0,0,1.0716,button_right_main,0.41009509,-0.331961869,1,0,0,,0,17,17,54,1,TRIPOD,HB,old,m,./images/TRIPODHB.png,,,,,,,,,,,,,,,,,,,,,,,,,,,,,,,,,
,,,,,,,,,,,,,,,,,61036c39549abd4fa911d139,40,2022-02-12_15h13.01.195,lexical_decision_task_DD_L2,2021.2.3,Linux armv8l,59.86231667,,,,,,,,,,0.8144,1,,,,,,,,,,,,,,,0,0.418419165,-0.311135802,1,0,0,0.8144,button_right_main,0.418419165,-0.311135802,1,0,0,,0,18,18,43,1,MOSQUE,LB,old,m,./images/MOSQUELB.png,,,,,,,,,,,,,,,,,,,,,,,,,,,,,,,,,
,,,,,,,,,,,,,,,,,61036c39549abd4fa911d139,40,2022-02-12_15h13.01.195,lexical_decision_task_DD_L2,2021.2.3,Linux armv8l,59.86231667,,,,,,,,,,0.8514,1,,,,,,,,,,,,,,,0,0.378186222,-0.347234235,1,0,0,0.8514,button_right_main,0.378186222,-0.347234235,1,0,0,,0,19,19,21,1,KIDNEY,HB,old,m,./images/KIDNEYHB.png,,,,,,,,,,,,,,,,,,,,,,,,,,,,,,,,,
,,,,,,,,,,,,,,,,,61036c39549abd4fa911d139,40,2022-02-12_15h13.01.195,lexical_decision_task_DD_L2,2021.2.3,Linux armv8l,59.86231667,,,,,,,,,,0.8456,1,,,,,,,,,,,,,,,0,0.436454617,-0.301417137,1,0,0,0.8456,button_right_main,0.436454617,-0.301417137,1,0,0,,0,20,20,26,1,SMOKER,C,old,m,./images/SMOKER.png,,,,,,,,,,,,,,,,,,,,,,,,,,,,,,,,,
,,,,,,,,,,,,,,,,,61036c39549abd4fa911d139,40,2022-02-12_15h13.01.195,lexical_decision_task_DD_L2,2021.2.3,Linux armv8l,59.86231667,,,,,,,,,,0.8257,1,,,,,,,,,,,,,,,0,0.436454617,-0.302805375,1,0,0,0.8257,button_right_main,0.436454617,-0.302805375,1,0,0,,0,21,21,50,1,MALLET,C,old,m,./images/MALLET.png,,,,,,,,,,,,,,,,,,,,,,,,,,,,,,,,,
,,,,,,,,,,,,,,,,,61036c39549abd4fa911d139,40,2022-02-12_15h13.01.195,lexical_decision_task_DD_L2,2021.2.3,Linux armv8l,59.86231667,,,,,,,,,,0.8993,1,,,,,,,,,,,,,,,0,-0.365428006,-0.293086585,1,0,0,0.8993,button_left_main,-0.365428006,-0.293086585,1,0,0,,0,22,22,129,1,PRANS,C,old,z,./images/PRANS.png,,,,,,,,,,,,,,,,,,,,,,,,,,,,,,,,,
,,,,,,,,,,,,,,,,,61036c39549abd4fa911d139,40,2022-02-12_15h13.01.195,lexical_decision_task_DD_L2,2021.2.3,Linux armv8l,59.86231667,,,,,,,,,,0.7317,1,,,,,,,,,,,,,,,0,0.419806531,-0.323631442,1,0,0,0.7317,button_right_main,0.419806531,-0.323631442,1,0,0,,0,23,23,36,1,THROAT,HB,old,m,./images/THROATHB.png,,,,,,,,,,,,,,,,,,,,,,,,,,,,,,,,,
,,,,,,,,,,,,,,,,,61036c39549abd4fa911d139,40,2022-02-12_15h13.01.195,lexical_decision_task_DD_L2,2021.2.3,Linux armv8l,59.86231667,,,,,,,,,,0.725,1,,,,,,,,,,,,,,,0,0.421193897,-0.323631442,1,0,0,0.725,button_right_main,0.421193897,-0.323631442,1,0,0,,0,24,24,57,1,MOOSE,HB,old,m,./images/MOOSEHB.png,,,,,,,,,,,,,,,,,,,,,,,,,,,,,,,,,
,,,,,,,,,,,,,,,,,61036c39549abd4fa911d139,40,2022-02-12_15h13.01.195,lexical_decision_task_DD_L2,2021.2.3,Linux armv8l,59.86231667,,,,,,,,,,0.7671,1,,,,,,,,,,,,,,,0,0.422581202,-0.322243079,1,0,0,0.7671,button_right_main,0.422581202,-0.322243079,1,0,0,,0,25,25,82,1,SUNSET,LB,old,m,./images/SUNSETLB.png,,,,,,,,,,,,,,,,,,,,,,,,,,,,,,,,,
,,,,,,,,,,,,,,,,,61036c39549abd4fa911d139,40,2022-02-12_15h13.01.195,lexical_decision_task_DD_L2,2021.2.3,Linux armv8l,59.86231667,,,,,,,,,,1.6078,1,,,,,,,,,,,,,,,0,-0.36959002,-0.272260643,1,0,0,1.6078,button_left_main,-0.36959002,-0.272260643,1,0,0,,0,26,26,112,1,MYING,HB,old,z,./images/MYINGHB.png,,,,,,,,,,,,,,,,,,,,,,,,,,,,,,,,,
,,,,,,,,,,,,,,,,,61036c39549abd4fa911d139,40,2022-02-12_15h13.01.195,lexical_decision_task_DD_L2,2021.2.3,Linux armv8l,59.86231667,,,,,,,,,,1.1602,1,,,,,,,,,,,,,,,0,-0.379301414,-0.322243079,1,0,0,1.1602,button_left_main,-0.379301414,-0.322243079,1,0,0,,0,27,27,105,1,MOKER,C,old,z,./images/MOKER.png,,,,,,,,,,,,,,,,,,,,,,,,,,,,,,,,,
,,,,,,,,,,,,,,,,,61036c39549abd4fa911d139,40,2022-02-12_15h13.01.195,lexical_decision_task_DD_L2,2021.2.3,Linux armv8l,59.86231667,,,,,,,,,,0.8219,1,,,,,,,,,,,,,,,0,-0.354329308,-0.300028649,1,0,0,0.8219,button_left_main,-0.354329308,-0.300028649,1,0,0,,0,28,28,147,1,ZOLES,C,old,z,./images/ZOLES.png,,,,,,,,,,,,,,,,,,,,,,,,,,,,,,,,,
,,,,,,,,,,,,,,,,,61036c39549abd4fa911d139,40,2022-02-12_15h13.01.195,lexical_decision_task_DD_L2,2021.2.3,Linux armv8l,59.86231667,,,,,,,,,,1.0794,1,,,,,,,,,,,,,,,0,-0.358491298,-0.269483792,1,0,0,1.0794,button_left_main,-0.358491298,-0.269483792,1,0,0,,0,29,29,140,1,DOVET,LB,old,z,./images/DOVETLB.png,,,,,,,,,,,,,,,,,,,,,,,,,,,,,,,,,
,,,,,,,,,,,,,,,,,61036c39549abd4fa911d139,40,2022-02-12_15h13.01.195,lexical_decision_task_DD_L2,2021.2.3,Linux armv8l,59.86231667,,,,,,,,,,0.9167,1,,,,,,,,,,,,,,,0,0.45449007,-0.297251923,1,0,0,0.9167,button_right_main,0.45449007,-0.297251923,1,0,0,,0,30,30,64,1,JELLY,LB,old,m,./images/JELLYLB.png,,,,,,,,,,,,,,,,,,,,,,,,,,,,,,,,,
,,,,,,,,,,,,,,,,,61036c39549abd4fa911d139,40,2022-02-12_15h13.01.195,lexical_decision_task_DD_L2,2021.2.3,Linux armv8l,59.86231667,,,,,,,,,,1.1957,1,,,,,,,,,,,,,,,0,-0.357103963,-0.291698222,1,0,0,1.1957,button_left_main,-0.357103963,-0.291698222,1,0,0,,0,31,31,126,1,GUELS,C,old,z,./images/GUELS.png,,,,,,,,,,,,,,,,,,,,,,,,,,,,,,,,,
,,,,,,,,,,,,,,,,,61036c39549abd4fa911d139,40,2022-02-12_15h13.01.195,lexical_decision_task_DD_L2,2021.2.3,Linux armv8l,59.86231667,,,,,,,,,,0.75,1,,,,,,,,,,,,,,,0,0.404545749,-0.336127083,1,0,0,0.75,button_right_main,0.404545749,-0.336127083,1,0,0,,0,32,32,83,1,JUNGLE,C,old,m,./images/JUNGLE.png,,,,,,,,,,,,,,,,,,,,,,,,,,,,,,,,,
,,,,,,,,,,,,,,,,,61036c39549abd4fa911d139,40,2022-02-12_15h13.01.195,lexical_decision_task_DD_L2,2021.2.3,Linux armv8l,59.86231667,,,,,,,,,,0.8749,1,,,,,,,,,,,,,,,0,-0.384850763,-0.287533133,1,0,0,0.8749,button_left_main,-0.384850763,-0.287533133,1,0,0,,0,33,33,150,1,NOOLS,C,old,z,./images/NOOLS.png,,,,,,,,,,,,,,,,,,,,,,,,,,,,,,,,,
,,,,,,,,,,,,,,,,,61036c39549abd4fa911d139,40,2022-02-12_15h13.01.195,lexical_decision_task_DD_L2,2021.2.3,Linux armv8l,59.86231667,,,,,,,,,,1.3112,1,,,,,,,,,,,,,,,0,-0.352941957,-0.291698222,1,0,0,1.3112,button_left_main,-0.352941957,-0.291698222,1,0,0,,0,34,34,118,1,BAVEL,HB,old,z,./images/BAVELHB.png,,,,,,,,,,,,,,,,,,,,,,,,,,,,,,,,,
,,,,,,,,,,,,,,,,,61036c39549abd4fa911d139,40,2022-02-12_15h13.01.195,lexical_decision_task_DD_L2,2021.2.3,Linux armv8l,59.86231667,,,,,,,,,,1.035,1,,,,,,,,,,,,,,,0,-0.354329308,-0.291698222,1,0,0,1.035,button_left_main,-0.354329308,-0.291698222,1,0,0,,0,35,35,92,1,PAIMS,LB,old,z,./images/PAIMSLB.png,,,,,,,,,,,,,,,,,,,,,,,,,,,,,,,,,
,,,,,,,,,,,,,,,,,61036c39549abd4fa911d139,40,2022-02-12_15h13.01.195,lexical_decision_task_DD_L2,2021.2.3,Linux armv8l,59.86231667,,,,,,,,,,1.127,1,,,,,,,,,,,,,,,0,-0.366815341,-0.265318703,1,0,0,1.127,button_left_main,-0.366815341,-0.265318703,1,0,0,,0,36,36,151,1,TINKY,HB,old,z,./images/TINKYHB.png,,,,,,,,,,,,,,,,,,,,,,,,,,,,,,,,,
,,,,,,,,,,,,,,,,,61036c39549abd4fa911d139,40,2022-02-12_15h13.01.195,lexical_decision_task_DD_L2,2021.2.3,Linux armv8l,59.86231667,,,,,,,,,,0.8872,1,,,,,,,,,,,,,,,0,0.460039349,-0.294475073,1,0,0,0.8872,button_right_main,0.460039349,-0.294475073,1,0,0,,0,37,37,23,1,WALRUS,C,old,m,./images/WALRUS.png,,,,,,,,,,,,,,,,,,,,,,,,,,,,,,,,,
,,,,,,,,,,,,,,,,,61036c39549abd4fa911d139,40,2022-02-12_15h13.01.195,lexical_decision_task_DD_L2,2021.2.3,Linux armv8l,59.86231667,,,,,,,,,,1.193,1,,,,,,,,,,,,,,,0,0.404545749,-0.319466353,1,0,0,1.193,button_right_main,0.404545749,-0.319466353,1,0,0,,0,38,38,24,1,SCREW,HB,old,m,./images/SCREWHB.png,,,,,,,,,,,,,,,,,,,,,,,,,,,,,,,,,
,,,,,,,,,,,,,,,,,61036c39549abd4fa911d139,40,2022-02-12_15h13.01.195,lexical_decision_task_DD_L2,2021.2.3,Linux armv8l,59.86231667,,,,,,,,,,0.8395,1,,,,,,,,,,,,,,,0,0.405933053,-0.318077866,1,0,0,0.8395,button_right_main,0.405933053,-0.318077866,1,0,0,,0,39,39,78,1,LITTER,HB,old,m,./images/LITTERHB.png,,,,,,,,,,,,,,,,,,,,,,,,,,,,,,,,,
,,,,,,,,,,,,,,,,,61036c39549abd4fa911d139,40,2022-02-12_15h13.01.195,lexical_decision_task_DD_L2,2021.2.3,Linux armv8l,59.86231667,,,,,,,,,,0.9646,1,,,,,,,,,,,,,,,0,-0.344617898,-0.294475073,1,0,0,0.9646,button_left_main,-0.344617898,-0.294475073,1,0,0,,0,40,40,119,1,PAFER,LB,old,z,./images/PAFERLB.png,,,,,,,,,,,,,,,,,,,,,,,,,,,,,,,,,
,,,,,,,,,,,,,,,,,61036c39549abd4fa911d139,40,2022-02-12_15h13.01.195,lexical_decision_task_DD_L2,2021.2.3,Linux armv8l,59.86231667,,,,,,,,,,0.7945,1,,,,,,,,,,,,,,,0,0.408707786,-0.322243079,1,0,0,0.7945,button_right_main,0.145113139,-0.411100676,1,0,0,,0,41,41,10,1,BELLY,LB,old,m,./images/BELLYLB.png,break_done_button,,,,,,,,,,,,,,,,,,,,,,,,,,,,,,,,
,,,,,,,,,,,,,,,,,61036c39549abd4fa911d139,40,2022-02-12_15h13.01.195,lexical_decision_task_DD_L2,2021.2.3,Linux armv8l,59.86231667,,,,,,,,,,0.874,1,,,,,,,,,,,,,,,0,0.40732042,-0.316689378,1,0,0,0.874,button_right_main,0.40732042,-0.316689378,1,0,0,,0,42,42,19,1,DOUGH,LB,old,m,./images/DOUGHLB.png,,,,,,,,,,,,,,,,,,,,,,,,,,,,,,,,,
,,,,,,,,,,,,,,,,,61036c39549abd4fa911d139,40,2022-02-12_15h13.01.195,lexical_decision_task_DD_L2,2021.2.3,Linux armv8l,59.86231667,,,,,,,,,,0.703,1,,,,,,,,,,,,,,,0,0.36153826,-0.341680535,1,0,0,0.703,button_right_main,0.36153826,-0.341680535,1,0,0,,0,43,43,75,1,GRAIN,HB,old,m,./images/GRAINHB.png,,,,,,,,,,,,,,,,,,,,,,,,,,,,,,,,,
,,,,,,,,,,,,,,,,,61036c39549abd4fa911d139,40,2022-02-12_15h13.01.195,lexical_decision_task_DD_L2,2021.2.3,Linux armv8l,59.86231667,,,,,,,,,,0.8546,1,,,,,,,,,,,,,,,0,-0.372364714,-0.27087228,1,0,0,0.8546,button_left_main,-0.372364714,-0.27087228,1,0,0,,0,44,44,98,1,BAMPS,LB,old,z,./images/BAMPSLB.png,,,,,,,,,,,,,,,,,,,,,,,,,,,,,,,,,
,,,,,,,,,,,,,,,,,61036c39549abd4fa911d139,40,2022-02-12_15h13.01.195,lexical_decision_task_DD_L2,2021.2.3,Linux armv8l,59.86231667,,,,,,,,,,0.8723,1,,,,,,,,,,,,,,,0,-0.372364714,-0.269483792,1,0,0,0.8723,button_left_main,-0.372364714,-0.269483792,1,0,0,,0,45,45,141,1,PLEET,C,old,z,./images/PLEET.png,,,,,,,,,,,,,,,,,,,,,,,,,,,,,,,,,
,,,,,,,,,,,,,,,,,61036c39549abd4fa911d139,40,2022-02-12_15h13.01.195,lexical_decision_task_DD_L2,2021.2.3,Linux armv8l,59.86231667,,,,,,,,,,0.7908,1,,,,,,,,,,,,,,,0,0.411482581,-0.315301015,1,0,0,0.7908,button_right_main,0.411482581,-0.315301015,1,0,0,,0,46,46,40,1,SWING,LB,old,m,./images/SWINGLB.png,,,,,,,,,,,,,,,,,,,,,,,,,,,,,,,,,
,,,,,,,,,,,,,,,,,61036c39549abd4fa911d139,40,2022-02-12_15h13.01.195,lexical_decision_task_DD_L2,2021.2.3,Linux armv8l,59.86231667,,,,,,,,,,0.9003,1,,,,,,,,,,,,,,,0,0.393447129,-0.329185019,1,0,0,0.9003,button_right_main,0.393447129,-0.329185019,1,0,0,,0,47,47,47,1,BERRY,C,old,m,./images/BERRY.png,,,,,,,,,,,,,,,,,,,,,,,,,,,,,,,,,
,,,,,,,,,,,,,,,,,61036c39549abd4fa911d139,40,2022-02-12_15h13.01.195,lexical_decision_task_DD_L2,2021.2.3,Linux armv8l,59.86231667,,,,,,,,,,0.817,1,,,,,,,,,,,,,,,0,0.39899647,-0.301417137,1,0,0,0.817,button_right_main,0.39899647,-0.301417137,1,0,0,,0,48,48,80,1,WEASEL,C,old,m,./images/WEASEL.png,,,,,,,,,,,,,,,,,,,,,,,,,,,,,,,,,
,,,,,,,,,,,,,,,,,61036c39549abd4fa911d139,40,2022-02-12_15h13.01.195,lexical_decision_task_DD_L2,2021.2.3,Linux armv8l,59.86231667,,,,,,,,,,1.2288,1,,,,,,,,,,,,,,,0,-0.377914063,-0.144528011,1,0,0,1.2288,button_left_main,-0.372364714,-0.327796656,1,0,0,,0,49,49,156,1,HIXES,C,old,z,./images/HIXES.png,,,,,,,,,,,,,,,,,,,,,,,,,,,,,,,,,
,,,,,,,,,,,,,,,,,61036c39549abd4fa911d139,40,2022-02-12_15h13.01.195,lexical_decision_task_DD_L2,2021.2.3,Linux armv8l,59.86231667,,,,,,,,,,1.2199,1,,,,,,,,,,,,,,,0,0.428130543,-0.309747314,1,0,0,1.2199,button_right_main,0.428130543,-0.309747314,1,0,0,,0,50,50,37,1,BIRTH,LB,old,m,./images/BIRTHLB.png,,,,,,,,,,,,,,,,,,,,,,,,,,,,,,,,,
,,,,,,,,,,,,,,,,,61036c39549abd4fa911d139,40,2022-02-12_15h13.01.195,lexical_decision_task_DD_L2,2021.2.3,Linux armv8l,59.86231667,,,,,,,,,,0.7865,1,,,,,,,,,,,,,,,0,0.403158445,-0.329185019,1,0,0,0.7865,button_right_main,0.403158445,-0.329185019,1,0,0,,0,51,51,35,1,PEACH,C,old,m,./images/PEACH.png,,,,,,,,,,,,,,,,,,,,,,,,,,,,,,,,,
,,,,,,,,,,,,,,,,,61036c39549abd4fa911d139,40,2022-02-12_15h13.01.195,lexical_decision_task_DD_L2,2021.2.3,Linux armv8l,59.86231667,,,,,,,,,,0.9247,1,,,,,,,,,,,,,,,0,-0.44173171,-0.26115349,1,0,0,0.9247,button_left_main,-0.44173171,-0.26115349,1,0,0,,0,52,52,116,1,BALGY,LB,old,z,./images/BALGYLB.png,,,,,,,,,,,,,,,,,,,,,,,,,,,,,,,,,
,,,,,,,,,,,,,,,,,61036c39549abd4fa911d139,40,2022-02-12_15h13.01.195,lexical_decision_task_DD_L2,2021.2.3,Linux armv8l,59.86231667,,,,,,,,,,1.1151,1,,,,,,,,,,,,,,,0,0.39899647,-0.255599789,1,0,0,1.1151,button_right_main,0.39899647,-0.255599789,1,0,0,,0,53,53,7,1,PAINT,LB,old,m,./images/PAINTLB.png,,,,,,,,,,,,,,,,,,,,,,,,,,,,,,,,,
,,,,,,,,,,,,,,,,,61036c39549abd4fa911d139,40,2022-02-12_15h13.01.195,lexical_decision_task_DD_L2,2021.2.3,Linux armv8l,59.86231667,,,,,,,,,,1.1261,1,,,,,,,,,,,,,,,0,-0.343230563,-0.288921496,1,0,0,1.1261,button_left_main,-0.343230563,-0.288921496,1,0,0,,0,54,54,121,1,CEERS,HB,old,z,./images/CEERSHB.png,,,,,,,,,,,,,,,,,,,,,,,,,,,,,,,,,
,,,,,,,,,,,,,,,,,61036c39549abd4fa911d139,40,2022-02-12_15h13.01.195,lexical_decision_task_DD_L2,2021.2.3,Linux armv8l,59.86231667,,,,,,,,,,1.2673,1,,,,,,,,,,,,,,,0,-0.40427352,-0.326408168,1,0,0,1.2673,button_left_main,-0.40427352,-0.326408168,1,0,0,,0,55,55,104,1,GITTY,LB,old,z,./images/GITTYLB.png,,,,,,,,,,,,,,,,,,,,,,,,,,,,,,,,,
,,,,,,,,,,,,,,,,,61036c39549abd4fa911d139,40,2022-02-12_15h13.01.195,lexical_decision_task_DD_L2,2021.2.3,Linux armv8l,59.86231667,,,,,,,,,,1.3747,1,,,,,,,,,,,,,,,0,-0.269701526,-0.331961869,1,0,0,1.3747,button_left_main,-0.269701526,-0.331961869,1,0,0,,0,56,56,154,1,THINT,HB,old,z,./images/THINTHB.png,,,,,,,,,,,,,,,,,,,,,,,,,,,,,,,,,
,,,,,,,,,,,,,,,,,61036c39549abd4fa911d139,40,2022-02-12_15h13.01.195,lexical_decision_task_DD_L2,2021.2.3,Linux armv8l,59.86231667,,,,,,,,,,1.1805,1,,,,,,,,,,,,,,,0,-0.361265984,-0.290309735,1,0,0,1.1805,button_left_main,-0.361265984,-0.290309735,1,0,0,,0,57,57,136,1,WERVE,HB,old,z,./images/WERVEHB.png,,,,,,,,,,,,,,,,,,,,,,,,,,,,,,,,,
,,,,,,,,,,,,,,,,,61036c39549abd4fa911d139,40,2022-02-12_15h13.01.195,lexical_decision_task_DD_L2,2021.2.3,Linux armv8l,59.86231667,,,,,,,,,,1.3681,1,,,,,,,,,,,,,,,0,-0.493063299,-0.313912528,1,0,0,1.3681,button_left_main,-0.493063299,-0.313912528,1,0,0,,0,58,58,158,1,EGECT,LB,old,z,./images/EGECTLB.png,,,,,,,,,,,,,,,,,,,,,,,,,,,,,,,,,
,,,,,,,,,,,,,,,,,61036c39549abd4fa911d139,40,2022-02-12_15h13.01.195,lexical_decision_task_DD_L2,2021.2.3,Linux armv8l,59.86231667,,,,,,,,,,1.0876,1,,,,,,,,,,,,,,,0,-0.247504083,-0.258376764,1,0,0,1.0876,button_left_main,-0.247504083,-0.258376764,1,0,0,,0,59,59,159,1,CUDDY,C,old,z,./images/CUDDY.png,,,,,,,,,,,,,,,,,,,,,,,,,,,,,,,,,
,,,,,,,,,,,,,,,,,61036c39549abd4fa911d139,40,2022-02-12_15h13.01.195,lexical_decision_task_DD_L2,2021.2.3,Linux armv8l,59.86231667,,,,,,,,,,1.4472,1,,,,,,,,,,,,,,,0,0.29633322,-0.311135802,1,0,0,1.4472,button_right_main,0.29633322,-0.311135802,1,0,0,,0,60,60,30,1,STORM,HB,old,m,./images/STORMHB.png,,,,,,,,,,,,,,,,,,,,,,,,,,,,,,,,,
,,,,,,,,,,,,,,,,,61036c39549abd4fa911d139,40,2022-02-12_15h13.01.195,lexical_decision_task_DD_L2,2021.2.3,Linux armv8l,59.86231667,,,,,,,,,,1.7668,1,,,,,,,,,,,,,,,0,0.41009509,-0.268095429,1,0,0,1.7668,button_right_main,0.41009509,-0.268095429,1,0,0,,0,61,61,61,1,CANDLE,LB,old,m,./images/CANDLELB.png,,,,,,,,,,,,,,,,,,,,,,,,,,,,,,,,,
,,,,,,,,,,,,,,,,,61036c39549abd4fa911d139,40,2022-02-12_15h13.01.195,lexical_decision_task_DD_L2,2021.2.3,Linux armv8l,59.86231667,,,,,,,,,,0.8362,1,,,,,,,,,,,,,,,0,-0.352941957,-0.297251923,1,0,0,0.8362,button_left_main,-0.352941957,-0.297251923,1,0,0,,0,62,62,131,1,NACES,LB,old,z,./images/NACESLB.png,,,,,,,,,,,,,,,,,,,,,,,,,,,,,,,,,
,,,,,,,,,,,,,,,,,61036c39549abd4fa911d139,40,2022-02-12_15h13.01.195,lexical_decision_task_DD_L2,2021.2.3,Linux armv8l,59.86231667,,,,,,,,,,0.9188,1,,,,,,,,,,,,,,,0,-0.357103963,-0.329185019,1,0,0,0.9188,button_left_main,-0.357103963,-0.329185019,1,0,0,,0,63,63,127,1,NINDY,HB,old,z,./images/NINDYHB.png,,,,,,,,,,,,,,,,,,,,,,,,,,,,,,,,,
,,,,,,,,,,,,,,,,,61036c39549abd4fa911d139,40,2022-02-12_15h13.01.195,lexical_decision_task_DD_L2,2021.2.3,Linux armv8l,59.86231667,,,,,,,,,,0.6543,1,,,,,,,,,,,,,,,0,-0.380688741,-0.266706942,1,0,0,0.6543,button_left_main,-0.380688741,-0.266706942,1,0,0,,0,64,64,134,1,TROSS,LB,old,z,./images/TROSSLB.png,,,,,,,,,,,,,,,,,,,,,,,,,,,,,,,,,
,,,,,,,,,,,,,,,,,61036c39549abd4fa911d139,40,2022-02-12_15h13.01.195,lexical_decision_task_DD_L2,2021.2.3,Linux armv8l,59.86231667,,,,,,,,,,0.8562,1,,,,,,,,,,,,,,,0,0.408707786,-0.345845873,1,0,0,0.8562,button_right_main,0.408707786,-0.345845873,1,0,0,,0,65,65,4,1,MUSCLE,LB,old,m,./images/MUSCLELB.png,,,,,,,,,,,,,,,,,,,,,,,,,,,,,,,,,
,,,,,,,,,,,,,,,,,61036c39549abd4fa911d139,40,2022-02-12_15h13.01.195,lexical_decision_task_DD_L2,2021.2.3,Linux armv8l,59.86231667,,,,,,,,,,0.8848,1,,,,,,,,,,,,,,,0,-0.359878649,-0.287533133,1,0,0,0.8848,button_left_main,-0.359878649,-0.287533133,1,0,0,,0,66,66,95,1,HANTY,LB,old,z,./images/HANTYLB.png,,,,,,,,,,,,,,,,,,,,,,,,,,,,,,,,,
,,,,,,,,,,,,,,,,,61036c39549abd4fa911d139,40,2022-02-12_15h13.01.195,lexical_decision_task_DD_L2,2021.2.3,Linux armv8l,59.86231667,,,,,,,,,,1.417,1,,,,,,,,,,,,,,,0,0.464201386,-0.311135802,1,0,0,1.417,button_right_main,0.464201386,-0.311135802,1,0,0,,0,67,67,8,1,TULIP,C,old,m,./images/TULIP.png,,,,,,,,,,,,,,,,,,,,,,,,,,,,,,,,,
,,,,,,,,,,,,,,,,,61036c39549abd4fa911d139,40,2022-02-12_15h13.01.195,lexical_decision_task_DD_L2,2021.2.3,Linux armv8l,59.86231667,,,,,,,,,,0.6926,1,,,,,,,,,,,,,,,0,0.380961017,-0.333350108,1,0,0,0.6926,button_right_main,0.380961017,-0.333350108,1,0,0,,0,68,68,74,1,CEMENT,C,old,m,./images/CEMENT.png,,,,,,,,,,,,,,,,,,,,,,,,,,,,,,,,,
,,,,,,,,,,,,,,,,,61036c39549abd4fa911d139,40,2022-02-12_15h13.01.195,lexical_decision_task_DD_L2,2021.2.3,Linux armv8l,59.86231667,,,,,,,,,,1.0259,1,,,,,,,,,,,,,,,0,-0.357103963,-0.300028649,1,0,0,1.0259,button_left_main,-0.357103963,-0.300028649,1,0,0,,0,69,69,161,1,BLAPS,LB,old,z,./images/BLAPSLB.png,,,,,,,,,,,,,,,,,,,,,,,,,,,,,,,,,
,,,,,,,,,,,,,,,,,61036c39549abd4fa911d139,40,2022-02-12_15h13.01.195,lexical_decision_task_DD_L2,2021.2.3,Linux armv8l,59.86231667,,,,,,,,,,0.8531,0,,,,,,,,,,,,,,,0,0.401771078,-0.315301015,1,0,0,0.8531,button_right_main,0.401771078,-0.315301015,1,0,0,,0,70,70,155,1,CANGY,LB,old,z,./images/CANGYLB.png,,,,,,,,,,,,,,,,,,,,,,,,,,,,,,,,,
,,,,,,,,,,,,,,,,,61036c39549abd4fa911d139,40,2022-02-12_15h13.01.195,lexical_decision_task_DD_L2,2021.2.3,Linux armv8l,59.86231667,,,,,,,,,,0.8367,1,,,,,,,,,,,,,,,0,0.401771078,-0.315301015,1,0,0,0.8367,button_right_main,0.401771078,-0.315301015,1,0,0,,0,71,71,6,1,SQUARE,HB,old,m,./images/SQUAREHB.png,,,,,,,,,,,,,,,,,,,,,,,,,,,,,,,,,
,,,,,,,,,,,,,,,,,61036c39549abd4fa911d139,40,2022-02-12_15h13.01.195,lexical_decision_task_DD_L2,2021.2.3,Linux armv8l,59.86231667,,,,,,,,,,0.7872,1,,,,,,,,,,,,,,,0,-0.366815341,-0.277814344,1,0,0,0.7872,button_left_main,-0.366815341,-0.277814344,1,0,0,,0,72,72,123,1,SEDGE,C,old,z,./images/SEDGE.png,,,,,,,,,,,,,,,,,,,,,,,,,,,,,,,,,
,,,,,,,,,,,,,,,,,61036c39549abd4fa911d139,40,2022-02-12_15h13.01.195,lexical_decision_task_DD_L2,2021.2.3,Linux armv8l,59.86231667,,,,,,,,,,0.8104,1,,,,,,,,,,,,,,,0,-0.368202692,-0.277814344,1,0,0,0.8104,button_left_main,-0.368202692,-0.277814344,1,0,0,,0,73,73,107,1,FASKS,LB,old,z,./images/FASKSLB.png,,,,,,,,,,,,,,,,,,,,,,,,,,,,,,,,,
,,,,,,,,,,,,,,,,,61036c39549abd4fa911d139,40,2022-02-12_15h13.01.195,lexical_decision_task_DD_L2,2021.2.3,Linux armv8l,59.86231667,,,,,,,,,,0.7235,1,,,,,,,,,,,,,,,0,-0.36959002,-0.279202582,1,0,0,0.7235,button_left_main,-0.36959002,-0.279202582,1,0,0,,0,74,74,138,1,PLICE,C,old,z,./images/PLICE.png,,,,,,,,,,,,,,,,,,,,,,,,,,,,,,,,,
,,,,,,,,,,,,,,,,,61036c39549abd4fa911d139,40,2022-02-12_15h13.01.195,lexical_decision_task_DD_L2,2021.2.3,Linux armv8l,59.86231667,,,,,,,,,,0.7669,1,,,,,,,,,,,,,,,0,-0.387625441,-0.300028649,1,0,0,0.7669,button_left_main,-0.387625441,-0.300028649,1,0,0,,0,75,75,163,1,GAMBA,HB,old,z,./images/GAMBAHB.png,,,,,,,,,,,,,,,,,,,,,,,,,,,,,,,,,
,,,,,,,,,,,,,,,,,61036c39549abd4fa911d139,40,2022-02-12_15h13.01.195,lexical_decision_task_DD_L2,2021.2.3,Linux armv8l,59.86231667,,,,,,,,,,0.7967,1,,,,,,,,,,,,,,,0,0.453102703,-0.284756283,1,0,0,0.7967,button_right_main,0.453102703,-0.284756283,1,0,0,,0,76,76,46,1,PEARL,LB,old,m,./images/PEARLLB.png,,,,,,,,,,,,,,,,,,,,,,,,,,,,,,,,,
,,,,,,,,,,,,,,,,,61036c39549abd4fa911d139,40,2022-02-12_15h13.01.195,lexical_decision_task_DD_L2,2021.2.3,Linux armv8l,59.86231667,,,,,,,,,,0.6369,1,,,,,,,,,,,,,,,0,0.41425719,-0.302805375,1,0,0,0.6369,button_right_main,0.41425719,-0.302805375,1,0,0,,0,77,77,48,1,SPORT,HB,old,m,./images/SPORTHB.png,,,,,,,,,,,,,,,,,,,,,,,,,,,,,,,,,
,,,,,,,,,,,,,,,,,61036c39549abd4fa911d139,40,2022-02-12_15h13.01.195,lexical_decision_task_DD_L2,2021.2.3,Linux armv8l,59.86231667,,,,,,,,,,0.8408,1,,,,,,,,,,,,,,,0,-0.359878649,-0.298640286,1,0,0,0.8408,button_left_main,-0.359878649,-0.298640286,1,0,0,,0,78,78,109,1,BURGE,HB,old,z,./images/BURGEHB.png,,,,,,,,,,,,,,,,,,,,,,,,,,,,,,,,,
,,,,,,,,,,,,,,,,,61036c39549abd4fa911d139,40,2022-02-12_15h13.01.195,lexical_decision_task_DD_L2,2021.2.3,Linux armv8l,59.86231667,,,,,,,,,,0.8131,1,,,,,,,,,,,,,,,0,-0.387625441,-0.279202582,1,0,0,0.8131,button_left_main,-0.387625441,-0.279202582,1,0,0,,0,79,79,145,1,LAMEL,HB,old,z,./images/LAMELHB.png,,,,,,,,,,,,,,,,,,,,,,,,,,,,,,,,,
,,,,,,,,,,,,,,,,,61036c39549abd4fa911d139,40,2022-02-12_15h13.01.195,lexical_decision_task_DD_L2,2021.2.3,Linux armv8l,59.86231667,,,,,,,,,,0.7794,1,,,,,,,,,,,,,,,0,-0.373752041,-0.295863436,1,0,0,0.7794,button_left_main,-0.373752041,-0.295863436,1,0,0,,0,80,80,103,1,FLORT,HB,old,z,./images/FLORTHB.png,,,,,,,,,,,,,,,,,,,,,,,,,,,,,,,,,
,,,,,,,,,,,,,,,,,61036c39549abd4fa911d139,40,2022-02-12_15h13.01.195,lexical_decision_task_DD_L2,2021.2.3,Linux armv8l,59.86231667,,,,,,,,,,0.5876,1,,,,,,,,,,,,,,,0,-0.389012784,-0.290309735,1,0,0,0.5876,button_left_main,-0.389012784,-0.290309735,1,0,0,,0,81,81,125,1,MOOKY,LB,old,z,./images/MOOKYLB.png,,,,,,,,,,,,,,,,,,,,,,,,,,,,,,,,,
,,,,,,,,,,,,,,,,,61036c39549abd4fa911d139,40,2022-02-12_15h13.01.195,lexical_decision_task_DD_L2,2021.2.3,Linux armv8l,59.86231667,,,,,,,,,,0.6474,0,,,,,,,,,,,,,,,0,-0.389012784,-0.288921496,1,0,0,0.6474,button_left_main,-0.389012784,-0.288921496,1,0,0,,0,82,82,56,1,PACKET,C,old,m,./images/PACKET.png,,,,,,,,,,,,,,,,,,,,,,,,,,,,,,,,,
,,,,,,,,,,,,,,,,,61036c39549abd4fa911d139,40,2022-02-12_15h13.01.195,lexical_decision_task_DD_L2,2021.2.3,Linux armv8l,59.86231667,,,,,,,,,,0.5983,0,,,,,,,,,,,,,,,0,-0.377914063,-0.279202582,1,0,0,0.5983,button_left_main,0.177022008,-0.412488914,1,0,0,,0,83,83,53,1,CARPET,C,old,m,./images/CARPET.png,break_done_button,,,,,,,,,,,,,,,,,,,,,,,,,,,,,,,,
,,,,,,,,,,,,,,,,,61036c39549abd4fa911d139,40,2022-02-12_15h13.01.195,lexical_decision_task_DD_L2,2021.2.3,Linux armv8l,59.86231667,,,,,,,,,,0.803,1,,,,,,,,,,,,,,,0,0.405933053,-0.313912528,1,0,0,0.803,button_right_main,0.405933053,-0.313912528,1,0,0,,0,84,84,0,1,TOMATO,HB,old,m,./images/TOMATOHB.png,,,,,,,,,,,,,,,,,,,,,,,,,,,,,,,,,
,,,,,,,,,,,,,,,,,61036c39549abd4fa911d139,40,2022-02-12_15h13.01.195,lexical_decision_task_DD_L2,2021.2.3,Linux armv8l,59.86231667,,,,,,,,,,0.8404,1,,,,,,,,,,,,,,,0,-0.365428006,-0.268095429,1,0,0,0.8404,button_left_main,-0.365428006,-0.268095429,1,0,0,,0,85,85,160,1,VEETS,HB,old,z,./images/VEETSHB.png,,,,,,,,,,,,,,,,,,,,,,,,,,,,,,,,,
,,,,,,,,,,,,,,,,,61036c39549abd4fa911d139,40,2022-02-12_15h13.01.195,lexical_decision_task_DD_L2,2021.2.3,Linux armv8l,59.86231667,,,,,,,,,,0.7439,1,,,,,,,,,,,,,,,0,0.397609103,-0.315301015,1,0,0,0.7439,button_right_main,0.397609103,-0.315301015,1,0,0,,0,86,86,3,1,FINGER,HB,old,m,./images/FINGERHB.png,,,,,,,,,,,,,,,,,,,,,,,,,,,,,,,,,
,,,,,,,,,,,,,,,,,61036c39549abd4fa911d139,40,2022-02-12_15h13.01.195,lexical_decision_task_DD_L2,2021.2.3,Linux armv8l,59.86231667,,,,,,,,,,0.7834,1,,,,,,,,,,,,,,,0,-0.351554606,-0.269483792,1,0,0,0.7834,button_left_main,-0.351554606,-0.269483792,1,0,0,,0,87,87,113,1,LINEW,LB,old,z,./images/LINEWLB.png,,,,,,,,,,,,,,,,,,,,,,,,,,,,,,,,,
,,,,,,,,,,,,,,,,,61036c39549abd4fa911d139,40,2022-02-12_15h13.01.195,lexical_decision_task_DD_L2,2021.2.3,Linux armv8l,59.86231667,,,,,,,,,,0.6333,1,,,,,,,,,,,,,,,0,0.390672271,-0.327796656,1,0,0,0.6333,button_right_main,0.390672271,-0.327796656,1,0,0,,0,88,88,76,1,INFANT,LB,old,m,./images/INFANTLB.png,,,,,,,,,,,,,,,,,,,,,,,,,,,,,,,,,
,,,,,,,,,,,,,,,,,61036c39549abd4fa911d139,40,2022-02-12_15h13.01.195,lexical_decision_task_DD_L2,2021.2.3,Linux armv8l,59.86231667,,,,,,,,,,0.7686,1,,,,,,,,,,,,,,,0,0.39899647,-0.311135802,1,0,0,0.7686,button_right_main,0.39899647,-0.311135802,1,0,0,,0,89,89,9,1,RHINO,HB,old,m,./images/RHINOHB.png,,,,,,,,,,,,,,,,,,,,,,,,,,,,,,,,,
,,,,,,,,,,,,,,,,,61036c39549abd4fa911d139,40,2022-02-12_15h13.01.195,lexical_decision_task_DD_L2,2021.2.3,Linux armv8l,59.86231667,,,,,,,,,,0.8033,1,,,,,,,,,,,,,,,0,0.39899647,-0.313912528,1,0,0,0.8033,button_right_main,0.39899647,-0.313912528,1,0,0,,0,90,90,29,1,CRUMB,C,old,m,./images/CRUMB.png,,,,,,,,,,,,,,,,,,,,,,,,,,,,,,,,,
,,,,,,,,,,,,,,,,,61036c39549abd4fa911d139,40,2022-02-12_15h13.01.195,lexical_decision_task_DD_L2,2021.2.3,Linux armv8l,59.86231667,,,,,,,,,,0.7399,1,,,,,,,,,,,,,,,0,-0.368202692,-0.286144521,1,0,0,0.7399,button_left_main,-0.368202692,-0.286144521,1,0,0,,0,91,91,89,1,DRIEK,LB,old,z,./images/DRIEKLB.png,,,,,,,,,,,,,,,,,,,,,,,,,,,,,,,,,
,,,,,,,,,,,,,,,,,61036c39549abd4fa911d139,40,2022-02-12_15h13.01.195,lexical_decision_task_DD_L2,2021.2.3,Linux armv8l,59.86231667,,,,,,,,,,0.7736,1,,,,,,,,,,,,,,,0,-0.344617898,-0.26393034,1,0,0,0.7736,button_left_main,-0.344617898,-0.26393034,1,0,0,,0,92,92,101,1,GLEET,LB,old,z,./images/GLEETLB.png,,,,,,,,,,,,,,,,,,,,,,,,,,,,,,,,,
,,,,,,,,,,,,,,,,,61036c39549abd4fa911d139,40,2022-02-12_15h13.01.195,lexical_decision_task_DD_L2,2021.2.3,Linux armv8l,59.86231667,,,,,,,,,,0.7211,1,,,,,,,,,,,,,,,0,0.401771078,-0.325019805,1,0,0,0.7211,button_right_main,0.401771078,-0.325019805,1,0,0,,0,93,93,58,1,BABOON,LB,old,m,./images/BABOONLB.png,,,,,,,,,,,,,,,,,,,,,,,,,,,,,,,,,
,,,,,,,,,,,,,,,,,61036c39549abd4fa911d139,40,2022-02-12_15h13.01.195,lexical_decision_task_DD_L2,2021.2.3,Linux armv8l,59.86231667,,,,,,,,,,0.6222,1,,,,,,,,,,,,,,,0,0.397609103,-0.306970713,1,0,0,0.6222,button_right_main,0.397609103,-0.306970713,1,0,0,,0,94,94,45,1,KITTEN,HB,old,m,./images/KITTENHB.png,,,,,,,,,,,,,,,,,,,,,,,,,,,,,,,,,
,,,,,,,,,,,,,,,,,61036c39549abd4fa911d139,40,2022-02-12_15h13.01.195,lexical_decision_task_DD_L2,2021.2.3,Linux armv8l,59.86231667,,,,,,,,,,0.6288,1,,,,,,,,,,,,,,,0,0.393447129,-0.311135802,1,0,0,0.6288,button_right_main,0.393447129,-0.311135802,1,0,0,,0,95,95,67,1,SAILOR,LB,old,m,./images/SAILORLB.png,,,,,,,,,,,,,,,,,,,,,,,,,,,,,,,,,
,,,,,,,,,,,,,,,,,61036c39549abd4fa911d139,40,2022-02-12_15h13.01.195,lexical_decision_task_DD_L2,2021.2.3,Linux armv8l,59.86231667,,,,,,,,,,0.7073,1,,,,,,,,,,,,,,,0,0.408707786,-0.320854716,1,0,0,0.7073,button_right_main,0.408707786,-0.320854716,1,0,0,,0,96,96,81,1,POODLE,HB,old,m,./images/POODLEHB.png,,,,,,,,,,,,,,,,,,,,,,,,,,,,,,,,,
,,,,,,,,,,,,,,,,,61036c39549abd4fa911d139,40,2022-02-12_15h13.01.195,lexical_decision_task_DD_L2,2021.2.3,Linux armv8l,59.86231667,,,,,,,,,,0.754,0,,,,,,,,,,,,,,,0,0.408707786,-0.319466353,1,0,0,0.754,button_right_main,0.408707786,-0.319466353,1,0,0,,0,97,97,110,1,CRUNK,LB,old,z,./images/CRUNKLB.png,,,,,,,,,,,,,,,,,,,,,,,,,,,,,,,,,
,,,,,,,,,,,,,,,,,61036c39549abd4fa911d139,40,2022-02-12_15h13.01.195,lexical_decision_task_DD_L2,2021.2.3,Linux armv8l,59.86231667,,,,,,,,,,0.7701,1,,,,,,,,,,,,,,,0,0.40732042,-0.318077866,1,0,0,0.7701,button_right_main,0.40732042,-0.318077866,1,0,0,,0,98,98,11,1,BONNET,C,old,m,./images/BONNET.png,,,,,,,,,,,,,,,,,,,,,,,,,,,,,,,,,
,,,,,,,,,,,,,,,,,61036c39549abd4fa911d139,40,2022-02-12_15h13.01.195,lexical_decision_task_DD_L2,2021.2.3,Linux armv8l,59.86231667,,,,,,,,,,0.8449,1,,,,,,,,,,,,,,,0,0.40732042,-0.316689378,1,0,0,0.8449,button_right_main,0.40732042,-0.316689378,1,0,0,,0,99,99,17,1,SKIING,C,old,m,./images/SKIING.png,,,,,,,,,,,,,,,,,,,,,,,,,,,,,,,,,
,,,,,,,,,,,,,,,,,61036c39549abd4fa911d139,40,2022-02-12_15h13.01.195,lexical_decision_task_DD_L2,2021.2.3,Linux armv8l,59.86231667,,,,,,,,,,0.7423,1,,,,,,,,,,,,,,,0,0.40732042,-0.315301015,1,0,0,0.7423,button_right_main,0.40732042,-0.315301015,1,0,0,,0,100,100,27,1,ATTIC,HB,old,m,./images/ATTICHB.png,,,,,,,,,,,,,,,,,,,,,,,,,,,,,,,,,
,,,,,,,,,,,,,,,,,61036c39549abd4fa911d139,40,2022-02-12_15h13.01.195,lexical_decision_task_DD_L2,2021.2.3,Linux armv8l,59.86231667,,,,,,,,,,0.8507,1,,,,,,,,,,,,,,,0,-0.359878649,-0.294475073,1,0,0,0.8507,button_left_main,-0.359878649,-0.294475073,1,0,0,,0,101,101,128,1,GRIFT,LB,old,z,./images/GRIFTLB.png,,,,,,,,,,,,,,,,,,,,,,,,,,,,,,,,,
,,,,,,,,,,,,,,,,,61036c39549abd4fa911d139,40,2022-02-12_15h13.01.195,lexical_decision_task_DD_L2,2021.2.3,Linux armv8l,59.86231667,,,,,,,,,,0.8552,1,,,,,,,,,,,,,,,0,-0.377914063,-0.25421155,1,0,0,0.8552,button_left_main,-0.377914063,-0.25421155,1,0,0,,0,102,102,93,1,SMONE,C,old,z,./images/SMONE.png,,,,,,,,,,,,,,,,,,,,,,,,,,,,,,,,,
,,,,,,,,,,,,,,,,,61036c39549abd4fa911d139,40,2022-02-12_15h13.01.195,lexical_decision_task_DD_L2,2021.2.3,Linux armv8l,59.86231667,,,,,,,,,,0.908,1,,,,,,,,,,,,,,,0,-0.380688741,-0.277814344,1,0,0,0.908,button_left_main,-0.380688741,-0.277814344,1,0,0,,0,103,103,99,1,BACKY,C,old,z,./images/BACKY.png,,,,,,,,,,,,,,,,,,,,,,,,,,,,,,,,,
,,,,,,,,,,,,,,,,,61036c39549abd4fa911d139,40,2022-02-12_15h13.01.195,lexical_decision_task_DD_L2,2021.2.3,Linux armv8l,59.86231667,,,,,,,,,,1.1901,0,,,,,,,,,,,,,,,0,0.390672271,-0.343068897,1,0,0,1.1901,button_right_main,0.390672271,-0.343068897,1,0,0,,0,104,104,157,1,INLER,HB,old,z,./images/INLERHB.png,,,,,,,,,,,,,,,,,,,,,,,,,,,,,,,,,
,,,,,,,,,,,,,,,,,61036c39549abd4fa911d139,40,2022-02-12_15h13.01.195,lexical_decision_task_DD_L2,2021.2.3,Linux armv8l,59.86231667,,,,,,,,,,0.8205,1,,,,,,,,,,,,,,,0,0.439229288,-0.286144521,1,0,0,0.8205,button_right_main,0.439229288,-0.286144521,1,0,0,,0,105,105,44,1,LIZARD,C,old,m,./images/LIZARD.png,,,,,,,,,,,,,,,,,,,,,,,,,,,,,,,,,
,,,,,,,,,,,,,,,,,61036c39549abd4fa911d139,40,2022-02-12_15h13.01.195,lexical_decision_task_DD_L2,2021.2.3,Linux armv8l,59.86231667,,,,,,,,,,1.0632,1,,,,,,,,,,,,,,,0,-0.377914063,-0.279202582,1,0,0,1.0632,button_left_main,-0.377914063,-0.279202582,1,0,0,,0,106,106,120,1,RINED,C,old,z,./images/RINED.png,,,,,,,,,,,,,,,,,,,,,,,,,,,,,,,,,
,,,,,,,,,,,,,,,,,61036c39549abd4fa911d139,40,2022-02-12_15h13.01.195,lexical_decision_task_DD_L2,2021.2.3,Linux armv8l,59.86231667,,,,,,,,,,0.9976,1,,,,,,,,,,,,,,,0,-0.408435549,-0.26393034,1,0,0,0.9976,button_left_main,-0.408435549,-0.26393034,1,0,0,,0,107,107,162,1,LEICH,C,old,z,./images/LEICH.png,,,,,,,,,,,,,,,,,,,,,,,,,,,,,,,,,
,,,,,,,,,,,,,,,,,61036c39549abd4fa911d139,40,2022-02-12_15h13.01.195,lexical_decision_task_DD_L2,2021.2.3,Linux armv8l,59.86231667,,,,,,,,,,1.2455,1,,,,,,,,,,,,,,,0,-0.359878649,-0.283367795,1,0,0,1.2455,button_left_main,-0.359878649,-0.283367795,1,0,0,,0,108,108,133,1,POWDY,HB,old,z,./images/POWDYHB.png,,,,,,,,,,,,,,,,,,,,,,,,,,,,,,,,,
,,,,,,,,,,,,,,,,,61036c39549abd4fa911d139,40,2022-02-12_15h13.01.195,lexical_decision_task_DD_L2,2021.2.3,Linux armv8l,59.86231667,,,,,,,,,,0.8174,1,,,,,,,,,,,,,,,0,0.403158445,-0.304193863,1,0,0,0.8174,button_right_main,0.403158445,-0.304193863,1,0,0,,0,109,109,22,1,MELON,LB,old,m,./images/MELONLB.png,,,,,,,,,,,,,,,,,,,,,,,,,,,,,,,,,
,,,,,,,,,,,,,,,,,61036c39549abd4fa911d139,40,2022-02-12_15h13.01.195,lexical_decision_task_DD_L2,2021.2.3,Linux armv8l,59.86231667,,,,,,,,,,0.7543,1,,,,,,,,,,,,,,,0,0.390672271,-0.326408168,1,0,0,0.7543,button_right_main,0.390672271,-0.326408168,1,0,0,,0,110,110,32,1,BARREL,C,old,m,./images/BARREL.png,,,,,,,,,,,,,,,,,,,,,,,,,,,,,,,,,
,,,,,,,,,,,,,,,,,61036c39549abd4fa911d139,40,2022-02-12_15h13.01.195,lexical_decision_task_DD_L2,2021.2.3,Linux armv8l,59.86231667,,,,,,,,,,1.05,1,,,,,,,,,,,,,,,0,-0.379301414,-0.275037493,1,0,0,1.05,button_left_main,-0.379301414,-0.275037493,1,0,0,,0,111,111,142,1,PLASK,HB,old,z,./images/PLASKHB.png,,,,,,,,,,,,,,,,,,,,,,,,,,,,,,,,,
,,,,,,,,,,,,,,,,,61036c39549abd4fa911d139,40,2022-02-12_15h13.01.195,lexical_decision_task_DD_L2,2021.2.3,Linux armv8l,59.86231667,,,,,,,,,,0.7456,1,,,,,,,,,,,,,,,0,0.404545749,-0.31252429,1,0,0,0.7456,button_right_main,0.404545749,-0.31252429,1,0,0,,0,112,112,16,1,PENCE,LB,old,m,./images/PENCELB.png,,,,,,,,,,,,,,,,,,,,,,,,,,,,,,,,,
,,,,,,,,,,,,,,,,,61036c39549abd4fa911d139,40,2022-02-12_15h13.01.195,lexical_decision_task_DD_L2,2021.2.3,Linux armv8l,59.86231667,,,,,,,,,,0.7851,1,,,,,,,,,,,,,,,0,0.404545749,-0.31252429,1,0,0,0.7851,button_right_main,0.404545749,-0.31252429,1,0,0,,0,113,113,63,1,MIRROR,HB,old,m,./images/MIRRORHB.png,,,,,,,,,,,,,,,,,,,,,,,,,,,,,,,,,
,,,,,,,,,,,,,,,,,61036c39549abd4fa911d139,40,2022-02-12_15h13.01.195,lexical_decision_task_DD_L2,2021.2.3,Linux armv8l,59.86231667,,,,,,,,,,0.779,1,,,,,,,,,,,,,,,0,0.382348384,-0.327796656,1,0,0,0.779,button_right_main,0.382348384,-0.327796656,1,0,0,,0,114,114,31,1,QUILL,LB,old,m,./images/QUILLLB.png,,,,,,,,,,,,,,,,,,,,,,,,,,,,,,,,,
,,,,,,,,,,,,,,,,,61036c39549abd4fa911d139,40,2022-02-12_15h13.01.195,lexical_decision_task_DD_L2,2021.2.3,Linux armv8l,59.86231667,,,,,,,,,,0.8267,1,,,,,,,,,,,,,,,0,0.382348384,-0.327796656,1,0,0,0.8267,button_right_main,0.382348384,-0.327796656,1,0,0,,0,115,115,60,1,TWINS,HB,old,m,./images/TWINSHB.png,,,,,,,,,,,,,,,,,,,,,,,,,,,,,,,,,
,,,,,,,,,,,,,,,,,61036c39549abd4fa911d139,40,2022-02-12_15h13.01.195,lexical_decision_task_DD_L2,2021.2.3,Linux armv8l,59.86231667,,,,,,,,,,0.6729,1,,,,,,,,,,,,,,,0,0.397609103,-0.313912528,1,0,0,0.6729,button_right_main,0.397609103,-0.313912528,1,0,0,,0,116,116,73,1,SNACK,LB,old,m,./images/SNACKLB.png,,,,,,,,,,,,,,,,,,,,,,,,,,,,,,,,,
,,,,,,,,,,,,,,,,,61036c39549abd4fa911d139,40,2022-02-12_15h13.01.195,lexical_decision_task_DD_L2,2021.2.3,Linux armv8l,59.86231667,,,,,,,,,,0.6837,1,,,,,,,,,,,,,,,0,0.397609103,-0.31252429,1,0,0,0.6837,button_right_main,0.397609103,-0.31252429,1,0,0,,0,117,117,20,1,CRADLE,C,old,m,./images/CRADLE.png,,,,,,,,,,,,,,,,,,,,,,,,,,,,,,,,,
,,,,,,,,,,,,,,,,,61036c39549abd4fa911d139,40,2022-02-12_15h13.01.195,lexical_decision_task_DD_L2,2021.2.3,Linux armv8l,59.86231667,,,,,,,,,,0.7046,1,,,,,,,,,,,,,,,0,-0.384850763,-0.268095429,1,0,0,0.7046,button_left_main,-0.384850763,-0.268095429,1,0,0,,0,118,118,117,1,STEEG,C,old,z,./images/STEEG.png,,,,,,,,,,,,,,,,,,,,,,,,,,,,,,,,,
,,,,,,,,,,,,,,,,,61036c39549abd4fa911d139,40,2022-02-12_15h13.01.195,lexical_decision_task_DD_L2,2021.2.3,Linux armv8l,59.86231667,,,,,,,,,,0.9619,1,,,,,,,,,,,,,,,0,-0.380688741,-0.287533133,1,0,0,0.9619,button_left_main,-0.380688741,-0.287533133,1,0,0,,0,119,119,114,1,RIKES,C,old,z,./images/RIKES.png,,,,,,,,,,,,,,,,,,,,,,,,,,,,,,,,,
,,,,,,,,,,,,,,,,,61036c39549abd4fa911d139,40,2022-02-12_15h13.01.195,lexical_decision_task_DD_L2,2021.2.3,Linux armv8l,59.86231667,,,,,,,,,,0.869,1,,,,,,,,,,,,,,,0,-0.380688741,-0.286144521,1,0,0,0.869,button_left_main,-0.380688741,-0.286144521,1,0,0,,0,120,120,122,1,BLOOT,LB,old,z,./images/BLOOTLB.png,,,,,,,,,,,,,,,,,,,,,,,,,,,,,,,,,
,,,,,,,,,,,,,,,,,61036c39549abd4fa911d139,40,2022-02-12_15h13.01.195,lexical_decision_task_DD_L2,2021.2.3,Linux armv8l,59.86231667,,,,,,,,,,0.9305,0,,,,,,,,,,,,,,,0,0.408707786,-0.301417137,1,0,0,0.9305,button_right_main,0.408707786,-0.301417137,1,0,0,,0,121,121,97,1,CHIDS,HB,old,z,./images/CHIDSHB.png,,,,,,,,,,,,,,,,,,,,,,,,,,,,,,,,,
,,,,,,,,,,,,,,,,,61036c39549abd4fa911d139,40,2022-02-12_15h13.01.195,lexical_decision_task_DD_L2,2021.2.3,Linux armv8l,59.86231667,,,,,,,,,,0.7966,1,,,,,,,,,,,,,,,0,0.40732042,-0.301417137,1,0,0,0.7966,button_right_main,0.40732042,-0.301417137,1,0,0,,0,122,122,14,1,PICKLE,C,old,m,./images/PICKLE.png,,,,,,,,,,,,,,,,,,,,,,,,,,,,,,,,,
,,,,,,,,,,,,,,,,,61036c39549abd4fa911d139,40,2022-02-12_15h13.01.195,lexical_decision_task_DD_L2,2021.2.3,Linux armv8l,59.86231667,,,,,,,,,,0.7939,1,,,,,,,,,,,,,,,0,0.40732042,-0.302805375,1,0,0,0.7939,button_right_main,0.40732042,-0.302805375,1,0,0,,0,123,123,62,1,PURSE,C,old,m,./images/PURSE.png,,,,,,,,,,,,,,,,,,,,,,,,,,,,,,,,,
,,,,,,,,,,,,,,,,,61036c39549abd4fa911d139,40,2022-02-12_15h13.01.195,lexical_decision_task_DD_L2,2021.2.3,Linux armv8l,59.86231667,,,,,,,,,,0.7572,1,,,,,,,,,,,,,,,0,0.405933053,-0.304193863,1,0,0,0.7572,button_right_main,0.405933053,-0.304193863,1,0,0,,0,124,124,1,1,PLANK,LB,old,m,./images/PLANKLB.png,,,,,,,,,,,,,,,,,,,,,,,,,,,,,,,,,
,,,,,,,,,,,,,,,,,61036c39549abd4fa911d139,40,2022-02-12_15h13.01.195,lexical_decision_task_DD_L2,2021.2.3,Linux armv8l,59.86231667,,,,,,,,,,0.6643,1,,,,,,,,,,,,,,,0,0.380961017,-0.325019805,1,0,0,0.6643,button_right_main,-0.040790418,-0.413877402,1,0,0,,0,125,125,28,1,FALCON,LB,old,m,./images/FALCONLB.png,break_done_button,,,,,,,,,,,,,,,,,,,,,,,,,,,,,,,,
,,,,,,,,,,,,,,,,,61036c39549abd4fa911d139,40,2022-02-12_15h13.01.195,lexical_decision_task_DD_L2,2021.2.3,Linux armv8l,59.86231667,,,,,,,,,,1.0292,1,,,,,,,,,,,,,,,0,-0.316871098,-0.302805375,1,0,0,1.0292,button_left_main,-0.316871098,-0.302805375,1,0,0,,0,126,126,115,1,MAWNS,HB,old,z,./images/MAWNSHB.png,,,,,,,,,,,,,,,,,,,,,,,,,,,,,,,,,
,,,,,,,,,,,,,,,,,61036c39549abd4fa911d139,40,2022-02-12_15h13.01.195,lexical_decision_task_DD_L2,2021.2.3,Linux armv8l,59.86231667,,,,,,,,,,0.8368,1,,,,,,,,,,,,,,,0,-0.37652672,-0.279202582,1,0,0,0.8368,button_left_main,-0.37652672,-0.279202582,1,0,0,,0,127,127,111,1,HOSSE,C,old,z,./images/HOSSE.png,,,,,,,,,,,,,,,,,,,,,,,,,,,,,,,,,
,,,,,,,,,,,,,,,,,61036c39549abd4fa911d139,40,2022-02-12_15h13.01.195,lexical_decision_task_DD_L2,2021.2.3,Linux armv8l,59.86231667,,,,,,,,,,0.837,1,,,,,,,,,,,,,,,0,0.400383712,-0.325019805,1,0,0,0.837,button_right_main,0.400383712,-0.325019805,1,0,0,,0,128,128,68,1,TORCH,C,old,m,./images/TORCH.png,,,,,,,,,,,,,,,,,,,,,,,,,,,,,,,,,
,,,,,,,,,,,,,,,,,61036c39549abd4fa911d139,40,2022-02-12_15h13.01.195,lexical_decision_task_DD_L2,2021.2.3,Linux armv8l,59.86231667,,,,,,,,,,0.8446,1,,,,,,,,,,,,,,,0,-0.366815341,-0.277814344,1,0,0,0.8446,button_left_main,-0.366815341,-0.277814344,1,0,0,,0,129,129,124,1,TUNCH,HB,old,z,./images/TUNCHHB.png,,,,,,,,,,,,,,,,,,,,,,,,,,,,,,,,,
,,,,,,,,,,,,,,,,,61036c39549abd4fa911d139,40,2022-02-12_15h13.01.195,lexical_decision_task_DD_L2,2021.2.3,Linux armv8l,59.86231667,,,,,,,,,,0.8818,1,,,,,,,,,,,,,,,0,-0.365428006,-0.277814344,1,0,0,0.8818,button_left_main,-0.365428006,-0.277814344,1,0,0,,0,130,130,88,1,GLUSH,HB,old,z,./images/GLUSHHB.png,,,,,,,,,,,,,,,,,,,,,,,,,,,,,,,,,
,,,,,,,,,,,,,,,,,61036c39549abd4fa911d139,40,2022-02-12_15h13.01.195,lexical_decision_task_DD_L2,2021.2.3,Linux armv8l,59.86231667,,,,,,,,,,0.887,1,,,,,,,,,,,,,,,0,0.387897725,-0.343068897,1,0,0,0.887,button_right_main,0.387897725,-0.343068897,1,0,0,,0,131,131,66,1,SWEAT,HB,old,m,./images/SWEATHB.png,,,,,,,,,,,,,,,,,,,,,,,,,,,,,,,,,
,,,,,,,,,,,,,,,,,61036c39549abd4fa911d139,40,2022-02-12_15h13.01.195,lexical_decision_task_DD_L2,2021.2.3,Linux armv8l,59.86231667,,,,,,,,,,0.8298,1,,,,,,,,,,,,,,,0,-0.389012784,-0.258376764,1,0,0,0.8298,button_left_main,-0.389012784,-0.258376764,1,0,0,,0,132,132,148,1,JOMS,HB,old,z,./images/JOMSHB.png,,,,,,,,,,,,,,,,,,,,,,,,,,,,,,,,,
,,,,,,,,,,,,,,,,,61036c39549abd4fa911d139,40,2022-02-12_15h13.01.195,lexical_decision_task_DD_L2,2021.2.3,Linux armv8l,59.86231667,,,,,,,,,,0.9373,1,,,,,,,,,,,,,,,0,-0.387625441,-0.258376764,1,0,0,0.9373,button_left_main,-0.387625441,-0.258376764,1,0,0,,0,133,133,166,1,SHORY,HB,old,z,./images/SHORYHB.png,,,,,,,,,,,,,,,,,,,,,,,,,,,,,,,,,
,,,,,,,,,,,,,,,,,61036c39549abd4fa911d139,40,2022-02-12_15h13.01.195,lexical_decision_task_DD_L2,2021.2.3,Linux armv8l,59.86231667,,,,,,,,,,0.9626,1,,,,,,,,,,,,,,,0,-0.368202692,-0.27364913,1,0,0,0.9626,button_left_main,-0.368202692,-0.27364913,1,0,0,,0,134,134,108,1,GRUET,C,old,z,./images/GRUET.png,,,,,,,,,,,,,,,,,,,,,,,,,,,,,,,,,
,,,,,,,,,,,,,,,,,61036c39549abd4fa911d139,40,2022-02-12_15h13.01.195,lexical_decision_task_DD_L2,2021.2.3,Linux armv8l,59.86231667,,,,,,,,,,0.7391,1,,,,,,,,,,,,,,,0,-0.368202692,-0.275037493,1,0,0,0.7391,button_left_main,-0.368202692,-0.275037493,1,0,0,,0,135,135,86,1,AIFED,LB,old,z,./images/AIFEDLB.png,,,,,,,,,,,,,,,,,,,,,,,,,,,,,,,,,
,,,,,,,,,,,,,,,,,61036c39549abd4fa911d139,40,2022-02-12_15h13.01.195,lexical_decision_task_DD_L2,2021.2.3,Linux armv8l,59.86231667,,,,,,,,,,0.6968,1,,,,,,,,,,,,,,,0,-0.366815341,-0.276425856,1,0,0,0.6968,button_left_main,-0.366815341,-0.276425856,1,0,0,,0,136,136,100,1,DRIBS,HB,old,z,./images/DRIBSHB.png,,,,,,,,,,,,,,,,,,,,,,,,,,,,,,,,,
,,,,,,,,,,,,,,,,,61036c39549abd4fa911d139,40,2022-02-12_15h13.01.195,lexical_decision_task_DD_L2,2021.2.3,Linux armv8l,59.86231667,,,,,,,,,,0.8015,1,,,,,,,,,,,,,,,0,-0.348779935,-0.279202582,1,0,0,0.8015,button_left_main,-0.348779935,-0.279202582,1,0,0,,0,137,137,94,1,BLANS,HB,old,z,./images/BLANSHB.png,,,,,,,,,,,,,,,,,,,,,,,,,,,,,,,,,
,,,,,,,,,,,,,,,,,61036c39549abd4fa911d139,40,2022-02-12_15h13.01.195,lexical_decision_task_DD_L2,2021.2.3,Linux armv8l,59.86231667,,,,,,,,,,0.7162,1,,,,,,,,,,,,,,,0,-0.382076084,-0.272260643,1,0,0,0.7162,button_left_main,-0.382076084,-0.272260643,1,0,0,,0,138,138,102,1,DULLE,C,old,z,./images/DULLE.png,,,,,,,,,,,,,,,,,,,,,,,,,,,,,,,,,
,,,,,,,,,,,,,,,,,61036c39549abd4fa911d139,40,2022-02-12_15h13.01.195,lexical_decision_task_DD_L2,2021.2.3,Linux armv8l,59.86231667,,,,,,,,,,0.6199,1,,,,,,,,,,,,,,,0,-0.382076084,-0.272260643,1,0,0,0.6199,button_left_main,-0.382076084,-0.272260643,1,0,0,,0,139,139,137,1,JOOST,LB,old,z,./images/JOOSTLB.png,,,,,,,,,,,,,,,,,,,,,,,,,,,,,,,,,
,,,,,,,,,,,,,,,,,61036c39549abd4fa911d139,40,2022-02-12_15h13.01.195,lexical_decision_task_DD_L2,2021.2.3,Linux armv8l,59.86231667,,,,,,,,,,0.7077,1,,,,,,,,,,,,,,,0,-0.382076084,-0.27087228,1,0,0,0.7077,button_left_main,-0.382076084,-0.27087228,1,0,0,,0,140,140,152,1,FRAIN,LB,old,z,./images/FRAINLB.png,,,,,,,,,,,,,,,,,,,,,,,,,,,,,,,,,
,,,,,,,,,,,,,,,,,61036c39549abd4fa911d139,40,2022-02-12_15h13.01.195,lexical_decision_task_DD_L2,2021.2.3,Linux armv8l,59.86231667,,,,,,,,,,0.6474,0,,,,,,,,,,,,,,,0,-0.382076084,-0.272260643,1,0,0,0.6474,button_left_main,-0.382076084,-0.272260643,1,0,0,,0,141,141,39,1,SHELF,HB,old,m,./images/SHELFHB.png,,,,,,,,,,,,,,,,,,,,,,,,,,,,,,,,,
,,,,,,,,,,,,,,,,,61036c39549abd4fa911d139,40,2022-02-12_15h13.01.195,lexical_decision_task_DD_L2,2021.2.3,Linux armv8l,59.86231667,,,,,,,,,,0.8049,1,,,,,,,,,,,,,,,0,-0.39733682,-0.262541728,1,0,0,0.8049,button_left_main,-0.39733682,-0.262541728,1,0,0,,0,142,142,132,1,SCIFF,C,old,z,./images/SCIFF.png,,,,,,,,,,,,,,,,,,,,,,,,,,,,,,,,,
,,,,,,,,,,,,,,,,,61036c39549abd4fa911d139,40,2022-02-12_15h13.01.195,lexical_decision_task_DD_L2,2021.2.3,Linux armv8l,59.86231667,,,,,,,,,,0.8186,1,,,,,,,,,,,,,,,0,0.394834308,-0.338903809,1,0,0,0.8186,button_right_main,0.394834308,-0.338903809,1,0,0,,0,143,143,77,1,COUCH,C,old,m,./images/COUCH.png,,,,,,,,,,,,,,,,,,,,,,,,,,,,,,,,,
,,,,,,,,,,,,,,,,,61036c39549abd4fa911d139,40,2022-02-12_15h13.01.195,lexical_decision_task_DD_L2,2021.2.3,Linux armv8l,59.86231667,,,,,,,,,,0.7965,1,,,,,,,,,,,,,,,0,0.394834308,-0.340292296,1,0,0,0.7965,button_right_main,0.394834308,-0.340292296,1,0,0,,0,144,144,59,1,BURIAL,C,old,m,./images/BURIAL.png,,,,,,,,,,,,,,,,,,,,,,,,,,,,,,,,,
,,,,,,,,,,,,,,,,,61036c39549abd4fa911d139,40,2022-02-12_15h13.01.195,lexical_decision_task_DD_L2,2021.2.3,Linux armv8l,59.86231667,,,,,,,,,,0.8412,1,,,,,,,,,,,,,,,0,-0.389012784,-0.266706942,1,0,0,0.8412,button_left_main,-0.389012784,-0.266706942,1,0,0,,0,145,145,130,1,CRILL,HB,old,z,./images/CRILLHB.png,,,,,,,,,,,,,,,,,,,,,,,,,,,,,,,,,
,,,,,,,,,,,,,,,,,61036c39549abd4fa911d139,40,2022-02-12_15h13.01.195,lexical_decision_task_DD_L2,2021.2.3,Linux armv8l,59.86231667,,,,,,,,,,1.032,1,,,,,,,,,,,,,,,0,-0.389012784,-0.268095429,1,0,0,1.032,button_left_main,-0.389012784,-0.268095429,1,0,0,,0,146,146,106,1,CLUMS,HB,old,z,./images/CLUMSHB.png,,,,,,,,,,,,,,,,,,,,,,,,,,,,,,,,,
,,,,,,,,,,,,,,,,,61036c39549abd4fa911d139,40,2022-02-12_15h13.01.195,lexical_decision_task_DD_L2,2021.2.3,Linux armv8l,59.86231667,,,,,,,,,,0.8228,0,,,,,,,,,,,,,,,0,0.378186222,-0.358341388,1,0,0,0.8228,button_right_main,0.378186222,-0.358341388,1,0,0,,0,147,147,85,1,CHULK,HB,old,z,./images/CHULKHB.png,,,,,,,,,,,,,,,,,,,,,,,,,,,,,,,,,
,,,,,,,,,,,,,,,,,61036c39549abd4fa911d139,40,2022-02-12_15h13.01.195,lexical_decision_task_DD_L2,2021.2.3,Linux armv8l,59.86231667,,,,,,,,,,0.8218,1,,,,,,,,,,,,,,,0,0.379573526,-0.356952901,1,0,0,0.8218,button_right_main,0.379573526,-0.356952901,1,0,0,,0,148,148,18,1,JAGUAR,HB,old,m,./images/JAGUARHB.png,,,,,,,,,,,,,,,,,,,,,,,,,,,,,,,,,
,,,,,,,,,,,,,,,,,61036c39549abd4fa911d139,40,2022-02-12_15h13.01.195,lexical_decision_task_DD_L2,2021.2.3,Linux armv8l,59.86231667,,,,,,,,,,0.6818,1,,,,,,,,,,,,,,,0,0.392059824,-0.323631442,1,0,0,0.6818,button_right_main,0.392059824,-0.323631442,1,0,0,,0,149,149,34,1,CANYON,LB,old,m,./images/CANYONLB.png,,,,,,,,,,,,,,,,,,,,,,,,,,,,,,,,,
,,,,,,,,,,,,,,,,,61036c39549abd4fa911d139,40,2022-02-12_15h13.01.195,lexical_decision_task_DD_L2,2021.2.3,Linux armv8l,59.86231667,,,,,,,,,,0.8126,1,,,,,,,,,,,,,,,0,-0.39733682,-0.27087228,1,0,0,0.8126,button_left_main,-0.39733682,-0.27087228,1,0,0,,0,150,150,90,1,NEAST,C,old,z,./images/NEAST.png,,,,,,,,,,,,,,,,,,,,,,,,,,,,,,,,,
,,,,,,,,,,,,,,,,,61036c39549abd4fa911d139,40,2022-02-12_15h13.01.195,lexical_decision_task_DD_L2,2021.2.3,Linux armv8l,59.86231667,,,,,,,,,,0.8345,1,,,,,,,,,,,,,,,0,0.40732042,-0.327796656,1,0,0,0.8345,button_right_main,0.40732042,-0.327796656,1,0,0,,0,151,151,71,1,PIMPLE,C,old,m,./images/PIMPLE.png,,,,,,,,,,,,,,,,,,,,,,,,,,,,,,,,,
,,,,,,,,,,,,,,,,,61036c39549abd4fa911d139,40,2022-02-12_15h13.01.195,lexical_decision_task_DD_L2,2021.2.3,Linux armv8l,59.86231667,,,,,,,,,,0.8225,1,,,,,,,,,,,,,,,0,0.40732042,-0.327796656,1,0,0,0.8225,button_right_main,0.40732042,-0.327796656,1,0,0,,0,152,152,79,1,CRUST,LB,old,m,./images/CRUSTLB.png,,,,,,,,,,,,,,,,,,,,,,,,,,,,,,,,,
,,,,,,,,,,,,,,,,,61036c39549abd4fa911d139,40,2022-02-12_15h13.01.195,lexical_decision_task_DD_L2,2021.2.3,Linux armv8l,59.86231667,,,,,,,,,,0.7446,1,,,,,,,,,,,,,,,0,-0.365428006,-0.286144521,1,0,0,0.7446,button_left_main,-0.365428006,-0.286144521,1,0,0,,0,153,153,144,1,NAIRY,C,old,z,./images/NAIRY.png,,,,,,,,,,,,,,,,,,,,,,,,,,,,,,,,,
,,,,,,,,,,,,,,,,,61036c39549abd4fa911d139,40,2022-02-12_15h13.01.195,lexical_decision_task_DD_L2,2021.2.3,Linux armv8l,59.86231667,,,,,,,,,,0.9778,1,,,,,,,,,,,,,,,0,-0.351554606,-0.31252429,1,0,0,0.9778,button_left_main,-0.351554606,-0.31252429,1,0,0,,0,154,154,146,1,MOOST,LB,old,z,./images/MOOSTLB.png,,,,,,,,,,,,,,,,,,,,,,,,,,,,,,,,,
,,,,,,,,,,,,,,,,,61036c39549abd4fa911d139,40,2022-02-12_15h13.01.195,lexical_decision_task_DD_L2,2021.2.3,Linux armv8l,59.86231667,,,,,,,,,,0.7748,1,,,,,,,,,,,,,,,0,0.401771078,-0.334738595,1,0,0,0.7748,button_right_main,0.401771078,-0.334738595,1,0,0,,0,155,155,15,1,GREASE,HB,old,m,./images/GREASEHB.png,,,,,,,,,,,,,,,,,,,,,,,,,,,,,,,,,
,,,,,,,,,,,,,,,,,61036c39549abd4fa911d139,40,2022-02-12_15h13.01.195,lexical_decision_task_DD_L2,2021.2.3,Linux armv8l,59.86231667,,,,,,,,,,0.8923,1,,,,,,,,,,,,,,,0,-0.387625441,-0.268095429,1,0,0,0.8923,button_left_main,-0.387625441,-0.268095429,1,0,0,,0,156,156,164,1,SGREW,LB,old,z,./images/SGREWLB.png,,,,,,,,,,,,,,,,,,,,,,,,,,,,,,,,,
,,,,,,,,,,,,,,,,,61036c39549abd4fa911d139,40,2022-02-12_15h13.01.195,lexical_decision_task_DD_L2,2021.2.3,Linux armv8l,59.86231667,,,,,,,,,,0.8744,1,,,,,,,,,,,,,,,0,-0.387625441,-0.269483792,1,0,0,0.8744,button_left_main,-0.387625441,-0.269483792,1,0,0,,0,157,157,87,1,TRING,C,old,z,./images/TRING.png,,,,,,,,,,,,,,,,,,,,,,,,,,,,,,,,,
,,,,,,,,,,,,,,,,,61036c39549abd4fa911d139,40,2022-02-12_15h13.01.195,lexical_decision_task_DD_L2,2021.2.3,Linux armv8l,59.86231667,,,,,,,,,,0.7164,0,,,,,,,,,,,,,,,0,-0.346005249,-0.298640286,1,0,0,0.7164,button_left_main,-0.346005249,-0.298640286,1,0,0,,0,158,158,5,1,PASTA,C,old,m,./images/PASTA.png,,,,,,,,,,,,,,,,,,,,,,,,,,,,,,,,,
,,,,,,,,,,,,,,,,,61036c39549abd4fa911d139,40,2022-02-12_15h13.01.195,lexical_decision_task_DD_L2,2021.2.3,Linux armv8l,59.86231667,,,,,,,,,,0.9697,1,,,,,,,,,,,,,,,0,-0.427858322,-0.250046212,1,0,0,0.9697,button_left_main,-0.427858322,-0.250046212,1,0,0,,0,159,159,96,1,KEAMS,C,old,z,./images/KEAMS.png,,,,,,,,,,,,,,,,,,,,,,,,,,,,,,,,,
,,,,,,,,,,,,,,,,,61036c39549abd4fa911d139,40,2022-02-12_15h13.01.195,lexical_decision_task_DD_L2,2021.2.3,Linux armv8l,59.86231667,,,,,,,,,,0.8902,1,,,,,,,,,,,,,,,0,0.411482581,-0.302805375,1,0,0,0.8902,button_right_main,0.411482581,-0.302805375,1,0,0,,0,160,160,41,1,STRING,C,old,m,./images/STRING.png,,,,,,,,,,,,,,,,,,,,,,,,,,,,,,,,,
,,,,,,,,,,,,,,,,,61036c39549abd4fa911d139,40,2022-02-12_15h13.01.195,lexical_decision_task_DD_L2,2021.2.3,Linux armv8l,59.86231667,,,,,,,,,,0.87,1,,,,,,,,,,,,,,,0,-0.387625441,-0.256988276,1,0,0,0.87,button_left_main,-0.387625441,-0.256988276,1,0,0,,0,161,161,91,1,SHENS,HB,old,z,./images/SHENSHB.png,,,,,,,,,,,,,,,,,,,,,,,,,,,,,,,,,
,,,,,,,,,,,,,,,,,61036c39549abd4fa911d139,40,2022-02-12_15h13.01.195,lexical_decision_task_DD_L2,2021.2.3,Linux armv8l,59.86231667,,,,,,,,,,0.7934,1,,,,,,,,,,,,,,,0,0.39899647,-0.325019805,1,0,0,0.7934,button_right_main,0.39899647,-0.325019805,1,0,0,,0,162,162,55,1,MUFFIN,LB,old,m,./images/MUFFINLB.png,,,,,,,,,,,,,,,,,,,,,,,,,,,,,,,,,
,,,,,,,,,,,,,,,,,61036c39549abd4fa911d139,40,2022-02-12_15h13.01.195,lexical_decision_task_DD_L2,2021.2.3,Linux armv8l,59.86231667,,,,,,,,,,0.8224,1,,,,,,,,,,,,,,,0,-0.395949484,-0.279202582,1,0,0,0.8224,button_left_main,-0.395949484,-0.279202582,1,0,0,,0,163,163,153,1,CLUPS,C,old,z,./images/CLUPS.png,,,,,,,,,,,,,,,,,,,,,,,,,,,,,,,,,
,,,,,,,,,,,,,,,,,61036c39549abd4fa911d139,40,2022-02-12_15h13.01.195,lexical_decision_task_DD_L2,2021.2.3,Linux armv8l,59.86231667,,,,,,,,,,0.7051,1,,,,,,,,,,,,,,,0,0.387897725,-0.336127083,1,0,0,0.7051,button_right_main,0.387897725,-0.336127083,1,0,0,,0,164,164,2,1,BEARD,C,old,m,./images/BEARD.png,,,,,,,,,,,,,,,,,,,,,,,,,,,,,,,,,
,,,,,,,,,,,,,,,,,61036c39549abd4fa911d139,40,2022-02-12_15h13.01.195,lexical_decision_task_DD_L2,2021.2.3,Linux armv8l,59.86231667,,,,,,,,,,0.9013,1,,,,,,,,,,,,,,,0,0.387897725,-0.336127083,1,0,0,0.9013,button_right_main,0.387897725,-0.336127083,1,0,0,,0,165,165,13,1,MOTOR,LB,old,m,./images/MOTORLB.png,,,,,,,,,,,,,,,,,,,,,,,,,,,,,,,,,
,,,,,,,,,,,,,,,,,61036c39549abd4fa911d139,40,2022-02-12_15h13.01.195,lexical_decision_task_DD_L2,2021.2.3,Linux armv8l,59.86231667,,,,,,,,,,0.8148,1,,,,,,,,,,,,,,,0,-0.407048222,-0.266706942,1,0,0,0.8148,button_left_main,-0.407048222,-0.266706942,1,0,0,,0,166,166,165,1,TROWN,C,old,z,./images/TROWN.png,,,,,,,,,,,,,,,,,,,,,,,,,,,,,,,,,
,,,,,,,,,,,,,,,,,61036c39549abd4fa911d139,40,2022-02-12_15h13.01.195,lexical_decision_task_DD_L2,2021.2.3,Linux armv8l,59.86231667,,,,,,,,,,0.6922,1,,,,,,,,,,,,,,,0,0.403158445,-0.333350108,1,0,0,0.6922,button_right_main,0.403158445,-0.333350108,1,0,0,,0,167,167,69,1,COOKER,HB,old,m,./images/COOKERHB.png,,,,,,,,,,,,,,,,,,,,,,,,,,,,,,,,,
,,,,,,,,,,,,,,,,,61036c39549abd4fa911d139,40,2022-02-12_15h13.01.195,lexical_decision_task_DD_L2,2021.2.3,Linux armv8l,59.86231667,,,,,,,,,,,,,,,,,,,,,,,,,,,,,,,,,,,,,,,,,,,,,,How likely will it be that you will recognize the words presented very blurred on a scale of 0 (not likely) to 100 (most likely)?,,,,,0.017477853,-0.441645533,1,0,0,jol_adv,4,8.1463,0,0,0,2,1,,,,,,,,,,,,,,,,,,,
,,,,,,,,,,,,,,,,,61036c39549abd4fa911d139,40,2022-02-12_15h13.01.195,lexical_decision_task_DD_L2,2021.2.3,Linux armv8l,59.86231667,,,,,,,,,,,,,,,,,,,,,,,,,,,,,,,,,,,,,,,,,,,,,,How likely will it be that you will recognize the words presented clearly on a scale of 0 (not likely) to 100 (most likely)?,,,,,,,,,,,5,7.715,0,1,1,0,1,,,,,,,,,,,,,,,,,,,
,,,,,,,,,,,,,,,,,61036c39549abd4fa911d139,40,2022-02-12_15h13.01.195,lexical_decision_task_DD_L2,2021.2.3,Linux armv8l,59.86231667,,,,,,,,,,,,,,,,,,,,,,,,,,,,,,,,,,,,,,,,,,,,,,How likely will it be that you will recognize the words presented slighly blurred on a scale of 0 (not likely) to 100 (most likely)?,,,,,,,,,,,4,5.4946,0,2,2,1,1,,,,,,,,,,,,,,,,,,,
,0.146500568,-0.408323825,1,0,0,instr_done_button,,,,,,1,test,"In the next phase you will be presented with the words from the the first phase. Your job is to decide whether you remember seeing the word or not. If you remember seeing the word press ""old"" or type ""m"". If you do not remember seeing the word press ""new"" or type ""z"". Please press the space bar or click on continue to begin. ",,,61036c39549abd4fa911d139,40,2022-02-12_15h13.01.195,lexical_decision_task_DD_L2,2021.2.3,Linux armv8l,59.86231667,,,,,,,,,,,,,,,,,,,,,,,,,,,,,,,,,,,,,,,,,,,,,,,,,,,,,,,,,,,,,,,,0,0,0,0,1,,,,,,,,,,,,,,
,0.189508119,-0.397216548,1,0,0,instr_done_button,,,,,,1,test,"In the next phase you will be presented with the words from the the first phase. Your job is to decide whether you remember seeing the word or not. If you remember seeing the word press ""old"" or type ""m"". If you do not remember seeing the word press ""new"" or type ""z"". Please press the space bar or click on continue to begin. ",,,61036c39549abd4fa911d139,40,2022-02-12_15h13.01.195,lexical_decision_task_DD_L2,2021.2.3,Linux armv8l,59.86231667,,,,,,,,,,,,,,,,,,,,,,,,,,,,,,,,,,,,,,,,,,,,,,,,,,,,,,,,,,,,,,,,1,0,1,0,1,,,,,,,,,,,,,,
,0.175634641,-0.412488914,1,0,0,instr_done_button,,,,,,1,test,"In the next phase you will be presented with the words from the the first phase. Your job is to decide whether you remember seeing the word or not. If you remember seeing the word press ""old"" or type ""m"". If you do not remember seeing the word press ""new"" or type ""z"". Please press the space bar or click on continue to begin. ",,,61036c39549abd4fa911d139,40,2022-02-12_15h13.01.195,lexical_decision_task_DD_L2,2021.2.3,Linux armv8l,59.86231667,,,,,,,,,,,,,,,,,,,,,,,,,,,,,,,,,,,,,,,,,,,,,,,,,,,,,,,,,,,,,,,,2,0,2,0,1,,,,,,,,,,,,,,
,-0.068537218,-0.408323825,1,0,0,instr_done_button,,,,,,1,test,"In the next phase you will be presented with the words from the the first phase. Your job is to decide whether you remember seeing the word or not. If you remember seeing the word press ""old"" or type ""m"". If you do not remember seeing the word press ""new"" or type ""z"". Please press the space bar or click on continue to begin. ",,,61036c39549abd4fa911d139,40,2022-02-12_15h13.01.195,lexical_decision_task_DD_L2,2021.2.3,Linux armv8l,59.86231667,,,,,,,,,,,,,,,,,,,,,,,,,,,,,,,,,,,,,,,,,,,,,,,,,,,,,,,,,,,,,,,,3,0,3,0,1,,,,,,,,,,,,,,
,-0.039317224,-0.398494838,1,0,0,instr_done_button,,,,,,1,test,"In the next phase you will be presented with the words from the the first phase. Your job is to decide whether you remember seeing the word or not. If you remember seeing the word press ""old"" or type ""m"". If you do not remember seeing the word press ""new"" or type ""z"". Please press the space bar or click on continue to begin. ",,,61036c39549abd4fa911d139,40,2022-02-12_15h13.01.195,lexical_decision_task_DD_L2,2021.2.3,Linux armv8l,59.86231667,,,,,,,,,,,,,,,,,,,,,,,,,,,,,,,,,,,,,,,,,,,,,,,,,,,,,,,,,,,,,,,,4,0,4,0,1,,,,,,,,,,,,,,
,,,,,,,,,,,,,,,,,61036c39549abd4fa911d139,40,2022-02-12_15h13.01.195,lexical_decision_task_DD_L2,2021.2.3,Linux armv8l,59.86231667,,,,,,,,,,2.7812,0,,,,,,,,,,,,,,,,,,,,,,,0.404545749,-0.320854716,1,0,0,,,,,,,SLOPE,HB,z,y,./images/SLOPEHB.png,,,,,,,,,,,,,,,,,,,,,0,0.404545749,-0.320854716,1,0,0,2.7812,button_right_test,0,0,0,114,1
,,,,,,,,,,,,,,,,,61036c39549abd4fa911d139,40,2022-02-12_15h13.01.195,lexical_decision_task_DD_L2,2021.2.3,Linux armv8l,59.86231667,,,,,,,,,,1.3602,1,,,,,,,,,,,,,,,,,,,,,,,0.404545749,-0.320854716,1,0,0,,,,,,,BEARD,C,m,y,./images/BEARD.png,,,,,,,,,,,,,,,,,,,,,0,0.404545749,-0.320854716,1,0,0,1.3602,button_right_test,0,1,1,2,1
,,,,,,,,,,,,,,,,,61036c39549abd4fa911d139,40,2022-02-12_15h13.01.195,lexical_decision_task_DD_L2,2021.2.3,Linux armv8l,59.86231667,,,,,,,,,,1.0163,1,,,,,,,,,,,,,,,,,,,,,,,-0.384850763,-0.297251923,1,0,0,,,,,,,BUNNY,LB,z,y,./images/BUNNYLB.png,,,,,,,,,,,,,,,,,,,,,0,-0.384850763,-0.297251923,1,0,0,1.0163,button_left_test,0,2,2,97,1
,,,,,,,,,,,,,,,,,61036c39549abd4fa911d139,40,2022-02-12_15h13.01.195,lexical_decision_task_DD_L2,2021.2.3,Linux armv8l,59.86231667,,,,,,,,,,1.2206,1,,,,,,,,,,,,,,,,,,,,,,,-0.400111514,-0.288921496,1,0,0,,,,,,,ARROW,HB,z,y,./images/ARROWHB.png,,,,,,,,,,,,,,,,,,,,,0,-0.400111514,-0.288921496,1,0,0,1.2206,button_left_test,0,3,3,153,1
,,,,,,,,,,,,,,,,,61036c39549abd4fa911d139,40,2022-02-12_15h13.01.195,lexical_decision_task_DD_L2,2021.2.3,Linux armv8l,59.86231667,,,,,,,,,,1.0888,1,,,,,,,,,,,,,,,,,,,,,,,0.390672271,-0.319466353,1,0,0,,,,,,,COUCH,C,m,y,./images/COUCH.png,,,,,,,,,,,,,,,,,,,,,0,0.390672271,-0.319466353,1,0,0,1.0888,button_right_test,0,4,4,77,1
,,,,,,,,,,,,,,,,,61036c39549abd4fa911d139,40,2022-02-12_15h13.01.195,lexical_decision_task_DD_L2,2021.2.3,Linux armv8l,59.86231667,,,,,,,,,,1.8764,1,,,,,,,,,,,,,,,,,,,,,,,-0.364040655,-0.298640286,1,0,0,,,,,,,SAUNA,HB,z,y,./images/SAUNAHB.png,,,,,,,,,,,,,,,,,,,,,0,-0.364040655,-0.298640286,1,0,0,1.8764,button_left_test,0,5,5,117,1
,,,,,,,,,,,,,,,,,61036c39549abd4fa911d139,40,2022-02-12_15h13.01.195,lexical_decision_task_DD_L2,2021.2.3,Linux armv8l,59.86231667,,,,,,,,,,1.351,1,,,,,,,,,,,,,,,,,,,,,,,0.39899647,-0.331961869,1,0,0,,,,,,,TORCH,C,m,y,./images/TORCH.png,,,,,,,,,,,,,,,,,,,,,0,0.39899647,-0.331961869,1,0,0,1.351,button_right_test,0,6,6,68,1
,,,,,,,,,,,,,,,,,61036c39549abd4fa911d139,40,2022-02-12_15h13.01.195,lexical_decision_task_DD_L2,2021.2.3,Linux armv8l,59.86231667,,,,,,,,,,1.0305,1,,,,,,,,,,,,,,,,,,,,,,,-0.364040655,-0.308359076,1,0,0,,,,,,,BLOKE,HB,z,y,./images/BLOKEHB.png,,,,,,,,,,,,,,,,,,,,,0,-0.364040655,-0.308359076,1,0,0,1.0305,button_left_test,0,7,7,96,1
,,,,,,,,,,,,,,,,,61036c39549abd4fa911d139,40,2022-02-12_15h13.01.195,lexical_decision_task_DD_L2,2021.2.3,Linux armv8l,59.86231667,,,,,,,,,,1.1127,1,,,,,,,,,,,,,,,,,,,,,,,0.396221737,-0.334738595,1,0,0,,,,,,,CEMENT,C,m,y,./images/CEMENT.png,,,,,,,,,,,,,,,,,,,,,0,0.396221737,-0.334738595,1,0,0,1.1127,button_right_test,0,8,8,74,1
,,,,,,,,,,,,,,,,,61036c39549abd4fa911d139,40,2022-02-12_15h13.01.195,lexical_decision_task_DD_L2,2021.2.3,Linux armv8l,59.86231667,,,,,,,,,,1.078,1,,,,,,,,,,,,,,,,,,,,,,,0.379573526,-0.320854716,1,0,0,,,,,,,SWEAT,HB,m,y,./images/SWEATHB.png,,,,,,,,,,,,,,,,,,,,,0,0.379573526,-0.320854716,1,0,0,1.078,button_right_test,0,9,9,66,1
,,,,,,,,,,,,,,,,,61036c39549abd4fa911d139,40,2022-02-12_15h13.01.195,lexical_decision_task_DD_L2,2021.2.3,Linux armv8l,59.86231667,,,,,,,,,,1.0081,1,,,,,,,,,,,,,,,,,,,,,,,-0.38346342,-0.295863436,1,0,0,,,,,,,MIDGET,LB,z,y,./images/MIDGETLB.png,,,,,,,,,,,,,,,,,,,,,0,-0.38346342,-0.295863436,1,0,0,1.0081,button_left_test,0,10,10,160,1
,,,,,,,,,,,,,,,,,61036c39549abd4fa911d139,40,2022-02-12_15h13.01.195,lexical_decision_task_DD_L2,2021.2.3,Linux armv8l,59.86231667,,,,,,,,,,0.8142,1,,,,,,,,,,,,,,,,,,,,,,,0.392059824,-0.315301015,1,0,0,,,,,,,URINE,LB,m,y,./images/URINELB.png,,,,,,,,,,,,,,,,,,,,,0,0.392059824,-0.315301015,1,0,0,0.8142,button_right_test,0,11,11,70,1
,,,,,,,,,,,,,,,,,61036c39549abd4fa911d139,40,2022-02-12_15h13.01.195,lexical_decision_task_DD_L2,2021.2.3,Linux armv8l,59.86231667,,,,,,,,,,1.3905,1,,,,,,,,,,,,,,,,,,,,,,,0.38512293,-0.333350108,1,0,0,,,,,,,WRIST,LB,m,y,./images/WRISTLB.png,,,,,,,,,,,,,,,,,,,,,0,0.38512293,-0.333350108,1,0,0,1.3905,button_right_test,0,12,12,25,1
,,,,,,,,,,,,,,,,,61036c39549abd4fa911d139,40,2022-02-12_15h13.01.195,lexical_decision_task_DD_L2,2021.2.3,Linux armv8l,59.86231667,,,,,,,,,,0.9693,0,,,,,,,,,,,,,,,,,,,,,,,0.38512293,-0.331961869,1,0,0,,,,,,,BASKET,C,z,y,./images/BASKET.png,,,,,,,,,,,,,,,,,,,,,0,0.38512293,-0.331961869,1,0,0,0.9693,button_right_test,0,13,13,128,1
,,,,,,,,,,,,,,,,,61036c39549abd4fa911d139,40,2022-02-12_15h13.01.195,lexical_decision_task_DD_L2,2021.2.3,Linux armv8l,59.86231667,,,,,,,,,,0.8796,1,,,,,,,,,,,,,,,,,,,,,,,0.397609103,-0.308359076,1,0,0,,,,,,,TRIPOD,HB,m,y,./images/TRIPODHB.png,,,,,,,,,,,,,,,,,,,,,0,0.397609103,-0.308359076,1,0,0,0.8796,button_right_test,0,14,14,54,1
,,,,,,,,,,,,,,,,,61036c39549abd4fa911d139,40,2022-02-12_15h13.01.195,lexical_decision_task_DD_L2,2021.2.3,Linux armv8l,59.86231667,,,,,,,,,,1.0494,1,,,,,,,,,,,,,,,,,,,,,,,0.397609103,-0.308359076,1,0,0,,,,,,,SHORE,HB,m,y,./images/SHOREHB.png,,,,,,,,,,,,,,,,,,,,,0,0.397609103,-0.308359076,1,0,0,1.0494,button_right_test,0,15,15,12,1
,,,,,,,,,,,,,,,,,61036c39549abd4fa911d139,40,2022-02-12_15h13.01.195,lexical_decision_task_DD_L2,2021.2.3,Linux armv8l,59.86231667,,,,,,,,,,1.0469,1,,,,,,,,,,,,,,,,,,,,,,,0.397609103,-0.308359076,1,0,0,,,,,,,SQUARE,HB,m,y,./images/SQUAREHB.png,,,,,,,,,,,,,,,,,,,,,0,0.397609103,-0.308359076,1,0,0,1.0469,button_right_test,0,16,16,6,1
,,,,,,,,,,,,,,,,,61036c39549abd4fa911d139,40,2022-02-12_15h13.01.195,lexical_decision_task_DD_L2,2021.2.3,Linux armv8l,59.86231667,,,,,,,,,,1.5543,1,,,,,,,,,,,,,,,,,,,,,,,0.397609103,-0.308359076,1,0,0,,,,,,,JELLY,LB,m,y,./images/JELLYLB.png,,,,,,,,,,,,,,,,,,,,,0,0.397609103,-0.308359076,1,0,0,1.5543,button_right_test,0,17,17,64,1
,,,,,,,,,,,,,,,,,61036c39549abd4fa911d139,40,2022-02-12_15h13.01.195,lexical_decision_task_DD_L2,2021.2.3,Linux armv8l,59.86231667,,,,,,,,,,0.9136,1,,,,,,,,,,,,,,,,,,,,,,,0.397609103,-0.309747314,1,0,0,,,,,,,TOMATO,HB,m,y,./images/TOMATOHB.png,,,,,,,,,,,,,,,,,,,,,0,0.397609103,-0.309747314,1,0,0,0.9136,button_right_test,0,18,18,0,1
,,,,,,,,,,,,,,,,,61036c39549abd4fa911d139,40,2022-02-12_15h13.01.195,lexical_decision_task_DD_L2,2021.2.3,Linux armv8l,59.86231667,,,,,,,,,,0.714,1,,,,,,,,,,,,,,,,,,,,,,,0.387897725,-0.331961869,1,0,0,,,,,,,WALRUS,C,m,y,./images/WALRUS.png,,,,,,,,,,,,,,,,,,,,,0,0.387897725,-0.331961869,1,0,0,0.714,button_right_test,0,19,19,23,1
,,,,,,,,,,,,,,,,,61036c39549abd4fa911d139,40,2022-02-12_15h13.01.195,lexical_decision_task_DD_L2,2021.2.3,Linux armv8l,59.86231667,,,,,,,,,,0.8424,0,,,,,,,,,,,,,,,,,,,,,,,0.387897725,-0.331961869,1,0,0,,,,,,,BRIDE,LB,z,y,./images/BRIDELB.png,,,,,,,,,,,,,,,,,,,,,0,0.387897725,-0.331961869,1,0,0,0.8424,button_right_test,0,20,20,148,1
,,,,,,,,,,,,,,,,,61036c39549abd4fa911d139,40,2022-02-12_15h13.01.195,lexical_decision_task_DD_L2,2021.2.3,Linux armv8l,59.86231667,,,,,,,,,,0.8405,1,,,,,,,,,,,,,,,,,,,,,,,0.387897725,-0.333350108,1,0,0,,,,,,,CRADLE,C,m,y,./images/CRADLE.png,,,,,,,,,,,,,,,,,,,,,0,0.387897725,-0.333350108,1,0,0,0.8405,button_right_test,0,21,21,20,1
,,,,,,,,,,,,,,,,,61036c39549abd4fa911d139,40,2022-02-12_15h13.01.195,lexical_decision_task_DD_L2,2021.2.3,Linux armv8l,59.86231667,,,,,,,,,,0.9303,1,,,,,,,,,,,,,,,,,,,,,,,0.389284967,-0.333350108,1,0,0,,,,,,,SHELF,HB,m,y,./images/SHELFHB.png,,,,,,,,,,,,,,,,,,,,,0,0.389284967,-0.333350108,1,0,0,0.9303,button_right_test,0,22,22,39,1
,,,,,,,,,,,,,,,,,61036c39549abd4fa911d139,40,2022-02-12_15h13.01.195,lexical_decision_task_DD_L2,2021.2.3,Linux armv8l,59.86231667,,,,,,,,,,1.0303,0,,,,,,,,,,,,,,,,,,,,,,,0.387897725,-0.333350108,1,0,0,,,,,,,STATUE,HB,z,y,./images/STATUEHB.png,,,,,,,,,,,,,,,,,,,,,0,0.387897725,-0.333350108,1,0,0,1.0303,button_right_test,0,23,23,150,1
,,,,,,,,,,,,,,,,,61036c39549abd4fa911d139,40,2022-02-12_15h13.01.195,lexical_decision_task_DD_L2,2021.2.3,Linux armv8l,59.86231667,,,,,,,,,,0.9598,1,,,,,,,,,,,,,,,,,,,,,,,0.387897725,-0.331961869,1,0,0,,,,,,,PLANK,LB,m,y,./images/PLANKLB.png,,,,,,,,,,,,,,,,,,,,,0,0.387897725,-0.331961869,1,0,0,0.9598,button_right_test,0,24,24,1,1
,,,,,,,,,,,,,,,,,61036c39549abd4fa911d139,40,2022-02-12_15h13.01.195,lexical_decision_task_DD_L2,2021.2.3,Linux armv8l,59.86231667,,,,,,,,,,1.0214,1,,,,,,,,,,,,,,,,,,,,,,,-0.380688741,-0.295863436,1,0,0,,,,,,,PISTOL,C,z,y,./images/PISTOL.png,,,,,,,,,,,,,,,,,,,,,0,-0.380688741,-0.295863436,1,0,0,1.0214,button_left_test,0,25,25,113,1
,,,,,,,,,,,,,,,,,61036c39549abd4fa911d139,40,2022-02-12_15h13.01.195,lexical_decision_task_DD_L2,2021.2.3,Linux armv8l,59.86231667,,,,,,,,,,1.1668,1,,,,,,,,,,,,,,,,,,,,,,,0.379573526,-0.338903809,1,0,0,,,,,,,POODLE,HB,m,y,./images/POODLEHB.png,,,,,,,,,,,,,,,,,,,,,0,0.379573526,-0.338903809,1,0,0,1.1668,button_right_test,0,26,26,81,1
,,,,,,,,,,,,,,,,,61036c39549abd4fa911d139,40,2022-02-12_15h13.01.195,lexical_decision_task_DD_L2,2021.2.3,Linux armv8l,59.86231667,,,,,,,,,,1.0653,0,,,,,,,,,,,,,,,,,,,,,,,-0.395949484,-0.298640286,1,0,0,,,,,,,THROAT,HB,m,y,./images/THROATHB.png,,,,,,,,,,,,,,,,,,,,,0,-0.395949484,-0.298640286,1,0,0,1.0653,button_left_test,0,27,27,36,1
,,,,,,,,,,,,,,,,,61036c39549abd4fa911d139,40,2022-02-12_15h13.01.195,lexical_decision_task_DD_L2,2021.2.3,Linux armv8l,59.86231667,,,,,,,,,,0.9848,1,,,,,,,,,,,,,,,,,,,,,,,0.36153826,-0.337515321,1,0,0,,,,,,,BONNET,C,m,y,./images/BONNET.png,,,,,,,,,,,,,,,,,,,,,0,0.36153826,-0.337515321,1,0,0,0.9848,button_right_test,0,28,28,11,1
,,,,,,,,,,,,,,,,,61036c39549abd4fa911d139,40,2022-02-12_15h13.01.195,lexical_decision_task_DD_L2,2021.2.3,Linux armv8l,59.86231667,,,,,,,,,,1.2156,1,,,,,,,,,,,,,,,,,,,,,,,-0.398724171,-0.286144521,1,0,0,,,,,,,DIVER,HB,z,y,./images/DIVERHB.png,,,,,,,,,,,,,,,,,,,,,0,-0.398724171,-0.286144521,1,0,0,1.2156,button_left_test,0,29,29,93,1
,,,,,,,,,,,,,,,,,61036c39549abd4fa911d139,40,2022-02-12_15h13.01.195,lexical_decision_task_DD_L2,2021.2.3,Linux armv8l,59.86231667,,,,,,,,,,1.1092,1,,,,,,,,,,,,,,,,,,,,,,,0.392059824,-0.316689378,1,0,0,,,,,,,MELON,LB,m,y,./images/MELONLB.png,,,,,,,,,,,,,,,,,,,,,0,0.392059824,-0.316689378,1,0,0,1.1092,button_right_test,0,30,30,22,1
,,,,,,,,,,,,,,,,,61036c39549abd4fa911d139,40,2022-02-12_15h13.01.195,lexical_decision_task_DD_L2,2021.2.3,Linux armv8l,59.86231667,,,,,,,,,,0.9659,1,,,,,,,,,,,,,,,,,,,,,,,0.392059824,-0.316689378,1,0,0,,,,,,,PIMPLE,C,m,y,./images/PIMPLE.png,,,,,,,,,,,,,,,,,,,,,0,0.392059824,-0.316689378,1,0,0,0.9659,button_right_test,0,31,31,71,1
,,,,,,,,,,,,,,,,,61036c39549abd4fa911d139,40,2022-02-12_15h13.01.195,lexical_decision_task_DD_L2,2021.2.3,Linux armv8l,59.86231667,,,,,,,,,,1.1787,0,,,,,,,,,,,,,,,,,,,,,,,0.403158445,-0.327796656,1,0,0,,,,,,,ARTIST,LB,z,y,./images/ARTISTLB.png,,,,,,,,,,,,,,,,,,,,,0,0.403158445,-0.327796656,1,0,0,1.1787,button_right_test,0,32,32,145,1
,,,,,,,,,,,,,,,,,61036c39549abd4fa911d139,40,2022-02-12_15h13.01.195,lexical_decision_task_DD_L2,2021.2.3,Linux armv8l,59.86231667,,,,,,,,,,1.0064,1,,,,,,,,,,,,,,,,,,,,,,,-0.366815341,-0.304193863,1,0,0,,,,,,,PARCEL,HB,z,y,./images/PARCELHB.png,,,,,,,,,,,,,,,,,,,,,0,-0.366815341,-0.304193863,1,0,0,1.0064,button_left_test,0,33,33,102,1
,,,,,,,,,,,,,,,,,61036c39549abd4fa911d139,40,2022-02-12_15h13.01.195,lexical_decision_task_DD_L2,2021.2.3,Linux armv8l,59.86231667,,,,,,,,,,1.0113,1,,,,,,,,,,,,,,,,,,,,,,,0.397609103,-0.326408168,1,0,0,,,,,,,PASTA,C,m,y,./images/PASTA.png,,,,,,,,,,,,,,,,,,,,,0,0.397609103,-0.326408168,1,0,0,1.0113,button_right_test,0,34,34,5,1
,,,,,,,,,,,,,,,,,61036c39549abd4fa911d139,40,2022-02-12_15h13.01.195,lexical_decision_task_DD_L2,2021.2.3,Linux armv8l,59.86231667,,,,,,,,,,1.724,1,,,,,,,,,,,,,,,,,,,,,,,-0.386238114,-0.295863436,1,0,0,,,,,,,CANDY,HB,z,y,./images/CANDYHB.png,,,,,,,,,,,,,,,,,,,,,0,-0.386238114,-0.295863436,1,0,0,1.724,button_left_test,0,35,35,123,1
,,,,,,,,,,,,,,,,,61036c39549abd4fa911d139,40,2022-02-12_15h13.01.195,lexical_decision_task_DD_L2,2021.2.3,Linux armv8l,59.86231667,,,,,,,,,,1.2509,1,,,,,,,,,,,,,,,,,,,,,,,0.389284967,-0.322243079,1,0,0,,,,,,,SWING,LB,m,y,./images/SWINGLB.png,,,,,,,,,,,,,,,,,,,,,0,0.389284967,-0.322243079,1,0,0,1.2509,button_right_test,0,36,36,40,1
,,,,,,,,,,,,,,,,,61036c39549abd4fa911d139,40,2022-02-12_15h13.01.195,lexical_decision_task_DD_L2,2021.2.3,Linux armv8l,59.86231667,,,,,,,,,,1.7301,0,,,,,,,,,,,,,,,,,,,,,,,-0.377914063,-0.300028649,1,0,0,,,,,,,DOUGH,LB,m,y,./images/DOUGHLB.png,,,,,,,,,,,,,,,,,,,,,0,-0.377914063,-0.300028649,1,0,0,1.7301,button_left_test,0,37,37,19,1
,,,,,,,,,,,,,,,,,61036c39549abd4fa911d139,40,2022-02-12_15h13.01.195,lexical_decision_task_DD_L2,2021.2.3,Linux armv8l,59.86231667,,,,,,,,,,1.4325,1,,,,,,,,,,,,,,,,,,,,,,,-0.411210235,-0.272260643,1,0,0,,,,,,,JUMPER,C,z,y,./images/JUMPER.png,,,,,,,,,,,,,,,,,,,,,0,-0.411210235,-0.272260643,1,0,0,1.4325,button_left_test,0,38,38,158,1
,,,,,,,,,,,,,,,,,61036c39549abd4fa911d139,40,2022-02-12_15h13.01.195,lexical_decision_task_DD_L2,2021.2.3,Linux armv8l,59.86231667,,,,,,,,,,1.1505,0,,,,,,,,,,,,,,,,,,,,,,,-0.402886184,-0.288921496,1,0,0,,,,,,,LITTER,HB,m,y,./images/LITTERHB.png,,,,,,,,,,,,,,,,,,,,,0,-0.402886184,-0.288921496,1,0,0,1.1505,button_left_test,0,39,39,78,1
,,,,,,,,,,,,,,,,,61036c39549abd4fa911d139,40,2022-02-12_15h13.01.195,lexical_decision_task_DD_L2,2021.2.3,Linux armv8l,59.86231667,,,,,,,,,,1.0216,1,,,,,,,,,,,,,,,,,,,,,,,0.374024185,-0.337515321,1,0,0,,,,,,,FARMER,C,m,y,./images/FARMER.png,,,,,,,,,,,,,,,,,,,,,0,0.374024185,-0.337515321,1,0,0,1.0216,button_right_test,0,40,40,65,1
,,,,,,,,,,,,,,,,,61036c39549abd4fa911d139,40,2022-02-12_15h13.01.195,lexical_decision_task_DD_L2,2021.2.3,Linux armv8l,59.86231667,,,,,,,,,,0.8174,1,,,,,,,,,,,,,,,,,,,,,,,0.150662481,-0.420819465,1,0,0,,,,,,,KIDNEY,HB,m,y,./images/KIDNEYHB.png,break_done_button,,,,,,,,,,,,,,,,,,,,0,0.374024185,-0.337515321,1,0,0,0.8174,button_right_test,0,41,41,21,1
,,,,,,,,,,,,,,,,,61036c39549abd4fa911d139,40,2022-02-12_15h13.01.195,lexical_decision_task_DD_L2,2021.2.3,Linux armv8l,59.86231667,,,,,,,,,,1.1718,0,,,,,,,,,,,,,,,,,,,,,,,0.374024185,-0.301417137,1,0,0,,,,,,,BOILER,HB,z,y,./images/BOILERHB.png,,,,,,,,,,,,,,,,,,,,,0,0.374024185,-0.301417137,1,0,0,1.1718,button_right_test,0,42,42,120,1
,,,,,,,,,,,,,,,,,61036c39549abd4fa911d139,40,2022-02-12_15h13.01.195,lexical_decision_task_DD_L2,2021.2.3,Linux armv8l,59.86231667,,,,,,,,,,1.1648,0,,,,,,,,,,,,,,,,,,,,,,,0.374024185,-0.302805375,1,0,0,,,,,,,LLAMA,C,z,y,./images/LLAMA.png,,,,,,,,,,,,,,,,,,,,,0,0.374024185,-0.302805375,1,0,0,1.1648,button_right_test,0,43,43,119,1
,,,,,,,,,,,,,,,,,61036c39549abd4fa911d139,40,2022-02-12_15h13.01.195,lexical_decision_task_DD_L2,2021.2.3,Linux armv8l,59.86231667,,,,,,,,,,0.9554,0,,,,,,,,,,,,,,,,,,,,,,,0.374024185,-0.304193863,1,0,0,,,,,,,TOWEL,LB,z,y,./images/TOWELLB.png,,,,,,,,,,,,,,,,,,,,,0,0.374024185,-0.304193863,1,0,0,0.9554,button_right_test,0,44,44,85,1
,,,,,,,,,,,,,,,,,61036c39549abd4fa911d139,40,2022-02-12_15h13.01.195,lexical_decision_task_DD_L2,2021.2.3,Linux armv8l,59.86231667,,,,,,,,,,1.1037,1,,,,,,,,,,,,,,,,,,,,,,,-0.380688741,-0.286144521,1,0,0,,,,,,,BROOM,HB,z,y,./images/BROOMHB.png,,,,,,,,,,,,,,,,,,,,,0,-0.380688741,-0.286144521,1,0,0,1.1037,button_left_test,0,45,45,162,1
,,,,,,,,,,,,,,,,,61036c39549abd4fa911d139,40,2022-02-12_15h13.01.195,lexical_decision_task_DD_L2,2021.2.3,Linux armv8l,59.86231667,,,,,,,,,,0.865,1,,,,,,,,,,,,,,,,,,,,,,,0.374024185,-0.318077866,1,0,0,,,,,,,MOOSE,HB,m,y,./images/MOOSEHB.png,,,,,,,,,,,,,,,,,,,,,0,0.374024185,-0.318077866,1,0,0,0.865,button_right_test,0,46,46,57,1
,,,,,,,,,,,,,,,,,61036c39549abd4fa911d139,40,2022-02-12_15h13.01.195,lexical_decision_task_DD_L2,2021.2.3,Linux armv8l,59.86231667,,,,,,,,,,0.7792,0,,,,,,,,,,,,,,,,,,,,,,,0.368474906,-0.325019805,1,0,0,,,,,,,STAIN,HB,z,y,./images/STAINHB.png,,,,,,,,,,,,,,,,,,,,,0,0.368474906,-0.325019805,1,0,0,0.7792,button_right_test,0,47,47,90,1
,,,,,,,,,,,,,,,,,61036c39549abd4fa911d139,40,2022-02-12_15h13.01.195,lexical_decision_task_DD_L2,2021.2.3,Linux armv8l,59.86231667,,,,,,,,,,0.9603,1,,,,,,,,,,,,,,,,,,,,,,,0.364312931,-0.327796656,1,0,0,,,,,,,BABOON,LB,m,y,./images/BABOONLB.png,,,,,,,,,,,,,,,,,,,,,0,0.364312931,-0.327796656,1,0,0,0.9603,button_right_test,0,48,48,58,1
,,,,,,,,,,,,,,,,,61036c39549abd4fa911d139,40,2022-02-12_15h13.01.195,lexical_decision_task_DD_L2,2021.2.3,Linux armv8l,59.86231667,,,,,,,,,,1.2181,1,,,,,,,,,,,,,,,,,,,,,,,0.38512293,-0.320854716,1,0,0,,,,,,,KITTEN,HB,m,y,./images/KITTENHB.png,,,,,,,,,,,,,,,,,,,,,0,0.38512293,-0.320854716,1,0,0,1.2181,button_right_test,0,49,49,45,1
,,,,,,,,,,,,,,,,,61036c39549abd4fa911d139,40,2022-02-12_15h13.01.195,lexical_decision_task_DD_L2,2021.2.3,Linux armv8l,59.86231667,,,,,,,,,,1.0669,1,,,,,,,,,,,,,,,,,,,,,,,0.38512293,-0.319466353,1,0,0,,,,,,,INFANT,LB,m,y,./images/INFANTLB.png,,,,,,,,,,,,,,,,,,,,,0,0.38512293,-0.319466353,1,0,0,1.0669,button_right_test,0,50,50,76,1
,,,,,,,,,,,,,,,,,61036c39549abd4fa911d139,40,2022-02-12_15h13.01.195,lexical_decision_task_DD_L2,2021.2.3,Linux armv8l,59.86231667,,,,,,,,,,1.1513,1,,,,,,,,,,,,,,,,,,,,,,,-0.37652672,-0.281979432,1,0,0,,,,,,,CRATER,HB,z,y,./images/CRATERHB.png,,,,,,,,,,,,,,,,,,,,,0,-0.37652672,-0.281979432,1,0,0,1.1513,button_left_test,0,51,51,87,1
,,,,,,,,,,,,,,,,,61036c39549abd4fa911d139,40,2022-02-12_15h13.01.195,lexical_decision_task_DD_L2,2021.2.3,Linux armv8l,59.86231667,,,,,,,,,,0.9782,0,,,,,,,,,,,,,,,,,,,,,,,0.378186222,-0.322243079,1,0,0,,,,,,,BRUSH,C,z,y,./images/BRUSH.png,,,,,,,,,,,,,,,,,,,,,0,0.378186222,-0.322243079,1,0,0,0.9782,button_right_test,0,52,52,143,1
,,,,,,,,,,,,,,,,,61036c39549abd4fa911d139,40,2022-02-12_15h13.01.195,lexical_decision_task_DD_L2,2021.2.3,Linux armv8l,59.86231667,,,,,,,,,,0.9125,1,,,,,,,,,,,,,,,,,,,,,,,0.362925565,-0.331961869,1,0,0,,,,,,,JAGUAR,HB,m,y,./images/JAGUARHB.png,,,,,,,,,,,,,,,,,,,,,0,0.362925565,-0.331961869,1,0,0,0.9125,button_right_test,0,53,53,18,1
,,,,,,,,,,,,,,,,,61036c39549abd4fa911d139,40,2022-02-12_15h13.01.195,lexical_decision_task_DD_L2,2021.2.3,Linux armv8l,59.86231667,,,,,,,,,,0.985,1,,,,,,,,,,,,,,,,,,,,,,,-0.370977363,-0.300028649,1,0,0,,,,,,,HOCKEY,C,z,y,./images/HOCKEY.png,,,,,,,,,,,,,,,,,,,,,0,-0.370977363,-0.300028649,1,0,0,0.985,button_left_test,0,54,54,116,1
,,,,,,,,,,,,,,,,,61036c39549abd4fa911d139,40,2022-02-12_15h13.01.195,lexical_decision_task_DD_L2,2021.2.3,Linux armv8l,59.86231667,,,,,,,,,,0.7942,1,,,,,,,,,,,,,,,,,,,,,,,0.394834308,-0.304193863,1,0,0,,,,,,,DRUMS,LB,m,y,./images/DRUMSLB.png,,,,,,,,,,,,,,,,,,,,,0,0.394834308,-0.304193863,1,0,0,0.7942,button_right_test,0,55,55,49,1
,,,,,,,,,,,,,,,,,61036c39549abd4fa911d139,40,2022-02-12_15h13.01.195,lexical_decision_task_DD_L2,2021.2.3,Linux armv8l,59.86231667,,,,,,,,,,0.9882,1,,,,,,,,,,,,,,,,,,,,,,,0.372636881,-0.330573506,1,0,0,,,,,,,WEASEL,C,m,y,./images/WEASEL.png,,,,,,,,,,,,,,,,,,,,,0,0.372636881,-0.330573506,1,0,0,0.9882,button_right_test,0,56,56,80,1
,,,,,,,,,,,,,,,,,61036c39549abd4fa911d139,40,2022-02-12_15h13.01.195,lexical_decision_task_DD_L2,2021.2.3,Linux armv8l,59.86231667,,,,,,,,,,1.1489,0,,,,,,,,,,,,,,,,,,,,,,,0.369862272,-0.308359076,1,0,0,,,,,,,PLANET,C,z,y,./images/PLANET.png,,,,,,,,,,,,,,,,,,,,,0,0.369862272,-0.308359076,1,0,0,1.1489,button_right_test,0,57,57,164,1
,,,,,,,,,,,,,,,,,61036c39549abd4fa911d139,40,2022-02-12_15h13.01.195,lexical_decision_task_DD_L2,2021.2.3,Linux armv8l,59.86231667,,,,,,,,,,1.0088,1,,,,,,,,,,,,,,,,,,,,,,,0.386510421,-0.313912528,1,0,0,,,,,,,CRUMB,C,m,y,./images/CRUMB.png,,,,,,,,,,,,,,,,,,,,,0,0.386510421,-0.313912528,1,0,0,1.0088,button_right_test,0,58,58,29,1
,,,,,,,,,,,,,,,,,61036c39549abd4fa911d139,40,2022-02-12_15h13.01.195,lexical_decision_task_DD_L2,2021.2.3,Linux armv8l,59.86231667,,,,,,,,,,1.2225,1,,,,,,,,,,,,,,,,,,,,,,,-0.389012784,-0.295863436,1,0,0,,,,,,,BUBBLE,C,z,y,./images/BUBBLE.png,,,,,,,,,,,,,,,,,,,,,0,-0.389012784,-0.295863436,1,0,0,1.2225,button_left_test,0,59,59,155,1
,,,,,,,,,,,,,,,,,61036c39549abd4fa911d139,40,2022-02-12_15h13.01.195,lexical_decision_task_DD_L2,2021.2.3,Linux armv8l,59.86231667,,,,,,,,,,0.854,1,,,,,,,,,,,,,,,,,,,,,,,0.383735626,-0.318077866,1,0,0,,,,,,,CANDLE,LB,m,y,./images/CANDLELB.png,,,,,,,,,,,,,,,,,,,,,0,0.383735626,-0.318077866,1,0,0,0.854,button_right_test,0,60,60,61,1
,,,,,,,,,,,,,,,,,61036c39549abd4fa911d139,40,2022-02-12_15h13.01.195,lexical_decision_task_DD_L2,2021.2.3,Linux armv8l,59.86231667,,,,,,,,,,0.9415,1,,,,,,,,,,,,,,,,,,,,,,,0.383735626,-0.318077866,1,0,0,,,,,,,FOLDER,HB,m,y,./images/FOLDERHB.png,,,,,,,,,,,,,,,,,,,,,0,0.383735626,-0.318077866,1,0,0,0.9415,button_right_test,0,61,61,42,1
,,,,,,,,,,,,,,,,,61036c39549abd4fa911d139,40,2022-02-12_15h13.01.195,lexical_decision_task_DD_L2,2021.2.3,Linux armv8l,59.86231667,,,,,,,,,,0.8814,1,,,,,,,,,,,,,,,,,,,,,,,0.382348384,-0.319466353,1,0,0,,,,,,,MAGGOT,HB,m,y,./images/MAGGOTHB.png,,,,,,,,,,,,,,,,,,,,,0,0.382348384,-0.319466353,1,0,0,0.8814,button_right_test,0,62,62,33,1
,,,,,,,,,,,,,,,,,61036c39549abd4fa911d139,40,2022-02-12_15h13.01.195,lexical_decision_task_DD_L2,2021.2.3,Linux armv8l,59.86231667,,,,,,,,,,1.0096,0,,,,,,,,,,,,,,,,,,,,,,,0.380961017,-0.320854716,1,0,0,,,,,,,SPINE,C,z,y,./images/SPINE.png,,,,,,,,,,,,,,,,,,,,,0,0.380961017,-0.320854716,1,0,0,1.0096,button_right_test,0,63,63,149,1
,,,,,,,,,,,,,,,,,61036c39549abd4fa911d139,40,2022-02-12_15h13.01.195,lexical_decision_task_DD_L2,2021.2.3,Linux armv8l,59.86231667,,,,,,,,,,0.9033,1,,,,,,,,,,,,,,,,,,,,,,,0.379573526,-0.320854716,1,0,0,,,,,,,PACKET,C,m,y,./images/PACKET.png,,,,,,,,,,,,,,,,,,,,,0,0.379573526,-0.320854716,1,0,0,0.9033,button_right_test,0,64,64,56,1
,,,,,,,,,,,,,,,,,61036c39549abd4fa911d139,40,2022-02-12_15h13.01.195,lexical_decision_task_DD_L2,2021.2.3,Linux armv8l,59.86231667,,,,,,,,,,0.8085,1,,,,,,,,,,,,,,,,,,,,,,,0.378186222,-0.320854716,1,0,0,,,,,,,STORM,HB,m,y,./images/STORMHB.png,,,,,,,,,,,,,,,,,,,,,0,0.378186222,-0.320854716,1,0,0,0.8085,button_right_test,0,65,65,30,1
,,,,,,,,,,,,,,,,,61036c39549abd4fa911d139,40,2022-02-12_15h13.01.195,lexical_decision_task_DD_L2,2021.2.3,Linux armv8l,59.86231667,,,,,,,,,,0.7907,0,,,,,,,,,,,,,,,,,,,,,,,0.379573526,-0.320854716,1,0,0,,,,,,,BAKER,HB,z,y,./images/BAKERHB.png,,,,,,,,,,,,,,,,,,,,,0,0.379573526,-0.320854716,1,0,0,0.7907,button_right_test,0,66,66,147,1
,,,,,,,,,,,,,,,,,61036c39549abd4fa911d139,40,2022-02-12_15h13.01.195,lexical_decision_task_DD_L2,2021.2.3,Linux armv8l,59.86231667,,,,,,,,,,0.7817,1,,,,,,,,,,,,,,,,,,,,,,,0.380961017,-0.322243079,1,0,0,,,,,,,SKIING,C,m,y,./images/SKIING.png,,,,,,,,,,,,,,,,,,,,,0,0.380961017,-0.322243079,1,0,0,0.7817,button_right_test,0,67,67,17,1
,,,,,,,,,,,,,,,,,61036c39549abd4fa911d139,40,2022-02-12_15h13.01.195,lexical_decision_task_DD_L2,2021.2.3,Linux armv8l,59.86231667,,,,,,,,,,0.9519,0,,,,,,,,,,,,,,,,,,,,,,,0.380961017,-0.323631442,1,0,0,,,,,,,WHEEL,C,z,y,./images/WHEEL.png,,,,,,,,,,,,,,,,,,,,,0,0.380961017,-0.323631442,1,0,0,0.9519,button_right_test,0,68,68,161,1
,,,,,,,,,,,,,,,,,61036c39549abd4fa911d139,40,2022-02-12_15h13.01.195,lexical_decision_task_DD_L2,2021.2.3,Linux armv8l,59.86231667,,,,,,,,,,0.8053,1,,,,,,,,,,,,,,,,,,,,,,,0.396221737,-0.316689378,1,0,0,,,,,,,PEARL,LB,m,y,./images/PEARLLB.png,,,,,,,,,,,,,,,,,,,,,0,0.396221737,-0.316689378,1,0,0,0.8053,button_right_test,0,69,69,46,1
,,,,,,,,,,,,,,,,,61036c39549abd4fa911d139,40,2022-02-12_15h13.01.195,lexical_decision_task_DD_L2,2021.2.3,Linux armv8l,59.86231667,,,,,,,,,,0.887,0,,,,,,,,,,,,,,,,,,,,,,,0.396221737,-0.316689378,1,0,0,,,,,,,MAMMAL,C,z,y,./images/MAMMAL.png,,,,,,,,,,,,,,,,,,,,,0,0.396221737,-0.316689378,1,0,0,0.887,button_right_test,0,70,70,146,1
,,,,,,,,,,,,,,,,,61036c39549abd4fa911d139,40,2022-02-12_15h13.01.195,lexical_decision_task_DD_L2,2021.2.3,Linux armv8l,59.86231667,,,,,,,,,,1.0905,1,,,,,,,,,,,,,,,,,,,,,,,-0.37652672,-0.294475073,1,0,0,,,,,,,CASINO,LB,z,y,./images/CASINOLB.png,,,,,,,,,,,,,,,,,,,,,0,-0.37652672,-0.294475073,1,0,0,1.0905,button_left_test,0,71,71,112,1
,,,,,,,,,,,,,,,,,61036c39549abd4fa911d139,40,2022-02-12_15h13.01.195,lexical_decision_task_DD_L2,2021.2.3,Linux armv8l,59.86231667,,,,,,,,,,0.9533,0,,,,,,,,,,,,,,,,,,,,,,,-0.394562141,-0.288921496,1,0,0,,,,,,,BARREL,C,m,y,./images/BARREL.png,,,,,,,,,,,,,,,,,,,,,0,-0.394562141,-0.288921496,1,0,0,0.9533,button_left_test,0,72,72,32,1
,,,,,,,,,,,,,,,,,61036c39549abd4fa911d139,40,2022-02-12_15h13.01.195,lexical_decision_task_DD_L2,2021.2.3,Linux armv8l,59.86231667,,,,,,,,,,1.4147,1,,,,,,,,,,,,,,,,,,,,,,,0.412869761,-0.322243079,1,0,0,,,,,,,PAINT,LB,m,y,./images/PAINTLB.png,,,,,,,,,,,,,,,,,,,,,0,0.412869761,-0.322243079,1,0,0,1.4147,button_right_test,0,73,73,7,1
,,,,,,,,,,,,,,,,,61036c39549abd4fa911d139,40,2022-02-12_15h13.01.195,lexical_decision_task_DD_L2,2021.2.3,Linux armv8l,59.86231667,,,,,,,,,,1.627,1,,,,,,,,,,,,,,,,,,,,,,,-0.373752041,-0.291698222,1,0,0,,,,,,,CHALK,LB,z,y,./images/CHALKLB.png,,,,,,,,,,,,,,,,,,,,,0,-0.373752041,-0.291698222,1,0,0,1.627,button_left_test,0,74,74,109,1
,,,,,,,,,,,,,,,,,61036c39549abd4fa911d139,40,2022-02-12_15h13.01.195,lexical_decision_task_DD_L2,2021.2.3,Linux armv8l,59.86231667,,,,,,,,,,1.0549,1,,,,,,,,,,,,,,,,,,,,,,,-0.37652672,-0.27087228,1,0,0,,,,,,,ENGINE,C,z,y,./images/ENGINE.png,,,,,,,,,,,,,,,,,,,,,0,-0.37652672,-0.27087228,1,0,0,1.0549,button_left_test,0,75,75,122,1
,,,,,,,,,,,,,,,,,61036c39549abd4fa911d139,40,2022-02-12_15h13.01.195,lexical_decision_task_DD_L2,2021.2.3,Linux armv8l,59.86231667,,,,,,,,,,0.8068,1,,,,,,,,,,,,,,,,,,,,,,,0.405933053,-0.333350108,1,0,0,,,,,,,PENCE,LB,m,y,./images/PENCELB.png,,,,,,,,,,,,,,,,,,,,,0,0.405933053,-0.333350108,1,0,0,0.8068,button_right_test,0,76,76,16,1
,,,,,,,,,,,,,,,,,61036c39549abd4fa911d139,40,2022-02-12_15h13.01.195,lexical_decision_task_DD_L2,2021.2.3,Linux armv8l,59.86231667,,,,,,,,,,0.8797,0,,,,,,,,,,,,,,,,,,,,,,,0.404545749,-0.333350108,1,0,0,,,,,,,STREAM,C,z,y,./images/STREAM.png,,,,,,,,,,,,,,,,,,,,,0,0.404545749,-0.333350108,1,0,0,0.8797,button_right_test,0,77,77,125,1
,,,,,,,,,,,,,,,,,61036c39549abd4fa911d139,40,2022-02-12_15h13.01.195,lexical_decision_task_DD_L2,2021.2.3,Linux armv8l,59.86231667,,,,,,,,,,1.2043,1,,,,,,,,,,,,,,,,,,,,,,,-0.373752041,-0.290309735,1,0,0,,,,,,,STOOL,LB,z,y,./images/STOOLLB.png,,,,,,,,,,,,,,,,,,,,,0,-0.373752041,-0.290309735,1,0,0,1.2043,button_left_test,0,78,78,127,1
,,,,,,,,,,,,,,,,,61036c39549abd4fa911d139,40,2022-02-12_15h13.01.195,lexical_decision_task_DD_L2,2021.2.3,Linux armv8l,59.86231667,,,,,,,,,,1.001,1,,,,,,,,,,,,,,,,,,,,,,,0.394834308,-0.329185019,1,0,0,,,,,,,MUFFIN,LB,m,y,./images/MUFFINLB.png,,,,,,,,,,,,,,,,,,,,,0,0.394834308,-0.329185019,1,0,0,1.001,button_right_test,0,79,79,55,1
,,,,,,,,,,,,,,,,,61036c39549abd4fa911d139,40,2022-02-12_15h13.01.195,lexical_decision_task_DD_L2,2021.2.3,Linux armv8l,59.86231667,,,,,,,,,,1.1758,1,,,,,,,,,,,,,,,,,,,,,,,0.379573526,-0.340292296,1,0,0,,,,,,,PURSE,C,m,y,./images/PURSE.png,,,,,,,,,,,,,,,,,,,,,0,0.379573526,-0.340292296,1,0,0,1.1758,button_right_test,0,80,80,62,1
,,,,,,,,,,,,,,,,,61036c39549abd4fa911d139,40,2022-02-12_15h13.01.195,lexical_decision_task_DD_L2,2021.2.3,Linux armv8l,59.86231667,,,,,,,,,,1.1406,1,,,,,,,,,,,,,,,,,,,,,,,-0.377914063,-0.291698222,1,0,0,,,,,,,SNAKE,LB,z,y,./images/SNAKELB.png,,,,,,,,,,,,,,,,,,,,,0,-0.377914063,-0.291698222,1,0,0,1.1406,button_left_test,0,81,81,124,1
,,,,,,,,,,,,,,,,,61036c39549abd4fa911d139,40,2022-02-12_15h13.01.195,lexical_decision_task_DD_L2,2021.2.3,Linux armv8l,59.86231667,,,,,,,,,,0.8305,1,,,,,,,,,,,,,,,,,,,,,,,0.392059824,-0.338903809,1,0,0,,,,,,,CANYON,LB,m,y,./images/CANYONLB.png,,,,,,,,,,,,,,,,,,,,,0,0.392059824,-0.338903809,1,0,0,0.8305,button_right_test,0,82,82,34,1
,,,,,,,,,,,,,,,,,61036c39549abd4fa911d139,40,2022-02-12_15h13.01.195,lexical_decision_task_DD_L2,2021.2.3,Linux armv8l,59.86231667,,,,,,,,,,1.3533,1,,,,,,,,,,,,,,,,,,,,,,,0.143725773,-0.411100676,1,0,0,,,,,,,TWINS,HB,m,y,./images/TWINSHB.png,break_done_button,,,,,,,,,,,,,,,,,,,,0,0.390672271,-0.338903809,1,0,0,1.3533,button_right_test,0,83,83,60,1
,,,,,,,,,,,,,,,,,61036c39549abd4fa911d139,40,2022-02-12_15h13.01.195,lexical_decision_task_DD_L2,2021.2.3,Linux armv8l,59.86231667,,,,,,,,,,1.1443,1,,,,,,,,,,,,,,,,,,,,,,,-0.398724171,-0.259765002,1,0,0,,,,,,,BISHOP,LB,z,y,./images/BISHOPLB.png,,,,,,,,,,,,,,,,,,,,,0,-0.398724171,-0.259765002,1,0,0,1.1443,button_left_test,0,84,84,133,1
,,,,,,,,,,,,,,,,,61036c39549abd4fa911d139,40,2022-02-12_15h13.01.195,lexical_decision_task_DD_L2,2021.2.3,Linux armv8l,59.86231667,,,,,,,,,,1.1541,0,,,,,,,,,,,,,,,,,,,,,,,0.404545749,-0.31252429,1,0,0,,,,,,,PARADE,C,z,y,./images/PARADE.png,,,,,,,,,,,,,,,,,,,,,0,0.404545749,-0.31252429,1,0,0,1.1541,button_right_test,0,85,85,101,1
,,,,,,,,,,,,,,,,,61036c39549abd4fa911d139,40,2022-02-12_15h13.01.195,lexical_decision_task_DD_L2,2021.2.3,Linux armv8l,59.86231667,,,,,,,,,,0.8386,1,,,,,,,,,,,,,,,,,,,,,,,0.39899647,-0.316689378,1,0,0,,,,,,,COOKER,HB,m,y,./images/COOKERHB.png,,,,,,,,,,,,,,,,,,,,,0,0.39899647,-0.316689378,1,0,0,0.8386,button_right_test,0,86,86,69,1
,,,,,,,,,,,,,,,,,61036c39549abd4fa911d139,40,2022-02-12_15h13.01.195,lexical_decision_task_DD_L2,2021.2.3,Linux armv8l,59.86231667,,,,,,,,,,0.694,1,,,,,,,,,,,,,,,,,,,,,,,0.39899647,-0.315301015,1,0,0,,,,,,,PICKLE,C,m,y,./images/PICKLE.png,,,,,,,,,,,,,,,,,,,,,0,0.39899647,-0.315301015,1,0,0,0.694,button_right_test,0,87,87,14,1
,,,,,,,,,,,,,,,,,61036c39549abd4fa911d139,40,2022-02-12_15h13.01.195,lexical_decision_task_DD_L2,2021.2.3,Linux armv8l,59.86231667,,,,,,,,,,0.782,0,,,,,,,,,,,,,,,,,,,,,,,0.380961017,-0.320854716,1,0,0,,,,,,,RULER,LB,z,y,./images/RULERLB.png,,,,,,,,,,,,,,,,,,,,,0,0.380961017,-0.320854716,1,0,0,0.782,button_right_test,0,88,88,163,1
