key_resp.keys,instr_done_touch.x,instr_done_touch.y,instr_done_touch.leftButton,instr_done_touch.midButton,instr_done_touch.rightButton,instr_done_touch.clicked_name,instruction_pages.thisRepN,instruction_pages.thisTrialN,instruction_pages.thisN,instruction_pages.thisIndex,instruction_pages.ran,pageN,phase,instruct_text,has_image,instruct_image,participant,age,date,expName,psychopyVersion,OS,frameRate,response.keys,response.corr,touch_resp.x,touch_resp.y,touch_resp.leftButton,touch_resp.midButton,touch_resp.rightButton,touch_resp.time,touch_resp.clicked_name,rt,corr,practrials.thisRepN,practrials.thisTrialN,practrials.thisN,practrials.thisIndex,practrials.ran,TrialID,Target,corrAns,end_of_practice_trials_pages.thisRepN,end_of_practice_trials_pages.thisTrialN,end_of_practice_trials_pages.thisN,end_of_practice_trials_pages.thisIndex,end_of_practice_trials_pages.ran,key_resp_2.keys,key_resp_2.corr,targ_click.x,targ_click.y,targ_click.leftButton,targ_click.midButton,targ_click.rightButton,targ_click.time,targ_click.clicked_name,break_done_touch.x,break_done_touch.y,break_done_touch.leftButton,break_done_touch.midButton,break_done_touch.rightButton,break_done_keyboard.keys,maintrials.thisRepN,maintrials.thisTrialN,maintrials.thisN,maintrials.thisIndex,maintrials.ran,string,blur,study,lex,stim_path,break_done_touch.clicked_name,mouse_2.x,mouse_2.y,mouse_2.leftButton,mouse_2.midButton,mouse_2.rightButton,mouse_2.clicked_name,slider.response,slider.rt,trials.thisRepN,trials.thisTrialN,trials.thisN,trials.thisIndex,trials.ran,test_instructions.thisRepN,test_instructions.thisTrialN,test_instructions.thisN,test_instructions.thisIndex,test_instructions.ran,key_resp_3.keys,key_resp_3.corr,test_click.x,test_click.y,test_click.leftButton,test_click.midButton,test_click.rightButton,test_click.time,test_click.clicked_name,test_phase.thisRepN,test_phase.thisTrialN,test_phase.thisN,test_phase.thisIndex,test_phase.ran
,0.076530612,-0.384693878,1,0,0,instr_done_button,0,0,0,0,1,1,instructions,"INSTRUCTIONS
At the start of each trial, look at the plus sign  (+) in the center of the screen.  This tells you that a trial is about to begin and where to look. Second, the plus sign will disappear and a string of letters will appear. Your task is to determine if the string of letters is a word or not. If the item is a word press the M key (on keyboard)  or touch the word button (phone/tablet).  If the item is not a word,  press the  Z key (on keyboard)  or touch the nonword button (on phone/tablet). 
Press the space bar or touch  continue.",0,,6111426ad1d92c8215ccd56e,21,2022-02-12_16h54.18.676,lexical_decision_task_DD_L2,2021.2.3,iPhone,30.3030303,,,,,,,,,,,,,,,,,,,,,,,,,,,,,,,,,,,,,,,,,,,,,,,,,,,,,,,,,,,,,,,,,,,,,,,,,,,,,,,,,,
,0.095918367,-0.386734694,1,0,0,instr_done_button,0,1,1,1,1,2,instructions,"If your device has a keyboard, press the 'Z' key for nonwords and the 'M' key for words.





Press the space bar or touch the button below to continue.",0,keyboard-example.gif,6111426ad1d92c8215ccd56e,21,2022-02-12_16h54.18.676,lexical_decision_task_DD_L2,2021.2.3,iPhone,30.3030303,,,,,,,,,,,,,,,,,,,,,,,,,,,,,,,,,,,,,,,,,,,,,,,,,,,,,,,,,,,,,,,,,,,,,,,,,,,,,,,,,,
,0.063265306,-0.395918367,1,0,0,instr_done_button,0,2,2,2,1,3,instructions,"If you are using a touchscreen only device, use the buttons on the screen. Do not use the mouse.





Press the space bar or touch the button below to continue.",0,touchscreen-example.gif,6111426ad1d92c8215ccd56e,21,2022-02-12_16h54.18.676,lexical_decision_task_DD_L2,2021.2.3,iPhone,30.3030303,,,,,,,,,,,,,,,,,,,,,,,,,,,,,,,,,,,,,,,,,,,,,,,,,,,,,,,,,,,,,,,,,,,,,,,,,,,,,,,,,,
,0.110204082,-0.366326531,1,0,0,instr_done_button,0,3,3,3,1,4,instructions,"It is very important that you respond as quickly and accurately as possible, as each letter string will only be on the screen for two seconds. If you do not respond within this time, the message 'Too slow!' will be displayed and the experiment will progress to the next letter string. The first 20 trials will be practice trials and you will receive feedback on your answers. 

Press the space bar or touch the button below to start the practice trials.",0,,6111426ad1d92c8215ccd56e,21,2022-02-12_16h54.18.676,lexical_decision_task_DD_L2,2021.2.3,iPhone,30.3030303,,,,,,,,,,,,,,,,,,,,,,,,,,,,,,,,,,,,,,,,,,,,,,,,,,,,,,,,,,,,,,,,,,,,,,,,,,,,,,,,,,
,,,,,,,,,,,,,,,,,6111426ad1d92c8215ccd56e,21,2022-02-12_16h54.18.676,lexical_decision_task_DD_L2,2021.2.3,iPhone,30.3030303,,0,0.357142857,-0.294897959,1,0,0,1.398,button_right,1.398,1,0,0,0,5,1,1001,OBTAIN,m,,,,,,,,,,,,,,,,,,,,,,,,,,,,,,,,,,,,,,,,,,,,,,,,,,,,,,,,,,,,,,,
,,,,,,,,,,,,,,,,,6111426ad1d92c8215ccd56e,21,2022-02-12_16h54.18.676,lexical_decision_task_DD_L2,2021.2.3,iPhone,30.3030303,,0,0.355102041,-0.271428571,1,0,0,0.596,button_right,0.596,1,0,1,1,2,1,1001,ALMOND,m,,,,,,,,,,,,,,,,,,,,,,,,,,,,,,,,,,,,,,,,,,,,,,,,,,,,,,,,,,,,,,,
,,,,,,,,,,,,,,,,,6111426ad1d92c8215ccd56e,21,2022-02-12_16h54.18.676,lexical_decision_task_DD_L2,2021.2.3,iPhone,30.3030303,,0,0.32755102,-0.292857143,1,0,0,0.562,button_right,0.562,1,0,2,2,7,1,1001,VOLUME,m,,,,,,,,,,,,,,,,,,,,,,,,,,,,,,,,,,,,,,,,,,,,,,,,,,,,,,,,,,,,,,,
,,,,,,,,,,,,,,,,,6111426ad1d92c8215ccd56e,21,2022-02-12_16h54.18.676,lexical_decision_task_DD_L2,2021.2.3,iPhone,30.3030303,,0,-0.345918367,-0.339795918,1,0,0,1.3,button_left,1.3,1,0,3,3,13,1,1001,ROUPET,z,,,,,,,,,,,,,,,,,,,,,,,,,,,,,,,,,,,,,,,,,,,,,,,,,,,,,,,,,,,,,,,
,,,,,,,,,,,,,,,,,6111426ad1d92c8215ccd56e,21,2022-02-12_16h54.18.676,lexical_decision_task_DD_L2,2021.2.3,iPhone,30.3030303,,0,0.32755102,-0.285714286,1,0,0,0.662,button_right,0.662,1,0,4,4,4,1,1001,SQUEAK,m,,,,,,,,,,,,,,,,,,,,,,,,,,,,,,,,,,,,,,,,,,,,,,,,,,,,,,,,,,,,,,,
,,,,,,,,,,,,,,,,,6111426ad1d92c8215ccd56e,21,2022-02-12_16h54.18.676,lexical_decision_task_DD_L2,2021.2.3,iPhone,30.3030303,,0,-0.390816327,-0.270408163,1,0,0,0.803,button_left,0.803,1,0,5,5,14,1,1001,THRALE,z,,,,,,,,,,,,,,,,,,,,,,,,,,,,,,,,,,,,,,,,,,,,,,,,,,,,,,,,,,,,,,,
,,,,,,,,,,,,,,,,,6111426ad1d92c8215ccd56e,21,2022-02-12_16h54.18.676,lexical_decision_task_DD_L2,2021.2.3,iPhone,30.3030303,,0,0.344897959,-0.285714286,1,0,0,0.773,button_right,0.773,1,0,6,6,3,1,1001,MATRIX,m,,,,,,,,,,,,,,,,,,,,,,,,,,,,,,,,,,,,,,,,,,,,,,,,,,,,,,,,,,,,,,,
,,,,,,,,,,,,,,,,,6111426ad1d92c8215ccd56e,21,2022-02-12_16h54.18.676,lexical_decision_task_DD_L2,2021.2.3,iPhone,30.3030303,,0,0.328571429,-0.285714286,1,0,0,1.442,button_right,1.442,1,0,7,7,0,1,1001,UTOPIA,m,,,,,,,,,,,,,,,,,,,,,,,,,,,,,,,,,,,,,,,,,,,,,,,,,,,,,,,,,,,,,,,
,,,,,,,,,,,,,,,,,6111426ad1d92c8215ccd56e,21,2022-02-12_16h54.18.676,lexical_decision_task_DD_L2,2021.2.3,iPhone,30.3030303,,0,0.380612245,-0.289795918,1,0,0,4.041,button_right,4.041,1,0,8,8,6,1,1001,ZOMBIE,m,,,,,,,,,,,,,,,,,,,,,,,,,,,,,,,,,,,,,,,,,,,,,,,,,,,,,,,,,,,,,,,
,,,,,,,,,,,,,,,,,6111426ad1d92c8215ccd56e,21,2022-02-12_16h54.18.676,lexical_decision_task_DD_L2,2021.2.3,iPhone,30.3030303,,0,0.339795918,-0.27244898,1,0,0,0.564,button_right,0.564,1,0,9,9,1,1,1001,ADJUST,m,,,,,,,,,,,,,,,,,,,,,,,,,,,,,,,,,,,,,,,,,,,,,,,,,,,,,,,,,,,,,,,
,,,,,,,,,,,,,,,,,6111426ad1d92c8215ccd56e,21,2022-02-12_16h54.18.676,lexical_decision_task_DD_L2,2021.2.3,iPhone,30.3030303,,0,-0.345918367,-0.244897959,1,0,0,1.396,button_left,1.396,1,0,10,10,10,1,1001,INLADE,z,,,,,,,,,,,,,,,,,,,,,,,,,,,,,,,,,,,,,,,,,,,,,,,,,,,,,,,,,,,,,,,
,,,,,,,,,,,,,,,,,6111426ad1d92c8215ccd56e,21,2022-02-12_16h54.18.676,lexical_decision_task_DD_L2,2021.2.3,iPhone,30.3030303,,0,-0.378571429,-0.265306122,1,0,0,0.729,button_left,0.729,1,0,11,11,8,1,1001,ASLERT,z,,,,,,,,,,,,,,,,,,,,,,,,,,,,,,,,,,,,,,,,,,,,,,,,,,,,,,,,,,,,,,,
,,,,,,,,,,,,,,,,,6111426ad1d92c8215ccd56e,21,2022-02-12_16h54.18.676,lexical_decision_task_DD_L2,2021.2.3,iPhone,30.3030303,,0,-0.37244898,-0.287755102,1,0,0,0.697,button_left,0.697,1,0,12,12,11,1,1001,RASHET,z,,,,,,,,,,,,,,,,,,,,,,,,,,,,,,,,,,,,,,,,,,,,,,,,,,,,,,,,,,,,,,,
,,,,,,,,,,,,,,,,,6111426ad1d92c8215ccd56e,21,2022-02-12_16h54.18.676,lexical_decision_task_DD_L2,2021.2.3,iPhone,30.3030303,,0,-0.382653061,-0.262244898,1,0,0,0.736,button_left,0.736,1,0,13,13,15,1,1001,WHAISE,z,,,,,,,,,,,,,,,,,,,,,,,,,,,,,,,,,,,,,,,,,,,,,,,,,,,,,,,,,,,,,,,
,,,,,,,,,,,,,,,,,6111426ad1d92c8215ccd56e,21,2022-02-12_16h54.18.676,lexical_decision_task_DD_L2,2021.2.3,iPhone,30.3030303,,0,-0.369387755,-0.285714286,1,0,0,0.831,button_left,0.831,1,0,14,14,9,1,1001,FARINY,z,,,,,,,,,,,,,,,,,,,,,,,,,,,,,,,,,,,,,,,,,,,,,,,,,,,,,,,,,,,,,,,
,,,,,,,,,,,,,,,,,6111426ad1d92c8215ccd56e,21,2022-02-12_16h54.18.676,lexical_decision_task_DD_L2,2021.2.3,iPhone,30.3030303,,0,-0.405102041,-0.289795918,1,0,0,0.497,button_left,0.497,1,0,15,15,12,1,1001,SPRINY,z,,,,,,,,,,,,,,,,,,,,,,,,,,,,,,,,,,,,,,,,,,,,,,,,,,,,,,,,,,,,,,,
,0.094897959,-0.375510204,1,0,0,instr_done_button,,,,,,1,end_of_practice,"You have completed the practice trials. During the experimental trials, you will not receive feedback. 
Before you begin, please ensure that you are in a comfortable and quiet location and will not be disturbed for about 15 minutes, as we cannot use your data if you do not complete all the trials. 
 When you are ready to start the experimental trials, please press space or touch the button below.",,,6111426ad1d92c8215ccd56e,21,2022-02-12_16h54.18.676,lexical_decision_task_DD_L2,2021.2.3,iPhone,30.3030303,,,,,,,,,,,,,,,,,,,,0,0,0,0,1,,,,,,,,,,,,,,,,,,,,,,,,,,,,,,,,,,,,,,,,,,,,,,,,,,,,,,,,,,
,,,,,,,,,,,,,,,,,6111426ad1d92c8215ccd56e,21,2022-02-12_16h54.18.676,lexical_decision_task_DD_L2,2021.2.3,iPhone,30.3030303,,,,,,,,,,1.406,1,,,,,,,,,,,,,,,0,-0.390816327,-0.291836735,1,0,0,1.406,button_left_main,-0.390816327,-0.291836735,1,0,0,,0,0,0,103,1,FLORT,HB,old,z,./images/FLORTHB.png,,,,,,,,,,,,,,,,,,,,,,,,,,,,,,,,,
,,,,,,,,,,,,,,,,,6111426ad1d92c8215ccd56e,21,2022-02-12_16h54.18.676,lexical_decision_task_DD_L2,2021.2.3,iPhone,30.3030303,,,,,,,,,,0.632,1,,,,,,,,,,,,,,,0,0.365306122,-0.273469388,1,0,0,0.632,button_right_main,0.365306122,-0.273469388,1,0,0,,0,1,1,79,1,CRUST,LB,old,m,./images/CRUSTLB.png,,,,,,,,,,,,,,,,,,,,,,,,,,,,,,,,,
,,,,,,,,,,,,,,,,,6111426ad1d92c8215ccd56e,21,2022-02-12_16h54.18.676,lexical_decision_task_DD_L2,2021.2.3,iPhone,30.3030303,,,,,,,,,,0.602,1,,,,,,,,,,,,,,,0,0.353061224,-0.285714286,1,0,0,0.602,button_right_main,0.353061224,-0.285714286,1,0,0,,0,2,2,18,1,JAGUAR,HB,old,m,./images/JAGUARHB.png,,,,,,,,,,,,,,,,,,,,,,,,,,,,,,,,,
,,,,,,,,,,,,,,,,,6111426ad1d92c8215ccd56e,21,2022-02-12_16h54.18.676,lexical_decision_task_DD_L2,2021.2.3,iPhone,30.3030303,,,,,,,,,,0.53,1,,,,,,,,,,,,,,,0,0.357142857,-0.279591837,1,0,0,0.53,button_right_main,0.357142857,-0.279591837,1,0,0,,0,3,3,0,1,TOMATO,HB,old,m,./images/TOMATOHB.png,,,,,,,,,,,,,,,,,,,,,,,,,,,,,,,,,
,,,,,,,,,,,,,,,,,6111426ad1d92c8215ccd56e,21,2022-02-12_16h54.18.676,lexical_decision_task_DD_L2,2021.2.3,iPhone,30.3030303,,,,,,,,,,0.678,1,,,,,,,,,,,,,,,0,0.386734694,-0.27244898,1,0,0,0.678,button_right_main,0.386734694,-0.27244898,1,0,0,,0,4,4,73,1,SNACK,LB,old,m,./images/SNACKLB.png,,,,,,,,,,,,,,,,,,,,,,,,,,,,,,,,,
,,,,,,,,,,,,,,,,,6111426ad1d92c8215ccd56e,21,2022-02-12_16h54.18.676,lexical_decision_task_DD_L2,2021.2.3,iPhone,30.3030303,,,,,,,,,,0.663,1,,,,,,,,,,,,,,,0,-0.369387755,-0.289795918,1,0,0,0.663,button_left_main,-0.369387755,-0.289795918,1,0,0,,0,5,5,131,1,NACES,LB,old,z,./images/NACESLB.png,,,,,,,,,,,,,,,,,,,,,,,,,,,,,,,,,
,,,,,,,,,,,,,,,,,6111426ad1d92c8215ccd56e,21,2022-02-12_16h54.18.676,lexical_decision_task_DD_L2,2021.2.3,iPhone,30.3030303,,,,,,,,,,0.577,0,,,,,,,,,,,,,,,0,0.373469388,-0.267346939,1,0,0,0.577,button_right_main,0.373469388,-0.267346939,1,0,0,,0,6,6,107,1,FASKS,LB,old,z,./images/FASKSLB.png,,,,,,,,,,,,,,,,,,,,,,,,,,,,,,,,,
,,,,,,,,,,,,,,,,,6111426ad1d92c8215ccd56e,21,2022-02-12_16h54.18.676,lexical_decision_task_DD_L2,2021.2.3,iPhone,30.3030303,,,,,,,,,,0.542,1,,,,,,,,,,,,,,,0,0.378571429,-0.257142857,1,0,0,0.542,button_right_main,0.378571429,-0.257142857,1,0,0,,0,7,7,20,1,CRADLE,C,old,m,./images/CRADLE.png,,,,,,,,,,,,,,,,,,,,,,,,,,,,,,,,,
,,,,,,,,,,,,,,,,,6111426ad1d92c8215ccd56e,21,2022-02-12_16h54.18.676,lexical_decision_task_DD_L2,2021.2.3,iPhone,30.3030303,,,,,,,,,,0.637,1,,,,,,,,,,,,,,,0,-0.369387755,-0.294897959,1,0,0,0.637,button_left_main,-0.369387755,-0.294897959,1,0,0,,0,8,8,116,1,BALGY,LB,old,z,./images/BALGYLB.png,,,,,,,,,,,,,,,,,,,,,,,,,,,,,,,,,
,,,,,,,,,,,,,,,,,6111426ad1d92c8215ccd56e,21,2022-02-12_16h54.18.676,lexical_decision_task_DD_L2,2021.2.3,iPhone,30.3030303,,,,,,,,,,1.444,0,,,,,,,,,,,,,,,0,0.358163265,-0.273469388,1,0,0,1.444,button_right_main,0.358163265,-0.273469388,1,0,0,,0,9,9,88,1,GLUSH,HB,old,z,./images/GLUSHHB.png,,,,,,,,,,,,,,,,,,,,,,,,,,,,,,,,,
,,,,,,,,,,,,,,,,,6111426ad1d92c8215ccd56e,21,2022-02-12_16h54.18.676,lexical_decision_task_DD_L2,2021.2.3,iPhone,30.3030303,,,,,,,,,,0.735,1,,,,,,,,,,,,,,,0,-0.37755102,-0.262244898,1,0,0,0.735,button_left_main,-0.37755102,-0.262244898,1,0,0,,0,10,10,96,1,KEAMS,C,old,z,./images/KEAMS.png,,,,,,,,,,,,,,,,,,,,,,,,,,,,,,,,,
,,,,,,,,,,,,,,,,,6111426ad1d92c8215ccd56e,21,2022-02-12_16h54.18.676,lexical_decision_task_DD_L2,2021.2.3,iPhone,30.3030303,,,,,,,,,,1.166,1,,,,,,,,,,,,,,,0,-0.355102041,-0.314285714,1,0,0,1.166,button_left_main,-0.355102041,-0.314285714,1,0,0,,0,11,11,127,1,NINDY,HB,old,z,./images/NINDYHB.png,,,,,,,,,,,,,,,,,,,,,,,,,,,,,,,,,
,,,,,,,,,,,,,,,,,6111426ad1d92c8215ccd56e,21,2022-02-12_16h54.18.676,lexical_decision_task_DD_L2,2021.2.3,iPhone,30.3030303,,,,,,,,,,0.63,1,,,,,,,,,,,,,,,0,0.318367347,-0.325510204,1,0,0,0.63,button_right_main,0.318367347,-0.325510204,1,0,0,,0,12,12,58,1,BABOON,LB,old,m,./images/BABOONLB.png,,,,,,,,,,,,,,,,,,,,,,,,,,,,,,,,,
,,,,,,,,,,,,,,,,,6111426ad1d92c8215ccd56e,21,2022-02-12_16h54.18.676,lexical_decision_task_DD_L2,2021.2.3,iPhone,30.3030303,,,,,,,,,,1.001,1,,,,,,,,,,,,,,,0,-0.380612245,-0.324489796,1,0,0,1.001,button_left_main,-0.380612245,-0.324489796,1,0,0,,0,13,13,148,1,JOMS,HB,old,z,./images/JOMSHB.png,,,,,,,,,,,,,,,,,,,,,,,,,,,,,,,,,
,,,,,,,,,,,,,,,,,6111426ad1d92c8215ccd56e,21,2022-02-12_16h54.18.676,lexical_decision_task_DD_L2,2021.2.3,iPhone,30.3030303,,,,,,,,,,0.632,1,,,,,,,,,,,,,,,0,0.341836735,-0.294897959,1,0,0,0.632,button_right_main,0.341836735,-0.294897959,1,0,0,,0,14,14,12,1,SHORE,HB,old,m,./images/SHOREHB.png,,,,,,,,,,,,,,,,,,,,,,,,,,,,,,,,,
,,,,,,,,,,,,,,,,,6111426ad1d92c8215ccd56e,21,2022-02-12_16h54.18.676,lexical_decision_task_DD_L2,2021.2.3,iPhone,30.3030303,,,,,,,,,,0.599,1,,,,,,,,,,,,,,,0,0.320408163,-0.285714286,1,0,0,0.599,button_right_main,0.320408163,-0.285714286,1,0,0,,0,15,15,67,1,SAILOR,LB,old,m,./images/SAILORLB.png,,,,,,,,,,,,,,,,,,,,,,,,,,,,,,,,,
,,,,,,,,,,,,,,,,,6111426ad1d92c8215ccd56e,21,2022-02-12_16h54.18.676,lexical_decision_task_DD_L2,2021.2.3,iPhone,30.3030303,,,,,,,,,,0.663,0,,,,,,,,,,,,,,,0,0.317346939,-0.285714286,1,0,0,0.663,button_right_main,0.317346939,-0.285714286,1,0,0,,0,16,16,142,1,PLASK,HB,old,z,./images/PLASKHB.png,,,,,,,,,,,,,,,,,,,,,,,,,,,,,,,,,
,,,,,,,,,,,,,,,,,6111426ad1d92c8215ccd56e,21,2022-02-12_16h54.18.676,lexical_decision_task_DD_L2,2021.2.3,iPhone,30.3030303,,,,,,,,,,0.498,1,,,,,,,,,,,,,,,0,0.319387755,-0.317346939,1,0,0,0.498,button_right_main,0.319387755,-0.317346939,1,0,0,,0,17,17,62,1,PURSE,C,old,m,./images/PURSE.png,,,,,,,,,,,,,,,,,,,,,,,,,,,,,,,,,
,,,,,,,,,,,,,,,,,6111426ad1d92c8215ccd56e,21,2022-02-12_16h54.18.676,lexical_decision_task_DD_L2,2021.2.3,iPhone,30.3030303,,,,,,,,,,0.763,1,,,,,,,,,,,,,,,0,-0.393877551,-0.286734694,1,0,0,0.763,button_left_main,-0.393877551,-0.286734694,1,0,0,,0,18,18,156,1,HIXES,C,old,z,./images/HIXES.png,,,,,,,,,,,,,,,,,,,,,,,,,,,,,,,,,
,,,,,,,,,,,,,,,,,6111426ad1d92c8215ccd56e,21,2022-02-12_16h54.18.676,lexical_decision_task_DD_L2,2021.2.3,iPhone,30.3030303,,,,,,,,,,0.63,1,,,,,,,,,,,,,,,0,0.366326531,-0.292857143,1,0,0,0.63,button_right_main,0.366326531,-0.292857143,1,0,0,,0,19,19,9,1,RHINO,HB,old,m,./images/RHINOHB.png,,,,,,,,,,,,,,,,,,,,,,,,,,,,,,,,,
,,,,,,,,,,,,,,,,,6111426ad1d92c8215ccd56e,21,2022-02-12_16h54.18.676,lexical_decision_task_DD_L2,2021.2.3,iPhone,30.3030303,,,,,,,,,,0.633,1,,,,,,,,,,,,,,,0,0.292857143,-0.290816327,1,0,0,0.633,button_right_main,0.292857143,-0.290816327,1,0,0,,0,20,20,65,1,FARMER,C,old,m,./images/FARMER.png,,,,,,,,,,,,,,,,,,,,,,,,,,,,,,,,,
,,,,,,,,,,,,,,,,,6111426ad1d92c8215ccd56e,21,2022-02-12_16h54.18.676,lexical_decision_task_DD_L2,2021.2.3,iPhone,30.3030303,,,,,,,,,,0.612,1,,,,,,,,,,,,,,,0,0.325510204,-0.283673469,1,0,0,0.612,button_right_main,0.325510204,-0.283673469,1,0,0,,0,21,21,50,1,MALLET,C,old,m,./images/MALLET.png,,,,,,,,,,,,,,,,,,,,,,,,,,,,,,,,,
,,,,,,,,,,,,,,,,,6111426ad1d92c8215ccd56e,21,2022-02-12_16h54.18.676,lexical_decision_task_DD_L2,2021.2.3,iPhone,30.3030303,,,,,,,,,,0.869,1,,,,,,,,,,,,,,,0,0.334693878,-0.319387755,1,0,0,0.869,button_right_main,0.334693878,-0.319387755,1,0,0,,0,22,22,72,1,NOOSE,HB,old,m,./images/NOOSEHB.png,,,,,,,,,,,,,,,,,,,,,,,,,,,,,,,,,
,,,,,,,,,,,,,,,,,6111426ad1d92c8215ccd56e,21,2022-02-12_16h54.18.676,lexical_decision_task_DD_L2,2021.2.3,iPhone,30.3030303,,,,,,,,,,0.466,1,,,,,,,,,,,,,,,0,0.317346939,-0.297959184,1,0,0,0.466,button_right_main,0.317346939,-0.297959184,1,0,0,,0,23,23,37,1,BIRTH,LB,old,m,./images/BIRTHLB.png,,,,,,,,,,,,,,,,,,,,,,,,,,,,,,,,,
,,,,,,,,,,,,,,,,,6111426ad1d92c8215ccd56e,21,2022-02-12_16h54.18.676,lexical_decision_task_DD_L2,2021.2.3,iPhone,30.3030303,,,,,,,,,,0.703,1,,,,,,,,,,,,,,,0,0.315306122,-0.3,1,0,0,0.703,button_right_main,0.315306122,-0.3,1,0,0,,0,24,24,11,1,BONNET,C,old,m,./images/BONNET.png,,,,,,,,,,,,,,,,,,,,,,,,,,,,,,,,,
,,,,,,,,,,,,,,,,,6111426ad1d92c8215ccd56e,21,2022-02-12_16h54.18.676,lexical_decision_task_DD_L2,2021.2.3,iPhone,30.3030303,,,,,,,,,,0.843,1,,,,,,,,,,,,,,,0,-0.383673469,-0.278571429,1,0,0,0.843,button_left_main,-0.383673469,-0.278571429,1,0,0,,0,25,25,152,1,FRAIN,LB,old,z,./images/FRAINLB.png,,,,,,,,,,,,,,,,,,,,,,,,,,,,,,,,,
,,,,,,,,,,,,,,,,,6111426ad1d92c8215ccd56e,21,2022-02-12_16h54.18.676,lexical_decision_task_DD_L2,2021.2.3,iPhone,30.3030303,,,,,,,,,,0.499,1,,,,,,,,,,,,,,,0,0.296938776,-0.308163265,1,0,0,0.499,button_right_main,0.296938776,-0.308163265,1,0,0,,0,26,26,63,1,MIRROR,HB,old,m,./images/MIRRORHB.png,,,,,,,,,,,,,,,,,,,,,,,,,,,,,,,,,
,,,,,,,,,,,,,,,,,6111426ad1d92c8215ccd56e,21,2022-02-12_16h54.18.676,lexical_decision_task_DD_L2,2021.2.3,iPhone,30.3030303,,,,,,,,,,0.87,1,,,,,,,,,,,,,,,0,0.326530612,-0.301020408,1,0,0,0.87,button_right_main,0.326530612,-0.301020408,1,0,0,,0,27,27,54,1,TRIPOD,HB,old,m,./images/TRIPODHB.png,,,,,,,,,,,,,,,,,,,,,,,,,,,,,,,,,
,,,,,,,,,,,,,,,,,6111426ad1d92c8215ccd56e,21,2022-02-12_16h54.18.676,lexical_decision_task_DD_L2,2021.2.3,iPhone,30.3030303,,,,,,,,,,1.166,1,,,,,,,,,,,,,,,0,0.297959184,-0.323469388,1,0,0,1.166,button_right_main,0.297959184,-0.323469388,1,0,0,,0,28,28,38,1,LADDER,C,old,m,./images/LADDER.png,,,,,,,,,,,,,,,,,,,,,,,,,,,,,,,,,
,,,,,,,,,,,,,,,,,6111426ad1d92c8215ccd56e,21,2022-02-12_16h54.18.676,lexical_decision_task_DD_L2,2021.2.3,iPhone,30.3030303,,,,,,,,,,0.702,1,,,,,,,,,,,,,,,0,-0.396938776,-0.292857143,1,0,0,0.702,button_left_main,-0.396938776,-0.292857143,1,0,0,,0,29,29,147,1,ZOLES,C,old,z,./images/ZOLES.png,,,,,,,,,,,,,,,,,,,,,,,,,,,,,,,,,
,,,,,,,,,,,,,,,,,6111426ad1d92c8215ccd56e,21,2022-02-12_16h54.18.676,lexical_decision_task_DD_L2,2021.2.3,iPhone,30.3030303,,,,,,,,,,0.544,1,,,,,,,,,,,,,,,0,0.308163265,-0.286734694,1,0,0,0.544,button_right_main,0.308163265,-0.286734694,1,0,0,,0,30,30,43,1,MOSQUE,LB,old,m,./images/MOSQUELB.png,,,,,,,,,,,,,,,,,,,,,,,,,,,,,,,,,
,,,,,,,,,,,,,,,,,6111426ad1d92c8215ccd56e,21,2022-02-12_16h54.18.676,lexical_decision_task_DD_L2,2021.2.3,iPhone,30.3030303,,,,,,,,,,0.733,1,,,,,,,,,,,,,,,0,-0.405102041,-0.273469388,1,0,0,0.733,button_left_main,-0.405102041,-0.273469388,1,0,0,,0,31,31,155,1,CANGY,LB,old,z,./images/CANGYLB.png,,,,,,,,,,,,,,,,,,,,,,,,,,,,,,,,,
,,,,,,,,,,,,,,,,,6111426ad1d92c8215ccd56e,21,2022-02-12_16h54.18.676,lexical_decision_task_DD_L2,2021.2.3,iPhone,30.3030303,,,,,,,,,,0.63,1,,,,,,,,,,,,,,,0,0.351020408,-0.285714286,1,0,0,0.63,button_right_main,0.351020408,-0.285714286,1,0,0,,0,32,32,28,1,FALCON,LB,old,m,./images/FALCONLB.png,,,,,,,,,,,,,,,,,,,,,,,,,,,,,,,,,
,,,,,,,,,,,,,,,,,6111426ad1d92c8215ccd56e,21,2022-02-12_16h54.18.676,lexical_decision_task_DD_L2,2021.2.3,iPhone,30.3030303,,,,,,,,,,0.766,1,,,,,,,,,,,,,,,0,-0.395918367,-0.281632653,1,0,0,0.766,button_left_main,-0.395918367,-0.281632653,1,0,0,,0,33,33,160,1,VEETS,HB,old,z,./images/VEETSHB.png,,,,,,,,,,,,,,,,,,,,,,,,,,,,,,,,,
,,,,,,,,,,,,,,,,,6111426ad1d92c8215ccd56e,21,2022-02-12_16h54.18.676,lexical_decision_task_DD_L2,2021.2.3,iPhone,30.3030303,,,,,,,,,,0.865,1,,,,,,,,,,,,,,,0,-0.358163265,-0.3,1,0,0,0.865,button_left_main,-0.358163265,-0.3,1,0,0,,0,34,34,145,1,LAMEL,HB,old,z,./images/LAMELHB.png,,,,,,,,,,,,,,,,,,,,,,,,,,,,,,,,,
,,,,,,,,,,,,,,,,,6111426ad1d92c8215ccd56e,21,2022-02-12_16h54.18.676,lexical_decision_task_DD_L2,2021.2.3,iPhone,30.3030303,,,,,,,,,,0.797,1,,,,,,,,,,,,,,,0,-0.384693878,-0.279591837,1,0,0,0.797,button_left_main,-0.384693878,-0.279591837,1,0,0,,0,35,35,101,1,GLEET,LB,old,z,./images/GLEETLB.png,,,,,,,,,,,,,,,,,,,,,,,,,,,,,,,,,
,,,,,,,,,,,,,,,,,6111426ad1d92c8215ccd56e,21,2022-02-12_16h54.18.676,lexical_decision_task_DD_L2,2021.2.3,iPhone,30.3030303,,,,,,,,,,0.864,1,,,,,,,,,,,,,,,0,-0.376530612,-0.323469388,1,0,0,0.864,button_left_main,-0.376530612,-0.323469388,1,0,0,,0,36,36,97,1,CHIDS,HB,old,z,./images/CHIDSHB.png,,,,,,,,,,,,,,,,,,,,,,,,,,,,,,,,,
,,,,,,,,,,,,,,,,,6111426ad1d92c8215ccd56e,21,2022-02-12_16h54.18.676,lexical_decision_task_DD_L2,2021.2.3,iPhone,30.3030303,,,,,,,,,,0.644,0,,,,,,,,,,,,,,,0,0.320408163,-0.293877551,1,0,0,0.644,button_right_main,0.320408163,-0.293877551,1,0,0,,0,37,37,130,1,CRILL,HB,old,z,./images/CRILLHB.png,,,,,,,,,,,,,,,,,,,,,,,,,,,,,,,,,
,,,,,,,,,,,,,,,,,6111426ad1d92c8215ccd56e,21,2022-02-12_16h54.18.676,lexical_decision_task_DD_L2,2021.2.3,iPhone,30.3030303,,,,,,,,,,1.197,1,,,,,,,,,,,,,,,0,-0.345918367,-0.323469388,1,0,0,1.197,button_left_main,-0.345918367,-0.323469388,1,0,0,,0,38,38,154,1,THINT,HB,old,z,./images/THINTHB.png,,,,,,,,,,,,,,,,,,,,,,,,,,,,,,,,,
,,,,,,,,,,,,,,,,,6111426ad1d92c8215ccd56e,21,2022-02-12_16h54.18.676,lexical_decision_task_DD_L2,2021.2.3,iPhone,30.3030303,,,,,,,,,,0.53,1,,,,,,,,,,,,,,,0,0.291836735,-0.312244898,1,0,0,0.53,button_right_main,0.291836735,-0.312244898,1,0,0,,0,39,39,47,1,BERRY,C,old,m,./images/BERRY.png,,,,,,,,,,,,,,,,,,,,,,,,,,,,,,,,,
,,,,,,,,,,,,,,,,,6111426ad1d92c8215ccd56e,21,2022-02-12_16h54.18.676,lexical_decision_task_DD_L2,2021.2.3,iPhone,30.3030303,,,,,,,,,,0.63,1,,,,,,,,,,,,,,,0,-0.398979592,-0.280612245,1,0,0,0.63,button_left_main,-0.398979592,-0.280612245,1,0,0,,0,40,40,150,1,NOOLS,C,old,z,./images/NOOLS.png,,,,,,,,,,,,,,,,,,,,,,,,,,,,,,,,,
,,,,,,,,,,,,,,,,,6111426ad1d92c8215ccd56e,21,2022-02-12_16h54.18.676,lexical_decision_task_DD_L2,2021.2.3,iPhone,30.3030303,,,,,,,,,,0.6,0,,,,,,,,,,,,,,,0,0.293877551,-0.319387755,1,0,0,0.6,button_right_main,0.089795918,-0.418367347,1,0,0,,0,41,41,166,1,SHORY,HB,old,z,./images/SHORYHB.png,break_done_button,,,,,,,,,,,,,,,,,,,,,,,,,,,,,,,,
,,,,,,,,,,,,,,,,,6111426ad1d92c8215ccd56e,21,2022-02-12_16h54.18.676,lexical_decision_task_DD_L2,2021.2.3,iPhone,30.3030303,,,,,,,,,,0.735,1,,,,,,,,,,,,,,,0,-0.346938776,-0.365306122,1,0,0,0.735,button_left_main,-0.346938776,-0.365306122,1,0,0,,0,42,42,138,1,PLICE,C,old,z,./images/PLICE.png,,,,,,,,,,,,,,,,,,,,,,,,,,,,,,,,,
,,,,,,,,,,,,,,,,,6111426ad1d92c8215ccd56e,21,2022-02-12_16h54.18.676,lexical_decision_task_DD_L2,2021.2.3,iPhone,30.3030303,,,,,,,,,,0.797,1,,,,,,,,,,,,,,,0,0.373469388,-0.317346939,1,0,0,0.797,button_right_main,0.373469388,-0.317346939,1,0,0,,0,43,43,55,1,MUFFIN,LB,old,m,./images/MUFFINLB.png,,,,,,,,,,,,,,,,,,,,,,,,,,,,,,,,,
,,,,,,,,,,,,,,,,,6111426ad1d92c8215ccd56e,21,2022-02-12_16h54.18.676,lexical_decision_task_DD_L2,2021.2.3,iPhone,30.3030303,,,,,,,,,,0.61,1,,,,,,,,,,,,,,,0,0.373469388,-0.306122449,1,0,0,0.61,button_right_main,0.373469388,-0.306122449,1,0,0,,0,44,44,22,1,MELON,LB,old,m,./images/MELONLB.png,,,,,,,,,,,,,,,,,,,,,,,,,,,,,,,,,
,,,,,,,,,,,,,,,,,6111426ad1d92c8215ccd56e,21,2022-02-12_16h54.18.676,lexical_decision_task_DD_L2,2021.2.3,iPhone,30.3030303,,,,,,,,,,1.07,1,,,,,,,,,,,,,,,0,-0.353061224,-0.312244898,1,0,0,1.07,button_left_main,-0.353061224,-0.312244898,1,0,0,,0,45,45,85,1,CHULK,HB,old,z,./images/CHULKHB.png,,,,,,,,,,,,,,,,,,,,,,,,,,,,,,,,,
,,,,,,,,,,,,,,,,,6111426ad1d92c8215ccd56e,21,2022-02-12_16h54.18.676,lexical_decision_task_DD_L2,2021.2.3,iPhone,30.3030303,,,,,,,,,,1.131,0,,,,,,,,,,,,,,,0,0.359183673,-0.287755102,1,0,0,1.131,button_right_main,0.359183673,-0.287755102,1,0,0,,0,46,46,115,1,MAWNS,HB,old,z,./images/MAWNSHB.png,,,,,,,,,,,,,,,,,,,,,,,,,,,,,,,,,
,,,,,,,,,,,,,,,,,6111426ad1d92c8215ccd56e,21,2022-02-12_16h54.18.676,lexical_decision_task_DD_L2,2021.2.3,iPhone,30.3030303,,,,,,,,,,0.609,0,,,,,,,,,,,,,,,0,0.339795918,-0.317346939,1,0,0,0.609,button_right_main,0.339795918,-0.317346939,1,0,0,,0,47,47,140,1,DOVET,LB,old,z,./images/DOVETLB.png,,,,,,,,,,,,,,,,,,,,,,,,,,,,,,,,,
,,,,,,,,,,,,,,,,,6111426ad1d92c8215ccd56e,21,2022-02-12_16h54.18.676,lexical_decision_task_DD_L2,2021.2.3,iPhone,30.3030303,,,,,,,,,,0.565,1,,,,,,,,,,,,,,,0,0.36122449,-0.296938776,1,0,0,0.565,button_right_main,0.36122449,-0.296938776,1,0,0,,0,48,48,25,1,WRIST,LB,old,m,./images/WRISTLB.png,,,,,,,,,,,,,,,,,,,,,,,,,,,,,,,,,
,,,,,,,,,,,,,,,,,6111426ad1d92c8215ccd56e,21,2022-02-12_16h54.18.676,lexical_decision_task_DD_L2,2021.2.3,iPhone,30.3030303,,,,,,,,,,0.57,1,,,,,,,,,,,,,,,0,-0.359183673,-0.31122449,1,0,0,0.57,button_left_main,-0.359183673,-0.31122449,1,0,0,,0,49,49,162,1,LEICH,C,old,z,./images/LEICH.png,,,,,,,,,,,,,,,,,,,,,,,,,,,,,,,,,
,,,,,,,,,,,,,,,,,6111426ad1d92c8215ccd56e,21,2022-02-12_16h54.18.676,lexical_decision_task_DD_L2,2021.2.3,iPhone,30.3030303,,,,,,,,,,0.535,1,,,,,,,,,,,,,,,0,0.343877551,-0.325510204,1,0,0,0.535,button_right_main,0.343877551,-0.325510204,1,0,0,,0,50,50,80,1,WEASEL,C,old,m,./images/WEASEL.png,,,,,,,,,,,,,,,,,,,,,,,,,,,,,,,,,
,,,,,,,,,,,,,,,,,6111426ad1d92c8215ccd56e,21,2022-02-12_16h54.18.676,lexical_decision_task_DD_L2,2021.2.3,iPhone,30.3030303,,,,,,,,,,0.631,1,,,,,,,,,,,,,,,0,-0.365306122,-0.296938776,1,0,0,0.631,button_left_main,-0.365306122,-0.296938776,1,0,0,,0,51,51,132,1,SCIFF,C,old,z,./images/SCIFF.png,,,,,,,,,,,,,,,,,,,,,,,,,,,,,,,,,
,,,,,,,,,,,,,,,,,6111426ad1d92c8215ccd56e,21,2022-02-12_16h54.18.676,lexical_decision_task_DD_L2,2021.2.3,iPhone,30.3030303,,,,,,,,,,0.629,1,,,,,,,,,,,,,,,0,-0.373469388,-0.32755102,1,0,0,0.629,button_left_main,-0.373469388,-0.32755102,1,0,0,,0,52,52,99,1,BACKY,C,old,z,./images/BACKY.png,,,,,,,,,,,,,,,,,,,,,,,,,,,,,,,,,
,,,,,,,,,,,,,,,,,6111426ad1d92c8215ccd56e,21,2022-02-12_16h54.18.676,lexical_decision_task_DD_L2,2021.2.3,iPhone,30.3030303,,,,,,,,,,0.64,1,,,,,,,,,,,,,,,0,0.341836735,-0.298979592,1,0,0,0.64,button_right_main,0.341836735,-0.298979592,1,0,0,,0,53,53,78,1,LITTER,HB,old,m,./images/LITTERHB.png,,,,,,,,,,,,,,,,,,,,,,,,,,,,,,,,,
,,,,,,,,,,,,,,,,,6111426ad1d92c8215ccd56e,21,2022-02-12_16h54.18.676,lexical_decision_task_DD_L2,2021.2.3,iPhone,30.3030303,,,,,,,,,,0.697,1,,,,,,,,,,,,,,,0,-0.36122449,-0.297959184,1,0,0,0.697,button_left_main,-0.36122449,-0.297959184,1,0,0,,0,54,54,98,1,BAMPS,LB,old,z,./images/BAMPSLB.png,,,,,,,,,,,,,,,,,,,,,,,,,,,,,,,,,
,,,,,,,,,,,,,,,,,6111426ad1d92c8215ccd56e,21,2022-02-12_16h54.18.676,lexical_decision_task_DD_L2,2021.2.3,iPhone,30.3030303,,,,,,,,,,0.675,1,,,,,,,,,,,,,,,0,-0.363265306,-0.290816327,1,0,0,0.675,button_left_main,-0.363265306,-0.290816327,1,0,0,,0,55,55,149,1,VEASE,LB,old,z,./images/VEASELB.png,,,,,,,,,,,,,,,,,,,,,,,,,,,,,,,,,
,,,,,,,,,,,,,,,,,6111426ad1d92c8215ccd56e,21,2022-02-12_16h54.18.676,lexical_decision_task_DD_L2,2021.2.3,iPhone,30.3030303,,,,,,,,,,0.478,1,,,,,,,,,,,,,,,0,0.321428571,-0.318367347,1,0,0,0.478,button_right_main,0.321428571,-0.318367347,1,0,0,,0,56,56,41,1,STRING,C,old,m,./images/STRING.png,,,,,,,,,,,,,,,,,,,,,,,,,,,,,,,,,
,,,,,,,,,,,,,,,,,6111426ad1d92c8215ccd56e,21,2022-02-12_16h54.18.676,lexical_decision_task_DD_L2,2021.2.3,iPhone,30.3030303,,,,,,,,,,0.698,1,,,,,,,,,,,,,,,0,-0.37244898,-0.286734694,1,0,0,0.698,button_left_main,-0.37244898,-0.286734694,1,0,0,,0,57,57,92,1,PAIMS,LB,old,z,./images/PAIMSLB.png,,,,,,,,,,,,,,,,,,,,,,,,,,,,,,,,,
,,,,,,,,,,,,,,,,,6111426ad1d92c8215ccd56e,21,2022-02-12_16h54.18.676,lexical_decision_task_DD_L2,2021.2.3,iPhone,30.3030303,,,,,,,,,,0.568,1,,,,,,,,,,,,,,,0,0.302040816,-0.345918367,1,0,0,0.568,button_right_main,0.302040816,-0.345918367,1,0,0,,0,58,58,82,1,SUNSET,LB,old,m,./images/SUNSETLB.png,,,,,,,,,,,,,,,,,,,,,,,,,,,,,,,,,
,,,,,,,,,,,,,,,,,6111426ad1d92c8215ccd56e,21,2022-02-12_16h54.18.676,lexical_decision_task_DD_L2,2021.2.3,iPhone,30.3030303,,,,,,,,,,0.603,0,,,,,,,,,,,,,,,0,0.318367347,-0.305102041,1,0,0,0.603,button_right_main,0.318367347,-0.305102041,1,0,0,,0,59,59,143,1,MONGS,LB,old,z,./images/MONGSLB.png,,,,,,,,,,,,,,,,,,,,,,,,,,,,,,,,,
,,,,,,,,,,,,,,,,,6111426ad1d92c8215ccd56e,21,2022-02-12_16h54.18.676,lexical_decision_task_DD_L2,2021.2.3,iPhone,30.3030303,,,,,,,,,,0.51,1,,,,,,,,,,,,,,,0,0.314285714,-0.310204082,1,0,0,0.51,button_right_main,0.314285714,-0.310204082,1,0,0,,0,60,60,32,1,BARREL,C,old,m,./images/BARREL.png,,,,,,,,,,,,,,,,,,,,,,,,,,,,,,,,,
,,,,,,,,,,,,,,,,,6111426ad1d92c8215ccd56e,21,2022-02-12_16h54.18.676,lexical_decision_task_DD_L2,2021.2.3,iPhone,30.3030303,,,,,,,,,,0.499,1,,,,,,,,,,,,,,,0,0.333673469,-0.310204082,1,0,0,0.499,button_right_main,0.333673469,-0.310204082,1,0,0,,0,61,61,26,1,SMOKER,C,old,m,./images/SMOKER.png,,,,,,,,,,,,,,,,,,,,,,,,,,,,,,,,,
,,,,,,,,,,,,,,,,,6111426ad1d92c8215ccd56e,21,2022-02-12_16h54.18.676,lexical_decision_task_DD_L2,2021.2.3,iPhone,30.3030303,,,,,,,,,,0.564,1,,,,,,,,,,,,,,,0,0.325510204,-0.290816327,1,0,0,0.564,button_right_main,0.325510204,-0.290816327,1,0,0,,0,62,62,59,1,BURIAL,C,old,m,./images/BURIAL.png,,,,,,,,,,,,,,,,,,,,,,,,,,,,,,,,,
,,,,,,,,,,,,,,,,,6111426ad1d92c8215ccd56e,21,2022-02-12_16h54.18.676,lexical_decision_task_DD_L2,2021.2.3,iPhone,30.3030303,,,,,,,,,,0.699,1,,,,,,,,,,,,,,,0,0.315306122,-0.317346939,1,0,0,0.699,button_right_main,0.315306122,-0.317346939,1,0,0,,0,63,63,21,1,KIDNEY,HB,old,m,./images/KIDNEYHB.png,,,,,,,,,,,,,,,,,,,,,,,,,,,,,,,,,
,,,,,,,,,,,,,,,,,6111426ad1d92c8215ccd56e,21,2022-02-12_16h54.18.676,lexical_decision_task_DD_L2,2021.2.3,iPhone,30.3030303,,,,,,,,,,0.497,1,,,,,,,,,,,,,,,0,0.345918367,-0.287755102,1,0,0,0.497,button_right_main,0.345918367,-0.287755102,1,0,0,,0,64,64,31,1,QUILL,LB,old,m,./images/QUILLLB.png,,,,,,,,,,,,,,,,,,,,,,,,,,,,,,,,,
,,,,,,,,,,,,,,,,,6111426ad1d92c8215ccd56e,21,2022-02-12_16h54.18.676,lexical_decision_task_DD_L2,2021.2.3,iPhone,30.3030303,,,,,,,,,,0.43,0,,,,,,,,,,,,,,,0,0.331632653,-0.308163265,1,0,0,0.43,button_right_main,0.331632653,-0.308163265,1,0,0,,0,65,65,123,1,SEDGE,C,old,z,./images/SEDGE.png,,,,,,,,,,,,,,,,,,,,,,,,,,,,,,,,,
,,,,,,,,,,,,,,,,,6111426ad1d92c8215ccd56e,21,2022-02-12_16h54.18.676,lexical_decision_task_DD_L2,2021.2.3,iPhone,30.3030303,,,,,,,,,,0.604,1,,,,,,,,,,,,,,,0,0.314285714,-0.307142857,1,0,0,0.604,button_right_main,0.314285714,-0.307142857,1,0,0,,0,66,66,39,1,SHELF,HB,old,m,./images/SHELFHB.png,,,,,,,,,,,,,,,,,,,,,,,,,,,,,,,,,
,,,,,,,,,,,,,,,,,6111426ad1d92c8215ccd56e,21,2022-02-12_16h54.18.676,lexical_decision_task_DD_L2,2021.2.3,iPhone,30.3030303,,,,,,,,,,0.941,1,,,,,,,,,,,,,,,0,-0.353061224,-0.286734694,1,0,0,0.941,button_left_main,-0.353061224,-0.286734694,1,0,0,,0,67,67,136,1,WERVE,HB,old,z,./images/WERVEHB.png,,,,,,,,,,,,,,,,,,,,,,,,,,,,,,,,,
,,,,,,,,,,,,,,,,,6111426ad1d92c8215ccd56e,21,2022-02-12_16h54.18.676,lexical_decision_task_DD_L2,2021.2.3,iPhone,30.3030303,,,,,,,,,,1.911,1,,,,,,,,,,,,,,,0,-0.259183673,-0.252040816,1,0,0,1.911,button_left_main,-0.259183673,-0.252040816,1,0,0,,0,68,68,144,1,NAIRY,C,old,z,./images/NAIRY.png,,,,,,,,,,,,,,,,,,,,,,,,,,,,,,,,,
,,,,,,,,,,,,,,,,,6111426ad1d92c8215ccd56e,21,2022-02-12_16h54.18.676,lexical_decision_task_DD_L2,2021.2.3,iPhone,30.3030303,,,,,,,,,,0.599,1,,,,,,,,,,,,,,,0,-0.221428571,-0.286734694,1,0,0,0.599,button_left_main,-0.221428571,-0.286734694,1,0,0,,0,69,69,124,1,TUNCH,HB,old,z,./images/TUNCHHB.png,,,,,,,,,,,,,,,,,,,,,,,,,,,,,,,,,
,,,,,,,,,,,,,,,,,6111426ad1d92c8215ccd56e,21,2022-02-12_16h54.18.676,lexical_decision_task_DD_L2,2021.2.3,iPhone,30.3030303,,,,,,,,,,0.53,1,,,,,,,,,,,,,,,0,-0.22755102,-0.284693878,1,0,0,0.53,button_left_main,-0.22755102,-0.284693878,1,0,0,,0,70,70,167,1,ZONET,LB,old,z,./images/ZONETLB.png,,,,,,,,,,,,,,,,,,,,,,,,,,,,,,,,,
,,,,,,,,,,,,,,,,,6111426ad1d92c8215ccd56e,21,2022-02-12_16h54.18.676,lexical_decision_task_DD_L2,2021.2.3,iPhone,30.3030303,,,,,,,,,,0.664,1,,,,,,,,,,,,,,,0,0.301020408,-0.266326531,1,0,0,0.664,button_right_main,0.301020408,-0.266326531,1,0,0,,0,71,71,77,1,COUCH,C,old,m,./images/COUCH.png,,,,,,,,,,,,,,,,,,,,,,,,,,,,,,,,,
,,,,,,,,,,,,,,,,,6111426ad1d92c8215ccd56e,21,2022-02-12_16h54.18.676,lexical_decision_task_DD_L2,2021.2.3,iPhone,30.3030303,,,,,,,,,,0.678,1,,,,,,,,,,,,,,,0,0.310204082,-0.306122449,1,0,0,0.678,button_right_main,0.310204082,-0.306122449,1,0,0,,0,72,72,5,1,PASTA,C,old,m,./images/PASTA.png,,,,,,,,,,,,,,,,,,,,,,,,,,,,,,,,,
,,,,,,,,,,,,,,,,,6111426ad1d92c8215ccd56e,21,2022-02-12_16h54.18.676,lexical_decision_task_DD_L2,2021.2.3,iPhone,30.3030303,,,,,,,,,,0.565,0,,,,,,,,,,,,,,,0,0.333673469,-0.27755102,1,0,0,0.565,button_right_main,0.333673469,-0.27755102,1,0,0,,0,73,73,128,1,GRIFT,LB,old,z,./images/GRIFTLB.png,,,,,,,,,,,,,,,,,,,,,,,,,,,,,,,,,
,,,,,,,,,,,,,,,,,6111426ad1d92c8215ccd56e,21,2022-02-12_16h54.18.676,lexical_decision_task_DD_L2,2021.2.3,iPhone,30.3030303,,,,,,,,,,0.931,0,,,,,,,,,,,,,,,0,0.371428571,-0.264285714,1,0,0,0.931,button_right_main,0.371428571,-0.264285714,1,0,0,,0,74,74,120,1,RINED,C,old,z,./images/RINED.png,,,,,,,,,,,,,,,,,,,,,,,,,,,,,,,,,
,,,,,,,,,,,,,,,,,6111426ad1d92c8215ccd56e,21,2022-02-12_16h54.18.676,lexical_decision_task_DD_L2,2021.2.3,iPhone,30.3030303,,,,,,,,,,0.933,1,,,,,,,,,,,,,,,0,-0.225510204,-0.260204082,1,0,0,0.933,button_left_main,-0.225510204,-0.260204082,1,0,0,,0,75,75,163,1,GAMBA,HB,old,z,./images/GAMBAHB.png,,,,,,,,,,,,,,,,,,,,,,,,,,,,,,,,,
,,,,,,,,,,,,,,,,,6111426ad1d92c8215ccd56e,21,2022-02-12_16h54.18.676,lexical_decision_task_DD_L2,2021.2.3,iPhone,30.3030303,,,,,,,,,,0.511,1,,,,,,,,,,,,,,,0,0.334693878,-0.304081633,1,0,0,0.511,button_right_main,0.334693878,-0.304081633,1,0,0,,0,76,76,83,1,JUNGLE,C,old,m,./images/JUNGLE.png,,,,,,,,,,,,,,,,,,,,,,,,,,,,,,,,,
,,,,,,,,,,,,,,,,,6111426ad1d92c8215ccd56e,21,2022-02-12_16h54.18.676,lexical_decision_task_DD_L2,2021.2.3,iPhone,30.3030303,,,,,,,,,,0.663,0,,,,,,,,,,,,,,,0,0.341836735,-0.283673469,1,0,0,0.663,button_right_main,0.341836735,-0.283673469,1,0,0,,0,77,77,111,1,HOSSE,C,old,z,./images/HOSSE.png,,,,,,,,,,,,,,,,,,,,,,,,,,,,,,,,,
,,,,,,,,,,,,,,,,,6111426ad1d92c8215ccd56e,21,2022-02-12_16h54.18.676,lexical_decision_task_DD_L2,2021.2.3,iPhone,30.3030303,,,,,,,,,,0.531,0,,,,,,,,,,,,,,,0,0.328571429,-0.286734694,1,0,0,0.531,button_right_main,0.328571429,-0.286734694,1,0,0,,0,78,78,91,1,SHENS,HB,old,z,./images/SHENSHB.png,,,,,,,,,,,,,,,,,,,,,,,,,,,,,,,,,
,,,,,,,,,,,,,,,,,6111426ad1d92c8215ccd56e,21,2022-02-12_16h54.18.676,lexical_decision_task_DD_L2,2021.2.3,iPhone,30.3030303,,,,,,,,,,0.679,1,,,,,,,,,,,,,,,0,0.271428571,-0.278571429,1,0,0,0.679,button_right_main,0.271428571,-0.278571429,1,0,0,,0,79,79,3,1,FINGER,HB,old,m,./images/FINGERHB.png,,,,,,,,,,,,,,,,,,,,,,,,,,,,,,,,,
,,,,,,,,,,,,,,,,,6111426ad1d92c8215ccd56e,21,2022-02-12_16h54.18.676,lexical_decision_task_DD_L2,2021.2.3,iPhone,30.3030303,,,,,,,,,,0.53,1,,,,,,,,,,,,,,,0,0.341836735,-0.278571429,1,0,0,0.53,button_right_main,0.341836735,-0.278571429,1,0,0,,0,80,80,76,1,INFANT,LB,old,m,./images/INFANTLB.png,,,,,,,,,,,,,,,,,,,,,,,,,,,,,,,,,
,,,,,,,,,,,,,,,,,6111426ad1d92c8215ccd56e,21,2022-02-12_16h54.18.676,lexical_decision_task_DD_L2,2021.2.3,iPhone,30.3030303,,,,,,,,,,0.801,1,,,,,,,,,,,,,,,0,0.345918367,-0.279591837,1,0,0,0.801,button_right_main,0.345918367,-0.279591837,1,0,0,,0,81,81,64,1,JELLY,LB,old,m,./images/JELLYLB.png,,,,,,,,,,,,,,,,,,,,,,,,,,,,,,,,,
,,,,,,,,,,,,,,,,,6111426ad1d92c8215ccd56e,21,2022-02-12_16h54.18.676,lexical_decision_task_DD_L2,2021.2.3,iPhone,30.3030303,,,,,,,,,,0.835,0,,,,,,,,,,,,,,,0,0.355102041,-0.265306122,1,0,0,0.835,button_right_main,0.355102041,-0.265306122,1,0,0,,0,82,82,141,1,PLEET,C,old,z,./images/PLEET.png,,,,,,,,,,,,,,,,,,,,,,,,,,,,,,,,,
,,,,,,,,,,,,,,,,,6111426ad1d92c8215ccd56e,21,2022-02-12_16h54.18.676,lexical_decision_task_DD_L2,2021.2.3,iPhone,30.3030303,,,,,,,,,,0.765,1,,,,,,,,,,,,,,,0,0.321428571,-0.273469388,1,0,0,0.765,button_right_main,0.174489796,-0.390816327,1,0,0,,0,83,83,48,1,SPORT,HB,old,m,./images/SPORTHB.png,break_done_button,,,,,,,,,,,,,,,,,,,,,,,,,,,,,,,,
,,,,,,,,,,,,,,,,,6111426ad1d92c8215ccd56e,21,2022-02-12_16h54.18.676,lexical_decision_task_DD_L2,2021.2.3,iPhone,30.3030303,,,,,,,,,,0.603,0,,,,,,,,,,,,,,,0,0.319387755,-0.281632653,1,0,0,0.603,button_right_main,0.319387755,-0.281632653,1,0,0,,0,84,84,113,1,LINEW,LB,old,z,./images/LINEWLB.png,,,,,,,,,,,,,,,,,,,,,,,,,,,,,,,,,
,,,,,,,,,,,,,,,,,6111426ad1d92c8215ccd56e,21,2022-02-12_16h54.18.676,lexical_decision_task_DD_L2,2021.2.3,iPhone,30.3030303,,,,,,,,,,0.443,1,,,,,,,,,,,,,,,0,0.31122449,-0.291836735,1,0,0,0.443,button_right_main,0.31122449,-0.291836735,1,0,0,,0,85,85,66,1,SWEAT,HB,old,m,./images/SWEATHB.png,,,,,,,,,,,,,,,,,,,,,,,,,,,,,,,,,
,,,,,,,,,,,,,,,,,6111426ad1d92c8215ccd56e,21,2022-02-12_16h54.18.676,lexical_decision_task_DD_L2,2021.2.3,iPhone,30.3030303,,,,,,,,,,1.198,1,,,,,,,,,,,,,,,0,-0.237755102,-0.235714286,1,0,0,1.198,button_left_main,-0.237755102,-0.235714286,1,0,0,,0,86,86,106,1,CLUMS,HB,old,z,./images/CLUMSHB.png,,,,,,,,,,,,,,,,,,,,,,,,,,,,,,,,,
,,,,,,,,,,,,,,,,,6111426ad1d92c8215ccd56e,21,2022-02-12_16h54.18.676,lexical_decision_task_DD_L2,2021.2.3,iPhone,30.3030303,,,,,,,,,,0.71,1,,,,,,,,,,,,,,,0,0.332653061,-0.3,1,0,0,0.71,button_right_main,0.332653061,-0.3,1,0,0,,0,87,87,69,1,COOKER,HB,old,m,./images/COOKERHB.png,,,,,,,,,,,,,,,,,,,,,,,,,,,,,,,,,
,,,,,,,,,,,,,,,,,6111426ad1d92c8215ccd56e,21,2022-02-12_16h54.18.676,lexical_decision_task_DD_L2,2021.2.3,iPhone,30.3030303,,,,,,,,,,0.501,0,,,,,,,,,,,,,,,0,0.317346939,-0.303061224,1,0,0,0.501,button_right_main,0.317346939,-0.303061224,1,0,0,,0,88,88,151,1,TINKY,HB,old,z,./images/TINKYHB.png,,,,,,,,,,,,,,,,,,,,,,,,,,,,,,,,,
,,,,,,,,,,,,,,,,,6111426ad1d92c8215ccd56e,21,2022-02-12_16h54.18.676,lexical_decision_task_DD_L2,2021.2.3,iPhone,30.3030303,,,,,,,,,,0.497,1,,,,,,,,,,,,,,,0,0.351020408,-0.296938776,1,0,0,0.497,button_right_main,0.351020408,-0.296938776,1,0,0,,0,89,89,71,1,PIMPLE,C,old,m,./images/PIMPLE.png,,,,,,,,,,,,,,,,,,,,,,,,,,,,,,,,,
,,,,,,,,,,,,,,,,,6111426ad1d92c8215ccd56e,21,2022-02-12_16h54.18.676,lexical_decision_task_DD_L2,2021.2.3,iPhone,30.3030303,,,,,,,,,,0.799,1,,,,,,,,,,,,,,,0,-0.251020408,-0.23877551,1,0,0,0.799,button_left_main,-0.251020408,-0.23877551,1,0,0,,0,90,90,93,1,SMONE,C,old,z,./images/SMONE.png,,,,,,,,,,,,,,,,,,,,,,,,,,,,,,,,,
,,,,,,,,,,,,,,,,,6111426ad1d92c8215ccd56e,21,2022-02-12_16h54.18.676,lexical_decision_task_DD_L2,2021.2.3,iPhone,30.3030303,,,,,,,,,,0.63,1,,,,,,,,,,,,,,,0,-0.37244898,-0.285714286,1,0,0,0.63,button_left_main,-0.37244898,-0.285714286,1,0,0,,0,91,91,126,1,GUELS,C,old,z,./images/GUELS.png,,,,,,,,,,,,,,,,,,,,,,,,,,,,,,,,,
,,,,,,,,,,,,,,,,,6111426ad1d92c8215ccd56e,21,2022-02-12_16h54.18.676,lexical_decision_task_DD_L2,2021.2.3,iPhone,30.3030303,,,,,,,,,,0.897,1,,,,,,,,,,,,,,,0,-0.404081633,-0.275510204,1,0,0,0.897,button_left_main,-0.404081633,-0.275510204,1,0,0,,0,92,92,139,1,BLEAR,HB,old,z,./images/BLEARHB.png,,,,,,,,,,,,,,,,,,,,,,,,,,,,,,,,,
,,,,,,,,,,,,,,,,,6111426ad1d92c8215ccd56e,21,2022-02-12_16h54.18.676,lexical_decision_task_DD_L2,2021.2.3,iPhone,30.3030303,,,,,,,,,,0.763,1,,,,,,,,,,,,,,,0,-0.387755102,-0.27755102,1,0,0,0.763,button_left_main,-0.387755102,-0.27755102,1,0,0,,0,93,93,104,1,GITTY,LB,old,z,./images/GITTYLB.png,,,,,,,,,,,,,,,,,,,,,,,,,,,,,,,,,
,,,,,,,,,,,,,,,,,6111426ad1d92c8215ccd56e,21,2022-02-12_16h54.18.676,lexical_decision_task_DD_L2,2021.2.3,iPhone,30.3030303,,,,,,,,,,0.643,1,,,,,,,,,,,,,,,0,0.32755102,-0.307142857,1,0,0,0.643,button_right_main,0.32755102,-0.307142857,1,0,0,,0,94,94,29,1,CRUMB,C,old,m,./images/CRUMB.png,,,,,,,,,,,,,,,,,,,,,,,,,,,,,,,,,
,,,,,,,,,,,,,,,,,6111426ad1d92c8215ccd56e,21,2022-02-12_16h54.18.676,lexical_decision_task_DD_L2,2021.2.3,iPhone,30.3030303,,,,,,,,,,0.797,0,,,,,,,,,,,,,,,0,0.321428571,-0.284693878,1,0,0,0.797,button_right_main,0.321428571,-0.284693878,1,0,0,,0,95,95,159,1,CUDDY,C,old,z,./images/CUDDY.png,,,,,,,,,,,,,,,,,,,,,,,,,,,,,,,,,
,,,,,,,,,,,,,,,,,6111426ad1d92c8215ccd56e,21,2022-02-12_16h54.18.676,lexical_decision_task_DD_L2,2021.2.3,iPhone,30.3030303,,,,,,,,,,0.943,0,,,,,,,,,,,,,,,0,0.326530612,-0.259183673,1,0,0,0.943,button_right_main,0.326530612,-0.259183673,1,0,0,,0,96,96,118,1,BAVEL,HB,old,z,./images/BAVELHB.png,,,,,,,,,,,,,,,,,,,,,,,,,,,,,,,,,
,,,,,,,,,,,,,,,,,6111426ad1d92c8215ccd56e,21,2022-02-12_16h54.18.676,lexical_decision_task_DD_L2,2021.2.3,iPhone,30.3030303,,,,,,,,,,0.542,1,,,,,,,,,,,,,,,0,0.314285714,-0.260204082,1,0,0,0.542,button_right_main,0.314285714,-0.260204082,1,0,0,,0,97,97,45,1,KITTEN,HB,old,m,./images/KITTENHB.png,,,,,,,,,,,,,,,,,,,,,,,,,,,,,,,,,
,,,,,,,,,,,,,,,,,6111426ad1d92c8215ccd56e,21,2022-02-12_16h54.18.676,lexical_decision_task_DD_L2,2021.2.3,iPhone,30.3030303,,,,,,,,,,0.544,1,,,,,,,,,,,,,,,0,0.320408163,-0.270408163,1,0,0,0.544,button_right_main,0.320408163,-0.270408163,1,0,0,,0,98,98,70,1,URINE,LB,old,m,./images/URINELB.png,,,,,,,,,,,,,,,,,,,,,,,,,,,,,,,,,
,,,,,,,,,,,,,,,,,6111426ad1d92c8215ccd56e,21,2022-02-12_16h54.18.676,lexical_decision_task_DD_L2,2021.2.3,iPhone,30.3030303,,,,,,,,,,0.677,1,,,,,,,,,,,,,,,0,-0.360204082,-0.293877551,1,0,0,0.677,button_left_main,-0.360204082,-0.293877551,1,0,0,,0,99,99,87,1,TRING,C,old,z,./images/TRING.png,,,,,,,,,,,,,,,,,,,,,,,,,,,,,,,,,
,,,,,,,,,,,,,,,,,6111426ad1d92c8215ccd56e,21,2022-02-12_16h54.18.676,lexical_decision_task_DD_L2,2021.2.3,iPhone,30.3030303,,,,,,,,,,0.77,1,,,,,,,,,,,,,,,0,0.326530612,-0.279591837,1,0,0,0.77,button_right_main,0.326530612,-0.279591837,1,0,0,,0,100,100,17,1,SKIING,C,old,m,./images/SKIING.png,,,,,,,,,,,,,,,,,,,,,,,,,,,,,,,,,
,,,,,,,,,,,,,,,,,6111426ad1d92c8215ccd56e,21,2022-02-12_16h54.18.676,lexical_decision_task_DD_L2,2021.2.3,iPhone,30.3030303,,,,,,,,,,0.477,1,,,,,,,,,,,,,,,0,0.319387755,-0.280612245,1,0,0,0.477,button_right_main,0.319387755,-0.280612245,1,0,0,,0,101,101,68,1,TORCH,C,old,m,./images/TORCH.png,,,,,,,,,,,,,,,,,,,,,,,,,,,,,,,,,
,,,,,,,,,,,,,,,,,6111426ad1d92c8215ccd56e,21,2022-02-12_16h54.18.676,lexical_decision_task_DD_L2,2021.2.3,iPhone,30.3030303,,,,,,,,,,0.743,0,,,,,,,,,,,,,,,0,0.313265306,-0.278571429,1,0,0,0.743,button_right_main,0.313265306,-0.278571429,1,0,0,,0,102,102,94,1,BLANS,HB,old,z,./images/BLANSHB.png,,,,,,,,,,,,,,,,,,,,,,,,,,,,,,,,,
,,,,,,,,,,,,,,,,,6111426ad1d92c8215ccd56e,21,2022-02-12_16h54.18.676,lexical_decision_task_DD_L2,2021.2.3,iPhone,30.3030303,,,,,,,,,,1.232,1,,,,,,,,,,,,,,,0,0.314285714,-0.27244898,1,0,0,1.232,button_right_main,0.314285714,-0.27244898,1,0,0,,0,103,103,33,1,MAGGOT,HB,old,m,./images/MAGGOTHB.png,,,,,,,,,,,,,,,,,,,,,,,,,,,,,,,,,
,,,,,,,,,,,,,,,,,6111426ad1d92c8215ccd56e,21,2022-02-12_16h54.18.676,lexical_decision_task_DD_L2,2021.2.3,iPhone,30.3030303,,,,,,,,,,1.396,0,,,,,,,,,,,,,,,0,0.314285714,-0.265306122,1,0,0,1.396,button_right_main,0.314285714,-0.265306122,1,0,0,,0,104,104,164,1,SGREW,LB,old,z,./images/SGREWLB.png,,,,,,,,,,,,,,,,,,,,,,,,,,,,,,,,,
,,,,,,,,,,,,,,,,,6111426ad1d92c8215ccd56e,21,2022-02-12_16h54.18.676,lexical_decision_task_DD_L2,2021.2.3,iPhone,30.3030303,,,,,,,,,,0.843,1,,,,,,,,,,,,,,,0,0.324489796,-0.270408163,1,0,0,0.843,button_right_main,0.324489796,-0.270408163,1,0,0,,0,105,105,74,1,CEMENT,C,old,m,./images/CEMENT.png,,,,,,,,,,,,,,,,,,,,,,,,,,,,,,,,,
,,,,,,,,,,,,,,,,,6111426ad1d92c8215ccd56e,21,2022-02-12_16h54.18.676,lexical_decision_task_DD_L2,2021.2.3,iPhone,30.3030303,,,,,,,,,,0.707,1,,,,,,,,,,,,,,,0,-0.371428571,-0.246938776,1,0,0,0.707,button_left_main,-0.371428571,-0.246938776,1,0,0,,0,106,106,153,1,CLUPS,C,old,z,./images/CLUPS.png,,,,,,,,,,,,,,,,,,,,,,,,,,,,,,,,,
,,,,,,,,,,,,,,,,,6111426ad1d92c8215ccd56e,21,2022-02-12_16h54.18.676,lexical_decision_task_DD_L2,2021.2.3,iPhone,30.3030303,,,,,,,,,,0.798,1,,,,,,,,,,,,,,,0,-0.256122449,-0.232653061,1,0,0,0.798,button_left_main,-0.256122449,-0.232653061,1,0,0,,0,107,107,108,1,GRUET,C,old,z,./images/GRUET.png,,,,,,,,,,,,,,,,,,,,,,,,,,,,,,,,,
,,,,,,,,,,,,,,,,,6111426ad1d92c8215ccd56e,21,2022-02-12_16h54.18.676,lexical_decision_task_DD_L2,2021.2.3,iPhone,30.3030303,,,,,,,,,,0.577,1,,,,,,,,,,,,,,,0,-0.266326531,-0.27244898,1,0,0,0.577,button_left_main,-0.266326531,-0.27244898,1,0,0,,0,108,108,84,1,HAXES,C,old,z,./images/HAXES.png,,,,,,,,,,,,,,,,,,,,,,,,,,,,,,,,,
,,,,,,,,,,,,,,,,,6111426ad1d92c8215ccd56e,21,2022-02-12_16h54.18.676,lexical_decision_task_DD_L2,2021.2.3,iPhone,30.3030303,,,,,,,,,,0.636,1,,,,,,,,,,,,,,,0,-0.255102041,-0.259183673,1,0,0,0.636,button_left_main,-0.255102041,-0.259183673,1,0,0,,0,109,109,137,1,JOOST,LB,old,z,./images/JOOSTLB.png,,,,,,,,,,,,,,,,,,,,,,,,,,,,,,,,,
,,,,,,,,,,,,,,,,,6111426ad1d92c8215ccd56e,21,2022-02-12_16h54.18.676,lexical_decision_task_DD_L2,2021.2.3,iPhone,30.3030303,,,,,,,,,,0.609,1,,,,,,,,,,,,,,,0,0.328571429,-0.257142857,1,0,0,0.609,button_right_main,0.328571429,-0.257142857,1,0,0,,0,110,110,15,1,GREASE,HB,old,m,./images/GREASEHB.png,,,,,,,,,,,,,,,,,,,,,,,,,,,,,,,,,
,,,,,,,,,,,,,,,,,6111426ad1d92c8215ccd56e,21,2022-02-12_16h54.18.676,lexical_decision_task_DD_L2,2021.2.3,iPhone,30.3030303,,,,,,,,,,0.829,1,,,,,,,,,,,,,,,0,-0.256122449,-0.228571429,1,0,0,0.829,button_left_main,-0.256122449,-0.228571429,1,0,0,,0,111,111,161,1,BLAPS,LB,old,z,./images/BLAPSLB.png,,,,,,,,,,,,,,,,,,,,,,,,,,,,,,,,,
,,,,,,,,,,,,,,,,,6111426ad1d92c8215ccd56e,21,2022-02-12_16h54.18.676,lexical_decision_task_DD_L2,2021.2.3,iPhone,30.3030303,,,,,,,,,,0.469,1,,,,,,,,,,,,,,,0,0.354081633,-0.252040816,1,0,0,0.469,button_right_main,0.354081633,-0.252040816,1,0,0,,0,112,112,2,1,BEARD,C,old,m,./images/BEARD.png,,,,,,,,,,,,,,,,,,,,,,,,,,,,,,,,,
,,,,,,,,,,,,,,,,,6111426ad1d92c8215ccd56e,21,2022-02-12_16h54.18.676,lexical_decision_task_DD_L2,2021.2.3,iPhone,30.3030303,,,,,,,,,,0.466,1,,,,,,,,,,,,,,,0,0.328571429,-0.244897959,1,0,0,0.466,button_right_main,0.328571429,-0.244897959,1,0,0,,0,113,113,4,1,MUSCLE,LB,old,m,./images/MUSCLELB.png,,,,,,,,,,,,,,,,,,,,,,,,,,,,,,,,,
,,,,,,,,,,,,,,,,,6111426ad1d92c8215ccd56e,21,2022-02-12_16h54.18.676,lexical_decision_task_DD_L2,2021.2.3,iPhone,30.3030303,,,,,,,,,,0.473,1,,,,,,,,,,,,,,,0,0.336734694,-0.27244898,1,0,0,0.473,button_right_main,0.336734694,-0.27244898,1,0,0,,0,114,114,1,1,PLANK,LB,old,m,./images/PLANKLB.png,,,,,,,,,,,,,,,,,,,,,,,,,,,,,,,,,
,,,,,,,,,,,,,,,,,6111426ad1d92c8215ccd56e,21,2022-02-12_16h54.18.676,lexical_decision_task_DD_L2,2021.2.3,iPhone,30.3030303,,,,,,,,,,0.932,1,,,,,,,,,,,,,,,0,-0.296938776,-0.258163265,1,0,0,0.932,button_left_main,-0.296938776,-0.258163265,1,0,0,,0,115,115,95,1,HANTY,LB,old,z,./images/HANTYLB.png,,,,,,,,,,,,,,,,,,,,,,,,,,,,,,,,,
,,,,,,,,,,,,,,,,,6111426ad1d92c8215ccd56e,21,2022-02-12_16h54.18.676,lexical_decision_task_DD_L2,2021.2.3,iPhone,30.3030303,,,,,,,,,,0.63,1,,,,,,,,,,,,,,,0,0.315306122,-0.317346939,1,0,0,0.63,button_right_main,0.315306122,-0.317346939,1,0,0,,0,116,116,81,1,POODLE,HB,old,m,./images/POODLEHB.png,,,,,,,,,,,,,,,,,,,,,,,,,,,,,,,,,
,,,,,,,,,,,,,,,,,6111426ad1d92c8215ccd56e,21,2022-02-12_16h54.18.676,lexical_decision_task_DD_L2,2021.2.3,iPhone,30.3030303,,,,,,,,,,0.837,1,,,,,,,,,,,,,,,0,-0.241836735,-0.220408163,1,0,0,0.837,button_left_main,-0.241836735,-0.220408163,1,0,0,,0,117,117,165,1,TROWN,C,old,z,./images/TROWN.png,,,,,,,,,,,,,,,,,,,,,,,,,,,,,,,,,
,,,,,,,,,,,,,,,,,6111426ad1d92c8215ccd56e,21,2022-02-12_16h54.18.676,lexical_decision_task_DD_L2,2021.2.3,iPhone,30.3030303,,,,,,,,,,0.61,1,,,,,,,,,,,,,,,0,0.379591837,-0.273469388,1,0,0,0.61,button_right_main,0.379591837,-0.273469388,1,0,0,,0,118,118,53,1,CARPET,C,old,m,./images/CARPET.png,,,,,,,,,,,,,,,,,,,,,,,,,,,,,,,,,
,,,,,,,,,,,,,,,,,6111426ad1d92c8215ccd56e,21,2022-02-12_16h54.18.676,lexical_decision_task_DD_L2,2021.2.3,iPhone,30.3030303,,,,,,,,,,0.597,0,,,,,,,,,,,,,,,0,0.343877551,-0.268367347,1,0,0,0.597,button_right_main,0.343877551,-0.268367347,1,0,0,,0,119,119,125,1,MOOKY,LB,old,z,./images/MOOKYLB.png,,,,,,,,,,,,,,,,,,,,,,,,,,,,,,,,,
,,,,,,,,,,,,,,,,,6111426ad1d92c8215ccd56e,21,2022-02-12_16h54.18.676,lexical_decision_task_DD_L2,2021.2.3,iPhone,30.3030303,,,,,,,,,,0.736,0,,,,,,,,,,,,,,,0,0.340816327,-0.289795918,1,0,0,0.736,button_right_main,0.340816327,-0.289795918,1,0,0,,0,120,120,135,1,JOODY,C,old,z,./images/JOODY.png,,,,,,,,,,,,,,,,,,,,,,,,,,,,,,,,,
,,,,,,,,,,,,,,,,,6111426ad1d92c8215ccd56e,21,2022-02-12_16h54.18.676,lexical_decision_task_DD_L2,2021.2.3,iPhone,30.3030303,,,,,,,,,,0.569,1,,,,,,,,,,,,,,,0,0.343877551,-0.257142857,1,0,0,0.569,button_right_main,0.343877551,-0.257142857,1,0,0,,0,121,121,52,1,BANNER,LB,old,m,./images/BANNERLB.png,,,,,,,,,,,,,,,,,,,,,,,,,,,,,,,,,
,,,,,,,,,,,,,,,,,6111426ad1d92c8215ccd56e,21,2022-02-12_16h54.18.676,lexical_decision_task_DD_L2,2021.2.3,iPhone,30.3030303,,,,,,,,,,0.676,1,,,,,,,,,,,,,,,0,0.343877551,-0.289795918,1,0,0,0.676,button_right_main,0.343877551,-0.289795918,1,0,0,,0,122,122,42,1,FOLDER,HB,old,m,./images/FOLDERHB.png,,,,,,,,,,,,,,,,,,,,,,,,,,,,,,,,,
,,,,,,,,,,,,,,,,,6111426ad1d92c8215ccd56e,21,2022-02-12_16h54.18.676,lexical_decision_task_DD_L2,2021.2.3,iPhone,30.3030303,,,,,,,,,,0.932,0,,,,,,,,,,,,,,,0,0.326530612,-0.273469388,1,0,0,0.932,button_right_main,0.326530612,-0.273469388,1,0,0,,0,123,123,134,1,TROSS,LB,old,z,./images/TROSSLB.png,,,,,,,,,,,,,,,,,,,,,,,,,,,,,,,,,
,,,,,,,,,,,,,,,,,6111426ad1d92c8215ccd56e,21,2022-02-12_16h54.18.676,lexical_decision_task_DD_L2,2021.2.3,iPhone,30.3030303,,,,,,,,,,0.965,1,,,,,,,,,,,,,,,0,-0.370408163,-0.307142857,1,0,0,0.965,button_left_main,-0.370408163,-0.307142857,1,0,0,,0,124,124,157,1,INLER,HB,old,z,./images/INLERHB.png,,,,,,,,,,,,,,,,,,,,,,,,,,,,,,,,,
,,,,,,,,,,,,,,,,,6111426ad1d92c8215ccd56e,21,2022-02-12_16h54.18.676,lexical_decision_task_DD_L2,2021.2.3,iPhone,30.3030303,,,,,,,,,,0.81,1,,,,,,,,,,,,,,,0,-0.398979592,-0.270408163,1,0,0,0.81,button_left_main,0.146938776,-0.360204082,1,0,0,,0,125,125,121,1,CEERS,HB,old,z,./images/CEERSHB.png,break_done_button,,,,,,,,,,,,,,,,,,,,,,,,,,,,,,,,
,,,,,,,,,,,,,,,,,6111426ad1d92c8215ccd56e,21,2022-02-12_16h54.18.676,lexical_decision_task_DD_L2,2021.2.3,iPhone,30.3030303,,,,,,,,,,0.83,0,,,,,,,,,,,,,,,0,0.32755102,-0.301020408,1,0,0,0.83,button_right_main,0.32755102,-0.301020408,1,0,0,,0,126,126,110,1,CRUNK,LB,old,z,./images/CRUNKLB.png,,,,,,,,,,,,,,,,,,,,,,,,,,,,,,,,,
,,,,,,,,,,,,,,,,,6111426ad1d92c8215ccd56e,21,2022-02-12_16h54.18.676,lexical_decision_task_DD_L2,2021.2.3,iPhone,30.3030303,,,,,,,,,,0.497,0,,,,,,,,,,,,,,,0,0.3,-0.293877551,1,0,0,0.497,button_right_main,0.3,-0.293877551,1,0,0,,0,127,127,122,1,BLOOT,LB,old,z,./images/BLOOTLB.png,,,,,,,,,,,,,,,,,,,,,,,,,,,,,,,,,
,,,,,,,,,,,,,,,,,6111426ad1d92c8215ccd56e,21,2022-02-12_16h54.18.676,lexical_decision_task_DD_L2,2021.2.3,iPhone,30.3030303,,,,,,,,,,0.836,1,,,,,,,,,,,,,,,0,0.298979592,-0.280612245,1,0,0,0.836,button_right_main,0.298979592,-0.280612245,1,0,0,,0,128,128,75,1,GRAIN,HB,old,m,./images/GRAINHB.png,,,,,,,,,,,,,,,,,,,,,,,,,,,,,,,,,
,,,,,,,,,,,,,,,,,6111426ad1d92c8215ccd56e,21,2022-02-12_16h54.18.676,lexical_decision_task_DD_L2,2021.2.3,iPhone,30.3030303,,,,,,,,,,0.67,1,,,,,,,,,,,,,,,0,0.323469388,-0.268367347,1,0,0,0.67,button_right_main,0.323469388,-0.268367347,1,0,0,,0,129,129,61,1,CANDLE,LB,old,m,./images/CANDLELB.png,,,,,,,,,,,,,,,,,,,,,,,,,,,,,,,,,
,,,,,,,,,,,,,,,,,6111426ad1d92c8215ccd56e,21,2022-02-12_16h54.18.676,lexical_decision_task_DD_L2,2021.2.3,iPhone,30.3030303,,,,,,,,,,0.469,1,,,,,,,,,,,,,,,0,0.321428571,-0.265306122,1,0,0,0.469,button_right_main,0.321428571,-0.265306122,1,0,0,,0,130,130,49,1,DRUMS,LB,old,m,./images/DRUMSLB.png,,,,,,,,,,,,,,,,,,,,,,,,,,,,,,,,,
,,,,,,,,,,,,,,,,,6111426ad1d92c8215ccd56e,21,2022-02-12_16h54.18.676,lexical_decision_task_DD_L2,2021.2.3,iPhone,30.3030303,,,,,,,,,,0.476,1,,,,,,,,,,,,,,,0,0.301020408,-0.278571429,1,0,0,0.476,button_right_main,0.301020408,-0.278571429,1,0,0,,0,131,131,13,1,MOTOR,LB,old,m,./images/MOTORLB.png,,,,,,,,,,,,,,,,,,,,,,,,,,,,,,,,,
,,,,,,,,,,,,,,,,,6111426ad1d92c8215ccd56e,21,2022-02-12_16h54.18.676,lexical_decision_task_DD_L2,2021.2.3,iPhone,30.3030303,,,,,,,,,,0.71,1,,,,,,,,,,,,,,,0,-0.382653061,-0.333673469,1,0,0,0.71,button_left_main,-0.382653061,-0.333673469,1,0,0,,0,132,132,90,1,NEAST,C,old,z,./images/NEAST.png,,,,,,,,,,,,,,,,,,,,,,,,,,,,,,,,,
,,,,,,,,,,,,,,,,,6111426ad1d92c8215ccd56e,21,2022-02-12_16h54.18.676,lexical_decision_task_DD_L2,2021.2.3,iPhone,30.3030303,,,,,,,,,,0.666,1,,,,,,,,,,,,,,,0,-0.395918367,-0.285714286,1,0,0,0.666,button_left_main,-0.395918367,-0.285714286,1,0,0,,0,133,133,114,1,RIKES,C,old,z,./images/RIKES.png,,,,,,,,,,,,,,,,,,,,,,,,,,,,,,,,,
,,,,,,,,,,,,,,,,,6111426ad1d92c8215ccd56e,21,2022-02-12_16h54.18.676,lexical_decision_task_DD_L2,2021.2.3,iPhone,30.3030303,,,,,,,,,,0.469,0,,,,,,,,,,,,,,,0,-0.403061224,-0.273469388,1,0,0,0.469,button_left_main,-0.403061224,-0.273469388,1,0,0,,0,134,134,40,1,SWING,LB,old,m,./images/SWINGLB.png,,,,,,,,,,,,,,,,,,,,,,,,,,,,,,,,,
,,,,,,,,,,,,,,,,,6111426ad1d92c8215ccd56e,21,2022-02-12_16h54.18.676,lexical_decision_task_DD_L2,2021.2.3,iPhone,30.3030303,,,,,,,,,,0.599,1,,,,,,,,,,,,,,,0,0.298979592,-0.279591837,1,0,0,0.599,button_right_main,0.298979592,-0.279591837,1,0,0,,0,135,135,19,1,DOUGH,LB,old,m,./images/DOUGHLB.png,,,,,,,,,,,,,,,,,,,,,,,,,,,,,,,,,
,,,,,,,,,,,,,,,,,6111426ad1d92c8215ccd56e,21,2022-02-12_16h54.18.676,lexical_decision_task_DD_L2,2021.2.3,iPhone,30.3030303,,,,,,,,,,0.497,1,,,,,,,,,,,,,,,0,0.304081633,-0.268367347,1,0,0,0.497,button_right_main,0.304081633,-0.268367347,1,0,0,,0,136,136,7,1,PAINT,LB,old,m,./images/PAINTLB.png,,,,,,,,,,,,,,,,,,,,,,,,,,,,,,,,,
,,,,,,,,,,,,,,,,,6111426ad1d92c8215ccd56e,21,2022-02-12_16h54.18.676,lexical_decision_task_DD_L2,2021.2.3,iPhone,30.3030303,,,,,,,,,,0.54,1,,,,,,,,,,,,,,,0,0.312244898,-0.259183673,1,0,0,0.54,button_right_main,0.312244898,-0.259183673,1,0,0,,0,137,137,24,1,SCREW,HB,old,m,./images/SCREWHB.png,,,,,,,,,,,,,,,,,,,,,,,,,,,,,,,,,
,,,,,,,,,,,,,,,,,6111426ad1d92c8215ccd56e,21,2022-02-12_16h54.18.676,lexical_decision_task_DD_L2,2021.2.3,iPhone,30.3030303,,,,,,,,,,1.304,1,,,,,,,,,,,,,,,0,-0.245918367,-0.247959184,1,0,0,1.304,button_left_main,-0.245918367,-0.247959184,1,0,0,,0,138,138,158,1,EGECT,LB,old,z,./images/EGECTLB.png,,,,,,,,,,,,,,,,,,,,,,,,,,,,,,,,,
,,,,,,,,,,,,,,,,,6111426ad1d92c8215ccd56e,21,2022-02-12_16h54.18.676,lexical_decision_task_DD_L2,2021.2.3,iPhone,30.3030303,,,,,,,,,,0.542,1,,,,,,,,,,,,,,,0,0.333673469,-0.232653061,1,0,0,0.542,button_right_main,0.333673469,-0.232653061,1,0,0,,0,139,139,30,1,STORM,HB,old,m,./images/STORMHB.png,,,,,,,,,,,,,,,,,,,,,,,,,,,,,,,,,
,,,,,,,,,,,,,,,,,6111426ad1d92c8215ccd56e,21,2022-02-12_16h54.18.676,lexical_decision_task_DD_L2,2021.2.3,iPhone,30.3030303,,,,,,,,,,0.43,1,,,,,,,,,,,,,,,0,0.330612245,-0.262244898,1,0,0,0.43,button_right_main,0.330612245,-0.262244898,1,0,0,,0,140,140,35,1,PEACH,C,old,m,./images/PEACH.png,,,,,,,,,,,,,,,,,,,,,,,,,,,,,,,,,
,,,,,,,,,,,,,,,,,6111426ad1d92c8215ccd56e,21,2022-02-12_16h54.18.676,lexical_decision_task_DD_L2,2021.2.3,iPhone,30.3030303,,,,,,,,,,0.496,1,,,,,,,,,,,,,,,0,0.326530612,-0.258163265,1,0,0,0.496,button_right_main,0.326530612,-0.258163265,1,0,0,,0,141,141,23,1,WALRUS,C,old,m,./images/WALRUS.png,,,,,,,,,,,,,,,,,,,,,,,,,,,,,,,,,
,,,,,,,,,,,,,,,,,6111426ad1d92c8215ccd56e,21,2022-02-12_16h54.18.676,lexical_decision_task_DD_L2,2021.2.3,iPhone,30.3030303,,,,,,,,,,1.044,0,,,,,,,,,,,,,,,0,0.31122449,-0.292857143,1,0,0,1.044,button_right_main,0.31122449,-0.292857143,1,0,0,,0,142,142,100,1,DRIBS,HB,old,z,./images/DRIBSHB.png,,,,,,,,,,,,,,,,,,,,,,,,,,,,,,,,,
,,,,,,,,,,,,,,,,,6111426ad1d92c8215ccd56e,21,2022-02-12_16h54.18.676,lexical_decision_task_DD_L2,2021.2.3,iPhone,30.3030303,,,,,,,,,,0.465,0,,,,,,,,,,,,,,,0,0.319387755,-0.254081633,1,0,0,0.465,button_right_main,0.319387755,-0.254081633,1,0,0,,0,143,143,89,1,DRIEK,LB,old,z,./images/DRIEKLB.png,,,,,,,,,,,,,,,,,,,,,,,,,,,,,,,,,
,,,,,,,,,,,,,,,,,6111426ad1d92c8215ccd56e,21,2022-02-12_16h54.18.676,lexical_decision_task_DD_L2,2021.2.3,iPhone,30.3030303,,,,,,,,,,1.496,1,,,,,,,,,,,,,,,0,-0.382653061,-0.275510204,1,0,0,1.496,button_left_main,-0.382653061,-0.275510204,1,0,0,,0,144,144,112,1,MYING,HB,old,z,./images/MYINGHB.png,,,,,,,,,,,,,,,,,,,,,,,,,,,,,,,,,
,,,,,,,,,,,,,,,,,6111426ad1d92c8215ccd56e,21,2022-02-12_16h54.18.676,lexical_decision_task_DD_L2,2021.2.3,iPhone,30.3030303,,,,,,,,,,0.544,1,,,,,,,,,,,,,,,0,0.323469388,-0.254081633,1,0,0,0.544,button_right_main,0.323469388,-0.254081633,1,0,0,,0,145,145,36,1,THROAT,HB,old,m,./images/THROATHB.png,,,,,,,,,,,,,,,,,,,,,,,,,,,,,,,,,
,,,,,,,,,,,,,,,,,6111426ad1d92c8215ccd56e,21,2022-02-12_16h54.18.676,lexical_decision_task_DD_L2,2021.2.3,iPhone,30.3030303,,,,,,,,,,0.498,1,,,,,,,,,,,,,,,0,0.298979592,-0.289795918,1,0,0,0.498,button_right_main,0.298979592,-0.289795918,1,0,0,,0,146,146,60,1,TWINS,HB,old,m,./images/TWINSHB.png,,,,,,,,,,,,,,,,,,,,,,,,,,,,,,,,,
,,,,,,,,,,,,,,,,,6111426ad1d92c8215ccd56e,21,2022-02-12_16h54.18.676,lexical_decision_task_DD_L2,2021.2.3,iPhone,30.3030303,,,,,,,,,,1.399,1,,,,,,,,,,,,,,,0,-0.4,-0.253061224,1,0,0,1.399,button_left_main,-0.4,-0.253061224,1,0,0,,0,147,147,133,1,POWDY,HB,old,z,./images/POWDYHB.png,,,,,,,,,,,,,,,,,,,,,,,,,,,,,,,,,
,,,,,,,,,,,,,,,,,6111426ad1d92c8215ccd56e,21,2022-02-12_16h54.18.676,lexical_decision_task_DD_L2,2021.2.3,iPhone,30.3030303,,,,,,,,,,0.502,1,,,,,,,,,,,,,,,0,0.307142857,-0.260204082,1,0,0,0.502,button_right_main,0.307142857,-0.260204082,1,0,0,,0,148,148,34,1,CANYON,LB,old,m,./images/CANYONLB.png,,,,,,,,,,,,,,,,,,,,,,,,,,,,,,,,,
,,,,,,,,,,,,,,,,,6111426ad1d92c8215ccd56e,21,2022-02-12_16h54.18.676,lexical_decision_task_DD_L2,2021.2.3,iPhone,30.3030303,,,,,,,,,,0.537,1,,,,,,,,,,,,,,,0,0.304081633,-0.255102041,1,0,0,0.537,button_right_main,0.304081633,-0.255102041,1,0,0,,0,149,149,8,1,TULIP,C,old,m,./images/TULIP.png,,,,,,,,,,,,,,,,,,,,,,,,,,,,,,,,,
,,,,,,,,,,,,,,,,,6111426ad1d92c8215ccd56e,21,2022-02-12_16h54.18.676,lexical_decision_task_DD_L2,2021.2.3,iPhone,30.3030303,,,,,,,,,,0.599,1,,,,,,,,,,,,,,,0,0.304081633,-0.255102041,1,0,0,0.599,button_right_main,0.304081633,-0.255102041,1,0,0,,0,150,150,51,1,ONION,HB,old,m,./images/ONIONHB.png,,,,,,,,,,,,,,,,,,,,,,,,,,,,,,,,,
,,,,,,,,,,,,,,,,,6111426ad1d92c8215ccd56e,21,2022-02-12_16h54.18.676,lexical_decision_task_DD_L2,2021.2.3,iPhone,30.3030303,,,,,,,,,,0.531,1,,,,,,,,,,,,,,,0,0.308163265,-0.265306122,1,0,0,0.531,button_right_main,0.308163265,-0.265306122,1,0,0,,0,151,151,27,1,ATTIC,HB,old,m,./images/ATTICHB.png,,,,,,,,,,,,,,,,,,,,,,,,,,,,,,,,,
,,,,,,,,,,,,,,,,,6111426ad1d92c8215ccd56e,21,2022-02-12_16h54.18.676,lexical_decision_task_DD_L2,2021.2.3,iPhone,30.3030303,,,,,,,,,,0.501,1,,,,,,,,,,,,,,,0,0.3,-0.264285714,1,0,0,0.501,button_right_main,0.3,-0.264285714,1,0,0,,0,152,152,56,1,PACKET,C,old,m,./images/PACKET.png,,,,,,,,,,,,,,,,,,,,,,,,,,,,,,,,,
,,,,,,,,,,,,,,,,,6111426ad1d92c8215ccd56e,21,2022-02-12_16h54.18.676,lexical_decision_task_DD_L2,2021.2.3,iPhone,30.3030303,,,,,,,,,,0.435,1,,,,,,,,,,,,,,,0,0.301020408,-0.271428571,1,0,0,0.435,button_right_main,0.301020408,-0.271428571,1,0,0,,0,153,153,44,1,LIZARD,C,old,m,./images/LIZARD.png,,,,,,,,,,,,,,,,,,,,,,,,,,,,,,,,,
,,,,,,,,,,,,,,,,,6111426ad1d92c8215ccd56e,21,2022-02-12_16h54.18.676,lexical_decision_task_DD_L2,2021.2.3,iPhone,30.3030303,,,,,,,,,,0.507,1,,,,,,,,,,,,,,,0,0.298979592,-0.260204082,1,0,0,0.507,button_right_main,0.298979592,-0.260204082,1,0,0,,0,154,154,6,1,SQUARE,HB,old,m,./images/SQUAREHB.png,,,,,,,,,,,,,,,,,,,,,,,,,,,,,,,,,
,,,,,,,,,,,,,,,,,6111426ad1d92c8215ccd56e,21,2022-02-12_16h54.18.676,lexical_decision_task_DD_L2,2021.2.3,iPhone,30.3030303,,,,,,,,,,0.409,0,,,,,,,,,,,,,,,0,0.298979592,-0.268367347,1,0,0,0.409,button_right_main,0.298979592,-0.268367347,1,0,0,,0,155,155,117,1,STEEG,C,old,z,./images/STEEG.png,,,,,,,,,,,,,,,,,,,,,,,,,,,,,,,,,
,,,,,,,,,,,,,,,,,6111426ad1d92c8215ccd56e,21,2022-02-12_16h54.18.676,lexical_decision_task_DD_L2,2021.2.3,iPhone,30.3030303,,,,,,,,,,0.597,1,,,,,,,,,,,,,,,0,0.326530612,-0.267346939,1,0,0,0.597,button_right_main,0.326530612,-0.267346939,1,0,0,,0,156,156,57,1,MOOSE,HB,old,m,./images/MOOSEHB.png,,,,,,,,,,,,,,,,,,,,,,,,,,,,,,,,,
,,,,,,,,,,,,,,,,,6111426ad1d92c8215ccd56e,21,2022-02-12_16h54.18.676,lexical_decision_task_DD_L2,2021.2.3,iPhone,30.3030303,,,,,,,,,,0.665,1,,,,,,,,,,,,,,,0,-0.380612245,-0.258163265,1,0,0,0.665,button_left_main,-0.380612245,-0.258163265,1,0,0,,0,157,157,86,1,AIFED,LB,old,z,./images/AIFEDLB.png,,,,,,,,,,,,,,,,,,,,,,,,,,,,,,,,,
,,,,,,,,,,,,,,,,,6111426ad1d92c8215ccd56e,21,2022-02-12_16h54.18.676,lexical_decision_task_DD_L2,2021.2.3,iPhone,30.3030303,,,,,,,,,,0.545,1,,,,,,,,,,,,,,,0,0.320408163,-0.240816327,1,0,0,0.545,button_right_main,0.320408163,-0.240816327,1,0,0,,0,158,158,10,1,BELLY,LB,old,m,./images/BELLYLB.png,,,,,,,,,,,,,,,,,,,,,,,,,,,,,,,,,
,,,,,,,,,,,,,,,,,6111426ad1d92c8215ccd56e,21,2022-02-12_16h54.18.676,lexical_decision_task_DD_L2,2021.2.3,iPhone,30.3030303,,,,,,,,,,0.644,1,,,,,,,,,,,,,,,0,-0.365306122,-0.273469388,1,0,0,0.644,button_left_main,-0.365306122,-0.273469388,1,0,0,,0,159,159,129,1,PRANS,C,old,z,./images/PRANS.png,,,,,,,,,,,,,,,,,,,,,,,,,,,,,,,,,
,,,,,,,,,,,,,,,,,6111426ad1d92c8215ccd56e,21,2022-02-12_16h54.18.676,lexical_decision_task_DD_L2,2021.2.3,iPhone,30.3030303,,,,,,,,,,0.732,1,,,,,,,,,,,,,,,0,-0.370408163,-0.259183673,1,0,0,0.732,button_left_main,-0.370408163,-0.259183673,1,0,0,,0,160,160,146,1,MOOST,LB,old,z,./images/MOOSTLB.png,,,,,,,,,,,,,,,,,,,,,,,,,,,,,,,,,
,,,,,,,,,,,,,,,,,6111426ad1d92c8215ccd56e,21,2022-02-12_16h54.18.676,lexical_decision_task_DD_L2,2021.2.3,iPhone,30.3030303,,,,,,,,,,0.639,1,,,,,,,,,,,,,,,0,-0.363265306,-0.268367347,1,0,0,0.639,button_left_main,-0.363265306,-0.268367347,1,0,0,,0,161,161,102,1,DULLE,C,old,z,./images/DULLE.png,,,,,,,,,,,,,,,,,,,,,,,,,,,,,,,,,
,,,,,,,,,,,,,,,,,6111426ad1d92c8215ccd56e,21,2022-02-12_16h54.18.676,lexical_decision_task_DD_L2,2021.2.3,iPhone,30.3030303,,,,,,,,,,0.51,1,,,,,,,,,,,,,,,0,0.319387755,-0.244897959,1,0,0,0.51,button_right_main,0.319387755,-0.244897959,1,0,0,,0,162,162,14,1,PICKLE,C,old,m,./images/PICKLE.png,,,,,,,,,,,,,,,,,,,,,,,,,,,,,,,,,
,,,,,,,,,,,,,,,,,6111426ad1d92c8215ccd56e,21,2022-02-12_16h54.18.676,lexical_decision_task_DD_L2,2021.2.3,iPhone,30.3030303,,,,,,,,,,0.664,1,,,,,,,,,,,,,,,0,-0.367346939,-0.262244898,1,0,0,0.664,button_left_main,-0.367346939,-0.262244898,1,0,0,,0,163,163,105,1,MOKER,C,old,z,./images/MOKER.png,,,,,,,,,,,,,,,,,,,,,,,,,,,,,,,,,
,,,,,,,,,,,,,,,,,6111426ad1d92c8215ccd56e,21,2022-02-12_16h54.18.676,lexical_decision_task_DD_L2,2021.2.3,iPhone,30.3030303,,,,,,,,,,0.608,1,,,,,,,,,,,,,,,0,0.319387755,-0.265306122,1,0,0,0.608,button_right_main,0.319387755,-0.265306122,1,0,0,,0,164,164,16,1,PENCE,LB,old,m,./images/PENCELB.png,,,,,,,,,,,,,,,,,,,,,,,,,,,,,,,,,
,,,,,,,,,,,,,,,,,6111426ad1d92c8215ccd56e,21,2022-02-12_16h54.18.676,lexical_decision_task_DD_L2,2021.2.3,iPhone,30.3030303,,,,,,,,,,0.642,1,,,,,,,,,,,,,,,0,-0.369387755,-0.262244898,1,0,0,0.642,button_left_main,-0.369387755,-0.262244898,1,0,0,,0,165,165,119,1,PAFER,LB,old,z,./images/PAFERLB.png,,,,,,,,,,,,,,,,,,,,,,,,,,,,,,,,,
,,,,,,,,,,,,,,,,,6111426ad1d92c8215ccd56e,21,2022-02-12_16h54.18.676,lexical_decision_task_DD_L2,2021.2.3,iPhone,30.3030303,,,,,,,,,,1.331,1,,,,,,,,,,,,,,,0,-0.360204082,-0.233673469,1,0,0,1.331,button_left_main,-0.360204082,-0.233673469,1,0,0,,0,166,166,109,1,BURGE,HB,old,z,./images/BURGEHB.png,,,,,,,,,,,,,,,,,,,,,,,,,,,,,,,,,
,,,,,,,,,,,,,,,,,6111426ad1d92c8215ccd56e,21,2022-02-12_16h54.18.676,lexical_decision_task_DD_L2,2021.2.3,iPhone,30.3030303,,,,,,,,,,0.73,1,,,,,,,,,,,,,,,0,0.353061224,-0.290816327,1,0,0,0.73,button_right_main,0.353061224,-0.290816327,1,0,0,,0,167,167,46,1,PEARL,LB,old,m,./images/PEARLLB.png,,,,,,,,,,,,,,,,,,,,,,,,,,,,,,,,,
,,,,,,,,,,,,,,,,,6111426ad1d92c8215ccd56e,21,2022-02-12_16h54.18.676,lexical_decision_task_DD_L2,2021.2.3,iPhone,30.3030303,,,,,,,,,,,,,,,,,,,,,,,,,,,,,,,,,,,,,,,,,,,,,,How likely will it be that you will recognize the words presented slighly blurred on a scale of 0 (not likely) to 100 (most likely)?,,,,,0.004081633,-0.417346939,1,0,0,jol_adv,3,6.908,0,0,0,1,1,,,,,,,,,,,,,,,,,,,
,,,,,,,,,,,,,,,,,6111426ad1d92c8215ccd56e,21,2022-02-12_16h54.18.676,lexical_decision_task_DD_L2,2021.2.3,iPhone,30.3030303,,,,,,,,,,,,,,,,,,,,,,,,,,,,,,,,,,,,,,,,,,,,,,How likely will it be that you will recognize the words presented clearly on a scale of 0 (not likely) to 100 (most likely)?,,,,,,,,,,,5,5.848,0,1,1,0,1,,,,,,,,,,,,,,,,,,,
,,,,,,,,,,,,,,,,,6111426ad1d92c8215ccd56e,21,2022-02-12_16h54.18.676,lexical_decision_task_DD_L2,2021.2.3,iPhone,30.3030303,,,,,,,,,,,,,,,,,,,,,,,,,,,,,,,,,,,,,,,,,,,,,,How likely will it be that you will recognize the words presented very blurred on a scale of 0 (not likely) to 100 (most likely)?,,,,,,,,,,,2,1.826,0,2,2,2,1,,,,,,,,,,,,,,,,,,,
,0.073469388,-0.417346939,1,0,0,instr_done_button,,,,,,1,test,"In the next phase you will be presented with the words from the the first phase. Your job is to decide whether you remember seeing the word or not. If you remember seeing the word press ""old"" or type ""m"". If you do not remember seeing the word press ""new"" or type ""z"". Please press the space bar or click on continue to begin. ",,,6111426ad1d92c8215ccd56e,21,2022-02-12_16h54.18.676,lexical_decision_task_DD_L2,2021.2.3,iPhone,30.3030303,,,,,,,,,,,,,,,,,,,,,,,,,,,,,,,,,,,,,,,,,,,,,,,,,,,,,,,,,,,,,,,,0,0,0,0,1,,,,,,,,,,,,,,
,0.046938776,-0.406122449,1,0,0,instr_done_button,,,,,,1,test,"In the next phase you will be presented with the words from the the first phase. Your job is to decide whether you remember seeing the word or not. If you remember seeing the word press ""old"" or type ""m"". If you do not remember seeing the word press ""new"" or type ""z"". Please press the space bar or click on continue to begin. ",,,6111426ad1d92c8215ccd56e,21,2022-02-12_16h54.18.676,lexical_decision_task_DD_L2,2021.2.3,iPhone,30.3030303,,,,,,,,,,,,,,,,,,,,,,,,,,,,,,,,,,,,,,,,,,,,,,,,,,,,,,,,,,,,,,,,1,0,1,0,1,,,,,,,,,,,,,,
,0.047959184,-0.418367347,1,0,0,instr_done_button,,,,,,1,test,"In the next phase you will be presented with the words from the the first phase. Your job is to decide whether you remember seeing the word or not. If you remember seeing the word press ""old"" or type ""m"". If you do not remember seeing the word press ""new"" or type ""z"". Please press the space bar or click on continue to begin. ",,,6111426ad1d92c8215ccd56e,21,2022-02-12_16h54.18.676,lexical_decision_task_DD_L2,2021.2.3,iPhone,30.3030303,,,,,,,,,,,,,,,,,,,,,,,,,,,,,,,,,,,,,,,,,,,,,,,,,,,,,,,,,,,,,,,,2,0,2,0,1,,,,,,,,,,,,,,
,0.063265306,-0.392857143,1,0,0,instr_done_button,,,,,,1,test,"In the next phase you will be presented with the words from the the first phase. Your job is to decide whether you remember seeing the word or not. If you remember seeing the word press ""old"" or type ""m"". If you do not remember seeing the word press ""new"" or type ""z"". Please press the space bar or click on continue to begin. ",,,6111426ad1d92c8215ccd56e,21,2022-02-12_16h54.18.676,lexical_decision_task_DD_L2,2021.2.3,iPhone,30.3030303,,,,,,,,,,,,,,,,,,,,,,,,,,,,,,,,,,,,,,,,,,,,,,,,,,,,,,,,,,,,,,,,3,0,3,0,1,,,,,,,,,,,,,,
,0.042857143,-0.431632653,1,0,0,instr_done_button,,,,,,1,test,"In the next phase you will be presented with the words from the the first phase. Your job is to decide whether you remember seeing the word or not. If you remember seeing the word press ""old"" or type ""m"". If you do not remember seeing the word press ""new"" or type ""z"". Please press the space bar or click on continue to begin. ",,,6111426ad1d92c8215ccd56e,21,2022-02-12_16h54.18.676,lexical_decision_task_DD_L2,2021.2.3,iPhone,30.3030303,,,,,,,,,,,,,,,,,,,,,,,,,,,,,,,,,,,,,,,,,,,,,,,,,,,,,,,,,,,,,,,,4,0,4,0,1,,,,,,,,,,,,,,
,,,,,,,,,,,,,,,,,6111426ad1d92c8215ccd56e,21,2022-02-12_16h54.18.676,lexical_decision_task_DD_L2,2021.2.3,iPhone,30.3030303,,,,,,,,,,3.365,1,,,,,,,,,,,,,,,,,,,,,,,0.390816327,-0.291836735,1,0,0,,,,,,,JUNGLE,C,m,y,./images/JUNGLE.png,,,,,,,,,,,,,,,,,,,,,0,0.390816327,-0.291836735,1,0,0,3.365,button_right_test,0,0,0,83,1
,,,,,,,,,,,,,,,,,6111426ad1d92c8215ccd56e,21,2022-02-12_16h54.18.676,lexical_decision_task_DD_L2,2021.2.3,iPhone,30.3030303,,,,,,,,,,0.633,0,,,,,,,,,,,,,,,,,,,,,,,0.386734694,-0.308163265,1,0,0,,,,,,,WHISKY,C,z,y,./images/WHISKY.png,,,,,,,,,,,,,,,,,,,,,0,0.386734694,-0.308163265,1,0,0,0.633,button_right_test,0,1,1,167,1
,,,,,,,,,,,,,,,,,6111426ad1d92c8215ccd56e,21,2022-02-12_16h54.18.676,lexical_decision_task_DD_L2,2021.2.3,iPhone,30.3030303,,,,,,,,,,0.608,1,,,,,,,,,,,,,,,,,,,,,,,0.355102041,-0.326530612,1,0,0,,,,,,,URINE,LB,m,y,./images/URINELB.png,,,,,,,,,,,,,,,,,,,,,0,0.355102041,-0.326530612,1,0,0,0.608,button_right_test,0,2,2,70,1
,,,,,,,,,,,,,,,,,6111426ad1d92c8215ccd56e,21,2022-02-12_16h54.18.676,lexical_decision_task_DD_L2,2021.2.3,iPhone,30.3030303,,,,,,,,,,1.502,1,,,,,,,,,,,,,,,,,,,,,,,0.344897959,-0.3,1,0,0,,,,,,,CRUMB,C,m,y,./images/CRUMB.png,,,,,,,,,,,,,,,,,,,,,0,0.344897959,-0.3,1,0,0,1.502,button_right_test,0,3,3,29,1
,,,,,,,,,,,,,,,,,6111426ad1d92c8215ccd56e,21,2022-02-12_16h54.18.676,lexical_decision_task_DD_L2,2021.2.3,iPhone,30.3030303,,,,,,,,,,0.762,1,,,,,,,,,,,,,,,,,,,,,,,-0.358163265,-0.325510204,1,0,0,,,,,,,CASINO,LB,z,y,./images/CASINOLB.png,,,,,,,,,,,,,,,,,,,,,0,-0.358163265,-0.325510204,1,0,0,0.762,button_left_test,0,4,4,112,1
,,,,,,,,,,,,,,,,,6111426ad1d92c8215ccd56e,21,2022-02-12_16h54.18.676,lexical_decision_task_DD_L2,2021.2.3,iPhone,30.3030303,,,,,,,,,,0.877,1,,,,,,,,,,,,,,,,,,,,,,,-0.343877551,-0.303061224,1,0,0,,,,,,,CLOWN,LB,z,y,./images/CLOWNLB.png,,,,,,,,,,,,,,,,,,,,,0,-0.343877551,-0.303061224,1,0,0,0.877,button_left_test,0,5,5,106,1
,,,,,,,,,,,,,,,,,6111426ad1d92c8215ccd56e,21,2022-02-12_16h54.18.676,lexical_decision_task_DD_L2,2021.2.3,iPhone,30.3030303,,,,,,,,,,0.873,0,,,,,,,,,,,,,,,,,,,,,,,-0.354081633,-0.324489796,1,0,0,,,,,,,THROAT,HB,m,y,./images/THROATHB.png,,,,,,,,,,,,,,,,,,,,,0,-0.354081633,-0.324489796,1,0,0,0.873,button_left_test,0,6,6,36,1
,,,,,,,,,,,,,,,,,6111426ad1d92c8215ccd56e,21,2022-02-12_16h54.18.676,lexical_decision_task_DD_L2,2021.2.3,iPhone,30.3030303,,,,,,,,,,1.031,1,,,,,,,,,,,,,,,,,,,,,,,0.357142857,-0.254081633,1,0,0,,,,,,,MUFFIN,LB,m,y,./images/MUFFINLB.png,,,,,,,,,,,,,,,,,,,,,0,0.357142857,-0.254081633,1,0,0,1.031,button_right_test,0,7,7,55,1
,,,,,,,,,,,,,,,,,6111426ad1d92c8215ccd56e,21,2022-02-12_16h54.18.676,lexical_decision_task_DD_L2,2021.2.3,iPhone,30.3030303,,,,,,,,,,0.73,1,,,,,,,,,,,,,,,,,,,,,,,-0.379591837,-0.330612245,1,0,0,,,,,,,JUMPER,C,z,y,./images/JUMPER.png,,,,,,,,,,,,,,,,,,,,,0,-0.379591837,-0.330612245,1,0,0,0.73,button_left_test,0,8,8,158,1
,,,,,,,,,,,,,,,,,6111426ad1d92c8215ccd56e,21,2022-02-12_16h54.18.676,lexical_decision_task_DD_L2,2021.2.3,iPhone,30.3030303,,,,,,,,,,0.767,0,,,,,,,,,,,,,,,,,,,,,,,-0.307142857,-0.334693878,1,0,0,,,,,,,PAINT,LB,m,y,./images/PAINTLB.png,,,,,,,,,,,,,,,,,,,,,0,-0.307142857,-0.334693878,1,0,0,0.767,button_left_test,0,9,9,7,1
,,,,,,,,,,,,,,,,,6111426ad1d92c8215ccd56e,21,2022-02-12_16h54.18.676,lexical_decision_task_DD_L2,2021.2.3,iPhone,30.3030303,,,,,,,,,,0.765,0,,,,,,,,,,,,,,,,,,,,,,,-0.330612245,-0.31122449,1,0,0,,,,,,,PLANK,LB,m,y,./images/PLANKLB.png,,,,,,,,,,,,,,,,,,,,,0,-0.330612245,-0.31122449,1,0,0,0.765,button_left_test,0,10,10,1,1
,,,,,,,,,,,,,,,,,6111426ad1d92c8215ccd56e,21,2022-02-12_16h54.18.676,lexical_decision_task_DD_L2,2021.2.3,iPhone,30.3030303,,,,,,,,,,0.596,0,,,,,,,,,,,,,,,,,,,,,,,-0.370408163,-0.301020408,1,0,0,,,,,,,DOUGH,LB,m,y,./images/DOUGHLB.png,,,,,,,,,,,,,,,,,,,,,0,-0.370408163,-0.301020408,1,0,0,0.596,button_left_test,0,11,11,19,1
,,,,,,,,,,,,,,,,,6111426ad1d92c8215ccd56e,21,2022-02-12_16h54.18.676,lexical_decision_task_DD_L2,2021.2.3,iPhone,30.3030303,,,,,,,,,,1.209,1,,,,,,,,,,,,,,,,,,,,,,,-0.360204082,-0.345918367,1,0,0,,,,,,,BRIDE,LB,z,y,./images/BRIDELB.png,,,,,,,,,,,,,,,,,,,,,0,-0.360204082,-0.345918367,1,0,0,1.209,button_left_test,0,12,12,148,1
,,,,,,,,,,,,,,,,,6111426ad1d92c8215ccd56e,21,2022-02-12_16h54.18.676,lexical_decision_task_DD_L2,2021.2.3,iPhone,30.3030303,,,,,,,,,,1.263,1,,,,,,,,,,,,,,,,,,,,,,,0.328571429,-0.266326531,1,0,0,,,,,,,TRIPOD,HB,m,y,./images/TRIPODHB.png,,,,,,,,,,,,,,,,,,,,,0,0.328571429,-0.266326531,1,0,0,1.263,button_right_test,0,13,13,54,1
,,,,,,,,,,,,,,,,,6111426ad1d92c8215ccd56e,21,2022-02-12_16h54.18.676,lexical_decision_task_DD_L2,2021.2.3,iPhone,30.3030303,,,,,,,,,,0.863,1,,,,,,,,,,,,,,,,,,,,,,,-0.393877551,-0.294897959,1,0,0,,,,,,,POSTER,C,z,y,./images/POSTER.png,,,,,,,,,,,,,,,,,,,,,0,-0.393877551,-0.294897959,1,0,0,0.863,button_left_test,0,14,14,137,1
,,,,,,,,,,,,,,,,,6111426ad1d92c8215ccd56e,21,2022-02-12_16h54.18.676,lexical_decision_task_DD_L2,2021.2.3,iPhone,30.3030303,,,,,,,,,,0.707,0,,,,,,,,,,,,,,,,,,,,,,,-0.340816327,-0.323469388,1,0,0,,,,,,,MELON,LB,m,y,./images/MELONLB.png,,,,,,,,,,,,,,,,,,,,,0,-0.340816327,-0.323469388,1,0,0,0.707,button_left_test,0,15,15,22,1
,,,,,,,,,,,,,,,,,6111426ad1d92c8215ccd56e,21,2022-02-12_16h54.18.676,lexical_decision_task_DD_L2,2021.2.3,iPhone,30.3030303,,,,,,,,,,0.7,1,,,,,,,,,,,,,,,,,,,,,,,0.27755102,-0.291836735,1,0,0,,,,,,,SHORE,HB,m,y,./images/SHOREHB.png,,,,,,,,,,,,,,,,,,,,,0,0.27755102,-0.291836735,1,0,0,0.7,button_right_test,0,16,16,12,1
,,,,,,,,,,,,,,,,,6111426ad1d92c8215ccd56e,21,2022-02-12_16h54.18.676,lexical_decision_task_DD_L2,2021.2.3,iPhone,30.3030303,,,,,,,,,,0.868,1,,,,,,,,,,,,,,,,,,,,,,,-0.323469388,-0.297959184,1,0,0,,,,,,,BAMBOO,C,z,y,./images/BAMBOO.png,,,,,,,,,,,,,,,,,,,,,0,-0.323469388,-0.297959184,1,0,0,0.868,button_left_test,0,17,17,89,1
,,,,,,,,,,,,,,,,,6111426ad1d92c8215ccd56e,21,2022-02-12_16h54.18.676,lexical_decision_task_DD_L2,2021.2.3,iPhone,30.3030303,,,,,,,,,,0.696,1,,,,,,,,,,,,,,,,,,,,,,,0.334693878,-0.290816327,1,0,0,,,,,,,FINGER,HB,m,y,./images/FINGERHB.png,,,,,,,,,,,,,,,,,,,,,0,0.334693878,-0.290816327,1,0,0,0.696,button_right_test,0,18,18,3,1
,,,,,,,,,,,,,,,,,6111426ad1d92c8215ccd56e,21,2022-02-12_16h54.18.676,lexical_decision_task_DD_L2,2021.2.3,iPhone,30.3030303,,,,,,,,,,0.798,0,,,,,,,,,,,,,,,,,,,,,,,0.27244898,-0.292857143,1,0,0,,,,,,,FLASK,HB,z,y,./images/FLASKHB.png,,,,,,,,,,,,,,,,,,,,,0,0.27244898,-0.292857143,1,0,0,0.798,button_right_test,0,19,19,156,1
,,,,,,,,,,,,,,,,,6111426ad1d92c8215ccd56e,21,2022-02-12_16h54.18.676,lexical_decision_task_DD_L2,2021.2.3,iPhone,30.3030303,,,,,,,,,,0.867,1,,,,,,,,,,,,,,,,,,,,,,,-0.337755102,-0.336734694,1,0,0,,,,,,,POKER,LB,z,y,./images/POKERLB.png,,,,,,,,,,,,,,,,,,,,,0,-0.337755102,-0.336734694,1,0,0,0.867,button_left_test,0,20,20,151,1
,,,,,,,,,,,,,,,,,6111426ad1d92c8215ccd56e,21,2022-02-12_16h54.18.676,lexical_decision_task_DD_L2,2021.2.3,iPhone,30.3030303,,,,,,,,,,0.697,1,,,,,,,,,,,,,,,,,,,,,,,0.293877551,-0.305102041,1,0,0,,,,,,,BEARD,C,m,y,./images/BEARD.png,,,,,,,,,,,,,,,,,,,,,0,0.293877551,-0.305102041,1,0,0,0.697,button_right_test,0,21,21,2,1
,,,,,,,,,,,,,,,,,6111426ad1d92c8215ccd56e,21,2022-02-12_16h54.18.676,lexical_decision_task_DD_L2,2021.2.3,iPhone,30.3030303,,,,,,,,,,0.772,1,,,,,,,,,,,,,,,,,,,,,,,0.286734694,-0.313265306,1,0,0,,,,,,,MAGGOT,HB,m,y,./images/MAGGOTHB.png,,,,,,,,,,,,,,,,,,,,,0,0.286734694,-0.313265306,1,0,0,0.772,button_right_test,0,22,22,33,1
,,,,,,,,,,,,,,,,,6111426ad1d92c8215ccd56e,21,2022-02-12_16h54.18.676,lexical_decision_task_DD_L2,2021.2.3,iPhone,30.3030303,,,,,,,,,,0.966,0,,,,,,,,,,,,,,,,,,,,,,,0.35,-0.281632653,1,0,0,,,,,,,MUMMY,LB,z,y,./images/MUMMYLB.png,,,,,,,,,,,,,,,,,,,,,0,0.35,-0.281632653,1,0,0,0.966,button_right_test,0,23,23,130,1
,,,,,,,,,,,,,,,,,6111426ad1d92c8215ccd56e,21,2022-02-12_16h54.18.676,lexical_decision_task_DD_L2,2021.2.3,iPhone,30.3030303,,,,,,,,,,0.674,1,,,,,,,,,,,,,,,,,,,,,,,0.326530612,-0.290816327,1,0,0,,,,,,,SWING,LB,m,y,./images/SWINGLB.png,,,,,,,,,,,,,,,,,,,,,0,0.326530612,-0.290816327,1,0,0,0.674,button_right_test,0,24,24,40,1
,,,,,,,,,,,,,,,,,6111426ad1d92c8215ccd56e,21,2022-02-12_16h54.18.676,lexical_decision_task_DD_L2,2021.2.3,iPhone,30.3030303,,,,,,,,,,0.631,1,,,,,,,,,,,,,,,,,,,,,,,-0.366326531,-0.268367347,1,0,0,,,,,,,HEATER,C,z,y,./images/HEATER.png,,,,,,,,,,,,,,,,,,,,,0,-0.366326531,-0.268367347,1,0,0,0.631,button_left_test,0,25,25,140,1
,,,,,,,,,,,,,,,,,6111426ad1d92c8215ccd56e,21,2022-02-12_16h54.18.676,lexical_decision_task_DD_L2,2021.2.3,iPhone,30.3030303,,,,,,,,,,0.711,1,,,,,,,,,,,,,,,,,,,,,,,0.346938776,-0.27244898,1,0,0,,,,,,,MOOSE,HB,m,y,./images/MOOSEHB.png,,,,,,,,,,,,,,,,,,,,,0,0.346938776,-0.27244898,1,0,0,0.711,button_right_test,0,26,26,57,1
,,,,,,,,,,,,,,,,,6111426ad1d92c8215ccd56e,21,2022-02-12_16h54.18.676,lexical_decision_task_DD_L2,2021.2.3,iPhone,30.3030303,,,,,,,,,,1.199,1,,,,,,,,,,,,,,,,,,,,,,,-0.320408163,-0.33877551,1,0,0,,,,,,,WHEEL,C,z,y,./images/WHEEL.png,,,,,,,,,,,,,,,,,,,,,0,-0.320408163,-0.33877551,1,0,0,1.199,button_left_test,0,27,27,161,1
,,,,,,,,,,,,,,,,,6111426ad1d92c8215ccd56e,21,2022-02-12_16h54.18.676,lexical_decision_task_DD_L2,2021.2.3,iPhone,30.3030303,,,,,,,,,,0.709,1,,,,,,,,,,,,,,,,,,,,,,,-0.345918367,-0.308163265,1,0,0,,,,,,,BUNNY,LB,z,y,./images/BUNNYLB.png,,,,,,,,,,,,,,,,,,,,,0,-0.345918367,-0.308163265,1,0,0,0.709,button_left_test,0,28,28,97,1
,,,,,,,,,,,,,,,,,6111426ad1d92c8215ccd56e,21,2022-02-12_16h54.18.676,lexical_decision_task_DD_L2,2021.2.3,iPhone,30.3030303,,,,,,,,,,2.401,1,,,,,,,,,,,,,,,,,,,,,,,-0.373469388,-0.301020408,1,0,0,,,,,,,RULER,LB,z,y,./images/RULERLB.png,,,,,,,,,,,,,,,,,,,,,0,-0.373469388,-0.301020408,1,0,0,2.401,button_left_test,0,29,29,163,1
,,,,,,,,,,,,,,,,,6111426ad1d92c8215ccd56e,21,2022-02-12_16h54.18.676,lexical_decision_task_DD_L2,2021.2.3,iPhone,30.3030303,,,,,,,,,,0.975,1,,,,,,,,,,,,,,,,,,,,,,,0.351020408,-0.316326531,1,0,0,,,,,,,INFANT,LB,m,y,./images/INFANTLB.png,,,,,,,,,,,,,,,,,,,,,0,0.351020408,-0.316326531,1,0,0,0.975,button_right_test,0,30,30,76,1
,,,,,,,,,,,,,,,,,6111426ad1d92c8215ccd56e,21,2022-02-12_16h54.18.676,lexical_decision_task_DD_L2,2021.2.3,iPhone,30.3030303,,,,,,,,,,0.71,1,,,,,,,,,,,,,,,,,,,,,,,-0.383673469,-0.310204082,1,0,0,,,,,,,PARCEL,HB,z,y,./images/PARCELHB.png,,,,,,,,,,,,,,,,,,,,,0,-0.383673469,-0.310204082,1,0,0,0.71,button_left_test,0,31,31,102,1
,,,,,,,,,,,,,,,,,6111426ad1d92c8215ccd56e,21,2022-02-12_16h54.18.676,lexical_decision_task_DD_L2,2021.2.3,iPhone,30.3030303,,,,,,,,,,0.578,0,,,,,,,,,,,,,,,,,,,,,,,-0.41122449,-0.301020408,1,0,0,,,,,,,SWEAT,HB,m,y,./images/SWEATHB.png,,,,,,,,,,,,,,,,,,,,,0,-0.41122449,-0.301020408,1,0,0,0.578,button_left_test,0,32,32,66,1
,,,,,,,,,,,,,,,,,6111426ad1d92c8215ccd56e,21,2022-02-12_16h54.18.676,lexical_decision_task_DD_L2,2021.2.3,iPhone,30.3030303,,,,,,,,,,0.598,1,,,,,,,,,,,,,,,,,,,,,,,-0.420408163,-0.265306122,1,0,0,,,,,,,ENGINE,C,z,y,./images/ENGINE.png,,,,,,,,,,,,,,,,,,,,,0,-0.420408163,-0.265306122,1,0,0,0.598,button_left_test,0,33,33,122,1
,,,,,,,,,,,,,,,,,6111426ad1d92c8215ccd56e,21,2022-02-12_16h54.18.676,lexical_decision_task_DD_L2,2021.2.3,iPhone,30.3030303,,,,,,,,,,0.796,0,,,,,,,,,,,,,,,,,,,,,,,0.357142857,-0.279591837,1,0,0,,,,,,,BANANA,LB,z,y,./images/BANANALB.png,,,,,,,,,,,,,,,,,,,,,0,0.357142857,-0.279591837,1,0,0,0.796,button_right_test,0,34,34,154,1
,,,,,,,,,,,,,,,,,6111426ad1d92c8215ccd56e,21,2022-02-12_16h54.18.676,lexical_decision_task_DD_L2,2021.2.3,iPhone,30.3030303,,,,,,,,,,0.543,1,,,,,,,,,,,,,,,,,,,,,,,-0.374489796,-0.336734694,1,0,0,,,,,,,COLLAR,HB,z,y,./images/COLLARHB.png,,,,,,,,,,,,,,,,,,,,,0,-0.374489796,-0.336734694,1,0,0,0.543,button_left_test,0,35,35,99,1
,,,,,,,,,,,,,,,,,6111426ad1d92c8215ccd56e,21,2022-02-12_16h54.18.676,lexical_decision_task_DD_L2,2021.2.3,iPhone,30.3030303,,,,,,,,,,0.701,1,,,,,,,,,,,,,,,,,,,,,,,0.33877551,-0.308163265,1,0,0,,,,,,,SUNSET,LB,m,y,./images/SUNSETLB.png,,,,,,,,,,,,,,,,,,,,,0,0.33877551,-0.308163265,1,0,0,0.701,button_right_test,0,36,36,82,1
,,,,,,,,,,,,,,,,,6111426ad1d92c8215ccd56e,21,2022-02-12_16h54.18.676,lexical_decision_task_DD_L2,2021.2.3,iPhone,30.3030303,,,,,,,,,,0.863,1,,,,,,,,,,,,,,,,,,,,,,,-0.355102041,-0.318367347,1,0,0,,,,,,,PISTOL,C,z,y,./images/PISTOL.png,,,,,,,,,,,,,,,,,,,,,0,-0.355102041,-0.318367347,1,0,0,0.863,button_left_test,0,37,37,113,1
,,,,,,,,,,,,,,,,,6111426ad1d92c8215ccd56e,21,2022-02-12_16h54.18.676,lexical_decision_task_DD_L2,2021.2.3,iPhone,30.3030303,,,,,,,,,,1.195,1,,,,,,,,,,,,,,,,,,,,,,,-0.343877551,-0.314285714,1,0,0,,,,,,,BLOKE,HB,z,y,./images/BLOKEHB.png,,,,,,,,,,,,,,,,,,,,,0,-0.343877551,-0.314285714,1,0,0,1.195,button_left_test,0,38,38,96,1
,,,,,,,,,,,,,,,,,6111426ad1d92c8215ccd56e,21,2022-02-12_16h54.18.676,lexical_decision_task_DD_L2,2021.2.3,iPhone,30.3030303,,,,,,,,,,0.864,1,,,,,,,,,,,,,,,,,,,,,,,0.347959184,-0.266326531,1,0,0,,,,,,,SMOKER,C,m,y,./images/SMOKER.png,,,,,,,,,,,,,,,,,,,,,0,0.347959184,-0.266326531,1,0,0,0.864,button_right_test,0,39,39,26,1
,,,,,,,,,,,,,,,,,6111426ad1d92c8215ccd56e,21,2022-02-12_16h54.18.676,lexical_decision_task_DD_L2,2021.2.3,iPhone,30.3030303,,,,,,,,,,0.663,1,,,,,,,,,,,,,,,,,,,,,,,0.291836735,-0.298979592,1,0,0,,,,,,,PEARL,LB,m,y,./images/PEARLLB.png,,,,,,,,,,,,,,,,,,,,,0,0.291836735,-0.298979592,1,0,0,0.663,button_right_test,0,40,40,46,1
,,,,,,,,,,,,,,,,,6111426ad1d92c8215ccd56e,21,2022-02-12_16h54.18.676,lexical_decision_task_DD_L2,2021.2.3,iPhone,30.3030303,,,,,,,,,,1.23,1,,,,,,,,,,,,,,,,,,,,,,,0.036734694,-0.402040816,1,0,0,,,,,,,FOLDER,HB,m,y,./images/FOLDERHB.png,break_done_button,,,,,,,,,,,,,,,,,,,,0,0.323469388,-0.304081633,1,0,0,1.23,button_right_test,0,41,41,42,1
,,,,,,,,,,,,,,,,,6111426ad1d92c8215ccd56e,21,2022-02-12_16h54.18.676,lexical_decision_task_DD_L2,2021.2.3,iPhone,30.3030303,,,,,,,,,,0.965,0,,,,,,,,,,,,,,,,,,,,,,,-0.340816327,-0.310204082,1,0,0,,,,,,,CRADLE,C,m,y,./images/CRADLE.png,,,,,,,,,,,,,,,,,,,,,0,-0.340816327,-0.310204082,1,0,0,0.965,button_left_test,0,42,42,20,1
,,,,,,,,,,,,,,,,,6111426ad1d92c8215ccd56e,21,2022-02-12_16h54.18.676,lexical_decision_task_DD_L2,2021.2.3,iPhone,30.3030303,,,,,,,,,,0.709,0,,,,,,,,,,,,,,,,,,,,,,,-0.406122449,-0.275510204,1,0,0,,,,,,,BURIAL,C,m,y,./images/BURIAL.png,,,,,,,,,,,,,,,,,,,,,0,-0.406122449,-0.275510204,1,0,0,0.709,button_left_test,0,43,43,59,1
,,,,,,,,,,,,,,,,,6111426ad1d92c8215ccd56e,21,2022-02-12_16h54.18.676,lexical_decision_task_DD_L2,2021.2.3,iPhone,30.3030303,,,,,,,,,,0.597,0,,,,,,,,,,,,,,,,,,,,,,,-0.344897959,-0.318367347,1,0,0,,,,,,,COOKER,HB,m,y,./images/COOKERHB.png,,,,,,,,,,,,,,,,,,,,,0,-0.344897959,-0.318367347,1,0,0,0.597,button_left_test,0,44,44,69,1
,,,,,,,,,,,,,,,,,6111426ad1d92c8215ccd56e,21,2022-02-12_16h54.18.676,lexical_decision_task_DD_L2,2021.2.3,iPhone,30.3030303,,,,,,,,,,0.708,0,,,,,,,,,,,,,,,,,,,,,,,-0.346938776,-0.32755102,1,0,0,,,,,,,JAGUAR,HB,m,y,./images/JAGUARHB.png,,,,,,,,,,,,,,,,,,,,,0,-0.346938776,-0.32755102,1,0,0,0.708,button_left_test,0,45,45,18,1
,,,,,,,,,,,,,,,,,6111426ad1d92c8215ccd56e,21,2022-02-12_16h54.18.676,lexical_decision_task_DD_L2,2021.2.3,iPhone,30.3030303,,,,,,,,,,0.696,1,,,,,,,,,,,,,,,,,,,,,,,-0.344897959,-0.318367347,1,0,0,,,,,,,BROOM,HB,z,y,./images/BROOMHB.png,,,,,,,,,,,,,,,,,,,,,0,-0.344897959,-0.318367347,1,0,0,0.696,button_left_test,0,46,46,162,1
,,,,,,,,,,,,,,,,,6111426ad1d92c8215ccd56e,21,2022-02-12_16h54.18.676,lexical_decision_task_DD_L2,2021.2.3,iPhone,30.3030303,,,,,,,,,,0.936,0,,,,,,,,,,,,,,,,,,,,,,,0.365306122,-0.271428571,1,0,0,,,,,,,FENCE,C,z,y,./images/FENCE.png,,,,,,,,,,,,,,,,,,,,,0,0.365306122,-0.271428571,1,0,0,0.936,button_right_test,0,47,47,98,1
,,,,,,,,,,,,,,,,,6111426ad1d92c8215ccd56e,21,2022-02-12_16h54.18.676,lexical_decision_task_DD_L2,2021.2.3,iPhone,30.3030303,,,,,,,,,,0.664,1,,,,,,,,,,,,,,,,,,,,,,,-0.4,-0.266326531,1,0,0,,,,,,,ARTIST,LB,z,y,./images/ARTISTLB.png,,,,,,,,,,,,,,,,,,,,,0,-0.4,-0.266326531,1,0,0,0.664,button_left_test,0,48,48,145,1
,,,,,,,,,,,,,,,,,6111426ad1d92c8215ccd56e,21,2022-02-12_16h54.18.676,lexical_decision_task_DD_L2,2021.2.3,iPhone,30.3030303,,,,,,,,,,0.896,1,,,,,,,,,,,,,,,,,,,,,,,-0.317346939,-0.325510204,1,0,0,,,,,,,LAGOON,C,z,y,./images/LAGOON.png,,,,,,,,,,,,,,,,,,,,,0,-0.317346939,-0.325510204,1,0,0,0.896,button_left_test,0,49,49,131,1
,,,,,,,,,,,,,,,,,6111426ad1d92c8215ccd56e,21,2022-02-12_16h54.18.676,lexical_decision_task_DD_L2,2021.2.3,iPhone,30.3030303,,,,,,,,,,0.68,0,,,,,,,,,,,,,,,,,,,,,,,-0.345918367,-0.325510204,1,0,0,,,,,,,MOSQUE,LB,m,y,./images/MOSQUELB.png,,,,,,,,,,,,,,,,,,,,,0,-0.345918367,-0.325510204,1,0,0,0.68,button_left_test,0,50,50,43,1
,,,,,,,,,,,,,,,,,6111426ad1d92c8215ccd56e,21,2022-02-12_16h54.18.676,lexical_decision_task_DD_L2,2021.2.3,iPhone,30.3030303,,,,,,,,,,0.729,1,,,,,,,,,,,,,,,,,,,,,,,0.32755102,-0.293877551,1,0,0,,,,,,,BARREL,C,m,y,./images/BARREL.png,,,,,,,,,,,,,,,,,,,,,0,0.32755102,-0.293877551,1,0,0,0.729,button_right_test,0,51,51,32,1
,,,,,,,,,,,,,,,,,6111426ad1d92c8215ccd56e,21,2022-02-12_16h54.18.676,lexical_decision_task_DD_L2,2021.2.3,iPhone,30.3030303,,,,,,,,,,0.964,1,,,,,,,,,,,,,,,,,,,,,,,-0.36122449,-0.280612245,1,0,0,,,,,,,BASKET,C,z,y,./images/BASKET.png,,,,,,,,,,,,,,,,,,,,,0,-0.36122449,-0.280612245,1,0,0,0.964,button_left_test,0,52,52,128,1
,,,,,,,,,,,,,,,,,6111426ad1d92c8215ccd56e,21,2022-02-12_16h54.18.676,lexical_decision_task_DD_L2,2021.2.3,iPhone,30.3030303,,,,,,,,,,1.068,0,,,,,,,,,,,,,,,,,,,,,,,0.334693878,-0.290816327,1,0,0,,,,,,,STOOL,LB,z,y,./images/STOOLLB.png,,,,,,,,,,,,,,,,,,,,,0,0.334693878,-0.290816327,1,0,0,1.068,button_right_test,0,53,53,127,1
,,,,,,,,,,,,,,,,,6111426ad1d92c8215ccd56e,21,2022-02-12_16h54.18.676,lexical_decision_task_DD_L2,2021.2.3,iPhone,30.3030303,,,,,,,,,,0.963,0,,,,,,,,,,,,,,,,,,,,,,,0.321428571,-0.31122449,1,0,0,,,,,,,MAMMAL,C,z,y,./images/MAMMAL.png,,,,,,,,,,,,,,,,,,,,,0,0.321428571,-0.31122449,1,0,0,0.963,button_right_test,0,54,54,146,1
,,,,,,,,,,,,,,,,,6111426ad1d92c8215ccd56e,21,2022-02-12_16h54.18.676,lexical_decision_task_DD_L2,2021.2.3,iPhone,30.3030303,,,,,,,,,,0.731,1,,,,,,,,,,,,,,,,,,,,,,,-0.395918367,-0.27244898,1,0,0,,,,,,,FERRY,HB,z,y,./images/FERRYHB.png,,,,,,,,,,,,,,,,,,,,,0,-0.395918367,-0.27244898,1,0,0,0.731,button_left_test,0,55,55,141,1
,,,,,,,,,,,,,,,,,6111426ad1d92c8215ccd56e,21,2022-02-12_16h54.18.676,lexical_decision_task_DD_L2,2021.2.3,iPhone,30.3030303,,,,,,,,,,0.73,1,,,,,,,,,,,,,,,,,,,,,,,-0.315306122,-0.321428571,1,0,0,,,,,,,CLIFF,C,z,y,./images/CLIFF.png,,,,,,,,,,,,,,,,,,,,,0,-0.315306122,-0.321428571,1,0,0,0.73,button_left_test,0,56,56,92,1
,,,,,,,,,,,,,,,,,6111426ad1d92c8215ccd56e,21,2022-02-12_16h54.18.676,lexical_decision_task_DD_L2,2021.2.3,iPhone,30.3030303,,,,,,,,,,0.698,1,,,,,,,,,,,,,,,,,,,,,,,0.364285714,-0.304081633,1,0,0,,,,,,,WEASEL,C,m,y,./images/WEASEL.png,,,,,,,,,,,,,,,,,,,,,0,0.364285714,-0.304081633,1,0,0,0.698,button_right_test,0,57,57,80,1
,,,,,,,,,,,,,,,,,6111426ad1d92c8215ccd56e,21,2022-02-12_16h54.18.676,lexical_decision_task_DD_L2,2021.2.3,iPhone,30.3030303,,,,,,,,,,0.91,0,,,,,,,,,,,,,,,,,,,,,,,0.304081633,-0.305102041,1,0,0,,,,,,,CANOE,LB,z,y,./images/CANOELB.png,,,,,,,,,,,,,,,,,,,,,0,0.304081633,-0.305102041,1,0,0,0.91,button_right_test,0,58,58,142,1
,,,,,,,,,,,,,,,,,6111426ad1d92c8215ccd56e,21,2022-02-12_16h54.18.676,lexical_decision_task_DD_L2,2021.2.3,iPhone,30.3030303,,,,,,,,,,1.231,1,,,,,,,,,,,,,,,,,,,,,,,-0.4,-0.32755102,1,0,0,,,,,,,GLOVE,LB,z,y,./images/GLOVELB.png,,,,,,,,,,,,,,,,,,,,,0,-0.4,-0.32755102,1,0,0,1.231,button_left_test,0,59,59,157,1
,,,,,,,,,,,,,,,,,6111426ad1d92c8215ccd56e,21,2022-02-12_16h54.18.676,lexical_decision_task_DD_L2,2021.2.3,iPhone,30.3030303,,,,,,,,,,0.731,1,,,,,,,,,,,,,,,,,,,,,,,0.336734694,-0.298979592,1,0,0,,,,,,,GREASE,HB,m,y,./images/GREASEHB.png,,,,,,,,,,,,,,,,,,,,,0,0.336734694,-0.298979592,1,0,0,0.731,button_right_test,0,60,60,15,1
,,,,,,,,,,,,,,,,,6111426ad1d92c8215ccd56e,21,2022-02-12_16h54.18.676,lexical_decision_task_DD_L2,2021.2.3,iPhone,30.3030303,,,,,,,,,,0.811,1,,,,,,,,,,,,,,,,,,,,,,,0.351020408,-0.304081633,1,0,0,,,,,,,BONNET,C,m,y,./images/BONNET.png,,,,,,,,,,,,,,,,,,,,,0,0.351020408,-0.304081633,1,0,0,0.811,button_right_test,0,61,61,11,1
,,,,,,,,,,,,,,,,,6111426ad1d92c8215ccd56e,21,2022-02-12_16h54.18.676,lexical_decision_task_DD_L2,2021.2.3,iPhone,30.3030303,,,,,,,,,,0.703,1,,,,,,,,,,,,,,,,,,,,,,,0.310204082,-0.298979592,1,0,0,,,,,,,SKIING,C,m,y,./images/SKIING.png,,,,,,,,,,,,,,,,,,,,,0,0.310204082,-0.298979592,1,0,0,0.703,button_right_test,0,62,62,17,1
,,,,,,,,,,,,,,,,,6111426ad1d92c8215ccd56e,21,2022-02-12_16h54.18.676,lexical_decision_task_DD_L2,2021.2.3,iPhone,30.3030303,,,,,,,,,,0.598,1,,,,,,,,,,,,,,,,,,,,,,,0.291836735,-0.287755102,1,0,0,,,,,,,STORM,HB,m,y,./images/STORMHB.png,,,,,,,,,,,,,,,,,,,,,0,0.291836735,-0.287755102,1,0,0,0.598,button_right_test,0,63,63,30,1
,,,,,,,,,,,,,,,,,6111426ad1d92c8215ccd56e,21,2022-02-12_16h54.18.676,lexical_decision_task_DD_L2,2021.2.3,iPhone,30.3030303,,,,,,,,,,0.997,1,,,,,,,,,,,,,,,,,,,,,,,0.324489796,-0.310204082,1,0,0,,,,,,,CRUST,LB,m,y,./images/CRUSTLB.png,,,,,,,,,,,,,,,,,,,,,0,0.324489796,-0.310204082,1,0,0,0.997,button_right_test,0,64,64,79,1
,,,,,,,,,,,,,,,,,6111426ad1d92c8215ccd56e,21,2022-02-12_16h54.18.676,lexical_decision_task_DD_L2,2021.2.3,iPhone,30.3030303,,,,,,,,,,0.798,1,,,,,,,,,,,,,,,,,,,,,,,-0.31122449,-0.316326531,1,0,0,,,,,,,SHIELD,HB,z,y,./images/SHIELDHB.png,,,,,,,,,,,,,,,,,,,,,0,-0.31122449,-0.316326531,1,0,0,0.798,button_left_test,0,65,65,132,1
,,,,,,,,,,,,,,,,,6111426ad1d92c8215ccd56e,21,2022-02-12_16h54.18.676,lexical_decision_task_DD_L2,2021.2.3,iPhone,30.3030303,,,,,,,,,,0.697,0,,,,,,,,,,,,,,,,,,,,,,,0.353061224,-0.27755102,1,0,0,,,,,,,CLOUD,C,z,y,./images/CLOUD.png,,,,,,,,,,,,,,,,,,,,,0,0.353061224,-0.27755102,1,0,0,0.697,button_right_test,0,66,66,110,1
,,,,,,,,,,,,,,,,,6111426ad1d92c8215ccd56e,21,2022-02-12_16h54.18.676,lexical_decision_task_DD_L2,2021.2.3,iPhone,30.3030303,,,,,,,,,,0.899,0,,,,,,,,,,,,,,,,,,,,,,,-0.334693878,-0.359183673,1,0,0,,,,,,,JELLY,LB,m,y,./images/JELLYLB.png,,,,,,,,,,,,,,,,,,,,,0,-0.334693878,-0.359183673,1,0,0,0.899,button_left_test,0,67,67,64,1
,,,,,,,,,,,,,,,,,6111426ad1d92c8215ccd56e,21,2022-02-12_16h54.18.676,lexical_decision_task_DD_L2,2021.2.3,iPhone,30.3030303,,,,,,,,,,0.563,0,,,,,,,,,,,,,,,,,,,,,,,-0.396938776,-0.292857143,1,0,0,,,,,,,KITTEN,HB,m,y,./images/KITTENHB.png,,,,,,,,,,,,,,,,,,,,,0,-0.396938776,-0.292857143,1,0,0,0.563,button_left_test,0,68,68,45,1
,,,,,,,,,,,,,,,,,6111426ad1d92c8215ccd56e,21,2022-02-12_16h54.18.676,lexical_decision_task_DD_L2,2021.2.3,iPhone,30.3030303,,,,,,,,,,0.743,1,,,,,,,,,,,,,,,,,,,,,,,0.285714286,-0.303061224,1,0,0,,,,,,,ATTIC,HB,m,y,./images/ATTICHB.png,,,,,,,,,,,,,,,,,,,,,0,0.285714286,-0.303061224,1,0,0,0.743,button_right_test,0,69,69,27,1
,,,,,,,,,,,,,,,,,6111426ad1d92c8215ccd56e,21,2022-02-12_16h54.18.676,lexical_decision_task_DD_L2,2021.2.3,iPhone,30.3030303,,,,,,,,,,0.732,0,,,,,,,,,,,,,,,,,,,,,,,0.28877551,-0.291836735,1,0,0,,,,,,,PARADE,C,z,y,./images/PARADE.png,,,,,,,,,,,,,,,,,,,,,0,0.28877551,-0.291836735,1,0,0,0.732,button_right_test,0,70,70,101,1
,,,,,,,,,,,,,,,,,6111426ad1d92c8215ccd56e,21,2022-02-12_16h54.18.676,lexical_decision_task_DD_L2,2021.2.3,iPhone,30.3030303,,,,,,,,,,1.078,1,,,,,,,,,,,,,,,,,,,,,,,-0.403061224,-0.290816327,1,0,0,,,,,,,BAKER,HB,z,y,./images/BAKERHB.png,,,,,,,,,,,,,,,,,,,,,0,-0.403061224,-0.290816327,1,0,0,1.078,button_left_test,0,71,71,147,1
,,,,,,,,,,,,,,,,,6111426ad1d92c8215ccd56e,21,2022-02-12_16h54.18.676,lexical_decision_task_DD_L2,2021.2.3,iPhone,30.3030303,,,,,,,,,,0.641,1,,,,,,,,,,,,,,,,,,,,,,,-0.392857143,-0.27755102,1,0,0,,,,,,,MONKEY,HB,z,y,./images/MONKEYHB.png,,,,,,,,,,,,,,,,,,,,,0,-0.392857143,-0.27755102,1,0,0,0.641,button_left_test,0,72,72,129,1
,,,,,,,,,,,,,,,,,6111426ad1d92c8215ccd56e,21,2022-02-12_16h54.18.676,lexical_decision_task_DD_L2,2021.2.3,iPhone,30.3030303,,,,,,,,,,0.829,1,,,,,,,,,,,,,,,,,,,,,,,-0.351020408,-0.325510204,1,0,0,,,,,,,HOCKEY,C,z,y,./images/HOCKEY.png,,,,,,,,,,,,,,,,,,,,,0,-0.351020408,-0.325510204,1,0,0,0.829,button_left_test,0,73,73,116,1
,,,,,,,,,,,,,,,,,6111426ad1d92c8215ccd56e,21,2022-02-12_16h54.18.676,lexical_decision_task_DD_L2,2021.2.3,iPhone,30.3030303,,,,,,,,,,0.729,1,,,,,,,,,,,,,,,,,,,,,,,-0.419387755,-0.291836735,1,0,0,,,,,,,LLAMA,C,z,y,./images/LLAMA.png,,,,,,,,,,,,,,,,,,,,,0,-0.419387755,-0.291836735,1,0,0,0.729,button_left_test,0,74,74,119,1
,,,,,,,,,,,,,,,,,6111426ad1d92c8215ccd56e,21,2022-02-12_16h54.18.676,lexical_decision_task_DD_L2,2021.2.3,iPhone,30.3030303,,,,,,,,,,0.978,1,,,,,,,,,,,,,,,,,,,,,,,0.310204082,-0.291836735,1,0,0,,,,,,,PURSE,C,m,y,./images/PURSE.png,,,,,,,,,,,,,,,,,,,,,0,0.310204082,-0.291836735,1,0,0,0.978,button_right_test,0,75,75,62,1
,,,,,,,,,,,,,,,,,6111426ad1d92c8215ccd56e,21,2022-02-12_16h54.18.676,lexical_decision_task_DD_L2,2021.2.3,iPhone,30.3030303,,,,,,,,,,0.74,1,,,,,,,,,,,,,,,,,,,,,,,-0.359183673,-0.317346939,1,0,0,,,,,,,SLOPE,HB,z,y,./images/SLOPEHB.png,,,,,,,,,,,,,,,,,,,,,0,-0.359183673,-0.317346939,1,0,0,0.74,button_left_test,0,76,76,114,1
,,,,,,,,,,,,,,,,,6111426ad1d92c8215ccd56e,21,2022-02-12_16h54.18.676,lexical_decision_task_DD_L2,2021.2.3,iPhone,30.3030303,,,,,,,,,,1.097,1,,,,,,,,,,,,,,,,,,,,,,,-0.371428571,-0.273469388,1,0,0,,,,,,,STATUE,HB,z,y,./images/STATUEHB.png,,,,,,,,,,,,,,,,,,,,,0,-0.371428571,-0.273469388,1,0,0,1.097,button_left_test,0,77,77,150,1
,,,,,,,,,,,,,,,,,6111426ad1d92c8215ccd56e,21,2022-02-12_16h54.18.676,lexical_decision_task_DD_L2,2021.2.3,iPhone,30.3030303,,,,,,,,,,0.643,0,,,,,,,,,,,,,,,,,,,,,,,-0.380612245,-0.284693878,1,0,0,,,,,,,PICKLE,C,m,y,./images/PICKLE.png,,,,,,,,,,,,,,,,,,,,,0,-0.380612245,-0.284693878,1,0,0,0.643,button_left_test,0,78,78,14,1
,,,,,,,,,,,,,,,,,6111426ad1d92c8215ccd56e,21,2022-02-12_16h54.18.676,lexical_decision_task_DD_L2,2021.2.3,iPhone,30.3030303,,,,,,,,,,0.707,1,,,,,,,,,,,,,,,,,,,,,,,0.346938776,-0.298979592,1,0,0,,,,,,,KIDNEY,HB,m,y,./images/KIDNEYHB.png,,,,,,,,,,,,,,,,,,,,,0,0.346938776,-0.298979592,1,0,0,0.707,button_right_test,0,79,79,21,1
,,,,,,,,,,,,,,,,,6111426ad1d92c8215ccd56e,21,2022-02-12_16h54.18.676,lexical_decision_task_DD_L2,2021.2.3,iPhone,30.3030303,,,,,,,,,,0.763,1,,,,,,,,,,,,,,,,,,,,,,,-0.386734694,-0.304081633,1,0,0,,,,,,,MEDAL,C,z,y,./images/MEDAL.png,,,,,,,,,,,,,,,,,,,,,0,-0.386734694,-0.304081633,1,0,0,0.763,button_left_test,0,80,80,95,1
,,,,,,,,,,,,,,,,,6111426ad1d92c8215ccd56e,21,2022-02-12_16h54.18.676,lexical_decision_task_DD_L2,2021.2.3,iPhone,30.3030303,,,,,,,,,,0.698,1,,,,,,,,,,,,,,,,,,,,,,,-0.371428571,-0.298979592,1,0,0,,,,,,,DESERT,LB,z,y,./images/DESERTLB.png,,,,,,,,,,,,,,,,,,,,,0,-0.371428571,-0.298979592,1,0,0,0.698,button_left_test,0,81,81,136,1
,,,,,,,,,,,,,,,,,6111426ad1d92c8215ccd56e,21,2022-02-12_16h54.18.676,lexical_decision_task_DD_L2,2021.2.3,iPhone,30.3030303,,,,,,,,,,0.666,1,,,,,,,,,,,,,,,,,,,,,,,0.341836735,-0.304081633,1,0,0,,,,,,,NOOSE,HB,m,y,./images/NOOSEHB.png,,,,,,,,,,,,,,,,,,,,,0,0.341836735,-0.304081633,1,0,0,0.666,button_right_test,0,82,82,72,1
,,,,,,,,,,,,,,,,,6111426ad1d92c8215ccd56e,21,2022-02-12_16h54.18.676,lexical_decision_task_DD_L2,2021.2.3,iPhone,30.3030303,,,,,,,,,,0.736,1,,,,,,,,,,,,,,,,,,,,,,,0.095918367,-0.404081633,1,0,0,,,,,,,POODLE,HB,m,y,./images/POODLEHB.png,break_done_button,,,,,,,,,,,,,,,,,,,,0,0.314285714,-0.307142857,1,0,0,0.736,button_right_test,0,83,83,81,1
,,,,,,,,,,,,,,,,,6111426ad1d92c8215ccd56e,21,2022-02-12_16h54.18.676,lexical_decision_task_DD_L2,2021.2.3,iPhone,30.3030303,,,,,,,,,,0.699,1,,,,,,,,,,,,,,,,,,,,,,,-0.398979592,-0.323469388,1,0,0,,,,,,,CANDY,HB,z,y,./images/CANDYHB.png,,,,,,,,,,,,,,,,,,,,,0,-0.398979592,-0.323469388,1,0,0,0.699,button_left_test,0,84,84,123,1
,,,,,,,,,,,,,,,,,6111426ad1d92c8215ccd56e,21,2022-02-12_16h54.18.676,lexical_decision_task_DD_L2,2021.2.3,iPhone,30.3030303,,,,,,,,,,0.696,1,,,,,,,,,,,,,,,,,,,,,,,0.312244898,-0.320408163,1,0,0,,,,,,,LITTER,HB,m,y,./images/LITTERHB.png,,,,,,,,,,,,,,,,,,,,,0,0.312244898,-0.320408163,1,0,0,0.696,button_right_test,0,85,85,78,1
,,,,,,,,,,,,,,,,,6111426ad1d92c8215ccd56e,21,2022-02-12_16h54.18.676,lexical_decision_task_DD_L2,2021.2.3,iPhone,30.3030303,,,,,,,,,,1.109,0,,,,,,,,,,,,,,,,,,,,,,,-0.384693878,-0.26122449,1,0,0,,,,,,,SQUARE,HB,m,y,./images/SQUAREHB.png,,,,,,,,,,,,,,,,,,,,,0,-0.384693878,-0.26122449,1,0,0,1.109,button_left_test,0,86,86,6,1
,,,,,,,,,,,,,,,,,6111426ad1d92c8215ccd56e,21,2022-02-12_16h54.18.676,lexical_decision_task_DD_L2,2021.2.3,iPhone,30.3030303,,,,,,,,,,0.794,0,,,,,,,,,,,,,,,,,,,,,,,-0.333673469,-0.332653061,1,0,0,,,,,,,MIRROR,HB,m,y,./images/MIRRORHB.png,,,,,,,,,,,,,,,,,,,,,0,-0.333673469,-0.332653061,1,0,0,0.794,button_left_test,0,87,87,63,1
,,,,,,,,,,,,,,,,,6111426ad1d92c8215ccd56e,21,2022-02-12_16h54.18.676,lexical_decision_task_DD_L2,2021.2.3,iPhone,30.3030303,,,,,,,,,,0.664,1,,,,,,,,,,,,,,,,,,,,,,,-0.386734694,-0.281632653,1,0,0,,,,,,,BRUSH,C,z,y,./images/BRUSH.png,,,,,,,,,,,,,,,,,,,,,0,-0.386734694,-0.281632653,1,0,0,0.664,button_left_test,0,88,88,143,1
,,,,,,,,,,,,,,,,,6111426ad1d92c8215ccd56e,21,2022-02-12_16h54.18.676,lexical_decision_task_DD_L2,2021.2.3,iPhone,30.3030303,,,,,,,,,,0.729,1,,,,,,,,,,,,,,,,,,,,,,,0.293877551,-0.31122449,1,0,0,,,,,,,LADDER,C,m,y,./images/LADDER.png,,,,,,,,,,,,,,,,,,,,,0,0.293877551,-0.31122449,1,0,0,0.729,button_right_test,0,89,89,38,1
,,,,,,,,,,,,,,,,,6111426ad1d92c8215ccd56e,21,2022-02-12_16h54.18.676,lexical_decision_task_DD_L2,2021.2.3,iPhone,30.3030303,,,,,,,,,,0.637,1,,,,,,,,,,,,,,,,,,,,,,,0.298979592,-0.313265306,1,0,0,,,,,,,WALRUS,C,m,y,./images/WALRUS.png,,,,,,,,,,,,,,,,,,,,,0,0.298979592,-0.313265306,1,0,0,0.637,button_right_test,0,90,90,23,1
,,,,,,,,,,,,,,,,,6111426ad1d92c8215ccd56e,21,2022-02-12_16h54.18.676,lexical_decision_task_DD_L2,2021.2.3,iPhone,30.3030303,,,,,,,,,,0.763,1,,,,,,,,,,,,,,,,,,,,,,,0.314285714,-0.319387755,1,0,0,,,,,,,CEMENT,C,m,y,./images/CEMENT.png,,,,,,,,,,,,,,,,,,,,,0,0.314285714,-0.319387755,1,0,0,0.763,button_right_test,0,91,91,74,1
,,,,,,,,,,,,,,,,,6111426ad1d92c8215ccd56e,21,2022-02-12_16h54.18.676,lexical_decision_task_DD_L2,2021.2.3,iPhone,30.3030303,,,,,,,,,,0.77,1,,,,,,,,,,,,,,,,,,,,,,,-0.425510204,-0.264285714,1,0,0,,,,,,,SAUNA,HB,z,y,./images/SAUNAHB.png,,,,,,,,,,,,,,,,,,,,,0,-0.425510204,-0.264285714,1,0,0,0.77,button_left_test,0,92,92,117,1
,,,,,,,,,,,,,,,,,6111426ad1d92c8215ccd56e,21,2022-02-12_16h54.18.676,lexical_decision_task_DD_L2,2021.2.3,iPhone,30.3030303,,,,,,,,,,0.663,1,,,,,,,,,,,,,,,,,,,,,,,-0.403061224,-0.284693878,1,0,0,,,,,,,BUBBLE,C,z,y,./images/BUBBLE.png,,,,,,,,,,,,,,,,,,,,,0,-0.403061224,-0.284693878,1,0,0,0.663,button_left_test,0,93,93,155,1
,,,,,,,,,,,,,,,,,6111426ad1d92c8215ccd56e,21,2022-02-12_16h54.18.676,lexical_decision_task_DD_L2,2021.2.3,iPhone,30.3030303,,,,,,,,,,0.735,1,,,,,,,,,,,,,,,,,,,,,,,-0.390816327,-0.305102041,1,0,0,,,,,,,PILOT,C,z,y,./images/PILOT.png,,,,,,,,,,,,,,,,,,,,,0,-0.390816327,-0.305102041,1,0,0,0.735,button_left_test,0,94,94,134,1
,,,,,,,,,,,,,,,,,6111426ad1d92c8215ccd56e,21,2022-02-12_16h54.18.676,lexical_decision_task_DD_L2,2021.2.3,iPhone,30.3030303,,,,,,,,,,0.73,1,,,,,,,,,,,,,,,,,,,,,,,-0.424489796,-0.308163265,1,0,0,,,,,,,STAIN,HB,z,y,./images/STAINHB.png,,,,,,,,,,,,,,,,,,,,,0,-0.424489796,-0.308163265,1,0,0,0.73,button_left_test,0,95,95,90,1
,,,,,,,,,,,,,,,,,6111426ad1d92c8215ccd56e,21,2022-02-12_16h54.18.676,lexical_decision_task_DD_L2,2021.2.3,iPhone,30.3030303,,,,,,,,,,0.598,1,,,,,,,,,,,,,,,,,,,,,,,-0.386734694,-0.310204082,1,0,0,,,,,,,STOVE,C,z,y,./images/STOVE.png,,,,,,,,,,,,,,,,,,,,,0,-0.386734694,-0.310204082,1,0,0,0.598,button_left_test,0,96,96,86,1
,,,,,,,,,,,,,,,,,6111426ad1d92c8215ccd56e,21,2022-02-12_16h54.18.676,lexical_decision_task_DD_L2,2021.2.3,iPhone,30.3030303,,,,,,,,,,0.602,1,,,,,,,,,,,,,,,,,,,,,,,-0.433673469,-0.298979592,1,0,0,,,,,,,VALLEY,C,z,y,./images/VALLEY.png,,,,,,,,,,,,,,,,,,,,,0,-0.433673469,-0.298979592,1,0,0,0.602,button_left_test,0,97,97,152,1
